"success"	"trial_type"	"trial_index"	"time_elapsed"	"internal_node_id"	"participant_id"	"screen_height"	"screen_width"	"browser"	"browser_version"	"mobile"	"os"	"vsync_rate"	"subject_id"	"width"	"height"	"webaudio"	"fullscreen"	"webcam"	"microphone"	"screen"	"version"	"date"	"time"	"rt"	"response"	"timeout"	"failed_images"	"failed_audio"	"failed_video"	"stimulus"	"trial_duration"	"block"	"correct_response"	"prestimulus_duration"	"correct"	"type"	"illusion_strength"	"illusion_difference"	"block_number"	"trial_number"
"TRUE"	"fullscreen"	"0"	"1007"	"0.0-0.0"	"ml0koy"	"600"	"1366"	"chrome"	"111.0.0"	"FALSE"	"Windows 10"	"60.13"	"062"	n/a	n/a	n/a	n/a	n/a	n/a	n/a	n/a	n/a	n/a	n/a	"NULL"	n/a	"NULL"	"NULL"	"NULL"	n/a	n/a	n/a	n/a	n/a	n/a	n/a	n/a	n/a	n/a	n/a
n/a	"browser-check"	"1"	"2017"	"0.0-1.0"	"ml0koy"	"600"	"1366"	"chrome"	"111.0.0"	"FALSE"	"Windows 10"	"60.13"	"062"	"1366"	"600"	"TRUE"	"TRUE"	"TRUE"	"TRUE"	"browser_info"	"1.0"	"28/03/2023"	"10:38:40"	n/a	"NULL"	n/a	"NULL"	"NULL"	"NULL"	n/a	n/a	n/a	n/a	n/a	n/a	n/a	n/a	n/a	n/a	n/a
n/a	"survey-text"	"2"	"5462"	"0.0-2.0"	"ml0koy"	"600"	"1366"	"chrome"	"111.0.0"	"FALSE"	"Windows 10"	"60.13"	"062"	n/a	n/a	n/a	n/a	n/a	n/a	"subject_id"	n/a	n/a	n/a	"3439"	"list(subject_id = \"062\")"	n/a	"NULL"	"NULL"	"NULL"	n/a	n/a	n/a	n/a	n/a	n/a	n/a	n/a	n/a	n/a	n/a
"TRUE"	"preload"	"3"	"5475"	"0.0-3.0"	"ml0koy"	"600"	"1366"	"chrome"	"111.0.0"	"FALSE"	"Windows 10"	"60.13"	"062"	n/a	n/a	n/a	n/a	n/a	n/a	n/a	n/a	n/a	n/a	n/a	"NULL"	"FALSE"	"list()"	"list()"	"list()"	n/a	n/a	n/a	n/a	n/a	n/a	n/a	n/a	n/a	n/a	n/a
n/a	"html-button-response"	"4"	"17838"	"0.0-4.0-0.0"	"ml0koy"	"600"	"1366"	"chrome"	"111.0.0"	"FALSE"	"Windows 10"	"60.13"	"062"	n/a	n/a	n/a	n/a	n/a	n/a	"illusion_instructions"	n/a	n/a	n/a	"12362"	"0"	n/a	"NULL"	"NULL"	"NULL"	"<p><b>Illusion Game</b></p><p>In this game of speed and reflex, you will need to make <b>visual judgments</b> (for instance, which circle is the biggest, or which line is the longest), as fast and as correctly as possible, while <b>resisting different visual illusions</b>.</p><p>We are going to start with some examples of all the illusions you will encounter in the game.</p>"	n/a	n/a	n/a	n/a	n/a	n/a	n/a	n/a	n/a	n/a
"TRUE"	"preload"	"5"	"17863"	"0.0-4.0-1.0-0.0"	"ml0koy"	"600"	"1366"	"chrome"	"111.0.0"	"FALSE"	"Windows 10"	"60.13"	"062"	n/a	n/a	n/a	n/a	n/a	n/a	n/a	n/a	n/a	n/a	n/a	"NULL"	"FALSE"	"list()"	"list()"	"list()"	n/a	n/a	n/a	n/a	n/a	n/a	n/a	n/a	n/a	n/a	n/a
n/a	"html-keyboard-response"	"6"	"36501"	"0.0-4.0-1.0-1.0"	"ml0koy"	"600"	"1366"	"chrome"	"111.0.0"	"FALSE"	"Windows 10"	"60.13"	"062"	n/a	n/a	n/a	n/a	n/a	n/a	n/a	n/a	n/a	n/a	"18637"	"enter"	n/a	"NULL"	"NULL"	"NULL"	"<p><b>Practice</b></p><p>In this part, two red circles will appear side by side on the screen.</p><p>Your task is to select which <b>red circle is bigger</b> in size as fast as you can, without making errors.</p><p>Don't get distracted by the surrounding black circles around the red circles!</p><p>Press <b>the LEFT or the RIGHT arrow</b> to indicate which is the bigger <b>red circle.</b></p><div style='float: center'><img src='materials/instructions/Ebbinghaus_Demo.png' height='300'></img><p><img src='utils/answer/answer_leftright_keyboard.PNG' height='150'></img></p><p class='small'>In this example, the correct answer is the <b>LEFT arrow</b>.</p></div><p>Are you ready? <b>Press ENTER to start</b></p>"	n/a	n/a	n/a	n/a	n/a	n/a	n/a	n/a	n/a	n/a
n/a	"html-keyboard-response"	"7"	"38112"	"0.0-4.0-1.0-2.0-0.0"	"ml0koy"	"600"	"1366"	"chrome"	"111.0.0"	"FALSE"	"Windows 10"	"60.13"	"062"	n/a	n/a	n/a	n/a	n/a	n/a	"fixation"	n/a	n/a	n/a	n/a	"NULL"	n/a	"NULL"	"NULL"	"NULL"	"<p style=\"color: black; font-size: 80px; padding-left: 23%; padding-right: 44%; padding-top: 32%; padding-bottom: 12%\">+</p>"	"1084"	n/a	n/a	n/a	n/a	n/a	n/a	n/a	n/a	n/a
n/a	"image-keyboard-response"	"8"	"39791"	"0.0-4.0-1.0-2.0-1.0"	"ml0koy"	"600"	"1366"	"chrome"	"111.0.0"	"FALSE"	"Windows 10"	"60.13"	"062"	n/a	n/a	n/a	n/a	n/a	n/a	"Trial"	n/a	n/a	n/a	"1667"	"arrowleft"	n/a	"NULL"	"NULL"	"NULL"	"stimuli/Ebbinghaus_-100000_1.40000.png"	n/a	"Ebbinghaus"	"arrowleft"	"1611"	"TRUE"	"Ebbinghaus"	"-10000000000"	"1.4000000000"	"1"	"1"
n/a	"html-keyboard-response"	"9"	"41124"	"0.0-4.0-1.0-2.0-0.1"	"ml0koy"	"600"	"1366"	"chrome"	"111.0.0"	"FALSE"	"Windows 10"	"60.13"	"062"	n/a	n/a	n/a	n/a	n/a	n/a	"fixation"	n/a	n/a	n/a	n/a	"NULL"	n/a	"NULL"	"NULL"	"NULL"	"<p style=\"color: black; font-size: 80px; padding-left: 5%; padding-right: 17%; padding-top: 27%; padding-bottom: 50%\">+</p>"	"1323"	n/a	n/a	n/a	n/a	n/a	n/a	n/a	n/a	n/a
n/a	"image-keyboard-response"	"10"	"42253"	"0.0-4.0-1.0-2.0-1.1"	"ml0koy"	"600"	"1366"	"chrome"	"111.0.0"	"FALSE"	"Windows 10"	"60.13"	"062"	n/a	n/a	n/a	n/a	n/a	n/a	"Trial"	n/a	n/a	n/a	"1128"	"arrowright"	n/a	"NULL"	"NULL"	"NULL"	"stimuli/Ebbinghaus_-100000_-1.4000.png"	n/a	"Ebbinghaus"	"arrowright"	"1333"	"TRUE"	"Ebbinghaus"	"-10000000000"	"-1.400000000"	"1"	"2"
n/a	"html-keyboard-response"	"11"	"43313"	"0.0-4.0-1.0-2.0-0.2"	"ml0koy"	"600"	"1366"	"chrome"	"111.0.0"	"FALSE"	"Windows 10"	"60.13"	"062"	n/a	n/a	n/a	n/a	n/a	n/a	"fixation"	n/a	n/a	n/a	n/a	"NULL"	n/a	"NULL"	"NULL"	"NULL"	"<p style=\"color: black; font-size: 80px; padding-left: 3%; padding-right: 18%; padding-top: 6%; padding-bottom: 9%\">+</p>"	"1056"	n/a	n/a	n/a	n/a	n/a	n/a	n/a	n/a	n/a
n/a	"image-keyboard-response"	"12"	"44420"	"0.0-4.0-1.0-2.0-1.2"	"ml0koy"	"600"	"1366"	"chrome"	"111.0.0"	"FALSE"	"Windows 10"	"60.13"	"062"	n/a	n/a	n/a	n/a	n/a	n/a	"Trial"	n/a	n/a	n/a	"1106"	"arrowleft"	n/a	"NULL"	"NULL"	"NULL"	"stimuli/Ebbinghaus_0000000_1.40000.png"	n/a	"Ebbinghaus"	"arrowleft"	"1060"	"TRUE"	"Ebbinghaus"	"000000000000"	"1.4000000000"	"1"	"3"
n/a	"html-keyboard-response"	"13"	"45551"	"0.0-4.0-1.0-2.0-0.3"	"ml0koy"	"600"	"1366"	"chrome"	"111.0.0"	"FALSE"	"Windows 10"	"60.13"	"062"	n/a	n/a	n/a	n/a	n/a	n/a	"fixation"	n/a	n/a	n/a	n/a	"NULL"	n/a	"NULL"	"NULL"	"NULL"	"<p style=\"color: black; font-size: 80px; padding-left: 26%; padding-right: 33%; padding-top: 12%; padding-bottom: 7%\">+</p>"	"1120"	n/a	n/a	n/a	n/a	n/a	n/a	n/a	n/a	n/a
n/a	"image-keyboard-response"	"14"	"46604"	"0.0-4.0-1.0-2.0-1.3"	"ml0koy"	"600"	"1366"	"chrome"	"111.0.0"	"FALSE"	"Windows 10"	"60.13"	"062"	n/a	n/a	n/a	n/a	n/a	n/a	"Trial"	n/a	n/a	n/a	"1052"	"arrowleft"	n/a	"NULL"	"NULL"	"NULL"	"stimuli/Ebbinghaus_1000000_1.40000.png"	n/a	"Ebbinghaus"	"arrowleft"	"1131"	"TRUE"	"Ebbinghaus"	"100000000000"	"1.4000000000"	"1"	"4"
n/a	"html-keyboard-response"	"15"	"48032"	"0.0-4.0-1.0-2.0-0.4"	"ml0koy"	"600"	"1366"	"chrome"	"111.0.0"	"FALSE"	"Windows 10"	"60.13"	"062"	n/a	n/a	n/a	n/a	n/a	n/a	"fixation"	n/a	n/a	n/a	n/a	"NULL"	n/a	"NULL"	"NULL"	"NULL"	"<p style=\"color: black; font-size: 80px; padding-left: 46%; padding-right: 4%; padding-top: 44%; padding-bottom: 29%\">+</p>"	"1422"	n/a	n/a	n/a	n/a	n/a	n/a	n/a	n/a	n/a
n/a	"image-keyboard-response"	"16"	"48946"	"0.0-4.0-1.0-2.0-1.4"	"ml0koy"	"600"	"1366"	"chrome"	"111.0.0"	"FALSE"	"Windows 10"	"60.13"	"062"	n/a	n/a	n/a	n/a	n/a	n/a	"Trial"	n/a	n/a	n/a	"913"	"arrowright"	n/a	"NULL"	"NULL"	"NULL"	"stimuli/Ebbinghaus_0000000_-1.4000.png"	n/a	"Ebbinghaus"	"arrowright"	"1428"	"TRUE"	"Ebbinghaus"	"000000000000"	"-1.400000000"	"1"	"5"
n/a	"html-keyboard-response"	"17"	"50365"	"0.0-4.0-1.0-2.0-0.5"	"ml0koy"	"600"	"1366"	"chrome"	"111.0.0"	"FALSE"	"Windows 10"	"60.13"	"062"	n/a	n/a	n/a	n/a	n/a	n/a	"fixation"	n/a	n/a	n/a	n/a	"NULL"	n/a	"NULL"	"NULL"	"NULL"	"<p style=\"color: black; font-size: 80px; padding-left: 40%; padding-right: 21%; padding-top: 45%; padding-bottom: 50%\">+</p>"	"1411"	n/a	n/a	n/a	n/a	n/a	n/a	n/a	n/a	n/a
n/a	"image-keyboard-response"	"18"	"51173"	"0.0-4.0-1.0-2.0-1.5"	"ml0koy"	"600"	"1366"	"chrome"	"111.0.0"	"FALSE"	"Windows 10"	"60.13"	"062"	n/a	n/a	n/a	n/a	n/a	n/a	"Trial"	n/a	n/a	n/a	"807"	"arrowright"	n/a	"NULL"	"NULL"	"NULL"	"stimuli/Ebbinghaus_1000000_-1.4000.png"	n/a	"Ebbinghaus"	"arrowright"	"1419"	"TRUE"	"Ebbinghaus"	"100000000000"	"-1.400000000"	"1"	"6"
n/a	"html-button-response"	"19"	"58878"	"0.0-4.0-1.0-3.0"	"ml0koy"	"600"	"1366"	"chrome"	"111.0.0"	"FALSE"	"Windows 10"	"60.13"	"062"	n/a	n/a	n/a	n/a	n/a	n/a	"practice_block_results"	n/a	n/a	n/a	"7704"	"0"	n/a	"NULL"	"NULL"	"NULL"	"<p style='color:rgb(76,175,80);'> Correct Responses: <b>100.00%</b></p><hr><p style='color:rgb(233,30,99);'> Average Response Time: <b>1112.17</b> ms.</p>"	n/a	n/a	n/a	n/a	n/a	n/a	n/a	n/a	n/a	n/a
"TRUE"	"preload"	"20"	"59399"	"0.0-4.0-2.0-0.0"	"ml0koy"	"600"	"1366"	"chrome"	"111.0.0"	"FALSE"	"Windows 10"	"60.13"	"062"	n/a	n/a	n/a	n/a	n/a	n/a	n/a	n/a	n/a	n/a	n/a	"NULL"	"FALSE"	"list()"	"list()"	"list()"	n/a	n/a	n/a	n/a	n/a	n/a	n/a	n/a	n/a	n/a	n/a
n/a	"html-keyboard-response"	"21"	"77711"	"0.0-4.0-2.0-1.0"	"ml0koy"	"600"	"1366"	"chrome"	"111.0.0"	"FALSE"	"Windows 10"	"60.13"	"062"	n/a	n/a	n/a	n/a	n/a	n/a	n/a	n/a	n/a	n/a	"18311"	"enter"	n/a	"NULL"	"NULL"	"NULL"	"<p><b>Practice</b></p><p>In this part, two horizontal red lines will appear one above the other.</p><p>Your task is to select which <b>line is longer</b> in length as fast as you can, without making errors.</p><p>Don't get distracted by the surrounding black arrows at the end of the red lines!</p><p>Press <b>the UP or the DOWN arrow</b> to indicate where is the longer <b>red line.</b></p><div style='float: center'><img src='materials/instructions/MullerLyer_Demo.png' height='300'></img><p><img src='utils/answer/answer_updown_keyboard.PNG' height='150'></img></p><p class='small'>In this example, the correct answer is the <b>UP arrow</b>.</p></div><p>Are you ready? <b>Press ENTER to start</b></p>"	n/a	n/a	n/a	n/a	n/a	n/a	n/a	n/a	n/a	n/a
n/a	"html-keyboard-response"	"22"	"79440"	"0.0-4.0-2.0-2.0-0.0"	"ml0koy"	"600"	"1366"	"chrome"	"111.0.0"	"FALSE"	"Windows 10"	"60.13"	"062"	n/a	n/a	n/a	n/a	n/a	n/a	"fixation"	n/a	n/a	n/a	n/a	"NULL"	n/a	"NULL"	"NULL"	"NULL"	"<p style=\"color: black; font-size: 80px; padding-left: 9%; padding-right: 15%; padding-top: 5%; padding-bottom: 5%\">+</p>"	"1211"	n/a	n/a	n/a	n/a	n/a	n/a	n/a	n/a	n/a
n/a	"image-keyboard-response"	"23"	"80466"	"0.0-4.0-2.0-2.0-1.0"	"ml0koy"	"600"	"1366"	"chrome"	"111.0.0"	"FALSE"	"Windows 10"	"60.13"	"062"	n/a	n/a	n/a	n/a	n/a	n/a	"Trial"	n/a	n/a	n/a	"1025"	"arrowup"	n/a	"NULL"	"NULL"	"NULL"	"stimuli/MullerLyer_0000000_0.70000.png"	n/a	"MullerLyer"	"arrowup"	"1729"	"TRUE"	"MullerLyer"	"000000000000"	"0.7000000000"	"1"	"7"
n/a	"html-keyboard-response"	"24"	"81907"	"0.0-4.0-2.0-2.0-0.1"	"ml0koy"	"600"	"1366"	"chrome"	"111.0.0"	"FALSE"	"Windows 10"	"60.13"	"062"	n/a	n/a	n/a	n/a	n/a	n/a	"fixation"	n/a	n/a	n/a	n/a	"NULL"	n/a	"NULL"	"NULL"	"NULL"	"<p style=\"color: black; font-size: 80px; padding-left: 4%; padding-right: 29%; padding-top: 13%; padding-bottom: 32%\">+</p>"	"1433"	n/a	n/a	n/a	n/a	n/a	n/a	n/a	n/a	n/a
n/a	"image-keyboard-response"	"25"	"83044"	"0.0-4.0-2.0-2.0-1.1"	"ml0koy"	"600"	"1366"	"chrome"	"111.0.0"	"FALSE"	"Windows 10"	"60.13"	"062"	n/a	n/a	n/a	n/a	n/a	n/a	"Trial"	n/a	n/a	n/a	"1133"	"arrowup"	n/a	"NULL"	"NULL"	"NULL"	"stimuli/MullerLyer_2300000_0.70000.png"	n/a	"MullerLyer"	"arrowup"	"1441"	"TRUE"	"MullerLyer"	"230000000000"	"0.7000000000"	"1"	"8"
n/a	"html-keyboard-response"	"26"	"84064"	"0.0-4.0-2.0-2.0-0.2"	"ml0koy"	"600"	"1366"	"chrome"	"111.0.0"	"FALSE"	"Windows 10"	"60.13"	"062"	n/a	n/a	n/a	n/a	n/a	n/a	"fixation"	n/a	n/a	n/a	n/a	"NULL"	n/a	"NULL"	"NULL"	"NULL"	"<p style=\"color: black; font-size: 80px; padding-left: 24%; padding-right: 17%; padding-top: 42%; padding-bottom: 27%\">+</p>"	"1019"	n/a	n/a	n/a	n/a	n/a	n/a	n/a	n/a	n/a
n/a	"image-keyboard-response"	"27"	"84744"	"0.0-4.0-2.0-2.0-1.2"	"ml0koy"	"600"	"1366"	"chrome"	"111.0.0"	"FALSE"	"Windows 10"	"60.13"	"062"	n/a	n/a	n/a	n/a	n/a	n/a	"Trial"	n/a	n/a	n/a	"679"	"arrowdown"	n/a	"NULL"	"NULL"	"NULL"	"stimuli/MullerLyer_2300000_-0.7000.png"	n/a	"MullerLyer"	"arrowdown"	"1020"	"TRUE"	"MullerLyer"	"230000000000"	"-0.700000000"	"1"	"9"
n/a	"html-keyboard-response"	"28"	"86017"	"0.0-4.0-2.0-2.0-0.3"	"ml0koy"	"600"	"1366"	"chrome"	"111.0.0"	"FALSE"	"Windows 10"	"60.13"	"062"	n/a	n/a	n/a	n/a	n/a	n/a	"fixation"	n/a	n/a	n/a	n/a	"NULL"	n/a	"NULL"	"NULL"	"NULL"	"<p style=\"color: black; font-size: 80px; padding-left: 31%; padding-right: 8%; padding-top: 12%; padding-bottom: 32%\">+</p>"	"1269"	n/a	n/a	n/a	n/a	n/a	n/a	n/a	n/a	n/a
n/a	"image-keyboard-response"	"29"	"86745"	"0.0-4.0-2.0-2.0-1.3"	"ml0koy"	"600"	"1366"	"chrome"	"111.0.0"	"FALSE"	"Windows 10"	"60.13"	"062"	n/a	n/a	n/a	n/a	n/a	n/a	"Trial"	n/a	n/a	n/a	"728"	"arrowdown"	n/a	"NULL"	"NULL"	"NULL"	"stimuli/MullerLyer_0000000_-0.7000.png"	n/a	"MullerLyer"	"arrowdown"	"1273"	"TRUE"	"MullerLyer"	"000000000000"	"-0.700000000"	"1"	"10"
n/a	"html-keyboard-response"	"30"	"88048"	"0.0-4.0-2.0-2.0-0.4"	"ml0koy"	"600"	"1366"	"chrome"	"111.0.0"	"FALSE"	"Windows 10"	"60.13"	"062"	n/a	n/a	n/a	n/a	n/a	n/a	"fixation"	n/a	n/a	n/a	n/a	"NULL"	n/a	"NULL"	"NULL"	"NULL"	"<p style=\"color: black; font-size: 80px; padding-left: 12%; padding-right: 45%; padding-top: 49%; padding-bottom: 22%\">+</p>"	"1287"	n/a	n/a	n/a	n/a	n/a	n/a	n/a	n/a	n/a
n/a	"image-keyboard-response"	"31"	"88541"	"0.0-4.0-2.0-2.0-1.4"	"ml0koy"	"600"	"1366"	"chrome"	"111.0.0"	"FALSE"	"Windows 10"	"60.13"	"062"	n/a	n/a	n/a	n/a	n/a	n/a	"Trial"	n/a	n/a	n/a	"492"	"arrowup"	n/a	"NULL"	"NULL"	"NULL"	"stimuli/MullerLyer_-230000_0.70000.png"	n/a	"MullerLyer"	"arrowup"	"1303"	"TRUE"	"MullerLyer"	"-23000000000"	"0.7000000000"	"1"	"11"
n/a	"html-keyboard-response"	"32"	"89751"	"0.0-4.0-2.0-2.0-0.5"	"ml0koy"	"600"	"1366"	"chrome"	"111.0.0"	"FALSE"	"Windows 10"	"60.13"	"062"	n/a	n/a	n/a	n/a	n/a	n/a	"fixation"	n/a	n/a	n/a	n/a	"NULL"	n/a	"NULL"	"NULL"	"NULL"	"<p style=\"color: black; font-size: 80px; padding-left: 1%; padding-right: 16%; padding-top: 47%; padding-bottom: 33%\">+</p>"	"1206"	n/a	n/a	n/a	n/a	n/a	n/a	n/a	n/a	n/a
n/a	"image-keyboard-response"	"33"	"90226"	"0.0-4.0-2.0-2.0-1.5"	"ml0koy"	"600"	"1366"	"chrome"	"111.0.0"	"FALSE"	"Windows 10"	"60.13"	"062"	n/a	n/a	n/a	n/a	n/a	n/a	"Trial"	n/a	n/a	n/a	"474"	"arrowdown"	n/a	"NULL"	"NULL"	"NULL"	"stimuli/MullerLyer_-230000_-0.7000.png"	n/a	"MullerLyer"	"arrowdown"	"1210"	"TRUE"	"MullerLyer"	"-23000000000"	"-0.700000000"	"1"	"12"
n/a	"html-button-response"	"34"	"94813"	"0.0-4.0-2.0-3.0"	"ml0koy"	"600"	"1366"	"chrome"	"111.0.0"	"FALSE"	"Windows 10"	"60.13"	"062"	n/a	n/a	n/a	n/a	n/a	n/a	"practice_block_results"	n/a	n/a	n/a	"4586"	"0"	n/a	"NULL"	"NULL"	"NULL"	"<p style='color:rgb(76,175,80);'> Correct Responses: <b>100.00%</b></p><hr><p style='color:rgb(233,30,99);'> Average Response Time: <b>755.17</b> ms.</p>"	n/a	n/a	n/a	n/a	n/a	n/a	n/a	n/a	n/a	n/a
"TRUE"	"preload"	"35"	"95333"	"0.0-4.0-3.0-0.0"	"ml0koy"	"600"	"1366"	"chrome"	"111.0.0"	"FALSE"	"Windows 10"	"60.13"	"062"	n/a	n/a	n/a	n/a	n/a	n/a	n/a	n/a	n/a	n/a	n/a	"NULL"	"FALSE"	"list()"	"list()"	"list()"	n/a	n/a	n/a	n/a	n/a	n/a	n/a	n/a	n/a	n/a	n/a
n/a	"html-keyboard-response"	"36"	"102555"	"0.0-4.0-3.0-1.0"	"ml0koy"	"600"	"1366"	"chrome"	"111.0.0"	"FALSE"	"Windows 10"	"60.13"	"062"	n/a	n/a	n/a	n/a	n/a	n/a	n/a	n/a	n/a	n/a	"7220"	"enter"	n/a	"NULL"	"NULL"	"NULL"	"<p><b>Practice</b></p><p>In this part, two red lines will appear side by side.</p><p>Your task is to tell <b>which line is longer</b> in length, regardless of their orientation, as fast as you can, and without making errors.</p><p>Don't get distracted by the orientation of the lines!</p><p>Press <b>the LEFT or the RIGHT arrow</b> to indicate which <b>line is the longer one.</b></p><div style='float: center'><img src='materials/instructions/VerticalHorizontal_Demo.png' height='300'></img><p><img src='utils/answer/answer_leftright_keyboard.PNG' height='150'></img></p><p class='small'>In this example, the correct answer is the <b>LEFT arrow</b>.</p></div><p>Are you ready? <b>Press ENTER to start</b></p>"	n/a	n/a	n/a	n/a	n/a	n/a	n/a	n/a	n/a	n/a
n/a	"html-keyboard-response"	"37"	"104490"	"0.0-4.0-3.0-2.0-0.0"	"ml0koy"	"600"	"1366"	"chrome"	"111.0.0"	"FALSE"	"Windows 10"	"60.13"	"062"	n/a	n/a	n/a	n/a	n/a	n/a	"fixation"	n/a	n/a	n/a	n/a	"NULL"	n/a	"NULL"	"NULL"	"NULL"	"<p style=\"color: black; font-size: 80px; padding-left: 47%; padding-right: 21%; padding-top: 44%; padding-bottom: 31%\">+</p>"	"1420"	n/a	n/a	n/a	n/a	n/a	n/a	n/a	n/a	n/a
n/a	"image-keyboard-response"	"38"	"105078"	"0.0-4.0-3.0-2.0-1.0"	"ml0koy"	"600"	"1366"	"chrome"	"111.0.0"	"FALSE"	"Windows 10"	"60.13"	"062"	n/a	n/a	n/a	n/a	n/a	n/a	"Trial"	n/a	n/a	n/a	"587"	"arrowleft"	n/a	"NULL"	"NULL"	"NULL"	"stimuli/VerticalHorizontal_0000000_0.90000.png"	n/a	"VerticalHorizontal"	"arrowleft"	"1935"	"TRUE"	"VerticalHorizontal"	"000000000000"	"0.9000000000"	"1"	"13"
n/a	"html-keyboard-response"	"39"	"106581"	"0.0-4.0-3.0-2.0-0.1"	"ml0koy"	"600"	"1366"	"chrome"	"111.0.0"	"FALSE"	"Windows 10"	"60.13"	"062"	n/a	n/a	n/a	n/a	n/a	n/a	"fixation"	n/a	n/a	n/a	n/a	"NULL"	n/a	"NULL"	"NULL"	"NULL"	"<p style=\"color: black; font-size: 80px; padding-left: 23%; padding-right: 19%; padding-top: 36%; padding-bottom: 36%\">+</p>"	"1491"	n/a	n/a	n/a	n/a	n/a	n/a	n/a	n/a	n/a
n/a	"image-keyboard-response"	"40"	"107062"	"0.0-4.0-3.0-2.0-1.1"	"ml0koy"	"600"	"1366"	"chrome"	"111.0.0"	"FALSE"	"Windows 10"	"60.13"	"062"	n/a	n/a	n/a	n/a	n/a	n/a	"Trial"	n/a	n/a	n/a	"480"	"arrowright"	n/a	"NULL"	"NULL"	"NULL"	"stimuli/VerticalHorizontal_-330000_-0.9000.png"	n/a	"VerticalHorizontal"	"arrowright"	"1503"	"TRUE"	"VerticalHorizontal"	"-33000000000"	"-0.900000000"	"1"	"14"
n/a	"html-keyboard-response"	"41"	"108488"	"0.0-4.0-3.0-2.0-0.2"	"ml0koy"	"600"	"1366"	"chrome"	"111.0.0"	"FALSE"	"Windows 10"	"60.13"	"062"	n/a	n/a	n/a	n/a	n/a	n/a	"fixation"	n/a	n/a	n/a	n/a	"NULL"	n/a	"NULL"	"NULL"	"NULL"	"<p style=\"color: black; font-size: 80px; padding-left: 22%; padding-right: 3%; padding-top: 17%; padding-bottom: 16%\">+</p>"	"1415"	n/a	n/a	n/a	n/a	n/a	n/a	n/a	n/a	n/a
n/a	"image-keyboard-response"	"42"	"108941"	"0.0-4.0-3.0-2.0-1.2"	"ml0koy"	"600"	"1366"	"chrome"	"111.0.0"	"FALSE"	"Windows 10"	"60.13"	"062"	n/a	n/a	n/a	n/a	n/a	n/a	"Trial"	n/a	n/a	n/a	"452"	"arrowleft"	n/a	"NULL"	"NULL"	"NULL"	"stimuli/VerticalHorizontal_3300000_0.90000.png"	n/a	"VerticalHorizontal"	"arrowleft"	"1426"	"TRUE"	"VerticalHorizontal"	"330000000000"	"0.9000000000"	"1"	"15"
n/a	"html-keyboard-response"	"43"	"110339"	"0.0-4.0-3.0-2.0-0.3"	"ml0koy"	"600"	"1366"	"chrome"	"111.0.0"	"FALSE"	"Windows 10"	"60.13"	"062"	n/a	n/a	n/a	n/a	n/a	n/a	"fixation"	n/a	n/a	n/a	n/a	"NULL"	n/a	"NULL"	"NULL"	"NULL"	"<p style=\"color: black; font-size: 80px; padding-left: 25%; padding-right: 10%; padding-top: 19%; padding-bottom: 0%\">+</p>"	"1387"	n/a	n/a	n/a	n/a	n/a	n/a	n/a	n/a	n/a
n/a	"image-keyboard-response"	"44"	"110836"	"0.0-4.0-3.0-2.0-1.3"	"ml0koy"	"600"	"1366"	"chrome"	"111.0.0"	"FALSE"	"Windows 10"	"60.13"	"062"	n/a	n/a	n/a	n/a	n/a	n/a	"Trial"	n/a	n/a	n/a	"496"	"arrowleft"	n/a	"NULL"	"NULL"	"NULL"	"stimuli/VerticalHorizontal_-330000_0.90000.png"	n/a	"VerticalHorizontal"	"arrowleft"	"1398"	"TRUE"	"VerticalHorizontal"	"-33000000000"	"0.9000000000"	"1"	"16"
n/a	"html-keyboard-response"	"45"	"112171"	"0.0-4.0-3.0-2.0-0.4"	"ml0koy"	"600"	"1366"	"chrome"	"111.0.0"	"FALSE"	"Windows 10"	"60.13"	"062"	n/a	n/a	n/a	n/a	n/a	n/a	"fixation"	n/a	n/a	n/a	n/a	"NULL"	n/a	"NULL"	"NULL"	"NULL"	"<p style=\"color: black; font-size: 80px; padding-left: 1%; padding-right: 49%; padding-top: 45%; padding-bottom: 34%\">+</p>"	"1323"	n/a	n/a	n/a	n/a	n/a	n/a	n/a	n/a	n/a
n/a	"image-keyboard-response"	"46"	"112628"	"0.0-4.0-3.0-2.0-1.4"	"ml0koy"	"600"	"1366"	"chrome"	"111.0.0"	"FALSE"	"Windows 10"	"60.13"	"062"	n/a	n/a	n/a	n/a	n/a	n/a	"Trial"	n/a	n/a	n/a	"456"	"arrowright"	n/a	"NULL"	"NULL"	"NULL"	"stimuli/VerticalHorizontal_3300000_-0.9000.png"	n/a	"VerticalHorizontal"	"arrowright"	"1335"	"TRUE"	"VerticalHorizontal"	"330000000000"	"-0.900000000"	"1"	"17"
n/a	"html-keyboard-response"	"47"	"114096"	"0.0-4.0-3.0-2.0-0.5"	"ml0koy"	"600"	"1366"	"chrome"	"111.0.0"	"FALSE"	"Windows 10"	"60.13"	"062"	n/a	n/a	n/a	n/a	n/a	n/a	"fixation"	n/a	n/a	n/a	n/a	"NULL"	n/a	"NULL"	"NULL"	"NULL"	"<p style=\"color: black; font-size: 80px; padding-left: 38%; padding-right: 27%; padding-top: 24%; padding-bottom: 1%\">+</p>"	"1453"	n/a	n/a	n/a	n/a	n/a	n/a	n/a	n/a	n/a
n/a	"image-keyboard-response"	"48"	"114536"	"0.0-4.0-3.0-2.0-1.5"	"ml0koy"	"600"	"1366"	"chrome"	"111.0.0"	"FALSE"	"Windows 10"	"60.13"	"062"	n/a	n/a	n/a	n/a	n/a	n/a	"Trial"	n/a	n/a	n/a	"438"	"arrowright"	n/a	"NULL"	"NULL"	"NULL"	"stimuli/VerticalHorizontal_0000000_-0.9000.png"	n/a	"VerticalHorizontal"	"arrowright"	"1468"	"TRUE"	"VerticalHorizontal"	"000000000000"	"-0.900000000"	"1"	"18"
n/a	"html-button-response"	"49"	"117405"	"0.0-4.0-3.0-3.0"	"ml0koy"	"600"	"1366"	"chrome"	"111.0.0"	"FALSE"	"Windows 10"	"60.13"	"062"	n/a	n/a	n/a	n/a	n/a	n/a	"practice_block_results"	n/a	n/a	n/a	"2869"	"0"	n/a	"NULL"	"NULL"	"NULL"	"<p style='color:rgb(76,175,80);'> Correct Responses: <b>100.00%</b></p><hr><p style='color:rgb(233,30,99);'> Average Response Time: <b>484.83</b> ms.</p>"	n/a	n/a	n/a	n/a	n/a	n/a	n/a	n/a	n/a	n/a
n/a	"html-button-response"	"50"	"203298"	"0.0-4.0-4.0"	"ml0koy"	"600"	"1366"	"chrome"	"111.0.0"	"FALSE"	"Windows 10"	"60.13"	"062"	n/a	n/a	n/a	n/a	n/a	n/a	"practice_debrief"	n/a	n/a	n/a	"85391"	"0"	n/a	"NULL"	"NULL"	"NULL"	"<p><b>TRAINING COMPLETED</b></p><p>In the next phase, there will be more trials, and some might be harder too.<br> Moreover, after each illusion block, a <b>score</b> will be calculated based on speed (time you took to answer) and accuracy (number of errors).</p><p>Try to keep up a high score!</p><br><p>Note that it can be <i>really</i> challenging at times, so you will need to rely on your <b>intuition</b> and gut feeling to answer as fast as you can without making errors.</p><p>Each illusion block will be repeated two times (so that you have the opportunity to improve your score), but the order of the blocks is random.</p><p>Remember, your goal is to be as <b>fast</b> and <b>accurate</b> as possible. Good luck!</p><br>"	n/a	n/a	n/a	n/a	n/a	n/a	n/a	n/a	n/a	n/a
"TRUE"	"preload"	"51"	"203490"	"0.0-5.0-0.0"	"ml0koy"	"600"	"1366"	"chrome"	"111.0.0"	"FALSE"	"Windows 10"	"60.13"	"062"	n/a	n/a	n/a	n/a	n/a	n/a	n/a	n/a	n/a	n/a	n/a	"NULL"	"FALSE"	"list()"	"list()"	"list()"	n/a	n/a	n/a	n/a	n/a	n/a	n/a	n/a	n/a	n/a	n/a
n/a	"html-keyboard-response"	"52"	"209094"	"0.0-5.0-1.0"	"ml0koy"	"600"	"1366"	"chrome"	"111.0.0"	"FALSE"	"Windows 10"	"60.13"	"062"	n/a	n/a	n/a	n/a	n/a	n/a	n/a	n/a	n/a	n/a	"5604"	"enter"	n/a	"NULL"	"NULL"	"NULL"	"<p><b>Part 1/6</b></p><p>In this part, two horizontal red lines will appear one above the other.</p><p>Your task is to select which <b>line is longer</b> in length as fast as you can, without making errors.</p><p>Don't get distracted by the surrounding black arrows at the end of the red lines!</p><p>Press <b>the UP or the DOWN arrow</b> to indicate where is the longer <b>red line.</b></p><div style='float: center'><img src='materials/instructions/MullerLyer_Demo.png' height='300'></img><p><img src='utils/answer/answer_updown_keyboard.PNG' height='150'></img></p><p class='small'>In this example, the correct answer is the <b>UP arrow</b>.</p></div><p>Are you ready? <b>Press ENTER to start</b></p>"	n/a	n/a	n/a	n/a	n/a	n/a	n/a	n/a	n/a	n/a
n/a	"html-keyboard-response"	"53"	"210623"	"0.0-5.0-2.0-0.0"	"ml0koy"	"600"	"1366"	"chrome"	"111.0.0"	"FALSE"	"Windows 10"	"60.13"	"062"	n/a	n/a	n/a	n/a	n/a	n/a	"fixation"	n/a	n/a	n/a	n/a	"NULL"	n/a	"NULL"	"NULL"	"NULL"	"<p style=\"color: black; font-size: 80px; padding-left: 17%; padding-right: 7%; padding-top: 11%; padding-bottom: 6%\">+</p>"	"1020"	n/a	n/a	n/a	n/a	n/a	n/a	n/a	n/a	n/a
n/a	"image-keyboard-response"	"54"	"212034"	"0.0-5.0-2.0-1.0"	"ml0koy"	"600"	"1366"	"chrome"	"111.0.0"	"FALSE"	"Windows 10"	"60.13"	"062"	n/a	n/a	n/a	n/a	n/a	n/a	"Trial"	n/a	n/a	n/a	"1410"	"arrowup"	n/a	"NULL"	"NULL"	"NULL"	"stimuli/MullerLyer_14.12857_0.07627.png"	n/a	"MullerLyer"	"arrowup"	"1529"	"TRUE"	"MullerLyer"	"14.128570000"	"0.0762700000"	"1"	"19"
n/a	"html-keyboard-response"	"55"	"213322"	"0.0-5.0-2.0-0.1"	"ml0koy"	"600"	"1366"	"chrome"	"111.0.0"	"FALSE"	"Windows 10"	"60.13"	"062"	n/a	n/a	n/a	n/a	n/a	n/a	"fixation"	n/a	n/a	n/a	n/a	"NULL"	n/a	"NULL"	"NULL"	"NULL"	"<p style=\"color: black; font-size: 80px; padding-left: 49%; padding-right: 18%; padding-top: 15%; padding-bottom: 0%\">+</p>"	"1275"	n/a	n/a	n/a	n/a	n/a	n/a	n/a	n/a	n/a
n/a	"image-keyboard-response"	"56"	"213958"	"0.0-5.0-2.0-1.1"	"ml0koy"	"600"	"1366"	"chrome"	"111.0.0"	"FALSE"	"Windows 10"	"60.13"	"062"	n/a	n/a	n/a	n/a	n/a	n/a	"Trial"	n/a	n/a	n/a	"636"	"arrowdown"	n/a	"NULL"	"NULL"	"NULL"	"stimuli/MullerLyer_-8.21429_-0.3500.png"	n/a	"MullerLyer"	"arrowdown"	"1288"	"TRUE"	"MullerLyer"	"-8.214290000"	"-0.350000000"	"1"	"20"
n/a	"html-keyboard-response"	"57"	"215415"	"0.0-5.0-2.0-0.2"	"ml0koy"	"600"	"1366"	"chrome"	"111.0.0"	"FALSE"	"Windows 10"	"60.13"	"062"	n/a	n/a	n/a	n/a	n/a	n/a	"fixation"	n/a	n/a	n/a	n/a	"NULL"	n/a	"NULL"	"NULL"	"NULL"	"<p style=\"color: black; font-size: 80px; padding-left: 2%; padding-right: 30%; padding-top: 50%; padding-bottom: 47%\">+</p>"	"1443"	n/a	n/a	n/a	n/a	n/a	n/a	n/a	n/a	n/a
n/a	"image-keyboard-response"	"58"	"216118"	"0.0-5.0-2.0-1.2"	"ml0koy"	"600"	"1366"	"chrome"	"111.0.0"	"FALSE"	"Windows 10"	"60.13"	"062"	n/a	n/a	n/a	n/a	n/a	n/a	"Trial"	n/a	n/a	n/a	"702"	"arrowup"	n/a	"NULL"	"NULL"	"NULL"	"stimuli/MullerLyer_-2.3000_-0.07627.png"	n/a	"MullerLyer"	"arrowdown"	"1457"	"FALSE"	"MullerLyer"	"-2.300000000"	"-0.076270000"	"1"	"21"
n/a	"html-keyboard-response"	"59"	"217611"	"0.0-5.0-2.0-0.3"	"ml0koy"	"600"	"1366"	"chrome"	"111.0.0"	"FALSE"	"Windows 10"	"60.13"	"062"	n/a	n/a	n/a	n/a	n/a	n/a	"fixation"	n/a	n/a	n/a	n/a	"NULL"	n/a	"NULL"	"NULL"	"NULL"	"<p style=\"color: black; font-size: 80px; padding-left: 41%; padding-right: 45%; padding-top: 11%; padding-bottom: 46%\">+</p>"	"1482"	n/a	n/a	n/a	n/a	n/a	n/a	n/a	n/a	n/a
n/a	"image-keyboard-response"	"60"	"218271"	"0.0-5.0-2.0-1.3"	"ml0koy"	"600"	"1366"	"chrome"	"111.0.0"	"FALSE"	"Windows 10"	"60.13"	"062"	n/a	n/a	n/a	n/a	n/a	n/a	"Trial"	n/a	n/a	n/a	"659"	"arrowup"	n/a	"NULL"	"NULL"	"NULL"	"stimuli/MullerLyer_14.12857_0.35000.png"	n/a	"MullerLyer"	"arrowup"	"1493"	"TRUE"	"MullerLyer"	"14.128570000"	"0.3500000000"	"1"	"22"
n/a	"html-keyboard-response"	"61"	"219345"	"0.0-5.0-2.0-0.4"	"ml0koy"	"600"	"1366"	"chrome"	"111.0.0"	"FALSE"	"Windows 10"	"60.13"	"062"	n/a	n/a	n/a	n/a	n/a	n/a	"fixation"	n/a	n/a	n/a	n/a	"NULL"	n/a	"NULL"	"NULL"	"NULL"	"<p style=\"color: black; font-size: 80px; padding-left: 9%; padding-right: 46%; padding-top: 1%; padding-bottom: 4%\">+</p>"	"1061"	n/a	n/a	n/a	n/a	n/a	n/a	n/a	n/a	n/a
n/a	"image-keyboard-response"	"62"	"220020"	"0.0-5.0-2.0-1.4"	"ml0koy"	"600"	"1366"	"chrome"	"111.0.0"	"FALSE"	"Windows 10"	"60.13"	"062"	n/a	n/a	n/a	n/a	n/a	n/a	"Trial"	n/a	n/a	n/a	"674"	"arrowup"	n/a	"NULL"	"NULL"	"NULL"	"stimuli/MullerLyer_-2.3000_0.35000.png"	n/a	"MullerLyer"	"arrowup"	"1074"	"TRUE"	"MullerLyer"	"-2.300000000"	"0.3500000000"	"1"	"23"
n/a	"html-keyboard-response"	"63"	"221071"	"0.0-5.0-2.0-0.5"	"ml0koy"	"600"	"1366"	"chrome"	"111.0.0"	"FALSE"	"Windows 10"	"60.13"	"062"	n/a	n/a	n/a	n/a	n/a	n/a	"fixation"	n/a	n/a	n/a	n/a	"NULL"	n/a	"NULL"	"NULL"	"NULL"	"<p style=\"color: black; font-size: 80px; padding-left: 3%; padding-right: 35%; padding-top: 16%; padding-bottom: 38%\">+</p>"	"1037"	n/a	n/a	n/a	n/a	n/a	n/a	n/a	n/a	n/a
n/a	"image-keyboard-response"	"64"	"221663"	"0.0-5.0-2.0-1.5"	"ml0koy"	"600"	"1366"	"chrome"	"111.0.0"	"FALSE"	"Windows 10"	"60.13"	"062"	n/a	n/a	n/a	n/a	n/a	n/a	"Trial"	n/a	n/a	n/a	"588"	"arrowup"	n/a	"NULL"	"NULL"	"NULL"	"stimuli/MullerLyer_20.04286_-0.07627.png"	n/a	"MullerLyer"	"arrowdown"	"1051"	"FALSE"	"MullerLyer"	"20.042860000"	"-0.076270000"	"1"	"24"
n/a	"html-keyboard-response"	"65"	"222900"	"0.0-5.0-2.0-0.6"	"ml0koy"	"600"	"1366"	"chrome"	"111.0.0"	"FALSE"	"Windows 10"	"60.13"	"062"	n/a	n/a	n/a	n/a	n/a	n/a	"fixation"	n/a	n/a	n/a	n/a	"NULL"	n/a	"NULL"	"NULL"	"NULL"	"<p style=\"color: black; font-size: 80px; padding-left: 25%; padding-right: 50%; padding-top: 15%; padding-bottom: 41%\">+</p>"	"1232"	n/a	n/a	n/a	n/a	n/a	n/a	n/a	n/a	n/a
n/a	"image-keyboard-response"	"66"	"223396"	"0.0-5.0-2.0-1.6"	"ml0koy"	"600"	"1366"	"chrome"	"111.0.0"	"FALSE"	"Windows 10"	"60.13"	"062"	n/a	n/a	n/a	n/a	n/a	n/a	"Trial"	n/a	n/a	n/a	"495"	"arrowdown"	n/a	"NULL"	"NULL"	"NULL"	"stimuli/MullerLyer_-20.04286_-0.07627.png"	n/a	"MullerLyer"	"arrowdown"	"1237"	"TRUE"	"MullerLyer"	"-20.04286000"	"-0.076270000"	"1"	"25"
n/a	"html-keyboard-response"	"67"	"224859"	"0.0-5.0-2.0-0.7"	"ml0koy"	"600"	"1366"	"chrome"	"111.0.0"	"FALSE"	"Windows 10"	"60.13"	"062"	n/a	n/a	n/a	n/a	n/a	n/a	"fixation"	n/a	n/a	n/a	n/a	"NULL"	n/a	"NULL"	"NULL"	"NULL"	"<p style=\"color: black; font-size: 80px; padding-left: 49%; padding-right: 40%; padding-top: 40%; padding-bottom: 17%\">+</p>"	"1457"	n/a	n/a	n/a	n/a	n/a	n/a	n/a	n/a	n/a
n/a	"image-keyboard-response"	"68"	"225638"	"0.0-5.0-2.0-1.7"	"ml0koy"	"600"	"1366"	"chrome"	"111.0.0"	"FALSE"	"Windows 10"	"60.13"	"062"	n/a	n/a	n/a	n/a	n/a	n/a	"Trial"	n/a	n/a	n/a	"777"	"arrowup"	n/a	"NULL"	"NULL"	"NULL"	"stimuli/MullerLyer_20.04286_0.35000.png"	n/a	"MullerLyer"	"arrowup"	"1463"	"TRUE"	"MullerLyer"	"20.042860000"	"0.3500000000"	"1"	"26"
n/a	"html-keyboard-response"	"69"	"226838"	"0.0-5.0-2.0-0.8"	"ml0koy"	"600"	"1366"	"chrome"	"111.0.0"	"FALSE"	"Windows 10"	"60.13"	"062"	n/a	n/a	n/a	n/a	n/a	n/a	"fixation"	n/a	n/a	n/a	n/a	"NULL"	n/a	"NULL"	"NULL"	"NULL"	"<p style=\"color: black; font-size: 80px; padding-left: 44%; padding-right: 34%; padding-top: 47%; padding-bottom: 3%\">+</p>"	"1196"	n/a	n/a	n/a	n/a	n/a	n/a	n/a	n/a	n/a
n/a	"image-keyboard-response"	"70"	"227395"	"0.0-5.0-2.0-1.8"	"ml0koy"	"600"	"1366"	"chrome"	"111.0.0"	"FALSE"	"Windows 10"	"60.13"	"062"	n/a	n/a	n/a	n/a	n/a	n/a	"Trial"	n/a	n/a	n/a	"556"	"arrowdown"	n/a	"NULL"	"NULL"	"NULL"	"stimuli/MullerLyer_-8.21429_-0.23665.png"	n/a	"MullerLyer"	"arrowdown"	"1200"	"TRUE"	"MullerLyer"	"-8.214290000"	"-0.236650000"	"1"	"27"
n/a	"html-keyboard-response"	"71"	"228815"	"0.0-5.0-2.0-0.9"	"ml0koy"	"600"	"1366"	"chrome"	"111.0.0"	"FALSE"	"Windows 10"	"60.13"	"062"	n/a	n/a	n/a	n/a	n/a	n/a	"fixation"	n/a	n/a	n/a	n/a	"NULL"	n/a	"NULL"	"NULL"	"NULL"	"<p style=\"color: black; font-size: 80px; padding-left: 27%; padding-right: 39%; padding-top: 27%; padding-bottom: 29%\">+</p>"	"1409"	n/a	n/a	n/a	n/a	n/a	n/a	n/a	n/a	n/a
n/a	"image-keyboard-response"	"72"	"229502"	"0.0-5.0-2.0-1.9"	"ml0koy"	"600"	"1366"	"chrome"	"111.0.0"	"FALSE"	"Windows 10"	"60.13"	"062"	n/a	n/a	n/a	n/a	n/a	n/a	"Trial"	n/a	n/a	n/a	"686"	"arrowup"	n/a	"NULL"	"NULL"	"NULL"	"stimuli/MullerLyer_2.30000_0.07627.png"	n/a	"MullerLyer"	"arrowup"	"1420"	"TRUE"	"MullerLyer"	"2.3000000000"	"0.0762700000"	"1"	"28"
n/a	"html-keyboard-response"	"73"	"230696"	"0.0-5.0-2.0-0.10"	"ml0koy"	"600"	"1366"	"chrome"	"111.0.0"	"FALSE"	"Windows 10"	"60.13"	"062"	n/a	n/a	n/a	n/a	n/a	n/a	"fixation"	n/a	n/a	n/a	n/a	"NULL"	n/a	"NULL"	"NULL"	"NULL"	"<p style=\"color: black; font-size: 80px; padding-left: 26%; padding-right: 15%; padding-top: 31%; padding-bottom: 25%\">+</p>"	"1190"	n/a	n/a	n/a	n/a	n/a	n/a	n/a	n/a	n/a
n/a	"image-keyboard-response"	"74"	"231273"	"0.0-5.0-2.0-1.10"	"ml0koy"	"600"	"1366"	"chrome"	"111.0.0"	"FALSE"	"Windows 10"	"60.13"	"062"	n/a	n/a	n/a	n/a	n/a	n/a	"Trial"	n/a	n/a	n/a	"576"	"arrowup"	n/a	"NULL"	"NULL"	"NULL"	"stimuli/MullerLyer_-20.04286_0.14541.png"	n/a	"MullerLyer"	"arrowup"	"1194"	"TRUE"	"MullerLyer"	"-20.04286000"	"0.1454100000"	"1"	"29"
n/a	"html-keyboard-response"	"75"	"232535"	"0.0-5.0-2.0-0.11"	"ml0koy"	"600"	"1366"	"chrome"	"111.0.0"	"FALSE"	"Windows 10"	"60.13"	"062"	n/a	n/a	n/a	n/a	n/a	n/a	"fixation"	n/a	n/a	n/a	n/a	"NULL"	n/a	"NULL"	"NULL"	"NULL"	"<p style=\"color: black; font-size: 80px; padding-left: 40%; padding-right: 9%; padding-top: 34%; padding-bottom: 31%\">+</p>"	"1257"	n/a	n/a	n/a	n/a	n/a	n/a	n/a	n/a	n/a
n/a	"image-keyboard-response"	"76"	"233069"	"0.0-5.0-2.0-1.11"	"ml0koy"	"600"	"1366"	"chrome"	"111.0.0"	"FALSE"	"Windows 10"	"60.13"	"062"	n/a	n/a	n/a	n/a	n/a	n/a	"Trial"	n/a	n/a	n/a	"533"	"arrowup"	n/a	"NULL"	"NULL"	"NULL"	"stimuli/MullerLyer_2.30000_0.35000.png"	n/a	"MullerLyer"	"arrowup"	"1262"	"TRUE"	"MullerLyer"	"2.3000000000"	"0.3500000000"	"1"	"30"
n/a	"html-keyboard-response"	"77"	"234268"	"0.0-5.0-2.0-0.12"	"ml0koy"	"600"	"1366"	"chrome"	"111.0.0"	"FALSE"	"Windows 10"	"60.13"	"062"	n/a	n/a	n/a	n/a	n/a	n/a	"fixation"	n/a	n/a	n/a	n/a	"NULL"	n/a	"NULL"	"NULL"	"NULL"	"<p style=\"color: black; font-size: 80px; padding-left: 26%; padding-right: 32%; padding-top: 22%; padding-bottom: 44%\">+</p>"	"1191"	n/a	n/a	n/a	n/a	n/a	n/a	n/a	n/a	n/a
n/a	"image-keyboard-response"	"78"	"234851"	"0.0-5.0-2.0-1.12"	"ml0koy"	"600"	"1366"	"chrome"	"111.0.0"	"FALSE"	"Windows 10"	"60.13"	"062"	n/a	n/a	n/a	n/a	n/a	n/a	"Trial"	n/a	n/a	n/a	"582"	"arrowdown"	n/a	"NULL"	"NULL"	"NULL"	"stimuli/MullerLyer_-8.21429_-0.14541.png"	n/a	"MullerLyer"	"arrowdown"	"1199"	"TRUE"	"MullerLyer"	"-8.214290000"	"-0.145410000"	"1"	"31"
n/a	"html-keyboard-response"	"79"	"236195"	"0.0-5.0-2.0-0.13"	"ml0koy"	"600"	"1366"	"chrome"	"111.0.0"	"FALSE"	"Windows 10"	"60.13"	"062"	n/a	n/a	n/a	n/a	n/a	n/a	"fixation"	n/a	n/a	n/a	n/a	"NULL"	n/a	"NULL"	"NULL"	"NULL"	"<p style=\"color: black; font-size: 80px; padding-left: 24%; padding-right: 40%; padding-top: 45%; padding-bottom: 43%\">+</p>"	"1342"	n/a	n/a	n/a	n/a	n/a	n/a	n/a	n/a	n/a
n/a	"image-keyboard-response"	"80"	"236821"	"0.0-5.0-2.0-1.13"	"ml0koy"	"600"	"1366"	"chrome"	"111.0.0"	"FALSE"	"Windows 10"	"60.13"	"062"	n/a	n/a	n/a	n/a	n/a	n/a	"Trial"	n/a	n/a	n/a	"625"	"arrowup"	n/a	"NULL"	"NULL"	"NULL"	"stimuli/MullerLyer_8.21429_-0.14541.png"	n/a	"MullerLyer"	"arrowdown"	"1344"	"FALSE"	"MullerLyer"	"8.2142900000"	"-0.145410000"	"1"	"32"
n/a	"html-keyboard-response"	"81"	"238235"	"0.0-5.0-2.0-0.14"	"ml0koy"	"600"	"1366"	"chrome"	"111.0.0"	"FALSE"	"Windows 10"	"60.13"	"062"	n/a	n/a	n/a	n/a	n/a	n/a	"fixation"	n/a	n/a	n/a	n/a	"NULL"	n/a	"NULL"	"NULL"	"NULL"	"<p style=\"color: black; font-size: 80px; padding-left: 3%; padding-right: 46%; padding-top: 33%; padding-bottom: 35%\">+</p>"	"1406"	n/a	n/a	n/a	n/a	n/a	n/a	n/a	n/a	n/a
n/a	"image-keyboard-response"	"82"	"238746"	"0.0-5.0-2.0-1.14"	"ml0koy"	"600"	"1366"	"chrome"	"111.0.0"	"FALSE"	"Windows 10"	"60.13"	"062"	n/a	n/a	n/a	n/a	n/a	n/a	"Trial"	n/a	n/a	n/a	"510"	"arrowdown"	n/a	"NULL"	"NULL"	"NULL"	"stimuli/MullerLyer_-2.3000_-0.3500.png"	n/a	"MullerLyer"	"arrowdown"	"1414"	"TRUE"	"MullerLyer"	"-2.300000000"	"-0.350000000"	"1"	"33"
n/a	"html-keyboard-response"	"83"	"240189"	"0.0-5.0-2.0-0.15"	"ml0koy"	"600"	"1366"	"chrome"	"111.0.0"	"FALSE"	"Windows 10"	"60.13"	"062"	n/a	n/a	n/a	n/a	n/a	n/a	"fixation"	n/a	n/a	n/a	n/a	"NULL"	n/a	"NULL"	"NULL"	"NULL"	"<p style=\"color: black; font-size: 80px; padding-left: 27%; padding-right: 37%; padding-top: 28%; padding-bottom: 17%\">+</p>"	"1437"	n/a	n/a	n/a	n/a	n/a	n/a	n/a	n/a	n/a
n/a	"image-keyboard-response"	"84"	"240708"	"0.0-5.0-2.0-1.15"	"ml0koy"	"600"	"1366"	"chrome"	"111.0.0"	"FALSE"	"Windows 10"	"60.13"	"062"	n/a	n/a	n/a	n/a	n/a	n/a	"Trial"	n/a	n/a	n/a	"519"	"arrowup"	n/a	"NULL"	"NULL"	"NULL"	"stimuli/MullerLyer_-20.04286_0.07627.png"	n/a	"MullerLyer"	"arrowup"	"1443"	"TRUE"	"MullerLyer"	"-20.04286000"	"0.0762700000"	"1"	"34"
n/a	"html-keyboard-response"	"85"	"241998"	"0.0-5.0-2.0-0.16"	"ml0koy"	"600"	"1366"	"chrome"	"111.0.0"	"FALSE"	"Windows 10"	"60.13"	"062"	n/a	n/a	n/a	n/a	n/a	n/a	"fixation"	n/a	n/a	n/a	n/a	"NULL"	n/a	"NULL"	"NULL"	"NULL"	"<p style=\"color: black; font-size: 80px; padding-left: 2%; padding-right: 39%; padding-top: 11%; padding-bottom: 9%\">+</p>"	"1283"	n/a	n/a	n/a	n/a	n/a	n/a	n/a	n/a	n/a
n/a	"image-keyboard-response"	"86"	"242492"	"0.0-5.0-2.0-1.16"	"ml0koy"	"600"	"1366"	"chrome"	"111.0.0"	"FALSE"	"Windows 10"	"60.13"	"062"	n/a	n/a	n/a	n/a	n/a	n/a	"Trial"	n/a	n/a	n/a	"493"	"arrowdown"	n/a	"NULL"	"NULL"	"NULL"	"stimuli/MullerLyer_8.21429_0.07627.png"	n/a	"MullerLyer"	"arrowup"	"1290"	"FALSE"	"MullerLyer"	"8.2142900000"	"0.0762700000"	"1"	"35"
n/a	"html-keyboard-response"	"87"	"243687"	"0.0-5.0-2.0-0.17"	"ml0koy"	"600"	"1366"	"chrome"	"111.0.0"	"FALSE"	"Windows 10"	"60.13"	"062"	n/a	n/a	n/a	n/a	n/a	n/a	"fixation"	n/a	n/a	n/a	n/a	"NULL"	n/a	"NULL"	"NULL"	"NULL"	"<p style=\"color: black; font-size: 80px; padding-left: 50%; padding-right: 26%; padding-top: 34%; padding-bottom: 6%\">+</p>"	"1190"	n/a	n/a	n/a	n/a	n/a	n/a	n/a	n/a	n/a
n/a	"image-keyboard-response"	"88"	"244260"	"0.0-5.0-2.0-1.17"	"ml0koy"	"600"	"1366"	"chrome"	"111.0.0"	"FALSE"	"Windows 10"	"60.13"	"062"	n/a	n/a	n/a	n/a	n/a	n/a	"Trial"	n/a	n/a	n/a	"572"	"arrowup"	n/a	"NULL"	"NULL"	"NULL"	"stimuli/MullerLyer_-8.21429_0.14541.png"	n/a	"MullerLyer"	"arrowup"	"1195"	"TRUE"	"MullerLyer"	"-8.214290000"	"0.1454100000"	"1"	"36"
n/a	"html-keyboard-response"	"89"	"245344"	"0.0-5.0-2.0-0.18"	"ml0koy"	"600"	"1366"	"chrome"	"111.0.0"	"FALSE"	"Windows 10"	"60.13"	"062"	n/a	n/a	n/a	n/a	n/a	n/a	"fixation"	n/a	n/a	n/a	n/a	"NULL"	n/a	"NULL"	"NULL"	"NULL"	"<p style=\"color: black; font-size: 80px; padding-left: 40%; padding-right: 8%; padding-top: 27%; padding-bottom: 4%\">+</p>"	"1079"	n/a	n/a	n/a	n/a	n/a	n/a	n/a	n/a	n/a
n/a	"image-keyboard-response"	"90"	"245955"	"0.0-5.0-2.0-1.18"	"ml0koy"	"600"	"1366"	"chrome"	"111.0.0"	"FALSE"	"Windows 10"	"60.13"	"062"	n/a	n/a	n/a	n/a	n/a	n/a	"Trial"	n/a	n/a	n/a	"611"	"arrowup"	n/a	"NULL"	"NULL"	"NULL"	"stimuli/MullerLyer_8.21429_-0.07627.png"	n/a	"MullerLyer"	"arrowdown"	"1084"	"FALSE"	"MullerLyer"	"8.2142900000"	"-0.076270000"	"1"	"37"
n/a	"html-keyboard-response"	"91"	"247158"	"0.0-5.0-2.0-0.19"	"ml0koy"	"600"	"1366"	"chrome"	"111.0.0"	"FALSE"	"Windows 10"	"60.13"	"062"	n/a	n/a	n/a	n/a	n/a	n/a	"fixation"	n/a	n/a	n/a	n/a	"NULL"	n/a	"NULL"	"NULL"	"NULL"	"<p style=\"color: black; font-size: 80px; padding-left: 1%; padding-right: 33%; padding-top: 29%; padding-bottom: 13%\">+</p>"	"1188"	n/a	n/a	n/a	n/a	n/a	n/a	n/a	n/a	n/a
n/a	"image-keyboard-response"	"92"	"247714"	"0.0-5.0-2.0-1.19"	"ml0koy"	"600"	"1366"	"chrome"	"111.0.0"	"FALSE"	"Windows 10"	"60.13"	"062"	n/a	n/a	n/a	n/a	n/a	n/a	"Trial"	n/a	n/a	n/a	"554"	"arrowup"	n/a	"NULL"	"NULL"	"NULL"	"stimuli/MullerLyer_-20.04286_0.23665.png"	n/a	"MullerLyer"	"arrowup"	"1203"	"TRUE"	"MullerLyer"	"-20.04286000"	"0.2366500000"	"1"	"38"
n/a	"html-keyboard-response"	"93"	"249173"	"0.0-5.0-2.0-0.20"	"ml0koy"	"600"	"1366"	"chrome"	"111.0.0"	"FALSE"	"Windows 10"	"60.13"	"062"	n/a	n/a	n/a	n/a	n/a	n/a	"fixation"	n/a	n/a	n/a	n/a	"NULL"	n/a	"NULL"	"NULL"	"NULL"	"<p style=\"color: black; font-size: 80px; padding-left: 22%; padding-right: 21%; padding-top: 36%; padding-bottom: 27%\">+</p>"	"1456"	n/a	n/a	n/a	n/a	n/a	n/a	n/a	n/a	n/a
n/a	"image-keyboard-response"	"94"	"249951"	"0.0-5.0-2.0-1.20"	"ml0koy"	"600"	"1366"	"chrome"	"111.0.0"	"FALSE"	"Windows 10"	"60.13"	"062"	n/a	n/a	n/a	n/a	n/a	n/a	"Trial"	n/a	n/a	n/a	"778"	"arrowdown"	n/a	"NULL"	"NULL"	"NULL"	"stimuli/MullerLyer_20.04286_0.23665.png"	n/a	"MullerLyer"	"arrowup"	"1459"	"FALSE"	"MullerLyer"	"20.042860000"	"0.2366500000"	"1"	"39"
n/a	"html-keyboard-response"	"95"	"251152"	"0.0-5.0-2.0-0.21"	"ml0koy"	"600"	"1366"	"chrome"	"111.0.0"	"FALSE"	"Windows 10"	"60.13"	"062"	n/a	n/a	n/a	n/a	n/a	n/a	"fixation"	n/a	n/a	n/a	n/a	"NULL"	n/a	"NULL"	"NULL"	"NULL"	"<p style=\"color: black; font-size: 80px; padding-left: 15%; padding-right: 4%; padding-top: 8%; padding-bottom: 9%\">+</p>"	"1188"	n/a	n/a	n/a	n/a	n/a	n/a	n/a	n/a	n/a
n/a	"image-keyboard-response"	"96"	"251713"	"0.0-5.0-2.0-1.21"	"ml0koy"	"600"	"1366"	"chrome"	"111.0.0"	"FALSE"	"Windows 10"	"60.13"	"062"	n/a	n/a	n/a	n/a	n/a	n/a	"Trial"	n/a	n/a	n/a	"561"	"arrowup"	n/a	"NULL"	"NULL"	"NULL"	"stimuli/MullerLyer_-2.3000_0.07627.png"	n/a	"MullerLyer"	"arrowup"	"1201"	"TRUE"	"MullerLyer"	"-2.300000000"	"0.0762700000"	"1"	"40"
n/a	"html-keyboard-response"	"97"	"252794"	"0.0-5.0-2.0-0.22"	"ml0koy"	"600"	"1366"	"chrome"	"111.0.0"	"FALSE"	"Windows 10"	"60.13"	"062"	n/a	n/a	n/a	n/a	n/a	n/a	"fixation"	n/a	n/a	n/a	n/a	"NULL"	n/a	"NULL"	"NULL"	"NULL"	"<p style=\"color: black; font-size: 80px; padding-left: 50%; padding-right: 16%; padding-top: 15%; padding-bottom: 2%\">+</p>"	"1067"	n/a	n/a	n/a	n/a	n/a	n/a	n/a	n/a	n/a
n/a	"image-keyboard-response"	"98"	"253334"	"0.0-5.0-2.0-1.22"	"ml0koy"	"600"	"1366"	"chrome"	"111.0.0"	"FALSE"	"Windows 10"	"60.13"	"062"	n/a	n/a	n/a	n/a	n/a	n/a	"Trial"	n/a	n/a	n/a	"539"	"arrowup"	n/a	"NULL"	"NULL"	"NULL"	"stimuli/MullerLyer_14.12857_0.23665.png"	n/a	"MullerLyer"	"arrowup"	"1081"	"TRUE"	"MullerLyer"	"14.128570000"	"0.2366500000"	"1"	"41"
n/a	"html-keyboard-response"	"99"	"254445"	"0.0-5.0-2.0-0.23"	"ml0koy"	"600"	"1366"	"chrome"	"111.0.0"	"FALSE"	"Windows 10"	"60.13"	"062"	n/a	n/a	n/a	n/a	n/a	n/a	"fixation"	n/a	n/a	n/a	n/a	"NULL"	n/a	"NULL"	"NULL"	"NULL"	"<p style=\"color: black; font-size: 80px; padding-left: 2%; padding-right: 44%; padding-top: 34%; padding-bottom: 29%\">+</p>"	"1100"	n/a	n/a	n/a	n/a	n/a	n/a	n/a	n/a	n/a
n/a	"image-keyboard-response"	"100"	"255158"	"0.0-5.0-2.0-1.23"	"ml0koy"	"600"	"1366"	"chrome"	"111.0.0"	"FALSE"	"Windows 10"	"60.13"	"062"	n/a	n/a	n/a	n/a	n/a	n/a	"Trial"	n/a	n/a	n/a	"713"	"arrowdown"	n/a	"NULL"	"NULL"	"NULL"	"stimuli/MullerLyer_-14.12857_-0.07627.png"	n/a	"MullerLyer"	"arrowdown"	"1111"	"TRUE"	"MullerLyer"	"-14.12857000"	"-0.076270000"	"1"	"42"
n/a	"html-keyboard-response"	"101"	"256458"	"0.0-5.0-2.0-0.24"	"ml0koy"	"600"	"1366"	"chrome"	"111.0.0"	"FALSE"	"Windows 10"	"60.13"	"062"	n/a	n/a	n/a	n/a	n/a	n/a	"fixation"	n/a	n/a	n/a	n/a	"NULL"	n/a	"NULL"	"NULL"	"NULL"	"<p style=\"color: black; font-size: 80px; padding-left: 36%; padding-right: 23%; padding-top: 18%; padding-bottom: 29%\">+</p>"	"1294"	n/a	n/a	n/a	n/a	n/a	n/a	n/a	n/a	n/a
n/a	"image-keyboard-response"	"102"	"257254"	"0.0-5.0-2.0-1.24"	"ml0koy"	"600"	"1366"	"chrome"	"111.0.0"	"FALSE"	"Windows 10"	"60.13"	"062"	n/a	n/a	n/a	n/a	n/a	n/a	"Trial"	n/a	n/a	n/a	"795"	"arrowdown"	n/a	"NULL"	"NULL"	"NULL"	"stimuli/MullerLyer_2.30000_-0.23665.png"	n/a	"MullerLyer"	"arrowdown"	"1300"	"TRUE"	"MullerLyer"	"2.3000000000"	"-0.236650000"	"1"	"43"
n/a	"html-keyboard-response"	"103"	"258481"	"0.0-5.0-2.0-0.25"	"ml0koy"	"600"	"1366"	"chrome"	"111.0.0"	"FALSE"	"Windows 10"	"60.13"	"062"	n/a	n/a	n/a	n/a	n/a	n/a	"fixation"	n/a	n/a	n/a	n/a	"NULL"	n/a	"NULL"	"NULL"	"NULL"	"<p style=\"color: black; font-size: 80px; padding-left: 8%; padding-right: 35%; padding-top: 48%; padding-bottom: 45%\">+</p>"	"1221"	n/a	n/a	n/a	n/a	n/a	n/a	n/a	n/a	n/a
n/a	"image-keyboard-response"	"104"	"259023"	"0.0-5.0-2.0-1.25"	"ml0koy"	"600"	"1366"	"chrome"	"111.0.0"	"FALSE"	"Windows 10"	"60.13"	"062"	n/a	n/a	n/a	n/a	n/a	n/a	"Trial"	n/a	n/a	n/a	"541"	"arrowup"	n/a	"NULL"	"NULL"	"NULL"	"stimuli/MullerLyer_-14.12857_0.23665.png"	n/a	"MullerLyer"	"arrowup"	"1227"	"TRUE"	"MullerLyer"	"-14.12857000"	"0.2366500000"	"1"	"44"
n/a	"html-keyboard-response"	"105"	"260253"	"0.0-5.0-2.0-0.26"	"ml0koy"	"600"	"1366"	"chrome"	"111.0.0"	"FALSE"	"Windows 10"	"60.13"	"062"	n/a	n/a	n/a	n/a	n/a	n/a	"fixation"	n/a	n/a	n/a	n/a	"NULL"	n/a	"NULL"	"NULL"	"NULL"	"<p style=\"color: black; font-size: 80px; padding-left: 44%; padding-right: 27%; padding-top: 17%; padding-bottom: 10%\">+</p>"	"1224"	n/a	n/a	n/a	n/a	n/a	n/a	n/a	n/a	n/a
n/a	"image-keyboard-response"	"106"	"260834"	"0.0-5.0-2.0-1.26"	"ml0koy"	"600"	"1366"	"chrome"	"111.0.0"	"FALSE"	"Windows 10"	"60.13"	"062"	n/a	n/a	n/a	n/a	n/a	n/a	"Trial"	n/a	n/a	n/a	"581"	"arrowdown"	n/a	"NULL"	"NULL"	"NULL"	"stimuli/MullerLyer_8.21429_-0.23665.png"	n/a	"MullerLyer"	"arrowdown"	"1230"	"TRUE"	"MullerLyer"	"8.2142900000"	"-0.236650000"	"1"	"45"
n/a	"html-keyboard-response"	"107"	"262275"	"0.0-5.0-2.0-0.27"	"ml0koy"	"600"	"1366"	"chrome"	"111.0.0"	"FALSE"	"Windows 10"	"60.13"	"062"	n/a	n/a	n/a	n/a	n/a	n/a	"fixation"	n/a	n/a	n/a	n/a	"NULL"	n/a	"NULL"	"NULL"	"NULL"	"<p style=\"color: black; font-size: 80px; padding-left: 2%; padding-right: 18%; padding-top: 39%; padding-bottom: 5%\">+</p>"	"1438"	n/a	n/a	n/a	n/a	n/a	n/a	n/a	n/a	n/a
n/a	"image-keyboard-response"	"108"	"262876"	"0.0-5.0-2.0-1.27"	"ml0koy"	"600"	"1366"	"chrome"	"111.0.0"	"FALSE"	"Windows 10"	"60.13"	"062"	n/a	n/a	n/a	n/a	n/a	n/a	"Trial"	n/a	n/a	n/a	"600"	"arrowup"	n/a	"NULL"	"NULL"	"NULL"	"stimuli/MullerLyer_-8.21429_0.23665.png"	n/a	"MullerLyer"	"arrowup"	"1441"	"TRUE"	"MullerLyer"	"-8.214290000"	"0.2366500000"	"1"	"46"
n/a	"html-keyboard-response"	"109"	"264205"	"0.0-5.0-2.0-0.28"	"ml0koy"	"600"	"1366"	"chrome"	"111.0.0"	"FALSE"	"Windows 10"	"60.13"	"062"	n/a	n/a	n/a	n/a	n/a	n/a	"fixation"	n/a	n/a	n/a	n/a	"NULL"	n/a	"NULL"	"NULL"	"NULL"	"<p style=\"color: black; font-size: 80px; padding-left: 43%; padding-right: 35%; padding-top: 46%; padding-bottom: 37%\">+</p>"	"1327"	n/a	n/a	n/a	n/a	n/a	n/a	n/a	n/a	n/a
n/a	"image-keyboard-response"	"110"	"264813"	"0.0-5.0-2.0-1.28"	"ml0koy"	"600"	"1366"	"chrome"	"111.0.0"	"FALSE"	"Windows 10"	"60.13"	"062"	n/a	n/a	n/a	n/a	n/a	n/a	"Trial"	n/a	n/a	n/a	"607"	"arrowdown"	n/a	"NULL"	"NULL"	"NULL"	"stimuli/MullerLyer_8.21429_0.14541.png"	n/a	"MullerLyer"	"arrowup"	"1329"	"FALSE"	"MullerLyer"	"8.2142900000"	"0.1454100000"	"1"	"47"
n/a	"html-keyboard-response"	"111"	"266039"	"0.0-5.0-2.0-0.29"	"ml0koy"	"600"	"1366"	"chrome"	"111.0.0"	"FALSE"	"Windows 10"	"60.13"	"062"	n/a	n/a	n/a	n/a	n/a	n/a	"fixation"	n/a	n/a	n/a	n/a	"NULL"	n/a	"NULL"	"NULL"	"NULL"	"<p style=\"color: black; font-size: 80px; padding-left: 44%; padding-right: 5%; padding-top: 44%; padding-bottom: 42%\">+</p>"	"1218"	n/a	n/a	n/a	n/a	n/a	n/a	n/a	n/a	n/a
n/a	"image-keyboard-response"	"112"	"266685"	"0.0-5.0-2.0-1.29"	"ml0koy"	"600"	"1366"	"chrome"	"111.0.0"	"FALSE"	"Windows 10"	"60.13"	"062"	n/a	n/a	n/a	n/a	n/a	n/a	"Trial"	n/a	n/a	n/a	"645"	"arrowup"	n/a	"NULL"	"NULL"	"NULL"	"stimuli/MullerLyer_-2.3000_0.14541.png"	n/a	"MullerLyer"	"arrowup"	"1226"	"TRUE"	"MullerLyer"	"-2.300000000"	"0.1454100000"	"1"	"48"
n/a	"html-keyboard-response"	"113"	"268049"	"0.0-5.0-2.0-0.30"	"ml0koy"	"600"	"1366"	"chrome"	"111.0.0"	"FALSE"	"Windows 10"	"60.13"	"062"	n/a	n/a	n/a	n/a	n/a	n/a	"fixation"	n/a	n/a	n/a	n/a	"NULL"	n/a	"NULL"	"NULL"	"NULL"	"<p style=\"color: black; font-size: 80px; padding-left: 28%; padding-right: 41%; padding-top: 25%; padding-bottom: 12%\">+</p>"	"1358"	n/a	n/a	n/a	n/a	n/a	n/a	n/a	n/a	n/a
n/a	"image-keyboard-response"	"114"	"268982"	"0.0-5.0-2.0-1.30"	"ml0koy"	"600"	"1366"	"chrome"	"111.0.0"	"FALSE"	"Windows 10"	"60.13"	"062"	n/a	n/a	n/a	n/a	n/a	n/a	"Trial"	n/a	n/a	n/a	"933"	"arrowdown"	n/a	"NULL"	"NULL"	"NULL"	"stimuli/MullerLyer_20.04286_-0.3500.png"	n/a	"MullerLyer"	"arrowdown"	"1364"	"TRUE"	"MullerLyer"	"20.042860000"	"-0.350000000"	"1"	"49"
n/a	"html-keyboard-response"	"115"	"270224"	"0.0-5.0-2.0-0.31"	"ml0koy"	"600"	"1366"	"chrome"	"111.0.0"	"FALSE"	"Windows 10"	"60.13"	"062"	n/a	n/a	n/a	n/a	n/a	n/a	"fixation"	n/a	n/a	n/a	n/a	"NULL"	n/a	"NULL"	"NULL"	"NULL"	"<p style=\"color: black; font-size: 80px; padding-left: 6%; padding-right: 19%; padding-top: 44%; padding-bottom: 33%\">+</p>"	"1227"	n/a	n/a	n/a	n/a	n/a	n/a	n/a	n/a	n/a
n/a	"image-keyboard-response"	"116"	"270758"	"0.0-5.0-2.0-1.31"	"ml0koy"	"600"	"1366"	"chrome"	"111.0.0"	"FALSE"	"Windows 10"	"60.13"	"062"	n/a	n/a	n/a	n/a	n/a	n/a	"Trial"	n/a	n/a	n/a	"533"	"arrowup"	n/a	"NULL"	"NULL"	"NULL"	"stimuli/MullerLyer_-14.12857_0.14541.png"	n/a	"MullerLyer"	"arrowup"	"1242"	"TRUE"	"MullerLyer"	"-14.12857000"	"0.1454100000"	"1"	"50"
n/a	"html-keyboard-response"	"117"	"271887"	"0.0-5.0-2.0-0.32"	"ml0koy"	"600"	"1366"	"chrome"	"111.0.0"	"FALSE"	"Windows 10"	"60.13"	"062"	n/a	n/a	n/a	n/a	n/a	n/a	"fixation"	n/a	n/a	n/a	n/a	"NULL"	n/a	"NULL"	"NULL"	"NULL"	"<p style=\"color: black; font-size: 80px; padding-left: 2%; padding-right: 50%; padding-top: 37%; padding-bottom: 22%\">+</p>"	"1122"	n/a	n/a	n/a	n/a	n/a	n/a	n/a	n/a	n/a
n/a	"image-keyboard-response"	"118"	"272429"	"0.0-5.0-2.0-1.32"	"ml0koy"	"600"	"1366"	"chrome"	"111.0.0"	"FALSE"	"Windows 10"	"60.13"	"062"	n/a	n/a	n/a	n/a	n/a	n/a	"Trial"	n/a	n/a	n/a	"541"	"arrowdown"	n/a	"NULL"	"NULL"	"NULL"	"stimuli/MullerLyer_14.12857_-0.23665.png"	n/a	"MullerLyer"	"arrowdown"	"1129"	"TRUE"	"MullerLyer"	"14.128570000"	"-0.236650000"	"1"	"51"
n/a	"html-keyboard-response"	"119"	"273531"	"0.0-5.0-2.0-0.33"	"ml0koy"	"600"	"1366"	"chrome"	"111.0.0"	"FALSE"	"Windows 10"	"60.13"	"062"	n/a	n/a	n/a	n/a	n/a	n/a	"fixation"	n/a	n/a	n/a	n/a	"NULL"	n/a	"NULL"	"NULL"	"NULL"	"<p style=\"color: black; font-size: 80px; padding-left: 43%; padding-right: 33%; padding-top: 20%; padding-bottom: 29%\">+</p>"	"1087"	n/a	n/a	n/a	n/a	n/a	n/a	n/a	n/a	n/a
n/a	"image-keyboard-response"	"120"	"274117"	"0.0-5.0-2.0-1.33"	"ml0koy"	"600"	"1366"	"chrome"	"111.0.0"	"FALSE"	"Windows 10"	"60.13"	"062"	n/a	n/a	n/a	n/a	n/a	n/a	"Trial"	n/a	n/a	n/a	"584"	"arrowdown"	n/a	"NULL"	"NULL"	"NULL"	"stimuli/MullerLyer_-14.12857_-0.3500.png"	n/a	"MullerLyer"	"arrowdown"	"1102"	"TRUE"	"MullerLyer"	"-14.12857000"	"-0.350000000"	"1"	"52"
n/a	"html-keyboard-response"	"121"	"275314"	"0.0-5.0-2.0-0.34"	"ml0koy"	"600"	"1366"	"chrome"	"111.0.0"	"FALSE"	"Windows 10"	"60.13"	"062"	n/a	n/a	n/a	n/a	n/a	n/a	"fixation"	n/a	n/a	n/a	n/a	"NULL"	n/a	"NULL"	"NULL"	"NULL"	"<p style=\"color: black; font-size: 80px; padding-left: 29%; padding-right: 48%; padding-top: 22%; padding-bottom: 45%\">+</p>"	"1188"	n/a	n/a	n/a	n/a	n/a	n/a	n/a	n/a	n/a
n/a	"image-keyboard-response"	"122"	"276280"	"0.0-5.0-2.0-1.34"	"ml0koy"	"600"	"1366"	"chrome"	"111.0.0"	"FALSE"	"Windows 10"	"60.13"	"062"	n/a	n/a	n/a	n/a	n/a	n/a	"Trial"	n/a	n/a	n/a	"965"	"arrowup"	n/a	"NULL"	"NULL"	"NULL"	"stimuli/MullerLyer_14.12857_0.14541.png"	n/a	"MullerLyer"	"arrowup"	"1197"	"TRUE"	"MullerLyer"	"14.128570000"	"0.1454100000"	"1"	"53"
n/a	"html-keyboard-response"	"123"	"277439"	"0.0-5.0-2.0-0.35"	"ml0koy"	"600"	"1366"	"chrome"	"111.0.0"	"FALSE"	"Windows 10"	"60.13"	"062"	n/a	n/a	n/a	n/a	n/a	n/a	"fixation"	n/a	n/a	n/a	n/a	"NULL"	n/a	"NULL"	"NULL"	"NULL"	"<p style=\"color: black; font-size: 80px; padding-left: 19%; padding-right: 50%; padding-top: 5%; padding-bottom: 6%\">+</p>"	"1156"	n/a	n/a	n/a	n/a	n/a	n/a	n/a	n/a	n/a
n/a	"image-keyboard-response"	"124"	"278091"	"0.0-5.0-2.0-1.35"	"ml0koy"	"600"	"1366"	"chrome"	"111.0.0"	"FALSE"	"Windows 10"	"60.13"	"062"	n/a	n/a	n/a	n/a	n/a	n/a	"Trial"	n/a	n/a	n/a	"651"	"arrowdown"	n/a	"NULL"	"NULL"	"NULL"	"stimuli/MullerLyer_-14.12857_0.35000.png"	n/a	"MullerLyer"	"arrowup"	"1159"	"FALSE"	"MullerLyer"	"-14.12857000"	"0.3500000000"	"1"	"54"
n/a	"html-keyboard-response"	"125"	"279506"	"0.0-5.0-2.0-0.36"	"ml0koy"	"600"	"1366"	"chrome"	"111.0.0"	"FALSE"	"Windows 10"	"60.13"	"062"	n/a	n/a	n/a	n/a	n/a	n/a	"fixation"	n/a	n/a	n/a	n/a	"NULL"	n/a	"NULL"	"NULL"	"NULL"	"<p style=\"color: black; font-size: 80px; padding-left: 39%; padding-right: 25%; padding-top: 13%; padding-bottom: 18%\">+</p>"	"1402"	n/a	n/a	n/a	n/a	n/a	n/a	n/a	n/a	n/a
n/a	"image-keyboard-response"	"126"	"280069"	"0.0-5.0-2.0-1.36"	"ml0koy"	"600"	"1366"	"chrome"	"111.0.0"	"FALSE"	"Windows 10"	"60.13"	"062"	n/a	n/a	n/a	n/a	n/a	n/a	"Trial"	n/a	n/a	n/a	"560"	"arrowdown"	n/a	"NULL"	"NULL"	"NULL"	"stimuli/MullerLyer_-8.21429_-0.07627.png"	n/a	"MullerLyer"	"arrowdown"	"1415"	"TRUE"	"MullerLyer"	"-8.214290000"	"-0.076270000"	"1"	"55"
n/a	"html-keyboard-response"	"127"	"281515"	"0.0-5.0-2.0-0.37"	"ml0koy"	"600"	"1366"	"chrome"	"111.0.0"	"FALSE"	"Windows 10"	"60.13"	"062"	n/a	n/a	n/a	n/a	n/a	n/a	"fixation"	n/a	n/a	n/a	n/a	"NULL"	n/a	"NULL"	"NULL"	"NULL"	"<p style=\"color: black; font-size: 80px; padding-left: 18%; padding-right: 49%; padding-top: 33%; padding-bottom: 34%\">+</p>"	"1444"	n/a	n/a	n/a	n/a	n/a	n/a	n/a	n/a	n/a
n/a	"image-keyboard-response"	"128"	"282101"	"0.0-5.0-2.0-1.37"	"ml0koy"	"600"	"1366"	"chrome"	"111.0.0"	"FALSE"	"Windows 10"	"60.13"	"062"	n/a	n/a	n/a	n/a	n/a	n/a	"Trial"	n/a	n/a	n/a	"586"	"arrowup"	n/a	"NULL"	"NULL"	"NULL"	"stimuli/MullerLyer_2.30000_0.23665.png"	n/a	"MullerLyer"	"arrowup"	"1446"	"TRUE"	"MullerLyer"	"2.3000000000"	"0.2366500000"	"1"	"56"
n/a	"html-keyboard-response"	"129"	"283548"	"0.0-5.0-2.0-0.38"	"ml0koy"	"600"	"1366"	"chrome"	"111.0.0"	"FALSE"	"Windows 10"	"60.13"	"062"	n/a	n/a	n/a	n/a	n/a	n/a	"fixation"	n/a	n/a	n/a	n/a	"NULL"	n/a	"NULL"	"NULL"	"NULL"	"<p style=\"color: black; font-size: 80px; padding-left: 2%; padding-right: 26%; padding-top: 49%; padding-bottom: 28%\">+</p>"	"1443"	n/a	n/a	n/a	n/a	n/a	n/a	n/a	n/a	n/a
n/a	"image-keyboard-response"	"130"	"284321"	"0.0-5.0-2.0-1.38"	"ml0koy"	"600"	"1366"	"chrome"	"111.0.0"	"FALSE"	"Windows 10"	"60.13"	"062"	n/a	n/a	n/a	n/a	n/a	n/a	"Trial"	n/a	n/a	n/a	"772"	"arrowup"	n/a	"NULL"	"NULL"	"NULL"	"stimuli/MullerLyer_14.12857_-0.07627.png"	n/a	"MullerLyer"	"arrowdown"	"1447"	"FALSE"	"MullerLyer"	"14.128570000"	"-0.076270000"	"1"	"57"
n/a	"html-keyboard-response"	"131"	"285329"	"0.0-5.0-2.0-0.39"	"ml0koy"	"600"	"1366"	"chrome"	"111.0.0"	"FALSE"	"Windows 10"	"60.13"	"062"	n/a	n/a	n/a	n/a	n/a	n/a	"fixation"	n/a	n/a	n/a	n/a	"NULL"	n/a	"NULL"	"NULL"	"NULL"	"<p style=\"color: black; font-size: 80px; padding-left: 36%; padding-right: 23%; padding-top: 11%; padding-bottom: 29%\">+</p>"	"1004"	n/a	n/a	n/a	n/a	n/a	n/a	n/a	n/a	n/a
n/a	"image-keyboard-response"	"132"	"286040"	"0.0-5.0-2.0-1.39"	"ml0koy"	"600"	"1366"	"chrome"	"111.0.0"	"FALSE"	"Windows 10"	"60.13"	"062"	n/a	n/a	n/a	n/a	n/a	n/a	"Trial"	n/a	n/a	n/a	"711"	"arrowup"	n/a	"NULL"	"NULL"	"NULL"	"stimuli/MullerLyer_2.30000_0.14541.png"	n/a	"MullerLyer"	"arrowup"	"1008"	"TRUE"	"MullerLyer"	"2.3000000000"	"0.1454100000"	"1"	"58"
n/a	"html-keyboard-response"	"133"	"287309"	"0.0-5.0-2.0-0.40"	"ml0koy"	"600"	"1366"	"chrome"	"111.0.0"	"FALSE"	"Windows 10"	"60.13"	"062"	n/a	n/a	n/a	n/a	n/a	n/a	"fixation"	n/a	n/a	n/a	n/a	"NULL"	n/a	"NULL"	"NULL"	"NULL"	"<p style=\"color: black; font-size: 80px; padding-left: 46%; padding-right: 24%; padding-top: 7%; padding-bottom: 1%\">+</p>"	"1263"	n/a	n/a	n/a	n/a	n/a	n/a	n/a	n/a	n/a
n/a	"image-keyboard-response"	"134"	"287948"	"0.0-5.0-2.0-1.40"	"ml0koy"	"600"	"1366"	"chrome"	"111.0.0"	"FALSE"	"Windows 10"	"60.13"	"062"	n/a	n/a	n/a	n/a	n/a	n/a	"Trial"	n/a	n/a	n/a	"638"	"arrowdown"	n/a	"NULL"	"NULL"	"NULL"	"stimuli/MullerLyer_-2.3000_-0.14541.png"	n/a	"MullerLyer"	"arrowdown"	"1269"	"TRUE"	"MullerLyer"	"-2.300000000"	"-0.145410000"	"1"	"59"
n/a	"html-keyboard-response"	"135"	"288985"	"0.0-5.0-2.0-0.41"	"ml0koy"	"600"	"1366"	"chrome"	"111.0.0"	"FALSE"	"Windows 10"	"60.13"	"062"	n/a	n/a	n/a	n/a	n/a	n/a	"fixation"	n/a	n/a	n/a	n/a	"NULL"	n/a	"NULL"	"NULL"	"NULL"	"<p style=\"color: black; font-size: 80px; padding-left: 45%; padding-right: 12%; padding-top: 4%; padding-bottom: 39%\">+</p>"	"1031"	n/a	n/a	n/a	n/a	n/a	n/a	n/a	n/a	n/a
n/a	"image-keyboard-response"	"136"	"289544"	"0.0-5.0-2.0-1.41"	"ml0koy"	"600"	"1366"	"chrome"	"111.0.0"	"FALSE"	"Windows 10"	"60.13"	"062"	n/a	n/a	n/a	n/a	n/a	n/a	"Trial"	n/a	n/a	n/a	"558"	"arrowup"	n/a	"NULL"	"NULL"	"NULL"	"stimuli/MullerLyer_-8.21429_0.07627.png"	n/a	"MullerLyer"	"arrowup"	"1037"	"TRUE"	"MullerLyer"	"-8.214290000"	"0.0762700000"	"1"	"60"
n/a	"html-keyboard-response"	"137"	"290777"	"0.0-5.0-2.0-0.42"	"ml0koy"	"600"	"1366"	"chrome"	"111.0.0"	"FALSE"	"Windows 10"	"60.13"	"062"	n/a	n/a	n/a	n/a	n/a	n/a	"fixation"	n/a	n/a	n/a	n/a	"NULL"	n/a	"NULL"	"NULL"	"NULL"	"<p style=\"color: black; font-size: 80px; padding-left: 6%; padding-right: 49%; padding-top: 44%; padding-bottom: 34%\">+</p>"	"1222"	n/a	n/a	n/a	n/a	n/a	n/a	n/a	n/a	n/a
n/a	"image-keyboard-response"	"138"	"291292"	"0.0-5.0-2.0-1.42"	"ml0koy"	"600"	"1366"	"chrome"	"111.0.0"	"FALSE"	"Windows 10"	"60.13"	"062"	n/a	n/a	n/a	n/a	n/a	n/a	"Trial"	n/a	n/a	n/a	"514"	"arrowup"	n/a	"NULL"	"NULL"	"NULL"	"stimuli/MullerLyer_-8.21429_0.35000.png"	n/a	"MullerLyer"	"arrowup"	"1233"	"TRUE"	"MullerLyer"	"-8.214290000"	"0.3500000000"	"1"	"61"
n/a	"html-keyboard-response"	"139"	"292741"	"0.0-5.0-2.0-0.43"	"ml0koy"	"600"	"1366"	"chrome"	"111.0.0"	"FALSE"	"Windows 10"	"60.13"	"062"	n/a	n/a	n/a	n/a	n/a	n/a	"fixation"	n/a	n/a	n/a	n/a	"NULL"	n/a	"NULL"	"NULL"	"NULL"	"<p style=\"color: black; font-size: 80px; padding-left: 20%; padding-right: 16%; padding-top: 6%; padding-bottom: 9%\">+</p>"	"1436"	n/a	n/a	n/a	n/a	n/a	n/a	n/a	n/a	n/a
n/a	"image-keyboard-response"	"140"	"293847"	"0.0-5.0-2.0-1.43"	"ml0koy"	"600"	"1366"	"chrome"	"111.0.0"	"FALSE"	"Windows 10"	"60.13"	"062"	n/a	n/a	n/a	n/a	n/a	n/a	"Trial"	n/a	n/a	n/a	"1105"	"arrowup"	n/a	"NULL"	"NULL"	"NULL"	"stimuli/MullerLyer_20.04286_-0.23665.png"	n/a	"MullerLyer"	"arrowdown"	"1449"	"FALSE"	"MullerLyer"	"20.042860000"	"-0.236650000"	"1"	"62"
n/a	"html-keyboard-response"	"141"	"294943"	"0.0-5.0-2.0-0.44"	"ml0koy"	"600"	"1366"	"chrome"	"111.0.0"	"FALSE"	"Windows 10"	"60.13"	"062"	n/a	n/a	n/a	n/a	n/a	n/a	"fixation"	n/a	n/a	n/a	n/a	"NULL"	n/a	"NULL"	"NULL"	"NULL"	"<p style=\"color: black; font-size: 80px; padding-left: 49%; padding-right: 48%; padding-top: 1%; padding-bottom: 8%\">+</p>"	"1083"	n/a	n/a	n/a	n/a	n/a	n/a	n/a	n/a	n/a
n/a	"image-keyboard-response"	"142"	"295538"	"0.0-5.0-2.0-1.44"	"ml0koy"	"600"	"1366"	"chrome"	"111.0.0"	"FALSE"	"Windows 10"	"60.13"	"062"	n/a	n/a	n/a	n/a	n/a	n/a	"Trial"	n/a	n/a	n/a	"592"	"arrowdown"	n/a	"NULL"	"NULL"	"NULL"	"stimuli/MullerLyer_-14.12857_-0.14541.png"	n/a	"MullerLyer"	"arrowdown"	"1096"	"TRUE"	"MullerLyer"	"-14.12857000"	"-0.145410000"	"1"	"63"
n/a	"html-keyboard-response"	"143"	"296673"	"0.0-5.0-2.0-0.45"	"ml0koy"	"600"	"1366"	"chrome"	"111.0.0"	"FALSE"	"Windows 10"	"60.13"	"062"	n/a	n/a	n/a	n/a	n/a	n/a	"fixation"	n/a	n/a	n/a	n/a	"NULL"	n/a	"NULL"	"NULL"	"NULL"	"<p style=\"color: black; font-size: 80px; padding-left: 26%; padding-right: 7%; padding-top: 5%; padding-bottom: 30%\">+</p>"	"1126"	n/a	n/a	n/a	n/a	n/a	n/a	n/a	n/a	n/a
n/a	"image-keyboard-response"	"144"	"297941"	"0.0-5.0-2.0-1.45"	"ml0koy"	"600"	"1366"	"chrome"	"111.0.0"	"FALSE"	"Windows 10"	"60.13"	"062"	n/a	n/a	n/a	n/a	n/a	n/a	"Trial"	n/a	n/a	n/a	"1267"	"arrowup"	n/a	"NULL"	"NULL"	"NULL"	"stimuli/MullerLyer_20.04286_0.07627.png"	n/a	"MullerLyer"	"arrowup"	"1135"	"TRUE"	"MullerLyer"	"20.042860000"	"0.0762700000"	"1"	"64"
n/a	"html-keyboard-response"	"145"	"299309"	"0.0-5.0-2.0-0.46"	"ml0koy"	"600"	"1366"	"chrome"	"111.0.0"	"FALSE"	"Windows 10"	"60.13"	"062"	n/a	n/a	n/a	n/a	n/a	n/a	"fixation"	n/a	n/a	n/a	n/a	"NULL"	n/a	"NULL"	"NULL"	"NULL"	"<p style=\"color: black; font-size: 80px; padding-left: 44%; padding-right: 29%; padding-top: 4%; padding-bottom: 35%\">+</p>"	"1359"	n/a	n/a	n/a	n/a	n/a	n/a	n/a	n/a	n/a
n/a	"image-keyboard-response"	"146"	"299903"	"0.0-5.0-2.0-1.46"	"ml0koy"	"600"	"1366"	"chrome"	"111.0.0"	"FALSE"	"Windows 10"	"60.13"	"062"	n/a	n/a	n/a	n/a	n/a	n/a	"Trial"	n/a	n/a	n/a	"594"	"arrowdown"	n/a	"NULL"	"NULL"	"NULL"	"stimuli/MullerLyer_8.21429_-0.3500.png"	n/a	"MullerLyer"	"arrowdown"	"1368"	"TRUE"	"MullerLyer"	"8.2142900000"	"-0.350000000"	"1"	"65"
n/a	"html-keyboard-response"	"147"	"301152"	"0.0-5.0-2.0-0.47"	"ml0koy"	"600"	"1366"	"chrome"	"111.0.0"	"FALSE"	"Windows 10"	"60.13"	"062"	n/a	n/a	n/a	n/a	n/a	n/a	"fixation"	n/a	n/a	n/a	n/a	"NULL"	n/a	"NULL"	"NULL"	"NULL"	"<p style=\"color: black; font-size: 80px; padding-left: 33%; padding-right: 39%; padding-top: 25%; padding-bottom: 19%\">+</p>"	"1233"	n/a	n/a	n/a	n/a	n/a	n/a	n/a	n/a	n/a
n/a	"image-keyboard-response"	"148"	"301821"	"0.0-5.0-2.0-1.47"	"ml0koy"	"600"	"1366"	"chrome"	"111.0.0"	"FALSE"	"Windows 10"	"60.13"	"062"	n/a	n/a	n/a	n/a	n/a	n/a	"Trial"	n/a	n/a	n/a	"668"	"arrowup"	n/a	"NULL"	"NULL"	"NULL"	"stimuli/MullerLyer_2.30000_-0.07627.png"	n/a	"MullerLyer"	"arrowdown"	"1249"	"FALSE"	"MullerLyer"	"2.3000000000"	"-0.076270000"	"1"	"66"
n/a	"html-keyboard-response"	"149"	"303322"	"0.0-5.0-2.0-0.48"	"ml0koy"	"600"	"1366"	"chrome"	"111.0.0"	"FALSE"	"Windows 10"	"60.13"	"062"	n/a	n/a	n/a	n/a	n/a	n/a	"fixation"	n/a	n/a	n/a	n/a	"NULL"	n/a	"NULL"	"NULL"	"NULL"	"<p style=\"color: black; font-size: 80px; padding-left: 8%; padding-right: 43%; padding-top: 32%; padding-bottom: 14%\">+</p>"	"1499"	n/a	n/a	n/a	n/a	n/a	n/a	n/a	n/a	n/a
n/a	"image-keyboard-response"	"150"	"303927"	"0.0-5.0-2.0-1.48"	"ml0koy"	"600"	"1366"	"chrome"	"111.0.0"	"FALSE"	"Windows 10"	"60.13"	"062"	n/a	n/a	n/a	n/a	n/a	n/a	"Trial"	n/a	n/a	n/a	"604"	"arrowup"	n/a	"NULL"	"NULL"	"NULL"	"stimuli/MullerLyer_-14.12857_0.07627.png"	n/a	"MullerLyer"	"arrowup"	"1501"	"TRUE"	"MullerLyer"	"-14.12857000"	"0.0762700000"	"1"	"67"
n/a	"html-keyboard-response"	"151"	"305375"	"0.0-5.0-2.0-0.49"	"ml0koy"	"600"	"1366"	"chrome"	"111.0.0"	"FALSE"	"Windows 10"	"60.13"	"062"	n/a	n/a	n/a	n/a	n/a	n/a	"fixation"	n/a	n/a	n/a	n/a	"NULL"	n/a	"NULL"	"NULL"	"NULL"	"<p style=\"color: black; font-size: 80px; padding-left: 35%; padding-right: 3%; padding-top: 39%; padding-bottom: 14%\">+</p>"	"1438"	n/a	n/a	n/a	n/a	n/a	n/a	n/a	n/a	n/a
n/a	"image-keyboard-response"	"152"	"305948"	"0.0-5.0-2.0-1.49"	"ml0koy"	"600"	"1366"	"chrome"	"111.0.0"	"FALSE"	"Windows 10"	"60.13"	"062"	n/a	n/a	n/a	n/a	n/a	n/a	"Trial"	n/a	n/a	n/a	"572"	"arrowdown"	n/a	"NULL"	"NULL"	"NULL"	"stimuli/MullerLyer_20.04286_0.14541.png"	n/a	"MullerLyer"	"arrowup"	"1448"	"FALSE"	"MullerLyer"	"20.042860000"	"0.1454100000"	"1"	"68"
n/a	"html-keyboard-response"	"153"	"307317"	"0.0-5.0-2.0-0.50"	"ml0koy"	"600"	"1366"	"chrome"	"111.0.0"	"FALSE"	"Windows 10"	"60.13"	"062"	n/a	n/a	n/a	n/a	n/a	n/a	"fixation"	n/a	n/a	n/a	n/a	"NULL"	n/a	"NULL"	"NULL"	"NULL"	"<p style=\"color: black; font-size: 80px; padding-left: 27%; padding-right: 0%; padding-top: 13%; padding-bottom: 2%\">+</p>"	"1361"	n/a	n/a	n/a	n/a	n/a	n/a	n/a	n/a	n/a
n/a	"image-keyboard-response"	"154"	"308123"	"0.0-5.0-2.0-1.50"	"ml0koy"	"600"	"1366"	"chrome"	"111.0.0"	"FALSE"	"Windows 10"	"60.13"	"062"	n/a	n/a	n/a	n/a	n/a	n/a	"Trial"	n/a	n/a	n/a	"805"	"arrowdown"	n/a	"NULL"	"NULL"	"NULL"	"stimuli/MullerLyer_-2.3000_-0.23665.png"	n/a	"MullerLyer"	"arrowdown"	"1369"	"TRUE"	"MullerLyer"	"-2.300000000"	"-0.236650000"	"1"	"69"
n/a	"html-keyboard-response"	"155"	"309614"	"0.0-5.0-2.0-0.51"	"ml0koy"	"600"	"1366"	"chrome"	"111.0.0"	"FALSE"	"Windows 10"	"60.13"	"062"	n/a	n/a	n/a	n/a	n/a	n/a	"fixation"	n/a	n/a	n/a	n/a	"NULL"	n/a	"NULL"	"NULL"	"NULL"	"<p style=\"color: black; font-size: 80px; padding-left: 2%; padding-right: 11%; padding-top: 40%; padding-bottom: 9%\">+</p>"	"1480"	n/a	n/a	n/a	n/a	n/a	n/a	n/a	n/a	n/a
n/a	"image-keyboard-response"	"156"	"310366"	"0.0-5.0-2.0-1.51"	"ml0koy"	"600"	"1366"	"chrome"	"111.0.0"	"FALSE"	"Windows 10"	"60.13"	"062"	n/a	n/a	n/a	n/a	n/a	n/a	"Trial"	n/a	n/a	n/a	"750"	"arrowdown"	n/a	"NULL"	"NULL"	"NULL"	"stimuli/MullerLyer_-20.04286_-0.14541.png"	n/a	"MullerLyer"	"arrowdown"	"1491"	"TRUE"	"MullerLyer"	"-20.04286000"	"-0.145410000"	"1"	"70"
n/a	"html-keyboard-response"	"157"	"311542"	"0.0-5.0-2.0-0.52"	"ml0koy"	"600"	"1366"	"chrome"	"111.0.0"	"FALSE"	"Windows 10"	"60.13"	"062"	n/a	n/a	n/a	n/a	n/a	n/a	"fixation"	n/a	n/a	n/a	n/a	"NULL"	n/a	"NULL"	"NULL"	"NULL"	"<p style=\"color: black; font-size: 80px; padding-left: 23%; padding-right: 35%; padding-top: 46%; padding-bottom: 4%\">+</p>"	"1171"	n/a	n/a	n/a	n/a	n/a	n/a	n/a	n/a	n/a
n/a	"image-keyboard-response"	"158"	"312361"	"0.0-5.0-2.0-1.52"	"ml0koy"	"600"	"1366"	"chrome"	"111.0.0"	"FALSE"	"Windows 10"	"60.13"	"062"	n/a	n/a	n/a	n/a	n/a	n/a	"Trial"	n/a	n/a	n/a	"818"	"arrowdown"	n/a	"NULL"	"NULL"	"NULL"	"stimuli/MullerLyer_2.30000_-0.3500.png"	n/a	"MullerLyer"	"arrowdown"	"1176"	"TRUE"	"MullerLyer"	"2.3000000000"	"-0.350000000"	"1"	"71"
n/a	"html-keyboard-response"	"159"	"313815"	"0.0-5.0-2.0-0.53"	"ml0koy"	"600"	"1366"	"chrome"	"111.0.0"	"FALSE"	"Windows 10"	"60.13"	"062"	n/a	n/a	n/a	n/a	n/a	n/a	"fixation"	n/a	n/a	n/a	n/a	"NULL"	n/a	"NULL"	"NULL"	"NULL"	"<p style=\"color: black; font-size: 80px; padding-left: 27%; padding-right: 41%; padding-top: 48%; padding-bottom: 17%\">+</p>"	"1440"	n/a	n/a	n/a	n/a	n/a	n/a	n/a	n/a	n/a
n/a	"image-keyboard-response"	"160"	"314479"	"0.0-5.0-2.0-1.53"	"ml0koy"	"600"	"1366"	"chrome"	"111.0.0"	"FALSE"	"Windows 10"	"60.13"	"062"	n/a	n/a	n/a	n/a	n/a	n/a	"Trial"	n/a	n/a	n/a	"664"	"arrowdown"	n/a	"NULL"	"NULL"	"NULL"	"stimuli/MullerLyer_-20.04286_-0.3500.png"	n/a	"MullerLyer"	"arrowdown"	"1454"	"TRUE"	"MullerLyer"	"-20.04286000"	"-0.350000000"	"1"	"72"
n/a	"html-keyboard-response"	"161"	"315623"	"0.0-5.0-2.0-0.54"	"ml0koy"	"600"	"1366"	"chrome"	"111.0.0"	"FALSE"	"Windows 10"	"60.13"	"062"	n/a	n/a	n/a	n/a	n/a	n/a	"fixation"	n/a	n/a	n/a	n/a	"NULL"	n/a	"NULL"	"NULL"	"NULL"	"<p style=\"color: black; font-size: 80px; padding-left: 28%; padding-right: 36%; padding-top: 46%; padding-bottom: 7%\">+</p>"	"1128"	n/a	n/a	n/a	n/a	n/a	n/a	n/a	n/a	n/a
n/a	"image-keyboard-response"	"162"	"316424"	"0.0-5.0-2.0-1.54"	"ml0koy"	"600"	"1366"	"chrome"	"111.0.0"	"FALSE"	"Windows 10"	"60.13"	"062"	n/a	n/a	n/a	n/a	n/a	n/a	"Trial"	n/a	n/a	n/a	"800"	"arrowup"	n/a	"NULL"	"NULL"	"NULL"	"stimuli/MullerLyer_-2.3000_0.23665.png"	n/a	"MullerLyer"	"arrowup"	"1144"	"TRUE"	"MullerLyer"	"-2.300000000"	"0.2366500000"	"1"	"73"
n/a	"html-keyboard-response"	"163"	"317481"	"0.0-5.0-2.0-0.55"	"ml0koy"	"600"	"1366"	"chrome"	"111.0.0"	"FALSE"	"Windows 10"	"60.13"	"062"	n/a	n/a	n/a	n/a	n/a	n/a	"fixation"	n/a	n/a	n/a	n/a	"NULL"	n/a	"NULL"	"NULL"	"NULL"	"<p style=\"color: black; font-size: 80px; padding-left: 11%; padding-right: 19%; padding-top: 17%; padding-bottom: 46%\">+</p>"	"1045"	n/a	n/a	n/a	n/a	n/a	n/a	n/a	n/a	n/a
n/a	"image-keyboard-response"	"164"	"318500"	"0.0-5.0-2.0-1.55"	"ml0koy"	"600"	"1366"	"chrome"	"111.0.0"	"FALSE"	"Windows 10"	"60.13"	"062"	n/a	n/a	n/a	n/a	n/a	n/a	"Trial"	n/a	n/a	n/a	"1018"	"arrowdown"	n/a	"NULL"	"NULL"	"NULL"	"stimuli/MullerLyer_14.12857_-0.3500.png"	n/a	"MullerLyer"	"arrowdown"	"1057"	"TRUE"	"MullerLyer"	"14.128570000"	"-0.350000000"	"1"	"74"
n/a	"html-keyboard-response"	"165"	"319628"	"0.0-5.0-2.0-0.56"	"ml0koy"	"600"	"1366"	"chrome"	"111.0.0"	"FALSE"	"Windows 10"	"60.13"	"062"	n/a	n/a	n/a	n/a	n/a	n/a	"fixation"	n/a	n/a	n/a	n/a	"NULL"	n/a	"NULL"	"NULL"	"NULL"	"<p style=\"color: black; font-size: 80px; padding-left: 20%; padding-right: 38%; padding-top: 2%; padding-bottom: 2%\">+</p>"	"1120"	n/a	n/a	n/a	n/a	n/a	n/a	n/a	n/a	n/a
n/a	"image-keyboard-response"	"166"	"320305"	"0.0-5.0-2.0-1.56"	"ml0koy"	"600"	"1366"	"chrome"	"111.0.0"	"FALSE"	"Windows 10"	"60.13"	"062"	n/a	n/a	n/a	n/a	n/a	n/a	"Trial"	n/a	n/a	n/a	"677"	"arrowup"	n/a	"NULL"	"NULL"	"NULL"	"stimuli/MullerLyer_8.21429_0.23665.png"	n/a	"MullerLyer"	"arrowup"	"1128"	"TRUE"	"MullerLyer"	"8.2142900000"	"0.2366500000"	"1"	"75"
n/a	"html-keyboard-response"	"167"	"321566"	"0.0-5.0-2.0-0.57"	"ml0koy"	"600"	"1366"	"chrome"	"111.0.0"	"FALSE"	"Windows 10"	"60.13"	"062"	n/a	n/a	n/a	n/a	n/a	n/a	"fixation"	n/a	n/a	n/a	n/a	"NULL"	n/a	"NULL"	"NULL"	"NULL"	"<p style=\"color: black; font-size: 80px; padding-left: 26%; padding-right: 5%; padding-top: 35%; padding-bottom: 28%\">+</p>"	"1257"	n/a	n/a	n/a	n/a	n/a	n/a	n/a	n/a	n/a
n/a	"image-keyboard-response"	"168"	"322084"	"0.0-5.0-2.0-1.57"	"ml0koy"	"600"	"1366"	"chrome"	"111.0.0"	"FALSE"	"Windows 10"	"60.13"	"062"	n/a	n/a	n/a	n/a	n/a	n/a	"Trial"	n/a	n/a	n/a	"517"	"arrowdown"	n/a	"NULL"	"NULL"	"NULL"	"stimuli/MullerLyer_-20.04286_-0.23665.png"	n/a	"MullerLyer"	"arrowdown"	"1261"	"TRUE"	"MullerLyer"	"-20.04286000"	"-0.236650000"	"1"	"76"
n/a	"html-keyboard-response"	"169"	"323295"	"0.0-5.0-2.0-0.58"	"ml0koy"	"600"	"1366"	"chrome"	"111.0.0"	"FALSE"	"Windows 10"	"60.13"	"062"	n/a	n/a	n/a	n/a	n/a	n/a	"fixation"	n/a	n/a	n/a	n/a	"NULL"	n/a	"NULL"	"NULL"	"NULL"	"<p style=\"color: black; font-size: 80px; padding-left: 36%; padding-right: 40%; padding-top: 7%; padding-bottom: 14%\">+</p>"	"1195"	n/a	n/a	n/a	n/a	n/a	n/a	n/a	n/a	n/a
n/a	"image-keyboard-response"	"170"	"323864"	"0.0-5.0-2.0-1.58"	"ml0koy"	"600"	"1366"	"chrome"	"111.0.0"	"FALSE"	"Windows 10"	"60.13"	"062"	n/a	n/a	n/a	n/a	n/a	n/a	"Trial"	n/a	n/a	n/a	"567"	"arrowup"	n/a	"NULL"	"NULL"	"NULL"	"stimuli/MullerLyer_20.04286_-0.14541.png"	n/a	"MullerLyer"	"arrowdown"	"1211"	"FALSE"	"MullerLyer"	"20.042860000"	"-0.145410000"	"1"	"77"
n/a	"html-keyboard-response"	"171"	"324914"	"0.0-5.0-2.0-0.59"	"ml0koy"	"600"	"1366"	"chrome"	"111.0.0"	"FALSE"	"Windows 10"	"60.13"	"062"	n/a	n/a	n/a	n/a	n/a	n/a	"fixation"	n/a	n/a	n/a	n/a	"NULL"	n/a	"NULL"	"NULL"	"NULL"	"<p style=\"color: black; font-size: 80px; padding-left: 25%; padding-right: 36%; padding-top: 35%; padding-bottom: 8%\">+</p>"	"1043"	n/a	n/a	n/a	n/a	n/a	n/a	n/a	n/a	n/a
n/a	"image-keyboard-response"	"172"	"325505"	"0.0-5.0-2.0-1.59"	"ml0koy"	"600"	"1366"	"chrome"	"111.0.0"	"FALSE"	"Windows 10"	"60.13"	"062"	n/a	n/a	n/a	n/a	n/a	n/a	"Trial"	n/a	n/a	n/a	"590"	"arrowdown"	n/a	"NULL"	"NULL"	"NULL"	"stimuli/MullerLyer_-14.12857_-0.23665.png"	n/a	"MullerLyer"	"arrowdown"	"1050"	"TRUE"	"MullerLyer"	"-14.12857000"	"-0.236650000"	"1"	"78"
n/a	"html-keyboard-response"	"173"	"326828"	"0.0-5.0-2.0-0.60"	"ml0koy"	"600"	"1366"	"chrome"	"111.0.0"	"FALSE"	"Windows 10"	"60.13"	"062"	n/a	n/a	n/a	n/a	n/a	n/a	"fixation"	n/a	n/a	n/a	n/a	"NULL"	n/a	"NULL"	"NULL"	"NULL"	"<p style=\"color: black; font-size: 80px; padding-left: 16%; padding-right: 33%; padding-top: 49%; padding-bottom: 4%\">+</p>"	"1315"	n/a	n/a	n/a	n/a	n/a	n/a	n/a	n/a	n/a
n/a	"image-keyboard-response"	"174"	"327964"	"0.0-5.0-2.0-1.60"	"ml0koy"	"600"	"1366"	"chrome"	"111.0.0"	"FALSE"	"Windows 10"	"60.13"	"062"	n/a	n/a	n/a	n/a	n/a	n/a	"Trial"	n/a	n/a	n/a	"1135"	"arrowup"	n/a	"NULL"	"NULL"	"NULL"	"stimuli/MullerLyer_2.30000_-0.14541.png"	n/a	"MullerLyer"	"arrowdown"	"1323"	"FALSE"	"MullerLyer"	"2.3000000000"	"-0.145410000"	"1"	"79"
n/a	"html-keyboard-response"	"175"	"329438"	"0.0-5.0-2.0-0.61"	"ml0koy"	"600"	"1366"	"chrome"	"111.0.0"	"FALSE"	"Windows 10"	"60.13"	"062"	n/a	n/a	n/a	n/a	n/a	n/a	"fixation"	n/a	n/a	n/a	n/a	"NULL"	n/a	"NULL"	"NULL"	"NULL"	"<p style=\"color: black; font-size: 80px; padding-left: 19%; padding-right: 39%; padding-top: 32%; padding-bottom: 15%\">+</p>"	"1466"	n/a	n/a	n/a	n/a	n/a	n/a	n/a	n/a	n/a
n/a	"image-keyboard-response"	"176"	"330021"	"0.0-5.0-2.0-1.61"	"ml0koy"	"600"	"1366"	"chrome"	"111.0.0"	"FALSE"	"Windows 10"	"60.13"	"062"	n/a	n/a	n/a	n/a	n/a	n/a	"Trial"	n/a	n/a	n/a	"583"	"arrowup"	n/a	"NULL"	"NULL"	"NULL"	"stimuli/MullerLyer_-20.04286_0.35000.png"	n/a	"MullerLyer"	"arrowup"	"1474"	"TRUE"	"MullerLyer"	"-20.04286000"	"0.3500000000"	"1"	"80"
n/a	"html-keyboard-response"	"177"	"331359"	"0.0-5.0-2.0-0.62"	"ml0koy"	"600"	"1366"	"chrome"	"111.0.0"	"FALSE"	"Windows 10"	"60.13"	"062"	n/a	n/a	n/a	n/a	n/a	n/a	"fixation"	n/a	n/a	n/a	n/a	"NULL"	n/a	"NULL"	"NULL"	"NULL"	"<p style=\"color: black; font-size: 80px; padding-left: 20%; padding-right: 9%; padding-top: 33%; padding-bottom: 40%\">+</p>"	"1325"	n/a	n/a	n/a	n/a	n/a	n/a	n/a	n/a	n/a
n/a	"image-keyboard-response"	"178"	"332179"	"0.0-5.0-2.0-1.62"	"ml0koy"	"600"	"1366"	"chrome"	"111.0.0"	"FALSE"	"Windows 10"	"60.13"	"062"	n/a	n/a	n/a	n/a	n/a	n/a	"Trial"	n/a	n/a	n/a	"820"	"arrowup"	n/a	"NULL"	"NULL"	"NULL"	"stimuli/MullerLyer_14.12857_-0.14541.png"	n/a	"MullerLyer"	"arrowdown"	"1338"	"FALSE"	"MullerLyer"	"14.128570000"	"-0.145410000"	"1"	"81"
n/a	"html-keyboard-response"	"179"	"333406"	"0.0-5.0-2.0-0.63"	"ml0koy"	"600"	"1366"	"chrome"	"111.0.0"	"FALSE"	"Windows 10"	"60.13"	"062"	n/a	n/a	n/a	n/a	n/a	n/a	"fixation"	n/a	n/a	n/a	n/a	"NULL"	n/a	"NULL"	"NULL"	"NULL"	"<p style=\"color: black; font-size: 80px; padding-left: 32%; padding-right: 19%; padding-top: 38%; padding-bottom: 18%\">+</p>"	"1218"	n/a	n/a	n/a	n/a	n/a	n/a	n/a	n/a	n/a
n/a	"image-keyboard-response"	"180"	"334323"	"0.0-5.0-2.0-1.63"	"ml0koy"	"600"	"1366"	"chrome"	"111.0.0"	"FALSE"	"Windows 10"	"60.13"	"062"	n/a	n/a	n/a	n/a	n/a	n/a	"Trial"	n/a	n/a	n/a	"916"	"arrowup"	n/a	"NULL"	"NULL"	"NULL"	"stimuli/MullerLyer_8.21429_0.35000.png"	n/a	"MullerLyer"	"arrowup"	"1227"	"TRUE"	"MullerLyer"	"8.2142900000"	"0.3500000000"	"1"	"82"
n/a	"html-button-response"	"181"	"337876"	"0.0-5.0-3.0"	"ml0koy"	"600"	"1366"	"chrome"	"111.0.0"	"FALSE"	"Windows 10"	"60.13"	"062"	n/a	n/a	n/a	n/a	n/a	n/a	"block_results"	n/a	n/a	n/a	"3551"	"0"	n/a	"NULL"	"NULL"	"NULL"	"<p>Your score for this illusion is <p style=\"color: black; font-size: 48px; font-weight: bold;\">75.2 %</p><hr><p>Can you do better in the next illusion?</p>"	n/a	n/a	n/a	n/a	n/a	n/a	n/a	n/a	n/a	n/a
"TRUE"	"preload"	"182"	"338062"	"0.0-6.0-0.0"	"ml0koy"	"600"	"1366"	"chrome"	"111.0.0"	"FALSE"	"Windows 10"	"60.13"	"062"	n/a	n/a	n/a	n/a	n/a	n/a	n/a	n/a	n/a	n/a	n/a	"NULL"	"FALSE"	"list()"	"list()"	"list()"	n/a	n/a	n/a	n/a	n/a	n/a	n/a	n/a	n/a	n/a	n/a
n/a	"html-keyboard-response"	"183"	"354570"	"0.0-6.0-1.0"	"ml0koy"	"600"	"1366"	"chrome"	"111.0.0"	"FALSE"	"Windows 10"	"60.13"	"062"	n/a	n/a	n/a	n/a	n/a	n/a	n/a	n/a	n/a	n/a	"16507"	"enter"	n/a	"NULL"	"NULL"	"NULL"	"<p><b>Part 2/6</b></p><p>In this part, two red lines will appear side by side.</p><p>Your task is to tell <b>which line is longer</b> in length, regardless of their orientation, as fast as you can, and without making errors.</p><p>Don't get distracted by the orientation of the lines!</p><p>Press <b>the LEFT or the RIGHT arrow</b> to indicate which <b>line is the longer one.</b></p><div style='float: center'><img src='materials/instructions/VerticalHorizontal_Demo.png' height='300'></img><p><img src='utils/answer/answer_leftright_keyboard.PNG' height='150'></img></p><p class='small'>In this example, the correct answer is the <b>LEFT arrow</b>.</p></div><p>Are you ready? <b>Press ENTER to start</b></p>"	n/a	n/a	n/a	n/a	n/a	n/a	n/a	n/a	n/a	n/a
n/a	"html-keyboard-response"	"184"	"356160"	"0.0-6.0-2.0-0.0"	"ml0koy"	"600"	"1366"	"chrome"	"111.0.0"	"FALSE"	"Windows 10"	"60.13"	"062"	n/a	n/a	n/a	n/a	n/a	n/a	"fixation"	n/a	n/a	n/a	n/a	"NULL"	n/a	"NULL"	"NULL"	"NULL"	"<p style=\"color: black; font-size: 80px; padding-left: 13%; padding-right: 34%; padding-top: 15%; padding-bottom: 8%\">+</p>"	"1068"	n/a	n/a	n/a	n/a	n/a	n/a	n/a	n/a	n/a
n/a	"image-keyboard-response"	"185"	"357555"	"0.0-6.0-2.0-1.0"	"ml0koy"	"600"	"1366"	"chrome"	"111.0.0"	"FALSE"	"Windows 10"	"60.13"	"062"	n/a	n/a	n/a	n/a	n/a	n/a	"Trial"	n/a	n/a	n/a	"1395"	"arrowleft"	n/a	"NULL"	"NULL"	"NULL"	"stimuli/VerticalHorizontal_11.78571_0.16217.png"	n/a	"VerticalHorizontal"	"arrowleft"	"1590"	"TRUE"	"VerticalHorizontal"	"11.785710000"	"0.1621700000"	"2"	"1"
n/a	"html-keyboard-response"	"186"	"358634"	"0.0-6.0-2.0-0.1"	"ml0koy"	"600"	"1366"	"chrome"	"111.0.0"	"FALSE"	"Windows 10"	"60.13"	"062"	n/a	n/a	n/a	n/a	n/a	n/a	"fixation"	n/a	n/a	n/a	n/a	"NULL"	n/a	"NULL"	"NULL"	"NULL"	"<p style=\"color: black; font-size: 80px; padding-left: 49%; padding-right: 24%; padding-top: 30%; padding-bottom: 4%\">+</p>"	"1071"	n/a	n/a	n/a	n/a	n/a	n/a	n/a	n/a	n/a
n/a	"image-keyboard-response"	"187"	"359640"	"0.0-6.0-2.0-1.1"	"ml0koy"	"600"	"1366"	"chrome"	"111.0.0"	"FALSE"	"Windows 10"	"60.13"	"062"	n/a	n/a	n/a	n/a	n/a	n/a	"Trial"	n/a	n/a	n/a	"1005"	"arrowright"	n/a	"NULL"	"NULL"	"NULL"	"stimuli/VerticalHorizontal_20.27143_-0.0673.png"	n/a	"VerticalHorizontal"	"arrowright"	"1079"	"TRUE"	"VerticalHorizontal"	"20.271430000"	"-0.067300000"	"2"	"2"
n/a	"html-keyboard-response"	"188"	"360835"	"0.0-6.0-2.0-0.2"	"ml0koy"	"600"	"1366"	"chrome"	"111.0.0"	"FALSE"	"Windows 10"	"60.13"	"062"	n/a	n/a	n/a	n/a	n/a	n/a	"fixation"	n/a	n/a	n/a	n/a	"NULL"	n/a	"NULL"	"NULL"	"NULL"	"<p style=\"color: black; font-size: 80px; padding-left: 41%; padding-right: 13%; padding-top: 8%; padding-bottom: 11%\">+</p>"	"1187"	n/a	n/a	n/a	n/a	n/a	n/a	n/a	n/a	n/a
n/a	"image-keyboard-response"	"189"	"361570"	"0.0-6.0-2.0-1.2"	"ml0koy"	"600"	"1366"	"chrome"	"111.0.0"	"FALSE"	"Windows 10"	"60.13"	"062"	n/a	n/a	n/a	n/a	n/a	n/a	"Trial"	n/a	n/a	n/a	"734"	"arrowleft"	n/a	"NULL"	"NULL"	"NULL"	"stimuli/VerticalHorizontal_-20.27143_0.06730.png"	n/a	"VerticalHorizontal"	"arrowleft"	"1195"	"TRUE"	"VerticalHorizontal"	"-20.27143000"	"0.0673000000"	"2"	"3"
n/a	"html-keyboard-response"	"190"	"362791"	"0.0-6.0-2.0-0.3"	"ml0koy"	"600"	"1366"	"chrome"	"111.0.0"	"FALSE"	"Windows 10"	"60.13"	"062"	n/a	n/a	n/a	n/a	n/a	n/a	"fixation"	n/a	n/a	n/a	n/a	"NULL"	n/a	"NULL"	"NULL"	"NULL"	"<p style=\"color: black; font-size: 80px; padding-left: 39%; padding-right: 50%; padding-top: 18%; padding-bottom: 14%\">+</p>"	"1214"	n/a	n/a	n/a	n/a	n/a	n/a	n/a	n/a	n/a
n/a	"image-keyboard-response"	"191"	"363413"	"0.0-6.0-2.0-1.3"	"ml0koy"	"600"	"1366"	"chrome"	"111.0.0"	"FALSE"	"Windows 10"	"60.13"	"062"	n/a	n/a	n/a	n/a	n/a	n/a	"Trial"	n/a	n/a	n/a	"621"	"arrowright"	n/a	"NULL"	"NULL"	"NULL"	"stimuli/VerticalHorizontal_-11.78571_-0.2250.png"	n/a	"VerticalHorizontal"	"arrowright"	"1221"	"TRUE"	"VerticalHorizontal"	"-11.78571000"	"-0.225000000"	"2"	"4"
n/a	"html-keyboard-response"	"192"	"364690"	"0.0-6.0-2.0-0.4"	"ml0koy"	"600"	"1366"	"chrome"	"111.0.0"	"FALSE"	"Windows 10"	"60.13"	"062"	n/a	n/a	n/a	n/a	n/a	n/a	"fixation"	n/a	n/a	n/a	n/a	"NULL"	n/a	"NULL"	"NULL"	"NULL"	"<p style=\"color: black; font-size: 80px; padding-left: 23%; padding-right: 11%; padding-top: 28%; padding-bottom: 13%\">+</p>"	"1264"	n/a	n/a	n/a	n/a	n/a	n/a	n/a	n/a	n/a
n/a	"image-keyboard-response"	"193"	"365674"	"0.0-6.0-2.0-1.4"	"ml0koy"	"600"	"1366"	"chrome"	"111.0.0"	"FALSE"	"Windows 10"	"60.13"	"062"	n/a	n/a	n/a	n/a	n/a	n/a	"Trial"	n/a	n/a	n/a	"984"	"arrowleft"	n/a	"NULL"	"NULL"	"NULL"	"stimuli/VerticalHorizontal_20.27143_-0.16217.png"	n/a	"VerticalHorizontal"	"arrowright"	"1277"	"FALSE"	"VerticalHorizontal"	"20.271430000"	"-0.162170000"	"2"	"5"
n/a	"html-keyboard-response"	"194"	"367069"	"0.0-6.0-2.0-0.5"	"ml0koy"	"600"	"1366"	"chrome"	"111.0.0"	"FALSE"	"Windows 10"	"60.13"	"062"	n/a	n/a	n/a	n/a	n/a	n/a	"fixation"	n/a	n/a	n/a	n/a	"NULL"	n/a	"NULL"	"NULL"	"NULL"	"<p style=\"color: black; font-size: 80px; padding-left: 9%; padding-right: 33%; padding-top: 9%; padding-bottom: 29%\">+</p>"	"1386"	n/a	n/a	n/a	n/a	n/a	n/a	n/a	n/a	n/a
n/a	"image-keyboard-response"	"195"	"367717"	"0.0-6.0-2.0-1.5"	"ml0koy"	"600"	"1366"	"chrome"	"111.0.0"	"FALSE"	"Windows 10"	"60.13"	"062"	n/a	n/a	n/a	n/a	n/a	n/a	"Trial"	n/a	n/a	n/a	"648"	"arrowleft"	n/a	"NULL"	"NULL"	"NULL"	"stimuli/VerticalHorizontal_-11.78571_0.16217.png"	n/a	"VerticalHorizontal"	"arrowleft"	"1395"	"TRUE"	"VerticalHorizontal"	"-11.78571000"	"0.1621700000"	"2"	"6"
n/a	"html-keyboard-response"	"196"	"368867"	"0.0-6.0-2.0-0.6"	"ml0koy"	"600"	"1366"	"chrome"	"111.0.0"	"FALSE"	"Windows 10"	"60.13"	"062"	n/a	n/a	n/a	n/a	n/a	n/a	"fixation"	n/a	n/a	n/a	n/a	"NULL"	n/a	"NULL"	"NULL"	"NULL"	"<p style=\"color: black; font-size: 80px; padding-left: 5%; padding-right: 15%; padding-top: 7%; padding-bottom: 2%\">+</p>"	"1146"	n/a	n/a	n/a	n/a	n/a	n/a	n/a	n/a	n/a
n/a	"image-keyboard-response"	"197"	"369754"	"0.0-6.0-2.0-1.6"	"ml0koy"	"600"	"1366"	"chrome"	"111.0.0"	"FALSE"	"Windows 10"	"60.13"	"062"	n/a	n/a	n/a	n/a	n/a	n/a	"Trial"	n/a	n/a	n/a	"886"	"arrowright"	n/a	"NULL"	"NULL"	"NULL"	"stimuli/VerticalHorizontal_28.75714_0.06730.png"	n/a	"VerticalHorizontal"	"arrowleft"	"1150"	"FALSE"	"VerticalHorizontal"	"28.757140000"	"0.0673000000"	"2"	"7"
n/a	"html-keyboard-response"	"198"	"371079"	"0.0-6.0-2.0-0.7"	"ml0koy"	"600"	"1366"	"chrome"	"111.0.0"	"FALSE"	"Windows 10"	"60.13"	"062"	n/a	n/a	n/a	n/a	n/a	n/a	"fixation"	n/a	n/a	n/a	n/a	"NULL"	n/a	"NULL"	"NULL"	"NULL"	"<p style=\"color: black; font-size: 80px; padding-left: 16%; padding-right: 39%; padding-top: 11%; padding-bottom: 37%\">+</p>"	"1316"	n/a	n/a	n/a	n/a	n/a	n/a	n/a	n/a	n/a
n/a	"image-keyboard-response"	"199"	"371787"	"0.0-6.0-2.0-1.7"	"ml0koy"	"600"	"1366"	"chrome"	"111.0.0"	"FALSE"	"Windows 10"	"60.13"	"062"	n/a	n/a	n/a	n/a	n/a	n/a	"Trial"	n/a	n/a	n/a	"707"	"arrowright"	n/a	"NULL"	"NULL"	"NULL"	"stimuli/VerticalHorizontal_20.27143_0.06730.png"	n/a	"VerticalHorizontal"	"arrowleft"	"1325"	"FALSE"	"VerticalHorizontal"	"20.271430000"	"0.0673000000"	"2"	"8"
n/a	"html-keyboard-response"	"200"	"373017"	"0.0-6.0-2.0-0.8"	"ml0koy"	"600"	"1366"	"chrome"	"111.0.0"	"FALSE"	"Windows 10"	"60.13"	"062"	n/a	n/a	n/a	n/a	n/a	n/a	"fixation"	n/a	n/a	n/a	n/a	"NULL"	n/a	"NULL"	"NULL"	"NULL"	"<p style=\"color: black; font-size: 80px; padding-left: 5%; padding-right: 7%; padding-top: 4%; padding-bottom: 34%\">+</p>"	"1228"	n/a	n/a	n/a	n/a	n/a	n/a	n/a	n/a	n/a
n/a	"image-keyboard-response"	"201"	"373608"	"0.0-6.0-2.0-1.8"	"ml0koy"	"600"	"1366"	"chrome"	"111.0.0"	"FALSE"	"Windows 10"	"60.13"	"062"	n/a	n/a	n/a	n/a	n/a	n/a	"Trial"	n/a	n/a	n/a	"590"	"arrowleft"	n/a	"NULL"	"NULL"	"NULL"	"stimuli/VerticalHorizontal_-20.27143_0.22500.png"	n/a	"VerticalHorizontal"	"arrowleft"	"1230"	"TRUE"	"VerticalHorizontal"	"-20.27143000"	"0.2250000000"	"2"	"9"
n/a	"html-keyboard-response"	"202"	"374750"	"0.0-6.0-2.0-0.9"	"ml0koy"	"600"	"1366"	"chrome"	"111.0.0"	"FALSE"	"Windows 10"	"60.13"	"062"	n/a	n/a	n/a	n/a	n/a	n/a	"fixation"	n/a	n/a	n/a	n/a	"NULL"	n/a	"NULL"	"NULL"	"NULL"	"<p style=\"color: black; font-size: 80px; padding-left: 5%; padding-right: 31%; padding-top: 24%; padding-bottom: 34%\">+</p>"	"1130"	n/a	n/a	n/a	n/a	n/a	n/a	n/a	n/a	n/a
n/a	"image-keyboard-response"	"203"	"375270"	"0.0-6.0-2.0-1.9"	"ml0koy"	"600"	"1366"	"chrome"	"111.0.0"	"FALSE"	"Windows 10"	"60.13"	"062"	n/a	n/a	n/a	n/a	n/a	n/a	"Trial"	n/a	n/a	n/a	"519"	"arrowright"	n/a	"NULL"	"NULL"	"NULL"	"stimuli/VerticalHorizontal_-3.3000_-0.0673.png"	n/a	"VerticalHorizontal"	"arrowright"	"1142"	"TRUE"	"VerticalHorizontal"	"-3.300000000"	"-0.067300000"	"2"	"10"
n/a	"html-keyboard-response"	"204"	"376681"	"0.0-6.0-2.0-0.10"	"ml0koy"	"600"	"1366"	"chrome"	"111.0.0"	"FALSE"	"Windows 10"	"60.13"	"062"	n/a	n/a	n/a	n/a	n/a	n/a	"fixation"	n/a	n/a	n/a	n/a	"NULL"	n/a	"NULL"	"NULL"	"NULL"	"<p style=\"color: black; font-size: 80px; padding-left: 6%; padding-right: 30%; padding-top: 43%; padding-bottom: 30%\">+</p>"	"1406"	n/a	n/a	n/a	n/a	n/a	n/a	n/a	n/a	n/a
n/a	"image-keyboard-response"	"205"	"377754"	"0.0-6.0-2.0-1.10"	"ml0koy"	"600"	"1366"	"chrome"	"111.0.0"	"FALSE"	"Windows 10"	"60.13"	"062"	n/a	n/a	n/a	n/a	n/a	n/a	"Trial"	n/a	n/a	n/a	"1069"	"arrowleft"	n/a	"NULL"	"NULL"	"NULL"	"stimuli/VerticalHorizontal_-3.3000_0.16217.png"	n/a	"VerticalHorizontal"	"arrowleft"	"1411"	"TRUE"	"VerticalHorizontal"	"-3.300000000"	"0.1621700000"	"2"	"11"
n/a	"html-keyboard-response"	"206"	"379230"	"0.0-6.0-2.0-0.11"	"ml0koy"	"600"	"1366"	"chrome"	"111.0.0"	"FALSE"	"Windows 10"	"60.13"	"062"	n/a	n/a	n/a	n/a	n/a	n/a	"fixation"	n/a	n/a	n/a	n/a	"NULL"	n/a	"NULL"	"NULL"	"NULL"	"<p style=\"color: black; font-size: 80px; padding-left: 38%; padding-right: 11%; padding-top: 27%; padding-bottom: 42%\">+</p>"	"1463"	n/a	n/a	n/a	n/a	n/a	n/a	n/a	n/a	n/a
n/a	"image-keyboard-response"	"207"	"379805"	"0.0-6.0-2.0-1.11"	"ml0koy"	"600"	"1366"	"chrome"	"111.0.0"	"FALSE"	"Windows 10"	"60.13"	"062"	n/a	n/a	n/a	n/a	n/a	n/a	"Trial"	n/a	n/a	n/a	"574"	"arrowright"	n/a	"NULL"	"NULL"	"NULL"	"stimuli/VerticalHorizontal_-28.75714_-0.2250.png"	n/a	"VerticalHorizontal"	"arrowright"	"1476"	"TRUE"	"VerticalHorizontal"	"-28.75714000"	"-0.225000000"	"2"	"12"
n/a	"html-keyboard-response"	"208"	"381266"	"0.0-6.0-2.0-0.12"	"ml0koy"	"600"	"1366"	"chrome"	"111.0.0"	"FALSE"	"Windows 10"	"60.13"	"062"	n/a	n/a	n/a	n/a	n/a	n/a	"fixation"	n/a	n/a	n/a	n/a	"NULL"	n/a	"NULL"	"NULL"	"NULL"	"<p style=\"color: black; font-size: 80px; padding-left: 39%; padding-right: 8%; padding-top: 8%; padding-bottom: 27%\">+</p>"	"1445"	n/a	n/a	n/a	n/a	n/a	n/a	n/a	n/a	n/a
n/a	"image-keyboard-response"	"209"	"381710"	"0.0-6.0-2.0-1.12"	"ml0koy"	"600"	"1366"	"chrome"	"111.0.0"	"FALSE"	"Windows 10"	"60.13"	"062"	n/a	n/a	n/a	n/a	n/a	n/a	"Trial"	n/a	n/a	n/a	"443"	"arrowright"	n/a	"NULL"	"NULL"	"NULL"	"stimuli/VerticalHorizontal_-20.27143_-0.2250.png"	n/a	"VerticalHorizontal"	"arrowright"	"1461"	"TRUE"	"VerticalHorizontal"	"-20.27143000"	"-0.225000000"	"2"	"13"
n/a	"html-keyboard-response"	"210"	"383178"	"0.0-6.0-2.0-0.13"	"ml0koy"	"600"	"1366"	"chrome"	"111.0.0"	"FALSE"	"Windows 10"	"60.13"	"062"	n/a	n/a	n/a	n/a	n/a	n/a	"fixation"	n/a	n/a	n/a	n/a	"NULL"	n/a	"NULL"	"NULL"	"NULL"	"<p style=\"color: black; font-size: 80px; padding-left: 9%; padding-right: 41%; padding-top: 26%; padding-bottom: 46%\">+</p>"	"1455"	n/a	n/a	n/a	n/a	n/a	n/a	n/a	n/a	n/a
n/a	"image-keyboard-response"	"211"	"383974"	"0.0-6.0-2.0-1.13"	"ml0koy"	"600"	"1366"	"chrome"	"111.0.0"	"FALSE"	"Windows 10"	"60.13"	"062"	n/a	n/a	n/a	n/a	n/a	n/a	"Trial"	n/a	n/a	n/a	"795"	"arrowright"	n/a	"NULL"	"NULL"	"NULL"	"stimuli/VerticalHorizontal_3.30000_-0.2250.png"	n/a	"VerticalHorizontal"	"arrowright"	"1468"	"TRUE"	"VerticalHorizontal"	"3.3000000000"	"-0.225000000"	"2"	"14"
n/a	"html-keyboard-response"	"212"	"385272"	"0.0-6.0-2.0-0.14"	"ml0koy"	"600"	"1366"	"chrome"	"111.0.0"	"FALSE"	"Windows 10"	"60.13"	"062"	n/a	n/a	n/a	n/a	n/a	n/a	"fixation"	n/a	n/a	n/a	n/a	"NULL"	n/a	"NULL"	"NULL"	"NULL"	"<p style=\"color: black; font-size: 80px; padding-left: 42%; padding-right: 37%; padding-top: 14%; padding-bottom: 34%\">+</p>"	"1294"	n/a	n/a	n/a	n/a	n/a	n/a	n/a	n/a	n/a
n/a	"image-keyboard-response"	"213"	"386070"	"0.0-6.0-2.0-1.14"	"ml0koy"	"600"	"1366"	"chrome"	"111.0.0"	"FALSE"	"Windows 10"	"60.13"	"062"	n/a	n/a	n/a	n/a	n/a	n/a	"Trial"	n/a	n/a	n/a	"798"	"arrowleft"	n/a	"NULL"	"NULL"	"NULL"	"stimuli/VerticalHorizontal_-20.27143_0.16217.png"	n/a	"VerticalHorizontal"	"arrowleft"	"1298"	"TRUE"	"VerticalHorizontal"	"-20.27143000"	"0.1621700000"	"2"	"15"
n/a	"html-keyboard-response"	"214"	"387481"	"0.0-6.0-2.0-0.15"	"ml0koy"	"600"	"1366"	"chrome"	"111.0.0"	"FALSE"	"Windows 10"	"60.13"	"062"	n/a	n/a	n/a	n/a	n/a	n/a	"fixation"	n/a	n/a	n/a	n/a	"NULL"	n/a	"NULL"	"NULL"	"NULL"	"<p style=\"color: black; font-size: 80px; padding-left: 2%; padding-right: 1%; padding-top: 25%; padding-bottom: 12%\">+</p>"	"1403"	n/a	n/a	n/a	n/a	n/a	n/a	n/a	n/a	n/a
n/a	"image-keyboard-response"	"215"	"388429"	"0.0-6.0-2.0-1.15"	"ml0koy"	"600"	"1366"	"chrome"	"111.0.0"	"FALSE"	"Windows 10"	"60.13"	"062"	n/a	n/a	n/a	n/a	n/a	n/a	"Trial"	n/a	n/a	n/a	"948"	"arrowright"	n/a	"NULL"	"NULL"	"NULL"	"stimuli/VerticalHorizontal_-20.27143_-0.1096.png"	n/a	"VerticalHorizontal"	"arrowright"	"1411"	"TRUE"	"VerticalHorizontal"	"-20.27143000"	"-0.109600000"	"2"	"16"
n/a	"html-keyboard-response"	"216"	"389736"	"0.0-6.0-2.0-0.16"	"ml0koy"	"600"	"1366"	"chrome"	"111.0.0"	"FALSE"	"Windows 10"	"60.13"	"062"	n/a	n/a	n/a	n/a	n/a	n/a	"fixation"	n/a	n/a	n/a	n/a	"NULL"	n/a	"NULL"	"NULL"	"NULL"	"<p style=\"color: black; font-size: 80px; padding-left: 5%; padding-right: 18%; padding-top: 47%; padding-bottom: 6%\">+</p>"	"1300"	n/a	n/a	n/a	n/a	n/a	n/a	n/a	n/a	n/a
n/a	"image-keyboard-response"	"217"	"390786"	"0.0-6.0-2.0-1.16"	"ml0koy"	"600"	"1366"	"chrome"	"111.0.0"	"FALSE"	"Windows 10"	"60.13"	"062"	n/a	n/a	n/a	n/a	n/a	n/a	"Trial"	n/a	n/a	n/a	"1050"	"arrowright"	n/a	"NULL"	"NULL"	"NULL"	"stimuli/VerticalHorizontal_-3.3000_-0.2250.png"	n/a	"VerticalHorizontal"	"arrowright"	"1307"	"TRUE"	"VerticalHorizontal"	"-3.300000000"	"-0.225000000"	"2"	"17"
n/a	"html-keyboard-response"	"218"	"392000"	"0.0-6.0-2.0-0.17"	"ml0koy"	"600"	"1366"	"chrome"	"111.0.0"	"FALSE"	"Windows 10"	"60.13"	"062"	n/a	n/a	n/a	n/a	n/a	n/a	"fixation"	n/a	n/a	n/a	n/a	"NULL"	n/a	"NULL"	"NULL"	"NULL"	"<p style=\"color: black; font-size: 80px; padding-left: 29%; padding-right: 40%; padding-top: 9%; padding-bottom: 20%\">+</p>"	"1205"	n/a	n/a	n/a	n/a	n/a	n/a	n/a	n/a	n/a
n/a	"image-keyboard-response"	"219"	"393075"	"0.0-6.0-2.0-1.17"	"ml0koy"	"600"	"1366"	"chrome"	"111.0.0"	"FALSE"	"Windows 10"	"60.13"	"062"	n/a	n/a	n/a	n/a	n/a	n/a	"Trial"	n/a	n/a	n/a	"1074"	"arrowright"	n/a	"NULL"	"NULL"	"NULL"	"stimuli/VerticalHorizontal_-28.75714_-0.0673.png"	n/a	"VerticalHorizontal"	"arrowright"	"1214"	"TRUE"	"VerticalHorizontal"	"-28.75714000"	"-0.067300000"	"2"	"18"
n/a	"html-keyboard-response"	"220"	"394463"	"0.0-6.0-2.0-0.18"	"ml0koy"	"600"	"1366"	"chrome"	"111.0.0"	"FALSE"	"Windows 10"	"60.13"	"062"	n/a	n/a	n/a	n/a	n/a	n/a	"fixation"	n/a	n/a	n/a	n/a	"NULL"	n/a	"NULL"	"NULL"	"NULL"	"<p style=\"color: black; font-size: 80px; padding-left: 13%; padding-right: 43%; padding-top: 4%; padding-bottom: 16%\">+</p>"	"1385"	n/a	n/a	n/a	n/a	n/a	n/a	n/a	n/a	n/a
n/a	"image-keyboard-response"	"221"	"395375"	"0.0-6.0-2.0-1.18"	"ml0koy"	"600"	"1366"	"chrome"	"111.0.0"	"FALSE"	"Windows 10"	"60.13"	"062"	n/a	n/a	n/a	n/a	n/a	n/a	"Trial"	n/a	n/a	n/a	"912"	"arrowright"	n/a	"NULL"	"NULL"	"NULL"	"stimuli/VerticalHorizontal_11.78571_-0.16217.png"	n/a	"VerticalHorizontal"	"arrowright"	"1388"	"TRUE"	"VerticalHorizontal"	"11.785710000"	"-0.162170000"	"2"	"19"
n/a	"html-keyboard-response"	"222"	"396866"	"0.0-6.0-2.0-0.19"	"ml0koy"	"600"	"1366"	"chrome"	"111.0.0"	"FALSE"	"Windows 10"	"60.13"	"062"	n/a	n/a	n/a	n/a	n/a	n/a	"fixation"	n/a	n/a	n/a	n/a	"NULL"	n/a	"NULL"	"NULL"	"NULL"	"<p style=\"color: black; font-size: 80px; padding-left: 48%; padding-right: 43%; padding-top: 8%; padding-bottom: 49%\">+</p>"	"1475"	n/a	n/a	n/a	n/a	n/a	n/a	n/a	n/a	n/a
n/a	"image-keyboard-response"	"223"	"397686"	"0.0-6.0-2.0-1.19"	"ml0koy"	"600"	"1366"	"chrome"	"111.0.0"	"FALSE"	"Windows 10"	"60.13"	"062"	n/a	n/a	n/a	n/a	n/a	n/a	"Trial"	n/a	n/a	n/a	"819"	"arrowleft"	n/a	"NULL"	"NULL"	"NULL"	"stimuli/VerticalHorizontal_20.27143_0.16217.png"	n/a	"VerticalHorizontal"	"arrowleft"	"1491"	"TRUE"	"VerticalHorizontal"	"20.271430000"	"0.1621700000"	"2"	"20"
n/a	"html-keyboard-response"	"224"	"398706"	"0.0-6.0-2.0-0.20"	"ml0koy"	"600"	"1366"	"chrome"	"111.0.0"	"FALSE"	"Windows 10"	"60.13"	"062"	n/a	n/a	n/a	n/a	n/a	n/a	"fixation"	n/a	n/a	n/a	n/a	"NULL"	n/a	"NULL"	"NULL"	"NULL"	"<p style=\"color: black; font-size: 80px; padding-left: 49%; padding-right: 4%; padding-top: 15%; padding-bottom: 39%\">+</p>"	"1008"	n/a	n/a	n/a	n/a	n/a	n/a	n/a	n/a	n/a
n/a	"image-keyboard-response"	"225"	"399457"	"0.0-6.0-2.0-1.20"	"ml0koy"	"600"	"1366"	"chrome"	"111.0.0"	"FALSE"	"Windows 10"	"60.13"	"062"	n/a	n/a	n/a	n/a	n/a	n/a	"Trial"	n/a	n/a	n/a	"751"	"arrowright"	n/a	"NULL"	"NULL"	"NULL"	"stimuli/VerticalHorizontal_28.75714_0.10960.png"	n/a	"VerticalHorizontal"	"arrowleft"	"1020"	"FALSE"	"VerticalHorizontal"	"28.757140000"	"0.1096000000"	"2"	"21"
n/a	"html-keyboard-response"	"226"	"400930"	"0.0-6.0-2.0-0.21"	"ml0koy"	"600"	"1366"	"chrome"	"111.0.0"	"FALSE"	"Windows 10"	"60.13"	"062"	n/a	n/a	n/a	n/a	n/a	n/a	"fixation"	n/a	n/a	n/a	n/a	"NULL"	n/a	"NULL"	"NULL"	"NULL"	"<p style=\"color: black; font-size: 80px; padding-left: 19%; padding-right: 19%; padding-top: 41%; padding-bottom: 4%\">+</p>"	"1460"	n/a	n/a	n/a	n/a	n/a	n/a	n/a	n/a	n/a
n/a	"image-keyboard-response"	"227"	"401709"	"0.0-6.0-2.0-1.21"	"ml0koy"	"600"	"1366"	"chrome"	"111.0.0"	"FALSE"	"Windows 10"	"60.13"	"062"	n/a	n/a	n/a	n/a	n/a	n/a	"Trial"	n/a	n/a	n/a	"779"	"arrowleft"	n/a	"NULL"	"NULL"	"NULL"	"stimuli/VerticalHorizontal_11.78571_0.22500.png"	n/a	"VerticalHorizontal"	"arrowleft"	"1473"	"TRUE"	"VerticalHorizontal"	"11.785710000"	"0.2250000000"	"2"	"22"
n/a	"html-keyboard-response"	"228"	"403118"	"0.0-6.0-2.0-0.22"	"ml0koy"	"600"	"1366"	"chrome"	"111.0.0"	"FALSE"	"Windows 10"	"60.13"	"062"	n/a	n/a	n/a	n/a	n/a	n/a	"fixation"	n/a	n/a	n/a	n/a	"NULL"	n/a	"NULL"	"NULL"	"NULL"	"<p style=\"color: black; font-size: 80px; padding-left: 5%; padding-right: 12%; padding-top: 30%; padding-bottom: 39%\">+</p>"	"1396"	n/a	n/a	n/a	n/a	n/a	n/a	n/a	n/a	n/a
n/a	"image-keyboard-response"	"229"	"403987"	"0.0-6.0-2.0-1.22"	"ml0koy"	"600"	"1366"	"chrome"	"111.0.0"	"FALSE"	"Windows 10"	"60.13"	"062"	n/a	n/a	n/a	n/a	n/a	n/a	"Trial"	n/a	n/a	n/a	"868"	"arrowright"	n/a	"NULL"	"NULL"	"NULL"	"stimuli/VerticalHorizontal_-3.3000_-0.1096.png"	n/a	"VerticalHorizontal"	"arrowright"	"1409"	"TRUE"	"VerticalHorizontal"	"-3.300000000"	"-0.109600000"	"2"	"23"
n/a	"html-keyboard-response"	"230"	"405214"	"0.0-6.0-2.0-0.23"	"ml0koy"	"600"	"1366"	"chrome"	"111.0.0"	"FALSE"	"Windows 10"	"60.13"	"062"	n/a	n/a	n/a	n/a	n/a	n/a	"fixation"	n/a	n/a	n/a	n/a	"NULL"	n/a	"NULL"	"NULL"	"NULL"	"<p style=\"color: black; font-size: 80px; padding-left: 24%; padding-right: 18%; padding-top: 10%; padding-bottom: 4%\">+</p>"	"1224"	n/a	n/a	n/a	n/a	n/a	n/a	n/a	n/a	n/a
n/a	"image-keyboard-response"	"231"	"406091"	"0.0-6.0-2.0-1.23"	"ml0koy"	"600"	"1366"	"chrome"	"111.0.0"	"FALSE"	"Windows 10"	"60.13"	"062"	n/a	n/a	n/a	n/a	n/a	n/a	"Trial"	n/a	n/a	n/a	"877"	"arrowright"	n/a	"NULL"	"NULL"	"NULL"	"stimuli/VerticalHorizontal_11.78571_-0.1096.png"	n/a	"VerticalHorizontal"	"arrowright"	"1227"	"TRUE"	"VerticalHorizontal"	"11.785710000"	"-0.109600000"	"2"	"24"
n/a	"html-keyboard-response"	"232"	"407395"	"0.0-6.0-2.0-0.24"	"ml0koy"	"600"	"1366"	"chrome"	"111.0.0"	"FALSE"	"Windows 10"	"60.13"	"062"	n/a	n/a	n/a	n/a	n/a	n/a	"fixation"	n/a	n/a	n/a	n/a	"NULL"	n/a	"NULL"	"NULL"	"NULL"	"<p style=\"color: black; font-size: 80px; padding-left: 7%; padding-right: 46%; padding-top: 49%; padding-bottom: 19%\">+</p>"	"1291"	n/a	n/a	n/a	n/a	n/a	n/a	n/a	n/a	n/a
n/a	"image-keyboard-response"	"233"	"408183"	"0.0-6.0-2.0-1.24"	"ml0koy"	"600"	"1366"	"chrome"	"111.0.0"	"FALSE"	"Windows 10"	"60.13"	"062"	n/a	n/a	n/a	n/a	n/a	n/a	"Trial"	n/a	n/a	n/a	"787"	"arrowright"	n/a	"NULL"	"NULL"	"NULL"	"stimuli/VerticalHorizontal_-28.75714_-0.1096.png"	n/a	"VerticalHorizontal"	"arrowright"	"1304"	"TRUE"	"VerticalHorizontal"	"-28.75714000"	"-0.109600000"	"2"	"25"
n/a	"html-keyboard-response"	"234"	"409200"	"0.0-6.0-2.0-0.25"	"ml0koy"	"600"	"1366"	"chrome"	"111.0.0"	"FALSE"	"Windows 10"	"60.13"	"062"	n/a	n/a	n/a	n/a	n/a	n/a	"fixation"	n/a	n/a	n/a	n/a	"NULL"	n/a	"NULL"	"NULL"	"NULL"	"<p style=\"color: black; font-size: 80px; padding-left: 49%; padding-right: 17%; padding-top: 50%; padding-bottom: 47%\">+</p>"	"1011"	n/a	n/a	n/a	n/a	n/a	n/a	n/a	n/a	n/a
n/a	"image-keyboard-response"	"235"	"409936"	"0.0-6.0-2.0-1.25"	"ml0koy"	"600"	"1366"	"chrome"	"111.0.0"	"FALSE"	"Windows 10"	"60.13"	"062"	n/a	n/a	n/a	n/a	n/a	n/a	"Trial"	n/a	n/a	n/a	"735"	"arrowleft"	n/a	"NULL"	"NULL"	"NULL"	"stimuli/VerticalHorizontal_-11.78571_0.10960.png"	n/a	"VerticalHorizontal"	"arrowleft"	"1017"	"TRUE"	"VerticalHorizontal"	"-11.78571000"	"0.1096000000"	"2"	"26"
n/a	"html-keyboard-response"	"236"	"411045"	"0.0-6.0-2.0-0.26"	"ml0koy"	"600"	"1366"	"chrome"	"111.0.0"	"FALSE"	"Windows 10"	"60.13"	"062"	n/a	n/a	n/a	n/a	n/a	n/a	"fixation"	n/a	n/a	n/a	n/a	"NULL"	n/a	"NULL"	"NULL"	"NULL"	"<p style=\"color: black; font-size: 80px; padding-left: 13%; padding-right: 23%; padding-top: 5%; padding-bottom: 48%\">+</p>"	"1098"	n/a	n/a	n/a	n/a	n/a	n/a	n/a	n/a	n/a
n/a	"image-keyboard-response"	"237"	"411520"	"0.0-6.0-2.0-1.26"	"ml0koy"	"600"	"1366"	"chrome"	"111.0.0"	"FALSE"	"Windows 10"	"60.13"	"062"	n/a	n/a	n/a	n/a	n/a	n/a	"Trial"	n/a	n/a	n/a	"474"	"arrowleft"	n/a	"NULL"	"NULL"	"NULL"	"stimuli/VerticalHorizontal_-28.75714_0.10960.png"	n/a	"VerticalHorizontal"	"arrowleft"	"1109"	"TRUE"	"VerticalHorizontal"	"-28.75714000"	"0.1096000000"	"2"	"27"
n/a	"html-keyboard-response"	"238"	"412638"	"0.0-6.0-2.0-0.27"	"ml0koy"	"600"	"1366"	"chrome"	"111.0.0"	"FALSE"	"Windows 10"	"60.13"	"062"	n/a	n/a	n/a	n/a	n/a	n/a	"fixation"	n/a	n/a	n/a	n/a	"NULL"	n/a	"NULL"	"NULL"	"NULL"	"<p style=\"color: black; font-size: 80px; padding-left: 16%; padding-right: 6%; padding-top: 40%; padding-bottom: 32%\">+</p>"	"1111"	n/a	n/a	n/a	n/a	n/a	n/a	n/a	n/a	n/a
n/a	"image-keyboard-response"	"239"	"413070"	"0.0-6.0-2.0-1.27"	"ml0koy"	"600"	"1366"	"chrome"	"111.0.0"	"FALSE"	"Windows 10"	"60.13"	"062"	n/a	n/a	n/a	n/a	n/a	n/a	"Trial"	n/a	n/a	n/a	"431"	"arrowleft"	n/a	"NULL"	"NULL"	"NULL"	"stimuli/VerticalHorizontal_28.75714_-0.1096.png"	n/a	"VerticalHorizontal"	"arrowright"	"1118"	"FALSE"	"VerticalHorizontal"	"28.757140000"	"-0.109600000"	"2"	"28"
n/a	"html-keyboard-response"	"240"	"414415"	"0.0-6.0-2.0-0.28"	"ml0koy"	"600"	"1366"	"chrome"	"111.0.0"	"FALSE"	"Windows 10"	"60.13"	"062"	n/a	n/a	n/a	n/a	n/a	n/a	"fixation"	n/a	n/a	n/a	n/a	"NULL"	n/a	"NULL"	"NULL"	"NULL"	"<p style=\"color: black; font-size: 80px; padding-left: 25%; padding-right: 4%; padding-top: 45%; padding-bottom: 33%\">+</p>"	"1330"	n/a	n/a	n/a	n/a	n/a	n/a	n/a	n/a	n/a
n/a	"image-keyboard-response"	"241"	"415017"	"0.0-6.0-2.0-1.28"	"ml0koy"	"600"	"1366"	"chrome"	"111.0.0"	"FALSE"	"Windows 10"	"60.13"	"062"	n/a	n/a	n/a	n/a	n/a	n/a	"Trial"	n/a	n/a	n/a	"601"	"arrowleft"	n/a	"NULL"	"NULL"	"NULL"	"stimuli/VerticalHorizontal_-3.3000_0.22500.png"	n/a	"VerticalHorizontal"	"arrowleft"	"1345"	"TRUE"	"VerticalHorizontal"	"-3.300000000"	"0.2250000000"	"2"	"29"
n/a	"html-keyboard-response"	"242"	"416081"	"0.0-6.0-2.0-0.29"	"ml0koy"	"600"	"1366"	"chrome"	"111.0.0"	"FALSE"	"Windows 10"	"60.13"	"062"	n/a	n/a	n/a	n/a	n/a	n/a	"fixation"	n/a	n/a	n/a	n/a	"NULL"	n/a	"NULL"	"NULL"	"NULL"	"<p style=\"color: black; font-size: 80px; padding-left: 9%; padding-right: 9%; padding-top: 11%; padding-bottom: 23%\">+</p>"	"1048"	n/a	n/a	n/a	n/a	n/a	n/a	n/a	n/a	n/a
n/a	"image-keyboard-response"	"243"	"416700"	"0.0-6.0-2.0-1.29"	"ml0koy"	"600"	"1366"	"chrome"	"111.0.0"	"FALSE"	"Windows 10"	"60.13"	"062"	n/a	n/a	n/a	n/a	n/a	n/a	"Trial"	n/a	n/a	n/a	"618"	"arrowleft"	n/a	"NULL"	"NULL"	"NULL"	"stimuli/VerticalHorizontal_-28.75714_0.22500.png"	n/a	"VerticalHorizontal"	"arrowleft"	"1064"	"TRUE"	"VerticalHorizontal"	"-28.75714000"	"0.2250000000"	"2"	"30"
n/a	"html-keyboard-response"	"244"	"418078"	"0.0-6.0-2.0-0.30"	"ml0koy"	"600"	"1366"	"chrome"	"111.0.0"	"FALSE"	"Windows 10"	"60.13"	"062"	n/a	n/a	n/a	n/a	n/a	n/a	"fixation"	n/a	n/a	n/a	n/a	"NULL"	n/a	"NULL"	"NULL"	"NULL"	"<p style=\"color: black; font-size: 80px; padding-left: 33%; padding-right: 45%; padding-top: 16%; padding-bottom: 37%\">+</p>"	"1370"	n/a	n/a	n/a	n/a	n/a	n/a	n/a	n/a	n/a
n/a	"image-keyboard-response"	"245"	"418674"	"0.0-6.0-2.0-1.30"	"ml0koy"	"600"	"1366"	"chrome"	"111.0.0"	"FALSE"	"Windows 10"	"60.13"	"062"	n/a	n/a	n/a	n/a	n/a	n/a	"Trial"	n/a	n/a	n/a	"596"	"arrowright"	n/a	"NULL"	"NULL"	"NULL"	"stimuli/VerticalHorizontal_20.27143_-0.1096.png"	n/a	"VerticalHorizontal"	"arrowright"	"1378"	"TRUE"	"VerticalHorizontal"	"20.271430000"	"-0.109600000"	"2"	"31"
n/a	"html-keyboard-response"	"246"	"419889"	"0.0-6.0-2.0-0.31"	"ml0koy"	"600"	"1366"	"chrome"	"111.0.0"	"FALSE"	"Windows 10"	"60.13"	"062"	n/a	n/a	n/a	n/a	n/a	n/a	"fixation"	n/a	n/a	n/a	n/a	"NULL"	n/a	"NULL"	"NULL"	"NULL"	"<p style=\"color: black; font-size: 80px; padding-left: 40%; padding-right: 29%; padding-top: 41%; padding-bottom: 21%\">+</p>"	"1198"	n/a	n/a	n/a	n/a	n/a	n/a	n/a	n/a	n/a
n/a	"image-keyboard-response"	"247"	"420517"	"0.0-6.0-2.0-1.31"	"ml0koy"	"600"	"1366"	"chrome"	"111.0.0"	"FALSE"	"Windows 10"	"60.13"	"062"	n/a	n/a	n/a	n/a	n/a	n/a	"Trial"	n/a	n/a	n/a	"627"	"arrowleft"	n/a	"NULL"	"NULL"	"NULL"	"stimuli/VerticalHorizontal_3.30000_0.10960.png"	n/a	"VerticalHorizontal"	"arrowleft"	"1215"	"TRUE"	"VerticalHorizontal"	"3.3000000000"	"0.1096000000"	"2"	"32"
n/a	"html-keyboard-response"	"248"	"421673"	"0.0-6.0-2.0-0.32"	"ml0koy"	"600"	"1366"	"chrome"	"111.0.0"	"FALSE"	"Windows 10"	"60.13"	"062"	n/a	n/a	n/a	n/a	n/a	n/a	"fixation"	n/a	n/a	n/a	n/a	"NULL"	n/a	"NULL"	"NULL"	"NULL"	"<p style=\"color: black; font-size: 80px; padding-left: 25%; padding-right: 1%; padding-top: 35%; padding-bottom: 45%\">+</p>"	"1150"	n/a	n/a	n/a	n/a	n/a	n/a	n/a	n/a	n/a
n/a	"image-keyboard-response"	"249"	"422375"	"0.0-6.0-2.0-1.32"	"ml0koy"	"600"	"1366"	"chrome"	"111.0.0"	"FALSE"	"Windows 10"	"60.13"	"062"	n/a	n/a	n/a	n/a	n/a	n/a	"Trial"	n/a	n/a	n/a	"702"	"arrowright"	n/a	"NULL"	"NULL"	"NULL"	"stimuli/VerticalHorizontal_-11.78571_-0.0673.png"	n/a	"VerticalHorizontal"	"arrowright"	"1156"	"TRUE"	"VerticalHorizontal"	"-11.78571000"	"-0.067300000"	"2"	"33"
n/a	"html-keyboard-response"	"250"	"423479"	"0.0-6.0-2.0-0.33"	"ml0koy"	"600"	"1366"	"chrome"	"111.0.0"	"FALSE"	"Windows 10"	"60.13"	"062"	n/a	n/a	n/a	n/a	n/a	n/a	"fixation"	n/a	n/a	n/a	n/a	"NULL"	n/a	"NULL"	"NULL"	"NULL"	"<p style=\"color: black; font-size: 80px; padding-left: 9%; padding-right: 40%; padding-top: 16%; padding-bottom: 17%\">+</p>"	"1093"	n/a	n/a	n/a	n/a	n/a	n/a	n/a	n/a	n/a
n/a	"image-keyboard-response"	"251"	"424157"	"0.0-6.0-2.0-1.33"	"ml0koy"	"600"	"1366"	"chrome"	"111.0.0"	"FALSE"	"Windows 10"	"60.13"	"062"	n/a	n/a	n/a	n/a	n/a	n/a	"Trial"	n/a	n/a	n/a	"676"	"arrowright"	n/a	"NULL"	"NULL"	"NULL"	"stimuli/VerticalHorizontal_3.30000_-0.16217.png"	n/a	"VerticalHorizontal"	"arrowright"	"1104"	"TRUE"	"VerticalHorizontal"	"3.3000000000"	"-0.162170000"	"2"	"34"
