"success"	"trial_type"	"trial_index"	"time_elapsed"	"internal_node_id"	"participant_id"	"screen_height"	"screen_width"	"browser"	"browser_version"	"mobile"	"os"	"vsync_rate"	"subject_id"	"width"	"height"	"webaudio"	"fullscreen"	"webcam"	"microphone"	"screen"	"version"	"date"	"time"	"rt"	"response"	"timeout"	"failed_images"	"failed_audio"	"failed_video"	"stimulus"	"trial_duration"	"block"	"correct_response"	"prestimulus_duration"	"correct"	"type"	"illusion_strength"	"illusion_difference"	"block_number"	"trial_number"
"TRUE"	"fullscreen"	"0"	"1090"	"0.0-0.0"	"4ajc6z"	"600"	"1366"	"chrome"	"109.0.0"	"FALSE"	"Windows 10"	"61.24"	"015"	n/a	n/a	n/a	n/a	n/a	n/a	n/a	n/a	n/a	n/a	n/a	"NULL"	n/a	"NULL"	"NULL"	"NULL"	n/a	n/a	n/a	n/a	n/a	n/a	n/a	n/a	n/a	n/a	n/a
n/a	"browser-check"	"1"	"2096"	"0.0-1.0"	"4ajc6z"	"600"	"1366"	"chrome"	"109.0.0"	"FALSE"	"Windows 10"	"61.24"	"015"	"1366"	"600"	"TRUE"	"TRUE"	"TRUE"	"TRUE"	"browser_info"	"1.0"	"10/02/2023"	"14:23:33"	n/a	"NULL"	n/a	"NULL"	"NULL"	"NULL"	n/a	n/a	n/a	n/a	n/a	n/a	n/a	n/a	n/a	n/a	n/a
n/a	"survey-text"	"2"	"8269"	"0.0-2.0"	"4ajc6z"	"600"	"1366"	"chrome"	"109.0.0"	"FALSE"	"Windows 10"	"61.24"	"015"	n/a	n/a	n/a	n/a	n/a	n/a	"subject_id"	n/a	n/a	n/a	"6148"	"list(subject_id = \"015\")"	n/a	"NULL"	"NULL"	"NULL"	n/a	n/a	n/a	n/a	n/a	n/a	n/a	n/a	n/a	n/a	n/a
"TRUE"	"preload"	"3"	"8287"	"0.0-3.0"	"4ajc6z"	"600"	"1366"	"chrome"	"109.0.0"	"FALSE"	"Windows 10"	"61.24"	"015"	n/a	n/a	n/a	n/a	n/a	n/a	n/a	n/a	n/a	n/a	n/a	"NULL"	"FALSE"	"list()"	"list()"	"list()"	n/a	n/a	n/a	n/a	n/a	n/a	n/a	n/a	n/a	n/a	n/a
n/a	"html-button-response"	"4"	"50126"	"0.0-4.0-0.0"	"4ajc6z"	"600"	"1366"	"chrome"	"109.0.0"	"FALSE"	"Windows 10"	"61.24"	"015"	n/a	n/a	n/a	n/a	n/a	n/a	"illusion_instructions"	n/a	n/a	n/a	"41838"	"0"	n/a	"NULL"	"NULL"	"NULL"	"<p><b>Illusion Game</b></p><p>In this game of speed and reflex, you will need to make <b>visual judgments</b> (for instance, which circle is the biggest, or which line is the longest), as fast and as correctly as possible, while <b>resisting different visual illusions</b>.</p><p>We are going to start with some examples of all the illusions you will encounter in the game.</p>"	n/a	n/a	n/a	n/a	n/a	n/a	n/a	n/a	n/a	n/a
"TRUE"	"preload"	"5"	"50153"	"0.0-4.0-1.0-0.0"	"4ajc6z"	"600"	"1366"	"chrome"	"109.0.0"	"FALSE"	"Windows 10"	"61.24"	"015"	n/a	n/a	n/a	n/a	n/a	n/a	n/a	n/a	n/a	n/a	n/a	"NULL"	"FALSE"	"list()"	"list()"	"list()"	n/a	n/a	n/a	n/a	n/a	n/a	n/a	n/a	n/a	n/a	n/a
n/a	"html-keyboard-response"	"6"	"69056"	"0.0-4.0-1.0-1.0"	"4ajc6z"	"600"	"1366"	"chrome"	"109.0.0"	"FALSE"	"Windows 10"	"61.24"	"015"	n/a	n/a	n/a	n/a	n/a	n/a	n/a	n/a	n/a	n/a	"18900"	"enter"	n/a	"NULL"	"NULL"	"NULL"	"<p><b>Practice</b></p><p>In this part, two red circles will appear side by side on the screen.</p><p>Your task is to select which <b>red circle is bigger</b> in size as fast as you can, without making errors.</p><p>Don't get distracted by the surrounding black circles around the red circles!</p><p>Press <b>the LEFT or the RIGHT arrow</b> to indicate which is the bigger <b>red circle.</b></p><div style='float: center'><img src='materials/instructions/Ebbinghaus_Demo.png' height='300'></img><p><img src='utils/answer/answer_leftright_keyboard.PNG' height='150'></img></p><p class='small'>In this example, the correct answer is the <b>LEFT arrow</b>.</p></div><p>Are you ready? <b>Press ENTER to start</b></p>"	n/a	n/a	n/a	n/a	n/a	n/a	n/a	n/a	n/a	n/a
n/a	"html-keyboard-response"	"7"	"70719"	"0.0-4.0-1.0-2.0-0.0"	"4ajc6z"	"600"	"1366"	"chrome"	"109.0.0"	"FALSE"	"Windows 10"	"61.24"	"015"	n/a	n/a	n/a	n/a	n/a	n/a	"fixation"	n/a	n/a	n/a	n/a	"NULL"	n/a	"NULL"	"NULL"	"NULL"	"<p style=\"color: black; font-size: 80px; padding-left: 23%; padding-right: 28%; padding-top: 8%; padding-bottom: 38%\">+</p>"	"1149"	n/a	n/a	n/a	n/a	n/a	n/a	n/a	n/a	n/a
n/a	"image-keyboard-response"	"8"	"72931"	"0.0-4.0-1.0-2.0-1.0"	"4ajc6z"	"600"	"1366"	"chrome"	"109.0.0"	"FALSE"	"Windows 10"	"61.24"	"015"	n/a	n/a	n/a	n/a	n/a	n/a	"Trial"	n/a	n/a	n/a	"2191"	"arrowright"	n/a	"NULL"	"NULL"	"NULL"	"stimuli/Ebbinghaus_1000000_-1.4000.png"	n/a	"Ebbinghaus"	"arrowright"	"1663"	"TRUE"	"Ebbinghaus"	"100000000000"	"-1.400000000"	"1"	"1"
n/a	"html-keyboard-response"	"9"	"74176"	"0.0-4.0-1.0-2.0-0.1"	"4ajc6z"	"600"	"1366"	"chrome"	"109.0.0"	"FALSE"	"Windows 10"	"61.24"	"015"	n/a	n/a	n/a	n/a	n/a	n/a	"fixation"	n/a	n/a	n/a	n/a	"NULL"	n/a	"NULL"	"NULL"	"NULL"	"<p style=\"color: black; font-size: 80px; padding-left: 23%; padding-right: 43%; padding-top: 48%; padding-bottom: 43%\">+</p>"	"1223"	n/a	n/a	n/a	n/a	n/a	n/a	n/a	n/a	n/a
n/a	"image-keyboard-response"	"10"	"74691"	"0.0-4.0-1.0-2.0-1.1"	"4ajc6z"	"600"	"1366"	"chrome"	"109.0.0"	"FALSE"	"Windows 10"	"61.24"	"015"	n/a	n/a	n/a	n/a	n/a	n/a	"Trial"	n/a	n/a	n/a	"513"	"arrowleft"	n/a	"NULL"	"NULL"	"NULL"	"stimuli/Ebbinghaus_1000000_1.40000.png"	n/a	"Ebbinghaus"	"arrowleft"	"1245"	"TRUE"	"Ebbinghaus"	"100000000000"	"1.4000000000"	"1"	"2"
n/a	"html-keyboard-response"	"11"	"75853"	"0.0-4.0-1.0-2.0-0.2"	"4ajc6z"	"600"	"1366"	"chrome"	"109.0.0"	"FALSE"	"Windows 10"	"61.24"	"015"	n/a	n/a	n/a	n/a	n/a	n/a	"fixation"	n/a	n/a	n/a	n/a	"NULL"	n/a	"NULL"	"NULL"	"NULL"	"<p style=\"color: black; font-size: 80px; padding-left: 11%; padding-right: 16%; padding-top: 40%; padding-bottom: 2%\">+</p>"	"1143"	n/a	n/a	n/a	n/a	n/a	n/a	n/a	n/a	n/a
n/a	"image-keyboard-response"	"12"	"76745"	"0.0-4.0-1.0-2.0-1.2"	"4ajc6z"	"600"	"1366"	"chrome"	"109.0.0"	"FALSE"	"Windows 10"	"61.24"	"015"	n/a	n/a	n/a	n/a	n/a	n/a	"Trial"	n/a	n/a	n/a	"891"	"arrowleft"	n/a	"NULL"	"NULL"	"NULL"	"stimuli/Ebbinghaus_-100000_1.40000.png"	n/a	"Ebbinghaus"	"arrowleft"	"1162"	"TRUE"	"Ebbinghaus"	"-10000000000"	"1.4000000000"	"1"	"3"
n/a	"html-keyboard-response"	"13"	"77889"	"0.0-4.0-1.0-2.0-0.3"	"4ajc6z"	"600"	"1366"	"chrome"	"109.0.0"	"FALSE"	"Windows 10"	"61.24"	"015"	n/a	n/a	n/a	n/a	n/a	n/a	"fixation"	n/a	n/a	n/a	n/a	"NULL"	n/a	"NULL"	"NULL"	"NULL"	"<p style=\"color: black; font-size: 80px; padding-left: 20%; padding-right: 6%; padding-top: 46%; padding-bottom: 49%\">+</p>"	"1127"	n/a	n/a	n/a	n/a	n/a	n/a	n/a	n/a	n/a
n/a	"image-keyboard-response"	"14"	"78792"	"0.0-4.0-1.0-2.0-1.3"	"4ajc6z"	"600"	"1366"	"chrome"	"109.0.0"	"FALSE"	"Windows 10"	"61.24"	"015"	n/a	n/a	n/a	n/a	n/a	n/a	"Trial"	n/a	n/a	n/a	"901"	"arrowleft"	n/a	"NULL"	"NULL"	"NULL"	"stimuli/Ebbinghaus_0000000_1.40000.png"	n/a	"Ebbinghaus"	"arrowleft"	"1144"	"TRUE"	"Ebbinghaus"	"000000000000"	"1.4000000000"	"1"	"4"
n/a	"html-keyboard-response"	"15"	"79968"	"0.0-4.0-1.0-2.0-0.4"	"4ajc6z"	"600"	"1366"	"chrome"	"109.0.0"	"FALSE"	"Windows 10"	"61.24"	"015"	n/a	n/a	n/a	n/a	n/a	n/a	"fixation"	n/a	n/a	n/a	n/a	"NULL"	n/a	"NULL"	"NULL"	"NULL"	"<p style=\"color: black; font-size: 80px; padding-left: 40%; padding-right: 49%; padding-top: 30%; padding-bottom: 25%\">+</p>"	"1164"	n/a	n/a	n/a	n/a	n/a	n/a	n/a	n/a	n/a
n/a	"image-keyboard-response"	"16"	"80634"	"0.0-4.0-1.0-2.0-1.4"	"4ajc6z"	"600"	"1366"	"chrome"	"109.0.0"	"FALSE"	"Windows 10"	"61.24"	"015"	n/a	n/a	n/a	n/a	n/a	n/a	"Trial"	n/a	n/a	n/a	"663"	"arrowright"	n/a	"NULL"	"NULL"	"NULL"	"stimuli/Ebbinghaus_0000000_-1.4000.png"	n/a	"Ebbinghaus"	"arrowright"	"1176"	"TRUE"	"Ebbinghaus"	"000000000000"	"-1.400000000"	"1"	"5"
n/a	"html-keyboard-response"	"17"	"81880"	"0.0-4.0-1.0-2.0-0.5"	"4ajc6z"	"600"	"1366"	"chrome"	"109.0.0"	"FALSE"	"Windows 10"	"61.24"	"015"	n/a	n/a	n/a	n/a	n/a	n/a	"fixation"	n/a	n/a	n/a	n/a	"NULL"	n/a	"NULL"	"NULL"	"NULL"	"<p style=\"color: black; font-size: 80px; padding-left: 1%; padding-right: 43%; padding-top: 35%; padding-bottom: 44%\">+</p>"	"1239"	n/a	n/a	n/a	n/a	n/a	n/a	n/a	n/a	n/a
n/a	"image-keyboard-response"	"18"	"82499"	"0.0-4.0-1.0-2.0-1.5"	"4ajc6z"	"600"	"1366"	"chrome"	"109.0.0"	"FALSE"	"Windows 10"	"61.24"	"015"	n/a	n/a	n/a	n/a	n/a	n/a	"Trial"	n/a	n/a	n/a	"618"	"arrowright"	n/a	"NULL"	"NULL"	"NULL"	"stimuli/Ebbinghaus_-100000_-1.4000.png"	n/a	"Ebbinghaus"	"arrowright"	"1246"	"TRUE"	"Ebbinghaus"	"-10000000000"	"-1.400000000"	"1"	"6"
n/a	"html-button-response"	"19"	"95175"	"0.0-4.0-1.0-3.0"	"4ajc6z"	"600"	"1366"	"chrome"	"109.0.0"	"FALSE"	"Windows 10"	"61.24"	"015"	n/a	n/a	n/a	n/a	n/a	n/a	"practice_block_results"	n/a	n/a	n/a	"12674"	"0"	n/a	"NULL"	"NULL"	"NULL"	"<p style='color:rgb(76,175,80);'> Correct Responses: <b>100.00%</b></p><hr><p style='color:rgb(233,30,99);'> Average Response Time: <b>962.83</b> ms.</p>"	n/a	n/a	n/a	n/a	n/a	n/a	n/a	n/a	n/a	n/a
"TRUE"	"preload"	"20"	"95711"	"0.0-4.0-2.0-0.0"	"4ajc6z"	"600"	"1366"	"chrome"	"109.0.0"	"FALSE"	"Windows 10"	"61.24"	"015"	n/a	n/a	n/a	n/a	n/a	n/a	n/a	n/a	n/a	n/a	n/a	"NULL"	"FALSE"	"list()"	"list()"	"list()"	n/a	n/a	n/a	n/a	n/a	n/a	n/a	n/a	n/a	n/a	n/a
n/a	"html-keyboard-response"	"21"	"102771"	"0.0-4.0-2.0-1.0"	"4ajc6z"	"600"	"1366"	"chrome"	"109.0.0"	"FALSE"	"Windows 10"	"61.24"	"015"	n/a	n/a	n/a	n/a	n/a	n/a	n/a	n/a	n/a	n/a	"7060"	"enter"	n/a	"NULL"	"NULL"	"NULL"	"<p><b>Practice</b></p><p>In this part, two horizontal red lines will appear one above the other.</p><p>Your task is to select which <b>line is longer</b> in length as fast as you can, without making errors.</p><p>Don't get distracted by the surrounding black arrows at the end of the red lines!</p><p>Press <b>the UP or the DOWN arrow</b> to indicate where is the longer <b>red line.</b></p><div style='float: center'><img src='materials/instructions/MullerLyer_Demo.png' height='300'></img><p><img src='utils/answer/answer_updown_keyboard.PNG' height='150'></img></p><p class='small'>In this example, the correct answer is the <b>UP arrow</b>.</p></div><p>Are you ready? <b>Press ENTER to start</b></p>"	n/a	n/a	n/a	n/a	n/a	n/a	n/a	n/a	n/a	n/a
n/a	"html-keyboard-response"	"22"	"104382"	"0.0-4.0-2.0-2.0-0.0"	"4ajc6z"	"600"	"1366"	"chrome"	"109.0.0"	"FALSE"	"Windows 10"	"61.24"	"015"	n/a	n/a	n/a	n/a	n/a	n/a	"fixation"	n/a	n/a	n/a	n/a	"NULL"	n/a	"NULL"	"NULL"	"NULL"	"<p style=\"color: black; font-size: 80px; padding-left: 47%; padding-right: 4%; padding-top: 25%; padding-bottom: 34%\">+</p>"	"1076"	n/a	n/a	n/a	n/a	n/a	n/a	n/a	n/a	n/a
n/a	"image-keyboard-response"	"23"	"105136"	"0.0-4.0-2.0-2.0-1.0"	"4ajc6z"	"600"	"1366"	"chrome"	"109.0.0"	"FALSE"	"Windows 10"	"61.24"	"015"	n/a	n/a	n/a	n/a	n/a	n/a	"Trial"	n/a	n/a	n/a	"753"	"arrowup"	n/a	"NULL"	"NULL"	"NULL"	"stimuli/MullerLyer_0000000_0.70000.png"	n/a	"MullerLyer"	"arrowup"	"1611"	"TRUE"	"MullerLyer"	"000000000000"	"0.7000000000"	"1"	"7"
n/a	"html-keyboard-response"	"24"	"106527"	"0.0-4.0-2.0-2.0-0.1"	"4ajc6z"	"600"	"1366"	"chrome"	"109.0.0"	"FALSE"	"Windows 10"	"61.24"	"015"	n/a	n/a	n/a	n/a	n/a	n/a	"fixation"	n/a	n/a	n/a	n/a	"NULL"	n/a	"NULL"	"NULL"	"NULL"	"<p style=\"color: black; font-size: 80px; padding-left: 4%; padding-right: 25%; padding-top: 33%; padding-bottom: 44%\">+</p>"	"1378"	n/a	n/a	n/a	n/a	n/a	n/a	n/a	n/a	n/a
n/a	"image-keyboard-response"	"25"	"107075"	"0.0-4.0-2.0-2.0-1.1"	"4ajc6z"	"600"	"1366"	"chrome"	"109.0.0"	"FALSE"	"Windows 10"	"61.24"	"015"	n/a	n/a	n/a	n/a	n/a	n/a	"Trial"	n/a	n/a	n/a	"547"	"arrowdown"	n/a	"NULL"	"NULL"	"NULL"	"stimuli/MullerLyer_2300000_-0.7000.png"	n/a	"MullerLyer"	"arrowdown"	"1391"	"TRUE"	"MullerLyer"	"230000000000"	"-0.700000000"	"1"	"8"
n/a	"html-keyboard-response"	"26"	"108525"	"0.0-4.0-2.0-2.0-0.2"	"4ajc6z"	"600"	"1366"	"chrome"	"109.0.0"	"FALSE"	"Windows 10"	"61.24"	"015"	n/a	n/a	n/a	n/a	n/a	n/a	"fixation"	n/a	n/a	n/a	n/a	"NULL"	n/a	"NULL"	"NULL"	"NULL"	"<p style=\"color: black; font-size: 80px; padding-left: 30%; padding-right: 45%; padding-top: 45%; padding-bottom: 28%\">+</p>"	"1443"	n/a	n/a	n/a	n/a	n/a	n/a	n/a	n/a	n/a
n/a	"image-keyboard-response"	"27"	"109152"	"0.0-4.0-2.0-2.0-1.2"	"4ajc6z"	"600"	"1366"	"chrome"	"109.0.0"	"FALSE"	"Windows 10"	"61.24"	"015"	n/a	n/a	n/a	n/a	n/a	n/a	"Trial"	n/a	n/a	n/a	"626"	"arrowup"	n/a	"NULL"	"NULL"	"NULL"	"stimuli/MullerLyer_2300000_0.70000.png"	n/a	"MullerLyer"	"arrowup"	"1450"	"TRUE"	"MullerLyer"	"230000000000"	"0.7000000000"	"1"	"9"
n/a	"html-keyboard-response"	"28"	"110198"	"0.0-4.0-2.0-2.0-0.3"	"4ajc6z"	"600"	"1366"	"chrome"	"109.0.0"	"FALSE"	"Windows 10"	"61.24"	"015"	n/a	n/a	n/a	n/a	n/a	n/a	"fixation"	n/a	n/a	n/a	n/a	"NULL"	n/a	"NULL"	"NULL"	"NULL"	"<p style=\"color: black; font-size: 80px; padding-left: 47%; padding-right: 40%; padding-top: 4%; padding-bottom: 36%\">+</p>"	"1035"	n/a	n/a	n/a	n/a	n/a	n/a	n/a	n/a	n/a
n/a	"image-keyboard-response"	"29"	"110880"	"0.0-4.0-2.0-2.0-1.3"	"4ajc6z"	"600"	"1366"	"chrome"	"109.0.0"	"FALSE"	"Windows 10"	"61.24"	"015"	n/a	n/a	n/a	n/a	n/a	n/a	"Trial"	n/a	n/a	n/a	"680"	"arrowup"	n/a	"NULL"	"NULL"	"NULL"	"stimuli/MullerLyer_0000000_-0.7000.png"	n/a	"MullerLyer"	"arrowdown"	"1046"	"FALSE"	"MullerLyer"	"000000000000"	"-0.700000000"	"1"	"10"
n/a	"html-keyboard-response"	"30"	"112036"	"0.0-4.0-2.0-2.0-0.4"	"4ajc6z"	"600"	"1366"	"chrome"	"109.0.0"	"FALSE"	"Windows 10"	"61.24"	"015"	n/a	n/a	n/a	n/a	n/a	n/a	"fixation"	n/a	n/a	n/a	n/a	"NULL"	n/a	"NULL"	"NULL"	"NULL"	"<p style=\"color: black; font-size: 80px; padding-left: 33%; padding-right: 29%; padding-top: 46%; padding-bottom: 32%\">+</p>"	"1144"	n/a	n/a	n/a	n/a	n/a	n/a	n/a	n/a	n/a
n/a	"image-keyboard-response"	"31"	"112538"	"0.0-4.0-2.0-2.0-1.4"	"4ajc6z"	"600"	"1366"	"chrome"	"109.0.0"	"FALSE"	"Windows 10"	"61.24"	"015"	n/a	n/a	n/a	n/a	n/a	n/a	"Trial"	n/a	n/a	n/a	"501"	"arrowdown"	n/a	"NULL"	"NULL"	"NULL"	"stimuli/MullerLyer_-230000_-0.7000.png"	n/a	"MullerLyer"	"arrowdown"	"1156"	"TRUE"	"MullerLyer"	"-23000000000"	"-0.700000000"	"1"	"11"
n/a	"html-keyboard-response"	"32"	"113817"	"0.0-4.0-2.0-2.0-0.5"	"4ajc6z"	"600"	"1366"	"chrome"	"109.0.0"	"FALSE"	"Windows 10"	"61.24"	"015"	n/a	n/a	n/a	n/a	n/a	n/a	"fixation"	n/a	n/a	n/a	n/a	"NULL"	n/a	"NULL"	"NULL"	"NULL"	"<p style=\"color: black; font-size: 80px; padding-left: 38%; padding-right: 28%; padding-top: 3%; padding-bottom: 2%\">+</p>"	"1257"	n/a	n/a	n/a	n/a	n/a	n/a	n/a	n/a	n/a
n/a	"image-keyboard-response"	"33"	"114282"	"0.0-4.0-2.0-2.0-1.5"	"4ajc6z"	"600"	"1366"	"chrome"	"109.0.0"	"FALSE"	"Windows 10"	"61.24"	"015"	n/a	n/a	n/a	n/a	n/a	n/a	"Trial"	n/a	n/a	n/a	"462"	"arrowup"	n/a	"NULL"	"NULL"	"NULL"	"stimuli/MullerLyer_-230000_0.70000.png"	n/a	"MullerLyer"	"arrowup"	"1279"	"TRUE"	"MullerLyer"	"-23000000000"	"0.7000000000"	"1"	"12"
n/a	"html-button-response"	"34"	"117263"	"0.0-4.0-2.0-3.0"	"4ajc6z"	"600"	"1366"	"chrome"	"109.0.0"	"FALSE"	"Windows 10"	"61.24"	"015"	n/a	n/a	n/a	n/a	n/a	n/a	"practice_block_results"	n/a	n/a	n/a	"2978"	"0"	n/a	"NULL"	"NULL"	"NULL"	"<p style='color:rgb(76,175,80);'> Correct Responses: <b>83.33%</b></p><hr><p style='color:rgb(233,30,99);'> Average Response Time: <b>594.83</b> ms.</p>"	n/a	n/a	n/a	n/a	n/a	n/a	n/a	n/a	n/a	n/a
"TRUE"	"preload"	"35"	"118134"	"0.0-4.0-3.0-0.0"	"4ajc6z"	"600"	"1366"	"chrome"	"109.0.0"	"FALSE"	"Windows 10"	"61.24"	"015"	n/a	n/a	n/a	n/a	n/a	n/a	n/a	n/a	n/a	n/a	n/a	"NULL"	"FALSE"	"list()"	"list()"	"list()"	n/a	n/a	n/a	n/a	n/a	n/a	n/a	n/a	n/a	n/a	n/a
n/a	"html-keyboard-response"	"36"	"122628"	"0.0-4.0-3.0-1.0"	"4ajc6z"	"600"	"1366"	"chrome"	"109.0.0"	"FALSE"	"Windows 10"	"61.24"	"015"	n/a	n/a	n/a	n/a	n/a	n/a	n/a	n/a	n/a	n/a	"4493"	"enter"	n/a	"NULL"	"NULL"	"NULL"	"<p><b>Practice</b></p><p>In this part, two red lines will appear side by side.</p><p>Your task is to tell <b>which line is longer</b> in length, regardless of their orientation, as fast as you can, and without making errors.</p><p>Don't get distracted by the orientation of the lines!</p><p>Press <b>the LEFT or the RIGHT arrow</b> to indicate which <b>line is the longer one.</b></p><div style='float: center'><img src='materials/instructions/VerticalHorizontal_Demo.png' height='300'></img><p><img src='utils/answer/answer_leftright_keyboard.PNG' height='150'></img></p><p class='small'>In this example, the correct answer is the <b>LEFT arrow</b>.</p></div><p>Are you ready? <b>Press ENTER to start</b></p>"	n/a	n/a	n/a	n/a	n/a	n/a	n/a	n/a	n/a	n/a
n/a	"html-keyboard-response"	"37"	"124498"	"0.0-4.0-3.0-2.0-0.0"	"4ajc6z"	"600"	"1366"	"chrome"	"109.0.0"	"FALSE"	"Windows 10"	"61.24"	"015"	n/a	n/a	n/a	n/a	n/a	n/a	"fixation"	n/a	n/a	n/a	n/a	"NULL"	n/a	"NULL"	"NULL"	"NULL"	"<p style=\"color: black; font-size: 80px; padding-left: 20%; padding-right: 37%; padding-top: 42%; padding-bottom: 10%\">+</p>"	"1350"	n/a	n/a	n/a	n/a	n/a	n/a	n/a	n/a	n/a
n/a	"image-keyboard-response"	"38"	"125151"	"0.0-4.0-3.0-2.0-1.0"	"4ajc6z"	"600"	"1366"	"chrome"	"109.0.0"	"FALSE"	"Windows 10"	"61.24"	"015"	n/a	n/a	n/a	n/a	n/a	n/a	"Trial"	n/a	n/a	n/a	"651"	"arrowright"	n/a	"NULL"	"NULL"	"NULL"	"stimuli/VerticalHorizontal_-330000_-0.9000.png"	n/a	"VerticalHorizontal"	"arrowright"	"1870"	"TRUE"	"VerticalHorizontal"	"-33000000000"	"-0.900000000"	"1"	"13"
n/a	"html-keyboard-response"	"39"	"126266"	"0.0-4.0-3.0-2.0-0.1"	"4ajc6z"	"600"	"1366"	"chrome"	"109.0.0"	"FALSE"	"Windows 10"	"61.24"	"015"	n/a	n/a	n/a	n/a	n/a	n/a	"fixation"	n/a	n/a	n/a	n/a	"NULL"	n/a	"NULL"	"NULL"	"NULL"	"<p style=\"color: black; font-size: 80px; padding-left: 16%; padding-right: 22%; padding-top: 25%; padding-bottom: 38%\">+</p>"	"1093"	n/a	n/a	n/a	n/a	n/a	n/a	n/a	n/a	n/a
n/a	"image-keyboard-response"	"40"	"126747"	"0.0-4.0-3.0-2.0-1.1"	"4ajc6z"	"600"	"1366"	"chrome"	"109.0.0"	"FALSE"	"Windows 10"	"61.24"	"015"	n/a	n/a	n/a	n/a	n/a	n/a	"Trial"	n/a	n/a	n/a	"480"	"arrowleft"	n/a	"NULL"	"NULL"	"NULL"	"stimuli/VerticalHorizontal_3300000_0.90000.png"	n/a	"VerticalHorizontal"	"arrowleft"	"1115"	"TRUE"	"VerticalHorizontal"	"330000000000"	"0.9000000000"	"1"	"14"
n/a	"html-keyboard-response"	"41"	"128076"	"0.0-4.0-3.0-2.0-0.2"	"4ajc6z"	"600"	"1366"	"chrome"	"109.0.0"	"FALSE"	"Windows 10"	"61.24"	"015"	n/a	n/a	n/a	n/a	n/a	n/a	"fixation"	n/a	n/a	n/a	n/a	"NULL"	n/a	"NULL"	"NULL"	"NULL"	"<p style=\"color: black; font-size: 80px; padding-left: 20%; padding-right: 29%; padding-top: 35%; padding-bottom: 40%\">+</p>"	"1318"	n/a	n/a	n/a	n/a	n/a	n/a	n/a	n/a	n/a
n/a	"image-keyboard-response"	"42"	"128517"	"0.0-4.0-3.0-2.0-1.2"	"4ajc6z"	"600"	"1366"	"chrome"	"109.0.0"	"FALSE"	"Windows 10"	"61.24"	"015"	n/a	n/a	n/a	n/a	n/a	n/a	"Trial"	n/a	n/a	n/a	"440"	"arrowright"	n/a	"NULL"	"NULL"	"NULL"	"stimuli/VerticalHorizontal_0000000_-0.9000.png"	n/a	"VerticalHorizontal"	"arrowright"	"1329"	"TRUE"	"VerticalHorizontal"	"000000000000"	"-0.900000000"	"1"	"15"
n/a	"html-keyboard-response"	"43"	"129827"	"0.0-4.0-3.0-2.0-0.3"	"4ajc6z"	"600"	"1366"	"chrome"	"109.0.0"	"FALSE"	"Windows 10"	"61.24"	"015"	n/a	n/a	n/a	n/a	n/a	n/a	"fixation"	n/a	n/a	n/a	n/a	"NULL"	n/a	"NULL"	"NULL"	"NULL"	"<p style=\"color: black; font-size: 80px; padding-left: 30%; padding-right: 38%; padding-top: 9%; padding-bottom: 17%\">+</p>"	"1297"	n/a	n/a	n/a	n/a	n/a	n/a	n/a	n/a	n/a
n/a	"image-keyboard-response"	"44"	"130231"	"0.0-4.0-3.0-2.0-1.3"	"4ajc6z"	"600"	"1366"	"chrome"	"109.0.0"	"FALSE"	"Windows 10"	"61.24"	"015"	n/a	n/a	n/a	n/a	n/a	n/a	"Trial"	n/a	n/a	n/a	"403"	"arrowleft"	n/a	"NULL"	"NULL"	"NULL"	"stimuli/VerticalHorizontal_-330000_0.90000.png"	n/a	"VerticalHorizontal"	"arrowleft"	"1310"	"TRUE"	"VerticalHorizontal"	"-33000000000"	"0.9000000000"	"1"	"16"
n/a	"html-keyboard-response"	"45"	"131591"	"0.0-4.0-3.0-2.0-0.4"	"4ajc6z"	"600"	"1366"	"chrome"	"109.0.0"	"FALSE"	"Windows 10"	"61.24"	"015"	n/a	n/a	n/a	n/a	n/a	n/a	"fixation"	n/a	n/a	n/a	n/a	"NULL"	n/a	"NULL"	"NULL"	"NULL"	"<p style=\"color: black; font-size: 80px; padding-left: 41%; padding-right: 13%; padding-top: 14%; padding-bottom: 24%\">+</p>"	"1344"	n/a	n/a	n/a	n/a	n/a	n/a	n/a	n/a	n/a
n/a	"image-keyboard-response"	"46"	"132195"	"0.0-4.0-3.0-2.0-1.4"	"4ajc6z"	"600"	"1366"	"chrome"	"109.0.0"	"FALSE"	"Windows 10"	"61.24"	"015"	n/a	n/a	n/a	n/a	n/a	n/a	"Trial"	n/a	n/a	n/a	"599"	"arrowleft"	n/a	"NULL"	"NULL"	"NULL"	"stimuli/VerticalHorizontal_0000000_0.90000.png"	n/a	"VerticalHorizontal"	"arrowleft"	"1360"	"TRUE"	"VerticalHorizontal"	"000000000000"	"0.9000000000"	"1"	"17"
n/a	"html-keyboard-response"	"47"	"133390"	"0.0-4.0-3.0-2.0-0.5"	"4ajc6z"	"600"	"1366"	"chrome"	"109.0.0"	"FALSE"	"Windows 10"	"61.24"	"015"	n/a	n/a	n/a	n/a	n/a	n/a	"fixation"	n/a	n/a	n/a	n/a	"NULL"	n/a	"NULL"	"NULL"	"NULL"	"<p style=\"color: black; font-size: 80px; padding-left: 3%; padding-right: 2%; padding-top: 37%; padding-bottom: 27%\">+</p>"	"1176"	n/a	n/a	n/a	n/a	n/a	n/a	n/a	n/a	n/a
n/a	"image-keyboard-response"	"48"	"133802"	"0.0-4.0-3.0-2.0-1.5"	"4ajc6z"	"600"	"1366"	"chrome"	"109.0.0"	"FALSE"	"Windows 10"	"61.24"	"015"	n/a	n/a	n/a	n/a	n/a	n/a	"Trial"	n/a	n/a	n/a	"410"	"arrowright"	n/a	"NULL"	"NULL"	"NULL"	"stimuli/VerticalHorizontal_3300000_-0.9000.png"	n/a	"VerticalHorizontal"	"arrowright"	"1195"	"TRUE"	"VerticalHorizontal"	"330000000000"	"-0.900000000"	"1"	"18"
n/a	"html-button-response"	"49"	"136199"	"0.0-4.0-3.0-3.0"	"4ajc6z"	"600"	"1366"	"chrome"	"109.0.0"	"FALSE"	"Windows 10"	"61.24"	"015"	n/a	n/a	n/a	n/a	n/a	n/a	"practice_block_results"	n/a	n/a	n/a	"2393"	"0"	n/a	"NULL"	"NULL"	"NULL"	"<p style='color:rgb(76,175,80);'> Correct Responses: <b>100.00%</b></p><hr><p style='color:rgb(233,30,99);'> Average Response Time: <b>497.17</b> ms.</p>"	n/a	n/a	n/a	n/a	n/a	n/a	n/a	n/a	n/a	n/a
n/a	"html-button-response"	"50"	"402551"	"0.0-4.0-4.0"	"4ajc6z"	"600"	"1366"	"chrome"	"109.0.0"	"FALSE"	"Windows 10"	"61.24"	"015"	n/a	n/a	n/a	n/a	n/a	n/a	"practice_debrief"	n/a	n/a	n/a	"265832"	"0"	n/a	"NULL"	"NULL"	"NULL"	"<p><b>TRAINING COMPLETED</b></p><p>In the next phase, there will be more trials, and some might be harder too.<br> Moreover, after each illusion block, a <b>score</b> will be calculated based on speed (time you took to answer) and accuracy (number of errors).</p><p>Try to keep up a high score!</p><br><p>Note that it can be <i>really</i> challenging at times, so you will need to rely on your <b>intuition</b> and gut feeling to answer as fast as you can without making errors.</p><p>Each illusion block will be repeated two times (so that you have the opportunity to improve your score), but the order of the blocks is random.</p><p>Remember, your goal is to be as <b>fast</b> and <b>accurate</b> as possible. Good luck!</p><br>"	n/a	n/a	n/a	n/a	n/a	n/a	n/a	n/a	n/a	n/a
"TRUE"	"preload"	"51"	"402730"	"0.0-5.0-0.0"	"4ajc6z"	"600"	"1366"	"chrome"	"109.0.0"	"FALSE"	"Windows 10"	"61.24"	"015"	n/a	n/a	n/a	n/a	n/a	n/a	n/a	n/a	n/a	n/a	n/a	"NULL"	"FALSE"	"list()"	"list()"	"list()"	n/a	n/a	n/a	n/a	n/a	n/a	n/a	n/a	n/a	n/a	n/a
n/a	"html-keyboard-response"	"52"	"406409"	"0.0-5.0-1.0"	"4ajc6z"	"600"	"1366"	"chrome"	"109.0.0"	"FALSE"	"Windows 10"	"61.24"	"015"	n/a	n/a	n/a	n/a	n/a	n/a	n/a	n/a	n/a	n/a	"3678"	"enter"	n/a	"NULL"	"NULL"	"NULL"	"<p><b>Part 1/6</b></p><p>In this part, two red lines will appear side by side.</p><p>Your task is to tell <b>which line is longer</b> in length, regardless of their orientation, as fast as you can, and without making errors.</p><p>Don't get distracted by the orientation of the lines!</p><p>Press <b>the LEFT or the RIGHT arrow</b> to indicate which <b>line is the longer one.</b></p><div style='float: center'><img src='materials/instructions/VerticalHorizontal_Demo.png' height='300'></img><p><img src='utils/answer/answer_leftright_keyboard.PNG' height='150'></img></p><p class='small'>In this example, the correct answer is the <b>LEFT arrow</b>.</p></div><p>Are you ready? <b>Press ENTER to start</b></p>"	n/a	n/a	n/a	n/a	n/a	n/a	n/a	n/a	n/a	n/a
n/a	"html-keyboard-response"	"53"	"408168"	"0.0-5.0-2.0-0.0"	"4ajc6z"	"600"	"1366"	"chrome"	"109.0.0"	"FALSE"	"Windows 10"	"61.24"	"015"	n/a	n/a	n/a	n/a	n/a	n/a	"fixation"	n/a	n/a	n/a	n/a	"NULL"	n/a	"NULL"	"NULL"	"NULL"	"<p style=\"color: black; font-size: 80px; padding-left: 25%; padding-right: 45%; padding-top: 7%; padding-bottom: 29%\">+</p>"	"1237"	n/a	n/a	n/a	n/a	n/a	n/a	n/a	n/a	n/a
n/a	"image-keyboard-response"	"54"	"408968"	"0.0-5.0-2.0-1.0"	"4ajc6z"	"600"	"1366"	"chrome"	"109.0.0"	"FALSE"	"Windows 10"	"61.24"	"015"	n/a	n/a	n/a	n/a	n/a	n/a	"Trial"	n/a	n/a	n/a	"798"	"arrowleft"	n/a	"NULL"	"NULL"	"NULL"	"stimuli/VerticalHorizontal_-20.27143_0.22500.png"	n/a	"VerticalHorizontal"	"arrowleft"	"1759"	"TRUE"	"VerticalHorizontal"	"-20.27143000"	"0.2250000000"	"1"	"19"
n/a	"html-keyboard-response"	"55"	"410039"	"0.0-5.0-2.0-0.1"	"4ajc6z"	"600"	"1366"	"chrome"	"109.0.0"	"FALSE"	"Windows 10"	"61.24"	"015"	n/a	n/a	n/a	n/a	n/a	n/a	"fixation"	n/a	n/a	n/a	n/a	"NULL"	n/a	"NULL"	"NULL"	"NULL"	"<p style=\"color: black; font-size: 80px; padding-left: 21%; padding-right: 23%; padding-top: 24%; padding-bottom: 14%\">+</p>"	"1053"	n/a	n/a	n/a	n/a	n/a	n/a	n/a	n/a	n/a
n/a	"image-keyboard-response"	"56"	"410668"	"0.0-5.0-2.0-1.1"	"4ajc6z"	"600"	"1366"	"chrome"	"109.0.0"	"FALSE"	"Windows 10"	"61.24"	"015"	n/a	n/a	n/a	n/a	n/a	n/a	"Trial"	n/a	n/a	n/a	"627"	"arrowright"	n/a	"NULL"	"NULL"	"NULL"	"stimuli/VerticalHorizontal_11.78571_-0.16217.png"	n/a	"VerticalHorizontal"	"arrowright"	"1071"	"TRUE"	"VerticalHorizontal"	"11.785710000"	"-0.162170000"	"1"	"20"
n/a	"html-keyboard-response"	"57"	"412050"	"0.0-5.0-2.0-0.2"	"4ajc6z"	"600"	"1366"	"chrome"	"109.0.0"	"FALSE"	"Windows 10"	"61.24"	"015"	n/a	n/a	n/a	n/a	n/a	n/a	"fixation"	n/a	n/a	n/a	n/a	"NULL"	n/a	"NULL"	"NULL"	"NULL"	"<p style=\"color: black; font-size: 80px; padding-left: 30%; padding-right: 25%; padding-top: 23%; padding-bottom: 25%\">+</p>"	"1373"	n/a	n/a	n/a	n/a	n/a	n/a	n/a	n/a	n/a
n/a	"image-keyboard-response"	"58"	"412517"	"0.0-5.0-2.0-1.2"	"4ajc6z"	"600"	"1366"	"chrome"	"109.0.0"	"FALSE"	"Windows 10"	"61.24"	"015"	n/a	n/a	n/a	n/a	n/a	n/a	"Trial"	n/a	n/a	n/a	"466"	"arrowright"	n/a	"NULL"	"NULL"	"NULL"	"stimuli/VerticalHorizontal_-3.3000_-0.1096.png"	n/a	"VerticalHorizontal"	"arrowright"	"1382"	"TRUE"	"VerticalHorizontal"	"-3.300000000"	"-0.109600000"	"1"	"21"
n/a	"html-keyboard-response"	"59"	"413857"	"0.0-5.0-2.0-0.3"	"4ajc6z"	"600"	"1366"	"chrome"	"109.0.0"	"FALSE"	"Windows 10"	"61.24"	"015"	n/a	n/a	n/a	n/a	n/a	n/a	"fixation"	n/a	n/a	n/a	n/a	"NULL"	n/a	"NULL"	"NULL"	"NULL"	"<p style=\"color: black; font-size: 80px; padding-left: 44%; padding-right: 17%; padding-top: 26%; padding-bottom: 38%\">+</p>"	"1331"	n/a	n/a	n/a	n/a	n/a	n/a	n/a	n/a	n/a
n/a	"image-keyboard-response"	"60"	"414285"	"0.0-5.0-2.0-1.3"	"4ajc6z"	"600"	"1366"	"chrome"	"109.0.0"	"FALSE"	"Windows 10"	"61.24"	"015"	n/a	n/a	n/a	n/a	n/a	n/a	"Trial"	n/a	n/a	n/a	"427"	"arrowright"	n/a	"NULL"	"NULL"	"NULL"	"stimuli/VerticalHorizontal_3.30000_-0.1096.png"	n/a	"VerticalHorizontal"	"arrowright"	"1340"	"TRUE"	"VerticalHorizontal"	"3.3000000000"	"-0.109600000"	"1"	"22"
n/a	"html-keyboard-response"	"61"	"415451"	"0.0-5.0-2.0-0.4"	"4ajc6z"	"600"	"1366"	"chrome"	"109.0.0"	"FALSE"	"Windows 10"	"61.24"	"015"	n/a	n/a	n/a	n/a	n/a	n/a	"fixation"	n/a	n/a	n/a	n/a	"NULL"	n/a	"NULL"	"NULL"	"NULL"	"<p style=\"color: black; font-size: 80px; padding-left: 14%; padding-right: 34%; padding-top: 26%; padding-bottom: 38%\">+</p>"	"1155"	n/a	n/a	n/a	n/a	n/a	n/a	n/a	n/a	n/a
n/a	"image-keyboard-response"	"62"	"416407"	"0.0-5.0-2.0-1.4"	"4ajc6z"	"600"	"1366"	"chrome"	"109.0.0"	"FALSE"	"Windows 10"	"61.24"	"015"	n/a	n/a	n/a	n/a	n/a	n/a	"Trial"	n/a	n/a	n/a	"955"	"arrowleft"	n/a	"NULL"	"NULL"	"NULL"	"stimuli/VerticalHorizontal_28.75714_-0.1096.png"	n/a	"VerticalHorizontal"	"arrowright"	"1166"	"FALSE"	"VerticalHorizontal"	"28.757140000"	"-0.109600000"	"1"	"23"
n/a	"html-keyboard-response"	"63"	"417919"	"0.0-5.0-2.0-0.5"	"4ajc6z"	"600"	"1366"	"chrome"	"109.0.0"	"FALSE"	"Windows 10"	"61.24"	"015"	n/a	n/a	n/a	n/a	n/a	n/a	"fixation"	n/a	n/a	n/a	n/a	"NULL"	n/a	"NULL"	"NULL"	"NULL"	"<p style=\"color: black; font-size: 80px; padding-left: 26%; padding-right: 27%; padding-top: 49%; padding-bottom: 2%\">+</p>"	"1491"	n/a	n/a	n/a	n/a	n/a	n/a	n/a	n/a	n/a
n/a	"image-keyboard-response"	"64"	"418459"	"0.0-5.0-2.0-1.5"	"4ajc6z"	"600"	"1366"	"chrome"	"109.0.0"	"FALSE"	"Windows 10"	"61.24"	"015"	n/a	n/a	n/a	n/a	n/a	n/a	"Trial"	n/a	n/a	n/a	"539"	"arrowright"	n/a	"NULL"	"NULL"	"NULL"	"stimuli/VerticalHorizontal_28.75714_0.16217.png"	n/a	"VerticalHorizontal"	"arrowleft"	"1512"	"FALSE"	"VerticalHorizontal"	"28.757140000"	"0.1621700000"	"1"	"24"
n/a	"html-keyboard-response"	"65"	"419779"	"0.0-5.0-2.0-0.6"	"4ajc6z"	"600"	"1366"	"chrome"	"109.0.0"	"FALSE"	"Windows 10"	"61.24"	"015"	n/a	n/a	n/a	n/a	n/a	n/a	"fixation"	n/a	n/a	n/a	n/a	"NULL"	n/a	"NULL"	"NULL"	"NULL"	"<p style=\"color: black; font-size: 80px; padding-left: 11%; padding-right: 36%; padding-top: 8%; padding-bottom: 42%\">+</p>"	"1317"	n/a	n/a	n/a	n/a	n/a	n/a	n/a	n/a	n/a
n/a	"image-keyboard-response"	"66"	"420298"	"0.0-5.0-2.0-1.6"	"4ajc6z"	"600"	"1366"	"chrome"	"109.0.0"	"FALSE"	"Windows 10"	"61.24"	"015"	n/a	n/a	n/a	n/a	n/a	n/a	"Trial"	n/a	n/a	n/a	"518"	"arrowleft"	n/a	"NULL"	"NULL"	"NULL"	"stimuli/VerticalHorizontal_3.30000_0.22500.png"	n/a	"VerticalHorizontal"	"arrowleft"	"1320"	"TRUE"	"VerticalHorizontal"	"3.3000000000"	"0.2250000000"	"1"	"25"
n/a	"html-keyboard-response"	"67"	"421484"	"0.0-5.0-2.0-0.7"	"4ajc6z"	"600"	"1366"	"chrome"	"109.0.0"	"FALSE"	"Windows 10"	"61.24"	"015"	n/a	n/a	n/a	n/a	n/a	n/a	"fixation"	n/a	n/a	n/a	n/a	"NULL"	n/a	"NULL"	"NULL"	"NULL"	"<p style=\"color: black; font-size: 80px; padding-left: 30%; padding-right: 25%; padding-top: 31%; padding-bottom: 35%\">+</p>"	"1172"	n/a	n/a	n/a	n/a	n/a	n/a	n/a	n/a	n/a
n/a	"image-keyboard-response"	"68"	"422200"	"0.0-5.0-2.0-1.7"	"4ajc6z"	"600"	"1366"	"chrome"	"109.0.0"	"FALSE"	"Windows 10"	"61.24"	"015"	n/a	n/a	n/a	n/a	n/a	n/a	"Trial"	n/a	n/a	n/a	"715"	"arrowleft"	n/a	"NULL"	"NULL"	"NULL"	"stimuli/VerticalHorizontal_11.78571_0.22500.png"	n/a	"VerticalHorizontal"	"arrowleft"	"1186"	"TRUE"	"VerticalHorizontal"	"11.785710000"	"0.2250000000"	"1"	"26"
n/a	"html-keyboard-response"	"69"	"423388"	"0.0-5.0-2.0-0.8"	"4ajc6z"	"600"	"1366"	"chrome"	"109.0.0"	"FALSE"	"Windows 10"	"61.24"	"015"	n/a	n/a	n/a	n/a	n/a	n/a	"fixation"	n/a	n/a	n/a	n/a	"NULL"	n/a	"NULL"	"NULL"	"NULL"	"<p style=\"color: black; font-size: 80px; padding-left: 12%; padding-right: 6%; padding-top: 33%; padding-bottom: 6%\">+</p>"	"1182"	n/a	n/a	n/a	n/a	n/a	n/a	n/a	n/a	n/a
n/a	"image-keyboard-response"	"70"	"423957"	"0.0-5.0-2.0-1.8"	"4ajc6z"	"600"	"1366"	"chrome"	"109.0.0"	"FALSE"	"Windows 10"	"61.24"	"015"	n/a	n/a	n/a	n/a	n/a	n/a	"Trial"	n/a	n/a	n/a	"568"	"arrowleft"	n/a	"NULL"	"NULL"	"NULL"	"stimuli/VerticalHorizontal_-11.78571_0.10960.png"	n/a	"VerticalHorizontal"	"arrowleft"	"1188"	"TRUE"	"VerticalHorizontal"	"-11.78571000"	"0.1096000000"	"1"	"27"
n/a	"html-keyboard-response"	"71"	"425045"	"0.0-5.0-2.0-0.9"	"4ajc6z"	"600"	"1366"	"chrome"	"109.0.0"	"FALSE"	"Windows 10"	"61.24"	"015"	n/a	n/a	n/a	n/a	n/a	n/a	"fixation"	n/a	n/a	n/a	n/a	"NULL"	n/a	"NULL"	"NULL"	"NULL"	"<p style=\"color: black; font-size: 80px; padding-left: 12%; padding-right: 40%; padding-top: 5%; padding-bottom: 8%\">+</p>"	"1084"	n/a	n/a	n/a	n/a	n/a	n/a	n/a	n/a	n/a
n/a	"image-keyboard-response"	"72"	"425532"	"0.0-5.0-2.0-1.9"	"4ajc6z"	"600"	"1366"	"chrome"	"109.0.0"	"FALSE"	"Windows 10"	"61.24"	"015"	n/a	n/a	n/a	n/a	n/a	n/a	"Trial"	n/a	n/a	n/a	"486"	"arrowright"	n/a	"NULL"	"NULL"	"NULL"	"stimuli/VerticalHorizontal_-11.78571_-0.1096.png"	n/a	"VerticalHorizontal"	"arrowright"	"1088"	"TRUE"	"VerticalHorizontal"	"-11.78571000"	"-0.109600000"	"1"	"28"
n/a	"html-keyboard-response"	"73"	"426593"	"0.0-5.0-2.0-0.10"	"4ajc6z"	"600"	"1366"	"chrome"	"109.0.0"	"FALSE"	"Windows 10"	"61.24"	"015"	n/a	n/a	n/a	n/a	n/a	n/a	"fixation"	n/a	n/a	n/a	n/a	"NULL"	n/a	"NULL"	"NULL"	"NULL"	"<p style=\"color: black; font-size: 80px; padding-left: 24%; padding-right: 23%; padding-top: 14%; padding-bottom: 40%\">+</p>"	"1051"	n/a	n/a	n/a	n/a	n/a	n/a	n/a	n/a	n/a
n/a	"image-keyboard-response"	"74"	"427047"	"0.0-5.0-2.0-1.10"	"4ajc6z"	"600"	"1366"	"chrome"	"109.0.0"	"FALSE"	"Windows 10"	"61.24"	"015"	n/a	n/a	n/a	n/a	n/a	n/a	"Trial"	n/a	n/a	n/a	"452"	"arrowleft"	n/a	"NULL"	"NULL"	"NULL"	"stimuli/VerticalHorizontal_-28.75714_0.06730.png"	n/a	"VerticalHorizontal"	"arrowleft"	"1061"	"TRUE"	"VerticalHorizontal"	"-28.75714000"	"0.0673000000"	"1"	"29"
n/a	"html-keyboard-response"	"75"	"428515"	"0.0-5.0-2.0-0.11"	"4ajc6z"	"600"	"1366"	"chrome"	"109.0.0"	"FALSE"	"Windows 10"	"61.24"	"015"	n/a	n/a	n/a	n/a	n/a	n/a	"fixation"	n/a	n/a	n/a	n/a	"NULL"	n/a	"NULL"	"NULL"	"NULL"	"<p style=\"color: black; font-size: 80px; padding-left: 44%; padding-right: 10%; padding-top: 17%; padding-bottom: 6%\">+</p>"	"1442"	n/a	n/a	n/a	n/a	n/a	n/a	n/a	n/a	n/a
n/a	"image-keyboard-response"	"76"	"428979"	"0.0-5.0-2.0-1.11"	"4ajc6z"	"600"	"1366"	"chrome"	"109.0.0"	"FALSE"	"Windows 10"	"61.24"	"015"	n/a	n/a	n/a	n/a	n/a	n/a	"Trial"	n/a	n/a	n/a	"462"	"arrowright"	n/a	"NULL"	"NULL"	"NULL"	"stimuli/VerticalHorizontal_-28.75714_-0.0673.png"	n/a	"VerticalHorizontal"	"arrowright"	"1468"	"TRUE"	"VerticalHorizontal"	"-28.75714000"	"-0.067300000"	"1"	"30"
n/a	"html-keyboard-response"	"77"	"430015"	"0.0-5.0-2.0-0.12"	"4ajc6z"	"600"	"1366"	"chrome"	"109.0.0"	"FALSE"	"Windows 10"	"61.24"	"015"	n/a	n/a	n/a	n/a	n/a	n/a	"fixation"	n/a	n/a	n/a	n/a	"NULL"	n/a	"NULL"	"NULL"	"NULL"	"<p style=\"color: black; font-size: 80px; padding-left: 47%; padding-right: 29%; padding-top: 41%; padding-bottom: 26%\">+</p>"	"1028"	n/a	n/a	n/a	n/a	n/a	n/a	n/a	n/a	n/a
n/a	"image-keyboard-response"	"78"	"430544"	"0.0-5.0-2.0-1.12"	"4ajc6z"	"600"	"1366"	"chrome"	"109.0.0"	"FALSE"	"Windows 10"	"61.24"	"015"	n/a	n/a	n/a	n/a	n/a	n/a	"Trial"	n/a	n/a	n/a	"529"	"arrowleft"	n/a	"NULL"	"NULL"	"NULL"	"stimuli/VerticalHorizontal_3.30000_0.06730.png"	n/a	"VerticalHorizontal"	"arrowleft"	"1036"	"TRUE"	"VerticalHorizontal"	"3.3000000000"	"0.0673000000"	"1"	"31"
n/a	"html-keyboard-response"	"79"	"431619"	"0.0-5.0-2.0-0.13"	"4ajc6z"	"600"	"1366"	"chrome"	"109.0.0"	"FALSE"	"Windows 10"	"61.24"	"015"	n/a	n/a	n/a	n/a	n/a	n/a	"fixation"	n/a	n/a	n/a	n/a	"NULL"	n/a	"NULL"	"NULL"	"NULL"	"<p style=\"color: black; font-size: 80px; padding-left: 11%; padding-right: 27%; padding-top: 30%; padding-bottom: 28%\">+</p>"	"1066"	n/a	n/a	n/a	n/a	n/a	n/a	n/a	n/a	n/a
n/a	"image-keyboard-response"	"80"	"432243"	"0.0-5.0-2.0-1.13"	"4ajc6z"	"600"	"1366"	"chrome"	"109.0.0"	"FALSE"	"Windows 10"	"61.24"	"015"	n/a	n/a	n/a	n/a	n/a	n/a	"Trial"	n/a	n/a	n/a	"623"	"arrowleft"	n/a	"NULL"	"NULL"	"NULL"	"stimuli/VerticalHorizontal_28.75714_0.22500.png"	n/a	"VerticalHorizontal"	"arrowleft"	"1075"	"TRUE"	"VerticalHorizontal"	"28.757140000"	"0.2250000000"	"1"	"32"
n/a	"html-keyboard-response"	"81"	"433433"	"0.0-5.0-2.0-0.14"	"4ajc6z"	"600"	"1366"	"chrome"	"109.0.0"	"FALSE"	"Windows 10"	"61.24"	"015"	n/a	n/a	n/a	n/a	n/a	n/a	"fixation"	n/a	n/a	n/a	n/a	"NULL"	n/a	"NULL"	"NULL"	"NULL"	"<p style=\"color: black; font-size: 80px; padding-left: 1%; padding-right: 41%; padding-top: 27%; padding-bottom: 18%\">+</p>"	"1175"	n/a	n/a	n/a	n/a	n/a	n/a	n/a	n/a	n/a
n/a	"image-keyboard-response"	"82"	"434363"	"0.0-5.0-2.0-1.14"	"4ajc6z"	"600"	"1366"	"chrome"	"109.0.0"	"FALSE"	"Windows 10"	"61.24"	"015"	n/a	n/a	n/a	n/a	n/a	n/a	"Trial"	n/a	n/a	n/a	"928"	"arrowleft"	n/a	"NULL"	"NULL"	"NULL"	"stimuli/VerticalHorizontal_11.78571_0.06730.png"	n/a	"VerticalHorizontal"	"arrowleft"	"1190"	"TRUE"	"VerticalHorizontal"	"11.785710000"	"0.0673000000"	"1"	"33"
n/a	"html-keyboard-response"	"83"	"435857"	"0.0-5.0-2.0-0.15"	"4ajc6z"	"600"	"1366"	"chrome"	"109.0.0"	"FALSE"	"Windows 10"	"61.24"	"015"	n/a	n/a	n/a	n/a	n/a	n/a	"fixation"	n/a	n/a	n/a	n/a	"NULL"	n/a	"NULL"	"NULL"	"NULL"	"<p style=\"color: black; font-size: 80px; padding-left: 48%; padding-right: 1%; padding-top: 4%; padding-bottom: 31%\">+</p>"	"1485"	n/a	n/a	n/a	n/a	n/a	n/a	n/a	n/a	n/a
n/a	"image-keyboard-response"	"84"	"436418"	"0.0-5.0-2.0-1.15"	"4ajc6z"	"600"	"1366"	"chrome"	"109.0.0"	"FALSE"	"Windows 10"	"61.24"	"015"	n/a	n/a	n/a	n/a	n/a	n/a	"Trial"	n/a	n/a	n/a	"560"	"arrowleft"	n/a	"NULL"	"NULL"	"NULL"	"stimuli/VerticalHorizontal_28.75714_-0.0673.png"	n/a	"VerticalHorizontal"	"arrowright"	"1494"	"FALSE"	"VerticalHorizontal"	"28.757140000"	"-0.067300000"	"1"	"34"
n/a	"html-keyboard-response"	"85"	"437753"	"0.0-5.0-2.0-0.16"	"4ajc6z"	"600"	"1366"	"chrome"	"109.0.0"	"FALSE"	"Windows 10"	"61.24"	"015"	n/a	n/a	n/a	n/a	n/a	n/a	"fixation"	n/a	n/a	n/a	n/a	"NULL"	n/a	"NULL"	"NULL"	"NULL"	"<p style=\"color: black; font-size: 80px; padding-left: 45%; padding-right: 18%; padding-top: 21%; padding-bottom: 45%\">+</p>"	"1326"	n/a	n/a	n/a	n/a	n/a	n/a	n/a	n/a	n/a
n/a	"image-keyboard-response"	"86"	"438197"	"0.0-5.0-2.0-1.16"	"4ajc6z"	"600"	"1366"	"chrome"	"109.0.0"	"FALSE"	"Windows 10"	"61.24"	"015"	n/a	n/a	n/a	n/a	n/a	n/a	"Trial"	n/a	n/a	n/a	"442"	"arrowleft"	n/a	"NULL"	"NULL"	"NULL"	"stimuli/VerticalHorizontal_-11.78571_0.22500.png"	n/a	"VerticalHorizontal"	"arrowleft"	"1335"	"TRUE"	"VerticalHorizontal"	"-11.78571000"	"0.2250000000"	"1"	"35"
n/a	"html-keyboard-response"	"87"	"439508"	"0.0-5.0-2.0-0.17"	"4ajc6z"	"600"	"1366"	"chrome"	"109.0.0"	"FALSE"	"Windows 10"	"61.24"	"015"	n/a	n/a	n/a	n/a	n/a	n/a	"fixation"	n/a	n/a	n/a	n/a	"NULL"	n/a	"NULL"	"NULL"	"NULL"	"<p style=\"color: black; font-size: 80px; padding-left: 8%; padding-right: 48%; padding-top: 45%; padding-bottom: 5%\">+</p>"	"1293"	n/a	n/a	n/a	n/a	n/a	n/a	n/a	n/a	n/a
n/a	"image-keyboard-response"	"88"	"440098"	"0.0-5.0-2.0-1.17"	"4ajc6z"	"600"	"1366"	"chrome"	"109.0.0"	"FALSE"	"Windows 10"	"61.24"	"015"	n/a	n/a	n/a	n/a	n/a	n/a	"Trial"	n/a	n/a	n/a	"589"	"arrowright"	n/a	"NULL"	"NULL"	"NULL"	"stimuli/VerticalHorizontal_20.27143_-0.2250.png"	n/a	"VerticalHorizontal"	"arrowright"	"1311"	"TRUE"	"VerticalHorizontal"	"20.271430000"	"-0.225000000"	"1"	"36"
n/a	"html-keyboard-response"	"89"	"441537"	"0.0-5.0-2.0-0.18"	"4ajc6z"	"600"	"1366"	"chrome"	"109.0.0"	"FALSE"	"Windows 10"	"61.24"	"015"	n/a	n/a	n/a	n/a	n/a	n/a	"fixation"	n/a	n/a	n/a	n/a	"NULL"	n/a	"NULL"	"NULL"	"NULL"	"<p style=\"color: black; font-size: 80px; padding-left: 10%; padding-right: 12%; padding-top: 43%; padding-bottom: 29%\">+</p>"	"1421"	n/a	n/a	n/a	n/a	n/a	n/a	n/a	n/a	n/a
n/a	"image-keyboard-response"	"90"	"442381"	"0.0-5.0-2.0-1.18"	"4ajc6z"	"600"	"1366"	"chrome"	"109.0.0"	"FALSE"	"Windows 10"	"61.24"	"015"	n/a	n/a	n/a	n/a	n/a	n/a	"Trial"	n/a	n/a	n/a	"842"	"arrowright"	n/a	"NULL"	"NULL"	"NULL"	"stimuli/VerticalHorizontal_28.75714_0.10960.png"	n/a	"VerticalHorizontal"	"arrowleft"	"1439"	"FALSE"	"VerticalHorizontal"	"28.757140000"	"0.1096000000"	"1"	"37"
n/a	"html-keyboard-response"	"91"	"443741"	"0.0-5.0-2.0-0.19"	"4ajc6z"	"600"	"1366"	"chrome"	"109.0.0"	"FALSE"	"Windows 10"	"61.24"	"015"	n/a	n/a	n/a	n/a	n/a	n/a	"fixation"	n/a	n/a	n/a	n/a	"NULL"	n/a	"NULL"	"NULL"	"NULL"	"<p style=\"color: black; font-size: 80px; padding-left: 17%; padding-right: 37%; padding-top: 1%; padding-bottom: 14%\">+</p>"	"1343"	n/a	n/a	n/a	n/a	n/a	n/a	n/a	n/a	n/a
n/a	"image-keyboard-response"	"92"	"444375"	"0.0-5.0-2.0-1.19"	"4ajc6z"	"600"	"1366"	"chrome"	"109.0.0"	"FALSE"	"Windows 10"	"61.24"	"015"	n/a	n/a	n/a	n/a	n/a	n/a	"Trial"	n/a	n/a	n/a	"633"	"arrowright"	n/a	"NULL"	"NULL"	"NULL"	"stimuli/VerticalHorizontal_-20.27143_-0.16217.png"	n/a	"VerticalHorizontal"	"arrowright"	"1360"	"TRUE"	"VerticalHorizontal"	"-20.27143000"	"-0.162170000"	"1"	"38"
n/a	"html-keyboard-response"	"93"	"445461"	"0.0-5.0-2.0-0.20"	"4ajc6z"	"600"	"1366"	"chrome"	"109.0.0"	"FALSE"	"Windows 10"	"61.24"	"015"	n/a	n/a	n/a	n/a	n/a	n/a	"fixation"	n/a	n/a	n/a	n/a	"NULL"	n/a	"NULL"	"NULL"	"NULL"	"<p style=\"color: black; font-size: 80px; padding-left: 31%; padding-right: 17%; padding-top: 23%; padding-bottom: 16%\">+</p>"	"1068"	n/a	n/a	n/a	n/a	n/a	n/a	n/a	n/a	n/a
n/a	"image-keyboard-response"	"94"	"446114"	"0.0-5.0-2.0-1.20"	"4ajc6z"	"600"	"1366"	"chrome"	"109.0.0"	"FALSE"	"Windows 10"	"61.24"	"015"	n/a	n/a	n/a	n/a	n/a	n/a	"Trial"	n/a	n/a	n/a	"652"	"arrowleft"	n/a	"NULL"	"NULL"	"NULL"	"stimuli/VerticalHorizontal_20.27143_0.06730.png"	n/a	"VerticalHorizontal"	"arrowleft"	"1086"	"TRUE"	"VerticalHorizontal"	"20.271430000"	"0.0673000000"	"1"	"39"
n/a	"html-keyboard-response"	"95"	"447600"	"0.0-5.0-2.0-0.21"	"4ajc6z"	"600"	"1366"	"chrome"	"109.0.0"	"FALSE"	"Windows 10"	"61.24"	"015"	n/a	n/a	n/a	n/a	n/a	n/a	"fixation"	n/a	n/a	n/a	n/a	"NULL"	n/a	"NULL"	"NULL"	"NULL"	"<p style=\"color: black; font-size: 80px; padding-left: 34%; padding-right: 13%; padding-top: 5%; padding-bottom: 18%\">+</p>"	"1477"	n/a	n/a	n/a	n/a	n/a	n/a	n/a	n/a	n/a
n/a	"image-keyboard-response"	"96"	"448115"	"0.0-5.0-2.0-1.21"	"4ajc6z"	"600"	"1366"	"chrome"	"109.0.0"	"FALSE"	"Windows 10"	"61.24"	"015"	n/a	n/a	n/a	n/a	n/a	n/a	"Trial"	n/a	n/a	n/a	"515"	"arrowleft"	n/a	"NULL"	"NULL"	"NULL"	"stimuli/VerticalHorizontal_-28.75714_0.16217.png"	n/a	"VerticalHorizontal"	"arrowleft"	"1486"	"TRUE"	"VerticalHorizontal"	"-28.75714000"	"0.1621700000"	"1"	"40"
n/a	"html-keyboard-response"	"97"	"449297"	"0.0-5.0-2.0-0.22"	"4ajc6z"	"600"	"1366"	"chrome"	"109.0.0"	"FALSE"	"Windows 10"	"61.24"	"015"	n/a	n/a	n/a	n/a	n/a	n/a	"fixation"	n/a	n/a	n/a	n/a	"NULL"	n/a	"NULL"	"NULL"	"NULL"	"<p style=\"color: black; font-size: 80px; padding-left: 14%; padding-right: 2%; padding-top: 3%; padding-bottom: 19%\">+</p>"	"1160"	n/a	n/a	n/a	n/a	n/a	n/a	n/a	n/a	n/a
n/a	"image-keyboard-response"	"98"	"449882"	"0.0-5.0-2.0-1.22"	"4ajc6z"	"600"	"1366"	"chrome"	"109.0.0"	"FALSE"	"Windows 10"	"61.24"	"015"	n/a	n/a	n/a	n/a	n/a	n/a	"Trial"	n/a	n/a	n/a	"582"	"arrowright"	n/a	"NULL"	"NULL"	"NULL"	"stimuli/VerticalHorizontal_3.30000_-0.2250.png"	n/a	"VerticalHorizontal"	"arrowright"	"1182"	"TRUE"	"VerticalHorizontal"	"3.3000000000"	"-0.225000000"	"1"	"41"
n/a	"html-keyboard-response"	"99"	"451341"	"0.0-5.0-2.0-0.23"	"4ajc6z"	"600"	"1366"	"chrome"	"109.0.0"	"FALSE"	"Windows 10"	"61.24"	"015"	n/a	n/a	n/a	n/a	n/a	n/a	"fixation"	n/a	n/a	n/a	n/a	"NULL"	n/a	"NULL"	"NULL"	"NULL"	"<p style=\"color: black; font-size: 80px; padding-left: 37%; padding-right: 1%; padding-top: 45%; padding-bottom: 32%\">+</p>"	"1453"	n/a	n/a	n/a	n/a	n/a	n/a	n/a	n/a	n/a
n/a	"image-keyboard-response"	"100"	"451907"	"0.0-5.0-2.0-1.23"	"4ajc6z"	"600"	"1366"	"chrome"	"109.0.0"	"FALSE"	"Windows 10"	"61.24"	"015"	n/a	n/a	n/a	n/a	n/a	n/a	"Trial"	n/a	n/a	n/a	"561"	"arrowright"	n/a	"NULL"	"NULL"	"NULL"	"stimuli/VerticalHorizontal_-3.3000_-0.2250.png"	n/a	"VerticalHorizontal"	"arrowright"	"1459"	"TRUE"	"VerticalHorizontal"	"-3.300000000"	"-0.225000000"	"1"	"42"
n/a	"html-keyboard-response"	"101"	"453213"	"0.0-5.0-2.0-0.24"	"4ajc6z"	"600"	"1366"	"chrome"	"109.0.0"	"FALSE"	"Windows 10"	"61.24"	"015"	n/a	n/a	n/a	n/a	n/a	n/a	"fixation"	n/a	n/a	n/a	n/a	"NULL"	n/a	"NULL"	"NULL"	"NULL"	"<p style=\"color: black; font-size: 80px; padding-left: 8%; padding-right: 2%; padding-top: 16%; padding-bottom: 27%\">+</p>"	"1298"	n/a	n/a	n/a	n/a	n/a	n/a	n/a	n/a	n/a
n/a	"image-keyboard-response"	"102"	"454228"	"0.0-5.0-2.0-1.24"	"4ajc6z"	"600"	"1366"	"chrome"	"109.0.0"	"FALSE"	"Windows 10"	"61.24"	"015"	n/a	n/a	n/a	n/a	n/a	n/a	"Trial"	n/a	n/a	n/a	"1014"	"arrowleft"	n/a	"NULL"	"NULL"	"NULL"	"stimuli/VerticalHorizontal_11.78571_-0.1096.png"	n/a	"VerticalHorizontal"	"arrowright"	"1306"	"FALSE"	"VerticalHorizontal"	"11.785710000"	"-0.109600000"	"1"	"43"
n/a	"html-keyboard-response"	"103"	"455699"	"0.0-5.0-2.0-0.25"	"4ajc6z"	"600"	"1366"	"chrome"	"109.0.0"	"FALSE"	"Windows 10"	"61.24"	"015"	n/a	n/a	n/a	n/a	n/a	n/a	"fixation"	n/a	n/a	n/a	n/a	"NULL"	n/a	"NULL"	"NULL"	"NULL"	"<p style=\"color: black; font-size: 80px; padding-left: 23%; padding-right: 28%; padding-top: 5%; padding-bottom: 36%\">+</p>"	"1462"	n/a	n/a	n/a	n/a	n/a	n/a	n/a	n/a	n/a
n/a	"image-keyboard-response"	"104"	"456586"	"0.0-5.0-2.0-1.25"	"4ajc6z"	"600"	"1366"	"chrome"	"109.0.0"	"FALSE"	"Windows 10"	"61.24"	"015"	n/a	n/a	n/a	n/a	n/a	n/a	"Trial"	n/a	n/a	n/a	"886"	"arrowleft"	n/a	"NULL"	"NULL"	"NULL"	"stimuli/VerticalHorizontal_11.78571_0.10960.png"	n/a	"VerticalHorizontal"	"arrowleft"	"1471"	"TRUE"	"VerticalHorizontal"	"11.785710000"	"0.1096000000"	"1"	"44"
n/a	"html-keyboard-response"	"105"	"457744"	"0.0-5.0-2.0-0.26"	"4ajc6z"	"600"	"1366"	"chrome"	"109.0.0"	"FALSE"	"Windows 10"	"61.24"	"015"	n/a	n/a	n/a	n/a	n/a	n/a	"fixation"	n/a	n/a	n/a	n/a	"NULL"	n/a	"NULL"	"NULL"	"NULL"	"<p style=\"color: black; font-size: 80px; padding-left: 3%; padding-right: 15%; padding-top: 26%; padding-bottom: 14%\">+</p>"	"1139"	n/a	n/a	n/a	n/a	n/a	n/a	n/a	n/a	n/a
n/a	"image-keyboard-response"	"106"	"458276"	"0.0-5.0-2.0-1.26"	"4ajc6z"	"600"	"1366"	"chrome"	"109.0.0"	"FALSE"	"Windows 10"	"61.24"	"015"	n/a	n/a	n/a	n/a	n/a	n/a	"Trial"	n/a	n/a	n/a	"531"	"arrowleft"	n/a	"NULL"	"NULL"	"NULL"	"stimuli/VerticalHorizontal_-20.27143_0.16217.png"	n/a	"VerticalHorizontal"	"arrowleft"	"1158"	"TRUE"	"VerticalHorizontal"	"-20.27143000"	"0.1621700000"	"1"	"45"
n/a	"html-keyboard-response"	"107"	"459616"	"0.0-5.0-2.0-0.27"	"4ajc6z"	"600"	"1366"	"chrome"	"109.0.0"	"FALSE"	"Windows 10"	"61.24"	"015"	n/a	n/a	n/a	n/a	n/a	n/a	"fixation"	n/a	n/a	n/a	n/a	"NULL"	n/a	"NULL"	"NULL"	"NULL"	"<p style=\"color: black; font-size: 80px; padding-left: 34%; padding-right: 22%; padding-top: 8%; padding-bottom: 0%\">+</p>"	"1324"	n/a	n/a	n/a	n/a	n/a	n/a	n/a	n/a	n/a
n/a	"image-keyboard-response"	"108"	"460125"	"0.0-5.0-2.0-1.27"	"4ajc6z"	"600"	"1366"	"chrome"	"109.0.0"	"FALSE"	"Windows 10"	"61.24"	"015"	n/a	n/a	n/a	n/a	n/a	n/a	"Trial"	n/a	n/a	n/a	"508"	"arrowright"	n/a	"NULL"	"NULL"	"NULL"	"stimuli/VerticalHorizontal_-11.78571_-0.2250.png"	n/a	"VerticalHorizontal"	"arrowright"	"1340"	"TRUE"	"VerticalHorizontal"	"-11.78571000"	"-0.225000000"	"1"	"46"
n/a	"html-keyboard-response"	"109"	"461483"	"0.0-5.0-2.0-0.28"	"4ajc6z"	"600"	"1366"	"chrome"	"109.0.0"	"FALSE"	"Windows 10"	"61.24"	"015"	n/a	n/a	n/a	n/a	n/a	n/a	"fixation"	n/a	n/a	n/a	n/a	"NULL"	n/a	"NULL"	"NULL"	"NULL"	"<p style=\"color: black; font-size: 80px; padding-left: 42%; padding-right: 3%; padding-top: 7%; padding-bottom: 33%\">+</p>"	"1355"	n/a	n/a	n/a	n/a	n/a	n/a	n/a	n/a	n/a
n/a	"image-keyboard-response"	"110"	"462224"	"0.0-5.0-2.0-1.28"	"4ajc6z"	"600"	"1366"	"chrome"	"109.0.0"	"FALSE"	"Windows 10"	"61.24"	"015"	n/a	n/a	n/a	n/a	n/a	n/a	"Trial"	n/a	n/a	n/a	"740"	"arrowright"	n/a	"NULL"	"NULL"	"NULL"	"stimuli/VerticalHorizontal_3.30000_-0.0673.png"	n/a	"VerticalHorizontal"	"arrowright"	"1358"	"TRUE"	"VerticalHorizontal"	"3.3000000000"	"-0.067300000"	"1"	"47"
n/a	"html-keyboard-response"	"111"	"463693"	"0.0-5.0-2.0-0.29"	"4ajc6z"	"600"	"1366"	"chrome"	"109.0.0"	"FALSE"	"Windows 10"	"61.24"	"015"	n/a	n/a	n/a	n/a	n/a	n/a	"fixation"	n/a	n/a	n/a	n/a	"NULL"	n/a	"NULL"	"NULL"	"NULL"	"<p style=\"color: black; font-size: 80px; padding-left: 47%; padding-right: 34%; padding-top: 6%; padding-bottom: 7%\">+</p>"	"1452"	n/a	n/a	n/a	n/a	n/a	n/a	n/a	n/a	n/a
n/a	"image-keyboard-response"	"112"	"464530"	"0.0-5.0-2.0-1.29"	"4ajc6z"	"600"	"1366"	"chrome"	"109.0.0"	"FALSE"	"Windows 10"	"61.24"	"015"	n/a	n/a	n/a	n/a	n/a	n/a	"Trial"	n/a	n/a	n/a	"836"	"arrowleft"	n/a	"NULL"	"NULL"	"NULL"	"stimuli/VerticalHorizontal_20.27143_0.16217.png"	n/a	"VerticalHorizontal"	"arrowleft"	"1469"	"TRUE"	"VerticalHorizontal"	"20.271430000"	"0.1621700000"	"1"	"48"
n/a	"html-keyboard-response"	"113"	"465886"	"0.0-5.0-2.0-0.30"	"4ajc6z"	"600"	"1366"	"chrome"	"109.0.0"	"FALSE"	"Windows 10"	"61.24"	"015"	n/a	n/a	n/a	n/a	n/a	n/a	"fixation"	n/a	n/a	n/a	n/a	"NULL"	n/a	"NULL"	"NULL"	"NULL"	"<p style=\"color: black; font-size: 80px; padding-left: 2%; padding-right: 16%; padding-top: 13%; padding-bottom: 9%\">+</p>"	"1340"	n/a	n/a	n/a	n/a	n/a	n/a	n/a	n/a	n/a
n/a	"image-keyboard-response"	"114"	"466658"	"0.0-5.0-2.0-1.30"	"4ajc6z"	"600"	"1366"	"chrome"	"109.0.0"	"FALSE"	"Windows 10"	"61.24"	"015"	n/a	n/a	n/a	n/a	n/a	n/a	"Trial"	n/a	n/a	n/a	"769"	"arrowleft"	n/a	"NULL"	"NULL"	"NULL"	"stimuli/VerticalHorizontal_20.27143_0.22500.png"	n/a	"VerticalHorizontal"	"arrowleft"	"1356"	"TRUE"	"VerticalHorizontal"	"20.271430000"	"0.2250000000"	"1"	"49"
n/a	"html-keyboard-response"	"115"	"467764"	"0.0-5.0-2.0-0.31"	"4ajc6z"	"600"	"1366"	"chrome"	"109.0.0"	"FALSE"	"Windows 10"	"61.24"	"015"	n/a	n/a	n/a	n/a	n/a	n/a	"fixation"	n/a	n/a	n/a	n/a	"NULL"	n/a	"NULL"	"NULL"	"NULL"	"<p style=\"color: black; font-size: 80px; padding-left: 24%; padding-right: 29%; padding-top: 23%; padding-bottom: 38%\">+</p>"	"1094"	n/a	n/a	n/a	n/a	n/a	n/a	n/a	n/a	n/a
n/a	"image-keyboard-response"	"116"	"468520"	"0.0-5.0-2.0-1.31"	"4ajc6z"	"600"	"1366"	"chrome"	"109.0.0"	"FALSE"	"Windows 10"	"61.24"	"015"	n/a	n/a	n/a	n/a	n/a	n/a	"Trial"	n/a	n/a	n/a	"754"	"arrowleft"	n/a	"NULL"	"NULL"	"NULL"	"stimuli/VerticalHorizontal_-3.3000_0.06730.png"	n/a	"VerticalHorizontal"	"arrowleft"	"1106"	"TRUE"	"VerticalHorizontal"	"-3.300000000"	"0.0673000000"	"1"	"50"
n/a	"html-keyboard-response"	"117"	"469736"	"0.0-5.0-2.0-0.32"	"4ajc6z"	"600"	"1366"	"chrome"	"109.0.0"	"FALSE"	"Windows 10"	"61.24"	"015"	n/a	n/a	n/a	n/a	n/a	n/a	"fixation"	n/a	n/a	n/a	n/a	"NULL"	n/a	"NULL"	"NULL"	"NULL"	"<p style=\"color: black; font-size: 80px; padding-left: 27%; padding-right: 38%; padding-top: 34%; padding-bottom: 25%\">+</p>"	"1200"	n/a	n/a	n/a	n/a	n/a	n/a	n/a	n/a	n/a
n/a	"image-keyboard-response"	"118"	"470225"	"0.0-5.0-2.0-1.32"	"4ajc6z"	"600"	"1366"	"chrome"	"109.0.0"	"FALSE"	"Windows 10"	"61.24"	"015"	n/a	n/a	n/a	n/a	n/a	n/a	"Trial"	n/a	n/a	n/a	"489"	"arrowright"	n/a	"NULL"	"NULL"	"NULL"	"stimuli/VerticalHorizontal_-20.27143_-0.2250.png"	n/a	"VerticalHorizontal"	"arrowright"	"1216"	"TRUE"	"VerticalHorizontal"	"-20.27143000"	"-0.225000000"	"1"	"51"
n/a	"html-keyboard-response"	"119"	"471719"	"0.0-5.0-2.0-0.33"	"4ajc6z"	"600"	"1366"	"chrome"	"109.0.0"	"FALSE"	"Windows 10"	"61.24"	"015"	n/a	n/a	n/a	n/a	n/a	n/a	"fixation"	n/a	n/a	n/a	n/a	"NULL"	n/a	"NULL"	"NULL"	"NULL"	"<p style=\"color: black; font-size: 80px; padding-left: 23%; padding-right: 36%; padding-top: 31%; padding-bottom: 20%\">+</p>"	"1486"	n/a	n/a	n/a	n/a	n/a	n/a	n/a	n/a	n/a
n/a	"image-keyboard-response"	"120"	"472364"	"0.0-5.0-2.0-1.33"	"4ajc6z"	"600"	"1366"	"chrome"	"109.0.0"	"FALSE"	"Windows 10"	"61.24"	"015"	n/a	n/a	n/a	n/a	n/a	n/a	"Trial"	n/a	n/a	n/a	"644"	"arrowright"	n/a	"NULL"	"NULL"	"NULL"	"stimuli/VerticalHorizontal_28.75714_-0.16217.png"	n/a	"VerticalHorizontal"	"arrowright"	"1494"	"TRUE"	"VerticalHorizontal"	"28.757140000"	"-0.162170000"	"1"	"52"
n/a	"html-keyboard-response"	"121"	"473501"	"0.0-5.0-2.0-0.34"	"4ajc6z"	"600"	"1366"	"chrome"	"109.0.0"	"FALSE"	"Windows 10"	"61.24"	"015"	n/a	n/a	n/a	n/a	n/a	n/a	"fixation"	n/a	n/a	n/a	n/a	"NULL"	n/a	"NULL"	"NULL"	"NULL"	"<p style=\"color: black; font-size: 80px; padding-left: 47%; padding-right: 33%; padding-top: 43%; padding-bottom: 46%\">+</p>"	"1130"	n/a	n/a	n/a	n/a	n/a	n/a	n/a	n/a	n/a
n/a	"image-keyboard-response"	"122"	"474161"	"0.0-5.0-2.0-1.34"	"4ajc6z"	"600"	"1366"	"chrome"	"109.0.0"	"FALSE"	"Windows 10"	"61.24"	"015"	n/a	n/a	n/a	n/a	n/a	n/a	"Trial"	n/a	n/a	n/a	"659"	"arrowleft"	n/a	"NULL"	"NULL"	"NULL"	"stimuli/VerticalHorizontal_-3.3000_-0.0673.png"	n/a	"VerticalHorizontal"	"arrowright"	"1137"	"FALSE"	"VerticalHorizontal"	"-3.300000000"	"-0.067300000"	"1"	"53"
n/a	"html-keyboard-response"	"123"	"475483"	"0.0-5.0-2.0-0.35"	"4ajc6z"	"600"	"1366"	"chrome"	"109.0.0"	"FALSE"	"Windows 10"	"61.24"	"015"	n/a	n/a	n/a	n/a	n/a	n/a	"fixation"	n/a	n/a	n/a	n/a	"NULL"	n/a	"NULL"	"NULL"	"NULL"	"<p style=\"color: black; font-size: 80px; padding-left: 6%; padding-right: 48%; padding-top: 1%; padding-bottom: 15%\">+</p>"	"1309"	n/a	n/a	n/a	n/a	n/a	n/a	n/a	n/a	n/a
n/a	"image-keyboard-response"	"124"	"475973"	"0.0-5.0-2.0-1.35"	"4ajc6z"	"600"	"1366"	"chrome"	"109.0.0"	"FALSE"	"Windows 10"	"61.24"	"015"	n/a	n/a	n/a	n/a	n/a	n/a	"Trial"	n/a	n/a	n/a	"490"	"arrowleft"	n/a	"NULL"	"NULL"	"NULL"	"stimuli/VerticalHorizontal_-28.75714_0.22500.png"	n/a	"VerticalHorizontal"	"arrowleft"	"1322"	"TRUE"	"VerticalHorizontal"	"-28.75714000"	"0.2250000000"	"1"	"54"
n/a	"html-keyboard-response"	"125"	"477264"	"0.0-5.0-2.0-0.36"	"4ajc6z"	"600"	"1366"	"chrome"	"109.0.0"	"FALSE"	"Windows 10"	"61.24"	"015"	n/a	n/a	n/a	n/a	n/a	n/a	"fixation"	n/a	n/a	n/a	n/a	"NULL"	n/a	"NULL"	"NULL"	"NULL"	"<p style=\"color: black; font-size: 80px; padding-left: 44%; padding-right: 12%; padding-top: 10%; padding-bottom: 46%\">+</p>"	"1282"	n/a	n/a	n/a	n/a	n/a	n/a	n/a	n/a	n/a
n/a	"image-keyboard-response"	"126"	"477718"	"0.0-5.0-2.0-1.36"	"4ajc6z"	"600"	"1366"	"chrome"	"109.0.0"	"FALSE"	"Windows 10"	"61.24"	"015"	n/a	n/a	n/a	n/a	n/a	n/a	"Trial"	n/a	n/a	n/a	"452"	"arrowleft"	n/a	"NULL"	"NULL"	"NULL"	"stimuli/VerticalHorizontal_-28.75714_0.10960.png"	n/a	"VerticalHorizontal"	"arrowleft"	"1291"	"TRUE"	"VerticalHorizontal"	"-28.75714000"	"0.1096000000"	"1"	"55"
n/a	"html-keyboard-response"	"127"	"479047"	"0.0-5.0-2.0-0.37"	"4ajc6z"	"600"	"1366"	"chrome"	"109.0.0"	"FALSE"	"Windows 10"	"61.24"	"015"	n/a	n/a	n/a	n/a	n/a	n/a	"fixation"	n/a	n/a	n/a	n/a	"NULL"	n/a	"NULL"	"NULL"	"NULL"	"<p style=\"color: black; font-size: 80px; padding-left: 38%; padding-right: 23%; padding-top: 6%; padding-bottom: 42%\">+</p>"	"1316"	n/a	n/a	n/a	n/a	n/a	n/a	n/a	n/a	n/a
n/a	"image-keyboard-response"	"128"	"479471"	"0.0-5.0-2.0-1.37"	"4ajc6z"	"600"	"1366"	"chrome"	"109.0.0"	"FALSE"	"Windows 10"	"61.24"	"015"	n/a	n/a	n/a	n/a	n/a	n/a	"Trial"	n/a	n/a	n/a	"423"	"arrowright"	n/a	"NULL"	"NULL"	"NULL"	"stimuli/VerticalHorizontal_-28.75714_-0.16217.png"	n/a	"VerticalHorizontal"	"arrowright"	"1329"	"TRUE"	"VerticalHorizontal"	"-28.75714000"	"-0.162170000"	"1"	"56"
n/a	"html-keyboard-response"	"129"	"480949"	"0.0-5.0-2.0-0.38"	"4ajc6z"	"600"	"1366"	"chrome"	"109.0.0"	"FALSE"	"Windows 10"	"61.24"	"015"	n/a	n/a	n/a	n/a	n/a	n/a	"fixation"	n/a	n/a	n/a	n/a	"NULL"	n/a	"NULL"	"NULL"	"NULL"	"<p style=\"color: black; font-size: 80px; padding-left: 2%; padding-right: 33%; padding-top: 29%; padding-bottom: 5%\">+</p>"	"1473"	n/a	n/a	n/a	n/a	n/a	n/a	n/a	n/a	n/a
n/a	"image-keyboard-response"	"130"	"481438"	"0.0-5.0-2.0-1.38"	"4ajc6z"	"600"	"1366"	"chrome"	"109.0.0"	"FALSE"	"Windows 10"	"61.24"	"015"	n/a	n/a	n/a	n/a	n/a	n/a	"Trial"	n/a	n/a	n/a	"487"	"arrowleft"	n/a	"NULL"	"NULL"	"NULL"	"stimuli/VerticalHorizontal_-20.27143_0.06730.png"	n/a	"VerticalHorizontal"	"arrowleft"	"1478"	"TRUE"	"VerticalHorizontal"	"-20.27143000"	"0.0673000000"	"1"	"57"
n/a	"html-keyboard-response"	"131"	"482842"	"0.0-5.0-2.0-0.39"	"4ajc6z"	"600"	"1366"	"chrome"	"109.0.0"	"FALSE"	"Windows 10"	"61.24"	"015"	n/a	n/a	n/a	n/a	n/a	n/a	"fixation"	n/a	n/a	n/a	n/a	"NULL"	n/a	"NULL"	"NULL"	"NULL"	"<p style=\"color: black; font-size: 80px; padding-left: 4%; padding-right: 14%; padding-top: 35%; padding-bottom: 6%\">+</p>"	"1385"	n/a	n/a	n/a	n/a	n/a	n/a	n/a	n/a	n/a
n/a	"image-keyboard-response"	"132"	"483401"	"0.0-5.0-2.0-1.39"	"4ajc6z"	"600"	"1366"	"chrome"	"109.0.0"	"FALSE"	"Windows 10"	"61.24"	"015"	n/a	n/a	n/a	n/a	n/a	n/a	"Trial"	n/a	n/a	n/a	"557"	"arrowleft"	n/a	"NULL"	"NULL"	"NULL"	"stimuli/VerticalHorizontal_-3.3000_0.10960.png"	n/a	"VerticalHorizontal"	"arrowleft"	"1404"	"TRUE"	"VerticalHorizontal"	"-3.300000000"	"0.1096000000"	"1"	"58"
n/a	"html-keyboard-response"	"133"	"484421"	"0.0-5.0-2.0-0.40"	"4ajc6z"	"600"	"1366"	"chrome"	"109.0.0"	"FALSE"	"Windows 10"	"61.24"	"015"	n/a	n/a	n/a	n/a	n/a	n/a	"fixation"	n/a	n/a	n/a	n/a	"NULL"	n/a	"NULL"	"NULL"	"NULL"	"<p style=\"color: black; font-size: 80px; padding-left: 24%; padding-right: 33%; padding-top: 1%; padding-bottom: 8%\">+</p>"	"1013"	n/a	n/a	n/a	n/a	n/a	n/a	n/a	n/a	n/a
n/a	"image-keyboard-response"	"134"	"484902"	"0.0-5.0-2.0-1.40"	"4ajc6z"	"600"	"1366"	"chrome"	"109.0.0"	"FALSE"	"Windows 10"	"61.24"	"015"	n/a	n/a	n/a	n/a	n/a	n/a	"Trial"	n/a	n/a	n/a	"480"	"arrowright"	n/a	"NULL"	"NULL"	"NULL"	"stimuli/VerticalHorizontal_-28.75714_-0.2250.png"	n/a	"VerticalHorizontal"	"arrowright"	"1020"	"TRUE"	"VerticalHorizontal"	"-28.75714000"	"-0.225000000"	"1"	"59"
n/a	"html-keyboard-response"	"135"	"485936"	"0.0-5.0-2.0-0.41"	"4ajc6z"	"600"	"1366"	"chrome"	"109.0.0"	"FALSE"	"Windows 10"	"61.24"	"015"	n/a	n/a	n/a	n/a	n/a	n/a	"fixation"	n/a	n/a	n/a	n/a	"NULL"	n/a	"NULL"	"NULL"	"NULL"	"<p style=\"color: black; font-size: 80px; padding-left: 30%; padding-right: 27%; padding-top: 23%; padding-bottom: 48%\">+</p>"	"1017"	n/a	n/a	n/a	n/a	n/a	n/a	n/a	n/a	n/a
n/a	"image-keyboard-response"	"136"	"486419"	"0.0-5.0-2.0-1.41"	"4ajc6z"	"600"	"1366"	"chrome"	"109.0.0"	"FALSE"	"Windows 10"	"61.24"	"015"	n/a	n/a	n/a	n/a	n/a	n/a	"Trial"	n/a	n/a	n/a	"482"	"arrowleft"	n/a	"NULL"	"NULL"	"NULL"	"stimuli/VerticalHorizontal_-3.3000_0.22500.png"	n/a	"VerticalHorizontal"	"arrowleft"	"1034"	"TRUE"	"VerticalHorizontal"	"-3.300000000"	"0.2250000000"	"1"	"60"
n/a	"html-keyboard-response"	"137"	"487485"	"0.0-5.0-2.0-0.42"	"4ajc6z"	"600"	"1366"	"chrome"	"109.0.0"	"FALSE"	"Windows 10"	"61.24"	"015"	n/a	n/a	n/a	n/a	n/a	n/a	"fixation"	n/a	n/a	n/a	n/a	"NULL"	n/a	"NULL"	"NULL"	"NULL"	"<p style=\"color: black; font-size: 80px; padding-left: 1%; padding-right: 5%; padding-top: 9%; padding-bottom: 48%\">+</p>"	"1060"	n/a	n/a	n/a	n/a	n/a	n/a	n/a	n/a	n/a
n/a	"image-keyboard-response"	"138"	"488155"	"0.0-5.0-2.0-1.42"	"4ajc6z"	"600"	"1366"	"chrome"	"109.0.0"	"FALSE"	"Windows 10"	"61.24"	"015"	n/a	n/a	n/a	n/a	n/a	n/a	"Trial"	n/a	n/a	n/a	"668"	"arrowleft"	n/a	"NULL"	"NULL"	"NULL"	"stimuli/VerticalHorizontal_-3.3000_-0.16217.png"	n/a	"VerticalHorizontal"	"arrowright"	"1066"	"FALSE"	"VerticalHorizontal"	"-3.300000000"	"-0.162170000"	"1"	"61"
n/a	"html-keyboard-response"	"139"	"489263"	"0.0-5.0-2.0-0.43"	"4ajc6z"	"600"	"1366"	"chrome"	"109.0.0"	"FALSE"	"Windows 10"	"61.24"	"015"	n/a	n/a	n/a	n/a	n/a	n/a	"fixation"	n/a	n/a	n/a	n/a	"NULL"	n/a	"NULL"	"NULL"	"NULL"	"<p style=\"color: black; font-size: 80px; padding-left: 13%; padding-right: 43%; padding-top: 27%; padding-bottom: 49%\">+</p>"	"1094"	n/a	n/a	n/a	n/a	n/a	n/a	n/a	n/a	n/a
n/a	"image-keyboard-response"	"140"	"489748"	"0.0-5.0-2.0-1.43"	"4ajc6z"	"600"	"1366"	"chrome"	"109.0.0"	"FALSE"	"Windows 10"	"61.24"	"015"	n/a	n/a	n/a	n/a	n/a	n/a	"Trial"	n/a	n/a	n/a	"483"	"arrowleft"	n/a	"NULL"	"NULL"	"NULL"	"stimuli/VerticalHorizontal_20.27143_-0.0673.png"	n/a	"VerticalHorizontal"	"arrowright"	"1108"	"FALSE"	"VerticalHorizontal"	"20.271430000"	"-0.067300000"	"1"	"62"
n/a	"html-keyboard-response"	"141"	"491117"	"0.0-5.0-2.0-0.44"	"4ajc6z"	"600"	"1366"	"chrome"	"109.0.0"	"FALSE"	"Windows 10"	"61.24"	"015"	n/a	n/a	n/a	n/a	n/a	n/a	"fixation"	n/a	n/a	n/a	n/a	"NULL"	n/a	"NULL"	"NULL"	"NULL"	"<p style=\"color: black; font-size: 80px; padding-left: 9%; padding-right: 46%; padding-top: 17%; padding-bottom: 47%\">+</p>"	"1360"	n/a	n/a	n/a	n/a	n/a	n/a	n/a	n/a	n/a
n/a	"image-keyboard-response"	"142"	"491596"	"0.0-5.0-2.0-1.44"	"4ajc6z"	"600"	"1366"	"chrome"	"109.0.0"	"FALSE"	"Windows 10"	"61.24"	"015"	n/a	n/a	n/a	n/a	n/a	n/a	"Trial"	n/a	n/a	n/a	"478"	"arrowright"	n/a	"NULL"	"NULL"	"NULL"	"stimuli/VerticalHorizontal_-28.75714_-0.1096.png"	n/a	"VerticalHorizontal"	"arrowright"	"1369"	"TRUE"	"VerticalHorizontal"	"-28.75714000"	"-0.109600000"	"1"	"63"
n/a	"html-keyboard-response"	"143"	"493071"	"0.0-5.0-2.0-0.45"	"4ajc6z"	"600"	"1366"	"chrome"	"109.0.0"	"FALSE"	"Windows 10"	"61.24"	"015"	n/a	n/a	n/a	n/a	n/a	n/a	"fixation"	n/a	n/a	n/a	n/a	"NULL"	n/a	"NULL"	"NULL"	"NULL"	"<p style=\"color: black; font-size: 80px; padding-left: 36%; padding-right: 28%; padding-top: 47%; padding-bottom: 26%\">+</p>"	"1470"	n/a	n/a	n/a	n/a	n/a	n/a	n/a	n/a	n/a
n/a	"image-keyboard-response"	"144"	"493854"	"0.0-5.0-2.0-1.45"	"4ajc6z"	"600"	"1366"	"chrome"	"109.0.0"	"FALSE"	"Windows 10"	"61.24"	"015"	n/a	n/a	n/a	n/a	n/a	n/a	"Trial"	n/a	n/a	n/a	"782"	"arrowright"	n/a	"NULL"	"NULL"	"NULL"	"stimuli/VerticalHorizontal_-20.27143_-0.0673.png"	n/a	"VerticalHorizontal"	"arrowright"	"1475"	"TRUE"	"VerticalHorizontal"	"-20.27143000"	"-0.067300000"	"1"	"64"
n/a	"html-keyboard-response"	"145"	"495358"	"0.0-5.0-2.0-0.46"	"4ajc6z"	"600"	"1366"	"chrome"	"109.0.0"	"FALSE"	"Windows 10"	"61.24"	"015"	n/a	n/a	n/a	n/a	n/a	n/a	"fixation"	n/a	n/a	n/a	n/a	"NULL"	n/a	"NULL"	"NULL"	"NULL"	"<p style=\"color: black; font-size: 80px; padding-left: 0%; padding-right: 5%; padding-top: 12%; padding-bottom: 36%\">+</p>"	"1485"	n/a	n/a	n/a	n/a	n/a	n/a	n/a	n/a	n/a
n/a	"image-keyboard-response"	"146"	"495961"	"0.0-5.0-2.0-1.46"	"4ajc6z"	"600"	"1366"	"chrome"	"109.0.0"	"FALSE"	"Windows 10"	"61.24"	"015"	n/a	n/a	n/a	n/a	n/a	n/a	"Trial"	n/a	n/a	n/a	"601"	"arrowleft"	n/a	"NULL"	"NULL"	"NULL"	"stimuli/VerticalHorizontal_20.27143_0.10960.png"	n/a	"VerticalHorizontal"	"arrowleft"	"1504"	"TRUE"	"VerticalHorizontal"	"20.271430000"	"0.1096000000"	"1"	"65"
n/a	"html-keyboard-response"	"147"	"497235"	"0.0-5.0-2.0-0.47"	"4ajc6z"	"600"	"1366"	"chrome"	"109.0.0"	"FALSE"	"Windows 10"	"61.24"	"015"	n/a	n/a	n/a	n/a	n/a	n/a	"fixation"	n/a	n/a	n/a	n/a	"NULL"	n/a	"NULL"	"NULL"	"NULL"	"<p style=\"color: black; font-size: 80px; padding-left: 48%; padding-right: 32%; padding-top: 5%; padding-bottom: 3%\">+</p>"	"1261"	n/a	n/a	n/a	n/a	n/a	n/a	n/a	n/a	n/a
n/a	"image-keyboard-response"	"148"	"497772"	"0.0-5.0-2.0-1.47"	"4ajc6z"	"600"	"1366"	"chrome"	"109.0.0"	"FALSE"	"Windows 10"	"61.24"	"015"	n/a	n/a	n/a	n/a	n/a	n/a	"Trial"	n/a	n/a	n/a	"534"	"arrowleft"	n/a	"NULL"	"NULL"	"NULL"	"stimuli/VerticalHorizontal_-11.78571_0.16217.png"	n/a	"VerticalHorizontal"	"arrowleft"	"1274"	"TRUE"	"VerticalHorizontal"	"-11.78571000"	"0.1621700000"	"1"	"66"
n/a	"html-keyboard-response"	"149"	"498957"	"0.0-5.0-2.0-0.48"	"4ajc6z"	"600"	"1366"	"chrome"	"109.0.0"	"FALSE"	"Windows 10"	"61.24"	"015"	n/a	n/a	n/a	n/a	n/a	n/a	"fixation"	n/a	n/a	n/a	n/a	"NULL"	n/a	"NULL"	"NULL"	"NULL"	"<p style=\"color: black; font-size: 80px; padding-left: 45%; padding-right: 27%; padding-top: 31%; padding-bottom: 12%\">+</p>"	"1181"	n/a	n/a	n/a	n/a	n/a	n/a	n/a	n/a	n/a
n/a	"image-keyboard-response"	"150"	"499544"	"0.0-5.0-2.0-1.48"	"4ajc6z"	"600"	"1366"	"chrome"	"109.0.0"	"FALSE"	"Windows 10"	"61.24"	"015"	n/a	n/a	n/a	n/a	n/a	n/a	"Trial"	n/a	n/a	n/a	"587"	"arrowright"	n/a	"NULL"	"NULL"	"NULL"	"stimuli/VerticalHorizontal_3.30000_-0.16217.png"	n/a	"VerticalHorizontal"	"arrowright"	"1185"	"TRUE"	"VerticalHorizontal"	"3.3000000000"	"-0.162170000"	"1"	"67"
n/a	"html-keyboard-response"	"151"	"500684"	"0.0-5.0-2.0-0.49"	"4ajc6z"	"600"	"1366"	"chrome"	"109.0.0"	"FALSE"	"Windows 10"	"61.24"	"015"	n/a	n/a	n/a	n/a	n/a	n/a	"fixation"	n/a	n/a	n/a	n/a	"NULL"	n/a	"NULL"	"NULL"	"NULL"	"<p style=\"color: black; font-size: 80px; padding-left: 9%; padding-right: 21%; padding-top: 22%; padding-bottom: 6%\">+</p>"	"1138"	n/a	n/a	n/a	n/a	n/a	n/a	n/a	n/a	n/a
n/a	"image-keyboard-response"	"152"	"501197"	"0.0-5.0-2.0-1.49"	"4ajc6z"	"600"	"1366"	"chrome"	"109.0.0"	"FALSE"	"Windows 10"	"61.24"	"015"	n/a	n/a	n/a	n/a	n/a	n/a	"Trial"	n/a	n/a	n/a	"511"	"arrowleft"	n/a	"NULL"	"NULL"	"NULL"	"stimuli/VerticalHorizontal_-11.78571_0.06730.png"	n/a	"VerticalHorizontal"	"arrowleft"	"1140"	"TRUE"	"VerticalHorizontal"	"-11.78571000"	"0.0673000000"	"1"	"68"
n/a	"html-keyboard-response"	"153"	"502279"	"0.0-5.0-2.0-0.50"	"4ajc6z"	"600"	"1366"	"chrome"	"109.0.0"	"FALSE"	"Windows 10"	"61.24"	"015"	n/a	n/a	n/a	n/a	n/a	n/a	"fixation"	n/a	n/a	n/a	n/a	"NULL"	n/a	"NULL"	"NULL"	"NULL"	"<p style=\"color: black; font-size: 80px; padding-left: 3%; padding-right: 34%; padding-top: 11%; padding-bottom: 40%\">+</p>"	"1067"	n/a	n/a	n/a	n/a	n/a	n/a	n/a	n/a	n/a
n/a	"image-keyboard-response"	"154"	"502779"	"0.0-5.0-2.0-1.50"	"4ajc6z"	"600"	"1366"	"chrome"	"109.0.0"	"FALSE"	"Windows 10"	"61.24"	"015"	n/a	n/a	n/a	n/a	n/a	n/a	"Trial"	n/a	n/a	n/a	"499"	"arrowleft"	n/a	"NULL"	"NULL"	"NULL"	"stimuli/VerticalHorizontal_-20.27143_0.10960.png"	n/a	"VerticalHorizontal"	"arrowleft"	"1082"	"TRUE"	"VerticalHorizontal"	"-20.27143000"	"0.1096000000"	"1"	"69"
n/a	"html-keyboard-response"	"155"	"504076"	"0.0-5.0-2.0-0.51"	"4ajc6z"	"600"	"1366"	"chrome"	"109.0.0"	"FALSE"	"Windows 10"	"61.24"	"015"	n/a	n/a	n/a	n/a	n/a	n/a	"fixation"	n/a	n/a	n/a	n/a	"NULL"	n/a	"NULL"	"NULL"	"NULL"	"<p style=\"color: black; font-size: 80px; padding-left: 36%; padding-right: 38%; padding-top: 5%; padding-bottom: 50%\">+</p>"	"1274"	n/a	n/a	n/a	n/a	n/a	n/a	n/a	n/a	n/a
n/a	"image-keyboard-response"	"156"	"504592"	"0.0-5.0-2.0-1.51"	"4ajc6z"	"600"	"1366"	"chrome"	"109.0.0"	"FALSE"	"Windows 10"	"61.24"	"015"	n/a	n/a	n/a	n/a	n/a	n/a	"Trial"	n/a	n/a	n/a	"514"	"arrowleft"	n/a	"NULL"	"NULL"	"NULL"	"stimuli/VerticalHorizontal_3.30000_0.16217.png"	n/a	"VerticalHorizontal"	"arrowleft"	"1297"	"TRUE"	"VerticalHorizontal"	"3.3000000000"	"0.1621700000"	"1"	"70"
n/a	"html-keyboard-response"	"157"	"505606"	"0.0-5.0-2.0-0.52"	"4ajc6z"	"600"	"1366"	"chrome"	"109.0.0"	"FALSE"	"Windows 10"	"61.24"	"015"	n/a	n/a	n/a	n/a	n/a	n/a	"fixation"	n/a	n/a	n/a	n/a	"NULL"	n/a	"NULL"	"NULL"	"NULL"	"<p style=\"color: black; font-size: 80px; padding-left: 45%; padding-right: 36%; padding-top: 1%; padding-bottom: 18%\">+</p>"	"1007"	n/a	n/a	n/a	n/a	n/a	n/a	n/a	n/a	n/a
n/a	"image-keyboard-response"	"158"	"506054"	"0.0-5.0-2.0-1.52"	"4ajc6z"	"600"	"1366"	"chrome"	"109.0.0"	"FALSE"	"Windows 10"	"61.24"	"015"	n/a	n/a	n/a	n/a	n/a	n/a	"Trial"	n/a	n/a	n/a	"448"	"arrowleft"	n/a	"NULL"	"NULL"	"NULL"	"stimuli/VerticalHorizontal_20.27143_-0.1096.png"	n/a	"VerticalHorizontal"	"arrowright"	"1014"	"FALSE"	"VerticalHorizontal"	"20.271430000"	"-0.109600000"	"1"	"71"
n/a	"html-keyboard-response"	"159"	"507436"	"0.0-5.0-2.0-0.53"	"4ajc6z"	"600"	"1366"	"chrome"	"109.0.0"	"FALSE"	"Windows 10"	"61.24"	"015"	n/a	n/a	n/a	n/a	n/a	n/a	"fixation"	n/a	n/a	n/a	n/a	"NULL"	n/a	"NULL"	"NULL"	"NULL"	"<p style=\"color: black; font-size: 80px; padding-left: 4%; padding-right: 14%; padding-top: 20%; padding-bottom: 35%\">+</p>"	"1371"	n/a	n/a	n/a	n/a	n/a	n/a	n/a	n/a	n/a
n/a	"image-keyboard-response"	"160"	"507903"	"0.0-5.0-2.0-1.53"	"4ajc6z"	"600"	"1366"	"chrome"	"109.0.0"	"FALSE"	"Windows 10"	"61.24"	"015"	n/a	n/a	n/a	n/a	n/a	n/a	"Trial"	n/a	n/a	n/a	"466"	"arrowright"	n/a	"NULL"	"NULL"	"NULL"	"stimuli/VerticalHorizontal_-20.27143_-0.1096.png"	n/a	"VerticalHorizontal"	"arrowright"	"1382"	"TRUE"	"VerticalHorizontal"	"-20.27143000"	"-0.109600000"	"1"	"72"
n/a	"html-keyboard-response"	"161"	"509083"	"0.0-5.0-2.0-0.54"	"4ajc6z"	"600"	"1366"	"chrome"	"109.0.0"	"FALSE"	"Windows 10"	"61.24"	"015"	n/a	n/a	n/a	n/a	n/a	n/a	"fixation"	n/a	n/a	n/a	n/a	"NULL"	n/a	"NULL"	"NULL"	"NULL"	"<p style=\"color: black; font-size: 80px; padding-left: 2%; padding-right: 21%; padding-top: 7%; padding-bottom: 43%\">+</p>"	"1163"	n/a	n/a	n/a	n/a	n/a	n/a	n/a	n/a	n/a
n/a	"image-keyboard-response"	"162"	"509566"	"0.0-5.0-2.0-1.54"	"4ajc6z"	"600"	"1366"	"chrome"	"109.0.0"	"FALSE"	"Windows 10"	"61.24"	"015"	n/a	n/a	n/a	n/a	n/a	n/a	"Trial"	n/a	n/a	n/a	"473"	"arrowleft"	n/a	"NULL"	"NULL"	"NULL"	"stimuli/VerticalHorizontal_-3.3000_0.16217.png"	n/a	"VerticalHorizontal"	"arrowleft"	"1180"	"TRUE"	"VerticalHorizontal"	"-3.300000000"	"0.1621700000"	"1"	"73"
n/a	"html-keyboard-response"	"163"	"510621"	"0.0-5.0-2.0-0.55"	"4ajc6z"	"600"	"1366"	"chrome"	"109.0.0"	"FALSE"	"Windows 10"	"61.24"	"015"	n/a	n/a	n/a	n/a	n/a	n/a	"fixation"	n/a	n/a	n/a	n/a	"NULL"	n/a	"NULL"	"NULL"	"NULL"	"<p style=\"color: black; font-size: 80px; padding-left: 20%; padding-right: 40%; padding-top: 18%; padding-bottom: 22%\">+</p>"	"1038"	n/a	n/a	n/a	n/a	n/a	n/a	n/a	n/a	n/a
n/a	"image-keyboard-response"	"164"	"511595"	"0.0-5.0-2.0-1.55"	"4ajc6z"	"600"	"1366"	"chrome"	"109.0.0"	"FALSE"	"Windows 10"	"61.24"	"015"	n/a	n/a	n/a	n/a	n/a	n/a	"Trial"	n/a	n/a	n/a	"972"	"arrowleft"	n/a	"NULL"	"NULL"	"NULL"	"stimuli/VerticalHorizontal_11.78571_-0.2250.png"	n/a	"VerticalHorizontal"	"arrowright"	"1055"	"FALSE"	"VerticalHorizontal"	"11.785710000"	"-0.225000000"	"1"	"74"
n/a	"html-keyboard-response"	"165"	"512808"	"0.0-5.0-2.0-0.56"	"4ajc6z"	"600"	"1366"	"chrome"	"109.0.0"	"FALSE"	"Windows 10"	"61.24"	"015"	n/a	n/a	n/a	n/a	n/a	n/a	"fixation"	n/a	n/a	n/a	n/a	"NULL"	n/a	"NULL"	"NULL"	"NULL"	"<p style=\"color: black; font-size: 80px; padding-left: 15%; padding-right: 45%; padding-top: 7%; padding-bottom: 44%\">+</p>"	"1205"	n/a	n/a	n/a	n/a	n/a	n/a	n/a	n/a	n/a
n/a	"image-keyboard-response"	"166"	"514018"	"0.0-5.0-2.0-1.56"	"4ajc6z"	"600"	"1366"	"chrome"	"109.0.0"	"FALSE"	"Windows 10"	"61.24"	"015"	n/a	n/a	n/a	n/a	n/a	n/a	"Trial"	n/a	n/a	n/a	"1207"	"arrowleft"	n/a	"NULL"	"NULL"	"NULL"	"stimuli/VerticalHorizontal_28.75714_0.06730.png"	n/a	"VerticalHorizontal"	"arrowleft"	"1213"	"TRUE"	"VerticalHorizontal"	"28.757140000"	"0.0673000000"	"1"	"75"
n/a	"html-keyboard-response"	"167"	"515189"	"0.0-5.0-2.0-0.57"	"4ajc6z"	"600"	"1366"	"chrome"	"109.0.0"	"FALSE"	"Windows 10"	"61.24"	"015"	n/a	n/a	n/a	n/a	n/a	n/a	"fixation"	n/a	n/a	n/a	n/a	"NULL"	n/a	"NULL"	"NULL"	"NULL"	"<p style=\"color: black; font-size: 80px; padding-left: 5%; padding-right: 2%; padding-top: 7%; padding-bottom: 20%\">+</p>"	"1155"	n/a	n/a	n/a	n/a	n/a	n/a	n/a	n/a	n/a
n/a	"image-keyboard-response"	"168"	"515730"	"0.0-5.0-2.0-1.57"	"4ajc6z"	"600"	"1366"	"chrome"	"109.0.0"	"FALSE"	"Windows 10"	"61.24"	"015"	n/a	n/a	n/a	n/a	n/a	n/a	"Trial"	n/a	n/a	n/a	"540"	"arrowleft"	n/a	"NULL"	"NULL"	"NULL"	"stimuli/VerticalHorizontal_11.78571_0.16217.png"	n/a	"VerticalHorizontal"	"arrowleft"	"1171"	"TRUE"	"VerticalHorizontal"	"11.785710000"	"0.1621700000"	"1"	"76"
n/a	"html-keyboard-response"	"169"	"516778"	"0.0-5.0-2.0-0.58"	"4ajc6z"	"600"	"1366"	"chrome"	"109.0.0"	"FALSE"	"Windows 10"	"61.24"	"015"	n/a	n/a	n/a	n/a	n/a	n/a	"fixation"	n/a	n/a	n/a	n/a	"NULL"	n/a	"NULL"	"NULL"	"NULL"	"<p style=\"color: black; font-size: 80px; padding-left: 26%; padding-right: 15%; padding-top: 17%; padding-bottom: 29%\">+</p>"	"1030"	n/a	n/a	n/a	n/a	n/a	n/a	n/a	n/a	n/a
n/a	"image-keyboard-response"	"170"	"517365"	"0.0-5.0-2.0-1.58"	"4ajc6z"	"600"	"1366"	"chrome"	"109.0.0"	"FALSE"	"Windows 10"	"61.24"	"015"	n/a	n/a	n/a	n/a	n/a	n/a	"Trial"	n/a	n/a	n/a	"586"	"arrowright"	n/a	"NULL"	"NULL"	"NULL"	"stimuli/VerticalHorizontal_-11.78571_-0.16217.png"	n/a	"VerticalHorizontal"	"arrowright"	"1048"	"TRUE"	"VerticalHorizontal"	"-11.78571000"	"-0.162170000"	"1"	"77"
n/a	"html-keyboard-response"	"171"	"518560"	"0.0-5.0-2.0-0.59"	"4ajc6z"	"600"	"1366"	"chrome"	"109.0.0"	"FALSE"	"Windows 10"	"61.24"	"015"	n/a	n/a	n/a	n/a	n/a	n/a	"fixation"	n/a	n/a	n/a	n/a	"NULL"	n/a	"NULL"	"NULL"	"NULL"	"<p style=\"color: black; font-size: 80px; padding-left: 39%; padding-right: 24%; padding-top: 31%; padding-bottom: 39%\">+</p>"	"1184"	n/a	n/a	n/a	n/a	n/a	n/a	n/a	n/a	n/a
n/a	"image-keyboard-response"	"172"	"519567"	"0.0-5.0-2.0-1.59"	"4ajc6z"	"600"	"1366"	"chrome"	"109.0.0"	"FALSE"	"Windows 10"	"61.24"	"015"	n/a	n/a	n/a	n/a	n/a	n/a	"Trial"	n/a	n/a	n/a	"1006"	"arrowleft"	n/a	"NULL"	"NULL"	"NULL"	"stimuli/VerticalHorizontal_20.27143_-0.16217.png"	n/a	"VerticalHorizontal"	"arrowright"	"1195"	"FALSE"	"VerticalHorizontal"	"20.271430000"	"-0.162170000"	"1"	"78"
n/a	"html-keyboard-response"	"173"	"521064"	"0.0-5.0-2.0-0.60"	"4ajc6z"	"600"	"1366"	"chrome"	"109.0.0"	"FALSE"	"Windows 10"	"61.24"	"015"	n/a	n/a	n/a	n/a	n/a	n/a	"fixation"	n/a	n/a	n/a	n/a	"NULL"	n/a	"NULL"	"NULL"	"NULL"	"<p style=\"color: black; font-size: 80px; padding-left: 16%; padding-right: 3%; padding-top: 44%; padding-bottom: 13%\">+</p>"	"1484"	n/a	n/a	n/a	n/a	n/a	n/a	n/a	n/a	n/a
n/a	"image-keyboard-response"	"174"	"522005"	"0.0-5.0-2.0-1.60"	"4ajc6z"	"600"	"1366"	"chrome"	"109.0.0"	"FALSE"	"Windows 10"	"61.24"	"015"	n/a	n/a	n/a	n/a	n/a	n/a	"Trial"	n/a	n/a	n/a	"939"	"arrowright"	n/a	"NULL"	"NULL"	"NULL"	"stimuli/VerticalHorizontal_28.75714_-0.2250.png"	n/a	"VerticalHorizontal"	"arrowright"	"1497"	"TRUE"	"VerticalHorizontal"	"28.757140000"	"-0.225000000"	"1"	"79"
n/a	"html-keyboard-response"	"175"	"523213"	"0.0-5.0-2.0-0.61"	"4ajc6z"	"600"	"1366"	"chrome"	"109.0.0"	"FALSE"	"Windows 10"	"61.24"	"015"	n/a	n/a	n/a	n/a	n/a	n/a	"fixation"	n/a	n/a	n/a	n/a	"NULL"	n/a	"NULL"	"NULL"	"NULL"	"<p style=\"color: black; font-size: 80px; padding-left: 23%; padding-right: 24%; padding-top: 42%; padding-bottom: 3%\">+</p>"	"1195"	n/a	n/a	n/a	n/a	n/a	n/a	n/a	n/a	n/a
n/a	"image-keyboard-response"	"176"	"524195"	"0.0-5.0-2.0-1.61"	"4ajc6z"	"600"	"1366"	"chrome"	"109.0.0"	"FALSE"	"Windows 10"	"61.24"	"015"	n/a	n/a	n/a	n/a	n/a	n/a	"Trial"	n/a	n/a	n/a	"980"	"arrowright"	n/a	"NULL"	"NULL"	"NULL"	"stimuli/VerticalHorizontal_-11.78571_-0.0673.png"	n/a	"VerticalHorizontal"	"arrowright"	"1208"	"TRUE"	"VerticalHorizontal"	"-11.78571000"	"-0.067300000"	"1"	"80"
n/a	"html-keyboard-response"	"177"	"525517"	"0.0-5.0-2.0-0.62"	"4ajc6z"	"600"	"1366"	"chrome"	"109.0.0"	"FALSE"	"Windows 10"	"61.24"	"015"	n/a	n/a	n/a	n/a	n/a	n/a	"fixation"	n/a	n/a	n/a	n/a	"NULL"	n/a	"NULL"	"NULL"	"NULL"	"<p style=\"color: black; font-size: 80px; padding-left: 14%; padding-right: 32%; padding-top: 0%; padding-bottom: 7%\">+</p>"	"1312"	n/a	n/a	n/a	n/a	n/a	n/a	n/a	n/a	n/a
n/a	"image-keyboard-response"	"178"	"526588"	"0.0-5.0-2.0-1.62"	"4ajc6z"	"600"	"1366"	"chrome"	"109.0.0"	"FALSE"	"Windows 10"	"61.24"	"015"	n/a	n/a	n/a	n/a	n/a	n/a	"Trial"	n/a	n/a	n/a	"1070"	"arrowleft"	n/a	"NULL"	"NULL"	"NULL"	"stimuli/VerticalHorizontal_11.78571_-0.0673.png"	n/a	"VerticalHorizontal"	"arrowright"	"1322"	"FALSE"	"VerticalHorizontal"	"11.785710000"	"-0.067300000"	"1"	"81"
n/a	"html-keyboard-response"	"179"	"527795"	"0.0-5.0-2.0-0.63"	"4ajc6z"	"600"	"1366"	"chrome"	"109.0.0"	"FALSE"	"Windows 10"	"61.24"	"015"	n/a	n/a	n/a	n/a	n/a	n/a	"fixation"	n/a	n/a	n/a	n/a	"NULL"	n/a	"NULL"	"NULL"	"NULL"	"<p style=\"color: black; font-size: 80px; padding-left: 4%; padding-right: 1%; padding-top: 29%; padding-bottom: 39%\">+</p>"	"1192"	n/a	n/a	n/a	n/a	n/a	n/a	n/a	n/a	n/a
n/a	"image-keyboard-response"	"180"	"528775"	"0.0-5.0-2.0-1.63"	"4ajc6z"	"600"	"1366"	"chrome"	"109.0.0"	"FALSE"	"Windows 10"	"61.24"	"015"	n/a	n/a	n/a	n/a	n/a	n/a	"Trial"	n/a	n/a	n/a	"978"	"arrowleft"	n/a	"NULL"	"NULL"	"NULL"	"stimuli/VerticalHorizontal_3.30000_0.10960.png"	n/a	"VerticalHorizontal"	"arrowleft"	"1207"	"TRUE"	"VerticalHorizontal"	"3.3000000000"	"0.1096000000"	"1"	"82"
n/a	"html-button-response"	"181"	"540847"	"0.0-5.0-3.0"	"4ajc6z"	"600"	"1366"	"chrome"	"109.0.0"	"FALSE"	"Windows 10"	"61.24"	"015"	n/a	n/a	n/a	n/a	n/a	n/a	"block_results"	n/a	n/a	n/a	"12068"	"0"	n/a	"NULL"	"NULL"	"NULL"	"<p>Your score for this illusion is <p style=\"color: black; font-size: 48px; font-weight: bold;\">79.3 %</p><hr><p>Can you do better in the next illusion?</p>"	n/a	n/a	n/a	n/a	n/a	n/a	n/a	n/a	n/a	n/a
"TRUE"	"preload"	"182"	"541047"	"0.0-6.0-0.0"	"4ajc6z"	"600"	"1366"	"chrome"	"109.0.0"	"FALSE"	"Windows 10"	"61.24"	"015"	n/a	n/a	n/a	n/a	n/a	n/a	n/a	n/a	n/a	n/a	n/a	"NULL"	"FALSE"	"list()"	"list()"	"list()"	n/a	n/a	n/a	n/a	n/a	n/a	n/a	n/a	n/a	n/a	n/a
n/a	"html-keyboard-response"	"183"	"543370"	"0.0-6.0-1.0"	"4ajc6z"	"600"	"1366"	"chrome"	"109.0.0"	"FALSE"	"Windows 10"	"61.24"	"015"	n/a	n/a	n/a	n/a	n/a	n/a	n/a	n/a	n/a	n/a	"2322"	"enter"	n/a	"NULL"	"NULL"	"NULL"	"<p><b>Part 2/6</b></p><p>In this part, two red circles will appear side by side on the screen.</p><p>Your task is to select which <b>red circle is bigger</b> in size as fast as you can, without making errors.</p><p>Don't get distracted by the surrounding black circles around the red circles!</p><p>Press <b>the LEFT or the RIGHT arrow</b> to indicate which is the bigger <b>red circle.</b></p><div style='float: center'><img src='materials/instructions/Ebbinghaus_Demo.png' height='300'></img><p><img src='utils/answer/answer_leftright_keyboard.PNG' height='150'></img></p><p class='small'>In this example, the correct answer is the <b>LEFT arrow</b>.</p></div><p>Are you ready? <b>Press ENTER to start</b></p>"	n/a	n/a	n/a	n/a	n/a	n/a	n/a	n/a	n/a	n/a
n/a	"html-keyboard-response"	"184"	"545048"	"0.0-6.0-2.0-0.0"	"4ajc6z"	"600"	"1366"	"chrome"	"109.0.0"	"FALSE"	"Windows 10"	"61.24"	"015"	n/a	n/a	n/a	n/a	n/a	n/a	"fixation"	n/a	n/a	n/a	n/a	"NULL"	n/a	"NULL"	"NULL"	"NULL"	"<p style=\"color: black; font-size: 80px; padding-left: 42%; padding-right: 38%; padding-top: 39%; padding-bottom: 5%\">+</p>"	"1146"	n/a	n/a	n/a	n/a	n/a	n/a	n/a	n/a	n/a
n/a	"image-keyboard-response"	"185"	"545801"	"0.0-6.0-2.0-1.0"	"4ajc6z"	"600"	"1366"	"chrome"	"109.0.0"	"FALSE"	"Windows 10"	"61.24"	"015"	n/a	n/a	n/a	n/a	n/a	n/a	"Trial"	n/a	n/a	n/a	"752"	"arrowright"	n/a	"NULL"	"NULL"	"NULL"	"stimuli/Ebbinghaus_-0.87143_-0.2800.png"	n/a	"Ebbinghaus"	"arrowright"	"1678"	"TRUE"	"Ebbinghaus"	"-0.871430000"	"-0.280000000"	"2"	"1"
n/a	"html-keyboard-response"	"186"	"547101"	"0.0-6.0-2.0-0.1"	"4ajc6z"	"600"	"1366"	"chrome"	"109.0.0"	"FALSE"	"Windows 10"	"61.24"	"015"	n/a	n/a	n/a	n/a	n/a	n/a	"fixation"	n/a	n/a	n/a	n/a	"NULL"	n/a	"NULL"	"NULL"	"NULL"	"<p style=\"color: black; font-size: 80px; padding-left: 21%; padding-right: 7%; padding-top: 30%; padding-bottom: 39%\">+</p>"	"1295"	n/a	n/a	n/a	n/a	n/a	n/a	n/a	n/a	n/a
n/a	"image-keyboard-response"	"187"	"547852"	"0.0-6.0-2.0-1.1"	"4ajc6z"	"600"	"1366"	"chrome"	"109.0.0"	"FALSE"	"Windows 10"	"61.24"	"015"	n/a	n/a	n/a	n/a	n/a	n/a	"Trial"	n/a	n/a	n/a	"750"	"arrowleft"	n/a	"NULL"	"NULL"	"NULL"	"stimuli/Ebbinghaus_-0.1000_0.15857.png"	n/a	"Ebbinghaus"	"arrowleft"	"1300"	"TRUE"	"Ebbinghaus"	"-0.100000000"	"0.1585700000"	"2"	"2"
n/a	"html-keyboard-response"	"188"	"549270"	"0.0-6.0-2.0-0.2"	"4ajc6z"	"600"	"1366"	"chrome"	"109.0.0"	"FALSE"	"Windows 10"	"61.24"	"015"	n/a	n/a	n/a	n/a	n/a	n/a	"fixation"	n/a	n/a	n/a	n/a	"NULL"	n/a	"NULL"	"NULL"	"NULL"	"<p style=\"color: black; font-size: 80px; padding-left: 17%; padding-right: 29%; padding-top: 23%; padding-bottom: 29%\">+</p>"	"1409"	n/a	n/a	n/a	n/a	n/a	n/a	n/a	n/a	n/a
n/a	"image-keyboard-response"	"189"	"549965"	"0.0-6.0-2.0-1.2"	"4ajc6z"	"600"	"1366"	"chrome"	"109.0.0"	"FALSE"	"Windows 10"	"61.24"	"015"	n/a	n/a	n/a	n/a	n/a	n/a	"Trial"	n/a	n/a	n/a	"694"	"arrowleft"	n/a	"NULL"	"NULL"	"NULL"	"stimuli/Ebbinghaus_-0.87143_0.21500.png"	n/a	"Ebbinghaus"	"arrowleft"	"1418"	"TRUE"	"Ebbinghaus"	"-0.871430000"	"0.2150000000"	"2"	"3"
n/a	"html-keyboard-response"	"190"	"551163"	"0.0-6.0-2.0-0.3"	"4ajc6z"	"600"	"1366"	"chrome"	"109.0.0"	"FALSE"	"Windows 10"	"61.24"	"015"	n/a	n/a	n/a	n/a	n/a	n/a	"fixation"	n/a	n/a	n/a	n/a	"NULL"	n/a	"NULL"	"NULL"	"NULL"	"<p style=\"color: black; font-size: 80px; padding-left: 43%; padding-right: 20%; padding-top: 29%; padding-bottom: 22%\">+</p>"	"1181"	n/a	n/a	n/a	n/a	n/a	n/a	n/a	n/a	n/a
n/a	"image-keyboard-response"	"191"	"552066"	"0.0-6.0-2.0-1.3"	"4ajc6z"	"600"	"1366"	"chrome"	"109.0.0"	"FALSE"	"Windows 10"	"61.24"	"015"	n/a	n/a	n/a	n/a	n/a	n/a	"Trial"	n/a	n/a	n/a	"901"	"arrowleft"	n/a	"NULL"	"NULL"	"NULL"	"stimuli/Ebbinghaus_-0.1000_0.28000.png"	n/a	"Ebbinghaus"	"arrowleft"	"1198"	"TRUE"	"Ebbinghaus"	"-0.100000000"	"0.2800000000"	"2"	"4"
n/a	"html-keyboard-response"	"192"	"553207"	"0.0-6.0-2.0-0.4"	"4ajc6z"	"600"	"1366"	"chrome"	"109.0.0"	"FALSE"	"Windows 10"	"61.24"	"015"	n/a	n/a	n/a	n/a	n/a	n/a	"fixation"	n/a	n/a	n/a	n/a	"NULL"	n/a	"NULL"	"NULL"	"NULL"	"<p style=\"color: black; font-size: 80px; padding-left: 36%; padding-right: 1%; padding-top: 5%; padding-bottom: 35%\">+</p>"	"1134"	n/a	n/a	n/a	n/a	n/a	n/a	n/a	n/a	n/a
n/a	"image-keyboard-response"	"193"	"554100"	"0.0-6.0-2.0-1.4"	"4ajc6z"	"600"	"1366"	"chrome"	"109.0.0"	"FALSE"	"Windows 10"	"61.24"	"015"	n/a	n/a	n/a	n/a	n/a	n/a	"Trial"	n/a	n/a	n/a	"891"	"arrowleft"	n/a	"NULL"	"NULL"	"NULL"	"stimuli/Ebbinghaus_0.35714_0.21500.png"	n/a	"Ebbinghaus"	"arrowleft"	"1141"	"TRUE"	"Ebbinghaus"	"0.3571400000"	"0.2150000000"	"2"	"5"
n/a	"html-keyboard-response"	"194"	"555571"	"0.0-6.0-2.0-0.5"	"4ajc6z"	"600"	"1366"	"chrome"	"109.0.0"	"FALSE"	"Windows 10"	"61.24"	"015"	n/a	n/a	n/a	n/a	n/a	n/a	"fixation"	n/a	n/a	n/a	n/a	"NULL"	n/a	"NULL"	"NULL"	"NULL"	"<p style=\"color: black; font-size: 80px; padding-left: 34%; padding-right: 32%; padding-top: 22%; padding-bottom: 11%\">+</p>"	"1450"	n/a	n/a	n/a	n/a	n/a	n/a	n/a	n/a	n/a
n/a	"image-keyboard-response"	"195"	"556840"	"0.0-6.0-2.0-1.5"	"4ajc6z"	"600"	"1366"	"chrome"	"109.0.0"	"FALSE"	"Windows 10"	"61.24"	"015"	n/a	n/a	n/a	n/a	n/a	n/a	"Trial"	n/a	n/a	n/a	"1268"	"arrowright"	n/a	"NULL"	"NULL"	"NULL"	"stimuli/Ebbinghaus_0.61429_-0.2800.png"	n/a	"Ebbinghaus"	"arrowright"	"1471"	"TRUE"	"Ebbinghaus"	"0.6142900000"	"-0.280000000"	"2"	"6"
n/a	"html-keyboard-response"	"196"	"558032"	"0.0-6.0-2.0-0.6"	"4ajc6z"	"600"	"1366"	"chrome"	"109.0.0"	"FALSE"	"Windows 10"	"61.24"	"015"	n/a	n/a	n/a	n/a	n/a	n/a	"fixation"	n/a	n/a	n/a	n/a	"NULL"	n/a	"NULL"	"NULL"	"NULL"	"<p style=\"color: black; font-size: 80px; padding-left: 3%; padding-right: 3%; padding-top: 31%; padding-bottom: 17%\">+</p>"	"1179"	n/a	n/a	n/a	n/a	n/a	n/a	n/a	n/a	n/a
n/a	"image-keyboard-response"	"197"	"558808"	"0.0-6.0-2.0-1.6"	"4ajc6z"	"600"	"1366"	"chrome"	"109.0.0"	"FALSE"	"Windows 10"	"61.24"	"015"	n/a	n/a	n/a	n/a	n/a	n/a	"Trial"	n/a	n/a	n/a	"775"	"arrowright"	n/a	"NULL"	"NULL"	"NULL"	"stimuli/Ebbinghaus_-0.61429_-0.2150.png"	n/a	"Ebbinghaus"	"arrowright"	"1192"	"TRUE"	"Ebbinghaus"	"-0.614290000"	"-0.215000000"	"2"	"7"
n/a	"html-keyboard-response"	"198"	"559825"	"0.0-6.0-2.0-0.7"	"4ajc6z"	"600"	"1366"	"chrome"	"109.0.0"	"FALSE"	"Windows 10"	"61.24"	"015"	n/a	n/a	n/a	n/a	n/a	n/a	"fixation"	n/a	n/a	n/a	n/a	"NULL"	n/a	"NULL"	"NULL"	"NULL"	"<p style=\"color: black; font-size: 80px; padding-left: 14%; padding-right: 9%; padding-top: 31%; padding-bottom: 6%\">+</p>"	"1010"	n/a	n/a	n/a	n/a	n/a	n/a	n/a	n/a	n/a
n/a	"image-keyboard-response"	"199"	"560529"	"0.0-6.0-2.0-1.7"	"4ajc6z"	"600"	"1366"	"chrome"	"109.0.0"	"FALSE"	"Windows 10"	"61.24"	"015"	n/a	n/a	n/a	n/a	n/a	n/a	"Trial"	n/a	n/a	n/a	"704"	"arrowleft"	n/a	"NULL"	"NULL"	"NULL"	"stimuli/Ebbinghaus_-0.61429_0.11071.png"	n/a	"Ebbinghaus"	"arrowleft"	"1017"	"TRUE"	"Ebbinghaus"	"-0.614290000"	"0.1107100000"	"2"	"8"
n/a	"html-keyboard-response"	"200"	"561975"	"0.0-6.0-2.0-0.8"	"4ajc6z"	"600"	"1366"	"chrome"	"109.0.0"	"FALSE"	"Windows 10"	"61.24"	"015"	n/a	n/a	n/a	n/a	n/a	n/a	"fixation"	n/a	n/a	n/a	n/a	"NULL"	n/a	"NULL"	"NULL"	"NULL"	"<p style=\"color: black; font-size: 80px; padding-left: 15%; padding-right: 30%; padding-top: 33%; padding-bottom: 49%\">+</p>"	"1431"	n/a	n/a	n/a	n/a	n/a	n/a	n/a	n/a	n/a
n/a	"image-keyboard-response"	"201"	"562571"	"0.0-6.0-2.0-1.8"	"4ajc6z"	"600"	"1366"	"chrome"	"109.0.0"	"FALSE"	"Windows 10"	"61.24"	"015"	n/a	n/a	n/a	n/a	n/a	n/a	"Trial"	n/a	n/a	n/a	"594"	"arrowright"	n/a	"NULL"	"NULL"	"NULL"	"stimuli/Ebbinghaus_-0.1000_-0.15857.png"	n/a	"Ebbinghaus"	"arrowright"	"1446"	"TRUE"	"Ebbinghaus"	"-0.100000000"	"-0.158570000"	"2"	"9"
n/a	"html-keyboard-response"	"202"	"563955"	"0.0-6.0-2.0-0.9"	"4ajc6z"	"600"	"1366"	"chrome"	"109.0.0"	"FALSE"	"Windows 10"	"61.24"	"015"	n/a	n/a	n/a	n/a	n/a	n/a	"fixation"	n/a	n/a	n/a	n/a	"NULL"	n/a	"NULL"	"NULL"	"NULL"	"<p style=\"color: black; font-size: 80px; padding-left: 16%; padding-right: 23%; padding-top: 48%; padding-bottom: 5%\">+</p>"	"1372"	n/a	n/a	n/a	n/a	n/a	n/a	n/a	n/a	n/a
n/a	"image-keyboard-response"	"203"	"565432"	"0.0-6.0-2.0-1.9"	"4ajc6z"	"600"	"1366"	"chrome"	"109.0.0"	"FALSE"	"Windows 10"	"61.24"	"015"	n/a	n/a	n/a	n/a	n/a	n/a	"Trial"	n/a	n/a	n/a	"1475"	"arrowright"	n/a	"NULL"	"NULL"	"NULL"	"stimuli/Ebbinghaus_0.61429_-0.11071.png"	n/a	"Ebbinghaus"	"arrowright"	"1384"	"TRUE"	"Ebbinghaus"	"0.6142900000"	"-0.110710000"	"2"	"10"
n/a	"html-keyboard-response"	"204"	"566754"	"0.0-6.0-2.0-0.10"	"4ajc6z"	"600"	"1366"	"chrome"	"109.0.0"	"FALSE"	"Windows 10"	"61.24"	"015"	n/a	n/a	n/a	n/a	n/a	n/a	"fixation"	n/a	n/a	n/a	n/a	"NULL"	n/a	"NULL"	"NULL"	"NULL"	"<p style=\"color: black; font-size: 80px; padding-left: 41%; padding-right: 4%; padding-top: 43%; padding-bottom: 18%\">+</p>"	"1302"	n/a	n/a	n/a	n/a	n/a	n/a	n/a	n/a	n/a
n/a	"image-keyboard-response"	"205"	"567963"	"0.0-6.0-2.0-1.10"	"4ajc6z"	"600"	"1366"	"chrome"	"109.0.0"	"FALSE"	"Windows 10"	"61.24"	"015"	n/a	n/a	n/a	n/a	n/a	n/a	"Trial"	n/a	n/a	n/a	"1207"	"arrowright"	n/a	"NULL"	"NULL"	"NULL"	"stimuli/Ebbinghaus_-0.1000_-0.11071.png"	n/a	"Ebbinghaus"	"arrowright"	"1322"	"TRUE"	"Ebbinghaus"	"-0.100000000"	"-0.110710000"	"2"	"11"
n/a	"html-keyboard-response"	"206"	"569256"	"0.0-6.0-2.0-0.11"	"4ajc6z"	"600"	"1366"	"chrome"	"109.0.0"	"FALSE"	"Windows 10"	"61.24"	"015"	n/a	n/a	n/a	n/a	n/a	n/a	"fixation"	n/a	n/a	n/a	n/a	"NULL"	n/a	"NULL"	"NULL"	"NULL"	"<p style=\"color: black; font-size: 80px; padding-left: 23%; padding-right: 18%; padding-top: 13%; padding-bottom: 6%\">+</p>"	"1284"	n/a	n/a	n/a	n/a	n/a	n/a	n/a	n/a	n/a
n/a	"image-keyboard-response"	"207"	"570857"	"0.0-6.0-2.0-1.11"	"4ajc6z"	"600"	"1366"	"chrome"	"109.0.0"	"FALSE"	"Windows 10"	"61.24"	"015"	n/a	n/a	n/a	n/a	n/a	n/a	"Trial"	n/a	n/a	n/a	"1600"	"arrowright"	n/a	"NULL"	"NULL"	"NULL"	"stimuli/Ebbinghaus_0.35714_-0.11071.png"	n/a	"Ebbinghaus"	"arrowright"	"1293"	"TRUE"	"Ebbinghaus"	"0.3571400000"	"-0.110710000"	"2"	"12"
n/a	"html-keyboard-response"	"208"	"572339"	"0.0-6.0-2.0-0.12"	"4ajc6z"	"600"	"1366"	"chrome"	"109.0.0"	"FALSE"	"Windows 10"	"61.24"	"015"	n/a	n/a	n/a	n/a	n/a	n/a	"fixation"	n/a	n/a	n/a	n/a	"NULL"	n/a	"NULL"	"NULL"	"NULL"	"<p style=\"color: black; font-size: 80px; padding-left: 22%; padding-right: 13%; padding-top: 37%; padding-bottom: 30%\">+</p>"	"1470"	n/a	n/a	n/a	n/a	n/a	n/a	n/a	n/a	n/a
n/a	"image-keyboard-response"	"209"	"573236"	"0.0-6.0-2.0-1.12"	"4ajc6z"	"600"	"1366"	"chrome"	"109.0.0"	"FALSE"	"Windows 10"	"61.24"	"015"	n/a	n/a	n/a	n/a	n/a	n/a	"Trial"	n/a	n/a	n/a	"897"	"arrowleft"	n/a	"NULL"	"NULL"	"NULL"	"stimuli/Ebbinghaus_-0.35714_0.11071.png"	n/a	"Ebbinghaus"	"arrowleft"	"1482"	"TRUE"	"Ebbinghaus"	"-0.357140000"	"0.1107100000"	"2"	"13"
n/a	"html-keyboard-response"	"210"	"574730"	"0.0-6.0-2.0-0.13"	"4ajc6z"	"600"	"1366"	"chrome"	"109.0.0"	"FALSE"	"Windows 10"	"61.24"	"015"	n/a	n/a	n/a	n/a	n/a	n/a	"fixation"	n/a	n/a	n/a	n/a	"NULL"	n/a	"NULL"	"NULL"	"NULL"	"<p style=\"color: black; font-size: 80px; padding-left: 7%; padding-right: 39%; padding-top: 11%; padding-bottom: 38%\">+</p>"	"1477"	n/a	n/a	n/a	n/a	n/a	n/a	n/a	n/a	n/a
n/a	"image-keyboard-response"	"211"	"575803"	"0.0-6.0-2.0-1.13"	"4ajc6z"	"600"	"1366"	"chrome"	"109.0.0"	"FALSE"	"Windows 10"	"61.24"	"015"	n/a	n/a	n/a	n/a	n/a	n/a	"Trial"	n/a	n/a	n/a	"1064"	"arrowright"	n/a	"NULL"	"NULL"	"NULL"	"stimuli/Ebbinghaus_0.87143_-0.2800.png"	n/a	"Ebbinghaus"	"arrowright"	"1494"	"TRUE"	"Ebbinghaus"	"0.8714300000"	"-0.280000000"	"2"	"14"
n/a	"html-keyboard-response"	"212"	"577314"	"0.0-6.0-2.0-0.14"	"4ajc6z"	"600"	"1366"	"chrome"	"109.0.0"	"FALSE"	"Windows 10"	"61.24"	"015"	n/a	n/a	n/a	n/a	n/a	n/a	"fixation"	n/a	n/a	n/a	n/a	"NULL"	n/a	"NULL"	"NULL"	"NULL"	"<p style=\"color: black; font-size: 80px; padding-left: 48%; padding-right: 49%; padding-top: 50%; padding-bottom: 1%\">+</p>"	"1493"	n/a	n/a	n/a	n/a	n/a	n/a	n/a	n/a	n/a
n/a	"image-keyboard-response"	"213"	"578346"	"0.0-6.0-2.0-1.14"	"4ajc6z"	"600"	"1366"	"chrome"	"109.0.0"	"FALSE"	"Windows 10"	"61.24"	"015"	n/a	n/a	n/a	n/a	n/a	n/a	"Trial"	n/a	n/a	n/a	"1031"	"arrowright"	n/a	"NULL"	"NULL"	"NULL"	"stimuli/Ebbinghaus_-0.35714_-0.11071.png"	n/a	"Ebbinghaus"	"arrowright"	"1511"	"TRUE"	"Ebbinghaus"	"-0.357140000"	"-0.110710000"	"2"	"15"
n/a	"html-keyboard-response"	"214"	"579405"	"0.0-6.0-2.0-0.15"	"4ajc6z"	"600"	"1366"	"chrome"	"109.0.0"	"FALSE"	"Windows 10"	"61.24"	"015"	n/a	n/a	n/a	n/a	n/a	n/a	"fixation"	n/a	n/a	n/a	n/a	"NULL"	n/a	"NULL"	"NULL"	"NULL"	"<p style=\"color: black; font-size: 80px; padding-left: 7%; padding-right: 9%; padding-top: 18%; padding-bottom: 24%\">+</p>"	"1046"	n/a	n/a	n/a	n/a	n/a	n/a	n/a	n/a	n/a
n/a	"image-keyboard-response"	"215"	"580340"	"0.0-6.0-2.0-1.15"	"4ajc6z"	"600"	"1366"	"chrome"	"109.0.0"	"FALSE"	"Windows 10"	"61.24"	"015"	n/a	n/a	n/a	n/a	n/a	n/a	"Trial"	n/a	n/a	n/a	"933"	"arrowleft"	n/a	"NULL"	"NULL"	"NULL"	"stimuli/Ebbinghaus_0.87143_0.21500.png"	n/a	"Ebbinghaus"	"arrowleft"	"1059"	"TRUE"	"Ebbinghaus"	"0.8714300000"	"0.2150000000"	"2"	"16"
n/a	"html-keyboard-response"	"216"	"581376"	"0.0-6.0-2.0-0.16"	"4ajc6z"	"600"	"1366"	"chrome"	"109.0.0"	"FALSE"	"Windows 10"	"61.24"	"015"	n/a	n/a	n/a	n/a	n/a	n/a	"fixation"	n/a	n/a	n/a	n/a	"NULL"	n/a	"NULL"	"NULL"	"NULL"	"<p style=\"color: black; font-size: 80px; padding-left: 34%; padding-right: 38%; padding-top: 35%; padding-bottom: 21%\">+</p>"	"1018"	n/a	n/a	n/a	n/a	n/a	n/a	n/a	n/a	n/a
n/a	"image-keyboard-response"	"217"	"581992"	"0.0-6.0-2.0-1.16"	"4ajc6z"	"600"	"1366"	"chrome"	"109.0.0"	"FALSE"	"Windows 10"	"61.24"	"015"	n/a	n/a	n/a	n/a	n/a	n/a	"Trial"	n/a	n/a	n/a	"613"	"arrowright"	n/a	"NULL"	"NULL"	"NULL"	"stimuli/Ebbinghaus_0.87143_-0.15857.png"	n/a	"Ebbinghaus"	"arrowright"	"1036"	"TRUE"	"Ebbinghaus"	"0.8714300000"	"-0.158570000"	"2"	"17"
n/a	"html-keyboard-response"	"218"	"583012"	"0.0-6.0-2.0-0.17"	"4ajc6z"	"600"	"1366"	"chrome"	"109.0.0"	"FALSE"	"Windows 10"	"61.24"	"015"	n/a	n/a	n/a	n/a	n/a	n/a	"fixation"	n/a	n/a	n/a	n/a	"NULL"	n/a	"NULL"	"NULL"	"NULL"	"<p style=\"color: black; font-size: 80px; padding-left: 17%; padding-right: 42%; padding-top: 15%; padding-bottom: 14%\">+</p>"	"1007"	n/a	n/a	n/a	n/a	n/a	n/a	n/a	n/a	n/a
n/a	"image-keyboard-response"	"219"	"584196"	"0.0-6.0-2.0-1.17"	"4ajc6z"	"600"	"1366"	"chrome"	"109.0.0"	"FALSE"	"Windows 10"	"61.24"	"015"	n/a	n/a	n/a	n/a	n/a	n/a	"Trial"	n/a	n/a	n/a	"1183"	"arrowright"	n/a	"NULL"	"NULL"	"NULL"	"stimuli/Ebbinghaus_0.10000_-0.15857.png"	n/a	"Ebbinghaus"	"arrowright"	"1020"	"TRUE"	"Ebbinghaus"	"0.1000000000"	"-0.158570000"	"2"	"18"
n/a	"html-keyboard-response"	"220"	"585698"	"0.0-6.0-2.0-0.18"	"4ajc6z"	"600"	"1366"	"chrome"	"109.0.0"	"FALSE"	"Windows 10"	"61.24"	"015"	n/a	n/a	n/a	n/a	n/a	n/a	"fixation"	n/a	n/a	n/a	n/a	"NULL"	n/a	"NULL"	"NULL"	"NULL"	"<p style=\"color: black; font-size: 80px; padding-left: 45%; padding-right: 18%; padding-top: 20%; padding-bottom: 20%\">+</p>"	"1489"	n/a	n/a	n/a	n/a	n/a	n/a	n/a	n/a	n/a
n/a	"image-keyboard-response"	"221"	"586369"	"0.0-6.0-2.0-1.18"	"4ajc6z"	"600"	"1366"	"chrome"	"109.0.0"	"FALSE"	"Windows 10"	"61.24"	"015"	n/a	n/a	n/a	n/a	n/a	n/a	"Trial"	n/a	n/a	n/a	"669"	"arrowleft"	n/a	"NULL"	"NULL"	"NULL"	"stimuli/Ebbinghaus_-0.87143_0.15857.png"	n/a	"Ebbinghaus"	"arrowleft"	"1502"	"TRUE"	"Ebbinghaus"	"-0.871430000"	"0.1585700000"	"2"	"19"
n/a	"html-keyboard-response"	"222"	"587761"	"0.0-6.0-2.0-0.19"	"4ajc6z"	"600"	"1366"	"chrome"	"109.0.0"	"FALSE"	"Windows 10"	"61.24"	"015"	n/a	n/a	n/a	n/a	n/a	n/a	"fixation"	n/a	n/a	n/a	n/a	"NULL"	n/a	"NULL"	"NULL"	"NULL"	"<p style=\"color: black; font-size: 80px; padding-left: 30%; padding-right: 1%; padding-top: 19%; padding-bottom: 42%\">+</p>"	"1377"	n/a	n/a	n/a	n/a	n/a	n/a	n/a	n/a	n/a
n/a	"image-keyboard-response"	"223"	"588373"	"0.0-6.0-2.0-1.19"	"4ajc6z"	"600"	"1366"	"chrome"	"109.0.0"	"FALSE"	"Windows 10"	"61.24"	"015"	n/a	n/a	n/a	n/a	n/a	n/a	"Trial"	n/a	n/a	n/a	"611"	"arrowright"	n/a	"NULL"	"NULL"	"NULL"	"stimuli/Ebbinghaus_-0.61429_-0.2800.png"	n/a	"Ebbinghaus"	"arrowright"	"1392"	"TRUE"	"Ebbinghaus"	"-0.614290000"	"-0.280000000"	"2"	"20"
n/a	"html-keyboard-response"	"224"	"589686"	"0.0-6.0-2.0-0.20"	"4ajc6z"	"600"	"1366"	"chrome"	"109.0.0"	"FALSE"	"Windows 10"	"61.24"	"015"	n/a	n/a	n/a	n/a	n/a	n/a	"fixation"	n/a	n/a	n/a	n/a	"NULL"	n/a	"NULL"	"NULL"	"NULL"	"<p style=\"color: black; font-size: 80px; padding-left: 25%; padding-right: 50%; padding-top: 36%; padding-bottom: 39%\">+</p>"	"1306"	n/a	n/a	n/a	n/a	n/a	n/a	n/a	n/a	n/a
n/a	"image-keyboard-response"	"225"	"592095"	"0.0-6.0-2.0-1.20"	"4ajc6z"	"600"	"1366"	"chrome"	"109.0.0"	"FALSE"	"Windows 10"	"61.24"	"015"	n/a	n/a	n/a	n/a	n/a	n/a	"Trial"	n/a	n/a	n/a	"2409"	"arrowright"	n/a	"NULL"	"NULL"	"NULL"	"stimuli/Ebbinghaus_0.87143_-0.2150.png"	n/a	"Ebbinghaus"	"arrowright"	"1313"	"TRUE"	"Ebbinghaus"	"0.8714300000"	"-0.215000000"	"2"	"21"
n/a	"html-keyboard-response"	"226"	"593456"	"0.0-6.0-2.0-0.21"	"4ajc6z"	"600"	"1366"	"chrome"	"109.0.0"	"FALSE"	"Windows 10"	"61.24"	"015"	n/a	n/a	n/a	n/a	n/a	n/a	"fixation"	n/a	n/a	n/a	n/a	"NULL"	n/a	"NULL"	"NULL"	"NULL"	"<p style=\"color: black; font-size: 80px; padding-left: 3%; padding-right: 35%; padding-top: 42%; padding-bottom: 3%\">+</p>"	"1352"	n/a	n/a	n/a	n/a	n/a	n/a	n/a	n/a	n/a
n/a	"image-keyboard-response"	"227"	"595318"	"0.0-6.0-2.0-1.21"	"4ajc6z"	"600"	"1366"	"chrome"	"109.0.0"	"FALSE"	"Windows 10"	"61.24"	"015"	n/a	n/a	n/a	n/a	n/a	n/a	"Trial"	n/a	n/a	n/a	"1862"	"arrowright"	n/a	"NULL"	"NULL"	"NULL"	"stimuli/Ebbinghaus_0.35714_-0.15857.png"	n/a	"Ebbinghaus"	"arrowright"	"1361"	"TRUE"	"Ebbinghaus"	"0.3571400000"	"-0.158570000"	"2"	"22"
n/a	"html-keyboard-response"	"228"	"596417"	"0.0-6.0-2.0-0.22"	"4ajc6z"	"600"	"1366"	"chrome"	"109.0.0"	"FALSE"	"Windows 10"	"61.24"	"015"	n/a	n/a	n/a	n/a	n/a	n/a	"fixation"	n/a	n/a	n/a	n/a	"NULL"	n/a	"NULL"	"NULL"	"NULL"	"<p style=\"color: black; font-size: 80px; padding-left: 26%; padding-right: 30%; padding-top: 4%; padding-bottom: 3%\">+</p>"	"1086"	n/a	n/a	n/a	n/a	n/a	n/a	n/a	n/a	n/a
n/a	"image-keyboard-response"	"229"	"597289"	"0.0-6.0-2.0-1.22"	"4ajc6z"	"600"	"1366"	"chrome"	"109.0.0"	"FALSE"	"Windows 10"	"61.24"	"015"	n/a	n/a	n/a	n/a	n/a	n/a	"Trial"	n/a	n/a	n/a	"870"	"arrowleft"	n/a	"NULL"	"NULL"	"NULL"	"stimuli/Ebbinghaus_0.87143_-0.11071.png"	n/a	"Ebbinghaus"	"arrowright"	"1099"	"FALSE"	"Ebbinghaus"	"0.8714300000"	"-0.110710000"	"2"	"23"
n/a	"html-keyboard-response"	"230"	"598505"	"0.0-6.0-2.0-0.23"	"4ajc6z"	"600"	"1366"	"chrome"	"109.0.0"	"FALSE"	"Windows 10"	"61.24"	"015"	n/a	n/a	n/a	n/a	n/a	n/a	"fixation"	n/a	n/a	n/a	n/a	"NULL"	n/a	"NULL"	"NULL"	"NULL"	"<p style=\"color: black; font-size: 80px; padding-left: 31%; padding-right: 29%; padding-top: 47%; padding-bottom: 45%\">+</p>"	"1208"	n/a	n/a	n/a	n/a	n/a	n/a	n/a	n/a	n/a
n/a	"image-keyboard-response"	"231"	"599110"	"0.0-6.0-2.0-1.23"	"4ajc6z"	"600"	"1366"	"chrome"	"109.0.0"	"FALSE"	"Windows 10"	"61.24"	"015"	n/a	n/a	n/a	n/a	n/a	n/a	"Trial"	n/a	n/a	n/a	"604"	"arrowright"	n/a	"NULL"	"NULL"	"NULL"	"stimuli/Ebbinghaus_0.35714_-0.2800.png"	n/a	"Ebbinghaus"	"arrowright"	"1216"	"TRUE"	"Ebbinghaus"	"0.3571400000"	"-0.280000000"	"2"	"24"
n/a	"html-keyboard-response"	"232"	"600341"	"0.0-6.0-2.0-0.24"	"4ajc6z"	"600"	"1366"	"chrome"	"109.0.0"	"FALSE"	"Windows 10"	"61.24"	"015"	n/a	n/a	n/a	n/a	n/a	n/a	"fixation"	n/a	n/a	n/a	n/a	"NULL"	n/a	"NULL"	"NULL"	"NULL"	"<p style=\"color: black; font-size: 80px; padding-left: 3%; padding-right: 30%; padding-top: 45%; padding-bottom: 12%\">+</p>"	"1215"	n/a	n/a	n/a	n/a	n/a	n/a	n/a	n/a	n/a
n/a	"image-keyboard-response"	"233"	"600960"	"0.0-6.0-2.0-1.24"	"4ajc6z"	"600"	"1366"	"chrome"	"109.0.0"	"FALSE"	"Windows 10"	"61.24"	"015"	n/a	n/a	n/a	n/a	n/a	n/a	"Trial"	n/a	n/a	n/a	"618"	"arrowleft"	n/a	"NULL"	"NULL"	"NULL"	"stimuli/Ebbinghaus_-0.61429_0.21500.png"	n/a	"Ebbinghaus"	"arrowleft"	"1231"	"TRUE"	"Ebbinghaus"	"-0.614290000"	"0.2150000000"	"2"	"25"
n/a	"html-keyboard-response"	"234"	"602311"	"0.0-6.0-2.0-0.25"	"4ajc6z"	"600"	"1366"	"chrome"	"109.0.0"	"FALSE"	"Windows 10"	"61.24"	"015"	n/a	n/a	n/a	n/a	n/a	n/a	"fixation"	n/a	n/a	n/a	n/a	"NULL"	n/a	"NULL"	"NULL"	"NULL"	"<p style=\"color: black; font-size: 80px; padding-left: 16%; padding-right: 34%; padding-top: 30%; padding-bottom: 42%\">+</p>"	"1333"	n/a	n/a	n/a	n/a	n/a	n/a	n/a	n/a	n/a
n/a	"image-keyboard-response"	"235"	"602901"	"0.0-6.0-2.0-1.25"	"4ajc6z"	"600"	"1366"	"chrome"	"109.0.0"	"FALSE"	"Windows 10"	"61.24"	"015"	n/a	n/a	n/a	n/a	n/a	n/a	"Trial"	n/a	n/a	n/a	"575"	"arrowright"	n/a	"NULL"	"NULL"	"NULL"	"stimuli/Ebbinghaus_-0.1000_-0.2800.png"	n/a	"Ebbinghaus"	"arrowright"	"1351"	"TRUE"	"Ebbinghaus"	"-0.100000000"	"-0.280000000"	"2"	"26"
n/a	"html-keyboard-response"	"236"	"604140"	"0.0-6.0-2.0-0.26"	"4ajc6z"	"600"	"1366"	"chrome"	"109.0.0"	"FALSE"	"Windows 10"	"61.24"	"015"	n/a	n/a	n/a	n/a	n/a	n/a	"fixation"	n/a	n/a	n/a	n/a	"NULL"	n/a	"NULL"	"NULL"	"NULL"	"<p style=\"color: black; font-size: 80px; padding-left: 6%; padding-right: 44%; padding-top: 37%; padding-bottom: 27%\">+</p>"	"1229"	n/a	n/a	n/a	n/a	n/a	n/a	n/a	n/a	n/a
n/a	"image-keyboard-response"	"237"	"604671"	"0.0-6.0-2.0-1.26"	"4ajc6z"	"600"	"1366"	"chrome"	"109.0.0"	"FALSE"	"Windows 10"	"61.24"	"015"	n/a	n/a	n/a	n/a	n/a	n/a	"Trial"	n/a	n/a	n/a	"529"	"arrowleft"	n/a	"NULL"	"NULL"	"NULL"	"stimuli/Ebbinghaus_-0.61429_0.15857.png"	n/a	"Ebbinghaus"	"arrowleft"	"1239"	"TRUE"	"Ebbinghaus"	"-0.614290000"	"0.1585700000"	"2"	"27"
n/a	"html-keyboard-response"	"238"	"606017"	"0.0-6.0-2.0-0.27"	"4ajc6z"	"600"	"1366"	"chrome"	"109.0.0"	"FALSE"	"Windows 10"	"61.24"	"015"	n/a	n/a	n/a	n/a	n/a	n/a	"fixation"	n/a	n/a	n/a	n/a	"NULL"	n/a	"NULL"	"NULL"	"NULL"	"<p style=\"color: black; font-size: 80px; padding-left: 26%; padding-right: 49%; padding-top: 1%; padding-bottom: 30%\">+</p>"	"1331"	n/a	n/a	n/a	n/a	n/a	n/a	n/a	n/a	n/a
n/a	"image-keyboard-response"	"239"	"606550"	"0.0-6.0-2.0-1.27"	"4ajc6z"	"600"	"1366"	"chrome"	"109.0.0"	"FALSE"	"Windows 10"	"61.24"	"015"	n/a	n/a	n/a	n/a	n/a	n/a	"Trial"	n/a	n/a	n/a	"532"	"arrowleft"	n/a	"NULL"	"NULL"	"NULL"	"stimuli/Ebbinghaus_0.61429_0.21500.png"	n/a	"Ebbinghaus"	"arrowleft"	"1346"	"TRUE"	"Ebbinghaus"	"0.6142900000"	"0.2150000000"	"2"	"28"
n/a	"html-keyboard-response"	"240"	"607849"	"0.0-6.0-2.0-0.28"	"4ajc6z"	"600"	"1366"	"chrome"	"109.0.0"	"FALSE"	"Windows 10"	"61.24"	"015"	n/a	n/a	n/a	n/a	n/a	n/a	"fixation"	n/a	n/a	n/a	n/a	"NULL"	n/a	"NULL"	"NULL"	"NULL"	"<p style=\"color: black; font-size: 80px; padding-left: 18%; padding-right: 30%; padding-top: 13%; padding-bottom: 42%\">+</p>"	"1286"	n/a	n/a	n/a	n/a	n/a	n/a	n/a	n/a	n/a
n/a	"image-keyboard-response"	"241"	"608652"	"0.0-6.0-2.0-1.28"	"4ajc6z"	"600"	"1366"	"chrome"	"109.0.0"	"FALSE"	"Windows 10"	"61.24"	"015"	n/a	n/a	n/a	n/a	n/a	n/a	"Trial"	n/a	n/a	n/a	"802"	"arrowright"	n/a	"NULL"	"NULL"	"NULL"	"stimuli/Ebbinghaus_0.61429_-0.2150.png"	n/a	"Ebbinghaus"	"arrowright"	"1299"	"TRUE"	"Ebbinghaus"	"0.6142900000"	"-0.215000000"	"2"	"29"
n/a	"html-keyboard-response"	"242"	"609900"	"0.0-6.0-2.0-0.29"	"4ajc6z"	"600"	"1366"	"chrome"	"109.0.0"	"FALSE"	"Windows 10"	"61.24"	"015"	n/a	n/a	n/a	n/a	n/a	n/a	"fixation"	n/a	n/a	n/a	n/a	"NULL"	n/a	"NULL"	"NULL"	"NULL"	"<p style=\"color: black; font-size: 80px; padding-left: 24%; padding-right: 40%; padding-top: 8%; padding-bottom: 14%\">+</p>"	"1233"	n/a	n/a	n/a	n/a	n/a	n/a	n/a	n/a	n/a
n/a	"image-keyboard-response"	"243"	"610646"	"0.0-6.0-2.0-1.29"	"4ajc6z"	"600"	"1366"	"chrome"	"109.0.0"	"FALSE"	"Windows 10"	"61.24"	"015"	n/a	n/a	n/a	n/a	n/a	n/a	"Trial"	n/a	n/a	n/a	"745"	"arrowright"	n/a	"NULL"	"NULL"	"NULL"	"stimuli/Ebbinghaus_-0.61429_-0.11071.png"	n/a	"Ebbinghaus"	"arrowright"	"1248"	"TRUE"	"Ebbinghaus"	"-0.614290000"	"-0.110710000"	"2"	"30"
n/a	"html-keyboard-response"	"244"	"611836"	"0.0-6.0-2.0-0.30"	"4ajc6z"	"600"	"1366"	"chrome"	"109.0.0"	"FALSE"	"Windows 10"	"61.24"	"015"	n/a	n/a	n/a	n/a	n/a	n/a	"fixation"	n/a	n/a	n/a	n/a	"NULL"	n/a	"NULL"	"NULL"	"NULL"	"<p style=\"color: black; font-size: 80px; padding-left: 5%; padding-right: 21%; padding-top: 47%; padding-bottom: 27%\">+</p>"	"1176"	n/a	n/a	n/a	n/a	n/a	n/a	n/a	n/a	n/a
n/a	"image-keyboard-response"	"245"	"612482"	"0.0-6.0-2.0-1.30"	"4ajc6z"	"600"	"1366"	"chrome"	"109.0.0"	"FALSE"	"Windows 10"	"61.24"	"015"	n/a	n/a	n/a	n/a	n/a	n/a	"Trial"	n/a	n/a	n/a	"645"	"arrowright"	n/a	"NULL"	"NULL"	"NULL"	"stimuli/Ebbinghaus_-0.87143_-0.11071.png"	n/a	"Ebbinghaus"	"arrowright"	"1190"	"TRUE"	"Ebbinghaus"	"-0.871430000"	"-0.110710000"	"2"	"31"
n/a	"html-keyboard-response"	"246"	"613671"	"0.0-6.0-2.0-0.31"	"4ajc6z"	"600"	"1366"	"chrome"	"109.0.0"	"FALSE"	"Windows 10"	"61.24"	"015"	n/a	n/a	n/a	n/a	n/a	n/a	"fixation"	n/a	n/a	n/a	n/a	"NULL"	n/a	"NULL"	"NULL"	"NULL"	"<p style=\"color: black; font-size: 80px; padding-left: 41%; padding-right: 30%; padding-top: 35%; padding-bottom: 6%\">+</p>"	"1177"	n/a	n/a	n/a	n/a	n/a	n/a	n/a	n/a	n/a
n/a	"image-keyboard-response"	"247"	"614300"	"0.0-6.0-2.0-1.31"	"4ajc6z"	"600"	"1366"	"chrome"	"109.0.0"	"FALSE"	"Windows 10"	"61.24"	"015"	n/a	n/a	n/a	n/a	n/a	n/a	"Trial"	n/a	n/a	n/a	"629"	"arrowleft"	n/a	"NULL"	"NULL"	"NULL"	"stimuli/Ebbinghaus_0.35714_0.15857.png"	n/a	"Ebbinghaus"	"arrowleft"	"1189"	"TRUE"	"Ebbinghaus"	"0.3571400000"	"0.1585700000"	"2"	"32"
n/a	"html-keyboard-response"	"248"	"615685"	"0.0-6.0-2.0-0.32"	"4ajc6z"	"600"	"1366"	"chrome"	"109.0.0"	"FALSE"	"Windows 10"	"61.24"	"015"	n/a	n/a	n/a	n/a	n/a	n/a	"fixation"	n/a	n/a	n/a	n/a	"NULL"	n/a	"NULL"	"NULL"	"NULL"	"<p style=\"color: black; font-size: 80px; padding-left: 33%; padding-right: 26%; padding-top: 6%; padding-bottom: 27%\">+</p>"	"1381"	n/a	n/a	n/a	n/a	n/a	n/a	n/a	n/a	n/a
