"success"	"trial_type"	"trial_index"	"time_elapsed"	"internal_node_id"	"participant_id"	"screen_height"	"screen_width"	"browser"	"browser_version"	"mobile"	"os"	"vsync_rate"	"subject_id"	"width"	"height"	"webaudio"	"fullscreen"	"webcam"	"microphone"	"screen"	"version"	"date"	"time"	"rt"	"response"	"timeout"	"failed_images"	"failed_audio"	"failed_video"	"stimulus"	"trial_duration"	"block"	"correct_response"	"prestimulus_duration"	"correct"	"type"	"illusion_strength"	"illusion_difference"	"block_number"	"trial_number"
"TRUE"	"fullscreen"	"0"	"1231"	"0.0-0.0"	"exq7hc"	"600"	"1366"	"chrome"	"111.0.0"	"FALSE"	"Windows 10"	"60.34"	"065"	n/a	n/a	n/a	n/a	n/a	n/a	n/a	n/a	n/a	n/a	n/a	"NULL"	n/a	"NULL"	"NULL"	"NULL"	n/a	n/a	n/a	n/a	n/a	n/a	n/a	n/a	n/a	n/a	n/a
n/a	"browser-check"	"1"	"2245"	"0.0-1.0"	"exq7hc"	"600"	"1366"	"chrome"	"111.0.0"	"FALSE"	"Windows 10"	"60.34"	"065"	"1366"	"600"	"TRUE"	"TRUE"	"TRUE"	"TRUE"	"browser_info"	"1.0"	"30/03/2023"	"18:23:23"	n/a	"NULL"	n/a	"NULL"	"NULL"	"NULL"	n/a	n/a	n/a	n/a	n/a	n/a	n/a	n/a	n/a	n/a	n/a
n/a	"survey-text"	"2"	"5345"	"0.0-2.0"	"exq7hc"	"600"	"1366"	"chrome"	"111.0.0"	"FALSE"	"Windows 10"	"60.34"	"065"	n/a	n/a	n/a	n/a	n/a	n/a	"subject_id"	n/a	n/a	n/a	"3095"	"list(subject_id = \"065\")"	n/a	"NULL"	"NULL"	"NULL"	n/a	n/a	n/a	n/a	n/a	n/a	n/a	n/a	n/a	n/a	n/a
"TRUE"	"preload"	"3"	"5360"	"0.0-3.0"	"exq7hc"	"600"	"1366"	"chrome"	"111.0.0"	"FALSE"	"Windows 10"	"60.34"	"065"	n/a	n/a	n/a	n/a	n/a	n/a	n/a	n/a	n/a	n/a	n/a	"NULL"	"FALSE"	"list()"	"list()"	"list()"	n/a	n/a	n/a	n/a	n/a	n/a	n/a	n/a	n/a	n/a	n/a
n/a	"html-button-response"	"4"	"19125"	"0.0-4.0-0.0"	"exq7hc"	"600"	"1366"	"chrome"	"111.0.0"	"FALSE"	"Windows 10"	"60.34"	"065"	n/a	n/a	n/a	n/a	n/a	n/a	"illusion_instructions"	n/a	n/a	n/a	"13765"	"0"	n/a	"NULL"	"NULL"	"NULL"	"<p><b>Illusion Game</b></p><p>In this game of speed and reflex, you will need to make <b>visual judgments</b> (for instance, which circle is the biggest, or which line is the longest), as fast and as correctly as possible, while <b>resisting different visual illusions</b>.</p><p>We are going to start with some examples of all the illusions you will encounter in the game.</p>"	n/a	n/a	n/a	n/a	n/a	n/a	n/a	n/a	n/a	n/a
"TRUE"	"preload"	"5"	"19713"	"0.0-4.0-1.0-0.0"	"exq7hc"	"600"	"1366"	"chrome"	"111.0.0"	"FALSE"	"Windows 10"	"60.34"	"065"	n/a	n/a	n/a	n/a	n/a	n/a	n/a	n/a	n/a	n/a	n/a	"NULL"	"FALSE"	"list()"	"list()"	"list()"	n/a	n/a	n/a	n/a	n/a	n/a	n/a	n/a	n/a	n/a	n/a
n/a	"html-keyboard-response"	"6"	"43915"	"0.0-4.0-1.0-1.0"	"exq7hc"	"600"	"1366"	"chrome"	"111.0.0"	"FALSE"	"Windows 10"	"60.34"	"065"	n/a	n/a	n/a	n/a	n/a	n/a	n/a	n/a	n/a	n/a	"24201"	"enter"	n/a	"NULL"	"NULL"	"NULL"	"<p><b>Practice</b></p><p>In this part, two red circles will appear side by side on the screen.</p><p>Your task is to select which <b>red circle is bigger</b> in size as fast as you can, without making errors.</p><p>Don't get distracted by the surrounding black circles around the red circles!</p><p>Press <b>the LEFT or the RIGHT arrow</b> to indicate which is the bigger <b>red circle.</b></p><div style='float: center'><img src='materials/instructions/Ebbinghaus_Demo.png' height='300'></img><p><img src='utils/answer/answer_leftright_keyboard.PNG' height='150'></img></p><p class='small'>In this example, the correct answer is the <b>LEFT arrow</b>.</p></div><p>Are you ready? <b>Press ENTER to start</b></p>"	n/a	n/a	n/a	n/a	n/a	n/a	n/a	n/a	n/a	n/a
n/a	"html-keyboard-response"	"7"	"45672"	"0.0-4.0-1.0-2.0-0.0"	"exq7hc"	"600"	"1366"	"chrome"	"111.0.0"	"FALSE"	"Windows 10"	"60.34"	"065"	n/a	n/a	n/a	n/a	n/a	n/a	"fixation"	n/a	n/a	n/a	n/a	"NULL"	n/a	"NULL"	"NULL"	"NULL"	"<p style=\"color: black; font-size: 80px; padding-left: 20%; padding-right: 17%; padding-top: 17%; padding-bottom: 6%\">+</p>"	"1253"	n/a	n/a	n/a	n/a	n/a	n/a	n/a	n/a	n/a
n/a	"image-keyboard-response"	"8"	"47192"	"0.0-4.0-1.0-2.0-1.0"	"exq7hc"	"600"	"1366"	"chrome"	"111.0.0"	"FALSE"	"Windows 10"	"60.34"	"065"	n/a	n/a	n/a	n/a	n/a	n/a	"Trial"	n/a	n/a	n/a	"1498"	"arrowleft"	n/a	"NULL"	"NULL"	"NULL"	"stimuli/Ebbinghaus_1000000_1.40000.png"	n/a	"Ebbinghaus"	"arrowleft"	"1757"	"TRUE"	"Ebbinghaus"	"100000000000"	"1.4000000000"	"1"	"1"
n/a	"html-keyboard-response"	"9"	"48274"	"0.0-4.0-1.0-2.0-0.1"	"exq7hc"	"600"	"1366"	"chrome"	"111.0.0"	"FALSE"	"Windows 10"	"60.34"	"065"	n/a	n/a	n/a	n/a	n/a	n/a	"fixation"	n/a	n/a	n/a	n/a	"NULL"	n/a	"NULL"	"NULL"	"NULL"	"<p style=\"color: black; font-size: 80px; padding-left: 48%; padding-right: 7%; padding-top: 7%; padding-bottom: 50%\">+</p>"	"1080"	n/a	n/a	n/a	n/a	n/a	n/a	n/a	n/a	n/a
n/a	"image-keyboard-response"	"10"	"48978"	"0.0-4.0-1.0-2.0-1.1"	"exq7hc"	"600"	"1366"	"chrome"	"111.0.0"	"FALSE"	"Windows 10"	"60.34"	"065"	n/a	n/a	n/a	n/a	n/a	n/a	"Trial"	n/a	n/a	n/a	"703"	"arrowleft"	n/a	"NULL"	"NULL"	"NULL"	"stimuli/Ebbinghaus_0000000_1.40000.png"	n/a	"Ebbinghaus"	"arrowleft"	"1082"	"TRUE"	"Ebbinghaus"	"000000000000"	"1.4000000000"	"1"	"2"
n/a	"html-keyboard-response"	"11"	"50256"	"0.0-4.0-1.0-2.0-0.2"	"exq7hc"	"600"	"1366"	"chrome"	"111.0.0"	"FALSE"	"Windows 10"	"60.34"	"065"	n/a	n/a	n/a	n/a	n/a	n/a	"fixation"	n/a	n/a	n/a	n/a	"NULL"	n/a	"NULL"	"NULL"	"NULL"	"<p style=\"color: black; font-size: 80px; padding-left: 26%; padding-right: 9%; padding-top: 9%; padding-bottom: 8%\">+</p>"	"1277"	n/a	n/a	n/a	n/a	n/a	n/a	n/a	n/a	n/a
n/a	"image-keyboard-response"	"12"	"51608"	"0.0-4.0-1.0-2.0-1.2"	"exq7hc"	"600"	"1366"	"chrome"	"111.0.0"	"FALSE"	"Windows 10"	"60.34"	"065"	n/a	n/a	n/a	n/a	n/a	n/a	"Trial"	n/a	n/a	n/a	"1351"	"arrowleft"	n/a	"NULL"	"NULL"	"NULL"	"stimuli/Ebbinghaus_-100000_1.40000.png"	n/a	"Ebbinghaus"	"arrowleft"	"1278"	"TRUE"	"Ebbinghaus"	"-10000000000"	"1.4000000000"	"1"	"3"
n/a	"html-keyboard-response"	"13"	"52679"	"0.0-4.0-1.0-2.0-0.3"	"exq7hc"	"600"	"1366"	"chrome"	"111.0.0"	"FALSE"	"Windows 10"	"60.34"	"065"	n/a	n/a	n/a	n/a	n/a	n/a	"fixation"	n/a	n/a	n/a	n/a	"NULL"	n/a	"NULL"	"NULL"	"NULL"	"<p style=\"color: black; font-size: 80px; padding-left: 47%; padding-right: 18%; padding-top: 25%; padding-bottom: 11%\">+</p>"	"1058"	n/a	n/a	n/a	n/a	n/a	n/a	n/a	n/a	n/a
n/a	"image-keyboard-response"	"14"	"53182"	"0.0-4.0-1.0-2.0-1.3"	"exq7hc"	"600"	"1366"	"chrome"	"111.0.0"	"FALSE"	"Windows 10"	"60.34"	"065"	n/a	n/a	n/a	n/a	n/a	n/a	"Trial"	n/a	n/a	n/a	"502"	"arrowright"	n/a	"NULL"	"NULL"	"NULL"	"stimuli/Ebbinghaus_1000000_-1.4000.png"	n/a	"Ebbinghaus"	"arrowright"	"1071"	"TRUE"	"Ebbinghaus"	"100000000000"	"-1.400000000"	"1"	"4"
n/a	"html-keyboard-response"	"15"	"54418"	"0.0-4.0-1.0-2.0-0.4"	"exq7hc"	"600"	"1366"	"chrome"	"111.0.0"	"FALSE"	"Windows 10"	"60.34"	"065"	n/a	n/a	n/a	n/a	n/a	n/a	"fixation"	n/a	n/a	n/a	n/a	"NULL"	n/a	"NULL"	"NULL"	"NULL"	"<p style=\"color: black; font-size: 80px; padding-left: 13%; padding-right: 7%; padding-top: 5%; padding-bottom: 38%\">+</p>"	"1232"	n/a	n/a	n/a	n/a	n/a	n/a	n/a	n/a	n/a
n/a	"image-keyboard-response"	"16"	"54985"	"0.0-4.0-1.0-2.0-1.4"	"exq7hc"	"600"	"1366"	"chrome"	"111.0.0"	"FALSE"	"Windows 10"	"60.34"	"065"	n/a	n/a	n/a	n/a	n/a	n/a	"Trial"	n/a	n/a	n/a	"567"	"arrowright"	n/a	"NULL"	"NULL"	"NULL"	"stimuli/Ebbinghaus_-100000_-1.4000.png"	n/a	"Ebbinghaus"	"arrowright"	"1236"	"TRUE"	"Ebbinghaus"	"-10000000000"	"-1.400000000"	"1"	"5"
n/a	"html-keyboard-response"	"17"	"56369"	"0.0-4.0-1.0-2.0-0.5"	"exq7hc"	"600"	"1366"	"chrome"	"111.0.0"	"FALSE"	"Windows 10"	"60.34"	"065"	n/a	n/a	n/a	n/a	n/a	n/a	"fixation"	n/a	n/a	n/a	n/a	"NULL"	n/a	"NULL"	"NULL"	"NULL"	"<p style=\"color: black; font-size: 80px; padding-left: 42%; padding-right: 9%; padding-top: 6%; padding-bottom: 38%\">+</p>"	"1378"	n/a	n/a	n/a	n/a	n/a	n/a	n/a	n/a	n/a
n/a	"image-keyboard-response"	"18"	"56797"	"0.0-4.0-1.0-2.0-1.5"	"exq7hc"	"600"	"1366"	"chrome"	"111.0.0"	"FALSE"	"Windows 10"	"60.34"	"065"	n/a	n/a	n/a	n/a	n/a	n/a	"Trial"	n/a	n/a	n/a	"428"	"arrowright"	n/a	"NULL"	"NULL"	"NULL"	"stimuli/Ebbinghaus_0000000_-1.4000.png"	n/a	"Ebbinghaus"	"arrowright"	"1384"	"TRUE"	"Ebbinghaus"	"000000000000"	"-1.400000000"	"1"	"6"
n/a	"html-button-response"	"19"	"69052"	"0.0-4.0-1.0-3.0"	"exq7hc"	"600"	"1366"	"chrome"	"111.0.0"	"FALSE"	"Windows 10"	"60.34"	"065"	n/a	n/a	n/a	n/a	n/a	n/a	"practice_block_results"	n/a	n/a	n/a	"12253"	"0"	n/a	"NULL"	"NULL"	"NULL"	"<p style='color:rgb(76,175,80);'> Correct Responses: <b>100.00%</b></p><hr><p style='color:rgb(233,30,99);'> Average Response Time: <b>841.50</b> ms.</p>"	n/a	n/a	n/a	n/a	n/a	n/a	n/a	n/a	n/a	n/a
"TRUE"	"preload"	"20"	"69574"	"0.0-4.0-2.0-0.0"	"exq7hc"	"600"	"1366"	"chrome"	"111.0.0"	"FALSE"	"Windows 10"	"60.34"	"065"	n/a	n/a	n/a	n/a	n/a	n/a	n/a	n/a	n/a	n/a	n/a	"NULL"	"FALSE"	"list()"	"list()"	"list()"	n/a	n/a	n/a	n/a	n/a	n/a	n/a	n/a	n/a	n/a	n/a
n/a	"html-keyboard-response"	"21"	"81569"	"0.0-4.0-2.0-1.0"	"exq7hc"	"600"	"1366"	"chrome"	"111.0.0"	"FALSE"	"Windows 10"	"60.34"	"065"	n/a	n/a	n/a	n/a	n/a	n/a	n/a	n/a	n/a	n/a	"11994"	"enter"	n/a	"NULL"	"NULL"	"NULL"	"<p><b>Practice</b></p><p>In this part, two horizontal red lines will appear one above the other.</p><p>Your task is to select which <b>line is longer</b> in length as fast as you can, without making errors.</p><p>Don't get distracted by the surrounding black arrows at the end of the red lines!</p><p>Press <b>the UP or the DOWN arrow</b> to indicate where is the longer <b>red line.</b></p><div style='float: center'><img src='materials/instructions/MullerLyer_Demo.png' height='300'></img><p><img src='utils/answer/answer_updown_keyboard.PNG' height='150'></img></p><p class='small'>In this example, the correct answer is the <b>UP arrow</b>.</p></div><p>Are you ready? <b>Press ENTER to start</b></p>"	n/a	n/a	n/a	n/a	n/a	n/a	n/a	n/a	n/a	n/a
n/a	"html-keyboard-response"	"22"	"83506"	"0.0-4.0-2.0-2.0-0.0"	"exq7hc"	"600"	"1366"	"chrome"	"111.0.0"	"FALSE"	"Windows 10"	"60.34"	"065"	n/a	n/a	n/a	n/a	n/a	n/a	"fixation"	n/a	n/a	n/a	n/a	"NULL"	n/a	"NULL"	"NULL"	"NULL"	"<p style=\"color: black; font-size: 80px; padding-left: 39%; padding-right: 16%; padding-top: 5%; padding-bottom: 22%\">+</p>"	"1414"	n/a	n/a	n/a	n/a	n/a	n/a	n/a	n/a	n/a
n/a	"image-keyboard-response"	"23"	"84377"	"0.0-4.0-2.0-2.0-1.0"	"exq7hc"	"600"	"1366"	"chrome"	"111.0.0"	"FALSE"	"Windows 10"	"60.34"	"065"	n/a	n/a	n/a	n/a	n/a	n/a	"Trial"	n/a	n/a	n/a	"869"	"arrowup"	n/a	"NULL"	"NULL"	"NULL"	"stimuli/MullerLyer_2300000_0.70000.png"	n/a	"MullerLyer"	"arrowup"	"1937"	"TRUE"	"MullerLyer"	"230000000000"	"0.7000000000"	"1"	"7"
n/a	"html-keyboard-response"	"24"	"85416"	"0.0-4.0-2.0-2.0-0.1"	"exq7hc"	"600"	"1366"	"chrome"	"111.0.0"	"FALSE"	"Windows 10"	"60.34"	"065"	n/a	n/a	n/a	n/a	n/a	n/a	"fixation"	n/a	n/a	n/a	n/a	"NULL"	n/a	"NULL"	"NULL"	"NULL"	"<p style=\"color: black; font-size: 80px; padding-left: 33%; padding-right: 36%; padding-top: 19%; padding-bottom: 9%\">+</p>"	"1033"	n/a	n/a	n/a	n/a	n/a	n/a	n/a	n/a	n/a
n/a	"image-keyboard-response"	"25"	"85939"	"0.0-4.0-2.0-2.0-1.1"	"exq7hc"	"600"	"1366"	"chrome"	"111.0.0"	"FALSE"	"Windows 10"	"60.34"	"065"	n/a	n/a	n/a	n/a	n/a	n/a	"Trial"	n/a	n/a	n/a	"523"	"arrowup"	n/a	"NULL"	"NULL"	"NULL"	"stimuli/MullerLyer_0000000_0.70000.png"	n/a	"MullerLyer"	"arrowup"	"1039"	"TRUE"	"MullerLyer"	"000000000000"	"0.7000000000"	"1"	"8"
n/a	"html-keyboard-response"	"26"	"87448"	"0.0-4.0-2.0-2.0-0.2"	"exq7hc"	"600"	"1366"	"chrome"	"111.0.0"	"FALSE"	"Windows 10"	"60.34"	"065"	n/a	n/a	n/a	n/a	n/a	n/a	"fixation"	n/a	n/a	n/a	n/a	"NULL"	n/a	"NULL"	"NULL"	"NULL"	"<p style=\"color: black; font-size: 80px; padding-left: 42%; padding-right: 39%; padding-top: 1%; padding-bottom: 8%\">+</p>"	"1494"	n/a	n/a	n/a	n/a	n/a	n/a	n/a	n/a	n/a
n/a	"image-keyboard-response"	"27"	"87991"	"0.0-4.0-2.0-2.0-1.2"	"exq7hc"	"600"	"1366"	"chrome"	"111.0.0"	"FALSE"	"Windows 10"	"60.34"	"065"	n/a	n/a	n/a	n/a	n/a	n/a	"Trial"	n/a	n/a	n/a	"542"	"arrowup"	n/a	"NULL"	"NULL"	"NULL"	"stimuli/MullerLyer_-230000_0.70000.png"	n/a	"MullerLyer"	"arrowup"	"1509"	"TRUE"	"MullerLyer"	"-23000000000"	"0.7000000000"	"1"	"9"
n/a	"html-keyboard-response"	"28"	"89167"	"0.0-4.0-2.0-2.0-0.3"	"exq7hc"	"600"	"1366"	"chrome"	"111.0.0"	"FALSE"	"Windows 10"	"60.34"	"065"	n/a	n/a	n/a	n/a	n/a	n/a	"fixation"	n/a	n/a	n/a	n/a	"NULL"	n/a	"NULL"	"NULL"	"NULL"	"<p style=\"color: black; font-size: 80px; padding-left: 29%; padding-right: 26%; padding-top: 21%; padding-bottom: 25%\">+</p>"	"1168"	n/a	n/a	n/a	n/a	n/a	n/a	n/a	n/a	n/a
n/a	"image-keyboard-response"	"29"	"89688"	"0.0-4.0-2.0-2.0-1.3"	"exq7hc"	"600"	"1366"	"chrome"	"111.0.0"	"FALSE"	"Windows 10"	"60.34"	"065"	n/a	n/a	n/a	n/a	n/a	n/a	"Trial"	n/a	n/a	n/a	"520"	"arrowdown"	n/a	"NULL"	"NULL"	"NULL"	"stimuli/MullerLyer_0000000_-0.7000.png"	n/a	"MullerLyer"	"arrowdown"	"1176"	"TRUE"	"MullerLyer"	"000000000000"	"-0.700000000"	"1"	"10"
n/a	"html-keyboard-response"	"30"	"90745"	"0.0-4.0-2.0-2.0-0.4"	"exq7hc"	"600"	"1366"	"chrome"	"111.0.0"	"FALSE"	"Windows 10"	"60.34"	"065"	n/a	n/a	n/a	n/a	n/a	n/a	"fixation"	n/a	n/a	n/a	n/a	"NULL"	n/a	"NULL"	"NULL"	"NULL"	"<p style=\"color: black; font-size: 80px; padding-left: 8%; padding-right: 10%; padding-top: 42%; padding-bottom: 37%\">+</p>"	"1044"	n/a	n/a	n/a	n/a	n/a	n/a	n/a	n/a	n/a
n/a	"image-keyboard-response"	"31"	"91217"	"0.0-4.0-2.0-2.0-1.4"	"exq7hc"	"600"	"1366"	"chrome"	"111.0.0"	"FALSE"	"Windows 10"	"60.34"	"065"	n/a	n/a	n/a	n/a	n/a	n/a	"Trial"	n/a	n/a	n/a	"471"	"arrowdown"	n/a	"NULL"	"NULL"	"NULL"	"stimuli/MullerLyer_-230000_-0.7000.png"	n/a	"MullerLyer"	"arrowdown"	"1057"	"TRUE"	"MullerLyer"	"-23000000000"	"-0.700000000"	"1"	"11"
n/a	"html-keyboard-response"	"32"	"92371"	"0.0-4.0-2.0-2.0-0.5"	"exq7hc"	"600"	"1366"	"chrome"	"111.0.0"	"FALSE"	"Windows 10"	"60.34"	"065"	n/a	n/a	n/a	n/a	n/a	n/a	"fixation"	n/a	n/a	n/a	n/a	"NULL"	n/a	"NULL"	"NULL"	"NULL"	"<p style=\"color: black; font-size: 80px; padding-left: 24%; padding-right: 33%; padding-top: 39%; padding-bottom: 21%\">+</p>"	"1151"	n/a	n/a	n/a	n/a	n/a	n/a	n/a	n/a	n/a
n/a	"image-keyboard-response"	"33"	"93398"	"0.0-4.0-2.0-2.0-1.5"	"exq7hc"	"600"	"1366"	"chrome"	"111.0.0"	"FALSE"	"Windows 10"	"60.34"	"065"	n/a	n/a	n/a	n/a	n/a	n/a	"Trial"	n/a	n/a	n/a	"1026"	"arrowdown"	n/a	"NULL"	"NULL"	"NULL"	"stimuli/MullerLyer_2300000_-0.7000.png"	n/a	"MullerLyer"	"arrowdown"	"1154"	"TRUE"	"MullerLyer"	"230000000000"	"-0.700000000"	"1"	"12"
n/a	"html-button-response"	"34"	"98637"	"0.0-4.0-2.0-3.0"	"exq7hc"	"600"	"1366"	"chrome"	"111.0.0"	"FALSE"	"Windows 10"	"60.34"	"065"	n/a	n/a	n/a	n/a	n/a	n/a	"practice_block_results"	n/a	n/a	n/a	"5238"	"0"	n/a	"NULL"	"NULL"	"NULL"	"<p style='color:rgb(76,175,80);'> Correct Responses: <b>100.00%</b></p><hr><p style='color:rgb(233,30,99);'> Average Response Time: <b>658.50</b> ms.</p>"	n/a	n/a	n/a	n/a	n/a	n/a	n/a	n/a	n/a	n/a
"TRUE"	"preload"	"35"	"99169"	"0.0-4.0-3.0-0.0"	"exq7hc"	"600"	"1366"	"chrome"	"111.0.0"	"FALSE"	"Windows 10"	"60.34"	"065"	n/a	n/a	n/a	n/a	n/a	n/a	n/a	n/a	n/a	n/a	n/a	"NULL"	"FALSE"	"list()"	"list()"	"list()"	n/a	n/a	n/a	n/a	n/a	n/a	n/a	n/a	n/a	n/a	n/a
n/a	"html-keyboard-response"	"36"	"104886"	"0.0-4.0-3.0-1.0"	"exq7hc"	"600"	"1366"	"chrome"	"111.0.0"	"FALSE"	"Windows 10"	"60.34"	"065"	n/a	n/a	n/a	n/a	n/a	n/a	n/a	n/a	n/a	n/a	"5717"	"enter"	n/a	"NULL"	"NULL"	"NULL"	"<p><b>Practice</b></p><p>In this part, two red lines will appear side by side.</p><p>Your task is to tell <b>which line is longer</b> in length, regardless of their orientation, as fast as you can, and without making errors.</p><p>Don't get distracted by the orientation of the lines!</p><p>Press <b>the LEFT or the RIGHT arrow</b> to indicate which <b>line is the longer one.</b></p><div style='float: center'><img src='materials/instructions/VerticalHorizontal_Demo.png' height='300'></img><p><img src='utils/answer/answer_leftright_keyboard.PNG' height='150'></img></p><p class='small'>In this example, the correct answer is the <b>LEFT arrow</b>.</p></div><p>Are you ready? <b>Press ENTER to start</b></p>"	n/a	n/a	n/a	n/a	n/a	n/a	n/a	n/a	n/a	n/a
n/a	"html-keyboard-response"	"37"	"106535"	"0.0-4.0-3.0-2.0-0.0"	"exq7hc"	"600"	"1366"	"chrome"	"111.0.0"	"FALSE"	"Windows 10"	"60.34"	"065"	n/a	n/a	n/a	n/a	n/a	n/a	"fixation"	n/a	n/a	n/a	n/a	"NULL"	n/a	"NULL"	"NULL"	"NULL"	"<p style=\"color: black; font-size: 80px; padding-left: 10%; padding-right: 8%; padding-top: 32%; padding-bottom: 44%\">+</p>"	"1121"	n/a	n/a	n/a	n/a	n/a	n/a	n/a	n/a	n/a
n/a	"image-keyboard-response"	"38"	"107340"	"0.0-4.0-3.0-2.0-1.0"	"exq7hc"	"600"	"1366"	"chrome"	"111.0.0"	"FALSE"	"Windows 10"	"60.34"	"065"	n/a	n/a	n/a	n/a	n/a	n/a	"Trial"	n/a	n/a	n/a	"804"	"arrowright"	n/a	"NULL"	"NULL"	"NULL"	"stimuli/VerticalHorizontal_3300000_-0.9000.png"	n/a	"VerticalHorizontal"	"arrowright"	"1649"	"TRUE"	"VerticalHorizontal"	"330000000000"	"-0.900000000"	"1"	"13"
n/a	"html-keyboard-response"	"39"	"108401"	"0.0-4.0-3.0-2.0-0.1"	"exq7hc"	"600"	"1366"	"chrome"	"111.0.0"	"FALSE"	"Windows 10"	"60.34"	"065"	n/a	n/a	n/a	n/a	n/a	n/a	"fixation"	n/a	n/a	n/a	n/a	"NULL"	n/a	"NULL"	"NULL"	"NULL"	"<p style=\"color: black; font-size: 80px; padding-left: 34%; padding-right: 34%; padding-top: 15%; padding-bottom: 20%\">+</p>"	"1054"	n/a	n/a	n/a	n/a	n/a	n/a	n/a	n/a	n/a
n/a	"image-keyboard-response"	"40"	"108833"	"0.0-4.0-3.0-2.0-1.1"	"exq7hc"	"600"	"1366"	"chrome"	"111.0.0"	"FALSE"	"Windows 10"	"60.34"	"065"	n/a	n/a	n/a	n/a	n/a	n/a	"Trial"	n/a	n/a	n/a	"431"	"arrowleft"	n/a	"NULL"	"NULL"	"NULL"	"stimuli/VerticalHorizontal_-330000_0.90000.png"	n/a	"VerticalHorizontal"	"arrowleft"	"1061"	"TRUE"	"VerticalHorizontal"	"-33000000000"	"0.9000000000"	"1"	"14"
n/a	"html-keyboard-response"	"41"	"110074"	"0.0-4.0-3.0-2.0-0.2"	"exq7hc"	"600"	"1366"	"chrome"	"111.0.0"	"FALSE"	"Windows 10"	"60.34"	"065"	n/a	n/a	n/a	n/a	n/a	n/a	"fixation"	n/a	n/a	n/a	n/a	"NULL"	n/a	"NULL"	"NULL"	"NULL"	"<p style=\"color: black; font-size: 80px; padding-left: 29%; padding-right: 35%; padding-top: 33%; padding-bottom: 37%\">+</p>"	"1225"	n/a	n/a	n/a	n/a	n/a	n/a	n/a	n/a	n/a
n/a	"image-keyboard-response"	"42"	"110520"	"0.0-4.0-3.0-2.0-1.2"	"exq7hc"	"600"	"1366"	"chrome"	"111.0.0"	"FALSE"	"Windows 10"	"60.34"	"065"	n/a	n/a	n/a	n/a	n/a	n/a	"Trial"	n/a	n/a	n/a	"446"	"arrowleft"	n/a	"NULL"	"NULL"	"NULL"	"stimuli/VerticalHorizontal_3300000_0.90000.png"	n/a	"VerticalHorizontal"	"arrowleft"	"1241"	"TRUE"	"VerticalHorizontal"	"330000000000"	"0.9000000000"	"1"	"15"
n/a	"html-keyboard-response"	"43"	"111589"	"0.0-4.0-3.0-2.0-0.3"	"exq7hc"	"600"	"1366"	"chrome"	"111.0.0"	"FALSE"	"Windows 10"	"60.34"	"065"	n/a	n/a	n/a	n/a	n/a	n/a	"fixation"	n/a	n/a	n/a	n/a	"NULL"	n/a	"NULL"	"NULL"	"NULL"	"<p style=\"color: black; font-size: 80px; padding-left: 2%; padding-right: 32%; padding-top: 7%; padding-bottom: 14%\">+</p>"	"1054"	n/a	n/a	n/a	n/a	n/a	n/a	n/a	n/a	n/a
n/a	"image-keyboard-response"	"44"	"112009"	"0.0-4.0-3.0-2.0-1.3"	"exq7hc"	"600"	"1366"	"chrome"	"111.0.0"	"FALSE"	"Windows 10"	"60.34"	"065"	n/a	n/a	n/a	n/a	n/a	n/a	"Trial"	n/a	n/a	n/a	"419"	"arrowright"	n/a	"NULL"	"NULL"	"NULL"	"stimuli/VerticalHorizontal_-330000_-0.9000.png"	n/a	"VerticalHorizontal"	"arrowright"	"1069"	"TRUE"	"VerticalHorizontal"	"-33000000000"	"-0.900000000"	"1"	"16"
n/a	"html-keyboard-response"	"45"	"113197"	"0.0-4.0-3.0-2.0-0.4"	"exq7hc"	"600"	"1366"	"chrome"	"111.0.0"	"FALSE"	"Windows 10"	"60.34"	"065"	n/a	n/a	n/a	n/a	n/a	n/a	"fixation"	n/a	n/a	n/a	n/a	"NULL"	n/a	"NULL"	"NULL"	"NULL"	"<p style=\"color: black; font-size: 80px; padding-left: 21%; padding-right: 4%; padding-top: 0%; padding-bottom: 42%\">+</p>"	"1186"	n/a	n/a	n/a	n/a	n/a	n/a	n/a	n/a	n/a
n/a	"image-keyboard-response"	"46"	"113596"	"0.0-4.0-3.0-2.0-1.4"	"exq7hc"	"600"	"1366"	"chrome"	"111.0.0"	"FALSE"	"Windows 10"	"60.34"	"065"	n/a	n/a	n/a	n/a	n/a	n/a	"Trial"	n/a	n/a	n/a	"398"	"arrowright"	n/a	"NULL"	"NULL"	"NULL"	"stimuli/VerticalHorizontal_0000000_-0.9000.png"	n/a	"VerticalHorizontal"	"arrowright"	"1188"	"TRUE"	"VerticalHorizontal"	"000000000000"	"-0.900000000"	"1"	"17"
n/a	"html-keyboard-response"	"47"	"115108"	"0.0-4.0-3.0-2.0-0.5"	"exq7hc"	"600"	"1366"	"chrome"	"111.0.0"	"FALSE"	"Windows 10"	"60.34"	"065"	n/a	n/a	n/a	n/a	n/a	n/a	"fixation"	n/a	n/a	n/a	n/a	"NULL"	n/a	"NULL"	"NULL"	"NULL"	"<p style=\"color: black; font-size: 80px; padding-left: 0%; padding-right: 18%; padding-top: 19%; padding-bottom: 32%\">+</p>"	"1498"	n/a	n/a	n/a	n/a	n/a	n/a	n/a	n/a	n/a
n/a	"image-keyboard-response"	"48"	"115529"	"0.0-4.0-3.0-2.0-1.5"	"exq7hc"	"600"	"1366"	"chrome"	"111.0.0"	"FALSE"	"Windows 10"	"60.34"	"065"	n/a	n/a	n/a	n/a	n/a	n/a	"Trial"	n/a	n/a	n/a	"420"	"arrowleft"	n/a	"NULL"	"NULL"	"NULL"	"stimuli/VerticalHorizontal_0000000_0.90000.png"	n/a	"VerticalHorizontal"	"arrowleft"	"1512"	"TRUE"	"VerticalHorizontal"	"000000000000"	"0.9000000000"	"1"	"18"
n/a	"html-button-response"	"49"	"119982"	"0.0-4.0-3.0-3.0"	"exq7hc"	"600"	"1366"	"chrome"	"111.0.0"	"FALSE"	"Windows 10"	"60.34"	"065"	n/a	n/a	n/a	n/a	n/a	n/a	"practice_block_results"	n/a	n/a	n/a	"4452"	"0"	n/a	"NULL"	"NULL"	"NULL"	"<p style='color:rgb(76,175,80);'> Correct Responses: <b>100.00%</b></p><hr><p style='color:rgb(233,30,99);'> Average Response Time: <b>486.33</b> ms.</p>"	n/a	n/a	n/a	n/a	n/a	n/a	n/a	n/a	n/a	n/a
n/a	"html-button-response"	"50"	"184966"	"0.0-4.0-4.0"	"exq7hc"	"600"	"1366"	"chrome"	"111.0.0"	"FALSE"	"Windows 10"	"60.34"	"065"	n/a	n/a	n/a	n/a	n/a	n/a	"practice_debrief"	n/a	n/a	n/a	"64471"	"0"	n/a	"NULL"	"NULL"	"NULL"	"<p><b>TRAINING COMPLETED</b></p><p>In the next phase, there will be more trials, and some might be harder too.<br> Moreover, after each illusion block, a <b>score</b> will be calculated based on speed (time you took to answer) and accuracy (number of errors).</p><p>Try to keep up a high score!</p><br><p>Note that it can be <i>really</i> challenging at times, so you will need to rely on your <b>intuition</b> and gut feeling to answer as fast as you can without making errors.</p><p>Each illusion block will be repeated two times (so that you have the opportunity to improve your score), but the order of the blocks is random.</p><p>Remember, your goal is to be as <b>fast</b> and <b>accurate</b> as possible. Good luck!</p><br>"	n/a	n/a	n/a	n/a	n/a	n/a	n/a	n/a	n/a	n/a
"TRUE"	"preload"	"51"	"185472"	"0.0-5.0-0.0"	"exq7hc"	"600"	"1366"	"chrome"	"111.0.0"	"FALSE"	"Windows 10"	"60.34"	"065"	n/a	n/a	n/a	n/a	n/a	n/a	n/a	n/a	n/a	n/a	n/a	"NULL"	"FALSE"	"list()"	"list()"	"list()"	n/a	n/a	n/a	n/a	n/a	n/a	n/a	n/a	n/a	n/a	n/a
n/a	"html-keyboard-response"	"52"	"189805"	"0.0-5.0-1.0"	"exq7hc"	"600"	"1366"	"chrome"	"111.0.0"	"FALSE"	"Windows 10"	"60.34"	"065"	n/a	n/a	n/a	n/a	n/a	n/a	n/a	n/a	n/a	n/a	"4333"	"enter"	n/a	"NULL"	"NULL"	"NULL"	"<p><b>Part 1/6</b></p><p>In this part, two red lines will appear side by side.</p><p>Your task is to tell <b>which line is longer</b> in length, regardless of their orientation, as fast as you can, and without making errors.</p><p>Don't get distracted by the orientation of the lines!</p><p>Press <b>the LEFT or the RIGHT arrow</b> to indicate which <b>line is the longer one.</b></p><div style='float: center'><img src='materials/instructions/VerticalHorizontal_Demo.png' height='300'></img><p><img src='utils/answer/answer_leftright_keyboard.PNG' height='150'></img></p><p class='small'>In this example, the correct answer is the <b>LEFT arrow</b>.</p></div><p>Are you ready? <b>Press ENTER to start</b></p>"	n/a	n/a	n/a	n/a	n/a	n/a	n/a	n/a	n/a	n/a
n/a	"html-keyboard-response"	"53"	"191496"	"0.0-5.0-2.0-0.0"	"exq7hc"	"600"	"1366"	"chrome"	"111.0.0"	"FALSE"	"Windows 10"	"60.34"	"065"	n/a	n/a	n/a	n/a	n/a	n/a	"fixation"	n/a	n/a	n/a	n/a	"NULL"	n/a	"NULL"	"NULL"	"NULL"	"<p style=\"color: black; font-size: 80px; padding-left: 20%; padding-right: 31%; padding-top: 48%; padding-bottom: 2%\">+</p>"	"1172"	n/a	n/a	n/a	n/a	n/a	n/a	n/a	n/a	n/a
n/a	"image-keyboard-response"	"54"	"192451"	"0.0-5.0-2.0-1.0"	"exq7hc"	"600"	"1366"	"chrome"	"111.0.0"	"FALSE"	"Windows 10"	"60.34"	"065"	n/a	n/a	n/a	n/a	n/a	n/a	"Trial"	n/a	n/a	n/a	"954"	"arrowright"	n/a	"NULL"	"NULL"	"NULL"	"stimuli/VerticalHorizontal_-3.3000_-0.16217.png"	n/a	"VerticalHorizontal"	"arrowright"	"1691"	"TRUE"	"VerticalHorizontal"	"-3.300000000"	"-0.162170000"	"1"	"19"
n/a	"html-keyboard-response"	"55"	"193763"	"0.0-5.0-2.0-0.1"	"exq7hc"	"600"	"1366"	"chrome"	"111.0.0"	"FALSE"	"Windows 10"	"60.34"	"065"	n/a	n/a	n/a	n/a	n/a	n/a	"fixation"	n/a	n/a	n/a	n/a	"NULL"	n/a	"NULL"	"NULL"	"NULL"	"<p style=\"color: black; font-size: 80px; padding-left: 6%; padding-right: 40%; padding-top: 8%; padding-bottom: 18%\">+</p>"	"1303"	n/a	n/a	n/a	n/a	n/a	n/a	n/a	n/a	n/a
n/a	"image-keyboard-response"	"56"	"194569"	"0.0-5.0-2.0-1.1"	"exq7hc"	"600"	"1366"	"chrome"	"111.0.0"	"FALSE"	"Windows 10"	"60.34"	"065"	n/a	n/a	n/a	n/a	n/a	n/a	"Trial"	n/a	n/a	n/a	"805"	"arrowleft"	n/a	"NULL"	"NULL"	"NULL"	"stimuli/VerticalHorizontal_11.78571_0.22500.png"	n/a	"VerticalHorizontal"	"arrowleft"	"1312"	"TRUE"	"VerticalHorizontal"	"11.785710000"	"0.2250000000"	"1"	"20"
n/a	"html-keyboard-response"	"57"	"195776"	"0.0-5.0-2.0-0.2"	"exq7hc"	"600"	"1366"	"chrome"	"111.0.0"	"FALSE"	"Windows 10"	"60.34"	"065"	n/a	n/a	n/a	n/a	n/a	n/a	"fixation"	n/a	n/a	n/a	n/a	"NULL"	n/a	"NULL"	"NULL"	"NULL"	"<p style=\"color: black; font-size: 80px; padding-left: 10%; padding-right: 37%; padding-top: 38%; padding-bottom: 34%\">+</p>"	"1204"	n/a	n/a	n/a	n/a	n/a	n/a	n/a	n/a	n/a
n/a	"image-keyboard-response"	"58"	"196403"	"0.0-5.0-2.0-1.2"	"exq7hc"	"600"	"1366"	"chrome"	"111.0.0"	"FALSE"	"Windows 10"	"60.34"	"065"	n/a	n/a	n/a	n/a	n/a	n/a	"Trial"	n/a	n/a	n/a	"626"	"arrowright"	n/a	"NULL"	"NULL"	"NULL"	"stimuli/VerticalHorizontal_20.27143_-0.2250.png"	n/a	"VerticalHorizontal"	"arrowright"	"1207"	"TRUE"	"VerticalHorizontal"	"20.271430000"	"-0.225000000"	"1"	"21"
n/a	"html-keyboard-response"	"59"	"197652"	"0.0-5.0-2.0-0.3"	"exq7hc"	"600"	"1366"	"chrome"	"111.0.0"	"FALSE"	"Windows 10"	"60.34"	"065"	n/a	n/a	n/a	n/a	n/a	n/a	"fixation"	n/a	n/a	n/a	n/a	"NULL"	n/a	"NULL"	"NULL"	"NULL"	"<p style=\"color: black; font-size: 80px; padding-left: 41%; padding-right: 33%; padding-top: 34%; padding-bottom: 37%\">+</p>"	"1248"	n/a	n/a	n/a	n/a	n/a	n/a	n/a	n/a	n/a
n/a	"image-keyboard-response"	"60"	"198168"	"0.0-5.0-2.0-1.3"	"exq7hc"	"600"	"1366"	"chrome"	"111.0.0"	"FALSE"	"Windows 10"	"60.34"	"065"	n/a	n/a	n/a	n/a	n/a	n/a	"Trial"	n/a	n/a	n/a	"516"	"arrowleft"	n/a	"NULL"	"NULL"	"NULL"	"stimuli/VerticalHorizontal_3.30000_0.22500.png"	n/a	"VerticalHorizontal"	"arrowleft"	"1249"	"TRUE"	"VerticalHorizontal"	"3.3000000000"	"0.2250000000"	"1"	"22"
n/a	"html-keyboard-response"	"61"	"199653"	"0.0-5.0-2.0-0.4"	"exq7hc"	"600"	"1366"	"chrome"	"111.0.0"	"FALSE"	"Windows 10"	"60.34"	"065"	n/a	n/a	n/a	n/a	n/a	n/a	"fixation"	n/a	n/a	n/a	n/a	"NULL"	n/a	"NULL"	"NULL"	"NULL"	"<p style=\"color: black; font-size: 80px; padding-left: 29%; padding-right: 7%; padding-top: 49%; padding-bottom: 46%\">+</p>"	"1470"	n/a	n/a	n/a	n/a	n/a	n/a	n/a	n/a	n/a
n/a	"image-keyboard-response"	"62"	"200299"	"0.0-5.0-2.0-1.4"	"exq7hc"	"600"	"1366"	"chrome"	"111.0.0"	"FALSE"	"Windows 10"	"60.34"	"065"	n/a	n/a	n/a	n/a	n/a	n/a	"Trial"	n/a	n/a	n/a	"645"	"arrowright"	n/a	"NULL"	"NULL"	"NULL"	"stimuli/VerticalHorizontal_28.75714_0.16217.png"	n/a	"VerticalHorizontal"	"arrowleft"	"1485"	"FALSE"	"VerticalHorizontal"	"28.757140000"	"0.1621700000"	"1"	"23"
n/a	"html-keyboard-response"	"63"	"201733"	"0.0-5.0-2.0-0.5"	"exq7hc"	"600"	"1366"	"chrome"	"111.0.0"	"FALSE"	"Windows 10"	"60.34"	"065"	n/a	n/a	n/a	n/a	n/a	n/a	"fixation"	n/a	n/a	n/a	n/a	"NULL"	n/a	"NULL"	"NULL"	"NULL"	"<p style=\"color: black; font-size: 80px; padding-left: 23%; padding-right: 17%; padding-top: 23%; padding-bottom: 5%\">+</p>"	"1423"	n/a	n/a	n/a	n/a	n/a	n/a	n/a	n/a	n/a
n/a	"image-keyboard-response"	"64"	"202222"	"0.0-5.0-2.0-1.5"	"exq7hc"	"600"	"1366"	"chrome"	"111.0.0"	"FALSE"	"Windows 10"	"60.34"	"065"	n/a	n/a	n/a	n/a	n/a	n/a	"Trial"	n/a	n/a	n/a	"489"	"arrowleft"	n/a	"NULL"	"NULL"	"NULL"	"stimuli/VerticalHorizontal_-11.78571_0.22500.png"	n/a	"VerticalHorizontal"	"arrowleft"	"1434"	"TRUE"	"VerticalHorizontal"	"-11.78571000"	"0.2250000000"	"1"	"24"
n/a	"html-keyboard-response"	"65"	"203566"	"0.0-5.0-2.0-0.6"	"exq7hc"	"600"	"1366"	"chrome"	"111.0.0"	"FALSE"	"Windows 10"	"60.34"	"065"	n/a	n/a	n/a	n/a	n/a	n/a	"fixation"	n/a	n/a	n/a	n/a	"NULL"	n/a	"NULL"	"NULL"	"NULL"	"<p style=\"color: black; font-size: 80px; padding-left: 42%; padding-right: 12%; padding-top: 37%; padding-bottom: 37%\">+</p>"	"1327"	n/a	n/a	n/a	n/a	n/a	n/a	n/a	n/a	n/a
n/a	"image-keyboard-response"	"66"	"204457"	"0.0-5.0-2.0-1.6"	"exq7hc"	"600"	"1366"	"chrome"	"111.0.0"	"FALSE"	"Windows 10"	"60.34"	"065"	n/a	n/a	n/a	n/a	n/a	n/a	"Trial"	n/a	n/a	n/a	"891"	"arrowleft"	n/a	"NULL"	"NULL"	"NULL"	"stimuli/VerticalHorizontal_20.27143_0.06730.png"	n/a	"VerticalHorizontal"	"arrowleft"	"1344"	"TRUE"	"VerticalHorizontal"	"20.271430000"	"0.0673000000"	"1"	"25"
n/a	"html-keyboard-response"	"67"	"205731"	"0.0-5.0-2.0-0.7"	"exq7hc"	"600"	"1366"	"chrome"	"111.0.0"	"FALSE"	"Windows 10"	"60.34"	"065"	n/a	n/a	n/a	n/a	n/a	n/a	"fixation"	n/a	n/a	n/a	n/a	"NULL"	n/a	"NULL"	"NULL"	"NULL"	"<p style=\"color: black; font-size: 80px; padding-left: 34%; padding-right: 33%; padding-top: 26%; padding-bottom: 23%\">+</p>"	"1265"	n/a	n/a	n/a	n/a	n/a	n/a	n/a	n/a	n/a
n/a	"image-keyboard-response"	"68"	"206561"	"0.0-5.0-2.0-1.7"	"exq7hc"	"600"	"1366"	"chrome"	"111.0.0"	"FALSE"	"Windows 10"	"60.34"	"065"	n/a	n/a	n/a	n/a	n/a	n/a	"Trial"	n/a	n/a	n/a	"829"	"arrowright"	n/a	"NULL"	"NULL"	"NULL"	"stimuli/VerticalHorizontal_-11.78571_-0.16217.png"	n/a	"VerticalHorizontal"	"arrowright"	"1274"	"TRUE"	"VerticalHorizontal"	"-11.78571000"	"-0.162170000"	"1"	"26"
n/a	"html-keyboard-response"	"69"	"207710"	"0.0-5.0-2.0-0.8"	"exq7hc"	"600"	"1366"	"chrome"	"111.0.0"	"FALSE"	"Windows 10"	"60.34"	"065"	n/a	n/a	n/a	n/a	n/a	n/a	"fixation"	n/a	n/a	n/a	n/a	"NULL"	n/a	"NULL"	"NULL"	"NULL"	"<p style=\"color: black; font-size: 80px; padding-left: 47%; padding-right: 27%; padding-top: 32%; padding-bottom: 26%\">+</p>"	"1143"	n/a	n/a	n/a	n/a	n/a	n/a	n/a	n/a	n/a
n/a	"image-keyboard-response"	"70"	"208220"	"0.0-5.0-2.0-1.8"	"exq7hc"	"600"	"1366"	"chrome"	"111.0.0"	"FALSE"	"Windows 10"	"60.34"	"065"	n/a	n/a	n/a	n/a	n/a	n/a	"Trial"	n/a	n/a	n/a	"510"	"arrowleft"	n/a	"NULL"	"NULL"	"NULL"	"stimuli/VerticalHorizontal_-20.27143_0.10960.png"	n/a	"VerticalHorizontal"	"arrowleft"	"1149"	"TRUE"	"VerticalHorizontal"	"-20.27143000"	"0.1096000000"	"1"	"27"
n/a	"html-keyboard-response"	"71"	"209232"	"0.0-5.0-2.0-0.9"	"exq7hc"	"600"	"1366"	"chrome"	"111.0.0"	"FALSE"	"Windows 10"	"60.34"	"065"	n/a	n/a	n/a	n/a	n/a	n/a	"fixation"	n/a	n/a	n/a	n/a	"NULL"	n/a	"NULL"	"NULL"	"NULL"	"<p style=\"color: black; font-size: 80px; padding-left: 40%; padding-right: 49%; padding-top: 23%; padding-bottom: 45%\">+</p>"	"1008"	n/a	n/a	n/a	n/a	n/a	n/a	n/a	n/a	n/a
n/a	"image-keyboard-response"	"72"	"210184"	"0.0-5.0-2.0-1.9"	"exq7hc"	"600"	"1366"	"chrome"	"111.0.0"	"FALSE"	"Windows 10"	"60.34"	"065"	n/a	n/a	n/a	n/a	n/a	n/a	"Trial"	n/a	n/a	n/a	"951"	"arrowright"	n/a	"NULL"	"NULL"	"NULL"	"stimuli/VerticalHorizontal_20.27143_-0.16217.png"	n/a	"VerticalHorizontal"	"arrowright"	"1012"	"TRUE"	"VerticalHorizontal"	"20.271430000"	"-0.162170000"	"1"	"28"
n/a	"html-keyboard-response"	"73"	"211480"	"0.0-5.0-2.0-0.10"	"exq7hc"	"600"	"1366"	"chrome"	"111.0.0"	"FALSE"	"Windows 10"	"60.34"	"065"	n/a	n/a	n/a	n/a	n/a	n/a	"fixation"	n/a	n/a	n/a	n/a	"NULL"	n/a	"NULL"	"NULL"	"NULL"	"<p style=\"color: black; font-size: 80px; padding-left: 38%; padding-right: 14%; padding-top: 41%; padding-bottom: 14%\">+</p>"	"1284"	n/a	n/a	n/a	n/a	n/a	n/a	n/a	n/a	n/a
n/a	"image-keyboard-response"	"74"	"212112"	"0.0-5.0-2.0-1.10"	"exq7hc"	"600"	"1366"	"chrome"	"111.0.0"	"FALSE"	"Windows 10"	"60.34"	"065"	n/a	n/a	n/a	n/a	n/a	n/a	"Trial"	n/a	n/a	n/a	"631"	"arrowright"	n/a	"NULL"	"NULL"	"NULL"	"stimuli/VerticalHorizontal_-11.78571_-0.2250.png"	n/a	"VerticalHorizontal"	"arrowright"	"1296"	"TRUE"	"VerticalHorizontal"	"-11.78571000"	"-0.225000000"	"1"	"29"
n/a	"html-keyboard-response"	"75"	"213566"	"0.0-5.0-2.0-0.11"	"exq7hc"	"600"	"1366"	"chrome"	"111.0.0"	"FALSE"	"Windows 10"	"60.34"	"065"	n/a	n/a	n/a	n/a	n/a	n/a	"fixation"	n/a	n/a	n/a	n/a	"NULL"	n/a	"NULL"	"NULL"	"NULL"	"<p style=\"color: black; font-size: 80px; padding-left: 6%; padding-right: 46%; padding-top: 16%; padding-bottom: 17%\">+</p>"	"1452"	n/a	n/a	n/a	n/a	n/a	n/a	n/a	n/a	n/a
n/a	"image-keyboard-response"	"76"	"214463"	"0.0-5.0-2.0-1.11"	"exq7hc"	"600"	"1366"	"chrome"	"111.0.0"	"FALSE"	"Windows 10"	"60.34"	"065"	n/a	n/a	n/a	n/a	n/a	n/a	"Trial"	n/a	n/a	n/a	"897"	"arrowleft"	n/a	"NULL"	"NULL"	"NULL"	"stimuli/VerticalHorizontal_3.30000_0.06730.png"	n/a	"VerticalHorizontal"	"arrowleft"	"1454"	"TRUE"	"VerticalHorizontal"	"3.3000000000"	"0.0673000000"	"1"	"30"
n/a	"html-keyboard-response"	"77"	"215594"	"0.0-5.0-2.0-0.12"	"exq7hc"	"600"	"1366"	"chrome"	"111.0.0"	"FALSE"	"Windows 10"	"60.34"	"065"	n/a	n/a	n/a	n/a	n/a	n/a	"fixation"	n/a	n/a	n/a	n/a	"NULL"	n/a	"NULL"	"NULL"	"NULL"	"<p style=\"color: black; font-size: 80px; padding-left: 47%; padding-right: 45%; padding-top: 1%; padding-bottom: 29%\">+</p>"	"1121"	n/a	n/a	n/a	n/a	n/a	n/a	n/a	n/a	n/a
n/a	"image-keyboard-response"	"78"	"216679"	"0.0-5.0-2.0-1.12"	"exq7hc"	"600"	"1366"	"chrome"	"111.0.0"	"FALSE"	"Windows 10"	"60.34"	"065"	n/a	n/a	n/a	n/a	n/a	n/a	"Trial"	n/a	n/a	n/a	"1084"	"arrowleft"	n/a	"NULL"	"NULL"	"NULL"	"stimuli/VerticalHorizontal_-20.27143_0.06730.png"	n/a	"VerticalHorizontal"	"arrowleft"	"1131"	"TRUE"	"VerticalHorizontal"	"-20.27143000"	"0.0673000000"	"1"	"31"
n/a	"html-keyboard-response"	"79"	"217879"	"0.0-5.0-2.0-0.13"	"exq7hc"	"600"	"1366"	"chrome"	"111.0.0"	"FALSE"	"Windows 10"	"60.34"	"065"	n/a	n/a	n/a	n/a	n/a	n/a	"fixation"	n/a	n/a	n/a	n/a	"NULL"	n/a	"NULL"	"NULL"	"NULL"	"<p style=\"color: black; font-size: 80px; padding-left: 45%; padding-right: 10%; padding-top: 34%; padding-bottom: 22%\">+</p>"	"1198"	n/a	n/a	n/a	n/a	n/a	n/a	n/a	n/a	n/a
n/a	"image-keyboard-response"	"80"	"218445"	"0.0-5.0-2.0-1.13"	"exq7hc"	"600"	"1366"	"chrome"	"111.0.0"	"FALSE"	"Windows 10"	"60.34"	"065"	n/a	n/a	n/a	n/a	n/a	n/a	"Trial"	n/a	n/a	n/a	"565"	"arrowright"	n/a	"NULL"	"NULL"	"NULL"	"stimuli/VerticalHorizontal_11.78571_-0.16217.png"	n/a	"VerticalHorizontal"	"arrowright"	"1200"	"TRUE"	"VerticalHorizontal"	"11.785710000"	"-0.162170000"	"1"	"32"
n/a	"html-keyboard-response"	"81"	"219526"	"0.0-5.0-2.0-0.14"	"exq7hc"	"600"	"1366"	"chrome"	"111.0.0"	"FALSE"	"Windows 10"	"60.34"	"065"	n/a	n/a	n/a	n/a	n/a	n/a	"fixation"	n/a	n/a	n/a	n/a	"NULL"	n/a	"NULL"	"NULL"	"NULL"	"<p style=\"color: black; font-size: 80px; padding-left: 17%; padding-right: 41%; padding-top: 41%; padding-bottom: 49%\">+</p>"	"1066"	n/a	n/a	n/a	n/a	n/a	n/a	n/a	n/a	n/a
n/a	"image-keyboard-response"	"82"	"220053"	"0.0-5.0-2.0-1.14"	"exq7hc"	"600"	"1366"	"chrome"	"111.0.0"	"FALSE"	"Windows 10"	"60.34"	"065"	n/a	n/a	n/a	n/a	n/a	n/a	"Trial"	n/a	n/a	n/a	"526"	"arrowleft"	n/a	"NULL"	"NULL"	"NULL"	"stimuli/VerticalHorizontal_-3.3000_0.06730.png"	n/a	"VerticalHorizontal"	"arrowleft"	"1081"	"TRUE"	"VerticalHorizontal"	"-3.300000000"	"0.0673000000"	"1"	"33"
n/a	"html-keyboard-response"	"83"	"221336"	"0.0-5.0-2.0-0.15"	"exq7hc"	"600"	"1366"	"chrome"	"111.0.0"	"FALSE"	"Windows 10"	"60.34"	"065"	n/a	n/a	n/a	n/a	n/a	n/a	"fixation"	n/a	n/a	n/a	n/a	"NULL"	n/a	"NULL"	"NULL"	"NULL"	"<p style=\"color: black; font-size: 80px; padding-left: 46%; padding-right: 28%; padding-top: 30%; padding-bottom: 0%\">+</p>"	"1273"	n/a	n/a	n/a	n/a	n/a	n/a	n/a	n/a	n/a
n/a	"image-keyboard-response"	"84"	"222061"	"0.0-5.0-2.0-1.15"	"exq7hc"	"600"	"1366"	"chrome"	"111.0.0"	"FALSE"	"Windows 10"	"60.34"	"065"	n/a	n/a	n/a	n/a	n/a	n/a	"Trial"	n/a	n/a	n/a	"724"	"arrowleft"	n/a	"NULL"	"NULL"	"NULL"	"stimuli/VerticalHorizontal_-28.75714_0.06730.png"	n/a	"VerticalHorizontal"	"arrowleft"	"1283"	"TRUE"	"VerticalHorizontal"	"-28.75714000"	"0.0673000000"	"1"	"34"
n/a	"html-keyboard-response"	"85"	"223495"	"0.0-5.0-2.0-0.16"	"exq7hc"	"600"	"1366"	"chrome"	"111.0.0"	"FALSE"	"Windows 10"	"60.34"	"065"	n/a	n/a	n/a	n/a	n/a	n/a	"fixation"	n/a	n/a	n/a	n/a	"NULL"	n/a	"NULL"	"NULL"	"NULL"	"<p style=\"color: black; font-size: 80px; padding-left: 8%; padding-right: 7%; padding-top: 22%; padding-bottom: 31%\">+</p>"	"1429"	n/a	n/a	n/a	n/a	n/a	n/a	n/a	n/a	n/a
n/a	"image-keyboard-response"	"86"	"223943"	"0.0-5.0-2.0-1.16"	"exq7hc"	"600"	"1366"	"chrome"	"111.0.0"	"FALSE"	"Windows 10"	"60.34"	"065"	n/a	n/a	n/a	n/a	n/a	n/a	"Trial"	n/a	n/a	n/a	"447"	"arrowleft"	n/a	"NULL"	"NULL"	"NULL"	"stimuli/VerticalHorizontal_-28.75714_0.22500.png"	n/a	"VerticalHorizontal"	"arrowleft"	"1434"	"TRUE"	"VerticalHorizontal"	"-28.75714000"	"0.2250000000"	"1"	"35"
n/a	"html-keyboard-response"	"87"	"225225"	"0.0-5.0-2.0-0.17"	"exq7hc"	"600"	"1366"	"chrome"	"111.0.0"	"FALSE"	"Windows 10"	"60.34"	"065"	n/a	n/a	n/a	n/a	n/a	n/a	"fixation"	n/a	n/a	n/a	n/a	"NULL"	n/a	"NULL"	"NULL"	"NULL"	"<p style=\"color: black; font-size: 80px; padding-left: 24%; padding-right: 17%; padding-top: 1%; padding-bottom: 13%\">+</p>"	"1276"	n/a	n/a	n/a	n/a	n/a	n/a	n/a	n/a	n/a
n/a	"image-keyboard-response"	"88"	"225788"	"0.0-5.0-2.0-1.17"	"exq7hc"	"600"	"1366"	"chrome"	"111.0.0"	"FALSE"	"Windows 10"	"60.34"	"065"	n/a	n/a	n/a	n/a	n/a	n/a	"Trial"	n/a	n/a	n/a	"563"	"arrowright"	n/a	"NULL"	"NULL"	"NULL"	"stimuli/VerticalHorizontal_20.27143_-0.0673.png"	n/a	"VerticalHorizontal"	"arrowright"	"1282"	"TRUE"	"VerticalHorizontal"	"20.271430000"	"-0.067300000"	"1"	"36"
n/a	"html-keyboard-response"	"89"	"226903"	"0.0-5.0-2.0-0.18"	"exq7hc"	"600"	"1366"	"chrome"	"111.0.0"	"FALSE"	"Windows 10"	"60.34"	"065"	n/a	n/a	n/a	n/a	n/a	n/a	"fixation"	n/a	n/a	n/a	n/a	"NULL"	n/a	"NULL"	"NULL"	"NULL"	"<p style=\"color: black; font-size: 80px; padding-left: 43%; padding-right: 39%; padding-top: 7%; padding-bottom: 23%\">+</p>"	"1099"	n/a	n/a	n/a	n/a	n/a	n/a	n/a	n/a	n/a
n/a	"image-keyboard-response"	"90"	"227624"	"0.0-5.0-2.0-1.18"	"exq7hc"	"600"	"1366"	"chrome"	"111.0.0"	"FALSE"	"Windows 10"	"60.34"	"065"	n/a	n/a	n/a	n/a	n/a	n/a	"Trial"	n/a	n/a	n/a	"720"	"arrowleft"	n/a	"NULL"	"NULL"	"NULL"	"stimuli/VerticalHorizontal_20.27143_0.22500.png"	n/a	"VerticalHorizontal"	"arrowleft"	"1115"	"TRUE"	"VerticalHorizontal"	"20.271430000"	"0.2250000000"	"1"	"37"
n/a	"html-keyboard-response"	"91"	"228778"	"0.0-5.0-2.0-0.19"	"exq7hc"	"600"	"1366"	"chrome"	"111.0.0"	"FALSE"	"Windows 10"	"60.34"	"065"	n/a	n/a	n/a	n/a	n/a	n/a	"fixation"	n/a	n/a	n/a	n/a	"NULL"	n/a	"NULL"	"NULL"	"NULL"	"<p style=\"color: black; font-size: 80px; padding-left: 41%; padding-right: 12%; padding-top: 42%; padding-bottom: 3%\">+</p>"	"1148"	n/a	n/a	n/a	n/a	n/a	n/a	n/a	n/a	n/a
n/a	"image-keyboard-response"	"92"	"229511"	"0.0-5.0-2.0-1.19"	"exq7hc"	"600"	"1366"	"chrome"	"111.0.0"	"FALSE"	"Windows 10"	"60.34"	"065"	n/a	n/a	n/a	n/a	n/a	n/a	"Trial"	n/a	n/a	n/a	"731"	"arrowleft"	n/a	"NULL"	"NULL"	"NULL"	"stimuli/VerticalHorizontal_-11.78571_0.16217.png"	n/a	"VerticalHorizontal"	"arrowleft"	"1154"	"TRUE"	"VerticalHorizontal"	"-11.78571000"	"0.1621700000"	"1"	"38"
n/a	"html-keyboard-response"	"93"	"230848"	"0.0-5.0-2.0-0.20"	"exq7hc"	"600"	"1366"	"chrome"	"111.0.0"	"FALSE"	"Windows 10"	"60.34"	"065"	n/a	n/a	n/a	n/a	n/a	n/a	"fixation"	n/a	n/a	n/a	n/a	"NULL"	n/a	"NULL"	"NULL"	"NULL"	"<p style=\"color: black; font-size: 80px; padding-left: 13%; padding-right: 10%; padding-top: 1%; padding-bottom: 11%\">+</p>"	"1329"	n/a	n/a	n/a	n/a	n/a	n/a	n/a	n/a	n/a
n/a	"image-keyboard-response"	"94"	"231423"	"0.0-5.0-2.0-1.20"	"exq7hc"	"600"	"1366"	"chrome"	"111.0.0"	"FALSE"	"Windows 10"	"60.34"	"065"	n/a	n/a	n/a	n/a	n/a	n/a	"Trial"	n/a	n/a	n/a	"575"	"arrowright"	n/a	"NULL"	"NULL"	"NULL"	"stimuli/VerticalHorizontal_-20.27143_-0.1096.png"	n/a	"VerticalHorizontal"	"arrowright"	"1337"	"TRUE"	"VerticalHorizontal"	"-20.27143000"	"-0.109600000"	"1"	"39"
n/a	"html-keyboard-response"	"95"	"232494"	"0.0-5.0-2.0-0.21"	"exq7hc"	"600"	"1366"	"chrome"	"111.0.0"	"FALSE"	"Windows 10"	"60.34"	"065"	n/a	n/a	n/a	n/a	n/a	n/a	"fixation"	n/a	n/a	n/a	n/a	"NULL"	n/a	"NULL"	"NULL"	"NULL"	"<p style=\"color: black; font-size: 80px; padding-left: 5%; padding-right: 4%; padding-top: 12%; padding-bottom: 17%\">+</p>"	"1067"	n/a	n/a	n/a	n/a	n/a	n/a	n/a	n/a	n/a
n/a	"image-keyboard-response"	"96"	"233049"	"0.0-5.0-2.0-1.21"	"exq7hc"	"600"	"1366"	"chrome"	"111.0.0"	"FALSE"	"Windows 10"	"60.34"	"065"	n/a	n/a	n/a	n/a	n/a	n/a	"Trial"	n/a	n/a	n/a	"554"	"arrowright"	n/a	"NULL"	"NULL"	"NULL"	"stimuli/VerticalHorizontal_-28.75714_-0.0673.png"	n/a	"VerticalHorizontal"	"arrowright"	"1071"	"TRUE"	"VerticalHorizontal"	"-28.75714000"	"-0.067300000"	"1"	"40"
n/a	"html-keyboard-response"	"97"	"234357"	"0.0-5.0-2.0-0.22"	"exq7hc"	"600"	"1366"	"chrome"	"111.0.0"	"FALSE"	"Windows 10"	"60.34"	"065"	n/a	n/a	n/a	n/a	n/a	n/a	"fixation"	n/a	n/a	n/a	n/a	"NULL"	n/a	"NULL"	"NULL"	"NULL"	"<p style=\"color: black; font-size: 80px; padding-left: 21%; padding-right: 10%; padding-top: 1%; padding-bottom: 3%\">+</p>"	"1292"	n/a	n/a	n/a	n/a	n/a	n/a	n/a	n/a	n/a
n/a	"image-keyboard-response"	"98"	"234820"	"0.0-5.0-2.0-1.22"	"exq7hc"	"600"	"1366"	"chrome"	"111.0.0"	"FALSE"	"Windows 10"	"60.34"	"065"	n/a	n/a	n/a	n/a	n/a	n/a	"Trial"	n/a	n/a	n/a	"462"	"arrowleft"	n/a	"NULL"	"NULL"	"NULL"	"stimuli/VerticalHorizontal_-3.3000_0.22500.png"	n/a	"VerticalHorizontal"	"arrowleft"	"1308"	"TRUE"	"VerticalHorizontal"	"-3.300000000"	"0.2250000000"	"1"	"41"
n/a	"html-keyboard-response"	"99"	"235931"	"0.0-5.0-2.0-0.23"	"exq7hc"	"600"	"1366"	"chrome"	"111.0.0"	"FALSE"	"Windows 10"	"60.34"	"065"	n/a	n/a	n/a	n/a	n/a	n/a	"fixation"	n/a	n/a	n/a	n/a	"NULL"	n/a	"NULL"	"NULL"	"NULL"	"<p style=\"color: black; font-size: 80px; padding-left: 49%; padding-right: 16%; padding-top: 37%; padding-bottom: 49%\">+</p>"	"1099"	n/a	n/a	n/a	n/a	n/a	n/a	n/a	n/a	n/a
n/a	"image-keyboard-response"	"100"	"236399"	"0.0-5.0-2.0-1.23"	"exq7hc"	"600"	"1366"	"chrome"	"111.0.0"	"FALSE"	"Windows 10"	"60.34"	"065"	n/a	n/a	n/a	n/a	n/a	n/a	"Trial"	n/a	n/a	n/a	"467"	"arrowright"	n/a	"NULL"	"NULL"	"NULL"	"stimuli/VerticalHorizontal_-20.27143_-0.2250.png"	n/a	"VerticalHorizontal"	"arrowright"	"1111"	"TRUE"	"VerticalHorizontal"	"-20.27143000"	"-0.225000000"	"1"	"42"
n/a	"html-keyboard-response"	"101"	"237466"	"0.0-5.0-2.0-0.24"	"exq7hc"	"600"	"1366"	"chrome"	"111.0.0"	"FALSE"	"Windows 10"	"60.34"	"065"	n/a	n/a	n/a	n/a	n/a	n/a	"fixation"	n/a	n/a	n/a	n/a	"NULL"	n/a	"NULL"	"NULL"	"NULL"	"<p style=\"color: black; font-size: 80px; padding-left: 23%; padding-right: 7%; padding-top: 36%; padding-bottom: 39%\">+</p>"	"1054"	n/a	n/a	n/a	n/a	n/a	n/a	n/a	n/a	n/a
n/a	"image-keyboard-response"	"102"	"237937"	"0.0-5.0-2.0-1.24"	"exq7hc"	"600"	"1366"	"chrome"	"111.0.0"	"FALSE"	"Windows 10"	"60.34"	"065"	n/a	n/a	n/a	n/a	n/a	n/a	"Trial"	n/a	n/a	n/a	"470"	"arrowleft"	n/a	"NULL"	"NULL"	"NULL"	"stimuli/VerticalHorizontal_-3.3000_-0.1096.png"	n/a	"VerticalHorizontal"	"arrowright"	"1067"	"FALSE"	"VerticalHorizontal"	"-3.300000000"	"-0.109600000"	"1"	"43"
n/a	"html-keyboard-response"	"103"	"238980"	"0.0-5.0-2.0-0.25"	"exq7hc"	"600"	"1366"	"chrome"	"111.0.0"	"FALSE"	"Windows 10"	"60.34"	"065"	n/a	n/a	n/a	n/a	n/a	n/a	"fixation"	n/a	n/a	n/a	n/a	"NULL"	n/a	"NULL"	"NULL"	"NULL"	"<p style=\"color: black; font-size: 80px; padding-left: 43%; padding-right: 44%; padding-top: 38%; padding-bottom: 49%\">+</p>"	"1031"	n/a	n/a	n/a	n/a	n/a	n/a	n/a	n/a	n/a
n/a	"image-keyboard-response"	"104"	"239449"	"0.0-5.0-2.0-1.25"	"exq7hc"	"600"	"1366"	"chrome"	"111.0.0"	"FALSE"	"Windows 10"	"60.34"	"065"	n/a	n/a	n/a	n/a	n/a	n/a	"Trial"	n/a	n/a	n/a	"468"	"arrowright"	n/a	"NULL"	"NULL"	"NULL"	"stimuli/VerticalHorizontal_-28.75714_-0.16217.png"	n/a	"VerticalHorizontal"	"arrowright"	"1043"	"TRUE"	"VerticalHorizontal"	"-28.75714000"	"-0.162170000"	"1"	"44"
n/a	"html-keyboard-response"	"105"	"240613"	"0.0-5.0-2.0-0.26"	"exq7hc"	"600"	"1366"	"chrome"	"111.0.0"	"FALSE"	"Windows 10"	"60.34"	"065"	n/a	n/a	n/a	n/a	n/a	n/a	"fixation"	n/a	n/a	n/a	n/a	"NULL"	n/a	"NULL"	"NULL"	"NULL"	"<p style=\"color: black; font-size: 80px; padding-left: 50%; padding-right: 15%; padding-top: 43%; padding-bottom: 13%\">+</p>"	"1148"	n/a	n/a	n/a	n/a	n/a	n/a	n/a	n/a	n/a
n/a	"image-keyboard-response"	"106"	"241016"	"0.0-5.0-2.0-1.26"	"exq7hc"	"600"	"1366"	"chrome"	"111.0.0"	"FALSE"	"Windows 10"	"60.34"	"065"	n/a	n/a	n/a	n/a	n/a	n/a	"Trial"	n/a	n/a	n/a	"402"	"arrowright"	n/a	"NULL"	"NULL"	"NULL"	"stimuli/VerticalHorizontal_-11.78571_-0.1096.png"	n/a	"VerticalHorizontal"	"arrowright"	"1164"	"TRUE"	"VerticalHorizontal"	"-11.78571000"	"-0.109600000"	"1"	"45"
n/a	"html-keyboard-response"	"107"	"242505"	"0.0-5.0-2.0-0.27"	"exq7hc"	"600"	"1366"	"chrome"	"111.0.0"	"FALSE"	"Windows 10"	"60.34"	"065"	n/a	n/a	n/a	n/a	n/a	n/a	"fixation"	n/a	n/a	n/a	n/a	"NULL"	n/a	"NULL"	"NULL"	"NULL"	"<p style=\"color: black; font-size: 80px; padding-left: 48%; padding-right: 46%; padding-top: 14%; padding-bottom: 21%\">+</p>"	"1484"	n/a	n/a	n/a	n/a	n/a	n/a	n/a	n/a	n/a
n/a	"image-keyboard-response"	"108"	"243256"	"0.0-5.0-2.0-1.27"	"exq7hc"	"600"	"1366"	"chrome"	"111.0.0"	"FALSE"	"Windows 10"	"60.34"	"065"	n/a	n/a	n/a	n/a	n/a	n/a	"Trial"	n/a	n/a	n/a	"750"	"arrowleft"	n/a	"NULL"	"NULL"	"NULL"	"stimuli/VerticalHorizontal_28.75714_-0.0673.png"	n/a	"VerticalHorizontal"	"arrowright"	"1489"	"FALSE"	"VerticalHorizontal"	"28.757140000"	"-0.067300000"	"1"	"46"
n/a	"html-keyboard-response"	"109"	"244655"	"0.0-5.0-2.0-0.28"	"exq7hc"	"600"	"1366"	"chrome"	"111.0.0"	"FALSE"	"Windows 10"	"60.34"	"065"	n/a	n/a	n/a	n/a	n/a	n/a	"fixation"	n/a	n/a	n/a	n/a	"NULL"	n/a	"NULL"	"NULL"	"NULL"	"<p style=\"color: black; font-size: 80px; padding-left: 5%; padding-right: 3%; padding-top: 27%; padding-bottom: 17%\">+</p>"	"1390"	n/a	n/a	n/a	n/a	n/a	n/a	n/a	n/a	n/a
n/a	"image-keyboard-response"	"110"	"245474"	"0.0-5.0-2.0-1.28"	"exq7hc"	"600"	"1366"	"chrome"	"111.0.0"	"FALSE"	"Windows 10"	"60.34"	"065"	n/a	n/a	n/a	n/a	n/a	n/a	"Trial"	n/a	n/a	n/a	"818"	"arrowright"	n/a	"NULL"	"NULL"	"NULL"	"stimuli/VerticalHorizontal_11.78571_-0.0673.png"	n/a	"VerticalHorizontal"	"arrowright"	"1399"	"TRUE"	"VerticalHorizontal"	"11.785710000"	"-0.067300000"	"1"	"47"
n/a	"html-keyboard-response"	"111"	"246855"	"0.0-5.0-2.0-0.29"	"exq7hc"	"600"	"1366"	"chrome"	"111.0.0"	"FALSE"	"Windows 10"	"60.34"	"065"	n/a	n/a	n/a	n/a	n/a	n/a	"fixation"	n/a	n/a	n/a	n/a	"NULL"	n/a	"NULL"	"NULL"	"NULL"	"<p style=\"color: black; font-size: 80px; padding-left: 33%; padding-right: 1%; padding-top: 35%; padding-bottom: 40%\">+</p>"	"1379"	n/a	n/a	n/a	n/a	n/a	n/a	n/a	n/a	n/a
n/a	"image-keyboard-response"	"112"	"247443"	"0.0-5.0-2.0-1.29"	"exq7hc"	"600"	"1366"	"chrome"	"111.0.0"	"FALSE"	"Windows 10"	"60.34"	"065"	n/a	n/a	n/a	n/a	n/a	n/a	"Trial"	n/a	n/a	n/a	"588"	"arrowleft"	n/a	"NULL"	"NULL"	"NULL"	"stimuli/VerticalHorizontal_-3.3000_0.10960.png"	n/a	"VerticalHorizontal"	"arrowleft"	"1381"	"TRUE"	"VerticalHorizontal"	"-3.300000000"	"0.1096000000"	"1"	"48"
n/a	"html-keyboard-response"	"113"	"248635"	"0.0-5.0-2.0-0.30"	"exq7hc"	"600"	"1366"	"chrome"	"111.0.0"	"FALSE"	"Windows 10"	"60.34"	"065"	n/a	n/a	n/a	n/a	n/a	n/a	"fixation"	n/a	n/a	n/a	n/a	"NULL"	n/a	"NULL"	"NULL"	"NULL"	"<p style=\"color: black; font-size: 80px; padding-left: 1%; padding-right: 40%; padding-top: 38%; padding-bottom: 16%\">+</p>"	"1186"	n/a	n/a	n/a	n/a	n/a	n/a	n/a	n/a	n/a
n/a	"image-keyboard-response"	"114"	"249605"	"0.0-5.0-2.0-1.30"	"exq7hc"	"600"	"1366"	"chrome"	"111.0.0"	"FALSE"	"Windows 10"	"60.34"	"065"	n/a	n/a	n/a	n/a	n/a	n/a	"Trial"	n/a	n/a	n/a	"969"	"arrowright"	n/a	"NULL"	"NULL"	"NULL"	"stimuli/VerticalHorizontal_28.75714_0.06730.png"	n/a	"VerticalHorizontal"	"arrowleft"	"1192"	"FALSE"	"VerticalHorizontal"	"28.757140000"	"0.0673000000"	"1"	"49"
n/a	"html-keyboard-response"	"115"	"251080"	"0.0-5.0-2.0-0.31"	"exq7hc"	"600"	"1366"	"chrome"	"111.0.0"	"FALSE"	"Windows 10"	"60.34"	"065"	n/a	n/a	n/a	n/a	n/a	n/a	"fixation"	n/a	n/a	n/a	n/a	"NULL"	n/a	"NULL"	"NULL"	"NULL"	"<p style=\"color: black; font-size: 80px; padding-left: 41%; padding-right: 36%; padding-top: 8%; padding-bottom: 48%\">+</p>"	"1473"	n/a	n/a	n/a	n/a	n/a	n/a	n/a	n/a	n/a
n/a	"image-keyboard-response"	"116"	"251565"	"0.0-5.0-2.0-1.31"	"exq7hc"	"600"	"1366"	"chrome"	"111.0.0"	"FALSE"	"Windows 10"	"60.34"	"065"	n/a	n/a	n/a	n/a	n/a	n/a	"Trial"	n/a	n/a	n/a	"485"	"arrowright"	n/a	"NULL"	"NULL"	"NULL"	"stimuli/VerticalHorizontal_-3.3000_-0.2250.png"	n/a	"VerticalHorizontal"	"arrowright"	"1475"	"TRUE"	"VerticalHorizontal"	"-3.300000000"	"-0.225000000"	"1"	"50"
n/a	"html-keyboard-response"	"117"	"252808"	"0.0-5.0-2.0-0.32"	"exq7hc"	"600"	"1366"	"chrome"	"111.0.0"	"FALSE"	"Windows 10"	"60.34"	"065"	n/a	n/a	n/a	n/a	n/a	n/a	"fixation"	n/a	n/a	n/a	n/a	"NULL"	n/a	"NULL"	"NULL"	"NULL"	"<p style=\"color: black; font-size: 80px; padding-left: 49%; padding-right: 37%; padding-top: 34%; padding-bottom: 30%\">+</p>"	"1229"	n/a	n/a	n/a	n/a	n/a	n/a	n/a	n/a	n/a
n/a	"image-keyboard-response"	"118"	"253653"	"0.0-5.0-2.0-1.32"	"exq7hc"	"600"	"1366"	"chrome"	"111.0.0"	"FALSE"	"Windows 10"	"60.34"	"065"	n/a	n/a	n/a	n/a	n/a	n/a	"Trial"	n/a	n/a	n/a	"844"	"arrowright"	n/a	"NULL"	"NULL"	"NULL"	"stimuli/VerticalHorizontal_3.30000_-0.2250.png"	n/a	"VerticalHorizontal"	"arrowright"	"1243"	"TRUE"	"VerticalHorizontal"	"3.3000000000"	"-0.225000000"	"1"	"51"
n/a	"html-keyboard-response"	"119"	"254933"	"0.0-5.0-2.0-0.33"	"exq7hc"	"600"	"1366"	"chrome"	"111.0.0"	"FALSE"	"Windows 10"	"60.34"	"065"	n/a	n/a	n/a	n/a	n/a	n/a	"fixation"	n/a	n/a	n/a	n/a	"NULL"	n/a	"NULL"	"NULL"	"NULL"	"<p style=\"color: black; font-size: 80px; padding-left: 5%; padding-right: 4%; padding-top: 5%; padding-bottom: 41%\">+</p>"	"1275"	n/a	n/a	n/a	n/a	n/a	n/a	n/a	n/a	n/a
n/a	"image-keyboard-response"	"120"	"255632"	"0.0-5.0-2.0-1.33"	"exq7hc"	"600"	"1366"	"chrome"	"111.0.0"	"FALSE"	"Windows 10"	"60.34"	"065"	n/a	n/a	n/a	n/a	n/a	n/a	"Trial"	n/a	n/a	n/a	"699"	"arrowright"	n/a	"NULL"	"NULL"	"NULL"	"stimuli/VerticalHorizontal_20.27143_-0.1096.png"	n/a	"VerticalHorizontal"	"arrowright"	"1280"	"TRUE"	"VerticalHorizontal"	"20.271430000"	"-0.109600000"	"1"	"52"
n/a	"html-keyboard-response"	"121"	"257144"	"0.0-5.0-2.0-0.34"	"exq7hc"	"600"	"1366"	"chrome"	"111.0.0"	"FALSE"	"Windows 10"	"60.34"	"065"	n/a	n/a	n/a	n/a	n/a	n/a	"fixation"	n/a	n/a	n/a	n/a	"NULL"	n/a	"NULL"	"NULL"	"NULL"	"<p style=\"color: black; font-size: 80px; padding-left: 36%; padding-right: 23%; padding-top: 44%; padding-bottom: 44%\">+</p>"	"1498"	n/a	n/a	n/a	n/a	n/a	n/a	n/a	n/a	n/a
n/a	"image-keyboard-response"	"122"	"257814"	"0.0-5.0-2.0-1.34"	"exq7hc"	"600"	"1366"	"chrome"	"111.0.0"	"FALSE"	"Windows 10"	"60.34"	"065"	n/a	n/a	n/a	n/a	n/a	n/a	"Trial"	n/a	n/a	n/a	"670"	"arrowleft"	n/a	"NULL"	"NULL"	"NULL"	"stimuli/VerticalHorizontal_3.30000_0.10960.png"	n/a	"VerticalHorizontal"	"arrowleft"	"1512"	"TRUE"	"VerticalHorizontal"	"3.3000000000"	"0.1096000000"	"1"	"53"
n/a	"html-keyboard-response"	"123"	"258901"	"0.0-5.0-2.0-0.35"	"exq7hc"	"600"	"1366"	"chrome"	"111.0.0"	"FALSE"	"Windows 10"	"60.34"	"065"	n/a	n/a	n/a	n/a	n/a	n/a	"fixation"	n/a	n/a	n/a	n/a	"NULL"	n/a	"NULL"	"NULL"	"NULL"	"<p style=\"color: black; font-size: 80px; padding-left: 35%; padding-right: 8%; padding-top: 48%; padding-bottom: 41%\">+</p>"	"1074"	n/a	n/a	n/a	n/a	n/a	n/a	n/a	n/a	n/a
n/a	"image-keyboard-response"	"124"	"259453"	"0.0-5.0-2.0-1.35"	"exq7hc"	"600"	"1366"	"chrome"	"111.0.0"	"FALSE"	"Windows 10"	"60.34"	"065"	n/a	n/a	n/a	n/a	n/a	n/a	"Trial"	n/a	n/a	n/a	"551"	"arrowleft"	n/a	"NULL"	"NULL"	"NULL"	"stimuli/VerticalHorizontal_11.78571_0.10960.png"	n/a	"VerticalHorizontal"	"arrowleft"	"1087"	"TRUE"	"VerticalHorizontal"	"11.785710000"	"0.1096000000"	"1"	"54"
n/a	"html-keyboard-response"	"125"	"260852"	"0.0-5.0-2.0-0.36"	"exq7hc"	"600"	"1366"	"chrome"	"111.0.0"	"FALSE"	"Windows 10"	"60.34"	"065"	n/a	n/a	n/a	n/a	n/a	n/a	"fixation"	n/a	n/a	n/a	n/a	"NULL"	n/a	"NULL"	"NULL"	"NULL"	"<p style=\"color: black; font-size: 80px; padding-left: 2%; padding-right: 12%; padding-top: 28%; padding-bottom: 27%\">+</p>"	"1397"	n/a	n/a	n/a	n/a	n/a	n/a	n/a	n/a	n/a
n/a	"image-keyboard-response"	"126"	"261635"	"0.0-5.0-2.0-1.36"	"exq7hc"	"600"	"1366"	"chrome"	"111.0.0"	"FALSE"	"Windows 10"	"60.34"	"065"	n/a	n/a	n/a	n/a	n/a	n/a	"Trial"	n/a	n/a	n/a	"782"	"arrowleft"	n/a	"NULL"	"NULL"	"NULL"	"stimuli/VerticalHorizontal_-11.78571_0.10960.png"	n/a	"VerticalHorizontal"	"arrowleft"	"1399"	"TRUE"	"VerticalHorizontal"	"-11.78571000"	"0.1096000000"	"1"	"55"
n/a	"html-keyboard-response"	"127"	"263090"	"0.0-5.0-2.0-0.37"	"exq7hc"	"600"	"1366"	"chrome"	"111.0.0"	"FALSE"	"Windows 10"	"60.34"	"065"	n/a	n/a	n/a	n/a	n/a	n/a	"fixation"	n/a	n/a	n/a	n/a	"NULL"	n/a	"NULL"	"NULL"	"NULL"	"<p style=\"color: black; font-size: 80px; padding-left: 49%; padding-right: 39%; padding-top: 50%; padding-bottom: 7%\">+</p>"	"1452"	n/a	n/a	n/a	n/a	n/a	n/a	n/a	n/a	n/a
n/a	"image-keyboard-response"	"128"	"263474"	"0.0-5.0-2.0-1.37"	"exq7hc"	"600"	"1366"	"chrome"	"111.0.0"	"FALSE"	"Windows 10"	"60.34"	"065"	n/a	n/a	n/a	n/a	n/a	n/a	"Trial"	n/a	n/a	n/a	"383"	"arrowleft"	n/a	"NULL"	"NULL"	"NULL"	"stimuli/VerticalHorizontal_20.27143_0.16217.png"	n/a	"VerticalHorizontal"	"arrowleft"	"1455"	"TRUE"	"VerticalHorizontal"	"20.271430000"	"0.1621700000"	"1"	"56"
n/a	"html-keyboard-response"	"129"	"264944"	"0.0-5.0-2.0-0.38"	"exq7hc"	"600"	"1366"	"chrome"	"111.0.0"	"FALSE"	"Windows 10"	"60.34"	"065"	n/a	n/a	n/a	n/a	n/a	n/a	"fixation"	n/a	n/a	n/a	n/a	"NULL"	n/a	"NULL"	"NULL"	"NULL"	"<p style=\"color: black; font-size: 80px; padding-left: 11%; padding-right: 1%; padding-top: 20%; padding-bottom: 18%\">+</p>"	"1460"	n/a	n/a	n/a	n/a	n/a	n/a	n/a	n/a	n/a
n/a	"image-keyboard-response"	"130"	"265482"	"0.0-5.0-2.0-1.38"	"exq7hc"	"600"	"1366"	"chrome"	"111.0.0"	"FALSE"	"Windows 10"	"60.34"	"065"	n/a	n/a	n/a	n/a	n/a	n/a	"Trial"	n/a	n/a	n/a	"538"	"arrowright"	n/a	"NULL"	"NULL"	"NULL"	"stimuli/VerticalHorizontal_28.75714_-0.1096.png"	n/a	"VerticalHorizontal"	"arrowright"	"1470"	"TRUE"	"VerticalHorizontal"	"28.757140000"	"-0.109600000"	"1"	"57"
n/a	"html-keyboard-response"	"131"	"266800"	"0.0-5.0-2.0-0.39"	"exq7hc"	"600"	"1366"	"chrome"	"111.0.0"	"FALSE"	"Windows 10"	"60.34"	"065"	n/a	n/a	n/a	n/a	n/a	n/a	"fixation"	n/a	n/a	n/a	n/a	"NULL"	n/a	"NULL"	"NULL"	"NULL"	"<p style=\"color: black; font-size: 80px; padding-left: 24%; padding-right: 15%; padding-top: 18%; padding-bottom: 34%\">+</p>"	"1310"	n/a	n/a	n/a	n/a	n/a	n/a	n/a	n/a	n/a
n/a	"image-keyboard-response"	"132"	"267912"	"0.0-5.0-2.0-1.39"	"exq7hc"	"600"	"1366"	"chrome"	"111.0.0"	"FALSE"	"Windows 10"	"60.34"	"065"	n/a	n/a	n/a	n/a	n/a	n/a	"Trial"	n/a	n/a	n/a	"1111"	"arrowleft"	n/a	"NULL"	"NULL"	"NULL"	"stimuli/VerticalHorizontal_3.30000_-0.0673.png"	n/a	"VerticalHorizontal"	"arrowright"	"1318"	"FALSE"	"VerticalHorizontal"	"3.3000000000"	"-0.067300000"	"1"	"58"
n/a	"html-keyboard-response"	"133"	"269027"	"0.0-5.0-2.0-0.40"	"exq7hc"	"600"	"1366"	"chrome"	"111.0.0"	"FALSE"	"Windows 10"	"60.34"	"065"	n/a	n/a	n/a	n/a	n/a	n/a	"fixation"	n/a	n/a	n/a	n/a	"NULL"	n/a	"NULL"	"NULL"	"NULL"	"<p style=\"color: black; font-size: 80px; padding-left: 43%; padding-right: 0%; padding-top: 38%; padding-bottom: 15%\">+</p>"	"1113"	n/a	n/a	n/a	n/a	n/a	n/a	n/a	n/a	n/a
n/a	"image-keyboard-response"	"134"	"269892"	"0.0-5.0-2.0-1.40"	"exq7hc"	"600"	"1366"	"chrome"	"111.0.0"	"FALSE"	"Windows 10"	"60.34"	"065"	n/a	n/a	n/a	n/a	n/a	n/a	"Trial"	n/a	n/a	n/a	"864"	"arrowleft"	n/a	"NULL"	"NULL"	"NULL"	"stimuli/VerticalHorizontal_20.27143_0.10960.png"	n/a	"VerticalHorizontal"	"arrowleft"	"1115"	"TRUE"	"VerticalHorizontal"	"20.271430000"	"0.1096000000"	"1"	"59"
n/a	"html-keyboard-response"	"135"	"271378"	"0.0-5.0-2.0-0.41"	"exq7hc"	"600"	"1366"	"chrome"	"111.0.0"	"FALSE"	"Windows 10"	"60.34"	"065"	n/a	n/a	n/a	n/a	n/a	n/a	"fixation"	n/a	n/a	n/a	n/a	"NULL"	n/a	"NULL"	"NULL"	"NULL"	"<p style=\"color: black; font-size: 80px; padding-left: 20%; padding-right: 7%; padding-top: 46%; padding-bottom: 35%\">+</p>"	"1480"	n/a	n/a	n/a	n/a	n/a	n/a	n/a	n/a	n/a
n/a	"image-keyboard-response"	"136"	"272017"	"0.0-5.0-2.0-1.41"	"exq7hc"	"600"	"1366"	"chrome"	"111.0.0"	"FALSE"	"Windows 10"	"60.34"	"065"	n/a	n/a	n/a	n/a	n/a	n/a	"Trial"	n/a	n/a	n/a	"638"	"arrowleft"	n/a	"NULL"	"NULL"	"NULL"	"stimuli/VerticalHorizontal_-28.75714_0.10960.png"	n/a	"VerticalHorizontal"	"arrowleft"	"1486"	"TRUE"	"VerticalHorizontal"	"-28.75714000"	"0.1096000000"	"1"	"60"
n/a	"html-keyboard-response"	"137"	"273389"	"0.0-5.0-2.0-0.42"	"exq7hc"	"600"	"1366"	"chrome"	"111.0.0"	"FALSE"	"Windows 10"	"60.34"	"065"	n/a	n/a	n/a	n/a	n/a	n/a	"fixation"	n/a	n/a	n/a	n/a	"NULL"	n/a	"NULL"	"NULL"	"NULL"	"<p style=\"color: black; font-size: 80px; padding-left: 33%; padding-right: 18%; padding-top: 21%; padding-bottom: 9%\">+</p>"	"1360"	n/a	n/a	n/a	n/a	n/a	n/a	n/a	n/a	n/a
n/a	"image-keyboard-response"	"138"	"273820"	"0.0-5.0-2.0-1.42"	"exq7hc"	"600"	"1366"	"chrome"	"111.0.0"	"FALSE"	"Windows 10"	"60.34"	"065"	n/a	n/a	n/a	n/a	n/a	n/a	"Trial"	n/a	n/a	n/a	"430"	"arrowleft"	n/a	"NULL"	"NULL"	"NULL"	"stimuli/VerticalHorizontal_-28.75714_0.16217.png"	n/a	"VerticalHorizontal"	"arrowleft"	"1372"	"TRUE"	"VerticalHorizontal"	"-28.75714000"	"0.1621700000"	"1"	"61"
n/a	"html-keyboard-response"	"139"	"275029"	"0.0-5.0-2.0-0.43"	"exq7hc"	"600"	"1366"	"chrome"	"111.0.0"	"FALSE"	"Windows 10"	"60.34"	"065"	n/a	n/a	n/a	n/a	n/a	n/a	"fixation"	n/a	n/a	n/a	n/a	"NULL"	n/a	"NULL"	"NULL"	"NULL"	"<p style=\"color: black; font-size: 80px; padding-left: 23%; padding-right: 11%; padding-top: 43%; padding-bottom: 33%\">+</p>"	"1201"	n/a	n/a	n/a	n/a	n/a	n/a	n/a	n/a	n/a
n/a	"image-keyboard-response"	"140"	"275561"	"0.0-5.0-2.0-1.43"	"exq7hc"	"600"	"1366"	"chrome"	"111.0.0"	"FALSE"	"Windows 10"	"60.34"	"065"	n/a	n/a	n/a	n/a	n/a	n/a	"Trial"	n/a	n/a	n/a	"531"	"arrowleft"	n/a	"NULL"	"NULL"	"NULL"	"stimuli/VerticalHorizontal_3.30000_0.16217.png"	n/a	"VerticalHorizontal"	"arrowleft"	"1209"	"TRUE"	"VerticalHorizontal"	"3.3000000000"	"0.1621700000"	"1"	"62"
n/a	"html-keyboard-response"	"141"	"276759"	"0.0-5.0-2.0-0.44"	"exq7hc"	"600"	"1366"	"chrome"	"111.0.0"	"FALSE"	"Windows 10"	"60.34"	"065"	n/a	n/a	n/a	n/a	n/a	n/a	"fixation"	n/a	n/a	n/a	n/a	"NULL"	n/a	"NULL"	"NULL"	"NULL"	"<p style=\"color: black; font-size: 80px; padding-left: 1%; padding-right: 34%; padding-top: 26%; padding-bottom: 10%\">+</p>"	"1186"	n/a	n/a	n/a	n/a	n/a	n/a	n/a	n/a	n/a
n/a	"image-keyboard-response"	"142"	"277375"	"0.0-5.0-2.0-1.44"	"exq7hc"	"600"	"1366"	"chrome"	"111.0.0"	"FALSE"	"Windows 10"	"60.34"	"065"	n/a	n/a	n/a	n/a	n/a	n/a	"Trial"	n/a	n/a	n/a	"615"	"arrowright"	n/a	"NULL"	"NULL"	"NULL"	"stimuli/VerticalHorizontal_11.78571_-0.1096.png"	n/a	"VerticalHorizontal"	"arrowright"	"1198"	"TRUE"	"VerticalHorizontal"	"11.785710000"	"-0.109600000"	"1"	"63"
n/a	"html-keyboard-response"	"143"	"278808"	"0.0-5.0-2.0-0.45"	"exq7hc"	"600"	"1366"	"chrome"	"111.0.0"	"FALSE"	"Windows 10"	"60.34"	"065"	n/a	n/a	n/a	n/a	n/a	n/a	"fixation"	n/a	n/a	n/a	n/a	"NULL"	n/a	"NULL"	"NULL"	"NULL"	"<p style=\"color: black; font-size: 80px; padding-left: 26%; padding-right: 39%; padding-top: 15%; padding-bottom: 35%\">+</p>"	"1428"	n/a	n/a	n/a	n/a	n/a	n/a	n/a	n/a	n/a
n/a	"image-keyboard-response"	"144"	"279335"	"0.0-5.0-2.0-1.45"	"exq7hc"	"600"	"1366"	"chrome"	"111.0.0"	"FALSE"	"Windows 10"	"60.34"	"065"	n/a	n/a	n/a	n/a	n/a	n/a	"Trial"	n/a	n/a	n/a	"526"	"arrowright"	n/a	"NULL"	"NULL"	"NULL"	"stimuli/VerticalHorizontal_-28.75714_-0.2250.png"	n/a	"VerticalHorizontal"	"arrowright"	"1433"	"TRUE"	"VerticalHorizontal"	"-28.75714000"	"-0.225000000"	"1"	"64"
n/a	"html-keyboard-response"	"145"	"280354"	"0.0-5.0-2.0-0.46"	"exq7hc"	"600"	"1366"	"chrome"	"111.0.0"	"FALSE"	"Windows 10"	"60.34"	"065"	n/a	n/a	n/a	n/a	n/a	n/a	"fixation"	n/a	n/a	n/a	n/a	"NULL"	n/a	"NULL"	"NULL"	"NULL"	"<p style=\"color: black; font-size: 80px; padding-left: 22%; padding-right: 39%; padding-top: 15%; padding-bottom: 25%\">+</p>"	"1006"	n/a	n/a	n/a	n/a	n/a	n/a	n/a	n/a	n/a
n/a	"image-keyboard-response"	"146"	"280879"	"0.0-5.0-2.0-1.46"	"exq7hc"	"600"	"1366"	"chrome"	"111.0.0"	"FALSE"	"Windows 10"	"60.34"	"065"	n/a	n/a	n/a	n/a	n/a	n/a	"Trial"	n/a	n/a	n/a	"525"	"arrowleft"	n/a	"NULL"	"NULL"	"NULL"	"stimuli/VerticalHorizontal_28.75714_-0.2250.png"	n/a	"VerticalHorizontal"	"arrowright"	"1019"	"FALSE"	"VerticalHorizontal"	"28.757140000"	"-0.225000000"	"1"	"65"
n/a	"html-keyboard-response"	"147"	"282180"	"0.0-5.0-2.0-0.47"	"exq7hc"	"600"	"1366"	"chrome"	"111.0.0"	"FALSE"	"Windows 10"	"60.34"	"065"	n/a	n/a	n/a	n/a	n/a	n/a	"fixation"	n/a	n/a	n/a	n/a	"NULL"	n/a	"NULL"	"NULL"	"NULL"	"<p style=\"color: black; font-size: 80px; padding-left: 49%; padding-right: 27%; padding-top: 30%; padding-bottom: 18%\">+</p>"	"1293"	n/a	n/a	n/a	n/a	n/a	n/a	n/a	n/a	n/a
n/a	"image-keyboard-response"	"148"	"282707"	"0.0-5.0-2.0-1.47"	"exq7hc"	"600"	"1366"	"chrome"	"111.0.0"	"FALSE"	"Windows 10"	"60.34"	"065"	n/a	n/a	n/a	n/a	n/a	n/a	"Trial"	n/a	n/a	n/a	"527"	"arrowleft"	n/a	"NULL"	"NULL"	"NULL"	"stimuli/VerticalHorizontal_28.75714_0.22500.png"	n/a	"VerticalHorizontal"	"arrowleft"	"1301"	"TRUE"	"VerticalHorizontal"	"28.757140000"	"0.2250000000"	"1"	"66"
n/a	"html-keyboard-response"	"149"	"284183"	"0.0-5.0-2.0-0.48"	"exq7hc"	"600"	"1366"	"chrome"	"111.0.0"	"FALSE"	"Windows 10"	"60.34"	"065"	n/a	n/a	n/a	n/a	n/a	n/a	"fixation"	n/a	n/a	n/a	n/a	"NULL"	n/a	"NULL"	"NULL"	"NULL"	"<p style=\"color: black; font-size: 80px; padding-left: 49%; padding-right: 6%; padding-top: 15%; padding-bottom: 6%\">+</p>"	"1475"	n/a	n/a	n/a	n/a	n/a	n/a	n/a	n/a	n/a
n/a	"image-keyboard-response"	"150"	"284800"	"0.0-5.0-2.0-1.48"	"exq7hc"	"600"	"1366"	"chrome"	"111.0.0"	"FALSE"	"Windows 10"	"60.34"	"065"	n/a	n/a	n/a	n/a	n/a	n/a	"Trial"	n/a	n/a	n/a	"616"	"arrowright"	n/a	"NULL"	"NULL"	"NULL"	"stimuli/VerticalHorizontal_11.78571_-0.2250.png"	n/a	"VerticalHorizontal"	"arrowright"	"1476"	"TRUE"	"VerticalHorizontal"	"11.785710000"	"-0.225000000"	"1"	"67"
n/a	"html-keyboard-response"	"151"	"286199"	"0.0-5.0-2.0-0.49"	"exq7hc"	"600"	"1366"	"chrome"	"111.0.0"	"FALSE"	"Windows 10"	"60.34"	"065"	n/a	n/a	n/a	n/a	n/a	n/a	"fixation"	n/a	n/a	n/a	n/a	"NULL"	n/a	"NULL"	"NULL"	"NULL"	"<p style=\"color: black; font-size: 80px; padding-left: 9%; padding-right: 48%; padding-top: 25%; padding-bottom: 33%\">+</p>"	"1391"	n/a	n/a	n/a	n/a	n/a	n/a	n/a	n/a	n/a
n/a	"image-keyboard-response"	"152"	"286677"	"0.0-5.0-2.0-1.49"	"exq7hc"	"600"	"1366"	"chrome"	"111.0.0"	"FALSE"	"Windows 10"	"60.34"	"065"	n/a	n/a	n/a	n/a	n/a	n/a	"Trial"	n/a	n/a	n/a	"477"	"arrowright"	n/a	"NULL"	"NULL"	"NULL"	"stimuli/VerticalHorizontal_-11.78571_-0.0673.png"	n/a	"VerticalHorizontal"	"arrowright"	"1399"	"TRUE"	"VerticalHorizontal"	"-11.78571000"	"-0.067300000"	"1"	"68"
n/a	"html-keyboard-response"	"153"	"287963"	"0.0-5.0-2.0-0.50"	"exq7hc"	"600"	"1366"	"chrome"	"111.0.0"	"FALSE"	"Windows 10"	"60.34"	"065"	n/a	n/a	n/a	n/a	n/a	n/a	"fixation"	n/a	n/a	n/a	n/a	"NULL"	n/a	"NULL"	"NULL"	"NULL"	"<p style=\"color: black; font-size: 80px; padding-left: 11%; padding-right: 32%; padding-top: 2%; padding-bottom: 29%\">+</p>"	"1281"	n/a	n/a	n/a	n/a	n/a	n/a	n/a	n/a	n/a
n/a	"image-keyboard-response"	"154"	"288589"	"0.0-5.0-2.0-1.50"	"exq7hc"	"600"	"1366"	"chrome"	"111.0.0"	"FALSE"	"Windows 10"	"60.34"	"065"	n/a	n/a	n/a	n/a	n/a	n/a	"Trial"	n/a	n/a	n/a	"626"	"arrowright"	n/a	"NULL"	"NULL"	"NULL"	"stimuli/VerticalHorizontal_-20.27143_-0.16217.png"	n/a	"VerticalHorizontal"	"arrowright"	"1286"	"TRUE"	"VerticalHorizontal"	"-20.27143000"	"-0.162170000"	"1"	"69"
n/a	"html-keyboard-response"	"155"	"289693"	"0.0-5.0-2.0-0.51"	"exq7hc"	"600"	"1366"	"chrome"	"111.0.0"	"FALSE"	"Windows 10"	"60.34"	"065"	n/a	n/a	n/a	n/a	n/a	n/a	"fixation"	n/a	n/a	n/a	n/a	"NULL"	n/a	"NULL"	"NULL"	"NULL"	"<p style=\"color: black; font-size: 80px; padding-left: 37%; padding-right: 28%; padding-top: 45%; padding-bottom: 35%\">+</p>"	"1087"	n/a	n/a	n/a	n/a	n/a	n/a	n/a	n/a	n/a
n/a	"image-keyboard-response"	"156"	"290253"	"0.0-5.0-2.0-1.51"	"exq7hc"	"600"	"1366"	"chrome"	"111.0.0"	"FALSE"	"Windows 10"	"60.34"	"065"	n/a	n/a	n/a	n/a	n/a	n/a	"Trial"	n/a	n/a	n/a	"560"	"arrowright"	n/a	"NULL"	"NULL"	"NULL"	"stimuli/VerticalHorizontal_-20.27143_-0.0673.png"	n/a	"VerticalHorizontal"	"arrowright"	"1104"	"TRUE"	"VerticalHorizontal"	"-20.27143000"	"-0.067300000"	"1"	"70"
n/a	"html-keyboard-response"	"157"	"291464"	"0.0-5.0-2.0-0.52"	"exq7hc"	"600"	"1366"	"chrome"	"111.0.0"	"FALSE"	"Windows 10"	"60.34"	"065"	n/a	n/a	n/a	n/a	n/a	n/a	"fixation"	n/a	n/a	n/a	n/a	"NULL"	n/a	"NULL"	"NULL"	"NULL"	"<p style=\"color: black; font-size: 80px; padding-left: 3%; padding-right: 41%; padding-top: 40%; padding-bottom: 9%\">+</p>"	"1204"	n/a	n/a	n/a	n/a	n/a	n/a	n/a	n/a	n/a
n/a	"image-keyboard-response"	"158"	"291950"	"0.0-5.0-2.0-1.52"	"exq7hc"	"600"	"1366"	"chrome"	"111.0.0"	"FALSE"	"Windows 10"	"60.34"	"065"	n/a	n/a	n/a	n/a	n/a	n/a	"Trial"	n/a	n/a	n/a	"486"	"arrowleft"	n/a	"NULL"	"NULL"	"NULL"	"stimuli/VerticalHorizontal_-3.3000_0.16217.png"	n/a	"VerticalHorizontal"	"arrowleft"	"1211"	"TRUE"	"VerticalHorizontal"	"-3.300000000"	"0.1621700000"	"1"	"71"
n/a	"html-keyboard-response"	"159"	"292964"	"0.0-5.0-2.0-0.53"	"exq7hc"	"600"	"1366"	"chrome"	"111.0.0"	"FALSE"	"Windows 10"	"60.34"	"065"	n/a	n/a	n/a	n/a	n/a	n/a	"fixation"	n/a	n/a	n/a	n/a	"NULL"	n/a	"NULL"	"NULL"	"NULL"	"<p style=\"color: black; font-size: 80px; padding-left: 17%; padding-right: 42%; padding-top: 25%; padding-bottom: 29%\">+</p>"	"1009"	n/a	n/a	n/a	n/a	n/a	n/a	n/a	n/a	n/a
n/a	"image-keyboard-response"	"160"	"293939"	"0.0-5.0-2.0-1.53"	"exq7hc"	"600"	"1366"	"chrome"	"111.0.0"	"FALSE"	"Windows 10"	"60.34"	"065"	n/a	n/a	n/a	n/a	n/a	n/a	"Trial"	n/a	n/a	n/a	"974"	"arrowright"	n/a	"NULL"	"NULL"	"NULL"	"stimuli/VerticalHorizontal_-3.3000_-0.0673.png"	n/a	"VerticalHorizontal"	"arrowright"	"1014"	"TRUE"	"VerticalHorizontal"	"-3.300000000"	"-0.067300000"	"1"	"72"
n/a	"html-keyboard-response"	"161"	"295431"	"0.0-5.0-2.0-0.54"	"exq7hc"	"600"	"1366"	"chrome"	"111.0.0"	"FALSE"	"Windows 10"	"60.34"	"065"	n/a	n/a	n/a	n/a	n/a	n/a	"fixation"	n/a	n/a	n/a	n/a	"NULL"	n/a	"NULL"	"NULL"	"NULL"	"<p style=\"color: black; font-size: 80px; padding-left: 23%; padding-right: 45%; padding-top: 33%; padding-bottom: 37%\">+</p>"	"1482"	n/a	n/a	n/a	n/a	n/a	n/a	n/a	n/a	n/a
n/a	"image-keyboard-response"	"162"	"295987"	"0.0-5.0-2.0-1.54"	"exq7hc"	"600"	"1366"	"chrome"	"111.0.0"	"FALSE"	"Windows 10"	"60.34"	"065"	n/a	n/a	n/a	n/a	n/a	n/a	"Trial"	n/a	n/a	n/a	"555"	"arrowleft"	n/a	"NULL"	"NULL"	"NULL"	"stimuli/VerticalHorizontal_28.75714_0.10960.png"	n/a	"VerticalHorizontal"	"arrowleft"	"1492"	"TRUE"	"VerticalHorizontal"	"28.757140000"	"0.1096000000"	"1"	"73"
n/a	"html-keyboard-response"	"163"	"296995"	"0.0-5.0-2.0-0.55"	"exq7hc"	"600"	"1366"	"chrome"	"111.0.0"	"FALSE"	"Windows 10"	"60.34"	"065"	n/a	n/a	n/a	n/a	n/a	n/a	"fixation"	n/a	n/a	n/a	n/a	"NULL"	n/a	"NULL"	"NULL"	"NULL"	"<p style=\"color: black; font-size: 80px; padding-left: 50%; padding-right: 2%; padding-top: 20%; padding-bottom: 33%\">+</p>"	"1003"	n/a	n/a	n/a	n/a	n/a	n/a	n/a	n/a	n/a
n/a	"image-keyboard-response"	"164"	"297724"	"0.0-5.0-2.0-1.55"	"exq7hc"	"600"	"1366"	"chrome"	"111.0.0"	"FALSE"	"Windows 10"	"60.34"	"065"	n/a	n/a	n/a	n/a	n/a	n/a	"Trial"	n/a	n/a	n/a	"728"	"arrowleft"	n/a	"NULL"	"NULL"	"NULL"	"stimuli/VerticalHorizontal_-11.78571_0.06730.png"	n/a	"VerticalHorizontal"	"arrowleft"	"1008"	"TRUE"	"VerticalHorizontal"	"-11.78571000"	"0.0673000000"	"1"	"74"
n/a	"html-keyboard-response"	"165"	"299072"	"0.0-5.0-2.0-0.56"	"exq7hc"	"600"	"1366"	"chrome"	"111.0.0"	"FALSE"	"Windows 10"	"60.34"	"065"	n/a	n/a	n/a	n/a	n/a	n/a	"fixation"	n/a	n/a	n/a	n/a	"NULL"	n/a	"NULL"	"NULL"	"NULL"	"<p style=\"color: black; font-size: 80px; padding-left: 28%; padding-right: 49%; padding-top: 41%; padding-bottom: 4%\">+</p>"	"1342"	n/a	n/a	n/a	n/a	n/a	n/a	n/a	n/a	n/a
n/a	"image-keyboard-response"	"166"	"299536"	"0.0-5.0-2.0-1.56"	"exq7hc"	"600"	"1366"	"chrome"	"111.0.0"	"FALSE"	"Windows 10"	"60.34"	"065"	n/a	n/a	n/a	n/a	n/a	n/a	"Trial"	n/a	n/a	n/a	"463"	"arrowleft"	n/a	"NULL"	"NULL"	"NULL"	"stimuli/VerticalHorizontal_-20.27143_0.16217.png"	n/a	"VerticalHorizontal"	"arrowleft"	"1348"	"TRUE"	"VerticalHorizontal"	"-20.27143000"	"0.1621700000"	"1"	"75"
n/a	"html-keyboard-response"	"167"	"300775"	"0.0-5.0-2.0-0.57"	"exq7hc"	"600"	"1366"	"chrome"	"111.0.0"	"FALSE"	"Windows 10"	"60.34"	"065"	n/a	n/a	n/a	n/a	n/a	n/a	"fixation"	n/a	n/a	n/a	n/a	"NULL"	n/a	"NULL"	"NULL"	"NULL"	"<p style=\"color: black; font-size: 80px; padding-left: 50%; padding-right: 40%; padding-top: 12%; padding-bottom: 48%\">+</p>"	"1223"	n/a	n/a	n/a	n/a	n/a	n/a	n/a	n/a	n/a
n/a	"image-keyboard-response"	"168"	"301275"	"0.0-5.0-2.0-1.57"	"exq7hc"	"600"	"1366"	"chrome"	"111.0.0"	"FALSE"	"Windows 10"	"60.34"	"065"	n/a	n/a	n/a	n/a	n/a	n/a	"Trial"	n/a	n/a	n/a	"499"	"arrowright"	n/a	"NULL"	"NULL"	"NULL"	"stimuli/VerticalHorizontal_-28.75714_-0.1096.png"	n/a	"VerticalHorizontal"	"arrowright"	"1239"	"TRUE"	"VerticalHorizontal"	"-28.75714000"	"-0.109600000"	"1"	"76"
n/a	"html-keyboard-response"	"169"	"302607"	"0.0-5.0-2.0-0.58"	"exq7hc"	"600"	"1366"	"chrome"	"111.0.0"	"FALSE"	"Windows 10"	"60.34"	"065"	n/a	n/a	n/a	n/a	n/a	n/a	"fixation"	n/a	n/a	n/a	n/a	"NULL"	n/a	"NULL"	"NULL"	"NULL"	"<p style=\"color: black; font-size: 80px; padding-left: 20%; padding-right: 44%; padding-top: 40%; padding-bottom: 34%\">+</p>"	"1320"	n/a	n/a	n/a	n/a	n/a	n/a	n/a	n/a	n/a
n/a	"image-keyboard-response"	"170"	"303494"	"0.0-5.0-2.0-1.58"	"exq7hc"	"600"	"1366"	"chrome"	"111.0.0"	"FALSE"	"Windows 10"	"60.34"	"065"	n/a	n/a	n/a	n/a	n/a	n/a	"Trial"	n/a	n/a	n/a	"887"	"arrowleft"	n/a	"NULL"	"NULL"	"NULL"	"stimuli/VerticalHorizontal_11.78571_0.06730.png"	n/a	"VerticalHorizontal"	"arrowleft"	"1332"	"TRUE"	"VerticalHorizontal"	"11.785710000"	"0.0673000000"	"1"	"77"
n/a	"html-keyboard-response"	"171"	"304682"	"0.0-5.0-2.0-0.59"	"exq7hc"	"600"	"1366"	"chrome"	"111.0.0"	"FALSE"	"Windows 10"	"60.34"	"065"	n/a	n/a	n/a	n/a	n/a	n/a	"fixation"	n/a	n/a	n/a	n/a	"NULL"	n/a	"NULL"	"NULL"	"NULL"	"<p style=\"color: black; font-size: 80px; padding-left: 9%; padding-right: 2%; padding-top: 29%; padding-bottom: 35%\">+</p>"	"1185"	n/a	n/a	n/a	n/a	n/a	n/a	n/a	n/a	n/a
n/a	"image-keyboard-response"	"172"	"305519"	"0.0-5.0-2.0-1.59"	"exq7hc"	"600"	"1366"	"chrome"	"111.0.0"	"FALSE"	"Windows 10"	"60.34"	"065"	n/a	n/a	n/a	n/a	n/a	n/a	"Trial"	n/a	n/a	n/a	"836"	"arrowleft"	n/a	"NULL"	"NULL"	"NULL"	"stimuli/VerticalHorizontal_11.78571_0.16217.png"	n/a	"VerticalHorizontal"	"arrowleft"	"1188"	"TRUE"	"VerticalHorizontal"	"11.785710000"	"0.1621700000"	"1"	"78"
n/a	"html-keyboard-response"	"173"	"306537"	"0.0-5.0-2.0-0.60"	"exq7hc"	"600"	"1366"	"chrome"	"111.0.0"	"FALSE"	"Windows 10"	"60.34"	"065"	n/a	n/a	n/a	n/a	n/a	n/a	"fixation"	n/a	n/a	n/a	n/a	"NULL"	n/a	"NULL"	"NULL"	"NULL"	"<p style=\"color: black; font-size: 80px; padding-left: 19%; padding-right: 31%; padding-top: 2%; padding-bottom: 46%\">+</p>"	"1003"	n/a	n/a	n/a	n/a	n/a	n/a	n/a	n/a	n/a
n/a	"image-keyboard-response"	"174"	"307105"	"0.0-5.0-2.0-1.60"	"exq7hc"	"600"	"1366"	"chrome"	"111.0.0"	"FALSE"	"Windows 10"	"60.34"	"065"	n/a	n/a	n/a	n/a	n/a	n/a	"Trial"	n/a	n/a	n/a	"567"	"arrowright"	n/a	"NULL"	"NULL"	"NULL"	"stimuli/VerticalHorizontal_3.30000_-0.1096.png"	n/a	"VerticalHorizontal"	"arrowright"	"1018"	"TRUE"	"VerticalHorizontal"	"3.3000000000"	"-0.109600000"	"1"	"79"
n/a	"html-keyboard-response"	"175"	"308192"	"0.0-5.0-2.0-0.61"	"exq7hc"	"600"	"1366"	"chrome"	"111.0.0"	"FALSE"	"Windows 10"	"60.34"	"065"	n/a	n/a	n/a	n/a	n/a	n/a	"fixation"	n/a	n/a	n/a	n/a	"NULL"	n/a	"NULL"	"NULL"	"NULL"	"<p style=\"color: black; font-size: 80px; padding-left: 33%; padding-right: 39%; padding-top: 37%; padding-bottom: 2%\">+</p>"	"1079"	n/a	n/a	n/a	n/a	n/a	n/a	n/a	n/a	n/a
n/a	"image-keyboard-response"	"176"	"308735"	"0.0-5.0-2.0-1.61"	"exq7hc"	"600"	"1366"	"chrome"	"111.0.0"	"FALSE"	"Windows 10"	"60.34"	"065"	n/a	n/a	n/a	n/a	n/a	n/a	"Trial"	n/a	n/a	n/a	"543"	"arrowright"	n/a	"NULL"	"NULL"	"NULL"	"stimuli/VerticalHorizontal_3.30000_-0.16217.png"	n/a	"VerticalHorizontal"	"arrowright"	"1087"	"TRUE"	"VerticalHorizontal"	"3.3000000000"	"-0.162170000"	"1"	"80"
n/a	"html-keyboard-response"	"177"	"310039"	"0.0-5.0-2.0-0.62"	"exq7hc"	"600"	"1366"	"chrome"	"111.0.0"	"FALSE"	"Windows 10"	"60.34"	"065"	n/a	n/a	n/a	n/a	n/a	n/a	"fixation"	n/a	n/a	n/a	n/a	"NULL"	n/a	"NULL"	"NULL"	"NULL"	"<p style=\"color: black; font-size: 80px; padding-left: 39%; padding-right: 42%; padding-top: 31%; padding-bottom: 13%\">+</p>"	"1300"	n/a	n/a	n/a	n/a	n/a	n/a	n/a	n/a	n/a
n/a	"image-keyboard-response"	"178"	"310958"	"0.0-5.0-2.0-1.62"	"exq7hc"	"600"	"1366"	"chrome"	"111.0.0"	"FALSE"	"Windows 10"	"60.34"	"065"	n/a	n/a	n/a	n/a	n/a	n/a	"Trial"	n/a	n/a	n/a	"918"	"arrowright"	n/a	"NULL"	"NULL"	"NULL"	"stimuli/VerticalHorizontal_28.75714_-0.16217.png"	n/a	"VerticalHorizontal"	"arrowright"	"1304"	"TRUE"	"VerticalHorizontal"	"28.757140000"	"-0.162170000"	"1"	"81"
n/a	"html-keyboard-response"	"179"	"312263"	"0.0-5.0-2.0-0.63"	"exq7hc"	"600"	"1366"	"chrome"	"111.0.0"	"FALSE"	"Windows 10"	"60.34"	"065"	n/a	n/a	n/a	n/a	n/a	n/a	"fixation"	n/a	n/a	n/a	n/a	"NULL"	n/a	"NULL"	"NULL"	"NULL"	"<p style=\"color: black; font-size: 80px; padding-left: 46%; padding-right: 7%; padding-top: 28%; padding-bottom: 49%\">+</p>"	"1296"	n/a	n/a	n/a	n/a	n/a	n/a	n/a	n/a	n/a
n/a	"image-keyboard-response"	"180"	"312779"	"0.0-5.0-2.0-1.63"	"exq7hc"	"600"	"1366"	"chrome"	"111.0.0"	"FALSE"	"Windows 10"	"60.34"	"065"	n/a	n/a	n/a	n/a	n/a	n/a	"Trial"	n/a	n/a	n/a	"515"	"arrowleft"	n/a	"NULL"	"NULL"	"NULL"	"stimuli/VerticalHorizontal_-20.27143_0.22500.png"	n/a	"VerticalHorizontal"	"arrowleft"	"1305"	"TRUE"	"VerticalHorizontal"	"-20.27143000"	"0.2250000000"	"1"	"82"
n/a	"html-button-response"	"181"	"331396"	"0.0-5.0-3.0"	"exq7hc"	"600"	"1366"	"chrome"	"111.0.0"	"FALSE"	"Windows 10"	"60.34"	"065"	n/a	n/a	n/a	n/a	n/a	n/a	"block_results"	n/a	n/a	n/a	"18615"	"0"	n/a	"NULL"	"NULL"	"NULL"	"<p>Your score for this illusion is <p style=\"color: black; font-size: 48px; font-weight: bold;\">80.4 %</p><hr><p>Can you do better in the next illusion?</p>"	n/a	n/a	n/a	n/a	n/a	n/a	n/a	n/a	n/a	n/a
"TRUE"	"preload"	"182"	"331625"	"0.0-6.0-0.0"	"exq7hc"	"600"	"1366"	"chrome"	"111.0.0"	"FALSE"	"Windows 10"	"60.34"	"065"	n/a	n/a	n/a	n/a	n/a	n/a	n/a	n/a	n/a	n/a	n/a	"NULL"	"FALSE"	"list()"	"list()"	"list()"	n/a	n/a	n/a	n/a	n/a	n/a	n/a	n/a	n/a	n/a	n/a
n/a	"html-keyboard-response"	"183"	"335643"	"0.0-6.0-1.0"	"exq7hc"	"600"	"1366"	"chrome"	"111.0.0"	"FALSE"	"Windows 10"	"60.34"	"065"	n/a	n/a	n/a	n/a	n/a	n/a	n/a	n/a	n/a	n/a	"4017"	"enter"	n/a	"NULL"	"NULL"	"NULL"	"<p><b>Part 2/6</b></p><p>In this part, two red circles will appear side by side on the screen.</p><p>Your task is to select which <b>red circle is bigger</b> in size as fast as you can, without making errors.</p><p>Don't get distracted by the surrounding black circles around the red circles!</p><p>Press <b>the LEFT or the RIGHT arrow</b> to indicate which is the bigger <b>red circle.</b></p><div style='float: center'><img src='materials/instructions/Ebbinghaus_Demo.png' height='300'></img><p><img src='utils/answer/answer_leftright_keyboard.PNG' height='150'></img></p><p class='small'>In this example, the correct answer is the <b>LEFT arrow</b>.</p></div><p>Are you ready? <b>Press ENTER to start</b></p>"	n/a	n/a	n/a	n/a	n/a	n/a	n/a	n/a	n/a	n/a
n/a	"html-keyboard-response"	"184"	"337168"	"0.0-6.0-2.0-0.0"	"exq7hc"	"600"	"1366"	"chrome"	"111.0.0"	"FALSE"	"Windows 10"	"60.34"	"065"	n/a	n/a	n/a	n/a	n/a	n/a	"fixation"	n/a	n/a	n/a	n/a	"NULL"	n/a	"NULL"	"NULL"	"NULL"	"<p style=\"color: black; font-size: 80px; padding-left: 43%; padding-right: 5%; padding-top: 46%; padding-bottom: 34%\">+</p>"	"1012"	n/a	n/a	n/a	n/a	n/a	n/a	n/a	n/a	n/a
n/a	"image-keyboard-response"	"185"	"338301"	"0.0-6.0-2.0-1.0"	"exq7hc"	"600"	"1366"	"chrome"	"111.0.0"	"FALSE"	"Windows 10"	"60.34"	"065"	n/a	n/a	n/a	n/a	n/a	n/a	"Trial"	n/a	n/a	n/a	"1133"	"arrowleft"	n/a	"NULL"	"NULL"	"NULL"	"stimuli/Ebbinghaus_-0.61429_0.28000.png"	n/a	"Ebbinghaus"	"arrowleft"	"1525"	"TRUE"	"Ebbinghaus"	"-0.614290000"	"0.2800000000"	"2"	"1"
n/a	"html-keyboard-response"	"186"	"339671"	"0.0-6.0-2.0-0.1"	"exq7hc"	"600"	"1366"	"chrome"	"111.0.0"	"FALSE"	"Windows 10"	"60.34"	"065"	n/a	n/a	n/a	n/a	n/a	n/a	"fixation"	n/a	n/a	n/a	n/a	"NULL"	n/a	"NULL"	"NULL"	"NULL"	"<p style=\"color: black; font-size: 80px; padding-left: 34%; padding-right: 22%; padding-top: 29%; padding-bottom: 10%\">+</p>"	"1357"	n/a	n/a	n/a	n/a	n/a	n/a	n/a	n/a	n/a
n/a	"image-keyboard-response"	"187"	"340448"	"0.0-6.0-2.0-1.1"	"exq7hc"	"600"	"1366"	"chrome"	"111.0.0"	"FALSE"	"Windows 10"	"60.34"	"065"	n/a	n/a	n/a	n/a	n/a	n/a	"Trial"	n/a	n/a	n/a	"777"	"arrowleft"	n/a	"NULL"	"NULL"	"NULL"	"stimuli/Ebbinghaus_-0.35714_0.21500.png"	n/a	"Ebbinghaus"	"arrowleft"	"1370"	"TRUE"	"Ebbinghaus"	"-0.357140000"	"0.2150000000"	"2"	"2"
n/a	"html-keyboard-response"	"188"	"341829"	"0.0-6.0-2.0-0.2"	"exq7hc"	"600"	"1366"	"chrome"	"111.0.0"	"FALSE"	"Windows 10"	"60.34"	"065"	n/a	n/a	n/a	n/a	n/a	n/a	"fixation"	n/a	n/a	n/a	n/a	"NULL"	n/a	"NULL"	"NULL"	"NULL"	"<p style=\"color: black; font-size: 80px; padding-left: 41%; padding-right: 47%; padding-top: 34%; padding-bottom: 48%\">+</p>"	"1368"	n/a	n/a	n/a	n/a	n/a	n/a	n/a	n/a	n/a
n/a	"image-keyboard-response"	"189"	"342438"	"0.0-6.0-2.0-1.2"	"exq7hc"	"600"	"1366"	"chrome"	"111.0.0"	"FALSE"	"Windows 10"	"60.34"	"065"	n/a	n/a	n/a	n/a	n/a	n/a	"Trial"	n/a	n/a	n/a	"608"	"arrowright"	n/a	"NULL"	"NULL"	"NULL"	"stimuli/Ebbinghaus_-0.1000_-0.2800.png"	n/a	"Ebbinghaus"	"arrowright"	"1381"	"TRUE"	"Ebbinghaus"	"-0.100000000"	"-0.280000000"	"2"	"3"
n/a	"html-keyboard-response"	"190"	"343932"	"0.0-6.0-2.0-0.3"	"exq7hc"	"600"	"1366"	"chrome"	"111.0.0"	"FALSE"	"Windows 10"	"60.34"	"065"	n/a	n/a	n/a	n/a	n/a	n/a	"fixation"	n/a	n/a	n/a	n/a	"NULL"	n/a	"NULL"	"NULL"	"NULL"	"<p style=\"color: black; font-size: 80px; padding-left: 14%; padding-right: 46%; padding-top: 10%; padding-bottom: 14%\">+</p>"	"1479"	n/a	n/a	n/a	n/a	n/a	n/a	n/a	n/a	n/a
n/a	"image-keyboard-response"	"191"	"344642"	"0.0-6.0-2.0-1.3"	"exq7hc"	"600"	"1366"	"chrome"	"111.0.0"	"FALSE"	"Windows 10"	"60.34"	"065"	n/a	n/a	n/a	n/a	n/a	n/a	"Trial"	n/a	n/a	n/a	"710"	"arrowright"	n/a	"NULL"	"NULL"	"NULL"	"stimuli/Ebbinghaus_0.61429_-0.11071.png"	n/a	"Ebbinghaus"	"arrowright"	"1494"	"TRUE"	"Ebbinghaus"	"0.6142900000"	"-0.110710000"	"2"	"4"
n/a	"html-keyboard-response"	"192"	"346123"	"0.0-6.0-2.0-0.4"	"exq7hc"	"600"	"1366"	"chrome"	"111.0.0"	"FALSE"	"Windows 10"	"60.34"	"065"	n/a	n/a	n/a	n/a	n/a	n/a	"fixation"	n/a	n/a	n/a	n/a	"NULL"	n/a	"NULL"	"NULL"	"NULL"	"<p style=\"color: black; font-size: 80px; padding-left: 13%; padding-right: 14%; padding-top: 43%; padding-bottom: 30%\">+</p>"	"1479"	n/a	n/a	n/a	n/a	n/a	n/a	n/a	n/a	n/a
n/a	"image-keyboard-response"	"193"	"346701"	"0.0-6.0-2.0-1.4"	"exq7hc"	"600"	"1366"	"chrome"	"111.0.0"	"FALSE"	"Windows 10"	"60.34"	"065"	n/a	n/a	n/a	n/a	n/a	n/a	"Trial"	n/a	n/a	n/a	"578"	"arrowright"	n/a	"NULL"	"NULL"	"NULL"	"stimuli/Ebbinghaus_0.10000_-0.2150.png"	n/a	"Ebbinghaus"	"arrowright"	"1481"	"TRUE"	"Ebbinghaus"	"0.1000000000"	"-0.215000000"	"2"	"5"
n/a	"html-keyboard-response"	"194"	"347994"	"0.0-6.0-2.0-0.5"	"exq7hc"	"600"	"1366"	"chrome"	"111.0.0"	"FALSE"	"Windows 10"	"60.34"	"065"	n/a	n/a	n/a	n/a	n/a	n/a	"fixation"	n/a	n/a	n/a	n/a	"NULL"	n/a	"NULL"	"NULL"	"NULL"	"<p style=\"color: black; font-size: 80px; padding-left: 49%; padding-right: 26%; padding-top: 5%; padding-bottom: 36%\">+</p>"	"1281"	n/a	n/a	n/a	n/a	n/a	n/a	n/a	n/a	n/a
n/a	"image-keyboard-response"	"195"	"348596"	"0.0-6.0-2.0-1.5"	"exq7hc"	"600"	"1366"	"chrome"	"111.0.0"	"FALSE"	"Windows 10"	"60.34"	"065"	n/a	n/a	n/a	n/a	n/a	n/a	"Trial"	n/a	n/a	n/a	"602"	"arrowleft"	n/a	"NULL"	"NULL"	"NULL"	"stimuli/Ebbinghaus_0.10000_0.28000.png"	n/a	"Ebbinghaus"	"arrowleft"	"1293"	"TRUE"	"Ebbinghaus"	"0.1000000000"	"0.2800000000"	"2"	"6"
n/a	"html-keyboard-response"	"196"	"349683"	"0.0-6.0-2.0-0.6"	"exq7hc"	"600"	"1366"	"chrome"	"111.0.0"	"FALSE"	"Windows 10"	"60.34"	"065"	n/a	n/a	n/a	n/a	n/a	n/a	"fixation"	n/a	n/a	n/a	n/a	"NULL"	n/a	"NULL"	"NULL"	"NULL"	"<p style=\"color: black; font-size: 80px; padding-left: 19%; padding-right: 26%; padding-top: 5%; padding-bottom: 5%\">+</p>"	"1084"	n/a	n/a	n/a	n/a	n/a	n/a	n/a	n/a	n/a
n/a	"image-keyboard-response"	"197"	"350410"	"0.0-6.0-2.0-1.6"	"exq7hc"	"600"	"1366"	"chrome"	"111.0.0"	"FALSE"	"Windows 10"	"60.34"	"065"	n/a	n/a	n/a	n/a	n/a	n/a	"Trial"	n/a	n/a	n/a	"726"	"arrowleft"	n/a	"NULL"	"NULL"	"NULL"	"stimuli/Ebbinghaus_0.35714_0.15857.png"	n/a	"Ebbinghaus"	"arrowleft"	"1087"	"TRUE"	"Ebbinghaus"	"0.3571400000"	"0.1585700000"	"2"	"7"
n/a	"html-keyboard-response"	"198"	"351808"	"0.0-6.0-2.0-0.7"	"exq7hc"	"600"	"1366"	"chrome"	"111.0.0"	"FALSE"	"Windows 10"	"60.34"	"065"	n/a	n/a	n/a	n/a	n/a	n/a	"fixation"	n/a	n/a	n/a	n/a	"NULL"	n/a	"NULL"	"NULL"	"NULL"	"<p style=\"color: black; font-size: 80px; padding-left: 16%; padding-right: 20%; padding-top: 34%; padding-bottom: 15%\">+</p>"	"1383"	n/a	n/a	n/a	n/a	n/a	n/a	n/a	n/a	n/a
n/a	"image-keyboard-response"	"199"	"352496"	"0.0-6.0-2.0-1.7"	"exq7hc"	"600"	"1366"	"chrome"	"111.0.0"	"FALSE"	"Windows 10"	"60.34"	"065"	n/a	n/a	n/a	n/a	n/a	n/a	"Trial"	n/a	n/a	n/a	"688"	"arrowleft"	n/a	"NULL"	"NULL"	"NULL"	"stimuli/Ebbinghaus_-0.1000_0.21500.png"	n/a	"Ebbinghaus"	"arrowleft"	"1398"	"TRUE"	"Ebbinghaus"	"-0.100000000"	"0.2150000000"	"2"	"8"
n/a	"html-keyboard-response"	"200"	"353714"	"0.0-6.0-2.0-0.8"	"exq7hc"	"600"	"1366"	"chrome"	"111.0.0"	"FALSE"	"Windows 10"	"60.34"	"065"	n/a	n/a	n/a	n/a	n/a	n/a	"fixation"	n/a	n/a	n/a	n/a	"NULL"	n/a	"NULL"	"NULL"	"NULL"	"<p style=\"color: black; font-size: 80px; padding-left: 28%; padding-right: 3%; padding-top: 3%; padding-bottom: 24%\">+</p>"	"1206"	n/a	n/a	n/a	n/a	n/a	n/a	n/a	n/a	n/a
n/a	"image-keyboard-response"	"201"	"355040"	"0.0-6.0-2.0-1.8"	"exq7hc"	"600"	"1366"	"chrome"	"111.0.0"	"FALSE"	"Windows 10"	"60.34"	"065"	n/a	n/a	n/a	n/a	n/a	n/a	"Trial"	n/a	n/a	n/a	"1325"	"arrowleft"	n/a	"NULL"	"NULL"	"NULL"	"stimuli/Ebbinghaus_0.87143_0.11071.png"	n/a	"Ebbinghaus"	"arrowleft"	"1218"	"TRUE"	"Ebbinghaus"	"0.8714300000"	"0.1107100000"	"2"	"9"
n/a	"html-keyboard-response"	"202"	"356507"	"0.0-6.0-2.0-0.9"	"exq7hc"	"600"	"1366"	"chrome"	"111.0.0"	"FALSE"	"Windows 10"	"60.34"	"065"	n/a	n/a	n/a	n/a	n/a	n/a	"fixation"	n/a	n/a	n/a	n/a	"NULL"	n/a	"NULL"	"NULL"	"NULL"	"<p style=\"color: black; font-size: 80px; padding-left: 28%; padding-right: 30%; padding-top: 42%; padding-bottom: 2%\">+</p>"	"1455"	n/a	n/a	n/a	n/a	n/a	n/a	n/a	n/a	n/a
n/a	"image-keyboard-response"	"203"	"357342"	"0.0-6.0-2.0-1.9"	"exq7hc"	"600"	"1366"	"chrome"	"111.0.0"	"FALSE"	"Windows 10"	"60.34"	"065"	n/a	n/a	n/a	n/a	n/a	n/a	"Trial"	n/a	n/a	n/a	"834"	"arrowright"	n/a	"NULL"	"NULL"	"NULL"	"stimuli/Ebbinghaus_-0.61429_-0.15857.png"	n/a	"Ebbinghaus"	"arrowright"	"1467"	"TRUE"	"Ebbinghaus"	"-0.614290000"	"-0.158570000"	"2"	"10"
n/a	"html-keyboard-response"	"204"	"358824"	"0.0-6.0-2.0-0.10"	"exq7hc"	"600"	"1366"	"chrome"	"111.0.0"	"FALSE"	"Windows 10"	"60.34"	"065"	n/a	n/a	n/a	n/a	n/a	n/a	"fixation"	n/a	n/a	n/a	n/a	"NULL"	n/a	"NULL"	"NULL"	"NULL"	"<p style=\"color: black; font-size: 80px; padding-left: 20%; padding-right: 10%; padding-top: 34%; padding-bottom: 29%\">+</p>"	"1477"	n/a	n/a	n/a	n/a	n/a	n/a	n/a	n/a	n/a
n/a	"image-keyboard-response"	"205"	"359370"	"0.0-6.0-2.0-1.10"	"exq7hc"	"600"	"1366"	"chrome"	"111.0.0"	"FALSE"	"Windows 10"	"60.34"	"065"	n/a	n/a	n/a	n/a	n/a	n/a	"Trial"	n/a	n/a	n/a	"545"	"arrowleft"	n/a	"NULL"	"NULL"	"NULL"	"stimuli/Ebbinghaus_0.87143_0.21500.png"	n/a	"Ebbinghaus"	"arrowleft"	"1482"	"TRUE"	"Ebbinghaus"	"0.8714300000"	"0.2150000000"	"2"	"11"
n/a	"html-keyboard-response"	"206"	"360583"	"0.0-6.0-2.0-0.11"	"exq7hc"	"600"	"1366"	"chrome"	"111.0.0"	"FALSE"	"Windows 10"	"60.34"	"065"	n/a	n/a	n/a	n/a	n/a	n/a	"fixation"	n/a	n/a	n/a	n/a	"NULL"	n/a	"NULL"	"NULL"	"NULL"	"<p style=\"color: black; font-size: 80px; padding-left: 26%; padding-right: 6%; padding-top: 42%; padding-bottom: 38%\">+</p>"	"1202"	n/a	n/a	n/a	n/a	n/a	n/a	n/a	n/a	n/a
n/a	"image-keyboard-response"	"207"	"361432"	"0.0-6.0-2.0-1.11"	"exq7hc"	"600"	"1366"	"chrome"	"111.0.0"	"FALSE"	"Windows 10"	"60.34"	"065"	n/a	n/a	n/a	n/a	n/a	n/a	"Trial"	n/a	n/a	n/a	"848"	"arrowright"	n/a	"NULL"	"NULL"	"NULL"	"stimuli/Ebbinghaus_-0.1000_-0.11071.png"	n/a	"Ebbinghaus"	"arrowright"	"1213"	"TRUE"	"Ebbinghaus"	"-0.100000000"	"-0.110710000"	"2"	"12"
n/a	"html-keyboard-response"	"208"	"362659"	"0.0-6.0-2.0-0.12"	"exq7hc"	"600"	"1366"	"chrome"	"111.0.0"	"FALSE"	"Windows 10"	"60.34"	"065"	n/a	n/a	n/a	n/a	n/a	n/a	"fixation"	n/a	n/a	n/a	n/a	"NULL"	n/a	"NULL"	"NULL"	"NULL"	"<p style=\"color: black; font-size: 80px; padding-left: 8%; padding-right: 21%; padding-top: 39%; padding-bottom: 8%\">+</p>"	"1215"	n/a	n/a	n/a	n/a	n/a	n/a	n/a	n/a	n/a
n/a	"image-keyboard-response"	"209"	"363400"	"0.0-6.0-2.0-1.12"	"exq7hc"	"600"	"1366"	"chrome"	"111.0.0"	"FALSE"	"Windows 10"	"60.34"	"065"	n/a	n/a	n/a	n/a	n/a	n/a	"Trial"	n/a	n/a	n/a	"740"	"arrowleft"	n/a	"NULL"	"NULL"	"NULL"	"stimuli/Ebbinghaus_0.10000_0.21500.png"	n/a	"Ebbinghaus"	"arrowleft"	"1227"	"TRUE"	"Ebbinghaus"	"0.1000000000"	"0.2150000000"	"2"	"13"
n/a	"html-keyboard-response"	"210"	"364705"	"0.0-6.0-2.0-0.13"	"exq7hc"	"600"	"1366"	"chrome"	"111.0.0"	"FALSE"	"Windows 10"	"60.34"	"065"	n/a	n/a	n/a	n/a	n/a	n/a	"fixation"	n/a	n/a	n/a	n/a	"NULL"	n/a	"NULL"	"NULL"	"NULL"	"<p style=\"color: black; font-size: 80px; padding-left: 6%; padding-right: 1%; padding-top: 41%; padding-bottom: 9%\">+</p>"	"1303"	n/a	n/a	n/a	n/a	n/a	n/a	n/a	n/a	n/a
n/a	"image-keyboard-response"	"211"	"365425"	"0.0-6.0-2.0-1.13"	"exq7hc"	"600"	"1366"	"chrome"	"111.0.0"	"FALSE"	"Windows 10"	"60.34"	"065"	n/a	n/a	n/a	n/a	n/a	n/a	"Trial"	n/a	n/a	n/a	"719"	"arrowleft"	n/a	"NULL"	"NULL"	"NULL"	"stimuli/Ebbinghaus_0.61429_0.21500.png"	n/a	"Ebbinghaus"	"arrowleft"	"1305"	"TRUE"	"Ebbinghaus"	"0.6142900000"	"0.2150000000"	"2"	"14"
n/a	"html-keyboard-response"	"212"	"366641"	"0.0-6.0-2.0-0.14"	"exq7hc"	"600"	"1366"	"chrome"	"111.0.0"	"FALSE"	"Windows 10"	"60.34"	"065"	n/a	n/a	n/a	n/a	n/a	n/a	"fixation"	n/a	n/a	n/a	n/a	"NULL"	n/a	"NULL"	"NULL"	"NULL"	"<p style=\"color: black; font-size: 80px; padding-left: 37%; padding-right: 22%; padding-top: 22%; padding-bottom: 14%\">+</p>"	"1202"	n/a	n/a	n/a	n/a	n/a	n/a	n/a	n/a	n/a
n/a	"image-keyboard-response"	"213"	"367504"	"0.0-6.0-2.0-1.14"	"exq7hc"	"600"	"1366"	"chrome"	"111.0.0"	"FALSE"	"Windows 10"	"60.34"	"065"	n/a	n/a	n/a	n/a	n/a	n/a	"Trial"	n/a	n/a	n/a	"862"	"arrowleft"	n/a	"NULL"	"NULL"	"NULL"	"stimuli/Ebbinghaus_0.61429_0.15857.png"	n/a	"Ebbinghaus"	"arrowleft"	"1216"	"TRUE"	"Ebbinghaus"	"0.6142900000"	"0.1585700000"	"2"	"15"
n/a	"html-keyboard-response"	"214"	"368859"	"0.0-6.0-2.0-0.15"	"exq7hc"	"600"	"1366"	"chrome"	"111.0.0"	"FALSE"	"Windows 10"	"60.34"	"065"	n/a	n/a	n/a	n/a	n/a	n/a	"fixation"	n/a	n/a	n/a	n/a	"NULL"	n/a	"NULL"	"NULL"	"NULL"	"<p style=\"color: black; font-size: 80px; padding-left: 29%; padding-right: 28%; padding-top: 27%; padding-bottom: 33%\">+</p>"	"1349"	n/a	n/a	n/a	n/a	n/a	n/a	n/a	n/a	n/a
n/a	"image-keyboard-response"	"215"	"370160"	"0.0-6.0-2.0-1.15"	"exq7hc"	"600"	"1366"	"chrome"	"111.0.0"	"FALSE"	"Windows 10"	"60.34"	"065"	n/a	n/a	n/a	n/a	n/a	n/a	"Trial"	n/a	n/a	n/a	"1300"	"arrowleft"	n/a	"NULL"	"NULL"	"NULL"	"stimuli/Ebbinghaus_-0.87143_0.21500.png"	n/a	"Ebbinghaus"	"arrowleft"	"1355"	"TRUE"	"Ebbinghaus"	"-0.871430000"	"0.2150000000"	"2"	"16"
n/a	"html-keyboard-response"	"216"	"371588"	"0.0-6.0-2.0-0.16"	"exq7hc"	"600"	"1366"	"chrome"	"111.0.0"	"FALSE"	"Windows 10"	"60.34"	"065"	n/a	n/a	n/a	n/a	n/a	n/a	"fixation"	n/a	n/a	n/a	n/a	"NULL"	n/a	"NULL"	"NULL"	"NULL"	"<p style=\"color: black; font-size: 80px; padding-left: 50%; padding-right: 47%; padding-top: 30%; padding-bottom: 47%\">+</p>"	"1413"	n/a	n/a	n/a	n/a	n/a	n/a	n/a	n/a	n/a
n/a	"image-keyboard-response"	"217"	"372239"	"0.0-6.0-2.0-1.16"	"exq7hc"	"600"	"1366"	"chrome"	"111.0.0"	"FALSE"	"Windows 10"	"60.34"	"065"	n/a	n/a	n/a	n/a	n/a	n/a	"Trial"	n/a	n/a	n/a	"650"	"arrowright"	n/a	"NULL"	"NULL"	"NULL"	"stimuli/Ebbinghaus_0.35714_-0.15857.png"	n/a	"Ebbinghaus"	"arrowright"	"1428"	"TRUE"	"Ebbinghaus"	"0.3571400000"	"-0.158570000"	"2"	"17"
n/a	"html-keyboard-response"	"218"	"373415"	"0.0-6.0-2.0-0.17"	"exq7hc"	"600"	"1366"	"chrome"	"111.0.0"	"FALSE"	"Windows 10"	"60.34"	"065"	n/a	n/a	n/a	n/a	n/a	n/a	"fixation"	n/a	n/a	n/a	n/a	"NULL"	n/a	"NULL"	"NULL"	"NULL"	"<p style=\"color: black; font-size: 80px; padding-left: 1%; padding-right: 35%; padding-top: 27%; padding-bottom: 31%\">+</p>"	"1161"	n/a	n/a	n/a	n/a	n/a	n/a	n/a	n/a	n/a
n/a	"image-keyboard-response"	"219"	"374337"	"0.0-6.0-2.0-1.17"	"exq7hc"	"600"	"1366"	"chrome"	"111.0.0"	"FALSE"	"Windows 10"	"60.34"	"065"	n/a	n/a	n/a	n/a	n/a	n/a	"Trial"	n/a	n/a	n/a	"921"	"arrowright"	n/a	"NULL"	"NULL"	"NULL"	"stimuli/Ebbinghaus_0.35714_-0.11071.png"	n/a	"Ebbinghaus"	"arrowright"	"1176"	"TRUE"	"Ebbinghaus"	"0.3571400000"	"-0.110710000"	"2"	"18"
n/a	"html-keyboard-response"	"220"	"375652"	"0.0-6.0-2.0-0.18"	"exq7hc"	"600"	"1366"	"chrome"	"111.0.0"	"FALSE"	"Windows 10"	"60.34"	"065"	n/a	n/a	n/a	n/a	n/a	n/a	"fixation"	n/a	n/a	n/a	n/a	"NULL"	n/a	"NULL"	"NULL"	"NULL"	"<p style=\"color: black; font-size: 80px; padding-left: 41%; padding-right: 46%; padding-top: 7%; padding-bottom: 50%\">+</p>"	"1302"	n/a	n/a	n/a	n/a	n/a	n/a	n/a	n/a	n/a
n/a	"image-keyboard-response"	"221"	"376359"	"0.0-6.0-2.0-1.18"	"exq7hc"	"600"	"1366"	"chrome"	"111.0.0"	"FALSE"	"Windows 10"	"60.34"	"065"	n/a	n/a	n/a	n/a	n/a	n/a	"Trial"	n/a	n/a	n/a	"707"	"arrowright"	n/a	"NULL"	"NULL"	"NULL"	"stimuli/Ebbinghaus_0.10000_-0.15857.png"	n/a	"Ebbinghaus"	"arrowright"	"1315"	"TRUE"	"Ebbinghaus"	"0.1000000000"	"-0.158570000"	"2"	"19"
n/a	"html-keyboard-response"	"222"	"377730"	"0.0-6.0-2.0-0.19"	"exq7hc"	"600"	"1366"	"chrome"	"111.0.0"	"FALSE"	"Windows 10"	"60.34"	"065"	n/a	n/a	n/a	n/a	n/a	n/a	"fixation"	n/a	n/a	n/a	n/a	"NULL"	n/a	"NULL"	"NULL"	"NULL"	"<p style=\"color: black; font-size: 80px; padding-left: 46%; padding-right: 50%; padding-top: 10%; padding-bottom: 50%\">+</p>"	"1363"	n/a	n/a	n/a	n/a	n/a	n/a	n/a	n/a	n/a
n/a	"image-keyboard-response"	"223"	"378283"	"0.0-6.0-2.0-1.19"	"exq7hc"	"600"	"1366"	"chrome"	"111.0.0"	"FALSE"	"Windows 10"	"60.34"	"065"	n/a	n/a	n/a	n/a	n/a	n/a	"Trial"	n/a	n/a	n/a	"552"	"arrowright"	n/a	"NULL"	"NULL"	"NULL"	"stimuli/Ebbinghaus_-0.87143_-0.15857.png"	n/a	"Ebbinghaus"	"arrowright"	"1371"	"TRUE"	"Ebbinghaus"	"-0.871430000"	"-0.158570000"	"2"	"20"
n/a	"html-keyboard-response"	"224"	"379713"	"0.0-6.0-2.0-0.20"	"exq7hc"	"600"	"1366"	"chrome"	"111.0.0"	"FALSE"	"Windows 10"	"60.34"	"065"	n/a	n/a	n/a	n/a	n/a	n/a	"fixation"	n/a	n/a	n/a	n/a	"NULL"	n/a	"NULL"	"NULL"	"NULL"	"<p style=\"color: black; font-size: 80px; padding-left: 21%; padding-right: 25%; padding-top: 48%; padding-bottom: 37%\">+</p>"	"1418"	n/a	n/a	n/a	n/a	n/a	n/a	n/a	n/a	n/a
n/a	"image-keyboard-response"	"225"	"381697"	"0.0-6.0-2.0-1.20"	"exq7hc"	"600"	"1366"	"chrome"	"111.0.0"	"FALSE"	"Windows 10"	"60.34"	"065"	n/a	n/a	n/a	n/a	n/a	n/a	"Trial"	n/a	n/a	n/a	"1984"	"arrowright"	n/a	"NULL"	"NULL"	"NULL"	"stimuli/Ebbinghaus_-0.1000_0.15857.png"	n/a	"Ebbinghaus"	"arrowleft"	"1430"	"FALSE"	"Ebbinghaus"	"-0.100000000"	"0.1585700000"	"2"	"21"
n/a	"html-keyboard-response"	"226"	"382785"	"0.0-6.0-2.0-0.21"	"exq7hc"	"600"	"1366"	"chrome"	"111.0.0"	"FALSE"	"Windows 10"	"60.34"	"065"	n/a	n/a	n/a	n/a	n/a	n/a	"fixation"	n/a	n/a	n/a	n/a	"NULL"	n/a	"NULL"	"NULL"	"NULL"	"<p style=\"color: black; font-size: 80px; padding-left: 6%; padding-right: 4%; padding-top: 49%; padding-bottom: 1%\">+</p>"	"1082"	n/a	n/a	n/a	n/a	n/a	n/a	n/a	n/a	n/a
n/a	"image-keyboard-response"	"227"	"383430"	"0.0-6.0-2.0-1.21"	"exq7hc"	"600"	"1366"	"chrome"	"111.0.0"	"FALSE"	"Windows 10"	"60.34"	"065"	n/a	n/a	n/a	n/a	n/a	n/a	"Trial"	n/a	n/a	n/a	"644"	"arrowright"	n/a	"NULL"	"NULL"	"NULL"	"stimuli/Ebbinghaus_-0.35714_-0.2150.png"	n/a	"Ebbinghaus"	"arrowright"	"1088"	"TRUE"	"Ebbinghaus"	"-0.357140000"	"-0.215000000"	"2"	"22"
n/a	"html-keyboard-response"	"228"	"384730"	"0.0-6.0-2.0-0.22"	"exq7hc"	"600"	"1366"	"chrome"	"111.0.0"	"FALSE"	"Windows 10"	"60.34"	"065"	n/a	n/a	n/a	n/a	n/a	n/a	"fixation"	n/a	n/a	n/a	n/a	"NULL"	n/a	"NULL"	"NULL"	"NULL"	"<p style=\"color: black; font-size: 80px; padding-left: 21%; padding-right: 17%; padding-top: 19%; padding-bottom: 39%\">+</p>"	"1286"	n/a	n/a	n/a	n/a	n/a	n/a	n/a	n/a	n/a
n/a	"image-keyboard-response"	"229"	"385380"	"0.0-6.0-2.0-1.22"	"exq7hc"	"600"	"1366"	"chrome"	"111.0.0"	"FALSE"	"Windows 10"	"60.34"	"065"	n/a	n/a	n/a	n/a	n/a	n/a	"Trial"	n/a	n/a	n/a	"649"	"arrowleft"	n/a	"NULL"	"NULL"	"NULL"	"stimuli/Ebbinghaus_0.87143_0.15857.png"	n/a	"Ebbinghaus"	"arrowleft"	"1300"	"TRUE"	"Ebbinghaus"	"0.8714300000"	"0.1585700000"	"2"	"23"
n/a	"html-keyboard-response"	"230"	"386863"	"0.0-6.0-2.0-0.23"	"exq7hc"	"600"	"1366"	"chrome"	"111.0.0"	"FALSE"	"Windows 10"	"60.34"	"065"	n/a	n/a	n/a	n/a	n/a	n/a	"fixation"	n/a	n/a	n/a	n/a	"NULL"	n/a	"NULL"	"NULL"	"NULL"	"<p style=\"color: black; font-size: 80px; padding-left: 26%; padding-right: 17%; padding-top: 40%; padding-bottom: 33%\">+</p>"	"1475"	n/a	n/a	n/a	n/a	n/a	n/a	n/a	n/a	n/a
n/a	"image-keyboard-response"	"231"	"387650"	"0.0-6.0-2.0-1.23"	"exq7hc"	"600"	"1366"	"chrome"	"111.0.0"	"FALSE"	"Windows 10"	"60.34"	"065"	n/a	n/a	n/a	n/a	n/a	n/a	"Trial"	n/a	n/a	n/a	"783"	"arrowright"	n/a	"NULL"	"NULL"	"NULL"	"stimuli/Ebbinghaus_-0.35714_0.11071.png"	n/a	"Ebbinghaus"	"arrowleft"	"1483"	"FALSE"	"Ebbinghaus"	"-0.357140000"	"0.1107100000"	"2"	"24"
n/a	"html-keyboard-response"	"232"	"388793"	"0.0-6.0-2.0-0.24"	"exq7hc"	"600"	"1366"	"chrome"	"111.0.0"	"FALSE"	"Windows 10"	"60.34"	"065"	n/a	n/a	n/a	n/a	n/a	n/a	"fixation"	n/a	n/a	n/a	n/a	"NULL"	n/a	"NULL"	"NULL"	"NULL"	"<p style=\"color: black; font-size: 80px; padding-left: 17%; padding-right: 1%; padding-top: 4%; padding-bottom: 36%\">+</p>"	"1136"	n/a	n/a	n/a	n/a	n/a	n/a	n/a	n/a	n/a
n/a	"image-keyboard-response"	"233"	"389453"	"0.0-6.0-2.0-1.24"	"exq7hc"	"600"	"1366"	"chrome"	"111.0.0"	"FALSE"	"Windows 10"	"60.34"	"065"	n/a	n/a	n/a	n/a	n/a	n/a	"Trial"	n/a	n/a	n/a	"659"	"arrowleft"	n/a	"NULL"	"NULL"	"NULL"	"stimuli/Ebbinghaus_-0.35714_0.28000.png"	n/a	"Ebbinghaus"	"arrowleft"	"1143"	"TRUE"	"Ebbinghaus"	"-0.357140000"	"0.2800000000"	"2"	"25"
n/a	"html-keyboard-response"	"234"	"390661"	"0.0-6.0-2.0-0.25"	"exq7hc"	"600"	"1366"	"chrome"	"111.0.0"	"FALSE"	"Windows 10"	"60.34"	"065"	n/a	n/a	n/a	n/a	n/a	n/a	"fixation"	n/a	n/a	n/a	n/a	"NULL"	n/a	"NULL"	"NULL"	"NULL"	"<p style=\"color: black; font-size: 80px; padding-left: 40%; padding-right: 8%; padding-top: 2%; padding-bottom: 12%\">+</p>"	"1206"	n/a	n/a	n/a	n/a	n/a	n/a	n/a	n/a	n/a
n/a	"image-keyboard-response"	"235"	"391599"	"0.0-6.0-2.0-1.25"	"exq7hc"	"600"	"1366"	"chrome"	"111.0.0"	"FALSE"	"Windows 10"	"60.34"	"065"	n/a	n/a	n/a	n/a	n/a	n/a	"Trial"	n/a	n/a	n/a	"938"	"arrowright"	n/a	"NULL"	"NULL"	"NULL"	"stimuli/Ebbinghaus_-0.35714_-0.11071.png"	n/a	"Ebbinghaus"	"arrowright"	"1208"	"TRUE"	"Ebbinghaus"	"-0.357140000"	"-0.110710000"	"2"	"26"
n/a	"html-keyboard-response"	"236"	"392895"	"0.0-6.0-2.0-0.26"	"exq7hc"	"600"	"1366"	"chrome"	"111.0.0"	"FALSE"	"Windows 10"	"60.34"	"065"	n/a	n/a	n/a	n/a	n/a	n/a	"fixation"	n/a	n/a	n/a	n/a	"NULL"	n/a	"NULL"	"NULL"	"NULL"	"<p style=\"color: black; font-size: 80px; padding-left: 40%; padding-right: 11%; padding-top: 9%; padding-bottom: 1%\">+</p>"	"1289"	n/a	n/a	n/a	n/a	n/a	n/a	n/a	n/a	n/a
n/a	"image-keyboard-response"	"237"	"393552"	"0.0-6.0-2.0-1.26"	"exq7hc"	"600"	"1366"	"chrome"	"111.0.0"	"FALSE"	"Windows 10"	"60.34"	"065"	n/a	n/a	n/a	n/a	n/a	n/a	"Trial"	n/a	n/a	n/a	"656"	"arrowright"	n/a	"NULL"	"NULL"	"NULL"	"stimuli/Ebbinghaus_0.35714_-0.2800.png"	n/a	"Ebbinghaus"	"arrowright"	"1296"	"TRUE"	"Ebbinghaus"	"0.3571400000"	"-0.280000000"	"2"	"27"
n/a	"html-keyboard-response"	"238"	"394618"	"0.0-6.0-2.0-0.27"	"exq7hc"	"600"	"1366"	"chrome"	"111.0.0"	"FALSE"	"Windows 10"	"60.34"	"065"	n/a	n/a	n/a	n/a	n/a	n/a	"fixation"	n/a	n/a	n/a	n/a	"NULL"	n/a	"NULL"	"NULL"	"NULL"	"<p style=\"color: black; font-size: 80px; padding-left: 35%; padding-right: 17%; padding-top: 5%; padding-bottom: 42%\">+</p>"	"1063"	n/a	n/a	n/a	n/a	n/a	n/a	n/a	n/a	n/a
n/a	"image-keyboard-response"	"239"	"395586"	"0.0-6.0-2.0-1.27"	"exq7hc"	"600"	"1366"	"chrome"	"111.0.0"	"FALSE"	"Windows 10"	"60.34"	"065"	n/a	n/a	n/a	n/a	n/a	n/a	"Trial"	n/a	n/a	n/a	"968"	"arrowright"	n/a	"NULL"	"NULL"	"NULL"	"stimuli/Ebbinghaus_0.10000_-0.11071.png"	n/a	"Ebbinghaus"	"arrowright"	"1066"	"TRUE"	"Ebbinghaus"	"0.1000000000"	"-0.110710000"	"2"	"28"
n/a	"html-keyboard-response"	"240"	"396825"	"0.0-6.0-2.0-0.28"	"exq7hc"	"600"	"1366"	"chrome"	"111.0.0"	"FALSE"	"Windows 10"	"60.34"	"065"	n/a	n/a	n/a	n/a	n/a	n/a	"fixation"	n/a	n/a	n/a	n/a	"NULL"	n/a	"NULL"	"NULL"	"NULL"	"<p style=\"color: black; font-size: 80px; padding-left: 33%; padding-right: 34%; padding-top: 9%; padding-bottom: 17%\">+</p>"	"1235"	n/a	n/a	n/a	n/a	n/a	n/a	n/a	n/a	n/a
n/a	"image-keyboard-response"	"241"	"397809"	"0.0-6.0-2.0-1.28"	"exq7hc"	"600"	"1366"	"chrome"	"111.0.0"	"FALSE"	"Windows 10"	"60.34"	"065"	n/a	n/a	n/a	n/a	n/a	n/a	"Trial"	n/a	n/a	n/a	"983"	"arrowright"	n/a	"NULL"	"NULL"	"NULL"	"stimuli/Ebbinghaus_0.87143_-0.2150.png"	n/a	"Ebbinghaus"	"arrowright"	"1239"	"TRUE"	"Ebbinghaus"	"0.8714300000"	"-0.215000000"	"2"	"29"
n/a	"html-keyboard-response"	"242"	"398977"	"0.0-6.0-2.0-0.29"	"exq7hc"	"600"	"1366"	"chrome"	"111.0.0"	"FALSE"	"Windows 10"	"60.34"	"065"	n/a	n/a	n/a	n/a	n/a	n/a	"fixation"	n/a	n/a	n/a	n/a	"NULL"	n/a	"NULL"	"NULL"	"NULL"	"<p style=\"color: black; font-size: 80px; padding-left: 23%; padding-right: 10%; padding-top: 50%; padding-bottom: 1%\">+</p>"	"1158"	n/a	n/a	n/a	n/a	n/a	n/a	n/a	n/a	n/a
n/a	"image-keyboard-response"	"243"	"399701"	"0.0-6.0-2.0-1.29"	"exq7hc"	"600"	"1366"	"chrome"	"111.0.0"	"FALSE"	"Windows 10"	"60.34"	"065"	n/a	n/a	n/a	n/a	n/a	n/a	"Trial"	n/a	n/a	n/a	"723"	"arrowleft"	n/a	"NULL"	"NULL"	"NULL"	"stimuli/Ebbinghaus_-0.61429_-0.2800.png"	n/a	"Ebbinghaus"	"arrowright"	"1168"	"FALSE"	"Ebbinghaus"	"-0.614290000"	"-0.280000000"	"2"	"30"
n/a	"html-keyboard-response"	"244"	"400880"	"0.0-6.0-2.0-0.30"	"exq7hc"	"600"	"1366"	"chrome"	"111.0.0"	"FALSE"	"Windows 10"	"60.34"	"065"	n/a	n/a	n/a	n/a	n/a	n/a	"fixation"	n/a	n/a	n/a	n/a	"NULL"	n/a	"NULL"	"NULL"	"NULL"	"<p style=\"color: black; font-size: 80px; padding-left: 16%; padding-right: 41%; padding-top: 49%; padding-bottom: 45%\">+</p>"	"1176"	n/a	n/a	n/a	n/a	n/a	n/a	n/a	n/a	n/a
n/a	"image-keyboard-response"	"245"	"401723"	"0.0-6.0-2.0-1.30"	"exq7hc"	"600"	"1366"	"chrome"	"111.0.0"	"FALSE"	"Windows 10"	"60.34"	"065"	n/a	n/a	n/a	n/a	n/a	n/a	"Trial"	n/a	n/a	n/a	"842"	"arrowleft"	n/a	"NULL"	"NULL"	"NULL"	"stimuli/Ebbinghaus_-0.61429_0.15857.png"	n/a	"Ebbinghaus"	"arrowleft"	"1179"	"TRUE"	"Ebbinghaus"	"-0.614290000"	"0.1585700000"	"2"	"31"
n/a	"html-keyboard-response"	"246"	"403164"	"0.0-6.0-2.0-0.31"	"exq7hc"	"600"	"1366"	"chrome"	"111.0.0"	"FALSE"	"Windows 10"	"60.34"	"065"	n/a	n/a	n/a	n/a	n/a	n/a	"fixation"	n/a	n/a	n/a	n/a	"NULL"	n/a	"NULL"	"NULL"	"NULL"	"<p style=\"color: black; font-size: 80px; padding-left: 45%; padding-right: 18%; padding-top: 5%; padding-bottom: 33%\">+</p>"	"1426"	n/a	n/a	n/a	n/a	n/a	n/a	n/a	n/a	n/a
n/a	"image-keyboard-response"	"247"	"404055"	"0.0-6.0-2.0-1.31"	"exq7hc"	"600"	"1366"	"chrome"	"111.0.0"	"FALSE"	"Windows 10"	"60.34"	"065"	n/a	n/a	n/a	n/a	n/a	n/a	"Trial"	n/a	n/a	n/a	"890"	"arrowright"	n/a	"NULL"	"NULL"	"NULL"	"stimuli/Ebbinghaus_0.87143_-0.11071.png"	n/a	"Ebbinghaus"	"arrowright"	"1441"	"TRUE"	"Ebbinghaus"	"0.8714300000"	"-0.110710000"	"2"	"32"
n/a	"html-keyboard-response"	"248"	"405276"	"0.0-6.0-2.0-0.32"	"exq7hc"	"600"	"1366"	"chrome"	"111.0.0"	"FALSE"	"Windows 10"	"60.34"	"065"	n/a	n/a	n/a	n/a	n/a	n/a	"fixation"	n/a	n/a	n/a	n/a	"NULL"	n/a	"NULL"	"NULL"	"NULL"	"<p style=\"color: black; font-size: 80px; padding-left: 12%; padding-right: 11%; padding-top: 2%; padding-bottom: 1%\">+</p>"	"1212"	n/a	n/a	n/a	n/a	n/a	n/a	n/a	n/a	n/a
