"success"	"trial_type"	"trial_index"	"time_elapsed"	"internal_node_id"	"participant_id"	"screen_height"	"screen_width"	"browser"	"browser_version"	"mobile"	"os"	"vsync_rate"	"subject_id"	"width"	"height"	"webaudio"	"fullscreen"	"webcam"	"microphone"	"screen"	"version"	"date"	"time"	"rt"	"response"	"timeout"	"failed_images"	"failed_audio"	"failed_video"	"stimulus"	"trial_duration"	"block"	"correct_response"	"prestimulus_duration"	"correct"	"type"	"illusion_strength"	"illusion_difference"	"block_number"	"trial_number"
"TRUE"	"fullscreen"	"0"	"3462"	"0.0-0.0"	"tgnvl6"	"600"	"1366"	"chrome"	"111.0.0"	"FALSE"	"Windows 10"	"60.17"	"064"	n/a	n/a	n/a	n/a	n/a	n/a	n/a	n/a	n/a	n/a	n/a	"NULL"	n/a	"NULL"	"NULL"	"NULL"	n/a	n/a	n/a	n/a	n/a	n/a	n/a	n/a	n/a	n/a	n/a
n/a	"browser-check"	"1"	"4471"	"0.0-1.0"	"tgnvl6"	"600"	"1366"	"chrome"	"111.0.0"	"FALSE"	"Windows 10"	"60.17"	"064"	"1366"	"600"	"TRUE"	"TRUE"	"TRUE"	"TRUE"	"browser_info"	"1.0"	"28/03/2023"	"18:11:53"	n/a	"NULL"	n/a	"NULL"	"NULL"	"NULL"	n/a	n/a	n/a	n/a	n/a	n/a	n/a	n/a	n/a	n/a	n/a
n/a	"survey-text"	"2"	"7285"	"0.0-2.0"	"tgnvl6"	"600"	"1366"	"chrome"	"111.0.0"	"FALSE"	"Windows 10"	"60.17"	"064"	n/a	n/a	n/a	n/a	n/a	n/a	"subject_id"	n/a	n/a	n/a	"2810"	"list(subject_id = \"064\")"	n/a	"NULL"	"NULL"	"NULL"	n/a	n/a	n/a	n/a	n/a	n/a	n/a	n/a	n/a	n/a	n/a
"TRUE"	"preload"	"3"	"7294"	"0.0-3.0"	"tgnvl6"	"600"	"1366"	"chrome"	"111.0.0"	"FALSE"	"Windows 10"	"60.17"	"064"	n/a	n/a	n/a	n/a	n/a	n/a	n/a	n/a	n/a	n/a	n/a	"NULL"	"FALSE"	"list()"	"list()"	"list()"	n/a	n/a	n/a	n/a	n/a	n/a	n/a	n/a	n/a	n/a	n/a
n/a	"html-button-response"	"4"	"26682"	"0.0-4.0-0.0"	"tgnvl6"	"600"	"1366"	"chrome"	"111.0.0"	"FALSE"	"Windows 10"	"60.17"	"064"	n/a	n/a	n/a	n/a	n/a	n/a	"illusion_instructions"	n/a	n/a	n/a	"19387"	"0"	n/a	"NULL"	"NULL"	"NULL"	"<p><b>Illusion Game</b></p><p>In this game of speed and reflex, you will need to make <b>visual judgments</b> (for instance, which circle is the biggest, or which line is the longest), as fast and as correctly as possible, while <b>resisting different visual illusions</b>.</p><p>We are going to start with some examples of all the illusions you will encounter in the game.</p>"	n/a	n/a	n/a	n/a	n/a	n/a	n/a	n/a	n/a	n/a
"TRUE"	"preload"	"5"	"26698"	"0.0-4.0-1.0-0.0"	"tgnvl6"	"600"	"1366"	"chrome"	"111.0.0"	"FALSE"	"Windows 10"	"60.17"	"064"	n/a	n/a	n/a	n/a	n/a	n/a	n/a	n/a	n/a	n/a	n/a	"NULL"	"FALSE"	"list()"	"list()"	"list()"	n/a	n/a	n/a	n/a	n/a	n/a	n/a	n/a	n/a	n/a	n/a
n/a	"html-keyboard-response"	"6"	"59694"	"0.0-4.0-1.0-1.0"	"tgnvl6"	"600"	"1366"	"chrome"	"111.0.0"	"FALSE"	"Windows 10"	"60.17"	"064"	n/a	n/a	n/a	n/a	n/a	n/a	n/a	n/a	n/a	n/a	"32994"	"enter"	n/a	"NULL"	"NULL"	"NULL"	"<p><b>Practice</b></p><p>In this part, two red circles will appear side by side on the screen.</p><p>Your task is to select which <b>red circle is bigger</b> in size as fast as you can, without making errors.</p><p>Don't get distracted by the surrounding black circles around the red circles!</p><p>Press <b>the LEFT or the RIGHT arrow</b> to indicate which is the bigger <b>red circle.</b></p><div style='float: center'><img src='materials/instructions/Ebbinghaus_Demo.png' height='300'></img><p><img src='utils/answer/answer_leftright_keyboard.PNG' height='150'></img></p><p class='small'>In this example, the correct answer is the <b>LEFT arrow</b>.</p></div><p>Are you ready? <b>Press ENTER to start</b></p>"	n/a	n/a	n/a	n/a	n/a	n/a	n/a	n/a	n/a	n/a
n/a	"html-keyboard-response"	"7"	"61482"	"0.0-4.0-1.0-2.0-0.0"	"tgnvl6"	"600"	"1366"	"chrome"	"111.0.0"	"FALSE"	"Windows 10"	"60.17"	"064"	n/a	n/a	n/a	n/a	n/a	n/a	"fixation"	n/a	n/a	n/a	n/a	"NULL"	n/a	"NULL"	"NULL"	"NULL"	"<p style=\"color: black; font-size: 80px; padding-left: 47%; padding-right: 35%; padding-top: 47%; padding-bottom: 41%\">+</p>"	"1275"	n/a	n/a	n/a	n/a	n/a	n/a	n/a	n/a	n/a
n/a	"image-keyboard-response"	"8"	"62951"	"0.0-4.0-1.0-2.0-1.0"	"tgnvl6"	"600"	"1366"	"chrome"	"111.0.0"	"FALSE"	"Windows 10"	"60.17"	"064"	n/a	n/a	n/a	n/a	n/a	n/a	"Trial"	n/a	n/a	n/a	"1460"	"arrowleft"	n/a	"NULL"	"NULL"	"NULL"	"stimuli/Ebbinghaus_1000000_1.40000.png"	n/a	"Ebbinghaus"	"arrowleft"	"1788"	"TRUE"	"Ebbinghaus"	"100000000000"	"1.4000000000"	"1"	"1"
n/a	"html-keyboard-response"	"9"	"64115"	"0.0-4.0-1.0-2.0-0.1"	"tgnvl6"	"600"	"1366"	"chrome"	"111.0.0"	"FALSE"	"Windows 10"	"60.17"	"064"	n/a	n/a	n/a	n/a	n/a	n/a	"fixation"	n/a	n/a	n/a	n/a	"NULL"	n/a	"NULL"	"NULL"	"NULL"	"<p style=\"color: black; font-size: 80px; padding-left: 40%; padding-right: 7%; padding-top: 43%; padding-bottom: 43%\">+</p>"	"1149"	n/a	n/a	n/a	n/a	n/a	n/a	n/a	n/a	n/a
n/a	"image-keyboard-response"	"10"	"65048"	"0.0-4.0-1.0-2.0-1.1"	"tgnvl6"	"600"	"1366"	"chrome"	"111.0.0"	"FALSE"	"Windows 10"	"60.17"	"064"	n/a	n/a	n/a	n/a	n/a	n/a	"Trial"	n/a	n/a	n/a	"931"	"arrowleft"	n/a	"NULL"	"NULL"	"NULL"	"stimuli/Ebbinghaus_0000000_1.40000.png"	n/a	"Ebbinghaus"	"arrowleft"	"1164"	"TRUE"	"Ebbinghaus"	"000000000000"	"1.4000000000"	"1"	"2"
n/a	"html-keyboard-response"	"11"	"66428"	"0.0-4.0-1.0-2.0-0.2"	"tgnvl6"	"600"	"1366"	"chrome"	"111.0.0"	"FALSE"	"Windows 10"	"60.17"	"064"	n/a	n/a	n/a	n/a	n/a	n/a	"fixation"	n/a	n/a	n/a	n/a	"NULL"	n/a	"NULL"	"NULL"	"NULL"	"<p style=\"color: black; font-size: 80px; padding-left: 27%; padding-right: 11%; padding-top: 12%; padding-bottom: 29%\">+</p>"	"1372"	n/a	n/a	n/a	n/a	n/a	n/a	n/a	n/a	n/a
n/a	"image-keyboard-response"	"12"	"67047"	"0.0-4.0-1.0-2.0-1.2"	"tgnvl6"	"600"	"1366"	"chrome"	"111.0.0"	"FALSE"	"Windows 10"	"60.17"	"064"	n/a	n/a	n/a	n/a	n/a	n/a	"Trial"	n/a	n/a	n/a	"619"	"arrowright"	n/a	"NULL"	"NULL"	"NULL"	"stimuli/Ebbinghaus_-100000_-1.4000.png"	n/a	"Ebbinghaus"	"arrowright"	"1380"	"TRUE"	"Ebbinghaus"	"-10000000000"	"-1.400000000"	"1"	"3"
n/a	"html-keyboard-response"	"13"	"68390"	"0.0-4.0-1.0-2.0-0.3"	"tgnvl6"	"600"	"1366"	"chrome"	"111.0.0"	"FALSE"	"Windows 10"	"60.17"	"064"	n/a	n/a	n/a	n/a	n/a	n/a	"fixation"	n/a	n/a	n/a	n/a	"NULL"	n/a	"NULL"	"NULL"	"NULL"	"<p style=\"color: black; font-size: 80px; padding-left: 36%; padding-right: 42%; padding-top: 15%; padding-bottom: 44%\">+</p>"	"1328"	n/a	n/a	n/a	n/a	n/a	n/a	n/a	n/a	n/a
n/a	"image-keyboard-response"	"14"	"68856"	"0.0-4.0-1.0-2.0-1.3"	"tgnvl6"	"600"	"1366"	"chrome"	"111.0.0"	"FALSE"	"Windows 10"	"60.17"	"064"	n/a	n/a	n/a	n/a	n/a	n/a	"Trial"	n/a	n/a	n/a	"466"	"arrowleft"	n/a	"NULL"	"NULL"	"NULL"	"stimuli/Ebbinghaus_-100000_1.40000.png"	n/a	"Ebbinghaus"	"arrowleft"	"1343"	"TRUE"	"Ebbinghaus"	"-10000000000"	"1.4000000000"	"1"	"4"
n/a	"html-keyboard-response"	"15"	"70214"	"0.0-4.0-1.0-2.0-0.4"	"tgnvl6"	"600"	"1366"	"chrome"	"111.0.0"	"FALSE"	"Windows 10"	"60.17"	"064"	n/a	n/a	n/a	n/a	n/a	n/a	"fixation"	n/a	n/a	n/a	n/a	"NULL"	n/a	"NULL"	"NULL"	"NULL"	"<p style=\"color: black; font-size: 80px; padding-left: 7%; padding-right: 22%; padding-top: 13%; padding-bottom: 11%\">+</p>"	"1354"	n/a	n/a	n/a	n/a	n/a	n/a	n/a	n/a	n/a
n/a	"image-keyboard-response"	"16"	"70707"	"0.0-4.0-1.0-2.0-1.4"	"tgnvl6"	"600"	"1366"	"chrome"	"111.0.0"	"FALSE"	"Windows 10"	"60.17"	"064"	n/a	n/a	n/a	n/a	n/a	n/a	"Trial"	n/a	n/a	n/a	"492"	"arrowright"	n/a	"NULL"	"NULL"	"NULL"	"stimuli/Ebbinghaus_0000000_-1.4000.png"	n/a	"Ebbinghaus"	"arrowright"	"1358"	"TRUE"	"Ebbinghaus"	"000000000000"	"-1.400000000"	"1"	"5"
n/a	"html-keyboard-response"	"17"	"71997"	"0.0-4.0-1.0-2.0-0.5"	"tgnvl6"	"600"	"1366"	"chrome"	"111.0.0"	"FALSE"	"Windows 10"	"60.17"	"064"	n/a	n/a	n/a	n/a	n/a	n/a	"fixation"	n/a	n/a	n/a	n/a	"NULL"	n/a	"NULL"	"NULL"	"NULL"	"<p style=\"color: black; font-size: 80px; padding-left: 9%; padding-right: 23%; padding-top: 19%; padding-bottom: 34%\">+</p>"	"1275"	n/a	n/a	n/a	n/a	n/a	n/a	n/a	n/a	n/a
n/a	"image-keyboard-response"	"18"	"72476"	"0.0-4.0-1.0-2.0-1.5"	"tgnvl6"	"600"	"1366"	"chrome"	"111.0.0"	"FALSE"	"Windows 10"	"60.17"	"064"	n/a	n/a	n/a	n/a	n/a	n/a	"Trial"	n/a	n/a	n/a	"478"	"arrowright"	n/a	"NULL"	"NULL"	"NULL"	"stimuli/Ebbinghaus_1000000_-1.4000.png"	n/a	"Ebbinghaus"	"arrowright"	"1290"	"TRUE"	"Ebbinghaus"	"100000000000"	"-1.400000000"	"1"	"6"
n/a	"html-button-response"	"19"	"91572"	"0.0-4.0-1.0-3.0"	"tgnvl6"	"600"	"1366"	"chrome"	"111.0.0"	"FALSE"	"Windows 10"	"60.17"	"064"	n/a	n/a	n/a	n/a	n/a	n/a	"practice_block_results"	n/a	n/a	n/a	"19094"	"0"	n/a	"NULL"	"NULL"	"NULL"	"<p style='color:rgb(76,175,80);'> Correct Responses: <b>100.00%</b></p><hr><p style='color:rgb(233,30,99);'> Average Response Time: <b>741.00</b> ms.</p>"	n/a	n/a	n/a	n/a	n/a	n/a	n/a	n/a	n/a	n/a
"TRUE"	"preload"	"20"	"92100"	"0.0-4.0-2.0-0.0"	"tgnvl6"	"600"	"1366"	"chrome"	"111.0.0"	"FALSE"	"Windows 10"	"60.17"	"064"	n/a	n/a	n/a	n/a	n/a	n/a	n/a	n/a	n/a	n/a	n/a	"NULL"	"FALSE"	"list()"	"list()"	"list()"	n/a	n/a	n/a	n/a	n/a	n/a	n/a	n/a	n/a	n/a	n/a
n/a	"html-keyboard-response"	"21"	"99177"	"0.0-4.0-2.0-1.0"	"tgnvl6"	"600"	"1366"	"chrome"	"111.0.0"	"FALSE"	"Windows 10"	"60.17"	"064"	n/a	n/a	n/a	n/a	n/a	n/a	n/a	n/a	n/a	n/a	"7076"	"enter"	n/a	"NULL"	"NULL"	"NULL"	"<p><b>Practice</b></p><p>In this part, two horizontal red lines will appear one above the other.</p><p>Your task is to select which <b>line is longer</b> in length as fast as you can, without making errors.</p><p>Don't get distracted by the surrounding black arrows at the end of the red lines!</p><p>Press <b>the UP or the DOWN arrow</b> to indicate where is the longer <b>red line.</b></p><div style='float: center'><img src='materials/instructions/MullerLyer_Demo.png' height='300'></img><p><img src='utils/answer/answer_updown_keyboard.PNG' height='150'></img></p><p class='small'>In this example, the correct answer is the <b>UP arrow</b>.</p></div><p>Are you ready? <b>Press ENTER to start</b></p>"	n/a	n/a	n/a	n/a	n/a	n/a	n/a	n/a	n/a	n/a
n/a	"html-keyboard-response"	"22"	"100697"	"0.0-4.0-2.0-2.0-0.0"	"tgnvl6"	"600"	"1366"	"chrome"	"111.0.0"	"FALSE"	"Windows 10"	"60.17"	"064"	n/a	n/a	n/a	n/a	n/a	n/a	"fixation"	n/a	n/a	n/a	n/a	"NULL"	n/a	"NULL"	"NULL"	"NULL"	"<p style=\"color: black; font-size: 80px; padding-left: 7%; padding-right: 41%; padding-top: 32%; padding-bottom: 21%\">+</p>"	"1001"	n/a	n/a	n/a	n/a	n/a	n/a	n/a	n/a	n/a
n/a	"image-keyboard-response"	"23"	"101311"	"0.0-4.0-2.0-2.0-1.0"	"tgnvl6"	"600"	"1366"	"chrome"	"111.0.0"	"FALSE"	"Windows 10"	"60.17"	"064"	n/a	n/a	n/a	n/a	n/a	n/a	"Trial"	n/a	n/a	n/a	"613"	"arrowup"	n/a	"NULL"	"NULL"	"NULL"	"stimuli/MullerLyer_-230000_0.70000.png"	n/a	"MullerLyer"	"arrowup"	"1520"	"TRUE"	"MullerLyer"	"-23000000000"	"0.7000000000"	"1"	"7"
n/a	"html-keyboard-response"	"24"	"102327"	"0.0-4.0-2.0-2.0-0.1"	"tgnvl6"	"600"	"1366"	"chrome"	"111.0.0"	"FALSE"	"Windows 10"	"60.17"	"064"	n/a	n/a	n/a	n/a	n/a	n/a	"fixation"	n/a	n/a	n/a	n/a	"NULL"	n/a	"NULL"	"NULL"	"NULL"	"<p style=\"color: black; font-size: 80px; padding-left: 35%; padding-right: 17%; padding-top: 25%; padding-bottom: 33%\">+</p>"	"1013"	n/a	n/a	n/a	n/a	n/a	n/a	n/a	n/a	n/a
n/a	"image-keyboard-response"	"25"	"102723"	"0.0-4.0-2.0-2.0-1.1"	"tgnvl6"	"600"	"1366"	"chrome"	"111.0.0"	"FALSE"	"Windows 10"	"60.17"	"064"	n/a	n/a	n/a	n/a	n/a	n/a	"Trial"	n/a	n/a	n/a	"396"	"arrowup"	n/a	"NULL"	"NULL"	"NULL"	"stimuli/MullerLyer_0000000_0.70000.png"	n/a	"MullerLyer"	"arrowup"	"1016"	"TRUE"	"MullerLyer"	"000000000000"	"0.7000000000"	"1"	"8"
n/a	"html-keyboard-response"	"26"	"104226"	"0.0-4.0-2.0-2.0-0.2"	"tgnvl6"	"600"	"1366"	"chrome"	"111.0.0"	"FALSE"	"Windows 10"	"60.17"	"064"	n/a	n/a	n/a	n/a	n/a	n/a	"fixation"	n/a	n/a	n/a	n/a	"NULL"	n/a	"NULL"	"NULL"	"NULL"	"<p style=\"color: black; font-size: 80px; padding-left: 15%; padding-right: 27%; padding-top: 3%; padding-bottom: 16%\">+</p>"	"1489"	n/a	n/a	n/a	n/a	n/a	n/a	n/a	n/a	n/a
n/a	"image-keyboard-response"	"27"	"104702"	"0.0-4.0-2.0-2.0-1.2"	"tgnvl6"	"600"	"1366"	"chrome"	"111.0.0"	"FALSE"	"Windows 10"	"60.17"	"064"	n/a	n/a	n/a	n/a	n/a	n/a	"Trial"	n/a	n/a	n/a	"475"	"arrowdown"	n/a	"NULL"	"NULL"	"NULL"	"stimuli/MullerLyer_0000000_-0.7000.png"	n/a	"MullerLyer"	"arrowdown"	"1503"	"TRUE"	"MullerLyer"	"000000000000"	"-0.700000000"	"1"	"9"
n/a	"html-keyboard-response"	"28"	"106185"	"0.0-4.0-2.0-2.0-0.3"	"tgnvl6"	"600"	"1366"	"chrome"	"111.0.0"	"FALSE"	"Windows 10"	"60.17"	"064"	n/a	n/a	n/a	n/a	n/a	n/a	"fixation"	n/a	n/a	n/a	n/a	"NULL"	n/a	"NULL"	"NULL"	"NULL"	"<p style=\"color: black; font-size: 80px; padding-left: 43%; padding-right: 29%; padding-top: 8%; padding-bottom: 2%\">+</p>"	"1470"	n/a	n/a	n/a	n/a	n/a	n/a	n/a	n/a	n/a
n/a	"image-keyboard-response"	"29"	"106867"	"0.0-4.0-2.0-2.0-1.3"	"tgnvl6"	"600"	"1366"	"chrome"	"111.0.0"	"FALSE"	"Windows 10"	"60.17"	"064"	n/a	n/a	n/a	n/a	n/a	n/a	"Trial"	n/a	n/a	n/a	"681"	"arrowdown"	n/a	"NULL"	"NULL"	"NULL"	"stimuli/MullerLyer_2300000_-0.7000.png"	n/a	"MullerLyer"	"arrowdown"	"1483"	"TRUE"	"MullerLyer"	"230000000000"	"-0.700000000"	"1"	"10"
n/a	"html-keyboard-response"	"30"	"108256"	"0.0-4.0-2.0-2.0-0.4"	"tgnvl6"	"600"	"1366"	"chrome"	"111.0.0"	"FALSE"	"Windows 10"	"60.17"	"064"	n/a	n/a	n/a	n/a	n/a	n/a	"fixation"	n/a	n/a	n/a	n/a	"NULL"	n/a	"NULL"	"NULL"	"NULL"	"<p style=\"color: black; font-size: 80px; padding-left: 46%; padding-right: 18%; padding-top: 23%; padding-bottom: 49%\">+</p>"	"1377"	n/a	n/a	n/a	n/a	n/a	n/a	n/a	n/a	n/a
n/a	"image-keyboard-response"	"31"	"108709"	"0.0-4.0-2.0-2.0-1.4"	"tgnvl6"	"600"	"1366"	"chrome"	"111.0.0"	"FALSE"	"Windows 10"	"60.17"	"064"	n/a	n/a	n/a	n/a	n/a	n/a	"Trial"	n/a	n/a	n/a	"452"	"arrowup"	n/a	"NULL"	"NULL"	"NULL"	"stimuli/MullerLyer_2300000_0.70000.png"	n/a	"MullerLyer"	"arrowup"	"1389"	"TRUE"	"MullerLyer"	"230000000000"	"0.7000000000"	"1"	"11"
n/a	"html-keyboard-response"	"32"	"109790"	"0.0-4.0-2.0-2.0-0.5"	"tgnvl6"	"600"	"1366"	"chrome"	"111.0.0"	"FALSE"	"Windows 10"	"60.17"	"064"	n/a	n/a	n/a	n/a	n/a	n/a	"fixation"	n/a	n/a	n/a	n/a	"NULL"	n/a	"NULL"	"NULL"	"NULL"	"<p style=\"color: black; font-size: 80px; padding-left: 20%; padding-right: 28%; padding-top: 38%; padding-bottom: 37%\">+</p>"	"1069"	n/a	n/a	n/a	n/a	n/a	n/a	n/a	n/a	n/a
n/a	"image-keyboard-response"	"33"	"110264"	"0.0-4.0-2.0-2.0-1.5"	"tgnvl6"	"600"	"1366"	"chrome"	"111.0.0"	"FALSE"	"Windows 10"	"60.17"	"064"	n/a	n/a	n/a	n/a	n/a	n/a	"Trial"	n/a	n/a	n/a	"473"	"arrowdown"	n/a	"NULL"	"NULL"	"NULL"	"stimuli/MullerLyer_-230000_-0.7000.png"	n/a	"MullerLyer"	"arrowdown"	"1081"	"TRUE"	"MullerLyer"	"-23000000000"	"-0.700000000"	"1"	"12"
n/a	"html-button-response"	"34"	"114664"	"0.0-4.0-2.0-3.0"	"tgnvl6"	"600"	"1366"	"chrome"	"111.0.0"	"FALSE"	"Windows 10"	"60.17"	"064"	n/a	n/a	n/a	n/a	n/a	n/a	"practice_block_results"	n/a	n/a	n/a	"4399"	"0"	n/a	"NULL"	"NULL"	"NULL"	"<p style='color:rgb(76,175,80);'> Correct Responses: <b>100.00%</b></p><hr><p style='color:rgb(233,30,99);'> Average Response Time: <b>515.00</b> ms.</p>"	n/a	n/a	n/a	n/a	n/a	n/a	n/a	n/a	n/a	n/a
"TRUE"	"preload"	"35"	"115178"	"0.0-4.0-3.0-0.0"	"tgnvl6"	"600"	"1366"	"chrome"	"111.0.0"	"FALSE"	"Windows 10"	"60.17"	"064"	n/a	n/a	n/a	n/a	n/a	n/a	n/a	n/a	n/a	n/a	n/a	"NULL"	"FALSE"	"list()"	"list()"	"list()"	n/a	n/a	n/a	n/a	n/a	n/a	n/a	n/a	n/a	n/a	n/a
n/a	"html-keyboard-response"	"36"	"124031"	"0.0-4.0-3.0-1.0"	"tgnvl6"	"600"	"1366"	"chrome"	"111.0.0"	"FALSE"	"Windows 10"	"60.17"	"064"	n/a	n/a	n/a	n/a	n/a	n/a	n/a	n/a	n/a	n/a	"8852"	"enter"	n/a	"NULL"	"NULL"	"NULL"	"<p><b>Practice</b></p><p>In this part, two red lines will appear side by side.</p><p>Your task is to tell <b>which line is longer</b> in length, regardless of their orientation, as fast as you can, and without making errors.</p><p>Don't get distracted by the orientation of the lines!</p><p>Press <b>the LEFT or the RIGHT arrow</b> to indicate which <b>line is the longer one.</b></p><div style='float: center'><img src='materials/instructions/VerticalHorizontal_Demo.png' height='300'></img><p><img src='utils/answer/answer_leftright_keyboard.PNG' height='150'></img></p><p class='small'>In this example, the correct answer is the <b>LEFT arrow</b>.</p></div><p>Are you ready? <b>Press ENTER to start</b></p>"	n/a	n/a	n/a	n/a	n/a	n/a	n/a	n/a	n/a	n/a
n/a	"html-keyboard-response"	"37"	"125731"	"0.0-4.0-3.0-2.0-0.0"	"tgnvl6"	"600"	"1366"	"chrome"	"111.0.0"	"FALSE"	"Windows 10"	"60.17"	"064"	n/a	n/a	n/a	n/a	n/a	n/a	"fixation"	n/a	n/a	n/a	n/a	"NULL"	n/a	"NULL"	"NULL"	"NULL"	"<p style=\"color: black; font-size: 80px; padding-left: 18%; padding-right: 44%; padding-top: 42%; padding-bottom: 4%\">+</p>"	"1181"	n/a	n/a	n/a	n/a	n/a	n/a	n/a	n/a	n/a
n/a	"image-keyboard-response"	"38"	"126152"	"0.0-4.0-3.0-2.0-1.0"	"tgnvl6"	"600"	"1366"	"chrome"	"111.0.0"	"FALSE"	"Windows 10"	"60.17"	"064"	n/a	n/a	n/a	n/a	n/a	n/a	"Trial"	n/a	n/a	n/a	"420"	"arrowleft"	n/a	"NULL"	"NULL"	"NULL"	"stimuli/VerticalHorizontal_0000000_0.90000.png"	n/a	"VerticalHorizontal"	"arrowleft"	"1700"	"TRUE"	"VerticalHorizontal"	"000000000000"	"0.9000000000"	"1"	"13"
n/a	"html-keyboard-response"	"39"	"127207"	"0.0-4.0-3.0-2.0-0.1"	"tgnvl6"	"600"	"1366"	"chrome"	"111.0.0"	"FALSE"	"Windows 10"	"60.17"	"064"	n/a	n/a	n/a	n/a	n/a	n/a	"fixation"	n/a	n/a	n/a	n/a	"NULL"	n/a	"NULL"	"NULL"	"NULL"	"<p style=\"color: black; font-size: 80px; padding-left: 36%; padding-right: 45%; padding-top: 47%; padding-bottom: 43%\">+</p>"	"1046"	n/a	n/a	n/a	n/a	n/a	n/a	n/a	n/a	n/a
n/a	"image-keyboard-response"	"40"	"127578"	"0.0-4.0-3.0-2.0-1.1"	"tgnvl6"	"600"	"1366"	"chrome"	"111.0.0"	"FALSE"	"Windows 10"	"60.17"	"064"	n/a	n/a	n/a	n/a	n/a	n/a	"Trial"	n/a	n/a	n/a	"371"	"arrowright"	n/a	"NULL"	"NULL"	"NULL"	"stimuli/VerticalHorizontal_-330000_-0.9000.png"	n/a	"VerticalHorizontal"	"arrowright"	"1055"	"TRUE"	"VerticalHorizontal"	"-33000000000"	"-0.900000000"	"1"	"14"
n/a	"html-keyboard-response"	"41"	"128641"	"0.0-4.0-3.0-2.0-0.2"	"tgnvl6"	"600"	"1366"	"chrome"	"111.0.0"	"FALSE"	"Windows 10"	"60.17"	"064"	n/a	n/a	n/a	n/a	n/a	n/a	"fixation"	n/a	n/a	n/a	n/a	"NULL"	n/a	"NULL"	"NULL"	"NULL"	"<p style=\"color: black; font-size: 80px; padding-left: 38%; padding-right: 19%; padding-top: 1%; padding-bottom: 29%\">+</p>"	"1056"	n/a	n/a	n/a	n/a	n/a	n/a	n/a	n/a	n/a
n/a	"image-keyboard-response"	"42"	"129039"	"0.0-4.0-3.0-2.0-1.2"	"tgnvl6"	"600"	"1366"	"chrome"	"111.0.0"	"FALSE"	"Windows 10"	"60.17"	"064"	n/a	n/a	n/a	n/a	n/a	n/a	"Trial"	n/a	n/a	n/a	"397"	"arrowleft"	n/a	"NULL"	"NULL"	"NULL"	"stimuli/VerticalHorizontal_3300000_-0.9000.png"	n/a	"VerticalHorizontal"	"arrowright"	"1063"	"FALSE"	"VerticalHorizontal"	"330000000000"	"-0.900000000"	"1"	"15"
n/a	"html-keyboard-response"	"43"	"130370"	"0.0-4.0-3.0-2.0-0.3"	"tgnvl6"	"600"	"1366"	"chrome"	"111.0.0"	"FALSE"	"Windows 10"	"60.17"	"064"	n/a	n/a	n/a	n/a	n/a	n/a	"fixation"	n/a	n/a	n/a	n/a	"NULL"	n/a	"NULL"	"NULL"	"NULL"	"<p style=\"color: black; font-size: 80px; padding-left: 29%; padding-right: 4%; padding-top: 42%; padding-bottom: 42%\">+</p>"	"1320"	n/a	n/a	n/a	n/a	n/a	n/a	n/a	n/a	n/a
n/a	"image-keyboard-response"	"44"	"130775"	"0.0-4.0-3.0-2.0-1.3"	"tgnvl6"	"600"	"1366"	"chrome"	"111.0.0"	"FALSE"	"Windows 10"	"60.17"	"064"	n/a	n/a	n/a	n/a	n/a	n/a	"Trial"	n/a	n/a	n/a	"404"	"arrowright"	n/a	"NULL"	"NULL"	"NULL"	"stimuli/VerticalHorizontal_0000000_-0.9000.png"	n/a	"VerticalHorizontal"	"arrowright"	"1331"	"TRUE"	"VerticalHorizontal"	"000000000000"	"-0.900000000"	"1"	"16"
n/a	"html-keyboard-response"	"45"	"132007"	"0.0-4.0-3.0-2.0-0.4"	"tgnvl6"	"600"	"1366"	"chrome"	"111.0.0"	"FALSE"	"Windows 10"	"60.17"	"064"	n/a	n/a	n/a	n/a	n/a	n/a	"fixation"	n/a	n/a	n/a	n/a	"NULL"	n/a	"NULL"	"NULL"	"NULL"	"<p style=\"color: black; font-size: 80px; padding-left: 25%; padding-right: 48%; padding-top: 4%; padding-bottom: 11%\">+</p>"	"1216"	n/a	n/a	n/a	n/a	n/a	n/a	n/a	n/a	n/a
n/a	"image-keyboard-response"	"46"	"132396"	"0.0-4.0-3.0-2.0-1.4"	"tgnvl6"	"600"	"1366"	"chrome"	"111.0.0"	"FALSE"	"Windows 10"	"60.17"	"064"	n/a	n/a	n/a	n/a	n/a	n/a	"Trial"	n/a	n/a	n/a	"388"	"arrowleft"	n/a	"NULL"	"NULL"	"NULL"	"stimuli/VerticalHorizontal_3300000_0.90000.png"	n/a	"VerticalHorizontal"	"arrowleft"	"1232"	"TRUE"	"VerticalHorizontal"	"330000000000"	"0.9000000000"	"1"	"17"
n/a	"html-keyboard-response"	"47"	"133817"	"0.0-4.0-3.0-2.0-0.5"	"tgnvl6"	"600"	"1366"	"chrome"	"111.0.0"	"FALSE"	"Windows 10"	"60.17"	"064"	n/a	n/a	n/a	n/a	n/a	n/a	"fixation"	n/a	n/a	n/a	n/a	"NULL"	n/a	"NULL"	"NULL"	"NULL"	"<p style=\"color: black; font-size: 80px; padding-left: 3%; padding-right: 7%; padding-top: 28%; padding-bottom: 48%\">+</p>"	"1416"	n/a	n/a	n/a	n/a	n/a	n/a	n/a	n/a	n/a
n/a	"image-keyboard-response"	"48"	"134216"	"0.0-4.0-3.0-2.0-1.5"	"tgnvl6"	"600"	"1366"	"chrome"	"111.0.0"	"FALSE"	"Windows 10"	"60.17"	"064"	n/a	n/a	n/a	n/a	n/a	n/a	"Trial"	n/a	n/a	n/a	"398"	"arrowleft"	n/a	"NULL"	"NULL"	"NULL"	"stimuli/VerticalHorizontal_-330000_0.90000.png"	n/a	"VerticalHorizontal"	"arrowleft"	"1421"	"TRUE"	"VerticalHorizontal"	"-33000000000"	"0.9000000000"	"1"	"18"
n/a	"html-button-response"	"49"	"137551"	"0.0-4.0-3.0-3.0"	"tgnvl6"	"600"	"1366"	"chrome"	"111.0.0"	"FALSE"	"Windows 10"	"60.17"	"064"	n/a	n/a	n/a	n/a	n/a	n/a	"practice_block_results"	n/a	n/a	n/a	"3334"	"0"	n/a	"NULL"	"NULL"	"NULL"	"<p style='color:rgb(76,175,80);'> Correct Responses: <b>83.33%</b></p><hr><p style='color:rgb(233,30,99);'> Average Response Time: <b>396.33</b> ms.</p>"	n/a	n/a	n/a	n/a	n/a	n/a	n/a	n/a	n/a	n/a
n/a	"html-button-response"	"50"	"170348"	"0.0-4.0-4.0"	"tgnvl6"	"600"	"1366"	"chrome"	"111.0.0"	"FALSE"	"Windows 10"	"60.17"	"064"	n/a	n/a	n/a	n/a	n/a	n/a	"practice_debrief"	n/a	n/a	n/a	"32282"	"0"	n/a	"NULL"	"NULL"	"NULL"	"<p><b>TRAINING COMPLETED</b></p><p>In the next phase, there will be more trials, and some might be harder too.<br> Moreover, after each illusion block, a <b>score</b> will be calculated based on speed (time you took to answer) and accuracy (number of errors).</p><p>Try to keep up a high score!</p><br><p>Note that it can be <i>really</i> challenging at times, so you will need to rely on your <b>intuition</b> and gut feeling to answer as fast as you can without making errors.</p><p>Each illusion block will be repeated two times (so that you have the opportunity to improve your score), but the order of the blocks is random.</p><p>Remember, your goal is to be as <b>fast</b> and <b>accurate</b> as possible. Good luck!</p><br>"	n/a	n/a	n/a	n/a	n/a	n/a	n/a	n/a	n/a	n/a
"TRUE"	"preload"	"51"	"170499"	"0.0-5.0-0.0"	"tgnvl6"	"600"	"1366"	"chrome"	"111.0.0"	"FALSE"	"Windows 10"	"60.17"	"064"	n/a	n/a	n/a	n/a	n/a	n/a	n/a	n/a	n/a	n/a	n/a	"NULL"	"FALSE"	"list()"	"list()"	"list()"	n/a	n/a	n/a	n/a	n/a	n/a	n/a	n/a	n/a	n/a	n/a
n/a	"html-keyboard-response"	"52"	"211011"	"0.0-5.0-1.0"	"tgnvl6"	"600"	"1366"	"chrome"	"111.0.0"	"FALSE"	"Windows 10"	"60.17"	"064"	n/a	n/a	n/a	n/a	n/a	n/a	n/a	n/a	n/a	n/a	"40509"	"enter"	n/a	"NULL"	"NULL"	"NULL"	"<p><b>Part 1/6</b></p><p>In this part, two red lines will appear side by side.</p><p>Your task is to tell <b>which line is longer</b> in length, regardless of their orientation, as fast as you can, and without making errors.</p><p>Don't get distracted by the orientation of the lines!</p><p>Press <b>the LEFT or the RIGHT arrow</b> to indicate which <b>line is the longer one.</b></p><div style='float: center'><img src='materials/instructions/VerticalHorizontal_Demo.png' height='300'></img><p><img src='utils/answer/answer_leftright_keyboard.PNG' height='150'></img></p><p class='small'>In this example, the correct answer is the <b>LEFT arrow</b>.</p></div><p>Are you ready? <b>Press ENTER to start</b></p>"	n/a	n/a	n/a	n/a	n/a	n/a	n/a	n/a	n/a	n/a
n/a	"html-keyboard-response"	"53"	"212930"	"0.0-5.0-2.0-0.0"	"tgnvl6"	"600"	"1366"	"chrome"	"111.0.0"	"FALSE"	"Windows 10"	"60.17"	"064"	n/a	n/a	n/a	n/a	n/a	n/a	"fixation"	n/a	n/a	n/a	n/a	"NULL"	n/a	"NULL"	"NULL"	"NULL"	"<p style=\"color: black; font-size: 80px; padding-left: 48%; padding-right: 28%; padding-top: 33%; padding-bottom: 48%\">+</p>"	"1405"	n/a	n/a	n/a	n/a	n/a	n/a	n/a	n/a	n/a
n/a	"image-keyboard-response"	"54"	"213421"	"0.0-5.0-2.0-1.0"	"tgnvl6"	"600"	"1366"	"chrome"	"111.0.0"	"FALSE"	"Windows 10"	"60.17"	"064"	n/a	n/a	n/a	n/a	n/a	n/a	"Trial"	n/a	n/a	n/a	"490"	"arrowleft"	n/a	"NULL"	"NULL"	"NULL"	"stimuli/VerticalHorizontal_28.75714_0.22500.png"	n/a	"VerticalHorizontal"	"arrowleft"	"1919"	"TRUE"	"VerticalHorizontal"	"28.757140000"	"0.2250000000"	"1"	"19"
n/a	"html-keyboard-response"	"55"	"214530"	"0.0-5.0-2.0-0.1"	"tgnvl6"	"600"	"1366"	"chrome"	"111.0.0"	"FALSE"	"Windows 10"	"60.17"	"064"	n/a	n/a	n/a	n/a	n/a	n/a	"fixation"	n/a	n/a	n/a	n/a	"NULL"	n/a	"NULL"	"NULL"	"NULL"	"<p style=\"color: black; font-size: 80px; padding-left: 48%; padding-right: 17%; padding-top: 19%; padding-bottom: 22%\">+</p>"	"1097"	n/a	n/a	n/a	n/a	n/a	n/a	n/a	n/a	n/a
n/a	"image-keyboard-response"	"56"	"214961"	"0.0-5.0-2.0-1.1"	"tgnvl6"	"600"	"1366"	"chrome"	"111.0.0"	"FALSE"	"Windows 10"	"60.17"	"064"	n/a	n/a	n/a	n/a	n/a	n/a	"Trial"	n/a	n/a	n/a	"431"	"arrowleft"	n/a	"NULL"	"NULL"	"NULL"	"stimuli/VerticalHorizontal_-11.78571_0.22500.png"	n/a	"VerticalHorizontal"	"arrowleft"	"1109"	"TRUE"	"VerticalHorizontal"	"-11.78571000"	"0.2250000000"	"1"	"20"
n/a	"html-keyboard-response"	"57"	"216332"	"0.0-5.0-2.0-0.2"	"tgnvl6"	"600"	"1366"	"chrome"	"111.0.0"	"FALSE"	"Windows 10"	"60.17"	"064"	n/a	n/a	n/a	n/a	n/a	n/a	"fixation"	n/a	n/a	n/a	n/a	"NULL"	n/a	"NULL"	"NULL"	"NULL"	"<p style=\"color: black; font-size: 80px; padding-left: 47%; padding-right: 34%; padding-top: 48%; padding-bottom: 0%\">+</p>"	"1361"	n/a	n/a	n/a	n/a	n/a	n/a	n/a	n/a	n/a
n/a	"image-keyboard-response"	"58"	"216758"	"0.0-5.0-2.0-1.2"	"tgnvl6"	"600"	"1366"	"chrome"	"111.0.0"	"FALSE"	"Windows 10"	"60.17"	"064"	n/a	n/a	n/a	n/a	n/a	n/a	"Trial"	n/a	n/a	n/a	"425"	"arrowright"	n/a	"NULL"	"NULL"	"NULL"	"stimuli/VerticalHorizontal_20.27143_0.10960.png"	n/a	"VerticalHorizontal"	"arrowleft"	"1371"	"FALSE"	"VerticalHorizontal"	"20.271430000"	"0.1096000000"	"1"	"21"
n/a	"html-keyboard-response"	"59"	"218062"	"0.0-5.0-2.0-0.3"	"tgnvl6"	"600"	"1366"	"chrome"	"111.0.0"	"FALSE"	"Windows 10"	"60.17"	"064"	n/a	n/a	n/a	n/a	n/a	n/a	"fixation"	n/a	n/a	n/a	n/a	"NULL"	n/a	"NULL"	"NULL"	"NULL"	"<p style=\"color: black; font-size: 80px; padding-left: 2%; padding-right: 42%; padding-top: 41%; padding-bottom: 33%\">+</p>"	"1295"	n/a	n/a	n/a	n/a	n/a	n/a	n/a	n/a	n/a
n/a	"image-keyboard-response"	"60"	"218544"	"0.0-5.0-2.0-1.3"	"tgnvl6"	"600"	"1366"	"chrome"	"111.0.0"	"FALSE"	"Windows 10"	"60.17"	"064"	n/a	n/a	n/a	n/a	n/a	n/a	"Trial"	n/a	n/a	n/a	"482"	"arrowright"	n/a	"NULL"	"NULL"	"NULL"	"stimuli/VerticalHorizontal_20.27143_-0.2250.png"	n/a	"VerticalHorizontal"	"arrowright"	"1304"	"TRUE"	"VerticalHorizontal"	"20.271430000"	"-0.225000000"	"1"	"22"
n/a	"html-keyboard-response"	"61"	"219765"	"0.0-5.0-2.0-0.4"	"tgnvl6"	"600"	"1366"	"chrome"	"111.0.0"	"FALSE"	"Windows 10"	"60.17"	"064"	n/a	n/a	n/a	n/a	n/a	n/a	"fixation"	n/a	n/a	n/a	n/a	"NULL"	n/a	"NULL"	"NULL"	"NULL"	"<p style=\"color: black; font-size: 80px; padding-left: 27%; padding-right: 17%; padding-top: 28%; padding-bottom: 17%\">+</p>"	"1211"	n/a	n/a	n/a	n/a	n/a	n/a	n/a	n/a	n/a
n/a	"image-keyboard-response"	"62"	"220210"	"0.0-5.0-2.0-1.4"	"tgnvl6"	"600"	"1366"	"chrome"	"111.0.0"	"FALSE"	"Windows 10"	"60.17"	"064"	n/a	n/a	n/a	n/a	n/a	n/a	"Trial"	n/a	n/a	n/a	"445"	"arrowright"	n/a	"NULL"	"NULL"	"NULL"	"stimuli/VerticalHorizontal_3.30000_-0.1096.png"	n/a	"VerticalHorizontal"	"arrowright"	"1221"	"TRUE"	"VerticalHorizontal"	"3.3000000000"	"-0.109600000"	"1"	"23"
n/a	"html-keyboard-response"	"63"	"221630"	"0.0-5.0-2.0-0.5"	"tgnvl6"	"600"	"1366"	"chrome"	"111.0.0"	"FALSE"	"Windows 10"	"60.17"	"064"	n/a	n/a	n/a	n/a	n/a	n/a	"fixation"	n/a	n/a	n/a	n/a	"NULL"	n/a	"NULL"	"NULL"	"NULL"	"<p style=\"color: black; font-size: 80px; padding-left: 17%; padding-right: 22%; padding-top: 15%; padding-bottom: 10%\">+</p>"	"1409"	n/a	n/a	n/a	n/a	n/a	n/a	n/a	n/a	n/a
n/a	"image-keyboard-response"	"64"	"222099"	"0.0-5.0-2.0-1.5"	"tgnvl6"	"600"	"1366"	"chrome"	"111.0.0"	"FALSE"	"Windows 10"	"60.17"	"064"	n/a	n/a	n/a	n/a	n/a	n/a	"Trial"	n/a	n/a	n/a	"468"	"arrowright"	n/a	"NULL"	"NULL"	"NULL"	"stimuli/VerticalHorizontal_3.30000_-0.0673.png"	n/a	"VerticalHorizontal"	"arrowright"	"1420"	"TRUE"	"VerticalHorizontal"	"3.3000000000"	"-0.067300000"	"1"	"24"
n/a	"html-keyboard-response"	"65"	"223415"	"0.0-5.0-2.0-0.6"	"tgnvl6"	"600"	"1366"	"chrome"	"111.0.0"	"FALSE"	"Windows 10"	"60.17"	"064"	n/a	n/a	n/a	n/a	n/a	n/a	"fixation"	n/a	n/a	n/a	n/a	"NULL"	n/a	"NULL"	"NULL"	"NULL"	"<p style=\"color: black; font-size: 80px; padding-left: 32%; padding-right: 31%; padding-top: 25%; padding-bottom: 13%\">+</p>"	"1312"	n/a	n/a	n/a	n/a	n/a	n/a	n/a	n/a	n/a
n/a	"image-keyboard-response"	"66"	"223858"	"0.0-5.0-2.0-1.6"	"tgnvl6"	"600"	"1366"	"chrome"	"111.0.0"	"FALSE"	"Windows 10"	"60.17"	"064"	n/a	n/a	n/a	n/a	n/a	n/a	"Trial"	n/a	n/a	n/a	"442"	"arrowright"	n/a	"NULL"	"NULL"	"NULL"	"stimuli/VerticalHorizontal_-20.27143_-0.16217.png"	n/a	"VerticalHorizontal"	"arrowright"	"1316"	"TRUE"	"VerticalHorizontal"	"-20.27143000"	"-0.162170000"	"1"	"25"
n/a	"html-keyboard-response"	"67"	"225083"	"0.0-5.0-2.0-0.7"	"tgnvl6"	"600"	"1366"	"chrome"	"111.0.0"	"FALSE"	"Windows 10"	"60.17"	"064"	n/a	n/a	n/a	n/a	n/a	n/a	"fixation"	n/a	n/a	n/a	n/a	"NULL"	n/a	"NULL"	"NULL"	"NULL"	"<p style=\"color: black; font-size: 80px; padding-left: 35%; padding-right: 24%; padding-top: 46%; padding-bottom: 45%\">+</p>"	"1213"	n/a	n/a	n/a	n/a	n/a	n/a	n/a	n/a	n/a
n/a	"image-keyboard-response"	"68"	"225613"	"0.0-5.0-2.0-1.7"	"tgnvl6"	"600"	"1366"	"chrome"	"111.0.0"	"FALSE"	"Windows 10"	"60.17"	"064"	n/a	n/a	n/a	n/a	n/a	n/a	"Trial"	n/a	n/a	n/a	"529"	"arrowleft"	n/a	"NULL"	"NULL"	"NULL"	"stimuli/VerticalHorizontal_3.30000_0.06730.png"	n/a	"VerticalHorizontal"	"arrowleft"	"1225"	"TRUE"	"VerticalHorizontal"	"3.3000000000"	"0.0673000000"	"1"	"26"
n/a	"html-keyboard-response"	"69"	"227051"	"0.0-5.0-2.0-0.8"	"tgnvl6"	"600"	"1366"	"chrome"	"111.0.0"	"FALSE"	"Windows 10"	"60.17"	"064"	n/a	n/a	n/a	n/a	n/a	n/a	"fixation"	n/a	n/a	n/a	n/a	"NULL"	n/a	"NULL"	"NULL"	"NULL"	"<p style=\"color: black; font-size: 80px; padding-left: 27%; padding-right: 15%; padding-top: 14%; padding-bottom: 25%\">+</p>"	"1427"	n/a	n/a	n/a	n/a	n/a	n/a	n/a	n/a	n/a
n/a	"image-keyboard-response"	"70"	"227558"	"0.0-5.0-2.0-1.8"	"tgnvl6"	"600"	"1366"	"chrome"	"111.0.0"	"FALSE"	"Windows 10"	"60.17"	"064"	n/a	n/a	n/a	n/a	n/a	n/a	"Trial"	n/a	n/a	n/a	"504"	"arrowright"	n/a	"NULL"	"NULL"	"NULL"	"stimuli/VerticalHorizontal_11.78571_-0.16217.png"	n/a	"VerticalHorizontal"	"arrowright"	"1438"	"TRUE"	"VerticalHorizontal"	"11.785710000"	"-0.162170000"	"1"	"27"
n/a	"html-keyboard-response"	"71"	"228706"	"0.0-5.0-2.0-0.9"	"tgnvl6"	"600"	"1366"	"chrome"	"111.0.0"	"FALSE"	"Windows 10"	"60.17"	"064"	n/a	n/a	n/a	n/a	n/a	n/a	"fixation"	n/a	n/a	n/a	n/a	"NULL"	n/a	"NULL"	"NULL"	"NULL"	"<p style=\"color: black; font-size: 80px; padding-left: 35%; padding-right: 2%; padding-top: 49%; padding-bottom: 14%\">+</p>"	"1135"	n/a	n/a	n/a	n/a	n/a	n/a	n/a	n/a	n/a
n/a	"image-keyboard-response"	"72"	"229188"	"0.0-5.0-2.0-1.9"	"tgnvl6"	"600"	"1366"	"chrome"	"111.0.0"	"FALSE"	"Windows 10"	"60.17"	"064"	n/a	n/a	n/a	n/a	n/a	n/a	"Trial"	n/a	n/a	n/a	"481"	"arrowleft"	n/a	"NULL"	"NULL"	"NULL"	"stimuli/VerticalHorizontal_28.75714_-0.1096.png"	n/a	"VerticalHorizontal"	"arrowright"	"1148"	"FALSE"	"VerticalHorizontal"	"28.757140000"	"-0.109600000"	"1"	"28"
n/a	"html-keyboard-response"	"73"	"230265"	"0.0-5.0-2.0-0.10"	"tgnvl6"	"600"	"1366"	"chrome"	"111.0.0"	"FALSE"	"Windows 10"	"60.17"	"064"	n/a	n/a	n/a	n/a	n/a	n/a	"fixation"	n/a	n/a	n/a	n/a	"NULL"	n/a	"NULL"	"NULL"	"NULL"	"<p style=\"color: black; font-size: 80px; padding-left: 43%; padding-right: 49%; padding-top: 22%; padding-bottom: 15%\">+</p>"	"1064"	n/a	n/a	n/a	n/a	n/a	n/a	n/a	n/a	n/a
n/a	"image-keyboard-response"	"74"	"230888"	"0.0-5.0-2.0-1.10"	"tgnvl6"	"600"	"1366"	"chrome"	"111.0.0"	"FALSE"	"Windows 10"	"60.17"	"064"	n/a	n/a	n/a	n/a	n/a	n/a	"Trial"	n/a	n/a	n/a	"622"	"arrowleft"	n/a	"NULL"	"NULL"	"NULL"	"stimuli/VerticalHorizontal_28.75714_0.16217.png"	n/a	"VerticalHorizontal"	"arrowleft"	"1077"	"TRUE"	"VerticalHorizontal"	"28.757140000"	"0.1621700000"	"1"	"29"
n/a	"html-keyboard-response"	"75"	"232174"	"0.0-5.0-2.0-0.11"	"tgnvl6"	"600"	"1366"	"chrome"	"111.0.0"	"FALSE"	"Windows 10"	"60.17"	"064"	n/a	n/a	n/a	n/a	n/a	n/a	"fixation"	n/a	n/a	n/a	n/a	"NULL"	n/a	"NULL"	"NULL"	"NULL"	"<p style=\"color: black; font-size: 80px; padding-left: 32%; padding-right: 15%; padding-top: 19%; padding-bottom: 34%\">+</p>"	"1280"	n/a	n/a	n/a	n/a	n/a	n/a	n/a	n/a	n/a
n/a	"image-keyboard-response"	"76"	"233052"	"0.0-5.0-2.0-1.11"	"tgnvl6"	"600"	"1366"	"chrome"	"111.0.0"	"FALSE"	"Windows 10"	"60.17"	"064"	n/a	n/a	n/a	n/a	n/a	n/a	"Trial"	n/a	n/a	n/a	"878"	"arrowleft"	n/a	"NULL"	"NULL"	"NULL"	"stimuli/VerticalHorizontal_-11.78571_0.06730.png"	n/a	"VerticalHorizontal"	"arrowleft"	"1286"	"TRUE"	"VerticalHorizontal"	"-11.78571000"	"0.0673000000"	"1"	"30"
n/a	"html-keyboard-response"	"77"	"234227"	"0.0-5.0-2.0-0.12"	"tgnvl6"	"600"	"1366"	"chrome"	"111.0.0"	"FALSE"	"Windows 10"	"60.17"	"064"	n/a	n/a	n/a	n/a	n/a	n/a	"fixation"	n/a	n/a	n/a	n/a	"NULL"	n/a	"NULL"	"NULL"	"NULL"	"<p style=\"color: black; font-size: 80px; padding-left: 29%; padding-right: 4%; padding-top: 21%; padding-bottom: 31%\">+</p>"	"1171"	n/a	n/a	n/a	n/a	n/a	n/a	n/a	n/a	n/a
n/a	"image-keyboard-response"	"78"	"234688"	"0.0-5.0-2.0-1.12"	"tgnvl6"	"600"	"1366"	"chrome"	"111.0.0"	"FALSE"	"Windows 10"	"60.17"	"064"	n/a	n/a	n/a	n/a	n/a	n/a	"Trial"	n/a	n/a	n/a	"461"	"arrowright"	n/a	"NULL"	"NULL"	"NULL"	"stimuli/VerticalHorizontal_-20.27143_-0.1096.png"	n/a	"VerticalHorizontal"	"arrowright"	"1175"	"TRUE"	"VerticalHorizontal"	"-20.27143000"	"-0.109600000"	"1"	"31"
n/a	"html-keyboard-response"	"79"	"236166"	"0.0-5.0-2.0-0.13"	"tgnvl6"	"600"	"1366"	"chrome"	"111.0.0"	"FALSE"	"Windows 10"	"60.17"	"064"	n/a	n/a	n/a	n/a	n/a	n/a	"fixation"	n/a	n/a	n/a	n/a	"NULL"	n/a	"NULL"	"NULL"	"NULL"	"<p style=\"color: black; font-size: 80px; padding-left: 30%; padding-right: 26%; padding-top: 42%; padding-bottom: 42%\">+</p>"	"1463"	n/a	n/a	n/a	n/a	n/a	n/a	n/a	n/a	n/a
n/a	"image-keyboard-response"	"80"	"236613"	"0.0-5.0-2.0-1.13"	"tgnvl6"	"600"	"1366"	"chrome"	"111.0.0"	"FALSE"	"Windows 10"	"60.17"	"064"	n/a	n/a	n/a	n/a	n/a	n/a	"Trial"	n/a	n/a	n/a	"446"	"arrowleft"	n/a	"NULL"	"NULL"	"NULL"	"stimuli/VerticalHorizontal_-20.27143_0.06730.png"	n/a	"VerticalHorizontal"	"arrowleft"	"1478"	"TRUE"	"VerticalHorizontal"	"-20.27143000"	"0.0673000000"	"1"	"32"
n/a	"html-keyboard-response"	"81"	"237979"	"0.0-5.0-2.0-0.14"	"tgnvl6"	"600"	"1366"	"chrome"	"111.0.0"	"FALSE"	"Windows 10"	"60.17"	"064"	n/a	n/a	n/a	n/a	n/a	n/a	"fixation"	n/a	n/a	n/a	n/a	"NULL"	n/a	"NULL"	"NULL"	"NULL"	"<p style=\"color: black; font-size: 80px; padding-left: 35%; padding-right: 0%; padding-top: 5%; padding-bottom: 8%\">+</p>"	"1364"	n/a	n/a	n/a	n/a	n/a	n/a	n/a	n/a	n/a
n/a	"image-keyboard-response"	"82"	"238408"	"0.0-5.0-2.0-1.14"	"tgnvl6"	"600"	"1366"	"chrome"	"111.0.0"	"FALSE"	"Windows 10"	"60.17"	"064"	n/a	n/a	n/a	n/a	n/a	n/a	"Trial"	n/a	n/a	n/a	"428"	"arrowleft"	n/a	"NULL"	"NULL"	"NULL"	"stimuli/VerticalHorizontal_-20.27143_0.10960.png"	n/a	"VerticalHorizontal"	"arrowleft"	"1366"	"TRUE"	"VerticalHorizontal"	"-20.27143000"	"0.1096000000"	"1"	"33"
n/a	"html-keyboard-response"	"83"	"239822"	"0.0-5.0-2.0-0.15"	"tgnvl6"	"600"	"1366"	"chrome"	"111.0.0"	"FALSE"	"Windows 10"	"60.17"	"064"	n/a	n/a	n/a	n/a	n/a	n/a	"fixation"	n/a	n/a	n/a	n/a	"NULL"	n/a	"NULL"	"NULL"	"NULL"	"<p style=\"color: black; font-size: 80px; padding-left: 8%; padding-right: 23%; padding-top: 7%; padding-bottom: 19%\">+</p>"	"1405"	n/a	n/a	n/a	n/a	n/a	n/a	n/a	n/a	n/a
n/a	"image-keyboard-response"	"84"	"240264"	"0.0-5.0-2.0-1.15"	"tgnvl6"	"600"	"1366"	"chrome"	"111.0.0"	"FALSE"	"Windows 10"	"60.17"	"064"	n/a	n/a	n/a	n/a	n/a	n/a	"Trial"	n/a	n/a	n/a	"441"	"arrowleft"	n/a	"NULL"	"NULL"	"NULL"	"stimuli/VerticalHorizontal_-20.27143_0.22500.png"	n/a	"VerticalHorizontal"	"arrowleft"	"1414"	"TRUE"	"VerticalHorizontal"	"-20.27143000"	"0.2250000000"	"1"	"34"
n/a	"html-keyboard-response"	"85"	"241359"	"0.0-5.0-2.0-0.16"	"tgnvl6"	"600"	"1366"	"chrome"	"111.0.0"	"FALSE"	"Windows 10"	"60.17"	"064"	n/a	n/a	n/a	n/a	n/a	n/a	"fixation"	n/a	n/a	n/a	n/a	"NULL"	n/a	"NULL"	"NULL"	"NULL"	"<p style=\"color: black; font-size: 80px; padding-left: 34%; padding-right: 47%; padding-top: 18%; padding-bottom: 20%\">+</p>"	"1084"	n/a	n/a	n/a	n/a	n/a	n/a	n/a	n/a	n/a
n/a	"image-keyboard-response"	"86"	"241850"	"0.0-5.0-2.0-1.16"	"tgnvl6"	"600"	"1366"	"chrome"	"111.0.0"	"FALSE"	"Windows 10"	"60.17"	"064"	n/a	n/a	n/a	n/a	n/a	n/a	"Trial"	n/a	n/a	n/a	"490"	"arrowright"	n/a	"NULL"	"NULL"	"NULL"	"stimuli/VerticalHorizontal_20.27143_-0.16217.png"	n/a	"VerticalHorizontal"	"arrowright"	"1095"	"TRUE"	"VerticalHorizontal"	"20.271430000"	"-0.162170000"	"1"	"35"
n/a	"html-keyboard-response"	"87"	"242963"	"0.0-5.0-2.0-0.17"	"tgnvl6"	"600"	"1366"	"chrome"	"111.0.0"	"FALSE"	"Windows 10"	"60.17"	"064"	n/a	n/a	n/a	n/a	n/a	n/a	"fixation"	n/a	n/a	n/a	n/a	"NULL"	n/a	"NULL"	"NULL"	"NULL"	"<p style=\"color: black; font-size: 80px; padding-left: 41%; padding-right: 32%; padding-top: 32%; padding-bottom: 9%\">+</p>"	"1106"	n/a	n/a	n/a	n/a	n/a	n/a	n/a	n/a	n/a
n/a	"image-keyboard-response"	"88"	"243421"	"0.0-5.0-2.0-1.17"	"tgnvl6"	"600"	"1366"	"chrome"	"111.0.0"	"FALSE"	"Windows 10"	"60.17"	"064"	n/a	n/a	n/a	n/a	n/a	n/a	"Trial"	n/a	n/a	n/a	"456"	"arrowright"	n/a	"NULL"	"NULL"	"NULL"	"stimuli/VerticalHorizontal_-3.3000_-0.16217.png"	n/a	"VerticalHorizontal"	"arrowright"	"1113"	"TRUE"	"VerticalHorizontal"	"-3.300000000"	"-0.162170000"	"1"	"36"
n/a	"html-keyboard-response"	"89"	"244889"	"0.0-5.0-2.0-0.18"	"tgnvl6"	"600"	"1366"	"chrome"	"111.0.0"	"FALSE"	"Windows 10"	"60.17"	"064"	n/a	n/a	n/a	n/a	n/a	n/a	"fixation"	n/a	n/a	n/a	n/a	"NULL"	n/a	"NULL"	"NULL"	"NULL"	"<p style=\"color: black; font-size: 80px; padding-left: 32%; padding-right: 21%; padding-top: 17%; padding-bottom: 42%\">+</p>"	"1462"	n/a	n/a	n/a	n/a	n/a	n/a	n/a	n/a	n/a
n/a	"image-keyboard-response"	"90"	"245335"	"0.0-5.0-2.0-1.18"	"tgnvl6"	"600"	"1366"	"chrome"	"111.0.0"	"FALSE"	"Windows 10"	"60.17"	"064"	n/a	n/a	n/a	n/a	n/a	n/a	"Trial"	n/a	n/a	n/a	"445"	"arrowright"	n/a	"NULL"	"NULL"	"NULL"	"stimuli/VerticalHorizontal_-20.27143_-0.2250.png"	n/a	"VerticalHorizontal"	"arrowright"	"1468"	"TRUE"	"VerticalHorizontal"	"-20.27143000"	"-0.225000000"	"1"	"37"
n/a	"html-keyboard-response"	"91"	"246764"	"0.0-5.0-2.0-0.19"	"tgnvl6"	"600"	"1366"	"chrome"	"111.0.0"	"FALSE"	"Windows 10"	"60.17"	"064"	n/a	n/a	n/a	n/a	n/a	n/a	"fixation"	n/a	n/a	n/a	n/a	"NULL"	n/a	"NULL"	"NULL"	"NULL"	"<p style=\"color: black; font-size: 80px; padding-left: 43%; padding-right: 4%; padding-top: 41%; padding-bottom: 29%\">+</p>"	"1418"	n/a	n/a	n/a	n/a	n/a	n/a	n/a	n/a	n/a
n/a	"image-keyboard-response"	"92"	"247147"	"0.0-5.0-2.0-1.19"	"tgnvl6"	"600"	"1366"	"chrome"	"111.0.0"	"FALSE"	"Windows 10"	"60.17"	"064"	n/a	n/a	n/a	n/a	n/a	n/a	"Trial"	n/a	n/a	n/a	"382"	"arrowright"	n/a	"NULL"	"NULL"	"NULL"	"stimuli/VerticalHorizontal_-20.27143_-0.0673.png"	n/a	"VerticalHorizontal"	"arrowright"	"1429"	"TRUE"	"VerticalHorizontal"	"-20.27143000"	"-0.067300000"	"1"	"38"
n/a	"html-keyboard-response"	"93"	"248308"	"0.0-5.0-2.0-0.20"	"tgnvl6"	"600"	"1366"	"chrome"	"111.0.0"	"FALSE"	"Windows 10"	"60.17"	"064"	n/a	n/a	n/a	n/a	n/a	n/a	"fixation"	n/a	n/a	n/a	n/a	"NULL"	n/a	"NULL"	"NULL"	"NULL"	"<p style=\"color: black; font-size: 80px; padding-left: 6%; padding-right: 47%; padding-top: 22%; padding-bottom: 9%\">+</p>"	"1154"	n/a	n/a	n/a	n/a	n/a	n/a	n/a	n/a	n/a
n/a	"image-keyboard-response"	"94"	"248687"	"0.0-5.0-2.0-1.20"	"tgnvl6"	"600"	"1366"	"chrome"	"111.0.0"	"FALSE"	"Windows 10"	"60.17"	"064"	n/a	n/a	n/a	n/a	n/a	n/a	"Trial"	n/a	n/a	n/a	"378"	"arrowright"	n/a	"NULL"	"NULL"	"NULL"	"stimuli/VerticalHorizontal_-28.75714_-0.2250.png"	n/a	"VerticalHorizontal"	"arrowright"	"1161"	"TRUE"	"VerticalHorizontal"	"-28.75714000"	"-0.225000000"	"1"	"39"
n/a	"html-keyboard-response"	"95"	"249875"	"0.0-5.0-2.0-0.21"	"tgnvl6"	"600"	"1366"	"chrome"	"111.0.0"	"FALSE"	"Windows 10"	"60.17"	"064"	n/a	n/a	n/a	n/a	n/a	n/a	"fixation"	n/a	n/a	n/a	n/a	"NULL"	n/a	"NULL"	"NULL"	"NULL"	"<p style=\"color: black; font-size: 80px; padding-left: 24%; padding-right: 39%; padding-top: 17%; padding-bottom: 46%\">+</p>"	"1184"	n/a	n/a	n/a	n/a	n/a	n/a	n/a	n/a	n/a
n/a	"image-keyboard-response"	"96"	"250230"	"0.0-5.0-2.0-1.21"	"tgnvl6"	"600"	"1366"	"chrome"	"111.0.0"	"FALSE"	"Windows 10"	"60.17"	"064"	n/a	n/a	n/a	n/a	n/a	n/a	"Trial"	n/a	n/a	n/a	"355"	"arrowright"	n/a	"NULL"	"NULL"	"NULL"	"stimuli/VerticalHorizontal_28.75714_0.06730.png"	n/a	"VerticalHorizontal"	"arrowleft"	"1188"	"FALSE"	"VerticalHorizontal"	"28.757140000"	"0.0673000000"	"1"	"40"
n/a	"html-keyboard-response"	"97"	"251686"	"0.0-5.0-2.0-0.22"	"tgnvl6"	"600"	"1366"	"chrome"	"111.0.0"	"FALSE"	"Windows 10"	"60.17"	"064"	n/a	n/a	n/a	n/a	n/a	n/a	"fixation"	n/a	n/a	n/a	n/a	"NULL"	n/a	"NULL"	"NULL"	"NULL"	"<p style=\"color: black; font-size: 80px; padding-left: 0%; padding-right: 40%; padding-top: 14%; padding-bottom: 2%\">+</p>"	"1442"	n/a	n/a	n/a	n/a	n/a	n/a	n/a	n/a	n/a
n/a	"image-keyboard-response"	"98"	"252134"	"0.0-5.0-2.0-1.22"	"tgnvl6"	"600"	"1366"	"chrome"	"111.0.0"	"FALSE"	"Windows 10"	"60.17"	"064"	n/a	n/a	n/a	n/a	n/a	n/a	"Trial"	n/a	n/a	n/a	"448"	"arrowleft"	n/a	"NULL"	"NULL"	"NULL"	"stimuli/VerticalHorizontal_-3.3000_0.06730.png"	n/a	"VerticalHorizontal"	"arrowleft"	"1456"	"TRUE"	"VerticalHorizontal"	"-3.300000000"	"0.0673000000"	"1"	"41"
n/a	"html-keyboard-response"	"99"	"253492"	"0.0-5.0-2.0-0.23"	"tgnvl6"	"600"	"1366"	"chrome"	"111.0.0"	"FALSE"	"Windows 10"	"60.17"	"064"	n/a	n/a	n/a	n/a	n/a	n/a	"fixation"	n/a	n/a	n/a	n/a	"NULL"	n/a	"NULL"	"NULL"	"NULL"	"<p style=\"color: black; font-size: 80px; padding-left: 3%; padding-right: 31%; padding-top: 45%; padding-bottom: 36%\">+</p>"	"1356"	n/a	n/a	n/a	n/a	n/a	n/a	n/a	n/a	n/a
n/a	"image-keyboard-response"	"100"	"253921"	"0.0-5.0-2.0-1.23"	"tgnvl6"	"600"	"1366"	"chrome"	"111.0.0"	"FALSE"	"Windows 10"	"60.17"	"064"	n/a	n/a	n/a	n/a	n/a	n/a	"Trial"	n/a	n/a	n/a	"429"	"arrowright"	n/a	"NULL"	"NULL"	"NULL"	"stimuli/VerticalHorizontal_28.75714_0.10960.png"	n/a	"VerticalHorizontal"	"arrowleft"	"1358"	"FALSE"	"VerticalHorizontal"	"28.757140000"	"0.1096000000"	"1"	"42"
n/a	"html-keyboard-response"	"101"	"254962"	"0.0-5.0-2.0-0.24"	"tgnvl6"	"600"	"1366"	"chrome"	"111.0.0"	"FALSE"	"Windows 10"	"60.17"	"064"	n/a	n/a	n/a	n/a	n/a	n/a	"fixation"	n/a	n/a	n/a	n/a	"NULL"	n/a	"NULL"	"NULL"	"NULL"	"<p style=\"color: black; font-size: 80px; padding-left: 47%; padding-right: 19%; padding-top: 20%; padding-bottom: 25%\">+</p>"	"1032"	n/a	n/a	n/a	n/a	n/a	n/a	n/a	n/a	n/a
n/a	"image-keyboard-response"	"102"	"255566"	"0.0-5.0-2.0-1.24"	"tgnvl6"	"600"	"1366"	"chrome"	"111.0.0"	"FALSE"	"Windows 10"	"60.17"	"064"	n/a	n/a	n/a	n/a	n/a	n/a	"Trial"	n/a	n/a	n/a	"603"	"arrowright"	n/a	"NULL"	"NULL"	"NULL"	"stimuli/VerticalHorizontal_20.27143_-0.0673.png"	n/a	"VerticalHorizontal"	"arrowright"	"1041"	"TRUE"	"VerticalHorizontal"	"20.271430000"	"-0.067300000"	"1"	"43"
n/a	"html-keyboard-response"	"103"	"256924"	"0.0-5.0-2.0-0.25"	"tgnvl6"	"600"	"1366"	"chrome"	"111.0.0"	"FALSE"	"Windows 10"	"60.17"	"064"	n/a	n/a	n/a	n/a	n/a	n/a	"fixation"	n/a	n/a	n/a	n/a	"NULL"	n/a	"NULL"	"NULL"	"NULL"	"<p style=\"color: black; font-size: 80px; padding-left: 26%; padding-right: 34%; padding-top: 8%; padding-bottom: 10%\">+</p>"	"1342"	n/a	n/a	n/a	n/a	n/a	n/a	n/a	n/a	n/a
n/a	"image-keyboard-response"	"104"	"257489"	"0.0-5.0-2.0-1.25"	"tgnvl6"	"600"	"1366"	"chrome"	"111.0.0"	"FALSE"	"Windows 10"	"60.17"	"064"	n/a	n/a	n/a	n/a	n/a	n/a	"Trial"	n/a	n/a	n/a	"565"	"arrowright"	n/a	"NULL"	"NULL"	"NULL"	"stimuli/VerticalHorizontal_3.30000_-0.16217.png"	n/a	"VerticalHorizontal"	"arrowright"	"1358"	"TRUE"	"VerticalHorizontal"	"3.3000000000"	"-0.162170000"	"1"	"44"
n/a	"html-keyboard-response"	"105"	"258579"	"0.0-5.0-2.0-0.26"	"tgnvl6"	"600"	"1366"	"chrome"	"111.0.0"	"FALSE"	"Windows 10"	"60.17"	"064"	n/a	n/a	n/a	n/a	n/a	n/a	"fixation"	n/a	n/a	n/a	n/a	"NULL"	n/a	"NULL"	"NULL"	"NULL"	"<p style=\"color: black; font-size: 80px; padding-left: 42%; padding-right: 20%; padding-top: 10%; padding-bottom: 18%\">+</p>"	"1073"	n/a	n/a	n/a	n/a	n/a	n/a	n/a	n/a	n/a
n/a	"image-keyboard-response"	"106"	"258998"	"0.0-5.0-2.0-1.26"	"tgnvl6"	"600"	"1366"	"chrome"	"111.0.0"	"FALSE"	"Windows 10"	"60.17"	"064"	n/a	n/a	n/a	n/a	n/a	n/a	"Trial"	n/a	n/a	n/a	"418"	"arrowright"	n/a	"NULL"	"NULL"	"NULL"	"stimuli/VerticalHorizontal_11.78571_-0.0673.png"	n/a	"VerticalHorizontal"	"arrowright"	"1090"	"TRUE"	"VerticalHorizontal"	"11.785710000"	"-0.067300000"	"1"	"45"
n/a	"html-keyboard-response"	"107"	"260031"	"0.0-5.0-2.0-0.27"	"tgnvl6"	"600"	"1366"	"chrome"	"111.0.0"	"FALSE"	"Windows 10"	"60.17"	"064"	n/a	n/a	n/a	n/a	n/a	n/a	"fixation"	n/a	n/a	n/a	n/a	"NULL"	n/a	"NULL"	"NULL"	"NULL"	"<p style=\"color: black; font-size: 80px; padding-left: 29%; padding-right: 44%; padding-top: 10%; padding-bottom: 21%\">+</p>"	"1023"	n/a	n/a	n/a	n/a	n/a	n/a	n/a	n/a	n/a
n/a	"image-keyboard-response"	"108"	"260578"	"0.0-5.0-2.0-1.27"	"tgnvl6"	"600"	"1366"	"chrome"	"111.0.0"	"FALSE"	"Windows 10"	"60.17"	"064"	n/a	n/a	n/a	n/a	n/a	n/a	"Trial"	n/a	n/a	n/a	"546"	"arrowleft"	n/a	"NULL"	"NULL"	"NULL"	"stimuli/VerticalHorizontal_11.78571_0.22500.png"	n/a	"VerticalHorizontal"	"arrowleft"	"1033"	"TRUE"	"VerticalHorizontal"	"11.785710000"	"0.2250000000"	"1"	"46"
n/a	"html-keyboard-response"	"109"	"262068"	"0.0-5.0-2.0-0.28"	"tgnvl6"	"600"	"1366"	"chrome"	"111.0.0"	"FALSE"	"Windows 10"	"60.17"	"064"	n/a	n/a	n/a	n/a	n/a	n/a	"fixation"	n/a	n/a	n/a	n/a	"NULL"	n/a	"NULL"	"NULL"	"NULL"	"<p style=\"color: black; font-size: 80px; padding-left: 11%; padding-right: 28%; padding-top: 10%; padding-bottom: 32%\">+</p>"	"1481"	n/a	n/a	n/a	n/a	n/a	n/a	n/a	n/a	n/a
n/a	"image-keyboard-response"	"110"	"262629"	"0.0-5.0-2.0-1.28"	"tgnvl6"	"600"	"1366"	"chrome"	"111.0.0"	"FALSE"	"Windows 10"	"60.17"	"064"	n/a	n/a	n/a	n/a	n/a	n/a	"Trial"	n/a	n/a	n/a	"560"	"arrowleft"	n/a	"NULL"	"NULL"	"NULL"	"stimuli/VerticalHorizontal_20.27143_0.22500.png"	n/a	"VerticalHorizontal"	"arrowleft"	"1490"	"TRUE"	"VerticalHorizontal"	"20.271430000"	"0.2250000000"	"1"	"47"
n/a	"html-keyboard-response"	"111"	"264127"	"0.0-5.0-2.0-0.29"	"tgnvl6"	"600"	"1366"	"chrome"	"111.0.0"	"FALSE"	"Windows 10"	"60.17"	"064"	n/a	n/a	n/a	n/a	n/a	n/a	"fixation"	n/a	n/a	n/a	n/a	"NULL"	n/a	"NULL"	"NULL"	"NULL"	"<p style=\"color: black; font-size: 80px; padding-left: 31%; padding-right: 21%; padding-top: 17%; padding-bottom: 23%\">+</p>"	"1496"	n/a	n/a	n/a	n/a	n/a	n/a	n/a	n/a	n/a
n/a	"image-keyboard-response"	"112"	"264543"	"0.0-5.0-2.0-1.29"	"tgnvl6"	"600"	"1366"	"chrome"	"111.0.0"	"FALSE"	"Windows 10"	"60.17"	"064"	n/a	n/a	n/a	n/a	n/a	n/a	"Trial"	n/a	n/a	n/a	"416"	"arrowleft"	n/a	"NULL"	"NULL"	"NULL"	"stimuli/VerticalHorizontal_3.30000_0.22500.png"	n/a	"VerticalHorizontal"	"arrowleft"	"1498"	"TRUE"	"VerticalHorizontal"	"3.3000000000"	"0.2250000000"	"1"	"48"
n/a	"html-keyboard-response"	"113"	"266017"	"0.0-5.0-2.0-0.30"	"tgnvl6"	"600"	"1366"	"chrome"	"111.0.0"	"FALSE"	"Windows 10"	"60.17"	"064"	n/a	n/a	n/a	n/a	n/a	n/a	"fixation"	n/a	n/a	n/a	n/a	"NULL"	n/a	"NULL"	"NULL"	"NULL"	"<p style=\"color: black; font-size: 80px; padding-left: 20%; padding-right: 47%; padding-top: 22%; padding-bottom: 13%\">+</p>"	"1461"	n/a	n/a	n/a	n/a	n/a	n/a	n/a	n/a	n/a
n/a	"image-keyboard-response"	"114"	"266384"	"0.0-5.0-2.0-1.30"	"tgnvl6"	"600"	"1366"	"chrome"	"111.0.0"	"FALSE"	"Windows 10"	"60.17"	"064"	n/a	n/a	n/a	n/a	n/a	n/a	"Trial"	n/a	n/a	n/a	"367"	"arrowright"	n/a	"NULL"	"NULL"	"NULL"	"stimuli/VerticalHorizontal_-28.75714_-0.0673.png"	n/a	"VerticalHorizontal"	"arrowright"	"1474"	"TRUE"	"VerticalHorizontal"	"-28.75714000"	"-0.067300000"	"1"	"49"
n/a	"html-keyboard-response"	"115"	"267854"	"0.0-5.0-2.0-0.31"	"tgnvl6"	"600"	"1366"	"chrome"	"111.0.0"	"FALSE"	"Windows 10"	"60.17"	"064"	n/a	n/a	n/a	n/a	n/a	n/a	"fixation"	n/a	n/a	n/a	n/a	"NULL"	n/a	"NULL"	"NULL"	"NULL"	"<p style=\"color: black; font-size: 80px; padding-left: 44%; padding-right: 14%; padding-top: 22%; padding-bottom: 17%\">+</p>"	"1456"	n/a	n/a	n/a	n/a	n/a	n/a	n/a	n/a	n/a
n/a	"image-keyboard-response"	"116"	"268245"	"0.0-5.0-2.0-1.31"	"tgnvl6"	"600"	"1366"	"chrome"	"111.0.0"	"FALSE"	"Windows 10"	"60.17"	"064"	n/a	n/a	n/a	n/a	n/a	n/a	"Trial"	n/a	n/a	n/a	"391"	"arrowleft"	n/a	"NULL"	"NULL"	"NULL"	"stimuli/VerticalHorizontal_11.78571_0.16217.png"	n/a	"VerticalHorizontal"	"arrowleft"	"1470"	"TRUE"	"VerticalHorizontal"	"11.785710000"	"0.1621700000"	"1"	"50"
n/a	"html-keyboard-response"	"117"	"269463"	"0.0-5.0-2.0-0.32"	"tgnvl6"	"600"	"1366"	"chrome"	"111.0.0"	"FALSE"	"Windows 10"	"60.17"	"064"	n/a	n/a	n/a	n/a	n/a	n/a	"fixation"	n/a	n/a	n/a	n/a	"NULL"	n/a	"NULL"	"NULL"	"NULL"	"<p style=\"color: black; font-size: 80px; padding-left: 49%; padding-right: 18%; padding-top: 31%; padding-bottom: 36%\">+</p>"	"1209"	n/a	n/a	n/a	n/a	n/a	n/a	n/a	n/a	n/a
n/a	"image-keyboard-response"	"118"	"269870"	"0.0-5.0-2.0-1.32"	"tgnvl6"	"600"	"1366"	"chrome"	"111.0.0"	"FALSE"	"Windows 10"	"60.17"	"064"	n/a	n/a	n/a	n/a	n/a	n/a	"Trial"	n/a	n/a	n/a	"406"	"arrowright"	n/a	"NULL"	"NULL"	"NULL"	"stimuli/VerticalHorizontal_-28.75714_-0.16217.png"	n/a	"VerticalHorizontal"	"arrowright"	"1218"	"TRUE"	"VerticalHorizontal"	"-28.75714000"	"-0.162170000"	"1"	"51"
n/a	"html-keyboard-response"	"119"	"271110"	"0.0-5.0-2.0-0.33"	"tgnvl6"	"600"	"1366"	"chrome"	"111.0.0"	"FALSE"	"Windows 10"	"60.17"	"064"	n/a	n/a	n/a	n/a	n/a	n/a	"fixation"	n/a	n/a	n/a	n/a	"NULL"	n/a	"NULL"	"NULL"	"NULL"	"<p style=\"color: black; font-size: 80px; padding-left: 43%; padding-right: 24%; padding-top: 4%; padding-bottom: 7%\">+</p>"	"1228"	n/a	n/a	n/a	n/a	n/a	n/a	n/a	n/a	n/a
n/a	"image-keyboard-response"	"120"	"271645"	"0.0-5.0-2.0-1.33"	"tgnvl6"	"600"	"1366"	"chrome"	"111.0.0"	"FALSE"	"Windows 10"	"60.17"	"064"	n/a	n/a	n/a	n/a	n/a	n/a	"Trial"	n/a	n/a	n/a	"534"	"arrowright"	n/a	"NULL"	"NULL"	"NULL"	"stimuli/VerticalHorizontal_11.78571_0.06730.png"	n/a	"VerticalHorizontal"	"arrowleft"	"1240"	"FALSE"	"VerticalHorizontal"	"11.785710000"	"0.0673000000"	"1"	"52"
n/a	"html-keyboard-response"	"121"	"273108"	"0.0-5.0-2.0-0.34"	"tgnvl6"	"600"	"1366"	"chrome"	"111.0.0"	"FALSE"	"Windows 10"	"60.17"	"064"	n/a	n/a	n/a	n/a	n/a	n/a	"fixation"	n/a	n/a	n/a	n/a	"NULL"	n/a	"NULL"	"NULL"	"NULL"	"<p style=\"color: black; font-size: 80px; padding-left: 5%; padding-right: 38%; padding-top: 12%; padding-bottom: 6%\">+</p>"	"1452"	n/a	n/a	n/a	n/a	n/a	n/a	n/a	n/a	n/a
n/a	"image-keyboard-response"	"122"	"273506"	"0.0-5.0-2.0-1.34"	"tgnvl6"	"600"	"1366"	"chrome"	"111.0.0"	"FALSE"	"Windows 10"	"60.17"	"064"	n/a	n/a	n/a	n/a	n/a	n/a	"Trial"	n/a	n/a	n/a	"397"	"arrowright"	n/a	"NULL"	"NULL"	"NULL"	"stimuli/VerticalHorizontal_3.30000_-0.2250.png"	n/a	"VerticalHorizontal"	"arrowright"	"1463"	"TRUE"	"VerticalHorizontal"	"3.3000000000"	"-0.225000000"	"1"	"53"
n/a	"html-keyboard-response"	"123"	"274953"	"0.0-5.0-2.0-0.35"	"tgnvl6"	"600"	"1366"	"chrome"	"111.0.0"	"FALSE"	"Windows 10"	"60.17"	"064"	n/a	n/a	n/a	n/a	n/a	n/a	"fixation"	n/a	n/a	n/a	n/a	"NULL"	n/a	"NULL"	"NULL"	"NULL"	"<p style=\"color: black; font-size: 80px; padding-left: 27%; padding-right: 42%; padding-top: 45%; padding-bottom: 27%\">+</p>"	"1441"	n/a	n/a	n/a	n/a	n/a	n/a	n/a	n/a	n/a
n/a	"image-keyboard-response"	"124"	"275394"	"0.0-5.0-2.0-1.35"	"tgnvl6"	"600"	"1366"	"chrome"	"111.0.0"	"FALSE"	"Windows 10"	"60.17"	"064"	n/a	n/a	n/a	n/a	n/a	n/a	"Trial"	n/a	n/a	n/a	"440"	"arrowleft"	n/a	"NULL"	"NULL"	"NULL"	"stimuli/VerticalHorizontal_-28.75714_0.06730.png"	n/a	"VerticalHorizontal"	"arrowleft"	"1447"	"TRUE"	"VerticalHorizontal"	"-28.75714000"	"0.0673000000"	"1"	"54"
n/a	"html-keyboard-response"	"125"	"276857"	"0.0-5.0-2.0-0.36"	"tgnvl6"	"600"	"1366"	"chrome"	"111.0.0"	"FALSE"	"Windows 10"	"60.17"	"064"	n/a	n/a	n/a	n/a	n/a	n/a	"fixation"	n/a	n/a	n/a	n/a	"NULL"	n/a	"NULL"	"NULL"	"NULL"	"<p style=\"color: black; font-size: 80px; padding-left: 44%; padding-right: 8%; padding-top: 45%; padding-bottom: 35%\">+</p>"	"1447"	n/a	n/a	n/a	n/a	n/a	n/a	n/a	n/a	n/a
n/a	"image-keyboard-response"	"126"	"277219"	"0.0-5.0-2.0-1.36"	"tgnvl6"	"600"	"1366"	"chrome"	"111.0.0"	"FALSE"	"Windows 10"	"60.17"	"064"	n/a	n/a	n/a	n/a	n/a	n/a	"Trial"	n/a	n/a	n/a	"361"	"arrowright"	n/a	"NULL"	"NULL"	"NULL"	"stimuli/VerticalHorizontal_20.27143_0.16217.png"	n/a	"VerticalHorizontal"	"arrowleft"	"1463"	"FALSE"	"VerticalHorizontal"	"20.271430000"	"0.1621700000"	"1"	"55"
n/a	"html-keyboard-response"	"127"	"278655"	"0.0-5.0-2.0-0.37"	"tgnvl6"	"600"	"1366"	"chrome"	"111.0.0"	"FALSE"	"Windows 10"	"60.17"	"064"	n/a	n/a	n/a	n/a	n/a	n/a	"fixation"	n/a	n/a	n/a	n/a	"NULL"	n/a	"NULL"	"NULL"	"NULL"	"<p style=\"color: black; font-size: 80px; padding-left: 31%; padding-right: 25%; padding-top: 42%; padding-bottom: 1%\">+</p>"	"1433"	n/a	n/a	n/a	n/a	n/a	n/a	n/a	n/a	n/a
n/a	"image-keyboard-response"	"128"	"279050"	"0.0-5.0-2.0-1.37"	"tgnvl6"	"600"	"1366"	"chrome"	"111.0.0"	"FALSE"	"Windows 10"	"60.17"	"064"	n/a	n/a	n/a	n/a	n/a	n/a	"Trial"	n/a	n/a	n/a	"394"	"arrowleft"	n/a	"NULL"	"NULL"	"NULL"	"stimuli/VerticalHorizontal_28.75714_-0.0673.png"	n/a	"VerticalHorizontal"	"arrowright"	"1436"	"FALSE"	"VerticalHorizontal"	"28.757140000"	"-0.067300000"	"1"	"56"
n/a	"html-keyboard-response"	"129"	"280153"	"0.0-5.0-2.0-0.38"	"tgnvl6"	"600"	"1366"	"chrome"	"111.0.0"	"FALSE"	"Windows 10"	"60.17"	"064"	n/a	n/a	n/a	n/a	n/a	n/a	"fixation"	n/a	n/a	n/a	n/a	"NULL"	n/a	"NULL"	"NULL"	"NULL"	"<p style=\"color: black; font-size: 80px; padding-left: 35%; padding-right: 1%; padding-top: 6%; padding-bottom: 44%\">+</p>"	"1101"	n/a	n/a	n/a	n/a	n/a	n/a	n/a	n/a	n/a
n/a	"image-keyboard-response"	"130"	"280724"	"0.0-5.0-2.0-1.38"	"tgnvl6"	"600"	"1366"	"chrome"	"111.0.0"	"FALSE"	"Windows 10"	"60.17"	"064"	n/a	n/a	n/a	n/a	n/a	n/a	"Trial"	n/a	n/a	n/a	"570"	"arrowleft"	n/a	"NULL"	"NULL"	"NULL"	"stimuli/VerticalHorizontal_-3.3000_0.10960.png"	n/a	"VerticalHorizontal"	"arrowleft"	"1103"	"TRUE"	"VerticalHorizontal"	"-3.300000000"	"0.1096000000"	"1"	"57"
n/a	"html-keyboard-response"	"131"	"281810"	"0.0-5.0-2.0-0.39"	"tgnvl6"	"600"	"1366"	"chrome"	"111.0.0"	"FALSE"	"Windows 10"	"60.17"	"064"	n/a	n/a	n/a	n/a	n/a	n/a	"fixation"	n/a	n/a	n/a	n/a	"NULL"	n/a	"NULL"	"NULL"	"NULL"	"<p style=\"color: black; font-size: 80px; padding-left: 4%; padding-right: 34%; padding-top: 46%; padding-bottom: 16%\">+</p>"	"1082"	n/a	n/a	n/a	n/a	n/a	n/a	n/a	n/a	n/a
n/a	"image-keyboard-response"	"132"	"282243"	"0.0-5.0-2.0-1.39"	"tgnvl6"	"600"	"1366"	"chrome"	"111.0.0"	"FALSE"	"Windows 10"	"60.17"	"064"	n/a	n/a	n/a	n/a	n/a	n/a	"Trial"	n/a	n/a	n/a	"432"	"arrowleft"	n/a	"NULL"	"NULL"	"NULL"	"stimuli/VerticalHorizontal_-11.78571_0.16217.png"	n/a	"VerticalHorizontal"	"arrowleft"	"1086"	"TRUE"	"VerticalHorizontal"	"-11.78571000"	"0.1621700000"	"1"	"58"
n/a	"html-keyboard-response"	"133"	"283644"	"0.0-5.0-2.0-0.40"	"tgnvl6"	"600"	"1366"	"chrome"	"111.0.0"	"FALSE"	"Windows 10"	"60.17"	"064"	n/a	n/a	n/a	n/a	n/a	n/a	"fixation"	n/a	n/a	n/a	n/a	"NULL"	n/a	"NULL"	"NULL"	"NULL"	"<p style=\"color: black; font-size: 80px; padding-left: 2%; padding-right: 44%; padding-top: 43%; padding-bottom: 20%\">+</p>"	"1388"	n/a	n/a	n/a	n/a	n/a	n/a	n/a	n/a	n/a
n/a	"image-keyboard-response"	"134"	"284141"	"0.0-5.0-2.0-1.40"	"tgnvl6"	"600"	"1366"	"chrome"	"111.0.0"	"FALSE"	"Windows 10"	"60.17"	"064"	n/a	n/a	n/a	n/a	n/a	n/a	"Trial"	n/a	n/a	n/a	"497"	"arrowright"	n/a	"NULL"	"NULL"	"NULL"	"stimuli/VerticalHorizontal_11.78571_-0.1096.png"	n/a	"VerticalHorizontal"	"arrowright"	"1401"	"TRUE"	"VerticalHorizontal"	"11.785710000"	"-0.109600000"	"1"	"59"
n/a	"html-keyboard-response"	"135"	"285409"	"0.0-5.0-2.0-0.41"	"tgnvl6"	"600"	"1366"	"chrome"	"111.0.0"	"FALSE"	"Windows 10"	"60.17"	"064"	n/a	n/a	n/a	n/a	n/a	n/a	"fixation"	n/a	n/a	n/a	n/a	"NULL"	n/a	"NULL"	"NULL"	"NULL"	"<p style=\"color: black; font-size: 80px; padding-left: 40%; padding-right: 40%; padding-top: 21%; padding-bottom: 6%\">+</p>"	"1262"	n/a	n/a	n/a	n/a	n/a	n/a	n/a	n/a	n/a
n/a	"image-keyboard-response"	"136"	"285823"	"0.0-5.0-2.0-1.41"	"tgnvl6"	"600"	"1366"	"chrome"	"111.0.0"	"FALSE"	"Windows 10"	"60.17"	"064"	n/a	n/a	n/a	n/a	n/a	n/a	"Trial"	n/a	n/a	n/a	"414"	"arrowright"	n/a	"NULL"	"NULL"	"NULL"	"stimuli/VerticalHorizontal_20.27143_-0.1096.png"	n/a	"VerticalHorizontal"	"arrowright"	"1268"	"TRUE"	"VerticalHorizontal"	"20.271430000"	"-0.109600000"	"1"	"60"
n/a	"html-keyboard-response"	"137"	"287060"	"0.0-5.0-2.0-0.42"	"tgnvl6"	"600"	"1366"	"chrome"	"111.0.0"	"FALSE"	"Windows 10"	"60.17"	"064"	n/a	n/a	n/a	n/a	n/a	n/a	"fixation"	n/a	n/a	n/a	n/a	"NULL"	n/a	"NULL"	"NULL"	"NULL"	"<p style=\"color: black; font-size: 80px; padding-left: 14%; padding-right: 20%; padding-top: 31%; padding-bottom: 3%\">+</p>"	"1236"	n/a	n/a	n/a	n/a	n/a	n/a	n/a	n/a	n/a
n/a	"image-keyboard-response"	"138"	"287541"	"0.0-5.0-2.0-1.42"	"tgnvl6"	"600"	"1366"	"chrome"	"111.0.0"	"FALSE"	"Windows 10"	"60.17"	"064"	n/a	n/a	n/a	n/a	n/a	n/a	"Trial"	n/a	n/a	n/a	"481"	"arrowright"	n/a	"NULL"	"NULL"	"NULL"	"stimuli/VerticalHorizontal_-3.3000_-0.1096.png"	n/a	"VerticalHorizontal"	"arrowright"	"1237"	"TRUE"	"VerticalHorizontal"	"-3.300000000"	"-0.109600000"	"1"	"61"
n/a	"html-keyboard-response"	"139"	"288881"	"0.0-5.0-2.0-0.43"	"tgnvl6"	"600"	"1366"	"chrome"	"111.0.0"	"FALSE"	"Windows 10"	"60.17"	"064"	n/a	n/a	n/a	n/a	n/a	n/a	"fixation"	n/a	n/a	n/a	n/a	"NULL"	n/a	"NULL"	"NULL"	"NULL"	"<p style=\"color: black; font-size: 80px; padding-left: 28%; padding-right: 10%; padding-top: 18%; padding-bottom: 27%\">+</p>"	"1338"	n/a	n/a	n/a	n/a	n/a	n/a	n/a	n/a	n/a
n/a	"image-keyboard-response"	"140"	"289382"	"0.0-5.0-2.0-1.43"	"tgnvl6"	"600"	"1366"	"chrome"	"111.0.0"	"FALSE"	"Windows 10"	"60.17"	"064"	n/a	n/a	n/a	n/a	n/a	n/a	"Trial"	n/a	n/a	n/a	"501"	"arrowleft"	n/a	"NULL"	"NULL"	"NULL"	"stimuli/VerticalHorizontal_-11.78571_0.10960.png"	n/a	"VerticalHorizontal"	"arrowleft"	"1340"	"TRUE"	"VerticalHorizontal"	"-11.78571000"	"0.1096000000"	"1"	"62"
n/a	"html-keyboard-response"	"141"	"290651"	"0.0-5.0-2.0-0.44"	"tgnvl6"	"600"	"1366"	"chrome"	"111.0.0"	"FALSE"	"Windows 10"	"60.17"	"064"	n/a	n/a	n/a	n/a	n/a	n/a	"fixation"	n/a	n/a	n/a	n/a	"NULL"	n/a	"NULL"	"NULL"	"NULL"	"<p style=\"color: black; font-size: 80px; padding-left: 43%; padding-right: 19%; padding-top: 5%; padding-bottom: 42%\">+</p>"	"1261"	n/a	n/a	n/a	n/a	n/a	n/a	n/a	n/a	n/a
n/a	"image-keyboard-response"	"142"	"291112"	"0.0-5.0-2.0-1.44"	"tgnvl6"	"600"	"1366"	"chrome"	"111.0.0"	"FALSE"	"Windows 10"	"60.17"	"064"	n/a	n/a	n/a	n/a	n/a	n/a	"Trial"	n/a	n/a	n/a	"460"	"arrowright"	n/a	"NULL"	"NULL"	"NULL"	"stimuli/VerticalHorizontal_28.75714_-0.2250.png"	n/a	"VerticalHorizontal"	"arrowright"	"1269"	"TRUE"	"VerticalHorizontal"	"28.757140000"	"-0.225000000"	"1"	"63"
n/a	"html-keyboard-response"	"143"	"292523"	"0.0-5.0-2.0-0.45"	"tgnvl6"	"600"	"1366"	"chrome"	"111.0.0"	"FALSE"	"Windows 10"	"60.17"	"064"	n/a	n/a	n/a	n/a	n/a	n/a	"fixation"	n/a	n/a	n/a	n/a	"NULL"	n/a	"NULL"	"NULL"	"NULL"	"<p style=\"color: black; font-size: 80px; padding-left: 47%; padding-right: 4%; padding-top: 39%; padding-bottom: 18%\">+</p>"	"1408"	n/a	n/a	n/a	n/a	n/a	n/a	n/a	n/a	n/a
n/a	"image-keyboard-response"	"144"	"292943"	"0.0-5.0-2.0-1.45"	"tgnvl6"	"600"	"1366"	"chrome"	"111.0.0"	"FALSE"	"Windows 10"	"60.17"	"064"	n/a	n/a	n/a	n/a	n/a	n/a	"Trial"	n/a	n/a	n/a	"419"	"arrowright"	n/a	"NULL"	"NULL"	"NULL"	"stimuli/VerticalHorizontal_-11.78571_-0.1096.png"	n/a	"VerticalHorizontal"	"arrowright"	"1411"	"TRUE"	"VerticalHorizontal"	"-11.78571000"	"-0.109600000"	"1"	"64"
n/a	"html-keyboard-response"	"145"	"294185"	"0.0-5.0-2.0-0.46"	"tgnvl6"	"600"	"1366"	"chrome"	"111.0.0"	"FALSE"	"Windows 10"	"60.17"	"064"	n/a	n/a	n/a	n/a	n/a	n/a	"fixation"	n/a	n/a	n/a	n/a	"NULL"	n/a	"NULL"	"NULL"	"NULL"	"<p style=\"color: black; font-size: 80px; padding-left: 40%; padding-right: 21%; padding-top: 40%; padding-bottom: 7%\">+</p>"	"1234"	n/a	n/a	n/a	n/a	n/a	n/a	n/a	n/a	n/a
n/a	"image-keyboard-response"	"146"	"294628"	"0.0-5.0-2.0-1.46"	"tgnvl6"	"600"	"1366"	"chrome"	"111.0.0"	"FALSE"	"Windows 10"	"60.17"	"064"	n/a	n/a	n/a	n/a	n/a	n/a	"Trial"	n/a	n/a	n/a	"442"	"arrowright"	n/a	"NULL"	"NULL"	"NULL"	"stimuli/VerticalHorizontal_-11.78571_-0.0673.png"	n/a	"VerticalHorizontal"	"arrowright"	"1242"	"TRUE"	"VerticalHorizontal"	"-11.78571000"	"-0.067300000"	"1"	"65"
n/a	"html-keyboard-response"	"147"	"296068"	"0.0-5.0-2.0-0.47"	"tgnvl6"	"600"	"1366"	"chrome"	"111.0.0"	"FALSE"	"Windows 10"	"60.17"	"064"	n/a	n/a	n/a	n/a	n/a	n/a	"fixation"	n/a	n/a	n/a	n/a	"NULL"	n/a	"NULL"	"NULL"	"NULL"	"<p style=\"color: black; font-size: 80px; padding-left: 36%; padding-right: 38%; padding-top: 23%; padding-bottom: 41%\">+</p>"	"1435"	n/a	n/a	n/a	n/a	n/a	n/a	n/a	n/a	n/a
n/a	"image-keyboard-response"	"148"	"296499"	"0.0-5.0-2.0-1.47"	"tgnvl6"	"600"	"1366"	"chrome"	"111.0.0"	"FALSE"	"Windows 10"	"60.17"	"064"	n/a	n/a	n/a	n/a	n/a	n/a	"Trial"	n/a	n/a	n/a	"430"	"arrowleft"	n/a	"NULL"	"NULL"	"NULL"	"stimuli/VerticalHorizontal_-28.75714_0.10960.png"	n/a	"VerticalHorizontal"	"arrowleft"	"1440"	"TRUE"	"VerticalHorizontal"	"-28.75714000"	"0.1096000000"	"1"	"66"
n/a	"html-keyboard-response"	"149"	"297883"	"0.0-5.0-2.0-0.48"	"tgnvl6"	"600"	"1366"	"chrome"	"111.0.0"	"FALSE"	"Windows 10"	"60.17"	"064"	n/a	n/a	n/a	n/a	n/a	n/a	"fixation"	n/a	n/a	n/a	n/a	"NULL"	n/a	"NULL"	"NULL"	"NULL"	"<p style=\"color: black; font-size: 80px; padding-left: 13%; padding-right: 17%; padding-top: 47%; padding-bottom: 7%\">+</p>"	"1368"	n/a	n/a	n/a	n/a	n/a	n/a	n/a	n/a	n/a
n/a	"image-keyboard-response"	"150"	"298373"	"0.0-5.0-2.0-1.48"	"tgnvl6"	"600"	"1366"	"chrome"	"111.0.0"	"FALSE"	"Windows 10"	"60.17"	"064"	n/a	n/a	n/a	n/a	n/a	n/a	"Trial"	n/a	n/a	n/a	"489"	"arrowleft"	n/a	"NULL"	"NULL"	"NULL"	"stimuli/VerticalHorizontal_3.30000_0.16217.png"	n/a	"VerticalHorizontal"	"arrowleft"	"1384"	"TRUE"	"VerticalHorizontal"	"3.3000000000"	"0.1621700000"	"1"	"67"
n/a	"html-keyboard-response"	"151"	"299457"	"0.0-5.0-2.0-0.49"	"tgnvl6"	"600"	"1366"	"chrome"	"111.0.0"	"FALSE"	"Windows 10"	"60.17"	"064"	n/a	n/a	n/a	n/a	n/a	n/a	"fixation"	n/a	n/a	n/a	n/a	"NULL"	n/a	"NULL"	"NULL"	"NULL"	"<p style=\"color: black; font-size: 80px; padding-left: 16%; padding-right: 44%; padding-top: 34%; padding-bottom: 4%\">+</p>"	"1074"	n/a	n/a	n/a	n/a	n/a	n/a	n/a	n/a	n/a
n/a	"image-keyboard-response"	"152"	"299880"	"0.0-5.0-2.0-1.49"	"tgnvl6"	"600"	"1366"	"chrome"	"111.0.0"	"FALSE"	"Windows 10"	"60.17"	"064"	n/a	n/a	n/a	n/a	n/a	n/a	"Trial"	n/a	n/a	n/a	"422"	"arrowright"	n/a	"NULL"	"NULL"	"NULL"	"stimuli/VerticalHorizontal_11.78571_-0.2250.png"	n/a	"VerticalHorizontal"	"arrowright"	"1084"	"TRUE"	"VerticalHorizontal"	"11.785710000"	"-0.225000000"	"1"	"68"
n/a	"html-keyboard-response"	"153"	"300917"	"0.0-5.0-2.0-0.50"	"tgnvl6"	"600"	"1366"	"chrome"	"111.0.0"	"FALSE"	"Windows 10"	"60.17"	"064"	n/a	n/a	n/a	n/a	n/a	n/a	"fixation"	n/a	n/a	n/a	n/a	"NULL"	n/a	"NULL"	"NULL"	"NULL"	"<p style=\"color: black; font-size: 80px; padding-left: 44%; padding-right: 9%; padding-top: 31%; padding-bottom: 26%\">+</p>"	"1026"	n/a	n/a	n/a	n/a	n/a	n/a	n/a	n/a	n/a
n/a	"image-keyboard-response"	"154"	"301345"	"0.0-5.0-2.0-1.50"	"tgnvl6"	"600"	"1366"	"chrome"	"111.0.0"	"FALSE"	"Windows 10"	"60.17"	"064"	n/a	n/a	n/a	n/a	n/a	n/a	"Trial"	n/a	n/a	n/a	"427"	"arrowright"	n/a	"NULL"	"NULL"	"NULL"	"stimuli/VerticalHorizontal_-11.78571_-0.2250.png"	n/a	"VerticalHorizontal"	"arrowright"	"1037"	"TRUE"	"VerticalHorizontal"	"-11.78571000"	"-0.225000000"	"1"	"69"
n/a	"html-keyboard-response"	"155"	"302458"	"0.0-5.0-2.0-0.51"	"tgnvl6"	"600"	"1366"	"chrome"	"111.0.0"	"FALSE"	"Windows 10"	"60.17"	"064"	n/a	n/a	n/a	n/a	n/a	n/a	"fixation"	n/a	n/a	n/a	n/a	"NULL"	n/a	"NULL"	"NULL"	"NULL"	"<p style=\"color: black; font-size: 80px; padding-left: 12%; padding-right: 1%; padding-top: 5%; padding-bottom: 32%\">+</p>"	"1103"	n/a	n/a	n/a	n/a	n/a	n/a	n/a	n/a	n/a
n/a	"image-keyboard-response"	"156"	"302974"	"0.0-5.0-2.0-1.51"	"tgnvl6"	"600"	"1366"	"chrome"	"111.0.0"	"FALSE"	"Windows 10"	"60.17"	"064"	n/a	n/a	n/a	n/a	n/a	n/a	"Trial"	n/a	n/a	n/a	"514"	"arrowleft"	n/a	"NULL"	"NULL"	"NULL"	"stimuli/VerticalHorizontal_28.75714_-0.16217.png"	n/a	"VerticalHorizontal"	"arrowright"	"1113"	"FALSE"	"VerticalHorizontal"	"28.757140000"	"-0.162170000"	"1"	"70"
n/a	"html-keyboard-response"	"157"	"304367"	"0.0-5.0-2.0-0.52"	"tgnvl6"	"600"	"1366"	"chrome"	"111.0.0"	"FALSE"	"Windows 10"	"60.17"	"064"	n/a	n/a	n/a	n/a	n/a	n/a	"fixation"	n/a	n/a	n/a	n/a	"NULL"	n/a	"NULL"	"NULL"	"NULL"	"<p style=\"color: black; font-size: 80px; padding-left: 35%; padding-right: 47%; padding-top: 38%; padding-bottom: 5%\">+</p>"	"1386"	n/a	n/a	n/a	n/a	n/a	n/a	n/a	n/a	n/a
n/a	"image-keyboard-response"	"158"	"304851"	"0.0-5.0-2.0-1.52"	"tgnvl6"	"600"	"1366"	"chrome"	"111.0.0"	"FALSE"	"Windows 10"	"60.17"	"064"	n/a	n/a	n/a	n/a	n/a	n/a	"Trial"	n/a	n/a	n/a	"483"	"arrowleft"	n/a	"NULL"	"NULL"	"NULL"	"stimuli/VerticalHorizontal_-28.75714_0.16217.png"	n/a	"VerticalHorizontal"	"arrowleft"	"1393"	"TRUE"	"VerticalHorizontal"	"-28.75714000"	"0.1621700000"	"1"	"71"
n/a	"html-keyboard-response"	"159"	"306120"	"0.0-5.0-2.0-0.53"	"tgnvl6"	"600"	"1366"	"chrome"	"111.0.0"	"FALSE"	"Windows 10"	"60.17"	"064"	n/a	n/a	n/a	n/a	n/a	n/a	"fixation"	n/a	n/a	n/a	n/a	"NULL"	n/a	"NULL"	"NULL"	"NULL"	"<p style=\"color: black; font-size: 80px; padding-left: 21%; padding-right: 23%; padding-top: 41%; padding-bottom: 3%\">+</p>"	"1258"	n/a	n/a	n/a	n/a	n/a	n/a	n/a	n/a	n/a
n/a	"image-keyboard-response"	"160"	"306620"	"0.0-5.0-2.0-1.53"	"tgnvl6"	"600"	"1366"	"chrome"	"111.0.0"	"FALSE"	"Windows 10"	"60.17"	"064"	n/a	n/a	n/a	n/a	n/a	n/a	"Trial"	n/a	n/a	n/a	"500"	"arrowleft"	n/a	"NULL"	"NULL"	"NULL"	"stimuli/VerticalHorizontal_-3.3000_0.22500.png"	n/a	"VerticalHorizontal"	"arrowleft"	"1269"	"TRUE"	"VerticalHorizontal"	"-3.300000000"	"0.2250000000"	"1"	"72"
n/a	"html-keyboard-response"	"161"	"307760"	"0.0-5.0-2.0-0.54"	"tgnvl6"	"600"	"1366"	"chrome"	"111.0.0"	"FALSE"	"Windows 10"	"60.17"	"064"	n/a	n/a	n/a	n/a	n/a	n/a	"fixation"	n/a	n/a	n/a	n/a	"NULL"	n/a	"NULL"	"NULL"	"NULL"	"<p style=\"color: black; font-size: 80px; padding-left: 49%; padding-right: 25%; padding-top: 4%; padding-bottom: 18%\">+</p>"	"1136"	n/a	n/a	n/a	n/a	n/a	n/a	n/a	n/a	n/a
n/a	"image-keyboard-response"	"162"	"308171"	"0.0-5.0-2.0-1.54"	"tgnvl6"	"600"	"1366"	"chrome"	"111.0.0"	"FALSE"	"Windows 10"	"60.17"	"064"	n/a	n/a	n/a	n/a	n/a	n/a	"Trial"	n/a	n/a	n/a	"410"	"arrowright"	n/a	"NULL"	"NULL"	"NULL"	"stimuli/VerticalHorizontal_-3.3000_-0.2250.png"	n/a	"VerticalHorizontal"	"arrowright"	"1140"	"TRUE"	"VerticalHorizontal"	"-3.300000000"	"-0.225000000"	"1"	"73"
n/a	"html-keyboard-response"	"163"	"309363"	"0.0-5.0-2.0-0.55"	"tgnvl6"	"600"	"1366"	"chrome"	"111.0.0"	"FALSE"	"Windows 10"	"60.17"	"064"	n/a	n/a	n/a	n/a	n/a	n/a	"fixation"	n/a	n/a	n/a	n/a	"NULL"	n/a	"NULL"	"NULL"	"NULL"	"<p style=\"color: black; font-size: 80px; padding-left: 9%; padding-right: 8%; padding-top: 5%; padding-bottom: 20%\">+</p>"	"1187"	n/a	n/a	n/a	n/a	n/a	n/a	n/a	n/a	n/a
n/a	"image-keyboard-response"	"164"	"309801"	"0.0-5.0-2.0-1.55"	"tgnvl6"	"600"	"1366"	"chrome"	"111.0.0"	"FALSE"	"Windows 10"	"60.17"	"064"	n/a	n/a	n/a	n/a	n/a	n/a	"Trial"	n/a	n/a	n/a	"437"	"arrowleft"	n/a	"NULL"	"NULL"	"NULL"	"stimuli/VerticalHorizontal_-28.75714_0.22500.png"	n/a	"VerticalHorizontal"	"arrowleft"	"1192"	"TRUE"	"VerticalHorizontal"	"-28.75714000"	"0.2250000000"	"1"	"74"
n/a	"html-keyboard-response"	"165"	"311064"	"0.0-5.0-2.0-0.56"	"tgnvl6"	"600"	"1366"	"chrome"	"111.0.0"	"FALSE"	"Windows 10"	"60.17"	"064"	n/a	n/a	n/a	n/a	n/a	n/a	"fixation"	n/a	n/a	n/a	n/a	"NULL"	n/a	"NULL"	"NULL"	"NULL"	"<p style=\"color: black; font-size: 80px; padding-left: 4%; padding-right: 34%; padding-top: 44%; padding-bottom: 46%\">+</p>"	"1258"	n/a	n/a	n/a	n/a	n/a	n/a	n/a	n/a	n/a
n/a	"image-keyboard-response"	"166"	"311544"	"0.0-5.0-2.0-1.56"	"tgnvl6"	"600"	"1366"	"chrome"	"111.0.0"	"FALSE"	"Windows 10"	"60.17"	"064"	n/a	n/a	n/a	n/a	n/a	n/a	"Trial"	n/a	n/a	n/a	"479"	"arrowright"	n/a	"NULL"	"NULL"	"NULL"	"stimuli/VerticalHorizontal_-3.3000_-0.0673.png"	n/a	"VerticalHorizontal"	"arrowright"	"1263"	"TRUE"	"VerticalHorizontal"	"-3.300000000"	"-0.067300000"	"1"	"75"
n/a	"html-keyboard-response"	"167"	"312653"	"0.0-5.0-2.0-0.57"	"tgnvl6"	"600"	"1366"	"chrome"	"111.0.0"	"FALSE"	"Windows 10"	"60.17"	"064"	n/a	n/a	n/a	n/a	n/a	n/a	"fixation"	n/a	n/a	n/a	n/a	"NULL"	n/a	"NULL"	"NULL"	"NULL"	"<p style=\"color: black; font-size: 80px; padding-left: 13%; padding-right: 19%; padding-top: 16%; padding-bottom: 18%\">+</p>"	"1094"	n/a	n/a	n/a	n/a	n/a	n/a	n/a	n/a	n/a
n/a	"image-keyboard-response"	"168"	"313084"	"0.0-5.0-2.0-1.57"	"tgnvl6"	"600"	"1366"	"chrome"	"111.0.0"	"FALSE"	"Windows 10"	"60.17"	"064"	n/a	n/a	n/a	n/a	n/a	n/a	"Trial"	n/a	n/a	n/a	"430"	"arrowright"	n/a	"NULL"	"NULL"	"NULL"	"stimuli/VerticalHorizontal_-28.75714_-0.1096.png"	n/a	"VerticalHorizontal"	"arrowright"	"1109"	"TRUE"	"VerticalHorizontal"	"-28.75714000"	"-0.109600000"	"1"	"76"
n/a	"html-keyboard-response"	"169"	"314493"	"0.0-5.0-2.0-0.58"	"tgnvl6"	"600"	"1366"	"chrome"	"111.0.0"	"FALSE"	"Windows 10"	"60.17"	"064"	n/a	n/a	n/a	n/a	n/a	n/a	"fixation"	n/a	n/a	n/a	n/a	"NULL"	n/a	"NULL"	"NULL"	"NULL"	"<p style=\"color: black; font-size: 80px; padding-left: 48%; padding-right: 9%; padding-top: 48%; padding-bottom: 20%\">+</p>"	"1402"	n/a	n/a	n/a	n/a	n/a	n/a	n/a	n/a	n/a
n/a	"image-keyboard-response"	"170"	"314966"	"0.0-5.0-2.0-1.58"	"tgnvl6"	"600"	"1366"	"chrome"	"111.0.0"	"FALSE"	"Windows 10"	"60.17"	"064"	n/a	n/a	n/a	n/a	n/a	n/a	"Trial"	n/a	n/a	n/a	"472"	"arrowright"	n/a	"NULL"	"NULL"	"NULL"	"stimuli/VerticalHorizontal_-11.78571_-0.16217.png"	n/a	"VerticalHorizontal"	"arrowright"	"1409"	"TRUE"	"VerticalHorizontal"	"-11.78571000"	"-0.162170000"	"1"	"77"
n/a	"html-keyboard-response"	"171"	"316410"	"0.0-5.0-2.0-0.59"	"tgnvl6"	"600"	"1366"	"chrome"	"111.0.0"	"FALSE"	"Windows 10"	"60.17"	"064"	n/a	n/a	n/a	n/a	n/a	n/a	"fixation"	n/a	n/a	n/a	n/a	"NULL"	n/a	"NULL"	"NULL"	"NULL"	"<p style=\"color: black; font-size: 80px; padding-left: 36%; padding-right: 50%; padding-top: 4%; padding-bottom: 38%\">+</p>"	"1428"	n/a	n/a	n/a	n/a	n/a	n/a	n/a	n/a	n/a
n/a	"image-keyboard-response"	"172"	"316845"	"0.0-5.0-2.0-1.59"	"tgnvl6"	"600"	"1366"	"chrome"	"111.0.0"	"FALSE"	"Windows 10"	"60.17"	"064"	n/a	n/a	n/a	n/a	n/a	n/a	"Trial"	n/a	n/a	n/a	"434"	"arrowleft"	n/a	"NULL"	"NULL"	"NULL"	"stimuli/VerticalHorizontal_3.30000_0.10960.png"	n/a	"VerticalHorizontal"	"arrowleft"	"1444"	"TRUE"	"VerticalHorizontal"	"3.3000000000"	"0.1096000000"	"1"	"78"
n/a	"html-keyboard-response"	"173"	"317891"	"0.0-5.0-2.0-0.60"	"tgnvl6"	"600"	"1366"	"chrome"	"111.0.0"	"FALSE"	"Windows 10"	"60.17"	"064"	n/a	n/a	n/a	n/a	n/a	n/a	"fixation"	n/a	n/a	n/a	n/a	"NULL"	n/a	"NULL"	"NULL"	"NULL"	"<p style=\"color: black; font-size: 80px; padding-left: 6%; padding-right: 40%; padding-top: 9%; padding-bottom: 25%\">+</p>"	"1043"	n/a	n/a	n/a	n/a	n/a	n/a	n/a	n/a	n/a
n/a	"image-keyboard-response"	"174"	"318317"	"0.0-5.0-2.0-1.60"	"tgnvl6"	"600"	"1366"	"chrome"	"111.0.0"	"FALSE"	"Windows 10"	"60.17"	"064"	n/a	n/a	n/a	n/a	n/a	n/a	"Trial"	n/a	n/a	n/a	"426"	"arrowright"	n/a	"NULL"	"NULL"	"NULL"	"stimuli/VerticalHorizontal_11.78571_0.10960.png"	n/a	"VerticalHorizontal"	"arrowleft"	"1046"	"FALSE"	"VerticalHorizontal"	"11.785710000"	"0.1096000000"	"1"	"79"
n/a	"html-keyboard-response"	"175"	"319754"	"0.0-5.0-2.0-0.61"	"tgnvl6"	"600"	"1366"	"chrome"	"111.0.0"	"FALSE"	"Windows 10"	"60.17"	"064"	n/a	n/a	n/a	n/a	n/a	n/a	"fixation"	n/a	n/a	n/a	n/a	"NULL"	n/a	"NULL"	"NULL"	"NULL"	"<p style=\"color: black; font-size: 80px; padding-left: 21%; padding-right: 9%; padding-top: 13%; padding-bottom: 19%\">+</p>"	"1434"	n/a	n/a	n/a	n/a	n/a	n/a	n/a	n/a	n/a
n/a	"image-keyboard-response"	"176"	"320253"	"0.0-5.0-2.0-1.61"	"tgnvl6"	"600"	"1366"	"chrome"	"111.0.0"	"FALSE"	"Windows 10"	"60.17"	"064"	n/a	n/a	n/a	n/a	n/a	n/a	"Trial"	n/a	n/a	n/a	"498"	"arrowleft"	n/a	"NULL"	"NULL"	"NULL"	"stimuli/VerticalHorizontal_-3.3000_0.16217.png"	n/a	"VerticalHorizontal"	"arrowleft"	"1437"	"TRUE"	"VerticalHorizontal"	"-3.300000000"	"0.1621700000"	"1"	"80"
n/a	"html-keyboard-response"	"177"	"321719"	"0.0-5.0-2.0-0.62"	"tgnvl6"	"600"	"1366"	"chrome"	"111.0.0"	"FALSE"	"Windows 10"	"60.17"	"064"	n/a	n/a	n/a	n/a	n/a	n/a	"fixation"	n/a	n/a	n/a	n/a	"NULL"	n/a	"NULL"	"NULL"	"NULL"	"<p style=\"color: black; font-size: 80px; padding-left: 23%; padding-right: 48%; padding-top: 16%; padding-bottom: 1%\">+</p>"	"1458"	n/a	n/a	n/a	n/a	n/a	n/a	n/a	n/a	n/a
n/a	"image-keyboard-response"	"178"	"322170"	"0.0-5.0-2.0-1.62"	"tgnvl6"	"600"	"1366"	"chrome"	"111.0.0"	"FALSE"	"Windows 10"	"60.17"	"064"	n/a	n/a	n/a	n/a	n/a	n/a	"Trial"	n/a	n/a	n/a	"451"	"arrowright"	n/a	"NULL"	"NULL"	"NULL"	"stimuli/VerticalHorizontal_20.27143_0.06730.png"	n/a	"VerticalHorizontal"	"arrowleft"	"1466"	"FALSE"	"VerticalHorizontal"	"20.271430000"	"0.0673000000"	"1"	"81"
n/a	"html-keyboard-response"	"179"	"323267"	"0.0-5.0-2.0-0.63"	"tgnvl6"	"600"	"1366"	"chrome"	"111.0.0"	"FALSE"	"Windows 10"	"60.17"	"064"	n/a	n/a	n/a	n/a	n/a	n/a	"fixation"	n/a	n/a	n/a	n/a	"NULL"	n/a	"NULL"	"NULL"	"NULL"	"<p style=\"color: black; font-size: 80px; padding-left: 3%; padding-right: 23%; padding-top: 12%; padding-bottom: 7%\">+</p>"	"1088"	n/a	n/a	n/a	n/a	n/a	n/a	n/a	n/a	n/a
n/a	"image-keyboard-response"	"180"	"323688"	"0.0-5.0-2.0-1.63"	"tgnvl6"	"600"	"1366"	"chrome"	"111.0.0"	"FALSE"	"Windows 10"	"60.17"	"064"	n/a	n/a	n/a	n/a	n/a	n/a	"Trial"	n/a	n/a	n/a	"420"	"arrowleft"	n/a	"NULL"	"NULL"	"NULL"	"stimuli/VerticalHorizontal_-20.27143_0.16217.png"	n/a	"VerticalHorizontal"	"arrowleft"	"1097"	"TRUE"	"VerticalHorizontal"	"-20.27143000"	"0.1621700000"	"1"	"82"
n/a	"html-button-response"	"181"	"336812"	"0.0-5.0-3.0"	"tgnvl6"	"600"	"1366"	"chrome"	"111.0.0"	"FALSE"	"Windows 10"	"60.17"	"064"	n/a	n/a	n/a	n/a	n/a	n/a	"block_results"	n/a	n/a	n/a	"13122"	"0"	n/a	"NULL"	"NULL"	"NULL"	"<p>Your score for this illusion is <p style=\"color: black; font-size: 48px; font-weight: bold;\">84.3 %</p><hr><p>Can you do better in the next illusion?</p>"	n/a	n/a	n/a	n/a	n/a	n/a	n/a	n/a	n/a	n/a
"TRUE"	"preload"	"182"	"336960"	"0.0-6.0-0.0"	"tgnvl6"	"600"	"1366"	"chrome"	"111.0.0"	"FALSE"	"Windows 10"	"60.17"	"064"	n/a	n/a	n/a	n/a	n/a	n/a	n/a	n/a	n/a	n/a	n/a	"NULL"	"FALSE"	"list()"	"list()"	"list()"	n/a	n/a	n/a	n/a	n/a	n/a	n/a	n/a	n/a	n/a	n/a
n/a	"html-keyboard-response"	"183"	"343424"	"0.0-6.0-1.0"	"tgnvl6"	"600"	"1366"	"chrome"	"111.0.0"	"FALSE"	"Windows 10"	"60.17"	"064"	n/a	n/a	n/a	n/a	n/a	n/a	n/a	n/a	n/a	n/a	"6463"	"enter"	n/a	"NULL"	"NULL"	"NULL"	"<p><b>Part 2/6</b></p><p>In this part, two horizontal red lines will appear one above the other.</p><p>Your task is to select which <b>line is longer</b> in length as fast as you can, without making errors.</p><p>Don't get distracted by the surrounding black arrows at the end of the red lines!</p><p>Press <b>the UP or the DOWN arrow</b> to indicate where is the longer <b>red line.</b></p><div style='float: center'><img src='materials/instructions/MullerLyer_Demo.png' height='300'></img><p><img src='utils/answer/answer_updown_keyboard.PNG' height='150'></img></p><p class='small'>In this example, the correct answer is the <b>UP arrow</b>.</p></div><p>Are you ready? <b>Press ENTER to start</b></p>"	n/a	n/a	n/a	n/a	n/a	n/a	n/a	n/a	n/a	n/a
n/a	"html-keyboard-response"	"184"	"345048"	"0.0-6.0-2.0-0.0"	"tgnvl6"	"600"	"1366"	"chrome"	"111.0.0"	"FALSE"	"Windows 10"	"60.17"	"064"	n/a	n/a	n/a	n/a	n/a	n/a	"fixation"	n/a	n/a	n/a	n/a	"NULL"	n/a	"NULL"	"NULL"	"NULL"	"<p style=\"color: black; font-size: 80px; padding-left: 0%; padding-right: 17%; padding-top: 9%; padding-bottom: 45%\">+</p>"	"1099"	n/a	n/a	n/a	n/a	n/a	n/a	n/a	n/a	n/a
n/a	"image-keyboard-response"	"185"	"345528"	"0.0-6.0-2.0-1.0"	"tgnvl6"	"600"	"1366"	"chrome"	"111.0.0"	"FALSE"	"Windows 10"	"60.17"	"064"	n/a	n/a	n/a	n/a	n/a	n/a	"Trial"	n/a	n/a	n/a	"478"	"arrowup"	n/a	"NULL"	"NULL"	"NULL"	"stimuli/MullerLyer_-14.12857_0.14541.png"	n/a	"MullerLyer"	"arrowup"	"1624"	"TRUE"	"MullerLyer"	"-14.12857000"	"0.1454100000"	"2"	"1"
n/a	"html-keyboard-response"	"186"	"346565"	"0.0-6.0-2.0-0.1"	"tgnvl6"	"600"	"1366"	"chrome"	"111.0.0"	"FALSE"	"Windows 10"	"60.17"	"064"	n/a	n/a	n/a	n/a	n/a	n/a	"fixation"	n/a	n/a	n/a	n/a	"NULL"	n/a	"NULL"	"NULL"	"NULL"	"<p style=\"color: black; font-size: 80px; padding-left: 27%; padding-right: 36%; padding-top: 38%; padding-bottom: 37%\">+</p>"	"1031"	n/a	n/a	n/a	n/a	n/a	n/a	n/a	n/a	n/a
n/a	"image-keyboard-response"	"187"	"347045"	"0.0-6.0-2.0-1.1"	"tgnvl6"	"600"	"1366"	"chrome"	"111.0.0"	"FALSE"	"Windows 10"	"60.17"	"064"	n/a	n/a	n/a	n/a	n/a	n/a	"Trial"	n/a	n/a	n/a	"480"	"arrowdown"	n/a	"NULL"	"NULL"	"NULL"	"stimuli/MullerLyer_-14.12857_-0.23665.png"	n/a	"MullerLyer"	"arrowdown"	"1037"	"TRUE"	"MullerLyer"	"-14.12857000"	"-0.236650000"	"2"	"2"
n/a	"html-keyboard-response"	"188"	"348266"	"0.0-6.0-2.0-0.2"	"tgnvl6"	"600"	"1366"	"chrome"	"111.0.0"	"FALSE"	"Windows 10"	"60.17"	"064"	n/a	n/a	n/a	n/a	n/a	n/a	"fixation"	n/a	n/a	n/a	n/a	"NULL"	n/a	"NULL"	"NULL"	"NULL"	"<p style=\"color: black; font-size: 80px; padding-left: 42%; padding-right: 10%; padding-top: 43%; padding-bottom: 39%\">+</p>"	"1213"	n/a	n/a	n/a	n/a	n/a	n/a	n/a	n/a	n/a
n/a	"image-keyboard-response"	"189"	"348782"	"0.0-6.0-2.0-1.2"	"tgnvl6"	"600"	"1366"	"chrome"	"111.0.0"	"FALSE"	"Windows 10"	"60.17"	"064"	n/a	n/a	n/a	n/a	n/a	n/a	"Trial"	n/a	n/a	n/a	"515"	"arrowup"	n/a	"NULL"	"NULL"	"NULL"	"stimuli/MullerLyer_2.30000_0.14541.png"	n/a	"MullerLyer"	"arrowup"	"1221"	"TRUE"	"MullerLyer"	"2.3000000000"	"0.1454100000"	"2"	"3"
n/a	"html-keyboard-response"	"190"	"349969"	"0.0-6.0-2.0-0.3"	"tgnvl6"	"600"	"1366"	"chrome"	"111.0.0"	"FALSE"	"Windows 10"	"60.17"	"064"	n/a	n/a	n/a	n/a	n/a	n/a	"fixation"	n/a	n/a	n/a	n/a	"NULL"	n/a	"NULL"	"NULL"	"NULL"	"<p style=\"color: black; font-size: 80px; padding-left: 29%; padding-right: 32%; padding-top: 25%; padding-bottom: 41%\">+</p>"	"1181"	n/a	n/a	n/a	n/a	n/a	n/a	n/a	n/a	n/a
n/a	"image-keyboard-response"	"191"	"350473"	"0.0-6.0-2.0-1.3"	"tgnvl6"	"600"	"1366"	"chrome"	"111.0.0"	"FALSE"	"Windows 10"	"60.17"	"064"	n/a	n/a	n/a	n/a	n/a	n/a	"Trial"	n/a	n/a	n/a	"503"	"arrowdown"	n/a	"NULL"	"NULL"	"NULL"	"stimuli/MullerLyer_2.30000_-0.23665.png"	n/a	"MullerLyer"	"arrowdown"	"1187"	"TRUE"	"MullerLyer"	"2.3000000000"	"-0.236650000"	"2"	"4"
n/a	"html-keyboard-response"	"192"	"351877"	"0.0-6.0-2.0-0.4"	"tgnvl6"	"600"	"1366"	"chrome"	"111.0.0"	"FALSE"	"Windows 10"	"60.17"	"064"	n/a	n/a	n/a	n/a	n/a	n/a	"fixation"	n/a	n/a	n/a	n/a	"NULL"	n/a	"NULL"	"NULL"	"NULL"	"<p style=\"color: black; font-size: 80px; padding-left: 25%; padding-right: 2%; padding-top: 17%; padding-bottom: 28%\">+</p>"	"1395"	n/a	n/a	n/a	n/a	n/a	n/a	n/a	n/a	n/a
n/a	"image-keyboard-response"	"193"	"352406"	"0.0-6.0-2.0-1.4"	"tgnvl6"	"600"	"1366"	"chrome"	"111.0.0"	"FALSE"	"Windows 10"	"60.17"	"064"	n/a	n/a	n/a	n/a	n/a	n/a	"Trial"	n/a	n/a	n/a	"528"	"arrowup"	n/a	"NULL"	"NULL"	"NULL"	"stimuli/MullerLyer_20.04286_-0.14541.png"	n/a	"MullerLyer"	"arrowdown"	"1404"	"FALSE"	"MullerLyer"	"20.042860000"	"-0.145410000"	"2"	"5"
n/a	"html-keyboard-response"	"194"	"353679"	"0.0-6.0-2.0-0.5"	"tgnvl6"	"600"	"1366"	"chrome"	"111.0.0"	"FALSE"	"Windows 10"	"60.17"	"064"	n/a	n/a	n/a	n/a	n/a	n/a	"fixation"	n/a	n/a	n/a	n/a	"NULL"	n/a	"NULL"	"NULL"	"NULL"	"<p style=\"color: black; font-size: 80px; padding-left: 43%; padding-right: 6%; padding-top: 31%; padding-bottom: 2%\">+</p>"	"1257"	n/a	n/a	n/a	n/a	n/a	n/a	n/a	n/a	n/a
n/a	"image-keyboard-response"	"195"	"354188"	"0.0-6.0-2.0-1.5"	"tgnvl6"	"600"	"1366"	"chrome"	"111.0.0"	"FALSE"	"Windows 10"	"60.17"	"064"	n/a	n/a	n/a	n/a	n/a	n/a	"Trial"	n/a	n/a	n/a	"508"	"arrowdown"	n/a	"NULL"	"NULL"	"NULL"	"stimuli/MullerLyer_-20.04286_-0.23665.png"	n/a	"MullerLyer"	"arrowdown"	"1273"	"TRUE"	"MullerLyer"	"-20.04286000"	"-0.236650000"	"2"	"6"
n/a	"html-keyboard-response"	"196"	"355252"	"0.0-6.0-2.0-0.6"	"tgnvl6"	"600"	"1366"	"chrome"	"111.0.0"	"FALSE"	"Windows 10"	"60.17"	"064"	n/a	n/a	n/a	n/a	n/a	n/a	"fixation"	n/a	n/a	n/a	n/a	"NULL"	n/a	"NULL"	"NULL"	"NULL"	"<p style=\"color: black; font-size: 80px; padding-left: 46%; padding-right: 11%; padding-top: 31%; padding-bottom: 14%\">+</p>"	"1062"	n/a	n/a	n/a	n/a	n/a	n/a	n/a	n/a	n/a
n/a	"image-keyboard-response"	"197"	"355731"	"0.0-6.0-2.0-1.6"	"tgnvl6"	"600"	"1366"	"chrome"	"111.0.0"	"FALSE"	"Windows 10"	"60.17"	"064"	n/a	n/a	n/a	n/a	n/a	n/a	"Trial"	n/a	n/a	n/a	"478"	"arrowup"	n/a	"NULL"	"NULL"	"NULL"	"stimuli/MullerLyer_2.30000_0.07627.png"	n/a	"MullerLyer"	"arrowup"	"1064"	"TRUE"	"MullerLyer"	"2.3000000000"	"0.0762700000"	"2"	"7"
n/a	"html-keyboard-response"	"198"	"356906"	"0.0-6.0-2.0-0.7"	"tgnvl6"	"600"	"1366"	"chrome"	"111.0.0"	"FALSE"	"Windows 10"	"60.17"	"064"	n/a	n/a	n/a	n/a	n/a	n/a	"fixation"	n/a	n/a	n/a	n/a	"NULL"	n/a	"NULL"	"NULL"	"NULL"	"<p style=\"color: black; font-size: 80px; padding-left: 15%; padding-right: 42%; padding-top: 25%; padding-bottom: 44%\">+</p>"	"1164"	n/a	n/a	n/a	n/a	n/a	n/a	n/a	n/a	n/a
n/a	"image-keyboard-response"	"199"	"357435"	"0.0-6.0-2.0-1.7"	"tgnvl6"	"600"	"1366"	"chrome"	"111.0.0"	"FALSE"	"Windows 10"	"60.17"	"064"	n/a	n/a	n/a	n/a	n/a	n/a	"Trial"	n/a	n/a	n/a	"527"	"arrowdown"	n/a	"NULL"	"NULL"	"NULL"	"stimuli/MullerLyer_-14.12857_-0.3500.png"	n/a	"MullerLyer"	"arrowdown"	"1175"	"TRUE"	"MullerLyer"	"-14.12857000"	"-0.350000000"	"2"	"8"
n/a	"html-keyboard-response"	"200"	"358602"	"0.0-6.0-2.0-0.8"	"tgnvl6"	"600"	"1366"	"chrome"	"111.0.0"	"FALSE"	"Windows 10"	"60.17"	"064"	n/a	n/a	n/a	n/a	n/a	n/a	"fixation"	n/a	n/a	n/a	n/a	"NULL"	n/a	"NULL"	"NULL"	"NULL"	"<p style=\"color: black; font-size: 80px; padding-left: 22%; padding-right: 22%; padding-top: 15%; padding-bottom: 28%\">+</p>"	"1153"	n/a	n/a	n/a	n/a	n/a	n/a	n/a	n/a	n/a
n/a	"image-keyboard-response"	"201"	"359100"	"0.0-6.0-2.0-1.8"	"tgnvl6"	"600"	"1366"	"chrome"	"111.0.0"	"FALSE"	"Windows 10"	"60.17"	"064"	n/a	n/a	n/a	n/a	n/a	n/a	"Trial"	n/a	n/a	n/a	"497"	"arrowup"	n/a	"NULL"	"NULL"	"NULL"	"stimuli/MullerLyer_-8.21429_-0.14541.png"	n/a	"MullerLyer"	"arrowdown"	"1167"	"FALSE"	"MullerLyer"	"-8.214290000"	"-0.145410000"	"2"	"9"
n/a	"html-keyboard-response"	"202"	"360356"	"0.0-6.0-2.0-0.9"	"tgnvl6"	"600"	"1366"	"chrome"	"111.0.0"	"FALSE"	"Windows 10"	"60.17"	"064"	n/a	n/a	n/a	n/a	n/a	n/a	"fixation"	n/a	n/a	n/a	n/a	"NULL"	n/a	"NULL"	"NULL"	"NULL"	"<p style=\"color: black; font-size: 80px; padding-left: 29%; padding-right: 34%; padding-top: 36%; padding-bottom: 18%\">+</p>"	"1252"	n/a	n/a	n/a	n/a	n/a	n/a	n/a	n/a	n/a
n/a	"image-keyboard-response"	"203"	"361394"	"0.0-6.0-2.0-1.9"	"tgnvl6"	"600"	"1366"	"chrome"	"111.0.0"	"FALSE"	"Windows 10"	"60.17"	"064"	n/a	n/a	n/a	n/a	n/a	n/a	"Trial"	n/a	n/a	n/a	"1038"	"arrowup"	n/a	"NULL"	"NULL"	"NULL"	"stimuli/MullerLyer_14.12857_0.14541.png"	n/a	"MullerLyer"	"arrowup"	"1256"	"TRUE"	"MullerLyer"	"14.128570000"	"0.1454100000"	"2"	"10"
n/a	"html-keyboard-response"	"204"	"362842"	"0.0-6.0-2.0-0.10"	"tgnvl6"	"600"	"1366"	"chrome"	"111.0.0"	"FALSE"	"Windows 10"	"60.17"	"064"	n/a	n/a	n/a	n/a	n/a	n/a	"fixation"	n/a	n/a	n/a	n/a	"NULL"	n/a	"NULL"	"NULL"	"NULL"	"<p style=\"color: black; font-size: 80px; padding-left: 4%; padding-right: 26%; padding-top: 42%; padding-bottom: 40%\">+</p>"	"1446"	n/a	n/a	n/a	n/a	n/a	n/a	n/a	n/a	n/a
n/a	"image-keyboard-response"	"205"	"363554"	"0.0-6.0-2.0-1.10"	"tgnvl6"	"600"	"1366"	"chrome"	"111.0.0"	"FALSE"	"Windows 10"	"60.17"	"064"	n/a	n/a	n/a	n/a	n/a	n/a	"Trial"	n/a	n/a	n/a	"712"	"arrowup"	n/a	"NULL"	"NULL"	"NULL"	"stimuli/MullerLyer_14.12857_-0.07627.png"	n/a	"MullerLyer"	"arrowdown"	"1448"	"FALSE"	"MullerLyer"	"14.128570000"	"-0.076270000"	"2"	"11"
n/a	"html-keyboard-response"	"206"	"364666"	"0.0-6.0-2.0-0.11"	"tgnvl6"	"600"	"1366"	"chrome"	"111.0.0"	"FALSE"	"Windows 10"	"60.17"	"064"	n/a	n/a	n/a	n/a	n/a	n/a	"fixation"	n/a	n/a	n/a	n/a	"NULL"	n/a	"NULL"	"NULL"	"NULL"	"<p style=\"color: black; font-size: 80px; padding-left: 19%; padding-right: 22%; padding-top: 11%; padding-bottom: 6%\">+</p>"	"1097"	n/a	n/a	n/a	n/a	n/a	n/a	n/a	n/a	n/a
n/a	"image-keyboard-response"	"207"	"365185"	"0.0-6.0-2.0-1.11"	"tgnvl6"	"600"	"1366"	"chrome"	"111.0.0"	"FALSE"	"Windows 10"	"60.17"	"064"	n/a	n/a	n/a	n/a	n/a	n/a	"Trial"	n/a	n/a	n/a	"518"	"arrowdown"	n/a	"NULL"	"NULL"	"NULL"	"stimuli/MullerLyer_20.04286_0.14541.png"	n/a	"MullerLyer"	"arrowup"	"1112"	"FALSE"	"MullerLyer"	"20.042860000"	"0.1454100000"	"2"	"12"
n/a	"html-keyboard-response"	"208"	"366204"	"0.0-6.0-2.0-0.12"	"tgnvl6"	"600"	"1366"	"chrome"	"111.0.0"	"FALSE"	"Windows 10"	"60.17"	"064"	n/a	n/a	n/a	n/a	n/a	n/a	"fixation"	n/a	n/a	n/a	n/a	"NULL"	n/a	"NULL"	"NULL"	"NULL"	"<p style=\"color: black; font-size: 80px; padding-left: 14%; padding-right: 25%; padding-top: 4%; padding-bottom: 10%\">+</p>"	"1006"	n/a	n/a	n/a	n/a	n/a	n/a	n/a	n/a	n/a
n/a	"image-keyboard-response"	"209"	"366724"	"0.0-6.0-2.0-1.12"	"tgnvl6"	"600"	"1366"	"chrome"	"111.0.0"	"FALSE"	"Windows 10"	"60.17"	"064"	n/a	n/a	n/a	n/a	n/a	n/a	"Trial"	n/a	n/a	n/a	"519"	"arrowup"	n/a	"NULL"	"NULL"	"NULL"	"stimuli/MullerLyer_-20.04286_0.07627.png"	n/a	"MullerLyer"	"arrowup"	"1019"	"TRUE"	"MullerLyer"	"-20.04286000"	"0.0762700000"	"2"	"13"
n/a	"html-keyboard-response"	"210"	"367887"	"0.0-6.0-2.0-0.13"	"tgnvl6"	"600"	"1366"	"chrome"	"111.0.0"	"FALSE"	"Windows 10"	"60.17"	"064"	n/a	n/a	n/a	n/a	n/a	n/a	"fixation"	n/a	n/a	n/a	n/a	"NULL"	n/a	"NULL"	"NULL"	"NULL"	"<p style=\"color: black; font-size: 80px; padding-left: 19%; padding-right: 41%; padding-top: 50%; padding-bottom: 6%\">+</p>"	"1150"	n/a	n/a	n/a	n/a	n/a	n/a	n/a	n/a	n/a
n/a	"image-keyboard-response"	"211"	"368387"	"0.0-6.0-2.0-1.13"	"tgnvl6"	"600"	"1366"	"chrome"	"111.0.0"	"FALSE"	"Windows 10"	"60.17"	"064"	n/a	n/a	n/a	n/a	n/a	n/a	"Trial"	n/a	n/a	n/a	"499"	"arrowup"	n/a	"NULL"	"NULL"	"NULL"	"stimuli/MullerLyer_-2.3000_0.35000.png"	n/a	"MullerLyer"	"arrowup"	"1163"	"TRUE"	"MullerLyer"	"-2.300000000"	"0.3500000000"	"2"	"14"
n/a	"html-keyboard-response"	"212"	"369799"	"0.0-6.0-2.0-0.14"	"tgnvl6"	"600"	"1366"	"chrome"	"111.0.0"	"FALSE"	"Windows 10"	"60.17"	"064"	n/a	n/a	n/a	n/a	n/a	n/a	"fixation"	n/a	n/a	n/a	n/a	"NULL"	n/a	"NULL"	"NULL"	"NULL"	"<p style=\"color: black; font-size: 80px; padding-left: 27%; padding-right: 39%; padding-top: 30%; padding-bottom: 3%\">+</p>"	"1400"	n/a	n/a	n/a	n/a	n/a	n/a	n/a	n/a	n/a
n/a	"image-keyboard-response"	"213"	"370249"	"0.0-6.0-2.0-1.14"	"tgnvl6"	"600"	"1366"	"chrome"	"111.0.0"	"FALSE"	"Windows 10"	"60.17"	"064"	n/a	n/a	n/a	n/a	n/a	n/a	"Trial"	n/a	n/a	n/a	"449"	"arrowup"	n/a	"NULL"	"NULL"	"NULL"	"stimuli/MullerLyer_2.30000_0.23665.png"	n/a	"MullerLyer"	"arrowup"	"1412"	"TRUE"	"MullerLyer"	"2.3000000000"	"0.2366500000"	"2"	"15"
n/a	"html-keyboard-response"	"214"	"371678"	"0.0-6.0-2.0-0.15"	"tgnvl6"	"600"	"1366"	"chrome"	"111.0.0"	"FALSE"	"Windows 10"	"60.17"	"064"	n/a	n/a	n/a	n/a	n/a	n/a	"fixation"	n/a	n/a	n/a	n/a	"NULL"	n/a	"NULL"	"NULL"	"NULL"	"<p style=\"color: black; font-size: 80px; padding-left: 20%; padding-right: 41%; padding-top: 15%; padding-bottom: 41%\">+</p>"	"1416"	n/a	n/a	n/a	n/a	n/a	n/a	n/a	n/a	n/a
n/a	"image-keyboard-response"	"215"	"372264"	"0.0-6.0-2.0-1.15"	"tgnvl6"	"600"	"1366"	"chrome"	"111.0.0"	"FALSE"	"Windows 10"	"60.17"	"064"	n/a	n/a	n/a	n/a	n/a	n/a	"Trial"	n/a	n/a	n/a	"585"	"arrowdown"	n/a	"NULL"	"NULL"	"NULL"	"stimuli/MullerLyer_8.21429_-0.3500.png"	n/a	"MullerLyer"	"arrowdown"	"1429"	"TRUE"	"MullerLyer"	"8.2142900000"	"-0.350000000"	"2"	"16"
n/a	"html-keyboard-response"	"216"	"373424"	"0.0-6.0-2.0-0.16"	"tgnvl6"	"600"	"1366"	"chrome"	"111.0.0"	"FALSE"	"Windows 10"	"60.17"	"064"	n/a	n/a	n/a	n/a	n/a	n/a	"fixation"	n/a	n/a	n/a	n/a	"NULL"	n/a	"NULL"	"NULL"	"NULL"	"<p style=\"color: black; font-size: 80px; padding-left: 4%; padding-right: 32%; padding-top: 15%; padding-bottom: 6%\">+</p>"	"1151"	n/a	n/a	n/a	n/a	n/a	n/a	n/a	n/a	n/a
n/a	"image-keyboard-response"	"217"	"373885"	"0.0-6.0-2.0-1.16"	"tgnvl6"	"600"	"1366"	"chrome"	"111.0.0"	"FALSE"	"Windows 10"	"60.17"	"064"	n/a	n/a	n/a	n/a	n/a	n/a	"Trial"	n/a	n/a	n/a	"459"	"arrowup"	n/a	"NULL"	"NULL"	"NULL"	"stimuli/MullerLyer_20.04286_-0.07627.png"	n/a	"MullerLyer"	"arrowdown"	"1160"	"FALSE"	"MullerLyer"	"20.042860000"	"-0.076270000"	"2"	"17"
n/a	"html-keyboard-response"	"218"	"375251"	"0.0-6.0-2.0-0.17"	"tgnvl6"	"600"	"1366"	"chrome"	"111.0.0"	"FALSE"	"Windows 10"	"60.17"	"064"	n/a	n/a	n/a	n/a	n/a	n/a	"fixation"	n/a	n/a	n/a	n/a	"NULL"	n/a	"NULL"	"NULL"	"NULL"	"<p style=\"color: black; font-size: 80px; padding-left: 33%; padding-right: 3%; padding-top: 40%; padding-bottom: 11%\">+</p>"	"1354"	n/a	n/a	n/a	n/a	n/a	n/a	n/a	n/a	n/a
n/a	"image-keyboard-response"	"219"	"375861"	"0.0-6.0-2.0-1.17"	"tgnvl6"	"600"	"1366"	"chrome"	"111.0.0"	"FALSE"	"Windows 10"	"60.17"	"064"	n/a	n/a	n/a	n/a	n/a	n/a	"Trial"	n/a	n/a	n/a	"610"	"arrowup"	n/a	"NULL"	"NULL"	"NULL"	"stimuli/MullerLyer_-2.3000_0.14541.png"	n/a	"MullerLyer"	"arrowup"	"1366"	"TRUE"	"MullerLyer"	"-2.300000000"	"0.1454100000"	"2"	"18"
n/a	"html-keyboard-response"	"220"	"377361"	"0.0-6.0-2.0-0.18"	"tgnvl6"	"600"	"1366"	"chrome"	"111.0.0"	"FALSE"	"Windows 10"	"60.17"	"064"	n/a	n/a	n/a	n/a	n/a	n/a	"fixation"	n/a	n/a	n/a	n/a	"NULL"	n/a	"NULL"	"NULL"	"NULL"	"<p style=\"color: black; font-size: 80px; padding-left: 44%; padding-right: 12%; padding-top: 28%; padding-bottom: 0%\">+</p>"	"1491"	n/a	n/a	n/a	n/a	n/a	n/a	n/a	n/a	n/a
n/a	"image-keyboard-response"	"221"	"377783"	"0.0-6.0-2.0-1.18"	"tgnvl6"	"600"	"1366"	"chrome"	"111.0.0"	"FALSE"	"Windows 10"	"60.17"	"064"	n/a	n/a	n/a	n/a	n/a	n/a	"Trial"	n/a	n/a	n/a	"422"	"arrowup"	n/a	"NULL"	"NULL"	"NULL"	"stimuli/MullerLyer_-8.21429_0.35000.png"	n/a	"MullerLyer"	"arrowup"	"1500"	"TRUE"	"MullerLyer"	"-8.214290000"	"0.3500000000"	"2"	"19"
n/a	"html-keyboard-response"	"222"	"379005"	"0.0-6.0-2.0-0.19"	"tgnvl6"	"600"	"1366"	"chrome"	"111.0.0"	"FALSE"	"Windows 10"	"60.17"	"064"	n/a	n/a	n/a	n/a	n/a	n/a	"fixation"	n/a	n/a	n/a	n/a	"NULL"	n/a	"NULL"	"NULL"	"NULL"	"<p style=\"color: black; font-size: 80px; padding-left: 32%; padding-right: 31%; padding-top: 17%; padding-bottom: 20%\">+</p>"	"1210"	n/a	n/a	n/a	n/a	n/a	n/a	n/a	n/a	n/a
n/a	"image-keyboard-response"	"223"	"379415"	"0.0-6.0-2.0-1.19"	"tgnvl6"	"600"	"1366"	"chrome"	"111.0.0"	"FALSE"	"Windows 10"	"60.17"	"064"	n/a	n/a	n/a	n/a	n/a	n/a	"Trial"	n/a	n/a	n/a	"409"	"arrowup"	n/a	"NULL"	"NULL"	"NULL"	"stimuli/MullerLyer_-14.12857_0.23665.png"	n/a	"MullerLyer"	"arrowup"	"1222"	"TRUE"	"MullerLyer"	"-14.12857000"	"0.2366500000"	"2"	"20"
n/a	"html-keyboard-response"	"224"	"380642"	"0.0-6.0-2.0-0.20"	"tgnvl6"	"600"	"1366"	"chrome"	"111.0.0"	"FALSE"	"Windows 10"	"60.17"	"064"	n/a	n/a	n/a	n/a	n/a	n/a	"fixation"	n/a	n/a	n/a	n/a	"NULL"	n/a	"NULL"	"NULL"	"NULL"	"<p style=\"color: black; font-size: 80px; padding-left: 21%; padding-right: 16%; padding-top: 22%; padding-bottom: 33%\">+</p>"	"1217"	n/a	n/a	n/a	n/a	n/a	n/a	n/a	n/a	n/a
n/a	"image-keyboard-response"	"225"	"381032"	"0.0-6.0-2.0-1.20"	"tgnvl6"	"600"	"1366"	"chrome"	"111.0.0"	"FALSE"	"Windows 10"	"60.17"	"064"	n/a	n/a	n/a	n/a	n/a	n/a	"Trial"	n/a	n/a	n/a	"390"	"arrowup"	n/a	"NULL"	"NULL"	"NULL"	"stimuli/MullerLyer_-20.04286_0.35000.png"	n/a	"MullerLyer"	"arrowup"	"1227"	"TRUE"	"MullerLyer"	"-20.04286000"	"0.3500000000"	"2"	"21"
n/a	"html-keyboard-response"	"226"	"382137"	"0.0-6.0-2.0-0.21"	"tgnvl6"	"600"	"1366"	"chrome"	"111.0.0"	"FALSE"	"Windows 10"	"60.17"	"064"	n/a	n/a	n/a	n/a	n/a	n/a	"fixation"	n/a	n/a	n/a	n/a	"NULL"	n/a	"NULL"	"NULL"	"NULL"	"<p style=\"color: black; font-size: 80px; padding-left: 9%; padding-right: 18%; padding-top: 35%; padding-bottom: 37%\">+</p>"	"1102"	n/a	n/a	n/a	n/a	n/a	n/a	n/a	n/a	n/a
n/a	"image-keyboard-response"	"227"	"382504"	"0.0-6.0-2.0-1.21"	"tgnvl6"	"600"	"1366"	"chrome"	"111.0.0"	"FALSE"	"Windows 10"	"60.17"	"064"	n/a	n/a	n/a	n/a	n/a	n/a	"Trial"	n/a	n/a	n/a	"365"	"arrowup"	n/a	"NULL"	"NULL"	"NULL"	"stimuli/MullerLyer_20.04286_-0.3500.png"	n/a	"MullerLyer"	"arrowdown"	"1105"	"FALSE"	"MullerLyer"	"20.042860000"	"-0.350000000"	"2"	"22"
n/a	"html-keyboard-response"	"228"	"383627"	"0.0-6.0-2.0-0.22"	"tgnvl6"	"600"	"1366"	"chrome"	"111.0.0"	"FALSE"	"Windows 10"	"60.17"	"064"	n/a	n/a	n/a	n/a	n/a	n/a	"fixation"	n/a	n/a	n/a	n/a	"NULL"	n/a	"NULL"	"NULL"	"NULL"	"<p style=\"color: black; font-size: 80px; padding-left: 1%; padding-right: 2%; padding-top: 40%; padding-bottom: 34%\">+</p>"	"1109"	n/a	n/a	n/a	n/a	n/a	n/a	n/a	n/a	n/a
n/a	"image-keyboard-response"	"229"	"384780"	"0.0-6.0-2.0-1.22"	"tgnvl6"	"600"	"1366"	"chrome"	"111.0.0"	"FALSE"	"Windows 10"	"60.17"	"064"	n/a	n/a	n/a	n/a	n/a	n/a	"Trial"	n/a	n/a	n/a	"1152"	"arrowdown"	n/a	"NULL"	"NULL"	"NULL"	"stimuli/MullerLyer_14.12857_-0.23665.png"	n/a	"MullerLyer"	"arrowdown"	"1123"	"TRUE"	"MullerLyer"	"14.128570000"	"-0.236650000"	"2"	"23"
n/a	"html-keyboard-response"	"230"	"386250"	"0.0-6.0-2.0-0.23"	"tgnvl6"	"600"	"1366"	"chrome"	"111.0.0"	"FALSE"	"Windows 10"	"60.17"	"064"	n/a	n/a	n/a	n/a	n/a	n/a	"fixation"	n/a	n/a	n/a	n/a	"NULL"	n/a	"NULL"	"NULL"	"NULL"	"<p style=\"color: black; font-size: 80px; padding-left: 9%; padding-right: 36%; padding-top: 40%; padding-bottom: 42%\">+</p>"	"1467"	n/a	n/a	n/a	n/a	n/a	n/a	n/a	n/a	n/a
n/a	"image-keyboard-response"	"231"	"387049"	"0.0-6.0-2.0-1.23"	"tgnvl6"	"600"	"1366"	"chrome"	"111.0.0"	"FALSE"	"Windows 10"	"60.17"	"064"	n/a	n/a	n/a	n/a	n/a	n/a	"Trial"	n/a	n/a	n/a	"799"	"arrowup"	n/a	"NULL"	"NULL"	"NULL"	"stimuli/MullerLyer_8.21429_-0.23665.png"	n/a	"MullerLyer"	"arrowdown"	"1470"	"FALSE"	"MullerLyer"	"8.2142900000"	"-0.236650000"	"2"	"24"
n/a	"html-keyboard-response"	"232"	"388447"	"0.0-6.0-2.0-0.24"	"tgnvl6"	"600"	"1366"	"chrome"	"111.0.0"	"FALSE"	"Windows 10"	"60.17"	"064"	n/a	n/a	n/a	n/a	n/a	n/a	"fixation"	n/a	n/a	n/a	n/a	"NULL"	n/a	"NULL"	"NULL"	"NULL"	"<p style=\"color: black; font-size: 80px; padding-left: 18%; padding-right: 32%; padding-top: 14%; padding-bottom: 16%\">+</p>"	"1388"	n/a	n/a	n/a	n/a	n/a	n/a	n/a	n/a	n/a
n/a	"image-keyboard-response"	"233"	"388951"	"0.0-6.0-2.0-1.24"	"tgnvl6"	"600"	"1366"	"chrome"	"111.0.0"	"FALSE"	"Windows 10"	"60.17"	"064"	n/a	n/a	n/a	n/a	n/a	n/a	"Trial"	n/a	n/a	n/a	"503"	"arrowup"	n/a	"NULL"	"NULL"	"NULL"	"stimuli/MullerLyer_14.12857_0.35000.png"	n/a	"MullerLyer"	"arrowup"	"1398"	"TRUE"	"MullerLyer"	"14.128570000"	"0.3500000000"	"2"	"25"
n/a	"html-keyboard-response"	"234"	"390093"	"0.0-6.0-2.0-0.25"	"tgnvl6"	"600"	"1366"	"chrome"	"111.0.0"	"FALSE"	"Windows 10"	"60.17"	"064"	n/a	n/a	n/a	n/a	n/a	n/a	"fixation"	n/a	n/a	n/a	n/a	"NULL"	n/a	"NULL"	"NULL"	"NULL"	"<p style=\"color: black; font-size: 80px; padding-left: 47%; padding-right: 10%; padding-top: 7%; padding-bottom: 41%\">+</p>"	"1129"	n/a	n/a	n/a	n/a	n/a	n/a	n/a	n/a	n/a
n/a	"image-keyboard-response"	"235"	"390873"	"0.0-6.0-2.0-1.25"	"tgnvl6"	"600"	"1366"	"chrome"	"111.0.0"	"FALSE"	"Windows 10"	"60.17"	"064"	n/a	n/a	n/a	n/a	n/a	n/a	"Trial"	n/a	n/a	n/a	"779"	"arrowup"	n/a	"NULL"	"NULL"	"NULL"	"stimuli/MullerLyer_8.21429_0.35000.png"	n/a	"MullerLyer"	"arrowup"	"1142"	"TRUE"	"MullerLyer"	"8.2142900000"	"0.3500000000"	"2"	"26"
n/a	"html-keyboard-response"	"236"	"392077"	"0.0-6.0-2.0-0.26"	"tgnvl6"	"600"	"1366"	"chrome"	"111.0.0"	"FALSE"	"Windows 10"	"60.17"	"064"	n/a	n/a	n/a	n/a	n/a	n/a	"fixation"	n/a	n/a	n/a	n/a	"NULL"	n/a	"NULL"	"NULL"	"NULL"	"<p style=\"color: black; font-size: 80px; padding-left: 30%; padding-right: 19%; padding-top: 44%; padding-bottom: 3%\">+</p>"	"1190"	n/a	n/a	n/a	n/a	n/a	n/a	n/a	n/a	n/a
n/a	"image-keyboard-response"	"237"	"392712"	"0.0-6.0-2.0-1.26"	"tgnvl6"	"600"	"1366"	"chrome"	"111.0.0"	"FALSE"	"Windows 10"	"60.17"	"064"	n/a	n/a	n/a	n/a	n/a	n/a	"Trial"	n/a	n/a	n/a	"634"	"arrowup"	n/a	"NULL"	"NULL"	"NULL"	"stimuli/MullerLyer_-2.3000_0.23665.png"	n/a	"MullerLyer"	"arrowup"	"1204"	"TRUE"	"MullerLyer"	"-2.300000000"	"0.2366500000"	"2"	"27"
n/a	"html-keyboard-response"	"238"	"393863"	"0.0-6.0-2.0-0.27"	"tgnvl6"	"600"	"1366"	"chrome"	"111.0.0"	"FALSE"	"Windows 10"	"60.17"	"064"	n/a	n/a	n/a	n/a	n/a	n/a	"fixation"	n/a	n/a	n/a	n/a	"NULL"	n/a	"NULL"	"NULL"	"NULL"	"<p style=\"color: black; font-size: 80px; padding-left: 22%; padding-right: 36%; padding-top: 24%; padding-bottom: 17%\">+</p>"	"1147"	n/a	n/a	n/a	n/a	n/a	n/a	n/a	n/a	n/a
n/a	"image-keyboard-response"	"239"	"394298"	"0.0-6.0-2.0-1.27"	"tgnvl6"	"600"	"1366"	"chrome"	"111.0.0"	"FALSE"	"Windows 10"	"60.17"	"064"	n/a	n/a	n/a	n/a	n/a	n/a	"Trial"	n/a	n/a	n/a	"434"	"arrowup"	n/a	"NULL"	"NULL"	"NULL"	"stimuli/MullerLyer_-2.3000_0.07627.png"	n/a	"MullerLyer"	"arrowup"	"1151"	"TRUE"	"MullerLyer"	"-2.300000000"	"0.0762700000"	"2"	"28"
n/a	"html-keyboard-response"	"240"	"395424"	"0.0-6.0-2.0-0.28"	"tgnvl6"	"600"	"1366"	"chrome"	"111.0.0"	"FALSE"	"Windows 10"	"60.17"	"064"	n/a	n/a	n/a	n/a	n/a	n/a	"fixation"	n/a	n/a	n/a	n/a	"NULL"	n/a	"NULL"	"NULL"	"NULL"	"<p style=\"color: black; font-size: 80px; padding-left: 5%; padding-right: 11%; padding-top: 8%; padding-bottom: 21%\">+</p>"	"1122"	n/a	n/a	n/a	n/a	n/a	n/a	n/a	n/a	n/a
n/a	"image-keyboard-response"	"241"	"395966"	"0.0-6.0-2.0-1.28"	"tgnvl6"	"600"	"1366"	"chrome"	"111.0.0"	"FALSE"	"Windows 10"	"60.17"	"064"	n/a	n/a	n/a	n/a	n/a	n/a	"Trial"	n/a	n/a	n/a	"542"	"arrowdown"	n/a	"NULL"	"NULL"	"NULL"	"stimuli/MullerLyer_2.30000_-0.14541.png"	n/a	"MullerLyer"	"arrowdown"	"1126"	"TRUE"	"MullerLyer"	"2.3000000000"	"-0.145410000"	"2"	"29"
n/a	"html-keyboard-response"	"242"	"396986"	"0.0-6.0-2.0-0.29"	"tgnvl6"	"600"	"1366"	"chrome"	"111.0.0"	"FALSE"	"Windows 10"	"60.17"	"064"	n/a	n/a	n/a	n/a	n/a	n/a	"fixation"	n/a	n/a	n/a	n/a	"NULL"	n/a	"NULL"	"NULL"	"NULL"	"<p style=\"color: black; font-size: 80px; padding-left: 8%; padding-right: 27%; padding-top: 1%; padding-bottom: 32%\">+</p>"	"1016"	n/a	n/a	n/a	n/a	n/a	n/a	n/a	n/a	n/a
n/a	"image-keyboard-response"	"243"	"397435"	"0.0-6.0-2.0-1.29"	"tgnvl6"	"600"	"1366"	"chrome"	"111.0.0"	"FALSE"	"Windows 10"	"60.17"	"064"	n/a	n/a	n/a	n/a	n/a	n/a	"Trial"	n/a	n/a	n/a	"448"	"arrowup"	n/a	"NULL"	"NULL"	"NULL"	"stimuli/MullerLyer_-14.12857_0.35000.png"	n/a	"MullerLyer"	"arrowup"	"1020"	"TRUE"	"MullerLyer"	"-14.12857000"	"0.3500000000"	"2"	"30"
n/a	"html-keyboard-response"	"244"	"398518"	"0.0-6.0-2.0-0.30"	"tgnvl6"	"600"	"1366"	"chrome"	"111.0.0"	"FALSE"	"Windows 10"	"60.17"	"064"	n/a	n/a	n/a	n/a	n/a	n/a	"fixation"	n/a	n/a	n/a	n/a	"NULL"	n/a	"NULL"	"NULL"	"NULL"	"<p style=\"color: black; font-size: 80px; padding-left: 2%; padding-right: 44%; padding-top: 26%; padding-bottom: 28%\">+</p>"	"1081"	n/a	n/a	n/a	n/a	n/a	n/a	n/a	n/a	n/a
n/a	"image-keyboard-response"	"245"	"399075"	"0.0-6.0-2.0-1.30"	"tgnvl6"	"600"	"1366"	"chrome"	"111.0.0"	"FALSE"	"Windows 10"	"60.17"	"064"	n/a	n/a	n/a	n/a	n/a	n/a	"Trial"	n/a	n/a	n/a	"556"	"arrowdown"	n/a	"NULL"	"NULL"	"NULL"	"stimuli/MullerLyer_-20.04286_-0.07627.png"	n/a	"MullerLyer"	"arrowdown"	"1083"	"TRUE"	"MullerLyer"	"-20.04286000"	"-0.076270000"	"2"	"31"
n/a	"html-keyboard-response"	"246"	"400420"	"0.0-6.0-2.0-0.31"	"tgnvl6"	"600"	"1366"	"chrome"	"111.0.0"	"FALSE"	"Windows 10"	"60.17"	"064"	n/a	n/a	n/a	n/a	n/a	n/a	"fixation"	n/a	n/a	n/a	n/a	"NULL"	n/a	"NULL"	"NULL"	"NULL"	"<p style=\"color: black; font-size: 80px; padding-left: 40%; padding-right: 36%; padding-top: 34%; padding-bottom: 14%\">+</p>"	"1334"	n/a	n/a	n/a	n/a	n/a	n/a	n/a	n/a	n/a
n/a	"image-keyboard-response"	"247"	"401139"	"0.0-6.0-2.0-1.31"	"tgnvl6"	"600"	"1366"	"chrome"	"111.0.0"	"FALSE"	"Windows 10"	"60.17"	"064"	n/a	n/a	n/a	n/a	n/a	n/a	"Trial"	n/a	n/a	n/a	"718"	"arrowdown"	n/a	"NULL"	"NULL"	"NULL"	"stimuli/MullerLyer_-2.3000_-0.23665.png"	n/a	"MullerLyer"	"arrowdown"	"1345"	"TRUE"	"MullerLyer"	"-2.300000000"	"-0.236650000"	"2"	"32"
n/a	"html-keyboard-response"	"248"	"402159"	"0.0-6.0-2.0-0.32"	"tgnvl6"	"600"	"1366"	"chrome"	"111.0.0"	"FALSE"	"Windows 10"	"60.17"	"064"	n/a	n/a	n/a	n/a	n/a	n/a	"fixation"	n/a	n/a	n/a	n/a	"NULL"	n/a	"NULL"	"NULL"	"NULL"	"<p style=\"color: black; font-size: 80px; padding-left: 49%; padding-right: 24%; padding-top: 36%; padding-bottom: 44%\">+</p>"	"1019"	n/a	n/a	n/a	n/a	n/a	n/a	n/a	n/a	n/a
n/a	"image-keyboard-response"	"249"	"402695"	"0.0-6.0-2.0-1.32"	"tgnvl6"	"600"	"1366"	"chrome"	"111.0.0"	"FALSE"	"Windows 10"	"60.17"	"064"	n/a	n/a	n/a	n/a	n/a	n/a	"Trial"	n/a	n/a	n/a	"535"	"arrowup"	n/a	"NULL"	"NULL"	"NULL"	"stimuli/MullerLyer_20.04286_0.35000.png"	n/a	"MullerLyer"	"arrowup"	"1020"	"TRUE"	"MullerLyer"	"20.042860000"	"0.3500000000"	"2"	"33"
