"success"	"trial_type"	"trial_index"	"time_elapsed"	"internal_node_id"	"participant_id"	"screen_height"	"screen_width"	"browser"	"browser_version"	"mobile"	"os"	"vsync_rate"	"subject_id"	"width"	"height"	"webaudio"	"fullscreen"	"webcam"	"microphone"	"screen"	"version"	"date"	"time"	"rt"	"response"	"timeout"	"failed_images"	"failed_audio"	"failed_video"	"stimulus"	"trial_duration"	"block"	"correct_response"	"prestimulus_duration"	"correct"	"type"	"illusion_strength"	"illusion_difference"	"block_number"	"trial_number"
"TRUE"	"fullscreen"	"0"	"1396"	"0.0-0.0"	"qa7gxh"	"600"	"1366"	"chrome"	"109.0.0"	"FALSE"	"Windows 10"	"60.37"	"025"	n/a	n/a	n/a	n/a	n/a	n/a	n/a	n/a	n/a	n/a	n/a	"NULL"	n/a	"NULL"	"NULL"	"NULL"	n/a	n/a	n/a	n/a	n/a	n/a	n/a	n/a	n/a	n/a	n/a
n/a	"browser-check"	"1"	"2406"	"0.0-1.0"	"qa7gxh"	"600"	"1366"	"chrome"	"109.0.0"	"FALSE"	"Windows 10"	"60.37"	"025"	"1366"	"600"	"TRUE"	"TRUE"	"TRUE"	"TRUE"	"browser_info"	"1.0"	"24/02/2023"	"14:18:55"	n/a	"NULL"	n/a	"NULL"	"NULL"	"NULL"	n/a	n/a	n/a	n/a	n/a	n/a	n/a	n/a	n/a	n/a	n/a
n/a	"survey-text"	"2"	"5547"	"0.0-2.0"	"qa7gxh"	"600"	"1366"	"chrome"	"109.0.0"	"FALSE"	"Windows 10"	"60.37"	"025"	n/a	n/a	n/a	n/a	n/a	n/a	"subject_id"	n/a	n/a	n/a	"3136"	"list(subject_id = \"025\")"	n/a	"NULL"	"NULL"	"NULL"	n/a	n/a	n/a	n/a	n/a	n/a	n/a	n/a	n/a	n/a	n/a
"TRUE"	"preload"	"3"	"5560"	"0.0-3.0"	"qa7gxh"	"600"	"1366"	"chrome"	"109.0.0"	"FALSE"	"Windows 10"	"60.37"	"025"	n/a	n/a	n/a	n/a	n/a	n/a	n/a	n/a	n/a	n/a	n/a	"NULL"	"FALSE"	"list()"	"list()"	"list()"	n/a	n/a	n/a	n/a	n/a	n/a	n/a	n/a	n/a	n/a	n/a
n/a	"html-button-response"	"4"	"47494"	"0.0-4.0-0.0"	"qa7gxh"	"600"	"1366"	"chrome"	"109.0.0"	"FALSE"	"Windows 10"	"60.37"	"025"	n/a	n/a	n/a	n/a	n/a	n/a	"illusion_instructions"	n/a	n/a	n/a	"41933"	"0"	n/a	"NULL"	"NULL"	"NULL"	"<p><b>Illusion Game</b></p><p>In this game of speed and reflex, you will need to make <b>visual judgments</b> (for instance, which circle is the biggest, or which line is the longest), as fast and as correctly as possible, while <b>resisting different visual illusions</b>.</p><p>We are going to start with some examples of all the illusions you will encounter in the game.</p>"	n/a	n/a	n/a	n/a	n/a	n/a	n/a	n/a	n/a	n/a
"TRUE"	"preload"	"5"	"47516"	"0.0-4.0-1.0-0.0"	"qa7gxh"	"600"	"1366"	"chrome"	"109.0.0"	"FALSE"	"Windows 10"	"60.37"	"025"	n/a	n/a	n/a	n/a	n/a	n/a	n/a	n/a	n/a	n/a	n/a	"NULL"	"FALSE"	"list()"	"list()"	"list()"	n/a	n/a	n/a	n/a	n/a	n/a	n/a	n/a	n/a	n/a	n/a
n/a	"html-keyboard-response"	"6"	"76371"	"0.0-4.0-1.0-1.0"	"qa7gxh"	"600"	"1366"	"chrome"	"109.0.0"	"FALSE"	"Windows 10"	"60.37"	"025"	n/a	n/a	n/a	n/a	n/a	n/a	n/a	n/a	n/a	n/a	"28847"	"enter"	n/a	"NULL"	"NULL"	"NULL"	"<p><b>Practice</b></p><p>In this part, two red circles will appear side by side on the screen.</p><p>Your task is to select which <b>red circle is bigger</b> in size as fast as you can, without making errors.</p><p>Don't get distracted by the surrounding black circles around the red circles!</p><p>Press <b>the LEFT or the RIGHT arrow</b> to indicate which is the bigger <b>red circle.</b></p><div style='float: center'><img src='materials/instructions/Ebbinghaus_Demo.png' height='300'></img><p><img src='utils/answer/answer_leftright_keyboard.PNG' height='150'></img></p><p class='small'>In this example, the correct answer is the <b>LEFT arrow</b>.</p></div><p>Are you ready? <b>Press ENTER to start</b></p>"	n/a	n/a	n/a	n/a	n/a	n/a	n/a	n/a	n/a	n/a
n/a	"html-keyboard-response"	"7"	"78041"	"0.0-4.0-1.0-2.0-0.0"	"qa7gxh"	"600"	"1366"	"chrome"	"109.0.0"	"FALSE"	"Windows 10"	"60.37"	"025"	n/a	n/a	n/a	n/a	n/a	n/a	"fixation"	n/a	n/a	n/a	n/a	"NULL"	n/a	"NULL"	"NULL"	"NULL"	"<p style=\"color: black; font-size: 80px; padding-left: 25%; padding-right: 14%; padding-top: 21%; padding-bottom: 2%\">+</p>"	"1143"	n/a	n/a	n/a	n/a	n/a	n/a	n/a	n/a	n/a
n/a	"image-keyboard-response"	"8"	"79441"	"0.0-4.0-1.0-2.0-1.0"	"qa7gxh"	"600"	"1366"	"chrome"	"109.0.0"	"FALSE"	"Windows 10"	"60.37"	"025"	n/a	n/a	n/a	n/a	n/a	n/a	"Trial"	n/a	n/a	n/a	"1398"	"arrowright"	n/a	"NULL"	"NULL"	"NULL"	"stimuli/Ebbinghaus_0000000_-1.4000.png"	n/a	"Ebbinghaus"	"arrowright"	"1670"	"TRUE"	"Ebbinghaus"	"000000000000"	"-1.400000000"	"1"	"1"
n/a	"html-keyboard-response"	"9"	"80917"	"0.0-4.0-1.0-2.0-0.1"	"qa7gxh"	"600"	"1366"	"chrome"	"109.0.0"	"FALSE"	"Windows 10"	"60.37"	"025"	n/a	n/a	n/a	n/a	n/a	n/a	"fixation"	n/a	n/a	n/a	n/a	"NULL"	n/a	"NULL"	"NULL"	"NULL"	"<p style=\"color: black; font-size: 80px; padding-left: 9%; padding-right: 32%; padding-top: 3%; padding-bottom: 11%\">+</p>"	"1460"	n/a	n/a	n/a	n/a	n/a	n/a	n/a	n/a	n/a
n/a	"image-keyboard-response"	"10"	"82613"	"0.0-4.0-1.0-2.0-1.1"	"qa7gxh"	"600"	"1366"	"chrome"	"109.0.0"	"FALSE"	"Windows 10"	"60.37"	"025"	n/a	n/a	n/a	n/a	n/a	n/a	"Trial"	n/a	n/a	n/a	"1696"	"arrowleft"	n/a	"NULL"	"NULL"	"NULL"	"stimuli/Ebbinghaus_1000000_1.40000.png"	n/a	"Ebbinghaus"	"arrowleft"	"1476"	"TRUE"	"Ebbinghaus"	"100000000000"	"1.4000000000"	"1"	"2"
n/a	"html-keyboard-response"	"11"	"84067"	"0.0-4.0-1.0-2.0-0.2"	"qa7gxh"	"600"	"1366"	"chrome"	"109.0.0"	"FALSE"	"Windows 10"	"60.37"	"025"	n/a	n/a	n/a	n/a	n/a	n/a	"fixation"	n/a	n/a	n/a	n/a	"NULL"	n/a	"NULL"	"NULL"	"NULL"	"<p style=\"color: black; font-size: 80px; padding-left: 7%; padding-right: 26%; padding-top: 25%; padding-bottom: 50%\">+</p>"	"1450"	n/a	n/a	n/a	n/a	n/a	n/a	n/a	n/a	n/a
n/a	"image-keyboard-response"	"12"	"85384"	"0.0-4.0-1.0-2.0-1.2"	"qa7gxh"	"600"	"1366"	"chrome"	"109.0.0"	"FALSE"	"Windows 10"	"60.37"	"025"	n/a	n/a	n/a	n/a	n/a	n/a	"Trial"	n/a	n/a	n/a	"1317"	"arrowright"	n/a	"NULL"	"NULL"	"NULL"	"stimuli/Ebbinghaus_1000000_-1.4000.png"	n/a	"Ebbinghaus"	"arrowright"	"1454"	"TRUE"	"Ebbinghaus"	"100000000000"	"-1.400000000"	"1"	"3"
n/a	"html-keyboard-response"	"13"	"86786"	"0.0-4.0-1.0-2.0-0.3"	"qa7gxh"	"600"	"1366"	"chrome"	"109.0.0"	"FALSE"	"Windows 10"	"60.37"	"025"	n/a	n/a	n/a	n/a	n/a	n/a	"fixation"	n/a	n/a	n/a	n/a	"NULL"	n/a	"NULL"	"NULL"	"NULL"	"<p style=\"color: black; font-size: 80px; padding-left: 19%; padding-right: 49%; padding-top: 15%; padding-bottom: 5%\">+</p>"	"1388"	n/a	n/a	n/a	n/a	n/a	n/a	n/a	n/a	n/a
n/a	"image-keyboard-response"	"14"	"87716"	"0.0-4.0-1.0-2.0-1.3"	"qa7gxh"	"600"	"1366"	"chrome"	"109.0.0"	"FALSE"	"Windows 10"	"60.37"	"025"	n/a	n/a	n/a	n/a	n/a	n/a	"Trial"	n/a	n/a	n/a	"929"	"arrowleft"	n/a	"NULL"	"NULL"	"NULL"	"stimuli/Ebbinghaus_-100000_1.40000.png"	n/a	"Ebbinghaus"	"arrowleft"	"1402"	"TRUE"	"Ebbinghaus"	"-10000000000"	"1.4000000000"	"1"	"4"
n/a	"html-keyboard-response"	"15"	"88839"	"0.0-4.0-1.0-2.0-0.4"	"qa7gxh"	"600"	"1366"	"chrome"	"109.0.0"	"FALSE"	"Windows 10"	"60.37"	"025"	n/a	n/a	n/a	n/a	n/a	n/a	"fixation"	n/a	n/a	n/a	n/a	"NULL"	n/a	"NULL"	"NULL"	"NULL"	"<p style=\"color: black; font-size: 80px; padding-left: 41%; padding-right: 23%; padding-top: 46%; padding-bottom: 29%\">+</p>"	"1115"	n/a	n/a	n/a	n/a	n/a	n/a	n/a	n/a	n/a
n/a	"image-keyboard-response"	"16"	"89781"	"0.0-4.0-1.0-2.0-1.4"	"qa7gxh"	"600"	"1366"	"chrome"	"109.0.0"	"FALSE"	"Windows 10"	"60.37"	"025"	n/a	n/a	n/a	n/a	n/a	n/a	"Trial"	n/a	n/a	n/a	"941"	"arrowleft"	n/a	"NULL"	"NULL"	"NULL"	"stimuli/Ebbinghaus_0000000_1.40000.png"	n/a	"Ebbinghaus"	"arrowleft"	"1123"	"TRUE"	"Ebbinghaus"	"000000000000"	"1.4000000000"	"1"	"5"
n/a	"html-keyboard-response"	"17"	"90876"	"0.0-4.0-1.0-2.0-0.5"	"qa7gxh"	"600"	"1366"	"chrome"	"109.0.0"	"FALSE"	"Windows 10"	"60.37"	"025"	n/a	n/a	n/a	n/a	n/a	n/a	"fixation"	n/a	n/a	n/a	n/a	"NULL"	n/a	"NULL"	"NULL"	"NULL"	"<p style=\"color: black; font-size: 80px; padding-left: 35%; padding-right: 9%; padding-top: 17%; padding-bottom: 24%\">+</p>"	"1084"	n/a	n/a	n/a	n/a	n/a	n/a	n/a	n/a	n/a
n/a	"image-keyboard-response"	"18"	"91682"	"0.0-4.0-1.0-2.0-1.5"	"qa7gxh"	"600"	"1366"	"chrome"	"109.0.0"	"FALSE"	"Windows 10"	"60.37"	"025"	n/a	n/a	n/a	n/a	n/a	n/a	"Trial"	n/a	n/a	n/a	"805"	"arrowright"	n/a	"NULL"	"NULL"	"NULL"	"stimuli/Ebbinghaus_-100000_-1.4000.png"	n/a	"Ebbinghaus"	"arrowright"	"1095"	"TRUE"	"Ebbinghaus"	"-10000000000"	"-1.400000000"	"1"	"6"
n/a	"html-button-response"	"19"	"97302"	"0.0-4.0-1.0-3.0"	"qa7gxh"	"600"	"1366"	"chrome"	"109.0.0"	"FALSE"	"Windows 10"	"60.37"	"025"	n/a	n/a	n/a	n/a	n/a	n/a	"practice_block_results"	n/a	n/a	n/a	"5619"	"0"	n/a	"NULL"	"NULL"	"NULL"	"<p style='color:rgb(76,175,80);'> Correct Responses: <b>100.00%</b></p><hr><p style='color:rgb(233,30,99);'> Average Response Time: <b>1181.00</b> ms.</p>"	n/a	n/a	n/a	n/a	n/a	n/a	n/a	n/a	n/a	n/a
"TRUE"	"preload"	"20"	"97840"	"0.0-4.0-2.0-0.0"	"qa7gxh"	"600"	"1366"	"chrome"	"109.0.0"	"FALSE"	"Windows 10"	"60.37"	"025"	n/a	n/a	n/a	n/a	n/a	n/a	n/a	n/a	n/a	n/a	n/a	"NULL"	"FALSE"	"list()"	"list()"	"list()"	n/a	n/a	n/a	n/a	n/a	n/a	n/a	n/a	n/a	n/a	n/a
n/a	"html-keyboard-response"	"21"	"112088"	"0.0-4.0-2.0-1.0"	"qa7gxh"	"600"	"1366"	"chrome"	"109.0.0"	"FALSE"	"Windows 10"	"60.37"	"025"	n/a	n/a	n/a	n/a	n/a	n/a	n/a	n/a	n/a	n/a	"14248"	"enter"	n/a	"NULL"	"NULL"	"NULL"	"<p><b>Practice</b></p><p>In this part, two horizontal red lines will appear one above the other.</p><p>Your task is to select which <b>line is longer</b> in length as fast as you can, without making errors.</p><p>Don't get distracted by the surrounding black arrows at the end of the red lines!</p><p>Press <b>the UP or the DOWN arrow</b> to indicate where is the longer <b>red line.</b></p><div style='float: center'><img src='materials/instructions/MullerLyer_Demo.png' height='300'></img><p><img src='utils/answer/answer_updown_keyboard.PNG' height='150'></img></p><p class='small'>In this example, the correct answer is the <b>UP arrow</b>.</p></div><p>Are you ready? <b>Press ENTER to start</b></p>"	n/a	n/a	n/a	n/a	n/a	n/a	n/a	n/a	n/a	n/a
n/a	"html-keyboard-response"	"22"	"113707"	"0.0-4.0-2.0-2.0-0.0"	"qa7gxh"	"600"	"1366"	"chrome"	"109.0.0"	"FALSE"	"Windows 10"	"60.37"	"025"	n/a	n/a	n/a	n/a	n/a	n/a	"fixation"	n/a	n/a	n/a	n/a	"NULL"	n/a	"NULL"	"NULL"	"NULL"	"<p style=\"color: black; font-size: 80px; padding-left: 42%; padding-right: 3%; padding-top: 29%; padding-bottom: 13%\">+</p>"	"1096"	n/a	n/a	n/a	n/a	n/a	n/a	n/a	n/a	n/a
n/a	"image-keyboard-response"	"23"	"114606"	"0.0-4.0-2.0-2.0-1.0"	"qa7gxh"	"600"	"1366"	"chrome"	"109.0.0"	"FALSE"	"Windows 10"	"60.37"	"025"	n/a	n/a	n/a	n/a	n/a	n/a	"Trial"	n/a	n/a	n/a	"899"	"arrowup"	n/a	"NULL"	"NULL"	"NULL"	"stimuli/MullerLyer_0000000_0.70000.png"	n/a	"MullerLyer"	"arrowup"	"1619"	"TRUE"	"MullerLyer"	"000000000000"	"0.7000000000"	"1"	"7"
n/a	"html-keyboard-response"	"24"	"116082"	"0.0-4.0-2.0-2.0-0.1"	"qa7gxh"	"600"	"1366"	"chrome"	"109.0.0"	"FALSE"	"Windows 10"	"60.37"	"025"	n/a	n/a	n/a	n/a	n/a	n/a	"fixation"	n/a	n/a	n/a	n/a	"NULL"	n/a	"NULL"	"NULL"	"NULL"	"<p style=\"color: black; font-size: 80px; padding-left: 22%; padding-right: 19%; padding-top: 36%; padding-bottom: 13%\">+</p>"	"1465"	n/a	n/a	n/a	n/a	n/a	n/a	n/a	n/a	n/a
n/a	"image-keyboard-response"	"25"	"117528"	"0.0-4.0-2.0-2.0-1.1"	"qa7gxh"	"600"	"1366"	"chrome"	"109.0.0"	"FALSE"	"Windows 10"	"60.37"	"025"	n/a	n/a	n/a	n/a	n/a	n/a	"Trial"	n/a	n/a	n/a	"1445"	"arrowup"	n/a	"NULL"	"NULL"	"NULL"	"stimuli/MullerLyer_2300000_0.70000.png"	n/a	"MullerLyer"	"arrowup"	"1476"	"TRUE"	"MullerLyer"	"230000000000"	"0.7000000000"	"1"	"8"
n/a	"html-keyboard-response"	"26"	"118627"	"0.0-4.0-2.0-2.0-0.2"	"qa7gxh"	"600"	"1366"	"chrome"	"109.0.0"	"FALSE"	"Windows 10"	"60.37"	"025"	n/a	n/a	n/a	n/a	n/a	n/a	"fixation"	n/a	n/a	n/a	n/a	"NULL"	n/a	"NULL"	"NULL"	"NULL"	"<p style=\"color: black; font-size: 80px; padding-left: 16%; padding-right: 32%; padding-top: 39%; padding-bottom: 20%\">+</p>"	"1089"	n/a	n/a	n/a	n/a	n/a	n/a	n/a	n/a	n/a
n/a	"image-keyboard-response"	"27"	"119724"	"0.0-4.0-2.0-2.0-1.2"	"qa7gxh"	"600"	"1366"	"chrome"	"109.0.0"	"FALSE"	"Windows 10"	"60.37"	"025"	n/a	n/a	n/a	n/a	n/a	n/a	"Trial"	n/a	n/a	n/a	"1096"	"arrowdown"	n/a	"NULL"	"NULL"	"NULL"	"stimuli/MullerLyer_2300000_-0.7000.png"	n/a	"MullerLyer"	"arrowdown"	"1099"	"TRUE"	"MullerLyer"	"230000000000"	"-0.700000000"	"1"	"9"
n/a	"html-keyboard-response"	"28"	"120883"	"0.0-4.0-2.0-2.0-0.3"	"qa7gxh"	"600"	"1366"	"chrome"	"109.0.0"	"FALSE"	"Windows 10"	"60.37"	"025"	n/a	n/a	n/a	n/a	n/a	n/a	"fixation"	n/a	n/a	n/a	n/a	"NULL"	n/a	"NULL"	"NULL"	"NULL"	"<p style=\"color: black; font-size: 80px; padding-left: 49%; padding-right: 7%; padding-top: 36%; padding-bottom: 16%\">+</p>"	"1144"	n/a	n/a	n/a	n/a	n/a	n/a	n/a	n/a	n/a
n/a	"image-keyboard-response"	"29"	"121974"	"0.0-4.0-2.0-2.0-1.3"	"qa7gxh"	"600"	"1366"	"chrome"	"109.0.0"	"FALSE"	"Windows 10"	"60.37"	"025"	n/a	n/a	n/a	n/a	n/a	n/a	"Trial"	n/a	n/a	n/a	"1090"	"arrowdown"	n/a	"NULL"	"NULL"	"NULL"	"stimuli/MullerLyer_-230000_-0.7000.png"	n/a	"MullerLyer"	"arrowdown"	"1159"	"TRUE"	"MullerLyer"	"-23000000000"	"-0.700000000"	"1"	"10"
n/a	"html-keyboard-response"	"30"	"123041"	"0.0-4.0-2.0-2.0-0.4"	"qa7gxh"	"600"	"1366"	"chrome"	"109.0.0"	"FALSE"	"Windows 10"	"60.37"	"025"	n/a	n/a	n/a	n/a	n/a	n/a	"fixation"	n/a	n/a	n/a	n/a	"NULL"	n/a	"NULL"	"NULL"	"NULL"	"<p style=\"color: black; font-size: 80px; padding-left: 19%; padding-right: 12%; padding-top: 0%; padding-bottom: 30%\">+</p>"	"1057"	n/a	n/a	n/a	n/a	n/a	n/a	n/a	n/a	n/a
n/a	"image-keyboard-response"	"31"	"123825"	"0.0-4.0-2.0-2.0-1.4"	"qa7gxh"	"600"	"1366"	"chrome"	"109.0.0"	"FALSE"	"Windows 10"	"60.37"	"025"	n/a	n/a	n/a	n/a	n/a	n/a	"Trial"	n/a	n/a	n/a	"783"	"arrowdown"	n/a	"NULL"	"NULL"	"NULL"	"stimuli/MullerLyer_0000000_-0.7000.png"	n/a	"MullerLyer"	"arrowdown"	"1067"	"TRUE"	"MullerLyer"	"000000000000"	"-0.700000000"	"1"	"11"
n/a	"html-keyboard-response"	"32"	"125067"	"0.0-4.0-2.0-2.0-0.5"	"qa7gxh"	"600"	"1366"	"chrome"	"109.0.0"	"FALSE"	"Windows 10"	"60.37"	"025"	n/a	n/a	n/a	n/a	n/a	n/a	"fixation"	n/a	n/a	n/a	n/a	"NULL"	n/a	"NULL"	"NULL"	"NULL"	"<p style=\"color: black; font-size: 80px; padding-left: 38%; padding-right: 46%; padding-top: 38%; padding-bottom: 43%\">+</p>"	"1226"	n/a	n/a	n/a	n/a	n/a	n/a	n/a	n/a	n/a
n/a	"image-keyboard-response"	"33"	"125920"	"0.0-4.0-2.0-2.0-1.5"	"qa7gxh"	"600"	"1366"	"chrome"	"109.0.0"	"FALSE"	"Windows 10"	"60.37"	"025"	n/a	n/a	n/a	n/a	n/a	n/a	"Trial"	n/a	n/a	n/a	"852"	"arrowup"	n/a	"NULL"	"NULL"	"NULL"	"stimuli/MullerLyer_-230000_0.70000.png"	n/a	"MullerLyer"	"arrowup"	"1242"	"TRUE"	"MullerLyer"	"-23000000000"	"0.7000000000"	"1"	"12"
n/a	"html-button-response"	"34"	"129838"	"0.0-4.0-2.0-3.0"	"qa7gxh"	"600"	"1366"	"chrome"	"109.0.0"	"FALSE"	"Windows 10"	"60.37"	"025"	n/a	n/a	n/a	n/a	n/a	n/a	"practice_block_results"	n/a	n/a	n/a	"3917"	"0"	n/a	"NULL"	"NULL"	"NULL"	"<p style='color:rgb(76,175,80);'> Correct Responses: <b>100.00%</b></p><hr><p style='color:rgb(233,30,99);'> Average Response Time: <b>1027.50</b> ms.</p>"	n/a	n/a	n/a	n/a	n/a	n/a	n/a	n/a	n/a	n/a
"TRUE"	"preload"	"35"	"130373"	"0.0-4.0-3.0-0.0"	"qa7gxh"	"600"	"1366"	"chrome"	"109.0.0"	"FALSE"	"Windows 10"	"60.37"	"025"	n/a	n/a	n/a	n/a	n/a	n/a	n/a	n/a	n/a	n/a	n/a	"NULL"	"FALSE"	"list()"	"list()"	"list()"	n/a	n/a	n/a	n/a	n/a	n/a	n/a	n/a	n/a	n/a	n/a
n/a	"html-keyboard-response"	"36"	"139784"	"0.0-4.0-3.0-1.0"	"qa7gxh"	"600"	"1366"	"chrome"	"109.0.0"	"FALSE"	"Windows 10"	"60.37"	"025"	n/a	n/a	n/a	n/a	n/a	n/a	n/a	n/a	n/a	n/a	"9410"	"enter"	n/a	"NULL"	"NULL"	"NULL"	"<p><b>Practice</b></p><p>In this part, two red lines will appear side by side.</p><p>Your task is to tell <b>which line is longer</b> in length, regardless of their orientation, as fast as you can, and without making errors.</p><p>Don't get distracted by the orientation of the lines!</p><p>Press <b>the LEFT or the RIGHT arrow</b> to indicate which <b>line is the longer one.</b></p><div style='float: center'><img src='materials/instructions/VerticalHorizontal_Demo.png' height='300'></img><p><img src='utils/answer/answer_leftright_keyboard.PNG' height='150'></img></p><p class='small'>In this example, the correct answer is the <b>LEFT arrow</b>.</p></div><p>Are you ready? <b>Press ENTER to start</b></p>"	n/a	n/a	n/a	n/a	n/a	n/a	n/a	n/a	n/a	n/a
n/a	"html-keyboard-response"	"37"	"141535"	"0.0-4.0-3.0-2.0-0.0"	"qa7gxh"	"600"	"1366"	"chrome"	"109.0.0"	"FALSE"	"Windows 10"	"60.37"	"025"	n/a	n/a	n/a	n/a	n/a	n/a	"fixation"	n/a	n/a	n/a	n/a	"NULL"	n/a	"NULL"	"NULL"	"NULL"	"<p style=\"color: black; font-size: 80px; padding-left: 49%; padding-right: 4%; padding-top: 9%; padding-bottom: 10%\">+</p>"	"1229"	n/a	n/a	n/a	n/a	n/a	n/a	n/a	n/a	n/a
n/a	"image-keyboard-response"	"38"	"142489"	"0.0-4.0-3.0-2.0-1.0"	"qa7gxh"	"600"	"1366"	"chrome"	"109.0.0"	"FALSE"	"Windows 10"	"60.37"	"025"	n/a	n/a	n/a	n/a	n/a	n/a	"Trial"	n/a	n/a	n/a	"953"	"arrowleft"	n/a	"NULL"	"NULL"	"NULL"	"stimuli/VerticalHorizontal_3300000_0.90000.png"	n/a	"VerticalHorizontal"	"arrowleft"	"1751"	"TRUE"	"VerticalHorizontal"	"330000000000"	"0.9000000000"	"1"	"13"
n/a	"html-keyboard-response"	"39"	"143600"	"0.0-4.0-3.0-2.0-0.1"	"qa7gxh"	"600"	"1366"	"chrome"	"109.0.0"	"FALSE"	"Windows 10"	"60.37"	"025"	n/a	n/a	n/a	n/a	n/a	n/a	"fixation"	n/a	n/a	n/a	n/a	"NULL"	n/a	"NULL"	"NULL"	"NULL"	"<p style=\"color: black; font-size: 80px; padding-left: 27%; padding-right: 2%; padding-top: 16%; padding-bottom: 23%\">+</p>"	"1103"	n/a	n/a	n/a	n/a	n/a	n/a	n/a	n/a	n/a
n/a	"image-keyboard-response"	"40"	"144193"	"0.0-4.0-3.0-2.0-1.1"	"qa7gxh"	"600"	"1366"	"chrome"	"109.0.0"	"FALSE"	"Windows 10"	"60.37"	"025"	n/a	n/a	n/a	n/a	n/a	n/a	"Trial"	n/a	n/a	n/a	"593"	"arrowright"	n/a	"NULL"	"NULL"	"NULL"	"stimuli/VerticalHorizontal_-330000_-0.9000.png"	n/a	"VerticalHorizontal"	"arrowright"	"1111"	"TRUE"	"VerticalHorizontal"	"-33000000000"	"-0.900000000"	"1"	"14"
n/a	"html-keyboard-response"	"41"	"145324"	"0.0-4.0-3.0-2.0-0.2"	"qa7gxh"	"600"	"1366"	"chrome"	"109.0.0"	"FALSE"	"Windows 10"	"60.37"	"025"	n/a	n/a	n/a	n/a	n/a	n/a	"fixation"	n/a	n/a	n/a	n/a	"NULL"	n/a	"NULL"	"NULL"	"NULL"	"<p style=\"color: black; font-size: 80px; padding-left: 21%; padding-right: 14%; padding-top: 38%; padding-bottom: 31%\">+</p>"	"1114"	n/a	n/a	n/a	n/a	n/a	n/a	n/a	n/a	n/a
n/a	"image-keyboard-response"	"42"	"146164"	"0.0-4.0-3.0-2.0-1.2"	"qa7gxh"	"600"	"1366"	"chrome"	"109.0.0"	"FALSE"	"Windows 10"	"60.37"	"025"	n/a	n/a	n/a	n/a	n/a	n/a	"Trial"	n/a	n/a	n/a	"839"	"arrowright"	n/a	"NULL"	"NULL"	"NULL"	"stimuli/VerticalHorizontal_3300000_-0.9000.png"	n/a	"VerticalHorizontal"	"arrowright"	"1131"	"TRUE"	"VerticalHorizontal"	"330000000000"	"-0.900000000"	"1"	"15"
n/a	"html-keyboard-response"	"43"	"147396"	"0.0-4.0-3.0-2.0-0.3"	"qa7gxh"	"600"	"1366"	"chrome"	"109.0.0"	"FALSE"	"Windows 10"	"60.37"	"025"	n/a	n/a	n/a	n/a	n/a	n/a	"fixation"	n/a	n/a	n/a	n/a	"NULL"	n/a	"NULL"	"NULL"	"NULL"	"<p style=\"color: black; font-size: 80px; padding-left: 31%; padding-right: 7%; padding-top: 22%; padding-bottom: 33%\">+</p>"	"1225"	n/a	n/a	n/a	n/a	n/a	n/a	n/a	n/a	n/a
n/a	"image-keyboard-response"	"44"	"147995"	"0.0-4.0-3.0-2.0-1.3"	"qa7gxh"	"600"	"1366"	"chrome"	"109.0.0"	"FALSE"	"Windows 10"	"60.37"	"025"	n/a	n/a	n/a	n/a	n/a	n/a	"Trial"	n/a	n/a	n/a	"598"	"arrowleft"	n/a	"NULL"	"NULL"	"NULL"	"stimuli/VerticalHorizontal_0000000_0.90000.png"	n/a	"VerticalHorizontal"	"arrowleft"	"1232"	"TRUE"	"VerticalHorizontal"	"000000000000"	"0.9000000000"	"1"	"16"
n/a	"html-keyboard-response"	"45"	"149104"	"0.0-4.0-3.0-2.0-0.4"	"qa7gxh"	"600"	"1366"	"chrome"	"109.0.0"	"FALSE"	"Windows 10"	"60.37"	"025"	n/a	n/a	n/a	n/a	n/a	n/a	"fixation"	n/a	n/a	n/a	n/a	"NULL"	n/a	"NULL"	"NULL"	"NULL"	"<p style=\"color: black; font-size: 80px; padding-left: 41%; padding-right: 2%; padding-top: 39%; padding-bottom: 8%\">+</p>"	"1094"	n/a	n/a	n/a	n/a	n/a	n/a	n/a	n/a	n/a
n/a	"image-keyboard-response"	"46"	"149653"	"0.0-4.0-3.0-2.0-1.4"	"qa7gxh"	"600"	"1366"	"chrome"	"109.0.0"	"FALSE"	"Windows 10"	"60.37"	"025"	n/a	n/a	n/a	n/a	n/a	n/a	"Trial"	n/a	n/a	n/a	"548"	"arrowleft"	n/a	"NULL"	"NULL"	"NULL"	"stimuli/VerticalHorizontal_-330000_0.90000.png"	n/a	"VerticalHorizontal"	"arrowleft"	"1109"	"TRUE"	"VerticalHorizontal"	"-33000000000"	"0.9000000000"	"1"	"17"
n/a	"html-keyboard-response"	"47"	"150926"	"0.0-4.0-3.0-2.0-0.5"	"qa7gxh"	"600"	"1366"	"chrome"	"109.0.0"	"FALSE"	"Windows 10"	"60.37"	"025"	n/a	n/a	n/a	n/a	n/a	n/a	"fixation"	n/a	n/a	n/a	n/a	"NULL"	n/a	"NULL"	"NULL"	"NULL"	"<p style=\"color: black; font-size: 80px; padding-left: 24%; padding-right: 23%; padding-top: 48%; padding-bottom: 48%\">+</p>"	"1265"	n/a	n/a	n/a	n/a	n/a	n/a	n/a	n/a	n/a
n/a	"image-keyboard-response"	"48"	"151423"	"0.0-4.0-3.0-2.0-1.5"	"qa7gxh"	"600"	"1366"	"chrome"	"109.0.0"	"FALSE"	"Windows 10"	"60.37"	"025"	n/a	n/a	n/a	n/a	n/a	n/a	"Trial"	n/a	n/a	n/a	"496"	"arrowright"	n/a	"NULL"	"NULL"	"NULL"	"stimuli/VerticalHorizontal_0000000_-0.9000.png"	n/a	"VerticalHorizontal"	"arrowright"	"1273"	"TRUE"	"VerticalHorizontal"	"000000000000"	"-0.900000000"	"1"	"18"
n/a	"html-button-response"	"49"	"154372"	"0.0-4.0-3.0-3.0"	"qa7gxh"	"600"	"1366"	"chrome"	"109.0.0"	"FALSE"	"Windows 10"	"60.37"	"025"	n/a	n/a	n/a	n/a	n/a	n/a	"practice_block_results"	n/a	n/a	n/a	"2949"	"0"	n/a	"NULL"	"NULL"	"NULL"	"<p style='color:rgb(76,175,80);'> Correct Responses: <b>100.00%</b></p><hr><p style='color:rgb(233,30,99);'> Average Response Time: <b>671.17</b> ms.</p>"	n/a	n/a	n/a	n/a	n/a	n/a	n/a	n/a	n/a	n/a
n/a	"html-button-response"	"50"	"248306"	"0.0-4.0-4.0"	"qa7gxh"	"600"	"1366"	"chrome"	"109.0.0"	"FALSE"	"Windows 10"	"60.37"	"025"	n/a	n/a	n/a	n/a	n/a	n/a	"practice_debrief"	n/a	n/a	n/a	"93432"	"0"	n/a	"NULL"	"NULL"	"NULL"	"<p><b>TRAINING COMPLETED</b></p><p>In the next phase, there will be more trials, and some might be harder too.<br> Moreover, after each illusion block, a <b>score</b> will be calculated based on speed (time you took to answer) and accuracy (number of errors).</p><p>Try to keep up a high score!</p><br><p>Note that it can be <i>really</i> challenging at times, so you will need to rely on your <b>intuition</b> and gut feeling to answer as fast as you can without making errors.</p><p>Each illusion block will be repeated two times (so that you have the opportunity to improve your score), but the order of the blocks is random.</p><p>Remember, your goal is to be as <b>fast</b> and <b>accurate</b> as possible. Good luck!</p><br>"	n/a	n/a	n/a	n/a	n/a	n/a	n/a	n/a	n/a	n/a
"TRUE"	"preload"	"51"	"248483"	"0.0-5.0-0.0"	"qa7gxh"	"600"	"1366"	"chrome"	"109.0.0"	"FALSE"	"Windows 10"	"60.37"	"025"	n/a	n/a	n/a	n/a	n/a	n/a	n/a	n/a	n/a	n/a	n/a	"NULL"	"FALSE"	"list()"	"list()"	"list()"	n/a	n/a	n/a	n/a	n/a	n/a	n/a	n/a	n/a	n/a	n/a
n/a	"html-keyboard-response"	"52"	"257764"	"0.0-5.0-1.0"	"qa7gxh"	"600"	"1366"	"chrome"	"109.0.0"	"FALSE"	"Windows 10"	"60.37"	"025"	n/a	n/a	n/a	n/a	n/a	n/a	n/a	n/a	n/a	n/a	"9280"	"enter"	n/a	"NULL"	"NULL"	"NULL"	"<p><b>Part 1/6</b></p><p>In this part, two horizontal red lines will appear one above the other.</p><p>Your task is to select which <b>line is longer</b> in length as fast as you can, without making errors.</p><p>Don't get distracted by the surrounding black arrows at the end of the red lines!</p><p>Press <b>the UP or the DOWN arrow</b> to indicate where is the longer <b>red line.</b></p><div style='float: center'><img src='materials/instructions/MullerLyer_Demo.png' height='300'></img><p><img src='utils/answer/answer_updown_keyboard.PNG' height='150'></img></p><p class='small'>In this example, the correct answer is the <b>UP arrow</b>.</p></div><p>Are you ready? <b>Press ENTER to start</b></p>"	n/a	n/a	n/a	n/a	n/a	n/a	n/a	n/a	n/a	n/a
n/a	"html-keyboard-response"	"53"	"259762"	"0.0-5.0-2.0-0.0"	"qa7gxh"	"600"	"1366"	"chrome"	"109.0.0"	"FALSE"	"Windows 10"	"60.37"	"025"	n/a	n/a	n/a	n/a	n/a	n/a	"fixation"	n/a	n/a	n/a	n/a	"NULL"	n/a	"NULL"	"NULL"	"NULL"	"<p style=\"color: black; font-size: 80px; padding-left: 21%; padding-right: 14%; padding-top: 44%; padding-bottom: 4%\">+</p>"	"1481"	n/a	n/a	n/a	n/a	n/a	n/a	n/a	n/a	n/a
n/a	"image-keyboard-response"	"54"	"261686"	"0.0-5.0-2.0-1.0"	"qa7gxh"	"600"	"1366"	"chrome"	"109.0.0"	"FALSE"	"Windows 10"	"60.37"	"025"	n/a	n/a	n/a	n/a	n/a	n/a	"Trial"	n/a	n/a	n/a	"1923"	"arrowup"	n/a	"NULL"	"NULL"	"NULL"	"stimuli/MullerLyer_20.04286_-0.14541.png"	n/a	"MullerLyer"	"arrowdown"	"1998"	"FALSE"	"MullerLyer"	"20.042860000"	"-0.145410000"	"1"	"19"
n/a	"html-keyboard-response"	"55"	"262709"	"0.0-5.0-2.0-0.1"	"qa7gxh"	"600"	"1366"	"chrome"	"109.0.0"	"FALSE"	"Windows 10"	"60.37"	"025"	n/a	n/a	n/a	n/a	n/a	n/a	"fixation"	n/a	n/a	n/a	n/a	"NULL"	n/a	"NULL"	"NULL"	"NULL"	"<p style=\"color: black; font-size: 80px; padding-left: 25%; padding-right: 33%; padding-top: 27%; padding-bottom: 32%\">+</p>"	"1019"	n/a	n/a	n/a	n/a	n/a	n/a	n/a	n/a	n/a
n/a	"image-keyboard-response"	"56"	"263959"	"0.0-5.0-2.0-1.1"	"qa7gxh"	"600"	"1366"	"chrome"	"109.0.0"	"FALSE"	"Windows 10"	"60.37"	"025"	n/a	n/a	n/a	n/a	n/a	n/a	"Trial"	n/a	n/a	n/a	"1249"	"arrowdown"	n/a	"NULL"	"NULL"	"NULL"	"stimuli/MullerLyer_8.21429_-0.23665.png"	n/a	"MullerLyer"	"arrowdown"	"1023"	"TRUE"	"MullerLyer"	"8.2142900000"	"-0.236650000"	"1"	"20"
n/a	"html-keyboard-response"	"57"	"265234"	"0.0-5.0-2.0-0.2"	"qa7gxh"	"600"	"1366"	"chrome"	"109.0.0"	"FALSE"	"Windows 10"	"60.37"	"025"	n/a	n/a	n/a	n/a	n/a	n/a	"fixation"	n/a	n/a	n/a	n/a	"NULL"	n/a	"NULL"	"NULL"	"NULL"	"<p style=\"color: black; font-size: 80px; padding-left: 33%; padding-right: 22%; padding-top: 47%; padding-bottom: 40%\">+</p>"	"1259"	n/a	n/a	n/a	n/a	n/a	n/a	n/a	n/a	n/a
n/a	"image-keyboard-response"	"58"	"266191"	"0.0-5.0-2.0-1.2"	"qa7gxh"	"600"	"1366"	"chrome"	"109.0.0"	"FALSE"	"Windows 10"	"60.37"	"025"	n/a	n/a	n/a	n/a	n/a	n/a	"Trial"	n/a	n/a	n/a	"956"	"arrowdown"	n/a	"NULL"	"NULL"	"NULL"	"stimuli/MullerLyer_-2.3000_-0.14541.png"	n/a	"MullerLyer"	"arrowdown"	"1275"	"TRUE"	"MullerLyer"	"-2.300000000"	"-0.145410000"	"1"	"21"
n/a	"html-keyboard-response"	"59"	"267348"	"0.0-5.0-2.0-0.3"	"qa7gxh"	"600"	"1366"	"chrome"	"109.0.0"	"FALSE"	"Windows 10"	"60.37"	"025"	n/a	n/a	n/a	n/a	n/a	n/a	"fixation"	n/a	n/a	n/a	n/a	"NULL"	n/a	"NULL"	"NULL"	"NULL"	"<p style=\"color: black; font-size: 80px; padding-left: 45%; padding-right: 17%; padding-top: 27%; padding-bottom: 12%\">+</p>"	"1151"	n/a	n/a	n/a	n/a	n/a	n/a	n/a	n/a	n/a
n/a	"image-keyboard-response"	"60"	"268838"	"0.0-5.0-2.0-1.3"	"qa7gxh"	"600"	"1366"	"chrome"	"109.0.0"	"FALSE"	"Windows 10"	"60.37"	"025"	n/a	n/a	n/a	n/a	n/a	n/a	"Trial"	n/a	n/a	n/a	"1490"	"arrowup"	n/a	"NULL"	"NULL"	"NULL"	"stimuli/MullerLyer_8.21429_0.14541.png"	n/a	"MullerLyer"	"arrowup"	"1157"	"TRUE"	"MullerLyer"	"8.2142900000"	"0.1454100000"	"1"	"22"
n/a	"html-keyboard-response"	"61"	"269936"	"0.0-5.0-2.0-0.4"	"qa7gxh"	"600"	"1366"	"chrome"	"109.0.0"	"FALSE"	"Windows 10"	"60.37"	"025"	n/a	n/a	n/a	n/a	n/a	n/a	"fixation"	n/a	n/a	n/a	n/a	"NULL"	n/a	"NULL"	"NULL"	"NULL"	"<p style=\"color: black; font-size: 80px; padding-left: 42%; padding-right: 15%; padding-top: 33%; padding-bottom: 2%\">+</p>"	"1083"	n/a	n/a	n/a	n/a	n/a	n/a	n/a	n/a	n/a
n/a	"image-keyboard-response"	"62"	"271146"	"0.0-5.0-2.0-1.4"	"qa7gxh"	"600"	"1366"	"chrome"	"109.0.0"	"FALSE"	"Windows 10"	"60.37"	"025"	n/a	n/a	n/a	n/a	n/a	n/a	"Trial"	n/a	n/a	n/a	"1210"	"arrowup"	n/a	"NULL"	"NULL"	"NULL"	"stimuli/MullerLyer_20.04286_-0.07627.png"	n/a	"MullerLyer"	"arrowdown"	"1098"	"FALSE"	"MullerLyer"	"20.042860000"	"-0.076270000"	"1"	"23"
n/a	"html-keyboard-response"	"63"	"272614"	"0.0-5.0-2.0-0.5"	"qa7gxh"	"600"	"1366"	"chrome"	"109.0.0"	"FALSE"	"Windows 10"	"60.37"	"025"	n/a	n/a	n/a	n/a	n/a	n/a	"fixation"	n/a	n/a	n/a	n/a	"NULL"	n/a	"NULL"	"NULL"	"NULL"	"<p style=\"color: black; font-size: 80px; padding-left: 47%; padding-right: 34%; padding-top: 8%; padding-bottom: 50%\">+</p>"	"1458"	n/a	n/a	n/a	n/a	n/a	n/a	n/a	n/a	n/a
n/a	"image-keyboard-response"	"64"	"273358"	"0.0-5.0-2.0-1.5"	"qa7gxh"	"600"	"1366"	"chrome"	"109.0.0"	"FALSE"	"Windows 10"	"60.37"	"025"	n/a	n/a	n/a	n/a	n/a	n/a	"Trial"	n/a	n/a	n/a	"743"	"arrowdown"	n/a	"NULL"	"NULL"	"NULL"	"stimuli/MullerLyer_-8.21429_-0.07627.png"	n/a	"MullerLyer"	"arrowdown"	"1468"	"TRUE"	"MullerLyer"	"-8.214290000"	"-0.076270000"	"1"	"24"
n/a	"html-keyboard-response"	"65"	"274632"	"0.0-5.0-2.0-0.6"	"qa7gxh"	"600"	"1366"	"chrome"	"109.0.0"	"FALSE"	"Windows 10"	"60.37"	"025"	n/a	n/a	n/a	n/a	n/a	n/a	"fixation"	n/a	n/a	n/a	n/a	"NULL"	n/a	"NULL"	"NULL"	"NULL"	"<p style=\"color: black; font-size: 80px; padding-left: 2%; padding-right: 9%; padding-top: 31%; padding-bottom: 8%\">+</p>"	"1262"	n/a	n/a	n/a	n/a	n/a	n/a	n/a	n/a	n/a
n/a	"image-keyboard-response"	"66"	"275208"	"0.0-5.0-2.0-1.6"	"qa7gxh"	"600"	"1366"	"chrome"	"109.0.0"	"FALSE"	"Windows 10"	"60.37"	"025"	n/a	n/a	n/a	n/a	n/a	n/a	"Trial"	n/a	n/a	n/a	"576"	"arrowdown"	n/a	"NULL"	"NULL"	"NULL"	"stimuli/MullerLyer_-20.04286_-0.14541.png"	n/a	"MullerLyer"	"arrowdown"	"1274"	"TRUE"	"MullerLyer"	"-20.04286000"	"-0.145410000"	"1"	"25"
n/a	"html-keyboard-response"	"67"	"276694"	"0.0-5.0-2.0-0.7"	"qa7gxh"	"600"	"1366"	"chrome"	"109.0.0"	"FALSE"	"Windows 10"	"60.37"	"025"	n/a	n/a	n/a	n/a	n/a	n/a	"fixation"	n/a	n/a	n/a	n/a	"NULL"	n/a	"NULL"	"NULL"	"NULL"	"<p style=\"color: black; font-size: 80px; padding-left: 5%; padding-right: 49%; padding-top: 4%; padding-bottom: 30%\">+</p>"	"1475"	n/a	n/a	n/a	n/a	n/a	n/a	n/a	n/a	n/a
n/a	"image-keyboard-response"	"68"	"277371"	"0.0-5.0-2.0-1.7"	"qa7gxh"	"600"	"1366"	"chrome"	"109.0.0"	"FALSE"	"Windows 10"	"60.37"	"025"	n/a	n/a	n/a	n/a	n/a	n/a	"Trial"	n/a	n/a	n/a	"675"	"arrowup"	n/a	"NULL"	"NULL"	"NULL"	"stimuli/MullerLyer_-20.04286_0.23665.png"	n/a	"MullerLyer"	"arrowup"	"1486"	"TRUE"	"MullerLyer"	"-20.04286000"	"0.2366500000"	"1"	"26"
n/a	"html-keyboard-response"	"69"	"278534"	"0.0-5.0-2.0-0.8"	"qa7gxh"	"600"	"1366"	"chrome"	"109.0.0"	"FALSE"	"Windows 10"	"60.37"	"025"	n/a	n/a	n/a	n/a	n/a	n/a	"fixation"	n/a	n/a	n/a	n/a	"NULL"	n/a	"NULL"	"NULL"	"NULL"	"<p style=\"color: black; font-size: 80px; padding-left: 46%; padding-right: 1%; padding-top: 17%; padding-bottom: 11%\">+</p>"	"1150"	n/a	n/a	n/a	n/a	n/a	n/a	n/a	n/a	n/a
n/a	"image-keyboard-response"	"70"	"279349"	"0.0-5.0-2.0-1.8"	"qa7gxh"	"600"	"1366"	"chrome"	"109.0.0"	"FALSE"	"Windows 10"	"60.37"	"025"	n/a	n/a	n/a	n/a	n/a	n/a	"Trial"	n/a	n/a	n/a	"814"	"arrowup"	n/a	"NULL"	"NULL"	"NULL"	"stimuli/MullerLyer_-2.3000_0.23665.png"	n/a	"MullerLyer"	"arrowup"	"1163"	"TRUE"	"MullerLyer"	"-2.300000000"	"0.2366500000"	"1"	"27"
n/a	"html-keyboard-response"	"71"	"280645"	"0.0-5.0-2.0-0.9"	"qa7gxh"	"600"	"1366"	"chrome"	"109.0.0"	"FALSE"	"Windows 10"	"60.37"	"025"	n/a	n/a	n/a	n/a	n/a	n/a	"fixation"	n/a	n/a	n/a	n/a	"NULL"	n/a	"NULL"	"NULL"	"NULL"	"<p style=\"color: black; font-size: 80px; padding-left: 1%; padding-right: 19%; padding-top: 20%; padding-bottom: 35%\">+</p>"	"1286"	n/a	n/a	n/a	n/a	n/a	n/a	n/a	n/a	n/a
n/a	"image-keyboard-response"	"72"	"281648"	"0.0-5.0-2.0-1.9"	"qa7gxh"	"600"	"1366"	"chrome"	"109.0.0"	"FALSE"	"Windows 10"	"60.37"	"025"	n/a	n/a	n/a	n/a	n/a	n/a	"Trial"	n/a	n/a	n/a	"1003"	"arrowdown"	n/a	"NULL"	"NULL"	"NULL"	"stimuli/MullerLyer_-2.3000_-0.07627.png"	n/a	"MullerLyer"	"arrowdown"	"1296"	"TRUE"	"MullerLyer"	"-2.300000000"	"-0.076270000"	"1"	"28"
n/a	"html-keyboard-response"	"73"	"283005"	"0.0-5.0-2.0-0.10"	"qa7gxh"	"600"	"1366"	"chrome"	"109.0.0"	"FALSE"	"Windows 10"	"60.37"	"025"	n/a	n/a	n/a	n/a	n/a	n/a	"fixation"	n/a	n/a	n/a	n/a	"NULL"	n/a	"NULL"	"NULL"	"NULL"	"<p style=\"color: black; font-size: 80px; padding-left: 48%; padding-right: 25%; padding-top: 20%; padding-bottom: 23%\">+</p>"	"1338"	n/a	n/a	n/a	n/a	n/a	n/a	n/a	n/a	n/a
n/a	"image-keyboard-response"	"74"	"284147"	"0.0-5.0-2.0-1.10"	"qa7gxh"	"600"	"1366"	"chrome"	"109.0.0"	"FALSE"	"Windows 10"	"60.37"	"025"	n/a	n/a	n/a	n/a	n/a	n/a	"Trial"	n/a	n/a	n/a	"1142"	"arrowup"	n/a	"NULL"	"NULL"	"NULL"	"stimuli/MullerLyer_14.12857_-0.07627.png"	n/a	"MullerLyer"	"arrowdown"	"1357"	"FALSE"	"MullerLyer"	"14.128570000"	"-0.076270000"	"1"	"29"
n/a	"html-keyboard-response"	"75"	"285365"	"0.0-5.0-2.0-0.11"	"qa7gxh"	"600"	"1366"	"chrome"	"109.0.0"	"FALSE"	"Windows 10"	"60.37"	"025"	n/a	n/a	n/a	n/a	n/a	n/a	"fixation"	n/a	n/a	n/a	n/a	"NULL"	n/a	"NULL"	"NULL"	"NULL"	"<p style=\"color: black; font-size: 80px; padding-left: 47%; padding-right: 0%; padding-top: 42%; padding-bottom: 32%\">+</p>"	"1204"	n/a	n/a	n/a	n/a	n/a	n/a	n/a	n/a	n/a
n/a	"image-keyboard-response"	"76"	"286899"	"0.0-5.0-2.0-1.11"	"qa7gxh"	"600"	"1366"	"chrome"	"109.0.0"	"FALSE"	"Windows 10"	"60.37"	"025"	n/a	n/a	n/a	n/a	n/a	n/a	"Trial"	n/a	n/a	n/a	"1534"	"arrowdown"	n/a	"NULL"	"NULL"	"NULL"	"stimuli/MullerLyer_20.04286_0.23665.png"	n/a	"MullerLyer"	"arrowup"	"1218"	"FALSE"	"MullerLyer"	"20.042860000"	"0.2366500000"	"1"	"30"
n/a	"html-keyboard-response"	"77"	"288069"	"0.0-5.0-2.0-0.12"	"qa7gxh"	"600"	"1366"	"chrome"	"109.0.0"	"FALSE"	"Windows 10"	"60.37"	"025"	n/a	n/a	n/a	n/a	n/a	n/a	"fixation"	n/a	n/a	n/a	n/a	"NULL"	n/a	"NULL"	"NULL"	"NULL"	"<p style=\"color: black; font-size: 80px; padding-left: 16%; padding-right: 42%; padding-top: 39%; padding-bottom: 13%\">+</p>"	"1159"	n/a	n/a	n/a	n/a	n/a	n/a	n/a	n/a	n/a
n/a	"image-keyboard-response"	"78"	"289061"	"0.0-5.0-2.0-1.12"	"qa7gxh"	"600"	"1366"	"chrome"	"109.0.0"	"FALSE"	"Windows 10"	"60.37"	"025"	n/a	n/a	n/a	n/a	n/a	n/a	"Trial"	n/a	n/a	n/a	"991"	"arrowup"	n/a	"NULL"	"NULL"	"NULL"	"stimuli/MullerLyer_-8.21429_0.14541.png"	n/a	"MullerLyer"	"arrowup"	"1170"	"TRUE"	"MullerLyer"	"-8.214290000"	"0.1454100000"	"1"	"31"
n/a	"html-keyboard-response"	"79"	"290332"	"0.0-5.0-2.0-0.13"	"qa7gxh"	"600"	"1366"	"chrome"	"109.0.0"	"FALSE"	"Windows 10"	"60.37"	"025"	n/a	n/a	n/a	n/a	n/a	n/a	"fixation"	n/a	n/a	n/a	n/a	"NULL"	n/a	"NULL"	"NULL"	"NULL"	"<p style=\"color: black; font-size: 80px; padding-left: 23%; padding-right: 32%; padding-top: 12%; padding-bottom: 1%\">+</p>"	"1264"	n/a	n/a	n/a	n/a	n/a	n/a	n/a	n/a	n/a
n/a	"image-keyboard-response"	"80"	"291351"	"0.0-5.0-2.0-1.13"	"qa7gxh"	"600"	"1366"	"chrome"	"109.0.0"	"FALSE"	"Windows 10"	"60.37"	"025"	n/a	n/a	n/a	n/a	n/a	n/a	"Trial"	n/a	n/a	n/a	"1018"	"arrowup"	n/a	"NULL"	"NULL"	"NULL"	"stimuli/MullerLyer_8.21429_0.23665.png"	n/a	"MullerLyer"	"arrowup"	"1271"	"TRUE"	"MullerLyer"	"8.2142900000"	"0.2366500000"	"1"	"32"
n/a	"html-keyboard-response"	"81"	"292692"	"0.0-5.0-2.0-0.14"	"qa7gxh"	"600"	"1366"	"chrome"	"109.0.0"	"FALSE"	"Windows 10"	"60.37"	"025"	n/a	n/a	n/a	n/a	n/a	n/a	"fixation"	n/a	n/a	n/a	n/a	"NULL"	n/a	"NULL"	"NULL"	"NULL"	"<p style=\"color: black; font-size: 80px; padding-left: 18%; padding-right: 36%; padding-top: 20%; padding-bottom: 18%\">+</p>"	"1327"	n/a	n/a	n/a	n/a	n/a	n/a	n/a	n/a	n/a
n/a	"image-keyboard-response"	"82"	"294310"	"0.0-5.0-2.0-1.14"	"qa7gxh"	"600"	"1366"	"chrome"	"109.0.0"	"FALSE"	"Windows 10"	"60.37"	"025"	n/a	n/a	n/a	n/a	n/a	n/a	"Trial"	n/a	n/a	n/a	"1617"	"arrowup"	n/a	"NULL"	"NULL"	"NULL"	"stimuli/MullerLyer_14.12857_0.14541.png"	n/a	"MullerLyer"	"arrowup"	"1341"	"TRUE"	"MullerLyer"	"14.128570000"	"0.1454100000"	"1"	"33"
n/a	"html-keyboard-response"	"83"	"295739"	"0.0-5.0-2.0-0.15"	"qa7gxh"	"600"	"1366"	"chrome"	"109.0.0"	"FALSE"	"Windows 10"	"60.37"	"025"	n/a	n/a	n/a	n/a	n/a	n/a	"fixation"	n/a	n/a	n/a	n/a	"NULL"	n/a	"NULL"	"NULL"	"NULL"	"<p style=\"color: black; font-size: 80px; padding-left: 33%; padding-right: 1%; padding-top: 13%; padding-bottom: 22%\">+</p>"	"1425"	n/a	n/a	n/a	n/a	n/a	n/a	n/a	n/a	n/a
n/a	"image-keyboard-response"	"84"	"296613"	"0.0-5.0-2.0-1.15"	"qa7gxh"	"600"	"1366"	"chrome"	"109.0.0"	"FALSE"	"Windows 10"	"60.37"	"025"	n/a	n/a	n/a	n/a	n/a	n/a	"Trial"	n/a	n/a	n/a	"873"	"arrowup"	n/a	"NULL"	"NULL"	"NULL"	"stimuli/MullerLyer_-2.3000_0.14541.png"	n/a	"MullerLyer"	"arrowup"	"1429"	"TRUE"	"MullerLyer"	"-2.300000000"	"0.1454100000"	"1"	"34"
n/a	"html-keyboard-response"	"85"	"297864"	"0.0-5.0-2.0-0.16"	"qa7gxh"	"600"	"1366"	"chrome"	"109.0.0"	"FALSE"	"Windows 10"	"60.37"	"025"	n/a	n/a	n/a	n/a	n/a	n/a	"fixation"	n/a	n/a	n/a	n/a	"NULL"	n/a	"NULL"	"NULL"	"NULL"	"<p style=\"color: black; font-size: 80px; padding-left: 45%; padding-right: 26%; padding-top: 33%; padding-bottom: 16%\">+</p>"	"1234"	n/a	n/a	n/a	n/a	n/a	n/a	n/a	n/a	n/a
n/a	"image-keyboard-response"	"86"	"298547"	"0.0-5.0-2.0-1.16"	"qa7gxh"	"600"	"1366"	"chrome"	"109.0.0"	"FALSE"	"Windows 10"	"60.37"	"025"	n/a	n/a	n/a	n/a	n/a	n/a	"Trial"	n/a	n/a	n/a	"682"	"arrowdown"	n/a	"NULL"	"NULL"	"NULL"	"stimuli/MullerLyer_-20.04286_-0.23665.png"	n/a	"MullerLyer"	"arrowdown"	"1251"	"TRUE"	"MullerLyer"	"-20.04286000"	"-0.236650000"	"1"	"35"
n/a	"html-keyboard-response"	"87"	"299942"	"0.0-5.0-2.0-0.17"	"qa7gxh"	"600"	"1366"	"chrome"	"109.0.0"	"FALSE"	"Windows 10"	"60.37"	"025"	n/a	n/a	n/a	n/a	n/a	n/a	"fixation"	n/a	n/a	n/a	n/a	"NULL"	n/a	"NULL"	"NULL"	"NULL"	"<p style=\"color: black; font-size: 80px; padding-left: 47%; padding-right: 23%; padding-top: 41%; padding-bottom: 47%\">+</p>"	"1386"	n/a	n/a	n/a	n/a	n/a	n/a	n/a	n/a	n/a
n/a	"image-keyboard-response"	"88"	"300836"	"0.0-5.0-2.0-1.17"	"qa7gxh"	"600"	"1366"	"chrome"	"109.0.0"	"FALSE"	"Windows 10"	"60.37"	"025"	n/a	n/a	n/a	n/a	n/a	n/a	"Trial"	n/a	n/a	n/a	"893"	"arrowup"	n/a	"NULL"	"NULL"	"NULL"	"stimuli/MullerLyer_14.12857_-0.14541.png"	n/a	"MullerLyer"	"arrowdown"	"1395"	"FALSE"	"MullerLyer"	"14.128570000"	"-0.145410000"	"1"	"36"
n/a	"html-keyboard-response"	"89"	"302333"	"0.0-5.0-2.0-0.18"	"qa7gxh"	"600"	"1366"	"chrome"	"109.0.0"	"FALSE"	"Windows 10"	"60.37"	"025"	n/a	n/a	n/a	n/a	n/a	n/a	"fixation"	n/a	n/a	n/a	n/a	"NULL"	n/a	"NULL"	"NULL"	"NULL"	"<p style=\"color: black; font-size: 80px; padding-left: 5%; padding-right: 8%; padding-top: 24%; padding-bottom: 6%\">+</p>"	"1486"	n/a	n/a	n/a	n/a	n/a	n/a	n/a	n/a	n/a
n/a	"image-keyboard-response"	"90"	"303179"	"0.0-5.0-2.0-1.18"	"qa7gxh"	"600"	"1366"	"chrome"	"109.0.0"	"FALSE"	"Windows 10"	"60.37"	"025"	n/a	n/a	n/a	n/a	n/a	n/a	"Trial"	n/a	n/a	n/a	"846"	"arrowdown"	n/a	"NULL"	"NULL"	"NULL"	"stimuli/MullerLyer_-20.04286_-0.3500.png"	n/a	"MullerLyer"	"arrowdown"	"1497"	"TRUE"	"MullerLyer"	"-20.04286000"	"-0.350000000"	"1"	"37"
n/a	"html-keyboard-response"	"91"	"304677"	"0.0-5.0-2.0-0.19"	"qa7gxh"	"600"	"1366"	"chrome"	"109.0.0"	"FALSE"	"Windows 10"	"60.37"	"025"	n/a	n/a	n/a	n/a	n/a	n/a	"fixation"	n/a	n/a	n/a	n/a	"NULL"	n/a	"NULL"	"NULL"	"NULL"	"<p style=\"color: black; font-size: 80px; padding-left: 16%; padding-right: 2%; padding-top: 17%; padding-bottom: 37%\">+</p>"	"1488"	n/a	n/a	n/a	n/a	n/a	n/a	n/a	n/a	n/a
n/a	"image-keyboard-response"	"92"	"305227"	"0.0-5.0-2.0-1.19"	"qa7gxh"	"600"	"1366"	"chrome"	"109.0.0"	"FALSE"	"Windows 10"	"60.37"	"025"	n/a	n/a	n/a	n/a	n/a	n/a	"Trial"	n/a	n/a	n/a	"549"	"arrowdown"	n/a	"NULL"	"NULL"	"NULL"	"stimuli/MullerLyer_-14.12857_0.23665.png"	n/a	"MullerLyer"	"arrowup"	"1498"	"FALSE"	"MullerLyer"	"-14.12857000"	"0.2366500000"	"1"	"38"
n/a	"html-keyboard-response"	"93"	"306615"	"0.0-5.0-2.0-0.20"	"qa7gxh"	"600"	"1366"	"chrome"	"109.0.0"	"FALSE"	"Windows 10"	"60.37"	"025"	n/a	n/a	n/a	n/a	n/a	n/a	"fixation"	n/a	n/a	n/a	n/a	"NULL"	n/a	"NULL"	"NULL"	"NULL"	"<p style=\"color: black; font-size: 80px; padding-left: 11%; padding-right: 48%; padding-top: 10%; padding-bottom: 34%\">+</p>"	"1372"	n/a	n/a	n/a	n/a	n/a	n/a	n/a	n/a	n/a
n/a	"image-keyboard-response"	"94"	"307669"	"0.0-5.0-2.0-1.20"	"qa7gxh"	"600"	"1366"	"chrome"	"109.0.0"	"FALSE"	"Windows 10"	"60.37"	"025"	n/a	n/a	n/a	n/a	n/a	n/a	"Trial"	n/a	n/a	n/a	"1054"	"arrowup"	n/a	"NULL"	"NULL"	"NULL"	"stimuli/MullerLyer_8.21429_-0.07627.png"	n/a	"MullerLyer"	"arrowdown"	"1388"	"FALSE"	"MullerLyer"	"8.2142900000"	"-0.076270000"	"1"	"39"
n/a	"html-keyboard-response"	"95"	"309064"	"0.0-5.0-2.0-0.21"	"qa7gxh"	"600"	"1366"	"chrome"	"109.0.0"	"FALSE"	"Windows 10"	"60.37"	"025"	n/a	n/a	n/a	n/a	n/a	n/a	"fixation"	n/a	n/a	n/a	n/a	"NULL"	n/a	"NULL"	"NULL"	"NULL"	"<p style=\"color: black; font-size: 80px; padding-left: 22%; padding-right: 38%; padding-top: 4%; padding-bottom: 43%\">+</p>"	"1375"	n/a	n/a	n/a	n/a	n/a	n/a	n/a	n/a	n/a
n/a	"image-keyboard-response"	"96"	"309788"	"0.0-5.0-2.0-1.21"	"qa7gxh"	"600"	"1366"	"chrome"	"109.0.0"	"FALSE"	"Windows 10"	"60.37"	"025"	n/a	n/a	n/a	n/a	n/a	n/a	"Trial"	n/a	n/a	n/a	"723"	"arrowdown"	n/a	"NULL"	"NULL"	"NULL"	"stimuli/MullerLyer_-14.12857_-0.14541.png"	n/a	"MullerLyer"	"arrowdown"	"1395"	"TRUE"	"MullerLyer"	"-14.12857000"	"-0.145410000"	"1"	"40"
n/a	"html-keyboard-response"	"97"	"311105"	"0.0-5.0-2.0-0.22"	"qa7gxh"	"600"	"1366"	"chrome"	"109.0.0"	"FALSE"	"Windows 10"	"60.37"	"025"	n/a	n/a	n/a	n/a	n/a	n/a	"fixation"	n/a	n/a	n/a	n/a	"NULL"	n/a	"NULL"	"NULL"	"NULL"	"<p style=\"color: black; font-size: 80px; padding-left: 33%; padding-right: 14%; padding-top: 16%; padding-bottom: 9%\">+</p>"	"1304"	n/a	n/a	n/a	n/a	n/a	n/a	n/a	n/a	n/a
n/a	"image-keyboard-response"	"98"	"311819"	"0.0-5.0-2.0-1.22"	"qa7gxh"	"600"	"1366"	"chrome"	"109.0.0"	"FALSE"	"Windows 10"	"60.37"	"025"	n/a	n/a	n/a	n/a	n/a	n/a	"Trial"	n/a	n/a	n/a	"713"	"arrowdown"	n/a	"NULL"	"NULL"	"NULL"	"stimuli/MullerLyer_14.12857_0.07627.png"	n/a	"MullerLyer"	"arrowup"	"1317"	"FALSE"	"MullerLyer"	"14.128570000"	"0.0762700000"	"1"	"41"
n/a	"html-keyboard-response"	"99"	"313280"	"0.0-5.0-2.0-0.23"	"qa7gxh"	"600"	"1366"	"chrome"	"109.0.0"	"FALSE"	"Windows 10"	"60.37"	"025"	n/a	n/a	n/a	n/a	n/a	n/a	"fixation"	n/a	n/a	n/a	n/a	"NULL"	n/a	"NULL"	"NULL"	"NULL"	"<p style=\"color: black; font-size: 80px; padding-left: 40%; padding-right: 28%; padding-top: 14%; padding-bottom: 8%\">+</p>"	"1453"	n/a	n/a	n/a	n/a	n/a	n/a	n/a	n/a	n/a
n/a	"image-keyboard-response"	"100"	"313890"	"0.0-5.0-2.0-1.23"	"qa7gxh"	"600"	"1366"	"chrome"	"109.0.0"	"FALSE"	"Windows 10"	"60.37"	"025"	n/a	n/a	n/a	n/a	n/a	n/a	"Trial"	n/a	n/a	n/a	"610"	"arrowup"	n/a	"NULL"	"NULL"	"NULL"	"stimuli/MullerLyer_-20.04286_0.35000.png"	n/a	"MullerLyer"	"arrowup"	"1461"	"TRUE"	"MullerLyer"	"-20.04286000"	"0.3500000000"	"1"	"42"
n/a	"html-keyboard-response"	"101"	"315318"	"0.0-5.0-2.0-0.24"	"qa7gxh"	"600"	"1366"	"chrome"	"109.0.0"	"FALSE"	"Windows 10"	"60.37"	"025"	n/a	n/a	n/a	n/a	n/a	n/a	"fixation"	n/a	n/a	n/a	n/a	"NULL"	n/a	"NULL"	"NULL"	"NULL"	"<p style=\"color: black; font-size: 80px; padding-left: 31%; padding-right: 8%; padding-top: 48%; padding-bottom: 28%\">+</p>"	"1424"	n/a	n/a	n/a	n/a	n/a	n/a	n/a	n/a	n/a
n/a	"image-keyboard-response"	"102"	"315973"	"0.0-5.0-2.0-1.24"	"qa7gxh"	"600"	"1366"	"chrome"	"109.0.0"	"FALSE"	"Windows 10"	"60.37"	"025"	n/a	n/a	n/a	n/a	n/a	n/a	"Trial"	n/a	n/a	n/a	"654"	"arrowdown"	n/a	"NULL"	"NULL"	"NULL"	"stimuli/MullerLyer_-8.21429_-0.3500.png"	n/a	"MullerLyer"	"arrowdown"	"1428"	"TRUE"	"MullerLyer"	"-8.214290000"	"-0.350000000"	"1"	"43"
n/a	"html-keyboard-response"	"103"	"317083"	"0.0-5.0-2.0-0.25"	"qa7gxh"	"600"	"1366"	"chrome"	"109.0.0"	"FALSE"	"Windows 10"	"60.37"	"025"	n/a	n/a	n/a	n/a	n/a	n/a	"fixation"	n/a	n/a	n/a	n/a	"NULL"	n/a	"NULL"	"NULL"	"NULL"	"<p style=\"color: black; font-size: 80px; padding-left: 7%; padding-right: 16%; padding-top: 35%; padding-bottom: 49%\">+</p>"	"1099"	n/a	n/a	n/a	n/a	n/a	n/a	n/a	n/a	n/a
n/a	"image-keyboard-response"	"104"	"317847"	"0.0-5.0-2.0-1.25"	"qa7gxh"	"600"	"1366"	"chrome"	"109.0.0"	"FALSE"	"Windows 10"	"60.37"	"025"	n/a	n/a	n/a	n/a	n/a	n/a	"Trial"	n/a	n/a	n/a	"764"	"arrowup"	n/a	"NULL"	"NULL"	"NULL"	"stimuli/MullerLyer_-8.21429_0.07627.png"	n/a	"MullerLyer"	"arrowup"	"1110"	"TRUE"	"MullerLyer"	"-8.214290000"	"0.0762700000"	"1"	"44"
n/a	"html-keyboard-response"	"105"	"319347"	"0.0-5.0-2.0-0.26"	"qa7gxh"	"600"	"1366"	"chrome"	"109.0.0"	"FALSE"	"Windows 10"	"60.37"	"025"	n/a	n/a	n/a	n/a	n/a	n/a	"fixation"	n/a	n/a	n/a	n/a	"NULL"	n/a	"NULL"	"NULL"	"NULL"	"<p style=\"color: black; font-size: 80px; padding-left: 13%; padding-right: 4%; padding-top: 40%; padding-bottom: 29%\">+</p>"	"1483"	n/a	n/a	n/a	n/a	n/a	n/a	n/a	n/a	n/a
n/a	"image-keyboard-response"	"106"	"320045"	"0.0-5.0-2.0-1.26"	"qa7gxh"	"600"	"1366"	"chrome"	"109.0.0"	"FALSE"	"Windows 10"	"60.37"	"025"	n/a	n/a	n/a	n/a	n/a	n/a	"Trial"	n/a	n/a	n/a	"697"	"arrowup"	n/a	"NULL"	"NULL"	"NULL"	"stimuli/MullerLyer_14.12857_0.35000.png"	n/a	"MullerLyer"	"arrowup"	"1500"	"TRUE"	"MullerLyer"	"14.128570000"	"0.3500000000"	"1"	"45"
n/a	"html-keyboard-response"	"107"	"321147"	"0.0-5.0-2.0-0.27"	"qa7gxh"	"600"	"1366"	"chrome"	"109.0.0"	"FALSE"	"Windows 10"	"60.37"	"025"	n/a	n/a	n/a	n/a	n/a	n/a	"fixation"	n/a	n/a	n/a	n/a	"NULL"	n/a	"NULL"	"NULL"	"NULL"	"<p style=\"color: black; font-size: 80px; padding-left: 40%; padding-right: 24%; padding-top: 19%; padding-bottom: 6%\">+</p>"	"1096"	n/a	n/a	n/a	n/a	n/a	n/a	n/a	n/a	n/a
n/a	"image-keyboard-response"	"108"	"321765"	"0.0-5.0-2.0-1.27"	"qa7gxh"	"600"	"1366"	"chrome"	"109.0.0"	"FALSE"	"Windows 10"	"60.37"	"025"	n/a	n/a	n/a	n/a	n/a	n/a	"Trial"	n/a	n/a	n/a	"618"	"arrowdown"	n/a	"NULL"	"NULL"	"NULL"	"stimuli/MullerLyer_-2.3000_-0.3500.png"	n/a	"MullerLyer"	"arrowdown"	"1102"	"TRUE"	"MullerLyer"	"-2.300000000"	"-0.350000000"	"1"	"46"
n/a	"html-keyboard-response"	"109"	"323192"	"0.0-5.0-2.0-0.28"	"qa7gxh"	"600"	"1366"	"chrome"	"109.0.0"	"FALSE"	"Windows 10"	"60.37"	"025"	n/a	n/a	n/a	n/a	n/a	n/a	"fixation"	n/a	n/a	n/a	n/a	"NULL"	n/a	"NULL"	"NULL"	"NULL"	"<p style=\"color: black; font-size: 80px; padding-left: 23%; padding-right: 10%; padding-top: 28%; padding-bottom: 7%\">+</p>"	"1418"	n/a	n/a	n/a	n/a	n/a	n/a	n/a	n/a	n/a
n/a	"image-keyboard-response"	"110"	"323764"	"0.0-5.0-2.0-1.28"	"qa7gxh"	"600"	"1366"	"chrome"	"109.0.0"	"FALSE"	"Windows 10"	"60.37"	"025"	n/a	n/a	n/a	n/a	n/a	n/a	"Trial"	n/a	n/a	n/a	"571"	"arrowdown"	n/a	"NULL"	"NULL"	"NULL"	"stimuli/MullerLyer_-14.12857_-0.07627.png"	n/a	"MullerLyer"	"arrowdown"	"1427"	"TRUE"	"MullerLyer"	"-14.12857000"	"-0.076270000"	"1"	"47"
n/a	"html-keyboard-response"	"111"	"324974"	"0.0-5.0-2.0-0.29"	"qa7gxh"	"600"	"1366"	"chrome"	"109.0.0"	"FALSE"	"Windows 10"	"60.37"	"025"	n/a	n/a	n/a	n/a	n/a	n/a	"fixation"	n/a	n/a	n/a	n/a	"NULL"	n/a	"NULL"	"NULL"	"NULL"	"<p style=\"color: black; font-size: 80px; padding-left: 15%; padding-right: 20%; padding-top: 4%; padding-bottom: 12%\">+</p>"	"1196"	n/a	n/a	n/a	n/a	n/a	n/a	n/a	n/a	n/a
n/a	"image-keyboard-response"	"112"	"325938"	"0.0-5.0-2.0-1.29"	"qa7gxh"	"600"	"1366"	"chrome"	"109.0.0"	"FALSE"	"Windows 10"	"60.37"	"025"	n/a	n/a	n/a	n/a	n/a	n/a	"Trial"	n/a	n/a	n/a	"963"	"arrowup"	n/a	"NULL"	"NULL"	"NULL"	"stimuli/MullerLyer_2.30000_0.07627.png"	n/a	"MullerLyer"	"arrowup"	"1210"	"TRUE"	"MullerLyer"	"2.3000000000"	"0.0762700000"	"1"	"48"
n/a	"html-keyboard-response"	"113"	"327278"	"0.0-5.0-2.0-0.30"	"qa7gxh"	"600"	"1366"	"chrome"	"109.0.0"	"FALSE"	"Windows 10"	"60.37"	"025"	n/a	n/a	n/a	n/a	n/a	n/a	"fixation"	n/a	n/a	n/a	n/a	"NULL"	n/a	"NULL"	"NULL"	"NULL"	"<p style=\"color: black; font-size: 80px; padding-left: 38%; padding-right: 15%; padding-top: 20%; padding-bottom: 1%\">+</p>"	"1331"	n/a	n/a	n/a	n/a	n/a	n/a	n/a	n/a	n/a
n/a	"image-keyboard-response"	"114"	"328271"	"0.0-5.0-2.0-1.30"	"qa7gxh"	"600"	"1366"	"chrome"	"109.0.0"	"FALSE"	"Windows 10"	"60.37"	"025"	n/a	n/a	n/a	n/a	n/a	n/a	"Trial"	n/a	n/a	n/a	"993"	"arrowdown"	n/a	"NULL"	"NULL"	"NULL"	"stimuli/MullerLyer_2.30000_-0.07627.png"	n/a	"MullerLyer"	"arrowdown"	"1340"	"TRUE"	"MullerLyer"	"2.3000000000"	"-0.076270000"	"1"	"49"
n/a	"html-keyboard-response"	"115"	"329313"	"0.0-5.0-2.0-0.31"	"qa7gxh"	"600"	"1366"	"chrome"	"109.0.0"	"FALSE"	"Windows 10"	"60.37"	"025"	n/a	n/a	n/a	n/a	n/a	n/a	"fixation"	n/a	n/a	n/a	n/a	"NULL"	n/a	"NULL"	"NULL"	"NULL"	"<p style=\"color: black; font-size: 80px; padding-left: 1%; padding-right: 21%; padding-top: 27%; padding-bottom: 22%\">+</p>"	"1029"	n/a	n/a	n/a	n/a	n/a	n/a	n/a	n/a	n/a
n/a	"image-keyboard-response"	"116"	"330077"	"0.0-5.0-2.0-1.31"	"qa7gxh"	"600"	"1366"	"chrome"	"109.0.0"	"FALSE"	"Windows 10"	"60.37"	"025"	n/a	n/a	n/a	n/a	n/a	n/a	"Trial"	n/a	n/a	n/a	"761"	"arrowup"	n/a	"NULL"	"NULL"	"NULL"	"stimuli/MullerLyer_-2.3000_0.35000.png"	n/a	"MullerLyer"	"arrowup"	"1042"	"TRUE"	"MullerLyer"	"-2.300000000"	"0.3500000000"	"1"	"50"
n/a	"html-keyboard-response"	"117"	"331273"	"0.0-5.0-2.0-0.32"	"qa7gxh"	"600"	"1366"	"chrome"	"109.0.0"	"FALSE"	"Windows 10"	"60.37"	"025"	n/a	n/a	n/a	n/a	n/a	n/a	"fixation"	n/a	n/a	n/a	n/a	"NULL"	n/a	"NULL"	"NULL"	"NULL"	"<p style=\"color: black; font-size: 80px; padding-left: 1%; padding-right: 38%; padding-top: 17%; padding-bottom: 5%\">+</p>"	"1186"	n/a	n/a	n/a	n/a	n/a	n/a	n/a	n/a	n/a
n/a	"image-keyboard-response"	"118"	"332029"	"0.0-5.0-2.0-1.32"	"qa7gxh"	"600"	"1366"	"chrome"	"109.0.0"	"FALSE"	"Windows 10"	"60.37"	"025"	n/a	n/a	n/a	n/a	n/a	n/a	"Trial"	n/a	n/a	n/a	"755"	"arrowup"	n/a	"NULL"	"NULL"	"NULL"	"stimuli/MullerLyer_2.30000_0.23665.png"	n/a	"MullerLyer"	"arrowup"	"1196"	"TRUE"	"MullerLyer"	"2.3000000000"	"0.2366500000"	"1"	"51"
n/a	"html-keyboard-response"	"119"	"333118"	"0.0-5.0-2.0-0.33"	"qa7gxh"	"600"	"1366"	"chrome"	"109.0.0"	"FALSE"	"Windows 10"	"60.37"	"025"	n/a	n/a	n/a	n/a	n/a	n/a	"fixation"	n/a	n/a	n/a	n/a	"NULL"	n/a	"NULL"	"NULL"	"NULL"	"<p style=\"color: black; font-size: 80px; padding-left: 0%; padding-right: 7%; padding-top: 38%; padding-bottom: 7%\">+</p>"	"1070"	n/a	n/a	n/a	n/a	n/a	n/a	n/a	n/a	n/a
n/a	"image-keyboard-response"	"120"	"333763"	"0.0-5.0-2.0-1.33"	"qa7gxh"	"600"	"1366"	"chrome"	"109.0.0"	"FALSE"	"Windows 10"	"60.37"	"025"	n/a	n/a	n/a	n/a	n/a	n/a	"Trial"	n/a	n/a	n/a	"645"	"arrowdown"	n/a	"NULL"	"NULL"	"NULL"	"stimuli/MullerLyer_-14.12857_-0.23665.png"	n/a	"MullerLyer"	"arrowdown"	"1089"	"TRUE"	"MullerLyer"	"-14.12857000"	"-0.236650000"	"1"	"52"
n/a	"html-keyboard-response"	"121"	"335143"	"0.0-5.0-2.0-0.34"	"qa7gxh"	"600"	"1366"	"chrome"	"109.0.0"	"FALSE"	"Windows 10"	"60.37"	"025"	n/a	n/a	n/a	n/a	n/a	n/a	"fixation"	n/a	n/a	n/a	n/a	"NULL"	n/a	"NULL"	"NULL"	"NULL"	"<p style=\"color: black; font-size: 80px; padding-left: 28%; padding-right: 41%; padding-top: 11%; padding-bottom: 15%\">+</p>"	"1374"	n/a	n/a	n/a	n/a	n/a	n/a	n/a	n/a	n/a
n/a	"image-keyboard-response"	"122"	"336531"	"0.0-5.0-2.0-1.34"	"qa7gxh"	"600"	"1366"	"chrome"	"109.0.0"	"FALSE"	"Windows 10"	"60.37"	"025"	n/a	n/a	n/a	n/a	n/a	n/a	"Trial"	n/a	n/a	n/a	"1387"	"arrowdown"	n/a	"NULL"	"NULL"	"NULL"	"stimuli/MullerLyer_8.21429_-0.14541.png"	n/a	"MullerLyer"	"arrowdown"	"1380"	"TRUE"	"MullerLyer"	"8.2142900000"	"-0.145410000"	"1"	"53"
n/a	"html-keyboard-response"	"123"	"337664"	"0.0-5.0-2.0-0.35"	"qa7gxh"	"600"	"1366"	"chrome"	"109.0.0"	"FALSE"	"Windows 10"	"60.37"	"025"	n/a	n/a	n/a	n/a	n/a	n/a	"fixation"	n/a	n/a	n/a	n/a	"NULL"	n/a	"NULL"	"NULL"	"NULL"	"<p style=\"color: black; font-size: 80px; padding-left: 5%; padding-right: 30%; padding-top: 33%; padding-bottom: 48%\">+</p>"	"1118"	n/a	n/a	n/a	n/a	n/a	n/a	n/a	n/a	n/a
n/a	"image-keyboard-response"	"124"	"338771"	"0.0-5.0-2.0-1.35"	"qa7gxh"	"600"	"1366"	"chrome"	"109.0.0"	"FALSE"	"Windows 10"	"60.37"	"025"	n/a	n/a	n/a	n/a	n/a	n/a	"Trial"	n/a	n/a	n/a	"1106"	"arrowdown"	n/a	"NULL"	"NULL"	"NULL"	"stimuli/MullerLyer_2.30000_-0.14541.png"	n/a	"MullerLyer"	"arrowdown"	"1133"	"TRUE"	"MullerLyer"	"2.3000000000"	"-0.145410000"	"1"	"54"
n/a	"html-keyboard-response"	"125"	"339803"	"0.0-5.0-2.0-0.36"	"qa7gxh"	"600"	"1366"	"chrome"	"109.0.0"	"FALSE"	"Windows 10"	"60.37"	"025"	n/a	n/a	n/a	n/a	n/a	n/a	"fixation"	n/a	n/a	n/a	n/a	"NULL"	n/a	"NULL"	"NULL"	"NULL"	"<p style=\"color: black; font-size: 80px; padding-left: 6%; padding-right: 47%; padding-top: 46%; padding-bottom: 16%\">+</p>"	"1020"	n/a	n/a	n/a	n/a	n/a	n/a	n/a	n/a	n/a
n/a	"image-keyboard-response"	"126"	"340801"	"0.0-5.0-2.0-1.36"	"qa7gxh"	"600"	"1366"	"chrome"	"109.0.0"	"FALSE"	"Windows 10"	"60.37"	"025"	n/a	n/a	n/a	n/a	n/a	n/a	"Trial"	n/a	n/a	n/a	"997"	"arrowdown"	n/a	"NULL"	"NULL"	"NULL"	"stimuli/MullerLyer_20.04286_0.07627.png"	n/a	"MullerLyer"	"arrowup"	"1032"	"FALSE"	"MullerLyer"	"20.042860000"	"0.0762700000"	"1"	"55"
n/a	"html-keyboard-response"	"127"	"341865"	"0.0-5.0-2.0-0.37"	"qa7gxh"	"600"	"1366"	"chrome"	"109.0.0"	"FALSE"	"Windows 10"	"60.37"	"025"	n/a	n/a	n/a	n/a	n/a	n/a	"fixation"	n/a	n/a	n/a	n/a	"NULL"	n/a	"NULL"	"NULL"	"NULL"	"<p style=\"color: black; font-size: 80px; padding-left: 41%; padding-right: 19%; padding-top: 13%; padding-bottom: 5%\">+</p>"	"1046"	n/a	n/a	n/a	n/a	n/a	n/a	n/a	n/a	n/a
n/a	"image-keyboard-response"	"128"	"342522"	"0.0-5.0-2.0-1.37"	"qa7gxh"	"600"	"1366"	"chrome"	"109.0.0"	"FALSE"	"Windows 10"	"60.37"	"025"	n/a	n/a	n/a	n/a	n/a	n/a	"Trial"	n/a	n/a	n/a	"656"	"arrowup"	n/a	"NULL"	"NULL"	"NULL"	"stimuli/MullerLyer_2.30000_0.35000.png"	n/a	"MullerLyer"	"arrowup"	"1064"	"TRUE"	"MullerLyer"	"2.3000000000"	"0.3500000000"	"1"	"56"
n/a	"html-keyboard-response"	"129"	"343725"	"0.0-5.0-2.0-0.38"	"qa7gxh"	"600"	"1366"	"chrome"	"109.0.0"	"FALSE"	"Windows 10"	"60.37"	"025"	n/a	n/a	n/a	n/a	n/a	n/a	"fixation"	n/a	n/a	n/a	n/a	"NULL"	n/a	"NULL"	"NULL"	"NULL"	"<p style=\"color: black; font-size: 80px; padding-left: 33%; padding-right: 9%; padding-top: 5%; padding-bottom: 18%\">+</p>"	"1186"	n/a	n/a	n/a	n/a	n/a	n/a	n/a	n/a	n/a
n/a	"image-keyboard-response"	"130"	"344393"	"0.0-5.0-2.0-1.38"	"qa7gxh"	"600"	"1366"	"chrome"	"109.0.0"	"FALSE"	"Windows 10"	"60.37"	"025"	n/a	n/a	n/a	n/a	n/a	n/a	"Trial"	n/a	n/a	n/a	"667"	"arrowup"	n/a	"NULL"	"NULL"	"NULL"	"stimuli/MullerLyer_-14.12857_0.14541.png"	n/a	"MullerLyer"	"arrowup"	"1203"	"TRUE"	"MullerLyer"	"-14.12857000"	"0.1454100000"	"1"	"57"
n/a	"html-keyboard-response"	"131"	"345518"	"0.0-5.0-2.0-0.39"	"qa7gxh"	"600"	"1366"	"chrome"	"109.0.0"	"FALSE"	"Windows 10"	"60.37"	"025"	n/a	n/a	n/a	n/a	n/a	n/a	"fixation"	n/a	n/a	n/a	n/a	"NULL"	n/a	"NULL"	"NULL"	"NULL"	"<p style=\"color: black; font-size: 80px; padding-left: 20%; padding-right: 29%; padding-top: 29%; padding-bottom: 8%\">+</p>"	"1106"	n/a	n/a	n/a	n/a	n/a	n/a	n/a	n/a	n/a
n/a	"image-keyboard-response"	"132"	"346873"	"0.0-5.0-2.0-1.39"	"qa7gxh"	"600"	"1366"	"chrome"	"109.0.0"	"FALSE"	"Windows 10"	"60.37"	"025"	n/a	n/a	n/a	n/a	n/a	n/a	"Trial"	n/a	n/a	n/a	"1354"	"arrowup"	n/a	"NULL"	"NULL"	"NULL"	"stimuli/MullerLyer_20.04286_0.35000.png"	n/a	"MullerLyer"	"arrowup"	"1125"	"TRUE"	"MullerLyer"	"20.042860000"	"0.3500000000"	"1"	"58"
n/a	"html-keyboard-response"	"133"	"348373"	"0.0-5.0-2.0-0.40"	"qa7gxh"	"600"	"1366"	"chrome"	"109.0.0"	"FALSE"	"Windows 10"	"60.37"	"025"	n/a	n/a	n/a	n/a	n/a	n/a	"fixation"	n/a	n/a	n/a	n/a	"NULL"	n/a	"NULL"	"NULL"	"NULL"	"<p style=\"color: black; font-size: 80px; padding-left: 20%; padding-right: 3%; padding-top: 2%; padding-bottom: 18%\">+</p>"	"1482"	n/a	n/a	n/a	n/a	n/a	n/a	n/a	n/a	n/a
n/a	"image-keyboard-response"	"134"	"349449"	"0.0-5.0-2.0-1.40"	"qa7gxh"	"600"	"1366"	"chrome"	"109.0.0"	"FALSE"	"Windows 10"	"60.37"	"025"	n/a	n/a	n/a	n/a	n/a	n/a	"Trial"	n/a	n/a	n/a	"1075"	"arrowdown"	n/a	"NULL"	"NULL"	"NULL"	"stimuli/MullerLyer_20.04286_-0.3500.png"	n/a	"MullerLyer"	"arrowdown"	"1500"	"TRUE"	"MullerLyer"	"20.042860000"	"-0.350000000"	"1"	"59"
n/a	"html-keyboard-response"	"135"	"350470"	"0.0-5.0-2.0-0.41"	"qa7gxh"	"600"	"1366"	"chrome"	"109.0.0"	"FALSE"	"Windows 10"	"60.37"	"025"	n/a	n/a	n/a	n/a	n/a	n/a	"fixation"	n/a	n/a	n/a	n/a	"NULL"	n/a	"NULL"	"NULL"	"NULL"	"<p style=\"color: black; font-size: 80px; padding-left: 16%; padding-right: 9%; padding-top: 46%; padding-bottom: 1%\">+</p>"	"1012"	n/a	n/a	n/a	n/a	n/a	n/a	n/a	n/a	n/a
n/a	"image-keyboard-response"	"136"	"351265"	"0.0-5.0-2.0-1.41"	"qa7gxh"	"600"	"1366"	"chrome"	"109.0.0"	"FALSE"	"Windows 10"	"60.37"	"025"	n/a	n/a	n/a	n/a	n/a	n/a	"Trial"	n/a	n/a	n/a	"794"	"arrowdown"	n/a	"NULL"	"NULL"	"NULL"	"stimuli/MullerLyer_-2.3000_-0.23665.png"	n/a	"MullerLyer"	"arrowdown"	"1021"	"TRUE"	"MullerLyer"	"-2.300000000"	"-0.236650000"	"1"	"60"
n/a	"html-keyboard-response"	"137"	"352342"	"0.0-5.0-2.0-0.42"	"qa7gxh"	"600"	"1366"	"chrome"	"109.0.0"	"FALSE"	"Windows 10"	"60.37"	"025"	n/a	n/a	n/a	n/a	n/a	n/a	"fixation"	n/a	n/a	n/a	n/a	"NULL"	n/a	"NULL"	"NULL"	"NULL"	"<p style=\"color: black; font-size: 80px; padding-left: 30%; padding-right: 5%; padding-top: 8%; padding-bottom: 7%\">+</p>"	"1069"	n/a	n/a	n/a	n/a	n/a	n/a	n/a	n/a	n/a
n/a	"image-keyboard-response"	"138"	"353128"	"0.0-5.0-2.0-1.42"	"qa7gxh"	"600"	"1366"	"chrome"	"109.0.0"	"FALSE"	"Windows 10"	"60.37"	"025"	n/a	n/a	n/a	n/a	n/a	n/a	"Trial"	n/a	n/a	n/a	"785"	"arrowup"	n/a	"NULL"	"NULL"	"NULL"	"stimuli/MullerLyer_-14.12857_0.35000.png"	n/a	"MullerLyer"	"arrowup"	"1077"	"TRUE"	"MullerLyer"	"-14.12857000"	"0.3500000000"	"1"	"61"
n/a	"html-keyboard-response"	"139"	"354489"	"0.0-5.0-2.0-0.43"	"qa7gxh"	"600"	"1366"	"chrome"	"109.0.0"	"FALSE"	"Windows 10"	"60.37"	"025"	n/a	n/a	n/a	n/a	n/a	n/a	"fixation"	n/a	n/a	n/a	n/a	"NULL"	n/a	"NULL"	"NULL"	"NULL"	"<p style=\"color: black; font-size: 80px; padding-left: 36%; padding-right: 46%; padding-top: 24%; padding-bottom: 42%\">+</p>"	"1350"	n/a	n/a	n/a	n/a	n/a	n/a	n/a	n/a	n/a
n/a	"image-keyboard-response"	"140"	"355333"	"0.0-5.0-2.0-1.43"	"qa7gxh"	"600"	"1366"	"chrome"	"109.0.0"	"FALSE"	"Windows 10"	"60.37"	"025"	n/a	n/a	n/a	n/a	n/a	n/a	"Trial"	n/a	n/a	n/a	"843"	"arrowdown"	n/a	"NULL"	"NULL"	"NULL"	"stimuli/MullerLyer_20.04286_0.14541.png"	n/a	"MullerLyer"	"arrowup"	"1361"	"FALSE"	"MullerLyer"	"20.042860000"	"0.1454100000"	"1"	"62"
n/a	"html-keyboard-response"	"141"	"356537"	"0.0-5.0-2.0-0.44"	"qa7gxh"	"600"	"1366"	"chrome"	"109.0.0"	"FALSE"	"Windows 10"	"60.37"	"025"	n/a	n/a	n/a	n/a	n/a	n/a	"fixation"	n/a	n/a	n/a	n/a	"NULL"	n/a	"NULL"	"NULL"	"NULL"	"<p style=\"color: black; font-size: 80px; padding-left: 5%; padding-right: 12%; padding-top: 9%; padding-bottom: 15%\">+</p>"	"1191"	n/a	n/a	n/a	n/a	n/a	n/a	n/a	n/a	n/a
n/a	"image-keyboard-response"	"142"	"357453"	"0.0-5.0-2.0-1.44"	"qa7gxh"	"600"	"1366"	"chrome"	"109.0.0"	"FALSE"	"Windows 10"	"60.37"	"025"	n/a	n/a	n/a	n/a	n/a	n/a	"Trial"	n/a	n/a	n/a	"915"	"arrowup"	n/a	"NULL"	"NULL"	"NULL"	"stimuli/MullerLyer_-2.3000_0.07627.png"	n/a	"MullerLyer"	"arrowup"	"1204"	"TRUE"	"MullerLyer"	"-2.300000000"	"0.0762700000"	"1"	"63"
n/a	"html-keyboard-response"	"143"	"358773"	"0.0-5.0-2.0-0.45"	"qa7gxh"	"600"	"1366"	"chrome"	"109.0.0"	"FALSE"	"Windows 10"	"60.37"	"025"	n/a	n/a	n/a	n/a	n/a	n/a	"fixation"	n/a	n/a	n/a	n/a	"NULL"	n/a	"NULL"	"NULL"	"NULL"	"<p style=\"color: black; font-size: 80px; padding-left: 13%; padding-right: 44%; padding-top: 10%; padding-bottom: 28%\">+</p>"	"1310"	n/a	n/a	n/a	n/a	n/a	n/a	n/a	n/a	n/a
n/a	"image-keyboard-response"	"144"	"359898"	"0.0-5.0-2.0-1.45"	"qa7gxh"	"600"	"1366"	"chrome"	"109.0.0"	"FALSE"	"Windows 10"	"60.37"	"025"	n/a	n/a	n/a	n/a	n/a	n/a	"Trial"	n/a	n/a	n/a	"1125"	"arrowdown"	n/a	"NULL"	"NULL"	"NULL"	"stimuli/MullerLyer_20.04286_-0.23665.png"	n/a	"MullerLyer"	"arrowdown"	"1320"	"TRUE"	"MullerLyer"	"20.042860000"	"-0.236650000"	"1"	"64"
n/a	"html-keyboard-response"	"145"	"361183"	"0.0-5.0-2.0-0.46"	"qa7gxh"	"600"	"1366"	"chrome"	"109.0.0"	"FALSE"	"Windows 10"	"60.37"	"025"	n/a	n/a	n/a	n/a	n/a	n/a	"fixation"	n/a	n/a	n/a	n/a	"NULL"	n/a	"NULL"	"NULL"	"NULL"	"<p style=\"color: black; font-size: 80px; padding-left: 45%; padding-right: 13%; padding-top: 39%; padding-bottom: 39%\">+</p>"	"1278"	n/a	n/a	n/a	n/a	n/a	n/a	n/a	n/a	n/a
n/a	"image-keyboard-response"	"146"	"361894"	"0.0-5.0-2.0-1.46"	"qa7gxh"	"600"	"1366"	"chrome"	"109.0.0"	"FALSE"	"Windows 10"	"60.37"	"025"	n/a	n/a	n/a	n/a	n/a	n/a	"Trial"	n/a	n/a	n/a	"711"	"arrowdown"	n/a	"NULL"	"NULL"	"NULL"	"stimuli/MullerLyer_-14.12857_-0.3500.png"	n/a	"MullerLyer"	"arrowdown"	"1285"	"TRUE"	"MullerLyer"	"-14.12857000"	"-0.350000000"	"1"	"65"
n/a	"html-keyboard-response"	"147"	"363187"	"0.0-5.0-2.0-0.47"	"qa7gxh"	"600"	"1366"	"chrome"	"109.0.0"	"FALSE"	"Windows 10"	"60.37"	"025"	n/a	n/a	n/a	n/a	n/a	n/a	"fixation"	n/a	n/a	n/a	n/a	"NULL"	n/a	"NULL"	"NULL"	"NULL"	"<p style=\"color: black; font-size: 80px; padding-left: 23%; padding-right: 49%; padding-top: 8%; padding-bottom: 26%\">+</p>"	"1284"	n/a	n/a	n/a	n/a	n/a	n/a	n/a	n/a	n/a
n/a	"image-keyboard-response"	"148"	"364218"	"0.0-5.0-2.0-1.47"	"qa7gxh"	"600"	"1366"	"chrome"	"109.0.0"	"FALSE"	"Windows 10"	"60.37"	"025"	n/a	n/a	n/a	n/a	n/a	n/a	"Trial"	n/a	n/a	n/a	"1031"	"arrowup"	n/a	"NULL"	"NULL"	"NULL"	"stimuli/MullerLyer_-14.12857_0.07627.png"	n/a	"MullerLyer"	"arrowup"	"1293"	"TRUE"	"MullerLyer"	"-14.12857000"	"0.0762700000"	"1"	"66"
n/a	"html-keyboard-response"	"149"	"365618"	"0.0-5.0-2.0-0.48"	"qa7gxh"	"600"	"1366"	"chrome"	"109.0.0"	"FALSE"	"Windows 10"	"60.37"	"025"	n/a	n/a	n/a	n/a	n/a	n/a	"fixation"	n/a	n/a	n/a	n/a	"NULL"	n/a	"NULL"	"NULL"	"NULL"	"<p style=\"color: black; font-size: 80px; padding-left: 10%; padding-right: 38%; padding-top: 35%; padding-bottom: 40%\">+</p>"	"1387"	n/a	n/a	n/a	n/a	n/a	n/a	n/a	n/a	n/a
n/a	"image-keyboard-response"	"150"	"366250"	"0.0-5.0-2.0-1.48"	"qa7gxh"	"600"	"1366"	"chrome"	"109.0.0"	"FALSE"	"Windows 10"	"60.37"	"025"	n/a	n/a	n/a	n/a	n/a	n/a	"Trial"	n/a	n/a	n/a	"631"	"arrowdown"	n/a	"NULL"	"NULL"	"NULL"	"stimuli/MullerLyer_-8.21429_-0.23665.png"	n/a	"MullerLyer"	"arrowdown"	"1400"	"TRUE"	"MullerLyer"	"-8.214290000"	"-0.236650000"	"1"	"67"
n/a	"html-keyboard-response"	"151"	"367653"	"0.0-5.0-2.0-0.49"	"qa7gxh"	"600"	"1366"	"chrome"	"109.0.0"	"FALSE"	"Windows 10"	"60.37"	"025"	n/a	n/a	n/a	n/a	n/a	n/a	"fixation"	n/a	n/a	n/a	n/a	"NULL"	n/a	"NULL"	"NULL"	"NULL"	"<p style=\"color: black; font-size: 80px; padding-left: 7%; padding-right: 37%; padding-top: 5%; padding-bottom: 24%\">+</p>"	"1399"	n/a	n/a	n/a	n/a	n/a	n/a	n/a	n/a	n/a
n/a	"image-keyboard-response"	"152"	"368370"	"0.0-5.0-2.0-1.49"	"qa7gxh"	"600"	"1366"	"chrome"	"109.0.0"	"FALSE"	"Windows 10"	"60.37"	"025"	n/a	n/a	n/a	n/a	n/a	n/a	"Trial"	n/a	n/a	n/a	"716"	"arrowup"	n/a	"NULL"	"NULL"	"NULL"	"stimuli/MullerLyer_-20.04286_0.14541.png"	n/a	"MullerLyer"	"arrowup"	"1403"	"TRUE"	"MullerLyer"	"-20.04286000"	"0.1454100000"	"1"	"68"
n/a	"html-keyboard-response"	"153"	"369520"	"0.0-5.0-2.0-0.50"	"qa7gxh"	"600"	"1366"	"chrome"	"109.0.0"	"FALSE"	"Windows 10"	"60.37"	"025"	n/a	n/a	n/a	n/a	n/a	n/a	"fixation"	n/a	n/a	n/a	n/a	"NULL"	n/a	"NULL"	"NULL"	"NULL"	"<p style=\"color: black; font-size: 80px; padding-left: 26%; padding-right: 44%; padding-top: 39%; padding-bottom: 5%\">+</p>"	"1131"	n/a	n/a	n/a	n/a	n/a	n/a	n/a	n/a	n/a
n/a	"image-keyboard-response"	"154"	"370203"	"0.0-5.0-2.0-1.50"	"qa7gxh"	"600"	"1366"	"chrome"	"109.0.0"	"FALSE"	"Windows 10"	"60.37"	"025"	n/a	n/a	n/a	n/a	n/a	n/a	"Trial"	n/a	n/a	n/a	"682"	"arrowdown"	n/a	"NULL"	"NULL"	"NULL"	"stimuli/MullerLyer_8.21429_-0.3500.png"	n/a	"MullerLyer"	"arrowdown"	"1150"	"TRUE"	"MullerLyer"	"8.2142900000"	"-0.350000000"	"1"	"69"
n/a	"html-keyboard-response"	"155"	"371287"	"0.0-5.0-2.0-0.51"	"qa7gxh"	"600"	"1366"	"chrome"	"109.0.0"	"FALSE"	"Windows 10"	"60.37"	"025"	n/a	n/a	n/a	n/a	n/a	n/a	"fixation"	n/a	n/a	n/a	n/a	"NULL"	n/a	"NULL"	"NULL"	"NULL"	"<p style=\"color: black; font-size: 80px; padding-left: 23%; padding-right: 42%; padding-top: 19%; padding-bottom: 49%\">+</p>"	"1067"	n/a	n/a	n/a	n/a	n/a	n/a	n/a	n/a	n/a
n/a	"image-keyboard-response"	"156"	"371897"	"0.0-5.0-2.0-1.51"	"qa7gxh"	"600"	"1366"	"chrome"	"109.0.0"	"FALSE"	"Windows 10"	"60.37"	"025"	n/a	n/a	n/a	n/a	n/a	n/a	"Trial"	n/a	n/a	n/a	"610"	"arrowup"	n/a	"NULL"	"NULL"	"NULL"	"stimuli/MullerLyer_-8.21429_0.23665.png"	n/a	"MullerLyer"	"arrowup"	"1084"	"TRUE"	"MullerLyer"	"-8.214290000"	"0.2366500000"	"1"	"70"
n/a	"html-keyboard-response"	"157"	"372937"	"0.0-5.0-2.0-0.52"	"qa7gxh"	"600"	"1366"	"chrome"	"109.0.0"	"FALSE"	"Windows 10"	"60.37"	"025"	n/a	n/a	n/a	n/a	n/a	n/a	"fixation"	n/a	n/a	n/a	n/a	"NULL"	n/a	"NULL"	"NULL"	"NULL"	"<p style=\"color: black; font-size: 80px; padding-left: 49%; padding-right: 33%; padding-top: 24%; padding-bottom: 21%\">+</p>"	"1023"	n/a	n/a	n/a	n/a	n/a	n/a	n/a	n/a	n/a
n/a	"image-keyboard-response"	"158"	"373581"	"0.0-5.0-2.0-1.52"	"qa7gxh"	"600"	"1366"	"chrome"	"109.0.0"	"FALSE"	"Windows 10"	"60.37"	"025"	n/a	n/a	n/a	n/a	n/a	n/a	"Trial"	n/a	n/a	n/a	"644"	"arrowdown"	n/a	"NULL"	"NULL"	"NULL"	"stimuli/MullerLyer_2.30000_-0.23665.png"	n/a	"MullerLyer"	"arrowdown"	"1040"	"TRUE"	"MullerLyer"	"2.3000000000"	"-0.236650000"	"1"	"71"
n/a	"html-keyboard-response"	"159"	"375021"	"0.0-5.0-2.0-0.53"	"qa7gxh"	"600"	"1366"	"chrome"	"109.0.0"	"FALSE"	"Windows 10"	"60.37"	"025"	n/a	n/a	n/a	n/a	n/a	n/a	"fixation"	n/a	n/a	n/a	n/a	"NULL"	n/a	"NULL"	"NULL"	"NULL"	"<p style=\"color: black; font-size: 80px; padding-left: 25%; padding-right: 31%; padding-top: 44%; padding-bottom: 29%\">+</p>"	"1427"	n/a	n/a	n/a	n/a	n/a	n/a	n/a	n/a	n/a
n/a	"image-keyboard-response"	"160"	"375643"	"0.0-5.0-2.0-1.53"	"qa7gxh"	"600"	"1366"	"chrome"	"109.0.0"	"FALSE"	"Windows 10"	"60.37"	"025"	n/a	n/a	n/a	n/a	n/a	n/a	"Trial"	n/a	n/a	n/a	"621"	"arrowup"	n/a	"NULL"	"NULL"	"NULL"	"stimuli/MullerLyer_-8.21429_0.35000.png"	n/a	"MullerLyer"	"arrowup"	"1440"	"TRUE"	"MullerLyer"	"-8.214290000"	"0.3500000000"	"1"	"72"
n/a	"html-keyboard-response"	"161"	"376765"	"0.0-5.0-2.0-0.54"	"qa7gxh"	"600"	"1366"	"chrome"	"109.0.0"	"FALSE"	"Windows 10"	"60.37"	"025"	n/a	n/a	n/a	n/a	n/a	n/a	"fixation"	n/a	n/a	n/a	n/a	"NULL"	n/a	"NULL"	"NULL"	"NULL"	"<p style=\"color: black; font-size: 80px; padding-left: 38%; padding-right: 17%; padding-top: 8%; padding-bottom: 12%\">+</p>"	"1115"	n/a	n/a	n/a	n/a	n/a	n/a	n/a	n/a	n/a
n/a	"image-keyboard-response"	"162"	"377373"	"0.0-5.0-2.0-1.54"	"qa7gxh"	"600"	"1366"	"chrome"	"109.0.0"	"FALSE"	"Windows 10"	"60.37"	"025"	n/a	n/a	n/a	n/a	n/a	n/a	"Trial"	n/a	n/a	n/a	"608"	"arrowdown"	n/a	"NULL"	"NULL"	"NULL"	"stimuli/MullerLyer_-20.04286_-0.07627.png"	n/a	"MullerLyer"	"arrowdown"	"1122"	"TRUE"	"MullerLyer"	"-20.04286000"	"-0.076270000"	"1"	"73"
n/a	"html-keyboard-response"	"163"	"378781"	"0.0-5.0-2.0-0.55"	"qa7gxh"	"600"	"1366"	"chrome"	"109.0.0"	"FALSE"	"Windows 10"	"60.37"	"025"	n/a	n/a	n/a	n/a	n/a	n/a	"fixation"	n/a	n/a	n/a	n/a	"NULL"	n/a	"NULL"	"NULL"	"NULL"	"<p style=\"color: black; font-size: 80px; padding-left: 44%; padding-right: 10%; padding-top: 1%; padding-bottom: 43%\">+</p>"	"1394"	n/a	n/a	n/a	n/a	n/a	n/a	n/a	n/a	n/a
n/a	"image-keyboard-response"	"164"	"379638"	"0.0-5.0-2.0-1.55"	"qa7gxh"	"600"	"1366"	"chrome"	"109.0.0"	"FALSE"	"Windows 10"	"60.37"	"025"	n/a	n/a	n/a	n/a	n/a	n/a	"Trial"	n/a	n/a	n/a	"857"	"arrowup"	n/a	"NULL"	"NULL"	"NULL"	"stimuli/MullerLyer_8.21429_0.07627.png"	n/a	"MullerLyer"	"arrowup"	"1408"	"TRUE"	"MullerLyer"	"8.2142900000"	"0.0762700000"	"1"	"74"
n/a	"html-keyboard-response"	"165"	"380975"	"0.0-5.0-2.0-0.56"	"qa7gxh"	"600"	"1366"	"chrome"	"109.0.0"	"FALSE"	"Windows 10"	"60.37"	"025"	n/a	n/a	n/a	n/a	n/a	n/a	"fixation"	n/a	n/a	n/a	n/a	"NULL"	n/a	"NULL"	"NULL"	"NULL"	"<p style=\"color: black; font-size: 80px; padding-left: 48%; padding-right: 33%; padding-top: 41%; padding-bottom: 17%\">+</p>"	"1324"	n/a	n/a	n/a	n/a	n/a	n/a	n/a	n/a	n/a
n/a	"image-keyboard-response"	"166"	"381765"	"0.0-5.0-2.0-1.56"	"qa7gxh"	"600"	"1366"	"chrome"	"109.0.0"	"FALSE"	"Windows 10"	"60.37"	"025"	n/a	n/a	n/a	n/a	n/a	n/a	"Trial"	n/a	n/a	n/a	"789"	"arrowdown"	n/a	"NULL"	"NULL"	"NULL"	"stimuli/MullerLyer_14.12857_-0.23665.png"	n/a	"MullerLyer"	"arrowdown"	"1337"	"TRUE"	"MullerLyer"	"14.128570000"	"-0.236650000"	"1"	"75"
n/a	"html-keyboard-response"	"167"	"383226"	"0.0-5.0-2.0-0.57"	"qa7gxh"	"600"	"1366"	"chrome"	"109.0.0"	"FALSE"	"Windows 10"	"60.37"	"025"	n/a	n/a	n/a	n/a	n/a	n/a	"fixation"	n/a	n/a	n/a	n/a	"NULL"	n/a	"NULL"	"NULL"	"NULL"	"<p style=\"color: black; font-size: 80px; padding-left: 16%; padding-right: 41%; padding-top: 15%; padding-bottom: 15%\">+</p>"	"1443"	n/a	n/a	n/a	n/a	n/a	n/a	n/a	n/a	n/a
n/a	"image-keyboard-response"	"168"	"384112"	"0.0-5.0-2.0-1.57"	"qa7gxh"	"600"	"1366"	"chrome"	"109.0.0"	"FALSE"	"Windows 10"	"60.37"	"025"	n/a	n/a	n/a	n/a	n/a	n/a	"Trial"	n/a	n/a	n/a	"885"	"arrowup"	n/a	"NULL"	"NULL"	"NULL"	"stimuli/MullerLyer_14.12857_0.23665.png"	n/a	"MullerLyer"	"arrowup"	"1461"	"TRUE"	"MullerLyer"	"14.128570000"	"0.2366500000"	"1"	"76"
n/a	"html-keyboard-response"	"169"	"385285"	"0.0-5.0-2.0-0.58"	"qa7gxh"	"600"	"1366"	"chrome"	"109.0.0"	"FALSE"	"Windows 10"	"60.37"	"025"	n/a	n/a	n/a	n/a	n/a	n/a	"fixation"	n/a	n/a	n/a	n/a	"NULL"	n/a	"NULL"	"NULL"	"NULL"	"<p style=\"color: black; font-size: 80px; padding-left: 34%; padding-right: 22%; padding-top: 33%; padding-bottom: 48%\">+</p>"	"1167"	n/a	n/a	n/a	n/a	n/a	n/a	n/a	n/a	n/a
n/a	"image-keyboard-response"	"170"	"386188"	"0.0-5.0-2.0-1.58"	"qa7gxh"	"600"	"1366"	"chrome"	"109.0.0"	"FALSE"	"Windows 10"	"60.37"	"025"	n/a	n/a	n/a	n/a	n/a	n/a	"Trial"	n/a	n/a	n/a	"902"	"arrowdown"	n/a	"NULL"	"NULL"	"NULL"	"stimuli/MullerLyer_14.12857_-0.3500.png"	n/a	"MullerLyer"	"arrowdown"	"1173"	"TRUE"	"MullerLyer"	"14.128570000"	"-0.350000000"	"1"	"77"
n/a	"html-keyboard-response"	"171"	"387393"	"0.0-5.0-2.0-0.59"	"qa7gxh"	"600"	"1366"	"chrome"	"109.0.0"	"FALSE"	"Windows 10"	"60.37"	"025"	n/a	n/a	n/a	n/a	n/a	n/a	"fixation"	n/a	n/a	n/a	n/a	"NULL"	n/a	"NULL"	"NULL"	"NULL"	"<p style=\"color: black; font-size: 80px; padding-left: 35%; padding-right: 25%; padding-top: 24%; padding-bottom: 30%\">+</p>"	"1192"	n/a	n/a	n/a	n/a	n/a	n/a	n/a	n/a	n/a
n/a	"image-keyboard-response"	"172"	"388342"	"0.0-5.0-2.0-1.59"	"qa7gxh"	"600"	"1366"	"chrome"	"109.0.0"	"FALSE"	"Windows 10"	"60.37"	"025"	n/a	n/a	n/a	n/a	n/a	n/a	"Trial"	n/a	n/a	n/a	"948"	"arrowdown"	n/a	"NULL"	"NULL"	"NULL"	"stimuli/MullerLyer_-8.21429_-0.14541.png"	n/a	"MullerLyer"	"arrowdown"	"1205"	"TRUE"	"MullerLyer"	"-8.214290000"	"-0.145410000"	"1"	"78"
n/a	"html-keyboard-response"	"173"	"389553"	"0.0-5.0-2.0-0.60"	"qa7gxh"	"600"	"1366"	"chrome"	"109.0.0"	"FALSE"	"Windows 10"	"60.37"	"025"	n/a	n/a	n/a	n/a	n/a	n/a	"fixation"	n/a	n/a	n/a	n/a	"NULL"	n/a	"NULL"	"NULL"	"NULL"	"<p style=\"color: black; font-size: 80px; padding-left: 35%; padding-right: 31%; padding-top: 2%; padding-bottom: 11%\">+</p>"	"1203"	n/a	n/a	n/a	n/a	n/a	n/a	n/a	n/a	n/a
n/a	"image-keyboard-response"	"174"	"390229"	"0.0-5.0-2.0-1.60"	"qa7gxh"	"600"	"1366"	"chrome"	"109.0.0"	"FALSE"	"Windows 10"	"60.37"	"025"	n/a	n/a	n/a	n/a	n/a	n/a	"Trial"	n/a	n/a	n/a	"675"	"arrowup"	n/a	"NULL"	"NULL"	"NULL"	"stimuli/MullerLyer_8.21429_0.35000.png"	n/a	"MullerLyer"	"arrowup"	"1211"	"TRUE"	"MullerLyer"	"8.2142900000"	"0.3500000000"	"1"	"79"
n/a	"html-keyboard-response"	"175"	"391677"	"0.0-5.0-2.0-0.61"	"qa7gxh"	"600"	"1366"	"chrome"	"109.0.0"	"FALSE"	"Windows 10"	"60.37"	"025"	n/a	n/a	n/a	n/a	n/a	n/a	"fixation"	n/a	n/a	n/a	n/a	"NULL"	n/a	"NULL"	"NULL"	"NULL"	"<p style=\"color: black; font-size: 80px; padding-left: 5%; padding-right: 6%; padding-top: 25%; padding-bottom: 39%\">+</p>"	"1442"	n/a	n/a	n/a	n/a	n/a	n/a	n/a	n/a	n/a
n/a	"image-keyboard-response"	"176"	"392473"	"0.0-5.0-2.0-1.61"	"qa7gxh"	"600"	"1366"	"chrome"	"109.0.0"	"FALSE"	"Windows 10"	"60.37"	"025"	n/a	n/a	n/a	n/a	n/a	n/a	"Trial"	n/a	n/a	n/a	"795"	"arrowup"	n/a	"NULL"	"NULL"	"NULL"	"stimuli/MullerLyer_2.30000_0.14541.png"	n/a	"MullerLyer"	"arrowup"	"1448"	"TRUE"	"MullerLyer"	"2.3000000000"	"0.1454100000"	"1"	"80"
n/a	"html-keyboard-response"	"177"	"393724"	"0.0-5.0-2.0-0.62"	"qa7gxh"	"600"	"1366"	"chrome"	"109.0.0"	"FALSE"	"Windows 10"	"60.37"	"025"	n/a	n/a	n/a	n/a	n/a	n/a	"fixation"	n/a	n/a	n/a	n/a	"NULL"	n/a	"NULL"	"NULL"	"NULL"	"<p style=\"color: black; font-size: 80px; padding-left: 43%; padding-right: 21%; padding-top: 17%; padding-bottom: 47%\">+</p>"	"1234"	n/a	n/a	n/a	n/a	n/a	n/a	n/a	n/a	n/a
n/a	"image-keyboard-response"	"178"	"394482"	"0.0-5.0-2.0-1.62"	"qa7gxh"	"600"	"1366"	"chrome"	"109.0.0"	"FALSE"	"Windows 10"	"60.37"	"025"	n/a	n/a	n/a	n/a	n/a	n/a	"Trial"	n/a	n/a	n/a	"756"	"arrowdown"	n/a	"NULL"	"NULL"	"NULL"	"stimuli/MullerLyer_2.30000_-0.3500.png"	n/a	"MullerLyer"	"arrowdown"	"1251"	"TRUE"	"MullerLyer"	"2.3000000000"	"-0.350000000"	"1"	"81"
n/a	"html-keyboard-response"	"179"	"395851"	"0.0-5.0-2.0-0.63"	"qa7gxh"	"600"	"1366"	"chrome"	"109.0.0"	"FALSE"	"Windows 10"	"60.37"	"025"	n/a	n/a	n/a	n/a	n/a	n/a	"fixation"	n/a	n/a	n/a	n/a	"NULL"	n/a	"NULL"	"NULL"	"NULL"	"<p style=\"color: black; font-size: 80px; padding-left: 12%; padding-right: 29%; padding-top: 3%; padding-bottom: 34%\">+</p>"	"1360"	n/a	n/a	n/a	n/a	n/a	n/a	n/a	n/a	n/a
n/a	"image-keyboard-response"	"180"	"396721"	"0.0-5.0-2.0-1.63"	"qa7gxh"	"600"	"1366"	"chrome"	"109.0.0"	"FALSE"	"Windows 10"	"60.37"	"025"	n/a	n/a	n/a	n/a	n/a	n/a	"Trial"	n/a	n/a	n/a	"870"	"arrowup"	n/a	"NULL"	"NULL"	"NULL"	"stimuli/MullerLyer_-20.04286_0.07627.png"	n/a	"MullerLyer"	"arrowup"	"1369"	"TRUE"	"MullerLyer"	"-20.04286000"	"0.0762700000"	"1"	"82"
n/a	"html-button-response"	"181"	"414293"	"0.0-5.0-3.0"	"qa7gxh"	"600"	"1366"	"chrome"	"109.0.0"	"FALSE"	"Windows 10"	"60.37"	"025"	n/a	n/a	n/a	n/a	n/a	n/a	"block_results"	n/a	n/a	n/a	"17569"	"0"	n/a	"NULL"	"NULL"	"NULL"	"<p>Your score for this illusion is <p style=\"color: black; font-size: 48px; font-weight: bold;\">71.1 %</p><hr><p>Can you do better in the next illusion?</p>"	n/a	n/a	n/a	n/a	n/a	n/a	n/a	n/a	n/a	n/a
"TRUE"	"preload"	"182"	"414463"	"0.0-6.0-0.0"	"qa7gxh"	"600"	"1366"	"chrome"	"109.0.0"	"FALSE"	"Windows 10"	"60.37"	"025"	n/a	n/a	n/a	n/a	n/a	n/a	n/a	n/a	n/a	n/a	n/a	"NULL"	"FALSE"	"list()"	"list()"	"list()"	n/a	n/a	n/a	n/a	n/a	n/a	n/a	n/a	n/a	n/a	n/a
n/a	"html-keyboard-response"	"183"	"423480"	"0.0-6.0-1.0"	"qa7gxh"	"600"	"1366"	"chrome"	"109.0.0"	"FALSE"	"Windows 10"	"60.37"	"025"	n/a	n/a	n/a	n/a	n/a	n/a	n/a	n/a	n/a	n/a	"9016"	"enter"	n/a	"NULL"	"NULL"	"NULL"	"<p><b>Part 2/6</b></p><p>In this part, two red lines will appear side by side.</p><p>Your task is to tell <b>which line is longer</b> in length, regardless of their orientation, as fast as you can, and without making errors.</p><p>Don't get distracted by the orientation of the lines!</p><p>Press <b>the LEFT or the RIGHT arrow</b> to indicate which <b>line is the longer one.</b></p><div style='float: center'><img src='materials/instructions/VerticalHorizontal_Demo.png' height='300'></img><p><img src='utils/answer/answer_leftright_keyboard.PNG' height='150'></img></p><p class='small'>In this example, the correct answer is the <b>LEFT arrow</b>.</p></div><p>Are you ready? <b>Press ENTER to start</b></p>"	n/a	n/a	n/a	n/a	n/a	n/a	n/a	n/a	n/a	n/a
n/a	"html-keyboard-response"	"184"	"425506"	"0.0-6.0-2.0-0.0"	"qa7gxh"	"600"	"1366"	"chrome"	"109.0.0"	"FALSE"	"Windows 10"	"60.37"	"025"	n/a	n/a	n/a	n/a	n/a	n/a	"fixation"	n/a	n/a	n/a	n/a	"NULL"	n/a	"NULL"	"NULL"	"NULL"	"<p style=\"color: black; font-size: 80px; padding-left: 50%; padding-right: 32%; padding-top: 28%; padding-bottom: 32%\">+</p>"	"1490"	n/a	n/a	n/a	n/a	n/a	n/a	n/a	n/a	n/a
n/a	"image-keyboard-response"	"185"	"426102"	"0.0-6.0-2.0-1.0"	"qa7gxh"	"600"	"1366"	"chrome"	"109.0.0"	"FALSE"	"Windows 10"	"60.37"	"025"	n/a	n/a	n/a	n/a	n/a	n/a	"Trial"	n/a	n/a	n/a	"596"	"arrowright"	n/a	"NULL"	"NULL"	"NULL"	"stimuli/VerticalHorizontal_11.78571_-0.2250.png"	n/a	"VerticalHorizontal"	"arrowright"	"2026"	"TRUE"	"VerticalHorizontal"	"11.785710000"	"-0.225000000"	"2"	"1"
n/a	"html-keyboard-response"	"186"	"427256"	"0.0-6.0-2.0-0.1"	"qa7gxh"	"600"	"1366"	"chrome"	"109.0.0"	"FALSE"	"Windows 10"	"60.37"	"025"	n/a	n/a	n/a	n/a	n/a	n/a	"fixation"	n/a	n/a	n/a	n/a	"NULL"	n/a	"NULL"	"NULL"	"NULL"	"<p style=\"color: black; font-size: 80px; padding-left: 14%; padding-right: 47%; padding-top: 35%; padding-bottom: 14%\">+</p>"	"1132"	n/a	n/a	n/a	n/a	n/a	n/a	n/a	n/a	n/a
n/a	"image-keyboard-response"	"187"	"428273"	"0.0-6.0-2.0-1.1"	"qa7gxh"	"600"	"1366"	"chrome"	"109.0.0"	"FALSE"	"Windows 10"	"60.37"	"025"	n/a	n/a	n/a	n/a	n/a	n/a	"Trial"	n/a	n/a	n/a	"1016"	"arrowright"	n/a	"NULL"	"NULL"	"NULL"	"stimuli/VerticalHorizontal_28.75714_0.06730.png"	n/a	"VerticalHorizontal"	"arrowleft"	"1154"	"FALSE"	"VerticalHorizontal"	"28.757140000"	"0.0673000000"	"2"	"2"
n/a	"html-keyboard-response"	"188"	"429656"	"0.0-6.0-2.0-0.2"	"qa7gxh"	"600"	"1366"	"chrome"	"109.0.0"	"FALSE"	"Windows 10"	"60.37"	"025"	n/a	n/a	n/a	n/a	n/a	n/a	"fixation"	n/a	n/a	n/a	n/a	"NULL"	n/a	"NULL"	"NULL"	"NULL"	"<p style=\"color: black; font-size: 80px; padding-left: 22%; padding-right: 12%; padding-top: 16%; padding-bottom: 37%\">+</p>"	"1377"	n/a	n/a	n/a	n/a	n/a	n/a	n/a	n/a	n/a
n/a	"image-keyboard-response"	"189"	"430399"	"0.0-6.0-2.0-1.2"	"qa7gxh"	"600"	"1366"	"chrome"	"109.0.0"	"FALSE"	"Windows 10"	"60.37"	"025"	n/a	n/a	n/a	n/a	n/a	n/a	"Trial"	n/a	n/a	n/a	"742"	"arrowleft"	n/a	"NULL"	"NULL"	"NULL"	"stimuli/VerticalHorizontal_-3.3000_0.22500.png"	n/a	"VerticalHorizontal"	"arrowleft"	"1383"	"TRUE"	"VerticalHorizontal"	"-3.300000000"	"0.2250000000"	"2"	"3"
n/a	"html-keyboard-response"	"190"	"431525"	"0.0-6.0-2.0-0.3"	"qa7gxh"	"600"	"1366"	"chrome"	"109.0.0"	"FALSE"	"Windows 10"	"60.37"	"025"	n/a	n/a	n/a	n/a	n/a	n/a	"fixation"	n/a	n/a	n/a	n/a	"NULL"	n/a	"NULL"	"NULL"	"NULL"	"<p style=\"color: black; font-size: 80px; padding-left: 40%; padding-right: 47%; padding-top: 35%; padding-bottom: 48%\">+</p>"	"1116"	n/a	n/a	n/a	n/a	n/a	n/a	n/a	n/a	n/a
n/a	"image-keyboard-response"	"191"	"432137"	"0.0-6.0-2.0-1.3"	"qa7gxh"	"600"	"1366"	"chrome"	"109.0.0"	"FALSE"	"Windows 10"	"60.37"	"025"	n/a	n/a	n/a	n/a	n/a	n/a	"Trial"	n/a	n/a	n/a	"611"	"arrowright"	n/a	"NULL"	"NULL"	"NULL"	"stimuli/VerticalHorizontal_-11.78571_-0.16217.png"	n/a	"VerticalHorizontal"	"arrowright"	"1126"	"TRUE"	"VerticalHorizontal"	"-11.78571000"	"-0.162170000"	"2"	"4"
n/a	"html-keyboard-response"	"192"	"433583"	"0.0-6.0-2.0-0.4"	"qa7gxh"	"600"	"1366"	"chrome"	"109.0.0"	"FALSE"	"Windows 10"	"60.37"	"025"	n/a	n/a	n/a	n/a	n/a	n/a	"fixation"	n/a	n/a	n/a	n/a	"NULL"	n/a	"NULL"	"NULL"	"NULL"	"<p style=\"color: black; font-size: 80px; padding-left: 7%; padding-right: 17%; padding-top: 38%; padding-bottom: 36%\">+</p>"	"1440"	n/a	n/a	n/a	n/a	n/a	n/a	n/a	n/a	n/a
n/a	"image-keyboard-response"	"193"	"434686"	"0.0-6.0-2.0-1.4"	"qa7gxh"	"600"	"1366"	"chrome"	"109.0.0"	"FALSE"	"Windows 10"	"60.37"	"025"	n/a	n/a	n/a	n/a	n/a	n/a	"Trial"	n/a	n/a	n/a	"1102"	"arrowleft"	n/a	"NULL"	"NULL"	"NULL"	"stimuli/VerticalHorizontal_20.27143_0.16217.png"	n/a	"VerticalHorizontal"	"arrowleft"	"1446"	"TRUE"	"VerticalHorizontal"	"20.271430000"	"0.1621700000"	"2"	"5"
n/a	"html-keyboard-response"	"194"	"436125"	"0.0-6.0-2.0-0.5"	"qa7gxh"	"600"	"1366"	"chrome"	"109.0.0"	"FALSE"	"Windows 10"	"60.37"	"025"	n/a	n/a	n/a	n/a	n/a	n/a	"fixation"	n/a	n/a	n/a	n/a	"NULL"	n/a	"NULL"	"NULL"	"NULL"	"<p style=\"color: black; font-size: 80px; padding-left: 25%; padding-right: 24%; padding-top: 19%; padding-bottom: 25%\">+</p>"	"1427"	n/a	n/a	n/a	n/a	n/a	n/a	n/a	n/a	n/a
n/a	"image-keyboard-response"	"195"	"436879"	"0.0-6.0-2.0-1.5"	"qa7gxh"	"600"	"1366"	"chrome"	"109.0.0"	"FALSE"	"Windows 10"	"60.37"	"025"	n/a	n/a	n/a	n/a	n/a	n/a	"Trial"	n/a	n/a	n/a	"754"	"arrowright"	n/a	"NULL"	"NULL"	"NULL"	"stimuli/VerticalHorizontal_28.75714_-0.2250.png"	n/a	"VerticalHorizontal"	"arrowright"	"1439"	"TRUE"	"VerticalHorizontal"	"28.757140000"	"-0.225000000"	"2"	"6"
n/a	"html-keyboard-response"	"196"	"438079"	"0.0-6.0-2.0-0.6"	"qa7gxh"	"600"	"1366"	"chrome"	"109.0.0"	"FALSE"	"Windows 10"	"60.37"	"025"	n/a	n/a	n/a	n/a	n/a	n/a	"fixation"	n/a	n/a	n/a	n/a	"NULL"	n/a	"NULL"	"NULL"	"NULL"	"<p style=\"color: black; font-size: 80px; padding-left: 1%; padding-right: 20%; padding-top: 12%; padding-bottom: 2%\">+</p>"	"1189"	n/a	n/a	n/a	n/a	n/a	n/a	n/a	n/a	n/a
n/a	"image-keyboard-response"	"197"	"438688"	"0.0-6.0-2.0-1.6"	"qa7gxh"	"600"	"1366"	"chrome"	"109.0.0"	"FALSE"	"Windows 10"	"60.37"	"025"	n/a	n/a	n/a	n/a	n/a	n/a	"Trial"	n/a	n/a	n/a	"608"	"arrowright"	n/a	"NULL"	"NULL"	"NULL"	"stimuli/VerticalHorizontal_3.30000_-0.2250.png"	n/a	"VerticalHorizontal"	"arrowright"	"1200"	"TRUE"	"VerticalHorizontal"	"3.3000000000"	"-0.225000000"	"2"	"7"
n/a	"html-keyboard-response"	"198"	"439727"	"0.0-6.0-2.0-0.7"	"qa7gxh"	"600"	"1366"	"chrome"	"109.0.0"	"FALSE"	"Windows 10"	"60.37"	"025"	n/a	n/a	n/a	n/a	n/a	n/a	"fixation"	n/a	n/a	n/a	n/a	"NULL"	n/a	"NULL"	"NULL"	"NULL"	"<p style=\"color: black; font-size: 80px; padding-left: 33%; padding-right: 2%; padding-top: 9%; padding-bottom: 41%\">+</p>"	"1033"	n/a	n/a	n/a	n/a	n/a	n/a	n/a	n/a	n/a
n/a	"image-keyboard-response"	"199"	"440380"	"0.0-6.0-2.0-1.7"	"qa7gxh"	"600"	"1366"	"chrome"	"109.0.0"	"FALSE"	"Windows 10"	"60.37"	"025"	n/a	n/a	n/a	n/a	n/a	n/a	"Trial"	n/a	n/a	n/a	"652"	"arrowright"	n/a	"NULL"	"NULL"	"NULL"	"stimuli/VerticalHorizontal_11.78571_-0.16217.png"	n/a	"VerticalHorizontal"	"arrowright"	"1039"	"TRUE"	"VerticalHorizontal"	"11.785710000"	"-0.162170000"	"2"	"8"
n/a	"html-keyboard-response"	"200"	"441711"	"0.0-6.0-2.0-0.8"	"qa7gxh"	"600"	"1366"	"chrome"	"109.0.0"	"FALSE"	"Windows 10"	"60.37"	"025"	n/a	n/a	n/a	n/a	n/a	n/a	"fixation"	n/a	n/a	n/a	n/a	"NULL"	n/a	"NULL"	"NULL"	"NULL"	"<p style=\"color: black; font-size: 80px; padding-left: 30%; padding-right: 41%; padding-top: 46%; padding-bottom: 22%\">+</p>"	"1312"	n/a	n/a	n/a	n/a	n/a	n/a	n/a	n/a	n/a
n/a	"image-keyboard-response"	"201"	"442463"	"0.0-6.0-2.0-1.8"	"qa7gxh"	"600"	"1366"	"chrome"	"109.0.0"	"FALSE"	"Windows 10"	"60.37"	"025"	n/a	n/a	n/a	n/a	n/a	n/a	"Trial"	n/a	n/a	n/a	"750"	"arrowleft"	n/a	"NULL"	"NULL"	"NULL"	"stimuli/VerticalHorizontal_-3.3000_0.16217.png"	n/a	"VerticalHorizontal"	"arrowleft"	"1331"	"TRUE"	"VerticalHorizontal"	"-3.300000000"	"0.1621700000"	"2"	"9"
n/a	"html-keyboard-response"	"202"	"443927"	"0.0-6.0-2.0-0.9"	"qa7gxh"	"600"	"1366"	"chrome"	"109.0.0"	"FALSE"	"Windows 10"	"60.37"	"025"	n/a	n/a	n/a	n/a	n/a	n/a	"fixation"	n/a	n/a	n/a	n/a	"NULL"	n/a	"NULL"	"NULL"	"NULL"	"<p style=\"color: black; font-size: 80px; padding-left: 32%; padding-right: 26%; padding-top: 38%; padding-bottom: 1%\">+</p>"	"1450"	n/a	n/a	n/a	n/a	n/a	n/a	n/a	n/a	n/a
n/a	"image-keyboard-response"	"203"	"444705"	"0.0-6.0-2.0-1.9"	"qa7gxh"	"600"	"1366"	"chrome"	"109.0.0"	"FALSE"	"Windows 10"	"60.37"	"025"	n/a	n/a	n/a	n/a	n/a	n/a	"Trial"	n/a	n/a	n/a	"777"	"arrowleft"	n/a	"NULL"	"NULL"	"NULL"	"stimuli/VerticalHorizontal_20.27143_0.10960.png"	n/a	"VerticalHorizontal"	"arrowleft"	"1464"	"TRUE"	"VerticalHorizontal"	"20.271430000"	"0.1096000000"	"2"	"10"
n/a	"html-keyboard-response"	"204"	"445917"	"0.0-6.0-2.0-0.10"	"qa7gxh"	"600"	"1366"	"chrome"	"109.0.0"	"FALSE"	"Windows 10"	"60.37"	"025"	n/a	n/a	n/a	n/a	n/a	n/a	"fixation"	n/a	n/a	n/a	n/a	"NULL"	n/a	"NULL"	"NULL"	"NULL"	"<p style=\"color: black; font-size: 80px; padding-left: 45%; padding-right: 22%; padding-top: 28%; padding-bottom: 5%\">+</p>"	"1203"	n/a	n/a	n/a	n/a	n/a	n/a	n/a	n/a	n/a
n/a	"image-keyboard-response"	"205"	"446819"	"0.0-6.0-2.0-1.10"	"qa7gxh"	"600"	"1366"	"chrome"	"109.0.0"	"FALSE"	"Windows 10"	"60.37"	"025"	n/a	n/a	n/a	n/a	n/a	n/a	"Trial"	n/a	n/a	n/a	"902"	"arrowright"	n/a	"NULL"	"NULL"	"NULL"	"stimuli/VerticalHorizontal_-28.75714_-0.0673.png"	n/a	"VerticalHorizontal"	"arrowright"	"1212"	"TRUE"	"VerticalHorizontal"	"-28.75714000"	"-0.067300000"	"2"	"11"
n/a	"html-keyboard-response"	"206"	"448003"	"0.0-6.0-2.0-0.11"	"qa7gxh"	"600"	"1366"	"chrome"	"109.0.0"	"FALSE"	"Windows 10"	"60.37"	"025"	n/a	n/a	n/a	n/a	n/a	n/a	"fixation"	n/a	n/a	n/a	n/a	"NULL"	n/a	"NULL"	"NULL"	"NULL"	"<p style=\"color: black; font-size: 80px; padding-left: 4%; padding-right: 49%; padding-top: 41%; padding-bottom: 12%\">+</p>"	"1176"	n/a	n/a	n/a	n/a	n/a	n/a	n/a	n/a	n/a
n/a	"image-keyboard-response"	"207"	"448806"	"0.0-6.0-2.0-1.11"	"qa7gxh"	"600"	"1366"	"chrome"	"109.0.0"	"FALSE"	"Windows 10"	"60.37"	"025"	n/a	n/a	n/a	n/a	n/a	n/a	"Trial"	n/a	n/a	n/a	"803"	"arrowright"	n/a	"NULL"	"NULL"	"NULL"	"stimuli/VerticalHorizontal_-3.3000_-0.1096.png"	n/a	"VerticalHorizontal"	"arrowright"	"1184"	"TRUE"	"VerticalHorizontal"	"-3.300000000"	"-0.109600000"	"2"	"12"
n/a	"html-keyboard-response"	"208"	"450028"	"0.0-6.0-2.0-0.12"	"qa7gxh"	"600"	"1366"	"chrome"	"109.0.0"	"FALSE"	"Windows 10"	"60.37"	"025"	n/a	n/a	n/a	n/a	n/a	n/a	"fixation"	n/a	n/a	n/a	n/a	"NULL"	n/a	"NULL"	"NULL"	"NULL"	"<p style=\"color: black; font-size: 80px; padding-left: 49%; padding-right: 13%; padding-top: 36%; padding-bottom: 4%\">+</p>"	"1217"	n/a	n/a	n/a	n/a	n/a	n/a	n/a	n/a	n/a
n/a	"image-keyboard-response"	"209"	"450694"	"0.0-6.0-2.0-1.12"	"qa7gxh"	"600"	"1366"	"chrome"	"109.0.0"	"FALSE"	"Windows 10"	"60.37"	"025"	n/a	n/a	n/a	n/a	n/a	n/a	"Trial"	n/a	n/a	n/a	"665"	"arrowright"	n/a	"NULL"	"NULL"	"NULL"	"stimuli/VerticalHorizontal_-20.27143_-0.1096.png"	n/a	"VerticalHorizontal"	"arrowright"	"1222"	"TRUE"	"VerticalHorizontal"	"-20.27143000"	"-0.109600000"	"2"	"13"
n/a	"html-keyboard-response"	"210"	"451787"	"0.0-6.0-2.0-0.13"	"qa7gxh"	"600"	"1366"	"chrome"	"109.0.0"	"FALSE"	"Windows 10"	"60.37"	"025"	n/a	n/a	n/a	n/a	n/a	n/a	"fixation"	n/a	n/a	n/a	n/a	"NULL"	n/a	"NULL"	"NULL"	"NULL"	"<p style=\"color: black; font-size: 80px; padding-left: 47%; padding-right: 45%; padding-top: 3%; padding-bottom: 14%\">+</p>"	"1082"	n/a	n/a	n/a	n/a	n/a	n/a	n/a	n/a	n/a
n/a	"image-keyboard-response"	"211"	"452508"	"0.0-6.0-2.0-1.13"	"qa7gxh"	"600"	"1366"	"chrome"	"109.0.0"	"FALSE"	"Windows 10"	"60.37"	"025"	n/a	n/a	n/a	n/a	n/a	n/a	"Trial"	n/a	n/a	n/a	"720"	"arrowleft"	n/a	"NULL"	"NULL"	"NULL"	"stimuli/VerticalHorizontal_-11.78571_0.22500.png"	n/a	"VerticalHorizontal"	"arrowleft"	"1093"	"TRUE"	"VerticalHorizontal"	"-11.78571000"	"0.2250000000"	"2"	"14"
n/a	"html-keyboard-response"	"212"	"453688"	"0.0-6.0-2.0-0.14"	"qa7gxh"	"600"	"1366"	"chrome"	"109.0.0"	"FALSE"	"Windows 10"	"60.37"	"025"	n/a	n/a	n/a	n/a	n/a	n/a	"fixation"	n/a	n/a	n/a	n/a	"NULL"	n/a	"NULL"	"NULL"	"NULL"	"<p style=\"color: black; font-size: 80px; padding-left: 2%; padding-right: 44%; padding-top: 4%; padding-bottom: 4%\">+</p>"	"1162"	n/a	n/a	n/a	n/a	n/a	n/a	n/a	n/a	n/a
n/a	"image-keyboard-response"	"213"	"454429"	"0.0-6.0-2.0-1.14"	"qa7gxh"	"600"	"1366"	"chrome"	"109.0.0"	"FALSE"	"Windows 10"	"60.37"	"025"	n/a	n/a	n/a	n/a	n/a	n/a	"Trial"	n/a	n/a	n/a	"740"	"arrowright"	n/a	"NULL"	"NULL"	"NULL"	"stimuli/VerticalHorizontal_20.27143_-0.1096.png"	n/a	"VerticalHorizontal"	"arrowright"	"1180"	"TRUE"	"VerticalHorizontal"	"20.271430000"	"-0.109600000"	"2"	"15"
n/a	"html-keyboard-response"	"214"	"455751"	"0.0-6.0-2.0-0.15"	"qa7gxh"	"600"	"1366"	"chrome"	"109.0.0"	"FALSE"	"Windows 10"	"60.37"	"025"	n/a	n/a	n/a	n/a	n/a	n/a	"fixation"	n/a	n/a	n/a	n/a	"NULL"	n/a	"NULL"	"NULL"	"NULL"	"<p style=\"color: black; font-size: 80px; padding-left: 27%; padding-right: 43%; padding-top: 5%; padding-bottom: 34%\">+</p>"	"1302"	n/a	n/a	n/a	n/a	n/a	n/a	n/a	n/a	n/a
n/a	"image-keyboard-response"	"215"	"456442"	"0.0-6.0-2.0-1.15"	"qa7gxh"	"600"	"1366"	"chrome"	"109.0.0"	"FALSE"	"Windows 10"	"60.37"	"025"	n/a	n/a	n/a	n/a	n/a	n/a	"Trial"	n/a	n/a	n/a	"690"	"arrowright"	n/a	"NULL"	"NULL"	"NULL"	"stimuli/VerticalHorizontal_-11.78571_-0.1096.png"	n/a	"VerticalHorizontal"	"arrowright"	"1322"	"TRUE"	"VerticalHorizontal"	"-11.78571000"	"-0.109600000"	"2"	"16"
n/a	"html-keyboard-response"	"216"	"457599"	"0.0-6.0-2.0-0.16"	"qa7gxh"	"600"	"1366"	"chrome"	"109.0.0"	"FALSE"	"Windows 10"	"60.37"	"025"	n/a	n/a	n/a	n/a	n/a	n/a	"fixation"	n/a	n/a	n/a	n/a	"NULL"	n/a	"NULL"	"NULL"	"NULL"	"<p style=\"color: black; font-size: 80px; padding-left: 28%; padding-right: 7%; padding-top: 30%; padding-bottom: 21%\">+</p>"	"1146"	n/a	n/a	n/a	n/a	n/a	n/a	n/a	n/a	n/a
n/a	"image-keyboard-response"	"217"	"458270"	"0.0-6.0-2.0-1.16"	"qa7gxh"	"600"	"1366"	"chrome"	"109.0.0"	"FALSE"	"Windows 10"	"60.37"	"025"	n/a	n/a	n/a	n/a	n/a	n/a	"Trial"	n/a	n/a	n/a	"670"	"arrowleft"	n/a	"NULL"	"NULL"	"NULL"	"stimuli/VerticalHorizontal_3.30000_0.10960.png"	n/a	"VerticalHorizontal"	"arrowleft"	"1157"	"TRUE"	"VerticalHorizontal"	"3.3000000000"	"0.1096000000"	"2"	"17"
n/a	"html-keyboard-response"	"218"	"459773"	"0.0-6.0-2.0-0.17"	"qa7gxh"	"600"	"1366"	"chrome"	"109.0.0"	"FALSE"	"Windows 10"	"60.37"	"025"	n/a	n/a	n/a	n/a	n/a	n/a	"fixation"	n/a	n/a	n/a	n/a	"NULL"	n/a	"NULL"	"NULL"	"NULL"	"<p style=\"color: black; font-size: 80px; padding-left: 31%; padding-right: 36%; padding-top: 34%; padding-bottom: 20%\">+</p>"	"1499"	n/a	n/a	n/a	n/a	n/a	n/a	n/a	n/a	n/a
n/a	"image-keyboard-response"	"219"	"460543"	"0.0-6.0-2.0-1.17"	"qa7gxh"	"600"	"1366"	"chrome"	"109.0.0"	"FALSE"	"Windows 10"	"60.37"	"025"	n/a	n/a	n/a	n/a	n/a	n/a	"Trial"	n/a	n/a	n/a	"770"	"arrowright"	n/a	"NULL"	"NULL"	"NULL"	"stimuli/VerticalHorizontal_-28.75714_-0.1096.png"	n/a	"VerticalHorizontal"	"arrowright"	"1503"	"TRUE"	"VerticalHorizontal"	"-28.75714000"	"-0.109600000"	"2"	"18"
n/a	"html-keyboard-response"	"220"	"462037"	"0.0-6.0-2.0-0.18"	"qa7gxh"	"600"	"1366"	"chrome"	"109.0.0"	"FALSE"	"Windows 10"	"60.37"	"025"	n/a	n/a	n/a	n/a	n/a	n/a	"fixation"	n/a	n/a	n/a	n/a	"NULL"	n/a	"NULL"	"NULL"	"NULL"	"<p style=\"color: black; font-size: 80px; padding-left: 9%; padding-right: 8%; padding-top: 22%; padding-bottom: 30%\">+</p>"	"1490"	n/a	n/a	n/a	n/a	n/a	n/a	n/a	n/a	n/a
n/a	"image-keyboard-response"	"221"	"462891"	"0.0-6.0-2.0-1.18"	"qa7gxh"	"600"	"1366"	"chrome"	"109.0.0"	"FALSE"	"Windows 10"	"60.37"	"025"	n/a	n/a	n/a	n/a	n/a	n/a	"Trial"	n/a	n/a	n/a	"853"	"arrowleft"	n/a	"NULL"	"NULL"	"NULL"	"stimuli/VerticalHorizontal_11.78571_0.10960.png"	n/a	"VerticalHorizontal"	"arrowleft"	"1494"	"TRUE"	"VerticalHorizontal"	"11.785710000"	"0.1096000000"	"2"	"19"
n/a	"html-keyboard-response"	"222"	"464224"	"0.0-6.0-2.0-0.19"	"qa7gxh"	"600"	"1366"	"chrome"	"109.0.0"	"FALSE"	"Windows 10"	"60.37"	"025"	n/a	n/a	n/a	n/a	n/a	n/a	"fixation"	n/a	n/a	n/a	n/a	"NULL"	n/a	"NULL"	"NULL"	"NULL"	"<p style=\"color: black; font-size: 80px; padding-left: 7%; padding-right: 25%; padding-top: 48%; padding-bottom: 46%\">+</p>"	"1315"	n/a	n/a	n/a	n/a	n/a	n/a	n/a	n/a	n/a
n/a	"image-keyboard-response"	"223"	"465137"	"0.0-6.0-2.0-1.19"	"qa7gxh"	"600"	"1366"	"chrome"	"109.0.0"	"FALSE"	"Windows 10"	"60.37"	"025"	n/a	n/a	n/a	n/a	n/a	n/a	"Trial"	n/a	n/a	n/a	"913"	"arrowright"	n/a	"NULL"	"NULL"	"NULL"	"stimuli/VerticalHorizontal_-3.3000_0.06730.png"	n/a	"VerticalHorizontal"	"arrowleft"	"1333"	"FALSE"	"VerticalHorizontal"	"-3.300000000"	"0.0673000000"	"2"	"20"
n/a	"html-keyboard-response"	"224"	"466490"	"0.0-6.0-2.0-0.20"	"qa7gxh"	"600"	"1366"	"chrome"	"109.0.0"	"FALSE"	"Windows 10"	"60.37"	"025"	n/a	n/a	n/a	n/a	n/a	n/a	"fixation"	n/a	n/a	n/a	n/a	"NULL"	n/a	"NULL"	"NULL"	"NULL"	"<p style=\"color: black; font-size: 80px; padding-left: 6%; padding-right: 47%; padding-top: 40%; padding-bottom: 25%\">+</p>"	"1336"	n/a	n/a	n/a	n/a	n/a	n/a	n/a	n/a	n/a
n/a	"image-keyboard-response"	"225"	"467468"	"0.0-6.0-2.0-1.20"	"qa7gxh"	"600"	"1366"	"chrome"	"109.0.0"	"FALSE"	"Windows 10"	"60.37"	"025"	n/a	n/a	n/a	n/a	n/a	n/a	"Trial"	n/a	n/a	n/a	"977"	"arrowright"	n/a	"NULL"	"NULL"	"NULL"	"stimuli/VerticalHorizontal_20.27143_-0.0673.png"	n/a	"VerticalHorizontal"	"arrowright"	"1353"	"TRUE"	"VerticalHorizontal"	"20.271430000"	"-0.067300000"	"2"	"21"
n/a	"html-keyboard-response"	"226"	"468970"	"0.0-6.0-2.0-0.21"	"qa7gxh"	"600"	"1366"	"chrome"	"109.0.0"	"FALSE"	"Windows 10"	"60.37"	"025"	n/a	n/a	n/a	n/a	n/a	n/a	"fixation"	n/a	n/a	n/a	n/a	"NULL"	n/a	"NULL"	"NULL"	"NULL"	"<p style=\"color: black; font-size: 80px; padding-left: 15%; padding-right: 48%; padding-top: 33%; padding-bottom: 11%\">+</p>"	"1497"	n/a	n/a	n/a	n/a	n/a	n/a	n/a	n/a	n/a
n/a	"image-keyboard-response"	"227"	"469587"	"0.0-6.0-2.0-1.21"	"qa7gxh"	"600"	"1366"	"chrome"	"109.0.0"	"FALSE"	"Windows 10"	"60.37"	"025"	n/a	n/a	n/a	n/a	n/a	n/a	"Trial"	n/a	n/a	n/a	"616"	"arrowleft"	n/a	"NULL"	"NULL"	"NULL"	"stimuli/VerticalHorizontal_-28.75714_0.16217.png"	n/a	"VerticalHorizontal"	"arrowleft"	"1502"	"TRUE"	"VerticalHorizontal"	"-28.75714000"	"0.1621700000"	"2"	"22"
n/a	"html-keyboard-response"	"228"	"470934"	"0.0-6.0-2.0-0.22"	"qa7gxh"	"600"	"1366"	"chrome"	"109.0.0"	"FALSE"	"Windows 10"	"60.37"	"025"	n/a	n/a	n/a	n/a	n/a	n/a	"fixation"	n/a	n/a	n/a	n/a	"NULL"	n/a	"NULL"	"NULL"	"NULL"	"<p style=\"color: black; font-size: 80px; padding-left: 42%; padding-right: 26%; padding-top: 6%; padding-bottom: 44%\">+</p>"	"1339"	n/a	n/a	n/a	n/a	n/a	n/a	n/a	n/a	n/a
n/a	"image-keyboard-response"	"229"	"471507"	"0.0-6.0-2.0-1.22"	"qa7gxh"	"600"	"1366"	"chrome"	"109.0.0"	"FALSE"	"Windows 10"	"60.37"	"025"	n/a	n/a	n/a	n/a	n/a	n/a	"Trial"	n/a	n/a	n/a	"572"	"arrowleft"	n/a	"NULL"	"NULL"	"NULL"	"stimuli/VerticalHorizontal_-11.78571_0.16217.png"	n/a	"VerticalHorizontal"	"arrowleft"	"1347"	"TRUE"	"VerticalHorizontal"	"-11.78571000"	"0.1621700000"	"2"	"23"
n/a	"html-keyboard-response"	"230"	"473005"	"0.0-6.0-2.0-0.23"	"qa7gxh"	"600"	"1366"	"chrome"	"109.0.0"	"FALSE"	"Windows 10"	"60.37"	"025"	n/a	n/a	n/a	n/a	n/a	n/a	"fixation"	n/a	n/a	n/a	n/a	"NULL"	n/a	"NULL"	"NULL"	"NULL"	"<p style=\"color: black; font-size: 80px; padding-left: 1%; padding-right: 35%; padding-top: 1%; padding-bottom: 29%\">+</p>"	"1498"	n/a	n/a	n/a	n/a	n/a	n/a	n/a	n/a	n/a
n/a	"image-keyboard-response"	"231"	"473844"	"0.0-6.0-2.0-1.23"	"qa7gxh"	"600"	"1366"	"chrome"	"109.0.0"	"FALSE"	"Windows 10"	"60.37"	"025"	n/a	n/a	n/a	n/a	n/a	n/a	"Trial"	n/a	n/a	n/a	"837"	"arrowright"	n/a	"NULL"	"NULL"	"NULL"	"stimuli/VerticalHorizontal_3.30000_0.16217.png"	n/a	"VerticalHorizontal"	"arrowleft"	"1498"	"FALSE"	"VerticalHorizontal"	"3.3000000000"	"0.1621700000"	"2"	"24"
n/a	"html-keyboard-response"	"232"	"475133"	"0.0-6.0-2.0-0.24"	"qa7gxh"	"600"	"1366"	"chrome"	"109.0.0"	"FALSE"	"Windows 10"	"60.37"	"025"	n/a	n/a	n/a	n/a	n/a	n/a	"fixation"	n/a	n/a	n/a	n/a	"NULL"	n/a	"NULL"	"NULL"	"NULL"	"<p style=\"color: black; font-size: 80px; padding-left: 44%; padding-right: 13%; padding-top: 28%; padding-bottom: 6%\">+</p>"	"1285"	n/a	n/a	n/a	n/a	n/a	n/a	n/a	n/a	n/a
n/a	"image-keyboard-response"	"233"	"476088"	"0.0-6.0-2.0-1.24"	"qa7gxh"	"600"	"1366"	"chrome"	"109.0.0"	"FALSE"	"Windows 10"	"60.37"	"025"	n/a	n/a	n/a	n/a	n/a	n/a	"Trial"	n/a	n/a	n/a	"955"	"arrowright"	n/a	"NULL"	"NULL"	"NULL"	"stimuli/VerticalHorizontal_-20.27143_-0.0673.png"	n/a	"VerticalHorizontal"	"arrowright"	"1289"	"TRUE"	"VerticalHorizontal"	"-20.27143000"	"-0.067300000"	"2"	"25"
n/a	"html-keyboard-response"	"234"	"477262"	"0.0-6.0-2.0-0.25"	"qa7gxh"	"600"	"1366"	"chrome"	"109.0.0"	"FALSE"	"Windows 10"	"60.37"	"025"	n/a	n/a	n/a	n/a	n/a	n/a	"fixation"	n/a	n/a	n/a	n/a	"NULL"	n/a	"NULL"	"NULL"	"NULL"	"<p style=\"color: black; font-size: 80px; padding-left: 2%; padding-right: 36%; padding-top: 28%; padding-bottom: 50%\">+</p>"	"1168"	n/a	n/a	n/a	n/a	n/a	n/a	n/a	n/a	n/a
n/a	"image-keyboard-response"	"235"	"478198"	"0.0-6.0-2.0-1.25"	"qa7gxh"	"600"	"1366"	"chrome"	"109.0.0"	"FALSE"	"Windows 10"	"60.37"	"025"	n/a	n/a	n/a	n/a	n/a	n/a	"Trial"	n/a	n/a	n/a	"934"	"arrowright"	n/a	"NULL"	"NULL"	"NULL"	"stimuli/VerticalHorizontal_28.75714_-0.16217.png"	n/a	"VerticalHorizontal"	"arrowright"	"1174"	"TRUE"	"VerticalHorizontal"	"28.757140000"	"-0.162170000"	"2"	"26"
n/a	"html-keyboard-response"	"236"	"479397"	"0.0-6.0-2.0-0.26"	"qa7gxh"	"600"	"1366"	"chrome"	"109.0.0"	"FALSE"	"Windows 10"	"60.37"	"025"	n/a	n/a	n/a	n/a	n/a	n/a	"fixation"	n/a	n/a	n/a	n/a	"NULL"	n/a	"NULL"	"NULL"	"NULL"	"<p style=\"color: black; font-size: 80px; padding-left: 30%; padding-right: 8%; padding-top: 33%; padding-bottom: 12%\">+</p>"	"1196"	n/a	n/a	n/a	n/a	n/a	n/a	n/a	n/a	n/a
n/a	"image-keyboard-response"	"237"	"480284"	"0.0-6.0-2.0-1.26"	"qa7gxh"	"600"	"1366"	"chrome"	"109.0.0"	"FALSE"	"Windows 10"	"60.37"	"025"	n/a	n/a	n/a	n/a	n/a	n/a	"Trial"	n/a	n/a	n/a	"886"	"arrowright"	n/a	"NULL"	"NULL"	"NULL"	"stimuli/VerticalHorizontal_-20.27143_-0.16217.png"	n/a	"VerticalHorizontal"	"arrowright"	"1199"	"TRUE"	"VerticalHorizontal"	"-20.27143000"	"-0.162170000"	"2"	"27"
n/a	"html-keyboard-response"	"238"	"481326"	"0.0-6.0-2.0-0.27"	"qa7gxh"	"600"	"1366"	"chrome"	"109.0.0"	"FALSE"	"Windows 10"	"60.37"	"025"	n/a	n/a	n/a	n/a	n/a	n/a	"fixation"	n/a	n/a	n/a	n/a	"NULL"	n/a	"NULL"	"NULL"	"NULL"	"<p style=\"color: black; font-size: 80px; padding-left: 1%; padding-right: 41%; padding-top: 9%; padding-bottom: 27%\">+</p>"	"1031"	n/a	n/a	n/a	n/a	n/a	n/a	n/a	n/a	n/a
n/a	"image-keyboard-response"	"239"	"482249"	"0.0-6.0-2.0-1.27"	"qa7gxh"	"600"	"1366"	"chrome"	"109.0.0"	"FALSE"	"Windows 10"	"60.37"	"025"	n/a	n/a	n/a	n/a	n/a	n/a	"Trial"	n/a	n/a	n/a	"922"	"arrowleft"	n/a	"NULL"	"NULL"	"NULL"	"stimuli/VerticalHorizontal_-20.27143_0.06730.png"	n/a	"VerticalHorizontal"	"arrowleft"	"1042"	"TRUE"	"VerticalHorizontal"	"-20.27143000"	"0.0673000000"	"2"	"28"
n/a	"html-keyboard-response"	"240"	"483414"	"0.0-6.0-2.0-0.28"	"qa7gxh"	"600"	"1366"	"chrome"	"109.0.0"	"FALSE"	"Windows 10"	"60.37"	"025"	n/a	n/a	n/a	n/a	n/a	n/a	"fixation"	n/a	n/a	n/a	n/a	"NULL"	n/a	"NULL"	"NULL"	"NULL"	"<p style=\"color: black; font-size: 80px; padding-left: 38%; padding-right: 33%; padding-top: 42%; padding-bottom: 24%\">+</p>"	"1152"	n/a	n/a	n/a	n/a	n/a	n/a	n/a	n/a	n/a
n/a	"image-keyboard-response"	"241"	"484529"	"0.0-6.0-2.0-1.28"	"qa7gxh"	"600"	"1366"	"chrome"	"109.0.0"	"FALSE"	"Windows 10"	"60.37"	"025"	n/a	n/a	n/a	n/a	n/a	n/a	"Trial"	n/a	n/a	n/a	"1115"	"arrowleft"	n/a	"NULL"	"NULL"	"NULL"	"stimuli/VerticalHorizontal_-28.75714_0.10960.png"	n/a	"VerticalHorizontal"	"arrowleft"	"1165"	"TRUE"	"VerticalHorizontal"	"-28.75714000"	"0.1096000000"	"2"	"29"
n/a	"html-keyboard-response"	"242"	"485730"	"0.0-6.0-2.0-0.29"	"qa7gxh"	"600"	"1366"	"chrome"	"109.0.0"	"FALSE"	"Windows 10"	"60.37"	"025"	n/a	n/a	n/a	n/a	n/a	n/a	"fixation"	n/a	n/a	n/a	n/a	"NULL"	n/a	"NULL"	"NULL"	"NULL"	"<p style=\"color: black; font-size: 80px; padding-left: 13%; padding-right: 49%; padding-top: 6%; padding-bottom: 30%\">+</p>"	"1182"	n/a	n/a	n/a	n/a	n/a	n/a	n/a	n/a	n/a
n/a	"image-keyboard-response"	"243"	"486809"	"0.0-6.0-2.0-1.29"	"qa7gxh"	"600"	"1366"	"chrome"	"109.0.0"	"FALSE"	"Windows 10"	"60.37"	"025"	n/a	n/a	n/a	n/a	n/a	n/a	"Trial"	n/a	n/a	n/a	"1078"	"arrowleft"	n/a	"NULL"	"NULL"	"NULL"	"stimuli/VerticalHorizontal_28.75714_0.22500.png"	n/a	"VerticalHorizontal"	"arrowleft"	"1201"	"TRUE"	"VerticalHorizontal"	"28.757140000"	"0.2250000000"	"2"	"30"
n/a	"html-keyboard-response"	"244"	"487965"	"0.0-6.0-2.0-0.30"	"qa7gxh"	"600"	"1366"	"chrome"	"109.0.0"	"FALSE"	"Windows 10"	"60.37"	"025"	n/a	n/a	n/a	n/a	n/a	n/a	"fixation"	n/a	n/a	n/a	n/a	"NULL"	n/a	"NULL"	"NULL"	"NULL"	"<p style=\"color: black; font-size: 80px; padding-left: 18%; padding-right: 47%; padding-top: 26%; padding-bottom: 49%\">+</p>"	"1142"	n/a	n/a	n/a	n/a	n/a	n/a	n/a	n/a	n/a
n/a	"image-keyboard-response"	"245"	"488719"	"0.0-6.0-2.0-1.30"	"qa7gxh"	"600"	"1366"	"chrome"	"109.0.0"	"FALSE"	"Windows 10"	"60.37"	"025"	n/a	n/a	n/a	n/a	n/a	n/a	"Trial"	n/a	n/a	n/a	"753"	"arrowright"	n/a	"NULL"	"NULL"	"NULL"	"stimuli/VerticalHorizontal_-3.3000_-0.16217.png"	n/a	"VerticalHorizontal"	"arrowright"	"1156"	"TRUE"	"VerticalHorizontal"	"-3.300000000"	"-0.162170000"	"2"	"31"
n/a	"html-keyboard-response"	"246"	"489833"	"0.0-6.0-2.0-0.31"	"qa7gxh"	"600"	"1366"	"chrome"	"109.0.0"	"FALSE"	"Windows 10"	"60.37"	"025"	n/a	n/a	n/a	n/a	n/a	n/a	"fixation"	n/a	n/a	n/a	n/a	"NULL"	n/a	"NULL"	"NULL"	"NULL"	"<p style=\"color: black; font-size: 80px; padding-left: 26%; padding-right: 5%; padding-top: 31%; padding-bottom: 45%\">+</p>"	"1101"	n/a	n/a	n/a	n/a	n/a	n/a	n/a	n/a	n/a
n/a	"image-keyboard-response"	"247"	"490654"	"0.0-6.0-2.0-1.31"	"qa7gxh"	"600"	"1366"	"chrome"	"109.0.0"	"FALSE"	"Windows 10"	"60.37"	"025"	n/a	n/a	n/a	n/a	n/a	n/a	"Trial"	n/a	n/a	n/a	"821"	"arrowleft"	n/a	"NULL"	"NULL"	"NULL"	"stimuli/VerticalHorizontal_3.30000_0.22500.png"	n/a	"VerticalHorizontal"	"arrowleft"	"1114"	"TRUE"	"VerticalHorizontal"	"3.3000000000"	"0.2250000000"	"2"	"32"
n/a	"html-keyboard-response"	"248"	"491959"	"0.0-6.0-2.0-0.32"	"qa7gxh"	"600"	"1366"	"chrome"	"109.0.0"	"FALSE"	"Windows 10"	"60.37"	"025"	n/a	n/a	n/a	n/a	n/a	n/a	"fixation"	n/a	n/a	n/a	n/a	"NULL"	n/a	"NULL"	"NULL"	"NULL"	"<p style=\"color: black; font-size: 80px; padding-left: 8%; padding-right: 17%; padding-top: 33%; padding-bottom: 27%\">+</p>"	"1291"	n/a	n/a	n/a	n/a	n/a	n/a	n/a	n/a	n/a
n/a	"image-keyboard-response"	"249"	"493010"	"0.0-6.0-2.0-1.32"	"qa7gxh"	"600"	"1366"	"chrome"	"109.0.0"	"FALSE"	"Windows 10"	"60.37"	"025"	n/a	n/a	n/a	n/a	n/a	n/a	"Trial"	n/a	n/a	n/a	"1051"	"arrowleft"	n/a	"NULL"	"NULL"	"NULL"	"stimuli/VerticalHorizontal_-11.78571_0.06730.png"	n/a	"VerticalHorizontal"	"arrowleft"	"1305"	"TRUE"	"VerticalHorizontal"	"-11.78571000"	"0.0673000000"	"2"	"33"
n/a	"html-keyboard-response"	"250"	"494147"	"0.0-6.0-2.0-0.33"	"qa7gxh"	"600"	"1366"	"chrome"	"109.0.0"	"FALSE"	"Windows 10"	"60.37"	"025"	n/a	n/a	n/a	n/a	n/a	n/a	"fixation"	n/a	n/a	n/a	n/a	"NULL"	n/a	"NULL"	"NULL"	"NULL"	"<p style=\"color: black; font-size: 80px; padding-left: 36%; padding-right: 2%; padding-top: 6%; padding-bottom: 7%\">+</p>"	"1128"	n/a	n/a	n/a	n/a	n/a	n/a	n/a	n/a	n/a
n/a	"image-keyboard-response"	"251"	"494740"	"0.0-6.0-2.0-1.33"	"qa7gxh"	"600"	"1366"	"chrome"	"109.0.0"	"FALSE"	"Windows 10"	"60.37"	"025"	n/a	n/a	n/a	n/a	n/a	n/a	"Trial"	n/a	n/a	n/a	"593"	"arrowright"	n/a	"NULL"	"NULL"	"NULL"	"stimuli/VerticalHorizontal_-28.75714_-0.2250.png"	n/a	"VerticalHorizontal"	"arrowright"	"1137"	"TRUE"	"VerticalHorizontal"	"-28.75714000"	"-0.225000000"	"2"	"34"
