"success"	"trial_type"	"trial_index"	"time_elapsed"	"internal_node_id"	"participant_id"	"screen_height"	"screen_width"	"browser"	"browser_version"	"mobile"	"os"	"vsync_rate"	"subject_id"	"width"	"height"	"webaudio"	"fullscreen"	"webcam"	"microphone"	"screen"	"version"	"date"	"time"	"rt"	"response"	"timeout"	"failed_images"	"failed_audio"	"failed_video"	"stimulus"	"trial_duration"	"block"	"correct_response"	"prestimulus_duration"	"correct"	"type"	"illusion_strength"	"illusion_difference"	"block_number"	"trial_number"
"TRUE"	"fullscreen"	"0"	"8406"	"0.0-0.0"	"pg63be"	"600"	"1366"	"chrome"	"108.0.0"	"FALSE"	"Windows 10"	"60.92"	"128"	n/a	n/a	n/a	n/a	n/a	n/a	n/a	n/a	n/a	n/a	n/a	"NULL"	n/a	"NULL"	"NULL"	"NULL"	n/a	n/a	n/a	n/a	n/a	n/a	n/a	n/a	n/a	n/a	n/a
n/a	"browser-check"	"1"	"9416"	"0.0-1.0"	"pg63be"	"600"	"1366"	"chrome"	"108.0.0"	"FALSE"	"Windows 10"	"60.92"	"128"	"1366"	"600"	"TRUE"	"TRUE"	"TRUE"	"TRUE"	"browser_info"	"1.0"	"28/12/2022"	"14:36:19"	n/a	"NULL"	n/a	"NULL"	"NULL"	"NULL"	n/a	n/a	n/a	n/a	n/a	n/a	n/a	n/a	n/a	n/a	n/a
n/a	"survey-text"	"2"	"13811"	"0.0-2.0"	"pg63be"	"600"	"1366"	"chrome"	"108.0.0"	"FALSE"	"Windows 10"	"60.92"	"128"	n/a	n/a	n/a	n/a	n/a	n/a	"subject_id"	n/a	n/a	n/a	"4385"	"list(subject_id = \"128\")"	n/a	"NULL"	"NULL"	"NULL"	n/a	n/a	n/a	n/a	n/a	n/a	n/a	n/a	n/a	n/a	n/a
"TRUE"	"preload"	"3"	"13825"	"0.0-3.0"	"pg63be"	"600"	"1366"	"chrome"	"108.0.0"	"FALSE"	"Windows 10"	"60.92"	"128"	n/a	n/a	n/a	n/a	n/a	n/a	n/a	n/a	n/a	n/a	n/a	"NULL"	"FALSE"	"list()"	"list()"	"list()"	n/a	n/a	n/a	n/a	n/a	n/a	n/a	n/a	n/a	n/a	n/a
n/a	"html-button-response"	"4"	"35914"	"0.0-4.0-0.0"	"pg63be"	"600"	"1366"	"chrome"	"108.0.0"	"FALSE"	"Windows 10"	"60.92"	"128"	n/a	n/a	n/a	n/a	n/a	n/a	"illusion_instructions"	n/a	n/a	n/a	"22087"	"0"	n/a	"NULL"	"NULL"	"NULL"	"<p><b>Illusion Game</b></p><p>In this game of speed and reflex, you will need to make <b>visual judgments</b> (for instance, which circle is the biggest, or which line is the longest), as fast and as correctly as possible, while <b>resisting different visual illusions</b>.</p><p>We are going to start with some examples of all the illusions you will encounter in the game.</p>"	n/a	n/a	n/a	n/a	n/a	n/a	n/a	n/a	n/a	n/a
"TRUE"	"preload"	"5"	"35939"	"0.0-4.0-1.0-0.0"	"pg63be"	"600"	"1366"	"chrome"	"108.0.0"	"FALSE"	"Windows 10"	"60.92"	"128"	n/a	n/a	n/a	n/a	n/a	n/a	n/a	n/a	n/a	n/a	n/a	"NULL"	"FALSE"	"list()"	"list()"	"list()"	n/a	n/a	n/a	n/a	n/a	n/a	n/a	n/a	n/a	n/a	n/a
n/a	"html-keyboard-response"	"6"	"65044"	"0.0-4.0-1.0-1.0"	"pg63be"	"600"	"1366"	"chrome"	"108.0.0"	"FALSE"	"Windows 10"	"60.92"	"128"	n/a	n/a	n/a	n/a	n/a	n/a	n/a	n/a	n/a	n/a	"29103"	"enter"	n/a	"NULL"	"NULL"	"NULL"	"<p><b>Practice</b></p><p>In this part, two red circles will appear side by side on the screen.</p><p>Your task is to select which <b>red circle is bigger</b> in size as fast as you can, without making errors.</p><p>Don't get distracted by the surrounding black circles around the red circles!</p><p>Press <b>the LEFT or the RIGHT arrow</b> to indicate which is the bigger <b>red circle.</b></p><div style='float: center'><img src='materials/instructions/Ebbinghaus_Demo.png' height='300'></img><p><img src='utils/answer/answer_leftright_keyboard.PNG' height='150'></img></p><p class='small'>In this example, the correct answer is the <b>LEFT arrow</b>.</p></div><p>Are you ready? <b>Press ENTER to start</b></p>"	n/a	n/a	n/a	n/a	n/a	n/a	n/a	n/a	n/a	n/a
n/a	"html-keyboard-response"	"7"	"66819"	"0.0-4.0-1.0-2.0-0.0"	"pg63be"	"600"	"1366"	"chrome"	"108.0.0"	"FALSE"	"Windows 10"	"60.92"	"128"	n/a	n/a	n/a	n/a	n/a	n/a	"fixation"	n/a	n/a	n/a	n/a	"NULL"	n/a	"NULL"	"NULL"	"NULL"	"<p style=\"color: black; font-size: 80px; padding-left: 33%; padding-right: 23%; padding-top: 38%; padding-bottom: 28%\">+</p>"	"1252"	n/a	n/a	n/a	n/a	n/a	n/a	n/a	n/a	n/a
n/a	"image-keyboard-response"	"8"	"67800"	"0.0-4.0-1.0-2.0-1.0"	"pg63be"	"600"	"1366"	"chrome"	"108.0.0"	"FALSE"	"Windows 10"	"60.92"	"128"	n/a	n/a	n/a	n/a	n/a	n/a	"Trial"	n/a	n/a	n/a	"965"	"arrowleft"	n/a	"NULL"	"NULL"	"NULL"	"stimuli/Ebbinghaus_-100000_1.40000.png"	n/a	"Ebbinghaus"	"arrowleft"	"1775"	"TRUE"	"Ebbinghaus"	"-10000000000"	"1.4000000000"	"1"	"1"
n/a	"html-keyboard-response"	"9"	"69086"	"0.0-4.0-1.0-2.0-0.1"	"pg63be"	"600"	"1366"	"chrome"	"108.0.0"	"FALSE"	"Windows 10"	"60.92"	"128"	n/a	n/a	n/a	n/a	n/a	n/a	"fixation"	n/a	n/a	n/a	n/a	"NULL"	n/a	"NULL"	"NULL"	"NULL"	"<p style=\"color: black; font-size: 80px; padding-left: 7%; padding-right: 19%; padding-top: 3%; padding-bottom: 20%\">+</p>"	"1273"	n/a	n/a	n/a	n/a	n/a	n/a	n/a	n/a	n/a
n/a	"image-keyboard-response"	"10"	"69716"	"0.0-4.0-1.0-2.0-1.1"	"pg63be"	"600"	"1366"	"chrome"	"108.0.0"	"FALSE"	"Windows 10"	"60.92"	"128"	n/a	n/a	n/a	n/a	n/a	n/a	"Trial"	n/a	n/a	n/a	"628"	"arrowleft"	n/a	"NULL"	"NULL"	"NULL"	"stimuli/Ebbinghaus_0000000_-1.4000.png"	n/a	"Ebbinghaus"	"arrowright"	"1286"	"FALSE"	"Ebbinghaus"	"000000000000"	"-1.400000000"	"1"	"2"
n/a	"html-keyboard-response"	"11"	"70867"	"0.0-4.0-1.0-2.0-0.2"	"pg63be"	"600"	"1366"	"chrome"	"108.0.0"	"FALSE"	"Windows 10"	"60.92"	"128"	n/a	n/a	n/a	n/a	n/a	n/a	"fixation"	n/a	n/a	n/a	n/a	"NULL"	n/a	"NULL"	"NULL"	"NULL"	"<p style=\"color: black; font-size: 80px; padding-left: 42%; padding-right: 28%; padding-top: 18%; padding-bottom: 9%\">+</p>"	"1138"	n/a	n/a	n/a	n/a	n/a	n/a	n/a	n/a	n/a
n/a	"image-keyboard-response"	"12"	"71560"	"0.0-4.0-1.0-2.0-1.2"	"pg63be"	"600"	"1366"	"chrome"	"108.0.0"	"FALSE"	"Windows 10"	"60.92"	"128"	n/a	n/a	n/a	n/a	n/a	n/a	"Trial"	n/a	n/a	n/a	"689"	"arrowright"	n/a	"NULL"	"NULL"	"NULL"	"stimuli/Ebbinghaus_-100000_-1.4000.png"	n/a	"Ebbinghaus"	"arrowright"	"1151"	"TRUE"	"Ebbinghaus"	"-10000000000"	"-1.400000000"	"1"	"3"
n/a	"html-keyboard-response"	"13"	"72752"	"0.0-4.0-1.0-2.0-0.3"	"pg63be"	"600"	"1366"	"chrome"	"108.0.0"	"FALSE"	"Windows 10"	"60.92"	"128"	n/a	n/a	n/a	n/a	n/a	n/a	"fixation"	n/a	n/a	n/a	n/a	"NULL"	n/a	"NULL"	"NULL"	"NULL"	"<p style=\"color: black; font-size: 80px; padding-left: 35%; padding-right: 47%; padding-top: 33%; padding-bottom: 30%\">+</p>"	"1179"	n/a	n/a	n/a	n/a	n/a	n/a	n/a	n/a	n/a
n/a	"image-keyboard-response"	"14"	"73237"	"0.0-4.0-1.0-2.0-1.3"	"pg63be"	"600"	"1366"	"chrome"	"108.0.0"	"FALSE"	"Windows 10"	"60.92"	"128"	n/a	n/a	n/a	n/a	n/a	n/a	"Trial"	n/a	n/a	n/a	"484"	"arrowright"	n/a	"NULL"	"NULL"	"NULL"	"stimuli/Ebbinghaus_1000000_-1.4000.png"	n/a	"Ebbinghaus"	"arrowright"	"1192"	"TRUE"	"Ebbinghaus"	"100000000000"	"-1.400000000"	"1"	"4"
n/a	"html-keyboard-response"	"15"	"74291"	"0.0-4.0-1.0-2.0-0.4"	"pg63be"	"600"	"1366"	"chrome"	"108.0.0"	"FALSE"	"Windows 10"	"60.92"	"128"	n/a	n/a	n/a	n/a	n/a	n/a	"fixation"	n/a	n/a	n/a	n/a	"NULL"	n/a	"NULL"	"NULL"	"NULL"	"<p style=\"color: black; font-size: 80px; padding-left: 6%; padding-right: 30%; padding-top: 9%; padding-bottom: 24%\">+</p>"	"1039"	n/a	n/a	n/a	n/a	n/a	n/a	n/a	n/a	n/a
n/a	"image-keyboard-response"	"16"	"74844"	"0.0-4.0-1.0-2.0-1.4"	"pg63be"	"600"	"1366"	"chrome"	"108.0.0"	"FALSE"	"Windows 10"	"60.92"	"128"	n/a	n/a	n/a	n/a	n/a	n/a	"Trial"	n/a	n/a	n/a	"552"	"arrowleft"	n/a	"NULL"	"NULL"	"NULL"	"stimuli/Ebbinghaus_0000000_1.40000.png"	n/a	"Ebbinghaus"	"arrowleft"	"1054"	"TRUE"	"Ebbinghaus"	"000000000000"	"1.4000000000"	"1"	"5"
n/a	"html-keyboard-response"	"17"	"76147"	"0.0-4.0-1.0-2.0-0.5"	"pg63be"	"600"	"1366"	"chrome"	"108.0.0"	"FALSE"	"Windows 10"	"60.92"	"128"	n/a	n/a	n/a	n/a	n/a	n/a	"fixation"	n/a	n/a	n/a	n/a	"NULL"	n/a	"NULL"	"NULL"	"NULL"	"<p style=\"color: black; font-size: 80px; padding-left: 44%; padding-right: 46%; padding-top: 48%; padding-bottom: 41%\">+</p>"	"1289"	n/a	n/a	n/a	n/a	n/a	n/a	n/a	n/a	n/a
n/a	"image-keyboard-response"	"18"	"76607"	"0.0-4.0-1.0-2.0-1.5"	"pg63be"	"600"	"1366"	"chrome"	"108.0.0"	"FALSE"	"Windows 10"	"60.92"	"128"	n/a	n/a	n/a	n/a	n/a	n/a	"Trial"	n/a	n/a	n/a	"459"	"arrowleft"	n/a	"NULL"	"NULL"	"NULL"	"stimuli/Ebbinghaus_1000000_1.40000.png"	n/a	"Ebbinghaus"	"arrowleft"	"1303"	"TRUE"	"Ebbinghaus"	"100000000000"	"1.4000000000"	"1"	"6"
n/a	"html-button-response"	"19"	"84567"	"0.0-4.0-1.0-3.0"	"pg63be"	"600"	"1366"	"chrome"	"108.0.0"	"FALSE"	"Windows 10"	"60.92"	"128"	n/a	n/a	n/a	n/a	n/a	n/a	"practice_block_results"	n/a	n/a	n/a	"7958"	"0"	n/a	"NULL"	"NULL"	"NULL"	"<p style='color:rgb(76,175,80);'> Correct Responses: <b>83.33%</b></p><hr><p style='color:rgb(233,30,99);'> Average Response Time: <b>629.50</b> ms.</p>"	n/a	n/a	n/a	n/a	n/a	n/a	n/a	n/a	n/a	n/a
"TRUE"	"preload"	"20"	"85091"	"0.0-4.0-2.0-0.0"	"pg63be"	"600"	"1366"	"chrome"	"108.0.0"	"FALSE"	"Windows 10"	"60.92"	"128"	n/a	n/a	n/a	n/a	n/a	n/a	n/a	n/a	n/a	n/a	n/a	"NULL"	"FALSE"	"list()"	"list()"	"list()"	n/a	n/a	n/a	n/a	n/a	n/a	n/a	n/a	n/a	n/a	n/a
n/a	"html-keyboard-response"	"21"	"96410"	"0.0-4.0-2.0-1.0"	"pg63be"	"600"	"1366"	"chrome"	"108.0.0"	"FALSE"	"Windows 10"	"60.92"	"128"	n/a	n/a	n/a	n/a	n/a	n/a	n/a	n/a	n/a	n/a	"11318"	"enter"	n/a	"NULL"	"NULL"	"NULL"	"<p><b>Practice</b></p><p>In this part, two horizontal red lines will appear one above the other.</p><p>Your task is to select which <b>line is longer</b> in length as fast as you can, without making errors.</p><p>Don't get distracted by the surrounding black arrows at the end of the red lines!</p><p>Press <b>the UP or the DOWN arrow</b> to indicate where is the longer <b>red line.</b></p><div style='float: center'><img src='materials/instructions/MullerLyer_Demo.png' height='300'></img><p><img src='utils/answer/answer_updown_keyboard.PNG' height='150'></img></p><p class='small'>In this example, the correct answer is the <b>UP arrow</b>.</p></div><p>Are you ready? <b>Press ENTER to start</b></p>"	n/a	n/a	n/a	n/a	n/a	n/a	n/a	n/a	n/a	n/a
n/a	"html-keyboard-response"	"22"	"98187"	"0.0-4.0-2.0-2.0-0.0"	"pg63be"	"600"	"1366"	"chrome"	"108.0.0"	"FALSE"	"Windows 10"	"60.92"	"128"	n/a	n/a	n/a	n/a	n/a	n/a	"fixation"	n/a	n/a	n/a	n/a	"NULL"	n/a	"NULL"	"NULL"	"NULL"	"<p style=\"color: black; font-size: 80px; padding-left: 18%; padding-right: 39%; padding-top: 48%; padding-bottom: 26%\">+</p>"	"1243"	n/a	n/a	n/a	n/a	n/a	n/a	n/a	n/a	n/a
n/a	"image-keyboard-response"	"23"	"102448"	"0.0-4.0-2.0-2.0-1.0"	"pg63be"	"600"	"1366"	"chrome"	"108.0.0"	"FALSE"	"Windows 10"	"60.92"	"128"	n/a	n/a	n/a	n/a	n/a	n/a	"Trial"	n/a	n/a	n/a	"4259"	"arrowdown"	n/a	"NULL"	"NULL"	"NULL"	"stimuli/MullerLyer_0000000_-0.7000.png"	n/a	"MullerLyer"	"arrowdown"	"1777"	"TRUE"	"MullerLyer"	"000000000000"	"-0.700000000"	"1"	"7"
n/a	"html-keyboard-response"	"24"	"103628"	"0.0-4.0-2.0-2.0-0.1"	"pg63be"	"600"	"1366"	"chrome"	"108.0.0"	"FALSE"	"Windows 10"	"60.92"	"128"	n/a	n/a	n/a	n/a	n/a	n/a	"fixation"	n/a	n/a	n/a	n/a	"NULL"	n/a	"NULL"	"NULL"	"NULL"	"<p style=\"color: black; font-size: 80px; padding-left: 20%; padding-right: 40%; padding-top: 27%; padding-bottom: 34%\">+</p>"	"1163"	n/a	n/a	n/a	n/a	n/a	n/a	n/a	n/a	n/a
n/a	"image-keyboard-response"	"25"	"104596"	"0.0-4.0-2.0-2.0-1.1"	"pg63be"	"600"	"1366"	"chrome"	"108.0.0"	"FALSE"	"Windows 10"	"60.92"	"128"	n/a	n/a	n/a	n/a	n/a	n/a	"Trial"	n/a	n/a	n/a	"967"	"arrowup"	n/a	"NULL"	"NULL"	"NULL"	"stimuli/MullerLyer_2300000_0.70000.png"	n/a	"MullerLyer"	"arrowup"	"1180"	"TRUE"	"MullerLyer"	"230000000000"	"0.7000000000"	"1"	"8"
n/a	"html-keyboard-response"	"26"	"105602"	"0.0-4.0-2.0-2.0-0.2"	"pg63be"	"600"	"1366"	"chrome"	"108.0.0"	"FALSE"	"Windows 10"	"60.92"	"128"	n/a	n/a	n/a	n/a	n/a	n/a	"fixation"	n/a	n/a	n/a	n/a	"NULL"	n/a	"NULL"	"NULL"	"NULL"	"<p style=\"color: black; font-size: 80px; padding-left: 30%; padding-right: 46%; padding-top: 13%; padding-bottom: 7%\">+</p>"	"1004"	n/a	n/a	n/a	n/a	n/a	n/a	n/a	n/a	n/a
n/a	"image-keyboard-response"	"27"	"106125"	"0.0-4.0-2.0-2.0-1.2"	"pg63be"	"600"	"1366"	"chrome"	"108.0.0"	"FALSE"	"Windows 10"	"60.92"	"128"	n/a	n/a	n/a	n/a	n/a	n/a	"Trial"	n/a	n/a	n/a	"522"	"arrowup"	n/a	"NULL"	"NULL"	"NULL"	"stimuli/MullerLyer_-230000_0.70000.png"	n/a	"MullerLyer"	"arrowup"	"1006"	"TRUE"	"MullerLyer"	"-23000000000"	"0.7000000000"	"1"	"9"
n/a	"html-keyboard-response"	"28"	"107438"	"0.0-4.0-2.0-2.0-0.3"	"pg63be"	"600"	"1366"	"chrome"	"108.0.0"	"FALSE"	"Windows 10"	"60.92"	"128"	n/a	n/a	n/a	n/a	n/a	n/a	"fixation"	n/a	n/a	n/a	n/a	"NULL"	n/a	"NULL"	"NULL"	"NULL"	"<p style=\"color: black; font-size: 80px; padding-left: 8%; padding-right: 16%; padding-top: 13%; padding-bottom: 49%\">+</p>"	"1307"	n/a	n/a	n/a	n/a	n/a	n/a	n/a	n/a	n/a
n/a	"image-keyboard-response"	"29"	"107962"	"0.0-4.0-2.0-2.0-1.3"	"pg63be"	"600"	"1366"	"chrome"	"108.0.0"	"FALSE"	"Windows 10"	"60.92"	"128"	n/a	n/a	n/a	n/a	n/a	n/a	"Trial"	n/a	n/a	n/a	"522"	"arrowup"	n/a	"NULL"	"NULL"	"NULL"	"stimuli/MullerLyer_0000000_0.70000.png"	n/a	"MullerLyer"	"arrowup"	"1313"	"TRUE"	"MullerLyer"	"000000000000"	"0.7000000000"	"1"	"10"
n/a	"html-keyboard-response"	"30"	"109376"	"0.0-4.0-2.0-2.0-0.4"	"pg63be"	"600"	"1366"	"chrome"	"108.0.0"	"FALSE"	"Windows 10"	"60.92"	"128"	n/a	n/a	n/a	n/a	n/a	n/a	"fixation"	n/a	n/a	n/a	n/a	"NULL"	n/a	"NULL"	"NULL"	"NULL"	"<p style=\"color: black; font-size: 80px; padding-left: 39%; padding-right: 1%; padding-top: 46%; padding-bottom: 43%\">+</p>"	"1399"	n/a	n/a	n/a	n/a	n/a	n/a	n/a	n/a	n/a
n/a	"image-keyboard-response"	"31"	"109995"	"0.0-4.0-2.0-2.0-1.4"	"pg63be"	"600"	"1366"	"chrome"	"108.0.0"	"FALSE"	"Windows 10"	"60.92"	"128"	n/a	n/a	n/a	n/a	n/a	n/a	"Trial"	n/a	n/a	n/a	"618"	"arrowdown"	n/a	"NULL"	"NULL"	"NULL"	"stimuli/MullerLyer_2300000_-0.7000.png"	n/a	"MullerLyer"	"arrowdown"	"1414"	"TRUE"	"MullerLyer"	"230000000000"	"-0.700000000"	"1"	"11"
n/a	"html-keyboard-response"	"32"	"111048"	"0.0-4.0-2.0-2.0-0.5"	"pg63be"	"600"	"1366"	"chrome"	"108.0.0"	"FALSE"	"Windows 10"	"60.92"	"128"	n/a	n/a	n/a	n/a	n/a	n/a	"fixation"	n/a	n/a	n/a	n/a	"NULL"	n/a	"NULL"	"NULL"	"NULL"	"<p style=\"color: black; font-size: 80px; padding-left: 16%; padding-right: 38%; padding-top: 10%; padding-bottom: 22%\">+</p>"	"1041"	n/a	n/a	n/a	n/a	n/a	n/a	n/a	n/a	n/a
n/a	"image-keyboard-response"	"33"	"111561"	"0.0-4.0-2.0-2.0-1.5"	"pg63be"	"600"	"1366"	"chrome"	"108.0.0"	"FALSE"	"Windows 10"	"60.92"	"128"	n/a	n/a	n/a	n/a	n/a	n/a	"Trial"	n/a	n/a	n/a	"513"	"arrowdown"	n/a	"NULL"	"NULL"	"NULL"	"stimuli/MullerLyer_-230000_-0.7000.png"	n/a	"MullerLyer"	"arrowdown"	"1053"	"TRUE"	"MullerLyer"	"-23000000000"	"-0.700000000"	"1"	"12"
n/a	"html-button-response"	"34"	"116665"	"0.0-4.0-2.0-3.0"	"pg63be"	"600"	"1366"	"chrome"	"108.0.0"	"FALSE"	"Windows 10"	"60.92"	"128"	n/a	n/a	n/a	n/a	n/a	n/a	"practice_block_results"	n/a	n/a	n/a	"5102"	"0"	n/a	"NULL"	"NULL"	"NULL"	"<p style='color:rgb(76,175,80);'> Correct Responses: <b>100.00%</b></p><hr><p style='color:rgb(233,30,99);'> Average Response Time: <b>1233.50</b> ms.</p>"	n/a	n/a	n/a	n/a	n/a	n/a	n/a	n/a	n/a	n/a
"TRUE"	"preload"	"35"	"117202"	"0.0-4.0-3.0-0.0"	"pg63be"	"600"	"1366"	"chrome"	"108.0.0"	"FALSE"	"Windows 10"	"60.92"	"128"	n/a	n/a	n/a	n/a	n/a	n/a	n/a	n/a	n/a	n/a	n/a	"NULL"	"FALSE"	"list()"	"list()"	"list()"	n/a	n/a	n/a	n/a	n/a	n/a	n/a	n/a	n/a	n/a	n/a
n/a	"html-keyboard-response"	"36"	"125876"	"0.0-4.0-3.0-1.0"	"pg63be"	"600"	"1366"	"chrome"	"108.0.0"	"FALSE"	"Windows 10"	"60.92"	"128"	n/a	n/a	n/a	n/a	n/a	n/a	n/a	n/a	n/a	n/a	"8674"	"enter"	n/a	"NULL"	"NULL"	"NULL"	"<p><b>Practice</b></p><p>In this part, two red lines will appear side by side.</p><p>Your task is to tell <b>which line is longer</b> in length, regardless of their orientation, as fast as you can, and without making errors.</p><p>Don't get distracted by the orientation of the lines!</p><p>Press <b>the LEFT or the RIGHT arrow</b> to indicate which <b>line is the longer one.</b></p><div style='float: center'><img src='materials/instructions/VerticalHorizontal_Demo.png' height='300'></img><p><img src='utils/answer/answer_leftright_keyboard.PNG' height='150'></img></p><p class='small'>In this example, the correct answer is the <b>LEFT arrow</b>.</p></div><p>Are you ready? <b>Press ENTER to start</b></p>"	n/a	n/a	n/a	n/a	n/a	n/a	n/a	n/a	n/a	n/a
n/a	"html-keyboard-response"	"37"	"127618"	"0.0-4.0-3.0-2.0-0.0"	"pg63be"	"600"	"1366"	"chrome"	"108.0.0"	"FALSE"	"Windows 10"	"60.92"	"128"	n/a	n/a	n/a	n/a	n/a	n/a	"fixation"	n/a	n/a	n/a	n/a	"NULL"	n/a	"NULL"	"NULL"	"NULL"	"<p style=\"color: black; font-size: 80px; padding-left: 41%; padding-right: 46%; padding-top: 50%; padding-bottom: 41%\">+</p>"	"1222"	n/a	n/a	n/a	n/a	n/a	n/a	n/a	n/a	n/a
n/a	"image-keyboard-response"	"38"	"128353"	"0.0-4.0-3.0-2.0-1.0"	"pg63be"	"600"	"1366"	"chrome"	"108.0.0"	"FALSE"	"Windows 10"	"60.92"	"128"	n/a	n/a	n/a	n/a	n/a	n/a	"Trial"	n/a	n/a	n/a	"732"	"arrowleft"	n/a	"NULL"	"NULL"	"NULL"	"stimuli/VerticalHorizontal_3300000_0.90000.png"	n/a	"VerticalHorizontal"	"arrowleft"	"1742"	"TRUE"	"VerticalHorizontal"	"330000000000"	"0.9000000000"	"1"	"13"
n/a	"html-keyboard-response"	"39"	"129851"	"0.0-4.0-3.0-2.0-0.1"	"pg63be"	"600"	"1366"	"chrome"	"108.0.0"	"FALSE"	"Windows 10"	"60.92"	"128"	n/a	n/a	n/a	n/a	n/a	n/a	"fixation"	n/a	n/a	n/a	n/a	"NULL"	n/a	"NULL"	"NULL"	"NULL"	"<p style=\"color: black; font-size: 80px; padding-left: 34%; padding-right: 42%; padding-top: 21%; padding-bottom: 37%\">+</p>"	"1496"	n/a	n/a	n/a	n/a	n/a	n/a	n/a	n/a	n/a
n/a	"image-keyboard-response"	"40"	"130196"	"0.0-4.0-3.0-2.0-1.1"	"pg63be"	"600"	"1366"	"chrome"	"108.0.0"	"FALSE"	"Windows 10"	"60.92"	"128"	n/a	n/a	n/a	n/a	n/a	n/a	"Trial"	n/a	n/a	n/a	"343"	"arrowleft"	n/a	"NULL"	"NULL"	"NULL"	"stimuli/VerticalHorizontal_0000000_0.90000.png"	n/a	"VerticalHorizontal"	"arrowleft"	"1498"	"TRUE"	"VerticalHorizontal"	"000000000000"	"0.9000000000"	"1"	"14"
n/a	"html-keyboard-response"	"41"	"131211"	"0.0-4.0-3.0-2.0-0.2"	"pg63be"	"600"	"1366"	"chrome"	"108.0.0"	"FALSE"	"Windows 10"	"60.92"	"128"	n/a	n/a	n/a	n/a	n/a	n/a	"fixation"	n/a	n/a	n/a	n/a	"NULL"	n/a	"NULL"	"NULL"	"NULL"	"<p style=\"color: black; font-size: 80px; padding-left: 5%; padding-right: 41%; padding-top: 7%; padding-bottom: 1%\">+</p>"	"1002"	n/a	n/a	n/a	n/a	n/a	n/a	n/a	n/a	n/a
n/a	"image-keyboard-response"	"42"	"131682"	"0.0-4.0-3.0-2.0-1.2"	"pg63be"	"600"	"1366"	"chrome"	"108.0.0"	"FALSE"	"Windows 10"	"60.92"	"128"	n/a	n/a	n/a	n/a	n/a	n/a	"Trial"	n/a	n/a	n/a	"467"	"arrowright"	n/a	"NULL"	"NULL"	"NULL"	"stimuli/VerticalHorizontal_0000000_-0.9000.png"	n/a	"VerticalHorizontal"	"arrowright"	"1015"	"TRUE"	"VerticalHorizontal"	"000000000000"	"-0.900000000"	"1"	"15"
n/a	"html-keyboard-response"	"43"	"132962"	"0.0-4.0-3.0-2.0-0.3"	"pg63be"	"600"	"1366"	"chrome"	"108.0.0"	"FALSE"	"Windows 10"	"60.92"	"128"	n/a	n/a	n/a	n/a	n/a	n/a	"fixation"	n/a	n/a	n/a	n/a	"NULL"	n/a	"NULL"	"NULL"	"NULL"	"<p style=\"color: black; font-size: 80px; padding-left: 1%; padding-right: 16%; padding-top: 28%; padding-bottom: 28%\">+</p>"	"1259"	n/a	n/a	n/a	n/a	n/a	n/a	n/a	n/a	n/a
n/a	"image-keyboard-response"	"44"	"133380"	"0.0-4.0-3.0-2.0-1.3"	"pg63be"	"600"	"1366"	"chrome"	"108.0.0"	"FALSE"	"Windows 10"	"60.92"	"128"	n/a	n/a	n/a	n/a	n/a	n/a	"Trial"	n/a	n/a	n/a	"417"	"arrowleft"	n/a	"NULL"	"NULL"	"NULL"	"stimuli/VerticalHorizontal_-330000_0.90000.png"	n/a	"VerticalHorizontal"	"arrowleft"	"1280"	"TRUE"	"VerticalHorizontal"	"-33000000000"	"0.9000000000"	"1"	"16"
n/a	"html-keyboard-response"	"45"	"134415"	"0.0-4.0-3.0-2.0-0.4"	"pg63be"	"600"	"1366"	"chrome"	"108.0.0"	"FALSE"	"Windows 10"	"60.92"	"128"	n/a	n/a	n/a	n/a	n/a	n/a	"fixation"	n/a	n/a	n/a	n/a	"NULL"	n/a	"NULL"	"NULL"	"NULL"	"<p style=\"color: black; font-size: 80px; padding-left: 37%; padding-right: 1%; padding-top: 6%; padding-bottom: 25%\">+</p>"	"1027"	n/a	n/a	n/a	n/a	n/a	n/a	n/a	n/a	n/a
n/a	"image-keyboard-response"	"46"	"134787"	"0.0-4.0-3.0-2.0-1.4"	"pg63be"	"600"	"1366"	"chrome"	"108.0.0"	"FALSE"	"Windows 10"	"60.92"	"128"	n/a	n/a	n/a	n/a	n/a	n/a	"Trial"	n/a	n/a	n/a	"371"	"arrowright"	n/a	"NULL"	"NULL"	"NULL"	"stimuli/VerticalHorizontal_-330000_-0.9000.png"	n/a	"VerticalHorizontal"	"arrowright"	"1035"	"TRUE"	"VerticalHorizontal"	"-33000000000"	"-0.900000000"	"1"	"17"
n/a	"html-keyboard-response"	"47"	"136119"	"0.0-4.0-3.0-2.0-0.5"	"pg63be"	"600"	"1366"	"chrome"	"108.0.0"	"FALSE"	"Windows 10"	"60.92"	"128"	n/a	n/a	n/a	n/a	n/a	n/a	"fixation"	n/a	n/a	n/a	n/a	"NULL"	n/a	"NULL"	"NULL"	"NULL"	"<p style=\"color: black; font-size: 80px; padding-left: 11%; padding-right: 35%; padding-top: 5%; padding-bottom: 14%\">+</p>"	"1317"	n/a	n/a	n/a	n/a	n/a	n/a	n/a	n/a	n/a
n/a	"image-keyboard-response"	"48"	"136480"	"0.0-4.0-3.0-2.0-1.5"	"pg63be"	"600"	"1366"	"chrome"	"108.0.0"	"FALSE"	"Windows 10"	"60.92"	"128"	n/a	n/a	n/a	n/a	n/a	n/a	"Trial"	n/a	n/a	n/a	"359"	"arrowright"	n/a	"NULL"	"NULL"	"NULL"	"stimuli/VerticalHorizontal_3300000_-0.9000.png"	n/a	"VerticalHorizontal"	"arrowright"	"1332"	"TRUE"	"VerticalHorizontal"	"330000000000"	"-0.900000000"	"1"	"18"
n/a	"html-button-response"	"49"	"140726"	"0.0-4.0-3.0-3.0"	"pg63be"	"600"	"1366"	"chrome"	"108.0.0"	"FALSE"	"Windows 10"	"60.92"	"128"	n/a	n/a	n/a	n/a	n/a	n/a	"practice_block_results"	n/a	n/a	n/a	"4241"	"0"	n/a	"NULL"	"NULL"	"NULL"	"<p style='color:rgb(76,175,80);'> Correct Responses: <b>100.00%</b></p><hr><p style='color:rgb(233,30,99);'> Average Response Time: <b>448.17</b> ms.</p>"	n/a	n/a	n/a	n/a	n/a	n/a	n/a	n/a	n/a	n/a
n/a	"html-button-response"	"50"	"213930"	"0.0-4.0-4.0"	"pg63be"	"600"	"1366"	"chrome"	"108.0.0"	"FALSE"	"Windows 10"	"60.92"	"128"	n/a	n/a	n/a	n/a	n/a	n/a	"practice_debrief"	n/a	n/a	n/a	"72687"	"0"	n/a	"NULL"	"NULL"	"NULL"	"<p><b>TRAINING COMPLETED</b></p><p>In the next phase, there will be more trials, and some might be harder too.<br> Moreover, after each illusion block, a <b>score</b> will be calculated based on speed (time you took to answer) and accuracy (number of errors).</p><p>Try to keep up a high score!</p><br><p>Note that it can be <i>really</i> challenging at times, so you will need to rely on your <b>intuition</b> and gut feeling to answer as fast as you can without making errors.</p><p>Each illusion block will be repeated two times (so that you have the opportunity to improve your score), but the order of the blocks is random.</p><p>Remember, your goal is to be as <b>fast</b> and <b>accurate</b> as possible. Good luck!</p><br>"	n/a	n/a	n/a	n/a	n/a	n/a	n/a	n/a	n/a	n/a
"TRUE"	"preload"	"51"	"214140"	"0.0-5.0-0.0"	"pg63be"	"600"	"1366"	"chrome"	"108.0.0"	"FALSE"	"Windows 10"	"60.92"	"128"	n/a	n/a	n/a	n/a	n/a	n/a	n/a	n/a	n/a	n/a	n/a	"NULL"	"FALSE"	"list()"	"list()"	"list()"	n/a	n/a	n/a	n/a	n/a	n/a	n/a	n/a	n/a	n/a	n/a
n/a	"html-keyboard-response"	"52"	"221396"	"0.0-5.0-1.0"	"pg63be"	"600"	"1366"	"chrome"	"108.0.0"	"FALSE"	"Windows 10"	"60.92"	"128"	n/a	n/a	n/a	n/a	n/a	n/a	n/a	n/a	n/a	n/a	"7255"	"enter"	n/a	"NULL"	"NULL"	"NULL"	"<p><b>Part 1/6</b></p><p>In this part, two red circles will appear side by side on the screen.</p><p>Your task is to select which <b>red circle is bigger</b> in size as fast as you can, without making errors.</p><p>Don't get distracted by the surrounding black circles around the red circles!</p><p>Press <b>the LEFT or the RIGHT arrow</b> to indicate which is the bigger <b>red circle.</b></p><div style='float: center'><img src='materials/instructions/Ebbinghaus_Demo.png' height='300'></img><p><img src='utils/answer/answer_leftright_keyboard.PNG' height='150'></img></p><p class='small'>In this example, the correct answer is the <b>LEFT arrow</b>.</p></div><p>Are you ready? <b>Press ENTER to start</b></p>"	n/a	n/a	n/a	n/a	n/a	n/a	n/a	n/a	n/a	n/a
n/a	"html-keyboard-response"	"53"	"223174"	"0.0-5.0-2.0-0.0"	"pg63be"	"600"	"1366"	"chrome"	"108.0.0"	"FALSE"	"Windows 10"	"60.92"	"128"	n/a	n/a	n/a	n/a	n/a	n/a	"fixation"	n/a	n/a	n/a	n/a	"NULL"	n/a	"NULL"	"NULL"	"NULL"	"<p style=\"color: black; font-size: 80px; padding-left: 46%; padding-right: 9%; padding-top: 8%; padding-bottom: 21%\">+</p>"	"1254"	n/a	n/a	n/a	n/a	n/a	n/a	n/a	n/a	n/a
n/a	"image-keyboard-response"	"54"	"223774"	"0.0-5.0-2.0-1.0"	"pg63be"	"600"	"1366"	"chrome"	"108.0.0"	"FALSE"	"Windows 10"	"60.92"	"128"	n/a	n/a	n/a	n/a	n/a	n/a	"Trial"	n/a	n/a	n/a	"598"	"arrowright"	n/a	"NULL"	"NULL"	"NULL"	"stimuli/Ebbinghaus_0.61429_-0.11071.png"	n/a	"Ebbinghaus"	"arrowright"	"1778"	"TRUE"	"Ebbinghaus"	"0.6142900000"	"-0.110710000"	"1"	"19"
n/a	"html-keyboard-response"	"55"	"224878"	"0.0-5.0-2.0-0.1"	"pg63be"	"600"	"1366"	"chrome"	"108.0.0"	"FALSE"	"Windows 10"	"60.92"	"128"	n/a	n/a	n/a	n/a	n/a	n/a	"fixation"	n/a	n/a	n/a	n/a	"NULL"	n/a	"NULL"	"NULL"	"NULL"	"<p style=\"color: black; font-size: 80px; padding-left: 0%; padding-right: 17%; padding-top: 35%; padding-bottom: 48%\">+</p>"	"1098"	n/a	n/a	n/a	n/a	n/a	n/a	n/a	n/a	n/a
n/a	"image-keyboard-response"	"56"	"225547"	"0.0-5.0-2.0-1.1"	"pg63be"	"600"	"1366"	"chrome"	"108.0.0"	"FALSE"	"Windows 10"	"60.92"	"128"	n/a	n/a	n/a	n/a	n/a	n/a	"Trial"	n/a	n/a	n/a	"668"	"arrowright"	n/a	"NULL"	"NULL"	"NULL"	"stimuli/Ebbinghaus_-0.87143_-0.15857.png"	n/a	"Ebbinghaus"	"arrowright"	"1104"	"TRUE"	"Ebbinghaus"	"-0.871430000"	"-0.158570000"	"1"	"20"
n/a	"html-keyboard-response"	"57"	"226903"	"0.0-5.0-2.0-0.2"	"pg63be"	"600"	"1366"	"chrome"	"108.0.0"	"FALSE"	"Windows 10"	"60.92"	"128"	n/a	n/a	n/a	n/a	n/a	n/a	"fixation"	n/a	n/a	n/a	n/a	"NULL"	n/a	"NULL"	"NULL"	"NULL"	"<p style=\"color: black; font-size: 80px; padding-left: 14%; padding-right: 3%; padding-top: 2%; padding-bottom: 2%\">+</p>"	"1343"	n/a	n/a	n/a	n/a	n/a	n/a	n/a	n/a	n/a
n/a	"image-keyboard-response"	"58"	"227983"	"0.0-5.0-2.0-1.2"	"pg63be"	"600"	"1366"	"chrome"	"108.0.0"	"FALSE"	"Windows 10"	"60.92"	"128"	n/a	n/a	n/a	n/a	n/a	n/a	"Trial"	n/a	n/a	n/a	"1078"	"arrowleft"	n/a	"NULL"	"NULL"	"NULL"	"stimuli/Ebbinghaus_0.10000_0.15857.png"	n/a	"Ebbinghaus"	"arrowleft"	"1356"	"TRUE"	"Ebbinghaus"	"0.1000000000"	"0.1585700000"	"1"	"21"
n/a	"html-keyboard-response"	"59"	"229282"	"0.0-5.0-2.0-0.3"	"pg63be"	"600"	"1366"	"chrome"	"108.0.0"	"FALSE"	"Windows 10"	"60.92"	"128"	n/a	n/a	n/a	n/a	n/a	n/a	"fixation"	n/a	n/a	n/a	n/a	"NULL"	n/a	"NULL"	"NULL"	"NULL"	"<p style=\"color: black; font-size: 80px; padding-left: 17%; padding-right: 20%; padding-top: 19%; padding-bottom: 32%\">+</p>"	"1285"	n/a	n/a	n/a	n/a	n/a	n/a	n/a	n/a	n/a
n/a	"image-keyboard-response"	"60"	"230113"	"0.0-5.0-2.0-1.3"	"pg63be"	"600"	"1366"	"chrome"	"108.0.0"	"FALSE"	"Windows 10"	"60.92"	"128"	n/a	n/a	n/a	n/a	n/a	n/a	"Trial"	n/a	n/a	n/a	"830"	"arrowleft"	n/a	"NULL"	"NULL"	"NULL"	"stimuli/Ebbinghaus_0.35714_0.28000.png"	n/a	"Ebbinghaus"	"arrowleft"	"1299"	"TRUE"	"Ebbinghaus"	"0.3571400000"	"0.2800000000"	"1"	"22"
n/a	"html-keyboard-response"	"61"	"231552"	"0.0-5.0-2.0-0.4"	"pg63be"	"600"	"1366"	"chrome"	"108.0.0"	"FALSE"	"Windows 10"	"60.92"	"128"	n/a	n/a	n/a	n/a	n/a	n/a	"fixation"	n/a	n/a	n/a	n/a	"NULL"	n/a	"NULL"	"NULL"	"NULL"	"<p style=\"color: black; font-size: 80px; padding-left: 35%; padding-right: 8%; padding-top: 42%; padding-bottom: 6%\">+</p>"	"1429"	n/a	n/a	n/a	n/a	n/a	n/a	n/a	n/a	n/a
n/a	"image-keyboard-response"	"62"	"232286"	"0.0-5.0-2.0-1.4"	"pg63be"	"600"	"1366"	"chrome"	"108.0.0"	"FALSE"	"Windows 10"	"60.92"	"128"	n/a	n/a	n/a	n/a	n/a	n/a	"Trial"	n/a	n/a	n/a	"733"	"arrowright"	n/a	"NULL"	"NULL"	"NULL"	"stimuli/Ebbinghaus_0.10000_-0.15857.png"	n/a	"Ebbinghaus"	"arrowright"	"1439"	"TRUE"	"Ebbinghaus"	"0.1000000000"	"-0.158570000"	"1"	"23"
n/a	"html-keyboard-response"	"63"	"233462"	"0.0-5.0-2.0-0.5"	"pg63be"	"600"	"1366"	"chrome"	"108.0.0"	"FALSE"	"Windows 10"	"60.92"	"128"	n/a	n/a	n/a	n/a	n/a	n/a	"fixation"	n/a	n/a	n/a	n/a	"NULL"	n/a	"NULL"	"NULL"	"NULL"	"<p style=\"color: black; font-size: 80px; padding-left: 38%; padding-right: 24%; padding-top: 8%; padding-bottom: 5%\">+</p>"	"1159"	n/a	n/a	n/a	n/a	n/a	n/a	n/a	n/a	n/a
n/a	"image-keyboard-response"	"64"	"234510"	"0.0-5.0-2.0-1.5"	"pg63be"	"600"	"1366"	"chrome"	"108.0.0"	"FALSE"	"Windows 10"	"60.92"	"128"	n/a	n/a	n/a	n/a	n/a	n/a	"Trial"	n/a	n/a	n/a	"1046"	"arrowleft"	n/a	"NULL"	"NULL"	"NULL"	"stimuli/Ebbinghaus_0.10000_0.21500.png"	n/a	"Ebbinghaus"	"arrowleft"	"1176"	"TRUE"	"Ebbinghaus"	"0.1000000000"	"0.2150000000"	"1"	"24"
n/a	"html-keyboard-response"	"65"	"235842"	"0.0-5.0-2.0-0.6"	"pg63be"	"600"	"1366"	"chrome"	"108.0.0"	"FALSE"	"Windows 10"	"60.92"	"128"	n/a	n/a	n/a	n/a	n/a	n/a	"fixation"	n/a	n/a	n/a	n/a	"NULL"	n/a	"NULL"	"NULL"	"NULL"	"<p style=\"color: black; font-size: 80px; padding-left: 47%; padding-right: 23%; padding-top: 13%; padding-bottom: 25%\">+</p>"	"1317"	n/a	n/a	n/a	n/a	n/a	n/a	n/a	n/a	n/a
n/a	"image-keyboard-response"	"66"	"236896"	"0.0-5.0-2.0-1.6"	"pg63be"	"600"	"1366"	"chrome"	"108.0.0"	"FALSE"	"Windows 10"	"60.92"	"128"	n/a	n/a	n/a	n/a	n/a	n/a	"Trial"	n/a	n/a	n/a	"1053"	"arrowleft"	n/a	"NULL"	"NULL"	"NULL"	"stimuli/Ebbinghaus_0.61429_-0.2150.png"	n/a	"Ebbinghaus"	"arrowright"	"1332"	"FALSE"	"Ebbinghaus"	"0.6142900000"	"-0.215000000"	"1"	"25"
n/a	"html-keyboard-response"	"67"	"238336"	"0.0-5.0-2.0-0.7"	"pg63be"	"600"	"1366"	"chrome"	"108.0.0"	"FALSE"	"Windows 10"	"60.92"	"128"	n/a	n/a	n/a	n/a	n/a	n/a	"fixation"	n/a	n/a	n/a	n/a	"NULL"	n/a	"NULL"	"NULL"	"NULL"	"<p style=\"color: black; font-size: 80px; padding-left: 16%; padding-right: 27%; padding-top: 14%; padding-bottom: 11%\">+</p>"	"1422"	n/a	n/a	n/a	n/a	n/a	n/a	n/a	n/a	n/a
n/a	"image-keyboard-response"	"68"	"239076"	"0.0-5.0-2.0-1.7"	"pg63be"	"600"	"1366"	"chrome"	"108.0.0"	"FALSE"	"Windows 10"	"60.92"	"128"	n/a	n/a	n/a	n/a	n/a	n/a	"Trial"	n/a	n/a	n/a	"738"	"arrowleft"	n/a	"NULL"	"NULL"	"NULL"	"stimuli/Ebbinghaus_-0.87143_0.28000.png"	n/a	"Ebbinghaus"	"arrowleft"	"1440"	"TRUE"	"Ebbinghaus"	"-0.871430000"	"0.2800000000"	"1"	"26"
n/a	"html-keyboard-response"	"69"	"240119"	"0.0-5.0-2.0-0.8"	"pg63be"	"600"	"1366"	"chrome"	"108.0.0"	"FALSE"	"Windows 10"	"60.92"	"128"	n/a	n/a	n/a	n/a	n/a	n/a	"fixation"	n/a	n/a	n/a	n/a	"NULL"	n/a	"NULL"	"NULL"	"NULL"	"<p style=\"color: black; font-size: 80px; padding-left: 30%; padding-right: 46%; padding-top: 38%; padding-bottom: 2%\">+</p>"	"1038"	n/a	n/a	n/a	n/a	n/a	n/a	n/a	n/a	n/a
n/a	"image-keyboard-response"	"70"	"241184"	"0.0-5.0-2.0-1.8"	"pg63be"	"600"	"1366"	"chrome"	"108.0.0"	"FALSE"	"Windows 10"	"60.92"	"128"	n/a	n/a	n/a	n/a	n/a	n/a	"Trial"	n/a	n/a	n/a	"1061"	"arrowleft"	n/a	"NULL"	"NULL"	"NULL"	"stimuli/Ebbinghaus_-0.35714_0.11071.png"	n/a	"Ebbinghaus"	"arrowleft"	"1043"	"TRUE"	"Ebbinghaus"	"-0.357140000"	"0.1107100000"	"1"	"27"
n/a	"html-keyboard-response"	"71"	"242425"	"0.0-5.0-2.0-0.9"	"pg63be"	"600"	"1366"	"chrome"	"108.0.0"	"FALSE"	"Windows 10"	"60.92"	"128"	n/a	n/a	n/a	n/a	n/a	n/a	"fixation"	n/a	n/a	n/a	n/a	"NULL"	n/a	"NULL"	"NULL"	"NULL"	"<p style=\"color: black; font-size: 80px; padding-left: 43%; padding-right: 12%; padding-top: 13%; padding-bottom: 43%\">+</p>"	"1225"	n/a	n/a	n/a	n/a	n/a	n/a	n/a	n/a	n/a
n/a	"image-keyboard-response"	"72"	"243385"	"0.0-5.0-2.0-1.9"	"pg63be"	"600"	"1366"	"chrome"	"108.0.0"	"FALSE"	"Windows 10"	"60.92"	"128"	n/a	n/a	n/a	n/a	n/a	n/a	"Trial"	n/a	n/a	n/a	"959"	"arrowleft"	n/a	"NULL"	"NULL"	"NULL"	"stimuli/Ebbinghaus_0.10000_0.11071.png"	n/a	"Ebbinghaus"	"arrowleft"	"1241"	"TRUE"	"Ebbinghaus"	"0.1000000000"	"0.1107100000"	"1"	"28"
n/a	"html-keyboard-response"	"73"	"244696"	"0.0-5.0-2.0-0.10"	"pg63be"	"600"	"1366"	"chrome"	"108.0.0"	"FALSE"	"Windows 10"	"60.92"	"128"	n/a	n/a	n/a	n/a	n/a	n/a	"fixation"	n/a	n/a	n/a	n/a	"NULL"	n/a	"NULL"	"NULL"	"NULL"	"<p style=\"color: black; font-size: 80px; padding-left: 10%; padding-right: 6%; padding-top: 5%; padding-bottom: 13%\">+</p>"	"1291"	n/a	n/a	n/a	n/a	n/a	n/a	n/a	n/a	n/a
n/a	"image-keyboard-response"	"74"	"245686"	"0.0-5.0-2.0-1.10"	"pg63be"	"600"	"1366"	"chrome"	"108.0.0"	"FALSE"	"Windows 10"	"60.92"	"128"	n/a	n/a	n/a	n/a	n/a	n/a	"Trial"	n/a	n/a	n/a	"988"	"arrowleft"	n/a	"NULL"	"NULL"	"NULL"	"stimuli/Ebbinghaus_0.61429_0.15857.png"	n/a	"Ebbinghaus"	"arrowleft"	"1311"	"TRUE"	"Ebbinghaus"	"0.6142900000"	"0.1585700000"	"1"	"29"
n/a	"html-keyboard-response"	"75"	"247166"	"0.0-5.0-2.0-0.11"	"pg63be"	"600"	"1366"	"chrome"	"108.0.0"	"FALSE"	"Windows 10"	"60.92"	"128"	n/a	n/a	n/a	n/a	n/a	n/a	"fixation"	n/a	n/a	n/a	n/a	"NULL"	n/a	"NULL"	"NULL"	"NULL"	"<p style=\"color: black; font-size: 80px; padding-left: 33%; padding-right: 12%; padding-top: 48%; padding-bottom: 17%\">+</p>"	"1475"	n/a	n/a	n/a	n/a	n/a	n/a	n/a	n/a	n/a
n/a	"image-keyboard-response"	"76"	"247959"	"0.0-5.0-2.0-1.11"	"pg63be"	"600"	"1366"	"chrome"	"108.0.0"	"FALSE"	"Windows 10"	"60.92"	"128"	n/a	n/a	n/a	n/a	n/a	n/a	"Trial"	n/a	n/a	n/a	"792"	"arrowleft"	n/a	"NULL"	"NULL"	"NULL"	"stimuli/Ebbinghaus_-0.35714_0.28000.png"	n/a	"Ebbinghaus"	"arrowleft"	"1480"	"TRUE"	"Ebbinghaus"	"-0.357140000"	"0.2800000000"	"1"	"30"
n/a	"html-keyboard-response"	"77"	"249071"	"0.0-5.0-2.0-0.12"	"pg63be"	"600"	"1366"	"chrome"	"108.0.0"	"FALSE"	"Windows 10"	"60.92"	"128"	n/a	n/a	n/a	n/a	n/a	n/a	"fixation"	n/a	n/a	n/a	n/a	"NULL"	n/a	"NULL"	"NULL"	"NULL"	"<p style=\"color: black; font-size: 80px; padding-left: 21%; padding-right: 40%; padding-top: 44%; padding-bottom: 10%\">+</p>"	"1099"	n/a	n/a	n/a	n/a	n/a	n/a	n/a	n/a	n/a
n/a	"image-keyboard-response"	"78"	"249857"	"0.0-5.0-2.0-1.12"	"pg63be"	"600"	"1366"	"chrome"	"108.0.0"	"FALSE"	"Windows 10"	"60.92"	"128"	n/a	n/a	n/a	n/a	n/a	n/a	"Trial"	n/a	n/a	n/a	"785"	"arrowleft"	n/a	"NULL"	"NULL"	"NULL"	"stimuli/Ebbinghaus_-0.61429_0.15857.png"	n/a	"Ebbinghaus"	"arrowleft"	"1112"	"TRUE"	"Ebbinghaus"	"-0.614290000"	"0.1585700000"	"1"	"31"
n/a	"html-keyboard-response"	"79"	"251375"	"0.0-5.0-2.0-0.13"	"pg63be"	"600"	"1366"	"chrome"	"108.0.0"	"FALSE"	"Windows 10"	"60.92"	"128"	n/a	n/a	n/a	n/a	n/a	n/a	"fixation"	n/a	n/a	n/a	n/a	"NULL"	n/a	"NULL"	"NULL"	"NULL"	"<p style=\"color: black; font-size: 80px; padding-left: 36%; padding-right: 46%; padding-top: 34%; padding-bottom: 5%\">+</p>"	"1497"	n/a	n/a	n/a	n/a	n/a	n/a	n/a	n/a	n/a
n/a	"image-keyboard-response"	"80"	"252082"	"0.0-5.0-2.0-1.13"	"pg63be"	"600"	"1366"	"chrome"	"108.0.0"	"FALSE"	"Windows 10"	"60.92"	"128"	n/a	n/a	n/a	n/a	n/a	n/a	"Trial"	n/a	n/a	n/a	"705"	"arrowright"	n/a	"NULL"	"NULL"	"NULL"	"stimuli/Ebbinghaus_-0.61429_-0.2800.png"	n/a	"Ebbinghaus"	"arrowright"	"1518"	"TRUE"	"Ebbinghaus"	"-0.614290000"	"-0.280000000"	"1"	"32"
n/a	"html-keyboard-response"	"81"	"253397"	"0.0-5.0-2.0-0.14"	"pg63be"	"600"	"1366"	"chrome"	"108.0.0"	"FALSE"	"Windows 10"	"60.92"	"128"	n/a	n/a	n/a	n/a	n/a	n/a	"fixation"	n/a	n/a	n/a	n/a	"NULL"	n/a	"NULL"	"NULL"	"NULL"	"<p style=\"color: black; font-size: 80px; padding-left: 14%; padding-right: 30%; padding-top: 49%; padding-bottom: 19%\">+</p>"	"1299"	n/a	n/a	n/a	n/a	n/a	n/a	n/a	n/a	n/a
n/a	"image-keyboard-response"	"82"	"254485"	"0.0-5.0-2.0-1.14"	"pg63be"	"600"	"1366"	"chrome"	"108.0.0"	"FALSE"	"Windows 10"	"60.92"	"128"	n/a	n/a	n/a	n/a	n/a	n/a	"Trial"	n/a	n/a	n/a	"1081"	"arrowleft"	n/a	"NULL"	"NULL"	"NULL"	"stimuli/Ebbinghaus_0.35714_0.11071.png"	n/a	"Ebbinghaus"	"arrowleft"	"1315"	"TRUE"	"Ebbinghaus"	"0.3571400000"	"0.1107100000"	"1"	"33"
n/a	"html-keyboard-response"	"83"	"255578"	"0.0-5.0-2.0-0.15"	"pg63be"	"600"	"1366"	"chrome"	"108.0.0"	"FALSE"	"Windows 10"	"60.92"	"128"	n/a	n/a	n/a	n/a	n/a	n/a	"fixation"	n/a	n/a	n/a	n/a	"NULL"	n/a	"NULL"	"NULL"	"NULL"	"<p style=\"color: black; font-size: 80px; padding-left: 41%; padding-right: 34%; padding-top: 21%; padding-bottom: 36%\">+</p>"	"1076"	n/a	n/a	n/a	n/a	n/a	n/a	n/a	n/a	n/a
n/a	"image-keyboard-response"	"84"	"256550"	"0.0-5.0-2.0-1.15"	"pg63be"	"600"	"1366"	"chrome"	"108.0.0"	"FALSE"	"Windows 10"	"60.92"	"128"	n/a	n/a	n/a	n/a	n/a	n/a	"Trial"	n/a	n/a	n/a	"969"	"arrowleft"	n/a	"NULL"	"NULL"	"NULL"	"stimuli/Ebbinghaus_0.35714_0.21500.png"	n/a	"Ebbinghaus"	"arrowleft"	"1093"	"TRUE"	"Ebbinghaus"	"0.3571400000"	"0.2150000000"	"1"	"34"
n/a	"html-keyboard-response"	"85"	"257849"	"0.0-5.0-2.0-0.16"	"pg63be"	"600"	"1366"	"chrome"	"108.0.0"	"FALSE"	"Windows 10"	"60.92"	"128"	n/a	n/a	n/a	n/a	n/a	n/a	"fixation"	n/a	n/a	n/a	n/a	"NULL"	n/a	"NULL"	"NULL"	"NULL"	"<p style=\"color: black; font-size: 80px; padding-left: 5%; padding-right: 47%; padding-top: 11%; padding-bottom: 46%\">+</p>"	"1277"	n/a	n/a	n/a	n/a	n/a	n/a	n/a	n/a	n/a
n/a	"image-keyboard-response"	"86"	"258706"	"0.0-5.0-2.0-1.16"	"pg63be"	"600"	"1366"	"chrome"	"108.0.0"	"FALSE"	"Windows 10"	"60.92"	"128"	n/a	n/a	n/a	n/a	n/a	n/a	"Trial"	n/a	n/a	n/a	"856"	"arrowright"	n/a	"NULL"	"NULL"	"NULL"	"stimuli/Ebbinghaus_0.35714_-0.15857.png"	n/a	"Ebbinghaus"	"arrowright"	"1299"	"TRUE"	"Ebbinghaus"	"0.3571400000"	"-0.158570000"	"1"	"35"
n/a	"html-keyboard-response"	"87"	"260180"	"0.0-5.0-2.0-0.17"	"pg63be"	"600"	"1366"	"chrome"	"108.0.0"	"FALSE"	"Windows 10"	"60.92"	"128"	n/a	n/a	n/a	n/a	n/a	n/a	"fixation"	n/a	n/a	n/a	n/a	"NULL"	n/a	"NULL"	"NULL"	"NULL"	"<p style=\"color: black; font-size: 80px; padding-left: 2%; padding-right: 22%; padding-top: 8%; padding-bottom: 16%\">+</p>"	"1462"	n/a	n/a	n/a	n/a	n/a	n/a	n/a	n/a	n/a
n/a	"image-keyboard-response"	"88"	"260719"	"0.0-5.0-2.0-1.17"	"pg63be"	"600"	"1366"	"chrome"	"108.0.0"	"FALSE"	"Windows 10"	"60.92"	"128"	n/a	n/a	n/a	n/a	n/a	n/a	"Trial"	n/a	n/a	n/a	"537"	"arrowleft"	n/a	"NULL"	"NULL"	"NULL"	"stimuli/Ebbinghaus_0.61429_0.28000.png"	n/a	"Ebbinghaus"	"arrowleft"	"1474"	"TRUE"	"Ebbinghaus"	"0.6142900000"	"0.2800000000"	"1"	"36"
n/a	"html-keyboard-response"	"89"	"262041"	"0.0-5.0-2.0-0.18"	"pg63be"	"600"	"1366"	"chrome"	"108.0.0"	"FALSE"	"Windows 10"	"60.92"	"128"	n/a	n/a	n/a	n/a	n/a	n/a	"fixation"	n/a	n/a	n/a	n/a	"NULL"	n/a	"NULL"	"NULL"	"NULL"	"<p style=\"color: black; font-size: 80px; padding-left: 45%; padding-right: 38%; padding-top: 0%; padding-bottom: 29%\">+</p>"	"1301"	n/a	n/a	n/a	n/a	n/a	n/a	n/a	n/a	n/a
n/a	"image-keyboard-response"	"90"	"262747"	"0.0-5.0-2.0-1.18"	"pg63be"	"600"	"1366"	"chrome"	"108.0.0"	"FALSE"	"Windows 10"	"60.92"	"128"	n/a	n/a	n/a	n/a	n/a	n/a	"Trial"	n/a	n/a	n/a	"704"	"arrowright"	n/a	"NULL"	"NULL"	"NULL"	"stimuli/Ebbinghaus_-0.1000_0.15857.png"	n/a	"Ebbinghaus"	"arrowleft"	"1322"	"FALSE"	"Ebbinghaus"	"-0.100000000"	"0.1585700000"	"1"	"37"
n/a	"html-keyboard-response"	"91"	"264105"	"0.0-5.0-2.0-0.19"	"pg63be"	"600"	"1366"	"chrome"	"108.0.0"	"FALSE"	"Windows 10"	"60.92"	"128"	n/a	n/a	n/a	n/a	n/a	n/a	"fixation"	n/a	n/a	n/a	n/a	"NULL"	n/a	"NULL"	"NULL"	"NULL"	"<p style=\"color: black; font-size: 80px; padding-left: 33%; padding-right: 48%; padding-top: 33%; padding-bottom: 45%\">+</p>"	"1346"	n/a	n/a	n/a	n/a	n/a	n/a	n/a	n/a	n/a
n/a	"image-keyboard-response"	"92"	"264757"	"0.0-5.0-2.0-1.19"	"pg63be"	"600"	"1366"	"chrome"	"108.0.0"	"FALSE"	"Windows 10"	"60.92"	"128"	n/a	n/a	n/a	n/a	n/a	n/a	"Trial"	n/a	n/a	n/a	"651"	"arrowleft"	n/a	"NULL"	"NULL"	"NULL"	"stimuli/Ebbinghaus_0.87143_0.28000.png"	n/a	"Ebbinghaus"	"arrowleft"	"1358"	"TRUE"	"Ebbinghaus"	"0.8714300000"	"0.2800000000"	"1"	"38"
n/a	"html-keyboard-response"	"93"	"266256"	"0.0-5.0-2.0-0.20"	"pg63be"	"600"	"1366"	"chrome"	"108.0.0"	"FALSE"	"Windows 10"	"60.92"	"128"	n/a	n/a	n/a	n/a	n/a	n/a	"fixation"	n/a	n/a	n/a	n/a	"NULL"	n/a	"NULL"	"NULL"	"NULL"	"<p style=\"color: black; font-size: 80px; padding-left: 42%; padding-right: 1%; padding-top: 46%; padding-bottom: 48%\">+</p>"	"1491"	n/a	n/a	n/a	n/a	n/a	n/a	n/a	n/a	n/a
n/a	"image-keyboard-response"	"94"	"266942"	"0.0-5.0-2.0-1.20"	"pg63be"	"600"	"1366"	"chrome"	"108.0.0"	"FALSE"	"Windows 10"	"60.92"	"128"	n/a	n/a	n/a	n/a	n/a	n/a	"Trial"	n/a	n/a	n/a	"684"	"arrowright"	n/a	"NULL"	"NULL"	"NULL"	"stimuli/Ebbinghaus_0.87143_-0.15857.png"	n/a	"Ebbinghaus"	"arrowright"	"1499"	"TRUE"	"Ebbinghaus"	"0.8714300000"	"-0.158570000"	"1"	"39"
n/a	"html-keyboard-response"	"95"	"268422"	"0.0-5.0-2.0-0.21"	"pg63be"	"600"	"1366"	"chrome"	"108.0.0"	"FALSE"	"Windows 10"	"60.92"	"128"	n/a	n/a	n/a	n/a	n/a	n/a	"fixation"	n/a	n/a	n/a	n/a	"NULL"	n/a	"NULL"	"NULL"	"NULL"	"<p style=\"color: black; font-size: 80px; padding-left: 22%; padding-right: 29%; padding-top: 32%; padding-bottom: 43%\">+</p>"	"1465"	n/a	n/a	n/a	n/a	n/a	n/a	n/a	n/a	n/a
n/a	"image-keyboard-response"	"96"	"269236"	"0.0-5.0-2.0-1.21"	"pg63be"	"600"	"1366"	"chrome"	"108.0.0"	"FALSE"	"Windows 10"	"60.92"	"128"	n/a	n/a	n/a	n/a	n/a	n/a	"Trial"	n/a	n/a	n/a	"813"	"arrowright"	n/a	"NULL"	"NULL"	"NULL"	"stimuli/Ebbinghaus_-0.1000_-0.2150.png"	n/a	"Ebbinghaus"	"arrowright"	"1480"	"TRUE"	"Ebbinghaus"	"-0.100000000"	"-0.215000000"	"1"	"40"
n/a	"html-keyboard-response"	"97"	"270425"	"0.0-5.0-2.0-0.22"	"pg63be"	"600"	"1366"	"chrome"	"108.0.0"	"FALSE"	"Windows 10"	"60.92"	"128"	n/a	n/a	n/a	n/a	n/a	n/a	"fixation"	n/a	n/a	n/a	n/a	"NULL"	n/a	"NULL"	"NULL"	"NULL"	"<p style=\"color: black; font-size: 80px; padding-left: 3%; padding-right: 28%; padding-top: 6%; padding-bottom: 32%\">+</p>"	"1169"	n/a	n/a	n/a	n/a	n/a	n/a	n/a	n/a	n/a
n/a	"image-keyboard-response"	"98"	"271320"	"0.0-5.0-2.0-1.22"	"pg63be"	"600"	"1366"	"chrome"	"108.0.0"	"FALSE"	"Windows 10"	"60.92"	"128"	n/a	n/a	n/a	n/a	n/a	n/a	"Trial"	n/a	n/a	n/a	"893"	"arrowleft"	n/a	"NULL"	"NULL"	"NULL"	"stimuli/Ebbinghaus_-0.61429_-0.15857.png"	n/a	"Ebbinghaus"	"arrowright"	"1189"	"FALSE"	"Ebbinghaus"	"-0.614290000"	"-0.158570000"	"1"	"41"
n/a	"html-keyboard-response"	"99"	"272603"	"0.0-5.0-2.0-0.23"	"pg63be"	"600"	"1366"	"chrome"	"108.0.0"	"FALSE"	"Windows 10"	"60.92"	"128"	n/a	n/a	n/a	n/a	n/a	n/a	"fixation"	n/a	n/a	n/a	n/a	"NULL"	n/a	"NULL"	"NULL"	"NULL"	"<p style=\"color: black; font-size: 80px; padding-left: 23%; padding-right: 8%; padding-top: 43%; padding-bottom: 27%\">+</p>"	"1269"	n/a	n/a	n/a	n/a	n/a	n/a	n/a	n/a	n/a
n/a	"image-keyboard-response"	"100"	"273357"	"0.0-5.0-2.0-1.23"	"pg63be"	"600"	"1366"	"chrome"	"108.0.0"	"FALSE"	"Windows 10"	"60.92"	"128"	n/a	n/a	n/a	n/a	n/a	n/a	"Trial"	n/a	n/a	n/a	"752"	"arrowleft"	n/a	"NULL"	"NULL"	"NULL"	"stimuli/Ebbinghaus_-0.87143_0.21500.png"	n/a	"Ebbinghaus"	"arrowleft"	"1283"	"TRUE"	"Ebbinghaus"	"-0.871430000"	"0.2150000000"	"1"	"42"
n/a	"html-keyboard-response"	"101"	"274664"	"0.0-5.0-2.0-0.24"	"pg63be"	"600"	"1366"	"chrome"	"108.0.0"	"FALSE"	"Windows 10"	"60.92"	"128"	n/a	n/a	n/a	n/a	n/a	n/a	"fixation"	n/a	n/a	n/a	n/a	"NULL"	n/a	"NULL"	"NULL"	"NULL"	"<p style=\"color: black; font-size: 80px; padding-left: 24%; padding-right: 46%; padding-top: 37%; padding-bottom: 39%\">+</p>"	"1292"	n/a	n/a	n/a	n/a	n/a	n/a	n/a	n/a	n/a
n/a	"image-keyboard-response"	"102"	"275652"	"0.0-5.0-2.0-1.24"	"pg63be"	"600"	"1366"	"chrome"	"108.0.0"	"FALSE"	"Windows 10"	"60.92"	"128"	n/a	n/a	n/a	n/a	n/a	n/a	"Trial"	n/a	n/a	n/a	"987"	"arrowleft"	n/a	"NULL"	"NULL"	"NULL"	"stimuli/Ebbinghaus_-0.87143_0.15857.png"	n/a	"Ebbinghaus"	"arrowleft"	"1307"	"TRUE"	"Ebbinghaus"	"-0.871430000"	"0.1585700000"	"1"	"43"
n/a	"html-keyboard-response"	"103"	"276725"	"0.0-5.0-2.0-0.25"	"pg63be"	"600"	"1366"	"chrome"	"108.0.0"	"FALSE"	"Windows 10"	"60.92"	"128"	n/a	n/a	n/a	n/a	n/a	n/a	"fixation"	n/a	n/a	n/a	n/a	"NULL"	n/a	"NULL"	"NULL"	"NULL"	"<p style=\"color: black; font-size: 80px; padding-left: 42%; padding-right: 39%; padding-top: 46%; padding-bottom: 31%\">+</p>"	"1059"	n/a	n/a	n/a	n/a	n/a	n/a	n/a	n/a	n/a
n/a	"image-keyboard-response"	"104"	"277883"	"0.0-5.0-2.0-1.25"	"pg63be"	"600"	"1366"	"chrome"	"108.0.0"	"FALSE"	"Windows 10"	"60.92"	"128"	n/a	n/a	n/a	n/a	n/a	n/a	"Trial"	n/a	n/a	n/a	"1157"	"arrowright"	n/a	"NULL"	"NULL"	"NULL"	"stimuli/Ebbinghaus_0.61429_0.11071.png"	n/a	"Ebbinghaus"	"arrowleft"	"1073"	"FALSE"	"Ebbinghaus"	"0.6142900000"	"0.1107100000"	"1"	"44"
n/a	"html-keyboard-response"	"105"	"279001"	"0.0-5.0-2.0-0.26"	"pg63be"	"600"	"1366"	"chrome"	"108.0.0"	"FALSE"	"Windows 10"	"60.92"	"128"	n/a	n/a	n/a	n/a	n/a	n/a	"fixation"	n/a	n/a	n/a	n/a	"NULL"	n/a	"NULL"	"NULL"	"NULL"	"<p style=\"color: black; font-size: 80px; padding-left: 10%; padding-right: 28%; padding-top: 8%; padding-bottom: 30%\">+</p>"	"1110"	n/a	n/a	n/a	n/a	n/a	n/a	n/a	n/a	n/a
n/a	"image-keyboard-response"	"106"	"279702"	"0.0-5.0-2.0-1.26"	"pg63be"	"600"	"1366"	"chrome"	"108.0.0"	"FALSE"	"Windows 10"	"60.92"	"128"	n/a	n/a	n/a	n/a	n/a	n/a	"Trial"	n/a	n/a	n/a	"700"	"arrowright"	n/a	"NULL"	"NULL"	"NULL"	"stimuli/Ebbinghaus_-0.87143_-0.2800.png"	n/a	"Ebbinghaus"	"arrowright"	"1118"	"TRUE"	"Ebbinghaus"	"-0.871430000"	"-0.280000000"	"1"	"45"
n/a	"html-keyboard-response"	"107"	"280992"	"0.0-5.0-2.0-0.27"	"pg63be"	"600"	"1366"	"chrome"	"108.0.0"	"FALSE"	"Windows 10"	"60.92"	"128"	n/a	n/a	n/a	n/a	n/a	n/a	"fixation"	n/a	n/a	n/a	n/a	"NULL"	n/a	"NULL"	"NULL"	"NULL"	"<p style=\"color: black; font-size: 80px; padding-left: 5%; padding-right: 18%; padding-top: 37%; padding-bottom: 21%\">+</p>"	"1270"	n/a	n/a	n/a	n/a	n/a	n/a	n/a	n/a	n/a
n/a	"image-keyboard-response"	"108"	"281902"	"0.0-5.0-2.0-1.27"	"pg63be"	"600"	"1366"	"chrome"	"108.0.0"	"FALSE"	"Windows 10"	"60.92"	"128"	n/a	n/a	n/a	n/a	n/a	n/a	"Trial"	n/a	n/a	n/a	"909"	"arrowright"	n/a	"NULL"	"NULL"	"NULL"	"stimuli/Ebbinghaus_-0.35714_-0.11071.png"	n/a	"Ebbinghaus"	"arrowright"	"1290"	"TRUE"	"Ebbinghaus"	"-0.357140000"	"-0.110710000"	"1"	"46"
n/a	"html-keyboard-response"	"109"	"282995"	"0.0-5.0-2.0-0.28"	"pg63be"	"600"	"1366"	"chrome"	"108.0.0"	"FALSE"	"Windows 10"	"60.92"	"128"	n/a	n/a	n/a	n/a	n/a	n/a	"fixation"	n/a	n/a	n/a	n/a	"NULL"	n/a	"NULL"	"NULL"	"NULL"	"<p style=\"color: black; font-size: 80px; padding-left: 7%; padding-right: 27%; padding-top: 48%; padding-bottom: 3%\">+</p>"	"1069"	n/a	n/a	n/a	n/a	n/a	n/a	n/a	n/a	n/a
n/a	"image-keyboard-response"	"110"	"283797"	"0.0-5.0-2.0-1.28"	"pg63be"	"600"	"1366"	"chrome"	"108.0.0"	"FALSE"	"Windows 10"	"60.92"	"128"	n/a	n/a	n/a	n/a	n/a	n/a	"Trial"	n/a	n/a	n/a	"802"	"arrowright"	n/a	"NULL"	"NULL"	"NULL"	"stimuli/Ebbinghaus_-0.35714_-0.2800.png"	n/a	"Ebbinghaus"	"arrowright"	"1093"	"TRUE"	"Ebbinghaus"	"-0.357140000"	"-0.280000000"	"1"	"47"
n/a	"html-keyboard-response"	"111"	"284885"	"0.0-5.0-2.0-0.29"	"pg63be"	"600"	"1366"	"chrome"	"108.0.0"	"FALSE"	"Windows 10"	"60.92"	"128"	n/a	n/a	n/a	n/a	n/a	n/a	"fixation"	n/a	n/a	n/a	n/a	"NULL"	n/a	"NULL"	"NULL"	"NULL"	"<p style=\"color: black; font-size: 80px; padding-left: 7%; padding-right: 15%; padding-top: 49%; padding-bottom: 37%\">+</p>"	"1083"	n/a	n/a	n/a	n/a	n/a	n/a	n/a	n/a	n/a
n/a	"image-keyboard-response"	"112"	"286118"	"0.0-5.0-2.0-1.29"	"pg63be"	"600"	"1366"	"chrome"	"108.0.0"	"FALSE"	"Windows 10"	"60.92"	"128"	n/a	n/a	n/a	n/a	n/a	n/a	"Trial"	n/a	n/a	n/a	"1232"	"arrowright"	n/a	"NULL"	"NULL"	"NULL"	"stimuli/Ebbinghaus_-0.1000_-0.11071.png"	n/a	"Ebbinghaus"	"arrowright"	"1088"	"TRUE"	"Ebbinghaus"	"-0.100000000"	"-0.110710000"	"1"	"48"
n/a	"html-keyboard-response"	"113"	"287385"	"0.0-5.0-2.0-0.30"	"pg63be"	"600"	"1366"	"chrome"	"108.0.0"	"FALSE"	"Windows 10"	"60.92"	"128"	n/a	n/a	n/a	n/a	n/a	n/a	"fixation"	n/a	n/a	n/a	n/a	"NULL"	n/a	"NULL"	"NULL"	"NULL"	"<p style=\"color: black; font-size: 80px; padding-left: 18%; padding-right: 30%; padding-top: 20%; padding-bottom: 42%\">+</p>"	"1247"	n/a	n/a	n/a	n/a	n/a	n/a	n/a	n/a	n/a
n/a	"image-keyboard-response"	"114"	"288120"	"0.0-5.0-2.0-1.30"	"pg63be"	"600"	"1366"	"chrome"	"108.0.0"	"FALSE"	"Windows 10"	"60.92"	"128"	n/a	n/a	n/a	n/a	n/a	n/a	"Trial"	n/a	n/a	n/a	"733"	"arrowright"	n/a	"NULL"	"NULL"	"NULL"	"stimuli/Ebbinghaus_0.35714_-0.2150.png"	n/a	"Ebbinghaus"	"arrowright"	"1267"	"TRUE"	"Ebbinghaus"	"0.3571400000"	"-0.215000000"	"1"	"49"
n/a	"html-keyboard-response"	"115"	"289508"	"0.0-5.0-2.0-0.31"	"pg63be"	"600"	"1366"	"chrome"	"108.0.0"	"FALSE"	"Windows 10"	"60.92"	"128"	n/a	n/a	n/a	n/a	n/a	n/a	"fixation"	n/a	n/a	n/a	n/a	"NULL"	n/a	"NULL"	"NULL"	"NULL"	"<p style=\"color: black; font-size: 80px; padding-left: 6%; padding-right: 34%; padding-top: 1%; padding-bottom: 42%\">+</p>"	"1374"	n/a	n/a	n/a	n/a	n/a	n/a	n/a	n/a	n/a
n/a	"image-keyboard-response"	"116"	"290548"	"0.0-5.0-2.0-1.31"	"pg63be"	"600"	"1366"	"chrome"	"108.0.0"	"FALSE"	"Windows 10"	"60.92"	"128"	n/a	n/a	n/a	n/a	n/a	n/a	"Trial"	n/a	n/a	n/a	"1039"	"arrowleft"	n/a	"NULL"	"NULL"	"NULL"	"stimuli/Ebbinghaus_0.87143_-0.11071.png"	n/a	"Ebbinghaus"	"arrowright"	"1388"	"FALSE"	"Ebbinghaus"	"0.8714300000"	"-0.110710000"	"1"	"50"
n/a	"html-keyboard-response"	"117"	"291886"	"0.0-5.0-2.0-0.32"	"pg63be"	"600"	"1366"	"chrome"	"108.0.0"	"FALSE"	"Windows 10"	"60.92"	"128"	n/a	n/a	n/a	n/a	n/a	n/a	"fixation"	n/a	n/a	n/a	n/a	"NULL"	n/a	"NULL"	"NULL"	"NULL"	"<p style=\"color: black; font-size: 80px; padding-left: 47%; padding-right: 29%; padding-top: 4%; padding-bottom: 2%\">+</p>"	"1333"	n/a	n/a	n/a	n/a	n/a	n/a	n/a	n/a	n/a
n/a	"image-keyboard-response"	"118"	"292601"	"0.0-5.0-2.0-1.32"	"pg63be"	"600"	"1366"	"chrome"	"108.0.0"	"FALSE"	"Windows 10"	"60.92"	"128"	n/a	n/a	n/a	n/a	n/a	n/a	"Trial"	n/a	n/a	n/a	"713"	"arrowleft"	n/a	"NULL"	"NULL"	"NULL"	"stimuli/Ebbinghaus_-0.61429_0.11071.png"	n/a	"Ebbinghaus"	"arrowleft"	"1338"	"TRUE"	"Ebbinghaus"	"-0.614290000"	"0.1107100000"	"1"	"51"
n/a	"html-keyboard-response"	"119"	"294071"	"0.0-5.0-2.0-0.33"	"pg63be"	"600"	"1366"	"chrome"	"108.0.0"	"FALSE"	"Windows 10"	"60.92"	"128"	n/a	n/a	n/a	n/a	n/a	n/a	"fixation"	n/a	n/a	n/a	n/a	"NULL"	n/a	"NULL"	"NULL"	"NULL"	"<p style=\"color: black; font-size: 80px; padding-left: 40%; padding-right: 40%; padding-top: 45%; padding-bottom: 5%\">+</p>"	"1458"	n/a	n/a	n/a	n/a	n/a	n/a	n/a	n/a	n/a
n/a	"image-keyboard-response"	"120"	"294868"	"0.0-5.0-2.0-1.33"	"pg63be"	"600"	"1366"	"chrome"	"108.0.0"	"FALSE"	"Windows 10"	"60.92"	"128"	n/a	n/a	n/a	n/a	n/a	n/a	"Trial"	n/a	n/a	n/a	"796"	"arrowleft"	n/a	"NULL"	"NULL"	"NULL"	"stimuli/Ebbinghaus_-0.87143_0.11071.png"	n/a	"Ebbinghaus"	"arrowleft"	"1470"	"TRUE"	"Ebbinghaus"	"-0.871430000"	"0.1107100000"	"1"	"52"
n/a	"html-keyboard-response"	"121"	"296284"	"0.0-5.0-2.0-0.34"	"pg63be"	"600"	"1366"	"chrome"	"108.0.0"	"FALSE"	"Windows 10"	"60.92"	"128"	n/a	n/a	n/a	n/a	n/a	n/a	"fixation"	n/a	n/a	n/a	n/a	"NULL"	n/a	"NULL"	"NULL"	"NULL"	"<p style=\"color: black; font-size: 80px; padding-left: 16%; padding-right: 39%; padding-top: 23%; padding-bottom: 50%\">+</p>"	"1406"	n/a	n/a	n/a	n/a	n/a	n/a	n/a	n/a	n/a
n/a	"image-keyboard-response"	"122"	"297028"	"0.0-5.0-2.0-1.34"	"pg63be"	"600"	"1366"	"chrome"	"108.0.0"	"FALSE"	"Windows 10"	"60.92"	"128"	n/a	n/a	n/a	n/a	n/a	n/a	"Trial"	n/a	n/a	n/a	"741"	"arrowleft"	n/a	"NULL"	"NULL"	"NULL"	"stimuli/Ebbinghaus_-0.1000_0.21500.png"	n/a	"Ebbinghaus"	"arrowleft"	"1416"	"TRUE"	"Ebbinghaus"	"-0.100000000"	"0.2150000000"	"1"	"53"
n/a	"html-keyboard-response"	"123"	"298244"	"0.0-5.0-2.0-0.35"	"pg63be"	"600"	"1366"	"chrome"	"108.0.0"	"FALSE"	"Windows 10"	"60.92"	"128"	n/a	n/a	n/a	n/a	n/a	n/a	"fixation"	n/a	n/a	n/a	n/a	"NULL"	n/a	"NULL"	"NULL"	"NULL"	"<p style=\"color: black; font-size: 80px; padding-left: 39%; padding-right: 48%; padding-top: 5%; padding-bottom: 3%\">+</p>"	"1210"	n/a	n/a	n/a	n/a	n/a	n/a	n/a	n/a	n/a
n/a	"image-keyboard-response"	"124"	"298967"	"0.0-5.0-2.0-1.35"	"pg63be"	"600"	"1366"	"chrome"	"108.0.0"	"FALSE"	"Windows 10"	"60.92"	"128"	n/a	n/a	n/a	n/a	n/a	n/a	"Trial"	n/a	n/a	n/a	"723"	"arrowright"	n/a	"NULL"	"NULL"	"NULL"	"stimuli/Ebbinghaus_-0.1000_-0.15857.png"	n/a	"Ebbinghaus"	"arrowright"	"1216"	"TRUE"	"Ebbinghaus"	"-0.100000000"	"-0.158570000"	"1"	"54"
n/a	"html-keyboard-response"	"125"	"300044"	"0.0-5.0-2.0-0.36"	"pg63be"	"600"	"1366"	"chrome"	"108.0.0"	"FALSE"	"Windows 10"	"60.92"	"128"	n/a	n/a	n/a	n/a	n/a	n/a	"fixation"	n/a	n/a	n/a	n/a	"NULL"	n/a	"NULL"	"NULL"	"NULL"	"<p style=\"color: black; font-size: 80px; padding-left: 9%; padding-right: 39%; padding-top: 1%; padding-bottom: 0%\">+</p>"	"1070"	n/a	n/a	n/a	n/a	n/a	n/a	n/a	n/a	n/a
n/a	"image-keyboard-response"	"126"	"300691"	"0.0-5.0-2.0-1.36"	"pg63be"	"600"	"1366"	"chrome"	"108.0.0"	"FALSE"	"Windows 10"	"60.92"	"128"	n/a	n/a	n/a	n/a	n/a	n/a	"Trial"	n/a	n/a	n/a	"647"	"arrowright"	n/a	"NULL"	"NULL"	"NULL"	"stimuli/Ebbinghaus_-0.61429_-0.11071.png"	n/a	"Ebbinghaus"	"arrowright"	"1077"	"TRUE"	"Ebbinghaus"	"-0.614290000"	"-0.110710000"	"1"	"55"
n/a	"html-keyboard-response"	"127"	"302165"	"0.0-5.0-2.0-0.37"	"pg63be"	"600"	"1366"	"chrome"	"108.0.0"	"FALSE"	"Windows 10"	"60.92"	"128"	n/a	n/a	n/a	n/a	n/a	n/a	"fixation"	n/a	n/a	n/a	n/a	"NULL"	n/a	"NULL"	"NULL"	"NULL"	"<p style=\"color: black; font-size: 80px; padding-left: 4%; padding-right: 25%; padding-top: 6%; padding-bottom: 25%\">+</p>"	"1463"	n/a	n/a	n/a	n/a	n/a	n/a	n/a	n/a	n/a
n/a	"image-keyboard-response"	"128"	"302945"	"0.0-5.0-2.0-1.37"	"pg63be"	"600"	"1366"	"chrome"	"108.0.0"	"FALSE"	"Windows 10"	"60.92"	"128"	n/a	n/a	n/a	n/a	n/a	n/a	"Trial"	n/a	n/a	n/a	"778"	"arrowright"	n/a	"NULL"	"NULL"	"NULL"	"stimuli/Ebbinghaus_-0.61429_-0.2150.png"	n/a	"Ebbinghaus"	"arrowright"	"1474"	"TRUE"	"Ebbinghaus"	"-0.614290000"	"-0.215000000"	"1"	"56"
n/a	"html-keyboard-response"	"129"	"304132"	"0.0-5.0-2.0-0.38"	"pg63be"	"600"	"1366"	"chrome"	"108.0.0"	"FALSE"	"Windows 10"	"60.92"	"128"	n/a	n/a	n/a	n/a	n/a	n/a	"fixation"	n/a	n/a	n/a	n/a	"NULL"	n/a	"NULL"	"NULL"	"NULL"	"<p style=\"color: black; font-size: 80px; padding-left: 23%; padding-right: 7%; padding-top: 30%; padding-bottom: 14%\">+</p>"	"1177"	n/a	n/a	n/a	n/a	n/a	n/a	n/a	n/a	n/a
n/a	"image-keyboard-response"	"130"	"305267"	"0.0-5.0-2.0-1.38"	"pg63be"	"600"	"1366"	"chrome"	"108.0.0"	"FALSE"	"Windows 10"	"60.92"	"128"	n/a	n/a	n/a	n/a	n/a	n/a	"Trial"	n/a	n/a	n/a	"1135"	"arrowleft"	n/a	"NULL"	"NULL"	"NULL"	"stimuli/Ebbinghaus_-0.1000_0.11071.png"	n/a	"Ebbinghaus"	"arrowleft"	"1187"	"TRUE"	"Ebbinghaus"	"-0.100000000"	"0.1107100000"	"1"	"57"
n/a	"html-keyboard-response"	"131"	"306726"	"0.0-5.0-2.0-0.39"	"pg63be"	"600"	"1366"	"chrome"	"108.0.0"	"FALSE"	"Windows 10"	"60.92"	"128"	n/a	n/a	n/a	n/a	n/a	n/a	"fixation"	n/a	n/a	n/a	n/a	"NULL"	n/a	"NULL"	"NULL"	"NULL"	"<p style=\"color: black; font-size: 80px; padding-left: 34%; padding-right: 37%; padding-top: 9%; padding-bottom: 34%\">+</p>"	"1451"	n/a	n/a	n/a	n/a	n/a	n/a	n/a	n/a	n/a
n/a	"image-keyboard-response"	"132"	"307407"	"0.0-5.0-2.0-1.39"	"pg63be"	"600"	"1366"	"chrome"	"108.0.0"	"FALSE"	"Windows 10"	"60.92"	"128"	n/a	n/a	n/a	n/a	n/a	n/a	"Trial"	n/a	n/a	n/a	"678"	"arrowright"	n/a	"NULL"	"NULL"	"NULL"	"stimuli/Ebbinghaus_0.35714_-0.11071.png"	n/a	"Ebbinghaus"	"arrowright"	"1459"	"TRUE"	"Ebbinghaus"	"0.3571400000"	"-0.110710000"	"1"	"58"
n/a	"html-keyboard-response"	"133"	"308794"	"0.0-5.0-2.0-0.40"	"pg63be"	"600"	"1366"	"chrome"	"108.0.0"	"FALSE"	"Windows 10"	"60.92"	"128"	n/a	n/a	n/a	n/a	n/a	n/a	"fixation"	n/a	n/a	n/a	n/a	"NULL"	n/a	"NULL"	"NULL"	"NULL"	"<p style=\"color: black; font-size: 80px; padding-left: 50%; padding-right: 35%; padding-top: 42%; padding-bottom: 1%\">+</p>"	"1379"	n/a	n/a	n/a	n/a	n/a	n/a	n/a	n/a	n/a
n/a	"image-keyboard-response"	"134"	"310159"	"0.0-5.0-2.0-1.40"	"pg63be"	"600"	"1366"	"chrome"	"108.0.0"	"FALSE"	"Windows 10"	"60.92"	"128"	n/a	n/a	n/a	n/a	n/a	n/a	"Trial"	n/a	n/a	n/a	"1364"	"arrowright"	n/a	"NULL"	"NULL"	"NULL"	"stimuli/Ebbinghaus_0.61429_-0.2800.png"	n/a	"Ebbinghaus"	"arrowright"	"1387"	"TRUE"	"Ebbinghaus"	"0.6142900000"	"-0.280000000"	"1"	"59"
n/a	"html-keyboard-response"	"135"	"311626"	"0.0-5.0-2.0-0.41"	"pg63be"	"600"	"1366"	"chrome"	"108.0.0"	"FALSE"	"Windows 10"	"60.92"	"128"	n/a	n/a	n/a	n/a	n/a	n/a	"fixation"	n/a	n/a	n/a	n/a	"NULL"	n/a	"NULL"	"NULL"	"NULL"	"<p style=\"color: black; font-size: 80px; padding-left: 17%; padding-right: 33%; padding-top: 29%; padding-bottom: 19%\">+</p>"	"1448"	n/a	n/a	n/a	n/a	n/a	n/a	n/a	n/a	n/a
n/a	"image-keyboard-response"	"136"	"312519"	"0.0-5.0-2.0-1.41"	"pg63be"	"600"	"1366"	"chrome"	"108.0.0"	"FALSE"	"Windows 10"	"60.92"	"128"	n/a	n/a	n/a	n/a	n/a	n/a	"Trial"	n/a	n/a	n/a	"891"	"arrowright"	n/a	"NULL"	"NULL"	"NULL"	"stimuli/Ebbinghaus_0.87143_0.11071.png"	n/a	"Ebbinghaus"	"arrowleft"	"1467"	"FALSE"	"Ebbinghaus"	"0.8714300000"	"0.1107100000"	"1"	"60"
n/a	"html-keyboard-response"	"137"	"313651"	"0.0-5.0-2.0-0.42"	"pg63be"	"600"	"1366"	"chrome"	"108.0.0"	"FALSE"	"Windows 10"	"60.92"	"128"	n/a	n/a	n/a	n/a	n/a	n/a	"fixation"	n/a	n/a	n/a	n/a	"NULL"	n/a	"NULL"	"NULL"	"NULL"	"<p style=\"color: black; font-size: 80px; padding-left: 39%; padding-right: 35%; padding-top: 6%; padding-bottom: 17%\">+</p>"	"1130"	n/a	n/a	n/a	n/a	n/a	n/a	n/a	n/a	n/a
n/a	"image-keyboard-response"	"138"	"314291"	"0.0-5.0-2.0-1.42"	"pg63be"	"600"	"1366"	"chrome"	"108.0.0"	"FALSE"	"Windows 10"	"60.92"	"128"	n/a	n/a	n/a	n/a	n/a	n/a	"Trial"	n/a	n/a	n/a	"640"	"arrowright"	n/a	"NULL"	"NULL"	"NULL"	"stimuli/Ebbinghaus_-0.87143_-0.11071.png"	n/a	"Ebbinghaus"	"arrowright"	"1132"	"TRUE"	"Ebbinghaus"	"-0.871430000"	"-0.110710000"	"1"	"61"
n/a	"html-keyboard-response"	"139"	"315724"	"0.0-5.0-2.0-0.43"	"pg63be"	"600"	"1366"	"chrome"	"108.0.0"	"FALSE"	"Windows 10"	"60.92"	"128"	n/a	n/a	n/a	n/a	n/a	n/a	"fixation"	n/a	n/a	n/a	n/a	"NULL"	n/a	"NULL"	"NULL"	"NULL"	"<p style=\"color: black; font-size: 80px; padding-left: 15%; padding-right: 6%; padding-top: 3%; padding-bottom: 8%\">+</p>"	"1428"	n/a	n/a	n/a	n/a	n/a	n/a	n/a	n/a	n/a
n/a	"image-keyboard-response"	"140"	"316741"	"0.0-5.0-2.0-1.43"	"pg63be"	"600"	"1366"	"chrome"	"108.0.0"	"FALSE"	"Windows 10"	"60.92"	"128"	n/a	n/a	n/a	n/a	n/a	n/a	"Trial"	n/a	n/a	n/a	"1016"	"arrowright"	n/a	"NULL"	"NULL"	"NULL"	"stimuli/Ebbinghaus_0.10000_-0.11071.png"	n/a	"Ebbinghaus"	"arrowright"	"1433"	"TRUE"	"Ebbinghaus"	"0.1000000000"	"-0.110710000"	"1"	"62"
n/a	"html-keyboard-response"	"141"	"317936"	"0.0-5.0-2.0-0.44"	"pg63be"	"600"	"1366"	"chrome"	"108.0.0"	"FALSE"	"Windows 10"	"60.92"	"128"	n/a	n/a	n/a	n/a	n/a	n/a	"fixation"	n/a	n/a	n/a	n/a	"NULL"	n/a	"NULL"	"NULL"	"NULL"	"<p style=\"color: black; font-size: 80px; padding-left: 9%; padding-right: 13%; padding-top: 40%; padding-bottom: 11%\">+</p>"	"1181"	n/a	n/a	n/a	n/a	n/a	n/a	n/a	n/a	n/a
n/a	"image-keyboard-response"	"142"	"318808"	"0.0-5.0-2.0-1.44"	"pg63be"	"600"	"1366"	"chrome"	"108.0.0"	"FALSE"	"Windows 10"	"60.92"	"128"	n/a	n/a	n/a	n/a	n/a	n/a	"Trial"	n/a	n/a	n/a	"872"	"arrowleft"	n/a	"NULL"	"NULL"	"NULL"	"stimuli/Ebbinghaus_-0.1000_0.28000.png"	n/a	"Ebbinghaus"	"arrowleft"	"1195"	"TRUE"	"Ebbinghaus"	"-0.100000000"	"0.2800000000"	"1"	"63"
n/a	"html-keyboard-response"	"143"	"319879"	"0.0-5.0-2.0-0.45"	"pg63be"	"600"	"1366"	"chrome"	"108.0.0"	"FALSE"	"Windows 10"	"60.92"	"128"	n/a	n/a	n/a	n/a	n/a	n/a	"fixation"	n/a	n/a	n/a	n/a	"NULL"	n/a	"NULL"	"NULL"	"NULL"	"<p style=\"color: black; font-size: 80px; padding-left: 21%; padding-right: 8%; padding-top: 5%; padding-bottom: 25%\">+</p>"	"1058"	n/a	n/a	n/a	n/a	n/a	n/a	n/a	n/a	n/a
n/a	"image-keyboard-response"	"144"	"321101"	"0.0-5.0-2.0-1.45"	"pg63be"	"600"	"1366"	"chrome"	"108.0.0"	"FALSE"	"Windows 10"	"60.92"	"128"	n/a	n/a	n/a	n/a	n/a	n/a	"Trial"	n/a	n/a	n/a	"1221"	"arrowright"	n/a	"NULL"	"NULL"	"NULL"	"stimuli/Ebbinghaus_0.61429_-0.15857.png"	n/a	"Ebbinghaus"	"arrowright"	"1071"	"TRUE"	"Ebbinghaus"	"0.6142900000"	"-0.158570000"	"1"	"64"
n/a	"html-keyboard-response"	"145"	"322561"	"0.0-5.0-2.0-0.46"	"pg63be"	"600"	"1366"	"chrome"	"108.0.0"	"FALSE"	"Windows 10"	"60.92"	"128"	n/a	n/a	n/a	n/a	n/a	n/a	"fixation"	n/a	n/a	n/a	n/a	"NULL"	n/a	"NULL"	"NULL"	"NULL"	"<p style=\"color: black; font-size: 80px; padding-left: 8%; padding-right: 6%; padding-top: 42%; padding-bottom: 8%\">+</p>"	"1437"	n/a	n/a	n/a	n/a	n/a	n/a	n/a	n/a	n/a
n/a	"image-keyboard-response"	"146"	"323506"	"0.0-5.0-2.0-1.46"	"pg63be"	"600"	"1366"	"chrome"	"108.0.0"	"FALSE"	"Windows 10"	"60.92"	"128"	n/a	n/a	n/a	n/a	n/a	n/a	"Trial"	n/a	n/a	n/a	"944"	"arrowright"	n/a	"NULL"	"NULL"	"NULL"	"stimuli/Ebbinghaus_0.87143_-0.2800.png"	n/a	"Ebbinghaus"	"arrowright"	"1460"	"TRUE"	"Ebbinghaus"	"0.8714300000"	"-0.280000000"	"1"	"65"
n/a	"html-keyboard-response"	"147"	"324962"	"0.0-5.0-2.0-0.47"	"pg63be"	"600"	"1366"	"chrome"	"108.0.0"	"FALSE"	"Windows 10"	"60.92"	"128"	n/a	n/a	n/a	n/a	n/a	n/a	"fixation"	n/a	n/a	n/a	n/a	"NULL"	n/a	"NULL"	"NULL"	"NULL"	"<p style=\"color: black; font-size: 80px; padding-left: 38%; padding-right: 9%; padding-top: 10%; padding-bottom: 47%\">+</p>"	"1448"	n/a	n/a	n/a	n/a	n/a	n/a	n/a	n/a	n/a
n/a	"image-keyboard-response"	"148"	"325948"	"0.0-5.0-2.0-1.47"	"pg63be"	"600"	"1366"	"chrome"	"108.0.0"	"FALSE"	"Windows 10"	"60.92"	"128"	n/a	n/a	n/a	n/a	n/a	n/a	"Trial"	n/a	n/a	n/a	"985"	"arrowright"	n/a	"NULL"	"NULL"	"NULL"	"stimuli/Ebbinghaus_0.87143_-0.2150.png"	n/a	"Ebbinghaus"	"arrowright"	"1456"	"TRUE"	"Ebbinghaus"	"0.8714300000"	"-0.215000000"	"1"	"66"
n/a	"html-keyboard-response"	"149"	"327038"	"0.0-5.0-2.0-0.48"	"pg63be"	"600"	"1366"	"chrome"	"108.0.0"	"FALSE"	"Windows 10"	"60.92"	"128"	n/a	n/a	n/a	n/a	n/a	n/a	"fixation"	n/a	n/a	n/a	n/a	"NULL"	n/a	"NULL"	"NULL"	"NULL"	"<p style=\"color: black; font-size: 80px; padding-left: 15%; padding-right: 39%; padding-top: 48%; padding-bottom: 15%\">+</p>"	"1076"	n/a	n/a	n/a	n/a	n/a	n/a	n/a	n/a	n/a
n/a	"image-keyboard-response"	"150"	"327983"	"0.0-5.0-2.0-1.48"	"pg63be"	"600"	"1366"	"chrome"	"108.0.0"	"FALSE"	"Windows 10"	"60.92"	"128"	n/a	n/a	n/a	n/a	n/a	n/a	"Trial"	n/a	n/a	n/a	"944"	"arrowright"	n/a	"NULL"	"NULL"	"NULL"	"stimuli/Ebbinghaus_-0.35714_-0.2150.png"	n/a	"Ebbinghaus"	"arrowright"	"1090"	"TRUE"	"Ebbinghaus"	"-0.357140000"	"-0.215000000"	"1"	"67"
n/a	"html-keyboard-response"	"151"	"329116"	"0.0-5.0-2.0-0.49"	"pg63be"	"600"	"1366"	"chrome"	"108.0.0"	"FALSE"	"Windows 10"	"60.92"	"128"	n/a	n/a	n/a	n/a	n/a	n/a	"fixation"	n/a	n/a	n/a	n/a	"NULL"	n/a	"NULL"	"NULL"	"NULL"	"<p style=\"color: black; font-size: 80px; padding-left: 24%; padding-right: 8%; padding-top: 4%; padding-bottom: 7%\">+</p>"	"1128"	n/a	n/a	n/a	n/a	n/a	n/a	n/a	n/a	n/a
n/a	"image-keyboard-response"	"152"	"330256"	"0.0-5.0-2.0-1.49"	"pg63be"	"600"	"1366"	"chrome"	"108.0.0"	"FALSE"	"Windows 10"	"60.92"	"128"	n/a	n/a	n/a	n/a	n/a	n/a	"Trial"	n/a	n/a	n/a	"1135"	"arrowleft"	n/a	"NULL"	"NULL"	"NULL"	"stimuli/Ebbinghaus_0.61429_0.21500.png"	n/a	"Ebbinghaus"	"arrowleft"	"1133"	"TRUE"	"Ebbinghaus"	"0.6142900000"	"0.2150000000"	"1"	"68"
n/a	"html-keyboard-response"	"153"	"331495"	"0.0-5.0-2.0-0.50"	"pg63be"	"600"	"1366"	"chrome"	"108.0.0"	"FALSE"	"Windows 10"	"60.92"	"128"	n/a	n/a	n/a	n/a	n/a	n/a	"fixation"	n/a	n/a	n/a	n/a	"NULL"	n/a	"NULL"	"NULL"	"NULL"	"<p style=\"color: black; font-size: 80px; padding-left: 33%; padding-right: 21%; padding-top: 32%; padding-bottom: 44%\">+</p>"	"1226"	n/a	n/a	n/a	n/a	n/a	n/a	n/a	n/a	n/a
n/a	"image-keyboard-response"	"154"	"332302"	"0.0-5.0-2.0-1.50"	"pg63be"	"600"	"1366"	"chrome"	"108.0.0"	"FALSE"	"Windows 10"	"60.92"	"128"	n/a	n/a	n/a	n/a	n/a	n/a	"Trial"	n/a	n/a	n/a	"806"	"arrowright"	n/a	"NULL"	"NULL"	"NULL"	"stimuli/Ebbinghaus_-0.35714_-0.15857.png"	n/a	"Ebbinghaus"	"arrowright"	"1239"	"TRUE"	"Ebbinghaus"	"-0.357140000"	"-0.158570000"	"1"	"69"
n/a	"html-keyboard-response"	"155"	"333594"	"0.0-5.0-2.0-0.51"	"pg63be"	"600"	"1366"	"chrome"	"108.0.0"	"FALSE"	"Windows 10"	"60.92"	"128"	n/a	n/a	n/a	n/a	n/a	n/a	"fixation"	n/a	n/a	n/a	n/a	"NULL"	n/a	"NULL"	"NULL"	"NULL"	"<p style=\"color: black; font-size: 80px; padding-left: 39%; padding-right: 13%; padding-top: 16%; padding-bottom: 27%\">+</p>"	"1271"	n/a	n/a	n/a	n/a	n/a	n/a	n/a	n/a	n/a
n/a	"image-keyboard-response"	"156"	"334332"	"0.0-5.0-2.0-1.51"	"pg63be"	"600"	"1366"	"chrome"	"108.0.0"	"FALSE"	"Windows 10"	"60.92"	"128"	n/a	n/a	n/a	n/a	n/a	n/a	"Trial"	n/a	n/a	n/a	"737"	"arrowright"	n/a	"NULL"	"NULL"	"NULL"	"stimuli/Ebbinghaus_0.35714_-0.2800.png"	n/a	"Ebbinghaus"	"arrowright"	"1292"	"TRUE"	"Ebbinghaus"	"0.3571400000"	"-0.280000000"	"1"	"70"
n/a	"html-keyboard-response"	"157"	"335474"	"0.0-5.0-2.0-0.52"	"pg63be"	"600"	"1366"	"chrome"	"108.0.0"	"FALSE"	"Windows 10"	"60.92"	"128"	n/a	n/a	n/a	n/a	n/a	n/a	"fixation"	n/a	n/a	n/a	n/a	"NULL"	n/a	"NULL"	"NULL"	"NULL"	"<p style=\"color: black; font-size: 80px; padding-left: 26%; padding-right: 11%; padding-top: 4%; padding-bottom: 19%\">+</p>"	"1126"	n/a	n/a	n/a	n/a	n/a	n/a	n/a	n/a	n/a
n/a	"image-keyboard-response"	"158"	"336195"	"0.0-5.0-2.0-1.52"	"pg63be"	"600"	"1366"	"chrome"	"108.0.0"	"FALSE"	"Windows 10"	"60.92"	"128"	n/a	n/a	n/a	n/a	n/a	n/a	"Trial"	n/a	n/a	n/a	"720"	"arrowright"	n/a	"NULL"	"NULL"	"NULL"	"stimuli/Ebbinghaus_-0.1000_-0.2800.png"	n/a	"Ebbinghaus"	"arrowright"	"1142"	"TRUE"	"Ebbinghaus"	"-0.100000000"	"-0.280000000"	"1"	"71"
n/a	"html-keyboard-response"	"159"	"337626"	"0.0-5.0-2.0-0.53"	"pg63be"	"600"	"1366"	"chrome"	"108.0.0"	"FALSE"	"Windows 10"	"60.92"	"128"	n/a	n/a	n/a	n/a	n/a	n/a	"fixation"	n/a	n/a	n/a	n/a	"NULL"	n/a	"NULL"	"NULL"	"NULL"	"<p style=\"color: black; font-size: 80px; padding-left: 19%; padding-right: 0%; padding-top: 32%; padding-bottom: 8%\">+</p>"	"1417"	n/a	n/a	n/a	n/a	n/a	n/a	n/a	n/a	n/a
n/a	"image-keyboard-response"	"160"	"338300"	"0.0-5.0-2.0-1.53"	"pg63be"	"600"	"1366"	"chrome"	"108.0.0"	"FALSE"	"Windows 10"	"60.92"	"128"	n/a	n/a	n/a	n/a	n/a	n/a	"Trial"	n/a	n/a	n/a	"672"	"arrowleft"	n/a	"NULL"	"NULL"	"NULL"	"stimuli/Ebbinghaus_-0.35714_0.21500.png"	n/a	"Ebbinghaus"	"arrowleft"	"1431"	"TRUE"	"Ebbinghaus"	"-0.357140000"	"0.2150000000"	"1"	"72"
n/a	"html-keyboard-response"	"161"	"339559"	"0.0-5.0-2.0-0.54"	"pg63be"	"600"	"1366"	"chrome"	"108.0.0"	"FALSE"	"Windows 10"	"60.92"	"128"	n/a	n/a	n/a	n/a	n/a	n/a	"fixation"	n/a	n/a	n/a	n/a	"NULL"	n/a	"NULL"	"NULL"	"NULL"	"<p style=\"color: black; font-size: 80px; padding-left: 4%; padding-right: 44%; padding-top: 11%; padding-bottom: 25%\">+</p>"	"1250"	n/a	n/a	n/a	n/a	n/a	n/a	n/a	n/a	n/a
n/a	"image-keyboard-response"	"162"	"340308"	"0.0-5.0-2.0-1.54"	"pg63be"	"600"	"1366"	"chrome"	"108.0.0"	"FALSE"	"Windows 10"	"60.92"	"128"	n/a	n/a	n/a	n/a	n/a	n/a	"Trial"	n/a	n/a	n/a	"747"	"arrowleft"	n/a	"NULL"	"NULL"	"NULL"	"stimuli/Ebbinghaus_-0.61429_0.21500.png"	n/a	"Ebbinghaus"	"arrowleft"	"1259"	"TRUE"	"Ebbinghaus"	"-0.614290000"	"0.2150000000"	"1"	"73"
n/a	"html-keyboard-response"	"163"	"341420"	"0.0-5.0-2.0-0.55"	"pg63be"	"600"	"1366"	"chrome"	"108.0.0"	"FALSE"	"Windows 10"	"60.92"	"128"	n/a	n/a	n/a	n/a	n/a	n/a	"fixation"	n/a	n/a	n/a	n/a	"NULL"	n/a	"NULL"	"NULL"	"NULL"	"<p style=\"color: black; font-size: 80px; padding-left: 44%; padding-right: 44%; padding-top: 11%; padding-bottom: 19%\">+</p>"	"1100"	n/a	n/a	n/a	n/a	n/a	n/a	n/a	n/a	n/a
n/a	"image-keyboard-response"	"164"	"342065"	"0.0-5.0-2.0-1.55"	"pg63be"	"600"	"1366"	"chrome"	"108.0.0"	"FALSE"	"Windows 10"	"60.92"	"128"	n/a	n/a	n/a	n/a	n/a	n/a	"Trial"	n/a	n/a	n/a	"645"	"arrowleft"	n/a	"NULL"	"NULL"	"NULL"	"stimuli/Ebbinghaus_-0.61429_0.28000.png"	n/a	"Ebbinghaus"	"arrowleft"	"1112"	"TRUE"	"Ebbinghaus"	"-0.614290000"	"0.2800000000"	"1"	"74"
n/a	"html-keyboard-response"	"165"	"343182"	"0.0-5.0-2.0-0.56"	"pg63be"	"600"	"1366"	"chrome"	"108.0.0"	"FALSE"	"Windows 10"	"60.92"	"128"	n/a	n/a	n/a	n/a	n/a	n/a	"fixation"	n/a	n/a	n/a	n/a	"NULL"	n/a	"NULL"	"NULL"	"NULL"	"<p style=\"color: black; font-size: 80px; padding-left: 21%; padding-right: 13%; padding-top: 43%; padding-bottom: 22%\">+</p>"	"1107"	n/a	n/a	n/a	n/a	n/a	n/a	n/a	n/a	n/a
n/a	"image-keyboard-response"	"166"	"343810"	"0.0-5.0-2.0-1.56"	"pg63be"	"600"	"1366"	"chrome"	"108.0.0"	"FALSE"	"Windows 10"	"60.92"	"128"	n/a	n/a	n/a	n/a	n/a	n/a	"Trial"	n/a	n/a	n/a	"627"	"arrowright"	n/a	"NULL"	"NULL"	"NULL"	"stimuli/Ebbinghaus_-0.87143_-0.2150.png"	n/a	"Ebbinghaus"	"arrowright"	"1117"	"TRUE"	"Ebbinghaus"	"-0.871430000"	"-0.215000000"	"1"	"75"
n/a	"html-keyboard-response"	"167"	"345215"	"0.0-5.0-2.0-0.57"	"pg63be"	"600"	"1366"	"chrome"	"108.0.0"	"FALSE"	"Windows 10"	"60.92"	"128"	n/a	n/a	n/a	n/a	n/a	n/a	"fixation"	n/a	n/a	n/a	n/a	"NULL"	n/a	"NULL"	"NULL"	"NULL"	"<p style=\"color: black; font-size: 80px; padding-left: 41%; padding-right: 32%; padding-top: 3%; padding-bottom: 29%\">+</p>"	"1384"	n/a	n/a	n/a	n/a	n/a	n/a	n/a	n/a	n/a
n/a	"image-keyboard-response"	"168"	"346119"	"0.0-5.0-2.0-1.57"	"pg63be"	"600"	"1366"	"chrome"	"108.0.0"	"FALSE"	"Windows 10"	"60.92"	"128"	n/a	n/a	n/a	n/a	n/a	n/a	"Trial"	n/a	n/a	n/a	"901"	"arrowright"	n/a	"NULL"	"NULL"	"NULL"	"stimuli/Ebbinghaus_0.87143_0.15857.png"	n/a	"Ebbinghaus"	"arrowleft"	"1405"	"FALSE"	"Ebbinghaus"	"0.8714300000"	"0.1585700000"	"1"	"76"
n/a	"html-keyboard-response"	"169"	"347183"	"0.0-5.0-2.0-0.58"	"pg63be"	"600"	"1366"	"chrome"	"108.0.0"	"FALSE"	"Windows 10"	"60.92"	"128"	n/a	n/a	n/a	n/a	n/a	n/a	"fixation"	n/a	n/a	n/a	n/a	"NULL"	n/a	"NULL"	"NULL"	"NULL"	"<p style=\"color: black; font-size: 80px; padding-left: 4%; padding-right: 44%; padding-top: 24%; padding-bottom: 37%\">+</p>"	"1052"	n/a	n/a	n/a	n/a	n/a	n/a	n/a	n/a	n/a
n/a	"image-keyboard-response"	"170"	"347921"	"0.0-5.0-2.0-1.58"	"pg63be"	"600"	"1366"	"chrome"	"108.0.0"	"FALSE"	"Windows 10"	"60.92"	"128"	n/a	n/a	n/a	n/a	n/a	n/a	"Trial"	n/a	n/a	n/a	"736"	"arrowleft"	n/a	"NULL"	"NULL"	"NULL"	"stimuli/Ebbinghaus_-0.35714_0.15857.png"	n/a	"Ebbinghaus"	"arrowleft"	"1064"	"TRUE"	"Ebbinghaus"	"-0.357140000"	"0.1585700000"	"1"	"77"
n/a	"html-keyboard-response"	"171"	"349361"	"0.0-5.0-2.0-0.59"	"pg63be"	"600"	"1366"	"chrome"	"108.0.0"	"FALSE"	"Windows 10"	"60.92"	"128"	n/a	n/a	n/a	n/a	n/a	n/a	"fixation"	n/a	n/a	n/a	n/a	"NULL"	n/a	"NULL"	"NULL"	"NULL"	"<p style=\"color: black; font-size: 80px; padding-left: 19%; padding-right: 30%; padding-top: 21%; padding-bottom: 24%\">+</p>"	"1432"	n/a	n/a	n/a	n/a	n/a	n/a	n/a	n/a	n/a
n/a	"image-keyboard-response"	"172"	"350355"	"0.0-5.0-2.0-1.59"	"pg63be"	"600"	"1366"	"chrome"	"108.0.0"	"FALSE"	"Windows 10"	"60.92"	"128"	n/a	n/a	n/a	n/a	n/a	n/a	"Trial"	n/a	n/a	n/a	"993"	"arrowright"	n/a	"NULL"	"NULL"	"NULL"	"stimuli/Ebbinghaus_0.35714_0.15857.png"	n/a	"Ebbinghaus"	"arrowleft"	"1440"	"FALSE"	"Ebbinghaus"	"0.3571400000"	"0.1585700000"	"1"	"78"
n/a	"html-keyboard-response"	"173"	"351773"	"0.0-5.0-2.0-0.60"	"pg63be"	"600"	"1366"	"chrome"	"108.0.0"	"FALSE"	"Windows 10"	"60.92"	"128"	n/a	n/a	n/a	n/a	n/a	n/a	"fixation"	n/a	n/a	n/a	n/a	"NULL"	n/a	"NULL"	"NULL"	"NULL"	"<p style=\"color: black; font-size: 80px; padding-left: 27%; padding-right: 40%; padding-top: 41%; padding-bottom: 48%\">+</p>"	"1410"	n/a	n/a	n/a	n/a	n/a	n/a	n/a	n/a	n/a
n/a	"image-keyboard-response"	"174"	"352650"	"0.0-5.0-2.0-1.60"	"pg63be"	"600"	"1366"	"chrome"	"108.0.0"	"FALSE"	"Windows 10"	"60.92"	"128"	n/a	n/a	n/a	n/a	n/a	n/a	"Trial"	n/a	n/a	n/a	"876"	"arrowleft"	n/a	"NULL"	"NULL"	"NULL"	"stimuli/Ebbinghaus_0.10000_0.28000.png"	n/a	"Ebbinghaus"	"arrowleft"	"1418"	"TRUE"	"Ebbinghaus"	"0.1000000000"	"0.2800000000"	"1"	"79"
n/a	"html-keyboard-response"	"175"	"353993"	"0.0-5.0-2.0-0.61"	"pg63be"	"600"	"1366"	"chrome"	"108.0.0"	"FALSE"	"Windows 10"	"60.92"	"128"	n/a	n/a	n/a	n/a	n/a	n/a	"fixation"	n/a	n/a	n/a	n/a	"NULL"	n/a	"NULL"	"NULL"	"NULL"	"<p style=\"color: black; font-size: 80px; padding-left: 5%; padding-right: 16%; padding-top: 38%; padding-bottom: 19%\">+</p>"	"1324"	n/a	n/a	n/a	n/a	n/a	n/a	n/a	n/a	n/a
n/a	"image-keyboard-response"	"176"	"355039"	"0.0-5.0-2.0-1.61"	"pg63be"	"600"	"1366"	"chrome"	"108.0.0"	"FALSE"	"Windows 10"	"60.92"	"128"	n/a	n/a	n/a	n/a	n/a	n/a	"Trial"	n/a	n/a	n/a	"1044"	"arrowright"	n/a	"NULL"	"NULL"	"NULL"	"stimuli/Ebbinghaus_0.10000_-0.2150.png"	n/a	"Ebbinghaus"	"arrowright"	"1343"	"TRUE"	"Ebbinghaus"	"0.1000000000"	"-0.215000000"	"1"	"80"
n/a	"html-keyboard-response"	"177"	"356505"	"0.0-5.0-2.0-0.62"	"pg63be"	"600"	"1366"	"chrome"	"108.0.0"	"FALSE"	"Windows 10"	"60.92"	"128"	n/a	n/a	n/a	n/a	n/a	n/a	"fixation"	n/a	n/a	n/a	n/a	"NULL"	n/a	"NULL"	"NULL"	"NULL"	"<p style=\"color: black; font-size: 80px; padding-left: 47%; padding-right: 3%; padding-top: 43%; padding-bottom: 44%\">+</p>"	"1459"	n/a	n/a	n/a	n/a	n/a	n/a	n/a	n/a	n/a
n/a	"image-keyboard-response"	"178"	"357380"	"0.0-5.0-2.0-1.62"	"pg63be"	"600"	"1366"	"chrome"	"108.0.0"	"FALSE"	"Windows 10"	"60.92"	"128"	n/a	n/a	n/a	n/a	n/a	n/a	"Trial"	n/a	n/a	n/a	"873"	"arrowright"	n/a	"NULL"	"NULL"	"NULL"	"stimuli/Ebbinghaus_0.10000_-0.2800.png"	n/a	"Ebbinghaus"	"arrowright"	"1466"	"TRUE"	"Ebbinghaus"	"0.1000000000"	"-0.280000000"	"1"	"81"
n/a	"html-keyboard-response"	"179"	"358680"	"0.0-5.0-2.0-0.63"	"pg63be"	"600"	"1366"	"chrome"	"108.0.0"	"FALSE"	"Windows 10"	"60.92"	"128"	n/a	n/a	n/a	n/a	n/a	n/a	"fixation"	n/a	n/a	n/a	n/a	"NULL"	n/a	"NULL"	"NULL"	"NULL"	"<p style=\"color: black; font-size: 80px; padding-left: 15%; padding-right: 34%; padding-top: 47%; padding-bottom: 40%\">+</p>"	"1292"	n/a	n/a	n/a	n/a	n/a	n/a	n/a	n/a	n/a
n/a	"image-keyboard-response"	"180"	"360007"	"0.0-5.0-2.0-1.63"	"pg63be"	"600"	"1366"	"chrome"	"108.0.0"	"FALSE"	"Windows 10"	"60.92"	"128"	n/a	n/a	n/a	n/a	n/a	n/a	"Trial"	n/a	n/a	n/a	"1326"	"arrowright"	n/a	"NULL"	"NULL"	"NULL"	"stimuli/Ebbinghaus_0.87143_0.21500.png"	n/a	"Ebbinghaus"	"arrowleft"	"1300"	"FALSE"	"Ebbinghaus"	"0.8714300000"	"0.2150000000"	"1"	"82"
n/a	"html-button-response"	"181"	"383607"	"0.0-5.0-3.0"	"pg63be"	"600"	"1366"	"chrome"	"108.0.0"	"FALSE"	"Windows 10"	"60.92"	"128"	n/a	n/a	n/a	n/a	n/a	n/a	"block_results"	n/a	n/a	n/a	"23595"	"0"	n/a	"NULL"	"NULL"	"NULL"	"<p>Your score for this illusion is <p style=\"color: black; font-size: 48px; font-weight: bold;\">72.4 %</p><hr><p>Can you do better in the next illusion?</p>"	n/a	n/a	n/a	n/a	n/a	n/a	n/a	n/a	n/a	n/a
"TRUE"	"preload"	"182"	"383792"	"0.0-6.0-0.0"	"pg63be"	"600"	"1366"	"chrome"	"108.0.0"	"FALSE"	"Windows 10"	"60.92"	"128"	n/a	n/a	n/a	n/a	n/a	n/a	n/a	n/a	n/a	n/a	n/a	"NULL"	"FALSE"	"list()"	"list()"	"list()"	n/a	n/a	n/a	n/a	n/a	n/a	n/a	n/a	n/a	n/a	n/a
n/a	"html-keyboard-response"	"183"	"391728"	"0.0-6.0-1.0"	"pg63be"	"600"	"1366"	"chrome"	"108.0.0"	"FALSE"	"Windows 10"	"60.92"	"128"	n/a	n/a	n/a	n/a	n/a	n/a	n/a	n/a	n/a	n/a	"7934"	"enter"	n/a	"NULL"	"NULL"	"NULL"	"<p><b>Part 2/6</b></p><p>In this part, two red lines will appear side by side.</p><p>Your task is to tell <b>which line is longer</b> in length, regardless of their orientation, as fast as you can, and without making errors.</p><p>Don't get distracted by the orientation of the lines!</p><p>Press <b>the LEFT or the RIGHT arrow</b> to indicate which <b>line is the longer one.</b></p><div style='float: center'><img src='materials/instructions/VerticalHorizontal_Demo.png' height='300'></img><p><img src='utils/answer/answer_leftright_keyboard.PNG' height='150'></img></p><p class='small'>In this example, the correct answer is the <b>LEFT arrow</b>.</p></div><p>Are you ready? <b>Press ENTER to start</b></p>"	n/a	n/a	n/a	n/a	n/a	n/a	n/a	n/a	n/a	n/a
n/a	"html-keyboard-response"	"184"	"393728"	"0.0-6.0-2.0-0.0"	"pg63be"	"600"	"1366"	"chrome"	"108.0.0"	"FALSE"	"Windows 10"	"60.92"	"128"	n/a	n/a	n/a	n/a	n/a	n/a	"fixation"	n/a	n/a	n/a	n/a	"NULL"	n/a	"NULL"	"NULL"	"NULL"	"<p style=\"color: black; font-size: 80px; padding-left: 18%; padding-right: 40%; padding-top: 4%; padding-bottom: 31%\">+</p>"	"1466"	n/a	n/a	n/a	n/a	n/a	n/a	n/a	n/a	n/a
n/a	"image-keyboard-response"	"185"	"394543"	"0.0-6.0-2.0-1.0"	"pg63be"	"600"	"1366"	"chrome"	"108.0.0"	"FALSE"	"Windows 10"	"60.92"	"128"	n/a	n/a	n/a	n/a	n/a	n/a	"Trial"	n/a	n/a	n/a	"811"	"arrowright"	n/a	"NULL"	"NULL"	"NULL"	"stimuli/VerticalHorizontal_28.75714_-0.2250.png"	n/a	"VerticalHorizontal"	"arrowright"	"2000"	"TRUE"	"VerticalHorizontal"	"28.757140000"	"-0.225000000"	"2"	"1"
n/a	"html-keyboard-response"	"186"	"395806"	"0.0-6.0-2.0-0.1"	"pg63be"	"600"	"1366"	"chrome"	"108.0.0"	"FALSE"	"Windows 10"	"60.92"	"128"	n/a	n/a	n/a	n/a	n/a	n/a	"fixation"	n/a	n/a	n/a	n/a	"NULL"	n/a	"NULL"	"NULL"	"NULL"	"<p style=\"color: black; font-size: 80px; padding-left: 28%; padding-right: 45%; padding-top: 1%; padding-bottom: 30%\">+</p>"	"1257"	n/a	n/a	n/a	n/a	n/a	n/a	n/a	n/a	n/a
n/a	"image-keyboard-response"	"187"	"397081"	"0.0-6.0-2.0-1.1"	"pg63be"	"600"	"1366"	"chrome"	"108.0.0"	"FALSE"	"Windows 10"	"60.92"	"128"	n/a	n/a	n/a	n/a	n/a	n/a	"Trial"	n/a	n/a	n/a	"1275"	"arrowleft"	n/a	"NULL"	"NULL"	"NULL"	"stimuli/VerticalHorizontal_20.27143_0.22500.png"	n/a	"VerticalHorizontal"	"arrowleft"	"1263"	"TRUE"	"VerticalHorizontal"	"20.271430000"	"0.2250000000"	"2"	"2"
n/a	"html-keyboard-response"	"188"	"398352"	"0.0-6.0-2.0-0.2"	"pg63be"	"600"	"1366"	"chrome"	"108.0.0"	"FALSE"	"Windows 10"	"60.92"	"128"	n/a	n/a	n/a	n/a	n/a	n/a	"fixation"	n/a	n/a	n/a	n/a	"NULL"	n/a	"NULL"	"NULL"	"NULL"	"<p style=\"color: black; font-size: 80px; padding-left: 6%; padding-right: 21%; padding-top: 2%; padding-bottom: 28%\">+</p>"	"1251"	n/a	n/a	n/a	n/a	n/a	n/a	n/a	n/a	n/a
n/a	"image-keyboard-response"	"189"	"399037"	"0.0-6.0-2.0-1.2"	"pg63be"	"600"	"1366"	"chrome"	"108.0.0"	"FALSE"	"Windows 10"	"60.92"	"128"	n/a	n/a	n/a	n/a	n/a	n/a	"Trial"	n/a	n/a	n/a	"684"	"arrowleft"	n/a	"NULL"	"NULL"	"NULL"	"stimuli/VerticalHorizontal_-28.75714_0.22500.png"	n/a	"VerticalHorizontal"	"arrowleft"	"1271"	"TRUE"	"VerticalHorizontal"	"-28.75714000"	"0.2250000000"	"2"	"3"
n/a	"html-keyboard-response"	"190"	"400129"	"0.0-6.0-2.0-0.3"	"pg63be"	"600"	"1366"	"chrome"	"108.0.0"	"FALSE"	"Windows 10"	"60.92"	"128"	n/a	n/a	n/a	n/a	n/a	n/a	"fixation"	n/a	n/a	n/a	n/a	"NULL"	n/a	"NULL"	"NULL"	"NULL"	"<p style=\"color: black; font-size: 80px; padding-left: 29%; padding-right: 4%; padding-top: 19%; padding-bottom: 5%\">+</p>"	"1082"	n/a	n/a	n/a	n/a	n/a	n/a	n/a	n/a	n/a
n/a	"image-keyboard-response"	"191"	"400648"	"0.0-6.0-2.0-1.3"	"pg63be"	"600"	"1366"	"chrome"	"108.0.0"	"FALSE"	"Windows 10"	"60.92"	"128"	n/a	n/a	n/a	n/a	n/a	n/a	"Trial"	n/a	n/a	n/a	"515"	"arrowright"	n/a	"NULL"	"NULL"	"NULL"	"stimuli/VerticalHorizontal_-20.27143_-0.0673.png"	n/a	"VerticalHorizontal"	"arrowright"	"1092"	"TRUE"	"VerticalHorizontal"	"-20.27143000"	"-0.067300000"	"2"	"4"
n/a	"html-keyboard-response"	"192"	"401850"	"0.0-6.0-2.0-0.4"	"pg63be"	"600"	"1366"	"chrome"	"108.0.0"	"FALSE"	"Windows 10"	"60.92"	"128"	n/a	n/a	n/a	n/a	n/a	n/a	"fixation"	n/a	n/a	n/a	n/a	"NULL"	n/a	"NULL"	"NULL"	"NULL"	"<p style=\"color: black; font-size: 80px; padding-left: 40%; padding-right: 35%; padding-top: 23%; padding-bottom: 14%\">+</p>"	"1180"	n/a	n/a	n/a	n/a	n/a	n/a	n/a	n/a	n/a
n/a	"image-keyboard-response"	"193"	"402373"	"0.0-6.0-2.0-1.4"	"pg63be"	"600"	"1366"	"chrome"	"108.0.0"	"FALSE"	"Windows 10"	"60.92"	"128"	n/a	n/a	n/a	n/a	n/a	n/a	"Trial"	n/a	n/a	n/a	"521"	"arrowright"	n/a	"NULL"	"NULL"	"NULL"	"stimuli/VerticalHorizontal_3.30000_-0.2250.png"	n/a	"VerticalHorizontal"	"arrowright"	"1202"	"TRUE"	"VerticalHorizontal"	"3.3000000000"	"-0.225000000"	"2"	"5"
n/a	"html-keyboard-response"	"194"	"403803"	"0.0-6.0-2.0-0.5"	"pg63be"	"600"	"1366"	"chrome"	"108.0.0"	"FALSE"	"Windows 10"	"60.92"	"128"	n/a	n/a	n/a	n/a	n/a	n/a	"fixation"	n/a	n/a	n/a	n/a	"NULL"	n/a	"NULL"	"NULL"	"NULL"	"<p style=\"color: black; font-size: 80px; padding-left: 17%; padding-right: 48%; padding-top: 48%; padding-bottom: 16%\">+</p>"	"1413"	n/a	n/a	n/a	n/a	n/a	n/a	n/a	n/a	n/a
n/a	"image-keyboard-response"	"195"	"404492"	"0.0-6.0-2.0-1.5"	"pg63be"	"600"	"1366"	"chrome"	"108.0.0"	"FALSE"	"Windows 10"	"60.92"	"128"	n/a	n/a	n/a	n/a	n/a	n/a	"Trial"	n/a	n/a	n/a	"688"	"arrowleft"	n/a	"NULL"	"NULL"	"NULL"	"stimuli/VerticalHorizontal_11.78571_0.22500.png"	n/a	"VerticalHorizontal"	"arrowleft"	"1430"	"TRUE"	"VerticalHorizontal"	"11.785710000"	"0.2250000000"	"2"	"6"
n/a	"html-keyboard-response"	"196"	"405853"	"0.0-6.0-2.0-0.6"	"pg63be"	"600"	"1366"	"chrome"	"108.0.0"	"FALSE"	"Windows 10"	"60.92"	"128"	n/a	n/a	n/a	n/a	n/a	n/a	"fixation"	n/a	n/a	n/a	n/a	"NULL"	n/a	"NULL"	"NULL"	"NULL"	"<p style=\"color: black; font-size: 80px; padding-left: 22%; padding-right: 45%; padding-top: 35%; padding-bottom: 37%\">+</p>"	"1348"	n/a	n/a	n/a	n/a	n/a	n/a	n/a	n/a	n/a
n/a	"image-keyboard-response"	"197"	"406346"	"0.0-6.0-2.0-1.6"	"pg63be"	"600"	"1366"	"chrome"	"108.0.0"	"FALSE"	"Windows 10"	"60.92"	"128"	n/a	n/a	n/a	n/a	n/a	n/a	"Trial"	n/a	n/a	n/a	"491"	"arrowright"	n/a	"NULL"	"NULL"	"NULL"	"stimuli/VerticalHorizontal_-28.75714_-0.0673.png"	n/a	"VerticalHorizontal"	"arrowright"	"1361"	"TRUE"	"VerticalHorizontal"	"-28.75714000"	"-0.067300000"	"2"	"7"
n/a	"html-keyboard-response"	"198"	"407710"	"0.0-6.0-2.0-0.7"	"pg63be"	"600"	"1366"	"chrome"	"108.0.0"	"FALSE"	"Windows 10"	"60.92"	"128"	n/a	n/a	n/a	n/a	n/a	n/a	"fixation"	n/a	n/a	n/a	n/a	"NULL"	n/a	"NULL"	"NULL"	"NULL"	"<p style=\"color: black; font-size: 80px; padding-left: 3%; padding-right: 34%; padding-top: 24%; padding-bottom: 37%\">+</p>"	"1353"	n/a	n/a	n/a	n/a	n/a	n/a	n/a	n/a	n/a
n/a	"image-keyboard-response"	"199"	"408438"	"0.0-6.0-2.0-1.7"	"pg63be"	"600"	"1366"	"chrome"	"108.0.0"	"FALSE"	"Windows 10"	"60.92"	"128"	n/a	n/a	n/a	n/a	n/a	n/a	"Trial"	n/a	n/a	n/a	"727"	"arrowleft"	n/a	"NULL"	"NULL"	"NULL"	"stimuli/VerticalHorizontal_28.75714_0.16217.png"	n/a	"VerticalHorizontal"	"arrowleft"	"1364"	"TRUE"	"VerticalHorizontal"	"28.757140000"	"0.1621700000"	"2"	"8"
n/a	"html-keyboard-response"	"200"	"409645"	"0.0-6.0-2.0-0.8"	"pg63be"	"600"	"1366"	"chrome"	"108.0.0"	"FALSE"	"Windows 10"	"60.92"	"128"	n/a	n/a	n/a	n/a	n/a	n/a	"fixation"	n/a	n/a	n/a	n/a	"NULL"	n/a	"NULL"	"NULL"	"NULL"	"<p style=\"color: black; font-size: 80px; padding-left: 7%; padding-right: 48%; padding-top: 20%; padding-bottom: 13%\">+</p>"	"1201"	n/a	n/a	n/a	n/a	n/a	n/a	n/a	n/a	n/a
n/a	"image-keyboard-response"	"201"	"410671"	"0.0-6.0-2.0-1.8"	"pg63be"	"600"	"1366"	"chrome"	"108.0.0"	"FALSE"	"Windows 10"	"60.92"	"128"	n/a	n/a	n/a	n/a	n/a	n/a	"Trial"	n/a	n/a	n/a	"1025"	"arrowright"	n/a	"NULL"	"NULL"	"NULL"	"stimuli/VerticalHorizontal_28.75714_0.06730.png"	n/a	"VerticalHorizontal"	"arrowleft"	"1207"	"FALSE"	"VerticalHorizontal"	"28.757140000"	"0.0673000000"	"2"	"9"
n/a	"html-keyboard-response"	"202"	"411993"	"0.0-6.0-2.0-0.9"	"pg63be"	"600"	"1366"	"chrome"	"108.0.0"	"FALSE"	"Windows 10"	"60.92"	"128"	n/a	n/a	n/a	n/a	n/a	n/a	"fixation"	n/a	n/a	n/a	n/a	"NULL"	n/a	"NULL"	"NULL"	"NULL"	"<p style=\"color: black; font-size: 80px; padding-left: 24%; padding-right: 13%; padding-top: 22%; padding-bottom: 7%\">+</p>"	"1313"	n/a	n/a	n/a	n/a	n/a	n/a	n/a	n/a	n/a
n/a	"image-keyboard-response"	"203"	"412694"	"0.0-6.0-2.0-1.9"	"pg63be"	"600"	"1366"	"chrome"	"108.0.0"	"FALSE"	"Windows 10"	"60.92"	"128"	n/a	n/a	n/a	n/a	n/a	n/a	"Trial"	n/a	n/a	n/a	"701"	"arrowleft"	n/a	"NULL"	"NULL"	"NULL"	"stimuli/VerticalHorizontal_-11.78571_0.16217.png"	n/a	"VerticalHorizontal"	"arrowleft"	"1322"	"TRUE"	"VerticalHorizontal"	"-11.78571000"	"0.1621700000"	"2"	"10"
n/a	"html-keyboard-response"	"204"	"414091"	"0.0-6.0-2.0-0.10"	"pg63be"	"600"	"1366"	"chrome"	"108.0.0"	"FALSE"	"Windows 10"	"60.92"	"128"	n/a	n/a	n/a	n/a	n/a	n/a	"fixation"	n/a	n/a	n/a	n/a	"NULL"	n/a	"NULL"	"NULL"	"NULL"	"<p style=\"color: black; font-size: 80px; padding-left: 26%; padding-right: 20%; padding-top: 30%; padding-bottom: 26%\">+</p>"	"1382"	n/a	n/a	n/a	n/a	n/a	n/a	n/a	n/a	n/a
n/a	"image-keyboard-response"	"205"	"414686"	"0.0-6.0-2.0-1.10"	"pg63be"	"600"	"1366"	"chrome"	"108.0.0"	"FALSE"	"Windows 10"	"60.92"	"128"	n/a	n/a	n/a	n/a	n/a	n/a	"Trial"	n/a	n/a	n/a	"594"	"arrowleft"	n/a	"NULL"	"NULL"	"NULL"	"stimuli/VerticalHorizontal_-28.75714_0.16217.png"	n/a	"VerticalHorizontal"	"arrowleft"	"1397"	"TRUE"	"VerticalHorizontal"	"-28.75714000"	"0.1621700000"	"2"	"11"
n/a	"html-keyboard-response"	"206"	"415710"	"0.0-6.0-2.0-0.11"	"pg63be"	"600"	"1366"	"chrome"	"108.0.0"	"FALSE"	"Windows 10"	"60.92"	"128"	n/a	n/a	n/a	n/a	n/a	n/a	"fixation"	n/a	n/a	n/a	n/a	"NULL"	n/a	"NULL"	"NULL"	"NULL"	"<p style=\"color: black; font-size: 80px; padding-left: 50%; padding-right: 3%; padding-top: 15%; padding-bottom: 21%\">+</p>"	"1010"	n/a	n/a	n/a	n/a	n/a	n/a	n/a	n/a	n/a
n/a	"image-keyboard-response"	"207"	"416241"	"0.0-6.0-2.0-1.11"	"pg63be"	"600"	"1366"	"chrome"	"108.0.0"	"FALSE"	"Windows 10"	"60.92"	"128"	n/a	n/a	n/a	n/a	n/a	n/a	"Trial"	n/a	n/a	n/a	"530"	"arrowright"	n/a	"NULL"	"NULL"	"NULL"	"stimuli/VerticalHorizontal_-11.78571_-0.16217.png"	n/a	"VerticalHorizontal"	"arrowright"	"1024"	"TRUE"	"VerticalHorizontal"	"-11.78571000"	"-0.162170000"	"2"	"12"
n/a	"html-keyboard-response"	"208"	"417587"	"0.0-6.0-2.0-0.12"	"pg63be"	"600"	"1366"	"chrome"	"108.0.0"	"FALSE"	"Windows 10"	"60.92"	"128"	n/a	n/a	n/a	n/a	n/a	n/a	"fixation"	n/a	n/a	n/a	n/a	"NULL"	n/a	"NULL"	"NULL"	"NULL"	"<p style=\"color: black; font-size: 80px; padding-left: 29%; padding-right: 14%; padding-top: 43%; padding-bottom: 9%\">+</p>"	"1327"	n/a	n/a	n/a	n/a	n/a	n/a	n/a	n/a	n/a
n/a	"image-keyboard-response"	"209"	"418131"	"0.0-6.0-2.0-1.12"	"pg63be"	"600"	"1366"	"chrome"	"108.0.0"	"FALSE"	"Windows 10"	"60.92"	"128"	n/a	n/a	n/a	n/a	n/a	n/a	"Trial"	n/a	n/a	n/a	"541"	"arrowleft"	n/a	"NULL"	"NULL"	"NULL"	"stimuli/VerticalHorizontal_-28.75714_0.10960.png"	n/a	"VerticalHorizontal"	"arrowleft"	"1346"	"TRUE"	"VerticalHorizontal"	"-28.75714000"	"0.1096000000"	"2"	"13"
n/a	"html-keyboard-response"	"210"	"419349"	"0.0-6.0-2.0-0.13"	"pg63be"	"600"	"1366"	"chrome"	"108.0.0"	"FALSE"	"Windows 10"	"60.92"	"128"	n/a	n/a	n/a	n/a	n/a	n/a	"fixation"	n/a	n/a	n/a	n/a	"NULL"	n/a	"NULL"	"NULL"	"NULL"	"<p style=\"color: black; font-size: 80px; padding-left: 1%; padding-right: 12%; padding-top: 21%; padding-bottom: 14%\">+</p>"	"1206"	n/a	n/a	n/a	n/a	n/a	n/a	n/a	n/a	n/a
n/a	"image-keyboard-response"	"211"	"420005"	"0.0-6.0-2.0-1.13"	"pg63be"	"600"	"1366"	"chrome"	"108.0.0"	"FALSE"	"Windows 10"	"60.92"	"128"	n/a	n/a	n/a	n/a	n/a	n/a	"Trial"	n/a	n/a	n/a	"655"	"arrowright"	n/a	"NULL"	"NULL"	"NULL"	"stimuli/VerticalHorizontal_11.78571_-0.16217.png"	n/a	"VerticalHorizontal"	"arrowright"	"1218"	"TRUE"	"VerticalHorizontal"	"11.785710000"	"-0.162170000"	"2"	"14"
n/a	"html-keyboard-response"	"212"	"421087"	"0.0-6.0-2.0-0.14"	"pg63be"	"600"	"1366"	"chrome"	"108.0.0"	"FALSE"	"Windows 10"	"60.92"	"128"	n/a	n/a	n/a	n/a	n/a	n/a	"fixation"	n/a	n/a	n/a	n/a	"NULL"	n/a	"NULL"	"NULL"	"NULL"	"<p style=\"color: black; font-size: 80px; padding-left: 44%; padding-right: 5%; padding-top: 0%; padding-bottom: 30%\">+</p>"	"1074"	n/a	n/a	n/a	n/a	n/a	n/a	n/a	n/a	n/a
n/a	"image-keyboard-response"	"213"	"421765"	"0.0-6.0-2.0-1.14"	"pg63be"	"600"	"1366"	"chrome"	"108.0.0"	"FALSE"	"Windows 10"	"60.92"	"128"	n/a	n/a	n/a	n/a	n/a	n/a	"Trial"	n/a	n/a	n/a	"677"	"arrowleft"	n/a	"NULL"	"NULL"	"NULL"	"stimuli/VerticalHorizontal_11.78571_0.06730.png"	n/a	"VerticalHorizontal"	"arrowleft"	"1082"	"TRUE"	"VerticalHorizontal"	"11.785710000"	"0.0673000000"	"2"	"15"
n/a	"html-keyboard-response"	"214"	"422924"	"0.0-6.0-2.0-0.15"	"pg63be"	"600"	"1366"	"chrome"	"108.0.0"	"FALSE"	"Windows 10"	"60.92"	"128"	n/a	n/a	n/a	n/a	n/a	n/a	"fixation"	n/a	n/a	n/a	n/a	"NULL"	n/a	"NULL"	"NULL"	"NULL"	"<p style=\"color: black; font-size: 80px; padding-left: 22%; padding-right: 22%; padding-top: 16%; padding-bottom: 46%\">+</p>"	"1149"	n/a	n/a	n/a	n/a	n/a	n/a	n/a	n/a	n/a
n/a	"image-keyboard-response"	"215"	"423735"	"0.0-6.0-2.0-1.15"	"pg63be"	"600"	"1366"	"chrome"	"108.0.0"	"FALSE"	"Windows 10"	"60.92"	"128"	n/a	n/a	n/a	n/a	n/a	n/a	"Trial"	n/a	n/a	n/a	"810"	"arrowright"	n/a	"NULL"	"NULL"	"NULL"	"stimuli/VerticalHorizontal_20.27143_-0.1096.png"	n/a	"VerticalHorizontal"	"arrowright"	"1159"	"TRUE"	"VerticalHorizontal"	"20.271430000"	"-0.109600000"	"2"	"16"
n/a	"html-keyboard-response"	"216"	"425164"	"0.0-6.0-2.0-0.16"	"pg63be"	"600"	"1366"	"chrome"	"108.0.0"	"FALSE"	"Windows 10"	"60.92"	"128"	n/a	n/a	n/a	n/a	n/a	n/a	"fixation"	n/a	n/a	n/a	n/a	"NULL"	n/a	"NULL"	"NULL"	"NULL"	"<p style=\"color: black; font-size: 80px; padding-left: 23%; padding-right: 42%; padding-top: 34%; padding-bottom: 38%\">+</p>"	"1423"	n/a	n/a	n/a	n/a	n/a	n/a	n/a	n/a	n/a
n/a	"image-keyboard-response"	"217"	"426136"	"0.0-6.0-2.0-1.16"	"pg63be"	"600"	"1366"	"chrome"	"108.0.0"	"FALSE"	"Windows 10"	"60.92"	"128"	n/a	n/a	n/a	n/a	n/a	n/a	"Trial"	n/a	n/a	n/a	"971"	"arrowright"	n/a	"NULL"	"NULL"	"NULL"	"stimuli/VerticalHorizontal_-3.3000_-0.1096.png"	n/a	"VerticalHorizontal"	"arrowright"	"1429"	"TRUE"	"VerticalHorizontal"	"-3.300000000"	"-0.109600000"	"2"	"17"
n/a	"html-keyboard-response"	"218"	"427421"	"0.0-6.0-2.0-0.17"	"pg63be"	"600"	"1366"	"chrome"	"108.0.0"	"FALSE"	"Windows 10"	"60.92"	"128"	n/a	n/a	n/a	n/a	n/a	n/a	"fixation"	n/a	n/a	n/a	n/a	"NULL"	n/a	"NULL"	"NULL"	"NULL"	"<p style=\"color: black; font-size: 80px; padding-left: 42%; padding-right: 41%; padding-top: 18%; padding-bottom: 8%\">+</p>"	"1274"	n/a	n/a	n/a	n/a	n/a	n/a	n/a	n/a	n/a
n/a	"image-keyboard-response"	"219"	"428310"	"0.0-6.0-2.0-1.17"	"pg63be"	"600"	"1366"	"chrome"	"108.0.0"	"FALSE"	"Windows 10"	"60.92"	"128"	n/a	n/a	n/a	n/a	n/a	n/a	"Trial"	n/a	n/a	n/a	"888"	"arrowright"	n/a	"NULL"	"NULL"	"NULL"	"stimuli/VerticalHorizontal_11.78571_-0.0673.png"	n/a	"VerticalHorizontal"	"arrowright"	"1285"	"TRUE"	"VerticalHorizontal"	"11.785710000"	"-0.067300000"	"2"	"18"
n/a	"html-keyboard-response"	"220"	"429397"	"0.0-6.0-2.0-0.18"	"pg63be"	"600"	"1366"	"chrome"	"108.0.0"	"FALSE"	"Windows 10"	"60.92"	"128"	n/a	n/a	n/a	n/a	n/a	n/a	"fixation"	n/a	n/a	n/a	n/a	"NULL"	n/a	"NULL"	"NULL"	"NULL"	"<p style=\"color: black; font-size: 80px; padding-left: 34%; padding-right: 27%; padding-top: 9%; padding-bottom: 14%\">+</p>"	"1070"	n/a	n/a	n/a	n/a	n/a	n/a	n/a	n/a	n/a
n/a	"image-keyboard-response"	"221"	"430229"	"0.0-6.0-2.0-1.18"	"pg63be"	"600"	"1366"	"chrome"	"108.0.0"	"FALSE"	"Windows 10"	"60.92"	"128"	n/a	n/a	n/a	n/a	n/a	n/a	"Trial"	n/a	n/a	n/a	"830"	"arrowright"	n/a	"NULL"	"NULL"	"NULL"	"stimuli/VerticalHorizontal_3.30000_-0.1096.png"	n/a	"VerticalHorizontal"	"arrowright"	"1087"	"TRUE"	"VerticalHorizontal"	"3.3000000000"	"-0.109600000"	"2"	"19"
n/a	"html-keyboard-response"	"222"	"431650"	"0.0-6.0-2.0-0.19"	"pg63be"	"600"	"1366"	"chrome"	"108.0.0"	"FALSE"	"Windows 10"	"60.92"	"128"	n/a	n/a	n/a	n/a	n/a	n/a	"fixation"	n/a	n/a	n/a	n/a	"NULL"	n/a	"NULL"	"NULL"	"NULL"	"<p style=\"color: black; font-size: 80px; padding-left: 37%; padding-right: 34%; padding-top: 41%; padding-bottom: 12%\">+</p>"	"1413"	n/a	n/a	n/a	n/a	n/a	n/a	n/a	n/a	n/a
n/a	"image-keyboard-response"	"223"	"432340"	"0.0-6.0-2.0-1.19"	"pg63be"	"600"	"1366"	"chrome"	"108.0.0"	"FALSE"	"Windows 10"	"60.92"	"128"	n/a	n/a	n/a	n/a	n/a	n/a	"Trial"	n/a	n/a	n/a	"689"	"arrowleft"	n/a	"NULL"	"NULL"	"NULL"	"stimuli/VerticalHorizontal_-11.78571_0.06730.png"	n/a	"VerticalHorizontal"	"arrowleft"	"1421"	"TRUE"	"VerticalHorizontal"	"-11.78571000"	"0.0673000000"	"2"	"20"
n/a	"html-keyboard-response"	"224"	"433384"	"0.0-6.0-2.0-0.20"	"pg63be"	"600"	"1366"	"chrome"	"108.0.0"	"FALSE"	"Windows 10"	"60.92"	"128"	n/a	n/a	n/a	n/a	n/a	n/a	"fixation"	n/a	n/a	n/a	n/a	"NULL"	n/a	"NULL"	"NULL"	"NULL"	"<p style=\"color: black; font-size: 80px; padding-left: 5%; padding-right: 3%; padding-top: 6%; padding-bottom: 20%\">+</p>"	"1038"	n/a	n/a	n/a	n/a	n/a	n/a	n/a	n/a	n/a
n/a	"image-keyboard-response"	"225"	"434134"	"0.0-6.0-2.0-1.20"	"pg63be"	"600"	"1366"	"chrome"	"108.0.0"	"FALSE"	"Windows 10"	"60.92"	"128"	n/a	n/a	n/a	n/a	n/a	n/a	"Trial"	n/a	n/a	n/a	"748"	"arrowleft"	n/a	"NULL"	"NULL"	"NULL"	"stimuli/VerticalHorizontal_3.30000_0.16217.png"	n/a	"VerticalHorizontal"	"arrowleft"	"1044"	"TRUE"	"VerticalHorizontal"	"3.3000000000"	"0.1621700000"	"2"	"21"
n/a	"html-keyboard-response"	"226"	"435429"	"0.0-6.0-2.0-0.21"	"pg63be"	"600"	"1366"	"chrome"	"108.0.0"	"FALSE"	"Windows 10"	"60.92"	"128"	n/a	n/a	n/a	n/a	n/a	n/a	"fixation"	n/a	n/a	n/a	n/a	"NULL"	n/a	"NULL"	"NULL"	"NULL"	"<p style=\"color: black; font-size: 80px; padding-left: 4%; padding-right: 29%; padding-top: 28%; padding-bottom: 3%\">+</p>"	"1290"	n/a	n/a	n/a	n/a	n/a	n/a	n/a	n/a	n/a
n/a	"image-keyboard-response"	"227"	"435989"	"0.0-6.0-2.0-1.21"	"pg63be"	"600"	"1366"	"chrome"	"108.0.0"	"FALSE"	"Windows 10"	"60.92"	"128"	n/a	n/a	n/a	n/a	n/a	n/a	"Trial"	n/a	n/a	n/a	"559"	"arrowright"	n/a	"NULL"	"NULL"	"NULL"	"stimuli/VerticalHorizontal_20.27143_-0.2250.png"	n/a	"VerticalHorizontal"	"arrowright"	"1295"	"TRUE"	"VerticalHorizontal"	"20.271430000"	"-0.225000000"	"2"	"22"
n/a	"html-keyboard-response"	"228"	"437507"	"0.0-6.0-2.0-0.22"	"pg63be"	"600"	"1366"	"chrome"	"108.0.0"	"FALSE"	"Windows 10"	"60.92"	"128"	n/a	n/a	n/a	n/a	n/a	n/a	"fixation"	n/a	n/a	n/a	n/a	"NULL"	n/a	"NULL"	"NULL"	"NULL"	"<p style=\"color: black; font-size: 80px; padding-left: 32%; padding-right: 43%; padding-top: 14%; padding-bottom: 38%\">+</p>"	"1494"	n/a	n/a	n/a	n/a	n/a	n/a	n/a	n/a	n/a
n/a	"image-keyboard-response"	"229"	"438029"	"0.0-6.0-2.0-1.22"	"pg63be"	"600"	"1366"	"chrome"	"108.0.0"	"FALSE"	"Windows 10"	"60.92"	"128"	n/a	n/a	n/a	n/a	n/a	n/a	"Trial"	n/a	n/a	n/a	"521"	"arrowleft"	n/a	"NULL"	"NULL"	"NULL"	"stimuli/VerticalHorizontal_-11.78571_0.10960.png"	n/a	"VerticalHorizontal"	"arrowleft"	"1518"	"TRUE"	"VerticalHorizontal"	"-11.78571000"	"0.1096000000"	"2"	"23"
n/a	"html-keyboard-response"	"230"	"439056"	"0.0-6.0-2.0-0.23"	"pg63be"	"600"	"1366"	"chrome"	"108.0.0"	"FALSE"	"Windows 10"	"60.92"	"128"	n/a	n/a	n/a	n/a	n/a	n/a	"fixation"	n/a	n/a	n/a	n/a	"NULL"	n/a	"NULL"	"NULL"	"NULL"	"<p style=\"color: black; font-size: 80px; padding-left: 48%; padding-right: 42%; padding-top: 23%; padding-bottom: 28%\">+</p>"	"1011"	n/a	n/a	n/a	n/a	n/a	n/a	n/a	n/a	n/a
n/a	"image-keyboard-response"	"231"	"439883"	"0.0-6.0-2.0-1.23"	"pg63be"	"600"	"1366"	"chrome"	"108.0.0"	"FALSE"	"Windows 10"	"60.92"	"128"	n/a	n/a	n/a	n/a	n/a	n/a	"Trial"	n/a	n/a	n/a	"826"	"arrowleft"	n/a	"NULL"	"NULL"	"NULL"	"stimuli/VerticalHorizontal_11.78571_0.16217.png"	n/a	"VerticalHorizontal"	"arrowleft"	"1027"	"TRUE"	"VerticalHorizontal"	"11.785710000"	"0.1621700000"	"2"	"24"
n/a	"html-keyboard-response"	"232"	"441242"	"0.0-6.0-2.0-0.24"	"pg63be"	"600"	"1366"	"chrome"	"108.0.0"	"FALSE"	"Windows 10"	"60.92"	"128"	n/a	n/a	n/a	n/a	n/a	n/a	"fixation"	n/a	n/a	n/a	n/a	"NULL"	n/a	"NULL"	"NULL"	"NULL"	"<p style=\"color: black; font-size: 80px; padding-left: 32%; padding-right: 41%; padding-top: 7%; padding-bottom: 43%\">+</p>"	"1341"	n/a	n/a	n/a	n/a	n/a	n/a	n/a	n/a	n/a
n/a	"image-keyboard-response"	"233"	"441878"	"0.0-6.0-2.0-1.24"	"pg63be"	"600"	"1366"	"chrome"	"108.0.0"	"FALSE"	"Windows 10"	"60.92"	"128"	n/a	n/a	n/a	n/a	n/a	n/a	"Trial"	n/a	n/a	n/a	"635"	"arrowright"	n/a	"NULL"	"NULL"	"NULL"	"stimuli/VerticalHorizontal_28.75714_-0.16217.png"	n/a	"VerticalHorizontal"	"arrowright"	"1359"	"TRUE"	"VerticalHorizontal"	"28.757140000"	"-0.162170000"	"2"	"25"
n/a	"html-keyboard-response"	"234"	"443198"	"0.0-6.0-2.0-0.25"	"pg63be"	"600"	"1366"	"chrome"	"108.0.0"	"FALSE"	"Windows 10"	"60.92"	"128"	n/a	n/a	n/a	n/a	n/a	n/a	"fixation"	n/a	n/a	n/a	n/a	"NULL"	n/a	"NULL"	"NULL"	"NULL"	"<p style=\"color: black; font-size: 80px; padding-left: 2%; padding-right: 31%; padding-top: 14%; padding-bottom: 47%\">+</p>"	"1307"	n/a	n/a	n/a	n/a	n/a	n/a	n/a	n/a	n/a
n/a	"image-keyboard-response"	"235"	"443886"	"0.0-6.0-2.0-1.25"	"pg63be"	"600"	"1366"	"chrome"	"108.0.0"	"FALSE"	"Windows 10"	"60.92"	"128"	n/a	n/a	n/a	n/a	n/a	n/a	"Trial"	n/a	n/a	n/a	"687"	"arrowleft"	n/a	"NULL"	"NULL"	"NULL"	"stimuli/VerticalHorizontal_20.27143_0.10960.png"	n/a	"VerticalHorizontal"	"arrowleft"	"1320"	"TRUE"	"VerticalHorizontal"	"20.271430000"	"0.1096000000"	"2"	"26"
n/a	"html-keyboard-response"	"236"	"445287"	"0.0-6.0-2.0-0.26"	"pg63be"	"600"	"1366"	"chrome"	"108.0.0"	"FALSE"	"Windows 10"	"60.92"	"128"	n/a	n/a	n/a	n/a	n/a	n/a	"fixation"	n/a	n/a	n/a	n/a	"NULL"	n/a	"NULL"	"NULL"	"NULL"	"<p style=\"color: black; font-size: 80px; padding-left: 32%; padding-right: 14%; padding-top: 46%; padding-bottom: 42%\">+</p>"	"1388"	n/a	n/a	n/a	n/a	n/a	n/a	n/a	n/a	n/a
n/a	"image-keyboard-response"	"237"	"445863"	"0.0-6.0-2.0-1.26"	"pg63be"	"600"	"1366"	"chrome"	"108.0.0"	"FALSE"	"Windows 10"	"60.92"	"128"	n/a	n/a	n/a	n/a	n/a	n/a	"Trial"	n/a	n/a	n/a	"575"	"arrowright"	n/a	"NULL"	"NULL"	"NULL"	"stimuli/VerticalHorizontal_-28.75714_-0.1096.png"	n/a	"VerticalHorizontal"	"arrowright"	"1401"	"TRUE"	"VerticalHorizontal"	"-28.75714000"	"-0.109600000"	"2"	"27"
n/a	"html-keyboard-response"	"238"	"447082"	"0.0-6.0-2.0-0.27"	"pg63be"	"600"	"1366"	"chrome"	"108.0.0"	"FALSE"	"Windows 10"	"60.92"	"128"	n/a	n/a	n/a	n/a	n/a	n/a	"fixation"	n/a	n/a	n/a	n/a	"NULL"	n/a	"NULL"	"NULL"	"NULL"	"<p style=\"color: black; font-size: 80px; padding-left: 8%; padding-right: 44%; padding-top: 39%; padding-bottom: 9%\">+</p>"	"1209"	n/a	n/a	n/a	n/a	n/a	n/a	n/a	n/a	n/a
n/a	"image-keyboard-response"	"239"	"447632"	"0.0-6.0-2.0-1.27"	"pg63be"	"600"	"1366"	"chrome"	"108.0.0"	"FALSE"	"Windows 10"	"60.92"	"128"	n/a	n/a	n/a	n/a	n/a	n/a	"Trial"	n/a	n/a	n/a	"548"	"arrowleft"	n/a	"NULL"	"NULL"	"NULL"	"stimuli/VerticalHorizontal_-11.78571_0.22500.png"	n/a	"VerticalHorizontal"	"arrowleft"	"1219"	"TRUE"	"VerticalHorizontal"	"-11.78571000"	"0.2250000000"	"2"	"28"
n/a	"html-keyboard-response"	"240"	"448839"	"0.0-6.0-2.0-0.28"	"pg63be"	"600"	"1366"	"chrome"	"108.0.0"	"FALSE"	"Windows 10"	"60.92"	"128"	n/a	n/a	n/a	n/a	n/a	n/a	"fixation"	n/a	n/a	n/a	n/a	"NULL"	n/a	"NULL"	"NULL"	"NULL"	"<p style=\"color: black; font-size: 80px; padding-left: 12%; padding-right: 34%; padding-top: 21%; padding-bottom: 13%\">+</p>"	"1199"	n/a	n/a	n/a	n/a	n/a	n/a	n/a	n/a	n/a
n/a	"image-keyboard-response"	"241"	"449787"	"0.0-6.0-2.0-1.28"	"pg63be"	"600"	"1366"	"chrome"	"108.0.0"	"FALSE"	"Windows 10"	"60.92"	"128"	n/a	n/a	n/a	n/a	n/a	n/a	"Trial"	n/a	n/a	n/a	"947"	"arrowleft"	n/a	"NULL"	"NULL"	"NULL"	"stimuli/VerticalHorizontal_20.27143_0.16217.png"	n/a	"VerticalHorizontal"	"arrowleft"	"1207"	"TRUE"	"VerticalHorizontal"	"20.271430000"	"0.1621700000"	"2"	"29"
n/a	"html-keyboard-response"	"242"	"451130"	"0.0-6.0-2.0-0.29"	"pg63be"	"600"	"1366"	"chrome"	"108.0.0"	"FALSE"	"Windows 10"	"60.92"	"128"	n/a	n/a	n/a	n/a	n/a	n/a	"fixation"	n/a	n/a	n/a	n/a	"NULL"	n/a	"NULL"	"NULL"	"NULL"	"<p style=\"color: black; font-size: 80px; padding-left: 44%; padding-right: 44%; padding-top: 11%; padding-bottom: 13%\">+</p>"	"1332"	n/a	n/a	n/a	n/a	n/a	n/a	n/a	n/a	n/a
n/a	"image-keyboard-response"	"243"	"452468"	"0.0-6.0-2.0-1.29"	"pg63be"	"600"	"1366"	"chrome"	"108.0.0"	"FALSE"	"Windows 10"	"60.92"	"128"	n/a	n/a	n/a	n/a	n/a	n/a	"Trial"	n/a	n/a	n/a	"1338"	"arrowleft"	n/a	"NULL"	"NULL"	"NULL"	"stimuli/VerticalHorizontal_28.75714_-0.1096.png"	n/a	"VerticalHorizontal"	"arrowright"	"1343"	"FALSE"	"VerticalHorizontal"	"28.757140000"	"-0.109600000"	"2"	"30"
n/a	"html-keyboard-response"	"244"	"453902"	"0.0-6.0-2.0-0.30"	"pg63be"	"600"	"1366"	"chrome"	"108.0.0"	"FALSE"	"Windows 10"	"60.92"	"128"	n/a	n/a	n/a	n/a	n/a	n/a	"fixation"	n/a	n/a	n/a	n/a	"NULL"	n/a	"NULL"	"NULL"	"NULL"	"<p style=\"color: black; font-size: 80px; padding-left: 37%; padding-right: 1%; padding-top: 35%; padding-bottom: 2%\">+</p>"	"1414"	n/a	n/a	n/a	n/a	n/a	n/a	n/a	n/a	n/a
n/a	"image-keyboard-response"	"245"	"454642"	"0.0-6.0-2.0-1.30"	"pg63be"	"600"	"1366"	"chrome"	"108.0.0"	"FALSE"	"Windows 10"	"60.92"	"128"	n/a	n/a	n/a	n/a	n/a	n/a	"Trial"	n/a	n/a	n/a	"735"	"arrowleft"	n/a	"NULL"	"NULL"	"NULL"	"stimuli/VerticalHorizontal_-3.3000_0.10960.png"	n/a	"VerticalHorizontal"	"arrowleft"	"1434"	"TRUE"	"VerticalHorizontal"	"-3.300000000"	"0.1096000000"	"2"	"31"
n/a	"html-keyboard-response"	"246"	"455901"	"0.0-6.0-2.0-0.31"	"pg63be"	"600"	"1366"	"chrome"	"108.0.0"	"FALSE"	"Windows 10"	"60.92"	"128"	n/a	n/a	n/a	n/a	n/a	n/a	"fixation"	n/a	n/a	n/a	n/a	"NULL"	n/a	"NULL"	"NULL"	"NULL"	"<p style=\"color: black; font-size: 80px; padding-left: 31%; padding-right: 40%; padding-top: 30%; padding-bottom: 12%\">+</p>"	"1244"	n/a	n/a	n/a	n/a	n/a	n/a	n/a	n/a	n/a
n/a	"image-keyboard-response"	"247"	"456614"	"0.0-6.0-2.0-1.31"	"pg63be"	"600"	"1366"	"chrome"	"108.0.0"	"FALSE"	"Windows 10"	"60.92"	"128"	n/a	n/a	n/a	n/a	n/a	n/a	"Trial"	n/a	n/a	n/a	"712"	"arrowright"	n/a	"NULL"	"NULL"	"NULL"	"stimuli/VerticalHorizontal_-20.27143_-0.16217.png"	n/a	"VerticalHorizontal"	"arrowright"	"1259"	"TRUE"	"VerticalHorizontal"	"-20.27143000"	"-0.162170000"	"2"	"32"
n/a	"html-keyboard-response"	"248"	"457853"	"0.0-6.0-2.0-0.32"	"pg63be"	"600"	"1366"	"chrome"	"108.0.0"	"FALSE"	"Windows 10"	"60.92"	"128"	n/a	n/a	n/a	n/a	n/a	n/a	"fixation"	n/a	n/a	n/a	n/a	"NULL"	n/a	"NULL"	"NULL"	"NULL"	"<p style=\"color: black; font-size: 80px; padding-left: 34%; padding-right: 34%; padding-top: 43%; padding-bottom: 39%\">+</p>"	"1228"	n/a	n/a	n/a	n/a	n/a	n/a	n/a	n/a	n/a
n/a	"image-keyboard-response"	"249"	"458547"	"0.0-6.0-2.0-1.32"	"pg63be"	"600"	"1366"	"chrome"	"108.0.0"	"FALSE"	"Windows 10"	"60.92"	"128"	n/a	n/a	n/a	n/a	n/a	n/a	"Trial"	n/a	n/a	n/a	"693"	"arrowright"	n/a	"NULL"	"NULL"	"NULL"	"stimuli/VerticalHorizontal_-3.3000_-0.2250.png"	n/a	"VerticalHorizontal"	"arrowright"	"1239"	"TRUE"	"VerticalHorizontal"	"-3.300000000"	"-0.225000000"	"2"	"33"
n/a	"html-keyboard-response"	"250"	"459894"	"0.0-6.0-2.0-0.33"	"pg63be"	"600"	"1366"	"chrome"	"108.0.0"	"FALSE"	"Windows 10"	"60.92"	"128"	n/a	n/a	n/a	n/a	n/a	n/a	"fixation"	n/a	n/a	n/a	n/a	"NULL"	n/a	"NULL"	"NULL"	"NULL"	"<p style=\"color: black; font-size: 80px; padding-left: 8%; padding-right: 21%; padding-top: 42%; padding-bottom: 17%\">+</p>"	"1330"	n/a	n/a	n/a	n/a	n/a	n/a	n/a	n/a	n/a
