"success"	"trial_type"	"trial_index"	"time_elapsed"	"internal_node_id"	"participant_id"	"screen_height"	"screen_width"	"browser"	"browser_version"	"mobile"	"os"	"vsync_rate"	"subject_id"	"width"	"height"	"webaudio"	"fullscreen"	"webcam"	"microphone"	"screen"	"version"	"date"	"time"	"rt"	"response"	"timeout"	"failed_images"	"failed_audio"	"failed_video"	"stimulus"	"trial_duration"	"block"	"correct_response"	"prestimulus_duration"	"correct"	"type"	"illusion_strength"	"illusion_difference"	"block_number"	"trial_number"
"TRUE"	"fullscreen"	"0"	"4832"	"0.0-0.0"	"277bd4"	"600"	"1366"	"chrome"	"111.0.0"	"FALSE"	"Windows 10"	"60.17"	"054"	n/a	n/a	n/a	n/a	n/a	n/a	n/a	n/a	n/a	n/a	n/a	"NULL"	n/a	"NULL"	"NULL"	"NULL"	n/a	n/a	n/a	n/a	n/a	n/a	n/a	n/a	n/a	n/a	n/a
n/a	"browser-check"	"1"	"5844"	"0.0-1.0"	"277bd4"	"600"	"1366"	"chrome"	"111.0.0"	"FALSE"	"Windows 10"	"60.17"	"054"	"1366"	"600"	"TRUE"	"TRUE"	"TRUE"	"TRUE"	"browser_info"	"1.0"	"21/03/2023"	"18:06:44"	n/a	"NULL"	n/a	"NULL"	"NULL"	"NULL"	n/a	n/a	n/a	n/a	n/a	n/a	n/a	n/a	n/a	n/a	n/a
n/a	"survey-text"	"2"	"9767"	"0.0-2.0"	"277bd4"	"600"	"1366"	"chrome"	"111.0.0"	"FALSE"	"Windows 10"	"60.17"	"054"	n/a	n/a	n/a	n/a	n/a	n/a	"subject_id"	n/a	n/a	n/a	"3919"	"list(subject_id = \"054\")"	n/a	"NULL"	"NULL"	"NULL"	n/a	n/a	n/a	n/a	n/a	n/a	n/a	n/a	n/a	n/a	n/a
"TRUE"	"preload"	"3"	"9779"	"0.0-3.0"	"277bd4"	"600"	"1366"	"chrome"	"111.0.0"	"FALSE"	"Windows 10"	"60.17"	"054"	n/a	n/a	n/a	n/a	n/a	n/a	n/a	n/a	n/a	n/a	n/a	"NULL"	"FALSE"	"list()"	"list()"	"list()"	n/a	n/a	n/a	n/a	n/a	n/a	n/a	n/a	n/a	n/a	n/a
n/a	"html-button-response"	"4"	"25041"	"0.0-4.0-0.0"	"277bd4"	"600"	"1366"	"chrome"	"111.0.0"	"FALSE"	"Windows 10"	"60.17"	"054"	n/a	n/a	n/a	n/a	n/a	n/a	"illusion_instructions"	n/a	n/a	n/a	"15261"	"0"	n/a	"NULL"	"NULL"	"NULL"	"<p><b>Illusion Game</b></p><p>In this game of speed and reflex, you will need to make <b>visual judgments</b> (for instance, which circle is the biggest, or which line is the longest), as fast and as correctly as possible, while <b>resisting different visual illusions</b>.</p><p>We are going to start with some examples of all the illusions you will encounter in the game.</p>"	n/a	n/a	n/a	n/a	n/a	n/a	n/a	n/a	n/a	n/a
"TRUE"	"preload"	"5"	"25356"	"0.0-4.0-1.0-0.0"	"277bd4"	"600"	"1366"	"chrome"	"111.0.0"	"FALSE"	"Windows 10"	"60.17"	"054"	n/a	n/a	n/a	n/a	n/a	n/a	n/a	n/a	n/a	n/a	n/a	"NULL"	"FALSE"	"list()"	"list()"	"list()"	n/a	n/a	n/a	n/a	n/a	n/a	n/a	n/a	n/a	n/a	n/a
n/a	"html-keyboard-response"	"6"	"57972"	"0.0-4.0-1.0-1.0"	"277bd4"	"600"	"1366"	"chrome"	"111.0.0"	"FALSE"	"Windows 10"	"60.17"	"054"	n/a	n/a	n/a	n/a	n/a	n/a	n/a	n/a	n/a	n/a	"32615"	"enter"	n/a	"NULL"	"NULL"	"NULL"	"<p><b>Practice</b></p><p>In this part, two red circles will appear side by side on the screen.</p><p>Your task is to select which <b>red circle is bigger</b> in size as fast as you can, without making errors.</p><p>Don't get distracted by the surrounding black circles around the red circles!</p><p>Press <b>the LEFT or the RIGHT arrow</b> to indicate which is the bigger <b>red circle.</b></p><div style='float: center'><img src='materials/instructions/Ebbinghaus_Demo.png' height='300'></img><p><img src='utils/answer/answer_leftright_keyboard.PNG' height='150'></img></p><p class='small'>In this example, the correct answer is the <b>LEFT arrow</b>.</p></div><p>Are you ready? <b>Press ENTER to start</b></p>"	n/a	n/a	n/a	n/a	n/a	n/a	n/a	n/a	n/a	n/a
n/a	"html-keyboard-response"	"7"	"59804"	"0.0-4.0-1.0-2.0-0.0"	"277bd4"	"600"	"1366"	"chrome"	"111.0.0"	"FALSE"	"Windows 10"	"60.17"	"054"	n/a	n/a	n/a	n/a	n/a	n/a	"fixation"	n/a	n/a	n/a	n/a	"NULL"	n/a	"NULL"	"NULL"	"NULL"	"<p style=\"color: black; font-size: 80px; padding-left: 32%; padding-right: 2%; padding-top: 43%; padding-bottom: 45%\">+</p>"	"1321"	n/a	n/a	n/a	n/a	n/a	n/a	n/a	n/a	n/a
n/a	"image-keyboard-response"	"8"	"64407"	"0.0-4.0-1.0-2.0-1.0"	"277bd4"	"600"	"1366"	"chrome"	"111.0.0"	"FALSE"	"Windows 10"	"60.17"	"054"	n/a	n/a	n/a	n/a	n/a	n/a	"Trial"	n/a	n/a	n/a	"4591"	"arrowright"	n/a	"NULL"	"NULL"	"NULL"	"stimuli/Ebbinghaus_1000000_-1.4000.png"	n/a	"Ebbinghaus"	"arrowright"	"1832"	"TRUE"	"Ebbinghaus"	"100000000000"	"-1.400000000"	"1"	"1"
n/a	"html-keyboard-response"	"9"	"65772"	"0.0-4.0-1.0-2.0-0.1"	"277bd4"	"600"	"1366"	"chrome"	"111.0.0"	"FALSE"	"Windows 10"	"60.17"	"054"	n/a	n/a	n/a	n/a	n/a	n/a	"fixation"	n/a	n/a	n/a	n/a	"NULL"	n/a	"NULL"	"NULL"	"NULL"	"<p style=\"color: black; font-size: 80px; padding-left: 39%; padding-right: 4%; padding-top: 10%; padding-bottom: 50%\">+</p>"	"1347"	n/a	n/a	n/a	n/a	n/a	n/a	n/a	n/a	n/a
n/a	"image-keyboard-response"	"10"	"66492"	"0.0-4.0-1.0-2.0-1.1"	"277bd4"	"600"	"1366"	"chrome"	"111.0.0"	"FALSE"	"Windows 10"	"60.17"	"054"	n/a	n/a	n/a	n/a	n/a	n/a	"Trial"	n/a	n/a	n/a	"720"	"arrowright"	n/a	"NULL"	"NULL"	"NULL"	"stimuli/Ebbinghaus_0000000_-1.4000.png"	n/a	"Ebbinghaus"	"arrowright"	"1365"	"TRUE"	"Ebbinghaus"	"000000000000"	"-1.400000000"	"1"	"2"
n/a	"html-keyboard-response"	"11"	"67548"	"0.0-4.0-1.0-2.0-0.2"	"277bd4"	"600"	"1366"	"chrome"	"111.0.0"	"FALSE"	"Windows 10"	"60.17"	"054"	n/a	n/a	n/a	n/a	n/a	n/a	"fixation"	n/a	n/a	n/a	n/a	"NULL"	n/a	"NULL"	"NULL"	"NULL"	"<p style=\"color: black; font-size: 80px; padding-left: 21%; padding-right: 13%; padding-top: 8%; padding-bottom: 19%\">+</p>"	"1051"	n/a	n/a	n/a	n/a	n/a	n/a	n/a	n/a	n/a
n/a	"image-keyboard-response"	"12"	"68119"	"0.0-4.0-1.0-2.0-1.2"	"277bd4"	"600"	"1366"	"chrome"	"111.0.0"	"FALSE"	"Windows 10"	"60.17"	"054"	n/a	n/a	n/a	n/a	n/a	n/a	"Trial"	n/a	n/a	n/a	"570"	"arrowright"	n/a	"NULL"	"NULL"	"NULL"	"stimuli/Ebbinghaus_-100000_-1.4000.png"	n/a	"Ebbinghaus"	"arrowright"	"1056"	"TRUE"	"Ebbinghaus"	"-10000000000"	"-1.400000000"	"1"	"3"
n/a	"html-keyboard-response"	"13"	"69554"	"0.0-4.0-1.0-2.0-0.3"	"277bd4"	"600"	"1366"	"chrome"	"111.0.0"	"FALSE"	"Windows 10"	"60.17"	"054"	n/a	n/a	n/a	n/a	n/a	n/a	"fixation"	n/a	n/a	n/a	n/a	"NULL"	n/a	"NULL"	"NULL"	"NULL"	"<p style=\"color: black; font-size: 80px; padding-left: 27%; padding-right: 44%; padding-top: 24%; padding-bottom: 8%\">+</p>"	"1427"	n/a	n/a	n/a	n/a	n/a	n/a	n/a	n/a	n/a
n/a	"image-keyboard-response"	"14"	"70269"	"0.0-4.0-1.0-2.0-1.3"	"277bd4"	"600"	"1366"	"chrome"	"111.0.0"	"FALSE"	"Windows 10"	"60.17"	"054"	n/a	n/a	n/a	n/a	n/a	n/a	"Trial"	n/a	n/a	n/a	"714"	"arrowleft"	n/a	"NULL"	"NULL"	"NULL"	"stimuli/Ebbinghaus_-100000_1.40000.png"	n/a	"Ebbinghaus"	"arrowleft"	"1435"	"TRUE"	"Ebbinghaus"	"-10000000000"	"1.4000000000"	"1"	"4"
n/a	"html-keyboard-response"	"15"	"71706"	"0.0-4.0-1.0-2.0-0.4"	"277bd4"	"600"	"1366"	"chrome"	"111.0.0"	"FALSE"	"Windows 10"	"60.17"	"054"	n/a	n/a	n/a	n/a	n/a	n/a	"fixation"	n/a	n/a	n/a	n/a	"NULL"	n/a	"NULL"	"NULL"	"NULL"	"<p style=\"color: black; font-size: 80px; padding-left: 3%; padding-right: 14%; padding-top: 44%; padding-bottom: 19%\">+</p>"	"1426"	n/a	n/a	n/a	n/a	n/a	n/a	n/a	n/a	n/a
n/a	"image-keyboard-response"	"16"	"72183"	"0.0-4.0-1.0-2.0-1.4"	"277bd4"	"600"	"1366"	"chrome"	"111.0.0"	"FALSE"	"Windows 10"	"60.17"	"054"	n/a	n/a	n/a	n/a	n/a	n/a	"Trial"	n/a	n/a	n/a	"476"	"arrowleft"	n/a	"NULL"	"NULL"	"NULL"	"stimuli/Ebbinghaus_0000000_1.40000.png"	n/a	"Ebbinghaus"	"arrowleft"	"1437"	"TRUE"	"Ebbinghaus"	"000000000000"	"1.4000000000"	"1"	"5"
n/a	"html-keyboard-response"	"17"	"73390"	"0.0-4.0-1.0-2.0-0.5"	"277bd4"	"600"	"1366"	"chrome"	"111.0.0"	"FALSE"	"Windows 10"	"60.17"	"054"	n/a	n/a	n/a	n/a	n/a	n/a	"fixation"	n/a	n/a	n/a	n/a	"NULL"	n/a	"NULL"	"NULL"	"NULL"	"<p style=\"color: black; font-size: 80px; padding-left: 0%; padding-right: 10%; padding-top: 14%; padding-bottom: 50%\">+</p>"	"1193"	n/a	n/a	n/a	n/a	n/a	n/a	n/a	n/a	n/a
n/a	"image-keyboard-response"	"18"	"73858"	"0.0-4.0-1.0-2.0-1.5"	"277bd4"	"600"	"1366"	"chrome"	"111.0.0"	"FALSE"	"Windows 10"	"60.17"	"054"	n/a	n/a	n/a	n/a	n/a	n/a	"Trial"	n/a	n/a	n/a	"468"	"arrowleft"	n/a	"NULL"	"NULL"	"NULL"	"stimuli/Ebbinghaus_1000000_1.40000.png"	n/a	"Ebbinghaus"	"arrowleft"	"1207"	"TRUE"	"Ebbinghaus"	"100000000000"	"1.4000000000"	"1"	"6"
n/a	"html-button-response"	"19"	"91811"	"0.0-4.0-1.0-3.0"	"277bd4"	"600"	"1366"	"chrome"	"111.0.0"	"FALSE"	"Windows 10"	"60.17"	"054"	n/a	n/a	n/a	n/a	n/a	n/a	"practice_block_results"	n/a	n/a	n/a	"17951"	"0"	n/a	"NULL"	"NULL"	"NULL"	"<p style='color:rgb(76,175,80);'> Correct Responses: <b>100.00%</b></p><hr><p style='color:rgb(233,30,99);'> Average Response Time: <b>1256.50</b> ms.</p>"	n/a	n/a	n/a	n/a	n/a	n/a	n/a	n/a	n/a	n/a
"TRUE"	"preload"	"20"	"92756"	"0.0-4.0-2.0-0.0"	"277bd4"	"600"	"1366"	"chrome"	"111.0.0"	"FALSE"	"Windows 10"	"60.17"	"054"	n/a	n/a	n/a	n/a	n/a	n/a	n/a	n/a	n/a	n/a	n/a	"NULL"	"FALSE"	"list()"	"list()"	"list()"	n/a	n/a	n/a	n/a	n/a	n/a	n/a	n/a	n/a	n/a	n/a
n/a	"html-keyboard-response"	"21"	"100727"	"0.0-4.0-2.0-1.0"	"277bd4"	"600"	"1366"	"chrome"	"111.0.0"	"FALSE"	"Windows 10"	"60.17"	"054"	n/a	n/a	n/a	n/a	n/a	n/a	n/a	n/a	n/a	n/a	"7969"	"enter"	n/a	"NULL"	"NULL"	"NULL"	"<p><b>Practice</b></p><p>In this part, two horizontal red lines will appear one above the other.</p><p>Your task is to select which <b>line is longer</b> in length as fast as you can, without making errors.</p><p>Don't get distracted by the surrounding black arrows at the end of the red lines!</p><p>Press <b>the UP or the DOWN arrow</b> to indicate where is the longer <b>red line.</b></p><div style='float: center'><img src='materials/instructions/MullerLyer_Demo.png' height='300'></img><p><img src='utils/answer/answer_updown_keyboard.PNG' height='150'></img></p><p class='small'>In this example, the correct answer is the <b>UP arrow</b>.</p></div><p>Are you ready? <b>Press ENTER to start</b></p>"	n/a	n/a	n/a	n/a	n/a	n/a	n/a	n/a	n/a	n/a
n/a	"html-keyboard-response"	"22"	"102279"	"0.0-4.0-2.0-2.0-0.0"	"277bd4"	"600"	"1366"	"chrome"	"111.0.0"	"FALSE"	"Windows 10"	"60.17"	"054"	n/a	n/a	n/a	n/a	n/a	n/a	"fixation"	n/a	n/a	n/a	n/a	"NULL"	n/a	"NULL"	"NULL"	"NULL"	"<p style=\"color: black; font-size: 80px; padding-left: 31%; padding-right: 15%; padding-top: 4%; padding-bottom: 14%\">+</p>"	"1041"	n/a	n/a	n/a	n/a	n/a	n/a	n/a	n/a	n/a
n/a	"image-keyboard-response"	"23"	"102826"	"0.0-4.0-2.0-2.0-1.0"	"277bd4"	"600"	"1366"	"chrome"	"111.0.0"	"FALSE"	"Windows 10"	"60.17"	"054"	n/a	n/a	n/a	n/a	n/a	n/a	"Trial"	n/a	n/a	n/a	"546"	"arrowdown"	n/a	"NULL"	"NULL"	"NULL"	"stimuli/MullerLyer_2300000_-0.7000.png"	n/a	"MullerLyer"	"arrowdown"	"1552"	"TRUE"	"MullerLyer"	"230000000000"	"-0.700000000"	"1"	"7"
n/a	"html-keyboard-response"	"24"	"103872"	"0.0-4.0-2.0-2.0-0.1"	"277bd4"	"600"	"1366"	"chrome"	"111.0.0"	"FALSE"	"Windows 10"	"60.17"	"054"	n/a	n/a	n/a	n/a	n/a	n/a	"fixation"	n/a	n/a	n/a	n/a	"NULL"	n/a	"NULL"	"NULL"	"NULL"	"<p style=\"color: black; font-size: 80px; padding-left: 39%; padding-right: 32%; padding-top: 48%; padding-bottom: 14%\">+</p>"	"1032"	n/a	n/a	n/a	n/a	n/a	n/a	n/a	n/a	n/a
n/a	"image-keyboard-response"	"25"	"104319"	"0.0-4.0-2.0-2.0-1.1"	"277bd4"	"600"	"1366"	"chrome"	"111.0.0"	"FALSE"	"Windows 10"	"60.17"	"054"	n/a	n/a	n/a	n/a	n/a	n/a	"Trial"	n/a	n/a	n/a	"446"	"arrowup"	n/a	"NULL"	"NULL"	"NULL"	"stimuli/MullerLyer_-230000_0.70000.png"	n/a	"MullerLyer"	"arrowup"	"1046"	"TRUE"	"MullerLyer"	"-23000000000"	"0.7000000000"	"1"	"8"
n/a	"html-keyboard-response"	"26"	"105732"	"0.0-4.0-2.0-2.0-0.2"	"277bd4"	"600"	"1366"	"chrome"	"111.0.0"	"FALSE"	"Windows 10"	"60.17"	"054"	n/a	n/a	n/a	n/a	n/a	n/a	"fixation"	n/a	n/a	n/a	n/a	"NULL"	n/a	"NULL"	"NULL"	"NULL"	"<p style=\"color: black; font-size: 80px; padding-left: 9%; padding-right: 32%; padding-top: 17%; padding-bottom: 26%\">+</p>"	"1405"	n/a	n/a	n/a	n/a	n/a	n/a	n/a	n/a	n/a
n/a	"image-keyboard-response"	"27"	"106265"	"0.0-4.0-2.0-2.0-1.2"	"277bd4"	"600"	"1366"	"chrome"	"111.0.0"	"FALSE"	"Windows 10"	"60.17"	"054"	n/a	n/a	n/a	n/a	n/a	n/a	"Trial"	n/a	n/a	n/a	"532"	"arrowup"	n/a	"NULL"	"NULL"	"NULL"	"stimuli/MullerLyer_0000000_0.70000.png"	n/a	"MullerLyer"	"arrowup"	"1413"	"TRUE"	"MullerLyer"	"000000000000"	"0.7000000000"	"1"	"9"
n/a	"html-keyboard-response"	"28"	"107476"	"0.0-4.0-2.0-2.0-0.3"	"277bd4"	"600"	"1366"	"chrome"	"111.0.0"	"FALSE"	"Windows 10"	"60.17"	"054"	n/a	n/a	n/a	n/a	n/a	n/a	"fixation"	n/a	n/a	n/a	n/a	"NULL"	n/a	"NULL"	"NULL"	"NULL"	"<p style=\"color: black; font-size: 80px; padding-left: 50%; padding-right: 37%; padding-top: 46%; padding-bottom: 23%\">+</p>"	"1197"	n/a	n/a	n/a	n/a	n/a	n/a	n/a	n/a	n/a
n/a	"image-keyboard-response"	"29"	"107913"	"0.0-4.0-2.0-2.0-1.3"	"277bd4"	"600"	"1366"	"chrome"	"111.0.0"	"FALSE"	"Windows 10"	"60.17"	"054"	n/a	n/a	n/a	n/a	n/a	n/a	"Trial"	n/a	n/a	n/a	"436"	"arrowdown"	n/a	"NULL"	"NULL"	"NULL"	"stimuli/MullerLyer_-230000_-0.7000.png"	n/a	"MullerLyer"	"arrowdown"	"1211"	"TRUE"	"MullerLyer"	"-23000000000"	"-0.700000000"	"1"	"10"
n/a	"html-keyboard-response"	"30"	"109275"	"0.0-4.0-2.0-2.0-0.4"	"277bd4"	"600"	"1366"	"chrome"	"111.0.0"	"FALSE"	"Windows 10"	"60.17"	"054"	n/a	n/a	n/a	n/a	n/a	n/a	"fixation"	n/a	n/a	n/a	n/a	"NULL"	n/a	"NULL"	"NULL"	"NULL"	"<p style=\"color: black; font-size: 80px; padding-left: 47%; padding-right: 17%; padding-top: 20%; padding-bottom: 23%\">+</p>"	"1348"	n/a	n/a	n/a	n/a	n/a	n/a	n/a	n/a	n/a
n/a	"image-keyboard-response"	"31"	"109761"	"0.0-4.0-2.0-2.0-1.4"	"277bd4"	"600"	"1366"	"chrome"	"111.0.0"	"FALSE"	"Windows 10"	"60.17"	"054"	n/a	n/a	n/a	n/a	n/a	n/a	"Trial"	n/a	n/a	n/a	"485"	"arrowup"	n/a	"NULL"	"NULL"	"NULL"	"stimuli/MullerLyer_2300000_0.70000.png"	n/a	"MullerLyer"	"arrowup"	"1362"	"TRUE"	"MullerLyer"	"230000000000"	"0.7000000000"	"1"	"11"
n/a	"html-keyboard-response"	"32"	"110854"	"0.0-4.0-2.0-2.0-0.5"	"277bd4"	"600"	"1366"	"chrome"	"111.0.0"	"FALSE"	"Windows 10"	"60.17"	"054"	n/a	n/a	n/a	n/a	n/a	n/a	"fixation"	n/a	n/a	n/a	n/a	"NULL"	n/a	"NULL"	"NULL"	"NULL"	"<p style=\"color: black; font-size: 80px; padding-left: 29%; padding-right: 47%; padding-top: 19%; padding-bottom: 15%\">+</p>"	"1088"	n/a	n/a	n/a	n/a	n/a	n/a	n/a	n/a	n/a
n/a	"image-keyboard-response"	"33"	"111297"	"0.0-4.0-2.0-2.0-1.5"	"277bd4"	"600"	"1366"	"chrome"	"111.0.0"	"FALSE"	"Windows 10"	"60.17"	"054"	n/a	n/a	n/a	n/a	n/a	n/a	"Trial"	n/a	n/a	n/a	"442"	"arrowdown"	n/a	"NULL"	"NULL"	"NULL"	"stimuli/MullerLyer_0000000_-0.7000.png"	n/a	"MullerLyer"	"arrowdown"	"1093"	"TRUE"	"MullerLyer"	"000000000000"	"-0.700000000"	"1"	"12"
n/a	"html-button-response"	"34"	"115555"	"0.0-4.0-2.0-3.0"	"277bd4"	"600"	"1366"	"chrome"	"111.0.0"	"FALSE"	"Windows 10"	"60.17"	"054"	n/a	n/a	n/a	n/a	n/a	n/a	"practice_block_results"	n/a	n/a	n/a	"4257"	"0"	n/a	"NULL"	"NULL"	"NULL"	"<p style='color:rgb(76,175,80);'> Correct Responses: <b>100.00%</b></p><hr><p style='color:rgb(233,30,99);'> Average Response Time: <b>481.17</b> ms.</p>"	n/a	n/a	n/a	n/a	n/a	n/a	n/a	n/a	n/a	n/a
"TRUE"	"preload"	"35"	"116381"	"0.0-4.0-3.0-0.0"	"277bd4"	"600"	"1366"	"chrome"	"111.0.0"	"FALSE"	"Windows 10"	"60.17"	"054"	n/a	n/a	n/a	n/a	n/a	n/a	n/a	n/a	n/a	n/a	n/a	"NULL"	"FALSE"	"list()"	"list()"	"list()"	n/a	n/a	n/a	n/a	n/a	n/a	n/a	n/a	n/a	n/a	n/a
n/a	"html-keyboard-response"	"36"	"122585"	"0.0-4.0-3.0-1.0"	"277bd4"	"600"	"1366"	"chrome"	"111.0.0"	"FALSE"	"Windows 10"	"60.17"	"054"	n/a	n/a	n/a	n/a	n/a	n/a	n/a	n/a	n/a	n/a	"6203"	"enter"	n/a	"NULL"	"NULL"	"NULL"	"<p><b>Practice</b></p><p>In this part, two red lines will appear side by side.</p><p>Your task is to tell <b>which line is longer</b> in length, regardless of their orientation, as fast as you can, and without making errors.</p><p>Don't get distracted by the orientation of the lines!</p><p>Press <b>the LEFT or the RIGHT arrow</b> to indicate which <b>line is the longer one.</b></p><div style='float: center'><img src='materials/instructions/VerticalHorizontal_Demo.png' height='300'></img><p><img src='utils/answer/answer_leftright_keyboard.PNG' height='150'></img></p><p class='small'>In this example, the correct answer is the <b>LEFT arrow</b>.</p></div><p>Are you ready? <b>Press ENTER to start</b></p>"	n/a	n/a	n/a	n/a	n/a	n/a	n/a	n/a	n/a	n/a
n/a	"html-keyboard-response"	"37"	"124380"	"0.0-4.0-3.0-2.0-0.0"	"277bd4"	"600"	"1366"	"chrome"	"111.0.0"	"FALSE"	"Windows 10"	"60.17"	"054"	n/a	n/a	n/a	n/a	n/a	n/a	"fixation"	n/a	n/a	n/a	n/a	"NULL"	n/a	"NULL"	"NULL"	"NULL"	"<p style=\"color: black; font-size: 80px; padding-left: 13%; padding-right: 46%; padding-top: 11%; padding-bottom: 28%\">+</p>"	"1282"	n/a	n/a	n/a	n/a	n/a	n/a	n/a	n/a	n/a
n/a	"image-keyboard-response"	"38"	"124740"	"0.0-4.0-3.0-2.0-1.0"	"277bd4"	"600"	"1366"	"chrome"	"111.0.0"	"FALSE"	"Windows 10"	"60.17"	"054"	n/a	n/a	n/a	n/a	n/a	n/a	"Trial"	n/a	n/a	n/a	"359"	"arrowright"	n/a	"NULL"	"NULL"	"NULL"	"stimuli/VerticalHorizontal_0000000_-0.9000.png"	n/a	"VerticalHorizontal"	"arrowright"	"1795"	"TRUE"	"VerticalHorizontal"	"000000000000"	"-0.900000000"	"1"	"13"
n/a	"html-keyboard-response"	"39"	"125906"	"0.0-4.0-3.0-2.0-0.1"	"277bd4"	"600"	"1366"	"chrome"	"111.0.0"	"FALSE"	"Windows 10"	"60.17"	"054"	n/a	n/a	n/a	n/a	n/a	n/a	"fixation"	n/a	n/a	n/a	n/a	"NULL"	n/a	"NULL"	"NULL"	"NULL"	"<p style=\"color: black; font-size: 80px; padding-left: 3%; padding-right: 47%; padding-top: 19%; padding-bottom: 13%\">+</p>"	"1153"	n/a	n/a	n/a	n/a	n/a	n/a	n/a	n/a	n/a
n/a	"image-keyboard-response"	"40"	"126278"	"0.0-4.0-3.0-2.0-1.1"	"277bd4"	"600"	"1366"	"chrome"	"111.0.0"	"FALSE"	"Windows 10"	"60.17"	"054"	n/a	n/a	n/a	n/a	n/a	n/a	"Trial"	n/a	n/a	n/a	"371"	"arrowleft"	n/a	"NULL"	"NULL"	"NULL"	"stimuli/VerticalHorizontal_-330000_0.90000.png"	n/a	"VerticalHorizontal"	"arrowleft"	"1166"	"TRUE"	"VerticalHorizontal"	"-33000000000"	"0.9000000000"	"1"	"14"
n/a	"html-keyboard-response"	"41"	"127545"	"0.0-4.0-3.0-2.0-0.2"	"277bd4"	"600"	"1366"	"chrome"	"111.0.0"	"FALSE"	"Windows 10"	"60.17"	"054"	n/a	n/a	n/a	n/a	n/a	n/a	"fixation"	n/a	n/a	n/a	n/a	"NULL"	n/a	"NULL"	"NULL"	"NULL"	"<p style=\"color: black; font-size: 80px; padding-left: 15%; padding-right: 2%; padding-top: 28%; padding-bottom: 4%\">+</p>"	"1258"	n/a	n/a	n/a	n/a	n/a	n/a	n/a	n/a	n/a
n/a	"image-keyboard-response"	"42"	"127940"	"0.0-4.0-3.0-2.0-1.2"	"277bd4"	"600"	"1366"	"chrome"	"111.0.0"	"FALSE"	"Windows 10"	"60.17"	"054"	n/a	n/a	n/a	n/a	n/a	n/a	"Trial"	n/a	n/a	n/a	"393"	"arrowleft"	n/a	"NULL"	"NULL"	"NULL"	"stimuli/VerticalHorizontal_3300000_0.90000.png"	n/a	"VerticalHorizontal"	"arrowleft"	"1267"	"TRUE"	"VerticalHorizontal"	"330000000000"	"0.9000000000"	"1"	"15"
n/a	"html-keyboard-response"	"43"	"129356"	"0.0-4.0-3.0-2.0-0.3"	"277bd4"	"600"	"1366"	"chrome"	"111.0.0"	"FALSE"	"Windows 10"	"60.17"	"054"	n/a	n/a	n/a	n/a	n/a	n/a	"fixation"	n/a	n/a	n/a	n/a	"NULL"	n/a	"NULL"	"NULL"	"NULL"	"<p style=\"color: black; font-size: 80px; padding-left: 34%; padding-right: 47%; padding-top: 33%; padding-bottom: 11%\">+</p>"	"1403"	n/a	n/a	n/a	n/a	n/a	n/a	n/a	n/a	n/a
n/a	"image-keyboard-response"	"44"	"129798"	"0.0-4.0-3.0-2.0-1.3"	"277bd4"	"600"	"1366"	"chrome"	"111.0.0"	"FALSE"	"Windows 10"	"60.17"	"054"	n/a	n/a	n/a	n/a	n/a	n/a	"Trial"	n/a	n/a	n/a	"441"	"arrowright"	n/a	"NULL"	"NULL"	"NULL"	"stimuli/VerticalHorizontal_-330000_-0.9000.png"	n/a	"VerticalHorizontal"	"arrowright"	"1416"	"TRUE"	"VerticalHorizontal"	"-33000000000"	"-0.900000000"	"1"	"16"
n/a	"html-keyboard-response"	"45"	"131231"	"0.0-4.0-3.0-2.0-0.4"	"277bd4"	"600"	"1366"	"chrome"	"111.0.0"	"FALSE"	"Windows 10"	"60.17"	"054"	n/a	n/a	n/a	n/a	n/a	n/a	"fixation"	n/a	n/a	n/a	n/a	"NULL"	n/a	"NULL"	"NULL"	"NULL"	"<p style=\"color: black; font-size: 80px; padding-left: 39%; padding-right: 18%; padding-top: 18%; padding-bottom: 10%\">+</p>"	"1418"	n/a	n/a	n/a	n/a	n/a	n/a	n/a	n/a	n/a
n/a	"image-keyboard-response"	"46"	"131694"	"0.0-4.0-3.0-2.0-1.4"	"277bd4"	"600"	"1366"	"chrome"	"111.0.0"	"FALSE"	"Windows 10"	"60.17"	"054"	n/a	n/a	n/a	n/a	n/a	n/a	"Trial"	n/a	n/a	n/a	"462"	"arrowright"	n/a	"NULL"	"NULL"	"NULL"	"stimuli/VerticalHorizontal_3300000_-0.9000.png"	n/a	"VerticalHorizontal"	"arrowright"	"1433"	"TRUE"	"VerticalHorizontal"	"330000000000"	"-0.900000000"	"1"	"17"
n/a	"html-keyboard-response"	"47"	"132777"	"0.0-4.0-3.0-2.0-0.5"	"277bd4"	"600"	"1366"	"chrome"	"111.0.0"	"FALSE"	"Windows 10"	"60.17"	"054"	n/a	n/a	n/a	n/a	n/a	n/a	"fixation"	n/a	n/a	n/a	n/a	"NULL"	n/a	"NULL"	"NULL"	"NULL"	"<p style=\"color: black; font-size: 80px; padding-left: 11%; padding-right: 46%; padding-top: 5%; padding-bottom: 5%\">+</p>"	"1082"	n/a	n/a	n/a	n/a	n/a	n/a	n/a	n/a	n/a
n/a	"image-keyboard-response"	"48"	"133149"	"0.0-4.0-3.0-2.0-1.5"	"277bd4"	"600"	"1366"	"chrome"	"111.0.0"	"FALSE"	"Windows 10"	"60.17"	"054"	n/a	n/a	n/a	n/a	n/a	n/a	"Trial"	n/a	n/a	n/a	"372"	"arrowleft"	n/a	"NULL"	"NULL"	"NULL"	"stimuli/VerticalHorizontal_0000000_0.90000.png"	n/a	"VerticalHorizontal"	"arrowleft"	"1083"	"TRUE"	"VerticalHorizontal"	"000000000000"	"0.9000000000"	"1"	"18"
n/a	"html-button-response"	"49"	"135447"	"0.0-4.0-3.0-3.0"	"277bd4"	"600"	"1366"	"chrome"	"111.0.0"	"FALSE"	"Windows 10"	"60.17"	"054"	n/a	n/a	n/a	n/a	n/a	n/a	"practice_block_results"	n/a	n/a	n/a	"2296"	"0"	n/a	"NULL"	"NULL"	"NULL"	"<p style='color:rgb(76,175,80);'> Correct Responses: <b>100.00%</b></p><hr><p style='color:rgb(233,30,99);'> Average Response Time: <b>399.67</b> ms.</p>"	n/a	n/a	n/a	n/a	n/a	n/a	n/a	n/a	n/a	n/a
n/a	"html-button-response"	"50"	"256004"	"0.0-4.0-4.0"	"277bd4"	"600"	"1366"	"chrome"	"111.0.0"	"FALSE"	"Windows 10"	"60.17"	"054"	n/a	n/a	n/a	n/a	n/a	n/a	"practice_debrief"	n/a	n/a	n/a	"120051"	"0"	n/a	"NULL"	"NULL"	"NULL"	"<p><b>TRAINING COMPLETED</b></p><p>In the next phase, there will be more trials, and some might be harder too.<br> Moreover, after each illusion block, a <b>score</b> will be calculated based on speed (time you took to answer) and accuracy (number of errors).</p><p>Try to keep up a high score!</p><br><p>Note that it can be <i>really</i> challenging at times, so you will need to rely on your <b>intuition</b> and gut feeling to answer as fast as you can without making errors.</p><p>Each illusion block will be repeated two times (so that you have the opportunity to improve your score), but the order of the blocks is random.</p><p>Remember, your goal is to be as <b>fast</b> and <b>accurate</b> as possible. Good luck!</p><br>"	n/a	n/a	n/a	n/a	n/a	n/a	n/a	n/a	n/a	n/a
"TRUE"	"preload"	"51"	"256181"	"0.0-5.0-0.0"	"277bd4"	"600"	"1366"	"chrome"	"111.0.0"	"FALSE"	"Windows 10"	"60.17"	"054"	n/a	n/a	n/a	n/a	n/a	n/a	n/a	n/a	n/a	n/a	n/a	"NULL"	"FALSE"	"list()"	"list()"	"list()"	n/a	n/a	n/a	n/a	n/a	n/a	n/a	n/a	n/a	n/a	n/a
n/a	"html-keyboard-response"	"52"	"261341"	"0.0-5.0-1.0"	"277bd4"	"600"	"1366"	"chrome"	"111.0.0"	"FALSE"	"Windows 10"	"60.17"	"054"	n/a	n/a	n/a	n/a	n/a	n/a	n/a	n/a	n/a	n/a	"5159"	"enter"	n/a	"NULL"	"NULL"	"NULL"	"<p><b>Part 1/6</b></p><p>In this part, two red lines will appear side by side.</p><p>Your task is to tell <b>which line is longer</b> in length, regardless of their orientation, as fast as you can, and without making errors.</p><p>Don't get distracted by the orientation of the lines!</p><p>Press <b>the LEFT or the RIGHT arrow</b> to indicate which <b>line is the longer one.</b></p><div style='float: center'><img src='materials/instructions/VerticalHorizontal_Demo.png' height='300'></img><p><img src='utils/answer/answer_leftright_keyboard.PNG' height='150'></img></p><p class='small'>In this example, the correct answer is the <b>LEFT arrow</b>.</p></div><p>Are you ready? <b>Press ENTER to start</b></p>"	n/a	n/a	n/a	n/a	n/a	n/a	n/a	n/a	n/a	n/a
n/a	"html-keyboard-response"	"53"	"262909"	"0.0-5.0-2.0-0.0"	"277bd4"	"600"	"1366"	"chrome"	"111.0.0"	"FALSE"	"Windows 10"	"60.17"	"054"	n/a	n/a	n/a	n/a	n/a	n/a	"fixation"	n/a	n/a	n/a	n/a	"NULL"	n/a	"NULL"	"NULL"	"NULL"	"<p style=\"color: black; font-size: 80px; padding-left: 37%; padding-right: 19%; padding-top: 27%; padding-bottom: 23%\">+</p>"	"1052"	n/a	n/a	n/a	n/a	n/a	n/a	n/a	n/a	n/a
n/a	"image-keyboard-response"	"54"	"263261"	"0.0-5.0-2.0-1.0"	"277bd4"	"600"	"1366"	"chrome"	"111.0.0"	"FALSE"	"Windows 10"	"60.17"	"054"	n/a	n/a	n/a	n/a	n/a	n/a	"Trial"	n/a	n/a	n/a	"351"	"arrowright"	n/a	"NULL"	"NULL"	"NULL"	"stimuli/VerticalHorizontal_20.27143_-0.0673.png"	n/a	"VerticalHorizontal"	"arrowright"	"1568"	"TRUE"	"VerticalHorizontal"	"20.271430000"	"-0.067300000"	"1"	"19"
n/a	"html-keyboard-response"	"55"	"264566"	"0.0-5.0-2.0-0.1"	"277bd4"	"600"	"1366"	"chrome"	"111.0.0"	"FALSE"	"Windows 10"	"60.17"	"054"	n/a	n/a	n/a	n/a	n/a	n/a	"fixation"	n/a	n/a	n/a	n/a	"NULL"	n/a	"NULL"	"NULL"	"NULL"	"<p style=\"color: black; font-size: 80px; padding-left: 22%; padding-right: 43%; padding-top: 28%; padding-bottom: 11%\">+</p>"	"1304"	n/a	n/a	n/a	n/a	n/a	n/a	n/a	n/a	n/a
n/a	"image-keyboard-response"	"56"	"265076"	"0.0-5.0-2.0-1.1"	"277bd4"	"600"	"1366"	"chrome"	"111.0.0"	"FALSE"	"Windows 10"	"60.17"	"054"	n/a	n/a	n/a	n/a	n/a	n/a	"Trial"	n/a	n/a	n/a	"509"	"arrowright"	n/a	"NULL"	"NULL"	"NULL"	"stimuli/VerticalHorizontal_20.27143_0.06730.png"	n/a	"VerticalHorizontal"	"arrowleft"	"1305"	"FALSE"	"VerticalHorizontal"	"20.271430000"	"0.0673000000"	"1"	"20"
n/a	"html-keyboard-response"	"57"	"266481"	"0.0-5.0-2.0-0.2"	"277bd4"	"600"	"1366"	"chrome"	"111.0.0"	"FALSE"	"Windows 10"	"60.17"	"054"	n/a	n/a	n/a	n/a	n/a	n/a	"fixation"	n/a	n/a	n/a	n/a	"NULL"	n/a	"NULL"	"NULL"	"NULL"	"<p style=\"color: black; font-size: 80px; padding-left: 3%; padding-right: 13%; padding-top: 17%; padding-bottom: 41%\">+</p>"	"1397"	n/a	n/a	n/a	n/a	n/a	n/a	n/a	n/a	n/a
n/a	"image-keyboard-response"	"58"	"266904"	"0.0-5.0-2.0-1.2"	"277bd4"	"600"	"1366"	"chrome"	"111.0.0"	"FALSE"	"Windows 10"	"60.17"	"054"	n/a	n/a	n/a	n/a	n/a	n/a	"Trial"	n/a	n/a	n/a	"422"	"arrowright"	n/a	"NULL"	"NULL"	"NULL"	"stimuli/VerticalHorizontal_28.75714_0.06730.png"	n/a	"VerticalHorizontal"	"arrowleft"	"1405"	"FALSE"	"VerticalHorizontal"	"28.757140000"	"0.0673000000"	"1"	"21"
n/a	"html-keyboard-response"	"59"	"268059"	"0.0-5.0-2.0-0.3"	"277bd4"	"600"	"1366"	"chrome"	"111.0.0"	"FALSE"	"Windows 10"	"60.17"	"054"	n/a	n/a	n/a	n/a	n/a	n/a	"fixation"	n/a	n/a	n/a	n/a	"NULL"	n/a	"NULL"	"NULL"	"NULL"	"<p style=\"color: black; font-size: 80px; padding-left: 35%; padding-right: 39%; padding-top: 35%; padding-bottom: 18%\">+</p>"	"1143"	n/a	n/a	n/a	n/a	n/a	n/a	n/a	n/a	n/a
n/a	"image-keyboard-response"	"60"	"268489"	"0.0-5.0-2.0-1.3"	"277bd4"	"600"	"1366"	"chrome"	"111.0.0"	"FALSE"	"Windows 10"	"60.17"	"054"	n/a	n/a	n/a	n/a	n/a	n/a	"Trial"	n/a	n/a	n/a	"429"	"arrowright"	n/a	"NULL"	"NULL"	"NULL"	"stimuli/VerticalHorizontal_-28.75714_-0.1096.png"	n/a	"VerticalHorizontal"	"arrowright"	"1155"	"TRUE"	"VerticalHorizontal"	"-28.75714000"	"-0.109600000"	"1"	"22"
n/a	"html-keyboard-response"	"61"	"269689"	"0.0-5.0-2.0-0.4"	"277bd4"	"600"	"1366"	"chrome"	"111.0.0"	"FALSE"	"Windows 10"	"60.17"	"054"	n/a	n/a	n/a	n/a	n/a	n/a	"fixation"	n/a	n/a	n/a	n/a	"NULL"	n/a	"NULL"	"NULL"	"NULL"	"<p style=\"color: black; font-size: 80px; padding-left: 10%; padding-right: 37%; padding-top: 6%; padding-bottom: 36%\">+</p>"	"1187"	n/a	n/a	n/a	n/a	n/a	n/a	n/a	n/a	n/a
n/a	"image-keyboard-response"	"62"	"270090"	"0.0-5.0-2.0-1.4"	"277bd4"	"600"	"1366"	"chrome"	"111.0.0"	"FALSE"	"Windows 10"	"60.17"	"054"	n/a	n/a	n/a	n/a	n/a	n/a	"Trial"	n/a	n/a	n/a	"399"	"arrowleft"	n/a	"NULL"	"NULL"	"NULL"	"stimuli/VerticalHorizontal_-11.78571_0.06730.png"	n/a	"VerticalHorizontal"	"arrowleft"	"1200"	"TRUE"	"VerticalHorizontal"	"-11.78571000"	"0.0673000000"	"1"	"23"
n/a	"html-keyboard-response"	"63"	"271139"	"0.0-5.0-2.0-0.5"	"277bd4"	"600"	"1366"	"chrome"	"111.0.0"	"FALSE"	"Windows 10"	"60.17"	"054"	n/a	n/a	n/a	n/a	n/a	n/a	"fixation"	n/a	n/a	n/a	n/a	"NULL"	n/a	"NULL"	"NULL"	"NULL"	"<p style=\"color: black; font-size: 80px; padding-left: 37%; padding-right: 37%; padding-top: 44%; padding-bottom: 27%\">+</p>"	"1045"	n/a	n/a	n/a	n/a	n/a	n/a	n/a	n/a	n/a
n/a	"image-keyboard-response"	"64"	"271680"	"0.0-5.0-2.0-1.5"	"277bd4"	"600"	"1366"	"chrome"	"111.0.0"	"FALSE"	"Windows 10"	"60.17"	"054"	n/a	n/a	n/a	n/a	n/a	n/a	"Trial"	n/a	n/a	n/a	"541"	"arrowleft"	n/a	"NULL"	"NULL"	"NULL"	"stimuli/VerticalHorizontal_20.27143_0.10960.png"	n/a	"VerticalHorizontal"	"arrowleft"	"1049"	"TRUE"	"VerticalHorizontal"	"20.271430000"	"0.1096000000"	"1"	"24"
n/a	"html-keyboard-response"	"65"	"272919"	"0.0-5.0-2.0-0.6"	"277bd4"	"600"	"1366"	"chrome"	"111.0.0"	"FALSE"	"Windows 10"	"60.17"	"054"	n/a	n/a	n/a	n/a	n/a	n/a	"fixation"	n/a	n/a	n/a	n/a	"NULL"	n/a	"NULL"	"NULL"	"NULL"	"<p style=\"color: black; font-size: 80px; padding-left: 28%; padding-right: 39%; padding-top: 14%; padding-bottom: 42%\">+</p>"	"1232"	n/a	n/a	n/a	n/a	n/a	n/a	n/a	n/a	n/a
n/a	"image-keyboard-response"	"66"	"273356"	"0.0-5.0-2.0-1.6"	"277bd4"	"600"	"1366"	"chrome"	"111.0.0"	"FALSE"	"Windows 10"	"60.17"	"054"	n/a	n/a	n/a	n/a	n/a	n/a	"Trial"	n/a	n/a	n/a	"436"	"arrowright"	n/a	"NULL"	"NULL"	"NULL"	"stimuli/VerticalHorizontal_-20.27143_-0.2250.png"	n/a	"VerticalHorizontal"	"arrowright"	"1239"	"TRUE"	"VerticalHorizontal"	"-20.27143000"	"-0.225000000"	"1"	"25"
n/a	"html-keyboard-response"	"67"	"274575"	"0.0-5.0-2.0-0.7"	"277bd4"	"600"	"1366"	"chrome"	"111.0.0"	"FALSE"	"Windows 10"	"60.17"	"054"	n/a	n/a	n/a	n/a	n/a	n/a	"fixation"	n/a	n/a	n/a	n/a	"NULL"	n/a	"NULL"	"NULL"	"NULL"	"<p style=\"color: black; font-size: 80px; padding-left: 34%; padding-right: 42%; padding-top: 13%; padding-bottom: 22%\">+</p>"	"1215"	n/a	n/a	n/a	n/a	n/a	n/a	n/a	n/a	n/a
n/a	"image-keyboard-response"	"68"	"275009"	"0.0-5.0-2.0-1.7"	"277bd4"	"600"	"1366"	"chrome"	"111.0.0"	"FALSE"	"Windows 10"	"60.17"	"054"	n/a	n/a	n/a	n/a	n/a	n/a	"Trial"	n/a	n/a	n/a	"433"	"arrowleft"	n/a	"NULL"	"NULL"	"NULL"	"stimuli/VerticalHorizontal_3.30000_0.16217.png"	n/a	"VerticalHorizontal"	"arrowleft"	"1219"	"TRUE"	"VerticalHorizontal"	"3.3000000000"	"0.1621700000"	"1"	"26"
n/a	"html-keyboard-response"	"69"	"276141"	"0.0-5.0-2.0-0.8"	"277bd4"	"600"	"1366"	"chrome"	"111.0.0"	"FALSE"	"Windows 10"	"60.17"	"054"	n/a	n/a	n/a	n/a	n/a	n/a	"fixation"	n/a	n/a	n/a	n/a	"NULL"	n/a	"NULL"	"NULL"	"NULL"	"<p style=\"color: black; font-size: 80px; padding-left: 29%; padding-right: 49%; padding-top: 22%; padding-bottom: 44%\">+</p>"	"1118"	n/a	n/a	n/a	n/a	n/a	n/a	n/a	n/a	n/a
n/a	"image-keyboard-response"	"70"	"276552"	"0.0-5.0-2.0-1.8"	"277bd4"	"600"	"1366"	"chrome"	"111.0.0"	"FALSE"	"Windows 10"	"60.17"	"054"	n/a	n/a	n/a	n/a	n/a	n/a	"Trial"	n/a	n/a	n/a	"410"	"arrowleft"	n/a	"NULL"	"NULL"	"NULL"	"stimuli/VerticalHorizontal_-11.78571_0.22500.png"	n/a	"VerticalHorizontal"	"arrowleft"	"1132"	"TRUE"	"VerticalHorizontal"	"-11.78571000"	"0.2250000000"	"1"	"27"
n/a	"html-keyboard-response"	"71"	"277778"	"0.0-5.0-2.0-0.9"	"277bd4"	"600"	"1366"	"chrome"	"111.0.0"	"FALSE"	"Windows 10"	"60.17"	"054"	n/a	n/a	n/a	n/a	n/a	n/a	"fixation"	n/a	n/a	n/a	n/a	"NULL"	n/a	"NULL"	"NULL"	"NULL"	"<p style=\"color: black; font-size: 80px; padding-left: 40%; padding-right: 36%; padding-top: 27%; padding-bottom: 47%\">+</p>"	"1211"	n/a	n/a	n/a	n/a	n/a	n/a	n/a	n/a	n/a
n/a	"image-keyboard-response"	"72"	"278213"	"0.0-5.0-2.0-1.9"	"277bd4"	"600"	"1366"	"chrome"	"111.0.0"	"FALSE"	"Windows 10"	"60.17"	"054"	n/a	n/a	n/a	n/a	n/a	n/a	"Trial"	n/a	n/a	n/a	"434"	"arrowleft"	n/a	"NULL"	"NULL"	"NULL"	"stimuli/VerticalHorizontal_-3.3000_0.10960.png"	n/a	"VerticalHorizontal"	"arrowleft"	"1226"	"TRUE"	"VerticalHorizontal"	"-3.300000000"	"0.1096000000"	"1"	"28"
n/a	"html-keyboard-response"	"73"	"279507"	"0.0-5.0-2.0-0.10"	"277bd4"	"600"	"1366"	"chrome"	"111.0.0"	"FALSE"	"Windows 10"	"60.17"	"054"	n/a	n/a	n/a	n/a	n/a	n/a	"fixation"	n/a	n/a	n/a	n/a	"NULL"	n/a	"NULL"	"NULL"	"NULL"	"<p style=\"color: black; font-size: 80px; padding-left: 21%; padding-right: 5%; padding-top: 5%; padding-bottom: 18%\">+</p>"	"1284"	n/a	n/a	n/a	n/a	n/a	n/a	n/a	n/a	n/a
n/a	"image-keyboard-response"	"74"	"279981"	"0.0-5.0-2.0-1.10"	"277bd4"	"600"	"1366"	"chrome"	"111.0.0"	"FALSE"	"Windows 10"	"60.17"	"054"	n/a	n/a	n/a	n/a	n/a	n/a	"Trial"	n/a	n/a	n/a	"473"	"arrowright"	n/a	"NULL"	"NULL"	"NULL"	"stimuli/VerticalHorizontal_20.27143_-0.16217.png"	n/a	"VerticalHorizontal"	"arrowright"	"1294"	"TRUE"	"VerticalHorizontal"	"20.271430000"	"-0.162170000"	"1"	"29"
n/a	"html-keyboard-response"	"75"	"281407"	"0.0-5.0-2.0-0.11"	"277bd4"	"600"	"1366"	"chrome"	"111.0.0"	"FALSE"	"Windows 10"	"60.17"	"054"	n/a	n/a	n/a	n/a	n/a	n/a	"fixation"	n/a	n/a	n/a	n/a	"NULL"	n/a	"NULL"	"NULL"	"NULL"	"<p style=\"color: black; font-size: 80px; padding-left: 6%; padding-right: 23%; padding-top: 19%; padding-bottom: 25%\">+</p>"	"1420"	n/a	n/a	n/a	n/a	n/a	n/a	n/a	n/a	n/a
n/a	"image-keyboard-response"	"76"	"281768"	"0.0-5.0-2.0-1.11"	"277bd4"	"600"	"1366"	"chrome"	"111.0.0"	"FALSE"	"Windows 10"	"60.17"	"054"	n/a	n/a	n/a	n/a	n/a	n/a	"Trial"	n/a	n/a	n/a	"360"	"arrowright"	n/a	"NULL"	"NULL"	"NULL"	"stimuli/VerticalHorizontal_-20.27143_-0.16217.png"	n/a	"VerticalHorizontal"	"arrowright"	"1426"	"TRUE"	"VerticalHorizontal"	"-20.27143000"	"-0.162170000"	"1"	"30"
n/a	"html-keyboard-response"	"77"	"283169"	"0.0-5.0-2.0-0.12"	"277bd4"	"600"	"1366"	"chrome"	"111.0.0"	"FALSE"	"Windows 10"	"60.17"	"054"	n/a	n/a	n/a	n/a	n/a	n/a	"fixation"	n/a	n/a	n/a	n/a	"NULL"	n/a	"NULL"	"NULL"	"NULL"	"<p style=\"color: black; font-size: 80px; padding-left: 35%; padding-right: 3%; padding-top: 2%; padding-bottom: 21%\">+</p>"	"1389"	n/a	n/a	n/a	n/a	n/a	n/a	n/a	n/a	n/a
n/a	"image-keyboard-response"	"78"	"283569"	"0.0-5.0-2.0-1.12"	"277bd4"	"600"	"1366"	"chrome"	"111.0.0"	"FALSE"	"Windows 10"	"60.17"	"054"	n/a	n/a	n/a	n/a	n/a	n/a	"Trial"	n/a	n/a	n/a	"398"	"arrowleft"	n/a	"NULL"	"NULL"	"NULL"	"stimuli/VerticalHorizontal_-20.27143_0.22500.png"	n/a	"VerticalHorizontal"	"arrowleft"	"1401"	"TRUE"	"VerticalHorizontal"	"-20.27143000"	"0.2250000000"	"1"	"31"
n/a	"html-keyboard-response"	"79"	"284951"	"0.0-5.0-2.0-0.13"	"277bd4"	"600"	"1366"	"chrome"	"111.0.0"	"FALSE"	"Windows 10"	"60.17"	"054"	n/a	n/a	n/a	n/a	n/a	n/a	"fixation"	n/a	n/a	n/a	n/a	"NULL"	n/a	"NULL"	"NULL"	"NULL"	"<p style=\"color: black; font-size: 80px; padding-left: 27%; padding-right: 4%; padding-top: 0%; padding-bottom: 47%\">+</p>"	"1380"	n/a	n/a	n/a	n/a	n/a	n/a	n/a	n/a	n/a
n/a	"image-keyboard-response"	"80"	"285420"	"0.0-5.0-2.0-1.13"	"277bd4"	"600"	"1366"	"chrome"	"111.0.0"	"FALSE"	"Windows 10"	"60.17"	"054"	n/a	n/a	n/a	n/a	n/a	n/a	"Trial"	n/a	n/a	n/a	"468"	"arrowright"	n/a	"NULL"	"NULL"	"NULL"	"stimuli/VerticalHorizontal_20.27143_-0.1096.png"	n/a	"VerticalHorizontal"	"arrowright"	"1382"	"TRUE"	"VerticalHorizontal"	"20.271430000"	"-0.109600000"	"1"	"32"
n/a	"html-keyboard-response"	"81"	"286890"	"0.0-5.0-2.0-0.14"	"277bd4"	"600"	"1366"	"chrome"	"111.0.0"	"FALSE"	"Windows 10"	"60.17"	"054"	n/a	n/a	n/a	n/a	n/a	n/a	"fixation"	n/a	n/a	n/a	n/a	"NULL"	n/a	"NULL"	"NULL"	"NULL"	"<p style=\"color: black; font-size: 80px; padding-left: 40%; padding-right: 24%; padding-top: 24%; padding-bottom: 8%\">+</p>"	"1464"	n/a	n/a	n/a	n/a	n/a	n/a	n/a	n/a	n/a
n/a	"image-keyboard-response"	"82"	"287430"	"0.0-5.0-2.0-1.14"	"277bd4"	"600"	"1366"	"chrome"	"111.0.0"	"FALSE"	"Windows 10"	"60.17"	"054"	n/a	n/a	n/a	n/a	n/a	n/a	"Trial"	n/a	n/a	n/a	"539"	"arrowright"	n/a	"NULL"	"NULL"	"NULL"	"stimuli/VerticalHorizontal_11.78571_0.06730.png"	n/a	"VerticalHorizontal"	"arrowleft"	"1470"	"FALSE"	"VerticalHorizontal"	"11.785710000"	"0.0673000000"	"1"	"33"
n/a	"html-keyboard-response"	"83"	"288637"	"0.0-5.0-2.0-0.15"	"277bd4"	"600"	"1366"	"chrome"	"111.0.0"	"FALSE"	"Windows 10"	"60.17"	"054"	n/a	n/a	n/a	n/a	n/a	n/a	"fixation"	n/a	n/a	n/a	n/a	"NULL"	n/a	"NULL"	"NULL"	"NULL"	"<p style=\"color: black; font-size: 80px; padding-left: 20%; padding-right: 22%; padding-top: 29%; padding-bottom: 31%\">+</p>"	"1206"	n/a	n/a	n/a	n/a	n/a	n/a	n/a	n/a	n/a
n/a	"image-keyboard-response"	"84"	"289109"	"0.0-5.0-2.0-1.15"	"277bd4"	"600"	"1366"	"chrome"	"111.0.0"	"FALSE"	"Windows 10"	"60.17"	"054"	n/a	n/a	n/a	n/a	n/a	n/a	"Trial"	n/a	n/a	n/a	"471"	"arrowright"	n/a	"NULL"	"NULL"	"NULL"	"stimuli/VerticalHorizontal_11.78571_-0.0673.png"	n/a	"VerticalHorizontal"	"arrowright"	"1207"	"TRUE"	"VerticalHorizontal"	"11.785710000"	"-0.067300000"	"1"	"34"
n/a	"html-keyboard-response"	"85"	"290281"	"0.0-5.0-2.0-0.16"	"277bd4"	"600"	"1366"	"chrome"	"111.0.0"	"FALSE"	"Windows 10"	"60.17"	"054"	n/a	n/a	n/a	n/a	n/a	n/a	"fixation"	n/a	n/a	n/a	n/a	"NULL"	n/a	"NULL"	"NULL"	"NULL"	"<p style=\"color: black; font-size: 80px; padding-left: 30%; padding-right: 23%; padding-top: 8%; padding-bottom: 35%\">+</p>"	"1159"	n/a	n/a	n/a	n/a	n/a	n/a	n/a	n/a	n/a
n/a	"image-keyboard-response"	"86"	"290876"	"0.0-5.0-2.0-1.16"	"277bd4"	"600"	"1366"	"chrome"	"111.0.0"	"FALSE"	"Windows 10"	"60.17"	"054"	n/a	n/a	n/a	n/a	n/a	n/a	"Trial"	n/a	n/a	n/a	"594"	"arrowleft"	n/a	"NULL"	"NULL"	"NULL"	"stimuli/VerticalHorizontal_28.75714_0.22500.png"	n/a	"VerticalHorizontal"	"arrowleft"	"1172"	"TRUE"	"VerticalHorizontal"	"28.757140000"	"0.2250000000"	"1"	"35"
n/a	"html-keyboard-response"	"87"	"291901"	"0.0-5.0-2.0-0.17"	"277bd4"	"600"	"1366"	"chrome"	"111.0.0"	"FALSE"	"Windows 10"	"60.17"	"054"	n/a	n/a	n/a	n/a	n/a	n/a	"fixation"	n/a	n/a	n/a	n/a	"NULL"	n/a	"NULL"	"NULL"	"NULL"	"<p style=\"color: black; font-size: 80px; padding-left: 37%; padding-right: 8%; padding-top: 18%; padding-bottom: 44%\">+</p>"	"1011"	n/a	n/a	n/a	n/a	n/a	n/a	n/a	n/a	n/a
n/a	"image-keyboard-response"	"88"	"292301"	"0.0-5.0-2.0-1.17"	"277bd4"	"600"	"1366"	"chrome"	"111.0.0"	"FALSE"	"Windows 10"	"60.17"	"054"	n/a	n/a	n/a	n/a	n/a	n/a	"Trial"	n/a	n/a	n/a	"399"	"arrowright"	n/a	"NULL"	"NULL"	"NULL"	"stimuli/VerticalHorizontal_-3.3000_-0.2250.png"	n/a	"VerticalHorizontal"	"arrowright"	"1025"	"TRUE"	"VerticalHorizontal"	"-3.300000000"	"-0.225000000"	"1"	"36"
n/a	"html-keyboard-response"	"89"	"293532"	"0.0-5.0-2.0-0.18"	"277bd4"	"600"	"1366"	"chrome"	"111.0.0"	"FALSE"	"Windows 10"	"60.17"	"054"	n/a	n/a	n/a	n/a	n/a	n/a	"fixation"	n/a	n/a	n/a	n/a	"NULL"	n/a	"NULL"	"NULL"	"NULL"	"<p style=\"color: black; font-size: 80px; padding-left: 24%; padding-right: 33%; padding-top: 38%; padding-bottom: 38%\">+</p>"	"1221"	n/a	n/a	n/a	n/a	n/a	n/a	n/a	n/a	n/a
n/a	"image-keyboard-response"	"90"	"293970"	"0.0-5.0-2.0-1.18"	"277bd4"	"600"	"1366"	"chrome"	"111.0.0"	"FALSE"	"Windows 10"	"60.17"	"054"	n/a	n/a	n/a	n/a	n/a	n/a	"Trial"	n/a	n/a	n/a	"437"	"arrowleft"	n/a	"NULL"	"NULL"	"NULL"	"stimuli/VerticalHorizontal_20.27143_0.22500.png"	n/a	"VerticalHorizontal"	"arrowleft"	"1231"	"TRUE"	"VerticalHorizontal"	"20.271430000"	"0.2250000000"	"1"	"37"
n/a	"html-keyboard-response"	"91"	"295060"	"0.0-5.0-2.0-0.19"	"277bd4"	"600"	"1366"	"chrome"	"111.0.0"	"FALSE"	"Windows 10"	"60.17"	"054"	n/a	n/a	n/a	n/a	n/a	n/a	"fixation"	n/a	n/a	n/a	n/a	"NULL"	n/a	"NULL"	"NULL"	"NULL"	"<p style=\"color: black; font-size: 80px; padding-left: 18%; padding-right: 6%; padding-top: 32%; padding-bottom: 42%\">+</p>"	"1075"	n/a	n/a	n/a	n/a	n/a	n/a	n/a	n/a	n/a
n/a	"image-keyboard-response"	"92"	"295656"	"0.0-5.0-2.0-1.19"	"277bd4"	"600"	"1366"	"chrome"	"111.0.0"	"FALSE"	"Windows 10"	"60.17"	"054"	n/a	n/a	n/a	n/a	n/a	n/a	"Trial"	n/a	n/a	n/a	"595"	"arrowleft"	n/a	"NULL"	"NULL"	"NULL"	"stimuli/VerticalHorizontal_-28.75714_0.22500.png"	n/a	"VerticalHorizontal"	"arrowleft"	"1090"	"TRUE"	"VerticalHorizontal"	"-28.75714000"	"0.2250000000"	"1"	"38"
n/a	"html-keyboard-response"	"93"	"297075"	"0.0-5.0-2.0-0.20"	"277bd4"	"600"	"1366"	"chrome"	"111.0.0"	"FALSE"	"Windows 10"	"60.17"	"054"	n/a	n/a	n/a	n/a	n/a	n/a	"fixation"	n/a	n/a	n/a	n/a	"NULL"	n/a	"NULL"	"NULL"	"NULL"	"<p style=\"color: black; font-size: 80px; padding-left: 45%; padding-right: 42%; padding-top: 48%; padding-bottom: 1%\">+</p>"	"1413"	n/a	n/a	n/a	n/a	n/a	n/a	n/a	n/a	n/a
n/a	"image-keyboard-response"	"94"	"297504"	"0.0-5.0-2.0-1.20"	"277bd4"	"600"	"1366"	"chrome"	"111.0.0"	"FALSE"	"Windows 10"	"60.17"	"054"	n/a	n/a	n/a	n/a	n/a	n/a	"Trial"	n/a	n/a	n/a	"428"	"arrowleft"	n/a	"NULL"	"NULL"	"NULL"	"stimuli/VerticalHorizontal_-11.78571_0.16217.png"	n/a	"VerticalHorizontal"	"arrowleft"	"1419"	"TRUE"	"VerticalHorizontal"	"-11.78571000"	"0.1621700000"	"1"	"39"
n/a	"html-keyboard-response"	"95"	"298675"	"0.0-5.0-2.0-0.21"	"277bd4"	"600"	"1366"	"chrome"	"111.0.0"	"FALSE"	"Windows 10"	"60.17"	"054"	n/a	n/a	n/a	n/a	n/a	n/a	"fixation"	n/a	n/a	n/a	n/a	"NULL"	n/a	"NULL"	"NULL"	"NULL"	"<p style=\"color: black; font-size: 80px; padding-left: 22%; padding-right: 2%; padding-top: 43%; padding-bottom: 8%\">+</p>"	"1159"	n/a	n/a	n/a	n/a	n/a	n/a	n/a	n/a	n/a
n/a	"image-keyboard-response"	"96"	"299112"	"0.0-5.0-2.0-1.21"	"277bd4"	"600"	"1366"	"chrome"	"111.0.0"	"FALSE"	"Windows 10"	"60.17"	"054"	n/a	n/a	n/a	n/a	n/a	n/a	"Trial"	n/a	n/a	n/a	"436"	"arrowright"	n/a	"NULL"	"NULL"	"NULL"	"stimuli/VerticalHorizontal_11.78571_-0.2250.png"	n/a	"VerticalHorizontal"	"arrowright"	"1171"	"TRUE"	"VerticalHorizontal"	"11.785710000"	"-0.225000000"	"1"	"40"
n/a	"html-keyboard-response"	"97"	"300218"	"0.0-5.0-2.0-0.22"	"277bd4"	"600"	"1366"	"chrome"	"111.0.0"	"FALSE"	"Windows 10"	"60.17"	"054"	n/a	n/a	n/a	n/a	n/a	n/a	"fixation"	n/a	n/a	n/a	n/a	"NULL"	n/a	"NULL"	"NULL"	"NULL"	"<p style=\"color: black; font-size: 80px; padding-left: 2%; padding-right: 37%; padding-top: 36%; padding-bottom: 8%\">+</p>"	"1102"	n/a	n/a	n/a	n/a	n/a	n/a	n/a	n/a	n/a
n/a	"image-keyboard-response"	"98"	"300594"	"0.0-5.0-2.0-1.22"	"277bd4"	"600"	"1366"	"chrome"	"111.0.0"	"FALSE"	"Windows 10"	"60.17"	"054"	n/a	n/a	n/a	n/a	n/a	n/a	"Trial"	n/a	n/a	n/a	"373"	"arrowright"	n/a	"NULL"	"NULL"	"NULL"	"stimuli/VerticalHorizontal_28.75714_-0.2250.png"	n/a	"VerticalHorizontal"	"arrowright"	"1106"	"TRUE"	"VerticalHorizontal"	"28.757140000"	"-0.225000000"	"1"	"41"
n/a	"html-keyboard-response"	"99"	"301981"	"0.0-5.0-2.0-0.23"	"277bd4"	"600"	"1366"	"chrome"	"111.0.0"	"FALSE"	"Windows 10"	"60.17"	"054"	n/a	n/a	n/a	n/a	n/a	n/a	"fixation"	n/a	n/a	n/a	n/a	"NULL"	n/a	"NULL"	"NULL"	"NULL"	"<p style=\"color: black; font-size: 80px; padding-left: 13%; padding-right: 33%; padding-top: 14%; padding-bottom: 18%\">+</p>"	"1371"	n/a	n/a	n/a	n/a	n/a	n/a	n/a	n/a	n/a
n/a	"image-keyboard-response"	"100"	"302416"	"0.0-5.0-2.0-1.23"	"277bd4"	"600"	"1366"	"chrome"	"111.0.0"	"FALSE"	"Windows 10"	"60.17"	"054"	n/a	n/a	n/a	n/a	n/a	n/a	"Trial"	n/a	n/a	n/a	"435"	"arrowright"	n/a	"NULL"	"NULL"	"NULL"	"stimuli/VerticalHorizontal_-3.3000_0.06730.png"	n/a	"VerticalHorizontal"	"arrowleft"	"1387"	"FALSE"	"VerticalHorizontal"	"-3.300000000"	"0.0673000000"	"1"	"42"
n/a	"html-keyboard-response"	"101"	"303886"	"0.0-5.0-2.0-0.24"	"277bd4"	"600"	"1366"	"chrome"	"111.0.0"	"FALSE"	"Windows 10"	"60.17"	"054"	n/a	n/a	n/a	n/a	n/a	n/a	"fixation"	n/a	n/a	n/a	n/a	"NULL"	n/a	"NULL"	"NULL"	"NULL"	"<p style=\"color: black; font-size: 80px; padding-left: 33%; padding-right: 1%; padding-top: 15%; padding-bottom: 36%\">+</p>"	"1464"	n/a	n/a	n/a	n/a	n/a	n/a	n/a	n/a	n/a
n/a	"image-keyboard-response"	"102"	"304378"	"0.0-5.0-2.0-1.24"	"277bd4"	"600"	"1366"	"chrome"	"111.0.0"	"FALSE"	"Windows 10"	"60.17"	"054"	n/a	n/a	n/a	n/a	n/a	n/a	"Trial"	n/a	n/a	n/a	"492"	"arrowleft"	n/a	"NULL"	"NULL"	"NULL"	"stimuli/VerticalHorizontal_11.78571_0.10960.png"	n/a	"VerticalHorizontal"	"arrowleft"	"1470"	"TRUE"	"VerticalHorizontal"	"11.785710000"	"0.1096000000"	"1"	"43"
n/a	"html-keyboard-response"	"103"	"305623"	"0.0-5.0-2.0-0.25"	"277bd4"	"600"	"1366"	"chrome"	"111.0.0"	"FALSE"	"Windows 10"	"60.17"	"054"	n/a	n/a	n/a	n/a	n/a	n/a	"fixation"	n/a	n/a	n/a	n/a	"NULL"	n/a	"NULL"	"NULL"	"NULL"	"<p style=\"color: black; font-size: 80px; padding-left: 8%; padding-right: 36%; padding-top: 29%; padding-bottom: 46%\">+</p>"	"1228"	n/a	n/a	n/a	n/a	n/a	n/a	n/a	n/a	n/a
n/a	"image-keyboard-response"	"104"	"306085"	"0.0-5.0-2.0-1.25"	"277bd4"	"600"	"1366"	"chrome"	"111.0.0"	"FALSE"	"Windows 10"	"60.17"	"054"	n/a	n/a	n/a	n/a	n/a	n/a	"Trial"	n/a	n/a	n/a	"461"	"arrowleft"	n/a	"NULL"	"NULL"	"NULL"	"stimuli/VerticalHorizontal_11.78571_0.22500.png"	n/a	"VerticalHorizontal"	"arrowleft"	"1245"	"TRUE"	"VerticalHorizontal"	"11.785710000"	"0.2250000000"	"1"	"44"
n/a	"html-keyboard-response"	"105"	"307215"	"0.0-5.0-2.0-0.26"	"277bd4"	"600"	"1366"	"chrome"	"111.0.0"	"FALSE"	"Windows 10"	"60.17"	"054"	n/a	n/a	n/a	n/a	n/a	n/a	"fixation"	n/a	n/a	n/a	n/a	"NULL"	n/a	"NULL"	"NULL"	"NULL"	"<p style=\"color: black; font-size: 80px; padding-left: 37%; padding-right: 11%; padding-top: 33%; padding-bottom: 21%\">+</p>"	"1118"	n/a	n/a	n/a	n/a	n/a	n/a	n/a	n/a	n/a
n/a	"image-keyboard-response"	"106"	"307626"	"0.0-5.0-2.0-1.26"	"277bd4"	"600"	"1366"	"chrome"	"111.0.0"	"FALSE"	"Windows 10"	"60.17"	"054"	n/a	n/a	n/a	n/a	n/a	n/a	"Trial"	n/a	n/a	n/a	"410"	"arrowright"	n/a	"NULL"	"NULL"	"NULL"	"stimuli/VerticalHorizontal_3.30000_-0.2250.png"	n/a	"VerticalHorizontal"	"arrowright"	"1130"	"TRUE"	"VerticalHorizontal"	"3.3000000000"	"-0.225000000"	"1"	"45"
n/a	"html-keyboard-response"	"107"	"308993"	"0.0-5.0-2.0-0.27"	"277bd4"	"600"	"1366"	"chrome"	"111.0.0"	"FALSE"	"Windows 10"	"60.17"	"054"	n/a	n/a	n/a	n/a	n/a	n/a	"fixation"	n/a	n/a	n/a	n/a	"NULL"	n/a	"NULL"	"NULL"	"NULL"	"<p style=\"color: black; font-size: 80px; padding-left: 12%; padding-right: 4%; padding-top: 45%; padding-bottom: 40%\">+</p>"	"1354"	n/a	n/a	n/a	n/a	n/a	n/a	n/a	n/a	n/a
n/a	"image-keyboard-response"	"108"	"309458"	"0.0-5.0-2.0-1.27"	"277bd4"	"600"	"1366"	"chrome"	"111.0.0"	"FALSE"	"Windows 10"	"60.17"	"054"	n/a	n/a	n/a	n/a	n/a	n/a	"Trial"	n/a	n/a	n/a	"465"	"arrowleft"	n/a	"NULL"	"NULL"	"NULL"	"stimuli/VerticalHorizontal_28.75714_-0.0673.png"	n/a	"VerticalHorizontal"	"arrowright"	"1367"	"FALSE"	"VerticalHorizontal"	"28.757140000"	"-0.067300000"	"1"	"46"
n/a	"html-keyboard-response"	"109"	"310482"	"0.0-5.0-2.0-0.28"	"277bd4"	"600"	"1366"	"chrome"	"111.0.0"	"FALSE"	"Windows 10"	"60.17"	"054"	n/a	n/a	n/a	n/a	n/a	n/a	"fixation"	n/a	n/a	n/a	n/a	"NULL"	n/a	"NULL"	"NULL"	"NULL"	"<p style=\"color: black; font-size: 80px; padding-left: 28%; padding-right: 24%; padding-top: 33%; padding-bottom: 49%\">+</p>"	"1021"	n/a	n/a	n/a	n/a	n/a	n/a	n/a	n/a	n/a
n/a	"image-keyboard-response"	"110"	"311151"	"0.0-5.0-2.0-1.28"	"277bd4"	"600"	"1366"	"chrome"	"111.0.0"	"FALSE"	"Windows 10"	"60.17"	"054"	n/a	n/a	n/a	n/a	n/a	n/a	"Trial"	n/a	n/a	n/a	"669"	"arrowright"	n/a	"NULL"	"NULL"	"NULL"	"stimuli/VerticalHorizontal_28.75714_0.10960.png"	n/a	"VerticalHorizontal"	"arrowleft"	"1024"	"FALSE"	"VerticalHorizontal"	"28.757140000"	"0.1096000000"	"1"	"47"
n/a	"html-keyboard-response"	"111"	"312404"	"0.0-5.0-2.0-0.29"	"277bd4"	"600"	"1366"	"chrome"	"111.0.0"	"FALSE"	"Windows 10"	"60.17"	"054"	n/a	n/a	n/a	n/a	n/a	n/a	"fixation"	n/a	n/a	n/a	n/a	"NULL"	n/a	"NULL"	"NULL"	"NULL"	"<p style=\"color: black; font-size: 80px; padding-left: 21%; padding-right: 46%; padding-top: 8%; padding-bottom: 35%\">+</p>"	"1248"	n/a	n/a	n/a	n/a	n/a	n/a	n/a	n/a	n/a
n/a	"image-keyboard-response"	"112"	"312976"	"0.0-5.0-2.0-1.29"	"277bd4"	"600"	"1366"	"chrome"	"111.0.0"	"FALSE"	"Windows 10"	"60.17"	"054"	n/a	n/a	n/a	n/a	n/a	n/a	"Trial"	n/a	n/a	n/a	"570"	"arrowright"	n/a	"NULL"	"NULL"	"NULL"	"stimuli/VerticalHorizontal_-20.27143_0.06730.png"	n/a	"VerticalHorizontal"	"arrowleft"	"1253"	"FALSE"	"VerticalHorizontal"	"-20.27143000"	"0.0673000000"	"1"	"48"
n/a	"html-keyboard-response"	"113"	"314323"	"0.0-5.0-2.0-0.30"	"277bd4"	"600"	"1366"	"chrome"	"111.0.0"	"FALSE"	"Windows 10"	"60.17"	"054"	n/a	n/a	n/a	n/a	n/a	n/a	"fixation"	n/a	n/a	n/a	n/a	"NULL"	n/a	"NULL"	"NULL"	"NULL"	"<p style=\"color: black; font-size: 80px; padding-left: 8%; padding-right: 45%; padding-top: 5%; padding-bottom: 2%\">+</p>"	"1343"	n/a	n/a	n/a	n/a	n/a	n/a	n/a	n/a	n/a
n/a	"image-keyboard-response"	"114"	"314746"	"0.0-5.0-2.0-1.30"	"277bd4"	"600"	"1366"	"chrome"	"111.0.0"	"FALSE"	"Windows 10"	"60.17"	"054"	n/a	n/a	n/a	n/a	n/a	n/a	"Trial"	n/a	n/a	n/a	"421"	"arrowleft"	n/a	"NULL"	"NULL"	"NULL"	"stimuli/VerticalHorizontal_3.30000_0.06730.png"	n/a	"VerticalHorizontal"	"arrowleft"	"1347"	"TRUE"	"VerticalHorizontal"	"3.3000000000"	"0.0673000000"	"1"	"49"
n/a	"html-keyboard-response"	"115"	"316056"	"0.0-5.0-2.0-0.31"	"277bd4"	"600"	"1366"	"chrome"	"111.0.0"	"FALSE"	"Windows 10"	"60.17"	"054"	n/a	n/a	n/a	n/a	n/a	n/a	"fixation"	n/a	n/a	n/a	n/a	"NULL"	n/a	"NULL"	"NULL"	"NULL"	"<p style=\"color: black; font-size: 80px; padding-left: 47%; padding-right: 45%; padding-top: 20%; padding-bottom: 48%\">+</p>"	"1306"	n/a	n/a	n/a	n/a	n/a	n/a	n/a	n/a	n/a
n/a	"image-keyboard-response"	"116"	"316460"	"0.0-5.0-2.0-1.31"	"277bd4"	"600"	"1366"	"chrome"	"111.0.0"	"FALSE"	"Windows 10"	"60.17"	"054"	n/a	n/a	n/a	n/a	n/a	n/a	"Trial"	n/a	n/a	n/a	"401"	"arrowleft"	n/a	"NULL"	"NULL"	"NULL"	"stimuli/VerticalHorizontal_-3.3000_0.16217.png"	n/a	"VerticalHorizontal"	"arrowleft"	"1310"	"TRUE"	"VerticalHorizontal"	"-3.300000000"	"0.1621700000"	"1"	"50"
n/a	"html-keyboard-response"	"117"	"317682"	"0.0-5.0-2.0-0.32"	"277bd4"	"600"	"1366"	"chrome"	"111.0.0"	"FALSE"	"Windows 10"	"60.17"	"054"	n/a	n/a	n/a	n/a	n/a	n/a	"fixation"	n/a	n/a	n/a	n/a	"NULL"	n/a	"NULL"	"NULL"	"NULL"	"<p style=\"color: black; font-size: 80px; padding-left: 21%; padding-right: 31%; padding-top: 49%; padding-bottom: 34%\">+</p>"	"1210"	n/a	n/a	n/a	n/a	n/a	n/a	n/a	n/a	n/a
n/a	"image-keyboard-response"	"118"	"318121"	"0.0-5.0-2.0-1.32"	"277bd4"	"600"	"1366"	"chrome"	"111.0.0"	"FALSE"	"Windows 10"	"60.17"	"054"	n/a	n/a	n/a	n/a	n/a	n/a	"Trial"	n/a	n/a	n/a	"438"	"arrowleft"	n/a	"NULL"	"NULL"	"NULL"	"stimuli/VerticalHorizontal_3.30000_0.10960.png"	n/a	"VerticalHorizontal"	"arrowleft"	"1222"	"TRUE"	"VerticalHorizontal"	"3.3000000000"	"0.1096000000"	"1"	"51"
n/a	"html-keyboard-response"	"119"	"319591"	"0.0-5.0-2.0-0.33"	"277bd4"	"600"	"1366"	"chrome"	"111.0.0"	"FALSE"	"Windows 10"	"60.17"	"054"	n/a	n/a	n/a	n/a	n/a	n/a	"fixation"	n/a	n/a	n/a	n/a	"NULL"	n/a	"NULL"	"NULL"	"NULL"	"<p style=\"color: black; font-size: 80px; padding-left: 4%; padding-right: 6%; padding-top: 50%; padding-bottom: 41%\">+</p>"	"1461"	n/a	n/a	n/a	n/a	n/a	n/a	n/a	n/a	n/a
n/a	"image-keyboard-response"	"120"	"320045"	"0.0-5.0-2.0-1.33"	"277bd4"	"600"	"1366"	"chrome"	"111.0.0"	"FALSE"	"Windows 10"	"60.17"	"054"	n/a	n/a	n/a	n/a	n/a	n/a	"Trial"	n/a	n/a	n/a	"454"	"arrowright"	n/a	"NULL"	"NULL"	"NULL"	"stimuli/VerticalHorizontal_-3.3000_-0.1096.png"	n/a	"VerticalHorizontal"	"arrowright"	"1470"	"TRUE"	"VerticalHorizontal"	"-3.300000000"	"-0.109600000"	"1"	"52"
n/a	"html-keyboard-response"	"121"	"321528"	"0.0-5.0-2.0-0.34"	"277bd4"	"600"	"1366"	"chrome"	"111.0.0"	"FALSE"	"Windows 10"	"60.17"	"054"	n/a	n/a	n/a	n/a	n/a	n/a	"fixation"	n/a	n/a	n/a	n/a	"NULL"	n/a	"NULL"	"NULL"	"NULL"	"<p style=\"color: black; font-size: 80px; padding-left: 28%; padding-right: 1%; padding-top: 49%; padding-bottom: 46%\">+</p>"	"1471"	n/a	n/a	n/a	n/a	n/a	n/a	n/a	n/a	n/a
n/a	"image-keyboard-response"	"122"	"322026"	"0.0-5.0-2.0-1.34"	"277bd4"	"600"	"1366"	"chrome"	"111.0.0"	"FALSE"	"Windows 10"	"60.17"	"054"	n/a	n/a	n/a	n/a	n/a	n/a	"Trial"	n/a	n/a	n/a	"498"	"arrowright"	n/a	"NULL"	"NULL"	"NULL"	"stimuli/VerticalHorizontal_-3.3000_-0.16217.png"	n/a	"VerticalHorizontal"	"arrowright"	"1483"	"TRUE"	"VerticalHorizontal"	"-3.300000000"	"-0.162170000"	"1"	"53"
n/a	"html-keyboard-response"	"123"	"323498"	"0.0-5.0-2.0-0.35"	"277bd4"	"600"	"1366"	"chrome"	"111.0.0"	"FALSE"	"Windows 10"	"60.17"	"054"	n/a	n/a	n/a	n/a	n/a	n/a	"fixation"	n/a	n/a	n/a	n/a	"NULL"	n/a	"NULL"	"NULL"	"NULL"	"<p style=\"color: black; font-size: 80px; padding-left: 42%; padding-right: 26%; padding-top: 31%; padding-bottom: 4%\">+</p>"	"1466"	n/a	n/a	n/a	n/a	n/a	n/a	n/a	n/a	n/a
n/a	"image-keyboard-response"	"124"	"323902"	"0.0-5.0-2.0-1.35"	"277bd4"	"600"	"1366"	"chrome"	"111.0.0"	"FALSE"	"Windows 10"	"60.17"	"054"	n/a	n/a	n/a	n/a	n/a	n/a	"Trial"	n/a	n/a	n/a	"403"	"arrowleft"	n/a	"NULL"	"NULL"	"NULL"	"stimuli/VerticalHorizontal_-20.27143_0.16217.png"	n/a	"VerticalHorizontal"	"arrowleft"	"1472"	"TRUE"	"VerticalHorizontal"	"-20.27143000"	"0.1621700000"	"1"	"54"
n/a	"html-keyboard-response"	"125"	"325331"	"0.0-5.0-2.0-0.36"	"277bd4"	"600"	"1366"	"chrome"	"111.0.0"	"FALSE"	"Windows 10"	"60.17"	"054"	n/a	n/a	n/a	n/a	n/a	n/a	"fixation"	n/a	n/a	n/a	n/a	"NULL"	n/a	"NULL"	"NULL"	"NULL"	"<p style=\"color: black; font-size: 80px; padding-left: 12%; padding-right: 13%; padding-top: 33%; padding-bottom: 49%\">+</p>"	"1421"	n/a	n/a	n/a	n/a	n/a	n/a	n/a	n/a	n/a
n/a	"image-keyboard-response"	"126"	"325757"	"0.0-5.0-2.0-1.36"	"277bd4"	"600"	"1366"	"chrome"	"111.0.0"	"FALSE"	"Windows 10"	"60.17"	"054"	n/a	n/a	n/a	n/a	n/a	n/a	"Trial"	n/a	n/a	n/a	"425"	"arrowright"	n/a	"NULL"	"NULL"	"NULL"	"stimuli/VerticalHorizontal_-20.27143_-0.1096.png"	n/a	"VerticalHorizontal"	"arrowright"	"1429"	"TRUE"	"VerticalHorizontal"	"-20.27143000"	"-0.109600000"	"1"	"55"
n/a	"html-keyboard-response"	"127"	"327254"	"0.0-5.0-2.0-0.37"	"277bd4"	"600"	"1366"	"chrome"	"111.0.0"	"FALSE"	"Windows 10"	"60.17"	"054"	n/a	n/a	n/a	n/a	n/a	n/a	"fixation"	n/a	n/a	n/a	n/a	"NULL"	n/a	"NULL"	"NULL"	"NULL"	"<p style=\"color: black; font-size: 80px; padding-left: 15%; padding-right: 26%; padding-top: 28%; padding-bottom: 23%\">+</p>"	"1496"	n/a	n/a	n/a	n/a	n/a	n/a	n/a	n/a	n/a
n/a	"image-keyboard-response"	"128"	"327967"	"0.0-5.0-2.0-1.37"	"277bd4"	"600"	"1366"	"chrome"	"111.0.0"	"FALSE"	"Windows 10"	"60.17"	"054"	n/a	n/a	n/a	n/a	n/a	n/a	"Trial"	n/a	n/a	n/a	"712"	"arrowleft"	n/a	"NULL"	"NULL"	"NULL"	"stimuli/VerticalHorizontal_11.78571_-0.1096.png"	n/a	"VerticalHorizontal"	"arrowright"	"1497"	"FALSE"	"VerticalHorizontal"	"11.785710000"	"-0.109600000"	"1"	"56"
n/a	"html-keyboard-response"	"129"	"329006"	"0.0-5.0-2.0-0.38"	"277bd4"	"600"	"1366"	"chrome"	"111.0.0"	"FALSE"	"Windows 10"	"60.17"	"054"	n/a	n/a	n/a	n/a	n/a	n/a	"fixation"	n/a	n/a	n/a	n/a	"NULL"	n/a	"NULL"	"NULL"	"NULL"	"<p style=\"color: black; font-size: 80px; padding-left: 20%; padding-right: 44%; padding-top: 19%; padding-bottom: 43%\">+</p>"	"1030"	n/a	n/a	n/a	n/a	n/a	n/a	n/a	n/a	n/a
n/a	"image-keyboard-response"	"130"	"329582"	"0.0-5.0-2.0-1.38"	"277bd4"	"600"	"1366"	"chrome"	"111.0.0"	"FALSE"	"Windows 10"	"60.17"	"054"	n/a	n/a	n/a	n/a	n/a	n/a	"Trial"	n/a	n/a	n/a	"575"	"arrowright"	n/a	"NULL"	"NULL"	"NULL"	"stimuli/VerticalHorizontal_28.75714_-0.1096.png"	n/a	"VerticalHorizontal"	"arrowright"	"1039"	"TRUE"	"VerticalHorizontal"	"28.757140000"	"-0.109600000"	"1"	"57"
n/a	"html-keyboard-response"	"131"	"330675"	"0.0-5.0-2.0-0.39"	"277bd4"	"600"	"1366"	"chrome"	"111.0.0"	"FALSE"	"Windows 10"	"60.17"	"054"	n/a	n/a	n/a	n/a	n/a	n/a	"fixation"	n/a	n/a	n/a	n/a	"NULL"	n/a	"NULL"	"NULL"	"NULL"	"<p style=\"color: black; font-size: 80px; padding-left: 29%; padding-right: 10%; padding-top: 27%; padding-bottom: 5%\">+</p>"	"1079"	n/a	n/a	n/a	n/a	n/a	n/a	n/a	n/a	n/a
n/a	"image-keyboard-response"	"132"	"331099"	"0.0-5.0-2.0-1.39"	"277bd4"	"600"	"1366"	"chrome"	"111.0.0"	"FALSE"	"Windows 10"	"60.17"	"054"	n/a	n/a	n/a	n/a	n/a	n/a	"Trial"	n/a	n/a	n/a	"423"	"arrowright"	n/a	"NULL"	"NULL"	"NULL"	"stimuli/VerticalHorizontal_-11.78571_-0.16217.png"	n/a	"VerticalHorizontal"	"arrowright"	"1093"	"TRUE"	"VerticalHorizontal"	"-11.78571000"	"-0.162170000"	"1"	"58"
n/a	"html-keyboard-response"	"133"	"332398"	"0.0-5.0-2.0-0.40"	"277bd4"	"600"	"1366"	"chrome"	"111.0.0"	"FALSE"	"Windows 10"	"60.17"	"054"	n/a	n/a	n/a	n/a	n/a	n/a	"fixation"	n/a	n/a	n/a	n/a	"NULL"	n/a	"NULL"	"NULL"	"NULL"	"<p style=\"color: black; font-size: 80px; padding-left: 13%; padding-right: 2%; padding-top: 19%; padding-bottom: 36%\">+</p>"	"1294"	n/a	n/a	n/a	n/a	n/a	n/a	n/a	n/a	n/a
n/a	"image-keyboard-response"	"134"	"332792"	"0.0-5.0-2.0-1.40"	"277bd4"	"600"	"1366"	"chrome"	"111.0.0"	"FALSE"	"Windows 10"	"60.17"	"054"	n/a	n/a	n/a	n/a	n/a	n/a	"Trial"	n/a	n/a	n/a	"393"	"arrowleft"	n/a	"NULL"	"NULL"	"NULL"	"stimuli/VerticalHorizontal_-28.75714_0.06730.png"	n/a	"VerticalHorizontal"	"arrowleft"	"1299"	"TRUE"	"VerticalHorizontal"	"-28.75714000"	"0.0673000000"	"1"	"59"
n/a	"html-keyboard-response"	"135"	"334034"	"0.0-5.0-2.0-0.41"	"277bd4"	"600"	"1366"	"chrome"	"111.0.0"	"FALSE"	"Windows 10"	"60.17"	"054"	n/a	n/a	n/a	n/a	n/a	n/a	"fixation"	n/a	n/a	n/a	n/a	"NULL"	n/a	"NULL"	"NULL"	"NULL"	"<p style=\"color: black; font-size: 80px; padding-left: 49%; padding-right: 25%; padding-top: 46%; padding-bottom: 6%\">+</p>"	"1237"	n/a	n/a	n/a	n/a	n/a	n/a	n/a	n/a	n/a
n/a	"image-keyboard-response"	"136"	"334438"	"0.0-5.0-2.0-1.41"	"277bd4"	"600"	"1366"	"chrome"	"111.0.0"	"FALSE"	"Windows 10"	"60.17"	"054"	n/a	n/a	n/a	n/a	n/a	n/a	"Trial"	n/a	n/a	n/a	"403"	"arrowleft"	n/a	"NULL"	"NULL"	"NULL"	"stimuli/VerticalHorizontal_-28.75714_0.10960.png"	n/a	"VerticalHorizontal"	"arrowleft"	"1242"	"TRUE"	"VerticalHorizontal"	"-28.75714000"	"0.1096000000"	"1"	"60"
n/a	"html-keyboard-response"	"137"	"335645"	"0.0-5.0-2.0-0.42"	"277bd4"	"600"	"1366"	"chrome"	"111.0.0"	"FALSE"	"Windows 10"	"60.17"	"054"	n/a	n/a	n/a	n/a	n/a	n/a	"fixation"	n/a	n/a	n/a	n/a	"NULL"	n/a	"NULL"	"NULL"	"NULL"	"<p style=\"color: black; font-size: 80px; padding-left: 29%; padding-right: 23%; padding-top: 29%; padding-bottom: 20%\">+</p>"	"1206"	n/a	n/a	n/a	n/a	n/a	n/a	n/a	n/a	n/a
n/a	"image-keyboard-response"	"138"	"336086"	"0.0-5.0-2.0-1.42"	"277bd4"	"600"	"1366"	"chrome"	"111.0.0"	"FALSE"	"Windows 10"	"60.17"	"054"	n/a	n/a	n/a	n/a	n/a	n/a	"Trial"	n/a	n/a	n/a	"440"	"arrowright"	n/a	"NULL"	"NULL"	"NULL"	"stimuli/VerticalHorizontal_-3.3000_-0.0673.png"	n/a	"VerticalHorizontal"	"arrowright"	"1207"	"TRUE"	"VerticalHorizontal"	"-3.300000000"	"-0.067300000"	"1"	"61"
n/a	"html-keyboard-response"	"139"	"337469"	"0.0-5.0-2.0-0.43"	"277bd4"	"600"	"1366"	"chrome"	"111.0.0"	"FALSE"	"Windows 10"	"60.17"	"054"	n/a	n/a	n/a	n/a	n/a	n/a	"fixation"	n/a	n/a	n/a	n/a	"NULL"	n/a	"NULL"	"NULL"	"NULL"	"<p style=\"color: black; font-size: 80px; padding-left: 9%; padding-right: 1%; padding-top: 14%; padding-bottom: 45%\">+</p>"	"1379"	n/a	n/a	n/a	n/a	n/a	n/a	n/a	n/a	n/a
n/a	"image-keyboard-response"	"140"	"337853"	"0.0-5.0-2.0-1.43"	"277bd4"	"600"	"1366"	"chrome"	"111.0.0"	"FALSE"	"Windows 10"	"60.17"	"054"	n/a	n/a	n/a	n/a	n/a	n/a	"Trial"	n/a	n/a	n/a	"384"	"arrowright"	n/a	"NULL"	"NULL"	"NULL"	"stimuli/VerticalHorizontal_-11.78571_-0.0673.png"	n/a	"VerticalHorizontal"	"arrowright"	"1383"	"TRUE"	"VerticalHorizontal"	"-11.78571000"	"-0.067300000"	"1"	"62"
n/a	"html-keyboard-response"	"141"	"338914"	"0.0-5.0-2.0-0.44"	"277bd4"	"600"	"1366"	"chrome"	"111.0.0"	"FALSE"	"Windows 10"	"60.17"	"054"	n/a	n/a	n/a	n/a	n/a	n/a	"fixation"	n/a	n/a	n/a	n/a	"NULL"	n/a	"NULL"	"NULL"	"NULL"	"<p style=\"color: black; font-size: 80px; padding-left: 2%; padding-right: 1%; padding-top: 9%; padding-bottom: 30%\">+</p>"	"1044"	n/a	n/a	n/a	n/a	n/a	n/a	n/a	n/a	n/a
n/a	"image-keyboard-response"	"142"	"339290"	"0.0-5.0-2.0-1.44"	"277bd4"	"600"	"1366"	"chrome"	"111.0.0"	"FALSE"	"Windows 10"	"60.17"	"054"	n/a	n/a	n/a	n/a	n/a	n/a	"Trial"	n/a	n/a	n/a	"376"	"arrowright"	n/a	"NULL"	"NULL"	"NULL"	"stimuli/VerticalHorizontal_-28.75714_-0.16217.png"	n/a	"VerticalHorizontal"	"arrowright"	"1061"	"TRUE"	"VerticalHorizontal"	"-28.75714000"	"-0.162170000"	"1"	"63"
n/a	"html-keyboard-response"	"143"	"340670"	"0.0-5.0-2.0-0.45"	"277bd4"	"600"	"1366"	"chrome"	"111.0.0"	"FALSE"	"Windows 10"	"60.17"	"054"	n/a	n/a	n/a	n/a	n/a	n/a	"fixation"	n/a	n/a	n/a	n/a	"NULL"	n/a	"NULL"	"NULL"	"NULL"	"<p style=\"color: black; font-size: 80px; padding-left: 9%; padding-right: 44%; padding-top: 35%; padding-bottom: 3%\">+</p>"	"1369"	n/a	n/a	n/a	n/a	n/a	n/a	n/a	n/a	n/a
n/a	"image-keyboard-response"	"144"	"341370"	"0.0-5.0-2.0-1.45"	"277bd4"	"600"	"1366"	"chrome"	"111.0.0"	"FALSE"	"Windows 10"	"60.17"	"054"	n/a	n/a	n/a	n/a	n/a	n/a	"Trial"	n/a	n/a	n/a	"700"	"arrowright"	n/a	"NULL"	"NULL"	"NULL"	"stimuli/VerticalHorizontal_28.75714_-0.16217.png"	n/a	"VerticalHorizontal"	"arrowright"	"1380"	"TRUE"	"VerticalHorizontal"	"28.757140000"	"-0.162170000"	"1"	"64"
n/a	"html-keyboard-response"	"145"	"342810"	"0.0-5.0-2.0-0.46"	"277bd4"	"600"	"1366"	"chrome"	"111.0.0"	"FALSE"	"Windows 10"	"60.17"	"054"	n/a	n/a	n/a	n/a	n/a	n/a	"fixation"	n/a	n/a	n/a	n/a	"NULL"	n/a	"NULL"	"NULL"	"NULL"	"<p style=\"color: black; font-size: 80px; padding-left: 24%; padding-right: 33%; padding-top: 20%; padding-bottom: 43%\">+</p>"	"1426"	n/a	n/a	n/a	n/a	n/a	n/a	n/a	n/a	n/a
n/a	"image-keyboard-response"	"146"	"343243"	"0.0-5.0-2.0-1.46"	"277bd4"	"600"	"1366"	"chrome"	"111.0.0"	"FALSE"	"Windows 10"	"60.17"	"054"	n/a	n/a	n/a	n/a	n/a	n/a	"Trial"	n/a	n/a	n/a	"433"	"arrowright"	n/a	"NULL"	"NULL"	"NULL"	"stimuli/VerticalHorizontal_3.30000_-0.16217.png"	n/a	"VerticalHorizontal"	"arrowright"	"1440"	"TRUE"	"VerticalHorizontal"	"3.3000000000"	"-0.162170000"	"1"	"65"
n/a	"html-keyboard-response"	"147"	"344292"	"0.0-5.0-2.0-0.47"	"277bd4"	"600"	"1366"	"chrome"	"111.0.0"	"FALSE"	"Windows 10"	"60.17"	"054"	n/a	n/a	n/a	n/a	n/a	n/a	"fixation"	n/a	n/a	n/a	n/a	"NULL"	n/a	"NULL"	"NULL"	"NULL"	"<p style=\"color: black; font-size: 80px; padding-left: 5%; padding-right: 45%; padding-top: 33%; padding-bottom: 21%\">+</p>"	"1041"	n/a	n/a	n/a	n/a	n/a	n/a	n/a	n/a	n/a
n/a	"image-keyboard-response"	"148"	"344848"	"0.0-5.0-2.0-1.47"	"277bd4"	"600"	"1366"	"chrome"	"111.0.0"	"FALSE"	"Windows 10"	"60.17"	"054"	n/a	n/a	n/a	n/a	n/a	n/a	"Trial"	n/a	n/a	n/a	"555"	"arrowleft"	n/a	"NULL"	"NULL"	"NULL"	"stimuli/VerticalHorizontal_-11.78571_0.10960.png"	n/a	"VerticalHorizontal"	"arrowleft"	"1049"	"TRUE"	"VerticalHorizontal"	"-11.78571000"	"0.1096000000"	"1"	"66"
n/a	"html-keyboard-response"	"149"	"345885"	"0.0-5.0-2.0-0.48"	"277bd4"	"600"	"1366"	"chrome"	"111.0.0"	"FALSE"	"Windows 10"	"60.17"	"054"	n/a	n/a	n/a	n/a	n/a	n/a	"fixation"	n/a	n/a	n/a	n/a	"NULL"	n/a	"NULL"	"NULL"	"NULL"	"<p style=\"color: black; font-size: 80px; padding-left: 34%; padding-right: 28%; padding-top: 42%; padding-bottom: 36%\">+</p>"	"1021"	n/a	n/a	n/a	n/a	n/a	n/a	n/a	n/a	n/a
n/a	"image-keyboard-response"	"150"	"346280"	"0.0-5.0-2.0-1.48"	"277bd4"	"600"	"1366"	"chrome"	"111.0.0"	"FALSE"	"Windows 10"	"60.17"	"054"	n/a	n/a	n/a	n/a	n/a	n/a	"Trial"	n/a	n/a	n/a	"395"	"arrowright"	n/a	"NULL"	"NULL"	"NULL"	"stimuli/VerticalHorizontal_-11.78571_-0.2250.png"	n/a	"VerticalHorizontal"	"arrowright"	"1037"	"TRUE"	"VerticalHorizontal"	"-11.78571000"	"-0.225000000"	"1"	"67"
n/a	"html-keyboard-response"	"151"	"347754"	"0.0-5.0-2.0-0.49"	"277bd4"	"600"	"1366"	"chrome"	"111.0.0"	"FALSE"	"Windows 10"	"60.17"	"054"	n/a	n/a	n/a	n/a	n/a	n/a	"fixation"	n/a	n/a	n/a	n/a	"NULL"	n/a	"NULL"	"NULL"	"NULL"	"<p style=\"color: black; font-size: 80px; padding-left: 25%; padding-right: 33%; padding-top: 36%; padding-bottom: 46%\">+</p>"	"1472"	n/a	n/a	n/a	n/a	n/a	n/a	n/a	n/a	n/a
n/a	"image-keyboard-response"	"152"	"348197"	"0.0-5.0-2.0-1.49"	"277bd4"	"600"	"1366"	"chrome"	"111.0.0"	"FALSE"	"Windows 10"	"60.17"	"054"	n/a	n/a	n/a	n/a	n/a	n/a	"Trial"	n/a	n/a	n/a	"442"	"arrowright"	n/a	"NULL"	"NULL"	"NULL"	"stimuli/VerticalHorizontal_-28.75714_-0.0673.png"	n/a	"VerticalHorizontal"	"arrowright"	"1474"	"TRUE"	"VerticalHorizontal"	"-28.75714000"	"-0.067300000"	"1"	"68"
n/a	"html-keyboard-response"	"153"	"349515"	"0.0-5.0-2.0-0.50"	"277bd4"	"600"	"1366"	"chrome"	"111.0.0"	"FALSE"	"Windows 10"	"60.17"	"054"	n/a	n/a	n/a	n/a	n/a	n/a	"fixation"	n/a	n/a	n/a	n/a	"NULL"	n/a	"NULL"	"NULL"	"NULL"	"<p style=\"color: black; font-size: 80px; padding-left: 47%; padding-right: 19%; padding-top: 38%; padding-bottom: 24%\">+</p>"	"1309"	n/a	n/a	n/a	n/a	n/a	n/a	n/a	n/a	n/a
n/a	"image-keyboard-response"	"154"	"349969"	"0.0-5.0-2.0-1.50"	"277bd4"	"600"	"1366"	"chrome"	"111.0.0"	"FALSE"	"Windows 10"	"60.17"	"054"	n/a	n/a	n/a	n/a	n/a	n/a	"Trial"	n/a	n/a	n/a	"453"	"arrowright"	n/a	"NULL"	"NULL"	"NULL"	"stimuli/VerticalHorizontal_20.27143_-0.2250.png"	n/a	"VerticalHorizontal"	"arrowright"	"1318"	"TRUE"	"VerticalHorizontal"	"20.271430000"	"-0.225000000"	"1"	"69"
n/a	"html-keyboard-response"	"155"	"351372"	"0.0-5.0-2.0-0.51"	"277bd4"	"600"	"1366"	"chrome"	"111.0.0"	"FALSE"	"Windows 10"	"60.17"	"054"	n/a	n/a	n/a	n/a	n/a	n/a	"fixation"	n/a	n/a	n/a	n/a	"NULL"	n/a	"NULL"	"NULL"	"NULL"	"<p style=\"color: black; font-size: 80px; padding-left: 27%; padding-right: 43%; padding-top: 8%; padding-bottom: 5%\">+</p>"	"1402"	n/a	n/a	n/a	n/a	n/a	n/a	n/a	n/a	n/a
n/a	"image-keyboard-response"	"156"	"351924"	"0.0-5.0-2.0-1.51"	"277bd4"	"600"	"1366"	"chrome"	"111.0.0"	"FALSE"	"Windows 10"	"60.17"	"054"	n/a	n/a	n/a	n/a	n/a	n/a	"Trial"	n/a	n/a	n/a	"551"	"arrowleft"	n/a	"NULL"	"NULL"	"NULL"	"stimuli/VerticalHorizontal_20.27143_0.16217.png"	n/a	"VerticalHorizontal"	"arrowleft"	"1403"	"TRUE"	"VerticalHorizontal"	"20.271430000"	"0.1621700000"	"1"	"70"
n/a	"html-keyboard-response"	"157"	"353116"	"0.0-5.0-2.0-0.52"	"277bd4"	"600"	"1366"	"chrome"	"111.0.0"	"FALSE"	"Windows 10"	"60.17"	"054"	n/a	n/a	n/a	n/a	n/a	n/a	"fixation"	n/a	n/a	n/a	n/a	"NULL"	n/a	"NULL"	"NULL"	"NULL"	"<p style=\"color: black; font-size: 80px; padding-left: 21%; padding-right: 28%; padding-top: 16%; padding-bottom: 15%\">+</p>"	"1191"	n/a	n/a	n/a	n/a	n/a	n/a	n/a	n/a	n/a
n/a	"image-keyboard-response"	"158"	"353592"	"0.0-5.0-2.0-1.52"	"277bd4"	"600"	"1366"	"chrome"	"111.0.0"	"FALSE"	"Windows 10"	"60.17"	"054"	n/a	n/a	n/a	n/a	n/a	n/a	"Trial"	n/a	n/a	n/a	"475"	"arrowleft"	n/a	"NULL"	"NULL"	"NULL"	"stimuli/VerticalHorizontal_3.30000_0.22500.png"	n/a	"VerticalHorizontal"	"arrowleft"	"1192"	"TRUE"	"VerticalHorizontal"	"3.3000000000"	"0.2250000000"	"1"	"71"
n/a	"html-keyboard-response"	"159"	"354719"	"0.0-5.0-2.0-0.53"	"277bd4"	"600"	"1366"	"chrome"	"111.0.0"	"FALSE"	"Windows 10"	"60.17"	"054"	n/a	n/a	n/a	n/a	n/a	n/a	"fixation"	n/a	n/a	n/a	n/a	"NULL"	n/a	"NULL"	"NULL"	"NULL"	"<p style=\"color: black; font-size: 80px; padding-left: 2%; padding-right: 8%; padding-top: 9%; padding-bottom: 32%\">+</p>"	"1120"	n/a	n/a	n/a	n/a	n/a	n/a	n/a	n/a	n/a
n/a	"image-keyboard-response"	"160"	"355275"	"0.0-5.0-2.0-1.53"	"277bd4"	"600"	"1366"	"chrome"	"111.0.0"	"FALSE"	"Windows 10"	"60.17"	"054"	n/a	n/a	n/a	n/a	n/a	n/a	"Trial"	n/a	n/a	n/a	"556"	"arrowleft"	n/a	"NULL"	"NULL"	"NULL"	"stimuli/VerticalHorizontal_11.78571_0.16217.png"	n/a	"VerticalHorizontal"	"arrowleft"	"1127"	"TRUE"	"VerticalHorizontal"	"11.785710000"	"0.1621700000"	"1"	"72"
n/a	"html-keyboard-response"	"161"	"356311"	"0.0-5.0-2.0-0.54"	"277bd4"	"600"	"1366"	"chrome"	"111.0.0"	"FALSE"	"Windows 10"	"60.17"	"054"	n/a	n/a	n/a	n/a	n/a	n/a	"fixation"	n/a	n/a	n/a	n/a	"NULL"	n/a	"NULL"	"NULL"	"NULL"	"<p style=\"color: black; font-size: 80px; padding-left: 15%; padding-right: 6%; padding-top: 14%; padding-bottom: 19%\">+</p>"	"1034"	n/a	n/a	n/a	n/a	n/a	n/a	n/a	n/a	n/a
n/a	"image-keyboard-response"	"162"	"356710"	"0.0-5.0-2.0-1.54"	"277bd4"	"600"	"1366"	"chrome"	"111.0.0"	"FALSE"	"Windows 10"	"60.17"	"054"	n/a	n/a	n/a	n/a	n/a	n/a	"Trial"	n/a	n/a	n/a	"399"	"arrowright"	n/a	"NULL"	"NULL"	"NULL"	"stimuli/VerticalHorizontal_-20.27143_-0.0673.png"	n/a	"VerticalHorizontal"	"arrowright"	"1036"	"TRUE"	"VerticalHorizontal"	"-20.27143000"	"-0.067300000"	"1"	"73"
n/a	"html-keyboard-response"	"163"	"357785"	"0.0-5.0-2.0-0.55"	"277bd4"	"600"	"1366"	"chrome"	"111.0.0"	"FALSE"	"Windows 10"	"60.17"	"054"	n/a	n/a	n/a	n/a	n/a	n/a	"fixation"	n/a	n/a	n/a	n/a	"NULL"	n/a	"NULL"	"NULL"	"NULL"	"<p style=\"color: black; font-size: 80px; padding-left: 15%; padding-right: 42%; padding-top: 23%; padding-bottom: 24%\">+</p>"	"1060"	n/a	n/a	n/a	n/a	n/a	n/a	n/a	n/a	n/a
n/a	"image-keyboard-response"	"164"	"358216"	"0.0-5.0-2.0-1.55"	"277bd4"	"600"	"1366"	"chrome"	"111.0.0"	"FALSE"	"Windows 10"	"60.17"	"054"	n/a	n/a	n/a	n/a	n/a	n/a	"Trial"	n/a	n/a	n/a	"430"	"arrowright"	n/a	"NULL"	"NULL"	"NULL"	"stimuli/VerticalHorizontal_3.30000_-0.0673.png"	n/a	"VerticalHorizontal"	"arrowright"	"1075"	"TRUE"	"VerticalHorizontal"	"3.3000000000"	"-0.067300000"	"1"	"74"
n/a	"html-keyboard-response"	"165"	"359717"	"0.0-5.0-2.0-0.56"	"277bd4"	"600"	"1366"	"chrome"	"111.0.0"	"FALSE"	"Windows 10"	"60.17"	"054"	n/a	n/a	n/a	n/a	n/a	n/a	"fixation"	n/a	n/a	n/a	n/a	"NULL"	n/a	"NULL"	"NULL"	"NULL"	"<p style=\"color: black; font-size: 80px; padding-left: 46%; padding-right: 43%; padding-top: 41%; padding-bottom: 13%\">+</p>"	"1492"	n/a	n/a	n/a	n/a	n/a	n/a	n/a	n/a	n/a
n/a	"image-keyboard-response"	"166"	"360372"	"0.0-5.0-2.0-1.56"	"277bd4"	"600"	"1366"	"chrome"	"111.0.0"	"FALSE"	"Windows 10"	"60.17"	"054"	n/a	n/a	n/a	n/a	n/a	n/a	"Trial"	n/a	n/a	n/a	"653"	"arrowright"	n/a	"NULL"	"NULL"	"NULL"	"stimuli/VerticalHorizontal_28.75714_0.16217.png"	n/a	"VerticalHorizontal"	"arrowleft"	"1501"	"FALSE"	"VerticalHorizontal"	"28.757140000"	"0.1621700000"	"1"	"75"
n/a	"html-keyboard-response"	"167"	"361559"	"0.0-5.0-2.0-0.57"	"277bd4"	"600"	"1366"	"chrome"	"111.0.0"	"FALSE"	"Windows 10"	"60.17"	"054"	n/a	n/a	n/a	n/a	n/a	n/a	"fixation"	n/a	n/a	n/a	n/a	"NULL"	n/a	"NULL"	"NULL"	"NULL"	"<p style=\"color: black; font-size: 80px; padding-left: 49%; padding-right: 38%; padding-top: 6%; padding-bottom: 11%\">+</p>"	"1186"	n/a	n/a	n/a	n/a	n/a	n/a	n/a	n/a	n/a
n/a	"image-keyboard-response"	"168"	"361993"	"0.0-5.0-2.0-1.57"	"277bd4"	"600"	"1366"	"chrome"	"111.0.0"	"FALSE"	"Windows 10"	"60.17"	"054"	n/a	n/a	n/a	n/a	n/a	n/a	"Trial"	n/a	n/a	n/a	"433"	"arrowright"	n/a	"NULL"	"NULL"	"NULL"	"stimuli/VerticalHorizontal_-11.78571_-0.1096.png"	n/a	"VerticalHorizontal"	"arrowright"	"1187"	"TRUE"	"VerticalHorizontal"	"-11.78571000"	"-0.109600000"	"1"	"76"
n/a	"html-keyboard-response"	"169"	"363115"	"0.0-5.0-2.0-0.58"	"277bd4"	"600"	"1366"	"chrome"	"111.0.0"	"FALSE"	"Windows 10"	"60.17"	"054"	n/a	n/a	n/a	n/a	n/a	n/a	"fixation"	n/a	n/a	n/a	n/a	"NULL"	n/a	"NULL"	"NULL"	"NULL"	"<p style=\"color: black; font-size: 80px; padding-left: 39%; padding-right: 32%; padding-top: 40%; padding-bottom: 9%\">+</p>"	"1106"	n/a	n/a	n/a	n/a	n/a	n/a	n/a	n/a	n/a
n/a	"image-keyboard-response"	"170"	"363543"	"0.0-5.0-2.0-1.58"	"277bd4"	"600"	"1366"	"chrome"	"111.0.0"	"FALSE"	"Windows 10"	"60.17"	"054"	n/a	n/a	n/a	n/a	n/a	n/a	"Trial"	n/a	n/a	n/a	"427"	"arrowright"	n/a	"NULL"	"NULL"	"NULL"	"stimuli/VerticalHorizontal_-28.75714_-0.2250.png"	n/a	"VerticalHorizontal"	"arrowright"	"1122"	"TRUE"	"VerticalHorizontal"	"-28.75714000"	"-0.225000000"	"1"	"77"
n/a	"html-keyboard-response"	"171"	"364810"	"0.0-5.0-2.0-0.59"	"277bd4"	"600"	"1366"	"chrome"	"111.0.0"	"FALSE"	"Windows 10"	"60.17"	"054"	n/a	n/a	n/a	n/a	n/a	n/a	"fixation"	n/a	n/a	n/a	n/a	"NULL"	n/a	"NULL"	"NULL"	"NULL"	"<p style=\"color: black; font-size: 80px; padding-left: 13%; padding-right: 32%; padding-top: 33%; padding-bottom: 7%\">+</p>"	"1260"	n/a	n/a	n/a	n/a	n/a	n/a	n/a	n/a	n/a
n/a	"image-keyboard-response"	"172"	"365402"	"0.0-5.0-2.0-1.59"	"277bd4"	"600"	"1366"	"chrome"	"111.0.0"	"FALSE"	"Windows 10"	"60.17"	"054"	n/a	n/a	n/a	n/a	n/a	n/a	"Trial"	n/a	n/a	n/a	"591"	"arrowright"	n/a	"NULL"	"NULL"	"NULL"	"stimuli/VerticalHorizontal_3.30000_-0.1096.png"	n/a	"VerticalHorizontal"	"arrowright"	"1267"	"TRUE"	"VerticalHorizontal"	"3.3000000000"	"-0.109600000"	"1"	"78"
n/a	"html-keyboard-response"	"173"	"366660"	"0.0-5.0-2.0-0.60"	"277bd4"	"600"	"1366"	"chrome"	"111.0.0"	"FALSE"	"Windows 10"	"60.17"	"054"	n/a	n/a	n/a	n/a	n/a	n/a	"fixation"	n/a	n/a	n/a	n/a	"NULL"	n/a	"NULL"	"NULL"	"NULL"	"<p style=\"color: black; font-size: 80px; padding-left: 32%; padding-right: 26%; padding-top: 21%; padding-bottom: 36%\">+</p>"	"1247"	n/a	n/a	n/a	n/a	n/a	n/a	n/a	n/a	n/a
n/a	"image-keyboard-response"	"174"	"367254"	"0.0-5.0-2.0-1.60"	"277bd4"	"600"	"1366"	"chrome"	"111.0.0"	"FALSE"	"Windows 10"	"60.17"	"054"	n/a	n/a	n/a	n/a	n/a	n/a	"Trial"	n/a	n/a	n/a	"593"	"arrowright"	n/a	"NULL"	"NULL"	"NULL"	"stimuli/VerticalHorizontal_-28.75714_0.16217.png"	n/a	"VerticalHorizontal"	"arrowleft"	"1258"	"FALSE"	"VerticalHorizontal"	"-28.75714000"	"0.1621700000"	"1"	"79"
n/a	"html-keyboard-response"	"175"	"368684"	"0.0-5.0-2.0-0.61"	"277bd4"	"600"	"1366"	"chrome"	"111.0.0"	"FALSE"	"Windows 10"	"60.17"	"054"	n/a	n/a	n/a	n/a	n/a	n/a	"fixation"	n/a	n/a	n/a	n/a	"NULL"	n/a	"NULL"	"NULL"	"NULL"	"<p style=\"color: black; font-size: 80px; padding-left: 18%; padding-right: 9%; padding-top: 15%; padding-bottom: 11%\">+</p>"	"1427"	n/a	n/a	n/a	n/a	n/a	n/a	n/a	n/a	n/a
n/a	"image-keyboard-response"	"176"	"369748"	"0.0-5.0-2.0-1.61"	"277bd4"	"600"	"1366"	"chrome"	"111.0.0"	"FALSE"	"Windows 10"	"60.17"	"054"	n/a	n/a	n/a	n/a	n/a	n/a	"Trial"	n/a	n/a	n/a	"1063"	"arrowleft"	n/a	"NULL"	"NULL"	"NULL"	"stimuli/VerticalHorizontal_-20.27143_0.10960.png"	n/a	"VerticalHorizontal"	"arrowleft"	"1430"	"TRUE"	"VerticalHorizontal"	"-20.27143000"	"0.1096000000"	"1"	"80"
n/a	"html-keyboard-response"	"177"	"370823"	"0.0-5.0-2.0-0.62"	"277bd4"	"600"	"1366"	"chrome"	"111.0.0"	"FALSE"	"Windows 10"	"60.17"	"054"	n/a	n/a	n/a	n/a	n/a	n/a	"fixation"	n/a	n/a	n/a	n/a	"NULL"	n/a	"NULL"	"NULL"	"NULL"	"<p style=\"color: black; font-size: 80px; padding-left: 36%; padding-right: 15%; padding-top: 38%; padding-bottom: 26%\">+</p>"	"1059"	n/a	n/a	n/a	n/a	n/a	n/a	n/a	n/a	n/a
n/a	"image-keyboard-response"	"178"	"371312"	"0.0-5.0-2.0-1.62"	"277bd4"	"600"	"1366"	"chrome"	"111.0.0"	"FALSE"	"Windows 10"	"60.17"	"054"	n/a	n/a	n/a	n/a	n/a	n/a	"Trial"	n/a	n/a	n/a	"487"	"arrowright"	n/a	"NULL"	"NULL"	"NULL"	"stimuli/VerticalHorizontal_11.78571_-0.16217.png"	n/a	"VerticalHorizontal"	"arrowright"	"1075"	"TRUE"	"VerticalHorizontal"	"11.785710000"	"-0.162170000"	"1"	"81"
n/a	"html-keyboard-response"	"179"	"372605"	"0.0-5.0-2.0-0.63"	"277bd4"	"600"	"1366"	"chrome"	"111.0.0"	"FALSE"	"Windows 10"	"60.17"	"054"	n/a	n/a	n/a	n/a	n/a	n/a	"fixation"	n/a	n/a	n/a	n/a	"NULL"	n/a	"NULL"	"NULL"	"NULL"	"<p style=\"color: black; font-size: 80px; padding-left: 25%; padding-right: 46%; padding-top: 22%; padding-bottom: 15%\">+</p>"	"1286"	n/a	n/a	n/a	n/a	n/a	n/a	n/a	n/a	n/a
n/a	"image-keyboard-response"	"180"	"373116"	"0.0-5.0-2.0-1.63"	"277bd4"	"600"	"1366"	"chrome"	"111.0.0"	"FALSE"	"Windows 10"	"60.17"	"054"	n/a	n/a	n/a	n/a	n/a	n/a	"Trial"	n/a	n/a	n/a	"510"	"arrowleft"	n/a	"NULL"	"NULL"	"NULL"	"stimuli/VerticalHorizontal_-3.3000_0.22500.png"	n/a	"VerticalHorizontal"	"arrowleft"	"1293"	"TRUE"	"VerticalHorizontal"	"-3.300000000"	"0.2250000000"	"1"	"82"
n/a	"html-button-response"	"181"	"391740"	"0.0-5.0-3.0"	"277bd4"	"600"	"1366"	"chrome"	"111.0.0"	"FALSE"	"Windows 10"	"60.17"	"054"	n/a	n/a	n/a	n/a	n/a	n/a	"block_results"	n/a	n/a	n/a	"18622"	"0"	n/a	"NULL"	"NULL"	"NULL"	"<p>Your score for this illusion is <p style=\"color: black; font-size: 48px; font-weight: bold;\">84.7 %</p><hr><p>Can you do better in the next illusion?</p>"	n/a	n/a	n/a	n/a	n/a	n/a	n/a	n/a	n/a	n/a
"TRUE"	"preload"	"182"	"392074"	"0.0-6.0-0.0"	"277bd4"	"600"	"1366"	"chrome"	"111.0.0"	"FALSE"	"Windows 10"	"60.17"	"054"	n/a	n/a	n/a	n/a	n/a	n/a	n/a	n/a	n/a	n/a	n/a	"NULL"	"FALSE"	"list()"	"list()"	"list()"	n/a	n/a	n/a	n/a	n/a	n/a	n/a	n/a	n/a	n/a	n/a
n/a	"html-keyboard-response"	"183"	"396496"	"0.0-6.0-1.0"	"277bd4"	"600"	"1366"	"chrome"	"111.0.0"	"FALSE"	"Windows 10"	"60.17"	"054"	n/a	n/a	n/a	n/a	n/a	n/a	n/a	n/a	n/a	n/a	"4420"	"enter"	n/a	"NULL"	"NULL"	"NULL"	"<p><b>Part 2/6</b></p><p>In this part, two red circles will appear side by side on the screen.</p><p>Your task is to select which <b>red circle is bigger</b> in size as fast as you can, without making errors.</p><p>Don't get distracted by the surrounding black circles around the red circles!</p><p>Press <b>the LEFT or the RIGHT arrow</b> to indicate which is the bigger <b>red circle.</b></p><div style='float: center'><img src='materials/instructions/Ebbinghaus_Demo.png' height='300'></img><p><img src='utils/answer/answer_leftright_keyboard.PNG' height='150'></img></p><p class='small'>In this example, the correct answer is the <b>LEFT arrow</b>.</p></div><p>Are you ready? <b>Press ENTER to start</b></p>"	n/a	n/a	n/a	n/a	n/a	n/a	n/a	n/a	n/a	n/a
n/a	"html-keyboard-response"	"184"	"398398"	"0.0-6.0-2.0-0.0"	"277bd4"	"600"	"1366"	"chrome"	"111.0.0"	"FALSE"	"Windows 10"	"60.17"	"054"	n/a	n/a	n/a	n/a	n/a	n/a	"fixation"	n/a	n/a	n/a	n/a	"NULL"	n/a	"NULL"	"NULL"	"NULL"	"<p style=\"color: black; font-size: 80px; padding-left: 28%; padding-right: 48%; padding-top: 46%; padding-bottom: 5%\">+</p>"	"1372"	n/a	n/a	n/a	n/a	n/a	n/a	n/a	n/a	n/a
n/a	"image-keyboard-response"	"185"	"399194"	"0.0-6.0-2.0-1.0"	"277bd4"	"600"	"1366"	"chrome"	"111.0.0"	"FALSE"	"Windows 10"	"60.17"	"054"	n/a	n/a	n/a	n/a	n/a	n/a	"Trial"	n/a	n/a	n/a	"796"	"arrowleft"	n/a	"NULL"	"NULL"	"NULL"	"stimuli/Ebbinghaus_0.35714_0.11071.png"	n/a	"Ebbinghaus"	"arrowleft"	"1902"	"TRUE"	"Ebbinghaus"	"0.3571400000"	"0.1107100000"	"2"	"1"
n/a	"html-keyboard-response"	"186"	"400228"	"0.0-6.0-2.0-0.1"	"277bd4"	"600"	"1366"	"chrome"	"111.0.0"	"FALSE"	"Windows 10"	"60.17"	"054"	n/a	n/a	n/a	n/a	n/a	n/a	"fixation"	n/a	n/a	n/a	n/a	"NULL"	n/a	"NULL"	"NULL"	"NULL"	"<p style=\"color: black; font-size: 80px; padding-left: 38%; padding-right: 5%; padding-top: 32%; padding-bottom: 38%\">+</p>"	"1026"	n/a	n/a	n/a	n/a	n/a	n/a	n/a	n/a	n/a
n/a	"image-keyboard-response"	"187"	"401051"	"0.0-6.0-2.0-1.1"	"277bd4"	"600"	"1366"	"chrome"	"111.0.0"	"FALSE"	"Windows 10"	"60.17"	"054"	n/a	n/a	n/a	n/a	n/a	n/a	"Trial"	n/a	n/a	n/a	"821"	"arrowleft"	n/a	"NULL"	"NULL"	"NULL"	"stimuli/Ebbinghaus_-0.35714_0.11071.png"	n/a	"Ebbinghaus"	"arrowleft"	"1034"	"TRUE"	"Ebbinghaus"	"-0.357140000"	"0.1107100000"	"2"	"2"
n/a	"html-keyboard-response"	"188"	"402436"	"0.0-6.0-2.0-0.2"	"277bd4"	"600"	"1366"	"chrome"	"111.0.0"	"FALSE"	"Windows 10"	"60.17"	"054"	n/a	n/a	n/a	n/a	n/a	n/a	"fixation"	n/a	n/a	n/a	n/a	"NULL"	n/a	"NULL"	"NULL"	"NULL"	"<p style=\"color: black; font-size: 80px; padding-left: 24%; padding-right: 41%; padding-top: 46%; padding-bottom: 36%\">+</p>"	"1371"	n/a	n/a	n/a	n/a	n/a	n/a	n/a	n/a	n/a
n/a	"image-keyboard-response"	"189"	"403243"	"0.0-6.0-2.0-1.2"	"277bd4"	"600"	"1366"	"chrome"	"111.0.0"	"FALSE"	"Windows 10"	"60.17"	"054"	n/a	n/a	n/a	n/a	n/a	n/a	"Trial"	n/a	n/a	n/a	"806"	"arrowright"	n/a	"NULL"	"NULL"	"NULL"	"stimuli/Ebbinghaus_0.35714_0.15857.png"	n/a	"Ebbinghaus"	"arrowleft"	"1385"	"FALSE"	"Ebbinghaus"	"0.3571400000"	"0.1585700000"	"2"	"3"
n/a	"html-keyboard-response"	"190"	"404341"	"0.0-6.0-2.0-0.3"	"277bd4"	"600"	"1366"	"chrome"	"111.0.0"	"FALSE"	"Windows 10"	"60.17"	"054"	n/a	n/a	n/a	n/a	n/a	n/a	"fixation"	n/a	n/a	n/a	n/a	"NULL"	n/a	"NULL"	"NULL"	"NULL"	"<p style=\"color: black; font-size: 80px; padding-left: 46%; padding-right: 19%; padding-top: 18%; padding-bottom: 11%\">+</p>"	"1088"	n/a	n/a	n/a	n/a	n/a	n/a	n/a	n/a	n/a
n/a	"image-keyboard-response"	"191"	"404938"	"0.0-6.0-2.0-1.3"	"277bd4"	"600"	"1366"	"chrome"	"111.0.0"	"FALSE"	"Windows 10"	"60.17"	"054"	n/a	n/a	n/a	n/a	n/a	n/a	"Trial"	n/a	n/a	n/a	"597"	"arrowright"	n/a	"NULL"	"NULL"	"NULL"	"stimuli/Ebbinghaus_-0.35714_-0.2150.png"	n/a	"Ebbinghaus"	"arrowright"	"1098"	"TRUE"	"Ebbinghaus"	"-0.357140000"	"-0.215000000"	"2"	"4"
n/a	"html-keyboard-response"	"192"	"406310"	"0.0-6.0-2.0-0.4"	"277bd4"	"600"	"1366"	"chrome"	"111.0.0"	"FALSE"	"Windows 10"	"60.17"	"054"	n/a	n/a	n/a	n/a	n/a	n/a	"fixation"	n/a	n/a	n/a	n/a	"NULL"	n/a	"NULL"	"NULL"	"NULL"	"<p style=\"color: black; font-size: 80px; padding-left: 46%; padding-right: 26%; padding-top: 4%; padding-bottom: 35%\">+</p>"	"1365"	n/a	n/a	n/a	n/a	n/a	n/a	n/a	n/a	n/a
n/a	"image-keyboard-response"	"193"	"406851"	"0.0-6.0-2.0-1.4"	"277bd4"	"600"	"1366"	"chrome"	"111.0.0"	"FALSE"	"Windows 10"	"60.17"	"054"	n/a	n/a	n/a	n/a	n/a	n/a	"Trial"	n/a	n/a	n/a	"541"	"arrowright"	n/a	"NULL"	"NULL"	"NULL"	"stimuli/Ebbinghaus_-0.87143_-0.15857.png"	n/a	"Ebbinghaus"	"arrowright"	"1372"	"TRUE"	"Ebbinghaus"	"-0.871430000"	"-0.158570000"	"2"	"5"
n/a	"html-keyboard-response"	"194"	"407915"	"0.0-6.0-2.0-0.5"	"277bd4"	"600"	"1366"	"chrome"	"111.0.0"	"FALSE"	"Windows 10"	"60.17"	"054"	n/a	n/a	n/a	n/a	n/a	n/a	"fixation"	n/a	n/a	n/a	n/a	"NULL"	n/a	"NULL"	"NULL"	"NULL"	"<p style=\"color: black; font-size: 80px; padding-left: 12%; padding-right: 37%; padding-top: 11%; padding-bottom: 22%\">+</p>"	"1049"	n/a	n/a	n/a	n/a	n/a	n/a	n/a	n/a	n/a
n/a	"image-keyboard-response"	"195"	"408365"	"0.0-6.0-2.0-1.5"	"277bd4"	"600"	"1366"	"chrome"	"111.0.0"	"FALSE"	"Windows 10"	"60.17"	"054"	n/a	n/a	n/a	n/a	n/a	n/a	"Trial"	n/a	n/a	n/a	"449"	"arrowright"	n/a	"NULL"	"NULL"	"NULL"	"stimuli/Ebbinghaus_0.61429_-0.2150.png"	n/a	"Ebbinghaus"	"arrowright"	"1064"	"TRUE"	"Ebbinghaus"	"0.6142900000"	"-0.215000000"	"2"	"6"
n/a	"html-keyboard-response"	"196"	"409703"	"0.0-6.0-2.0-0.6"	"277bd4"	"600"	"1366"	"chrome"	"111.0.0"	"FALSE"	"Windows 10"	"60.17"	"054"	n/a	n/a	n/a	n/a	n/a	n/a	"fixation"	n/a	n/a	n/a	n/a	"NULL"	n/a	"NULL"	"NULL"	"NULL"	"<p style=\"color: black; font-size: 80px; padding-left: 18%; padding-right: 4%; padding-top: 26%; padding-bottom: 17%\">+</p>"	"1323"	n/a	n/a	n/a	n/a	n/a	n/a	n/a	n/a	n/a
n/a	"image-keyboard-response"	"197"	"410524"	"0.0-6.0-2.0-1.6"	"277bd4"	"600"	"1366"	"chrome"	"111.0.0"	"FALSE"	"Windows 10"	"60.17"	"054"	n/a	n/a	n/a	n/a	n/a	n/a	"Trial"	n/a	n/a	n/a	"821"	"arrowright"	n/a	"NULL"	"NULL"	"NULL"	"stimuli/Ebbinghaus_0.87143_0.15857.png"	n/a	"Ebbinghaus"	"arrowleft"	"1338"	"FALSE"	"Ebbinghaus"	"0.8714300000"	"0.1585700000"	"2"	"7"
n/a	"html-keyboard-response"	"198"	"412022"	"0.0-6.0-2.0-0.7"	"277bd4"	"600"	"1366"	"chrome"	"111.0.0"	"FALSE"	"Windows 10"	"60.17"	"054"	n/a	n/a	n/a	n/a	n/a	n/a	"fixation"	n/a	n/a	n/a	n/a	"NULL"	n/a	"NULL"	"NULL"	"NULL"	"<p style=\"color: black; font-size: 80px; padding-left: 30%; padding-right: 17%; padding-top: 7%; padding-bottom: 24%\">+</p>"	"1482"	n/a	n/a	n/a	n/a	n/a	n/a	n/a	n/a	n/a
n/a	"image-keyboard-response"	"199"	"412549"	"0.0-6.0-2.0-1.7"	"277bd4"	"600"	"1366"	"chrome"	"111.0.0"	"FALSE"	"Windows 10"	"60.17"	"054"	n/a	n/a	n/a	n/a	n/a	n/a	"Trial"	n/a	n/a	n/a	"526"	"arrowright"	n/a	"NULL"	"NULL"	"NULL"	"stimuli/Ebbinghaus_0.10000_0.15857.png"	n/a	"Ebbinghaus"	"arrowleft"	"1498"	"FALSE"	"Ebbinghaus"	"0.1000000000"	"0.1585700000"	"2"	"8"
n/a	"html-keyboard-response"	"200"	"413903"	"0.0-6.0-2.0-0.8"	"277bd4"	"600"	"1366"	"chrome"	"111.0.0"	"FALSE"	"Windows 10"	"60.17"	"054"	n/a	n/a	n/a	n/a	n/a	n/a	"fixation"	n/a	n/a	n/a	n/a	"NULL"	n/a	"NULL"	"NULL"	"NULL"	"<p style=\"color: black; font-size: 80px; padding-left: 29%; padding-right: 38%; padding-top: 9%; padding-bottom: 42%\">+</p>"	"1344"	n/a	n/a	n/a	n/a	n/a	n/a	n/a	n/a	n/a
n/a	"image-keyboard-response"	"201"	"414646"	"0.0-6.0-2.0-1.8"	"277bd4"	"600"	"1366"	"chrome"	"111.0.0"	"FALSE"	"Windows 10"	"60.17"	"054"	n/a	n/a	n/a	n/a	n/a	n/a	"Trial"	n/a	n/a	n/a	"741"	"arrowleft"	n/a	"NULL"	"NULL"	"NULL"	"stimuli/Ebbinghaus_-0.35714_0.15857.png"	n/a	"Ebbinghaus"	"arrowleft"	"1354"	"TRUE"	"Ebbinghaus"	"-0.357140000"	"0.1585700000"	"2"	"9"
n/a	"html-keyboard-response"	"202"	"415884"	"0.0-6.0-2.0-0.9"	"277bd4"	"600"	"1366"	"chrome"	"111.0.0"	"FALSE"	"Windows 10"	"60.17"	"054"	n/a	n/a	n/a	n/a	n/a	n/a	"fixation"	n/a	n/a	n/a	n/a	"NULL"	n/a	"NULL"	"NULL"	"NULL"	"<p style=\"color: black; font-size: 80px; padding-left: 3%; padding-right: 2%; padding-top: 20%; padding-bottom: 36%\">+</p>"	"1223"	n/a	n/a	n/a	n/a	n/a	n/a	n/a	n/a	n/a
n/a	"image-keyboard-response"	"203"	"416674"	"0.0-6.0-2.0-1.9"	"277bd4"	"600"	"1366"	"chrome"	"111.0.0"	"FALSE"	"Windows 10"	"60.17"	"054"	n/a	n/a	n/a	n/a	n/a	n/a	"Trial"	n/a	n/a	n/a	"789"	"arrowleft"	n/a	"NULL"	"NULL"	"NULL"	"stimuli/Ebbinghaus_0.87143_0.28000.png"	n/a	"Ebbinghaus"	"arrowleft"	"1238"	"TRUE"	"Ebbinghaus"	"0.8714300000"	"0.2800000000"	"2"	"10"
n/a	"html-keyboard-response"	"204"	"418136"	"0.0-6.0-2.0-0.10"	"277bd4"	"600"	"1366"	"chrome"	"111.0.0"	"FALSE"	"Windows 10"	"60.17"	"054"	n/a	n/a	n/a	n/a	n/a	n/a	"fixation"	n/a	n/a	n/a	n/a	"NULL"	n/a	"NULL"	"NULL"	"NULL"	"<p style=\"color: black; font-size: 80px; padding-left: 30%; padding-right: 42%; padding-top: 24%; padding-bottom: 10%\">+</p>"	"1452"	n/a	n/a	n/a	n/a	n/a	n/a	n/a	n/a	n/a
n/a	"image-keyboard-response"	"205"	"418867"	"0.0-6.0-2.0-1.10"	"277bd4"	"600"	"1366"	"chrome"	"111.0.0"	"FALSE"	"Windows 10"	"60.17"	"054"	n/a	n/a	n/a	n/a	n/a	n/a	"Trial"	n/a	n/a	n/a	"730"	"arrowleft"	n/a	"NULL"	"NULL"	"NULL"	"stimuli/Ebbinghaus_0.35714_0.28000.png"	n/a	"Ebbinghaus"	"arrowleft"	"1462"	"TRUE"	"Ebbinghaus"	"0.3571400000"	"0.2800000000"	"2"	"11"
n/a	"html-keyboard-response"	"206"	"419926"	"0.0-6.0-2.0-0.11"	"277bd4"	"600"	"1366"	"chrome"	"111.0.0"	"FALSE"	"Windows 10"	"60.17"	"054"	n/a	n/a	n/a	n/a	n/a	n/a	"fixation"	n/a	n/a	n/a	n/a	"NULL"	n/a	"NULL"	"NULL"	"NULL"	"<p style=\"color: black; font-size: 80px; padding-left: 4%; padding-right: 5%; padding-top: 12%; padding-bottom: 10%\">+</p>"	"1055"	n/a	n/a	n/a	n/a	n/a	n/a	n/a	n/a	n/a
n/a	"image-keyboard-response"	"207"	"420523"	"0.0-6.0-2.0-1.11"	"277bd4"	"600"	"1366"	"chrome"	"111.0.0"	"FALSE"	"Windows 10"	"60.17"	"054"	n/a	n/a	n/a	n/a	n/a	n/a	"Trial"	n/a	n/a	n/a	"596"	"arrowright"	n/a	"NULL"	"NULL"	"NULL"	"stimuli/Ebbinghaus_-0.35714_-0.2800.png"	n/a	"Ebbinghaus"	"arrowright"	"1059"	"TRUE"	"Ebbinghaus"	"-0.357140000"	"-0.280000000"	"2"	"12"
n/a	"html-keyboard-response"	"208"	"421894"	"0.0-6.0-2.0-0.12"	"277bd4"	"600"	"1366"	"chrome"	"111.0.0"	"FALSE"	"Windows 10"	"60.17"	"054"	n/a	n/a	n/a	n/a	n/a	n/a	"fixation"	n/a	n/a	n/a	n/a	"NULL"	n/a	"NULL"	"NULL"	"NULL"	"<p style=\"color: black; font-size: 80px; padding-left: 20%; padding-right: 11%; padding-top: 46%; padding-bottom: 14%\">+</p>"	"1370"	n/a	n/a	n/a	n/a	n/a	n/a	n/a	n/a	n/a
n/a	"image-keyboard-response"	"209"	"422384"	"0.0-6.0-2.0-1.12"	"277bd4"	"600"	"1366"	"chrome"	"111.0.0"	"FALSE"	"Windows 10"	"60.17"	"054"	n/a	n/a	n/a	n/a	n/a	n/a	"Trial"	n/a	n/a	n/a	"489"	"arrowright"	n/a	"NULL"	"NULL"	"NULL"	"stimuli/Ebbinghaus_0.10000_-0.2150.png"	n/a	"Ebbinghaus"	"arrowright"	"1371"	"TRUE"	"Ebbinghaus"	"0.1000000000"	"-0.215000000"	"2"	"13"
n/a	"html-keyboard-response"	"210"	"423719"	"0.0-6.0-2.0-0.13"	"277bd4"	"600"	"1366"	"chrome"	"111.0.0"	"FALSE"	"Windows 10"	"60.17"	"054"	n/a	n/a	n/a	n/a	n/a	n/a	"fixation"	n/a	n/a	n/a	n/a	"NULL"	n/a	"NULL"	"NULL"	"NULL"	"<p style=\"color: black; font-size: 80px; padding-left: 30%; padding-right: 23%; padding-top: 24%; padding-bottom: 10%\">+</p>"	"1326"	n/a	n/a	n/a	n/a	n/a	n/a	n/a	n/a	n/a
n/a	"image-keyboard-response"	"211"	"424207"	"0.0-6.0-2.0-1.13"	"277bd4"	"600"	"1366"	"chrome"	"111.0.0"	"FALSE"	"Windows 10"	"60.17"	"054"	n/a	n/a	n/a	n/a	n/a	n/a	"Trial"	n/a	n/a	n/a	"487"	"arrowleft"	n/a	"NULL"	"NULL"	"NULL"	"stimuli/Ebbinghaus_-0.35714_0.21500.png"	n/a	"Ebbinghaus"	"arrowleft"	"1335"	"TRUE"	"Ebbinghaus"	"-0.357140000"	"0.2150000000"	"2"	"14"
n/a	"html-keyboard-response"	"212"	"425654"	"0.0-6.0-2.0-0.14"	"277bd4"	"600"	"1366"	"chrome"	"111.0.0"	"FALSE"	"Windows 10"	"60.17"	"054"	n/a	n/a	n/a	n/a	n/a	n/a	"fixation"	n/a	n/a	n/a	n/a	"NULL"	n/a	"NULL"	"NULL"	"NULL"	"<p style=\"color: black; font-size: 80px; padding-left: 38%; padding-right: 36%; padding-top: 30%; padding-bottom: 7%\">+</p>"	"1439"	n/a	n/a	n/a	n/a	n/a	n/a	n/a	n/a	n/a
n/a	"image-keyboard-response"	"213"	"426432"	"0.0-6.0-2.0-1.14"	"277bd4"	"600"	"1366"	"chrome"	"111.0.0"	"FALSE"	"Windows 10"	"60.17"	"054"	n/a	n/a	n/a	n/a	n/a	n/a	"Trial"	n/a	n/a	n/a	"777"	"arrowleft"	n/a	"NULL"	"NULL"	"NULL"	"stimuli/Ebbinghaus_-0.1000_0.15857.png"	n/a	"Ebbinghaus"	"arrowleft"	"1447"	"TRUE"	"Ebbinghaus"	"-0.100000000"	"0.1585700000"	"2"	"15"
n/a	"html-keyboard-response"	"214"	"427822"	"0.0-6.0-2.0-0.15"	"277bd4"	"600"	"1366"	"chrome"	"111.0.0"	"FALSE"	"Windows 10"	"60.17"	"054"	n/a	n/a	n/a	n/a	n/a	n/a	"fixation"	n/a	n/a	n/a	n/a	"NULL"	n/a	"NULL"	"NULL"	"NULL"	"<p style=\"color: black; font-size: 80px; padding-left: 44%; padding-right: 43%; padding-top: 7%; padding-bottom: 37%\">+</p>"	"1374"	n/a	n/a	n/a	n/a	n/a	n/a	n/a	n/a	n/a
n/a	"image-keyboard-response"	"215"	"428351"	"0.0-6.0-2.0-1.15"	"277bd4"	"600"	"1366"	"chrome"	"111.0.0"	"FALSE"	"Windows 10"	"60.17"	"054"	n/a	n/a	n/a	n/a	n/a	n/a	"Trial"	n/a	n/a	n/a	"526"	"arrowright"	n/a	"NULL"	"NULL"	"NULL"	"stimuli/Ebbinghaus_0.87143_-0.2800.png"	n/a	"Ebbinghaus"	"arrowright"	"1390"	"TRUE"	"Ebbinghaus"	"0.8714300000"	"-0.280000000"	"2"	"16"
n/a	"html-keyboard-response"	"216"	"429389"	"0.0-6.0-2.0-0.16"	"277bd4"	"600"	"1366"	"chrome"	"111.0.0"	"FALSE"	"Windows 10"	"60.17"	"054"	n/a	n/a	n/a	n/a	n/a	n/a	"fixation"	n/a	n/a	n/a	n/a	"NULL"	n/a	"NULL"	"NULL"	"NULL"	"<p style=\"color: black; font-size: 80px; padding-left: 27%; padding-right: 30%; padding-top: 0%; padding-bottom: 31%\">+</p>"	"1026"	n/a	n/a	n/a	n/a	n/a	n/a	n/a	n/a	n/a
n/a	"image-keyboard-response"	"217"	"430113"	"0.0-6.0-2.0-1.16"	"277bd4"	"600"	"1366"	"chrome"	"111.0.0"	"FALSE"	"Windows 10"	"60.17"	"054"	n/a	n/a	n/a	n/a	n/a	n/a	"Trial"	n/a	n/a	n/a	"723"	"arrowright"	n/a	"NULL"	"NULL"	"NULL"	"stimuli/Ebbinghaus_0.61429_-0.2800.png"	n/a	"Ebbinghaus"	"arrowright"	"1038"	"TRUE"	"Ebbinghaus"	"0.6142900000"	"-0.280000000"	"2"	"17"
n/a	"html-keyboard-response"	"218"	"431297"	"0.0-6.0-2.0-0.17"	"277bd4"	"600"	"1366"	"chrome"	"111.0.0"	"FALSE"	"Windows 10"	"60.17"	"054"	n/a	n/a	n/a	n/a	n/a	n/a	"fixation"	n/a	n/a	n/a	n/a	"NULL"	n/a	"NULL"	"NULL"	"NULL"	"<p style=\"color: black; font-size: 80px; padding-left: 28%; padding-right: 48%; padding-top: 47%; padding-bottom: 45%\">+</p>"	"1177"	n/a	n/a	n/a	n/a	n/a	n/a	n/a	n/a	n/a
n/a	"image-keyboard-response"	"219"	"432118"	"0.0-6.0-2.0-1.17"	"277bd4"	"600"	"1366"	"chrome"	"111.0.0"	"FALSE"	"Windows 10"	"60.17"	"054"	n/a	n/a	n/a	n/a	n/a	n/a	"Trial"	n/a	n/a	n/a	"820"	"arrowright"	n/a	"NULL"	"NULL"	"NULL"	"stimuli/Ebbinghaus_0.35714_-0.2800.png"	n/a	"Ebbinghaus"	"arrowright"	"1184"	"TRUE"	"Ebbinghaus"	"0.3571400000"	"-0.280000000"	"2"	"18"
n/a	"html-keyboard-response"	"220"	"433305"	"0.0-6.0-2.0-0.18"	"277bd4"	"600"	"1366"	"chrome"	"111.0.0"	"FALSE"	"Windows 10"	"60.17"	"054"	n/a	n/a	n/a	n/a	n/a	n/a	"fixation"	n/a	n/a	n/a	n/a	"NULL"	n/a	"NULL"	"NULL"	"NULL"	"<p style=\"color: black; font-size: 80px; padding-left: 44%; padding-right: 34%; padding-top: 42%; padding-bottom: 7%\">+</p>"	"1182"	n/a	n/a	n/a	n/a	n/a	n/a	n/a	n/a	n/a
n/a	"image-keyboard-response"	"221"	"434167"	"0.0-6.0-2.0-1.18"	"277bd4"	"600"	"1366"	"chrome"	"111.0.0"	"FALSE"	"Windows 10"	"60.17"	"054"	n/a	n/a	n/a	n/a	n/a	n/a	"Trial"	n/a	n/a	n/a	"862"	"arrowright"	n/a	"NULL"	"NULL"	"NULL"	"stimuli/Ebbinghaus_0.87143_-0.2150.png"	n/a	"Ebbinghaus"	"arrowright"	"1187"	"TRUE"	"Ebbinghaus"	"0.8714300000"	"-0.215000000"	"2"	"19"
n/a	"html-keyboard-response"	"222"	"435264"	"0.0-6.0-2.0-0.19"	"277bd4"	"600"	"1366"	"chrome"	"111.0.0"	"FALSE"	"Windows 10"	"60.17"	"054"	n/a	n/a	n/a	n/a	n/a	n/a	"fixation"	n/a	n/a	n/a	n/a	"NULL"	n/a	"NULL"	"NULL"	"NULL"	"<p style=\"color: black; font-size: 80px; padding-left: 48%; padding-right: 24%; padding-top: 28%; padding-bottom: 22%\">+</p>"	"1089"	n/a	n/a	n/a	n/a	n/a	n/a	n/a	n/a	n/a
n/a	"image-keyboard-response"	"223"	"436337"	"0.0-6.0-2.0-1.19"	"277bd4"	"600"	"1366"	"chrome"	"111.0.0"	"FALSE"	"Windows 10"	"60.17"	"054"	n/a	n/a	n/a	n/a	n/a	n/a	"Trial"	n/a	n/a	n/a	"1073"	"arrowleft"	n/a	"NULL"	"NULL"	"NULL"	"stimuli/Ebbinghaus_0.10000_-0.11071.png"	n/a	"Ebbinghaus"	"arrowright"	"1097"	"FALSE"	"Ebbinghaus"	"0.1000000000"	"-0.110710000"	"2"	"20"
n/a	"html-keyboard-response"	"224"	"437631"	"0.0-6.0-2.0-0.20"	"277bd4"	"600"	"1366"	"chrome"	"111.0.0"	"FALSE"	"Windows 10"	"60.17"	"054"	n/a	n/a	n/a	n/a	n/a	n/a	"fixation"	n/a	n/a	n/a	n/a	"NULL"	n/a	"NULL"	"NULL"	"NULL"	"<p style=\"color: black; font-size: 80px; padding-left: 27%; padding-right: 10%; padding-top: 38%; padding-bottom: 26%\">+</p>"	"1278"	n/a	n/a	n/a	n/a	n/a	n/a	n/a	n/a	n/a
n/a	"image-keyboard-response"	"225"	"438552"	"0.0-6.0-2.0-1.20"	"277bd4"	"600"	"1366"	"chrome"	"111.0.0"	"FALSE"	"Windows 10"	"60.17"	"054"	n/a	n/a	n/a	n/a	n/a	n/a	"Trial"	n/a	n/a	n/a	"920"	"arrowleft"	n/a	"NULL"	"NULL"	"NULL"	"stimuli/Ebbinghaus_0.87143_0.21500.png"	n/a	"Ebbinghaus"	"arrowleft"	"1294"	"TRUE"	"Ebbinghaus"	"0.8714300000"	"0.2150000000"	"2"	"21"
n/a	"html-keyboard-response"	"226"	"439638"	"0.0-6.0-2.0-0.21"	"277bd4"	"600"	"1366"	"chrome"	"111.0.0"	"FALSE"	"Windows 10"	"60.17"	"054"	n/a	n/a	n/a	n/a	n/a	n/a	"fixation"	n/a	n/a	n/a	n/a	"NULL"	n/a	"NULL"	"NULL"	"NULL"	"<p style=\"color: black; font-size: 80px; padding-left: 3%; padding-right: 18%; padding-top: 48%; padding-bottom: 49%\">+</p>"	"1077"	n/a	n/a	n/a	n/a	n/a	n/a	n/a	n/a	n/a
n/a	"image-keyboard-response"	"227"	"440448"	"0.0-6.0-2.0-1.21"	"277bd4"	"600"	"1366"	"chrome"	"111.0.0"	"FALSE"	"Windows 10"	"60.17"	"054"	n/a	n/a	n/a	n/a	n/a	n/a	"Trial"	n/a	n/a	n/a	"809"	"arrowright"	n/a	"NULL"	"NULL"	"NULL"	"stimuli/Ebbinghaus_0.35714_-0.11071.png"	n/a	"Ebbinghaus"	"arrowright"	"1086"	"TRUE"	"Ebbinghaus"	"0.3571400000"	"-0.110710000"	"2"	"22"
n/a	"html-keyboard-response"	"228"	"441725"	"0.0-6.0-2.0-0.22"	"277bd4"	"600"	"1366"	"chrome"	"111.0.0"	"FALSE"	"Windows 10"	"60.17"	"054"	n/a	n/a	n/a	n/a	n/a	n/a	"fixation"	n/a	n/a	n/a	n/a	"NULL"	n/a	"NULL"	"NULL"	"NULL"	"<p style=\"color: black; font-size: 80px; padding-left: 40%; padding-right: 16%; padding-top: 12%; padding-bottom: 13%\">+</p>"	"1270"	n/a	n/a	n/a	n/a	n/a	n/a	n/a	n/a	n/a
n/a	"image-keyboard-response"	"229"	"442781"	"0.0-6.0-2.0-1.22"	"277bd4"	"600"	"1366"	"chrome"	"111.0.0"	"FALSE"	"Windows 10"	"60.17"	"054"	n/a	n/a	n/a	n/a	n/a	n/a	"Trial"	n/a	n/a	n/a	"1055"	"arrowright"	n/a	"NULL"	"NULL"	"NULL"	"stimuli/Ebbinghaus_-0.61429_-0.11071.png"	n/a	"Ebbinghaus"	"arrowright"	"1277"	"TRUE"	"Ebbinghaus"	"-0.614290000"	"-0.110710000"	"2"	"23"
n/a	"html-keyboard-response"	"230"	"444006"	"0.0-6.0-2.0-0.23"	"277bd4"	"600"	"1366"	"chrome"	"111.0.0"	"FALSE"	"Windows 10"	"60.17"	"054"	n/a	n/a	n/a	n/a	n/a	n/a	"fixation"	n/a	n/a	n/a	n/a	"NULL"	n/a	"NULL"	"NULL"	"NULL"	"<p style=\"color: black; font-size: 80px; padding-left: 7%; padding-right: 47%; padding-top: 2%; padding-bottom: 34%\">+</p>"	"1220"	n/a	n/a	n/a	n/a	n/a	n/a	n/a	n/a	n/a
n/a	"image-keyboard-response"	"231"	"444759"	"0.0-6.0-2.0-1.23"	"277bd4"	"600"	"1366"	"chrome"	"111.0.0"	"FALSE"	"Windows 10"	"60.17"	"054"	n/a	n/a	n/a	n/a	n/a	n/a	"Trial"	n/a	n/a	n/a	"750"	"arrowleft"	n/a	"NULL"	"NULL"	"NULL"	"stimuli/Ebbinghaus_0.10000_0.21500.png"	n/a	"Ebbinghaus"	"arrowleft"	"1225"	"TRUE"	"Ebbinghaus"	"0.1000000000"	"0.2150000000"	"2"	"24"
n/a	"html-keyboard-response"	"232"	"445786"	"0.0-6.0-2.0-0.24"	"277bd4"	"600"	"1366"	"chrome"	"111.0.0"	"FALSE"	"Windows 10"	"60.17"	"054"	n/a	n/a	n/a	n/a	n/a	n/a	"fixation"	n/a	n/a	n/a	n/a	"NULL"	n/a	"NULL"	"NULL"	"NULL"	"<p style=\"color: black; font-size: 80px; padding-left: 34%; padding-right: 48%; padding-top: 22%; padding-bottom: 12%\">+</p>"	"1020"	n/a	n/a	n/a	n/a	n/a	n/a	n/a	n/a	n/a
n/a	"image-keyboard-response"	"233"	"446859"	"0.0-6.0-2.0-1.24"	"277bd4"	"600"	"1366"	"chrome"	"111.0.0"	"FALSE"	"Windows 10"	"60.17"	"054"	n/a	n/a	n/a	n/a	n/a	n/a	"Trial"	n/a	n/a	n/a	"1073"	"arrowright"	n/a	"NULL"	"NULL"	"NULL"	"stimuli/Ebbinghaus_0.35714_0.21500.png"	n/a	"Ebbinghaus"	"arrowleft"	"1027"	"FALSE"	"Ebbinghaus"	"0.3571400000"	"0.2150000000"	"2"	"25"
n/a	"html-keyboard-response"	"234"	"448014"	"0.0-6.0-2.0-0.25"	"277bd4"	"600"	"1366"	"chrome"	"111.0.0"	"FALSE"	"Windows 10"	"60.17"	"054"	n/a	n/a	n/a	n/a	n/a	n/a	"fixation"	n/a	n/a	n/a	n/a	"NULL"	n/a	"NULL"	"NULL"	"NULL"	"<p style=\"color: black; font-size: 80px; padding-left: 14%; padding-right: 48%; padding-top: 43%; padding-bottom: 28%\">+</p>"	"1143"	n/a	n/a	n/a	n/a	n/a	n/a	n/a	n/a	n/a
n/a	"image-keyboard-response"	"235"	"448683"	"0.0-6.0-2.0-1.25"	"277bd4"	"600"	"1366"	"chrome"	"111.0.0"	"FALSE"	"Windows 10"	"60.17"	"054"	n/a	n/a	n/a	n/a	n/a	n/a	"Trial"	n/a	n/a	n/a	"669"	"arrowright"	n/a	"NULL"	"NULL"	"NULL"	"stimuli/Ebbinghaus_-0.61429_-0.2150.png"	n/a	"Ebbinghaus"	"arrowright"	"1155"	"TRUE"	"Ebbinghaus"	"-0.614290000"	"-0.215000000"	"2"	"26"
n/a	"html-keyboard-response"	"236"	"450045"	"0.0-6.0-2.0-0.26"	"277bd4"	"600"	"1366"	"chrome"	"111.0.0"	"FALSE"	"Windows 10"	"60.17"	"054"	n/a	n/a	n/a	n/a	n/a	n/a	"fixation"	n/a	n/a	n/a	n/a	"NULL"	n/a	"NULL"	"NULL"	"NULL"	"<p style=\"color: black; font-size: 80px; padding-left: 50%; padding-right: 35%; padding-top: 22%; padding-bottom: 23%\">+</p>"	"1347"	n/a	n/a	n/a	n/a	n/a	n/a	n/a	n/a	n/a
n/a	"image-keyboard-response"	"237"	"450918"	"0.0-6.0-2.0-1.26"	"277bd4"	"600"	"1366"	"chrome"	"111.0.0"	"FALSE"	"Windows 10"	"60.17"	"054"	n/a	n/a	n/a	n/a	n/a	n/a	"Trial"	n/a	n/a	n/a	"872"	"arrowright"	n/a	"NULL"	"NULL"	"NULL"	"stimuli/Ebbinghaus_-0.1000_-0.15857.png"	n/a	"Ebbinghaus"	"arrowright"	"1362"	"TRUE"	"Ebbinghaus"	"-0.100000000"	"-0.158570000"	"2"	"27"
n/a	"html-keyboard-response"	"238"	"452139"	"0.0-6.0-2.0-0.27"	"277bd4"	"600"	"1366"	"chrome"	"111.0.0"	"FALSE"	"Windows 10"	"60.17"	"054"	n/a	n/a	n/a	n/a	n/a	n/a	"fixation"	n/a	n/a	n/a	n/a	"NULL"	n/a	"NULL"	"NULL"	"NULL"	"<p style=\"color: black; font-size: 80px; padding-left: 11%; padding-right: 17%; padding-top: 17%; padding-bottom: 18%\">+</p>"	"1212"	n/a	n/a	n/a	n/a	n/a	n/a	n/a	n/a	n/a
n/a	"image-keyboard-response"	"239"	"453641"	"0.0-6.0-2.0-1.27"	"277bd4"	"600"	"1366"	"chrome"	"111.0.0"	"FALSE"	"Windows 10"	"60.17"	"054"	n/a	n/a	n/a	n/a	n/a	n/a	"Trial"	n/a	n/a	n/a	"1502"	"arrowleft"	n/a	"NULL"	"NULL"	"NULL"	"stimuli/Ebbinghaus_0.61429_0.15857.png"	n/a	"Ebbinghaus"	"arrowleft"	"1221"	"TRUE"	"Ebbinghaus"	"0.6142900000"	"0.1585700000"	"2"	"28"
n/a	"html-keyboard-response"	"240"	"455073"	"0.0-6.0-2.0-0.28"	"277bd4"	"600"	"1366"	"chrome"	"111.0.0"	"FALSE"	"Windows 10"	"60.17"	"054"	n/a	n/a	n/a	n/a	n/a	n/a	"fixation"	n/a	n/a	n/a	n/a	"NULL"	n/a	"NULL"	"NULL"	"NULL"	"<p style=\"color: black; font-size: 80px; padding-left: 18%; padding-right: 3%; padding-top: 47%; padding-bottom: 46%\">+</p>"	"1429"	n/a	n/a	n/a	n/a	n/a	n/a	n/a	n/a	n/a
n/a	"image-keyboard-response"	"241"	"455819"	"0.0-6.0-2.0-1.28"	"277bd4"	"600"	"1366"	"chrome"	"111.0.0"	"FALSE"	"Windows 10"	"60.17"	"054"	n/a	n/a	n/a	n/a	n/a	n/a	"Trial"	n/a	n/a	n/a	"745"	"arrowleft"	n/a	"NULL"	"NULL"	"NULL"	"stimuli/Ebbinghaus_-0.1000_0.28000.png"	n/a	"Ebbinghaus"	"arrowleft"	"1432"	"TRUE"	"Ebbinghaus"	"-0.100000000"	"0.2800000000"	"2"	"29"
n/a	"html-keyboard-response"	"242"	"457184"	"0.0-6.0-2.0-0.29"	"277bd4"	"600"	"1366"	"chrome"	"111.0.0"	"FALSE"	"Windows 10"	"60.17"	"054"	n/a	n/a	n/a	n/a	n/a	n/a	"fixation"	n/a	n/a	n/a	n/a	"NULL"	n/a	"NULL"	"NULL"	"NULL"	"<p style=\"color: black; font-size: 80px; padding-left: 3%; padding-right: 42%; padding-top: 4%; padding-bottom: 25%\">+</p>"	"1354"	n/a	n/a	n/a	n/a	n/a	n/a	n/a	n/a	n/a
n/a	"image-keyboard-response"	"243"	"457873"	"0.0-6.0-2.0-1.29"	"277bd4"	"600"	"1366"	"chrome"	"111.0.0"	"FALSE"	"Windows 10"	"60.17"	"054"	n/a	n/a	n/a	n/a	n/a	n/a	"Trial"	n/a	n/a	n/a	"685"	"arrowleft"	n/a	"NULL"	"NULL"	"NULL"	"stimuli/Ebbinghaus_-0.61429_0.15857.png"	n/a	"Ebbinghaus"	"arrowleft"	"1365"	"TRUE"	"Ebbinghaus"	"-0.614290000"	"0.1585700000"	"2"	"30"
n/a	"html-keyboard-response"	"244"	"459325"	"0.0-6.0-2.0-0.30"	"277bd4"	"600"	"1366"	"chrome"	"111.0.0"	"FALSE"	"Windows 10"	"60.17"	"054"	n/a	n/a	n/a	n/a	n/a	n/a	"fixation"	n/a	n/a	n/a	n/a	"NULL"	n/a	"NULL"	"NULL"	"NULL"	"<p style=\"color: black; font-size: 80px; padding-left: 23%; padding-right: 33%; padding-top: 4%; padding-bottom: 41%\">+</p>"	"1437"	n/a	n/a	n/a	n/a	n/a	n/a	n/a	n/a	n/a
n/a	"image-keyboard-response"	"245"	"459832"	"0.0-6.0-2.0-1.30"	"277bd4"	"600"	"1366"	"chrome"	"111.0.0"	"FALSE"	"Windows 10"	"60.17"	"054"	n/a	n/a	n/a	n/a	n/a	n/a	"Trial"	n/a	n/a	n/a	"506"	"arrowright"	n/a	"NULL"	"NULL"	"NULL"	"stimuli/Ebbinghaus_-0.35714_-0.15857.png"	n/a	"Ebbinghaus"	"arrowright"	"1452"	"TRUE"	"Ebbinghaus"	"-0.357140000"	"-0.158570000"	"2"	"31"
n/a	"html-keyboard-response"	"246"	"461306"	"0.0-6.0-2.0-0.31"	"277bd4"	"600"	"1366"	"chrome"	"111.0.0"	"FALSE"	"Windows 10"	"60.17"	"054"	n/a	n/a	n/a	n/a	n/a	n/a	"fixation"	n/a	n/a	n/a	n/a	"NULL"	n/a	"NULL"	"NULL"	"NULL"	"<p style=\"color: black; font-size: 80px; padding-left: 26%; padding-right: 35%; padding-top: 21%; padding-bottom: 34%\">+</p>"	"1462"	n/a	n/a	n/a	n/a	n/a	n/a	n/a	n/a	n/a
n/a	"image-keyboard-response"	"247"	"461795"	"0.0-6.0-2.0-1.31"	"277bd4"	"600"	"1366"	"chrome"	"111.0.0"	"FALSE"	"Windows 10"	"60.17"	"054"	n/a	n/a	n/a	n/a	n/a	n/a	"Trial"	n/a	n/a	n/a	"489"	"arrowright"	n/a	"NULL"	"NULL"	"NULL"	"stimuli/Ebbinghaus_0.10000_-0.2800.png"	n/a	"Ebbinghaus"	"arrowright"	"1474"	"TRUE"	"Ebbinghaus"	"0.1000000000"	"-0.280000000"	"2"	"32"
n/a	"html-keyboard-response"	"248"	"463233"	"0.0-6.0-2.0-0.32"	"277bd4"	"600"	"1366"	"chrome"	"111.0.0"	"FALSE"	"Windows 10"	"60.17"	"054"	n/a	n/a	n/a	n/a	n/a	n/a	"fixation"	n/a	n/a	n/a	n/a	"NULL"	n/a	"NULL"	"NULL"	"NULL"	"<p style=\"color: black; font-size: 80px; padding-left: 17%; padding-right: 32%; padding-top: 32%; padding-bottom: 34%\">+</p>"	"1429"	n/a	n/a	n/a	n/a	n/a	n/a	n/a	n/a	n/a
