"success"	"trial_type"	"trial_index"	"time_elapsed"	"internal_node_id"	"participant_id"	"screen_height"	"screen_width"	"browser"	"browser_version"	"mobile"	"os"	"vsync_rate"	"subject_id"	"width"	"height"	"webaudio"	"fullscreen"	"webcam"	"microphone"	"screen"	"version"	"date"	"time"	"rt"	"response"	"timeout"	"failed_images"	"failed_audio"	"failed_video"	"stimulus"	"trial_duration"	"block"	"correct_response"	"prestimulus_duration"	"correct"	"type"	"illusion_strength"	"illusion_difference"	"block_number"	"trial_number"
"TRUE"	"fullscreen"	"0"	"4261"	"0.0-0.0"	"ufvy5m"	"600"	"1366"	"chrome"	"111.0.0"	"FALSE"	"Windows 10"	"60.3"	"058"	n/a	n/a	n/a	n/a	n/a	n/a	n/a	n/a	n/a	n/a	n/a	"NULL"	n/a	"NULL"	"NULL"	"NULL"	n/a	n/a	n/a	n/a	n/a	n/a	n/a	n/a	n/a	n/a	n/a
n/a	"browser-check"	"1"	"5266"	"0.0-1.0"	"ufvy5m"	"600"	"1366"	"chrome"	"111.0.0"	"FALSE"	"Windows 10"	"60.3"	"058"	"1366"	"600"	"TRUE"	"TRUE"	"TRUE"	"TRUE"	"browser_info"	"1.0"	"24/03/2023"	"16:20:08"	n/a	"NULL"	n/a	"NULL"	"NULL"	"NULL"	n/a	n/a	n/a	n/a	n/a	n/a	n/a	n/a	n/a	n/a	n/a
n/a	"survey-text"	"2"	"9273"	"0.0-2.0"	"ufvy5m"	"600"	"1366"	"chrome"	"111.0.0"	"FALSE"	"Windows 10"	"60.3"	"058"	n/a	n/a	n/a	n/a	n/a	n/a	"subject_id"	n/a	n/a	n/a	"4003"	"list(subject_id = \"058\")"	n/a	"NULL"	"NULL"	"NULL"	n/a	n/a	n/a	n/a	n/a	n/a	n/a	n/a	n/a	n/a	n/a
"TRUE"	"preload"	"3"	"9284"	"0.0-3.0"	"ufvy5m"	"600"	"1366"	"chrome"	"111.0.0"	"FALSE"	"Windows 10"	"60.3"	"058"	n/a	n/a	n/a	n/a	n/a	n/a	n/a	n/a	n/a	n/a	n/a	"NULL"	"FALSE"	"list()"	"list()"	"list()"	n/a	n/a	n/a	n/a	n/a	n/a	n/a	n/a	n/a	n/a	n/a
n/a	"html-button-response"	"4"	"25817"	"0.0-4.0-0.0"	"ufvy5m"	"600"	"1366"	"chrome"	"111.0.0"	"FALSE"	"Windows 10"	"60.3"	"058"	n/a	n/a	n/a	n/a	n/a	n/a	"illusion_instructions"	n/a	n/a	n/a	"16532"	"0"	n/a	"NULL"	"NULL"	"NULL"	"<p><b>Illusion Game</b></p><p>In this game of speed and reflex, you will need to make <b>visual judgments</b> (for instance, which circle is the biggest, or which line is the longest), as fast and as correctly as possible, while <b>resisting different visual illusions</b>.</p><p>We are going to start with some examples of all the illusions you will encounter in the game.</p>"	n/a	n/a	n/a	n/a	n/a	n/a	n/a	n/a	n/a	n/a
"TRUE"	"preload"	"5"	"25834"	"0.0-4.0-1.0-0.0"	"ufvy5m"	"600"	"1366"	"chrome"	"111.0.0"	"FALSE"	"Windows 10"	"60.3"	"058"	n/a	n/a	n/a	n/a	n/a	n/a	n/a	n/a	n/a	n/a	n/a	"NULL"	"FALSE"	"list()"	"list()"	"list()"	n/a	n/a	n/a	n/a	n/a	n/a	n/a	n/a	n/a	n/a	n/a
n/a	"html-keyboard-response"	"6"	"54816"	"0.0-4.0-1.0-1.0"	"ufvy5m"	"600"	"1366"	"chrome"	"111.0.0"	"FALSE"	"Windows 10"	"60.3"	"058"	n/a	n/a	n/a	n/a	n/a	n/a	n/a	n/a	n/a	n/a	"28981"	"enter"	n/a	"NULL"	"NULL"	"NULL"	"<p><b>Practice</b></p><p>In this part, two red circles will appear side by side on the screen.</p><p>Your task is to select which <b>red circle is bigger</b> in size as fast as you can, without making errors.</p><p>Don't get distracted by the surrounding black circles around the red circles!</p><p>Press <b>the LEFT or the RIGHT arrow</b> to indicate which is the bigger <b>red circle.</b></p><div style='float: center'><img src='materials/instructions/Ebbinghaus_Demo.png' height='300'></img><p><img src='utils/answer/answer_leftright_keyboard.PNG' height='150'></img></p><p class='small'>In this example, the correct answer is the <b>LEFT arrow</b>.</p></div><p>Are you ready? <b>Press ENTER to start</b></p>"	n/a	n/a	n/a	n/a	n/a	n/a	n/a	n/a	n/a	n/a
n/a	"html-keyboard-response"	"7"	"56365"	"0.0-4.0-1.0-2.0-0.0"	"ufvy5m"	"600"	"1366"	"chrome"	"111.0.0"	"FALSE"	"Windows 10"	"60.3"	"058"	n/a	n/a	n/a	n/a	n/a	n/a	"fixation"	n/a	n/a	n/a	n/a	"NULL"	n/a	"NULL"	"NULL"	"NULL"	"<p style=\"color: black; font-size: 80px; padding-left: 36%; padding-right: 8%; padding-top: 39%; padding-bottom: 40%\">+</p>"	"1036"	n/a	n/a	n/a	n/a	n/a	n/a	n/a	n/a	n/a
n/a	"image-keyboard-response"	"8"	"56974"	"0.0-4.0-1.0-2.0-1.0"	"ufvy5m"	"600"	"1366"	"chrome"	"111.0.0"	"FALSE"	"Windows 10"	"60.3"	"058"	n/a	n/a	n/a	n/a	n/a	n/a	"Trial"	n/a	n/a	n/a	"599"	"arrowleft"	n/a	"NULL"	"NULL"	"NULL"	"stimuli/Ebbinghaus_-100000_1.40000.png"	n/a	"Ebbinghaus"	"arrowleft"	"1549"	"TRUE"	"Ebbinghaus"	"-10000000000"	"1.4000000000"	"1"	"1"
n/a	"html-keyboard-response"	"9"	"58226"	"0.0-4.0-1.0-2.0-0.1"	"ufvy5m"	"600"	"1366"	"chrome"	"111.0.0"	"FALSE"	"Windows 10"	"60.3"	"058"	n/a	n/a	n/a	n/a	n/a	n/a	"fixation"	n/a	n/a	n/a	n/a	"NULL"	n/a	"NULL"	"NULL"	"NULL"	"<p style=\"color: black; font-size: 80px; padding-left: 10%; padding-right: 6%; padding-top: 39%; padding-bottom: 5%\">+</p>"	"1239"	n/a	n/a	n/a	n/a	n/a	n/a	n/a	n/a	n/a
n/a	"image-keyboard-response"	"10"	"58681"	"0.0-4.0-1.0-2.0-1.1"	"ufvy5m"	"600"	"1366"	"chrome"	"111.0.0"	"FALSE"	"Windows 10"	"60.3"	"058"	n/a	n/a	n/a	n/a	n/a	n/a	"Trial"	n/a	n/a	n/a	"454"	"arrowleft"	n/a	"NULL"	"NULL"	"NULL"	"stimuli/Ebbinghaus_1000000_1.40000.png"	n/a	"Ebbinghaus"	"arrowleft"	"1252"	"TRUE"	"Ebbinghaus"	"100000000000"	"1.4000000000"	"1"	"2"
n/a	"html-keyboard-response"	"11"	"60066"	"0.0-4.0-1.0-2.0-0.2"	"ufvy5m"	"600"	"1366"	"chrome"	"111.0.0"	"FALSE"	"Windows 10"	"60.3"	"058"	n/a	n/a	n/a	n/a	n/a	n/a	"fixation"	n/a	n/a	n/a	n/a	"NULL"	n/a	"NULL"	"NULL"	"NULL"	"<p style=\"color: black; font-size: 80px; padding-left: 30%; padding-right: 31%; padding-top: 10%; padding-bottom: 26%\">+</p>"	"1383"	n/a	n/a	n/a	n/a	n/a	n/a	n/a	n/a	n/a
n/a	"image-keyboard-response"	"12"	"60496"	"0.0-4.0-1.0-2.0-1.2"	"ufvy5m"	"600"	"1366"	"chrome"	"111.0.0"	"FALSE"	"Windows 10"	"60.3"	"058"	n/a	n/a	n/a	n/a	n/a	n/a	"Trial"	n/a	n/a	n/a	"429"	"arrowleft"	n/a	"NULL"	"NULL"	"NULL"	"stimuli/Ebbinghaus_0000000_1.40000.png"	n/a	"Ebbinghaus"	"arrowleft"	"1385"	"TRUE"	"Ebbinghaus"	"000000000000"	"1.4000000000"	"1"	"3"
n/a	"html-keyboard-response"	"13"	"61734"	"0.0-4.0-1.0-2.0-0.3"	"ufvy5m"	"600"	"1366"	"chrome"	"111.0.0"	"FALSE"	"Windows 10"	"60.3"	"058"	n/a	n/a	n/a	n/a	n/a	n/a	"fixation"	n/a	n/a	n/a	n/a	"NULL"	n/a	"NULL"	"NULL"	"NULL"	"<p style=\"color: black; font-size: 80px; padding-left: 5%; padding-right: 49%; padding-top: 30%; padding-bottom: 2%\">+</p>"	"1225"	n/a	n/a	n/a	n/a	n/a	n/a	n/a	n/a	n/a
n/a	"image-keyboard-response"	"14"	"62328"	"0.0-4.0-1.0-2.0-1.3"	"ufvy5m"	"600"	"1366"	"chrome"	"111.0.0"	"FALSE"	"Windows 10"	"60.3"	"058"	n/a	n/a	n/a	n/a	n/a	n/a	"Trial"	n/a	n/a	n/a	"593"	"arrowright"	n/a	"NULL"	"NULL"	"NULL"	"stimuli/Ebbinghaus_1000000_-1.4000.png"	n/a	"Ebbinghaus"	"arrowright"	"1238"	"TRUE"	"Ebbinghaus"	"100000000000"	"-1.400000000"	"1"	"4"
n/a	"html-keyboard-response"	"15"	"63577"	"0.0-4.0-1.0-2.0-0.4"	"ufvy5m"	"600"	"1366"	"chrome"	"111.0.0"	"FALSE"	"Windows 10"	"60.3"	"058"	n/a	n/a	n/a	n/a	n/a	n/a	"fixation"	n/a	n/a	n/a	n/a	"NULL"	n/a	"NULL"	"NULL"	"NULL"	"<p style=\"color: black; font-size: 80px; padding-left: 32%; padding-right: 46%; padding-top: 9%; padding-bottom: 45%\">+</p>"	"1247"	n/a	n/a	n/a	n/a	n/a	n/a	n/a	n/a	n/a
n/a	"image-keyboard-response"	"16"	"64058"	"0.0-4.0-1.0-2.0-1.4"	"ufvy5m"	"600"	"1366"	"chrome"	"111.0.0"	"FALSE"	"Windows 10"	"60.3"	"058"	n/a	n/a	n/a	n/a	n/a	n/a	"Trial"	n/a	n/a	n/a	"480"	"arrowright"	n/a	"NULL"	"NULL"	"NULL"	"stimuli/Ebbinghaus_0000000_-1.4000.png"	n/a	"Ebbinghaus"	"arrowright"	"1249"	"TRUE"	"Ebbinghaus"	"000000000000"	"-1.400000000"	"1"	"5"
n/a	"html-keyboard-response"	"17"	"65438"	"0.0-4.0-1.0-2.0-0.5"	"ufvy5m"	"600"	"1366"	"chrome"	"111.0.0"	"FALSE"	"Windows 10"	"60.3"	"058"	n/a	n/a	n/a	n/a	n/a	n/a	"fixation"	n/a	n/a	n/a	n/a	"NULL"	n/a	"NULL"	"NULL"	"NULL"	"<p style=\"color: black; font-size: 80px; padding-left: 7%; padding-right: 40%; padding-top: 31%; padding-bottom: 1%\">+</p>"	"1375"	n/a	n/a	n/a	n/a	n/a	n/a	n/a	n/a	n/a
n/a	"image-keyboard-response"	"18"	"65927"	"0.0-4.0-1.0-2.0-1.5"	"ufvy5m"	"600"	"1366"	"chrome"	"111.0.0"	"FALSE"	"Windows 10"	"60.3"	"058"	n/a	n/a	n/a	n/a	n/a	n/a	"Trial"	n/a	n/a	n/a	"488"	"arrowright"	n/a	"NULL"	"NULL"	"NULL"	"stimuli/Ebbinghaus_-100000_-1.4000.png"	n/a	"Ebbinghaus"	"arrowright"	"1380"	"TRUE"	"Ebbinghaus"	"-10000000000"	"-1.400000000"	"1"	"6"
n/a	"html-button-response"	"19"	"81812"	"0.0-4.0-1.0-3.0"	"ufvy5m"	"600"	"1366"	"chrome"	"111.0.0"	"FALSE"	"Windows 10"	"60.3"	"058"	n/a	n/a	n/a	n/a	n/a	n/a	"practice_block_results"	n/a	n/a	n/a	"15884"	"0"	n/a	"NULL"	"NULL"	"NULL"	"<p style='color:rgb(76,175,80);'> Correct Responses: <b>100.00%</b></p><hr><p style='color:rgb(233,30,99);'> Average Response Time: <b>507.17</b> ms.</p>"	n/a	n/a	n/a	n/a	n/a	n/a	n/a	n/a	n/a	n/a
"TRUE"	"preload"	"20"	"82327"	"0.0-4.0-2.0-0.0"	"ufvy5m"	"600"	"1366"	"chrome"	"111.0.0"	"FALSE"	"Windows 10"	"60.3"	"058"	n/a	n/a	n/a	n/a	n/a	n/a	n/a	n/a	n/a	n/a	n/a	"NULL"	"FALSE"	"list()"	"list()"	"list()"	n/a	n/a	n/a	n/a	n/a	n/a	n/a	n/a	n/a	n/a	n/a
n/a	"html-keyboard-response"	"21"	"90937"	"0.0-4.0-2.0-1.0"	"ufvy5m"	"600"	"1366"	"chrome"	"111.0.0"	"FALSE"	"Windows 10"	"60.3"	"058"	n/a	n/a	n/a	n/a	n/a	n/a	n/a	n/a	n/a	n/a	"8609"	"enter"	n/a	"NULL"	"NULL"	"NULL"	"<p><b>Practice</b></p><p>In this part, two horizontal red lines will appear one above the other.</p><p>Your task is to select which <b>line is longer</b> in length as fast as you can, without making errors.</p><p>Don't get distracted by the surrounding black arrows at the end of the red lines!</p><p>Press <b>the UP or the DOWN arrow</b> to indicate where is the longer <b>red line.</b></p><div style='float: center'><img src='materials/instructions/MullerLyer_Demo.png' height='300'></img><p><img src='utils/answer/answer_updown_keyboard.PNG' height='150'></img></p><p class='small'>In this example, the correct answer is the <b>UP arrow</b>.</p></div><p>Are you ready? <b>Press ENTER to start</b></p>"	n/a	n/a	n/a	n/a	n/a	n/a	n/a	n/a	n/a	n/a
n/a	"html-keyboard-response"	"22"	"92669"	"0.0-4.0-2.0-2.0-0.0"	"ufvy5m"	"600"	"1366"	"chrome"	"111.0.0"	"FALSE"	"Windows 10"	"60.3"	"058"	n/a	n/a	n/a	n/a	n/a	n/a	"fixation"	n/a	n/a	n/a	n/a	"NULL"	n/a	"NULL"	"NULL"	"NULL"	"<p style=\"color: black; font-size: 80px; padding-left: 34%; padding-right: 22%; padding-top: 10%; padding-bottom: 8%\">+</p>"	"1215"	n/a	n/a	n/a	n/a	n/a	n/a	n/a	n/a	n/a
n/a	"image-keyboard-response"	"23"	"93957"	"0.0-4.0-2.0-2.0-1.0"	"ufvy5m"	"600"	"1366"	"chrome"	"111.0.0"	"FALSE"	"Windows 10"	"60.3"	"058"	n/a	n/a	n/a	n/a	n/a	n/a	"Trial"	n/a	n/a	n/a	"1288"	"arrowdown"	n/a	"NULL"	"NULL"	"NULL"	"stimuli/MullerLyer_0000000_-0.7000.png"	n/a	"MullerLyer"	"arrowdown"	"1732"	"TRUE"	"MullerLyer"	"000000000000"	"-0.700000000"	"1"	"7"
n/a	"html-keyboard-response"	"24"	"95170"	"0.0-4.0-2.0-2.0-0.1"	"ufvy5m"	"600"	"1366"	"chrome"	"111.0.0"	"FALSE"	"Windows 10"	"60.3"	"058"	n/a	n/a	n/a	n/a	n/a	n/a	"fixation"	n/a	n/a	n/a	n/a	"NULL"	n/a	"NULL"	"NULL"	"NULL"	"<p style=\"color: black; font-size: 80px; padding-left: 0%; padding-right: 34%; padding-top: 22%; padding-bottom: 40%\">+</p>"	"1203"	n/a	n/a	n/a	n/a	n/a	n/a	n/a	n/a	n/a
n/a	"image-keyboard-response"	"25"	"95676"	"0.0-4.0-2.0-2.0-1.1"	"ufvy5m"	"600"	"1366"	"chrome"	"111.0.0"	"FALSE"	"Windows 10"	"60.3"	"058"	n/a	n/a	n/a	n/a	n/a	n/a	"Trial"	n/a	n/a	n/a	"506"	"arrowup"	n/a	"NULL"	"NULL"	"NULL"	"stimuli/MullerLyer_-230000_0.70000.png"	n/a	"MullerLyer"	"arrowup"	"1213"	"TRUE"	"MullerLyer"	"-23000000000"	"0.7000000000"	"1"	"8"
n/a	"html-keyboard-response"	"26"	"96821"	"0.0-4.0-2.0-2.0-0.2"	"ufvy5m"	"600"	"1366"	"chrome"	"111.0.0"	"FALSE"	"Windows 10"	"60.3"	"058"	n/a	n/a	n/a	n/a	n/a	n/a	"fixation"	n/a	n/a	n/a	n/a	"NULL"	n/a	"NULL"	"NULL"	"NULL"	"<p style=\"color: black; font-size: 80px; padding-left: 23%; padding-right: 50%; padding-top: 28%; padding-bottom: 1%\">+</p>"	"1139"	n/a	n/a	n/a	n/a	n/a	n/a	n/a	n/a	n/a
n/a	"image-keyboard-response"	"27"	"97538"	"0.0-4.0-2.0-2.0-1.2"	"ufvy5m"	"600"	"1366"	"chrome"	"111.0.0"	"FALSE"	"Windows 10"	"60.3"	"058"	n/a	n/a	n/a	n/a	n/a	n/a	"Trial"	n/a	n/a	n/a	"716"	"arrowdown"	n/a	"NULL"	"NULL"	"NULL"	"stimuli/MullerLyer_2300000_-0.7000.png"	n/a	"MullerLyer"	"arrowdown"	"1145"	"TRUE"	"MullerLyer"	"230000000000"	"-0.700000000"	"1"	"9"
n/a	"html-keyboard-response"	"28"	"98756"	"0.0-4.0-2.0-2.0-0.3"	"ufvy5m"	"600"	"1366"	"chrome"	"111.0.0"	"FALSE"	"Windows 10"	"60.3"	"058"	n/a	n/a	n/a	n/a	n/a	n/a	"fixation"	n/a	n/a	n/a	n/a	"NULL"	n/a	"NULL"	"NULL"	"NULL"	"<p style=\"color: black; font-size: 80px; padding-left: 25%; padding-right: 41%; padding-top: 36%; padding-bottom: 27%\">+</p>"	"1209"	n/a	n/a	n/a	n/a	n/a	n/a	n/a	n/a	n/a
n/a	"image-keyboard-response"	"29"	"99272"	"0.0-4.0-2.0-2.0-1.3"	"ufvy5m"	"600"	"1366"	"chrome"	"111.0.0"	"FALSE"	"Windows 10"	"60.3"	"058"	n/a	n/a	n/a	n/a	n/a	n/a	"Trial"	n/a	n/a	n/a	"515"	"arrowup"	n/a	"NULL"	"NULL"	"NULL"	"stimuli/MullerLyer_0000000_0.70000.png"	n/a	"MullerLyer"	"arrowup"	"1218"	"TRUE"	"MullerLyer"	"000000000000"	"0.7000000000"	"1"	"10"
n/a	"html-keyboard-response"	"30"	"100706"	"0.0-4.0-2.0-2.0-0.4"	"ufvy5m"	"600"	"1366"	"chrome"	"111.0.0"	"FALSE"	"Windows 10"	"60.3"	"058"	n/a	n/a	n/a	n/a	n/a	n/a	"fixation"	n/a	n/a	n/a	n/a	"NULL"	n/a	"NULL"	"NULL"	"NULL"	"<p style=\"color: black; font-size: 80px; padding-left: 9%; padding-right: 15%; padding-top: 22%; padding-bottom: 11%\">+</p>"	"1428"	n/a	n/a	n/a	n/a	n/a	n/a	n/a	n/a	n/a
n/a	"image-keyboard-response"	"31"	"101208"	"0.0-4.0-2.0-2.0-1.4"	"ufvy5m"	"600"	"1366"	"chrome"	"111.0.0"	"FALSE"	"Windows 10"	"60.3"	"058"	n/a	n/a	n/a	n/a	n/a	n/a	"Trial"	n/a	n/a	n/a	"501"	"arrowup"	n/a	"NULL"	"NULL"	"NULL"	"stimuli/MullerLyer_2300000_0.70000.png"	n/a	"MullerLyer"	"arrowup"	"1434"	"TRUE"	"MullerLyer"	"230000000000"	"0.7000000000"	"1"	"11"
n/a	"html-keyboard-response"	"32"	"102574"	"0.0-4.0-2.0-2.0-0.5"	"ufvy5m"	"600"	"1366"	"chrome"	"111.0.0"	"FALSE"	"Windows 10"	"60.3"	"058"	n/a	n/a	n/a	n/a	n/a	n/a	"fixation"	n/a	n/a	n/a	n/a	"NULL"	n/a	"NULL"	"NULL"	"NULL"	"<p style=\"color: black; font-size: 80px; padding-left: 13%; padding-right: 33%; padding-top: 30%; padding-bottom: 50%\">+</p>"	"1354"	n/a	n/a	n/a	n/a	n/a	n/a	n/a	n/a	n/a
n/a	"image-keyboard-response"	"33"	"103092"	"0.0-4.0-2.0-2.0-1.5"	"ufvy5m"	"600"	"1366"	"chrome"	"111.0.0"	"FALSE"	"Windows 10"	"60.3"	"058"	n/a	n/a	n/a	n/a	n/a	n/a	"Trial"	n/a	n/a	n/a	"517"	"arrowdown"	n/a	"NULL"	"NULL"	"NULL"	"stimuli/MullerLyer_-230000_-0.7000.png"	n/a	"MullerLyer"	"arrowdown"	"1366"	"TRUE"	"MullerLyer"	"-23000000000"	"-0.700000000"	"1"	"12"
n/a	"html-button-response"	"34"	"106811"	"0.0-4.0-2.0-3.0"	"ufvy5m"	"600"	"1366"	"chrome"	"111.0.0"	"FALSE"	"Windows 10"	"60.3"	"058"	n/a	n/a	n/a	n/a	n/a	n/a	"practice_block_results"	n/a	n/a	n/a	"3718"	"0"	n/a	"NULL"	"NULL"	"NULL"	"<p style='color:rgb(76,175,80);'> Correct Responses: <b>100.00%</b></p><hr><p style='color:rgb(233,30,99);'> Average Response Time: <b>673.83</b> ms.</p>"	n/a	n/a	n/a	n/a	n/a	n/a	n/a	n/a	n/a	n/a
"TRUE"	"preload"	"35"	"107337"	"0.0-4.0-3.0-0.0"	"ufvy5m"	"600"	"1366"	"chrome"	"111.0.0"	"FALSE"	"Windows 10"	"60.3"	"058"	n/a	n/a	n/a	n/a	n/a	n/a	n/a	n/a	n/a	n/a	n/a	"NULL"	"FALSE"	"list()"	"list()"	"list()"	n/a	n/a	n/a	n/a	n/a	n/a	n/a	n/a	n/a	n/a	n/a
n/a	"html-keyboard-response"	"36"	"114634"	"0.0-4.0-3.0-1.0"	"ufvy5m"	"600"	"1366"	"chrome"	"111.0.0"	"FALSE"	"Windows 10"	"60.3"	"058"	n/a	n/a	n/a	n/a	n/a	n/a	n/a	n/a	n/a	n/a	"7297"	"enter"	n/a	"NULL"	"NULL"	"NULL"	"<p><b>Practice</b></p><p>In this part, two red lines will appear side by side.</p><p>Your task is to tell <b>which line is longer</b> in length, regardless of their orientation, as fast as you can, and without making errors.</p><p>Don't get distracted by the orientation of the lines!</p><p>Press <b>the LEFT or the RIGHT arrow</b> to indicate which <b>line is the longer one.</b></p><div style='float: center'><img src='materials/instructions/VerticalHorizontal_Demo.png' height='300'></img><p><img src='utils/answer/answer_leftright_keyboard.PNG' height='150'></img></p><p class='small'>In this example, the correct answer is the <b>LEFT arrow</b>.</p></div><p>Are you ready? <b>Press ENTER to start</b></p>"	n/a	n/a	n/a	n/a	n/a	n/a	n/a	n/a	n/a	n/a
n/a	"html-keyboard-response"	"37"	"116166"	"0.0-4.0-3.0-2.0-0.0"	"ufvy5m"	"600"	"1366"	"chrome"	"111.0.0"	"FALSE"	"Windows 10"	"60.3"	"058"	n/a	n/a	n/a	n/a	n/a	n/a	"fixation"	n/a	n/a	n/a	n/a	"NULL"	n/a	"NULL"	"NULL"	"NULL"	"<p style=\"color: black; font-size: 80px; padding-left: 43%; padding-right: 42%; padding-top: 10%; padding-bottom: 14%\">+</p>"	"1029"	n/a	n/a	n/a	n/a	n/a	n/a	n/a	n/a	n/a
n/a	"image-keyboard-response"	"38"	"116577"	"0.0-4.0-3.0-2.0-1.0"	"ufvy5m"	"600"	"1366"	"chrome"	"111.0.0"	"FALSE"	"Windows 10"	"60.3"	"058"	n/a	n/a	n/a	n/a	n/a	n/a	"Trial"	n/a	n/a	n/a	"410"	"arrowleft"	n/a	"NULL"	"NULL"	"NULL"	"stimuli/VerticalHorizontal_-330000_0.90000.png"	n/a	"VerticalHorizontal"	"arrowleft"	"1532"	"TRUE"	"VerticalHorizontal"	"-33000000000"	"0.9000000000"	"1"	"13"
n/a	"html-keyboard-response"	"39"	"117726"	"0.0-4.0-3.0-2.0-0.1"	"ufvy5m"	"600"	"1366"	"chrome"	"111.0.0"	"FALSE"	"Windows 10"	"60.3"	"058"	n/a	n/a	n/a	n/a	n/a	n/a	"fixation"	n/a	n/a	n/a	n/a	"NULL"	n/a	"NULL"	"NULL"	"NULL"	"<p style=\"color: black; font-size: 80px; padding-left: 43%; padding-right: 1%; padding-top: 17%; padding-bottom: 1%\">+</p>"	"1147"	n/a	n/a	n/a	n/a	n/a	n/a	n/a	n/a	n/a
n/a	"image-keyboard-response"	"40"	"118125"	"0.0-4.0-3.0-2.0-1.1"	"ufvy5m"	"600"	"1366"	"chrome"	"111.0.0"	"FALSE"	"Windows 10"	"60.3"	"058"	n/a	n/a	n/a	n/a	n/a	n/a	"Trial"	n/a	n/a	n/a	"398"	"arrowleft"	n/a	"NULL"	"NULL"	"NULL"	"stimuli/VerticalHorizontal_0000000_0.90000.png"	n/a	"VerticalHorizontal"	"arrowleft"	"1149"	"TRUE"	"VerticalHorizontal"	"000000000000"	"0.9000000000"	"1"	"14"
n/a	"html-keyboard-response"	"41"	"119434"	"0.0-4.0-3.0-2.0-0.2"	"ufvy5m"	"600"	"1366"	"chrome"	"111.0.0"	"FALSE"	"Windows 10"	"60.3"	"058"	n/a	n/a	n/a	n/a	n/a	n/a	"fixation"	n/a	n/a	n/a	n/a	"NULL"	n/a	"NULL"	"NULL"	"NULL"	"<p style=\"color: black; font-size: 80px; padding-left: 49%; padding-right: 13%; padding-top: 18%; padding-bottom: 45%\">+</p>"	"1294"	n/a	n/a	n/a	n/a	n/a	n/a	n/a	n/a	n/a
n/a	"image-keyboard-response"	"42"	"119863"	"0.0-4.0-3.0-2.0-1.2"	"ufvy5m"	"600"	"1366"	"chrome"	"111.0.0"	"FALSE"	"Windows 10"	"60.3"	"058"	n/a	n/a	n/a	n/a	n/a	n/a	"Trial"	n/a	n/a	n/a	"428"	"arrowright"	n/a	"NULL"	"NULL"	"NULL"	"stimuli/VerticalHorizontal_3300000_-0.9000.png"	n/a	"VerticalHorizontal"	"arrowright"	"1309"	"TRUE"	"VerticalHorizontal"	"330000000000"	"-0.900000000"	"1"	"15"
n/a	"html-keyboard-response"	"43"	"121304"	"0.0-4.0-3.0-2.0-0.3"	"ufvy5m"	"600"	"1366"	"chrome"	"111.0.0"	"FALSE"	"Windows 10"	"60.3"	"058"	n/a	n/a	n/a	n/a	n/a	n/a	"fixation"	n/a	n/a	n/a	n/a	"NULL"	n/a	"NULL"	"NULL"	"NULL"	"<p style=\"color: black; font-size: 80px; padding-left: 18%; padding-right: 13%; padding-top: 22%; padding-bottom: 17%\">+</p>"	"1425"	n/a	n/a	n/a	n/a	n/a	n/a	n/a	n/a	n/a
n/a	"image-keyboard-response"	"44"	"121749"	"0.0-4.0-3.0-2.0-1.3"	"ufvy5m"	"600"	"1366"	"chrome"	"111.0.0"	"FALSE"	"Windows 10"	"60.3"	"058"	n/a	n/a	n/a	n/a	n/a	n/a	"Trial"	n/a	n/a	n/a	"445"	"arrowleft"	n/a	"NULL"	"NULL"	"NULL"	"stimuli/VerticalHorizontal_3300000_0.90000.png"	n/a	"VerticalHorizontal"	"arrowleft"	"1441"	"TRUE"	"VerticalHorizontal"	"330000000000"	"0.9000000000"	"1"	"16"
n/a	"html-keyboard-response"	"45"	"122858"	"0.0-4.0-3.0-2.0-0.4"	"ufvy5m"	"600"	"1366"	"chrome"	"111.0.0"	"FALSE"	"Windows 10"	"60.3"	"058"	n/a	n/a	n/a	n/a	n/a	n/a	"fixation"	n/a	n/a	n/a	n/a	"NULL"	n/a	"NULL"	"NULL"	"NULL"	"<p style=\"color: black; font-size: 80px; padding-left: 31%; padding-right: 13%; padding-top: 33%; padding-bottom: 21%\">+</p>"	"1103"	n/a	n/a	n/a	n/a	n/a	n/a	n/a	n/a	n/a
n/a	"image-keyboard-response"	"46"	"123323"	"0.0-4.0-3.0-2.0-1.4"	"ufvy5m"	"600"	"1366"	"chrome"	"111.0.0"	"FALSE"	"Windows 10"	"60.3"	"058"	n/a	n/a	n/a	n/a	n/a	n/a	"Trial"	n/a	n/a	n/a	"464"	"arrowright"	n/a	"NULL"	"NULL"	"NULL"	"stimuli/VerticalHorizontal_-330000_-0.9000.png"	n/a	"VerticalHorizontal"	"arrowright"	"1109"	"TRUE"	"VerticalHorizontal"	"-33000000000"	"-0.900000000"	"1"	"17"
n/a	"html-keyboard-response"	"47"	"124492"	"0.0-4.0-3.0-2.0-0.5"	"ufvy5m"	"600"	"1366"	"chrome"	"111.0.0"	"FALSE"	"Windows 10"	"60.3"	"058"	n/a	n/a	n/a	n/a	n/a	n/a	"fixation"	n/a	n/a	n/a	n/a	"NULL"	n/a	"NULL"	"NULL"	"NULL"	"<p style=\"color: black; font-size: 80px; padding-left: 45%; padding-right: 44%; padding-top: 4%; padding-bottom: 37%\">+</p>"	"1161"	n/a	n/a	n/a	n/a	n/a	n/a	n/a	n/a	n/a
n/a	"image-keyboard-response"	"48"	"124891"	"0.0-4.0-3.0-2.0-1.5"	"ufvy5m"	"600"	"1366"	"chrome"	"111.0.0"	"FALSE"	"Windows 10"	"60.3"	"058"	n/a	n/a	n/a	n/a	n/a	n/a	"Trial"	n/a	n/a	n/a	"398"	"arrowright"	n/a	"NULL"	"NULL"	"NULL"	"stimuli/VerticalHorizontal_0000000_-0.9000.png"	n/a	"VerticalHorizontal"	"arrowright"	"1169"	"TRUE"	"VerticalHorizontal"	"000000000000"	"-0.900000000"	"1"	"18"
n/a	"html-button-response"	"49"	"127977"	"0.0-4.0-3.0-3.0"	"ufvy5m"	"600"	"1366"	"chrome"	"111.0.0"	"FALSE"	"Windows 10"	"60.3"	"058"	n/a	n/a	n/a	n/a	n/a	n/a	"practice_block_results"	n/a	n/a	n/a	"3085"	"0"	n/a	"NULL"	"NULL"	"NULL"	"<p style='color:rgb(76,175,80);'> Correct Responses: <b>100.00%</b></p><hr><p style='color:rgb(233,30,99);'> Average Response Time: <b>423.83</b> ms.</p>"	n/a	n/a	n/a	n/a	n/a	n/a	n/a	n/a	n/a	n/a
n/a	"html-button-response"	"50"	"253038"	"0.0-4.0-4.0"	"ufvy5m"	"600"	"1366"	"chrome"	"111.0.0"	"FALSE"	"Windows 10"	"60.3"	"058"	n/a	n/a	n/a	n/a	n/a	n/a	"practice_debrief"	n/a	n/a	n/a	"124553"	"0"	n/a	"NULL"	"NULL"	"NULL"	"<p><b>TRAINING COMPLETED</b></p><p>In the next phase, there will be more trials, and some might be harder too.<br> Moreover, after each illusion block, a <b>score</b> will be calculated based on speed (time you took to answer) and accuracy (number of errors).</p><p>Try to keep up a high score!</p><br><p>Note that it can be <i>really</i> challenging at times, so you will need to rely on your <b>intuition</b> and gut feeling to answer as fast as you can without making errors.</p><p>Each illusion block will be repeated two times (so that you have the opportunity to improve your score), but the order of the blocks is random.</p><p>Remember, your goal is to be as <b>fast</b> and <b>accurate</b> as possible. Good luck!</p><br>"	n/a	n/a	n/a	n/a	n/a	n/a	n/a	n/a	n/a	n/a
"TRUE"	"preload"	"51"	"253187"	"0.0-5.0-0.0"	"ufvy5m"	"600"	"1366"	"chrome"	"111.0.0"	"FALSE"	"Windows 10"	"60.3"	"058"	n/a	n/a	n/a	n/a	n/a	n/a	n/a	n/a	n/a	n/a	n/a	"NULL"	"FALSE"	"list()"	"list()"	"list()"	n/a	n/a	n/a	n/a	n/a	n/a	n/a	n/a	n/a	n/a	n/a
n/a	"html-keyboard-response"	"52"	"256116"	"0.0-5.0-1.0"	"ufvy5m"	"600"	"1366"	"chrome"	"111.0.0"	"FALSE"	"Windows 10"	"60.3"	"058"	n/a	n/a	n/a	n/a	n/a	n/a	n/a	n/a	n/a	n/a	"2929"	"enter"	n/a	"NULL"	"NULL"	"NULL"	"<p><b>Part 1/6</b></p><p>In this part, two horizontal red lines will appear one above the other.</p><p>Your task is to select which <b>line is longer</b> in length as fast as you can, without making errors.</p><p>Don't get distracted by the surrounding black arrows at the end of the red lines!</p><p>Press <b>the UP or the DOWN arrow</b> to indicate where is the longer <b>red line.</b></p><div style='float: center'><img src='materials/instructions/MullerLyer_Demo.png' height='300'></img><p><img src='utils/answer/answer_updown_keyboard.PNG' height='150'></img></p><p class='small'>In this example, the correct answer is the <b>UP arrow</b>.</p></div><p>Are you ready? <b>Press ENTER to start</b></p>"	n/a	n/a	n/a	n/a	n/a	n/a	n/a	n/a	n/a	n/a
n/a	"html-keyboard-response"	"53"	"257975"	"0.0-5.0-2.0-0.0"	"ufvy5m"	"600"	"1366"	"chrome"	"111.0.0"	"FALSE"	"Windows 10"	"60.3"	"058"	n/a	n/a	n/a	n/a	n/a	n/a	"fixation"	n/a	n/a	n/a	n/a	"NULL"	n/a	"NULL"	"NULL"	"NULL"	"<p style=\"color: black; font-size: 80px; padding-left: 16%; padding-right: 38%; padding-top: 29%; padding-bottom: 2%\">+</p>"	"1350"	n/a	n/a	n/a	n/a	n/a	n/a	n/a	n/a	n/a
n/a	"image-keyboard-response"	"54"	"258862"	"0.0-5.0-2.0-1.0"	"ufvy5m"	"600"	"1366"	"chrome"	"111.0.0"	"FALSE"	"Windows 10"	"60.3"	"058"	n/a	n/a	n/a	n/a	n/a	n/a	"Trial"	n/a	n/a	n/a	"887"	"arrowdown"	n/a	"NULL"	"NULL"	"NULL"	"stimuli/MullerLyer_-8.21429_-0.07627.png"	n/a	"MullerLyer"	"arrowdown"	"1859"	"TRUE"	"MullerLyer"	"-8.214290000"	"-0.076270000"	"1"	"19"
n/a	"html-keyboard-response"	"55"	"259944"	"0.0-5.0-2.0-0.1"	"ufvy5m"	"600"	"1366"	"chrome"	"111.0.0"	"FALSE"	"Windows 10"	"60.3"	"058"	n/a	n/a	n/a	n/a	n/a	n/a	"fixation"	n/a	n/a	n/a	n/a	"NULL"	n/a	"NULL"	"NULL"	"NULL"	"<p style=\"color: black; font-size: 80px; padding-left: 23%; padding-right: 26%; padding-top: 42%; padding-bottom: 5%\">+</p>"	"1072"	n/a	n/a	n/a	n/a	n/a	n/a	n/a	n/a	n/a
n/a	"image-keyboard-response"	"56"	"260449"	"0.0-5.0-2.0-1.1"	"ufvy5m"	"600"	"1366"	"chrome"	"111.0.0"	"FALSE"	"Windows 10"	"60.3"	"058"	n/a	n/a	n/a	n/a	n/a	n/a	"Trial"	n/a	n/a	n/a	"505"	"arrowdown"	n/a	"NULL"	"NULL"	"NULL"	"stimuli/MullerLyer_20.04286_0.07627.png"	n/a	"MullerLyer"	"arrowup"	"1082"	"FALSE"	"MullerLyer"	"20.042860000"	"0.0762700000"	"1"	"20"
n/a	"html-keyboard-response"	"57"	"261617"	"0.0-5.0-2.0-0.2"	"ufvy5m"	"600"	"1366"	"chrome"	"111.0.0"	"FALSE"	"Windows 10"	"60.3"	"058"	n/a	n/a	n/a	n/a	n/a	n/a	"fixation"	n/a	n/a	n/a	n/a	"NULL"	n/a	"NULL"	"NULL"	"NULL"	"<p style=\"color: black; font-size: 80px; padding-left: 7%; padding-right: 45%; padding-top: 10%; padding-bottom: 34%\">+</p>"	"1162"	n/a	n/a	n/a	n/a	n/a	n/a	n/a	n/a	n/a
n/a	"image-keyboard-response"	"58"	"262079"	"0.0-5.0-2.0-1.2"	"ufvy5m"	"600"	"1366"	"chrome"	"111.0.0"	"FALSE"	"Windows 10"	"60.3"	"058"	n/a	n/a	n/a	n/a	n/a	n/a	"Trial"	n/a	n/a	n/a	"461"	"arrowup"	n/a	"NULL"	"NULL"	"NULL"	"stimuli/MullerLyer_-20.04286_0.35000.png"	n/a	"MullerLyer"	"arrowup"	"1168"	"TRUE"	"MullerLyer"	"-20.04286000"	"0.3500000000"	"1"	"21"
n/a	"html-keyboard-response"	"59"	"263462"	"0.0-5.0-2.0-0.3"	"ufvy5m"	"600"	"1366"	"chrome"	"111.0.0"	"FALSE"	"Windows 10"	"60.3"	"058"	n/a	n/a	n/a	n/a	n/a	n/a	"fixation"	n/a	n/a	n/a	n/a	"NULL"	n/a	"NULL"	"NULL"	"NULL"	"<p style=\"color: black; font-size: 80px; padding-left: 43%; padding-right: 43%; padding-top: 4%; padding-bottom: 17%\">+</p>"	"1369"	n/a	n/a	n/a	n/a	n/a	n/a	n/a	n/a	n/a
n/a	"image-keyboard-response"	"60"	"263951"	"0.0-5.0-2.0-1.3"	"ufvy5m"	"600"	"1366"	"chrome"	"111.0.0"	"FALSE"	"Windows 10"	"60.3"	"058"	n/a	n/a	n/a	n/a	n/a	n/a	"Trial"	n/a	n/a	n/a	"489"	"arrowdown"	n/a	"NULL"	"NULL"	"NULL"	"stimuli/MullerLyer_-20.04286_-0.07627.png"	n/a	"MullerLyer"	"arrowdown"	"1383"	"TRUE"	"MullerLyer"	"-20.04286000"	"-0.076270000"	"1"	"22"
n/a	"html-keyboard-response"	"61"	"265305"	"0.0-5.0-2.0-0.4"	"ufvy5m"	"600"	"1366"	"chrome"	"111.0.0"	"FALSE"	"Windows 10"	"60.3"	"058"	n/a	n/a	n/a	n/a	n/a	n/a	"fixation"	n/a	n/a	n/a	n/a	"NULL"	n/a	"NULL"	"NULL"	"NULL"	"<p style=\"color: black; font-size: 80px; padding-left: 44%; padding-right: 10%; padding-top: 43%; padding-bottom: 0%\">+</p>"	"1340"	n/a	n/a	n/a	n/a	n/a	n/a	n/a	n/a	n/a
n/a	"image-keyboard-response"	"62"	"266284"	"0.0-5.0-2.0-1.4"	"ufvy5m"	"600"	"1366"	"chrome"	"111.0.0"	"FALSE"	"Windows 10"	"60.3"	"058"	n/a	n/a	n/a	n/a	n/a	n/a	"Trial"	n/a	n/a	n/a	"978"	"arrowup"	n/a	"NULL"	"NULL"	"NULL"	"stimuli/MullerLyer_20.04286_-0.3500.png"	n/a	"MullerLyer"	"arrowdown"	"1354"	"FALSE"	"MullerLyer"	"20.042860000"	"-0.350000000"	"1"	"23"
n/a	"html-keyboard-response"	"63"	"267492"	"0.0-5.0-2.0-0.5"	"ufvy5m"	"600"	"1366"	"chrome"	"111.0.0"	"FALSE"	"Windows 10"	"60.3"	"058"	n/a	n/a	n/a	n/a	n/a	n/a	"fixation"	n/a	n/a	n/a	n/a	"NULL"	n/a	"NULL"	"NULL"	"NULL"	"<p style=\"color: black; font-size: 80px; padding-left: 2%; padding-right: 20%; padding-top: 10%; padding-bottom: 3%\">+</p>"	"1204"	n/a	n/a	n/a	n/a	n/a	n/a	n/a	n/a	n/a
n/a	"image-keyboard-response"	"64"	"268011"	"0.0-5.0-2.0-1.5"	"ufvy5m"	"600"	"1366"	"chrome"	"111.0.0"	"FALSE"	"Windows 10"	"60.3"	"058"	n/a	n/a	n/a	n/a	n/a	n/a	"Trial"	n/a	n/a	n/a	"519"	"arrowdown"	n/a	"NULL"	"NULL"	"NULL"	"stimuli/MullerLyer_-14.12857_-0.14541.png"	n/a	"MullerLyer"	"arrowdown"	"1208"	"TRUE"	"MullerLyer"	"-14.12857000"	"-0.145410000"	"1"	"24"
n/a	"html-keyboard-response"	"65"	"269272"	"0.0-5.0-2.0-0.6"	"ufvy5m"	"600"	"1366"	"chrome"	"111.0.0"	"FALSE"	"Windows 10"	"60.3"	"058"	n/a	n/a	n/a	n/a	n/a	n/a	"fixation"	n/a	n/a	n/a	n/a	"NULL"	n/a	"NULL"	"NULL"	"NULL"	"<p style=\"color: black; font-size: 80px; padding-left: 18%; padding-right: 36%; padding-top: 6%; padding-bottom: 37%\">+</p>"	"1254"	n/a	n/a	n/a	n/a	n/a	n/a	n/a	n/a	n/a
n/a	"image-keyboard-response"	"66"	"269728"	"0.0-5.0-2.0-1.6"	"ufvy5m"	"600"	"1366"	"chrome"	"111.0.0"	"FALSE"	"Windows 10"	"60.3"	"058"	n/a	n/a	n/a	n/a	n/a	n/a	"Trial"	n/a	n/a	n/a	"452"	"arrowdown"	n/a	"NULL"	"NULL"	"NULL"	"stimuli/MullerLyer_-14.12857_-0.23665.png"	n/a	"MullerLyer"	"arrowdown"	"1261"	"TRUE"	"MullerLyer"	"-14.12857000"	"-0.236650000"	"1"	"25"
n/a	"html-keyboard-response"	"67"	"271114"	"0.0-5.0-2.0-0.7"	"ufvy5m"	"600"	"1366"	"chrome"	"111.0.0"	"FALSE"	"Windows 10"	"60.3"	"058"	n/a	n/a	n/a	n/a	n/a	n/a	"fixation"	n/a	n/a	n/a	n/a	"NULL"	n/a	"NULL"	"NULL"	"NULL"	"<p style=\"color: black; font-size: 80px; padding-left: 47%; padding-right: 32%; padding-top: 12%; padding-bottom: 29%\">+</p>"	"1383"	n/a	n/a	n/a	n/a	n/a	n/a	n/a	n/a	n/a
n/a	"image-keyboard-response"	"68"	"271519"	"0.0-5.0-2.0-1.7"	"ufvy5m"	"600"	"1366"	"chrome"	"111.0.0"	"FALSE"	"Windows 10"	"60.3"	"058"	n/a	n/a	n/a	n/a	n/a	n/a	"Trial"	n/a	n/a	n/a	"405"	"arrowup"	n/a	"NULL"	"NULL"	"NULL"	"stimuli/MullerLyer_-8.21429_0.35000.png"	n/a	"MullerLyer"	"arrowup"	"1386"	"TRUE"	"MullerLyer"	"-8.214290000"	"0.3500000000"	"1"	"26"
n/a	"html-keyboard-response"	"69"	"273014"	"0.0-5.0-2.0-0.8"	"ufvy5m"	"600"	"1366"	"chrome"	"111.0.0"	"FALSE"	"Windows 10"	"60.3"	"058"	n/a	n/a	n/a	n/a	n/a	n/a	"fixation"	n/a	n/a	n/a	n/a	"NULL"	n/a	"NULL"	"NULL"	"NULL"	"<p style=\"color: black; font-size: 80px; padding-left: 22%; padding-right: 43%; padding-top: 46%; padding-bottom: 16%\">+</p>"	"1478"	n/a	n/a	n/a	n/a	n/a	n/a	n/a	n/a	n/a
n/a	"image-keyboard-response"	"70"	"273435"	"0.0-5.0-2.0-1.8"	"ufvy5m"	"600"	"1366"	"chrome"	"111.0.0"	"FALSE"	"Windows 10"	"60.3"	"058"	n/a	n/a	n/a	n/a	n/a	n/a	"Trial"	n/a	n/a	n/a	"421"	"arrowup"	n/a	"NULL"	"NULL"	"NULL"	"stimuli/MullerLyer_-14.12857_0.23665.png"	n/a	"MullerLyer"	"arrowup"	"1495"	"TRUE"	"MullerLyer"	"-14.12857000"	"0.2366500000"	"1"	"27"
n/a	"html-keyboard-response"	"71"	"274648"	"0.0-5.0-2.0-0.9"	"ufvy5m"	"600"	"1366"	"chrome"	"111.0.0"	"FALSE"	"Windows 10"	"60.3"	"058"	n/a	n/a	n/a	n/a	n/a	n/a	"fixation"	n/a	n/a	n/a	n/a	"NULL"	n/a	"NULL"	"NULL"	"NULL"	"<p style=\"color: black; font-size: 80px; padding-left: 9%; padding-right: 27%; padding-top: 42%; padding-bottom: 41%\">+</p>"	"1207"	n/a	n/a	n/a	n/a	n/a	n/a	n/a	n/a	n/a
n/a	"image-keyboard-response"	"72"	"275021"	"0.0-5.0-2.0-1.9"	"ufvy5m"	"600"	"1366"	"chrome"	"111.0.0"	"FALSE"	"Windows 10"	"60.3"	"058"	n/a	n/a	n/a	n/a	n/a	n/a	"Trial"	n/a	n/a	n/a	"373"	"arrowup"	n/a	"NULL"	"NULL"	"NULL"	"stimuli/MullerLyer_-14.12857_0.35000.png"	n/a	"MullerLyer"	"arrowup"	"1213"	"TRUE"	"MullerLyer"	"-14.12857000"	"0.3500000000"	"1"	"28"
n/a	"html-keyboard-response"	"73"	"276373"	"0.0-5.0-2.0-0.10"	"ufvy5m"	"600"	"1366"	"chrome"	"111.0.0"	"FALSE"	"Windows 10"	"60.3"	"058"	n/a	n/a	n/a	n/a	n/a	n/a	"fixation"	n/a	n/a	n/a	n/a	"NULL"	n/a	"NULL"	"NULL"	"NULL"	"<p style=\"color: black; font-size: 80px; padding-left: 26%; padding-right: 4%; padding-top: 25%; padding-bottom: 9%\">+</p>"	"1349"	n/a	n/a	n/a	n/a	n/a	n/a	n/a	n/a	n/a
n/a	"image-keyboard-response"	"74"	"276767"	"0.0-5.0-2.0-1.10"	"ufvy5m"	"600"	"1366"	"chrome"	"111.0.0"	"FALSE"	"Windows 10"	"60.3"	"058"	n/a	n/a	n/a	n/a	n/a	n/a	"Trial"	n/a	n/a	n/a	"394"	"arrowup"	n/a	"NULL"	"NULL"	"NULL"	"stimuli/MullerLyer_14.12857_-0.07627.png"	n/a	"MullerLyer"	"arrowdown"	"1352"	"FALSE"	"MullerLyer"	"14.128570000"	"-0.076270000"	"1"	"29"
n/a	"html-keyboard-response"	"75"	"277928"	"0.0-5.0-2.0-0.11"	"ufvy5m"	"600"	"1366"	"chrome"	"111.0.0"	"FALSE"	"Windows 10"	"60.3"	"058"	n/a	n/a	n/a	n/a	n/a	n/a	"fixation"	n/a	n/a	n/a	n/a	"NULL"	n/a	"NULL"	"NULL"	"NULL"	"<p style=\"color: black; font-size: 80px; padding-left: 48%; padding-right: 49%; padding-top: 50%; padding-bottom: 28%\">+</p>"	"1151"	n/a	n/a	n/a	n/a	n/a	n/a	n/a	n/a	n/a
n/a	"image-keyboard-response"	"76"	"278343"	"0.0-5.0-2.0-1.11"	"ufvy5m"	"600"	"1366"	"chrome"	"111.0.0"	"FALSE"	"Windows 10"	"60.3"	"058"	n/a	n/a	n/a	n/a	n/a	n/a	"Trial"	n/a	n/a	n/a	"414"	"arrowup"	n/a	"NULL"	"NULL"	"NULL"	"stimuli/MullerLyer_-14.12857_0.07627.png"	n/a	"MullerLyer"	"arrowup"	"1161"	"TRUE"	"MullerLyer"	"-14.12857000"	"0.0762700000"	"1"	"30"
n/a	"html-keyboard-response"	"77"	"279693"	"0.0-5.0-2.0-0.12"	"ufvy5m"	"600"	"1366"	"chrome"	"111.0.0"	"FALSE"	"Windows 10"	"60.3"	"058"	n/a	n/a	n/a	n/a	n/a	n/a	"fixation"	n/a	n/a	n/a	n/a	"NULL"	n/a	"NULL"	"NULL"	"NULL"	"<p style=\"color: black; font-size: 80px; padding-left: 39%; padding-right: 41%; padding-top: 22%; padding-bottom: 50%\">+</p>"	"1338"	n/a	n/a	n/a	n/a	n/a	n/a	n/a	n/a	n/a
n/a	"image-keyboard-response"	"78"	"280096"	"0.0-5.0-2.0-1.12"	"ufvy5m"	"600"	"1366"	"chrome"	"111.0.0"	"FALSE"	"Windows 10"	"60.3"	"058"	n/a	n/a	n/a	n/a	n/a	n/a	"Trial"	n/a	n/a	n/a	"402"	"arrowup"	n/a	"NULL"	"NULL"	"NULL"	"stimuli/MullerLyer_-8.21429_0.23665.png"	n/a	"MullerLyer"	"arrowup"	"1350"	"TRUE"	"MullerLyer"	"-8.214290000"	"0.2366500000"	"1"	"31"
n/a	"html-keyboard-response"	"79"	"281317"	"0.0-5.0-2.0-0.13"	"ufvy5m"	"600"	"1366"	"chrome"	"111.0.0"	"FALSE"	"Windows 10"	"60.3"	"058"	n/a	n/a	n/a	n/a	n/a	n/a	"fixation"	n/a	n/a	n/a	n/a	"NULL"	n/a	"NULL"	"NULL"	"NULL"	"<p style=\"color: black; font-size: 80px; padding-left: 29%; padding-right: 38%; padding-top: 26%; padding-bottom: 14%\">+</p>"	"1206"	n/a	n/a	n/a	n/a	n/a	n/a	n/a	n/a	n/a
n/a	"image-keyboard-response"	"80"	"281652"	"0.0-5.0-2.0-1.13"	"ufvy5m"	"600"	"1366"	"chrome"	"111.0.0"	"FALSE"	"Windows 10"	"60.3"	"058"	n/a	n/a	n/a	n/a	n/a	n/a	"Trial"	n/a	n/a	n/a	"335"	"arrowup"	n/a	"NULL"	"NULL"	"NULL"	"stimuli/MullerLyer_-2.3000_0.14541.png"	n/a	"MullerLyer"	"arrowup"	"1221"	"TRUE"	"MullerLyer"	"-2.300000000"	"0.1454100000"	"1"	"32"
n/a	"html-keyboard-response"	"81"	"282858"	"0.0-5.0-2.0-0.14"	"ufvy5m"	"600"	"1366"	"chrome"	"111.0.0"	"FALSE"	"Windows 10"	"60.3"	"058"	n/a	n/a	n/a	n/a	n/a	n/a	"fixation"	n/a	n/a	n/a	n/a	"NULL"	n/a	"NULL"	"NULL"	"NULL"	"<p style=\"color: black; font-size: 80px; padding-left: 29%; padding-right: 19%; padding-top: 17%; padding-bottom: 40%\">+</p>"	"1204"	n/a	n/a	n/a	n/a	n/a	n/a	n/a	n/a	n/a
n/a	"image-keyboard-response"	"82"	"283293"	"0.0-5.0-2.0-1.14"	"ufvy5m"	"600"	"1366"	"chrome"	"111.0.0"	"FALSE"	"Windows 10"	"60.3"	"058"	n/a	n/a	n/a	n/a	n/a	n/a	"Trial"	n/a	n/a	n/a	"434"	"arrowup"	n/a	"NULL"	"NULL"	"NULL"	"stimuli/MullerLyer_8.21429_-0.3500.png"	n/a	"MullerLyer"	"arrowdown"	"1206"	"FALSE"	"MullerLyer"	"8.2142900000"	"-0.350000000"	"1"	"33"
n/a	"html-keyboard-response"	"83"	"284436"	"0.0-5.0-2.0-0.15"	"ufvy5m"	"600"	"1366"	"chrome"	"111.0.0"	"FALSE"	"Windows 10"	"60.3"	"058"	n/a	n/a	n/a	n/a	n/a	n/a	"fixation"	n/a	n/a	n/a	n/a	"NULL"	n/a	"NULL"	"NULL"	"NULL"	"<p style=\"color: black; font-size: 80px; padding-left: 28%; padding-right: 20%; padding-top: 50%; padding-bottom: 50%\">+</p>"	"1133"	n/a	n/a	n/a	n/a	n/a	n/a	n/a	n/a	n/a
n/a	"image-keyboard-response"	"84"	"284909"	"0.0-5.0-2.0-1.15"	"ufvy5m"	"600"	"1366"	"chrome"	"111.0.0"	"FALSE"	"Windows 10"	"60.3"	"058"	n/a	n/a	n/a	n/a	n/a	n/a	"Trial"	n/a	n/a	n/a	"473"	"arrowup"	n/a	"NULL"	"NULL"	"NULL"	"stimuli/MullerLyer_-20.04286_0.14541.png"	n/a	"MullerLyer"	"arrowup"	"1143"	"TRUE"	"MullerLyer"	"-20.04286000"	"0.1454100000"	"1"	"34"
n/a	"html-keyboard-response"	"85"	"285996"	"0.0-5.0-2.0-0.16"	"ufvy5m"	"600"	"1366"	"chrome"	"111.0.0"	"FALSE"	"Windows 10"	"60.3"	"058"	n/a	n/a	n/a	n/a	n/a	n/a	"fixation"	n/a	n/a	n/a	n/a	"NULL"	n/a	"NULL"	"NULL"	"NULL"	"<p style=\"color: black; font-size: 80px; padding-left: 47%; padding-right: 24%; padding-top: 40%; padding-bottom: 41%\">+</p>"	"1071"	n/a	n/a	n/a	n/a	n/a	n/a	n/a	n/a	n/a
n/a	"image-keyboard-response"	"86"	"286431"	"0.0-5.0-2.0-1.16"	"ufvy5m"	"600"	"1366"	"chrome"	"111.0.0"	"FALSE"	"Windows 10"	"60.3"	"058"	n/a	n/a	n/a	n/a	n/a	n/a	"Trial"	n/a	n/a	n/a	"434"	"arrowup"	n/a	"NULL"	"NULL"	"NULL"	"stimuli/MullerLyer_8.21429_-0.23665.png"	n/a	"MullerLyer"	"arrowdown"	"1087"	"FALSE"	"MullerLyer"	"8.2142900000"	"-0.236650000"	"1"	"35"
n/a	"html-keyboard-response"	"87"	"287711"	"0.0-5.0-2.0-0.17"	"ufvy5m"	"600"	"1366"	"chrome"	"111.0.0"	"FALSE"	"Windows 10"	"60.3"	"058"	n/a	n/a	n/a	n/a	n/a	n/a	"fixation"	n/a	n/a	n/a	n/a	"NULL"	n/a	"NULL"	"NULL"	"NULL"	"<p style=\"color: black; font-size: 80px; padding-left: 21%; padding-right: 41%; padding-top: 21%; padding-bottom: 13%\">+</p>"	"1272"	n/a	n/a	n/a	n/a	n/a	n/a	n/a	n/a	n/a
n/a	"image-keyboard-response"	"88"	"288170"	"0.0-5.0-2.0-1.17"	"ufvy5m"	"600"	"1366"	"chrome"	"111.0.0"	"FALSE"	"Windows 10"	"60.3"	"058"	n/a	n/a	n/a	n/a	n/a	n/a	"Trial"	n/a	n/a	n/a	"459"	"arrowup"	n/a	"NULL"	"NULL"	"NULL"	"stimuli/MullerLyer_20.04286_-0.23665.png"	n/a	"MullerLyer"	"arrowdown"	"1280"	"FALSE"	"MullerLyer"	"20.042860000"	"-0.236650000"	"1"	"36"
n/a	"html-keyboard-response"	"89"	"289573"	"0.0-5.0-2.0-0.18"	"ufvy5m"	"600"	"1366"	"chrome"	"111.0.0"	"FALSE"	"Windows 10"	"60.3"	"058"	n/a	n/a	n/a	n/a	n/a	n/a	"fixation"	n/a	n/a	n/a	n/a	"NULL"	n/a	"NULL"	"NULL"	"NULL"	"<p style=\"color: black; font-size: 80px; padding-left: 20%; padding-right: 37%; padding-top: 36%; padding-bottom: 12%\">+</p>"	"1401"	n/a	n/a	n/a	n/a	n/a	n/a	n/a	n/a	n/a
n/a	"image-keyboard-response"	"90"	"290063"	"0.0-5.0-2.0-1.18"	"ufvy5m"	"600"	"1366"	"chrome"	"111.0.0"	"FALSE"	"Windows 10"	"60.3"	"058"	n/a	n/a	n/a	n/a	n/a	n/a	"Trial"	n/a	n/a	n/a	"489"	"arrowdown"	n/a	"NULL"	"NULL"	"NULL"	"stimuli/MullerLyer_-20.04286_-0.3500.png"	n/a	"MullerLyer"	"arrowdown"	"1403"	"TRUE"	"MullerLyer"	"-20.04286000"	"-0.350000000"	"1"	"37"
n/a	"html-keyboard-response"	"91"	"291555"	"0.0-5.0-2.0-0.19"	"ufvy5m"	"600"	"1366"	"chrome"	"111.0.0"	"FALSE"	"Windows 10"	"60.3"	"058"	n/a	n/a	n/a	n/a	n/a	n/a	"fixation"	n/a	n/a	n/a	n/a	"NULL"	n/a	"NULL"	"NULL"	"NULL"	"<p style=\"color: black; font-size: 80px; padding-left: 3%; padding-right: 4%; padding-top: 47%; padding-bottom: 33%\">+</p>"	"1485"	n/a	n/a	n/a	n/a	n/a	n/a	n/a	n/a	n/a
n/a	"image-keyboard-response"	"92"	"292047"	"0.0-5.0-2.0-1.19"	"ufvy5m"	"600"	"1366"	"chrome"	"111.0.0"	"FALSE"	"Windows 10"	"60.3"	"058"	n/a	n/a	n/a	n/a	n/a	n/a	"Trial"	n/a	n/a	n/a	"491"	"arrowup"	n/a	"NULL"	"NULL"	"NULL"	"stimuli/MullerLyer_14.12857_-0.14541.png"	n/a	"MullerLyer"	"arrowdown"	"1492"	"FALSE"	"MullerLyer"	"14.128570000"	"-0.145410000"	"1"	"38"
n/a	"html-keyboard-response"	"93"	"293209"	"0.0-5.0-2.0-0.20"	"ufvy5m"	"600"	"1366"	"chrome"	"111.0.0"	"FALSE"	"Windows 10"	"60.3"	"058"	n/a	n/a	n/a	n/a	n/a	n/a	"fixation"	n/a	n/a	n/a	n/a	"NULL"	n/a	"NULL"	"NULL"	"NULL"	"<p style=\"color: black; font-size: 80px; padding-left: 43%; padding-right: 27%; padding-top: 42%; padding-bottom: 32%\">+</p>"	"1160"	n/a	n/a	n/a	n/a	n/a	n/a	n/a	n/a	n/a
n/a	"image-keyboard-response"	"94"	"293735"	"0.0-5.0-2.0-1.20"	"ufvy5m"	"600"	"1366"	"chrome"	"111.0.0"	"FALSE"	"Windows 10"	"60.3"	"058"	n/a	n/a	n/a	n/a	n/a	n/a	"Trial"	n/a	n/a	n/a	"525"	"arrowdown"	n/a	"NULL"	"NULL"	"NULL"	"stimuli/MullerLyer_-20.04286_-0.14541.png"	n/a	"MullerLyer"	"arrowdown"	"1162"	"TRUE"	"MullerLyer"	"-20.04286000"	"-0.145410000"	"1"	"39"
n/a	"html-keyboard-response"	"95"	"295172"	"0.0-5.0-2.0-0.21"	"ufvy5m"	"600"	"1366"	"chrome"	"111.0.0"	"FALSE"	"Windows 10"	"60.3"	"058"	n/a	n/a	n/a	n/a	n/a	n/a	"fixation"	n/a	n/a	n/a	n/a	"NULL"	n/a	"NULL"	"NULL"	"NULL"	"<p style=\"color: black; font-size: 80px; padding-left: 7%; padding-right: 30%; padding-top: 31%; padding-bottom: 48%\">+</p>"	"1430"	n/a	n/a	n/a	n/a	n/a	n/a	n/a	n/a	n/a
n/a	"image-keyboard-response"	"96"	"295947"	"0.0-5.0-2.0-1.21"	"ufvy5m"	"600"	"1366"	"chrome"	"111.0.0"	"FALSE"	"Windows 10"	"60.3"	"058"	n/a	n/a	n/a	n/a	n/a	n/a	"Trial"	n/a	n/a	n/a	"774"	"arrowup"	n/a	"NULL"	"NULL"	"NULL"	"stimuli/MullerLyer_2.30000_0.14541.png"	n/a	"MullerLyer"	"arrowup"	"1437"	"TRUE"	"MullerLyer"	"2.3000000000"	"0.1454100000"	"1"	"40"
n/a	"html-keyboard-response"	"97"	"297341"	"0.0-5.0-2.0-0.22"	"ufvy5m"	"600"	"1366"	"chrome"	"111.0.0"	"FALSE"	"Windows 10"	"60.3"	"058"	n/a	n/a	n/a	n/a	n/a	n/a	"fixation"	n/a	n/a	n/a	n/a	"NULL"	n/a	"NULL"	"NULL"	"NULL"	"<p style=\"color: black; font-size: 80px; padding-left: 34%; padding-right: 29%; padding-top: 41%; padding-bottom: 6%\">+</p>"	"1389"	n/a	n/a	n/a	n/a	n/a	n/a	n/a	n/a	n/a
n/a	"image-keyboard-response"	"98"	"297946"	"0.0-5.0-2.0-1.22"	"ufvy5m"	"600"	"1366"	"chrome"	"111.0.0"	"FALSE"	"Windows 10"	"60.3"	"058"	n/a	n/a	n/a	n/a	n/a	n/a	"Trial"	n/a	n/a	n/a	"604"	"arrowup"	n/a	"NULL"	"NULL"	"NULL"	"stimuli/MullerLyer_-2.3000_0.07627.png"	n/a	"MullerLyer"	"arrowup"	"1394"	"TRUE"	"MullerLyer"	"-2.300000000"	"0.0762700000"	"1"	"41"
n/a	"html-keyboard-response"	"99"	"299236"	"0.0-5.0-2.0-0.23"	"ufvy5m"	"600"	"1366"	"chrome"	"111.0.0"	"FALSE"	"Windows 10"	"60.3"	"058"	n/a	n/a	n/a	n/a	n/a	n/a	"fixation"	n/a	n/a	n/a	n/a	"NULL"	n/a	"NULL"	"NULL"	"NULL"	"<p style=\"color: black; font-size: 80px; padding-left: 12%; padding-right: 17%; padding-top: 19%; padding-bottom: 21%\">+</p>"	"1276"	n/a	n/a	n/a	n/a	n/a	n/a	n/a	n/a	n/a
n/a	"image-keyboard-response"	"100"	"299742"	"0.0-5.0-2.0-1.23"	"ufvy5m"	"600"	"1366"	"chrome"	"111.0.0"	"FALSE"	"Windows 10"	"60.3"	"058"	n/a	n/a	n/a	n/a	n/a	n/a	"Trial"	n/a	n/a	n/a	"504"	"arrowdown"	n/a	"NULL"	"NULL"	"NULL"	"stimuli/MullerLyer_-14.12857_-0.07627.png"	n/a	"MullerLyer"	"arrowdown"	"1290"	"TRUE"	"MullerLyer"	"-14.12857000"	"-0.076270000"	"1"	"42"
n/a	"html-keyboard-response"	"101"	"301008"	"0.0-5.0-2.0-0.24"	"ufvy5m"	"600"	"1366"	"chrome"	"111.0.0"	"FALSE"	"Windows 10"	"60.3"	"058"	n/a	n/a	n/a	n/a	n/a	n/a	"fixation"	n/a	n/a	n/a	n/a	"NULL"	n/a	"NULL"	"NULL"	"NULL"	"<p style=\"color: black; font-size: 80px; padding-left: 8%; padding-right: 4%; padding-top: 38%; padding-bottom: 26%\">+</p>"	"1252"	n/a	n/a	n/a	n/a	n/a	n/a	n/a	n/a	n/a
n/a	"image-keyboard-response"	"102"	"301434"	"0.0-5.0-2.0-1.24"	"ufvy5m"	"600"	"1366"	"chrome"	"111.0.0"	"FALSE"	"Windows 10"	"60.3"	"058"	n/a	n/a	n/a	n/a	n/a	n/a	"Trial"	n/a	n/a	n/a	"425"	"arrowup"	n/a	"NULL"	"NULL"	"NULL"	"stimuli/MullerLyer_2.30000_0.07627.png"	n/a	"MullerLyer"	"arrowup"	"1266"	"TRUE"	"MullerLyer"	"2.3000000000"	"0.0762700000"	"1"	"43"
n/a	"html-keyboard-response"	"103"	"302522"	"0.0-5.0-2.0-0.25"	"ufvy5m"	"600"	"1366"	"chrome"	"111.0.0"	"FALSE"	"Windows 10"	"60.3"	"058"	n/a	n/a	n/a	n/a	n/a	n/a	"fixation"	n/a	n/a	n/a	n/a	"NULL"	n/a	"NULL"	"NULL"	"NULL"	"<p style=\"color: black; font-size: 80px; padding-left: 46%; padding-right: 0%; padding-top: 0%; padding-bottom: 16%\">+</p>"	"1072"	n/a	n/a	n/a	n/a	n/a	n/a	n/a	n/a	n/a
n/a	"image-keyboard-response"	"104"	"303081"	"0.0-5.0-2.0-1.25"	"ufvy5m"	"600"	"1366"	"chrome"	"111.0.0"	"FALSE"	"Windows 10"	"60.3"	"058"	n/a	n/a	n/a	n/a	n/a	n/a	"Trial"	n/a	n/a	n/a	"559"	"arrowup"	n/a	"NULL"	"NULL"	"NULL"	"stimuli/MullerLyer_2.30000_0.35000.png"	n/a	"MullerLyer"	"arrowup"	"1088"	"TRUE"	"MullerLyer"	"2.3000000000"	"0.3500000000"	"1"	"44"
n/a	"html-keyboard-response"	"105"	"304145"	"0.0-5.0-2.0-0.26"	"ufvy5m"	"600"	"1366"	"chrome"	"111.0.0"	"FALSE"	"Windows 10"	"60.3"	"058"	n/a	n/a	n/a	n/a	n/a	n/a	"fixation"	n/a	n/a	n/a	n/a	"NULL"	n/a	"NULL"	"NULL"	"NULL"	"<p style=\"color: black; font-size: 80px; padding-left: 7%; padding-right: 19%; padding-top: 39%; padding-bottom: 16%\">+</p>"	"1050"	n/a	n/a	n/a	n/a	n/a	n/a	n/a	n/a	n/a
n/a	"image-keyboard-response"	"106"	"304655"	"0.0-5.0-2.0-1.26"	"ufvy5m"	"600"	"1366"	"chrome"	"111.0.0"	"FALSE"	"Windows 10"	"60.3"	"058"	n/a	n/a	n/a	n/a	n/a	n/a	"Trial"	n/a	n/a	n/a	"509"	"arrowdown"	n/a	"NULL"	"NULL"	"NULL"	"stimuli/MullerLyer_-14.12857_-0.3500.png"	n/a	"MullerLyer"	"arrowdown"	"1064"	"TRUE"	"MullerLyer"	"-14.12857000"	"-0.350000000"	"1"	"45"
n/a	"html-keyboard-response"	"107"	"305911"	"0.0-5.0-2.0-0.27"	"ufvy5m"	"600"	"1366"	"chrome"	"111.0.0"	"FALSE"	"Windows 10"	"60.3"	"058"	n/a	n/a	n/a	n/a	n/a	n/a	"fixation"	n/a	n/a	n/a	n/a	"NULL"	n/a	"NULL"	"NULL"	"NULL"	"<p style=\"color: black; font-size: 80px; padding-left: 29%; padding-right: 2%; padding-top: 39%; padding-bottom: 8%\">+</p>"	"1254"	n/a	n/a	n/a	n/a	n/a	n/a	n/a	n/a	n/a
n/a	"image-keyboard-response"	"108"	"306438"	"0.0-5.0-2.0-1.27"	"ufvy5m"	"600"	"1366"	"chrome"	"111.0.0"	"FALSE"	"Windows 10"	"60.3"	"058"	n/a	n/a	n/a	n/a	n/a	n/a	"Trial"	n/a	n/a	n/a	"527"	"arrowdown"	n/a	"NULL"	"NULL"	"NULL"	"stimuli/MullerLyer_2.30000_-0.23665.png"	n/a	"MullerLyer"	"arrowdown"	"1256"	"TRUE"	"MullerLyer"	"2.3000000000"	"-0.236650000"	"1"	"46"
n/a	"html-keyboard-response"	"109"	"307871"	"0.0-5.0-2.0-0.28"	"ufvy5m"	"600"	"1366"	"chrome"	"111.0.0"	"FALSE"	"Windows 10"	"60.3"	"058"	n/a	n/a	n/a	n/a	n/a	n/a	"fixation"	n/a	n/a	n/a	n/a	"NULL"	n/a	"NULL"	"NULL"	"NULL"	"<p style=\"color: black; font-size: 80px; padding-left: 15%; padding-right: 18%; padding-top: 44%; padding-bottom: 14%\">+</p>"	"1417"	n/a	n/a	n/a	n/a	n/a	n/a	n/a	n/a	n/a
n/a	"image-keyboard-response"	"110"	"308331"	"0.0-5.0-2.0-1.28"	"ufvy5m"	"600"	"1366"	"chrome"	"111.0.0"	"FALSE"	"Windows 10"	"60.3"	"058"	n/a	n/a	n/a	n/a	n/a	n/a	"Trial"	n/a	n/a	n/a	"459"	"arrowup"	n/a	"NULL"	"NULL"	"NULL"	"stimuli/MullerLyer_14.12857_-0.23665.png"	n/a	"MullerLyer"	"arrowdown"	"1433"	"FALSE"	"MullerLyer"	"14.128570000"	"-0.236650000"	"1"	"47"
n/a	"html-keyboard-response"	"111"	"309411"	"0.0-5.0-2.0-0.29"	"ufvy5m"	"600"	"1366"	"chrome"	"111.0.0"	"FALSE"	"Windows 10"	"60.3"	"058"	n/a	n/a	n/a	n/a	n/a	n/a	"fixation"	n/a	n/a	n/a	n/a	"NULL"	n/a	"NULL"	"NULL"	"NULL"	"<p style=\"color: black; font-size: 80px; padding-left: 37%; padding-right: 42%; padding-top: 32%; padding-bottom: 46%\">+</p>"	"1068"	n/a	n/a	n/a	n/a	n/a	n/a	n/a	n/a	n/a
n/a	"image-keyboard-response"	"112"	"309867"	"0.0-5.0-2.0-1.29"	"ufvy5m"	"600"	"1366"	"chrome"	"111.0.0"	"FALSE"	"Windows 10"	"60.3"	"058"	n/a	n/a	n/a	n/a	n/a	n/a	"Trial"	n/a	n/a	n/a	"455"	"arrowup"	n/a	"NULL"	"NULL"	"NULL"	"stimuli/MullerLyer_2.30000_-0.07627.png"	n/a	"MullerLyer"	"arrowdown"	"1080"	"FALSE"	"MullerLyer"	"2.3000000000"	"-0.076270000"	"1"	"48"
n/a	"html-keyboard-response"	"113"	"310934"	"0.0-5.0-2.0-0.30"	"ufvy5m"	"600"	"1366"	"chrome"	"111.0.0"	"FALSE"	"Windows 10"	"60.3"	"058"	n/a	n/a	n/a	n/a	n/a	n/a	"fixation"	n/a	n/a	n/a	n/a	"NULL"	n/a	"NULL"	"NULL"	"NULL"	"<p style=\"color: black; font-size: 80px; padding-left: 34%; padding-right: 24%; padding-top: 28%; padding-bottom: 37%\">+</p>"	"1064"	n/a	n/a	n/a	n/a	n/a	n/a	n/a	n/a	n/a
n/a	"image-keyboard-response"	"114"	"311461"	"0.0-5.0-2.0-1.30"	"ufvy5m"	"600"	"1366"	"chrome"	"111.0.0"	"FALSE"	"Windows 10"	"60.3"	"058"	n/a	n/a	n/a	n/a	n/a	n/a	"Trial"	n/a	n/a	n/a	"526"	"arrowup"	n/a	"NULL"	"NULL"	"NULL"	"stimuli/MullerLyer_-8.21429_0.14541.png"	n/a	"MullerLyer"	"arrowup"	"1067"	"TRUE"	"MullerLyer"	"-8.214290000"	"0.1454100000"	"1"	"49"
n/a	"html-keyboard-response"	"115"	"312491"	"0.0-5.0-2.0-0.31"	"ufvy5m"	"600"	"1366"	"chrome"	"111.0.0"	"FALSE"	"Windows 10"	"60.3"	"058"	n/a	n/a	n/a	n/a	n/a	n/a	"fixation"	n/a	n/a	n/a	n/a	"NULL"	n/a	"NULL"	"NULL"	"NULL"	"<p style=\"color: black; font-size: 80px; padding-left: 13%; padding-right: 9%; padding-top: 36%; padding-bottom: 16%\">+</p>"	"1025"	n/a	n/a	n/a	n/a	n/a	n/a	n/a	n/a	n/a
n/a	"image-keyboard-response"	"116"	"312974"	"0.0-5.0-2.0-1.31"	"ufvy5m"	"600"	"1366"	"chrome"	"111.0.0"	"FALSE"	"Windows 10"	"60.3"	"058"	n/a	n/a	n/a	n/a	n/a	n/a	"Trial"	n/a	n/a	n/a	"482"	"arrowup"	n/a	"NULL"	"NULL"	"NULL"	"stimuli/MullerLyer_-8.21429_-0.23665.png"	n/a	"MullerLyer"	"arrowdown"	"1030"	"FALSE"	"MullerLyer"	"-8.214290000"	"-0.236650000"	"1"	"50"
n/a	"html-keyboard-response"	"117"	"314052"	"0.0-5.0-2.0-0.32"	"ufvy5m"	"600"	"1366"	"chrome"	"111.0.0"	"FALSE"	"Windows 10"	"60.3"	"058"	n/a	n/a	n/a	n/a	n/a	n/a	"fixation"	n/a	n/a	n/a	n/a	"NULL"	n/a	"NULL"	"NULL"	"NULL"	"<p style=\"color: black; font-size: 80px; padding-left: 45%; padding-right: 20%; padding-top: 49%; padding-bottom: 28%\">+</p>"	"1065"	n/a	n/a	n/a	n/a	n/a	n/a	n/a	n/a	n/a
n/a	"image-keyboard-response"	"118"	"314529"	"0.0-5.0-2.0-1.32"	"ufvy5m"	"600"	"1366"	"chrome"	"111.0.0"	"FALSE"	"Windows 10"	"60.3"	"058"	n/a	n/a	n/a	n/a	n/a	n/a	"Trial"	n/a	n/a	n/a	"474"	"arrowup"	n/a	"NULL"	"NULL"	"NULL"	"stimuli/MullerLyer_8.21429_-0.14541.png"	n/a	"MullerLyer"	"arrowdown"	"1078"	"FALSE"	"MullerLyer"	"8.2142900000"	"-0.145410000"	"1"	"51"
n/a	"html-keyboard-response"	"119"	"315865"	"0.0-5.0-2.0-0.33"	"ufvy5m"	"600"	"1366"	"chrome"	"111.0.0"	"FALSE"	"Windows 10"	"60.3"	"058"	n/a	n/a	n/a	n/a	n/a	n/a	"fixation"	n/a	n/a	n/a	n/a	"NULL"	n/a	"NULL"	"NULL"	"NULL"	"<p style=\"color: black; font-size: 80px; padding-left: 16%; padding-right: 39%; padding-top: 14%; padding-bottom: 16%\">+</p>"	"1325"	n/a	n/a	n/a	n/a	n/a	n/a	n/a	n/a	n/a
n/a	"image-keyboard-response"	"120"	"316337"	"0.0-5.0-2.0-1.33"	"ufvy5m"	"600"	"1366"	"chrome"	"111.0.0"	"FALSE"	"Windows 10"	"60.3"	"058"	n/a	n/a	n/a	n/a	n/a	n/a	"Trial"	n/a	n/a	n/a	"471"	"arrowup"	n/a	"NULL"	"NULL"	"NULL"	"stimuli/MullerLyer_-14.12857_0.14541.png"	n/a	"MullerLyer"	"arrowup"	"1336"	"TRUE"	"MullerLyer"	"-14.12857000"	"0.1454100000"	"1"	"52"
n/a	"html-keyboard-response"	"121"	"317411"	"0.0-5.0-2.0-0.34"	"ufvy5m"	"600"	"1366"	"chrome"	"111.0.0"	"FALSE"	"Windows 10"	"60.3"	"058"	n/a	n/a	n/a	n/a	n/a	n/a	"fixation"	n/a	n/a	n/a	n/a	"NULL"	n/a	"NULL"	"NULL"	"NULL"	"<p style=\"color: black; font-size: 80px; padding-left: 34%; padding-right: 6%; padding-top: 18%; padding-bottom: 30%\">+</p>"	"1072"	n/a	n/a	n/a	n/a	n/a	n/a	n/a	n/a	n/a
n/a	"image-keyboard-response"	"122"	"317890"	"0.0-5.0-2.0-1.34"	"ufvy5m"	"600"	"1366"	"chrome"	"111.0.0"	"FALSE"	"Windows 10"	"60.3"	"058"	n/a	n/a	n/a	n/a	n/a	n/a	"Trial"	n/a	n/a	n/a	"478"	"arrowdown"	n/a	"NULL"	"NULL"	"NULL"	"stimuli/MullerLyer_-2.3000_-0.14541.png"	n/a	"MullerLyer"	"arrowdown"	"1074"	"TRUE"	"MullerLyer"	"-2.300000000"	"-0.145410000"	"1"	"53"
n/a	"html-keyboard-response"	"123"	"318914"	"0.0-5.0-2.0-0.35"	"ufvy5m"	"600"	"1366"	"chrome"	"111.0.0"	"FALSE"	"Windows 10"	"60.3"	"058"	n/a	n/a	n/a	n/a	n/a	n/a	"fixation"	n/a	n/a	n/a	n/a	"NULL"	n/a	"NULL"	"NULL"	"NULL"	"<p style=\"color: black; font-size: 80px; padding-left: 24%; padding-right: 39%; padding-top: 17%; padding-bottom: 36%\">+</p>"	"1020"	n/a	n/a	n/a	n/a	n/a	n/a	n/a	n/a	n/a
n/a	"image-keyboard-response"	"124"	"319932"	"0.0-5.0-2.0-1.35"	"ufvy5m"	"600"	"1366"	"chrome"	"111.0.0"	"FALSE"	"Windows 10"	"60.3"	"058"	n/a	n/a	n/a	n/a	n/a	n/a	"Trial"	n/a	n/a	n/a	"1017"	"arrowup"	n/a	"NULL"	"NULL"	"NULL"	"stimuli/MullerLyer_8.21429_0.14541.png"	n/a	"MullerLyer"	"arrowup"	"1024"	"TRUE"	"MullerLyer"	"8.2142900000"	"0.1454100000"	"1"	"54"
n/a	"html-keyboard-response"	"125"	"321398"	"0.0-5.0-2.0-0.36"	"ufvy5m"	"600"	"1366"	"chrome"	"111.0.0"	"FALSE"	"Windows 10"	"60.3"	"058"	n/a	n/a	n/a	n/a	n/a	n/a	"fixation"	n/a	n/a	n/a	n/a	"NULL"	n/a	"NULL"	"NULL"	"NULL"	"<p style=\"color: black; font-size: 80px; padding-left: 0%; padding-right: 17%; padding-top: 32%; padding-bottom: 28%\">+</p>"	"1454"	n/a	n/a	n/a	n/a	n/a	n/a	n/a	n/a	n/a
n/a	"image-keyboard-response"	"126"	"322517"	"0.0-5.0-2.0-1.36"	"ufvy5m"	"600"	"1366"	"chrome"	"111.0.0"	"FALSE"	"Windows 10"	"60.3"	"058"	n/a	n/a	n/a	n/a	n/a	n/a	"Trial"	n/a	n/a	n/a	"1119"	"arrowup"	n/a	"NULL"	"NULL"	"NULL"	"stimuli/MullerLyer_8.21429_-0.07627.png"	n/a	"MullerLyer"	"arrowdown"	"1466"	"FALSE"	"MullerLyer"	"8.2142900000"	"-0.076270000"	"1"	"55"
n/a	"html-keyboard-response"	"127"	"323582"	"0.0-5.0-2.0-0.37"	"ufvy5m"	"600"	"1366"	"chrome"	"111.0.0"	"FALSE"	"Windows 10"	"60.3"	"058"	n/a	n/a	n/a	n/a	n/a	n/a	"fixation"	n/a	n/a	n/a	n/a	"NULL"	n/a	"NULL"	"NULL"	"NULL"	"<p style=\"color: black; font-size: 80px; padding-left: 34%; padding-right: 12%; padding-top: 2%; padding-bottom: 30%\">+</p>"	"1048"	n/a	n/a	n/a	n/a	n/a	n/a	n/a	n/a	n/a
n/a	"image-keyboard-response"	"128"	"324054"	"0.0-5.0-2.0-1.37"	"ufvy5m"	"600"	"1366"	"chrome"	"111.0.0"	"FALSE"	"Windows 10"	"60.3"	"058"	n/a	n/a	n/a	n/a	n/a	n/a	"Trial"	n/a	n/a	n/a	"471"	"arrowdown"	n/a	"NULL"	"NULL"	"NULL"	"stimuli/MullerLyer_-2.3000_-0.3500.png"	n/a	"MullerLyer"	"arrowdown"	"1065"	"TRUE"	"MullerLyer"	"-2.300000000"	"-0.350000000"	"1"	"56"
n/a	"html-keyboard-response"	"129"	"325444"	"0.0-5.0-2.0-0.38"	"ufvy5m"	"600"	"1366"	"chrome"	"111.0.0"	"FALSE"	"Windows 10"	"60.3"	"058"	n/a	n/a	n/a	n/a	n/a	n/a	"fixation"	n/a	n/a	n/a	n/a	"NULL"	n/a	"NULL"	"NULL"	"NULL"	"<p style=\"color: black; font-size: 80px; padding-left: 37%; padding-right: 13%; padding-top: 21%; padding-bottom: 19%\">+</p>"	"1384"	n/a	n/a	n/a	n/a	n/a	n/a	n/a	n/a	n/a
n/a	"image-keyboard-response"	"130"	"325921"	"0.0-5.0-2.0-1.38"	"ufvy5m"	"600"	"1366"	"chrome"	"111.0.0"	"FALSE"	"Windows 10"	"60.3"	"058"	n/a	n/a	n/a	n/a	n/a	n/a	"Trial"	n/a	n/a	n/a	"476"	"arrowup"	n/a	"NULL"	"NULL"	"NULL"	"stimuli/MullerLyer_20.04286_-0.07627.png"	n/a	"MullerLyer"	"arrowdown"	"1390"	"FALSE"	"MullerLyer"	"20.042860000"	"-0.076270000"	"1"	"57"
n/a	"html-keyboard-response"	"131"	"327159"	"0.0-5.0-2.0-0.39"	"ufvy5m"	"600"	"1366"	"chrome"	"111.0.0"	"FALSE"	"Windows 10"	"60.3"	"058"	n/a	n/a	n/a	n/a	n/a	n/a	"fixation"	n/a	n/a	n/a	n/a	"NULL"	n/a	"NULL"	"NULL"	"NULL"	"<p style=\"color: black; font-size: 80px; padding-left: 37%; padding-right: 1%; padding-top: 49%; padding-bottom: 49%\">+</p>"	"1229"	n/a	n/a	n/a	n/a	n/a	n/a	n/a	n/a	n/a
n/a	"image-keyboard-response"	"132"	"327656"	"0.0-5.0-2.0-1.39"	"ufvy5m"	"600"	"1366"	"chrome"	"111.0.0"	"FALSE"	"Windows 10"	"60.3"	"058"	n/a	n/a	n/a	n/a	n/a	n/a	"Trial"	n/a	n/a	n/a	"497"	"arrowdown"	n/a	"NULL"	"NULL"	"NULL"	"stimuli/MullerLyer_14.12857_0.07627.png"	n/a	"MullerLyer"	"arrowup"	"1238"	"FALSE"	"MullerLyer"	"14.128570000"	"0.0762700000"	"1"	"58"
n/a	"html-keyboard-response"	"133"	"328933"	"0.0-5.0-2.0-0.40"	"ufvy5m"	"600"	"1366"	"chrome"	"111.0.0"	"FALSE"	"Windows 10"	"60.3"	"058"	n/a	n/a	n/a	n/a	n/a	n/a	"fixation"	n/a	n/a	n/a	n/a	"NULL"	n/a	"NULL"	"NULL"	"NULL"	"<p style=\"color: black; font-size: 80px; padding-left: 47%; padding-right: 13%; padding-top: 30%; padding-bottom: 33%\">+</p>"	"1266"	n/a	n/a	n/a	n/a	n/a	n/a	n/a	n/a	n/a
n/a	"image-keyboard-response"	"134"	"329385"	"0.0-5.0-2.0-1.40"	"ufvy5m"	"600"	"1366"	"chrome"	"111.0.0"	"FALSE"	"Windows 10"	"60.3"	"058"	n/a	n/a	n/a	n/a	n/a	n/a	"Trial"	n/a	n/a	n/a	"451"	"arrowup"	n/a	"NULL"	"NULL"	"NULL"	"stimuli/MullerLyer_-2.3000_0.23665.png"	n/a	"MullerLyer"	"arrowup"	"1277"	"TRUE"	"MullerLyer"	"-2.300000000"	"0.2366500000"	"1"	"59"
n/a	"html-keyboard-response"	"135"	"330747"	"0.0-5.0-2.0-0.41"	"ufvy5m"	"600"	"1366"	"chrome"	"111.0.0"	"FALSE"	"Windows 10"	"60.3"	"058"	n/a	n/a	n/a	n/a	n/a	n/a	"fixation"	n/a	n/a	n/a	n/a	"NULL"	n/a	"NULL"	"NULL"	"NULL"	"<p style=\"color: black; font-size: 80px; padding-left: 18%; padding-right: 1%; padding-top: 6%; padding-bottom: 36%\">+</p>"	"1355"	n/a	n/a	n/a	n/a	n/a	n/a	n/a	n/a	n/a
n/a	"image-keyboard-response"	"136"	"331174"	"0.0-5.0-2.0-1.41"	"ufvy5m"	"600"	"1366"	"chrome"	"111.0.0"	"FALSE"	"Windows 10"	"60.3"	"058"	n/a	n/a	n/a	n/a	n/a	n/a	"Trial"	n/a	n/a	n/a	"427"	"arrowup"	n/a	"NULL"	"NULL"	"NULL"	"stimuli/MullerLyer_8.21429_0.23665.png"	n/a	"MullerLyer"	"arrowup"	"1362"	"TRUE"	"MullerLyer"	"8.2142900000"	"0.2366500000"	"1"	"60"
n/a	"html-keyboard-response"	"137"	"332321"	"0.0-5.0-2.0-0.42"	"ufvy5m"	"600"	"1366"	"chrome"	"111.0.0"	"FALSE"	"Windows 10"	"60.3"	"058"	n/a	n/a	n/a	n/a	n/a	n/a	"fixation"	n/a	n/a	n/a	n/a	"NULL"	n/a	"NULL"	"NULL"	"NULL"	"<p style=\"color: black; font-size: 80px; padding-left: 13%; padding-right: 38%; padding-top: 43%; padding-bottom: 43%\">+</p>"	"1135"	n/a	n/a	n/a	n/a	n/a	n/a	n/a	n/a	n/a
n/a	"image-keyboard-response"	"138"	"333155"	"0.0-5.0-2.0-1.42"	"ufvy5m"	"600"	"1366"	"chrome"	"111.0.0"	"FALSE"	"Windows 10"	"60.3"	"058"	n/a	n/a	n/a	n/a	n/a	n/a	"Trial"	n/a	n/a	n/a	"833"	"arrowdown"	n/a	"NULL"	"NULL"	"NULL"	"stimuli/MullerLyer_2.30000_-0.14541.png"	n/a	"MullerLyer"	"arrowdown"	"1147"	"TRUE"	"MullerLyer"	"2.3000000000"	"-0.145410000"	"1"	"61"
n/a	"html-keyboard-response"	"139"	"334586"	"0.0-5.0-2.0-0.43"	"ufvy5m"	"600"	"1366"	"chrome"	"111.0.0"	"FALSE"	"Windows 10"	"60.3"	"058"	n/a	n/a	n/a	n/a	n/a	n/a	"fixation"	n/a	n/a	n/a	n/a	"NULL"	n/a	"NULL"	"NULL"	"NULL"	"<p style=\"color: black; font-size: 80px; padding-left: 45%; padding-right: 23%; padding-top: 12%; padding-bottom: 44%\">+</p>"	"1428"	n/a	n/a	n/a	n/a	n/a	n/a	n/a	n/a	n/a
n/a	"image-keyboard-response"	"140"	"335059"	"0.0-5.0-2.0-1.43"	"ufvy5m"	"600"	"1366"	"chrome"	"111.0.0"	"FALSE"	"Windows 10"	"60.3"	"058"	n/a	n/a	n/a	n/a	n/a	n/a	"Trial"	n/a	n/a	n/a	"472"	"arrowdown"	n/a	"NULL"	"NULL"	"NULL"	"stimuli/MullerLyer_-8.21429_-0.3500.png"	n/a	"MullerLyer"	"arrowdown"	"1431"	"TRUE"	"MullerLyer"	"-8.214290000"	"-0.350000000"	"1"	"62"
n/a	"html-keyboard-response"	"141"	"336445"	"0.0-5.0-2.0-0.44"	"ufvy5m"	"600"	"1366"	"chrome"	"111.0.0"	"FALSE"	"Windows 10"	"60.3"	"058"	n/a	n/a	n/a	n/a	n/a	n/a	"fixation"	n/a	n/a	n/a	n/a	"NULL"	n/a	"NULL"	"NULL"	"NULL"	"<p style=\"color: black; font-size: 80px; padding-left: 9%; padding-right: 29%; padding-top: 40%; padding-bottom: 40%\">+</p>"	"1370"	n/a	n/a	n/a	n/a	n/a	n/a	n/a	n/a	n/a
n/a	"image-keyboard-response"	"142"	"337003"	"0.0-5.0-2.0-1.44"	"ufvy5m"	"600"	"1366"	"chrome"	"111.0.0"	"FALSE"	"Windows 10"	"60.3"	"058"	n/a	n/a	n/a	n/a	n/a	n/a	"Trial"	n/a	n/a	n/a	"557"	"arrowup"	n/a	"NULL"	"NULL"	"NULL"	"stimuli/MullerLyer_14.12857_0.23665.png"	n/a	"MullerLyer"	"arrowup"	"1386"	"TRUE"	"MullerLyer"	"14.128570000"	"0.2366500000"	"1"	"63"
n/a	"html-keyboard-response"	"143"	"338101"	"0.0-5.0-2.0-0.45"	"ufvy5m"	"600"	"1366"	"chrome"	"111.0.0"	"FALSE"	"Windows 10"	"60.3"	"058"	n/a	n/a	n/a	n/a	n/a	n/a	"fixation"	n/a	n/a	n/a	n/a	"NULL"	n/a	"NULL"	"NULL"	"NULL"	"<p style=\"color: black; font-size: 80px; padding-left: 30%; padding-right: 37%; padding-top: 30%; padding-bottom: 47%\">+</p>"	"1085"	n/a	n/a	n/a	n/a	n/a	n/a	n/a	n/a	n/a
n/a	"image-keyboard-response"	"144"	"338666"	"0.0-5.0-2.0-1.45"	"ufvy5m"	"600"	"1366"	"chrome"	"111.0.0"	"FALSE"	"Windows 10"	"60.3"	"058"	n/a	n/a	n/a	n/a	n/a	n/a	"Trial"	n/a	n/a	n/a	"564"	"arrowup"	n/a	"NULL"	"NULL"	"NULL"	"stimuli/MullerLyer_20.04286_-0.14541.png"	n/a	"MullerLyer"	"arrowdown"	"1098"	"FALSE"	"MullerLyer"	"20.042860000"	"-0.145410000"	"1"	"64"
n/a	"html-keyboard-response"	"145"	"339852"	"0.0-5.0-2.0-0.46"	"ufvy5m"	"600"	"1366"	"chrome"	"111.0.0"	"FALSE"	"Windows 10"	"60.3"	"058"	n/a	n/a	n/a	n/a	n/a	n/a	"fixation"	n/a	n/a	n/a	n/a	"NULL"	n/a	"NULL"	"NULL"	"NULL"	"<p style=\"color: black; font-size: 80px; padding-left: 29%; padding-right: 49%; padding-top: 46%; padding-bottom: 22%\">+</p>"	"1179"	n/a	n/a	n/a	n/a	n/a	n/a	n/a	n/a	n/a
n/a	"image-keyboard-response"	"146"	"340531"	"0.0-5.0-2.0-1.46"	"ufvy5m"	"600"	"1366"	"chrome"	"111.0.0"	"FALSE"	"Windows 10"	"60.3"	"058"	n/a	n/a	n/a	n/a	n/a	n/a	"Trial"	n/a	n/a	n/a	"678"	"arrowdown"	n/a	"NULL"	"NULL"	"NULL"	"stimuli/MullerLyer_8.21429_0.07627.png"	n/a	"MullerLyer"	"arrowup"	"1186"	"FALSE"	"MullerLyer"	"8.2142900000"	"0.0762700000"	"1"	"65"
n/a	"html-keyboard-response"	"147"	"341604"	"0.0-5.0-2.0-0.47"	"ufvy5m"	"600"	"1366"	"chrome"	"111.0.0"	"FALSE"	"Windows 10"	"60.3"	"058"	n/a	n/a	n/a	n/a	n/a	n/a	"fixation"	n/a	n/a	n/a	n/a	"NULL"	n/a	"NULL"	"NULL"	"NULL"	"<p style=\"color: black; font-size: 80px; padding-left: 24%; padding-right: 14%; padding-top: 39%; padding-bottom: 19%\">+</p>"	"1066"	n/a	n/a	n/a	n/a	n/a	n/a	n/a	n/a	n/a
n/a	"image-keyboard-response"	"148"	"342475"	"0.0-5.0-2.0-1.47"	"ufvy5m"	"600"	"1366"	"chrome"	"111.0.0"	"FALSE"	"Windows 10"	"60.3"	"058"	n/a	n/a	n/a	n/a	n/a	n/a	"Trial"	n/a	n/a	n/a	"870"	"arrowdown"	n/a	"NULL"	"NULL"	"NULL"	"stimuli/MullerLyer_-8.21429_-0.14541.png"	n/a	"MullerLyer"	"arrowdown"	"1073"	"TRUE"	"MullerLyer"	"-8.214290000"	"-0.145410000"	"1"	"66"
n/a	"html-keyboard-response"	"149"	"343755"	"0.0-5.0-2.0-0.48"	"ufvy5m"	"600"	"1366"	"chrome"	"111.0.0"	"FALSE"	"Windows 10"	"60.3"	"058"	n/a	n/a	n/a	n/a	n/a	n/a	"fixation"	n/a	n/a	n/a	n/a	"NULL"	n/a	"NULL"	"NULL"	"NULL"	"<p style=\"color: black; font-size: 80px; padding-left: 20%; padding-right: 37%; padding-top: 49%; padding-bottom: 2%\">+</p>"	"1266"	n/a	n/a	n/a	n/a	n/a	n/a	n/a	n/a	n/a
n/a	"image-keyboard-response"	"150"	"344289"	"0.0-5.0-2.0-1.48"	"ufvy5m"	"600"	"1366"	"chrome"	"111.0.0"	"FALSE"	"Windows 10"	"60.3"	"058"	n/a	n/a	n/a	n/a	n/a	n/a	"Trial"	n/a	n/a	n/a	"534"	"arrowup"	n/a	"NULL"	"NULL"	"NULL"	"stimuli/MullerLyer_2.30000_0.23665.png"	n/a	"MullerLyer"	"arrowup"	"1280"	"TRUE"	"MullerLyer"	"2.3000000000"	"0.2366500000"	"1"	"67"
n/a	"html-keyboard-response"	"151"	"345489"	"0.0-5.0-2.0-0.49"	"ufvy5m"	"600"	"1366"	"chrome"	"111.0.0"	"FALSE"	"Windows 10"	"60.3"	"058"	n/a	n/a	n/a	n/a	n/a	n/a	"fixation"	n/a	n/a	n/a	n/a	"NULL"	n/a	"NULL"	"NULL"	"NULL"	"<p style=\"color: black; font-size: 80px; padding-left: 8%; padding-right: 42%; padding-top: 3%; padding-bottom: 14%\">+</p>"	"1189"	n/a	n/a	n/a	n/a	n/a	n/a	n/a	n/a	n/a
n/a	"image-keyboard-response"	"152"	"345979"	"0.0-5.0-2.0-1.49"	"ufvy5m"	"600"	"1366"	"chrome"	"111.0.0"	"FALSE"	"Windows 10"	"60.3"	"058"	n/a	n/a	n/a	n/a	n/a	n/a	"Trial"	n/a	n/a	n/a	"487"	"arrowup"	n/a	"NULL"	"NULL"	"NULL"	"stimuli/MullerLyer_-8.21429_0.07627.png"	n/a	"MullerLyer"	"arrowup"	"1200"	"TRUE"	"MullerLyer"	"-8.214290000"	"0.0762700000"	"1"	"68"
n/a	"html-keyboard-response"	"153"	"347015"	"0.0-5.0-2.0-0.50"	"ufvy5m"	"600"	"1366"	"chrome"	"111.0.0"	"FALSE"	"Windows 10"	"60.3"	"058"	n/a	n/a	n/a	n/a	n/a	n/a	"fixation"	n/a	n/a	n/a	n/a	"NULL"	n/a	"NULL"	"NULL"	"NULL"	"<p style=\"color: black; font-size: 80px; padding-left: 48%; padding-right: 10%; padding-top: 43%; padding-bottom: 48%\">+</p>"	"1034"	n/a	n/a	n/a	n/a	n/a	n/a	n/a	n/a	n/a
n/a	"image-keyboard-response"	"154"	"347631"	"0.0-5.0-2.0-1.50"	"ufvy5m"	"600"	"1366"	"chrome"	"111.0.0"	"FALSE"	"Windows 10"	"60.3"	"058"	n/a	n/a	n/a	n/a	n/a	n/a	"Trial"	n/a	n/a	n/a	"615"	"arrowdown"	n/a	"NULL"	"NULL"	"NULL"	"stimuli/MullerLyer_-2.3000_-0.23665.png"	n/a	"MullerLyer"	"arrowdown"	"1036"	"TRUE"	"MullerLyer"	"-2.300000000"	"-0.236650000"	"1"	"69"
n/a	"html-keyboard-response"	"155"	"349111"	"0.0-5.0-2.0-0.51"	"ufvy5m"	"600"	"1366"	"chrome"	"111.0.0"	"FALSE"	"Windows 10"	"60.3"	"058"	n/a	n/a	n/a	n/a	n/a	n/a	"fixation"	n/a	n/a	n/a	n/a	"NULL"	n/a	"NULL"	"NULL"	"NULL"	"<p style=\"color: black; font-size: 80px; padding-left: 5%; padding-right: 29%; padding-top: 27%; padding-bottom: 2%\">+</p>"	"1473"	n/a	n/a	n/a	n/a	n/a	n/a	n/a	n/a	n/a
n/a	"image-keyboard-response"	"156"	"349529"	"0.0-5.0-2.0-1.51"	"ufvy5m"	"600"	"1366"	"chrome"	"111.0.0"	"FALSE"	"Windows 10"	"60.3"	"058"	n/a	n/a	n/a	n/a	n/a	n/a	"Trial"	n/a	n/a	n/a	"416"	"arrowup"	n/a	"NULL"	"NULL"	"NULL"	"stimuli/MullerLyer_14.12857_-0.3500.png"	n/a	"MullerLyer"	"arrowdown"	"1480"	"FALSE"	"MullerLyer"	"14.128570000"	"-0.350000000"	"1"	"70"
n/a	"html-keyboard-response"	"157"	"350778"	"0.0-5.0-2.0-0.52"	"ufvy5m"	"600"	"1366"	"chrome"	"111.0.0"	"FALSE"	"Windows 10"	"60.3"	"058"	n/a	n/a	n/a	n/a	n/a	n/a	"fixation"	n/a	n/a	n/a	n/a	"NULL"	n/a	"NULL"	"NULL"	"NULL"	"<p style=\"color: black; font-size: 80px; padding-left: 17%; padding-right: 45%; padding-top: 33%; padding-bottom: 19%\">+</p>"	"1241"	n/a	n/a	n/a	n/a	n/a	n/a	n/a	n/a	n/a
n/a	"image-keyboard-response"	"158"	"351458"	"0.0-5.0-2.0-1.52"	"ufvy5m"	"600"	"1366"	"chrome"	"111.0.0"	"FALSE"	"Windows 10"	"60.3"	"058"	n/a	n/a	n/a	n/a	n/a	n/a	"Trial"	n/a	n/a	n/a	"679"	"arrowdown"	n/a	"NULL"	"NULL"	"NULL"	"stimuli/MullerLyer_-2.3000_-0.07627.png"	n/a	"MullerLyer"	"arrowdown"	"1249"	"TRUE"	"MullerLyer"	"-2.300000000"	"-0.076270000"	"1"	"71"
n/a	"html-keyboard-response"	"159"	"352508"	"0.0-5.0-2.0-0.53"	"ufvy5m"	"600"	"1366"	"chrome"	"111.0.0"	"FALSE"	"Windows 10"	"60.3"	"058"	n/a	n/a	n/a	n/a	n/a	n/a	"fixation"	n/a	n/a	n/a	n/a	"NULL"	n/a	"NULL"	"NULL"	"NULL"	"<p style=\"color: black; font-size: 80px; padding-left: 24%; padding-right: 36%; padding-top: 36%; padding-bottom: 1%\">+</p>"	"1044"	n/a	n/a	n/a	n/a	n/a	n/a	n/a	n/a	n/a
n/a	"image-keyboard-response"	"160"	"353097"	"0.0-5.0-2.0-1.53"	"ufvy5m"	"600"	"1366"	"chrome"	"111.0.0"	"FALSE"	"Windows 10"	"60.3"	"058"	n/a	n/a	n/a	n/a	n/a	n/a	"Trial"	n/a	n/a	n/a	"588"	"arrowup"	n/a	"NULL"	"NULL"	"NULL"	"stimuli/MullerLyer_-20.04286_0.07627.png"	n/a	"MullerLyer"	"arrowup"	"1050"	"TRUE"	"MullerLyer"	"-20.04286000"	"0.0762700000"	"1"	"72"
n/a	"html-keyboard-response"	"161"	"354336"	"0.0-5.0-2.0-0.54"	"ufvy5m"	"600"	"1366"	"chrome"	"111.0.0"	"FALSE"	"Windows 10"	"60.3"	"058"	n/a	n/a	n/a	n/a	n/a	n/a	"fixation"	n/a	n/a	n/a	n/a	"NULL"	n/a	"NULL"	"NULL"	"NULL"	"<p style=\"color: black; font-size: 80px; padding-left: 39%; padding-right: 48%; padding-top: 11%; padding-bottom: 18%\">+</p>"	"1237"	n/a	n/a	n/a	n/a	n/a	n/a	n/a	n/a	n/a
n/a	"image-keyboard-response"	"162"	"354906"	"0.0-5.0-2.0-1.54"	"ufvy5m"	"600"	"1366"	"chrome"	"111.0.0"	"FALSE"	"Windows 10"	"60.3"	"058"	n/a	n/a	n/a	n/a	n/a	n/a	"Trial"	n/a	n/a	n/a	"569"	"arrowdown"	n/a	"NULL"	"NULL"	"NULL"	"stimuli/MullerLyer_2.30000_-0.3500.png"	n/a	"MullerLyer"	"arrowdown"	"1239"	"TRUE"	"MullerLyer"	"2.3000000000"	"-0.350000000"	"1"	"73"
n/a	"html-keyboard-response"	"163"	"355956"	"0.0-5.0-2.0-0.55"	"ufvy5m"	"600"	"1366"	"chrome"	"111.0.0"	"FALSE"	"Windows 10"	"60.3"	"058"	n/a	n/a	n/a	n/a	n/a	n/a	"fixation"	n/a	n/a	n/a	n/a	"NULL"	n/a	"NULL"	"NULL"	"NULL"	"<p style=\"color: black; font-size: 80px; padding-left: 37%; padding-right: 18%; padding-top: 3%; padding-bottom: 40%\">+</p>"	"1039"	n/a	n/a	n/a	n/a	n/a	n/a	n/a	n/a	n/a
n/a	"image-keyboard-response"	"164"	"356528"	"0.0-5.0-2.0-1.55"	"ufvy5m"	"600"	"1366"	"chrome"	"111.0.0"	"FALSE"	"Windows 10"	"60.3"	"058"	n/a	n/a	n/a	n/a	n/a	n/a	"Trial"	n/a	n/a	n/a	"572"	"arrowup"	n/a	"NULL"	"NULL"	"NULL"	"stimuli/MullerLyer_8.21429_0.35000.png"	n/a	"MullerLyer"	"arrowup"	"1050"	"TRUE"	"MullerLyer"	"8.2142900000"	"0.3500000000"	"1"	"74"
n/a	"html-keyboard-response"	"165"	"357910"	"0.0-5.0-2.0-0.56"	"ufvy5m"	"600"	"1366"	"chrome"	"111.0.0"	"FALSE"	"Windows 10"	"60.3"	"058"	n/a	n/a	n/a	n/a	n/a	n/a	"fixation"	n/a	n/a	n/a	n/a	"NULL"	n/a	"NULL"	"NULL"	"NULL"	"<p style=\"color: black; font-size: 80px; padding-left: 2%; padding-right: 33%; padding-top: 39%; padding-bottom: 36%\">+</p>"	"1376"	n/a	n/a	n/a	n/a	n/a	n/a	n/a	n/a	n/a
n/a	"image-keyboard-response"	"166"	"358652"	"0.0-5.0-2.0-1.56"	"ufvy5m"	"600"	"1366"	"chrome"	"111.0.0"	"FALSE"	"Windows 10"	"60.3"	"058"	n/a	n/a	n/a	n/a	n/a	n/a	"Trial"	n/a	n/a	n/a	"741"	"arrowdown"	n/a	"NULL"	"NULL"	"NULL"	"stimuli/MullerLyer_20.04286_0.14541.png"	n/a	"MullerLyer"	"arrowup"	"1382"	"FALSE"	"MullerLyer"	"20.042860000"	"0.1454100000"	"1"	"75"
n/a	"html-keyboard-response"	"167"	"360002"	"0.0-5.0-2.0-0.57"	"ufvy5m"	"600"	"1366"	"chrome"	"111.0.0"	"FALSE"	"Windows 10"	"60.3"	"058"	n/a	n/a	n/a	n/a	n/a	n/a	"fixation"	n/a	n/a	n/a	n/a	"NULL"	n/a	"NULL"	"NULL"	"NULL"	"<p style=\"color: black; font-size: 80px; padding-left: 46%; padding-right: 22%; padding-top: 5%; padding-bottom: 20%\">+</p>"	"1348"	n/a	n/a	n/a	n/a	n/a	n/a	n/a	n/a	n/a
n/a	"image-keyboard-response"	"168"	"360549"	"0.0-5.0-2.0-1.57"	"ufvy5m"	"600"	"1366"	"chrome"	"111.0.0"	"FALSE"	"Windows 10"	"60.3"	"058"	n/a	n/a	n/a	n/a	n/a	n/a	"Trial"	n/a	n/a	n/a	"546"	"arrowup"	n/a	"NULL"	"NULL"	"NULL"	"stimuli/MullerLyer_20.04286_0.35000.png"	n/a	"MullerLyer"	"arrowup"	"1350"	"TRUE"	"MullerLyer"	"20.042860000"	"0.3500000000"	"1"	"76"
n/a	"html-keyboard-response"	"169"	"361580"	"0.0-5.0-2.0-0.58"	"ufvy5m"	"600"	"1366"	"chrome"	"111.0.0"	"FALSE"	"Windows 10"	"60.3"	"058"	n/a	n/a	n/a	n/a	n/a	n/a	"fixation"	n/a	n/a	n/a	n/a	"NULL"	n/a	"NULL"	"NULL"	"NULL"	"<p style=\"color: black; font-size: 80px; padding-left: 28%; padding-right: 43%; padding-top: 42%; padding-bottom: 20%\">+</p>"	"1024"	n/a	n/a	n/a	n/a	n/a	n/a	n/a	n/a	n/a
n/a	"image-keyboard-response"	"170"	"362200"	"0.0-5.0-2.0-1.58"	"ufvy5m"	"600"	"1366"	"chrome"	"111.0.0"	"FALSE"	"Windows 10"	"60.3"	"058"	n/a	n/a	n/a	n/a	n/a	n/a	"Trial"	n/a	n/a	n/a	"619"	"arrowdown"	n/a	"NULL"	"NULL"	"NULL"	"stimuli/MullerLyer_20.04286_0.23665.png"	n/a	"MullerLyer"	"arrowup"	"1031"	"FALSE"	"MullerLyer"	"20.042860000"	"0.2366500000"	"1"	"77"
n/a	"html-keyboard-response"	"171"	"363486"	"0.0-5.0-2.0-0.59"	"ufvy5m"	"600"	"1366"	"chrome"	"111.0.0"	"FALSE"	"Windows 10"	"60.3"	"058"	n/a	n/a	n/a	n/a	n/a	n/a	"fixation"	n/a	n/a	n/a	n/a	"NULL"	n/a	"NULL"	"NULL"	"NULL"	"<p style=\"color: black; font-size: 80px; padding-left: 49%; padding-right: 18%; padding-top: 35%; padding-bottom: 12%\">+</p>"	"1271"	n/a	n/a	n/a	n/a	n/a	n/a	n/a	n/a	n/a
n/a	"image-keyboard-response"	"172"	"364071"	"0.0-5.0-2.0-1.59"	"ufvy5m"	"600"	"1366"	"chrome"	"111.0.0"	"FALSE"	"Windows 10"	"60.3"	"058"	n/a	n/a	n/a	n/a	n/a	n/a	"Trial"	n/a	n/a	n/a	"583"	"arrowdown"	n/a	"NULL"	"NULL"	"NULL"	"stimuli/MullerLyer_14.12857_0.14541.png"	n/a	"MullerLyer"	"arrowup"	"1286"	"FALSE"	"MullerLyer"	"14.128570000"	"0.1454100000"	"1"	"78"
n/a	"html-keyboard-response"	"173"	"365096"	"0.0-5.0-2.0-0.60"	"ufvy5m"	"600"	"1366"	"chrome"	"111.0.0"	"FALSE"	"Windows 10"	"60.3"	"058"	n/a	n/a	n/a	n/a	n/a	n/a	"fixation"	n/a	n/a	n/a	n/a	"NULL"	n/a	"NULL"	"NULL"	"NULL"	"<p style=\"color: black; font-size: 80px; padding-left: 4%; padding-right: 38%; padding-top: 25%; padding-bottom: 34%\">+</p>"	"1021"	n/a	n/a	n/a	n/a	n/a	n/a	n/a	n/a	n/a
n/a	"image-keyboard-response"	"174"	"365615"	"0.0-5.0-2.0-1.60"	"ufvy5m"	"600"	"1366"	"chrome"	"111.0.0"	"FALSE"	"Windows 10"	"60.3"	"058"	n/a	n/a	n/a	n/a	n/a	n/a	"Trial"	n/a	n/a	n/a	"519"	"arrowdown"	n/a	"NULL"	"NULL"	"NULL"	"stimuli/MullerLyer_-20.04286_-0.23665.png"	n/a	"MullerLyer"	"arrowdown"	"1025"	"TRUE"	"MullerLyer"	"-20.04286000"	"-0.236650000"	"1"	"79"
n/a	"html-keyboard-response"	"175"	"366788"	"0.0-5.0-2.0-0.61"	"ufvy5m"	"600"	"1366"	"chrome"	"111.0.0"	"FALSE"	"Windows 10"	"60.3"	"058"	n/a	n/a	n/a	n/a	n/a	n/a	"fixation"	n/a	n/a	n/a	n/a	"NULL"	n/a	"NULL"	"NULL"	"NULL"	"<p style=\"color: black; font-size: 80px; padding-left: 38%; padding-right: 6%; padding-top: 29%; padding-bottom: 34%\">+</p>"	"1166"	n/a	n/a	n/a	n/a	n/a	n/a	n/a	n/a	n/a
n/a	"image-keyboard-response"	"176"	"368823"	"0.0-5.0-2.0-1.61"	"ufvy5m"	"600"	"1366"	"chrome"	"111.0.0"	"FALSE"	"Windows 10"	"60.3"	"058"	n/a	n/a	n/a	n/a	n/a	n/a	"Trial"	n/a	n/a	n/a	"2035"	"arrowup"	n/a	"NULL"	"NULL"	"NULL"	"stimuli/MullerLyer_14.12857_0.35000.png"	n/a	"MullerLyer"	"arrowup"	"1173"	"TRUE"	"MullerLyer"	"14.128570000"	"0.3500000000"	"1"	"80"
n/a	"html-keyboard-response"	"177"	"369990"	"0.0-5.0-2.0-0.62"	"ufvy5m"	"600"	"1366"	"chrome"	"111.0.0"	"FALSE"	"Windows 10"	"60.3"	"058"	n/a	n/a	n/a	n/a	n/a	n/a	"fixation"	n/a	n/a	n/a	n/a	"NULL"	n/a	"NULL"	"NULL"	"NULL"	"<p style=\"color: black; font-size: 80px; padding-left: 14%; padding-right: 35%; padding-top: 8%; padding-bottom: 20%\">+</p>"	"1159"	n/a	n/a	n/a	n/a	n/a	n/a	n/a	n/a	n/a
n/a	"image-keyboard-response"	"178"	"370589"	"0.0-5.0-2.0-1.62"	"ufvy5m"	"600"	"1366"	"chrome"	"111.0.0"	"FALSE"	"Windows 10"	"60.3"	"058"	n/a	n/a	n/a	n/a	n/a	n/a	"Trial"	n/a	n/a	n/a	"598"	"arrowup"	n/a	"NULL"	"NULL"	"NULL"	"stimuli/MullerLyer_-2.3000_0.35000.png"	n/a	"MullerLyer"	"arrowup"	"1167"	"TRUE"	"MullerLyer"	"-2.300000000"	"0.3500000000"	"1"	"81"
n/a	"html-keyboard-response"	"179"	"372083"	"0.0-5.0-2.0-0.63"	"ufvy5m"	"600"	"1366"	"chrome"	"111.0.0"	"FALSE"	"Windows 10"	"60.3"	"058"	n/a	n/a	n/a	n/a	n/a	n/a	"fixation"	n/a	n/a	n/a	n/a	"NULL"	n/a	"NULL"	"NULL"	"NULL"	"<p style=\"color: black; font-size: 80px; padding-left: 24%; padding-right: 13%; padding-top: 7%; padding-bottom: 3%\">+</p>"	"1491"	n/a	n/a	n/a	n/a	n/a	n/a	n/a	n/a	n/a
n/a	"image-keyboard-response"	"180"	"372534"	"0.0-5.0-2.0-1.63"	"ufvy5m"	"600"	"1366"	"chrome"	"111.0.0"	"FALSE"	"Windows 10"	"60.3"	"058"	n/a	n/a	n/a	n/a	n/a	n/a	"Trial"	n/a	n/a	n/a	"450"	"arrowup"	n/a	"NULL"	"NULL"	"NULL"	"stimuli/MullerLyer_-20.04286_0.23665.png"	n/a	"MullerLyer"	"arrowup"	"1494"	"TRUE"	"MullerLyer"	"-20.04286000"	"0.2366500000"	"1"	"82"
n/a	"html-button-response"	"181"	"385461"	"0.0-5.0-3.0"	"ufvy5m"	"600"	"1366"	"chrome"	"111.0.0"	"FALSE"	"Windows 10"	"60.3"	"058"	n/a	n/a	n/a	n/a	n/a	n/a	"block_results"	n/a	n/a	n/a	"12925"	"0"	n/a	"NULL"	"NULL"	"NULL"	"<p>Your score for this illusion is <p style=\"color: black; font-size: 48px; font-weight: bold;\">76.5 %</p><hr><p>Can you do better in the next illusion?</p>"	n/a	n/a	n/a	n/a	n/a	n/a	n/a	n/a	n/a	n/a
"TRUE"	"preload"	"182"	"385613"	"0.0-6.0-0.0"	"ufvy5m"	"600"	"1366"	"chrome"	"111.0.0"	"FALSE"	"Windows 10"	"60.3"	"058"	n/a	n/a	n/a	n/a	n/a	n/a	n/a	n/a	n/a	n/a	n/a	"NULL"	"FALSE"	"list()"	"list()"	"list()"	n/a	n/a	n/a	n/a	n/a	n/a	n/a	n/a	n/a	n/a	n/a
n/a	"html-keyboard-response"	"183"	"390280"	"0.0-6.0-1.0"	"ufvy5m"	"600"	"1366"	"chrome"	"111.0.0"	"FALSE"	"Windows 10"	"60.3"	"058"	n/a	n/a	n/a	n/a	n/a	n/a	n/a	n/a	n/a	n/a	"4667"	"enter"	n/a	"NULL"	"NULL"	"NULL"	"<p><b>Part 2/6</b></p><p>In this part, two red circles will appear side by side on the screen.</p><p>Your task is to select which <b>red circle is bigger</b> in size as fast as you can, without making errors.</p><p>Don't get distracted by the surrounding black circles around the red circles!</p><p>Press <b>the LEFT or the RIGHT arrow</b> to indicate which is the bigger <b>red circle.</b></p><div style='float: center'><img src='materials/instructions/Ebbinghaus_Demo.png' height='300'></img><p><img src='utils/answer/answer_leftright_keyboard.PNG' height='150'></img></p><p class='small'>In this example, the correct answer is the <b>LEFT arrow</b>.</p></div><p>Are you ready? <b>Press ENTER to start</b></p>"	n/a	n/a	n/a	n/a	n/a	n/a	n/a	n/a	n/a	n/a
n/a	"html-keyboard-response"	"184"	"392179"	"0.0-6.0-2.0-0.0"	"ufvy5m"	"600"	"1366"	"chrome"	"111.0.0"	"FALSE"	"Windows 10"	"60.3"	"058"	n/a	n/a	n/a	n/a	n/a	n/a	"fixation"	n/a	n/a	n/a	n/a	"NULL"	n/a	"NULL"	"NULL"	"NULL"	"<p style=\"color: black; font-size: 80px; padding-left: 30%; padding-right: 7%; padding-top: 16%; padding-bottom: 27%\">+</p>"	"1387"	n/a	n/a	n/a	n/a	n/a	n/a	n/a	n/a	n/a
n/a	"image-keyboard-response"	"185"	"392631"	"0.0-6.0-2.0-1.0"	"ufvy5m"	"600"	"1366"	"chrome"	"111.0.0"	"FALSE"	"Windows 10"	"60.3"	"058"	n/a	n/a	n/a	n/a	n/a	n/a	"Trial"	n/a	n/a	n/a	"452"	"arrowright"	n/a	"NULL"	"NULL"	"NULL"	"stimuli/Ebbinghaus_-0.61429_0.21500.png"	n/a	"Ebbinghaus"	"arrowleft"	"1899"	"FALSE"	"Ebbinghaus"	"-0.614290000"	"0.2150000000"	"2"	"1"
n/a	"html-keyboard-response"	"186"	"394122"	"0.0-6.0-2.0-0.1"	"ufvy5m"	"600"	"1366"	"chrome"	"111.0.0"	"FALSE"	"Windows 10"	"60.3"	"058"	n/a	n/a	n/a	n/a	n/a	n/a	"fixation"	n/a	n/a	n/a	n/a	"NULL"	n/a	"NULL"	"NULL"	"NULL"	"<p style=\"color: black; font-size: 80px; padding-left: 7%; padding-right: 6%; padding-top: 32%; padding-bottom: 27%\">+</p>"	"1484"	n/a	n/a	n/a	n/a	n/a	n/a	n/a	n/a	n/a
n/a	"image-keyboard-response"	"187"	"394980"	"0.0-6.0-2.0-1.1"	"ufvy5m"	"600"	"1366"	"chrome"	"111.0.0"	"FALSE"	"Windows 10"	"60.3"	"058"	n/a	n/a	n/a	n/a	n/a	n/a	"Trial"	n/a	n/a	n/a	"857"	"arrowright"	n/a	"NULL"	"NULL"	"NULL"	"stimuli/Ebbinghaus_-0.87143_-0.15857.png"	n/a	"Ebbinghaus"	"arrowright"	"1491"	"TRUE"	"Ebbinghaus"	"-0.871430000"	"-0.158570000"	"2"	"2"
n/a	"html-keyboard-response"	"188"	"396125"	"0.0-6.0-2.0-0.2"	"ufvy5m"	"600"	"1366"	"chrome"	"111.0.0"	"FALSE"	"Windows 10"	"60.3"	"058"	n/a	n/a	n/a	n/a	n/a	n/a	"fixation"	n/a	n/a	n/a	n/a	"NULL"	n/a	"NULL"	"NULL"	"NULL"	"<p style=\"color: black; font-size: 80px; padding-left: 15%; padding-right: 7%; padding-top: 13%; padding-bottom: 16%\">+</p>"	"1134"	n/a	n/a	n/a	n/a	n/a	n/a	n/a	n/a	n/a
n/a	"image-keyboard-response"	"189"	"397003"	"0.0-6.0-2.0-1.2"	"ufvy5m"	"600"	"1366"	"chrome"	"111.0.0"	"FALSE"	"Windows 10"	"60.3"	"058"	n/a	n/a	n/a	n/a	n/a	n/a	"Trial"	n/a	n/a	n/a	"877"	"arrowleft"	n/a	"NULL"	"NULL"	"NULL"	"stimuli/Ebbinghaus_0.10000_0.15857.png"	n/a	"Ebbinghaus"	"arrowleft"	"1145"	"TRUE"	"Ebbinghaus"	"0.1000000000"	"0.1585700000"	"2"	"3"
n/a	"html-keyboard-response"	"190"	"398110"	"0.0-6.0-2.0-0.3"	"ufvy5m"	"600"	"1366"	"chrome"	"111.0.0"	"FALSE"	"Windows 10"	"60.3"	"058"	n/a	n/a	n/a	n/a	n/a	n/a	"fixation"	n/a	n/a	n/a	n/a	"NULL"	n/a	"NULL"	"NULL"	"NULL"	"<p style=\"color: black; font-size: 80px; padding-left: 28%; padding-right: 15%; padding-top: 9%; padding-bottom: 16%\">+</p>"	"1101"	n/a	n/a	n/a	n/a	n/a	n/a	n/a	n/a	n/a
n/a	"image-keyboard-response"	"191"	"398907"	"0.0-6.0-2.0-1.3"	"ufvy5m"	"600"	"1366"	"chrome"	"111.0.0"	"FALSE"	"Windows 10"	"60.3"	"058"	n/a	n/a	n/a	n/a	n/a	n/a	"Trial"	n/a	n/a	n/a	"796"	"arrowleft"	n/a	"NULL"	"NULL"	"NULL"	"stimuli/Ebbinghaus_-0.1000_0.11071.png"	n/a	"Ebbinghaus"	"arrowleft"	"1107"	"TRUE"	"Ebbinghaus"	"-0.100000000"	"0.1107100000"	"2"	"4"
n/a	"html-keyboard-response"	"192"	"400202"	"0.0-6.0-2.0-0.4"	"ufvy5m"	"600"	"1366"	"chrome"	"111.0.0"	"FALSE"	"Windows 10"	"60.3"	"058"	n/a	n/a	n/a	n/a	n/a	n/a	"fixation"	n/a	n/a	n/a	n/a	"NULL"	n/a	"NULL"	"NULL"	"NULL"	"<p style=\"color: black; font-size: 80px; padding-left: 7%; padding-right: 13%; padding-top: 16%; padding-bottom: 42%\">+</p>"	"1293"	n/a	n/a	n/a	n/a	n/a	n/a	n/a	n/a	n/a
n/a	"image-keyboard-response"	"193"	"400628"	"0.0-6.0-2.0-1.4"	"ufvy5m"	"600"	"1366"	"chrome"	"111.0.0"	"FALSE"	"Windows 10"	"60.3"	"058"	n/a	n/a	n/a	n/a	n/a	n/a	"Trial"	n/a	n/a	n/a	"426"	"arrowright"	n/a	"NULL"	"NULL"	"NULL"	"stimuli/Ebbinghaus_-0.35714_0.11071.png"	n/a	"Ebbinghaus"	"arrowleft"	"1295"	"FALSE"	"Ebbinghaus"	"-0.357140000"	"0.1107100000"	"2"	"5"
n/a	"html-keyboard-response"	"194"	"401803"	"0.0-6.0-2.0-0.5"	"ufvy5m"	"600"	"1366"	"chrome"	"111.0.0"	"FALSE"	"Windows 10"	"60.3"	"058"	n/a	n/a	n/a	n/a	n/a	n/a	"fixation"	n/a	n/a	n/a	n/a	"NULL"	n/a	"NULL"	"NULL"	"NULL"	"<p style=\"color: black; font-size: 80px; padding-left: 39%; padding-right: 46%; padding-top: 44%; padding-bottom: 13%\">+</p>"	"1158"	n/a	n/a	n/a	n/a	n/a	n/a	n/a	n/a	n/a
n/a	"image-keyboard-response"	"195"	"402782"	"0.0-6.0-2.0-1.5"	"ufvy5m"	"600"	"1366"	"chrome"	"111.0.0"	"FALSE"	"Windows 10"	"60.3"	"058"	n/a	n/a	n/a	n/a	n/a	n/a	"Trial"	n/a	n/a	n/a	"979"	"arrowleft"	n/a	"NULL"	"NULL"	"NULL"	"stimuli/Ebbinghaus_0.87143_-0.15857.png"	n/a	"Ebbinghaus"	"arrowright"	"1175"	"FALSE"	"Ebbinghaus"	"0.8714300000"	"-0.158570000"	"2"	"6"
n/a	"html-keyboard-response"	"196"	"403844"	"0.0-6.0-2.0-0.6"	"ufvy5m"	"600"	"1366"	"chrome"	"111.0.0"	"FALSE"	"Windows 10"	"60.3"	"058"	n/a	n/a	n/a	n/a	n/a	n/a	"fixation"	n/a	n/a	n/a	n/a	"NULL"	n/a	"NULL"	"NULL"	"NULL"	"<p style=\"color: black; font-size: 80px; padding-left: 16%; padding-right: 30%; padding-top: 18%; padding-bottom: 44%\">+</p>"	"1051"	n/a	n/a	n/a	n/a	n/a	n/a	n/a	n/a	n/a
n/a	"image-keyboard-response"	"197"	"404508"	"0.0-6.0-2.0-1.6"	"ufvy5m"	"600"	"1366"	"chrome"	"111.0.0"	"FALSE"	"Windows 10"	"60.3"	"058"	n/a	n/a	n/a	n/a	n/a	n/a	"Trial"	n/a	n/a	n/a	"664"	"arrowright"	n/a	"NULL"	"NULL"	"NULL"	"stimuli/Ebbinghaus_0.35714_-0.2800.png"	n/a	"Ebbinghaus"	"arrowright"	"1062"	"TRUE"	"Ebbinghaus"	"0.3571400000"	"-0.280000000"	"2"	"7"
n/a	"html-keyboard-response"	"198"	"405598"	"0.0-6.0-2.0-0.7"	"ufvy5m"	"600"	"1366"	"chrome"	"111.0.0"	"FALSE"	"Windows 10"	"60.3"	"058"	n/a	n/a	n/a	n/a	n/a	n/a	"fixation"	n/a	n/a	n/a	n/a	"NULL"	n/a	"NULL"	"NULL"	"NULL"	"<p style=\"color: black; font-size: 80px; padding-left: 9%; padding-right: 47%; padding-top: 31%; padding-bottom: 8%\">+</p>"	"1080"	n/a	n/a	n/a	n/a	n/a	n/a	n/a	n/a	n/a
n/a	"image-keyboard-response"	"199"	"406270"	"0.0-6.0-2.0-1.7"	"ufvy5m"	"600"	"1366"	"chrome"	"111.0.0"	"FALSE"	"Windows 10"	"60.3"	"058"	n/a	n/a	n/a	n/a	n/a	n/a	"Trial"	n/a	n/a	n/a	"671"	"arrowleft"	n/a	"NULL"	"NULL"	"NULL"	"stimuli/Ebbinghaus_-0.61429_0.28000.png"	n/a	"Ebbinghaus"	"arrowleft"	"1090"	"TRUE"	"Ebbinghaus"	"-0.614290000"	"0.2800000000"	"2"	"8"
n/a	"html-keyboard-response"	"200"	"407393"	"0.0-6.0-2.0-0.8"	"ufvy5m"	"600"	"1366"	"chrome"	"111.0.0"	"FALSE"	"Windows 10"	"60.3"	"058"	n/a	n/a	n/a	n/a	n/a	n/a	"fixation"	n/a	n/a	n/a	n/a	"NULL"	n/a	"NULL"	"NULL"	"NULL"	"<p style=\"color: black; font-size: 80px; padding-left: 45%; padding-right: 15%; padding-top: 3%; padding-bottom: 49%\">+</p>"	"1109"	n/a	n/a	n/a	n/a	n/a	n/a	n/a	n/a	n/a
n/a	"image-keyboard-response"	"201"	"408113"	"0.0-6.0-2.0-1.8"	"ufvy5m"	"600"	"1366"	"chrome"	"111.0.0"	"FALSE"	"Windows 10"	"60.3"	"058"	n/a	n/a	n/a	n/a	n/a	n/a	"Trial"	n/a	n/a	n/a	"719"	"arrowleft"	n/a	"NULL"	"NULL"	"NULL"	"stimuli/Ebbinghaus_0.35714_0.15857.png"	n/a	"Ebbinghaus"	"arrowleft"	"1123"	"TRUE"	"Ebbinghaus"	"0.3571400000"	"0.1585700000"	"2"	"9"
n/a	"html-keyboard-response"	"202"	"409523"	"0.0-6.0-2.0-0.9"	"ufvy5m"	"600"	"1366"	"chrome"	"111.0.0"	"FALSE"	"Windows 10"	"60.3"	"058"	n/a	n/a	n/a	n/a	n/a	n/a	"fixation"	n/a	n/a	n/a	n/a	"NULL"	n/a	"NULL"	"NULL"	"NULL"	"<p style=\"color: black; font-size: 80px; padding-left: 36%; padding-right: 17%; padding-top: 41%; padding-bottom: 44%\">+</p>"	"1395"	n/a	n/a	n/a	n/a	n/a	n/a	n/a	n/a	n/a
n/a	"image-keyboard-response"	"203"	"410242"	"0.0-6.0-2.0-1.9"	"ufvy5m"	"600"	"1366"	"chrome"	"111.0.0"	"FALSE"	"Windows 10"	"60.3"	"058"	n/a	n/a	n/a	n/a	n/a	n/a	"Trial"	n/a	n/a	n/a	"718"	"arrowright"	n/a	"NULL"	"NULL"	"NULL"	"stimuli/Ebbinghaus_0.10000_-0.2150.png"	n/a	"Ebbinghaus"	"arrowright"	"1410"	"TRUE"	"Ebbinghaus"	"0.1000000000"	"-0.215000000"	"2"	"10"
n/a	"html-keyboard-response"	"204"	"411578"	"0.0-6.0-2.0-0.10"	"ufvy5m"	"600"	"1366"	"chrome"	"111.0.0"	"FALSE"	"Windows 10"	"60.3"	"058"	n/a	n/a	n/a	n/a	n/a	n/a	"fixation"	n/a	n/a	n/a	n/a	"NULL"	n/a	"NULL"	"NULL"	"NULL"	"<p style=\"color: black; font-size: 80px; padding-left: 22%; padding-right: 0%; padding-top: 29%; padding-bottom: 6%\">+</p>"	"1327"	n/a	n/a	n/a	n/a	n/a	n/a	n/a	n/a	n/a
n/a	"image-keyboard-response"	"205"	"412156"	"0.0-6.0-2.0-1.10"	"ufvy5m"	"600"	"1366"	"chrome"	"111.0.0"	"FALSE"	"Windows 10"	"60.3"	"058"	n/a	n/a	n/a	n/a	n/a	n/a	"Trial"	n/a	n/a	n/a	"577"	"arrowleft"	n/a	"NULL"	"NULL"	"NULL"	"stimuli/Ebbinghaus_-0.35714_0.28000.png"	n/a	"Ebbinghaus"	"arrowleft"	"1336"	"TRUE"	"Ebbinghaus"	"-0.357140000"	"0.2800000000"	"2"	"11"
n/a	"html-keyboard-response"	"206"	"413299"	"0.0-6.0-2.0-0.11"	"ufvy5m"	"600"	"1366"	"chrome"	"111.0.0"	"FALSE"	"Windows 10"	"60.3"	"058"	n/a	n/a	n/a	n/a	n/a	n/a	"fixation"	n/a	n/a	n/a	n/a	"NULL"	n/a	"NULL"	"NULL"	"NULL"	"<p style=\"color: black; font-size: 80px; padding-left: 16%; padding-right: 33%; padding-top: 42%; padding-bottom: 16%\">+</p>"	"1135"	n/a	n/a	n/a	n/a	n/a	n/a	n/a	n/a	n/a
n/a	"image-keyboard-response"	"207"	"414217"	"0.0-6.0-2.0-1.11"	"ufvy5m"	"600"	"1366"	"chrome"	"111.0.0"	"FALSE"	"Windows 10"	"60.3"	"058"	n/a	n/a	n/a	n/a	n/a	n/a	"Trial"	n/a	n/a	n/a	"917"	"arrowright"	n/a	"NULL"	"NULL"	"NULL"	"stimuli/Ebbinghaus_-0.35714_-0.2150.png"	n/a	"Ebbinghaus"	"arrowright"	"1143"	"TRUE"	"Ebbinghaus"	"-0.357140000"	"-0.215000000"	"2"	"12"
n/a	"html-keyboard-response"	"208"	"415559"	"0.0-6.0-2.0-0.12"	"ufvy5m"	"600"	"1366"	"chrome"	"111.0.0"	"FALSE"	"Windows 10"	"60.3"	"058"	n/a	n/a	n/a	n/a	n/a	n/a	"fixation"	n/a	n/a	n/a	n/a	"NULL"	n/a	"NULL"	"NULL"	"NULL"	"<p style=\"color: black; font-size: 80px; padding-left: 23%; padding-right: 5%; padding-top: 16%; padding-bottom: 17%\">+</p>"	"1335"	n/a	n/a	n/a	n/a	n/a	n/a	n/a	n/a	n/a
n/a	"image-keyboard-response"	"209"	"416014"	"0.0-6.0-2.0-1.12"	"ufvy5m"	"600"	"1366"	"chrome"	"111.0.0"	"FALSE"	"Windows 10"	"60.3"	"058"	n/a	n/a	n/a	n/a	n/a	n/a	"Trial"	n/a	n/a	n/a	"455"	"arrowleft"	n/a	"NULL"	"NULL"	"NULL"	"stimuli/Ebbinghaus_0.61429_0.28000.png"	n/a	"Ebbinghaus"	"arrowleft"	"1342"	"TRUE"	"Ebbinghaus"	"0.6142900000"	"0.2800000000"	"2"	"13"
n/a	"html-keyboard-response"	"210"	"417078"	"0.0-6.0-2.0-0.13"	"ufvy5m"	"600"	"1366"	"chrome"	"111.0.0"	"FALSE"	"Windows 10"	"60.3"	"058"	n/a	n/a	n/a	n/a	n/a	n/a	"fixation"	n/a	n/a	n/a	n/a	"NULL"	n/a	"NULL"	"NULL"	"NULL"	"<p style=\"color: black; font-size: 80px; padding-left: 50%; padding-right: 11%; padding-top: 21%; padding-bottom: 12%\">+</p>"	"1059"	n/a	n/a	n/a	n/a	n/a	n/a	n/a	n/a	n/a
n/a	"image-keyboard-response"	"211"	"417617"	"0.0-6.0-2.0-1.13"	"ufvy5m"	"600"	"1366"	"chrome"	"111.0.0"	"FALSE"	"Windows 10"	"60.3"	"058"	n/a	n/a	n/a	n/a	n/a	n/a	"Trial"	n/a	n/a	n/a	"538"	"arrowright"	n/a	"NULL"	"NULL"	"NULL"	"stimuli/Ebbinghaus_0.61429_-0.11071.png"	n/a	"Ebbinghaus"	"arrowright"	"1064"	"TRUE"	"Ebbinghaus"	"0.6142900000"	"-0.110710000"	"2"	"14"
n/a	"html-keyboard-response"	"212"	"418839"	"0.0-6.0-2.0-0.14"	"ufvy5m"	"600"	"1366"	"chrome"	"111.0.0"	"FALSE"	"Windows 10"	"60.3"	"058"	n/a	n/a	n/a	n/a	n/a	n/a	"fixation"	n/a	n/a	n/a	n/a	"NULL"	n/a	"NULL"	"NULL"	"NULL"	"<p style=\"color: black; font-size: 80px; padding-left: 12%; padding-right: 30%; padding-top: 5%; padding-bottom: 33%\">+</p>"	"1208"	n/a	n/a	n/a	n/a	n/a	n/a	n/a	n/a	n/a
n/a	"image-keyboard-response"	"213"	"419388"	"0.0-6.0-2.0-1.14"	"ufvy5m"	"600"	"1366"	"chrome"	"111.0.0"	"FALSE"	"Windows 10"	"60.3"	"058"	n/a	n/a	n/a	n/a	n/a	n/a	"Trial"	n/a	n/a	n/a	"548"	"arrowleft"	n/a	"NULL"	"NULL"	"NULL"	"stimuli/Ebbinghaus_-0.1000_0.21500.png"	n/a	"Ebbinghaus"	"arrowleft"	"1222"	"TRUE"	"Ebbinghaus"	"-0.100000000"	"0.2150000000"	"2"	"15"
n/a	"html-keyboard-response"	"214"	"420577"	"0.0-6.0-2.0-0.15"	"ufvy5m"	"600"	"1366"	"chrome"	"111.0.0"	"FALSE"	"Windows 10"	"60.3"	"058"	n/a	n/a	n/a	n/a	n/a	n/a	"fixation"	n/a	n/a	n/a	n/a	"NULL"	n/a	"NULL"	"NULL"	"NULL"	"<p style=\"color: black; font-size: 80px; padding-left: 33%; padding-right: 31%; padding-top: 40%; padding-bottom: 2%\">+</p>"	"1177"	n/a	n/a	n/a	n/a	n/a	n/a	n/a	n/a	n/a
n/a	"image-keyboard-response"	"215"	"421253"	"0.0-6.0-2.0-1.15"	"ufvy5m"	"600"	"1366"	"chrome"	"111.0.0"	"FALSE"	"Windows 10"	"60.3"	"058"	n/a	n/a	n/a	n/a	n/a	n/a	"Trial"	n/a	n/a	n/a	"675"	"arrowright"	n/a	"NULL"	"NULL"	"NULL"	"stimuli/Ebbinghaus_-0.35714_-0.11071.png"	n/a	"Ebbinghaus"	"arrowright"	"1189"	"TRUE"	"Ebbinghaus"	"-0.357140000"	"-0.110710000"	"2"	"16"
n/a	"html-keyboard-response"	"216"	"422429"	"0.0-6.0-2.0-0.16"	"ufvy5m"	"600"	"1366"	"chrome"	"111.0.0"	"FALSE"	"Windows 10"	"60.3"	"058"	n/a	n/a	n/a	n/a	n/a	n/a	"fixation"	n/a	n/a	n/a	n/a	"NULL"	n/a	"NULL"	"NULL"	"NULL"	"<p style=\"color: black; font-size: 80px; padding-left: 47%; padding-right: 28%; padding-top: 26%; padding-bottom: 35%\">+</p>"	"1168"	n/a	n/a	n/a	n/a	n/a	n/a	n/a	n/a	n/a
n/a	"image-keyboard-response"	"217"	"422867"	"0.0-6.0-2.0-1.16"	"ufvy5m"	"600"	"1366"	"chrome"	"111.0.0"	"FALSE"	"Windows 10"	"60.3"	"058"	n/a	n/a	n/a	n/a	n/a	n/a	"Trial"	n/a	n/a	n/a	"438"	"arrowleft"	n/a	"NULL"	"NULL"	"NULL"	"stimuli/Ebbinghaus_0.10000_0.28000.png"	n/a	"Ebbinghaus"	"arrowleft"	"1176"	"TRUE"	"Ebbinghaus"	"0.1000000000"	"0.2800000000"	"2"	"17"
n/a	"html-keyboard-response"	"218"	"424230"	"0.0-6.0-2.0-0.17"	"ufvy5m"	"600"	"1366"	"chrome"	"111.0.0"	"FALSE"	"Windows 10"	"60.3"	"058"	n/a	n/a	n/a	n/a	n/a	n/a	"fixation"	n/a	n/a	n/a	n/a	"NULL"	n/a	"NULL"	"NULL"	"NULL"	"<p style=\"color: black; font-size: 80px; padding-left: 45%; padding-right: 1%; padding-top: 27%; padding-bottom: 24%\">+</p>"	"1355"	n/a	n/a	n/a	n/a	n/a	n/a	n/a	n/a	n/a
n/a	"image-keyboard-response"	"219"	"424969"	"0.0-6.0-2.0-1.17"	"ufvy5m"	"600"	"1366"	"chrome"	"111.0.0"	"FALSE"	"Windows 10"	"60.3"	"058"	n/a	n/a	n/a	n/a	n/a	n/a	"Trial"	n/a	n/a	n/a	"739"	"arrowleft"	n/a	"NULL"	"NULL"	"NULL"	"stimuli/Ebbinghaus_-0.87143_0.21500.png"	n/a	"Ebbinghaus"	"arrowleft"	"1363"	"TRUE"	"Ebbinghaus"	"-0.871430000"	"0.2150000000"	"2"	"18"
n/a	"html-keyboard-response"	"220"	"426181"	"0.0-6.0-2.0-0.18"	"ufvy5m"	"600"	"1366"	"chrome"	"111.0.0"	"FALSE"	"Windows 10"	"60.3"	"058"	n/a	n/a	n/a	n/a	n/a	n/a	"fixation"	n/a	n/a	n/a	n/a	"NULL"	n/a	"NULL"	"NULL"	"NULL"	"<p style=\"color: black; font-size: 80px; padding-left: 24%; padding-right: 12%; padding-top: 31%; padding-bottom: 22%\">+</p>"	"1196"	n/a	n/a	n/a	n/a	n/a	n/a	n/a	n/a	n/a
n/a	"image-keyboard-response"	"221"	"426929"	"0.0-6.0-2.0-1.18"	"ufvy5m"	"600"	"1366"	"chrome"	"111.0.0"	"FALSE"	"Windows 10"	"60.3"	"058"	n/a	n/a	n/a	n/a	n/a	n/a	"Trial"	n/a	n/a	n/a	"748"	"arrowleft"	n/a	"NULL"	"NULL"	"NULL"	"stimuli/Ebbinghaus_0.61429_-0.15857.png"	n/a	"Ebbinghaus"	"arrowright"	"1212"	"FALSE"	"Ebbinghaus"	"0.6142900000"	"-0.158570000"	"2"	"19"
n/a	"html-keyboard-response"	"222"	"428242"	"0.0-6.0-2.0-0.19"	"ufvy5m"	"600"	"1366"	"chrome"	"111.0.0"	"FALSE"	"Windows 10"	"60.3"	"058"	n/a	n/a	n/a	n/a	n/a	n/a	"fixation"	n/a	n/a	n/a	n/a	"NULL"	n/a	"NULL"	"NULL"	"NULL"	"<p style=\"color: black; font-size: 80px; padding-left: 28%; padding-right: 29%; padding-top: 14%; padding-bottom: 42%\">+</p>"	"1309"	n/a	n/a	n/a	n/a	n/a	n/a	n/a	n/a	n/a
n/a	"image-keyboard-response"	"223"	"428759"	"0.0-6.0-2.0-1.19"	"ufvy5m"	"600"	"1366"	"chrome"	"111.0.0"	"FALSE"	"Windows 10"	"60.3"	"058"	n/a	n/a	n/a	n/a	n/a	n/a	"Trial"	n/a	n/a	n/a	"516"	"arrowleft"	n/a	"NULL"	"NULL"	"NULL"	"stimuli/Ebbinghaus_0.61429_0.15857.png"	n/a	"Ebbinghaus"	"arrowleft"	"1313"	"TRUE"	"Ebbinghaus"	"0.6142900000"	"0.1585700000"	"2"	"20"
n/a	"html-keyboard-response"	"224"	"430255"	"0.0-6.0-2.0-0.20"	"ufvy5m"	"600"	"1366"	"chrome"	"111.0.0"	"FALSE"	"Windows 10"	"60.3"	"058"	n/a	n/a	n/a	n/a	n/a	n/a	"fixation"	n/a	n/a	n/a	n/a	"NULL"	n/a	"NULL"	"NULL"	"NULL"	"<p style=\"color: black; font-size: 80px; padding-left: 48%; padding-right: 45%; padding-top: 12%; padding-bottom: 25%\">+</p>"	"1480"	n/a	n/a	n/a	n/a	n/a	n/a	n/a	n/a	n/a
n/a	"image-keyboard-response"	"225"	"430976"	"0.0-6.0-2.0-1.20"	"ufvy5m"	"600"	"1366"	"chrome"	"111.0.0"	"FALSE"	"Windows 10"	"60.3"	"058"	n/a	n/a	n/a	n/a	n/a	n/a	"Trial"	n/a	n/a	n/a	"720"	"arrowright"	n/a	"NULL"	"NULL"	"NULL"	"stimuli/Ebbinghaus_-0.87143_-0.11071.png"	n/a	"Ebbinghaus"	"arrowright"	"1496"	"TRUE"	"Ebbinghaus"	"-0.871430000"	"-0.110710000"	"2"	"21"
n/a	"html-keyboard-response"	"226"	"432330"	"0.0-6.0-2.0-0.21"	"ufvy5m"	"600"	"1366"	"chrome"	"111.0.0"	"FALSE"	"Windows 10"	"60.3"	"058"	n/a	n/a	n/a	n/a	n/a	n/a	"fixation"	n/a	n/a	n/a	n/a	"NULL"	n/a	"NULL"	"NULL"	"NULL"	"<p style=\"color: black; font-size: 80px; padding-left: 31%; padding-right: 4%; padding-top: 15%; padding-bottom: 19%\">+</p>"	"1350"	n/a	n/a	n/a	n/a	n/a	n/a	n/a	n/a	n/a
n/a	"image-keyboard-response"	"227"	"432934"	"0.0-6.0-2.0-1.21"	"ufvy5m"	"600"	"1366"	"chrome"	"111.0.0"	"FALSE"	"Windows 10"	"60.3"	"058"	n/a	n/a	n/a	n/a	n/a	n/a	"Trial"	n/a	n/a	n/a	"603"	"arrowright"	n/a	"NULL"	"NULL"	"NULL"	"stimuli/Ebbinghaus_-0.87143_-0.2150.png"	n/a	"Ebbinghaus"	"arrowright"	"1354"	"TRUE"	"Ebbinghaus"	"-0.871430000"	"-0.215000000"	"2"	"22"
n/a	"html-keyboard-response"	"228"	"434095"	"0.0-6.0-2.0-0.22"	"ufvy5m"	"600"	"1366"	"chrome"	"111.0.0"	"FALSE"	"Windows 10"	"60.3"	"058"	n/a	n/a	n/a	n/a	n/a	n/a	"fixation"	n/a	n/a	n/a	n/a	"NULL"	n/a	"NULL"	"NULL"	"NULL"	"<p style=\"color: black; font-size: 80px; padding-left: 2%; padding-right: 4%; padding-top: 24%; padding-bottom: 37%\">+</p>"	"1148"	n/a	n/a	n/a	n/a	n/a	n/a	n/a	n/a	n/a
n/a	"image-keyboard-response"	"229"	"434701"	"0.0-6.0-2.0-1.22"	"ufvy5m"	"600"	"1366"	"chrome"	"111.0.0"	"FALSE"	"Windows 10"	"60.3"	"058"	n/a	n/a	n/a	n/a	n/a	n/a	"Trial"	n/a	n/a	n/a	"605"	"arrowleft"	n/a	"NULL"	"NULL"	"NULL"	"stimuli/Ebbinghaus_-0.1000_0.15857.png"	n/a	"Ebbinghaus"	"arrowleft"	"1161"	"TRUE"	"Ebbinghaus"	"-0.100000000"	"0.1585700000"	"2"	"23"
n/a	"html-keyboard-response"	"230"	"435848"	"0.0-6.0-2.0-0.23"	"ufvy5m"	"600"	"1366"	"chrome"	"111.0.0"	"FALSE"	"Windows 10"	"60.3"	"058"	n/a	n/a	n/a	n/a	n/a	n/a	"fixation"	n/a	n/a	n/a	n/a	"NULL"	n/a	"NULL"	"NULL"	"NULL"	"<p style=\"color: black; font-size: 80px; padding-left: 21%; padding-right: 2%; padding-top: 3%; padding-bottom: 49%\">+</p>"	"1131"	n/a	n/a	n/a	n/a	n/a	n/a	n/a	n/a	n/a
n/a	"image-keyboard-response"	"231"	"436427"	"0.0-6.0-2.0-1.23"	"ufvy5m"	"600"	"1366"	"chrome"	"111.0.0"	"FALSE"	"Windows 10"	"60.3"	"058"	n/a	n/a	n/a	n/a	n/a	n/a	"Trial"	n/a	n/a	n/a	"578"	"arrowright"	n/a	"NULL"	"NULL"	"NULL"	"stimuli/Ebbinghaus_-0.61429_-0.2800.png"	n/a	"Ebbinghaus"	"arrowright"	"1147"	"TRUE"	"Ebbinghaus"	"-0.614290000"	"-0.280000000"	"2"	"24"
n/a	"html-keyboard-response"	"232"	"437900"	"0.0-6.0-2.0-0.24"	"ufvy5m"	"600"	"1366"	"chrome"	"111.0.0"	"FALSE"	"Windows 10"	"60.3"	"058"	n/a	n/a	n/a	n/a	n/a	n/a	"fixation"	n/a	n/a	n/a	n/a	"NULL"	n/a	"NULL"	"NULL"	"NULL"	"<p style=\"color: black; font-size: 80px; padding-left: 5%; padding-right: 36%; padding-top: 43%; padding-bottom: 17%\">+</p>"	"1466"	n/a	n/a	n/a	n/a	n/a	n/a	n/a	n/a	n/a
n/a	"image-keyboard-response"	"233"	"438310"	"0.0-6.0-2.0-1.24"	"ufvy5m"	"600"	"1366"	"chrome"	"111.0.0"	"FALSE"	"Windows 10"	"60.3"	"058"	n/a	n/a	n/a	n/a	n/a	n/a	"Trial"	n/a	n/a	n/a	"408"	"arrowright"	n/a	"NULL"	"NULL"	"NULL"	"stimuli/Ebbinghaus_0.35714_0.28000.png"	n/a	"Ebbinghaus"	"arrowleft"	"1473"	"FALSE"	"Ebbinghaus"	"0.3571400000"	"0.2800000000"	"2"	"25"
n/a	"html-keyboard-response"	"234"	"439444"	"0.0-6.0-2.0-0.25"	"ufvy5m"	"600"	"1366"	"chrome"	"111.0.0"	"FALSE"	"Windows 10"	"60.3"	"058"	n/a	n/a	n/a	n/a	n/a	n/a	"fixation"	n/a	n/a	n/a	n/a	"NULL"	n/a	"NULL"	"NULL"	"NULL"	"<p style=\"color: black; font-size: 80px; padding-left: 42%; padding-right: 21%; padding-top: 34%; padding-bottom: 10%\">+</p>"	"1131"	n/a	n/a	n/a	n/a	n/a	n/a	n/a	n/a	n/a
n/a	"image-keyboard-response"	"235"	"439955"	"0.0-6.0-2.0-1.25"	"ufvy5m"	"600"	"1366"	"chrome"	"111.0.0"	"FALSE"	"Windows 10"	"60.3"	"058"	n/a	n/a	n/a	n/a	n/a	n/a	"Trial"	n/a	n/a	n/a	"510"	"arrowleft"	n/a	"NULL"	"NULL"	"NULL"	"stimuli/Ebbinghaus_-0.35714_-0.15857.png"	n/a	"Ebbinghaus"	"arrowright"	"1134"	"FALSE"	"Ebbinghaus"	"-0.357140000"	"-0.158570000"	"2"	"26"
n/a	"html-keyboard-response"	"236"	"441135"	"0.0-6.0-2.0-0.26"	"ufvy5m"	"600"	"1366"	"chrome"	"111.0.0"	"FALSE"	"Windows 10"	"60.3"	"058"	n/a	n/a	n/a	n/a	n/a	n/a	"fixation"	n/a	n/a	n/a	n/a	"NULL"	n/a	"NULL"	"NULL"	"NULL"	"<p style=\"color: black; font-size: 80px; padding-left: 14%; padding-right: 24%; padding-top: 45%; padding-bottom: 18%\">+</p>"	"1179"	n/a	n/a	n/a	n/a	n/a	n/a	n/a	n/a	n/a
n/a	"image-keyboard-response"	"237"	"441733"	"0.0-6.0-2.0-1.26"	"ufvy5m"	"600"	"1366"	"chrome"	"111.0.0"	"FALSE"	"Windows 10"	"60.3"	"058"	n/a	n/a	n/a	n/a	n/a	n/a	"Trial"	n/a	n/a	n/a	"597"	"arrowleft"	n/a	"NULL"	"NULL"	"NULL"	"stimuli/Ebbinghaus_0.35714_0.21500.png"	n/a	"Ebbinghaus"	"arrowleft"	"1180"	"TRUE"	"Ebbinghaus"	"0.3571400000"	"0.2150000000"	"2"	"27"
n/a	"html-keyboard-response"	"238"	"443098"	"0.0-6.0-2.0-0.27"	"ufvy5m"	"600"	"1366"	"chrome"	"111.0.0"	"FALSE"	"Windows 10"	"60.3"	"058"	n/a	n/a	n/a	n/a	n/a	n/a	"fixation"	n/a	n/a	n/a	n/a	"NULL"	n/a	"NULL"	"NULL"	"NULL"	"<p style=\"color: black; font-size: 80px; padding-left: 20%; padding-right: 28%; padding-top: 47%; padding-bottom: 16%\">+</p>"	"1361"	n/a	n/a	n/a	n/a	n/a	n/a	n/a	n/a	n/a
n/a	"image-keyboard-response"	"239"	"443635"	"0.0-6.0-2.0-1.27"	"ufvy5m"	"600"	"1366"	"chrome"	"111.0.0"	"FALSE"	"Windows 10"	"60.3"	"058"	n/a	n/a	n/a	n/a	n/a	n/a	"Trial"	n/a	n/a	n/a	"537"	"arrowleft"	n/a	"NULL"	"NULL"	"NULL"	"stimuli/Ebbinghaus_0.61429_0.21500.png"	n/a	"Ebbinghaus"	"arrowleft"	"1365"	"TRUE"	"Ebbinghaus"	"0.6142900000"	"0.2150000000"	"2"	"28"
n/a	"html-keyboard-response"	"240"	"444960"	"0.0-6.0-2.0-0.28"	"ufvy5m"	"600"	"1366"	"chrome"	"111.0.0"	"FALSE"	"Windows 10"	"60.3"	"058"	n/a	n/a	n/a	n/a	n/a	n/a	"fixation"	n/a	n/a	n/a	n/a	"NULL"	n/a	"NULL"	"NULL"	"NULL"	"<p style=\"color: black; font-size: 80px; padding-left: 31%; padding-right: 5%; padding-top: 28%; padding-bottom: 28%\">+</p>"	"1312"	n/a	n/a	n/a	n/a	n/a	n/a	n/a	n/a	n/a
n/a	"image-keyboard-response"	"241"	"445483"	"0.0-6.0-2.0-1.28"	"ufvy5m"	"600"	"1366"	"chrome"	"111.0.0"	"FALSE"	"Windows 10"	"60.3"	"058"	n/a	n/a	n/a	n/a	n/a	n/a	"Trial"	n/a	n/a	n/a	"522"	"arrowright"	n/a	"NULL"	"NULL"	"NULL"	"stimuli/Ebbinghaus_0.87143_-0.2150.png"	n/a	"Ebbinghaus"	"arrowright"	"1325"	"TRUE"	"Ebbinghaus"	"0.8714300000"	"-0.215000000"	"2"	"29"
n/a	"html-keyboard-response"	"242"	"446503"	"0.0-6.0-2.0-0.29"	"ufvy5m"	"600"	"1366"	"chrome"	"111.0.0"	"FALSE"	"Windows 10"	"60.3"	"058"	n/a	n/a	n/a	n/a	n/a	n/a	"fixation"	n/a	n/a	n/a	n/a	"NULL"	n/a	"NULL"	"NULL"	"NULL"	"<p style=\"color: black; font-size: 80px; padding-left: 1%; padding-right: 8%; padding-top: 30%; padding-bottom: 33%\">+</p>"	"1009"	n/a	n/a	n/a	n/a	n/a	n/a	n/a	n/a	n/a
n/a	"image-keyboard-response"	"243"	"447156"	"0.0-6.0-2.0-1.29"	"ufvy5m"	"600"	"1366"	"chrome"	"111.0.0"	"FALSE"	"Windows 10"	"60.3"	"058"	n/a	n/a	n/a	n/a	n/a	n/a	"Trial"	n/a	n/a	n/a	"650"	"arrowleft"	n/a	"NULL"	"NULL"	"NULL"	"stimuli/Ebbinghaus_-0.1000_-0.11071.png"	n/a	"Ebbinghaus"	"arrowright"	"1020"	"FALSE"	"Ebbinghaus"	"-0.100000000"	"-0.110710000"	"2"	"30"
n/a	"html-keyboard-response"	"244"	"448491"	"0.0-6.0-2.0-0.30"	"ufvy5m"	"600"	"1366"	"chrome"	"111.0.0"	"FALSE"	"Windows 10"	"60.3"	"058"	n/a	n/a	n/a	n/a	n/a	n/a	"fixation"	n/a	n/a	n/a	n/a	"NULL"	n/a	"NULL"	"NULL"	"NULL"	"<p style=\"color: black; font-size: 80px; padding-left: 15%; padding-right: 30%; padding-top: 26%; padding-bottom: 24%\">+</p>"	"1318"	n/a	n/a	n/a	n/a	n/a	n/a	n/a	n/a	n/a
n/a	"image-keyboard-response"	"245"	"449049"	"0.0-6.0-2.0-1.30"	"ufvy5m"	"600"	"1366"	"chrome"	"111.0.0"	"FALSE"	"Windows 10"	"60.3"	"058"	n/a	n/a	n/a	n/a	n/a	n/a	"Trial"	n/a	n/a	n/a	"557"	"arrowleft"	n/a	"NULL"	"NULL"	"NULL"	"stimuli/Ebbinghaus_0.10000_0.11071.png"	n/a	"Ebbinghaus"	"arrowleft"	"1335"	"TRUE"	"Ebbinghaus"	"0.1000000000"	"0.1107100000"	"2"	"31"
n/a	"html-keyboard-response"	"246"	"450093"	"0.0-6.0-2.0-0.31"	"ufvy5m"	"600"	"1366"	"chrome"	"111.0.0"	"FALSE"	"Windows 10"	"60.3"	"058"	n/a	n/a	n/a	n/a	n/a	n/a	"fixation"	n/a	n/a	n/a	n/a	"NULL"	n/a	"NULL"	"NULL"	"NULL"	"<p style=\"color: black; font-size: 80px; padding-left: 17%; padding-right: 43%; padding-top: 20%; padding-bottom: 33%\">+</p>"	"1036"	n/a	n/a	n/a	n/a	n/a	n/a	n/a	n/a	n/a
n/a	"image-keyboard-response"	"247"	"450796"	"0.0-6.0-2.0-1.31"	"ufvy5m"	"600"	"1366"	"chrome"	"111.0.0"	"FALSE"	"Windows 10"	"60.3"	"058"	n/a	n/a	n/a	n/a	n/a	n/a	"Trial"	n/a	n/a	n/a	"703"	"arrowright"	n/a	"NULL"	"NULL"	"NULL"	"stimuli/Ebbinghaus_0.10000_-0.15857.png"	n/a	"Ebbinghaus"	"arrowright"	"1044"	"TRUE"	"Ebbinghaus"	"0.1000000000"	"-0.158570000"	"2"	"32"
n/a	"html-keyboard-response"	"248"	"451927"	"0.0-6.0-2.0-0.32"	"ufvy5m"	"600"	"1366"	"chrome"	"111.0.0"	"FALSE"	"Windows 10"	"60.3"	"058"	n/a	n/a	n/a	n/a	n/a	n/a	"fixation"	n/a	n/a	n/a	n/a	"NULL"	n/a	"NULL"	"NULL"	"NULL"	"<p style=\"color: black; font-size: 80px; padding-left: 8%; padding-right: 12%; padding-top: 4%; padding-bottom: 38%\">+</p>"	"1128"	n/a	n/a	n/a	n/a	n/a	n/a	n/a	n/a	n/a
n/a	"image-keyboard-response"	"249"	"452399"	"0.0-6.0-2.0-1.32"	"ufvy5m"	"600"	"1366"	"chrome"	"111.0.0"	"FALSE"	"Windows 10"	"60.3"	"058"	n/a	n/a	n/a	n/a	n/a	n/a	"Trial"	n/a	n/a	n/a	"472"	"arrowleft"	n/a	"NULL"	"NULL"	"NULL"	"stimuli/Ebbinghaus_-0.1000_0.28000.png"	n/a	"Ebbinghaus"	"arrowleft"	"1131"	"TRUE"	"Ebbinghaus"	"-0.100000000"	"0.2800000000"	"2"	"33"
n/a	"html-keyboard-response"	"250"	"453712"	"0.0-6.0-2.0-0.33"	"ufvy5m"	"600"	"1366"	"chrome"	"111.0.0"	"FALSE"	"Windows 10"	"60.3"	"058"	n/a	n/a	n/a	n/a	n/a	n/a	"fixation"	n/a	n/a	n/a	n/a	"NULL"	n/a	"NULL"	"NULL"	"NULL"	"<p style=\"color: black; font-size: 80px; padding-left: 24%; padding-right: 41%; padding-top: 42%; padding-bottom: 19%\">+</p>"	"1306"	n/a	n/a	n/a	n/a	n/a	n/a	n/a	n/a	n/a
n/a	"image-keyboard-response"	"251"	"454262"	"0.0-6.0-2.0-1.33"	"ufvy5m"	"600"	"1366"	"chrome"	"111.0.0"	"FALSE"	"Windows 10"	"60.3"	"058"	n/a	n/a	n/a	n/a	n/a	n/a	"Trial"	n/a	n/a	n/a	"550"	"arrowright"	n/a	"NULL"	"NULL"	"NULL"	"stimuli/Ebbinghaus_-0.35714_-0.2800.png"	n/a	"Ebbinghaus"	"arrowright"	"1313"	"TRUE"	"Ebbinghaus"	"-0.357140000"	"-0.280000000"	"2"	"34"
n/a	"html-keyboard-response"	"252"	"455688"	"0.0-6.0-2.0-0.34"	"ufvy5m"	"600"	"1366"	"chrome"	"111.0.0"	"FALSE"	"Windows 10"	"60.3"	"058"	n/a	n/a	n/a	n/a	n/a	n/a	"fixation"	n/a	n/a	n/a	n/a	"NULL"	n/a	"NULL"	"NULL"	"NULL"	"<p style=\"color: black; font-size: 80px; padding-left: 7%; padding-right: 17%; padding-top: 5%; padding-bottom: 13%\">+</p>"	"1411"	n/a	n/a	n/a	n/a	n/a	n/a	n/a	n/a	n/a
n/a	"image-keyboard-response"	"253"	"456260"	"0.0-6.0-2.0-1.34"	"ufvy5m"	"600"	"1366"	"chrome"	"111.0.0"	"FALSE"	"Windows 10"	"60.3"	"058"	n/a	n/a	n/a	n/a	n/a	n/a	"Trial"	n/a	n/a	n/a	"571"	"arrowleft"	n/a	"NULL"	"NULL"	"NULL"	"stimuli/Ebbinghaus_-0.35714_0.21500.png"	n/a	"Ebbinghaus"	"arrowleft"	"1426"	"TRUE"	"Ebbinghaus"	"-0.357140000"	"0.2150000000"	"2"	"35"
n/a	"html-keyboard-response"	"254"	"457702"	"0.0-6.0-2.0-0.35"	"ufvy5m"	"600"	"1366"	"chrome"	"111.0.0"	"FALSE"	"Windows 10"	"60.3"	"058"	n/a	n/a	n/a	n/a	n/a	n/a	"fixation"	n/a	n/a	n/a	n/a	"NULL"	n/a	"NULL"	"NULL"	"NULL"	"<p style=\"color: black; font-size: 80px; padding-left: 40%; padding-right: 16%; padding-top: 10%; padding-bottom: 3%\">+</p>"	"1427"	n/a	n/a	n/a	n/a	n/a	n/a	n/a	n/a	n/a
