"success"	"trial_type"	"trial_index"	"time_elapsed"	"internal_node_id"	"participant_id"	"screen_height"	"screen_width"	"browser"	"browser_version"	"mobile"	"os"	"vsync_rate"	"subject_id"	"width"	"height"	"webaudio"	"fullscreen"	"webcam"	"microphone"	"screen"	"version"	"date"	"time"	"rt"	"response"	"timeout"	"failed_images"	"failed_audio"	"failed_video"	"stimulus"	"trial_duration"	"block"	"correct_response"	"prestimulus_duration"	"correct"	"type"	"illusion_strength"	"illusion_difference"	"block_number"	"trial_number"
"TRUE"	"fullscreen"	"0"	"80392"	"0.0-0.0"	"6d077q"	"600"	"1366"	"chrome"	"109.0.0"	"FALSE"	"Windows 10"	"60.39"	"007"	n/a	n/a	n/a	n/a	n/a	n/a	n/a	n/a	n/a	n/a	n/a	"NULL"	n/a	"NULL"	"NULL"	"NULL"	n/a	n/a	n/a	n/a	n/a	n/a	n/a	n/a	n/a	n/a	n/a
n/a	"browser-check"	"1"	"81401"	"0.0-1.0"	"6d077q"	"600"	"1366"	"chrome"	"109.0.0"	"FALSE"	"Windows 10"	"60.39"	"007"	"1366"	"600"	"TRUE"	"TRUE"	"TRUE"	"TRUE"	"browser_info"	"1.0"	"27/01/2023"	"18:50:48"	n/a	"NULL"	n/a	"NULL"	"NULL"	"NULL"	n/a	n/a	n/a	n/a	n/a	n/a	n/a	n/a	n/a	n/a	n/a
n/a	"survey-text"	"2"	"89338"	"0.0-2.0"	"6d077q"	"600"	"1366"	"chrome"	"109.0.0"	"FALSE"	"Windows 10"	"60.39"	"007"	n/a	n/a	n/a	n/a	n/a	n/a	"subject_id"	n/a	n/a	n/a	"7933"	"list(subject_id = \"007\")"	n/a	"NULL"	"NULL"	"NULL"	n/a	n/a	n/a	n/a	n/a	n/a	n/a	n/a	n/a	n/a	n/a
"TRUE"	"preload"	"3"	"89358"	"0.0-3.0"	"6d077q"	"600"	"1366"	"chrome"	"109.0.0"	"FALSE"	"Windows 10"	"60.39"	"007"	n/a	n/a	n/a	n/a	n/a	n/a	n/a	n/a	n/a	n/a	n/a	"NULL"	"FALSE"	"list()"	"list()"	"list()"	n/a	n/a	n/a	n/a	n/a	n/a	n/a	n/a	n/a	n/a	n/a
n/a	"html-button-response"	"4"	"91128"	"0.0-4.0-0.0"	"6d077q"	"600"	"1366"	"chrome"	"109.0.0"	"FALSE"	"Windows 10"	"60.39"	"007"	n/a	n/a	n/a	n/a	n/a	n/a	"illusion_instructions"	n/a	n/a	n/a	"1770"	"0"	n/a	"NULL"	"NULL"	"NULL"	"<p><b>Illusion Game</b></p><p>In this game of speed and reflex, you will need to make <b>visual judgments</b> (for instance, which circle is the biggest, or which line is the longest), as fast and as correctly as possible, while <b>resisting different visual illusions</b>.</p><p>We are going to start with some examples of all the illusions you will encounter in the game.</p>"	n/a	n/a	n/a	n/a	n/a	n/a	n/a	n/a	n/a	n/a
"TRUE"	"preload"	"5"	"91143"	"0.0-4.0-1.0-0.0"	"6d077q"	"600"	"1366"	"chrome"	"109.0.0"	"FALSE"	"Windows 10"	"60.39"	"007"	n/a	n/a	n/a	n/a	n/a	n/a	n/a	n/a	n/a	n/a	n/a	"NULL"	"FALSE"	"list()"	"list()"	"list()"	n/a	n/a	n/a	n/a	n/a	n/a	n/a	n/a	n/a	n/a	n/a
n/a	"html-keyboard-response"	"6"	"92201"	"0.0-4.0-1.0-1.0"	"6d077q"	"600"	"1366"	"chrome"	"109.0.0"	"FALSE"	"Windows 10"	"60.39"	"007"	n/a	n/a	n/a	n/a	n/a	n/a	n/a	n/a	n/a	n/a	"1057"	"enter"	n/a	"NULL"	"NULL"	"NULL"	"<p><b>Practice</b></p><p>In this part, two red circles will appear side by side on the screen.</p><p>Your task is to select which <b>red circle is bigger</b> in size as fast as you can, without making errors.</p><p>Don't get distracted by the surrounding black circles around the red circles!</p><p>Press <b>the LEFT or the RIGHT arrow</b> to indicate which is the bigger <b>red circle.</b></p><div style='float: center'><img src='materials/instructions/Ebbinghaus_Demo.png' height='300'></img><p><img src='utils/answer/answer_leftright_keyboard.PNG' height='150'></img></p><p class='small'>In this example, the correct answer is the <b>LEFT arrow</b>.</p></div><p>Are you ready? <b>Press ENTER to start</b></p>"	n/a	n/a	n/a	n/a	n/a	n/a	n/a	n/a	n/a	n/a
n/a	"html-keyboard-response"	"7"	"93791"	"0.0-4.0-1.0-2.0-0.0"	"6d077q"	"600"	"1366"	"chrome"	"109.0.0"	"FALSE"	"Windows 10"	"60.39"	"007"	n/a	n/a	n/a	n/a	n/a	n/a	"fixation"	n/a	n/a	n/a	n/a	"NULL"	n/a	"NULL"	"NULL"	"NULL"	"<p style=\"color: black; font-size: 80px; padding-left: 20%; padding-right: 32%; padding-top: 23%; padding-bottom: 9%\">+</p>"	"1072"	n/a	n/a	n/a	n/a	n/a	n/a	n/a	n/a	n/a
n/a	"image-keyboard-response"	"8"	"94223"	"0.0-4.0-1.0-2.0-1.0"	"6d077q"	"600"	"1366"	"chrome"	"109.0.0"	"FALSE"	"Windows 10"	"60.39"	"007"	n/a	n/a	n/a	n/a	n/a	n/a	"Trial"	n/a	n/a	n/a	"430"	"arrowright"	n/a	"NULL"	"NULL"	"NULL"	"stimuli/Ebbinghaus_0000000_-1.4000.png"	n/a	"Ebbinghaus"	"arrowright"	"1590"	"TRUE"	"Ebbinghaus"	"000000000000"	"-1.400000000"	"1"	"1"
n/a	"html-keyboard-response"	"9"	"95452"	"0.0-4.0-1.0-2.0-0.1"	"6d077q"	"600"	"1366"	"chrome"	"109.0.0"	"FALSE"	"Windows 10"	"60.39"	"007"	n/a	n/a	n/a	n/a	n/a	n/a	"fixation"	n/a	n/a	n/a	n/a	"NULL"	n/a	"NULL"	"NULL"	"NULL"	"<p style=\"color: black; font-size: 80px; padding-left: 22%; padding-right: 46%; padding-top: 47%; padding-bottom: 36%\">+</p>"	"1217"	n/a	n/a	n/a	n/a	n/a	n/a	n/a	n/a	n/a
n/a	"image-keyboard-response"	"10"	"95462"	"0.0-4.0-1.0-2.0-1.1"	"6d077q"	"600"	"1366"	"chrome"	"109.0.0"	"FALSE"	"Windows 10"	"60.39"	"007"	n/a	n/a	n/a	n/a	n/a	n/a	"Trial"	n/a	n/a	n/a	"8"	"arrowright"	n/a	"NULL"	"NULL"	"NULL"	"stimuli/Ebbinghaus_-100000_-1.4000.png"	n/a	"Ebbinghaus"	"arrowright"	"1229"	"TRUE"	"Ebbinghaus"	"-10000000000"	"-1.400000000"	"1"	"2"
n/a	"html-keyboard-response"	"11"	"96544"	"0.0-4.0-1.0-2.0-0.2"	"6d077q"	"600"	"1366"	"chrome"	"109.0.0"	"FALSE"	"Windows 10"	"60.39"	"007"	n/a	n/a	n/a	n/a	n/a	n/a	"fixation"	n/a	n/a	n/a	n/a	"NULL"	n/a	"NULL"	"NULL"	"NULL"	"<p style=\"color: black; font-size: 80px; padding-left: 19%; padding-right: 2%; padding-top: 46%; padding-bottom: 47%\">+</p>"	"1070"	n/a	n/a	n/a	n/a	n/a	n/a	n/a	n/a	n/a
n/a	"image-keyboard-response"	"12"	"96624"	"0.0-4.0-1.0-2.0-1.2"	"6d077q"	"600"	"1366"	"chrome"	"109.0.0"	"FALSE"	"Windows 10"	"60.39"	"007"	n/a	n/a	n/a	n/a	n/a	n/a	"Trial"	n/a	n/a	n/a	"78"	"arrowright"	n/a	"NULL"	"NULL"	"NULL"	"stimuli/Ebbinghaus_-100000_1.40000.png"	n/a	"Ebbinghaus"	"arrowleft"	"1082"	"FALSE"	"Ebbinghaus"	"-10000000000"	"1.4000000000"	"1"	"3"
n/a	"html-keyboard-response"	"13"	"97904"	"0.0-4.0-1.0-2.0-0.3"	"6d077q"	"600"	"1366"	"chrome"	"109.0.0"	"FALSE"	"Windows 10"	"60.39"	"007"	n/a	n/a	n/a	n/a	n/a	n/a	"fixation"	n/a	n/a	n/a	n/a	"NULL"	n/a	"NULL"	"NULL"	"NULL"	"<p style=\"color: black; font-size: 80px; padding-left: 37%; padding-right: 18%; padding-top: 44%; padding-bottom: 36%\">+</p>"	"1265"	n/a	n/a	n/a	n/a	n/a	n/a	n/a	n/a	n/a
n/a	"image-keyboard-response"	"14"	"98005"	"0.0-4.0-1.0-2.0-1.3"	"6d077q"	"600"	"1366"	"chrome"	"109.0.0"	"FALSE"	"Windows 10"	"60.39"	"007"	n/a	n/a	n/a	n/a	n/a	n/a	"Trial"	n/a	n/a	n/a	"100"	"arrowright"	n/a	"NULL"	"NULL"	"NULL"	"stimuli/Ebbinghaus_0000000_1.40000.png"	n/a	"Ebbinghaus"	"arrowleft"	"1280"	"FALSE"	"Ebbinghaus"	"000000000000"	"1.4000000000"	"1"	"4"
n/a	"html-keyboard-response"	"15"	"99100"	"0.0-4.0-1.0-2.0-0.4"	"6d077q"	"600"	"1366"	"chrome"	"109.0.0"	"FALSE"	"Windows 10"	"60.39"	"007"	n/a	n/a	n/a	n/a	n/a	n/a	"fixation"	n/a	n/a	n/a	n/a	"NULL"	n/a	"NULL"	"NULL"	"NULL"	"<p style=\"color: black; font-size: 80px; padding-left: 5%; padding-right: 33%; padding-top: 22%; padding-bottom: 49%\">+</p>"	"1080"	n/a	n/a	n/a	n/a	n/a	n/a	n/a	n/a	n/a
n/a	"image-keyboard-response"	"16"	"99239"	"0.0-4.0-1.0-2.0-1.4"	"6d077q"	"600"	"1366"	"chrome"	"109.0.0"	"FALSE"	"Windows 10"	"60.39"	"007"	n/a	n/a	n/a	n/a	n/a	n/a	"Trial"	n/a	n/a	n/a	"138"	"arrowright"	n/a	"NULL"	"NULL"	"NULL"	"stimuli/Ebbinghaus_1000000_1.40000.png"	n/a	"Ebbinghaus"	"arrowleft"	"1095"	"FALSE"	"Ebbinghaus"	"100000000000"	"1.4000000000"	"1"	"5"
n/a	"html-keyboard-response"	"17"	"100388"	"0.0-4.0-1.0-2.0-0.5"	"6d077q"	"600"	"1366"	"chrome"	"109.0.0"	"FALSE"	"Windows 10"	"60.39"	"007"	n/a	n/a	n/a	n/a	n/a	n/a	"fixation"	n/a	n/a	n/a	n/a	"NULL"	n/a	"NULL"	"NULL"	"NULL"	"<p style=\"color: black; font-size: 80px; padding-left: 13%; padding-right: 35%; padding-top: 36%; padding-bottom: 11%\">+</p>"	"1127"	n/a	n/a	n/a	n/a	n/a	n/a	n/a	n/a	n/a
n/a	"image-keyboard-response"	"18"	"100436"	"0.0-4.0-1.0-2.0-1.5"	"6d077q"	"600"	"1366"	"chrome"	"109.0.0"	"FALSE"	"Windows 10"	"60.39"	"007"	n/a	n/a	n/a	n/a	n/a	n/a	"Trial"	n/a	n/a	n/a	"46"	"arrowright"	n/a	"NULL"	"NULL"	"NULL"	"stimuli/Ebbinghaus_1000000_-1.4000.png"	n/a	"Ebbinghaus"	"arrowright"	"1149"	"TRUE"	"Ebbinghaus"	"100000000000"	"-1.400000000"	"1"	"6"
n/a	"html-button-response"	"19"	"102976"	"0.0-4.0-1.0-3.0"	"6d077q"	"600"	"1366"	"chrome"	"109.0.0"	"FALSE"	"Windows 10"	"60.39"	"007"	n/a	n/a	n/a	n/a	n/a	n/a	"practice_block_results"	n/a	n/a	n/a	"2539"	"0"	n/a	"NULL"	"NULL"	"NULL"	"<p style='color:rgb(76,175,80);'> Correct Responses: <b>50.00%</b></p><hr><p style='color:rgb(233,30,99);'> Average Response Time: <b>133.33</b> ms.</p>"	n/a	n/a	n/a	n/a	n/a	n/a	n/a	n/a	n/a	n/a
"TRUE"	"preload"	"20"	"103499"	"0.0-4.0-2.0-0.0"	"6d077q"	"600"	"1366"	"chrome"	"109.0.0"	"FALSE"	"Windows 10"	"60.39"	"007"	n/a	n/a	n/a	n/a	n/a	n/a	n/a	n/a	n/a	n/a	n/a	"NULL"	"FALSE"	"list()"	"list()"	"list()"	n/a	n/a	n/a	n/a	n/a	n/a	n/a	n/a	n/a	n/a	n/a
n/a	"html-keyboard-response"	"21"	"104602"	"0.0-4.0-2.0-1.0"	"6d077q"	"600"	"1366"	"chrome"	"109.0.0"	"FALSE"	"Windows 10"	"60.39"	"007"	n/a	n/a	n/a	n/a	n/a	n/a	n/a	n/a	n/a	n/a	"1103"	"enter"	n/a	"NULL"	"NULL"	"NULL"	"<p><b>Practice</b></p><p>In this part, two horizontal red lines will appear one above the other.</p><p>Your task is to select which <b>line is longer</b> in length as fast as you can, without making errors.</p><p>Don't get distracted by the surrounding black arrows at the end of the red lines!</p><p>Press <b>the UP or the DOWN arrow</b> to indicate where is the longer <b>red line.</b></p><div style='float: center'><img src='materials/instructions/MullerLyer_Demo.png' height='300'></img><p><img src='utils/answer/answer_updown_keyboard.PNG' height='150'></img></p><p class='small'>In this example, the correct answer is the <b>UP arrow</b>.</p></div><p>Are you ready? <b>Press ENTER to start</b></p>"	n/a	n/a	n/a	n/a	n/a	n/a	n/a	n/a	n/a	n/a
n/a	"html-keyboard-response"	"22"	"106477"	"0.0-4.0-2.0-2.0-0.0"	"6d077q"	"600"	"1366"	"chrome"	"109.0.0"	"FALSE"	"Windows 10"	"60.39"	"007"	n/a	n/a	n/a	n/a	n/a	n/a	"fixation"	n/a	n/a	n/a	n/a	"NULL"	n/a	"NULL"	"NULL"	"NULL"	"<p style=\"color: black; font-size: 80px; padding-left: 23%; padding-right: 33%; padding-top: 12%; padding-bottom: 35%\">+</p>"	"1359"	n/a	n/a	n/a	n/a	n/a	n/a	n/a	n/a	n/a
n/a	"image-keyboard-response"	"23"	"106508"	"0.0-4.0-2.0-2.0-1.0"	"6d077q"	"600"	"1366"	"chrome"	"109.0.0"	"FALSE"	"Windows 10"	"60.39"	"007"	n/a	n/a	n/a	n/a	n/a	n/a	"Trial"	n/a	n/a	n/a	"29"	"arrowdown"	n/a	"NULL"	"NULL"	"NULL"	"stimuli/MullerLyer_0000000_0.70000.png"	n/a	"MullerLyer"	"arrowup"	"1875"	"FALSE"	"MullerLyer"	"000000000000"	"0.7000000000"	"1"	"7"
n/a	"html-keyboard-response"	"24"	"107642"	"0.0-4.0-2.0-2.0-0.1"	"6d077q"	"600"	"1366"	"chrome"	"109.0.0"	"FALSE"	"Windows 10"	"60.39"	"007"	n/a	n/a	n/a	n/a	n/a	n/a	"fixation"	n/a	n/a	n/a	n/a	"NULL"	n/a	"NULL"	"NULL"	"NULL"	"<p style=\"color: black; font-size: 80px; padding-left: 39%; padding-right: 19%; padding-top: 32%; padding-bottom: 29%\">+</p>"	"1116"	n/a	n/a	n/a	n/a	n/a	n/a	n/a	n/a	n/a
n/a	"image-keyboard-response"	"25"	"107698"	"0.0-4.0-2.0-2.0-1.1"	"6d077q"	"600"	"1366"	"chrome"	"109.0.0"	"FALSE"	"Windows 10"	"60.39"	"007"	n/a	n/a	n/a	n/a	n/a	n/a	"Trial"	n/a	n/a	n/a	"55"	"arrowdown"	n/a	"NULL"	"NULL"	"NULL"	"stimuli/MullerLyer_2300000_-0.7000.png"	n/a	"MullerLyer"	"arrowdown"	"1134"	"TRUE"	"MullerLyer"	"230000000000"	"-0.700000000"	"1"	"8"
n/a	"html-keyboard-response"	"26"	"108774"	"0.0-4.0-2.0-2.0-0.2"	"6d077q"	"600"	"1366"	"chrome"	"109.0.0"	"FALSE"	"Windows 10"	"60.39"	"007"	n/a	n/a	n/a	n/a	n/a	n/a	"fixation"	n/a	n/a	n/a	n/a	"NULL"	n/a	"NULL"	"NULL"	"NULL"	"<p style=\"color: black; font-size: 80px; padding-left: 24%; padding-right: 44%; padding-top: 17%; padding-bottom: 48%\">+</p>"	"1065"	n/a	n/a	n/a	n/a	n/a	n/a	n/a	n/a	n/a
n/a	"image-keyboard-response"	"27"	"108865"	"0.0-4.0-2.0-2.0-1.2"	"6d077q"	"600"	"1366"	"chrome"	"109.0.0"	"FALSE"	"Windows 10"	"60.39"	"007"	n/a	n/a	n/a	n/a	n/a	n/a	"Trial"	n/a	n/a	n/a	"89"	"arrowdown"	n/a	"NULL"	"NULL"	"NULL"	"stimuli/MullerLyer_0000000_-0.7000.png"	n/a	"MullerLyer"	"arrowdown"	"1076"	"TRUE"	"MullerLyer"	"000000000000"	"-0.700000000"	"1"	"9"
n/a	"html-keyboard-response"	"28"	"110072"	"0.0-4.0-2.0-2.0-0.3"	"6d077q"	"600"	"1366"	"chrome"	"109.0.0"	"FALSE"	"Windows 10"	"60.39"	"007"	n/a	n/a	n/a	n/a	n/a	n/a	"fixation"	n/a	n/a	n/a	n/a	"NULL"	n/a	"NULL"	"NULL"	"NULL"	"<p style=\"color: black; font-size: 80px; padding-left: 6%; padding-right: 46%; padding-top: 21%; padding-bottom: 33%\">+</p>"	"1196"	n/a	n/a	n/a	n/a	n/a	n/a	n/a	n/a	n/a
n/a	"image-keyboard-response"	"29"	"110137"	"0.0-4.0-2.0-2.0-1.3"	"6d077q"	"600"	"1366"	"chrome"	"109.0.0"	"FALSE"	"Windows 10"	"60.39"	"007"	n/a	n/a	n/a	n/a	n/a	n/a	"Trial"	n/a	n/a	n/a	"63"	"arrowdown"	n/a	"NULL"	"NULL"	"NULL"	"stimuli/MullerLyer_2300000_0.70000.png"	n/a	"MullerLyer"	"arrowup"	"1207"	"FALSE"	"MullerLyer"	"230000000000"	"0.7000000000"	"1"	"10"
n/a	"html-keyboard-response"	"30"	"111603"	"0.0-4.0-2.0-2.0-0.4"	"6d077q"	"600"	"1366"	"chrome"	"109.0.0"	"FALSE"	"Windows 10"	"60.39"	"007"	n/a	n/a	n/a	n/a	n/a	n/a	"fixation"	n/a	n/a	n/a	n/a	"NULL"	n/a	"NULL"	"NULL"	"NULL"	"<p style=\"color: black; font-size: 80px; padding-left: 23%; padding-right: 44%; padding-top: 24%; padding-bottom: 32%\">+</p>"	"1457"	n/a	n/a	n/a	n/a	n/a	n/a	n/a	n/a	n/a
n/a	"image-keyboard-response"	"31"	"111723"	"0.0-4.0-2.0-2.0-1.4"	"6d077q"	"600"	"1366"	"chrome"	"109.0.0"	"FALSE"	"Windows 10"	"60.39"	"007"	n/a	n/a	n/a	n/a	n/a	n/a	"Trial"	n/a	n/a	n/a	"118"	"arrowdown"	n/a	"NULL"	"NULL"	"NULL"	"stimuli/MullerLyer_-230000_-0.7000.png"	n/a	"MullerLyer"	"arrowdown"	"1466"	"TRUE"	"MullerLyer"	"-23000000000"	"-0.700000000"	"1"	"11"
n/a	"html-keyboard-response"	"32"	"113220"	"0.0-4.0-2.0-2.0-0.5"	"6d077q"	"600"	"1366"	"chrome"	"109.0.0"	"FALSE"	"Windows 10"	"60.39"	"007"	n/a	n/a	n/a	n/a	n/a	n/a	"fixation"	n/a	n/a	n/a	n/a	"NULL"	n/a	"NULL"	"NULL"	"NULL"	"<p style=\"color: black; font-size: 80px; padding-left: 0%; padding-right: 4%; padding-top: 47%; padding-bottom: 45%\">+</p>"	"1486"	n/a	n/a	n/a	n/a	n/a	n/a	n/a	n/a	n/a
n/a	"image-keyboard-response"	"33"	"113404"	"0.0-4.0-2.0-2.0-1.5"	"6d077q"	"600"	"1366"	"chrome"	"109.0.0"	"FALSE"	"Windows 10"	"60.39"	"007"	n/a	n/a	n/a	n/a	n/a	n/a	"Trial"	n/a	n/a	n/a	"183"	"arrowdown"	n/a	"NULL"	"NULL"	"NULL"	"stimuli/MullerLyer_-230000_0.70000.png"	n/a	"MullerLyer"	"arrowup"	"1497"	"FALSE"	"MullerLyer"	"-23000000000"	"0.7000000000"	"1"	"12"
n/a	"html-button-response"	"34"	"114950"	"0.0-4.0-2.0-3.0"	"6d077q"	"600"	"1366"	"chrome"	"109.0.0"	"FALSE"	"Windows 10"	"60.39"	"007"	n/a	n/a	n/a	n/a	n/a	n/a	"practice_block_results"	n/a	n/a	n/a	"1543"	"0"	n/a	"NULL"	"NULL"	"NULL"	"<p style='color:rgb(76,175,80);'> Correct Responses: <b>50.00%</b></p><hr><p style='color:rgb(233,30,99);'> Average Response Time: <b>89.50</b> ms.</p>"	n/a	n/a	n/a	n/a	n/a	n/a	n/a	n/a	n/a	n/a
"TRUE"	"preload"	"35"	"115481"	"0.0-4.0-3.0-0.0"	"6d077q"	"600"	"1366"	"chrome"	"109.0.0"	"FALSE"	"Windows 10"	"60.39"	"007"	n/a	n/a	n/a	n/a	n/a	n/a	n/a	n/a	n/a	n/a	n/a	"NULL"	"FALSE"	"list()"	"list()"	"list()"	n/a	n/a	n/a	n/a	n/a	n/a	n/a	n/a	n/a	n/a	n/a
n/a	"html-keyboard-response"	"36"	"116198"	"0.0-4.0-3.0-1.0"	"6d077q"	"600"	"1366"	"chrome"	"109.0.0"	"FALSE"	"Windows 10"	"60.39"	"007"	n/a	n/a	n/a	n/a	n/a	n/a	n/a	n/a	n/a	n/a	"716"	"enter"	n/a	"NULL"	"NULL"	"NULL"	"<p><b>Practice</b></p><p>In this part, two red lines will appear side by side.</p><p>Your task is to tell <b>which line is longer</b> in length, regardless of their orientation, as fast as you can, and without making errors.</p><p>Don't get distracted by the orientation of the lines!</p><p>Press <b>the LEFT or the RIGHT arrow</b> to indicate which <b>line is the longer one.</b></p><div style='float: center'><img src='materials/instructions/VerticalHorizontal_Demo.png' height='300'></img><p><img src='utils/answer/answer_leftright_keyboard.PNG' height='150'></img></p><p class='small'>In this example, the correct answer is the <b>LEFT arrow</b>.</p></div><p>Are you ready? <b>Press ENTER to start</b></p>"	n/a	n/a	n/a	n/a	n/a	n/a	n/a	n/a	n/a	n/a
n/a	"html-keyboard-response"	"37"	"118194"	"0.0-4.0-3.0-2.0-0.0"	"6d077q"	"600"	"1366"	"chrome"	"109.0.0"	"FALSE"	"Windows 10"	"60.39"	"007"	n/a	n/a	n/a	n/a	n/a	n/a	"fixation"	n/a	n/a	n/a	n/a	"NULL"	n/a	"NULL"	"NULL"	"NULL"	"<p style=\"color: black; font-size: 80px; padding-left: 2%; padding-right: 25%; padding-top: 0%; padding-bottom: 37%\">+</p>"	"1468"	n/a	n/a	n/a	n/a	n/a	n/a	n/a	n/a	n/a
n/a	"image-keyboard-response"	"38"	"118341"	"0.0-4.0-3.0-2.0-1.0"	"6d077q"	"600"	"1366"	"chrome"	"109.0.0"	"FALSE"	"Windows 10"	"60.39"	"007"	n/a	n/a	n/a	n/a	n/a	n/a	"Trial"	n/a	n/a	n/a	"146"	"arrowright"	n/a	"NULL"	"NULL"	"NULL"	"stimuli/VerticalHorizontal_-330000_0.90000.png"	n/a	"VerticalHorizontal"	"arrowleft"	"1996"	"FALSE"	"VerticalHorizontal"	"-33000000000"	"0.9000000000"	"1"	"13"
n/a	"html-keyboard-response"	"39"	"119793"	"0.0-4.0-3.0-2.0-0.1"	"6d077q"	"600"	"1366"	"chrome"	"109.0.0"	"FALSE"	"Windows 10"	"60.39"	"007"	n/a	n/a	n/a	n/a	n/a	n/a	"fixation"	n/a	n/a	n/a	n/a	"NULL"	n/a	"NULL"	"NULL"	"NULL"	"<p style=\"color: black; font-size: 80px; padding-left: 12%; padding-right: 23%; padding-top: 7%; padding-bottom: 10%\">+</p>"	"1440"	n/a	n/a	n/a	n/a	n/a	n/a	n/a	n/a	n/a
n/a	"image-keyboard-response"	"40"	"119888"	"0.0-4.0-3.0-2.0-1.1"	"6d077q"	"600"	"1366"	"chrome"	"109.0.0"	"FALSE"	"Windows 10"	"60.39"	"007"	n/a	n/a	n/a	n/a	n/a	n/a	"Trial"	n/a	n/a	n/a	"93"	"arrowright"	n/a	"NULL"	"NULL"	"NULL"	"stimuli/VerticalHorizontal_3300000_-0.9000.png"	n/a	"VerticalHorizontal"	"arrowright"	"1452"	"TRUE"	"VerticalHorizontal"	"330000000000"	"-0.900000000"	"1"	"14"
n/a	"html-keyboard-response"	"41"	"121367"	"0.0-4.0-3.0-2.0-0.2"	"6d077q"	"600"	"1366"	"chrome"	"109.0.0"	"FALSE"	"Windows 10"	"60.39"	"007"	n/a	n/a	n/a	n/a	n/a	n/a	"fixation"	n/a	n/a	n/a	n/a	"NULL"	n/a	"NULL"	"NULL"	"NULL"	"<p style=\"color: black; font-size: 80px; padding-left: 29%; padding-right: 20%; padding-top: 21%; padding-bottom: 37%\">+</p>"	"1468"	n/a	n/a	n/a	n/a	n/a	n/a	n/a	n/a	n/a
n/a	"image-keyboard-response"	"42"	"121497"	"0.0-4.0-3.0-2.0-1.2"	"6d077q"	"600"	"1366"	"chrome"	"109.0.0"	"FALSE"	"Windows 10"	"60.39"	"007"	n/a	n/a	n/a	n/a	n/a	n/a	"Trial"	n/a	n/a	n/a	"128"	"arrowright"	n/a	"NULL"	"NULL"	"NULL"	"stimuli/VerticalHorizontal_0000000_0.90000.png"	n/a	"VerticalHorizontal"	"arrowleft"	"1479"	"FALSE"	"VerticalHorizontal"	"000000000000"	"0.9000000000"	"1"	"15"
n/a	"html-keyboard-response"	"43"	"122575"	"0.0-4.0-3.0-2.0-0.3"	"6d077q"	"600"	"1366"	"chrome"	"109.0.0"	"FALSE"	"Windows 10"	"60.39"	"007"	n/a	n/a	n/a	n/a	n/a	n/a	"fixation"	n/a	n/a	n/a	n/a	"NULL"	n/a	"NULL"	"NULL"	"NULL"	"<p style=\"color: black; font-size: 80px; padding-left: 18%; padding-right: 41%; padding-top: 38%; padding-bottom: 23%\">+</p>"	"1060"	n/a	n/a	n/a	n/a	n/a	n/a	n/a	n/a	n/a
n/a	"image-keyboard-response"	"44"	"122659"	"0.0-4.0-3.0-2.0-1.3"	"6d077q"	"600"	"1366"	"chrome"	"109.0.0"	"FALSE"	"Windows 10"	"60.39"	"007"	n/a	n/a	n/a	n/a	n/a	n/a	"Trial"	n/a	n/a	n/a	"83"	"arrowright"	n/a	"NULL"	"NULL"	"NULL"	"stimuli/VerticalHorizontal_-330000_-0.9000.png"	n/a	"VerticalHorizontal"	"arrowright"	"1078"	"TRUE"	"VerticalHorizontal"	"-33000000000"	"-0.900000000"	"1"	"16"
n/a	"html-keyboard-response"	"45"	"123855"	"0.0-4.0-3.0-2.0-0.4"	"6d077q"	"600"	"1366"	"chrome"	"109.0.0"	"FALSE"	"Windows 10"	"60.39"	"007"	n/a	n/a	n/a	n/a	n/a	n/a	"fixation"	n/a	n/a	n/a	n/a	"NULL"	n/a	"NULL"	"NULL"	"NULL"	"<p style=\"color: black; font-size: 80px; padding-left: 11%; padding-right: 16%; padding-top: 0%; padding-bottom: 37%\">+</p>"	"1181"	n/a	n/a	n/a	n/a	n/a	n/a	n/a	n/a	n/a
n/a	"image-keyboard-response"	"46"	"123983"	"0.0-4.0-3.0-2.0-1.4"	"6d077q"	"600"	"1366"	"chrome"	"109.0.0"	"FALSE"	"Windows 10"	"60.39"	"007"	n/a	n/a	n/a	n/a	n/a	n/a	"Trial"	n/a	n/a	n/a	"127"	"arrowright"	n/a	"NULL"	"NULL"	"NULL"	"stimuli/VerticalHorizontal_0000000_-0.9000.png"	n/a	"VerticalHorizontal"	"arrowright"	"1196"	"TRUE"	"VerticalHorizontal"	"000000000000"	"-0.900000000"	"1"	"17"
n/a	"html-keyboard-response"	"47"	"125428"	"0.0-4.0-3.0-2.0-0.5"	"6d077q"	"600"	"1366"	"chrome"	"109.0.0"	"FALSE"	"Windows 10"	"60.39"	"007"	n/a	n/a	n/a	n/a	n/a	n/a	"fixation"	n/a	n/a	n/a	n/a	"NULL"	n/a	"NULL"	"NULL"	"NULL"	"<p style=\"color: black; font-size: 80px; padding-left: 13%; padding-right: 20%; padding-top: 5%; padding-bottom: 44%\">+</p>"	"1440"	n/a	n/a	n/a	n/a	n/a	n/a	n/a	n/a	n/a
n/a	"image-keyboard-response"	"48"	"125437"	"0.0-4.0-3.0-2.0-1.5"	"6d077q"	"600"	"1366"	"chrome"	"109.0.0"	"FALSE"	"Windows 10"	"60.39"	"007"	n/a	n/a	n/a	n/a	n/a	n/a	"Trial"	n/a	n/a	n/a	"8"	"arrowright"	n/a	"NULL"	"NULL"	"NULL"	"stimuli/VerticalHorizontal_3300000_0.90000.png"	n/a	"VerticalHorizontal"	"arrowleft"	"1445"	"FALSE"	"VerticalHorizontal"	"330000000000"	"0.9000000000"	"1"	"18"
n/a	"html-button-response"	"49"	"127581"	"0.0-4.0-3.0-3.0"	"6d077q"	"600"	"1366"	"chrome"	"109.0.0"	"FALSE"	"Windows 10"	"60.39"	"007"	n/a	n/a	n/a	n/a	n/a	n/a	"practice_block_results"	n/a	n/a	n/a	"2142"	"0"	n/a	"NULL"	"NULL"	"NULL"	"<p style='color:rgb(76,175,80);'> Correct Responses: <b>50.00%</b></p><hr><p style='color:rgb(233,30,99);'> Average Response Time: <b>97.50</b> ms.</p>"	n/a	n/a	n/a	n/a	n/a	n/a	n/a	n/a	n/a	n/a
n/a	"html-button-response"	"50"	"212984"	"0.0-4.0-4.0"	"6d077q"	"600"	"1366"	"chrome"	"109.0.0"	"FALSE"	"Windows 10"	"60.39"	"007"	n/a	n/a	n/a	n/a	n/a	n/a	"practice_debrief"	n/a	n/a	n/a	"84891"	"0"	n/a	"NULL"	"NULL"	"NULL"	"<p><b>TRAINING COMPLETED</b></p><p>In the next phase, there will be more trials, and some might be harder too.<br> Moreover, after each illusion block, a <b>score</b> will be calculated based on speed (time you took to answer) and accuracy (number of errors).</p><p>Try to keep up a high score!</p><br><p>Note that it can be <i>really</i> challenging at times, so you will need to rely on your <b>intuition</b> and gut feeling to answer as fast as you can without making errors.</p><p>Each illusion block will be repeated two times (so that you have the opportunity to improve your score), but the order of the blocks is random.</p><p>Remember, your goal is to be as <b>fast</b> and <b>accurate</b> as possible. Good luck!</p><br>"	n/a	n/a	n/a	n/a	n/a	n/a	n/a	n/a	n/a	n/a
"TRUE"	"preload"	"51"	"213118"	"0.0-5.0-0.0"	"6d077q"	"600"	"1366"	"chrome"	"109.0.0"	"FALSE"	"Windows 10"	"60.39"	"007"	n/a	n/a	n/a	n/a	n/a	n/a	n/a	n/a	n/a	n/a	n/a	"NULL"	"FALSE"	"list()"	"list()"	"list()"	n/a	n/a	n/a	n/a	n/a	n/a	n/a	n/a	n/a	n/a	n/a
n/a	"html-keyboard-response"	"52"	"214608"	"0.0-5.0-1.0"	"6d077q"	"600"	"1366"	"chrome"	"109.0.0"	"FALSE"	"Windows 10"	"60.39"	"007"	n/a	n/a	n/a	n/a	n/a	n/a	n/a	n/a	n/a	n/a	"1489"	"enter"	n/a	"NULL"	"NULL"	"NULL"	"<p><b>Part 1/6</b></p><p>In this part, two red lines will appear side by side.</p><p>Your task is to tell <b>which line is longer</b> in length, regardless of their orientation, as fast as you can, and without making errors.</p><p>Don't get distracted by the orientation of the lines!</p><p>Press <b>the LEFT or the RIGHT arrow</b> to indicate which <b>line is the longer one.</b></p><div style='float: center'><img src='materials/instructions/VerticalHorizontal_Demo.png' height='300'></img><p><img src='utils/answer/answer_leftright_keyboard.PNG' height='150'></img></p><p class='small'>In this example, the correct answer is the <b>LEFT arrow</b>.</p></div><p>Are you ready? <b>Press ENTER to start</b></p>"	n/a	n/a	n/a	n/a	n/a	n/a	n/a	n/a	n/a	n/a
n/a	"html-keyboard-response"	"53"	"216629"	"0.0-5.0-2.0-0.0"	"6d077q"	"600"	"1366"	"chrome"	"109.0.0"	"FALSE"	"Windows 10"	"60.39"	"007"	n/a	n/a	n/a	n/a	n/a	n/a	"fixation"	n/a	n/a	n/a	n/a	"NULL"	n/a	"NULL"	"NULL"	"NULL"	"<p style=\"color: black; font-size: 80px; padding-left: 16%; padding-right: 10%; padding-top: 29%; padding-bottom: 11%\">+</p>"	"1500"	n/a	n/a	n/a	n/a	n/a	n/a	n/a	n/a	n/a
n/a	"image-keyboard-response"	"54"	"217037"	"0.0-5.0-2.0-1.0"	"6d077q"	"600"	"1366"	"chrome"	"109.0.0"	"FALSE"	"Windows 10"	"60.39"	"007"	n/a	n/a	n/a	n/a	n/a	n/a	"Trial"	n/a	n/a	n/a	"407"	"arrowright"	n/a	"NULL"	"NULL"	"NULL"	"stimuli/VerticalHorizontal_-11.78571_-0.2250.png"	n/a	"VerticalHorizontal"	"arrowright"	"2021"	"TRUE"	"VerticalHorizontal"	"-11.78571000"	"-0.225000000"	"1"	"19"
n/a	"html-keyboard-response"	"55"	"218185"	"0.0-5.0-2.0-0.1"	"6d077q"	"600"	"1366"	"chrome"	"109.0.0"	"FALSE"	"Windows 10"	"60.39"	"007"	n/a	n/a	n/a	n/a	n/a	n/a	"fixation"	n/a	n/a	n/a	n/a	"NULL"	n/a	"NULL"	"NULL"	"NULL"	"<p style=\"color: black; font-size: 80px; padding-left: 42%; padding-right: 15%; padding-top: 15%; padding-bottom: 15%\">+</p>"	"1140"	n/a	n/a	n/a	n/a	n/a	n/a	n/a	n/a	n/a
n/a	"image-keyboard-response"	"56"	"218500"	"0.0-5.0-2.0-1.1"	"6d077q"	"600"	"1366"	"chrome"	"109.0.0"	"FALSE"	"Windows 10"	"60.39"	"007"	n/a	n/a	n/a	n/a	n/a	n/a	"Trial"	n/a	n/a	n/a	"313"	"arrowright"	n/a	"NULL"	"NULL"	"NULL"	"stimuli/VerticalHorizontal_28.75714_0.10960.png"	n/a	"VerticalHorizontal"	"arrowleft"	"1148"	"FALSE"	"VerticalHorizontal"	"28.757140000"	"0.1096000000"	"1"	"20"
n/a	"html-keyboard-response"	"57"	"219795"	"0.0-5.0-2.0-0.2"	"6d077q"	"600"	"1366"	"chrome"	"109.0.0"	"FALSE"	"Windows 10"	"60.39"	"007"	n/a	n/a	n/a	n/a	n/a	n/a	"fixation"	n/a	n/a	n/a	n/a	"NULL"	n/a	"NULL"	"NULL"	"NULL"	"<p style=\"color: black; font-size: 80px; padding-left: 7%; padding-right: 22%; padding-top: 45%; padding-bottom: 44%\">+</p>"	"1282"	n/a	n/a	n/a	n/a	n/a	n/a	n/a	n/a	n/a
n/a	"image-keyboard-response"	"58"	"220083"	"0.0-5.0-2.0-1.2"	"6d077q"	"600"	"1366"	"chrome"	"109.0.0"	"FALSE"	"Windows 10"	"60.39"	"007"	n/a	n/a	n/a	n/a	n/a	n/a	"Trial"	n/a	n/a	n/a	"287"	"arrowright"	n/a	"NULL"	"NULL"	"NULL"	"stimuli/VerticalHorizontal_20.27143_0.10960.png"	n/a	"VerticalHorizontal"	"arrowleft"	"1295"	"FALSE"	"VerticalHorizontal"	"20.271430000"	"0.1096000000"	"1"	"21"
n/a	"html-keyboard-response"	"59"	"221357"	"0.0-5.0-2.0-0.3"	"6d077q"	"600"	"1366"	"chrome"	"109.0.0"	"FALSE"	"Windows 10"	"60.39"	"007"	n/a	n/a	n/a	n/a	n/a	n/a	"fixation"	n/a	n/a	n/a	n/a	"NULL"	n/a	"NULL"	"NULL"	"NULL"	"<p style=\"color: black; font-size: 80px; padding-left: 7%; padding-right: 38%; padding-top: 11%; padding-bottom: 35%\">+</p>"	"1258"	n/a	n/a	n/a	n/a	n/a	n/a	n/a	n/a	n/a
n/a	"image-keyboard-response"	"60"	"221680"	"0.0-5.0-2.0-1.3"	"6d077q"	"600"	"1366"	"chrome"	"109.0.0"	"FALSE"	"Windows 10"	"60.39"	"007"	n/a	n/a	n/a	n/a	n/a	n/a	"Trial"	n/a	n/a	n/a	"321"	"arrowleft"	n/a	"NULL"	"NULL"	"NULL"	"stimuli/VerticalHorizontal_-28.75714_0.10960.png"	n/a	"VerticalHorizontal"	"arrowleft"	"1274"	"TRUE"	"VerticalHorizontal"	"-28.75714000"	"0.1096000000"	"1"	"22"
n/a	"html-keyboard-response"	"61"	"223133"	"0.0-5.0-2.0-0.4"	"6d077q"	"600"	"1366"	"chrome"	"109.0.0"	"FALSE"	"Windows 10"	"60.39"	"007"	n/a	n/a	n/a	n/a	n/a	n/a	"fixation"	n/a	n/a	n/a	n/a	"NULL"	n/a	"NULL"	"NULL"	"NULL"	"<p style=\"color: black; font-size: 80px; padding-left: 15%; padding-right: 6%; padding-top: 22%; padding-bottom: 1%\">+</p>"	"1433"	n/a	n/a	n/a	n/a	n/a	n/a	n/a	n/a	n/a
n/a	"image-keyboard-response"	"62"	"223523"	"0.0-5.0-2.0-1.4"	"6d077q"	"600"	"1366"	"chrome"	"109.0.0"	"FALSE"	"Windows 10"	"60.39"	"007"	n/a	n/a	n/a	n/a	n/a	n/a	"Trial"	n/a	n/a	n/a	"387"	"arrowright"	n/a	"NULL"	"NULL"	"NULL"	"stimuli/VerticalHorizontal_-28.75714_-0.0673.png"	n/a	"VerticalHorizontal"	"arrowright"	"1453"	"TRUE"	"VerticalHorizontal"	"-28.75714000"	"-0.067300000"	"1"	"23"
n/a	"html-keyboard-response"	"63"	"224695"	"0.0-5.0-2.0-0.5"	"6d077q"	"600"	"1366"	"chrome"	"109.0.0"	"FALSE"	"Windows 10"	"60.39"	"007"	n/a	n/a	n/a	n/a	n/a	n/a	"fixation"	n/a	n/a	n/a	n/a	"NULL"	n/a	"NULL"	"NULL"	"NULL"	"<p style=\"color: black; font-size: 80px; padding-left: 48%; padding-right: 41%; padding-top: 12%; padding-bottom: 38%\">+</p>"	"1161"	n/a	n/a	n/a	n/a	n/a	n/a	n/a	n/a	n/a
n/a	"image-keyboard-response"	"64"	"225064"	"0.0-5.0-2.0-1.5"	"6d077q"	"600"	"1366"	"chrome"	"109.0.0"	"FALSE"	"Windows 10"	"60.39"	"007"	n/a	n/a	n/a	n/a	n/a	n/a	"Trial"	n/a	n/a	n/a	"368"	"arrowright"	n/a	"NULL"	"NULL"	"NULL"	"stimuli/VerticalHorizontal_-3.3000_-0.1096.png"	n/a	"VerticalHorizontal"	"arrowright"	"1172"	"TRUE"	"VerticalHorizontal"	"-3.300000000"	"-0.109600000"	"1"	"24"
n/a	"html-keyboard-response"	"65"	"226336"	"0.0-5.0-2.0-0.6"	"6d077q"	"600"	"1366"	"chrome"	"109.0.0"	"FALSE"	"Windows 10"	"60.39"	"007"	n/a	n/a	n/a	n/a	n/a	n/a	"fixation"	n/a	n/a	n/a	n/a	"NULL"	n/a	"NULL"	"NULL"	"NULL"	"<p style=\"color: black; font-size: 80px; padding-left: 43%; padding-right: 41%; padding-top: 35%; padding-bottom: 49%\">+</p>"	"1254"	n/a	n/a	n/a	n/a	n/a	n/a	n/a	n/a	n/a
n/a	"image-keyboard-response"	"66"	"226658"	"0.0-5.0-2.0-1.6"	"6d077q"	"600"	"1366"	"chrome"	"109.0.0"	"FALSE"	"Windows 10"	"60.39"	"007"	n/a	n/a	n/a	n/a	n/a	n/a	"Trial"	n/a	n/a	n/a	"321"	"arrowleft"	n/a	"NULL"	"NULL"	"NULL"	"stimuli/VerticalHorizontal_3.30000_0.16217.png"	n/a	"VerticalHorizontal"	"arrowleft"	"1272"	"TRUE"	"VerticalHorizontal"	"3.3000000000"	"0.1621700000"	"1"	"25"
n/a	"html-keyboard-response"	"67"	"228086"	"0.0-5.0-2.0-0.7"	"6d077q"	"600"	"1366"	"chrome"	"109.0.0"	"FALSE"	"Windows 10"	"60.39"	"007"	n/a	n/a	n/a	n/a	n/a	n/a	"fixation"	n/a	n/a	n/a	n/a	"NULL"	n/a	"NULL"	"NULL"	"NULL"	"<p style=\"color: black; font-size: 80px; padding-left: 1%; padding-right: 8%; padding-top: 8%; padding-bottom: 42%\">+</p>"	"1402"	n/a	n/a	n/a	n/a	n/a	n/a	n/a	n/a	n/a
n/a	"image-keyboard-response"	"68"	"228424"	"0.0-5.0-2.0-1.7"	"6d077q"	"600"	"1366"	"chrome"	"109.0.0"	"FALSE"	"Windows 10"	"60.39"	"007"	n/a	n/a	n/a	n/a	n/a	n/a	"Trial"	n/a	n/a	n/a	"336"	"arrowleft"	n/a	"NULL"	"NULL"	"NULL"	"stimuli/VerticalHorizontal_3.30000_0.10960.png"	n/a	"VerticalHorizontal"	"arrowleft"	"1428"	"TRUE"	"VerticalHorizontal"	"3.3000000000"	"0.1096000000"	"1"	"26"
n/a	"html-keyboard-response"	"69"	"229712"	"0.0-5.0-2.0-0.8"	"6d077q"	"600"	"1366"	"chrome"	"109.0.0"	"FALSE"	"Windows 10"	"60.39"	"007"	n/a	n/a	n/a	n/a	n/a	n/a	"fixation"	n/a	n/a	n/a	n/a	"NULL"	n/a	"NULL"	"NULL"	"NULL"	"<p style=\"color: black; font-size: 80px; padding-left: 1%; padding-right: 3%; padding-top: 24%; padding-bottom: 1%\">+</p>"	"1282"	n/a	n/a	n/a	n/a	n/a	n/a	n/a	n/a	n/a
n/a	"image-keyboard-response"	"70"	"230012"	"0.0-5.0-2.0-1.8"	"6d077q"	"600"	"1366"	"chrome"	"109.0.0"	"FALSE"	"Windows 10"	"60.39"	"007"	n/a	n/a	n/a	n/a	n/a	n/a	"Trial"	n/a	n/a	n/a	"299"	"arrowleft"	n/a	"NULL"	"NULL"	"NULL"	"stimuli/VerticalHorizontal_-28.75714_0.22500.png"	n/a	"VerticalHorizontal"	"arrowleft"	"1288"	"TRUE"	"VerticalHorizontal"	"-28.75714000"	"0.2250000000"	"1"	"27"
n/a	"html-keyboard-response"	"71"	"231423"	"0.0-5.0-2.0-0.9"	"6d077q"	"600"	"1366"	"chrome"	"109.0.0"	"FALSE"	"Windows 10"	"60.39"	"007"	n/a	n/a	n/a	n/a	n/a	n/a	"fixation"	n/a	n/a	n/a	n/a	"NULL"	n/a	"NULL"	"NULL"	"NULL"	"<p style=\"color: black; font-size: 80px; padding-left: 43%; padding-right: 3%; padding-top: 43%; padding-bottom: 45%\">+</p>"	"1399"	n/a	n/a	n/a	n/a	n/a	n/a	n/a	n/a	n/a
n/a	"image-keyboard-response"	"72"	"231818"	"0.0-5.0-2.0-1.9"	"6d077q"	"600"	"1366"	"chrome"	"109.0.0"	"FALSE"	"Windows 10"	"60.39"	"007"	n/a	n/a	n/a	n/a	n/a	n/a	"Trial"	n/a	n/a	n/a	"394"	"arrowright"	n/a	"NULL"	"NULL"	"NULL"	"stimuli/VerticalHorizontal_-28.75714_-0.1096.png"	n/a	"VerticalHorizontal"	"arrowright"	"1411"	"TRUE"	"VerticalHorizontal"	"-28.75714000"	"-0.109600000"	"1"	"28"
n/a	"html-keyboard-response"	"73"	"233213"	"0.0-5.0-2.0-0.10"	"6d077q"	"600"	"1366"	"chrome"	"109.0.0"	"FALSE"	"Windows 10"	"60.39"	"007"	n/a	n/a	n/a	n/a	n/a	n/a	"fixation"	n/a	n/a	n/a	n/a	"NULL"	n/a	"NULL"	"NULL"	"NULL"	"<p style=\"color: black; font-size: 80px; padding-left: 26%; padding-right: 26%; padding-top: 0%; padding-bottom: 26%\">+</p>"	"1377"	n/a	n/a	n/a	n/a	n/a	n/a	n/a	n/a	n/a
n/a	"image-keyboard-response"	"74"	"233539"	"0.0-5.0-2.0-1.10"	"6d077q"	"600"	"1366"	"chrome"	"109.0.0"	"FALSE"	"Windows 10"	"60.39"	"007"	n/a	n/a	n/a	n/a	n/a	n/a	"Trial"	n/a	n/a	n/a	"324"	"arrowleft"	n/a	"NULL"	"NULL"	"NULL"	"stimuli/VerticalHorizontal_-11.78571_0.22500.png"	n/a	"VerticalHorizontal"	"arrowleft"	"1395"	"TRUE"	"VerticalHorizontal"	"-11.78571000"	"0.2250000000"	"1"	"29"
n/a	"html-keyboard-response"	"75"	"234588"	"0.0-5.0-2.0-0.11"	"6d077q"	"600"	"1366"	"chrome"	"109.0.0"	"FALSE"	"Windows 10"	"60.39"	"007"	n/a	n/a	n/a	n/a	n/a	n/a	"fixation"	n/a	n/a	n/a	n/a	"NULL"	n/a	"NULL"	"NULL"	"NULL"	"<p style=\"color: black; font-size: 80px; padding-left: 36%; padding-right: 15%; padding-top: 6%; padding-bottom: 2%\">+</p>"	"1034"	n/a	n/a	n/a	n/a	n/a	n/a	n/a	n/a	n/a
n/a	"image-keyboard-response"	"76"	"235015"	"0.0-5.0-2.0-1.11"	"6d077q"	"600"	"1366"	"chrome"	"109.0.0"	"FALSE"	"Windows 10"	"60.39"	"007"	n/a	n/a	n/a	n/a	n/a	n/a	"Trial"	n/a	n/a	n/a	"425"	"arrowright"	n/a	"NULL"	"NULL"	"NULL"	"stimuli/VerticalHorizontal_-20.27143_-0.16217.png"	n/a	"VerticalHorizontal"	"arrowright"	"1049"	"TRUE"	"VerticalHorizontal"	"-20.27143000"	"-0.162170000"	"1"	"30"
n/a	"html-keyboard-response"	"77"	"236228"	"0.0-5.0-2.0-0.12"	"6d077q"	"600"	"1366"	"chrome"	"109.0.0"	"FALSE"	"Windows 10"	"60.39"	"007"	n/a	n/a	n/a	n/a	n/a	n/a	"fixation"	n/a	n/a	n/a	n/a	"NULL"	n/a	"NULL"	"NULL"	"NULL"	"<p style=\"color: black; font-size: 80px; padding-left: 16%; padding-right: 36%; padding-top: 3%; padding-bottom: 14%\">+</p>"	"1191"	n/a	n/a	n/a	n/a	n/a	n/a	n/a	n/a	n/a
n/a	"image-keyboard-response"	"78"	"236531"	"0.0-5.0-2.0-1.12"	"6d077q"	"600"	"1366"	"chrome"	"109.0.0"	"FALSE"	"Windows 10"	"60.39"	"007"	n/a	n/a	n/a	n/a	n/a	n/a	"Trial"	n/a	n/a	n/a	"302"	"arrowleft"	n/a	"NULL"	"NULL"	"NULL"	"stimuli/VerticalHorizontal_-20.27143_0.06730.png"	n/a	"VerticalHorizontal"	"arrowleft"	"1213"	"TRUE"	"VerticalHorizontal"	"-20.27143000"	"0.0673000000"	"1"	"31"
n/a	"html-keyboard-response"	"79"	"237545"	"0.0-5.0-2.0-0.13"	"6d077q"	"600"	"1366"	"chrome"	"109.0.0"	"FALSE"	"Windows 10"	"60.39"	"007"	n/a	n/a	n/a	n/a	n/a	n/a	"fixation"	n/a	n/a	n/a	n/a	"NULL"	n/a	"NULL"	"NULL"	"NULL"	"<p style=\"color: black; font-size: 80px; padding-left: 8%; padding-right: 25%; padding-top: 11%; padding-bottom: 17%\">+</p>"	"1002"	n/a	n/a	n/a	n/a	n/a	n/a	n/a	n/a	n/a
n/a	"image-keyboard-response"	"80"	"237938"	"0.0-5.0-2.0-1.13"	"6d077q"	"600"	"1366"	"chrome"	"109.0.0"	"FALSE"	"Windows 10"	"60.39"	"007"	n/a	n/a	n/a	n/a	n/a	n/a	"Trial"	n/a	n/a	n/a	"391"	"arrowleft"	n/a	"NULL"	"NULL"	"NULL"	"stimuli/VerticalHorizontal_-11.78571_0.10960.png"	n/a	"VerticalHorizontal"	"arrowleft"	"1014"	"TRUE"	"VerticalHorizontal"	"-11.78571000"	"0.1096000000"	"1"	"32"
n/a	"html-keyboard-response"	"81"	"239309"	"0.0-5.0-2.0-0.14"	"6d077q"	"600"	"1366"	"chrome"	"109.0.0"	"FALSE"	"Windows 10"	"60.39"	"007"	n/a	n/a	n/a	n/a	n/a	n/a	"fixation"	n/a	n/a	n/a	n/a	"NULL"	n/a	"NULL"	"NULL"	"NULL"	"<p style=\"color: black; font-size: 80px; padding-left: 29%; padding-right: 35%; padding-top: 36%; padding-bottom: 25%\">+</p>"	"1334"	n/a	n/a	n/a	n/a	n/a	n/a	n/a	n/a	n/a
n/a	"image-keyboard-response"	"82"	"239611"	"0.0-5.0-2.0-1.14"	"6d077q"	"600"	"1366"	"chrome"	"109.0.0"	"FALSE"	"Windows 10"	"60.39"	"007"	n/a	n/a	n/a	n/a	n/a	n/a	"Trial"	n/a	n/a	n/a	"301"	"arrowleft"	n/a	"NULL"	"NULL"	"NULL"	"stimuli/VerticalHorizontal_28.75714_-0.16217.png"	n/a	"VerticalHorizontal"	"arrowright"	"1371"	"FALSE"	"VerticalHorizontal"	"28.757140000"	"-0.162170000"	"1"	"33"
n/a	"html-keyboard-response"	"83"	"240918"	"0.0-5.0-2.0-0.15"	"6d077q"	"600"	"1366"	"chrome"	"109.0.0"	"FALSE"	"Windows 10"	"60.39"	"007"	n/a	n/a	n/a	n/a	n/a	n/a	"fixation"	n/a	n/a	n/a	n/a	"NULL"	n/a	"NULL"	"NULL"	"NULL"	"<p style=\"color: black; font-size: 80px; padding-left: 8%; padding-right: 3%; padding-top: 44%; padding-bottom: 10%\">+</p>"	"1290"	n/a	n/a	n/a	n/a	n/a	n/a	n/a	n/a	n/a
n/a	"image-keyboard-response"	"84"	"241295"	"0.0-5.0-2.0-1.15"	"6d077q"	"600"	"1366"	"chrome"	"109.0.0"	"FALSE"	"Windows 10"	"60.39"	"007"	n/a	n/a	n/a	n/a	n/a	n/a	"Trial"	n/a	n/a	n/a	"376"	"arrowleft"	n/a	"NULL"	"NULL"	"NULL"	"stimuli/VerticalHorizontal_11.78571_0.16217.png"	n/a	"VerticalHorizontal"	"arrowleft"	"1307"	"TRUE"	"VerticalHorizontal"	"11.785710000"	"0.1621700000"	"1"	"34"
n/a	"html-keyboard-response"	"85"	"242427"	"0.0-5.0-2.0-0.16"	"6d077q"	"600"	"1366"	"chrome"	"109.0.0"	"FALSE"	"Windows 10"	"60.39"	"007"	n/a	n/a	n/a	n/a	n/a	n/a	"fixation"	n/a	n/a	n/a	n/a	"NULL"	n/a	"NULL"	"NULL"	"NULL"	"<p style=\"color: black; font-size: 80px; padding-left: 8%; padding-right: 26%; padding-top: 13%; padding-bottom: 12%\">+</p>"	"1111"	n/a	n/a	n/a	n/a	n/a	n/a	n/a	n/a	n/a
n/a	"image-keyboard-response"	"86"	"242738"	"0.0-5.0-2.0-1.16"	"6d077q"	"600"	"1366"	"chrome"	"109.0.0"	"FALSE"	"Windows 10"	"60.39"	"007"	n/a	n/a	n/a	n/a	n/a	n/a	"Trial"	n/a	n/a	n/a	"309"	"arrowleft"	n/a	"NULL"	"NULL"	"NULL"	"stimuli/VerticalHorizontal_-20.27143_0.16217.png"	n/a	"VerticalHorizontal"	"arrowleft"	"1132"	"TRUE"	"VerticalHorizontal"	"-20.27143000"	"0.1621700000"	"1"	"35"
n/a	"html-keyboard-response"	"87"	"243825"	"0.0-5.0-2.0-0.17"	"6d077q"	"600"	"1366"	"chrome"	"109.0.0"	"FALSE"	"Windows 10"	"60.39"	"007"	n/a	n/a	n/a	n/a	n/a	n/a	"fixation"	n/a	n/a	n/a	n/a	"NULL"	n/a	"NULL"	"NULL"	"NULL"	"<p style=\"color: black; font-size: 80px; padding-left: 16%; padding-right: 47%; padding-top: 46%; padding-bottom: 15%\">+</p>"	"1082"	n/a	n/a	n/a	n/a	n/a	n/a	n/a	n/a	n/a
n/a	"image-keyboard-response"	"88"	"244118"	"0.0-5.0-2.0-1.17"	"6d077q"	"600"	"1366"	"chrome"	"109.0.0"	"FALSE"	"Windows 10"	"60.39"	"007"	n/a	n/a	n/a	n/a	n/a	n/a	"Trial"	n/a	n/a	n/a	"292"	"arrowleft"	n/a	"NULL"	"NULL"	"NULL"	"stimuli/VerticalHorizontal_20.27143_-0.16217.png"	n/a	"VerticalHorizontal"	"arrowright"	"1087"	"FALSE"	"VerticalHorizontal"	"20.271430000"	"-0.162170000"	"1"	"36"
n/a	"html-keyboard-response"	"89"	"245192"	"0.0-5.0-2.0-0.18"	"6d077q"	"600"	"1366"	"chrome"	"109.0.0"	"FALSE"	"Windows 10"	"60.39"	"007"	n/a	n/a	n/a	n/a	n/a	n/a	"fixation"	n/a	n/a	n/a	n/a	"NULL"	n/a	"NULL"	"NULL"	"NULL"	"<p style=\"color: black; font-size: 80px; padding-left: 38%; padding-right: 11%; padding-top: 20%; padding-bottom: 6%\">+</p>"	"1061"	n/a	n/a	n/a	n/a	n/a	n/a	n/a	n/a	n/a
n/a	"image-keyboard-response"	"90"	"245564"	"0.0-5.0-2.0-1.18"	"6d077q"	"600"	"1366"	"chrome"	"109.0.0"	"FALSE"	"Windows 10"	"60.39"	"007"	n/a	n/a	n/a	n/a	n/a	n/a	"Trial"	n/a	n/a	n/a	"370"	"arrowright"	n/a	"NULL"	"NULL"	"NULL"	"stimuli/VerticalHorizontal_28.75714_0.22500.png"	n/a	"VerticalHorizontal"	"arrowleft"	"1074"	"FALSE"	"VerticalHorizontal"	"28.757140000"	"0.2250000000"	"1"	"37"
n/a	"html-keyboard-response"	"91"	"247021"	"0.0-5.0-2.0-0.19"	"6d077q"	"600"	"1366"	"chrome"	"109.0.0"	"FALSE"	"Windows 10"	"60.39"	"007"	n/a	n/a	n/a	n/a	n/a	n/a	"fixation"	n/a	n/a	n/a	n/a	"NULL"	n/a	"NULL"	"NULL"	"NULL"	"<p style=\"color: black; font-size: 80px; padding-left: 30%; padding-right: 26%; padding-top: 48%; padding-bottom: 18%\">+</p>"	"1427"	n/a	n/a	n/a	n/a	n/a	n/a	n/a	n/a	n/a
n/a	"image-keyboard-response"	"92"	"247301"	"0.0-5.0-2.0-1.19"	"6d077q"	"600"	"1366"	"chrome"	"109.0.0"	"FALSE"	"Windows 10"	"60.39"	"007"	n/a	n/a	n/a	n/a	n/a	n/a	"Trial"	n/a	n/a	n/a	"279"	"arrowleft"	n/a	"NULL"	"NULL"	"NULL"	"stimuli/VerticalHorizontal_-20.27143_-0.1096.png"	n/a	"VerticalHorizontal"	"arrowright"	"1457"	"FALSE"	"VerticalHorizontal"	"-20.27143000"	"-0.109600000"	"1"	"38"
n/a	"html-keyboard-response"	"93"	"248515"	"0.0-5.0-2.0-0.20"	"6d077q"	"600"	"1366"	"chrome"	"109.0.0"	"FALSE"	"Windows 10"	"60.39"	"007"	n/a	n/a	n/a	n/a	n/a	n/a	"fixation"	n/a	n/a	n/a	n/a	"NULL"	n/a	"NULL"	"NULL"	"NULL"	"<p style=\"color: black; font-size: 80px; padding-left: 37%; padding-right: 18%; padding-top: 47%; padding-bottom: 32%\">+</p>"	"1193"	n/a	n/a	n/a	n/a	n/a	n/a	n/a	n/a	n/a
n/a	"image-keyboard-response"	"94"	"248864"	"0.0-5.0-2.0-1.20"	"6d077q"	"600"	"1366"	"chrome"	"109.0.0"	"FALSE"	"Windows 10"	"60.39"	"007"	n/a	n/a	n/a	n/a	n/a	n/a	"Trial"	n/a	n/a	n/a	"347"	"arrowleft"	n/a	"NULL"	"NULL"	"NULL"	"stimuli/VerticalHorizontal_-3.3000_0.22500.png"	n/a	"VerticalHorizontal"	"arrowleft"	"1214"	"TRUE"	"VerticalHorizontal"	"-3.300000000"	"0.2250000000"	"1"	"39"
n/a	"html-keyboard-response"	"95"	"250138"	"0.0-5.0-2.0-0.21"	"6d077q"	"600"	"1366"	"chrome"	"109.0.0"	"FALSE"	"Windows 10"	"60.39"	"007"	n/a	n/a	n/a	n/a	n/a	n/a	"fixation"	n/a	n/a	n/a	n/a	"NULL"	n/a	"NULL"	"NULL"	"NULL"	"<p style=\"color: black; font-size: 80px; padding-left: 43%; padding-right: 13%; padding-top: 12%; padding-bottom: 24%\">+</p>"	"1260"	n/a	n/a	n/a	n/a	n/a	n/a	n/a	n/a	n/a
n/a	"image-keyboard-response"	"96"	"250426"	"0.0-5.0-2.0-1.21"	"6d077q"	"600"	"1366"	"chrome"	"109.0.0"	"FALSE"	"Windows 10"	"60.39"	"007"	n/a	n/a	n/a	n/a	n/a	n/a	"Trial"	n/a	n/a	n/a	"286"	"arrowleft"	n/a	"NULL"	"NULL"	"NULL"	"stimuli/VerticalHorizontal_11.78571_-0.2250.png"	n/a	"VerticalHorizontal"	"arrowright"	"1274"	"FALSE"	"VerticalHorizontal"	"11.785710000"	"-0.225000000"	"1"	"40"
n/a	"html-keyboard-response"	"97"	"251651"	"0.0-5.0-2.0-0.22"	"6d077q"	"600"	"1366"	"chrome"	"109.0.0"	"FALSE"	"Windows 10"	"60.39"	"007"	n/a	n/a	n/a	n/a	n/a	n/a	"fixation"	n/a	n/a	n/a	n/a	"NULL"	n/a	"NULL"	"NULL"	"NULL"	"<p style=\"color: black; font-size: 80px; padding-left: 25%; padding-right: 17%; padding-top: 37%; padding-bottom: 2%\">+</p>"	"1211"	n/a	n/a	n/a	n/a	n/a	n/a	n/a	n/a	n/a
n/a	"image-keyboard-response"	"98"	"251961"	"0.0-5.0-2.0-1.22"	"6d077q"	"600"	"1366"	"chrome"	"109.0.0"	"FALSE"	"Windows 10"	"60.39"	"007"	n/a	n/a	n/a	n/a	n/a	n/a	"Trial"	n/a	n/a	n/a	"308"	"arrowleft"	n/a	"NULL"	"NULL"	"NULL"	"stimuli/VerticalHorizontal_-20.27143_-0.0673.png"	n/a	"VerticalHorizontal"	"arrowright"	"1225"	"FALSE"	"VerticalHorizontal"	"-20.27143000"	"-0.067300000"	"1"	"41"
n/a	"html-keyboard-response"	"99"	"253352"	"0.0-5.0-2.0-0.23"	"6d077q"	"600"	"1366"	"chrome"	"109.0.0"	"FALSE"	"Windows 10"	"60.39"	"007"	n/a	n/a	n/a	n/a	n/a	n/a	"fixation"	n/a	n/a	n/a	n/a	"NULL"	n/a	"NULL"	"NULL"	"NULL"	"<p style=\"color: black; font-size: 80px; padding-left: 16%; padding-right: 17%; padding-top: 14%; padding-bottom: 42%\">+</p>"	"1373"	n/a	n/a	n/a	n/a	n/a	n/a	n/a	n/a	n/a
n/a	"image-keyboard-response"	"100"	"253577"	"0.0-5.0-2.0-1.23"	"6d077q"	"600"	"1366"	"chrome"	"109.0.0"	"FALSE"	"Windows 10"	"60.39"	"007"	n/a	n/a	n/a	n/a	n/a	n/a	"Trial"	n/a	n/a	n/a	"223"	"arrowleft"	n/a	"NULL"	"NULL"	"NULL"	"stimuli/VerticalHorizontal_-20.27143_0.10960.png"	n/a	"VerticalHorizontal"	"arrowleft"	"1391"	"TRUE"	"VerticalHorizontal"	"-20.27143000"	"0.1096000000"	"1"	"42"
n/a	"html-keyboard-response"	"101"	"254666"	"0.0-5.0-2.0-0.24"	"6d077q"	"600"	"1366"	"chrome"	"109.0.0"	"FALSE"	"Windows 10"	"60.39"	"007"	n/a	n/a	n/a	n/a	n/a	n/a	"fixation"	n/a	n/a	n/a	n/a	"NULL"	n/a	"NULL"	"NULL"	"NULL"	"<p style=\"color: black; font-size: 80px; padding-left: 24%; padding-right: 7%; padding-top: 8%; padding-bottom: 4%\">+</p>"	"1073"	n/a	n/a	n/a	n/a	n/a	n/a	n/a	n/a	n/a
n/a	"image-keyboard-response"	"102"	"254993"	"0.0-5.0-2.0-1.24"	"6d077q"	"600"	"1366"	"chrome"	"109.0.0"	"FALSE"	"Windows 10"	"60.39"	"007"	n/a	n/a	n/a	n/a	n/a	n/a	"Trial"	n/a	n/a	n/a	"326"	"arrowleft"	n/a	"NULL"	"NULL"	"NULL"	"stimuli/VerticalHorizontal_3.30000_0.06730.png"	n/a	"VerticalHorizontal"	"arrowleft"	"1089"	"TRUE"	"VerticalHorizontal"	"3.3000000000"	"0.0673000000"	"1"	"43"
n/a	"html-keyboard-response"	"103"	"256177"	"0.0-5.0-2.0-0.25"	"6d077q"	"600"	"1366"	"chrome"	"109.0.0"	"FALSE"	"Windows 10"	"60.39"	"007"	n/a	n/a	n/a	n/a	n/a	n/a	"fixation"	n/a	n/a	n/a	n/a	"NULL"	n/a	"NULL"	"NULL"	"NULL"	"<p style=\"color: black; font-size: 80px; padding-left: 5%; padding-right: 49%; padding-top: 39%; padding-bottom: 22%\">+</p>"	"1170"	n/a	n/a	n/a	n/a	n/a	n/a	n/a	n/a	n/a
n/a	"image-keyboard-response"	"104"	"256441"	"0.0-5.0-2.0-1.25"	"6d077q"	"600"	"1366"	"chrome"	"109.0.0"	"FALSE"	"Windows 10"	"60.39"	"007"	n/a	n/a	n/a	n/a	n/a	n/a	"Trial"	n/a	n/a	n/a	"263"	"arrowleft"	n/a	"NULL"	"NULL"	"NULL"	"stimuli/VerticalHorizontal_-3.3000_0.10960.png"	n/a	"VerticalHorizontal"	"arrowleft"	"1184"	"TRUE"	"VerticalHorizontal"	"-3.300000000"	"0.1096000000"	"1"	"44"
n/a	"html-keyboard-response"	"105"	"257707"	"0.0-5.0-2.0-0.26"	"6d077q"	"600"	"1366"	"chrome"	"109.0.0"	"FALSE"	"Windows 10"	"60.39"	"007"	n/a	n/a	n/a	n/a	n/a	n/a	"fixation"	n/a	n/a	n/a	n/a	"NULL"	n/a	"NULL"	"NULL"	"NULL"	"<p style=\"color: black; font-size: 80px; padding-left: 33%; padding-right: 49%; padding-top: 43%; padding-bottom: 6%\">+</p>"	"1245"	n/a	n/a	n/a	n/a	n/a	n/a	n/a	n/a	n/a
n/a	"image-keyboard-response"	"106"	"257832"	"0.0-5.0-2.0-1.26"	"6d077q"	"600"	"1366"	"chrome"	"109.0.0"	"FALSE"	"Windows 10"	"60.39"	"007"	n/a	n/a	n/a	n/a	n/a	n/a	"Trial"	n/a	n/a	n/a	"124"	"arrowleft"	n/a	"NULL"	"NULL"	"NULL"	"stimuli/VerticalHorizontal_11.78571_0.22500.png"	n/a	"VerticalHorizontal"	"arrowleft"	"1266"	"TRUE"	"VerticalHorizontal"	"11.785710000"	"0.2250000000"	"1"	"45"
n/a	"html-keyboard-response"	"107"	"259095"	"0.0-5.0-2.0-0.27"	"6d077q"	"600"	"1366"	"chrome"	"109.0.0"	"FALSE"	"Windows 10"	"60.39"	"007"	n/a	n/a	n/a	n/a	n/a	n/a	"fixation"	n/a	n/a	n/a	n/a	"NULL"	n/a	"NULL"	"NULL"	"NULL"	"<p style=\"color: black; font-size: 80px; padding-left: 7%; padding-right: 42%; padding-top: 36%; padding-bottom: 12%\">+</p>"	"1252"	n/a	n/a	n/a	n/a	n/a	n/a	n/a	n/a	n/a
n/a	"image-keyboard-response"	"108"	"259390"	"0.0-5.0-2.0-1.27"	"6d077q"	"600"	"1366"	"chrome"	"109.0.0"	"FALSE"	"Windows 10"	"60.39"	"007"	n/a	n/a	n/a	n/a	n/a	n/a	"Trial"	n/a	n/a	n/a	"293"	"arrowright"	n/a	"NULL"	"NULL"	"NULL"	"stimuli/VerticalHorizontal_-3.3000_-0.0673.png"	n/a	"VerticalHorizontal"	"arrowright"	"1263"	"TRUE"	"VerticalHorizontal"	"-3.300000000"	"-0.067300000"	"1"	"46"
n/a	"html-keyboard-response"	"109"	"260722"	"0.0-5.0-2.0-0.28"	"6d077q"	"600"	"1366"	"chrome"	"109.0.0"	"FALSE"	"Windows 10"	"60.39"	"007"	n/a	n/a	n/a	n/a	n/a	n/a	"fixation"	n/a	n/a	n/a	n/a	"NULL"	n/a	"NULL"	"NULL"	"NULL"	"<p style=\"color: black; font-size: 80px; padding-left: 4%; padding-right: 27%; padding-top: 31%; padding-bottom: 20%\">+</p>"	"1317"	n/a	n/a	n/a	n/a	n/a	n/a	n/a	n/a	n/a
n/a	"image-keyboard-response"	"110"	"261111"	"0.0-5.0-2.0-1.28"	"6d077q"	"600"	"1366"	"chrome"	"109.0.0"	"FALSE"	"Windows 10"	"60.39"	"007"	n/a	n/a	n/a	n/a	n/a	n/a	"Trial"	n/a	n/a	n/a	"388"	"arrowright"	n/a	"NULL"	"NULL"	"NULL"	"stimuli/VerticalHorizontal_-28.75714_-0.16217.png"	n/a	"VerticalHorizontal"	"arrowright"	"1332"	"TRUE"	"VerticalHorizontal"	"-28.75714000"	"-0.162170000"	"1"	"47"
n/a	"html-keyboard-response"	"111"	"262361"	"0.0-5.0-2.0-0.29"	"6d077q"	"600"	"1366"	"chrome"	"109.0.0"	"FALSE"	"Windows 10"	"60.39"	"007"	n/a	n/a	n/a	n/a	n/a	n/a	"fixation"	n/a	n/a	n/a	n/a	"NULL"	n/a	"NULL"	"NULL"	"NULL"	"<p style=\"color: black; font-size: 80px; padding-left: 19%; padding-right: 1%; padding-top: 36%; padding-bottom: 50%\">+</p>"	"1239"	n/a	n/a	n/a	n/a	n/a	n/a	n/a	n/a	n/a
n/a	"image-keyboard-response"	"112"	"262676"	"0.0-5.0-2.0-1.29"	"6d077q"	"600"	"1366"	"chrome"	"109.0.0"	"FALSE"	"Windows 10"	"60.39"	"007"	n/a	n/a	n/a	n/a	n/a	n/a	"Trial"	n/a	n/a	n/a	"314"	"arrowleft"	n/a	"NULL"	"NULL"	"NULL"	"stimuli/VerticalHorizontal_11.78571_-0.1096.png"	n/a	"VerticalHorizontal"	"arrowright"	"1250"	"FALSE"	"VerticalHorizontal"	"11.785710000"	"-0.109600000"	"1"	"48"
n/a	"html-keyboard-response"	"113"	"264051"	"0.0-5.0-2.0-0.30"	"6d077q"	"600"	"1366"	"chrome"	"109.0.0"	"FALSE"	"Windows 10"	"60.39"	"007"	n/a	n/a	n/a	n/a	n/a	n/a	"fixation"	n/a	n/a	n/a	n/a	"NULL"	n/a	"NULL"	"NULL"	"NULL"	"<p style=\"color: black; font-size: 80px; padding-left: 23%; padding-right: 13%; padding-top: 4%; padding-bottom: 9%\">+</p>"	"1363"	n/a	n/a	n/a	n/a	n/a	n/a	n/a	n/a	n/a
n/a	"image-keyboard-response"	"114"	"264361"	"0.0-5.0-2.0-1.30"	"6d077q"	"600"	"1366"	"chrome"	"109.0.0"	"FALSE"	"Windows 10"	"60.39"	"007"	n/a	n/a	n/a	n/a	n/a	n/a	"Trial"	n/a	n/a	n/a	"309"	"arrowleft"	n/a	"NULL"	"NULL"	"NULL"	"stimuli/VerticalHorizontal_-11.78571_0.16217.png"	n/a	"VerticalHorizontal"	"arrowleft"	"1375"	"TRUE"	"VerticalHorizontal"	"-11.78571000"	"0.1621700000"	"1"	"49"
n/a	"html-keyboard-response"	"115"	"265551"	"0.0-5.0-2.0-0.31"	"6d077q"	"600"	"1366"	"chrome"	"109.0.0"	"FALSE"	"Windows 10"	"60.39"	"007"	n/a	n/a	n/a	n/a	n/a	n/a	"fixation"	n/a	n/a	n/a	n/a	"NULL"	n/a	"NULL"	"NULL"	"NULL"	"<p style=\"color: black; font-size: 80px; padding-left: 5%; padding-right: 43%; padding-top: 43%; padding-bottom: 31%\">+</p>"	"1181"	n/a	n/a	n/a	n/a	n/a	n/a	n/a	n/a	n/a
n/a	"image-keyboard-response"	"116"	"265878"	"0.0-5.0-2.0-1.31"	"6d077q"	"600"	"1366"	"chrome"	"109.0.0"	"FALSE"	"Windows 10"	"60.39"	"007"	n/a	n/a	n/a	n/a	n/a	n/a	"Trial"	n/a	n/a	n/a	"324"	"arrowleft"	n/a	"NULL"	"NULL"	"NULL"	"stimuli/VerticalHorizontal_20.27143_-0.1096.png"	n/a	"VerticalHorizontal"	"arrowright"	"1190"	"FALSE"	"VerticalHorizontal"	"20.271430000"	"-0.109600000"	"1"	"50"
n/a	"html-keyboard-response"	"117"	"266941"	"0.0-5.0-2.0-0.32"	"6d077q"	"600"	"1366"	"chrome"	"109.0.0"	"FALSE"	"Windows 10"	"60.39"	"007"	n/a	n/a	n/a	n/a	n/a	n/a	"fixation"	n/a	n/a	n/a	n/a	"NULL"	n/a	"NULL"	"NULL"	"NULL"	"<p style=\"color: black; font-size: 80px; padding-left: 41%; padding-right: 3%; padding-top: 47%; padding-bottom: 7%\">+</p>"	"1048"	n/a	n/a	n/a	n/a	n/a	n/a	n/a	n/a	n/a
n/a	"image-keyboard-response"	"118"	"267237"	"0.0-5.0-2.0-1.32"	"6d077q"	"600"	"1366"	"chrome"	"109.0.0"	"FALSE"	"Windows 10"	"60.39"	"007"	n/a	n/a	n/a	n/a	n/a	n/a	"Trial"	n/a	n/a	n/a	"295"	"arrowleft"	n/a	"NULL"	"NULL"	"NULL"	"stimuli/VerticalHorizontal_11.78571_-0.16217.png"	n/a	"VerticalHorizontal"	"arrowright"	"1063"	"FALSE"	"VerticalHorizontal"	"11.785710000"	"-0.162170000"	"1"	"51"
n/a	"html-keyboard-response"	"119"	"268638"	"0.0-5.0-2.0-0.33"	"6d077q"	"600"	"1366"	"chrome"	"109.0.0"	"FALSE"	"Windows 10"	"60.39"	"007"	n/a	n/a	n/a	n/a	n/a	n/a	"fixation"	n/a	n/a	n/a	n/a	"NULL"	n/a	"NULL"	"NULL"	"NULL"	"<p style=\"color: black; font-size: 80px; padding-left: 30%; padding-right: 29%; padding-top: 14%; padding-bottom: 46%\">+</p>"	"1384"	n/a	n/a	n/a	n/a	n/a	n/a	n/a	n/a	n/a
n/a	"image-keyboard-response"	"120"	"268973"	"0.0-5.0-2.0-1.33"	"6d077q"	"600"	"1366"	"chrome"	"109.0.0"	"FALSE"	"Windows 10"	"60.39"	"007"	n/a	n/a	n/a	n/a	n/a	n/a	"Trial"	n/a	n/a	n/a	"334"	"arrowright"	n/a	"NULL"	"NULL"	"NULL"	"stimuli/VerticalHorizontal_28.75714_0.06730.png"	n/a	"VerticalHorizontal"	"arrowleft"	"1401"	"FALSE"	"VerticalHorizontal"	"28.757140000"	"0.0673000000"	"1"	"52"
n/a	"html-keyboard-response"	"121"	"270334"	"0.0-5.0-2.0-0.34"	"6d077q"	"600"	"1366"	"chrome"	"109.0.0"	"FALSE"	"Windows 10"	"60.39"	"007"	n/a	n/a	n/a	n/a	n/a	n/a	"fixation"	n/a	n/a	n/a	n/a	"NULL"	n/a	"NULL"	"NULL"	"NULL"	"<p style=\"color: black; font-size: 80px; padding-left: 7%; padding-right: 7%; padding-top: 5%; padding-bottom: 3%\">+</p>"	"1349"	n/a	n/a	n/a	n/a	n/a	n/a	n/a	n/a	n/a
n/a	"image-keyboard-response"	"122"	"270618"	"0.0-5.0-2.0-1.34"	"6d077q"	"600"	"1366"	"chrome"	"109.0.0"	"FALSE"	"Windows 10"	"60.39"	"007"	n/a	n/a	n/a	n/a	n/a	n/a	"Trial"	n/a	n/a	n/a	"283"	"arrowleft"	n/a	"NULL"	"NULL"	"NULL"	"stimuli/VerticalHorizontal_20.27143_-0.0673.png"	n/a	"VerticalHorizontal"	"arrowright"	"1361"	"FALSE"	"VerticalHorizontal"	"20.271430000"	"-0.067300000"	"1"	"53"
n/a	"html-keyboard-response"	"123"	"271741"	"0.0-5.0-2.0-0.35"	"6d077q"	"600"	"1366"	"chrome"	"109.0.0"	"FALSE"	"Windows 10"	"60.39"	"007"	n/a	n/a	n/a	n/a	n/a	n/a	"fixation"	n/a	n/a	n/a	n/a	"NULL"	n/a	"NULL"	"NULL"	"NULL"	"<p style=\"color: black; font-size: 80px; padding-left: 2%; padding-right: 22%; padding-top: 7%; padding-bottom: 4%\">+</p>"	"1106"	n/a	n/a	n/a	n/a	n/a	n/a	n/a	n/a	n/a
n/a	"image-keyboard-response"	"124"	"272068"	"0.0-5.0-2.0-1.35"	"6d077q"	"600"	"1366"	"chrome"	"109.0.0"	"FALSE"	"Windows 10"	"60.39"	"007"	n/a	n/a	n/a	n/a	n/a	n/a	"Trial"	n/a	n/a	n/a	"325"	"arrowleft"	n/a	"NULL"	"NULL"	"NULL"	"stimuli/VerticalHorizontal_20.27143_-0.2250.png"	n/a	"VerticalHorizontal"	"arrowright"	"1123"	"FALSE"	"VerticalHorizontal"	"20.271430000"	"-0.225000000"	"1"	"54"
n/a	"html-keyboard-response"	"125"	"273353"	"0.0-5.0-2.0-0.36"	"6d077q"	"600"	"1366"	"chrome"	"109.0.0"	"FALSE"	"Windows 10"	"60.39"	"007"	n/a	n/a	n/a	n/a	n/a	n/a	"fixation"	n/a	n/a	n/a	n/a	"NULL"	n/a	"NULL"	"NULL"	"NULL"	"<p style=\"color: black; font-size: 80px; padding-left: 12%; padding-right: 36%; padding-top: 44%; padding-bottom: 27%\">+</p>"	"1270"	n/a	n/a	n/a	n/a	n/a	n/a	n/a	n/a	n/a
n/a	"image-keyboard-response"	"126"	"273682"	"0.0-5.0-2.0-1.36"	"6d077q"	"600"	"1366"	"chrome"	"109.0.0"	"FALSE"	"Windows 10"	"60.39"	"007"	n/a	n/a	n/a	n/a	n/a	n/a	"Trial"	n/a	n/a	n/a	"327"	"arrowright"	n/a	"NULL"	"NULL"	"NULL"	"stimuli/VerticalHorizontal_-11.78571_-0.1096.png"	n/a	"VerticalHorizontal"	"arrowright"	"1285"	"TRUE"	"VerticalHorizontal"	"-11.78571000"	"-0.109600000"	"1"	"55"
n/a	"html-keyboard-response"	"127"	"275164"	"0.0-5.0-2.0-0.37"	"6d077q"	"600"	"1366"	"chrome"	"109.0.0"	"FALSE"	"Windows 10"	"60.39"	"007"	n/a	n/a	n/a	n/a	n/a	n/a	"fixation"	n/a	n/a	n/a	n/a	"NULL"	n/a	"NULL"	"NULL"	"NULL"	"<p style=\"color: black; font-size: 80px; padding-left: 35%; padding-right: 4%; padding-top: 48%; padding-bottom: 48%\">+</p>"	"1463"	n/a	n/a	n/a	n/a	n/a	n/a	n/a	n/a	n/a
n/a	"image-keyboard-response"	"128"	"275486"	"0.0-5.0-2.0-1.37"	"6d077q"	"600"	"1366"	"chrome"	"109.0.0"	"FALSE"	"Windows 10"	"60.39"	"007"	n/a	n/a	n/a	n/a	n/a	n/a	"Trial"	n/a	n/a	n/a	"320"	"arrowright"	n/a	"NULL"	"NULL"	"NULL"	"stimuli/VerticalHorizontal_-28.75714_-0.2250.png"	n/a	"VerticalHorizontal"	"arrowright"	"1482"	"TRUE"	"VerticalHorizontal"	"-28.75714000"	"-0.225000000"	"1"	"56"
n/a	"html-keyboard-response"	"129"	"276980"	"0.0-5.0-2.0-0.38"	"6d077q"	"600"	"1366"	"chrome"	"109.0.0"	"FALSE"	"Windows 10"	"60.39"	"007"	n/a	n/a	n/a	n/a	n/a	n/a	"fixation"	n/a	n/a	n/a	n/a	"NULL"	n/a	"NULL"	"NULL"	"NULL"	"<p style=\"color: black; font-size: 80px; padding-left: 46%; padding-right: 26%; padding-top: 23%; padding-bottom: 44%\">+</p>"	"1477"	n/a	n/a	n/a	n/a	n/a	n/a	n/a	n/a	n/a
n/a	"image-keyboard-response"	"130"	"277271"	"0.0-5.0-2.0-1.38"	"6d077q"	"600"	"1366"	"chrome"	"109.0.0"	"FALSE"	"Windows 10"	"60.39"	"007"	n/a	n/a	n/a	n/a	n/a	n/a	"Trial"	n/a	n/a	n/a	"290"	"arrowleft"	n/a	"NULL"	"NULL"	"NULL"	"stimuli/VerticalHorizontal_20.27143_0.16217.png"	n/a	"VerticalHorizontal"	"arrowleft"	"1494"	"TRUE"	"VerticalHorizontal"	"20.271430000"	"0.1621700000"	"1"	"57"
n/a	"html-keyboard-response"	"131"	"278422"	"0.0-5.0-2.0-0.39"	"6d077q"	"600"	"1366"	"chrome"	"109.0.0"	"FALSE"	"Windows 10"	"60.39"	"007"	n/a	n/a	n/a	n/a	n/a	n/a	"fixation"	n/a	n/a	n/a	n/a	"NULL"	n/a	"NULL"	"NULL"	"NULL"	"<p style=\"color: black; font-size: 80px; padding-left: 14%; padding-right: 24%; padding-top: 21%; padding-bottom: 37%\">+</p>"	"1138"	n/a	n/a	n/a	n/a	n/a	n/a	n/a	n/a	n/a
n/a	"image-keyboard-response"	"132"	"278749"	"0.0-5.0-2.0-1.39"	"6d077q"	"600"	"1366"	"chrome"	"109.0.0"	"FALSE"	"Windows 10"	"60.39"	"007"	n/a	n/a	n/a	n/a	n/a	n/a	"Trial"	n/a	n/a	n/a	"319"	"arrowleft"	n/a	"NULL"	"NULL"	"NULL"	"stimuli/VerticalHorizontal_11.78571_0.10960.png"	n/a	"VerticalHorizontal"	"arrowleft"	"1151"	"TRUE"	"VerticalHorizontal"	"11.785710000"	"0.1096000000"	"1"	"58"
n/a	"html-keyboard-response"	"133"	"279914"	"0.0-5.0-2.0-0.40"	"6d077q"	"600"	"1366"	"chrome"	"109.0.0"	"FALSE"	"Windows 10"	"60.39"	"007"	n/a	n/a	n/a	n/a	n/a	n/a	"fixation"	n/a	n/a	n/a	n/a	"NULL"	n/a	"NULL"	"NULL"	"NULL"	"<p style=\"color: black; font-size: 80px; padding-left: 0%; padding-right: 9%; padding-top: 7%; padding-bottom: 5%\">+</p>"	"1158"	n/a	n/a	n/a	n/a	n/a	n/a	n/a	n/a	n/a
n/a	"image-keyboard-response"	"134"	"280198"	"0.0-5.0-2.0-1.40"	"6d077q"	"600"	"1366"	"chrome"	"109.0.0"	"FALSE"	"Windows 10"	"60.39"	"007"	n/a	n/a	n/a	n/a	n/a	n/a	"Trial"	n/a	n/a	n/a	"282"	"arrowleft"	n/a	"NULL"	"NULL"	"NULL"	"stimuli/VerticalHorizontal_3.30000_-0.0673.png"	n/a	"VerticalHorizontal"	"arrowright"	"1165"	"FALSE"	"VerticalHorizontal"	"3.3000000000"	"-0.067300000"	"1"	"59"
n/a	"html-keyboard-response"	"135"	"281321"	"0.0-5.0-2.0-0.41"	"6d077q"	"600"	"1366"	"chrome"	"109.0.0"	"FALSE"	"Windows 10"	"60.39"	"007"	n/a	n/a	n/a	n/a	n/a	n/a	"fixation"	n/a	n/a	n/a	n/a	"NULL"	n/a	"NULL"	"NULL"	"NULL"	"<p style=\"color: black; font-size: 80px; padding-left: 23%; padding-right: 33%; padding-top: 8%; padding-bottom: 9%\">+</p>"	"1099"	n/a	n/a	n/a	n/a	n/a	n/a	n/a	n/a	n/a
n/a	"image-keyboard-response"	"136"	"281604"	"0.0-5.0-2.0-1.41"	"6d077q"	"600"	"1366"	"chrome"	"109.0.0"	"FALSE"	"Windows 10"	"60.39"	"007"	n/a	n/a	n/a	n/a	n/a	n/a	"Trial"	n/a	n/a	n/a	"281"	"arrowleft"	n/a	"NULL"	"NULL"	"NULL"	"stimuli/VerticalHorizontal_-3.3000_0.16217.png"	n/a	"VerticalHorizontal"	"arrowleft"	"1123"	"TRUE"	"VerticalHorizontal"	"-3.300000000"	"0.1621700000"	"1"	"60"
n/a	"html-keyboard-response"	"137"	"282962"	"0.0-5.0-2.0-0.42"	"6d077q"	"600"	"1366"	"chrome"	"109.0.0"	"FALSE"	"Windows 10"	"60.39"	"007"	n/a	n/a	n/a	n/a	n/a	n/a	"fixation"	n/a	n/a	n/a	n/a	"NULL"	n/a	"NULL"	"NULL"	"NULL"	"<p style=\"color: black; font-size: 80px; padding-left: 42%; padding-right: 15%; padding-top: 1%; padding-bottom: 43%\">+</p>"	"1345"	n/a	n/a	n/a	n/a	n/a	n/a	n/a	n/a	n/a
n/a	"image-keyboard-response"	"138"	"283238"	"0.0-5.0-2.0-1.42"	"6d077q"	"600"	"1366"	"chrome"	"109.0.0"	"FALSE"	"Windows 10"	"60.39"	"007"	n/a	n/a	n/a	n/a	n/a	n/a	"Trial"	n/a	n/a	n/a	"275"	"arrowleft"	n/a	"NULL"	"NULL"	"NULL"	"stimuli/VerticalHorizontal_-3.3000_-0.16217.png"	n/a	"VerticalHorizontal"	"arrowright"	"1358"	"FALSE"	"VerticalHorizontal"	"-3.300000000"	"-0.162170000"	"1"	"61"
n/a	"html-keyboard-response"	"139"	"284650"	"0.0-5.0-2.0-0.43"	"6d077q"	"600"	"1366"	"chrome"	"109.0.0"	"FALSE"	"Windows 10"	"60.39"	"007"	n/a	n/a	n/a	n/a	n/a	n/a	"fixation"	n/a	n/a	n/a	n/a	"NULL"	n/a	"NULL"	"NULL"	"NULL"	"<p style=\"color: black; font-size: 80px; padding-left: 8%; padding-right: 13%; padding-top: 33%; padding-bottom: 27%\">+</p>"	"1398"	n/a	n/a	n/a	n/a	n/a	n/a	n/a	n/a	n/a
n/a	"image-keyboard-response"	"140"	"284967"	"0.0-5.0-2.0-1.43"	"6d077q"	"600"	"1366"	"chrome"	"109.0.0"	"FALSE"	"Windows 10"	"60.39"	"007"	n/a	n/a	n/a	n/a	n/a	n/a	"Trial"	n/a	n/a	n/a	"316"	"arrowright"	n/a	"NULL"	"NULL"	"NULL"	"stimuli/VerticalHorizontal_28.75714_-0.0673.png"	n/a	"VerticalHorizontal"	"arrowright"	"1412"	"TRUE"	"VerticalHorizontal"	"28.757140000"	"-0.067300000"	"1"	"62"
n/a	"html-keyboard-response"	"141"	"286002"	"0.0-5.0-2.0-0.44"	"6d077q"	"600"	"1366"	"chrome"	"109.0.0"	"FALSE"	"Windows 10"	"60.39"	"007"	n/a	n/a	n/a	n/a	n/a	n/a	"fixation"	n/a	n/a	n/a	n/a	"NULL"	n/a	"NULL"	"NULL"	"NULL"	"<p style=\"color: black; font-size: 80px; padding-left: 29%; padding-right: 35%; padding-top: 21%; padding-bottom: 42%\">+</p>"	"1025"	n/a	n/a	n/a	n/a	n/a	n/a	n/a	n/a	n/a
n/a	"image-keyboard-response"	"142"	"286333"	"0.0-5.0-2.0-1.44"	"6d077q"	"600"	"1366"	"chrome"	"109.0.0"	"FALSE"	"Windows 10"	"60.39"	"007"	n/a	n/a	n/a	n/a	n/a	n/a	"Trial"	n/a	n/a	n/a	"330"	"arrowright"	n/a	"NULL"	"NULL"	"NULL"	"stimuli/VerticalHorizontal_28.75714_-0.1096.png"	n/a	"VerticalHorizontal"	"arrowright"	"1035"	"TRUE"	"VerticalHorizontal"	"28.757140000"	"-0.109600000"	"1"	"63"
n/a	"html-keyboard-response"	"143"	"287666"	"0.0-5.0-2.0-0.45"	"6d077q"	"600"	"1366"	"chrome"	"109.0.0"	"FALSE"	"Windows 10"	"60.39"	"007"	n/a	n/a	n/a	n/a	n/a	n/a	"fixation"	n/a	n/a	n/a	n/a	"NULL"	n/a	"NULL"	"NULL"	"NULL"	"<p style=\"color: black; font-size: 80px; padding-left: 26%; padding-right: 25%; padding-top: 32%; padding-bottom: 42%\">+</p>"	"1325"	n/a	n/a	n/a	n/a	n/a	n/a	n/a	n/a	n/a
n/a	"image-keyboard-response"	"144"	"287963"	"0.0-5.0-2.0-1.45"	"6d077q"	"600"	"1366"	"chrome"	"109.0.0"	"FALSE"	"Windows 10"	"60.39"	"007"	n/a	n/a	n/a	n/a	n/a	n/a	"Trial"	n/a	n/a	n/a	"296"	"arrowright"	n/a	"NULL"	"NULL"	"NULL"	"stimuli/VerticalHorizontal_-28.75714_0.06730.png"	n/a	"VerticalHorizontal"	"arrowleft"	"1333"	"FALSE"	"VerticalHorizontal"	"-28.75714000"	"0.0673000000"	"1"	"64"
n/a	"html-keyboard-response"	"145"	"289293"	"0.0-5.0-2.0-0.46"	"6d077q"	"600"	"1366"	"chrome"	"109.0.0"	"FALSE"	"Windows 10"	"60.39"	"007"	n/a	n/a	n/a	n/a	n/a	n/a	"fixation"	n/a	n/a	n/a	n/a	"NULL"	n/a	"NULL"	"NULL"	"NULL"	"<p style=\"color: black; font-size: 80px; padding-left: 46%; padding-right: 29%; padding-top: 46%; padding-bottom: 23%\">+</p>"	"1317"	n/a	n/a	n/a	n/a	n/a	n/a	n/a	n/a	n/a
n/a	"image-keyboard-response"	"146"	"289541"	"0.0-5.0-2.0-1.46"	"6d077q"	"600"	"1366"	"chrome"	"109.0.0"	"FALSE"	"Windows 10"	"60.39"	"007"	n/a	n/a	n/a	n/a	n/a	n/a	"Trial"	n/a	n/a	n/a	"247"	"arrowleft"	n/a	"NULL"	"NULL"	"NULL"	"stimuli/VerticalHorizontal_-11.78571_-0.16217.png"	n/a	"VerticalHorizontal"	"arrowright"	"1330"	"FALSE"	"VerticalHorizontal"	"-11.78571000"	"-0.162170000"	"1"	"65"
n/a	"html-keyboard-response"	"147"	"290629"	"0.0-5.0-2.0-0.47"	"6d077q"	"600"	"1366"	"chrome"	"109.0.0"	"FALSE"	"Windows 10"	"60.39"	"007"	n/a	n/a	n/a	n/a	n/a	n/a	"fixation"	n/a	n/a	n/a	n/a	"NULL"	n/a	"NULL"	"NULL"	"NULL"	"<p style=\"color: black; font-size: 80px; padding-left: 47%; padding-right: 10%; padding-top: 40%; padding-bottom: 42%\">+</p>"	"1069"	n/a	n/a	n/a	n/a	n/a	n/a	n/a	n/a	n/a
n/a	"image-keyboard-response"	"148"	"290930"	"0.0-5.0-2.0-1.47"	"6d077q"	"600"	"1366"	"chrome"	"109.0.0"	"FALSE"	"Windows 10"	"60.39"	"007"	n/a	n/a	n/a	n/a	n/a	n/a	"Trial"	n/a	n/a	n/a	"300"	"arrowright"	n/a	"NULL"	"NULL"	"NULL"	"stimuli/VerticalHorizontal_3.30000_0.22500.png"	n/a	"VerticalHorizontal"	"arrowleft"	"1088"	"FALSE"	"VerticalHorizontal"	"3.3000000000"	"0.2250000000"	"1"	"66"
n/a	"html-keyboard-response"	"149"	"291950"	"0.0-5.0-2.0-0.48"	"6d077q"	"600"	"1366"	"chrome"	"109.0.0"	"FALSE"	"Windows 10"	"60.39"	"007"	n/a	n/a	n/a	n/a	n/a	n/a	"fixation"	n/a	n/a	n/a	n/a	"NULL"	n/a	"NULL"	"NULL"	"NULL"	"<p style=\"color: black; font-size: 80px; padding-left: 49%; padding-right: 24%; padding-top: 11%; padding-bottom: 34%\">+</p>"	"1002"	n/a	n/a	n/a	n/a	n/a	n/a	n/a	n/a	n/a
n/a	"image-keyboard-response"	"150"	"292209"	"0.0-5.0-2.0-1.48"	"6d077q"	"600"	"1366"	"chrome"	"109.0.0"	"FALSE"	"Windows 10"	"60.39"	"007"	n/a	n/a	n/a	n/a	n/a	n/a	"Trial"	n/a	n/a	n/a	"258"	"arrowleft"	n/a	"NULL"	"NULL"	"NULL"	"stimuli/VerticalHorizontal_20.27143_0.22500.png"	n/a	"VerticalHorizontal"	"arrowleft"	"1020"	"TRUE"	"VerticalHorizontal"	"20.271430000"	"0.2250000000"	"1"	"67"
n/a	"html-keyboard-response"	"151"	"293552"	"0.0-5.0-2.0-0.49"	"6d077q"	"600"	"1366"	"chrome"	"109.0.0"	"FALSE"	"Windows 10"	"60.39"	"007"	n/a	n/a	n/a	n/a	n/a	n/a	"fixation"	n/a	n/a	n/a	n/a	"NULL"	n/a	"NULL"	"NULL"	"NULL"	"<p style=\"color: black; font-size: 80px; padding-left: 6%; padding-right: 30%; padding-top: 1%; padding-bottom: 27%\">+</p>"	"1335"	n/a	n/a	n/a	n/a	n/a	n/a	n/a	n/a	n/a
n/a	"image-keyboard-response"	"152"	"293866"	"0.0-5.0-2.0-1.49"	"6d077q"	"600"	"1366"	"chrome"	"109.0.0"	"FALSE"	"Windows 10"	"60.39"	"007"	n/a	n/a	n/a	n/a	n/a	n/a	"Trial"	n/a	n/a	n/a	"312"	"arrowright"	n/a	"NULL"	"NULL"	"NULL"	"stimuli/VerticalHorizontal_28.75714_0.16217.png"	n/a	"VerticalHorizontal"	"arrowleft"	"1343"	"FALSE"	"VerticalHorizontal"	"28.757140000"	"0.1621700000"	"1"	"68"
n/a	"html-keyboard-response"	"153"	"295076"	"0.0-5.0-2.0-0.50"	"6d077q"	"600"	"1366"	"chrome"	"109.0.0"	"FALSE"	"Windows 10"	"60.39"	"007"	n/a	n/a	n/a	n/a	n/a	n/a	"fixation"	n/a	n/a	n/a	n/a	"NULL"	n/a	"NULL"	"NULL"	"NULL"	"<p style=\"color: black; font-size: 80px; padding-left: 49%; padding-right: 44%; padding-top: 1%; padding-bottom: 4%\">+</p>"	"1197"	n/a	n/a	n/a	n/a	n/a	n/a	n/a	n/a	n/a
n/a	"image-keyboard-response"	"154"	"295443"	"0.0-5.0-2.0-1.50"	"6d077q"	"600"	"1366"	"chrome"	"109.0.0"	"FALSE"	"Windows 10"	"60.39"	"007"	n/a	n/a	n/a	n/a	n/a	n/a	"Trial"	n/a	n/a	n/a	"366"	"arrowleft"	n/a	"NULL"	"NULL"	"NULL"	"stimuli/VerticalHorizontal_-28.75714_0.16217.png"	n/a	"VerticalHorizontal"	"arrowleft"	"1210"	"TRUE"	"VerticalHorizontal"	"-28.75714000"	"0.1621700000"	"1"	"69"
n/a	"html-keyboard-response"	"155"	"296693"	"0.0-5.0-2.0-0.51"	"6d077q"	"600"	"1366"	"chrome"	"109.0.0"	"FALSE"	"Windows 10"	"60.39"	"007"	n/a	n/a	n/a	n/a	n/a	n/a	"fixation"	n/a	n/a	n/a	n/a	"NULL"	n/a	"NULL"	"NULL"	"NULL"	"<p style=\"color: black; font-size: 80px; padding-left: 14%; padding-right: 34%; padding-top: 31%; padding-bottom: 38%\">+</p>"	"1227"	n/a	n/a	n/a	n/a	n/a	n/a	n/a	n/a	n/a
n/a	"image-keyboard-response"	"156"	"297007"	"0.0-5.0-2.0-1.51"	"6d077q"	"600"	"1366"	"chrome"	"109.0.0"	"FALSE"	"Windows 10"	"60.39"	"007"	n/a	n/a	n/a	n/a	n/a	n/a	"Trial"	n/a	n/a	n/a	"313"	"arrowleft"	n/a	"NULL"	"NULL"	"NULL"	"stimuli/VerticalHorizontal_-3.3000_-0.2250.png"	n/a	"VerticalHorizontal"	"arrowright"	"1250"	"FALSE"	"VerticalHorizontal"	"-3.300000000"	"-0.225000000"	"1"	"70"
n/a	"html-keyboard-response"	"157"	"298460"	"0.0-5.0-2.0-0.52"	"6d077q"	"600"	"1366"	"chrome"	"109.0.0"	"FALSE"	"Windows 10"	"60.39"	"007"	n/a	n/a	n/a	n/a	n/a	n/a	"fixation"	n/a	n/a	n/a	n/a	"NULL"	n/a	"NULL"	"NULL"	"NULL"	"<p style=\"color: black; font-size: 80px; padding-left: 8%; padding-right: 47%; padding-top: 2%; padding-bottom: 8%\">+</p>"	"1443"	n/a	n/a	n/a	n/a	n/a	n/a	n/a	n/a	n/a
n/a	"image-keyboard-response"	"158"	"298766"	"0.0-5.0-2.0-1.52"	"6d077q"	"600"	"1366"	"chrome"	"109.0.0"	"FALSE"	"Windows 10"	"60.39"	"007"	n/a	n/a	n/a	n/a	n/a	n/a	"Trial"	n/a	n/a	n/a	"303"	"arrowright"	n/a	"NULL"	"NULL"	"NULL"	"stimuli/VerticalHorizontal_3.30000_-0.1096.png"	n/a	"VerticalHorizontal"	"arrowright"	"1453"	"TRUE"	"VerticalHorizontal"	"3.3000000000"	"-0.109600000"	"1"	"71"
n/a	"html-keyboard-response"	"159"	"300203"	"0.0-5.0-2.0-0.53"	"6d077q"	"600"	"1366"	"chrome"	"109.0.0"	"FALSE"	"Windows 10"	"60.39"	"007"	n/a	n/a	n/a	n/a	n/a	n/a	"fixation"	n/a	n/a	n/a	n/a	"NULL"	n/a	"NULL"	"NULL"	"NULL"	"<p style=\"color: black; font-size: 80px; padding-left: 14%; padding-right: 4%; padding-top: 28%; padding-bottom: 6%\">+</p>"	"1422"	n/a	n/a	n/a	n/a	n/a	n/a	n/a	n/a	n/a
n/a	"image-keyboard-response"	"160"	"300579"	"0.0-5.0-2.0-1.53"	"6d077q"	"600"	"1366"	"chrome"	"109.0.0"	"FALSE"	"Windows 10"	"60.39"	"007"	n/a	n/a	n/a	n/a	n/a	n/a	"Trial"	n/a	n/a	n/a	"375"	"arrowleft"	n/a	"NULL"	"NULL"	"NULL"	"stimuli/VerticalHorizontal_-20.27143_0.22500.png"	n/a	"VerticalHorizontal"	"arrowleft"	"1437"	"TRUE"	"VerticalHorizontal"	"-20.27143000"	"0.2250000000"	"1"	"72"
n/a	"html-keyboard-response"	"161"	"301726"	"0.0-5.0-2.0-0.54"	"6d077q"	"600"	"1366"	"chrome"	"109.0.0"	"FALSE"	"Windows 10"	"60.39"	"007"	n/a	n/a	n/a	n/a	n/a	n/a	"fixation"	n/a	n/a	n/a	n/a	"NULL"	n/a	"NULL"	"NULL"	"NULL"	"<p style=\"color: black; font-size: 80px; padding-left: 17%; padding-right: 38%; padding-top: 16%; padding-bottom: 16%\">+</p>"	"1136"	n/a	n/a	n/a	n/a	n/a	n/a	n/a	n/a	n/a
n/a	"image-keyboard-response"	"162"	"302053"	"0.0-5.0-2.0-1.54"	"6d077q"	"600"	"1366"	"chrome"	"109.0.0"	"FALSE"	"Windows 10"	"60.39"	"007"	n/a	n/a	n/a	n/a	n/a	n/a	"Trial"	n/a	n/a	n/a	"326"	"arrowleft"	n/a	"NULL"	"NULL"	"NULL"	"stimuli/VerticalHorizontal_-11.78571_0.06730.png"	n/a	"VerticalHorizontal"	"arrowleft"	"1147"	"TRUE"	"VerticalHorizontal"	"-11.78571000"	"0.0673000000"	"1"	"73"
n/a	"html-keyboard-response"	"163"	"303391"	"0.0-5.0-2.0-0.55"	"6d077q"	"600"	"1366"	"chrome"	"109.0.0"	"FALSE"	"Windows 10"	"60.39"	"007"	n/a	n/a	n/a	n/a	n/a	n/a	"fixation"	n/a	n/a	n/a	n/a	"NULL"	n/a	"NULL"	"NULL"	"NULL"	"<p style=\"color: black; font-size: 80px; padding-left: 14%; padding-right: 3%; padding-top: 7%; padding-bottom: 46%\">+</p>"	"1333"	n/a	n/a	n/a	n/a	n/a	n/a	n/a	n/a	n/a
n/a	"image-keyboard-response"	"164"	"303696"	"0.0-5.0-2.0-1.55"	"6d077q"	"600"	"1366"	"chrome"	"109.0.0"	"FALSE"	"Windows 10"	"60.39"	"007"	n/a	n/a	n/a	n/a	n/a	n/a	"Trial"	n/a	n/a	n/a	"303"	"arrowleft"	n/a	"NULL"	"NULL"	"NULL"	"stimuli/VerticalHorizontal_-11.78571_-0.0673.png"	n/a	"VerticalHorizontal"	"arrowright"	"1338"	"FALSE"	"VerticalHorizontal"	"-11.78571000"	"-0.067300000"	"1"	"74"
n/a	"html-keyboard-response"	"165"	"304720"	"0.0-5.0-2.0-0.56"	"6d077q"	"600"	"1366"	"chrome"	"109.0.0"	"FALSE"	"Windows 10"	"60.39"	"007"	n/a	n/a	n/a	n/a	n/a	n/a	"fixation"	n/a	n/a	n/a	n/a	"NULL"	n/a	"NULL"	"NULL"	"NULL"	"<p style=\"color: black; font-size: 80px; padding-left: 47%; padding-right: 22%; padding-top: 37%; padding-bottom: 25%\">+</p>"	"1014"	n/a	n/a	n/a	n/a	n/a	n/a	n/a	n/a	n/a
n/a	"image-keyboard-response"	"166"	"305029"	"0.0-5.0-2.0-1.56"	"6d077q"	"600"	"1366"	"chrome"	"109.0.0"	"FALSE"	"Windows 10"	"60.39"	"007"	n/a	n/a	n/a	n/a	n/a	n/a	"Trial"	n/a	n/a	n/a	"308"	"arrowright"	n/a	"NULL"	"NULL"	"NULL"	"stimuli/VerticalHorizontal_3.30000_-0.16217.png"	n/a	"VerticalHorizontal"	"arrowright"	"1024"	"TRUE"	"VerticalHorizontal"	"3.3000000000"	"-0.162170000"	"1"	"75"
n/a	"html-keyboard-response"	"167"	"306290"	"0.0-5.0-2.0-0.57"	"6d077q"	"600"	"1366"	"chrome"	"109.0.0"	"FALSE"	"Windows 10"	"60.39"	"007"	n/a	n/a	n/a	n/a	n/a	n/a	"fixation"	n/a	n/a	n/a	n/a	"NULL"	n/a	"NULL"	"NULL"	"NULL"	"<p style=\"color: black; font-size: 80px; padding-left: 37%; padding-right: 11%; padding-top: 40%; padding-bottom: 39%\">+</p>"	"1253"	n/a	n/a	n/a	n/a	n/a	n/a	n/a	n/a	n/a
n/a	"image-keyboard-response"	"168"	"306668"	"0.0-5.0-2.0-1.57"	"6d077q"	"600"	"1366"	"chrome"	"109.0.0"	"FALSE"	"Windows 10"	"60.39"	"007"	n/a	n/a	n/a	n/a	n/a	n/a	"Trial"	n/a	n/a	n/a	"376"	"arrowleft"	n/a	"NULL"	"NULL"	"NULL"	"stimuli/VerticalHorizontal_11.78571_-0.0673.png"	n/a	"VerticalHorizontal"	"arrowright"	"1261"	"FALSE"	"VerticalHorizontal"	"11.785710000"	"-0.067300000"	"1"	"76"
n/a	"html-keyboard-response"	"169"	"307822"	"0.0-5.0-2.0-0.58"	"6d077q"	"600"	"1366"	"chrome"	"109.0.0"	"FALSE"	"Windows 10"	"60.39"	"007"	n/a	n/a	n/a	n/a	n/a	n/a	"fixation"	n/a	n/a	n/a	n/a	"NULL"	n/a	"NULL"	"NULL"	"NULL"	"<p style=\"color: black; font-size: 80px; padding-left: 16%; padding-right: 13%; padding-top: 33%; padding-bottom: 37%\">+</p>"	"1137"	n/a	n/a	n/a	n/a	n/a	n/a	n/a	n/a	n/a
n/a	"image-keyboard-response"	"170"	"308164"	"0.0-5.0-2.0-1.58"	"6d077q"	"600"	"1366"	"chrome"	"109.0.0"	"FALSE"	"Windows 10"	"60.39"	"007"	n/a	n/a	n/a	n/a	n/a	n/a	"Trial"	n/a	n/a	n/a	"341"	"arrowleft"	n/a	"NULL"	"NULL"	"NULL"	"stimuli/VerticalHorizontal_-3.3000_0.06730.png"	n/a	"VerticalHorizontal"	"arrowleft"	"1154"	"TRUE"	"VerticalHorizontal"	"-3.300000000"	"0.0673000000"	"1"	"77"
n/a	"html-keyboard-response"	"171"	"309651"	"0.0-5.0-2.0-0.59"	"6d077q"	"600"	"1366"	"chrome"	"109.0.0"	"FALSE"	"Windows 10"	"60.39"	"007"	n/a	n/a	n/a	n/a	n/a	n/a	"fixation"	n/a	n/a	n/a	n/a	"NULL"	n/a	"NULL"	"NULL"	"NULL"	"<p style=\"color: black; font-size: 80px; padding-left: 27%; padding-right: 31%; padding-top: 44%; padding-bottom: 49%\">+</p>"	"1467"	n/a	n/a	n/a	n/a	n/a	n/a	n/a	n/a	n/a
n/a	"image-keyboard-response"	"172"	"309952"	"0.0-5.0-2.0-1.59"	"6d077q"	"600"	"1366"	"chrome"	"109.0.0"	"FALSE"	"Windows 10"	"60.39"	"007"	n/a	n/a	n/a	n/a	n/a	n/a	"Trial"	n/a	n/a	n/a	"300"	"arrowleft"	n/a	"NULL"	"NULL"	"NULL"	"stimuli/VerticalHorizontal_11.78571_0.06730.png"	n/a	"VerticalHorizontal"	"arrowleft"	"1487"	"TRUE"	"VerticalHorizontal"	"11.785710000"	"0.0673000000"	"1"	"78"
n/a	"html-keyboard-response"	"173"	"311377"	"0.0-5.0-2.0-0.60"	"6d077q"	"600"	"1366"	"chrome"	"109.0.0"	"FALSE"	"Windows 10"	"60.39"	"007"	n/a	n/a	n/a	n/a	n/a	n/a	"fixation"	n/a	n/a	n/a	n/a	"NULL"	n/a	"NULL"	"NULL"	"NULL"	"<p style=\"color: black; font-size: 80px; padding-left: 32%; padding-right: 27%; padding-top: 49%; padding-bottom: 21%\">+</p>"	"1408"	n/a	n/a	n/a	n/a	n/a	n/a	n/a	n/a	n/a
n/a	"image-keyboard-response"	"174"	"311736"	"0.0-5.0-2.0-1.60"	"6d077q"	"600"	"1366"	"chrome"	"109.0.0"	"FALSE"	"Windows 10"	"60.39"	"007"	n/a	n/a	n/a	n/a	n/a	n/a	"Trial"	n/a	n/a	n/a	"358"	"arrowleft"	n/a	"NULL"	"NULL"	"NULL"	"stimuli/VerticalHorizontal_20.27143_0.06730.png"	n/a	"VerticalHorizontal"	"arrowleft"	"1425"	"TRUE"	"VerticalHorizontal"	"20.271430000"	"0.0673000000"	"1"	"79"
n/a	"html-keyboard-response"	"175"	"313051"	"0.0-5.0-2.0-0.61"	"6d077q"	"600"	"1366"	"chrome"	"109.0.0"	"FALSE"	"Windows 10"	"60.39"	"007"	n/a	n/a	n/a	n/a	n/a	n/a	"fixation"	n/a	n/a	n/a	n/a	"NULL"	n/a	"NULL"	"NULL"	"NULL"	"<p style=\"color: black; font-size: 80px; padding-left: 7%; padding-right: 3%; padding-top: 48%; padding-bottom: 5%\">+</p>"	"1302"	n/a	n/a	n/a	n/a	n/a	n/a	n/a	n/a	n/a
n/a	"image-keyboard-response"	"176"	"313379"	"0.0-5.0-2.0-1.61"	"6d077q"	"600"	"1366"	"chrome"	"109.0.0"	"FALSE"	"Windows 10"	"60.39"	"007"	n/a	n/a	n/a	n/a	n/a	n/a	"Trial"	n/a	n/a	n/a	"327"	"arrowleft"	n/a	"NULL"	"NULL"	"NULL"	"stimuli/VerticalHorizontal_-20.27143_-0.2250.png"	n/a	"VerticalHorizontal"	"arrowright"	"1315"	"FALSE"	"VerticalHorizontal"	"-20.27143000"	"-0.225000000"	"1"	"80"
n/a	"html-keyboard-response"	"177"	"314495"	"0.0-5.0-2.0-0.62"	"6d077q"	"600"	"1366"	"chrome"	"109.0.0"	"FALSE"	"Windows 10"	"60.39"	"007"	n/a	n/a	n/a	n/a	n/a	n/a	"fixation"	n/a	n/a	n/a	n/a	"NULL"	n/a	"NULL"	"NULL"	"NULL"	"<p style=\"color: black; font-size: 80px; padding-left: 8%; padding-right: 43%; padding-top: 1%; padding-bottom: 37%\">+</p>"	"1101"	n/a	n/a	n/a	n/a	n/a	n/a	n/a	n/a	n/a
n/a	"image-keyboard-response"	"178"	"314829"	"0.0-5.0-2.0-1.62"	"6d077q"	"600"	"1366"	"chrome"	"109.0.0"	"FALSE"	"Windows 10"	"60.39"	"007"	n/a	n/a	n/a	n/a	n/a	n/a	"Trial"	n/a	n/a	n/a	"333"	"arrowright"	n/a	"NULL"	"NULL"	"NULL"	"stimuli/VerticalHorizontal_28.75714_-0.2250.png"	n/a	"VerticalHorizontal"	"arrowright"	"1116"	"TRUE"	"VerticalHorizontal"	"28.757140000"	"-0.225000000"	"1"	"81"
n/a	"html-keyboard-response"	"179"	"316269"	"0.0-5.0-2.0-0.63"	"6d077q"	"600"	"1366"	"chrome"	"109.0.0"	"FALSE"	"Windows 10"	"60.39"	"007"	n/a	n/a	n/a	n/a	n/a	n/a	"fixation"	n/a	n/a	n/a	n/a	"NULL"	n/a	"NULL"	"NULL"	"NULL"	"<p style=\"color: black; font-size: 80px; padding-left: 48%; padding-right: 29%; padding-top: 21%; padding-bottom: 16%\">+</p>"	"1433"	n/a	n/a	n/a	n/a	n/a	n/a	n/a	n/a	n/a
n/a	"image-keyboard-response"	"180"	"316623"	"0.0-5.0-2.0-1.63"	"6d077q"	"600"	"1366"	"chrome"	"109.0.0"	"FALSE"	"Windows 10"	"60.39"	"007"	n/a	n/a	n/a	n/a	n/a	n/a	"Trial"	n/a	n/a	n/a	"352"	"arrowright"	n/a	"NULL"	"NULL"	"NULL"	"stimuli/VerticalHorizontal_3.30000_-0.2250.png"	n/a	"VerticalHorizontal"	"arrowright"	"1440"	"TRUE"	"VerticalHorizontal"	"3.3000000000"	"-0.225000000"	"1"	"82"
n/a	"html-button-response"	"181"	"319710"	"0.0-5.0-3.0"	"6d077q"	"600"	"1366"	"chrome"	"109.0.0"	"FALSE"	"Windows 10"	"60.39"	"007"	n/a	n/a	n/a	n/a	n/a	n/a	"block_results"	n/a	n/a	n/a	"3082"	"0"	n/a	"NULL"	"NULL"	"NULL"	"<p>Your score for this illusion is <p style=\"color: black; font-size: 48px; font-weight: bold;\">85.6 %</p><hr><p>Can you do better in the next illusion?</p>"	n/a	n/a	n/a	n/a	n/a	n/a	n/a	n/a	n/a	n/a
"TRUE"	"preload"	"182"	"319850"	"0.0-6.0-0.0"	"6d077q"	"600"	"1366"	"chrome"	"109.0.0"	"FALSE"	"Windows 10"	"60.39"	"007"	n/a	n/a	n/a	n/a	n/a	n/a	n/a	n/a	n/a	n/a	n/a	"NULL"	"FALSE"	"list()"	"list()"	"list()"	n/a	n/a	n/a	n/a	n/a	n/a	n/a	n/a	n/a	n/a	n/a
n/a	"html-keyboard-response"	"183"	"322689"	"0.0-6.0-1.0"	"6d077q"	"600"	"1366"	"chrome"	"109.0.0"	"FALSE"	"Windows 10"	"60.39"	"007"	n/a	n/a	n/a	n/a	n/a	n/a	n/a	n/a	n/a	n/a	"2838"	"enter"	n/a	"NULL"	"NULL"	"NULL"	"<p><b>Part 2/6</b></p><p>In this part, two horizontal red lines will appear one above the other.</p><p>Your task is to select which <b>line is longer</b> in length as fast as you can, without making errors.</p><p>Don't get distracted by the surrounding black arrows at the end of the red lines!</p><p>Press <b>the UP or the DOWN arrow</b> to indicate where is the longer <b>red line.</b></p><div style='float: center'><img src='materials/instructions/MullerLyer_Demo.png' height='300'></img><p><img src='utils/answer/answer_updown_keyboard.PNG' height='150'></img></p><p class='small'>In this example, the correct answer is the <b>UP arrow</b>.</p></div><p>Are you ready? <b>Press ENTER to start</b></p>"	n/a	n/a	n/a	n/a	n/a	n/a	n/a	n/a	n/a	n/a
n/a	"html-keyboard-response"	"184"	"324358"	"0.0-6.0-2.0-0.0"	"6d077q"	"600"	"1366"	"chrome"	"109.0.0"	"FALSE"	"Windows 10"	"60.39"	"007"	n/a	n/a	n/a	n/a	n/a	n/a	"fixation"	n/a	n/a	n/a	n/a	"NULL"	n/a	"NULL"	"NULL"	"NULL"	"<p style=\"color: black; font-size: 80px; padding-left: 21%; padding-right: 13%; padding-top: 47%; padding-bottom: 46%\">+</p>"	"1153"	n/a	n/a	n/a	n/a	n/a	n/a	n/a	n/a	n/a
n/a	"image-keyboard-response"	"185"	"324869"	"0.0-6.0-2.0-1.0"	"6d077q"	"600"	"1366"	"chrome"	"109.0.0"	"FALSE"	"Windows 10"	"60.39"	"007"	n/a	n/a	n/a	n/a	n/a	n/a	"Trial"	n/a	n/a	n/a	"509"	"arrowup"	n/a	"NULL"	"NULL"	"NULL"	"stimuli/MullerLyer_14.12857_-0.3500.png"	n/a	"MullerLyer"	"arrowdown"	"1669"	"FALSE"	"MullerLyer"	"14.128570000"	"-0.350000000"	"2"	"1"
n/a	"html-keyboard-response"	"186"	"326046"	"0.0-6.0-2.0-0.1"	"6d077q"	"600"	"1366"	"chrome"	"109.0.0"	"FALSE"	"Windows 10"	"60.39"	"007"	n/a	n/a	n/a	n/a	n/a	n/a	"fixation"	n/a	n/a	n/a	n/a	"NULL"	n/a	"NULL"	"NULL"	"NULL"	"<p style=\"color: black; font-size: 80px; padding-left: 28%; padding-right: 35%; padding-top: 32%; padding-bottom: 31%\">+</p>"	"1168"	n/a	n/a	n/a	n/a	n/a	n/a	n/a	n/a	n/a
n/a	"image-keyboard-response"	"187"	"326494"	"0.0-6.0-2.0-1.1"	"6d077q"	"600"	"1366"	"chrome"	"109.0.0"	"FALSE"	"Windows 10"	"60.39"	"007"	n/a	n/a	n/a	n/a	n/a	n/a	"Trial"	n/a	n/a	n/a	"446"	"arrowup"	n/a	"NULL"	"NULL"	"NULL"	"stimuli/MullerLyer_20.04286_-0.14541.png"	n/a	"MullerLyer"	"arrowdown"	"1177"	"FALSE"	"MullerLyer"	"20.042860000"	"-0.145410000"	"2"	"2"
n/a	"html-keyboard-response"	"188"	"327679"	"0.0-6.0-2.0-0.2"	"6d077q"	"600"	"1366"	"chrome"	"109.0.0"	"FALSE"	"Windows 10"	"60.39"	"007"	n/a	n/a	n/a	n/a	n/a	n/a	"fixation"	n/a	n/a	n/a	n/a	"NULL"	n/a	"NULL"	"NULL"	"NULL"	"<p style=\"color: black; font-size: 80px; padding-left: 20%; padding-right: 19%; padding-top: 28%; padding-bottom: 47%\">+</p>"	"1168"	n/a	n/a	n/a	n/a	n/a	n/a	n/a	n/a	n/a
n/a	"image-keyboard-response"	"189"	"328093"	"0.0-6.0-2.0-1.2"	"6d077q"	"600"	"1366"	"chrome"	"109.0.0"	"FALSE"	"Windows 10"	"60.39"	"007"	n/a	n/a	n/a	n/a	n/a	n/a	"Trial"	n/a	n/a	n/a	"413"	"arrowdown"	n/a	"NULL"	"NULL"	"NULL"	"stimuli/MullerLyer_20.04286_0.07627.png"	n/a	"MullerLyer"	"arrowup"	"1185"	"FALSE"	"MullerLyer"	"20.042860000"	"0.0762700000"	"2"	"3"
n/a	"html-keyboard-response"	"190"	"329539"	"0.0-6.0-2.0-0.3"	"6d077q"	"600"	"1366"	"chrome"	"109.0.0"	"FALSE"	"Windows 10"	"60.39"	"007"	n/a	n/a	n/a	n/a	n/a	n/a	"fixation"	n/a	n/a	n/a	n/a	"NULL"	n/a	"NULL"	"NULL"	"NULL"	"<p style=\"color: black; font-size: 80px; padding-left: 7%; padding-right: 31%; padding-top: 17%; padding-bottom: 15%\">+</p>"	"1429"	n/a	n/a	n/a	n/a	n/a	n/a	n/a	n/a	n/a
n/a	"image-keyboard-response"	"191"	"330010"	"0.0-6.0-2.0-1.3"	"6d077q"	"600"	"1366"	"chrome"	"109.0.0"	"FALSE"	"Windows 10"	"60.39"	"007"	n/a	n/a	n/a	n/a	n/a	n/a	"Trial"	n/a	n/a	n/a	"470"	"arrowdown"	n/a	"NULL"	"NULL"	"NULL"	"stimuli/MullerLyer_-2.3000_-0.14541.png"	n/a	"MullerLyer"	"arrowdown"	"1446"	"TRUE"	"MullerLyer"	"-2.300000000"	"-0.145410000"	"2"	"4"
n/a	"html-keyboard-response"	"192"	"331383"	"0.0-6.0-2.0-0.4"	"6d077q"	"600"	"1366"	"chrome"	"109.0.0"	"FALSE"	"Windows 10"	"60.39"	"007"	n/a	n/a	n/a	n/a	n/a	n/a	"fixation"	n/a	n/a	n/a	n/a	"NULL"	n/a	"NULL"	"NULL"	"NULL"	"<p style=\"color: black; font-size: 80px; padding-left: 16%; padding-right: 21%; padding-top: 37%; padding-bottom: 45%\">+</p>"	"1365"	n/a	n/a	n/a	n/a	n/a	n/a	n/a	n/a	n/a
n/a	"image-keyboard-response"	"193"	"331795"	"0.0-6.0-2.0-1.4"	"6d077q"	"600"	"1366"	"chrome"	"109.0.0"	"FALSE"	"Windows 10"	"60.39"	"007"	n/a	n/a	n/a	n/a	n/a	n/a	"Trial"	n/a	n/a	n/a	"410"	"arrowup"	n/a	"NULL"	"NULL"	"NULL"	"stimuli/MullerLyer_20.04286_0.23665.png"	n/a	"MullerLyer"	"arrowup"	"1373"	"TRUE"	"MullerLyer"	"20.042860000"	"0.2366500000"	"2"	"5"
n/a	"html-keyboard-response"	"194"	"333278"	"0.0-6.0-2.0-0.5"	"6d077q"	"600"	"1366"	"chrome"	"109.0.0"	"FALSE"	"Windows 10"	"60.39"	"007"	n/a	n/a	n/a	n/a	n/a	n/a	"fixation"	n/a	n/a	n/a	n/a	"NULL"	n/a	"NULL"	"NULL"	"NULL"	"<p style=\"color: black; font-size: 80px; padding-left: 13%; padding-right: 12%; padding-top: 45%; padding-bottom: 31%\">+</p>"	"1459"	n/a	n/a	n/a	n/a	n/a	n/a	n/a	n/a	n/a
n/a	"image-keyboard-response"	"195"	"333790"	"0.0-6.0-2.0-1.5"	"6d077q"	"600"	"1366"	"chrome"	"109.0.0"	"FALSE"	"Windows 10"	"60.39"	"007"	n/a	n/a	n/a	n/a	n/a	n/a	"Trial"	n/a	n/a	n/a	"515"	"arrowup"	n/a	"NULL"	"NULL"	"NULL"	"stimuli/MullerLyer_2.30000_0.14541.png"	n/a	"MullerLyer"	"arrowup"	"1483"	"TRUE"	"MullerLyer"	"2.3000000000"	"0.1454100000"	"2"	"6"
n/a	"html-keyboard-response"	"196"	"334982"	"0.0-6.0-2.0-0.6"	"6d077q"	"600"	"1366"	"chrome"	"109.0.0"	"FALSE"	"Windows 10"	"60.39"	"007"	n/a	n/a	n/a	n/a	n/a	n/a	"fixation"	n/a	n/a	n/a	n/a	"NULL"	n/a	"NULL"	"NULL"	"NULL"	"<p style=\"color: black; font-size: 80px; padding-left: 41%; padding-right: 40%; padding-top: 43%; padding-bottom: 7%\">+</p>"	"1183"	n/a	n/a	n/a	n/a	n/a	n/a	n/a	n/a	n/a
n/a	"image-keyboard-response"	"197"	"335392"	"0.0-6.0-2.0-1.6"	"6d077q"	"600"	"1366"	"chrome"	"109.0.0"	"FALSE"	"Windows 10"	"60.39"	"007"	n/a	n/a	n/a	n/a	n/a	n/a	"Trial"	n/a	n/a	n/a	"410"	"arrowup"	n/a	"NULL"	"NULL"	"NULL"	"stimuli/MullerLyer_-8.21429_0.14541.png"	n/a	"MullerLyer"	"arrowup"	"1192"	"TRUE"	"MullerLyer"	"-8.214290000"	"0.1454100000"	"2"	"7"
n/a	"html-keyboard-response"	"198"	"336429"	"0.0-6.0-2.0-0.7"	"6d077q"	"600"	"1366"	"chrome"	"109.0.0"	"FALSE"	"Windows 10"	"60.39"	"007"	n/a	n/a	n/a	n/a	n/a	n/a	"fixation"	n/a	n/a	n/a	n/a	"NULL"	n/a	"NULL"	"NULL"	"NULL"	"<p style=\"color: black; font-size: 80px; padding-left: 42%; padding-right: 1%; padding-top: 10%; padding-bottom: 40%\">+</p>"	"1024"	n/a	n/a	n/a	n/a	n/a	n/a	n/a	n/a	n/a
n/a	"image-keyboard-response"	"199"	"336852"	"0.0-6.0-2.0-1.7"	"6d077q"	"600"	"1366"	"chrome"	"109.0.0"	"FALSE"	"Windows 10"	"60.39"	"007"	n/a	n/a	n/a	n/a	n/a	n/a	"Trial"	n/a	n/a	n/a	"421"	"arrowup"	n/a	"NULL"	"NULL"	"NULL"	"stimuli/MullerLyer_14.12857_0.35000.png"	n/a	"MullerLyer"	"arrowup"	"1037"	"TRUE"	"MullerLyer"	"14.128570000"	"0.3500000000"	"2"	"8"
n/a	"html-keyboard-response"	"200"	"337929"	"0.0-6.0-2.0-0.8"	"6d077q"	"600"	"1366"	"chrome"	"109.0.0"	"FALSE"	"Windows 10"	"60.39"	"007"	n/a	n/a	n/a	n/a	n/a	n/a	"fixation"	n/a	n/a	n/a	n/a	"NULL"	n/a	"NULL"	"NULL"	"NULL"	"<p style=\"color: black; font-size: 80px; padding-left: 7%; padding-right: 35%; padding-top: 25%; padding-bottom: 11%\">+</p>"	"1067"	n/a	n/a	n/a	n/a	n/a	n/a	n/a	n/a	n/a
n/a	"image-keyboard-response"	"201"	"338383"	"0.0-6.0-2.0-1.8"	"6d077q"	"600"	"1366"	"chrome"	"109.0.0"	"FALSE"	"Windows 10"	"60.39"	"007"	n/a	n/a	n/a	n/a	n/a	n/a	"Trial"	n/a	n/a	n/a	"447"	"arrowup"	n/a	"NULL"	"NULL"	"NULL"	"stimuli/MullerLyer_2.30000_0.35000.png"	n/a	"MullerLyer"	"arrowup"	"1077"	"TRUE"	"MullerLyer"	"2.3000000000"	"0.3500000000"	"2"	"9"
n/a	"html-keyboard-response"	"202"	"339601"	"0.0-6.0-2.0-0.9"	"6d077q"	"600"	"1366"	"chrome"	"109.0.0"	"FALSE"	"Windows 10"	"60.39"	"007"	n/a	n/a	n/a	n/a	n/a	n/a	"fixation"	n/a	n/a	n/a	n/a	"NULL"	n/a	"NULL"	"NULL"	"NULL"	"<p style=\"color: black; font-size: 80px; padding-left: 1%; padding-right: 48%; padding-top: 2%; padding-bottom: 5%\">+</p>"	"1187"	n/a	n/a	n/a	n/a	n/a	n/a	n/a	n/a	n/a
n/a	"image-keyboard-response"	"203"	"339960"	"0.0-6.0-2.0-1.9"	"6d077q"	"600"	"1366"	"chrome"	"109.0.0"	"FALSE"	"Windows 10"	"60.39"	"007"	n/a	n/a	n/a	n/a	n/a	n/a	"Trial"	n/a	n/a	n/a	"357"	"arrowup"	n/a	"NULL"	"NULL"	"NULL"	"stimuli/MullerLyer_-2.3000_0.35000.png"	n/a	"MullerLyer"	"arrowup"	"1218"	"TRUE"	"MullerLyer"	"-2.300000000"	"0.3500000000"	"2"	"10"
n/a	"html-keyboard-response"	"204"	"341460"	"0.0-6.0-2.0-0.10"	"6d077q"	"600"	"1366"	"chrome"	"109.0.0"	"FALSE"	"Windows 10"	"60.39"	"007"	n/a	n/a	n/a	n/a	n/a	n/a	"fixation"	n/a	n/a	n/a	n/a	"NULL"	n/a	"NULL"	"NULL"	"NULL"	"<p style=\"color: black; font-size: 80px; padding-left: 34%; padding-right: 40%; padding-top: 41%; padding-bottom: 5%\">+</p>"	"1487"	n/a	n/a	n/a	n/a	n/a	n/a	n/a	n/a	n/a
n/a	"image-keyboard-response"	"205"	"342002"	"0.0-6.0-2.0-1.10"	"6d077q"	"600"	"1366"	"chrome"	"109.0.0"	"FALSE"	"Windows 10"	"60.39"	"007"	n/a	n/a	n/a	n/a	n/a	n/a	"Trial"	n/a	n/a	n/a	"540"	"arrowdown"	n/a	"NULL"	"NULL"	"NULL"	"stimuli/MullerLyer_2.30000_-0.07627.png"	n/a	"MullerLyer"	"arrowdown"	"1500"	"TRUE"	"MullerLyer"	"2.3000000000"	"-0.076270000"	"2"	"11"
n/a	"html-keyboard-response"	"206"	"343015"	"0.0-6.0-2.0-0.11"	"6d077q"	"600"	"1366"	"chrome"	"109.0.0"	"FALSE"	"Windows 10"	"60.39"	"007"	n/a	n/a	n/a	n/a	n/a	n/a	"fixation"	n/a	n/a	n/a	n/a	"NULL"	n/a	"NULL"	"NULL"	"NULL"	"<p style=\"color: black; font-size: 80px; padding-left: 41%; padding-right: 21%; padding-top: 40%; padding-bottom: 40%\">+</p>"	"1004"	n/a	n/a	n/a	n/a	n/a	n/a	n/a	n/a	n/a
n/a	"image-keyboard-response"	"207"	"343526"	"0.0-6.0-2.0-1.11"	"6d077q"	"600"	"1366"	"chrome"	"109.0.0"	"FALSE"	"Windows 10"	"60.39"	"007"	n/a	n/a	n/a	n/a	n/a	n/a	"Trial"	n/a	n/a	n/a	"510"	"arrowdown"	n/a	"NULL"	"NULL"	"NULL"	"stimuli/MullerLyer_-20.04286_-0.07627.png"	n/a	"MullerLyer"	"arrowdown"	"1013"	"TRUE"	"MullerLyer"	"-20.04286000"	"-0.076270000"	"2"	"12"
n/a	"html-keyboard-response"	"208"	"344760"	"0.0-6.0-2.0-0.12"	"6d077q"	"600"	"1366"	"chrome"	"109.0.0"	"FALSE"	"Windows 10"	"60.39"	"007"	n/a	n/a	n/a	n/a	n/a	n/a	"fixation"	n/a	n/a	n/a	n/a	"NULL"	n/a	"NULL"	"NULL"	"NULL"	"<p style=\"color: black; font-size: 80px; padding-left: 43%; padding-right: 46%; padding-top: 31%; padding-bottom: 32%\">+</p>"	"1194"	n/a	n/a	n/a	n/a	n/a	n/a	n/a	n/a	n/a
n/a	"image-keyboard-response"	"209"	"345207"	"0.0-6.0-2.0-1.12"	"6d077q"	"600"	"1366"	"chrome"	"109.0.0"	"FALSE"	"Windows 10"	"60.39"	"007"	n/a	n/a	n/a	n/a	n/a	n/a	"Trial"	n/a	n/a	n/a	"446"	"arrowdown"	n/a	"NULL"	"NULL"	"NULL"	"stimuli/MullerLyer_-20.04286_-0.14541.png"	n/a	"MullerLyer"	"arrowdown"	"1234"	"TRUE"	"MullerLyer"	"-20.04286000"	"-0.145410000"	"2"	"13"
n/a	"html-keyboard-response"	"210"	"346548"	"0.0-6.0-2.0-0.13"	"6d077q"	"600"	"1366"	"chrome"	"109.0.0"	"FALSE"	"Windows 10"	"60.39"	"007"	n/a	n/a	n/a	n/a	n/a	n/a	"fixation"	n/a	n/a	n/a	n/a	"NULL"	n/a	"NULL"	"NULL"	"NULL"	"<p style=\"color: black; font-size: 80px; padding-left: 49%; padding-right: 17%; padding-top: 22%; padding-bottom: 41%\">+</p>"	"1330"	n/a	n/a	n/a	n/a	n/a	n/a	n/a	n/a	n/a
n/a	"image-keyboard-response"	"211"	"347080"	"0.0-6.0-2.0-1.13"	"6d077q"	"600"	"1366"	"chrome"	"109.0.0"	"FALSE"	"Windows 10"	"60.39"	"007"	n/a	n/a	n/a	n/a	n/a	n/a	"Trial"	n/a	n/a	n/a	"530"	"arrowup"	n/a	"NULL"	"NULL"	"NULL"	"stimuli/MullerLyer_20.04286_-0.07627.png"	n/a	"MullerLyer"	"arrowdown"	"1341"	"FALSE"	"MullerLyer"	"20.042860000"	"-0.076270000"	"2"	"14"
n/a	"html-keyboard-response"	"212"	"348330"	"0.0-6.0-2.0-0.14"	"6d077q"	"600"	"1366"	"chrome"	"109.0.0"	"FALSE"	"Windows 10"	"60.39"	"007"	n/a	n/a	n/a	n/a	n/a	n/a	"fixation"	n/a	n/a	n/a	n/a	"NULL"	n/a	"NULL"	"NULL"	"NULL"	"<p style=\"color: black; font-size: 80px; padding-left: 35%; padding-right: 46%; padding-top: 13%; padding-bottom: 43%\">+</p>"	"1238"	n/a	n/a	n/a	n/a	n/a	n/a	n/a	n/a	n/a
n/a	"image-keyboard-response"	"213"	"348789"	"0.0-6.0-2.0-1.14"	"6d077q"	"600"	"1366"	"chrome"	"109.0.0"	"FALSE"	"Windows 10"	"60.39"	"007"	n/a	n/a	n/a	n/a	n/a	n/a	"Trial"	n/a	n/a	n/a	"457"	"arrowdown"	n/a	"NULL"	"NULL"	"NULL"	"stimuli/MullerLyer_-8.21429_-0.14541.png"	n/a	"MullerLyer"	"arrowdown"	"1250"	"TRUE"	"MullerLyer"	"-8.214290000"	"-0.145410000"	"2"	"15"
n/a	"html-keyboard-response"	"214"	"350284"	"0.0-6.0-2.0-0.15"	"6d077q"	"600"	"1366"	"chrome"	"109.0.0"	"FALSE"	"Windows 10"	"60.39"	"007"	n/a	n/a	n/a	n/a	n/a	n/a	"fixation"	n/a	n/a	n/a	n/a	"NULL"	n/a	"NULL"	"NULL"	"NULL"	"<p style=\"color: black; font-size: 80px; padding-left: 23%; padding-right: 44%; padding-top: 8%; padding-bottom: 13%\">+</p>"	"1487"	n/a	n/a	n/a	n/a	n/a	n/a	n/a	n/a	n/a
n/a	"image-keyboard-response"	"215"	"350692"	"0.0-6.0-2.0-1.15"	"6d077q"	"600"	"1366"	"chrome"	"109.0.0"	"FALSE"	"Windows 10"	"60.39"	"007"	n/a	n/a	n/a	n/a	n/a	n/a	"Trial"	n/a	n/a	n/a	"407"	"arrowup"	n/a	"NULL"	"NULL"	"NULL"	"stimuli/MullerLyer_-14.12857_0.35000.png"	n/a	"MullerLyer"	"arrowup"	"1495"	"TRUE"	"MullerLyer"	"-14.12857000"	"0.3500000000"	"2"	"16"
n/a	"html-keyboard-response"	"216"	"351860"	"0.0-6.0-2.0-0.16"	"6d077q"	"600"	"1366"	"chrome"	"109.0.0"	"FALSE"	"Windows 10"	"60.39"	"007"	n/a	n/a	n/a	n/a	n/a	n/a	"fixation"	n/a	n/a	n/a	n/a	"NULL"	n/a	"NULL"	"NULL"	"NULL"	"<p style=\"color: black; font-size: 80px; padding-left: 16%; padding-right: 30%; padding-top: 36%; padding-bottom: 40%\">+</p>"	"1157"	n/a	n/a	n/a	n/a	n/a	n/a	n/a	n/a	n/a
n/a	"image-keyboard-response"	"217"	"352255"	"0.0-6.0-2.0-1.16"	"6d077q"	"600"	"1366"	"chrome"	"109.0.0"	"FALSE"	"Windows 10"	"60.39"	"007"	n/a	n/a	n/a	n/a	n/a	n/a	"Trial"	n/a	n/a	n/a	"394"	"arrowup"	n/a	"NULL"	"NULL"	"NULL"	"stimuli/MullerLyer_14.12857_0.14541.png"	n/a	"MullerLyer"	"arrowup"	"1168"	"TRUE"	"MullerLyer"	"14.128570000"	"0.1454100000"	"2"	"17"
n/a	"html-keyboard-response"	"218"	"353548"	"0.0-6.0-2.0-0.17"	"6d077q"	"600"	"1366"	"chrome"	"109.0.0"	"FALSE"	"Windows 10"	"60.39"	"007"	n/a	n/a	n/a	n/a	n/a	n/a	"fixation"	n/a	n/a	n/a	n/a	"NULL"	n/a	"NULL"	"NULL"	"NULL"	"<p style=\"color: black; font-size: 80px; padding-left: 25%; padding-right: 35%; padding-top: 3%; padding-bottom: 11%\">+</p>"	"1285"	n/a	n/a	n/a	n/a	n/a	n/a	n/a	n/a	n/a
n/a	"image-keyboard-response"	"219"	"354007"	"0.0-6.0-2.0-1.17"	"6d077q"	"600"	"1366"	"chrome"	"109.0.0"	"FALSE"	"Windows 10"	"60.39"	"007"	n/a	n/a	n/a	n/a	n/a	n/a	"Trial"	n/a	n/a	n/a	"456"	"arrowup"	n/a	"NULL"	"NULL"	"NULL"	"stimuli/MullerLyer_-2.3000_0.07627.png"	n/a	"MullerLyer"	"arrowup"	"1293"	"TRUE"	"MullerLyer"	"-2.300000000"	"0.0762700000"	"2"	"18"
n/a	"html-keyboard-response"	"220"	"355037"	"0.0-6.0-2.0-0.18"	"6d077q"	"600"	"1366"	"chrome"	"109.0.0"	"FALSE"	"Windows 10"	"60.39"	"007"	n/a	n/a	n/a	n/a	n/a	n/a	"fixation"	n/a	n/a	n/a	n/a	"NULL"	n/a	"NULL"	"NULL"	"NULL"	"<p style=\"color: black; font-size: 80px; padding-left: 2%; padding-right: 13%; padding-top: 21%; padding-bottom: 39%\">+</p>"	"1012"	n/a	n/a	n/a	n/a	n/a	n/a	n/a	n/a	n/a
n/a	"image-keyboard-response"	"221"	"355437"	"0.0-6.0-2.0-1.18"	"6d077q"	"600"	"1366"	"chrome"	"109.0.0"	"FALSE"	"Windows 10"	"60.39"	"007"	n/a	n/a	n/a	n/a	n/a	n/a	"Trial"	n/a	n/a	n/a	"399"	"arrowup"	n/a	"NULL"	"NULL"	"NULL"	"stimuli/MullerLyer_20.04286_0.14541.png"	n/a	"MullerLyer"	"arrowup"	"1030"	"TRUE"	"MullerLyer"	"20.042860000"	"0.1454100000"	"2"	"19"
n/a	"html-keyboard-response"	"222"	"356506"	"0.0-6.0-2.0-0.19"	"6d077q"	"600"	"1366"	"chrome"	"109.0.0"	"FALSE"	"Windows 10"	"60.39"	"007"	n/a	n/a	n/a	n/a	n/a	n/a	"fixation"	n/a	n/a	n/a	n/a	"NULL"	n/a	"NULL"	"NULL"	"NULL"	"<p style=\"color: black; font-size: 80px; padding-left: 13%; padding-right: 35%; padding-top: 38%; padding-bottom: 14%\">+</p>"	"1064"	n/a	n/a	n/a	n/a	n/a	n/a	n/a	n/a	n/a
n/a	"image-keyboard-response"	"223"	"356855"	"0.0-6.0-2.0-1.19"	"6d077q"	"600"	"1366"	"chrome"	"109.0.0"	"FALSE"	"Windows 10"	"60.39"	"007"	n/a	n/a	n/a	n/a	n/a	n/a	"Trial"	n/a	n/a	n/a	"347"	"arrowup"	n/a	"NULL"	"NULL"	"NULL"	"stimuli/MullerLyer_14.12857_-0.07627.png"	n/a	"MullerLyer"	"arrowdown"	"1069"	"FALSE"	"MullerLyer"	"14.128570000"	"-0.076270000"	"2"	"20"
n/a	"html-keyboard-response"	"224"	"358295"	"0.0-6.0-2.0-0.20"	"6d077q"	"600"	"1366"	"chrome"	"109.0.0"	"FALSE"	"Windows 10"	"60.39"	"007"	n/a	n/a	n/a	n/a	n/a	n/a	"fixation"	n/a	n/a	n/a	n/a	"NULL"	n/a	"NULL"	"NULL"	"NULL"	"<p style=\"color: black; font-size: 80px; padding-left: 44%; padding-right: 11%; padding-top: 29%; padding-bottom: 24%\">+</p>"	"1419"	n/a	n/a	n/a	n/a	n/a	n/a	n/a	n/a	n/a
n/a	"image-keyboard-response"	"225"	"358648"	"0.0-6.0-2.0-1.20"	"6d077q"	"600"	"1366"	"chrome"	"109.0.0"	"FALSE"	"Windows 10"	"60.39"	"007"	n/a	n/a	n/a	n/a	n/a	n/a	"Trial"	n/a	n/a	n/a	"351"	"arrowup"	n/a	"NULL"	"NULL"	"NULL"	"stimuli/MullerLyer_-2.3000_-0.3500.png"	n/a	"MullerLyer"	"arrowdown"	"1440"	"FALSE"	"MullerLyer"	"-2.300000000"	"-0.350000000"	"2"	"21"
n/a	"html-keyboard-response"	"226"	"359937"	"0.0-6.0-2.0-0.21"	"6d077q"	"600"	"1366"	"chrome"	"109.0.0"	"FALSE"	"Windows 10"	"60.39"	"007"	n/a	n/a	n/a	n/a	n/a	n/a	"fixation"	n/a	n/a	n/a	n/a	"NULL"	n/a	"NULL"	"NULL"	"NULL"	"<p style=\"color: black; font-size: 80px; padding-left: 16%; padding-right: 23%; padding-top: 6%; padding-bottom: 40%\">+</p>"	"1278"	n/a	n/a	n/a	n/a	n/a	n/a	n/a	n/a	n/a
n/a	"image-keyboard-response"	"227"	"360930"	"0.0-6.0-2.0-1.21"	"6d077q"	"600"	"1366"	"chrome"	"109.0.0"	"FALSE"	"Windows 10"	"60.39"	"007"	n/a	n/a	n/a	n/a	n/a	n/a	"Trial"	n/a	n/a	n/a	"991"	"arrowup"	n/a	"NULL"	"NULL"	"NULL"	"stimuli/MullerLyer_14.12857_0.23665.png"	n/a	"MullerLyer"	"arrowup"	"1289"	"TRUE"	"MullerLyer"	"14.128570000"	"0.2366500000"	"2"	"22"
n/a	"html-keyboard-response"	"228"	"362148"	"0.0-6.0-2.0-0.22"	"6d077q"	"600"	"1366"	"chrome"	"109.0.0"	"FALSE"	"Windows 10"	"60.39"	"007"	n/a	n/a	n/a	n/a	n/a	n/a	"fixation"	n/a	n/a	n/a	n/a	"NULL"	n/a	"NULL"	"NULL"	"NULL"	"<p style=\"color: black; font-size: 80px; padding-left: 30%; padding-right: 36%; padding-top: 30%; padding-bottom: 29%\">+</p>"	"1202"	n/a	n/a	n/a	n/a	n/a	n/a	n/a	n/a	n/a
n/a	"image-keyboard-response"	"229"	"362515"	"0.0-6.0-2.0-1.22"	"6d077q"	"600"	"1366"	"chrome"	"109.0.0"	"FALSE"	"Windows 10"	"60.39"	"007"	n/a	n/a	n/a	n/a	n/a	n/a	"Trial"	n/a	n/a	n/a	"365"	"arrowup"	n/a	"NULL"	"NULL"	"NULL"	"stimuli/MullerLyer_-14.12857_-0.23665.png"	n/a	"MullerLyer"	"arrowdown"	"1218"	"FALSE"	"MullerLyer"	"-14.12857000"	"-0.236650000"	"2"	"23"
n/a	"html-keyboard-response"	"230"	"363688"	"0.0-6.0-2.0-0.23"	"6d077q"	"600"	"1366"	"chrome"	"109.0.0"	"FALSE"	"Windows 10"	"60.39"	"007"	n/a	n/a	n/a	n/a	n/a	n/a	"fixation"	n/a	n/a	n/a	n/a	"NULL"	n/a	"NULL"	"NULL"	"NULL"	"<p style=\"color: black; font-size: 80px; padding-left: 46%; padding-right: 33%; padding-top: 34%; padding-bottom: 18%\">+</p>"	"1165"	n/a	n/a	n/a	n/a	n/a	n/a	n/a	n/a	n/a
n/a	"image-keyboard-response"	"231"	"364137"	"0.0-6.0-2.0-1.23"	"6d077q"	"600"	"1366"	"chrome"	"109.0.0"	"FALSE"	"Windows 10"	"60.39"	"007"	n/a	n/a	n/a	n/a	n/a	n/a	"Trial"	n/a	n/a	n/a	"447"	"arrowup"	n/a	"NULL"	"NULL"	"NULL"	"stimuli/MullerLyer_-20.04286_0.07627.png"	n/a	"MullerLyer"	"arrowup"	"1173"	"TRUE"	"MullerLyer"	"-20.04286000"	"0.0762700000"	"2"	"24"
n/a	"html-keyboard-response"	"232"	"365526"	"0.0-6.0-2.0-0.24"	"6d077q"	"600"	"1366"	"chrome"	"109.0.0"	"FALSE"	"Windows 10"	"60.39"	"007"	n/a	n/a	n/a	n/a	n/a	n/a	"fixation"	n/a	n/a	n/a	n/a	"NULL"	n/a	"NULL"	"NULL"	"NULL"	"<p style=\"color: black; font-size: 80px; padding-left: 22%; padding-right: 20%; padding-top: 20%; padding-bottom: 44%\">+</p>"	"1351"	n/a	n/a	n/a	n/a	n/a	n/a	n/a	n/a	n/a
n/a	"image-keyboard-response"	"233"	"365922"	"0.0-6.0-2.0-1.24"	"6d077q"	"600"	"1366"	"chrome"	"109.0.0"	"FALSE"	"Windows 10"	"60.39"	"007"	n/a	n/a	n/a	n/a	n/a	n/a	"Trial"	n/a	n/a	n/a	"394"	"arrowup"	n/a	"NULL"	"NULL"	"NULL"	"stimuli/MullerLyer_-20.04286_0.35000.png"	n/a	"MullerLyer"	"arrowup"	"1389"	"TRUE"	"MullerLyer"	"-20.04286000"	"0.3500000000"	"2"	"25"
n/a	"html-keyboard-response"	"234"	"367009"	"0.0-6.0-2.0-0.25"	"6d077q"	"600"	"1366"	"chrome"	"109.0.0"	"FALSE"	"Windows 10"	"60.39"	"007"	n/a	n/a	n/a	n/a	n/a	n/a	"fixation"	n/a	n/a	n/a	n/a	"NULL"	n/a	"NULL"	"NULL"	"NULL"	"<p style=\"color: black; font-size: 80px; padding-left: 38%; padding-right: 7%; padding-top: 4%; padding-bottom: 50%\">+</p>"	"1072"	n/a	n/a	n/a	n/a	n/a	n/a	n/a	n/a	n/a
n/a	"image-keyboard-response"	"235"	"367365"	"0.0-6.0-2.0-1.25"	"6d077q"	"600"	"1366"	"chrome"	"109.0.0"	"FALSE"	"Windows 10"	"60.39"	"007"	n/a	n/a	n/a	n/a	n/a	n/a	"Trial"	n/a	n/a	n/a	"355"	"arrowup"	n/a	"NULL"	"NULL"	"NULL"	"stimuli/MullerLyer_-8.21429_0.07627.png"	n/a	"MullerLyer"	"arrowup"	"1087"	"TRUE"	"MullerLyer"	"-8.214290000"	"0.0762700000"	"2"	"26"
n/a	"html-keyboard-response"	"236"	"368423"	"0.0-6.0-2.0-0.26"	"6d077q"	"600"	"1366"	"chrome"	"109.0.0"	"FALSE"	"Windows 10"	"60.39"	"007"	n/a	n/a	n/a	n/a	n/a	n/a	"fixation"	n/a	n/a	n/a	n/a	"NULL"	n/a	"NULL"	"NULL"	"NULL"	"<p style=\"color: black; font-size: 80px; padding-left: 0%; padding-right: 25%; padding-top: 30%; padding-bottom: 15%\">+</p>"	"1044"	n/a	n/a	n/a	n/a	n/a	n/a	n/a	n/a	n/a
n/a	"image-keyboard-response"	"237"	"368782"	"0.0-6.0-2.0-1.26"	"6d077q"	"600"	"1366"	"chrome"	"109.0.0"	"FALSE"	"Windows 10"	"60.39"	"007"	n/a	n/a	n/a	n/a	n/a	n/a	"Trial"	n/a	n/a	n/a	"358"	"arrowup"	n/a	"NULL"	"NULL"	"NULL"	"stimuli/MullerLyer_8.21429_-0.23665.png"	n/a	"MullerLyer"	"arrowdown"	"1058"	"FALSE"	"MullerLyer"	"8.2142900000"	"-0.236650000"	"2"	"27"
n/a	"html-keyboard-response"	"238"	"370236"	"0.0-6.0-2.0-0.27"	"6d077q"	"600"	"1366"	"chrome"	"109.0.0"	"FALSE"	"Windows 10"	"60.39"	"007"	n/a	n/a	n/a	n/a	n/a	n/a	"fixation"	n/a	n/a	n/a	n/a	"NULL"	n/a	"NULL"	"NULL"	"NULL"	"<p style=\"color: black; font-size: 80px; padding-left: 6%; padding-right: 46%; padding-top: 41%; padding-bottom: 35%\">+</p>"	"1448"	n/a	n/a	n/a	n/a	n/a	n/a	n/a	n/a	n/a
n/a	"image-keyboard-response"	"239"	"370603"	"0.0-6.0-2.0-1.27"	"6d077q"	"600"	"1366"	"chrome"	"109.0.0"	"FALSE"	"Windows 10"	"60.39"	"007"	n/a	n/a	n/a	n/a	n/a	n/a	"Trial"	n/a	n/a	n/a	"366"	"arrowup"	n/a	"NULL"	"NULL"	"NULL"	"stimuli/MullerLyer_20.04286_-0.3500.png"	n/a	"MullerLyer"	"arrowdown"	"1454"	"FALSE"	"MullerLyer"	"20.042860000"	"-0.350000000"	"2"	"28"
n/a	"html-keyboard-response"	"240"	"371870"	"0.0-6.0-2.0-0.28"	"6d077q"	"600"	"1366"	"chrome"	"109.0.0"	"FALSE"	"Windows 10"	"60.39"	"007"	n/a	n/a	n/a	n/a	n/a	n/a	"fixation"	n/a	n/a	n/a	n/a	"NULL"	n/a	"NULL"	"NULL"	"NULL"	"<p style=\"color: black; font-size: 80px; padding-left: 48%; padding-right: 29%; padding-top: 35%; padding-bottom: 12%\">+</p>"	"1257"	n/a	n/a	n/a	n/a	n/a	n/a	n/a	n/a	n/a
n/a	"image-keyboard-response"	"241"	"372229"	"0.0-6.0-2.0-1.28"	"6d077q"	"600"	"1366"	"chrome"	"109.0.0"	"FALSE"	"Windows 10"	"60.39"	"007"	n/a	n/a	n/a	n/a	n/a	n/a	"Trial"	n/a	n/a	n/a	"358"	"arrowup"	n/a	"NULL"	"NULL"	"NULL"	"stimuli/MullerLyer_-2.3000_0.14541.png"	n/a	"MullerLyer"	"arrowup"	"1267"	"TRUE"	"MullerLyer"	"-2.300000000"	"0.1454100000"	"2"	"29"
n/a	"html-keyboard-response"	"242"	"373409"	"0.0-6.0-2.0-0.29"	"6d077q"	"600"	"1366"	"chrome"	"109.0.0"	"FALSE"	"Windows 10"	"60.39"	"007"	n/a	n/a	n/a	n/a	n/a	n/a	"fixation"	n/a	n/a	n/a	n/a	"NULL"	n/a	"NULL"	"NULL"	"NULL"	"<p style=\"color: black; font-size: 80px; padding-left: 2%; padding-right: 46%; padding-top: 32%; padding-bottom: 22%\">+</p>"	"1166"	n/a	n/a	n/a	n/a	n/a	n/a	n/a	n/a	n/a
n/a	"image-keyboard-response"	"243"	"373732"	"0.0-6.0-2.0-1.29"	"6d077q"	"600"	"1366"	"chrome"	"109.0.0"	"FALSE"	"Windows 10"	"60.39"	"007"	n/a	n/a	n/a	n/a	n/a	n/a	"Trial"	n/a	n/a	n/a	"322"	"arrowup"	n/a	"NULL"	"NULL"	"NULL"	"stimuli/MullerLyer_-2.3000_-0.07627.png"	n/a	"MullerLyer"	"arrowdown"	"1180"	"FALSE"	"MullerLyer"	"-2.300000000"	"-0.076270000"	"2"	"30"
n/a	"html-keyboard-response"	"244"	"375230"	"0.0-6.0-2.0-0.30"	"6d077q"	"600"	"1366"	"chrome"	"109.0.0"	"FALSE"	"Windows 10"	"60.39"	"007"	n/a	n/a	n/a	n/a	n/a	n/a	"fixation"	n/a	n/a	n/a	n/a	"NULL"	n/a	"NULL"	"NULL"	"NULL"	"<p style=\"color: black; font-size: 80px; padding-left: 25%; padding-right: 15%; padding-top: 43%; padding-bottom: 4%\">+</p>"	"1482"	n/a	n/a	n/a	n/a	n/a	n/a	n/a	n/a	n/a
n/a	"image-keyboard-response"	"245"	"375637"	"0.0-6.0-2.0-1.30"	"6d077q"	"600"	"1366"	"chrome"	"109.0.0"	"FALSE"	"Windows 10"	"60.39"	"007"	n/a	n/a	n/a	n/a	n/a	n/a	"Trial"	n/a	n/a	n/a	"407"	"arrowdown"	n/a	"NULL"	"NULL"	"NULL"	"stimuli/MullerLyer_14.12857_0.07627.png"	n/a	"MullerLyer"	"arrowup"	"1498"	"FALSE"	"MullerLyer"	"14.128570000"	"0.0762700000"	"2"	"31"
n/a	"html-keyboard-response"	"246"	"376949"	"0.0-6.0-2.0-0.31"	"6d077q"	"600"	"1366"	"chrome"	"109.0.0"	"FALSE"	"Windows 10"	"60.39"	"007"	n/a	n/a	n/a	n/a	n/a	n/a	"fixation"	n/a	n/a	n/a	n/a	"NULL"	n/a	"NULL"	"NULL"	"NULL"	"<p style=\"color: black; font-size: 80px; padding-left: 19%; padding-right: 19%; padding-top: 26%; padding-bottom: 45%\">+</p>"	"1299"	n/a	n/a	n/a	n/a	n/a	n/a	n/a	n/a	n/a
n/a	"image-keyboard-response"	"247"	"377306"	"0.0-6.0-2.0-1.31"	"6d077q"	"600"	"1366"	"chrome"	"109.0.0"	"FALSE"	"Windows 10"	"60.39"	"007"	n/a	n/a	n/a	n/a	n/a	n/a	"Trial"	n/a	n/a	n/a	"356"	"arrowup"	n/a	"NULL"	"NULL"	"NULL"	"stimuli/MullerLyer_20.04286_0.35000.png"	n/a	"MullerLyer"	"arrowup"	"1312"	"TRUE"	"MullerLyer"	"20.042860000"	"0.3500000000"	"2"	"32"
n/a	"html-keyboard-response"	"248"	"378566"	"0.0-6.0-2.0-0.32"	"6d077q"	"600"	"1366"	"chrome"	"109.0.0"	"FALSE"	"Windows 10"	"60.39"	"007"	n/a	n/a	n/a	n/a	n/a	n/a	"fixation"	n/a	n/a	n/a	n/a	"NULL"	n/a	"NULL"	"NULL"	"NULL"	"<p style=\"color: black; font-size: 80px; padding-left: 12%; padding-right: 20%; padding-top: 14%; padding-bottom: 6%\">+</p>"	"1244"	n/a	n/a	n/a	n/a	n/a	n/a	n/a	n/a	n/a
n/a	"image-keyboard-response"	"249"	"379022"	"0.0-6.0-2.0-1.32"	"6d077q"	"600"	"1366"	"chrome"	"109.0.0"	"FALSE"	"Windows 10"	"60.39"	"007"	n/a	n/a	n/a	n/a	n/a	n/a	"Trial"	n/a	n/a	n/a	"455"	"arrowup"	n/a	"NULL"	"NULL"	"NULL"	"stimuli/MullerLyer_14.12857_-0.23665.png"	n/a	"MullerLyer"	"arrowdown"	"1260"	"FALSE"	"MullerLyer"	"14.128570000"	"-0.236650000"	"2"	"33"
