"success"	"trial_type"	"trial_index"	"time_elapsed"	"internal_node_id"	"participant_id"	"screen_height"	"screen_width"	"browser"	"browser_version"	"mobile"	"os"	"vsync_rate"	"subject_id"	"width"	"height"	"webaudio"	"fullscreen"	"webcam"	"microphone"	"screen"	"version"	"date"	"time"	"rt"	"response"	"timeout"	"failed_images"	"failed_audio"	"failed_video"	"stimulus"	"trial_duration"	"block"	"correct_response"	"prestimulus_duration"	"correct"	"type"	"illusion_strength"	"illusion_difference"	"block_number"	"trial_number"
"TRUE"	"fullscreen"	"0"	"1241"	"0.0-0.0"	"ge76zf"	"600"	"1366"	"chrome"	"108.0.0"	"FALSE"	"Windows 10"	"61.01"	"143"	n/a	n/a	n/a	n/a	n/a	n/a	n/a	n/a	n/a	n/a	n/a	"NULL"	n/a	"NULL"	"NULL"	"NULL"	n/a	n/a	n/a	n/a	n/a	n/a	n/a	n/a	n/a	n/a	n/a
n/a	"browser-check"	"1"	"2256"	"0.0-1.0"	"ge76zf"	"600"	"1366"	"chrome"	"108.0.0"	"FALSE"	"Windows 10"	"61.01"	"143"	"1366"	"600"	"TRUE"	"TRUE"	"TRUE"	"TRUE"	"browser_info"	"1.0"	"04/01/2023"	"14:59:46"	n/a	"NULL"	n/a	"NULL"	"NULL"	"NULL"	n/a	n/a	n/a	n/a	n/a	n/a	n/a	n/a	n/a	n/a	n/a
n/a	"survey-text"	"2"	"6480"	"0.0-2.0"	"ge76zf"	"600"	"1366"	"chrome"	"108.0.0"	"FALSE"	"Windows 10"	"61.01"	"143"	n/a	n/a	n/a	n/a	n/a	n/a	"subject_id"	n/a	n/a	n/a	"4220"	"list(subject_id = \"143\")"	n/a	"NULL"	"NULL"	"NULL"	n/a	n/a	n/a	n/a	n/a	n/a	n/a	n/a	n/a	n/a	n/a
"TRUE"	"preload"	"3"	"6487"	"0.0-3.0"	"ge76zf"	"600"	"1366"	"chrome"	"108.0.0"	"FALSE"	"Windows 10"	"61.01"	"143"	n/a	n/a	n/a	n/a	n/a	n/a	n/a	n/a	n/a	n/a	n/a	"NULL"	"FALSE"	"list()"	"list()"	"list()"	n/a	n/a	n/a	n/a	n/a	n/a	n/a	n/a	n/a	n/a	n/a
n/a	"html-button-response"	"4"	"7576"	"0.0-4.0-0.0"	"ge76zf"	"600"	"1366"	"chrome"	"108.0.0"	"FALSE"	"Windows 10"	"61.01"	"143"	n/a	n/a	n/a	n/a	n/a	n/a	"illusion_instructions"	n/a	n/a	n/a	"1087"	"0"	n/a	"NULL"	"NULL"	"NULL"	"<p><b>Illusion Game</b></p><p>In this game of speed and reflex, you will need to make <b>visual judgments</b> (for instance, which circle is the biggest, or which line is the longest), as fast and as correctly as possible, while <b>resisting different visual illusions</b>.</p><p>We are going to start with some examples of all the illusions you will encounter in the game.</p>"	n/a	n/a	n/a	n/a	n/a	n/a	n/a	n/a	n/a	n/a
"TRUE"	"preload"	"5"	"7586"	"0.0-4.0-1.0-0.0"	"ge76zf"	"600"	"1366"	"chrome"	"108.0.0"	"FALSE"	"Windows 10"	"61.01"	"143"	n/a	n/a	n/a	n/a	n/a	n/a	n/a	n/a	n/a	n/a	n/a	"NULL"	"FALSE"	"list()"	"list()"	"list()"	n/a	n/a	n/a	n/a	n/a	n/a	n/a	n/a	n/a	n/a	n/a
n/a	"html-keyboard-response"	"6"	"9262"	"0.0-4.0-1.0-1.0"	"ge76zf"	"600"	"1366"	"chrome"	"108.0.0"	"FALSE"	"Windows 10"	"61.01"	"143"	n/a	n/a	n/a	n/a	n/a	n/a	n/a	n/a	n/a	n/a	"1674"	"enter"	n/a	"NULL"	"NULL"	"NULL"	"<p><b>Practice</b></p><p>In this part, two red circles will appear side by side on the screen.</p><p>Your task is to select which <b>red circle is bigger</b> in size as fast as you can, without making errors.</p><p>Don't get distracted by the surrounding black circles around the red circles!</p><p>Press <b>the LEFT or the RIGHT arrow</b> to indicate which is the bigger <b>red circle.</b></p><div style='float: center'><img src='materials/instructions/Ebbinghaus_Demo.png' height='300'></img><p><img src='utils/answer/answer_leftright_keyboard.PNG' height='150'></img></p><p class='small'>In this example, the correct answer is the <b>LEFT arrow</b>.</p></div><p>Are you ready? <b>Press ENTER to start</b></p>"	n/a	n/a	n/a	n/a	n/a	n/a	n/a	n/a	n/a	n/a
n/a	"html-keyboard-response"	"7"	"10946"	"0.0-4.0-1.0-2.0-0.0"	"ge76zf"	"600"	"1366"	"chrome"	"108.0.0"	"FALSE"	"Windows 10"	"61.01"	"143"	n/a	n/a	n/a	n/a	n/a	n/a	"fixation"	n/a	n/a	n/a	n/a	"NULL"	n/a	"NULL"	"NULL"	"NULL"	"<p style=\"color: black; font-size: 80px; padding-left: 29%; padding-right: 14%; padding-top: 12%; padding-bottom: 18%\">+</p>"	"1166"	n/a	n/a	n/a	n/a	n/a	n/a	n/a	n/a	n/a
n/a	"image-keyboard-response"	"8"	"13855"	"0.0-4.0-1.0-2.0-1.0"	"ge76zf"	"600"	"1366"	"chrome"	"108.0.0"	"FALSE"	"Windows 10"	"61.01"	"143"	n/a	n/a	n/a	n/a	n/a	n/a	"Trial"	n/a	n/a	n/a	"2893"	"arrowright"	n/a	"NULL"	"NULL"	"NULL"	"stimuli/Ebbinghaus_-100000_-1.4000.png"	n/a	"Ebbinghaus"	"arrowright"	"1684"	"TRUE"	"Ebbinghaus"	"-10000000000"	"-1.400000000"	"1"	"1"
n/a	"html-keyboard-response"	"9"	"14893"	"0.0-4.0-1.0-2.0-0.1"	"ge76zf"	"600"	"1366"	"chrome"	"108.0.0"	"FALSE"	"Windows 10"	"61.01"	"143"	n/a	n/a	n/a	n/a	n/a	n/a	"fixation"	n/a	n/a	n/a	n/a	"NULL"	n/a	"NULL"	"NULL"	"NULL"	"<p style=\"color: black; font-size: 80px; padding-left: 34%; padding-right: 1%; padding-top: 26%; padding-bottom: 8%\">+</p>"	"1030"	n/a	n/a	n/a	n/a	n/a	n/a	n/a	n/a	n/a
n/a	"image-keyboard-response"	"10"	"16452"	"0.0-4.0-1.0-2.0-1.1"	"ge76zf"	"600"	"1366"	"chrome"	"108.0.0"	"FALSE"	"Windows 10"	"61.01"	"143"	n/a	n/a	n/a	n/a	n/a	n/a	"Trial"	n/a	n/a	n/a	"1557"	"arrowleft"	n/a	"NULL"	"NULL"	"NULL"	"stimuli/Ebbinghaus_1000000_1.40000.png"	n/a	"Ebbinghaus"	"arrowleft"	"1038"	"TRUE"	"Ebbinghaus"	"100000000000"	"1.4000000000"	"1"	"2"
n/a	"html-keyboard-response"	"11"	"17464"	"0.0-4.0-1.0-2.0-0.2"	"ge76zf"	"600"	"1366"	"chrome"	"108.0.0"	"FALSE"	"Windows 10"	"61.01"	"143"	n/a	n/a	n/a	n/a	n/a	n/a	"fixation"	n/a	n/a	n/a	n/a	"NULL"	n/a	"NULL"	"NULL"	"NULL"	"<p style=\"color: black; font-size: 80px; padding-left: 16%; padding-right: 49%; padding-top: 23%; padding-bottom: 48%\">+</p>"	"1004"	n/a	n/a	n/a	n/a	n/a	n/a	n/a	n/a	n/a
n/a	"image-keyboard-response"	"12"	"18002"	"0.0-4.0-1.0-2.0-1.2"	"ge76zf"	"600"	"1366"	"chrome"	"108.0.0"	"FALSE"	"Windows 10"	"61.01"	"143"	n/a	n/a	n/a	n/a	n/a	n/a	"Trial"	n/a	n/a	n/a	"536"	"arrowright"	n/a	"NULL"	"NULL"	"NULL"	"stimuli/Ebbinghaus_0000000_-1.4000.png"	n/a	"Ebbinghaus"	"arrowright"	"1012"	"TRUE"	"Ebbinghaus"	"000000000000"	"-1.400000000"	"1"	"3"
n/a	"html-keyboard-response"	"13"	"19483"	"0.0-4.0-1.0-2.0-0.3"	"ge76zf"	"600"	"1366"	"chrome"	"108.0.0"	"FALSE"	"Windows 10"	"61.01"	"143"	n/a	n/a	n/a	n/a	n/a	n/a	"fixation"	n/a	n/a	n/a	n/a	"NULL"	n/a	"NULL"	"NULL"	"NULL"	"<p style=\"color: black; font-size: 80px; padding-left: 35%; padding-right: 43%; padding-top: 49%; padding-bottom: 2%\">+</p>"	"1459"	n/a	n/a	n/a	n/a	n/a	n/a	n/a	n/a	n/a
n/a	"image-keyboard-response"	"14"	"20387"	"0.0-4.0-1.0-2.0-1.3"	"ge76zf"	"600"	"1366"	"chrome"	"108.0.0"	"FALSE"	"Windows 10"	"61.01"	"143"	n/a	n/a	n/a	n/a	n/a	n/a	"Trial"	n/a	n/a	n/a	"903"	"arrowleft"	n/a	"NULL"	"NULL"	"NULL"	"stimuli/Ebbinghaus_0000000_1.40000.png"	n/a	"Ebbinghaus"	"arrowleft"	"1481"	"TRUE"	"Ebbinghaus"	"000000000000"	"1.4000000000"	"1"	"4"
n/a	"html-keyboard-response"	"15"	"21809"	"0.0-4.0-1.0-2.0-0.4"	"ge76zf"	"600"	"1366"	"chrome"	"108.0.0"	"FALSE"	"Windows 10"	"61.01"	"143"	n/a	n/a	n/a	n/a	n/a	n/a	"fixation"	n/a	n/a	n/a	n/a	"NULL"	n/a	"NULL"	"NULL"	"NULL"	"<p style=\"color: black; font-size: 80px; padding-left: 30%; padding-right: 31%; padding-top: 49%; padding-bottom: 25%\">+</p>"	"1415"	n/a	n/a	n/a	n/a	n/a	n/a	n/a	n/a	n/a
n/a	"image-keyboard-response"	"16"	"22755"	"0.0-4.0-1.0-2.0-1.4"	"ge76zf"	"600"	"1366"	"chrome"	"108.0.0"	"FALSE"	"Windows 10"	"61.01"	"143"	n/a	n/a	n/a	n/a	n/a	n/a	"Trial"	n/a	n/a	n/a	"944"	"arrowright"	n/a	"NULL"	"NULL"	"NULL"	"stimuli/Ebbinghaus_1000000_-1.4000.png"	n/a	"Ebbinghaus"	"arrowright"	"1422"	"TRUE"	"Ebbinghaus"	"100000000000"	"-1.400000000"	"1"	"5"
n/a	"html-keyboard-response"	"17"	"23871"	"0.0-4.0-1.0-2.0-0.5"	"ge76zf"	"600"	"1366"	"chrome"	"108.0.0"	"FALSE"	"Windows 10"	"61.01"	"143"	n/a	n/a	n/a	n/a	n/a	n/a	"fixation"	n/a	n/a	n/a	n/a	"NULL"	n/a	"NULL"	"NULL"	"NULL"	"<p style=\"color: black; font-size: 80px; padding-left: 39%; padding-right: 29%; padding-top: 27%; padding-bottom: 25%\">+</p>"	"1108"	n/a	n/a	n/a	n/a	n/a	n/a	n/a	n/a	n/a
n/a	"image-keyboard-response"	"18"	"24540"	"0.0-4.0-1.0-2.0-1.5"	"ge76zf"	"600"	"1366"	"chrome"	"108.0.0"	"FALSE"	"Windows 10"	"61.01"	"143"	n/a	n/a	n/a	n/a	n/a	n/a	"Trial"	n/a	n/a	n/a	"667"	"arrowleft"	n/a	"NULL"	"NULL"	"NULL"	"stimuli/Ebbinghaus_-100000_1.40000.png"	n/a	"Ebbinghaus"	"arrowleft"	"1116"	"TRUE"	"Ebbinghaus"	"-10000000000"	"1.4000000000"	"1"	"6"
n/a	"html-button-response"	"19"	"27855"	"0.0-4.0-1.0-3.0"	"ge76zf"	"600"	"1366"	"chrome"	"108.0.0"	"FALSE"	"Windows 10"	"61.01"	"143"	n/a	n/a	n/a	n/a	n/a	n/a	"practice_block_results"	n/a	n/a	n/a	"3310"	"0"	n/a	"NULL"	"NULL"	"NULL"	"<p style='color:rgb(76,175,80);'> Correct Responses: <b>100.00%</b></p><hr><p style='color:rgb(233,30,99);'> Average Response Time: <b>1250.00</b> ms.</p>"	n/a	n/a	n/a	n/a	n/a	n/a	n/a	n/a	n/a	n/a
"TRUE"	"preload"	"20"	"28812"	"0.0-4.0-2.0-0.0"	"ge76zf"	"600"	"1366"	"chrome"	"108.0.0"	"FALSE"	"Windows 10"	"61.01"	"143"	n/a	n/a	n/a	n/a	n/a	n/a	n/a	n/a	n/a	n/a	n/a	"NULL"	"FALSE"	"list()"	"list()"	"list()"	n/a	n/a	n/a	n/a	n/a	n/a	n/a	n/a	n/a	n/a	n/a
n/a	"html-keyboard-response"	"21"	"38196"	"0.0-4.0-2.0-1.0"	"ge76zf"	"600"	"1366"	"chrome"	"108.0.0"	"FALSE"	"Windows 10"	"61.01"	"143"	n/a	n/a	n/a	n/a	n/a	n/a	n/a	n/a	n/a	n/a	"9382"	"enter"	n/a	"NULL"	"NULL"	"NULL"	"<p><b>Practice</b></p><p>In this part, two horizontal red lines will appear one above the other.</p><p>Your task is to select which <b>line is longer</b> in length as fast as you can, without making errors.</p><p>Don't get distracted by the surrounding black arrows at the end of the red lines!</p><p>Press <b>the UP or the DOWN arrow</b> to indicate where is the longer <b>red line.</b></p><div style='float: center'><img src='materials/instructions/MullerLyer_Demo.png' height='300'></img><p><img src='utils/answer/answer_updown_keyboard.PNG' height='150'></img></p><p class='small'>In this example, the correct answer is the <b>UP arrow</b>.</p></div><p>Are you ready? <b>Press ENTER to start</b></p>"	n/a	n/a	n/a	n/a	n/a	n/a	n/a	n/a	n/a	n/a
n/a	"html-keyboard-response"	"22"	"40002"	"0.0-4.0-2.0-2.0-0.0"	"ge76zf"	"600"	"1366"	"chrome"	"108.0.0"	"FALSE"	"Windows 10"	"61.01"	"143"	n/a	n/a	n/a	n/a	n/a	n/a	"fixation"	n/a	n/a	n/a	n/a	"NULL"	n/a	"NULL"	"NULL"	"NULL"	"<p style=\"color: black; font-size: 80px; padding-left: 20%; padding-right: 31%; padding-top: 45%; padding-bottom: 39%\">+</p>"	"1282"	n/a	n/a	n/a	n/a	n/a	n/a	n/a	n/a	n/a
n/a	"image-keyboard-response"	"23"	"40803"	"0.0-4.0-2.0-2.0-1.0"	"ge76zf"	"600"	"1366"	"chrome"	"108.0.0"	"FALSE"	"Windows 10"	"61.01"	"143"	n/a	n/a	n/a	n/a	n/a	n/a	"Trial"	n/a	n/a	n/a	"799"	"arrowup"	n/a	"NULL"	"NULL"	"NULL"	"stimuli/MullerLyer_-230000_0.70000.png"	n/a	"MullerLyer"	"arrowup"	"1806"	"TRUE"	"MullerLyer"	"-23000000000"	"0.7000000000"	"1"	"7"
n/a	"html-keyboard-response"	"24"	"41832"	"0.0-4.0-2.0-2.0-0.1"	"ge76zf"	"600"	"1366"	"chrome"	"108.0.0"	"FALSE"	"Windows 10"	"61.01"	"143"	n/a	n/a	n/a	n/a	n/a	n/a	"fixation"	n/a	n/a	n/a	n/a	"NULL"	n/a	"NULL"	"NULL"	"NULL"	"<p style=\"color: black; font-size: 80px; padding-left: 45%; padding-right: 48%; padding-top: 28%; padding-bottom: 2%\">+</p>"	"1013"	n/a	n/a	n/a	n/a	n/a	n/a	n/a	n/a	n/a
n/a	"image-keyboard-response"	"25"	"42392"	"0.0-4.0-2.0-2.0-1.1"	"ge76zf"	"600"	"1366"	"chrome"	"108.0.0"	"FALSE"	"Windows 10"	"61.01"	"143"	n/a	n/a	n/a	n/a	n/a	n/a	"Trial"	n/a	n/a	n/a	"558"	"arrowup"	n/a	"NULL"	"NULL"	"NULL"	"stimuli/MullerLyer_0000000_0.70000.png"	n/a	"MullerLyer"	"arrowup"	"1029"	"TRUE"	"MullerLyer"	"000000000000"	"0.7000000000"	"1"	"8"
n/a	"html-keyboard-response"	"26"	"43863"	"0.0-4.0-2.0-2.0-0.2"	"ge76zf"	"600"	"1366"	"chrome"	"108.0.0"	"FALSE"	"Windows 10"	"61.01"	"143"	n/a	n/a	n/a	n/a	n/a	n/a	"fixation"	n/a	n/a	n/a	n/a	"NULL"	n/a	"NULL"	"NULL"	"NULL"	"<p style=\"color: black; font-size: 80px; padding-left: 38%; padding-right: 30%; padding-top: 7%; padding-bottom: 43%\">+</p>"	"1467"	n/a	n/a	n/a	n/a	n/a	n/a	n/a	n/a	n/a
n/a	"image-keyboard-response"	"27"	"44358"	"0.0-4.0-2.0-2.0-1.2"	"ge76zf"	"600"	"1366"	"chrome"	"108.0.0"	"FALSE"	"Windows 10"	"61.01"	"143"	n/a	n/a	n/a	n/a	n/a	n/a	"Trial"	n/a	n/a	n/a	"493"	"arrowdown"	n/a	"NULL"	"NULL"	"NULL"	"stimuli/MullerLyer_0000000_-0.7000.png"	n/a	"MullerLyer"	"arrowdown"	"1471"	"TRUE"	"MullerLyer"	"000000000000"	"-0.700000000"	"1"	"9"
n/a	"html-keyboard-response"	"28"	"45825"	"0.0-4.0-2.0-2.0-0.3"	"ge76zf"	"600"	"1366"	"chrome"	"108.0.0"	"FALSE"	"Windows 10"	"61.01"	"143"	n/a	n/a	n/a	n/a	n/a	n/a	"fixation"	n/a	n/a	n/a	n/a	"NULL"	n/a	"NULL"	"NULL"	"NULL"	"<p style=\"color: black; font-size: 80px; padding-left: 29%; padding-right: 0%; padding-top: 22%; padding-bottom: 21%\">+</p>"	"1456"	n/a	n/a	n/a	n/a	n/a	n/a	n/a	n/a	n/a
n/a	"image-keyboard-response"	"29"	"46674"	"0.0-4.0-2.0-2.0-1.3"	"ge76zf"	"600"	"1366"	"chrome"	"108.0.0"	"FALSE"	"Windows 10"	"61.01"	"143"	n/a	n/a	n/a	n/a	n/a	n/a	"Trial"	n/a	n/a	n/a	"847"	"arrowup"	n/a	"NULL"	"NULL"	"NULL"	"stimuli/MullerLyer_2300000_0.70000.png"	n/a	"MullerLyer"	"arrowup"	"1467"	"TRUE"	"MullerLyer"	"230000000000"	"0.7000000000"	"1"	"10"
n/a	"html-keyboard-response"	"30"	"47989"	"0.0-4.0-2.0-2.0-0.4"	"ge76zf"	"600"	"1366"	"chrome"	"108.0.0"	"FALSE"	"Windows 10"	"61.01"	"143"	n/a	n/a	n/a	n/a	n/a	n/a	"fixation"	n/a	n/a	n/a	n/a	"NULL"	n/a	"NULL"	"NULL"	"NULL"	"<p style=\"color: black; font-size: 80px; padding-left: 38%; padding-right: 12%; padding-top: 22%; padding-bottom: 46%\">+</p>"	"1310"	n/a	n/a	n/a	n/a	n/a	n/a	n/a	n/a	n/a
n/a	"image-keyboard-response"	"31"	"48593"	"0.0-4.0-2.0-2.0-1.4"	"ge76zf"	"600"	"1366"	"chrome"	"108.0.0"	"FALSE"	"Windows 10"	"61.01"	"143"	n/a	n/a	n/a	n/a	n/a	n/a	"Trial"	n/a	n/a	n/a	"602"	"arrowdown"	n/a	"NULL"	"NULL"	"NULL"	"stimuli/MullerLyer_2300000_-0.7000.png"	n/a	"MullerLyer"	"arrowdown"	"1315"	"TRUE"	"MullerLyer"	"230000000000"	"-0.700000000"	"1"	"11"
n/a	"html-keyboard-response"	"32"	"50006"	"0.0-4.0-2.0-2.0-0.5"	"ge76zf"	"600"	"1366"	"chrome"	"108.0.0"	"FALSE"	"Windows 10"	"61.01"	"143"	n/a	n/a	n/a	n/a	n/a	n/a	"fixation"	n/a	n/a	n/a	n/a	"NULL"	n/a	"NULL"	"NULL"	"NULL"	"<p style=\"color: black; font-size: 80px; padding-left: 27%; padding-right: 13%; padding-top: 1%; padding-bottom: 20%\">+</p>"	"1409"	n/a	n/a	n/a	n/a	n/a	n/a	n/a	n/a	n/a
n/a	"image-keyboard-response"	"33"	"50527"	"0.0-4.0-2.0-2.0-1.5"	"ge76zf"	"600"	"1366"	"chrome"	"108.0.0"	"FALSE"	"Windows 10"	"61.01"	"143"	n/a	n/a	n/a	n/a	n/a	n/a	"Trial"	n/a	n/a	n/a	"519"	"arrowdown"	n/a	"NULL"	"NULL"	"NULL"	"stimuli/MullerLyer_-230000_-0.7000.png"	n/a	"MullerLyer"	"arrowdown"	"1413"	"TRUE"	"MullerLyer"	"-23000000000"	"-0.700000000"	"1"	"12"
n/a	"html-button-response"	"34"	"53207"	"0.0-4.0-2.0-3.0"	"ge76zf"	"600"	"1366"	"chrome"	"108.0.0"	"FALSE"	"Windows 10"	"61.01"	"143"	n/a	n/a	n/a	n/a	n/a	n/a	"practice_block_results"	n/a	n/a	n/a	"2679"	"0"	n/a	"NULL"	"NULL"	"NULL"	"<p style='color:rgb(76,175,80);'> Correct Responses: <b>100.00%</b></p><hr><p style='color:rgb(233,30,99);'> Average Response Time: <b>636.33</b> ms.</p>"	n/a	n/a	n/a	n/a	n/a	n/a	n/a	n/a	n/a	n/a
"TRUE"	"preload"	"35"	"54064"	"0.0-4.0-3.0-0.0"	"ge76zf"	"600"	"1366"	"chrome"	"108.0.0"	"FALSE"	"Windows 10"	"61.01"	"143"	n/a	n/a	n/a	n/a	n/a	n/a	n/a	n/a	n/a	n/a	n/a	"NULL"	"FALSE"	"list()"	"list()"	"list()"	n/a	n/a	n/a	n/a	n/a	n/a	n/a	n/a	n/a	n/a	n/a
n/a	"html-keyboard-response"	"36"	"61728"	"0.0-4.0-3.0-1.0"	"ge76zf"	"600"	"1366"	"chrome"	"108.0.0"	"FALSE"	"Windows 10"	"61.01"	"143"	n/a	n/a	n/a	n/a	n/a	n/a	n/a	n/a	n/a	n/a	"7676"	"enter"	n/a	"NULL"	"NULL"	"NULL"	"<p><b>Practice</b></p><p>In this part, two red lines will appear side by side.</p><p>Your task is to tell <b>which line is longer</b> in length, regardless of their orientation, as fast as you can, and without making errors.</p><p>Don't get distracted by the orientation of the lines!</p><p>Press <b>the LEFT or the RIGHT arrow</b> to indicate which <b>line is the longer one.</b></p><div style='float: center'><img src='materials/instructions/VerticalHorizontal_Demo.png' height='300'></img><p><img src='utils/answer/answer_leftright_keyboard.PNG' height='150'></img></p><p class='small'>In this example, the correct answer is the <b>LEFT arrow</b>.</p></div><p>Are you ready? <b>Press ENTER to start</b></p>"	n/a	n/a	n/a	n/a	n/a	n/a	n/a	n/a	n/a	n/a
n/a	"html-keyboard-response"	"37"	"63387"	"0.0-4.0-3.0-2.0-0.0"	"ge76zf"	"600"	"1366"	"chrome"	"108.0.0"	"FALSE"	"Windows 10"	"61.01"	"143"	n/a	n/a	n/a	n/a	n/a	n/a	"fixation"	n/a	n/a	n/a	n/a	"NULL"	n/a	"NULL"	"NULL"	"NULL"	"<p style=\"color: black; font-size: 80px; padding-left: 44%; padding-right: 9%; padding-top: 3%; padding-bottom: 5%\">+</p>"	"1129"	n/a	n/a	n/a	n/a	n/a	n/a	n/a	n/a	n/a
n/a	"image-keyboard-response"	"38"	"64008"	"0.0-4.0-3.0-2.0-1.0"	"ge76zf"	"600"	"1366"	"chrome"	"108.0.0"	"FALSE"	"Windows 10"	"61.01"	"143"	n/a	n/a	n/a	n/a	n/a	n/a	"Trial"	n/a	n/a	n/a	"620"	"arrowright"	n/a	"NULL"	"NULL"	"NULL"	"stimuli/VerticalHorizontal_-330000_-0.9000.png"	n/a	"VerticalHorizontal"	"arrowright"	"1659"	"TRUE"	"VerticalHorizontal"	"-33000000000"	"-0.900000000"	"1"	"13"
n/a	"html-keyboard-response"	"39"	"65370"	"0.0-4.0-3.0-2.0-0.1"	"ge76zf"	"600"	"1366"	"chrome"	"108.0.0"	"FALSE"	"Windows 10"	"61.01"	"143"	n/a	n/a	n/a	n/a	n/a	n/a	"fixation"	n/a	n/a	n/a	n/a	"NULL"	n/a	"NULL"	"NULL"	"NULL"	"<p style=\"color: black; font-size: 80px; padding-left: 5%; padding-right: 9%; padding-top: 25%; padding-bottom: 27%\">+</p>"	"1344"	n/a	n/a	n/a	n/a	n/a	n/a	n/a	n/a	n/a
n/a	"image-keyboard-response"	"40"	"65842"	"0.0-4.0-3.0-2.0-1.1"	"ge76zf"	"600"	"1366"	"chrome"	"108.0.0"	"FALSE"	"Windows 10"	"61.01"	"143"	n/a	n/a	n/a	n/a	n/a	n/a	"Trial"	n/a	n/a	n/a	"472"	"arrowright"	n/a	"NULL"	"NULL"	"NULL"	"stimuli/VerticalHorizontal_0000000_-0.9000.png"	n/a	"VerticalHorizontal"	"arrowright"	"1362"	"TRUE"	"VerticalHorizontal"	"000000000000"	"-0.900000000"	"1"	"14"
n/a	"html-keyboard-response"	"41"	"67216"	"0.0-4.0-3.0-2.0-0.2"	"ge76zf"	"600"	"1366"	"chrome"	"108.0.0"	"FALSE"	"Windows 10"	"61.01"	"143"	n/a	n/a	n/a	n/a	n/a	n/a	"fixation"	n/a	n/a	n/a	n/a	"NULL"	n/a	"NULL"	"NULL"	"NULL"	"<p style=\"color: black; font-size: 80px; padding-left: 46%; padding-right: 30%; padding-top: 19%; padding-bottom: 31%\">+</p>"	"1361"	n/a	n/a	n/a	n/a	n/a	n/a	n/a	n/a	n/a
n/a	"image-keyboard-response"	"42"	"67676"	"0.0-4.0-3.0-2.0-1.2"	"ge76zf"	"600"	"1366"	"chrome"	"108.0.0"	"FALSE"	"Windows 10"	"61.01"	"143"	n/a	n/a	n/a	n/a	n/a	n/a	"Trial"	n/a	n/a	n/a	"458"	"arrowright"	n/a	"NULL"	"NULL"	"NULL"	"stimuli/VerticalHorizontal_3300000_-0.9000.png"	n/a	"VerticalHorizontal"	"arrowright"	"1374"	"TRUE"	"VerticalHorizontal"	"330000000000"	"-0.900000000"	"1"	"15"
n/a	"html-keyboard-response"	"43"	"68975"	"0.0-4.0-3.0-2.0-0.3"	"ge76zf"	"600"	"1366"	"chrome"	"108.0.0"	"FALSE"	"Windows 10"	"61.01"	"143"	n/a	n/a	n/a	n/a	n/a	n/a	"fixation"	n/a	n/a	n/a	n/a	"NULL"	n/a	"NULL"	"NULL"	"NULL"	"<p style=\"color: black; font-size: 80px; padding-left: 23%; padding-right: 25%; padding-top: 34%; padding-bottom: 31%\">+</p>"	"1286"	n/a	n/a	n/a	n/a	n/a	n/a	n/a	n/a	n/a
n/a	"image-keyboard-response"	"44"	"69388"	"0.0-4.0-3.0-2.0-1.3"	"ge76zf"	"600"	"1366"	"chrome"	"108.0.0"	"FALSE"	"Windows 10"	"61.01"	"143"	n/a	n/a	n/a	n/a	n/a	n/a	"Trial"	n/a	n/a	n/a	"412"	"arrowleft"	n/a	"NULL"	"NULL"	"NULL"	"stimuli/VerticalHorizontal_-330000_0.90000.png"	n/a	"VerticalHorizontal"	"arrowleft"	"1299"	"TRUE"	"VerticalHorizontal"	"-33000000000"	"0.9000000000"	"1"	"16"
n/a	"html-keyboard-response"	"45"	"70584"	"0.0-4.0-3.0-2.0-0.4"	"ge76zf"	"600"	"1366"	"chrome"	"108.0.0"	"FALSE"	"Windows 10"	"61.01"	"143"	n/a	n/a	n/a	n/a	n/a	n/a	"fixation"	n/a	n/a	n/a	n/a	"NULL"	n/a	"NULL"	"NULL"	"NULL"	"<p style=\"color: black; font-size: 80px; padding-left: 23%; padding-right: 37%; padding-top: 41%; padding-bottom: 45%\">+</p>"	"1188"	n/a	n/a	n/a	n/a	n/a	n/a	n/a	n/a	n/a
n/a	"image-keyboard-response"	"46"	"71050"	"0.0-4.0-3.0-2.0-1.4"	"ge76zf"	"600"	"1366"	"chrome"	"108.0.0"	"FALSE"	"Windows 10"	"61.01"	"143"	n/a	n/a	n/a	n/a	n/a	n/a	"Trial"	n/a	n/a	n/a	"464"	"arrowleft"	n/a	"NULL"	"NULL"	"NULL"	"stimuli/VerticalHorizontal_3300000_0.90000.png"	n/a	"VerticalHorizontal"	"arrowleft"	"1196"	"TRUE"	"VerticalHorizontal"	"330000000000"	"0.9000000000"	"1"	"17"
n/a	"html-keyboard-response"	"47"	"72500"	"0.0-4.0-3.0-2.0-0.5"	"ge76zf"	"600"	"1366"	"chrome"	"108.0.0"	"FALSE"	"Windows 10"	"61.01"	"143"	n/a	n/a	n/a	n/a	n/a	n/a	"fixation"	n/a	n/a	n/a	n/a	"NULL"	n/a	"NULL"	"NULL"	"NULL"	"<p style=\"color: black; font-size: 80px; padding-left: 29%; padding-right: 32%; padding-top: 6%; padding-bottom: 12%\">+</p>"	"1440"	n/a	n/a	n/a	n/a	n/a	n/a	n/a	n/a	n/a
n/a	"image-keyboard-response"	"48"	"72926"	"0.0-4.0-3.0-2.0-1.5"	"ge76zf"	"600"	"1366"	"chrome"	"108.0.0"	"FALSE"	"Windows 10"	"61.01"	"143"	n/a	n/a	n/a	n/a	n/a	n/a	"Trial"	n/a	n/a	n/a	"424"	"arrowleft"	n/a	"NULL"	"NULL"	"NULL"	"stimuli/VerticalHorizontal_0000000_0.90000.png"	n/a	"VerticalHorizontal"	"arrowleft"	"1450"	"TRUE"	"VerticalHorizontal"	"000000000000"	"0.9000000000"	"1"	"18"
n/a	"html-button-response"	"49"	"75028"	"0.0-4.0-3.0-3.0"	"ge76zf"	"600"	"1366"	"chrome"	"108.0.0"	"FALSE"	"Windows 10"	"61.01"	"143"	n/a	n/a	n/a	n/a	n/a	n/a	"practice_block_results"	n/a	n/a	n/a	"2099"	"0"	n/a	"NULL"	"NULL"	"NULL"	"<p style='color:rgb(76,175,80);'> Correct Responses: <b>100.00%</b></p><hr><p style='color:rgb(233,30,99);'> Average Response Time: <b>475.00</b> ms.</p>"	n/a	n/a	n/a	n/a	n/a	n/a	n/a	n/a	n/a	n/a
n/a	"html-button-response"	"50"	"143714"	"0.0-4.0-4.0"	"ge76zf"	"600"	"1366"	"chrome"	"108.0.0"	"FALSE"	"Windows 10"	"61.01"	"143"	n/a	n/a	n/a	n/a	n/a	n/a	"practice_debrief"	n/a	n/a	n/a	"68157"	"0"	n/a	"NULL"	"NULL"	"NULL"	"<p><b>TRAINING COMPLETED</b></p><p>In the next phase, there will be more trials, and some might be harder too.<br> Moreover, after each illusion block, a <b>score</b> will be calculated based on speed (time you took to answer) and accuracy (number of errors).</p><p>Try to keep up a high score!</p><br><p>Note that it can be <i>really</i> challenging at times, so you will need to rely on your <b>intuition</b> and gut feeling to answer as fast as you can without making errors.</p><p>Each illusion block will be repeated two times (so that you have the opportunity to improve your score), but the order of the blocks is random.</p><p>Remember, your goal is to be as <b>fast</b> and <b>accurate</b> as possible. Good luck!</p><br>"	n/a	n/a	n/a	n/a	n/a	n/a	n/a	n/a	n/a	n/a
"TRUE"	"preload"	"51"	"144021"	"0.0-5.0-0.0"	"ge76zf"	"600"	"1366"	"chrome"	"108.0.0"	"FALSE"	"Windows 10"	"61.01"	"143"	n/a	n/a	n/a	n/a	n/a	n/a	n/a	n/a	n/a	n/a	n/a	"NULL"	"FALSE"	"list()"	"list()"	"list()"	n/a	n/a	n/a	n/a	n/a	n/a	n/a	n/a	n/a	n/a	n/a
n/a	"html-keyboard-response"	"52"	"147508"	"0.0-5.0-1.0"	"ge76zf"	"600"	"1366"	"chrome"	"108.0.0"	"FALSE"	"Windows 10"	"61.01"	"143"	n/a	n/a	n/a	n/a	n/a	n/a	n/a	n/a	n/a	n/a	"3486"	"enter"	n/a	"NULL"	"NULL"	"NULL"	"<p><b>Part 1/6</b></p><p>In this part, two red circles will appear side by side on the screen.</p><p>Your task is to select which <b>red circle is bigger</b> in size as fast as you can, without making errors.</p><p>Don't get distracted by the surrounding black circles around the red circles!</p><p>Press <b>the LEFT or the RIGHT arrow</b> to indicate which is the bigger <b>red circle.</b></p><div style='float: center'><img src='materials/instructions/Ebbinghaus_Demo.png' height='300'></img><p><img src='utils/answer/answer_leftright_keyboard.PNG' height='150'></img></p><p class='small'>In this example, the correct answer is the <b>LEFT arrow</b>.</p></div><p>Are you ready? <b>Press ENTER to start</b></p>"	n/a	n/a	n/a	n/a	n/a	n/a	n/a	n/a	n/a	n/a
n/a	"html-keyboard-response"	"53"	"149385"	"0.0-5.0-2.0-0.0"	"ge76zf"	"600"	"1366"	"chrome"	"108.0.0"	"FALSE"	"Windows 10"	"61.01"	"143"	n/a	n/a	n/a	n/a	n/a	n/a	"fixation"	n/a	n/a	n/a	n/a	"NULL"	n/a	"NULL"	"NULL"	"NULL"	"<p style=\"color: black; font-size: 80px; padding-left: 1%; padding-right: 4%; padding-top: 42%; padding-bottom: 8%\">+</p>"	"1344"	n/a	n/a	n/a	n/a	n/a	n/a	n/a	n/a	n/a
n/a	"image-keyboard-response"	"54"	"150385"	"0.0-5.0-2.0-1.0"	"ge76zf"	"600"	"1366"	"chrome"	"108.0.0"	"FALSE"	"Windows 10"	"61.01"	"143"	n/a	n/a	n/a	n/a	n/a	n/a	"Trial"	n/a	n/a	n/a	"998"	"arrowleft"	n/a	"NULL"	"NULL"	"NULL"	"stimuli/Ebbinghaus_-0.61429_0.15857.png"	n/a	"Ebbinghaus"	"arrowleft"	"1877"	"TRUE"	"Ebbinghaus"	"-0.614290000"	"0.1585700000"	"1"	"19"
n/a	"html-keyboard-response"	"55"	"151628"	"0.0-5.0-2.0-0.1"	"ge76zf"	"600"	"1366"	"chrome"	"108.0.0"	"FALSE"	"Windows 10"	"61.01"	"143"	n/a	n/a	n/a	n/a	n/a	n/a	"fixation"	n/a	n/a	n/a	n/a	"NULL"	n/a	"NULL"	"NULL"	"NULL"	"<p style=\"color: black; font-size: 80px; padding-left: 50%; padding-right: 28%; padding-top: 37%; padding-bottom: 4%\">+</p>"	"1219"	n/a	n/a	n/a	n/a	n/a	n/a	n/a	n/a	n/a
n/a	"image-keyboard-response"	"56"	"152520"	"0.0-5.0-2.0-1.1"	"ge76zf"	"600"	"1366"	"chrome"	"108.0.0"	"FALSE"	"Windows 10"	"61.01"	"143"	n/a	n/a	n/a	n/a	n/a	n/a	"Trial"	n/a	n/a	n/a	"890"	"arrowleft"	n/a	"NULL"	"NULL"	"NULL"	"stimuli/Ebbinghaus_-0.61429_0.21500.png"	n/a	"Ebbinghaus"	"arrowleft"	"1243"	"TRUE"	"Ebbinghaus"	"-0.614290000"	"0.2150000000"	"1"	"20"
n/a	"html-keyboard-response"	"57"	"153879"	"0.0-5.0-2.0-0.2"	"ge76zf"	"600"	"1366"	"chrome"	"108.0.0"	"FALSE"	"Windows 10"	"61.01"	"143"	n/a	n/a	n/a	n/a	n/a	n/a	"fixation"	n/a	n/a	n/a	n/a	"NULL"	n/a	"NULL"	"NULL"	"NULL"	"<p style=\"color: black; font-size: 80px; padding-left: 47%; padding-right: 13%; padding-top: 1%; padding-bottom: 16%\">+</p>"	"1354"	n/a	n/a	n/a	n/a	n/a	n/a	n/a	n/a	n/a
n/a	"image-keyboard-response"	"58"	"154630"	"0.0-5.0-2.0-1.2"	"ge76zf"	"600"	"1366"	"chrome"	"108.0.0"	"FALSE"	"Windows 10"	"61.01"	"143"	n/a	n/a	n/a	n/a	n/a	n/a	"Trial"	n/a	n/a	n/a	"749"	"arrowright"	n/a	"NULL"	"NULL"	"NULL"	"stimuli/Ebbinghaus_-0.35714_-0.2150.png"	n/a	"Ebbinghaus"	"arrowright"	"1359"	"TRUE"	"Ebbinghaus"	"-0.357140000"	"-0.215000000"	"1"	"21"
n/a	"html-keyboard-response"	"59"	"156098"	"0.0-5.0-2.0-0.3"	"ge76zf"	"600"	"1366"	"chrome"	"108.0.0"	"FALSE"	"Windows 10"	"61.01"	"143"	n/a	n/a	n/a	n/a	n/a	n/a	"fixation"	n/a	n/a	n/a	n/a	"NULL"	n/a	"NULL"	"NULL"	"NULL"	"<p style=\"color: black; font-size: 80px; padding-left: 44%; padding-right: 9%; padding-top: 20%; padding-bottom: 2%\">+</p>"	"1448"	n/a	n/a	n/a	n/a	n/a	n/a	n/a	n/a	n/a
n/a	"image-keyboard-response"	"60"	"156860"	"0.0-5.0-2.0-1.3"	"ge76zf"	"600"	"1366"	"chrome"	"108.0.0"	"FALSE"	"Windows 10"	"61.01"	"143"	n/a	n/a	n/a	n/a	n/a	n/a	"Trial"	n/a	n/a	n/a	"761"	"arrowright"	n/a	"NULL"	"NULL"	"NULL"	"stimuli/Ebbinghaus_-0.35714_-0.2800.png"	n/a	"Ebbinghaus"	"arrowright"	"1468"	"TRUE"	"Ebbinghaus"	"-0.357140000"	"-0.280000000"	"1"	"22"
n/a	"html-keyboard-response"	"61"	"157904"	"0.0-5.0-2.0-0.4"	"ge76zf"	"600"	"1366"	"chrome"	"108.0.0"	"FALSE"	"Windows 10"	"61.01"	"143"	n/a	n/a	n/a	n/a	n/a	n/a	"fixation"	n/a	n/a	n/a	n/a	"NULL"	n/a	"NULL"	"NULL"	"NULL"	"<p style=\"color: black; font-size: 80px; padding-left: 44%; padding-right: 28%; padding-top: 34%; padding-bottom: 25%\">+</p>"	"1030"	n/a	n/a	n/a	n/a	n/a	n/a	n/a	n/a	n/a
n/a	"image-keyboard-response"	"62"	"158766"	"0.0-5.0-2.0-1.4"	"ge76zf"	"600"	"1366"	"chrome"	"108.0.0"	"FALSE"	"Windows 10"	"61.01"	"143"	n/a	n/a	n/a	n/a	n/a	n/a	"Trial"	n/a	n/a	n/a	"861"	"arrowleft"	n/a	"NULL"	"NULL"	"NULL"	"stimuli/Ebbinghaus_0.35714_0.21500.png"	n/a	"Ebbinghaus"	"arrowleft"	"1044"	"TRUE"	"Ebbinghaus"	"0.3571400000"	"0.2150000000"	"1"	"23"
n/a	"html-keyboard-response"	"63"	"159943"	"0.0-5.0-2.0-0.5"	"ge76zf"	"600"	"1366"	"chrome"	"108.0.0"	"FALSE"	"Windows 10"	"61.01"	"143"	n/a	n/a	n/a	n/a	n/a	n/a	"fixation"	n/a	n/a	n/a	n/a	"NULL"	n/a	"NULL"	"NULL"	"NULL"	"<p style=\"color: black; font-size: 80px; padding-left: 21%; padding-right: 39%; padding-top: 44%; padding-bottom: 25%\">+</p>"	"1169"	n/a	n/a	n/a	n/a	n/a	n/a	n/a	n/a	n/a
n/a	"image-keyboard-response"	"64"	"160811"	"0.0-5.0-2.0-1.5"	"ge76zf"	"600"	"1366"	"chrome"	"108.0.0"	"FALSE"	"Windows 10"	"61.01"	"143"	n/a	n/a	n/a	n/a	n/a	n/a	"Trial"	n/a	n/a	n/a	"866"	"arrowleft"	n/a	"NULL"	"NULL"	"NULL"	"stimuli/Ebbinghaus_-0.35714_0.28000.png"	n/a	"Ebbinghaus"	"arrowleft"	"1177"	"TRUE"	"Ebbinghaus"	"-0.357140000"	"0.2800000000"	"1"	"24"
n/a	"html-keyboard-response"	"65"	"162015"	"0.0-5.0-2.0-0.6"	"ge76zf"	"600"	"1366"	"chrome"	"108.0.0"	"FALSE"	"Windows 10"	"61.01"	"143"	n/a	n/a	n/a	n/a	n/a	n/a	"fixation"	n/a	n/a	n/a	n/a	"NULL"	n/a	"NULL"	"NULL"	"NULL"	"<p style=\"color: black; font-size: 80px; padding-left: 34%; padding-right: 7%; padding-top: 22%; padding-bottom: 2%\">+</p>"	"1180"	n/a	n/a	n/a	n/a	n/a	n/a	n/a	n/a	n/a
n/a	"image-keyboard-response"	"66"	"163033"	"0.0-5.0-2.0-1.6"	"ge76zf"	"600"	"1366"	"chrome"	"108.0.0"	"FALSE"	"Windows 10"	"61.01"	"143"	n/a	n/a	n/a	n/a	n/a	n/a	"Trial"	n/a	n/a	n/a	"1017"	"arrowleft"	n/a	"NULL"	"NULL"	"NULL"	"stimuli/Ebbinghaus_0.87143_0.21500.png"	n/a	"Ebbinghaus"	"arrowleft"	"1204"	"TRUE"	"Ebbinghaus"	"0.8714300000"	"0.2150000000"	"1"	"25"
n/a	"html-keyboard-response"	"67"	"164219"	"0.0-5.0-2.0-0.7"	"ge76zf"	"600"	"1366"	"chrome"	"108.0.0"	"FALSE"	"Windows 10"	"61.01"	"143"	n/a	n/a	n/a	n/a	n/a	n/a	"fixation"	n/a	n/a	n/a	n/a	"NULL"	n/a	"NULL"	"NULL"	"NULL"	"<p style=\"color: black; font-size: 80px; padding-left: 31%; padding-right: 36%; padding-top: 8%; padding-bottom: 2%\">+</p>"	"1167"	n/a	n/a	n/a	n/a	n/a	n/a	n/a	n/a	n/a
n/a	"image-keyboard-response"	"68"	"165154"	"0.0-5.0-2.0-1.7"	"ge76zf"	"600"	"1366"	"chrome"	"108.0.0"	"FALSE"	"Windows 10"	"61.01"	"143"	n/a	n/a	n/a	n/a	n/a	n/a	"Trial"	n/a	n/a	n/a	"933"	"arrowright"	n/a	"NULL"	"NULL"	"NULL"	"stimuli/Ebbinghaus_0.61429_-0.15857.png"	n/a	"Ebbinghaus"	"arrowright"	"1186"	"TRUE"	"Ebbinghaus"	"0.6142900000"	"-0.158570000"	"1"	"26"
n/a	"html-keyboard-response"	"69"	"166367"	"0.0-5.0-2.0-0.8"	"ge76zf"	"600"	"1366"	"chrome"	"108.0.0"	"FALSE"	"Windows 10"	"61.01"	"143"	n/a	n/a	n/a	n/a	n/a	n/a	"fixation"	n/a	n/a	n/a	n/a	"NULL"	n/a	"NULL"	"NULL"	"NULL"	"<p style=\"color: black; font-size: 80px; padding-left: 47%; padding-right: 34%; padding-top: 17%; padding-bottom: 11%\">+</p>"	"1198"	n/a	n/a	n/a	n/a	n/a	n/a	n/a	n/a	n/a
n/a	"image-keyboard-response"	"70"	"167342"	"0.0-5.0-2.0-1.8"	"ge76zf"	"600"	"1366"	"chrome"	"108.0.0"	"FALSE"	"Windows 10"	"61.01"	"143"	n/a	n/a	n/a	n/a	n/a	n/a	"Trial"	n/a	n/a	n/a	"973"	"arrowright"	n/a	"NULL"	"NULL"	"NULL"	"stimuli/Ebbinghaus_-0.1000_-0.11071.png"	n/a	"Ebbinghaus"	"arrowright"	"1213"	"TRUE"	"Ebbinghaus"	"-0.100000000"	"-0.110710000"	"1"	"27"
n/a	"html-keyboard-response"	"71"	"168406"	"0.0-5.0-2.0-0.9"	"ge76zf"	"600"	"1366"	"chrome"	"108.0.0"	"FALSE"	"Windows 10"	"61.01"	"143"	n/a	n/a	n/a	n/a	n/a	n/a	"fixation"	n/a	n/a	n/a	n/a	"NULL"	n/a	"NULL"	"NULL"	"NULL"	"<p style=\"color: black; font-size: 80px; padding-left: 18%; padding-right: 1%; padding-top: 34%; padding-bottom: 8%\">+</p>"	"1050"	n/a	n/a	n/a	n/a	n/a	n/a	n/a	n/a	n/a
n/a	"image-keyboard-response"	"72"	"169267"	"0.0-5.0-2.0-1.9"	"ge76zf"	"600"	"1366"	"chrome"	"108.0.0"	"FALSE"	"Windows 10"	"61.01"	"143"	n/a	n/a	n/a	n/a	n/a	n/a	"Trial"	n/a	n/a	n/a	"860"	"arrowleft"	n/a	"NULL"	"NULL"	"NULL"	"stimuli/Ebbinghaus_-0.1000_0.28000.png"	n/a	"Ebbinghaus"	"arrowleft"	"1064"	"TRUE"	"Ebbinghaus"	"-0.100000000"	"0.2800000000"	"1"	"28"
n/a	"html-keyboard-response"	"73"	"170755"	"0.0-5.0-2.0-0.10"	"ge76zf"	"600"	"1366"	"chrome"	"108.0.0"	"FALSE"	"Windows 10"	"61.01"	"143"	n/a	n/a	n/a	n/a	n/a	n/a	"fixation"	n/a	n/a	n/a	n/a	"NULL"	n/a	"NULL"	"NULL"	"NULL"	"<p style=\"color: black; font-size: 80px; padding-left: 32%; padding-right: 11%; padding-top: 35%; padding-bottom: 9%\">+</p>"	"1477"	n/a	n/a	n/a	n/a	n/a	n/a	n/a	n/a	n/a
n/a	"image-keyboard-response"	"74"	"171792"	"0.0-5.0-2.0-1.10"	"ge76zf"	"600"	"1366"	"chrome"	"108.0.0"	"FALSE"	"Windows 10"	"61.01"	"143"	n/a	n/a	n/a	n/a	n/a	n/a	"Trial"	n/a	n/a	n/a	"1036"	"arrowright"	n/a	"NULL"	"NULL"	"NULL"	"stimuli/Ebbinghaus_0.87143_-0.2800.png"	n/a	"Ebbinghaus"	"arrowright"	"1488"	"TRUE"	"Ebbinghaus"	"0.8714300000"	"-0.280000000"	"1"	"29"
n/a	"html-keyboard-response"	"75"	"172924"	"0.0-5.0-2.0-0.11"	"ge76zf"	"600"	"1366"	"chrome"	"108.0.0"	"FALSE"	"Windows 10"	"61.01"	"143"	n/a	n/a	n/a	n/a	n/a	n/a	"fixation"	n/a	n/a	n/a	n/a	"NULL"	n/a	"NULL"	"NULL"	"NULL"	"<p style=\"color: black; font-size: 80px; padding-left: 17%; padding-right: 39%; padding-top: 33%; padding-bottom: 35%\">+</p>"	"1120"	n/a	n/a	n/a	n/a	n/a	n/a	n/a	n/a	n/a
n/a	"image-keyboard-response"	"76"	"173761"	"0.0-5.0-2.0-1.11"	"ge76zf"	"600"	"1366"	"chrome"	"108.0.0"	"FALSE"	"Windows 10"	"61.01"	"143"	n/a	n/a	n/a	n/a	n/a	n/a	"Trial"	n/a	n/a	n/a	"836"	"arrowleft"	n/a	"NULL"	"NULL"	"NULL"	"stimuli/Ebbinghaus_0.87143_0.28000.png"	n/a	"Ebbinghaus"	"arrowleft"	"1132"	"TRUE"	"Ebbinghaus"	"0.8714300000"	"0.2800000000"	"1"	"30"
n/a	"html-keyboard-response"	"77"	"174994"	"0.0-5.0-2.0-0.12"	"ge76zf"	"600"	"1366"	"chrome"	"108.0.0"	"FALSE"	"Windows 10"	"61.01"	"143"	n/a	n/a	n/a	n/a	n/a	n/a	"fixation"	n/a	n/a	n/a	n/a	"NULL"	n/a	"NULL"	"NULL"	"NULL"	"<p style=\"color: black; font-size: 80px; padding-left: 14%; padding-right: 33%; padding-top: 7%; padding-bottom: 49%\">+</p>"	"1218"	n/a	n/a	n/a	n/a	n/a	n/a	n/a	n/a	n/a
n/a	"image-keyboard-response"	"78"	"175704"	"0.0-5.0-2.0-1.12"	"ge76zf"	"600"	"1366"	"chrome"	"108.0.0"	"FALSE"	"Windows 10"	"61.01"	"143"	n/a	n/a	n/a	n/a	n/a	n/a	"Trial"	n/a	n/a	n/a	"709"	"arrowright"	n/a	"NULL"	"NULL"	"NULL"	"stimuli/Ebbinghaus_0.10000_-0.15857.png"	n/a	"Ebbinghaus"	"arrowright"	"1233"	"TRUE"	"Ebbinghaus"	"0.1000000000"	"-0.158570000"	"1"	"31"
n/a	"html-keyboard-response"	"79"	"177026"	"0.0-5.0-2.0-0.13"	"ge76zf"	"600"	"1366"	"chrome"	"108.0.0"	"FALSE"	"Windows 10"	"61.01"	"143"	n/a	n/a	n/a	n/a	n/a	n/a	"fixation"	n/a	n/a	n/a	n/a	"NULL"	n/a	"NULL"	"NULL"	"NULL"	"<p style=\"color: black; font-size: 80px; padding-left: 44%; padding-right: 19%; padding-top: 6%; padding-bottom: 39%\">+</p>"	"1309"	n/a	n/a	n/a	n/a	n/a	n/a	n/a	n/a	n/a
n/a	"image-keyboard-response"	"80"	"177886"	"0.0-5.0-2.0-1.13"	"ge76zf"	"600"	"1366"	"chrome"	"108.0.0"	"FALSE"	"Windows 10"	"61.01"	"143"	n/a	n/a	n/a	n/a	n/a	n/a	"Trial"	n/a	n/a	n/a	"858"	"arrowleft"	n/a	"NULL"	"NULL"	"NULL"	"stimuli/Ebbinghaus_0.61429_0.28000.png"	n/a	"Ebbinghaus"	"arrowleft"	"1322"	"TRUE"	"Ebbinghaus"	"0.6142900000"	"0.2800000000"	"1"	"32"
n/a	"html-keyboard-response"	"81"	"178995"	"0.0-5.0-2.0-0.14"	"ge76zf"	"600"	"1366"	"chrome"	"108.0.0"	"FALSE"	"Windows 10"	"61.01"	"143"	n/a	n/a	n/a	n/a	n/a	n/a	"fixation"	n/a	n/a	n/a	n/a	"NULL"	n/a	"NULL"	"NULL"	"NULL"	"<p style=\"color: black; font-size: 80px; padding-left: 48%; padding-right: 36%; padding-top: 48%; padding-bottom: 33%\">+</p>"	"1093"	n/a	n/a	n/a	n/a	n/a	n/a	n/a	n/a	n/a
n/a	"image-keyboard-response"	"82"	"179660"	"0.0-5.0-2.0-1.14"	"ge76zf"	"600"	"1366"	"chrome"	"108.0.0"	"FALSE"	"Windows 10"	"61.01"	"143"	n/a	n/a	n/a	n/a	n/a	n/a	"Trial"	n/a	n/a	n/a	"664"	"arrowleft"	n/a	"NULL"	"NULL"	"NULL"	"stimuli/Ebbinghaus_-0.87143_0.28000.png"	n/a	"Ebbinghaus"	"arrowleft"	"1109"	"TRUE"	"Ebbinghaus"	"-0.871430000"	"0.2800000000"	"1"	"33"
n/a	"html-keyboard-response"	"83"	"180744"	"0.0-5.0-2.0-0.15"	"ge76zf"	"600"	"1366"	"chrome"	"108.0.0"	"FALSE"	"Windows 10"	"61.01"	"143"	n/a	n/a	n/a	n/a	n/a	n/a	"fixation"	n/a	n/a	n/a	n/a	"NULL"	n/a	"NULL"	"NULL"	"NULL"	"<p style=\"color: black; font-size: 80px; padding-left: 8%; padding-right: 27%; padding-top: 2%; padding-bottom: 29%\">+</p>"	"1071"	n/a	n/a	n/a	n/a	n/a	n/a	n/a	n/a	n/a
n/a	"image-keyboard-response"	"84"	"181646"	"0.0-5.0-2.0-1.15"	"ge76zf"	"600"	"1366"	"chrome"	"108.0.0"	"FALSE"	"Windows 10"	"61.01"	"143"	n/a	n/a	n/a	n/a	n/a	n/a	"Trial"	n/a	n/a	n/a	"901"	"arrowleft"	n/a	"NULL"	"NULL"	"NULL"	"stimuli/Ebbinghaus_-0.1000_0.21500.png"	n/a	"Ebbinghaus"	"arrowleft"	"1084"	"TRUE"	"Ebbinghaus"	"-0.100000000"	"0.2150000000"	"1"	"34"
n/a	"html-keyboard-response"	"85"	"182957"	"0.0-5.0-2.0-0.16"	"ge76zf"	"600"	"1366"	"chrome"	"108.0.0"	"FALSE"	"Windows 10"	"61.01"	"143"	n/a	n/a	n/a	n/a	n/a	n/a	"fixation"	n/a	n/a	n/a	n/a	"NULL"	n/a	"NULL"	"NULL"	"NULL"	"<p style=\"color: black; font-size: 80px; padding-left: 47%; padding-right: 15%; padding-top: 3%; padding-bottom: 13%\">+</p>"	"1294"	n/a	n/a	n/a	n/a	n/a	n/a	n/a	n/a	n/a
n/a	"image-keyboard-response"	"86"	"183901"	"0.0-5.0-2.0-1.16"	"ge76zf"	"600"	"1366"	"chrome"	"108.0.0"	"FALSE"	"Windows 10"	"61.01"	"143"	n/a	n/a	n/a	n/a	n/a	n/a	"Trial"	n/a	n/a	n/a	"942"	"arrowleft"	n/a	"NULL"	"NULL"	"NULL"	"stimuli/Ebbinghaus_-0.35714_0.15857.png"	n/a	"Ebbinghaus"	"arrowleft"	"1311"	"TRUE"	"Ebbinghaus"	"-0.357140000"	"0.1585700000"	"1"	"35"
n/a	"html-keyboard-response"	"87"	"185256"	"0.0-5.0-2.0-0.17"	"ge76zf"	"600"	"1366"	"chrome"	"108.0.0"	"FALSE"	"Windows 10"	"61.01"	"143"	n/a	n/a	n/a	n/a	n/a	n/a	"fixation"	n/a	n/a	n/a	n/a	"NULL"	n/a	"NULL"	"NULL"	"NULL"	"<p style=\"color: black; font-size: 80px; padding-left: 10%; padding-right: 4%; padding-top: 14%; padding-bottom: 25%\">+</p>"	"1351"	n/a	n/a	n/a	n/a	n/a	n/a	n/a	n/a	n/a
n/a	"image-keyboard-response"	"88"	"185892"	"0.0-5.0-2.0-1.17"	"ge76zf"	"600"	"1366"	"chrome"	"108.0.0"	"FALSE"	"Windows 10"	"61.01"	"143"	n/a	n/a	n/a	n/a	n/a	n/a	"Trial"	n/a	n/a	n/a	"634"	"arrowright"	n/a	"NULL"	"NULL"	"NULL"	"stimuli/Ebbinghaus_-0.61429_-0.2800.png"	n/a	"Ebbinghaus"	"arrowright"	"1355"	"TRUE"	"Ebbinghaus"	"-0.614290000"	"-0.280000000"	"1"	"36"
n/a	"html-keyboard-response"	"89"	"187318"	"0.0-5.0-2.0-0.18"	"ge76zf"	"600"	"1366"	"chrome"	"108.0.0"	"FALSE"	"Windows 10"	"61.01"	"143"	n/a	n/a	n/a	n/a	n/a	n/a	"fixation"	n/a	n/a	n/a	n/a	"NULL"	n/a	"NULL"	"NULL"	"NULL"	"<p style=\"color: black; font-size: 80px; padding-left: 35%; padding-right: 47%; padding-top: 17%; padding-bottom: 30%\">+</p>"	"1406"	n/a	n/a	n/a	n/a	n/a	n/a	n/a	n/a	n/a
n/a	"image-keyboard-response"	"90"	"188117"	"0.0-5.0-2.0-1.18"	"ge76zf"	"600"	"1366"	"chrome"	"108.0.0"	"FALSE"	"Windows 10"	"61.01"	"143"	n/a	n/a	n/a	n/a	n/a	n/a	"Trial"	n/a	n/a	n/a	"797"	"arrowleft"	n/a	"NULL"	"NULL"	"NULL"	"stimuli/Ebbinghaus_-0.87143_0.11071.png"	n/a	"Ebbinghaus"	"arrowleft"	"1426"	"TRUE"	"Ebbinghaus"	"-0.871430000"	"0.1107100000"	"1"	"37"
n/a	"html-keyboard-response"	"91"	"189143"	"0.0-5.0-2.0-0.19"	"ge76zf"	"600"	"1366"	"chrome"	"108.0.0"	"FALSE"	"Windows 10"	"61.01"	"143"	n/a	n/a	n/a	n/a	n/a	n/a	"fixation"	n/a	n/a	n/a	n/a	"NULL"	n/a	"NULL"	"NULL"	"NULL"	"<p style=\"color: black; font-size: 80px; padding-left: 10%; padding-right: 37%; padding-top: 48%; padding-bottom: 40%\">+</p>"	"1021"	n/a	n/a	n/a	n/a	n/a	n/a	n/a	n/a	n/a
n/a	"image-keyboard-response"	"92"	"189899"	"0.0-5.0-2.0-1.19"	"ge76zf"	"600"	"1366"	"chrome"	"108.0.0"	"FALSE"	"Windows 10"	"61.01"	"143"	n/a	n/a	n/a	n/a	n/a	n/a	"Trial"	n/a	n/a	n/a	"754"	"arrowleft"	n/a	"NULL"	"NULL"	"NULL"	"stimuli/Ebbinghaus_-0.35714_0.21500.png"	n/a	"Ebbinghaus"	"arrowleft"	"1026"	"TRUE"	"Ebbinghaus"	"-0.357140000"	"0.2150000000"	"1"	"38"
n/a	"html-keyboard-response"	"93"	"191390"	"0.0-5.0-2.0-0.20"	"ge76zf"	"600"	"1366"	"chrome"	"108.0.0"	"FALSE"	"Windows 10"	"61.01"	"143"	n/a	n/a	n/a	n/a	n/a	n/a	"fixation"	n/a	n/a	n/a	n/a	"NULL"	n/a	"NULL"	"NULL"	"NULL"	"<p style=\"color: black; font-size: 80px; padding-left: 8%; padding-right: 45%; padding-top: 23%; padding-bottom: 43%\">+</p>"	"1476"	n/a	n/a	n/a	n/a	n/a	n/a	n/a	n/a	n/a
n/a	"image-keyboard-response"	"94"	"192016"	"0.0-5.0-2.0-1.20"	"ge76zf"	"600"	"1366"	"chrome"	"108.0.0"	"FALSE"	"Windows 10"	"61.01"	"143"	n/a	n/a	n/a	n/a	n/a	n/a	"Trial"	n/a	n/a	n/a	"624"	"arrowright"	n/a	"NULL"	"NULL"	"NULL"	"stimuli/Ebbinghaus_0.35714_-0.2150.png"	n/a	"Ebbinghaus"	"arrowright"	"1491"	"TRUE"	"Ebbinghaus"	"0.3571400000"	"-0.215000000"	"1"	"39"
n/a	"html-keyboard-response"	"95"	"193137"	"0.0-5.0-2.0-0.21"	"ge76zf"	"600"	"1366"	"chrome"	"108.0.0"	"FALSE"	"Windows 10"	"61.01"	"143"	n/a	n/a	n/a	n/a	n/a	n/a	"fixation"	n/a	n/a	n/a	n/a	"NULL"	n/a	"NULL"	"NULL"	"NULL"	"<p style=\"color: black; font-size: 80px; padding-left: 42%; padding-right: 39%; padding-top: 45%; padding-bottom: 16%\">+</p>"	"1103"	n/a	n/a	n/a	n/a	n/a	n/a	n/a	n/a	n/a
n/a	"image-keyboard-response"	"96"	"193803"	"0.0-5.0-2.0-1.21"	"ge76zf"	"600"	"1366"	"chrome"	"108.0.0"	"FALSE"	"Windows 10"	"61.01"	"143"	n/a	n/a	n/a	n/a	n/a	n/a	"Trial"	n/a	n/a	n/a	"665"	"arrowright"	n/a	"NULL"	"NULL"	"NULL"	"stimuli/Ebbinghaus_-0.35714_-0.15857.png"	n/a	"Ebbinghaus"	"arrowright"	"1121"	"TRUE"	"Ebbinghaus"	"-0.357140000"	"-0.158570000"	"1"	"40"
n/a	"html-keyboard-response"	"97"	"195265"	"0.0-5.0-2.0-0.22"	"ge76zf"	"600"	"1366"	"chrome"	"108.0.0"	"FALSE"	"Windows 10"	"61.01"	"143"	n/a	n/a	n/a	n/a	n/a	n/a	"fixation"	n/a	n/a	n/a	n/a	"NULL"	n/a	"NULL"	"NULL"	"NULL"	"<p style=\"color: black; font-size: 80px; padding-left: 6%; padding-right: 45%; padding-top: 13%; padding-bottom: 17%\">+</p>"	"1441"	n/a	n/a	n/a	n/a	n/a	n/a	n/a	n/a	n/a
n/a	"image-keyboard-response"	"98"	"196084"	"0.0-5.0-2.0-1.22"	"ge76zf"	"600"	"1366"	"chrome"	"108.0.0"	"FALSE"	"Windows 10"	"61.01"	"143"	n/a	n/a	n/a	n/a	n/a	n/a	"Trial"	n/a	n/a	n/a	"818"	"arrowright"	n/a	"NULL"	"NULL"	"NULL"	"stimuli/Ebbinghaus_0.87143_0.15857.png"	n/a	"Ebbinghaus"	"arrowleft"	"1462"	"FALSE"	"Ebbinghaus"	"0.8714300000"	"0.1585700000"	"1"	"41"
n/a	"html-keyboard-response"	"99"	"197462"	"0.0-5.0-2.0-0.23"	"ge76zf"	"600"	"1366"	"chrome"	"108.0.0"	"FALSE"	"Windows 10"	"61.01"	"143"	n/a	n/a	n/a	n/a	n/a	n/a	"fixation"	n/a	n/a	n/a	n/a	"NULL"	n/a	"NULL"	"NULL"	"NULL"	"<p style=\"color: black; font-size: 80px; padding-left: 37%; padding-right: 13%; padding-top: 44%; padding-bottom: 20%\">+</p>"	"1367"	n/a	n/a	n/a	n/a	n/a	n/a	n/a	n/a	n/a
n/a	"image-keyboard-response"	"100"	"198055"	"0.0-5.0-2.0-1.23"	"ge76zf"	"600"	"1366"	"chrome"	"108.0.0"	"FALSE"	"Windows 10"	"61.01"	"143"	n/a	n/a	n/a	n/a	n/a	n/a	"Trial"	n/a	n/a	n/a	"592"	"arrowleft"	n/a	"NULL"	"NULL"	"NULL"	"stimuli/Ebbinghaus_-0.87143_0.21500.png"	n/a	"Ebbinghaus"	"arrowleft"	"1378"	"TRUE"	"Ebbinghaus"	"-0.871430000"	"0.2150000000"	"1"	"42"
n/a	"html-keyboard-response"	"101"	"199321"	"0.0-5.0-2.0-0.24"	"ge76zf"	"600"	"1366"	"chrome"	"108.0.0"	"FALSE"	"Windows 10"	"61.01"	"143"	n/a	n/a	n/a	n/a	n/a	n/a	"fixation"	n/a	n/a	n/a	n/a	"NULL"	n/a	"NULL"	"NULL"	"NULL"	"<p style=\"color: black; font-size: 80px; padding-left: 39%; padding-right: 10%; padding-top: 44%; padding-bottom: 35%\">+</p>"	"1252"	n/a	n/a	n/a	n/a	n/a	n/a	n/a	n/a	n/a
n/a	"image-keyboard-response"	"102"	"200071"	"0.0-5.0-2.0-1.24"	"ge76zf"	"600"	"1366"	"chrome"	"108.0.0"	"FALSE"	"Windows 10"	"61.01"	"143"	n/a	n/a	n/a	n/a	n/a	n/a	"Trial"	n/a	n/a	n/a	"748"	"arrowright"	n/a	"NULL"	"NULL"	"NULL"	"stimuli/Ebbinghaus_0.61429_-0.2150.png"	n/a	"Ebbinghaus"	"arrowright"	"1266"	"TRUE"	"Ebbinghaus"	"0.6142900000"	"-0.215000000"	"1"	"43"
n/a	"html-keyboard-response"	"103"	"201179"	"0.0-5.0-2.0-0.25"	"ge76zf"	"600"	"1366"	"chrome"	"108.0.0"	"FALSE"	"Windows 10"	"61.01"	"143"	n/a	n/a	n/a	n/a	n/a	n/a	"fixation"	n/a	n/a	n/a	n/a	"NULL"	n/a	"NULL"	"NULL"	"NULL"	"<p style=\"color: black; font-size: 80px; padding-left: 45%; padding-right: 5%; padding-top: 0%; padding-bottom: 12%\">+</p>"	"1086"	n/a	n/a	n/a	n/a	n/a	n/a	n/a	n/a	n/a
n/a	"image-keyboard-response"	"104"	"202033"	"0.0-5.0-2.0-1.25"	"ge76zf"	"600"	"1366"	"chrome"	"108.0.0"	"FALSE"	"Windows 10"	"61.01"	"143"	n/a	n/a	n/a	n/a	n/a	n/a	"Trial"	n/a	n/a	n/a	"852"	"arrowright"	n/a	"NULL"	"NULL"	"NULL"	"stimuli/Ebbinghaus_0.61429_0.11071.png"	n/a	"Ebbinghaus"	"arrowleft"	"1108"	"FALSE"	"Ebbinghaus"	"0.6142900000"	"0.1107100000"	"1"	"44"
n/a	"html-keyboard-response"	"105"	"203276"	"0.0-5.0-2.0-0.26"	"ge76zf"	"600"	"1366"	"chrome"	"108.0.0"	"FALSE"	"Windows 10"	"61.01"	"143"	n/a	n/a	n/a	n/a	n/a	n/a	"fixation"	n/a	n/a	n/a	n/a	"NULL"	n/a	"NULL"	"NULL"	"NULL"	"<p style=\"color: black; font-size: 80px; padding-left: 34%; padding-right: 39%; padding-top: 7%; padding-bottom: 37%\">+</p>"	"1232"	n/a	n/a	n/a	n/a	n/a	n/a	n/a	n/a	n/a
n/a	"image-keyboard-response"	"106"	"203945"	"0.0-5.0-2.0-1.26"	"ge76zf"	"600"	"1366"	"chrome"	"108.0.0"	"FALSE"	"Windows 10"	"61.01"	"143"	n/a	n/a	n/a	n/a	n/a	n/a	"Trial"	n/a	n/a	n/a	"667"	"arrowright"	n/a	"NULL"	"NULL"	"NULL"	"stimuli/Ebbinghaus_-0.61429_-0.2150.png"	n/a	"Ebbinghaus"	"arrowright"	"1243"	"TRUE"	"Ebbinghaus"	"-0.614290000"	"-0.215000000"	"1"	"45"
n/a	"html-keyboard-response"	"107"	"205300"	"0.0-5.0-2.0-0.27"	"ge76zf"	"600"	"1366"	"chrome"	"108.0.0"	"FALSE"	"Windows 10"	"61.01"	"143"	n/a	n/a	n/a	n/a	n/a	n/a	"fixation"	n/a	n/a	n/a	n/a	"NULL"	n/a	"NULL"	"NULL"	"NULL"	"<p style=\"color: black; font-size: 80px; padding-left: 22%; padding-right: 39%; padding-top: 34%; padding-bottom: 32%\">+</p>"	"1343"	n/a	n/a	n/a	n/a	n/a	n/a	n/a	n/a	n/a
n/a	"image-keyboard-response"	"108"	"206224"	"0.0-5.0-2.0-1.27"	"ge76zf"	"600"	"1366"	"chrome"	"108.0.0"	"FALSE"	"Windows 10"	"61.01"	"143"	n/a	n/a	n/a	n/a	n/a	n/a	"Trial"	n/a	n/a	n/a	"922"	"arrowleft"	n/a	"NULL"	"NULL"	"NULL"	"stimuli/Ebbinghaus_0.35714_0.15857.png"	n/a	"Ebbinghaus"	"arrowleft"	"1355"	"TRUE"	"Ebbinghaus"	"0.3571400000"	"0.1585700000"	"1"	"46"
n/a	"html-keyboard-response"	"109"	"207472"	"0.0-5.0-2.0-0.28"	"ge76zf"	"600"	"1366"	"chrome"	"108.0.0"	"FALSE"	"Windows 10"	"61.01"	"143"	n/a	n/a	n/a	n/a	n/a	n/a	"fixation"	n/a	n/a	n/a	n/a	"NULL"	n/a	"NULL"	"NULL"	"NULL"	"<p style=\"color: black; font-size: 80px; padding-left: 26%; padding-right: 27%; padding-top: 11%; padding-bottom: 15%\">+</p>"	"1240"	n/a	n/a	n/a	n/a	n/a	n/a	n/a	n/a	n/a
n/a	"image-keyboard-response"	"110"	"208367"	"0.0-5.0-2.0-1.28"	"ge76zf"	"600"	"1366"	"chrome"	"108.0.0"	"FALSE"	"Windows 10"	"61.01"	"143"	n/a	n/a	n/a	n/a	n/a	n/a	"Trial"	n/a	n/a	n/a	"894"	"arrowright"	n/a	"NULL"	"NULL"	"NULL"	"stimuli/Ebbinghaus_0.87143_0.11071.png"	n/a	"Ebbinghaus"	"arrowleft"	"1248"	"FALSE"	"Ebbinghaus"	"0.8714300000"	"0.1107100000"	"1"	"47"
n/a	"html-keyboard-response"	"111"	"209676"	"0.0-5.0-2.0-0.29"	"ge76zf"	"600"	"1366"	"chrome"	"108.0.0"	"FALSE"	"Windows 10"	"61.01"	"143"	n/a	n/a	n/a	n/a	n/a	n/a	"fixation"	n/a	n/a	n/a	n/a	"NULL"	n/a	"NULL"	"NULL"	"NULL"	"<p style=\"color: black; font-size: 80px; padding-left: 41%; padding-right: 25%; padding-top: 36%; padding-bottom: 16%\">+</p>"	"1294"	n/a	n/a	n/a	n/a	n/a	n/a	n/a	n/a	n/a
n/a	"image-keyboard-response"	"112"	"210291"	"0.0-5.0-2.0-1.29"	"ge76zf"	"600"	"1366"	"chrome"	"108.0.0"	"FALSE"	"Windows 10"	"61.01"	"143"	n/a	n/a	n/a	n/a	n/a	n/a	"Trial"	n/a	n/a	n/a	"613"	"arrowleft"	n/a	"NULL"	"NULL"	"NULL"	"stimuli/Ebbinghaus_0.35714_0.28000.png"	n/a	"Ebbinghaus"	"arrowleft"	"1309"	"TRUE"	"Ebbinghaus"	"0.3571400000"	"0.2800000000"	"1"	"48"
n/a	"html-keyboard-response"	"113"	"211461"	"0.0-5.0-2.0-0.30"	"ge76zf"	"600"	"1366"	"chrome"	"108.0.0"	"FALSE"	"Windows 10"	"61.01"	"143"	n/a	n/a	n/a	n/a	n/a	n/a	"fixation"	n/a	n/a	n/a	n/a	"NULL"	n/a	"NULL"	"NULL"	"NULL"	"<p style=\"color: black; font-size: 80px; padding-left: 46%; padding-right: 40%; padding-top: 7%; padding-bottom: 49%\">+</p>"	"1155"	n/a	n/a	n/a	n/a	n/a	n/a	n/a	n/a	n/a
n/a	"image-keyboard-response"	"114"	"212290"	"0.0-5.0-2.0-1.30"	"ge76zf"	"600"	"1366"	"chrome"	"108.0.0"	"FALSE"	"Windows 10"	"61.01"	"143"	n/a	n/a	n/a	n/a	n/a	n/a	"Trial"	n/a	n/a	n/a	"827"	"arrowleft"	n/a	"NULL"	"NULL"	"NULL"	"stimuli/Ebbinghaus_0.35714_0.11071.png"	n/a	"Ebbinghaus"	"arrowleft"	"1170"	"TRUE"	"Ebbinghaus"	"0.3571400000"	"0.1107100000"	"1"	"49"
n/a	"html-keyboard-response"	"115"	"213567"	"0.0-5.0-2.0-0.31"	"ge76zf"	"600"	"1366"	"chrome"	"108.0.0"	"FALSE"	"Windows 10"	"61.01"	"143"	n/a	n/a	n/a	n/a	n/a	n/a	"fixation"	n/a	n/a	n/a	n/a	"NULL"	n/a	"NULL"	"NULL"	"NULL"	"<p style=\"color: black; font-size: 80px; padding-left: 27%; padding-right: 11%; padding-top: 47%; padding-bottom: 26%\">+</p>"	"1259"	n/a	n/a	n/a	n/a	n/a	n/a	n/a	n/a	n/a
n/a	"image-keyboard-response"	"116"	"214357"	"0.0-5.0-2.0-1.31"	"ge76zf"	"600"	"1366"	"chrome"	"108.0.0"	"FALSE"	"Windows 10"	"61.01"	"143"	n/a	n/a	n/a	n/a	n/a	n/a	"Trial"	n/a	n/a	n/a	"788"	"arrowleft"	n/a	"NULL"	"NULL"	"NULL"	"stimuli/Ebbinghaus_0.10000_0.11071.png"	n/a	"Ebbinghaus"	"arrowleft"	"1277"	"TRUE"	"Ebbinghaus"	"0.1000000000"	"0.1107100000"	"1"	"50"
n/a	"html-keyboard-response"	"117"	"215483"	"0.0-5.0-2.0-0.32"	"ge76zf"	"600"	"1366"	"chrome"	"108.0.0"	"FALSE"	"Windows 10"	"61.01"	"143"	n/a	n/a	n/a	n/a	n/a	n/a	"fixation"	n/a	n/a	n/a	n/a	"NULL"	n/a	"NULL"	"NULL"	"NULL"	"<p style=\"color: black; font-size: 80px; padding-left: 15%; padding-right: 31%; padding-top: 44%; padding-bottom: 19%\">+</p>"	"1104"	n/a	n/a	n/a	n/a	n/a	n/a	n/a	n/a	n/a
n/a	"image-keyboard-response"	"118"	"216367"	"0.0-5.0-2.0-1.32"	"ge76zf"	"600"	"1366"	"chrome"	"108.0.0"	"FALSE"	"Windows 10"	"61.01"	"143"	n/a	n/a	n/a	n/a	n/a	n/a	"Trial"	n/a	n/a	n/a	"882"	"arrowleft"	n/a	"NULL"	"NULL"	"NULL"	"stimuli/Ebbinghaus_-0.61429_0.11071.png"	n/a	"Ebbinghaus"	"arrowleft"	"1126"	"TRUE"	"Ebbinghaus"	"-0.614290000"	"0.1107100000"	"1"	"51"
n/a	"html-keyboard-response"	"119"	"217443"	"0.0-5.0-2.0-0.33"	"ge76zf"	"600"	"1366"	"chrome"	"108.0.0"	"FALSE"	"Windows 10"	"61.01"	"143"	n/a	n/a	n/a	n/a	n/a	n/a	"fixation"	n/a	n/a	n/a	n/a	"NULL"	n/a	"NULL"	"NULL"	"NULL"	"<p style=\"color: black; font-size: 80px; padding-left: 36%; padding-right: 3%; padding-top: 14%; padding-bottom: 24%\">+</p>"	"1056"	n/a	n/a	n/a	n/a	n/a	n/a	n/a	n/a	n/a
n/a	"image-keyboard-response"	"120"	"218160"	"0.0-5.0-2.0-1.33"	"ge76zf"	"600"	"1366"	"chrome"	"108.0.0"	"FALSE"	"Windows 10"	"61.01"	"143"	n/a	n/a	n/a	n/a	n/a	n/a	"Trial"	n/a	n/a	n/a	"715"	"arrowright"	n/a	"NULL"	"NULL"	"NULL"	"stimuli/Ebbinghaus_-0.61429_-0.15857.png"	n/a	"Ebbinghaus"	"arrowright"	"1076"	"TRUE"	"Ebbinghaus"	"-0.614290000"	"-0.158570000"	"1"	"52"
n/a	"html-keyboard-response"	"121"	"219225"	"0.0-5.0-2.0-0.34"	"ge76zf"	"600"	"1366"	"chrome"	"108.0.0"	"FALSE"	"Windows 10"	"61.01"	"143"	n/a	n/a	n/a	n/a	n/a	n/a	"fixation"	n/a	n/a	n/a	n/a	"NULL"	n/a	"NULL"	"NULL"	"NULL"	"<p style=\"color: black; font-size: 80px; padding-left: 23%; padding-right: 4%; padding-top: 32%; padding-bottom: 43%\">+</p>"	"1054"	n/a	n/a	n/a	n/a	n/a	n/a	n/a	n/a	n/a
n/a	"image-keyboard-response"	"122"	"219794"	"0.0-5.0-2.0-1.34"	"ge76zf"	"600"	"1366"	"chrome"	"108.0.0"	"FALSE"	"Windows 10"	"61.01"	"143"	n/a	n/a	n/a	n/a	n/a	n/a	"Trial"	n/a	n/a	n/a	"567"	"arrowright"	n/a	"NULL"	"NULL"	"NULL"	"stimuli/Ebbinghaus_-0.1000_-0.2150.png"	n/a	"Ebbinghaus"	"arrowright"	"1065"	"TRUE"	"Ebbinghaus"	"-0.100000000"	"-0.215000000"	"1"	"53"
n/a	"html-keyboard-response"	"123"	"220906"	"0.0-5.0-2.0-0.35"	"ge76zf"	"600"	"1366"	"chrome"	"108.0.0"	"FALSE"	"Windows 10"	"61.01"	"143"	n/a	n/a	n/a	n/a	n/a	n/a	"fixation"	n/a	n/a	n/a	n/a	"NULL"	n/a	"NULL"	"NULL"	"NULL"	"<p style=\"color: black; font-size: 80px; padding-left: 35%; padding-right: 25%; padding-top: 21%; padding-bottom: 20%\">+</p>"	"1093"	n/a	n/a	n/a	n/a	n/a	n/a	n/a	n/a	n/a
n/a	"image-keyboard-response"	"124"	"221491"	"0.0-5.0-2.0-1.35"	"ge76zf"	"600"	"1366"	"chrome"	"108.0.0"	"FALSE"	"Windows 10"	"61.01"	"143"	n/a	n/a	n/a	n/a	n/a	n/a	"Trial"	n/a	n/a	n/a	"583"	"arrowright"	n/a	"NULL"	"NULL"	"NULL"	"stimuli/Ebbinghaus_-0.1000_-0.2800.png"	n/a	"Ebbinghaus"	"arrowright"	"1112"	"TRUE"	"Ebbinghaus"	"-0.100000000"	"-0.280000000"	"1"	"54"
n/a	"html-keyboard-response"	"125"	"222510"	"0.0-5.0-2.0-0.36"	"ge76zf"	"600"	"1366"	"chrome"	"108.0.0"	"FALSE"	"Windows 10"	"61.01"	"143"	n/a	n/a	n/a	n/a	n/a	n/a	"fixation"	n/a	n/a	n/a	n/a	"NULL"	n/a	"NULL"	"NULL"	"NULL"	"<p style=\"color: black; font-size: 80px; padding-left: 27%; padding-right: 29%; padding-top: 6%; padding-bottom: 49%\">+</p>"	"1017"	n/a	n/a	n/a	n/a	n/a	n/a	n/a	n/a	n/a
n/a	"image-keyboard-response"	"126"	"223170"	"0.0-5.0-2.0-1.36"	"ge76zf"	"600"	"1366"	"chrome"	"108.0.0"	"FALSE"	"Windows 10"	"61.01"	"143"	n/a	n/a	n/a	n/a	n/a	n/a	"Trial"	n/a	n/a	n/a	"659"	"arrowright"	n/a	"NULL"	"NULL"	"NULL"	"stimuli/Ebbinghaus_-0.61429_-0.11071.png"	n/a	"Ebbinghaus"	"arrowright"	"1019"	"TRUE"	"Ebbinghaus"	"-0.614290000"	"-0.110710000"	"1"	"55"
n/a	"html-keyboard-response"	"127"	"224445"	"0.0-5.0-2.0-0.37"	"ge76zf"	"600"	"1366"	"chrome"	"108.0.0"	"FALSE"	"Windows 10"	"61.01"	"143"	n/a	n/a	n/a	n/a	n/a	n/a	"fixation"	n/a	n/a	n/a	n/a	"NULL"	n/a	"NULL"	"NULL"	"NULL"	"<p style=\"color: black; font-size: 80px; padding-left: 15%; padding-right: 20%; padding-top: 47%; padding-bottom: 28%\">+</p>"	"1263"	n/a	n/a	n/a	n/a	n/a	n/a	n/a	n/a	n/a
n/a	"image-keyboard-response"	"128"	"224958"	"0.0-5.0-2.0-1.37"	"ge76zf"	"600"	"1366"	"chrome"	"108.0.0"	"FALSE"	"Windows 10"	"61.01"	"143"	n/a	n/a	n/a	n/a	n/a	n/a	"Trial"	n/a	n/a	n/a	"511"	"arrowright"	n/a	"NULL"	"NULL"	"NULL"	"stimuli/Ebbinghaus_0.61429_-0.2800.png"	n/a	"Ebbinghaus"	"arrowright"	"1275"	"TRUE"	"Ebbinghaus"	"0.6142900000"	"-0.280000000"	"1"	"56"
n/a	"html-keyboard-response"	"129"	"226368"	"0.0-5.0-2.0-0.38"	"ge76zf"	"600"	"1366"	"chrome"	"108.0.0"	"FALSE"	"Windows 10"	"61.01"	"143"	n/a	n/a	n/a	n/a	n/a	n/a	"fixation"	n/a	n/a	n/a	n/a	"NULL"	n/a	"NULL"	"NULL"	"NULL"	"<p style=\"color: black; font-size: 80px; padding-left: 14%; padding-right: 1%; padding-top: 8%; padding-bottom: 12%\">+</p>"	"1402"	n/a	n/a	n/a	n/a	n/a	n/a	n/a	n/a	n/a
n/a	"image-keyboard-response"	"130"	"226977"	"0.0-5.0-2.0-1.38"	"ge76zf"	"600"	"1366"	"chrome"	"108.0.0"	"FALSE"	"Windows 10"	"61.01"	"143"	n/a	n/a	n/a	n/a	n/a	n/a	"Trial"	n/a	n/a	n/a	"608"	"arrowleft"	n/a	"NULL"	"NULL"	"NULL"	"stimuli/Ebbinghaus_0.10000_0.15857.png"	n/a	"Ebbinghaus"	"arrowleft"	"1410"	"TRUE"	"Ebbinghaus"	"0.1000000000"	"0.1585700000"	"1"	"57"
n/a	"html-keyboard-response"	"131"	"228416"	"0.0-5.0-2.0-0.39"	"ge76zf"	"600"	"1366"	"chrome"	"108.0.0"	"FALSE"	"Windows 10"	"61.01"	"143"	n/a	n/a	n/a	n/a	n/a	n/a	"fixation"	n/a	n/a	n/a	n/a	"NULL"	n/a	"NULL"	"NULL"	"NULL"	"<p style=\"color: black; font-size: 80px; padding-left: 49%; padding-right: 22%; padding-top: 26%; padding-bottom: 18%\">+</p>"	"1432"	n/a	n/a	n/a	n/a	n/a	n/a	n/a	n/a	n/a
n/a	"image-keyboard-response"	"132"	"228995"	"0.0-5.0-2.0-1.39"	"ge76zf"	"600"	"1366"	"chrome"	"108.0.0"	"FALSE"	"Windows 10"	"61.01"	"143"	n/a	n/a	n/a	n/a	n/a	n/a	"Trial"	n/a	n/a	n/a	"578"	"arrowright"	n/a	"NULL"	"NULL"	"NULL"	"stimuli/Ebbinghaus_0.10000_-0.11071.png"	n/a	"Ebbinghaus"	"arrowright"	"1439"	"TRUE"	"Ebbinghaus"	"0.1000000000"	"-0.110710000"	"1"	"58"
n/a	"html-keyboard-response"	"133"	"230498"	"0.0-5.0-2.0-0.40"	"ge76zf"	"600"	"1366"	"chrome"	"108.0.0"	"FALSE"	"Windows 10"	"61.01"	"143"	n/a	n/a	n/a	n/a	n/a	n/a	"fixation"	n/a	n/a	n/a	n/a	"NULL"	n/a	"NULL"	"NULL"	"NULL"	"<p style=\"color: black; font-size: 80px; padding-left: 24%; padding-right: 46%; padding-top: 3%; padding-bottom: 44%\">+</p>"	"1493"	n/a	n/a	n/a	n/a	n/a	n/a	n/a	n/a	n/a
n/a	"image-keyboard-response"	"134"	"231036"	"0.0-5.0-2.0-1.40"	"ge76zf"	"600"	"1366"	"chrome"	"108.0.0"	"FALSE"	"Windows 10"	"61.01"	"143"	n/a	n/a	n/a	n/a	n/a	n/a	"Trial"	n/a	n/a	n/a	"536"	"arrowright"	n/a	"NULL"	"NULL"	"NULL"	"stimuli/Ebbinghaus_0.10000_-0.2800.png"	n/a	"Ebbinghaus"	"arrowright"	"1503"	"TRUE"	"Ebbinghaus"	"0.1000000000"	"-0.280000000"	"1"	"59"
n/a	"html-keyboard-response"	"135"	"232370"	"0.0-5.0-2.0-0.41"	"ge76zf"	"600"	"1366"	"chrome"	"108.0.0"	"FALSE"	"Windows 10"	"61.01"	"143"	n/a	n/a	n/a	n/a	n/a	n/a	"fixation"	n/a	n/a	n/a	n/a	"NULL"	n/a	"NULL"	"NULL"	"NULL"	"<p style=\"color: black; font-size: 80px; padding-left: 48%; padding-right: 33%; padding-top: 40%; padding-bottom: 17%\">+</p>"	"1320"	n/a	n/a	n/a	n/a	n/a	n/a	n/a	n/a	n/a
n/a	"image-keyboard-response"	"136"	"232945"	"0.0-5.0-2.0-1.41"	"ge76zf"	"600"	"1366"	"chrome"	"108.0.0"	"FALSE"	"Windows 10"	"61.01"	"143"	n/a	n/a	n/a	n/a	n/a	n/a	"Trial"	n/a	n/a	n/a	"573"	"arrowright"	n/a	"NULL"	"NULL"	"NULL"	"stimuli/Ebbinghaus_-0.87143_-0.15857.png"	n/a	"Ebbinghaus"	"arrowright"	"1334"	"TRUE"	"Ebbinghaus"	"-0.871430000"	"-0.158570000"	"1"	"60"
n/a	"html-keyboard-response"	"137"	"234144"	"0.0-5.0-2.0-0.42"	"ge76zf"	"600"	"1366"	"chrome"	"108.0.0"	"FALSE"	"Windows 10"	"61.01"	"143"	n/a	n/a	n/a	n/a	n/a	n/a	"fixation"	n/a	n/a	n/a	n/a	"NULL"	n/a	"NULL"	"NULL"	"NULL"	"<p style=\"color: black; font-size: 80px; padding-left: 31%; padding-right: 35%; padding-top: 29%; padding-bottom: 32%\">+</p>"	"1181"	n/a	n/a	n/a	n/a	n/a	n/a	n/a	n/a	n/a
n/a	"image-keyboard-response"	"138"	"234688"	"0.0-5.0-2.0-1.42"	"ge76zf"	"600"	"1366"	"chrome"	"108.0.0"	"FALSE"	"Windows 10"	"61.01"	"143"	n/a	n/a	n/a	n/a	n/a	n/a	"Trial"	n/a	n/a	n/a	"543"	"arrowleft"	n/a	"NULL"	"NULL"	"NULL"	"stimuli/Ebbinghaus_-0.87143_0.15857.png"	n/a	"Ebbinghaus"	"arrowleft"	"1199"	"TRUE"	"Ebbinghaus"	"-0.871430000"	"0.1585700000"	"1"	"61"
n/a	"html-keyboard-response"	"139"	"235715"	"0.0-5.0-2.0-0.43"	"ge76zf"	"600"	"1366"	"chrome"	"108.0.0"	"FALSE"	"Windows 10"	"61.01"	"143"	n/a	n/a	n/a	n/a	n/a	n/a	"fixation"	n/a	n/a	n/a	n/a	"NULL"	n/a	"NULL"	"NULL"	"NULL"	"<p style=\"color: black; font-size: 80px; padding-left: 24%; padding-right: 42%; padding-top: 42%; padding-bottom: 7%\">+</p>"	"1019"	n/a	n/a	n/a	n/a	n/a	n/a	n/a	n/a	n/a
n/a	"image-keyboard-response"	"140"	"236246"	"0.0-5.0-2.0-1.43"	"ge76zf"	"600"	"1366"	"chrome"	"108.0.0"	"FALSE"	"Windows 10"	"61.01"	"143"	n/a	n/a	n/a	n/a	n/a	n/a	"Trial"	n/a	n/a	n/a	"529"	"arrowright"	n/a	"NULL"	"NULL"	"NULL"	"stimuli/Ebbinghaus_-0.87143_-0.11071.png"	n/a	"Ebbinghaus"	"arrowright"	"1027"	"TRUE"	"Ebbinghaus"	"-0.871430000"	"-0.110710000"	"1"	"62"
n/a	"html-keyboard-response"	"141"	"237450"	"0.0-5.0-2.0-0.44"	"ge76zf"	"600"	"1366"	"chrome"	"108.0.0"	"FALSE"	"Windows 10"	"61.01"	"143"	n/a	n/a	n/a	n/a	n/a	n/a	"fixation"	n/a	n/a	n/a	n/a	"NULL"	n/a	"NULL"	"NULL"	"NULL"	"<p style=\"color: black; font-size: 80px; padding-left: 37%; padding-right: 30%; padding-top: 19%; padding-bottom: 7%\">+</p>"	"1185"	n/a	n/a	n/a	n/a	n/a	n/a	n/a	n/a	n/a
n/a	"image-keyboard-response"	"142"	"238071"	"0.0-5.0-2.0-1.44"	"ge76zf"	"600"	"1366"	"chrome"	"108.0.0"	"FALSE"	"Windows 10"	"61.01"	"143"	n/a	n/a	n/a	n/a	n/a	n/a	"Trial"	n/a	n/a	n/a	"620"	"arrowleft"	n/a	"NULL"	"NULL"	"NULL"	"stimuli/Ebbinghaus_0.61429_0.15857.png"	n/a	"Ebbinghaus"	"arrowleft"	"1204"	"TRUE"	"Ebbinghaus"	"0.6142900000"	"0.1585700000"	"1"	"63"
n/a	"html-keyboard-response"	"143"	"239309"	"0.0-5.0-2.0-0.45"	"ge76zf"	"600"	"1366"	"chrome"	"108.0.0"	"FALSE"	"Windows 10"	"61.01"	"143"	n/a	n/a	n/a	n/a	n/a	n/a	"fixation"	n/a	n/a	n/a	n/a	"NULL"	n/a	"NULL"	"NULL"	"NULL"	"<p style=\"color: black; font-size: 80px; padding-left: 27%; padding-right: 5%; padding-top: 33%; padding-bottom: 31%\">+</p>"	"1223"	n/a	n/a	n/a	n/a	n/a	n/a	n/a	n/a	n/a
n/a	"image-keyboard-response"	"144"	"239917"	"0.0-5.0-2.0-1.45"	"ge76zf"	"600"	"1366"	"chrome"	"108.0.0"	"FALSE"	"Windows 10"	"61.01"	"143"	n/a	n/a	n/a	n/a	n/a	n/a	"Trial"	n/a	n/a	n/a	"606"	"arrowright"	n/a	"NULL"	"NULL"	"NULL"	"stimuli/Ebbinghaus_-0.35714_-0.11071.png"	n/a	"Ebbinghaus"	"arrowright"	"1238"	"TRUE"	"Ebbinghaus"	"-0.357140000"	"-0.110710000"	"1"	"64"
n/a	"html-keyboard-response"	"145"	"240936"	"0.0-5.0-2.0-0.46"	"ge76zf"	"600"	"1366"	"chrome"	"108.0.0"	"FALSE"	"Windows 10"	"61.01"	"143"	n/a	n/a	n/a	n/a	n/a	n/a	"fixation"	n/a	n/a	n/a	n/a	"NULL"	n/a	"NULL"	"NULL"	"NULL"	"<p style=\"color: black; font-size: 80px; padding-left: 41%; padding-right: 16%; padding-top: 23%; padding-bottom: 5%\">+</p>"	"1014"	n/a	n/a	n/a	n/a	n/a	n/a	n/a	n/a	n/a
n/a	"image-keyboard-response"	"146"	"241468"	"0.0-5.0-2.0-1.46"	"ge76zf"	"600"	"1366"	"chrome"	"108.0.0"	"FALSE"	"Windows 10"	"61.01"	"143"	n/a	n/a	n/a	n/a	n/a	n/a	"Trial"	n/a	n/a	n/a	"530"	"arrowright"	n/a	"NULL"	"NULL"	"NULL"	"stimuli/Ebbinghaus_0.87143_-0.2150.png"	n/a	"Ebbinghaus"	"arrowright"	"1019"	"TRUE"	"Ebbinghaus"	"0.8714300000"	"-0.215000000"	"1"	"65"
n/a	"html-keyboard-response"	"147"	"242846"	"0.0-5.0-2.0-0.47"	"ge76zf"	"600"	"1366"	"chrome"	"108.0.0"	"FALSE"	"Windows 10"	"61.01"	"143"	n/a	n/a	n/a	n/a	n/a	n/a	"fixation"	n/a	n/a	n/a	n/a	"NULL"	n/a	"NULL"	"NULL"	"NULL"	"<p style=\"color: black; font-size: 80px; padding-left: 18%; padding-right: 6%; padding-top: 31%; padding-bottom: 42%\">+</p>"	"1359"	n/a	n/a	n/a	n/a	n/a	n/a	n/a	n/a	n/a
n/a	"image-keyboard-response"	"148"	"243310"	"0.0-5.0-2.0-1.47"	"ge76zf"	"600"	"1366"	"chrome"	"108.0.0"	"FALSE"	"Windows 10"	"61.01"	"143"	n/a	n/a	n/a	n/a	n/a	n/a	"Trial"	n/a	n/a	n/a	"463"	"arrowleft"	n/a	"NULL"	"NULL"	"NULL"	"stimuli/Ebbinghaus_-0.1000_0.11071.png"	n/a	"Ebbinghaus"	"arrowleft"	"1378"	"TRUE"	"Ebbinghaus"	"-0.100000000"	"0.1107100000"	"1"	"66"
n/a	"html-keyboard-response"	"149"	"244468"	"0.0-5.0-2.0-0.48"	"ge76zf"	"600"	"1366"	"chrome"	"108.0.0"	"FALSE"	"Windows 10"	"61.01"	"143"	n/a	n/a	n/a	n/a	n/a	n/a	"fixation"	n/a	n/a	n/a	n/a	"NULL"	n/a	"NULL"	"NULL"	"NULL"	"<p style=\"color: black; font-size: 80px; padding-left: 15%; padding-right: 24%; padding-top: 44%; padding-bottom: 43%\">+</p>"	"1142"	n/a	n/a	n/a	n/a	n/a	n/a	n/a	n/a	n/a
n/a	"image-keyboard-response"	"150"	"244961"	"0.0-5.0-2.0-1.48"	"ge76zf"	"600"	"1366"	"chrome"	"108.0.0"	"FALSE"	"Windows 10"	"61.01"	"143"	n/a	n/a	n/a	n/a	n/a	n/a	"Trial"	n/a	n/a	n/a	"491"	"arrowright"	n/a	"NULL"	"NULL"	"NULL"	"stimuli/Ebbinghaus_0.35714_-0.2800.png"	n/a	"Ebbinghaus"	"arrowright"	"1158"	"TRUE"	"Ebbinghaus"	"0.3571400000"	"-0.280000000"	"1"	"67"
n/a	"html-keyboard-response"	"151"	"246225"	"0.0-5.0-2.0-0.49"	"ge76zf"	"600"	"1366"	"chrome"	"108.0.0"	"FALSE"	"Windows 10"	"61.01"	"143"	n/a	n/a	n/a	n/a	n/a	n/a	"fixation"	n/a	n/a	n/a	n/a	"NULL"	n/a	"NULL"	"NULL"	"NULL"	"<p style=\"color: black; font-size: 80px; padding-left: 23%; padding-right: 8%; padding-top: 3%; padding-bottom: 7%\">+</p>"	"1246"	n/a	n/a	n/a	n/a	n/a	n/a	n/a	n/a	n/a
n/a	"image-keyboard-response"	"152"	"246763"	"0.0-5.0-2.0-1.49"	"ge76zf"	"600"	"1366"	"chrome"	"108.0.0"	"FALSE"	"Windows 10"	"61.01"	"143"	n/a	n/a	n/a	n/a	n/a	n/a	"Trial"	n/a	n/a	n/a	"536"	"arrowleft"	n/a	"NULL"	"NULL"	"NULL"	"stimuli/Ebbinghaus_0.87143_-0.11071.png"	n/a	"Ebbinghaus"	"arrowright"	"1264"	"FALSE"	"Ebbinghaus"	"0.8714300000"	"-0.110710000"	"1"	"68"
n/a	"html-keyboard-response"	"153"	"247798"	"0.0-5.0-2.0-0.50"	"ge76zf"	"600"	"1366"	"chrome"	"108.0.0"	"FALSE"	"Windows 10"	"61.01"	"143"	n/a	n/a	n/a	n/a	n/a	n/a	"fixation"	n/a	n/a	n/a	n/a	"NULL"	n/a	"NULL"	"NULL"	"NULL"	"<p style=\"color: black; font-size: 80px; padding-left: 27%; padding-right: 26%; padding-top: 31%; padding-bottom: 22%\">+</p>"	"1028"	n/a	n/a	n/a	n/a	n/a	n/a	n/a	n/a	n/a
n/a	"image-keyboard-response"	"154"	"248297"	"0.0-5.0-2.0-1.50"	"ge76zf"	"600"	"1366"	"chrome"	"108.0.0"	"FALSE"	"Windows 10"	"61.01"	"143"	n/a	n/a	n/a	n/a	n/a	n/a	"Trial"	n/a	n/a	n/a	"497"	"arrowleft"	n/a	"NULL"	"NULL"	"NULL"	"stimuli/Ebbinghaus_0.10000_0.28000.png"	n/a	"Ebbinghaus"	"arrowleft"	"1035"	"TRUE"	"Ebbinghaus"	"0.1000000000"	"0.2800000000"	"1"	"69"
n/a	"html-keyboard-response"	"155"	"249738"	"0.0-5.0-2.0-0.51"	"ge76zf"	"600"	"1366"	"chrome"	"108.0.0"	"FALSE"	"Windows 10"	"61.01"	"143"	n/a	n/a	n/a	n/a	n/a	n/a	"fixation"	n/a	n/a	n/a	n/a	"NULL"	n/a	"NULL"	"NULL"	"NULL"	"<p style=\"color: black; font-size: 80px; padding-left: 37%; padding-right: 30%; padding-top: 12%; padding-bottom: 45%\">+</p>"	"1423"	n/a	n/a	n/a	n/a	n/a	n/a	n/a	n/a	n/a
n/a	"image-keyboard-response"	"156"	"250551"	"0.0-5.0-2.0-1.51"	"ge76zf"	"600"	"1366"	"chrome"	"108.0.0"	"FALSE"	"Windows 10"	"61.01"	"143"	n/a	n/a	n/a	n/a	n/a	n/a	"Trial"	n/a	n/a	n/a	"812"	"arrowleft"	n/a	"NULL"	"NULL"	"NULL"	"stimuli/Ebbinghaus_0.61429_-0.11071.png"	n/a	"Ebbinghaus"	"arrowright"	"1441"	"FALSE"	"Ebbinghaus"	"0.6142900000"	"-0.110710000"	"1"	"70"
n/a	"html-keyboard-response"	"157"	"251711"	"0.0-5.0-2.0-0.52"	"ge76zf"	"600"	"1366"	"chrome"	"108.0.0"	"FALSE"	"Windows 10"	"61.01"	"143"	n/a	n/a	n/a	n/a	n/a	n/a	"fixation"	n/a	n/a	n/a	n/a	"NULL"	n/a	"NULL"	"NULL"	"NULL"	"<p style=\"color: black; font-size: 80px; padding-left: 4%; padding-right: 14%; padding-top: 44%; padding-bottom: 2%\">+</p>"	"1155"	n/a	n/a	n/a	n/a	n/a	n/a	n/a	n/a	n/a
n/a	"image-keyboard-response"	"158"	"252596"	"0.0-5.0-2.0-1.52"	"ge76zf"	"600"	"1366"	"chrome"	"108.0.0"	"FALSE"	"Windows 10"	"61.01"	"143"	n/a	n/a	n/a	n/a	n/a	n/a	"Trial"	n/a	n/a	n/a	"884"	"arrowright"	n/a	"NULL"	"NULL"	"NULL"	"stimuli/Ebbinghaus_0.35714_-0.11071.png"	n/a	"Ebbinghaus"	"arrowright"	"1160"	"TRUE"	"Ebbinghaus"	"0.3571400000"	"-0.110710000"	"1"	"71"
n/a	"html-keyboard-response"	"159"	"253744"	"0.0-5.0-2.0-0.53"	"ge76zf"	"600"	"1366"	"chrome"	"108.0.0"	"FALSE"	"Windows 10"	"61.01"	"143"	n/a	n/a	n/a	n/a	n/a	n/a	"fixation"	n/a	n/a	n/a	n/a	"NULL"	n/a	"NULL"	"NULL"	"NULL"	"<p style=\"color: black; font-size: 80px; padding-left: 43%; padding-right: 44%; padding-top: 18%; padding-bottom: 49%\">+</p>"	"1140"	n/a	n/a	n/a	n/a	n/a	n/a	n/a	n/a	n/a
n/a	"image-keyboard-response"	"160"	"254497"	"0.0-5.0-2.0-1.53"	"ge76zf"	"600"	"1366"	"chrome"	"108.0.0"	"FALSE"	"Windows 10"	"61.01"	"143"	n/a	n/a	n/a	n/a	n/a	n/a	"Trial"	n/a	n/a	n/a	"750"	"arrowright"	n/a	"NULL"	"NULL"	"NULL"	"stimuli/Ebbinghaus_-0.1000_-0.15857.png"	n/a	"Ebbinghaus"	"arrowright"	"1148"	"TRUE"	"Ebbinghaus"	"-0.100000000"	"-0.158570000"	"1"	"72"
n/a	"html-keyboard-response"	"161"	"255736"	"0.0-5.0-2.0-0.54"	"ge76zf"	"600"	"1366"	"chrome"	"108.0.0"	"FALSE"	"Windows 10"	"61.01"	"143"	n/a	n/a	n/a	n/a	n/a	n/a	"fixation"	n/a	n/a	n/a	n/a	"NULL"	n/a	"NULL"	"NULL"	"NULL"	"<p style=\"color: black; font-size: 80px; padding-left: 2%; padding-right: 19%; padding-top: 9%; padding-bottom: 18%\">+</p>"	"1230"	n/a	n/a	n/a	n/a	n/a	n/a	n/a	n/a	n/a
n/a	"image-keyboard-response"	"162"	"256297"	"0.0-5.0-2.0-1.54"	"ge76zf"	"600"	"1366"	"chrome"	"108.0.0"	"FALSE"	"Windows 10"	"61.01"	"143"	n/a	n/a	n/a	n/a	n/a	n/a	"Trial"	n/a	n/a	n/a	"559"	"arrowright"	n/a	"NULL"	"NULL"	"NULL"	"stimuli/Ebbinghaus_-0.87143_-0.2150.png"	n/a	"Ebbinghaus"	"arrowright"	"1239"	"TRUE"	"Ebbinghaus"	"-0.871430000"	"-0.215000000"	"1"	"73"
n/a	"html-keyboard-response"	"163"	"257394"	"0.0-5.0-2.0-0.55"	"ge76zf"	"600"	"1366"	"chrome"	"108.0.0"	"FALSE"	"Windows 10"	"61.01"	"143"	n/a	n/a	n/a	n/a	n/a	n/a	"fixation"	n/a	n/a	n/a	n/a	"NULL"	n/a	"NULL"	"NULL"	"NULL"	"<p style=\"color: black; font-size: 80px; padding-left: 17%; padding-right: 7%; padding-top: 39%; padding-bottom: 19%\">+</p>"	"1076"	n/a	n/a	n/a	n/a	n/a	n/a	n/a	n/a	n/a
n/a	"image-keyboard-response"	"164"	"257900"	"0.0-5.0-2.0-1.55"	"ge76zf"	"600"	"1366"	"chrome"	"108.0.0"	"FALSE"	"Windows 10"	"61.01"	"143"	n/a	n/a	n/a	n/a	n/a	n/a	"Trial"	n/a	n/a	n/a	"505"	"arrowleft"	n/a	"NULL"	"NULL"	"NULL"	"stimuli/Ebbinghaus_-0.1000_0.15857.png"	n/a	"Ebbinghaus"	"arrowleft"	"1097"	"TRUE"	"Ebbinghaus"	"-0.100000000"	"0.1585700000"	"1"	"74"
n/a	"html-keyboard-response"	"165"	"259400"	"0.0-5.0-2.0-0.56"	"ge76zf"	"600"	"1366"	"chrome"	"108.0.0"	"FALSE"	"Windows 10"	"61.01"	"143"	n/a	n/a	n/a	n/a	n/a	n/a	"fixation"	n/a	n/a	n/a	n/a	"NULL"	n/a	"NULL"	"NULL"	"NULL"	"<p style=\"color: black; font-size: 80px; padding-left: 15%; padding-right: 10%; padding-top: 26%; padding-bottom: 12%\">+</p>"	"1481"	n/a	n/a	n/a	n/a	n/a	n/a	n/a	n/a	n/a
n/a	"image-keyboard-response"	"166"	"259911"	"0.0-5.0-2.0-1.56"	"ge76zf"	"600"	"1366"	"chrome"	"108.0.0"	"FALSE"	"Windows 10"	"61.01"	"143"	n/a	n/a	n/a	n/a	n/a	n/a	"Trial"	n/a	n/a	n/a	"510"	"arrowleft"	n/a	"NULL"	"NULL"	"NULL"	"stimuli/Ebbinghaus_-0.61429_0.28000.png"	n/a	"Ebbinghaus"	"arrowleft"	"1500"	"TRUE"	"Ebbinghaus"	"-0.614290000"	"0.2800000000"	"1"	"75"
n/a	"html-keyboard-response"	"167"	"261115"	"0.0-5.0-2.0-0.57"	"ge76zf"	"600"	"1366"	"chrome"	"108.0.0"	"FALSE"	"Windows 10"	"61.01"	"143"	n/a	n/a	n/a	n/a	n/a	n/a	"fixation"	n/a	n/a	n/a	n/a	"NULL"	n/a	"NULL"	"NULL"	"NULL"	"<p style=\"color: black; font-size: 80px; padding-left: 5%; padding-right: 24%; padding-top: 21%; padding-bottom: 21%\">+</p>"	"1188"	n/a	n/a	n/a	n/a	n/a	n/a	n/a	n/a	n/a
n/a	"image-keyboard-response"	"168"	"261726"	"0.0-5.0-2.0-1.57"	"ge76zf"	"600"	"1366"	"chrome"	"108.0.0"	"FALSE"	"Windows 10"	"61.01"	"143"	n/a	n/a	n/a	n/a	n/a	n/a	"Trial"	n/a	n/a	n/a	"614"	"arrowleft"	n/a	"NULL"	"NULL"	"NULL"	"stimuli/Ebbinghaus_-0.35714_0.11071.png"	n/a	"Ebbinghaus"	"arrowleft"	"1204"	"TRUE"	"Ebbinghaus"	"-0.357140000"	"0.1107100000"	"1"	"76"
n/a	"html-keyboard-response"	"169"	"262924"	"0.0-5.0-2.0-0.58"	"ge76zf"	"600"	"1366"	"chrome"	"108.0.0"	"FALSE"	"Windows 10"	"61.01"	"143"	n/a	n/a	n/a	n/a	n/a	n/a	"fixation"	n/a	n/a	n/a	n/a	"NULL"	n/a	"NULL"	"NULL"	"NULL"	"<p style=\"color: black; font-size: 80px; padding-left: 32%; padding-right: 29%; padding-top: 28%; padding-bottom: 45%\">+</p>"	"1180"	n/a	n/a	n/a	n/a	n/a	n/a	n/a	n/a	n/a
n/a	"image-keyboard-response"	"170"	"263477"	"0.0-5.0-2.0-1.58"	"ge76zf"	"600"	"1366"	"chrome"	"108.0.0"	"FALSE"	"Windows 10"	"61.01"	"143"	n/a	n/a	n/a	n/a	n/a	n/a	"Trial"	n/a	n/a	n/a	"551"	"arrowleft"	n/a	"NULL"	"NULL"	"NULL"	"stimuli/Ebbinghaus_0.61429_0.21500.png"	n/a	"Ebbinghaus"	"arrowleft"	"1198"	"TRUE"	"Ebbinghaus"	"0.6142900000"	"0.2150000000"	"1"	"77"
n/a	"html-keyboard-response"	"171"	"264646"	"0.0-5.0-2.0-0.59"	"ge76zf"	"600"	"1366"	"chrome"	"108.0.0"	"FALSE"	"Windows 10"	"61.01"	"143"	n/a	n/a	n/a	n/a	n/a	n/a	"fixation"	n/a	n/a	n/a	n/a	"NULL"	n/a	"NULL"	"NULL"	"NULL"	"<p style=\"color: black; font-size: 80px; padding-left: 26%; padding-right: 9%; padding-top: 43%; padding-bottom: 6%\">+</p>"	"1156"	n/a	n/a	n/a	n/a	n/a	n/a	n/a	n/a	n/a
n/a	"image-keyboard-response"	"172"	"265174"	"0.0-5.0-2.0-1.59"	"ge76zf"	"600"	"1366"	"chrome"	"108.0.0"	"FALSE"	"Windows 10"	"61.01"	"143"	n/a	n/a	n/a	n/a	n/a	n/a	"Trial"	n/a	n/a	n/a	"527"	"arrowright"	n/a	"NULL"	"NULL"	"NULL"	"stimuli/Ebbinghaus_-0.87143_-0.2800.png"	n/a	"Ebbinghaus"	"arrowright"	"1169"	"TRUE"	"Ebbinghaus"	"-0.871430000"	"-0.280000000"	"1"	"78"
n/a	"html-keyboard-response"	"173"	"266485"	"0.0-5.0-2.0-0.60"	"ge76zf"	"600"	"1366"	"chrome"	"108.0.0"	"FALSE"	"Windows 10"	"61.01"	"143"	n/a	n/a	n/a	n/a	n/a	n/a	"fixation"	n/a	n/a	n/a	n/a	"NULL"	n/a	"NULL"	"NULL"	"NULL"	"<p style=\"color: black; font-size: 80px; padding-left: 40%; padding-right: 12%; padding-top: 15%; padding-bottom: 6%\">+</p>"	"1305"	n/a	n/a	n/a	n/a	n/a	n/a	n/a	n/a	n/a
n/a	"image-keyboard-response"	"174"	"267196"	"0.0-5.0-2.0-1.60"	"ge76zf"	"600"	"1366"	"chrome"	"108.0.0"	"FALSE"	"Windows 10"	"61.01"	"143"	n/a	n/a	n/a	n/a	n/a	n/a	"Trial"	n/a	n/a	n/a	"709"	"arrowleft"	n/a	"NULL"	"NULL"	"NULL"	"stimuli/Ebbinghaus_0.35714_-0.15857.png"	n/a	"Ebbinghaus"	"arrowright"	"1311"	"FALSE"	"Ebbinghaus"	"0.3571400000"	"-0.158570000"	"1"	"79"
n/a	"html-keyboard-response"	"175"	"268688"	"0.0-5.0-2.0-0.61"	"ge76zf"	"600"	"1366"	"chrome"	"108.0.0"	"FALSE"	"Windows 10"	"61.01"	"143"	n/a	n/a	n/a	n/a	n/a	n/a	"fixation"	n/a	n/a	n/a	n/a	"NULL"	n/a	"NULL"	"NULL"	"NULL"	"<p style=\"color: black; font-size: 80px; padding-left: 44%; padding-right: 47%; padding-top: 39%; padding-bottom: 8%\">+</p>"	"1485"	n/a	n/a	n/a	n/a	n/a	n/a	n/a	n/a	n/a
n/a	"image-keyboard-response"	"176"	"269233"	"0.0-5.0-2.0-1.61"	"ge76zf"	"600"	"1366"	"chrome"	"108.0.0"	"FALSE"	"Windows 10"	"61.01"	"143"	n/a	n/a	n/a	n/a	n/a	n/a	"Trial"	n/a	n/a	n/a	"543"	"arrowleft"	n/a	"NULL"	"NULL"	"NULL"	"stimuli/Ebbinghaus_0.10000_0.21500.png"	n/a	"Ebbinghaus"	"arrowleft"	"1492"	"TRUE"	"Ebbinghaus"	"0.1000000000"	"0.2150000000"	"1"	"80"
n/a	"html-keyboard-response"	"177"	"270539"	"0.0-5.0-2.0-0.62"	"ge76zf"	"600"	"1366"	"chrome"	"108.0.0"	"FALSE"	"Windows 10"	"61.01"	"143"	n/a	n/a	n/a	n/a	n/a	n/a	"fixation"	n/a	n/a	n/a	n/a	"NULL"	n/a	"NULL"	"NULL"	"NULL"	"<p style=\"color: black; font-size: 80px; padding-left: 6%; padding-right: 44%; padding-top: 12%; padding-bottom: 45%\">+</p>"	"1286"	n/a	n/a	n/a	n/a	n/a	n/a	n/a	n/a	n/a
n/a	"image-keyboard-response"	"178"	"271111"	"0.0-5.0-2.0-1.62"	"ge76zf"	"600"	"1366"	"chrome"	"108.0.0"	"FALSE"	"Windows 10"	"61.01"	"143"	n/a	n/a	n/a	n/a	n/a	n/a	"Trial"	n/a	n/a	n/a	"568"	"arrowright"	n/a	"NULL"	"NULL"	"NULL"	"stimuli/Ebbinghaus_0.87143_-0.15857.png"	n/a	"Ebbinghaus"	"arrowright"	"1306"	"TRUE"	"Ebbinghaus"	"0.8714300000"	"-0.158570000"	"1"	"81"
n/a	"html-keyboard-response"	"179"	"272372"	"0.0-5.0-2.0-0.63"	"ge76zf"	"600"	"1366"	"chrome"	"108.0.0"	"FALSE"	"Windows 10"	"61.01"	"143"	n/a	n/a	n/a	n/a	n/a	n/a	"fixation"	n/a	n/a	n/a	n/a	"NULL"	n/a	"NULL"	"NULL"	"NULL"	"<p style=\"color: black; font-size: 80px; padding-left: 12%; padding-right: 13%; padding-top: 23%; padding-bottom: 22%\">+</p>"	"1231"	n/a	n/a	n/a	n/a	n/a	n/a	n/a	n/a	n/a
n/a	"image-keyboard-response"	"180"	"272957"	"0.0-5.0-2.0-1.63"	"ge76zf"	"600"	"1366"	"chrome"	"108.0.0"	"FALSE"	"Windows 10"	"61.01"	"143"	n/a	n/a	n/a	n/a	n/a	n/a	"Trial"	n/a	n/a	n/a	"583"	"arrowright"	n/a	"NULL"	"NULL"	"NULL"	"stimuli/Ebbinghaus_0.10000_-0.2150.png"	n/a	"Ebbinghaus"	"arrowright"	"1261"	"TRUE"	"Ebbinghaus"	"0.1000000000"	"-0.215000000"	"1"	"82"
n/a	"html-button-response"	"181"	"294861"	"0.0-5.0-3.0"	"ge76zf"	"600"	"1366"	"chrome"	"108.0.0"	"FALSE"	"Windows 10"	"61.01"	"143"	n/a	n/a	n/a	n/a	n/a	n/a	"block_results"	n/a	n/a	n/a	"21900"	"0"	n/a	"NULL"	"NULL"	"NULL"	"<p>Your score for this illusion is <p style=\"color: black; font-size: 48px; font-weight: bold;\">76.5 %</p><hr><p>Can you do better in the next illusion?</p>"	n/a	n/a	n/a	n/a	n/a	n/a	n/a	n/a	n/a	n/a
"TRUE"	"preload"	"182"	"295048"	"0.0-6.0-0.0"	"ge76zf"	"600"	"1366"	"chrome"	"108.0.0"	"FALSE"	"Windows 10"	"61.01"	"143"	n/a	n/a	n/a	n/a	n/a	n/a	n/a	n/a	n/a	n/a	n/a	"NULL"	"FALSE"	"list()"	"list()"	"list()"	n/a	n/a	n/a	n/a	n/a	n/a	n/a	n/a	n/a	n/a	n/a
n/a	"html-keyboard-response"	"183"	"298882"	"0.0-6.0-1.0"	"ge76zf"	"600"	"1366"	"chrome"	"108.0.0"	"FALSE"	"Windows 10"	"61.01"	"143"	n/a	n/a	n/a	n/a	n/a	n/a	n/a	n/a	n/a	n/a	"3833"	"enter"	n/a	"NULL"	"NULL"	"NULL"	"<p><b>Part 2/6</b></p><p>In this part, two red lines will appear side by side.</p><p>Your task is to tell <b>which line is longer</b> in length, regardless of their orientation, as fast as you can, and without making errors.</p><p>Don't get distracted by the orientation of the lines!</p><p>Press <b>the LEFT or the RIGHT arrow</b> to indicate which <b>line is the longer one.</b></p><div style='float: center'><img src='materials/instructions/VerticalHorizontal_Demo.png' height='300'></img><p><img src='utils/answer/answer_leftright_keyboard.PNG' height='150'></img></p><p class='small'>In this example, the correct answer is the <b>LEFT arrow</b>.</p></div><p>Are you ready? <b>Press ENTER to start</b></p>"	n/a	n/a	n/a	n/a	n/a	n/a	n/a	n/a	n/a	n/a
n/a	"html-keyboard-response"	"184"	"300886"	"0.0-6.0-2.0-0.0"	"ge76zf"	"600"	"1366"	"chrome"	"108.0.0"	"FALSE"	"Windows 10"	"61.01"	"143"	n/a	n/a	n/a	n/a	n/a	n/a	"fixation"	n/a	n/a	n/a	n/a	"NULL"	n/a	"NULL"	"NULL"	"NULL"	"<p style=\"color: black; font-size: 80px; padding-left: 46%; padding-right: 5%; padding-top: 24%; padding-bottom: 42%\">+</p>"	"1485"	n/a	n/a	n/a	n/a	n/a	n/a	n/a	n/a	n/a
n/a	"image-keyboard-response"	"185"	"301590"	"0.0-6.0-2.0-1.0"	"ge76zf"	"600"	"1366"	"chrome"	"108.0.0"	"FALSE"	"Windows 10"	"61.01"	"143"	n/a	n/a	n/a	n/a	n/a	n/a	"Trial"	n/a	n/a	n/a	"703"	"arrowleft"	n/a	"NULL"	"NULL"	"NULL"	"stimuli/VerticalHorizontal_-3.3000_0.22500.png"	n/a	"VerticalHorizontal"	"arrowleft"	"2004"	"TRUE"	"VerticalHorizontal"	"-3.300000000"	"0.2250000000"	"2"	"1"
n/a	"html-keyboard-response"	"186"	"302769"	"0.0-6.0-2.0-0.1"	"ge76zf"	"600"	"1366"	"chrome"	"108.0.0"	"FALSE"	"Windows 10"	"61.01"	"143"	n/a	n/a	n/a	n/a	n/a	n/a	"fixation"	n/a	n/a	n/a	n/a	"NULL"	n/a	"NULL"	"NULL"	"NULL"	"<p style=\"color: black; font-size: 80px; padding-left: 19%; padding-right: 14%; padding-top: 28%; padding-bottom: 5%\">+</p>"	"1171"	n/a	n/a	n/a	n/a	n/a	n/a	n/a	n/a	n/a
n/a	"image-keyboard-response"	"187"	"303241"	"0.0-6.0-2.0-1.1"	"ge76zf"	"600"	"1366"	"chrome"	"108.0.0"	"FALSE"	"Windows 10"	"61.01"	"143"	n/a	n/a	n/a	n/a	n/a	n/a	"Trial"	n/a	n/a	n/a	"471"	"arrowright"	n/a	"NULL"	"NULL"	"NULL"	"stimuli/VerticalHorizontal_-11.78571_-0.16217.png"	n/a	"VerticalHorizontal"	"arrowright"	"1179"	"TRUE"	"VerticalHorizontal"	"-11.78571000"	"-0.162170000"	"2"	"2"
n/a	"html-keyboard-response"	"188"	"304634"	"0.0-6.0-2.0-0.2"	"ge76zf"	"600"	"1366"	"chrome"	"108.0.0"	"FALSE"	"Windows 10"	"61.01"	"143"	n/a	n/a	n/a	n/a	n/a	n/a	"fixation"	n/a	n/a	n/a	n/a	"NULL"	n/a	"NULL"	"NULL"	"NULL"	"<p style=\"color: black; font-size: 80px; padding-left: 28%; padding-right: 42%; padding-top: 49%; padding-bottom: 43%\">+</p>"	"1380"	n/a	n/a	n/a	n/a	n/a	n/a	n/a	n/a	n/a
n/a	"image-keyboard-response"	"189"	"305495"	"0.0-6.0-2.0-1.2"	"ge76zf"	"600"	"1366"	"chrome"	"108.0.0"	"FALSE"	"Windows 10"	"61.01"	"143"	n/a	n/a	n/a	n/a	n/a	n/a	"Trial"	n/a	n/a	n/a	"859"	"arrowright"	n/a	"NULL"	"NULL"	"NULL"	"stimuli/VerticalHorizontal_20.27143_-0.2250.png"	n/a	"VerticalHorizontal"	"arrowright"	"1393"	"TRUE"	"VerticalHorizontal"	"20.271430000"	"-0.225000000"	"2"	"3"
n/a	"html-keyboard-response"	"190"	"306554"	"0.0-6.0-2.0-0.3"	"ge76zf"	"600"	"1366"	"chrome"	"108.0.0"	"FALSE"	"Windows 10"	"61.01"	"143"	n/a	n/a	n/a	n/a	n/a	n/a	"fixation"	n/a	n/a	n/a	n/a	"NULL"	n/a	"NULL"	"NULL"	"NULL"	"<p style=\"color: black; font-size: 80px; padding-left: 14%; padding-right: 37%; padding-top: 2%; padding-bottom: 41%\">+</p>"	"1040"	n/a	n/a	n/a	n/a	n/a	n/a	n/a	n/a	n/a
n/a	"image-keyboard-response"	"191"	"307409"	"0.0-6.0-2.0-1.3"	"ge76zf"	"600"	"1366"	"chrome"	"108.0.0"	"FALSE"	"Windows 10"	"61.01"	"143"	n/a	n/a	n/a	n/a	n/a	n/a	"Trial"	n/a	n/a	n/a	"854"	"arrowleft"	n/a	"NULL"	"NULL"	"NULL"	"stimuli/VerticalHorizontal_-20.27143_0.10960.png"	n/a	"VerticalHorizontal"	"arrowleft"	"1059"	"TRUE"	"VerticalHorizontal"	"-20.27143000"	"0.1096000000"	"2"	"4"
n/a	"html-keyboard-response"	"192"	"308552"	"0.0-6.0-2.0-0.4"	"ge76zf"	"600"	"1366"	"chrome"	"108.0.0"	"FALSE"	"Windows 10"	"61.01"	"143"	n/a	n/a	n/a	n/a	n/a	n/a	"fixation"	n/a	n/a	n/a	n/a	"NULL"	n/a	"NULL"	"NULL"	"NULL"	"<p style=\"color: black; font-size: 80px; padding-left: 29%; padding-right: 6%; padding-top: 35%; padding-bottom: 42%\">+</p>"	"1135"	n/a	n/a	n/a	n/a	n/a	n/a	n/a	n/a	n/a
n/a	"image-keyboard-response"	"193"	"309028"	"0.0-6.0-2.0-1.4"	"ge76zf"	"600"	"1366"	"chrome"	"108.0.0"	"FALSE"	"Windows 10"	"61.01"	"143"	n/a	n/a	n/a	n/a	n/a	n/a	"Trial"	n/a	n/a	n/a	"474"	"arrowleft"	n/a	"NULL"	"NULL"	"NULL"	"stimuli/VerticalHorizontal_-20.27143_0.22500.png"	n/a	"VerticalHorizontal"	"arrowleft"	"1143"	"TRUE"	"VerticalHorizontal"	"-20.27143000"	"0.2250000000"	"2"	"5"
n/a	"html-keyboard-response"	"194"	"310483"	"0.0-6.0-2.0-0.5"	"ge76zf"	"600"	"1366"	"chrome"	"108.0.0"	"FALSE"	"Windows 10"	"61.01"	"143"	n/a	n/a	n/a	n/a	n/a	n/a	"fixation"	n/a	n/a	n/a	n/a	"NULL"	n/a	"NULL"	"NULL"	"NULL"	"<p style=\"color: black; font-size: 80px; padding-left: 47%; padding-right: 35%; padding-top: 11%; padding-bottom: 2%\">+</p>"	"1438"	n/a	n/a	n/a	n/a	n/a	n/a	n/a	n/a	n/a
n/a	"image-keyboard-response"	"195"	"311415"	"0.0-6.0-2.0-1.5"	"ge76zf"	"600"	"1366"	"chrome"	"108.0.0"	"FALSE"	"Windows 10"	"61.01"	"143"	n/a	n/a	n/a	n/a	n/a	n/a	"Trial"	n/a	n/a	n/a	"930"	"arrowleft"	n/a	"NULL"	"NULL"	"NULL"	"stimuli/VerticalHorizontal_20.27143_0.16217.png"	n/a	"VerticalHorizontal"	"arrowleft"	"1455"	"TRUE"	"VerticalHorizontal"	"20.271430000"	"0.1621700000"	"2"	"6"
n/a	"html-keyboard-response"	"196"	"312572"	"0.0-6.0-2.0-0.6"	"ge76zf"	"600"	"1366"	"chrome"	"108.0.0"	"FALSE"	"Windows 10"	"61.01"	"143"	n/a	n/a	n/a	n/a	n/a	n/a	"fixation"	n/a	n/a	n/a	n/a	"NULL"	n/a	"NULL"	"NULL"	"NULL"	"<p style=\"color: black; font-size: 80px; padding-left: 33%; padding-right: 5%; padding-top: 20%; padding-bottom: 40%\">+</p>"	"1149"	n/a	n/a	n/a	n/a	n/a	n/a	n/a	n/a	n/a
n/a	"image-keyboard-response"	"197"	"313455"	"0.0-6.0-2.0-1.6"	"ge76zf"	"600"	"1366"	"chrome"	"108.0.0"	"FALSE"	"Windows 10"	"61.01"	"143"	n/a	n/a	n/a	n/a	n/a	n/a	"Trial"	n/a	n/a	n/a	"882"	"arrowright"	n/a	"NULL"	"NULL"	"NULL"	"stimuli/VerticalHorizontal_3.30000_-0.1096.png"	n/a	"VerticalHorizontal"	"arrowright"	"1157"	"TRUE"	"VerticalHorizontal"	"3.3000000000"	"-0.109600000"	"2"	"7"
n/a	"html-keyboard-response"	"198"	"314597"	"0.0-6.0-2.0-0.7"	"ge76zf"	"600"	"1366"	"chrome"	"108.0.0"	"FALSE"	"Windows 10"	"61.01"	"143"	n/a	n/a	n/a	n/a	n/a	n/a	"fixation"	n/a	n/a	n/a	n/a	"NULL"	n/a	"NULL"	"NULL"	"NULL"	"<p style=\"color: black; font-size: 80px; padding-left: 11%; padding-right: 9%; padding-top: 49%; padding-bottom: 1%\">+</p>"	"1134"	n/a	n/a	n/a	n/a	n/a	n/a	n/a	n/a	n/a
n/a	"image-keyboard-response"	"199"	"315265"	"0.0-6.0-2.0-1.7"	"ge76zf"	"600"	"1366"	"chrome"	"108.0.0"	"FALSE"	"Windows 10"	"61.01"	"143"	n/a	n/a	n/a	n/a	n/a	n/a	"Trial"	n/a	n/a	n/a	"666"	"arrowleft"	n/a	"NULL"	"NULL"	"NULL"	"stimuli/VerticalHorizontal_3.30000_0.16217.png"	n/a	"VerticalHorizontal"	"arrowleft"	"1142"	"TRUE"	"VerticalHorizontal"	"3.3000000000"	"0.1621700000"	"2"	"8"
n/a	"html-keyboard-response"	"200"	"316351"	"0.0-6.0-2.0-0.8"	"ge76zf"	"600"	"1366"	"chrome"	"108.0.0"	"FALSE"	"Windows 10"	"61.01"	"143"	n/a	n/a	n/a	n/a	n/a	n/a	"fixation"	n/a	n/a	n/a	n/a	"NULL"	n/a	"NULL"	"NULL"	"NULL"	"<p style=\"color: black; font-size: 80px; padding-left: 6%; padding-right: 12%; padding-top: 44%; padding-bottom: 36%\">+</p>"	"1076"	n/a	n/a	n/a	n/a	n/a	n/a	n/a	n/a	n/a
n/a	"image-keyboard-response"	"201"	"316957"	"0.0-6.0-2.0-1.8"	"ge76zf"	"600"	"1366"	"chrome"	"108.0.0"	"FALSE"	"Windows 10"	"61.01"	"143"	n/a	n/a	n/a	n/a	n/a	n/a	"Trial"	n/a	n/a	n/a	"604"	"arrowright"	n/a	"NULL"	"NULL"	"NULL"	"stimuli/VerticalHorizontal_-3.3000_-0.16217.png"	n/a	"VerticalHorizontal"	"arrowright"	"1086"	"TRUE"	"VerticalHorizontal"	"-3.300000000"	"-0.162170000"	"2"	"9"
n/a	"html-keyboard-response"	"202"	"317985"	"0.0-6.0-2.0-0.9"	"ge76zf"	"600"	"1366"	"chrome"	"108.0.0"	"FALSE"	"Windows 10"	"61.01"	"143"	n/a	n/a	n/a	n/a	n/a	n/a	"fixation"	n/a	n/a	n/a	n/a	"NULL"	n/a	"NULL"	"NULL"	"NULL"	"<p style=\"color: black; font-size: 80px; padding-left: 33%; padding-right: 36%; padding-top: 43%; padding-bottom: 9%\">+</p>"	"1003"	n/a	n/a	n/a	n/a	n/a	n/a	n/a	n/a	n/a
n/a	"image-keyboard-response"	"203"	"318685"	"0.0-6.0-2.0-1.9"	"ge76zf"	"600"	"1366"	"chrome"	"108.0.0"	"FALSE"	"Windows 10"	"61.01"	"143"	n/a	n/a	n/a	n/a	n/a	n/a	"Trial"	n/a	n/a	n/a	"699"	"arrowright"	n/a	"NULL"	"NULL"	"NULL"	"stimuli/VerticalHorizontal_20.27143_-0.1096.png"	n/a	"VerticalHorizontal"	"arrowright"	"1028"	"TRUE"	"VerticalHorizontal"	"20.271430000"	"-0.109600000"	"2"	"10"
n/a	"html-keyboard-response"	"204"	"319953"	"0.0-6.0-2.0-0.10"	"ge76zf"	"600"	"1366"	"chrome"	"108.0.0"	"FALSE"	"Windows 10"	"61.01"	"143"	n/a	n/a	n/a	n/a	n/a	n/a	"fixation"	n/a	n/a	n/a	n/a	"NULL"	n/a	"NULL"	"NULL"	"NULL"	"<p style=\"color: black; font-size: 80px; padding-left: 47%; padding-right: 14%; padding-top: 41%; padding-bottom: 22%\">+</p>"	"1258"	n/a	n/a	n/a	n/a	n/a	n/a	n/a	n/a	n/a
n/a	"image-keyboard-response"	"205"	"320570"	"0.0-6.0-2.0-1.10"	"ge76zf"	"600"	"1366"	"chrome"	"108.0.0"	"FALSE"	"Windows 10"	"61.01"	"143"	n/a	n/a	n/a	n/a	n/a	n/a	"Trial"	n/a	n/a	n/a	"615"	"arrowright"	n/a	"NULL"	"NULL"	"NULL"	"stimuli/VerticalHorizontal_11.78571_-0.2250.png"	n/a	"VerticalHorizontal"	"arrowright"	"1268"	"TRUE"	"VerticalHorizontal"	"11.785710000"	"-0.225000000"	"2"	"11"
n/a	"html-keyboard-response"	"206"	"321673"	"0.0-6.0-2.0-0.11"	"ge76zf"	"600"	"1366"	"chrome"	"108.0.0"	"FALSE"	"Windows 10"	"61.01"	"143"	n/a	n/a	n/a	n/a	n/a	n/a	"fixation"	n/a	n/a	n/a	n/a	"NULL"	n/a	"NULL"	"NULL"	"NULL"	"<p style=\"color: black; font-size: 80px; padding-left: 38%; padding-right: 3%; padding-top: 35%; padding-bottom: 19%\">+</p>"	"1085"	n/a	n/a	n/a	n/a	n/a	n/a	n/a	n/a	n/a
n/a	"image-keyboard-response"	"207"	"322621"	"0.0-6.0-2.0-1.11"	"ge76zf"	"600"	"1366"	"chrome"	"108.0.0"	"FALSE"	"Windows 10"	"61.01"	"143"	n/a	n/a	n/a	n/a	n/a	n/a	"Trial"	n/a	n/a	n/a	"943"	"arrowright"	n/a	"NULL"	"NULL"	"NULL"	"stimuli/VerticalHorizontal_28.75714_-0.2250.png"	n/a	"VerticalHorizontal"	"arrowright"	"1103"	"TRUE"	"VerticalHorizontal"	"28.757140000"	"-0.225000000"	"2"	"12"
n/a	"html-keyboard-response"	"208"	"324118"	"0.0-6.0-2.0-0.12"	"ge76zf"	"600"	"1366"	"chrome"	"108.0.0"	"FALSE"	"Windows 10"	"61.01"	"143"	n/a	n/a	n/a	n/a	n/a	n/a	"fixation"	n/a	n/a	n/a	n/a	"NULL"	n/a	"NULL"	"NULL"	"NULL"	"<p style=\"color: black; font-size: 80px; padding-left: 9%; padding-right: 36%; padding-top: 21%; padding-bottom: 36%\">+</p>"	"1478"	n/a	n/a	n/a	n/a	n/a	n/a	n/a	n/a	n/a
n/a	"image-keyboard-response"	"209"	"325167"	"0.0-6.0-2.0-1.12"	"ge76zf"	"600"	"1366"	"chrome"	"108.0.0"	"FALSE"	"Windows 10"	"61.01"	"143"	n/a	n/a	n/a	n/a	n/a	n/a	"Trial"	n/a	n/a	n/a	"1047"	"arrowleft"	n/a	"NULL"	"NULL"	"NULL"	"stimuli/VerticalHorizontal_11.78571_0.16217.png"	n/a	"VerticalHorizontal"	"arrowleft"	"1497"	"TRUE"	"VerticalHorizontal"	"11.785710000"	"0.1621700000"	"2"	"13"
n/a	"html-keyboard-response"	"210"	"326210"	"0.0-6.0-2.0-0.13"	"ge76zf"	"600"	"1366"	"chrome"	"108.0.0"	"FALSE"	"Windows 10"	"61.01"	"143"	n/a	n/a	n/a	n/a	n/a	n/a	"fixation"	n/a	n/a	n/a	n/a	"NULL"	n/a	"NULL"	"NULL"	"NULL"	"<p style=\"color: black; font-size: 80px; padding-left: 26%; padding-right: 12%; padding-top: 21%; padding-bottom: 41%\">+</p>"	"1032"	n/a	n/a	n/a	n/a	n/a	n/a	n/a	n/a	n/a
n/a	"image-keyboard-response"	"211"	"326814"	"0.0-6.0-2.0-1.13"	"ge76zf"	"600"	"1366"	"chrome"	"108.0.0"	"FALSE"	"Windows 10"	"61.01"	"143"	n/a	n/a	n/a	n/a	n/a	n/a	"Trial"	n/a	n/a	n/a	"602"	"arrowleft"	n/a	"NULL"	"NULL"	"NULL"	"stimuli/VerticalHorizontal_-20.27143_0.16217.png"	n/a	"VerticalHorizontal"	"arrowleft"	"1043"	"TRUE"	"VerticalHorizontal"	"-20.27143000"	"0.1621700000"	"2"	"14"
n/a	"html-keyboard-response"	"212"	"327844"	"0.0-6.0-2.0-0.14"	"ge76zf"	"600"	"1366"	"chrome"	"108.0.0"	"FALSE"	"Windows 10"	"61.01"	"143"	n/a	n/a	n/a	n/a	n/a	n/a	"fixation"	n/a	n/a	n/a	n/a	"NULL"	n/a	"NULL"	"NULL"	"NULL"	"<p style=\"color: black; font-size: 80px; padding-left: 24%; padding-right: 19%; padding-top: 31%; padding-bottom: 47%\">+</p>"	"1027"	n/a	n/a	n/a	n/a	n/a	n/a	n/a	n/a	n/a
n/a	"image-keyboard-response"	"213"	"328365"	"0.0-6.0-2.0-1.14"	"ge76zf"	"600"	"1366"	"chrome"	"108.0.0"	"FALSE"	"Windows 10"	"61.01"	"143"	n/a	n/a	n/a	n/a	n/a	n/a	"Trial"	n/a	n/a	n/a	"520"	"arrowright"	n/a	"NULL"	"NULL"	"NULL"	"stimuli/VerticalHorizontal_-3.3000_-0.2250.png"	n/a	"VerticalHorizontal"	"arrowright"	"1030"	"TRUE"	"VerticalHorizontal"	"-3.300000000"	"-0.225000000"	"2"	"15"
n/a	"html-keyboard-response"	"214"	"329741"	"0.0-6.0-2.0-0.15"	"ge76zf"	"600"	"1366"	"chrome"	"108.0.0"	"FALSE"	"Windows 10"	"61.01"	"143"	n/a	n/a	n/a	n/a	n/a	n/a	"fixation"	n/a	n/a	n/a	n/a	"NULL"	n/a	"NULL"	"NULL"	"NULL"	"<p style=\"color: black; font-size: 80px; padding-left: 44%; padding-right: 4%; padding-top: 18%; padding-bottom: 32%\">+</p>"	"1363"	n/a	n/a	n/a	n/a	n/a	n/a	n/a	n/a	n/a
n/a	"image-keyboard-response"	"215"	"330313"	"0.0-6.0-2.0-1.15"	"ge76zf"	"600"	"1366"	"chrome"	"108.0.0"	"FALSE"	"Windows 10"	"61.01"	"143"	n/a	n/a	n/a	n/a	n/a	n/a	"Trial"	n/a	n/a	n/a	"570"	"arrowleft"	n/a	"NULL"	"NULL"	"NULL"	"stimuli/VerticalHorizontal_28.75714_0.16217.png"	n/a	"VerticalHorizontal"	"arrowleft"	"1376"	"TRUE"	"VerticalHorizontal"	"28.757140000"	"0.1621700000"	"2"	"16"
n/a	"html-keyboard-response"	"216"	"331680"	"0.0-6.0-2.0-0.16"	"ge76zf"	"600"	"1366"	"chrome"	"108.0.0"	"FALSE"	"Windows 10"	"61.01"	"143"	n/a	n/a	n/a	n/a	n/a	n/a	"fixation"	n/a	n/a	n/a	n/a	"NULL"	n/a	"NULL"	"NULL"	"NULL"	"<p style=\"color: black; font-size: 80px; padding-left: 45%; padding-right: 40%; padding-top: 8%; padding-bottom: 43%\">+</p>"	"1349"	n/a	n/a	n/a	n/a	n/a	n/a	n/a	n/a	n/a
n/a	"image-keyboard-response"	"217"	"332167"	"0.0-6.0-2.0-1.16"	"ge76zf"	"600"	"1366"	"chrome"	"108.0.0"	"FALSE"	"Windows 10"	"61.01"	"143"	n/a	n/a	n/a	n/a	n/a	n/a	"Trial"	n/a	n/a	n/a	"486"	"arrowright"	n/a	"NULL"	"NULL"	"NULL"	"stimuli/VerticalHorizontal_-20.27143_-0.16217.png"	n/a	"VerticalHorizontal"	"arrowright"	"1367"	"TRUE"	"VerticalHorizontal"	"-20.27143000"	"-0.162170000"	"2"	"17"
n/a	"html-keyboard-response"	"218"	"333453"	"0.0-6.0-2.0-0.17"	"ge76zf"	"600"	"1366"	"chrome"	"108.0.0"	"FALSE"	"Windows 10"	"61.01"	"143"	n/a	n/a	n/a	n/a	n/a	n/a	"fixation"	n/a	n/a	n/a	n/a	"NULL"	n/a	"NULL"	"NULL"	"NULL"	"<p style=\"color: black; font-size: 80px; padding-left: 1%; padding-right: 1%; padding-top: 2%; padding-bottom: 13%\">+</p>"	"1267"	n/a	n/a	n/a	n/a	n/a	n/a	n/a	n/a	n/a
n/a	"image-keyboard-response"	"219"	"333951"	"0.0-6.0-2.0-1.17"	"ge76zf"	"600"	"1366"	"chrome"	"108.0.0"	"FALSE"	"Windows 10"	"61.01"	"143"	n/a	n/a	n/a	n/a	n/a	n/a	"Trial"	n/a	n/a	n/a	"497"	"arrowleft"	n/a	"NULL"	"NULL"	"NULL"	"stimuli/VerticalHorizontal_-28.75714_0.16217.png"	n/a	"VerticalHorizontal"	"arrowleft"	"1286"	"TRUE"	"VerticalHorizontal"	"-28.75714000"	"0.1621700000"	"2"	"18"
n/a	"html-keyboard-response"	"220"	"335251"	"0.0-6.0-2.0-0.18"	"ge76zf"	"600"	"1366"	"chrome"	"108.0.0"	"FALSE"	"Windows 10"	"61.01"	"143"	n/a	n/a	n/a	n/a	n/a	n/a	"fixation"	n/a	n/a	n/a	n/a	"NULL"	n/a	"NULL"	"NULL"	"NULL"	"<p style=\"color: black; font-size: 80px; padding-left: 43%; padding-right: 29%; padding-top: 16%; padding-bottom: 4%\">+</p>"	"1286"	n/a	n/a	n/a	n/a	n/a	n/a	n/a	n/a	n/a
n/a	"image-keyboard-response"	"221"	"335757"	"0.0-6.0-2.0-1.18"	"ge76zf"	"600"	"1366"	"chrome"	"108.0.0"	"FALSE"	"Windows 10"	"61.01"	"143"	n/a	n/a	n/a	n/a	n/a	n/a	"Trial"	n/a	n/a	n/a	"504"	"arrowleft"	n/a	"NULL"	"NULL"	"NULL"	"stimuli/VerticalHorizontal_3.30000_0.22500.png"	n/a	"VerticalHorizontal"	"arrowleft"	"1300"	"TRUE"	"VerticalHorizontal"	"3.3000000000"	"0.2250000000"	"2"	"19"
n/a	"html-keyboard-response"	"222"	"337244"	"0.0-6.0-2.0-0.19"	"ge76zf"	"600"	"1366"	"chrome"	"108.0.0"	"FALSE"	"Windows 10"	"61.01"	"143"	n/a	n/a	n/a	n/a	n/a	n/a	"fixation"	n/a	n/a	n/a	n/a	"NULL"	n/a	"NULL"	"NULL"	"NULL"	"<p style=\"color: black; font-size: 80px; padding-left: 30%; padding-right: 49%; padding-top: 36%; padding-bottom: 25%\">+</p>"	"1454"	n/a	n/a	n/a	n/a	n/a	n/a	n/a	n/a	n/a
n/a	"image-keyboard-response"	"223"	"337791"	"0.0-6.0-2.0-1.19"	"ge76zf"	"600"	"1366"	"chrome"	"108.0.0"	"FALSE"	"Windows 10"	"61.01"	"143"	n/a	n/a	n/a	n/a	n/a	n/a	"Trial"	n/a	n/a	n/a	"545"	"arrowleft"	n/a	"NULL"	"NULL"	"NULL"	"stimuli/VerticalHorizontal_-11.78571_0.16217.png"	n/a	"VerticalHorizontal"	"arrowleft"	"1487"	"TRUE"	"VerticalHorizontal"	"-11.78571000"	"0.1621700000"	"2"	"20"
n/a	"html-keyboard-response"	"224"	"339223"	"0.0-6.0-2.0-0.20"	"ge76zf"	"600"	"1366"	"chrome"	"108.0.0"	"FALSE"	"Windows 10"	"61.01"	"143"	n/a	n/a	n/a	n/a	n/a	n/a	"fixation"	n/a	n/a	n/a	n/a	"NULL"	n/a	"NULL"	"NULL"	"NULL"	"<p style=\"color: black; font-size: 80px; padding-left: 4%; padding-right: 13%; padding-top: 40%; padding-bottom: 22%\">+</p>"	"1418"	n/a	n/a	n/a	n/a	n/a	n/a	n/a	n/a	n/a
n/a	"image-keyboard-response"	"225"	"339726"	"0.0-6.0-2.0-1.20"	"ge76zf"	"600"	"1366"	"chrome"	"108.0.0"	"FALSE"	"Windows 10"	"61.01"	"143"	n/a	n/a	n/a	n/a	n/a	n/a	"Trial"	n/a	n/a	n/a	"501"	"arrowleft"	n/a	"NULL"	"NULL"	"NULL"	"stimuli/VerticalHorizontal_-28.75714_0.22500.png"	n/a	"VerticalHorizontal"	"arrowleft"	"1432"	"TRUE"	"VerticalHorizontal"	"-28.75714000"	"0.2250000000"	"2"	"21"
n/a	"html-keyboard-response"	"226"	"341166"	"0.0-6.0-2.0-0.21"	"ge76zf"	"600"	"1366"	"chrome"	"108.0.0"	"FALSE"	"Windows 10"	"61.01"	"143"	n/a	n/a	n/a	n/a	n/a	n/a	"fixation"	n/a	n/a	n/a	n/a	"NULL"	n/a	"NULL"	"NULL"	"NULL"	"<p style=\"color: black; font-size: 80px; padding-left: 35%; padding-right: 30%; padding-top: 21%; padding-bottom: 41%\">+</p>"	"1423"	n/a	n/a	n/a	n/a	n/a	n/a	n/a	n/a	n/a
n/a	"image-keyboard-response"	"227"	"341631"	"0.0-6.0-2.0-1.21"	"ge76zf"	"600"	"1366"	"chrome"	"108.0.0"	"FALSE"	"Windows 10"	"61.01"	"143"	n/a	n/a	n/a	n/a	n/a	n/a	"Trial"	n/a	n/a	n/a	"463"	"arrowright"	n/a	"NULL"	"NULL"	"NULL"	"stimuli/VerticalHorizontal_-28.75714_-0.16217.png"	n/a	"VerticalHorizontal"	"arrowright"	"1440"	"TRUE"	"VerticalHorizontal"	"-28.75714000"	"-0.162170000"	"2"	"22"
n/a	"html-keyboard-response"	"228"	"342824"	"0.0-6.0-2.0-0.22"	"ge76zf"	"600"	"1366"	"chrome"	"108.0.0"	"FALSE"	"Windows 10"	"61.01"	"143"	n/a	n/a	n/a	n/a	n/a	n/a	"fixation"	n/a	n/a	n/a	n/a	"NULL"	n/a	"NULL"	"NULL"	"NULL"	"<p style=\"color: black; font-size: 80px; padding-left: 39%; padding-right: 10%; padding-top: 19%; padding-bottom: 11%\">+</p>"	"1178"	n/a	n/a	n/a	n/a	n/a	n/a	n/a	n/a	n/a
n/a	"image-keyboard-response"	"229"	"343599"	"0.0-6.0-2.0-1.22"	"ge76zf"	"600"	"1366"	"chrome"	"108.0.0"	"FALSE"	"Windows 10"	"61.01"	"143"	n/a	n/a	n/a	n/a	n/a	n/a	"Trial"	n/a	n/a	n/a	"774"	"arrowright"	n/a	"NULL"	"NULL"	"NULL"	"stimuli/VerticalHorizontal_28.75714_-0.1096.png"	n/a	"VerticalHorizontal"	"arrowright"	"1193"	"TRUE"	"VerticalHorizontal"	"28.757140000"	"-0.109600000"	"2"	"23"
n/a	"html-keyboard-response"	"230"	"344931"	"0.0-6.0-2.0-0.23"	"ge76zf"	"600"	"1366"	"chrome"	"108.0.0"	"FALSE"	"Windows 10"	"61.01"	"143"	n/a	n/a	n/a	n/a	n/a	n/a	"fixation"	n/a	n/a	n/a	n/a	"NULL"	n/a	"NULL"	"NULL"	"NULL"	"<p style=\"color: black; font-size: 80px; padding-left: 11%; padding-right: 22%; padding-top: 33%; padding-bottom: 43%\">+</p>"	"1327"	n/a	n/a	n/a	n/a	n/a	n/a	n/a	n/a	n/a
n/a	"image-keyboard-response"	"231"	"345735"	"0.0-6.0-2.0-1.23"	"ge76zf"	"600"	"1366"	"chrome"	"108.0.0"	"FALSE"	"Windows 10"	"61.01"	"143"	n/a	n/a	n/a	n/a	n/a	n/a	"Trial"	n/a	n/a	n/a	"802"	"arrowleft"	n/a	"NULL"	"NULL"	"NULL"	"stimuli/VerticalHorizontal_3.30000_0.06730.png"	n/a	"VerticalHorizontal"	"arrowleft"	"1332"	"TRUE"	"VerticalHorizontal"	"3.3000000000"	"0.0673000000"	"2"	"24"
n/a	"html-keyboard-response"	"232"	"347096"	"0.0-6.0-2.0-0.24"	"ge76zf"	"600"	"1366"	"chrome"	"108.0.0"	"FALSE"	"Windows 10"	"61.01"	"143"	n/a	n/a	n/a	n/a	n/a	n/a	"fixation"	n/a	n/a	n/a	n/a	"NULL"	n/a	"NULL"	"NULL"	"NULL"	"<p style=\"color: black; font-size: 80px; padding-left: 27%; padding-right: 44%; padding-top: 24%; padding-bottom: 35%\">+</p>"	"1352"	n/a	n/a	n/a	n/a	n/a	n/a	n/a	n/a	n/a
n/a	"image-keyboard-response"	"233"	"347567"	"0.0-6.0-2.0-1.24"	"ge76zf"	"600"	"1366"	"chrome"	"108.0.0"	"FALSE"	"Windows 10"	"61.01"	"143"	n/a	n/a	n/a	n/a	n/a	n/a	"Trial"	n/a	n/a	n/a	"471"	"arrowleft"	n/a	"NULL"	"NULL"	"NULL"	"stimuli/VerticalHorizontal_28.75714_0.22500.png"	n/a	"VerticalHorizontal"	"arrowleft"	"1361"	"TRUE"	"VerticalHorizontal"	"28.757140000"	"0.2250000000"	"2"	"25"
n/a	"html-keyboard-response"	"234"	"348951"	"0.0-6.0-2.0-0.25"	"ge76zf"	"600"	"1366"	"chrome"	"108.0.0"	"FALSE"	"Windows 10"	"61.01"	"143"	n/a	n/a	n/a	n/a	n/a	n/a	"fixation"	n/a	n/a	n/a	n/a	"NULL"	n/a	"NULL"	"NULL"	"NULL"	"<p style=\"color: black; font-size: 80px; padding-left: 39%; padding-right: 46%; padding-top: 19%; padding-bottom: 35%\">+</p>"	"1369"	n/a	n/a	n/a	n/a	n/a	n/a	n/a	n/a	n/a
n/a	"image-keyboard-response"	"235"	"349422"	"0.0-6.0-2.0-1.25"	"ge76zf"	"600"	"1366"	"chrome"	"108.0.0"	"FALSE"	"Windows 10"	"61.01"	"143"	n/a	n/a	n/a	n/a	n/a	n/a	"Trial"	n/a	n/a	n/a	"470"	"arrowright"	n/a	"NULL"	"NULL"	"NULL"	"stimuli/VerticalHorizontal_-3.3000_-0.1096.png"	n/a	"VerticalHorizontal"	"arrowright"	"1384"	"TRUE"	"VerticalHorizontal"	"-3.300000000"	"-0.109600000"	"2"	"26"
n/a	"html-keyboard-response"	"236"	"350623"	"0.0-6.0-2.0-0.26"	"ge76zf"	"600"	"1366"	"chrome"	"108.0.0"	"FALSE"	"Windows 10"	"61.01"	"143"	n/a	n/a	n/a	n/a	n/a	n/a	"fixation"	n/a	n/a	n/a	n/a	"NULL"	n/a	"NULL"	"NULL"	"NULL"	"<p style=\"color: black; font-size: 80px; padding-left: 33%; padding-right: 29%; padding-top: 30%; padding-bottom: 38%\">+</p>"	"1194"	n/a	n/a	n/a	n/a	n/a	n/a	n/a	n/a	n/a
n/a	"image-keyboard-response"	"237"	"351158"	"0.0-6.0-2.0-1.26"	"ge76zf"	"600"	"1366"	"chrome"	"108.0.0"	"FALSE"	"Windows 10"	"61.01"	"143"	n/a	n/a	n/a	n/a	n/a	n/a	"Trial"	n/a	n/a	n/a	"534"	"arrowright"	n/a	"NULL"	"NULL"	"NULL"	"stimuli/VerticalHorizontal_28.75714_-0.0673.png"	n/a	"VerticalHorizontal"	"arrowright"	"1201"	"TRUE"	"VerticalHorizontal"	"28.757140000"	"-0.067300000"	"2"	"27"
n/a	"html-keyboard-response"	"238"	"352529"	"0.0-6.0-2.0-0.27"	"ge76zf"	"600"	"1366"	"chrome"	"108.0.0"	"FALSE"	"Windows 10"	"61.01"	"143"	n/a	n/a	n/a	n/a	n/a	n/a	"fixation"	n/a	n/a	n/a	n/a	"NULL"	n/a	"NULL"	"NULL"	"NULL"	"<p style=\"color: black; font-size: 80px; padding-left: 0%; padding-right: 21%; padding-top: 9%; padding-bottom: 34%\">+</p>"	"1356"	n/a	n/a	n/a	n/a	n/a	n/a	n/a	n/a	n/a
n/a	"image-keyboard-response"	"239"	"353244"	"0.0-6.0-2.0-1.27"	"ge76zf"	"600"	"1366"	"chrome"	"108.0.0"	"FALSE"	"Windows 10"	"61.01"	"143"	n/a	n/a	n/a	n/a	n/a	n/a	"Trial"	n/a	n/a	n/a	"713"	"arrowleft"	n/a	"NULL"	"NULL"	"NULL"	"stimuli/VerticalHorizontal_28.75714_0.06730.png"	n/a	"VerticalHorizontal"	"arrowleft"	"1371"	"TRUE"	"VerticalHorizontal"	"28.757140000"	"0.0673000000"	"2"	"28"
n/a	"html-keyboard-response"	"240"	"354320"	"0.0-6.0-2.0-0.28"	"ge76zf"	"600"	"1366"	"chrome"	"108.0.0"	"FALSE"	"Windows 10"	"61.01"	"143"	n/a	n/a	n/a	n/a	n/a	n/a	"fixation"	n/a	n/a	n/a	n/a	"NULL"	n/a	"NULL"	"NULL"	"NULL"	"<p style=\"color: black; font-size: 80px; padding-left: 32%; padding-right: 42%; padding-top: 29%; padding-bottom: 35%\">+</p>"	"1064"	n/a	n/a	n/a	n/a	n/a	n/a	n/a	n/a	n/a
n/a	"image-keyboard-response"	"241"	"354997"	"0.0-6.0-2.0-1.28"	"ge76zf"	"600"	"1366"	"chrome"	"108.0.0"	"FALSE"	"Windows 10"	"61.01"	"143"	n/a	n/a	n/a	n/a	n/a	n/a	"Trial"	n/a	n/a	n/a	"675"	"arrowright"	n/a	"NULL"	"NULL"	"NULL"	"stimuli/VerticalHorizontal_3.30000_-0.16217.png"	n/a	"VerticalHorizontal"	"arrowright"	"1076"	"TRUE"	"VerticalHorizontal"	"3.3000000000"	"-0.162170000"	"2"	"29"
n/a	"html-keyboard-response"	"242"	"356320"	"0.0-6.0-2.0-0.29"	"ge76zf"	"600"	"1366"	"chrome"	"108.0.0"	"FALSE"	"Windows 10"	"61.01"	"143"	n/a	n/a	n/a	n/a	n/a	n/a	"fixation"	n/a	n/a	n/a	n/a	"NULL"	n/a	"NULL"	"NULL"	"NULL"	"<p style=\"color: black; font-size: 80px; padding-left: 23%; padding-right: 1%; padding-top: 34%; padding-bottom: 29%\">+</p>"	"1313"	n/a	n/a	n/a	n/a	n/a	n/a	n/a	n/a	n/a
n/a	"image-keyboard-response"	"243"	"356896"	"0.0-6.0-2.0-1.29"	"ge76zf"	"600"	"1366"	"chrome"	"108.0.0"	"FALSE"	"Windows 10"	"61.01"	"143"	n/a	n/a	n/a	n/a	n/a	n/a	"Trial"	n/a	n/a	n/a	"575"	"arrowright"	n/a	"NULL"	"NULL"	"NULL"	"stimuli/VerticalHorizontal_-11.78571_-0.2250.png"	n/a	"VerticalHorizontal"	"arrowright"	"1323"	"TRUE"	"VerticalHorizontal"	"-11.78571000"	"-0.225000000"	"2"	"30"
n/a	"html-keyboard-response"	"244"	"358180"	"0.0-6.0-2.0-0.30"	"ge76zf"	"600"	"1366"	"chrome"	"108.0.0"	"FALSE"	"Windows 10"	"61.01"	"143"	n/a	n/a	n/a	n/a	n/a	n/a	"fixation"	n/a	n/a	n/a	n/a	"NULL"	n/a	"NULL"	"NULL"	"NULL"	"<p style=\"color: black; font-size: 80px; padding-left: 27%; padding-right: 43%; padding-top: 29%; padding-bottom: 14%\">+</p>"	"1270"	n/a	n/a	n/a	n/a	n/a	n/a	n/a	n/a	n/a
n/a	"image-keyboard-response"	"245"	"358783"	"0.0-6.0-2.0-1.30"	"ge76zf"	"600"	"1366"	"chrome"	"108.0.0"	"FALSE"	"Windows 10"	"61.01"	"143"	n/a	n/a	n/a	n/a	n/a	n/a	"Trial"	n/a	n/a	n/a	"602"	"arrowleft"	n/a	"NULL"	"NULL"	"NULL"	"stimuli/VerticalHorizontal_20.27143_0.06730.png"	n/a	"VerticalHorizontal"	"arrowleft"	"1284"	"TRUE"	"VerticalHorizontal"	"20.271430000"	"0.0673000000"	"2"	"31"
n/a	"html-keyboard-response"	"246"	"359844"	"0.0-6.0-2.0-0.31"	"ge76zf"	"600"	"1366"	"chrome"	"108.0.0"	"FALSE"	"Windows 10"	"61.01"	"143"	n/a	n/a	n/a	n/a	n/a	n/a	"fixation"	n/a	n/a	n/a	n/a	"NULL"	n/a	"NULL"	"NULL"	"NULL"	"<p style=\"color: black; font-size: 80px; padding-left: 6%; padding-right: 18%; padding-top: 15%; padding-bottom: 36%\">+</p>"	"1046"	n/a	n/a	n/a	n/a	n/a	n/a	n/a	n/a	n/a
n/a	"image-keyboard-response"	"247"	"360940"	"0.0-6.0-2.0-1.31"	"ge76zf"	"600"	"1366"	"chrome"	"108.0.0"	"FALSE"	"Windows 10"	"61.01"	"143"	n/a	n/a	n/a	n/a	n/a	n/a	"Trial"	n/a	n/a	n/a	"1094"	"arrowright"	n/a	"NULL"	"NULL"	"NULL"	"stimuli/VerticalHorizontal_-3.3000_-0.0673.png"	n/a	"VerticalHorizontal"	"arrowright"	"1061"	"TRUE"	"VerticalHorizontal"	"-3.300000000"	"-0.067300000"	"2"	"32"
n/a	"html-keyboard-response"	"248"	"362189"	"0.0-6.0-2.0-0.32"	"ge76zf"	"600"	"1366"	"chrome"	"108.0.0"	"FALSE"	"Windows 10"	"61.01"	"143"	n/a	n/a	n/a	n/a	n/a	n/a	"fixation"	n/a	n/a	n/a	n/a	"NULL"	n/a	"NULL"	"NULL"	"NULL"	"<p style=\"color: black; font-size: 80px; padding-left: 42%; padding-right: 41%; padding-top: 36%; padding-bottom: 3%\">+</p>"	"1242"	n/a	n/a	n/a	n/a	n/a	n/a	n/a	n/a	n/a
n/a	"image-keyboard-response"	"249"	"362723"	"0.0-6.0-2.0-1.32"	"ge76zf"	"600"	"1366"	"chrome"	"108.0.0"	"FALSE"	"Windows 10"	"61.01"	"143"	n/a	n/a	n/a	n/a	n/a	n/a	"Trial"	n/a	n/a	n/a	"532"	"arrowleft"	n/a	"NULL"	"NULL"	"NULL"	"stimuli/VerticalHorizontal_-11.78571_0.22500.png"	n/a	"VerticalHorizontal"	"arrowleft"	"1249"	"TRUE"	"VerticalHorizontal"	"-11.78571000"	"0.2250000000"	"2"	"33"
n/a	"html-keyboard-response"	"250"	"363828"	"0.0-6.0-2.0-0.33"	"ge76zf"	"600"	"1366"	"chrome"	"108.0.0"	"FALSE"	"Windows 10"	"61.01"	"143"	n/a	n/a	n/a	n/a	n/a	n/a	"fixation"	n/a	n/a	n/a	n/a	"NULL"	n/a	"NULL"	"NULL"	"NULL"	"<p style=\"color: black; font-size: 80px; padding-left: 45%; padding-right: 38%; padding-top: 11%; padding-bottom: 7%\">+</p>"	"1100"	n/a	n/a	n/a	n/a	n/a	n/a	n/a	n/a	n/a
