"success"	"trial_type"	"trial_index"	"time_elapsed"	"internal_node_id"	"participant_id"	"screen_height"	"screen_width"	"browser"	"browser_version"	"mobile"	"os"	"vsync_rate"	"subject_id"	"width"	"height"	"webaudio"	"fullscreen"	"webcam"	"microphone"	"screen"	"version"	"date"	"time"	"rt"	"response"	"timeout"	"failed_images"	"failed_audio"	"failed_video"	"stimulus"	"trial_duration"	"block"	"correct_response"	"prestimulus_duration"	"correct"	"type"	"illusion_strength"	"illusion_difference"	"block_number"	"trial_number"
"TRUE"	"fullscreen"	"0"	"39119"	"0.0-0.0"	"dxk624"	"657"	"1366"	"chrome"	"109.0.0"	"FALSE"	"Windows 10"	"60.92"	"012"	n/a	n/a	n/a	n/a	n/a	n/a	n/a	n/a	n/a	n/a	n/a	"NULL"	n/a	"NULL"	"NULL"	"NULL"	n/a	n/a	n/a	n/a	n/a	n/a	n/a	n/a	n/a	n/a	n/a
n/a	"browser-check"	"1"	"40117"	"0.0-1.0"	"dxk624"	"657"	"1366"	"chrome"	"109.0.0"	"FALSE"	"Windows 10"	"60.92"	"012"	"1366"	"657"	"TRUE"	"TRUE"	"TRUE"	"TRUE"	"browser_info"	"1.0"	"01/02/2023"	"18:19:56"	n/a	"NULL"	n/a	"NULL"	"NULL"	"NULL"	n/a	n/a	n/a	n/a	n/a	n/a	n/a	n/a	n/a	n/a	n/a
n/a	"survey-text"	"2"	"49803"	"0.0-2.0"	"dxk624"	"657"	"1366"	"chrome"	"109.0.0"	"FALSE"	"Windows 10"	"60.92"	"012"	n/a	n/a	n/a	n/a	n/a	n/a	"subject_id"	n/a	n/a	n/a	"9684"	"list(subject_id = \"012\")"	n/a	"NULL"	"NULL"	"NULL"	n/a	n/a	n/a	n/a	n/a	n/a	n/a	n/a	n/a	n/a	n/a
"TRUE"	"preload"	"3"	"49817"	"0.0-3.0"	"dxk624"	"657"	"1366"	"chrome"	"109.0.0"	"FALSE"	"Windows 10"	"60.92"	"012"	n/a	n/a	n/a	n/a	n/a	n/a	n/a	n/a	n/a	n/a	n/a	"NULL"	"FALSE"	"list()"	"list()"	"list()"	n/a	n/a	n/a	n/a	n/a	n/a	n/a	n/a	n/a	n/a	n/a
n/a	"html-button-response"	"4"	"115364"	"0.0-4.0-0.0"	"dxk624"	"657"	"1366"	"chrome"	"109.0.0"	"FALSE"	"Windows 10"	"60.92"	"012"	n/a	n/a	n/a	n/a	n/a	n/a	"illusion_instructions"	n/a	n/a	n/a	"65545"	"0"	n/a	"NULL"	"NULL"	"NULL"	"<p><b>Illusion Game</b></p><p>In this game of speed and reflex, you will need to make <b>visual judgments</b> (for instance, which circle is the biggest, or which line is the longest), as fast and as correctly as possible, while <b>resisting different visual illusions</b>.</p><p>We are going to start with some examples of all the illusions you will encounter in the game.</p>"	n/a	n/a	n/a	n/a	n/a	n/a	n/a	n/a	n/a	n/a
"TRUE"	"preload"	"5"	"115392"	"0.0-4.0-1.0-0.0"	"dxk624"	"657"	"1366"	"chrome"	"109.0.0"	"FALSE"	"Windows 10"	"60.92"	"012"	n/a	n/a	n/a	n/a	n/a	n/a	n/a	n/a	n/a	n/a	n/a	"NULL"	"FALSE"	"list()"	"list()"	"list()"	n/a	n/a	n/a	n/a	n/a	n/a	n/a	n/a	n/a	n/a	n/a
n/a	"html-keyboard-response"	"6"	"141345"	"0.0-4.0-1.0-1.0"	"dxk624"	"657"	"1366"	"chrome"	"109.0.0"	"FALSE"	"Windows 10"	"60.92"	"012"	n/a	n/a	n/a	n/a	n/a	n/a	n/a	n/a	n/a	n/a	"25951"	"enter"	n/a	"NULL"	"NULL"	"NULL"	"<p><b>Practice</b></p><p>In this part, two red circles will appear side by side on the screen.</p><p>Your task is to select which <b>red circle is bigger</b> in size as fast as you can, without making errors.</p><p>Don't get distracted by the surrounding black circles around the red circles!</p><p>Press <b>the LEFT or the RIGHT arrow</b> to indicate which is the bigger <b>red circle.</b></p><div style='float: center'><img src='materials/instructions/Ebbinghaus_Demo.png' height='300'></img><p><img src='utils/answer/answer_leftright_keyboard.PNG' height='150'></img></p><p class='small'>In this example, the correct answer is the <b>LEFT arrow</b>.</p></div><p>Are you ready? <b>Press ENTER to start</b></p>"	n/a	n/a	n/a	n/a	n/a	n/a	n/a	n/a	n/a	n/a
n/a	"html-keyboard-response"	"7"	"143358"	"0.0-4.0-1.0-2.0-0.0"	"dxk624"	"657"	"1366"	"chrome"	"109.0.0"	"FALSE"	"Windows 10"	"60.92"	"012"	n/a	n/a	n/a	n/a	n/a	n/a	"fixation"	n/a	n/a	n/a	n/a	"NULL"	n/a	"NULL"	"NULL"	"NULL"	"<p style=\"color: black; font-size: 80px; padding-left: 34%; padding-right: 29%; padding-top: 23%; padding-bottom: 26%\">+</p>"	"1488"	n/a	n/a	n/a	n/a	n/a	n/a	n/a	n/a	n/a
n/a	"image-keyboard-response"	"8"	"144098"	"0.0-4.0-1.0-2.0-1.0"	"dxk624"	"657"	"1366"	"chrome"	"109.0.0"	"FALSE"	"Windows 10"	"60.92"	"012"	n/a	n/a	n/a	n/a	n/a	n/a	"Trial"	n/a	n/a	n/a	"721"	"arrowleft"	n/a	"NULL"	"NULL"	"NULL"	"stimuli/Ebbinghaus_1000000_1.40000.png"	n/a	"Ebbinghaus"	"arrowleft"	"2013"	"TRUE"	"Ebbinghaus"	"100000000000"	"1.4000000000"	"1"	"1"
n/a	"html-keyboard-response"	"9"	"145301"	"0.0-4.0-1.0-2.0-0.1"	"dxk624"	"657"	"1366"	"chrome"	"109.0.0"	"FALSE"	"Windows 10"	"60.92"	"012"	n/a	n/a	n/a	n/a	n/a	n/a	"fixation"	n/a	n/a	n/a	n/a	"NULL"	n/a	"NULL"	"NULL"	"NULL"	"<p style=\"color: black; font-size: 80px; padding-left: 23%; padding-right: 13%; padding-top: 26%; padding-bottom: 43%\">+</p>"	"1191"	n/a	n/a	n/a	n/a	n/a	n/a	n/a	n/a	n/a
n/a	"image-keyboard-response"	"10"	"145839"	"0.0-4.0-1.0-2.0-1.1"	"dxk624"	"657"	"1366"	"chrome"	"109.0.0"	"FALSE"	"Windows 10"	"60.92"	"012"	n/a	n/a	n/a	n/a	n/a	n/a	"Trial"	n/a	n/a	n/a	"537"	"arrowright"	n/a	"NULL"	"NULL"	"NULL"	"stimuli/Ebbinghaus_1000000_-1.4000.png"	n/a	"Ebbinghaus"	"arrowright"	"1203"	"TRUE"	"Ebbinghaus"	"100000000000"	"-1.400000000"	"1"	"2"
n/a	"html-keyboard-response"	"11"	"147015"	"0.0-4.0-1.0-2.0-0.2"	"dxk624"	"657"	"1366"	"chrome"	"109.0.0"	"FALSE"	"Windows 10"	"60.92"	"012"	n/a	n/a	n/a	n/a	n/a	n/a	"fixation"	n/a	n/a	n/a	n/a	"NULL"	n/a	"NULL"	"NULL"	"NULL"	"<p style=\"color: black; font-size: 80px; padding-left: 5%; padding-right: 39%; padding-top: 31%; padding-bottom: 28%\">+</p>"	"1160"	n/a	n/a	n/a	n/a	n/a	n/a	n/a	n/a	n/a
n/a	"image-keyboard-response"	"12"	"147499"	"0.0-4.0-1.0-2.0-1.2"	"dxk624"	"657"	"1366"	"chrome"	"109.0.0"	"FALSE"	"Windows 10"	"60.92"	"012"	n/a	n/a	n/a	n/a	n/a	n/a	"Trial"	n/a	n/a	n/a	"483"	"arrowleft"	n/a	"NULL"	"NULL"	"NULL"	"stimuli/Ebbinghaus_-100000_1.40000.png"	n/a	"Ebbinghaus"	"arrowleft"	"1176"	"TRUE"	"Ebbinghaus"	"-10000000000"	"1.4000000000"	"1"	"3"
n/a	"html-keyboard-response"	"13"	"148678"	"0.0-4.0-1.0-2.0-0.3"	"dxk624"	"657"	"1366"	"chrome"	"109.0.0"	"FALSE"	"Windows 10"	"60.92"	"012"	n/a	n/a	n/a	n/a	n/a	n/a	"fixation"	n/a	n/a	n/a	n/a	"NULL"	n/a	"NULL"	"NULL"	"NULL"	"<p style=\"color: black; font-size: 80px; padding-left: 23%; padding-right: 1%; padding-top: 49%; padding-bottom: 42%\">+</p>"	"1164"	n/a	n/a	n/a	n/a	n/a	n/a	n/a	n/a	n/a
n/a	"image-keyboard-response"	"14"	"149133"	"0.0-4.0-1.0-2.0-1.3"	"dxk624"	"657"	"1366"	"chrome"	"109.0.0"	"FALSE"	"Windows 10"	"60.92"	"012"	n/a	n/a	n/a	n/a	n/a	n/a	"Trial"	n/a	n/a	n/a	"454"	"arrowleft"	n/a	"NULL"	"NULL"	"NULL"	"stimuli/Ebbinghaus_0000000_1.40000.png"	n/a	"Ebbinghaus"	"arrowleft"	"1179"	"TRUE"	"Ebbinghaus"	"000000000000"	"1.4000000000"	"1"	"4"
n/a	"html-keyboard-response"	"15"	"150595"	"0.0-4.0-1.0-2.0-0.4"	"dxk624"	"657"	"1366"	"chrome"	"109.0.0"	"FALSE"	"Windows 10"	"60.92"	"012"	n/a	n/a	n/a	n/a	n/a	n/a	"fixation"	n/a	n/a	n/a	n/a	"NULL"	n/a	"NULL"	"NULL"	"NULL"	"<p style=\"color: black; font-size: 80px; padding-left: 12%; padding-right: 8%; padding-top: 7%; padding-bottom: 1%\">+</p>"	"1449"	n/a	n/a	n/a	n/a	n/a	n/a	n/a	n/a	n/a
n/a	"image-keyboard-response"	"16"	"151148"	"0.0-4.0-1.0-2.0-1.4"	"dxk624"	"657"	"1366"	"chrome"	"109.0.0"	"FALSE"	"Windows 10"	"60.92"	"012"	n/a	n/a	n/a	n/a	n/a	n/a	"Trial"	n/a	n/a	n/a	"550"	"arrowright"	n/a	"NULL"	"NULL"	"NULL"	"stimuli/Ebbinghaus_-100000_-1.4000.png"	n/a	"Ebbinghaus"	"arrowright"	"1462"	"TRUE"	"Ebbinghaus"	"-10000000000"	"-1.400000000"	"1"	"5"
n/a	"html-keyboard-response"	"17"	"152227"	"0.0-4.0-1.0-2.0-0.5"	"dxk624"	"657"	"1366"	"chrome"	"109.0.0"	"FALSE"	"Windows 10"	"60.92"	"012"	n/a	n/a	n/a	n/a	n/a	n/a	"fixation"	n/a	n/a	n/a	n/a	"NULL"	n/a	"NULL"	"NULL"	"NULL"	"<p style=\"color: black; font-size: 80px; padding-left: 11%; padding-right: 45%; padding-top: 42%; padding-bottom: 28%\">+</p>"	"1059"	n/a	n/a	n/a	n/a	n/a	n/a	n/a	n/a	n/a
n/a	"image-keyboard-response"	"18"	"152632"	"0.0-4.0-1.0-2.0-1.5"	"dxk624"	"657"	"1366"	"chrome"	"109.0.0"	"FALSE"	"Windows 10"	"60.92"	"012"	n/a	n/a	n/a	n/a	n/a	n/a	"Trial"	n/a	n/a	n/a	"404"	"arrowright"	n/a	"NULL"	"NULL"	"NULL"	"stimuli/Ebbinghaus_0000000_-1.4000.png"	n/a	"Ebbinghaus"	"arrowright"	"1079"	"TRUE"	"Ebbinghaus"	"000000000000"	"-1.400000000"	"1"	"6"
n/a	"html-button-response"	"19"	"157255"	"0.0-4.0-1.0-3.0"	"dxk624"	"657"	"1366"	"chrome"	"109.0.0"	"FALSE"	"Windows 10"	"60.92"	"012"	n/a	n/a	n/a	n/a	n/a	n/a	"practice_block_results"	n/a	n/a	n/a	"4616"	"0"	n/a	"NULL"	"NULL"	"NULL"	"<p style='color:rgb(76,175,80);'> Correct Responses: <b>100.00%</b></p><hr><p style='color:rgb(233,30,99);'> Average Response Time: <b>524.83</b> ms.</p>"	n/a	n/a	n/a	n/a	n/a	n/a	n/a	n/a	n/a	n/a
"TRUE"	"preload"	"20"	"157779"	"0.0-4.0-2.0-0.0"	"dxk624"	"657"	"1366"	"chrome"	"109.0.0"	"FALSE"	"Windows 10"	"60.92"	"012"	n/a	n/a	n/a	n/a	n/a	n/a	n/a	n/a	n/a	n/a	n/a	"NULL"	"FALSE"	"list()"	"list()"	"list()"	n/a	n/a	n/a	n/a	n/a	n/a	n/a	n/a	n/a	n/a	n/a
n/a	"html-keyboard-response"	"21"	"167333"	"0.0-4.0-2.0-1.0"	"dxk624"	"657"	"1366"	"chrome"	"109.0.0"	"FALSE"	"Windows 10"	"60.92"	"012"	n/a	n/a	n/a	n/a	n/a	n/a	n/a	n/a	n/a	n/a	"9553"	"enter"	n/a	"NULL"	"NULL"	"NULL"	"<p><b>Practice</b></p><p>In this part, two horizontal red lines will appear one above the other.</p><p>Your task is to select which <b>line is longer</b> in length as fast as you can, without making errors.</p><p>Don't get distracted by the surrounding black arrows at the end of the red lines!</p><p>Press <b>the UP or the DOWN arrow</b> to indicate where is the longer <b>red line.</b></p><div style='float: center'><img src='materials/instructions/MullerLyer_Demo.png' height='300'></img><p><img src='utils/answer/answer_updown_keyboard.PNG' height='150'></img></p><p class='small'>In this example, the correct answer is the <b>UP arrow</b>.</p></div><p>Are you ready? <b>Press ENTER to start</b></p>"	n/a	n/a	n/a	n/a	n/a	n/a	n/a	n/a	n/a	n/a
n/a	"html-keyboard-response"	"22"	"168907"	"0.0-4.0-2.0-2.0-0.0"	"dxk624"	"657"	"1366"	"chrome"	"109.0.0"	"FALSE"	"Windows 10"	"60.92"	"012"	n/a	n/a	n/a	n/a	n/a	n/a	"fixation"	n/a	n/a	n/a	n/a	"NULL"	n/a	"NULL"	"NULL"	"NULL"	"<p style=\"color: black; font-size: 80px; padding-left: 8%; padding-right: 13%; padding-top: 32%; padding-bottom: 16%\">+</p>"	"1048"	n/a	n/a	n/a	n/a	n/a	n/a	n/a	n/a	n/a
n/a	"image-keyboard-response"	"23"	"169677"	"0.0-4.0-2.0-2.0-1.0"	"dxk624"	"657"	"1366"	"chrome"	"109.0.0"	"FALSE"	"Windows 10"	"60.92"	"012"	n/a	n/a	n/a	n/a	n/a	n/a	"Trial"	n/a	n/a	n/a	"769"	"arrowdown"	n/a	"NULL"	"NULL"	"NULL"	"stimuli/MullerLyer_0000000_-0.7000.png"	n/a	"MullerLyer"	"arrowdown"	"1574"	"TRUE"	"MullerLyer"	"000000000000"	"-0.700000000"	"1"	"7"
n/a	"html-keyboard-response"	"24"	"170873"	"0.0-4.0-2.0-2.0-0.1"	"dxk624"	"657"	"1366"	"chrome"	"109.0.0"	"FALSE"	"Windows 10"	"60.92"	"012"	n/a	n/a	n/a	n/a	n/a	n/a	"fixation"	n/a	n/a	n/a	n/a	"NULL"	n/a	"NULL"	"NULL"	"NULL"	"<p style=\"color: black; font-size: 80px; padding-left: 5%; padding-right: 5%; padding-top: 7%; padding-bottom: 44%\">+</p>"	"1182"	n/a	n/a	n/a	n/a	n/a	n/a	n/a	n/a	n/a
n/a	"image-keyboard-response"	"25"	"171314"	"0.0-4.0-2.0-2.0-1.1"	"dxk624"	"657"	"1366"	"chrome"	"109.0.0"	"FALSE"	"Windows 10"	"60.92"	"012"	n/a	n/a	n/a	n/a	n/a	n/a	"Trial"	n/a	n/a	n/a	"441"	"arrowdown"	n/a	"NULL"	"NULL"	"NULL"	"stimuli/MullerLyer_-230000_-0.7000.png"	n/a	"MullerLyer"	"arrowdown"	"1196"	"TRUE"	"MullerLyer"	"-23000000000"	"-0.700000000"	"1"	"8"
n/a	"html-keyboard-response"	"26"	"172714"	"0.0-4.0-2.0-2.0-0.2"	"dxk624"	"657"	"1366"	"chrome"	"109.0.0"	"FALSE"	"Windows 10"	"60.92"	"012"	n/a	n/a	n/a	n/a	n/a	n/a	"fixation"	n/a	n/a	n/a	n/a	"NULL"	n/a	"NULL"	"NULL"	"NULL"	"<p style=\"color: black; font-size: 80px; padding-left: 9%; padding-right: 43%; padding-top: 47%; padding-bottom: 42%\">+</p>"	"1379"	n/a	n/a	n/a	n/a	n/a	n/a	n/a	n/a	n/a
n/a	"image-keyboard-response"	"27"	"173152"	"0.0-4.0-2.0-2.0-1.2"	"dxk624"	"657"	"1366"	"chrome"	"109.0.0"	"FALSE"	"Windows 10"	"60.92"	"012"	n/a	n/a	n/a	n/a	n/a	n/a	"Trial"	n/a	n/a	n/a	"437"	"arrowup"	n/a	"NULL"	"NULL"	"NULL"	"stimuli/MullerLyer_-230000_0.70000.png"	n/a	"MullerLyer"	"arrowup"	"1400"	"TRUE"	"MullerLyer"	"-23000000000"	"0.7000000000"	"1"	"9"
n/a	"html-keyboard-response"	"28"	"174551"	"0.0-4.0-2.0-2.0-0.3"	"dxk624"	"657"	"1366"	"chrome"	"109.0.0"	"FALSE"	"Windows 10"	"60.92"	"012"	n/a	n/a	n/a	n/a	n/a	n/a	"fixation"	n/a	n/a	n/a	n/a	"NULL"	n/a	"NULL"	"NULL"	"NULL"	"<p style=\"color: black; font-size: 80px; padding-left: 38%; padding-right: 39%; padding-top: 30%; padding-bottom: 34%\">+</p>"	"1384"	n/a	n/a	n/a	n/a	n/a	n/a	n/a	n/a	n/a
n/a	"image-keyboard-response"	"29"	"175103"	"0.0-4.0-2.0-2.0-1.3"	"dxk624"	"657"	"1366"	"chrome"	"109.0.0"	"FALSE"	"Windows 10"	"60.92"	"012"	n/a	n/a	n/a	n/a	n/a	n/a	"Trial"	n/a	n/a	n/a	"552"	"arrowdown"	n/a	"NULL"	"NULL"	"NULL"	"stimuli/MullerLyer_2300000_-0.7000.png"	n/a	"MullerLyer"	"arrowdown"	"1399"	"TRUE"	"MullerLyer"	"230000000000"	"-0.700000000"	"1"	"10"
n/a	"html-keyboard-response"	"30"	"176190"	"0.0-4.0-2.0-2.0-0.4"	"dxk624"	"657"	"1366"	"chrome"	"109.0.0"	"FALSE"	"Windows 10"	"60.92"	"012"	n/a	n/a	n/a	n/a	n/a	n/a	"fixation"	n/a	n/a	n/a	n/a	"NULL"	n/a	"NULL"	"NULL"	"NULL"	"<p style=\"color: black; font-size: 80px; padding-left: 23%; padding-right: 36%; padding-top: 39%; padding-bottom: 16%\">+</p>"	"1077"	n/a	n/a	n/a	n/a	n/a	n/a	n/a	n/a	n/a
n/a	"image-keyboard-response"	"31"	"176640"	"0.0-4.0-2.0-2.0-1.4"	"dxk624"	"657"	"1366"	"chrome"	"109.0.0"	"FALSE"	"Windows 10"	"60.92"	"012"	n/a	n/a	n/a	n/a	n/a	n/a	"Trial"	n/a	n/a	n/a	"449"	"arrowup"	n/a	"NULL"	"NULL"	"NULL"	"stimuli/MullerLyer_2300000_0.70000.png"	n/a	"MullerLyer"	"arrowup"	"1087"	"TRUE"	"MullerLyer"	"230000000000"	"0.7000000000"	"1"	"11"
n/a	"html-keyboard-response"	"32"	"178121"	"0.0-4.0-2.0-2.0-0.5"	"dxk624"	"657"	"1366"	"chrome"	"109.0.0"	"FALSE"	"Windows 10"	"60.92"	"012"	n/a	n/a	n/a	n/a	n/a	n/a	"fixation"	n/a	n/a	n/a	n/a	"NULL"	n/a	"NULL"	"NULL"	"NULL"	"<p style=\"color: black; font-size: 80px; padding-left: 31%; padding-right: 32%; padding-top: 49%; padding-bottom: 20%\">+</p>"	"1475"	n/a	n/a	n/a	n/a	n/a	n/a	n/a	n/a	n/a
n/a	"image-keyboard-response"	"33"	"178729"	"0.0-4.0-2.0-2.0-1.5"	"dxk624"	"657"	"1366"	"chrome"	"109.0.0"	"FALSE"	"Windows 10"	"60.92"	"012"	n/a	n/a	n/a	n/a	n/a	n/a	"Trial"	n/a	n/a	n/a	"606"	"arrowup"	n/a	"NULL"	"NULL"	"NULL"	"stimuli/MullerLyer_0000000_0.70000.png"	n/a	"MullerLyer"	"arrowup"	"1481"	"TRUE"	"MullerLyer"	"000000000000"	"0.7000000000"	"1"	"12"
n/a	"html-button-response"	"34"	"181703"	"0.0-4.0-2.0-3.0"	"dxk624"	"657"	"1366"	"chrome"	"109.0.0"	"FALSE"	"Windows 10"	"60.92"	"012"	n/a	n/a	n/a	n/a	n/a	n/a	"practice_block_results"	n/a	n/a	n/a	"2973"	"0"	n/a	"NULL"	"NULL"	"NULL"	"<p style='color:rgb(76,175,80);'> Correct Responses: <b>100.00%</b></p><hr><p style='color:rgb(233,30,99);'> Average Response Time: <b>542.33</b> ms.</p>"	n/a	n/a	n/a	n/a	n/a	n/a	n/a	n/a	n/a	n/a
"TRUE"	"preload"	"35"	"182224"	"0.0-4.0-3.0-0.0"	"dxk624"	"657"	"1366"	"chrome"	"109.0.0"	"FALSE"	"Windows 10"	"60.92"	"012"	n/a	n/a	n/a	n/a	n/a	n/a	n/a	n/a	n/a	n/a	n/a	"NULL"	"FALSE"	"list()"	"list()"	"list()"	n/a	n/a	n/a	n/a	n/a	n/a	n/a	n/a	n/a	n/a	n/a
n/a	"html-keyboard-response"	"36"	"187321"	"0.0-4.0-3.0-1.0"	"dxk624"	"657"	"1366"	"chrome"	"109.0.0"	"FALSE"	"Windows 10"	"60.92"	"012"	n/a	n/a	n/a	n/a	n/a	n/a	n/a	n/a	n/a	n/a	"5096"	"enter"	n/a	"NULL"	"NULL"	"NULL"	"<p><b>Practice</b></p><p>In this part, two red lines will appear side by side.</p><p>Your task is to tell <b>which line is longer</b> in length, regardless of their orientation, as fast as you can, and without making errors.</p><p>Don't get distracted by the orientation of the lines!</p><p>Press <b>the LEFT or the RIGHT arrow</b> to indicate which <b>line is the longer one.</b></p><div style='float: center'><img src='materials/instructions/VerticalHorizontal_Demo.png' height='300'></img><p><img src='utils/answer/answer_leftright_keyboard.PNG' height='150'></img></p><p class='small'>In this example, the correct answer is the <b>LEFT arrow</b>.</p></div><p>Are you ready? <b>Press ENTER to start</b></p>"	n/a	n/a	n/a	n/a	n/a	n/a	n/a	n/a	n/a	n/a
n/a	"html-keyboard-response"	"37"	"189046"	"0.0-4.0-3.0-2.0-0.0"	"dxk624"	"657"	"1366"	"chrome"	"109.0.0"	"FALSE"	"Windows 10"	"60.92"	"012"	n/a	n/a	n/a	n/a	n/a	n/a	"fixation"	n/a	n/a	n/a	n/a	"NULL"	n/a	"NULL"	"NULL"	"NULL"	"<p style=\"color: black; font-size: 80px; padding-left: 5%; padding-right: 3%; padding-top: 3%; padding-bottom: 27%\">+</p>"	"1190"	n/a	n/a	n/a	n/a	n/a	n/a	n/a	n/a	n/a
n/a	"image-keyboard-response"	"38"	"189557"	"0.0-4.0-3.0-2.0-1.0"	"dxk624"	"657"	"1366"	"chrome"	"109.0.0"	"FALSE"	"Windows 10"	"60.92"	"012"	n/a	n/a	n/a	n/a	n/a	n/a	"Trial"	n/a	n/a	n/a	"510"	"arrowleft"	n/a	"NULL"	"NULL"	"NULL"	"stimuli/VerticalHorizontal_0000000_0.90000.png"	n/a	"VerticalHorizontal"	"arrowleft"	"1725"	"TRUE"	"VerticalHorizontal"	"000000000000"	"0.9000000000"	"1"	"13"
n/a	"html-keyboard-response"	"39"	"190786"	"0.0-4.0-3.0-2.0-0.1"	"dxk624"	"657"	"1366"	"chrome"	"109.0.0"	"FALSE"	"Windows 10"	"60.92"	"012"	n/a	n/a	n/a	n/a	n/a	n/a	"fixation"	n/a	n/a	n/a	n/a	"NULL"	n/a	"NULL"	"NULL"	"NULL"	"<p style=\"color: black; font-size: 80px; padding-left: 25%; padding-right: 7%; padding-top: 38%; padding-bottom: 19%\">+</p>"	"1210"	n/a	n/a	n/a	n/a	n/a	n/a	n/a	n/a	n/a
n/a	"image-keyboard-response"	"40"	"191187"	"0.0-4.0-3.0-2.0-1.1"	"dxk624"	"657"	"1366"	"chrome"	"109.0.0"	"FALSE"	"Windows 10"	"60.92"	"012"	n/a	n/a	n/a	n/a	n/a	n/a	"Trial"	n/a	n/a	n/a	"400"	"arrowright"	n/a	"NULL"	"NULL"	"NULL"	"stimuli/VerticalHorizontal_3300000_-0.9000.png"	n/a	"VerticalHorizontal"	"arrowright"	"1229"	"TRUE"	"VerticalHorizontal"	"330000000000"	"-0.900000000"	"1"	"14"
n/a	"html-keyboard-response"	"41"	"192639"	"0.0-4.0-3.0-2.0-0.2"	"dxk624"	"657"	"1366"	"chrome"	"109.0.0"	"FALSE"	"Windows 10"	"60.92"	"012"	n/a	n/a	n/a	n/a	n/a	n/a	"fixation"	n/a	n/a	n/a	n/a	"NULL"	n/a	"NULL"	"NULL"	"NULL"	"<p style=\"color: black; font-size: 80px; padding-left: 7%; padding-right: 8%; padding-top: 41%; padding-bottom: 17%\">+</p>"	"1432"	n/a	n/a	n/a	n/a	n/a	n/a	n/a	n/a	n/a
n/a	"image-keyboard-response"	"42"	"193026"	"0.0-4.0-3.0-2.0-1.2"	"dxk624"	"657"	"1366"	"chrome"	"109.0.0"	"FALSE"	"Windows 10"	"60.92"	"012"	n/a	n/a	n/a	n/a	n/a	n/a	"Trial"	n/a	n/a	n/a	"386"	"arrowright"	n/a	"NULL"	"NULL"	"NULL"	"stimuli/VerticalHorizontal_-330000_-0.9000.png"	n/a	"VerticalHorizontal"	"arrowright"	"1452"	"TRUE"	"VerticalHorizontal"	"-33000000000"	"-0.900000000"	"1"	"15"
n/a	"html-keyboard-response"	"43"	"194265"	"0.0-4.0-3.0-2.0-0.3"	"dxk624"	"657"	"1366"	"chrome"	"109.0.0"	"FALSE"	"Windows 10"	"60.92"	"012"	n/a	n/a	n/a	n/a	n/a	n/a	"fixation"	n/a	n/a	n/a	n/a	"NULL"	n/a	"NULL"	"NULL"	"NULL"	"<p style=\"color: black; font-size: 80px; padding-left: 40%; padding-right: 19%; padding-top: 35%; padding-bottom: 16%\">+</p>"	"1226"	n/a	n/a	n/a	n/a	n/a	n/a	n/a	n/a	n/a
n/a	"image-keyboard-response"	"44"	"194648"	"0.0-4.0-3.0-2.0-1.3"	"dxk624"	"657"	"1366"	"chrome"	"109.0.0"	"FALSE"	"Windows 10"	"60.92"	"012"	n/a	n/a	n/a	n/a	n/a	n/a	"Trial"	n/a	n/a	n/a	"382"	"arrowleft"	n/a	"NULL"	"NULL"	"NULL"	"stimuli/VerticalHorizontal_3300000_0.90000.png"	n/a	"VerticalHorizontal"	"arrowleft"	"1239"	"TRUE"	"VerticalHorizontal"	"330000000000"	"0.9000000000"	"1"	"16"
n/a	"html-keyboard-response"	"45"	"195781"	"0.0-4.0-3.0-2.0-0.4"	"dxk624"	"657"	"1366"	"chrome"	"109.0.0"	"FALSE"	"Windows 10"	"60.92"	"012"	n/a	n/a	n/a	n/a	n/a	n/a	"fixation"	n/a	n/a	n/a	n/a	"NULL"	n/a	"NULL"	"NULL"	"NULL"	"<p style=\"color: black; font-size: 80px; padding-left: 35%; padding-right: 40%; padding-top: 16%; padding-bottom: 16%\">+</p>"	"1127"	n/a	n/a	n/a	n/a	n/a	n/a	n/a	n/a	n/a
n/a	"image-keyboard-response"	"46"	"196097"	"0.0-4.0-3.0-2.0-1.4"	"dxk624"	"657"	"1366"	"chrome"	"109.0.0"	"FALSE"	"Windows 10"	"60.92"	"012"	n/a	n/a	n/a	n/a	n/a	n/a	"Trial"	n/a	n/a	n/a	"315"	"arrowright"	n/a	"NULL"	"NULL"	"NULL"	"stimuli/VerticalHorizontal_0000000_-0.9000.png"	n/a	"VerticalHorizontal"	"arrowright"	"1133"	"TRUE"	"VerticalHorizontal"	"000000000000"	"-0.900000000"	"1"	"17"
n/a	"html-keyboard-response"	"47"	"197158"	"0.0-4.0-3.0-2.0-0.5"	"dxk624"	"657"	"1366"	"chrome"	"109.0.0"	"FALSE"	"Windows 10"	"60.92"	"012"	n/a	n/a	n/a	n/a	n/a	n/a	"fixation"	n/a	n/a	n/a	n/a	"NULL"	n/a	"NULL"	"NULL"	"NULL"	"<p style=\"color: black; font-size: 80px; padding-left: 37%; padding-right: 3%; padding-top: 4%; padding-bottom: 42%\">+</p>"	"1054"	n/a	n/a	n/a	n/a	n/a	n/a	n/a	n/a	n/a
n/a	"image-keyboard-response"	"48"	"197502"	"0.0-4.0-3.0-2.0-1.5"	"dxk624"	"657"	"1366"	"chrome"	"109.0.0"	"FALSE"	"Windows 10"	"60.92"	"012"	n/a	n/a	n/a	n/a	n/a	n/a	"Trial"	n/a	n/a	n/a	"343"	"arrowleft"	n/a	"NULL"	"NULL"	"NULL"	"stimuli/VerticalHorizontal_-330000_0.90000.png"	n/a	"VerticalHorizontal"	"arrowleft"	"1061"	"TRUE"	"VerticalHorizontal"	"-33000000000"	"0.9000000000"	"1"	"18"
n/a	"html-button-response"	"49"	"199515"	"0.0-4.0-3.0-3.0"	"dxk624"	"657"	"1366"	"chrome"	"109.0.0"	"FALSE"	"Windows 10"	"60.92"	"012"	n/a	n/a	n/a	n/a	n/a	n/a	"practice_block_results"	n/a	n/a	n/a	"2011"	"0"	n/a	"NULL"	"NULL"	"NULL"	"<p style='color:rgb(76,175,80);'> Correct Responses: <b>100.00%</b></p><hr><p style='color:rgb(233,30,99);'> Average Response Time: <b>389.33</b> ms.</p>"	n/a	n/a	n/a	n/a	n/a	n/a	n/a	n/a	n/a	n/a
n/a	"html-button-response"	"50"	"260897"	"0.0-4.0-4.0"	"dxk624"	"657"	"1366"	"chrome"	"109.0.0"	"FALSE"	"Windows 10"	"60.92"	"012"	n/a	n/a	n/a	n/a	n/a	n/a	"practice_debrief"	n/a	n/a	n/a	"60872"	"0"	n/a	"NULL"	"NULL"	"NULL"	"<p><b>TRAINING COMPLETED</b></p><p>In the next phase, there will be more trials, and some might be harder too.<br> Moreover, after each illusion block, a <b>score</b> will be calculated based on speed (time you took to answer) and accuracy (number of errors).</p><p>Try to keep up a high score!</p><br><p>Note that it can be <i>really</i> challenging at times, so you will need to rely on your <b>intuition</b> and gut feeling to answer as fast as you can without making errors.</p><p>Each illusion block will be repeated two times (so that you have the opportunity to improve your score), but the order of the blocks is random.</p><p>Remember, your goal is to be as <b>fast</b> and <b>accurate</b> as possible. Good luck!</p><br>"	n/a	n/a	n/a	n/a	n/a	n/a	n/a	n/a	n/a	n/a
"TRUE"	"preload"	"51"	"261088"	"0.0-5.0-0.0"	"dxk624"	"657"	"1366"	"chrome"	"109.0.0"	"FALSE"	"Windows 10"	"60.92"	"012"	n/a	n/a	n/a	n/a	n/a	n/a	n/a	n/a	n/a	n/a	n/a	"NULL"	"FALSE"	"list()"	"list()"	"list()"	n/a	n/a	n/a	n/a	n/a	n/a	n/a	n/a	n/a	n/a	n/a
n/a	"html-keyboard-response"	"52"	"266914"	"0.0-5.0-1.0"	"dxk624"	"657"	"1366"	"chrome"	"109.0.0"	"FALSE"	"Windows 10"	"60.92"	"012"	n/a	n/a	n/a	n/a	n/a	n/a	n/a	n/a	n/a	n/a	"5825"	"enter"	n/a	"NULL"	"NULL"	"NULL"	"<p><b>Part 1/6</b></p><p>In this part, two horizontal red lines will appear one above the other.</p><p>Your task is to select which <b>line is longer</b> in length as fast as you can, without making errors.</p><p>Don't get distracted by the surrounding black arrows at the end of the red lines!</p><p>Press <b>the UP or the DOWN arrow</b> to indicate where is the longer <b>red line.</b></p><div style='float: center'><img src='materials/instructions/MullerLyer_Demo.png' height='300'></img><p><img src='utils/answer/answer_updown_keyboard.PNG' height='150'></img></p><p class='small'>In this example, the correct answer is the <b>UP arrow</b>.</p></div><p>Are you ready? <b>Press ENTER to start</b></p>"	n/a	n/a	n/a	n/a	n/a	n/a	n/a	n/a	n/a	n/a
n/a	"html-keyboard-response"	"53"	"268481"	"0.0-5.0-2.0-0.0"	"dxk624"	"657"	"1366"	"chrome"	"109.0.0"	"FALSE"	"Windows 10"	"60.92"	"012"	n/a	n/a	n/a	n/a	n/a	n/a	"fixation"	n/a	n/a	n/a	n/a	"NULL"	n/a	"NULL"	"NULL"	"NULL"	"<p style=\"color: black; font-size: 80px; padding-left: 6%; padding-right: 10%; padding-top: 47%; padding-bottom: 39%\">+</p>"	"1028"	n/a	n/a	n/a	n/a	n/a	n/a	n/a	n/a	n/a
n/a	"image-keyboard-response"	"54"	"269173"	"0.0-5.0-2.0-1.0"	"dxk624"	"657"	"1366"	"chrome"	"109.0.0"	"FALSE"	"Windows 10"	"60.92"	"012"	n/a	n/a	n/a	n/a	n/a	n/a	"Trial"	n/a	n/a	n/a	"691"	"arrowdown"	n/a	"NULL"	"NULL"	"NULL"	"stimuli/MullerLyer_20.04286_0.14541.png"	n/a	"MullerLyer"	"arrowup"	"1567"	"FALSE"	"MullerLyer"	"20.042860000"	"0.1454100000"	"1"	"19"
n/a	"html-keyboard-response"	"55"	"270264"	"0.0-5.0-2.0-0.1"	"dxk624"	"657"	"1366"	"chrome"	"109.0.0"	"FALSE"	"Windows 10"	"60.92"	"012"	n/a	n/a	n/a	n/a	n/a	n/a	"fixation"	n/a	n/a	n/a	n/a	"NULL"	n/a	"NULL"	"NULL"	"NULL"	"<p style=\"color: black; font-size: 80px; padding-left: 8%; padding-right: 44%; padding-top: 15%; padding-bottom: 22%\">+</p>"	"1083"	n/a	n/a	n/a	n/a	n/a	n/a	n/a	n/a	n/a
n/a	"image-keyboard-response"	"56"	"271169"	"0.0-5.0-2.0-1.1"	"dxk624"	"657"	"1366"	"chrome"	"109.0.0"	"FALSE"	"Windows 10"	"60.92"	"012"	n/a	n/a	n/a	n/a	n/a	n/a	"Trial"	n/a	n/a	n/a	"904"	"arrowdown"	n/a	"NULL"	"NULL"	"NULL"	"stimuli/MullerLyer_2.30000_-0.23665.png"	n/a	"MullerLyer"	"arrowdown"	"1091"	"TRUE"	"MullerLyer"	"2.3000000000"	"-0.236650000"	"1"	"20"
n/a	"html-keyboard-response"	"57"	"272503"	"0.0-5.0-2.0-0.2"	"dxk624"	"657"	"1366"	"chrome"	"109.0.0"	"FALSE"	"Windows 10"	"60.92"	"012"	n/a	n/a	n/a	n/a	n/a	n/a	"fixation"	n/a	n/a	n/a	n/a	"NULL"	n/a	"NULL"	"NULL"	"NULL"	"<p style=\"color: black; font-size: 80px; padding-left: 15%; padding-right: 49%; padding-top: 46%; padding-bottom: 15%\">+</p>"	"1329"	n/a	n/a	n/a	n/a	n/a	n/a	n/a	n/a	n/a
n/a	"image-keyboard-response"	"58"	"272983"	"0.0-5.0-2.0-1.2"	"dxk624"	"657"	"1366"	"chrome"	"109.0.0"	"FALSE"	"Windows 10"	"60.92"	"012"	n/a	n/a	n/a	n/a	n/a	n/a	"Trial"	n/a	n/a	n/a	"479"	"arrowdown"	n/a	"NULL"	"NULL"	"NULL"	"stimuli/MullerLyer_-20.04286_-0.07627.png"	n/a	"MullerLyer"	"arrowdown"	"1334"	"TRUE"	"MullerLyer"	"-20.04286000"	"-0.076270000"	"1"	"21"
n/a	"html-keyboard-response"	"59"	"274027"	"0.0-5.0-2.0-0.3"	"dxk624"	"657"	"1366"	"chrome"	"109.0.0"	"FALSE"	"Windows 10"	"60.92"	"012"	n/a	n/a	n/a	n/a	n/a	n/a	"fixation"	n/a	n/a	n/a	n/a	"NULL"	n/a	"NULL"	"NULL"	"NULL"	"<p style=\"color: black; font-size: 80px; padding-left: 36%; padding-right: 26%; padding-top: 42%; padding-bottom: 33%\">+</p>"	"1031"	n/a	n/a	n/a	n/a	n/a	n/a	n/a	n/a	n/a
n/a	"image-keyboard-response"	"60"	"274699"	"0.0-5.0-2.0-1.3"	"dxk624"	"657"	"1366"	"chrome"	"109.0.0"	"FALSE"	"Windows 10"	"60.92"	"012"	n/a	n/a	n/a	n/a	n/a	n/a	"Trial"	n/a	n/a	n/a	"671"	"arrowup"	n/a	"NULL"	"NULL"	"NULL"	"stimuli/MullerLyer_-2.3000_-0.14541.png"	n/a	"MullerLyer"	"arrowdown"	"1044"	"FALSE"	"MullerLyer"	"-2.300000000"	"-0.145410000"	"1"	"22"
n/a	"html-keyboard-response"	"61"	"275725"	"0.0-5.0-2.0-0.4"	"dxk624"	"657"	"1366"	"chrome"	"109.0.0"	"FALSE"	"Windows 10"	"60.92"	"012"	n/a	n/a	n/a	n/a	n/a	n/a	"fixation"	n/a	n/a	n/a	n/a	"NULL"	n/a	"NULL"	"NULL"	"NULL"	"<p style=\"color: black; font-size: 80px; padding-left: 45%; padding-right: 42%; padding-top: 34%; padding-bottom: 32%\">+</p>"	"1022"	n/a	n/a	n/a	n/a	n/a	n/a	n/a	n/a	n/a
n/a	"image-keyboard-response"	"62"	"276407"	"0.0-5.0-2.0-1.4"	"dxk624"	"657"	"1366"	"chrome"	"109.0.0"	"FALSE"	"Windows 10"	"60.92"	"012"	n/a	n/a	n/a	n/a	n/a	n/a	"Trial"	n/a	n/a	n/a	"680"	"arrowdown"	n/a	"NULL"	"NULL"	"NULL"	"stimuli/MullerLyer_-2.3000_-0.07627.png"	n/a	"MullerLyer"	"arrowdown"	"1026"	"TRUE"	"MullerLyer"	"-2.300000000"	"-0.076270000"	"1"	"23"
n/a	"html-keyboard-response"	"63"	"277865"	"0.0-5.0-2.0-0.5"	"dxk624"	"657"	"1366"	"chrome"	"109.0.0"	"FALSE"	"Windows 10"	"60.92"	"012"	n/a	n/a	n/a	n/a	n/a	n/a	"fixation"	n/a	n/a	n/a	n/a	"NULL"	n/a	"NULL"	"NULL"	"NULL"	"<p style=\"color: black; font-size: 80px; padding-left: 29%; padding-right: 29%; padding-top: 15%; padding-bottom: 21%\">+</p>"	"1444"	n/a	n/a	n/a	n/a	n/a	n/a	n/a	n/a	n/a
n/a	"image-keyboard-response"	"64"	"278468"	"0.0-5.0-2.0-1.5"	"dxk624"	"657"	"1366"	"chrome"	"109.0.0"	"FALSE"	"Windows 10"	"60.92"	"012"	n/a	n/a	n/a	n/a	n/a	n/a	"Trial"	n/a	n/a	n/a	"602"	"arrowup"	n/a	"NULL"	"NULL"	"NULL"	"stimuli/MullerLyer_20.04286_-0.23665.png"	n/a	"MullerLyer"	"arrowdown"	"1458"	"FALSE"	"MullerLyer"	"20.042860000"	"-0.236650000"	"1"	"24"
n/a	"html-keyboard-response"	"65"	"279574"	"0.0-5.0-2.0-0.6"	"dxk624"	"657"	"1366"	"chrome"	"109.0.0"	"FALSE"	"Windows 10"	"60.92"	"012"	n/a	n/a	n/a	n/a	n/a	n/a	"fixation"	n/a	n/a	n/a	n/a	"NULL"	n/a	"NULL"	"NULL"	"NULL"	"<p style=\"color: black; font-size: 80px; padding-left: 21%; padding-right: 48%; padding-top: 25%; padding-bottom: 1%\">+</p>"	"1096"	n/a	n/a	n/a	n/a	n/a	n/a	n/a	n/a	n/a
n/a	"image-keyboard-response"	"66"	"280365"	"0.0-5.0-2.0-1.6"	"dxk624"	"657"	"1366"	"chrome"	"109.0.0"	"FALSE"	"Windows 10"	"60.92"	"012"	n/a	n/a	n/a	n/a	n/a	n/a	"Trial"	n/a	n/a	n/a	"790"	"arrowdown"	n/a	"NULL"	"NULL"	"NULL"	"stimuli/MullerLyer_14.12857_0.14541.png"	n/a	"MullerLyer"	"arrowup"	"1106"	"FALSE"	"MullerLyer"	"14.128570000"	"0.1454100000"	"1"	"25"
n/a	"html-keyboard-response"	"67"	"281579"	"0.0-5.0-2.0-0.7"	"dxk624"	"657"	"1366"	"chrome"	"109.0.0"	"FALSE"	"Windows 10"	"60.92"	"012"	n/a	n/a	n/a	n/a	n/a	n/a	"fixation"	n/a	n/a	n/a	n/a	"NULL"	n/a	"NULL"	"NULL"	"NULL"	"<p style=\"color: black; font-size: 80px; padding-left: 1%; padding-right: 48%; padding-top: 17%; padding-bottom: 30%\">+</p>"	"1191"	n/a	n/a	n/a	n/a	n/a	n/a	n/a	n/a	n/a
n/a	"image-keyboard-response"	"68"	"282067"	"0.0-5.0-2.0-1.7"	"dxk624"	"657"	"1366"	"chrome"	"109.0.0"	"FALSE"	"Windows 10"	"60.92"	"012"	n/a	n/a	n/a	n/a	n/a	n/a	"Trial"	n/a	n/a	n/a	"488"	"arrowdown"	n/a	"NULL"	"NULL"	"NULL"	"stimuli/MullerLyer_-20.04286_-0.23665.png"	n/a	"MullerLyer"	"arrowdown"	"1214"	"TRUE"	"MullerLyer"	"-20.04286000"	"-0.236650000"	"1"	"26"
n/a	"html-keyboard-response"	"69"	"283102"	"0.0-5.0-2.0-0.8"	"dxk624"	"657"	"1366"	"chrome"	"109.0.0"	"FALSE"	"Windows 10"	"60.92"	"012"	n/a	n/a	n/a	n/a	n/a	n/a	"fixation"	n/a	n/a	n/a	n/a	"NULL"	n/a	"NULL"	"NULL"	"NULL"	"<p style=\"color: black; font-size: 80px; padding-left: 4%; padding-right: 46%; padding-top: 2%; padding-bottom: 1%\">+</p>"	"1022"	n/a	n/a	n/a	n/a	n/a	n/a	n/a	n/a	n/a
n/a	"image-keyboard-response"	"70"	"283643"	"0.0-5.0-2.0-1.8"	"dxk624"	"657"	"1366"	"chrome"	"109.0.0"	"FALSE"	"Windows 10"	"60.92"	"012"	n/a	n/a	n/a	n/a	n/a	n/a	"Trial"	n/a	n/a	n/a	"540"	"arrowup"	n/a	"NULL"	"NULL"	"NULL"	"stimuli/MullerLyer_-2.3000_0.07627.png"	n/a	"MullerLyer"	"arrowup"	"1035"	"TRUE"	"MullerLyer"	"-2.300000000"	"0.0762700000"	"1"	"27"
n/a	"html-keyboard-response"	"71"	"284687"	"0.0-5.0-2.0-0.9"	"dxk624"	"657"	"1366"	"chrome"	"109.0.0"	"FALSE"	"Windows 10"	"60.92"	"012"	n/a	n/a	n/a	n/a	n/a	n/a	"fixation"	n/a	n/a	n/a	n/a	"NULL"	n/a	"NULL"	"NULL"	"NULL"	"<p style=\"color: black; font-size: 80px; padding-left: 26%; padding-right: 23%; padding-top: 8%; padding-bottom: 42%\">+</p>"	"1033"	n/a	n/a	n/a	n/a	n/a	n/a	n/a	n/a	n/a
n/a	"image-keyboard-response"	"72"	"285240"	"0.0-5.0-2.0-1.9"	"dxk624"	"657"	"1366"	"chrome"	"109.0.0"	"FALSE"	"Windows 10"	"60.92"	"012"	n/a	n/a	n/a	n/a	n/a	n/a	"Trial"	n/a	n/a	n/a	"551"	"arrowup"	n/a	"NULL"	"NULL"	"NULL"	"stimuli/MullerLyer_2.30000_0.14541.png"	n/a	"MullerLyer"	"arrowup"	"1044"	"TRUE"	"MullerLyer"	"2.3000000000"	"0.1454100000"	"1"	"28"
n/a	"html-keyboard-response"	"73"	"286374"	"0.0-5.0-2.0-0.10"	"dxk624"	"657"	"1366"	"chrome"	"109.0.0"	"FALSE"	"Windows 10"	"60.92"	"012"	n/a	n/a	n/a	n/a	n/a	n/a	"fixation"	n/a	n/a	n/a	n/a	"NULL"	n/a	"NULL"	"NULL"	"NULL"	"<p style=\"color: black; font-size: 80px; padding-left: 7%; padding-right: 5%; padding-top: 8%; padding-bottom: 43%\">+</p>"	"1131"	n/a	n/a	n/a	n/a	n/a	n/a	n/a	n/a	n/a
n/a	"image-keyboard-response"	"74"	"286836"	"0.0-5.0-2.0-1.10"	"dxk624"	"657"	"1366"	"chrome"	"109.0.0"	"FALSE"	"Windows 10"	"60.92"	"012"	n/a	n/a	n/a	n/a	n/a	n/a	"Trial"	n/a	n/a	n/a	"461"	"arrowup"	n/a	"NULL"	"NULL"	"NULL"	"stimuli/MullerLyer_-8.21429_0.14541.png"	n/a	"MullerLyer"	"arrowup"	"1134"	"TRUE"	"MullerLyer"	"-8.214290000"	"0.1454100000"	"1"	"29"
n/a	"html-keyboard-response"	"75"	"288007"	"0.0-5.0-2.0-0.11"	"dxk624"	"657"	"1366"	"chrome"	"109.0.0"	"FALSE"	"Windows 10"	"60.92"	"012"	n/a	n/a	n/a	n/a	n/a	n/a	"fixation"	n/a	n/a	n/a	n/a	"NULL"	n/a	"NULL"	"NULL"	"NULL"	"<p style=\"color: black; font-size: 80px; padding-left: 9%; padding-right: 42%; padding-top: 12%; padding-bottom: 38%\">+</p>"	"1165"	n/a	n/a	n/a	n/a	n/a	n/a	n/a	n/a	n/a
n/a	"image-keyboard-response"	"76"	"288494"	"0.0-5.0-2.0-1.11"	"dxk624"	"657"	"1366"	"chrome"	"109.0.0"	"FALSE"	"Windows 10"	"60.92"	"012"	n/a	n/a	n/a	n/a	n/a	n/a	"Trial"	n/a	n/a	n/a	"486"	"arrowup"	n/a	"NULL"	"NULL"	"NULL"	"stimuli/MullerLyer_-14.12857_0.07627.png"	n/a	"MullerLyer"	"arrowup"	"1171"	"TRUE"	"MullerLyer"	"-14.12857000"	"0.0762700000"	"1"	"30"
n/a	"html-keyboard-response"	"77"	"289633"	"0.0-5.0-2.0-0.12"	"dxk624"	"657"	"1366"	"chrome"	"109.0.0"	"FALSE"	"Windows 10"	"60.92"	"012"	n/a	n/a	n/a	n/a	n/a	n/a	"fixation"	n/a	n/a	n/a	n/a	"NULL"	n/a	"NULL"	"NULL"	"NULL"	"<p style=\"color: black; font-size: 80px; padding-left: 41%; padding-right: 38%; padding-top: 29%; padding-bottom: 34%\">+</p>"	"1118"	n/a	n/a	n/a	n/a	n/a	n/a	n/a	n/a	n/a
n/a	"image-keyboard-response"	"78"	"290124"	"0.0-5.0-2.0-1.12"	"dxk624"	"657"	"1366"	"chrome"	"109.0.0"	"FALSE"	"Windows 10"	"60.92"	"012"	n/a	n/a	n/a	n/a	n/a	n/a	"Trial"	n/a	n/a	n/a	"490"	"arrowdown"	n/a	"NULL"	"NULL"	"NULL"	"stimuli/MullerLyer_-2.3000_-0.23665.png"	n/a	"MullerLyer"	"arrowdown"	"1139"	"TRUE"	"MullerLyer"	"-2.300000000"	"-0.236650000"	"1"	"31"
n/a	"html-keyboard-response"	"79"	"291297"	"0.0-5.0-2.0-0.13"	"dxk624"	"657"	"1366"	"chrome"	"109.0.0"	"FALSE"	"Windows 10"	"60.92"	"012"	n/a	n/a	n/a	n/a	n/a	n/a	"fixation"	n/a	n/a	n/a	n/a	"NULL"	n/a	"NULL"	"NULL"	"NULL"	"<p style=\"color: black; font-size: 80px; padding-left: 20%; padding-right: 14%; padding-top: 19%; padding-bottom: 28%\">+</p>"	"1156"	n/a	n/a	n/a	n/a	n/a	n/a	n/a	n/a	n/a
n/a	"image-keyboard-response"	"80"	"291776"	"0.0-5.0-2.0-1.13"	"dxk624"	"657"	"1366"	"chrome"	"109.0.0"	"FALSE"	"Windows 10"	"60.92"	"012"	n/a	n/a	n/a	n/a	n/a	n/a	"Trial"	n/a	n/a	n/a	"477"	"arrowdown"	n/a	"NULL"	"NULL"	"NULL"	"stimuli/MullerLyer_-14.12857_-0.07627.png"	n/a	"MullerLyer"	"arrowdown"	"1173"	"TRUE"	"MullerLyer"	"-14.12857000"	"-0.076270000"	"1"	"32"
n/a	"html-keyboard-response"	"81"	"292949"	"0.0-5.0-2.0-0.14"	"dxk624"	"657"	"1366"	"chrome"	"109.0.0"	"FALSE"	"Windows 10"	"60.92"	"012"	n/a	n/a	n/a	n/a	n/a	n/a	"fixation"	n/a	n/a	n/a	n/a	"NULL"	n/a	"NULL"	"NULL"	"NULL"	"<p style=\"color: black; font-size: 80px; padding-left: 23%; padding-right: 8%; padding-top: 3%; padding-bottom: 46%\">+</p>"	"1168"	n/a	n/a	n/a	n/a	n/a	n/a	n/a	n/a	n/a
n/a	"image-keyboard-response"	"82"	"293401"	"0.0-5.0-2.0-1.14"	"dxk624"	"657"	"1366"	"chrome"	"109.0.0"	"FALSE"	"Windows 10"	"60.92"	"012"	n/a	n/a	n/a	n/a	n/a	n/a	"Trial"	n/a	n/a	n/a	"451"	"arrowup"	n/a	"NULL"	"NULL"	"NULL"	"stimuli/MullerLyer_20.04286_-0.3500.png"	n/a	"MullerLyer"	"arrowdown"	"1173"	"FALSE"	"MullerLyer"	"20.042860000"	"-0.350000000"	"1"	"33"
n/a	"html-keyboard-response"	"83"	"294516"	"0.0-5.0-2.0-0.15"	"dxk624"	"657"	"1366"	"chrome"	"109.0.0"	"FALSE"	"Windows 10"	"60.92"	"012"	n/a	n/a	n/a	n/a	n/a	n/a	"fixation"	n/a	n/a	n/a	n/a	"NULL"	n/a	"NULL"	"NULL"	"NULL"	"<p style=\"color: black; font-size: 80px; padding-left: 29%; padding-right: 23%; padding-top: 44%; padding-bottom: 3%\">+</p>"	"1099"	n/a	n/a	n/a	n/a	n/a	n/a	n/a	n/a	n/a
n/a	"image-keyboard-response"	"84"	"294986"	"0.0-5.0-2.0-1.15"	"dxk624"	"657"	"1366"	"chrome"	"109.0.0"	"FALSE"	"Windows 10"	"60.92"	"012"	n/a	n/a	n/a	n/a	n/a	n/a	"Trial"	n/a	n/a	n/a	"468"	"arrowdown"	n/a	"NULL"	"NULL"	"NULL"	"stimuli/MullerLyer_-20.04286_-0.14541.png"	n/a	"MullerLyer"	"arrowdown"	"1115"	"TRUE"	"MullerLyer"	"-20.04286000"	"-0.145410000"	"1"	"34"
n/a	"html-keyboard-response"	"85"	"296107"	"0.0-5.0-2.0-0.16"	"dxk624"	"657"	"1366"	"chrome"	"109.0.0"	"FALSE"	"Windows 10"	"60.92"	"012"	n/a	n/a	n/a	n/a	n/a	n/a	"fixation"	n/a	n/a	n/a	n/a	"NULL"	n/a	"NULL"	"NULL"	"NULL"	"<p style=\"color: black; font-size: 80px; padding-left: 14%; padding-right: 45%; padding-top: 44%; padding-bottom: 50%\">+</p>"	"1104"	n/a	n/a	n/a	n/a	n/a	n/a	n/a	n/a	n/a
n/a	"image-keyboard-response"	"86"	"296879"	"0.0-5.0-2.0-1.16"	"dxk624"	"657"	"1366"	"chrome"	"109.0.0"	"FALSE"	"Windows 10"	"60.92"	"012"	n/a	n/a	n/a	n/a	n/a	n/a	"Trial"	n/a	n/a	n/a	"771"	"arrowup"	n/a	"NULL"	"NULL"	"NULL"	"stimuli/MullerLyer_2.30000_-0.14541.png"	n/a	"MullerLyer"	"arrowdown"	"1121"	"FALSE"	"MullerLyer"	"2.3000000000"	"-0.145410000"	"1"	"35"
n/a	"html-keyboard-response"	"87"	"297906"	"0.0-5.0-2.0-0.17"	"dxk624"	"657"	"1366"	"chrome"	"109.0.0"	"FALSE"	"Windows 10"	"60.92"	"012"	n/a	n/a	n/a	n/a	n/a	n/a	"fixation"	n/a	n/a	n/a	n/a	"NULL"	n/a	"NULL"	"NULL"	"NULL"	"<p style=\"color: black; font-size: 80px; padding-left: 10%; padding-right: 23%; padding-top: 28%; padding-bottom: 29%\">+</p>"	"1006"	n/a	n/a	n/a	n/a	n/a	n/a	n/a	n/a	n/a
n/a	"image-keyboard-response"	"88"	"298476"	"0.0-5.0-2.0-1.17"	"dxk624"	"657"	"1366"	"chrome"	"109.0.0"	"FALSE"	"Windows 10"	"60.92"	"012"	n/a	n/a	n/a	n/a	n/a	n/a	"Trial"	n/a	n/a	n/a	"568"	"arrowup"	n/a	"NULL"	"NULL"	"NULL"	"stimuli/MullerLyer_8.21429_-0.07627.png"	n/a	"MullerLyer"	"arrowdown"	"1027"	"FALSE"	"MullerLyer"	"8.2142900000"	"-0.076270000"	"1"	"36"
n/a	"html-keyboard-response"	"89"	"299702"	"0.0-5.0-2.0-0.18"	"dxk624"	"657"	"1366"	"chrome"	"109.0.0"	"FALSE"	"Windows 10"	"60.92"	"012"	n/a	n/a	n/a	n/a	n/a	n/a	"fixation"	n/a	n/a	n/a	n/a	"NULL"	n/a	"NULL"	"NULL"	"NULL"	"<p style=\"color: black; font-size: 80px; padding-left: 22%; padding-right: 49%; padding-top: 10%; padding-bottom: 4%\">+</p>"	"1215"	n/a	n/a	n/a	n/a	n/a	n/a	n/a	n/a	n/a
n/a	"image-keyboard-response"	"90"	"300168"	"0.0-5.0-2.0-1.18"	"dxk624"	"657"	"1366"	"chrome"	"109.0.0"	"FALSE"	"Windows 10"	"60.92"	"012"	n/a	n/a	n/a	n/a	n/a	n/a	"Trial"	n/a	n/a	n/a	"465"	"arrowup"	n/a	"NULL"	"NULL"	"NULL"	"stimuli/MullerLyer_-14.12857_0.14541.png"	n/a	"MullerLyer"	"arrowup"	"1226"	"TRUE"	"MullerLyer"	"-14.12857000"	"0.1454100000"	"1"	"37"
n/a	"html-keyboard-response"	"91"	"301409"	"0.0-5.0-2.0-0.19"	"dxk624"	"657"	"1366"	"chrome"	"109.0.0"	"FALSE"	"Windows 10"	"60.92"	"012"	n/a	n/a	n/a	n/a	n/a	n/a	"fixation"	n/a	n/a	n/a	n/a	"NULL"	n/a	"NULL"	"NULL"	"NULL"	"<p style=\"color: black; font-size: 80px; padding-left: 19%; padding-right: 36%; padding-top: 42%; padding-bottom: 30%\">+</p>"	"1219"	n/a	n/a	n/a	n/a	n/a	n/a	n/a	n/a	n/a
n/a	"image-keyboard-response"	"92"	"301876"	"0.0-5.0-2.0-1.19"	"dxk624"	"657"	"1366"	"chrome"	"109.0.0"	"FALSE"	"Windows 10"	"60.92"	"012"	n/a	n/a	n/a	n/a	n/a	n/a	"Trial"	n/a	n/a	n/a	"463"	"arrowup"	n/a	"NULL"	"NULL"	"NULL"	"stimuli/MullerLyer_-20.04286_0.23665.png"	n/a	"MullerLyer"	"arrowup"	"1241"	"TRUE"	"MullerLyer"	"-20.04286000"	"0.2366500000"	"1"	"38"
n/a	"html-keyboard-response"	"93"	"302967"	"0.0-5.0-2.0-0.20"	"dxk624"	"657"	"1366"	"chrome"	"109.0.0"	"FALSE"	"Windows 10"	"60.92"	"012"	n/a	n/a	n/a	n/a	n/a	n/a	"fixation"	n/a	n/a	n/a	n/a	"NULL"	n/a	"NULL"	"NULL"	"NULL"	"<p style=\"color: black; font-size: 80px; padding-left: 32%; padding-right: 6%; padding-top: 16%; padding-bottom: 49%\">+</p>"	"1077"	n/a	n/a	n/a	n/a	n/a	n/a	n/a	n/a	n/a
n/a	"image-keyboard-response"	"94"	"303429"	"0.0-5.0-2.0-1.20"	"dxk624"	"657"	"1366"	"chrome"	"109.0.0"	"FALSE"	"Windows 10"	"60.92"	"012"	n/a	n/a	n/a	n/a	n/a	n/a	"Trial"	n/a	n/a	n/a	"461"	"arrowup"	n/a	"NULL"	"NULL"	"NULL"	"stimuli/MullerLyer_2.30000_0.35000.png"	n/a	"MullerLyer"	"arrowup"	"1091"	"TRUE"	"MullerLyer"	"2.3000000000"	"0.3500000000"	"1"	"39"
n/a	"html-keyboard-response"	"95"	"304823"	"0.0-5.0-2.0-0.21"	"dxk624"	"657"	"1366"	"chrome"	"109.0.0"	"FALSE"	"Windows 10"	"60.92"	"012"	n/a	n/a	n/a	n/a	n/a	n/a	"fixation"	n/a	n/a	n/a	n/a	"NULL"	n/a	"NULL"	"NULL"	"NULL"	"<p style=\"color: black; font-size: 80px; padding-left: 49%; padding-right: 14%; padding-top: 33%; padding-bottom: 15%\">+</p>"	"1387"	n/a	n/a	n/a	n/a	n/a	n/a	n/a	n/a	n/a
n/a	"image-keyboard-response"	"96"	"305250"	"0.0-5.0-2.0-1.21"	"dxk624"	"657"	"1366"	"chrome"	"109.0.0"	"FALSE"	"Windows 10"	"60.92"	"012"	n/a	n/a	n/a	n/a	n/a	n/a	"Trial"	n/a	n/a	n/a	"426"	"arrowdown"	n/a	"NULL"	"NULL"	"NULL"	"stimuli/MullerLyer_-14.12857_-0.14541.png"	n/a	"MullerLyer"	"arrowdown"	"1394"	"TRUE"	"MullerLyer"	"-14.12857000"	"-0.145410000"	"1"	"40"
n/a	"html-keyboard-response"	"97"	"306482"	"0.0-5.0-2.0-0.22"	"dxk624"	"657"	"1366"	"chrome"	"109.0.0"	"FALSE"	"Windows 10"	"60.92"	"012"	n/a	n/a	n/a	n/a	n/a	n/a	"fixation"	n/a	n/a	n/a	n/a	"NULL"	n/a	"NULL"	"NULL"	"NULL"	"<p style=\"color: black; font-size: 80px; padding-left: 20%; padding-right: 45%; padding-top: 42%; padding-bottom: 25%\">+</p>"	"1217"	n/a	n/a	n/a	n/a	n/a	n/a	n/a	n/a	n/a
n/a	"image-keyboard-response"	"98"	"306990"	"0.0-5.0-2.0-1.22"	"dxk624"	"657"	"1366"	"chrome"	"109.0.0"	"FALSE"	"Windows 10"	"60.92"	"012"	n/a	n/a	n/a	n/a	n/a	n/a	"Trial"	n/a	n/a	n/a	"507"	"arrowup"	n/a	"NULL"	"NULL"	"NULL"	"stimuli/MullerLyer_-14.12857_0.23665.png"	n/a	"MullerLyer"	"arrowup"	"1232"	"TRUE"	"MullerLyer"	"-14.12857000"	"0.2366500000"	"1"	"41"
n/a	"html-keyboard-response"	"99"	"308086"	"0.0-5.0-2.0-0.23"	"dxk624"	"657"	"1366"	"chrome"	"109.0.0"	"FALSE"	"Windows 10"	"60.92"	"012"	n/a	n/a	n/a	n/a	n/a	n/a	"fixation"	n/a	n/a	n/a	n/a	"NULL"	n/a	"NULL"	"NULL"	"NULL"	"<p style=\"color: black; font-size: 80px; padding-left: 23%; padding-right: 34%; padding-top: 10%; padding-bottom: 25%\">+</p>"	"1080"	n/a	n/a	n/a	n/a	n/a	n/a	n/a	n/a	n/a
n/a	"image-keyboard-response"	"100"	"308600"	"0.0-5.0-2.0-1.23"	"dxk624"	"657"	"1366"	"chrome"	"109.0.0"	"FALSE"	"Windows 10"	"60.92"	"012"	n/a	n/a	n/a	n/a	n/a	n/a	"Trial"	n/a	n/a	n/a	"514"	"arrowdown"	n/a	"NULL"	"NULL"	"NULL"	"stimuli/MullerLyer_8.21429_-0.14541.png"	n/a	"MullerLyer"	"arrowdown"	"1096"	"TRUE"	"MullerLyer"	"8.2142900000"	"-0.145410000"	"1"	"42"
n/a	"html-keyboard-response"	"101"	"309955"	"0.0-5.0-2.0-0.24"	"dxk624"	"657"	"1366"	"chrome"	"109.0.0"	"FALSE"	"Windows 10"	"60.92"	"012"	n/a	n/a	n/a	n/a	n/a	n/a	"fixation"	n/a	n/a	n/a	n/a	"NULL"	n/a	"NULL"	"NULL"	"NULL"	"<p style=\"color: black; font-size: 80px; padding-left: 31%; padding-right: 6%; padding-top: 19%; padding-bottom: 34%\">+</p>"	"1337"	n/a	n/a	n/a	n/a	n/a	n/a	n/a	n/a	n/a
n/a	"image-keyboard-response"	"102"	"310410"	"0.0-5.0-2.0-1.24"	"dxk624"	"657"	"1366"	"chrome"	"109.0.0"	"FALSE"	"Windows 10"	"60.92"	"012"	n/a	n/a	n/a	n/a	n/a	n/a	"Trial"	n/a	n/a	n/a	"455"	"arrowup"	n/a	"NULL"	"NULL"	"NULL"	"stimuli/MullerLyer_8.21429_0.23665.png"	n/a	"MullerLyer"	"arrowup"	"1355"	"TRUE"	"MullerLyer"	"8.2142900000"	"0.2366500000"	"1"	"43"
n/a	"html-keyboard-response"	"103"	"311666"	"0.0-5.0-2.0-0.25"	"dxk624"	"657"	"1366"	"chrome"	"109.0.0"	"FALSE"	"Windows 10"	"60.92"	"012"	n/a	n/a	n/a	n/a	n/a	n/a	"fixation"	n/a	n/a	n/a	n/a	"NULL"	n/a	"NULL"	"NULL"	"NULL"	"<p style=\"color: black; font-size: 80px; padding-left: 48%; padding-right: 27%; padding-top: 25%; padding-bottom: 9%\">+</p>"	"1240"	n/a	n/a	n/a	n/a	n/a	n/a	n/a	n/a	n/a
n/a	"image-keyboard-response"	"104"	"312183"	"0.0-5.0-2.0-1.25"	"dxk624"	"657"	"1366"	"chrome"	"109.0.0"	"FALSE"	"Windows 10"	"60.92"	"012"	n/a	n/a	n/a	n/a	n/a	n/a	"Trial"	n/a	n/a	n/a	"516"	"arrowdown"	n/a	"NULL"	"NULL"	"NULL"	"stimuli/MullerLyer_-14.12857_-0.3500.png"	n/a	"MullerLyer"	"arrowdown"	"1256"	"TRUE"	"MullerLyer"	"-14.12857000"	"-0.350000000"	"1"	"44"
n/a	"html-keyboard-response"	"105"	"313373"	"0.0-5.0-2.0-0.26"	"dxk624"	"657"	"1366"	"chrome"	"109.0.0"	"FALSE"	"Windows 10"	"60.92"	"012"	n/a	n/a	n/a	n/a	n/a	n/a	"fixation"	n/a	n/a	n/a	n/a	"NULL"	n/a	"NULL"	"NULL"	"NULL"	"<p style=\"color: black; font-size: 80px; padding-left: 29%; padding-right: 0%; padding-top: 18%; padding-bottom: 9%\">+</p>"	"1182"	n/a	n/a	n/a	n/a	n/a	n/a	n/a	n/a	n/a
n/a	"image-keyboard-response"	"106"	"313809"	"0.0-5.0-2.0-1.26"	"dxk624"	"657"	"1366"	"chrome"	"109.0.0"	"FALSE"	"Windows 10"	"60.92"	"012"	n/a	n/a	n/a	n/a	n/a	n/a	"Trial"	n/a	n/a	n/a	"436"	"arrowup"	n/a	"NULL"	"NULL"	"NULL"	"stimuli/MullerLyer_-2.3000_0.35000.png"	n/a	"MullerLyer"	"arrowup"	"1190"	"TRUE"	"MullerLyer"	"-2.300000000"	"0.3500000000"	"1"	"45"
n/a	"html-keyboard-response"	"107"	"315059"	"0.0-5.0-2.0-0.27"	"dxk624"	"657"	"1366"	"chrome"	"109.0.0"	"FALSE"	"Windows 10"	"60.92"	"012"	n/a	n/a	n/a	n/a	n/a	n/a	"fixation"	n/a	n/a	n/a	n/a	"NULL"	n/a	"NULL"	"NULL"	"NULL"	"<p style=\"color: black; font-size: 80px; padding-left: 41%; padding-right: 3%; padding-top: 21%; padding-bottom: 28%\">+</p>"	"1238"	n/a	n/a	n/a	n/a	n/a	n/a	n/a	n/a	n/a
n/a	"image-keyboard-response"	"108"	"315524"	"0.0-5.0-2.0-1.27"	"dxk624"	"657"	"1366"	"chrome"	"109.0.0"	"FALSE"	"Windows 10"	"60.92"	"012"	n/a	n/a	n/a	n/a	n/a	n/a	"Trial"	n/a	n/a	n/a	"464"	"arrowup"	n/a	"NULL"	"NULL"	"NULL"	"stimuli/MullerLyer_-14.12857_0.35000.png"	n/a	"MullerLyer"	"arrowup"	"1250"	"TRUE"	"MullerLyer"	"-14.12857000"	"0.3500000000"	"1"	"46"
n/a	"html-keyboard-response"	"109"	"316538"	"0.0-5.0-2.0-0.28"	"dxk624"	"657"	"1366"	"chrome"	"109.0.0"	"FALSE"	"Windows 10"	"60.92"	"012"	n/a	n/a	n/a	n/a	n/a	n/a	"fixation"	n/a	n/a	n/a	n/a	"NULL"	n/a	"NULL"	"NULL"	"NULL"	"<p style=\"color: black; font-size: 80px; padding-left: 47%; padding-right: 38%; padding-top: 11%; padding-bottom: 34%\">+</p>"	"1013"	n/a	n/a	n/a	n/a	n/a	n/a	n/a	n/a	n/a
n/a	"image-keyboard-response"	"110"	"316984"	"0.0-5.0-2.0-1.28"	"dxk624"	"657"	"1366"	"chrome"	"109.0.0"	"FALSE"	"Windows 10"	"60.92"	"012"	n/a	n/a	n/a	n/a	n/a	n/a	"Trial"	n/a	n/a	n/a	"445"	"arrowup"	n/a	"NULL"	"NULL"	"NULL"	"stimuli/MullerLyer_-20.04286_0.14541.png"	n/a	"MullerLyer"	"arrowup"	"1014"	"TRUE"	"MullerLyer"	"-20.04286000"	"0.1454100000"	"1"	"47"
n/a	"html-keyboard-response"	"111"	"318329"	"0.0-5.0-2.0-0.29"	"dxk624"	"657"	"1366"	"chrome"	"109.0.0"	"FALSE"	"Windows 10"	"60.92"	"012"	n/a	n/a	n/a	n/a	n/a	n/a	"fixation"	n/a	n/a	n/a	n/a	"NULL"	n/a	"NULL"	"NULL"	"NULL"	"<p style=\"color: black; font-size: 80px; padding-left: 12%; padding-right: 17%; padding-top: 15%; padding-bottom: 20%\">+</p>"	"1324"	n/a	n/a	n/a	n/a	n/a	n/a	n/a	n/a	n/a
n/a	"image-keyboard-response"	"112"	"318756"	"0.0-5.0-2.0-1.29"	"dxk624"	"657"	"1366"	"chrome"	"109.0.0"	"FALSE"	"Windows 10"	"60.92"	"012"	n/a	n/a	n/a	n/a	n/a	n/a	"Trial"	n/a	n/a	n/a	"427"	"arrowup"	n/a	"NULL"	"NULL"	"NULL"	"stimuli/MullerLyer_-8.21429_0.35000.png"	n/a	"MullerLyer"	"arrowup"	"1345"	"TRUE"	"MullerLyer"	"-8.214290000"	"0.3500000000"	"1"	"48"
n/a	"html-keyboard-response"	"113"	"319969"	"0.0-5.0-2.0-0.30"	"dxk624"	"657"	"1366"	"chrome"	"109.0.0"	"FALSE"	"Windows 10"	"60.92"	"012"	n/a	n/a	n/a	n/a	n/a	n/a	"fixation"	n/a	n/a	n/a	n/a	"NULL"	n/a	"NULL"	"NULL"	"NULL"	"<p style=\"color: black; font-size: 80px; padding-left: 8%; padding-right: 27%; padding-top: 41%; padding-bottom: 18%\">+</p>"	"1201"	n/a	n/a	n/a	n/a	n/a	n/a	n/a	n/a	n/a
n/a	"image-keyboard-response"	"114"	"320433"	"0.0-5.0-2.0-1.30"	"dxk624"	"657"	"1366"	"chrome"	"109.0.0"	"FALSE"	"Windows 10"	"60.92"	"012"	n/a	n/a	n/a	n/a	n/a	n/a	"Trial"	n/a	n/a	n/a	"463"	"arrowup"	n/a	"NULL"	"NULL"	"NULL"	"stimuli/MullerLyer_8.21429_0.35000.png"	n/a	"MullerLyer"	"arrowup"	"1213"	"TRUE"	"MullerLyer"	"8.2142900000"	"0.3500000000"	"1"	"49"
n/a	"html-keyboard-response"	"115"	"321505"	"0.0-5.0-2.0-0.31"	"dxk624"	"657"	"1366"	"chrome"	"109.0.0"	"FALSE"	"Windows 10"	"60.92"	"012"	n/a	n/a	n/a	n/a	n/a	n/a	"fixation"	n/a	n/a	n/a	n/a	"NULL"	n/a	"NULL"	"NULL"	"NULL"	"<p style=\"color: black; font-size: 80px; padding-left: 24%; padding-right: 22%; padding-top: 19%; padding-bottom: 3%\">+</p>"	"1060"	n/a	n/a	n/a	n/a	n/a	n/a	n/a	n/a	n/a
n/a	"image-keyboard-response"	"116"	"322648"	"0.0-5.0-2.0-1.31"	"dxk624"	"657"	"1366"	"chrome"	"109.0.0"	"FALSE"	"Windows 10"	"60.92"	"012"	n/a	n/a	n/a	n/a	n/a	n/a	"Trial"	n/a	n/a	n/a	"1143"	"arrowdown"	n/a	"NULL"	"NULL"	"NULL"	"stimuli/MullerLyer_8.21429_-0.23665.png"	n/a	"MullerLyer"	"arrowdown"	"1072"	"TRUE"	"MullerLyer"	"8.2142900000"	"-0.236650000"	"1"	"50"
n/a	"html-keyboard-response"	"117"	"324067"	"0.0-5.0-2.0-0.32"	"dxk624"	"657"	"1366"	"chrome"	"109.0.0"	"FALSE"	"Windows 10"	"60.92"	"012"	n/a	n/a	n/a	n/a	n/a	n/a	"fixation"	n/a	n/a	n/a	n/a	"NULL"	n/a	"NULL"	"NULL"	"NULL"	"<p style=\"color: black; font-size: 80px; padding-left: 25%; padding-right: 43%; padding-top: 20%; padding-bottom: 44%\">+</p>"	"1404"	n/a	n/a	n/a	n/a	n/a	n/a	n/a	n/a	n/a
n/a	"image-keyboard-response"	"118"	"324521"	"0.0-5.0-2.0-1.32"	"dxk624"	"657"	"1366"	"chrome"	"109.0.0"	"FALSE"	"Windows 10"	"60.92"	"012"	n/a	n/a	n/a	n/a	n/a	n/a	"Trial"	n/a	n/a	n/a	"452"	"arrowup"	n/a	"NULL"	"NULL"	"NULL"	"stimuli/MullerLyer_-2.3000_0.23665.png"	n/a	"MullerLyer"	"arrowup"	"1419"	"TRUE"	"MullerLyer"	"-2.300000000"	"0.2366500000"	"1"	"51"
n/a	"html-keyboard-response"	"119"	"325714"	"0.0-5.0-2.0-0.33"	"dxk624"	"657"	"1366"	"chrome"	"109.0.0"	"FALSE"	"Windows 10"	"60.92"	"012"	n/a	n/a	n/a	n/a	n/a	n/a	"fixation"	n/a	n/a	n/a	n/a	"NULL"	n/a	"NULL"	"NULL"	"NULL"	"<p style=\"color: black; font-size: 80px; padding-left: 26%; padding-right: 34%; padding-top: 23%; padding-bottom: 41%\">+</p>"	"1178"	n/a	n/a	n/a	n/a	n/a	n/a	n/a	n/a	n/a
n/a	"image-keyboard-response"	"120"	"326435"	"0.0-5.0-2.0-1.33"	"dxk624"	"657"	"1366"	"chrome"	"109.0.0"	"FALSE"	"Windows 10"	"60.92"	"012"	n/a	n/a	n/a	n/a	n/a	n/a	"Trial"	n/a	n/a	n/a	"721"	"arrowup"	n/a	"NULL"	"NULL"	"NULL"	"stimuli/MullerLyer_14.12857_0.23665.png"	n/a	"MullerLyer"	"arrowup"	"1193"	"TRUE"	"MullerLyer"	"14.128570000"	"0.2366500000"	"1"	"52"
n/a	"html-keyboard-response"	"121"	"327828"	"0.0-5.0-2.0-0.34"	"dxk624"	"657"	"1366"	"chrome"	"109.0.0"	"FALSE"	"Windows 10"	"60.92"	"012"	n/a	n/a	n/a	n/a	n/a	n/a	"fixation"	n/a	n/a	n/a	n/a	"NULL"	n/a	"NULL"	"NULL"	"NULL"	"<p style=\"color: black; font-size: 80px; padding-left: 23%; padding-right: 43%; padding-top: 41%; padding-bottom: 21%\">+</p>"	"1380"	n/a	n/a	n/a	n/a	n/a	n/a	n/a	n/a	n/a
n/a	"image-keyboard-response"	"122"	"328342"	"0.0-5.0-2.0-1.34"	"dxk624"	"657"	"1366"	"chrome"	"109.0.0"	"FALSE"	"Windows 10"	"60.92"	"012"	n/a	n/a	n/a	n/a	n/a	n/a	"Trial"	n/a	n/a	n/a	"514"	"arrowdown"	n/a	"NULL"	"NULL"	"NULL"	"stimuli/MullerLyer_14.12857_-0.3500.png"	n/a	"MullerLyer"	"arrowdown"	"1393"	"TRUE"	"MullerLyer"	"14.128570000"	"-0.350000000"	"1"	"53"
n/a	"html-keyboard-response"	"123"	"329527"	"0.0-5.0-2.0-0.35"	"dxk624"	"657"	"1366"	"chrome"	"109.0.0"	"FALSE"	"Windows 10"	"60.92"	"012"	n/a	n/a	n/a	n/a	n/a	n/a	"fixation"	n/a	n/a	n/a	n/a	"NULL"	n/a	"NULL"	"NULL"	"NULL"	"<p style=\"color: black; font-size: 80px; padding-left: 29%; padding-right: 15%; padding-top: 49%; padding-bottom: 22%\">+</p>"	"1167"	n/a	n/a	n/a	n/a	n/a	n/a	n/a	n/a	n/a
n/a	"image-keyboard-response"	"124"	"330136"	"0.0-5.0-2.0-1.35"	"dxk624"	"657"	"1366"	"chrome"	"109.0.0"	"FALSE"	"Windows 10"	"60.92"	"012"	n/a	n/a	n/a	n/a	n/a	n/a	"Trial"	n/a	n/a	n/a	"608"	"arrowdown"	n/a	"NULL"	"NULL"	"NULL"	"stimuli/MullerLyer_20.04286_0.35000.png"	n/a	"MullerLyer"	"arrowup"	"1185"	"FALSE"	"MullerLyer"	"20.042860000"	"0.3500000000"	"1"	"54"
n/a	"html-keyboard-response"	"125"	"331314"	"0.0-5.0-2.0-0.36"	"dxk624"	"657"	"1366"	"chrome"	"109.0.0"	"FALSE"	"Windows 10"	"60.92"	"012"	n/a	n/a	n/a	n/a	n/a	n/a	"fixation"	n/a	n/a	n/a	n/a	"NULL"	n/a	"NULL"	"NULL"	"NULL"	"<p style=\"color: black; font-size: 80px; padding-left: 1%; padding-right: 27%; padding-top: 37%; padding-bottom: 9%\">+</p>"	"1158"	n/a	n/a	n/a	n/a	n/a	n/a	n/a	n/a	n/a
n/a	"image-keyboard-response"	"126"	"331926"	"0.0-5.0-2.0-1.36"	"dxk624"	"657"	"1366"	"chrome"	"109.0.0"	"FALSE"	"Windows 10"	"60.92"	"012"	n/a	n/a	n/a	n/a	n/a	n/a	"Trial"	n/a	n/a	n/a	"611"	"arrowup"	n/a	"NULL"	"NULL"	"NULL"	"stimuli/MullerLyer_-8.21429_0.07627.png"	n/a	"MullerLyer"	"arrowup"	"1178"	"TRUE"	"MullerLyer"	"-8.214290000"	"0.0762700000"	"1"	"55"
n/a	"html-keyboard-response"	"127"	"333170"	"0.0-5.0-2.0-0.37"	"dxk624"	"657"	"1366"	"chrome"	"109.0.0"	"FALSE"	"Windows 10"	"60.92"	"012"	n/a	n/a	n/a	n/a	n/a	n/a	"fixation"	n/a	n/a	n/a	n/a	"NULL"	n/a	"NULL"	"NULL"	"NULL"	"<p style=\"color: black; font-size: 80px; padding-left: 47%; padding-right: 24%; padding-top: 15%; padding-bottom: 18%\">+</p>"	"1236"	n/a	n/a	n/a	n/a	n/a	n/a	n/a	n/a	n/a
n/a	"image-keyboard-response"	"128"	"333644"	"0.0-5.0-2.0-1.37"	"dxk624"	"657"	"1366"	"chrome"	"109.0.0"	"FALSE"	"Windows 10"	"60.92"	"012"	n/a	n/a	n/a	n/a	n/a	n/a	"Trial"	n/a	n/a	n/a	"472"	"arrowdown"	n/a	"NULL"	"NULL"	"NULL"	"stimuli/MullerLyer_14.12857_0.07627.png"	n/a	"MullerLyer"	"arrowup"	"1244"	"FALSE"	"MullerLyer"	"14.128570000"	"0.0762700000"	"1"	"56"
n/a	"html-keyboard-response"	"129"	"334719"	"0.0-5.0-2.0-0.38"	"dxk624"	"657"	"1366"	"chrome"	"109.0.0"	"FALSE"	"Windows 10"	"60.92"	"012"	n/a	n/a	n/a	n/a	n/a	n/a	"fixation"	n/a	n/a	n/a	n/a	"NULL"	n/a	"NULL"	"NULL"	"NULL"	"<p style=\"color: black; font-size: 80px; padding-left: 17%; padding-right: 46%; padding-top: 6%; padding-bottom: 5%\">+</p>"	"1057"	n/a	n/a	n/a	n/a	n/a	n/a	n/a	n/a	n/a
n/a	"image-keyboard-response"	"130"	"335581"	"0.0-5.0-2.0-1.38"	"dxk624"	"657"	"1366"	"chrome"	"109.0.0"	"FALSE"	"Windows 10"	"60.92"	"012"	n/a	n/a	n/a	n/a	n/a	n/a	"Trial"	n/a	n/a	n/a	"861"	"arrowdown"	n/a	"NULL"	"NULL"	"NULL"	"stimuli/MullerLyer_2.30000_-0.07627.png"	n/a	"MullerLyer"	"arrowdown"	"1075"	"TRUE"	"MullerLyer"	"2.3000000000"	"-0.076270000"	"1"	"57"
n/a	"html-keyboard-response"	"131"	"337096"	"0.0-5.0-2.0-0.39"	"dxk624"	"657"	"1366"	"chrome"	"109.0.0"	"FALSE"	"Windows 10"	"60.92"	"012"	n/a	n/a	n/a	n/a	n/a	n/a	"fixation"	n/a	n/a	n/a	n/a	"NULL"	n/a	"NULL"	"NULL"	"NULL"	"<p style=\"color: black; font-size: 80px; padding-left: 44%; padding-right: 6%; padding-top: 6%; padding-bottom: 7%\">+</p>"	"1494"	n/a	n/a	n/a	n/a	n/a	n/a	n/a	n/a	n/a
n/a	"image-keyboard-response"	"132"	"337500"	"0.0-5.0-2.0-1.39"	"dxk624"	"657"	"1366"	"chrome"	"109.0.0"	"FALSE"	"Windows 10"	"60.92"	"012"	n/a	n/a	n/a	n/a	n/a	n/a	"Trial"	n/a	n/a	n/a	"403"	"arrowup"	n/a	"NULL"	"NULL"	"NULL"	"stimuli/MullerLyer_-8.21429_0.23665.png"	n/a	"MullerLyer"	"arrowup"	"1515"	"TRUE"	"MullerLyer"	"-8.214290000"	"0.2366500000"	"1"	"58"
n/a	"html-keyboard-response"	"133"	"338798"	"0.0-5.0-2.0-0.40"	"dxk624"	"657"	"1366"	"chrome"	"109.0.0"	"FALSE"	"Windows 10"	"60.92"	"012"	n/a	n/a	n/a	n/a	n/a	n/a	"fixation"	n/a	n/a	n/a	n/a	"NULL"	n/a	"NULL"	"NULL"	"NULL"	"<p style=\"color: black; font-size: 80px; padding-left: 29%; padding-right: 33%; padding-top: 6%; padding-bottom: 5%\">+</p>"	"1294"	n/a	n/a	n/a	n/a	n/a	n/a	n/a	n/a	n/a
n/a	"image-keyboard-response"	"134"	"339412"	"0.0-5.0-2.0-1.40"	"dxk624"	"657"	"1366"	"chrome"	"109.0.0"	"FALSE"	"Windows 10"	"60.92"	"012"	n/a	n/a	n/a	n/a	n/a	n/a	"Trial"	n/a	n/a	n/a	"612"	"arrowdown"	n/a	"NULL"	"NULL"	"NULL"	"stimuli/MullerLyer_-8.21429_-0.07627.png"	n/a	"MullerLyer"	"arrowdown"	"1298"	"TRUE"	"MullerLyer"	"-8.214290000"	"-0.076270000"	"1"	"59"
n/a	"html-keyboard-response"	"135"	"340738"	"0.0-5.0-2.0-0.41"	"dxk624"	"657"	"1366"	"chrome"	"109.0.0"	"FALSE"	"Windows 10"	"60.92"	"012"	n/a	n/a	n/a	n/a	n/a	n/a	"fixation"	n/a	n/a	n/a	n/a	"NULL"	n/a	"NULL"	"NULL"	"NULL"	"<p style=\"color: black; font-size: 80px; padding-left: 29%; padding-right: 10%; padding-top: 27%; padding-bottom: 45%\">+</p>"	"1304"	n/a	n/a	n/a	n/a	n/a	n/a	n/a	n/a	n/a
n/a	"image-keyboard-response"	"136"	"341585"	"0.0-5.0-2.0-1.41"	"dxk624"	"657"	"1366"	"chrome"	"109.0.0"	"FALSE"	"Windows 10"	"60.92"	"012"	n/a	n/a	n/a	n/a	n/a	n/a	"Trial"	n/a	n/a	n/a	"846"	"arrowdown"	n/a	"NULL"	"NULL"	"NULL"	"stimuli/MullerLyer_20.04286_0.23665.png"	n/a	"MullerLyer"	"arrowup"	"1326"	"FALSE"	"MullerLyer"	"20.042860000"	"0.2366500000"	"1"	"60"
n/a	"html-keyboard-response"	"137"	"342936"	"0.0-5.0-2.0-0.42"	"dxk624"	"657"	"1366"	"chrome"	"109.0.0"	"FALSE"	"Windows 10"	"60.92"	"012"	n/a	n/a	n/a	n/a	n/a	n/a	"fixation"	n/a	n/a	n/a	n/a	"NULL"	n/a	"NULL"	"NULL"	"NULL"	"<p style=\"color: black; font-size: 80px; padding-left: 41%; padding-right: 8%; padding-top: 15%; padding-bottom: 22%\">+</p>"	"1334"	n/a	n/a	n/a	n/a	n/a	n/a	n/a	n/a	n/a
n/a	"image-keyboard-response"	"138"	"343493"	"0.0-5.0-2.0-1.42"	"dxk624"	"657"	"1366"	"chrome"	"109.0.0"	"FALSE"	"Windows 10"	"60.92"	"012"	n/a	n/a	n/a	n/a	n/a	n/a	"Trial"	n/a	n/a	n/a	"556"	"arrowup"	n/a	"NULL"	"NULL"	"NULL"	"stimuli/MullerLyer_14.12857_-0.23665.png"	n/a	"MullerLyer"	"arrowdown"	"1351"	"FALSE"	"MullerLyer"	"14.128570000"	"-0.236650000"	"1"	"61"
n/a	"html-keyboard-response"	"139"	"344741"	"0.0-5.0-2.0-0.43"	"dxk624"	"657"	"1366"	"chrome"	"109.0.0"	"FALSE"	"Windows 10"	"60.92"	"012"	n/a	n/a	n/a	n/a	n/a	n/a	"fixation"	n/a	n/a	n/a	n/a	"NULL"	n/a	"NULL"	"NULL"	"NULL"	"<p style=\"color: black; font-size: 80px; padding-left: 17%; padding-right: 30%; padding-top: 13%; padding-bottom: 14%\">+</p>"	"1227"	n/a	n/a	n/a	n/a	n/a	n/a	n/a	n/a	n/a
n/a	"image-keyboard-response"	"140"	"345220"	"0.0-5.0-2.0-1.43"	"dxk624"	"657"	"1366"	"chrome"	"109.0.0"	"FALSE"	"Windows 10"	"60.92"	"012"	n/a	n/a	n/a	n/a	n/a	n/a	"Trial"	n/a	n/a	n/a	"476"	"arrowdown"	n/a	"NULL"	"NULL"	"NULL"	"stimuli/MullerLyer_-8.21429_-0.3500.png"	n/a	"MullerLyer"	"arrowdown"	"1248"	"TRUE"	"MullerLyer"	"-8.214290000"	"-0.350000000"	"1"	"62"
n/a	"html-keyboard-response"	"141"	"346297"	"0.0-5.0-2.0-0.44"	"dxk624"	"657"	"1366"	"chrome"	"109.0.0"	"FALSE"	"Windows 10"	"60.92"	"012"	n/a	n/a	n/a	n/a	n/a	n/a	"fixation"	n/a	n/a	n/a	n/a	"NULL"	n/a	"NULL"	"NULL"	"NULL"	"<p style=\"color: black; font-size: 80px; padding-left: 6%; padding-right: 4%; padding-top: 38%; padding-bottom: 1%\">+</p>"	"1063"	n/a	n/a	n/a	n/a	n/a	n/a	n/a	n/a	n/a
n/a	"image-keyboard-response"	"142"	"346832"	"0.0-5.0-2.0-1.44"	"dxk624"	"657"	"1366"	"chrome"	"109.0.0"	"FALSE"	"Windows 10"	"60.92"	"012"	n/a	n/a	n/a	n/a	n/a	n/a	"Trial"	n/a	n/a	n/a	"534"	"arrowup"	n/a	"NULL"	"NULL"	"NULL"	"stimuli/MullerLyer_14.12857_-0.07627.png"	n/a	"MullerLyer"	"arrowdown"	"1077"	"FALSE"	"MullerLyer"	"14.128570000"	"-0.076270000"	"1"	"63"
n/a	"html-keyboard-response"	"143"	"348181"	"0.0-5.0-2.0-0.45"	"dxk624"	"657"	"1366"	"chrome"	"109.0.0"	"FALSE"	"Windows 10"	"60.92"	"012"	n/a	n/a	n/a	n/a	n/a	n/a	"fixation"	n/a	n/a	n/a	n/a	"NULL"	n/a	"NULL"	"NULL"	"NULL"	"<p style=\"color: black; font-size: 80px; padding-left: 49%; padding-right: 25%; padding-top: 9%; padding-bottom: 2%\">+</p>"	"1337"	n/a	n/a	n/a	n/a	n/a	n/a	n/a	n/a	n/a
n/a	"image-keyboard-response"	"144"	"348833"	"0.0-5.0-2.0-1.45"	"dxk624"	"657"	"1366"	"chrome"	"109.0.0"	"FALSE"	"Windows 10"	"60.92"	"012"	n/a	n/a	n/a	n/a	n/a	n/a	"Trial"	n/a	n/a	n/a	"651"	"arrowup"	n/a	"NULL"	"NULL"	"NULL"	"stimuli/MullerLyer_-20.04286_0.07627.png"	n/a	"MullerLyer"	"arrowup"	"1349"	"TRUE"	"MullerLyer"	"-20.04286000"	"0.0762700000"	"1"	"64"
n/a	"html-keyboard-response"	"145"	"350187"	"0.0-5.0-2.0-0.46"	"dxk624"	"657"	"1366"	"chrome"	"109.0.0"	"FALSE"	"Windows 10"	"60.92"	"012"	n/a	n/a	n/a	n/a	n/a	n/a	"fixation"	n/a	n/a	n/a	n/a	"NULL"	n/a	"NULL"	"NULL"	"NULL"	"<p style=\"color: black; font-size: 80px; padding-left: 39%; padding-right: 30%; padding-top: 11%; padding-bottom: 29%\">+</p>"	"1339"	n/a	n/a	n/a	n/a	n/a	n/a	n/a	n/a	n/a
n/a	"image-keyboard-response"	"146"	"350737"	"0.0-5.0-2.0-1.46"	"dxk624"	"657"	"1366"	"chrome"	"109.0.0"	"FALSE"	"Windows 10"	"60.92"	"012"	n/a	n/a	n/a	n/a	n/a	n/a	"Trial"	n/a	n/a	n/a	"549"	"arrowup"	n/a	"NULL"	"NULL"	"NULL"	"stimuli/MullerLyer_2.30000_0.23665.png"	n/a	"MullerLyer"	"arrowup"	"1354"	"TRUE"	"MullerLyer"	"2.3000000000"	"0.2366500000"	"1"	"65"
n/a	"html-keyboard-response"	"147"	"352202"	"0.0-5.0-2.0-0.47"	"dxk624"	"657"	"1366"	"chrome"	"109.0.0"	"FALSE"	"Windows 10"	"60.92"	"012"	n/a	n/a	n/a	n/a	n/a	n/a	"fixation"	n/a	n/a	n/a	n/a	"NULL"	n/a	"NULL"	"NULL"	"NULL"	"<p style=\"color: black; font-size: 80px; padding-left: 45%; padding-right: 4%; padding-top: 14%; padding-bottom: 26%\">+</p>"	"1455"	n/a	n/a	n/a	n/a	n/a	n/a	n/a	n/a	n/a
n/a	"image-keyboard-response"	"148"	"352683"	"0.0-5.0-2.0-1.47"	"dxk624"	"657"	"1366"	"chrome"	"109.0.0"	"FALSE"	"Windows 10"	"60.92"	"012"	n/a	n/a	n/a	n/a	n/a	n/a	"Trial"	n/a	n/a	n/a	"481"	"arrowdown"	n/a	"NULL"	"NULL"	"NULL"	"stimuli/MullerLyer_-20.04286_-0.3500.png"	n/a	"MullerLyer"	"arrowdown"	"1465"	"TRUE"	"MullerLyer"	"-20.04286000"	"-0.350000000"	"1"	"66"
n/a	"html-keyboard-response"	"149"	"353924"	"0.0-5.0-2.0-0.48"	"dxk624"	"657"	"1366"	"chrome"	"109.0.0"	"FALSE"	"Windows 10"	"60.92"	"012"	n/a	n/a	n/a	n/a	n/a	n/a	"fixation"	n/a	n/a	n/a	n/a	"NULL"	n/a	"NULL"	"NULL"	"NULL"	"<p style=\"color: black; font-size: 80px; padding-left: 32%; padding-right: 33%; padding-top: 28%; padding-bottom: 7%\">+</p>"	"1223"	n/a	n/a	n/a	n/a	n/a	n/a	n/a	n/a	n/a
n/a	"image-keyboard-response"	"150"	"354506"	"0.0-5.0-2.0-1.48"	"dxk624"	"657"	"1366"	"chrome"	"109.0.0"	"FALSE"	"Windows 10"	"60.92"	"012"	n/a	n/a	n/a	n/a	n/a	n/a	"Trial"	n/a	n/a	n/a	"581"	"arrowdown"	n/a	"NULL"	"NULL"	"NULL"	"stimuli/MullerLyer_-2.3000_-0.3500.png"	n/a	"MullerLyer"	"arrowdown"	"1241"	"TRUE"	"MullerLyer"	"-2.300000000"	"-0.350000000"	"1"	"67"
n/a	"html-keyboard-response"	"151"	"355577"	"0.0-5.0-2.0-0.49"	"dxk624"	"657"	"1366"	"chrome"	"109.0.0"	"FALSE"	"Windows 10"	"60.92"	"012"	n/a	n/a	n/a	n/a	n/a	n/a	"fixation"	n/a	n/a	n/a	n/a	"NULL"	n/a	"NULL"	"NULL"	"NULL"	"<p style=\"color: black; font-size: 80px; padding-left: 16%; padding-right: 47%; padding-top: 31%; padding-bottom: 22%\">+</p>"	"1057"	n/a	n/a	n/a	n/a	n/a	n/a	n/a	n/a	n/a
n/a	"image-keyboard-response"	"152"	"356091"	"0.0-5.0-2.0-1.49"	"dxk624"	"657"	"1366"	"chrome"	"109.0.0"	"FALSE"	"Windows 10"	"60.92"	"012"	n/a	n/a	n/a	n/a	n/a	n/a	"Trial"	n/a	n/a	n/a	"513"	"arrowup"	n/a	"NULL"	"NULL"	"NULL"	"stimuli/MullerLyer_2.30000_0.07627.png"	n/a	"MullerLyer"	"arrowup"	"1071"	"TRUE"	"MullerLyer"	"2.3000000000"	"0.0762700000"	"1"	"68"
n/a	"html-keyboard-response"	"153"	"357186"	"0.0-5.0-2.0-0.50"	"dxk624"	"657"	"1366"	"chrome"	"109.0.0"	"FALSE"	"Windows 10"	"60.92"	"012"	n/a	n/a	n/a	n/a	n/a	n/a	"fixation"	n/a	n/a	n/a	n/a	"NULL"	n/a	"NULL"	"NULL"	"NULL"	"<p style=\"color: black; font-size: 80px; padding-left: 47%; padding-right: 46%; padding-top: 27%; padding-bottom: 49%\">+</p>"	"1085"	n/a	n/a	n/a	n/a	n/a	n/a	n/a	n/a	n/a
n/a	"image-keyboard-response"	"154"	"357707"	"0.0-5.0-2.0-1.50"	"dxk624"	"657"	"1366"	"chrome"	"109.0.0"	"FALSE"	"Windows 10"	"60.92"	"012"	n/a	n/a	n/a	n/a	n/a	n/a	"Trial"	n/a	n/a	n/a	"520"	"arrowup"	n/a	"NULL"	"NULL"	"NULL"	"stimuli/MullerLyer_20.04286_-0.14541.png"	n/a	"MullerLyer"	"arrowdown"	"1095"	"FALSE"	"MullerLyer"	"20.042860000"	"-0.145410000"	"1"	"69"
n/a	"html-keyboard-response"	"155"	"359151"	"0.0-5.0-2.0-0.51"	"dxk624"	"657"	"1366"	"chrome"	"109.0.0"	"FALSE"	"Windows 10"	"60.92"	"012"	n/a	n/a	n/a	n/a	n/a	n/a	"fixation"	n/a	n/a	n/a	n/a	"NULL"	n/a	"NULL"	"NULL"	"NULL"	"<p style=\"color: black; font-size: 80px; padding-left: 5%; padding-right: 19%; padding-top: 12%; padding-bottom: 16%\">+</p>"	"1432"	n/a	n/a	n/a	n/a	n/a	n/a	n/a	n/a	n/a
n/a	"image-keyboard-response"	"156"	"359664"	"0.0-5.0-2.0-1.51"	"dxk624"	"657"	"1366"	"chrome"	"109.0.0"	"FALSE"	"Windows 10"	"60.92"	"012"	n/a	n/a	n/a	n/a	n/a	n/a	"Trial"	n/a	n/a	n/a	"512"	"arrowup"	n/a	"NULL"	"NULL"	"NULL"	"stimuli/MullerLyer_20.04286_-0.07627.png"	n/a	"MullerLyer"	"arrowdown"	"1444"	"FALSE"	"MullerLyer"	"20.042860000"	"-0.076270000"	"1"	"70"
n/a	"html-keyboard-response"	"157"	"360960"	"0.0-5.0-2.0-0.52"	"dxk624"	"657"	"1366"	"chrome"	"109.0.0"	"FALSE"	"Windows 10"	"60.92"	"012"	n/a	n/a	n/a	n/a	n/a	n/a	"fixation"	n/a	n/a	n/a	n/a	"NULL"	n/a	"NULL"	"NULL"	"NULL"	"<p style=\"color: black; font-size: 80px; padding-left: 46%; padding-right: 2%; padding-top: 17%; padding-bottom: 34%\">+</p>"	"1291"	n/a	n/a	n/a	n/a	n/a	n/a	n/a	n/a	n/a
n/a	"image-keyboard-response"	"158"	"361409"	"0.0-5.0-2.0-1.52"	"dxk624"	"657"	"1366"	"chrome"	"109.0.0"	"FALSE"	"Windows 10"	"60.92"	"012"	n/a	n/a	n/a	n/a	n/a	n/a	"Trial"	n/a	n/a	n/a	"449"	"arrowup"	n/a	"NULL"	"NULL"	"NULL"	"stimuli/MullerLyer_14.12857_-0.14541.png"	n/a	"MullerLyer"	"arrowdown"	"1296"	"FALSE"	"MullerLyer"	"14.128570000"	"-0.145410000"	"1"	"71"
n/a	"html-keyboard-response"	"159"	"362672"	"0.0-5.0-2.0-0.53"	"dxk624"	"657"	"1366"	"chrome"	"109.0.0"	"FALSE"	"Windows 10"	"60.92"	"012"	n/a	n/a	n/a	n/a	n/a	n/a	"fixation"	n/a	n/a	n/a	n/a	"NULL"	n/a	"NULL"	"NULL"	"NULL"	"<p style=\"color: black; font-size: 80px; padding-left: 9%; padding-right: 4%; padding-top: 4%; padding-bottom: 32%\">+</p>"	"1243"	n/a	n/a	n/a	n/a	n/a	n/a	n/a	n/a	n/a
n/a	"image-keyboard-response"	"160"	"363209"	"0.0-5.0-2.0-1.53"	"dxk624"	"657"	"1366"	"chrome"	"109.0.0"	"FALSE"	"Windows 10"	"60.92"	"012"	n/a	n/a	n/a	n/a	n/a	n/a	"Trial"	n/a	n/a	n/a	"536"	"arrowdown"	n/a	"NULL"	"NULL"	"NULL"	"stimuli/MullerLyer_-14.12857_-0.23665.png"	n/a	"MullerLyer"	"arrowdown"	"1263"	"TRUE"	"MullerLyer"	"-14.12857000"	"-0.236650000"	"1"	"72"
n/a	"html-keyboard-response"	"161"	"364652"	"0.0-5.0-2.0-0.54"	"dxk624"	"657"	"1366"	"chrome"	"109.0.0"	"FALSE"	"Windows 10"	"60.92"	"012"	n/a	n/a	n/a	n/a	n/a	n/a	"fixation"	n/a	n/a	n/a	n/a	"NULL"	n/a	"NULL"	"NULL"	"NULL"	"<p style=\"color: black; font-size: 80px; padding-left: 9%; padding-right: 21%; padding-top: 31%; padding-bottom: 40%\">+</p>"	"1439"	n/a	n/a	n/a	n/a	n/a	n/a	n/a	n/a	n/a
n/a	"image-keyboard-response"	"162"	"365131"	"0.0-5.0-2.0-1.54"	"dxk624"	"657"	"1366"	"chrome"	"109.0.0"	"FALSE"	"Windows 10"	"60.92"	"012"	n/a	n/a	n/a	n/a	n/a	n/a	"Trial"	n/a	n/a	n/a	"472"	"arrowup"	n/a	"NULL"	"NULL"	"NULL"	"stimuli/MullerLyer_14.12857_0.35000.png"	n/a	"MullerLyer"	"arrowup"	"1443"	"TRUE"	"MullerLyer"	"14.128570000"	"0.3500000000"	"1"	"73"
n/a	"html-keyboard-response"	"163"	"366296"	"0.0-5.0-2.0-0.55"	"dxk624"	"657"	"1366"	"chrome"	"109.0.0"	"FALSE"	"Windows 10"	"60.92"	"012"	n/a	n/a	n/a	n/a	n/a	n/a	"fixation"	n/a	n/a	n/a	n/a	"NULL"	n/a	"NULL"	"NULL"	"NULL"	"<p style=\"color: black; font-size: 80px; padding-left: 10%; padding-right: 7%; padding-top: 29%; padding-bottom: 37%\">+</p>"	"1150"	n/a	n/a	n/a	n/a	n/a	n/a	n/a	n/a	n/a
n/a	"image-keyboard-response"	"164"	"366852"	"0.0-5.0-2.0-1.55"	"dxk624"	"657"	"1366"	"chrome"	"109.0.0"	"FALSE"	"Windows 10"	"60.92"	"012"	n/a	n/a	n/a	n/a	n/a	n/a	"Trial"	n/a	n/a	n/a	"555"	"arrowdown"	n/a	"NULL"	"NULL"	"NULL"	"stimuli/MullerLyer_8.21429_-0.3500.png"	n/a	"MullerLyer"	"arrowdown"	"1165"	"TRUE"	"MullerLyer"	"8.2142900000"	"-0.350000000"	"1"	"74"
n/a	"html-keyboard-response"	"165"	"367974"	"0.0-5.0-2.0-0.56"	"dxk624"	"657"	"1366"	"chrome"	"109.0.0"	"FALSE"	"Windows 10"	"60.92"	"012"	n/a	n/a	n/a	n/a	n/a	n/a	"fixation"	n/a	n/a	n/a	n/a	"NULL"	n/a	"NULL"	"NULL"	"NULL"	"<p style=\"color: black; font-size: 80px; padding-left: 7%; padding-right: 39%; padding-top: 40%; padding-bottom: 38%\">+</p>"	"1106"	n/a	n/a	n/a	n/a	n/a	n/a	n/a	n/a	n/a
n/a	"image-keyboard-response"	"166"	"368465"	"0.0-5.0-2.0-1.56"	"dxk624"	"657"	"1366"	"chrome"	"109.0.0"	"FALSE"	"Windows 10"	"60.92"	"012"	n/a	n/a	n/a	n/a	n/a	n/a	"Trial"	n/a	n/a	n/a	"490"	"arrowup"	n/a	"NULL"	"NULL"	"NULL"	"stimuli/MullerLyer_-2.3000_0.14541.png"	n/a	"MullerLyer"	"arrowup"	"1122"	"TRUE"	"MullerLyer"	"-2.300000000"	"0.1454100000"	"1"	"75"
n/a	"html-keyboard-response"	"167"	"369608"	"0.0-5.0-2.0-0.57"	"dxk624"	"657"	"1366"	"chrome"	"109.0.0"	"FALSE"	"Windows 10"	"60.92"	"012"	n/a	n/a	n/a	n/a	n/a	n/a	"fixation"	n/a	n/a	n/a	n/a	"NULL"	n/a	"NULL"	"NULL"	"NULL"	"<p style=\"color: black; font-size: 80px; padding-left: 47%; padding-right: 48%; padding-top: 42%; padding-bottom: 42%\">+</p>"	"1125"	n/a	n/a	n/a	n/a	n/a	n/a	n/a	n/a	n/a
n/a	"image-keyboard-response"	"168"	"370120"	"0.0-5.0-2.0-1.57"	"dxk624"	"657"	"1366"	"chrome"	"109.0.0"	"FALSE"	"Windows 10"	"60.92"	"012"	n/a	n/a	n/a	n/a	n/a	n/a	"Trial"	n/a	n/a	n/a	"511"	"arrowdown"	n/a	"NULL"	"NULL"	"NULL"	"stimuli/MullerLyer_-8.21429_-0.23665.png"	n/a	"MullerLyer"	"arrowdown"	"1143"	"TRUE"	"MullerLyer"	"-8.214290000"	"-0.236650000"	"1"	"76"
n/a	"html-keyboard-response"	"169"	"371354"	"0.0-5.0-2.0-0.58"	"dxk624"	"657"	"1366"	"chrome"	"109.0.0"	"FALSE"	"Windows 10"	"60.92"	"012"	n/a	n/a	n/a	n/a	n/a	n/a	"fixation"	n/a	n/a	n/a	n/a	"NULL"	n/a	"NULL"	"NULL"	"NULL"	"<p style=\"color: black; font-size: 80px; padding-left: 17%; padding-right: 19%; padding-top: 17%; padding-bottom: 50%\">+</p>"	"1219"	n/a	n/a	n/a	n/a	n/a	n/a	n/a	n/a	n/a
n/a	"image-keyboard-response"	"170"	"371869"	"0.0-5.0-2.0-1.58"	"dxk624"	"657"	"1366"	"chrome"	"109.0.0"	"FALSE"	"Windows 10"	"60.92"	"012"	n/a	n/a	n/a	n/a	n/a	n/a	"Trial"	n/a	n/a	n/a	"514"	"arrowdown"	n/a	"NULL"	"NULL"	"NULL"	"stimuli/MullerLyer_-8.21429_-0.14541.png"	n/a	"MullerLyer"	"arrowdown"	"1234"	"TRUE"	"MullerLyer"	"-8.214290000"	"-0.145410000"	"1"	"77"
n/a	"html-keyboard-response"	"171"	"373317"	"0.0-5.0-2.0-0.59"	"dxk624"	"657"	"1366"	"chrome"	"109.0.0"	"FALSE"	"Windows 10"	"60.92"	"012"	n/a	n/a	n/a	n/a	n/a	n/a	"fixation"	n/a	n/a	n/a	n/a	"NULL"	n/a	"NULL"	"NULL"	"NULL"	"<p style=\"color: black; font-size: 80px; padding-left: 13%; padding-right: 30%; padding-top: 35%; padding-bottom: 48%\">+</p>"	"1439"	n/a	n/a	n/a	n/a	n/a	n/a	n/a	n/a	n/a
n/a	"image-keyboard-response"	"172"	"373907"	"0.0-5.0-2.0-1.59"	"dxk624"	"657"	"1366"	"chrome"	"109.0.0"	"FALSE"	"Windows 10"	"60.92"	"012"	n/a	n/a	n/a	n/a	n/a	n/a	"Trial"	n/a	n/a	n/a	"587"	"arrowdown"	n/a	"NULL"	"NULL"	"NULL"	"stimuli/MullerLyer_2.30000_-0.3500.png"	n/a	"MullerLyer"	"arrowdown"	"1448"	"TRUE"	"MullerLyer"	"2.3000000000"	"-0.350000000"	"1"	"78"
n/a	"html-keyboard-response"	"173"	"374995"	"0.0-5.0-2.0-0.60"	"dxk624"	"657"	"1366"	"chrome"	"109.0.0"	"FALSE"	"Windows 10"	"60.92"	"012"	n/a	n/a	n/a	n/a	n/a	n/a	"fixation"	n/a	n/a	n/a	n/a	"NULL"	n/a	"NULL"	"NULL"	"NULL"	"<p style=\"color: black; font-size: 80px; padding-left: 36%; padding-right: 32%; padding-top: 33%; padding-bottom: 35%\">+</p>"	"1079"	n/a	n/a	n/a	n/a	n/a	n/a	n/a	n/a	n/a
n/a	"image-keyboard-response"	"174"	"376076"	"0.0-5.0-2.0-1.60"	"dxk624"	"657"	"1366"	"chrome"	"109.0.0"	"FALSE"	"Windows 10"	"60.92"	"012"	n/a	n/a	n/a	n/a	n/a	n/a	"Trial"	n/a	n/a	n/a	"1080"	"arrowup"	n/a	"NULL"	"NULL"	"NULL"	"stimuli/MullerLyer_8.21429_0.07627.png"	n/a	"MullerLyer"	"arrowup"	"1088"	"TRUE"	"MullerLyer"	"8.2142900000"	"0.0762700000"	"1"	"79"
n/a	"html-keyboard-response"	"175"	"377218"	"0.0-5.0-2.0-0.61"	"dxk624"	"657"	"1366"	"chrome"	"109.0.0"	"FALSE"	"Windows 10"	"60.92"	"012"	n/a	n/a	n/a	n/a	n/a	n/a	"fixation"	n/a	n/a	n/a	n/a	"NULL"	n/a	"NULL"	"NULL"	"NULL"	"<p style=\"color: black; font-size: 80px; padding-left: 15%; padding-right: 9%; padding-top: 45%; padding-bottom: 30%\">+</p>"	"1130"	n/a	n/a	n/a	n/a	n/a	n/a	n/a	n/a	n/a
n/a	"image-keyboard-response"	"176"	"377759"	"0.0-5.0-2.0-1.61"	"dxk624"	"657"	"1366"	"chrome"	"109.0.0"	"FALSE"	"Windows 10"	"60.92"	"012"	n/a	n/a	n/a	n/a	n/a	n/a	"Trial"	n/a	n/a	n/a	"539"	"arrowup"	n/a	"NULL"	"NULL"	"NULL"	"stimuli/MullerLyer_-20.04286_0.35000.png"	n/a	"MullerLyer"	"arrowup"	"1142"	"TRUE"	"MullerLyer"	"-20.04286000"	"0.3500000000"	"1"	"80"
n/a	"html-keyboard-response"	"177"	"378780"	"0.0-5.0-2.0-0.62"	"dxk624"	"657"	"1366"	"chrome"	"109.0.0"	"FALSE"	"Windows 10"	"60.92"	"012"	n/a	n/a	n/a	n/a	n/a	n/a	"fixation"	n/a	n/a	n/a	n/a	"NULL"	n/a	"NULL"	"NULL"	"NULL"	"<p style=\"color: black; font-size: 80px; padding-left: 42%; padding-right: 39%; padding-top: 36%; padding-bottom: 33%\">+</p>"	"1007"	n/a	n/a	n/a	n/a	n/a	n/a	n/a	n/a	n/a
n/a	"image-keyboard-response"	"178"	"379330"	"0.0-5.0-2.0-1.62"	"dxk624"	"657"	"1366"	"chrome"	"109.0.0"	"FALSE"	"Windows 10"	"60.92"	"012"	n/a	n/a	n/a	n/a	n/a	n/a	"Trial"	n/a	n/a	n/a	"549"	"arrowdown"	n/a	"NULL"	"NULL"	"NULL"	"stimuli/MullerLyer_8.21429_0.14541.png"	n/a	"MullerLyer"	"arrowup"	"1021"	"FALSE"	"MullerLyer"	"8.2142900000"	"0.1454100000"	"1"	"81"
n/a	"html-keyboard-response"	"179"	"380620"	"0.0-5.0-2.0-0.63"	"dxk624"	"657"	"1366"	"chrome"	"109.0.0"	"FALSE"	"Windows 10"	"60.92"	"012"	n/a	n/a	n/a	n/a	n/a	n/a	"fixation"	n/a	n/a	n/a	n/a	"NULL"	n/a	"NULL"	"NULL"	"NULL"	"<p style=\"color: black; font-size: 80px; padding-left: 7%; padding-right: 20%; padding-top: 25%; padding-bottom: 48%\">+</p>"	"1278"	n/a	n/a	n/a	n/a	n/a	n/a	n/a	n/a	n/a
n/a	"image-keyboard-response"	"180"	"381204"	"0.0-5.0-2.0-1.63"	"dxk624"	"657"	"1366"	"chrome"	"109.0.0"	"FALSE"	"Windows 10"	"60.92"	"012"	n/a	n/a	n/a	n/a	n/a	n/a	"Trial"	n/a	n/a	n/a	"579"	"arrowdown"	n/a	"NULL"	"NULL"	"NULL"	"stimuli/MullerLyer_20.04286_0.07627.png"	n/a	"MullerLyer"	"arrowup"	"1290"	"FALSE"	"MullerLyer"	"20.042860000"	"0.0762700000"	"1"	"82"
n/a	"html-button-response"	"181"	"397901"	"0.0-5.0-3.0"	"dxk624"	"657"	"1366"	"chrome"	"109.0.0"	"FALSE"	"Windows 10"	"60.92"	"012"	n/a	n/a	n/a	n/a	n/a	n/a	"block_results"	n/a	n/a	n/a	"16694"	"0"	n/a	"NULL"	"NULL"	"NULL"	"<p>Your score for this illusion is <p style=\"color: black; font-size: 48px; font-weight: bold;\">79.2 %</p><hr><p>Can you do better in the next illusion?</p>"	n/a	n/a	n/a	n/a	n/a	n/a	n/a	n/a	n/a	n/a
"TRUE"	"preload"	"182"	"398093"	"0.0-6.0-0.0"	"dxk624"	"657"	"1366"	"chrome"	"109.0.0"	"FALSE"	"Windows 10"	"60.92"	"012"	n/a	n/a	n/a	n/a	n/a	n/a	n/a	n/a	n/a	n/a	n/a	"NULL"	"FALSE"	"list()"	"list()"	"list()"	n/a	n/a	n/a	n/a	n/a	n/a	n/a	n/a	n/a	n/a	n/a
n/a	"html-keyboard-response"	"183"	"403141"	"0.0-6.0-1.0"	"dxk624"	"657"	"1366"	"chrome"	"109.0.0"	"FALSE"	"Windows 10"	"60.92"	"012"	n/a	n/a	n/a	n/a	n/a	n/a	n/a	n/a	n/a	n/a	"5047"	"enter"	n/a	"NULL"	"NULL"	"NULL"	"<p><b>Part 2/6</b></p><p>In this part, two red lines will appear side by side.</p><p>Your task is to tell <b>which line is longer</b> in length, regardless of their orientation, as fast as you can, and without making errors.</p><p>Don't get distracted by the orientation of the lines!</p><p>Press <b>the LEFT or the RIGHT arrow</b> to indicate which <b>line is the longer one.</b></p><div style='float: center'><img src='materials/instructions/VerticalHorizontal_Demo.png' height='300'></img><p><img src='utils/answer/answer_leftright_keyboard.PNG' height='150'></img></p><p class='small'>In this example, the correct answer is the <b>LEFT arrow</b>.</p></div><p>Are you ready? <b>Press ENTER to start</b></p>"	n/a	n/a	n/a	n/a	n/a	n/a	n/a	n/a	n/a	n/a
n/a	"html-keyboard-response"	"184"	"404675"	"0.0-6.0-2.0-0.0"	"dxk624"	"657"	"1366"	"chrome"	"109.0.0"	"FALSE"	"Windows 10"	"60.92"	"012"	n/a	n/a	n/a	n/a	n/a	n/a	"fixation"	n/a	n/a	n/a	n/a	"NULL"	n/a	"NULL"	"NULL"	"NULL"	"<p style=\"color: black; font-size: 80px; padding-left: 37%; padding-right: 45%; padding-top: 27%; padding-bottom: 4%\">+</p>"	"1012"	n/a	n/a	n/a	n/a	n/a	n/a	n/a	n/a	n/a
n/a	"image-keyboard-response"	"185"	"405159"	"0.0-6.0-2.0-1.0"	"dxk624"	"657"	"1366"	"chrome"	"109.0.0"	"FALSE"	"Windows 10"	"60.92"	"012"	n/a	n/a	n/a	n/a	n/a	n/a	"Trial"	n/a	n/a	n/a	"483"	"arrowright"	n/a	"NULL"	"NULL"	"NULL"	"stimuli/VerticalHorizontal_-28.75714_-0.2250.png"	n/a	"VerticalHorizontal"	"arrowright"	"1534"	"TRUE"	"VerticalHorizontal"	"-28.75714000"	"-0.225000000"	"2"	"1"
n/a	"html-keyboard-response"	"186"	"406564"	"0.0-6.0-2.0-0.1"	"dxk624"	"657"	"1366"	"chrome"	"109.0.0"	"FALSE"	"Windows 10"	"60.92"	"012"	n/a	n/a	n/a	n/a	n/a	n/a	"fixation"	n/a	n/a	n/a	n/a	"NULL"	n/a	"NULL"	"NULL"	"NULL"	"<p style=\"color: black; font-size: 80px; padding-left: 44%; padding-right: 34%; padding-top: 35%; padding-bottom: 33%\">+</p>"	"1403"	n/a	n/a	n/a	n/a	n/a	n/a	n/a	n/a	n/a
n/a	"image-keyboard-response"	"187"	"407257"	"0.0-6.0-2.0-1.1"	"dxk624"	"657"	"1366"	"chrome"	"109.0.0"	"FALSE"	"Windows 10"	"60.92"	"012"	n/a	n/a	n/a	n/a	n/a	n/a	"Trial"	n/a	n/a	n/a	"692"	"arrowleft"	n/a	"NULL"	"NULL"	"NULL"	"stimuli/VerticalHorizontal_11.78571_0.22500.png"	n/a	"VerticalHorizontal"	"arrowleft"	"1405"	"TRUE"	"VerticalHorizontal"	"11.785710000"	"0.2250000000"	"2"	"2"
n/a	"html-keyboard-response"	"188"	"408371"	"0.0-6.0-2.0-0.2"	"dxk624"	"657"	"1366"	"chrome"	"109.0.0"	"FALSE"	"Windows 10"	"60.92"	"012"	n/a	n/a	n/a	n/a	n/a	n/a	"fixation"	n/a	n/a	n/a	n/a	"NULL"	n/a	"NULL"	"NULL"	"NULL"	"<p style=\"color: black; font-size: 80px; padding-left: 29%; padding-right: 39%; padding-top: 26%; padding-bottom: 27%\">+</p>"	"1093"	n/a	n/a	n/a	n/a	n/a	n/a	n/a	n/a	n/a
n/a	"image-keyboard-response"	"189"	"408762"	"0.0-6.0-2.0-1.2"	"dxk624"	"657"	"1366"	"chrome"	"109.0.0"	"FALSE"	"Windows 10"	"60.92"	"012"	n/a	n/a	n/a	n/a	n/a	n/a	"Trial"	n/a	n/a	n/a	"390"	"arrowleft"	n/a	"NULL"	"NULL"	"NULL"	"stimuli/VerticalHorizontal_-20.27143_0.22500.png"	n/a	"VerticalHorizontal"	"arrowleft"	"1114"	"TRUE"	"VerticalHorizontal"	"-20.27143000"	"0.2250000000"	"2"	"3"
n/a	"html-keyboard-response"	"190"	"410010"	"0.0-6.0-2.0-0.3"	"dxk624"	"657"	"1366"	"chrome"	"109.0.0"	"FALSE"	"Windows 10"	"60.92"	"012"	n/a	n/a	n/a	n/a	n/a	n/a	"fixation"	n/a	n/a	n/a	n/a	"NULL"	n/a	"NULL"	"NULL"	"NULL"	"<p style=\"color: black; font-size: 80px; padding-left: 14%; padding-right: 22%; padding-top: 32%; padding-bottom: 3%\">+</p>"	"1236"	n/a	n/a	n/a	n/a	n/a	n/a	n/a	n/a	n/a
n/a	"image-keyboard-response"	"191"	"410546"	"0.0-6.0-2.0-1.3"	"dxk624"	"657"	"1366"	"chrome"	"109.0.0"	"FALSE"	"Windows 10"	"60.92"	"012"	n/a	n/a	n/a	n/a	n/a	n/a	"Trial"	n/a	n/a	n/a	"535"	"arrowright"	n/a	"NULL"	"NULL"	"NULL"	"stimuli/VerticalHorizontal_11.78571_0.16217.png"	n/a	"VerticalHorizontal"	"arrowleft"	"1248"	"FALSE"	"VerticalHorizontal"	"11.785710000"	"0.1621700000"	"2"	"4"
n/a	"html-keyboard-response"	"192"	"411829"	"0.0-6.0-2.0-0.4"	"dxk624"	"657"	"1366"	"chrome"	"109.0.0"	"FALSE"	"Windows 10"	"60.92"	"012"	n/a	n/a	n/a	n/a	n/a	n/a	"fixation"	n/a	n/a	n/a	n/a	"NULL"	n/a	"NULL"	"NULL"	"NULL"	"<p style=\"color: black; font-size: 80px; padding-left: 4%; padding-right: 19%; padding-top: 28%; padding-bottom: 22%\">+</p>"	"1260"	n/a	n/a	n/a	n/a	n/a	n/a	n/a	n/a	n/a
n/a	"image-keyboard-response"	"193"	"412456"	"0.0-6.0-2.0-1.4"	"dxk624"	"657"	"1366"	"chrome"	"109.0.0"	"FALSE"	"Windows 10"	"60.92"	"012"	n/a	n/a	n/a	n/a	n/a	n/a	"Trial"	n/a	n/a	n/a	"627"	"arrowright"	n/a	"NULL"	"NULL"	"NULL"	"stimuli/VerticalHorizontal_20.27143_-0.0673.png"	n/a	"VerticalHorizontal"	"arrowright"	"1283"	"TRUE"	"VerticalHorizontal"	"20.271430000"	"-0.067300000"	"2"	"5"
n/a	"html-keyboard-response"	"194"	"413936"	"0.0-6.0-2.0-0.5"	"dxk624"	"657"	"1366"	"chrome"	"109.0.0"	"FALSE"	"Windows 10"	"60.92"	"012"	n/a	n/a	n/a	n/a	n/a	n/a	"fixation"	n/a	n/a	n/a	n/a	"NULL"	n/a	"NULL"	"NULL"	"NULL"	"<p style=\"color: black; font-size: 80px; padding-left: 44%; padding-right: 18%; padding-top: 19%; padding-bottom: 48%\">+</p>"	"1460"	n/a	n/a	n/a	n/a	n/a	n/a	n/a	n/a	n/a
n/a	"image-keyboard-response"	"195"	"414718"	"0.0-6.0-2.0-1.5"	"dxk624"	"657"	"1366"	"chrome"	"109.0.0"	"FALSE"	"Windows 10"	"60.92"	"012"	n/a	n/a	n/a	n/a	n/a	n/a	"Trial"	n/a	n/a	n/a	"781"	"arrowleft"	n/a	"NULL"	"NULL"	"NULL"	"stimuli/VerticalHorizontal_3.30000_0.22500.png"	n/a	"VerticalHorizontal"	"arrowleft"	"1480"	"TRUE"	"VerticalHorizontal"	"3.3000000000"	"0.2250000000"	"2"	"6"
n/a	"html-keyboard-response"	"196"	"415937"	"0.0-6.0-2.0-0.6"	"dxk624"	"657"	"1366"	"chrome"	"109.0.0"	"FALSE"	"Windows 10"	"60.92"	"012"	n/a	n/a	n/a	n/a	n/a	n/a	"fixation"	n/a	n/a	n/a	n/a	"NULL"	n/a	"NULL"	"NULL"	"NULL"	"<p style=\"color: black; font-size: 80px; padding-left: 23%; padding-right: 14%; padding-top: 26%; padding-bottom: 37%\">+</p>"	"1205"	n/a	n/a	n/a	n/a	n/a	n/a	n/a	n/a	n/a
n/a	"image-keyboard-response"	"197"	"416631"	"0.0-6.0-2.0-1.6"	"dxk624"	"657"	"1366"	"chrome"	"109.0.0"	"FALSE"	"Windows 10"	"60.92"	"012"	n/a	n/a	n/a	n/a	n/a	n/a	"Trial"	n/a	n/a	n/a	"693"	"arrowleft"	n/a	"NULL"	"NULL"	"NULL"	"stimuli/VerticalHorizontal_20.27143_0.10960.png"	n/a	"VerticalHorizontal"	"arrowleft"	"1219"	"TRUE"	"VerticalHorizontal"	"20.271430000"	"0.1096000000"	"2"	"7"
n/a	"html-keyboard-response"	"198"	"417682"	"0.0-6.0-2.0-0.7"	"dxk624"	"657"	"1366"	"chrome"	"109.0.0"	"FALSE"	"Windows 10"	"60.92"	"012"	n/a	n/a	n/a	n/a	n/a	n/a	"fixation"	n/a	n/a	n/a	n/a	"NULL"	n/a	"NULL"	"NULL"	"NULL"	"<p style=\"color: black; font-size: 80px; padding-left: 42%; padding-right: 13%; padding-top: 32%; padding-bottom: 45%\">+</p>"	"1040"	n/a	n/a	n/a	n/a	n/a	n/a	n/a	n/a	n/a
n/a	"image-keyboard-response"	"199"	"418429"	"0.0-6.0-2.0-1.7"	"dxk624"	"657"	"1366"	"chrome"	"109.0.0"	"FALSE"	"Windows 10"	"60.92"	"012"	n/a	n/a	n/a	n/a	n/a	n/a	"Trial"	n/a	n/a	n/a	"747"	"arrowright"	n/a	"NULL"	"NULL"	"NULL"	"stimuli/VerticalHorizontal_-11.78571_-0.0673.png"	n/a	"VerticalHorizontal"	"arrowright"	"1051"	"TRUE"	"VerticalHorizontal"	"-11.78571000"	"-0.067300000"	"2"	"8"
n/a	"html-keyboard-response"	"200"	"419478"	"0.0-6.0-2.0-0.8"	"dxk624"	"657"	"1366"	"chrome"	"109.0.0"	"FALSE"	"Windows 10"	"60.92"	"012"	n/a	n/a	n/a	n/a	n/a	n/a	"fixation"	n/a	n/a	n/a	n/a	"NULL"	n/a	"NULL"	"NULL"	"NULL"	"<p style=\"color: black; font-size: 80px; padding-left: 15%; padding-right: 3%; padding-top: 22%; padding-bottom: 3%\">+</p>"	"1042"	n/a	n/a	n/a	n/a	n/a	n/a	n/a	n/a	n/a
n/a	"image-keyboard-response"	"201"	"420400"	"0.0-6.0-2.0-1.8"	"dxk624"	"657"	"1366"	"chrome"	"109.0.0"	"FALSE"	"Windows 10"	"60.92"	"012"	n/a	n/a	n/a	n/a	n/a	n/a	"Trial"	n/a	n/a	n/a	"921"	"arrowleft"	n/a	"NULL"	"NULL"	"NULL"	"stimuli/VerticalHorizontal_20.27143_0.16217.png"	n/a	"VerticalHorizontal"	"arrowleft"	"1049"	"TRUE"	"VerticalHorizontal"	"20.271430000"	"0.1621700000"	"2"	"9"
n/a	"html-keyboard-response"	"202"	"421426"	"0.0-6.0-2.0-0.9"	"dxk624"	"657"	"1366"	"chrome"	"109.0.0"	"FALSE"	"Windows 10"	"60.92"	"012"	n/a	n/a	n/a	n/a	n/a	n/a	"fixation"	n/a	n/a	n/a	n/a	"NULL"	n/a	"NULL"	"NULL"	"NULL"	"<p style=\"color: black; font-size: 80px; padding-left: 7%; padding-right: 2%; padding-top: 43%; padding-bottom: 34%\">+</p>"	"1007"	n/a	n/a	n/a	n/a	n/a	n/a	n/a	n/a	n/a
n/a	"image-keyboard-response"	"203"	"422188"	"0.0-6.0-2.0-1.9"	"dxk624"	"657"	"1366"	"chrome"	"109.0.0"	"FALSE"	"Windows 10"	"60.92"	"012"	n/a	n/a	n/a	n/a	n/a	n/a	"Trial"	n/a	n/a	n/a	"761"	"arrowleft"	n/a	"NULL"	"NULL"	"NULL"	"stimuli/VerticalHorizontal_-28.75714_0.06730.png"	n/a	"VerticalHorizontal"	"arrowleft"	"1026"	"TRUE"	"VerticalHorizontal"	"-28.75714000"	"0.0673000000"	"2"	"10"
n/a	"html-keyboard-response"	"204"	"423310"	"0.0-6.0-2.0-0.10"	"dxk624"	"657"	"1366"	"chrome"	"109.0.0"	"FALSE"	"Windows 10"	"60.92"	"012"	n/a	n/a	n/a	n/a	n/a	n/a	"fixation"	n/a	n/a	n/a	n/a	"NULL"	n/a	"NULL"	"NULL"	"NULL"	"<p style=\"color: black; font-size: 80px; padding-left: 18%; padding-right: 21%; padding-top: 23%; padding-bottom: 46%\">+</p>"	"1116"	n/a	n/a	n/a	n/a	n/a	n/a	n/a	n/a	n/a
n/a	"image-keyboard-response"	"205"	"423869"	"0.0-6.0-2.0-1.10"	"dxk624"	"657"	"1366"	"chrome"	"109.0.0"	"FALSE"	"Windows 10"	"60.92"	"012"	n/a	n/a	n/a	n/a	n/a	n/a	"Trial"	n/a	n/a	n/a	"553"	"arrowright"	n/a	"NULL"	"NULL"	"NULL"	"stimuli/VerticalHorizontal_3.30000_-0.2250.png"	n/a	"VerticalHorizontal"	"arrowright"	"1122"	"TRUE"	"VerticalHorizontal"	"3.3000000000"	"-0.225000000"	"2"	"11"
n/a	"html-keyboard-response"	"206"	"425328"	"0.0-6.0-2.0-0.11"	"dxk624"	"657"	"1366"	"chrome"	"109.0.0"	"FALSE"	"Windows 10"	"60.92"	"012"	n/a	n/a	n/a	n/a	n/a	n/a	"fixation"	n/a	n/a	n/a	n/a	"NULL"	n/a	"NULL"	"NULL"	"NULL"	"<p style=\"color: black; font-size: 80px; padding-left: 17%; padding-right: 9%; padding-top: 31%; padding-bottom: 16%\">+</p>"	"1442"	n/a	n/a	n/a	n/a	n/a	n/a	n/a	n/a	n/a
n/a	"image-keyboard-response"	"207"	"426319"	"0.0-6.0-2.0-1.11"	"dxk624"	"657"	"1366"	"chrome"	"109.0.0"	"FALSE"	"Windows 10"	"60.92"	"012"	n/a	n/a	n/a	n/a	n/a	n/a	"Trial"	n/a	n/a	n/a	"990"	"arrowright"	n/a	"NULL"	"NULL"	"NULL"	"stimuli/VerticalHorizontal_11.78571_-0.1096.png"	n/a	"VerticalHorizontal"	"arrowright"	"1459"	"TRUE"	"VerticalHorizontal"	"11.785710000"	"-0.109600000"	"2"	"12"
n/a	"html-keyboard-response"	"208"	"427340"	"0.0-6.0-2.0-0.12"	"dxk624"	"657"	"1366"	"chrome"	"109.0.0"	"FALSE"	"Windows 10"	"60.92"	"012"	n/a	n/a	n/a	n/a	n/a	n/a	"fixation"	n/a	n/a	n/a	n/a	"NULL"	n/a	"NULL"	"NULL"	"NULL"	"<p style=\"color: black; font-size: 80px; padding-left: 40%; padding-right: 43%; padding-top: 23%; padding-bottom: 3%\">+</p>"	"1012"	n/a	n/a	n/a	n/a	n/a	n/a	n/a	n/a	n/a
n/a	"image-keyboard-response"	"209"	"427858"	"0.0-6.0-2.0-1.12"	"dxk624"	"657"	"1366"	"chrome"	"109.0.0"	"FALSE"	"Windows 10"	"60.92"	"012"	n/a	n/a	n/a	n/a	n/a	n/a	"Trial"	n/a	n/a	n/a	"516"	"arrowright"	n/a	"NULL"	"NULL"	"NULL"	"stimuli/VerticalHorizontal_-20.27143_-0.2250.png"	n/a	"VerticalHorizontal"	"arrowright"	"1021"	"TRUE"	"VerticalHorizontal"	"-20.27143000"	"-0.225000000"	"2"	"13"
n/a	"html-keyboard-response"	"210"	"429375"	"0.0-6.0-2.0-0.13"	"dxk624"	"657"	"1366"	"chrome"	"109.0.0"	"FALSE"	"Windows 10"	"60.92"	"012"	n/a	n/a	n/a	n/a	n/a	n/a	"fixation"	n/a	n/a	n/a	n/a	"NULL"	n/a	"NULL"	"NULL"	"NULL"	"<p style=\"color: black; font-size: 80px; padding-left: 30%; padding-right: 23%; padding-top: 11%; padding-bottom: 16%\">+</p>"	"1500"	n/a	n/a	n/a	n/a	n/a	n/a	n/a	n/a	n/a
n/a	"image-keyboard-response"	"211"	"430034"	"0.0-6.0-2.0-1.13"	"dxk624"	"657"	"1366"	"chrome"	"109.0.0"	"FALSE"	"Windows 10"	"60.92"	"012"	n/a	n/a	n/a	n/a	n/a	n/a	"Trial"	n/a	n/a	n/a	"658"	"arrowright"	n/a	"NULL"	"NULL"	"NULL"	"stimuli/VerticalHorizontal_20.27143_-0.2250.png"	n/a	"VerticalHorizontal"	"arrowright"	"1517"	"TRUE"	"VerticalHorizontal"	"20.271430000"	"-0.225000000"	"2"	"14"
n/a	"html-keyboard-response"	"212"	"431421"	"0.0-6.0-2.0-0.14"	"dxk624"	"657"	"1366"	"chrome"	"109.0.0"	"FALSE"	"Windows 10"	"60.92"	"012"	n/a	n/a	n/a	n/a	n/a	n/a	"fixation"	n/a	n/a	n/a	n/a	"NULL"	n/a	"NULL"	"NULL"	"NULL"	"<p style=\"color: black; font-size: 80px; padding-left: 23%; padding-right: 47%; padding-top: 2%; padding-bottom: 11%\">+</p>"	"1376"	n/a	n/a	n/a	n/a	n/a	n/a	n/a	n/a	n/a
n/a	"image-keyboard-response"	"213"	"432153"	"0.0-6.0-2.0-1.14"	"dxk624"	"657"	"1366"	"chrome"	"109.0.0"	"FALSE"	"Windows 10"	"60.92"	"012"	n/a	n/a	n/a	n/a	n/a	n/a	"Trial"	n/a	n/a	n/a	"731"	"arrowright"	n/a	"NULL"	"NULL"	"NULL"	"stimuli/VerticalHorizontal_28.75714_-0.2250.png"	n/a	"VerticalHorizontal"	"arrowright"	"1387"	"TRUE"	"VerticalHorizontal"	"28.757140000"	"-0.225000000"	"2"	"15"
n/a	"html-keyboard-response"	"214"	"433597"	"0.0-6.0-2.0-0.15"	"dxk624"	"657"	"1366"	"chrome"	"109.0.0"	"FALSE"	"Windows 10"	"60.92"	"012"	n/a	n/a	n/a	n/a	n/a	n/a	"fixation"	n/a	n/a	n/a	n/a	"NULL"	n/a	"NULL"	"NULL"	"NULL"	"<p style=\"color: black; font-size: 80px; padding-left: 36%; padding-right: 31%; padding-top: 36%; padding-bottom: 37%\">+</p>"	"1435"	n/a	n/a	n/a	n/a	n/a	n/a	n/a	n/a	n/a
n/a	"image-keyboard-response"	"215"	"434347"	"0.0-6.0-2.0-1.15"	"dxk624"	"657"	"1366"	"chrome"	"109.0.0"	"FALSE"	"Windows 10"	"60.92"	"012"	n/a	n/a	n/a	n/a	n/a	n/a	"Trial"	n/a	n/a	n/a	"747"	"arrowright"	n/a	"NULL"	"NULL"	"NULL"	"stimuli/VerticalHorizontal_28.75714_-0.16217.png"	n/a	"VerticalHorizontal"	"arrowright"	"1444"	"TRUE"	"VerticalHorizontal"	"28.757140000"	"-0.162170000"	"2"	"16"
n/a	"html-keyboard-response"	"216"	"435765"	"0.0-6.0-2.0-0.16"	"dxk624"	"657"	"1366"	"chrome"	"109.0.0"	"FALSE"	"Windows 10"	"60.92"	"012"	n/a	n/a	n/a	n/a	n/a	n/a	"fixation"	n/a	n/a	n/a	n/a	"NULL"	n/a	"NULL"	"NULL"	"NULL"	"<p style=\"color: black; font-size: 80px; padding-left: 14%; padding-right: 10%; padding-top: 30%; padding-bottom: 5%\">+</p>"	"1401"	n/a	n/a	n/a	n/a	n/a	n/a	n/a	n/a	n/a
n/a	"image-keyboard-response"	"217"	"436328"	"0.0-6.0-2.0-1.16"	"dxk624"	"657"	"1366"	"chrome"	"109.0.0"	"FALSE"	"Windows 10"	"60.92"	"012"	n/a	n/a	n/a	n/a	n/a	n/a	"Trial"	n/a	n/a	n/a	"563"	"arrowright"	n/a	"NULL"	"NULL"	"NULL"	"stimuli/VerticalHorizontal_20.27143_0.06730.png"	n/a	"VerticalHorizontal"	"arrowleft"	"1418"	"FALSE"	"VerticalHorizontal"	"20.271430000"	"0.0673000000"	"2"	"17"
n/a	"html-keyboard-response"	"218"	"437817"	"0.0-6.0-2.0-0.17"	"dxk624"	"657"	"1366"	"chrome"	"109.0.0"	"FALSE"	"Windows 10"	"60.92"	"012"	n/a	n/a	n/a	n/a	n/a	n/a	"fixation"	n/a	n/a	n/a	n/a	"NULL"	n/a	"NULL"	"NULL"	"NULL"	"<p style=\"color: black; font-size: 80px; padding-left: 7%; padding-right: 16%; padding-top: 40%; padding-bottom: 48%\">+</p>"	"1481"	n/a	n/a	n/a	n/a	n/a	n/a	n/a	n/a	n/a
n/a	"image-keyboard-response"	"219"	"438555"	"0.0-6.0-2.0-1.17"	"dxk624"	"657"	"1366"	"chrome"	"109.0.0"	"FALSE"	"Windows 10"	"60.92"	"012"	n/a	n/a	n/a	n/a	n/a	n/a	"Trial"	n/a	n/a	n/a	"737"	"arrowright"	n/a	"NULL"	"NULL"	"NULL"	"stimuli/VerticalHorizontal_-3.3000_-0.0673.png"	n/a	"VerticalHorizontal"	"arrowright"	"1489"	"TRUE"	"VerticalHorizontal"	"-3.300000000"	"-0.067300000"	"2"	"18"
n/a	"html-keyboard-response"	"220"	"439796"	"0.0-6.0-2.0-0.18"	"dxk624"	"657"	"1366"	"chrome"	"109.0.0"	"FALSE"	"Windows 10"	"60.92"	"012"	n/a	n/a	n/a	n/a	n/a	n/a	"fixation"	n/a	n/a	n/a	n/a	"NULL"	n/a	"NULL"	"NULL"	"NULL"	"<p style=\"color: black; font-size: 80px; padding-left: 29%; padding-right: 1%; padding-top: 18%; padding-bottom: 7%\">+</p>"	"1235"	n/a	n/a	n/a	n/a	n/a	n/a	n/a	n/a	n/a
n/a	"image-keyboard-response"	"221"	"440809"	"0.0-6.0-2.0-1.18"	"dxk624"	"657"	"1366"	"chrome"	"109.0.0"	"FALSE"	"Windows 10"	"60.92"	"012"	n/a	n/a	n/a	n/a	n/a	n/a	"Trial"	n/a	n/a	n/a	"1012"	"arrowleft"	n/a	"NULL"	"NULL"	"NULL"	"stimuli/VerticalHorizontal_28.75714_0.22500.png"	n/a	"VerticalHorizontal"	"arrowleft"	"1241"	"TRUE"	"VerticalHorizontal"	"28.757140000"	"0.2250000000"	"2"	"19"
n/a	"html-keyboard-response"	"222"	"442262"	"0.0-6.0-2.0-0.19"	"dxk624"	"657"	"1366"	"chrome"	"109.0.0"	"FALSE"	"Windows 10"	"60.92"	"012"	n/a	n/a	n/a	n/a	n/a	n/a	"fixation"	n/a	n/a	n/a	n/a	"NULL"	n/a	"NULL"	"NULL"	"NULL"	"<p style=\"color: black; font-size: 80px; padding-left: 2%; padding-right: 24%; padding-top: 9%; padding-bottom: 9%\">+</p>"	"1439"	n/a	n/a	n/a	n/a	n/a	n/a	n/a	n/a	n/a
n/a	"image-keyboard-response"	"223"	"443063"	"0.0-6.0-2.0-1.19"	"dxk624"	"657"	"1366"	"chrome"	"109.0.0"	"FALSE"	"Windows 10"	"60.92"	"012"	n/a	n/a	n/a	n/a	n/a	n/a	"Trial"	n/a	n/a	n/a	"800"	"arrowright"	n/a	"NULL"	"NULL"	"NULL"	"stimuli/VerticalHorizontal_3.30000_-0.0673.png"	n/a	"VerticalHorizontal"	"arrowright"	"1453"	"TRUE"	"VerticalHorizontal"	"3.3000000000"	"-0.067300000"	"2"	"20"
n/a	"html-keyboard-response"	"224"	"444174"	"0.0-6.0-2.0-0.20"	"dxk624"	"657"	"1366"	"chrome"	"109.0.0"	"FALSE"	"Windows 10"	"60.92"	"012"	n/a	n/a	n/a	n/a	n/a	n/a	"fixation"	n/a	n/a	n/a	n/a	"NULL"	n/a	"NULL"	"NULL"	"NULL"	"<p style=\"color: black; font-size: 80px; padding-left: 10%; padding-right: 12%; padding-top: 24%; padding-bottom: 50%\">+</p>"	"1103"	n/a	n/a	n/a	n/a	n/a	n/a	n/a	n/a	n/a
n/a	"image-keyboard-response"	"225"	"444672"	"0.0-6.0-2.0-1.20"	"dxk624"	"657"	"1366"	"chrome"	"109.0.0"	"FALSE"	"Windows 10"	"60.92"	"012"	n/a	n/a	n/a	n/a	n/a	n/a	"Trial"	n/a	n/a	n/a	"498"	"arrowright"	n/a	"NULL"	"NULL"	"NULL"	"stimuli/VerticalHorizontal_28.75714_0.06730.png"	n/a	"VerticalHorizontal"	"arrowleft"	"1111"	"FALSE"	"VerticalHorizontal"	"28.757140000"	"0.0673000000"	"2"	"21"
n/a	"html-keyboard-response"	"226"	"445932"	"0.0-6.0-2.0-0.21"	"dxk624"	"657"	"1366"	"chrome"	"109.0.0"	"FALSE"	"Windows 10"	"60.92"	"012"	n/a	n/a	n/a	n/a	n/a	n/a	"fixation"	n/a	n/a	n/a	n/a	"NULL"	n/a	"NULL"	"NULL"	"NULL"	"<p style=\"color: black; font-size: 80px; padding-left: 46%; padding-right: 19%; padding-top: 30%; padding-bottom: 44%\">+</p>"	"1255"	n/a	n/a	n/a	n/a	n/a	n/a	n/a	n/a	n/a
n/a	"image-keyboard-response"	"227"	"446729"	"0.0-6.0-2.0-1.21"	"dxk624"	"657"	"1366"	"chrome"	"109.0.0"	"FALSE"	"Windows 10"	"60.92"	"012"	n/a	n/a	n/a	n/a	n/a	n/a	"Trial"	n/a	n/a	n/a	"796"	"arrowright"	n/a	"NULL"	"NULL"	"NULL"	"stimuli/VerticalHorizontal_3.30000_-0.1096.png"	n/a	"VerticalHorizontal"	"arrowright"	"1260"	"TRUE"	"VerticalHorizontal"	"3.3000000000"	"-0.109600000"	"2"	"22"
n/a	"html-keyboard-response"	"228"	"448144"	"0.0-6.0-2.0-0.22"	"dxk624"	"657"	"1366"	"chrome"	"109.0.0"	"FALSE"	"Windows 10"	"60.92"	"012"	n/a	n/a	n/a	n/a	n/a	n/a	"fixation"	n/a	n/a	n/a	n/a	"NULL"	n/a	"NULL"	"NULL"	"NULL"	"<p style=\"color: black; font-size: 80px; padding-left: 37%; padding-right: 12%; padding-top: 50%; padding-bottom: 31%\">+</p>"	"1404"	n/a	n/a	n/a	n/a	n/a	n/a	n/a	n/a	n/a
n/a	"image-keyboard-response"	"229"	"448588"	"0.0-6.0-2.0-1.22"	"dxk624"	"657"	"1366"	"chrome"	"109.0.0"	"FALSE"	"Windows 10"	"60.92"	"012"	n/a	n/a	n/a	n/a	n/a	n/a	"Trial"	n/a	n/a	n/a	"442"	"arrowright"	n/a	"NULL"	"NULL"	"NULL"	"stimuli/VerticalHorizontal_-28.75714_-0.16217.png"	n/a	"VerticalHorizontal"	"arrowright"	"1415"	"TRUE"	"VerticalHorizontal"	"-28.75714000"	"-0.162170000"	"2"	"23"
n/a	"html-keyboard-response"	"230"	"449730"	"0.0-6.0-2.0-0.23"	"dxk624"	"657"	"1366"	"chrome"	"109.0.0"	"FALSE"	"Windows 10"	"60.92"	"012"	n/a	n/a	n/a	n/a	n/a	n/a	"fixation"	n/a	n/a	n/a	n/a	"NULL"	n/a	"NULL"	"NULL"	"NULL"	"<p style=\"color: black; font-size: 80px; padding-left: 28%; padding-right: 44%; padding-top: 26%; padding-bottom: 43%\">+</p>"	"1126"	n/a	n/a	n/a	n/a	n/a	n/a	n/a	n/a	n/a
n/a	"image-keyboard-response"	"231"	"450209"	"0.0-6.0-2.0-1.23"	"dxk624"	"657"	"1366"	"chrome"	"109.0.0"	"FALSE"	"Windows 10"	"60.92"	"012"	n/a	n/a	n/a	n/a	n/a	n/a	"Trial"	n/a	n/a	n/a	"478"	"arrowright"	n/a	"NULL"	"NULL"	"NULL"	"stimuli/VerticalHorizontal_-28.75714_-0.1096.png"	n/a	"VerticalHorizontal"	"arrowright"	"1142"	"TRUE"	"VerticalHorizontal"	"-28.75714000"	"-0.109600000"	"2"	"24"
n/a	"html-keyboard-response"	"232"	"451324"	"0.0-6.0-2.0-0.24"	"dxk624"	"657"	"1366"	"chrome"	"109.0.0"	"FALSE"	"Windows 10"	"60.92"	"012"	n/a	n/a	n/a	n/a	n/a	n/a	"fixation"	n/a	n/a	n/a	n/a	"NULL"	n/a	"NULL"	"NULL"	"NULL"	"<p style=\"color: black; font-size: 80px; padding-left: 48%; padding-right: 49%; padding-top: 38%; padding-bottom: 33%\">+</p>"	"1098"	n/a	n/a	n/a	n/a	n/a	n/a	n/a	n/a	n/a
n/a	"image-keyboard-response"	"233"	"452097"	"0.0-6.0-2.0-1.24"	"dxk624"	"657"	"1366"	"chrome"	"109.0.0"	"FALSE"	"Windows 10"	"60.92"	"012"	n/a	n/a	n/a	n/a	n/a	n/a	"Trial"	n/a	n/a	n/a	"771"	"arrowright"	n/a	"NULL"	"NULL"	"NULL"	"stimuli/VerticalHorizontal_11.78571_-0.0673.png"	n/a	"VerticalHorizontal"	"arrowright"	"1115"	"TRUE"	"VerticalHorizontal"	"11.785710000"	"-0.067300000"	"2"	"25"
n/a	"html-keyboard-response"	"234"	"453132"	"0.0-6.0-2.0-0.25"	"dxk624"	"657"	"1366"	"chrome"	"109.0.0"	"FALSE"	"Windows 10"	"60.92"	"012"	n/a	n/a	n/a	n/a	n/a	n/a	"fixation"	n/a	n/a	n/a	n/a	"NULL"	n/a	"NULL"	"NULL"	"NULL"	"<p style=\"color: black; font-size: 80px; padding-left: 33%; padding-right: 35%; padding-top: 1%; padding-bottom: 30%\">+</p>"	"1013"	n/a	n/a	n/a	n/a	n/a	n/a	n/a	n/a	n/a
n/a	"image-keyboard-response"	"235"	"453597"	"0.0-6.0-2.0-1.25"	"dxk624"	"657"	"1366"	"chrome"	"109.0.0"	"FALSE"	"Windows 10"	"60.92"	"012"	n/a	n/a	n/a	n/a	n/a	n/a	"Trial"	n/a	n/a	n/a	"464"	"arrowright"	n/a	"NULL"	"NULL"	"NULL"	"stimuli/VerticalHorizontal_-20.27143_-0.1096.png"	n/a	"VerticalHorizontal"	"arrowright"	"1035"	"TRUE"	"VerticalHorizontal"	"-20.27143000"	"-0.109600000"	"2"	"26"
n/a	"html-keyboard-response"	"236"	"455047"	"0.0-6.0-2.0-0.26"	"dxk624"	"657"	"1366"	"chrome"	"109.0.0"	"FALSE"	"Windows 10"	"60.92"	"012"	n/a	n/a	n/a	n/a	n/a	n/a	"fixation"	n/a	n/a	n/a	n/a	"NULL"	n/a	"NULL"	"NULL"	"NULL"	"<p style=\"color: black; font-size: 80px; padding-left: 37%; padding-right: 32%; padding-top: 40%; padding-bottom: 29%\">+</p>"	"1434"	n/a	n/a	n/a	n/a	n/a	n/a	n/a	n/a	n/a
n/a	"image-keyboard-response"	"237"	"455943"	"0.0-6.0-2.0-1.26"	"dxk624"	"657"	"1366"	"chrome"	"109.0.0"	"FALSE"	"Windows 10"	"60.92"	"012"	n/a	n/a	n/a	n/a	n/a	n/a	"Trial"	n/a	n/a	n/a	"892"	"arrowleft"	n/a	"NULL"	"NULL"	"NULL"	"stimuli/VerticalHorizontal_-11.78571_0.06730.png"	n/a	"VerticalHorizontal"	"arrowleft"	"1450"	"TRUE"	"VerticalHorizontal"	"-11.78571000"	"0.0673000000"	"2"	"27"
n/a	"html-keyboard-response"	"238"	"457426"	"0.0-6.0-2.0-0.27"	"dxk624"	"657"	"1366"	"chrome"	"109.0.0"	"FALSE"	"Windows 10"	"60.92"	"012"	n/a	n/a	n/a	n/a	n/a	n/a	"fixation"	n/a	n/a	n/a	n/a	"NULL"	n/a	"NULL"	"NULL"	"NULL"	"<p style=\"color: black; font-size: 80px; padding-left: 30%; padding-right: 30%; padding-top: 32%; padding-bottom: 38%\">+</p>"	"1476"	n/a	n/a	n/a	n/a	n/a	n/a	n/a	n/a	n/a
n/a	"image-keyboard-response"	"239"	"457913"	"0.0-6.0-2.0-1.27"	"dxk624"	"657"	"1366"	"chrome"	"109.0.0"	"FALSE"	"Windows 10"	"60.92"	"012"	n/a	n/a	n/a	n/a	n/a	n/a	"Trial"	n/a	n/a	n/a	"486"	"arrowleft"	n/a	"NULL"	"NULL"	"NULL"	"stimuli/VerticalHorizontal_-20.27143_0.10960.png"	n/a	"VerticalHorizontal"	"arrowleft"	"1483"	"TRUE"	"VerticalHorizontal"	"-20.27143000"	"0.1096000000"	"2"	"28"
n/a	"html-keyboard-response"	"240"	"458998"	"0.0-6.0-2.0-0.28"	"dxk624"	"657"	"1366"	"chrome"	"109.0.0"	"FALSE"	"Windows 10"	"60.92"	"012"	n/a	n/a	n/a	n/a	n/a	n/a	"fixation"	n/a	n/a	n/a	n/a	"NULL"	n/a	"NULL"	"NULL"	"NULL"	"<p style=\"color: black; font-size: 80px; padding-left: 31%; padding-right: 36%; padding-top: 22%; padding-bottom: 26%\">+</p>"	"1078"	n/a	n/a	n/a	n/a	n/a	n/a	n/a	n/a	n/a
n/a	"image-keyboard-response"	"241"	"459593"	"0.0-6.0-2.0-1.28"	"dxk624"	"657"	"1366"	"chrome"	"109.0.0"	"FALSE"	"Windows 10"	"60.92"	"012"	n/a	n/a	n/a	n/a	n/a	n/a	"Trial"	n/a	n/a	n/a	"594"	"arrowright"	n/a	"NULL"	"NULL"	"NULL"	"stimuli/VerticalHorizontal_11.78571_0.10960.png"	n/a	"VerticalHorizontal"	"arrowleft"	"1085"	"FALSE"	"VerticalHorizontal"	"11.785710000"	"0.1096000000"	"2"	"29"
n/a	"html-keyboard-response"	"242"	"461007"	"0.0-6.0-2.0-0.29"	"dxk624"	"657"	"1366"	"chrome"	"109.0.0"	"FALSE"	"Windows 10"	"60.92"	"012"	n/a	n/a	n/a	n/a	n/a	n/a	"fixation"	n/a	n/a	n/a	n/a	"NULL"	n/a	"NULL"	"NULL"	"NULL"	"<p style=\"color: black; font-size: 80px; padding-left: 33%; padding-right: 12%; padding-top: 30%; padding-bottom: 21%\">+</p>"	"1406"	n/a	n/a	n/a	n/a	n/a	n/a	n/a	n/a	n/a
n/a	"image-keyboard-response"	"243"	"461466"	"0.0-6.0-2.0-1.29"	"dxk624"	"657"	"1366"	"chrome"	"109.0.0"	"FALSE"	"Windows 10"	"60.92"	"012"	n/a	n/a	n/a	n/a	n/a	n/a	"Trial"	n/a	n/a	n/a	"458"	"arrowleft"	n/a	"NULL"	"NULL"	"NULL"	"stimuli/VerticalHorizontal_-11.78571_0.22500.png"	n/a	"VerticalHorizontal"	"arrowleft"	"1414"	"TRUE"	"VerticalHorizontal"	"-11.78571000"	"0.2250000000"	"2"	"30"
n/a	"html-keyboard-response"	"244"	"462844"	"0.0-6.0-2.0-0.30"	"dxk624"	"657"	"1366"	"chrome"	"109.0.0"	"FALSE"	"Windows 10"	"60.92"	"012"	n/a	n/a	n/a	n/a	n/a	n/a	"fixation"	n/a	n/a	n/a	n/a	"NULL"	n/a	"NULL"	"NULL"	"NULL"	"<p style=\"color: black; font-size: 80px; padding-left: 2%; padding-right: 40%; padding-top: 45%; padding-bottom: 45%\">+</p>"	"1364"	n/a	n/a	n/a	n/a	n/a	n/a	n/a	n/a	n/a
n/a	"image-keyboard-response"	"245"	"463415"	"0.0-6.0-2.0-1.30"	"dxk624"	"657"	"1366"	"chrome"	"109.0.0"	"FALSE"	"Windows 10"	"60.92"	"012"	n/a	n/a	n/a	n/a	n/a	n/a	"Trial"	n/a	n/a	n/a	"570"	"arrowright"	n/a	"NULL"	"NULL"	"NULL"	"stimuli/VerticalHorizontal_11.78571_-0.16217.png"	n/a	"VerticalHorizontal"	"arrowright"	"1378"	"TRUE"	"VerticalHorizontal"	"11.785710000"	"-0.162170000"	"2"	"31"
n/a	"html-keyboard-response"	"246"	"464823"	"0.0-6.0-2.0-0.31"	"dxk624"	"657"	"1366"	"chrome"	"109.0.0"	"FALSE"	"Windows 10"	"60.92"	"012"	n/a	n/a	n/a	n/a	n/a	n/a	"fixation"	n/a	n/a	n/a	n/a	"NULL"	n/a	"NULL"	"NULL"	"NULL"	"<p style=\"color: black; font-size: 80px; padding-left: 48%; padding-right: 27%; padding-top: 4%; padding-bottom: 33%\">+</p>"	"1402"	n/a	n/a	n/a	n/a	n/a	n/a	n/a	n/a	n/a
n/a	"image-keyboard-response"	"247"	"465478"	"0.0-6.0-2.0-1.31"	"dxk624"	"657"	"1366"	"chrome"	"109.0.0"	"FALSE"	"Windows 10"	"60.92"	"012"	n/a	n/a	n/a	n/a	n/a	n/a	"Trial"	n/a	n/a	n/a	"654"	"arrowleft"	n/a	"NULL"	"NULL"	"NULL"	"stimuli/VerticalHorizontal_20.27143_0.22500.png"	n/a	"VerticalHorizontal"	"arrowleft"	"1408"	"TRUE"	"VerticalHorizontal"	"20.271430000"	"0.2250000000"	"2"	"32"
n/a	"html-keyboard-response"	"248"	"466639"	"0.0-6.0-2.0-0.32"	"dxk624"	"657"	"1366"	"chrome"	"109.0.0"	"FALSE"	"Windows 10"	"60.92"	"012"	n/a	n/a	n/a	n/a	n/a	n/a	"fixation"	n/a	n/a	n/a	n/a	"NULL"	n/a	"NULL"	"NULL"	"NULL"	"<p style=\"color: black; font-size: 80px; padding-left: 12%; padding-right: 12%; padding-top: 41%; padding-bottom: 15%\">+</p>"	"1157"	n/a	n/a	n/a	n/a	n/a	n/a	n/a	n/a	n/a
n/a	"image-keyboard-response"	"249"	"467195"	"0.0-6.0-2.0-1.32"	"dxk624"	"657"	"1366"	"chrome"	"109.0.0"	"FALSE"	"Windows 10"	"60.92"	"012"	n/a	n/a	n/a	n/a	n/a	n/a	"Trial"	n/a	n/a	n/a	"555"	"arrowright"	n/a	"NULL"	"NULL"	"NULL"	"stimuli/VerticalHorizontal_-11.78571_-0.2250.png"	n/a	"VerticalHorizontal"	"arrowright"	"1161"	"TRUE"	"VerticalHorizontal"	"-11.78571000"	"-0.225000000"	"2"	"33"
n/a	"html-keyboard-response"	"250"	"468486"	"0.0-6.0-2.0-0.33"	"dxk624"	"657"	"1366"	"chrome"	"109.0.0"	"FALSE"	"Windows 10"	"60.92"	"012"	n/a	n/a	n/a	n/a	n/a	n/a	"fixation"	n/a	n/a	n/a	n/a	"NULL"	n/a	"NULL"	"NULL"	"NULL"	"<p style=\"color: black; font-size: 80px; padding-left: 29%; padding-right: 27%; padding-top: 1%; padding-bottom: 42%\">+</p>"	"1273"	n/a	n/a	n/a	n/a	n/a	n/a	n/a	n/a	n/a
n/a	"image-keyboard-response"	"251"	"469097"	"0.0-6.0-2.0-1.33"	"dxk624"	"657"	"1366"	"chrome"	"109.0.0"	"FALSE"	"Windows 10"	"60.92"	"012"	n/a	n/a	n/a	n/a	n/a	n/a	"Trial"	n/a	n/a	n/a	"606"	"arrowleft"	n/a	"NULL"	"NULL"	"NULL"	"stimuli/VerticalHorizontal_-20.27143_0.06730.png"	n/a	"VerticalHorizontal"	"arrowleft"	"1291"	"TRUE"	"VerticalHorizontal"	"-20.27143000"	"0.0673000000"	"2"	"34"
