"success"	"trial_type"	"trial_index"	"time_elapsed"	"internal_node_id"	"participant_id"	"screen_height"	"screen_width"	"browser"	"browser_version"	"mobile"	"os"	"vsync_rate"	"subject_id"	"width"	"height"	"webaudio"	"fullscreen"	"webcam"	"microphone"	"screen"	"version"	"date"	"time"	"rt"	"response"	"timeout"	"failed_images"	"failed_audio"	"failed_video"	"stimulus"	"trial_duration"	"block"	"correct_response"	"prestimulus_duration"	"correct"	"type"	"illusion_strength"	"illusion_difference"	"block_number"	"trial_number"
"TRUE"	"fullscreen"	"0"	"7037855"	"0.0-0.0"	"7wwk4c"	"600"	"1366"	"chrome"	"110.0.0"	"FALSE"	"Windows 10"	"60.68"	"042"	n/a	n/a	n/a	n/a	n/a	n/a	n/a	n/a	n/a	n/a	n/a	"NULL"	n/a	"NULL"	"NULL"	"NULL"	n/a	n/a	n/a	n/a	n/a	n/a	n/a	n/a	n/a	n/a	n/a
n/a	"browser-check"	"1"	"7038857"	"0.0-1.0"	"7wwk4c"	"600"	"1366"	"chrome"	"110.0.0"	"FALSE"	"Windows 10"	"60.68"	"042"	"1366"	"600"	"TRUE"	"TRUE"	"TRUE"	"TRUE"	"browser_info"	"1.0"	"14/03/2023"	"08:51:54"	n/a	"NULL"	n/a	"NULL"	"NULL"	"NULL"	n/a	n/a	n/a	n/a	n/a	n/a	n/a	n/a	n/a	n/a	n/a
n/a	"survey-text"	"2"	"7041696"	"0.0-2.0"	"7wwk4c"	"600"	"1366"	"chrome"	"110.0.0"	"FALSE"	"Windows 10"	"60.68"	"042"	n/a	n/a	n/a	n/a	n/a	n/a	"subject_id"	n/a	n/a	n/a	"2835"	"list(subject_id = \"042\")"	n/a	"NULL"	"NULL"	"NULL"	n/a	n/a	n/a	n/a	n/a	n/a	n/a	n/a	n/a	n/a	n/a
"TRUE"	"preload"	"3"	"7041709"	"0.0-3.0"	"7wwk4c"	"600"	"1366"	"chrome"	"110.0.0"	"FALSE"	"Windows 10"	"60.68"	"042"	n/a	n/a	n/a	n/a	n/a	n/a	n/a	n/a	n/a	n/a	n/a	"NULL"	"FALSE"	"list()"	"list()"	"list()"	n/a	n/a	n/a	n/a	n/a	n/a	n/a	n/a	n/a	n/a	n/a
n/a	"html-button-response"	"4"	"7092117"	"0.0-4.0-0.0"	"7wwk4c"	"600"	"1366"	"chrome"	"110.0.0"	"FALSE"	"Windows 10"	"60.68"	"042"	n/a	n/a	n/a	n/a	n/a	n/a	"illusion_instructions"	n/a	n/a	n/a	"50407"	"0"	n/a	"NULL"	"NULL"	"NULL"	"<p><b>Illusion Game</b></p><p>In this game of speed and reflex, you will need to make <b>visual judgments</b> (for instance, which circle is the biggest, or which line is the longest), as fast and as correctly as possible, while <b>resisting different visual illusions</b>.</p><p>We are going to start with some examples of all the illusions you will encounter in the game.</p>"	n/a	n/a	n/a	n/a	n/a	n/a	n/a	n/a	n/a	n/a
"TRUE"	"preload"	"5"	"7092142"	"0.0-4.0-1.0-0.0"	"7wwk4c"	"600"	"1366"	"chrome"	"110.0.0"	"FALSE"	"Windows 10"	"60.68"	"042"	n/a	n/a	n/a	n/a	n/a	n/a	n/a	n/a	n/a	n/a	n/a	"NULL"	"FALSE"	"list()"	"list()"	"list()"	n/a	n/a	n/a	n/a	n/a	n/a	n/a	n/a	n/a	n/a	n/a
n/a	"html-keyboard-response"	"6"	"7106647"	"0.0-4.0-1.0-1.0"	"7wwk4c"	"600"	"1366"	"chrome"	"110.0.0"	"FALSE"	"Windows 10"	"60.68"	"042"	n/a	n/a	n/a	n/a	n/a	n/a	n/a	n/a	n/a	n/a	"14503"	"enter"	n/a	"NULL"	"NULL"	"NULL"	"<p><b>Practice</b></p><p>In this part, two red circles will appear side by side on the screen.</p><p>Your task is to select which <b>red circle is bigger</b> in size as fast as you can, without making errors.</p><p>Don't get distracted by the surrounding black circles around the red circles!</p><p>Press <b>the LEFT or the RIGHT arrow</b> to indicate which is the bigger <b>red circle.</b></p><div style='float: center'><img src='materials/instructions/Ebbinghaus_Demo.png' height='300'></img><p><img src='utils/answer/answer_leftright_keyboard.PNG' height='150'></img></p><p class='small'>In this example, the correct answer is the <b>LEFT arrow</b>.</p></div><p>Are you ready? <b>Press ENTER to start</b></p>"	n/a	n/a	n/a	n/a	n/a	n/a	n/a	n/a	n/a	n/a
n/a	"html-keyboard-response"	"7"	"7108505"	"0.0-4.0-1.0-2.0-0.0"	"7wwk4c"	"600"	"1366"	"chrome"	"110.0.0"	"FALSE"	"Windows 10"	"60.68"	"042"	n/a	n/a	n/a	n/a	n/a	n/a	"fixation"	n/a	n/a	n/a	n/a	"NULL"	n/a	"NULL"	"NULL"	"NULL"	"<p style=\"color: black; font-size: 80px; padding-left: 8%; padding-right: 5%; padding-top: 0%; padding-bottom: 34%\">+</p>"	"1346"	n/a	n/a	n/a	n/a	n/a	n/a	n/a	n/a	n/a
n/a	"image-keyboard-response"	"8"	"7111818"	"0.0-4.0-1.0-2.0-1.0"	"7wwk4c"	"600"	"1366"	"chrome"	"110.0.0"	"FALSE"	"Windows 10"	"60.68"	"042"	n/a	n/a	n/a	n/a	n/a	n/a	"Trial"	n/a	n/a	n/a	"3304"	"arrowright"	n/a	"NULL"	"NULL"	"NULL"	"stimuli/Ebbinghaus_1000000_-1.4000.png"	n/a	"Ebbinghaus"	"arrowright"	"1858"	"TRUE"	"Ebbinghaus"	"100000000000"	"-1.400000000"	"1"	"1"
n/a	"html-keyboard-response"	"9"	"7113202"	"0.0-4.0-1.0-2.0-0.1"	"7wwk4c"	"600"	"1366"	"chrome"	"110.0.0"	"FALSE"	"Windows 10"	"60.68"	"042"	n/a	n/a	n/a	n/a	n/a	n/a	"fixation"	n/a	n/a	n/a	n/a	"NULL"	n/a	"NULL"	"NULL"	"NULL"	"<p style=\"color: black; font-size: 80px; padding-left: 31%; padding-right: 2%; padding-top: 5%; padding-bottom: 13%\">+</p>"	"1367"	n/a	n/a	n/a	n/a	n/a	n/a	n/a	n/a	n/a
n/a	"image-keyboard-response"	"10"	"7115431"	"0.0-4.0-1.0-2.0-1.1"	"7wwk4c"	"600"	"1366"	"chrome"	"110.0.0"	"FALSE"	"Windows 10"	"60.68"	"042"	n/a	n/a	n/a	n/a	n/a	n/a	"Trial"	n/a	n/a	n/a	"2227"	"arrowright"	n/a	"NULL"	"NULL"	"NULL"	"stimuli/Ebbinghaus_-100000_1.40000.png"	n/a	"Ebbinghaus"	"arrowleft"	"1384"	"FALSE"	"Ebbinghaus"	"-10000000000"	"1.4000000000"	"1"	"2"
n/a	"html-keyboard-response"	"11"	"7116560"	"0.0-4.0-1.0-2.0-0.2"	"7wwk4c"	"600"	"1366"	"chrome"	"110.0.0"	"FALSE"	"Windows 10"	"60.68"	"042"	n/a	n/a	n/a	n/a	n/a	n/a	"fixation"	n/a	n/a	n/a	n/a	"NULL"	n/a	"NULL"	"NULL"	"NULL"	"<p style=\"color: black; font-size: 80px; padding-left: 37%; padding-right: 29%; padding-top: 22%; padding-bottom: 2%\">+</p>"	"1125"	n/a	n/a	n/a	n/a	n/a	n/a	n/a	n/a	n/a
n/a	"image-keyboard-response"	"12"	"7118046"	"0.0-4.0-1.0-2.0-1.2"	"7wwk4c"	"600"	"1366"	"chrome"	"110.0.0"	"FALSE"	"Windows 10"	"60.68"	"042"	n/a	n/a	n/a	n/a	n/a	n/a	"Trial"	n/a	n/a	n/a	"1485"	"arrowleft"	n/a	"NULL"	"NULL"	"NULL"	"stimuli/Ebbinghaus_-100000_-1.4000.png"	n/a	"Ebbinghaus"	"arrowright"	"1129"	"FALSE"	"Ebbinghaus"	"-10000000000"	"-1.400000000"	"1"	"3"
n/a	"html-keyboard-response"	"13"	"7119053"	"0.0-4.0-1.0-2.0-0.3"	"7wwk4c"	"600"	"1366"	"chrome"	"110.0.0"	"FALSE"	"Windows 10"	"60.68"	"042"	n/a	n/a	n/a	n/a	n/a	n/a	"fixation"	n/a	n/a	n/a	n/a	"NULL"	n/a	"NULL"	"NULL"	"NULL"	"<p style=\"color: black; font-size: 80px; padding-left: 1%; padding-right: 42%; padding-top: 34%; padding-bottom: 0%\">+</p>"	"1005"	n/a	n/a	n/a	n/a	n/a	n/a	n/a	n/a	n/a
n/a	"image-keyboard-response"	"14"	"7119737"	"0.0-4.0-1.0-2.0-1.3"	"7wwk4c"	"600"	"1366"	"chrome"	"110.0.0"	"FALSE"	"Windows 10"	"60.68"	"042"	n/a	n/a	n/a	n/a	n/a	n/a	"Trial"	n/a	n/a	n/a	"684"	"arrowleft"	n/a	"NULL"	"NULL"	"NULL"	"stimuli/Ebbinghaus_1000000_1.40000.png"	n/a	"Ebbinghaus"	"arrowleft"	"1007"	"TRUE"	"Ebbinghaus"	"100000000000"	"1.4000000000"	"1"	"4"
n/a	"html-keyboard-response"	"15"	"7120957"	"0.0-4.0-1.0-2.0-0.4"	"7wwk4c"	"600"	"1366"	"chrome"	"110.0.0"	"FALSE"	"Windows 10"	"60.68"	"042"	n/a	n/a	n/a	n/a	n/a	n/a	"fixation"	n/a	n/a	n/a	n/a	"NULL"	n/a	"NULL"	"NULL"	"NULL"	"<p style=\"color: black; font-size: 80px; padding-left: 7%; padding-right: 9%; padding-top: 19%; padding-bottom: 21%\">+</p>"	"1212"	n/a	n/a	n/a	n/a	n/a	n/a	n/a	n/a	n/a
n/a	"image-keyboard-response"	"16"	"7121671"	"0.0-4.0-1.0-2.0-1.4"	"7wwk4c"	"600"	"1366"	"chrome"	"110.0.0"	"FALSE"	"Windows 10"	"60.68"	"042"	n/a	n/a	n/a	n/a	n/a	n/a	"Trial"	n/a	n/a	n/a	"714"	"arrowright"	n/a	"NULL"	"NULL"	"NULL"	"stimuli/Ebbinghaus_0000000_-1.4000.png"	n/a	"Ebbinghaus"	"arrowright"	"1220"	"TRUE"	"Ebbinghaus"	"000000000000"	"-1.400000000"	"1"	"5"
n/a	"html-keyboard-response"	"17"	"7123134"	"0.0-4.0-1.0-2.0-0.5"	"7wwk4c"	"600"	"1366"	"chrome"	"110.0.0"	"FALSE"	"Windows 10"	"60.68"	"042"	n/a	n/a	n/a	n/a	n/a	n/a	"fixation"	n/a	n/a	n/a	n/a	"NULL"	n/a	"NULL"	"NULL"	"NULL"	"<p style=\"color: black; font-size: 80px; padding-left: 23%; padding-right: 2%; padding-top: 27%; padding-bottom: 22%\">+</p>"	"1447"	n/a	n/a	n/a	n/a	n/a	n/a	n/a	n/a	n/a
n/a	"image-keyboard-response"	"18"	"7124446"	"0.0-4.0-1.0-2.0-1.5"	"7wwk4c"	"600"	"1366"	"chrome"	"110.0.0"	"FALSE"	"Windows 10"	"60.68"	"042"	n/a	n/a	n/a	n/a	n/a	n/a	"Trial"	n/a	n/a	n/a	"1311"	"arrowleft"	n/a	"NULL"	"NULL"	"NULL"	"stimuli/Ebbinghaus_0000000_1.40000.png"	n/a	"Ebbinghaus"	"arrowleft"	"1463"	"TRUE"	"Ebbinghaus"	"000000000000"	"1.4000000000"	"1"	"6"
n/a	"html-button-response"	"19"	"7128452"	"0.0-4.0-1.0-3.0"	"7wwk4c"	"600"	"1366"	"chrome"	"110.0.0"	"FALSE"	"Windows 10"	"60.68"	"042"	n/a	n/a	n/a	n/a	n/a	n/a	"practice_block_results"	n/a	n/a	n/a	"4005"	"0"	n/a	"NULL"	"NULL"	"NULL"	"<p style='color:rgb(76,175,80);'> Correct Responses: <b>66.67%</b></p><hr><p style='color:rgb(233,30,99);'> Average Response Time: <b>1620.83</b> ms.</p>"	n/a	n/a	n/a	n/a	n/a	n/a	n/a	n/a	n/a	n/a
"TRUE"	"preload"	"20"	"7128979"	"0.0-4.0-2.0-0.0"	"7wwk4c"	"600"	"1366"	"chrome"	"110.0.0"	"FALSE"	"Windows 10"	"60.68"	"042"	n/a	n/a	n/a	n/a	n/a	n/a	n/a	n/a	n/a	n/a	n/a	"NULL"	"FALSE"	"list()"	"list()"	"list()"	n/a	n/a	n/a	n/a	n/a	n/a	n/a	n/a	n/a	n/a	n/a
n/a	"html-keyboard-response"	"21"	"7134280"	"0.0-4.0-2.0-1.0"	"7wwk4c"	"600"	"1366"	"chrome"	"110.0.0"	"FALSE"	"Windows 10"	"60.68"	"042"	n/a	n/a	n/a	n/a	n/a	n/a	n/a	n/a	n/a	n/a	"5300"	"enter"	n/a	"NULL"	"NULL"	"NULL"	"<p><b>Practice</b></p><p>In this part, two horizontal red lines will appear one above the other.</p><p>Your task is to select which <b>line is longer</b> in length as fast as you can, without making errors.</p><p>Don't get distracted by the surrounding black arrows at the end of the red lines!</p><p>Press <b>the UP or the DOWN arrow</b> to indicate where is the longer <b>red line.</b></p><div style='float: center'><img src='materials/instructions/MullerLyer_Demo.png' height='300'></img><p><img src='utils/answer/answer_updown_keyboard.PNG' height='150'></img></p><p class='small'>In this example, the correct answer is the <b>UP arrow</b>.</p></div><p>Are you ready? <b>Press ENTER to start</b></p>"	n/a	n/a	n/a	n/a	n/a	n/a	n/a	n/a	n/a	n/a
n/a	"html-keyboard-response"	"22"	"7136292"	"0.0-4.0-2.0-2.0-0.0"	"7wwk4c"	"600"	"1366"	"chrome"	"110.0.0"	"FALSE"	"Windows 10"	"60.68"	"042"	n/a	n/a	n/a	n/a	n/a	n/a	"fixation"	n/a	n/a	n/a	n/a	"NULL"	n/a	"NULL"	"NULL"	"NULL"	"<p style=\"color: black; font-size: 80px; padding-left: 21%; padding-right: 34%; padding-top: 14%; padding-bottom: 3%\">+</p>"	"1494"	n/a	n/a	n/a	n/a	n/a	n/a	n/a	n/a	n/a
n/a	"image-keyboard-response"	"23"	"7137142"	"0.0-4.0-2.0-2.0-1.0"	"7wwk4c"	"600"	"1366"	"chrome"	"110.0.0"	"FALSE"	"Windows 10"	"60.68"	"042"	n/a	n/a	n/a	n/a	n/a	n/a	"Trial"	n/a	n/a	n/a	"849"	"arrowup"	n/a	"NULL"	"NULL"	"NULL"	"stimuli/MullerLyer_-230000_0.70000.png"	n/a	"MullerLyer"	"arrowup"	"2012"	"TRUE"	"MullerLyer"	"-23000000000"	"0.7000000000"	"1"	"7"
n/a	"html-keyboard-response"	"24"	"7138289"	"0.0-4.0-2.0-2.0-0.1"	"7wwk4c"	"600"	"1366"	"chrome"	"110.0.0"	"FALSE"	"Windows 10"	"60.68"	"042"	n/a	n/a	n/a	n/a	n/a	n/a	"fixation"	n/a	n/a	n/a	n/a	"NULL"	n/a	"NULL"	"NULL"	"NULL"	"<p style=\"color: black; font-size: 80px; padding-left: 19%; padding-right: 14%; padding-top: 43%; padding-bottom: 42%\">+</p>"	"1142"	n/a	n/a	n/a	n/a	n/a	n/a	n/a	n/a	n/a
n/a	"image-keyboard-response"	"25"	"7138896"	"0.0-4.0-2.0-2.0-1.1"	"7wwk4c"	"600"	"1366"	"chrome"	"110.0.0"	"FALSE"	"Windows 10"	"60.68"	"042"	n/a	n/a	n/a	n/a	n/a	n/a	"Trial"	n/a	n/a	n/a	"607"	"arrowdown"	n/a	"NULL"	"NULL"	"NULL"	"stimuli/MullerLyer_2300000_-0.7000.png"	n/a	"MullerLyer"	"arrowdown"	"1147"	"TRUE"	"MullerLyer"	"230000000000"	"-0.700000000"	"1"	"8"
n/a	"html-keyboard-response"	"26"	"7140369"	"0.0-4.0-2.0-2.0-0.2"	"7wwk4c"	"600"	"1366"	"chrome"	"110.0.0"	"FALSE"	"Windows 10"	"60.68"	"042"	n/a	n/a	n/a	n/a	n/a	n/a	"fixation"	n/a	n/a	n/a	n/a	"NULL"	n/a	"NULL"	"NULL"	"NULL"	"<p style=\"color: black; font-size: 80px; padding-left: 9%; padding-right: 17%; padding-top: 20%; padding-bottom: 1%\">+</p>"	"1470"	n/a	n/a	n/a	n/a	n/a	n/a	n/a	n/a	n/a
n/a	"image-keyboard-response"	"27"	"7141006"	"0.0-4.0-2.0-2.0-1.2"	"7wwk4c"	"600"	"1366"	"chrome"	"110.0.0"	"FALSE"	"Windows 10"	"60.68"	"042"	n/a	n/a	n/a	n/a	n/a	n/a	"Trial"	n/a	n/a	n/a	"636"	"arrowup"	n/a	"NULL"	"NULL"	"NULL"	"stimuli/MullerLyer_0000000_-0.7000.png"	n/a	"MullerLyer"	"arrowdown"	"1473"	"FALSE"	"MullerLyer"	"000000000000"	"-0.700000000"	"1"	"9"
n/a	"html-keyboard-response"	"28"	"7142342"	"0.0-4.0-2.0-2.0-0.3"	"7wwk4c"	"600"	"1366"	"chrome"	"110.0.0"	"FALSE"	"Windows 10"	"60.68"	"042"	n/a	n/a	n/a	n/a	n/a	n/a	"fixation"	n/a	n/a	n/a	n/a	"NULL"	n/a	"NULL"	"NULL"	"NULL"	"<p style=\"color: black; font-size: 80px; padding-left: 29%; padding-right: 36%; padding-top: 17%; padding-bottom: 13%\">+</p>"	"1333"	n/a	n/a	n/a	n/a	n/a	n/a	n/a	n/a	n/a
n/a	"image-keyboard-response"	"29"	"7143641"	"0.0-4.0-2.0-2.0-1.3"	"7wwk4c"	"600"	"1366"	"chrome"	"110.0.0"	"FALSE"	"Windows 10"	"60.68"	"042"	n/a	n/a	n/a	n/a	n/a	n/a	"Trial"	n/a	n/a	n/a	"1298"	"arrowup"	n/a	"NULL"	"NULL"	"NULL"	"stimuli/MullerLyer_2300000_0.70000.png"	n/a	"MullerLyer"	"arrowup"	"1336"	"TRUE"	"MullerLyer"	"230000000000"	"0.7000000000"	"1"	"10"
n/a	"html-keyboard-response"	"30"	"7144874"	"0.0-4.0-2.0-2.0-0.4"	"7wwk4c"	"600"	"1366"	"chrome"	"110.0.0"	"FALSE"	"Windows 10"	"60.68"	"042"	n/a	n/a	n/a	n/a	n/a	n/a	"fixation"	n/a	n/a	n/a	n/a	"NULL"	n/a	"NULL"	"NULL"	"NULL"	"<p style=\"color: black; font-size: 80px; padding-left: 34%; padding-right: 34%; padding-top: 5%; padding-bottom: 31%\">+</p>"	"1224"	n/a	n/a	n/a	n/a	n/a	n/a	n/a	n/a	n/a
n/a	"image-keyboard-response"	"31"	"7145517"	"0.0-4.0-2.0-2.0-1.4"	"7wwk4c"	"600"	"1366"	"chrome"	"110.0.0"	"FALSE"	"Windows 10"	"60.68"	"042"	n/a	n/a	n/a	n/a	n/a	n/a	"Trial"	n/a	n/a	n/a	"643"	"arrowdown"	n/a	"NULL"	"NULL"	"NULL"	"stimuli/MullerLyer_-230000_-0.7000.png"	n/a	"MullerLyer"	"arrowdown"	"1233"	"TRUE"	"MullerLyer"	"-23000000000"	"-0.700000000"	"1"	"11"
n/a	"html-keyboard-response"	"32"	"7146931"	"0.0-4.0-2.0-2.0-0.5"	"7wwk4c"	"600"	"1366"	"chrome"	"110.0.0"	"FALSE"	"Windows 10"	"60.68"	"042"	n/a	n/a	n/a	n/a	n/a	n/a	"fixation"	n/a	n/a	n/a	n/a	"NULL"	n/a	"NULL"	"NULL"	"NULL"	"<p style=\"color: black; font-size: 80px; padding-left: 25%; padding-right: 35%; padding-top: 14%; padding-bottom: 38%\">+</p>"	"1402"	n/a	n/a	n/a	n/a	n/a	n/a	n/a	n/a	n/a
n/a	"image-keyboard-response"	"33"	"7147643"	"0.0-4.0-2.0-2.0-1.5"	"7wwk4c"	"600"	"1366"	"chrome"	"110.0.0"	"FALSE"	"Windows 10"	"60.68"	"042"	n/a	n/a	n/a	n/a	n/a	n/a	"Trial"	n/a	n/a	n/a	"711"	"arrowup"	n/a	"NULL"	"NULL"	"NULL"	"stimuli/MullerLyer_0000000_0.70000.png"	n/a	"MullerLyer"	"arrowup"	"1414"	"TRUE"	"MullerLyer"	"000000000000"	"0.7000000000"	"1"	"12"
n/a	"html-button-response"	"34"	"7150557"	"0.0-4.0-2.0-3.0"	"7wwk4c"	"600"	"1366"	"chrome"	"110.0.0"	"FALSE"	"Windows 10"	"60.68"	"042"	n/a	n/a	n/a	n/a	n/a	n/a	"practice_block_results"	n/a	n/a	n/a	"2913"	"0"	n/a	"NULL"	"NULL"	"NULL"	"<p style='color:rgb(76,175,80);'> Correct Responses: <b>83.33%</b></p><hr><p style='color:rgb(233,30,99);'> Average Response Time: <b>790.67</b> ms.</p>"	n/a	n/a	n/a	n/a	n/a	n/a	n/a	n/a	n/a	n/a
"TRUE"	"preload"	"35"	"7151081"	"0.0-4.0-3.0-0.0"	"7wwk4c"	"600"	"1366"	"chrome"	"110.0.0"	"FALSE"	"Windows 10"	"60.68"	"042"	n/a	n/a	n/a	n/a	n/a	n/a	n/a	n/a	n/a	n/a	n/a	"NULL"	"FALSE"	"list()"	"list()"	"list()"	n/a	n/a	n/a	n/a	n/a	n/a	n/a	n/a	n/a	n/a	n/a
n/a	"html-keyboard-response"	"36"	"7154047"	"0.0-4.0-3.0-1.0"	"7wwk4c"	"600"	"1366"	"chrome"	"110.0.0"	"FALSE"	"Windows 10"	"60.68"	"042"	n/a	n/a	n/a	n/a	n/a	n/a	n/a	n/a	n/a	n/a	"2966"	"enter"	n/a	"NULL"	"NULL"	"NULL"	"<p><b>Practice</b></p><p>In this part, two red lines will appear side by side.</p><p>Your task is to tell <b>which line is longer</b> in length, regardless of their orientation, as fast as you can, and without making errors.</p><p>Don't get distracted by the orientation of the lines!</p><p>Press <b>the LEFT or the RIGHT arrow</b> to indicate which <b>line is the longer one.</b></p><div style='float: center'><img src='materials/instructions/VerticalHorizontal_Demo.png' height='300'></img><p><img src='utils/answer/answer_leftright_keyboard.PNG' height='150'></img></p><p class='small'>In this example, the correct answer is the <b>LEFT arrow</b>.</p></div><p>Are you ready? <b>Press ENTER to start</b></p>"	n/a	n/a	n/a	n/a	n/a	n/a	n/a	n/a	n/a	n/a
n/a	"html-keyboard-response"	"37"	"7155599"	"0.0-4.0-3.0-2.0-0.0"	"7wwk4c"	"600"	"1366"	"chrome"	"110.0.0"	"FALSE"	"Windows 10"	"60.68"	"042"	n/a	n/a	n/a	n/a	n/a	n/a	"fixation"	n/a	n/a	n/a	n/a	"NULL"	n/a	"NULL"	"NULL"	"NULL"	"<p style=\"color: black; font-size: 80px; padding-left: 27%; padding-right: 45%; padding-top: 23%; padding-bottom: 19%\">+</p>"	"1025"	n/a	n/a	n/a	n/a	n/a	n/a	n/a	n/a	n/a
n/a	"image-keyboard-response"	"38"	"7156476"	"0.0-4.0-3.0-2.0-1.0"	"7wwk4c"	"600"	"1366"	"chrome"	"110.0.0"	"FALSE"	"Windows 10"	"60.68"	"042"	n/a	n/a	n/a	n/a	n/a	n/a	"Trial"	n/a	n/a	n/a	"876"	"arrowright"	n/a	"NULL"	"NULL"	"NULL"	"stimuli/VerticalHorizontal_3300000_-0.9000.png"	n/a	"VerticalHorizontal"	"arrowright"	"1552"	"TRUE"	"VerticalHorizontal"	"330000000000"	"-0.900000000"	"1"	"13"
n/a	"html-keyboard-response"	"39"	"7157803"	"0.0-4.0-3.0-2.0-0.1"	"7wwk4c"	"600"	"1366"	"chrome"	"110.0.0"	"FALSE"	"Windows 10"	"60.68"	"042"	n/a	n/a	n/a	n/a	n/a	n/a	"fixation"	n/a	n/a	n/a	n/a	"NULL"	n/a	"NULL"	"NULL"	"NULL"	"<p style=\"color: black; font-size: 80px; padding-left: 42%; padding-right: 36%; padding-top: 3%; padding-bottom: 4%\">+</p>"	"1312"	n/a	n/a	n/a	n/a	n/a	n/a	n/a	n/a	n/a
n/a	"image-keyboard-response"	"40"	"7158353"	"0.0-4.0-3.0-2.0-1.1"	"7wwk4c"	"600"	"1366"	"chrome"	"110.0.0"	"FALSE"	"Windows 10"	"60.68"	"042"	n/a	n/a	n/a	n/a	n/a	n/a	"Trial"	n/a	n/a	n/a	"549"	"arrowleft"	n/a	"NULL"	"NULL"	"NULL"	"stimuli/VerticalHorizontal_-330000_0.90000.png"	n/a	"VerticalHorizontal"	"arrowleft"	"1327"	"TRUE"	"VerticalHorizontal"	"-33000000000"	"0.9000000000"	"1"	"14"
n/a	"html-keyboard-response"	"41"	"7159425"	"0.0-4.0-3.0-2.0-0.2"	"7wwk4c"	"600"	"1366"	"chrome"	"110.0.0"	"FALSE"	"Windows 10"	"60.68"	"042"	n/a	n/a	n/a	n/a	n/a	n/a	"fixation"	n/a	n/a	n/a	n/a	"NULL"	n/a	"NULL"	"NULL"	"NULL"	"<p style=\"color: black; font-size: 80px; padding-left: 23%; padding-right: 43%; padding-top: 36%; padding-bottom: 18%\">+</p>"	"1066"	n/a	n/a	n/a	n/a	n/a	n/a	n/a	n/a	n/a
n/a	"image-keyboard-response"	"42"	"7160037"	"0.0-4.0-3.0-2.0-1.2"	"7wwk4c"	"600"	"1366"	"chrome"	"110.0.0"	"FALSE"	"Windows 10"	"60.68"	"042"	n/a	n/a	n/a	n/a	n/a	n/a	"Trial"	n/a	n/a	n/a	"612"	"arrowleft"	n/a	"NULL"	"NULL"	"NULL"	"stimuli/VerticalHorizontal_0000000_0.90000.png"	n/a	"VerticalHorizontal"	"arrowleft"	"1072"	"TRUE"	"VerticalHorizontal"	"000000000000"	"0.9000000000"	"1"	"15"
n/a	"html-keyboard-response"	"43"	"7161483"	"0.0-4.0-3.0-2.0-0.3"	"7wwk4c"	"600"	"1366"	"chrome"	"110.0.0"	"FALSE"	"Windows 10"	"60.68"	"042"	n/a	n/a	n/a	n/a	n/a	n/a	"fixation"	n/a	n/a	n/a	n/a	"NULL"	n/a	"NULL"	"NULL"	"NULL"	"<p style=\"color: black; font-size: 80px; padding-left: 17%; padding-right: 29%; padding-top: 33%; padding-bottom: 39%\">+</p>"	"1431"	n/a	n/a	n/a	n/a	n/a	n/a	n/a	n/a	n/a
n/a	"image-keyboard-response"	"44"	"7161872"	"0.0-4.0-3.0-2.0-1.3"	"7wwk4c"	"600"	"1366"	"chrome"	"110.0.0"	"FALSE"	"Windows 10"	"60.68"	"042"	n/a	n/a	n/a	n/a	n/a	n/a	"Trial"	n/a	n/a	n/a	"388"	"arrowright"	n/a	"NULL"	"NULL"	"NULL"	"stimuli/VerticalHorizontal_0000000_-0.9000.png"	n/a	"VerticalHorizontal"	"arrowright"	"1446"	"TRUE"	"VerticalHorizontal"	"000000000000"	"-0.900000000"	"1"	"16"
n/a	"html-keyboard-response"	"45"	"7163090"	"0.0-4.0-3.0-2.0-0.4"	"7wwk4c"	"600"	"1366"	"chrome"	"110.0.0"	"FALSE"	"Windows 10"	"60.68"	"042"	n/a	n/a	n/a	n/a	n/a	n/a	"fixation"	n/a	n/a	n/a	n/a	"NULL"	n/a	"NULL"	"NULL"	"NULL"	"<p style=\"color: black; font-size: 80px; padding-left: 13%; padding-right: 24%; padding-top: 2%; padding-bottom: 38%\">+</p>"	"1211"	n/a	n/a	n/a	n/a	n/a	n/a	n/a	n/a	n/a
n/a	"image-keyboard-response"	"46"	"7163530"	"0.0-4.0-3.0-2.0-1.4"	"7wwk4c"	"600"	"1366"	"chrome"	"110.0.0"	"FALSE"	"Windows 10"	"60.68"	"042"	n/a	n/a	n/a	n/a	n/a	n/a	"Trial"	n/a	n/a	n/a	"439"	"arrowright"	n/a	"NULL"	"NULL"	"NULL"	"stimuli/VerticalHorizontal_-330000_-0.9000.png"	n/a	"VerticalHorizontal"	"arrowright"	"1218"	"TRUE"	"VerticalHorizontal"	"-33000000000"	"-0.900000000"	"1"	"17"
n/a	"html-keyboard-response"	"47"	"7165014"	"0.0-4.0-3.0-2.0-0.5"	"7wwk4c"	"600"	"1366"	"chrome"	"110.0.0"	"FALSE"	"Windows 10"	"60.68"	"042"	n/a	n/a	n/a	n/a	n/a	n/a	"fixation"	n/a	n/a	n/a	n/a	"NULL"	n/a	"NULL"	"NULL"	"NULL"	"<p style=\"color: black; font-size: 80px; padding-left: 48%; padding-right: 48%; padding-top: 19%; padding-bottom: 12%\">+</p>"	"1483"	n/a	n/a	n/a	n/a	n/a	n/a	n/a	n/a	n/a
n/a	"image-keyboard-response"	"48"	"7165538"	"0.0-4.0-3.0-2.0-1.5"	"7wwk4c"	"600"	"1366"	"chrome"	"110.0.0"	"FALSE"	"Windows 10"	"60.68"	"042"	n/a	n/a	n/a	n/a	n/a	n/a	"Trial"	n/a	n/a	n/a	"523"	"arrowleft"	n/a	"NULL"	"NULL"	"NULL"	"stimuli/VerticalHorizontal_3300000_0.90000.png"	n/a	"VerticalHorizontal"	"arrowleft"	"1484"	"TRUE"	"VerticalHorizontal"	"330000000000"	"0.9000000000"	"1"	"18"
n/a	"html-button-response"	"49"	"7167477"	"0.0-4.0-3.0-3.0"	"7wwk4c"	"600"	"1366"	"chrome"	"110.0.0"	"FALSE"	"Windows 10"	"60.68"	"042"	n/a	n/a	n/a	n/a	n/a	n/a	"practice_block_results"	n/a	n/a	n/a	"1938"	"0"	n/a	"NULL"	"NULL"	"NULL"	"<p style='color:rgb(76,175,80);'> Correct Responses: <b>100.00%</b></p><hr><p style='color:rgb(233,30,99);'> Average Response Time: <b>564.50</b> ms.</p>"	n/a	n/a	n/a	n/a	n/a	n/a	n/a	n/a	n/a	n/a
n/a	"html-button-response"	"50"	"7241237"	"0.0-4.0-4.0"	"7wwk4c"	"600"	"1366"	"chrome"	"110.0.0"	"FALSE"	"Windows 10"	"60.68"	"042"	n/a	n/a	n/a	n/a	n/a	n/a	"practice_debrief"	n/a	n/a	n/a	"73245"	"0"	n/a	"NULL"	"NULL"	"NULL"	"<p><b>TRAINING COMPLETED</b></p><p>In the next phase, there will be more trials, and some might be harder too.<br> Moreover, after each illusion block, a <b>score</b> will be calculated based on speed (time you took to answer) and accuracy (number of errors).</p><p>Try to keep up a high score!</p><br><p>Note that it can be <i>really</i> challenging at times, so you will need to rely on your <b>intuition</b> and gut feeling to answer as fast as you can without making errors.</p><p>Each illusion block will be repeated two times (so that you have the opportunity to improve your score), but the order of the blocks is random.</p><p>Remember, your goal is to be as <b>fast</b> and <b>accurate</b> as possible. Good luck!</p><br>"	n/a	n/a	n/a	n/a	n/a	n/a	n/a	n/a	n/a	n/a
"TRUE"	"preload"	"51"	"7241419"	"0.0-5.0-0.0"	"7wwk4c"	"600"	"1366"	"chrome"	"110.0.0"	"FALSE"	"Windows 10"	"60.68"	"042"	n/a	n/a	n/a	n/a	n/a	n/a	n/a	n/a	n/a	n/a	n/a	"NULL"	"FALSE"	"list()"	"list()"	"list()"	n/a	n/a	n/a	n/a	n/a	n/a	n/a	n/a	n/a	n/a	n/a
n/a	"html-keyboard-response"	"52"	"7253333"	"0.0-5.0-1.0"	"7wwk4c"	"600"	"1366"	"chrome"	"110.0.0"	"FALSE"	"Windows 10"	"60.68"	"042"	n/a	n/a	n/a	n/a	n/a	n/a	n/a	n/a	n/a	n/a	"11913"	"enter"	n/a	"NULL"	"NULL"	"NULL"	"<p><b>Part 1/6</b></p><p>In this part, two red lines will appear side by side.</p><p>Your task is to tell <b>which line is longer</b> in length, regardless of their orientation, as fast as you can, and without making errors.</p><p>Don't get distracted by the orientation of the lines!</p><p>Press <b>the LEFT or the RIGHT arrow</b> to indicate which <b>line is the longer one.</b></p><div style='float: center'><img src='materials/instructions/VerticalHorizontal_Demo.png' height='300'></img><p><img src='utils/answer/answer_leftright_keyboard.PNG' height='150'></img></p><p class='small'>In this example, the correct answer is the <b>LEFT arrow</b>.</p></div><p>Are you ready? <b>Press ENTER to start</b></p>"	n/a	n/a	n/a	n/a	n/a	n/a	n/a	n/a	n/a	n/a
n/a	"html-keyboard-response"	"53"	"7255312"	"0.0-5.0-2.0-0.0"	"7wwk4c"	"600"	"1366"	"chrome"	"110.0.0"	"FALSE"	"Windows 10"	"60.68"	"042"	n/a	n/a	n/a	n/a	n/a	n/a	"fixation"	n/a	n/a	n/a	n/a	"NULL"	n/a	"NULL"	"NULL"	"NULL"	"<p style=\"color: black; font-size: 80px; padding-left: 46%; padding-right: 9%; padding-top: 32%; padding-bottom: 13%\">+</p>"	"1458"	n/a	n/a	n/a	n/a	n/a	n/a	n/a	n/a	n/a
n/a	"image-keyboard-response"	"54"	"7256358"	"0.0-5.0-2.0-1.0"	"7wwk4c"	"600"	"1366"	"chrome"	"110.0.0"	"FALSE"	"Windows 10"	"60.68"	"042"	n/a	n/a	n/a	n/a	n/a	n/a	"Trial"	n/a	n/a	n/a	"1045"	"arrowleft"	n/a	"NULL"	"NULL"	"NULL"	"stimuli/VerticalHorizontal_-28.75714_0.06730.png"	n/a	"VerticalHorizontal"	"arrowleft"	"1979"	"TRUE"	"VerticalHorizontal"	"-28.75714000"	"0.0673000000"	"1"	"19"
n/a	"html-keyboard-response"	"55"	"7257419"	"0.0-5.0-2.0-0.1"	"7wwk4c"	"600"	"1366"	"chrome"	"110.0.0"	"FALSE"	"Windows 10"	"60.68"	"042"	n/a	n/a	n/a	n/a	n/a	n/a	"fixation"	n/a	n/a	n/a	n/a	"NULL"	n/a	"NULL"	"NULL"	"NULL"	"<p style=\"color: black; font-size: 80px; padding-left: 4%; padding-right: 37%; padding-top: 4%; padding-bottom: 49%\">+</p>"	"1056"	n/a	n/a	n/a	n/a	n/a	n/a	n/a	n/a	n/a
n/a	"image-keyboard-response"	"56"	"7258006"	"0.0-5.0-2.0-1.1"	"7wwk4c"	"600"	"1366"	"chrome"	"110.0.0"	"FALSE"	"Windows 10"	"60.68"	"042"	n/a	n/a	n/a	n/a	n/a	n/a	"Trial"	n/a	n/a	n/a	"586"	"arrowleft"	n/a	"NULL"	"NULL"	"NULL"	"stimuli/VerticalHorizontal_3.30000_0.22500.png"	n/a	"VerticalHorizontal"	"arrowleft"	"1061"	"TRUE"	"VerticalHorizontal"	"3.3000000000"	"0.2250000000"	"1"	"20"
n/a	"html-keyboard-response"	"57"	"7259139"	"0.0-5.0-2.0-0.2"	"7wwk4c"	"600"	"1366"	"chrome"	"110.0.0"	"FALSE"	"Windows 10"	"60.68"	"042"	n/a	n/a	n/a	n/a	n/a	n/a	"fixation"	n/a	n/a	n/a	n/a	"NULL"	n/a	"NULL"	"NULL"	"NULL"	"<p style=\"color: black; font-size: 80px; padding-left: 15%; padding-right: 14%; padding-top: 38%; padding-bottom: 34%\">+</p>"	"1131"	n/a	n/a	n/a	n/a	n/a	n/a	n/a	n/a	n/a
n/a	"image-keyboard-response"	"58"	"7259701"	"0.0-5.0-2.0-1.2"	"7wwk4c"	"600"	"1366"	"chrome"	"110.0.0"	"FALSE"	"Windows 10"	"60.68"	"042"	n/a	n/a	n/a	n/a	n/a	n/a	"Trial"	n/a	n/a	n/a	"561"	"arrowright"	n/a	"NULL"	"NULL"	"NULL"	"stimuli/VerticalHorizontal_-3.3000_-0.1096.png"	n/a	"VerticalHorizontal"	"arrowright"	"1133"	"TRUE"	"VerticalHorizontal"	"-3.300000000"	"-0.109600000"	"1"	"21"
n/a	"html-keyboard-response"	"59"	"7260983"	"0.0-5.0-2.0-0.3"	"7wwk4c"	"600"	"1366"	"chrome"	"110.0.0"	"FALSE"	"Windows 10"	"60.68"	"042"	n/a	n/a	n/a	n/a	n/a	n/a	"fixation"	n/a	n/a	n/a	n/a	"NULL"	n/a	"NULL"	"NULL"	"NULL"	"<p style=\"color: black; font-size: 80px; padding-left: 21%; padding-right: 48%; padding-top: 0%; padding-bottom: 13%\">+</p>"	"1273"	n/a	n/a	n/a	n/a	n/a	n/a	n/a	n/a	n/a
n/a	"image-keyboard-response"	"60"	"7261723"	"0.0-5.0-2.0-1.3"	"7wwk4c"	"600"	"1366"	"chrome"	"110.0.0"	"FALSE"	"Windows 10"	"60.68"	"042"	n/a	n/a	n/a	n/a	n/a	n/a	"Trial"	n/a	n/a	n/a	"740"	"arrowleft"	n/a	"NULL"	"NULL"	"NULL"	"stimuli/VerticalHorizontal_3.30000_-0.1096.png"	n/a	"VerticalHorizontal"	"arrowright"	"1282"	"FALSE"	"VerticalHorizontal"	"3.3000000000"	"-0.109600000"	"1"	"22"
n/a	"html-keyboard-response"	"61"	"7262811"	"0.0-5.0-2.0-0.4"	"7wwk4c"	"600"	"1366"	"chrome"	"110.0.0"	"FALSE"	"Windows 10"	"60.68"	"042"	n/a	n/a	n/a	n/a	n/a	n/a	"fixation"	n/a	n/a	n/a	n/a	"NULL"	n/a	"NULL"	"NULL"	"NULL"	"<p style=\"color: black; font-size: 80px; padding-left: 9%; padding-right: 50%; padding-top: 40%; padding-bottom: 8%\">+</p>"	"1079"	n/a	n/a	n/a	n/a	n/a	n/a	n/a	n/a	n/a
n/a	"image-keyboard-response"	"62"	"7263302"	"0.0-5.0-2.0-1.4"	"7wwk4c"	"600"	"1366"	"chrome"	"110.0.0"	"FALSE"	"Windows 10"	"60.68"	"042"	n/a	n/a	n/a	n/a	n/a	n/a	"Trial"	n/a	n/a	n/a	"490"	"arrowright"	n/a	"NULL"	"NULL"	"NULL"	"stimuli/VerticalHorizontal_-20.27143_-0.1096.png"	n/a	"VerticalHorizontal"	"arrowright"	"1088"	"TRUE"	"VerticalHorizontal"	"-20.27143000"	"-0.109600000"	"1"	"23"
n/a	"html-keyboard-response"	"63"	"7264592"	"0.0-5.0-2.0-0.5"	"7wwk4c"	"600"	"1366"	"chrome"	"110.0.0"	"FALSE"	"Windows 10"	"60.68"	"042"	n/a	n/a	n/a	n/a	n/a	n/a	"fixation"	n/a	n/a	n/a	n/a	"NULL"	n/a	"NULL"	"NULL"	"NULL"	"<p style=\"color: black; font-size: 80px; padding-left: 0%; padding-right: 34%; padding-top: 47%; padding-bottom: 46%\">+</p>"	"1278"	n/a	n/a	n/a	n/a	n/a	n/a	n/a	n/a	n/a
n/a	"image-keyboard-response"	"64"	"7265564"	"0.0-5.0-2.0-1.5"	"7wwk4c"	"600"	"1366"	"chrome"	"110.0.0"	"FALSE"	"Windows 10"	"60.68"	"042"	n/a	n/a	n/a	n/a	n/a	n/a	"Trial"	n/a	n/a	n/a	"972"	"arrowright"	n/a	"NULL"	"NULL"	"NULL"	"stimuli/VerticalHorizontal_-3.3000_-0.2250.png"	n/a	"VerticalHorizontal"	"arrowright"	"1290"	"TRUE"	"VerticalHorizontal"	"-3.300000000"	"-0.225000000"	"1"	"24"
n/a	"html-keyboard-response"	"65"	"7266970"	"0.0-5.0-2.0-0.6"	"7wwk4c"	"600"	"1366"	"chrome"	"110.0.0"	"FALSE"	"Windows 10"	"60.68"	"042"	n/a	n/a	n/a	n/a	n/a	n/a	"fixation"	n/a	n/a	n/a	n/a	"NULL"	n/a	"NULL"	"NULL"	"NULL"	"<p style=\"color: black; font-size: 80px; padding-left: 48%; padding-right: 43%; padding-top: 27%; padding-bottom: 29%\">+</p>"	"1397"	n/a	n/a	n/a	n/a	n/a	n/a	n/a	n/a	n/a
n/a	"image-keyboard-response"	"66"	"7267616"	"0.0-5.0-2.0-1.6"	"7wwk4c"	"600"	"1366"	"chrome"	"110.0.0"	"FALSE"	"Windows 10"	"60.68"	"042"	n/a	n/a	n/a	n/a	n/a	n/a	"Trial"	n/a	n/a	n/a	"646"	"arrowleft"	n/a	"NULL"	"NULL"	"NULL"	"stimuli/VerticalHorizontal_11.78571_-0.1096.png"	n/a	"VerticalHorizontal"	"arrowright"	"1406"	"FALSE"	"VerticalHorizontal"	"11.785710000"	"-0.109600000"	"1"	"25"
n/a	"html-keyboard-response"	"67"	"7268875"	"0.0-5.0-2.0-0.7"	"7wwk4c"	"600"	"1366"	"chrome"	"110.0.0"	"FALSE"	"Windows 10"	"60.68"	"042"	n/a	n/a	n/a	n/a	n/a	n/a	"fixation"	n/a	n/a	n/a	n/a	"NULL"	n/a	"NULL"	"NULL"	"NULL"	"<p style=\"color: black; font-size: 80px; padding-left: 48%; padding-right: 41%; padding-top: 16%; padding-bottom: 2%\">+</p>"	"1251"	n/a	n/a	n/a	n/a	n/a	n/a	n/a	n/a	n/a
n/a	"image-keyboard-response"	"68"	"7269896"	"0.0-5.0-2.0-1.7"	"7wwk4c"	"600"	"1366"	"chrome"	"110.0.0"	"FALSE"	"Windows 10"	"60.68"	"042"	n/a	n/a	n/a	n/a	n/a	n/a	"Trial"	n/a	n/a	n/a	"1020"	"arrowright"	n/a	"NULL"	"NULL"	"NULL"	"stimuli/VerticalHorizontal_11.78571_-0.16217.png"	n/a	"VerticalHorizontal"	"arrowright"	"1259"	"TRUE"	"VerticalHorizontal"	"11.785710000"	"-0.162170000"	"1"	"26"
n/a	"html-keyboard-response"	"69"	"7271374"	"0.0-5.0-2.0-0.8"	"7wwk4c"	"600"	"1366"	"chrome"	"110.0.0"	"FALSE"	"Windows 10"	"60.68"	"042"	n/a	n/a	n/a	n/a	n/a	n/a	"fixation"	n/a	n/a	n/a	n/a	"NULL"	n/a	"NULL"	"NULL"	"NULL"	"<p style=\"color: black; font-size: 80px; padding-left: 34%; padding-right: 10%; padding-top: 33%; padding-bottom: 39%\">+</p>"	"1466"	n/a	n/a	n/a	n/a	n/a	n/a	n/a	n/a	n/a
n/a	"image-keyboard-response"	"70"	"7271959"	"0.0-5.0-2.0-1.8"	"7wwk4c"	"600"	"1366"	"chrome"	"110.0.0"	"FALSE"	"Windows 10"	"60.68"	"042"	n/a	n/a	n/a	n/a	n/a	n/a	"Trial"	n/a	n/a	n/a	"584"	"arrowright"	n/a	"NULL"	"NULL"	"NULL"	"stimuli/VerticalHorizontal_-11.78571_-0.2250.png"	n/a	"VerticalHorizontal"	"arrowright"	"1478"	"TRUE"	"VerticalHorizontal"	"-11.78571000"	"-0.225000000"	"1"	"27"
n/a	"html-keyboard-response"	"71"	"7273179"	"0.0-5.0-2.0-0.9"	"7wwk4c"	"600"	"1366"	"chrome"	"110.0.0"	"FALSE"	"Windows 10"	"60.68"	"042"	n/a	n/a	n/a	n/a	n/a	n/a	"fixation"	n/a	n/a	n/a	n/a	"NULL"	n/a	"NULL"	"NULL"	"NULL"	"<p style=\"color: black; font-size: 80px; padding-left: 3%; padding-right: 14%; padding-top: 48%; padding-bottom: 19%\">+</p>"	"1211"	n/a	n/a	n/a	n/a	n/a	n/a	n/a	n/a	n/a
n/a	"image-keyboard-response"	"72"	"7273915"	"0.0-5.0-2.0-1.9"	"7wwk4c"	"600"	"1366"	"chrome"	"110.0.0"	"FALSE"	"Windows 10"	"60.68"	"042"	n/a	n/a	n/a	n/a	n/a	n/a	"Trial"	n/a	n/a	n/a	"735"	"arrowleft"	n/a	"NULL"	"NULL"	"NULL"	"stimuli/VerticalHorizontal_28.75714_0.06730.png"	n/a	"VerticalHorizontal"	"arrowleft"	"1220"	"TRUE"	"VerticalHorizontal"	"28.757140000"	"0.0673000000"	"1"	"28"
n/a	"html-keyboard-response"	"73"	"7274988"	"0.0-5.0-2.0-0.10"	"7wwk4c"	"600"	"1366"	"chrome"	"110.0.0"	"FALSE"	"Windows 10"	"60.68"	"042"	n/a	n/a	n/a	n/a	n/a	n/a	"fixation"	n/a	n/a	n/a	n/a	"NULL"	n/a	"NULL"	"NULL"	"NULL"	"<p style=\"color: black; font-size: 80px; padding-left: 3%; padding-right: 10%; padding-top: 13%; padding-bottom: 8%\">+</p>"	"1070"	n/a	n/a	n/a	n/a	n/a	n/a	n/a	n/a	n/a
n/a	"image-keyboard-response"	"74"	"7275752"	"0.0-5.0-2.0-1.10"	"7wwk4c"	"600"	"1366"	"chrome"	"110.0.0"	"FALSE"	"Windows 10"	"60.68"	"042"	n/a	n/a	n/a	n/a	n/a	n/a	"Trial"	n/a	n/a	n/a	"763"	"arrowleft"	n/a	"NULL"	"NULL"	"NULL"	"stimuli/VerticalHorizontal_-3.3000_0.16217.png"	n/a	"VerticalHorizontal"	"arrowleft"	"1073"	"TRUE"	"VerticalHorizontal"	"-3.300000000"	"0.1621700000"	"1"	"29"
n/a	"html-keyboard-response"	"75"	"7276979"	"0.0-5.0-2.0-0.11"	"7wwk4c"	"600"	"1366"	"chrome"	"110.0.0"	"FALSE"	"Windows 10"	"60.68"	"042"	n/a	n/a	n/a	n/a	n/a	n/a	"fixation"	n/a	n/a	n/a	n/a	"NULL"	n/a	"NULL"	"NULL"	"NULL"	"<p style=\"color: black; font-size: 80px; padding-left: 27%; padding-right: 18%; padding-top: 45%; padding-bottom: 34%\">+</p>"	"1218"	n/a	n/a	n/a	n/a	n/a	n/a	n/a	n/a	n/a
n/a	"image-keyboard-response"	"76"	"7277708"	"0.0-5.0-2.0-1.11"	"7wwk4c"	"600"	"1366"	"chrome"	"110.0.0"	"FALSE"	"Windows 10"	"60.68"	"042"	n/a	n/a	n/a	n/a	n/a	n/a	"Trial"	n/a	n/a	n/a	"729"	"arrowright"	n/a	"NULL"	"NULL"	"NULL"	"stimuli/VerticalHorizontal_20.27143_0.06730.png"	n/a	"VerticalHorizontal"	"arrowleft"	"1227"	"FALSE"	"VerticalHorizontal"	"20.271430000"	"0.0673000000"	"1"	"30"
n/a	"html-keyboard-response"	"77"	"7278950"	"0.0-5.0-2.0-0.12"	"7wwk4c"	"600"	"1366"	"chrome"	"110.0.0"	"FALSE"	"Windows 10"	"60.68"	"042"	n/a	n/a	n/a	n/a	n/a	n/a	"fixation"	n/a	n/a	n/a	n/a	"NULL"	n/a	"NULL"	"NULL"	"NULL"	"<p style=\"color: black; font-size: 80px; padding-left: 40%; padding-right: 6%; padding-top: 11%; padding-bottom: 24%\">+</p>"	"1238"	n/a	n/a	n/a	n/a	n/a	n/a	n/a	n/a	n/a
n/a	"image-keyboard-response"	"78"	"7279682"	"0.0-5.0-2.0-1.12"	"7wwk4c"	"600"	"1366"	"chrome"	"110.0.0"	"FALSE"	"Windows 10"	"60.68"	"042"	n/a	n/a	n/a	n/a	n/a	n/a	"Trial"	n/a	n/a	n/a	"732"	"arrowleft"	n/a	"NULL"	"NULL"	"NULL"	"stimuli/VerticalHorizontal_-3.3000_0.06730.png"	n/a	"VerticalHorizontal"	"arrowleft"	"1242"	"TRUE"	"VerticalHorizontal"	"-3.300000000"	"0.0673000000"	"1"	"31"
n/a	"html-keyboard-response"	"79"	"7280948"	"0.0-5.0-2.0-0.13"	"7wwk4c"	"600"	"1366"	"chrome"	"110.0.0"	"FALSE"	"Windows 10"	"60.68"	"042"	n/a	n/a	n/a	n/a	n/a	n/a	"fixation"	n/a	n/a	n/a	n/a	"NULL"	n/a	"NULL"	"NULL"	"NULL"	"<p style=\"color: black; font-size: 80px; padding-left: 34%; padding-right: 27%; padding-top: 14%; padding-bottom: 35%\">+</p>"	"1252"	n/a	n/a	n/a	n/a	n/a	n/a	n/a	n/a	n/a
n/a	"image-keyboard-response"	"80"	"7281553"	"0.0-5.0-2.0-1.13"	"7wwk4c"	"600"	"1366"	"chrome"	"110.0.0"	"FALSE"	"Windows 10"	"60.68"	"042"	n/a	n/a	n/a	n/a	n/a	n/a	"Trial"	n/a	n/a	n/a	"605"	"arrowleft"	n/a	"NULL"	"NULL"	"NULL"	"stimuli/VerticalHorizontal_28.75714_-0.1096.png"	n/a	"VerticalHorizontal"	"arrowright"	"1266"	"FALSE"	"VerticalHorizontal"	"28.757140000"	"-0.109600000"	"1"	"32"
n/a	"html-keyboard-response"	"81"	"7282934"	"0.0-5.0-2.0-0.14"	"7wwk4c"	"600"	"1366"	"chrome"	"110.0.0"	"FALSE"	"Windows 10"	"60.68"	"042"	n/a	n/a	n/a	n/a	n/a	n/a	"fixation"	n/a	n/a	n/a	n/a	"NULL"	n/a	"NULL"	"NULL"	"NULL"	"<p style=\"color: black; font-size: 80px; padding-left: 21%; padding-right: 38%; padding-top: 13%; padding-bottom: 47%\">+</p>"	"1370"	n/a	n/a	n/a	n/a	n/a	n/a	n/a	n/a	n/a
n/a	"image-keyboard-response"	"82"	"7283475"	"0.0-5.0-2.0-1.14"	"7wwk4c"	"600"	"1366"	"chrome"	"110.0.0"	"FALSE"	"Windows 10"	"60.68"	"042"	n/a	n/a	n/a	n/a	n/a	n/a	"Trial"	n/a	n/a	n/a	"540"	"arrowright"	n/a	"NULL"	"NULL"	"NULL"	"stimuli/VerticalHorizontal_-3.3000_-0.16217.png"	n/a	"VerticalHorizontal"	"arrowright"	"1381"	"TRUE"	"VerticalHorizontal"	"-3.300000000"	"-0.162170000"	"1"	"33"
n/a	"html-keyboard-response"	"83"	"7284949"	"0.0-5.0-2.0-0.15"	"7wwk4c"	"600"	"1366"	"chrome"	"110.0.0"	"FALSE"	"Windows 10"	"60.68"	"042"	n/a	n/a	n/a	n/a	n/a	n/a	"fixation"	n/a	n/a	n/a	n/a	"NULL"	n/a	"NULL"	"NULL"	"NULL"	"<p style=\"color: black; font-size: 80px; padding-left: 44%; padding-right: 5%; padding-top: 32%; padding-bottom: 13%\">+</p>"	"1463"	n/a	n/a	n/a	n/a	n/a	n/a	n/a	n/a	n/a
n/a	"image-keyboard-response"	"84"	"7285637"	"0.0-5.0-2.0-1.15"	"7wwk4c"	"600"	"1366"	"chrome"	"110.0.0"	"FALSE"	"Windows 10"	"60.68"	"042"	n/a	n/a	n/a	n/a	n/a	n/a	"Trial"	n/a	n/a	n/a	"686"	"arrowleft"	n/a	"NULL"	"NULL"	"NULL"	"stimuli/VerticalHorizontal_11.78571_0.22500.png"	n/a	"VerticalHorizontal"	"arrowleft"	"1474"	"TRUE"	"VerticalHorizontal"	"11.785710000"	"0.2250000000"	"1"	"34"
n/a	"html-keyboard-response"	"85"	"7287077"	"0.0-5.0-2.0-0.16"	"7wwk4c"	"600"	"1366"	"chrome"	"110.0.0"	"FALSE"	"Windows 10"	"60.68"	"042"	n/a	n/a	n/a	n/a	n/a	n/a	"fixation"	n/a	n/a	n/a	n/a	"NULL"	n/a	"NULL"	"NULL"	"NULL"	"<p style=\"color: black; font-size: 80px; padding-left: 9%; padding-right: 46%; padding-top: 40%; padding-bottom: 34%\">+</p>"	"1439"	n/a	n/a	n/a	n/a	n/a	n/a	n/a	n/a	n/a
n/a	"image-keyboard-response"	"86"	"7287628"	"0.0-5.0-2.0-1.16"	"7wwk4c"	"600"	"1366"	"chrome"	"110.0.0"	"FALSE"	"Windows 10"	"60.68"	"042"	n/a	n/a	n/a	n/a	n/a	n/a	"Trial"	n/a	n/a	n/a	"551"	"arrowleft"	n/a	"NULL"	"NULL"	"NULL"	"stimuli/VerticalHorizontal_-28.75714_0.22500.png"	n/a	"VerticalHorizontal"	"arrowleft"	"1440"	"TRUE"	"VerticalHorizontal"	"-28.75714000"	"0.2250000000"	"1"	"35"
n/a	"html-keyboard-response"	"87"	"7289070"	"0.0-5.0-2.0-0.17"	"7wwk4c"	"600"	"1366"	"chrome"	"110.0.0"	"FALSE"	"Windows 10"	"60.68"	"042"	n/a	n/a	n/a	n/a	n/a	n/a	"fixation"	n/a	n/a	n/a	n/a	"NULL"	n/a	"NULL"	"NULL"	"NULL"	"<p style=\"color: black; font-size: 80px; padding-left: 16%; padding-right: 1%; padding-top: 49%; padding-bottom: 5%\">+</p>"	"1438"	n/a	n/a	n/a	n/a	n/a	n/a	n/a	n/a	n/a
n/a	"image-keyboard-response"	"88"	"7289850"	"0.0-5.0-2.0-1.17"	"7wwk4c"	"600"	"1366"	"chrome"	"110.0.0"	"FALSE"	"Windows 10"	"60.68"	"042"	n/a	n/a	n/a	n/a	n/a	n/a	"Trial"	n/a	n/a	n/a	"779"	"arrowright"	n/a	"NULL"	"NULL"	"NULL"	"stimuli/VerticalHorizontal_20.27143_0.10960.png"	n/a	"VerticalHorizontal"	"arrowleft"	"1442"	"FALSE"	"VerticalHorizontal"	"20.271430000"	"0.1096000000"	"1"	"36"
n/a	"html-keyboard-response"	"89"	"7290872"	"0.0-5.0-2.0-0.18"	"7wwk4c"	"600"	"1366"	"chrome"	"110.0.0"	"FALSE"	"Windows 10"	"60.68"	"042"	n/a	n/a	n/a	n/a	n/a	n/a	"fixation"	n/a	n/a	n/a	n/a	"NULL"	n/a	"NULL"	"NULL"	"NULL"	"<p style=\"color: black; font-size: 80px; padding-left: 18%; padding-right: 32%; padding-top: 19%; padding-bottom: 3%\">+</p>"	"1019"	n/a	n/a	n/a	n/a	n/a	n/a	n/a	n/a	n/a
n/a	"image-keyboard-response"	"90"	"7291498"	"0.0-5.0-2.0-1.18"	"7wwk4c"	"600"	"1366"	"chrome"	"110.0.0"	"FALSE"	"Windows 10"	"60.68"	"042"	n/a	n/a	n/a	n/a	n/a	n/a	"Trial"	n/a	n/a	n/a	"625"	"arrowright"	n/a	"NULL"	"NULL"	"NULL"	"stimuli/VerticalHorizontal_-20.27143_-0.16217.png"	n/a	"VerticalHorizontal"	"arrowright"	"1022"	"TRUE"	"VerticalHorizontal"	"-20.27143000"	"-0.162170000"	"1"	"37"
n/a	"html-keyboard-response"	"91"	"7292962"	"0.0-5.0-2.0-0.19"	"7wwk4c"	"600"	"1366"	"chrome"	"110.0.0"	"FALSE"	"Windows 10"	"60.68"	"042"	n/a	n/a	n/a	n/a	n/a	n/a	"fixation"	n/a	n/a	n/a	n/a	"NULL"	n/a	"NULL"	"NULL"	"NULL"	"<p style=\"color: black; font-size: 80px; padding-left: 48%; padding-right: 41%; padding-top: 28%; padding-bottom: 48%\">+</p>"	"1453"	n/a	n/a	n/a	n/a	n/a	n/a	n/a	n/a	n/a
n/a	"image-keyboard-response"	"92"	"7293551"	"0.0-5.0-2.0-1.19"	"7wwk4c"	"600"	"1366"	"chrome"	"110.0.0"	"FALSE"	"Windows 10"	"60.68"	"042"	n/a	n/a	n/a	n/a	n/a	n/a	"Trial"	n/a	n/a	n/a	"587"	"arrowleft"	n/a	"NULL"	"NULL"	"NULL"	"stimuli/VerticalHorizontal_-3.3000_0.22500.png"	n/a	"VerticalHorizontal"	"arrowleft"	"1464"	"TRUE"	"VerticalHorizontal"	"-3.300000000"	"0.2250000000"	"1"	"38"
n/a	"html-keyboard-response"	"93"	"7295031"	"0.0-5.0-2.0-0.20"	"7wwk4c"	"600"	"1366"	"chrome"	"110.0.0"	"FALSE"	"Windows 10"	"60.68"	"042"	n/a	n/a	n/a	n/a	n/a	n/a	"fixation"	n/a	n/a	n/a	n/a	"NULL"	n/a	"NULL"	"NULL"	"NULL"	"<p style=\"color: black; font-size: 80px; padding-left: 9%; padding-right: 17%; padding-top: 41%; padding-bottom: 43%\">+</p>"	"1475"	n/a	n/a	n/a	n/a	n/a	n/a	n/a	n/a	n/a
n/a	"image-keyboard-response"	"94"	"7295609"	"0.0-5.0-2.0-1.20"	"7wwk4c"	"600"	"1366"	"chrome"	"110.0.0"	"FALSE"	"Windows 10"	"60.68"	"042"	n/a	n/a	n/a	n/a	n/a	n/a	"Trial"	n/a	n/a	n/a	"577"	"arrowright"	n/a	"NULL"	"NULL"	"NULL"	"stimuli/VerticalHorizontal_-11.78571_-0.0673.png"	n/a	"VerticalHorizontal"	"arrowright"	"1480"	"TRUE"	"VerticalHorizontal"	"-11.78571000"	"-0.067300000"	"1"	"39"
n/a	"html-keyboard-response"	"95"	"7296695"	"0.0-5.0-2.0-0.21"	"7wwk4c"	"600"	"1366"	"chrome"	"110.0.0"	"FALSE"	"Windows 10"	"60.68"	"042"	n/a	n/a	n/a	n/a	n/a	n/a	"fixation"	n/a	n/a	n/a	n/a	"NULL"	n/a	"NULL"	"NULL"	"NULL"	"<p style=\"color: black; font-size: 80px; padding-left: 22%; padding-right: 36%; padding-top: 38%; padding-bottom: 6%\">+</p>"	"1075"	n/a	n/a	n/a	n/a	n/a	n/a	n/a	n/a	n/a
n/a	"image-keyboard-response"	"96"	"7297241"	"0.0-5.0-2.0-1.21"	"7wwk4c"	"600"	"1366"	"chrome"	"110.0.0"	"FALSE"	"Windows 10"	"60.68"	"042"	n/a	n/a	n/a	n/a	n/a	n/a	"Trial"	n/a	n/a	n/a	"545"	"arrowright"	n/a	"NULL"	"NULL"	"NULL"	"stimuli/VerticalHorizontal_-28.75714_-0.0673.png"	n/a	"VerticalHorizontal"	"arrowright"	"1086"	"TRUE"	"VerticalHorizontal"	"-28.75714000"	"-0.067300000"	"1"	"40"
n/a	"html-keyboard-response"	"97"	"7298348"	"0.0-5.0-2.0-0.22"	"7wwk4c"	"600"	"1366"	"chrome"	"110.0.0"	"FALSE"	"Windows 10"	"60.68"	"042"	n/a	n/a	n/a	n/a	n/a	n/a	"fixation"	n/a	n/a	n/a	n/a	"NULL"	n/a	"NULL"	"NULL"	"NULL"	"<p style=\"color: black; font-size: 80px; padding-left: 35%; padding-right: 45%; padding-top: 35%; padding-bottom: 41%\">+</p>"	"1097"	n/a	n/a	n/a	n/a	n/a	n/a	n/a	n/a	n/a
n/a	"image-keyboard-response"	"98"	"7299219"	"0.0-5.0-2.0-1.22"	"7wwk4c"	"600"	"1366"	"chrome"	"110.0.0"	"FALSE"	"Windows 10"	"60.68"	"042"	n/a	n/a	n/a	n/a	n/a	n/a	"Trial"	n/a	n/a	n/a	"869"	"arrowright"	n/a	"NULL"	"NULL"	"NULL"	"stimuli/VerticalHorizontal_28.75714_0.22500.png"	n/a	"VerticalHorizontal"	"arrowleft"	"1107"	"FALSE"	"VerticalHorizontal"	"28.757140000"	"0.2250000000"	"1"	"41"
n/a	"html-keyboard-response"	"99"	"7300611"	"0.0-5.0-2.0-0.23"	"7wwk4c"	"600"	"1366"	"chrome"	"110.0.0"	"FALSE"	"Windows 10"	"60.68"	"042"	n/a	n/a	n/a	n/a	n/a	n/a	"fixation"	n/a	n/a	n/a	n/a	"NULL"	n/a	"NULL"	"NULL"	"NULL"	"<p style=\"color: black; font-size: 80px; padding-left: 32%; padding-right: 37%; padding-top: 47%; padding-bottom: 40%\">+</p>"	"1379"	n/a	n/a	n/a	n/a	n/a	n/a	n/a	n/a	n/a
n/a	"image-keyboard-response"	"100"	"7301436"	"0.0-5.0-2.0-1.23"	"7wwk4c"	"600"	"1366"	"chrome"	"110.0.0"	"FALSE"	"Windows 10"	"60.68"	"042"	n/a	n/a	n/a	n/a	n/a	n/a	"Trial"	n/a	n/a	n/a	"823"	"arrowleft"	n/a	"NULL"	"NULL"	"NULL"	"stimuli/VerticalHorizontal_3.30000_0.06730.png"	n/a	"VerticalHorizontal"	"arrowleft"	"1392"	"TRUE"	"VerticalHorizontal"	"3.3000000000"	"0.0673000000"	"1"	"42"
n/a	"html-keyboard-response"	"101"	"7302591"	"0.0-5.0-2.0-0.24"	"7wwk4c"	"600"	"1366"	"chrome"	"110.0.0"	"FALSE"	"Windows 10"	"60.68"	"042"	n/a	n/a	n/a	n/a	n/a	n/a	"fixation"	n/a	n/a	n/a	n/a	"NULL"	n/a	"NULL"	"NULL"	"NULL"	"<p style=\"color: black; font-size: 80px; padding-left: 9%; padding-right: 34%; padding-top: 41%; padding-bottom: 8%\">+</p>"	"1142"	n/a	n/a	n/a	n/a	n/a	n/a	n/a	n/a	n/a
n/a	"image-keyboard-response"	"102"	"7303153"	"0.0-5.0-2.0-1.24"	"7wwk4c"	"600"	"1366"	"chrome"	"110.0.0"	"FALSE"	"Windows 10"	"60.68"	"042"	n/a	n/a	n/a	n/a	n/a	n/a	"Trial"	n/a	n/a	n/a	"561"	"arrowleft"	n/a	"NULL"	"NULL"	"NULL"	"stimuli/VerticalHorizontal_-20.27143_0.22500.png"	n/a	"VerticalHorizontal"	"arrowleft"	"1155"	"TRUE"	"VerticalHorizontal"	"-20.27143000"	"0.2250000000"	"1"	"43"
n/a	"html-keyboard-response"	"103"	"7304643"	"0.0-5.0-2.0-0.25"	"7wwk4c"	"600"	"1366"	"chrome"	"110.0.0"	"FALSE"	"Windows 10"	"60.68"	"042"	n/a	n/a	n/a	n/a	n/a	n/a	"fixation"	n/a	n/a	n/a	n/a	"NULL"	n/a	"NULL"	"NULL"	"NULL"	"<p style=\"color: black; font-size: 80px; padding-left: 35%; padding-right: 3%; padding-top: 14%; padding-bottom: 40%\">+</p>"	"1483"	n/a	n/a	n/a	n/a	n/a	n/a	n/a	n/a	n/a
n/a	"image-keyboard-response"	"104"	"7305128"	"0.0-5.0-2.0-1.25"	"7wwk4c"	"600"	"1366"	"chrome"	"110.0.0"	"FALSE"	"Windows 10"	"60.68"	"042"	n/a	n/a	n/a	n/a	n/a	n/a	"Trial"	n/a	n/a	n/a	"483"	"arrowright"	n/a	"NULL"	"NULL"	"NULL"	"stimuli/VerticalHorizontal_-28.75714_-0.2250.png"	n/a	"VerticalHorizontal"	"arrowright"	"1490"	"TRUE"	"VerticalHorizontal"	"-28.75714000"	"-0.225000000"	"1"	"44"
n/a	"html-keyboard-response"	"105"	"7306304"	"0.0-5.0-2.0-0.26"	"7wwk4c"	"600"	"1366"	"chrome"	"110.0.0"	"FALSE"	"Windows 10"	"60.68"	"042"	n/a	n/a	n/a	n/a	n/a	n/a	"fixation"	n/a	n/a	n/a	n/a	"NULL"	n/a	"NULL"	"NULL"	"NULL"	"<p style=\"color: black; font-size: 80px; padding-left: 9%; padding-right: 38%; padding-top: 0%; padding-bottom: 22%\">+</p>"	"1162"	n/a	n/a	n/a	n/a	n/a	n/a	n/a	n/a	n/a
n/a	"image-keyboard-response"	"106"	"7306820"	"0.0-5.0-2.0-1.26"	"7wwk4c"	"600"	"1366"	"chrome"	"110.0.0"	"FALSE"	"Windows 10"	"60.68"	"042"	n/a	n/a	n/a	n/a	n/a	n/a	"Trial"	n/a	n/a	n/a	"515"	"arrowleft"	n/a	"NULL"	"NULL"	"NULL"	"stimuli/VerticalHorizontal_-28.75714_0.16217.png"	n/a	"VerticalHorizontal"	"arrowleft"	"1176"	"TRUE"	"VerticalHorizontal"	"-28.75714000"	"0.1621700000"	"1"	"45"
n/a	"html-keyboard-response"	"107"	"7308239"	"0.0-5.0-2.0-0.27"	"7wwk4c"	"600"	"1366"	"chrome"	"110.0.0"	"FALSE"	"Windows 10"	"60.68"	"042"	n/a	n/a	n/a	n/a	n/a	n/a	"fixation"	n/a	n/a	n/a	n/a	"NULL"	n/a	"NULL"	"NULL"	"NULL"	"<p style=\"color: black; font-size: 80px; padding-left: 27%; padding-right: 40%; padding-top: 8%; padding-bottom: 7%\">+</p>"	"1415"	n/a	n/a	n/a	n/a	n/a	n/a	n/a	n/a	n/a
n/a	"image-keyboard-response"	"108"	"7309184"	"0.0-5.0-2.0-1.27"	"7wwk4c"	"600"	"1366"	"chrome"	"110.0.0"	"FALSE"	"Windows 10"	"60.68"	"042"	n/a	n/a	n/a	n/a	n/a	n/a	"Trial"	n/a	n/a	n/a	"944"	"arrowright"	n/a	"NULL"	"NULL"	"NULL"	"stimuli/VerticalHorizontal_28.75714_0.10960.png"	n/a	"VerticalHorizontal"	"arrowleft"	"1419"	"FALSE"	"VerticalHorizontal"	"28.757140000"	"0.1096000000"	"1"	"46"
n/a	"html-keyboard-response"	"109"	"7310373"	"0.0-5.0-2.0-0.28"	"7wwk4c"	"600"	"1366"	"chrome"	"110.0.0"	"FALSE"	"Windows 10"	"60.68"	"042"	n/a	n/a	n/a	n/a	n/a	n/a	"fixation"	n/a	n/a	n/a	n/a	"NULL"	n/a	"NULL"	"NULL"	"NULL"	"<p style=\"color: black; font-size: 80px; padding-left: 36%; padding-right: 27%; padding-top: 11%; padding-bottom: 33%\">+</p>"	"1173"	n/a	n/a	n/a	n/a	n/a	n/a	n/a	n/a	n/a
n/a	"image-keyboard-response"	"110"	"7311464"	"0.0-5.0-2.0-1.28"	"7wwk4c"	"600"	"1366"	"chrome"	"110.0.0"	"FALSE"	"Windows 10"	"60.68"	"042"	n/a	n/a	n/a	n/a	n/a	n/a	"Trial"	n/a	n/a	n/a	"1090"	"arrowleft"	n/a	"NULL"	"NULL"	"NULL"	"stimuli/VerticalHorizontal_11.78571_0.10960.png"	n/a	"VerticalHorizontal"	"arrowleft"	"1189"	"TRUE"	"VerticalHorizontal"	"11.785710000"	"0.1096000000"	"1"	"47"
n/a	"html-keyboard-response"	"111"	"7312874"	"0.0-5.0-2.0-0.29"	"7wwk4c"	"600"	"1366"	"chrome"	"110.0.0"	"FALSE"	"Windows 10"	"60.68"	"042"	n/a	n/a	n/a	n/a	n/a	n/a	"fixation"	n/a	n/a	n/a	n/a	"NULL"	n/a	"NULL"	"NULL"	"NULL"	"<p style=\"color: black; font-size: 80px; padding-left: 3%; padding-right: 48%; padding-top: 9%; padding-bottom: 18%\">+</p>"	"1408"	n/a	n/a	n/a	n/a	n/a	n/a	n/a	n/a	n/a
n/a	"image-keyboard-response"	"112"	"7313505"	"0.0-5.0-2.0-1.29"	"7wwk4c"	"600"	"1366"	"chrome"	"110.0.0"	"FALSE"	"Windows 10"	"60.68"	"042"	n/a	n/a	n/a	n/a	n/a	n/a	"Trial"	n/a	n/a	n/a	"631"	"arrowleft"	n/a	"NULL"	"NULL"	"NULL"	"stimuli/VerticalHorizontal_3.30000_0.16217.png"	n/a	"VerticalHorizontal"	"arrowleft"	"1410"	"TRUE"	"VerticalHorizontal"	"3.3000000000"	"0.1621700000"	"1"	"48"
n/a	"html-keyboard-response"	"113"	"7314783"	"0.0-5.0-2.0-0.30"	"7wwk4c"	"600"	"1366"	"chrome"	"110.0.0"	"FALSE"	"Windows 10"	"60.68"	"042"	n/a	n/a	n/a	n/a	n/a	n/a	"fixation"	n/a	n/a	n/a	n/a	"NULL"	n/a	"NULL"	"NULL"	"NULL"	"<p style=\"color: black; font-size: 80px; padding-left: 47%; padding-right: 3%; padding-top: 34%; padding-bottom: 22%\">+</p>"	"1276"	n/a	n/a	n/a	n/a	n/a	n/a	n/a	n/a	n/a
n/a	"image-keyboard-response"	"114"	"7315670"	"0.0-5.0-2.0-1.30"	"7wwk4c"	"600"	"1366"	"chrome"	"110.0.0"	"FALSE"	"Windows 10"	"60.68"	"042"	n/a	n/a	n/a	n/a	n/a	n/a	"Trial"	n/a	n/a	n/a	"886"	"arrowleft"	n/a	"NULL"	"NULL"	"NULL"	"stimuli/VerticalHorizontal_20.27143_0.16217.png"	n/a	"VerticalHorizontal"	"arrowleft"	"1278"	"TRUE"	"VerticalHorizontal"	"20.271430000"	"0.1621700000"	"1"	"49"
n/a	"html-keyboard-response"	"115"	"7317138"	"0.0-5.0-2.0-0.31"	"7wwk4c"	"600"	"1366"	"chrome"	"110.0.0"	"FALSE"	"Windows 10"	"60.68"	"042"	n/a	n/a	n/a	n/a	n/a	n/a	"fixation"	n/a	n/a	n/a	n/a	"NULL"	n/a	"NULL"	"NULL"	"NULL"	"<p style=\"color: black; font-size: 80px; padding-left: 3%; padding-right: 9%; padding-top: 20%; padding-bottom: 2%\">+</p>"	"1458"	n/a	n/a	n/a	n/a	n/a	n/a	n/a	n/a	n/a
n/a	"image-keyboard-response"	"116"	"7317729"	"0.0-5.0-2.0-1.31"	"7wwk4c"	"600"	"1366"	"chrome"	"110.0.0"	"FALSE"	"Windows 10"	"60.68"	"042"	n/a	n/a	n/a	n/a	n/a	n/a	"Trial"	n/a	n/a	n/a	"590"	"arrowright"	n/a	"NULL"	"NULL"	"NULL"	"stimuli/VerticalHorizontal_3.30000_-0.2250.png"	n/a	"VerticalHorizontal"	"arrowright"	"1468"	"TRUE"	"VerticalHorizontal"	"3.3000000000"	"-0.225000000"	"1"	"50"
n/a	"html-keyboard-response"	"117"	"7318820"	"0.0-5.0-2.0-0.32"	"7wwk4c"	"600"	"1366"	"chrome"	"110.0.0"	"FALSE"	"Windows 10"	"60.68"	"042"	n/a	n/a	n/a	n/a	n/a	n/a	"fixation"	n/a	n/a	n/a	n/a	"NULL"	n/a	"NULL"	"NULL"	"NULL"	"<p style=\"color: black; font-size: 80px; padding-left: 42%; padding-right: 32%; padding-top: 14%; padding-bottom: 43%\">+</p>"	"1088"	n/a	n/a	n/a	n/a	n/a	n/a	n/a	n/a	n/a
n/a	"image-keyboard-response"	"118"	"7319452"	"0.0-5.0-2.0-1.32"	"7wwk4c"	"600"	"1366"	"chrome"	"110.0.0"	"FALSE"	"Windows 10"	"60.68"	"042"	n/a	n/a	n/a	n/a	n/a	n/a	"Trial"	n/a	n/a	n/a	"631"	"arrowleft"	n/a	"NULL"	"NULL"	"NULL"	"stimuli/VerticalHorizontal_11.78571_0.16217.png"	n/a	"VerticalHorizontal"	"arrowleft"	"1091"	"TRUE"	"VerticalHorizontal"	"11.785710000"	"0.1621700000"	"1"	"51"
n/a	"html-keyboard-response"	"119"	"7320480"	"0.0-5.0-2.0-0.33"	"7wwk4c"	"600"	"1366"	"chrome"	"110.0.0"	"FALSE"	"Windows 10"	"60.68"	"042"	n/a	n/a	n/a	n/a	n/a	n/a	"fixation"	n/a	n/a	n/a	n/a	"NULL"	n/a	"NULL"	"NULL"	"NULL"	"<p style=\"color: black; font-size: 80px; padding-left: 18%; padding-right: 5%; padding-top: 25%; padding-bottom: 30%\">+</p>"	"1012"	n/a	n/a	n/a	n/a	n/a	n/a	n/a	n/a	n/a
n/a	"image-keyboard-response"	"120"	"7321291"	"0.0-5.0-2.0-1.33"	"7wwk4c"	"600"	"1366"	"chrome"	"110.0.0"	"FALSE"	"Windows 10"	"60.68"	"042"	n/a	n/a	n/a	n/a	n/a	n/a	"Trial"	n/a	n/a	n/a	"811"	"arrowleft"	n/a	"NULL"	"NULL"	"NULL"	"stimuli/VerticalHorizontal_20.27143_0.22500.png"	n/a	"VerticalHorizontal"	"arrowleft"	"1028"	"TRUE"	"VerticalHorizontal"	"20.271430000"	"0.2250000000"	"1"	"52"
n/a	"html-keyboard-response"	"121"	"7322654"	"0.0-5.0-2.0-0.34"	"7wwk4c"	"600"	"1366"	"chrome"	"110.0.0"	"FALSE"	"Windows 10"	"60.68"	"042"	n/a	n/a	n/a	n/a	n/a	n/a	"fixation"	n/a	n/a	n/a	n/a	"NULL"	n/a	"NULL"	"NULL"	"NULL"	"<p style=\"color: black; font-size: 80px; padding-left: 42%; padding-right: 8%; padding-top: 8%; padding-bottom: 30%\">+</p>"	"1349"	n/a	n/a	n/a	n/a	n/a	n/a	n/a	n/a	n/a
n/a	"image-keyboard-response"	"122"	"7323370"	"0.0-5.0-2.0-1.34"	"7wwk4c"	"600"	"1366"	"chrome"	"110.0.0"	"FALSE"	"Windows 10"	"60.68"	"042"	n/a	n/a	n/a	n/a	n/a	n/a	"Trial"	n/a	n/a	n/a	"716"	"arrowright"	n/a	"NULL"	"NULL"	"NULL"	"stimuli/VerticalHorizontal_11.78571_-0.2250.png"	n/a	"VerticalHorizontal"	"arrowright"	"1363"	"TRUE"	"VerticalHorizontal"	"11.785710000"	"-0.225000000"	"1"	"53"
n/a	"html-keyboard-response"	"123"	"7324855"	"0.0-5.0-2.0-0.35"	"7wwk4c"	"600"	"1366"	"chrome"	"110.0.0"	"FALSE"	"Windows 10"	"60.68"	"042"	n/a	n/a	n/a	n/a	n/a	n/a	"fixation"	n/a	n/a	n/a	n/a	"NULL"	n/a	"NULL"	"NULL"	"NULL"	"<p style=\"color: black; font-size: 80px; padding-left: 3%; padding-right: 15%; padding-top: 36%; padding-bottom: 12%\">+</p>"	"1478"	n/a	n/a	n/a	n/a	n/a	n/a	n/a	n/a	n/a
n/a	"image-keyboard-response"	"124"	"7325432"	"0.0-5.0-2.0-1.35"	"7wwk4c"	"600"	"1366"	"chrome"	"110.0.0"	"FALSE"	"Windows 10"	"60.68"	"042"	n/a	n/a	n/a	n/a	n/a	n/a	"Trial"	n/a	n/a	n/a	"576"	"arrowleft"	n/a	"NULL"	"NULL"	"NULL"	"stimuli/VerticalHorizontal_-20.27143_0.06730.png"	n/a	"VerticalHorizontal"	"arrowleft"	"1485"	"TRUE"	"VerticalHorizontal"	"-20.27143000"	"0.0673000000"	"1"	"54"
n/a	"html-keyboard-response"	"125"	"7326512"	"0.0-5.0-2.0-0.36"	"7wwk4c"	"600"	"1366"	"chrome"	"110.0.0"	"FALSE"	"Windows 10"	"60.68"	"042"	n/a	n/a	n/a	n/a	n/a	n/a	"fixation"	n/a	n/a	n/a	n/a	"NULL"	n/a	"NULL"	"NULL"	"NULL"	"<p style=\"color: black; font-size: 80px; padding-left: 23%; padding-right: 11%; padding-top: 36%; padding-bottom: 34%\">+</p>"	"1079"	n/a	n/a	n/a	n/a	n/a	n/a	n/a	n/a	n/a
n/a	"image-keyboard-response"	"126"	"7327070"	"0.0-5.0-2.0-1.36"	"7wwk4c"	"600"	"1366"	"chrome"	"110.0.0"	"FALSE"	"Windows 10"	"60.68"	"042"	n/a	n/a	n/a	n/a	n/a	n/a	"Trial"	n/a	n/a	n/a	"557"	"arrowleft"	n/a	"NULL"	"NULL"	"NULL"	"stimuli/VerticalHorizontal_-11.78571_0.22500.png"	n/a	"VerticalHorizontal"	"arrowleft"	"1080"	"TRUE"	"VerticalHorizontal"	"-11.78571000"	"0.2250000000"	"1"	"55"
n/a	"html-keyboard-response"	"127"	"7328477"	"0.0-5.0-2.0-0.37"	"7wwk4c"	"600"	"1366"	"chrome"	"110.0.0"	"FALSE"	"Windows 10"	"60.68"	"042"	n/a	n/a	n/a	n/a	n/a	n/a	"fixation"	n/a	n/a	n/a	n/a	"NULL"	n/a	"NULL"	"NULL"	"NULL"	"<p style=\"color: black; font-size: 80px; padding-left: 34%; padding-right: 1%; padding-top: 39%; padding-bottom: 13%\">+</p>"	"1392"	n/a	n/a	n/a	n/a	n/a	n/a	n/a	n/a	n/a
n/a	"image-keyboard-response"	"128"	"7328942"	"0.0-5.0-2.0-1.37"	"7wwk4c"	"600"	"1366"	"chrome"	"110.0.0"	"FALSE"	"Windows 10"	"60.68"	"042"	n/a	n/a	n/a	n/a	n/a	n/a	"Trial"	n/a	n/a	n/a	"464"	"arrowleft"	n/a	"NULL"	"NULL"	"NULL"	"stimuli/VerticalHorizontal_-20.27143_0.10960.png"	n/a	"VerticalHorizontal"	"arrowleft"	"1407"	"TRUE"	"VerticalHorizontal"	"-20.27143000"	"0.1096000000"	"1"	"56"
n/a	"html-keyboard-response"	"129"	"7330067"	"0.0-5.0-2.0-0.38"	"7wwk4c"	"600"	"1366"	"chrome"	"110.0.0"	"FALSE"	"Windows 10"	"60.68"	"042"	n/a	n/a	n/a	n/a	n/a	n/a	"fixation"	n/a	n/a	n/a	n/a	"NULL"	n/a	"NULL"	"NULL"	"NULL"	"<p style=\"color: black; font-size: 80px; padding-left: 34%; padding-right: 28%; padding-top: 40%; padding-bottom: 50%\">+</p>"	"1117"	n/a	n/a	n/a	n/a	n/a	n/a	n/a	n/a	n/a
n/a	"image-keyboard-response"	"130"	"7330701"	"0.0-5.0-2.0-1.38"	"7wwk4c"	"600"	"1366"	"chrome"	"110.0.0"	"FALSE"	"Windows 10"	"60.68"	"042"	n/a	n/a	n/a	n/a	n/a	n/a	"Trial"	n/a	n/a	n/a	"630"	"arrowright"	n/a	"NULL"	"NULL"	"NULL"	"stimuli/VerticalHorizontal_11.78571_-0.0673.png"	n/a	"VerticalHorizontal"	"arrowright"	"1125"	"TRUE"	"VerticalHorizontal"	"11.785710000"	"-0.067300000"	"1"	"57"
n/a	"html-keyboard-response"	"131"	"7331910"	"0.0-5.0-2.0-0.39"	"7wwk4c"	"600"	"1366"	"chrome"	"110.0.0"	"FALSE"	"Windows 10"	"60.68"	"042"	n/a	n/a	n/a	n/a	n/a	n/a	"fixation"	n/a	n/a	n/a	n/a	"NULL"	n/a	"NULL"	"NULL"	"NULL"	"<p style=\"color: black; font-size: 80px; padding-left: 26%; padding-right: 37%; padding-top: 6%; padding-bottom: 24%\">+</p>"	"1208"	n/a	n/a	n/a	n/a	n/a	n/a	n/a	n/a	n/a
n/a	"image-keyboard-response"	"132"	"7332524"	"0.0-5.0-2.0-1.39"	"7wwk4c"	"600"	"1366"	"chrome"	"110.0.0"	"FALSE"	"Windows 10"	"60.68"	"042"	n/a	n/a	n/a	n/a	n/a	n/a	"Trial"	n/a	n/a	n/a	"613"	"arrowleft"	n/a	"NULL"	"NULL"	"NULL"	"stimuli/VerticalHorizontal_28.75714_-0.16217.png"	n/a	"VerticalHorizontal"	"arrowright"	"1209"	"FALSE"	"VerticalHorizontal"	"28.757140000"	"-0.162170000"	"1"	"58"
n/a	"html-keyboard-response"	"133"	"7333591"	"0.0-5.0-2.0-0.40"	"7wwk4c"	"600"	"1366"	"chrome"	"110.0.0"	"FALSE"	"Windows 10"	"60.68"	"042"	n/a	n/a	n/a	n/a	n/a	n/a	"fixation"	n/a	n/a	n/a	n/a	"NULL"	n/a	"NULL"	"NULL"	"NULL"	"<p style=\"color: black; font-size: 80px; padding-left: 21%; padding-right: 22%; padding-top: 3%; padding-bottom: 37%\">+</p>"	"1058"	n/a	n/a	n/a	n/a	n/a	n/a	n/a	n/a	n/a
n/a	"image-keyboard-response"	"134"	"7335198"	"0.0-5.0-2.0-1.40"	"7wwk4c"	"600"	"1366"	"chrome"	"110.0.0"	"FALSE"	"Windows 10"	"60.68"	"042"	n/a	n/a	n/a	n/a	n/a	n/a	"Trial"	n/a	n/a	n/a	"1606"	"arrowleft"	n/a	"NULL"	"NULL"	"NULL"	"stimuli/VerticalHorizontal_-11.78571_0.10960.png"	n/a	"VerticalHorizontal"	"arrowleft"	"1067"	"TRUE"	"VerticalHorizontal"	"-11.78571000"	"0.1096000000"	"1"	"59"
n/a	"html-keyboard-response"	"135"	"7336589"	"0.0-5.0-2.0-0.41"	"7wwk4c"	"600"	"1366"	"chrome"	"110.0.0"	"FALSE"	"Windows 10"	"60.68"	"042"	n/a	n/a	n/a	n/a	n/a	n/a	"fixation"	n/a	n/a	n/a	n/a	"NULL"	n/a	"NULL"	"NULL"	"NULL"	"<p style=\"color: black; font-size: 80px; padding-left: 50%; padding-right: 49%; padding-top: 29%; padding-bottom: 45%\">+</p>"	"1389"	n/a	n/a	n/a	n/a	n/a	n/a	n/a	n/a	n/a
n/a	"image-keyboard-response"	"136"	"7337156"	"0.0-5.0-2.0-1.41"	"7wwk4c"	"600"	"1366"	"chrome"	"110.0.0"	"FALSE"	"Windows 10"	"60.68"	"042"	n/a	n/a	n/a	n/a	n/a	n/a	"Trial"	n/a	n/a	n/a	"566"	"arrowright"	n/a	"NULL"	"NULL"	"NULL"	"stimuli/VerticalHorizontal_-28.75714_-0.1096.png"	n/a	"VerticalHorizontal"	"arrowright"	"1391"	"TRUE"	"VerticalHorizontal"	"-28.75714000"	"-0.109600000"	"1"	"60"
n/a	"html-keyboard-response"	"137"	"7338270"	"0.0-5.0-2.0-0.42"	"7wwk4c"	"600"	"1366"	"chrome"	"110.0.0"	"FALSE"	"Windows 10"	"60.68"	"042"	n/a	n/a	n/a	n/a	n/a	n/a	"fixation"	n/a	n/a	n/a	n/a	"NULL"	n/a	"NULL"	"NULL"	"NULL"	"<p style=\"color: black; font-size: 80px; padding-left: 38%; padding-right: 23%; padding-top: 16%; padding-bottom: 3%\">+</p>"	"1108"	n/a	n/a	n/a	n/a	n/a	n/a	n/a	n/a	n/a
n/a	"image-keyboard-response"	"138"	"7340182"	"0.0-5.0-2.0-1.42"	"7wwk4c"	"600"	"1366"	"chrome"	"110.0.0"	"FALSE"	"Windows 10"	"60.68"	"042"	n/a	n/a	n/a	n/a	n/a	n/a	"Trial"	n/a	n/a	n/a	"1912"	"arrowright"	n/a	"NULL"	"NULL"	"NULL"	"stimuli/VerticalHorizontal_28.75714_-0.0673.png"	n/a	"VerticalHorizontal"	"arrowright"	"1114"	"TRUE"	"VerticalHorizontal"	"28.757140000"	"-0.067300000"	"1"	"61"
n/a	"html-keyboard-response"	"139"	"7341186"	"0.0-5.0-2.0-0.43"	"7wwk4c"	"600"	"1366"	"chrome"	"110.0.0"	"FALSE"	"Windows 10"	"60.68"	"042"	n/a	n/a	n/a	n/a	n/a	n/a	"fixation"	n/a	n/a	n/a	n/a	"NULL"	n/a	"NULL"	"NULL"	"NULL"	"<p style=\"color: black; font-size: 80px; padding-left: 26%; padding-right: 4%; padding-top: 45%; padding-bottom: 20%\">+</p>"	"1001"	n/a	n/a	n/a	n/a	n/a	n/a	n/a	n/a	n/a
n/a	"image-keyboard-response"	"140"	"7341789"	"0.0-5.0-2.0-1.43"	"7wwk4c"	"600"	"1366"	"chrome"	"110.0.0"	"FALSE"	"Windows 10"	"60.68"	"042"	n/a	n/a	n/a	n/a	n/a	n/a	"Trial"	n/a	n/a	n/a	"603"	"arrowright"	n/a	"NULL"	"NULL"	"NULL"	"stimuli/VerticalHorizontal_3.30000_-0.16217.png"	n/a	"VerticalHorizontal"	"arrowright"	"1004"	"TRUE"	"VerticalHorizontal"	"3.3000000000"	"-0.162170000"	"1"	"62"
n/a	"html-keyboard-response"	"141"	"7342942"	"0.0-5.0-2.0-0.44"	"7wwk4c"	"600"	"1366"	"chrome"	"110.0.0"	"FALSE"	"Windows 10"	"60.68"	"042"	n/a	n/a	n/a	n/a	n/a	n/a	"fixation"	n/a	n/a	n/a	n/a	"NULL"	n/a	"NULL"	"NULL"	"NULL"	"<p style=\"color: black; font-size: 80px; padding-left: 47%; padding-right: 22%; padding-top: 41%; padding-bottom: 7%\">+</p>"	"1146"	n/a	n/a	n/a	n/a	n/a	n/a	n/a	n/a	n/a
n/a	"image-keyboard-response"	"142"	"7343586"	"0.0-5.0-2.0-1.44"	"7wwk4c"	"600"	"1366"	"chrome"	"110.0.0"	"FALSE"	"Windows 10"	"60.68"	"042"	n/a	n/a	n/a	n/a	n/a	n/a	"Trial"	n/a	n/a	n/a	"644"	"arrowleft"	n/a	"NULL"	"NULL"	"NULL"	"stimuli/VerticalHorizontal_-11.78571_0.16217.png"	n/a	"VerticalHorizontal"	"arrowleft"	"1153"	"TRUE"	"VerticalHorizontal"	"-11.78571000"	"0.1621700000"	"1"	"63"
n/a	"html-keyboard-response"	"143"	"7344786"	"0.0-5.0-2.0-0.45"	"7wwk4c"	"600"	"1366"	"chrome"	"110.0.0"	"FALSE"	"Windows 10"	"60.68"	"042"	n/a	n/a	n/a	n/a	n/a	n/a	"fixation"	n/a	n/a	n/a	n/a	"NULL"	n/a	"NULL"	"NULL"	"NULL"	"<p style=\"color: black; font-size: 80px; padding-left: 28%; padding-right: 16%; padding-top: 4%; padding-bottom: 43%\">+</p>"	"1185"	n/a	n/a	n/a	n/a	n/a	n/a	n/a	n/a	n/a
n/a	"image-keyboard-response"	"144"	"7345362"	"0.0-5.0-2.0-1.45"	"7wwk4c"	"600"	"1366"	"chrome"	"110.0.0"	"FALSE"	"Windows 10"	"60.68"	"042"	n/a	n/a	n/a	n/a	n/a	n/a	"Trial"	n/a	n/a	n/a	"575"	"arrowright"	n/a	"NULL"	"NULL"	"NULL"	"stimuli/VerticalHorizontal_-11.78571_-0.1096.png"	n/a	"VerticalHorizontal"	"arrowright"	"1200"	"TRUE"	"VerticalHorizontal"	"-11.78571000"	"-0.109600000"	"1"	"64"
n/a	"html-keyboard-response"	"145"	"7346747"	"0.0-5.0-2.0-0.46"	"7wwk4c"	"600"	"1366"	"chrome"	"110.0.0"	"FALSE"	"Windows 10"	"60.68"	"042"	n/a	n/a	n/a	n/a	n/a	n/a	"fixation"	n/a	n/a	n/a	n/a	"NULL"	n/a	"NULL"	"NULL"	"NULL"	"<p style=\"color: black; font-size: 80px; padding-left: 15%; padding-right: 40%; padding-top: 44%; padding-bottom: 14%\">+</p>"	"1369"	n/a	n/a	n/a	n/a	n/a	n/a	n/a	n/a	n/a
n/a	"image-keyboard-response"	"146"	"7347219"	"0.0-5.0-2.0-1.46"	"7wwk4c"	"600"	"1366"	"chrome"	"110.0.0"	"FALSE"	"Windows 10"	"60.68"	"042"	n/a	n/a	n/a	n/a	n/a	n/a	"Trial"	n/a	n/a	n/a	"470"	"arrowright"	n/a	"NULL"	"NULL"	"NULL"	"stimuli/VerticalHorizontal_-11.78571_-0.16217.png"	n/a	"VerticalHorizontal"	"arrowright"	"1385"	"TRUE"	"VerticalHorizontal"	"-11.78571000"	"-0.162170000"	"1"	"65"
n/a	"html-keyboard-response"	"147"	"7348414"	"0.0-5.0-2.0-0.47"	"7wwk4c"	"600"	"1366"	"chrome"	"110.0.0"	"FALSE"	"Windows 10"	"60.68"	"042"	n/a	n/a	n/a	n/a	n/a	n/a	"fixation"	n/a	n/a	n/a	n/a	"NULL"	n/a	"NULL"	"NULL"	"NULL"	"<p style=\"color: black; font-size: 80px; padding-left: 24%; padding-right: 32%; padding-top: 13%; padding-bottom: 34%\">+</p>"	"1182"	n/a	n/a	n/a	n/a	n/a	n/a	n/a	n/a	n/a
n/a	"image-keyboard-response"	"148"	"7349225"	"0.0-5.0-2.0-1.47"	"7wwk4c"	"600"	"1366"	"chrome"	"110.0.0"	"FALSE"	"Windows 10"	"60.68"	"042"	n/a	n/a	n/a	n/a	n/a	n/a	"Trial"	n/a	n/a	n/a	"810"	"arrowleft"	n/a	"NULL"	"NULL"	"NULL"	"stimuli/VerticalHorizontal_3.30000_-0.0673.png"	n/a	"VerticalHorizontal"	"arrowright"	"1195"	"FALSE"	"VerticalHorizontal"	"3.3000000000"	"-0.067300000"	"1"	"66"
n/a	"html-keyboard-response"	"149"	"7350353"	"0.0-5.0-2.0-0.48"	"7wwk4c"	"600"	"1366"	"chrome"	"110.0.0"	"FALSE"	"Windows 10"	"60.68"	"042"	n/a	n/a	n/a	n/a	n/a	n/a	"fixation"	n/a	n/a	n/a	n/a	"NULL"	n/a	"NULL"	"NULL"	"NULL"	"<p style=\"color: black; font-size: 80px; padding-left: 25%; padding-right: 48%; padding-top: 30%; padding-bottom: 13%\">+</p>"	"1127"	n/a	n/a	n/a	n/a	n/a	n/a	n/a	n/a	n/a
n/a	"image-keyboard-response"	"150"	"7351252"	"0.0-5.0-2.0-1.48"	"7wwk4c"	"600"	"1366"	"chrome"	"110.0.0"	"FALSE"	"Windows 10"	"60.68"	"042"	n/a	n/a	n/a	n/a	n/a	n/a	"Trial"	n/a	n/a	n/a	"899"	"arrowleft"	n/a	"NULL"	"NULL"	"NULL"	"stimuli/VerticalHorizontal_3.30000_0.10960.png"	n/a	"VerticalHorizontal"	"arrowleft"	"1128"	"TRUE"	"VerticalHorizontal"	"3.3000000000"	"0.1096000000"	"1"	"67"
n/a	"html-keyboard-response"	"151"	"7352264"	"0.0-5.0-2.0-0.49"	"7wwk4c"	"600"	"1366"	"chrome"	"110.0.0"	"FALSE"	"Windows 10"	"60.68"	"042"	n/a	n/a	n/a	n/a	n/a	n/a	"fixation"	n/a	n/a	n/a	n/a	"NULL"	n/a	"NULL"	"NULL"	"NULL"	"<p style=\"color: black; font-size: 80px; padding-left: 19%; padding-right: 2%; padding-top: 37%; padding-bottom: 6%\">+</p>"	"1003"	n/a	n/a	n/a	n/a	n/a	n/a	n/a	n/a	n/a
n/a	"image-keyboard-response"	"152"	"7352590"	"0.0-5.0-2.0-1.49"	"7wwk4c"	"600"	"1366"	"chrome"	"110.0.0"	"FALSE"	"Windows 10"	"60.68"	"042"	n/a	n/a	n/a	n/a	n/a	n/a	"Trial"	n/a	n/a	n/a	"325"	"arrowright"	n/a	"NULL"	"NULL"	"NULL"	"stimuli/VerticalHorizontal_-3.3000_0.10960.png"	n/a	"VerticalHorizontal"	"arrowleft"	"1012"	"FALSE"	"VerticalHorizontal"	"-3.300000000"	"0.1096000000"	"1"	"68"
n/a	"html-keyboard-response"	"153"	"7353904"	"0.0-5.0-2.0-0.50"	"7wwk4c"	"600"	"1366"	"chrome"	"110.0.0"	"FALSE"	"Windows 10"	"60.68"	"042"	n/a	n/a	n/a	n/a	n/a	n/a	"fixation"	n/a	n/a	n/a	n/a	"NULL"	n/a	"NULL"	"NULL"	"NULL"	"<p style=\"color: black; font-size: 80px; padding-left: 44%; padding-right: 23%; padding-top: 19%; padding-bottom: 1%\">+</p>"	"1308"	n/a	n/a	n/a	n/a	n/a	n/a	n/a	n/a	n/a
n/a	"image-keyboard-response"	"154"	"7354525"	"0.0-5.0-2.0-1.50"	"7wwk4c"	"600"	"1366"	"chrome"	"110.0.0"	"FALSE"	"Windows 10"	"60.68"	"042"	n/a	n/a	n/a	n/a	n/a	n/a	"Trial"	n/a	n/a	n/a	"621"	"arrowright"	n/a	"NULL"	"NULL"	"NULL"	"stimuli/VerticalHorizontal_-3.3000_-0.0673.png"	n/a	"VerticalHorizontal"	"arrowright"	"1314"	"TRUE"	"VerticalHorizontal"	"-3.300000000"	"-0.067300000"	"1"	"69"
n/a	"html-keyboard-response"	"155"	"7355673"	"0.0-5.0-2.0-0.51"	"7wwk4c"	"600"	"1366"	"chrome"	"110.0.0"	"FALSE"	"Windows 10"	"60.68"	"042"	n/a	n/a	n/a	n/a	n/a	n/a	"fixation"	n/a	n/a	n/a	n/a	"NULL"	n/a	"NULL"	"NULL"	"NULL"	"<p style=\"color: black; font-size: 80px; padding-left: 12%; padding-right: 26%; padding-top: 14%; padding-bottom: 14%\">+</p>"	"1145"	n/a	n/a	n/a	n/a	n/a	n/a	n/a	n/a	n/a
n/a	"image-keyboard-response"	"156"	"7357071"	"0.0-5.0-2.0-1.51"	"7wwk4c"	"600"	"1366"	"chrome"	"110.0.0"	"FALSE"	"Windows 10"	"60.68"	"042"	n/a	n/a	n/a	n/a	n/a	n/a	"Trial"	n/a	n/a	n/a	"1398"	"arrowright"	n/a	"NULL"	"NULL"	"NULL"	"stimuli/VerticalHorizontal_20.27143_-0.1096.png"	n/a	"VerticalHorizontal"	"arrowright"	"1148"	"TRUE"	"VerticalHorizontal"	"20.271430000"	"-0.109600000"	"1"	"70"
n/a	"html-keyboard-response"	"157"	"7358575"	"0.0-5.0-2.0-0.52"	"7wwk4c"	"600"	"1366"	"chrome"	"110.0.0"	"FALSE"	"Windows 10"	"60.68"	"042"	n/a	n/a	n/a	n/a	n/a	n/a	"fixation"	n/a	n/a	n/a	n/a	"NULL"	n/a	"NULL"	"NULL"	"NULL"	"<p style=\"color: black; font-size: 80px; padding-left: 30%; padding-right: 14%; padding-top: 49%; padding-bottom: 27%\">+</p>"	"1493"	n/a	n/a	n/a	n/a	n/a	n/a	n/a	n/a	n/a
n/a	"image-keyboard-response"	"158"	"7359610"	"0.0-5.0-2.0-1.52"	"7wwk4c"	"600"	"1366"	"chrome"	"110.0.0"	"FALSE"	"Windows 10"	"60.68"	"042"	n/a	n/a	n/a	n/a	n/a	n/a	"Trial"	n/a	n/a	n/a	"1034"	"arrowright"	n/a	"NULL"	"NULL"	"NULL"	"stimuli/VerticalHorizontal_20.27143_-0.0673.png"	n/a	"VerticalHorizontal"	"arrowright"	"1504"	"TRUE"	"VerticalHorizontal"	"20.271430000"	"-0.067300000"	"1"	"71"
n/a	"html-keyboard-response"	"159"	"7360759"	"0.0-5.0-2.0-0.53"	"7wwk4c"	"600"	"1366"	"chrome"	"110.0.0"	"FALSE"	"Windows 10"	"60.68"	"042"	n/a	n/a	n/a	n/a	n/a	n/a	"fixation"	n/a	n/a	n/a	n/a	"NULL"	n/a	"NULL"	"NULL"	"NULL"	"<p style=\"color: black; font-size: 80px; padding-left: 47%; padding-right: 8%; padding-top: 16%; padding-bottom: 47%\">+</p>"	"1133"	n/a	n/a	n/a	n/a	n/a	n/a	n/a	n/a	n/a
n/a	"image-keyboard-response"	"160"	"7361369"	"0.0-5.0-2.0-1.53"	"7wwk4c"	"600"	"1366"	"chrome"	"110.0.0"	"FALSE"	"Windows 10"	"60.68"	"042"	n/a	n/a	n/a	n/a	n/a	n/a	"Trial"	n/a	n/a	n/a	"609"	"arrowleft"	n/a	"NULL"	"NULL"	"NULL"	"stimuli/VerticalHorizontal_-28.75714_0.10960.png"	n/a	"VerticalHorizontal"	"arrowleft"	"1149"	"TRUE"	"VerticalHorizontal"	"-28.75714000"	"0.1096000000"	"1"	"72"
n/a	"html-keyboard-response"	"161"	"7362506"	"0.0-5.0-2.0-0.54"	"7wwk4c"	"600"	"1366"	"chrome"	"110.0.0"	"FALSE"	"Windows 10"	"60.68"	"042"	n/a	n/a	n/a	n/a	n/a	n/a	"fixation"	n/a	n/a	n/a	n/a	"NULL"	n/a	"NULL"	"NULL"	"NULL"	"<p style=\"color: black; font-size: 80px; padding-left: 2%; padding-right: 29%; padding-top: 26%; padding-bottom: 32%\">+</p>"	"1132"	n/a	n/a	n/a	n/a	n/a	n/a	n/a	n/a	n/a
n/a	"image-keyboard-response"	"162"	"7363515"	"0.0-5.0-2.0-1.54"	"7wwk4c"	"600"	"1366"	"chrome"	"110.0.0"	"FALSE"	"Windows 10"	"60.68"	"042"	n/a	n/a	n/a	n/a	n/a	n/a	"Trial"	n/a	n/a	n/a	"1008"	"arrowright"	n/a	"NULL"	"NULL"	"NULL"	"stimuli/VerticalHorizontal_28.75714_0.16217.png"	n/a	"VerticalHorizontal"	"arrowleft"	"1137"	"FALSE"	"VerticalHorizontal"	"28.757140000"	"0.1621700000"	"1"	"73"
n/a	"html-keyboard-response"	"163"	"7364897"	"0.0-5.0-2.0-0.55"	"7wwk4c"	"600"	"1366"	"chrome"	"110.0.0"	"FALSE"	"Windows 10"	"60.68"	"042"	n/a	n/a	n/a	n/a	n/a	n/a	"fixation"	n/a	n/a	n/a	n/a	"NULL"	n/a	"NULL"	"NULL"	"NULL"	"<p style=\"color: black; font-size: 80px; padding-left: 30%; padding-right: 7%; padding-top: 47%; padding-bottom: 15%\">+</p>"	"1372"	n/a	n/a	n/a	n/a	n/a	n/a	n/a	n/a	n/a
n/a	"image-keyboard-response"	"164"	"7365338"	"0.0-5.0-2.0-1.55"	"7wwk4c"	"600"	"1366"	"chrome"	"110.0.0"	"FALSE"	"Windows 10"	"60.68"	"042"	n/a	n/a	n/a	n/a	n/a	n/a	"Trial"	n/a	n/a	n/a	"441"	"arrowright"	n/a	"NULL"	"NULL"	"NULL"	"stimuli/VerticalHorizontal_-20.27143_-0.0673.png"	n/a	"VerticalHorizontal"	"arrowright"	"1382"	"TRUE"	"VerticalHorizontal"	"-20.27143000"	"-0.067300000"	"1"	"74"
n/a	"html-keyboard-response"	"165"	"7366514"	"0.0-5.0-2.0-0.56"	"7wwk4c"	"600"	"1366"	"chrome"	"110.0.0"	"FALSE"	"Windows 10"	"60.68"	"042"	n/a	n/a	n/a	n/a	n/a	n/a	"fixation"	n/a	n/a	n/a	n/a	"NULL"	n/a	"NULL"	"NULL"	"NULL"	"<p style=\"color: black; font-size: 80px; padding-left: 37%; padding-right: 11%; padding-top: 42%; padding-bottom: 18%\">+</p>"	"1163"	n/a	n/a	n/a	n/a	n/a	n/a	n/a	n/a	n/a
n/a	"image-keyboard-response"	"166"	"7366928"	"0.0-5.0-2.0-1.56"	"7wwk4c"	"600"	"1366"	"chrome"	"110.0.0"	"FALSE"	"Windows 10"	"60.68"	"042"	n/a	n/a	n/a	n/a	n/a	n/a	"Trial"	n/a	n/a	n/a	"413"	"arrowright"	n/a	"NULL"	"NULL"	"NULL"	"stimuli/VerticalHorizontal_-28.75714_-0.16217.png"	n/a	"VerticalHorizontal"	"arrowright"	"1176"	"TRUE"	"VerticalHorizontal"	"-28.75714000"	"-0.162170000"	"1"	"75"
n/a	"html-keyboard-response"	"167"	"7368310"	"0.0-5.0-2.0-0.57"	"7wwk4c"	"600"	"1366"	"chrome"	"110.0.0"	"FALSE"	"Windows 10"	"60.68"	"042"	n/a	n/a	n/a	n/a	n/a	n/a	"fixation"	n/a	n/a	n/a	n/a	"NULL"	n/a	"NULL"	"NULL"	"NULL"	"<p style=\"color: black; font-size: 80px; padding-left: 19%; padding-right: 37%; padding-top: 32%; padding-bottom: 40%\">+</p>"	"1370"	n/a	n/a	n/a	n/a	n/a	n/a	n/a	n/a	n/a
n/a	"image-keyboard-response"	"168"	"7368802"	"0.0-5.0-2.0-1.57"	"7wwk4c"	"600"	"1366"	"chrome"	"110.0.0"	"FALSE"	"Windows 10"	"60.68"	"042"	n/a	n/a	n/a	n/a	n/a	n/a	"Trial"	n/a	n/a	n/a	"491"	"arrowleft"	n/a	"NULL"	"NULL"	"NULL"	"stimuli/VerticalHorizontal_-20.27143_0.16217.png"	n/a	"VerticalHorizontal"	"arrowleft"	"1382"	"TRUE"	"VerticalHorizontal"	"-20.27143000"	"0.1621700000"	"1"	"76"
n/a	"html-keyboard-response"	"169"	"7369812"	"0.0-5.0-2.0-0.58"	"7wwk4c"	"600"	"1366"	"chrome"	"110.0.0"	"FALSE"	"Windows 10"	"60.68"	"042"	n/a	n/a	n/a	n/a	n/a	n/a	"fixation"	n/a	n/a	n/a	n/a	"NULL"	n/a	"NULL"	"NULL"	"NULL"	"<p style=\"color: black; font-size: 80px; padding-left: 33%; padding-right: 33%; padding-top: 42%; padding-bottom: 4%\">+</p>"	"1000"	n/a	n/a	n/a	n/a	n/a	n/a	n/a	n/a	n/a
n/a	"image-keyboard-response"	"170"	"7370264"	"0.0-5.0-2.0-1.58"	"7wwk4c"	"600"	"1366"	"chrome"	"110.0.0"	"FALSE"	"Windows 10"	"60.68"	"042"	n/a	n/a	n/a	n/a	n/a	n/a	"Trial"	n/a	n/a	n/a	"452"	"arrowright"	n/a	"NULL"	"NULL"	"NULL"	"stimuli/VerticalHorizontal_11.78571_0.06730.png"	n/a	"VerticalHorizontal"	"arrowleft"	"1010"	"FALSE"	"VerticalHorizontal"	"11.785710000"	"0.0673000000"	"1"	"77"
n/a	"html-keyboard-response"	"171"	"7371294"	"0.0-5.0-2.0-0.59"	"7wwk4c"	"600"	"1366"	"chrome"	"110.0.0"	"FALSE"	"Windows 10"	"60.68"	"042"	n/a	n/a	n/a	n/a	n/a	n/a	"fixation"	n/a	n/a	n/a	n/a	"NULL"	n/a	"NULL"	"NULL"	"NULL"	"<p style=\"color: black; font-size: 80px; padding-left: 27%; padding-right: 27%; padding-top: 24%; padding-bottom: 18%\">+</p>"	"1025"	n/a	n/a	n/a	n/a	n/a	n/a	n/a	n/a	n/a
n/a	"image-keyboard-response"	"172"	"7372004"	"0.0-5.0-2.0-1.59"	"7wwk4c"	"600"	"1366"	"chrome"	"110.0.0"	"FALSE"	"Windows 10"	"60.68"	"042"	n/a	n/a	n/a	n/a	n/a	n/a	"Trial"	n/a	n/a	n/a	"709"	"arrowright"	n/a	"NULL"	"NULL"	"NULL"	"stimuli/VerticalHorizontal_20.27143_-0.16217.png"	n/a	"VerticalHorizontal"	"arrowright"	"1030"	"TRUE"	"VerticalHorizontal"	"20.271430000"	"-0.162170000"	"1"	"78"
n/a	"html-keyboard-response"	"173"	"7373090"	"0.0-5.0-2.0-0.60"	"7wwk4c"	"600"	"1366"	"chrome"	"110.0.0"	"FALSE"	"Windows 10"	"60.68"	"042"	n/a	n/a	n/a	n/a	n/a	n/a	"fixation"	n/a	n/a	n/a	n/a	"NULL"	n/a	"NULL"	"NULL"	"NULL"	"<p style=\"color: black; font-size: 80px; padding-left: 36%; padding-right: 44%; padding-top: 22%; padding-bottom: 22%\">+</p>"	"1081"	n/a	n/a	n/a	n/a	n/a	n/a	n/a	n/a	n/a
n/a	"image-keyboard-response"	"174"	"7373593"	"0.0-5.0-2.0-1.60"	"7wwk4c"	"600"	"1366"	"chrome"	"110.0.0"	"FALSE"	"Windows 10"	"60.68"	"042"	n/a	n/a	n/a	n/a	n/a	n/a	"Trial"	n/a	n/a	n/a	"502"	"arrowright"	n/a	"NULL"	"NULL"	"NULL"	"stimuli/VerticalHorizontal_20.27143_-0.2250.png"	n/a	"VerticalHorizontal"	"arrowright"	"1086"	"TRUE"	"VerticalHorizontal"	"20.271430000"	"-0.225000000"	"1"	"79"
n/a	"html-keyboard-response"	"175"	"7374655"	"0.0-5.0-2.0-0.61"	"7wwk4c"	"600"	"1366"	"chrome"	"110.0.0"	"FALSE"	"Windows 10"	"60.68"	"042"	n/a	n/a	n/a	n/a	n/a	n/a	"fixation"	n/a	n/a	n/a	n/a	"NULL"	n/a	"NULL"	"NULL"	"NULL"	"<p style=\"color: black; font-size: 80px; padding-left: 31%; padding-right: 3%; padding-top: 14%; padding-bottom: 3%\">+</p>"	"1049"	n/a	n/a	n/a	n/a	n/a	n/a	n/a	n/a	n/a
n/a	"image-keyboard-response"	"176"	"7375384"	"0.0-5.0-2.0-1.61"	"7wwk4c"	"600"	"1366"	"chrome"	"110.0.0"	"FALSE"	"Windows 10"	"60.68"	"042"	n/a	n/a	n/a	n/a	n/a	n/a	"Trial"	n/a	n/a	n/a	"729"	"arrowright"	n/a	"NULL"	"NULL"	"NULL"	"stimuli/VerticalHorizontal_28.75714_-0.2250.png"	n/a	"VerticalHorizontal"	"arrowright"	"1062"	"TRUE"	"VerticalHorizontal"	"28.757140000"	"-0.225000000"	"1"	"80"
n/a	"html-keyboard-response"	"177"	"7376468"	"0.0-5.0-2.0-0.62"	"7wwk4c"	"600"	"1366"	"chrome"	"110.0.0"	"FALSE"	"Windows 10"	"60.68"	"042"	n/a	n/a	n/a	n/a	n/a	n/a	"fixation"	n/a	n/a	n/a	n/a	"NULL"	n/a	"NULL"	"NULL"	"NULL"	"<p style=\"color: black; font-size: 80px; padding-left: 48%; padding-right: 20%; padding-top: 16%; padding-bottom: 40%\">+</p>"	"1079"	n/a	n/a	n/a	n/a	n/a	n/a	n/a	n/a	n/a
n/a	"image-keyboard-response"	"178"	"7377070"	"0.0-5.0-2.0-1.62"	"7wwk4c"	"600"	"1366"	"chrome"	"110.0.0"	"FALSE"	"Windows 10"	"60.68"	"042"	n/a	n/a	n/a	n/a	n/a	n/a	"Trial"	n/a	n/a	n/a	"602"	"arrowleft"	n/a	"NULL"	"NULL"	"NULL"	"stimuli/VerticalHorizontal_-11.78571_0.06730.png"	n/a	"VerticalHorizontal"	"arrowleft"	"1084"	"TRUE"	"VerticalHorizontal"	"-11.78571000"	"0.0673000000"	"1"	"81"
n/a	"html-keyboard-response"	"179"	"7378442"	"0.0-5.0-2.0-0.63"	"7wwk4c"	"600"	"1366"	"chrome"	"110.0.0"	"FALSE"	"Windows 10"	"60.68"	"042"	n/a	n/a	n/a	n/a	n/a	n/a	"fixation"	n/a	n/a	n/a	n/a	"NULL"	n/a	"NULL"	"NULL"	"NULL"	"<p style=\"color: black; font-size: 80px; padding-left: 2%; padding-right: 0%; padding-top: 43%; padding-bottom: 34%\">+</p>"	"1370"	n/a	n/a	n/a	n/a	n/a	n/a	n/a	n/a	n/a
n/a	"image-keyboard-response"	"180"	"7378864"	"0.0-5.0-2.0-1.63"	"7wwk4c"	"600"	"1366"	"chrome"	"110.0.0"	"FALSE"	"Windows 10"	"60.68"	"042"	n/a	n/a	n/a	n/a	n/a	n/a	"Trial"	n/a	n/a	n/a	"419"	"arrowright"	n/a	"NULL"	"NULL"	"NULL"	"stimuli/VerticalHorizontal_-20.27143_-0.2250.png"	n/a	"VerticalHorizontal"	"arrowright"	"1372"	"TRUE"	"VerticalHorizontal"	"-20.27143000"	"-0.225000000"	"1"	"82"
n/a	"html-button-response"	"181"	"7399901"	"0.0-5.0-3.0"	"7wwk4c"	"600"	"1366"	"chrome"	"110.0.0"	"FALSE"	"Windows 10"	"60.68"	"042"	n/a	n/a	n/a	n/a	n/a	n/a	"block_results"	n/a	n/a	n/a	"21035"	"0"	n/a	"NULL"	"NULL"	"NULL"	"<p>Your score for this illusion is <p style=\"color: black; font-size: 48px; font-weight: bold;\">76.1 %</p><hr><p>Can you do better in the next illusion?</p>"	n/a	n/a	n/a	n/a	n/a	n/a	n/a	n/a	n/a	n/a
"TRUE"	"preload"	"182"	"7400375"	"0.0-6.0-0.0"	"7wwk4c"	"600"	"1366"	"chrome"	"110.0.0"	"FALSE"	"Windows 10"	"60.68"	"042"	n/a	n/a	n/a	n/a	n/a	n/a	n/a	n/a	n/a	n/a	n/a	"NULL"	"FALSE"	"list()"	"list()"	"list()"	n/a	n/a	n/a	n/a	n/a	n/a	n/a	n/a	n/a	n/a	n/a
n/a	"html-keyboard-response"	"183"	"7404478"	"0.0-6.0-1.0"	"7wwk4c"	"600"	"1366"	"chrome"	"110.0.0"	"FALSE"	"Windows 10"	"60.68"	"042"	n/a	n/a	n/a	n/a	n/a	n/a	n/a	n/a	n/a	n/a	"4103"	"enter"	n/a	"NULL"	"NULL"	"NULL"	"<p><b>Part 2/6</b></p><p>In this part, two horizontal red lines will appear one above the other.</p><p>Your task is to select which <b>line is longer</b> in length as fast as you can, without making errors.</p><p>Don't get distracted by the surrounding black arrows at the end of the red lines!</p><p>Press <b>the UP or the DOWN arrow</b> to indicate where is the longer <b>red line.</b></p><div style='float: center'><img src='materials/instructions/MullerLyer_Demo.png' height='300'></img><p><img src='utils/answer/answer_updown_keyboard.PNG' height='150'></img></p><p class='small'>In this example, the correct answer is the <b>UP arrow</b>.</p></div><p>Are you ready? <b>Press ENTER to start</b></p>"	n/a	n/a	n/a	n/a	n/a	n/a	n/a	n/a	n/a	n/a
n/a	"html-keyboard-response"	"184"	"7406420"	"0.0-6.0-2.0-0.0"	"7wwk4c"	"600"	"1366"	"chrome"	"110.0.0"	"FALSE"	"Windows 10"	"60.68"	"042"	n/a	n/a	n/a	n/a	n/a	n/a	"fixation"	n/a	n/a	n/a	n/a	"NULL"	n/a	"NULL"	"NULL"	"NULL"	"<p style=\"color: black; font-size: 80px; padding-left: 6%; padding-right: 12%; padding-top: 4%; padding-bottom: 8%\">+</p>"	"1422"	n/a	n/a	n/a	n/a	n/a	n/a	n/a	n/a	n/a
n/a	"image-keyboard-response"	"185"	"7407396"	"0.0-6.0-2.0-1.0"	"7wwk4c"	"600"	"1366"	"chrome"	"110.0.0"	"FALSE"	"Windows 10"	"60.68"	"042"	n/a	n/a	n/a	n/a	n/a	n/a	"Trial"	n/a	n/a	n/a	"975"	"arrowup"	n/a	"NULL"	"NULL"	"NULL"	"stimuli/MullerLyer_-20.04286_0.23665.png"	n/a	"MullerLyer"	"arrowup"	"1942"	"TRUE"	"MullerLyer"	"-20.04286000"	"0.2366500000"	"2"	"1"
n/a	"html-keyboard-response"	"186"	"7408843"	"0.0-6.0-2.0-0.1"	"7wwk4c"	"600"	"1366"	"chrome"	"110.0.0"	"FALSE"	"Windows 10"	"60.68"	"042"	n/a	n/a	n/a	n/a	n/a	n/a	"fixation"	n/a	n/a	n/a	n/a	"NULL"	n/a	"NULL"	"NULL"	"NULL"	"<p style=\"color: black; font-size: 80px; padding-left: 38%; padding-right: 11%; padding-top: 7%; padding-bottom: 33%\">+</p>"	"1434"	n/a	n/a	n/a	n/a	n/a	n/a	n/a	n/a	n/a
n/a	"image-keyboard-response"	"187"	"7409497"	"0.0-6.0-2.0-1.1"	"7wwk4c"	"600"	"1366"	"chrome"	"110.0.0"	"FALSE"	"Windows 10"	"60.68"	"042"	n/a	n/a	n/a	n/a	n/a	n/a	"Trial"	n/a	n/a	n/a	"654"	"arrowup"	n/a	"NULL"	"NULL"	"NULL"	"stimuli/MullerLyer_-20.04286_0.07627.png"	n/a	"MullerLyer"	"arrowup"	"1447"	"TRUE"	"MullerLyer"	"-20.04286000"	"0.0762700000"	"2"	"2"
n/a	"html-keyboard-response"	"188"	"7410828"	"0.0-6.0-2.0-0.2"	"7wwk4c"	"600"	"1366"	"chrome"	"110.0.0"	"FALSE"	"Windows 10"	"60.68"	"042"	n/a	n/a	n/a	n/a	n/a	n/a	"fixation"	n/a	n/a	n/a	n/a	"NULL"	n/a	"NULL"	"NULL"	"NULL"	"<p style=\"color: black; font-size: 80px; padding-left: 21%; padding-right: 35%; padding-top: 24%; padding-bottom: 40%\">+</p>"	"1322"	n/a	n/a	n/a	n/a	n/a	n/a	n/a	n/a	n/a
n/a	"image-keyboard-response"	"189"	"7412066"	"0.0-6.0-2.0-1.2"	"7wwk4c"	"600"	"1366"	"chrome"	"110.0.0"	"FALSE"	"Windows 10"	"60.68"	"042"	n/a	n/a	n/a	n/a	n/a	n/a	"Trial"	n/a	n/a	n/a	"1237"	"arrowup"	n/a	"NULL"	"NULL"	"NULL"	"stimuli/MullerLyer_14.12857_0.35000.png"	n/a	"MullerLyer"	"arrowup"	"1331"	"TRUE"	"MullerLyer"	"14.128570000"	"0.3500000000"	"2"	"3"
n/a	"html-keyboard-response"	"190"	"7413572"	"0.0-6.0-2.0-0.3"	"7wwk4c"	"600"	"1366"	"chrome"	"110.0.0"	"FALSE"	"Windows 10"	"60.68"	"042"	n/a	n/a	n/a	n/a	n/a	n/a	"fixation"	n/a	n/a	n/a	n/a	"NULL"	n/a	"NULL"	"NULL"	"NULL"	"<p style=\"color: black; font-size: 80px; padding-left: 27%; padding-right: 41%; padding-top: 27%; padding-bottom: 11%\">+</p>"	"1495"	n/a	n/a	n/a	n/a	n/a	n/a	n/a	n/a	n/a
n/a	"image-keyboard-response"	"191"	"7414569"	"0.0-6.0-2.0-1.3"	"7wwk4c"	"600"	"1366"	"chrome"	"110.0.0"	"FALSE"	"Windows 10"	"60.68"	"042"	n/a	n/a	n/a	n/a	n/a	n/a	"Trial"	n/a	n/a	n/a	"996"	"arrowup"	n/a	"NULL"	"NULL"	"NULL"	"stimuli/MullerLyer_8.21429_0.14541.png"	n/a	"MullerLyer"	"arrowup"	"1506"	"TRUE"	"MullerLyer"	"8.2142900000"	"0.1454100000"	"2"	"4"
n/a	"html-keyboard-response"	"192"	"7416062"	"0.0-6.0-2.0-0.4"	"7wwk4c"	"600"	"1366"	"chrome"	"110.0.0"	"FALSE"	"Windows 10"	"60.68"	"042"	n/a	n/a	n/a	n/a	n/a	n/a	"fixation"	n/a	n/a	n/a	n/a	"NULL"	n/a	"NULL"	"NULL"	"NULL"	"<p style=\"color: black; font-size: 80px; padding-left: 38%; padding-right: 21%; padding-top: 9%; padding-bottom: 28%\">+</p>"	"1487"	n/a	n/a	n/a	n/a	n/a	n/a	n/a	n/a	n/a
n/a	"image-keyboard-response"	"193"	"7416659"	"0.0-6.0-2.0-1.4"	"7wwk4c"	"600"	"1366"	"chrome"	"110.0.0"	"FALSE"	"Windows 10"	"60.68"	"042"	n/a	n/a	n/a	n/a	n/a	n/a	"Trial"	n/a	n/a	n/a	"597"	"arrowdown"	n/a	"NULL"	"NULL"	"NULL"	"stimuli/MullerLyer_8.21429_-0.3500.png"	n/a	"MullerLyer"	"arrowdown"	"1493"	"TRUE"	"MullerLyer"	"8.2142900000"	"-0.350000000"	"2"	"5"
n/a	"html-keyboard-response"	"194"	"7417841"	"0.0-6.0-2.0-0.5"	"7wwk4c"	"600"	"1366"	"chrome"	"110.0.0"	"FALSE"	"Windows 10"	"60.68"	"042"	n/a	n/a	n/a	n/a	n/a	n/a	"fixation"	n/a	n/a	n/a	n/a	"NULL"	n/a	"NULL"	"NULL"	"NULL"	"<p style=\"color: black; font-size: 80px; padding-left: 33%; padding-right: 1%; padding-top: 37%; padding-bottom: 23%\">+</p>"	"1175"	n/a	n/a	n/a	n/a	n/a	n/a	n/a	n/a	n/a
n/a	"image-keyboard-response"	"195"	"7418685"	"0.0-6.0-2.0-1.5"	"7wwk4c"	"600"	"1366"	"chrome"	"110.0.0"	"FALSE"	"Windows 10"	"60.68"	"042"	n/a	n/a	n/a	n/a	n/a	n/a	"Trial"	n/a	n/a	n/a	"844"	"arrowdown"	n/a	"NULL"	"NULL"	"NULL"	"stimuli/MullerLyer_-2.3000_-0.14541.png"	n/a	"MullerLyer"	"arrowdown"	"1182"	"TRUE"	"MullerLyer"	"-2.300000000"	"-0.145410000"	"2"	"6"
n/a	"html-keyboard-response"	"196"	"7419855"	"0.0-6.0-2.0-0.6"	"7wwk4c"	"600"	"1366"	"chrome"	"110.0.0"	"FALSE"	"Windows 10"	"60.68"	"042"	n/a	n/a	n/a	n/a	n/a	n/a	"fixation"	n/a	n/a	n/a	n/a	"NULL"	n/a	"NULL"	"NULL"	"NULL"	"<p style=\"color: black; font-size: 80px; padding-left: 33%; padding-right: 49%; padding-top: 26%; padding-bottom: 42%\">+</p>"	"1159"	n/a	n/a	n/a	n/a	n/a	n/a	n/a	n/a	n/a
n/a	"image-keyboard-response"	"197"	"7420404"	"0.0-6.0-2.0-1.6"	"7wwk4c"	"600"	"1366"	"chrome"	"110.0.0"	"FALSE"	"Windows 10"	"60.68"	"042"	n/a	n/a	n/a	n/a	n/a	n/a	"Trial"	n/a	n/a	n/a	"548"	"arrowup"	n/a	"NULL"	"NULL"	"NULL"	"stimuli/MullerLyer_-14.12857_0.14541.png"	n/a	"MullerLyer"	"arrowup"	"1170"	"TRUE"	"MullerLyer"	"-14.12857000"	"0.1454100000"	"2"	"7"
n/a	"html-keyboard-response"	"198"	"7421799"	"0.0-6.0-2.0-0.7"	"7wwk4c"	"600"	"1366"	"chrome"	"110.0.0"	"FALSE"	"Windows 10"	"60.68"	"042"	n/a	n/a	n/a	n/a	n/a	n/a	"fixation"	n/a	n/a	n/a	n/a	"NULL"	n/a	"NULL"	"NULL"	"NULL"	"<p style=\"color: black; font-size: 80px; padding-left: 41%; padding-right: 29%; padding-top: 6%; padding-bottom: 49%\">+</p>"	"1381"	n/a	n/a	n/a	n/a	n/a	n/a	n/a	n/a	n/a
n/a	"image-keyboard-response"	"199"	"7422408"	"0.0-6.0-2.0-1.7"	"7wwk4c"	"600"	"1366"	"chrome"	"110.0.0"	"FALSE"	"Windows 10"	"60.68"	"042"	n/a	n/a	n/a	n/a	n/a	n/a	"Trial"	n/a	n/a	n/a	"608"	"arrowup"	n/a	"NULL"	"NULL"	"NULL"	"stimuli/MullerLyer_8.21429_0.35000.png"	n/a	"MullerLyer"	"arrowup"	"1395"	"TRUE"	"MullerLyer"	"8.2142900000"	"0.3500000000"	"2"	"8"
n/a	"html-keyboard-response"	"200"	"7423716"	"0.0-6.0-2.0-0.8"	"7wwk4c"	"600"	"1366"	"chrome"	"110.0.0"	"FALSE"	"Windows 10"	"60.68"	"042"	n/a	n/a	n/a	n/a	n/a	n/a	"fixation"	n/a	n/a	n/a	n/a	"NULL"	n/a	"NULL"	"NULL"	"NULL"	"<p style=\"color: black; font-size: 80px; padding-left: 22%; padding-right: 14%; padding-top: 16%; padding-bottom: 18%\">+</p>"	"1305"	n/a	n/a	n/a	n/a	n/a	n/a	n/a	n/a	n/a
n/a	"image-keyboard-response"	"201"	"7424398"	"0.0-6.0-2.0-1.8"	"7wwk4c"	"600"	"1366"	"chrome"	"110.0.0"	"FALSE"	"Windows 10"	"60.68"	"042"	n/a	n/a	n/a	n/a	n/a	n/a	"Trial"	n/a	n/a	n/a	"680"	"arrowdown"	n/a	"NULL"	"NULL"	"NULL"	"stimuli/MullerLyer_8.21429_-0.23665.png"	n/a	"MullerLyer"	"arrowdown"	"1308"	"TRUE"	"MullerLyer"	"8.2142900000"	"-0.236650000"	"2"	"9"
n/a	"html-keyboard-response"	"202"	"7425435"	"0.0-6.0-2.0-0.9"	"7wwk4c"	"600"	"1366"	"chrome"	"110.0.0"	"FALSE"	"Windows 10"	"60.68"	"042"	n/a	n/a	n/a	n/a	n/a	n/a	"fixation"	n/a	n/a	n/a	n/a	"NULL"	n/a	"NULL"	"NULL"	"NULL"	"<p style=\"color: black; font-size: 80px; padding-left: 33%; padding-right: 23%; padding-top: 37%; padding-bottom: 21%\">+</p>"	"1036"	n/a	n/a	n/a	n/a	n/a	n/a	n/a	n/a	n/a
n/a	"image-keyboard-response"	"203"	"7426014"	"0.0-6.0-2.0-1.9"	"7wwk4c"	"600"	"1366"	"chrome"	"110.0.0"	"FALSE"	"Windows 10"	"60.68"	"042"	n/a	n/a	n/a	n/a	n/a	n/a	"Trial"	n/a	n/a	n/a	"578"	"arrowup"	n/a	"NULL"	"NULL"	"NULL"	"stimuli/MullerLyer_-8.21429_0.35000.png"	n/a	"MullerLyer"	"arrowup"	"1037"	"TRUE"	"MullerLyer"	"-8.214290000"	"0.3500000000"	"2"	"10"
n/a	"html-keyboard-response"	"204"	"7427503"	"0.0-6.0-2.0-0.10"	"7wwk4c"	"600"	"1366"	"chrome"	"110.0.0"	"FALSE"	"Windows 10"	"60.68"	"042"	n/a	n/a	n/a	n/a	n/a	n/a	"fixation"	n/a	n/a	n/a	n/a	"NULL"	n/a	"NULL"	"NULL"	"NULL"	"<p style=\"color: black; font-size: 80px; padding-left: 27%; padding-right: 42%; padding-top: 49%; padding-bottom: 28%\">+</p>"	"1487"	n/a	n/a	n/a	n/a	n/a	n/a	n/a	n/a	n/a
n/a	"image-keyboard-response"	"205"	"7428101"	"0.0-6.0-2.0-1.10"	"7wwk4c"	"600"	"1366"	"chrome"	"110.0.0"	"FALSE"	"Windows 10"	"60.68"	"042"	n/a	n/a	n/a	n/a	n/a	n/a	"Trial"	n/a	n/a	n/a	"597"	"arrowup"	n/a	"NULL"	"NULL"	"NULL"	"stimuli/MullerLyer_-14.12857_0.07627.png"	n/a	"MullerLyer"	"arrowup"	"1489"	"TRUE"	"MullerLyer"	"-14.12857000"	"0.0762700000"	"2"	"11"
n/a	"html-keyboard-response"	"206"	"7429327"	"0.0-6.0-2.0-0.11"	"7wwk4c"	"600"	"1366"	"chrome"	"110.0.0"	"FALSE"	"Windows 10"	"60.68"	"042"	n/a	n/a	n/a	n/a	n/a	n/a	"fixation"	n/a	n/a	n/a	n/a	"NULL"	n/a	"NULL"	"NULL"	"NULL"	"<p style=\"color: black; font-size: 80px; padding-left: 10%; padding-right: 3%; padding-top: 30%; padding-bottom: 10%\">+</p>"	"1218"	n/a	n/a	n/a	n/a	n/a	n/a	n/a	n/a	n/a
n/a	"image-keyboard-response"	"207"	"7429907"	"0.0-6.0-2.0-1.11"	"7wwk4c"	"600"	"1366"	"chrome"	"110.0.0"	"FALSE"	"Windows 10"	"60.68"	"042"	n/a	n/a	n/a	n/a	n/a	n/a	"Trial"	n/a	n/a	n/a	"580"	"arrowup"	n/a	"NULL"	"NULL"	"NULL"	"stimuli/MullerLyer_-20.04286_0.14541.png"	n/a	"MullerLyer"	"arrowup"	"1226"	"TRUE"	"MullerLyer"	"-20.04286000"	"0.1454100000"	"2"	"12"
n/a	"html-keyboard-response"	"208"	"7431272"	"0.0-6.0-2.0-0.12"	"7wwk4c"	"600"	"1366"	"chrome"	"110.0.0"	"FALSE"	"Windows 10"	"60.68"	"042"	n/a	n/a	n/a	n/a	n/a	n/a	"fixation"	n/a	n/a	n/a	n/a	"NULL"	n/a	"NULL"	"NULL"	"NULL"	"<p style=\"color: black; font-size: 80px; padding-left: 47%; padding-right: 16%; padding-top: 3%; padding-bottom: 47%\">+</p>"	"1363"	n/a	n/a	n/a	n/a	n/a	n/a	n/a	n/a	n/a
n/a	"image-keyboard-response"	"209"	"7431823"	"0.0-6.0-2.0-1.12"	"7wwk4c"	"600"	"1366"	"chrome"	"110.0.0"	"FALSE"	"Windows 10"	"60.68"	"042"	n/a	n/a	n/a	n/a	n/a	n/a	"Trial"	n/a	n/a	n/a	"550"	"arrowdown"	n/a	"NULL"	"NULL"	"NULL"	"stimuli/MullerLyer_-14.12857_-0.07627.png"	n/a	"MullerLyer"	"arrowdown"	"1365"	"TRUE"	"MullerLyer"	"-14.12857000"	"-0.076270000"	"2"	"13"
n/a	"html-keyboard-response"	"210"	"7433030"	"0.0-6.0-2.0-0.13"	"7wwk4c"	"600"	"1366"	"chrome"	"110.0.0"	"FALSE"	"Windows 10"	"60.68"	"042"	n/a	n/a	n/a	n/a	n/a	n/a	"fixation"	n/a	n/a	n/a	n/a	"NULL"	n/a	"NULL"	"NULL"	"NULL"	"<p style=\"color: black; font-size: 80px; padding-left: 18%; padding-right: 28%; padding-top: 42%; padding-bottom: 30%\">+</p>"	"1201"	n/a	n/a	n/a	n/a	n/a	n/a	n/a	n/a	n/a
n/a	"image-keyboard-response"	"211"	"7433755"	"0.0-6.0-2.0-1.13"	"7wwk4c"	"600"	"1366"	"chrome"	"110.0.0"	"FALSE"	"Windows 10"	"60.68"	"042"	n/a	n/a	n/a	n/a	n/a	n/a	"Trial"	n/a	n/a	n/a	"725"	"arrowdown"	n/a	"NULL"	"NULL"	"NULL"	"stimuli/MullerLyer_-2.3000_-0.23665.png"	n/a	"MullerLyer"	"arrowdown"	"1207"	"TRUE"	"MullerLyer"	"-2.300000000"	"-0.236650000"	"2"	"14"
n/a	"html-keyboard-response"	"212"	"7435088"	"0.0-6.0-2.0-0.14"	"7wwk4c"	"600"	"1366"	"chrome"	"110.0.0"	"FALSE"	"Windows 10"	"60.68"	"042"	n/a	n/a	n/a	n/a	n/a	n/a	"fixation"	n/a	n/a	n/a	n/a	"NULL"	n/a	"NULL"	"NULL"	"NULL"	"<p style=\"color: black; font-size: 80px; padding-left: 48%; padding-right: 16%; padding-top: 46%; padding-bottom: 1%\">+</p>"	"1321"	n/a	n/a	n/a	n/a	n/a	n/a	n/a	n/a	n/a
n/a	"image-keyboard-response"	"213"	"7435646"	"0.0-6.0-2.0-1.14"	"7wwk4c"	"600"	"1366"	"chrome"	"110.0.0"	"FALSE"	"Windows 10"	"60.68"	"042"	n/a	n/a	n/a	n/a	n/a	n/a	"Trial"	n/a	n/a	n/a	"557"	"arrowdown"	n/a	"NULL"	"NULL"	"NULL"	"stimuli/MullerLyer_-8.21429_-0.23665.png"	n/a	"MullerLyer"	"arrowdown"	"1333"	"TRUE"	"MullerLyer"	"-8.214290000"	"-0.236650000"	"2"	"15"
n/a	"html-keyboard-response"	"214"	"7437122"	"0.0-6.0-2.0-0.15"	"7wwk4c"	"600"	"1366"	"chrome"	"110.0.0"	"FALSE"	"Windows 10"	"60.68"	"042"	n/a	n/a	n/a	n/a	n/a	n/a	"fixation"	n/a	n/a	n/a	n/a	"NULL"	n/a	"NULL"	"NULL"	"NULL"	"<p style=\"color: black; font-size: 80px; padding-left: 48%; padding-right: 14%; padding-top: 14%; padding-bottom: 44%\">+</p>"	"1468"	n/a	n/a	n/a	n/a	n/a	n/a	n/a	n/a	n/a
n/a	"image-keyboard-response"	"215"	"7437618"	"0.0-6.0-2.0-1.15"	"7wwk4c"	"600"	"1366"	"chrome"	"110.0.0"	"FALSE"	"Windows 10"	"60.68"	"042"	n/a	n/a	n/a	n/a	n/a	n/a	"Trial"	n/a	n/a	n/a	"495"	"arrowdown"	n/a	"NULL"	"NULL"	"NULL"	"stimuli/MullerLyer_-20.04286_-0.14541.png"	n/a	"MullerLyer"	"arrowdown"	"1476"	"TRUE"	"MullerLyer"	"-20.04286000"	"-0.145410000"	"2"	"16"
n/a	"html-keyboard-response"	"216"	"7438925"	"0.0-6.0-2.0-0.16"	"7wwk4c"	"600"	"1366"	"chrome"	"110.0.0"	"FALSE"	"Windows 10"	"60.68"	"042"	n/a	n/a	n/a	n/a	n/a	n/a	"fixation"	n/a	n/a	n/a	n/a	"NULL"	n/a	"NULL"	"NULL"	"NULL"	"<p style=\"color: black; font-size: 80px; padding-left: 2%; padding-right: 17%; padding-top: 6%; padding-bottom: 41%\">+</p>"	"1297"	n/a	n/a	n/a	n/a	n/a	n/a	n/a	n/a	n/a
n/a	"image-keyboard-response"	"217"	"7439787"	"0.0-6.0-2.0-1.16"	"7wwk4c"	"600"	"1366"	"chrome"	"110.0.0"	"FALSE"	"Windows 10"	"60.68"	"042"	n/a	n/a	n/a	n/a	n/a	n/a	"Trial"	n/a	n/a	n/a	"859"	"arrowup"	n/a	"NULL"	"NULL"	"NULL"	"stimuli/MullerLyer_20.04286_-0.3500.png"	n/a	"MullerLyer"	"arrowdown"	"1307"	"FALSE"	"MullerLyer"	"20.042860000"	"-0.350000000"	"2"	"17"
n/a	"html-keyboard-response"	"218"	"7441267"	"0.0-6.0-2.0-0.17"	"7wwk4c"	"600"	"1366"	"chrome"	"110.0.0"	"FALSE"	"Windows 10"	"60.68"	"042"	n/a	n/a	n/a	n/a	n/a	n/a	"fixation"	n/a	n/a	n/a	n/a	"NULL"	n/a	"NULL"	"NULL"	"NULL"	"<p style=\"color: black; font-size: 80px; padding-left: 22%; padding-right: 2%; padding-top: 22%; padding-bottom: 49%\">+</p>"	"1465"	n/a	n/a	n/a	n/a	n/a	n/a	n/a	n/a	n/a
n/a	"image-keyboard-response"	"219"	"7441971"	"0.0-6.0-2.0-1.17"	"7wwk4c"	"600"	"1366"	"chrome"	"110.0.0"	"FALSE"	"Windows 10"	"60.68"	"042"	n/a	n/a	n/a	n/a	n/a	n/a	"Trial"	n/a	n/a	n/a	"703"	"arrowup"	n/a	"NULL"	"NULL"	"NULL"	"stimuli/MullerLyer_-2.3000_0.23665.png"	n/a	"MullerLyer"	"arrowup"	"1480"	"TRUE"	"MullerLyer"	"-2.300000000"	"0.2366500000"	"2"	"18"
n/a	"html-keyboard-response"	"220"	"7443037"	"0.0-6.0-2.0-0.18"	"7wwk4c"	"600"	"1366"	"chrome"	"110.0.0"	"FALSE"	"Windows 10"	"60.68"	"042"	n/a	n/a	n/a	n/a	n/a	n/a	"fixation"	n/a	n/a	n/a	n/a	"NULL"	n/a	"NULL"	"NULL"	"NULL"	"<p style=\"color: black; font-size: 80px; padding-left: 12%; padding-right: 30%; padding-top: 19%; padding-bottom: 39%\">+</p>"	"1061"	n/a	n/a	n/a	n/a	n/a	n/a	n/a	n/a	n/a
n/a	"image-keyboard-response"	"221"	"7444024"	"0.0-6.0-2.0-1.18"	"7wwk4c"	"600"	"1366"	"chrome"	"110.0.0"	"FALSE"	"Windows 10"	"60.68"	"042"	n/a	n/a	n/a	n/a	n/a	n/a	"Trial"	n/a	n/a	n/a	"986"	"arrowup"	n/a	"NULL"	"NULL"	"NULL"	"stimuli/MullerLyer_14.12857_-0.14541.png"	n/a	"MullerLyer"	"arrowdown"	"1066"	"FALSE"	"MullerLyer"	"14.128570000"	"-0.145410000"	"2"	"19"
n/a	"html-keyboard-response"	"222"	"7445215"	"0.0-6.0-2.0-0.19"	"7wwk4c"	"600"	"1366"	"chrome"	"110.0.0"	"FALSE"	"Windows 10"	"60.68"	"042"	n/a	n/a	n/a	n/a	n/a	n/a	"fixation"	n/a	n/a	n/a	n/a	"NULL"	n/a	"NULL"	"NULL"	"NULL"	"<p style=\"color: black; font-size: 80px; padding-left: 14%; padding-right: 13%; padding-top: 12%; padding-bottom: 2%\">+</p>"	"1176"	n/a	n/a	n/a	n/a	n/a	n/a	n/a	n/a	n/a
n/a	"image-keyboard-response"	"223"	"7445833"	"0.0-6.0-2.0-1.19"	"7wwk4c"	"600"	"1366"	"chrome"	"110.0.0"	"FALSE"	"Windows 10"	"60.68"	"042"	n/a	n/a	n/a	n/a	n/a	n/a	"Trial"	n/a	n/a	n/a	"617"	"arrowup"	n/a	"NULL"	"NULL"	"NULL"	"stimuli/MullerLyer_20.04286_-0.07627.png"	n/a	"MullerLyer"	"arrowdown"	"1191"	"FALSE"	"MullerLyer"	"20.042860000"	"-0.076270000"	"2"	"20"
n/a	"html-keyboard-response"	"224"	"7447294"	"0.0-6.0-2.0-0.20"	"7wwk4c"	"600"	"1366"	"chrome"	"110.0.0"	"FALSE"	"Windows 10"	"60.68"	"042"	n/a	n/a	n/a	n/a	n/a	n/a	"fixation"	n/a	n/a	n/a	n/a	"NULL"	n/a	"NULL"	"NULL"	"NULL"	"<p style=\"color: black; font-size: 80px; padding-left: 25%; padding-right: 49%; padding-top: 13%; padding-bottom: 23%\">+</p>"	"1453"	n/a	n/a	n/a	n/a	n/a	n/a	n/a	n/a	n/a
n/a	"image-keyboard-response"	"225"	"7448267"	"0.0-6.0-2.0-1.20"	"7wwk4c"	"600"	"1366"	"chrome"	"110.0.0"	"FALSE"	"Windows 10"	"60.68"	"042"	n/a	n/a	n/a	n/a	n/a	n/a	"Trial"	n/a	n/a	n/a	"972"	"arrowup"	n/a	"NULL"	"NULL"	"NULL"	"stimuli/MullerLyer_14.12857_0.23665.png"	n/a	"MullerLyer"	"arrowup"	"1461"	"TRUE"	"MullerLyer"	"14.128570000"	"0.2366500000"	"2"	"21"
n/a	"html-keyboard-response"	"226"	"7449494"	"0.0-6.0-2.0-0.21"	"7wwk4c"	"600"	"1366"	"chrome"	"110.0.0"	"FALSE"	"Windows 10"	"60.68"	"042"	n/a	n/a	n/a	n/a	n/a	n/a	"fixation"	n/a	n/a	n/a	n/a	"NULL"	n/a	"NULL"	"NULL"	"NULL"	"<p style=\"color: black; font-size: 80px; padding-left: 6%; padding-right: 40%; padding-top: 38%; padding-bottom: 8%\">+</p>"	"1216"	n/a	n/a	n/a	n/a	n/a	n/a	n/a	n/a	n/a
n/a	"image-keyboard-response"	"227"	"7451188"	"0.0-6.0-2.0-1.21"	"7wwk4c"	"600"	"1366"	"chrome"	"110.0.0"	"FALSE"	"Windows 10"	"60.68"	"042"	n/a	n/a	n/a	n/a	n/a	n/a	"Trial"	n/a	n/a	n/a	"1693"	"arrowdown"	n/a	"NULL"	"NULL"	"NULL"	"stimuli/MullerLyer_2.30000_-0.07627.png"	n/a	"MullerLyer"	"arrowdown"	"1227"	"TRUE"	"MullerLyer"	"2.3000000000"	"-0.076270000"	"2"	"22"
n/a	"html-keyboard-response"	"228"	"7452403"	"0.0-6.0-2.0-0.22"	"7wwk4c"	"600"	"1366"	"chrome"	"110.0.0"	"FALSE"	"Windows 10"	"60.68"	"042"	n/a	n/a	n/a	n/a	n/a	n/a	"fixation"	n/a	n/a	n/a	n/a	"NULL"	n/a	"NULL"	"NULL"	"NULL"	"<p style=\"color: black; font-size: 80px; padding-left: 39%; padding-right: 38%; padding-top: 12%; padding-bottom: 16%\">+</p>"	"1208"	n/a	n/a	n/a	n/a	n/a	n/a	n/a	n/a	n/a
n/a	"image-keyboard-response"	"229"	"7452959"	"0.0-6.0-2.0-1.22"	"7wwk4c"	"600"	"1366"	"chrome"	"110.0.0"	"FALSE"	"Windows 10"	"60.68"	"042"	n/a	n/a	n/a	n/a	n/a	n/a	"Trial"	n/a	n/a	n/a	"555"	"arrowup"	n/a	"NULL"	"NULL"	"NULL"	"stimuli/MullerLyer_2.30000_0.35000.png"	n/a	"MullerLyer"	"arrowup"	"1215"	"TRUE"	"MullerLyer"	"2.3000000000"	"0.3500000000"	"2"	"23"
n/a	"html-keyboard-response"	"230"	"7454029"	"0.0-6.0-2.0-0.23"	"7wwk4c"	"600"	"1366"	"chrome"	"110.0.0"	"FALSE"	"Windows 10"	"60.68"	"042"	n/a	n/a	n/a	n/a	n/a	n/a	"fixation"	n/a	n/a	n/a	n/a	"NULL"	n/a	"NULL"	"NULL"	"NULL"	"<p style=\"color: black; font-size: 80px; padding-left: 34%; padding-right: 8%; padding-top: 8%; padding-bottom: 6%\">+</p>"	"1059"	n/a	n/a	n/a	n/a	n/a	n/a	n/a	n/a	n/a
n/a	"image-keyboard-response"	"231"	"7454782"	"0.0-6.0-2.0-1.23"	"7wwk4c"	"600"	"1366"	"chrome"	"110.0.0"	"FALSE"	"Windows 10"	"60.68"	"042"	n/a	n/a	n/a	n/a	n/a	n/a	"Trial"	n/a	n/a	n/a	"751"	"arrowup"	n/a	"NULL"	"NULL"	"NULL"	"stimuli/MullerLyer_-8.21429_0.14541.png"	n/a	"MullerLyer"	"arrowup"	"1070"	"TRUE"	"MullerLyer"	"-8.214290000"	"0.1454100000"	"2"	"24"
n/a	"html-keyboard-response"	"232"	"7455797"	"0.0-6.0-2.0-0.24"	"7wwk4c"	"600"	"1366"	"chrome"	"110.0.0"	"FALSE"	"Windows 10"	"60.68"	"042"	n/a	n/a	n/a	n/a	n/a	n/a	"fixation"	n/a	n/a	n/a	n/a	"NULL"	n/a	"NULL"	"NULL"	"NULL"	"<p style=\"color: black; font-size: 80px; padding-left: 32%; padding-right: 9%; padding-top: 48%; padding-bottom: 40%\">+</p>"	"1000"	n/a	n/a	n/a	n/a	n/a	n/a	n/a	n/a	n/a
n/a	"image-keyboard-response"	"233"	"7456819"	"0.0-6.0-2.0-1.24"	"7wwk4c"	"600"	"1366"	"chrome"	"110.0.0"	"FALSE"	"Windows 10"	"60.68"	"042"	n/a	n/a	n/a	n/a	n/a	n/a	"Trial"	n/a	n/a	n/a	"1021"	"arrowup"	n/a	"NULL"	"NULL"	"NULL"	"stimuli/MullerLyer_2.30000_0.07627.png"	n/a	"MullerLyer"	"arrowup"	"1015"	"TRUE"	"MullerLyer"	"2.3000000000"	"0.0762700000"	"2"	"25"
n/a	"html-keyboard-response"	"234"	"7458182"	"0.0-6.0-2.0-0.25"	"7wwk4c"	"600"	"1366"	"chrome"	"110.0.0"	"FALSE"	"Windows 10"	"60.68"	"042"	n/a	n/a	n/a	n/a	n/a	n/a	"fixation"	n/a	n/a	n/a	n/a	"NULL"	n/a	"NULL"	"NULL"	"NULL"	"<p style=\"color: black; font-size: 80px; padding-left: 11%; padding-right: 42%; padding-top: 3%; padding-bottom: 38%\">+</p>"	"1360"	n/a	n/a	n/a	n/a	n/a	n/a	n/a	n/a	n/a
n/a	"image-keyboard-response"	"235"	"7459133"	"0.0-6.0-2.0-1.25"	"7wwk4c"	"600"	"1366"	"chrome"	"110.0.0"	"FALSE"	"Windows 10"	"60.68"	"042"	n/a	n/a	n/a	n/a	n/a	n/a	"Trial"	n/a	n/a	n/a	"950"	"arrowdown"	n/a	"NULL"	"NULL"	"NULL"	"stimuli/MullerLyer_2.30000_-0.14541.png"	n/a	"MullerLyer"	"arrowdown"	"1363"	"TRUE"	"MullerLyer"	"2.3000000000"	"-0.145410000"	"2"	"26"
n/a	"html-keyboard-response"	"236"	"7460450"	"0.0-6.0-2.0-0.26"	"7wwk4c"	"600"	"1366"	"chrome"	"110.0.0"	"FALSE"	"Windows 10"	"60.68"	"042"	n/a	n/a	n/a	n/a	n/a	n/a	"fixation"	n/a	n/a	n/a	n/a	"NULL"	n/a	"NULL"	"NULL"	"NULL"	"<p style=\"color: black; font-size: 80px; padding-left: 35%; padding-right: 12%; padding-top: 45%; padding-bottom: 5%\">+</p>"	"1307"	n/a	n/a	n/a	n/a	n/a	n/a	n/a	n/a	n/a
n/a	"image-keyboard-response"	"237"	"7461053"	"0.0-6.0-2.0-1.26"	"7wwk4c"	"600"	"1366"	"chrome"	"110.0.0"	"FALSE"	"Windows 10"	"60.68"	"042"	n/a	n/a	n/a	n/a	n/a	n/a	"Trial"	n/a	n/a	n/a	"602"	"arrowdown"	n/a	"NULL"	"NULL"	"NULL"	"stimuli/MullerLyer_-8.21429_-0.14541.png"	n/a	"MullerLyer"	"arrowdown"	"1317"	"TRUE"	"MullerLyer"	"-8.214290000"	"-0.145410000"	"2"	"27"
n/a	"html-keyboard-response"	"238"	"7462521"	"0.0-6.0-2.0-0.27"	"7wwk4c"	"600"	"1366"	"chrome"	"110.0.0"	"FALSE"	"Windows 10"	"60.68"	"042"	n/a	n/a	n/a	n/a	n/a	n/a	"fixation"	n/a	n/a	n/a	n/a	"NULL"	n/a	"NULL"	"NULL"	"NULL"	"<p style=\"color: black; font-size: 80px; padding-left: 26%; padding-right: 22%; padding-top: 2%; padding-bottom: 9%\">+</p>"	"1456"	n/a	n/a	n/a	n/a	n/a	n/a	n/a	n/a	n/a
n/a	"image-keyboard-response"	"239"	"7463126"	"0.0-6.0-2.0-1.27"	"7wwk4c"	"600"	"1366"	"chrome"	"110.0.0"	"FALSE"	"Windows 10"	"60.68"	"042"	n/a	n/a	n/a	n/a	n/a	n/a	"Trial"	n/a	n/a	n/a	"605"	"arrowdown"	n/a	"NULL"	"NULL"	"NULL"	"stimuli/MullerLyer_-20.04286_-0.07627.png"	n/a	"MullerLyer"	"arrowdown"	"1468"	"TRUE"	"MullerLyer"	"-20.04286000"	"-0.076270000"	"2"	"28"
n/a	"html-keyboard-response"	"240"	"7464144"	"0.0-6.0-2.0-0.28"	"7wwk4c"	"600"	"1366"	"chrome"	"110.0.0"	"FALSE"	"Windows 10"	"60.68"	"042"	n/a	n/a	n/a	n/a	n/a	n/a	"fixation"	n/a	n/a	n/a	n/a	"NULL"	n/a	"NULL"	"NULL"	"NULL"	"<p style=\"color: black; font-size: 80px; padding-left: 34%; padding-right: 9%; padding-top: 20%; padding-bottom: 26%\">+</p>"	"1016"	n/a	n/a	n/a	n/a	n/a	n/a	n/a	n/a	n/a
n/a	"image-keyboard-response"	"241"	"7464723"	"0.0-6.0-2.0-1.28"	"7wwk4c"	"600"	"1366"	"chrome"	"110.0.0"	"FALSE"	"Windows 10"	"60.68"	"042"	n/a	n/a	n/a	n/a	n/a	n/a	"Trial"	n/a	n/a	n/a	"579"	"arrowdown"	n/a	"NULL"	"NULL"	"NULL"	"stimuli/MullerLyer_-20.04286_-0.23665.png"	n/a	"MullerLyer"	"arrowdown"	"1018"	"TRUE"	"MullerLyer"	"-20.04286000"	"-0.236650000"	"2"	"29"
n/a	"html-keyboard-response"	"242"	"7466111"	"0.0-6.0-2.0-0.29"	"7wwk4c"	"600"	"1366"	"chrome"	"110.0.0"	"FALSE"	"Windows 10"	"60.68"	"042"	n/a	n/a	n/a	n/a	n/a	n/a	"fixation"	n/a	n/a	n/a	n/a	"NULL"	n/a	"NULL"	"NULL"	"NULL"	"<p style=\"color: black; font-size: 80px; padding-left: 7%; padding-right: 3%; padding-top: 30%; padding-bottom: 4%\">+</p>"	"1381"	n/a	n/a	n/a	n/a	n/a	n/a	n/a	n/a	n/a
n/a	"image-keyboard-response"	"243"	"7466765"	"0.0-6.0-2.0-1.29"	"7wwk4c"	"600"	"1366"	"chrome"	"110.0.0"	"FALSE"	"Windows 10"	"60.68"	"042"	n/a	n/a	n/a	n/a	n/a	n/a	"Trial"	n/a	n/a	n/a	"653"	"arrowup"	n/a	"NULL"	"NULL"	"NULL"	"stimuli/MullerLyer_-8.21429_0.07627.png"	n/a	"MullerLyer"	"arrowup"	"1388"	"TRUE"	"MullerLyer"	"-8.214290000"	"0.0762700000"	"2"	"30"
n/a	"html-keyboard-response"	"244"	"7467920"	"0.0-6.0-2.0-0.30"	"7wwk4c"	"600"	"1366"	"chrome"	"110.0.0"	"FALSE"	"Windows 10"	"60.68"	"042"	n/a	n/a	n/a	n/a	n/a	n/a	"fixation"	n/a	n/a	n/a	n/a	"NULL"	n/a	"NULL"	"NULL"	"NULL"	"<p style=\"color: black; font-size: 80px; padding-left: 10%; padding-right: 37%; padding-top: 46%; padding-bottom: 21%\">+</p>"	"1154"	n/a	n/a	n/a	n/a	n/a	n/a	n/a	n/a	n/a
n/a	"image-keyboard-response"	"245"	"7468602"	"0.0-6.0-2.0-1.30"	"7wwk4c"	"600"	"1366"	"chrome"	"110.0.0"	"FALSE"	"Windows 10"	"60.68"	"042"	n/a	n/a	n/a	n/a	n/a	n/a	"Trial"	n/a	n/a	n/a	"680"	"arrowup"	n/a	"NULL"	"NULL"	"NULL"	"stimuli/MullerLyer_2.30000_0.23665.png"	n/a	"MullerLyer"	"arrowup"	"1155"	"TRUE"	"MullerLyer"	"2.3000000000"	"0.2366500000"	"2"	"31"
n/a	"html-keyboard-response"	"246"	"7469808"	"0.0-6.0-2.0-0.31"	"7wwk4c"	"600"	"1366"	"chrome"	"110.0.0"	"FALSE"	"Windows 10"	"60.68"	"042"	n/a	n/a	n/a	n/a	n/a	n/a	"fixation"	n/a	n/a	n/a	n/a	"NULL"	n/a	"NULL"	"NULL"	"NULL"	"<p style=\"color: black; font-size: 80px; padding-left: 15%; padding-right: 40%; padding-top: 3%; padding-bottom: 26%\">+</p>"	"1203"	n/a	n/a	n/a	n/a	n/a	n/a	n/a	n/a	n/a
n/a	"image-keyboard-response"	"247"	"7470549"	"0.0-6.0-2.0-1.31"	"7wwk4c"	"600"	"1366"	"chrome"	"110.0.0"	"FALSE"	"Windows 10"	"60.68"	"042"	n/a	n/a	n/a	n/a	n/a	n/a	"Trial"	n/a	n/a	n/a	"739"	"arrowup"	n/a	"NULL"	"NULL"	"NULL"	"stimuli/MullerLyer_8.21429_0.23665.png"	n/a	"MullerLyer"	"arrowup"	"1206"	"TRUE"	"MullerLyer"	"8.2142900000"	"0.2366500000"	"2"	"32"
n/a	"html-keyboard-response"	"248"	"7471715"	"0.0-6.0-2.0-0.32"	"7wwk4c"	"600"	"1366"	"chrome"	"110.0.0"	"FALSE"	"Windows 10"	"60.68"	"042"	n/a	n/a	n/a	n/a	n/a	n/a	"fixation"	n/a	n/a	n/a	n/a	"NULL"	n/a	"NULL"	"NULL"	"NULL"	"<p style=\"color: black; font-size: 80px; padding-left: 12%; padding-right: 37%; padding-top: 31%; padding-bottom: 32%\">+</p>"	"1154"	n/a	n/a	n/a	n/a	n/a	n/a	n/a	n/a	n/a
