"success"	"trial_type"	"trial_index"	"time_elapsed"	"internal_node_id"	"participant_id"	"screen_height"	"screen_width"	"browser"	"browser_version"	"mobile"	"os"	"vsync_rate"	"width"	"height"	"webaudio"	"fullscreen"	"webcam"	"microphone"	"screen"	"version"	"date"	"time"	"timeout"	"failed_images"	"failed_audio"	"failed_video"	"rt"	"stimulus"	"response"	"trial_duration"	"block"	"correct_response"	"prestimulus_duration"	"correct"	"type"	"illusion_strength"	"illusion_difference"	"block_number"	"trial_number"
"TRUE"	"fullscreen"	"0"	"3125"	"0.0-0.0"	"1tavm8"	"600"	"1366"	"chrome"	"108.0.0"	"FALSE"	"Windows 10"	"60.84"	n/a	n/a	n/a	n/a	n/a	n/a	n/a	n/a	n/a	n/a	n/a	"NULL"	"NULL"	"NULL"	n/a	n/a	n/a	n/a	n/a	n/a	n/a	n/a	n/a	n/a	n/a	n/a	n/a
n/a	"browser-check"	"1"	"4135"	"0.0-1.0"	"1tavm8"	"600"	"1366"	"chrome"	"108.0.0"	"FALSE"	"Windows 10"	"60.84"	"1366"	"600"	"TRUE"	"TRUE"	"TRUE"	"TRUE"	"browser_info"	"1.0"	"22/12/2022"	"14:38:08"	n/a	"NULL"	"NULL"	"NULL"	n/a	n/a	n/a	n/a	n/a	n/a	n/a	n/a	n/a	n/a	n/a	n/a	n/a
"TRUE"	"preload"	"2"	"4154"	"0.0-2.0"	"1tavm8"	"600"	"1366"	"chrome"	"108.0.0"	"FALSE"	"Windows 10"	"60.84"	n/a	n/a	n/a	n/a	n/a	n/a	n/a	n/a	n/a	n/a	"FALSE"	"list()"	"list()"	"list()"	n/a	n/a	n/a	n/a	n/a	n/a	n/a	n/a	n/a	n/a	n/a	n/a	n/a
n/a	"html-button-response"	"3"	"106058"	"0.0-3.0-0.0"	"1tavm8"	"600"	"1366"	"chrome"	"108.0.0"	"FALSE"	"Windows 10"	"60.84"	n/a	n/a	n/a	n/a	n/a	n/a	"illusion_instructions"	n/a	n/a	n/a	n/a	"NULL"	"NULL"	"NULL"	"101902"	"<p><b>Illusion Game</b></p><p>In this game of speed and reflex, you will need to make <b>visual judgments</b> (for instance, which circle is the biggest, or which line is the longest), as fast and as correctly as possible, while <b>resisting different visual illusions</b>.</p><p>We are going to start with some examples of all the illusions you will encounter in the game.</p>"	"0"	n/a	n/a	n/a	n/a	n/a	n/a	n/a	n/a	n/a	n/a
"TRUE"	"preload"	"4"	"106079"	"0.0-3.0-1.0-0.0"	"1tavm8"	"600"	"1366"	"chrome"	"108.0.0"	"FALSE"	"Windows 10"	"60.84"	n/a	n/a	n/a	n/a	n/a	n/a	n/a	n/a	n/a	n/a	"FALSE"	"list()"	"list()"	"list()"	n/a	n/a	n/a	n/a	n/a	n/a	n/a	n/a	n/a	n/a	n/a	n/a	n/a
n/a	"html-keyboard-response"	"5"	"120437"	"0.0-3.0-1.0-1.0"	"1tavm8"	"600"	"1366"	"chrome"	"108.0.0"	"FALSE"	"Windows 10"	"60.84"	n/a	n/a	n/a	n/a	n/a	n/a	n/a	n/a	n/a	n/a	n/a	"NULL"	"NULL"	"NULL"	"14357"	"<p><b>Practice</b></p><p>In this part, two red circles will appear side by side on the screen.</p><p>Your task is to select which <b>red circle is bigger</b> in size as fast as you can, without making errors.</p><p>Don't get distracted by the surrounding black circles around the red circles!</p><p>Press <b>the LEFT or the RIGHT arrow</b> to indicate which is the bigger <b>red circle.</b></p><div style='float: center'><img src='materials/instructions/Ebbinghaus_Demo.png' height='300'></img><p><img src='utils/answer/answer_leftright_keyboard.PNG' height='150'></img></p><p class='small'>In this example, the correct answer is the <b>LEFT arrow</b>.</p></div><p>Are you ready? <b>Press ENTER to start</b></p>"	"enter"	n/a	n/a	n/a	n/a	n/a	n/a	n/a	n/a	n/a	n/a
n/a	"html-keyboard-response"	"6"	"122135"	"0.0-3.0-1.0-2.0-0.0"	"1tavm8"	"600"	"1366"	"chrome"	"108.0.0"	"FALSE"	"Windows 10"	"60.84"	n/a	n/a	n/a	n/a	n/a	n/a	"fixation"	n/a	n/a	n/a	n/a	"NULL"	"NULL"	"NULL"	n/a	"<p style=\"color: black; font-size: 80px; padding-left: 37%; padding-right: 17%; padding-top: 19%; padding-bottom: 21%\">+</p>"	n/a	"1182"	n/a	n/a	n/a	n/a	n/a	n/a	n/a	n/a	n/a
n/a	"image-keyboard-response"	"7"	"122907"	"0.0-3.0-1.0-2.0-1.0"	"1tavm8"	"600"	"1366"	"chrome"	"108.0.0"	"FALSE"	"Windows 10"	"60.84"	n/a	n/a	n/a	n/a	n/a	n/a	"Trial"	n/a	n/a	n/a	n/a	"NULL"	"NULL"	"NULL"	"748"	"stimuli/Ebbinghaus_0000000_1.40000.png"	"arrowleft"	n/a	"Ebbinghaus"	"arrowleft"	"1698"	"TRUE"	"Ebbinghaus"	"000000000000"	"1.4000000000"	"1"	"1"
n/a	"html-keyboard-response"	"8"	"124170"	"0.0-3.0-1.0-2.0-0.1"	"1tavm8"	"600"	"1366"	"chrome"	"108.0.0"	"FALSE"	"Windows 10"	"60.84"	n/a	n/a	n/a	n/a	n/a	n/a	"fixation"	n/a	n/a	n/a	n/a	"NULL"	"NULL"	"NULL"	n/a	"<p style=\"color: black; font-size: 80px; padding-left: 21%; padding-right: 38%; padding-top: 19%; padding-bottom: 16%\">+</p>"	n/a	"1241"	n/a	n/a	n/a	n/a	n/a	n/a	n/a	n/a	n/a
n/a	"image-keyboard-response"	"9"	"124526"	"0.0-3.0-1.0-2.0-1.1"	"1tavm8"	"600"	"1366"	"chrome"	"108.0.0"	"FALSE"	"Windows 10"	"60.84"	n/a	n/a	n/a	n/a	n/a	n/a	"Trial"	n/a	n/a	n/a	n/a	"NULL"	"NULL"	"NULL"	"351"	"stimuli/Ebbinghaus_-100000_1.40000.png"	"arrowleft"	n/a	"Ebbinghaus"	"arrowleft"	"1263"	"TRUE"	"Ebbinghaus"	"-10000000000"	"1.4000000000"	"1"	"2"
n/a	"html-keyboard-response"	"10"	"125692"	"0.0-3.0-1.0-2.0-0.2"	"1tavm8"	"600"	"1366"	"chrome"	"108.0.0"	"FALSE"	"Windows 10"	"60.84"	n/a	n/a	n/a	n/a	n/a	n/a	"fixation"	n/a	n/a	n/a	n/a	"NULL"	"NULL"	"NULL"	n/a	"<p style=\"color: black; font-size: 80px; padding-left: 43%; padding-right: 34%; padding-top: 21%; padding-bottom: 5%\">+</p>"	n/a	"1154"	n/a	n/a	n/a	n/a	n/a	n/a	n/a	n/a	n/a
n/a	"image-keyboard-response"	"11"	"126095"	"0.0-3.0-1.0-2.0-1.2"	"1tavm8"	"600"	"1366"	"chrome"	"108.0.0"	"FALSE"	"Windows 10"	"60.84"	n/a	n/a	n/a	n/a	n/a	n/a	"Trial"	n/a	n/a	n/a	n/a	"NULL"	"NULL"	"NULL"	"401"	"stimuli/Ebbinghaus_1000000_-1.4000.png"	"arrowright"	n/a	"Ebbinghaus"	"arrowright"	"1166"	"TRUE"	"Ebbinghaus"	"100000000000"	"-1.400000000"	"1"	"3"
n/a	"html-keyboard-response"	"12"	"127240"	"0.0-3.0-1.0-2.0-0.3"	"1tavm8"	"600"	"1366"	"chrome"	"108.0.0"	"FALSE"	"Windows 10"	"60.84"	n/a	n/a	n/a	n/a	n/a	n/a	"fixation"	n/a	n/a	n/a	n/a	"NULL"	"NULL"	"NULL"	n/a	"<p style=\"color: black; font-size: 80px; padding-left: 22%; padding-right: 14%; padding-top: 0%; padding-bottom: 8%\">+</p>"	n/a	"1135"	n/a	n/a	n/a	n/a	n/a	n/a	n/a	n/a	n/a
n/a	"image-keyboard-response"	"13"	"127586"	"0.0-3.0-1.0-2.0-1.3"	"1tavm8"	"600"	"1366"	"chrome"	"108.0.0"	"FALSE"	"Windows 10"	"60.84"	n/a	n/a	n/a	n/a	n/a	n/a	"Trial"	n/a	n/a	n/a	n/a	"NULL"	"NULL"	"NULL"	"344"	"stimuli/Ebbinghaus_1000000_1.40000.png"	"arrowleft"	n/a	"Ebbinghaus"	"arrowleft"	"1145"	"TRUE"	"Ebbinghaus"	"100000000000"	"1.4000000000"	"1"	"4"
n/a	"html-keyboard-response"	"14"	"128727"	"0.0-3.0-1.0-2.0-0.4"	"1tavm8"	"600"	"1366"	"chrome"	"108.0.0"	"FALSE"	"Windows 10"	"60.84"	n/a	n/a	n/a	n/a	n/a	n/a	"fixation"	n/a	n/a	n/a	n/a	"NULL"	"NULL"	"NULL"	n/a	"<p style=\"color: black; font-size: 80px; padding-left: 34%; padding-right: 47%; padding-top: 6%; padding-bottom: 40%\">+</p>"	n/a	"1122"	n/a	n/a	n/a	n/a	n/a	n/a	n/a	n/a	n/a
n/a	"image-keyboard-response"	"15"	"128983"	"0.0-3.0-1.0-2.0-1.4"	"1tavm8"	"600"	"1366"	"chrome"	"108.0.0"	"FALSE"	"Windows 10"	"60.84"	n/a	n/a	n/a	n/a	n/a	n/a	"Trial"	n/a	n/a	n/a	n/a	"NULL"	"NULL"	"NULL"	"255"	"stimuli/Ebbinghaus_-100000_-1.4000.png"	"arrowright"	n/a	"Ebbinghaus"	"arrowright"	"1141"	"TRUE"	"Ebbinghaus"	"-10000000000"	"-1.400000000"	"1"	"5"
n/a	"html-keyboard-response"	"16"	"130026"	"0.0-3.0-1.0-2.0-0.5"	"1tavm8"	"600"	"1366"	"chrome"	"108.0.0"	"FALSE"	"Windows 10"	"60.84"	n/a	n/a	n/a	n/a	n/a	n/a	"fixation"	n/a	n/a	n/a	n/a	"NULL"	"NULL"	"NULL"	n/a	"<p style=\"color: black; font-size: 80px; padding-left: 21%; padding-right: 44%; padding-top: 1%; padding-bottom: 24%\">+</p>"	n/a	"1037"	n/a	n/a	n/a	n/a	n/a	n/a	n/a	n/a	n/a
n/a	"image-keyboard-response"	"17"	"130395"	"0.0-3.0-1.0-2.0-1.5"	"1tavm8"	"600"	"1366"	"chrome"	"108.0.0"	"FALSE"	"Windows 10"	"60.84"	n/a	n/a	n/a	n/a	n/a	n/a	"Trial"	n/a	n/a	n/a	n/a	"NULL"	"NULL"	"NULL"	"367"	"stimuli/Ebbinghaus_0000000_-1.4000.png"	"arrowright"	n/a	"Ebbinghaus"	"arrowright"	"1043"	"TRUE"	"Ebbinghaus"	"000000000000"	"-1.400000000"	"1"	"6"
n/a	"html-button-response"	"18"	"133673"	"0.0-3.0-1.0-3.0"	"1tavm8"	"600"	"1366"	"chrome"	"108.0.0"	"FALSE"	"Windows 10"	"60.84"	n/a	n/a	n/a	n/a	n/a	n/a	"practice_block_results"	n/a	n/a	n/a	n/a	"NULL"	"NULL"	"NULL"	"3275"	"<p style='color:rgb(76,175,80);'> Correct Responses: <b>100.00%</b></p><hr><p style='color:rgb(233,30,99);'> Average Response Time: <b>411.00</b> ms.</p>"	"0"	n/a	n/a	n/a	n/a	n/a	n/a	n/a	n/a	n/a	n/a
"TRUE"	"preload"	"19"	"134203"	"0.0-3.0-2.0-0.0"	"1tavm8"	"600"	"1366"	"chrome"	"108.0.0"	"FALSE"	"Windows 10"	"60.84"	n/a	n/a	n/a	n/a	n/a	n/a	n/a	n/a	n/a	n/a	"FALSE"	"list()"	"list()"	"list()"	n/a	n/a	n/a	n/a	n/a	n/a	n/a	n/a	n/a	n/a	n/a	n/a	n/a
n/a	"html-keyboard-response"	"20"	"143658"	"0.0-3.0-2.0-1.0"	"1tavm8"	"600"	"1366"	"chrome"	"108.0.0"	"FALSE"	"Windows 10"	"60.84"	n/a	n/a	n/a	n/a	n/a	n/a	n/a	n/a	n/a	n/a	n/a	"NULL"	"NULL"	"NULL"	"9454"	"<p><b>Practice</b></p><p>In this part, two horizontal red lines will appear one above the other.</p><p>Your task is to select which <b>line is longer</b> in length as fast as you can, without making errors.</p><p>Don't get distracted by the surrounding black arrows at the end of the red lines!</p><p>Press <b>the UP or the DOWN arrow</b> to indicate where is the longer <b>red line.</b></p><div style='float: center'><img src='materials/instructions/MullerLyer_Demo.png' height='300'></img><p><img src='utils/answer/answer_updown_keyboard.PNG' height='150'></img></p><p class='small'>In this example, the correct answer is the <b>UP arrow</b>.</p></div><p>Are you ready? <b>Press ENTER to start</b></p>"	"enter"	n/a	n/a	n/a	n/a	n/a	n/a	n/a	n/a	n/a	n/a
n/a	"html-keyboard-response"	"21"	"145277"	"0.0-3.0-2.0-2.0-0.0"	"1tavm8"	"600"	"1366"	"chrome"	"108.0.0"	"FALSE"	"Windows 10"	"60.84"	n/a	n/a	n/a	n/a	n/a	n/a	"fixation"	n/a	n/a	n/a	n/a	"NULL"	"NULL"	"NULL"	n/a	"<p style=\"color: black; font-size: 80px; padding-left: 31%; padding-right: 8%; padding-top: 36%; padding-bottom: 38%\">+</p>"	n/a	"1096"	n/a	n/a	n/a	n/a	n/a	n/a	n/a	n/a	n/a
n/a	"image-keyboard-response"	"22"	"145901"	"0.0-3.0-2.0-2.0-1.0"	"1tavm8"	"600"	"1366"	"chrome"	"108.0.0"	"FALSE"	"Windows 10"	"60.84"	n/a	n/a	n/a	n/a	n/a	n/a	"Trial"	n/a	n/a	n/a	n/a	"NULL"	"NULL"	"NULL"	"623"	"stimuli/MullerLyer_0000000_-0.7000.png"	"arrowdown"	n/a	"MullerLyer"	"arrowdown"	"1619"	"TRUE"	"MullerLyer"	"000000000000"	"-0.700000000"	"1"	"7"
n/a	"html-keyboard-response"	"23"	"146982"	"0.0-3.0-2.0-2.0-0.1"	"1tavm8"	"600"	"1366"	"chrome"	"108.0.0"	"FALSE"	"Windows 10"	"60.84"	n/a	n/a	n/a	n/a	n/a	n/a	"fixation"	n/a	n/a	n/a	n/a	"NULL"	"NULL"	"NULL"	n/a	"<p style=\"color: black; font-size: 80px; padding-left: 23%; padding-right: 7%; padding-top: 3%; padding-bottom: 46%\">+</p>"	n/a	"1062"	n/a	n/a	n/a	n/a	n/a	n/a	n/a	n/a	n/a
n/a	"image-keyboard-response"	"24"	"147274"	"0.0-3.0-2.0-2.0-1.1"	"1tavm8"	"600"	"1366"	"chrome"	"108.0.0"	"FALSE"	"Windows 10"	"60.84"	n/a	n/a	n/a	n/a	n/a	n/a	"Trial"	n/a	n/a	n/a	n/a	"NULL"	"NULL"	"NULL"	"290"	"stimuli/MullerLyer_2300000_0.70000.png"	"arrowup"	n/a	"MullerLyer"	"arrowup"	"1081"	"TRUE"	"MullerLyer"	"230000000000"	"0.7000000000"	"1"	"8"
n/a	"html-keyboard-response"	"25"	"148684"	"0.0-3.0-2.0-2.0-0.2"	"1tavm8"	"600"	"1366"	"chrome"	"108.0.0"	"FALSE"	"Windows 10"	"60.84"	n/a	n/a	n/a	n/a	n/a	n/a	"fixation"	n/a	n/a	n/a	n/a	"NULL"	"NULL"	"NULL"	n/a	"<p style=\"color: black; font-size: 80px; padding-left: 39%; padding-right: 41%; padding-top: 21%; padding-bottom: 18%\">+</p>"	n/a	"1401"	n/a	n/a	n/a	n/a	n/a	n/a	n/a	n/a	n/a
n/a	"image-keyboard-response"	"26"	"149146"	"0.0-3.0-2.0-2.0-1.2"	"1tavm8"	"600"	"1366"	"chrome"	"108.0.0"	"FALSE"	"Windows 10"	"60.84"	n/a	n/a	n/a	n/a	n/a	n/a	"Trial"	n/a	n/a	n/a	n/a	"NULL"	"NULL"	"NULL"	"460"	"stimuli/MullerLyer_-230000_0.70000.png"	"arrowup"	n/a	"MullerLyer"	"arrowup"	"1410"	"TRUE"	"MullerLyer"	"-23000000000"	"0.7000000000"	"1"	"9"
n/a	"html-keyboard-response"	"27"	"150572"	"0.0-3.0-2.0-2.0-0.3"	"1tavm8"	"600"	"1366"	"chrome"	"108.0.0"	"FALSE"	"Windows 10"	"60.84"	n/a	n/a	n/a	n/a	n/a	n/a	"fixation"	n/a	n/a	n/a	n/a	"NULL"	"NULL"	"NULL"	n/a	"<p style=\"color: black; font-size: 80px; padding-left: 27%; padding-right: 8%; padding-top: 16%; padding-bottom: 44%\">+</p>"	n/a	"1421"	n/a	n/a	n/a	n/a	n/a	n/a	n/a	n/a	n/a
n/a	"image-keyboard-response"	"28"	"151074"	"0.0-3.0-2.0-2.0-1.3"	"1tavm8"	"600"	"1366"	"chrome"	"108.0.0"	"FALSE"	"Windows 10"	"60.84"	n/a	n/a	n/a	n/a	n/a	n/a	"Trial"	n/a	n/a	n/a	n/a	"NULL"	"NULL"	"NULL"	"500"	"stimuli/MullerLyer_-230000_-0.7000.png"	"arrowdown"	n/a	"MullerLyer"	"arrowdown"	"1426"	"TRUE"	"MullerLyer"	"-23000000000"	"-0.700000000"	"1"	"10"
n/a	"html-keyboard-response"	"29"	"152251"	"0.0-3.0-2.0-2.0-0.4"	"1tavm8"	"600"	"1366"	"chrome"	"108.0.0"	"FALSE"	"Windows 10"	"60.84"	n/a	n/a	n/a	n/a	n/a	n/a	"fixation"	n/a	n/a	n/a	n/a	"NULL"	"NULL"	"NULL"	n/a	"<p style=\"color: black; font-size: 80px; padding-left: 5%; padding-right: 28%; padding-top: 5%; padding-bottom: 0%\">+</p>"	n/a	"1165"	n/a	n/a	n/a	n/a	n/a	n/a	n/a	n/a	n/a
n/a	"image-keyboard-response"	"30"	"152636"	"0.0-3.0-2.0-2.0-1.4"	"1tavm8"	"600"	"1366"	"chrome"	"108.0.0"	"FALSE"	"Windows 10"	"60.84"	n/a	n/a	n/a	n/a	n/a	n/a	"Trial"	n/a	n/a	n/a	n/a	"NULL"	"NULL"	"NULL"	"383"	"stimuli/MullerLyer_0000000_0.70000.png"	"arrowup"	n/a	"MullerLyer"	"arrowup"	"1177"	"TRUE"	"MullerLyer"	"000000000000"	"0.7000000000"	"1"	"11"
n/a	"html-keyboard-response"	"31"	"154122"	"0.0-3.0-2.0-2.0-0.5"	"1tavm8"	"600"	"1366"	"chrome"	"108.0.0"	"FALSE"	"Windows 10"	"60.84"	n/a	n/a	n/a	n/a	n/a	n/a	"fixation"	n/a	n/a	n/a	n/a	"NULL"	"NULL"	"NULL"	n/a	"<p style=\"color: black; font-size: 80px; padding-left: 14%; padding-right: 44%; padding-top: 31%; padding-bottom: 10%\">+</p>"	n/a	"1471"	n/a	n/a	n/a	n/a	n/a	n/a	n/a	n/a	n/a
n/a	"image-keyboard-response"	"32"	"154545"	"0.0-3.0-2.0-2.0-1.5"	"1tavm8"	"600"	"1366"	"chrome"	"108.0.0"	"FALSE"	"Windows 10"	"60.84"	n/a	n/a	n/a	n/a	n/a	n/a	"Trial"	n/a	n/a	n/a	n/a	"NULL"	"NULL"	"NULL"	"421"	"stimuli/MullerLyer_2300000_-0.7000.png"	"arrowdown"	n/a	"MullerLyer"	"arrowdown"	"1486"	"TRUE"	"MullerLyer"	"230000000000"	"-0.700000000"	"1"	"12"
n/a	"html-button-response"	"33"	"156029"	"0.0-3.0-2.0-3.0"	"1tavm8"	"600"	"1366"	"chrome"	"108.0.0"	"FALSE"	"Windows 10"	"60.84"	n/a	n/a	n/a	n/a	n/a	n/a	"practice_block_results"	n/a	n/a	n/a	n/a	"NULL"	"NULL"	"NULL"	"1482"	"<p style='color:rgb(76,175,80);'> Correct Responses: <b>100.00%</b></p><hr><p style='color:rgb(233,30,99);'> Average Response Time: <b>446.17</b> ms.</p>"	"0"	n/a	n/a	n/a	n/a	n/a	n/a	n/a	n/a	n/a	n/a
"TRUE"	"preload"	"34"	"156596"	"0.0-3.0-3.0-0.0"	"1tavm8"	"600"	"1366"	"chrome"	"108.0.0"	"FALSE"	"Windows 10"	"60.84"	n/a	n/a	n/a	n/a	n/a	n/a	n/a	n/a	n/a	n/a	"FALSE"	"list()"	"list()"	"list()"	n/a	n/a	n/a	n/a	n/a	n/a	n/a	n/a	n/a	n/a	n/a	n/a	n/a
n/a	"html-keyboard-response"	"35"	"161275"	"0.0-3.0-3.0-1.0"	"1tavm8"	"600"	"1366"	"chrome"	"108.0.0"	"FALSE"	"Windows 10"	"60.84"	n/a	n/a	n/a	n/a	n/a	n/a	n/a	n/a	n/a	n/a	n/a	"NULL"	"NULL"	"NULL"	"4678"	"<p><b>Practice</b></p><p>In this part, two red lines will appear side by side.</p><p>Your task is to tell <b>which line is longer</b> in length, regardless of their orientation, as fast as you can, and without making errors.</p><p>Don't get distracted by the orientation of the lines!</p><p>Press <b>the LEFT or the RIGHT arrow</b> to indicate which <b>line is the longer one.</b></p><div style='float: center'><img src='materials/instructions/VerticalHorizontal_Demo.png' height='300'></img><p><img src='utils/answer/answer_leftright_keyboard.PNG' height='150'></img></p><p class='small'>In this example, the correct answer is the <b>LEFT arrow</b>.</p></div><p>Are you ready? <b>Press ENTER to start</b></p>"	"enter"	n/a	n/a	n/a	n/a	n/a	n/a	n/a	n/a	n/a	n/a
n/a	"html-keyboard-response"	"36"	"162847"	"0.0-3.0-3.0-2.0-0.0"	"1tavm8"	"600"	"1366"	"chrome"	"108.0.0"	"FALSE"	"Windows 10"	"60.84"	n/a	n/a	n/a	n/a	n/a	n/a	"fixation"	n/a	n/a	n/a	n/a	"NULL"	"NULL"	"NULL"	n/a	"<p style=\"color: black; font-size: 80px; padding-left: 6%; padding-right: 2%; padding-top: 25%; padding-bottom: 0%\">+</p>"	n/a	"1035"	n/a	n/a	n/a	n/a	n/a	n/a	n/a	n/a	n/a
n/a	"image-keyboard-response"	"37"	"163294"	"0.0-3.0-3.0-2.0-1.0"	"1tavm8"	"600"	"1366"	"chrome"	"108.0.0"	"FALSE"	"Windows 10"	"60.84"	n/a	n/a	n/a	n/a	n/a	n/a	"Trial"	n/a	n/a	n/a	n/a	"NULL"	"NULL"	"NULL"	"446"	"stimuli/VerticalHorizontal_-330000_0.90000.png"	"arrowleft"	n/a	"VerticalHorizontal"	"arrowleft"	"1572"	"TRUE"	"VerticalHorizontal"	"-33000000000"	"0.9000000000"	"1"	"13"
n/a	"html-keyboard-response"	"38"	"164417"	"0.0-3.0-3.0-2.0-0.1"	"1tavm8"	"600"	"1366"	"chrome"	"108.0.0"	"FALSE"	"Windows 10"	"60.84"	n/a	n/a	n/a	n/a	n/a	n/a	"fixation"	n/a	n/a	n/a	n/a	"NULL"	"NULL"	"NULL"	n/a	"<p style=\"color: black; font-size: 80px; padding-left: 47%; padding-right: 20%; padding-top: 8%; padding-bottom: 49%\">+</p>"	n/a	"1112"	n/a	n/a	n/a	n/a	n/a	n/a	n/a	n/a	n/a
n/a	"image-keyboard-response"	"39"	"164719"	"0.0-3.0-3.0-2.0-1.1"	"1tavm8"	"600"	"1366"	"chrome"	"108.0.0"	"FALSE"	"Windows 10"	"60.84"	n/a	n/a	n/a	n/a	n/a	n/a	"Trial"	n/a	n/a	n/a	n/a	"NULL"	"NULL"	"NULL"	"301"	"stimuli/VerticalHorizontal_-330000_-0.9000.png"	"arrowright"	n/a	"VerticalHorizontal"	"arrowright"	"1123"	"TRUE"	"VerticalHorizontal"	"-33000000000"	"-0.900000000"	"1"	"14"
n/a	"html-keyboard-response"	"40"	"165775"	"0.0-3.0-3.0-2.0-0.2"	"1tavm8"	"600"	"1366"	"chrome"	"108.0.0"	"FALSE"	"Windows 10"	"60.84"	n/a	n/a	n/a	n/a	n/a	n/a	"fixation"	n/a	n/a	n/a	n/a	"NULL"	"NULL"	"NULL"	n/a	"<p style=\"color: black; font-size: 80px; padding-left: 33%; padding-right: 4%; padding-top: 47%; padding-bottom: 30%\">+</p>"	n/a	"1049"	n/a	n/a	n/a	n/a	n/a	n/a	n/a	n/a	n/a
n/a	"image-keyboard-response"	"41"	"166155"	"0.0-3.0-3.0-2.0-1.2"	"1tavm8"	"600"	"1366"	"chrome"	"108.0.0"	"FALSE"	"Windows 10"	"60.84"	n/a	n/a	n/a	n/a	n/a	n/a	"Trial"	n/a	n/a	n/a	n/a	"NULL"	"NULL"	"NULL"	"375"	"stimuli/VerticalHorizontal_0000000_0.90000.png"	"arrowleft"	n/a	"VerticalHorizontal"	"arrowleft"	"1056"	"TRUE"	"VerticalHorizontal"	"000000000000"	"0.9000000000"	"1"	"15"
n/a	"html-keyboard-response"	"42"	"167462"	"0.0-3.0-3.0-2.0-0.3"	"1tavm8"	"600"	"1366"	"chrome"	"108.0.0"	"FALSE"	"Windows 10"	"60.84"	n/a	n/a	n/a	n/a	n/a	n/a	"fixation"	n/a	n/a	n/a	n/a	"NULL"	"NULL"	"NULL"	n/a	"<p style=\"color: black; font-size: 80px; padding-left: 2%; padding-right: 48%; padding-top: 13%; padding-bottom: 49%\">+</p>"	n/a	"1296"	n/a	n/a	n/a	n/a	n/a	n/a	n/a	n/a	n/a
n/a	"image-keyboard-response"	"43"	"167803"	"0.0-3.0-3.0-2.0-1.3"	"1tavm8"	"600"	"1366"	"chrome"	"108.0.0"	"FALSE"	"Windows 10"	"60.84"	n/a	n/a	n/a	n/a	n/a	n/a	"Trial"	n/a	n/a	n/a	n/a	"NULL"	"NULL"	"NULL"	"340"	"stimuli/VerticalHorizontal_3300000_-0.9000.png"	"arrowright"	n/a	"VerticalHorizontal"	"arrowright"	"1307"	"TRUE"	"VerticalHorizontal"	"330000000000"	"-0.900000000"	"1"	"16"
n/a	"html-keyboard-response"	"44"	"169185"	"0.0-3.0-3.0-2.0-0.4"	"1tavm8"	"600"	"1366"	"chrome"	"108.0.0"	"FALSE"	"Windows 10"	"60.84"	n/a	n/a	n/a	n/a	n/a	n/a	"fixation"	n/a	n/a	n/a	n/a	"NULL"	"NULL"	"NULL"	n/a	"<p style=\"color: black; font-size: 80px; padding-left: 13%; padding-right: 5%; padding-top: 48%; padding-bottom: 34%\">+</p>"	n/a	"1361"	n/a	n/a	n/a	n/a	n/a	n/a	n/a	n/a	n/a
n/a	"image-keyboard-response"	"45"	"169527"	"0.0-3.0-3.0-2.0-1.4"	"1tavm8"	"600"	"1366"	"chrome"	"108.0.0"	"FALSE"	"Windows 10"	"60.84"	n/a	n/a	n/a	n/a	n/a	n/a	"Trial"	n/a	n/a	n/a	n/a	"NULL"	"NULL"	"NULL"	"339"	"stimuli/VerticalHorizontal_3300000_0.90000.png"	"arrowleft"	n/a	"VerticalHorizontal"	"arrowleft"	"1382"	"TRUE"	"VerticalHorizontal"	"330000000000"	"0.9000000000"	"1"	"17"
n/a	"html-keyboard-response"	"46"	"170651"	"0.0-3.0-3.0-2.0-0.5"	"1tavm8"	"600"	"1366"	"chrome"	"108.0.0"	"FALSE"	"Windows 10"	"60.84"	n/a	n/a	n/a	n/a	n/a	n/a	"fixation"	n/a	n/a	n/a	n/a	"NULL"	"NULL"	"NULL"	n/a	"<p style=\"color: black; font-size: 80px; padding-left: 48%; padding-right: 31%; padding-top: 7%; padding-bottom: 9%\">+</p>"	n/a	"1107"	n/a	n/a	n/a	n/a	n/a	n/a	n/a	n/a	n/a
n/a	"image-keyboard-response"	"47"	"171008"	"0.0-3.0-3.0-2.0-1.5"	"1tavm8"	"600"	"1366"	"chrome"	"108.0.0"	"FALSE"	"Windows 10"	"60.84"	n/a	n/a	n/a	n/a	n/a	n/a	"Trial"	n/a	n/a	n/a	n/a	"NULL"	"NULL"	"NULL"	"354"	"stimuli/VerticalHorizontal_0000000_-0.9000.png"	"arrowright"	n/a	"VerticalHorizontal"	"arrowright"	"1124"	"TRUE"	"VerticalHorizontal"	"000000000000"	"-0.900000000"	"1"	"18"
n/a	"html-button-response"	"48"	"174525"	"0.0-3.0-3.0-3.0"	"1tavm8"	"600"	"1366"	"chrome"	"108.0.0"	"FALSE"	"Windows 10"	"60.84"	n/a	n/a	n/a	n/a	n/a	n/a	"practice_block_results"	n/a	n/a	n/a	n/a	"NULL"	"NULL"	"NULL"	"3513"	"<p style='color:rgb(76,175,80);'> Correct Responses: <b>100.00%</b></p><hr><p style='color:rgb(233,30,99);'> Average Response Time: <b>359.17</b> ms.</p>"	"0"	n/a	n/a	n/a	n/a	n/a	n/a	n/a	n/a	n/a	n/a
n/a	"html-button-response"	"49"	"278562"	"0.0-3.0-4.0"	"1tavm8"	"600"	"1366"	"chrome"	"108.0.0"	"FALSE"	"Windows 10"	"60.84"	n/a	n/a	n/a	n/a	n/a	n/a	"practice_debrief"	n/a	n/a	n/a	n/a	"NULL"	"NULL"	"NULL"	"103524"	"<p><b>TRAINING COMPLETED</b></p><p>In the next phase, there will be more trials, and some might be harder too.<br> Moreover, after each illusion block, a <b>score</b> will be calculated based on speed (time you took to answer) and accuracy (number of errors).</p><p>Try to keep up a high score!</p><br><p>Note that it can be <i>really</i> challenging at times, so you will need to rely on your <b>intuition</b> and gut feeling to answer as fast as you can without making errors.</p><p>Each illusion block will be repeated two times (so that you have the opportunity to improve your score), but the order of the blocks is random.</p><p>Remember, your goal is to be as <b>fast</b> and <b>accurate</b> as possible. Good luck!</p><br>"	"0"	n/a	n/a	n/a	n/a	n/a	n/a	n/a	n/a	n/a	n/a
"TRUE"	"preload"	"50"	"278740"	"0.0-4.0-0.0"	"1tavm8"	"600"	"1366"	"chrome"	"108.0.0"	"FALSE"	"Windows 10"	"60.84"	n/a	n/a	n/a	n/a	n/a	n/a	n/a	n/a	n/a	n/a	"FALSE"	"list()"	"list()"	"list()"	n/a	n/a	n/a	n/a	n/a	n/a	n/a	n/a	n/a	n/a	n/a	n/a	n/a
n/a	"html-keyboard-response"	"51"	"310831"	"0.0-4.0-1.0"	"1tavm8"	"600"	"1366"	"chrome"	"108.0.0"	"FALSE"	"Windows 10"	"60.84"	n/a	n/a	n/a	n/a	n/a	n/a	n/a	n/a	n/a	n/a	n/a	"NULL"	"NULL"	"NULL"	"32090"	"<p><b>Part 1/6</b></p><p>In this part, two red circles will appear side by side on the screen.</p><p>Your task is to select which <b>red circle is bigger</b> in size as fast as you can, without making errors.</p><p>Don't get distracted by the surrounding black circles around the red circles!</p><p>Press <b>the LEFT or the RIGHT arrow</b> to indicate which is the bigger <b>red circle.</b></p><div style='float: center'><img src='materials/instructions/Ebbinghaus_Demo.png' height='300'></img><p><img src='utils/answer/answer_leftright_keyboard.PNG' height='150'></img></p><p class='small'>In this example, the correct answer is the <b>LEFT arrow</b>.</p></div><p>Are you ready? <b>Press ENTER to start</b></p>"	"enter"	n/a	n/a	n/a	n/a	n/a	n/a	n/a	n/a	n/a	n/a
n/a	"html-keyboard-response"	"52"	"312518"	"0.0-4.0-2.0-0.0"	"1tavm8"	"600"	"1366"	"chrome"	"108.0.0"	"FALSE"	"Windows 10"	"60.84"	n/a	n/a	n/a	n/a	n/a	n/a	"fixation"	n/a	n/a	n/a	n/a	"NULL"	"NULL"	"NULL"	n/a	"<p style=\"color: black; font-size: 80px; padding-left: 43%; padding-right: 10%; padding-top: 36%; padding-bottom: 5%\">+</p>"	n/a	"1152"	n/a	n/a	n/a	n/a	n/a	n/a	n/a	n/a	n/a
n/a	"image-keyboard-response"	"53"	"312830"	"0.0-4.0-2.0-1.0"	"1tavm8"	"600"	"1366"	"chrome"	"108.0.0"	"FALSE"	"Windows 10"	"60.84"	n/a	n/a	n/a	n/a	n/a	n/a	"Trial"	n/a	n/a	n/a	n/a	"NULL"	"NULL"	"NULL"	"311"	"stimuli/Ebbinghaus_-0.61429_0.15857.png"	"arrowright"	n/a	"Ebbinghaus"	"arrowleft"	"1687"	"FALSE"	"Ebbinghaus"	"-0.614290000"	"0.1585700000"	"1"	"19"
n/a	"html-keyboard-response"	"54"	"314228"	"0.0-4.0-2.0-0.1"	"1tavm8"	"600"	"1366"	"chrome"	"108.0.0"	"FALSE"	"Windows 10"	"60.84"	n/a	n/a	n/a	n/a	n/a	n/a	"fixation"	n/a	n/a	n/a	n/a	"NULL"	"NULL"	"NULL"	n/a	"<p style=\"color: black; font-size: 80px; padding-left: 28%; padding-right: 14%; padding-top: 0%; padding-bottom: 2%\">+</p>"	n/a	"1382"	n/a	n/a	n/a	n/a	n/a	n/a	n/a	n/a	n/a
n/a	"image-keyboard-response"	"55"	"314572"	"0.0-4.0-2.0-1.1"	"1tavm8"	"600"	"1366"	"chrome"	"108.0.0"	"FALSE"	"Windows 10"	"60.84"	n/a	n/a	n/a	n/a	n/a	n/a	"Trial"	n/a	n/a	n/a	n/a	"NULL"	"NULL"	"NULL"	"342"	"stimuli/Ebbinghaus_0.61429_-0.2150.png"	"arrowright"	n/a	"Ebbinghaus"	"arrowright"	"1398"	"TRUE"	"Ebbinghaus"	"0.6142900000"	"-0.215000000"	"1"	"20"
n/a	"html-keyboard-response"	"56"	"315777"	"0.0-4.0-2.0-0.2"	"1tavm8"	"600"	"1366"	"chrome"	"108.0.0"	"FALSE"	"Windows 10"	"60.84"	n/a	n/a	n/a	n/a	n/a	n/a	"fixation"	n/a	n/a	n/a	n/a	"NULL"	"NULL"	"NULL"	n/a	"<p style=\"color: black; font-size: 80px; padding-left: 0%; padding-right: 30%; padding-top: 25%; padding-bottom: 36%\">+</p>"	n/a	"1184"	n/a	n/a	n/a	n/a	n/a	n/a	n/a	n/a	n/a
n/a	"image-keyboard-response"	"57"	"316126"	"0.0-4.0-2.0-1.2"	"1tavm8"	"600"	"1366"	"chrome"	"108.0.0"	"FALSE"	"Windows 10"	"60.84"	n/a	n/a	n/a	n/a	n/a	n/a	"Trial"	n/a	n/a	n/a	n/a	"NULL"	"NULL"	"NULL"	"347"	"stimuli/Ebbinghaus_0.10000_-0.15857.png"	"arrowright"	n/a	"Ebbinghaus"	"arrowright"	"1205"	"TRUE"	"Ebbinghaus"	"0.1000000000"	"-0.158570000"	"1"	"21"
n/a	"html-keyboard-response"	"58"	"317184"	"0.0-4.0-2.0-0.3"	"1tavm8"	"600"	"1366"	"chrome"	"108.0.0"	"FALSE"	"Windows 10"	"60.84"	n/a	n/a	n/a	n/a	n/a	n/a	"fixation"	n/a	n/a	n/a	n/a	"NULL"	"NULL"	"NULL"	n/a	"<p style=\"color: black; font-size: 80px; padding-left: 50%; padding-right: 29%; padding-top: 8%; padding-bottom: 5%\">+</p>"	n/a	"1040"	n/a	n/a	n/a	n/a	n/a	n/a	n/a	n/a	n/a
n/a	"image-keyboard-response"	"59"	"317518"	"0.0-4.0-2.0-1.3"	"1tavm8"	"600"	"1366"	"chrome"	"108.0.0"	"FALSE"	"Windows 10"	"60.84"	n/a	n/a	n/a	n/a	n/a	n/a	"Trial"	n/a	n/a	n/a	n/a	"NULL"	"NULL"	"NULL"	"332"	"stimuli/Ebbinghaus_-0.87143_-0.15857.png"	"arrowright"	n/a	"Ebbinghaus"	"arrowright"	"1058"	"TRUE"	"Ebbinghaus"	"-0.871430000"	"-0.158570000"	"1"	"22"
n/a	"html-keyboard-response"	"60"	"318624"	"0.0-4.0-2.0-0.4"	"1tavm8"	"600"	"1366"	"chrome"	"108.0.0"	"FALSE"	"Windows 10"	"60.84"	n/a	n/a	n/a	n/a	n/a	n/a	"fixation"	n/a	n/a	n/a	n/a	"NULL"	"NULL"	"NULL"	n/a	"<p style=\"color: black; font-size: 80px; padding-left: 32%; padding-right: 46%; padding-top: 33%; padding-bottom: 22%\">+</p>"	n/a	"1098"	n/a	n/a	n/a	n/a	n/a	n/a	n/a	n/a	n/a
n/a	"image-keyboard-response"	"61"	"318920"	"0.0-4.0-2.0-1.4"	"1tavm8"	"600"	"1366"	"chrome"	"108.0.0"	"FALSE"	"Windows 10"	"60.84"	n/a	n/a	n/a	n/a	n/a	n/a	"Trial"	n/a	n/a	n/a	n/a	"NULL"	"NULL"	"NULL"	"281"	"stimuli/Ebbinghaus_0.87143_0.11071.png"	"arrowleft"	n/a	"Ebbinghaus"	"arrowleft"	"1106"	"TRUE"	"Ebbinghaus"	"0.8714300000"	"0.1107100000"	"1"	"23"
n/a	"html-keyboard-response"	"62"	"320022"	"0.0-4.0-2.0-0.5"	"1tavm8"	"600"	"1366"	"chrome"	"108.0.0"	"FALSE"	"Windows 10"	"60.84"	n/a	n/a	n/a	n/a	n/a	n/a	"fixation"	n/a	n/a	n/a	n/a	"NULL"	"NULL"	"NULL"	n/a	"<p style=\"color: black; font-size: 80px; padding-left: 10%; padding-right: 11%; padding-top: 30%; padding-bottom: 31%\">+</p>"	n/a	"1093"	n/a	n/a	n/a	n/a	n/a	n/a	n/a	n/a	n/a
n/a	"image-keyboard-response"	"63"	"320379"	"0.0-4.0-2.0-1.5"	"1tavm8"	"600"	"1366"	"chrome"	"108.0.0"	"FALSE"	"Windows 10"	"60.84"	n/a	n/a	n/a	n/a	n/a	n/a	"Trial"	n/a	n/a	n/a	n/a	"NULL"	"NULL"	"NULL"	"356"	"stimuli/Ebbinghaus_0.61429_0.28000.png"	"arrowright"	n/a	"Ebbinghaus"	"arrowleft"	"1102"	"FALSE"	"Ebbinghaus"	"0.6142900000"	"0.2800000000"	"1"	"24"
n/a	"html-keyboard-response"	"64"	"321414"	"0.0-4.0-2.0-0.6"	"1tavm8"	"600"	"1366"	"chrome"	"108.0.0"	"FALSE"	"Windows 10"	"60.84"	n/a	n/a	n/a	n/a	n/a	n/a	"fixation"	n/a	n/a	n/a	n/a	"NULL"	"NULL"	"NULL"	n/a	"<p style=\"color: black; font-size: 80px; padding-left: 19%; padding-right: 35%; padding-top: 46%; padding-bottom: 44%\">+</p>"	n/a	"1021"	n/a	n/a	n/a	n/a	n/a	n/a	n/a	n/a	n/a
n/a	"image-keyboard-response"	"65"	"321832"	"0.0-4.0-2.0-1.6"	"1tavm8"	"600"	"1366"	"chrome"	"108.0.0"	"FALSE"	"Windows 10"	"60.84"	n/a	n/a	n/a	n/a	n/a	n/a	"Trial"	n/a	n/a	n/a	n/a	"NULL"	"NULL"	"NULL"	"417"	"stimuli/Ebbinghaus_0.35714_0.11071.png"	"arrowright"	n/a	"Ebbinghaus"	"arrowleft"	"1035"	"FALSE"	"Ebbinghaus"	"0.3571400000"	"0.1107100000"	"1"	"25"
n/a	"html-keyboard-response"	"66"	"322887"	"0.0-4.0-2.0-0.7"	"1tavm8"	"600"	"1366"	"chrome"	"108.0.0"	"FALSE"	"Windows 10"	"60.84"	n/a	n/a	n/a	n/a	n/a	n/a	"fixation"	n/a	n/a	n/a	n/a	"NULL"	"NULL"	"NULL"	n/a	"<p style=\"color: black; font-size: 80px; padding-left: 10%; padding-right: 17%; padding-top: 32%; padding-bottom: 34%\">+</p>"	n/a	"1043"	n/a	n/a	n/a	n/a	n/a	n/a	n/a	n/a	n/a
n/a	"image-keyboard-response"	"67"	"323382"	"0.0-4.0-2.0-1.7"	"1tavm8"	"600"	"1366"	"chrome"	"108.0.0"	"FALSE"	"Windows 10"	"60.84"	n/a	n/a	n/a	n/a	n/a	n/a	"Trial"	n/a	n/a	n/a	n/a	"NULL"	"NULL"	"NULL"	"494"	"stimuli/Ebbinghaus_0.35714_-0.11071.png"	"arrowright"	n/a	"Ebbinghaus"	"arrowright"	"1055"	"TRUE"	"Ebbinghaus"	"0.3571400000"	"-0.110710000"	"1"	"26"
n/a	"html-keyboard-response"	"68"	"324873"	"0.0-4.0-2.0-0.8"	"1tavm8"	"600"	"1366"	"chrome"	"108.0.0"	"FALSE"	"Windows 10"	"60.84"	n/a	n/a	n/a	n/a	n/a	n/a	"fixation"	n/a	n/a	n/a	n/a	"NULL"	"NULL"	"NULL"	n/a	"<p style=\"color: black; font-size: 80px; padding-left: 17%; padding-right: 9%; padding-top: 43%; padding-bottom: 21%\">+</p>"	n/a	"1483"	n/a	n/a	n/a	n/a	n/a	n/a	n/a	n/a	n/a
n/a	"image-keyboard-response"	"69"	"325329"	"0.0-4.0-2.0-1.8"	"1tavm8"	"600"	"1366"	"chrome"	"108.0.0"	"FALSE"	"Windows 10"	"60.84"	n/a	n/a	n/a	n/a	n/a	n/a	"Trial"	n/a	n/a	n/a	n/a	"NULL"	"NULL"	"NULL"	"455"	"stimuli/Ebbinghaus_-0.61429_-0.2150.png"	"arrowright"	n/a	"Ebbinghaus"	"arrowright"	"1491"	"TRUE"	"Ebbinghaus"	"-0.614290000"	"-0.215000000"	"1"	"27"
n/a	"html-keyboard-response"	"70"	"326749"	"0.0-4.0-2.0-0.9"	"1tavm8"	"600"	"1366"	"chrome"	"108.0.0"	"FALSE"	"Windows 10"	"60.84"	n/a	n/a	n/a	n/a	n/a	n/a	"fixation"	n/a	n/a	n/a	n/a	"NULL"	"NULL"	"NULL"	n/a	"<p style=\"color: black; font-size: 80px; padding-left: 17%; padding-right: 22%; padding-top: 22%; padding-bottom: 23%\">+</p>"	n/a	"1402"	n/a	n/a	n/a	n/a	n/a	n/a	n/a	n/a	n/a
n/a	"image-keyboard-response"	"71"	"327147"	"0.0-4.0-2.0-1.9"	"1tavm8"	"600"	"1366"	"chrome"	"108.0.0"	"FALSE"	"Windows 10"	"60.84"	n/a	n/a	n/a	n/a	n/a	n/a	"Trial"	n/a	n/a	n/a	n/a	"NULL"	"NULL"	"NULL"	"396"	"stimuli/Ebbinghaus_0.61429_0.21500.png"	"arrowright"	n/a	"Ebbinghaus"	"arrowleft"	"1420"	"FALSE"	"Ebbinghaus"	"0.6142900000"	"0.2150000000"	"1"	"28"
n/a	"html-keyboard-response"	"72"	"328439"	"0.0-4.0-2.0-0.10"	"1tavm8"	"600"	"1366"	"chrome"	"108.0.0"	"FALSE"	"Windows 10"	"60.84"	n/a	n/a	n/a	n/a	n/a	n/a	"fixation"	n/a	n/a	n/a	n/a	"NULL"	"NULL"	"NULL"	n/a	"<p style=\"color: black; font-size: 80px; padding-left: 47%; padding-right: 14%; padding-top: 5%; padding-bottom: 26%\">+</p>"	n/a	"1276"	n/a	n/a	n/a	n/a	n/a	n/a	n/a	n/a	n/a
n/a	"image-keyboard-response"	"73"	"328851"	"0.0-4.0-2.0-1.10"	"1tavm8"	"600"	"1366"	"chrome"	"108.0.0"	"FALSE"	"Windows 10"	"60.84"	n/a	n/a	n/a	n/a	n/a	n/a	"Trial"	n/a	n/a	n/a	n/a	"NULL"	"NULL"	"NULL"	"410"	"stimuli/Ebbinghaus_0.61429_-0.2800.png"	"arrowright"	n/a	"Ebbinghaus"	"arrowright"	"1292"	"TRUE"	"Ebbinghaus"	"0.6142900000"	"-0.280000000"	"1"	"29"
n/a	"html-keyboard-response"	"74"	"330324"	"0.0-4.0-2.0-0.11"	"1tavm8"	"600"	"1366"	"chrome"	"108.0.0"	"FALSE"	"Windows 10"	"60.84"	n/a	n/a	n/a	n/a	n/a	n/a	"fixation"	n/a	n/a	n/a	n/a	"NULL"	"NULL"	"NULL"	n/a	"<p style=\"color: black; font-size: 80px; padding-left: 10%; padding-right: 3%; padding-top: 40%; padding-bottom: 12%\">+</p>"	n/a	"1456"	n/a	n/a	n/a	n/a	n/a	n/a	n/a	n/a	n/a
n/a	"image-keyboard-response"	"75"	"330729"	"0.0-4.0-2.0-1.11"	"1tavm8"	"600"	"1366"	"chrome"	"108.0.0"	"FALSE"	"Windows 10"	"60.84"	n/a	n/a	n/a	n/a	n/a	n/a	"Trial"	n/a	n/a	n/a	n/a	"NULL"	"NULL"	"NULL"	"403"	"stimuli/Ebbinghaus_0.35714_-0.2150.png"	"arrowright"	n/a	"Ebbinghaus"	"arrowright"	"1473"	"TRUE"	"Ebbinghaus"	"0.3571400000"	"-0.215000000"	"1"	"30"
n/a	"html-keyboard-response"	"76"	"331927"	"0.0-4.0-2.0-0.12"	"1tavm8"	"600"	"1366"	"chrome"	"108.0.0"	"FALSE"	"Windows 10"	"60.84"	n/a	n/a	n/a	n/a	n/a	n/a	"fixation"	n/a	n/a	n/a	n/a	"NULL"	"NULL"	"NULL"	n/a	"<p style=\"color: black; font-size: 80px; padding-left: 44%; padding-right: 7%; padding-top: 41%; padding-bottom: 49%\">+</p>"	n/a	"1182"	n/a	n/a	n/a	n/a	n/a	n/a	n/a	n/a	n/a
n/a	"image-keyboard-response"	"77"	"332338"	"0.0-4.0-2.0-1.12"	"1tavm8"	"600"	"1366"	"chrome"	"108.0.0"	"FALSE"	"Windows 10"	"60.84"	n/a	n/a	n/a	n/a	n/a	n/a	"Trial"	n/a	n/a	n/a	n/a	"NULL"	"NULL"	"NULL"	"409"	"stimuli/Ebbinghaus_0.10000_0.15857.png"	"arrowright"	n/a	"Ebbinghaus"	"arrowleft"	"1198"	"FALSE"	"Ebbinghaus"	"0.1000000000"	"0.1585700000"	"1"	"31"
n/a	"html-keyboard-response"	"78"	"333809"	"0.0-4.0-2.0-0.13"	"1tavm8"	"600"	"1366"	"chrome"	"108.0.0"	"FALSE"	"Windows 10"	"60.84"	n/a	n/a	n/a	n/a	n/a	n/a	"fixation"	n/a	n/a	n/a	n/a	"NULL"	"NULL"	"NULL"	n/a	"<p style=\"color: black; font-size: 80px; padding-left: 28%; padding-right: 2%; padding-top: 15%; padding-bottom: 49%\">+</p>"	n/a	"1457"	n/a	n/a	n/a	n/a	n/a	n/a	n/a	n/a	n/a
n/a	"image-keyboard-response"	"79"	"334321"	"0.0-4.0-2.0-1.13"	"1tavm8"	"600"	"1366"	"chrome"	"108.0.0"	"FALSE"	"Windows 10"	"60.84"	n/a	n/a	n/a	n/a	n/a	n/a	"Trial"	n/a	n/a	n/a	n/a	"NULL"	"NULL"	"NULL"	"499"	"stimuli/Ebbinghaus_-0.1000_-0.2800.png"	"arrowright"	n/a	"Ebbinghaus"	"arrowright"	"1471"	"TRUE"	"Ebbinghaus"	"-0.100000000"	"-0.280000000"	"1"	"32"
n/a	"html-keyboard-response"	"80"	"335511"	"0.0-4.0-2.0-0.14"	"1tavm8"	"600"	"1366"	"chrome"	"108.0.0"	"FALSE"	"Windows 10"	"60.84"	n/a	n/a	n/a	n/a	n/a	n/a	"fixation"	n/a	n/a	n/a	n/a	"NULL"	"NULL"	"NULL"	n/a	"<p style=\"color: black; font-size: 80px; padding-left: 37%; padding-right: 8%; padding-top: 46%; padding-bottom: 8%\">+</p>"	n/a	"1172"	n/a	n/a	n/a	n/a	n/a	n/a	n/a	n/a	n/a
n/a	"image-keyboard-response"	"81"	"335881"	"0.0-4.0-2.0-1.14"	"1tavm8"	"600"	"1366"	"chrome"	"108.0.0"	"FALSE"	"Windows 10"	"60.84"	n/a	n/a	n/a	n/a	n/a	n/a	"Trial"	n/a	n/a	n/a	n/a	"NULL"	"NULL"	"NULL"	"369"	"stimuli/Ebbinghaus_-0.1000_-0.2150.png"	"arrowright"	n/a	"Ebbinghaus"	"arrowright"	"1190"	"TRUE"	"Ebbinghaus"	"-0.100000000"	"-0.215000000"	"1"	"33"
n/a	"html-keyboard-response"	"82"	"337192"	"0.0-4.0-2.0-0.15"	"1tavm8"	"600"	"1366"	"chrome"	"108.0.0"	"FALSE"	"Windows 10"	"60.84"	n/a	n/a	n/a	n/a	n/a	n/a	"fixation"	n/a	n/a	n/a	n/a	"NULL"	"NULL"	"NULL"	n/a	"<p style=\"color: black; font-size: 80px; padding-left: 38%; padding-right: 8%; padding-top: 1%; padding-bottom: 24%\">+</p>"	n/a	"1291"	n/a	n/a	n/a	n/a	n/a	n/a	n/a	n/a	n/a
n/a	"image-keyboard-response"	"83"	"337686"	"0.0-4.0-2.0-1.15"	"1tavm8"	"600"	"1366"	"chrome"	"108.0.0"	"FALSE"	"Windows 10"	"60.84"	n/a	n/a	n/a	n/a	n/a	n/a	"Trial"	n/a	n/a	n/a	n/a	"NULL"	"NULL"	"NULL"	"492"	"stimuli/Ebbinghaus_0.10000_0.11071.png"	"arrowleft"	n/a	"Ebbinghaus"	"arrowleft"	"1311"	"TRUE"	"Ebbinghaus"	"0.1000000000"	"0.1107100000"	"1"	"34"
n/a	"html-keyboard-response"	"84"	"338730"	"0.0-4.0-2.0-0.16"	"1tavm8"	"600"	"1366"	"chrome"	"108.0.0"	"FALSE"	"Windows 10"	"60.84"	n/a	n/a	n/a	n/a	n/a	n/a	"fixation"	n/a	n/a	n/a	n/a	"NULL"	"NULL"	"NULL"	n/a	"<p style=\"color: black; font-size: 80px; padding-left: 30%; padding-right: 32%; padding-top: 26%; padding-bottom: 39%\">+</p>"	n/a	"1019"	n/a	n/a	n/a	n/a	n/a	n/a	n/a	n/a	n/a
n/a	"image-keyboard-response"	"85"	"339189"	"0.0-4.0-2.0-1.16"	"1tavm8"	"600"	"1366"	"chrome"	"108.0.0"	"FALSE"	"Windows 10"	"60.84"	n/a	n/a	n/a	n/a	n/a	n/a	"Trial"	n/a	n/a	n/a	n/a	"NULL"	"NULL"	"NULL"	"458"	"stimuli/Ebbinghaus_-0.87143_-0.11071.png"	"arrowright"	n/a	"Ebbinghaus"	"arrowright"	"1044"	"TRUE"	"Ebbinghaus"	"-0.871430000"	"-0.110710000"	"1"	"35"
n/a	"html-keyboard-response"	"86"	"340355"	"0.0-4.0-2.0-0.17"	"1tavm8"	"600"	"1366"	"chrome"	"108.0.0"	"FALSE"	"Windows 10"	"60.84"	n/a	n/a	n/a	n/a	n/a	n/a	"fixation"	n/a	n/a	n/a	n/a	"NULL"	"NULL"	"NULL"	n/a	"<p style=\"color: black; font-size: 80px; padding-left: 44%; padding-right: 30%; padding-top: 3%; padding-bottom: 42%\">+</p>"	n/a	"1150"	n/a	n/a	n/a	n/a	n/a	n/a	n/a	n/a	n/a
n/a	"image-keyboard-response"	"87"	"340671"	"0.0-4.0-2.0-1.17"	"1tavm8"	"600"	"1366"	"chrome"	"108.0.0"	"FALSE"	"Windows 10"	"60.84"	n/a	n/a	n/a	n/a	n/a	n/a	"Trial"	n/a	n/a	n/a	n/a	"NULL"	"NULL"	"NULL"	"315"	"stimuli/Ebbinghaus_0.35714_0.28000.png"	"arrowleft"	n/a	"Ebbinghaus"	"arrowleft"	"1166"	"TRUE"	"Ebbinghaus"	"0.3571400000"	"0.2800000000"	"1"	"36"
n/a	"html-keyboard-response"	"88"	"341858"	"0.0-4.0-2.0-0.18"	"1tavm8"	"600"	"1366"	"chrome"	"108.0.0"	"FALSE"	"Windows 10"	"60.84"	n/a	n/a	n/a	n/a	n/a	n/a	"fixation"	n/a	n/a	n/a	n/a	"NULL"	"NULL"	"NULL"	n/a	"<p style=\"color: black; font-size: 80px; padding-left: 44%; padding-right: 48%; padding-top: 15%; padding-bottom: 12%\">+</p>"	n/a	"1172"	n/a	n/a	n/a	n/a	n/a	n/a	n/a	n/a	n/a
n/a	"image-keyboard-response"	"89"	"342269"	"0.0-4.0-2.0-1.18"	"1tavm8"	"600"	"1366"	"chrome"	"108.0.0"	"FALSE"	"Windows 10"	"60.84"	n/a	n/a	n/a	n/a	n/a	n/a	"Trial"	n/a	n/a	n/a	n/a	"NULL"	"NULL"	"NULL"	"410"	"stimuli/Ebbinghaus_-0.1000_-0.15857.png"	"arrowright"	n/a	"Ebbinghaus"	"arrowright"	"1187"	"TRUE"	"Ebbinghaus"	"-0.100000000"	"-0.158570000"	"1"	"37"
n/a	"html-keyboard-response"	"90"	"343737"	"0.0-4.0-2.0-0.19"	"1tavm8"	"600"	"1366"	"chrome"	"108.0.0"	"FALSE"	"Windows 10"	"60.84"	n/a	n/a	n/a	n/a	n/a	n/a	"fixation"	n/a	n/a	n/a	n/a	"NULL"	"NULL"	"NULL"	n/a	"<p style=\"color: black; font-size: 80px; padding-left: 48%; padding-right: 22%; padding-top: 45%; padding-bottom: 5%\">+</p>"	n/a	"1458"	n/a	n/a	n/a	n/a	n/a	n/a	n/a	n/a	n/a
n/a	"image-keyboard-response"	"91"	"344199"	"0.0-4.0-2.0-1.19"	"1tavm8"	"600"	"1366"	"chrome"	"108.0.0"	"FALSE"	"Windows 10"	"60.84"	n/a	n/a	n/a	n/a	n/a	n/a	"Trial"	n/a	n/a	n/a	n/a	"NULL"	"NULL"	"NULL"	"461"	"stimuli/Ebbinghaus_0.61429_-0.15857.png"	"arrowright"	n/a	"Ebbinghaus"	"arrowright"	"1468"	"TRUE"	"Ebbinghaus"	"0.6142900000"	"-0.158570000"	"1"	"38"
n/a	"html-keyboard-response"	"92"	"345324"	"0.0-4.0-2.0-0.20"	"1tavm8"	"600"	"1366"	"chrome"	"108.0.0"	"FALSE"	"Windows 10"	"60.84"	n/a	n/a	n/a	n/a	n/a	n/a	"fixation"	n/a	n/a	n/a	n/a	"NULL"	"NULL"	"NULL"	n/a	"<p style=\"color: black; font-size: 80px; padding-left: 17%; padding-right: 14%; padding-top: 35%; padding-bottom: 9%\">+</p>"	n/a	"1119"	n/a	n/a	n/a	n/a	n/a	n/a	n/a	n/a	n/a
n/a	"image-keyboard-response"	"93"	"345757"	"0.0-4.0-2.0-1.20"	"1tavm8"	"600"	"1366"	"chrome"	"108.0.0"	"FALSE"	"Windows 10"	"60.84"	n/a	n/a	n/a	n/a	n/a	n/a	"Trial"	n/a	n/a	n/a	n/a	"NULL"	"NULL"	"NULL"	"430"	"stimuli/Ebbinghaus_0.87143_0.28000.png"	"arrowleft"	n/a	"Ebbinghaus"	"arrowleft"	"1125"	"TRUE"	"Ebbinghaus"	"0.8714300000"	"0.2800000000"	"1"	"39"
n/a	"html-keyboard-response"	"94"	"347093"	"0.0-4.0-2.0-0.21"	"1tavm8"	"600"	"1366"	"chrome"	"108.0.0"	"FALSE"	"Windows 10"	"60.84"	n/a	n/a	n/a	n/a	n/a	n/a	"fixation"	n/a	n/a	n/a	n/a	"NULL"	"NULL"	"NULL"	n/a	"<p style=\"color: black; font-size: 80px; padding-left: 5%; padding-right: 42%; padding-top: 16%; padding-bottom: 15%\">+</p>"	n/a	"1320"	n/a	n/a	n/a	n/a	n/a	n/a	n/a	n/a	n/a
n/a	"image-keyboard-response"	"95"	"347533"	"0.0-4.0-2.0-1.21"	"1tavm8"	"600"	"1366"	"chrome"	"108.0.0"	"FALSE"	"Windows 10"	"60.84"	n/a	n/a	n/a	n/a	n/a	n/a	"Trial"	n/a	n/a	n/a	n/a	"NULL"	"NULL"	"NULL"	"439"	"stimuli/Ebbinghaus_-0.87143_0.21500.png"	"arrowleft"	n/a	"Ebbinghaus"	"arrowleft"	"1336"	"TRUE"	"Ebbinghaus"	"-0.871430000"	"0.2150000000"	"1"	"40"
n/a	"html-keyboard-response"	"96"	"348725"	"0.0-4.0-2.0-0.22"	"1tavm8"	"600"	"1366"	"chrome"	"108.0.0"	"FALSE"	"Windows 10"	"60.84"	n/a	n/a	n/a	n/a	n/a	n/a	"fixation"	n/a	n/a	n/a	n/a	"NULL"	"NULL"	"NULL"	n/a	"<p style=\"color: black; font-size: 80px; padding-left: 40%; padding-right: 8%; padding-top: 34%; padding-bottom: 32%\">+</p>"	n/a	"1187"	n/a	n/a	n/a	n/a	n/a	n/a	n/a	n/a	n/a
n/a	"image-keyboard-response"	"97"	"349214"	"0.0-4.0-2.0-1.22"	"1tavm8"	"600"	"1366"	"chrome"	"108.0.0"	"FALSE"	"Windows 10"	"60.84"	n/a	n/a	n/a	n/a	n/a	n/a	"Trial"	n/a	n/a	n/a	n/a	"NULL"	"NULL"	"NULL"	"477"	"stimuli/Ebbinghaus_-0.61429_0.11071.png"	"arrowright"	n/a	"Ebbinghaus"	"arrowleft"	"1192"	"FALSE"	"Ebbinghaus"	"-0.614290000"	"0.1107100000"	"1"	"41"
n/a	"html-keyboard-response"	"98"	"350356"	"0.0-4.0-2.0-0.23"	"1tavm8"	"600"	"1366"	"chrome"	"108.0.0"	"FALSE"	"Windows 10"	"60.84"	n/a	n/a	n/a	n/a	n/a	n/a	"fixation"	n/a	n/a	n/a	n/a	"NULL"	"NULL"	"NULL"	n/a	"<p style=\"color: black; font-size: 80px; padding-left: 4%; padding-right: 1%; padding-top: 18%; padding-bottom: 34%\">+</p>"	n/a	"1134"	n/a	n/a	n/a	n/a	n/a	n/a	n/a	n/a	n/a
n/a	"image-keyboard-response"	"99"	"351034"	"0.0-4.0-2.0-1.23"	"1tavm8"	"600"	"1366"	"chrome"	"108.0.0"	"FALSE"	"Windows 10"	"60.84"	n/a	n/a	n/a	n/a	n/a	n/a	"Trial"	n/a	n/a	n/a	n/a	"NULL"	"NULL"	"NULL"	"676"	"stimuli/Ebbinghaus_0.87143_-0.15857.png"	"arrowright"	n/a	"Ebbinghaus"	"arrowright"	"1142"	"TRUE"	"Ebbinghaus"	"0.8714300000"	"-0.158570000"	"1"	"42"
n/a	"html-keyboard-response"	"100"	"352253"	"0.0-4.0-2.0-0.24"	"1tavm8"	"600"	"1366"	"chrome"	"108.0.0"	"FALSE"	"Windows 10"	"60.84"	n/a	n/a	n/a	n/a	n/a	n/a	"fixation"	n/a	n/a	n/a	n/a	"NULL"	"NULL"	"NULL"	n/a	"<p style=\"color: black; font-size: 80px; padding-left: 32%; padding-right: 19%; padding-top: 22%; padding-bottom: 12%\">+</p>"	n/a	"1201"	n/a	n/a	n/a	n/a	n/a	n/a	n/a	n/a	n/a
n/a	"image-keyboard-response"	"101"	"352659"	"0.0-4.0-2.0-1.24"	"1tavm8"	"600"	"1366"	"chrome"	"108.0.0"	"FALSE"	"Windows 10"	"60.84"	n/a	n/a	n/a	n/a	n/a	n/a	"Trial"	n/a	n/a	n/a	n/a	"NULL"	"NULL"	"NULL"	"404"	"stimuli/Ebbinghaus_-0.87143_0.28000.png"	"arrowleft"	n/a	"Ebbinghaus"	"arrowleft"	"1219"	"TRUE"	"Ebbinghaus"	"-0.871430000"	"0.2800000000"	"1"	"43"
n/a	"html-keyboard-response"	"102"	"354100"	"0.0-4.0-2.0-0.25"	"1tavm8"	"600"	"1366"	"chrome"	"108.0.0"	"FALSE"	"Windows 10"	"60.84"	n/a	n/a	n/a	n/a	n/a	n/a	"fixation"	n/a	n/a	n/a	n/a	"NULL"	"NULL"	"NULL"	n/a	"<p style=\"color: black; font-size: 80px; padding-left: 41%; padding-right: 5%; padding-top: 17%; padding-bottom: 50%\">+</p>"	n/a	"1426"	n/a	n/a	n/a	n/a	n/a	n/a	n/a	n/a	n/a
n/a	"image-keyboard-response"	"103"	"354510"	"0.0-4.0-2.0-1.25"	"1tavm8"	"600"	"1366"	"chrome"	"108.0.0"	"FALSE"	"Windows 10"	"60.84"	n/a	n/a	n/a	n/a	n/a	n/a	"Trial"	n/a	n/a	n/a	n/a	"NULL"	"NULL"	"NULL"	"410"	"stimuli/Ebbinghaus_-0.35714_-0.2800.png"	"arrowleft"	n/a	"Ebbinghaus"	"arrowright"	"1441"	"FALSE"	"Ebbinghaus"	"-0.357140000"	"-0.280000000"	"1"	"44"
n/a	"html-keyboard-response"	"104"	"355931"	"0.0-4.0-2.0-0.26"	"1tavm8"	"600"	"1366"	"chrome"	"108.0.0"	"FALSE"	"Windows 10"	"60.84"	n/a	n/a	n/a	n/a	n/a	n/a	"fixation"	n/a	n/a	n/a	n/a	"NULL"	"NULL"	"NULL"	n/a	"<p style=\"color: black; font-size: 80px; padding-left: 30%; padding-right: 24%; padding-top: 19%; padding-bottom: 38%\">+</p>"	n/a	"1410"	n/a	n/a	n/a	n/a	n/a	n/a	n/a	n/a	n/a
n/a	"image-keyboard-response"	"105"	"356420"	"0.0-4.0-2.0-1.26"	"1tavm8"	"600"	"1366"	"chrome"	"108.0.0"	"FALSE"	"Windows 10"	"60.84"	n/a	n/a	n/a	n/a	n/a	n/a	"Trial"	n/a	n/a	n/a	n/a	"NULL"	"NULL"	"NULL"	"488"	"stimuli/Ebbinghaus_0.10000_0.28000.png"	"arrowleft"	n/a	"Ebbinghaus"	"arrowleft"	"1421"	"TRUE"	"Ebbinghaus"	"0.1000000000"	"0.2800000000"	"1"	"45"
n/a	"html-keyboard-response"	"106"	"357480"	"0.0-4.0-2.0-0.27"	"1tavm8"	"600"	"1366"	"chrome"	"108.0.0"	"FALSE"	"Windows 10"	"60.84"	n/a	n/a	n/a	n/a	n/a	n/a	"fixation"	n/a	n/a	n/a	n/a	"NULL"	"NULL"	"NULL"	n/a	"<p style=\"color: black; font-size: 80px; padding-left: 1%; padding-right: 3%; padding-top: 32%; padding-bottom: 10%\">+</p>"	n/a	"1051"	n/a	n/a	n/a	n/a	n/a	n/a	n/a	n/a	n/a
n/a	"image-keyboard-response"	"107"	"358002"	"0.0-4.0-2.0-1.27"	"1tavm8"	"600"	"1366"	"chrome"	"108.0.0"	"FALSE"	"Windows 10"	"60.84"	n/a	n/a	n/a	n/a	n/a	n/a	"Trial"	n/a	n/a	n/a	n/a	"NULL"	"NULL"	"NULL"	"517"	"stimuli/Ebbinghaus_-0.87143_-0.2150.png"	"arrowright"	n/a	"Ebbinghaus"	"arrowright"	"1060"	"TRUE"	"Ebbinghaus"	"-0.871430000"	"-0.215000000"	"1"	"46"
n/a	"html-keyboard-response"	"108"	"359488"	"0.0-4.0-2.0-0.28"	"1tavm8"	"600"	"1366"	"chrome"	"108.0.0"	"FALSE"	"Windows 10"	"60.84"	n/a	n/a	n/a	n/a	n/a	n/a	"fixation"	n/a	n/a	n/a	n/a	"NULL"	"NULL"	"NULL"	n/a	"<p style=\"color: black; font-size: 80px; padding-left: 19%; padding-right: 14%; padding-top: 11%; padding-bottom: 41%\">+</p>"	n/a	"1467"	n/a	n/a	n/a	n/a	n/a	n/a	n/a	n/a	n/a
n/a	"image-keyboard-response"	"109"	"359963"	"0.0-4.0-2.0-1.28"	"1tavm8"	"600"	"1366"	"chrome"	"108.0.0"	"FALSE"	"Windows 10"	"60.84"	n/a	n/a	n/a	n/a	n/a	n/a	"Trial"	n/a	n/a	n/a	n/a	"NULL"	"NULL"	"NULL"	"474"	"stimuli/Ebbinghaus_-0.35714_0.15857.png"	"arrowleft"	n/a	"Ebbinghaus"	"arrowleft"	"1486"	"TRUE"	"Ebbinghaus"	"-0.357140000"	"0.1585700000"	"1"	"47"
n/a	"html-keyboard-response"	"110"	"361305"	"0.0-4.0-2.0-0.29"	"1tavm8"	"600"	"1366"	"chrome"	"108.0.0"	"FALSE"	"Windows 10"	"60.84"	n/a	n/a	n/a	n/a	n/a	n/a	"fixation"	n/a	n/a	n/a	n/a	"NULL"	"NULL"	"NULL"	n/a	"<p style=\"color: black; font-size: 80px; padding-left: 44%; padding-right: 0%; padding-top: 5%; padding-bottom: 16%\">+</p>"	n/a	"1319"	n/a	n/a	n/a	n/a	n/a	n/a	n/a	n/a	n/a
n/a	"image-keyboard-response"	"111"	"361885"	"0.0-4.0-2.0-1.29"	"1tavm8"	"600"	"1366"	"chrome"	"108.0.0"	"FALSE"	"Windows 10"	"60.84"	n/a	n/a	n/a	n/a	n/a	n/a	"Trial"	n/a	n/a	n/a	n/a	"NULL"	"NULL"	"NULL"	"578"	"stimuli/Ebbinghaus_-0.35714_0.21500.png"	"arrowleft"	n/a	"Ebbinghaus"	"arrowleft"	"1342"	"TRUE"	"Ebbinghaus"	"-0.357140000"	"0.2150000000"	"1"	"48"
n/a	"html-keyboard-response"	"112"	"363249"	"0.0-4.0-2.0-0.30"	"1tavm8"	"600"	"1366"	"chrome"	"108.0.0"	"FALSE"	"Windows 10"	"60.84"	n/a	n/a	n/a	n/a	n/a	n/a	"fixation"	n/a	n/a	n/a	n/a	"NULL"	"NULL"	"NULL"	n/a	"<p style=\"color: black; font-size: 80px; padding-left: 27%; padding-right: 5%; padding-top: 28%; padding-bottom: 38%\">+</p>"	n/a	"1353"	n/a	n/a	n/a	n/a	n/a	n/a	n/a	n/a	n/a
n/a	"image-keyboard-response"	"113"	"363605"	"0.0-4.0-2.0-1.30"	"1tavm8"	"600"	"1366"	"chrome"	"108.0.0"	"FALSE"	"Windows 10"	"60.84"	n/a	n/a	n/a	n/a	n/a	n/a	"Trial"	n/a	n/a	n/a	n/a	"NULL"	"NULL"	"NULL"	"354"	"stimuli/Ebbinghaus_-0.35714_-0.11071.png"	"arrowright"	n/a	"Ebbinghaus"	"arrowright"	"1364"	"TRUE"	"Ebbinghaus"	"-0.357140000"	"-0.110710000"	"1"	"49"
n/a	"html-keyboard-response"	"114"	"364835"	"0.0-4.0-2.0-0.31"	"1tavm8"	"600"	"1366"	"chrome"	"108.0.0"	"FALSE"	"Windows 10"	"60.84"	n/a	n/a	n/a	n/a	n/a	n/a	"fixation"	n/a	n/a	n/a	n/a	"NULL"	"NULL"	"NULL"	n/a	"<p style=\"color: black; font-size: 80px; padding-left: 17%; padding-right: 7%; padding-top: 48%; padding-bottom: 43%\">+</p>"	n/a	"1216"	n/a	n/a	n/a	n/a	n/a	n/a	n/a	n/a	n/a
n/a	"image-keyboard-response"	"115"	"365254"	"0.0-4.0-2.0-1.31"	"1tavm8"	"600"	"1366"	"chrome"	"108.0.0"	"FALSE"	"Windows 10"	"60.84"	n/a	n/a	n/a	n/a	n/a	n/a	"Trial"	n/a	n/a	n/a	n/a	"NULL"	"NULL"	"NULL"	"416"	"stimuli/Ebbinghaus_-0.87143_0.11071.png"	"arrowleft"	n/a	"Ebbinghaus"	"arrowleft"	"1230"	"TRUE"	"Ebbinghaus"	"-0.871430000"	"0.1107100000"	"1"	"50"
n/a	"html-keyboard-response"	"116"	"366408"	"0.0-4.0-2.0-0.32"	"1tavm8"	"600"	"1366"	"chrome"	"108.0.0"	"FALSE"	"Windows 10"	"60.84"	n/a	n/a	n/a	n/a	n/a	n/a	"fixation"	n/a	n/a	n/a	n/a	"NULL"	"NULL"	"NULL"	n/a	"<p style=\"color: black; font-size: 80px; padding-left: 10%; padding-right: 14%; padding-top: 12%; padding-bottom: 37%\">+</p>"	n/a	"1145"	n/a	n/a	n/a	n/a	n/a	n/a	n/a	n/a	n/a
n/a	"image-keyboard-response"	"117"	"366868"	"0.0-4.0-2.0-1.32"	"1tavm8"	"600"	"1366"	"chrome"	"108.0.0"	"FALSE"	"Windows 10"	"60.84"	n/a	n/a	n/a	n/a	n/a	n/a	"Trial"	n/a	n/a	n/a	n/a	"NULL"	"NULL"	"NULL"	"459"	"stimuli/Ebbinghaus_0.10000_-0.11071.png"	"arrowleft"	n/a	"Ebbinghaus"	"arrowright"	"1154"	"FALSE"	"Ebbinghaus"	"0.1000000000"	"-0.110710000"	"1"	"51"
n/a	"html-keyboard-response"	"118"	"367935"	"0.0-4.0-2.0-0.33"	"1tavm8"	"600"	"1366"	"chrome"	"108.0.0"	"FALSE"	"Windows 10"	"60.84"	n/a	n/a	n/a	n/a	n/a	n/a	"fixation"	n/a	n/a	n/a	n/a	"NULL"	"NULL"	"NULL"	n/a	"<p style=\"color: black; font-size: 80px; padding-left: 30%; padding-right: 33%; padding-top: 38%; padding-bottom: 32%\">+</p>"	n/a	"1060"	n/a	n/a	n/a	n/a	n/a	n/a	n/a	n/a	n/a
n/a	"image-keyboard-response"	"119"	"368395"	"0.0-4.0-2.0-1.33"	"1tavm8"	"600"	"1366"	"chrome"	"108.0.0"	"FALSE"	"Windows 10"	"60.84"	n/a	n/a	n/a	n/a	n/a	n/a	"Trial"	n/a	n/a	n/a	n/a	"NULL"	"NULL"	"NULL"	"459"	"stimuli/Ebbinghaus_0.10000_-0.2800.png"	"arrowright"	n/a	"Ebbinghaus"	"arrowright"	"1067"	"TRUE"	"Ebbinghaus"	"0.1000000000"	"-0.280000000"	"1"	"52"
n/a	"html-keyboard-response"	"120"	"369852"	"0.0-4.0-2.0-0.34"	"1tavm8"	"600"	"1366"	"chrome"	"108.0.0"	"FALSE"	"Windows 10"	"60.84"	n/a	n/a	n/a	n/a	n/a	n/a	"fixation"	n/a	n/a	n/a	n/a	"NULL"	"NULL"	"NULL"	n/a	"<p style=\"color: black; font-size: 80px; padding-left: 25%; padding-right: 16%; padding-top: 26%; padding-bottom: 36%\">+</p>"	n/a	"1454"	n/a	n/a	n/a	n/a	n/a	n/a	n/a	n/a	n/a
n/a	"image-keyboard-response"	"121"	"370392"	"0.0-4.0-2.0-1.34"	"1tavm8"	"600"	"1366"	"chrome"	"108.0.0"	"FALSE"	"Windows 10"	"60.84"	n/a	n/a	n/a	n/a	n/a	n/a	"Trial"	n/a	n/a	n/a	n/a	"NULL"	"NULL"	"NULL"	"539"	"stimuli/Ebbinghaus_0.87143_-0.11071.png"	"arrowleft"	n/a	"Ebbinghaus"	"arrowright"	"1457"	"FALSE"	"Ebbinghaus"	"0.8714300000"	"-0.110710000"	"1"	"53"
n/a	"html-keyboard-response"	"122"	"371723"	"0.0-4.0-2.0-0.35"	"1tavm8"	"600"	"1366"	"chrome"	"108.0.0"	"FALSE"	"Windows 10"	"60.84"	n/a	n/a	n/a	n/a	n/a	n/a	"fixation"	n/a	n/a	n/a	n/a	"NULL"	"NULL"	"NULL"	n/a	"<p style=\"color: black; font-size: 80px; padding-left: 5%; padding-right: 40%; padding-top: 18%; padding-bottom: 36%\">+</p>"	n/a	"1327"	n/a	n/a	n/a	n/a	n/a	n/a	n/a	n/a	n/a
n/a	"image-keyboard-response"	"123"	"372086"	"0.0-4.0-2.0-1.35"	"1tavm8"	"600"	"1366"	"chrome"	"108.0.0"	"FALSE"	"Windows 10"	"60.84"	n/a	n/a	n/a	n/a	n/a	n/a	"Trial"	n/a	n/a	n/a	n/a	"NULL"	"NULL"	"NULL"	"361"	"stimuli/Ebbinghaus_-0.1000_0.28000.png"	"arrowleft"	n/a	"Ebbinghaus"	"arrowleft"	"1331"	"TRUE"	"Ebbinghaus"	"-0.100000000"	"0.2800000000"	"1"	"54"
n/a	"html-keyboard-response"	"124"	"373198"	"0.0-4.0-2.0-0.36"	"1tavm8"	"600"	"1366"	"chrome"	"108.0.0"	"FALSE"	"Windows 10"	"60.84"	n/a	n/a	n/a	n/a	n/a	n/a	"fixation"	n/a	n/a	n/a	n/a	"NULL"	"NULL"	"NULL"	n/a	"<p style=\"color: black; font-size: 80px; padding-left: 4%; padding-right: 42%; padding-top: 45%; padding-bottom: 32%\">+</p>"	n/a	"1095"	n/a	n/a	n/a	n/a	n/a	n/a	n/a	n/a	n/a
n/a	"image-keyboard-response"	"125"	"373635"	"0.0-4.0-2.0-1.36"	"1tavm8"	"600"	"1366"	"chrome"	"108.0.0"	"FALSE"	"Windows 10"	"60.84"	n/a	n/a	n/a	n/a	n/a	n/a	"Trial"	n/a	n/a	n/a	n/a	"NULL"	"NULL"	"NULL"	"435"	"stimuli/Ebbinghaus_-0.61429_0.28000.png"	"arrowleft"	n/a	"Ebbinghaus"	"arrowleft"	"1112"	"TRUE"	"Ebbinghaus"	"-0.614290000"	"0.2800000000"	"1"	"55"
n/a	"html-keyboard-response"	"126"	"375143"	"0.0-4.0-2.0-0.37"	"1tavm8"	"600"	"1366"	"chrome"	"108.0.0"	"FALSE"	"Windows 10"	"60.84"	n/a	n/a	n/a	n/a	n/a	n/a	"fixation"	n/a	n/a	n/a	n/a	"NULL"	"NULL"	"NULL"	n/a	"<p style=\"color: black; font-size: 80px; padding-left: 19%; padding-right: 10%; padding-top: 31%; padding-bottom: 16%\">+</p>"	n/a	"1498"	n/a	n/a	n/a	n/a	n/a	n/a	n/a	n/a	n/a
n/a	"image-keyboard-response"	"127"	"375524"	"0.0-4.0-2.0-1.37"	"1tavm8"	"600"	"1366"	"chrome"	"108.0.0"	"FALSE"	"Windows 10"	"60.84"	n/a	n/a	n/a	n/a	n/a	n/a	"Trial"	n/a	n/a	n/a	n/a	"NULL"	"NULL"	"NULL"	"379"	"stimuli/Ebbinghaus_-0.1000_0.21500.png"	"arrowright"	n/a	"Ebbinghaus"	"arrowleft"	"1508"	"FALSE"	"Ebbinghaus"	"-0.100000000"	"0.2150000000"	"1"	"56"
n/a	"html-keyboard-response"	"128"	"377029"	"0.0-4.0-2.0-0.38"	"1tavm8"	"600"	"1366"	"chrome"	"108.0.0"	"FALSE"	"Windows 10"	"60.84"	n/a	n/a	n/a	n/a	n/a	n/a	"fixation"	n/a	n/a	n/a	n/a	"NULL"	"NULL"	"NULL"	n/a	"<p style=\"color: black; font-size: 80px; padding-left: 4%; padding-right: 19%; padding-top: 8%; padding-bottom: 22%\">+</p>"	n/a	"1493"	n/a	n/a	n/a	n/a	n/a	n/a	n/a	n/a	n/a
n/a	"image-keyboard-response"	"129"	"377483"	"0.0-4.0-2.0-1.38"	"1tavm8"	"600"	"1366"	"chrome"	"108.0.0"	"FALSE"	"Windows 10"	"60.84"	n/a	n/a	n/a	n/a	n/a	n/a	"Trial"	n/a	n/a	n/a	n/a	"NULL"	"NULL"	"NULL"	"453"	"stimuli/Ebbinghaus_-0.35714_-0.2150.png"	"arrowright"	n/a	"Ebbinghaus"	"arrowright"	"1505"	"TRUE"	"Ebbinghaus"	"-0.357140000"	"-0.215000000"	"1"	"57"
n/a	"html-keyboard-response"	"130"	"378975"	"0.0-4.0-2.0-0.39"	"1tavm8"	"600"	"1366"	"chrome"	"108.0.0"	"FALSE"	"Windows 10"	"60.84"	n/a	n/a	n/a	n/a	n/a	n/a	"fixation"	n/a	n/a	n/a	n/a	"NULL"	"NULL"	"NULL"	n/a	"<p style=\"color: black; font-size: 80px; padding-left: 6%; padding-right: 11%; padding-top: 3%; padding-bottom: 24%\">+</p>"	n/a	"1472"	n/a	n/a	n/a	n/a	n/a	n/a	n/a	n/a	n/a
n/a	"image-keyboard-response"	"131"	"379303"	"0.0-4.0-2.0-1.39"	"1tavm8"	"600"	"1366"	"chrome"	"108.0.0"	"FALSE"	"Windows 10"	"60.84"	n/a	n/a	n/a	n/a	n/a	n/a	"Trial"	n/a	n/a	n/a	n/a	"NULL"	"NULL"	"NULL"	"327"	"stimuli/Ebbinghaus_0.35714_-0.2800.png"	"arrowright"	n/a	"Ebbinghaus"	"arrowright"	"1492"	"TRUE"	"Ebbinghaus"	"0.3571400000"	"-0.280000000"	"1"	"58"
n/a	"html-keyboard-response"	"132"	"380369"	"0.0-4.0-2.0-0.40"	"1tavm8"	"600"	"1366"	"chrome"	"108.0.0"	"FALSE"	"Windows 10"	"60.84"	n/a	n/a	n/a	n/a	n/a	n/a	"fixation"	n/a	n/a	n/a	n/a	"NULL"	"NULL"	"NULL"	n/a	"<p style=\"color: black; font-size: 80px; padding-left: 31%; padding-right: 29%; padding-top: 4%; padding-bottom: 49%\">+</p>"	n/a	"1055"	n/a	n/a	n/a	n/a	n/a	n/a	n/a	n/a	n/a
n/a	"image-keyboard-response"	"133"	"380857"	"0.0-4.0-2.0-1.40"	"1tavm8"	"600"	"1366"	"chrome"	"108.0.0"	"FALSE"	"Windows 10"	"60.84"	n/a	n/a	n/a	n/a	n/a	n/a	"Trial"	n/a	n/a	n/a	n/a	"NULL"	"NULL"	"NULL"	"488"	"stimuli/Ebbinghaus_-0.35714_0.28000.png"	"arrowleft"	n/a	"Ebbinghaus"	"arrowleft"	"1066"	"TRUE"	"Ebbinghaus"	"-0.357140000"	"0.2800000000"	"1"	"59"
n/a	"html-keyboard-response"	"134"	"382323"	"0.0-4.0-2.0-0.41"	"1tavm8"	"600"	"1366"	"chrome"	"108.0.0"	"FALSE"	"Windows 10"	"60.84"	n/a	n/a	n/a	n/a	n/a	n/a	"fixation"	n/a	n/a	n/a	n/a	"NULL"	"NULL"	"NULL"	n/a	"<p style=\"color: black; font-size: 80px; padding-left: 28%; padding-right: 13%; padding-top: 28%; padding-bottom: 38%\">+</p>"	n/a	"1449"	n/a	n/a	n/a	n/a	n/a	n/a	n/a	n/a	n/a
n/a	"image-keyboard-response"	"135"	"382516"	"0.0-4.0-2.0-1.41"	"1tavm8"	"600"	"1366"	"chrome"	"108.0.0"	"FALSE"	"Windows 10"	"60.84"	n/a	n/a	n/a	n/a	n/a	n/a	"Trial"	n/a	n/a	n/a	n/a	"NULL"	"NULL"	"NULL"	"192"	"stimuli/Ebbinghaus_-0.35714_0.11071.png"	"arrowleft"	n/a	"Ebbinghaus"	"arrowleft"	"1466"	"TRUE"	"Ebbinghaus"	"-0.357140000"	"0.1107100000"	"1"	"60"
n/a	"html-keyboard-response"	"136"	"383965"	"0.0-4.0-2.0-0.42"	"1tavm8"	"600"	"1366"	"chrome"	"108.0.0"	"FALSE"	"Windows 10"	"60.84"	n/a	n/a	n/a	n/a	n/a	n/a	"fixation"	n/a	n/a	n/a	n/a	"NULL"	"NULL"	"NULL"	n/a	"<p style=\"color: black; font-size: 80px; padding-left: 17%; padding-right: 20%; padding-top: 8%; padding-bottom: 40%\">+</p>"	n/a	"1442"	n/a	n/a	n/a	n/a	n/a	n/a	n/a	n/a	n/a
n/a	"image-keyboard-response"	"137"	"384242"	"0.0-4.0-2.0-1.42"	"1tavm8"	"600"	"1366"	"chrome"	"108.0.0"	"FALSE"	"Windows 10"	"60.84"	n/a	n/a	n/a	n/a	n/a	n/a	"Trial"	n/a	n/a	n/a	n/a	"NULL"	"NULL"	"NULL"	"276"	"stimuli/Ebbinghaus_-0.87143_0.15857.png"	"arrowleft"	n/a	"Ebbinghaus"	"arrowleft"	"1449"	"TRUE"	"Ebbinghaus"	"-0.871430000"	"0.1585700000"	"1"	"61"
n/a	"html-keyboard-response"	"138"	"385637"	"0.0-4.0-2.0-0.43"	"1tavm8"	"600"	"1366"	"chrome"	"108.0.0"	"FALSE"	"Windows 10"	"60.84"	n/a	n/a	n/a	n/a	n/a	n/a	"fixation"	n/a	n/a	n/a	n/a	"NULL"	"NULL"	"NULL"	n/a	"<p style=\"color: black; font-size: 80px; padding-left: 30%; padding-right: 46%; padding-top: 15%; padding-bottom: 9%\">+</p>"	n/a	"1385"	n/a	n/a	n/a	n/a	n/a	n/a	n/a	n/a	n/a
n/a	"image-keyboard-response"	"139"	"385930"	"0.0-4.0-2.0-1.43"	"1tavm8"	"600"	"1366"	"chrome"	"108.0.0"	"FALSE"	"Windows 10"	"60.84"	n/a	n/a	n/a	n/a	n/a	n/a	"Trial"	n/a	n/a	n/a	n/a	"NULL"	"NULL"	"NULL"	"292"	"stimuli/Ebbinghaus_-0.1000_0.15857.png"	"arrowleft"	n/a	"Ebbinghaus"	"arrowleft"	"1395"	"TRUE"	"Ebbinghaus"	"-0.100000000"	"0.1585700000"	"1"	"62"
n/a	"html-keyboard-response"	"140"	"387424"	"0.0-4.0-2.0-0.44"	"1tavm8"	"600"	"1366"	"chrome"	"108.0.0"	"FALSE"	"Windows 10"	"60.84"	n/a	n/a	n/a	n/a	n/a	n/a	"fixation"	n/a	n/a	n/a	n/a	"NULL"	"NULL"	"NULL"	n/a	"<p style=\"color: black; font-size: 80px; padding-left: 6%; padding-right: 26%; padding-top: 38%; padding-bottom: 8%\">+</p>"	n/a	"1484"	n/a	n/a	n/a	n/a	n/a	n/a	n/a	n/a	n/a
n/a	"image-keyboard-response"	"141"	"387765"	"0.0-4.0-2.0-1.44"	"1tavm8"	"600"	"1366"	"chrome"	"108.0.0"	"FALSE"	"Windows 10"	"60.84"	n/a	n/a	n/a	n/a	n/a	n/a	"Trial"	n/a	n/a	n/a	n/a	"NULL"	"NULL"	"NULL"	"340"	"stimuli/Ebbinghaus_0.87143_0.15857.png"	"arrowleft"	n/a	"Ebbinghaus"	"arrowleft"	"1494"	"TRUE"	"Ebbinghaus"	"0.8714300000"	"0.1585700000"	"1"	"63"
n/a	"html-keyboard-response"	"142"	"389133"	"0.0-4.0-2.0-0.45"	"1tavm8"	"600"	"1366"	"chrome"	"108.0.0"	"FALSE"	"Windows 10"	"60.84"	n/a	n/a	n/a	n/a	n/a	n/a	"fixation"	n/a	n/a	n/a	n/a	"NULL"	"NULL"	"NULL"	n/a	"<p style=\"color: black; font-size: 80px; padding-left: 30%; padding-right: 48%; padding-top: 45%; padding-bottom: 1%\">+</p>"	n/a	"1350"	n/a	n/a	n/a	n/a	n/a	n/a	n/a	n/a	n/a
n/a	"image-keyboard-response"	"143"	"389504"	"0.0-4.0-2.0-1.45"	"1tavm8"	"600"	"1366"	"chrome"	"108.0.0"	"FALSE"	"Windows 10"	"60.84"	n/a	n/a	n/a	n/a	n/a	n/a	"Trial"	n/a	n/a	n/a	n/a	"NULL"	"NULL"	"NULL"	"368"	"stimuli/Ebbinghaus_-0.61429_0.21500.png"	"arrowleft"	n/a	"Ebbinghaus"	"arrowleft"	"1368"	"TRUE"	"Ebbinghaus"	"-0.614290000"	"0.2150000000"	"1"	"64"
n/a	"html-keyboard-response"	"144"	"390620"	"0.0-4.0-2.0-0.46"	"1tavm8"	"600"	"1366"	"chrome"	"108.0.0"	"FALSE"	"Windows 10"	"60.84"	n/a	n/a	n/a	n/a	n/a	n/a	"fixation"	n/a	n/a	n/a	n/a	"NULL"	"NULL"	"NULL"	n/a	"<p style=\"color: black; font-size: 80px; padding-left: 47%; padding-right: 23%; padding-top: 33%; padding-bottom: 48%\">+</p>"	n/a	"1099"	n/a	n/a	n/a	n/a	n/a	n/a	n/a	n/a	n/a
n/a	"image-keyboard-response"	"145"	"390918"	"0.0-4.0-2.0-1.46"	"1tavm8"	"600"	"1366"	"chrome"	"108.0.0"	"FALSE"	"Windows 10"	"60.84"	n/a	n/a	n/a	n/a	n/a	n/a	"Trial"	n/a	n/a	n/a	n/a	"NULL"	"NULL"	"NULL"	"296"	"stimuli/Ebbinghaus_-0.1000_-0.11071.png"	"arrowleft"	n/a	"Ebbinghaus"	"arrowright"	"1116"	"FALSE"	"Ebbinghaus"	"-0.100000000"	"-0.110710000"	"1"	"65"
n/a	"html-keyboard-response"	"146"	"392368"	"0.0-4.0-2.0-0.47"	"1tavm8"	"600"	"1366"	"chrome"	"108.0.0"	"FALSE"	"Windows 10"	"60.84"	n/a	n/a	n/a	n/a	n/a	n/a	"fixation"	n/a	n/a	n/a	n/a	"NULL"	"NULL"	"NULL"	n/a	"<p style=\"color: black; font-size: 80px; padding-left: 46%; padding-right: 2%; padding-top: 31%; padding-bottom: 48%\">+</p>"	n/a	"1442"	n/a	n/a	n/a	n/a	n/a	n/a	n/a	n/a	n/a
n/a	"image-keyboard-response"	"147"	"392672"	"0.0-4.0-2.0-1.47"	"1tavm8"	"600"	"1366"	"chrome"	"108.0.0"	"FALSE"	"Windows 10"	"60.84"	n/a	n/a	n/a	n/a	n/a	n/a	"Trial"	n/a	n/a	n/a	n/a	"NULL"	"NULL"	"NULL"	"302"	"stimuli/Ebbinghaus_0.87143_-0.2800.png"	"arrowright"	n/a	"Ebbinghaus"	"arrowright"	"1450"	"TRUE"	"Ebbinghaus"	"0.8714300000"	"-0.280000000"	"1"	"66"
n/a	"html-keyboard-response"	"148"	"394001"	"0.0-4.0-2.0-0.48"	"1tavm8"	"600"	"1366"	"chrome"	"108.0.0"	"FALSE"	"Windows 10"	"60.84"	n/a	n/a	n/a	n/a	n/a	n/a	"fixation"	n/a	n/a	n/a	n/a	"NULL"	"NULL"	"NULL"	n/a	"<p style=\"color: black; font-size: 80px; padding-left: 48%; padding-right: 49%; padding-top: 49%; padding-bottom: 9%\">+</p>"	n/a	"1317"	n/a	n/a	n/a	n/a	n/a	n/a	n/a	n/a	n/a
n/a	"image-keyboard-response"	"149"	"394348"	"0.0-4.0-2.0-1.48"	"1tavm8"	"600"	"1366"	"chrome"	"108.0.0"	"FALSE"	"Windows 10"	"60.84"	n/a	n/a	n/a	n/a	n/a	n/a	"Trial"	n/a	n/a	n/a	n/a	"NULL"	"NULL"	"NULL"	"346"	"stimuli/Ebbinghaus_-0.61429_-0.2800.png"	"arrowleft"	n/a	"Ebbinghaus"	"arrowright"	"1329"	"FALSE"	"Ebbinghaus"	"-0.614290000"	"-0.280000000"	"1"	"67"
n/a	"html-keyboard-response"	"150"	"395759"	"0.0-4.0-2.0-0.49"	"1tavm8"	"600"	"1366"	"chrome"	"108.0.0"	"FALSE"	"Windows 10"	"60.84"	n/a	n/a	n/a	n/a	n/a	n/a	"fixation"	n/a	n/a	n/a	n/a	"NULL"	"NULL"	"NULL"	n/a	"<p style=\"color: black; font-size: 80px; padding-left: 23%; padding-right: 9%; padding-top: 7%; padding-bottom: 16%\">+</p>"	n/a	"1391"	n/a	n/a	n/a	n/a	n/a	n/a	n/a	n/a	n/a
n/a	"image-keyboard-response"	"151"	"396217"	"0.0-4.0-2.0-1.49"	"1tavm8"	"600"	"1366"	"chrome"	"108.0.0"	"FALSE"	"Windows 10"	"60.84"	n/a	n/a	n/a	n/a	n/a	n/a	"Trial"	n/a	n/a	n/a	n/a	"NULL"	"NULL"	"NULL"	"456"	"stimuli/Ebbinghaus_0.61429_-0.11071.png"	"arrowleft"	n/a	"Ebbinghaus"	"arrowright"	"1411"	"FALSE"	"Ebbinghaus"	"0.6142900000"	"-0.110710000"	"1"	"68"
n/a	"html-keyboard-response"	"152"	"397465"	"0.0-4.0-2.0-0.50"	"1tavm8"	"600"	"1366"	"chrome"	"108.0.0"	"FALSE"	"Windows 10"	"60.84"	n/a	n/a	n/a	n/a	n/a	n/a	"fixation"	n/a	n/a	n/a	n/a	"NULL"	"NULL"	"NULL"	n/a	"<p style=\"color: black; font-size: 80px; padding-left: 47%; padding-right: 25%; padding-top: 25%; padding-bottom: 38%\">+</p>"	n/a	"1237"	n/a	n/a	n/a	n/a	n/a	n/a	n/a	n/a	n/a
n/a	"image-keyboard-response"	"153"	"397880"	"0.0-4.0-2.0-1.50"	"1tavm8"	"600"	"1366"	"chrome"	"108.0.0"	"FALSE"	"Windows 10"	"60.84"	n/a	n/a	n/a	n/a	n/a	n/a	"Trial"	n/a	n/a	n/a	n/a	"NULL"	"NULL"	"NULL"	"414"	"stimuli/Ebbinghaus_0.10000_0.21500.png"	"arrowleft"	n/a	"Ebbinghaus"	"arrowleft"	"1248"	"TRUE"	"Ebbinghaus"	"0.1000000000"	"0.2150000000"	"1"	"69"
n/a	"html-keyboard-response"	"154"	"399106"	"0.0-4.0-2.0-0.51"	"1tavm8"	"600"	"1366"	"chrome"	"108.0.0"	"FALSE"	"Windows 10"	"60.84"	n/a	n/a	n/a	n/a	n/a	n/a	"fixation"	n/a	n/a	n/a	n/a	"NULL"	"NULL"	"NULL"	n/a	"<p style=\"color: black; font-size: 80px; padding-left: 41%; padding-right: 9%; padding-top: 26%; padding-bottom: 27%\">+</p>"	n/a	"1212"	n/a	n/a	n/a	n/a	n/a	n/a	n/a	n/a	n/a
n/a	"image-keyboard-response"	"155"	"399459"	"0.0-4.0-2.0-1.51"	"1tavm8"	"600"	"1366"	"chrome"	"108.0.0"	"FALSE"	"Windows 10"	"60.84"	n/a	n/a	n/a	n/a	n/a	n/a	"Trial"	n/a	n/a	n/a	n/a	"NULL"	"NULL"	"NULL"	"352"	"stimuli/Ebbinghaus_-0.61429_-0.15857.png"	"arrowleft"	n/a	"Ebbinghaus"	"arrowright"	"1226"	"FALSE"	"Ebbinghaus"	"-0.614290000"	"-0.158570000"	"1"	"70"
n/a	"html-keyboard-response"	"156"	"400883"	"0.0-4.0-2.0-0.52"	"1tavm8"	"600"	"1366"	"chrome"	"108.0.0"	"FALSE"	"Windows 10"	"60.84"	n/a	n/a	n/a	n/a	n/a	n/a	"fixation"	n/a	n/a	n/a	n/a	"NULL"	"NULL"	"NULL"	n/a	"<p style=\"color: black; font-size: 80px; padding-left: 15%; padding-right: 43%; padding-top: 11%; padding-bottom: 27%\">+</p>"	n/a	"1421"	n/a	n/a	n/a	n/a	n/a	n/a	n/a	n/a	n/a
n/a	"image-keyboard-response"	"157"	"401244"	"0.0-4.0-2.0-1.52"	"1tavm8"	"600"	"1366"	"chrome"	"108.0.0"	"FALSE"	"Windows 10"	"60.84"	n/a	n/a	n/a	n/a	n/a	n/a	"Trial"	n/a	n/a	n/a	n/a	"NULL"	"NULL"	"NULL"	"358"	"stimuli/Ebbinghaus_0.35714_0.15857.png"	"arrowleft"	n/a	"Ebbinghaus"	"arrowleft"	"1424"	"TRUE"	"Ebbinghaus"	"0.3571400000"	"0.1585700000"	"1"	"71"
n/a	"html-keyboard-response"	"158"	"402670"	"0.0-4.0-2.0-0.53"	"1tavm8"	"600"	"1366"	"chrome"	"108.0.0"	"FALSE"	"Windows 10"	"60.84"	n/a	n/a	n/a	n/a	n/a	n/a	"fixation"	n/a	n/a	n/a	n/a	"NULL"	"NULL"	"NULL"	n/a	"<p style=\"color: black; font-size: 80px; padding-left: 42%; padding-right: 2%; padding-top: 43%; padding-bottom: 13%\">+</p>"	n/a	"1421"	n/a	n/a	n/a	n/a	n/a	n/a	n/a	n/a	n/a
n/a	"image-keyboard-response"	"159"	"403027"	"0.0-4.0-2.0-1.53"	"1tavm8"	"600"	"1366"	"chrome"	"108.0.0"	"FALSE"	"Windows 10"	"60.84"	n/a	n/a	n/a	n/a	n/a	n/a	"Trial"	n/a	n/a	n/a	n/a	"NULL"	"NULL"	"NULL"	"355"	"stimuli/Ebbinghaus_0.35714_-0.15857.png"	"arrowleft"	n/a	"Ebbinghaus"	"arrowright"	"1426"	"FALSE"	"Ebbinghaus"	"0.3571400000"	"-0.158570000"	"1"	"72"
n/a	"html-keyboard-response"	"160"	"404517"	"0.0-4.0-2.0-0.54"	"1tavm8"	"600"	"1366"	"chrome"	"108.0.0"	"FALSE"	"Windows 10"	"60.84"	n/a	n/a	n/a	n/a	n/a	n/a	"fixation"	n/a	n/a	n/a	n/a	"NULL"	"NULL"	"NULL"	n/a	"<p style=\"color: black; font-size: 80px; padding-left: 41%; padding-right: 20%; padding-top: 35%; padding-bottom: 5%\">+</p>"	n/a	"1484"	n/a	n/a	n/a	n/a	n/a	n/a	n/a	n/a	n/a
n/a	"image-keyboard-response"	"161"	"404887"	"0.0-4.0-2.0-1.54"	"1tavm8"	"600"	"1366"	"chrome"	"108.0.0"	"FALSE"	"Windows 10"	"60.84"	n/a	n/a	n/a	n/a	n/a	n/a	"Trial"	n/a	n/a	n/a	n/a	"NULL"	"NULL"	"NULL"	"368"	"stimuli/Ebbinghaus_0.61429_0.11071.png"	"arrowleft"	n/a	"Ebbinghaus"	"arrowleft"	"1490"	"TRUE"	"Ebbinghaus"	"0.6142900000"	"0.1107100000"	"1"	"73"
n/a	"html-keyboard-response"	"162"	"406392"	"0.0-4.0-2.0-0.55"	"1tavm8"	"600"	"1366"	"chrome"	"108.0.0"	"FALSE"	"Windows 10"	"60.84"	n/a	n/a	n/a	n/a	n/a	n/a	"fixation"	n/a	n/a	n/a	n/a	"NULL"	"NULL"	"NULL"	n/a	"<p style=\"color: black; font-size: 80px; padding-left: 10%; padding-right: 16%; padding-top: 8%; padding-bottom: 25%\">+</p>"	n/a	"1496"	n/a	n/a	n/a	n/a	n/a	n/a	n/a	n/a	n/a
n/a	"image-keyboard-response"	"163"	"406788"	"0.0-4.0-2.0-1.55"	"1tavm8"	"600"	"1366"	"chrome"	"108.0.0"	"FALSE"	"Windows 10"	"60.84"	n/a	n/a	n/a	n/a	n/a	n/a	"Trial"	n/a	n/a	n/a	n/a	"NULL"	"NULL"	"NULL"	"394"	"stimuli/Ebbinghaus_0.35714_0.21500.png"	"arrowleft"	n/a	"Ebbinghaus"	"arrowleft"	"1505"	"TRUE"	"Ebbinghaus"	"0.3571400000"	"0.2150000000"	"1"	"74"
n/a	"html-keyboard-response"	"164"	"408197"	"0.0-4.0-2.0-0.56"	"1tavm8"	"600"	"1366"	"chrome"	"108.0.0"	"FALSE"	"Windows 10"	"60.84"	n/a	n/a	n/a	n/a	n/a	n/a	"fixation"	n/a	n/a	n/a	n/a	"NULL"	"NULL"	"NULL"	n/a	"<p style=\"color: black; font-size: 80px; padding-left: 14%; padding-right: 24%; padding-top: 25%; padding-bottom: 18%\">+</p>"	n/a	"1393"	n/a	n/a	n/a	n/a	n/a	n/a	n/a	n/a	n/a
n/a	"image-keyboard-response"	"165"	"408546"	"0.0-4.0-2.0-1.56"	"1tavm8"	"600"	"1366"	"chrome"	"108.0.0"	"FALSE"	"Windows 10"	"60.84"	n/a	n/a	n/a	n/a	n/a	n/a	"Trial"	n/a	n/a	n/a	n/a	"NULL"	"NULL"	"NULL"	"348"	"stimuli/Ebbinghaus_0.87143_-0.2150.png"	"arrowright"	n/a	"Ebbinghaus"	"arrowright"	"1409"	"TRUE"	"Ebbinghaus"	"0.8714300000"	"-0.215000000"	"1"	"75"
n/a	"html-keyboard-response"	"166"	"410045"	"0.0-4.0-2.0-0.57"	"1tavm8"	"600"	"1366"	"chrome"	"108.0.0"	"FALSE"	"Windows 10"	"60.84"	n/a	n/a	n/a	n/a	n/a	n/a	"fixation"	n/a	n/a	n/a	n/a	"NULL"	"NULL"	"NULL"	n/a	"<p style=\"color: black; font-size: 80px; padding-left: 35%; padding-right: 2%; padding-top: 0%; padding-bottom: 43%\">+</p>"	n/a	"1480"	n/a	n/a	n/a	n/a	n/a	n/a	n/a	n/a	n/a
n/a	"image-keyboard-response"	"167"	"410433"	"0.0-4.0-2.0-1.57"	"1tavm8"	"600"	"1366"	"chrome"	"108.0.0"	"FALSE"	"Windows 10"	"60.84"	n/a	n/a	n/a	n/a	n/a	n/a	"Trial"	n/a	n/a	n/a	n/a	"NULL"	"NULL"	"NULL"	"387"	"stimuli/Ebbinghaus_0.10000_-0.2150.png"	"arrowright"	n/a	"Ebbinghaus"	"arrowright"	"1499"	"TRUE"	"Ebbinghaus"	"0.1000000000"	"-0.215000000"	"1"	"76"
n/a	"html-keyboard-response"	"168"	"411661"	"0.0-4.0-2.0-0.58"	"1tavm8"	"600"	"1366"	"chrome"	"108.0.0"	"FALSE"	"Windows 10"	"60.84"	n/a	n/a	n/a	n/a	n/a	n/a	"fixation"	n/a	n/a	n/a	n/a	"NULL"	"NULL"	"NULL"	n/a	"<p style=\"color: black; font-size: 80px; padding-left: 33%; padding-right: 32%; padding-top: 38%; padding-bottom: 3%\">+</p>"	n/a	"1221"	n/a	n/a	n/a	n/a	n/a	n/a	n/a	n/a	n/a
n/a	"image-keyboard-response"	"169"	"412083"	"0.0-4.0-2.0-1.58"	"1tavm8"	"600"	"1366"	"chrome"	"108.0.0"	"FALSE"	"Windows 10"	"60.84"	n/a	n/a	n/a	n/a	n/a	n/a	"Trial"	n/a	n/a	n/a	n/a	"NULL"	"NULL"	"NULL"	"421"	"stimuli/Ebbinghaus_0.87143_0.21500.png"	"arrowleft"	n/a	"Ebbinghaus"	"arrowleft"	"1228"	"TRUE"	"Ebbinghaus"	"0.8714300000"	"0.2150000000"	"1"	"77"
n/a	"html-keyboard-response"	"170"	"413279"	"0.0-4.0-2.0-0.59"	"1tavm8"	"600"	"1366"	"chrome"	"108.0.0"	"FALSE"	"Windows 10"	"60.84"	n/a	n/a	n/a	n/a	n/a	n/a	"fixation"	n/a	n/a	n/a	n/a	"NULL"	"NULL"	"NULL"	n/a	"<p style=\"color: black; font-size: 80px; padding-left: 25%; padding-right: 15%; padding-top: 44%; padding-bottom: 49%\">+</p>"	n/a	"1180"	n/a	n/a	n/a	n/a	n/a	n/a	n/a	n/a	n/a
n/a	"image-keyboard-response"	"171"	"413580"	"0.0-4.0-2.0-1.59"	"1tavm8"	"600"	"1366"	"chrome"	"108.0.0"	"FALSE"	"Windows 10"	"60.84"	n/a	n/a	n/a	n/a	n/a	n/a	"Trial"	n/a	n/a	n/a	n/a	"NULL"	"NULL"	"NULL"	"300"	"stimuli/Ebbinghaus_-0.35714_-0.15857.png"	"arrowright"	n/a	"Ebbinghaus"	"arrowright"	"1196"	"TRUE"	"Ebbinghaus"	"-0.357140000"	"-0.158570000"	"1"	"78"
n/a	"html-keyboard-response"	"172"	"414730"	"0.0-4.0-2.0-0.60"	"1tavm8"	"600"	"1366"	"chrome"	"108.0.0"	"FALSE"	"Windows 10"	"60.84"	n/a	n/a	n/a	n/a	n/a	n/a	"fixation"	n/a	n/a	n/a	n/a	"NULL"	"NULL"	"NULL"	n/a	"<p style=\"color: black; font-size: 80px; padding-left: 50%; padding-right: 48%; padding-top: 41%; padding-bottom: 29%\">+</p>"	n/a	"1144"	n/a	n/a	n/a	n/a	n/a	n/a	n/a	n/a	n/a
n/a	"image-keyboard-response"	"173"	"415060"	"0.0-4.0-2.0-1.60"	"1tavm8"	"600"	"1366"	"chrome"	"108.0.0"	"FALSE"	"Windows 10"	"60.84"	n/a	n/a	n/a	n/a	n/a	n/a	"Trial"	n/a	n/a	n/a	n/a	"NULL"	"NULL"	"NULL"	"328"	"stimuli/Ebbinghaus_-0.1000_0.11071.png"	"arrowleft"	n/a	"Ebbinghaus"	"arrowleft"	"1150"	"TRUE"	"Ebbinghaus"	"-0.100000000"	"0.1107100000"	"1"	"79"
n/a	"html-keyboard-response"	"174"	"416403"	"0.0-4.0-2.0-0.61"	"1tavm8"	"600"	"1366"	"chrome"	"108.0.0"	"FALSE"	"Windows 10"	"60.84"	n/a	n/a	n/a	n/a	n/a	n/a	"fixation"	n/a	n/a	n/a	n/a	"NULL"	"NULL"	"NULL"	n/a	"<p style=\"color: black; font-size: 80px; padding-left: 50%; padding-right: 38%; padding-top: 11%; padding-bottom: 29%\">+</p>"	n/a	"1327"	n/a	n/a	n/a	n/a	n/a	n/a	n/a	n/a	n/a
n/a	"image-keyboard-response"	"175"	"416686"	"0.0-4.0-2.0-1.61"	"1tavm8"	"600"	"1366"	"chrome"	"108.0.0"	"FALSE"	"Windows 10"	"60.84"	n/a	n/a	n/a	n/a	n/a	n/a	"Trial"	n/a	n/a	n/a	n/a	"NULL"	"NULL"	"NULL"	"283"	"stimuli/Ebbinghaus_-0.61429_-0.11071.png"	"arrowleft"	n/a	"Ebbinghaus"	"arrowright"	"1343"	"FALSE"	"Ebbinghaus"	"-0.614290000"	"-0.110710000"	"1"	"80"
n/a	"html-keyboard-response"	"176"	"417838"	"0.0-4.0-2.0-0.62"	"1tavm8"	"600"	"1366"	"chrome"	"108.0.0"	"FALSE"	"Windows 10"	"60.84"	n/a	n/a	n/a	n/a	n/a	n/a	"fixation"	n/a	n/a	n/a	n/a	"NULL"	"NULL"	"NULL"	n/a	"<p style=\"color: black; font-size: 80px; padding-left: 32%; padding-right: 29%; padding-top: 24%; padding-bottom: 28%\">+</p>"	n/a	"1147"	n/a	n/a	n/a	n/a	n/a	n/a	n/a	n/a	n/a
n/a	"image-keyboard-response"	"177"	"418233"	"0.0-4.0-2.0-1.62"	"1tavm8"	"600"	"1366"	"chrome"	"108.0.0"	"FALSE"	"Windows 10"	"60.84"	n/a	n/a	n/a	n/a	n/a	n/a	"Trial"	n/a	n/a	n/a	n/a	"NULL"	"NULL"	"NULL"	"394"	"stimuli/Ebbinghaus_-0.87143_-0.2800.png"	"arrowright"	n/a	"Ebbinghaus"	"arrowright"	"1152"	"TRUE"	"Ebbinghaus"	"-0.871430000"	"-0.280000000"	"1"	"81"
n/a	"html-keyboard-response"	"178"	"419515"	"0.0-4.0-2.0-0.63"	"1tavm8"	"600"	"1366"	"chrome"	"108.0.0"	"FALSE"	"Windows 10"	"60.84"	n/a	n/a	n/a	n/a	n/a	n/a	"fixation"	n/a	n/a	n/a	n/a	"NULL"	"NULL"	"NULL"	n/a	"<p style=\"color: black; font-size: 80px; padding-left: 17%; padding-right: 43%; padding-top: 32%; padding-bottom: 29%\">+</p>"	n/a	"1266"	n/a	n/a	n/a	n/a	n/a	n/a	n/a	n/a	n/a
n/a	"image-keyboard-response"	"179"	"419775"	"0.0-4.0-2.0-1.63"	"1tavm8"	"600"	"1366"	"chrome"	"108.0.0"	"FALSE"	"Windows 10"	"60.84"	n/a	n/a	n/a	n/a	n/a	n/a	"Trial"	n/a	n/a	n/a	n/a	"NULL"	"NULL"	"NULL"	"258"	"stimuli/Ebbinghaus_0.61429_0.15857.png"	"arrowright"	n/a	"Ebbinghaus"	"arrowleft"	"1282"	"FALSE"	"Ebbinghaus"	"0.6142900000"	"0.1585700000"	"1"	"82"
n/a	"html-button-response"	"180"	"452067"	"0.0-4.0-3.0"	"1tavm8"	"600"	"1366"	"chrome"	"108.0.0"	"FALSE"	"Windows 10"	"60.84"	n/a	n/a	n/a	n/a	n/a	n/a	"block_results"	n/a	n/a	n/a	n/a	"NULL"	"NULL"	"NULL"	"32285"	"<p>Your score for this illusion is <p style=\"color: black; font-size: 48px; font-weight: bold;\">84.8 %</p><hr><p>Can you do better in the next illusion?</p>"	"0"	n/a	n/a	n/a	n/a	n/a	n/a	n/a	n/a	n/a	n/a
"TRUE"	"preload"	"181"	"452244"	"0.0-5.0-0.0"	"1tavm8"	"600"	"1366"	"chrome"	"108.0.0"	"FALSE"	"Windows 10"	"60.84"	n/a	n/a	n/a	n/a	n/a	n/a	n/a	n/a	n/a	n/a	"FALSE"	"list()"	"list()"	"list()"	n/a	n/a	n/a	n/a	n/a	n/a	n/a	n/a	n/a	n/a	n/a	n/a	n/a
n/a	"html-keyboard-response"	"182"	"456130"	"0.0-5.0-1.0"	"1tavm8"	"600"	"1366"	"chrome"	"108.0.0"	"FALSE"	"Windows 10"	"60.84"	n/a	n/a	n/a	n/a	n/a	n/a	n/a	n/a	n/a	n/a	n/a	"NULL"	"NULL"	"NULL"	"3885"	"<p><b>Part 2/6</b></p><p>In this part, two red lines will appear side by side.</p><p>Your task is to tell <b>which line is longer</b> in length, regardless of their orientation, as fast as you can, and without making errors.</p><p>Don't get distracted by the orientation of the lines!</p><p>Press <b>the LEFT or the RIGHT arrow</b> to indicate which <b>line is the longer one.</b></p><div style='float: center'><img src='materials/instructions/VerticalHorizontal_Demo.png' height='300'></img><p><img src='utils/answer/answer_leftright_keyboard.PNG' height='150'></img></p><p class='small'>In this example, the correct answer is the <b>LEFT arrow</b>.</p></div><p>Are you ready? <b>Press ENTER to start</b></p>"	"enter"	n/a	n/a	n/a	n/a	n/a	n/a	n/a	n/a	n/a	n/a
n/a	"html-keyboard-response"	"183"	"457769"	"0.0-5.0-2.0-0.0"	"1tavm8"	"600"	"1366"	"chrome"	"108.0.0"	"FALSE"	"Windows 10"	"60.84"	n/a	n/a	n/a	n/a	n/a	n/a	"fixation"	n/a	n/a	n/a	n/a	"NULL"	"NULL"	"NULL"	n/a	"<p style=\"color: black; font-size: 80px; padding-left: 22%; padding-right: 0%; padding-top: 9%; padding-bottom: 31%\">+</p>"	n/a	"1117"	n/a	n/a	n/a	n/a	n/a	n/a	n/a	n/a	n/a
n/a	"image-keyboard-response"	"184"	"458369"	"0.0-5.0-2.0-1.0"	"1tavm8"	"600"	"1366"	"chrome"	"108.0.0"	"FALSE"	"Windows 10"	"60.84"	n/a	n/a	n/a	n/a	n/a	n/a	"Trial"	n/a	n/a	n/a	n/a	"NULL"	"NULL"	"NULL"	"598"	"stimuli/VerticalHorizontal_-11.78571_-0.1096.png"	"arrowright"	n/a	"VerticalHorizontal"	"arrowright"	"1639"	"TRUE"	"VerticalHorizontal"	"-11.78571000"	"-0.109600000"	"2"	"1"
n/a	"html-keyboard-response"	"185"	"459810"	"0.0-5.0-2.0-0.1"	"1tavm8"	"600"	"1366"	"chrome"	"108.0.0"	"FALSE"	"Windows 10"	"60.84"	n/a	n/a	n/a	n/a	n/a	n/a	"fixation"	n/a	n/a	n/a	n/a	"NULL"	"NULL"	"NULL"	n/a	"<p style=\"color: black; font-size: 80px; padding-left: 12%; padding-right: 14%; padding-top: 43%; padding-bottom: 43%\">+</p>"	n/a	"1440"	n/a	n/a	n/a	n/a	n/a	n/a	n/a	n/a	n/a
n/a	"image-keyboard-response"	"186"	"460170"	"0.0-5.0-2.0-1.1"	"1tavm8"	"600"	"1366"	"chrome"	"108.0.0"	"FALSE"	"Windows 10"	"60.84"	n/a	n/a	n/a	n/a	n/a	n/a	"Trial"	n/a	n/a	n/a	n/a	"NULL"	"NULL"	"NULL"	"360"	"stimuli/VerticalHorizontal_-28.75714_-0.16217.png"	"arrowright"	n/a	"VerticalHorizontal"	"arrowright"	"1441"	"TRUE"	"VerticalHorizontal"	"-28.75714000"	"-0.162170000"	"2"	"2"
n/a	"html-keyboard-response"	"187"	"461259"	"0.0-5.0-2.0-0.2"	"1tavm8"	"600"	"1366"	"chrome"	"108.0.0"	"FALSE"	"Windows 10"	"60.84"	n/a	n/a	n/a	n/a	n/a	n/a	"fixation"	n/a	n/a	n/a	n/a	"NULL"	"NULL"	"NULL"	n/a	"<p style=\"color: black; font-size: 80px; padding-left: 41%; padding-right: 49%; padding-top: 6%; padding-bottom: 43%\">+</p>"	n/a	"1081"	n/a	n/a	n/a	n/a	n/a	n/a	n/a	n/a	n/a
n/a	"image-keyboard-response"	"188"	"461623"	"0.0-5.0-2.0-1.2"	"1tavm8"	"600"	"1366"	"chrome"	"108.0.0"	"FALSE"	"Windows 10"	"60.84"	n/a	n/a	n/a	n/a	n/a	n/a	"Trial"	n/a	n/a	n/a	n/a	"NULL"	"NULL"	"NULL"	"362"	"stimuli/VerticalHorizontal_11.78571_0.16217.png"	"arrowright"	n/a	"VerticalHorizontal"	"arrowleft"	"1089"	"FALSE"	"VerticalHorizontal"	"11.785710000"	"0.1621700000"	"2"	"3"
n/a	"html-keyboard-response"	"189"	"462965"	"0.0-5.0-2.0-0.3"	"1tavm8"	"600"	"1366"	"chrome"	"108.0.0"	"FALSE"	"Windows 10"	"60.84"	n/a	n/a	n/a	n/a	n/a	n/a	"fixation"	n/a	n/a	n/a	n/a	"NULL"	"NULL"	"NULL"	n/a	"<p style=\"color: black; font-size: 80px; padding-left: 22%; padding-right: 8%; padding-top: 6%; padding-bottom: 49%\">+</p>"	n/a	"1338"	n/a	n/a	n/a	n/a	n/a	n/a	n/a	n/a	n/a
n/a	"image-keyboard-response"	"190"	"463340"	"0.0-5.0-2.0-1.3"	"1tavm8"	"600"	"1366"	"chrome"	"108.0.0"	"FALSE"	"Windows 10"	"60.84"	n/a	n/a	n/a	n/a	n/a	n/a	"Trial"	n/a	n/a	n/a	n/a	"NULL"	"NULL"	"NULL"	"374"	"stimuli/VerticalHorizontal_-11.78571_-0.16217.png"	"arrowright"	n/a	"VerticalHorizontal"	"arrowright"	"1342"	"TRUE"	"VerticalHorizontal"	"-11.78571000"	"-0.162170000"	"2"	"4"
n/a	"html-keyboard-response"	"191"	"464623"	"0.0-5.0-2.0-0.4"	"1tavm8"	"600"	"1366"	"chrome"	"108.0.0"	"FALSE"	"Windows 10"	"60.84"	n/a	n/a	n/a	n/a	n/a	n/a	"fixation"	n/a	n/a	n/a	n/a	"NULL"	"NULL"	"NULL"	n/a	"<p style=\"color: black; font-size: 80px; padding-left: 40%; padding-right: 37%; padding-top: 4%; padding-bottom: 5%\">+</p>"	n/a	"1270"	n/a	n/a	n/a	n/a	n/a	n/a	n/a	n/a	n/a
n/a	"image-keyboard-response"	"192"	"464966"	"0.0-5.0-2.0-1.4"	"1tavm8"	"600"	"1366"	"chrome"	"108.0.0"	"FALSE"	"Windows 10"	"60.84"	n/a	n/a	n/a	n/a	n/a	n/a	"Trial"	n/a	n/a	n/a	n/a	"NULL"	"NULL"	"NULL"	"341"	"stimuli/VerticalHorizontal_-3.3000_0.10960.png"	"arrowleft"	n/a	"VerticalHorizontal"	"arrowleft"	"1283"	"TRUE"	"VerticalHorizontal"	"-3.300000000"	"0.1096000000"	"2"	"5"
n/a	"html-keyboard-response"	"193"	"466056"	"0.0-5.0-2.0-0.5"	"1tavm8"	"600"	"1366"	"chrome"	"108.0.0"	"FALSE"	"Windows 10"	"60.84"	n/a	n/a	n/a	n/a	n/a	n/a	"fixation"	n/a	n/a	n/a	n/a	"NULL"	"NULL"	"NULL"	n/a	"<p style=\"color: black; font-size: 80px; padding-left: 28%; padding-right: 43%; padding-top: 1%; padding-bottom: 15%\">+</p>"	n/a	"1077"	n/a	n/a	n/a	n/a	n/a	n/a	n/a	n/a	n/a
n/a	"image-keyboard-response"	"194"	"466402"	"0.0-5.0-2.0-1.5"	"1tavm8"	"600"	"1366"	"chrome"	"108.0.0"	"FALSE"	"Windows 10"	"60.84"	n/a	n/a	n/a	n/a	n/a	n/a	"Trial"	n/a	n/a	n/a	n/a	"NULL"	"NULL"	"NULL"	"344"	"stimuli/VerticalHorizontal_-11.78571_0.06730.png"	"arrowleft"	n/a	"VerticalHorizontal"	"arrowleft"	"1090"	"TRUE"	"VerticalHorizontal"	"-11.78571000"	"0.0673000000"	"2"	"6"
n/a	"html-keyboard-response"	"195"	"467852"	"0.0-5.0-2.0-0.6"	"1tavm8"	"600"	"1366"	"chrome"	"108.0.0"	"FALSE"	"Windows 10"	"60.84"	n/a	n/a	n/a	n/a	n/a	n/a	"fixation"	n/a	n/a	n/a	n/a	"NULL"	"NULL"	"NULL"	n/a	"<p style=\"color: black; font-size: 80px; padding-left: 26%; padding-right: 43%; padding-top: 48%; padding-bottom: 35%\">+</p>"	n/a	"1439"	n/a	n/a	n/a	n/a	n/a	n/a	n/a	n/a	n/a
n/a	"image-keyboard-response"	"196"	"468181"	"0.0-5.0-2.0-1.6"	"1tavm8"	"600"	"1366"	"chrome"	"108.0.0"	"FALSE"	"Windows 10"	"60.84"	n/a	n/a	n/a	n/a	n/a	n/a	"Trial"	n/a	n/a	n/a	n/a	"NULL"	"NULL"	"NULL"	"328"	"stimuli/VerticalHorizontal_20.27143_0.06730.png"	"arrowright"	n/a	"VerticalHorizontal"	"arrowleft"	"1450"	"FALSE"	"VerticalHorizontal"	"20.271430000"	"0.0673000000"	"2"	"7"
n/a	"html-keyboard-response"	"197"	"469571"	"0.0-5.0-2.0-0.7"	"1tavm8"	"600"	"1366"	"chrome"	"108.0.0"	"FALSE"	"Windows 10"	"60.84"	n/a	n/a	n/a	n/a	n/a	n/a	"fixation"	n/a	n/a	n/a	n/a	"NULL"	"NULL"	"NULL"	n/a	"<p style=\"color: black; font-size: 80px; padding-left: 16%; padding-right: 39%; padding-top: 22%; padding-bottom: 42%\">+</p>"	n/a	"1382"	n/a	n/a	n/a	n/a	n/a	n/a	n/a	n/a	n/a
n/a	"image-keyboard-response"	"198"	"469942"	"0.0-5.0-2.0-1.7"	"1tavm8"	"600"	"1366"	"chrome"	"108.0.0"	"FALSE"	"Windows 10"	"60.84"	n/a	n/a	n/a	n/a	n/a	n/a	"Trial"	n/a	n/a	n/a	n/a	"NULL"	"NULL"	"NULL"	"371"	"stimuli/VerticalHorizontal_3.30000_0.16217.png"	"arrowleft"	n/a	"VerticalHorizontal"	"arrowleft"	"1390"	"TRUE"	"VerticalHorizontal"	"3.3000000000"	"0.1621700000"	"2"	"8"
n/a	"html-keyboard-response"	"199"	"471082"	"0.0-5.0-2.0-0.8"	"1tavm8"	"600"	"1366"	"chrome"	"108.0.0"	"FALSE"	"Windows 10"	"60.84"	n/a	n/a	n/a	n/a	n/a	n/a	"fixation"	n/a	n/a	n/a	n/a	"NULL"	"NULL"	"NULL"	n/a	"<p style=\"color: black; font-size: 80px; padding-left: 10%; padding-right: 0%; padding-top: 14%; padding-bottom: 23%\">+</p>"	n/a	"1133"	n/a	n/a	n/a	n/a	n/a	n/a	n/a	n/a	n/a
n/a	"image-keyboard-response"	"200"	"471537"	"0.0-5.0-2.0-1.8"	"1tavm8"	"600"	"1366"	"chrome"	"108.0.0"	"FALSE"	"Windows 10"	"60.84"	n/a	n/a	n/a	n/a	n/a	n/a	"Trial"	n/a	n/a	n/a	n/a	"NULL"	"NULL"	"NULL"	"454"	"stimuli/VerticalHorizontal_-3.3000_0.06730.png"	"arrowleft"	n/a	"VerticalHorizontal"	"arrowleft"	"1140"	"TRUE"	"VerticalHorizontal"	"-3.300000000"	"0.0673000000"	"2"	"9"
n/a	"html-keyboard-response"	"201"	"472937"	"0.0-5.0-2.0-0.9"	"1tavm8"	"600"	"1366"	"chrome"	"108.0.0"	"FALSE"	"Windows 10"	"60.84"	n/a	n/a	n/a	n/a	n/a	n/a	"fixation"	n/a	n/a	n/a	n/a	"NULL"	"NULL"	"NULL"	n/a	"<p style=\"color: black; font-size: 80px; padding-left: 46%; padding-right: 1%; padding-top: 11%; padding-bottom: 2%\">+</p>"	n/a	"1378"	n/a	n/a	n/a	n/a	n/a	n/a	n/a	n/a	n/a
n/a	"image-keyboard-response"	"202"	"473264"	"0.0-5.0-2.0-1.9"	"1tavm8"	"600"	"1366"	"chrome"	"108.0.0"	"FALSE"	"Windows 10"	"60.84"	n/a	n/a	n/a	n/a	n/a	n/a	"Trial"	n/a	n/a	n/a	n/a	"NULL"	"NULL"	"NULL"	"326"	"stimuli/VerticalHorizontal_-11.78571_0.16217.png"	"arrowleft"	n/a	"VerticalHorizontal"	"arrowleft"	"1400"	"TRUE"	"VerticalHorizontal"	"-11.78571000"	"0.1621700000"	"2"	"10"
n/a	"html-keyboard-response"	"203"	"474454"	"0.0-5.0-2.0-0.10"	"1tavm8"	"600"	"1366"	"chrome"	"108.0.0"	"FALSE"	"Windows 10"	"60.84"	n/a	n/a	n/a	n/a	n/a	n/a	"fixation"	n/a	n/a	n/a	n/a	"NULL"	"NULL"	"NULL"	n/a	"<p style=\"color: black; font-size: 80px; padding-left: 9%; padding-right: 28%; padding-top: 19%; padding-bottom: 33%\">+</p>"	n/a	"1173"	n/a	n/a	n/a	n/a	n/a	n/a	n/a	n/a	n/a
n/a	"image-keyboard-response"	"204"	"474748"	"0.0-5.0-2.0-1.10"	"1tavm8"	"600"	"1366"	"chrome"	"108.0.0"	"FALSE"	"Windows 10"	"60.84"	n/a	n/a	n/a	n/a	n/a	n/a	"Trial"	n/a	n/a	n/a	n/a	"NULL"	"NULL"	"NULL"	"293"	"stimuli/VerticalHorizontal_3.30000_0.06730.png"	"arrowleft"	n/a	"VerticalHorizontal"	"arrowleft"	"1190"	"TRUE"	"VerticalHorizontal"	"3.3000000000"	"0.0673000000"	"2"	"11"
n/a	"html-keyboard-response"	"205"	"476179"	"0.0-5.0-2.0-0.11"	"1tavm8"	"600"	"1366"	"chrome"	"108.0.0"	"FALSE"	"Windows 10"	"60.84"	n/a	n/a	n/a	n/a	n/a	n/a	"fixation"	n/a	n/a	n/a	n/a	"NULL"	"NULL"	"NULL"	n/a	"<p style=\"color: black; font-size: 80px; padding-left: 39%; padding-right: 15%; padding-top: 29%; padding-bottom: 24%\">+</p>"	n/a	"1416"	n/a	n/a	n/a	n/a	n/a	n/a	n/a	n/a	n/a
n/a	"image-keyboard-response"	"206"	"476494"	"0.0-5.0-2.0-1.11"	"1tavm8"	"600"	"1366"	"chrome"	"108.0.0"	"FALSE"	"Windows 10"	"60.84"	n/a	n/a	n/a	n/a	n/a	n/a	"Trial"	n/a	n/a	n/a	n/a	"NULL"	"NULL"	"NULL"	"314"	"stimuli/VerticalHorizontal_20.27143_-0.16217.png"	"arrowleft"	n/a	"VerticalHorizontal"	"arrowright"	"1431"	"FALSE"	"VerticalHorizontal"	"20.271430000"	"-0.162170000"	"2"	"12"
n/a	"html-keyboard-response"	"207"	"477939"	"0.0-5.0-2.0-0.12"	"1tavm8"	"600"	"1366"	"chrome"	"108.0.0"	"FALSE"	"Windows 10"	"60.84"	n/a	n/a	n/a	n/a	n/a	n/a	"fixation"	n/a	n/a	n/a	n/a	"NULL"	"NULL"	"NULL"	n/a	"<p style=\"color: black; font-size: 80px; padding-left: 16%; padding-right: 47%; padding-top: 28%; padding-bottom: 24%\">+</p>"	n/a	"1428"	n/a	n/a	n/a	n/a	n/a	n/a	n/a	n/a	n/a
n/a	"image-keyboard-response"	"208"	"478353"	"0.0-5.0-2.0-1.12"	"1tavm8"	"600"	"1366"	"chrome"	"108.0.0"	"FALSE"	"Windows 10"	"60.84"	n/a	n/a	n/a	n/a	n/a	n/a	"Trial"	n/a	n/a	n/a	n/a	"NULL"	"NULL"	"NULL"	"406"	"stimuli/VerticalHorizontal_-3.3000_0.22500.png"	"arrowleft"	n/a	"VerticalHorizontal"	"arrowleft"	"1445"	"TRUE"	"VerticalHorizontal"	"-3.300000000"	"0.2250000000"	"2"	"13"
n/a	"html-keyboard-response"	"209"	"479775"	"0.0-5.0-2.0-0.13"	"1tavm8"	"600"	"1366"	"chrome"	"108.0.0"	"FALSE"	"Windows 10"	"60.84"	n/a	n/a	n/a	n/a	n/a	n/a	"fixation"	n/a	n/a	n/a	n/a	"NULL"	"NULL"	"NULL"	n/a	"<p style=\"color: black; font-size: 80px; padding-left: 13%; padding-right: 32%; padding-top: 38%; padding-bottom: 32%\">+</p>"	n/a	"1408"	n/a	n/a	n/a	n/a	n/a	n/a	n/a	n/a	n/a
n/a	"image-keyboard-response"	"210"	"480097"	"0.0-5.0-2.0-1.13"	"1tavm8"	"600"	"1366"	"chrome"	"108.0.0"	"FALSE"	"Windows 10"	"60.84"	n/a	n/a	n/a	n/a	n/a	n/a	"Trial"	n/a	n/a	n/a	n/a	"NULL"	"NULL"	"NULL"	"321"	"stimuli/VerticalHorizontal_28.75714_-0.0673.png"	"arrowleft"	n/a	"VerticalHorizontal"	"arrowright"	"1422"	"FALSE"	"VerticalHorizontal"	"28.757140000"	"-0.067300000"	"2"	"14"
n/a	"html-keyboard-response"	"211"	"481230"	"0.0-5.0-2.0-0.14"	"1tavm8"	"600"	"1366"	"chrome"	"108.0.0"	"FALSE"	"Windows 10"	"60.84"	n/a	n/a	n/a	n/a	n/a	n/a	"fixation"	n/a	n/a	n/a	n/a	"NULL"	"NULL"	"NULL"	n/a	"<p style=\"color: black; font-size: 80px; padding-left: 4%; padding-right: 7%; padding-top: 4%; padding-bottom: 10%\">+</p>"	n/a	"1118"	n/a	n/a	n/a	n/a	n/a	n/a	n/a	n/a	n/a
n/a	"image-keyboard-response"	"212"	"481572"	"0.0-5.0-2.0-1.14"	"1tavm8"	"600"	"1366"	"chrome"	"108.0.0"	"FALSE"	"Windows 10"	"60.84"	n/a	n/a	n/a	n/a	n/a	n/a	"Trial"	n/a	n/a	n/a	n/a	"NULL"	"NULL"	"NULL"	"341"	"stimuli/VerticalHorizontal_-20.27143_0.10960.png"	"arrowleft"	n/a	"VerticalHorizontal"	"arrowleft"	"1133"	"TRUE"	"VerticalHorizontal"	"-20.27143000"	"0.1096000000"	"2"	"15"
n/a	"html-keyboard-response"	"213"	"482969"	"0.0-5.0-2.0-0.15"	"1tavm8"	"600"	"1366"	"chrome"	"108.0.0"	"FALSE"	"Windows 10"	"60.84"	n/a	n/a	n/a	n/a	n/a	n/a	"fixation"	n/a	n/a	n/a	n/a	"NULL"	"NULL"	"NULL"	n/a	"<p style=\"color: black; font-size: 80px; padding-left: 28%; padding-right: 37%; padding-top: 25%; padding-bottom: 42%\">+</p>"	n/a	"1379"	n/a	n/a	n/a	n/a	n/a	n/a	n/a	n/a	n/a
n/a	"image-keyboard-response"	"214"	"483238"	"0.0-5.0-2.0-1.15"	"1tavm8"	"600"	"1366"	"chrome"	"108.0.0"	"FALSE"	"Windows 10"	"60.84"	n/a	n/a	n/a	n/a	n/a	n/a	"Trial"	n/a	n/a	n/a	n/a	"NULL"	"NULL"	"NULL"	"267"	"stimuli/VerticalHorizontal_-20.27143_0.22500.png"	"arrowleft"	n/a	"VerticalHorizontal"	"arrowleft"	"1397"	"TRUE"	"VerticalHorizontal"	"-20.27143000"	"0.2250000000"	"2"	"16"
n/a	"html-keyboard-response"	"215"	"484426"	"0.0-5.0-2.0-0.16"	"1tavm8"	"600"	"1366"	"chrome"	"108.0.0"	"FALSE"	"Windows 10"	"60.84"	n/a	n/a	n/a	n/a	n/a	n/a	"fixation"	n/a	n/a	n/a	n/a	"NULL"	"NULL"	"NULL"	n/a	"<p style=\"color: black; font-size: 80px; padding-left: 3%; padding-right: 48%; padding-top: 37%; padding-bottom: 39%\">+</p>"	n/a	"1173"	n/a	n/a	n/a	n/a	n/a	n/a	n/a	n/a	n/a
n/a	"image-keyboard-response"	"216"	"484726"	"0.0-5.0-2.0-1.16"	"1tavm8"	"600"	"1366"	"chrome"	"108.0.0"	"FALSE"	"Windows 10"	"60.84"	n/a	n/a	n/a	n/a	n/a	n/a	"Trial"	n/a	n/a	n/a	n/a	"NULL"	"NULL"	"NULL"	"299"	"stimuli/VerticalHorizontal_-3.3000_0.16217.png"	"arrowleft"	n/a	"VerticalHorizontal"	"arrowleft"	"1188"	"TRUE"	"VerticalHorizontal"	"-3.300000000"	"0.1621700000"	"2"	"17"
n/a	"html-keyboard-response"	"217"	"485788"	"0.0-5.0-2.0-0.17"	"1tavm8"	"600"	"1366"	"chrome"	"108.0.0"	"FALSE"	"Windows 10"	"60.84"	n/a	n/a	n/a	n/a	n/a	n/a	"fixation"	n/a	n/a	n/a	n/a	"NULL"	"NULL"	"NULL"	n/a	"<p style=\"color: black; font-size: 80px; padding-left: 32%; padding-right: 30%; padding-top: 4%; padding-bottom: 13%\">+</p>"	n/a	"1051"	n/a	n/a	n/a	n/a	n/a	n/a	n/a	n/a	n/a
n/a	"image-keyboard-response"	"218"	"486143"	"0.0-5.0-2.0-1.17"	"1tavm8"	"600"	"1366"	"chrome"	"108.0.0"	"FALSE"	"Windows 10"	"60.84"	n/a	n/a	n/a	n/a	n/a	n/a	"Trial"	n/a	n/a	n/a	n/a	"NULL"	"NULL"	"NULL"	"354"	"stimuli/VerticalHorizontal_-28.75714_-0.1096.png"	"arrowright"	n/a	"VerticalHorizontal"	"arrowright"	"1062"	"TRUE"	"VerticalHorizontal"	"-28.75714000"	"-0.109600000"	"2"	"18"
n/a	"html-keyboard-response"	"219"	"487374"	"0.0-5.0-2.0-0.18"	"1tavm8"	"600"	"1366"	"chrome"	"108.0.0"	"FALSE"	"Windows 10"	"60.84"	n/a	n/a	n/a	n/a	n/a	n/a	"fixation"	n/a	n/a	n/a	n/a	"NULL"	"NULL"	"NULL"	n/a	"<p style=\"color: black; font-size: 80px; padding-left: 8%; padding-right: 10%; padding-top: 38%; padding-bottom: 48%\">+</p>"	n/a	"1200"	n/a	n/a	n/a	n/a	n/a	n/a	n/a	n/a	n/a
n/a	"image-keyboard-response"	"220"	"487684"	"0.0-5.0-2.0-1.18"	"1tavm8"	"600"	"1366"	"chrome"	"108.0.0"	"FALSE"	"Windows 10"	"60.84"	n/a	n/a	n/a	n/a	n/a	n/a	"Trial"	n/a	n/a	n/a	n/a	"NULL"	"NULL"	"NULL"	"309"	"stimuli/VerticalHorizontal_-28.75714_0.16217.png"	"arrowleft"	n/a	"VerticalHorizontal"	"arrowleft"	"1231"	"TRUE"	"VerticalHorizontal"	"-28.75714000"	"0.1621700000"	"2"	"19"
n/a	"html-keyboard-response"	"221"	"488780"	"0.0-5.0-2.0-0.19"	"1tavm8"	"600"	"1366"	"chrome"	"108.0.0"	"FALSE"	"Windows 10"	"60.84"	n/a	n/a	n/a	n/a	n/a	n/a	"fixation"	n/a	n/a	n/a	n/a	"NULL"	"NULL"	"NULL"	n/a	"<p style=\"color: black; font-size: 80px; padding-left: 32%; padding-right: 49%; padding-top: 0%; padding-bottom: 5%\">+</p>"	n/a	"1080"	n/a	n/a	n/a	n/a	n/a	n/a	n/a	n/a	n/a
n/a	"image-keyboard-response"	"222"	"489156"	"0.0-5.0-2.0-1.19"	"1tavm8"	"600"	"1366"	"chrome"	"108.0.0"	"FALSE"	"Windows 10"	"60.84"	n/a	n/a	n/a	n/a	n/a	n/a	"Trial"	n/a	n/a	n/a	n/a	"NULL"	"NULL"	"NULL"	"365"	"stimuli/VerticalHorizontal_-20.27143_0.06730.png"	"arrowleft"	n/a	"VerticalHorizontal"	"arrowleft"	"1096"	"TRUE"	"VerticalHorizontal"	"-20.27143000"	"0.0673000000"	"2"	"20"
n/a	"html-keyboard-response"	"223"	"490188"	"0.0-5.0-2.0-0.20"	"1tavm8"	"600"	"1366"	"chrome"	"108.0.0"	"FALSE"	"Windows 10"	"60.84"	n/a	n/a	n/a	n/a	n/a	n/a	"fixation"	n/a	n/a	n/a	n/a	"NULL"	"NULL"	"NULL"	n/a	"<p style=\"color: black; font-size: 80px; padding-left: 45%; padding-right: 2%; padding-top: 28%; padding-bottom: 1%\">+</p>"	n/a	"1016"	n/a	n/a	n/a	n/a	n/a	n/a	n/a	n/a	n/a
n/a	"image-keyboard-response"	"224"	"490706"	"0.0-5.0-2.0-1.20"	"1tavm8"	"600"	"1366"	"chrome"	"108.0.0"	"FALSE"	"Windows 10"	"60.84"	n/a	n/a	n/a	n/a	n/a	n/a	"Trial"	n/a	n/a	n/a	n/a	"NULL"	"NULL"	"NULL"	"517"	"stimuli/VerticalHorizontal_11.78571_-0.2250.png"	"arrowright"	n/a	"VerticalHorizontal"	"arrowright"	"1032"	"TRUE"	"VerticalHorizontal"	"11.785710000"	"-0.225000000"	"2"	"21"
n/a	"html-keyboard-response"	"225"	"492138"	"0.0-5.0-2.0-0.21"	"1tavm8"	"600"	"1366"	"chrome"	"108.0.0"	"FALSE"	"Windows 10"	"60.84"	n/a	n/a	n/a	n/a	n/a	n/a	"fixation"	n/a	n/a	n/a	n/a	"NULL"	"NULL"	"NULL"	n/a	"<p style=\"color: black; font-size: 80px; padding-left: 43%; padding-right: 38%; padding-top: 40%; padding-bottom: 23%\">+</p>"	n/a	"1425"	n/a	n/a	n/a	n/a	n/a	n/a	n/a	n/a	n/a
n/a	"image-keyboard-response"	"226"	"492567"	"0.0-5.0-2.0-1.21"	"1tavm8"	"600"	"1366"	"chrome"	"108.0.0"	"FALSE"	"Windows 10"	"60.84"	n/a	n/a	n/a	n/a	n/a	n/a	"Trial"	n/a	n/a	n/a	n/a	"NULL"	"NULL"	"NULL"	"427"	"stimuli/VerticalHorizontal_3.30000_-0.1096.png"	"arrowright"	n/a	"VerticalHorizontal"	"arrowright"	"1432"	"TRUE"	"VerticalHorizontal"	"3.3000000000"	"-0.109600000"	"2"	"22"
n/a	"html-keyboard-response"	"227"	"493660"	"0.0-5.0-2.0-0.22"	"1tavm8"	"600"	"1366"	"chrome"	"108.0.0"	"FALSE"	"Windows 10"	"60.84"	n/a	n/a	n/a	n/a	n/a	n/a	"fixation"	n/a	n/a	n/a	n/a	"NULL"	"NULL"	"NULL"	n/a	"<p style=\"color: black; font-size: 80px; padding-left: 29%; padding-right: 12%; padding-top: 24%; padding-bottom: 46%\">+</p>"	n/a	"1074"	n/a	n/a	n/a	n/a	n/a	n/a	n/a	n/a	n/a
n/a	"image-keyboard-response"	"228"	"494011"	"0.0-5.0-2.0-1.22"	"1tavm8"	"600"	"1366"	"chrome"	"108.0.0"	"FALSE"	"Windows 10"	"60.84"	n/a	n/a	n/a	n/a	n/a	n/a	"Trial"	n/a	n/a	n/a	n/a	"NULL"	"NULL"	"NULL"	"349"	"stimuli/VerticalHorizontal_28.75714_-0.16217.png"	"arrowleft"	n/a	"VerticalHorizontal"	"arrowright"	"1093"	"FALSE"	"VerticalHorizontal"	"28.757140000"	"-0.162170000"	"2"	"23"
n/a	"html-keyboard-response"	"229"	"495203"	"0.0-5.0-2.0-0.23"	"1tavm8"	"600"	"1366"	"chrome"	"108.0.0"	"FALSE"	"Windows 10"	"60.84"	n/a	n/a	n/a	n/a	n/a	n/a	"fixation"	n/a	n/a	n/a	n/a	"NULL"	"NULL"	"NULL"	n/a	"<p style=\"color: black; font-size: 80px; padding-left: 22%; padding-right: 42%; padding-top: 40%; padding-bottom: 16%\">+</p>"	n/a	"1182"	n/a	n/a	n/a	n/a	n/a	n/a	n/a	n/a	n/a
n/a	"image-keyboard-response"	"230"	"495534"	"0.0-5.0-2.0-1.23"	"1tavm8"	"600"	"1366"	"chrome"	"108.0.0"	"FALSE"	"Windows 10"	"60.84"	n/a	n/a	n/a	n/a	n/a	n/a	"Trial"	n/a	n/a	n/a	n/a	"NULL"	"NULL"	"NULL"	"330"	"stimuli/VerticalHorizontal_-20.27143_0.16217.png"	"arrowleft"	n/a	"VerticalHorizontal"	"arrowleft"	"1192"	"TRUE"	"VerticalHorizontal"	"-20.27143000"	"0.1621700000"	"2"	"24"
n/a	"html-keyboard-response"	"231"	"496676"	"0.0-5.0-2.0-0.24"	"1tavm8"	"600"	"1366"	"chrome"	"108.0.0"	"FALSE"	"Windows 10"	"60.84"	n/a	n/a	n/a	n/a	n/a	n/a	"fixation"	n/a	n/a	n/a	n/a	"NULL"	"NULL"	"NULL"	n/a	"<p style=\"color: black; font-size: 80px; padding-left: 0%; padding-right: 31%; padding-top: 23%; padding-bottom: 17%\">+</p>"	n/a	"1129"	n/a	n/a	n/a	n/a	n/a	n/a	n/a	n/a	n/a
n/a	"image-keyboard-response"	"232"	"497000"	"0.0-5.0-2.0-1.24"	"1tavm8"	"600"	"1366"	"chrome"	"108.0.0"	"FALSE"	"Windows 10"	"60.84"	n/a	n/a	n/a	n/a	n/a	n/a	"Trial"	n/a	n/a	n/a	n/a	"NULL"	"NULL"	"NULL"	"323"	"stimuli/VerticalHorizontal_-20.27143_-0.0673.png"	"arrowright"	n/a	"VerticalHorizontal"	"arrowright"	"1142"	"TRUE"	"VerticalHorizontal"	"-20.27143000"	"-0.067300000"	"2"	"25"
n/a	"html-keyboard-response"	"233"	"498265"	"0.0-5.0-2.0-0.25"	"1tavm8"	"600"	"1366"	"chrome"	"108.0.0"	"FALSE"	"Windows 10"	"60.84"	n/a	n/a	n/a	n/a	n/a	n/a	"fixation"	n/a	n/a	n/a	n/a	"NULL"	"NULL"	"NULL"	n/a	"<p style=\"color: black; font-size: 80px; padding-left: 2%; padding-right: 9%; padding-top: 19%; padding-bottom: 49%\">+</p>"	n/a	"1245"	n/a	n/a	n/a	n/a	n/a	n/a	n/a	n/a	n/a
n/a	"image-keyboard-response"	"234"	"498547"	"0.0-5.0-2.0-1.25"	"1tavm8"	"600"	"1366"	"chrome"	"108.0.0"	"FALSE"	"Windows 10"	"60.84"	n/a	n/a	n/a	n/a	n/a	n/a	"Trial"	n/a	n/a	n/a	n/a	"NULL"	"NULL"	"NULL"	"280"	"stimuli/VerticalHorizontal_-3.3000_-0.0673.png"	"arrowleft"	n/a	"VerticalHorizontal"	"arrowright"	"1265"	"FALSE"	"VerticalHorizontal"	"-3.300000000"	"-0.067300000"	"2"	"26"
n/a	"html-keyboard-response"	"235"	"499583"	"0.0-5.0-2.0-0.26"	"1tavm8"	"600"	"1366"	"chrome"	"108.0.0"	"FALSE"	"Windows 10"	"60.84"	n/a	n/a	n/a	n/a	n/a	n/a	"fixation"	n/a	n/a	n/a	n/a	"NULL"	"NULL"	"NULL"	n/a	"<p style=\"color: black; font-size: 80px; padding-left: 30%; padding-right: 45%; padding-top: 5%; padding-bottom: 19%\">+</p>"	n/a	"1031"	n/a	n/a	n/a	n/a	n/a	n/a	n/a	n/a	n/a
n/a	"image-keyboard-response"	"236"	"499977"	"0.0-5.0-2.0-1.26"	"1tavm8"	"600"	"1366"	"chrome"	"108.0.0"	"FALSE"	"Windows 10"	"60.84"	n/a	n/a	n/a	n/a	n/a	n/a	"Trial"	n/a	n/a	n/a	n/a	"NULL"	"NULL"	"NULL"	"391"	"stimuli/VerticalHorizontal_28.75714_0.16217.png"	"arrowright"	n/a	"VerticalHorizontal"	"arrowleft"	"1036"	"FALSE"	"VerticalHorizontal"	"28.757140000"	"0.1621700000"	"2"	"27"
n/a	"html-keyboard-response"	"237"	"501286"	"0.0-5.0-2.0-0.27"	"1tavm8"	"600"	"1366"	"chrome"	"108.0.0"	"FALSE"	"Windows 10"	"60.84"	n/a	n/a	n/a	n/a	n/a	n/a	"fixation"	n/a	n/a	n/a	n/a	"NULL"	"NULL"	"NULL"	n/a	"<p style=\"color: black; font-size: 80px; padding-left: 12%; padding-right: 46%; padding-top: 10%; padding-bottom: 38%\">+</p>"	n/a	"1291"	n/a	n/a	n/a	n/a	n/a	n/a	n/a	n/a	n/a
n/a	"image-keyboard-response"	"238"	"501717"	"0.0-5.0-2.0-1.27"	"1tavm8"	"600"	"1366"	"chrome"	"108.0.0"	"FALSE"	"Windows 10"	"60.84"	n/a	n/a	n/a	n/a	n/a	n/a	"Trial"	n/a	n/a	n/a	n/a	"NULL"	"NULL"	"NULL"	"430"	"stimuli/VerticalHorizontal_-3.3000_-0.1096.png"	"arrowright"	n/a	"VerticalHorizontal"	"arrowright"	"1309"	"TRUE"	"VerticalHorizontal"	"-3.300000000"	"-0.109600000"	"2"	"28"
n/a	"html-keyboard-response"	"239"	"503144"	"0.0-5.0-2.0-0.28"	"1tavm8"	"600"	"1366"	"chrome"	"108.0.0"	"FALSE"	"Windows 10"	"60.84"	n/a	n/a	n/a	n/a	n/a	n/a	"fixation"	n/a	n/a	n/a	n/a	"NULL"	"NULL"	"NULL"	n/a	"<p style=\"color: black; font-size: 80px; padding-left: 27%; padding-right: 48%; padding-top: 21%; padding-bottom: 5%\">+</p>"	n/a	"1404"	n/a	n/a	n/a	n/a	n/a	n/a	n/a	n/a	n/a
n/a	"image-keyboard-response"	"240"	"503398"	"0.0-5.0-2.0-1.28"	"1tavm8"	"600"	"1366"	"chrome"	"108.0.0"	"FALSE"	"Windows 10"	"60.84"	n/a	n/a	n/a	n/a	n/a	n/a	"Trial"	n/a	n/a	n/a	n/a	"NULL"	"NULL"	"NULL"	"253"	"stimuli/VerticalHorizontal_-28.75714_0.22500.png"	"arrowright"	n/a	"VerticalHorizontal"	"arrowleft"	"1427"	"FALSE"	"VerticalHorizontal"	"-28.75714000"	"0.2250000000"	"2"	"29"
n/a	"html-keyboard-response"	"241"	"504719"	"0.0-5.0-2.0-0.29"	"1tavm8"	"600"	"1366"	"chrome"	"108.0.0"	"FALSE"	"Windows 10"	"60.84"	n/a	n/a	n/a	n/a	n/a	n/a	"fixation"	n/a	n/a	n/a	n/a	"NULL"	"NULL"	"NULL"	n/a	"<p style=\"color: black; font-size: 80px; padding-left: 11%; padding-right: 40%; padding-top: 15%; padding-bottom: 21%\">+</p>"	n/a	"1300"	n/a	n/a	n/a	n/a	n/a	n/a	n/a	n/a	n/a
n/a	"image-keyboard-response"	"242"	"505066"	"0.0-5.0-2.0-1.29"	"1tavm8"	"600"	"1366"	"chrome"	"108.0.0"	"FALSE"	"Windows 10"	"60.84"	n/a	n/a	n/a	n/a	n/a	n/a	"Trial"	n/a	n/a	n/a	n/a	"NULL"	"NULL"	"NULL"	"346"	"stimuli/VerticalHorizontal_20.27143_-0.1096.png"	"arrowleft"	n/a	"VerticalHorizontal"	"arrowright"	"1321"	"FALSE"	"VerticalHorizontal"	"20.271430000"	"-0.109600000"	"2"	"30"
n/a	"html-keyboard-response"	"243"	"506281"	"0.0-5.0-2.0-0.30"	"1tavm8"	"600"	"1366"	"chrome"	"108.0.0"	"FALSE"	"Windows 10"	"60.84"	n/a	n/a	n/a	n/a	n/a	n/a	"fixation"	n/a	n/a	n/a	n/a	"NULL"	"NULL"	"NULL"	n/a	"<p style=\"color: black; font-size: 80px; padding-left: 42%; padding-right: 19%; padding-top: 2%; padding-bottom: 46%\">+</p>"	n/a	"1192"	n/a	n/a	n/a	n/a	n/a	n/a	n/a	n/a	n/a
n/a	"image-keyboard-response"	"244"	"506654"	"0.0-5.0-2.0-1.30"	"1tavm8"	"600"	"1366"	"chrome"	"108.0.0"	"FALSE"	"Windows 10"	"60.84"	n/a	n/a	n/a	n/a	n/a	n/a	"Trial"	n/a	n/a	n/a	n/a	"NULL"	"NULL"	"NULL"	"367"	"stimuli/VerticalHorizontal_-28.75714_-0.0673.png"	"arrowright"	n/a	"VerticalHorizontal"	"arrowright"	"1215"	"TRUE"	"VerticalHorizontal"	"-28.75714000"	"-0.067300000"	"2"	"31"
n/a	"html-keyboard-response"	"245"	"508153"	"0.0-5.0-2.0-0.31"	"1tavm8"	"600"	"1366"	"chrome"	"108.0.0"	"FALSE"	"Windows 10"	"60.84"	n/a	n/a	n/a	n/a	n/a	n/a	"fixation"	n/a	n/a	n/a	n/a	"NULL"	"NULL"	"NULL"	n/a	"<p style=\"color: black; font-size: 80px; padding-left: 34%; padding-right: 27%; padding-top: 12%; padding-bottom: 19%\">+</p>"	n/a	"1483"	n/a	n/a	n/a	n/a	n/a	n/a	n/a	n/a	n/a
n/a	"image-keyboard-response"	"246"	"508508"	"0.0-5.0-2.0-1.31"	"1tavm8"	"600"	"1366"	"chrome"	"108.0.0"	"FALSE"	"Windows 10"	"60.84"	n/a	n/a	n/a	n/a	n/a	n/a	"Trial"	n/a	n/a	n/a	n/a	"NULL"	"NULL"	"NULL"	"351"	"stimuli/VerticalHorizontal_11.78571_0.06730.png"	"arrowright"	n/a	"VerticalHorizontal"	"arrowleft"	"1499"	"FALSE"	"VerticalHorizontal"	"11.785710000"	"0.0673000000"	"2"	"32"
n/a	"html-keyboard-response"	"247"	"509987"	"0.0-5.0-2.0-0.32"	"1tavm8"	"600"	"1366"	"chrome"	"108.0.0"	"FALSE"	"Windows 10"	"60.84"	n/a	n/a	n/a	n/a	n/a	n/a	"fixation"	n/a	n/a	n/a	n/a	"NULL"	"NULL"	"NULL"	n/a	"<p style=\"color: black; font-size: 80px; padding-left: 27%; padding-right: 46%; padding-top: 49%; padding-bottom: 12%\">+</p>"	n/a	"1472"	n/a	n/a	n/a	n/a	n/a	n/a	n/a	n/a	n/a
n/a	"image-keyboard-response"	"248"	"510367"	"0.0-5.0-2.0-1.32"	"1tavm8"	"600"	"1366"	"chrome"	"108.0.0"	"FALSE"	"Windows 10"	"60.84"	n/a	n/a	n/a	n/a	n/a	n/a	"Trial"	n/a	n/a	n/a	n/a	"NULL"	"NULL"	"NULL"	"380"	"stimuli/VerticalHorizontal_-20.27143_-0.16217.png"	"arrowright"	n/a	"VerticalHorizontal"	"arrowright"	"1479"	"TRUE"	"VerticalHorizontal"	"-20.27143000"	"-0.162170000"	"2"	"33"
n/a	"html-keyboard-response"	"249"	"511511"	"0.0-5.0-2.0-0.33"	"1tavm8"	"600"	"1366"	"chrome"	"108.0.0"	"FALSE"	"Windows 10"	"60.84"	n/a	n/a	n/a	n/a	n/a	n/a	"fixation"	n/a	n/a	n/a	n/a	"NULL"	"NULL"	"NULL"	n/a	"<p style=\"color: black; font-size: 80px; padding-left: 22%; padding-right: 37%; padding-top: 14%; padding-bottom: 4%\">+</p>"	n/a	"1128"	n/a	n/a	n/a	n/a	n/a	n/a	n/a	n/a	n/a
n/a	"image-keyboard-response"	"250"	"512005"	"0.0-5.0-2.0-1.33"	"1tavm8"	"600"	"1366"	"chrome"	"108.0.0"	"FALSE"	"Windows 10"	"60.84"	n/a	n/a	n/a	n/a	n/a	n/a	"Trial"	n/a	n/a	n/a	n/a	"NULL"	"NULL"	"NULL"	"492"	"stimuli/VerticalHorizontal_20.27143_0.10960.png"	"arrowleft"	n/a	"VerticalHorizontal"	"arrowleft"	"1144"	"TRUE"	"VerticalHorizontal"	"20.271430000"	"0.1096000000"	"2"	"34"
n/a	"html-keyboard-response"	"251"	"513110"	"0.0-5.0-2.0-0.34"	"1tavm8"	"600"	"1366"	"chrome"	"108.0.0"	"FALSE"	"Windows 10"	"60.84"	n/a	n/a	n/a	n/a	n/a	n/a	"fixation"	n/a	n/a	n/a	n/a	"NULL"	"NULL"	"NULL"	n/a	"<p style=\"color: black; font-size: 80px; padding-left: 43%; padding-right: 1%; padding-top: 38%; padding-bottom: 11%\">+</p>"	n/a	"1094"	n/a	n/a	n/a	n/a	n/a	n/a	n/a	n/a	n/a
n/a	"image-keyboard-response"	"252"	"513477"	"0.0-5.0-2.0-1.34"	"1tavm8"	"600"	"1366"	"chrome"	"108.0.0"	"FALSE"	"Windows 10"	"60.84"	n/a	n/a	n/a	n/a	n/a	n/a	"Trial"	n/a	n/a	n/a	n/a	"NULL"	"NULL"	"NULL"	"365"	"stimuli/VerticalHorizontal_3.30000_-0.16217.png"	"arrowright"	n/a	"VerticalHorizontal"	"arrowright"	"1105"	"TRUE"	"VerticalHorizontal"	"3.3000000000"	"-0.162170000"	"2"	"35"
n/a	"html-keyboard-response"	"253"	"514772"	"0.0-5.0-2.0-0.35"	"1tavm8"	"600"	"1366"	"chrome"	"108.0.0"	"FALSE"	"Windows 10"	"60.84"	n/a	n/a	n/a	n/a	n/a	n/a	"fixation"	n/a	n/a	n/a	n/a	"NULL"	"NULL"	"NULL"	n/a	"<p style=\"color: black; font-size: 80px; padding-left: 7%; padding-right: 41%; padding-top: 36%; padding-bottom: 8%\">+</p>"	n/a	"1290"	n/a	n/a	n/a	n/a	n/a	n/a	n/a	n/a	n/a
n/a	"image-keyboard-response"	"254"	"515175"	"0.0-5.0-2.0-1.35"	"1tavm8"	"600"	"1366"	"chrome"	"108.0.0"	"FALSE"	"Windows 10"	"60.84"	n/a	n/a	n/a	n/a	n/a	n/a	"Trial"	n/a	n/a	n/a	n/a	"NULL"	"NULL"	"NULL"	"402"	"stimuli/VerticalHorizontal_3.30000_-0.2250.png"	"arrowright"	n/a	"VerticalHorizontal"	"arrowright"	"1295"	"TRUE"	"VerticalHorizontal"	"3.3000000000"	"-0.225000000"	"2"	"36"
n/a	"html-keyboard-response"	"255"	"516482"	"0.0-5.0-2.0-0.36"	"1tavm8"	"600"	"1366"	"chrome"	"108.0.0"	"FALSE"	"Windows 10"	"60.84"	n/a	n/a	n/a	n/a	n/a	n/a	"fixation"	n/a	n/a	n/a	n/a	"NULL"	"NULL"	"NULL"	n/a	"<p style=\"color: black; font-size: 80px; padding-left: 38%; padding-right: 22%; padding-top: 48%; padding-bottom: 32%\">+</p>"	n/a	"1285"	n/a	n/a	n/a	n/a	n/a	n/a	n/a	n/a	n/a
