"success"	"trial_type"	"trial_index"	"time_elapsed"	"internal_node_id"	"participant_id"	"screen_height"	"screen_width"	"browser"	"browser_version"	"mobile"	"os"	"vsync_rate"	"subject_id"	"width"	"height"	"webaudio"	"fullscreen"	"webcam"	"microphone"	"screen"	"version"	"date"	"time"	"rt"	"response"	"timeout"	"failed_images"	"failed_audio"	"failed_video"	"stimulus"	"trial_duration"	"block"	"correct_response"	"prestimulus_duration"	"correct"	"type"	"illusion_strength"	"illusion_difference"	"block_number"	"trial_number"
"TRUE"	"fullscreen"	"0"	"1746"	"0.0-0.0"	"yz2wpe"	"600"	"1366"	"chrome"	"108.0.0"	"FALSE"	"Windows 10"	"60.53"	"148"	n/a	n/a	n/a	n/a	n/a	n/a	n/a	n/a	n/a	n/a	n/a	"NULL"	n/a	"NULL"	"NULL"	"NULL"	n/a	n/a	n/a	n/a	n/a	n/a	n/a	n/a	n/a	n/a	n/a
n/a	"browser-check"	"1"	"2762"	"0.0-1.0"	"yz2wpe"	"600"	"1366"	"chrome"	"108.0.0"	"FALSE"	"Windows 10"	"60.53"	"148"	"1366"	"600"	"TRUE"	"TRUE"	"TRUE"	"TRUE"	"browser_info"	"1.0"	"12/01/2023"	"12:44:52"	n/a	"NULL"	n/a	"NULL"	"NULL"	"NULL"	n/a	n/a	n/a	n/a	n/a	n/a	n/a	n/a	n/a	n/a	n/a
n/a	"survey-text"	"2"	"6486"	"0.0-2.0"	"yz2wpe"	"600"	"1366"	"chrome"	"108.0.0"	"FALSE"	"Windows 10"	"60.53"	"148"	n/a	n/a	n/a	n/a	n/a	n/a	"subject_id"	n/a	n/a	n/a	"3719"	"list(subject_id = \"148\")"	n/a	"NULL"	"NULL"	"NULL"	n/a	n/a	n/a	n/a	n/a	n/a	n/a	n/a	n/a	n/a	n/a
"TRUE"	"preload"	"3"	"6501"	"0.0-3.0"	"yz2wpe"	"600"	"1366"	"chrome"	"108.0.0"	"FALSE"	"Windows 10"	"60.53"	"148"	n/a	n/a	n/a	n/a	n/a	n/a	n/a	n/a	n/a	n/a	n/a	"NULL"	"FALSE"	"list()"	"list()"	"list()"	n/a	n/a	n/a	n/a	n/a	n/a	n/a	n/a	n/a	n/a	n/a
n/a	"html-button-response"	"4"	"25840"	"0.0-4.0-0.0"	"yz2wpe"	"600"	"1366"	"chrome"	"108.0.0"	"FALSE"	"Windows 10"	"60.53"	"148"	n/a	n/a	n/a	n/a	n/a	n/a	"illusion_instructions"	n/a	n/a	n/a	"19338"	"0"	n/a	"NULL"	"NULL"	"NULL"	"<p><b>Illusion Game</b></p><p>In this game of speed and reflex, you will need to make <b>visual judgments</b> (for instance, which circle is the biggest, or which line is the longest), as fast and as correctly as possible, while <b>resisting different visual illusions</b>.</p><p>We are going to start with some examples of all the illusions you will encounter in the game.</p>"	n/a	n/a	n/a	n/a	n/a	n/a	n/a	n/a	n/a	n/a
"TRUE"	"preload"	"5"	"25864"	"0.0-4.0-1.0-0.0"	"yz2wpe"	"600"	"1366"	"chrome"	"108.0.0"	"FALSE"	"Windows 10"	"60.53"	"148"	n/a	n/a	n/a	n/a	n/a	n/a	n/a	n/a	n/a	n/a	n/a	"NULL"	"FALSE"	"list()"	"list()"	"list()"	n/a	n/a	n/a	n/a	n/a	n/a	n/a	n/a	n/a	n/a	n/a
n/a	"html-keyboard-response"	"6"	"40228"	"0.0-4.0-1.0-1.0"	"yz2wpe"	"600"	"1366"	"chrome"	"108.0.0"	"FALSE"	"Windows 10"	"60.53"	"148"	n/a	n/a	n/a	n/a	n/a	n/a	n/a	n/a	n/a	n/a	"14363"	"enter"	n/a	"NULL"	"NULL"	"NULL"	"<p><b>Practice</b></p><p>In this part, two red circles will appear side by side on the screen.</p><p>Your task is to select which <b>red circle is bigger</b> in size as fast as you can, without making errors.</p><p>Don't get distracted by the surrounding black circles around the red circles!</p><p>Press <b>the LEFT or the RIGHT arrow</b> to indicate which is the bigger <b>red circle.</b></p><div style='float: center'><img src='materials/instructions/Ebbinghaus_Demo.png' height='300'></img><p><img src='utils/answer/answer_leftright_keyboard.PNG' height='150'></img></p><p class='small'>In this example, the correct answer is the <b>LEFT arrow</b>.</p></div><p>Are you ready? <b>Press ENTER to start</b></p>"	n/a	n/a	n/a	n/a	n/a	n/a	n/a	n/a	n/a	n/a
n/a	"html-keyboard-response"	"7"	"42012"	"0.0-4.0-1.0-2.0-0.0"	"yz2wpe"	"600"	"1366"	"chrome"	"108.0.0"	"FALSE"	"Windows 10"	"60.53"	"148"	n/a	n/a	n/a	n/a	n/a	n/a	"fixation"	n/a	n/a	n/a	n/a	"NULL"	n/a	"NULL"	"NULL"	"NULL"	"<p style=\"color: black; font-size: 80px; padding-left: 28%; padding-right: 33%; padding-top: 8%; padding-bottom: 38%\">+</p>"	"1263"	n/a	n/a	n/a	n/a	n/a	n/a	n/a	n/a	n/a
n/a	"image-keyboard-response"	"8"	"42878"	"0.0-4.0-1.0-2.0-1.0"	"yz2wpe"	"600"	"1366"	"chrome"	"108.0.0"	"FALSE"	"Windows 10"	"60.53"	"148"	n/a	n/a	n/a	n/a	n/a	n/a	"Trial"	n/a	n/a	n/a	"846"	"arrowright"	n/a	"NULL"	"NULL"	"NULL"	"stimuli/Ebbinghaus_0000000_-1.4000.png"	n/a	"Ebbinghaus"	"arrowright"	"1784"	"TRUE"	"Ebbinghaus"	"000000000000"	"-1.400000000"	"1"	"1"
n/a	"html-keyboard-response"	"9"	"44281"	"0.0-4.0-1.0-2.0-0.1"	"yz2wpe"	"600"	"1366"	"chrome"	"108.0.0"	"FALSE"	"Windows 10"	"60.53"	"148"	n/a	n/a	n/a	n/a	n/a	n/a	"fixation"	n/a	n/a	n/a	n/a	"NULL"	n/a	"NULL"	"NULL"	"NULL"	"<p style=\"color: black; font-size: 80px; padding-left: 34%; padding-right: 35%; padding-top: 44%; padding-bottom: 1%\">+</p>"	"1391"	n/a	n/a	n/a	n/a	n/a	n/a	n/a	n/a	n/a
n/a	"image-keyboard-response"	"10"	"44869"	"0.0-4.0-1.0-2.0-1.1"	"yz2wpe"	"600"	"1366"	"chrome"	"108.0.0"	"FALSE"	"Windows 10"	"60.53"	"148"	n/a	n/a	n/a	n/a	n/a	n/a	"Trial"	n/a	n/a	n/a	"587"	"arrowleft"	n/a	"NULL"	"NULL"	"NULL"	"stimuli/Ebbinghaus_0000000_1.40000.png"	n/a	"Ebbinghaus"	"arrowleft"	"1403"	"TRUE"	"Ebbinghaus"	"000000000000"	"1.4000000000"	"1"	"2"
n/a	"html-keyboard-response"	"11"	"46184"	"0.0-4.0-1.0-2.0-0.2"	"yz2wpe"	"600"	"1366"	"chrome"	"108.0.0"	"FALSE"	"Windows 10"	"60.53"	"148"	n/a	n/a	n/a	n/a	n/a	n/a	"fixation"	n/a	n/a	n/a	n/a	"NULL"	n/a	"NULL"	"NULL"	"NULL"	"<p style=\"color: black; font-size: 80px; padding-left: 37%; padding-right: 48%; padding-top: 23%; padding-bottom: 2%\">+</p>"	"1306"	n/a	n/a	n/a	n/a	n/a	n/a	n/a	n/a	n/a
n/a	"image-keyboard-response"	"12"	"46661"	"0.0-4.0-1.0-2.0-1.2"	"yz2wpe"	"600"	"1366"	"chrome"	"108.0.0"	"FALSE"	"Windows 10"	"60.53"	"148"	n/a	n/a	n/a	n/a	n/a	n/a	"Trial"	n/a	n/a	n/a	"476"	"arrowleft"	n/a	"NULL"	"NULL"	"NULL"	"stimuli/Ebbinghaus_-100000_1.40000.png"	n/a	"Ebbinghaus"	"arrowleft"	"1315"	"TRUE"	"Ebbinghaus"	"-10000000000"	"1.4000000000"	"1"	"3"
n/a	"html-keyboard-response"	"13"	"47707"	"0.0-4.0-1.0-2.0-0.3"	"yz2wpe"	"600"	"1366"	"chrome"	"108.0.0"	"FALSE"	"Windows 10"	"60.53"	"148"	n/a	n/a	n/a	n/a	n/a	n/a	"fixation"	n/a	n/a	n/a	n/a	"NULL"	n/a	"NULL"	"NULL"	"NULL"	"<p style=\"color: black; font-size: 80px; padding-left: 45%; padding-right: 20%; padding-top: 29%; padding-bottom: 42%\">+</p>"	"1031"	n/a	n/a	n/a	n/a	n/a	n/a	n/a	n/a	n/a
n/a	"image-keyboard-response"	"14"	"48191"	"0.0-4.0-1.0-2.0-1.3"	"yz2wpe"	"600"	"1366"	"chrome"	"108.0.0"	"FALSE"	"Windows 10"	"60.53"	"148"	n/a	n/a	n/a	n/a	n/a	n/a	"Trial"	n/a	n/a	n/a	"483"	"arrowright"	n/a	"NULL"	"NULL"	"NULL"	"stimuli/Ebbinghaus_1000000_-1.4000.png"	n/a	"Ebbinghaus"	"arrowright"	"1046"	"TRUE"	"Ebbinghaus"	"100000000000"	"-1.400000000"	"1"	"4"
n/a	"html-keyboard-response"	"15"	"49251"	"0.0-4.0-1.0-2.0-0.4"	"yz2wpe"	"600"	"1366"	"chrome"	"108.0.0"	"FALSE"	"Windows 10"	"60.53"	"148"	n/a	n/a	n/a	n/a	n/a	n/a	"fixation"	n/a	n/a	n/a	n/a	"NULL"	n/a	"NULL"	"NULL"	"NULL"	"<p style=\"color: black; font-size: 80px; padding-left: 9%; padding-right: 3%; padding-top: 40%; padding-bottom: 28%\">+</p>"	"1055"	n/a	n/a	n/a	n/a	n/a	n/a	n/a	n/a	n/a
n/a	"image-keyboard-response"	"16"	"49640"	"0.0-4.0-1.0-2.0-1.4"	"yz2wpe"	"600"	"1366"	"chrome"	"108.0.0"	"FALSE"	"Windows 10"	"60.53"	"148"	n/a	n/a	n/a	n/a	n/a	n/a	"Trial"	n/a	n/a	n/a	"387"	"arrowright"	n/a	"NULL"	"NULL"	"NULL"	"stimuli/Ebbinghaus_-100000_-1.4000.png"	n/a	"Ebbinghaus"	"arrowright"	"1060"	"TRUE"	"Ebbinghaus"	"-10000000000"	"-1.400000000"	"1"	"5"
n/a	"html-keyboard-response"	"17"	"51003"	"0.0-4.0-1.0-2.0-0.5"	"yz2wpe"	"600"	"1366"	"chrome"	"108.0.0"	"FALSE"	"Windows 10"	"60.53"	"148"	n/a	n/a	n/a	n/a	n/a	n/a	"fixation"	n/a	n/a	n/a	n/a	"NULL"	n/a	"NULL"	"NULL"	"NULL"	"<p style=\"color: black; font-size: 80px; padding-left: 26%; padding-right: 15%; padding-top: 39%; padding-bottom: 31%\">+</p>"	"1349"	n/a	n/a	n/a	n/a	n/a	n/a	n/a	n/a	n/a
n/a	"image-keyboard-response"	"18"	"51493"	"0.0-4.0-1.0-2.0-1.5"	"yz2wpe"	"600"	"1366"	"chrome"	"108.0.0"	"FALSE"	"Windows 10"	"60.53"	"148"	n/a	n/a	n/a	n/a	n/a	n/a	"Trial"	n/a	n/a	n/a	"489"	"arrowleft"	n/a	"NULL"	"NULL"	"NULL"	"stimuli/Ebbinghaus_1000000_1.40000.png"	n/a	"Ebbinghaus"	"arrowleft"	"1363"	"TRUE"	"Ebbinghaus"	"100000000000"	"1.4000000000"	"1"	"6"
n/a	"html-button-response"	"19"	"56989"	"0.0-4.0-1.0-3.0"	"yz2wpe"	"600"	"1366"	"chrome"	"108.0.0"	"FALSE"	"Windows 10"	"60.53"	"148"	n/a	n/a	n/a	n/a	n/a	n/a	"practice_block_results"	n/a	n/a	n/a	"5492"	"0"	n/a	"NULL"	"NULL"	"NULL"	"<p style='color:rgb(76,175,80);'> Correct Responses: <b>100.00%</b></p><hr><p style='color:rgb(233,30,99);'> Average Response Time: <b>544.67</b> ms.</p>"	n/a	n/a	n/a	n/a	n/a	n/a	n/a	n/a	n/a	n/a
"TRUE"	"preload"	"20"	"57512"	"0.0-4.0-2.0-0.0"	"yz2wpe"	"600"	"1366"	"chrome"	"108.0.0"	"FALSE"	"Windows 10"	"60.53"	"148"	n/a	n/a	n/a	n/a	n/a	n/a	n/a	n/a	n/a	n/a	n/a	"NULL"	"FALSE"	"list()"	"list()"	"list()"	n/a	n/a	n/a	n/a	n/a	n/a	n/a	n/a	n/a	n/a	n/a
n/a	"html-keyboard-response"	"21"	"66436"	"0.0-4.0-2.0-1.0"	"yz2wpe"	"600"	"1366"	"chrome"	"108.0.0"	"FALSE"	"Windows 10"	"60.53"	"148"	n/a	n/a	n/a	n/a	n/a	n/a	n/a	n/a	n/a	n/a	"8923"	"enter"	n/a	"NULL"	"NULL"	"NULL"	"<p><b>Practice</b></p><p>In this part, two horizontal red lines will appear one above the other.</p><p>Your task is to select which <b>line is longer</b> in length as fast as you can, without making errors.</p><p>Don't get distracted by the surrounding black arrows at the end of the red lines!</p><p>Press <b>the UP or the DOWN arrow</b> to indicate where is the longer <b>red line.</b></p><div style='float: center'><img src='materials/instructions/MullerLyer_Demo.png' height='300'></img><p><img src='utils/answer/answer_updown_keyboard.PNG' height='150'></img></p><p class='small'>In this example, the correct answer is the <b>UP arrow</b>.</p></div><p>Are you ready? <b>Press ENTER to start</b></p>"	n/a	n/a	n/a	n/a	n/a	n/a	n/a	n/a	n/a	n/a
n/a	"html-keyboard-response"	"22"	"68167"	"0.0-4.0-2.0-2.0-0.0"	"yz2wpe"	"600"	"1366"	"chrome"	"108.0.0"	"FALSE"	"Windows 10"	"60.53"	"148"	n/a	n/a	n/a	n/a	n/a	n/a	"fixation"	n/a	n/a	n/a	n/a	"NULL"	n/a	"NULL"	"NULL"	"NULL"	"<p style=\"color: black; font-size: 80px; padding-left: 42%; padding-right: 28%; padding-top: 44%; padding-bottom: 24%\">+</p>"	"1199"	n/a	n/a	n/a	n/a	n/a	n/a	n/a	n/a	n/a
n/a	"image-keyboard-response"	"23"	"69092"	"0.0-4.0-2.0-2.0-1.0"	"yz2wpe"	"600"	"1366"	"chrome"	"108.0.0"	"FALSE"	"Windows 10"	"60.53"	"148"	n/a	n/a	n/a	n/a	n/a	n/a	"Trial"	n/a	n/a	n/a	"922"	"arrowdown"	n/a	"NULL"	"NULL"	"NULL"	"stimuli/MullerLyer_0000000_-0.7000.png"	n/a	"MullerLyer"	"arrowdown"	"1731"	"TRUE"	"MullerLyer"	"000000000000"	"-0.700000000"	"1"	"7"
n/a	"html-keyboard-response"	"24"	"70145"	"0.0-4.0-2.0-2.0-0.1"	"yz2wpe"	"600"	"1366"	"chrome"	"108.0.0"	"FALSE"	"Windows 10"	"60.53"	"148"	n/a	n/a	n/a	n/a	n/a	n/a	"fixation"	n/a	n/a	n/a	n/a	"NULL"	n/a	"NULL"	"NULL"	"NULL"	"<p style=\"color: black; font-size: 80px; padding-left: 21%; padding-right: 5%; padding-top: 48%; padding-bottom: 2%\">+</p>"	"1042"	n/a	n/a	n/a	n/a	n/a	n/a	n/a	n/a	n/a
n/a	"image-keyboard-response"	"25"	"70628"	"0.0-4.0-2.0-2.0-1.1"	"yz2wpe"	"600"	"1366"	"chrome"	"108.0.0"	"FALSE"	"Windows 10"	"60.53"	"148"	n/a	n/a	n/a	n/a	n/a	n/a	"Trial"	n/a	n/a	n/a	"481"	"arrowdown"	n/a	"NULL"	"NULL"	"NULL"	"stimuli/MullerLyer_2300000_-0.7000.png"	n/a	"MullerLyer"	"arrowdown"	"1053"	"TRUE"	"MullerLyer"	"230000000000"	"-0.700000000"	"1"	"8"
n/a	"html-keyboard-response"	"26"	"71799"	"0.0-4.0-2.0-2.0-0.2"	"yz2wpe"	"600"	"1366"	"chrome"	"108.0.0"	"FALSE"	"Windows 10"	"60.53"	"148"	n/a	n/a	n/a	n/a	n/a	n/a	"fixation"	n/a	n/a	n/a	n/a	"NULL"	n/a	"NULL"	"NULL"	"NULL"	"<p style=\"color: black; font-size: 80px; padding-left: 33%; padding-right: 32%; padding-top: 4%; padding-bottom: 44%\">+</p>"	"1164"	n/a	n/a	n/a	n/a	n/a	n/a	n/a	n/a	n/a
n/a	"image-keyboard-response"	"27"	"72301"	"0.0-4.0-2.0-2.0-1.2"	"yz2wpe"	"600"	"1366"	"chrome"	"108.0.0"	"FALSE"	"Windows 10"	"60.53"	"148"	n/a	n/a	n/a	n/a	n/a	n/a	"Trial"	n/a	n/a	n/a	"500"	"arrowup"	n/a	"NULL"	"NULL"	"NULL"	"stimuli/MullerLyer_0000000_0.70000.png"	n/a	"MullerLyer"	"arrowup"	"1171"	"TRUE"	"MullerLyer"	"000000000000"	"0.7000000000"	"1"	"9"
n/a	"html-keyboard-response"	"28"	"73662"	"0.0-4.0-2.0-2.0-0.3"	"yz2wpe"	"600"	"1366"	"chrome"	"108.0.0"	"FALSE"	"Windows 10"	"60.53"	"148"	n/a	n/a	n/a	n/a	n/a	n/a	"fixation"	n/a	n/a	n/a	n/a	"NULL"	n/a	"NULL"	"NULL"	"NULL"	"<p style=\"color: black; font-size: 80px; padding-left: 42%; padding-right: 15%; padding-top: 25%; padding-bottom: 31%\">+</p>"	"1353"	n/a	n/a	n/a	n/a	n/a	n/a	n/a	n/a	n/a
n/a	"image-keyboard-response"	"29"	"74204"	"0.0-4.0-2.0-2.0-1.3"	"yz2wpe"	"600"	"1366"	"chrome"	"108.0.0"	"FALSE"	"Windows 10"	"60.53"	"148"	n/a	n/a	n/a	n/a	n/a	n/a	"Trial"	n/a	n/a	n/a	"541"	"arrowup"	n/a	"NULL"	"NULL"	"NULL"	"stimuli/MullerLyer_2300000_0.70000.png"	n/a	"MullerLyer"	"arrowup"	"1361"	"TRUE"	"MullerLyer"	"230000000000"	"0.7000000000"	"1"	"10"
n/a	"html-keyboard-response"	"30"	"75514"	"0.0-4.0-2.0-2.0-0.4"	"yz2wpe"	"600"	"1366"	"chrome"	"108.0.0"	"FALSE"	"Windows 10"	"60.53"	"148"	n/a	n/a	n/a	n/a	n/a	n/a	"fixation"	n/a	n/a	n/a	n/a	"NULL"	n/a	"NULL"	"NULL"	"NULL"	"<p style=\"color: black; font-size: 80px; padding-left: 12%; padding-right: 28%; padding-top: 6%; padding-bottom: 43%\">+</p>"	"1301"	n/a	n/a	n/a	n/a	n/a	n/a	n/a	n/a	n/a
n/a	"image-keyboard-response"	"31"	"75958"	"0.0-4.0-2.0-2.0-1.4"	"yz2wpe"	"600"	"1366"	"chrome"	"108.0.0"	"FALSE"	"Windows 10"	"60.53"	"148"	n/a	n/a	n/a	n/a	n/a	n/a	"Trial"	n/a	n/a	n/a	"443"	"arrowup"	n/a	"NULL"	"NULL"	"NULL"	"stimuli/MullerLyer_-230000_0.70000.png"	n/a	"MullerLyer"	"arrowup"	"1310"	"TRUE"	"MullerLyer"	"-23000000000"	"0.7000000000"	"1"	"11"
n/a	"html-keyboard-response"	"32"	"76983"	"0.0-4.0-2.0-2.0-0.5"	"yz2wpe"	"600"	"1366"	"chrome"	"108.0.0"	"FALSE"	"Windows 10"	"60.53"	"148"	n/a	n/a	n/a	n/a	n/a	n/a	"fixation"	n/a	n/a	n/a	n/a	"NULL"	n/a	"NULL"	"NULL"	"NULL"	"<p style=\"color: black; font-size: 80px; padding-left: 37%; padding-right: 5%; padding-top: 18%; padding-bottom: 22%\">+</p>"	"1017"	n/a	n/a	n/a	n/a	n/a	n/a	n/a	n/a	n/a
n/a	"image-keyboard-response"	"33"	"77437"	"0.0-4.0-2.0-2.0-1.5"	"yz2wpe"	"600"	"1366"	"chrome"	"108.0.0"	"FALSE"	"Windows 10"	"60.53"	"148"	n/a	n/a	n/a	n/a	n/a	n/a	"Trial"	n/a	n/a	n/a	"453"	"arrowdown"	n/a	"NULL"	"NULL"	"NULL"	"stimuli/MullerLyer_-230000_-0.7000.png"	n/a	"MullerLyer"	"arrowdown"	"1025"	"TRUE"	"MullerLyer"	"-23000000000"	"-0.700000000"	"1"	"12"
n/a	"html-button-response"	"34"	"79533"	"0.0-4.0-2.0-3.0"	"yz2wpe"	"600"	"1366"	"chrome"	"108.0.0"	"FALSE"	"Windows 10"	"60.53"	"148"	n/a	n/a	n/a	n/a	n/a	n/a	"practice_block_results"	n/a	n/a	n/a	"2093"	"0"	n/a	"NULL"	"NULL"	"NULL"	"<p style='color:rgb(76,175,80);'> Correct Responses: <b>100.00%</b></p><hr><p style='color:rgb(233,30,99);'> Average Response Time: <b>556.67</b> ms.</p>"	n/a	n/a	n/a	n/a	n/a	n/a	n/a	n/a	n/a	n/a
"TRUE"	"preload"	"35"	"80054"	"0.0-4.0-3.0-0.0"	"yz2wpe"	"600"	"1366"	"chrome"	"108.0.0"	"FALSE"	"Windows 10"	"60.53"	"148"	n/a	n/a	n/a	n/a	n/a	n/a	n/a	n/a	n/a	n/a	n/a	"NULL"	"FALSE"	"list()"	"list()"	"list()"	n/a	n/a	n/a	n/a	n/a	n/a	n/a	n/a	n/a	n/a	n/a
n/a	"html-keyboard-response"	"36"	"84724"	"0.0-4.0-3.0-1.0"	"yz2wpe"	"600"	"1366"	"chrome"	"108.0.0"	"FALSE"	"Windows 10"	"60.53"	"148"	n/a	n/a	n/a	n/a	n/a	n/a	n/a	n/a	n/a	n/a	"4669"	"enter"	n/a	"NULL"	"NULL"	"NULL"	"<p><b>Practice</b></p><p>In this part, two red lines will appear side by side.</p><p>Your task is to tell <b>which line is longer</b> in length, regardless of their orientation, as fast as you can, and without making errors.</p><p>Don't get distracted by the orientation of the lines!</p><p>Press <b>the LEFT or the RIGHT arrow</b> to indicate which <b>line is the longer one.</b></p><div style='float: center'><img src='materials/instructions/VerticalHorizontal_Demo.png' height='300'></img><p><img src='utils/answer/answer_leftright_keyboard.PNG' height='150'></img></p><p class='small'>In this example, the correct answer is the <b>LEFT arrow</b>.</p></div><p>Are you ready? <b>Press ENTER to start</b></p>"	n/a	n/a	n/a	n/a	n/a	n/a	n/a	n/a	n/a	n/a
n/a	"html-keyboard-response"	"37"	"86455"	"0.0-4.0-3.0-2.0-0.0"	"yz2wpe"	"600"	"1366"	"chrome"	"108.0.0"	"FALSE"	"Windows 10"	"60.53"	"148"	n/a	n/a	n/a	n/a	n/a	n/a	"fixation"	n/a	n/a	n/a	n/a	"NULL"	n/a	"NULL"	"NULL"	"NULL"	"<p style=\"color: black; font-size: 80px; padding-left: 11%; padding-right: 47%; padding-top: 43%; padding-bottom: 1%\">+</p>"	"1205"	n/a	n/a	n/a	n/a	n/a	n/a	n/a	n/a	n/a
n/a	"image-keyboard-response"	"38"	"86851"	"0.0-4.0-3.0-2.0-1.0"	"yz2wpe"	"600"	"1366"	"chrome"	"108.0.0"	"FALSE"	"Windows 10"	"60.53"	"148"	n/a	n/a	n/a	n/a	n/a	n/a	"Trial"	n/a	n/a	n/a	"394"	"arrowleft"	n/a	"NULL"	"NULL"	"NULL"	"stimuli/VerticalHorizontal_-330000_0.90000.png"	n/a	"VerticalHorizontal"	"arrowleft"	"1731"	"TRUE"	"VerticalHorizontal"	"-33000000000"	"0.9000000000"	"1"	"13"
n/a	"html-keyboard-response"	"39"	"88148"	"0.0-4.0-3.0-2.0-0.1"	"yz2wpe"	"600"	"1366"	"chrome"	"108.0.0"	"FALSE"	"Windows 10"	"60.53"	"148"	n/a	n/a	n/a	n/a	n/a	n/a	"fixation"	n/a	n/a	n/a	n/a	"NULL"	n/a	"NULL"	"NULL"	"NULL"	"<p style=\"color: black; font-size: 80px; padding-left: 6%; padding-right: 7%; padding-top: 34%; padding-bottom: 27%\">+</p>"	"1288"	n/a	n/a	n/a	n/a	n/a	n/a	n/a	n/a	n/a
n/a	"image-keyboard-response"	"40"	"88652"	"0.0-4.0-3.0-2.0-1.1"	"yz2wpe"	"600"	"1366"	"chrome"	"108.0.0"	"FALSE"	"Windows 10"	"60.53"	"148"	n/a	n/a	n/a	n/a	n/a	n/a	"Trial"	n/a	n/a	n/a	"502"	"arrowright"	n/a	"NULL"	"NULL"	"NULL"	"stimuli/VerticalHorizontal_3300000_-0.9000.png"	n/a	"VerticalHorizontal"	"arrowright"	"1297"	"TRUE"	"VerticalHorizontal"	"330000000000"	"-0.900000000"	"1"	"14"
n/a	"html-keyboard-response"	"41"	"90063"	"0.0-4.0-3.0-2.0-0.2"	"yz2wpe"	"600"	"1366"	"chrome"	"108.0.0"	"FALSE"	"Windows 10"	"60.53"	"148"	n/a	n/a	n/a	n/a	n/a	n/a	"fixation"	n/a	n/a	n/a	n/a	"NULL"	n/a	"NULL"	"NULL"	"NULL"	"<p style=\"color: black; font-size: 80px; padding-left: 44%; padding-right: 26%; padding-top: 29%; padding-bottom: 27%\">+</p>"	"1395"	n/a	n/a	n/a	n/a	n/a	n/a	n/a	n/a	n/a
n/a	"image-keyboard-response"	"42"	"90456"	"0.0-4.0-3.0-2.0-1.2"	"yz2wpe"	"600"	"1366"	"chrome"	"108.0.0"	"FALSE"	"Windows 10"	"60.53"	"148"	n/a	n/a	n/a	n/a	n/a	n/a	"Trial"	n/a	n/a	n/a	"391"	"arrowleft"	n/a	"NULL"	"NULL"	"NULL"	"stimuli/VerticalHorizontal_0000000_0.90000.png"	n/a	"VerticalHorizontal"	"arrowleft"	"1411"	"TRUE"	"VerticalHorizontal"	"000000000000"	"0.9000000000"	"1"	"15"
n/a	"html-keyboard-response"	"43"	"91726"	"0.0-4.0-3.0-2.0-0.3"	"yz2wpe"	"600"	"1366"	"chrome"	"108.0.0"	"FALSE"	"Windows 10"	"60.53"	"148"	n/a	n/a	n/a	n/a	n/a	n/a	"fixation"	n/a	n/a	n/a	n/a	"NULL"	n/a	"NULL"	"NULL"	"NULL"	"<p style=\"color: black; font-size: 80px; padding-left: 39%; padding-right: 37%; padding-top: 3%; padding-bottom: 40%\">+</p>"	"1260"	n/a	n/a	n/a	n/a	n/a	n/a	n/a	n/a	n/a
n/a	"image-keyboard-response"	"44"	"92091"	"0.0-4.0-3.0-2.0-1.3"	"yz2wpe"	"600"	"1366"	"chrome"	"108.0.0"	"FALSE"	"Windows 10"	"60.53"	"148"	n/a	n/a	n/a	n/a	n/a	n/a	"Trial"	n/a	n/a	n/a	"364"	"arrowright"	n/a	"NULL"	"NULL"	"NULL"	"stimuli/VerticalHorizontal_0000000_-0.9000.png"	n/a	"VerticalHorizontal"	"arrowright"	"1270"	"TRUE"	"VerticalHorizontal"	"000000000000"	"-0.900000000"	"1"	"16"
n/a	"html-keyboard-response"	"45"	"93575"	"0.0-4.0-3.0-2.0-0.4"	"yz2wpe"	"600"	"1366"	"chrome"	"108.0.0"	"FALSE"	"Windows 10"	"60.53"	"148"	n/a	n/a	n/a	n/a	n/a	n/a	"fixation"	n/a	n/a	n/a	n/a	"NULL"	n/a	"NULL"	"NULL"	"NULL"	"<p style=\"color: black; font-size: 80px; padding-left: 21%; padding-right: 37%; padding-top: 36%; padding-bottom: 28%\">+</p>"	"1463"	n/a	n/a	n/a	n/a	n/a	n/a	n/a	n/a	n/a
n/a	"image-keyboard-response"	"46"	"93998"	"0.0-4.0-3.0-2.0-1.4"	"yz2wpe"	"600"	"1366"	"chrome"	"108.0.0"	"FALSE"	"Windows 10"	"60.53"	"148"	n/a	n/a	n/a	n/a	n/a	n/a	"Trial"	n/a	n/a	n/a	"421"	"arrowleft"	n/a	"NULL"	"NULL"	"NULL"	"stimuli/VerticalHorizontal_3300000_0.90000.png"	n/a	"VerticalHorizontal"	"arrowleft"	"1484"	"TRUE"	"VerticalHorizontal"	"330000000000"	"0.9000000000"	"1"	"17"
n/a	"html-keyboard-response"	"47"	"95079"	"0.0-4.0-3.0-2.0-0.5"	"yz2wpe"	"600"	"1366"	"chrome"	"108.0.0"	"FALSE"	"Windows 10"	"60.53"	"148"	n/a	n/a	n/a	n/a	n/a	n/a	"fixation"	n/a	n/a	n/a	n/a	"NULL"	n/a	"NULL"	"NULL"	"NULL"	"<p style=\"color: black; font-size: 80px; padding-left: 4%; padding-right: 6%; padding-top: 49%; padding-bottom: 49%\">+</p>"	"1062"	n/a	n/a	n/a	n/a	n/a	n/a	n/a	n/a	n/a
n/a	"image-keyboard-response"	"48"	"95444"	"0.0-4.0-3.0-2.0-1.5"	"yz2wpe"	"600"	"1366"	"chrome"	"108.0.0"	"FALSE"	"Windows 10"	"60.53"	"148"	n/a	n/a	n/a	n/a	n/a	n/a	"Trial"	n/a	n/a	n/a	"362"	"arrowright"	n/a	"NULL"	"NULL"	"NULL"	"stimuli/VerticalHorizontal_-330000_-0.9000.png"	n/a	"VerticalHorizontal"	"arrowright"	"1081"	"TRUE"	"VerticalHorizontal"	"-33000000000"	"-0.900000000"	"1"	"18"
n/a	"html-button-response"	"49"	"97345"	"0.0-4.0-3.0-3.0"	"yz2wpe"	"600"	"1366"	"chrome"	"108.0.0"	"FALSE"	"Windows 10"	"60.53"	"148"	n/a	n/a	n/a	n/a	n/a	n/a	"practice_block_results"	n/a	n/a	n/a	"1898"	"0"	n/a	"NULL"	"NULL"	"NULL"	"<p style='color:rgb(76,175,80);'> Correct Responses: <b>100.00%</b></p><hr><p style='color:rgb(233,30,99);'> Average Response Time: <b>405.67</b> ms.</p>"	n/a	n/a	n/a	n/a	n/a	n/a	n/a	n/a	n/a	n/a
n/a	"html-button-response"	"50"	"522210"	"0.0-4.0-4.0"	"yz2wpe"	"600"	"1366"	"chrome"	"108.0.0"	"FALSE"	"Windows 10"	"60.53"	"148"	n/a	n/a	n/a	n/a	n/a	n/a	"practice_debrief"	n/a	n/a	n/a	"424364"	"0"	n/a	"NULL"	"NULL"	"NULL"	"<p><b>TRAINING COMPLETED</b></p><p>In the next phase, there will be more trials, and some might be harder too.<br> Moreover, after each illusion block, a <b>score</b> will be calculated based on speed (time you took to answer) and accuracy (number of errors).</p><p>Try to keep up a high score!</p><br><p>Note that it can be <i>really</i> challenging at times, so you will need to rely on your <b>intuition</b> and gut feeling to answer as fast as you can without making errors.</p><p>Each illusion block will be repeated two times (so that you have the opportunity to improve your score), but the order of the blocks is random.</p><p>Remember, your goal is to be as <b>fast</b> and <b>accurate</b> as possible. Good luck!</p><br>"	n/a	n/a	n/a	n/a	n/a	n/a	n/a	n/a	n/a	n/a
"TRUE"	"preload"	"51"	"522383"	"0.0-5.0-0.0"	"yz2wpe"	"600"	"1366"	"chrome"	"108.0.0"	"FALSE"	"Windows 10"	"60.53"	"148"	n/a	n/a	n/a	n/a	n/a	n/a	n/a	n/a	n/a	n/a	n/a	"NULL"	"FALSE"	"list()"	"list()"	"list()"	n/a	n/a	n/a	n/a	n/a	n/a	n/a	n/a	n/a	n/a	n/a
n/a	"html-keyboard-response"	"52"	"533120"	"0.0-5.0-1.0"	"yz2wpe"	"600"	"1366"	"chrome"	"108.0.0"	"FALSE"	"Windows 10"	"60.53"	"148"	n/a	n/a	n/a	n/a	n/a	n/a	n/a	n/a	n/a	n/a	"10736"	"enter"	n/a	"NULL"	"NULL"	"NULL"	"<p><b>Part 1/6</b></p><p>In this part, two horizontal red lines will appear one above the other.</p><p>Your task is to select which <b>line is longer</b> in length as fast as you can, without making errors.</p><p>Don't get distracted by the surrounding black arrows at the end of the red lines!</p><p>Press <b>the UP or the DOWN arrow</b> to indicate where is the longer <b>red line.</b></p><div style='float: center'><img src='materials/instructions/MullerLyer_Demo.png' height='300'></img><p><img src='utils/answer/answer_updown_keyboard.PNG' height='150'></img></p><p class='small'>In this example, the correct answer is the <b>UP arrow</b>.</p></div><p>Are you ready? <b>Press ENTER to start</b></p>"	n/a	n/a	n/a	n/a	n/a	n/a	n/a	n/a	n/a	n/a
n/a	"html-keyboard-response"	"53"	"534966"	"0.0-5.0-2.0-0.0"	"yz2wpe"	"600"	"1366"	"chrome"	"108.0.0"	"FALSE"	"Windows 10"	"60.53"	"148"	n/a	n/a	n/a	n/a	n/a	n/a	"fixation"	n/a	n/a	n/a	n/a	"NULL"	n/a	"NULL"	"NULL"	"NULL"	"<p style=\"color: black; font-size: 80px; padding-left: 34%; padding-right: 9%; padding-top: 41%; padding-bottom: 3%\">+</p>"	"1311"	n/a	n/a	n/a	n/a	n/a	n/a	n/a	n/a	n/a
n/a	"image-keyboard-response"	"54"	"535488"	"0.0-5.0-2.0-1.0"	"yz2wpe"	"600"	"1366"	"chrome"	"108.0.0"	"FALSE"	"Windows 10"	"60.53"	"148"	n/a	n/a	n/a	n/a	n/a	n/a	"Trial"	n/a	n/a	n/a	"520"	"arrowdown"	n/a	"NULL"	"NULL"	"NULL"	"stimuli/MullerLyer_-8.21429_-0.3500.png"	n/a	"MullerLyer"	"arrowdown"	"1846"	"TRUE"	"MullerLyer"	"-8.214290000"	"-0.350000000"	"1"	"19"
n/a	"html-keyboard-response"	"55"	"536793"	"0.0-5.0-2.0-0.1"	"yz2wpe"	"600"	"1366"	"chrome"	"108.0.0"	"FALSE"	"Windows 10"	"60.53"	"148"	n/a	n/a	n/a	n/a	n/a	n/a	"fixation"	n/a	n/a	n/a	n/a	"NULL"	n/a	"NULL"	"NULL"	"NULL"	"<p style=\"color: black; font-size: 80px; padding-left: 19%; padding-right: 22%; padding-top: 15%; padding-bottom: 26%\">+</p>"	"1286"	n/a	n/a	n/a	n/a	n/a	n/a	n/a	n/a	n/a
n/a	"image-keyboard-response"	"56"	"537289"	"0.0-5.0-2.0-1.1"	"yz2wpe"	"600"	"1366"	"chrome"	"108.0.0"	"FALSE"	"Windows 10"	"60.53"	"148"	n/a	n/a	n/a	n/a	n/a	n/a	"Trial"	n/a	n/a	n/a	"494"	"arrowdown"	n/a	"NULL"	"NULL"	"NULL"	"stimuli/MullerLyer_-14.12857_-0.07627.png"	n/a	"MullerLyer"	"arrowdown"	"1305"	"TRUE"	"MullerLyer"	"-14.12857000"	"-0.076270000"	"1"	"20"
n/a	"html-keyboard-response"	"57"	"538335"	"0.0-5.0-2.0-0.2"	"yz2wpe"	"600"	"1366"	"chrome"	"108.0.0"	"FALSE"	"Windows 10"	"60.53"	"148"	n/a	n/a	n/a	n/a	n/a	n/a	"fixation"	n/a	n/a	n/a	n/a	"NULL"	n/a	"NULL"	"NULL"	"NULL"	"<p style=\"color: black; font-size: 80px; padding-left: 15%; padding-right: 25%; padding-top: 17%; padding-bottom: 16%\">+</p>"	"1029"	n/a	n/a	n/a	n/a	n/a	n/a	n/a	n/a	n/a
n/a	"image-keyboard-response"	"58"	"538837"	"0.0-5.0-2.0-1.2"	"yz2wpe"	"600"	"1366"	"chrome"	"108.0.0"	"FALSE"	"Windows 10"	"60.53"	"148"	n/a	n/a	n/a	n/a	n/a	n/a	"Trial"	n/a	n/a	n/a	"500"	"arrowup"	n/a	"NULL"	"NULL"	"NULL"	"stimuli/MullerLyer_20.04286_-0.07627.png"	n/a	"MullerLyer"	"arrowdown"	"1046"	"FALSE"	"MullerLyer"	"20.042860000"	"-0.076270000"	"1"	"21"
n/a	"html-keyboard-response"	"59"	"540010"	"0.0-5.0-2.0-0.3"	"yz2wpe"	"600"	"1366"	"chrome"	"108.0.0"	"FALSE"	"Windows 10"	"60.53"	"148"	n/a	n/a	n/a	n/a	n/a	n/a	"fixation"	n/a	n/a	n/a	n/a	"NULL"	n/a	"NULL"	"NULL"	"NULL"	"<p style=\"color: black; font-size: 80px; padding-left: 45%; padding-right: 1%; padding-top: 13%; padding-bottom: 39%\">+</p>"	"1150"	n/a	n/a	n/a	n/a	n/a	n/a	n/a	n/a	n/a
n/a	"image-keyboard-response"	"60"	"540483"	"0.0-5.0-2.0-1.3"	"yz2wpe"	"600"	"1366"	"chrome"	"108.0.0"	"FALSE"	"Windows 10"	"60.53"	"148"	n/a	n/a	n/a	n/a	n/a	n/a	"Trial"	n/a	n/a	n/a	"471"	"arrowup"	n/a	"NULL"	"NULL"	"NULL"	"stimuli/MullerLyer_-14.12857_0.14541.png"	n/a	"MullerLyer"	"arrowup"	"1173"	"TRUE"	"MullerLyer"	"-14.12857000"	"0.1454100000"	"1"	"22"
n/a	"html-keyboard-response"	"61"	"541688"	"0.0-5.0-2.0-0.4"	"yz2wpe"	"600"	"1366"	"chrome"	"108.0.0"	"FALSE"	"Windows 10"	"60.53"	"148"	n/a	n/a	n/a	n/a	n/a	n/a	"fixation"	n/a	n/a	n/a	n/a	"NULL"	n/a	"NULL"	"NULL"	"NULL"	"<p style=\"color: black; font-size: 80px; padding-left: 20%; padding-right: 19%; padding-top: 21%; padding-bottom: 40%\">+</p>"	"1196"	n/a	n/a	n/a	n/a	n/a	n/a	n/a	n/a	n/a
n/a	"image-keyboard-response"	"62"	"542119"	"0.0-5.0-2.0-1.4"	"yz2wpe"	"600"	"1366"	"chrome"	"108.0.0"	"FALSE"	"Windows 10"	"60.53"	"148"	n/a	n/a	n/a	n/a	n/a	n/a	"Trial"	n/a	n/a	n/a	"429"	"arrowup"	n/a	"NULL"	"NULL"	"NULL"	"stimuli/MullerLyer_-20.04286_0.07627.png"	n/a	"MullerLyer"	"arrowup"	"1205"	"TRUE"	"MullerLyer"	"-20.04286000"	"0.0762700000"	"1"	"23"
n/a	"html-keyboard-response"	"63"	"543335"	"0.0-5.0-2.0-0.5"	"yz2wpe"	"600"	"1366"	"chrome"	"108.0.0"	"FALSE"	"Windows 10"	"60.53"	"148"	n/a	n/a	n/a	n/a	n/a	n/a	"fixation"	n/a	n/a	n/a	n/a	"NULL"	n/a	"NULL"	"NULL"	"NULL"	"<p style=\"color: black; font-size: 80px; padding-left: 14%; padding-right: 45%; padding-top: 28%; padding-bottom: 21%\">+</p>"	"1197"	n/a	n/a	n/a	n/a	n/a	n/a	n/a	n/a	n/a
n/a	"image-keyboard-response"	"64"	"543857"	"0.0-5.0-2.0-1.5"	"yz2wpe"	"600"	"1366"	"chrome"	"108.0.0"	"FALSE"	"Windows 10"	"60.53"	"148"	n/a	n/a	n/a	n/a	n/a	n/a	"Trial"	n/a	n/a	n/a	"521"	"arrowup"	n/a	"NULL"	"NULL"	"NULL"	"stimuli/MullerLyer_-14.12857_0.35000.png"	n/a	"MullerLyer"	"arrowup"	"1216"	"TRUE"	"MullerLyer"	"-14.12857000"	"0.3500000000"	"1"	"24"
n/a	"html-keyboard-response"	"65"	"545284"	"0.0-5.0-2.0-0.6"	"yz2wpe"	"600"	"1366"	"chrome"	"108.0.0"	"FALSE"	"Windows 10"	"60.53"	"148"	n/a	n/a	n/a	n/a	n/a	n/a	"fixation"	n/a	n/a	n/a	n/a	"NULL"	n/a	"NULL"	"NULL"	"NULL"	"<p style=\"color: black; font-size: 80px; padding-left: 13%; padding-right: 23%; padding-top: 32%; padding-bottom: 11%\">+</p>"	"1412"	n/a	n/a	n/a	n/a	n/a	n/a	n/a	n/a	n/a
n/a	"image-keyboard-response"	"66"	"545980"	"0.0-5.0-2.0-1.6"	"yz2wpe"	"600"	"1366"	"chrome"	"108.0.0"	"FALSE"	"Windows 10"	"60.53"	"148"	n/a	n/a	n/a	n/a	n/a	n/a	"Trial"	n/a	n/a	n/a	"695"	"arrowdown"	n/a	"NULL"	"NULL"	"NULL"	"stimuli/MullerLyer_20.04286_-0.3500.png"	n/a	"MullerLyer"	"arrowdown"	"1427"	"TRUE"	"MullerLyer"	"20.042860000"	"-0.350000000"	"1"	"25"
n/a	"html-keyboard-response"	"67"	"547254"	"0.0-5.0-2.0-0.7"	"yz2wpe"	"600"	"1366"	"chrome"	"108.0.0"	"FALSE"	"Windows 10"	"60.53"	"148"	n/a	n/a	n/a	n/a	n/a	n/a	"fixation"	n/a	n/a	n/a	n/a	"NULL"	n/a	"NULL"	"NULL"	"NULL"	"<p style=\"color: black; font-size: 80px; padding-left: 12%; padding-right: 26%; padding-top: 44%; padding-bottom: 3%\">+</p>"	"1260"	n/a	n/a	n/a	n/a	n/a	n/a	n/a	n/a	n/a
n/a	"image-keyboard-response"	"68"	"547771"	"0.0-5.0-2.0-1.7"	"yz2wpe"	"600"	"1366"	"chrome"	"108.0.0"	"FALSE"	"Windows 10"	"60.53"	"148"	n/a	n/a	n/a	n/a	n/a	n/a	"Trial"	n/a	n/a	n/a	"515"	"arrowup"	n/a	"NULL"	"NULL"	"NULL"	"stimuli/MullerLyer_2.30000_0.23665.png"	n/a	"MullerLyer"	"arrowup"	"1274"	"TRUE"	"MullerLyer"	"2.3000000000"	"0.2366500000"	"1"	"26"
n/a	"html-keyboard-response"	"69"	"549276"	"0.0-5.0-2.0-0.8"	"yz2wpe"	"600"	"1366"	"chrome"	"108.0.0"	"FALSE"	"Windows 10"	"60.53"	"148"	n/a	n/a	n/a	n/a	n/a	n/a	"fixation"	n/a	n/a	n/a	n/a	"NULL"	n/a	"NULL"	"NULL"	"NULL"	"<p style=\"color: black; font-size: 80px; padding-left: 36%; padding-right: 39%; padding-top: 41%; padding-bottom: 11%\">+</p>"	"1498"	n/a	n/a	n/a	n/a	n/a	n/a	n/a	n/a	n/a
n/a	"image-keyboard-response"	"70"	"549756"	"0.0-5.0-2.0-1.8"	"yz2wpe"	"600"	"1366"	"chrome"	"108.0.0"	"FALSE"	"Windows 10"	"60.53"	"148"	n/a	n/a	n/a	n/a	n/a	n/a	"Trial"	n/a	n/a	n/a	"477"	"arrowup"	n/a	"NULL"	"NULL"	"NULL"	"stimuli/MullerLyer_-8.21429_0.23665.png"	n/a	"MullerLyer"	"arrowup"	"1505"	"TRUE"	"MullerLyer"	"-8.214290000"	"0.2366500000"	"1"	"27"
n/a	"html-keyboard-response"	"71"	"550828"	"0.0-5.0-2.0-0.9"	"yz2wpe"	"600"	"1366"	"chrome"	"108.0.0"	"FALSE"	"Windows 10"	"60.53"	"148"	n/a	n/a	n/a	n/a	n/a	n/a	"fixation"	n/a	n/a	n/a	n/a	"NULL"	n/a	"NULL"	"NULL"	"NULL"	"<p style=\"color: black; font-size: 80px; padding-left: 21%; padding-right: 13%; padding-top: 49%; padding-bottom: 34%\">+</p>"	"1057"	n/a	n/a	n/a	n/a	n/a	n/a	n/a	n/a	n/a
n/a	"image-keyboard-response"	"72"	"551646"	"0.0-5.0-2.0-1.9"	"yz2wpe"	"600"	"1366"	"chrome"	"108.0.0"	"FALSE"	"Windows 10"	"60.53"	"148"	n/a	n/a	n/a	n/a	n/a	n/a	"Trial"	n/a	n/a	n/a	"817"	"arrowdown"	n/a	"NULL"	"NULL"	"NULL"	"stimuli/MullerLyer_8.21429_0.07627.png"	n/a	"MullerLyer"	"arrowup"	"1072"	"FALSE"	"MullerLyer"	"8.2142900000"	"0.0762700000"	"1"	"28"
n/a	"html-keyboard-response"	"73"	"552695"	"0.0-5.0-2.0-0.10"	"yz2wpe"	"600"	"1366"	"chrome"	"108.0.0"	"FALSE"	"Windows 10"	"60.53"	"148"	n/a	n/a	n/a	n/a	n/a	n/a	"fixation"	n/a	n/a	n/a	n/a	"NULL"	n/a	"NULL"	"NULL"	"NULL"	"<p style=\"color: black; font-size: 80px; padding-left: 25%; padding-right: 26%; padding-top: 1%; padding-bottom: 29%\">+</p>"	"1029"	n/a	n/a	n/a	n/a	n/a	n/a	n/a	n/a	n/a
n/a	"image-keyboard-response"	"74"	"553132"	"0.0-5.0-2.0-1.10"	"yz2wpe"	"600"	"1366"	"chrome"	"108.0.0"	"FALSE"	"Windows 10"	"60.53"	"148"	n/a	n/a	n/a	n/a	n/a	n/a	"Trial"	n/a	n/a	n/a	"436"	"arrowup"	n/a	"NULL"	"NULL"	"NULL"	"stimuli/MullerLyer_20.04286_0.35000.png"	n/a	"MullerLyer"	"arrowup"	"1049"	"TRUE"	"MullerLyer"	"20.042860000"	"0.3500000000"	"1"	"29"
n/a	"html-keyboard-response"	"75"	"554551"	"0.0-5.0-2.0-0.11"	"yz2wpe"	"600"	"1366"	"chrome"	"108.0.0"	"FALSE"	"Windows 10"	"60.53"	"148"	n/a	n/a	n/a	n/a	n/a	n/a	"fixation"	n/a	n/a	n/a	n/a	"NULL"	n/a	"NULL"	"NULL"	"NULL"	"<p style=\"color: black; font-size: 80px; padding-left: 44%; padding-right: 43%; padding-top: 33%; padding-bottom: 37%\">+</p>"	"1405"	n/a	n/a	n/a	n/a	n/a	n/a	n/a	n/a	n/a
n/a	"image-keyboard-response"	"76"	"555026"	"0.0-5.0-2.0-1.11"	"yz2wpe"	"600"	"1366"	"chrome"	"108.0.0"	"FALSE"	"Windows 10"	"60.53"	"148"	n/a	n/a	n/a	n/a	n/a	n/a	"Trial"	n/a	n/a	n/a	"473"	"arrowdown"	n/a	"NULL"	"NULL"	"NULL"	"stimuli/MullerLyer_-8.21429_-0.14541.png"	n/a	"MullerLyer"	"arrowdown"	"1419"	"TRUE"	"MullerLyer"	"-8.214290000"	"-0.145410000"	"1"	"30"
n/a	"html-keyboard-response"	"77"	"556129"	"0.0-5.0-2.0-0.12"	"yz2wpe"	"600"	"1366"	"chrome"	"108.0.0"	"FALSE"	"Windows 10"	"60.53"	"148"	n/a	n/a	n/a	n/a	n/a	n/a	"fixation"	n/a	n/a	n/a	n/a	"NULL"	n/a	"NULL"	"NULL"	"NULL"	"<p style=\"color: black; font-size: 80px; padding-left: 45%; padding-right: 27%; padding-top: 42%; padding-bottom: 11%\">+</p>"	"1087"	n/a	n/a	n/a	n/a	n/a	n/a	n/a	n/a	n/a
n/a	"image-keyboard-response"	"78"	"556532"	"0.0-5.0-2.0-1.12"	"yz2wpe"	"600"	"1366"	"chrome"	"108.0.0"	"FALSE"	"Windows 10"	"60.53"	"148"	n/a	n/a	n/a	n/a	n/a	n/a	"Trial"	n/a	n/a	n/a	"402"	"arrowup"	n/a	"NULL"	"NULL"	"NULL"	"stimuli/MullerLyer_14.12857_-0.07627.png"	n/a	"MullerLyer"	"arrowdown"	"1103"	"FALSE"	"MullerLyer"	"14.128570000"	"-0.076270000"	"1"	"31"
n/a	"html-keyboard-response"	"79"	"557834"	"0.0-5.0-2.0-0.13"	"yz2wpe"	"600"	"1366"	"chrome"	"108.0.0"	"FALSE"	"Windows 10"	"60.53"	"148"	n/a	n/a	n/a	n/a	n/a	n/a	"fixation"	n/a	n/a	n/a	n/a	"NULL"	n/a	"NULL"	"NULL"	"NULL"	"<p style=\"color: black; font-size: 80px; padding-left: 1%; padding-right: 31%; padding-top: 42%; padding-bottom: 44%\">+</p>"	"1289"	n/a	n/a	n/a	n/a	n/a	n/a	n/a	n/a	n/a
n/a	"image-keyboard-response"	"80"	"558285"	"0.0-5.0-2.0-1.13"	"yz2wpe"	"600"	"1366"	"chrome"	"108.0.0"	"FALSE"	"Windows 10"	"60.53"	"148"	n/a	n/a	n/a	n/a	n/a	n/a	"Trial"	n/a	n/a	n/a	"450"	"arrowdown"	n/a	"NULL"	"NULL"	"NULL"	"stimuli/MullerLyer_20.04286_0.07627.png"	n/a	"MullerLyer"	"arrowup"	"1302"	"FALSE"	"MullerLyer"	"20.042860000"	"0.0762700000"	"1"	"32"
n/a	"html-keyboard-response"	"81"	"559793"	"0.0-5.0-2.0-0.14"	"yz2wpe"	"600"	"1366"	"chrome"	"108.0.0"	"FALSE"	"Windows 10"	"60.53"	"148"	n/a	n/a	n/a	n/a	n/a	n/a	"fixation"	n/a	n/a	n/a	n/a	"NULL"	n/a	"NULL"	"NULL"	"NULL"	"<p style=\"color: black; font-size: 80px; padding-left: 30%; padding-right: 43%; padding-top: 11%; padding-bottom: 11%\">+</p>"	"1496"	n/a	n/a	n/a	n/a	n/a	n/a	n/a	n/a	n/a
n/a	"image-keyboard-response"	"82"	"560277"	"0.0-5.0-2.0-1.14"	"yz2wpe"	"600"	"1366"	"chrome"	"108.0.0"	"FALSE"	"Windows 10"	"60.53"	"148"	n/a	n/a	n/a	n/a	n/a	n/a	"Trial"	n/a	n/a	n/a	"483"	"arrowdown"	n/a	"NULL"	"NULL"	"NULL"	"stimuli/MullerLyer_-20.04286_-0.14541.png"	n/a	"MullerLyer"	"arrowdown"	"1508"	"TRUE"	"MullerLyer"	"-20.04286000"	"-0.145410000"	"1"	"33"
n/a	"html-keyboard-response"	"83"	"561487"	"0.0-5.0-2.0-0.15"	"yz2wpe"	"600"	"1366"	"chrome"	"108.0.0"	"FALSE"	"Windows 10"	"60.53"	"148"	n/a	n/a	n/a	n/a	n/a	n/a	"fixation"	n/a	n/a	n/a	n/a	"NULL"	n/a	"NULL"	"NULL"	"NULL"	"<p style=\"color: black; font-size: 80px; padding-left: 11%; padding-right: 14%; padding-top: 20%; padding-bottom: 25%\">+</p>"	"1190"	n/a	n/a	n/a	n/a	n/a	n/a	n/a	n/a	n/a
n/a	"image-keyboard-response"	"84"	"561912"	"0.0-5.0-2.0-1.15"	"yz2wpe"	"600"	"1366"	"chrome"	"108.0.0"	"FALSE"	"Windows 10"	"60.53"	"148"	n/a	n/a	n/a	n/a	n/a	n/a	"Trial"	n/a	n/a	n/a	"423"	"arrowdown"	n/a	"NULL"	"NULL"	"NULL"	"stimuli/MullerLyer_8.21429_-0.3500.png"	n/a	"MullerLyer"	"arrowdown"	"1210"	"TRUE"	"MullerLyer"	"8.2142900000"	"-0.350000000"	"1"	"34"
n/a	"html-keyboard-response"	"85"	"563215"	"0.0-5.0-2.0-0.16"	"yz2wpe"	"600"	"1366"	"chrome"	"108.0.0"	"FALSE"	"Windows 10"	"60.53"	"148"	n/a	n/a	n/a	n/a	n/a	n/a	"fixation"	n/a	n/a	n/a	n/a	"NULL"	n/a	"NULL"	"NULL"	"NULL"	"<p style=\"color: black; font-size: 80px; padding-left: 49%; padding-right: 2%; padding-top: 18%; padding-bottom: 27%\">+</p>"	"1286"	n/a	n/a	n/a	n/a	n/a	n/a	n/a	n/a	n/a
n/a	"image-keyboard-response"	"86"	"563743"	"0.0-5.0-2.0-1.16"	"yz2wpe"	"600"	"1366"	"chrome"	"108.0.0"	"FALSE"	"Windows 10"	"60.53"	"148"	n/a	n/a	n/a	n/a	n/a	n/a	"Trial"	n/a	n/a	n/a	"526"	"arrowup"	n/a	"NULL"	"NULL"	"NULL"	"stimuli/MullerLyer_2.30000_0.14541.png"	n/a	"MullerLyer"	"arrowup"	"1303"	"TRUE"	"MullerLyer"	"2.3000000000"	"0.1454100000"	"1"	"35"
n/a	"html-keyboard-response"	"87"	"565247"	"0.0-5.0-2.0-0.17"	"yz2wpe"	"600"	"1366"	"chrome"	"108.0.0"	"FALSE"	"Windows 10"	"60.53"	"148"	n/a	n/a	n/a	n/a	n/a	n/a	"fixation"	n/a	n/a	n/a	n/a	"NULL"	n/a	"NULL"	"NULL"	"NULL"	"<p style=\"color: black; font-size: 80px; padding-left: 42%; padding-right: 25%; padding-top: 34%; padding-bottom: 19%\">+</p>"	"1486"	n/a	n/a	n/a	n/a	n/a	n/a	n/a	n/a	n/a
n/a	"image-keyboard-response"	"88"	"565759"	"0.0-5.0-2.0-1.17"	"yz2wpe"	"600"	"1366"	"chrome"	"108.0.0"	"FALSE"	"Windows 10"	"60.53"	"148"	n/a	n/a	n/a	n/a	n/a	n/a	"Trial"	n/a	n/a	n/a	"509"	"arrowdown"	n/a	"NULL"	"NULL"	"NULL"	"stimuli/MullerLyer_8.21429_-0.23665.png"	n/a	"MullerLyer"	"arrowdown"	"1504"	"TRUE"	"MullerLyer"	"8.2142900000"	"-0.236650000"	"1"	"36"
n/a	"html-keyboard-response"	"89"	"566803"	"0.0-5.0-2.0-0.18"	"yz2wpe"	"600"	"1366"	"chrome"	"108.0.0"	"FALSE"	"Windows 10"	"60.53"	"148"	n/a	n/a	n/a	n/a	n/a	n/a	"fixation"	n/a	n/a	n/a	n/a	"NULL"	n/a	"NULL"	"NULL"	"NULL"	"<p style=\"color: black; font-size: 80px; padding-left: 18%; padding-right: 37%; padding-top: 49%; padding-bottom: 20%\">+</p>"	"1033"	n/a	n/a	n/a	n/a	n/a	n/a	n/a	n/a	n/a
n/a	"image-keyboard-response"	"90"	"567248"	"0.0-5.0-2.0-1.18"	"yz2wpe"	"600"	"1366"	"chrome"	"108.0.0"	"FALSE"	"Windows 10"	"60.53"	"148"	n/a	n/a	n/a	n/a	n/a	n/a	"Trial"	n/a	n/a	n/a	"443"	"arrowup"	n/a	"NULL"	"NULL"	"NULL"	"stimuli/MullerLyer_20.04286_0.23665.png"	n/a	"MullerLyer"	"arrowup"	"1044"	"TRUE"	"MullerLyer"	"20.042860000"	"0.2366500000"	"1"	"37"
n/a	"html-keyboard-response"	"91"	"568429"	"0.0-5.0-2.0-0.19"	"yz2wpe"	"600"	"1366"	"chrome"	"108.0.0"	"FALSE"	"Windows 10"	"60.53"	"148"	n/a	n/a	n/a	n/a	n/a	n/a	"fixation"	n/a	n/a	n/a	n/a	"NULL"	n/a	"NULL"	"NULL"	"NULL"	"<p style=\"color: black; font-size: 80px; padding-left: 48%; padding-right: 47%; padding-top: 18%; padding-bottom: 5%\">+</p>"	"1174"	n/a	n/a	n/a	n/a	n/a	n/a	n/a	n/a	n/a
n/a	"image-keyboard-response"	"92"	"568872"	"0.0-5.0-2.0-1.19"	"yz2wpe"	"600"	"1366"	"chrome"	"108.0.0"	"FALSE"	"Windows 10"	"60.53"	"148"	n/a	n/a	n/a	n/a	n/a	n/a	"Trial"	n/a	n/a	n/a	"441"	"arrowup"	n/a	"NULL"	"NULL"	"NULL"	"stimuli/MullerLyer_20.04286_-0.14541.png"	n/a	"MullerLyer"	"arrowdown"	"1181"	"FALSE"	"MullerLyer"	"20.042860000"	"-0.145410000"	"1"	"38"
n/a	"html-keyboard-response"	"93"	"569979"	"0.0-5.0-2.0-0.20"	"yz2wpe"	"600"	"1366"	"chrome"	"108.0.0"	"FALSE"	"Windows 10"	"60.53"	"148"	n/a	n/a	n/a	n/a	n/a	n/a	"fixation"	n/a	n/a	n/a	n/a	"NULL"	n/a	"NULL"	"NULL"	"NULL"	"<p style=\"color: black; font-size: 80px; padding-left: 30%; padding-right: 19%; padding-top: 42%; padding-bottom: 6%\">+</p>"	"1092"	n/a	n/a	n/a	n/a	n/a	n/a	n/a	n/a	n/a
n/a	"image-keyboard-response"	"94"	"570510"	"0.0-5.0-2.0-1.20"	"yz2wpe"	"600"	"1366"	"chrome"	"108.0.0"	"FALSE"	"Windows 10"	"60.53"	"148"	n/a	n/a	n/a	n/a	n/a	n/a	"Trial"	n/a	n/a	n/a	"530"	"arrowup"	n/a	"NULL"	"NULL"	"NULL"	"stimuli/MullerLyer_8.21429_0.14541.png"	n/a	"MullerLyer"	"arrowup"	"1107"	"TRUE"	"MullerLyer"	"8.2142900000"	"0.1454100000"	"1"	"39"
n/a	"html-keyboard-response"	"95"	"571905"	"0.0-5.0-2.0-0.21"	"yz2wpe"	"600"	"1366"	"chrome"	"108.0.0"	"FALSE"	"Windows 10"	"60.53"	"148"	n/a	n/a	n/a	n/a	n/a	n/a	"fixation"	n/a	n/a	n/a	n/a	"NULL"	n/a	"NULL"	"NULL"	"NULL"	"<p style=\"color: black; font-size: 80px; padding-left: 18%; padding-right: 33%; padding-top: 38%; padding-bottom: 14%\">+</p>"	"1373"	n/a	n/a	n/a	n/a	n/a	n/a	n/a	n/a	n/a
n/a	"image-keyboard-response"	"96"	"572483"	"0.0-5.0-2.0-1.21"	"yz2wpe"	"600"	"1366"	"chrome"	"108.0.0"	"FALSE"	"Windows 10"	"60.53"	"148"	n/a	n/a	n/a	n/a	n/a	n/a	"Trial"	n/a	n/a	n/a	"577"	"arrowdown"	n/a	"NULL"	"NULL"	"NULL"	"stimuli/MullerLyer_2.30000_0.07627.png"	n/a	"MullerLyer"	"arrowup"	"1395"	"FALSE"	"MullerLyer"	"2.3000000000"	"0.0762700000"	"1"	"40"
n/a	"html-keyboard-response"	"97"	"573574"	"0.0-5.0-2.0-0.22"	"yz2wpe"	"600"	"1366"	"chrome"	"108.0.0"	"FALSE"	"Windows 10"	"60.53"	"148"	n/a	n/a	n/a	n/a	n/a	n/a	"fixation"	n/a	n/a	n/a	n/a	"NULL"	n/a	"NULL"	"NULL"	"NULL"	"<p style=\"color: black; font-size: 80px; padding-left: 45%; padding-right: 23%; padding-top: 39%; padding-bottom: 10%\">+</p>"	"1075"	n/a	n/a	n/a	n/a	n/a	n/a	n/a	n/a	n/a
n/a	"image-keyboard-response"	"98"	"574126"	"0.0-5.0-2.0-1.22"	"yz2wpe"	"600"	"1366"	"chrome"	"108.0.0"	"FALSE"	"Windows 10"	"60.53"	"148"	n/a	n/a	n/a	n/a	n/a	n/a	"Trial"	n/a	n/a	n/a	"550"	"arrowdown"	n/a	"NULL"	"NULL"	"NULL"	"stimuli/MullerLyer_-2.3000_-0.07627.png"	n/a	"MullerLyer"	"arrowdown"	"1091"	"TRUE"	"MullerLyer"	"-2.300000000"	"-0.076270000"	"1"	"41"
n/a	"html-keyboard-response"	"99"	"575494"	"0.0-5.0-2.0-0.23"	"yz2wpe"	"600"	"1366"	"chrome"	"108.0.0"	"FALSE"	"Windows 10"	"60.53"	"148"	n/a	n/a	n/a	n/a	n/a	n/a	"fixation"	n/a	n/a	n/a	n/a	"NULL"	n/a	"NULL"	"NULL"	"NULL"	"<p style=\"color: black; font-size: 80px; padding-left: 23%; padding-right: 24%; padding-top: 18%; padding-bottom: 33%\">+</p>"	"1353"	n/a	n/a	n/a	n/a	n/a	n/a	n/a	n/a	n/a
n/a	"image-keyboard-response"	"100"	"576009"	"0.0-5.0-2.0-1.23"	"yz2wpe"	"600"	"1366"	"chrome"	"108.0.0"	"FALSE"	"Windows 10"	"60.53"	"148"	n/a	n/a	n/a	n/a	n/a	n/a	"Trial"	n/a	n/a	n/a	"515"	"arrowup"	n/a	"NULL"	"NULL"	"NULL"	"stimuli/MullerLyer_20.04286_-0.23665.png"	n/a	"MullerLyer"	"arrowdown"	"1368"	"FALSE"	"MullerLyer"	"20.042860000"	"-0.236650000"	"1"	"42"
n/a	"html-keyboard-response"	"101"	"577483"	"0.0-5.0-2.0-0.24"	"yz2wpe"	"600"	"1366"	"chrome"	"108.0.0"	"FALSE"	"Windows 10"	"60.53"	"148"	n/a	n/a	n/a	n/a	n/a	n/a	"fixation"	n/a	n/a	n/a	n/a	"NULL"	n/a	"NULL"	"NULL"	"NULL"	"<p style=\"color: black; font-size: 80px; padding-left: 21%; padding-right: 4%; padding-top: 41%; padding-bottom: 38%\">+</p>"	"1456"	n/a	n/a	n/a	n/a	n/a	n/a	n/a	n/a	n/a
n/a	"image-keyboard-response"	"102"	"577991"	"0.0-5.0-2.0-1.24"	"yz2wpe"	"600"	"1366"	"chrome"	"108.0.0"	"FALSE"	"Windows 10"	"60.53"	"148"	n/a	n/a	n/a	n/a	n/a	n/a	"Trial"	n/a	n/a	n/a	"507"	"arrowdown"	n/a	"NULL"	"NULL"	"NULL"	"stimuli/MullerLyer_14.12857_0.14541.png"	n/a	"MullerLyer"	"arrowup"	"1474"	"FALSE"	"MullerLyer"	"14.128570000"	"0.1454100000"	"1"	"43"
n/a	"html-keyboard-response"	"103"	"579130"	"0.0-5.0-2.0-0.25"	"yz2wpe"	"600"	"1366"	"chrome"	"108.0.0"	"FALSE"	"Windows 10"	"60.53"	"148"	n/a	n/a	n/a	n/a	n/a	n/a	"fixation"	n/a	n/a	n/a	n/a	"NULL"	n/a	"NULL"	"NULL"	"NULL"	"<p style=\"color: black; font-size: 80px; padding-left: 47%; padding-right: 34%; padding-top: 26%; padding-bottom: 21%\">+</p>"	"1114"	n/a	n/a	n/a	n/a	n/a	n/a	n/a	n/a	n/a
n/a	"image-keyboard-response"	"104"	"579570"	"0.0-5.0-2.0-1.25"	"yz2wpe"	"600"	"1366"	"chrome"	"108.0.0"	"FALSE"	"Windows 10"	"60.53"	"148"	n/a	n/a	n/a	n/a	n/a	n/a	"Trial"	n/a	n/a	n/a	"438"	"arrowup"	n/a	"NULL"	"NULL"	"NULL"	"stimuli/MullerLyer_14.12857_0.35000.png"	n/a	"MullerLyer"	"arrowup"	"1139"	"TRUE"	"MullerLyer"	"14.128570000"	"0.3500000000"	"1"	"44"
n/a	"html-keyboard-response"	"105"	"580605"	"0.0-5.0-2.0-0.26"	"yz2wpe"	"600"	"1366"	"chrome"	"108.0.0"	"FALSE"	"Windows 10"	"60.53"	"148"	n/a	n/a	n/a	n/a	n/a	n/a	"fixation"	n/a	n/a	n/a	n/a	"NULL"	n/a	"NULL"	"NULL"	"NULL"	"<p style=\"color: black; font-size: 80px; padding-left: 40%; padding-right: 39%; padding-top: 48%; padding-bottom: 49%\">+</p>"	"1024"	n/a	n/a	n/a	n/a	n/a	n/a	n/a	n/a	n/a
n/a	"image-keyboard-response"	"106"	"581040"	"0.0-5.0-2.0-1.26"	"yz2wpe"	"600"	"1366"	"chrome"	"108.0.0"	"FALSE"	"Windows 10"	"60.53"	"148"	n/a	n/a	n/a	n/a	n/a	n/a	"Trial"	n/a	n/a	n/a	"434"	"arrowdown"	n/a	"NULL"	"NULL"	"NULL"	"stimuli/MullerLyer_-20.04286_-0.3500.png"	n/a	"MullerLyer"	"arrowdown"	"1035"	"TRUE"	"MullerLyer"	"-20.04286000"	"-0.350000000"	"1"	"45"
n/a	"html-keyboard-response"	"107"	"582131"	"0.0-5.0-2.0-0.27"	"yz2wpe"	"600"	"1366"	"chrome"	"108.0.0"	"FALSE"	"Windows 10"	"60.53"	"148"	n/a	n/a	n/a	n/a	n/a	n/a	"fixation"	n/a	n/a	n/a	n/a	"NULL"	n/a	"NULL"	"NULL"	"NULL"	"<p style=\"color: black; font-size: 80px; padding-left: 1%; padding-right: 1%; padding-top: 19%; padding-bottom: 10%\">+</p>"	"1081"	n/a	n/a	n/a	n/a	n/a	n/a	n/a	n/a	n/a
n/a	"image-keyboard-response"	"108"	"582570"	"0.0-5.0-2.0-1.27"	"yz2wpe"	"600"	"1366"	"chrome"	"108.0.0"	"FALSE"	"Windows 10"	"60.53"	"148"	n/a	n/a	n/a	n/a	n/a	n/a	"Trial"	n/a	n/a	n/a	"437"	"arrowdown"	n/a	"NULL"	"NULL"	"NULL"	"stimuli/MullerLyer_14.12857_0.07627.png"	n/a	"MullerLyer"	"arrowup"	"1091"	"FALSE"	"MullerLyer"	"14.128570000"	"0.0762700000"	"1"	"46"
n/a	"html-keyboard-response"	"109"	"583925"	"0.0-5.0-2.0-0.28"	"yz2wpe"	"600"	"1366"	"chrome"	"108.0.0"	"FALSE"	"Windows 10"	"60.53"	"148"	n/a	n/a	n/a	n/a	n/a	n/a	"fixation"	n/a	n/a	n/a	n/a	"NULL"	n/a	"NULL"	"NULL"	"NULL"	"<p style=\"color: black; font-size: 80px; padding-left: 25%; padding-right: 2%; padding-top: 32%; padding-bottom: 12%\">+</p>"	"1348"	n/a	n/a	n/a	n/a	n/a	n/a	n/a	n/a	n/a
n/a	"image-keyboard-response"	"110"	"584385"	"0.0-5.0-2.0-1.28"	"yz2wpe"	"600"	"1366"	"chrome"	"108.0.0"	"FALSE"	"Windows 10"	"60.53"	"148"	n/a	n/a	n/a	n/a	n/a	n/a	"Trial"	n/a	n/a	n/a	"459"	"arrowdown"	n/a	"NULL"	"NULL"	"NULL"	"stimuli/MullerLyer_20.04286_0.14541.png"	n/a	"MullerLyer"	"arrowup"	"1355"	"FALSE"	"MullerLyer"	"20.042860000"	"0.1454100000"	"1"	"47"
n/a	"html-keyboard-response"	"111"	"585787"	"0.0-5.0-2.0-0.29"	"yz2wpe"	"600"	"1366"	"chrome"	"108.0.0"	"FALSE"	"Windows 10"	"60.53"	"148"	n/a	n/a	n/a	n/a	n/a	n/a	"fixation"	n/a	n/a	n/a	n/a	"NULL"	n/a	"NULL"	"NULL"	"NULL"	"<p style=\"color: black; font-size: 80px; padding-left: 26%; padding-right: 43%; padding-top: 9%; padding-bottom: 2%\">+</p>"	"1384"	n/a	n/a	n/a	n/a	n/a	n/a	n/a	n/a	n/a
n/a	"image-keyboard-response"	"112"	"586332"	"0.0-5.0-2.0-1.29"	"yz2wpe"	"600"	"1366"	"chrome"	"108.0.0"	"FALSE"	"Windows 10"	"60.53"	"148"	n/a	n/a	n/a	n/a	n/a	n/a	"Trial"	n/a	n/a	n/a	"544"	"arrowdown"	n/a	"NULL"	"NULL"	"NULL"	"stimuli/MullerLyer_-2.3000_-0.14541.png"	n/a	"MullerLyer"	"arrowdown"	"1402"	"TRUE"	"MullerLyer"	"-2.300000000"	"-0.145410000"	"1"	"48"
n/a	"html-keyboard-response"	"113"	"587721"	"0.0-5.0-2.0-0.30"	"yz2wpe"	"600"	"1366"	"chrome"	"108.0.0"	"FALSE"	"Windows 10"	"60.53"	"148"	n/a	n/a	n/a	n/a	n/a	n/a	"fixation"	n/a	n/a	n/a	n/a	"NULL"	n/a	"NULL"	"NULL"	"NULL"	"<p style=\"color: black; font-size: 80px; padding-left: 39%; padding-right: 5%; padding-top: 47%; padding-bottom: 2%\">+</p>"	"1366"	n/a	n/a	n/a	n/a	n/a	n/a	n/a	n/a	n/a
n/a	"image-keyboard-response"	"114"	"588136"	"0.0-5.0-2.0-1.30"	"yz2wpe"	"600"	"1366"	"chrome"	"108.0.0"	"FALSE"	"Windows 10"	"60.53"	"148"	n/a	n/a	n/a	n/a	n/a	n/a	"Trial"	n/a	n/a	n/a	"414"	"arrowdown"	n/a	"NULL"	"NULL"	"NULL"	"stimuli/MullerLyer_-20.04286_-0.23665.png"	n/a	"MullerLyer"	"arrowdown"	"1389"	"TRUE"	"MullerLyer"	"-20.04286000"	"-0.236650000"	"1"	"49"
n/a	"html-keyboard-response"	"115"	"589216"	"0.0-5.0-2.0-0.31"	"yz2wpe"	"600"	"1366"	"chrome"	"108.0.0"	"FALSE"	"Windows 10"	"60.53"	"148"	n/a	n/a	n/a	n/a	n/a	n/a	"fixation"	n/a	n/a	n/a	n/a	"NULL"	n/a	"NULL"	"NULL"	"NULL"	"<p style=\"color: black; font-size: 80px; padding-left: 17%; padding-right: 23%; padding-top: 4%; padding-bottom: 1%\">+</p>"	"1068"	n/a	n/a	n/a	n/a	n/a	n/a	n/a	n/a	n/a
n/a	"image-keyboard-response"	"116"	"589614"	"0.0-5.0-2.0-1.31"	"yz2wpe"	"600"	"1366"	"chrome"	"108.0.0"	"FALSE"	"Windows 10"	"60.53"	"148"	n/a	n/a	n/a	n/a	n/a	n/a	"Trial"	n/a	n/a	n/a	"397"	"arrowdown"	n/a	"NULL"	"NULL"	"NULL"	"stimuli/MullerLyer_-14.12857_-0.3500.png"	n/a	"MullerLyer"	"arrowdown"	"1080"	"TRUE"	"MullerLyer"	"-14.12857000"	"-0.350000000"	"1"	"50"
n/a	"html-keyboard-response"	"117"	"590672"	"0.0-5.0-2.0-0.32"	"yz2wpe"	"600"	"1366"	"chrome"	"108.0.0"	"FALSE"	"Windows 10"	"60.53"	"148"	n/a	n/a	n/a	n/a	n/a	n/a	"fixation"	n/a	n/a	n/a	n/a	"NULL"	n/a	"NULL"	"NULL"	"NULL"	"<p style=\"color: black; font-size: 80px; padding-left: 24%; padding-right: 27%; padding-top: 27%; padding-bottom: 15%\">+</p>"	"1036"	n/a	n/a	n/a	n/a	n/a	n/a	n/a	n/a	n/a
n/a	"image-keyboard-response"	"118"	"591043"	"0.0-5.0-2.0-1.32"	"yz2wpe"	"600"	"1366"	"chrome"	"108.0.0"	"FALSE"	"Windows 10"	"60.53"	"148"	n/a	n/a	n/a	n/a	n/a	n/a	"Trial"	n/a	n/a	n/a	"370"	"arrowdown"	n/a	"NULL"	"NULL"	"NULL"	"stimuli/MullerLyer_2.30000_-0.23665.png"	n/a	"MullerLyer"	"arrowdown"	"1058"	"TRUE"	"MullerLyer"	"2.3000000000"	"-0.236650000"	"1"	"51"
n/a	"html-keyboard-response"	"119"	"592436"	"0.0-5.0-2.0-0.33"	"yz2wpe"	"600"	"1366"	"chrome"	"108.0.0"	"FALSE"	"Windows 10"	"60.53"	"148"	n/a	n/a	n/a	n/a	n/a	n/a	"fixation"	n/a	n/a	n/a	n/a	"NULL"	n/a	"NULL"	"NULL"	"NULL"	"<p style=\"color: black; font-size: 80px; padding-left: 24%; padding-right: 31%; padding-top: 2%; padding-bottom: 20%\">+</p>"	"1381"	n/a	n/a	n/a	n/a	n/a	n/a	n/a	n/a	n/a
n/a	"image-keyboard-response"	"120"	"592872"	"0.0-5.0-2.0-1.33"	"yz2wpe"	"600"	"1366"	"chrome"	"108.0.0"	"FALSE"	"Windows 10"	"60.53"	"148"	n/a	n/a	n/a	n/a	n/a	n/a	"Trial"	n/a	n/a	n/a	"435"	"arrowdown"	n/a	"NULL"	"NULL"	"NULL"	"stimuli/MullerLyer_-14.12857_-0.14541.png"	n/a	"MullerLyer"	"arrowdown"	"1393"	"TRUE"	"MullerLyer"	"-14.12857000"	"-0.145410000"	"1"	"52"
n/a	"html-keyboard-response"	"121"	"593950"	"0.0-5.0-2.0-0.34"	"yz2wpe"	"600"	"1366"	"chrome"	"108.0.0"	"FALSE"	"Windows 10"	"60.53"	"148"	n/a	n/a	n/a	n/a	n/a	n/a	"fixation"	n/a	n/a	n/a	n/a	"NULL"	n/a	"NULL"	"NULL"	"NULL"	"<p style=\"color: black; font-size: 80px; padding-left: 22%; padding-right: 33%; padding-top: 2%; padding-bottom: 35%\">+</p>"	"1060"	n/a	n/a	n/a	n/a	n/a	n/a	n/a	n/a	n/a
n/a	"image-keyboard-response"	"122"	"594378"	"0.0-5.0-2.0-1.34"	"yz2wpe"	"600"	"1366"	"chrome"	"108.0.0"	"FALSE"	"Windows 10"	"60.53"	"148"	n/a	n/a	n/a	n/a	n/a	n/a	"Trial"	n/a	n/a	n/a	"426"	"arrowdown"	n/a	"NULL"	"NULL"	"NULL"	"stimuli/MullerLyer_2.30000_-0.3500.png"	n/a	"MullerLyer"	"arrowdown"	"1078"	"TRUE"	"MullerLyer"	"2.3000000000"	"-0.350000000"	"1"	"53"
n/a	"html-keyboard-response"	"123"	"595747"	"0.0-5.0-2.0-0.35"	"yz2wpe"	"600"	"1366"	"chrome"	"108.0.0"	"FALSE"	"Windows 10"	"60.53"	"148"	n/a	n/a	n/a	n/a	n/a	n/a	"fixation"	n/a	n/a	n/a	n/a	"NULL"	n/a	"NULL"	"NULL"	"NULL"	"<p style=\"color: black; font-size: 80px; padding-left: 2%; padding-right: 10%; padding-top: 42%; padding-bottom: 21%\">+</p>"	"1360"	n/a	n/a	n/a	n/a	n/a	n/a	n/a	n/a	n/a
n/a	"image-keyboard-response"	"124"	"596221"	"0.0-5.0-2.0-1.35"	"yz2wpe"	"600"	"1366"	"chrome"	"108.0.0"	"FALSE"	"Windows 10"	"60.53"	"148"	n/a	n/a	n/a	n/a	n/a	n/a	"Trial"	n/a	n/a	n/a	"471"	"arrowup"	n/a	"NULL"	"NULL"	"NULL"	"stimuli/MullerLyer_-20.04286_0.14541.png"	n/a	"MullerLyer"	"arrowup"	"1369"	"TRUE"	"MullerLyer"	"-20.04286000"	"0.1454100000"	"1"	"54"
n/a	"html-keyboard-response"	"125"	"597698"	"0.0-5.0-2.0-0.36"	"yz2wpe"	"600"	"1366"	"chrome"	"108.0.0"	"FALSE"	"Windows 10"	"60.53"	"148"	n/a	n/a	n/a	n/a	n/a	n/a	"fixation"	n/a	n/a	n/a	n/a	"NULL"	n/a	"NULL"	"NULL"	"NULL"	"<p style=\"color: black; font-size: 80px; padding-left: 5%; padding-right: 7%; padding-top: 5%; padding-bottom: 7%\">+</p>"	"1463"	n/a	n/a	n/a	n/a	n/a	n/a	n/a	n/a	n/a
n/a	"image-keyboard-response"	"126"	"598096"	"0.0-5.0-2.0-1.36"	"yz2wpe"	"600"	"1366"	"chrome"	"108.0.0"	"FALSE"	"Windows 10"	"60.53"	"148"	n/a	n/a	n/a	n/a	n/a	n/a	"Trial"	n/a	n/a	n/a	"396"	"arrowup"	n/a	"NULL"	"NULL"	"NULL"	"stimuli/MullerLyer_8.21429_-0.07627.png"	n/a	"MullerLyer"	"arrowdown"	"1477"	"FALSE"	"MullerLyer"	"8.2142900000"	"-0.076270000"	"1"	"55"
n/a	"html-keyboard-response"	"127"	"599193"	"0.0-5.0-2.0-0.37"	"yz2wpe"	"600"	"1366"	"chrome"	"108.0.0"	"FALSE"	"Windows 10"	"60.53"	"148"	n/a	n/a	n/a	n/a	n/a	n/a	"fixation"	n/a	n/a	n/a	n/a	"NULL"	n/a	"NULL"	"NULL"	"NULL"	"<p style=\"color: black; font-size: 80px; padding-left: 29%; padding-right: 41%; padding-top: 29%; padding-bottom: 6%\">+</p>"	"1073"	n/a	n/a	n/a	n/a	n/a	n/a	n/a	n/a	n/a
n/a	"image-keyboard-response"	"128"	"599564"	"0.0-5.0-2.0-1.37"	"yz2wpe"	"600"	"1366"	"chrome"	"108.0.0"	"FALSE"	"Windows 10"	"60.53"	"148"	n/a	n/a	n/a	n/a	n/a	n/a	"Trial"	n/a	n/a	n/a	"370"	"arrowup"	n/a	"NULL"	"NULL"	"NULL"	"stimuli/MullerLyer_-14.12857_0.23665.png"	n/a	"MullerLyer"	"arrowup"	"1097"	"TRUE"	"MullerLyer"	"-14.12857000"	"0.2366500000"	"1"	"56"
n/a	"html-keyboard-response"	"129"	"600897"	"0.0-5.0-2.0-0.38"	"yz2wpe"	"600"	"1366"	"chrome"	"108.0.0"	"FALSE"	"Windows 10"	"60.53"	"148"	n/a	n/a	n/a	n/a	n/a	n/a	"fixation"	n/a	n/a	n/a	n/a	"NULL"	n/a	"NULL"	"NULL"	"NULL"	"<p style=\"color: black; font-size: 80px; padding-left: 31%; padding-right: 13%; padding-top: 38%; padding-bottom: 43%\">+</p>"	"1321"	n/a	n/a	n/a	n/a	n/a	n/a	n/a	n/a	n/a
n/a	"image-keyboard-response"	"130"	"601282"	"0.0-5.0-2.0-1.38"	"yz2wpe"	"600"	"1366"	"chrome"	"108.0.0"	"FALSE"	"Windows 10"	"60.53"	"148"	n/a	n/a	n/a	n/a	n/a	n/a	"Trial"	n/a	n/a	n/a	"384"	"arrowup"	n/a	"NULL"	"NULL"	"NULL"	"stimuli/MullerLyer_-14.12857_0.07627.png"	n/a	"MullerLyer"	"arrowup"	"1333"	"TRUE"	"MullerLyer"	"-14.12857000"	"0.0762700000"	"1"	"57"
n/a	"html-keyboard-response"	"131"	"602460"	"0.0-5.0-2.0-0.39"	"yz2wpe"	"600"	"1366"	"chrome"	"108.0.0"	"FALSE"	"Windows 10"	"60.53"	"148"	n/a	n/a	n/a	n/a	n/a	n/a	"fixation"	n/a	n/a	n/a	n/a	"NULL"	n/a	"NULL"	"NULL"	"NULL"	"<p style=\"color: black; font-size: 80px; padding-left: 34%; padding-right: 39%; padding-top: 47%; padding-bottom: 34%\">+</p>"	"1165"	n/a	n/a	n/a	n/a	n/a	n/a	n/a	n/a	n/a
n/a	"image-keyboard-response"	"132"	"602968"	"0.0-5.0-2.0-1.39"	"yz2wpe"	"600"	"1366"	"chrome"	"108.0.0"	"FALSE"	"Windows 10"	"60.53"	"148"	n/a	n/a	n/a	n/a	n/a	n/a	"Trial"	n/a	n/a	n/a	"506"	"arrowdown"	n/a	"NULL"	"NULL"	"NULL"	"stimuli/MullerLyer_2.30000_-0.14541.png"	n/a	"MullerLyer"	"arrowdown"	"1178"	"TRUE"	"MullerLyer"	"2.3000000000"	"-0.145410000"	"1"	"58"
n/a	"html-keyboard-response"	"133"	"604328"	"0.0-5.0-2.0-0.40"	"yz2wpe"	"600"	"1366"	"chrome"	"108.0.0"	"FALSE"	"Windows 10"	"60.53"	"148"	n/a	n/a	n/a	n/a	n/a	n/a	"fixation"	n/a	n/a	n/a	n/a	"NULL"	n/a	"NULL"	"NULL"	"NULL"	"<p style=\"color: black; font-size: 80px; padding-left: 47%; padding-right: 40%; padding-top: 4%; padding-bottom: 6%\">+</p>"	"1344"	n/a	n/a	n/a	n/a	n/a	n/a	n/a	n/a	n/a
n/a	"image-keyboard-response"	"134"	"604680"	"0.0-5.0-2.0-1.40"	"yz2wpe"	"600"	"1366"	"chrome"	"108.0.0"	"FALSE"	"Windows 10"	"60.53"	"148"	n/a	n/a	n/a	n/a	n/a	n/a	"Trial"	n/a	n/a	n/a	"350"	"arrowup"	n/a	"NULL"	"NULL"	"NULL"	"stimuli/MullerLyer_-8.21429_0.14541.png"	n/a	"MullerLyer"	"arrowup"	"1360"	"TRUE"	"MullerLyer"	"-8.214290000"	"0.1454100000"	"1"	"59"
n/a	"html-keyboard-response"	"135"	"605958"	"0.0-5.0-2.0-0.41"	"yz2wpe"	"600"	"1366"	"chrome"	"108.0.0"	"FALSE"	"Windows 10"	"60.53"	"148"	n/a	n/a	n/a	n/a	n/a	n/a	"fixation"	n/a	n/a	n/a	n/a	"NULL"	n/a	"NULL"	"NULL"	"NULL"	"<p style=\"color: black; font-size: 80px; padding-left: 0%; padding-right: 9%; padding-top: 44%; padding-bottom: 42%\">+</p>"	"1259"	n/a	n/a	n/a	n/a	n/a	n/a	n/a	n/a	n/a
n/a	"image-keyboard-response"	"136"	"606314"	"0.0-5.0-2.0-1.41"	"yz2wpe"	"600"	"1366"	"chrome"	"108.0.0"	"FALSE"	"Windows 10"	"60.53"	"148"	n/a	n/a	n/a	n/a	n/a	n/a	"Trial"	n/a	n/a	n/a	"354"	"arrowup"	n/a	"NULL"	"NULL"	"NULL"	"stimuli/MullerLyer_-2.3000_0.14541.png"	n/a	"MullerLyer"	"arrowup"	"1278"	"TRUE"	"MullerLyer"	"-2.300000000"	"0.1454100000"	"1"	"60"
n/a	"html-keyboard-response"	"137"	"607608"	"0.0-5.0-2.0-0.42"	"yz2wpe"	"600"	"1366"	"chrome"	"108.0.0"	"FALSE"	"Windows 10"	"60.53"	"148"	n/a	n/a	n/a	n/a	n/a	n/a	"fixation"	n/a	n/a	n/a	n/a	"NULL"	n/a	"NULL"	"NULL"	"NULL"	"<p style=\"color: black; font-size: 80px; padding-left: 48%; padding-right: 41%; padding-top: 28%; padding-bottom: 22%\">+</p>"	"1273"	n/a	n/a	n/a	n/a	n/a	n/a	n/a	n/a	n/a
n/a	"image-keyboard-response"	"138"	"607939"	"0.0-5.0-2.0-1.42"	"yz2wpe"	"600"	"1366"	"chrome"	"108.0.0"	"FALSE"	"Windows 10"	"60.53"	"148"	n/a	n/a	n/a	n/a	n/a	n/a	"Trial"	n/a	n/a	n/a	"329"	"arrowup"	n/a	"NULL"	"NULL"	"NULL"	"stimuli/MullerLyer_-20.04286_0.35000.png"	n/a	"MullerLyer"	"arrowup"	"1294"	"TRUE"	"MullerLyer"	"-20.04286000"	"0.3500000000"	"1"	"61"
n/a	"html-keyboard-response"	"139"	"609375"	"0.0-5.0-2.0-0.43"	"yz2wpe"	"600"	"1366"	"chrome"	"108.0.0"	"FALSE"	"Windows 10"	"60.53"	"148"	n/a	n/a	n/a	n/a	n/a	n/a	"fixation"	n/a	n/a	n/a	n/a	"NULL"	n/a	"NULL"	"NULL"	"NULL"	"<p style=\"color: black; font-size: 80px; padding-left: 28%; padding-right: 18%; padding-top: 31%; padding-bottom: 16%\">+</p>"	"1427"	n/a	n/a	n/a	n/a	n/a	n/a	n/a	n/a	n/a
n/a	"image-keyboard-response"	"140"	"609746"	"0.0-5.0-2.0-1.43"	"yz2wpe"	"600"	"1366"	"chrome"	"108.0.0"	"FALSE"	"Windows 10"	"60.53"	"148"	n/a	n/a	n/a	n/a	n/a	n/a	"Trial"	n/a	n/a	n/a	"369"	"arrowup"	n/a	"NULL"	"NULL"	"NULL"	"stimuli/MullerLyer_-2.3000_0.35000.png"	n/a	"MullerLyer"	"arrowup"	"1436"	"TRUE"	"MullerLyer"	"-2.300000000"	"0.3500000000"	"1"	"62"
n/a	"html-keyboard-response"	"141"	"611050"	"0.0-5.0-2.0-0.44"	"yz2wpe"	"600"	"1366"	"chrome"	"108.0.0"	"FALSE"	"Windows 10"	"60.53"	"148"	n/a	n/a	n/a	n/a	n/a	n/a	"fixation"	n/a	n/a	n/a	n/a	"NULL"	n/a	"NULL"	"NULL"	"NULL"	"<p style=\"color: black; font-size: 80px; padding-left: 16%; padding-right: 46%; padding-top: 29%; padding-bottom: 11%\">+</p>"	"1291"	n/a	n/a	n/a	n/a	n/a	n/a	n/a	n/a	n/a
n/a	"image-keyboard-response"	"142"	"611405"	"0.0-5.0-2.0-1.44"	"yz2wpe"	"600"	"1366"	"chrome"	"108.0.0"	"FALSE"	"Windows 10"	"60.53"	"148"	n/a	n/a	n/a	n/a	n/a	n/a	"Trial"	n/a	n/a	n/a	"352"	"arrowup"	n/a	"NULL"	"NULL"	"NULL"	"stimuli/MullerLyer_-2.3000_-0.23665.png"	n/a	"MullerLyer"	"arrowdown"	"1304"	"FALSE"	"MullerLyer"	"-2.300000000"	"-0.236650000"	"1"	"63"
n/a	"html-keyboard-response"	"143"	"612694"	"0.0-5.0-2.0-0.45"	"yz2wpe"	"600"	"1366"	"chrome"	"108.0.0"	"FALSE"	"Windows 10"	"60.53"	"148"	n/a	n/a	n/a	n/a	n/a	n/a	"fixation"	n/a	n/a	n/a	n/a	"NULL"	n/a	"NULL"	"NULL"	"NULL"	"<p style=\"color: black; font-size: 80px; padding-left: 15%; padding-right: 49%; padding-top: 38%; padding-bottom: 7%\">+</p>"	"1275"	n/a	n/a	n/a	n/a	n/a	n/a	n/a	n/a	n/a
n/a	"image-keyboard-response"	"144"	"613123"	"0.0-5.0-2.0-1.45"	"yz2wpe"	"600"	"1366"	"chrome"	"108.0.0"	"FALSE"	"Windows 10"	"60.53"	"148"	n/a	n/a	n/a	n/a	n/a	n/a	"Trial"	n/a	n/a	n/a	"427"	"arrowdown"	n/a	"NULL"	"NULL"	"NULL"	"stimuli/MullerLyer_-14.12857_-0.23665.png"	n/a	"MullerLyer"	"arrowdown"	"1289"	"TRUE"	"MullerLyer"	"-14.12857000"	"-0.236650000"	"1"	"64"
n/a	"html-keyboard-response"	"145"	"614198"	"0.0-5.0-2.0-0.46"	"yz2wpe"	"600"	"1366"	"chrome"	"108.0.0"	"FALSE"	"Windows 10"	"60.53"	"148"	n/a	n/a	n/a	n/a	n/a	n/a	"fixation"	n/a	n/a	n/a	n/a	"NULL"	n/a	"NULL"	"NULL"	"NULL"	"<p style=\"color: black; font-size: 80px; padding-left: 40%; padding-right: 40%; padding-top: 3%; padding-bottom: 3%\">+</p>"	"1067"	n/a	n/a	n/a	n/a	n/a	n/a	n/a	n/a	n/a
n/a	"image-keyboard-response"	"146"	"614711"	"0.0-5.0-2.0-1.46"	"yz2wpe"	"600"	"1366"	"chrome"	"108.0.0"	"FALSE"	"Windows 10"	"60.53"	"148"	n/a	n/a	n/a	n/a	n/a	n/a	"Trial"	n/a	n/a	n/a	"512"	"arrowup"	n/a	"NULL"	"NULL"	"NULL"	"stimuli/MullerLyer_8.21429_0.23665.png"	n/a	"MullerLyer"	"arrowup"	"1075"	"TRUE"	"MullerLyer"	"8.2142900000"	"0.2366500000"	"1"	"65"
n/a	"html-keyboard-response"	"147"	"615729"	"0.0-5.0-2.0-0.47"	"yz2wpe"	"600"	"1366"	"chrome"	"108.0.0"	"FALSE"	"Windows 10"	"60.53"	"148"	n/a	n/a	n/a	n/a	n/a	n/a	"fixation"	n/a	n/a	n/a	n/a	"NULL"	n/a	"NULL"	"NULL"	"NULL"	"<p style=\"color: black; font-size: 80px; padding-left: 44%; padding-right: 32%; padding-top: 34%; padding-bottom: 17%\">+</p>"	"1001"	n/a	n/a	n/a	n/a	n/a	n/a	n/a	n/a	n/a
n/a	"image-keyboard-response"	"148"	"616264"	"0.0-5.0-2.0-1.47"	"yz2wpe"	"600"	"1366"	"chrome"	"108.0.0"	"FALSE"	"Windows 10"	"60.53"	"148"	n/a	n/a	n/a	n/a	n/a	n/a	"Trial"	n/a	n/a	n/a	"533"	"arrowdown"	n/a	"NULL"	"NULL"	"NULL"	"stimuli/MullerLyer_8.21429_-0.14541.png"	n/a	"MullerLyer"	"arrowdown"	"1018"	"TRUE"	"MullerLyer"	"8.2142900000"	"-0.145410000"	"1"	"66"
n/a	"html-keyboard-response"	"149"	"617357"	"0.0-5.0-2.0-0.48"	"yz2wpe"	"600"	"1366"	"chrome"	"108.0.0"	"FALSE"	"Windows 10"	"60.53"	"148"	n/a	n/a	n/a	n/a	n/a	n/a	"fixation"	n/a	n/a	n/a	n/a	"NULL"	n/a	"NULL"	"NULL"	"NULL"	"<p style=\"color: black; font-size: 80px; padding-left: 8%; padding-right: 17%; padding-top: 35%; padding-bottom: 11%\">+</p>"	"1084"	n/a	n/a	n/a	n/a	n/a	n/a	n/a	n/a	n/a
n/a	"image-keyboard-response"	"150"	"617795"	"0.0-5.0-2.0-1.48"	"yz2wpe"	"600"	"1366"	"chrome"	"108.0.0"	"FALSE"	"Windows 10"	"60.53"	"148"	n/a	n/a	n/a	n/a	n/a	n/a	"Trial"	n/a	n/a	n/a	"436"	"arrowup"	n/a	"NULL"	"NULL"	"NULL"	"stimuli/MullerLyer_14.12857_-0.23665.png"	n/a	"MullerLyer"	"arrowdown"	"1093"	"FALSE"	"MullerLyer"	"14.128570000"	"-0.236650000"	"1"	"67"
n/a	"html-keyboard-response"	"151"	"619070"	"0.0-5.0-2.0-0.49"	"yz2wpe"	"600"	"1366"	"chrome"	"108.0.0"	"FALSE"	"Windows 10"	"60.53"	"148"	n/a	n/a	n/a	n/a	n/a	n/a	"fixation"	n/a	n/a	n/a	n/a	"NULL"	n/a	"NULL"	"NULL"	"NULL"	"<p style=\"color: black; font-size: 80px; padding-left: 45%; padding-right: 5%; padding-top: 12%; padding-bottom: 17%\">+</p>"	"1255"	n/a	n/a	n/a	n/a	n/a	n/a	n/a	n/a	n/a
n/a	"image-keyboard-response"	"152"	"619544"	"0.0-5.0-2.0-1.49"	"yz2wpe"	"600"	"1366"	"chrome"	"108.0.0"	"FALSE"	"Windows 10"	"60.53"	"148"	n/a	n/a	n/a	n/a	n/a	n/a	"Trial"	n/a	n/a	n/a	"473"	"arrowup"	n/a	"NULL"	"NULL"	"NULL"	"stimuli/MullerLyer_-2.3000_0.23665.png"	n/a	"MullerLyer"	"arrowup"	"1275"	"TRUE"	"MullerLyer"	"-2.300000000"	"0.2366500000"	"1"	"68"
n/a	"html-keyboard-response"	"153"	"620852"	"0.0-5.0-2.0-0.50"	"yz2wpe"	"600"	"1366"	"chrome"	"108.0.0"	"FALSE"	"Windows 10"	"60.53"	"148"	n/a	n/a	n/a	n/a	n/a	n/a	"fixation"	n/a	n/a	n/a	n/a	"NULL"	n/a	"NULL"	"NULL"	"NULL"	"<p style=\"color: black; font-size: 80px; padding-left: 39%; padding-right: 22%; padding-top: 5%; padding-bottom: 48%\">+</p>"	"1299"	n/a	n/a	n/a	n/a	n/a	n/a	n/a	n/a	n/a
n/a	"image-keyboard-response"	"154"	"621360"	"0.0-5.0-2.0-1.50"	"yz2wpe"	"600"	"1366"	"chrome"	"108.0.0"	"FALSE"	"Windows 10"	"60.53"	"148"	n/a	n/a	n/a	n/a	n/a	n/a	"Trial"	n/a	n/a	n/a	"506"	"arrowdown"	n/a	"NULL"	"NULL"	"NULL"	"stimuli/MullerLyer_-8.21429_-0.07627.png"	n/a	"MullerLyer"	"arrowdown"	"1308"	"TRUE"	"MullerLyer"	"-8.214290000"	"-0.076270000"	"1"	"69"
n/a	"html-keyboard-response"	"155"	"622655"	"0.0-5.0-2.0-0.51"	"yz2wpe"	"600"	"1366"	"chrome"	"108.0.0"	"FALSE"	"Windows 10"	"60.53"	"148"	n/a	n/a	n/a	n/a	n/a	n/a	"fixation"	n/a	n/a	n/a	n/a	"NULL"	n/a	"NULL"	"NULL"	"NULL"	"<p style=\"color: black; font-size: 80px; padding-left: 14%; padding-right: 29%; padding-top: 13%; padding-bottom: 23%\">+</p>"	"1284"	n/a	n/a	n/a	n/a	n/a	n/a	n/a	n/a	n/a
n/a	"image-keyboard-response"	"156"	"623129"	"0.0-5.0-2.0-1.51"	"yz2wpe"	"600"	"1366"	"chrome"	"108.0.0"	"FALSE"	"Windows 10"	"60.53"	"148"	n/a	n/a	n/a	n/a	n/a	n/a	"Trial"	n/a	n/a	n/a	"473"	"arrowdown"	n/a	"NULL"	"NULL"	"NULL"	"stimuli/MullerLyer_14.12857_-0.3500.png"	n/a	"MullerLyer"	"arrowdown"	"1295"	"TRUE"	"MullerLyer"	"14.128570000"	"-0.350000000"	"1"	"70"
n/a	"html-keyboard-response"	"157"	"624469"	"0.0-5.0-2.0-0.52"	"yz2wpe"	"600"	"1366"	"chrome"	"108.0.0"	"FALSE"	"Windows 10"	"60.53"	"148"	n/a	n/a	n/a	n/a	n/a	n/a	"fixation"	n/a	n/a	n/a	n/a	"NULL"	n/a	"NULL"	"NULL"	"NULL"	"<p style=\"color: black; font-size: 80px; padding-left: 25%; padding-right: 22%; padding-top: 49%; padding-bottom: 1%\">+</p>"	"1322"	n/a	n/a	n/a	n/a	n/a	n/a	n/a	n/a	n/a
n/a	"image-keyboard-response"	"158"	"624900"	"0.0-5.0-2.0-1.52"	"yz2wpe"	"600"	"1366"	"chrome"	"108.0.0"	"FALSE"	"Windows 10"	"60.53"	"148"	n/a	n/a	n/a	n/a	n/a	n/a	"Trial"	n/a	n/a	n/a	"429"	"arrowup"	n/a	"NULL"	"NULL"	"NULL"	"stimuli/MullerLyer_14.12857_0.23665.png"	n/a	"MullerLyer"	"arrowup"	"1340"	"TRUE"	"MullerLyer"	"14.128570000"	"0.2366500000"	"1"	"71"
n/a	"html-keyboard-response"	"159"	"626031"	"0.0-5.0-2.0-0.53"	"yz2wpe"	"600"	"1366"	"chrome"	"108.0.0"	"FALSE"	"Windows 10"	"60.53"	"148"	n/a	n/a	n/a	n/a	n/a	n/a	"fixation"	n/a	n/a	n/a	n/a	"NULL"	n/a	"NULL"	"NULL"	"NULL"	"<p style=\"color: black; font-size: 80px; padding-left: 22%; padding-right: 31%; padding-top: 31%; padding-bottom: 23%\">+</p>"	"1124"	n/a	n/a	n/a	n/a	n/a	n/a	n/a	n/a	n/a
n/a	"image-keyboard-response"	"160"	"626425"	"0.0-5.0-2.0-1.53"	"yz2wpe"	"600"	"1366"	"chrome"	"108.0.0"	"FALSE"	"Windows 10"	"60.53"	"148"	n/a	n/a	n/a	n/a	n/a	n/a	"Trial"	n/a	n/a	n/a	"391"	"arrowup"	n/a	"NULL"	"NULL"	"NULL"	"stimuli/MullerLyer_-8.21429_0.35000.png"	n/a	"MullerLyer"	"arrowup"	"1131"	"TRUE"	"MullerLyer"	"-8.214290000"	"0.3500000000"	"1"	"72"
n/a	"html-keyboard-response"	"161"	"627688"	"0.0-5.0-2.0-0.54"	"yz2wpe"	"600"	"1366"	"chrome"	"108.0.0"	"FALSE"	"Windows 10"	"60.53"	"148"	n/a	n/a	n/a	n/a	n/a	n/a	"fixation"	n/a	n/a	n/a	n/a	"NULL"	n/a	"NULL"	"NULL"	"NULL"	"<p style=\"color: black; font-size: 80px; padding-left: 43%; padding-right: 27%; padding-top: 16%; padding-bottom: 37%\">+</p>"	"1255"	n/a	n/a	n/a	n/a	n/a	n/a	n/a	n/a	n/a
n/a	"image-keyboard-response"	"162"	"628363"	"0.0-5.0-2.0-1.54"	"yz2wpe"	"600"	"1366"	"chrome"	"108.0.0"	"FALSE"	"Windows 10"	"60.53"	"148"	n/a	n/a	n/a	n/a	n/a	n/a	"Trial"	n/a	n/a	n/a	"673"	"arrowup"	n/a	"NULL"	"NULL"	"NULL"	"stimuli/MullerLyer_2.30000_-0.07627.png"	n/a	"MullerLyer"	"arrowdown"	"1263"	"FALSE"	"MullerLyer"	"2.3000000000"	"-0.076270000"	"1"	"73"
n/a	"html-keyboard-response"	"163"	"629760"	"0.0-5.0-2.0-0.55"	"yz2wpe"	"600"	"1366"	"chrome"	"108.0.0"	"FALSE"	"Windows 10"	"60.53"	"148"	n/a	n/a	n/a	n/a	n/a	n/a	"fixation"	n/a	n/a	n/a	n/a	"NULL"	n/a	"NULL"	"NULL"	"NULL"	"<p style=\"color: black; font-size: 80px; padding-left: 33%; padding-right: 32%; padding-top: 40%; padding-bottom: 6%\">+</p>"	"1381"	n/a	n/a	n/a	n/a	n/a	n/a	n/a	n/a	n/a
n/a	"image-keyboard-response"	"164"	"630356"	"0.0-5.0-2.0-1.55"	"yz2wpe"	"600"	"1366"	"chrome"	"108.0.0"	"FALSE"	"Windows 10"	"60.53"	"148"	n/a	n/a	n/a	n/a	n/a	n/a	"Trial"	n/a	n/a	n/a	"594"	"arrowup"	n/a	"NULL"	"NULL"	"NULL"	"stimuli/MullerLyer_-2.3000_0.07627.png"	n/a	"MullerLyer"	"arrowup"	"1397"	"TRUE"	"MullerLyer"	"-2.300000000"	"0.0762700000"	"1"	"74"
n/a	"html-keyboard-response"	"165"	"631692"	"0.0-5.0-2.0-0.56"	"yz2wpe"	"600"	"1366"	"chrome"	"108.0.0"	"FALSE"	"Windows 10"	"60.53"	"148"	n/a	n/a	n/a	n/a	n/a	n/a	"fixation"	n/a	n/a	n/a	n/a	"NULL"	n/a	"NULL"	"NULL"	"NULL"	"<p style=\"color: black; font-size: 80px; padding-left: 18%; padding-right: 48%; padding-top: 37%; padding-bottom: 9%\">+</p>"	"1333"	n/a	n/a	n/a	n/a	n/a	n/a	n/a	n/a	n/a
n/a	"image-keyboard-response"	"166"	"632209"	"0.0-5.0-2.0-1.56"	"yz2wpe"	"600"	"1366"	"chrome"	"108.0.0"	"FALSE"	"Windows 10"	"60.53"	"148"	n/a	n/a	n/a	n/a	n/a	n/a	"Trial"	n/a	n/a	n/a	"515"	"arrowdown"	n/a	"NULL"	"NULL"	"NULL"	"stimuli/MullerLyer_-2.3000_-0.3500.png"	n/a	"MullerLyer"	"arrowdown"	"1336"	"TRUE"	"MullerLyer"	"-2.300000000"	"-0.350000000"	"1"	"75"
n/a	"html-keyboard-response"	"167"	"633229"	"0.0-5.0-2.0-0.57"	"yz2wpe"	"600"	"1366"	"chrome"	"108.0.0"	"FALSE"	"Windows 10"	"60.53"	"148"	n/a	n/a	n/a	n/a	n/a	n/a	"fixation"	n/a	n/a	n/a	n/a	"NULL"	n/a	"NULL"	"NULL"	"NULL"	"<p style=\"color: black; font-size: 80px; padding-left: 20%; padding-right: 35%; padding-top: 37%; padding-bottom: 13%\">+</p>"	"1010"	n/a	n/a	n/a	n/a	n/a	n/a	n/a	n/a	n/a
n/a	"image-keyboard-response"	"168"	"633699"	"0.0-5.0-2.0-1.57"	"yz2wpe"	"600"	"1366"	"chrome"	"108.0.0"	"FALSE"	"Windows 10"	"60.53"	"148"	n/a	n/a	n/a	n/a	n/a	n/a	"Trial"	n/a	n/a	n/a	"469"	"arrowup"	n/a	"NULL"	"NULL"	"NULL"	"stimuli/MullerLyer_8.21429_0.35000.png"	n/a	"MullerLyer"	"arrowup"	"1020"	"TRUE"	"MullerLyer"	"8.2142900000"	"0.3500000000"	"1"	"76"
n/a	"html-keyboard-response"	"169"	"634932"	"0.0-5.0-2.0-0.58"	"yz2wpe"	"600"	"1366"	"chrome"	"108.0.0"	"FALSE"	"Windows 10"	"60.53"	"148"	n/a	n/a	n/a	n/a	n/a	n/a	"fixation"	n/a	n/a	n/a	n/a	"NULL"	n/a	"NULL"	"NULL"	"NULL"	"<p style=\"color: black; font-size: 80px; padding-left: 19%; padding-right: 32%; padding-top: 47%; padding-bottom: 14%\">+</p>"	"1225"	n/a	n/a	n/a	n/a	n/a	n/a	n/a	n/a	n/a
n/a	"image-keyboard-response"	"170"	"635413"	"0.0-5.0-2.0-1.58"	"yz2wpe"	"600"	"1366"	"chrome"	"108.0.0"	"FALSE"	"Windows 10"	"60.53"	"148"	n/a	n/a	n/a	n/a	n/a	n/a	"Trial"	n/a	n/a	n/a	"480"	"arrowdown"	n/a	"NULL"	"NULL"	"NULL"	"stimuli/MullerLyer_-20.04286_-0.07627.png"	n/a	"MullerLyer"	"arrowdown"	"1233"	"TRUE"	"MullerLyer"	"-20.04286000"	"-0.076270000"	"1"	"77"
n/a	"html-keyboard-response"	"171"	"636562"	"0.0-5.0-2.0-0.59"	"yz2wpe"	"600"	"1366"	"chrome"	"108.0.0"	"FALSE"	"Windows 10"	"60.53"	"148"	n/a	n/a	n/a	n/a	n/a	n/a	"fixation"	n/a	n/a	n/a	n/a	"NULL"	n/a	"NULL"	"NULL"	"NULL"	"<p style=\"color: black; font-size: 80px; padding-left: 13%; padding-right: 6%; padding-top: 41%; padding-bottom: 5%\">+</p>"	"1128"	n/a	n/a	n/a	n/a	n/a	n/a	n/a	n/a	n/a
n/a	"image-keyboard-response"	"172"	"637019"	"0.0-5.0-2.0-1.59"	"yz2wpe"	"600"	"1366"	"chrome"	"108.0.0"	"FALSE"	"Windows 10"	"60.53"	"148"	n/a	n/a	n/a	n/a	n/a	n/a	"Trial"	n/a	n/a	n/a	"455"	"arrowdown"	n/a	"NULL"	"NULL"	"NULL"	"stimuli/MullerLyer_-8.21429_-0.23665.png"	n/a	"MullerLyer"	"arrowdown"	"1149"	"TRUE"	"MullerLyer"	"-8.214290000"	"-0.236650000"	"1"	"78"
n/a	"html-keyboard-response"	"173"	"638222"	"0.0-5.0-2.0-0.60"	"yz2wpe"	"600"	"1366"	"chrome"	"108.0.0"	"FALSE"	"Windows 10"	"60.53"	"148"	n/a	n/a	n/a	n/a	n/a	n/a	"fixation"	n/a	n/a	n/a	n/a	"NULL"	n/a	"NULL"	"NULL"	"NULL"	"<p style=\"color: black; font-size: 80px; padding-left: 21%; padding-right: 38%; padding-top: 9%; padding-bottom: 9%\">+</p>"	"1184"	n/a	n/a	n/a	n/a	n/a	n/a	n/a	n/a	n/a
n/a	"image-keyboard-response"	"174"	"638660"	"0.0-5.0-2.0-1.60"	"yz2wpe"	"600"	"1366"	"chrome"	"108.0.0"	"FALSE"	"Windows 10"	"60.53"	"148"	n/a	n/a	n/a	n/a	n/a	n/a	"Trial"	n/a	n/a	n/a	"437"	"arrowup"	n/a	"NULL"	"NULL"	"NULL"	"stimuli/MullerLyer_-8.21429_0.07627.png"	n/a	"MullerLyer"	"arrowup"	"1203"	"TRUE"	"MullerLyer"	"-8.214290000"	"0.0762700000"	"1"	"79"
n/a	"html-keyboard-response"	"175"	"639986"	"0.0-5.0-2.0-0.61"	"yz2wpe"	"600"	"1366"	"chrome"	"108.0.0"	"FALSE"	"Windows 10"	"60.53"	"148"	n/a	n/a	n/a	n/a	n/a	n/a	"fixation"	n/a	n/a	n/a	n/a	"NULL"	n/a	"NULL"	"NULL"	"NULL"	"<p style=\"color: black; font-size: 80px; padding-left: 6%; padding-right: 42%; padding-top: 19%; padding-bottom: 22%\">+</p>"	"1316"	n/a	n/a	n/a	n/a	n/a	n/a	n/a	n/a	n/a
n/a	"image-keyboard-response"	"176"	"640411"	"0.0-5.0-2.0-1.61"	"yz2wpe"	"600"	"1366"	"chrome"	"108.0.0"	"FALSE"	"Windows 10"	"60.53"	"148"	n/a	n/a	n/a	n/a	n/a	n/a	"Trial"	n/a	n/a	n/a	"424"	"arrowup"	n/a	"NULL"	"NULL"	"NULL"	"stimuli/MullerLyer_2.30000_0.35000.png"	n/a	"MullerLyer"	"arrowup"	"1326"	"TRUE"	"MullerLyer"	"2.3000000000"	"0.3500000000"	"1"	"80"
n/a	"html-keyboard-response"	"177"	"641745"	"0.0-5.0-2.0-0.62"	"yz2wpe"	"600"	"1366"	"chrome"	"108.0.0"	"FALSE"	"Windows 10"	"60.53"	"148"	n/a	n/a	n/a	n/a	n/a	n/a	"fixation"	n/a	n/a	n/a	n/a	"NULL"	n/a	"NULL"	"NULL"	"NULL"	"<p style=\"color: black; font-size: 80px; padding-left: 15%; padding-right: 26%; padding-top: 7%; padding-bottom: 1%\">+</p>"	"1311"	n/a	n/a	n/a	n/a	n/a	n/a	n/a	n/a	n/a
n/a	"image-keyboard-response"	"178"	"642092"	"0.0-5.0-2.0-1.62"	"yz2wpe"	"600"	"1366"	"chrome"	"108.0.0"	"FALSE"	"Windows 10"	"60.53"	"148"	n/a	n/a	n/a	n/a	n/a	n/a	"Trial"	n/a	n/a	n/a	"345"	"arrowup"	n/a	"NULL"	"NULL"	"NULL"	"stimuli/MullerLyer_-20.04286_0.23665.png"	n/a	"MullerLyer"	"arrowup"	"1334"	"TRUE"	"MullerLyer"	"-20.04286000"	"0.2366500000"	"1"	"81"
n/a	"html-keyboard-response"	"179"	"643348"	"0.0-5.0-2.0-0.63"	"yz2wpe"	"600"	"1366"	"chrome"	"108.0.0"	"FALSE"	"Windows 10"	"60.53"	"148"	n/a	n/a	n/a	n/a	n/a	n/a	"fixation"	n/a	n/a	n/a	n/a	"NULL"	n/a	"NULL"	"NULL"	"NULL"	"<p style=\"color: black; font-size: 80px; padding-left: 49%; padding-right: 1%; padding-top: 4%; padding-bottom: 29%\">+</p>"	"1244"	n/a	n/a	n/a	n/a	n/a	n/a	n/a	n/a	n/a
n/a	"image-keyboard-response"	"180"	"643799"	"0.0-5.0-2.0-1.63"	"yz2wpe"	"600"	"1366"	"chrome"	"108.0.0"	"FALSE"	"Windows 10"	"60.53"	"148"	n/a	n/a	n/a	n/a	n/a	n/a	"Trial"	n/a	n/a	n/a	"450"	"arrowdown"	n/a	"NULL"	"NULL"	"NULL"	"stimuli/MullerLyer_14.12857_-0.14541.png"	n/a	"MullerLyer"	"arrowdown"	"1256"	"TRUE"	"MullerLyer"	"14.128570000"	"-0.145410000"	"1"	"82"
n/a	"html-button-response"	"181"	"664759"	"0.0-5.0-3.0"	"yz2wpe"	"600"	"1366"	"chrome"	"108.0.0"	"FALSE"	"Windows 10"	"60.53"	"148"	n/a	n/a	n/a	n/a	n/a	n/a	"block_results"	n/a	n/a	n/a	"20954"	"0"	n/a	"NULL"	"NULL"	"NULL"	"<p>Your score for this illusion is <p style=\"color: black; font-size: 48px; font-weight: bold;\">83.2 %</p><hr><p>Can you do better in the next illusion?</p>"	n/a	n/a	n/a	n/a	n/a	n/a	n/a	n/a	n/a	n/a
"TRUE"	"preload"	"182"	"664958"	"0.0-6.0-0.0"	"yz2wpe"	"600"	"1366"	"chrome"	"108.0.0"	"FALSE"	"Windows 10"	"60.53"	"148"	n/a	n/a	n/a	n/a	n/a	n/a	n/a	n/a	n/a	n/a	n/a	"NULL"	"FALSE"	"list()"	"list()"	"list()"	n/a	n/a	n/a	n/a	n/a	n/a	n/a	n/a	n/a	n/a	n/a
n/a	"html-keyboard-response"	"183"	"667951"	"0.0-6.0-1.0"	"yz2wpe"	"600"	"1366"	"chrome"	"108.0.0"	"FALSE"	"Windows 10"	"60.53"	"148"	n/a	n/a	n/a	n/a	n/a	n/a	n/a	n/a	n/a	n/a	"2992"	"enter"	n/a	"NULL"	"NULL"	"NULL"	"<p><b>Part 2/6</b></p><p>In this part, two red circles will appear side by side on the screen.</p><p>Your task is to select which <b>red circle is bigger</b> in size as fast as you can, without making errors.</p><p>Don't get distracted by the surrounding black circles around the red circles!</p><p>Press <b>the LEFT or the RIGHT arrow</b> to indicate which is the bigger <b>red circle.</b></p><div style='float: center'><img src='materials/instructions/Ebbinghaus_Demo.png' height='300'></img><p><img src='utils/answer/answer_leftright_keyboard.PNG' height='150'></img></p><p class='small'>In this example, the correct answer is the <b>LEFT arrow</b>.</p></div><p>Are you ready? <b>Press ENTER to start</b></p>"	n/a	n/a	n/a	n/a	n/a	n/a	n/a	n/a	n/a	n/a
n/a	"html-keyboard-response"	"184"	"669545"	"0.0-6.0-2.0-0.0"	"yz2wpe"	"600"	"1366"	"chrome"	"108.0.0"	"FALSE"	"Windows 10"	"60.53"	"148"	n/a	n/a	n/a	n/a	n/a	n/a	"fixation"	n/a	n/a	n/a	n/a	"NULL"	n/a	"NULL"	"NULL"	"NULL"	"<p style=\"color: black; font-size: 80px; padding-left: 26%; padding-right: 26%; padding-top: 31%; padding-bottom: 7%\">+</p>"	"1066"	n/a	n/a	n/a	n/a	n/a	n/a	n/a	n/a	n/a
n/a	"image-keyboard-response"	"185"	"670300"	"0.0-6.0-2.0-1.0"	"yz2wpe"	"600"	"1366"	"chrome"	"108.0.0"	"FALSE"	"Windows 10"	"60.53"	"148"	n/a	n/a	n/a	n/a	n/a	n/a	"Trial"	n/a	n/a	n/a	"753"	"arrowright"	n/a	"NULL"	"NULL"	"NULL"	"stimuli/Ebbinghaus_-0.1000_-0.15857.png"	n/a	"Ebbinghaus"	"arrowright"	"1594"	"TRUE"	"Ebbinghaus"	"-0.100000000"	"-0.158570000"	"2"	"1"
n/a	"html-keyboard-response"	"186"	"671471"	"0.0-6.0-2.0-0.1"	"yz2wpe"	"600"	"1366"	"chrome"	"108.0.0"	"FALSE"	"Windows 10"	"60.53"	"148"	n/a	n/a	n/a	n/a	n/a	n/a	"fixation"	n/a	n/a	n/a	n/a	"NULL"	n/a	"NULL"	"NULL"	"NULL"	"<p style=\"color: black; font-size: 80px; padding-left: 5%; padding-right: 13%; padding-top: 34%; padding-bottom: 30%\">+</p>"	"1164"	n/a	n/a	n/a	n/a	n/a	n/a	n/a	n/a	n/a
n/a	"image-keyboard-response"	"187"	"672159"	"0.0-6.0-2.0-1.1"	"yz2wpe"	"600"	"1366"	"chrome"	"108.0.0"	"FALSE"	"Windows 10"	"60.53"	"148"	n/a	n/a	n/a	n/a	n/a	n/a	"Trial"	n/a	n/a	n/a	"687"	"arrowleft"	n/a	"NULL"	"NULL"	"NULL"	"stimuli/Ebbinghaus_-0.61429_0.15857.png"	n/a	"Ebbinghaus"	"arrowleft"	"1171"	"TRUE"	"Ebbinghaus"	"-0.614290000"	"0.1585700000"	"2"	"2"
n/a	"html-keyboard-response"	"188"	"673213"	"0.0-6.0-2.0-0.2"	"yz2wpe"	"600"	"1366"	"chrome"	"108.0.0"	"FALSE"	"Windows 10"	"60.53"	"148"	n/a	n/a	n/a	n/a	n/a	n/a	"fixation"	n/a	n/a	n/a	n/a	"NULL"	n/a	"NULL"	"NULL"	"NULL"	"<p style=\"color: black; font-size: 80px; padding-left: 11%; padding-right: 33%; padding-top: 35%; padding-bottom: 30%\">+</p>"	"1041"	n/a	n/a	n/a	n/a	n/a	n/a	n/a	n/a	n/a
n/a	"image-keyboard-response"	"189"	"673798"	"0.0-6.0-2.0-1.2"	"yz2wpe"	"600"	"1366"	"chrome"	"108.0.0"	"FALSE"	"Windows 10"	"60.53"	"148"	n/a	n/a	n/a	n/a	n/a	n/a	"Trial"	n/a	n/a	n/a	"584"	"arrowright"	n/a	"NULL"	"NULL"	"NULL"	"stimuli/Ebbinghaus_-0.35714_0.11071.png"	n/a	"Ebbinghaus"	"arrowleft"	"1054"	"FALSE"	"Ebbinghaus"	"-0.357140000"	"0.1107100000"	"2"	"3"
n/a	"html-keyboard-response"	"190"	"674930"	"0.0-6.0-2.0-0.3"	"yz2wpe"	"600"	"1366"	"chrome"	"108.0.0"	"FALSE"	"Windows 10"	"60.53"	"148"	n/a	n/a	n/a	n/a	n/a	n/a	"fixation"	n/a	n/a	n/a	n/a	"NULL"	n/a	"NULL"	"NULL"	"NULL"	"<p style=\"color: black; font-size: 80px; padding-left: 48%; padding-right: 14%; padding-top: 44%; padding-bottom: 24%\">+</p>"	"1122"	n/a	n/a	n/a	n/a	n/a	n/a	n/a	n/a	n/a
n/a	"image-keyboard-response"	"191"	"675395"	"0.0-6.0-2.0-1.3"	"yz2wpe"	"600"	"1366"	"chrome"	"108.0.0"	"FALSE"	"Windows 10"	"60.53"	"148"	n/a	n/a	n/a	n/a	n/a	n/a	"Trial"	n/a	n/a	n/a	"464"	"arrowleft"	n/a	"NULL"	"NULL"	"NULL"	"stimuli/Ebbinghaus_0.35714_0.15857.png"	n/a	"Ebbinghaus"	"arrowleft"	"1132"	"TRUE"	"Ebbinghaus"	"0.3571400000"	"0.1585700000"	"2"	"4"
n/a	"html-keyboard-response"	"192"	"676634"	"0.0-6.0-2.0-0.4"	"yz2wpe"	"600"	"1366"	"chrome"	"108.0.0"	"FALSE"	"Windows 10"	"60.53"	"148"	n/a	n/a	n/a	n/a	n/a	n/a	"fixation"	n/a	n/a	n/a	n/a	"NULL"	n/a	"NULL"	"NULL"	"NULL"	"<p style=\"color: black; font-size: 80px; padding-left: 37%; padding-right: 36%; padding-top: 9%; padding-bottom: 31%\">+</p>"	"1237"	n/a	n/a	n/a	n/a	n/a	n/a	n/a	n/a	n/a
n/a	"image-keyboard-response"	"193"	"677323"	"0.0-6.0-2.0-1.4"	"yz2wpe"	"600"	"1366"	"chrome"	"108.0.0"	"FALSE"	"Windows 10"	"60.53"	"148"	n/a	n/a	n/a	n/a	n/a	n/a	"Trial"	n/a	n/a	n/a	"687"	"arrowleft"	n/a	"NULL"	"NULL"	"NULL"	"stimuli/Ebbinghaus_-0.87143_0.21500.png"	n/a	"Ebbinghaus"	"arrowleft"	"1239"	"TRUE"	"Ebbinghaus"	"-0.871430000"	"0.2150000000"	"2"	"5"
n/a	"html-keyboard-response"	"194"	"678466"	"0.0-6.0-2.0-0.5"	"yz2wpe"	"600"	"1366"	"chrome"	"108.0.0"	"FALSE"	"Windows 10"	"60.53"	"148"	n/a	n/a	n/a	n/a	n/a	n/a	"fixation"	n/a	n/a	n/a	n/a	"NULL"	n/a	"NULL"	"NULL"	"NULL"	"<p style=\"color: black; font-size: 80px; padding-left: 39%; padding-right: 23%; padding-top: 42%; padding-bottom: 15%\">+</p>"	"1126"	n/a	n/a	n/a	n/a	n/a	n/a	n/a	n/a	n/a
n/a	"image-keyboard-response"	"195"	"678952"	"0.0-6.0-2.0-1.5"	"yz2wpe"	"600"	"1366"	"chrome"	"108.0.0"	"FALSE"	"Windows 10"	"60.53"	"148"	n/a	n/a	n/a	n/a	n/a	n/a	"Trial"	n/a	n/a	n/a	"484"	"arrowright"	n/a	"NULL"	"NULL"	"NULL"	"stimuli/Ebbinghaus_-0.1000_-0.2800.png"	n/a	"Ebbinghaus"	"arrowright"	"1143"	"TRUE"	"Ebbinghaus"	"-0.100000000"	"-0.280000000"	"2"	"6"
n/a	"html-keyboard-response"	"196"	"680092"	"0.0-6.0-2.0-0.6"	"yz2wpe"	"600"	"1366"	"chrome"	"108.0.0"	"FALSE"	"Windows 10"	"60.53"	"148"	n/a	n/a	n/a	n/a	n/a	n/a	"fixation"	n/a	n/a	n/a	n/a	"NULL"	n/a	"NULL"	"NULL"	"NULL"	"<p style=\"color: black; font-size: 80px; padding-left: 37%; padding-right: 40%; padding-top: 13%; padding-bottom: 49%\">+</p>"	"1126"	n/a	n/a	n/a	n/a	n/a	n/a	n/a	n/a	n/a
n/a	"image-keyboard-response"	"197"	"680783"	"0.0-6.0-2.0-1.6"	"yz2wpe"	"600"	"1366"	"chrome"	"108.0.0"	"FALSE"	"Windows 10"	"60.53"	"148"	n/a	n/a	n/a	n/a	n/a	n/a	"Trial"	n/a	n/a	n/a	"690"	"arrowleft"	n/a	"NULL"	"NULL"	"NULL"	"stimuli/Ebbinghaus_-0.1000_0.21500.png"	n/a	"Ebbinghaus"	"arrowleft"	"1140"	"TRUE"	"Ebbinghaus"	"-0.100000000"	"0.2150000000"	"2"	"7"
n/a	"html-keyboard-response"	"198"	"682144"	"0.0-6.0-2.0-0.7"	"yz2wpe"	"600"	"1366"	"chrome"	"108.0.0"	"FALSE"	"Windows 10"	"60.53"	"148"	n/a	n/a	n/a	n/a	n/a	n/a	"fixation"	n/a	n/a	n/a	n/a	"NULL"	n/a	"NULL"	"NULL"	"NULL"	"<p style=\"color: black; font-size: 80px; padding-left: 25%; padding-right: 32%; padding-top: 49%; padding-bottom: 31%\">+</p>"	"1349"	n/a	n/a	n/a	n/a	n/a	n/a	n/a	n/a	n/a
n/a	"image-keyboard-response"	"199"	"682578"	"0.0-6.0-2.0-1.7"	"yz2wpe"	"600"	"1366"	"chrome"	"108.0.0"	"FALSE"	"Windows 10"	"60.53"	"148"	n/a	n/a	n/a	n/a	n/a	n/a	"Trial"	n/a	n/a	n/a	"432"	"arrowright"	n/a	"NULL"	"NULL"	"NULL"	"stimuli/Ebbinghaus_0.10000_-0.2150.png"	n/a	"Ebbinghaus"	"arrowright"	"1361"	"TRUE"	"Ebbinghaus"	"0.1000000000"	"-0.215000000"	"2"	"8"
n/a	"html-keyboard-response"	"200"	"683591"	"0.0-6.0-2.0-0.8"	"yz2wpe"	"600"	"1366"	"chrome"	"108.0.0"	"FALSE"	"Windows 10"	"60.53"	"148"	n/a	n/a	n/a	n/a	n/a	n/a	"fixation"	n/a	n/a	n/a	n/a	"NULL"	n/a	"NULL"	"NULL"	"NULL"	"<p style=\"color: black; font-size: 80px; padding-left: 29%; padding-right: 19%; padding-top: 42%; padding-bottom: 47%\">+</p>"	"1004"	n/a	n/a	n/a	n/a	n/a	n/a	n/a	n/a	n/a
n/a	"image-keyboard-response"	"201"	"684316"	"0.0-6.0-2.0-1.8"	"yz2wpe"	"600"	"1366"	"chrome"	"108.0.0"	"FALSE"	"Windows 10"	"60.53"	"148"	n/a	n/a	n/a	n/a	n/a	n/a	"Trial"	n/a	n/a	n/a	"723"	"arrowleft"	n/a	"NULL"	"NULL"	"NULL"	"stimuli/Ebbinghaus_0.35714_0.11071.png"	n/a	"Ebbinghaus"	"arrowleft"	"1013"	"TRUE"	"Ebbinghaus"	"0.3571400000"	"0.1107100000"	"2"	"9"
n/a	"html-keyboard-response"	"202"	"685386"	"0.0-6.0-2.0-0.9"	"yz2wpe"	"600"	"1366"	"chrome"	"108.0.0"	"FALSE"	"Windows 10"	"60.53"	"148"	n/a	n/a	n/a	n/a	n/a	n/a	"fixation"	n/a	n/a	n/a	n/a	"NULL"	n/a	"NULL"	"NULL"	"NULL"	"<p style=\"color: black; font-size: 80px; padding-left: 15%; padding-right: 8%; padding-top: 12%; padding-bottom: 42%\">+</p>"	"1050"	n/a	n/a	n/a	n/a	n/a	n/a	n/a	n/a	n/a
n/a	"image-keyboard-response"	"203"	"685959"	"0.0-6.0-2.0-1.9"	"yz2wpe"	"600"	"1366"	"chrome"	"108.0.0"	"FALSE"	"Windows 10"	"60.53"	"148"	n/a	n/a	n/a	n/a	n/a	n/a	"Trial"	n/a	n/a	n/a	"571"	"arrowright"	n/a	"NULL"	"NULL"	"NULL"	"stimuli/Ebbinghaus_0.87143_-0.15857.png"	n/a	"Ebbinghaus"	"arrowright"	"1070"	"TRUE"	"Ebbinghaus"	"0.8714300000"	"-0.158570000"	"2"	"10"
n/a	"html-keyboard-response"	"204"	"687066"	"0.0-6.0-2.0-0.10"	"yz2wpe"	"600"	"1366"	"chrome"	"108.0.0"	"FALSE"	"Windows 10"	"60.53"	"148"	n/a	n/a	n/a	n/a	n/a	n/a	"fixation"	n/a	n/a	n/a	n/a	"NULL"	n/a	"NULL"	"NULL"	"NULL"	"<p style=\"color: black; font-size: 80px; padding-left: 32%; padding-right: 28%; padding-top: 28%; padding-bottom: 47%\">+</p>"	"1091"	n/a	n/a	n/a	n/a	n/a	n/a	n/a	n/a	n/a
n/a	"image-keyboard-response"	"205"	"687516"	"0.0-6.0-2.0-1.10"	"yz2wpe"	"600"	"1366"	"chrome"	"108.0.0"	"FALSE"	"Windows 10"	"60.53"	"148"	n/a	n/a	n/a	n/a	n/a	n/a	"Trial"	n/a	n/a	n/a	"449"	"arrowright"	n/a	"NULL"	"NULL"	"NULL"	"stimuli/Ebbinghaus_0.61429_-0.15857.png"	n/a	"Ebbinghaus"	"arrowright"	"1107"	"TRUE"	"Ebbinghaus"	"0.6142900000"	"-0.158570000"	"2"	"11"
n/a	"html-keyboard-response"	"206"	"688911"	"0.0-6.0-2.0-0.11"	"yz2wpe"	"600"	"1366"	"chrome"	"108.0.0"	"FALSE"	"Windows 10"	"60.53"	"148"	n/a	n/a	n/a	n/a	n/a	n/a	"fixation"	n/a	n/a	n/a	n/a	"NULL"	n/a	"NULL"	"NULL"	"NULL"	"<p style=\"color: black; font-size: 80px; padding-left: 46%; padding-right: 15%; padding-top: 14%; padding-bottom: 26%\">+</p>"	"1389"	n/a	n/a	n/a	n/a	n/a	n/a	n/a	n/a	n/a
n/a	"image-keyboard-response"	"207"	"689464"	"0.0-6.0-2.0-1.11"	"yz2wpe"	"600"	"1366"	"chrome"	"108.0.0"	"FALSE"	"Windows 10"	"60.53"	"148"	n/a	n/a	n/a	n/a	n/a	n/a	"Trial"	n/a	n/a	n/a	"551"	"arrowright"	n/a	"NULL"	"NULL"	"NULL"	"stimuli/Ebbinghaus_0.35714_-0.15857.png"	n/a	"Ebbinghaus"	"arrowright"	"1395"	"TRUE"	"Ebbinghaus"	"0.3571400000"	"-0.158570000"	"2"	"12"
n/a	"html-keyboard-response"	"208"	"690489"	"0.0-6.0-2.0-0.12"	"yz2wpe"	"600"	"1366"	"chrome"	"108.0.0"	"FALSE"	"Windows 10"	"60.53"	"148"	n/a	n/a	n/a	n/a	n/a	n/a	"fixation"	n/a	n/a	n/a	n/a	"NULL"	n/a	"NULL"	"NULL"	"NULL"	"<p style=\"color: black; font-size: 80px; padding-left: 36%; padding-right: 13%; padding-top: 9%; padding-bottom: 7%\">+</p>"	"1008"	n/a	n/a	n/a	n/a	n/a	n/a	n/a	n/a	n/a
n/a	"image-keyboard-response"	"209"	"691249"	"0.0-6.0-2.0-1.12"	"yz2wpe"	"600"	"1366"	"chrome"	"108.0.0"	"FALSE"	"Windows 10"	"60.53"	"148"	n/a	n/a	n/a	n/a	n/a	n/a	"Trial"	n/a	n/a	n/a	"758"	"arrowleft"	n/a	"NULL"	"NULL"	"NULL"	"stimuli/Ebbinghaus_-0.87143_0.11071.png"	n/a	"Ebbinghaus"	"arrowleft"	"1025"	"TRUE"	"Ebbinghaus"	"-0.871430000"	"0.1107100000"	"2"	"13"
n/a	"html-keyboard-response"	"210"	"692399"	"0.0-6.0-2.0-0.13"	"yz2wpe"	"600"	"1366"	"chrome"	"108.0.0"	"FALSE"	"Windows 10"	"60.53"	"148"	n/a	n/a	n/a	n/a	n/a	n/a	"fixation"	n/a	n/a	n/a	n/a	"NULL"	n/a	"NULL"	"NULL"	"NULL"	"<p style=\"color: black; font-size: 80px; padding-left: 31%; padding-right: 47%; padding-top: 9%; padding-bottom: 11%\">+</p>"	"1139"	n/a	n/a	n/a	n/a	n/a	n/a	n/a	n/a	n/a
n/a	"image-keyboard-response"	"211"	"692941"	"0.0-6.0-2.0-1.13"	"yz2wpe"	"600"	"1366"	"chrome"	"108.0.0"	"FALSE"	"Windows 10"	"60.53"	"148"	n/a	n/a	n/a	n/a	n/a	n/a	"Trial"	n/a	n/a	n/a	"540"	"arrowright"	n/a	"NULL"	"NULL"	"NULL"	"stimuli/Ebbinghaus_0.61429_-0.2800.png"	n/a	"Ebbinghaus"	"arrowright"	"1150"	"TRUE"	"Ebbinghaus"	"0.6142900000"	"-0.280000000"	"2"	"14"
n/a	"html-keyboard-response"	"212"	"694136"	"0.0-6.0-2.0-0.14"	"yz2wpe"	"600"	"1366"	"chrome"	"108.0.0"	"FALSE"	"Windows 10"	"60.53"	"148"	n/a	n/a	n/a	n/a	n/a	n/a	"fixation"	n/a	n/a	n/a	n/a	"NULL"	n/a	"NULL"	"NULL"	"NULL"	"<p style=\"color: black; font-size: 80px; padding-left: 33%; padding-right: 38%; padding-top: 31%; padding-bottom: 44%\">+</p>"	"1182"	n/a	n/a	n/a	n/a	n/a	n/a	n/a	n/a	n/a
n/a	"image-keyboard-response"	"213"	"694680"	"0.0-6.0-2.0-1.14"	"yz2wpe"	"600"	"1366"	"chrome"	"108.0.0"	"FALSE"	"Windows 10"	"60.53"	"148"	n/a	n/a	n/a	n/a	n/a	n/a	"Trial"	n/a	n/a	n/a	"542"	"arrowright"	n/a	"NULL"	"NULL"	"NULL"	"stimuli/Ebbinghaus_-0.87143_-0.2800.png"	n/a	"Ebbinghaus"	"arrowright"	"1195"	"TRUE"	"Ebbinghaus"	"-0.871430000"	"-0.280000000"	"2"	"15"
n/a	"html-keyboard-response"	"214"	"695695"	"0.0-6.0-2.0-0.15"	"yz2wpe"	"600"	"1366"	"chrome"	"108.0.0"	"FALSE"	"Windows 10"	"60.53"	"148"	n/a	n/a	n/a	n/a	n/a	n/a	"fixation"	n/a	n/a	n/a	n/a	"NULL"	n/a	"NULL"	"NULL"	"NULL"	"<p style=\"color: black; font-size: 80px; padding-left: 26%; padding-right: 27%; padding-top: 29%; padding-bottom: 5%\">+</p>"	"1009"	n/a	n/a	n/a	n/a	n/a	n/a	n/a	n/a	n/a
n/a	"image-keyboard-response"	"215"	"696240"	"0.0-6.0-2.0-1.15"	"yz2wpe"	"600"	"1366"	"chrome"	"108.0.0"	"FALSE"	"Windows 10"	"60.53"	"148"	n/a	n/a	n/a	n/a	n/a	n/a	"Trial"	n/a	n/a	n/a	"544"	"arrowleft"	n/a	"NULL"	"NULL"	"NULL"	"stimuli/Ebbinghaus_-0.61429_0.21500.png"	n/a	"Ebbinghaus"	"arrowleft"	"1015"	"TRUE"	"Ebbinghaus"	"-0.614290000"	"0.2150000000"	"2"	"16"
n/a	"html-keyboard-response"	"216"	"697573"	"0.0-6.0-2.0-0.16"	"yz2wpe"	"600"	"1366"	"chrome"	"108.0.0"	"FALSE"	"Windows 10"	"60.53"	"148"	n/a	n/a	n/a	n/a	n/a	n/a	"fixation"	n/a	n/a	n/a	n/a	"NULL"	n/a	"NULL"	"NULL"	"NULL"	"<p style=\"color: black; font-size: 80px; padding-left: 14%; padding-right: 43%; padding-top: 16%; padding-bottom: 43%\">+</p>"	"1321"	n/a	n/a	n/a	n/a	n/a	n/a	n/a	n/a	n/a
n/a	"image-keyboard-response"	"217"	"698344"	"0.0-6.0-2.0-1.16"	"yz2wpe"	"600"	"1366"	"chrome"	"108.0.0"	"FALSE"	"Windows 10"	"60.53"	"148"	n/a	n/a	n/a	n/a	n/a	n/a	"Trial"	n/a	n/a	n/a	"769"	"arrowleft"	n/a	"NULL"	"NULL"	"NULL"	"stimuli/Ebbinghaus_0.61429_0.21500.png"	n/a	"Ebbinghaus"	"arrowleft"	"1333"	"TRUE"	"Ebbinghaus"	"0.6142900000"	"0.2150000000"	"2"	"17"
n/a	"html-keyboard-response"	"218"	"699622"	"0.0-6.0-2.0-0.17"	"yz2wpe"	"600"	"1366"	"chrome"	"108.0.0"	"FALSE"	"Windows 10"	"60.53"	"148"	n/a	n/a	n/a	n/a	n/a	n/a	"fixation"	n/a	n/a	n/a	n/a	"NULL"	n/a	"NULL"	"NULL"	"NULL"	"<p style=\"color: black; font-size: 80px; padding-left: 48%; padding-right: 16%; padding-top: 29%; padding-bottom: 46%\">+</p>"	"1262"	n/a	n/a	n/a	n/a	n/a	n/a	n/a	n/a	n/a
n/a	"image-keyboard-response"	"219"	"700363"	"0.0-6.0-2.0-1.17"	"yz2wpe"	"600"	"1366"	"chrome"	"108.0.0"	"FALSE"	"Windows 10"	"60.53"	"148"	n/a	n/a	n/a	n/a	n/a	n/a	"Trial"	n/a	n/a	n/a	"740"	"arrowright"	n/a	"NULL"	"NULL"	"NULL"	"stimuli/Ebbinghaus_0.87143_0.15857.png"	n/a	"Ebbinghaus"	"arrowleft"	"1278"	"FALSE"	"Ebbinghaus"	"0.8714300000"	"0.1585700000"	"2"	"18"
n/a	"html-keyboard-response"	"220"	"701734"	"0.0-6.0-2.0-0.18"	"yz2wpe"	"600"	"1366"	"chrome"	"108.0.0"	"FALSE"	"Windows 10"	"60.53"	"148"	n/a	n/a	n/a	n/a	n/a	n/a	"fixation"	n/a	n/a	n/a	n/a	"NULL"	n/a	"NULL"	"NULL"	"NULL"	"<p style=\"color: black; font-size: 80px; padding-left: 32%; padding-right: 29%; padding-top: 35%; padding-bottom: 9%\">+</p>"	"1359"	n/a	n/a	n/a	n/a	n/a	n/a	n/a	n/a	n/a
n/a	"image-keyboard-response"	"221"	"702510"	"0.0-6.0-2.0-1.18"	"yz2wpe"	"600"	"1366"	"chrome"	"108.0.0"	"FALSE"	"Windows 10"	"60.53"	"148"	n/a	n/a	n/a	n/a	n/a	n/a	"Trial"	n/a	n/a	n/a	"774"	"arrowright"	n/a	"NULL"	"NULL"	"NULL"	"stimuli/Ebbinghaus_0.10000_-0.11071.png"	n/a	"Ebbinghaus"	"arrowright"	"1371"	"TRUE"	"Ebbinghaus"	"0.1000000000"	"-0.110710000"	"2"	"19"
n/a	"html-keyboard-response"	"222"	"703701"	"0.0-6.0-2.0-0.19"	"yz2wpe"	"600"	"1366"	"chrome"	"108.0.0"	"FALSE"	"Windows 10"	"60.53"	"148"	n/a	n/a	n/a	n/a	n/a	n/a	"fixation"	n/a	n/a	n/a	n/a	"NULL"	n/a	"NULL"	"NULL"	"NULL"	"<p style=\"color: black; font-size: 80px; padding-left: 34%; padding-right: 47%; padding-top: 3%; padding-bottom: 7%\">+</p>"	"1179"	n/a	n/a	n/a	n/a	n/a	n/a	n/a	n/a	n/a
n/a	"image-keyboard-response"	"223"	"704194"	"0.0-6.0-2.0-1.19"	"yz2wpe"	"600"	"1366"	"chrome"	"108.0.0"	"FALSE"	"Windows 10"	"60.53"	"148"	n/a	n/a	n/a	n/a	n/a	n/a	"Trial"	n/a	n/a	n/a	"490"	"arrowleft"	n/a	"NULL"	"NULL"	"NULL"	"stimuli/Ebbinghaus_0.35714_0.21500.png"	n/a	"Ebbinghaus"	"arrowleft"	"1191"	"TRUE"	"Ebbinghaus"	"0.3571400000"	"0.2150000000"	"2"	"20"
n/a	"html-keyboard-response"	"224"	"705533"	"0.0-6.0-2.0-0.20"	"yz2wpe"	"600"	"1366"	"chrome"	"108.0.0"	"FALSE"	"Windows 10"	"60.53"	"148"	n/a	n/a	n/a	n/a	n/a	n/a	"fixation"	n/a	n/a	n/a	n/a	"NULL"	n/a	"NULL"	"NULL"	"NULL"	"<p style=\"color: black; font-size: 80px; padding-left: 9%; padding-right: 21%; padding-top: 47%; padding-bottom: 19%\">+</p>"	"1335"	n/a	n/a	n/a	n/a	n/a	n/a	n/a	n/a	n/a
n/a	"image-keyboard-response"	"225"	"706025"	"0.0-6.0-2.0-1.20"	"yz2wpe"	"600"	"1366"	"chrome"	"108.0.0"	"FALSE"	"Windows 10"	"60.53"	"148"	n/a	n/a	n/a	n/a	n/a	n/a	"Trial"	n/a	n/a	n/a	"490"	"arrowleft"	n/a	"NULL"	"NULL"	"NULL"	"stimuli/Ebbinghaus_0.87143_0.28000.png"	n/a	"Ebbinghaus"	"arrowleft"	"1339"	"TRUE"	"Ebbinghaus"	"0.8714300000"	"0.2800000000"	"2"	"21"
n/a	"html-keyboard-response"	"226"	"707267"	"0.0-6.0-2.0-0.21"	"yz2wpe"	"600"	"1366"	"chrome"	"108.0.0"	"FALSE"	"Windows 10"	"60.53"	"148"	n/a	n/a	n/a	n/a	n/a	n/a	"fixation"	n/a	n/a	n/a	n/a	"NULL"	n/a	"NULL"	"NULL"	"NULL"	"<p style=\"color: black; font-size: 80px; padding-left: 20%; padding-right: 48%; padding-top: 14%; padding-bottom: 6%\">+</p>"	"1234"	n/a	n/a	n/a	n/a	n/a	n/a	n/a	n/a	n/a
n/a	"image-keyboard-response"	"227"	"707975"	"0.0-6.0-2.0-1.21"	"yz2wpe"	"600"	"1366"	"chrome"	"108.0.0"	"FALSE"	"Windows 10"	"60.53"	"148"	n/a	n/a	n/a	n/a	n/a	n/a	"Trial"	n/a	n/a	n/a	"707"	"arrowleft"	n/a	"NULL"	"NULL"	"NULL"	"stimuli/Ebbinghaus_0.10000_-0.15857.png"	n/a	"Ebbinghaus"	"arrowright"	"1242"	"FALSE"	"Ebbinghaus"	"0.1000000000"	"-0.158570000"	"2"	"22"
n/a	"html-keyboard-response"	"228"	"709239"	"0.0-6.0-2.0-0.22"	"yz2wpe"	"600"	"1366"	"chrome"	"108.0.0"	"FALSE"	"Windows 10"	"60.53"	"148"	n/a	n/a	n/a	n/a	n/a	n/a	"fixation"	n/a	n/a	n/a	n/a	"NULL"	n/a	"NULL"	"NULL"	"NULL"	"<p style=\"color: black; font-size: 80px; padding-left: 38%; padding-right: 12%; padding-top: 43%; padding-bottom: 46%\">+</p>"	"1246"	n/a	n/a	n/a	n/a	n/a	n/a	n/a	n/a	n/a
n/a	"image-keyboard-response"	"229"	"709784"	"0.0-6.0-2.0-1.22"	"yz2wpe"	"600"	"1366"	"chrome"	"108.0.0"	"FALSE"	"Windows 10"	"60.53"	"148"	n/a	n/a	n/a	n/a	n/a	n/a	"Trial"	n/a	n/a	n/a	"544"	"arrowright"	n/a	"NULL"	"NULL"	"NULL"	"stimuli/Ebbinghaus_0.10000_-0.2800.png"	n/a	"Ebbinghaus"	"arrowright"	"1264"	"TRUE"	"Ebbinghaus"	"0.1000000000"	"-0.280000000"	"2"	"23"
n/a	"html-keyboard-response"	"230"	"710991"	"0.0-6.0-2.0-0.23"	"yz2wpe"	"600"	"1366"	"chrome"	"108.0.0"	"FALSE"	"Windows 10"	"60.53"	"148"	n/a	n/a	n/a	n/a	n/a	n/a	"fixation"	n/a	n/a	n/a	n/a	"NULL"	n/a	"NULL"	"NULL"	"NULL"	"<p style=\"color: black; font-size: 80px; padding-left: 49%; padding-right: 4%; padding-top: 49%; padding-bottom: 37%\">+</p>"	"1200"	n/a	n/a	n/a	n/a	n/a	n/a	n/a	n/a	n/a
n/a	"image-keyboard-response"	"231"	"711510"	"0.0-6.0-2.0-1.23"	"yz2wpe"	"600"	"1366"	"chrome"	"108.0.0"	"FALSE"	"Windows 10"	"60.53"	"148"	n/a	n/a	n/a	n/a	n/a	n/a	"Trial"	n/a	n/a	n/a	"517"	"arrowleft"	n/a	"NULL"	"NULL"	"NULL"	"stimuli/Ebbinghaus_0.61429_0.28000.png"	n/a	"Ebbinghaus"	"arrowleft"	"1207"	"TRUE"	"Ebbinghaus"	"0.6142900000"	"0.2800000000"	"2"	"24"
n/a	"html-keyboard-response"	"232"	"712863"	"0.0-6.0-2.0-0.24"	"yz2wpe"	"600"	"1366"	"chrome"	"108.0.0"	"FALSE"	"Windows 10"	"60.53"	"148"	n/a	n/a	n/a	n/a	n/a	n/a	"fixation"	n/a	n/a	n/a	n/a	"NULL"	n/a	"NULL"	"NULL"	"NULL"	"<p style=\"color: black; font-size: 80px; padding-left: 39%; padding-right: 23%; padding-top: 49%; padding-bottom: 3%\">+</p>"	"1333"	n/a	n/a	n/a	n/a	n/a	n/a	n/a	n/a	n/a
n/a	"image-keyboard-response"	"233"	"713445"	"0.0-6.0-2.0-1.24"	"yz2wpe"	"600"	"1366"	"chrome"	"108.0.0"	"FALSE"	"Windows 10"	"60.53"	"148"	n/a	n/a	n/a	n/a	n/a	n/a	"Trial"	n/a	n/a	n/a	"580"	"arrowright"	n/a	"NULL"	"NULL"	"NULL"	"stimuli/Ebbinghaus_0.35714_-0.2800.png"	n/a	"Ebbinghaus"	"arrowright"	"1353"	"TRUE"	"Ebbinghaus"	"0.3571400000"	"-0.280000000"	"2"	"25"
n/a	"html-keyboard-response"	"234"	"714820"	"0.0-6.0-2.0-0.25"	"yz2wpe"	"600"	"1366"	"chrome"	"108.0.0"	"FALSE"	"Windows 10"	"60.53"	"148"	n/a	n/a	n/a	n/a	n/a	n/a	"fixation"	n/a	n/a	n/a	n/a	"NULL"	n/a	"NULL"	"NULL"	"NULL"	"<p style=\"color: black; font-size: 80px; padding-left: 4%; padding-right: 29%; padding-top: 14%; padding-bottom: 1%\">+</p>"	"1363"	n/a	n/a	n/a	n/a	n/a	n/a	n/a	n/a	n/a
n/a	"image-keyboard-response"	"235"	"715302"	"0.0-6.0-2.0-1.25"	"yz2wpe"	"600"	"1366"	"chrome"	"108.0.0"	"FALSE"	"Windows 10"	"60.53"	"148"	n/a	n/a	n/a	n/a	n/a	n/a	"Trial"	n/a	n/a	n/a	"481"	"arrowleft"	n/a	"NULL"	"NULL"	"NULL"	"stimuli/Ebbinghaus_0.61429_0.15857.png"	n/a	"Ebbinghaus"	"arrowleft"	"1375"	"TRUE"	"Ebbinghaus"	"0.6142900000"	"0.1585700000"	"2"	"26"
n/a	"html-keyboard-response"	"236"	"716492"	"0.0-6.0-2.0-0.26"	"yz2wpe"	"600"	"1366"	"chrome"	"108.0.0"	"FALSE"	"Windows 10"	"60.53"	"148"	n/a	n/a	n/a	n/a	n/a	n/a	"fixation"	n/a	n/a	n/a	n/a	"NULL"	n/a	"NULL"	"NULL"	"NULL"	"<p style=\"color: black; font-size: 80px; padding-left: 44%; padding-right: 18%; padding-top: 18%; padding-bottom: 9%\">+</p>"	"1184"	n/a	n/a	n/a	n/a	n/a	n/a	n/a	n/a	n/a
n/a	"image-keyboard-response"	"237"	"717071"	"0.0-6.0-2.0-1.26"	"yz2wpe"	"600"	"1366"	"chrome"	"108.0.0"	"FALSE"	"Windows 10"	"60.53"	"148"	n/a	n/a	n/a	n/a	n/a	n/a	"Trial"	n/a	n/a	n/a	"577"	"arrowright"	n/a	"NULL"	"NULL"	"NULL"	"stimuli/Ebbinghaus_-0.61429_-0.11071.png"	n/a	"Ebbinghaus"	"arrowright"	"1190"	"TRUE"	"Ebbinghaus"	"-0.614290000"	"-0.110710000"	"2"	"27"
n/a	"html-keyboard-response"	"238"	"718555"	"0.0-6.0-2.0-0.27"	"yz2wpe"	"600"	"1366"	"chrome"	"108.0.0"	"FALSE"	"Windows 10"	"60.53"	"148"	n/a	n/a	n/a	n/a	n/a	n/a	"fixation"	n/a	n/a	n/a	n/a	"NULL"	n/a	"NULL"	"NULL"	"NULL"	"<p style=\"color: black; font-size: 80px; padding-left: 48%; padding-right: 11%; padding-top: 39%; padding-bottom: 24%\">+</p>"	"1477"	n/a	n/a	n/a	n/a	n/a	n/a	n/a	n/a	n/a
n/a	"image-keyboard-response"	"239"	"719048"	"0.0-6.0-2.0-1.27"	"yz2wpe"	"600"	"1366"	"chrome"	"108.0.0"	"FALSE"	"Windows 10"	"60.53"	"148"	n/a	n/a	n/a	n/a	n/a	n/a	"Trial"	n/a	n/a	n/a	"491"	"arrowright"	n/a	"NULL"	"NULL"	"NULL"	"stimuli/Ebbinghaus_0.87143_-0.2150.png"	n/a	"Ebbinghaus"	"arrowright"	"1484"	"TRUE"	"Ebbinghaus"	"0.8714300000"	"-0.215000000"	"2"	"28"
n/a	"html-keyboard-response"	"240"	"720127"	"0.0-6.0-2.0-0.28"	"yz2wpe"	"600"	"1366"	"chrome"	"108.0.0"	"FALSE"	"Windows 10"	"60.53"	"148"	n/a	n/a	n/a	n/a	n/a	n/a	"fixation"	n/a	n/a	n/a	n/a	"NULL"	n/a	"NULL"	"NULL"	"NULL"	"<p style=\"color: black; font-size: 80px; padding-left: 3%; padding-right: 27%; padding-top: 48%; padding-bottom: 31%\">+</p>"	"1062"	n/a	n/a	n/a	n/a	n/a	n/a	n/a	n/a	n/a
n/a	"image-keyboard-response"	"241"	"720634"	"0.0-6.0-2.0-1.28"	"yz2wpe"	"600"	"1366"	"chrome"	"108.0.0"	"FALSE"	"Windows 10"	"60.53"	"148"	n/a	n/a	n/a	n/a	n/a	n/a	"Trial"	n/a	n/a	n/a	"506"	"arrowright"	n/a	"NULL"	"NULL"	"NULL"	"stimuli/Ebbinghaus_-0.35714_-0.2150.png"	n/a	"Ebbinghaus"	"arrowright"	"1079"	"TRUE"	"Ebbinghaus"	"-0.357140000"	"-0.215000000"	"2"	"29"
n/a	"html-keyboard-response"	"242"	"722124"	"0.0-6.0-2.0-0.29"	"yz2wpe"	"600"	"1366"	"chrome"	"108.0.0"	"FALSE"	"Windows 10"	"60.53"	"148"	n/a	n/a	n/a	n/a	n/a	n/a	"fixation"	n/a	n/a	n/a	n/a	"NULL"	n/a	"NULL"	"NULL"	"NULL"	"<p style=\"color: black; font-size: 80px; padding-left: 31%; padding-right: 15%; padding-top: 41%; padding-bottom: 1%\">+</p>"	"1472"	n/a	n/a	n/a	n/a	n/a	n/a	n/a	n/a	n/a
n/a	"image-keyboard-response"	"243"	"722983"	"0.0-6.0-2.0-1.29"	"yz2wpe"	"600"	"1366"	"chrome"	"108.0.0"	"FALSE"	"Windows 10"	"60.53"	"148"	n/a	n/a	n/a	n/a	n/a	n/a	"Trial"	n/a	n/a	n/a	"857"	"arrowleft"	n/a	"NULL"	"NULL"	"NULL"	"stimuli/Ebbinghaus_0.10000_0.21500.png"	n/a	"Ebbinghaus"	"arrowleft"	"1490"	"TRUE"	"Ebbinghaus"	"0.1000000000"	"0.2150000000"	"2"	"30"
n/a	"html-keyboard-response"	"244"	"724242"	"0.0-6.0-2.0-0.30"	"yz2wpe"	"600"	"1366"	"chrome"	"108.0.0"	"FALSE"	"Windows 10"	"60.53"	"148"	n/a	n/a	n/a	n/a	n/a	n/a	"fixation"	n/a	n/a	n/a	n/a	"NULL"	n/a	"NULL"	"NULL"	"NULL"	"<p style=\"color: black; font-size: 80px; padding-left: 21%; padding-right: 9%; padding-top: 21%; padding-bottom: 17%\">+</p>"	"1240"	n/a	n/a	n/a	n/a	n/a	n/a	n/a	n/a	n/a
n/a	"image-keyboard-response"	"245"	"724880"	"0.0-6.0-2.0-1.30"	"yz2wpe"	"600"	"1366"	"chrome"	"108.0.0"	"FALSE"	"Windows 10"	"60.53"	"148"	n/a	n/a	n/a	n/a	n/a	n/a	"Trial"	n/a	n/a	n/a	"637"	"arrowleft"	n/a	"NULL"	"NULL"	"NULL"	"stimuli/Ebbinghaus_-0.35714_0.21500.png"	n/a	"Ebbinghaus"	"arrowleft"	"1259"	"TRUE"	"Ebbinghaus"	"-0.357140000"	"0.2150000000"	"2"	"31"
n/a	"html-keyboard-response"	"246"	"726348"	"0.0-6.0-2.0-0.31"	"yz2wpe"	"600"	"1366"	"chrome"	"108.0.0"	"FALSE"	"Windows 10"	"60.53"	"148"	n/a	n/a	n/a	n/a	n/a	n/a	"fixation"	n/a	n/a	n/a	n/a	"NULL"	n/a	"NULL"	"NULL"	"NULL"	"<p style=\"color: black; font-size: 80px; padding-left: 18%; padding-right: 20%; padding-top: 16%; padding-bottom: 12%\">+</p>"	"1463"	n/a	n/a	n/a	n/a	n/a	n/a	n/a	n/a	n/a
n/a	"image-keyboard-response"	"247"	"726926"	"0.0-6.0-2.0-1.31"	"yz2wpe"	"600"	"1366"	"chrome"	"108.0.0"	"FALSE"	"Windows 10"	"60.53"	"148"	n/a	n/a	n/a	n/a	n/a	n/a	"Trial"	n/a	n/a	n/a	"576"	"arrowright"	n/a	"NULL"	"NULL"	"NULL"	"stimuli/Ebbinghaus_-0.87143_-0.11071.png"	n/a	"Ebbinghaus"	"arrowright"	"1468"	"TRUE"	"Ebbinghaus"	"-0.871430000"	"-0.110710000"	"2"	"32"
n/a	"html-keyboard-response"	"248"	"728365"	"0.0-6.0-2.0-0.32"	"yz2wpe"	"600"	"1366"	"chrome"	"108.0.0"	"FALSE"	"Windows 10"	"60.53"	"148"	n/a	n/a	n/a	n/a	n/a	n/a	"fixation"	n/a	n/a	n/a	n/a	"NULL"	n/a	"NULL"	"NULL"	"NULL"	"<p style=\"color: black; font-size: 80px; padding-left: 1%; padding-right: 21%; padding-top: 29%; padding-bottom: 23%\">+</p>"	"1428"	n/a	n/a	n/a	n/a	n/a	n/a	n/a	n/a	n/a
n/a	"image-keyboard-response"	"249"	"728964"	"0.0-6.0-2.0-1.32"	"yz2wpe"	"600"	"1366"	"chrome"	"108.0.0"	"FALSE"	"Windows 10"	"60.53"	"148"	n/a	n/a	n/a	n/a	n/a	n/a	"Trial"	n/a	n/a	n/a	"597"	"arrowleft"	n/a	"NULL"	"NULL"	"NULL"	"stimuli/Ebbinghaus_-0.61429_0.11071.png"	n/a	"Ebbinghaus"	"arrowleft"	"1439"	"TRUE"	"Ebbinghaus"	"-0.614290000"	"0.1107100000"	"2"	"33"
n/a	"html-keyboard-response"	"250"	"730341"	"0.0-6.0-2.0-0.33"	"yz2wpe"	"600"	"1366"	"chrome"	"108.0.0"	"FALSE"	"Windows 10"	"60.53"	"148"	n/a	n/a	n/a	n/a	n/a	n/a	"fixation"	n/a	n/a	n/a	n/a	"NULL"	n/a	"NULL"	"NULL"	"NULL"	"<p style=\"color: black; font-size: 80px; padding-left: 47%; padding-right: 35%; padding-top: 26%; padding-bottom: 34%\">+</p>"	"1361"	n/a	n/a	n/a	n/a	n/a	n/a	n/a	n/a	n/a
n/a	"image-keyboard-response"	"251"	"730937"	"0.0-6.0-2.0-1.33"	"yz2wpe"	"600"	"1366"	"chrome"	"108.0.0"	"FALSE"	"Windows 10"	"60.53"	"148"	n/a	n/a	n/a	n/a	n/a	n/a	"Trial"	n/a	n/a	n/a	"595"	"arrowleft"	n/a	"NULL"	"NULL"	"NULL"	"stimuli/Ebbinghaus_0.10000_0.15857.png"	n/a	"Ebbinghaus"	"arrowleft"	"1377"	"TRUE"	"Ebbinghaus"	"0.1000000000"	"0.1585700000"	"2"	"34"
n/a	"html-keyboard-response"	"252"	"732172"	"0.0-6.0-2.0-0.34"	"yz2wpe"	"600"	"1366"	"chrome"	"108.0.0"	"FALSE"	"Windows 10"	"60.53"	"148"	n/a	n/a	n/a	n/a	n/a	n/a	"fixation"	n/a	n/a	n/a	n/a	"NULL"	n/a	"NULL"	"NULL"	"NULL"	"<p style=\"color: black; font-size: 80px; padding-left: 1%; padding-right: 45%; padding-top: 22%; padding-bottom: 15%\">+</p>"	"1227"	n/a	n/a	n/a	n/a	n/a	n/a	n/a	n/a	n/a
n/a	"image-keyboard-response"	"253"	"732603"	"0.0-6.0-2.0-1.34"	"yz2wpe"	"600"	"1366"	"chrome"	"108.0.0"	"FALSE"	"Windows 10"	"60.53"	"148"	n/a	n/a	n/a	n/a	n/a	n/a	"Trial"	n/a	n/a	n/a	"429"	"arrowleft"	n/a	"NULL"	"NULL"	"NULL"	"stimuli/Ebbinghaus_-0.87143_0.28000.png"	n/a	"Ebbinghaus"	"arrowleft"	"1235"	"TRUE"	"Ebbinghaus"	"-0.871430000"	"0.2800000000"	"2"	"35"
