"success"	"trial_type"	"trial_index"	"time_elapsed"	"internal_node_id"	"participant_id"	"screen_height"	"screen_width"	"browser"	"browser_version"	"mobile"	"os"	"vsync_rate"	"subject_id"	"width"	"height"	"webaudio"	"fullscreen"	"webcam"	"microphone"	"screen"	"version"	"date"	"time"	"rt"	"response"	"timeout"	"failed_images"	"failed_audio"	"failed_video"	"stimulus"	"trial_duration"	"block"	"correct_response"	"prestimulus_duration"	"correct"	"type"	"illusion_strength"	"illusion_difference"	"block_number"	"trial_number"
"TRUE"	"fullscreen"	"0"	"9603080"	"0.0-0.0"	"0nb11g"	"600"	"1366"	"chrome"	"110.0.0"	"FALSE"	"Windows 10"	"61.06"	"035"	n/a	n/a	n/a	n/a	n/a	n/a	n/a	n/a	n/a	n/a	n/a	"NULL"	n/a	"NULL"	"NULL"	"NULL"	n/a	n/a	n/a	n/a	n/a	n/a	n/a	n/a	n/a	n/a	n/a
n/a	"browser-check"	"1"	"9604076"	"0.0-1.0"	"0nb11g"	"600"	"1366"	"chrome"	"110.0.0"	"FALSE"	"Windows 10"	"61.06"	"035"	"1366"	"600"	"TRUE"	"TRUE"	"TRUE"	"TRUE"	"browser_info"	"1.0"	"04/03/2023"	"09:51:30"	n/a	"NULL"	n/a	"NULL"	"NULL"	"NULL"	n/a	n/a	n/a	n/a	n/a	n/a	n/a	n/a	n/a	n/a	n/a
n/a	"survey-text"	"2"	"9608684"	"0.0-2.0"	"0nb11g"	"600"	"1366"	"chrome"	"110.0.0"	"FALSE"	"Windows 10"	"61.06"	"035"	n/a	n/a	n/a	n/a	n/a	n/a	"subject_id"	n/a	n/a	n/a	"4603"	"list(subject_id = \"035\")"	n/a	"NULL"	"NULL"	"NULL"	n/a	n/a	n/a	n/a	n/a	n/a	n/a	n/a	n/a	n/a	n/a
"TRUE"	"preload"	"3"	"9608695"	"0.0-3.0"	"0nb11g"	"600"	"1366"	"chrome"	"110.0.0"	"FALSE"	"Windows 10"	"61.06"	"035"	n/a	n/a	n/a	n/a	n/a	n/a	n/a	n/a	n/a	n/a	n/a	"NULL"	"FALSE"	"list()"	"list()"	"list()"	n/a	n/a	n/a	n/a	n/a	n/a	n/a	n/a	n/a	n/a	n/a
n/a	"html-button-response"	"4"	"9658310"	"0.0-4.0-0.0"	"0nb11g"	"600"	"1366"	"chrome"	"110.0.0"	"FALSE"	"Windows 10"	"61.06"	"035"	n/a	n/a	n/a	n/a	n/a	n/a	"illusion_instructions"	n/a	n/a	n/a	"49614"	"0"	n/a	"NULL"	"NULL"	"NULL"	"<p><b>Illusion Game</b></p><p>In this game of speed and reflex, you will need to make <b>visual judgments</b> (for instance, which circle is the biggest, or which line is the longest), as fast and as correctly as possible, while <b>resisting different visual illusions</b>.</p><p>We are going to start with some examples of all the illusions you will encounter in the game.</p>"	n/a	n/a	n/a	n/a	n/a	n/a	n/a	n/a	n/a	n/a
"TRUE"	"preload"	"5"	"9658327"	"0.0-4.0-1.0-0.0"	"0nb11g"	"600"	"1366"	"chrome"	"110.0.0"	"FALSE"	"Windows 10"	"61.06"	"035"	n/a	n/a	n/a	n/a	n/a	n/a	n/a	n/a	n/a	n/a	n/a	"NULL"	"FALSE"	"list()"	"list()"	"list()"	n/a	n/a	n/a	n/a	n/a	n/a	n/a	n/a	n/a	n/a	n/a
n/a	"html-keyboard-response"	"6"	"9693713"	"0.0-4.0-1.0-1.0"	"0nb11g"	"600"	"1366"	"chrome"	"110.0.0"	"FALSE"	"Windows 10"	"61.06"	"035"	n/a	n/a	n/a	n/a	n/a	n/a	n/a	n/a	n/a	n/a	"35382"	"enter"	n/a	"NULL"	"NULL"	"NULL"	"<p><b>Practice</b></p><p>In this part, two red circles will appear side by side on the screen.</p><p>Your task is to select which <b>red circle is bigger</b> in size as fast as you can, without making errors.</p><p>Don't get distracted by the surrounding black circles around the red circles!</p><p>Press <b>the LEFT or the RIGHT arrow</b> to indicate which is the bigger <b>red circle.</b></p><div style='float: center'><img src='materials/instructions/Ebbinghaus_Demo.png' height='300'></img><p><img src='utils/answer/answer_leftright_keyboard.PNG' height='150'></img></p><p class='small'>In this example, the correct answer is the <b>LEFT arrow</b>.</p></div><p>Are you ready? <b>Press ENTER to start</b></p>"	n/a	n/a	n/a	n/a	n/a	n/a	n/a	n/a	n/a	n/a
n/a	"html-keyboard-response"	"7"	"9695485"	"0.0-4.0-1.0-2.0-0.0"	"0nb11g"	"600"	"1366"	"chrome"	"110.0.0"	"FALSE"	"Windows 10"	"61.06"	"035"	n/a	n/a	n/a	n/a	n/a	n/a	"fixation"	n/a	n/a	n/a	n/a	"NULL"	n/a	"NULL"	"NULL"	"NULL"	"<p style=\"color: black; font-size: 80px; padding-left: 25%; padding-right: 48%; padding-top: 45%; padding-bottom: 26%\">+</p>"	"1262"	n/a	n/a	n/a	n/a	n/a	n/a	n/a	n/a	n/a
n/a	"image-keyboard-response"	"8"	"9696334"	"0.0-4.0-1.0-2.0-1.0"	"0nb11g"	"600"	"1366"	"chrome"	"110.0.0"	"FALSE"	"Windows 10"	"61.06"	"035"	n/a	n/a	n/a	n/a	n/a	n/a	"Trial"	n/a	n/a	n/a	"840"	"arrowright"	n/a	"NULL"	"NULL"	"NULL"	"stimuli/Ebbinghaus_0000000_-1.4000.png"	n/a	"Ebbinghaus"	"arrowright"	"1772"	"TRUE"	"Ebbinghaus"	"000000000000"	"-1.400000000"	"1"	"1"
n/a	"html-keyboard-response"	"9"	"9697705"	"0.0-4.0-1.0-2.0-0.1"	"0nb11g"	"600"	"1366"	"chrome"	"110.0.0"	"FALSE"	"Windows 10"	"61.06"	"035"	n/a	n/a	n/a	n/a	n/a	n/a	"fixation"	n/a	n/a	n/a	n/a	"NULL"	n/a	"NULL"	"NULL"	"NULL"	"<p style=\"color: black; font-size: 80px; padding-left: 49%; padding-right: 36%; padding-top: 10%; padding-bottom: 1%\">+</p>"	"1367"	n/a	n/a	n/a	n/a	n/a	n/a	n/a	n/a	n/a
n/a	"image-keyboard-response"	"10"	"9698277"	"0.0-4.0-1.0-2.0-1.1"	"0nb11g"	"600"	"1366"	"chrome"	"110.0.0"	"FALSE"	"Windows 10"	"61.06"	"035"	n/a	n/a	n/a	n/a	n/a	n/a	"Trial"	n/a	n/a	n/a	"570"	"arrowleft"	n/a	"NULL"	"NULL"	"NULL"	"stimuli/Ebbinghaus_1000000_1.40000.png"	n/a	"Ebbinghaus"	"arrowleft"	"1371"	"TRUE"	"Ebbinghaus"	"100000000000"	"1.4000000000"	"1"	"2"
n/a	"html-keyboard-response"	"11"	"9699500"	"0.0-4.0-1.0-2.0-0.2"	"0nb11g"	"600"	"1366"	"chrome"	"110.0.0"	"FALSE"	"Windows 10"	"61.06"	"035"	n/a	n/a	n/a	n/a	n/a	n/a	"fixation"	n/a	n/a	n/a	n/a	"NULL"	n/a	"NULL"	"NULL"	"NULL"	"<p style=\"color: black; font-size: 80px; padding-left: 30%; padding-right: 39%; padding-top: 45%; padding-bottom: 16%\">+</p>"	"1210"	n/a	n/a	n/a	n/a	n/a	n/a	n/a	n/a	n/a
n/a	"image-keyboard-response"	"12"	"9700078"	"0.0-4.0-1.0-2.0-1.2"	"0nb11g"	"600"	"1366"	"chrome"	"110.0.0"	"FALSE"	"Windows 10"	"61.06"	"035"	n/a	n/a	n/a	n/a	n/a	n/a	"Trial"	n/a	n/a	n/a	"577"	"arrowleft"	n/a	"NULL"	"NULL"	"NULL"	"stimuli/Ebbinghaus_-100000_1.40000.png"	n/a	"Ebbinghaus"	"arrowleft"	"1223"	"TRUE"	"Ebbinghaus"	"-10000000000"	"1.4000000000"	"1"	"3"
n/a	"html-keyboard-response"	"13"	"9701123"	"0.0-4.0-1.0-2.0-0.3"	"0nb11g"	"600"	"1366"	"chrome"	"110.0.0"	"FALSE"	"Windows 10"	"61.06"	"035"	n/a	n/a	n/a	n/a	n/a	n/a	"fixation"	n/a	n/a	n/a	n/a	"NULL"	n/a	"NULL"	"NULL"	"NULL"	"<p style=\"color: black; font-size: 80px; padding-left: 23%; padding-right: 12%; padding-top: 45%; padding-bottom: 21%\">+</p>"	"1034"	n/a	n/a	n/a	n/a	n/a	n/a	n/a	n/a	n/a
n/a	"image-keyboard-response"	"14"	"9701902"	"0.0-4.0-1.0-2.0-1.3"	"0nb11g"	"600"	"1366"	"chrome"	"110.0.0"	"FALSE"	"Windows 10"	"61.06"	"035"	n/a	n/a	n/a	n/a	n/a	n/a	"Trial"	n/a	n/a	n/a	"779"	"arrowleft"	n/a	"NULL"	"NULL"	"NULL"	"stimuli/Ebbinghaus_0000000_1.40000.png"	n/a	"Ebbinghaus"	"arrowleft"	"1045"	"TRUE"	"Ebbinghaus"	"000000000000"	"1.4000000000"	"1"	"4"
n/a	"html-keyboard-response"	"15"	"9703328"	"0.0-4.0-1.0-2.0-0.4"	"0nb11g"	"600"	"1366"	"chrome"	"110.0.0"	"FALSE"	"Windows 10"	"61.06"	"035"	n/a	n/a	n/a	n/a	n/a	n/a	"fixation"	n/a	n/a	n/a	n/a	"NULL"	n/a	"NULL"	"NULL"	"NULL"	"<p style=\"color: black; font-size: 80px; padding-left: 22%; padding-right: 3%; padding-top: 17%; padding-bottom: 36%\">+</p>"	"1416"	n/a	n/a	n/a	n/a	n/a	n/a	n/a	n/a	n/a
n/a	"image-keyboard-response"	"16"	"9703886"	"0.0-4.0-1.0-2.0-1.4"	"0nb11g"	"600"	"1366"	"chrome"	"110.0.0"	"FALSE"	"Windows 10"	"61.06"	"035"	n/a	n/a	n/a	n/a	n/a	n/a	"Trial"	n/a	n/a	n/a	"557"	"arrowright"	n/a	"NULL"	"NULL"	"NULL"	"stimuli/Ebbinghaus_-100000_-1.4000.png"	n/a	"Ebbinghaus"	"arrowright"	"1426"	"TRUE"	"Ebbinghaus"	"-10000000000"	"-1.400000000"	"1"	"5"
n/a	"html-keyboard-response"	"17"	"9705093"	"0.0-4.0-1.0-2.0-0.5"	"0nb11g"	"600"	"1366"	"chrome"	"110.0.0"	"FALSE"	"Windows 10"	"61.06"	"035"	n/a	n/a	n/a	n/a	n/a	n/a	"fixation"	n/a	n/a	n/a	n/a	"NULL"	n/a	"NULL"	"NULL"	"NULL"	"<p style=\"color: black; font-size: 80px; padding-left: 44%; padding-right: 50%; padding-top: 6%; padding-bottom: 48%\">+</p>"	"1197"	n/a	n/a	n/a	n/a	n/a	n/a	n/a	n/a	n/a
n/a	"image-keyboard-response"	"18"	"9705605"	"0.0-4.0-1.0-2.0-1.5"	"0nb11g"	"600"	"1366"	"chrome"	"110.0.0"	"FALSE"	"Windows 10"	"61.06"	"035"	n/a	n/a	n/a	n/a	n/a	n/a	"Trial"	n/a	n/a	n/a	"510"	"arrowright"	n/a	"NULL"	"NULL"	"NULL"	"stimuli/Ebbinghaus_1000000_-1.4000.png"	n/a	"Ebbinghaus"	"arrowright"	"1207"	"TRUE"	"Ebbinghaus"	"100000000000"	"-1.400000000"	"1"	"6"
n/a	"html-button-response"	"19"	"9712022"	"0.0-4.0-1.0-3.0"	"0nb11g"	"600"	"1366"	"chrome"	"110.0.0"	"FALSE"	"Windows 10"	"61.06"	"035"	n/a	n/a	n/a	n/a	n/a	n/a	"practice_block_results"	n/a	n/a	n/a	"6415"	"0"	n/a	"NULL"	"NULL"	"NULL"	"<p style='color:rgb(76,175,80);'> Correct Responses: <b>100.00%</b></p><hr><p style='color:rgb(233,30,99);'> Average Response Time: <b>638.83</b> ms.</p>"	n/a	n/a	n/a	n/a	n/a	n/a	n/a	n/a	n/a	n/a
"TRUE"	"preload"	"20"	"9712553"	"0.0-4.0-2.0-0.0"	"0nb11g"	"600"	"1366"	"chrome"	"110.0.0"	"FALSE"	"Windows 10"	"61.06"	"035"	n/a	n/a	n/a	n/a	n/a	n/a	n/a	n/a	n/a	n/a	n/a	"NULL"	"FALSE"	"list()"	"list()"	"list()"	n/a	n/a	n/a	n/a	n/a	n/a	n/a	n/a	n/a	n/a	n/a
n/a	"html-keyboard-response"	"21"	"9720229"	"0.0-4.0-2.0-1.0"	"0nb11g"	"600"	"1366"	"chrome"	"110.0.0"	"FALSE"	"Windows 10"	"61.06"	"035"	n/a	n/a	n/a	n/a	n/a	n/a	n/a	n/a	n/a	n/a	"7675"	"enter"	n/a	"NULL"	"NULL"	"NULL"	"<p><b>Practice</b></p><p>In this part, two horizontal red lines will appear one above the other.</p><p>Your task is to select which <b>line is longer</b> in length as fast as you can, without making errors.</p><p>Don't get distracted by the surrounding black arrows at the end of the red lines!</p><p>Press <b>the UP or the DOWN arrow</b> to indicate where is the longer <b>red line.</b></p><div style='float: center'><img src='materials/instructions/MullerLyer_Demo.png' height='300'></img><p><img src='utils/answer/answer_updown_keyboard.PNG' height='150'></img></p><p class='small'>In this example, the correct answer is the <b>UP arrow</b>.</p></div><p>Are you ready? <b>Press ENTER to start</b></p>"	n/a	n/a	n/a	n/a	n/a	n/a	n/a	n/a	n/a	n/a
n/a	"html-keyboard-response"	"22"	"9722217"	"0.0-4.0-2.0-2.0-0.0"	"0nb11g"	"600"	"1366"	"chrome"	"110.0.0"	"FALSE"	"Windows 10"	"61.06"	"035"	n/a	n/a	n/a	n/a	n/a	n/a	"fixation"	n/a	n/a	n/a	n/a	"NULL"	n/a	"NULL"	"NULL"	"NULL"	"<p style=\"color: black; font-size: 80px; padding-left: 42%; padding-right: 3%; padding-top: 3%; padding-bottom: 24%\">+</p>"	"1469"	n/a	n/a	n/a	n/a	n/a	n/a	n/a	n/a	n/a
n/a	"image-keyboard-response"	"23"	"9722757"	"0.0-4.0-2.0-2.0-1.0"	"0nb11g"	"600"	"1366"	"chrome"	"110.0.0"	"FALSE"	"Windows 10"	"61.06"	"035"	n/a	n/a	n/a	n/a	n/a	n/a	"Trial"	n/a	n/a	n/a	"538"	"arrowup"	n/a	"NULL"	"NULL"	"NULL"	"stimuli/MullerLyer_-230000_0.70000.png"	n/a	"MullerLyer"	"arrowup"	"1988"	"TRUE"	"MullerLyer"	"-23000000000"	"0.7000000000"	"1"	"7"
n/a	"html-keyboard-response"	"24"	"9724123"	"0.0-4.0-2.0-2.0-0.1"	"0nb11g"	"600"	"1366"	"chrome"	"110.0.0"	"FALSE"	"Windows 10"	"61.06"	"035"	n/a	n/a	n/a	n/a	n/a	n/a	"fixation"	n/a	n/a	n/a	n/a	"NULL"	n/a	"NULL"	"NULL"	"NULL"	"<p style=\"color: black; font-size: 80px; padding-left: 19%; padding-right: 45%; padding-top: 2%; padding-bottom: 4%\">+</p>"	"1355"	n/a	n/a	n/a	n/a	n/a	n/a	n/a	n/a	n/a
n/a	"image-keyboard-response"	"25"	"9724801"	"0.0-4.0-2.0-2.0-1.1"	"0nb11g"	"600"	"1366"	"chrome"	"110.0.0"	"FALSE"	"Windows 10"	"61.06"	"035"	n/a	n/a	n/a	n/a	n/a	n/a	"Trial"	n/a	n/a	n/a	"677"	"arrowdown"	n/a	"NULL"	"NULL"	"NULL"	"stimuli/MullerLyer_0000000_-0.7000.png"	n/a	"MullerLyer"	"arrowdown"	"1366"	"TRUE"	"MullerLyer"	"000000000000"	"-0.700000000"	"1"	"8"
n/a	"html-keyboard-response"	"26"	"9725984"	"0.0-4.0-2.0-2.0-0.2"	"0nb11g"	"600"	"1366"	"chrome"	"110.0.0"	"FALSE"	"Windows 10"	"61.06"	"035"	n/a	n/a	n/a	n/a	n/a	n/a	"fixation"	n/a	n/a	n/a	n/a	"NULL"	n/a	"NULL"	"NULL"	"NULL"	"<p style=\"color: black; font-size: 80px; padding-left: 33%; padding-right: 10%; padding-top: 3%; padding-bottom: 19%\">+</p>"	"1166"	n/a	n/a	n/a	n/a	n/a	n/a	n/a	n/a	n/a
n/a	"image-keyboard-response"	"27"	"9726568"	"0.0-4.0-2.0-2.0-1.2"	"0nb11g"	"600"	"1366"	"chrome"	"110.0.0"	"FALSE"	"Windows 10"	"61.06"	"035"	n/a	n/a	n/a	n/a	n/a	n/a	"Trial"	n/a	n/a	n/a	"583"	"arrowup"	n/a	"NULL"	"NULL"	"NULL"	"stimuli/MullerLyer_2300000_0.70000.png"	n/a	"MullerLyer"	"arrowup"	"1183"	"TRUE"	"MullerLyer"	"230000000000"	"0.7000000000"	"1"	"9"
n/a	"html-keyboard-response"	"28"	"9727889"	"0.0-4.0-2.0-2.0-0.3"	"0nb11g"	"600"	"1366"	"chrome"	"110.0.0"	"FALSE"	"Windows 10"	"61.06"	"035"	n/a	n/a	n/a	n/a	n/a	n/a	"fixation"	n/a	n/a	n/a	n/a	"NULL"	n/a	"NULL"	"NULL"	"NULL"	"<p style=\"color: black; font-size: 80px; padding-left: 19%; padding-right: 34%; padding-top: 27%; padding-bottom: 32%\">+</p>"	"1311"	n/a	n/a	n/a	n/a	n/a	n/a	n/a	n/a	n/a
n/a	"image-keyboard-response"	"29"	"9728635"	"0.0-4.0-2.0-2.0-1.3"	"0nb11g"	"600"	"1366"	"chrome"	"110.0.0"	"FALSE"	"Windows 10"	"61.06"	"035"	n/a	n/a	n/a	n/a	n/a	n/a	"Trial"	n/a	n/a	n/a	"745"	"arrowdown"	n/a	"NULL"	"NULL"	"NULL"	"stimuli/MullerLyer_2300000_-0.7000.png"	n/a	"MullerLyer"	"arrowdown"	"1321"	"TRUE"	"MullerLyer"	"230000000000"	"-0.700000000"	"1"	"10"
n/a	"html-keyboard-response"	"30"	"9730123"	"0.0-4.0-2.0-2.0-0.4"	"0nb11g"	"600"	"1366"	"chrome"	"110.0.0"	"FALSE"	"Windows 10"	"61.06"	"035"	n/a	n/a	n/a	n/a	n/a	n/a	"fixation"	n/a	n/a	n/a	n/a	"NULL"	n/a	"NULL"	"NULL"	"NULL"	"<p style=\"color: black; font-size: 80px; padding-left: 29%; padding-right: 29%; padding-top: 16%; padding-bottom: 1%\">+</p>"	"1473"	n/a	n/a	n/a	n/a	n/a	n/a	n/a	n/a	n/a
n/a	"image-keyboard-response"	"31"	"9730685"	"0.0-4.0-2.0-2.0-1.4"	"0nb11g"	"600"	"1366"	"chrome"	"110.0.0"	"FALSE"	"Windows 10"	"61.06"	"035"	n/a	n/a	n/a	n/a	n/a	n/a	"Trial"	n/a	n/a	n/a	"561"	"arrowdown"	n/a	"NULL"	"NULL"	"NULL"	"stimuli/MullerLyer_-230000_-0.7000.png"	n/a	"MullerLyer"	"arrowdown"	"1488"	"TRUE"	"MullerLyer"	"-23000000000"	"-0.700000000"	"1"	"11"
n/a	"html-keyboard-response"	"32"	"9731848"	"0.0-4.0-2.0-2.0-0.5"	"0nb11g"	"600"	"1366"	"chrome"	"110.0.0"	"FALSE"	"Windows 10"	"61.06"	"035"	n/a	n/a	n/a	n/a	n/a	n/a	"fixation"	n/a	n/a	n/a	n/a	"NULL"	n/a	"NULL"	"NULL"	"NULL"	"<p style=\"color: black; font-size: 80px; padding-left: 48%; padding-right: 23%; padding-top: 42%; padding-bottom: 30%\">+</p>"	"1157"	n/a	n/a	n/a	n/a	n/a	n/a	n/a	n/a	n/a
n/a	"image-keyboard-response"	"33"	"9732395"	"0.0-4.0-2.0-2.0-1.5"	"0nb11g"	"600"	"1366"	"chrome"	"110.0.0"	"FALSE"	"Windows 10"	"61.06"	"035"	n/a	n/a	n/a	n/a	n/a	n/a	"Trial"	n/a	n/a	n/a	"546"	"arrowup"	n/a	"NULL"	"NULL"	"NULL"	"stimuli/MullerLyer_0000000_0.70000.png"	n/a	"MullerLyer"	"arrowup"	"1163"	"TRUE"	"MullerLyer"	"000000000000"	"0.7000000000"	"1"	"12"
n/a	"html-button-response"	"34"	"9735308"	"0.0-4.0-2.0-3.0"	"0nb11g"	"600"	"1366"	"chrome"	"110.0.0"	"FALSE"	"Windows 10"	"61.06"	"035"	n/a	n/a	n/a	n/a	n/a	n/a	"practice_block_results"	n/a	n/a	n/a	"2912"	"0"	n/a	"NULL"	"NULL"	"NULL"	"<p style='color:rgb(76,175,80);'> Correct Responses: <b>100.00%</b></p><hr><p style='color:rgb(233,30,99);'> Average Response Time: <b>608.33</b> ms.</p>"	n/a	n/a	n/a	n/a	n/a	n/a	n/a	n/a	n/a	n/a
"TRUE"	"preload"	"35"	"9735836"	"0.0-4.0-3.0-0.0"	"0nb11g"	"600"	"1366"	"chrome"	"110.0.0"	"FALSE"	"Windows 10"	"61.06"	"035"	n/a	n/a	n/a	n/a	n/a	n/a	n/a	n/a	n/a	n/a	n/a	"NULL"	"FALSE"	"list()"	"list()"	"list()"	n/a	n/a	n/a	n/a	n/a	n/a	n/a	n/a	n/a	n/a	n/a
n/a	"html-keyboard-response"	"36"	"9739568"	"0.0-4.0-3.0-1.0"	"0nb11g"	"600"	"1366"	"chrome"	"110.0.0"	"FALSE"	"Windows 10"	"61.06"	"035"	n/a	n/a	n/a	n/a	n/a	n/a	n/a	n/a	n/a	n/a	"3731"	"enter"	n/a	"NULL"	"NULL"	"NULL"	"<p><b>Practice</b></p><p>In this part, two red lines will appear side by side.</p><p>Your task is to tell <b>which line is longer</b> in length, regardless of their orientation, as fast as you can, and without making errors.</p><p>Don't get distracted by the orientation of the lines!</p><p>Press <b>the LEFT or the RIGHT arrow</b> to indicate which <b>line is the longer one.</b></p><div style='float: center'><img src='materials/instructions/VerticalHorizontal_Demo.png' height='300'></img><p><img src='utils/answer/answer_leftright_keyboard.PNG' height='150'></img></p><p class='small'>In this example, the correct answer is the <b>LEFT arrow</b>.</p></div><p>Are you ready? <b>Press ENTER to start</b></p>"	n/a	n/a	n/a	n/a	n/a	n/a	n/a	n/a	n/a	n/a
n/a	"html-keyboard-response"	"37"	"9741457"	"0.0-4.0-3.0-2.0-0.0"	"0nb11g"	"600"	"1366"	"chrome"	"110.0.0"	"FALSE"	"Windows 10"	"61.06"	"035"	n/a	n/a	n/a	n/a	n/a	n/a	"fixation"	n/a	n/a	n/a	n/a	"NULL"	n/a	"NULL"	"NULL"	"NULL"	"<p style=\"color: black; font-size: 80px; padding-left: 16%; padding-right: 23%; padding-top: 24%; padding-bottom: 36%\">+</p>"	"1372"	n/a	n/a	n/a	n/a	n/a	n/a	n/a	n/a	n/a
n/a	"image-keyboard-response"	"38"	"9742081"	"0.0-4.0-3.0-2.0-1.0"	"0nb11g"	"600"	"1366"	"chrome"	"110.0.0"	"FALSE"	"Windows 10"	"61.06"	"035"	n/a	n/a	n/a	n/a	n/a	n/a	"Trial"	n/a	n/a	n/a	"624"	"arrowright"	n/a	"NULL"	"NULL"	"NULL"	"stimuli/VerticalHorizontal_3300000_-0.9000.png"	n/a	"VerticalHorizontal"	"arrowright"	"1889"	"TRUE"	"VerticalHorizontal"	"330000000000"	"-0.900000000"	"1"	"13"
n/a	"html-keyboard-response"	"39"	"9743471"	"0.0-4.0-3.0-2.0-0.1"	"0nb11g"	"600"	"1366"	"chrome"	"110.0.0"	"FALSE"	"Windows 10"	"61.06"	"035"	n/a	n/a	n/a	n/a	n/a	n/a	"fixation"	n/a	n/a	n/a	n/a	"NULL"	n/a	"NULL"	"NULL"	"NULL"	"<p style=\"color: black; font-size: 80px; padding-left: 22%; padding-right: 21%; padding-top: 12%; padding-bottom: 39%\">+</p>"	"1389"	n/a	n/a	n/a	n/a	n/a	n/a	n/a	n/a	n/a
n/a	"image-keyboard-response"	"40"	"9743992"	"0.0-4.0-3.0-2.0-1.1"	"0nb11g"	"600"	"1366"	"chrome"	"110.0.0"	"FALSE"	"Windows 10"	"61.06"	"035"	n/a	n/a	n/a	n/a	n/a	n/a	"Trial"	n/a	n/a	n/a	"520"	"arrowright"	n/a	"NULL"	"NULL"	"NULL"	"stimuli/VerticalHorizontal_-330000_-0.9000.png"	n/a	"VerticalHorizontal"	"arrowright"	"1390"	"TRUE"	"VerticalHorizontal"	"-33000000000"	"-0.900000000"	"1"	"14"
n/a	"html-keyboard-response"	"41"	"9745104"	"0.0-4.0-3.0-2.0-0.2"	"0nb11g"	"600"	"1366"	"chrome"	"110.0.0"	"FALSE"	"Windows 10"	"61.06"	"035"	n/a	n/a	n/a	n/a	n/a	n/a	"fixation"	n/a	n/a	n/a	n/a	"NULL"	n/a	"NULL"	"NULL"	"NULL"	"<p style=\"color: black; font-size: 80px; padding-left: 35%; padding-right: 9%; padding-top: 28%; padding-bottom: 49%\">+</p>"	"1102"	n/a	n/a	n/a	n/a	n/a	n/a	n/a	n/a	n/a
n/a	"image-keyboard-response"	"42"	"9745659"	"0.0-4.0-3.0-2.0-1.2"	"0nb11g"	"600"	"1366"	"chrome"	"110.0.0"	"FALSE"	"Windows 10"	"61.06"	"035"	n/a	n/a	n/a	n/a	n/a	n/a	"Trial"	n/a	n/a	n/a	"554"	"arrowleft"	n/a	"NULL"	"NULL"	"NULL"	"stimuli/VerticalHorizontal_-330000_0.90000.png"	n/a	"VerticalHorizontal"	"arrowleft"	"1112"	"TRUE"	"VerticalHorizontal"	"-33000000000"	"0.9000000000"	"1"	"15"
n/a	"html-keyboard-response"	"43"	"9746683"	"0.0-4.0-3.0-2.0-0.3"	"0nb11g"	"600"	"1366"	"chrome"	"110.0.0"	"FALSE"	"Windows 10"	"61.06"	"035"	n/a	n/a	n/a	n/a	n/a	n/a	"fixation"	n/a	n/a	n/a	n/a	"NULL"	n/a	"NULL"	"NULL"	"NULL"	"<p style=\"color: black; font-size: 80px; padding-left: 35%; padding-right: 17%; padding-top: 37%; padding-bottom: 15%\">+</p>"	"1023"	n/a	n/a	n/a	n/a	n/a	n/a	n/a	n/a	n/a
n/a	"image-keyboard-response"	"44"	"9747306"	"0.0-4.0-3.0-2.0-1.3"	"0nb11g"	"600"	"1366"	"chrome"	"110.0.0"	"FALSE"	"Windows 10"	"61.06"	"035"	n/a	n/a	n/a	n/a	n/a	n/a	"Trial"	n/a	n/a	n/a	"622"	"arrowleft"	n/a	"NULL"	"NULL"	"NULL"	"stimuli/VerticalHorizontal_3300000_0.90000.png"	n/a	"VerticalHorizontal"	"arrowleft"	"1024"	"TRUE"	"VerticalHorizontal"	"330000000000"	"0.9000000000"	"1"	"16"
n/a	"html-keyboard-response"	"45"	"9748595"	"0.0-4.0-3.0-2.0-0.4"	"0nb11g"	"600"	"1366"	"chrome"	"110.0.0"	"FALSE"	"Windows 10"	"61.06"	"035"	n/a	n/a	n/a	n/a	n/a	n/a	"fixation"	n/a	n/a	n/a	n/a	"NULL"	n/a	"NULL"	"NULL"	"NULL"	"<p style=\"color: black; font-size: 80px; padding-left: 47%; padding-right: 36%; padding-top: 32%; padding-bottom: 44%\">+</p>"	"1281"	n/a	n/a	n/a	n/a	n/a	n/a	n/a	n/a	n/a
n/a	"image-keyboard-response"	"46"	"9749093"	"0.0-4.0-3.0-2.0-1.4"	"0nb11g"	"600"	"1366"	"chrome"	"110.0.0"	"FALSE"	"Windows 10"	"61.06"	"035"	n/a	n/a	n/a	n/a	n/a	n/a	"Trial"	n/a	n/a	n/a	"497"	"arrowright"	n/a	"NULL"	"NULL"	"NULL"	"stimuli/VerticalHorizontal_0000000_-0.9000.png"	n/a	"VerticalHorizontal"	"arrowright"	"1289"	"TRUE"	"VerticalHorizontal"	"000000000000"	"-0.900000000"	"1"	"17"
n/a	"html-keyboard-response"	"47"	"9750302"	"0.0-4.0-3.0-2.0-0.5"	"0nb11g"	"600"	"1366"	"chrome"	"110.0.0"	"FALSE"	"Windows 10"	"61.06"	"035"	n/a	n/a	n/a	n/a	n/a	n/a	"fixation"	n/a	n/a	n/a	n/a	"NULL"	n/a	"NULL"	"NULL"	"NULL"	"<p style=\"color: black; font-size: 80px; padding-left: 8%; padding-right: 18%; padding-top: 18%; padding-bottom: 1%\">+</p>"	"1195"	n/a	n/a	n/a	n/a	n/a	n/a	n/a	n/a	n/a
n/a	"image-keyboard-response"	"48"	"9750744"	"0.0-4.0-3.0-2.0-1.5"	"0nb11g"	"600"	"1366"	"chrome"	"110.0.0"	"FALSE"	"Windows 10"	"61.06"	"035"	n/a	n/a	n/a	n/a	n/a	n/a	"Trial"	n/a	n/a	n/a	"441"	"arrowleft"	n/a	"NULL"	"NULL"	"NULL"	"stimuli/VerticalHorizontal_0000000_0.90000.png"	n/a	"VerticalHorizontal"	"arrowleft"	"1209"	"TRUE"	"VerticalHorizontal"	"000000000000"	"0.9000000000"	"1"	"18"
n/a	"html-button-response"	"49"	"9754024"	"0.0-4.0-3.0-3.0"	"0nb11g"	"600"	"1366"	"chrome"	"110.0.0"	"FALSE"	"Windows 10"	"61.06"	"035"	n/a	n/a	n/a	n/a	n/a	n/a	"practice_block_results"	n/a	n/a	n/a	"3279"	"0"	n/a	"NULL"	"NULL"	"NULL"	"<p style='color:rgb(76,175,80);'> Correct Responses: <b>100.00%</b></p><hr><p style='color:rgb(233,30,99);'> Average Response Time: <b>543.00</b> ms.</p>"	n/a	n/a	n/a	n/a	n/a	n/a	n/a	n/a	n/a	n/a
n/a	"html-button-response"	"50"	"9795202"	"0.0-4.0-4.0"	"0nb11g"	"600"	"1366"	"chrome"	"110.0.0"	"FALSE"	"Windows 10"	"61.06"	"035"	n/a	n/a	n/a	n/a	n/a	n/a	"practice_debrief"	n/a	n/a	n/a	"40667"	"0"	n/a	"NULL"	"NULL"	"NULL"	"<p><b>TRAINING COMPLETED</b></p><p>In the next phase, there will be more trials, and some might be harder too.<br> Moreover, after each illusion block, a <b>score</b> will be calculated based on speed (time you took to answer) and accuracy (number of errors).</p><p>Try to keep up a high score!</p><br><p>Note that it can be <i>really</i> challenging at times, so you will need to rely on your <b>intuition</b> and gut feeling to answer as fast as you can without making errors.</p><p>Each illusion block will be repeated two times (so that you have the opportunity to improve your score), but the order of the blocks is random.</p><p>Remember, your goal is to be as <b>fast</b> and <b>accurate</b> as possible. Good luck!</p><br>"	n/a	n/a	n/a	n/a	n/a	n/a	n/a	n/a	n/a	n/a
"TRUE"	"preload"	"51"	"9795362"	"0.0-5.0-0.0"	"0nb11g"	"600"	"1366"	"chrome"	"110.0.0"	"FALSE"	"Windows 10"	"61.06"	"035"	n/a	n/a	n/a	n/a	n/a	n/a	n/a	n/a	n/a	n/a	n/a	"NULL"	"FALSE"	"list()"	"list()"	"list()"	n/a	n/a	n/a	n/a	n/a	n/a	n/a	n/a	n/a	n/a	n/a
n/a	"html-keyboard-response"	"52"	"9798975"	"0.0-5.0-1.0"	"0nb11g"	"600"	"1366"	"chrome"	"110.0.0"	"FALSE"	"Windows 10"	"61.06"	"035"	n/a	n/a	n/a	n/a	n/a	n/a	n/a	n/a	n/a	n/a	"3612"	"enter"	n/a	"NULL"	"NULL"	"NULL"	"<p><b>Part 1/6</b></p><p>In this part, two red circles will appear side by side on the screen.</p><p>Your task is to select which <b>red circle is bigger</b> in size as fast as you can, without making errors.</p><p>Don't get distracted by the surrounding black circles around the red circles!</p><p>Press <b>the LEFT or the RIGHT arrow</b> to indicate which is the bigger <b>red circle.</b></p><div style='float: center'><img src='materials/instructions/Ebbinghaus_Demo.png' height='300'></img><p><img src='utils/answer/answer_leftright_keyboard.PNG' height='150'></img></p><p class='small'>In this example, the correct answer is the <b>LEFT arrow</b>.</p></div><p>Are you ready? <b>Press ENTER to start</b></p>"	n/a	n/a	n/a	n/a	n/a	n/a	n/a	n/a	n/a	n/a
n/a	"html-keyboard-response"	"53"	"9800805"	"0.0-5.0-2.0-0.0"	"0nb11g"	"600"	"1366"	"chrome"	"110.0.0"	"FALSE"	"Windows 10"	"61.06"	"035"	n/a	n/a	n/a	n/a	n/a	n/a	"fixation"	n/a	n/a	n/a	n/a	"NULL"	n/a	"NULL"	"NULL"	"NULL"	"<p style=\"color: black; font-size: 80px; padding-left: 19%; padding-right: 14%; padding-top: 29%; padding-bottom: 34%\">+</p>"	"1314"	n/a	n/a	n/a	n/a	n/a	n/a	n/a	n/a	n/a
n/a	"image-keyboard-response"	"54"	"9801477"	"0.0-5.0-2.0-1.0"	"0nb11g"	"600"	"1366"	"chrome"	"110.0.0"	"FALSE"	"Windows 10"	"61.06"	"035"	n/a	n/a	n/a	n/a	n/a	n/a	"Trial"	n/a	n/a	n/a	"672"	"arrowright"	n/a	"NULL"	"NULL"	"NULL"	"stimuli/Ebbinghaus_0.10000_-0.2150.png"	n/a	"Ebbinghaus"	"arrowright"	"1830"	"TRUE"	"Ebbinghaus"	"0.1000000000"	"-0.215000000"	"1"	"19"
n/a	"html-keyboard-response"	"55"	"9802696"	"0.0-5.0-2.0-0.1"	"0nb11g"	"600"	"1366"	"chrome"	"110.0.0"	"FALSE"	"Windows 10"	"61.06"	"035"	n/a	n/a	n/a	n/a	n/a	n/a	"fixation"	n/a	n/a	n/a	n/a	"NULL"	n/a	"NULL"	"NULL"	"NULL"	"<p style=\"color: black; font-size: 80px; padding-left: 9%; padding-right: 2%; padding-top: 28%; padding-bottom: 2%\">+</p>"	"1206"	n/a	n/a	n/a	n/a	n/a	n/a	n/a	n/a	n/a
n/a	"image-keyboard-response"	"56"	"9803315"	"0.0-5.0-2.0-1.1"	"0nb11g"	"600"	"1366"	"chrome"	"110.0.0"	"FALSE"	"Windows 10"	"61.06"	"035"	n/a	n/a	n/a	n/a	n/a	n/a	"Trial"	n/a	n/a	n/a	"618"	"arrowright"	n/a	"NULL"	"NULL"	"NULL"	"stimuli/Ebbinghaus_0.10000_-0.11071.png"	n/a	"Ebbinghaus"	"arrowright"	"1219"	"TRUE"	"Ebbinghaus"	"0.1000000000"	"-0.110710000"	"1"	"20"
n/a	"html-keyboard-response"	"57"	"9804402"	"0.0-5.0-2.0-0.2"	"0nb11g"	"600"	"1366"	"chrome"	"110.0.0"	"FALSE"	"Windows 10"	"61.06"	"035"	n/a	n/a	n/a	n/a	n/a	n/a	"fixation"	n/a	n/a	n/a	n/a	"NULL"	n/a	"NULL"	"NULL"	"NULL"	"<p style=\"color: black; font-size: 80px; padding-left: 22%; padding-right: 7%; padding-top: 42%; padding-bottom: 2%\">+</p>"	"1083"	n/a	n/a	n/a	n/a	n/a	n/a	n/a	n/a	n/a
n/a	"image-keyboard-response"	"58"	"9805023"	"0.0-5.0-2.0-1.2"	"0nb11g"	"600"	"1366"	"chrome"	"110.0.0"	"FALSE"	"Windows 10"	"61.06"	"035"	n/a	n/a	n/a	n/a	n/a	n/a	"Trial"	n/a	n/a	n/a	"620"	"arrowright"	n/a	"NULL"	"NULL"	"NULL"	"stimuli/Ebbinghaus_-0.35714_0.11071.png"	n/a	"Ebbinghaus"	"arrowleft"	"1087"	"FALSE"	"Ebbinghaus"	"-0.357140000"	"0.1107100000"	"1"	"21"
n/a	"html-keyboard-response"	"59"	"9806234"	"0.0-5.0-2.0-0.3"	"0nb11g"	"600"	"1366"	"chrome"	"110.0.0"	"FALSE"	"Windows 10"	"61.06"	"035"	n/a	n/a	n/a	n/a	n/a	n/a	"fixation"	n/a	n/a	n/a	n/a	"NULL"	n/a	"NULL"	"NULL"	"NULL"	"<p style=\"color: black; font-size: 80px; padding-left: 14%; padding-right: 46%; padding-top: 23%; padding-bottom: 23%\">+</p>"	"1202"	n/a	n/a	n/a	n/a	n/a	n/a	n/a	n/a	n/a
n/a	"image-keyboard-response"	"60"	"9807093"	"0.0-5.0-2.0-1.3"	"0nb11g"	"600"	"1366"	"chrome"	"110.0.0"	"FALSE"	"Windows 10"	"61.06"	"035"	n/a	n/a	n/a	n/a	n/a	n/a	"Trial"	n/a	n/a	n/a	"859"	"arrowleft"	n/a	"NULL"	"NULL"	"NULL"	"stimuli/Ebbinghaus_-0.1000_0.21500.png"	n/a	"Ebbinghaus"	"arrowleft"	"1211"	"TRUE"	"Ebbinghaus"	"-0.100000000"	"0.2150000000"	"1"	"22"
n/a	"html-keyboard-response"	"61"	"9808223"	"0.0-5.0-2.0-0.4"	"0nb11g"	"600"	"1366"	"chrome"	"110.0.0"	"FALSE"	"Windows 10"	"61.06"	"035"	n/a	n/a	n/a	n/a	n/a	n/a	"fixation"	n/a	n/a	n/a	n/a	"NULL"	n/a	"NULL"	"NULL"	"NULL"	"<p style=\"color: black; font-size: 80px; padding-left: 8%; padding-right: 29%; padding-top: 10%; padding-bottom: 38%\">+</p>"	"1123"	n/a	n/a	n/a	n/a	n/a	n/a	n/a	n/a	n/a
n/a	"image-keyboard-response"	"62"	"9808879"	"0.0-5.0-2.0-1.4"	"0nb11g"	"600"	"1366"	"chrome"	"110.0.0"	"FALSE"	"Windows 10"	"61.06"	"035"	n/a	n/a	n/a	n/a	n/a	n/a	"Trial"	n/a	n/a	n/a	"656"	"arrowleft"	n/a	"NULL"	"NULL"	"NULL"	"stimuli/Ebbinghaus_0.35714_0.15857.png"	n/a	"Ebbinghaus"	"arrowleft"	"1130"	"TRUE"	"Ebbinghaus"	"0.3571400000"	"0.1585700000"	"1"	"23"
n/a	"html-keyboard-response"	"63"	"9810167"	"0.0-5.0-2.0-0.5"	"0nb11g"	"600"	"1366"	"chrome"	"110.0.0"	"FALSE"	"Windows 10"	"61.06"	"035"	n/a	n/a	n/a	n/a	n/a	n/a	"fixation"	n/a	n/a	n/a	n/a	"NULL"	n/a	"NULL"	"NULL"	"NULL"	"<p style=\"color: black; font-size: 80px; padding-left: 43%; padding-right: 49%; padding-top: 34%; padding-bottom: 37%\">+</p>"	"1275"	n/a	n/a	n/a	n/a	n/a	n/a	n/a	n/a	n/a
n/a	"image-keyboard-response"	"64"	"9811453"	"0.0-5.0-2.0-1.5"	"0nb11g"	"600"	"1366"	"chrome"	"110.0.0"	"FALSE"	"Windows 10"	"61.06"	"035"	n/a	n/a	n/a	n/a	n/a	n/a	"Trial"	n/a	n/a	n/a	"1285"	"arrowright"	n/a	"NULL"	"NULL"	"NULL"	"stimuli/Ebbinghaus_0.87143_0.15857.png"	n/a	"Ebbinghaus"	"arrowleft"	"1288"	"FALSE"	"Ebbinghaus"	"0.8714300000"	"0.1585700000"	"1"	"24"
n/a	"html-keyboard-response"	"65"	"9812577"	"0.0-5.0-2.0-0.6"	"0nb11g"	"600"	"1366"	"chrome"	"110.0.0"	"FALSE"	"Windows 10"	"61.06"	"035"	n/a	n/a	n/a	n/a	n/a	n/a	"fixation"	n/a	n/a	n/a	n/a	"NULL"	n/a	"NULL"	"NULL"	"NULL"	"<p style=\"color: black; font-size: 80px; padding-left: 40%; padding-right: 50%; padding-top: 5%; padding-bottom: 22%\">+</p>"	"1116"	n/a	n/a	n/a	n/a	n/a	n/a	n/a	n/a	n/a
n/a	"image-keyboard-response"	"66"	"9813464"	"0.0-5.0-2.0-1.6"	"0nb11g"	"600"	"1366"	"chrome"	"110.0.0"	"FALSE"	"Windows 10"	"61.06"	"035"	n/a	n/a	n/a	n/a	n/a	n/a	"Trial"	n/a	n/a	n/a	"886"	"arrowleft"	n/a	"NULL"	"NULL"	"NULL"	"stimuli/Ebbinghaus_0.61429_0.21500.png"	n/a	"Ebbinghaus"	"arrowleft"	"1124"	"TRUE"	"Ebbinghaus"	"0.6142900000"	"0.2150000000"	"1"	"25"
n/a	"html-keyboard-response"	"67"	"9814889"	"0.0-5.0-2.0-0.7"	"0nb11g"	"600"	"1366"	"chrome"	"110.0.0"	"FALSE"	"Windows 10"	"61.06"	"035"	n/a	n/a	n/a	n/a	n/a	n/a	"fixation"	n/a	n/a	n/a	n/a	"NULL"	n/a	"NULL"	"NULL"	"NULL"	"<p style=\"color: black; font-size: 80px; padding-left: 47%; padding-right: 2%; padding-top: 33%; padding-bottom: 20%\">+</p>"	"1410"	n/a	n/a	n/a	n/a	n/a	n/a	n/a	n/a	n/a
n/a	"image-keyboard-response"	"68"	"9815930"	"0.0-5.0-2.0-1.7"	"0nb11g"	"600"	"1366"	"chrome"	"110.0.0"	"FALSE"	"Windows 10"	"61.06"	"035"	n/a	n/a	n/a	n/a	n/a	n/a	"Trial"	n/a	n/a	n/a	"1040"	"arrowright"	n/a	"NULL"	"NULL"	"NULL"	"stimuli/Ebbinghaus_0.35714_-0.11071.png"	n/a	"Ebbinghaus"	"arrowright"	"1425"	"TRUE"	"Ebbinghaus"	"0.3571400000"	"-0.110710000"	"1"	"26"
n/a	"html-keyboard-response"	"69"	"9817076"	"0.0-5.0-2.0-0.8"	"0nb11g"	"600"	"1366"	"chrome"	"110.0.0"	"FALSE"	"Windows 10"	"61.06"	"035"	n/a	n/a	n/a	n/a	n/a	n/a	"fixation"	n/a	n/a	n/a	n/a	"NULL"	n/a	"NULL"	"NULL"	"NULL"	"<p style=\"color: black; font-size: 80px; padding-left: 21%; padding-right: 17%; padding-top: 40%; padding-bottom: 45%\">+</p>"	"1137"	n/a	n/a	n/a	n/a	n/a	n/a	n/a	n/a	n/a
n/a	"image-keyboard-response"	"70"	"9817826"	"0.0-5.0-2.0-1.8"	"0nb11g"	"600"	"1366"	"chrome"	"110.0.0"	"FALSE"	"Windows 10"	"61.06"	"035"	n/a	n/a	n/a	n/a	n/a	n/a	"Trial"	n/a	n/a	n/a	"750"	"arrowright"	n/a	"NULL"	"NULL"	"NULL"	"stimuli/Ebbinghaus_0.61429_-0.2800.png"	n/a	"Ebbinghaus"	"arrowright"	"1146"	"TRUE"	"Ebbinghaus"	"0.6142900000"	"-0.280000000"	"1"	"27"
n/a	"html-keyboard-response"	"71"	"9818901"	"0.0-5.0-2.0-0.9"	"0nb11g"	"600"	"1366"	"chrome"	"110.0.0"	"FALSE"	"Windows 10"	"61.06"	"035"	n/a	n/a	n/a	n/a	n/a	n/a	"fixation"	n/a	n/a	n/a	n/a	"NULL"	n/a	"NULL"	"NULL"	"NULL"	"<p style=\"color: black; font-size: 80px; padding-left: 14%; padding-right: 48%; padding-top: 7%; padding-bottom: 46%\">+</p>"	"1067"	n/a	n/a	n/a	n/a	n/a	n/a	n/a	n/a	n/a
n/a	"image-keyboard-response"	"72"	"9819771"	"0.0-5.0-2.0-1.9"	"0nb11g"	"600"	"1366"	"chrome"	"110.0.0"	"FALSE"	"Windows 10"	"61.06"	"035"	n/a	n/a	n/a	n/a	n/a	n/a	"Trial"	n/a	n/a	n/a	"869"	"arrowleft"	n/a	"NULL"	"NULL"	"NULL"	"stimuli/Ebbinghaus_0.10000_0.11071.png"	n/a	"Ebbinghaus"	"arrowleft"	"1075"	"TRUE"	"Ebbinghaus"	"0.1000000000"	"0.1107100000"	"1"	"28"
n/a	"html-keyboard-response"	"73"	"9821169"	"0.0-5.0-2.0-0.10"	"0nb11g"	"600"	"1366"	"chrome"	"110.0.0"	"FALSE"	"Windows 10"	"61.06"	"035"	n/a	n/a	n/a	n/a	n/a	n/a	"fixation"	n/a	n/a	n/a	n/a	"NULL"	n/a	"NULL"	"NULL"	"NULL"	"<p style=\"color: black; font-size: 80px; padding-left: 19%; padding-right: 0%; padding-top: 6%; padding-bottom: 7%\">+</p>"	"1390"	n/a	n/a	n/a	n/a	n/a	n/a	n/a	n/a	n/a
n/a	"image-keyboard-response"	"74"	"9821973"	"0.0-5.0-2.0-1.10"	"0nb11g"	"600"	"1366"	"chrome"	"110.0.0"	"FALSE"	"Windows 10"	"61.06"	"035"	n/a	n/a	n/a	n/a	n/a	n/a	"Trial"	n/a	n/a	n/a	"804"	"arrowright"	n/a	"NULL"	"NULL"	"NULL"	"stimuli/Ebbinghaus_0.10000_-0.15857.png"	n/a	"Ebbinghaus"	"arrowright"	"1398"	"TRUE"	"Ebbinghaus"	"0.1000000000"	"-0.158570000"	"1"	"29"
n/a	"html-keyboard-response"	"75"	"9823023"	"0.0-5.0-2.0-0.11"	"0nb11g"	"600"	"1366"	"chrome"	"110.0.0"	"FALSE"	"Windows 10"	"61.06"	"035"	n/a	n/a	n/a	n/a	n/a	n/a	"fixation"	n/a	n/a	n/a	n/a	"NULL"	n/a	"NULL"	"NULL"	"NULL"	"<p style=\"color: black; font-size: 80px; padding-left: 9%; padding-right: 21%; padding-top: 24%; padding-bottom: 49%\">+</p>"	"1043"	n/a	n/a	n/a	n/a	n/a	n/a	n/a	n/a	n/a
n/a	"image-keyboard-response"	"76"	"9823877"	"0.0-5.0-2.0-1.11"	"0nb11g"	"600"	"1366"	"chrome"	"110.0.0"	"FALSE"	"Windows 10"	"61.06"	"035"	n/a	n/a	n/a	n/a	n/a	n/a	"Trial"	n/a	n/a	n/a	"853"	"arrowleft"	n/a	"NULL"	"NULL"	"NULL"	"stimuli/Ebbinghaus_0.10000_0.15857.png"	n/a	"Ebbinghaus"	"arrowleft"	"1050"	"TRUE"	"Ebbinghaus"	"0.1000000000"	"0.1585700000"	"1"	"30"
n/a	"html-keyboard-response"	"77"	"9825244"	"0.0-5.0-2.0-0.12"	"0nb11g"	"600"	"1366"	"chrome"	"110.0.0"	"FALSE"	"Windows 10"	"61.06"	"035"	n/a	n/a	n/a	n/a	n/a	n/a	"fixation"	n/a	n/a	n/a	n/a	"NULL"	n/a	"NULL"	"NULL"	"NULL"	"<p style=\"color: black; font-size: 80px; padding-left: 19%; padding-right: 43%; padding-top: 6%; padding-bottom: 35%\">+</p>"	"1359"	n/a	n/a	n/a	n/a	n/a	n/a	n/a	n/a	n/a
n/a	"image-keyboard-response"	"78"	"9826043"	"0.0-5.0-2.0-1.12"	"0nb11g"	"600"	"1366"	"chrome"	"110.0.0"	"FALSE"	"Windows 10"	"61.06"	"035"	n/a	n/a	n/a	n/a	n/a	n/a	"Trial"	n/a	n/a	n/a	"798"	"arrowright"	n/a	"NULL"	"NULL"	"NULL"	"stimuli/Ebbinghaus_-0.1000_0.11071.png"	n/a	"Ebbinghaus"	"arrowleft"	"1367"	"FALSE"	"Ebbinghaus"	"-0.100000000"	"0.1107100000"	"1"	"31"
n/a	"html-keyboard-response"	"79"	"9827265"	"0.0-5.0-2.0-0.13"	"0nb11g"	"600"	"1366"	"chrome"	"110.0.0"	"FALSE"	"Windows 10"	"61.06"	"035"	n/a	n/a	n/a	n/a	n/a	n/a	"fixation"	n/a	n/a	n/a	n/a	"NULL"	n/a	"NULL"	"NULL"	"NULL"	"<p style=\"color: black; font-size: 80px; padding-left: 23%; padding-right: 5%; padding-top: 44%; padding-bottom: 29%\">+</p>"	"1217"	n/a	n/a	n/a	n/a	n/a	n/a	n/a	n/a	n/a
n/a	"image-keyboard-response"	"80"	"9828020"	"0.0-5.0-2.0-1.13"	"0nb11g"	"600"	"1366"	"chrome"	"110.0.0"	"FALSE"	"Windows 10"	"61.06"	"035"	n/a	n/a	n/a	n/a	n/a	n/a	"Trial"	n/a	n/a	n/a	"754"	"arrowleft"	n/a	"NULL"	"NULL"	"NULL"	"stimuli/Ebbinghaus_-0.87143_0.15857.png"	n/a	"Ebbinghaus"	"arrowleft"	"1222"	"TRUE"	"Ebbinghaus"	"-0.871430000"	"0.1585700000"	"1"	"32"
n/a	"html-keyboard-response"	"81"	"9829140"	"0.0-5.0-2.0-0.14"	"0nb11g"	"600"	"1366"	"chrome"	"110.0.0"	"FALSE"	"Windows 10"	"61.06"	"035"	n/a	n/a	n/a	n/a	n/a	n/a	"fixation"	n/a	n/a	n/a	n/a	"NULL"	n/a	"NULL"	"NULL"	"NULL"	"<p style=\"color: black; font-size: 80px; padding-left: 27%; padding-right: 28%; padding-top: 32%; padding-bottom: 21%\">+</p>"	"1112"	n/a	n/a	n/a	n/a	n/a	n/a	n/a	n/a	n/a
n/a	"image-keyboard-response"	"82"	"9829899"	"0.0-5.0-2.0-1.14"	"0nb11g"	"600"	"1366"	"chrome"	"110.0.0"	"FALSE"	"Windows 10"	"61.06"	"035"	n/a	n/a	n/a	n/a	n/a	n/a	"Trial"	n/a	n/a	n/a	"758"	"arrowleft"	n/a	"NULL"	"NULL"	"NULL"	"stimuli/Ebbinghaus_-0.87143_0.11071.png"	n/a	"Ebbinghaus"	"arrowleft"	"1120"	"TRUE"	"Ebbinghaus"	"-0.871430000"	"0.1107100000"	"1"	"33"
n/a	"html-keyboard-response"	"83"	"9830953"	"0.0-5.0-2.0-0.15"	"0nb11g"	"600"	"1366"	"chrome"	"110.0.0"	"FALSE"	"Windows 10"	"61.06"	"035"	n/a	n/a	n/a	n/a	n/a	n/a	"fixation"	n/a	n/a	n/a	n/a	"NULL"	n/a	"NULL"	"NULL"	"NULL"	"<p style=\"color: black; font-size: 80px; padding-left: 28%; padding-right: 24%; padding-top: 33%; padding-bottom: 10%\">+</p>"	"1046"	n/a	n/a	n/a	n/a	n/a	n/a	n/a	n/a	n/a
n/a	"image-keyboard-response"	"84"	"9831784"	"0.0-5.0-2.0-1.15"	"0nb11g"	"600"	"1366"	"chrome"	"110.0.0"	"FALSE"	"Windows 10"	"61.06"	"035"	n/a	n/a	n/a	n/a	n/a	n/a	"Trial"	n/a	n/a	n/a	"831"	"arrowright"	n/a	"NULL"	"NULL"	"NULL"	"stimuli/Ebbinghaus_-0.87143_-0.2150.png"	n/a	"Ebbinghaus"	"arrowright"	"1054"	"TRUE"	"Ebbinghaus"	"-0.871430000"	"-0.215000000"	"1"	"34"
n/a	"html-keyboard-response"	"85"	"9833223"	"0.0-5.0-2.0-0.16"	"0nb11g"	"600"	"1366"	"chrome"	"110.0.0"	"FALSE"	"Windows 10"	"61.06"	"035"	n/a	n/a	n/a	n/a	n/a	n/a	"fixation"	n/a	n/a	n/a	n/a	"NULL"	n/a	"NULL"	"NULL"	"NULL"	"<p style=\"color: black; font-size: 80px; padding-left: 46%; padding-right: 26%; padding-top: 11%; padding-bottom: 49%\">+</p>"	"1425"	n/a	n/a	n/a	n/a	n/a	n/a	n/a	n/a	n/a
n/a	"image-keyboard-response"	"86"	"9834042"	"0.0-5.0-2.0-1.16"	"0nb11g"	"600"	"1366"	"chrome"	"110.0.0"	"FALSE"	"Windows 10"	"61.06"	"035"	n/a	n/a	n/a	n/a	n/a	n/a	"Trial"	n/a	n/a	n/a	"818"	"arrowright"	n/a	"NULL"	"NULL"	"NULL"	"stimuli/Ebbinghaus_0.35714_-0.2150.png"	n/a	"Ebbinghaus"	"arrowright"	"1439"	"TRUE"	"Ebbinghaus"	"0.3571400000"	"-0.215000000"	"1"	"35"
n/a	"html-keyboard-response"	"87"	"9835082"	"0.0-5.0-2.0-0.17"	"0nb11g"	"600"	"1366"	"chrome"	"110.0.0"	"FALSE"	"Windows 10"	"61.06"	"035"	n/a	n/a	n/a	n/a	n/a	n/a	"fixation"	n/a	n/a	n/a	n/a	"NULL"	n/a	"NULL"	"NULL"	"NULL"	"<p style=\"color: black; font-size: 80px; padding-left: 44%; padding-right: 12%; padding-top: 13%; padding-bottom: 38%\">+</p>"	"1029"	n/a	n/a	n/a	n/a	n/a	n/a	n/a	n/a	n/a
n/a	"image-keyboard-response"	"88"	"9835762"	"0.0-5.0-2.0-1.17"	"0nb11g"	"600"	"1366"	"chrome"	"110.0.0"	"FALSE"	"Windows 10"	"61.06"	"035"	n/a	n/a	n/a	n/a	n/a	n/a	"Trial"	n/a	n/a	n/a	"679"	"arrowleft"	n/a	"NULL"	"NULL"	"NULL"	"stimuli/Ebbinghaus_0.61429_0.15857.png"	n/a	"Ebbinghaus"	"arrowleft"	"1040"	"TRUE"	"Ebbinghaus"	"0.6142900000"	"0.1585700000"	"1"	"36"
n/a	"html-keyboard-response"	"89"	"9837181"	"0.0-5.0-2.0-0.18"	"0nb11g"	"600"	"1366"	"chrome"	"110.0.0"	"FALSE"	"Windows 10"	"61.06"	"035"	n/a	n/a	n/a	n/a	n/a	n/a	"fixation"	n/a	n/a	n/a	n/a	"NULL"	n/a	"NULL"	"NULL"	"NULL"	"<p style=\"color: black; font-size: 80px; padding-left: 3%; padding-right: 10%; padding-top: 17%; padding-bottom: 46%\">+</p>"	"1408"	n/a	n/a	n/a	n/a	n/a	n/a	n/a	n/a	n/a
n/a	"image-keyboard-response"	"90"	"9837977"	"0.0-5.0-2.0-1.18"	"0nb11g"	"600"	"1366"	"chrome"	"110.0.0"	"FALSE"	"Windows 10"	"61.06"	"035"	n/a	n/a	n/a	n/a	n/a	n/a	"Trial"	n/a	n/a	n/a	"795"	"arrowleft"	n/a	"NULL"	"NULL"	"NULL"	"stimuli/Ebbinghaus_0.35714_0.28000.png"	n/a	"Ebbinghaus"	"arrowleft"	"1419"	"TRUE"	"Ebbinghaus"	"0.3571400000"	"0.2800000000"	"1"	"37"
n/a	"html-keyboard-response"	"91"	"9839172"	"0.0-5.0-2.0-0.19"	"0nb11g"	"600"	"1366"	"chrome"	"110.0.0"	"FALSE"	"Windows 10"	"61.06"	"035"	n/a	n/a	n/a	n/a	n/a	n/a	"fixation"	n/a	n/a	n/a	n/a	"NULL"	n/a	"NULL"	"NULL"	"NULL"	"<p style=\"color: black; font-size: 80px; padding-left: 39%; padding-right: 18%; padding-top: 5%; padding-bottom: 40%\">+</p>"	"1185"	n/a	n/a	n/a	n/a	n/a	n/a	n/a	n/a	n/a
n/a	"image-keyboard-response"	"92"	"9839936"	"0.0-5.0-2.0-1.19"	"0nb11g"	"600"	"1366"	"chrome"	"110.0.0"	"FALSE"	"Windows 10"	"61.06"	"035"	n/a	n/a	n/a	n/a	n/a	n/a	"Trial"	n/a	n/a	n/a	"763"	"arrowright"	n/a	"NULL"	"NULL"	"NULL"	"stimuli/Ebbinghaus_-0.1000_-0.2800.png"	n/a	"Ebbinghaus"	"arrowright"	"1195"	"TRUE"	"Ebbinghaus"	"-0.100000000"	"-0.280000000"	"1"	"38"
n/a	"html-keyboard-response"	"93"	"9841028"	"0.0-5.0-2.0-0.20"	"0nb11g"	"600"	"1366"	"chrome"	"110.0.0"	"FALSE"	"Windows 10"	"61.06"	"035"	n/a	n/a	n/a	n/a	n/a	n/a	"fixation"	n/a	n/a	n/a	n/a	"NULL"	n/a	"NULL"	"NULL"	"NULL"	"<p style=\"color: black; font-size: 80px; padding-left: 14%; padding-right: 9%; padding-top: 24%; padding-bottom: 37%\">+</p>"	"1086"	n/a	n/a	n/a	n/a	n/a	n/a	n/a	n/a	n/a
n/a	"image-keyboard-response"	"94"	"9841827"	"0.0-5.0-2.0-1.20"	"0nb11g"	"600"	"1366"	"chrome"	"110.0.0"	"FALSE"	"Windows 10"	"61.06"	"035"	n/a	n/a	n/a	n/a	n/a	n/a	"Trial"	n/a	n/a	n/a	"798"	"arrowleft"	n/a	"NULL"	"NULL"	"NULL"	"stimuli/Ebbinghaus_0.87143_-0.11071.png"	n/a	"Ebbinghaus"	"arrowright"	"1092"	"FALSE"	"Ebbinghaus"	"0.8714300000"	"-0.110710000"	"1"	"39"
n/a	"html-keyboard-response"	"95"	"9842889"	"0.0-5.0-2.0-0.21"	"0nb11g"	"600"	"1366"	"chrome"	"110.0.0"	"FALSE"	"Windows 10"	"61.06"	"035"	n/a	n/a	n/a	n/a	n/a	n/a	"fixation"	n/a	n/a	n/a	n/a	"NULL"	n/a	"NULL"	"NULL"	"NULL"	"<p style=\"color: black; font-size: 80px; padding-left: 2%; padding-right: 4%; padding-top: 33%; padding-bottom: 23%\">+</p>"	"1049"	n/a	n/a	n/a	n/a	n/a	n/a	n/a	n/a	n/a
n/a	"image-keyboard-response"	"96"	"9843623"	"0.0-5.0-2.0-1.21"	"0nb11g"	"600"	"1366"	"chrome"	"110.0.0"	"FALSE"	"Windows 10"	"61.06"	"035"	n/a	n/a	n/a	n/a	n/a	n/a	"Trial"	n/a	n/a	n/a	"733"	"arrowleft"	n/a	"NULL"	"NULL"	"NULL"	"stimuli/Ebbinghaus_-0.1000_0.15857.png"	n/a	"Ebbinghaus"	"arrowleft"	"1062"	"TRUE"	"Ebbinghaus"	"-0.100000000"	"0.1585700000"	"1"	"40"
n/a	"html-keyboard-response"	"97"	"9844781"	"0.0-5.0-2.0-0.22"	"0nb11g"	"600"	"1366"	"chrome"	"110.0.0"	"FALSE"	"Windows 10"	"61.06"	"035"	n/a	n/a	n/a	n/a	n/a	n/a	"fixation"	n/a	n/a	n/a	n/a	"NULL"	n/a	"NULL"	"NULL"	"NULL"	"<p style=\"color: black; font-size: 80px; padding-left: 9%; padding-right: 11%; padding-top: 29%; padding-bottom: 7%\">+</p>"	"1144"	n/a	n/a	n/a	n/a	n/a	n/a	n/a	n/a	n/a
n/a	"image-keyboard-response"	"98"	"9845518"	"0.0-5.0-2.0-1.22"	"0nb11g"	"600"	"1366"	"chrome"	"110.0.0"	"FALSE"	"Windows 10"	"61.06"	"035"	n/a	n/a	n/a	n/a	n/a	n/a	"Trial"	n/a	n/a	n/a	"737"	"arrowleft"	n/a	"NULL"	"NULL"	"NULL"	"stimuli/Ebbinghaus_0.10000_0.28000.png"	n/a	"Ebbinghaus"	"arrowleft"	"1158"	"TRUE"	"Ebbinghaus"	"0.1000000000"	"0.2800000000"	"1"	"41"
n/a	"html-keyboard-response"	"99"	"9846766"	"0.0-5.0-2.0-0.23"	"0nb11g"	"600"	"1366"	"chrome"	"110.0.0"	"FALSE"	"Windows 10"	"61.06"	"035"	n/a	n/a	n/a	n/a	n/a	n/a	"fixation"	n/a	n/a	n/a	n/a	"NULL"	n/a	"NULL"	"NULL"	"NULL"	"<p style=\"color: black; font-size: 80px; padding-left: 41%; padding-right: 24%; padding-top: 45%; padding-bottom: 2%\">+</p>"	"1240"	n/a	n/a	n/a	n/a	n/a	n/a	n/a	n/a	n/a
n/a	"image-keyboard-response"	"100"	"9848066"	"0.0-5.0-2.0-1.23"	"0nb11g"	"600"	"1366"	"chrome"	"110.0.0"	"FALSE"	"Windows 10"	"61.06"	"035"	n/a	n/a	n/a	n/a	n/a	n/a	"Trial"	n/a	n/a	n/a	"1299"	"arrowright"	n/a	"NULL"	"NULL"	"NULL"	"stimuli/Ebbinghaus_0.35714_0.11071.png"	n/a	"Ebbinghaus"	"arrowleft"	"1248"	"FALSE"	"Ebbinghaus"	"0.3571400000"	"0.1107100000"	"1"	"42"
n/a	"html-keyboard-response"	"101"	"9849123"	"0.0-5.0-2.0-0.24"	"0nb11g"	"600"	"1366"	"chrome"	"110.0.0"	"FALSE"	"Windows 10"	"61.06"	"035"	n/a	n/a	n/a	n/a	n/a	n/a	"fixation"	n/a	n/a	n/a	n/a	"NULL"	n/a	"NULL"	"NULL"	"NULL"	"<p style=\"color: black; font-size: 80px; padding-left: 35%; padding-right: 16%; padding-top: 45%; padding-bottom: 13%\">+</p>"	"1045"	n/a	n/a	n/a	n/a	n/a	n/a	n/a	n/a	n/a
n/a	"image-keyboard-response"	"102"	"9850053"	"0.0-5.0-2.0-1.24"	"0nb11g"	"600"	"1366"	"chrome"	"110.0.0"	"FALSE"	"Windows 10"	"61.06"	"035"	n/a	n/a	n/a	n/a	n/a	n/a	"Trial"	n/a	n/a	n/a	"929"	"arrowright"	n/a	"NULL"	"NULL"	"NULL"	"stimuli/Ebbinghaus_-0.1000_-0.11071.png"	n/a	"Ebbinghaus"	"arrowright"	"1057"	"TRUE"	"Ebbinghaus"	"-0.100000000"	"-0.110710000"	"1"	"43"
n/a	"html-keyboard-response"	"103"	"9851077"	"0.0-5.0-2.0-0.25"	"0nb11g"	"600"	"1366"	"chrome"	"110.0.0"	"FALSE"	"Windows 10"	"61.06"	"035"	n/a	n/a	n/a	n/a	n/a	n/a	"fixation"	n/a	n/a	n/a	n/a	"NULL"	n/a	"NULL"	"NULL"	"NULL"	"<p style=\"color: black; font-size: 80px; padding-left: 38%; padding-right: 48%; padding-top: 34%; padding-bottom: 23%\">+</p>"	"1018"	n/a	n/a	n/a	n/a	n/a	n/a	n/a	n/a	n/a
n/a	"image-keyboard-response"	"104"	"9851811"	"0.0-5.0-2.0-1.25"	"0nb11g"	"600"	"1366"	"chrome"	"110.0.0"	"FALSE"	"Windows 10"	"61.06"	"035"	n/a	n/a	n/a	n/a	n/a	n/a	"Trial"	n/a	n/a	n/a	"730"	"arrowright"	n/a	"NULL"	"NULL"	"NULL"	"stimuli/Ebbinghaus_-0.61429_-0.15857.png"	n/a	"Ebbinghaus"	"arrowright"	"1024"	"TRUE"	"Ebbinghaus"	"-0.614290000"	"-0.158570000"	"1"	"44"
n/a	"html-keyboard-response"	"105"	"9853300"	"0.0-5.0-2.0-0.26"	"0nb11g"	"600"	"1366"	"chrome"	"110.0.0"	"FALSE"	"Windows 10"	"61.06"	"035"	n/a	n/a	n/a	n/a	n/a	n/a	"fixation"	n/a	n/a	n/a	n/a	"NULL"	n/a	"NULL"	"NULL"	"NULL"	"<p style=\"color: black; font-size: 80px; padding-left: 49%; padding-right: 44%; padding-top: 26%; padding-bottom: 3%\">+</p>"	"1485"	n/a	n/a	n/a	n/a	n/a	n/a	n/a	n/a	n/a
n/a	"image-keyboard-response"	"106"	"9854249"	"0.0-5.0-2.0-1.26"	"0nb11g"	"600"	"1366"	"chrome"	"110.0.0"	"FALSE"	"Windows 10"	"61.06"	"035"	n/a	n/a	n/a	n/a	n/a	n/a	"Trial"	n/a	n/a	n/a	"948"	"arrowright"	n/a	"NULL"	"NULL"	"NULL"	"stimuli/Ebbinghaus_-0.87143_-0.15857.png"	n/a	"Ebbinghaus"	"arrowright"	"1489"	"TRUE"	"Ebbinghaus"	"-0.871430000"	"-0.158570000"	"1"	"45"
n/a	"html-keyboard-response"	"107"	"9855712"	"0.0-5.0-2.0-0.27"	"0nb11g"	"600"	"1366"	"chrome"	"110.0.0"	"FALSE"	"Windows 10"	"61.06"	"035"	n/a	n/a	n/a	n/a	n/a	n/a	"fixation"	n/a	n/a	n/a	n/a	"NULL"	n/a	"NULL"	"NULL"	"NULL"	"<p style=\"color: black; font-size: 80px; padding-left: 9%; padding-right: 36%; padding-top: 22%; padding-bottom: 41%\">+</p>"	"1458"	n/a	n/a	n/a	n/a	n/a	n/a	n/a	n/a	n/a
n/a	"image-keyboard-response"	"108"	"9856589"	"0.0-5.0-2.0-1.27"	"0nb11g"	"600"	"1366"	"chrome"	"110.0.0"	"FALSE"	"Windows 10"	"61.06"	"035"	n/a	n/a	n/a	n/a	n/a	n/a	"Trial"	n/a	n/a	n/a	"876"	"arrowleft"	n/a	"NULL"	"NULL"	"NULL"	"stimuli/Ebbinghaus_-0.61429_0.28000.png"	n/a	"Ebbinghaus"	"arrowleft"	"1463"	"TRUE"	"Ebbinghaus"	"-0.614290000"	"0.2800000000"	"1"	"46"
n/a	"html-keyboard-response"	"109"	"9857681"	"0.0-5.0-2.0-0.28"	"0nb11g"	"600"	"1366"	"chrome"	"110.0.0"	"FALSE"	"Windows 10"	"61.06"	"035"	n/a	n/a	n/a	n/a	n/a	n/a	"fixation"	n/a	n/a	n/a	n/a	"NULL"	n/a	"NULL"	"NULL"	"NULL"	"<p style=\"color: black; font-size: 80px; padding-left: 38%; padding-right: 38%; padding-top: 10%; padding-bottom: 16%\">+</p>"	"1076"	n/a	n/a	n/a	n/a	n/a	n/a	n/a	n/a	n/a
n/a	"image-keyboard-response"	"110"	"9858719"	"0.0-5.0-2.0-1.28"	"0nb11g"	"600"	"1366"	"chrome"	"110.0.0"	"FALSE"	"Windows 10"	"61.06"	"035"	n/a	n/a	n/a	n/a	n/a	n/a	"Trial"	n/a	n/a	n/a	"1037"	"arrowright"	n/a	"NULL"	"NULL"	"NULL"	"stimuli/Ebbinghaus_0.61429_-0.15857.png"	n/a	"Ebbinghaus"	"arrowright"	"1092"	"TRUE"	"Ebbinghaus"	"0.6142900000"	"-0.158570000"	"1"	"47"
n/a	"html-keyboard-response"	"111"	"9859988"	"0.0-5.0-2.0-0.29"	"0nb11g"	"600"	"1366"	"chrome"	"110.0.0"	"FALSE"	"Windows 10"	"61.06"	"035"	n/a	n/a	n/a	n/a	n/a	n/a	"fixation"	n/a	n/a	n/a	n/a	"NULL"	n/a	"NULL"	"NULL"	"NULL"	"<p style=\"color: black; font-size: 80px; padding-left: 37%; padding-right: 46%; padding-top: 39%; padding-bottom: 47%\">+</p>"	"1253"	n/a	n/a	n/a	n/a	n/a	n/a	n/a	n/a	n/a
n/a	"image-keyboard-response"	"112"	"9860991"	"0.0-5.0-2.0-1.29"	"0nb11g"	"600"	"1366"	"chrome"	"110.0.0"	"FALSE"	"Windows 10"	"61.06"	"035"	n/a	n/a	n/a	n/a	n/a	n/a	"Trial"	n/a	n/a	n/a	"1002"	"arrowleft"	n/a	"NULL"	"NULL"	"NULL"	"stimuli/Ebbinghaus_0.61429_0.28000.png"	n/a	"Ebbinghaus"	"arrowleft"	"1269"	"TRUE"	"Ebbinghaus"	"0.6142900000"	"0.2800000000"	"1"	"48"
n/a	"html-keyboard-response"	"113"	"9862203"	"0.0-5.0-2.0-0.30"	"0nb11g"	"600"	"1366"	"chrome"	"110.0.0"	"FALSE"	"Windows 10"	"61.06"	"035"	n/a	n/a	n/a	n/a	n/a	n/a	"fixation"	n/a	n/a	n/a	n/a	"NULL"	n/a	"NULL"	"NULL"	"NULL"	"<p style=\"color: black; font-size: 80px; padding-left: 3%; padding-right: 24%; padding-top: 47%; padding-bottom: 10%\">+</p>"	"1197"	n/a	n/a	n/a	n/a	n/a	n/a	n/a	n/a	n/a
n/a	"image-keyboard-response"	"114"	"9863006"	"0.0-5.0-2.0-1.30"	"0nb11g"	"600"	"1366"	"chrome"	"110.0.0"	"FALSE"	"Windows 10"	"61.06"	"035"	n/a	n/a	n/a	n/a	n/a	n/a	"Trial"	n/a	n/a	n/a	"803"	"arrowleft"	n/a	"NULL"	"NULL"	"NULL"	"stimuli/Ebbinghaus_-0.61429_0.15857.png"	n/a	"Ebbinghaus"	"arrowleft"	"1212"	"TRUE"	"Ebbinghaus"	"-0.614290000"	"0.1585700000"	"1"	"49"
n/a	"html-keyboard-response"	"115"	"9864407"	"0.0-5.0-2.0-0.31"	"0nb11g"	"600"	"1366"	"chrome"	"110.0.0"	"FALSE"	"Windows 10"	"61.06"	"035"	n/a	n/a	n/a	n/a	n/a	n/a	"fixation"	n/a	n/a	n/a	n/a	"NULL"	n/a	"NULL"	"NULL"	"NULL"	"<p style=\"color: black; font-size: 80px; padding-left: 36%; padding-right: 24%; padding-top: 42%; padding-bottom: 33%\">+</p>"	"1385"	n/a	n/a	n/a	n/a	n/a	n/a	n/a	n/a	n/a
n/a	"image-keyboard-response"	"116"	"9865294"	"0.0-5.0-2.0-1.31"	"0nb11g"	"600"	"1366"	"chrome"	"110.0.0"	"FALSE"	"Windows 10"	"61.06"	"035"	n/a	n/a	n/a	n/a	n/a	n/a	"Trial"	n/a	n/a	n/a	"886"	"arrowright"	n/a	"NULL"	"NULL"	"NULL"	"stimuli/Ebbinghaus_-0.35714_-0.2150.png"	n/a	"Ebbinghaus"	"arrowright"	"1401"	"TRUE"	"Ebbinghaus"	"-0.357140000"	"-0.215000000"	"1"	"50"
n/a	"html-keyboard-response"	"117"	"9866384"	"0.0-5.0-2.0-0.32"	"0nb11g"	"600"	"1366"	"chrome"	"110.0.0"	"FALSE"	"Windows 10"	"61.06"	"035"	n/a	n/a	n/a	n/a	n/a	n/a	"fixation"	n/a	n/a	n/a	n/a	"NULL"	n/a	"NULL"	"NULL"	"NULL"	"<p style=\"color: black; font-size: 80px; padding-left: 4%; padding-right: 42%; padding-top: 22%; padding-bottom: 19%\">+</p>"	"1081"	n/a	n/a	n/a	n/a	n/a	n/a	n/a	n/a	n/a
n/a	"image-keyboard-response"	"118"	"9867230"	"0.0-5.0-2.0-1.32"	"0nb11g"	"600"	"1366"	"chrome"	"110.0.0"	"FALSE"	"Windows 10"	"61.06"	"035"	n/a	n/a	n/a	n/a	n/a	n/a	"Trial"	n/a	n/a	n/a	"845"	"arrowright"	n/a	"NULL"	"NULL"	"NULL"	"stimuli/Ebbinghaus_0.61429_-0.11071.png"	n/a	"Ebbinghaus"	"arrowright"	"1090"	"TRUE"	"Ebbinghaus"	"0.6142900000"	"-0.110710000"	"1"	"51"
n/a	"html-keyboard-response"	"119"	"9868652"	"0.0-5.0-2.0-0.33"	"0nb11g"	"600"	"1366"	"chrome"	"110.0.0"	"FALSE"	"Windows 10"	"61.06"	"035"	n/a	n/a	n/a	n/a	n/a	n/a	"fixation"	n/a	n/a	n/a	n/a	"NULL"	n/a	"NULL"	"NULL"	"NULL"	"<p style=\"color: black; font-size: 80px; padding-left: 12%; padding-right: 5%; padding-top: 49%; padding-bottom: 17%\">+</p>"	"1418"	n/a	n/a	n/a	n/a	n/a	n/a	n/a	n/a	n/a
n/a	"image-keyboard-response"	"120"	"9869349"	"0.0-5.0-2.0-1.33"	"0nb11g"	"600"	"1366"	"chrome"	"110.0.0"	"FALSE"	"Windows 10"	"61.06"	"035"	n/a	n/a	n/a	n/a	n/a	n/a	"Trial"	n/a	n/a	n/a	"697"	"arrowright"	n/a	"NULL"	"NULL"	"NULL"	"stimuli/Ebbinghaus_-0.35714_-0.15857.png"	n/a	"Ebbinghaus"	"arrowright"	"1422"	"TRUE"	"Ebbinghaus"	"-0.357140000"	"-0.158570000"	"1"	"52"
n/a	"html-keyboard-response"	"121"	"9870486"	"0.0-5.0-2.0-0.34"	"0nb11g"	"600"	"1366"	"chrome"	"110.0.0"	"FALSE"	"Windows 10"	"61.06"	"035"	n/a	n/a	n/a	n/a	n/a	n/a	"fixation"	n/a	n/a	n/a	n/a	"NULL"	n/a	"NULL"	"NULL"	"NULL"	"<p style=\"color: black; font-size: 80px; padding-left: 46%; padding-right: 8%; padding-top: 50%; padding-bottom: 0%\">+</p>"	"1136"	n/a	n/a	n/a	n/a	n/a	n/a	n/a	n/a	n/a
n/a	"image-keyboard-response"	"122"	"9871099"	"0.0-5.0-2.0-1.34"	"0nb11g"	"600"	"1366"	"chrome"	"110.0.0"	"FALSE"	"Windows 10"	"61.06"	"035"	n/a	n/a	n/a	n/a	n/a	n/a	"Trial"	n/a	n/a	n/a	"610"	"arrowleft"	n/a	"NULL"	"NULL"	"NULL"	"stimuli/Ebbinghaus_0.10000_0.21500.png"	n/a	"Ebbinghaus"	"arrowleft"	"1137"	"TRUE"	"Ebbinghaus"	"0.1000000000"	"0.2150000000"	"1"	"53"
n/a	"html-keyboard-response"	"123"	"9872364"	"0.0-5.0-2.0-0.35"	"0nb11g"	"600"	"1366"	"chrome"	"110.0.0"	"FALSE"	"Windows 10"	"61.06"	"035"	n/a	n/a	n/a	n/a	n/a	n/a	"fixation"	n/a	n/a	n/a	n/a	"NULL"	n/a	"NULL"	"NULL"	"NULL"	"<p style=\"color: black; font-size: 80px; padding-left: 25%; padding-right: 30%; padding-top: 45%; padding-bottom: 1%\">+</p>"	"1263"	n/a	n/a	n/a	n/a	n/a	n/a	n/a	n/a	n/a
n/a	"image-keyboard-response"	"124"	"9872924"	"0.0-5.0-2.0-1.35"	"0nb11g"	"600"	"1366"	"chrome"	"110.0.0"	"FALSE"	"Windows 10"	"61.06"	"035"	n/a	n/a	n/a	n/a	n/a	n/a	"Trial"	n/a	n/a	n/a	"560"	"arrowright"	n/a	"NULL"	"NULL"	"NULL"	"stimuli/Ebbinghaus_0.87143_-0.2150.png"	n/a	"Ebbinghaus"	"arrowright"	"1265"	"TRUE"	"Ebbinghaus"	"0.8714300000"	"-0.215000000"	"1"	"54"
n/a	"html-keyboard-response"	"125"	"9874222"	"0.0-5.0-2.0-0.36"	"0nb11g"	"600"	"1366"	"chrome"	"110.0.0"	"FALSE"	"Windows 10"	"61.06"	"035"	n/a	n/a	n/a	n/a	n/a	n/a	"fixation"	n/a	n/a	n/a	n/a	"NULL"	n/a	"NULL"	"NULL"	"NULL"	"<p style=\"color: black; font-size: 80px; padding-left: 41%; padding-right: 16%; padding-top: 45%; padding-bottom: 20%\">+</p>"	"1283"	n/a	n/a	n/a	n/a	n/a	n/a	n/a	n/a	n/a
n/a	"image-keyboard-response"	"126"	"9875055"	"0.0-5.0-2.0-1.36"	"0nb11g"	"600"	"1366"	"chrome"	"110.0.0"	"FALSE"	"Windows 10"	"61.06"	"035"	n/a	n/a	n/a	n/a	n/a	n/a	"Trial"	n/a	n/a	n/a	"832"	"arrowright"	n/a	"NULL"	"NULL"	"NULL"	"stimuli/Ebbinghaus_-0.87143_-0.2800.png"	n/a	"Ebbinghaus"	"arrowright"	"1298"	"TRUE"	"Ebbinghaus"	"-0.871430000"	"-0.280000000"	"1"	"55"
n/a	"html-keyboard-response"	"127"	"9876354"	"0.0-5.0-2.0-0.37"	"0nb11g"	"600"	"1366"	"chrome"	"110.0.0"	"FALSE"	"Windows 10"	"61.06"	"035"	n/a	n/a	n/a	n/a	n/a	n/a	"fixation"	n/a	n/a	n/a	n/a	"NULL"	n/a	"NULL"	"NULL"	"NULL"	"<p style=\"color: black; font-size: 80px; padding-left: 8%; padding-right: 15%; padding-top: 39%; padding-bottom: 32%\">+</p>"	"1295"	n/a	n/a	n/a	n/a	n/a	n/a	n/a	n/a	n/a
n/a	"image-keyboard-response"	"128"	"9876871"	"0.0-5.0-2.0-1.37"	"0nb11g"	"600"	"1366"	"chrome"	"110.0.0"	"FALSE"	"Windows 10"	"61.06"	"035"	n/a	n/a	n/a	n/a	n/a	n/a	"Trial"	n/a	n/a	n/a	"516"	"arrowleft"	n/a	"NULL"	"NULL"	"NULL"	"stimuli/Ebbinghaus_-0.87143_0.28000.png"	n/a	"Ebbinghaus"	"arrowleft"	"1299"	"TRUE"	"Ebbinghaus"	"-0.871430000"	"0.2800000000"	"1"	"56"
n/a	"html-keyboard-response"	"129"	"9878351"	"0.0-5.0-2.0-0.38"	"0nb11g"	"600"	"1366"	"chrome"	"110.0.0"	"FALSE"	"Windows 10"	"61.06"	"035"	n/a	n/a	n/a	n/a	n/a	n/a	"fixation"	n/a	n/a	n/a	n/a	"NULL"	n/a	"NULL"	"NULL"	"NULL"	"<p style=\"color: black; font-size: 80px; padding-left: 36%; padding-right: 4%; padding-top: 21%; padding-bottom: 4%\">+</p>"	"1475"	n/a	n/a	n/a	n/a	n/a	n/a	n/a	n/a	n/a
n/a	"image-keyboard-response"	"130"	"9878974"	"0.0-5.0-2.0-1.38"	"0nb11g"	"600"	"1366"	"chrome"	"110.0.0"	"FALSE"	"Windows 10"	"61.06"	"035"	n/a	n/a	n/a	n/a	n/a	n/a	"Trial"	n/a	n/a	n/a	"623"	"arrowleft"	n/a	"NULL"	"NULL"	"NULL"	"stimuli/Ebbinghaus_-0.1000_0.28000.png"	n/a	"Ebbinghaus"	"arrowleft"	"1480"	"TRUE"	"Ebbinghaus"	"-0.100000000"	"0.2800000000"	"1"	"57"
n/a	"html-keyboard-response"	"131"	"9880326"	"0.0-5.0-2.0-0.39"	"0nb11g"	"600"	"1366"	"chrome"	"110.0.0"	"FALSE"	"Windows 10"	"61.06"	"035"	n/a	n/a	n/a	n/a	n/a	n/a	"fixation"	n/a	n/a	n/a	n/a	"NULL"	n/a	"NULL"	"NULL"	"NULL"	"<p style=\"color: black; font-size: 80px; padding-left: 42%; padding-right: 15%; padding-top: 16%; padding-bottom: 27%\">+</p>"	"1348"	n/a	n/a	n/a	n/a	n/a	n/a	n/a	n/a	n/a
n/a	"image-keyboard-response"	"132"	"9880808"	"0.0-5.0-2.0-1.39"	"0nb11g"	"600"	"1366"	"chrome"	"110.0.0"	"FALSE"	"Windows 10"	"61.06"	"035"	n/a	n/a	n/a	n/a	n/a	n/a	"Trial"	n/a	n/a	n/a	"481"	"arrowright"	n/a	"NULL"	"NULL"	"NULL"	"stimuli/Ebbinghaus_0.87143_-0.2800.png"	n/a	"Ebbinghaus"	"arrowright"	"1352"	"TRUE"	"Ebbinghaus"	"0.8714300000"	"-0.280000000"	"1"	"58"
n/a	"html-keyboard-response"	"133"	"9881873"	"0.0-5.0-2.0-0.40"	"0nb11g"	"600"	"1366"	"chrome"	"110.0.0"	"FALSE"	"Windows 10"	"61.06"	"035"	n/a	n/a	n/a	n/a	n/a	n/a	"fixation"	n/a	n/a	n/a	n/a	"NULL"	n/a	"NULL"	"NULL"	"NULL"	"<p style=\"color: black; font-size: 80px; padding-left: 4%; padding-right: 5%; padding-top: 37%; padding-bottom: 0%\">+</p>"	"1064"	n/a	n/a	n/a	n/a	n/a	n/a	n/a	n/a	n/a
n/a	"image-keyboard-response"	"134"	"9882658"	"0.0-5.0-2.0-1.40"	"0nb11g"	"600"	"1366"	"chrome"	"110.0.0"	"FALSE"	"Windows 10"	"61.06"	"035"	n/a	n/a	n/a	n/a	n/a	n/a	"Trial"	n/a	n/a	n/a	"784"	"arrowleft"	n/a	"NULL"	"NULL"	"NULL"	"stimuli/Ebbinghaus_0.87143_-0.15857.png"	n/a	"Ebbinghaus"	"arrowright"	"1065"	"FALSE"	"Ebbinghaus"	"0.8714300000"	"-0.158570000"	"1"	"59"
n/a	"html-keyboard-response"	"135"	"9883866"	"0.0-5.0-2.0-0.41"	"0nb11g"	"600"	"1366"	"chrome"	"110.0.0"	"FALSE"	"Windows 10"	"61.06"	"035"	n/a	n/a	n/a	n/a	n/a	n/a	"fixation"	n/a	n/a	n/a	n/a	"NULL"	n/a	"NULL"	"NULL"	"NULL"	"<p style=\"color: black; font-size: 80px; padding-left: 27%; padding-right: 24%; padding-top: 49%; padding-bottom: 45%\">+</p>"	"1206"	n/a	n/a	n/a	n/a	n/a	n/a	n/a	n/a	n/a
n/a	"image-keyboard-response"	"136"	"9884526"	"0.0-5.0-2.0-1.41"	"0nb11g"	"600"	"1366"	"chrome"	"110.0.0"	"FALSE"	"Windows 10"	"61.06"	"035"	n/a	n/a	n/a	n/a	n/a	n/a	"Trial"	n/a	n/a	n/a	"659"	"arrowleft"	n/a	"NULL"	"NULL"	"NULL"	"stimuli/Ebbinghaus_-0.87143_0.21500.png"	n/a	"Ebbinghaus"	"arrowleft"	"1208"	"TRUE"	"Ebbinghaus"	"-0.871430000"	"0.2150000000"	"1"	"60"
n/a	"html-keyboard-response"	"137"	"9885764"	"0.0-5.0-2.0-0.42"	"0nb11g"	"600"	"1366"	"chrome"	"110.0.0"	"FALSE"	"Windows 10"	"61.06"	"035"	n/a	n/a	n/a	n/a	n/a	n/a	"fixation"	n/a	n/a	n/a	n/a	"NULL"	n/a	"NULL"	"NULL"	"NULL"	"<p style=\"color: black; font-size: 80px; padding-left: 15%; padding-right: 5%; padding-top: 19%; padding-bottom: 22%\">+</p>"	"1238"	n/a	n/a	n/a	n/a	n/a	n/a	n/a	n/a	n/a
n/a	"image-keyboard-response"	"138"	"9886807"	"0.0-5.0-2.0-1.42"	"0nb11g"	"600"	"1366"	"chrome"	"110.0.0"	"FALSE"	"Windows 10"	"61.06"	"035"	n/a	n/a	n/a	n/a	n/a	n/a	"Trial"	n/a	n/a	n/a	"1042"	"arrowright"	n/a	"NULL"	"NULL"	"NULL"	"stimuli/Ebbinghaus_0.61429_-0.2150.png"	n/a	"Ebbinghaus"	"arrowright"	"1238"	"TRUE"	"Ebbinghaus"	"0.6142900000"	"-0.215000000"	"1"	"61"
n/a	"html-keyboard-response"	"139"	"9887953"	"0.0-5.0-2.0-0.43"	"0nb11g"	"600"	"1366"	"chrome"	"110.0.0"	"FALSE"	"Windows 10"	"61.06"	"035"	n/a	n/a	n/a	n/a	n/a	n/a	"fixation"	n/a	n/a	n/a	n/a	"NULL"	n/a	"NULL"	"NULL"	"NULL"	"<p style=\"color: black; font-size: 80px; padding-left: 15%; padding-right: 17%; padding-top: 37%; padding-bottom: 41%\">+</p>"	"1145"	n/a	n/a	n/a	n/a	n/a	n/a	n/a	n/a	n/a
n/a	"image-keyboard-response"	"140"	"9888919"	"0.0-5.0-2.0-1.43"	"0nb11g"	"600"	"1366"	"chrome"	"110.0.0"	"FALSE"	"Windows 10"	"61.06"	"035"	n/a	n/a	n/a	n/a	n/a	n/a	"Trial"	n/a	n/a	n/a	"965"	"arrowright"	n/a	"NULL"	"NULL"	"NULL"	"stimuli/Ebbinghaus_0.35714_-0.2800.png"	n/a	"Ebbinghaus"	"arrowright"	"1146"	"TRUE"	"Ebbinghaus"	"0.3571400000"	"-0.280000000"	"1"	"62"
n/a	"html-keyboard-response"	"141"	"9890328"	"0.0-5.0-2.0-0.44"	"0nb11g"	"600"	"1366"	"chrome"	"110.0.0"	"FALSE"	"Windows 10"	"61.06"	"035"	n/a	n/a	n/a	n/a	n/a	n/a	"fixation"	n/a	n/a	n/a	n/a	"NULL"	n/a	"NULL"	"NULL"	"NULL"	"<p style=\"color: black; font-size: 80px; padding-left: 0%; padding-right: 23%; padding-top: 43%; padding-bottom: 18%\">+</p>"	"1395"	n/a	n/a	n/a	n/a	n/a	n/a	n/a	n/a	n/a
n/a	"image-keyboard-response"	"142"	"9891023"	"0.0-5.0-2.0-1.44"	"0nb11g"	"600"	"1366"	"chrome"	"110.0.0"	"FALSE"	"Windows 10"	"61.06"	"035"	n/a	n/a	n/a	n/a	n/a	n/a	"Trial"	n/a	n/a	n/a	"694"	"arrowleft"	n/a	"NULL"	"NULL"	"NULL"	"stimuli/Ebbinghaus_-0.61429_0.21500.png"	n/a	"Ebbinghaus"	"arrowleft"	"1409"	"TRUE"	"Ebbinghaus"	"-0.614290000"	"0.2150000000"	"1"	"63"
n/a	"html-keyboard-response"	"143"	"9892438"	"0.0-5.0-2.0-0.45"	"0nb11g"	"600"	"1366"	"chrome"	"110.0.0"	"FALSE"	"Windows 10"	"61.06"	"035"	n/a	n/a	n/a	n/a	n/a	n/a	"fixation"	n/a	n/a	n/a	n/a	"NULL"	n/a	"NULL"	"NULL"	"NULL"	"<p style=\"color: black; font-size: 80px; padding-left: 0%; padding-right: 50%; padding-top: 4%; padding-bottom: 5%\">+</p>"	"1414"	n/a	n/a	n/a	n/a	n/a	n/a	n/a	n/a	n/a
n/a	"image-keyboard-response"	"144"	"9893333"	"0.0-5.0-2.0-1.45"	"0nb11g"	"600"	"1366"	"chrome"	"110.0.0"	"FALSE"	"Windows 10"	"61.06"	"035"	n/a	n/a	n/a	n/a	n/a	n/a	"Trial"	n/a	n/a	n/a	"895"	"arrowleft"	n/a	"NULL"	"NULL"	"NULL"	"stimuli/Ebbinghaus_0.87143_0.28000.png"	n/a	"Ebbinghaus"	"arrowleft"	"1415"	"TRUE"	"Ebbinghaus"	"0.8714300000"	"0.2800000000"	"1"	"64"
n/a	"html-keyboard-response"	"145"	"9894809"	"0.0-5.0-2.0-0.46"	"0nb11g"	"600"	"1366"	"chrome"	"110.0.0"	"FALSE"	"Windows 10"	"61.06"	"035"	n/a	n/a	n/a	n/a	n/a	n/a	"fixation"	n/a	n/a	n/a	n/a	"NULL"	n/a	"NULL"	"NULL"	"NULL"	"<p style=\"color: black; font-size: 80px; padding-left: 1%; padding-right: 32%; padding-top: 26%; padding-bottom: 32%\">+</p>"	"1469"	n/a	n/a	n/a	n/a	n/a	n/a	n/a	n/a	n/a
n/a	"image-keyboard-response"	"146"	"9895547"	"0.0-5.0-2.0-1.46"	"0nb11g"	"600"	"1366"	"chrome"	"110.0.0"	"FALSE"	"Windows 10"	"61.06"	"035"	n/a	n/a	n/a	n/a	n/a	n/a	"Trial"	n/a	n/a	n/a	"737"	"arrowright"	n/a	"NULL"	"NULL"	"NULL"	"stimuli/Ebbinghaus_-0.87143_-0.11071.png"	n/a	"Ebbinghaus"	"arrowright"	"1476"	"TRUE"	"Ebbinghaus"	"-0.871430000"	"-0.110710000"	"1"	"65"
n/a	"html-keyboard-response"	"147"	"9896606"	"0.0-5.0-2.0-0.47"	"0nb11g"	"600"	"1366"	"chrome"	"110.0.0"	"FALSE"	"Windows 10"	"61.06"	"035"	n/a	n/a	n/a	n/a	n/a	n/a	"fixation"	n/a	n/a	n/a	n/a	"NULL"	n/a	"NULL"	"NULL"	"NULL"	"<p style=\"color: black; font-size: 80px; padding-left: 49%; padding-right: 2%; padding-top: 21%; padding-bottom: 15%\">+</p>"	"1051"	n/a	n/a	n/a	n/a	n/a	n/a	n/a	n/a	n/a
n/a	"image-keyboard-response"	"148"	"9897444"	"0.0-5.0-2.0-1.47"	"0nb11g"	"600"	"1366"	"chrome"	"110.0.0"	"FALSE"	"Windows 10"	"61.06"	"035"	n/a	n/a	n/a	n/a	n/a	n/a	"Trial"	n/a	n/a	n/a	"838"	"arrowleft"	n/a	"NULL"	"NULL"	"NULL"	"stimuli/Ebbinghaus_0.87143_0.21500.png"	n/a	"Ebbinghaus"	"arrowleft"	"1059"	"TRUE"	"Ebbinghaus"	"0.8714300000"	"0.2150000000"	"1"	"66"
n/a	"html-keyboard-response"	"149"	"9898698"	"0.0-5.0-2.0-0.48"	"0nb11g"	"600"	"1366"	"chrome"	"110.0.0"	"FALSE"	"Windows 10"	"61.06"	"035"	n/a	n/a	n/a	n/a	n/a	n/a	"fixation"	n/a	n/a	n/a	n/a	"NULL"	n/a	"NULL"	"NULL"	"NULL"	"<p style=\"color: black; font-size: 80px; padding-left: 6%; padding-right: 9%; padding-top: 45%; padding-bottom: 19%\">+</p>"	"1251"	n/a	n/a	n/a	n/a	n/a	n/a	n/a	n/a	n/a
n/a	"image-keyboard-response"	"150"	"9899585"	"0.0-5.0-2.0-1.48"	"0nb11g"	"600"	"1366"	"chrome"	"110.0.0"	"FALSE"	"Windows 10"	"61.06"	"035"	n/a	n/a	n/a	n/a	n/a	n/a	"Trial"	n/a	n/a	n/a	"886"	"arrowleft"	n/a	"NULL"	"NULL"	"NULL"	"stimuli/Ebbinghaus_0.61429_0.11071.png"	n/a	"Ebbinghaus"	"arrowleft"	"1254"	"TRUE"	"Ebbinghaus"	"0.6142900000"	"0.1107100000"	"1"	"67"
n/a	"html-keyboard-response"	"151"	"9900873"	"0.0-5.0-2.0-0.49"	"0nb11g"	"600"	"1366"	"chrome"	"110.0.0"	"FALSE"	"Windows 10"	"61.06"	"035"	n/a	n/a	n/a	n/a	n/a	n/a	"fixation"	n/a	n/a	n/a	n/a	"NULL"	n/a	"NULL"	"NULL"	"NULL"	"<p style=\"color: black; font-size: 80px; padding-left: 15%; padding-right: 43%; padding-top: 35%; padding-bottom: 19%\">+</p>"	"1275"	n/a	n/a	n/a	n/a	n/a	n/a	n/a	n/a	n/a
n/a	"image-keyboard-response"	"152"	"9901681"	"0.0-5.0-2.0-1.49"	"0nb11g"	"600"	"1366"	"chrome"	"110.0.0"	"FALSE"	"Windows 10"	"61.06"	"035"	n/a	n/a	n/a	n/a	n/a	n/a	"Trial"	n/a	n/a	n/a	"807"	"arrowright"	n/a	"NULL"	"NULL"	"NULL"	"stimuli/Ebbinghaus_-0.1000_-0.15857.png"	n/a	"Ebbinghaus"	"arrowright"	"1288"	"TRUE"	"Ebbinghaus"	"-0.100000000"	"-0.158570000"	"1"	"68"
n/a	"html-keyboard-response"	"153"	"9902878"	"0.0-5.0-2.0-0.50"	"0nb11g"	"600"	"1366"	"chrome"	"110.0.0"	"FALSE"	"Windows 10"	"61.06"	"035"	n/a	n/a	n/a	n/a	n/a	n/a	"fixation"	n/a	n/a	n/a	n/a	"NULL"	n/a	"NULL"	"NULL"	"NULL"	"<p style=\"color: black; font-size: 80px; padding-left: 46%; padding-right: 36%; padding-top: 48%; padding-bottom: 46%\">+</p>"	"1192"	n/a	n/a	n/a	n/a	n/a	n/a	n/a	n/a	n/a
n/a	"image-keyboard-response"	"154"	"9903757"	"0.0-5.0-2.0-1.50"	"0nb11g"	"600"	"1366"	"chrome"	"110.0.0"	"FALSE"	"Windows 10"	"61.06"	"035"	n/a	n/a	n/a	n/a	n/a	n/a	"Trial"	n/a	n/a	n/a	"877"	"arrowleft"	n/a	"NULL"	"NULL"	"NULL"	"stimuli/Ebbinghaus_0.35714_0.21500.png"	n/a	"Ebbinghaus"	"arrowleft"	"1197"	"TRUE"	"Ebbinghaus"	"0.3571400000"	"0.2150000000"	"1"	"69"
n/a	"html-keyboard-response"	"155"	"9905139"	"0.0-5.0-2.0-0.51"	"0nb11g"	"600"	"1366"	"chrome"	"110.0.0"	"FALSE"	"Windows 10"	"61.06"	"035"	n/a	n/a	n/a	n/a	n/a	n/a	"fixation"	n/a	n/a	n/a	n/a	"NULL"	n/a	"NULL"	"NULL"	"NULL"	"<p style=\"color: black; font-size: 80px; padding-left: 30%; padding-right: 33%; padding-top: 9%; padding-bottom: 5%\">+</p>"	"1379"	n/a	n/a	n/a	n/a	n/a	n/a	n/a	n/a	n/a
n/a	"image-keyboard-response"	"156"	"9905769"	"0.0-5.0-2.0-1.51"	"0nb11g"	"600"	"1366"	"chrome"	"110.0.0"	"FALSE"	"Windows 10"	"61.06"	"035"	n/a	n/a	n/a	n/a	n/a	n/a	"Trial"	n/a	n/a	n/a	"629"	"arrowright"	n/a	"NULL"	"NULL"	"NULL"	"stimuli/Ebbinghaus_-0.61429_-0.2800.png"	n/a	"Ebbinghaus"	"arrowright"	"1382"	"TRUE"	"Ebbinghaus"	"-0.614290000"	"-0.280000000"	"1"	"70"
n/a	"html-keyboard-response"	"157"	"9907091"	"0.0-5.0-2.0-0.52"	"0nb11g"	"600"	"1366"	"chrome"	"110.0.0"	"FALSE"	"Windows 10"	"61.06"	"035"	n/a	n/a	n/a	n/a	n/a	n/a	"fixation"	n/a	n/a	n/a	n/a	"NULL"	n/a	"NULL"	"NULL"	"NULL"	"<p style=\"color: black; font-size: 80px; padding-left: 7%; padding-right: 25%; padding-top: 45%; padding-bottom: 26%\">+</p>"	"1311"	n/a	n/a	n/a	n/a	n/a	n/a	n/a	n/a	n/a
n/a	"image-keyboard-response"	"158"	"9908078"	"0.0-5.0-2.0-1.52"	"0nb11g"	"600"	"1366"	"chrome"	"110.0.0"	"FALSE"	"Windows 10"	"61.06"	"035"	n/a	n/a	n/a	n/a	n/a	n/a	"Trial"	n/a	n/a	n/a	"985"	"arrowright"	n/a	"NULL"	"NULL"	"NULL"	"stimuli/Ebbinghaus_0.87143_0.11071.png"	n/a	"Ebbinghaus"	"arrowleft"	"1322"	"FALSE"	"Ebbinghaus"	"0.8714300000"	"0.1107100000"	"1"	"71"
n/a	"html-keyboard-response"	"159"	"9909324"	"0.0-5.0-2.0-0.53"	"0nb11g"	"600"	"1366"	"chrome"	"110.0.0"	"FALSE"	"Windows 10"	"61.06"	"035"	n/a	n/a	n/a	n/a	n/a	n/a	"fixation"	n/a	n/a	n/a	n/a	"NULL"	n/a	"NULL"	"NULL"	"NULL"	"<p style=\"color: black; font-size: 80px; padding-left: 47%; padding-right: 8%; padding-top: 20%; padding-bottom: 39%\">+</p>"	"1237"	n/a	n/a	n/a	n/a	n/a	n/a	n/a	n/a	n/a
n/a	"image-keyboard-response"	"160"	"9910083"	"0.0-5.0-2.0-1.53"	"0nb11g"	"600"	"1366"	"chrome"	"110.0.0"	"FALSE"	"Windows 10"	"61.06"	"035"	n/a	n/a	n/a	n/a	n/a	n/a	"Trial"	n/a	n/a	n/a	"758"	"arrowright"	n/a	"NULL"	"NULL"	"NULL"	"stimuli/Ebbinghaus_-0.61429_-0.11071.png"	n/a	"Ebbinghaus"	"arrowright"	"1246"	"TRUE"	"Ebbinghaus"	"-0.614290000"	"-0.110710000"	"1"	"72"
n/a	"html-keyboard-response"	"161"	"9911388"	"0.0-5.0-2.0-0.54"	"0nb11g"	"600"	"1366"	"chrome"	"110.0.0"	"FALSE"	"Windows 10"	"61.06"	"035"	n/a	n/a	n/a	n/a	n/a	n/a	"fixation"	n/a	n/a	n/a	n/a	"NULL"	n/a	"NULL"	"NULL"	"NULL"	"<p style=\"color: black; font-size: 80px; padding-left: 43%; padding-right: 3%; padding-top: 9%; padding-bottom: 43%\">+</p>"	"1300"	n/a	n/a	n/a	n/a	n/a	n/a	n/a	n/a	n/a
n/a	"image-keyboard-response"	"162"	"9912158"	"0.0-5.0-2.0-1.54"	"0nb11g"	"600"	"1366"	"chrome"	"110.0.0"	"FALSE"	"Windows 10"	"61.06"	"035"	n/a	n/a	n/a	n/a	n/a	n/a	"Trial"	n/a	n/a	n/a	"769"	"arrowright"	n/a	"NULL"	"NULL"	"NULL"	"stimuli/Ebbinghaus_-0.1000_-0.2150.png"	n/a	"Ebbinghaus"	"arrowright"	"1305"	"TRUE"	"Ebbinghaus"	"-0.100000000"	"-0.215000000"	"1"	"73"
n/a	"html-keyboard-response"	"163"	"9913358"	"0.0-5.0-2.0-0.55"	"0nb11g"	"600"	"1366"	"chrome"	"110.0.0"	"FALSE"	"Windows 10"	"61.06"	"035"	n/a	n/a	n/a	n/a	n/a	n/a	"fixation"	n/a	n/a	n/a	n/a	"NULL"	n/a	"NULL"	"NULL"	"NULL"	"<p style=\"color: black; font-size: 80px; padding-left: 15%; padding-right: 33%; padding-top: 39%; padding-bottom: 14%\">+</p>"	"1186"	n/a	n/a	n/a	n/a	n/a	n/a	n/a	n/a	n/a
n/a	"image-keyboard-response"	"164"	"9914027"	"0.0-5.0-2.0-1.55"	"0nb11g"	"600"	"1366"	"chrome"	"110.0.0"	"FALSE"	"Windows 10"	"61.06"	"035"	n/a	n/a	n/a	n/a	n/a	n/a	"Trial"	n/a	n/a	n/a	"669"	"arrowright"	n/a	"NULL"	"NULL"	"NULL"	"stimuli/Ebbinghaus_-0.35714_-0.2800.png"	n/a	"Ebbinghaus"	"arrowright"	"1200"	"TRUE"	"Ebbinghaus"	"-0.357140000"	"-0.280000000"	"1"	"74"
n/a	"html-keyboard-response"	"165"	"9915384"	"0.0-5.0-2.0-0.56"	"0nb11g"	"600"	"1366"	"chrome"	"110.0.0"	"FALSE"	"Windows 10"	"61.06"	"035"	n/a	n/a	n/a	n/a	n/a	n/a	"fixation"	n/a	n/a	n/a	n/a	"NULL"	n/a	"NULL"	"NULL"	"NULL"	"<p style=\"color: black; font-size: 80px; padding-left: 1%; padding-right: 37%; padding-top: 17%; padding-bottom: 47%\">+</p>"	"1352"	n/a	n/a	n/a	n/a	n/a	n/a	n/a	n/a	n/a
n/a	"image-keyboard-response"	"166"	"9916263"	"0.0-5.0-2.0-1.56"	"0nb11g"	"600"	"1366"	"chrome"	"110.0.0"	"FALSE"	"Windows 10"	"61.06"	"035"	n/a	n/a	n/a	n/a	n/a	n/a	"Trial"	n/a	n/a	n/a	"878"	"arrowright"	n/a	"NULL"	"NULL"	"NULL"	"stimuli/Ebbinghaus_0.35714_-0.15857.png"	n/a	"Ebbinghaus"	"arrowright"	"1357"	"TRUE"	"Ebbinghaus"	"0.3571400000"	"-0.158570000"	"1"	"75"
n/a	"html-keyboard-response"	"167"	"9917689"	"0.0-5.0-2.0-0.57"	"0nb11g"	"600"	"1366"	"chrome"	"110.0.0"	"FALSE"	"Windows 10"	"61.06"	"035"	n/a	n/a	n/a	n/a	n/a	n/a	"fixation"	n/a	n/a	n/a	n/a	"NULL"	n/a	"NULL"	"NULL"	"NULL"	"<p style=\"color: black; font-size: 80px; padding-left: 12%; padding-right: 29%; padding-top: 4%; padding-bottom: 10%\">+</p>"	"1410"	n/a	n/a	n/a	n/a	n/a	n/a	n/a	n/a	n/a
n/a	"image-keyboard-response"	"168"	"9918694"	"0.0-5.0-2.0-1.57"	"0nb11g"	"600"	"1366"	"chrome"	"110.0.0"	"FALSE"	"Windows 10"	"61.06"	"035"	n/a	n/a	n/a	n/a	n/a	n/a	"Trial"	n/a	n/a	n/a	"1005"	"arrowleft"	n/a	"NULL"	"NULL"	"NULL"	"stimuli/Ebbinghaus_-0.35714_0.15857.png"	n/a	"Ebbinghaus"	"arrowleft"	"1426"	"TRUE"	"Ebbinghaus"	"-0.357140000"	"0.1585700000"	"1"	"76"
n/a	"html-keyboard-response"	"169"	"9919930"	"0.0-5.0-2.0-0.58"	"0nb11g"	"600"	"1366"	"chrome"	"110.0.0"	"FALSE"	"Windows 10"	"61.06"	"035"	n/a	n/a	n/a	n/a	n/a	n/a	"fixation"	n/a	n/a	n/a	n/a	"NULL"	n/a	"NULL"	"NULL"	"NULL"	"<p style=\"color: black; font-size: 80px; padding-left: 48%; padding-right: 48%; padding-top: 28%; padding-bottom: 47%\">+</p>"	"1231"	n/a	n/a	n/a	n/a	n/a	n/a	n/a	n/a	n/a
n/a	"image-keyboard-response"	"170"	"9920877"	"0.0-5.0-2.0-1.58"	"0nb11g"	"600"	"1366"	"chrome"	"110.0.0"	"FALSE"	"Windows 10"	"61.06"	"035"	n/a	n/a	n/a	n/a	n/a	n/a	"Trial"	n/a	n/a	n/a	"947"	"arrowleft"	n/a	"NULL"	"NULL"	"NULL"	"stimuli/Ebbinghaus_-0.61429_0.11071.png"	n/a	"Ebbinghaus"	"arrowleft"	"1236"	"TRUE"	"Ebbinghaus"	"-0.614290000"	"0.1107100000"	"1"	"77"
n/a	"html-keyboard-response"	"171"	"9921993"	"0.0-5.0-2.0-0.59"	"0nb11g"	"600"	"1366"	"chrome"	"110.0.0"	"FALSE"	"Windows 10"	"61.06"	"035"	n/a	n/a	n/a	n/a	n/a	n/a	"fixation"	n/a	n/a	n/a	n/a	"NULL"	n/a	"NULL"	"NULL"	"NULL"	"<p style=\"color: black; font-size: 80px; padding-left: 10%; padding-right: 1%; padding-top: 34%; padding-bottom: 21%\">+</p>"	"1107"	n/a	n/a	n/a	n/a	n/a	n/a	n/a	n/a	n/a
n/a	"image-keyboard-response"	"172"	"9922848"	"0.0-5.0-2.0-1.59"	"0nb11g"	"600"	"1366"	"chrome"	"110.0.0"	"FALSE"	"Windows 10"	"61.06"	"035"	n/a	n/a	n/a	n/a	n/a	n/a	"Trial"	n/a	n/a	n/a	"854"	"arrowleft"	n/a	"NULL"	"NULL"	"NULL"	"stimuli/Ebbinghaus_-0.35714_0.21500.png"	n/a	"Ebbinghaus"	"arrowleft"	"1116"	"TRUE"	"Ebbinghaus"	"-0.357140000"	"0.2150000000"	"1"	"78"
n/a	"html-keyboard-response"	"173"	"9924099"	"0.0-5.0-2.0-0.60"	"0nb11g"	"600"	"1366"	"chrome"	"110.0.0"	"FALSE"	"Windows 10"	"61.06"	"035"	n/a	n/a	n/a	n/a	n/a	n/a	"fixation"	n/a	n/a	n/a	n/a	"NULL"	n/a	"NULL"	"NULL"	"NULL"	"<p style=\"color: black; font-size: 80px; padding-left: 37%; padding-right: 39%; padding-top: 45%; padding-bottom: 6%\">+</p>"	"1244"	n/a	n/a	n/a	n/a	n/a	n/a	n/a	n/a	n/a
n/a	"image-keyboard-response"	"174"	"9925001"	"0.0-5.0-2.0-1.60"	"0nb11g"	"600"	"1366"	"chrome"	"110.0.0"	"FALSE"	"Windows 10"	"61.06"	"035"	n/a	n/a	n/a	n/a	n/a	n/a	"Trial"	n/a	n/a	n/a	"901"	"arrowleft"	n/a	"NULL"	"NULL"	"NULL"	"stimuli/Ebbinghaus_-0.35714_0.28000.png"	n/a	"Ebbinghaus"	"arrowleft"	"1251"	"TRUE"	"Ebbinghaus"	"-0.357140000"	"0.2800000000"	"1"	"79"
n/a	"html-keyboard-response"	"175"	"9926090"	"0.0-5.0-2.0-0.61"	"0nb11g"	"600"	"1366"	"chrome"	"110.0.0"	"FALSE"	"Windows 10"	"61.06"	"035"	n/a	n/a	n/a	n/a	n/a	n/a	"fixation"	n/a	n/a	n/a	n/a	"NULL"	n/a	"NULL"	"NULL"	"NULL"	"<p style=\"color: black; font-size: 80px; padding-left: 41%; padding-right: 47%; padding-top: 16%; padding-bottom: 9%\">+</p>"	"1086"	n/a	n/a	n/a	n/a	n/a	n/a	n/a	n/a	n/a
n/a	"image-keyboard-response"	"176"	"9926749"	"0.0-5.0-2.0-1.61"	"0nb11g"	"600"	"1366"	"chrome"	"110.0.0"	"FALSE"	"Windows 10"	"61.06"	"035"	n/a	n/a	n/a	n/a	n/a	n/a	"Trial"	n/a	n/a	n/a	"657"	"arrowright"	n/a	"NULL"	"NULL"	"NULL"	"stimuli/Ebbinghaus_-0.61429_-0.2150.png"	n/a	"Ebbinghaus"	"arrowright"	"1089"	"TRUE"	"Ebbinghaus"	"-0.614290000"	"-0.215000000"	"1"	"80"
n/a	"html-keyboard-response"	"177"	"9928061"	"0.0-5.0-2.0-0.62"	"0nb11g"	"600"	"1366"	"chrome"	"110.0.0"	"FALSE"	"Windows 10"	"61.06"	"035"	n/a	n/a	n/a	n/a	n/a	n/a	"fixation"	n/a	n/a	n/a	n/a	"NULL"	n/a	"NULL"	"NULL"	"NULL"	"<p style=\"color: black; font-size: 80px; padding-left: 37%; padding-right: 30%; padding-top: 43%; padding-bottom: 17%\">+</p>"	"1308"	n/a	n/a	n/a	n/a	n/a	n/a	n/a	n/a	n/a
n/a	"image-keyboard-response"	"178"	"9928669"	"0.0-5.0-2.0-1.62"	"0nb11g"	"600"	"1366"	"chrome"	"110.0.0"	"FALSE"	"Windows 10"	"61.06"	"035"	n/a	n/a	n/a	n/a	n/a	n/a	"Trial"	n/a	n/a	n/a	"608"	"arrowright"	n/a	"NULL"	"NULL"	"NULL"	"stimuli/Ebbinghaus_-0.35714_-0.11071.png"	n/a	"Ebbinghaus"	"arrowright"	"1312"	"TRUE"	"Ebbinghaus"	"-0.357140000"	"-0.110710000"	"1"	"81"
n/a	"html-keyboard-response"	"179"	"9929783"	"0.0-5.0-2.0-0.63"	"0nb11g"	"600"	"1366"	"chrome"	"110.0.0"	"FALSE"	"Windows 10"	"61.06"	"035"	n/a	n/a	n/a	n/a	n/a	n/a	"fixation"	n/a	n/a	n/a	n/a	"NULL"	n/a	"NULL"	"NULL"	"NULL"	"<p style=\"color: black; font-size: 80px; padding-left: 39%; padding-right: 27%; padding-top: 12%; padding-bottom: 32%\">+</p>"	"1106"	n/a	n/a	n/a	n/a	n/a	n/a	n/a	n/a	n/a
n/a	"image-keyboard-response"	"180"	"9930484"	"0.0-5.0-2.0-1.63"	"0nb11g"	"600"	"1366"	"chrome"	"110.0.0"	"FALSE"	"Windows 10"	"61.06"	"035"	n/a	n/a	n/a	n/a	n/a	n/a	"Trial"	n/a	n/a	n/a	"701"	"arrowright"	n/a	"NULL"	"NULL"	"NULL"	"stimuli/Ebbinghaus_0.10000_-0.2800.png"	n/a	"Ebbinghaus"	"arrowright"	"1114"	"TRUE"	"Ebbinghaus"	"0.1000000000"	"-0.280000000"	"1"	"82"
n/a	"html-button-response"	"181"	"9950795"	"0.0-5.0-3.0"	"0nb11g"	"600"	"1366"	"chrome"	"110.0.0"	"FALSE"	"Windows 10"	"61.06"	"035"	n/a	n/a	n/a	n/a	n/a	n/a	"block_results"	n/a	n/a	n/a	"20309"	"0"	n/a	"NULL"	"NULL"	"NULL"	"<p>Your score for this illusion is <p style=\"color: black; font-size: 48px; font-weight: bold;\">75.4 %</p><hr><p>Can you do better in the next illusion?</p>"	n/a	n/a	n/a	n/a	n/a	n/a	n/a	n/a	n/a	n/a
"TRUE"	"preload"	"182"	"9950958"	"0.0-6.0-0.0"	"0nb11g"	"600"	"1366"	"chrome"	"110.0.0"	"FALSE"	"Windows 10"	"61.06"	"035"	n/a	n/a	n/a	n/a	n/a	n/a	n/a	n/a	n/a	n/a	n/a	"NULL"	"FALSE"	"list()"	"list()"	"list()"	n/a	n/a	n/a	n/a	n/a	n/a	n/a	n/a	n/a	n/a	n/a
n/a	"html-keyboard-response"	"183"	"9953426"	"0.0-6.0-1.0"	"0nb11g"	"600"	"1366"	"chrome"	"110.0.0"	"FALSE"	"Windows 10"	"61.06"	"035"	n/a	n/a	n/a	n/a	n/a	n/a	n/a	n/a	n/a	n/a	"2468"	"enter"	n/a	"NULL"	"NULL"	"NULL"	"<p><b>Part 2/6</b></p><p>In this part, two horizontal red lines will appear one above the other.</p><p>Your task is to select which <b>line is longer</b> in length as fast as you can, without making errors.</p><p>Don't get distracted by the surrounding black arrows at the end of the red lines!</p><p>Press <b>the UP or the DOWN arrow</b> to indicate where is the longer <b>red line.</b></p><div style='float: center'><img src='materials/instructions/MullerLyer_Demo.png' height='300'></img><p><img src='utils/answer/answer_updown_keyboard.PNG' height='150'></img></p><p class='small'>In this example, the correct answer is the <b>UP arrow</b>.</p></div><p>Are you ready? <b>Press ENTER to start</b></p>"	n/a	n/a	n/a	n/a	n/a	n/a	n/a	n/a	n/a	n/a
n/a	"html-keyboard-response"	"184"	"9954951"	"0.0-6.0-2.0-0.0"	"0nb11g"	"600"	"1366"	"chrome"	"110.0.0"	"FALSE"	"Windows 10"	"61.06"	"035"	n/a	n/a	n/a	n/a	n/a	n/a	"fixation"	n/a	n/a	n/a	n/a	"NULL"	n/a	"NULL"	"NULL"	"NULL"	"<p style=\"color: black; font-size: 80px; padding-left: 49%; padding-right: 50%; padding-top: 41%; padding-bottom: 35%\">+</p>"	"1015"	n/a	n/a	n/a	n/a	n/a	n/a	n/a	n/a	n/a
n/a	"image-keyboard-response"	"185"	"9955531"	"0.0-6.0-2.0-1.0"	"0nb11g"	"600"	"1366"	"chrome"	"110.0.0"	"FALSE"	"Windows 10"	"61.06"	"035"	n/a	n/a	n/a	n/a	n/a	n/a	"Trial"	n/a	n/a	n/a	"580"	"arrowdown"	n/a	"NULL"	"NULL"	"NULL"	"stimuli/MullerLyer_2.30000_-0.3500.png"	n/a	"MullerLyer"	"arrowdown"	"1525"	"TRUE"	"MullerLyer"	"2.3000000000"	"-0.350000000"	"2"	"1"
n/a	"html-keyboard-response"	"186"	"9957033"	"0.0-6.0-2.0-0.1"	"0nb11g"	"600"	"1366"	"chrome"	"110.0.0"	"FALSE"	"Windows 10"	"61.06"	"035"	n/a	n/a	n/a	n/a	n/a	n/a	"fixation"	n/a	n/a	n/a	n/a	"NULL"	n/a	"NULL"	"NULL"	"NULL"	"<p style=\"color: black; font-size: 80px; padding-left: 7%; padding-right: 20%; padding-top: 8%; padding-bottom: 35%\">+</p>"	"1489"	n/a	n/a	n/a	n/a	n/a	n/a	n/a	n/a	n/a
n/a	"image-keyboard-response"	"187"	"9957584"	"0.0-6.0-2.0-1.1"	"0nb11g"	"600"	"1366"	"chrome"	"110.0.0"	"FALSE"	"Windows 10"	"61.06"	"035"	n/a	n/a	n/a	n/a	n/a	n/a	"Trial"	n/a	n/a	n/a	"551"	"arrowdown"	n/a	"NULL"	"NULL"	"NULL"	"stimuli/MullerLyer_-20.04286_-0.14541.png"	n/a	"MullerLyer"	"arrowdown"	"1502"	"TRUE"	"MullerLyer"	"-20.04286000"	"-0.145410000"	"2"	"2"
n/a	"html-keyboard-response"	"188"	"9958997"	"0.0-6.0-2.0-0.2"	"0nb11g"	"600"	"1366"	"chrome"	"110.0.0"	"FALSE"	"Windows 10"	"61.06"	"035"	n/a	n/a	n/a	n/a	n/a	n/a	"fixation"	n/a	n/a	n/a	n/a	"NULL"	n/a	"NULL"	"NULL"	"NULL"	"<p style=\"color: black; font-size: 80px; padding-left: 12%; padding-right: 18%; padding-top: 37%; padding-bottom: 12%\">+</p>"	"1401"	n/a	n/a	n/a	n/a	n/a	n/a	n/a	n/a	n/a
n/a	"image-keyboard-response"	"189"	"9960028"	"0.0-6.0-2.0-1.2"	"0nb11g"	"600"	"1366"	"chrome"	"110.0.0"	"FALSE"	"Windows 10"	"61.06"	"035"	n/a	n/a	n/a	n/a	n/a	n/a	"Trial"	n/a	n/a	n/a	"1031"	"arrowdown"	n/a	"NULL"	"NULL"	"NULL"	"stimuli/MullerLyer_-2.3000_-0.07627.png"	n/a	"MullerLyer"	"arrowdown"	"1413"	"TRUE"	"MullerLyer"	"-2.300000000"	"-0.076270000"	"2"	"3"
n/a	"html-keyboard-response"	"190"	"9961314"	"0.0-6.0-2.0-0.3"	"0nb11g"	"600"	"1366"	"chrome"	"110.0.0"	"FALSE"	"Windows 10"	"61.06"	"035"	n/a	n/a	n/a	n/a	n/a	n/a	"fixation"	n/a	n/a	n/a	n/a	"NULL"	n/a	"NULL"	"NULL"	"NULL"	"<p style=\"color: black; font-size: 80px; padding-left: 44%; padding-right: 42%; padding-top: 37%; padding-bottom: 39%\">+</p>"	"1272"	n/a	n/a	n/a	n/a	n/a	n/a	n/a	n/a	n/a
n/a	"image-keyboard-response"	"191"	"9961995"	"0.0-6.0-2.0-1.3"	"0nb11g"	"600"	"1366"	"chrome"	"110.0.0"	"FALSE"	"Windows 10"	"61.06"	"035"	n/a	n/a	n/a	n/a	n/a	n/a	"Trial"	n/a	n/a	n/a	"681"	"arrowup"	n/a	"NULL"	"NULL"	"NULL"	"stimuli/MullerLyer_-8.21429_0.07627.png"	n/a	"MullerLyer"	"arrowup"	"1286"	"TRUE"	"MullerLyer"	"-8.214290000"	"0.0762700000"	"2"	"4"
n/a	"html-keyboard-response"	"192"	"9963463"	"0.0-6.0-2.0-0.4"	"0nb11g"	"600"	"1366"	"chrome"	"110.0.0"	"FALSE"	"Windows 10"	"61.06"	"035"	n/a	n/a	n/a	n/a	n/a	n/a	"fixation"	n/a	n/a	n/a	n/a	"NULL"	n/a	"NULL"	"NULL"	"NULL"	"<p style=\"color: black; font-size: 80px; padding-left: 46%; padding-right: 11%; padding-top: 8%; padding-bottom: 11%\">+</p>"	"1461"	n/a	n/a	n/a	n/a	n/a	n/a	n/a	n/a	n/a
n/a	"image-keyboard-response"	"193"	"9964177"	"0.0-6.0-2.0-1.4"	"0nb11g"	"600"	"1366"	"chrome"	"110.0.0"	"FALSE"	"Windows 10"	"61.06"	"035"	n/a	n/a	n/a	n/a	n/a	n/a	"Trial"	n/a	n/a	n/a	"713"	"arrowup"	n/a	"NULL"	"NULL"	"NULL"	"stimuli/MullerLyer_8.21429_0.23665.png"	n/a	"MullerLyer"	"arrowup"	"1468"	"TRUE"	"MullerLyer"	"8.2142900000"	"0.2366500000"	"2"	"5"
n/a	"html-keyboard-response"	"194"	"9965312"	"0.0-6.0-2.0-0.5"	"0nb11g"	"600"	"1366"	"chrome"	"110.0.0"	"FALSE"	"Windows 10"	"61.06"	"035"	n/a	n/a	n/a	n/a	n/a	n/a	"fixation"	n/a	n/a	n/a	n/a	"NULL"	n/a	"NULL"	"NULL"	"NULL"	"<p style=\"color: black; font-size: 80px; padding-left: 38%; padding-right: 47%; padding-top: 35%; padding-bottom: 46%\">+</p>"	"1133"	n/a	n/a	n/a	n/a	n/a	n/a	n/a	n/a	n/a
n/a	"image-keyboard-response"	"195"	"9966522"	"0.0-6.0-2.0-1.5"	"0nb11g"	"600"	"1366"	"chrome"	"110.0.0"	"FALSE"	"Windows 10"	"61.06"	"035"	n/a	n/a	n/a	n/a	n/a	n/a	"Trial"	n/a	n/a	n/a	"1209"	"arrowup"	n/a	"NULL"	"NULL"	"NULL"	"stimuli/MullerLyer_2.30000_0.07627.png"	n/a	"MullerLyer"	"arrowup"	"1135"	"TRUE"	"MullerLyer"	"2.3000000000"	"0.0762700000"	"2"	"6"
n/a	"html-keyboard-response"	"196"	"9967905"	"0.0-6.0-2.0-0.6"	"0nb11g"	"600"	"1366"	"chrome"	"110.0.0"	"FALSE"	"Windows 10"	"61.06"	"035"	n/a	n/a	n/a	n/a	n/a	n/a	"fixation"	n/a	n/a	n/a	n/a	"NULL"	n/a	"NULL"	"NULL"	"NULL"	"<p style=\"color: black; font-size: 80px; padding-left: 26%; padding-right: 5%; padding-top: 3%; padding-bottom: 26%\">+</p>"	"1373"	n/a	n/a	n/a	n/a	n/a	n/a	n/a	n/a	n/a
n/a	"image-keyboard-response"	"197"	"9968648"	"0.0-6.0-2.0-1.6"	"0nb11g"	"600"	"1366"	"chrome"	"110.0.0"	"FALSE"	"Windows 10"	"61.06"	"035"	n/a	n/a	n/a	n/a	n/a	n/a	"Trial"	n/a	n/a	n/a	"742"	"arrowdown"	n/a	"NULL"	"NULL"	"NULL"	"stimuli/MullerLyer_-8.21429_-0.14541.png"	n/a	"MullerLyer"	"arrowdown"	"1383"	"TRUE"	"MullerLyer"	"-8.214290000"	"-0.145410000"	"2"	"7"
n/a	"html-keyboard-response"	"198"	"9970092"	"0.0-6.0-2.0-0.7"	"0nb11g"	"600"	"1366"	"chrome"	"110.0.0"	"FALSE"	"Windows 10"	"61.06"	"035"	n/a	n/a	n/a	n/a	n/a	n/a	"fixation"	n/a	n/a	n/a	n/a	"NULL"	n/a	"NULL"	"NULL"	"NULL"	"<p style=\"color: black; font-size: 80px; padding-left: 17%; padding-right: 3%; padding-top: 7%; padding-bottom: 17%\">+</p>"	"1442"	n/a	n/a	n/a	n/a	n/a	n/a	n/a	n/a	n/a
n/a	"image-keyboard-response"	"199"	"9970751"	"0.0-6.0-2.0-1.7"	"0nb11g"	"600"	"1366"	"chrome"	"110.0.0"	"FALSE"	"Windows 10"	"61.06"	"035"	n/a	n/a	n/a	n/a	n/a	n/a	"Trial"	n/a	n/a	n/a	"658"	"arrowup"	n/a	"NULL"	"NULL"	"NULL"	"stimuli/MullerLyer_-14.12857_0.07627.png"	n/a	"MullerLyer"	"arrowup"	"1444"	"TRUE"	"MullerLyer"	"-14.12857000"	"0.0762700000"	"2"	"8"
n/a	"html-keyboard-response"	"200"	"9971786"	"0.0-6.0-2.0-0.8"	"0nb11g"	"600"	"1366"	"chrome"	"110.0.0"	"FALSE"	"Windows 10"	"61.06"	"035"	n/a	n/a	n/a	n/a	n/a	n/a	"fixation"	n/a	n/a	n/a	n/a	"NULL"	n/a	"NULL"	"NULL"	"NULL"	"<p style=\"color: black; font-size: 80px; padding-left: 36%; padding-right: 24%; padding-top: 40%; padding-bottom: 29%\">+</p>"	"1031"	n/a	n/a	n/a	n/a	n/a	n/a	n/a	n/a	n/a
n/a	"image-keyboard-response"	"201"	"9972439"	"0.0-6.0-2.0-1.8"	"0nb11g"	"600"	"1366"	"chrome"	"110.0.0"	"FALSE"	"Windows 10"	"61.06"	"035"	n/a	n/a	n/a	n/a	n/a	n/a	"Trial"	n/a	n/a	n/a	"653"	"arrowdown"	n/a	"NULL"	"NULL"	"NULL"	"stimuli/MullerLyer_-2.3000_-0.14541.png"	n/a	"MullerLyer"	"arrowdown"	"1035"	"TRUE"	"MullerLyer"	"-2.300000000"	"-0.145410000"	"2"	"9"
n/a	"html-keyboard-response"	"202"	"9973773"	"0.0-6.0-2.0-0.9"	"0nb11g"	"600"	"1366"	"chrome"	"110.0.0"	"FALSE"	"Windows 10"	"61.06"	"035"	n/a	n/a	n/a	n/a	n/a	n/a	"fixation"	n/a	n/a	n/a	n/a	"NULL"	n/a	"NULL"	"NULL"	"NULL"	"<p style=\"color: black; font-size: 80px; padding-left: 45%; padding-right: 10%; padding-top: 11%; padding-bottom: 35%\">+</p>"	"1321"	n/a	n/a	n/a	n/a	n/a	n/a	n/a	n/a	n/a
n/a	"image-keyboard-response"	"203"	"9974392"	"0.0-6.0-2.0-1.9"	"0nb11g"	"600"	"1366"	"chrome"	"110.0.0"	"FALSE"	"Windows 10"	"61.06"	"035"	n/a	n/a	n/a	n/a	n/a	n/a	"Trial"	n/a	n/a	n/a	"618"	"arrowdown"	n/a	"NULL"	"NULL"	"NULL"	"stimuli/MullerLyer_-8.21429_-0.3500.png"	n/a	"MullerLyer"	"arrowdown"	"1334"	"TRUE"	"MullerLyer"	"-8.214290000"	"-0.350000000"	"2"	"10"
n/a	"html-keyboard-response"	"204"	"9975429"	"0.0-6.0-2.0-0.10"	"0nb11g"	"600"	"1366"	"chrome"	"110.0.0"	"FALSE"	"Windows 10"	"61.06"	"035"	n/a	n/a	n/a	n/a	n/a	n/a	"fixation"	n/a	n/a	n/a	n/a	"NULL"	n/a	"NULL"	"NULL"	"NULL"	"<p style=\"color: black; font-size: 80px; padding-left: 21%; padding-right: 22%; padding-top: 11%; padding-bottom: 46%\">+</p>"	"1031"	n/a	n/a	n/a	n/a	n/a	n/a	n/a	n/a	n/a
n/a	"image-keyboard-response"	"205"	"9976260"	"0.0-6.0-2.0-1.10"	"0nb11g"	"600"	"1366"	"chrome"	"110.0.0"	"FALSE"	"Windows 10"	"61.06"	"035"	n/a	n/a	n/a	n/a	n/a	n/a	"Trial"	n/a	n/a	n/a	"829"	"arrowup"	n/a	"NULL"	"NULL"	"NULL"	"stimuli/MullerLyer_8.21429_0.07627.png"	n/a	"MullerLyer"	"arrowup"	"1037"	"TRUE"	"MullerLyer"	"8.2142900000"	"0.0762700000"	"2"	"11"
n/a	"html-keyboard-response"	"206"	"9977356"	"0.0-6.0-2.0-0.11"	"0nb11g"	"600"	"1366"	"chrome"	"110.0.0"	"FALSE"	"Windows 10"	"61.06"	"035"	n/a	n/a	n/a	n/a	n/a	n/a	"fixation"	n/a	n/a	n/a	n/a	"NULL"	n/a	"NULL"	"NULL"	"NULL"	"<p style=\"color: black; font-size: 80px; padding-left: 35%; padding-right: 3%; padding-top: 40%; padding-bottom: 39%\">+</p>"	"1093"	n/a	n/a	n/a	n/a	n/a	n/a	n/a	n/a	n/a
n/a	"image-keyboard-response"	"207"	"9977998"	"0.0-6.0-2.0-1.11"	"0nb11g"	"600"	"1366"	"chrome"	"110.0.0"	"FALSE"	"Windows 10"	"61.06"	"035"	n/a	n/a	n/a	n/a	n/a	n/a	"Trial"	n/a	n/a	n/a	"641"	"arrowdown"	n/a	"NULL"	"NULL"	"NULL"	"stimuli/MullerLyer_-14.12857_-0.23665.png"	n/a	"MullerLyer"	"arrowdown"	"1096"	"TRUE"	"MullerLyer"	"-14.12857000"	"-0.236650000"	"2"	"12"
n/a	"html-keyboard-response"	"208"	"9979090"	"0.0-6.0-2.0-0.12"	"0nb11g"	"600"	"1366"	"chrome"	"110.0.0"	"FALSE"	"Windows 10"	"61.06"	"035"	n/a	n/a	n/a	n/a	n/a	n/a	"fixation"	n/a	n/a	n/a	n/a	"NULL"	n/a	"NULL"	"NULL"	"NULL"	"<p style=\"color: black; font-size: 80px; padding-left: 18%; padding-right: 48%; padding-top: 18%; padding-bottom: 9%\">+</p>"	"1078"	n/a	n/a	n/a	n/a	n/a	n/a	n/a	n/a	n/a
n/a	"image-keyboard-response"	"209"	"9979734"	"0.0-6.0-2.0-1.12"	"0nb11g"	"600"	"1366"	"chrome"	"110.0.0"	"FALSE"	"Windows 10"	"61.06"	"035"	n/a	n/a	n/a	n/a	n/a	n/a	"Trial"	n/a	n/a	n/a	"643"	"arrowdown"	n/a	"NULL"	"NULL"	"NULL"	"stimuli/MullerLyer_2.30000_-0.23665.png"	n/a	"MullerLyer"	"arrowdown"	"1092"	"TRUE"	"MullerLyer"	"2.3000000000"	"-0.236650000"	"2"	"13"
n/a	"html-keyboard-response"	"210"	"9981075"	"0.0-6.0-2.0-0.13"	"0nb11g"	"600"	"1366"	"chrome"	"110.0.0"	"FALSE"	"Windows 10"	"61.06"	"035"	n/a	n/a	n/a	n/a	n/a	n/a	"fixation"	n/a	n/a	n/a	n/a	"NULL"	n/a	"NULL"	"NULL"	"NULL"	"<p style=\"color: black; font-size: 80px; padding-left: 17%; padding-right: 16%; padding-top: 22%; padding-bottom: 38%\">+</p>"	"1340"	n/a	n/a	n/a	n/a	n/a	n/a	n/a	n/a	n/a
n/a	"image-keyboard-response"	"211"	"9981704"	"0.0-6.0-2.0-1.13"	"0nb11g"	"600"	"1366"	"chrome"	"110.0.0"	"FALSE"	"Windows 10"	"61.06"	"035"	n/a	n/a	n/a	n/a	n/a	n/a	"Trial"	n/a	n/a	n/a	"628"	"arrowdown"	n/a	"NULL"	"NULL"	"NULL"	"stimuli/MullerLyer_-14.12857_-0.14541.png"	n/a	"MullerLyer"	"arrowdown"	"1341"	"TRUE"	"MullerLyer"	"-14.12857000"	"-0.145410000"	"2"	"14"
n/a	"html-keyboard-response"	"212"	"9982766"	"0.0-6.0-2.0-0.14"	"0nb11g"	"600"	"1366"	"chrome"	"110.0.0"	"FALSE"	"Windows 10"	"61.06"	"035"	n/a	n/a	n/a	n/a	n/a	n/a	"fixation"	n/a	n/a	n/a	n/a	"NULL"	n/a	"NULL"	"NULL"	"NULL"	"<p style=\"color: black; font-size: 80px; padding-left: 31%; padding-right: 13%; padding-top: 17%; padding-bottom: 43%\">+</p>"	"1060"	n/a	n/a	n/a	n/a	n/a	n/a	n/a	n/a	n/a
n/a	"image-keyboard-response"	"213"	"9983410"	"0.0-6.0-2.0-1.14"	"0nb11g"	"600"	"1366"	"chrome"	"110.0.0"	"FALSE"	"Windows 10"	"61.06"	"035"	n/a	n/a	n/a	n/a	n/a	n/a	"Trial"	n/a	n/a	n/a	"644"	"arrowup"	n/a	"NULL"	"NULL"	"NULL"	"stimuli/MullerLyer_20.04286_-0.14541.png"	n/a	"MullerLyer"	"arrowdown"	"1062"	"FALSE"	"MullerLyer"	"20.042860000"	"-0.145410000"	"2"	"15"
n/a	"html-keyboard-response"	"214"	"9984779"	"0.0-6.0-2.0-0.15"	"0nb11g"	"600"	"1366"	"chrome"	"110.0.0"	"FALSE"	"Windows 10"	"61.06"	"035"	n/a	n/a	n/a	n/a	n/a	n/a	"fixation"	n/a	n/a	n/a	n/a	"NULL"	n/a	"NULL"	"NULL"	"NULL"	"<p style=\"color: black; font-size: 80px; padding-left: 17%; padding-right: 38%; padding-top: 26%; padding-bottom: 39%\">+</p>"	"1363"	n/a	n/a	n/a	n/a	n/a	n/a	n/a	n/a	n/a
n/a	"image-keyboard-response"	"215"	"9985265"	"0.0-6.0-2.0-1.15"	"0nb11g"	"600"	"1366"	"chrome"	"110.0.0"	"FALSE"	"Windows 10"	"61.06"	"035"	n/a	n/a	n/a	n/a	n/a	n/a	"Trial"	n/a	n/a	n/a	"485"	"arrowup"	n/a	"NULL"	"NULL"	"NULL"	"stimuli/MullerLyer_-20.04286_0.14541.png"	n/a	"MullerLyer"	"arrowup"	"1369"	"TRUE"	"MullerLyer"	"-20.04286000"	"0.1454100000"	"2"	"16"
n/a	"html-keyboard-response"	"216"	"9986609"	"0.0-6.0-2.0-0.16"	"0nb11g"	"600"	"1366"	"chrome"	"110.0.0"	"FALSE"	"Windows 10"	"61.06"	"035"	n/a	n/a	n/a	n/a	n/a	n/a	"fixation"	n/a	n/a	n/a	n/a	"NULL"	n/a	"NULL"	"NULL"	"NULL"	"<p style=\"color: black; font-size: 80px; padding-left: 27%; padding-right: 27%; padding-top: 8%; padding-bottom: 47%\">+</p>"	"1335"	n/a	n/a	n/a	n/a	n/a	n/a	n/a	n/a	n/a
n/a	"image-keyboard-response"	"217"	"9987144"	"0.0-6.0-2.0-1.16"	"0nb11g"	"600"	"1366"	"chrome"	"110.0.0"	"FALSE"	"Windows 10"	"61.06"	"035"	n/a	n/a	n/a	n/a	n/a	n/a	"Trial"	n/a	n/a	n/a	"535"	"arrowup"	n/a	"NULL"	"NULL"	"NULL"	"stimuli/MullerLyer_-14.12857_0.23665.png"	n/a	"MullerLyer"	"arrowup"	"1344"	"TRUE"	"MullerLyer"	"-14.12857000"	"0.2366500000"	"2"	"17"
n/a	"html-keyboard-response"	"218"	"9988546"	"0.0-6.0-2.0-0.17"	"0nb11g"	"600"	"1366"	"chrome"	"110.0.0"	"FALSE"	"Windows 10"	"61.06"	"035"	n/a	n/a	n/a	n/a	n/a	n/a	"fixation"	n/a	n/a	n/a	n/a	"NULL"	n/a	"NULL"	"NULL"	"NULL"	"<p style=\"color: black; font-size: 80px; padding-left: 4%; padding-right: 33%; padding-top: 7%; padding-bottom: 3%\">+</p>"	"1394"	n/a	n/a	n/a	n/a	n/a	n/a	n/a	n/a	n/a
n/a	"image-keyboard-response"	"219"	"9989059"	"0.0-6.0-2.0-1.17"	"0nb11g"	"600"	"1366"	"chrome"	"110.0.0"	"FALSE"	"Windows 10"	"61.06"	"035"	n/a	n/a	n/a	n/a	n/a	n/a	"Trial"	n/a	n/a	n/a	"512"	"arrowup"	n/a	"NULL"	"NULL"	"NULL"	"stimuli/MullerLyer_20.04286_0.35000.png"	n/a	"MullerLyer"	"arrowup"	"1402"	"TRUE"	"MullerLyer"	"20.042860000"	"0.3500000000"	"2"	"18"
n/a	"html-keyboard-response"	"220"	"9990234"	"0.0-6.0-2.0-0.18"	"0nb11g"	"600"	"1366"	"chrome"	"110.0.0"	"FALSE"	"Windows 10"	"61.06"	"035"	n/a	n/a	n/a	n/a	n/a	n/a	"fixation"	n/a	n/a	n/a	n/a	"NULL"	n/a	"NULL"	"NULL"	"NULL"	"<p style=\"color: black; font-size: 80px; padding-left: 18%; padding-right: 2%; padding-top: 38%; padding-bottom: 31%\">+</p>"	"1164"	n/a	n/a	n/a	n/a	n/a	n/a	n/a	n/a	n/a
n/a	"image-keyboard-response"	"221"	"9990880"	"0.0-6.0-2.0-1.18"	"0nb11g"	"600"	"1366"	"chrome"	"110.0.0"	"FALSE"	"Windows 10"	"61.06"	"035"	n/a	n/a	n/a	n/a	n/a	n/a	"Trial"	n/a	n/a	n/a	"644"	"arrowup"	n/a	"NULL"	"NULL"	"NULL"	"stimuli/MullerLyer_8.21429_0.14541.png"	n/a	"MullerLyer"	"arrowup"	"1175"	"TRUE"	"MullerLyer"	"8.2142900000"	"0.1454100000"	"2"	"19"
n/a	"html-keyboard-response"	"222"	"9992178"	"0.0-6.0-2.0-0.19"	"0nb11g"	"600"	"1366"	"chrome"	"110.0.0"	"FALSE"	"Windows 10"	"61.06"	"035"	n/a	n/a	n/a	n/a	n/a	n/a	"fixation"	n/a	n/a	n/a	n/a	"NULL"	n/a	"NULL"	"NULL"	"NULL"	"<p style=\"color: black; font-size: 80px; padding-left: 29%; padding-right: 44%; padding-top: 25%; padding-bottom: 0%\">+</p>"	"1297"	n/a	n/a	n/a	n/a	n/a	n/a	n/a	n/a	n/a
n/a	"image-keyboard-response"	"223"	"9992835"	"0.0-6.0-2.0-1.19"	"0nb11g"	"600"	"1366"	"chrome"	"110.0.0"	"FALSE"	"Windows 10"	"61.06"	"035"	n/a	n/a	n/a	n/a	n/a	n/a	"Trial"	n/a	n/a	n/a	"656"	"arrowdown"	n/a	"NULL"	"NULL"	"NULL"	"stimuli/MullerLyer_20.04286_-0.3500.png"	n/a	"MullerLyer"	"arrowdown"	"1298"	"TRUE"	"MullerLyer"	"20.042860000"	"-0.350000000"	"2"	"20"
n/a	"html-keyboard-response"	"224"	"9994014"	"0.0-6.0-2.0-0.20"	"0nb11g"	"600"	"1366"	"chrome"	"110.0.0"	"FALSE"	"Windows 10"	"61.06"	"035"	n/a	n/a	n/a	n/a	n/a	n/a	"fixation"	n/a	n/a	n/a	n/a	"NULL"	n/a	"NULL"	"NULL"	"NULL"	"<p style=\"color: black; font-size: 80px; padding-left: 25%; padding-right: 48%; padding-top: 35%; padding-bottom: 7%\">+</p>"	"1170"	n/a	n/a	n/a	n/a	n/a	n/a	n/a	n/a	n/a
n/a	"image-keyboard-response"	"225"	"9994533"	"0.0-6.0-2.0-1.20"	"0nb11g"	"600"	"1366"	"chrome"	"110.0.0"	"FALSE"	"Windows 10"	"61.06"	"035"	n/a	n/a	n/a	n/a	n/a	n/a	"Trial"	n/a	n/a	n/a	"518"	"arrowup"	n/a	"NULL"	"NULL"	"NULL"	"stimuli/MullerLyer_-20.04286_0.23665.png"	n/a	"MullerLyer"	"arrowup"	"1179"	"TRUE"	"MullerLyer"	"-20.04286000"	"0.2366500000"	"2"	"21"
n/a	"html-keyboard-response"	"226"	"9995665"	"0.0-6.0-2.0-0.21"	"0nb11g"	"600"	"1366"	"chrome"	"110.0.0"	"FALSE"	"Windows 10"	"61.06"	"035"	n/a	n/a	n/a	n/a	n/a	n/a	"fixation"	n/a	n/a	n/a	n/a	"NULL"	n/a	"NULL"	"NULL"	"NULL"	"<p style=\"color: black; font-size: 80px; padding-left: 48%; padding-right: 41%; padding-top: 3%; padding-bottom: 0%\">+</p>"	"1124"	n/a	n/a	n/a	n/a	n/a	n/a	n/a	n/a	n/a
n/a	"image-keyboard-response"	"227"	"9996124"	"0.0-6.0-2.0-1.21"	"0nb11g"	"600"	"1366"	"chrome"	"110.0.0"	"FALSE"	"Windows 10"	"61.06"	"035"	n/a	n/a	n/a	n/a	n/a	n/a	"Trial"	n/a	n/a	n/a	"458"	"arrowup"	n/a	"NULL"	"NULL"	"NULL"	"stimuli/MullerLyer_-14.12857_0.35000.png"	n/a	"MullerLyer"	"arrowup"	"1132"	"TRUE"	"MullerLyer"	"-14.12857000"	"0.3500000000"	"2"	"22"
n/a	"html-keyboard-response"	"228"	"9997323"	"0.0-6.0-2.0-0.22"	"0nb11g"	"600"	"1366"	"chrome"	"110.0.0"	"FALSE"	"Windows 10"	"61.06"	"035"	n/a	n/a	n/a	n/a	n/a	n/a	"fixation"	n/a	n/a	n/a	n/a	"NULL"	n/a	"NULL"	"NULL"	"NULL"	"<p style=\"color: black; font-size: 80px; padding-left: 46%; padding-right: 32%; padding-top: 6%; padding-bottom: 49%\">+</p>"	"1197"	n/a	n/a	n/a	n/a	n/a	n/a	n/a	n/a	n/a
n/a	"image-keyboard-response"	"229"	"9998136"	"0.0-6.0-2.0-1.22"	"0nb11g"	"600"	"1366"	"chrome"	"110.0.0"	"FALSE"	"Windows 10"	"61.06"	"035"	n/a	n/a	n/a	n/a	n/a	n/a	"Trial"	n/a	n/a	n/a	"813"	"arrowup"	n/a	"NULL"	"NULL"	"NULL"	"stimuli/MullerLyer_2.30000_0.14541.png"	n/a	"MullerLyer"	"arrowup"	"1199"	"TRUE"	"MullerLyer"	"2.3000000000"	"0.1454100000"	"2"	"23"
n/a	"html-keyboard-response"	"230"	"9999578"	"0.0-6.0-2.0-0.23"	"0nb11g"	"600"	"1366"	"chrome"	"110.0.0"	"FALSE"	"Windows 10"	"61.06"	"035"	n/a	n/a	n/a	n/a	n/a	n/a	"fixation"	n/a	n/a	n/a	n/a	"NULL"	n/a	"NULL"	"NULL"	"NULL"	"<p style=\"color: black; font-size: 80px; padding-left: 25%; padding-right: 7%; padding-top: 36%; padding-bottom: 10%\">+</p>"	"1427"	n/a	n/a	n/a	n/a	n/a	n/a	n/a	n/a	n/a
n/a	"image-keyboard-response"	"231"	"10000210"	"0.0-6.0-2.0-1.23"	"0nb11g"	"600"	"1366"	"chrome"	"110.0.0"	"FALSE"	"Windows 10"	"61.06"	"035"	n/a	n/a	n/a	n/a	n/a	n/a	"Trial"	n/a	n/a	n/a	"632"	"arrowdown"	n/a	"NULL"	"NULL"	"NULL"	"stimuli/MullerLyer_-20.04286_-0.3500.png"	n/a	"MullerLyer"	"arrowdown"	"1442"	"TRUE"	"MullerLyer"	"-20.04286000"	"-0.350000000"	"2"	"24"
n/a	"html-keyboard-response"	"232"	"10001463"	"0.0-6.0-2.0-0.24"	"0nb11g"	"600"	"1366"	"chrome"	"110.0.0"	"FALSE"	"Windows 10"	"61.06"	"035"	n/a	n/a	n/a	n/a	n/a	n/a	"fixation"	n/a	n/a	n/a	n/a	"NULL"	n/a	"NULL"	"NULL"	"NULL"	"<p style=\"color: black; font-size: 80px; padding-left: 29%; padding-right: 30%; padding-top: 27%; padding-bottom: 29%\">+</p>"	"1241"	n/a	n/a	n/a	n/a	n/a	n/a	n/a	n/a	n/a
n/a	"image-keyboard-response"	"233"	"10002497"	"0.0-6.0-2.0-1.24"	"0nb11g"	"600"	"1366"	"chrome"	"110.0.0"	"FALSE"	"Windows 10"	"61.06"	"035"	n/a	n/a	n/a	n/a	n/a	n/a	"Trial"	n/a	n/a	n/a	"1033"	"arrowup"	n/a	"NULL"	"NULL"	"NULL"	"stimuli/MullerLyer_14.12857_0.07627.png"	n/a	"MullerLyer"	"arrowup"	"1253"	"TRUE"	"MullerLyer"	"14.128570000"	"0.0762700000"	"2"	"25"
n/a	"html-keyboard-response"	"234"	"10003553"	"0.0-6.0-2.0-0.25"	"0nb11g"	"600"	"1366"	"chrome"	"110.0.0"	"FALSE"	"Windows 10"	"61.06"	"035"	n/a	n/a	n/a	n/a	n/a	n/a	"fixation"	n/a	n/a	n/a	n/a	"NULL"	n/a	"NULL"	"NULL"	"NULL"	"<p style=\"color: black; font-size: 80px; padding-left: 31%; padding-right: 46%; padding-top: 30%; padding-bottom: 35%\">+</p>"	"1044"	n/a	n/a	n/a	n/a	n/a	n/a	n/a	n/a	n/a
n/a	"image-keyboard-response"	"235"	"10004166"	"0.0-6.0-2.0-1.25"	"0nb11g"	"600"	"1366"	"chrome"	"110.0.0"	"FALSE"	"Windows 10"	"61.06"	"035"	n/a	n/a	n/a	n/a	n/a	n/a	"Trial"	n/a	n/a	n/a	"609"	"arrowup"	n/a	"NULL"	"NULL"	"NULL"	"stimuli/MullerLyer_-20.04286_0.07627.png"	n/a	"MullerLyer"	"arrowup"	"1056"	"TRUE"	"MullerLyer"	"-20.04286000"	"0.0762700000"	"2"	"26"
n/a	"html-keyboard-response"	"236"	"10005364"	"0.0-6.0-2.0-0.26"	"0nb11g"	"600"	"1366"	"chrome"	"110.0.0"	"FALSE"	"Windows 10"	"61.06"	"035"	n/a	n/a	n/a	n/a	n/a	n/a	"fixation"	n/a	n/a	n/a	n/a	"NULL"	n/a	"NULL"	"NULL"	"NULL"	"<p style=\"color: black; font-size: 80px; padding-left: 32%; padding-right: 17%; padding-top: 28%; padding-bottom: 27%\">+</p>"	"1188"	n/a	n/a	n/a	n/a	n/a	n/a	n/a	n/a	n/a
n/a	"image-keyboard-response"	"237"	"10005962"	"0.0-6.0-2.0-1.26"	"0nb11g"	"600"	"1366"	"chrome"	"110.0.0"	"FALSE"	"Windows 10"	"61.06"	"035"	n/a	n/a	n/a	n/a	n/a	n/a	"Trial"	n/a	n/a	n/a	"597"	"arrowdown"	n/a	"NULL"	"NULL"	"NULL"	"stimuli/MullerLyer_20.04286_0.07627.png"	n/a	"MullerLyer"	"arrowup"	"1198"	"FALSE"	"MullerLyer"	"20.042860000"	"0.0762700000"	"2"	"27"
n/a	"html-keyboard-response"	"238"	"10007148"	"0.0-6.0-2.0-0.27"	"0nb11g"	"600"	"1366"	"chrome"	"110.0.0"	"FALSE"	"Windows 10"	"61.06"	"035"	n/a	n/a	n/a	n/a	n/a	n/a	"fixation"	n/a	n/a	n/a	n/a	"NULL"	n/a	"NULL"	"NULL"	"NULL"	"<p style=\"color: black; font-size: 80px; padding-left: 6%; padding-right: 46%; padding-top: 40%; padding-bottom: 32%\">+</p>"	"1175"	n/a	n/a	n/a	n/a	n/a	n/a	n/a	n/a	n/a
n/a	"image-keyboard-response"	"239"	"10007784"	"0.0-6.0-2.0-1.27"	"0nb11g"	"600"	"1366"	"chrome"	"110.0.0"	"FALSE"	"Windows 10"	"61.06"	"035"	n/a	n/a	n/a	n/a	n/a	n/a	"Trial"	n/a	n/a	n/a	"635"	"arrowup"	n/a	"NULL"	"NULL"	"NULL"	"stimuli/MullerLyer_8.21429_-0.14541.png"	n/a	"MullerLyer"	"arrowdown"	"1186"	"FALSE"	"MullerLyer"	"8.2142900000"	"-0.145410000"	"2"	"28"
n/a	"html-keyboard-response"	"240"	"10008938"	"0.0-6.0-2.0-0.28"	"0nb11g"	"600"	"1366"	"chrome"	"110.0.0"	"FALSE"	"Windows 10"	"61.06"	"035"	n/a	n/a	n/a	n/a	n/a	n/a	"fixation"	n/a	n/a	n/a	n/a	"NULL"	n/a	"NULL"	"NULL"	"NULL"	"<p style=\"color: black; font-size: 80px; padding-left: 20%; padding-right: 35%; padding-top: 26%; padding-bottom: 49%\">+</p>"	"1139"	n/a	n/a	n/a	n/a	n/a	n/a	n/a	n/a	n/a
n/a	"image-keyboard-response"	"241"	"10009594"	"0.0-6.0-2.0-1.28"	"0nb11g"	"600"	"1366"	"chrome"	"110.0.0"	"FALSE"	"Windows 10"	"61.06"	"035"	n/a	n/a	n/a	n/a	n/a	n/a	"Trial"	n/a	n/a	n/a	"655"	"arrowdown"	n/a	"NULL"	"NULL"	"NULL"	"stimuli/MullerLyer_14.12857_-0.3500.png"	n/a	"MullerLyer"	"arrowdown"	"1154"	"TRUE"	"MullerLyer"	"14.128570000"	"-0.350000000"	"2"	"29"
n/a	"html-keyboard-response"	"242"	"10011012"	"0.0-6.0-2.0-0.29"	"0nb11g"	"600"	"1366"	"chrome"	"110.0.0"	"FALSE"	"Windows 10"	"61.06"	"035"	n/a	n/a	n/a	n/a	n/a	n/a	"fixation"	n/a	n/a	n/a	n/a	"NULL"	n/a	"NULL"	"NULL"	"NULL"	"<p style=\"color: black; font-size: 80px; padding-left: 17%; padding-right: 38%; padding-top: 15%; padding-bottom: 29%\">+</p>"	"1408"	n/a	n/a	n/a	n/a	n/a	n/a	n/a	n/a	n/a
n/a	"image-keyboard-response"	"243"	"10011623"	"0.0-6.0-2.0-1.29"	"0nb11g"	"600"	"1366"	"chrome"	"110.0.0"	"FALSE"	"Windows 10"	"61.06"	"035"	n/a	n/a	n/a	n/a	n/a	n/a	"Trial"	n/a	n/a	n/a	"610"	"arrowup"	n/a	"NULL"	"NULL"	"NULL"	"stimuli/MullerLyer_-2.3000_0.23665.png"	n/a	"MullerLyer"	"arrowup"	"1418"	"TRUE"	"MullerLyer"	"-2.300000000"	"0.2366500000"	"2"	"30"
n/a	"html-keyboard-response"	"244"	"10012795"	"0.0-6.0-2.0-0.30"	"0nb11g"	"600"	"1366"	"chrome"	"110.0.0"	"FALSE"	"Windows 10"	"61.06"	"035"	n/a	n/a	n/a	n/a	n/a	n/a	"fixation"	n/a	n/a	n/a	n/a	"NULL"	n/a	"NULL"	"NULL"	"NULL"	"<p style=\"color: black; font-size: 80px; padding-left: 36%; padding-right: 40%; padding-top: 12%; padding-bottom: 4%\">+</p>"	"1168"	n/a	n/a	n/a	n/a	n/a	n/a	n/a	n/a	n/a
n/a	"image-keyboard-response"	"245"	"10013423"	"0.0-6.0-2.0-1.30"	"0nb11g"	"600"	"1366"	"chrome"	"110.0.0"	"FALSE"	"Windows 10"	"61.06"	"035"	n/a	n/a	n/a	n/a	n/a	n/a	"Trial"	n/a	n/a	n/a	"627"	"arrowdown"	n/a	"NULL"	"NULL"	"NULL"	"stimuli/MullerLyer_20.04286_0.23665.png"	n/a	"MullerLyer"	"arrowup"	"1172"	"FALSE"	"MullerLyer"	"20.042860000"	"0.2366500000"	"2"	"31"
n/a	"html-keyboard-response"	"246"	"10014563"	"0.0-6.0-2.0-0.31"	"0nb11g"	"600"	"1366"	"chrome"	"110.0.0"	"FALSE"	"Windows 10"	"61.06"	"035"	n/a	n/a	n/a	n/a	n/a	n/a	"fixation"	n/a	n/a	n/a	n/a	"NULL"	n/a	"NULL"	"NULL"	"NULL"	"<p style=\"color: black; font-size: 80px; padding-left: 23%; padding-right: 32%; padding-top: 37%; padding-bottom: 9%\">+</p>"	"1132"	n/a	n/a	n/a	n/a	n/a	n/a	n/a	n/a	n/a
n/a	"image-keyboard-response"	"247"	"10015329"	"0.0-6.0-2.0-1.31"	"0nb11g"	"600"	"1366"	"chrome"	"110.0.0"	"FALSE"	"Windows 10"	"61.06"	"035"	n/a	n/a	n/a	n/a	n/a	n/a	"Trial"	n/a	n/a	n/a	"765"	"arrowdown"	n/a	"NULL"	"NULL"	"NULL"	"stimuli/MullerLyer_2.30000_-0.14541.png"	n/a	"MullerLyer"	"arrowdown"	"1140"	"TRUE"	"MullerLyer"	"2.3000000000"	"-0.145410000"	"2"	"32"
n/a	"html-keyboard-response"	"248"	"10016436"	"0.0-6.0-2.0-0.32"	"0nb11g"	"600"	"1366"	"chrome"	"110.0.0"	"FALSE"	"Windows 10"	"61.06"	"035"	n/a	n/a	n/a	n/a	n/a	n/a	"fixation"	n/a	n/a	n/a	n/a	"NULL"	n/a	"NULL"	"NULL"	"NULL"	"<p style=\"color: black; font-size: 80px; padding-left: 2%; padding-right: 34%; padding-top: 15%; padding-bottom: 17%\">+</p>"	"1096"	n/a	n/a	n/a	n/a	n/a	n/a	n/a	n/a	n/a
n/a	"image-keyboard-response"	"249"	"10017142"	"0.0-6.0-2.0-1.32"	"0nb11g"	"600"	"1366"	"chrome"	"110.0.0"	"FALSE"	"Windows 10"	"61.06"	"035"	n/a	n/a	n/a	n/a	n/a	n/a	"Trial"	n/a	n/a	n/a	"705"	"arrowup"	n/a	"NULL"	"NULL"	"NULL"	"stimuli/MullerLyer_8.21429_-0.07627.png"	n/a	"MullerLyer"	"arrowdown"	"1107"	"FALSE"	"MullerLyer"	"8.2142900000"	"-0.076270000"	"2"	"33"
n/a	"html-keyboard-response"	"250"	"10018602"	"0.0-6.0-2.0-0.33"	"0nb11g"	"600"	"1366"	"chrome"	"110.0.0"	"FALSE"	"Windows 10"	"61.06"	"035"	n/a	n/a	n/a	n/a	n/a	n/a	"fixation"	n/a	n/a	n/a	n/a	"NULL"	n/a	"NULL"	"NULL"	"NULL"	"<p style=\"color: black; font-size: 80px; padding-left: 12%; padding-right: 48%; padding-top: 47%; padding-bottom: 38%\">+</p>"	"1452"	n/a	n/a	n/a	n/a	n/a	n/a	n/a	n/a	n/a
n/a	"image-keyboard-response"	"251"	"10019249"	"0.0-6.0-2.0-1.33"	"0nb11g"	"600"	"1366"	"chrome"	"110.0.0"	"FALSE"	"Windows 10"	"61.06"	"035"	n/a	n/a	n/a	n/a	n/a	n/a	"Trial"	n/a	n/a	n/a	"644"	"arrowdown"	n/a	"NULL"	"NULL"	"NULL"	"stimuli/MullerLyer_-8.21429_-0.07627.png"	n/a	"MullerLyer"	"arrowdown"	"1460"	"TRUE"	"MullerLyer"	"-8.214290000"	"-0.076270000"	"2"	"34"
n/a	"html-keyboard-response"	"252"	"10020432"	"0.0-6.0-2.0-0.34"	"0nb11g"	"600"	"1366"	"chrome"	"110.0.0"	"FALSE"	"Windows 10"	"61.06"	"035"	n/a	n/a	n/a	n/a	n/a	n/a	"fixation"	n/a	n/a	n/a	n/a	"NULL"	n/a	"NULL"	"NULL"	"NULL"	"<p style=\"color: black; font-size: 80px; padding-left: 6%; padding-right: 47%; padding-top: 23%; padding-bottom: 30%\">+</p>"	"1170"	n/a	n/a	n/a	n/a	n/a	n/a	n/a	n/a	n/a
