"success"	"trial_type"	"trial_index"	"time_elapsed"	"internal_node_id"	"participant_id"	"screen_height"	"screen_width"	"browser"	"browser_version"	"mobile"	"os"	"vsync_rate"	"subject_id"	"width"	"height"	"webaudio"	"fullscreen"	"webcam"	"microphone"	"screen"	"version"	"date"	"time"	"rt"	"response"	"timeout"	"failed_images"	"failed_audio"	"failed_video"	"stimulus"	"trial_duration"	"block"	"correct_response"	"prestimulus_duration"	"correct"	"type"	"illusion_strength"	"illusion_difference"	"block_number"	"trial_number"
"TRUE"	"fullscreen"	"0"	"9555"	"0.0-0.0"	"un0pzf"	"600"	"1366"	"chrome"	"108.0.0"	"FALSE"	"Windows 10"	"60.59"	"136"	n/a	n/a	n/a	n/a	n/a	n/a	n/a	n/a	n/a	n/a	n/a	"NULL"	n/a	"NULL"	"NULL"	"NULL"	n/a	n/a	n/a	n/a	n/a	n/a	n/a	n/a	n/a	n/a	n/a
n/a	"browser-check"	"1"	"10559"	"0.0-1.0"	"un0pzf"	"600"	"1366"	"chrome"	"108.0.0"	"FALSE"	"Windows 10"	"60.59"	"136"	"1366"	"600"	"TRUE"	"TRUE"	"TRUE"	"TRUE"	"browser_info"	"1.0"	"30/12/2022"	"17:06:20"	n/a	"NULL"	n/a	"NULL"	"NULL"	"NULL"	n/a	n/a	n/a	n/a	n/a	n/a	n/a	n/a	n/a	n/a	n/a
n/a	"survey-text"	"2"	"13597"	"0.0-2.0"	"un0pzf"	"600"	"1366"	"chrome"	"108.0.0"	"FALSE"	"Windows 10"	"60.59"	"136"	n/a	n/a	n/a	n/a	n/a	n/a	"subject_id"	n/a	n/a	n/a	"3034"	"list(subject_id = \"136\")"	n/a	"NULL"	"NULL"	"NULL"	n/a	n/a	n/a	n/a	n/a	n/a	n/a	n/a	n/a	n/a	n/a
"TRUE"	"preload"	"3"	"13608"	"0.0-3.0"	"un0pzf"	"600"	"1366"	"chrome"	"108.0.0"	"FALSE"	"Windows 10"	"60.59"	"136"	n/a	n/a	n/a	n/a	n/a	n/a	n/a	n/a	n/a	n/a	n/a	"NULL"	"FALSE"	"list()"	"list()"	"list()"	n/a	n/a	n/a	n/a	n/a	n/a	n/a	n/a	n/a	n/a	n/a
n/a	"html-button-response"	"4"	"27450"	"0.0-4.0-0.0"	"un0pzf"	"600"	"1366"	"chrome"	"108.0.0"	"FALSE"	"Windows 10"	"60.59"	"136"	n/a	n/a	n/a	n/a	n/a	n/a	"illusion_instructions"	n/a	n/a	n/a	"13840"	"0"	n/a	"NULL"	"NULL"	"NULL"	"<p><b>Illusion Game</b></p><p>In this game of speed and reflex, you will need to make <b>visual judgments</b> (for instance, which circle is the biggest, or which line is the longest), as fast and as correctly as possible, while <b>resisting different visual illusions</b>.</p><p>We are going to start with some examples of all the illusions you will encounter in the game.</p>"	n/a	n/a	n/a	n/a	n/a	n/a	n/a	n/a	n/a	n/a
"TRUE"	"preload"	"5"	"27473"	"0.0-4.0-1.0-0.0"	"un0pzf"	"600"	"1366"	"chrome"	"108.0.0"	"FALSE"	"Windows 10"	"60.59"	"136"	n/a	n/a	n/a	n/a	n/a	n/a	n/a	n/a	n/a	n/a	n/a	"NULL"	"FALSE"	"list()"	"list()"	"list()"	n/a	n/a	n/a	n/a	n/a	n/a	n/a	n/a	n/a	n/a	n/a
n/a	"html-keyboard-response"	"6"	"61753"	"0.0-4.0-1.0-1.0"	"un0pzf"	"600"	"1366"	"chrome"	"108.0.0"	"FALSE"	"Windows 10"	"60.59"	"136"	n/a	n/a	n/a	n/a	n/a	n/a	n/a	n/a	n/a	n/a	"34277"	"enter"	n/a	"NULL"	"NULL"	"NULL"	"<p><b>Practice</b></p><p>In this part, two red circles will appear side by side on the screen.</p><p>Your task is to select which <b>red circle is bigger</b> in size as fast as you can, without making errors.</p><p>Don't get distracted by the surrounding black circles around the red circles!</p><p>Press <b>the LEFT or the RIGHT arrow</b> to indicate which is the bigger <b>red circle.</b></p><div style='float: center'><img src='materials/instructions/Ebbinghaus_Demo.png' height='300'></img><p><img src='utils/answer/answer_leftright_keyboard.PNG' height='150'></img></p><p class='small'>In this example, the correct answer is the <b>LEFT arrow</b>.</p></div><p>Are you ready? <b>Press ENTER to start</b></p>"	n/a	n/a	n/a	n/a	n/a	n/a	n/a	n/a	n/a	n/a
n/a	"html-keyboard-response"	"7"	"63580"	"0.0-4.0-1.0-2.0-0.0"	"un0pzf"	"600"	"1366"	"chrome"	"108.0.0"	"FALSE"	"Windows 10"	"60.59"	"136"	n/a	n/a	n/a	n/a	n/a	n/a	"fixation"	n/a	n/a	n/a	n/a	"NULL"	n/a	"NULL"	"NULL"	"NULL"	"<p style=\"color: black; font-size: 80px; padding-left: 27%; padding-right: 15%; padding-top: 4%; padding-bottom: 10%\">+</p>"	"1293"	n/a	n/a	n/a	n/a	n/a	n/a	n/a	n/a	n/a
n/a	"image-keyboard-response"	"8"	"64431"	"0.0-4.0-1.0-2.0-1.0"	"un0pzf"	"600"	"1366"	"chrome"	"108.0.0"	"FALSE"	"Windows 10"	"60.59"	"136"	n/a	n/a	n/a	n/a	n/a	n/a	"Trial"	n/a	n/a	n/a	"841"	"arrowright"	n/a	"NULL"	"NULL"	"NULL"	"stimuli/Ebbinghaus_-100000_-1.4000.png"	n/a	"Ebbinghaus"	"arrowright"	"1827"	"TRUE"	"Ebbinghaus"	"-10000000000"	"-1.400000000"	"1"	"1"
n/a	"html-keyboard-response"	"9"	"65522"	"0.0-4.0-1.0-2.0-0.1"	"un0pzf"	"600"	"1366"	"chrome"	"108.0.0"	"FALSE"	"Windows 10"	"60.59"	"136"	n/a	n/a	n/a	n/a	n/a	n/a	"fixation"	n/a	n/a	n/a	n/a	"NULL"	n/a	"NULL"	"NULL"	"NULL"	"<p style=\"color: black; font-size: 80px; padding-left: 3%; padding-right: 27%; padding-top: 32%; padding-bottom: 23%\">+</p>"	"1083"	n/a	n/a	n/a	n/a	n/a	n/a	n/a	n/a	n/a
n/a	"image-keyboard-response"	"10"	"65957"	"0.0-4.0-1.0-2.0-1.1"	"un0pzf"	"600"	"1366"	"chrome"	"108.0.0"	"FALSE"	"Windows 10"	"60.59"	"136"	n/a	n/a	n/a	n/a	n/a	n/a	"Trial"	n/a	n/a	n/a	"433"	"arrowright"	n/a	"NULL"	"NULL"	"NULL"	"stimuli/Ebbinghaus_1000000_-1.4000.png"	n/a	"Ebbinghaus"	"arrowright"	"1091"	"TRUE"	"Ebbinghaus"	"100000000000"	"-1.400000000"	"1"	"2"
n/a	"html-keyboard-response"	"11"	"67100"	"0.0-4.0-1.0-2.0-0.2"	"un0pzf"	"600"	"1366"	"chrome"	"108.0.0"	"FALSE"	"Windows 10"	"60.59"	"136"	n/a	n/a	n/a	n/a	n/a	n/a	"fixation"	n/a	n/a	n/a	n/a	"NULL"	n/a	"NULL"	"NULL"	"NULL"	"<p style=\"color: black; font-size: 80px; padding-left: 43%; padding-right: 8%; padding-top: 10%; padding-bottom: 29%\">+</p>"	"1132"	n/a	n/a	n/a	n/a	n/a	n/a	n/a	n/a	n/a
n/a	"image-keyboard-response"	"12"	"67556"	"0.0-4.0-1.0-2.0-1.2"	"un0pzf"	"600"	"1366"	"chrome"	"108.0.0"	"FALSE"	"Windows 10"	"60.59"	"136"	n/a	n/a	n/a	n/a	n/a	n/a	"Trial"	n/a	n/a	n/a	"456"	"arrowleft"	n/a	"NULL"	"NULL"	"NULL"	"stimuli/Ebbinghaus_0000000_1.40000.png"	n/a	"Ebbinghaus"	"arrowleft"	"1143"	"TRUE"	"Ebbinghaus"	"000000000000"	"1.4000000000"	"1"	"3"
n/a	"html-keyboard-response"	"13"	"68927"	"0.0-4.0-1.0-2.0-0.3"	"un0pzf"	"600"	"1366"	"chrome"	"108.0.0"	"FALSE"	"Windows 10"	"60.59"	"136"	n/a	n/a	n/a	n/a	n/a	n/a	"fixation"	n/a	n/a	n/a	n/a	"NULL"	n/a	"NULL"	"NULL"	"NULL"	"<p style=\"color: black; font-size: 80px; padding-left: 37%; padding-right: 44%; padding-top: 2%; padding-bottom: 29%\">+</p>"	"1357"	n/a	n/a	n/a	n/a	n/a	n/a	n/a	n/a	n/a
n/a	"image-keyboard-response"	"14"	"69373"	"0.0-4.0-1.0-2.0-1.3"	"un0pzf"	"600"	"1366"	"chrome"	"108.0.0"	"FALSE"	"Windows 10"	"60.59"	"136"	n/a	n/a	n/a	n/a	n/a	n/a	"Trial"	n/a	n/a	n/a	"444"	"arrowleft"	n/a	"NULL"	"NULL"	"NULL"	"stimuli/Ebbinghaus_1000000_1.40000.png"	n/a	"Ebbinghaus"	"arrowleft"	"1371"	"TRUE"	"Ebbinghaus"	"100000000000"	"1.4000000000"	"1"	"4"
n/a	"html-keyboard-response"	"15"	"70723"	"0.0-4.0-1.0-2.0-0.4"	"un0pzf"	"600"	"1366"	"chrome"	"108.0.0"	"FALSE"	"Windows 10"	"60.59"	"136"	n/a	n/a	n/a	n/a	n/a	n/a	"fixation"	n/a	n/a	n/a	n/a	"NULL"	n/a	"NULL"	"NULL"	"NULL"	"<p style=\"color: black; font-size: 80px; padding-left: 12%; padding-right: 1%; padding-top: 23%; padding-bottom: 28%\">+</p>"	"1340"	n/a	n/a	n/a	n/a	n/a	n/a	n/a	n/a	n/a
n/a	"image-keyboard-response"	"16"	"71187"	"0.0-4.0-1.0-2.0-1.4"	"un0pzf"	"600"	"1366"	"chrome"	"108.0.0"	"FALSE"	"Windows 10"	"60.59"	"136"	n/a	n/a	n/a	n/a	n/a	n/a	"Trial"	n/a	n/a	n/a	"463"	"arrowright"	n/a	"NULL"	"NULL"	"NULL"	"stimuli/Ebbinghaus_0000000_-1.4000.png"	n/a	"Ebbinghaus"	"arrowright"	"1350"	"TRUE"	"Ebbinghaus"	"000000000000"	"-1.400000000"	"1"	"5"
n/a	"html-keyboard-response"	"17"	"72450"	"0.0-4.0-1.0-2.0-0.5"	"un0pzf"	"600"	"1366"	"chrome"	"108.0.0"	"FALSE"	"Windows 10"	"60.59"	"136"	n/a	n/a	n/a	n/a	n/a	n/a	"fixation"	n/a	n/a	n/a	n/a	"NULL"	n/a	"NULL"	"NULL"	"NULL"	"<p style=\"color: black; font-size: 80px; padding-left: 37%; padding-right: 24%; padding-top: 22%; padding-bottom: 34%\">+</p>"	"1249"	n/a	n/a	n/a	n/a	n/a	n/a	n/a	n/a	n/a
n/a	"image-keyboard-response"	"18"	"72903"	"0.0-4.0-1.0-2.0-1.5"	"un0pzf"	"600"	"1366"	"chrome"	"108.0.0"	"FALSE"	"Windows 10"	"60.59"	"136"	n/a	n/a	n/a	n/a	n/a	n/a	"Trial"	n/a	n/a	n/a	"452"	"arrowleft"	n/a	"NULL"	"NULL"	"NULL"	"stimuli/Ebbinghaus_-100000_1.40000.png"	n/a	"Ebbinghaus"	"arrowleft"	"1263"	"TRUE"	"Ebbinghaus"	"-10000000000"	"1.4000000000"	"1"	"6"
n/a	"html-button-response"	"19"	"90330"	"0.0-4.0-1.0-3.0"	"un0pzf"	"600"	"1366"	"chrome"	"108.0.0"	"FALSE"	"Windows 10"	"60.59"	"136"	n/a	n/a	n/a	n/a	n/a	n/a	"practice_block_results"	n/a	n/a	n/a	"17424"	"0"	n/a	"NULL"	"NULL"	"NULL"	"<p style='color:rgb(76,175,80);'> Correct Responses: <b>100.00%</b></p><hr><p style='color:rgb(233,30,99);'> Average Response Time: <b>514.83</b> ms.</p>"	n/a	n/a	n/a	n/a	n/a	n/a	n/a	n/a	n/a	n/a
"TRUE"	"preload"	"20"	"90863"	"0.0-4.0-2.0-0.0"	"un0pzf"	"600"	"1366"	"chrome"	"108.0.0"	"FALSE"	"Windows 10"	"60.59"	"136"	n/a	n/a	n/a	n/a	n/a	n/a	n/a	n/a	n/a	n/a	n/a	"NULL"	"FALSE"	"list()"	"list()"	"list()"	n/a	n/a	n/a	n/a	n/a	n/a	n/a	n/a	n/a	n/a	n/a
n/a	"html-keyboard-response"	"21"	"99622"	"0.0-4.0-2.0-1.0"	"un0pzf"	"600"	"1366"	"chrome"	"108.0.0"	"FALSE"	"Windows 10"	"60.59"	"136"	n/a	n/a	n/a	n/a	n/a	n/a	n/a	n/a	n/a	n/a	"8758"	"enter"	n/a	"NULL"	"NULL"	"NULL"	"<p><b>Practice</b></p><p>In this part, two horizontal red lines will appear one above the other.</p><p>Your task is to select which <b>line is longer</b> in length as fast as you can, without making errors.</p><p>Don't get distracted by the surrounding black arrows at the end of the red lines!</p><p>Press <b>the UP or the DOWN arrow</b> to indicate where is the longer <b>red line.</b></p><div style='float: center'><img src='materials/instructions/MullerLyer_Demo.png' height='300'></img><p><img src='utils/answer/answer_updown_keyboard.PNG' height='150'></img></p><p class='small'>In this example, the correct answer is the <b>UP arrow</b>.</p></div><p>Are you ready? <b>Press ENTER to start</b></p>"	n/a	n/a	n/a	n/a	n/a	n/a	n/a	n/a	n/a	n/a
n/a	"html-keyboard-response"	"22"	"101258"	"0.0-4.0-2.0-2.0-0.0"	"un0pzf"	"600"	"1366"	"chrome"	"108.0.0"	"FALSE"	"Windows 10"	"60.59"	"136"	n/a	n/a	n/a	n/a	n/a	n/a	"fixation"	n/a	n/a	n/a	n/a	"NULL"	n/a	"NULL"	"NULL"	"NULL"	"<p style=\"color: black; font-size: 80px; padding-left: 48%; padding-right: 27%; padding-top: 20%; padding-bottom: 37%\">+</p>"	"1121"	n/a	n/a	n/a	n/a	n/a	n/a	n/a	n/a	n/a
n/a	"image-keyboard-response"	"23"	"101964"	"0.0-4.0-2.0-2.0-1.0"	"un0pzf"	"600"	"1366"	"chrome"	"108.0.0"	"FALSE"	"Windows 10"	"60.59"	"136"	n/a	n/a	n/a	n/a	n/a	n/a	"Trial"	n/a	n/a	n/a	"704"	"arrowdown"	n/a	"NULL"	"NULL"	"NULL"	"stimuli/MullerLyer_-230000_-0.7000.png"	n/a	"MullerLyer"	"arrowdown"	"1636"	"TRUE"	"MullerLyer"	"-23000000000"	"-0.700000000"	"1"	"7"
n/a	"html-keyboard-response"	"24"	"103350"	"0.0-4.0-2.0-2.0-0.1"	"un0pzf"	"600"	"1366"	"chrome"	"108.0.0"	"FALSE"	"Windows 10"	"60.59"	"136"	n/a	n/a	n/a	n/a	n/a	n/a	"fixation"	n/a	n/a	n/a	n/a	"NULL"	n/a	"NULL"	"NULL"	"NULL"	"<p style=\"color: black; font-size: 80px; padding-left: 47%; padding-right: 18%; padding-top: 43%; padding-bottom: 24%\">+</p>"	"1381"	n/a	n/a	n/a	n/a	n/a	n/a	n/a	n/a	n/a
n/a	"image-keyboard-response"	"25"	"103705"	"0.0-4.0-2.0-2.0-1.1"	"un0pzf"	"600"	"1366"	"chrome"	"108.0.0"	"FALSE"	"Windows 10"	"60.59"	"136"	n/a	n/a	n/a	n/a	n/a	n/a	"Trial"	n/a	n/a	n/a	"354"	"arrowup"	n/a	"NULL"	"NULL"	"NULL"	"stimuli/MullerLyer_2300000_0.70000.png"	n/a	"MullerLyer"	"arrowup"	"1386"	"TRUE"	"MullerLyer"	"230000000000"	"0.7000000000"	"1"	"8"
n/a	"html-keyboard-response"	"26"	"105163"	"0.0-4.0-2.0-2.0-0.2"	"un0pzf"	"600"	"1366"	"chrome"	"108.0.0"	"FALSE"	"Windows 10"	"60.59"	"136"	n/a	n/a	n/a	n/a	n/a	n/a	"fixation"	n/a	n/a	n/a	n/a	"NULL"	n/a	"NULL"	"NULL"	"NULL"	"<p style=\"color: black; font-size: 80px; padding-left: 0%; padding-right: 43%; padding-top: 32%; padding-bottom: 24%\">+</p>"	"1435"	n/a	n/a	n/a	n/a	n/a	n/a	n/a	n/a	n/a
n/a	"image-keyboard-response"	"27"	"105719"	"0.0-4.0-2.0-2.0-1.2"	"un0pzf"	"600"	"1366"	"chrome"	"108.0.0"	"FALSE"	"Windows 10"	"60.59"	"136"	n/a	n/a	n/a	n/a	n/a	n/a	"Trial"	n/a	n/a	n/a	"555"	"arrowdown"	n/a	"NULL"	"NULL"	"NULL"	"stimuli/MullerLyer_2300000_-0.7000.png"	n/a	"MullerLyer"	"arrowdown"	"1458"	"TRUE"	"MullerLyer"	"230000000000"	"-0.700000000"	"1"	"9"
n/a	"html-keyboard-response"	"28"	"107058"	"0.0-4.0-2.0-2.0-0.3"	"un0pzf"	"600"	"1366"	"chrome"	"108.0.0"	"FALSE"	"Windows 10"	"60.59"	"136"	n/a	n/a	n/a	n/a	n/a	n/a	"fixation"	n/a	n/a	n/a	n/a	"NULL"	n/a	"NULL"	"NULL"	"NULL"	"<p style=\"color: black; font-size: 80px; padding-left: 46%; padding-right: 16%; padding-top: 8%; padding-bottom: 27%\">+</p>"	"1328"	n/a	n/a	n/a	n/a	n/a	n/a	n/a	n/a	n/a
n/a	"image-keyboard-response"	"29"	"107583"	"0.0-4.0-2.0-2.0-1.3"	"un0pzf"	"600"	"1366"	"chrome"	"108.0.0"	"FALSE"	"Windows 10"	"60.59"	"136"	n/a	n/a	n/a	n/a	n/a	n/a	"Trial"	n/a	n/a	n/a	"524"	"arrowdown"	n/a	"NULL"	"NULL"	"NULL"	"stimuli/MullerLyer_0000000_-0.7000.png"	n/a	"MullerLyer"	"arrowdown"	"1339"	"TRUE"	"MullerLyer"	"000000000000"	"-0.700000000"	"1"	"10"
n/a	"html-keyboard-response"	"30"	"108965"	"0.0-4.0-2.0-2.0-0.4"	"un0pzf"	"600"	"1366"	"chrome"	"108.0.0"	"FALSE"	"Windows 10"	"60.59"	"136"	n/a	n/a	n/a	n/a	n/a	n/a	"fixation"	n/a	n/a	n/a	n/a	"NULL"	n/a	"NULL"	"NULL"	"NULL"	"<p style=\"color: black; font-size: 80px; padding-left: 6%; padding-right: 13%; padding-top: 46%; padding-bottom: 39%\">+</p>"	"1380"	n/a	n/a	n/a	n/a	n/a	n/a	n/a	n/a	n/a
n/a	"image-keyboard-response"	"31"	"109434"	"0.0-4.0-2.0-2.0-1.4"	"un0pzf"	"600"	"1366"	"chrome"	"108.0.0"	"FALSE"	"Windows 10"	"60.59"	"136"	n/a	n/a	n/a	n/a	n/a	n/a	"Trial"	n/a	n/a	n/a	"469"	"arrowup"	n/a	"NULL"	"NULL"	"NULL"	"stimuli/MullerLyer_-230000_0.70000.png"	n/a	"MullerLyer"	"arrowup"	"1382"	"TRUE"	"MullerLyer"	"-23000000000"	"0.7000000000"	"1"	"11"
n/a	"html-keyboard-response"	"32"	"110939"	"0.0-4.0-2.0-2.0-0.5"	"un0pzf"	"600"	"1366"	"chrome"	"108.0.0"	"FALSE"	"Windows 10"	"60.59"	"136"	n/a	n/a	n/a	n/a	n/a	n/a	"fixation"	n/a	n/a	n/a	n/a	"NULL"	n/a	"NULL"	"NULL"	"NULL"	"<p style=\"color: black; font-size: 80px; padding-left: 3%; padding-right: 27%; padding-top: 9%; padding-bottom: 35%\">+</p>"	"1488"	n/a	n/a	n/a	n/a	n/a	n/a	n/a	n/a	n/a
n/a	"image-keyboard-response"	"33"	"111457"	"0.0-4.0-2.0-2.0-1.5"	"un0pzf"	"600"	"1366"	"chrome"	"108.0.0"	"FALSE"	"Windows 10"	"60.59"	"136"	n/a	n/a	n/a	n/a	n/a	n/a	"Trial"	n/a	n/a	n/a	"516"	"arrowup"	n/a	"NULL"	"NULL"	"NULL"	"stimuli/MullerLyer_0000000_0.70000.png"	n/a	"MullerLyer"	"arrowup"	"1505"	"TRUE"	"MullerLyer"	"000000000000"	"0.7000000000"	"1"	"12"
n/a	"html-button-response"	"34"	"114680"	"0.0-4.0-2.0-3.0"	"un0pzf"	"600"	"1366"	"chrome"	"108.0.0"	"FALSE"	"Windows 10"	"60.59"	"136"	n/a	n/a	n/a	n/a	n/a	n/a	"practice_block_results"	n/a	n/a	n/a	"3222"	"0"	n/a	"NULL"	"NULL"	"NULL"	"<p style='color:rgb(76,175,80);'> Correct Responses: <b>100.00%</b></p><hr><p style='color:rgb(233,30,99);'> Average Response Time: <b>520.33</b> ms.</p>"	n/a	n/a	n/a	n/a	n/a	n/a	n/a	n/a	n/a	n/a
"TRUE"	"preload"	"35"	"115215"	"0.0-4.0-3.0-0.0"	"un0pzf"	"600"	"1366"	"chrome"	"108.0.0"	"FALSE"	"Windows 10"	"60.59"	"136"	n/a	n/a	n/a	n/a	n/a	n/a	n/a	n/a	n/a	n/a	n/a	"NULL"	"FALSE"	"list()"	"list()"	"list()"	n/a	n/a	n/a	n/a	n/a	n/a	n/a	n/a	n/a	n/a	n/a
n/a	"html-keyboard-response"	"36"	"125899"	"0.0-4.0-3.0-1.0"	"un0pzf"	"600"	"1366"	"chrome"	"108.0.0"	"FALSE"	"Windows 10"	"60.59"	"136"	n/a	n/a	n/a	n/a	n/a	n/a	n/a	n/a	n/a	n/a	"10682"	"enter"	n/a	"NULL"	"NULL"	"NULL"	"<p><b>Practice</b></p><p>In this part, two red lines will appear side by side.</p><p>Your task is to tell <b>which line is longer</b> in length, regardless of their orientation, as fast as you can, and without making errors.</p><p>Don't get distracted by the orientation of the lines!</p><p>Press <b>the LEFT or the RIGHT arrow</b> to indicate which <b>line is the longer one.</b></p><div style='float: center'><img src='materials/instructions/VerticalHorizontal_Demo.png' height='300'></img><p><img src='utils/answer/answer_leftright_keyboard.PNG' height='150'></img></p><p class='small'>In this example, the correct answer is the <b>LEFT arrow</b>.</p></div><p>Are you ready? <b>Press ENTER to start</b></p>"	n/a	n/a	n/a	n/a	n/a	n/a	n/a	n/a	n/a	n/a
n/a	"html-keyboard-response"	"37"	"127787"	"0.0-4.0-3.0-2.0-0.0"	"un0pzf"	"600"	"1366"	"chrome"	"108.0.0"	"FALSE"	"Windows 10"	"60.59"	"136"	n/a	n/a	n/a	n/a	n/a	n/a	"fixation"	n/a	n/a	n/a	n/a	"NULL"	n/a	"NULL"	"NULL"	"NULL"	"<p style=\"color: black; font-size: 80px; padding-left: 32%; padding-right: 2%; padding-top: 50%; padding-bottom: 36%\">+</p>"	"1363"	n/a	n/a	n/a	n/a	n/a	n/a	n/a	n/a	n/a
n/a	"image-keyboard-response"	"38"	"128260"	"0.0-4.0-3.0-2.0-1.0"	"un0pzf"	"600"	"1366"	"chrome"	"108.0.0"	"FALSE"	"Windows 10"	"60.59"	"136"	n/a	n/a	n/a	n/a	n/a	n/a	"Trial"	n/a	n/a	n/a	"472"	"arrowleft"	n/a	"NULL"	"NULL"	"NULL"	"stimuli/VerticalHorizontal_3300000_0.90000.png"	n/a	"VerticalHorizontal"	"arrowleft"	"1888"	"TRUE"	"VerticalHorizontal"	"330000000000"	"0.9000000000"	"1"	"13"
n/a	"html-keyboard-response"	"39"	"129489"	"0.0-4.0-3.0-2.0-0.1"	"un0pzf"	"600"	"1366"	"chrome"	"108.0.0"	"FALSE"	"Windows 10"	"60.59"	"136"	n/a	n/a	n/a	n/a	n/a	n/a	"fixation"	n/a	n/a	n/a	n/a	"NULL"	n/a	"NULL"	"NULL"	"NULL"	"<p style=\"color: black; font-size: 80px; padding-left: 42%; padding-right: 12%; padding-top: 46%; padding-bottom: 28%\">+</p>"	"1224"	n/a	n/a	n/a	n/a	n/a	n/a	n/a	n/a	n/a
n/a	"image-keyboard-response"	"40"	"129841"	"0.0-4.0-3.0-2.0-1.1"	"un0pzf"	"600"	"1366"	"chrome"	"108.0.0"	"FALSE"	"Windows 10"	"60.59"	"136"	n/a	n/a	n/a	n/a	n/a	n/a	"Trial"	n/a	n/a	n/a	"351"	"arrowright"	n/a	"NULL"	"NULL"	"NULL"	"stimuli/VerticalHorizontal_-330000_-0.9000.png"	n/a	"VerticalHorizontal"	"arrowright"	"1229"	"TRUE"	"VerticalHorizontal"	"-33000000000"	"-0.900000000"	"1"	"14"
n/a	"html-keyboard-response"	"41"	"130929"	"0.0-4.0-3.0-2.0-0.2"	"un0pzf"	"600"	"1366"	"chrome"	"108.0.0"	"FALSE"	"Windows 10"	"60.59"	"136"	n/a	n/a	n/a	n/a	n/a	n/a	"fixation"	n/a	n/a	n/a	n/a	"NULL"	n/a	"NULL"	"NULL"	"NULL"	"<p style=\"color: black; font-size: 80px; padding-left: 11%; padding-right: 44%; padding-top: 3%; padding-bottom: 8%\">+</p>"	"1075"	n/a	n/a	n/a	n/a	n/a	n/a	n/a	n/a	n/a
n/a	"image-keyboard-response"	"42"	"131267"	"0.0-4.0-3.0-2.0-1.2"	"un0pzf"	"600"	"1366"	"chrome"	"108.0.0"	"FALSE"	"Windows 10"	"60.59"	"136"	n/a	n/a	n/a	n/a	n/a	n/a	"Trial"	n/a	n/a	n/a	"337"	"arrowleft"	n/a	"NULL"	"NULL"	"NULL"	"stimuli/VerticalHorizontal_0000000_0.90000.png"	n/a	"VerticalHorizontal"	"arrowleft"	"1088"	"TRUE"	"VerticalHorizontal"	"000000000000"	"0.9000000000"	"1"	"15"
n/a	"html-keyboard-response"	"43"	"132633"	"0.0-4.0-3.0-2.0-0.3"	"un0pzf"	"600"	"1366"	"chrome"	"108.0.0"	"FALSE"	"Windows 10"	"60.59"	"136"	n/a	n/a	n/a	n/a	n/a	n/a	"fixation"	n/a	n/a	n/a	n/a	"NULL"	n/a	"NULL"	"NULL"	"NULL"	"<p style=\"color: black; font-size: 80px; padding-left: 46%; padding-right: 17%; padding-top: 48%; padding-bottom: 12%\">+</p>"	"1349"	n/a	n/a	n/a	n/a	n/a	n/a	n/a	n/a	n/a
n/a	"image-keyboard-response"	"44"	"132871"	"0.0-4.0-3.0-2.0-1.3"	"un0pzf"	"600"	"1366"	"chrome"	"108.0.0"	"FALSE"	"Windows 10"	"60.59"	"136"	n/a	n/a	n/a	n/a	n/a	n/a	"Trial"	n/a	n/a	n/a	"236"	"arrowright"	n/a	"NULL"	"NULL"	"NULL"	"stimuli/VerticalHorizontal_0000000_-0.9000.png"	n/a	"VerticalHorizontal"	"arrowright"	"1366"	"TRUE"	"VerticalHorizontal"	"000000000000"	"-0.900000000"	"1"	"16"
n/a	"html-keyboard-response"	"45"	"133947"	"0.0-4.0-3.0-2.0-0.4"	"un0pzf"	"600"	"1366"	"chrome"	"108.0.0"	"FALSE"	"Windows 10"	"60.59"	"136"	n/a	n/a	n/a	n/a	n/a	n/a	"fixation"	n/a	n/a	n/a	n/a	"NULL"	n/a	"NULL"	"NULL"	"NULL"	"<p style=\"color: black; font-size: 80px; padding-left: 23%; padding-right: 17%; padding-top: 43%; padding-bottom: 18%\">+</p>"	"1063"	n/a	n/a	n/a	n/a	n/a	n/a	n/a	n/a	n/a
n/a	"image-keyboard-response"	"46"	"134288"	"0.0-4.0-3.0-2.0-1.4"	"un0pzf"	"600"	"1366"	"chrome"	"108.0.0"	"FALSE"	"Windows 10"	"60.59"	"136"	n/a	n/a	n/a	n/a	n/a	n/a	"Trial"	n/a	n/a	n/a	"341"	"arrowleft"	n/a	"NULL"	"NULL"	"NULL"	"stimuli/VerticalHorizontal_-330000_0.90000.png"	n/a	"VerticalHorizontal"	"arrowleft"	"1076"	"TRUE"	"VerticalHorizontal"	"-33000000000"	"0.9000000000"	"1"	"17"
n/a	"html-keyboard-response"	"47"	"135478"	"0.0-4.0-3.0-2.0-0.5"	"un0pzf"	"600"	"1366"	"chrome"	"108.0.0"	"FALSE"	"Windows 10"	"60.59"	"136"	n/a	n/a	n/a	n/a	n/a	n/a	"fixation"	n/a	n/a	n/a	n/a	"NULL"	n/a	"NULL"	"NULL"	"NULL"	"<p style=\"color: black; font-size: 80px; padding-left: 2%; padding-right: 50%; padding-top: 8%; padding-bottom: 46%\">+</p>"	"1186"	n/a	n/a	n/a	n/a	n/a	n/a	n/a	n/a	n/a
n/a	"image-keyboard-response"	"48"	"135785"	"0.0-4.0-3.0-2.0-1.5"	"un0pzf"	"600"	"1366"	"chrome"	"108.0.0"	"FALSE"	"Windows 10"	"60.59"	"136"	n/a	n/a	n/a	n/a	n/a	n/a	"Trial"	n/a	n/a	n/a	"306"	"arrowright"	n/a	"NULL"	"NULL"	"NULL"	"stimuli/VerticalHorizontal_3300000_-0.9000.png"	n/a	"VerticalHorizontal"	"arrowright"	"1190"	"TRUE"	"VerticalHorizontal"	"330000000000"	"-0.900000000"	"1"	"18"
n/a	"html-button-response"	"49"	"139501"	"0.0-4.0-3.0-3.0"	"un0pzf"	"600"	"1366"	"chrome"	"108.0.0"	"FALSE"	"Windows 10"	"60.59"	"136"	n/a	n/a	n/a	n/a	n/a	n/a	"practice_block_results"	n/a	n/a	n/a	"3715"	"0"	n/a	"NULL"	"NULL"	"NULL"	"<p style='color:rgb(76,175,80);'> Correct Responses: <b>100.00%</b></p><hr><p style='color:rgb(233,30,99);'> Average Response Time: <b>340.50</b> ms.</p>"	n/a	n/a	n/a	n/a	n/a	n/a	n/a	n/a	n/a	n/a
n/a	"html-button-response"	"50"	"209684"	"0.0-4.0-4.0"	"un0pzf"	"600"	"1366"	"chrome"	"108.0.0"	"FALSE"	"Windows 10"	"60.59"	"136"	n/a	n/a	n/a	n/a	n/a	n/a	"practice_debrief"	n/a	n/a	n/a	"69665"	"0"	n/a	"NULL"	"NULL"	"NULL"	"<p><b>TRAINING COMPLETED</b></p><p>In the next phase, there will be more trials, and some might be harder too.<br> Moreover, after each illusion block, a <b>score</b> will be calculated based on speed (time you took to answer) and accuracy (number of errors).</p><p>Try to keep up a high score!</p><br><p>Note that it can be <i>really</i> challenging at times, so you will need to rely on your <b>intuition</b> and gut feeling to answer as fast as you can without making errors.</p><p>Each illusion block will be repeated two times (so that you have the opportunity to improve your score), but the order of the blocks is random.</p><p>Remember, your goal is to be as <b>fast</b> and <b>accurate</b> as possible. Good luck!</p><br>"	n/a	n/a	n/a	n/a	n/a	n/a	n/a	n/a	n/a	n/a
"TRUE"	"preload"	"51"	"209835"	"0.0-5.0-0.0"	"un0pzf"	"600"	"1366"	"chrome"	"108.0.0"	"FALSE"	"Windows 10"	"60.59"	"136"	n/a	n/a	n/a	n/a	n/a	n/a	n/a	n/a	n/a	n/a	n/a	"NULL"	"FALSE"	"list()"	"list()"	"list()"	n/a	n/a	n/a	n/a	n/a	n/a	n/a	n/a	n/a	n/a	n/a
n/a	"html-keyboard-response"	"52"	"216539"	"0.0-5.0-1.0"	"un0pzf"	"600"	"1366"	"chrome"	"108.0.0"	"FALSE"	"Windows 10"	"60.59"	"136"	n/a	n/a	n/a	n/a	n/a	n/a	n/a	n/a	n/a	n/a	"6703"	"enter"	n/a	"NULL"	"NULL"	"NULL"	"<p><b>Part 1/6</b></p><p>In this part, two red lines will appear side by side.</p><p>Your task is to tell <b>which line is longer</b> in length, regardless of their orientation, as fast as you can, and without making errors.</p><p>Don't get distracted by the orientation of the lines!</p><p>Press <b>the LEFT or the RIGHT arrow</b> to indicate which <b>line is the longer one.</b></p><div style='float: center'><img src='materials/instructions/VerticalHorizontal_Demo.png' height='300'></img><p><img src='utils/answer/answer_leftright_keyboard.PNG' height='150'></img></p><p class='small'>In this example, the correct answer is the <b>LEFT arrow</b>.</p></div><p>Are you ready? <b>Press ENTER to start</b></p>"	n/a	n/a	n/a	n/a	n/a	n/a	n/a	n/a	n/a	n/a
n/a	"html-keyboard-response"	"53"	"218423"	"0.0-5.0-2.0-0.0"	"un0pzf"	"600"	"1366"	"chrome"	"108.0.0"	"FALSE"	"Windows 10"	"60.59"	"136"	n/a	n/a	n/a	n/a	n/a	n/a	"fixation"	n/a	n/a	n/a	n/a	"NULL"	n/a	"NULL"	"NULL"	"NULL"	"<p style=\"color: black; font-size: 80px; padding-left: 47%; padding-right: 17%; padding-top: 12%; padding-bottom: 34%\">+</p>"	"1362"	n/a	n/a	n/a	n/a	n/a	n/a	n/a	n/a	n/a
n/a	"image-keyboard-response"	"54"	"218946"	"0.0-5.0-2.0-1.0"	"un0pzf"	"600"	"1366"	"chrome"	"108.0.0"	"FALSE"	"Windows 10"	"60.59"	"136"	n/a	n/a	n/a	n/a	n/a	n/a	"Trial"	n/a	n/a	n/a	"522"	"arrowleft"	n/a	"NULL"	"NULL"	"NULL"	"stimuli/VerticalHorizontal_3.30000_0.22500.png"	n/a	"VerticalHorizontal"	"arrowleft"	"1884"	"TRUE"	"VerticalHorizontal"	"3.3000000000"	"0.2250000000"	"1"	"19"
n/a	"html-keyboard-response"	"55"	"220276"	"0.0-5.0-2.0-0.1"	"un0pzf"	"600"	"1366"	"chrome"	"108.0.0"	"FALSE"	"Windows 10"	"60.59"	"136"	n/a	n/a	n/a	n/a	n/a	n/a	"fixation"	n/a	n/a	n/a	n/a	"NULL"	n/a	"NULL"	"NULL"	"NULL"	"<p style=\"color: black; font-size: 80px; padding-left: 6%; padding-right: 21%; padding-top: 35%; padding-bottom: 41%\">+</p>"	"1319"	n/a	n/a	n/a	n/a	n/a	n/a	n/a	n/a	n/a
n/a	"image-keyboard-response"	"56"	"220705"	"0.0-5.0-2.0-1.1"	"un0pzf"	"600"	"1366"	"chrome"	"108.0.0"	"FALSE"	"Windows 10"	"60.59"	"136"	n/a	n/a	n/a	n/a	n/a	n/a	"Trial"	n/a	n/a	n/a	"428"	"arrowright"	n/a	"NULL"	"NULL"	"NULL"	"stimuli/VerticalHorizontal_-11.78571_-0.1096.png"	n/a	"VerticalHorizontal"	"arrowright"	"1330"	"TRUE"	"VerticalHorizontal"	"-11.78571000"	"-0.109600000"	"1"	"20"
n/a	"html-keyboard-response"	"57"	"221747"	"0.0-5.0-2.0-0.2"	"un0pzf"	"600"	"1366"	"chrome"	"108.0.0"	"FALSE"	"Windows 10"	"60.59"	"136"	n/a	n/a	n/a	n/a	n/a	n/a	"fixation"	n/a	n/a	n/a	n/a	"NULL"	n/a	"NULL"	"NULL"	"NULL"	"<p style=\"color: black; font-size: 80px; padding-left: 7%; padding-right: 39%; padding-top: 13%; padding-bottom: 7%\">+</p>"	"1030"	n/a	n/a	n/a	n/a	n/a	n/a	n/a	n/a	n/a
n/a	"image-keyboard-response"	"58"	"222147"	"0.0-5.0-2.0-1.2"	"un0pzf"	"600"	"1366"	"chrome"	"108.0.0"	"FALSE"	"Windows 10"	"60.59"	"136"	n/a	n/a	n/a	n/a	n/a	n/a	"Trial"	n/a	n/a	n/a	"398"	"arrowleft"	n/a	"NULL"	"NULL"	"NULL"	"stimuli/VerticalHorizontal_28.75714_-0.0673.png"	n/a	"VerticalHorizontal"	"arrowright"	"1042"	"FALSE"	"VerticalHorizontal"	"28.757140000"	"-0.067300000"	"1"	"21"
n/a	"html-keyboard-response"	"59"	"223524"	"0.0-5.0-2.0-0.3"	"un0pzf"	"600"	"1366"	"chrome"	"108.0.0"	"FALSE"	"Windows 10"	"60.59"	"136"	n/a	n/a	n/a	n/a	n/a	n/a	"fixation"	n/a	n/a	n/a	n/a	"NULL"	n/a	"NULL"	"NULL"	"NULL"	"<p style=\"color: black; font-size: 80px; padding-left: 10%; padding-right: 6%; padding-top: 26%; padding-bottom: 30%\">+</p>"	"1363"	n/a	n/a	n/a	n/a	n/a	n/a	n/a	n/a	n/a
n/a	"image-keyboard-response"	"60"	"223896"	"0.0-5.0-2.0-1.3"	"un0pzf"	"600"	"1366"	"chrome"	"108.0.0"	"FALSE"	"Windows 10"	"60.59"	"136"	n/a	n/a	n/a	n/a	n/a	n/a	"Trial"	n/a	n/a	n/a	"371"	"arrowleft"	n/a	"NULL"	"NULL"	"NULL"	"stimuli/VerticalHorizontal_-28.75714_0.16217.png"	n/a	"VerticalHorizontal"	"arrowleft"	"1377"	"TRUE"	"VerticalHorizontal"	"-28.75714000"	"0.1621700000"	"1"	"22"
n/a	"html-keyboard-response"	"61"	"225275"	"0.0-5.0-2.0-0.4"	"un0pzf"	"600"	"1366"	"chrome"	"108.0.0"	"FALSE"	"Windows 10"	"60.59"	"136"	n/a	n/a	n/a	n/a	n/a	n/a	"fixation"	n/a	n/a	n/a	n/a	"NULL"	n/a	"NULL"	"NULL"	"NULL"	"<p style=\"color: black; font-size: 80px; padding-left: 13%; padding-right: 25%; padding-top: 37%; padding-bottom: 23%\">+</p>"	"1357"	n/a	n/a	n/a	n/a	n/a	n/a	n/a	n/a	n/a
n/a	"image-keyboard-response"	"62"	"225587"	"0.0-5.0-2.0-1.4"	"un0pzf"	"600"	"1366"	"chrome"	"108.0.0"	"FALSE"	"Windows 10"	"60.59"	"136"	n/a	n/a	n/a	n/a	n/a	n/a	"Trial"	n/a	n/a	n/a	"310"	"arrowright"	n/a	"NULL"	"NULL"	"NULL"	"stimuli/VerticalHorizontal_-20.27143_0.22500.png"	n/a	"VerticalHorizontal"	"arrowleft"	"1379"	"FALSE"	"VerticalHorizontal"	"-20.27143000"	"0.2250000000"	"1"	"23"
n/a	"html-keyboard-response"	"63"	"226600"	"0.0-5.0-2.0-0.5"	"un0pzf"	"600"	"1366"	"chrome"	"108.0.0"	"FALSE"	"Windows 10"	"60.59"	"136"	n/a	n/a	n/a	n/a	n/a	n/a	"fixation"	n/a	n/a	n/a	n/a	"NULL"	n/a	"NULL"	"NULL"	"NULL"	"<p style=\"color: black; font-size: 80px; padding-left: 23%; padding-right: 17%; padding-top: 33%; padding-bottom: 5%\">+</p>"	"1001"	n/a	n/a	n/a	n/a	n/a	n/a	n/a	n/a	n/a
n/a	"image-keyboard-response"	"64"	"226925"	"0.0-5.0-2.0-1.5"	"un0pzf"	"600"	"1366"	"chrome"	"108.0.0"	"FALSE"	"Windows 10"	"60.59"	"136"	n/a	n/a	n/a	n/a	n/a	n/a	"Trial"	n/a	n/a	n/a	"324"	"arrowleft"	n/a	"NULL"	"NULL"	"NULL"	"stimuli/VerticalHorizontal_28.75714_-0.16217.png"	n/a	"VerticalHorizontal"	"arrowright"	"1013"	"FALSE"	"VerticalHorizontal"	"28.757140000"	"-0.162170000"	"1"	"24"
n/a	"html-keyboard-response"	"65"	"228382"	"0.0-5.0-2.0-0.6"	"un0pzf"	"600"	"1366"	"chrome"	"108.0.0"	"FALSE"	"Windows 10"	"60.59"	"136"	n/a	n/a	n/a	n/a	n/a	n/a	"fixation"	n/a	n/a	n/a	n/a	"NULL"	n/a	"NULL"	"NULL"	"NULL"	"<p style=\"color: black; font-size: 80px; padding-left: 40%; padding-right: 43%; padding-top: 24%; padding-bottom: 30%\">+</p>"	"1445"	n/a	n/a	n/a	n/a	n/a	n/a	n/a	n/a	n/a
n/a	"image-keyboard-response"	"66"	"228851"	"0.0-5.0-2.0-1.6"	"un0pzf"	"600"	"1366"	"chrome"	"108.0.0"	"FALSE"	"Windows 10"	"60.59"	"136"	n/a	n/a	n/a	n/a	n/a	n/a	"Trial"	n/a	n/a	n/a	"468"	"arrowright"	n/a	"NULL"	"NULL"	"NULL"	"stimuli/VerticalHorizontal_28.75714_0.10960.png"	n/a	"VerticalHorizontal"	"arrowleft"	"1457"	"FALSE"	"VerticalHorizontal"	"28.757140000"	"0.1096000000"	"1"	"25"
n/a	"html-keyboard-response"	"67"	"230306"	"0.0-5.0-2.0-0.7"	"un0pzf"	"600"	"1366"	"chrome"	"108.0.0"	"FALSE"	"Windows 10"	"60.59"	"136"	n/a	n/a	n/a	n/a	n/a	n/a	"fixation"	n/a	n/a	n/a	n/a	"NULL"	n/a	"NULL"	"NULL"	"NULL"	"<p style=\"color: black; font-size: 80px; padding-left: 10%; padding-right: 0%; padding-top: 29%; padding-bottom: 46%\">+</p>"	"1445"	n/a	n/a	n/a	n/a	n/a	n/a	n/a	n/a	n/a
n/a	"image-keyboard-response"	"68"	"230765"	"0.0-5.0-2.0-1.7"	"un0pzf"	"600"	"1366"	"chrome"	"108.0.0"	"FALSE"	"Windows 10"	"60.59"	"136"	n/a	n/a	n/a	n/a	n/a	n/a	"Trial"	n/a	n/a	n/a	"459"	"arrowleft"	n/a	"NULL"	"NULL"	"NULL"	"stimuli/VerticalHorizontal_3.30000_0.10960.png"	n/a	"VerticalHorizontal"	"arrowleft"	"1455"	"TRUE"	"VerticalHorizontal"	"3.3000000000"	"0.1096000000"	"1"	"26"
n/a	"html-keyboard-response"	"69"	"231855"	"0.0-5.0-2.0-0.8"	"un0pzf"	"600"	"1366"	"chrome"	"108.0.0"	"FALSE"	"Windows 10"	"60.59"	"136"	n/a	n/a	n/a	n/a	n/a	n/a	"fixation"	n/a	n/a	n/a	n/a	"NULL"	n/a	"NULL"	"NULL"	"NULL"	"<p style=\"color: black; font-size: 80px; padding-left: 0%; padding-right: 50%; padding-top: 2%; padding-bottom: 24%\">+</p>"	"1077"	n/a	n/a	n/a	n/a	n/a	n/a	n/a	n/a	n/a
n/a	"image-keyboard-response"	"70"	"232513"	"0.0-5.0-2.0-1.8"	"un0pzf"	"600"	"1366"	"chrome"	"108.0.0"	"FALSE"	"Windows 10"	"60.59"	"136"	n/a	n/a	n/a	n/a	n/a	n/a	"Trial"	n/a	n/a	n/a	"657"	"arrowright"	n/a	"NULL"	"NULL"	"NULL"	"stimuli/VerticalHorizontal_20.27143_-0.0673.png"	n/a	"VerticalHorizontal"	"arrowright"	"1090"	"TRUE"	"VerticalHorizontal"	"20.271430000"	"-0.067300000"	"1"	"27"
n/a	"html-keyboard-response"	"71"	"233946"	"0.0-5.0-2.0-0.9"	"un0pzf"	"600"	"1366"	"chrome"	"108.0.0"	"FALSE"	"Windows 10"	"60.59"	"136"	n/a	n/a	n/a	n/a	n/a	n/a	"fixation"	n/a	n/a	n/a	n/a	"NULL"	n/a	"NULL"	"NULL"	"NULL"	"<p style=\"color: black; font-size: 80px; padding-left: 18%; padding-right: 17%; padding-top: 32%; padding-bottom: 44%\">+</p>"	"1426"	n/a	n/a	n/a	n/a	n/a	n/a	n/a	n/a	n/a
n/a	"image-keyboard-response"	"72"	"234352"	"0.0-5.0-2.0-1.9"	"un0pzf"	"600"	"1366"	"chrome"	"108.0.0"	"FALSE"	"Windows 10"	"60.59"	"136"	n/a	n/a	n/a	n/a	n/a	n/a	"Trial"	n/a	n/a	n/a	"405"	"arrowleft"	n/a	"NULL"	"NULL"	"NULL"	"stimuli/VerticalHorizontal_-3.3000_0.10960.png"	n/a	"VerticalHorizontal"	"arrowleft"	"1433"	"TRUE"	"VerticalHorizontal"	"-3.300000000"	"0.1096000000"	"1"	"28"
n/a	"html-keyboard-response"	"73"	"235647"	"0.0-5.0-2.0-0.10"	"un0pzf"	"600"	"1366"	"chrome"	"108.0.0"	"FALSE"	"Windows 10"	"60.59"	"136"	n/a	n/a	n/a	n/a	n/a	n/a	"fixation"	n/a	n/a	n/a	n/a	"NULL"	n/a	"NULL"	"NULL"	"NULL"	"<p style=\"color: black; font-size: 80px; padding-left: 19%; padding-right: 15%; padding-top: 10%; padding-bottom: 42%\">+</p>"	"1278"	n/a	n/a	n/a	n/a	n/a	n/a	n/a	n/a	n/a
n/a	"image-keyboard-response"	"74"	"236171"	"0.0-5.0-2.0-1.10"	"un0pzf"	"600"	"1366"	"chrome"	"108.0.0"	"FALSE"	"Windows 10"	"60.59"	"136"	n/a	n/a	n/a	n/a	n/a	n/a	"Trial"	n/a	n/a	n/a	"524"	"arrowleft"	n/a	"NULL"	"NULL"	"NULL"	"stimuli/VerticalHorizontal_3.30000_0.16217.png"	n/a	"VerticalHorizontal"	"arrowleft"	"1295"	"TRUE"	"VerticalHorizontal"	"3.3000000000"	"0.1621700000"	"1"	"29"
n/a	"html-keyboard-response"	"75"	"237370"	"0.0-5.0-2.0-0.11"	"un0pzf"	"600"	"1366"	"chrome"	"108.0.0"	"FALSE"	"Windows 10"	"60.59"	"136"	n/a	n/a	n/a	n/a	n/a	n/a	"fixation"	n/a	n/a	n/a	n/a	"NULL"	n/a	"NULL"	"NULL"	"NULL"	"<p style=\"color: black; font-size: 80px; padding-left: 48%; padding-right: 5%; padding-top: 2%; padding-bottom: 43%\">+</p>"	"1191"	n/a	n/a	n/a	n/a	n/a	n/a	n/a	n/a	n/a
n/a	"image-keyboard-response"	"76"	"237921"	"0.0-5.0-2.0-1.11"	"un0pzf"	"600"	"1366"	"chrome"	"108.0.0"	"FALSE"	"Windows 10"	"60.59"	"136"	n/a	n/a	n/a	n/a	n/a	n/a	"Trial"	n/a	n/a	n/a	"551"	"arrowright"	n/a	"NULL"	"NULL"	"NULL"	"stimuli/VerticalHorizontal_-3.3000_-0.2250.png"	n/a	"VerticalHorizontal"	"arrowright"	"1199"	"TRUE"	"VerticalHorizontal"	"-3.300000000"	"-0.225000000"	"1"	"30"
n/a	"html-keyboard-response"	"77"	"238979"	"0.0-5.0-2.0-0.12"	"un0pzf"	"600"	"1366"	"chrome"	"108.0.0"	"FALSE"	"Windows 10"	"60.59"	"136"	n/a	n/a	n/a	n/a	n/a	n/a	"fixation"	n/a	n/a	n/a	n/a	"NULL"	n/a	"NULL"	"NULL"	"NULL"	"<p style=\"color: black; font-size: 80px; padding-left: 40%; padding-right: 18%; padding-top: 18%; padding-bottom: 20%\">+</p>"	"1049"	n/a	n/a	n/a	n/a	n/a	n/a	n/a	n/a	n/a
n/a	"image-keyboard-response"	"78"	"239493"	"0.0-5.0-2.0-1.12"	"un0pzf"	"600"	"1366"	"chrome"	"108.0.0"	"FALSE"	"Windows 10"	"60.59"	"136"	n/a	n/a	n/a	n/a	n/a	n/a	"Trial"	n/a	n/a	n/a	"512"	"arrowleft"	n/a	"NULL"	"NULL"	"NULL"	"stimuli/VerticalHorizontal_20.27143_-0.1096.png"	n/a	"VerticalHorizontal"	"arrowright"	"1058"	"FALSE"	"VerticalHorizontal"	"20.271430000"	"-0.109600000"	"1"	"31"
n/a	"html-keyboard-response"	"79"	"241003"	"0.0-5.0-2.0-0.13"	"un0pzf"	"600"	"1366"	"chrome"	"108.0.0"	"FALSE"	"Windows 10"	"60.59"	"136"	n/a	n/a	n/a	n/a	n/a	n/a	"fixation"	n/a	n/a	n/a	n/a	"NULL"	n/a	"NULL"	"NULL"	"NULL"	"<p style=\"color: black; font-size: 80px; padding-left: 4%; padding-right: 15%; padding-top: 25%; padding-bottom: 27%\">+</p>"	"1496"	n/a	n/a	n/a	n/a	n/a	n/a	n/a	n/a	n/a
n/a	"image-keyboard-response"	"80"	"241689"	"0.0-5.0-2.0-1.13"	"un0pzf"	"600"	"1366"	"chrome"	"108.0.0"	"FALSE"	"Windows 10"	"60.59"	"136"	n/a	n/a	n/a	n/a	n/a	n/a	"Trial"	n/a	n/a	n/a	"685"	"arrowleft"	n/a	"NULL"	"NULL"	"NULL"	"stimuli/VerticalHorizontal_11.78571_0.10960.png"	n/a	"VerticalHorizontal"	"arrowleft"	"1510"	"TRUE"	"VerticalHorizontal"	"11.785710000"	"0.1096000000"	"1"	"32"
n/a	"html-keyboard-response"	"81"	"243165"	"0.0-5.0-2.0-0.14"	"un0pzf"	"600"	"1366"	"chrome"	"108.0.0"	"FALSE"	"Windows 10"	"60.59"	"136"	n/a	n/a	n/a	n/a	n/a	n/a	"fixation"	n/a	n/a	n/a	n/a	"NULL"	n/a	"NULL"	"NULL"	"NULL"	"<p style=\"color: black; font-size: 80px; padding-left: 19%; padding-right: 30%; padding-top: 43%; padding-bottom: 17%\">+</p>"	"1465"	n/a	n/a	n/a	n/a	n/a	n/a	n/a	n/a	n/a
n/a	"image-keyboard-response"	"82"	"243655"	"0.0-5.0-2.0-1.14"	"un0pzf"	"600"	"1366"	"chrome"	"108.0.0"	"FALSE"	"Windows 10"	"60.59"	"136"	n/a	n/a	n/a	n/a	n/a	n/a	"Trial"	n/a	n/a	n/a	"489"	"arrowright"	n/a	"NULL"	"NULL"	"NULL"	"stimuli/VerticalHorizontal_3.30000_-0.2250.png"	n/a	"VerticalHorizontal"	"arrowright"	"1476"	"TRUE"	"VerticalHorizontal"	"3.3000000000"	"-0.225000000"	"1"	"33"
n/a	"html-keyboard-response"	"83"	"244980"	"0.0-5.0-2.0-0.15"	"un0pzf"	"600"	"1366"	"chrome"	"108.0.0"	"FALSE"	"Windows 10"	"60.59"	"136"	n/a	n/a	n/a	n/a	n/a	n/a	"fixation"	n/a	n/a	n/a	n/a	"NULL"	n/a	"NULL"	"NULL"	"NULL"	"<p style=\"color: black; font-size: 80px; padding-left: 34%; padding-right: 8%; padding-top: 8%; padding-bottom: 6%\">+</p>"	"1313"	n/a	n/a	n/a	n/a	n/a	n/a	n/a	n/a	n/a
n/a	"image-keyboard-response"	"84"	"245377"	"0.0-5.0-2.0-1.15"	"un0pzf"	"600"	"1366"	"chrome"	"108.0.0"	"FALSE"	"Windows 10"	"60.59"	"136"	n/a	n/a	n/a	n/a	n/a	n/a	"Trial"	n/a	n/a	n/a	"396"	"arrowright"	n/a	"NULL"	"NULL"	"NULL"	"stimuli/VerticalHorizontal_-20.27143_-0.2250.png"	n/a	"VerticalHorizontal"	"arrowright"	"1325"	"TRUE"	"VerticalHorizontal"	"-20.27143000"	"-0.225000000"	"1"	"34"
n/a	"html-keyboard-response"	"85"	"246523"	"0.0-5.0-2.0-0.16"	"un0pzf"	"600"	"1366"	"chrome"	"108.0.0"	"FALSE"	"Windows 10"	"60.59"	"136"	n/a	n/a	n/a	n/a	n/a	n/a	"fixation"	n/a	n/a	n/a	n/a	"NULL"	n/a	"NULL"	"NULL"	"NULL"	"<p style=\"color: black; font-size: 80px; padding-left: 43%; padding-right: 47%; padding-top: 4%; padding-bottom: 9%\">+</p>"	"1117"	n/a	n/a	n/a	n/a	n/a	n/a	n/a	n/a	n/a
n/a	"image-keyboard-response"	"86"	"246933"	"0.0-5.0-2.0-1.16"	"un0pzf"	"600"	"1366"	"chrome"	"108.0.0"	"FALSE"	"Windows 10"	"60.59"	"136"	n/a	n/a	n/a	n/a	n/a	n/a	"Trial"	n/a	n/a	n/a	"406"	"arrowleft"	n/a	"NULL"	"NULL"	"NULL"	"stimuli/VerticalHorizontal_-11.78571_0.10960.png"	n/a	"VerticalHorizontal"	"arrowleft"	"1146"	"TRUE"	"VerticalHorizontal"	"-11.78571000"	"0.1096000000"	"1"	"35"
n/a	"html-keyboard-response"	"87"	"248166"	"0.0-5.0-2.0-0.17"	"un0pzf"	"600"	"1366"	"chrome"	"108.0.0"	"FALSE"	"Windows 10"	"60.59"	"136"	n/a	n/a	n/a	n/a	n/a	n/a	"fixation"	n/a	n/a	n/a	n/a	"NULL"	n/a	"NULL"	"NULL"	"NULL"	"<p style=\"color: black; font-size: 80px; padding-left: 25%; padding-right: 18%; padding-top: 28%; padding-bottom: 0%\">+</p>"	"1218"	n/a	n/a	n/a	n/a	n/a	n/a	n/a	n/a	n/a
n/a	"image-keyboard-response"	"88"	"248700"	"0.0-5.0-2.0-1.17"	"un0pzf"	"600"	"1366"	"chrome"	"108.0.0"	"FALSE"	"Windows 10"	"60.59"	"136"	n/a	n/a	n/a	n/a	n/a	n/a	"Trial"	n/a	n/a	n/a	"533"	"arrowleft"	n/a	"NULL"	"NULL"	"NULL"	"stimuli/VerticalHorizontal_-3.3000_0.16217.png"	n/a	"VerticalHorizontal"	"arrowleft"	"1233"	"TRUE"	"VerticalHorizontal"	"-3.300000000"	"0.1621700000"	"1"	"36"
n/a	"html-keyboard-response"	"89"	"249803"	"0.0-5.0-2.0-0.18"	"un0pzf"	"600"	"1366"	"chrome"	"108.0.0"	"FALSE"	"Windows 10"	"60.59"	"136"	n/a	n/a	n/a	n/a	n/a	n/a	"fixation"	n/a	n/a	n/a	n/a	"NULL"	n/a	"NULL"	"NULL"	"NULL"	"<p style=\"color: black; font-size: 80px; padding-left: 25%; padding-right: 12%; padding-top: 45%; padding-bottom: 21%\">+</p>"	"1089"	n/a	n/a	n/a	n/a	n/a	n/a	n/a	n/a	n/a
n/a	"image-keyboard-response"	"90"	"250271"	"0.0-5.0-2.0-1.18"	"un0pzf"	"600"	"1366"	"chrome"	"108.0.0"	"FALSE"	"Windows 10"	"60.59"	"136"	n/a	n/a	n/a	n/a	n/a	n/a	"Trial"	n/a	n/a	n/a	"467"	"arrowleft"	n/a	"NULL"	"NULL"	"NULL"	"stimuli/VerticalHorizontal_-28.75714_0.10960.png"	n/a	"VerticalHorizontal"	"arrowleft"	"1103"	"TRUE"	"VerticalHorizontal"	"-28.75714000"	"0.1096000000"	"1"	"37"
n/a	"html-keyboard-response"	"91"	"251525"	"0.0-5.0-2.0-0.19"	"un0pzf"	"600"	"1366"	"chrome"	"108.0.0"	"FALSE"	"Windows 10"	"60.59"	"136"	n/a	n/a	n/a	n/a	n/a	n/a	"fixation"	n/a	n/a	n/a	n/a	"NULL"	n/a	"NULL"	"NULL"	"NULL"	"<p style=\"color: black; font-size: 80px; padding-left: 3%; padding-right: 12%; padding-top: 24%; padding-bottom: 15%\">+</p>"	"1241"	n/a	n/a	n/a	n/a	n/a	n/a	n/a	n/a	n/a
n/a	"image-keyboard-response"	"92"	"251998"	"0.0-5.0-2.0-1.19"	"un0pzf"	"600"	"1366"	"chrome"	"108.0.0"	"FALSE"	"Windows 10"	"60.59"	"136"	n/a	n/a	n/a	n/a	n/a	n/a	"Trial"	n/a	n/a	n/a	"473"	"arrowright"	n/a	"NULL"	"NULL"	"NULL"	"stimuli/VerticalHorizontal_28.75714_0.06730.png"	n/a	"VerticalHorizontal"	"arrowleft"	"1254"	"FALSE"	"VerticalHorizontal"	"28.757140000"	"0.0673000000"	"1"	"38"
n/a	"html-keyboard-response"	"93"	"253141"	"0.0-5.0-2.0-0.20"	"un0pzf"	"600"	"1366"	"chrome"	"108.0.0"	"FALSE"	"Windows 10"	"60.59"	"136"	n/a	n/a	n/a	n/a	n/a	n/a	"fixation"	n/a	n/a	n/a	n/a	"NULL"	n/a	"NULL"	"NULL"	"NULL"	"<p style=\"color: black; font-size: 80px; padding-left: 31%; padding-right: 34%; padding-top: 19%; padding-bottom: 12%\">+</p>"	"1133"	n/a	n/a	n/a	n/a	n/a	n/a	n/a	n/a	n/a
n/a	"image-keyboard-response"	"94"	"253515"	"0.0-5.0-2.0-1.20"	"un0pzf"	"600"	"1366"	"chrome"	"108.0.0"	"FALSE"	"Windows 10"	"60.59"	"136"	n/a	n/a	n/a	n/a	n/a	n/a	"Trial"	n/a	n/a	n/a	"373"	"arrowleft"	n/a	"NULL"	"NULL"	"NULL"	"stimuli/VerticalHorizontal_11.78571_-0.1096.png"	n/a	"VerticalHorizontal"	"arrowright"	"1143"	"FALSE"	"VerticalHorizontal"	"11.785710000"	"-0.109600000"	"1"	"39"
n/a	"html-keyboard-response"	"95"	"254983"	"0.0-5.0-2.0-0.21"	"un0pzf"	"600"	"1366"	"chrome"	"108.0.0"	"FALSE"	"Windows 10"	"60.59"	"136"	n/a	n/a	n/a	n/a	n/a	n/a	"fixation"	n/a	n/a	n/a	n/a	"NULL"	n/a	"NULL"	"NULL"	"NULL"	"<p style=\"color: black; font-size: 80px; padding-left: 13%; padding-right: 50%; padding-top: 24%; padding-bottom: 40%\">+</p>"	"1461"	n/a	n/a	n/a	n/a	n/a	n/a	n/a	n/a	n/a
n/a	"image-keyboard-response"	"96"	"255452"	"0.0-5.0-2.0-1.21"	"un0pzf"	"600"	"1366"	"chrome"	"108.0.0"	"FALSE"	"Windows 10"	"60.59"	"136"	n/a	n/a	n/a	n/a	n/a	n/a	"Trial"	n/a	n/a	n/a	"468"	"arrowleft"	n/a	"NULL"	"NULL"	"NULL"	"stimuli/VerticalHorizontal_-11.78571_0.16217.png"	n/a	"VerticalHorizontal"	"arrowleft"	"1468"	"TRUE"	"VerticalHorizontal"	"-11.78571000"	"0.1621700000"	"1"	"40"
n/a	"html-keyboard-response"	"97"	"256788"	"0.0-5.0-2.0-0.22"	"un0pzf"	"600"	"1366"	"chrome"	"108.0.0"	"FALSE"	"Windows 10"	"60.59"	"136"	n/a	n/a	n/a	n/a	n/a	n/a	"fixation"	n/a	n/a	n/a	n/a	"NULL"	n/a	"NULL"	"NULL"	"NULL"	"<p style=\"color: black; font-size: 80px; padding-left: 3%; padding-right: 10%; padding-top: 9%; padding-bottom: 2%\">+</p>"	"1317"	n/a	n/a	n/a	n/a	n/a	n/a	n/a	n/a	n/a
n/a	"image-keyboard-response"	"98"	"257195"	"0.0-5.0-2.0-1.22"	"un0pzf"	"600"	"1366"	"chrome"	"108.0.0"	"FALSE"	"Windows 10"	"60.59"	"136"	n/a	n/a	n/a	n/a	n/a	n/a	"Trial"	n/a	n/a	n/a	"407"	"arrowright"	n/a	"NULL"	"NULL"	"NULL"	"stimuli/VerticalHorizontal_-20.27143_-0.0673.png"	n/a	"VerticalHorizontal"	"arrowright"	"1336"	"TRUE"	"VerticalHorizontal"	"-20.27143000"	"-0.067300000"	"1"	"41"
n/a	"html-keyboard-response"	"99"	"258430"	"0.0-5.0-2.0-0.23"	"un0pzf"	"600"	"1366"	"chrome"	"108.0.0"	"FALSE"	"Windows 10"	"60.59"	"136"	n/a	n/a	n/a	n/a	n/a	n/a	"fixation"	n/a	n/a	n/a	n/a	"NULL"	n/a	"NULL"	"NULL"	"NULL"	"<p style=\"color: black; font-size: 80px; padding-left: 10%; padding-right: 9%; padding-top: 35%; padding-bottom: 29%\">+</p>"	"1221"	n/a	n/a	n/a	n/a	n/a	n/a	n/a	n/a	n/a
n/a	"image-keyboard-response"	"100"	"258860"	"0.0-5.0-2.0-1.23"	"un0pzf"	"600"	"1366"	"chrome"	"108.0.0"	"FALSE"	"Windows 10"	"60.59"	"136"	n/a	n/a	n/a	n/a	n/a	n/a	"Trial"	n/a	n/a	n/a	"429"	"arrowright"	n/a	"NULL"	"NULL"	"NULL"	"stimuli/VerticalHorizontal_11.78571_0.16217.png"	n/a	"VerticalHorizontal"	"arrowleft"	"1235"	"FALSE"	"VerticalHorizontal"	"11.785710000"	"0.1621700000"	"1"	"42"
n/a	"html-keyboard-response"	"101"	"260151"	"0.0-5.0-2.0-0.24"	"un0pzf"	"600"	"1366"	"chrome"	"108.0.0"	"FALSE"	"Windows 10"	"60.59"	"136"	n/a	n/a	n/a	n/a	n/a	n/a	"fixation"	n/a	n/a	n/a	n/a	"NULL"	n/a	"NULL"	"NULL"	"NULL"	"<p style=\"color: black; font-size: 80px; padding-left: 23%; padding-right: 29%; padding-top: 43%; padding-bottom: 46%\">+</p>"	"1284"	n/a	n/a	n/a	n/a	n/a	n/a	n/a	n/a	n/a
n/a	"image-keyboard-response"	"102"	"260767"	"0.0-5.0-2.0-1.24"	"un0pzf"	"600"	"1366"	"chrome"	"108.0.0"	"FALSE"	"Windows 10"	"60.59"	"136"	n/a	n/a	n/a	n/a	n/a	n/a	"Trial"	n/a	n/a	n/a	"615"	"arrowleft"	n/a	"NULL"	"NULL"	"NULL"	"stimuli/VerticalHorizontal_11.78571_-0.0673.png"	n/a	"VerticalHorizontal"	"arrowright"	"1291"	"FALSE"	"VerticalHorizontal"	"11.785710000"	"-0.067300000"	"1"	"43"
n/a	"html-keyboard-response"	"103"	"261916"	"0.0-5.0-2.0-0.25"	"un0pzf"	"600"	"1366"	"chrome"	"108.0.0"	"FALSE"	"Windows 10"	"60.59"	"136"	n/a	n/a	n/a	n/a	n/a	n/a	"fixation"	n/a	n/a	n/a	n/a	"NULL"	n/a	"NULL"	"NULL"	"NULL"	"<p style=\"color: black; font-size: 80px; padding-left: 9%; padding-right: 45%; padding-top: 31%; padding-bottom: 17%\">+</p>"	"1127"	n/a	n/a	n/a	n/a	n/a	n/a	n/a	n/a	n/a
n/a	"image-keyboard-response"	"104"	"262353"	"0.0-5.0-2.0-1.25"	"un0pzf"	"600"	"1366"	"chrome"	"108.0.0"	"FALSE"	"Windows 10"	"60.59"	"136"	n/a	n/a	n/a	n/a	n/a	n/a	"Trial"	n/a	n/a	n/a	"436"	"arrowleft"	n/a	"NULL"	"NULL"	"NULL"	"stimuli/VerticalHorizontal_28.75714_-0.2250.png"	n/a	"VerticalHorizontal"	"arrowright"	"1149"	"FALSE"	"VerticalHorizontal"	"28.757140000"	"-0.225000000"	"1"	"44"
n/a	"html-keyboard-response"	"105"	"263468"	"0.0-5.0-2.0-0.26"	"un0pzf"	"600"	"1366"	"chrome"	"108.0.0"	"FALSE"	"Windows 10"	"60.59"	"136"	n/a	n/a	n/a	n/a	n/a	n/a	"fixation"	n/a	n/a	n/a	n/a	"NULL"	n/a	"NULL"	"NULL"	"NULL"	"<p style=\"color: black; font-size: 80px; padding-left: 19%; padding-right: 44%; padding-top: 33%; padding-bottom: 30%\">+</p>"	"1094"	n/a	n/a	n/a	n/a	n/a	n/a	n/a	n/a	n/a
n/a	"image-keyboard-response"	"106"	"263882"	"0.0-5.0-2.0-1.26"	"un0pzf"	"600"	"1366"	"chrome"	"108.0.0"	"FALSE"	"Windows 10"	"60.59"	"136"	n/a	n/a	n/a	n/a	n/a	n/a	"Trial"	n/a	n/a	n/a	"411"	"arrowright"	n/a	"NULL"	"NULL"	"NULL"	"stimuli/VerticalHorizontal_-28.75714_-0.2250.png"	n/a	"VerticalHorizontal"	"arrowright"	"1115"	"TRUE"	"VerticalHorizontal"	"-28.75714000"	"-0.225000000"	"1"	"45"
n/a	"html-keyboard-response"	"107"	"265380"	"0.0-5.0-2.0-0.27"	"un0pzf"	"600"	"1366"	"chrome"	"108.0.0"	"FALSE"	"Windows 10"	"60.59"	"136"	n/a	n/a	n/a	n/a	n/a	n/a	"fixation"	n/a	n/a	n/a	n/a	"NULL"	n/a	"NULL"	"NULL"	"NULL"	"<p style=\"color: black; font-size: 80px; padding-left: 35%; padding-right: 18%; padding-top: 7%; padding-bottom: 37%\">+</p>"	"1486"	n/a	n/a	n/a	n/a	n/a	n/a	n/a	n/a	n/a
n/a	"image-keyboard-response"	"108"	"265849"	"0.0-5.0-2.0-1.27"	"un0pzf"	"600"	"1366"	"chrome"	"108.0.0"	"FALSE"	"Windows 10"	"60.59"	"136"	n/a	n/a	n/a	n/a	n/a	n/a	"Trial"	n/a	n/a	n/a	"468"	"arrowright"	n/a	"NULL"	"NULL"	"NULL"	"stimuli/VerticalHorizontal_-11.78571_-0.0673.png"	n/a	"VerticalHorizontal"	"arrowright"	"1498"	"TRUE"	"VerticalHorizontal"	"-11.78571000"	"-0.067300000"	"1"	"46"
n/a	"html-keyboard-response"	"109"	"267244"	"0.0-5.0-2.0-0.28"	"un0pzf"	"600"	"1366"	"chrome"	"108.0.0"	"FALSE"	"Windows 10"	"60.59"	"136"	n/a	n/a	n/a	n/a	n/a	n/a	"fixation"	n/a	n/a	n/a	n/a	"NULL"	n/a	"NULL"	"NULL"	"NULL"	"<p style=\"color: black; font-size: 80px; padding-left: 10%; padding-right: 12%; padding-top: 20%; padding-bottom: 13%\">+</p>"	"1385"	n/a	n/a	n/a	n/a	n/a	n/a	n/a	n/a	n/a
n/a	"image-keyboard-response"	"110"	"267595"	"0.0-5.0-2.0-1.28"	"un0pzf"	"600"	"1366"	"chrome"	"108.0.0"	"FALSE"	"Windows 10"	"60.59"	"136"	n/a	n/a	n/a	n/a	n/a	n/a	"Trial"	n/a	n/a	n/a	"350"	"arrowright"	n/a	"NULL"	"NULL"	"NULL"	"stimuli/VerticalHorizontal_-11.78571_-0.16217.png"	n/a	"VerticalHorizontal"	"arrowright"	"1395"	"TRUE"	"VerticalHorizontal"	"-11.78571000"	"-0.162170000"	"1"	"47"
n/a	"html-keyboard-response"	"111"	"268745"	"0.0-5.0-2.0-0.29"	"un0pzf"	"600"	"1366"	"chrome"	"108.0.0"	"FALSE"	"Windows 10"	"60.59"	"136"	n/a	n/a	n/a	n/a	n/a	n/a	"fixation"	n/a	n/a	n/a	n/a	"NULL"	n/a	"NULL"	"NULL"	"NULL"	"<p style=\"color: black; font-size: 80px; padding-left: 13%; padding-right: 44%; padding-top: 18%; padding-bottom: 41%\">+</p>"	"1132"	n/a	n/a	n/a	n/a	n/a	n/a	n/a	n/a	n/a
n/a	"image-keyboard-response"	"112"	"269190"	"0.0-5.0-2.0-1.29"	"un0pzf"	"600"	"1366"	"chrome"	"108.0.0"	"FALSE"	"Windows 10"	"60.59"	"136"	n/a	n/a	n/a	n/a	n/a	n/a	"Trial"	n/a	n/a	n/a	"444"	"arrowleft"	n/a	"NULL"	"NULL"	"NULL"	"stimuli/VerticalHorizontal_-28.75714_0.22500.png"	n/a	"VerticalHorizontal"	"arrowleft"	"1150"	"TRUE"	"VerticalHorizontal"	"-28.75714000"	"0.2250000000"	"1"	"48"
n/a	"html-keyboard-response"	"113"	"270579"	"0.0-5.0-2.0-0.30"	"un0pzf"	"600"	"1366"	"chrome"	"108.0.0"	"FALSE"	"Windows 10"	"60.59"	"136"	n/a	n/a	n/a	n/a	n/a	n/a	"fixation"	n/a	n/a	n/a	n/a	"NULL"	n/a	"NULL"	"NULL"	"NULL"	"<p style=\"color: black; font-size: 80px; padding-left: 39%; padding-right: 37%; padding-top: 25%; padding-bottom: 35%\">+</p>"	"1380"	n/a	n/a	n/a	n/a	n/a	n/a	n/a	n/a	n/a
n/a	"image-keyboard-response"	"114"	"270963"	"0.0-5.0-2.0-1.30"	"un0pzf"	"600"	"1366"	"chrome"	"108.0.0"	"FALSE"	"Windows 10"	"60.59"	"136"	n/a	n/a	n/a	n/a	n/a	n/a	"Trial"	n/a	n/a	n/a	"383"	"arrowright"	n/a	"NULL"	"NULL"	"NULL"	"stimuli/VerticalHorizontal_3.30000_-0.0673.png"	n/a	"VerticalHorizontal"	"arrowright"	"1389"	"TRUE"	"VerticalHorizontal"	"3.3000000000"	"-0.067300000"	"1"	"49"
n/a	"html-keyboard-response"	"115"	"272257"	"0.0-5.0-2.0-0.31"	"un0pzf"	"600"	"1366"	"chrome"	"108.0.0"	"FALSE"	"Windows 10"	"60.59"	"136"	n/a	n/a	n/a	n/a	n/a	n/a	"fixation"	n/a	n/a	n/a	n/a	"NULL"	n/a	"NULL"	"NULL"	"NULL"	"<p style=\"color: black; font-size: 80px; padding-left: 0%; padding-right: 47%; padding-top: 3%; padding-bottom: 24%\">+</p>"	"1289"	n/a	n/a	n/a	n/a	n/a	n/a	n/a	n/a	n/a
n/a	"image-keyboard-response"	"116"	"272733"	"0.0-5.0-2.0-1.31"	"un0pzf"	"600"	"1366"	"chrome"	"108.0.0"	"FALSE"	"Windows 10"	"60.59"	"136"	n/a	n/a	n/a	n/a	n/a	n/a	"Trial"	n/a	n/a	n/a	"476"	"arrowright"	n/a	"NULL"	"NULL"	"NULL"	"stimuli/VerticalHorizontal_-3.3000_-0.16217.png"	n/a	"VerticalHorizontal"	"arrowright"	"1294"	"TRUE"	"VerticalHorizontal"	"-3.300000000"	"-0.162170000"	"1"	"50"
n/a	"html-keyboard-response"	"117"	"273946"	"0.0-5.0-2.0-0.32"	"un0pzf"	"600"	"1366"	"chrome"	"108.0.0"	"FALSE"	"Windows 10"	"60.59"	"136"	n/a	n/a	n/a	n/a	n/a	n/a	"fixation"	n/a	n/a	n/a	n/a	"NULL"	n/a	"NULL"	"NULL"	"NULL"	"<p style=\"color: black; font-size: 80px; padding-left: 37%; padding-right: 33%; padding-top: 23%; padding-bottom: 17%\">+</p>"	"1195"	n/a	n/a	n/a	n/a	n/a	n/a	n/a	n/a	n/a
n/a	"image-keyboard-response"	"118"	"274338"	"0.0-5.0-2.0-1.32"	"un0pzf"	"600"	"1366"	"chrome"	"108.0.0"	"FALSE"	"Windows 10"	"60.59"	"136"	n/a	n/a	n/a	n/a	n/a	n/a	"Trial"	n/a	n/a	n/a	"391"	"arrowright"	n/a	"NULL"	"NULL"	"NULL"	"stimuli/VerticalHorizontal_20.27143_0.16217.png"	n/a	"VerticalHorizontal"	"arrowleft"	"1213"	"FALSE"	"VerticalHorizontal"	"20.271430000"	"0.1621700000"	"1"	"51"
n/a	"html-keyboard-response"	"119"	"275850"	"0.0-5.0-2.0-0.33"	"un0pzf"	"600"	"1366"	"chrome"	"108.0.0"	"FALSE"	"Windows 10"	"60.59"	"136"	n/a	n/a	n/a	n/a	n/a	n/a	"fixation"	n/a	n/a	n/a	n/a	"NULL"	n/a	"NULL"	"NULL"	"NULL"	"<p style=\"color: black; font-size: 80px; padding-left: 43%; padding-right: 50%; padding-top: 31%; padding-bottom: 46%\">+</p>"	"1492"	n/a	n/a	n/a	n/a	n/a	n/a	n/a	n/a	n/a
n/a	"image-keyboard-response"	"120"	"276337"	"0.0-5.0-2.0-1.33"	"un0pzf"	"600"	"1366"	"chrome"	"108.0.0"	"FALSE"	"Windows 10"	"60.59"	"136"	n/a	n/a	n/a	n/a	n/a	n/a	"Trial"	n/a	n/a	n/a	"486"	"arrowright"	n/a	"NULL"	"NULL"	"NULL"	"stimuli/VerticalHorizontal_28.75714_0.22500.png"	n/a	"VerticalHorizontal"	"arrowleft"	"1512"	"FALSE"	"VerticalHorizontal"	"28.757140000"	"0.2250000000"	"1"	"52"
n/a	"html-keyboard-response"	"121"	"277571"	"0.0-5.0-2.0-0.34"	"un0pzf"	"600"	"1366"	"chrome"	"108.0.0"	"FALSE"	"Windows 10"	"60.59"	"136"	n/a	n/a	n/a	n/a	n/a	n/a	"fixation"	n/a	n/a	n/a	n/a	"NULL"	n/a	"NULL"	"NULL"	"NULL"	"<p style=\"color: black; font-size: 80px; padding-left: 11%; padding-right: 2%; padding-top: 0%; padding-bottom: 5%\">+</p>"	"1218"	n/a	n/a	n/a	n/a	n/a	n/a	n/a	n/a	n/a
n/a	"image-keyboard-response"	"122"	"277972"	"0.0-5.0-2.0-1.34"	"un0pzf"	"600"	"1366"	"chrome"	"108.0.0"	"FALSE"	"Windows 10"	"60.59"	"136"	n/a	n/a	n/a	n/a	n/a	n/a	"Trial"	n/a	n/a	n/a	"397"	"arrowright"	n/a	"NULL"	"NULL"	"NULL"	"stimuli/VerticalHorizontal_-20.27143_-0.16217.png"	n/a	"VerticalHorizontal"	"arrowright"	"1234"	"TRUE"	"VerticalHorizontal"	"-20.27143000"	"-0.162170000"	"1"	"53"
n/a	"html-keyboard-response"	"123"	"279390"	"0.0-5.0-2.0-0.35"	"un0pzf"	"600"	"1366"	"chrome"	"108.0.0"	"FALSE"	"Windows 10"	"60.59"	"136"	n/a	n/a	n/a	n/a	n/a	n/a	"fixation"	n/a	n/a	n/a	n/a	"NULL"	n/a	"NULL"	"NULL"	"NULL"	"<p style=\"color: black; font-size: 80px; padding-left: 32%; padding-right: 0%; padding-top: 47%; padding-bottom: 46%\">+</p>"	"1413"	n/a	n/a	n/a	n/a	n/a	n/a	n/a	n/a	n/a
n/a	"image-keyboard-response"	"124"	"279890"	"0.0-5.0-2.0-1.35"	"un0pzf"	"600"	"1366"	"chrome"	"108.0.0"	"FALSE"	"Windows 10"	"60.59"	"136"	n/a	n/a	n/a	n/a	n/a	n/a	"Trial"	n/a	n/a	n/a	"499"	"arrowleft"	n/a	"NULL"	"NULL"	"NULL"	"stimuli/VerticalHorizontal_11.78571_-0.16217.png"	n/a	"VerticalHorizontal"	"arrowright"	"1418"	"FALSE"	"VerticalHorizontal"	"11.785710000"	"-0.162170000"	"1"	"54"
n/a	"html-keyboard-response"	"125"	"281091"	"0.0-5.0-2.0-0.36"	"un0pzf"	"600"	"1366"	"chrome"	"108.0.0"	"FALSE"	"Windows 10"	"60.59"	"136"	n/a	n/a	n/a	n/a	n/a	n/a	"fixation"	n/a	n/a	n/a	n/a	"NULL"	n/a	"NULL"	"NULL"	"NULL"	"<p style=\"color: black; font-size: 80px; padding-left: 18%; padding-right: 11%; padding-top: 48%; padding-bottom: 11%\">+</p>"	"1182"	n/a	n/a	n/a	n/a	n/a	n/a	n/a	n/a	n/a
n/a	"image-keyboard-response"	"126"	"281600"	"0.0-5.0-2.0-1.36"	"un0pzf"	"600"	"1366"	"chrome"	"108.0.0"	"FALSE"	"Windows 10"	"60.59"	"136"	n/a	n/a	n/a	n/a	n/a	n/a	"Trial"	n/a	n/a	n/a	"509"	"arrowleft"	n/a	"NULL"	"NULL"	"NULL"	"stimuli/VerticalHorizontal_-11.78571_0.22500.png"	n/a	"VerticalHorizontal"	"arrowleft"	"1201"	"TRUE"	"VerticalHorizontal"	"-11.78571000"	"0.2250000000"	"1"	"55"
n/a	"html-keyboard-response"	"127"	"282662"	"0.0-5.0-2.0-0.37"	"un0pzf"	"600"	"1366"	"chrome"	"108.0.0"	"FALSE"	"Windows 10"	"60.59"	"136"	n/a	n/a	n/a	n/a	n/a	n/a	"fixation"	n/a	n/a	n/a	n/a	"NULL"	n/a	"NULL"	"NULL"	"NULL"	"<p style=\"color: black; font-size: 80px; padding-left: 23%; padding-right: 48%; padding-top: 16%; padding-bottom: 13%\">+</p>"	"1049"	n/a	n/a	n/a	n/a	n/a	n/a	n/a	n/a	n/a
n/a	"image-keyboard-response"	"128"	"283101"	"0.0-5.0-2.0-1.37"	"un0pzf"	"600"	"1366"	"chrome"	"108.0.0"	"FALSE"	"Windows 10"	"60.59"	"136"	n/a	n/a	n/a	n/a	n/a	n/a	"Trial"	n/a	n/a	n/a	"439"	"arrowright"	n/a	"NULL"	"NULL"	"NULL"	"stimuli/VerticalHorizontal_20.27143_0.06730.png"	n/a	"VerticalHorizontal"	"arrowleft"	"1062"	"FALSE"	"VerticalHorizontal"	"20.271430000"	"0.0673000000"	"1"	"56"
n/a	"html-keyboard-response"	"129"	"284136"	"0.0-5.0-2.0-0.38"	"un0pzf"	"600"	"1366"	"chrome"	"108.0.0"	"FALSE"	"Windows 10"	"60.59"	"136"	n/a	n/a	n/a	n/a	n/a	n/a	"fixation"	n/a	n/a	n/a	n/a	"NULL"	n/a	"NULL"	"NULL"	"NULL"	"<p style=\"color: black; font-size: 80px; padding-left: 33%; padding-right: 14%; padding-top: 2%; padding-bottom: 18%\">+</p>"	"1027"	n/a	n/a	n/a	n/a	n/a	n/a	n/a	n/a	n/a
n/a	"image-keyboard-response"	"130"	"284508"	"0.0-5.0-2.0-1.38"	"un0pzf"	"600"	"1366"	"chrome"	"108.0.0"	"FALSE"	"Windows 10"	"60.59"	"136"	n/a	n/a	n/a	n/a	n/a	n/a	"Trial"	n/a	n/a	n/a	"371"	"arrowright"	n/a	"NULL"	"NULL"	"NULL"	"stimuli/VerticalHorizontal_-20.27143_-0.1096.png"	n/a	"VerticalHorizontal"	"arrowright"	"1035"	"TRUE"	"VerticalHorizontal"	"-20.27143000"	"-0.109600000"	"1"	"57"
n/a	"html-keyboard-response"	"131"	"285969"	"0.0-5.0-2.0-0.39"	"un0pzf"	"600"	"1366"	"chrome"	"108.0.0"	"FALSE"	"Windows 10"	"60.59"	"136"	n/a	n/a	n/a	n/a	n/a	n/a	"fixation"	n/a	n/a	n/a	n/a	"NULL"	n/a	"NULL"	"NULL"	"NULL"	"<p style=\"color: black; font-size: 80px; padding-left: 2%; padding-right: 22%; padding-top: 16%; padding-bottom: 2%\">+</p>"	"1454"	n/a	n/a	n/a	n/a	n/a	n/a	n/a	n/a	n/a
n/a	"image-keyboard-response"	"132"	"286631"	"0.0-5.0-2.0-1.39"	"un0pzf"	"600"	"1366"	"chrome"	"108.0.0"	"FALSE"	"Windows 10"	"60.59"	"136"	n/a	n/a	n/a	n/a	n/a	n/a	"Trial"	n/a	n/a	n/a	"661"	"arrowright"	n/a	"NULL"	"NULL"	"NULL"	"stimuli/VerticalHorizontal_11.78571_-0.2250.png"	n/a	"VerticalHorizontal"	"arrowright"	"1461"	"TRUE"	"VerticalHorizontal"	"11.785710000"	"-0.225000000"	"1"	"58"
n/a	"html-keyboard-response"	"133"	"288083"	"0.0-5.0-2.0-0.40"	"un0pzf"	"600"	"1366"	"chrome"	"108.0.0"	"FALSE"	"Windows 10"	"60.59"	"136"	n/a	n/a	n/a	n/a	n/a	n/a	"fixation"	n/a	n/a	n/a	n/a	"NULL"	n/a	"NULL"	"NULL"	"NULL"	"<p style=\"color: black; font-size: 80px; padding-left: 10%; padding-right: 4%; padding-top: 7%; padding-bottom: 46%\">+</p>"	"1437"	n/a	n/a	n/a	n/a	n/a	n/a	n/a	n/a	n/a
n/a	"image-keyboard-response"	"134"	"288861"	"0.0-5.0-2.0-1.40"	"un0pzf"	"600"	"1366"	"chrome"	"108.0.0"	"FALSE"	"Windows 10"	"60.59"	"136"	n/a	n/a	n/a	n/a	n/a	n/a	"Trial"	n/a	n/a	n/a	"778"	"arrowright"	n/a	"NULL"	"NULL"	"NULL"	"stimuli/VerticalHorizontal_3.30000_-0.16217.png"	n/a	"VerticalHorizontal"	"arrowright"	"1452"	"TRUE"	"VerticalHorizontal"	"3.3000000000"	"-0.162170000"	"1"	"59"
n/a	"html-keyboard-response"	"135"	"290326"	"0.0-5.0-2.0-0.41"	"un0pzf"	"600"	"1366"	"chrome"	"108.0.0"	"FALSE"	"Windows 10"	"60.59"	"136"	n/a	n/a	n/a	n/a	n/a	n/a	"fixation"	n/a	n/a	n/a	n/a	"NULL"	n/a	"NULL"	"NULL"	"NULL"	"<p style=\"color: black; font-size: 80px; padding-left: 48%; padding-right: 33%; padding-top: 43%; padding-bottom: 36%\">+</p>"	"1461"	n/a	n/a	n/a	n/a	n/a	n/a	n/a	n/a	n/a
n/a	"image-keyboard-response"	"136"	"290973"	"0.0-5.0-2.0-1.41"	"un0pzf"	"600"	"1366"	"chrome"	"108.0.0"	"FALSE"	"Windows 10"	"60.59"	"136"	n/a	n/a	n/a	n/a	n/a	n/a	"Trial"	n/a	n/a	n/a	"646"	"arrowleft"	n/a	"NULL"	"NULL"	"NULL"	"stimuli/VerticalHorizontal_-20.27143_0.06730.png"	n/a	"VerticalHorizontal"	"arrowleft"	"1465"	"TRUE"	"VerticalHorizontal"	"-20.27143000"	"0.0673000000"	"1"	"60"
n/a	"html-keyboard-response"	"137"	"292008"	"0.0-5.0-2.0-0.42"	"un0pzf"	"600"	"1366"	"chrome"	"108.0.0"	"FALSE"	"Windows 10"	"60.59"	"136"	n/a	n/a	n/a	n/a	n/a	n/a	"fixation"	n/a	n/a	n/a	n/a	"NULL"	n/a	"NULL"	"NULL"	"NULL"	"<p style=\"color: black; font-size: 80px; padding-left: 39%; padding-right: 12%; padding-top: 16%; padding-bottom: 19%\">+</p>"	"1021"	n/a	n/a	n/a	n/a	n/a	n/a	n/a	n/a	n/a
n/a	"image-keyboard-response"	"138"	"292510"	"0.0-5.0-2.0-1.42"	"un0pzf"	"600"	"1366"	"chrome"	"108.0.0"	"FALSE"	"Windows 10"	"60.59"	"136"	n/a	n/a	n/a	n/a	n/a	n/a	"Trial"	n/a	n/a	n/a	"501"	"arrowleft"	n/a	"NULL"	"NULL"	"NULL"	"stimuli/VerticalHorizontal_-20.27143_0.10960.png"	n/a	"VerticalHorizontal"	"arrowleft"	"1035"	"TRUE"	"VerticalHorizontal"	"-20.27143000"	"0.1096000000"	"1"	"61"
n/a	"html-keyboard-response"	"139"	"293896"	"0.0-5.0-2.0-0.43"	"un0pzf"	"600"	"1366"	"chrome"	"108.0.0"	"FALSE"	"Windows 10"	"60.59"	"136"	n/a	n/a	n/a	n/a	n/a	n/a	"fixation"	n/a	n/a	n/a	n/a	"NULL"	n/a	"NULL"	"NULL"	"NULL"	"<p style=\"color: black; font-size: 80px; padding-left: 48%; padding-right: 43%; padding-top: 11%; padding-bottom: 1%\">+</p>"	"1376"	n/a	n/a	n/a	n/a	n/a	n/a	n/a	n/a	n/a
n/a	"image-keyboard-response"	"140"	"294339"	"0.0-5.0-2.0-1.43"	"un0pzf"	"600"	"1366"	"chrome"	"108.0.0"	"FALSE"	"Windows 10"	"60.59"	"136"	n/a	n/a	n/a	n/a	n/a	n/a	"Trial"	n/a	n/a	n/a	"442"	"arrowright"	n/a	"NULL"	"NULL"	"NULL"	"stimuli/VerticalHorizontal_28.75714_0.16217.png"	n/a	"VerticalHorizontal"	"arrowleft"	"1386"	"FALSE"	"VerticalHorizontal"	"28.757140000"	"0.1621700000"	"1"	"62"
n/a	"html-keyboard-response"	"141"	"295647"	"0.0-5.0-2.0-0.44"	"un0pzf"	"600"	"1366"	"chrome"	"108.0.0"	"FALSE"	"Windows 10"	"60.59"	"136"	n/a	n/a	n/a	n/a	n/a	n/a	"fixation"	n/a	n/a	n/a	n/a	"NULL"	n/a	"NULL"	"NULL"	"NULL"	"<p style=\"color: black; font-size: 80px; padding-left: 17%; padding-right: 35%; padding-top: 13%; padding-bottom: 35%\">+</p>"	"1304"	n/a	n/a	n/a	n/a	n/a	n/a	n/a	n/a	n/a
n/a	"image-keyboard-response"	"142"	"296549"	"0.0-5.0-2.0-1.44"	"un0pzf"	"600"	"1366"	"chrome"	"108.0.0"	"FALSE"	"Windows 10"	"60.59"	"136"	n/a	n/a	n/a	n/a	n/a	n/a	"Trial"	n/a	n/a	n/a	"901"	"arrowleft"	n/a	"NULL"	"NULL"	"NULL"	"stimuli/VerticalHorizontal_20.27143_-0.16217.png"	n/a	"VerticalHorizontal"	"arrowright"	"1308"	"FALSE"	"VerticalHorizontal"	"20.271430000"	"-0.162170000"	"1"	"63"
n/a	"html-keyboard-response"	"143"	"297961"	"0.0-5.0-2.0-0.45"	"un0pzf"	"600"	"1366"	"chrome"	"108.0.0"	"FALSE"	"Windows 10"	"60.59"	"136"	n/a	n/a	n/a	n/a	n/a	n/a	"fixation"	n/a	n/a	n/a	n/a	"NULL"	n/a	"NULL"	"NULL"	"NULL"	"<p style=\"color: black; font-size: 80px; padding-left: 31%; padding-right: 20%; padding-top: 12%; padding-bottom: 37%\">+</p>"	"1400"	n/a	n/a	n/a	n/a	n/a	n/a	n/a	n/a	n/a
n/a	"image-keyboard-response"	"144"	"298405"	"0.0-5.0-2.0-1.45"	"un0pzf"	"600"	"1366"	"chrome"	"108.0.0"	"FALSE"	"Windows 10"	"60.59"	"136"	n/a	n/a	n/a	n/a	n/a	n/a	"Trial"	n/a	n/a	n/a	"443"	"arrowright"	n/a	"NULL"	"NULL"	"NULL"	"stimuli/VerticalHorizontal_20.27143_0.10960.png"	n/a	"VerticalHorizontal"	"arrowleft"	"1412"	"FALSE"	"VerticalHorizontal"	"20.271430000"	"0.1096000000"	"1"	"64"
n/a	"html-keyboard-response"	"145"	"299634"	"0.0-5.0-2.0-0.46"	"un0pzf"	"600"	"1366"	"chrome"	"108.0.0"	"FALSE"	"Windows 10"	"60.59"	"136"	n/a	n/a	n/a	n/a	n/a	n/a	"fixation"	n/a	n/a	n/a	n/a	"NULL"	n/a	"NULL"	"NULL"	"NULL"	"<p style=\"color: black; font-size: 80px; padding-left: 18%; padding-right: 43%; padding-top: 19%; padding-bottom: 37%\">+</p>"	"1212"	n/a	n/a	n/a	n/a	n/a	n/a	n/a	n/a	n/a
n/a	"image-keyboard-response"	"146"	"300177"	"0.0-5.0-2.0-1.46"	"un0pzf"	"600"	"1366"	"chrome"	"108.0.0"	"FALSE"	"Windows 10"	"60.59"	"136"	n/a	n/a	n/a	n/a	n/a	n/a	"Trial"	n/a	n/a	n/a	"542"	"arrowleft"	n/a	"NULL"	"NULL"	"NULL"	"stimuli/VerticalHorizontal_28.75714_-0.1096.png"	n/a	"VerticalHorizontal"	"arrowright"	"1229"	"FALSE"	"VerticalHorizontal"	"28.757140000"	"-0.109600000"	"1"	"65"
n/a	"html-keyboard-response"	"147"	"301296"	"0.0-5.0-2.0-0.47"	"un0pzf"	"600"	"1366"	"chrome"	"108.0.0"	"FALSE"	"Windows 10"	"60.59"	"136"	n/a	n/a	n/a	n/a	n/a	n/a	"fixation"	n/a	n/a	n/a	n/a	"NULL"	n/a	"NULL"	"NULL"	"NULL"	"<p style=\"color: black; font-size: 80px; padding-left: 45%; padding-right: 3%; padding-top: 31%; padding-bottom: 17%\">+</p>"	"1104"	n/a	n/a	n/a	n/a	n/a	n/a	n/a	n/a	n/a
n/a	"image-keyboard-response"	"148"	"301783"	"0.0-5.0-2.0-1.47"	"un0pzf"	"600"	"1366"	"chrome"	"108.0.0"	"FALSE"	"Windows 10"	"60.59"	"136"	n/a	n/a	n/a	n/a	n/a	n/a	"Trial"	n/a	n/a	n/a	"487"	"arrowleft"	n/a	"NULL"	"NULL"	"NULL"	"stimuli/VerticalHorizontal_-11.78571_0.06730.png"	n/a	"VerticalHorizontal"	"arrowleft"	"1119"	"TRUE"	"VerticalHorizontal"	"-11.78571000"	"0.0673000000"	"1"	"66"
n/a	"html-keyboard-response"	"149"	"302987"	"0.0-5.0-2.0-0.48"	"un0pzf"	"600"	"1366"	"chrome"	"108.0.0"	"FALSE"	"Windows 10"	"60.59"	"136"	n/a	n/a	n/a	n/a	n/a	n/a	"fixation"	n/a	n/a	n/a	n/a	"NULL"	n/a	"NULL"	"NULL"	"NULL"	"<p style=\"color: black; font-size: 80px; padding-left: 6%; padding-right: 33%; padding-top: 44%; padding-bottom: 26%\">+</p>"	"1190"	n/a	n/a	n/a	n/a	n/a	n/a	n/a	n/a	n/a
n/a	"image-keyboard-response"	"150"	"303409"	"0.0-5.0-2.0-1.48"	"un0pzf"	"600"	"1366"	"chrome"	"108.0.0"	"FALSE"	"Windows 10"	"60.59"	"136"	n/a	n/a	n/a	n/a	n/a	n/a	"Trial"	n/a	n/a	n/a	"420"	"arrowright"	n/a	"NULL"	"NULL"	"NULL"	"stimuli/VerticalHorizontal_-28.75714_-0.0673.png"	n/a	"VerticalHorizontal"	"arrowright"	"1204"	"TRUE"	"VerticalHorizontal"	"-28.75714000"	"-0.067300000"	"1"	"67"
n/a	"html-keyboard-response"	"151"	"304877"	"0.0-5.0-2.0-0.49"	"un0pzf"	"600"	"1366"	"chrome"	"108.0.0"	"FALSE"	"Windows 10"	"60.59"	"136"	n/a	n/a	n/a	n/a	n/a	n/a	"fixation"	n/a	n/a	n/a	n/a	"NULL"	n/a	"NULL"	"NULL"	"NULL"	"<p style=\"color: black; font-size: 80px; padding-left: 19%; padding-right: 28%; padding-top: 26%; padding-bottom: 42%\">+</p>"	"1452"	n/a	n/a	n/a	n/a	n/a	n/a	n/a	n/a	n/a
n/a	"image-keyboard-response"	"152"	"305377"	"0.0-5.0-2.0-1.49"	"un0pzf"	"600"	"1366"	"chrome"	"108.0.0"	"FALSE"	"Windows 10"	"60.59"	"136"	n/a	n/a	n/a	n/a	n/a	n/a	"Trial"	n/a	n/a	n/a	"499"	"arrowright"	n/a	"NULL"	"NULL"	"NULL"	"stimuli/VerticalHorizontal_-28.75714_-0.1096.png"	n/a	"VerticalHorizontal"	"arrowright"	"1468"	"TRUE"	"VerticalHorizontal"	"-28.75714000"	"-0.109600000"	"1"	"68"
n/a	"html-keyboard-response"	"153"	"306399"	"0.0-5.0-2.0-0.50"	"un0pzf"	"600"	"1366"	"chrome"	"108.0.0"	"FALSE"	"Windows 10"	"60.59"	"136"	n/a	n/a	n/a	n/a	n/a	n/a	"fixation"	n/a	n/a	n/a	n/a	"NULL"	n/a	"NULL"	"NULL"	"NULL"	"<p style=\"color: black; font-size: 80px; padding-left: 47%; padding-right: 9%; padding-top: 34%; padding-bottom: 22%\">+</p>"	"1010"	n/a	n/a	n/a	n/a	n/a	n/a	n/a	n/a	n/a
n/a	"image-keyboard-response"	"154"	"306991"	"0.0-5.0-2.0-1.50"	"un0pzf"	"600"	"1366"	"chrome"	"108.0.0"	"FALSE"	"Windows 10"	"60.59"	"136"	n/a	n/a	n/a	n/a	n/a	n/a	"Trial"	n/a	n/a	n/a	"591"	"arrowleft"	n/a	"NULL"	"NULL"	"NULL"	"stimuli/VerticalHorizontal_-28.75714_0.06730.png"	n/a	"VerticalHorizontal"	"arrowleft"	"1022"	"TRUE"	"VerticalHorizontal"	"-28.75714000"	"0.0673000000"	"1"	"69"
n/a	"html-keyboard-response"	"155"	"308382"	"0.0-5.0-2.0-0.51"	"un0pzf"	"600"	"1366"	"chrome"	"108.0.0"	"FALSE"	"Windows 10"	"60.59"	"136"	n/a	n/a	n/a	n/a	n/a	n/a	"fixation"	n/a	n/a	n/a	n/a	"NULL"	n/a	"NULL"	"NULL"	"NULL"	"<p style=\"color: black; font-size: 80px; padding-left: 48%; padding-right: 42%; padding-top: 47%; padding-bottom: 17%\">+</p>"	"1380"	n/a	n/a	n/a	n/a	n/a	n/a	n/a	n/a	n/a
n/a	"image-keyboard-response"	"156"	"308858"	"0.0-5.0-2.0-1.51"	"un0pzf"	"600"	"1366"	"chrome"	"108.0.0"	"FALSE"	"Windows 10"	"60.59"	"136"	n/a	n/a	n/a	n/a	n/a	n/a	"Trial"	n/a	n/a	n/a	"475"	"arrowleft"	n/a	"NULL"	"NULL"	"NULL"	"stimuli/VerticalHorizontal_-20.27143_0.16217.png"	n/a	"VerticalHorizontal"	"arrowleft"	"1391"	"TRUE"	"VerticalHorizontal"	"-20.27143000"	"0.1621700000"	"1"	"70"
n/a	"html-keyboard-response"	"157"	"310024"	"0.0-5.0-2.0-0.52"	"un0pzf"	"600"	"1366"	"chrome"	"108.0.0"	"FALSE"	"Windows 10"	"60.59"	"136"	n/a	n/a	n/a	n/a	n/a	n/a	"fixation"	n/a	n/a	n/a	n/a	"NULL"	n/a	"NULL"	"NULL"	"NULL"	"<p style=\"color: black; font-size: 80px; padding-left: 30%; padding-right: 29%; padding-top: 39%; padding-bottom: 36%\">+</p>"	"1162"	n/a	n/a	n/a	n/a	n/a	n/a	n/a	n/a	n/a
n/a	"image-keyboard-response"	"158"	"310725"	"0.0-5.0-2.0-1.52"	"un0pzf"	"600"	"1366"	"chrome"	"108.0.0"	"FALSE"	"Windows 10"	"60.59"	"136"	n/a	n/a	n/a	n/a	n/a	n/a	"Trial"	n/a	n/a	n/a	"700"	"arrowright"	n/a	"NULL"	"NULL"	"NULL"	"stimuli/VerticalHorizontal_-3.3000_-0.1096.png"	n/a	"VerticalHorizontal"	"arrowright"	"1166"	"TRUE"	"VerticalHorizontal"	"-3.300000000"	"-0.109600000"	"1"	"71"
n/a	"html-keyboard-response"	"159"	"311996"	"0.0-5.0-2.0-0.53"	"un0pzf"	"600"	"1366"	"chrome"	"108.0.0"	"FALSE"	"Windows 10"	"60.59"	"136"	n/a	n/a	n/a	n/a	n/a	n/a	"fixation"	n/a	n/a	n/a	n/a	"NULL"	n/a	"NULL"	"NULL"	"NULL"	"<p style=\"color: black; font-size: 80px; padding-left: 10%; padding-right: 49%; padding-top: 3%; padding-bottom: 40%\">+</p>"	"1260"	n/a	n/a	n/a	n/a	n/a	n/a	n/a	n/a	n/a
n/a	"image-keyboard-response"	"160"	"312436"	"0.0-5.0-2.0-1.53"	"un0pzf"	"600"	"1366"	"chrome"	"108.0.0"	"FALSE"	"Windows 10"	"60.59"	"136"	n/a	n/a	n/a	n/a	n/a	n/a	"Trial"	n/a	n/a	n/a	"439"	"arrowright"	n/a	"NULL"	"NULL"	"NULL"	"stimuli/VerticalHorizontal_-28.75714_-0.16217.png"	n/a	"VerticalHorizontal"	"arrowright"	"1271"	"TRUE"	"VerticalHorizontal"	"-28.75714000"	"-0.162170000"	"1"	"72"
n/a	"html-keyboard-response"	"161"	"313463"	"0.0-5.0-2.0-0.54"	"un0pzf"	"600"	"1366"	"chrome"	"108.0.0"	"FALSE"	"Windows 10"	"60.59"	"136"	n/a	n/a	n/a	n/a	n/a	n/a	"fixation"	n/a	n/a	n/a	n/a	"NULL"	n/a	"NULL"	"NULL"	"NULL"	"<p style=\"color: black; font-size: 80px; padding-left: 10%; padding-right: 11%; padding-top: 26%; padding-bottom: 17%\">+</p>"	"1014"	n/a	n/a	n/a	n/a	n/a	n/a	n/a	n/a	n/a
n/a	"image-keyboard-response"	"162"	"313965"	"0.0-5.0-2.0-1.54"	"un0pzf"	"600"	"1366"	"chrome"	"108.0.0"	"FALSE"	"Windows 10"	"60.59"	"136"	n/a	n/a	n/a	n/a	n/a	n/a	"Trial"	n/a	n/a	n/a	"501"	"arrowleft"	n/a	"NULL"	"NULL"	"NULL"	"stimuli/VerticalHorizontal_3.30000_0.06730.png"	n/a	"VerticalHorizontal"	"arrowleft"	"1027"	"TRUE"	"VerticalHorizontal"	"3.3000000000"	"0.0673000000"	"1"	"73"
n/a	"html-keyboard-response"	"163"	"315272"	"0.0-5.0-2.0-0.55"	"un0pzf"	"600"	"1366"	"chrome"	"108.0.0"	"FALSE"	"Windows 10"	"60.59"	"136"	n/a	n/a	n/a	n/a	n/a	n/a	"fixation"	n/a	n/a	n/a	n/a	"NULL"	n/a	"NULL"	"NULL"	"NULL"	"<p style=\"color: black; font-size: 80px; padding-left: 8%; padding-right: 1%; padding-top: 32%; padding-bottom: 16%\">+</p>"	"1293"	n/a	n/a	n/a	n/a	n/a	n/a	n/a	n/a	n/a
n/a	"image-keyboard-response"	"164"	"315902"	"0.0-5.0-2.0-1.55"	"un0pzf"	"600"	"1366"	"chrome"	"108.0.0"	"FALSE"	"Windows 10"	"60.59"	"136"	n/a	n/a	n/a	n/a	n/a	n/a	"Trial"	n/a	n/a	n/a	"629"	"arrowleft"	n/a	"NULL"	"NULL"	"NULL"	"stimuli/VerticalHorizontal_11.78571_0.22500.png"	n/a	"VerticalHorizontal"	"arrowleft"	"1307"	"TRUE"	"VerticalHorizontal"	"11.785710000"	"0.2250000000"	"1"	"74"
n/a	"html-keyboard-response"	"165"	"317274"	"0.0-5.0-2.0-0.56"	"un0pzf"	"600"	"1366"	"chrome"	"108.0.0"	"FALSE"	"Windows 10"	"60.59"	"136"	n/a	n/a	n/a	n/a	n/a	n/a	"fixation"	n/a	n/a	n/a	n/a	"NULL"	n/a	"NULL"	"NULL"	"NULL"	"<p style=\"color: black; font-size: 80px; padding-left: 31%; padding-right: 4%; padding-top: 39%; padding-bottom: 49%\">+</p>"	"1355"	n/a	n/a	n/a	n/a	n/a	n/a	n/a	n/a	n/a
n/a	"image-keyboard-response"	"166"	"317743"	"0.0-5.0-2.0-1.56"	"un0pzf"	"600"	"1366"	"chrome"	"108.0.0"	"FALSE"	"Windows 10"	"60.59"	"136"	n/a	n/a	n/a	n/a	n/a	n/a	"Trial"	n/a	n/a	n/a	"468"	"arrowright"	n/a	"NULL"	"NULL"	"NULL"	"stimuli/VerticalHorizontal_-11.78571_-0.2250.png"	n/a	"VerticalHorizontal"	"arrowright"	"1372"	"TRUE"	"VerticalHorizontal"	"-11.78571000"	"-0.225000000"	"1"	"75"
n/a	"html-keyboard-response"	"167"	"318821"	"0.0-5.0-2.0-0.57"	"un0pzf"	"600"	"1366"	"chrome"	"108.0.0"	"FALSE"	"Windows 10"	"60.59"	"136"	n/a	n/a	n/a	n/a	n/a	n/a	"fixation"	n/a	n/a	n/a	n/a	"NULL"	n/a	"NULL"	"NULL"	"NULL"	"<p style=\"color: black; font-size: 80px; padding-left: 9%; padding-right: 38%; padding-top: 15%; padding-bottom: 46%\">+</p>"	"1064"	n/a	n/a	n/a	n/a	n/a	n/a	n/a	n/a	n/a
n/a	"image-keyboard-response"	"168"	"319409"	"0.0-5.0-2.0-1.57"	"un0pzf"	"600"	"1366"	"chrome"	"108.0.0"	"FALSE"	"Windows 10"	"60.59"	"136"	n/a	n/a	n/a	n/a	n/a	n/a	"Trial"	n/a	n/a	n/a	"587"	"arrowleft"	n/a	"NULL"	"NULL"	"NULL"	"stimuli/VerticalHorizontal_20.27143_-0.2250.png"	n/a	"VerticalHorizontal"	"arrowright"	"1078"	"FALSE"	"VerticalHorizontal"	"20.271430000"	"-0.225000000"	"1"	"76"
n/a	"html-keyboard-response"	"169"	"320712"	"0.0-5.0-2.0-0.58"	"un0pzf"	"600"	"1366"	"chrome"	"108.0.0"	"FALSE"	"Windows 10"	"60.59"	"136"	n/a	n/a	n/a	n/a	n/a	n/a	"fixation"	n/a	n/a	n/a	n/a	"NULL"	n/a	"NULL"	"NULL"	"NULL"	"<p style=\"color: black; font-size: 80px; padding-left: 18%; padding-right: 50%; padding-top: 2%; padding-bottom: 3%\">+</p>"	"1283"	n/a	n/a	n/a	n/a	n/a	n/a	n/a	n/a	n/a
n/a	"image-keyboard-response"	"170"	"321176"	"0.0-5.0-2.0-1.58"	"un0pzf"	"600"	"1366"	"chrome"	"108.0.0"	"FALSE"	"Windows 10"	"60.59"	"136"	n/a	n/a	n/a	n/a	n/a	n/a	"Trial"	n/a	n/a	n/a	"464"	"arrowleft"	n/a	"NULL"	"NULL"	"NULL"	"stimuli/VerticalHorizontal_-3.3000_0.22500.png"	n/a	"VerticalHorizontal"	"arrowleft"	"1303"	"TRUE"	"VerticalHorizontal"	"-3.300000000"	"0.2250000000"	"1"	"77"
n/a	"html-keyboard-response"	"171"	"322215"	"0.0-5.0-2.0-0.59"	"un0pzf"	"600"	"1366"	"chrome"	"108.0.0"	"FALSE"	"Windows 10"	"60.59"	"136"	n/a	n/a	n/a	n/a	n/a	n/a	"fixation"	n/a	n/a	n/a	n/a	"NULL"	n/a	"NULL"	"NULL"	"NULL"	"<p style=\"color: black; font-size: 80px; padding-left: 13%; padding-right: 25%; padding-top: 37%; padding-bottom: 37%\">+</p>"	"1029"	n/a	n/a	n/a	n/a	n/a	n/a	n/a	n/a	n/a
n/a	"image-keyboard-response"	"172"	"322757"	"0.0-5.0-2.0-1.59"	"un0pzf"	"600"	"1366"	"chrome"	"108.0.0"	"FALSE"	"Windows 10"	"60.59"	"136"	n/a	n/a	n/a	n/a	n/a	n/a	"Trial"	n/a	n/a	n/a	"541"	"arrowright"	n/a	"NULL"	"NULL"	"NULL"	"stimuli/VerticalHorizontal_11.78571_0.06730.png"	n/a	"VerticalHorizontal"	"arrowleft"	"1039"	"FALSE"	"VerticalHorizontal"	"11.785710000"	"0.0673000000"	"1"	"78"
n/a	"html-keyboard-response"	"173"	"324161"	"0.0-5.0-2.0-0.60"	"un0pzf"	"600"	"1366"	"chrome"	"108.0.0"	"FALSE"	"Windows 10"	"60.59"	"136"	n/a	n/a	n/a	n/a	n/a	n/a	"fixation"	n/a	n/a	n/a	n/a	"NULL"	n/a	"NULL"	"NULL"	"NULL"	"<p style=\"color: black; font-size: 80px; padding-left: 46%; padding-right: 2%; padding-top: 1%; padding-bottom: 9%\">+</p>"	"1387"	n/a	n/a	n/a	n/a	n/a	n/a	n/a	n/a	n/a
n/a	"image-keyboard-response"	"174"	"324733"	"0.0-5.0-2.0-1.60"	"un0pzf"	"600"	"1366"	"chrome"	"108.0.0"	"FALSE"	"Windows 10"	"60.59"	"136"	n/a	n/a	n/a	n/a	n/a	n/a	"Trial"	n/a	n/a	n/a	"571"	"arrowleft"	n/a	"NULL"	"NULL"	"NULL"	"stimuli/VerticalHorizontal_-3.3000_-0.0673.png"	n/a	"VerticalHorizontal"	"arrowright"	"1404"	"FALSE"	"VerticalHorizontal"	"-3.300000000"	"-0.067300000"	"1"	"79"
n/a	"html-keyboard-response"	"175"	"326025"	"0.0-5.0-2.0-0.61"	"un0pzf"	"600"	"1366"	"chrome"	"108.0.0"	"FALSE"	"Windows 10"	"60.59"	"136"	n/a	n/a	n/a	n/a	n/a	n/a	"fixation"	n/a	n/a	n/a	n/a	"NULL"	n/a	"NULL"	"NULL"	"NULL"	"<p style=\"color: black; font-size: 80px; padding-left: 14%; padding-right: 20%; padding-top: 39%; padding-bottom: 19%\">+</p>"	"1275"	n/a	n/a	n/a	n/a	n/a	n/a	n/a	n/a	n/a
n/a	"image-keyboard-response"	"176"	"326541"	"0.0-5.0-2.0-1.61"	"un0pzf"	"600"	"1366"	"chrome"	"108.0.0"	"FALSE"	"Windows 10"	"60.59"	"136"	n/a	n/a	n/a	n/a	n/a	n/a	"Trial"	n/a	n/a	n/a	"515"	"arrowright"	n/a	"NULL"	"NULL"	"NULL"	"stimuli/VerticalHorizontal_3.30000_-0.1096.png"	n/a	"VerticalHorizontal"	"arrowright"	"1292"	"TRUE"	"VerticalHorizontal"	"3.3000000000"	"-0.109600000"	"1"	"80"
n/a	"html-keyboard-response"	"177"	"327803"	"0.0-5.0-2.0-0.62"	"un0pzf"	"600"	"1366"	"chrome"	"108.0.0"	"FALSE"	"Windows 10"	"60.59"	"136"	n/a	n/a	n/a	n/a	n/a	n/a	"fixation"	n/a	n/a	n/a	n/a	"NULL"	n/a	"NULL"	"NULL"	"NULL"	"<p style=\"color: black; font-size: 80px; padding-left: 34%; padding-right: 5%; padding-top: 26%; padding-bottom: 16%\">+</p>"	"1241"	n/a	n/a	n/a	n/a	n/a	n/a	n/a	n/a	n/a
n/a	"image-keyboard-response"	"178"	"328551"	"0.0-5.0-2.0-1.62"	"un0pzf"	"600"	"1366"	"chrome"	"108.0.0"	"FALSE"	"Windows 10"	"60.59"	"136"	n/a	n/a	n/a	n/a	n/a	n/a	"Trial"	n/a	n/a	n/a	"747"	"arrowright"	n/a	"NULL"	"NULL"	"NULL"	"stimuli/VerticalHorizontal_20.27143_0.22500.png"	n/a	"VerticalHorizontal"	"arrowleft"	"1262"	"FALSE"	"VerticalHorizontal"	"20.271430000"	"0.2250000000"	"1"	"81"
n/a	"html-keyboard-response"	"179"	"329729"	"0.0-5.0-2.0-0.63"	"un0pzf"	"600"	"1366"	"chrome"	"108.0.0"	"FALSE"	"Windows 10"	"60.59"	"136"	n/a	n/a	n/a	n/a	n/a	n/a	"fixation"	n/a	n/a	n/a	n/a	"NULL"	n/a	"NULL"	"NULL"	"NULL"	"<p style=\"color: black; font-size: 80px; padding-left: 27%; padding-right: 18%; padding-top: 38%; padding-bottom: 28%\">+</p>"	"1171"	n/a	n/a	n/a	n/a	n/a	n/a	n/a	n/a	n/a
n/a	"image-keyboard-response"	"180"	"330432"	"0.0-5.0-2.0-1.63"	"un0pzf"	"600"	"1366"	"chrome"	"108.0.0"	"FALSE"	"Windows 10"	"60.59"	"136"	n/a	n/a	n/a	n/a	n/a	n/a	"Trial"	n/a	n/a	n/a	"702"	"arrowleft"	n/a	"NULL"	"NULL"	"NULL"	"stimuli/VerticalHorizontal_-3.3000_0.06730.png"	n/a	"VerticalHorizontal"	"arrowleft"	"1178"	"TRUE"	"VerticalHorizontal"	"-3.300000000"	"0.0673000000"	"1"	"82"
n/a	"html-button-response"	"181"	"348980"	"0.0-5.0-3.0"	"un0pzf"	"600"	"1366"	"chrome"	"108.0.0"	"FALSE"	"Windows 10"	"60.59"	"136"	n/a	n/a	n/a	n/a	n/a	n/a	"block_results"	n/a	n/a	n/a	"18545"	"0"	n/a	"NULL"	"NULL"	"NULL"	"<p>Your score for this illusion is <p style=\"color: black; font-size: 48px; font-weight: bold;\">80 %</p><hr><p>Can you do better in the next illusion?</p>"	n/a	n/a	n/a	n/a	n/a	n/a	n/a	n/a	n/a	n/a
"TRUE"	"preload"	"182"	"349144"	"0.0-6.0-0.0"	"un0pzf"	"600"	"1366"	"chrome"	"108.0.0"	"FALSE"	"Windows 10"	"60.59"	"136"	n/a	n/a	n/a	n/a	n/a	n/a	n/a	n/a	n/a	n/a	n/a	"NULL"	"FALSE"	"list()"	"list()"	"list()"	n/a	n/a	n/a	n/a	n/a	n/a	n/a	n/a	n/a	n/a	n/a
n/a	"html-keyboard-response"	"183"	"352937"	"0.0-6.0-1.0"	"un0pzf"	"600"	"1366"	"chrome"	"108.0.0"	"FALSE"	"Windows 10"	"60.59"	"136"	n/a	n/a	n/a	n/a	n/a	n/a	n/a	n/a	n/a	n/a	"3792"	"enter"	n/a	"NULL"	"NULL"	"NULL"	"<p><b>Part 2/6</b></p><p>In this part, two red circles will appear side by side on the screen.</p><p>Your task is to select which <b>red circle is bigger</b> in size as fast as you can, without making errors.</p><p>Don't get distracted by the surrounding black circles around the red circles!</p><p>Press <b>the LEFT or the RIGHT arrow</b> to indicate which is the bigger <b>red circle.</b></p><div style='float: center'><img src='materials/instructions/Ebbinghaus_Demo.png' height='300'></img><p><img src='utils/answer/answer_leftright_keyboard.PNG' height='150'></img></p><p class='small'>In this example, the correct answer is the <b>LEFT arrow</b>.</p></div><p>Are you ready? <b>Press ENTER to start</b></p>"	n/a	n/a	n/a	n/a	n/a	n/a	n/a	n/a	n/a	n/a
n/a	"html-keyboard-response"	"184"	"354894"	"0.0-6.0-2.0-0.0"	"un0pzf"	"600"	"1366"	"chrome"	"108.0.0"	"FALSE"	"Windows 10"	"60.59"	"136"	n/a	n/a	n/a	n/a	n/a	n/a	"fixation"	n/a	n/a	n/a	n/a	"NULL"	n/a	"NULL"	"NULL"	"NULL"	"<p style=\"color: black; font-size: 80px; padding-left: 24%; padding-right: 41%; padding-top: 12%; padding-bottom: 33%\">+</p>"	"1432"	n/a	n/a	n/a	n/a	n/a	n/a	n/a	n/a	n/a
n/a	"image-keyboard-response"	"185"	"355774"	"0.0-6.0-2.0-1.0"	"un0pzf"	"600"	"1366"	"chrome"	"108.0.0"	"FALSE"	"Windows 10"	"60.59"	"136"	n/a	n/a	n/a	n/a	n/a	n/a	"Trial"	n/a	n/a	n/a	"879"	"arrowleft"	n/a	"NULL"	"NULL"	"NULL"	"stimuli/Ebbinghaus_-0.61429_0.15857.png"	n/a	"Ebbinghaus"	"arrowleft"	"1957"	"TRUE"	"Ebbinghaus"	"-0.614290000"	"0.1585700000"	"2"	"1"
n/a	"html-keyboard-response"	"186"	"356855"	"0.0-6.0-2.0-0.1"	"un0pzf"	"600"	"1366"	"chrome"	"108.0.0"	"FALSE"	"Windows 10"	"60.59"	"136"	n/a	n/a	n/a	n/a	n/a	n/a	"fixation"	n/a	n/a	n/a	n/a	"NULL"	n/a	"NULL"	"NULL"	"NULL"	"<p style=\"color: black; font-size: 80px; padding-left: 47%; padding-right: 36%; padding-top: 44%; padding-bottom: 24%\">+</p>"	"1059"	n/a	n/a	n/a	n/a	n/a	n/a	n/a	n/a	n/a
n/a	"image-keyboard-response"	"187"	"357743"	"0.0-6.0-2.0-1.1"	"un0pzf"	"600"	"1366"	"chrome"	"108.0.0"	"FALSE"	"Windows 10"	"60.59"	"136"	n/a	n/a	n/a	n/a	n/a	n/a	"Trial"	n/a	n/a	n/a	"888"	"arrowright"	n/a	"NULL"	"NULL"	"NULL"	"stimuli/Ebbinghaus_0.87143_0.28000.png"	n/a	"Ebbinghaus"	"arrowleft"	"1081"	"FALSE"	"Ebbinghaus"	"0.8714300000"	"0.2800000000"	"2"	"2"
n/a	"html-keyboard-response"	"188"	"358894"	"0.0-6.0-2.0-0.2"	"un0pzf"	"600"	"1366"	"chrome"	"108.0.0"	"FALSE"	"Windows 10"	"60.59"	"136"	n/a	n/a	n/a	n/a	n/a	n/a	"fixation"	n/a	n/a	n/a	n/a	"NULL"	n/a	"NULL"	"NULL"	"NULL"	"<p style=\"color: black; font-size: 80px; padding-left: 40%; padding-right: 9%; padding-top: 8%; padding-bottom: 10%\">+</p>"	"1138"	n/a	n/a	n/a	n/a	n/a	n/a	n/a	n/a	n/a
n/a	"image-keyboard-response"	"189"	"359827"	"0.0-6.0-2.0-1.2"	"un0pzf"	"600"	"1366"	"chrome"	"108.0.0"	"FALSE"	"Windows 10"	"60.59"	"136"	n/a	n/a	n/a	n/a	n/a	n/a	"Trial"	n/a	n/a	n/a	"932"	"arrowright"	n/a	"NULL"	"NULL"	"NULL"	"stimuli/Ebbinghaus_-0.35714_-0.15857.png"	n/a	"Ebbinghaus"	"arrowright"	"1151"	"TRUE"	"Ebbinghaus"	"-0.357140000"	"-0.158570000"	"2"	"3"
n/a	"html-keyboard-response"	"190"	"361255"	"0.0-6.0-2.0-0.3"	"un0pzf"	"600"	"1366"	"chrome"	"108.0.0"	"FALSE"	"Windows 10"	"60.59"	"136"	n/a	n/a	n/a	n/a	n/a	n/a	"fixation"	n/a	n/a	n/a	n/a	"NULL"	n/a	"NULL"	"NULL"	"NULL"	"<p style=\"color: black; font-size: 80px; padding-left: 37%; padding-right: 11%; padding-top: 8%; padding-bottom: 4%\">+</p>"	"1419"	n/a	n/a	n/a	n/a	n/a	n/a	n/a	n/a	n/a
n/a	"image-keyboard-response"	"191"	"361880"	"0.0-6.0-2.0-1.3"	"un0pzf"	"600"	"1366"	"chrome"	"108.0.0"	"FALSE"	"Windows 10"	"60.59"	"136"	n/a	n/a	n/a	n/a	n/a	n/a	"Trial"	n/a	n/a	n/a	"624"	"arrowright"	n/a	"NULL"	"NULL"	"NULL"	"stimuli/Ebbinghaus_0.10000_-0.2150.png"	n/a	"Ebbinghaus"	"arrowright"	"1428"	"TRUE"	"Ebbinghaus"	"0.1000000000"	"-0.215000000"	"2"	"4"
n/a	"html-keyboard-response"	"192"	"363074"	"0.0-6.0-2.0-0.4"	"un0pzf"	"600"	"1366"	"chrome"	"108.0.0"	"FALSE"	"Windows 10"	"60.59"	"136"	n/a	n/a	n/a	n/a	n/a	n/a	"fixation"	n/a	n/a	n/a	n/a	"NULL"	n/a	"NULL"	"NULL"	"NULL"	"<p style=\"color: black; font-size: 80px; padding-left: 12%; padding-right: 28%; padding-top: 25%; padding-bottom: 8%\">+</p>"	"1184"	n/a	n/a	n/a	n/a	n/a	n/a	n/a	n/a	n/a
n/a	"image-keyboard-response"	"193"	"363782"	"0.0-6.0-2.0-1.4"	"un0pzf"	"600"	"1366"	"chrome"	"108.0.0"	"FALSE"	"Windows 10"	"60.59"	"136"	n/a	n/a	n/a	n/a	n/a	n/a	"Trial"	n/a	n/a	n/a	"708"	"arrowright"	n/a	"NULL"	"NULL"	"NULL"	"stimuli/Ebbinghaus_0.87143_-0.2150.png"	n/a	"Ebbinghaus"	"arrowright"	"1194"	"TRUE"	"Ebbinghaus"	"0.8714300000"	"-0.215000000"	"2"	"5"
n/a	"html-keyboard-response"	"194"	"365246"	"0.0-6.0-2.0-0.5"	"un0pzf"	"600"	"1366"	"chrome"	"108.0.0"	"FALSE"	"Windows 10"	"60.59"	"136"	n/a	n/a	n/a	n/a	n/a	n/a	"fixation"	n/a	n/a	n/a	n/a	"NULL"	n/a	"NULL"	"NULL"	"NULL"	"<p style=\"color: black; font-size: 80px; padding-left: 29%; padding-right: 40%; padding-top: 4%; padding-bottom: 11%\">+</p>"	"1448"	n/a	n/a	n/a	n/a	n/a	n/a	n/a	n/a	n/a
n/a	"image-keyboard-response"	"195"	"365933"	"0.0-6.0-2.0-1.5"	"un0pzf"	"600"	"1366"	"chrome"	"108.0.0"	"FALSE"	"Windows 10"	"60.59"	"136"	n/a	n/a	n/a	n/a	n/a	n/a	"Trial"	n/a	n/a	n/a	"686"	"arrowright"	n/a	"NULL"	"NULL"	"NULL"	"stimuli/Ebbinghaus_0.35714_-0.15857.png"	n/a	"Ebbinghaus"	"arrowright"	"1464"	"TRUE"	"Ebbinghaus"	"0.3571400000"	"-0.158570000"	"2"	"6"
n/a	"html-keyboard-response"	"196"	"367293"	"0.0-6.0-2.0-0.6"	"un0pzf"	"600"	"1366"	"chrome"	"108.0.0"	"FALSE"	"Windows 10"	"60.59"	"136"	n/a	n/a	n/a	n/a	n/a	n/a	"fixation"	n/a	n/a	n/a	n/a	"NULL"	n/a	"NULL"	"NULL"	"NULL"	"<p style=\"color: black; font-size: 80px; padding-left: 26%; padding-right: 23%; padding-top: 44%; padding-bottom: 43%\">+</p>"	"1340"	n/a	n/a	n/a	n/a	n/a	n/a	n/a	n/a	n/a
n/a	"image-keyboard-response"	"197"	"368196"	"0.0-6.0-2.0-1.6"	"un0pzf"	"600"	"1366"	"chrome"	"108.0.0"	"FALSE"	"Windows 10"	"60.59"	"136"	n/a	n/a	n/a	n/a	n/a	n/a	"Trial"	n/a	n/a	n/a	"903"	"arrowright"	n/a	"NULL"	"NULL"	"NULL"	"stimuli/Ebbinghaus_0.61429_-0.2800.png"	n/a	"Ebbinghaus"	"arrowright"	"1360"	"TRUE"	"Ebbinghaus"	"0.6142900000"	"-0.280000000"	"2"	"7"
n/a	"html-keyboard-response"	"198"	"369479"	"0.0-6.0-2.0-0.7"	"un0pzf"	"600"	"1366"	"chrome"	"108.0.0"	"FALSE"	"Windows 10"	"60.59"	"136"	n/a	n/a	n/a	n/a	n/a	n/a	"fixation"	n/a	n/a	n/a	n/a	"NULL"	n/a	"NULL"	"NULL"	"NULL"	"<p style=\"color: black; font-size: 80px; padding-left: 10%; padding-right: 20%; padding-top: 36%; padding-bottom: 4%\">+</p>"	"1274"	n/a	n/a	n/a	n/a	n/a	n/a	n/a	n/a	n/a
n/a	"image-keyboard-response"	"199"	"370393"	"0.0-6.0-2.0-1.7"	"un0pzf"	"600"	"1366"	"chrome"	"108.0.0"	"FALSE"	"Windows 10"	"60.59"	"136"	n/a	n/a	n/a	n/a	n/a	n/a	"Trial"	n/a	n/a	n/a	"913"	"arrowright"	n/a	"NULL"	"NULL"	"NULL"	"stimuli/Ebbinghaus_-0.35714_-0.2150.png"	n/a	"Ebbinghaus"	"arrowright"	"1283"	"TRUE"	"Ebbinghaus"	"-0.357140000"	"-0.215000000"	"2"	"8"
n/a	"html-keyboard-response"	"200"	"371781"	"0.0-6.0-2.0-0.8"	"un0pzf"	"600"	"1366"	"chrome"	"108.0.0"	"FALSE"	"Windows 10"	"60.59"	"136"	n/a	n/a	n/a	n/a	n/a	n/a	"fixation"	n/a	n/a	n/a	n/a	"NULL"	n/a	"NULL"	"NULL"	"NULL"	"<p style=\"color: black; font-size: 80px; padding-left: 3%; padding-right: 7%; padding-top: 40%; padding-bottom: 24%\">+</p>"	"1367"	n/a	n/a	n/a	n/a	n/a	n/a	n/a	n/a	n/a
n/a	"image-keyboard-response"	"201"	"372912"	"0.0-6.0-2.0-1.8"	"un0pzf"	"600"	"1366"	"chrome"	"108.0.0"	"FALSE"	"Windows 10"	"60.59"	"136"	n/a	n/a	n/a	n/a	n/a	n/a	"Trial"	n/a	n/a	n/a	"1130"	"arrowright"	n/a	"NULL"	"NULL"	"NULL"	"stimuli/Ebbinghaus_-0.35714_0.11071.png"	n/a	"Ebbinghaus"	"arrowleft"	"1388"	"FALSE"	"Ebbinghaus"	"-0.357140000"	"0.1107100000"	"2"	"9"
n/a	"html-keyboard-response"	"202"	"374167"	"0.0-6.0-2.0-0.9"	"un0pzf"	"600"	"1366"	"chrome"	"108.0.0"	"FALSE"	"Windows 10"	"60.59"	"136"	n/a	n/a	n/a	n/a	n/a	n/a	"fixation"	n/a	n/a	n/a	n/a	"NULL"	n/a	"NULL"	"NULL"	"NULL"	"<p style=\"color: black; font-size: 80px; padding-left: 1%; padding-right: 8%; padding-top: 35%; padding-bottom: 31%\">+</p>"	"1229"	n/a	n/a	n/a	n/a	n/a	n/a	n/a	n/a	n/a
n/a	"image-keyboard-response"	"203"	"375102"	"0.0-6.0-2.0-1.9"	"un0pzf"	"600"	"1366"	"chrome"	"108.0.0"	"FALSE"	"Windows 10"	"60.59"	"136"	n/a	n/a	n/a	n/a	n/a	n/a	"Trial"	n/a	n/a	n/a	"934"	"arrowright"	n/a	"NULL"	"NULL"	"NULL"	"stimuli/Ebbinghaus_-0.61429_-0.15857.png"	n/a	"Ebbinghaus"	"arrowright"	"1255"	"TRUE"	"Ebbinghaus"	"-0.614290000"	"-0.158570000"	"2"	"10"
n/a	"html-keyboard-response"	"204"	"376440"	"0.0-6.0-2.0-0.10"	"un0pzf"	"600"	"1366"	"chrome"	"108.0.0"	"FALSE"	"Windows 10"	"60.59"	"136"	n/a	n/a	n/a	n/a	n/a	n/a	"fixation"	n/a	n/a	n/a	n/a	"NULL"	n/a	"NULL"	"NULL"	"NULL"	"<p style=\"color: black; font-size: 80px; padding-left: 21%; padding-right: 14%; padding-top: 3%; padding-bottom: 0%\">+</p>"	"1329"	n/a	n/a	n/a	n/a	n/a	n/a	n/a	n/a	n/a
n/a	"image-keyboard-response"	"205"	"377196"	"0.0-6.0-2.0-1.10"	"un0pzf"	"600"	"1366"	"chrome"	"108.0.0"	"FALSE"	"Windows 10"	"60.59"	"136"	n/a	n/a	n/a	n/a	n/a	n/a	"Trial"	n/a	n/a	n/a	"755"	"arrowleft"	n/a	"NULL"	"NULL"	"NULL"	"stimuli/Ebbinghaus_-0.87143_0.21500.png"	n/a	"Ebbinghaus"	"arrowleft"	"1338"	"TRUE"	"Ebbinghaus"	"-0.871430000"	"0.2150000000"	"2"	"11"
n/a	"html-keyboard-response"	"206"	"378515"	"0.0-6.0-2.0-0.11"	"un0pzf"	"600"	"1366"	"chrome"	"108.0.0"	"FALSE"	"Windows 10"	"60.59"	"136"	n/a	n/a	n/a	n/a	n/a	n/a	"fixation"	n/a	n/a	n/a	n/a	"NULL"	n/a	"NULL"	"NULL"	"NULL"	"<p style=\"color: black; font-size: 80px; padding-left: 20%; padding-right: 40%; padding-top: 2%; padding-bottom: 1%\">+</p>"	"1308"	n/a	n/a	n/a	n/a	n/a	n/a	n/a	n/a	n/a
n/a	"image-keyboard-response"	"207"	"379087"	"0.0-6.0-2.0-1.11"	"un0pzf"	"600"	"1366"	"chrome"	"108.0.0"	"FALSE"	"Windows 10"	"60.59"	"136"	n/a	n/a	n/a	n/a	n/a	n/a	"Trial"	n/a	n/a	n/a	"570"	"arrowright"	n/a	"NULL"	"NULL"	"NULL"	"stimuli/Ebbinghaus_-0.1000_-0.2800.png"	n/a	"Ebbinghaus"	"arrowright"	"1319"	"TRUE"	"Ebbinghaus"	"-0.100000000"	"-0.280000000"	"2"	"12"
n/a	"html-keyboard-response"	"208"	"380242"	"0.0-6.0-2.0-0.12"	"un0pzf"	"600"	"1366"	"chrome"	"108.0.0"	"FALSE"	"Windows 10"	"60.59"	"136"	n/a	n/a	n/a	n/a	n/a	n/a	"fixation"	n/a	n/a	n/a	n/a	"NULL"	n/a	"NULL"	"NULL"	"NULL"	"<p style=\"color: black; font-size: 80px; padding-left: 38%; padding-right: 50%; padding-top: 28%; padding-bottom: 19%\">+</p>"	"1148"	n/a	n/a	n/a	n/a	n/a	n/a	n/a	n/a	n/a
n/a	"image-keyboard-response"	"209"	"380768"	"0.0-6.0-2.0-1.12"	"un0pzf"	"600"	"1366"	"chrome"	"108.0.0"	"FALSE"	"Windows 10"	"60.59"	"136"	n/a	n/a	n/a	n/a	n/a	n/a	"Trial"	n/a	n/a	n/a	"526"	"arrowright"	n/a	"NULL"	"NULL"	"NULL"	"stimuli/Ebbinghaus_0.61429_-0.15857.png"	n/a	"Ebbinghaus"	"arrowright"	"1155"	"TRUE"	"Ebbinghaus"	"0.6142900000"	"-0.158570000"	"2"	"13"
n/a	"html-keyboard-response"	"210"	"381837"	"0.0-6.0-2.0-0.13"	"un0pzf"	"600"	"1366"	"chrome"	"108.0.0"	"FALSE"	"Windows 10"	"60.59"	"136"	n/a	n/a	n/a	n/a	n/a	n/a	"fixation"	n/a	n/a	n/a	n/a	"NULL"	n/a	"NULL"	"NULL"	"NULL"	"<p style=\"color: black; font-size: 80px; padding-left: 30%; padding-right: 29%; padding-top: 1%; padding-bottom: 38%\">+</p>"	"1054"	n/a	n/a	n/a	n/a	n/a	n/a	n/a	n/a	n/a
n/a	"image-keyboard-response"	"211"	"382326"	"0.0-6.0-2.0-1.13"	"un0pzf"	"600"	"1366"	"chrome"	"108.0.0"	"FALSE"	"Windows 10"	"60.59"	"136"	n/a	n/a	n/a	n/a	n/a	n/a	"Trial"	n/a	n/a	n/a	"488"	"arrowright"	n/a	"NULL"	"NULL"	"NULL"	"stimuli/Ebbinghaus_0.87143_-0.2800.png"	n/a	"Ebbinghaus"	"arrowright"	"1069"	"TRUE"	"Ebbinghaus"	"0.8714300000"	"-0.280000000"	"2"	"14"
n/a	"html-keyboard-response"	"212"	"383542"	"0.0-6.0-2.0-0.14"	"un0pzf"	"600"	"1366"	"chrome"	"108.0.0"	"FALSE"	"Windows 10"	"60.59"	"136"	n/a	n/a	n/a	n/a	n/a	n/a	"fixation"	n/a	n/a	n/a	n/a	"NULL"	n/a	"NULL"	"NULL"	"NULL"	"<p style=\"color: black; font-size: 80px; padding-left: 36%; padding-right: 46%; padding-top: 6%; padding-bottom: 4%\">+</p>"	"1205"	n/a	n/a	n/a	n/a	n/a	n/a	n/a	n/a	n/a
n/a	"image-keyboard-response"	"213"	"384098"	"0.0-6.0-2.0-1.14"	"un0pzf"	"600"	"1366"	"chrome"	"108.0.0"	"FALSE"	"Windows 10"	"60.59"	"136"	n/a	n/a	n/a	n/a	n/a	n/a	"Trial"	n/a	n/a	n/a	"555"	"arrowleft"	n/a	"NULL"	"NULL"	"NULL"	"stimuli/Ebbinghaus_0.87143_0.11071.png"	n/a	"Ebbinghaus"	"arrowleft"	"1216"	"TRUE"	"Ebbinghaus"	"0.8714300000"	"0.1107100000"	"2"	"15"
n/a	"html-keyboard-response"	"214"	"385471"	"0.0-6.0-2.0-0.15"	"un0pzf"	"600"	"1366"	"chrome"	"108.0.0"	"FALSE"	"Windows 10"	"60.59"	"136"	n/a	n/a	n/a	n/a	n/a	n/a	"fixation"	n/a	n/a	n/a	n/a	"NULL"	n/a	"NULL"	"NULL"	"NULL"	"<p style=\"color: black; font-size: 80px; padding-left: 45%; padding-right: 11%; padding-top: 3%; padding-bottom: 21%\">+</p>"	"1370"	n/a	n/a	n/a	n/a	n/a	n/a	n/a	n/a	n/a
n/a	"image-keyboard-response"	"215"	"385991"	"0.0-6.0-2.0-1.15"	"un0pzf"	"600"	"1366"	"chrome"	"108.0.0"	"FALSE"	"Windows 10"	"60.59"	"136"	n/a	n/a	n/a	n/a	n/a	n/a	"Trial"	n/a	n/a	n/a	"515"	"arrowright"	n/a	"NULL"	"NULL"	"NULL"	"stimuli/Ebbinghaus_-0.1000_-0.2150.png"	n/a	"Ebbinghaus"	"arrowright"	"1373"	"TRUE"	"Ebbinghaus"	"-0.100000000"	"-0.215000000"	"2"	"16"
n/a	"html-keyboard-response"	"216"	"387341"	"0.0-6.0-2.0-0.16"	"un0pzf"	"600"	"1366"	"chrome"	"108.0.0"	"FALSE"	"Windows 10"	"60.59"	"136"	n/a	n/a	n/a	n/a	n/a	n/a	"fixation"	n/a	n/a	n/a	n/a	"NULL"	n/a	"NULL"	"NULL"	"NULL"	"<p style=\"color: black; font-size: 80px; padding-left: 15%; padding-right: 20%; padding-top: 0%; padding-bottom: 32%\">+</p>"	"1341"	n/a	n/a	n/a	n/a	n/a	n/a	n/a	n/a	n/a
n/a	"image-keyboard-response"	"217"	"388141"	"0.0-6.0-2.0-1.16"	"un0pzf"	"600"	"1366"	"chrome"	"108.0.0"	"FALSE"	"Windows 10"	"60.59"	"136"	n/a	n/a	n/a	n/a	n/a	n/a	"Trial"	n/a	n/a	n/a	"799"	"arrowleft"	n/a	"NULL"	"NULL"	"NULL"	"stimuli/Ebbinghaus_0.10000_0.15857.png"	n/a	"Ebbinghaus"	"arrowleft"	"1350"	"TRUE"	"Ebbinghaus"	"0.1000000000"	"0.1585700000"	"2"	"17"
n/a	"html-keyboard-response"	"218"	"389633"	"0.0-6.0-2.0-0.17"	"un0pzf"	"600"	"1366"	"chrome"	"108.0.0"	"FALSE"	"Windows 10"	"60.59"	"136"	n/a	n/a	n/a	n/a	n/a	n/a	"fixation"	n/a	n/a	n/a	n/a	"NULL"	n/a	"NULL"	"NULL"	"NULL"	"<p style=\"color: black; font-size: 80px; padding-left: 23%; padding-right: 14%; padding-top: 8%; padding-bottom: 35%\">+</p>"	"1478"	n/a	n/a	n/a	n/a	n/a	n/a	n/a	n/a	n/a
n/a	"image-keyboard-response"	"219"	"390432"	"0.0-6.0-2.0-1.17"	"un0pzf"	"600"	"1366"	"chrome"	"108.0.0"	"FALSE"	"Windows 10"	"60.59"	"136"	n/a	n/a	n/a	n/a	n/a	n/a	"Trial"	n/a	n/a	n/a	"799"	"arrowleft"	n/a	"NULL"	"NULL"	"NULL"	"stimuli/Ebbinghaus_-0.61429_0.21500.png"	n/a	"Ebbinghaus"	"arrowleft"	"1492"	"TRUE"	"Ebbinghaus"	"-0.614290000"	"0.2150000000"	"2"	"18"
n/a	"html-keyboard-response"	"220"	"391847"	"0.0-6.0-2.0-0.18"	"un0pzf"	"600"	"1366"	"chrome"	"108.0.0"	"FALSE"	"Windows 10"	"60.59"	"136"	n/a	n/a	n/a	n/a	n/a	n/a	"fixation"	n/a	n/a	n/a	n/a	"NULL"	n/a	"NULL"	"NULL"	"NULL"	"<p style=\"color: black; font-size: 80px; padding-left: 15%; padding-right: 4%; padding-top: 19%; padding-bottom: 26%\">+</p>"	"1412"	n/a	n/a	n/a	n/a	n/a	n/a	n/a	n/a	n/a
n/a	"image-keyboard-response"	"221"	"392762"	"0.0-6.0-2.0-1.18"	"un0pzf"	"600"	"1366"	"chrome"	"108.0.0"	"FALSE"	"Windows 10"	"60.59"	"136"	n/a	n/a	n/a	n/a	n/a	n/a	"Trial"	n/a	n/a	n/a	"915"	"arrowleft"	n/a	"NULL"	"NULL"	"NULL"	"stimuli/Ebbinghaus_-0.1000_0.15857.png"	n/a	"Ebbinghaus"	"arrowleft"	"1415"	"TRUE"	"Ebbinghaus"	"-0.100000000"	"0.1585700000"	"2"	"19"
n/a	"html-keyboard-response"	"222"	"394261"	"0.0-6.0-2.0-0.19"	"un0pzf"	"600"	"1366"	"chrome"	"108.0.0"	"FALSE"	"Windows 10"	"60.59"	"136"	n/a	n/a	n/a	n/a	n/a	n/a	"fixation"	n/a	n/a	n/a	n/a	"NULL"	n/a	"NULL"	"NULL"	"NULL"	"<p style=\"color: black; font-size: 80px; padding-left: 31%; padding-right: 35%; padding-top: 35%; padding-bottom: 13%\">+</p>"	"1481"	n/a	n/a	n/a	n/a	n/a	n/a	n/a	n/a	n/a
n/a	"image-keyboard-response"	"223"	"394858"	"0.0-6.0-2.0-1.19"	"un0pzf"	"600"	"1366"	"chrome"	"108.0.0"	"FALSE"	"Windows 10"	"60.59"	"136"	n/a	n/a	n/a	n/a	n/a	n/a	"Trial"	n/a	n/a	n/a	"596"	"arrowright"	n/a	"NULL"	"NULL"	"NULL"	"stimuli/Ebbinghaus_-0.87143_-0.15857.png"	n/a	"Ebbinghaus"	"arrowright"	"1499"	"TRUE"	"Ebbinghaus"	"-0.871430000"	"-0.158570000"	"2"	"20"
n/a	"html-keyboard-response"	"224"	"396012"	"0.0-6.0-2.0-0.20"	"un0pzf"	"600"	"1366"	"chrome"	"108.0.0"	"FALSE"	"Windows 10"	"60.59"	"136"	n/a	n/a	n/a	n/a	n/a	n/a	"fixation"	n/a	n/a	n/a	n/a	"NULL"	n/a	"NULL"	"NULL"	"NULL"	"<p style=\"color: black; font-size: 80px; padding-left: 32%; padding-right: 43%; padding-top: 21%; padding-bottom: 46%\">+</p>"	"1146"	n/a	n/a	n/a	n/a	n/a	n/a	n/a	n/a	n/a
n/a	"image-keyboard-response"	"225"	"396710"	"0.0-6.0-2.0-1.20"	"un0pzf"	"600"	"1366"	"chrome"	"108.0.0"	"FALSE"	"Windows 10"	"60.59"	"136"	n/a	n/a	n/a	n/a	n/a	n/a	"Trial"	n/a	n/a	n/a	"697"	"arrowleft"	n/a	"NULL"	"NULL"	"NULL"	"stimuli/Ebbinghaus_-0.35714_0.15857.png"	n/a	"Ebbinghaus"	"arrowleft"	"1154"	"TRUE"	"Ebbinghaus"	"-0.357140000"	"0.1585700000"	"2"	"21"
n/a	"html-keyboard-response"	"226"	"397798"	"0.0-6.0-2.0-0.21"	"un0pzf"	"600"	"1366"	"chrome"	"108.0.0"	"FALSE"	"Windows 10"	"60.59"	"136"	n/a	n/a	n/a	n/a	n/a	n/a	"fixation"	n/a	n/a	n/a	n/a	"NULL"	n/a	"NULL"	"NULL"	"NULL"	"<p style=\"color: black; font-size: 80px; padding-left: 45%; padding-right: 18%; padding-top: 14%; padding-bottom: 18%\">+</p>"	"1078"	n/a	n/a	n/a	n/a	n/a	n/a	n/a	n/a	n/a
n/a	"image-keyboard-response"	"227"	"398451"	"0.0-6.0-2.0-1.21"	"un0pzf"	"600"	"1366"	"chrome"	"108.0.0"	"FALSE"	"Windows 10"	"60.59"	"136"	n/a	n/a	n/a	n/a	n/a	n/a	"Trial"	n/a	n/a	n/a	"646"	"arrowleft"	n/a	"NULL"	"NULL"	"NULL"	"stimuli/Ebbinghaus_0.10000_0.21500.png"	n/a	"Ebbinghaus"	"arrowleft"	"1088"	"TRUE"	"Ebbinghaus"	"0.1000000000"	"0.2150000000"	"2"	"22"
n/a	"html-keyboard-response"	"228"	"399782"	"0.0-6.0-2.0-0.22"	"un0pzf"	"600"	"1366"	"chrome"	"108.0.0"	"FALSE"	"Windows 10"	"60.59"	"136"	n/a	n/a	n/a	n/a	n/a	n/a	"fixation"	n/a	n/a	n/a	n/a	"NULL"	n/a	"NULL"	"NULL"	"NULL"	"<p style=\"color: black; font-size: 80px; padding-left: 10%; padding-right: 18%; padding-top: 44%; padding-bottom: 22%\">+</p>"	"1314"	n/a	n/a	n/a	n/a	n/a	n/a	n/a	n/a	n/a
n/a	"image-keyboard-response"	"229"	"400403"	"0.0-6.0-2.0-1.22"	"un0pzf"	"600"	"1366"	"chrome"	"108.0.0"	"FALSE"	"Windows 10"	"60.59"	"136"	n/a	n/a	n/a	n/a	n/a	n/a	"Trial"	n/a	n/a	n/a	"618"	"arrowleft"	n/a	"NULL"	"NULL"	"NULL"	"stimuli/Ebbinghaus_0.35714_0.15857.png"	n/a	"Ebbinghaus"	"arrowleft"	"1331"	"TRUE"	"Ebbinghaus"	"0.3571400000"	"0.1585700000"	"2"	"23"
n/a	"html-keyboard-response"	"230"	"401896"	"0.0-6.0-2.0-0.23"	"un0pzf"	"600"	"1366"	"chrome"	"108.0.0"	"FALSE"	"Windows 10"	"60.59"	"136"	n/a	n/a	n/a	n/a	n/a	n/a	"fixation"	n/a	n/a	n/a	n/a	"NULL"	n/a	"NULL"	"NULL"	"NULL"	"<p style=\"color: black; font-size: 80px; padding-left: 50%; padding-right: 13%; padding-top: 11%; padding-bottom: 12%\">+</p>"	"1479"	n/a	n/a	n/a	n/a	n/a	n/a	n/a	n/a	n/a
n/a	"image-keyboard-response"	"231"	"402457"	"0.0-6.0-2.0-1.23"	"un0pzf"	"600"	"1366"	"chrome"	"108.0.0"	"FALSE"	"Windows 10"	"60.59"	"136"	n/a	n/a	n/a	n/a	n/a	n/a	"Trial"	n/a	n/a	n/a	"560"	"arrowright"	n/a	"NULL"	"NULL"	"NULL"	"stimuli/Ebbinghaus_-0.87143_-0.2150.png"	n/a	"Ebbinghaus"	"arrowright"	"1493"	"TRUE"	"Ebbinghaus"	"-0.871430000"	"-0.215000000"	"2"	"24"
n/a	"html-keyboard-response"	"232"	"403713"	"0.0-6.0-2.0-0.24"	"un0pzf"	"600"	"1366"	"chrome"	"108.0.0"	"FALSE"	"Windows 10"	"60.59"	"136"	n/a	n/a	n/a	n/a	n/a	n/a	"fixation"	n/a	n/a	n/a	n/a	"NULL"	n/a	"NULL"	"NULL"	"NULL"	"<p style=\"color: black; font-size: 80px; padding-left: 27%; padding-right: 37%; padding-top: 38%; padding-bottom: 46%\">+</p>"	"1239"	n/a	n/a	n/a	n/a	n/a	n/a	n/a	n/a	n/a
n/a	"image-keyboard-response"	"233"	"404339"	"0.0-6.0-2.0-1.24"	"un0pzf"	"600"	"1366"	"chrome"	"108.0.0"	"FALSE"	"Windows 10"	"60.59"	"136"	n/a	n/a	n/a	n/a	n/a	n/a	"Trial"	n/a	n/a	n/a	"625"	"arrowleft"	n/a	"NULL"	"NULL"	"NULL"	"stimuli/Ebbinghaus_-0.87143_0.11071.png"	n/a	"Ebbinghaus"	"arrowleft"	"1256"	"TRUE"	"Ebbinghaus"	"-0.871430000"	"0.1107100000"	"2"	"25"
n/a	"html-keyboard-response"	"234"	"405768"	"0.0-6.0-2.0-0.25"	"un0pzf"	"600"	"1366"	"chrome"	"108.0.0"	"FALSE"	"Windows 10"	"60.59"	"136"	n/a	n/a	n/a	n/a	n/a	n/a	"fixation"	n/a	n/a	n/a	n/a	"NULL"	n/a	"NULL"	"NULL"	"NULL"	"<p style=\"color: black; font-size: 80px; padding-left: 41%; padding-right: 43%; padding-top: 32%; padding-bottom: 11%\">+</p>"	"1419"	n/a	n/a	n/a	n/a	n/a	n/a	n/a	n/a	n/a
n/a	"image-keyboard-response"	"235"	"406283"	"0.0-6.0-2.0-1.25"	"un0pzf"	"600"	"1366"	"chrome"	"108.0.0"	"FALSE"	"Windows 10"	"60.59"	"136"	n/a	n/a	n/a	n/a	n/a	n/a	"Trial"	n/a	n/a	n/a	"515"	"arrowright"	n/a	"NULL"	"NULL"	"NULL"	"stimuli/Ebbinghaus_-0.1000_-0.15857.png"	n/a	"Ebbinghaus"	"arrowright"	"1429"	"TRUE"	"Ebbinghaus"	"-0.100000000"	"-0.158570000"	"2"	"26"
n/a	"html-keyboard-response"	"236"	"407777"	"0.0-6.0-2.0-0.26"	"un0pzf"	"600"	"1366"	"chrome"	"108.0.0"	"FALSE"	"Windows 10"	"60.59"	"136"	n/a	n/a	n/a	n/a	n/a	n/a	"fixation"	n/a	n/a	n/a	n/a	"NULL"	n/a	"NULL"	"NULL"	"NULL"	"<p style=\"color: black; font-size: 80px; padding-left: 27%; padding-right: 42%; padding-top: 30%; padding-bottom: 39%\">+</p>"	"1490"	n/a	n/a	n/a	n/a	n/a	n/a	n/a	n/a	n/a
n/a	"image-keyboard-response"	"237"	"408363"	"0.0-6.0-2.0-1.26"	"un0pzf"	"600"	"1366"	"chrome"	"108.0.0"	"FALSE"	"Windows 10"	"60.59"	"136"	n/a	n/a	n/a	n/a	n/a	n/a	"Trial"	n/a	n/a	n/a	"586"	"arrowleft"	n/a	"NULL"	"NULL"	"NULL"	"stimuli/Ebbinghaus_-0.35714_0.28000.png"	n/a	"Ebbinghaus"	"arrowleft"	"1494"	"TRUE"	"Ebbinghaus"	"-0.357140000"	"0.2800000000"	"2"	"27"
n/a	"html-keyboard-response"	"238"	"409395"	"0.0-6.0-2.0-0.27"	"un0pzf"	"600"	"1366"	"chrome"	"108.0.0"	"FALSE"	"Windows 10"	"60.59"	"136"	n/a	n/a	n/a	n/a	n/a	n/a	"fixation"	n/a	n/a	n/a	n/a	"NULL"	n/a	"NULL"	"NULL"	"NULL"	"<p style=\"color: black; font-size: 80px; padding-left: 20%; padding-right: 41%; padding-top: 11%; padding-bottom: 26%\">+</p>"	"1022"	n/a	n/a	n/a	n/a	n/a	n/a	n/a	n/a	n/a
n/a	"image-keyboard-response"	"239"	"409972"	"0.0-6.0-2.0-1.27"	"un0pzf"	"600"	"1366"	"chrome"	"108.0.0"	"FALSE"	"Windows 10"	"60.59"	"136"	n/a	n/a	n/a	n/a	n/a	n/a	"Trial"	n/a	n/a	n/a	"576"	"arrowleft"	n/a	"NULL"	"NULL"	"NULL"	"stimuli/Ebbinghaus_-0.87143_0.15857.png"	n/a	"Ebbinghaus"	"arrowleft"	"1032"	"TRUE"	"Ebbinghaus"	"-0.871430000"	"0.1585700000"	"2"	"28"
n/a	"html-keyboard-response"	"240"	"411296"	"0.0-6.0-2.0-0.28"	"un0pzf"	"600"	"1366"	"chrome"	"108.0.0"	"FALSE"	"Windows 10"	"60.59"	"136"	n/a	n/a	n/a	n/a	n/a	n/a	"fixation"	n/a	n/a	n/a	n/a	"NULL"	n/a	"NULL"	"NULL"	"NULL"	"<p style=\"color: black; font-size: 80px; padding-left: 42%; padding-right: 23%; padding-top: 9%; padding-bottom: 1%\">+</p>"	"1312"	n/a	n/a	n/a	n/a	n/a	n/a	n/a	n/a	n/a
n/a	"image-keyboard-response"	"241"	"411998"	"0.0-6.0-2.0-1.28"	"un0pzf"	"600"	"1366"	"chrome"	"108.0.0"	"FALSE"	"Windows 10"	"60.59"	"136"	n/a	n/a	n/a	n/a	n/a	n/a	"Trial"	n/a	n/a	n/a	"701"	"arrowright"	n/a	"NULL"	"NULL"	"NULL"	"stimuli/Ebbinghaus_0.35714_-0.2800.png"	n/a	"Ebbinghaus"	"arrowright"	"1324"	"TRUE"	"Ebbinghaus"	"0.3571400000"	"-0.280000000"	"2"	"29"
n/a	"html-keyboard-response"	"242"	"413489"	"0.0-6.0-2.0-0.29"	"un0pzf"	"600"	"1366"	"chrome"	"108.0.0"	"FALSE"	"Windows 10"	"60.59"	"136"	n/a	n/a	n/a	n/a	n/a	n/a	"fixation"	n/a	n/a	n/a	n/a	"NULL"	n/a	"NULL"	"NULL"	"NULL"	"<p style=\"color: black; font-size: 80px; padding-left: 11%; padding-right: 13%; padding-top: 14%; padding-bottom: 18%\">+</p>"	"1483"	n/a	n/a	n/a	n/a	n/a	n/a	n/a	n/a	n/a
n/a	"image-keyboard-response"	"243"	"413996"	"0.0-6.0-2.0-1.29"	"un0pzf"	"600"	"1366"	"chrome"	"108.0.0"	"FALSE"	"Windows 10"	"60.59"	"136"	n/a	n/a	n/a	n/a	n/a	n/a	"Trial"	n/a	n/a	n/a	"506"	"arrowleft"	n/a	"NULL"	"NULL"	"NULL"	"stimuli/Ebbinghaus_0.10000_0.28000.png"	n/a	"Ebbinghaus"	"arrowleft"	"1491"	"TRUE"	"Ebbinghaus"	"0.1000000000"	"0.2800000000"	"2"	"30"
n/a	"html-keyboard-response"	"244"	"415089"	"0.0-6.0-2.0-0.30"	"un0pzf"	"600"	"1366"	"chrome"	"108.0.0"	"FALSE"	"Windows 10"	"60.59"	"136"	n/a	n/a	n/a	n/a	n/a	n/a	"fixation"	n/a	n/a	n/a	n/a	"NULL"	n/a	"NULL"	"NULL"	"NULL"	"<p style=\"color: black; font-size: 80px; padding-left: 30%; padding-right: 39%; padding-top: 22%; padding-bottom: 0%\">+</p>"	"1080"	n/a	n/a	n/a	n/a	n/a	n/a	n/a	n/a	n/a
n/a	"image-keyboard-response"	"245"	"415889"	"0.0-6.0-2.0-1.30"	"un0pzf"	"600"	"1366"	"chrome"	"108.0.0"	"FALSE"	"Windows 10"	"60.59"	"136"	n/a	n/a	n/a	n/a	n/a	n/a	"Trial"	n/a	n/a	n/a	"800"	"arrowright"	n/a	"NULL"	"NULL"	"NULL"	"stimuli/Ebbinghaus_-0.1000_-0.11071.png"	n/a	"Ebbinghaus"	"arrowright"	"1093"	"TRUE"	"Ebbinghaus"	"-0.100000000"	"-0.110710000"	"2"	"31"
n/a	"html-keyboard-response"	"246"	"417376"	"0.0-6.0-2.0-0.31"	"un0pzf"	"600"	"1366"	"chrome"	"108.0.0"	"FALSE"	"Windows 10"	"60.59"	"136"	n/a	n/a	n/a	n/a	n/a	n/a	"fixation"	n/a	n/a	n/a	n/a	"NULL"	n/a	"NULL"	"NULL"	"NULL"	"<p style=\"color: black; font-size: 80px; padding-left: 14%; padding-right: 14%; padding-top: 31%; padding-bottom: 1%\">+</p>"	"1470"	n/a	n/a	n/a	n/a	n/a	n/a	n/a	n/a	n/a
n/a	"image-keyboard-response"	"247"	"417900"	"0.0-6.0-2.0-1.31"	"un0pzf"	"600"	"1366"	"chrome"	"108.0.0"	"FALSE"	"Windows 10"	"60.59"	"136"	n/a	n/a	n/a	n/a	n/a	n/a	"Trial"	n/a	n/a	n/a	"523"	"arrowleft"	n/a	"NULL"	"NULL"	"NULL"	"stimuli/Ebbinghaus_0.61429_0.28000.png"	n/a	"Ebbinghaus"	"arrowleft"	"1487"	"TRUE"	"Ebbinghaus"	"0.6142900000"	"0.2800000000"	"2"	"32"
n/a	"html-keyboard-response"	"248"	"419265"	"0.0-6.0-2.0-0.32"	"un0pzf"	"600"	"1366"	"chrome"	"108.0.0"	"FALSE"	"Windows 10"	"60.59"	"136"	n/a	n/a	n/a	n/a	n/a	n/a	"fixation"	n/a	n/a	n/a	n/a	"NULL"	n/a	"NULL"	"NULL"	"NULL"	"<p style=\"color: black; font-size: 80px; padding-left: 37%; padding-right: 38%; padding-top: 13%; padding-bottom: 45%\">+</p>"	"1354"	n/a	n/a	n/a	n/a	n/a	n/a	n/a	n/a	n/a
