"success"	"trial_type"	"trial_index"	"time_elapsed"	"internal_node_id"	"participant_id"	"screen_height"	"screen_width"	"browser"	"browser_version"	"mobile"	"os"	"vsync_rate"	"subject_id"	"width"	"height"	"webaudio"	"fullscreen"	"webcam"	"microphone"	"screen"	"version"	"date"	"time"	"rt"	"response"	"timeout"	"failed_images"	"failed_audio"	"failed_video"	"stimulus"	"trial_duration"	"block"	"correct_response"	"prestimulus_duration"	"correct"	"type"	"illusion_strength"	"illusion_difference"	"block_number"	"trial_number"
"TRUE"	"fullscreen"	"0"	"2810"	"0.0-0.0"	"851x4m"	"600"	"1366"	"chrome"	"109.0.0"	"FALSE"	"Windows 10"	"60.93"	"152"	n/a	n/a	n/a	n/a	n/a	n/a	n/a	n/a	n/a	n/a	n/a	"NULL"	n/a	"NULL"	"NULL"	"NULL"	n/a	n/a	n/a	n/a	n/a	n/a	n/a	n/a	n/a	n/a	n/a
n/a	"browser-check"	"1"	"3812"	"0.0-1.0"	"851x4m"	"600"	"1366"	"chrome"	"109.0.0"	"FALSE"	"Windows 10"	"60.93"	"152"	"1366"	"600"	"TRUE"	"TRUE"	"TRUE"	"TRUE"	"browser_info"	"1.0"	"20/01/2023"	"17:33:50"	n/a	"NULL"	n/a	"NULL"	"NULL"	"NULL"	n/a	n/a	n/a	n/a	n/a	n/a	n/a	n/a	n/a	n/a	n/a
n/a	"survey-text"	"2"	"6014"	"0.0-2.0"	"851x4m"	"600"	"1366"	"chrome"	"109.0.0"	"FALSE"	"Windows 10"	"60.93"	"152"	n/a	n/a	n/a	n/a	n/a	n/a	"subject_id"	n/a	n/a	n/a	"2195"	"list(subject_id = \"152\")"	n/a	"NULL"	"NULL"	"NULL"	n/a	n/a	n/a	n/a	n/a	n/a	n/a	n/a	n/a	n/a	n/a
"TRUE"	"preload"	"3"	"6029"	"0.0-3.0"	"851x4m"	"600"	"1366"	"chrome"	"109.0.0"	"FALSE"	"Windows 10"	"60.93"	"152"	n/a	n/a	n/a	n/a	n/a	n/a	n/a	n/a	n/a	n/a	n/a	"NULL"	"FALSE"	"list()"	"list()"	"list()"	n/a	n/a	n/a	n/a	n/a	n/a	n/a	n/a	n/a	n/a	n/a
n/a	"html-button-response"	"4"	"145369"	"0.0-4.0-0.0"	"851x4m"	"600"	"1366"	"chrome"	"109.0.0"	"FALSE"	"Windows 10"	"60.93"	"152"	n/a	n/a	n/a	n/a	n/a	n/a	"illusion_instructions"	n/a	n/a	n/a	"139338"	"0"	n/a	"NULL"	"NULL"	"NULL"	"<p><b>Illusion Game</b></p><p>In this game of speed and reflex, you will need to make <b>visual judgments</b> (for instance, which circle is the biggest, or which line is the longest), as fast and as correctly as possible, while <b>resisting different visual illusions</b>.</p><p>We are going to start with some examples of all the illusions you will encounter in the game.</p>"	n/a	n/a	n/a	n/a	n/a	n/a	n/a	n/a	n/a	n/a
"TRUE"	"preload"	"5"	"145395"	"0.0-4.0-1.0-0.0"	"851x4m"	"600"	"1366"	"chrome"	"109.0.0"	"FALSE"	"Windows 10"	"60.93"	"152"	n/a	n/a	n/a	n/a	n/a	n/a	n/a	n/a	n/a	n/a	n/a	"NULL"	"FALSE"	"list()"	"list()"	"list()"	n/a	n/a	n/a	n/a	n/a	n/a	n/a	n/a	n/a	n/a	n/a
n/a	"html-keyboard-response"	"6"	"166585"	"0.0-4.0-1.0-1.0"	"851x4m"	"600"	"1366"	"chrome"	"109.0.0"	"FALSE"	"Windows 10"	"60.93"	"152"	n/a	n/a	n/a	n/a	n/a	n/a	n/a	n/a	n/a	n/a	"21188"	"enter"	n/a	"NULL"	"NULL"	"NULL"	"<p><b>Practice</b></p><p>In this part, two red circles will appear side by side on the screen.</p><p>Your task is to select which <b>red circle is bigger</b> in size as fast as you can, without making errors.</p><p>Don't get distracted by the surrounding black circles around the red circles!</p><p>Press <b>the LEFT or the RIGHT arrow</b> to indicate which is the bigger <b>red circle.</b></p><div style='float: center'><img src='materials/instructions/Ebbinghaus_Demo.png' height='300'></img><p><img src='utils/answer/answer_leftright_keyboard.PNG' height='150'></img></p><p class='small'>In this example, the correct answer is the <b>LEFT arrow</b>.</p></div><p>Are you ready? <b>Press ENTER to start</b></p>"	n/a	n/a	n/a	n/a	n/a	n/a	n/a	n/a	n/a	n/a
n/a	"html-keyboard-response"	"7"	"168367"	"0.0-4.0-1.0-2.0-0.0"	"851x4m"	"600"	"1366"	"chrome"	"109.0.0"	"FALSE"	"Windows 10"	"60.93"	"152"	n/a	n/a	n/a	n/a	n/a	n/a	"fixation"	n/a	n/a	n/a	n/a	"NULL"	n/a	"NULL"	"NULL"	"NULL"	"<p style=\"color: black; font-size: 80px; padding-left: 25%; padding-right: 41%; padding-top: 34%; padding-bottom: 6%\">+</p>"	"1240"	n/a	n/a	n/a	n/a	n/a	n/a	n/a	n/a	n/a
n/a	"image-keyboard-response"	"8"	"170328"	"0.0-4.0-1.0-2.0-1.0"	"851x4m"	"600"	"1366"	"chrome"	"109.0.0"	"FALSE"	"Windows 10"	"60.93"	"152"	n/a	n/a	n/a	n/a	n/a	n/a	"Trial"	n/a	n/a	n/a	"1928"	"arrowright"	n/a	"NULL"	"NULL"	"NULL"	"stimuli/Ebbinghaus_-100000_-1.4000.png"	n/a	"Ebbinghaus"	"arrowright"	"1782"	"TRUE"	"Ebbinghaus"	"-10000000000"	"-1.400000000"	"1"	"1"
n/a	"html-keyboard-response"	"9"	"171644"	"0.0-4.0-1.0-2.0-0.1"	"851x4m"	"600"	"1366"	"chrome"	"109.0.0"	"FALSE"	"Windows 10"	"60.93"	"152"	n/a	n/a	n/a	n/a	n/a	n/a	"fixation"	n/a	n/a	n/a	n/a	"NULL"	n/a	"NULL"	"NULL"	"NULL"	"<p style=\"color: black; font-size: 80px; padding-left: 21%; padding-right: 12%; padding-top: 33%; padding-bottom: 18%\">+</p>"	"1304"	n/a	n/a	n/a	n/a	n/a	n/a	n/a	n/a	n/a
n/a	"image-keyboard-response"	"10"	"173203"	"0.0-4.0-1.0-2.0-1.1"	"851x4m"	"600"	"1366"	"chrome"	"109.0.0"	"FALSE"	"Windows 10"	"60.93"	"152"	n/a	n/a	n/a	n/a	n/a	n/a	"Trial"	n/a	n/a	n/a	"1557"	"arrowright"	n/a	"NULL"	"NULL"	"NULL"	"stimuli/Ebbinghaus_1000000_-1.4000.png"	n/a	"Ebbinghaus"	"arrowright"	"1316"	"TRUE"	"Ebbinghaus"	"100000000000"	"-1.400000000"	"1"	"2"
n/a	"html-keyboard-response"	"11"	"174357"	"0.0-4.0-1.0-2.0-0.2"	"851x4m"	"600"	"1366"	"chrome"	"109.0.0"	"FALSE"	"Windows 10"	"60.93"	"152"	n/a	n/a	n/a	n/a	n/a	n/a	"fixation"	n/a	n/a	n/a	n/a	"NULL"	n/a	"NULL"	"NULL"	"NULL"	"<p style=\"color: black; font-size: 80px; padding-left: 6%; padding-right: 49%; padding-top: 43%; padding-bottom: 44%\">+</p>"	"1141"	n/a	n/a	n/a	n/a	n/a	n/a	n/a	n/a	n/a
n/a	"image-keyboard-response"	"12"	"175187"	"0.0-4.0-1.0-2.0-1.2"	"851x4m"	"600"	"1366"	"chrome"	"109.0.0"	"FALSE"	"Windows 10"	"60.93"	"152"	n/a	n/a	n/a	n/a	n/a	n/a	"Trial"	n/a	n/a	n/a	"829"	"arrowleft"	n/a	"NULL"	"NULL"	"NULL"	"stimuli/Ebbinghaus_-100000_1.40000.png"	n/a	"Ebbinghaus"	"arrowleft"	"1154"	"TRUE"	"Ebbinghaus"	"-10000000000"	"1.4000000000"	"1"	"3"
n/a	"html-keyboard-response"	"13"	"176647"	"0.0-4.0-1.0-2.0-0.3"	"851x4m"	"600"	"1366"	"chrome"	"109.0.0"	"FALSE"	"Windows 10"	"60.93"	"152"	n/a	n/a	n/a	n/a	n/a	n/a	"fixation"	n/a	n/a	n/a	n/a	"NULL"	n/a	"NULL"	"NULL"	"NULL"	"<p style=\"color: black; font-size: 80px; padding-left: 23%; padding-right: 18%; padding-top: 2%; padding-bottom: 22%\">+</p>"	"1449"	n/a	n/a	n/a	n/a	n/a	n/a	n/a	n/a	n/a
n/a	"image-keyboard-response"	"14"	"177398"	"0.0-4.0-1.0-2.0-1.3"	"851x4m"	"600"	"1366"	"chrome"	"109.0.0"	"FALSE"	"Windows 10"	"60.93"	"152"	n/a	n/a	n/a	n/a	n/a	n/a	"Trial"	n/a	n/a	n/a	"751"	"arrowleft"	n/a	"NULL"	"NULL"	"NULL"	"stimuli/Ebbinghaus_0000000_1.40000.png"	n/a	"Ebbinghaus"	"arrowleft"	"1460"	"TRUE"	"Ebbinghaus"	"000000000000"	"1.4000000000"	"1"	"4"
n/a	"html-keyboard-response"	"15"	"178893"	"0.0-4.0-1.0-2.0-0.4"	"851x4m"	"600"	"1366"	"chrome"	"109.0.0"	"FALSE"	"Windows 10"	"60.93"	"152"	n/a	n/a	n/a	n/a	n/a	n/a	"fixation"	n/a	n/a	n/a	n/a	"NULL"	n/a	"NULL"	"NULL"	"NULL"	"<p style=\"color: black; font-size: 80px; padding-left: 4%; padding-right: 21%; padding-top: 0%; padding-bottom: 45%\">+</p>"	"1477"	n/a	n/a	n/a	n/a	n/a	n/a	n/a	n/a	n/a
n/a	"image-keyboard-response"	"16"	"179626"	"0.0-4.0-1.0-2.0-1.4"	"851x4m"	"600"	"1366"	"chrome"	"109.0.0"	"FALSE"	"Windows 10"	"60.93"	"152"	n/a	n/a	n/a	n/a	n/a	n/a	"Trial"	n/a	n/a	n/a	"732"	"arrowright"	n/a	"NULL"	"NULL"	"NULL"	"stimuli/Ebbinghaus_0000000_-1.4000.png"	n/a	"Ebbinghaus"	"arrowright"	"1495"	"TRUE"	"Ebbinghaus"	"000000000000"	"-1.400000000"	"1"	"5"
n/a	"html-keyboard-response"	"17"	"180836"	"0.0-4.0-1.0-2.0-0.5"	"851x4m"	"600"	"1366"	"chrome"	"109.0.0"	"FALSE"	"Windows 10"	"60.93"	"152"	n/a	n/a	n/a	n/a	n/a	n/a	"fixation"	n/a	n/a	n/a	n/a	"NULL"	n/a	"NULL"	"NULL"	"NULL"	"<p style=\"color: black; font-size: 80px; padding-left: 5%; padding-right: 17%; padding-top: 0%; padding-bottom: 26%\">+</p>"	"1199"	n/a	n/a	n/a	n/a	n/a	n/a	n/a	n/a	n/a
n/a	"image-keyboard-response"	"18"	"181414"	"0.0-4.0-1.0-2.0-1.5"	"851x4m"	"600"	"1366"	"chrome"	"109.0.0"	"FALSE"	"Windows 10"	"60.93"	"152"	n/a	n/a	n/a	n/a	n/a	n/a	"Trial"	n/a	n/a	n/a	"576"	"arrowleft"	n/a	"NULL"	"NULL"	"NULL"	"stimuli/Ebbinghaus_1000000_1.40000.png"	n/a	"Ebbinghaus"	"arrowleft"	"1210"	"TRUE"	"Ebbinghaus"	"100000000000"	"1.4000000000"	"1"	"6"
n/a	"html-button-response"	"19"	"186672"	"0.0-4.0-1.0-3.0"	"851x4m"	"600"	"1366"	"chrome"	"109.0.0"	"FALSE"	"Windows 10"	"60.93"	"152"	n/a	n/a	n/a	n/a	n/a	n/a	"practice_block_results"	n/a	n/a	n/a	"5255"	"0"	n/a	"NULL"	"NULL"	"NULL"	"<p style='color:rgb(76,175,80);'> Correct Responses: <b>100.00%</b></p><hr><p style='color:rgb(233,30,99);'> Average Response Time: <b>1062.17</b> ms.</p>"	n/a	n/a	n/a	n/a	n/a	n/a	n/a	n/a	n/a	n/a
"TRUE"	"preload"	"20"	"187204"	"0.0-4.0-2.0-0.0"	"851x4m"	"600"	"1366"	"chrome"	"109.0.0"	"FALSE"	"Windows 10"	"60.93"	"152"	n/a	n/a	n/a	n/a	n/a	n/a	n/a	n/a	n/a	n/a	n/a	"NULL"	"FALSE"	"list()"	"list()"	"list()"	n/a	n/a	n/a	n/a	n/a	n/a	n/a	n/a	n/a	n/a	n/a
n/a	"html-keyboard-response"	"21"	"193569"	"0.0-4.0-2.0-1.0"	"851x4m"	"600"	"1366"	"chrome"	"109.0.0"	"FALSE"	"Windows 10"	"60.93"	"152"	n/a	n/a	n/a	n/a	n/a	n/a	n/a	n/a	n/a	n/a	"6365"	"enter"	n/a	"NULL"	"NULL"	"NULL"	"<p><b>Practice</b></p><p>In this part, two horizontal red lines will appear one above the other.</p><p>Your task is to select which <b>line is longer</b> in length as fast as you can, without making errors.</p><p>Don't get distracted by the surrounding black arrows at the end of the red lines!</p><p>Press <b>the UP or the DOWN arrow</b> to indicate where is the longer <b>red line.</b></p><div style='float: center'><img src='materials/instructions/MullerLyer_Demo.png' height='300'></img><p><img src='utils/answer/answer_updown_keyboard.PNG' height='150'></img></p><p class='small'>In this example, the correct answer is the <b>UP arrow</b>.</p></div><p>Are you ready? <b>Press ENTER to start</b></p>"	n/a	n/a	n/a	n/a	n/a	n/a	n/a	n/a	n/a	n/a
n/a	"html-keyboard-response"	"22"	"195163"	"0.0-4.0-2.0-2.0-0.0"	"851x4m"	"600"	"1366"	"chrome"	"109.0.0"	"FALSE"	"Windows 10"	"60.93"	"152"	n/a	n/a	n/a	n/a	n/a	n/a	"fixation"	n/a	n/a	n/a	n/a	"NULL"	n/a	"NULL"	"NULL"	"NULL"	"<p style=\"color: black; font-size: 80px; padding-left: 8%; padding-right: 38%; padding-top: 7%; padding-bottom: 17%\">+</p>"	"1070"	n/a	n/a	n/a	n/a	n/a	n/a	n/a	n/a	n/a
n/a	"image-keyboard-response"	"23"	"195895"	"0.0-4.0-2.0-2.0-1.0"	"851x4m"	"600"	"1366"	"chrome"	"109.0.0"	"FALSE"	"Windows 10"	"60.93"	"152"	n/a	n/a	n/a	n/a	n/a	n/a	"Trial"	n/a	n/a	n/a	"729"	"arrowup"	n/a	"NULL"	"NULL"	"NULL"	"stimuli/MullerLyer_-230000_0.70000.png"	n/a	"MullerLyer"	"arrowup"	"1594"	"TRUE"	"MullerLyer"	"-23000000000"	"0.7000000000"	"1"	"7"
n/a	"html-keyboard-response"	"24"	"197255"	"0.0-4.0-2.0-2.0-0.1"	"851x4m"	"600"	"1366"	"chrome"	"109.0.0"	"FALSE"	"Windows 10"	"60.93"	"152"	n/a	n/a	n/a	n/a	n/a	n/a	"fixation"	n/a	n/a	n/a	n/a	"NULL"	n/a	"NULL"	"NULL"	"NULL"	"<p style=\"color: black; font-size: 80px; padding-left: 26%; padding-right: 18%; padding-top: 2%; padding-bottom: 45%\">+</p>"	"1353"	n/a	n/a	n/a	n/a	n/a	n/a	n/a	n/a	n/a
n/a	"image-keyboard-response"	"25"	"198025"	"0.0-4.0-2.0-2.0-1.1"	"851x4m"	"600"	"1366"	"chrome"	"109.0.0"	"FALSE"	"Windows 10"	"60.93"	"152"	n/a	n/a	n/a	n/a	n/a	n/a	"Trial"	n/a	n/a	n/a	"768"	"arrowdown"	n/a	"NULL"	"NULL"	"NULL"	"stimuli/MullerLyer_-230000_-0.7000.png"	n/a	"MullerLyer"	"arrowdown"	"1360"	"TRUE"	"MullerLyer"	"-23000000000"	"-0.700000000"	"1"	"8"
n/a	"html-keyboard-response"	"26"	"199255"	"0.0-4.0-2.0-2.0-0.2"	"851x4m"	"600"	"1366"	"chrome"	"109.0.0"	"FALSE"	"Windows 10"	"60.93"	"152"	n/a	n/a	n/a	n/a	n/a	n/a	"fixation"	n/a	n/a	n/a	n/a	"NULL"	n/a	"NULL"	"NULL"	"NULL"	"<p style=\"color: black; font-size: 80px; padding-left: 40%; padding-right: 7%; padding-top: 2%; padding-bottom: 20%\">+</p>"	"1212"	n/a	n/a	n/a	n/a	n/a	n/a	n/a	n/a	n/a
n/a	"image-keyboard-response"	"27"	"200325"	"0.0-4.0-2.0-2.0-1.2"	"851x4m"	"600"	"1366"	"chrome"	"109.0.0"	"FALSE"	"Windows 10"	"60.93"	"152"	n/a	n/a	n/a	n/a	n/a	n/a	"Trial"	n/a	n/a	n/a	"1069"	"arrowdown"	n/a	"NULL"	"NULL"	"NULL"	"stimuli/MullerLyer_2300000_-0.7000.png"	n/a	"MullerLyer"	"arrowdown"	"1230"	"TRUE"	"MullerLyer"	"230000000000"	"-0.700000000"	"1"	"9"
n/a	"html-keyboard-response"	"28"	"201784"	"0.0-4.0-2.0-2.0-0.3"	"851x4m"	"600"	"1366"	"chrome"	"109.0.0"	"FALSE"	"Windows 10"	"60.93"	"152"	n/a	n/a	n/a	n/a	n/a	n/a	"fixation"	n/a	n/a	n/a	n/a	"NULL"	n/a	"NULL"	"NULL"	"NULL"	"<p style=\"color: black; font-size: 80px; padding-left: 26%; padding-right: 28%; padding-top: 21%; padding-bottom: 6%\">+</p>"	"1446"	n/a	n/a	n/a	n/a	n/a	n/a	n/a	n/a	n/a
n/a	"image-keyboard-response"	"29"	"202479"	"0.0-4.0-2.0-2.0-1.3"	"851x4m"	"600"	"1366"	"chrome"	"109.0.0"	"FALSE"	"Windows 10"	"60.93"	"152"	n/a	n/a	n/a	n/a	n/a	n/a	"Trial"	n/a	n/a	n/a	"694"	"arrowup"	n/a	"NULL"	"NULL"	"NULL"	"stimuli/MullerLyer_2300000_0.70000.png"	n/a	"MullerLyer"	"arrowup"	"1459"	"TRUE"	"MullerLyer"	"230000000000"	"0.7000000000"	"1"	"10"
n/a	"html-keyboard-response"	"30"	"203899"	"0.0-4.0-2.0-2.0-0.4"	"851x4m"	"600"	"1366"	"chrome"	"109.0.0"	"FALSE"	"Windows 10"	"60.93"	"152"	n/a	n/a	n/a	n/a	n/a	n/a	"fixation"	n/a	n/a	n/a	n/a	"NULL"	n/a	"NULL"	"NULL"	"NULL"	"<p style=\"color: black; font-size: 80px; padding-left: 11%; padding-right: 5%; padding-top: 34%; padding-bottom: 31%\">+</p>"	"1408"	n/a	n/a	n/a	n/a	n/a	n/a	n/a	n/a	n/a
n/a	"image-keyboard-response"	"31"	"204707"	"0.0-4.0-2.0-2.0-1.4"	"851x4m"	"600"	"1366"	"chrome"	"109.0.0"	"FALSE"	"Windows 10"	"60.93"	"152"	n/a	n/a	n/a	n/a	n/a	n/a	"Trial"	n/a	n/a	n/a	"806"	"arrowdown"	n/a	"NULL"	"NULL"	"NULL"	"stimuli/MullerLyer_0000000_-0.7000.png"	n/a	"MullerLyer"	"arrowdown"	"1420"	"TRUE"	"MullerLyer"	"000000000000"	"-0.700000000"	"1"	"11"
n/a	"html-keyboard-response"	"32"	"205754"	"0.0-4.0-2.0-2.0-0.5"	"851x4m"	"600"	"1366"	"chrome"	"109.0.0"	"FALSE"	"Windows 10"	"60.93"	"152"	n/a	n/a	n/a	n/a	n/a	n/a	"fixation"	n/a	n/a	n/a	n/a	"NULL"	n/a	"NULL"	"NULL"	"NULL"	"<p style=\"color: black; font-size: 80px; padding-left: 27%; padding-right: 32%; padding-top: 12%; padding-bottom: 41%\">+</p>"	"1038"	n/a	n/a	n/a	n/a	n/a	n/a	n/a	n/a	n/a
n/a	"image-keyboard-response"	"33"	"206500"	"0.0-4.0-2.0-2.0-1.5"	"851x4m"	"600"	"1366"	"chrome"	"109.0.0"	"FALSE"	"Windows 10"	"60.93"	"152"	n/a	n/a	n/a	n/a	n/a	n/a	"Trial"	n/a	n/a	n/a	"744"	"arrowup"	n/a	"NULL"	"NULL"	"NULL"	"stimuli/MullerLyer_0000000_0.70000.png"	n/a	"MullerLyer"	"arrowup"	"1047"	"TRUE"	"MullerLyer"	"000000000000"	"0.7000000000"	"1"	"12"
n/a	"html-button-response"	"34"	"209583"	"0.0-4.0-2.0-3.0"	"851x4m"	"600"	"1366"	"chrome"	"109.0.0"	"FALSE"	"Windows 10"	"60.93"	"152"	n/a	n/a	n/a	n/a	n/a	n/a	"practice_block_results"	n/a	n/a	n/a	"3081"	"0"	n/a	"NULL"	"NULL"	"NULL"	"<p style='color:rgb(76,175,80);'> Correct Responses: <b>100.00%</b></p><hr><p style='color:rgb(233,30,99);'> Average Response Time: <b>801.67</b> ms.</p>"	n/a	n/a	n/a	n/a	n/a	n/a	n/a	n/a	n/a	n/a
"TRUE"	"preload"	"35"	"210122"	"0.0-4.0-3.0-0.0"	"851x4m"	"600"	"1366"	"chrome"	"109.0.0"	"FALSE"	"Windows 10"	"60.93"	"152"	n/a	n/a	n/a	n/a	n/a	n/a	n/a	n/a	n/a	n/a	n/a	"NULL"	"FALSE"	"list()"	"list()"	"list()"	n/a	n/a	n/a	n/a	n/a	n/a	n/a	n/a	n/a	n/a	n/a
n/a	"html-keyboard-response"	"36"	"215649"	"0.0-4.0-3.0-1.0"	"851x4m"	"600"	"1366"	"chrome"	"109.0.0"	"FALSE"	"Windows 10"	"60.93"	"152"	n/a	n/a	n/a	n/a	n/a	n/a	n/a	n/a	n/a	n/a	"5526"	"enter"	n/a	"NULL"	"NULL"	"NULL"	"<p><b>Practice</b></p><p>In this part, two red lines will appear side by side.</p><p>Your task is to tell <b>which line is longer</b> in length, regardless of their orientation, as fast as you can, and without making errors.</p><p>Don't get distracted by the orientation of the lines!</p><p>Press <b>the LEFT or the RIGHT arrow</b> to indicate which <b>line is the longer one.</b></p><div style='float: center'><img src='materials/instructions/VerticalHorizontal_Demo.png' height='300'></img><p><img src='utils/answer/answer_leftright_keyboard.PNG' height='150'></img></p><p class='small'>In this example, the correct answer is the <b>LEFT arrow</b>.</p></div><p>Are you ready? <b>Press ENTER to start</b></p>"	n/a	n/a	n/a	n/a	n/a	n/a	n/a	n/a	n/a	n/a
n/a	"html-keyboard-response"	"37"	"217360"	"0.0-4.0-3.0-2.0-0.0"	"851x4m"	"600"	"1366"	"chrome"	"109.0.0"	"FALSE"	"Windows 10"	"60.93"	"152"	n/a	n/a	n/a	n/a	n/a	n/a	"fixation"	n/a	n/a	n/a	n/a	"NULL"	n/a	"NULL"	"NULL"	"NULL"	"<p style=\"color: black; font-size: 80px; padding-left: 49%; padding-right: 29%; padding-top: 33%; padding-bottom: 46%\">+</p>"	"1176"	n/a	n/a	n/a	n/a	n/a	n/a	n/a	n/a	n/a
n/a	"image-keyboard-response"	"38"	"217933"	"0.0-4.0-3.0-2.0-1.0"	"851x4m"	"600"	"1366"	"chrome"	"109.0.0"	"FALSE"	"Windows 10"	"60.93"	"152"	n/a	n/a	n/a	n/a	n/a	n/a	"Trial"	n/a	n/a	n/a	"572"	"arrowright"	n/a	"NULL"	"NULL"	"NULL"	"stimuli/VerticalHorizontal_-330000_-0.9000.png"	n/a	"VerticalHorizontal"	"arrowright"	"1711"	"TRUE"	"VerticalHorizontal"	"-33000000000"	"-0.900000000"	"1"	"13"
n/a	"html-keyboard-response"	"39"	"219216"	"0.0-4.0-3.0-2.0-0.1"	"851x4m"	"600"	"1366"	"chrome"	"109.0.0"	"FALSE"	"Windows 10"	"60.93"	"152"	n/a	n/a	n/a	n/a	n/a	n/a	"fixation"	n/a	n/a	n/a	n/a	"NULL"	n/a	"NULL"	"NULL"	"NULL"	"<p style=\"color: black; font-size: 80px; padding-left: 36%; padding-right: 14%; padding-top: 21%; padding-bottom: 27%\">+</p>"	"1274"	n/a	n/a	n/a	n/a	n/a	n/a	n/a	n/a	n/a
n/a	"image-keyboard-response"	"40"	"219726"	"0.0-4.0-3.0-2.0-1.1"	"851x4m"	"600"	"1366"	"chrome"	"109.0.0"	"FALSE"	"Windows 10"	"60.93"	"152"	n/a	n/a	n/a	n/a	n/a	n/a	"Trial"	n/a	n/a	n/a	"509"	"arrowleft"	n/a	"NULL"	"NULL"	"NULL"	"stimuli/VerticalHorizontal_0000000_0.90000.png"	n/a	"VerticalHorizontal"	"arrowleft"	"1283"	"TRUE"	"VerticalHorizontal"	"000000000000"	"0.9000000000"	"1"	"14"
n/a	"html-keyboard-response"	"41"	"220872"	"0.0-4.0-3.0-2.0-0.2"	"851x4m"	"600"	"1366"	"chrome"	"109.0.0"	"FALSE"	"Windows 10"	"60.93"	"152"	n/a	n/a	n/a	n/a	n/a	n/a	"fixation"	n/a	n/a	n/a	n/a	"NULL"	n/a	"NULL"	"NULL"	"NULL"	"<p style=\"color: black; font-size: 80px; padding-left: 27%; padding-right: 35%; padding-top: 19%; padding-bottom: 42%\">+</p>"	"1131"	n/a	n/a	n/a	n/a	n/a	n/a	n/a	n/a	n/a
n/a	"image-keyboard-response"	"42"	"221369"	"0.0-4.0-3.0-2.0-1.2"	"851x4m"	"600"	"1366"	"chrome"	"109.0.0"	"FALSE"	"Windows 10"	"60.93"	"152"	n/a	n/a	n/a	n/a	n/a	n/a	"Trial"	n/a	n/a	n/a	"496"	"arrowleft"	n/a	"NULL"	"NULL"	"NULL"	"stimuli/VerticalHorizontal_-330000_0.90000.png"	n/a	"VerticalHorizontal"	"arrowleft"	"1146"	"TRUE"	"VerticalHorizontal"	"-33000000000"	"0.9000000000"	"1"	"15"
n/a	"html-keyboard-response"	"43"	"222569"	"0.0-4.0-3.0-2.0-0.3"	"851x4m"	"600"	"1366"	"chrome"	"109.0.0"	"FALSE"	"Windows 10"	"60.93"	"152"	n/a	n/a	n/a	n/a	n/a	n/a	"fixation"	n/a	n/a	n/a	n/a	"NULL"	n/a	"NULL"	"NULL"	"NULL"	"<p style=\"color: black; font-size: 80px; padding-left: 49%; padding-right: 40%; padding-top: 17%; padding-bottom: 30%\">+</p>"	"1182"	n/a	n/a	n/a	n/a	n/a	n/a	n/a	n/a	n/a
n/a	"image-keyboard-response"	"44"	"223072"	"0.0-4.0-3.0-2.0-1.3"	"851x4m"	"600"	"1366"	"chrome"	"109.0.0"	"FALSE"	"Windows 10"	"60.93"	"152"	n/a	n/a	n/a	n/a	n/a	n/a	"Trial"	n/a	n/a	n/a	"501"	"arrowright"	n/a	"NULL"	"NULL"	"NULL"	"stimuli/VerticalHorizontal_3300000_-0.9000.png"	n/a	"VerticalHorizontal"	"arrowright"	"1200"	"TRUE"	"VerticalHorizontal"	"330000000000"	"-0.900000000"	"1"	"16"
n/a	"html-keyboard-response"	"45"	"224437"	"0.0-4.0-3.0-2.0-0.4"	"851x4m"	"600"	"1366"	"chrome"	"109.0.0"	"FALSE"	"Windows 10"	"60.93"	"152"	n/a	n/a	n/a	n/a	n/a	n/a	"fixation"	n/a	n/a	n/a	n/a	"NULL"	n/a	"NULL"	"NULL"	"NULL"	"<p style=\"color: black; font-size: 80px; padding-left: 39%; padding-right: 26%; padding-top: 23%; padding-bottom: 34%\">+</p>"	"1348"	n/a	n/a	n/a	n/a	n/a	n/a	n/a	n/a	n/a
n/a	"image-keyboard-response"	"46"	"224872"	"0.0-4.0-3.0-2.0-1.4"	"851x4m"	"600"	"1366"	"chrome"	"109.0.0"	"FALSE"	"Windows 10"	"60.93"	"152"	n/a	n/a	n/a	n/a	n/a	n/a	"Trial"	n/a	n/a	n/a	"433"	"arrowleft"	n/a	"NULL"	"NULL"	"NULL"	"stimuli/VerticalHorizontal_3300000_0.90000.png"	n/a	"VerticalHorizontal"	"arrowleft"	"1365"	"TRUE"	"VerticalHorizontal"	"330000000000"	"0.9000000000"	"1"	"17"
n/a	"html-keyboard-response"	"47"	"226023"	"0.0-4.0-3.0-2.0-0.5"	"851x4m"	"600"	"1366"	"chrome"	"109.0.0"	"FALSE"	"Windows 10"	"60.93"	"152"	n/a	n/a	n/a	n/a	n/a	n/a	"fixation"	n/a	n/a	n/a	n/a	"NULL"	n/a	"NULL"	"NULL"	"NULL"	"<p style=\"color: black; font-size: 80px; padding-left: 42%; padding-right: 10%; padding-top: 31%; padding-bottom: 27%\">+</p>"	"1140"	n/a	n/a	n/a	n/a	n/a	n/a	n/a	n/a	n/a
n/a	"image-keyboard-response"	"48"	"226528"	"0.0-4.0-3.0-2.0-1.5"	"851x4m"	"600"	"1366"	"chrome"	"109.0.0"	"FALSE"	"Windows 10"	"60.93"	"152"	n/a	n/a	n/a	n/a	n/a	n/a	"Trial"	n/a	n/a	n/a	"504"	"arrowright"	n/a	"NULL"	"NULL"	"NULL"	"stimuli/VerticalHorizontal_0000000_-0.9000.png"	n/a	"VerticalHorizontal"	"arrowright"	"1151"	"TRUE"	"VerticalHorizontal"	"000000000000"	"-0.900000000"	"1"	"18"
n/a	"html-button-response"	"49"	"229044"	"0.0-4.0-3.0-3.0"	"851x4m"	"600"	"1366"	"chrome"	"109.0.0"	"FALSE"	"Windows 10"	"60.93"	"152"	n/a	n/a	n/a	n/a	n/a	n/a	"practice_block_results"	n/a	n/a	n/a	"2514"	"0"	n/a	"NULL"	"NULL"	"NULL"	"<p style='color:rgb(76,175,80);'> Correct Responses: <b>100.00%</b></p><hr><p style='color:rgb(233,30,99);'> Average Response Time: <b>502.50</b> ms.</p>"	n/a	n/a	n/a	n/a	n/a	n/a	n/a	n/a	n/a	n/a
n/a	"html-button-response"	"50"	"307049"	"0.0-4.0-4.0"	"851x4m"	"600"	"1366"	"chrome"	"109.0.0"	"FALSE"	"Windows 10"	"60.93"	"152"	n/a	n/a	n/a	n/a	n/a	n/a	"practice_debrief"	n/a	n/a	n/a	"77491"	"0"	n/a	"NULL"	"NULL"	"NULL"	"<p><b>TRAINING COMPLETED</b></p><p>In the next phase, there will be more trials, and some might be harder too.<br> Moreover, after each illusion block, a <b>score</b> will be calculated based on speed (time you took to answer) and accuracy (number of errors).</p><p>Try to keep up a high score!</p><br><p>Note that it can be <i>really</i> challenging at times, so you will need to rely on your <b>intuition</b> and gut feeling to answer as fast as you can without making errors.</p><p>Each illusion block will be repeated two times (so that you have the opportunity to improve your score), but the order of the blocks is random.</p><p>Remember, your goal is to be as <b>fast</b> and <b>accurate</b> as possible. Good luck!</p><br>"	n/a	n/a	n/a	n/a	n/a	n/a	n/a	n/a	n/a	n/a
"TRUE"	"preload"	"51"	"307234"	"0.0-5.0-0.0"	"851x4m"	"600"	"1366"	"chrome"	"109.0.0"	"FALSE"	"Windows 10"	"60.93"	"152"	n/a	n/a	n/a	n/a	n/a	n/a	n/a	n/a	n/a	n/a	n/a	"NULL"	"FALSE"	"list()"	"list()"	"list()"	n/a	n/a	n/a	n/a	n/a	n/a	n/a	n/a	n/a	n/a	n/a
n/a	"html-keyboard-response"	"52"	"311703"	"0.0-5.0-1.0"	"851x4m"	"600"	"1366"	"chrome"	"109.0.0"	"FALSE"	"Windows 10"	"60.93"	"152"	n/a	n/a	n/a	n/a	n/a	n/a	n/a	n/a	n/a	n/a	"4468"	"enter"	n/a	"NULL"	"NULL"	"NULL"	"<p><b>Part 1/6</b></p><p>In this part, two horizontal red lines will appear one above the other.</p><p>Your task is to select which <b>line is longer</b> in length as fast as you can, without making errors.</p><p>Don't get distracted by the surrounding black arrows at the end of the red lines!</p><p>Press <b>the UP or the DOWN arrow</b> to indicate where is the longer <b>red line.</b></p><div style='float: center'><img src='materials/instructions/MullerLyer_Demo.png' height='300'></img><p><img src='utils/answer/answer_updown_keyboard.PNG' height='150'></img></p><p class='small'>In this example, the correct answer is the <b>UP arrow</b>.</p></div><p>Are you ready? <b>Press ENTER to start</b></p>"	n/a	n/a	n/a	n/a	n/a	n/a	n/a	n/a	n/a	n/a
n/a	"html-keyboard-response"	"53"	"313361"	"0.0-5.0-2.0-0.0"	"851x4m"	"600"	"1366"	"chrome"	"109.0.0"	"FALSE"	"Windows 10"	"60.93"	"152"	n/a	n/a	n/a	n/a	n/a	n/a	"fixation"	n/a	n/a	n/a	n/a	"NULL"	n/a	"NULL"	"NULL"	"NULL"	"<p style=\"color: black; font-size: 80px; padding-left: 18%; padding-right: 39%; padding-top: 32%; padding-bottom: 23%\">+</p>"	"1124"	n/a	n/a	n/a	n/a	n/a	n/a	n/a	n/a	n/a
n/a	"image-keyboard-response"	"54"	"314641"	"0.0-5.0-2.0-1.0"	"851x4m"	"600"	"1366"	"chrome"	"109.0.0"	"FALSE"	"Windows 10"	"60.93"	"152"	n/a	n/a	n/a	n/a	n/a	n/a	"Trial"	n/a	n/a	n/a	"1279"	"arrowdown"	n/a	"NULL"	"NULL"	"NULL"	"stimuli/MullerLyer_14.12857_-0.3500.png"	n/a	"MullerLyer"	"arrowdown"	"1658"	"TRUE"	"MullerLyer"	"14.128570000"	"-0.350000000"	"1"	"19"
n/a	"html-keyboard-response"	"55"	"315930"	"0.0-5.0-2.0-0.1"	"851x4m"	"600"	"1366"	"chrome"	"109.0.0"	"FALSE"	"Windows 10"	"60.93"	"152"	n/a	n/a	n/a	n/a	n/a	n/a	"fixation"	n/a	n/a	n/a	n/a	"NULL"	n/a	"NULL"	"NULL"	"NULL"	"<p style=\"color: black; font-size: 80px; padding-left: 42%; padding-right: 18%; padding-top: 9%; padding-bottom: 3%\">+</p>"	"1270"	n/a	n/a	n/a	n/a	n/a	n/a	n/a	n/a	n/a
n/a	"image-keyboard-response"	"56"	"318103"	"0.0-5.0-2.0-1.1"	"851x4m"	"600"	"1366"	"chrome"	"109.0.0"	"FALSE"	"Windows 10"	"60.93"	"152"	n/a	n/a	n/a	n/a	n/a	n/a	"Trial"	n/a	n/a	n/a	"2169"	"arrowdown"	n/a	"NULL"	"NULL"	"NULL"	"stimuli/MullerLyer_8.21429_0.14541.png"	n/a	"MullerLyer"	"arrowup"	"1289"	"FALSE"	"MullerLyer"	"8.2142900000"	"0.1454100000"	"1"	"20"
n/a	"html-keyboard-response"	"57"	"319598"	"0.0-5.0-2.0-0.2"	"851x4m"	"600"	"1366"	"chrome"	"109.0.0"	"FALSE"	"Windows 10"	"60.93"	"152"	n/a	n/a	n/a	n/a	n/a	n/a	"fixation"	n/a	n/a	n/a	n/a	"NULL"	n/a	"NULL"	"NULL"	"NULL"	"<p style=\"color: black; font-size: 80px; padding-left: 44%; padding-right: 37%; padding-top: 48%; padding-bottom: 12%\">+</p>"	"1485"	n/a	n/a	n/a	n/a	n/a	n/a	n/a	n/a	n/a
n/a	"image-keyboard-response"	"58"	"320363"	"0.0-5.0-2.0-1.2"	"851x4m"	"600"	"1366"	"chrome"	"109.0.0"	"FALSE"	"Windows 10"	"60.93"	"152"	n/a	n/a	n/a	n/a	n/a	n/a	"Trial"	n/a	n/a	n/a	"764"	"arrowdown"	n/a	"NULL"	"NULL"	"NULL"	"stimuli/MullerLyer_-8.21429_-0.14541.png"	n/a	"MullerLyer"	"arrowdown"	"1495"	"TRUE"	"MullerLyer"	"-8.214290000"	"-0.145410000"	"1"	"21"
n/a	"html-keyboard-response"	"59"	"321758"	"0.0-5.0-2.0-0.3"	"851x4m"	"600"	"1366"	"chrome"	"109.0.0"	"FALSE"	"Windows 10"	"60.93"	"152"	n/a	n/a	n/a	n/a	n/a	n/a	"fixation"	n/a	n/a	n/a	n/a	"NULL"	n/a	"NULL"	"NULL"	"NULL"	"<p style=\"color: black; font-size: 80px; padding-left: 47%; padding-right: 26%; padding-top: 45%; padding-bottom: 1%\">+</p>"	"1389"	n/a	n/a	n/a	n/a	n/a	n/a	n/a	n/a	n/a
n/a	"image-keyboard-response"	"60"	"322571"	"0.0-5.0-2.0-1.3"	"851x4m"	"600"	"1366"	"chrome"	"109.0.0"	"FALSE"	"Windows 10"	"60.93"	"152"	n/a	n/a	n/a	n/a	n/a	n/a	"Trial"	n/a	n/a	n/a	"812"	"arrowup"	n/a	"NULL"	"NULL"	"NULL"	"stimuli/MullerLyer_-2.3000_0.14541.png"	n/a	"MullerLyer"	"arrowup"	"1395"	"TRUE"	"MullerLyer"	"-2.300000000"	"0.1454100000"	"1"	"22"
n/a	"html-keyboard-response"	"61"	"323832"	"0.0-5.0-2.0-0.4"	"851x4m"	"600"	"1366"	"chrome"	"109.0.0"	"FALSE"	"Windows 10"	"60.93"	"152"	n/a	n/a	n/a	n/a	n/a	n/a	"fixation"	n/a	n/a	n/a	n/a	"NULL"	n/a	"NULL"	"NULL"	"NULL"	"<p style=\"color: black; font-size: 80px; padding-left: 13%; padding-right: 13%; padding-top: 31%; padding-bottom: 13%\">+</p>"	"1251"	n/a	n/a	n/a	n/a	n/a	n/a	n/a	n/a	n/a
n/a	"image-keyboard-response"	"62"	"324581"	"0.0-5.0-2.0-1.4"	"851x4m"	"600"	"1366"	"chrome"	"109.0.0"	"FALSE"	"Windows 10"	"60.93"	"152"	n/a	n/a	n/a	n/a	n/a	n/a	"Trial"	n/a	n/a	n/a	"747"	"arrowup"	n/a	"NULL"	"NULL"	"NULL"	"stimuli/MullerLyer_2.30000_0.35000.png"	n/a	"MullerLyer"	"arrowup"	"1261"	"TRUE"	"MullerLyer"	"2.3000000000"	"0.3500000000"	"1"	"23"
n/a	"html-keyboard-response"	"63"	"325887"	"0.0-5.0-2.0-0.5"	"851x4m"	"600"	"1366"	"chrome"	"109.0.0"	"FALSE"	"Windows 10"	"60.93"	"152"	n/a	n/a	n/a	n/a	n/a	n/a	"fixation"	n/a	n/a	n/a	n/a	"NULL"	n/a	"NULL"	"NULL"	"NULL"	"<p style=\"color: black; font-size: 80px; padding-left: 19%; padding-right: 34%; padding-top: 11%; padding-bottom: 22%\">+</p>"	"1298"	n/a	n/a	n/a	n/a	n/a	n/a	n/a	n/a	n/a
n/a	"image-keyboard-response"	"64"	"326880"	"0.0-5.0-2.0-1.5"	"851x4m"	"600"	"1366"	"chrome"	"109.0.0"	"FALSE"	"Windows 10"	"60.93"	"152"	n/a	n/a	n/a	n/a	n/a	n/a	"Trial"	n/a	n/a	n/a	"992"	"arrowdown"	n/a	"NULL"	"NULL"	"NULL"	"stimuli/MullerLyer_8.21429_0.07627.png"	n/a	"MullerLyer"	"arrowup"	"1306"	"FALSE"	"MullerLyer"	"8.2142900000"	"0.0762700000"	"1"	"24"
n/a	"html-keyboard-response"	"65"	"328013"	"0.0-5.0-2.0-0.6"	"851x4m"	"600"	"1366"	"chrome"	"109.0.0"	"FALSE"	"Windows 10"	"60.93"	"152"	n/a	n/a	n/a	n/a	n/a	n/a	"fixation"	n/a	n/a	n/a	n/a	"NULL"	n/a	"NULL"	"NULL"	"NULL"	"<p style=\"color: black; font-size: 80px; padding-left: 14%; padding-right: 36%; padding-top: 20%; padding-bottom: 21%\">+</p>"	"1127"	n/a	n/a	n/a	n/a	n/a	n/a	n/a	n/a	n/a
n/a	"image-keyboard-response"	"66"	"328833"	"0.0-5.0-2.0-1.6"	"851x4m"	"600"	"1366"	"chrome"	"109.0.0"	"FALSE"	"Windows 10"	"60.93"	"152"	n/a	n/a	n/a	n/a	n/a	n/a	"Trial"	n/a	n/a	n/a	"819"	"arrowdown"	n/a	"NULL"	"NULL"	"NULL"	"stimuli/MullerLyer_-8.21429_-0.07627.png"	n/a	"MullerLyer"	"arrowdown"	"1133"	"TRUE"	"MullerLyer"	"-8.214290000"	"-0.076270000"	"1"	"25"
n/a	"html-keyboard-response"	"67"	"330031"	"0.0-5.0-2.0-0.7"	"851x4m"	"600"	"1366"	"chrome"	"109.0.0"	"FALSE"	"Windows 10"	"60.93"	"152"	n/a	n/a	n/a	n/a	n/a	n/a	"fixation"	n/a	n/a	n/a	n/a	"NULL"	n/a	"NULL"	"NULL"	"NULL"	"<p style=\"color: black; font-size: 80px; padding-left: 22%; padding-right: 27%; padding-top: 12%; padding-bottom: 26%\">+</p>"	"1182"	n/a	n/a	n/a	n/a	n/a	n/a	n/a	n/a	n/a
n/a	"image-keyboard-response"	"68"	"330985"	"0.0-5.0-2.0-1.7"	"851x4m"	"600"	"1366"	"chrome"	"109.0.0"	"FALSE"	"Windows 10"	"60.93"	"152"	n/a	n/a	n/a	n/a	n/a	n/a	"Trial"	n/a	n/a	n/a	"951"	"arrowdown"	n/a	"NULL"	"NULL"	"NULL"	"stimuli/MullerLyer_20.04286_0.07627.png"	n/a	"MullerLyer"	"arrowup"	"1198"	"FALSE"	"MullerLyer"	"20.042860000"	"0.0762700000"	"1"	"26"
n/a	"html-keyboard-response"	"69"	"332141"	"0.0-5.0-2.0-0.8"	"851x4m"	"600"	"1366"	"chrome"	"109.0.0"	"FALSE"	"Windows 10"	"60.93"	"152"	n/a	n/a	n/a	n/a	n/a	n/a	"fixation"	n/a	n/a	n/a	n/a	"NULL"	n/a	"NULL"	"NULL"	"NULL"	"<p style=\"color: black; font-size: 80px; padding-left: 6%; padding-right: 14%; padding-top: 22%; padding-bottom: 17%\">+</p>"	"1146"	n/a	n/a	n/a	n/a	n/a	n/a	n/a	n/a	n/a
n/a	"image-keyboard-response"	"70"	"334825"	"0.0-5.0-2.0-1.8"	"851x4m"	"600"	"1366"	"chrome"	"109.0.0"	"FALSE"	"Windows 10"	"60.93"	"152"	n/a	n/a	n/a	n/a	n/a	n/a	"Trial"	n/a	n/a	n/a	"2681"	"arrowup"	n/a	"NULL"	"NULL"	"NULL"	"stimuli/MullerLyer_14.12857_-0.14541.png"	n/a	"MullerLyer"	"arrowdown"	"1156"	"FALSE"	"MullerLyer"	"14.128570000"	"-0.145410000"	"1"	"27"
n/a	"html-keyboard-response"	"71"	"336054"	"0.0-5.0-2.0-0.9"	"851x4m"	"600"	"1366"	"chrome"	"109.0.0"	"FALSE"	"Windows 10"	"60.93"	"152"	n/a	n/a	n/a	n/a	n/a	n/a	"fixation"	n/a	n/a	n/a	n/a	"NULL"	n/a	"NULL"	"NULL"	"NULL"	"<p style=\"color: black; font-size: 80px; padding-left: 6%; padding-right: 19%; padding-top: 42%; padding-bottom: 25%\">+</p>"	"1223"	n/a	n/a	n/a	n/a	n/a	n/a	n/a	n/a	n/a
n/a	"image-keyboard-response"	"72"	"337109"	"0.0-5.0-2.0-1.9"	"851x4m"	"600"	"1366"	"chrome"	"109.0.0"	"FALSE"	"Windows 10"	"60.93"	"152"	n/a	n/a	n/a	n/a	n/a	n/a	"Trial"	n/a	n/a	n/a	"1054"	"arrowdown"	n/a	"NULL"	"NULL"	"NULL"	"stimuli/MullerLyer_2.30000_-0.14541.png"	n/a	"MullerLyer"	"arrowdown"	"1229"	"TRUE"	"MullerLyer"	"2.3000000000"	"-0.145410000"	"1"	"28"
n/a	"html-keyboard-response"	"73"	"338543"	"0.0-5.0-2.0-0.10"	"851x4m"	"600"	"1366"	"chrome"	"109.0.0"	"FALSE"	"Windows 10"	"60.93"	"152"	n/a	n/a	n/a	n/a	n/a	n/a	"fixation"	n/a	n/a	n/a	n/a	"NULL"	n/a	"NULL"	"NULL"	"NULL"	"<p style=\"color: black; font-size: 80px; padding-left: 8%; padding-right: 19%; padding-top: 31%; padding-bottom: 38%\">+</p>"	"1421"	n/a	n/a	n/a	n/a	n/a	n/a	n/a	n/a	n/a
n/a	"image-keyboard-response"	"74"	"339447"	"0.0-5.0-2.0-1.10"	"851x4m"	"600"	"1366"	"chrome"	"109.0.0"	"FALSE"	"Windows 10"	"60.93"	"152"	n/a	n/a	n/a	n/a	n/a	n/a	"Trial"	n/a	n/a	n/a	"903"	"arrowup"	n/a	"NULL"	"NULL"	"NULL"	"stimuli/MullerLyer_-2.3000_0.07627.png"	n/a	"MullerLyer"	"arrowup"	"1434"	"TRUE"	"MullerLyer"	"-2.300000000"	"0.0762700000"	"1"	"29"
n/a	"html-keyboard-response"	"75"	"340681"	"0.0-5.0-2.0-0.11"	"851x4m"	"600"	"1366"	"chrome"	"109.0.0"	"FALSE"	"Windows 10"	"60.93"	"152"	n/a	n/a	n/a	n/a	n/a	n/a	"fixation"	n/a	n/a	n/a	n/a	"NULL"	n/a	"NULL"	"NULL"	"NULL"	"<p style=\"color: black; font-size: 80px; padding-left: 44%; padding-right: 15%; padding-top: 8%; padding-bottom: 45%\">+</p>"	"1219"	n/a	n/a	n/a	n/a	n/a	n/a	n/a	n/a	n/a
n/a	"image-keyboard-response"	"76"	"341404"	"0.0-5.0-2.0-1.11"	"851x4m"	"600"	"1366"	"chrome"	"109.0.0"	"FALSE"	"Windows 10"	"60.93"	"152"	n/a	n/a	n/a	n/a	n/a	n/a	"Trial"	n/a	n/a	n/a	"721"	"arrowup"	n/a	"NULL"	"NULL"	"NULL"	"stimuli/MullerLyer_8.21429_0.35000.png"	n/a	"MullerLyer"	"arrowup"	"1234"	"TRUE"	"MullerLyer"	"8.2142900000"	"0.3500000000"	"1"	"30"
n/a	"html-keyboard-response"	"77"	"342517"	"0.0-5.0-2.0-0.12"	"851x4m"	"600"	"1366"	"chrome"	"109.0.0"	"FALSE"	"Windows 10"	"60.93"	"152"	n/a	n/a	n/a	n/a	n/a	n/a	"fixation"	n/a	n/a	n/a	n/a	"NULL"	n/a	"NULL"	"NULL"	"NULL"	"<p style=\"color: black; font-size: 80px; padding-left: 7%; padding-right: 4%; padding-top: 23%; padding-bottom: 33%\">+</p>"	"1111"	n/a	n/a	n/a	n/a	n/a	n/a	n/a	n/a	n/a
n/a	"image-keyboard-response"	"78"	"343181"	"0.0-5.0-2.0-1.12"	"851x4m"	"600"	"1366"	"chrome"	"109.0.0"	"FALSE"	"Windows 10"	"60.93"	"152"	n/a	n/a	n/a	n/a	n/a	n/a	"Trial"	n/a	n/a	n/a	"662"	"arrowup"	n/a	"NULL"	"NULL"	"NULL"	"stimuli/MullerLyer_-14.12857_0.35000.png"	n/a	"MullerLyer"	"arrowup"	"1113"	"TRUE"	"MullerLyer"	"-14.12857000"	"0.3500000000"	"1"	"31"
n/a	"html-keyboard-response"	"79"	"344430"	"0.0-5.0-2.0-0.13"	"851x4m"	"600"	"1366"	"chrome"	"109.0.0"	"FALSE"	"Windows 10"	"60.93"	"152"	n/a	n/a	n/a	n/a	n/a	n/a	"fixation"	n/a	n/a	n/a	n/a	"NULL"	n/a	"NULL"	"NULL"	"NULL"	"<p style=\"color: black; font-size: 80px; padding-left: 11%; padding-right: 29%; padding-top: 29%; padding-bottom: 40%\">+</p>"	"1237"	n/a	n/a	n/a	n/a	n/a	n/a	n/a	n/a	n/a
n/a	"image-keyboard-response"	"80"	"345034"	"0.0-5.0-2.0-1.13"	"851x4m"	"600"	"1366"	"chrome"	"109.0.0"	"FALSE"	"Windows 10"	"60.93"	"152"	n/a	n/a	n/a	n/a	n/a	n/a	"Trial"	n/a	n/a	n/a	"603"	"arrowdown"	n/a	"NULL"	"NULL"	"NULL"	"stimuli/MullerLyer_-14.12857_-0.3500.png"	n/a	"MullerLyer"	"arrowdown"	"1249"	"TRUE"	"MullerLyer"	"-14.12857000"	"-0.350000000"	"1"	"32"
n/a	"html-keyboard-response"	"81"	"346087"	"0.0-5.0-2.0-0.14"	"851x4m"	"600"	"1366"	"chrome"	"109.0.0"	"FALSE"	"Windows 10"	"60.93"	"152"	n/a	n/a	n/a	n/a	n/a	n/a	"fixation"	n/a	n/a	n/a	n/a	"NULL"	n/a	"NULL"	"NULL"	"NULL"	"<p style=\"color: black; font-size: 80px; padding-left: 42%; padding-right: 18%; padding-top: 25%; padding-bottom: 24%\">+</p>"	"1033"	n/a	n/a	n/a	n/a	n/a	n/a	n/a	n/a	n/a
n/a	"image-keyboard-response"	"82"	"347755"	"0.0-5.0-2.0-1.14"	"851x4m"	"600"	"1366"	"chrome"	"109.0.0"	"FALSE"	"Windows 10"	"60.93"	"152"	n/a	n/a	n/a	n/a	n/a	n/a	"Trial"	n/a	n/a	n/a	"1667"	"arrowdown"	n/a	"NULL"	"NULL"	"NULL"	"stimuli/MullerLyer_-2.3000_-0.07627.png"	n/a	"MullerLyer"	"arrowdown"	"1053"	"TRUE"	"MullerLyer"	"-2.300000000"	"-0.076270000"	"1"	"33"
n/a	"html-keyboard-response"	"83"	"348882"	"0.0-5.0-2.0-0.15"	"851x4m"	"600"	"1366"	"chrome"	"109.0.0"	"FALSE"	"Windows 10"	"60.93"	"152"	n/a	n/a	n/a	n/a	n/a	n/a	"fixation"	n/a	n/a	n/a	n/a	"NULL"	n/a	"NULL"	"NULL"	"NULL"	"<p style=\"color: black; font-size: 80px; padding-left: 49%; padding-right: 13%; padding-top: 6%; padding-bottom: 29%\">+</p>"	"1115"	n/a	n/a	n/a	n/a	n/a	n/a	n/a	n/a	n/a
n/a	"image-keyboard-response"	"84"	"349678"	"0.0-5.0-2.0-1.15"	"851x4m"	"600"	"1366"	"chrome"	"109.0.0"	"FALSE"	"Windows 10"	"60.93"	"152"	n/a	n/a	n/a	n/a	n/a	n/a	"Trial"	n/a	n/a	n/a	"795"	"arrowup"	n/a	"NULL"	"NULL"	"NULL"	"stimuli/MullerLyer_-14.12857_0.07627.png"	n/a	"MullerLyer"	"arrowup"	"1127"	"TRUE"	"MullerLyer"	"-14.12857000"	"0.0762700000"	"1"	"34"
n/a	"html-keyboard-response"	"85"	"350725"	"0.0-5.0-2.0-0.16"	"851x4m"	"600"	"1366"	"chrome"	"109.0.0"	"FALSE"	"Windows 10"	"60.93"	"152"	n/a	n/a	n/a	n/a	n/a	n/a	"fixation"	n/a	n/a	n/a	n/a	"NULL"	n/a	"NULL"	"NULL"	"NULL"	"<p style=\"color: black; font-size: 80px; padding-left: 23%; padding-right: 16%; padding-top: 29%; padding-bottom: 32%\">+</p>"	"1034"	n/a	n/a	n/a	n/a	n/a	n/a	n/a	n/a	n/a
n/a	"image-keyboard-response"	"86"	"352680"	"0.0-5.0-2.0-1.16"	"851x4m"	"600"	"1366"	"chrome"	"109.0.0"	"FALSE"	"Windows 10"	"60.93"	"152"	n/a	n/a	n/a	n/a	n/a	n/a	"Trial"	n/a	n/a	n/a	"1954"	"arrowdown"	n/a	"NULL"	"NULL"	"NULL"	"stimuli/MullerLyer_14.12857_-0.23665.png"	n/a	"MullerLyer"	"arrowdown"	"1047"	"TRUE"	"MullerLyer"	"14.128570000"	"-0.236650000"	"1"	"35"
n/a	"html-keyboard-response"	"87"	"353757"	"0.0-5.0-2.0-0.17"	"851x4m"	"600"	"1366"	"chrome"	"109.0.0"	"FALSE"	"Windows 10"	"60.93"	"152"	n/a	n/a	n/a	n/a	n/a	n/a	"fixation"	n/a	n/a	n/a	n/a	"NULL"	n/a	"NULL"	"NULL"	"NULL"	"<p style=\"color: black; font-size: 80px; padding-left: 5%; padding-right: 15%; padding-top: 18%; padding-bottom: 31%\">+</p>"	"1067"	n/a	n/a	n/a	n/a	n/a	n/a	n/a	n/a	n/a
n/a	"image-keyboard-response"	"88"	"354416"	"0.0-5.0-2.0-1.17"	"851x4m"	"600"	"1366"	"chrome"	"109.0.0"	"FALSE"	"Windows 10"	"60.93"	"152"	n/a	n/a	n/a	n/a	n/a	n/a	"Trial"	n/a	n/a	n/a	"648"	"arrowdown"	n/a	"NULL"	"NULL"	"NULL"	"stimuli/MullerLyer_-14.12857_-0.07627.png"	n/a	"MullerLyer"	"arrowdown"	"1077"	"TRUE"	"MullerLyer"	"-14.12857000"	"-0.076270000"	"1"	"36"
n/a	"html-keyboard-response"	"89"	"355658"	"0.0-5.0-2.0-0.18"	"851x4m"	"600"	"1366"	"chrome"	"109.0.0"	"FALSE"	"Windows 10"	"60.93"	"152"	n/a	n/a	n/a	n/a	n/a	n/a	"fixation"	n/a	n/a	n/a	n/a	"NULL"	n/a	"NULL"	"NULL"	"NULL"	"<p style=\"color: black; font-size: 80px; padding-left: 41%; padding-right: 49%; padding-top: 30%; padding-bottom: 37%\">+</p>"	"1223"	n/a	n/a	n/a	n/a	n/a	n/a	n/a	n/a	n/a
n/a	"image-keyboard-response"	"90"	"356965"	"0.0-5.0-2.0-1.18"	"851x4m"	"600"	"1366"	"chrome"	"109.0.0"	"FALSE"	"Windows 10"	"60.93"	"152"	n/a	n/a	n/a	n/a	n/a	n/a	"Trial"	n/a	n/a	n/a	"1305"	"arrowup"	n/a	"NULL"	"NULL"	"NULL"	"stimuli/MullerLyer_20.04286_0.35000.png"	n/a	"MullerLyer"	"arrowup"	"1242"	"TRUE"	"MullerLyer"	"20.042860000"	"0.3500000000"	"1"	"37"
n/a	"html-keyboard-response"	"91"	"358009"	"0.0-5.0-2.0-0.19"	"851x4m"	"600"	"1366"	"chrome"	"109.0.0"	"FALSE"	"Windows 10"	"60.93"	"152"	n/a	n/a	n/a	n/a	n/a	n/a	"fixation"	n/a	n/a	n/a	n/a	"NULL"	n/a	"NULL"	"NULL"	"NULL"	"<p style=\"color: black; font-size: 80px; padding-left: 15%; padding-right: 22%; padding-top: 24%; padding-bottom: 32%\">+</p>"	"1034"	n/a	n/a	n/a	n/a	n/a	n/a	n/a	n/a	n/a
n/a	"image-keyboard-response"	"92"	"358812"	"0.0-5.0-2.0-1.19"	"851x4m"	"600"	"1366"	"chrome"	"109.0.0"	"FALSE"	"Windows 10"	"60.93"	"152"	n/a	n/a	n/a	n/a	n/a	n/a	"Trial"	n/a	n/a	n/a	"801"	"arrowup"	n/a	"NULL"	"NULL"	"NULL"	"stimuli/MullerLyer_-14.12857_0.14541.png"	n/a	"MullerLyer"	"arrowup"	"1044"	"TRUE"	"MullerLyer"	"-14.12857000"	"0.1454100000"	"1"	"38"
n/a	"html-keyboard-response"	"93"	"360242"	"0.0-5.0-2.0-0.20"	"851x4m"	"600"	"1366"	"chrome"	"109.0.0"	"FALSE"	"Windows 10"	"60.93"	"152"	n/a	n/a	n/a	n/a	n/a	n/a	"fixation"	n/a	n/a	n/a	n/a	"NULL"	n/a	"NULL"	"NULL"	"NULL"	"<p style=\"color: black; font-size: 80px; padding-left: 47%; padding-right: 9%; padding-top: 38%; padding-bottom: 13%\">+</p>"	"1412"	n/a	n/a	n/a	n/a	n/a	n/a	n/a	n/a	n/a
n/a	"image-keyboard-response"	"94"	"361049"	"0.0-5.0-2.0-1.20"	"851x4m"	"600"	"1366"	"chrome"	"109.0.0"	"FALSE"	"Windows 10"	"60.93"	"152"	n/a	n/a	n/a	n/a	n/a	n/a	"Trial"	n/a	n/a	n/a	"806"	"arrowup"	n/a	"NULL"	"NULL"	"NULL"	"stimuli/MullerLyer_2.30000_0.14541.png"	n/a	"MullerLyer"	"arrowup"	"1430"	"TRUE"	"MullerLyer"	"2.3000000000"	"0.1454100000"	"1"	"39"
n/a	"html-keyboard-response"	"95"	"362296"	"0.0-5.0-2.0-0.21"	"851x4m"	"600"	"1366"	"chrome"	"109.0.0"	"FALSE"	"Windows 10"	"60.93"	"152"	n/a	n/a	n/a	n/a	n/a	n/a	"fixation"	n/a	n/a	n/a	n/a	"NULL"	n/a	"NULL"	"NULL"	"NULL"	"<p style=\"color: black; font-size: 80px; padding-left: 23%; padding-right: 37%; padding-top: 25%; padding-bottom: 6%\">+</p>"	"1240"	n/a	n/a	n/a	n/a	n/a	n/a	n/a	n/a	n/a
n/a	"image-keyboard-response"	"96"	"363006"	"0.0-5.0-2.0-1.21"	"851x4m"	"600"	"1366"	"chrome"	"109.0.0"	"FALSE"	"Windows 10"	"60.93"	"152"	n/a	n/a	n/a	n/a	n/a	n/a	"Trial"	n/a	n/a	n/a	"709"	"arrowdown"	n/a	"NULL"	"NULL"	"NULL"	"stimuli/MullerLyer_-2.3000_-0.23665.png"	n/a	"MullerLyer"	"arrowdown"	"1247"	"TRUE"	"MullerLyer"	"-2.300000000"	"-0.236650000"	"1"	"40"
n/a	"html-keyboard-response"	"97"	"364321"	"0.0-5.0-2.0-0.22"	"851x4m"	"600"	"1366"	"chrome"	"109.0.0"	"FALSE"	"Windows 10"	"60.93"	"152"	n/a	n/a	n/a	n/a	n/a	n/a	"fixation"	n/a	n/a	n/a	n/a	"NULL"	n/a	"NULL"	"NULL"	"NULL"	"<p style=\"color: black; font-size: 80px; padding-left: 45%; padding-right: 19%; padding-top: 48%; padding-bottom: 32%\">+</p>"	"1308"	n/a	n/a	n/a	n/a	n/a	n/a	n/a	n/a	n/a
n/a	"image-keyboard-response"	"98"	"364880"	"0.0-5.0-2.0-1.22"	"851x4m"	"600"	"1366"	"chrome"	"109.0.0"	"FALSE"	"Windows 10"	"60.93"	"152"	n/a	n/a	n/a	n/a	n/a	n/a	"Trial"	n/a	n/a	n/a	"558"	"arrowup"	n/a	"NULL"	"NULL"	"NULL"	"stimuli/MullerLyer_20.04286_-0.14541.png"	n/a	"MullerLyer"	"arrowdown"	"1315"	"FALSE"	"MullerLyer"	"20.042860000"	"-0.145410000"	"1"	"41"
n/a	"html-keyboard-response"	"99"	"366208"	"0.0-5.0-2.0-0.23"	"851x4m"	"600"	"1366"	"chrome"	"109.0.0"	"FALSE"	"Windows 10"	"60.93"	"152"	n/a	n/a	n/a	n/a	n/a	n/a	"fixation"	n/a	n/a	n/a	n/a	"NULL"	n/a	"NULL"	"NULL"	"NULL"	"<p style=\"color: black; font-size: 80px; padding-left: 45%; padding-right: 24%; padding-top: 25%; padding-bottom: 26%\">+</p>"	"1321"	n/a	n/a	n/a	n/a	n/a	n/a	n/a	n/a	n/a
n/a	"image-keyboard-response"	"100"	"366843"	"0.0-5.0-2.0-1.23"	"851x4m"	"600"	"1366"	"chrome"	"109.0.0"	"FALSE"	"Windows 10"	"60.93"	"152"	n/a	n/a	n/a	n/a	n/a	n/a	"Trial"	n/a	n/a	n/a	"633"	"arrowdown"	n/a	"NULL"	"NULL"	"NULL"	"stimuli/MullerLyer_-8.21429_-0.23665.png"	n/a	"MullerLyer"	"arrowdown"	"1328"	"TRUE"	"MullerLyer"	"-8.214290000"	"-0.236650000"	"1"	"42"
n/a	"html-keyboard-response"	"101"	"368081"	"0.0-5.0-2.0-0.24"	"851x4m"	"600"	"1366"	"chrome"	"109.0.0"	"FALSE"	"Windows 10"	"60.93"	"152"	n/a	n/a	n/a	n/a	n/a	n/a	"fixation"	n/a	n/a	n/a	n/a	"NULL"	n/a	"NULL"	"NULL"	"NULL"	"<p style=\"color: black; font-size: 80px; padding-left: 28%; padding-right: 13%; padding-top: 22%; padding-bottom: 16%\">+</p>"	"1226"	n/a	n/a	n/a	n/a	n/a	n/a	n/a	n/a	n/a
n/a	"image-keyboard-response"	"102"	"368665"	"0.0-5.0-2.0-1.24"	"851x4m"	"600"	"1366"	"chrome"	"109.0.0"	"FALSE"	"Windows 10"	"60.93"	"152"	n/a	n/a	n/a	n/a	n/a	n/a	"Trial"	n/a	n/a	n/a	"583"	"arrowup"	n/a	"NULL"	"NULL"	"NULL"	"stimuli/MullerLyer_20.04286_-0.07627.png"	n/a	"MullerLyer"	"arrowdown"	"1238"	"FALSE"	"MullerLyer"	"20.042860000"	"-0.076270000"	"1"	"43"
n/a	"html-keyboard-response"	"103"	"369946"	"0.0-5.0-2.0-0.25"	"851x4m"	"600"	"1366"	"chrome"	"109.0.0"	"FALSE"	"Windows 10"	"60.93"	"152"	n/a	n/a	n/a	n/a	n/a	n/a	"fixation"	n/a	n/a	n/a	n/a	"NULL"	n/a	"NULL"	"NULL"	"NULL"	"<p style=\"color: black; font-size: 80px; padding-left: 29%; padding-right: 33%; padding-top: 16%; padding-bottom: 21%\">+</p>"	"1264"	n/a	n/a	n/a	n/a	n/a	n/a	n/a	n/a	n/a
n/a	"image-keyboard-response"	"104"	"370900"	"0.0-5.0-2.0-1.25"	"851x4m"	"600"	"1366"	"chrome"	"109.0.0"	"FALSE"	"Windows 10"	"60.93"	"152"	n/a	n/a	n/a	n/a	n/a	n/a	"Trial"	n/a	n/a	n/a	"954"	"arrowup"	n/a	"NULL"	"NULL"	"NULL"	"stimuli/MullerLyer_-8.21429_0.14541.png"	n/a	"MullerLyer"	"arrowup"	"1281"	"TRUE"	"MullerLyer"	"-8.214290000"	"0.1454100000"	"1"	"44"
n/a	"html-keyboard-response"	"105"	"372194"	"0.0-5.0-2.0-0.26"	"851x4m"	"600"	"1366"	"chrome"	"109.0.0"	"FALSE"	"Windows 10"	"60.93"	"152"	n/a	n/a	n/a	n/a	n/a	n/a	"fixation"	n/a	n/a	n/a	n/a	"NULL"	n/a	"NULL"	"NULL"	"NULL"	"<p style=\"color: black; font-size: 80px; padding-left: 37%; padding-right: 23%; padding-top: 2%; padding-bottom: 27%\">+</p>"	"1286"	n/a	n/a	n/a	n/a	n/a	n/a	n/a	n/a	n/a
n/a	"image-keyboard-response"	"106"	"372788"	"0.0-5.0-2.0-1.26"	"851x4m"	"600"	"1366"	"chrome"	"109.0.0"	"FALSE"	"Windows 10"	"60.93"	"152"	n/a	n/a	n/a	n/a	n/a	n/a	"Trial"	n/a	n/a	n/a	"591"	"arrowdown"	n/a	"NULL"	"NULL"	"NULL"	"stimuli/MullerLyer_-14.12857_-0.14541.png"	n/a	"MullerLyer"	"arrowdown"	"1294"	"TRUE"	"MullerLyer"	"-14.12857000"	"-0.145410000"	"1"	"45"
n/a	"html-keyboard-response"	"107"	"373989"	"0.0-5.0-2.0-0.27"	"851x4m"	"600"	"1366"	"chrome"	"109.0.0"	"FALSE"	"Windows 10"	"60.93"	"152"	n/a	n/a	n/a	n/a	n/a	n/a	"fixation"	n/a	n/a	n/a	n/a	"NULL"	n/a	"NULL"	"NULL"	"NULL"	"<p style=\"color: black; font-size: 80px; padding-left: 41%; padding-right: 7%; padding-top: 49%; padding-bottom: 20%\">+</p>"	"1196"	n/a	n/a	n/a	n/a	n/a	n/a	n/a	n/a	n/a
n/a	"image-keyboard-response"	"108"	"374521"	"0.0-5.0-2.0-1.27"	"851x4m"	"600"	"1366"	"chrome"	"109.0.0"	"FALSE"	"Windows 10"	"60.93"	"152"	n/a	n/a	n/a	n/a	n/a	n/a	"Trial"	n/a	n/a	n/a	"530"	"arrowup"	n/a	"NULL"	"NULL"	"NULL"	"stimuli/MullerLyer_-2.3000_0.35000.png"	n/a	"MullerLyer"	"arrowup"	"1201"	"TRUE"	"MullerLyer"	"-2.300000000"	"0.3500000000"	"1"	"46"
n/a	"html-keyboard-response"	"109"	"375614"	"0.0-5.0-2.0-0.28"	"851x4m"	"600"	"1366"	"chrome"	"109.0.0"	"FALSE"	"Windows 10"	"60.93"	"152"	n/a	n/a	n/a	n/a	n/a	n/a	"fixation"	n/a	n/a	n/a	n/a	"NULL"	n/a	"NULL"	"NULL"	"NULL"	"<p style=\"color: black; font-size: 80px; padding-left: 29%; padding-right: 8%; padding-top: 34%; padding-bottom: 41%\">+</p>"	"1089"	n/a	n/a	n/a	n/a	n/a	n/a	n/a	n/a	n/a
n/a	"image-keyboard-response"	"110"	"377878"	"0.0-5.0-2.0-1.28"	"851x4m"	"600"	"1366"	"chrome"	"109.0.0"	"FALSE"	"Windows 10"	"60.93"	"152"	n/a	n/a	n/a	n/a	n/a	n/a	"Trial"	n/a	n/a	n/a	"2263"	"arrowup"	n/a	"NULL"	"NULL"	"NULL"	"stimuli/MullerLyer_14.12857_0.23665.png"	n/a	"MullerLyer"	"arrowup"	"1093"	"TRUE"	"MullerLyer"	"14.128570000"	"0.2366500000"	"1"	"47"
n/a	"html-keyboard-response"	"111"	"379062"	"0.0-5.0-2.0-0.29"	"851x4m"	"600"	"1366"	"chrome"	"109.0.0"	"FALSE"	"Windows 10"	"60.93"	"152"	n/a	n/a	n/a	n/a	n/a	n/a	"fixation"	n/a	n/a	n/a	n/a	"NULL"	n/a	"NULL"	"NULL"	"NULL"	"<p style=\"color: black; font-size: 80px; padding-left: 25%; padding-right: 17%; padding-top: 32%; padding-bottom: 46%\">+</p>"	"1169"	n/a	n/a	n/a	n/a	n/a	n/a	n/a	n/a	n/a
n/a	"image-keyboard-response"	"112"	"380598"	"0.0-5.0-2.0-1.29"	"851x4m"	"600"	"1366"	"chrome"	"109.0.0"	"FALSE"	"Windows 10"	"60.93"	"152"	n/a	n/a	n/a	n/a	n/a	n/a	"Trial"	n/a	n/a	n/a	"1535"	"arrowdown"	n/a	"NULL"	"NULL"	"NULL"	"stimuli/MullerLyer_8.21429_-0.14541.png"	n/a	"MullerLyer"	"arrowdown"	"1184"	"TRUE"	"MullerLyer"	"8.2142900000"	"-0.145410000"	"1"	"48"
n/a	"html-keyboard-response"	"113"	"381842"	"0.0-5.0-2.0-0.30"	"851x4m"	"600"	"1366"	"chrome"	"109.0.0"	"FALSE"	"Windows 10"	"60.93"	"152"	n/a	n/a	n/a	n/a	n/a	n/a	"fixation"	n/a	n/a	n/a	n/a	"NULL"	n/a	"NULL"	"NULL"	"NULL"	"<p style=\"color: black; font-size: 80px; padding-left: 46%; padding-right: 18%; padding-top: 11%; padding-bottom: 37%\">+</p>"	"1230"	n/a	n/a	n/a	n/a	n/a	n/a	n/a	n/a	n/a
n/a	"image-keyboard-response"	"114"	"382430"	"0.0-5.0-2.0-1.30"	"851x4m"	"600"	"1366"	"chrome"	"109.0.0"	"FALSE"	"Windows 10"	"60.93"	"152"	n/a	n/a	n/a	n/a	n/a	n/a	"Trial"	n/a	n/a	n/a	"587"	"arrowdown"	n/a	"NULL"	"NULL"	"NULL"	"stimuli/MullerLyer_-20.04286_-0.07627.png"	n/a	"MullerLyer"	"arrowdown"	"1244"	"TRUE"	"MullerLyer"	"-20.04286000"	"-0.076270000"	"1"	"49"
n/a	"html-keyboard-response"	"115"	"383590"	"0.0-5.0-2.0-0.31"	"851x4m"	"600"	"1366"	"chrome"	"109.0.0"	"FALSE"	"Windows 10"	"60.93"	"152"	n/a	n/a	n/a	n/a	n/a	n/a	"fixation"	n/a	n/a	n/a	n/a	"NULL"	n/a	"NULL"	"NULL"	"NULL"	"<p style=\"color: black; font-size: 80px; padding-left: 15%; padding-right: 45%; padding-top: 22%; padding-bottom: 25%\">+</p>"	"1153"	n/a	n/a	n/a	n/a	n/a	n/a	n/a	n/a	n/a
n/a	"image-keyboard-response"	"116"	"384109"	"0.0-5.0-2.0-1.31"	"851x4m"	"600"	"1366"	"chrome"	"109.0.0"	"FALSE"	"Windows 10"	"60.93"	"152"	n/a	n/a	n/a	n/a	n/a	n/a	"Trial"	n/a	n/a	n/a	"518"	"arrowup"	n/a	"NULL"	"NULL"	"NULL"	"stimuli/MullerLyer_-20.04286_0.23665.png"	n/a	"MullerLyer"	"arrowup"	"1160"	"TRUE"	"MullerLyer"	"-20.04286000"	"0.2366500000"	"1"	"50"
n/a	"html-keyboard-response"	"117"	"385319"	"0.0-5.0-2.0-0.32"	"851x4m"	"600"	"1366"	"chrome"	"109.0.0"	"FALSE"	"Windows 10"	"60.93"	"152"	n/a	n/a	n/a	n/a	n/a	n/a	"fixation"	n/a	n/a	n/a	n/a	"NULL"	n/a	"NULL"	"NULL"	"NULL"	"<p style=\"color: black; font-size: 80px; padding-left: 28%; padding-right: 47%; padding-top: 23%; padding-bottom: 8%\">+</p>"	"1204"	n/a	n/a	n/a	n/a	n/a	n/a	n/a	n/a	n/a
n/a	"image-keyboard-response"	"118"	"386300"	"0.0-5.0-2.0-1.32"	"851x4m"	"600"	"1366"	"chrome"	"109.0.0"	"FALSE"	"Windows 10"	"60.93"	"152"	n/a	n/a	n/a	n/a	n/a	n/a	"Trial"	n/a	n/a	n/a	"980"	"arrowdown"	n/a	"NULL"	"NULL"	"NULL"	"stimuli/MullerLyer_2.30000_-0.07627.png"	n/a	"MullerLyer"	"arrowdown"	"1210"	"TRUE"	"MullerLyer"	"2.3000000000"	"-0.076270000"	"1"	"51"
n/a	"html-keyboard-response"	"119"	"387819"	"0.0-5.0-2.0-0.33"	"851x4m"	"600"	"1366"	"chrome"	"109.0.0"	"FALSE"	"Windows 10"	"60.93"	"152"	n/a	n/a	n/a	n/a	n/a	n/a	"fixation"	n/a	n/a	n/a	n/a	"NULL"	n/a	"NULL"	"NULL"	"NULL"	"<p style=\"color: black; font-size: 80px; padding-left: 9%; padding-right: 18%; padding-top: 48%; padding-bottom: 37%\">+</p>"	"1498"	n/a	n/a	n/a	n/a	n/a	n/a	n/a	n/a	n/a
n/a	"image-keyboard-response"	"120"	"388369"	"0.0-5.0-2.0-1.33"	"851x4m"	"600"	"1366"	"chrome"	"109.0.0"	"FALSE"	"Windows 10"	"60.93"	"152"	n/a	n/a	n/a	n/a	n/a	n/a	"Trial"	n/a	n/a	n/a	"549"	"arrowup"	n/a	"NULL"	"NULL"	"NULL"	"stimuli/MullerLyer_-14.12857_0.23665.png"	n/a	"MullerLyer"	"arrowup"	"1519"	"TRUE"	"MullerLyer"	"-14.12857000"	"0.2366500000"	"1"	"52"
n/a	"html-keyboard-response"	"121"	"389707"	"0.0-5.0-2.0-0.34"	"851x4m"	"600"	"1366"	"chrome"	"109.0.0"	"FALSE"	"Windows 10"	"60.93"	"152"	n/a	n/a	n/a	n/a	n/a	n/a	"fixation"	n/a	n/a	n/a	n/a	"NULL"	n/a	"NULL"	"NULL"	"NULL"	"<p style=\"color: black; font-size: 80px; padding-left: 17%; padding-right: 17%; padding-top: 48%; padding-bottom: 40%\">+</p>"	"1315"	n/a	n/a	n/a	n/a	n/a	n/a	n/a	n/a	n/a
n/a	"image-keyboard-response"	"122"	"390318"	"0.0-5.0-2.0-1.34"	"851x4m"	"600"	"1366"	"chrome"	"109.0.0"	"FALSE"	"Windows 10"	"60.93"	"152"	n/a	n/a	n/a	n/a	n/a	n/a	"Trial"	n/a	n/a	n/a	"611"	"arrowdown"	n/a	"NULL"	"NULL"	"NULL"	"stimuli/MullerLyer_20.04286_0.23665.png"	n/a	"MullerLyer"	"arrowup"	"1338"	"FALSE"	"MullerLyer"	"20.042860000"	"0.2366500000"	"1"	"53"
n/a	"html-keyboard-response"	"123"	"391705"	"0.0-5.0-2.0-0.35"	"851x4m"	"600"	"1366"	"chrome"	"109.0.0"	"FALSE"	"Windows 10"	"60.93"	"152"	n/a	n/a	n/a	n/a	n/a	n/a	"fixation"	n/a	n/a	n/a	n/a	"NULL"	n/a	"NULL"	"NULL"	"NULL"	"<p style=\"color: black; font-size: 80px; padding-left: 6%; padding-right: 5%; padding-top: 27%; padding-bottom: 16%\">+</p>"	"1366"	n/a	n/a	n/a	n/a	n/a	n/a	n/a	n/a	n/a
n/a	"image-keyboard-response"	"124"	"393122"	"0.0-5.0-2.0-1.35"	"851x4m"	"600"	"1366"	"chrome"	"109.0.0"	"FALSE"	"Windows 10"	"60.93"	"152"	n/a	n/a	n/a	n/a	n/a	n/a	"Trial"	n/a	n/a	n/a	"1416"	"arrowdown"	n/a	"NULL"	"NULL"	"NULL"	"stimuli/MullerLyer_20.04286_-0.3500.png"	n/a	"MullerLyer"	"arrowdown"	"1387"	"TRUE"	"MullerLyer"	"20.042860000"	"-0.350000000"	"1"	"54"
n/a	"html-keyboard-response"	"125"	"394258"	"0.0-5.0-2.0-0.36"	"851x4m"	"600"	"1366"	"chrome"	"109.0.0"	"FALSE"	"Windows 10"	"60.93"	"152"	n/a	n/a	n/a	n/a	n/a	n/a	"fixation"	n/a	n/a	n/a	n/a	"NULL"	n/a	"NULL"	"NULL"	"NULL"	"<p style=\"color: black; font-size: 80px; padding-left: 3%; padding-right: 39%; padding-top: 13%; padding-bottom: 7%\">+</p>"	"1116"	n/a	n/a	n/a	n/a	n/a	n/a	n/a	n/a	n/a
n/a	"image-keyboard-response"	"126"	"396129"	"0.0-5.0-2.0-1.36"	"851x4m"	"600"	"1366"	"chrome"	"109.0.0"	"FALSE"	"Windows 10"	"60.93"	"152"	n/a	n/a	n/a	n/a	n/a	n/a	"Trial"	n/a	n/a	n/a	"1870"	"arrowdown"	n/a	"NULL"	"NULL"	"NULL"	"stimuli/MullerLyer_14.12857_0.14541.png"	n/a	"MullerLyer"	"arrowup"	"1136"	"FALSE"	"MullerLyer"	"14.128570000"	"0.1454100000"	"1"	"55"
n/a	"html-keyboard-response"	"127"	"397237"	"0.0-5.0-2.0-0.37"	"851x4m"	"600"	"1366"	"chrome"	"109.0.0"	"FALSE"	"Windows 10"	"60.93"	"152"	n/a	n/a	n/a	n/a	n/a	n/a	"fixation"	n/a	n/a	n/a	n/a	"NULL"	n/a	"NULL"	"NULL"	"NULL"	"<p style=\"color: black; font-size: 80px; padding-left: 45%; padding-right: 2%; padding-top: 40%; padding-bottom: 40%\">+</p>"	"1100"	n/a	n/a	n/a	n/a	n/a	n/a	n/a	n/a	n/a
n/a	"image-keyboard-response"	"128"	"398083"	"0.0-5.0-2.0-1.37"	"851x4m"	"600"	"1366"	"chrome"	"109.0.0"	"FALSE"	"Windows 10"	"60.93"	"152"	n/a	n/a	n/a	n/a	n/a	n/a	"Trial"	n/a	n/a	n/a	"845"	"arrowdown"	n/a	"NULL"	"NULL"	"NULL"	"stimuli/MullerLyer_2.30000_-0.23665.png"	n/a	"MullerLyer"	"arrowdown"	"1108"	"TRUE"	"MullerLyer"	"2.3000000000"	"-0.236650000"	"1"	"56"
n/a	"html-keyboard-response"	"129"	"399234"	"0.0-5.0-2.0-0.38"	"851x4m"	"600"	"1366"	"chrome"	"109.0.0"	"FALSE"	"Windows 10"	"60.93"	"152"	n/a	n/a	n/a	n/a	n/a	n/a	"fixation"	n/a	n/a	n/a	n/a	"NULL"	n/a	"NULL"	"NULL"	"NULL"	"<p style=\"color: black; font-size: 80px; padding-left: 40%; padding-right: 16%; padding-top: 18%; padding-bottom: 43%\">+</p>"	"1136"	n/a	n/a	n/a	n/a	n/a	n/a	n/a	n/a	n/a
n/a	"image-keyboard-response"	"130"	"399844"	"0.0-5.0-2.0-1.38"	"851x4m"	"600"	"1366"	"chrome"	"109.0.0"	"FALSE"	"Windows 10"	"60.93"	"152"	n/a	n/a	n/a	n/a	n/a	n/a	"Trial"	n/a	n/a	n/a	"609"	"arrowup"	n/a	"NULL"	"NULL"	"NULL"	"stimuli/MullerLyer_20.04286_-0.23665.png"	n/a	"MullerLyer"	"arrowdown"	"1151"	"FALSE"	"MullerLyer"	"20.042860000"	"-0.236650000"	"1"	"57"
n/a	"html-keyboard-response"	"131"	"400948"	"0.0-5.0-2.0-0.39"	"851x4m"	"600"	"1366"	"chrome"	"109.0.0"	"FALSE"	"Windows 10"	"60.93"	"152"	n/a	n/a	n/a	n/a	n/a	n/a	"fixation"	n/a	n/a	n/a	n/a	"NULL"	n/a	"NULL"	"NULL"	"NULL"	"<p style=\"color: black; font-size: 80px; padding-left: 23%; padding-right: 38%; padding-top: 7%; padding-bottom: 5%\">+</p>"	"1090"	n/a	n/a	n/a	n/a	n/a	n/a	n/a	n/a	n/a
n/a	"image-keyboard-response"	"132"	"401969"	"0.0-5.0-2.0-1.39"	"851x4m"	"600"	"1366"	"chrome"	"109.0.0"	"FALSE"	"Windows 10"	"60.93"	"152"	n/a	n/a	n/a	n/a	n/a	n/a	"Trial"	n/a	n/a	n/a	"1016"	"arrowup"	n/a	"NULL"	"NULL"	"NULL"	"stimuli/MullerLyer_14.12857_-0.07627.png"	n/a	"MullerLyer"	"arrowdown"	"1104"	"FALSE"	"MullerLyer"	"14.128570000"	"-0.076270000"	"1"	"58"
n/a	"html-keyboard-response"	"133"	"403457"	"0.0-5.0-2.0-0.40"	"851x4m"	"600"	"1366"	"chrome"	"109.0.0"	"FALSE"	"Windows 10"	"60.93"	"152"	n/a	n/a	n/a	n/a	n/a	n/a	"fixation"	n/a	n/a	n/a	n/a	"NULL"	n/a	"NULL"	"NULL"	"NULL"	"<p style=\"color: black; font-size: 80px; padding-left: 46%; padding-right: 1%; padding-top: 21%; padding-bottom: 11%\">+</p>"	"1472"	n/a	n/a	n/a	n/a	n/a	n/a	n/a	n/a	n/a
n/a	"image-keyboard-response"	"134"	"405090"	"0.0-5.0-2.0-1.40"	"851x4m"	"600"	"1366"	"chrome"	"109.0.0"	"FALSE"	"Windows 10"	"60.93"	"152"	n/a	n/a	n/a	n/a	n/a	n/a	"Trial"	n/a	n/a	n/a	"1631"	"arrowdown"	n/a	"NULL"	"NULL"	"NULL"	"stimuli/MullerLyer_14.12857_0.07627.png"	n/a	"MullerLyer"	"arrowup"	"1488"	"FALSE"	"MullerLyer"	"14.128570000"	"0.0762700000"	"1"	"59"
n/a	"html-keyboard-response"	"135"	"406194"	"0.0-5.0-2.0-0.41"	"851x4m"	"600"	"1366"	"chrome"	"109.0.0"	"FALSE"	"Windows 10"	"60.93"	"152"	n/a	n/a	n/a	n/a	n/a	n/a	"fixation"	n/a	n/a	n/a	n/a	"NULL"	n/a	"NULL"	"NULL"	"NULL"	"<p style=\"color: black; font-size: 80px; padding-left: 16%; padding-right: 15%; padding-top: 4%; padding-bottom: 32%\">+</p>"	"1088"	n/a	n/a	n/a	n/a	n/a	n/a	n/a	n/a	n/a
n/a	"image-keyboard-response"	"136"	"406852"	"0.0-5.0-2.0-1.41"	"851x4m"	"600"	"1366"	"chrome"	"109.0.0"	"FALSE"	"Windows 10"	"60.93"	"152"	n/a	n/a	n/a	n/a	n/a	n/a	"Trial"	n/a	n/a	n/a	"657"	"arrowdown"	n/a	"NULL"	"NULL"	"NULL"	"stimuli/MullerLyer_-20.04286_-0.3500.png"	n/a	"MullerLyer"	"arrowdown"	"1104"	"TRUE"	"MullerLyer"	"-20.04286000"	"-0.350000000"	"1"	"60"
n/a	"html-keyboard-response"	"137"	"408225"	"0.0-5.0-2.0-0.42"	"851x4m"	"600"	"1366"	"chrome"	"109.0.0"	"FALSE"	"Windows 10"	"60.93"	"152"	n/a	n/a	n/a	n/a	n/a	n/a	"fixation"	n/a	n/a	n/a	n/a	"NULL"	n/a	"NULL"	"NULL"	"NULL"	"<p style=\"color: black; font-size: 80px; padding-left: 26%; padding-right: 18%; padding-top: 22%; padding-bottom: 26%\">+</p>"	"1357"	n/a	n/a	n/a	n/a	n/a	n/a	n/a	n/a	n/a
n/a	"image-keyboard-response"	"138"	"409381"	"0.0-5.0-2.0-1.42"	"851x4m"	"600"	"1366"	"chrome"	"109.0.0"	"FALSE"	"Windows 10"	"60.93"	"152"	n/a	n/a	n/a	n/a	n/a	n/a	"Trial"	n/a	n/a	n/a	"1155"	"arrowup"	n/a	"NULL"	"NULL"	"NULL"	"stimuli/MullerLyer_14.12857_0.35000.png"	n/a	"MullerLyer"	"arrowup"	"1373"	"TRUE"	"MullerLyer"	"14.128570000"	"0.3500000000"	"1"	"61"
n/a	"html-keyboard-response"	"139"	"410498"	"0.0-5.0-2.0-0.43"	"851x4m"	"600"	"1366"	"chrome"	"109.0.0"	"FALSE"	"Windows 10"	"60.93"	"152"	n/a	n/a	n/a	n/a	n/a	n/a	"fixation"	n/a	n/a	n/a	n/a	"NULL"	n/a	"NULL"	"NULL"	"NULL"	"<p style=\"color: black; font-size: 80px; padding-left: 0%; padding-right: 11%; padding-top: 14%; padding-bottom: 24%\">+</p>"	"1110"	n/a	n/a	n/a	n/a	n/a	n/a	n/a	n/a	n/a
n/a	"image-keyboard-response"	"140"	"412504"	"0.0-5.0-2.0-1.43"	"851x4m"	"600"	"1366"	"chrome"	"109.0.0"	"FALSE"	"Windows 10"	"60.93"	"152"	n/a	n/a	n/a	n/a	n/a	n/a	"Trial"	n/a	n/a	n/a	"2005"	"arrowdown"	n/a	"NULL"	"NULL"	"NULL"	"stimuli/MullerLyer_20.04286_0.14541.png"	n/a	"MullerLyer"	"arrowup"	"1117"	"FALSE"	"MullerLyer"	"20.042860000"	"0.1454100000"	"1"	"62"
n/a	"html-keyboard-response"	"141"	"413702"	"0.0-5.0-2.0-0.44"	"851x4m"	"600"	"1366"	"chrome"	"109.0.0"	"FALSE"	"Windows 10"	"60.93"	"152"	n/a	n/a	n/a	n/a	n/a	n/a	"fixation"	n/a	n/a	n/a	n/a	"NULL"	n/a	"NULL"	"NULL"	"NULL"	"<p style=\"color: black; font-size: 80px; padding-left: 36%; padding-right: 14%; padding-top: 3%; padding-bottom: 4%\">+</p>"	"1186"	n/a	n/a	n/a	n/a	n/a	n/a	n/a	n/a	n/a
n/a	"image-keyboard-response"	"142"	"414304"	"0.0-5.0-2.0-1.44"	"851x4m"	"600"	"1366"	"chrome"	"109.0.0"	"FALSE"	"Windows 10"	"60.93"	"152"	n/a	n/a	n/a	n/a	n/a	n/a	"Trial"	n/a	n/a	n/a	"601"	"arrowdown"	n/a	"NULL"	"NULL"	"NULL"	"stimuli/MullerLyer_-20.04286_-0.14541.png"	n/a	"MullerLyer"	"arrowdown"	"1198"	"TRUE"	"MullerLyer"	"-20.04286000"	"-0.145410000"	"1"	"63"
n/a	"html-keyboard-response"	"143"	"415430"	"0.0-5.0-2.0-0.45"	"851x4m"	"600"	"1366"	"chrome"	"109.0.0"	"FALSE"	"Windows 10"	"60.93"	"152"	n/a	n/a	n/a	n/a	n/a	n/a	"fixation"	n/a	n/a	n/a	n/a	"NULL"	n/a	"NULL"	"NULL"	"NULL"	"<p style=\"color: black; font-size: 80px; padding-left: 44%; padding-right: 39%; padding-top: 7%; padding-bottom: 8%\">+</p>"	"1111"	n/a	n/a	n/a	n/a	n/a	n/a	n/a	n/a	n/a
n/a	"image-keyboard-response"	"144"	"416000"	"0.0-5.0-2.0-1.45"	"851x4m"	"600"	"1366"	"chrome"	"109.0.0"	"FALSE"	"Windows 10"	"60.93"	"152"	n/a	n/a	n/a	n/a	n/a	n/a	"Trial"	n/a	n/a	n/a	"569"	"arrowdown"	n/a	"NULL"	"NULL"	"NULL"	"stimuli/MullerLyer_-2.3000_-0.3500.png"	n/a	"MullerLyer"	"arrowdown"	"1126"	"TRUE"	"MullerLyer"	"-2.300000000"	"-0.350000000"	"1"	"64"
n/a	"html-keyboard-response"	"145"	"417427"	"0.0-5.0-2.0-0.46"	"851x4m"	"600"	"1366"	"chrome"	"109.0.0"	"FALSE"	"Windows 10"	"60.93"	"152"	n/a	n/a	n/a	n/a	n/a	n/a	"fixation"	n/a	n/a	n/a	n/a	"NULL"	n/a	"NULL"	"NULL"	"NULL"	"<p style=\"color: black; font-size: 80px; padding-left: 14%; padding-right: 26%; padding-top: 41%; padding-bottom: 46%\">+</p>"	"1419"	n/a	n/a	n/a	n/a	n/a	n/a	n/a	n/a	n/a
n/a	"image-keyboard-response"	"146"	"418119"	"0.0-5.0-2.0-1.46"	"851x4m"	"600"	"1366"	"chrome"	"109.0.0"	"FALSE"	"Windows 10"	"60.93"	"152"	n/a	n/a	n/a	n/a	n/a	n/a	"Trial"	n/a	n/a	n/a	"691"	"arrowdown"	n/a	"NULL"	"NULL"	"NULL"	"stimuli/MullerLyer_8.21429_-0.3500.png"	n/a	"MullerLyer"	"arrowdown"	"1427"	"TRUE"	"MullerLyer"	"8.2142900000"	"-0.350000000"	"1"	"65"
n/a	"html-keyboard-response"	"147"	"419633"	"0.0-5.0-2.0-0.47"	"851x4m"	"600"	"1366"	"chrome"	"109.0.0"	"FALSE"	"Windows 10"	"60.93"	"152"	n/a	n/a	n/a	n/a	n/a	n/a	"fixation"	n/a	n/a	n/a	n/a	"NULL"	n/a	"NULL"	"NULL"	"NULL"	"<p style=\"color: black; font-size: 80px; padding-left: 27%; padding-right: 9%; padding-top: 37%; padding-bottom: 12%\">+</p>"	"1495"	n/a	n/a	n/a	n/a	n/a	n/a	n/a	n/a	n/a
n/a	"image-keyboard-response"	"148"	"420199"	"0.0-5.0-2.0-1.47"	"851x4m"	"600"	"1366"	"chrome"	"109.0.0"	"FALSE"	"Windows 10"	"60.93"	"152"	n/a	n/a	n/a	n/a	n/a	n/a	"Trial"	n/a	n/a	n/a	"565"	"arrowup"	n/a	"NULL"	"NULL"	"NULL"	"stimuli/MullerLyer_-20.04286_0.14541.png"	n/a	"MullerLyer"	"arrowup"	"1514"	"TRUE"	"MullerLyer"	"-20.04286000"	"0.1454100000"	"1"	"66"
n/a	"html-keyboard-response"	"149"	"421363"	"0.0-5.0-2.0-0.48"	"851x4m"	"600"	"1366"	"chrome"	"109.0.0"	"FALSE"	"Windows 10"	"60.93"	"152"	n/a	n/a	n/a	n/a	n/a	n/a	"fixation"	n/a	n/a	n/a	n/a	"NULL"	n/a	"NULL"	"NULL"	"NULL"	"<p style=\"color: black; font-size: 80px; padding-left: 34%; padding-right: 39%; padding-top: 17%; padding-bottom: 24%\">+</p>"	"1146"	n/a	n/a	n/a	n/a	n/a	n/a	n/a	n/a	n/a
n/a	"image-keyboard-response"	"150"	"422043"	"0.0-5.0-2.0-1.48"	"851x4m"	"600"	"1366"	"chrome"	"109.0.0"	"FALSE"	"Windows 10"	"60.93"	"152"	n/a	n/a	n/a	n/a	n/a	n/a	"Trial"	n/a	n/a	n/a	"678"	"arrowdown"	n/a	"NULL"	"NULL"	"NULL"	"stimuli/MullerLyer_-20.04286_-0.23665.png"	n/a	"MullerLyer"	"arrowdown"	"1164"	"TRUE"	"MullerLyer"	"-20.04286000"	"-0.236650000"	"1"	"67"
n/a	"html-keyboard-response"	"151"	"423180"	"0.0-5.0-2.0-0.49"	"851x4m"	"600"	"1366"	"chrome"	"109.0.0"	"FALSE"	"Windows 10"	"60.93"	"152"	n/a	n/a	n/a	n/a	n/a	n/a	"fixation"	n/a	n/a	n/a	n/a	"NULL"	n/a	"NULL"	"NULL"	"NULL"	"<p style=\"color: black; font-size: 80px; padding-left: 0%; padding-right: 41%; padding-top: 6%; padding-bottom: 40%\">+</p>"	"1125"	n/a	n/a	n/a	n/a	n/a	n/a	n/a	n/a	n/a
n/a	"image-keyboard-response"	"152"	"423791"	"0.0-5.0-2.0-1.49"	"851x4m"	"600"	"1366"	"chrome"	"109.0.0"	"FALSE"	"Windows 10"	"60.93"	"152"	n/a	n/a	n/a	n/a	n/a	n/a	"Trial"	n/a	n/a	n/a	"610"	"arrowup"	n/a	"NULL"	"NULL"	"NULL"	"stimuli/MullerLyer_-20.04286_0.35000.png"	n/a	"MullerLyer"	"arrowup"	"1137"	"TRUE"	"MullerLyer"	"-20.04286000"	"0.3500000000"	"1"	"68"
n/a	"html-keyboard-response"	"153"	"424928"	"0.0-5.0-2.0-0.50"	"851x4m"	"600"	"1366"	"chrome"	"109.0.0"	"FALSE"	"Windows 10"	"60.93"	"152"	n/a	n/a	n/a	n/a	n/a	n/a	"fixation"	n/a	n/a	n/a	n/a	"NULL"	n/a	"NULL"	"NULL"	"NULL"	"<p style=\"color: black; font-size: 80px; padding-left: 5%; padding-right: 42%; padding-top: 3%; padding-bottom: 9%\">+</p>"	"1128"	n/a	n/a	n/a	n/a	n/a	n/a	n/a	n/a	n/a
n/a	"image-keyboard-response"	"154"	"425577"	"0.0-5.0-2.0-1.50"	"851x4m"	"600"	"1366"	"chrome"	"109.0.0"	"FALSE"	"Windows 10"	"60.93"	"152"	n/a	n/a	n/a	n/a	n/a	n/a	"Trial"	n/a	n/a	n/a	"648"	"arrowup"	n/a	"NULL"	"NULL"	"NULL"	"stimuli/MullerLyer_-8.21429_0.23665.png"	n/a	"MullerLyer"	"arrowup"	"1137"	"TRUE"	"MullerLyer"	"-8.214290000"	"0.2366500000"	"1"	"69"
n/a	"html-keyboard-response"	"155"	"426896"	"0.0-5.0-2.0-0.51"	"851x4m"	"600"	"1366"	"chrome"	"109.0.0"	"FALSE"	"Windows 10"	"60.93"	"152"	n/a	n/a	n/a	n/a	n/a	n/a	"fixation"	n/a	n/a	n/a	n/a	"NULL"	n/a	"NULL"	"NULL"	"NULL"	"<p style=\"color: black; font-size: 80px; padding-left: 42%; padding-right: 44%; padding-top: 38%; padding-bottom: 9%\">+</p>"	"1312"	n/a	n/a	n/a	n/a	n/a	n/a	n/a	n/a	n/a
n/a	"image-keyboard-response"	"156"	"427469"	"0.0-5.0-2.0-1.51"	"851x4m"	"600"	"1366"	"chrome"	"109.0.0"	"FALSE"	"Windows 10"	"60.93"	"152"	n/a	n/a	n/a	n/a	n/a	n/a	"Trial"	n/a	n/a	n/a	"573"	"arrowdown"	n/a	"NULL"	"NULL"	"NULL"	"stimuli/MullerLyer_-14.12857_-0.23665.png"	n/a	"MullerLyer"	"arrowdown"	"1319"	"TRUE"	"MullerLyer"	"-14.12857000"	"-0.236650000"	"1"	"70"
n/a	"html-keyboard-response"	"157"	"428529"	"0.0-5.0-2.0-0.52"	"851x4m"	"600"	"1366"	"chrome"	"109.0.0"	"FALSE"	"Windows 10"	"60.93"	"152"	n/a	n/a	n/a	n/a	n/a	n/a	"fixation"	n/a	n/a	n/a	n/a	"NULL"	n/a	"NULL"	"NULL"	"NULL"	"<p style=\"color: black; font-size: 80px; padding-left: 5%; padding-right: 33%; padding-top: 7%; padding-bottom: 10%\">+</p>"	"1042"	n/a	n/a	n/a	n/a	n/a	n/a	n/a	n/a	n/a
n/a	"image-keyboard-response"	"158"	"429131"	"0.0-5.0-2.0-1.52"	"851x4m"	"600"	"1366"	"chrome"	"109.0.0"	"FALSE"	"Windows 10"	"60.93"	"152"	n/a	n/a	n/a	n/a	n/a	n/a	"Trial"	n/a	n/a	n/a	"601"	"arrowdown"	n/a	"NULL"	"NULL"	"NULL"	"stimuli/MullerLyer_-8.21429_-0.3500.png"	n/a	"MullerLyer"	"arrowdown"	"1060"	"TRUE"	"MullerLyer"	"-8.214290000"	"-0.350000000"	"1"	"71"
n/a	"html-keyboard-response"	"159"	"430294"	"0.0-5.0-2.0-0.53"	"851x4m"	"600"	"1366"	"chrome"	"109.0.0"	"FALSE"	"Windows 10"	"60.93"	"152"	n/a	n/a	n/a	n/a	n/a	n/a	"fixation"	n/a	n/a	n/a	n/a	"NULL"	n/a	"NULL"	"NULL"	"NULL"	"<p style=\"color: black; font-size: 80px; padding-left: 16%; padding-right: 36%; padding-top: 17%; padding-bottom: 35%\">+</p>"	"1159"	n/a	n/a	n/a	n/a	n/a	n/a	n/a	n/a	n/a
n/a	"image-keyboard-response"	"160"	"430915"	"0.0-5.0-2.0-1.53"	"851x4m"	"600"	"1366"	"chrome"	"109.0.0"	"FALSE"	"Windows 10"	"60.93"	"152"	n/a	n/a	n/a	n/a	n/a	n/a	"Trial"	n/a	n/a	n/a	"619"	"arrowdown"	n/a	"NULL"	"NULL"	"NULL"	"stimuli/MullerLyer_2.30000_-0.3500.png"	n/a	"MullerLyer"	"arrowdown"	"1163"	"TRUE"	"MullerLyer"	"2.3000000000"	"-0.350000000"	"1"	"72"
n/a	"html-keyboard-response"	"161"	"432300"	"0.0-5.0-2.0-0.54"	"851x4m"	"600"	"1366"	"chrome"	"109.0.0"	"FALSE"	"Windows 10"	"60.93"	"152"	n/a	n/a	n/a	n/a	n/a	n/a	"fixation"	n/a	n/a	n/a	n/a	"NULL"	n/a	"NULL"	"NULL"	"NULL"	"<p style=\"color: black; font-size: 80px; padding-left: 31%; padding-right: 31%; padding-top: 47%; padding-bottom: 28%\">+</p>"	"1383"	n/a	n/a	n/a	n/a	n/a	n/a	n/a	n/a	n/a
n/a	"image-keyboard-response"	"162"	"435375"	"0.0-5.0-2.0-1.54"	"851x4m"	"600"	"1366"	"chrome"	"109.0.0"	"FALSE"	"Windows 10"	"60.93"	"152"	n/a	n/a	n/a	n/a	n/a	n/a	"Trial"	n/a	n/a	n/a	"3074"	"arrowup"	n/a	"NULL"	"NULL"	"NULL"	"stimuli/MullerLyer_8.21429_-0.07627.png"	n/a	"MullerLyer"	"arrowdown"	"1385"	"FALSE"	"MullerLyer"	"8.2142900000"	"-0.076270000"	"1"	"73"
n/a	"html-keyboard-response"	"163"	"436536"	"0.0-5.0-2.0-0.55"	"851x4m"	"600"	"1366"	"chrome"	"109.0.0"	"FALSE"	"Windows 10"	"60.93"	"152"	n/a	n/a	n/a	n/a	n/a	n/a	"fixation"	n/a	n/a	n/a	n/a	"NULL"	n/a	"NULL"	"NULL"	"NULL"	"<p style=\"color: black; font-size: 80px; padding-left: 10%; padding-right: 15%; padding-top: 32%; padding-bottom: 22%\">+</p>"	"1140"	n/a	n/a	n/a	n/a	n/a	n/a	n/a	n/a	n/a
n/a	"image-keyboard-response"	"164"	"437488"	"0.0-5.0-2.0-1.55"	"851x4m"	"600"	"1366"	"chrome"	"109.0.0"	"FALSE"	"Windows 10"	"60.93"	"152"	n/a	n/a	n/a	n/a	n/a	n/a	"Trial"	n/a	n/a	n/a	"951"	"arrowdown"	n/a	"NULL"	"NULL"	"NULL"	"stimuli/MullerLyer_-2.3000_-0.14541.png"	n/a	"MullerLyer"	"arrowdown"	"1161"	"TRUE"	"MullerLyer"	"-2.300000000"	"-0.145410000"	"1"	"74"
n/a	"html-keyboard-response"	"165"	"438599"	"0.0-5.0-2.0-0.56"	"851x4m"	"600"	"1366"	"chrome"	"109.0.0"	"FALSE"	"Windows 10"	"60.93"	"152"	n/a	n/a	n/a	n/a	n/a	n/a	"fixation"	n/a	n/a	n/a	n/a	"NULL"	n/a	"NULL"	"NULL"	"NULL"	"<p style=\"color: black; font-size: 80px; padding-left: 4%; padding-right: 28%; padding-top: 9%; padding-bottom: 27%\">+</p>"	"1092"	n/a	n/a	n/a	n/a	n/a	n/a	n/a	n/a	n/a
n/a	"image-keyboard-response"	"166"	"439776"	"0.0-5.0-2.0-1.56"	"851x4m"	"600"	"1366"	"chrome"	"109.0.0"	"FALSE"	"Windows 10"	"60.93"	"152"	n/a	n/a	n/a	n/a	n/a	n/a	"Trial"	n/a	n/a	n/a	"1173"	"arrowup"	n/a	"NULL"	"NULL"	"NULL"	"stimuli/MullerLyer_-20.04286_0.07627.png"	n/a	"MullerLyer"	"arrowup"	"1111"	"TRUE"	"MullerLyer"	"-20.04286000"	"0.0762700000"	"1"	"75"
n/a	"html-keyboard-response"	"167"	"441027"	"0.0-5.0-2.0-0.57"	"851x4m"	"600"	"1366"	"chrome"	"109.0.0"	"FALSE"	"Windows 10"	"60.93"	"152"	n/a	n/a	n/a	n/a	n/a	n/a	"fixation"	n/a	n/a	n/a	n/a	"NULL"	n/a	"NULL"	"NULL"	"NULL"	"<p style=\"color: black; font-size: 80px; padding-left: 42%; padding-right: 9%; padding-top: 33%; padding-bottom: 19%\">+</p>"	"1228"	n/a	n/a	n/a	n/a	n/a	n/a	n/a	n/a	n/a
n/a	"image-keyboard-response"	"168"	"442159"	"0.0-5.0-2.0-1.57"	"851x4m"	"600"	"1366"	"chrome"	"109.0.0"	"FALSE"	"Windows 10"	"60.93"	"152"	n/a	n/a	n/a	n/a	n/a	n/a	"Trial"	n/a	n/a	n/a	"1131"	"arrowup"	n/a	"NULL"	"NULL"	"NULL"	"stimuli/MullerLyer_-8.21429_0.35000.png"	n/a	"MullerLyer"	"arrowup"	"1251"	"TRUE"	"MullerLyer"	"-8.214290000"	"0.3500000000"	"1"	"76"
n/a	"html-keyboard-response"	"169"	"443505"	"0.0-5.0-2.0-0.58"	"851x4m"	"600"	"1366"	"chrome"	"109.0.0"	"FALSE"	"Windows 10"	"60.93"	"152"	n/a	n/a	n/a	n/a	n/a	n/a	"fixation"	n/a	n/a	n/a	n/a	"NULL"	n/a	"NULL"	"NULL"	"NULL"	"<p style=\"color: black; font-size: 80px; padding-left: 25%; padding-right: 37%; padding-top: 34%; padding-bottom: 28%\">+</p>"	"1333"	n/a	n/a	n/a	n/a	n/a	n/a	n/a	n/a	n/a
n/a	"image-keyboard-response"	"170"	"446391"	"0.0-5.0-2.0-1.58"	"851x4m"	"600"	"1366"	"chrome"	"109.0.0"	"FALSE"	"Windows 10"	"60.93"	"152"	n/a	n/a	n/a	n/a	n/a	n/a	"Trial"	n/a	n/a	n/a	"2885"	"arrowup"	n/a	"NULL"	"NULL"	"NULL"	"stimuli/MullerLyer_2.30000_0.07627.png"	n/a	"MullerLyer"	"arrowup"	"1346"	"TRUE"	"MullerLyer"	"2.3000000000"	"0.0762700000"	"1"	"77"
n/a	"html-keyboard-response"	"171"	"447601"	"0.0-5.0-2.0-0.59"	"851x4m"	"600"	"1366"	"chrome"	"109.0.0"	"FALSE"	"Windows 10"	"60.93"	"152"	n/a	n/a	n/a	n/a	n/a	n/a	"fixation"	n/a	n/a	n/a	n/a	"NULL"	n/a	"NULL"	"NULL"	"NULL"	"<p style=\"color: black; font-size: 80px; padding-left: 33%; padding-right: 38%; padding-top: 33%; padding-bottom: 37%\">+</p>"	"1191"	n/a	n/a	n/a	n/a	n/a	n/a	n/a	n/a	n/a
n/a	"image-keyboard-response"	"172"	"448237"	"0.0-5.0-2.0-1.59"	"851x4m"	"600"	"1366"	"chrome"	"109.0.0"	"FALSE"	"Windows 10"	"60.93"	"152"	n/a	n/a	n/a	n/a	n/a	n/a	"Trial"	n/a	n/a	n/a	"634"	"arrowup"	n/a	"NULL"	"NULL"	"NULL"	"stimuli/MullerLyer_-2.3000_0.23665.png"	n/a	"MullerLyer"	"arrowup"	"1210"	"TRUE"	"MullerLyer"	"-2.300000000"	"0.2366500000"	"1"	"78"
n/a	"html-keyboard-response"	"173"	"449319"	"0.0-5.0-2.0-0.60"	"851x4m"	"600"	"1366"	"chrome"	"109.0.0"	"FALSE"	"Windows 10"	"60.93"	"152"	n/a	n/a	n/a	n/a	n/a	n/a	"fixation"	n/a	n/a	n/a	n/a	"NULL"	n/a	"NULL"	"NULL"	"NULL"	"<p style=\"color: black; font-size: 80px; padding-left: 23%; padding-right: 49%; padding-top: 14%; padding-bottom: 38%\">+</p>"	"1071"	n/a	n/a	n/a	n/a	n/a	n/a	n/a	n/a	n/a
n/a	"image-keyboard-response"	"174"	"450424"	"0.0-5.0-2.0-1.60"	"851x4m"	"600"	"1366"	"chrome"	"109.0.0"	"FALSE"	"Windows 10"	"60.93"	"152"	n/a	n/a	n/a	n/a	n/a	n/a	"Trial"	n/a	n/a	n/a	"1105"	"arrowup"	n/a	"NULL"	"NULL"	"NULL"	"stimuli/MullerLyer_-8.21429_0.07627.png"	n/a	"MullerLyer"	"arrowup"	"1082"	"TRUE"	"MullerLyer"	"-8.214290000"	"0.0762700000"	"1"	"79"
n/a	"html-keyboard-response"	"175"	"451686"	"0.0-5.0-2.0-0.61"	"851x4m"	"600"	"1366"	"chrome"	"109.0.0"	"FALSE"	"Windows 10"	"60.93"	"152"	n/a	n/a	n/a	n/a	n/a	n/a	"fixation"	n/a	n/a	n/a	n/a	"NULL"	n/a	"NULL"	"NULL"	"NULL"	"<p style=\"color: black; font-size: 80px; padding-left: 19%; padding-right: 31%; padding-top: 32%; padding-bottom: 27%\">+</p>"	"1256"	n/a	n/a	n/a	n/a	n/a	n/a	n/a	n/a	n/a
n/a	"image-keyboard-response"	"176"	"452713"	"0.0-5.0-2.0-1.61"	"851x4m"	"600"	"1366"	"chrome"	"109.0.0"	"FALSE"	"Windows 10"	"60.93"	"152"	n/a	n/a	n/a	n/a	n/a	n/a	"Trial"	n/a	n/a	n/a	"1026"	"arrowup"	n/a	"NULL"	"NULL"	"NULL"	"stimuli/MullerLyer_2.30000_0.23665.png"	n/a	"MullerLyer"	"arrowup"	"1262"	"TRUE"	"MullerLyer"	"2.3000000000"	"0.2366500000"	"1"	"80"
n/a	"html-keyboard-response"	"177"	"454057"	"0.0-5.0-2.0-0.62"	"851x4m"	"600"	"1366"	"chrome"	"109.0.0"	"FALSE"	"Windows 10"	"60.93"	"152"	n/a	n/a	n/a	n/a	n/a	n/a	"fixation"	n/a	n/a	n/a	n/a	"NULL"	n/a	"NULL"	"NULL"	"NULL"	"<p style=\"color: black; font-size: 80px; padding-left: 34%; padding-right: 18%; padding-top: 38%; padding-bottom: 1%\">+</p>"	"1327"	n/a	n/a	n/a	n/a	n/a	n/a	n/a	n/a	n/a
n/a	"image-keyboard-response"	"178"	"455281"	"0.0-5.0-2.0-1.62"	"851x4m"	"600"	"1366"	"chrome"	"109.0.0"	"FALSE"	"Windows 10"	"60.93"	"152"	n/a	n/a	n/a	n/a	n/a	n/a	"Trial"	n/a	n/a	n/a	"1222"	"arrowdown"	n/a	"NULL"	"NULL"	"NULL"	"stimuli/MullerLyer_8.21429_-0.23665.png"	n/a	"MullerLyer"	"arrowdown"	"1344"	"TRUE"	"MullerLyer"	"8.2142900000"	"-0.236650000"	"1"	"81"
n/a	"html-keyboard-response"	"179"	"456494"	"0.0-5.0-2.0-0.63"	"851x4m"	"600"	"1366"	"chrome"	"109.0.0"	"FALSE"	"Windows 10"	"60.93"	"152"	n/a	n/a	n/a	n/a	n/a	n/a	"fixation"	n/a	n/a	n/a	n/a	"NULL"	n/a	"NULL"	"NULL"	"NULL"	"<p style=\"color: black; font-size: 80px; padding-left: 41%; padding-right: 37%; padding-top: 2%; padding-bottom: 17%\">+</p>"	"1209"	n/a	n/a	n/a	n/a	n/a	n/a	n/a	n/a	n/a
n/a	"image-keyboard-response"	"180"	"458050"	"0.0-5.0-2.0-1.63"	"851x4m"	"600"	"1366"	"chrome"	"109.0.0"	"FALSE"	"Windows 10"	"60.93"	"152"	n/a	n/a	n/a	n/a	n/a	n/a	"Trial"	n/a	n/a	n/a	"1553"	"arrowup"	n/a	"NULL"	"NULL"	"NULL"	"stimuli/MullerLyer_8.21429_0.23665.png"	n/a	"MullerLyer"	"arrowup"	"1213"	"TRUE"	"MullerLyer"	"8.2142900000"	"0.2366500000"	"1"	"82"
n/a	"html-button-response"	"181"	"471959"	"0.0-5.0-3.0"	"851x4m"	"600"	"1366"	"chrome"	"109.0.0"	"FALSE"	"Windows 10"	"60.93"	"152"	n/a	n/a	n/a	n/a	n/a	n/a	"block_results"	n/a	n/a	n/a	"13906"	"0"	n/a	"NULL"	"NULL"	"NULL"	"<p>Your score for this illusion is <p style=\"color: black; font-size: 48px; font-weight: bold;\">67.4 %</p><hr><p>Can you do better in the next illusion?</p>"	n/a	n/a	n/a	n/a	n/a	n/a	n/a	n/a	n/a	n/a
"TRUE"	"preload"	"182"	"472177"	"0.0-6.0-0.0"	"851x4m"	"600"	"1366"	"chrome"	"109.0.0"	"FALSE"	"Windows 10"	"60.93"	"152"	n/a	n/a	n/a	n/a	n/a	n/a	n/a	n/a	n/a	n/a	n/a	"NULL"	"FALSE"	"list()"	"list()"	"list()"	n/a	n/a	n/a	n/a	n/a	n/a	n/a	n/a	n/a	n/a	n/a
n/a	"html-keyboard-response"	"183"	"475353"	"0.0-6.0-1.0"	"851x4m"	"600"	"1366"	"chrome"	"109.0.0"	"FALSE"	"Windows 10"	"60.93"	"152"	n/a	n/a	n/a	n/a	n/a	n/a	n/a	n/a	n/a	n/a	"3175"	"enter"	n/a	"NULL"	"NULL"	"NULL"	"<p><b>Part 2/6</b></p><p>In this part, two red circles will appear side by side on the screen.</p><p>Your task is to select which <b>red circle is bigger</b> in size as fast as you can, without making errors.</p><p>Don't get distracted by the surrounding black circles around the red circles!</p><p>Press <b>the LEFT or the RIGHT arrow</b> to indicate which is the bigger <b>red circle.</b></p><div style='float: center'><img src='materials/instructions/Ebbinghaus_Demo.png' height='300'></img><p><img src='utils/answer/answer_leftright_keyboard.PNG' height='150'></img></p><p class='small'>In this example, the correct answer is the <b>LEFT arrow</b>.</p></div><p>Are you ready? <b>Press ENTER to start</b></p>"	n/a	n/a	n/a	n/a	n/a	n/a	n/a	n/a	n/a	n/a
n/a	"html-keyboard-response"	"184"	"477270"	"0.0-6.0-2.0-0.0"	"851x4m"	"600"	"1366"	"chrome"	"109.0.0"	"FALSE"	"Windows 10"	"60.93"	"152"	n/a	n/a	n/a	n/a	n/a	n/a	"fixation"	n/a	n/a	n/a	n/a	"NULL"	n/a	"NULL"	"NULL"	"NULL"	"<p style=\"color: black; font-size: 80px; padding-left: 32%; padding-right: 13%; padding-top: 9%; padding-bottom: 21%\">+</p>"	"1395"	n/a	n/a	n/a	n/a	n/a	n/a	n/a	n/a	n/a
n/a	"image-keyboard-response"	"185"	"478062"	"0.0-6.0-2.0-1.0"	"851x4m"	"600"	"1366"	"chrome"	"109.0.0"	"FALSE"	"Windows 10"	"60.93"	"152"	n/a	n/a	n/a	n/a	n/a	n/a	"Trial"	n/a	n/a	n/a	"791"	"arrowleft"	n/a	"NULL"	"NULL"	"NULL"	"stimuli/Ebbinghaus_-0.87143_0.15857.png"	n/a	"Ebbinghaus"	"arrowleft"	"1917"	"TRUE"	"Ebbinghaus"	"-0.871430000"	"0.1585700000"	"2"	"1"
n/a	"html-keyboard-response"	"186"	"479260"	"0.0-6.0-2.0-0.1"	"851x4m"	"600"	"1366"	"chrome"	"109.0.0"	"FALSE"	"Windows 10"	"60.93"	"152"	n/a	n/a	n/a	n/a	n/a	n/a	"fixation"	n/a	n/a	n/a	n/a	"NULL"	n/a	"NULL"	"NULL"	"NULL"	"<p style=\"color: black; font-size: 80px; padding-left: 31%; padding-right: 21%; padding-top: 10%; padding-bottom: 34%\">+</p>"	"1176"	n/a	n/a	n/a	n/a	n/a	n/a	n/a	n/a	n/a
n/a	"image-keyboard-response"	"187"	"480421"	"0.0-6.0-2.0-1.1"	"851x4m"	"600"	"1366"	"chrome"	"109.0.0"	"FALSE"	"Windows 10"	"60.93"	"152"	n/a	n/a	n/a	n/a	n/a	n/a	"Trial"	n/a	n/a	n/a	"1160"	"arrowright"	n/a	"NULL"	"NULL"	"NULL"	"stimuli/Ebbinghaus_0.87143_-0.2800.png"	n/a	"Ebbinghaus"	"arrowright"	"1198"	"TRUE"	"Ebbinghaus"	"0.8714300000"	"-0.280000000"	"2"	"2"
n/a	"html-keyboard-response"	"188"	"481539"	"0.0-6.0-2.0-0.2"	"851x4m"	"600"	"1366"	"chrome"	"109.0.0"	"FALSE"	"Windows 10"	"60.93"	"152"	n/a	n/a	n/a	n/a	n/a	n/a	"fixation"	n/a	n/a	n/a	n/a	"NULL"	n/a	"NULL"	"NULL"	"NULL"	"<p style=\"color: black; font-size: 80px; padding-left: 34%; padding-right: 4%; padding-top: 21%; padding-bottom: 3%\">+</p>"	"1106"	n/a	n/a	n/a	n/a	n/a	n/a	n/a	n/a	n/a
n/a	"image-keyboard-response"	"189"	"483634"	"0.0-6.0-2.0-1.2"	"851x4m"	"600"	"1366"	"chrome"	"109.0.0"	"FALSE"	"Windows 10"	"60.93"	"152"	n/a	n/a	n/a	n/a	n/a	n/a	"Trial"	n/a	n/a	n/a	"2093"	"arrowright"	n/a	"NULL"	"NULL"	"NULL"	"stimuli/Ebbinghaus_0.61429_0.11071.png"	n/a	"Ebbinghaus"	"arrowleft"	"1118"	"FALSE"	"Ebbinghaus"	"0.6142900000"	"0.1107100000"	"2"	"3"
n/a	"html-keyboard-response"	"190"	"484913"	"0.0-6.0-2.0-0.3"	"851x4m"	"600"	"1366"	"chrome"	"109.0.0"	"FALSE"	"Windows 10"	"60.93"	"152"	n/a	n/a	n/a	n/a	n/a	n/a	"fixation"	n/a	n/a	n/a	n/a	"NULL"	n/a	"NULL"	"NULL"	"NULL"	"<p style=\"color: black; font-size: 80px; padding-left: 17%; padding-right: 4%; padding-top: 1%; padding-bottom: 12%\">+</p>"	"1263"	n/a	n/a	n/a	n/a	n/a	n/a	n/a	n/a	n/a
n/a	"image-keyboard-response"	"191"	"486413"	"0.0-6.0-2.0-1.3"	"851x4m"	"600"	"1366"	"chrome"	"109.0.0"	"FALSE"	"Windows 10"	"60.93"	"152"	n/a	n/a	n/a	n/a	n/a	n/a	"Trial"	n/a	n/a	n/a	"1499"	"arrowright"	n/a	"NULL"	"NULL"	"NULL"	"stimuli/Ebbinghaus_0.35714_-0.2150.png"	n/a	"Ebbinghaus"	"arrowright"	"1279"	"TRUE"	"Ebbinghaus"	"0.3571400000"	"-0.215000000"	"2"	"4"
n/a	"html-keyboard-response"	"192"	"487667"	"0.0-6.0-2.0-0.4"	"851x4m"	"600"	"1366"	"chrome"	"109.0.0"	"FALSE"	"Windows 10"	"60.93"	"152"	n/a	n/a	n/a	n/a	n/a	n/a	"fixation"	n/a	n/a	n/a	n/a	"NULL"	n/a	"NULL"	"NULL"	"NULL"	"<p style=\"color: black; font-size: 80px; padding-left: 48%; padding-right: 46%; padding-top: 35%; padding-bottom: 49%\">+</p>"	"1231"	n/a	n/a	n/a	n/a	n/a	n/a	n/a	n/a	n/a
n/a	"image-keyboard-response"	"193"	"488996"	"0.0-6.0-2.0-1.4"	"851x4m"	"600"	"1366"	"chrome"	"109.0.0"	"FALSE"	"Windows 10"	"60.93"	"152"	n/a	n/a	n/a	n/a	n/a	n/a	"Trial"	n/a	n/a	n/a	"1327"	"arrowleft"	n/a	"NULL"	"NULL"	"NULL"	"stimuli/Ebbinghaus_-0.87143_0.28000.png"	n/a	"Ebbinghaus"	"arrowleft"	"1254"	"TRUE"	"Ebbinghaus"	"-0.871430000"	"0.2800000000"	"2"	"5"
n/a	"html-keyboard-response"	"194"	"490204"	"0.0-6.0-2.0-0.5"	"851x4m"	"600"	"1366"	"chrome"	"109.0.0"	"FALSE"	"Windows 10"	"60.93"	"152"	n/a	n/a	n/a	n/a	n/a	n/a	"fixation"	n/a	n/a	n/a	n/a	"NULL"	n/a	"NULL"	"NULL"	"NULL"	"<p style=\"color: black; font-size: 80px; padding-left: 42%; padding-right: 21%; padding-top: 30%; padding-bottom: 31%\">+</p>"	"1199"	n/a	n/a	n/a	n/a	n/a	n/a	n/a	n/a	n/a
n/a	"image-keyboard-response"	"195"	"492852"	"0.0-6.0-2.0-1.5"	"851x4m"	"600"	"1366"	"chrome"	"109.0.0"	"FALSE"	"Windows 10"	"60.93"	"152"	n/a	n/a	n/a	n/a	n/a	n/a	"Trial"	n/a	n/a	n/a	"2646"	"arrowleft"	n/a	"NULL"	"NULL"	"NULL"	"stimuli/Ebbinghaus_-0.1000_0.11071.png"	n/a	"Ebbinghaus"	"arrowleft"	"1208"	"TRUE"	"Ebbinghaus"	"-0.100000000"	"0.1107100000"	"2"	"6"
n/a	"html-keyboard-response"	"196"	"494242"	"0.0-6.0-2.0-0.6"	"851x4m"	"600"	"1366"	"chrome"	"109.0.0"	"FALSE"	"Windows 10"	"60.93"	"152"	n/a	n/a	n/a	n/a	n/a	n/a	"fixation"	n/a	n/a	n/a	n/a	"NULL"	n/a	"NULL"	"NULL"	"NULL"	"<p style=\"color: black; font-size: 80px; padding-left: 38%; padding-right: 9%; padding-top: 49%; padding-bottom: 49%\">+</p>"	"1377"	n/a	n/a	n/a	n/a	n/a	n/a	n/a	n/a	n/a
n/a	"image-keyboard-response"	"197"	"496238"	"0.0-6.0-2.0-1.6"	"851x4m"	"600"	"1366"	"chrome"	"109.0.0"	"FALSE"	"Windows 10"	"60.93"	"152"	n/a	n/a	n/a	n/a	n/a	n/a	"Trial"	n/a	n/a	n/a	"1995"	"arrowleft"	n/a	"NULL"	"NULL"	"NULL"	"stimuli/Ebbinghaus_0.87143_0.21500.png"	n/a	"Ebbinghaus"	"arrowleft"	"1390"	"TRUE"	"Ebbinghaus"	"0.8714300000"	"0.2150000000"	"2"	"7"
n/a	"html-keyboard-response"	"198"	"497730"	"0.0-6.0-2.0-0.7"	"851x4m"	"600"	"1366"	"chrome"	"109.0.0"	"FALSE"	"Windows 10"	"60.93"	"152"	n/a	n/a	n/a	n/a	n/a	n/a	"fixation"	n/a	n/a	n/a	n/a	"NULL"	n/a	"NULL"	"NULL"	"NULL"	"<p style=\"color: black; font-size: 80px; padding-left: 31%; padding-right: 19%; padding-top: 34%; padding-bottom: 31%\">+</p>"	"1483"	n/a	n/a	n/a	n/a	n/a	n/a	n/a	n/a	n/a
n/a	"image-keyboard-response"	"199"	"498605"	"0.0-6.0-2.0-1.7"	"851x4m"	"600"	"1366"	"chrome"	"109.0.0"	"FALSE"	"Windows 10"	"60.93"	"152"	n/a	n/a	n/a	n/a	n/a	n/a	"Trial"	n/a	n/a	n/a	"874"	"arrowright"	n/a	"NULL"	"NULL"	"NULL"	"stimuli/Ebbinghaus_-0.61429_-0.2150.png"	n/a	"Ebbinghaus"	"arrowright"	"1492"	"TRUE"	"Ebbinghaus"	"-0.614290000"	"-0.215000000"	"2"	"8"
n/a	"html-keyboard-response"	"200"	"499632"	"0.0-6.0-2.0-0.8"	"851x4m"	"600"	"1366"	"chrome"	"109.0.0"	"FALSE"	"Windows 10"	"60.93"	"152"	n/a	n/a	n/a	n/a	n/a	n/a	"fixation"	n/a	n/a	n/a	n/a	"NULL"	n/a	"NULL"	"NULL"	"NULL"	"<p style=\"color: black; font-size: 80px; padding-left: 30%; padding-right: 24%; padding-top: 48%; padding-bottom: 22%\">+</p>"	"1015"	n/a	n/a	n/a	n/a	n/a	n/a	n/a	n/a	n/a
n/a	"image-keyboard-response"	"201"	"501321"	"0.0-6.0-2.0-1.8"	"851x4m"	"600"	"1366"	"chrome"	"109.0.0"	"FALSE"	"Windows 10"	"60.93"	"152"	n/a	n/a	n/a	n/a	n/a	n/a	"Trial"	n/a	n/a	n/a	"1688"	"arrowright"	n/a	"NULL"	"NULL"	"NULL"	"stimuli/Ebbinghaus_0.10000_-0.11071.png"	n/a	"Ebbinghaus"	"arrowright"	"1027"	"TRUE"	"Ebbinghaus"	"0.1000000000"	"-0.110710000"	"2"	"9"
n/a	"html-keyboard-response"	"202"	"502632"	"0.0-6.0-2.0-0.9"	"851x4m"	"600"	"1366"	"chrome"	"109.0.0"	"FALSE"	"Windows 10"	"60.93"	"152"	n/a	n/a	n/a	n/a	n/a	n/a	"fixation"	n/a	n/a	n/a	n/a	"NULL"	n/a	"NULL"	"NULL"	"NULL"	"<p style=\"color: black; font-size: 80px; padding-left: 2%; padding-right: 18%; padding-top: 35%; padding-bottom: 9%\">+</p>"	"1299"	n/a	n/a	n/a	n/a	n/a	n/a	n/a	n/a	n/a
n/a	"image-keyboard-response"	"203"	"503406"	"0.0-6.0-2.0-1.9"	"851x4m"	"600"	"1366"	"chrome"	"109.0.0"	"FALSE"	"Windows 10"	"60.93"	"152"	n/a	n/a	n/a	n/a	n/a	n/a	"Trial"	n/a	n/a	n/a	"773"	"arrowright"	n/a	"NULL"	"NULL"	"NULL"	"stimuli/Ebbinghaus_-0.61429_-0.2800.png"	n/a	"Ebbinghaus"	"arrowright"	"1311"	"TRUE"	"Ebbinghaus"	"-0.614290000"	"-0.280000000"	"2"	"10"
n/a	"html-keyboard-response"	"204"	"504537"	"0.0-6.0-2.0-0.10"	"851x4m"	"600"	"1366"	"chrome"	"109.0.0"	"FALSE"	"Windows 10"	"60.93"	"152"	n/a	n/a	n/a	n/a	n/a	n/a	"fixation"	n/a	n/a	n/a	n/a	"NULL"	n/a	"NULL"	"NULL"	"NULL"	"<p style=\"color: black; font-size: 80px; padding-left: 34%; padding-right: 43%; padding-top: 33%; padding-bottom: 27%\">+</p>"	"1122"	n/a	n/a	n/a	n/a	n/a	n/a	n/a	n/a	n/a
n/a	"image-keyboard-response"	"205"	"505466"	"0.0-6.0-2.0-1.10"	"851x4m"	"600"	"1366"	"chrome"	"109.0.0"	"FALSE"	"Windows 10"	"60.93"	"152"	n/a	n/a	n/a	n/a	n/a	n/a	"Trial"	n/a	n/a	n/a	"928"	"arrowright"	n/a	"NULL"	"NULL"	"NULL"	"stimuli/Ebbinghaus_-0.1000_-0.11071.png"	n/a	"Ebbinghaus"	"arrowright"	"1131"	"TRUE"	"Ebbinghaus"	"-0.100000000"	"-0.110710000"	"2"	"11"
n/a	"html-keyboard-response"	"206"	"506960"	"0.0-6.0-2.0-0.11"	"851x4m"	"600"	"1366"	"chrome"	"109.0.0"	"FALSE"	"Windows 10"	"60.93"	"152"	n/a	n/a	n/a	n/a	n/a	n/a	"fixation"	n/a	n/a	n/a	n/a	"NULL"	n/a	"NULL"	"NULL"	"NULL"	"<p style=\"color: black; font-size: 80px; padding-left: 37%; padding-right: 19%; padding-top: 5%; padding-bottom: 42%\">+</p>"	"1489"	n/a	n/a	n/a	n/a	n/a	n/a	n/a	n/a	n/a
n/a	"image-keyboard-response"	"207"	"507995"	"0.0-6.0-2.0-1.11"	"851x4m"	"600"	"1366"	"chrome"	"109.0.0"	"FALSE"	"Windows 10"	"60.93"	"152"	n/a	n/a	n/a	n/a	n/a	n/a	"Trial"	n/a	n/a	n/a	"1033"	"arrowleft"	n/a	"NULL"	"NULL"	"NULL"	"stimuli/Ebbinghaus_0.35714_0.15857.png"	n/a	"Ebbinghaus"	"arrowleft"	"1494"	"TRUE"	"Ebbinghaus"	"0.3571400000"	"0.1585700000"	"2"	"12"
n/a	"html-keyboard-response"	"208"	"509143"	"0.0-6.0-2.0-0.12"	"851x4m"	"600"	"1366"	"chrome"	"109.0.0"	"FALSE"	"Windows 10"	"60.93"	"152"	n/a	n/a	n/a	n/a	n/a	n/a	"fixation"	n/a	n/a	n/a	n/a	"NULL"	n/a	"NULL"	"NULL"	"NULL"	"<p style=\"color: black; font-size: 80px; padding-left: 49%; padding-right: 30%; padding-top: 25%; padding-bottom: 0%\">+</p>"	"1142"	n/a	n/a	n/a	n/a	n/a	n/a	n/a	n/a	n/a
n/a	"image-keyboard-response"	"209"	"509804"	"0.0-6.0-2.0-1.12"	"851x4m"	"600"	"1366"	"chrome"	"109.0.0"	"FALSE"	"Windows 10"	"60.93"	"152"	n/a	n/a	n/a	n/a	n/a	n/a	"Trial"	n/a	n/a	n/a	"656"	"arrowright"	n/a	"NULL"	"NULL"	"NULL"	"stimuli/Ebbinghaus_-0.1000_-0.2150.png"	n/a	"Ebbinghaus"	"arrowright"	"1148"	"TRUE"	"Ebbinghaus"	"-0.100000000"	"-0.215000000"	"2"	"13"
n/a	"html-keyboard-response"	"210"	"511026"	"0.0-6.0-2.0-0.13"	"851x4m"	"600"	"1366"	"chrome"	"109.0.0"	"FALSE"	"Windows 10"	"60.93"	"152"	n/a	n/a	n/a	n/a	n/a	n/a	"fixation"	n/a	n/a	n/a	n/a	"NULL"	n/a	"NULL"	"NULL"	"NULL"	"<p style=\"color: black; font-size: 80px; padding-left: 15%; padding-right: 24%; padding-top: 29%; padding-bottom: 8%\">+</p>"	"1208"	n/a	n/a	n/a	n/a	n/a	n/a	n/a	n/a	n/a
n/a	"image-keyboard-response"	"211"	"512018"	"0.0-6.0-2.0-1.13"	"851x4m"	"600"	"1366"	"chrome"	"109.0.0"	"FALSE"	"Windows 10"	"60.93"	"152"	n/a	n/a	n/a	n/a	n/a	n/a	"Trial"	n/a	n/a	n/a	"991"	"arrowleft"	n/a	"NULL"	"NULL"	"NULL"	"stimuli/Ebbinghaus_0.10000_0.15857.png"	n/a	"Ebbinghaus"	"arrowleft"	"1222"	"TRUE"	"Ebbinghaus"	"0.1000000000"	"0.1585700000"	"2"	"14"
n/a	"html-keyboard-response"	"212"	"513429"	"0.0-6.0-2.0-0.14"	"851x4m"	"600"	"1366"	"chrome"	"109.0.0"	"FALSE"	"Windows 10"	"60.93"	"152"	n/a	n/a	n/a	n/a	n/a	n/a	"fixation"	n/a	n/a	n/a	n/a	"NULL"	n/a	"NULL"	"NULL"	"NULL"	"<p style=\"color: black; font-size: 80px; padding-left: 30%; padding-right: 34%; padding-top: 6%; padding-bottom: 18%\">+</p>"	"1408"	n/a	n/a	n/a	n/a	n/a	n/a	n/a	n/a	n/a
n/a	"image-keyboard-response"	"213"	"514374"	"0.0-6.0-2.0-1.14"	"851x4m"	"600"	"1366"	"chrome"	"109.0.0"	"FALSE"	"Windows 10"	"60.93"	"152"	n/a	n/a	n/a	n/a	n/a	n/a	"Trial"	n/a	n/a	n/a	"943"	"arrowleft"	n/a	"NULL"	"NULL"	"NULL"	"stimuli/Ebbinghaus_-0.61429_0.21500.png"	n/a	"Ebbinghaus"	"arrowleft"	"1411"	"TRUE"	"Ebbinghaus"	"-0.614290000"	"0.2150000000"	"2"	"15"
n/a	"html-keyboard-response"	"214"	"515476"	"0.0-6.0-2.0-0.15"	"851x4m"	"600"	"1366"	"chrome"	"109.0.0"	"FALSE"	"Windows 10"	"60.93"	"152"	n/a	n/a	n/a	n/a	n/a	n/a	"fixation"	n/a	n/a	n/a	n/a	"NULL"	n/a	"NULL"	"NULL"	"NULL"	"<p style=\"color: black; font-size: 80px; padding-left: 1%; padding-right: 11%; padding-top: 4%; padding-bottom: 15%\">+</p>"	"1087"	n/a	n/a	n/a	n/a	n/a	n/a	n/a	n/a	n/a
n/a	"image-keyboard-response"	"215"	"516844"	"0.0-6.0-2.0-1.15"	"851x4m"	"600"	"1366"	"chrome"	"109.0.0"	"FALSE"	"Windows 10"	"60.93"	"152"	n/a	n/a	n/a	n/a	n/a	n/a	"Trial"	n/a	n/a	n/a	"1367"	"arrowleft"	n/a	"NULL"	"NULL"	"NULL"	"stimuli/Ebbinghaus_0.10000_0.21500.png"	n/a	"Ebbinghaus"	"arrowleft"	"1102"	"TRUE"	"Ebbinghaus"	"0.1000000000"	"0.2150000000"	"2"	"16"
n/a	"html-keyboard-response"	"216"	"518252"	"0.0-6.0-2.0-0.16"	"851x4m"	"600"	"1366"	"chrome"	"109.0.0"	"FALSE"	"Windows 10"	"60.93"	"152"	n/a	n/a	n/a	n/a	n/a	n/a	"fixation"	n/a	n/a	n/a	n/a	"NULL"	n/a	"NULL"	"NULL"	"NULL"	"<p style=\"color: black; font-size: 80px; padding-left: 6%; padding-right: 28%; padding-top: 1%; padding-bottom: 25%\">+</p>"	"1396"	n/a	n/a	n/a	n/a	n/a	n/a	n/a	n/a	n/a
n/a	"image-keyboard-response"	"217"	"519509"	"0.0-6.0-2.0-1.16"	"851x4m"	"600"	"1366"	"chrome"	"109.0.0"	"FALSE"	"Windows 10"	"60.93"	"152"	n/a	n/a	n/a	n/a	n/a	n/a	"Trial"	n/a	n/a	n/a	"1257"	"arrowleft"	n/a	"NULL"	"NULL"	"NULL"	"stimuli/Ebbinghaus_-0.35714_0.15857.png"	n/a	"Ebbinghaus"	"arrowleft"	"1408"	"TRUE"	"Ebbinghaus"	"-0.357140000"	"0.1585700000"	"2"	"17"
n/a	"html-keyboard-response"	"218"	"520601"	"0.0-6.0-2.0-0.17"	"851x4m"	"600"	"1366"	"chrome"	"109.0.0"	"FALSE"	"Windows 10"	"60.93"	"152"	n/a	n/a	n/a	n/a	n/a	n/a	"fixation"	n/a	n/a	n/a	n/a	"NULL"	n/a	"NULL"	"NULL"	"NULL"	"<p style=\"color: black; font-size: 80px; padding-left: 11%; padding-right: 39%; padding-top: 23%; padding-bottom: 34%\">+</p>"	"1084"	n/a	n/a	n/a	n/a	n/a	n/a	n/a	n/a	n/a
n/a	"image-keyboard-response"	"219"	"521925"	"0.0-6.0-2.0-1.17"	"851x4m"	"600"	"1366"	"chrome"	"109.0.0"	"FALSE"	"Windows 10"	"60.93"	"152"	n/a	n/a	n/a	n/a	n/a	n/a	"Trial"	n/a	n/a	n/a	"1323"	"arrowleft"	n/a	"NULL"	"NULL"	"NULL"	"stimuli/Ebbinghaus_-0.1000_0.15857.png"	n/a	"Ebbinghaus"	"arrowleft"	"1092"	"TRUE"	"Ebbinghaus"	"-0.100000000"	"0.1585700000"	"2"	"18"
n/a	"html-keyboard-response"	"220"	"523122"	"0.0-6.0-2.0-0.18"	"851x4m"	"600"	"1366"	"chrome"	"109.0.0"	"FALSE"	"Windows 10"	"60.93"	"152"	n/a	n/a	n/a	n/a	n/a	n/a	"fixation"	n/a	n/a	n/a	n/a	"NULL"	n/a	"NULL"	"NULL"	"NULL"	"<p style=\"color: black; font-size: 80px; padding-left: 8%; padding-right: 27%; padding-top: 22%; padding-bottom: 6%\">+</p>"	"1186"	n/a	n/a	n/a	n/a	n/a	n/a	n/a	n/a	n/a
n/a	"image-keyboard-response"	"221"	"523823"	"0.0-6.0-2.0-1.18"	"851x4m"	"600"	"1366"	"chrome"	"109.0.0"	"FALSE"	"Windows 10"	"60.93"	"152"	n/a	n/a	n/a	n/a	n/a	n/a	"Trial"	n/a	n/a	n/a	"700"	"arrowright"	n/a	"NULL"	"NULL"	"NULL"	"stimuli/Ebbinghaus_-0.35714_-0.11071.png"	n/a	"Ebbinghaus"	"arrowright"	"1197"	"TRUE"	"Ebbinghaus"	"-0.357140000"	"-0.110710000"	"2"	"19"
n/a	"html-keyboard-response"	"222"	"525180"	"0.0-6.0-2.0-0.19"	"851x4m"	"600"	"1366"	"chrome"	"109.0.0"	"FALSE"	"Windows 10"	"60.93"	"152"	n/a	n/a	n/a	n/a	n/a	n/a	"fixation"	n/a	n/a	n/a	n/a	"NULL"	n/a	"NULL"	"NULL"	"NULL"	"<p style=\"color: black; font-size: 80px; padding-left: 32%; padding-right: 19%; padding-top: 28%; padding-bottom: 35%\">+</p>"	"1334"	n/a	n/a	n/a	n/a	n/a	n/a	n/a	n/a	n/a
n/a	"image-keyboard-response"	"223"	"526369"	"0.0-6.0-2.0-1.19"	"851x4m"	"600"	"1366"	"chrome"	"109.0.0"	"FALSE"	"Windows 10"	"60.93"	"152"	n/a	n/a	n/a	n/a	n/a	n/a	"Trial"	n/a	n/a	n/a	"1188"	"arrowleft"	n/a	"NULL"	"NULL"	"NULL"	"stimuli/Ebbinghaus_-0.35714_0.11071.png"	n/a	"Ebbinghaus"	"arrowleft"	"1357"	"TRUE"	"Ebbinghaus"	"-0.357140000"	"0.1107100000"	"2"	"20"
n/a	"html-keyboard-response"	"224"	"527575"	"0.0-6.0-2.0-0.20"	"851x4m"	"600"	"1366"	"chrome"	"109.0.0"	"FALSE"	"Windows 10"	"60.93"	"152"	n/a	n/a	n/a	n/a	n/a	n/a	"fixation"	n/a	n/a	n/a	n/a	"NULL"	n/a	"NULL"	"NULL"	"NULL"	"<p style=\"color: black; font-size: 80px; padding-left: 33%; padding-right: 48%; padding-top: 5%; padding-bottom: 1%\">+</p>"	"1200"	n/a	n/a	n/a	n/a	n/a	n/a	n/a	n/a	n/a
n/a	"image-keyboard-response"	"225"	"528678"	"0.0-6.0-2.0-1.20"	"851x4m"	"600"	"1366"	"chrome"	"109.0.0"	"FALSE"	"Windows 10"	"60.93"	"152"	n/a	n/a	n/a	n/a	n/a	n/a	"Trial"	n/a	n/a	n/a	"1094"	"arrowleft"	n/a	"NULL"	"NULL"	"NULL"	"stimuli/Ebbinghaus_0.10000_0.11071.png"	n/a	"Ebbinghaus"	"arrowleft"	"1206"	"TRUE"	"Ebbinghaus"	"0.1000000000"	"0.1107100000"	"2"	"21"
n/a	"html-keyboard-response"	"226"	"530026"	"0.0-6.0-2.0-0.21"	"851x4m"	"600"	"1366"	"chrome"	"109.0.0"	"FALSE"	"Windows 10"	"60.93"	"152"	n/a	n/a	n/a	n/a	n/a	n/a	"fixation"	n/a	n/a	n/a	n/a	"NULL"	n/a	"NULL"	"NULL"	"NULL"	"<p style=\"color: black; font-size: 80px; padding-left: 33%; padding-right: 40%; padding-top: 4%; padding-bottom: 46%\">+</p>"	"1334"	n/a	n/a	n/a	n/a	n/a	n/a	n/a	n/a	n/a
n/a	"image-keyboard-response"	"227"	"530631"	"0.0-6.0-2.0-1.21"	"851x4m"	"600"	"1366"	"chrome"	"109.0.0"	"FALSE"	"Windows 10"	"60.93"	"152"	n/a	n/a	n/a	n/a	n/a	n/a	"Trial"	n/a	n/a	n/a	"603"	"arrowleft"	n/a	"NULL"	"NULL"	"NULL"	"stimuli/Ebbinghaus_-0.35714_0.21500.png"	n/a	"Ebbinghaus"	"arrowleft"	"1348"	"TRUE"	"Ebbinghaus"	"-0.357140000"	"0.2150000000"	"2"	"22"
n/a	"html-keyboard-response"	"228"	"531711"	"0.0-6.0-2.0-0.22"	"851x4m"	"600"	"1366"	"chrome"	"109.0.0"	"FALSE"	"Windows 10"	"60.93"	"152"	n/a	n/a	n/a	n/a	n/a	n/a	"fixation"	n/a	n/a	n/a	n/a	"NULL"	n/a	"NULL"	"NULL"	"NULL"	"<p style=\"color: black; font-size: 80px; padding-left: 16%; padding-right: 23%; padding-top: 20%; padding-bottom: 33%\">+</p>"	"1075"	n/a	n/a	n/a	n/a	n/a	n/a	n/a	n/a	n/a
n/a	"image-keyboard-response"	"229"	"532314"	"0.0-6.0-2.0-1.22"	"851x4m"	"600"	"1366"	"chrome"	"109.0.0"	"FALSE"	"Windows 10"	"60.93"	"152"	n/a	n/a	n/a	n/a	n/a	n/a	"Trial"	n/a	n/a	n/a	"602"	"arrowright"	n/a	"NULL"	"NULL"	"NULL"	"stimuli/Ebbinghaus_-0.87143_-0.2800.png"	n/a	"Ebbinghaus"	"arrowright"	"1080"	"TRUE"	"Ebbinghaus"	"-0.871430000"	"-0.280000000"	"2"	"23"
n/a	"html-keyboard-response"	"230"	"533486"	"0.0-6.0-2.0-0.23"	"851x4m"	"600"	"1366"	"chrome"	"109.0.0"	"FALSE"	"Windows 10"	"60.93"	"152"	n/a	n/a	n/a	n/a	n/a	n/a	"fixation"	n/a	n/a	n/a	n/a	"NULL"	n/a	"NULL"	"NULL"	"NULL"	"<p style=\"color: black; font-size: 80px; padding-left: 48%; padding-right: 48%; padding-top: 47%; padding-bottom: 43%\">+</p>"	"1167"	n/a	n/a	n/a	n/a	n/a	n/a	n/a	n/a	n/a
n/a	"image-keyboard-response"	"231"	"534028"	"0.0-6.0-2.0-1.23"	"851x4m"	"600"	"1366"	"chrome"	"109.0.0"	"FALSE"	"Windows 10"	"60.93"	"152"	n/a	n/a	n/a	n/a	n/a	n/a	"Trial"	n/a	n/a	n/a	"541"	"arrowleft"	n/a	"NULL"	"NULL"	"NULL"	"stimuli/Ebbinghaus_-0.35714_0.28000.png"	n/a	"Ebbinghaus"	"arrowleft"	"1172"	"TRUE"	"Ebbinghaus"	"-0.357140000"	"0.2800000000"	"2"	"24"
n/a	"html-keyboard-response"	"232"	"535273"	"0.0-6.0-2.0-0.24"	"851x4m"	"600"	"1366"	"chrome"	"109.0.0"	"FALSE"	"Windows 10"	"60.93"	"152"	n/a	n/a	n/a	n/a	n/a	n/a	"fixation"	n/a	n/a	n/a	n/a	"NULL"	n/a	"NULL"	"NULL"	"NULL"	"<p style=\"color: black; font-size: 80px; padding-left: 38%; padding-right: 32%; padding-top: 7%; padding-bottom: 14%\">+</p>"	"1234"	n/a	n/a	n/a	n/a	n/a	n/a	n/a	n/a	n/a
n/a	"image-keyboard-response"	"233"	"535760"	"0.0-6.0-2.0-1.24"	"851x4m"	"600"	"1366"	"chrome"	"109.0.0"	"FALSE"	"Windows 10"	"60.93"	"152"	n/a	n/a	n/a	n/a	n/a	n/a	"Trial"	n/a	n/a	n/a	"486"	"arrowright"	n/a	"NULL"	"NULL"	"NULL"	"stimuli/Ebbinghaus_-0.35714_-0.15857.png"	n/a	"Ebbinghaus"	"arrowright"	"1245"	"TRUE"	"Ebbinghaus"	"-0.357140000"	"-0.158570000"	"2"	"25"
n/a	"html-keyboard-response"	"234"	"537007"	"0.0-6.0-2.0-0.25"	"851x4m"	"600"	"1366"	"chrome"	"109.0.0"	"FALSE"	"Windows 10"	"60.93"	"152"	n/a	n/a	n/a	n/a	n/a	n/a	"fixation"	n/a	n/a	n/a	n/a	"NULL"	n/a	"NULL"	"NULL"	"NULL"	"<p style=\"color: black; font-size: 80px; padding-left: 28%; padding-right: 22%; padding-top: 48%; padding-bottom: 11%\">+</p>"	"1242"	n/a	n/a	n/a	n/a	n/a	n/a	n/a	n/a	n/a
n/a	"image-keyboard-response"	"235"	"537630"	"0.0-6.0-2.0-1.25"	"851x4m"	"600"	"1366"	"chrome"	"109.0.0"	"FALSE"	"Windows 10"	"60.93"	"152"	n/a	n/a	n/a	n/a	n/a	n/a	"Trial"	n/a	n/a	n/a	"622"	"arrowright"	n/a	"NULL"	"NULL"	"NULL"	"stimuli/Ebbinghaus_-0.35714_-0.2150.png"	n/a	"Ebbinghaus"	"arrowright"	"1247"	"TRUE"	"Ebbinghaus"	"-0.357140000"	"-0.215000000"	"2"	"26"
n/a	"html-keyboard-response"	"236"	"538784"	"0.0-6.0-2.0-0.26"	"851x4m"	"600"	"1366"	"chrome"	"109.0.0"	"FALSE"	"Windows 10"	"60.93"	"152"	n/a	n/a	n/a	n/a	n/a	n/a	"fixation"	n/a	n/a	n/a	n/a	"NULL"	n/a	"NULL"	"NULL"	"NULL"	"<p style=\"color: black; font-size: 80px; padding-left: 43%; padding-right: 47%; padding-top: 43%; padding-bottom: 7%\">+</p>"	"1140"	n/a	n/a	n/a	n/a	n/a	n/a	n/a	n/a	n/a
n/a	"image-keyboard-response"	"237"	"539533"	"0.0-6.0-2.0-1.26"	"851x4m"	"600"	"1366"	"chrome"	"109.0.0"	"FALSE"	"Windows 10"	"60.93"	"152"	n/a	n/a	n/a	n/a	n/a	n/a	"Trial"	n/a	n/a	n/a	"748"	"arrowleft"	n/a	"NULL"	"NULL"	"NULL"	"stimuli/Ebbinghaus_-0.87143_0.11071.png"	n/a	"Ebbinghaus"	"arrowleft"	"1154"	"TRUE"	"Ebbinghaus"	"-0.871430000"	"0.1107100000"	"2"	"27"
n/a	"html-keyboard-response"	"238"	"540945"	"0.0-6.0-2.0-0.27"	"851x4m"	"600"	"1366"	"chrome"	"109.0.0"	"FALSE"	"Windows 10"	"60.93"	"152"	n/a	n/a	n/a	n/a	n/a	n/a	"fixation"	n/a	n/a	n/a	n/a	"NULL"	n/a	"NULL"	"NULL"	"NULL"	"<p style=\"color: black; font-size: 80px; padding-left: 23%; padding-right: 42%; padding-top: 14%; padding-bottom: 40%\">+</p>"	"1396"	n/a	n/a	n/a	n/a	n/a	n/a	n/a	n/a	n/a
n/a	"image-keyboard-response"	"239"	"541706"	"0.0-6.0-2.0-1.27"	"851x4m"	"600"	"1366"	"chrome"	"109.0.0"	"FALSE"	"Windows 10"	"60.93"	"152"	n/a	n/a	n/a	n/a	n/a	n/a	"Trial"	n/a	n/a	n/a	"759"	"arrowleft"	n/a	"NULL"	"NULL"	"NULL"	"stimuli/Ebbinghaus_0.61429_0.28000.png"	n/a	"Ebbinghaus"	"arrowleft"	"1412"	"TRUE"	"Ebbinghaus"	"0.6142900000"	"0.2800000000"	"2"	"28"
n/a	"html-keyboard-response"	"240"	"542943"	"0.0-6.0-2.0-0.28"	"851x4m"	"600"	"1366"	"chrome"	"109.0.0"	"FALSE"	"Windows 10"	"60.93"	"152"	n/a	n/a	n/a	n/a	n/a	n/a	"fixation"	n/a	n/a	n/a	n/a	"NULL"	n/a	"NULL"	"NULL"	"NULL"	"<p style=\"color: black; font-size: 80px; padding-left: 3%; padding-right: 2%; padding-top: 9%; padding-bottom: 5%\">+</p>"	"1218"	n/a	n/a	n/a	n/a	n/a	n/a	n/a	n/a	n/a
n/a	"image-keyboard-response"	"241"	"543522"	"0.0-6.0-2.0-1.28"	"851x4m"	"600"	"1366"	"chrome"	"109.0.0"	"FALSE"	"Windows 10"	"60.93"	"152"	n/a	n/a	n/a	n/a	n/a	n/a	"Trial"	n/a	n/a	n/a	"577"	"arrowright"	n/a	"NULL"	"NULL"	"NULL"	"stimuli/Ebbinghaus_-0.87143_-0.15857.png"	n/a	"Ebbinghaus"	"arrowright"	"1237"	"TRUE"	"Ebbinghaus"	"-0.871430000"	"-0.158570000"	"2"	"29"
n/a	"html-keyboard-response"	"242"	"544927"	"0.0-6.0-2.0-0.29"	"851x4m"	"600"	"1366"	"chrome"	"109.0.0"	"FALSE"	"Windows 10"	"60.93"	"152"	n/a	n/a	n/a	n/a	n/a	n/a	"fixation"	n/a	n/a	n/a	n/a	"NULL"	n/a	"NULL"	"NULL"	"NULL"	"<p style=\"color: black; font-size: 80px; padding-left: 30%; padding-right: 12%; padding-top: 12%; padding-bottom: 31%\">+</p>"	"1392"	n/a	n/a	n/a	n/a	n/a	n/a	n/a	n/a	n/a
n/a	"image-keyboard-response"	"243"	"545594"	"0.0-6.0-2.0-1.29"	"851x4m"	"600"	"1366"	"chrome"	"109.0.0"	"FALSE"	"Windows 10"	"60.93"	"152"	n/a	n/a	n/a	n/a	n/a	n/a	"Trial"	n/a	n/a	n/a	"653"	"arrowright"	n/a	"NULL"	"NULL"	"NULL"	"stimuli/Ebbinghaus_0.35714_0.11071.png"	n/a	"Ebbinghaus"	"arrowleft"	"1405"	"FALSE"	"Ebbinghaus"	"0.3571400000"	"0.1107100000"	"2"	"30"
n/a	"html-keyboard-response"	"244"	"547074"	"0.0-6.0-2.0-0.30"	"851x4m"	"600"	"1366"	"chrome"	"109.0.0"	"FALSE"	"Windows 10"	"60.93"	"152"	n/a	n/a	n/a	n/a	n/a	n/a	"fixation"	n/a	n/a	n/a	n/a	"NULL"	n/a	"NULL"	"NULL"	"NULL"	"<p style=\"color: black; font-size: 80px; padding-left: 1%; padding-right: 19%; padding-top: 2%; padding-bottom: 1%\">+</p>"	"1458"	n/a	n/a	n/a	n/a	n/a	n/a	n/a	n/a	n/a
n/a	"image-keyboard-response"	"245"	"547990"	"0.0-6.0-2.0-1.30"	"851x4m"	"600"	"1366"	"chrome"	"109.0.0"	"FALSE"	"Windows 10"	"60.93"	"152"	n/a	n/a	n/a	n/a	n/a	n/a	"Trial"	n/a	n/a	n/a	"914"	"arrowright"	n/a	"NULL"	"NULL"	"NULL"	"stimuli/Ebbinghaus_0.87143_-0.2150.png"	n/a	"Ebbinghaus"	"arrowright"	"1480"	"TRUE"	"Ebbinghaus"	"0.8714300000"	"-0.215000000"	"2"	"31"
n/a	"html-keyboard-response"	"246"	"549401"	"0.0-6.0-2.0-0.31"	"851x4m"	"600"	"1366"	"chrome"	"109.0.0"	"FALSE"	"Windows 10"	"60.93"	"152"	n/a	n/a	n/a	n/a	n/a	n/a	"fixation"	n/a	n/a	n/a	n/a	"NULL"	n/a	"NULL"	"NULL"	"NULL"	"<p style=\"color: black; font-size: 80px; padding-left: 40%; padding-right: 7%; padding-top: 33%; padding-bottom: 48%\">+</p>"	"1396"	n/a	n/a	n/a	n/a	n/a	n/a	n/a	n/a	n/a
n/a	"image-keyboard-response"	"247"	"550186"	"0.0-6.0-2.0-1.31"	"851x4m"	"600"	"1366"	"chrome"	"109.0.0"	"FALSE"	"Windows 10"	"60.93"	"152"	n/a	n/a	n/a	n/a	n/a	n/a	"Trial"	n/a	n/a	n/a	"783"	"arrowright"	n/a	"NULL"	"NULL"	"NULL"	"stimuli/Ebbinghaus_0.10000_-0.2150.png"	n/a	"Ebbinghaus"	"arrowright"	"1411"	"TRUE"	"Ebbinghaus"	"0.1000000000"	"-0.215000000"	"2"	"32"
n/a	"html-keyboard-response"	"248"	"551225"	"0.0-6.0-2.0-0.32"	"851x4m"	"600"	"1366"	"chrome"	"109.0.0"	"FALSE"	"Windows 10"	"60.93"	"152"	n/a	n/a	n/a	n/a	n/a	n/a	"fixation"	n/a	n/a	n/a	n/a	"NULL"	n/a	"NULL"	"NULL"	"NULL"	"<p style=\"color: black; font-size: 80px; padding-left: 10%; padding-right: 37%; padding-top: 29%; padding-bottom: 40%\">+</p>"	"1024"	n/a	n/a	n/a	n/a	n/a	n/a	n/a	n/a	n/a
n/a	"image-keyboard-response"	"249"	"552407"	"0.0-6.0-2.0-1.32"	"851x4m"	"600"	"1366"	"chrome"	"109.0.0"	"FALSE"	"Windows 10"	"60.93"	"152"	n/a	n/a	n/a	n/a	n/a	n/a	"Trial"	n/a	n/a	n/a	"1180"	"arrowleft"	n/a	"NULL"	"NULL"	"NULL"	"stimuli/Ebbinghaus_-0.61429_0.11071.png"	n/a	"Ebbinghaus"	"arrowleft"	"1039"	"TRUE"	"Ebbinghaus"	"-0.614290000"	"0.1107100000"	"2"	"33"
n/a	"html-keyboard-response"	"250"	"553725"	"0.0-6.0-2.0-0.33"	"851x4m"	"600"	"1366"	"chrome"	"109.0.0"	"FALSE"	"Windows 10"	"60.93"	"152"	n/a	n/a	n/a	n/a	n/a	n/a	"fixation"	n/a	n/a	n/a	n/a	"NULL"	n/a	"NULL"	"NULL"	"NULL"	"<p style=\"color: black; font-size: 80px; padding-left: 10%; padding-right: 11%; padding-top: 1%; padding-bottom: 18%\">+</p>"	"1312"	n/a	n/a	n/a	n/a	n/a	n/a	n/a	n/a	n/a
n/a	"image-keyboard-response"	"251"	"554727"	"0.0-6.0-2.0-1.33"	"851x4m"	"600"	"1366"	"chrome"	"109.0.0"	"FALSE"	"Windows 10"	"60.93"	"152"	n/a	n/a	n/a	n/a	n/a	n/a	"Trial"	n/a	n/a	n/a	"1000"	"arrowleft"	n/a	"NULL"	"NULL"	"NULL"	"stimuli/Ebbinghaus_0.87143_-0.11071.png"	n/a	"Ebbinghaus"	"arrowright"	"1318"	"FALSE"	"Ebbinghaus"	"0.8714300000"	"-0.110710000"	"2"	"34"
n/a	"html-keyboard-response"	"252"	"556068"	"0.0-6.0-2.0-0.34"	"851x4m"	"600"	"1366"	"chrome"	"109.0.0"	"FALSE"	"Windows 10"	"60.93"	"152"	n/a	n/a	n/a	n/a	n/a	n/a	"fixation"	n/a	n/a	n/a	n/a	"NULL"	n/a	"NULL"	"NULL"	"NULL"	"<p style=\"color: black; font-size: 80px; padding-left: 28%; padding-right: 25%; padding-top: 35%; padding-bottom: 33%\">+</p>"	"1327"	n/a	n/a	n/a	n/a	n/a	n/a	n/a	n/a	n/a
n/a	"image-keyboard-response"	"253"	"556711"	"0.0-6.0-2.0-1.34"	"851x4m"	"600"	"1366"	"chrome"	"109.0.0"	"FALSE"	"Windows 10"	"60.93"	"152"	n/a	n/a	n/a	n/a	n/a	n/a	"Trial"	n/a	n/a	n/a	"642"	"arrowleft"	n/a	"NULL"	"NULL"	"NULL"	"stimuli/Ebbinghaus_-0.1000_0.21500.png"	n/a	"Ebbinghaus"	"arrowleft"	"1341"	"TRUE"	"Ebbinghaus"	"-0.100000000"	"0.2150000000"	"2"	"35"
