"success"	"trial_type"	"trial_index"	"time_elapsed"	"internal_node_id"	"participant_id"	"screen_height"	"screen_width"	"browser"	"browser_version"	"mobile"	"os"	"vsync_rate"	"subject_id"	"width"	"height"	"webaudio"	"fullscreen"	"webcam"	"microphone"	"screen"	"version"	"date"	"time"	"rt"	"response"	"timeout"	"failed_images"	"failed_audio"	"failed_video"	"stimulus"	"trial_duration"	"block"	"correct_response"	"prestimulus_duration"	"correct"	"type"	"illusion_strength"	"illusion_difference"	"block_number"	"trial_number"
"TRUE"	"fullscreen"	"0"	"1322"	"0.0-0.0"	"k5le04"	"563"	"1134"	"chrome"	"109.0.0"	"FALSE"	"Windows 10"	"60.1"	"026"	n/a	n/a	n/a	n/a	n/a	n/a	n/a	n/a	n/a	n/a	n/a	"NULL"	n/a	"NULL"	"NULL"	"NULL"	n/a	n/a	n/a	n/a	n/a	n/a	n/a	n/a	n/a	n/a	n/a
n/a	"browser-check"	"1"	"2334"	"0.0-1.0"	"k5le04"	"563"	"1134"	"chrome"	"109.0.0"	"FALSE"	"Windows 10"	"60.1"	"026"	"1134"	"563"	"TRUE"	"TRUE"	"TRUE"	"TRUE"	"browser_info"	"1.0"	"24/02/2023"	"17:57:39"	n/a	"NULL"	n/a	"NULL"	"NULL"	"NULL"	n/a	n/a	n/a	n/a	n/a	n/a	n/a	n/a	n/a	n/a	n/a
n/a	"survey-text"	"2"	"8080"	"0.0-2.0"	"k5le04"	"563"	"1134"	"chrome"	"109.0.0"	"FALSE"	"Windows 10"	"60.1"	"026"	n/a	n/a	n/a	n/a	n/a	n/a	"subject_id"	n/a	n/a	n/a	"5743"	"list(subject_id = \"026\")"	n/a	"NULL"	"NULL"	"NULL"	n/a	n/a	n/a	n/a	n/a	n/a	n/a	n/a	n/a	n/a	n/a
"TRUE"	"preload"	"3"	"8090"	"0.0-3.0"	"k5le04"	"563"	"1134"	"chrome"	"109.0.0"	"FALSE"	"Windows 10"	"60.1"	"026"	n/a	n/a	n/a	n/a	n/a	n/a	n/a	n/a	n/a	n/a	n/a	"NULL"	"FALSE"	"list()"	"list()"	"list()"	n/a	n/a	n/a	n/a	n/a	n/a	n/a	n/a	n/a	n/a	n/a
n/a	"html-button-response"	"4"	"91928"	"0.0-4.0-0.0"	"k5le04"	"563"	"1134"	"chrome"	"109.0.0"	"FALSE"	"Windows 10"	"60.1"	"026"	n/a	n/a	n/a	n/a	n/a	n/a	"illusion_instructions"	n/a	n/a	n/a	"83838"	"0"	n/a	"NULL"	"NULL"	"NULL"	"<p><b>Illusion Game</b></p><p>In this game of speed and reflex, you will need to make <b>visual judgments</b> (for instance, which circle is the biggest, or which line is the longest), as fast and as correctly as possible, while <b>resisting different visual illusions</b>.</p><p>We are going to start with some examples of all the illusions you will encounter in the game.</p>"	n/a	n/a	n/a	n/a	n/a	n/a	n/a	n/a	n/a	n/a
"TRUE"	"preload"	"5"	"91944"	"0.0-4.0-1.0-0.0"	"k5le04"	"563"	"1134"	"chrome"	"109.0.0"	"FALSE"	"Windows 10"	"60.1"	"026"	n/a	n/a	n/a	n/a	n/a	n/a	n/a	n/a	n/a	n/a	n/a	"NULL"	"FALSE"	"list()"	"list()"	"list()"	n/a	n/a	n/a	n/a	n/a	n/a	n/a	n/a	n/a	n/a	n/a
n/a	"html-keyboard-response"	"6"	"143369"	"0.0-4.0-1.0-1.0"	"k5le04"	"563"	"1134"	"chrome"	"109.0.0"	"FALSE"	"Windows 10"	"60.1"	"026"	n/a	n/a	n/a	n/a	n/a	n/a	n/a	n/a	n/a	n/a	"51423"	"enter"	n/a	"NULL"	"NULL"	"NULL"	"<p><b>Practice</b></p><p>In this part, two red circles will appear side by side on the screen.</p><p>Your task is to select which <b>red circle is bigger</b> in size as fast as you can, without making errors.</p><p>Don't get distracted by the surrounding black circles around the red circles!</p><p>Press <b>the LEFT or the RIGHT arrow</b> to indicate which is the bigger <b>red circle.</b></p><div style='float: center'><img src='materials/instructions/Ebbinghaus_Demo.png' height='300'></img><p><img src='utils/answer/answer_leftright_keyboard.PNG' height='150'></img></p><p class='small'>In this example, the correct answer is the <b>LEFT arrow</b>.</p></div><p>Are you ready? <b>Press ENTER to start</b></p>"	n/a	n/a	n/a	n/a	n/a	n/a	n/a	n/a	n/a	n/a
n/a	"html-keyboard-response"	"7"	"145098"	"0.0-4.0-1.0-2.0-0.0"	"k5le04"	"563"	"1134"	"chrome"	"109.0.0"	"FALSE"	"Windows 10"	"60.1"	"026"	n/a	n/a	n/a	n/a	n/a	n/a	"fixation"	n/a	n/a	n/a	n/a	"NULL"	n/a	"NULL"	"NULL"	"NULL"	"<p style=\"color: black; font-size: 80px; padding-left: 48%; padding-right: 38%; padding-top: 0%; padding-bottom: 30%\">+</p>"	"1211"	n/a	n/a	n/a	n/a	n/a	n/a	n/a	n/a	n/a
n/a	"image-keyboard-response"	"8"	"151849"	"0.0-4.0-1.0-2.0-1.0"	"k5le04"	"563"	"1134"	"chrome"	"109.0.0"	"FALSE"	"Windows 10"	"60.1"	"026"	n/a	n/a	n/a	n/a	n/a	n/a	"Trial"	n/a	n/a	n/a	"6750"	"arrowleft"	n/a	"NULL"	"NULL"	"NULL"	"stimuli/Ebbinghaus_1000000_1.40000.png"	n/a	"Ebbinghaus"	"arrowleft"	"1729"	"TRUE"	"Ebbinghaus"	"100000000000"	"1.4000000000"	"1"	"1"
n/a	"html-keyboard-response"	"9"	"152906"	"0.0-4.0-1.0-2.0-0.1"	"k5le04"	"563"	"1134"	"chrome"	"109.0.0"	"FALSE"	"Windows 10"	"60.1"	"026"	n/a	n/a	n/a	n/a	n/a	n/a	"fixation"	n/a	n/a	n/a	n/a	"NULL"	n/a	"NULL"	"NULL"	"NULL"	"<p style=\"color: black; font-size: 80px; padding-left: 35%; padding-right: 20%; padding-top: 42%; padding-bottom: 37%\">+</p>"	"1047"	n/a	n/a	n/a	n/a	n/a	n/a	n/a	n/a	n/a
n/a	"image-keyboard-response"	"10"	"154680"	"0.0-4.0-1.0-2.0-1.1"	"k5le04"	"563"	"1134"	"chrome"	"109.0.0"	"FALSE"	"Windows 10"	"60.1"	"026"	n/a	n/a	n/a	n/a	n/a	n/a	"Trial"	n/a	n/a	n/a	"1773"	"arrowleft"	n/a	"NULL"	"NULL"	"NULL"	"stimuli/Ebbinghaus_0000000_1.40000.png"	n/a	"Ebbinghaus"	"arrowleft"	"1057"	"TRUE"	"Ebbinghaus"	"000000000000"	"1.4000000000"	"1"	"2"
n/a	"html-keyboard-response"	"11"	"155832"	"0.0-4.0-1.0-2.0-0.2"	"k5le04"	"563"	"1134"	"chrome"	"109.0.0"	"FALSE"	"Windows 10"	"60.1"	"026"	n/a	n/a	n/a	n/a	n/a	n/a	"fixation"	n/a	n/a	n/a	n/a	"NULL"	n/a	"NULL"	"NULL"	"NULL"	"<p style=\"color: black; font-size: 80px; padding-left: 39%; padding-right: 8%; padding-top: 10%; padding-bottom: 48%\">+</p>"	"1142"	n/a	n/a	n/a	n/a	n/a	n/a	n/a	n/a	n/a
n/a	"image-keyboard-response"	"12"	"158154"	"0.0-4.0-1.0-2.0-1.2"	"k5le04"	"563"	"1134"	"chrome"	"109.0.0"	"FALSE"	"Windows 10"	"60.1"	"026"	n/a	n/a	n/a	n/a	n/a	n/a	"Trial"	n/a	n/a	n/a	"2321"	"arrowright"	n/a	"NULL"	"NULL"	"NULL"	"stimuli/Ebbinghaus_0000000_-1.4000.png"	n/a	"Ebbinghaus"	"arrowright"	"1152"	"TRUE"	"Ebbinghaus"	"000000000000"	"-1.400000000"	"1"	"3"
n/a	"html-keyboard-response"	"13"	"159515"	"0.0-4.0-1.0-2.0-0.3"	"k5le04"	"563"	"1134"	"chrome"	"109.0.0"	"FALSE"	"Windows 10"	"60.1"	"026"	n/a	n/a	n/a	n/a	n/a	n/a	"fixation"	n/a	n/a	n/a	n/a	"NULL"	n/a	"NULL"	"NULL"	"NULL"	"<p style=\"color: black; font-size: 80px; padding-left: 49%; padding-right: 35%; padding-top: 23%; padding-bottom: 31%\">+</p>"	"1350"	n/a	n/a	n/a	n/a	n/a	n/a	n/a	n/a	n/a
n/a	"image-keyboard-response"	"14"	"160060"	"0.0-4.0-1.0-2.0-1.3"	"k5le04"	"563"	"1134"	"chrome"	"109.0.0"	"FALSE"	"Windows 10"	"60.1"	"026"	n/a	n/a	n/a	n/a	n/a	n/a	"Trial"	n/a	n/a	n/a	"545"	"arrowright"	n/a	"NULL"	"NULL"	"NULL"	"stimuli/Ebbinghaus_1000000_-1.4000.png"	n/a	"Ebbinghaus"	"arrowright"	"1361"	"TRUE"	"Ebbinghaus"	"100000000000"	"-1.400000000"	"1"	"4"
n/a	"html-keyboard-response"	"15"	"161380"	"0.0-4.0-1.0-2.0-0.4"	"k5le04"	"563"	"1134"	"chrome"	"109.0.0"	"FALSE"	"Windows 10"	"60.1"	"026"	n/a	n/a	n/a	n/a	n/a	n/a	"fixation"	n/a	n/a	n/a	n/a	"NULL"	n/a	"NULL"	"NULL"	"NULL"	"<p style=\"color: black; font-size: 80px; padding-left: 37%; padding-right: 45%; padding-top: 12%; padding-bottom: 47%\">+</p>"	"1300"	n/a	n/a	n/a	n/a	n/a	n/a	n/a	n/a	n/a
n/a	"image-keyboard-response"	"16"	"161990"	"0.0-4.0-1.0-2.0-1.4"	"k5le04"	"563"	"1134"	"chrome"	"109.0.0"	"FALSE"	"Windows 10"	"60.1"	"026"	n/a	n/a	n/a	n/a	n/a	n/a	"Trial"	n/a	n/a	n/a	"609"	"arrowleft"	n/a	"NULL"	"NULL"	"NULL"	"stimuli/Ebbinghaus_-100000_1.40000.png"	n/a	"Ebbinghaus"	"arrowleft"	"1320"	"TRUE"	"Ebbinghaus"	"-10000000000"	"1.4000000000"	"1"	"5"
n/a	"html-keyboard-response"	"17"	"163016"	"0.0-4.0-1.0-2.0-0.5"	"k5le04"	"563"	"1134"	"chrome"	"109.0.0"	"FALSE"	"Windows 10"	"60.1"	"026"	n/a	n/a	n/a	n/a	n/a	n/a	"fixation"	n/a	n/a	n/a	n/a	"NULL"	n/a	"NULL"	"NULL"	"NULL"	"<p style=\"color: black; font-size: 80px; padding-left: 22%; padding-right: 26%; padding-top: 29%; padding-bottom: 13%\">+</p>"	"1013"	n/a	n/a	n/a	n/a	n/a	n/a	n/a	n/a	n/a
n/a	"image-keyboard-response"	"18"	"165102"	"0.0-4.0-1.0-2.0-1.5"	"k5le04"	"563"	"1134"	"chrome"	"109.0.0"	"FALSE"	"Windows 10"	"60.1"	"026"	n/a	n/a	n/a	n/a	n/a	n/a	"Trial"	n/a	n/a	n/a	"2084"	"arrowright"	n/a	"NULL"	"NULL"	"NULL"	"stimuli/Ebbinghaus_-100000_-1.4000.png"	n/a	"Ebbinghaus"	"arrowright"	"1026"	"TRUE"	"Ebbinghaus"	"-10000000000"	"-1.400000000"	"1"	"6"
n/a	"html-button-response"	"19"	"168691"	"0.0-4.0-1.0-3.0"	"k5le04"	"563"	"1134"	"chrome"	"109.0.0"	"FALSE"	"Windows 10"	"60.1"	"026"	n/a	n/a	n/a	n/a	n/a	n/a	"practice_block_results"	n/a	n/a	n/a	"3587"	"0"	n/a	"NULL"	"NULL"	"NULL"	"<p style='color:rgb(76,175,80);'> Correct Responses: <b>100.00%</b></p><hr><p style='color:rgb(233,30,99);'> Average Response Time: <b>2347.00</b> ms.</p>"	n/a	n/a	n/a	n/a	n/a	n/a	n/a	n/a	n/a	n/a
"TRUE"	"preload"	"20"	"169221"	"0.0-4.0-2.0-0.0"	"k5le04"	"563"	"1134"	"chrome"	"109.0.0"	"FALSE"	"Windows 10"	"60.1"	"026"	n/a	n/a	n/a	n/a	n/a	n/a	n/a	n/a	n/a	n/a	n/a	"NULL"	"FALSE"	"list()"	"list()"	"list()"	n/a	n/a	n/a	n/a	n/a	n/a	n/a	n/a	n/a	n/a	n/a
n/a	"html-keyboard-response"	"21"	"179696"	"0.0-4.0-2.0-1.0"	"k5le04"	"563"	"1134"	"chrome"	"109.0.0"	"FALSE"	"Windows 10"	"60.1"	"026"	n/a	n/a	n/a	n/a	n/a	n/a	n/a	n/a	n/a	n/a	"10474"	"enter"	n/a	"NULL"	"NULL"	"NULL"	"<p><b>Practice</b></p><p>In this part, two horizontal red lines will appear one above the other.</p><p>Your task is to select which <b>line is longer</b> in length as fast as you can, without making errors.</p><p>Don't get distracted by the surrounding black arrows at the end of the red lines!</p><p>Press <b>the UP or the DOWN arrow</b> to indicate where is the longer <b>red line.</b></p><div style='float: center'><img src='materials/instructions/MullerLyer_Demo.png' height='300'></img><p><img src='utils/answer/answer_updown_keyboard.PNG' height='150'></img></p><p class='small'>In this example, the correct answer is the <b>UP arrow</b>.</p></div><p>Are you ready? <b>Press ENTER to start</b></p>"	n/a	n/a	n/a	n/a	n/a	n/a	n/a	n/a	n/a	n/a
n/a	"html-keyboard-response"	"22"	"181569"	"0.0-4.0-2.0-2.0-0.0"	"k5le04"	"563"	"1134"	"chrome"	"109.0.0"	"FALSE"	"Windows 10"	"60.1"	"026"	n/a	n/a	n/a	n/a	n/a	n/a	"fixation"	n/a	n/a	n/a	n/a	"NULL"	n/a	"NULL"	"NULL"	"NULL"	"<p style=\"color: black; font-size: 80px; padding-left: 14%; padding-right: 31%; padding-top: 32%; padding-bottom: 39%\">+</p>"	"1362"	n/a	n/a	n/a	n/a	n/a	n/a	n/a	n/a	n/a
n/a	"image-keyboard-response"	"23"	"182489"	"0.0-4.0-2.0-2.0-1.0"	"k5le04"	"563"	"1134"	"chrome"	"109.0.0"	"FALSE"	"Windows 10"	"60.1"	"026"	n/a	n/a	n/a	n/a	n/a	n/a	"Trial"	n/a	n/a	n/a	"919"	"arrowdown"	n/a	"NULL"	"NULL"	"NULL"	"stimuli/MullerLyer_0000000_-0.7000.png"	n/a	"MullerLyer"	"arrowdown"	"1873"	"TRUE"	"MullerLyer"	"000000000000"	"-0.700000000"	"1"	"7"
n/a	"html-keyboard-response"	"24"	"183535"	"0.0-4.0-2.0-2.0-0.1"	"k5le04"	"563"	"1134"	"chrome"	"109.0.0"	"FALSE"	"Windows 10"	"60.1"	"026"	n/a	n/a	n/a	n/a	n/a	n/a	"fixation"	n/a	n/a	n/a	n/a	"NULL"	n/a	"NULL"	"NULL"	"NULL"	"<p style=\"color: black; font-size: 80px; padding-left: 17%; padding-right: 48%; padding-top: 4%; padding-bottom: 8%\">+</p>"	"1037"	n/a	n/a	n/a	n/a	n/a	n/a	n/a	n/a	n/a
n/a	"image-keyboard-response"	"25"	"185110"	"0.0-4.0-2.0-2.0-1.1"	"k5le04"	"563"	"1134"	"chrome"	"109.0.0"	"FALSE"	"Windows 10"	"60.1"	"026"	n/a	n/a	n/a	n/a	n/a	n/a	"Trial"	n/a	n/a	n/a	"1574"	"arrowup"	n/a	"NULL"	"NULL"	"NULL"	"stimuli/MullerLyer_2300000_0.70000.png"	n/a	"MullerLyer"	"arrowup"	"1046"	"TRUE"	"MullerLyer"	"230000000000"	"0.7000000000"	"1"	"8"
n/a	"html-keyboard-response"	"26"	"186520"	"0.0-4.0-2.0-2.0-0.2"	"k5le04"	"563"	"1134"	"chrome"	"109.0.0"	"FALSE"	"Windows 10"	"60.1"	"026"	n/a	n/a	n/a	n/a	n/a	n/a	"fixation"	n/a	n/a	n/a	n/a	"NULL"	n/a	"NULL"	"NULL"	"NULL"	"<p style=\"color: black; font-size: 80px; padding-left: 11%; padding-right: 18%; padding-top: 28%; padding-bottom: 41%\">+</p>"	"1402"	n/a	n/a	n/a	n/a	n/a	n/a	n/a	n/a	n/a
n/a	"image-keyboard-response"	"27"	"187055"	"0.0-4.0-2.0-2.0-1.2"	"k5le04"	"563"	"1134"	"chrome"	"109.0.0"	"FALSE"	"Windows 10"	"60.1"	"026"	n/a	n/a	n/a	n/a	n/a	n/a	"Trial"	n/a	n/a	n/a	"534"	"arrowup"	n/a	"NULL"	"NULL"	"NULL"	"stimuli/MullerLyer_0000000_0.70000.png"	n/a	"MullerLyer"	"arrowup"	"1410"	"TRUE"	"MullerLyer"	"000000000000"	"0.7000000000"	"1"	"9"
n/a	"html-keyboard-response"	"28"	"188091"	"0.0-4.0-2.0-2.0-0.3"	"k5le04"	"563"	"1134"	"chrome"	"109.0.0"	"FALSE"	"Windows 10"	"60.1"	"026"	n/a	n/a	n/a	n/a	n/a	n/a	"fixation"	n/a	n/a	n/a	n/a	"NULL"	n/a	"NULL"	"NULL"	"NULL"	"<p style=\"color: black; font-size: 80px; padding-left: 47%; padding-right: 2%; padding-top: 17%; padding-bottom: 29%\">+</p>"	"1017"	n/a	n/a	n/a	n/a	n/a	n/a	n/a	n/a	n/a
n/a	"image-keyboard-response"	"29"	"188673"	"0.0-4.0-2.0-2.0-1.3"	"k5le04"	"563"	"1134"	"chrome"	"109.0.0"	"FALSE"	"Windows 10"	"60.1"	"026"	n/a	n/a	n/a	n/a	n/a	n/a	"Trial"	n/a	n/a	n/a	"582"	"arrowup"	n/a	"NULL"	"NULL"	"NULL"	"stimuli/MullerLyer_-230000_0.70000.png"	n/a	"MullerLyer"	"arrowup"	"1036"	"TRUE"	"MullerLyer"	"-23000000000"	"0.7000000000"	"1"	"10"
n/a	"html-keyboard-response"	"30"	"189941"	"0.0-4.0-2.0-2.0-0.4"	"k5le04"	"563"	"1134"	"chrome"	"109.0.0"	"FALSE"	"Windows 10"	"60.1"	"026"	n/a	n/a	n/a	n/a	n/a	n/a	"fixation"	n/a	n/a	n/a	n/a	"NULL"	n/a	"NULL"	"NULL"	"NULL"	"<p style=\"color: black; font-size: 80px; padding-left: 48%; padding-right: 27%; padding-top: 42%; padding-bottom: 47%\">+</p>"	"1253"	n/a	n/a	n/a	n/a	n/a	n/a	n/a	n/a	n/a
n/a	"image-keyboard-response"	"31"	"190562"	"0.0-4.0-2.0-2.0-1.4"	"k5le04"	"563"	"1134"	"chrome"	"109.0.0"	"FALSE"	"Windows 10"	"60.1"	"026"	n/a	n/a	n/a	n/a	n/a	n/a	"Trial"	n/a	n/a	n/a	"620"	"arrowdown"	n/a	"NULL"	"NULL"	"NULL"	"stimuli/MullerLyer_-230000_-0.7000.png"	n/a	"MullerLyer"	"arrowdown"	"1268"	"TRUE"	"MullerLyer"	"-23000000000"	"-0.700000000"	"1"	"11"
n/a	"html-keyboard-response"	"32"	"192066"	"0.0-4.0-2.0-2.0-0.5"	"k5le04"	"563"	"1134"	"chrome"	"109.0.0"	"FALSE"	"Windows 10"	"60.1"	"026"	n/a	n/a	n/a	n/a	n/a	n/a	"fixation"	n/a	n/a	n/a	n/a	"NULL"	n/a	"NULL"	"NULL"	"NULL"	"<p style=\"color: black; font-size: 80px; padding-left: 24%; padding-right: 6%; padding-top: 14%; padding-bottom: 15%\">+</p>"	"1487"	n/a	n/a	n/a	n/a	n/a	n/a	n/a	n/a	n/a
n/a	"image-keyboard-response"	"33"	"193137"	"0.0-4.0-2.0-2.0-1.5"	"k5le04"	"563"	"1134"	"chrome"	"109.0.0"	"FALSE"	"Windows 10"	"60.1"	"026"	n/a	n/a	n/a	n/a	n/a	n/a	"Trial"	n/a	n/a	n/a	"1070"	"arrowdown"	n/a	"NULL"	"NULL"	"NULL"	"stimuli/MullerLyer_2300000_-0.7000.png"	n/a	"MullerLyer"	"arrowdown"	"1504"	"TRUE"	"MullerLyer"	"230000000000"	"-0.700000000"	"1"	"12"
n/a	"html-button-response"	"34"	"196301"	"0.0-4.0-2.0-3.0"	"k5le04"	"563"	"1134"	"chrome"	"109.0.0"	"FALSE"	"Windows 10"	"60.1"	"026"	n/a	n/a	n/a	n/a	n/a	n/a	"practice_block_results"	n/a	n/a	n/a	"3162"	"0"	n/a	"NULL"	"NULL"	"NULL"	"<p style='color:rgb(76,175,80);'> Correct Responses: <b>100.00%</b></p><hr><p style='color:rgb(233,30,99);'> Average Response Time: <b>883.17</b> ms.</p>"	n/a	n/a	n/a	n/a	n/a	n/a	n/a	n/a	n/a	n/a
"TRUE"	"preload"	"35"	"196830"	"0.0-4.0-3.0-0.0"	"k5le04"	"563"	"1134"	"chrome"	"109.0.0"	"FALSE"	"Windows 10"	"60.1"	"026"	n/a	n/a	n/a	n/a	n/a	n/a	n/a	n/a	n/a	n/a	n/a	"NULL"	"FALSE"	"list()"	"list()"	"list()"	n/a	n/a	n/a	n/a	n/a	n/a	n/a	n/a	n/a	n/a	n/a
n/a	"html-keyboard-response"	"36"	"206906"	"0.0-4.0-3.0-1.0"	"k5le04"	"563"	"1134"	"chrome"	"109.0.0"	"FALSE"	"Windows 10"	"60.1"	"026"	n/a	n/a	n/a	n/a	n/a	n/a	n/a	n/a	n/a	n/a	"10075"	"enter"	n/a	"NULL"	"NULL"	"NULL"	"<p><b>Practice</b></p><p>In this part, two red lines will appear side by side.</p><p>Your task is to tell <b>which line is longer</b> in length, regardless of their orientation, as fast as you can, and without making errors.</p><p>Don't get distracted by the orientation of the lines!</p><p>Press <b>the LEFT or the RIGHT arrow</b> to indicate which <b>line is the longer one.</b></p><div style='float: center'><img src='materials/instructions/VerticalHorizontal_Demo.png' height='300'></img><p><img src='utils/answer/answer_leftright_keyboard.PNG' height='150'></img></p><p class='small'>In this example, the correct answer is the <b>LEFT arrow</b>.</p></div><p>Are you ready? <b>Press ENTER to start</b></p>"	n/a	n/a	n/a	n/a	n/a	n/a	n/a	n/a	n/a	n/a
n/a	"html-keyboard-response"	"37"	"208717"	"0.0-4.0-3.0-2.0-0.0"	"k5le04"	"563"	"1134"	"chrome"	"109.0.0"	"FALSE"	"Windows 10"	"60.1"	"026"	n/a	n/a	n/a	n/a	n/a	n/a	"fixation"	n/a	n/a	n/a	n/a	"NULL"	n/a	"NULL"	"NULL"	"NULL"	"<p style=\"color: black; font-size: 80px; padding-left: 26%; padding-right: 28%; padding-top: 5%; padding-bottom: 3%\">+</p>"	"1296"	n/a	n/a	n/a	n/a	n/a	n/a	n/a	n/a	n/a
n/a	"image-keyboard-response"	"38"	"210620"	"0.0-4.0-3.0-2.0-1.0"	"k5le04"	"563"	"1134"	"chrome"	"109.0.0"	"FALSE"	"Windows 10"	"60.1"	"026"	n/a	n/a	n/a	n/a	n/a	n/a	"Trial"	n/a	n/a	n/a	"1902"	"arrowleft"	n/a	"NULL"	"NULL"	"NULL"	"stimuli/VerticalHorizontal_-330000_0.90000.png"	n/a	"VerticalHorizontal"	"arrowleft"	"1811"	"TRUE"	"VerticalHorizontal"	"-33000000000"	"0.9000000000"	"1"	"13"
n/a	"html-keyboard-response"	"39"	"212098"	"0.0-4.0-3.0-2.0-0.1"	"k5le04"	"563"	"1134"	"chrome"	"109.0.0"	"FALSE"	"Windows 10"	"60.1"	"026"	n/a	n/a	n/a	n/a	n/a	n/a	"fixation"	n/a	n/a	n/a	n/a	"NULL"	n/a	"NULL"	"NULL"	"NULL"	"<p style=\"color: black; font-size: 80px; padding-left: 46%; padding-right: 46%; padding-top: 27%; padding-bottom: 33%\">+</p>"	"1463"	n/a	n/a	n/a	n/a	n/a	n/a	n/a	n/a	n/a
n/a	"image-keyboard-response"	"40"	"212947"	"0.0-4.0-3.0-2.0-1.1"	"k5le04"	"563"	"1134"	"chrome"	"109.0.0"	"FALSE"	"Windows 10"	"60.1"	"026"	n/a	n/a	n/a	n/a	n/a	n/a	"Trial"	n/a	n/a	n/a	"849"	"arrowleft"	n/a	"NULL"	"NULL"	"NULL"	"stimuli/VerticalHorizontal_0000000_0.90000.png"	n/a	"VerticalHorizontal"	"arrowleft"	"1478"	"TRUE"	"VerticalHorizontal"	"000000000000"	"0.9000000000"	"1"	"14"
n/a	"html-keyboard-response"	"41"	"214190"	"0.0-4.0-3.0-2.0-0.2"	"k5le04"	"563"	"1134"	"chrome"	"109.0.0"	"FALSE"	"Windows 10"	"60.1"	"026"	n/a	n/a	n/a	n/a	n/a	n/a	"fixation"	n/a	n/a	n/a	n/a	"NULL"	n/a	"NULL"	"NULL"	"NULL"	"<p style=\"color: black; font-size: 80px; padding-left: 31%; padding-right: 22%; padding-top: 7%; padding-bottom: 47%\">+</p>"	"1231"	n/a	n/a	n/a	n/a	n/a	n/a	n/a	n/a	n/a
n/a	"image-keyboard-response"	"42"	"215786"	"0.0-4.0-3.0-2.0-1.2"	"k5le04"	"563"	"1134"	"chrome"	"109.0.0"	"FALSE"	"Windows 10"	"60.1"	"026"	n/a	n/a	n/a	n/a	n/a	n/a	"Trial"	n/a	n/a	n/a	"1595"	"arrowleft"	n/a	"NULL"	"NULL"	"NULL"	"stimuli/VerticalHorizontal_3300000_0.90000.png"	n/a	"VerticalHorizontal"	"arrowleft"	"1243"	"TRUE"	"VerticalHorizontal"	"330000000000"	"0.9000000000"	"1"	"15"
n/a	"html-keyboard-response"	"43"	"217003"	"0.0-4.0-3.0-2.0-0.3"	"k5le04"	"563"	"1134"	"chrome"	"109.0.0"	"FALSE"	"Windows 10"	"60.1"	"026"	n/a	n/a	n/a	n/a	n/a	n/a	"fixation"	n/a	n/a	n/a	n/a	"NULL"	n/a	"NULL"	"NULL"	"NULL"	"<p style=\"color: black; font-size: 80px; padding-left: 12%; padding-right: 33%; padding-top: 13%; padding-bottom: 19%\">+</p>"	"1206"	n/a	n/a	n/a	n/a	n/a	n/a	n/a	n/a	n/a
n/a	"image-keyboard-response"	"44"	"217640"	"0.0-4.0-3.0-2.0-1.3"	"k5le04"	"563"	"1134"	"chrome"	"109.0.0"	"FALSE"	"Windows 10"	"60.1"	"026"	n/a	n/a	n/a	n/a	n/a	n/a	"Trial"	n/a	n/a	n/a	"637"	"arrowright"	n/a	"NULL"	"NULL"	"NULL"	"stimuli/VerticalHorizontal_0000000_-0.9000.png"	n/a	"VerticalHorizontal"	"arrowright"	"1217"	"TRUE"	"VerticalHorizontal"	"000000000000"	"-0.900000000"	"1"	"16"
n/a	"html-keyboard-response"	"45"	"218925"	"0.0-4.0-3.0-2.0-0.4"	"k5le04"	"563"	"1134"	"chrome"	"109.0.0"	"FALSE"	"Windows 10"	"60.1"	"026"	n/a	n/a	n/a	n/a	n/a	n/a	"fixation"	n/a	n/a	n/a	n/a	"NULL"	n/a	"NULL"	"NULL"	"NULL"	"<p style=\"color: black; font-size: 80px; padding-left: 39%; padding-right: 17%; padding-top: 45%; padding-bottom: 19%\">+</p>"	"1275"	n/a	n/a	n/a	n/a	n/a	n/a	n/a	n/a	n/a
n/a	"image-keyboard-response"	"46"	"219512"	"0.0-4.0-3.0-2.0-1.4"	"k5le04"	"563"	"1134"	"chrome"	"109.0.0"	"FALSE"	"Windows 10"	"60.1"	"026"	n/a	n/a	n/a	n/a	n/a	n/a	"Trial"	n/a	n/a	n/a	"587"	"arrowright"	n/a	"NULL"	"NULL"	"NULL"	"stimuli/VerticalHorizontal_-330000_-0.9000.png"	n/a	"VerticalHorizontal"	"arrowright"	"1285"	"TRUE"	"VerticalHorizontal"	"-33000000000"	"-0.900000000"	"1"	"17"
n/a	"html-keyboard-response"	"47"	"220552"	"0.0-4.0-3.0-2.0-0.5"	"k5le04"	"563"	"1134"	"chrome"	"109.0.0"	"FALSE"	"Windows 10"	"60.1"	"026"	n/a	n/a	n/a	n/a	n/a	n/a	"fixation"	n/a	n/a	n/a	n/a	"NULL"	n/a	"NULL"	"NULL"	"NULL"	"<p style=\"color: black; font-size: 80px; padding-left: 18%; padding-right: 49%; padding-top: 48%; padding-bottom: 29%\">+</p>"	"1037"	n/a	n/a	n/a	n/a	n/a	n/a	n/a	n/a	n/a
n/a	"image-keyboard-response"	"48"	"221132"	"0.0-4.0-3.0-2.0-1.5"	"k5le04"	"563"	"1134"	"chrome"	"109.0.0"	"FALSE"	"Windows 10"	"60.1"	"026"	n/a	n/a	n/a	n/a	n/a	n/a	"Trial"	n/a	n/a	n/a	"579"	"arrowright"	n/a	"NULL"	"NULL"	"NULL"	"stimuli/VerticalHorizontal_3300000_-0.9000.png"	n/a	"VerticalHorizontal"	"arrowright"	"1040"	"TRUE"	"VerticalHorizontal"	"330000000000"	"-0.900000000"	"1"	"18"
n/a	"html-button-response"	"49"	"222406"	"0.0-4.0-3.0-3.0"	"k5le04"	"563"	"1134"	"chrome"	"109.0.0"	"FALSE"	"Windows 10"	"60.1"	"026"	n/a	n/a	n/a	n/a	n/a	n/a	"practice_block_results"	n/a	n/a	n/a	"1273"	"0"	n/a	"NULL"	"NULL"	"NULL"	"<p style='color:rgb(76,175,80);'> Correct Responses: <b>100.00%</b></p><hr><p style='color:rgb(233,30,99);'> Average Response Time: <b>1024.83</b> ms.</p>"	n/a	n/a	n/a	n/a	n/a	n/a	n/a	n/a	n/a	n/a
n/a	"html-button-response"	"50"	"282738"	"0.0-4.0-4.0"	"k5le04"	"563"	"1134"	"chrome"	"109.0.0"	"FALSE"	"Windows 10"	"60.1"	"026"	n/a	n/a	n/a	n/a	n/a	n/a	"practice_debrief"	n/a	n/a	n/a	"59818"	"0"	n/a	"NULL"	"NULL"	"NULL"	"<p><b>TRAINING COMPLETED</b></p><p>In the next phase, there will be more trials, and some might be harder too.<br> Moreover, after each illusion block, a <b>score</b> will be calculated based on speed (time you took to answer) and accuracy (number of errors).</p><p>Try to keep up a high score!</p><br><p>Note that it can be <i>really</i> challenging at times, so you will need to rely on your <b>intuition</b> and gut feeling to answer as fast as you can without making errors.</p><p>Each illusion block will be repeated two times (so that you have the opportunity to improve your score), but the order of the blocks is random.</p><p>Remember, your goal is to be as <b>fast</b> and <b>accurate</b> as possible. Good luck!</p><br>"	n/a	n/a	n/a	n/a	n/a	n/a	n/a	n/a	n/a	n/a
"TRUE"	"preload"	"51"	"282891"	"0.0-5.0-0.0"	"k5le04"	"563"	"1134"	"chrome"	"109.0.0"	"FALSE"	"Windows 10"	"60.1"	"026"	n/a	n/a	n/a	n/a	n/a	n/a	n/a	n/a	n/a	n/a	n/a	"NULL"	"FALSE"	"list()"	"list()"	"list()"	n/a	n/a	n/a	n/a	n/a	n/a	n/a	n/a	n/a	n/a	n/a
n/a	"html-keyboard-response"	"52"	"292651"	"0.0-5.0-1.0"	"k5le04"	"563"	"1134"	"chrome"	"109.0.0"	"FALSE"	"Windows 10"	"60.1"	"026"	n/a	n/a	n/a	n/a	n/a	n/a	n/a	n/a	n/a	n/a	"9760"	"enter"	n/a	"NULL"	"NULL"	"NULL"	"<p><b>Part 1/6</b></p><p>In this part, two red lines will appear side by side.</p><p>Your task is to tell <b>which line is longer</b> in length, regardless of their orientation, as fast as you can, and without making errors.</p><p>Don't get distracted by the orientation of the lines!</p><p>Press <b>the LEFT or the RIGHT arrow</b> to indicate which <b>line is the longer one.</b></p><div style='float: center'><img src='materials/instructions/VerticalHorizontal_Demo.png' height='300'></img><p><img src='utils/answer/answer_leftright_keyboard.PNG' height='150'></img></p><p class='small'>In this example, the correct answer is the <b>LEFT arrow</b>.</p></div><p>Are you ready? <b>Press ENTER to start</b></p>"	n/a	n/a	n/a	n/a	n/a	n/a	n/a	n/a	n/a	n/a
n/a	"html-keyboard-response"	"53"	"294346"	"0.0-5.0-2.0-0.0"	"k5le04"	"563"	"1134"	"chrome"	"109.0.0"	"FALSE"	"Windows 10"	"60.1"	"026"	n/a	n/a	n/a	n/a	n/a	n/a	"fixation"	n/a	n/a	n/a	n/a	"NULL"	n/a	"NULL"	"NULL"	"NULL"	"<p style=\"color: black; font-size: 80px; padding-left: 44%; padding-right: 27%; padding-top: 17%; padding-bottom: 7%\">+</p>"	"1173"	n/a	n/a	n/a	n/a	n/a	n/a	n/a	n/a	n/a
n/a	"image-keyboard-response"	"54"	"296097"	"0.0-5.0-2.0-1.0"	"k5le04"	"563"	"1134"	"chrome"	"109.0.0"	"FALSE"	"Windows 10"	"60.1"	"026"	n/a	n/a	n/a	n/a	n/a	n/a	"Trial"	n/a	n/a	n/a	"1750"	"arrowright"	n/a	"NULL"	"NULL"	"NULL"	"stimuli/VerticalHorizontal_20.27143_0.22500.png"	n/a	"VerticalHorizontal"	"arrowleft"	"1695"	"FALSE"	"VerticalHorizontal"	"20.271430000"	"0.2250000000"	"1"	"19"
n/a	"html-keyboard-response"	"55"	"297278"	"0.0-5.0-2.0-0.1"	"k5le04"	"563"	"1134"	"chrome"	"109.0.0"	"FALSE"	"Windows 10"	"60.1"	"026"	n/a	n/a	n/a	n/a	n/a	n/a	"fixation"	n/a	n/a	n/a	n/a	"NULL"	n/a	"NULL"	"NULL"	"NULL"	"<p style=\"color: black; font-size: 80px; padding-left: 41%; padding-right: 25%; padding-top: 18%; padding-bottom: 33%\">+</p>"	"1164"	n/a	n/a	n/a	n/a	n/a	n/a	n/a	n/a	n/a
n/a	"image-keyboard-response"	"56"	"298381"	"0.0-5.0-2.0-1.1"	"k5le04"	"563"	"1134"	"chrome"	"109.0.0"	"FALSE"	"Windows 10"	"60.1"	"026"	n/a	n/a	n/a	n/a	n/a	n/a	"Trial"	n/a	n/a	n/a	"1103"	"arrowright"	n/a	"NULL"	"NULL"	"NULL"	"stimuli/VerticalHorizontal_11.78571_-0.16217.png"	n/a	"VerticalHorizontal"	"arrowright"	"1181"	"TRUE"	"VerticalHorizontal"	"11.785710000"	"-0.162170000"	"1"	"20"
n/a	"html-keyboard-response"	"57"	"299611"	"0.0-5.0-2.0-0.2"	"k5le04"	"563"	"1134"	"chrome"	"109.0.0"	"FALSE"	"Windows 10"	"60.1"	"026"	n/a	n/a	n/a	n/a	n/a	n/a	"fixation"	n/a	n/a	n/a	n/a	"NULL"	n/a	"NULL"	"NULL"	"NULL"	"<p style=\"color: black; font-size: 80px; padding-left: 34%; padding-right: 35%; padding-top: 39%; padding-bottom: 26%\">+</p>"	"1213"	n/a	n/a	n/a	n/a	n/a	n/a	n/a	n/a	n/a
n/a	"image-keyboard-response"	"58"	"300266"	"0.0-5.0-2.0-1.2"	"k5le04"	"563"	"1134"	"chrome"	"109.0.0"	"FALSE"	"Windows 10"	"60.1"	"026"	n/a	n/a	n/a	n/a	n/a	n/a	"Trial"	n/a	n/a	n/a	"654"	"arrowleft"	n/a	"NULL"	"NULL"	"NULL"	"stimuli/VerticalHorizontal_-20.27143_-0.2250.png"	n/a	"VerticalHorizontal"	"arrowright"	"1230"	"FALSE"	"VerticalHorizontal"	"-20.27143000"	"-0.225000000"	"1"	"21"
n/a	"html-keyboard-response"	"59"	"301699"	"0.0-5.0-2.0-0.3"	"k5le04"	"563"	"1134"	"chrome"	"109.0.0"	"FALSE"	"Windows 10"	"60.1"	"026"	n/a	n/a	n/a	n/a	n/a	n/a	"fixation"	n/a	n/a	n/a	n/a	"NULL"	n/a	"NULL"	"NULL"	"NULL"	"<p style=\"color: black; font-size: 80px; padding-left: 24%; padding-right: 50%; padding-top: 40%; padding-bottom: 8%\">+</p>"	"1427"	n/a	n/a	n/a	n/a	n/a	n/a	n/a	n/a	n/a
n/a	"image-keyboard-response"	"60"	"302778"	"0.0-5.0-2.0-1.3"	"k5le04"	"563"	"1134"	"chrome"	"109.0.0"	"FALSE"	"Windows 10"	"60.1"	"026"	n/a	n/a	n/a	n/a	n/a	n/a	"Trial"	n/a	n/a	n/a	"1079"	"arrowright"	n/a	"NULL"	"NULL"	"NULL"	"stimuli/VerticalHorizontal_20.27143_-0.1096.png"	n/a	"VerticalHorizontal"	"arrowright"	"1433"	"TRUE"	"VerticalHorizontal"	"20.271430000"	"-0.109600000"	"1"	"22"
n/a	"html-keyboard-response"	"61"	"304072"	"0.0-5.0-2.0-0.4"	"k5le04"	"563"	"1134"	"chrome"	"109.0.0"	"FALSE"	"Windows 10"	"60.1"	"026"	n/a	n/a	n/a	n/a	n/a	n/a	"fixation"	n/a	n/a	n/a	n/a	"NULL"	n/a	"NULL"	"NULL"	"NULL"	"<p style=\"color: black; font-size: 80px; padding-left: 23%; padding-right: 28%; padding-top: 35%; padding-bottom: 29%\">+</p>"	"1281"	n/a	n/a	n/a	n/a	n/a	n/a	n/a	n/a	n/a
n/a	"image-keyboard-response"	"62"	"304583"	"0.0-5.0-2.0-1.4"	"k5le04"	"563"	"1134"	"chrome"	"109.0.0"	"FALSE"	"Windows 10"	"60.1"	"026"	n/a	n/a	n/a	n/a	n/a	n/a	"Trial"	n/a	n/a	n/a	"510"	"arrowleft"	n/a	"NULL"	"NULL"	"NULL"	"stimuli/VerticalHorizontal_-11.78571_0.06730.png"	n/a	"VerticalHorizontal"	"arrowleft"	"1294"	"TRUE"	"VerticalHorizontal"	"-11.78571000"	"0.0673000000"	"1"	"23"
n/a	"html-keyboard-response"	"63"	"306067"	"0.0-5.0-2.0-0.5"	"k5le04"	"563"	"1134"	"chrome"	"109.0.0"	"FALSE"	"Windows 10"	"60.1"	"026"	n/a	n/a	n/a	n/a	n/a	n/a	"fixation"	n/a	n/a	n/a	n/a	"NULL"	n/a	"NULL"	"NULL"	"NULL"	"<p style=\"color: black; font-size: 80px; padding-left: 9%; padding-right: 38%; padding-top: 30%; padding-bottom: 15%\">+</p>"	"1478"	n/a	n/a	n/a	n/a	n/a	n/a	n/a	n/a	n/a
n/a	"image-keyboard-response"	"64"	"306869"	"0.0-5.0-2.0-1.5"	"k5le04"	"563"	"1134"	"chrome"	"109.0.0"	"FALSE"	"Windows 10"	"60.1"	"026"	n/a	n/a	n/a	n/a	n/a	n/a	"Trial"	n/a	n/a	n/a	"801"	"arrowright"	n/a	"NULL"	"NULL"	"NULL"	"stimuli/VerticalHorizontal_20.27143_0.10960.png"	n/a	"VerticalHorizontal"	"arrowleft"	"1484"	"FALSE"	"VerticalHorizontal"	"20.271430000"	"0.1096000000"	"1"	"24"
n/a	"html-keyboard-response"	"65"	"308206"	"0.0-5.0-2.0-0.6"	"k5le04"	"563"	"1134"	"chrome"	"109.0.0"	"FALSE"	"Windows 10"	"60.1"	"026"	n/a	n/a	n/a	n/a	n/a	n/a	"fixation"	n/a	n/a	n/a	n/a	"NULL"	n/a	"NULL"	"NULL"	"NULL"	"<p style=\"color: black; font-size: 80px; padding-left: 19%; padding-right: 28%; padding-top: 20%; padding-bottom: 20%\">+</p>"	"1316"	n/a	n/a	n/a	n/a	n/a	n/a	n/a	n/a	n/a
n/a	"image-keyboard-response"	"66"	"308796"	"0.0-5.0-2.0-1.6"	"k5le04"	"563"	"1134"	"chrome"	"109.0.0"	"FALSE"	"Windows 10"	"60.1"	"026"	n/a	n/a	n/a	n/a	n/a	n/a	"Trial"	n/a	n/a	n/a	"589"	"arrowleft"	n/a	"NULL"	"NULL"	"NULL"	"stimuli/VerticalHorizontal_28.75714_0.16217.png"	n/a	"VerticalHorizontal"	"arrowleft"	"1337"	"TRUE"	"VerticalHorizontal"	"28.757140000"	"0.1621700000"	"1"	"25"
n/a	"html-keyboard-response"	"67"	"310308"	"0.0-5.0-2.0-0.7"	"k5le04"	"563"	"1134"	"chrome"	"109.0.0"	"FALSE"	"Windows 10"	"60.1"	"026"	n/a	n/a	n/a	n/a	n/a	n/a	"fixation"	n/a	n/a	n/a	n/a	"NULL"	n/a	"NULL"	"NULL"	"NULL"	"<p style=\"color: black; font-size: 80px; padding-left: 26%; padding-right: 8%; padding-top: 48%; padding-bottom: 3%\">+</p>"	"1492"	n/a	n/a	n/a	n/a	n/a	n/a	n/a	n/a	n/a
n/a	"image-keyboard-response"	"68"	"311119"	"0.0-5.0-2.0-1.7"	"k5le04"	"563"	"1134"	"chrome"	"109.0.0"	"FALSE"	"Windows 10"	"60.1"	"026"	n/a	n/a	n/a	n/a	n/a	n/a	"Trial"	n/a	n/a	n/a	"810"	"arrowleft"	n/a	"NULL"	"NULL"	"NULL"	"stimuli/VerticalHorizontal_3.30000_0.06730.png"	n/a	"VerticalHorizontal"	"arrowleft"	"1512"	"TRUE"	"VerticalHorizontal"	"3.3000000000"	"0.0673000000"	"1"	"26"
n/a	"html-keyboard-response"	"69"	"312302"	"0.0-5.0-2.0-0.8"	"k5le04"	"563"	"1134"	"chrome"	"109.0.0"	"FALSE"	"Windows 10"	"60.1"	"026"	n/a	n/a	n/a	n/a	n/a	n/a	"fixation"	n/a	n/a	n/a	n/a	"NULL"	n/a	"NULL"	"NULL"	"NULL"	"<p style=\"color: black; font-size: 80px; padding-left: 48%; padding-right: 21%; padding-top: 10%; padding-bottom: 28%\">+</p>"	"1172"	n/a	n/a	n/a	n/a	n/a	n/a	n/a	n/a	n/a
n/a	"image-keyboard-response"	"70"	"313031"	"0.0-5.0-2.0-1.8"	"k5le04"	"563"	"1134"	"chrome"	"109.0.0"	"FALSE"	"Windows 10"	"60.1"	"026"	n/a	n/a	n/a	n/a	n/a	n/a	"Trial"	n/a	n/a	n/a	"728"	"arrowleft"	n/a	"NULL"	"NULL"	"NULL"	"stimuli/VerticalHorizontal_-3.3000_-0.1096.png"	n/a	"VerticalHorizontal"	"arrowright"	"1183"	"FALSE"	"VerticalHorizontal"	"-3.300000000"	"-0.109600000"	"1"	"27"
n/a	"html-keyboard-response"	"71"	"314300"	"0.0-5.0-2.0-0.9"	"k5le04"	"563"	"1134"	"chrome"	"109.0.0"	"FALSE"	"Windows 10"	"60.1"	"026"	n/a	n/a	n/a	n/a	n/a	n/a	"fixation"	n/a	n/a	n/a	n/a	"NULL"	n/a	"NULL"	"NULL"	"NULL"	"<p style=\"color: black; font-size: 80px; padding-left: 27%; padding-right: 22%; padding-top: 7%; padding-bottom: 12%\">+</p>"	"1260"	n/a	n/a	n/a	n/a	n/a	n/a	n/a	n/a	n/a
n/a	"image-keyboard-response"	"72"	"315140"	"0.0-5.0-2.0-1.9"	"k5le04"	"563"	"1134"	"chrome"	"109.0.0"	"FALSE"	"Windows 10"	"60.1"	"026"	n/a	n/a	n/a	n/a	n/a	n/a	"Trial"	n/a	n/a	n/a	"839"	"arrowright"	n/a	"NULL"	"NULL"	"NULL"	"stimuli/VerticalHorizontal_11.78571_-0.0673.png"	n/a	"VerticalHorizontal"	"arrowright"	"1269"	"TRUE"	"VerticalHorizontal"	"11.785710000"	"-0.067300000"	"1"	"28"
n/a	"html-keyboard-response"	"73"	"316197"	"0.0-5.0-2.0-0.10"	"k5le04"	"563"	"1134"	"chrome"	"109.0.0"	"FALSE"	"Windows 10"	"60.1"	"026"	n/a	n/a	n/a	n/a	n/a	n/a	"fixation"	n/a	n/a	n/a	n/a	"NULL"	n/a	"NULL"	"NULL"	"NULL"	"<p style=\"color: black; font-size: 80px; padding-left: 25%; padding-right: 48%; padding-top: 8%; padding-bottom: 5%\">+</p>"	"1040"	n/a	n/a	n/a	n/a	n/a	n/a	n/a	n/a	n/a
n/a	"image-keyboard-response"	"74"	"317425"	"0.0-5.0-2.0-1.10"	"k5le04"	"563"	"1134"	"chrome"	"109.0.0"	"FALSE"	"Windows 10"	"60.1"	"026"	n/a	n/a	n/a	n/a	n/a	n/a	"Trial"	n/a	n/a	n/a	"1228"	"arrowright"	n/a	"NULL"	"NULL"	"NULL"	"stimuli/VerticalHorizontal_3.30000_-0.0673.png"	n/a	"VerticalHorizontal"	"arrowright"	"1057"	"TRUE"	"VerticalHorizontal"	"3.3000000000"	"-0.067300000"	"1"	"29"
n/a	"html-keyboard-response"	"75"	"318858"	"0.0-5.0-2.0-0.11"	"k5le04"	"563"	"1134"	"chrome"	"109.0.0"	"FALSE"	"Windows 10"	"60.1"	"026"	n/a	n/a	n/a	n/a	n/a	n/a	"fixation"	n/a	n/a	n/a	n/a	"NULL"	n/a	"NULL"	"NULL"	"NULL"	"<p style=\"color: black; font-size: 80px; padding-left: 19%; padding-right: 41%; padding-top: 28%; padding-bottom: 45%\">+</p>"	"1428"	n/a	n/a	n/a	n/a	n/a	n/a	n/a	n/a	n/a
n/a	"image-keyboard-response"	"76"	"319928"	"0.0-5.0-2.0-1.11"	"k5le04"	"563"	"1134"	"chrome"	"109.0.0"	"FALSE"	"Windows 10"	"60.1"	"026"	n/a	n/a	n/a	n/a	n/a	n/a	"Trial"	n/a	n/a	n/a	"1070"	"arrowleft"	n/a	"NULL"	"NULL"	"NULL"	"stimuli/VerticalHorizontal_-3.3000_0.16217.png"	n/a	"VerticalHorizontal"	"arrowleft"	"1433"	"TRUE"	"VerticalHorizontal"	"-3.300000000"	"0.1621700000"	"1"	"30"
n/a	"html-keyboard-response"	"77"	"321231"	"0.0-5.0-2.0-0.12"	"k5le04"	"563"	"1134"	"chrome"	"109.0.0"	"FALSE"	"Windows 10"	"60.1"	"026"	n/a	n/a	n/a	n/a	n/a	n/a	"fixation"	n/a	n/a	n/a	n/a	"NULL"	n/a	"NULL"	"NULL"	"NULL"	"<p style=\"color: black; font-size: 80px; padding-left: 29%; padding-right: 16%; padding-top: 50%; padding-bottom: 24%\">+</p>"	"1293"	n/a	n/a	n/a	n/a	n/a	n/a	n/a	n/a	n/a
n/a	"image-keyboard-response"	"78"	"322427"	"0.0-5.0-2.0-1.12"	"k5le04"	"563"	"1134"	"chrome"	"109.0.0"	"FALSE"	"Windows 10"	"60.1"	"026"	n/a	n/a	n/a	n/a	n/a	n/a	"Trial"	n/a	n/a	n/a	"1195"	"arrowright"	n/a	"NULL"	"NULL"	"NULL"	"stimuli/VerticalHorizontal_-28.75714_0.06730.png"	n/a	"VerticalHorizontal"	"arrowleft"	"1303"	"FALSE"	"VerticalHorizontal"	"-28.75714000"	"0.0673000000"	"1"	"31"
n/a	"html-keyboard-response"	"79"	"323524"	"0.0-5.0-2.0-0.13"	"k5le04"	"563"	"1134"	"chrome"	"109.0.0"	"FALSE"	"Windows 10"	"60.1"	"026"	n/a	n/a	n/a	n/a	n/a	n/a	"fixation"	n/a	n/a	n/a	n/a	"NULL"	n/a	"NULL"	"NULL"	"NULL"	"<p style=\"color: black; font-size: 80px; padding-left: 43%; padding-right: 30%; padding-top: 2%; padding-bottom: 30%\">+</p>"	"1081"	n/a	n/a	n/a	n/a	n/a	n/a	n/a	n/a	n/a
n/a	"image-keyboard-response"	"80"	"324151"	"0.0-5.0-2.0-1.13"	"k5le04"	"563"	"1134"	"chrome"	"109.0.0"	"FALSE"	"Windows 10"	"60.1"	"026"	n/a	n/a	n/a	n/a	n/a	n/a	"Trial"	n/a	n/a	n/a	"626"	"arrowleft"	n/a	"NULL"	"NULL"	"NULL"	"stimuli/VerticalHorizontal_11.78571_0.22500.png"	n/a	"VerticalHorizontal"	"arrowleft"	"1097"	"TRUE"	"VerticalHorizontal"	"11.785710000"	"0.2250000000"	"1"	"32"
n/a	"html-keyboard-response"	"81"	"325659"	"0.0-5.0-2.0-0.14"	"k5le04"	"563"	"1134"	"chrome"	"109.0.0"	"FALSE"	"Windows 10"	"60.1"	"026"	n/a	n/a	n/a	n/a	n/a	n/a	"fixation"	n/a	n/a	n/a	n/a	"NULL"	n/a	"NULL"	"NULL"	"NULL"	"<p style=\"color: black; font-size: 80px; padding-left: 15%; padding-right: 36%; padding-top: 35%; padding-bottom: 29%\">+</p>"	"1496"	n/a	n/a	n/a	n/a	n/a	n/a	n/a	n/a	n/a
n/a	"image-keyboard-response"	"82"	"326610"	"0.0-5.0-2.0-1.14"	"k5le04"	"563"	"1134"	"chrome"	"109.0.0"	"FALSE"	"Windows 10"	"60.1"	"026"	n/a	n/a	n/a	n/a	n/a	n/a	"Trial"	n/a	n/a	n/a	"951"	"arrowright"	n/a	"NULL"	"NULL"	"NULL"	"stimuli/VerticalHorizontal_3.30000_-0.1096.png"	n/a	"VerticalHorizontal"	"arrowright"	"1508"	"TRUE"	"VerticalHorizontal"	"3.3000000000"	"-0.109600000"	"1"	"33"
n/a	"html-keyboard-response"	"83"	"327685"	"0.0-5.0-2.0-0.15"	"k5le04"	"563"	"1134"	"chrome"	"109.0.0"	"FALSE"	"Windows 10"	"60.1"	"026"	n/a	n/a	n/a	n/a	n/a	n/a	"fixation"	n/a	n/a	n/a	n/a	"NULL"	n/a	"NULL"	"NULL"	"NULL"	"<p style=\"color: black; font-size: 80px; padding-left: 5%; padding-right: 7%; padding-top: 50%; padding-bottom: 13%\">+</p>"	"1065"	n/a	n/a	n/a	n/a	n/a	n/a	n/a	n/a	n/a
n/a	"image-keyboard-response"	"84"	"328524"	"0.0-5.0-2.0-1.15"	"k5le04"	"563"	"1134"	"chrome"	"109.0.0"	"FALSE"	"Windows 10"	"60.1"	"026"	n/a	n/a	n/a	n/a	n/a	n/a	"Trial"	n/a	n/a	n/a	"839"	"arrowright"	n/a	"NULL"	"NULL"	"NULL"	"stimuli/VerticalHorizontal_20.27143_-0.2250.png"	n/a	"VerticalHorizontal"	"arrowright"	"1075"	"TRUE"	"VerticalHorizontal"	"20.271430000"	"-0.225000000"	"1"	"34"
n/a	"html-keyboard-response"	"85"	"329583"	"0.0-5.0-2.0-0.16"	"k5le04"	"563"	"1134"	"chrome"	"109.0.0"	"FALSE"	"Windows 10"	"60.1"	"026"	n/a	n/a	n/a	n/a	n/a	n/a	"fixation"	n/a	n/a	n/a	n/a	"NULL"	n/a	"NULL"	"NULL"	"NULL"	"<p style=\"color: black; font-size: 80px; padding-left: 9%; padding-right: 36%; padding-top: 2%; padding-bottom: 2%\">+</p>"	"1045"	n/a	n/a	n/a	n/a	n/a	n/a	n/a	n/a	n/a
n/a	"image-keyboard-response"	"86"	"331106"	"0.0-5.0-2.0-1.16"	"k5le04"	"563"	"1134"	"chrome"	"109.0.0"	"FALSE"	"Windows 10"	"60.1"	"026"	n/a	n/a	n/a	n/a	n/a	n/a	"Trial"	n/a	n/a	n/a	"1522"	"arrowleft"	n/a	"NULL"	"NULL"	"NULL"	"stimuli/VerticalHorizontal_-3.3000_-0.0673.png"	n/a	"VerticalHorizontal"	"arrowright"	"1059"	"FALSE"	"VerticalHorizontal"	"-3.300000000"	"-0.067300000"	"1"	"35"
n/a	"html-keyboard-response"	"87"	"332606"	"0.0-5.0-2.0-0.17"	"k5le04"	"563"	"1134"	"chrome"	"109.0.0"	"FALSE"	"Windows 10"	"60.1"	"026"	n/a	n/a	n/a	n/a	n/a	n/a	"fixation"	n/a	n/a	n/a	n/a	"NULL"	n/a	"NULL"	"NULL"	"NULL"	"<p style=\"color: black; font-size: 80px; padding-left: 40%; padding-right: 50%; padding-top: 25%; padding-bottom: 28%\">+</p>"	"1478"	n/a	n/a	n/a	n/a	n/a	n/a	n/a	n/a	n/a
n/a	"image-keyboard-response"	"88"	"333205"	"0.0-5.0-2.0-1.17"	"k5le04"	"563"	"1134"	"chrome"	"109.0.0"	"FALSE"	"Windows 10"	"60.1"	"026"	n/a	n/a	n/a	n/a	n/a	n/a	"Trial"	n/a	n/a	n/a	"598"	"arrowleft"	n/a	"NULL"	"NULL"	"NULL"	"stimuli/VerticalHorizontal_3.30000_0.22500.png"	n/a	"VerticalHorizontal"	"arrowleft"	"1500"	"TRUE"	"VerticalHorizontal"	"3.3000000000"	"0.2250000000"	"1"	"36"
n/a	"html-keyboard-response"	"89"	"334685"	"0.0-5.0-2.0-0.18"	"k5le04"	"563"	"1134"	"chrome"	"109.0.0"	"FALSE"	"Windows 10"	"60.1"	"026"	n/a	n/a	n/a	n/a	n/a	n/a	"fixation"	n/a	n/a	n/a	n/a	"NULL"	n/a	"NULL"	"NULL"	"NULL"	"<p style=\"color: black; font-size: 80px; padding-left: 25%; padding-right: 21%; padding-top: 30%; padding-bottom: 18%\">+</p>"	"1463"	n/a	n/a	n/a	n/a	n/a	n/a	n/a	n/a	n/a
n/a	"image-keyboard-response"	"90"	"335288"	"0.0-5.0-2.0-1.18"	"k5le04"	"563"	"1134"	"chrome"	"109.0.0"	"FALSE"	"Windows 10"	"60.1"	"026"	n/a	n/a	n/a	n/a	n/a	n/a	"Trial"	n/a	n/a	n/a	"602"	"arrowleft"	n/a	"NULL"	"NULL"	"NULL"	"stimuli/VerticalHorizontal_-28.75714_0.22500.png"	n/a	"VerticalHorizontal"	"arrowleft"	"1480"	"TRUE"	"VerticalHorizontal"	"-28.75714000"	"0.2250000000"	"1"	"37"
n/a	"html-keyboard-response"	"91"	"336768"	"0.0-5.0-2.0-0.19"	"k5le04"	"563"	"1134"	"chrome"	"109.0.0"	"FALSE"	"Windows 10"	"60.1"	"026"	n/a	n/a	n/a	n/a	n/a	n/a	"fixation"	n/a	n/a	n/a	n/a	"NULL"	n/a	"NULL"	"NULL"	"NULL"	"<p style=\"color: black; font-size: 80px; padding-left: 6%; padding-right: 6%; padding-top: 12%; padding-bottom: 36%\">+</p>"	"1469"	n/a	n/a	n/a	n/a	n/a	n/a	n/a	n/a	n/a
n/a	"image-keyboard-response"	"92"	"337531"	"0.0-5.0-2.0-1.19"	"k5le04"	"563"	"1134"	"chrome"	"109.0.0"	"FALSE"	"Windows 10"	"60.1"	"026"	n/a	n/a	n/a	n/a	n/a	n/a	"Trial"	n/a	n/a	n/a	"762"	"arrowright"	n/a	"NULL"	"NULL"	"NULL"	"stimuli/VerticalHorizontal_-11.78571_-0.0673.png"	n/a	"VerticalHorizontal"	"arrowright"	"1480"	"TRUE"	"VerticalHorizontal"	"-11.78571000"	"-0.067300000"	"1"	"38"
n/a	"html-keyboard-response"	"93"	"338606"	"0.0-5.0-2.0-0.20"	"k5le04"	"563"	"1134"	"chrome"	"109.0.0"	"FALSE"	"Windows 10"	"60.1"	"026"	n/a	n/a	n/a	n/a	n/a	n/a	"fixation"	n/a	n/a	n/a	n/a	"NULL"	n/a	"NULL"	"NULL"	"NULL"	"<p style=\"color: black; font-size: 80px; padding-left: 36%; padding-right: 25%; padding-top: 7%; padding-bottom: 32%\">+</p>"	"1055"	n/a	n/a	n/a	n/a	n/a	n/a	n/a	n/a	n/a
n/a	"image-keyboard-response"	"94"	"339446"	"0.0-5.0-2.0-1.20"	"k5le04"	"563"	"1134"	"chrome"	"109.0.0"	"FALSE"	"Windows 10"	"60.1"	"026"	n/a	n/a	n/a	n/a	n/a	n/a	"Trial"	n/a	n/a	n/a	"839"	"arrowright"	n/a	"NULL"	"NULL"	"NULL"	"stimuli/VerticalHorizontal_20.27143_-0.0673.png"	n/a	"VerticalHorizontal"	"arrowright"	"1075"	"TRUE"	"VerticalHorizontal"	"20.271430000"	"-0.067300000"	"1"	"39"
n/a	"html-keyboard-response"	"95"	"340561"	"0.0-5.0-2.0-0.21"	"k5le04"	"563"	"1134"	"chrome"	"109.0.0"	"FALSE"	"Windows 10"	"60.1"	"026"	n/a	n/a	n/a	n/a	n/a	n/a	"fixation"	n/a	n/a	n/a	n/a	"NULL"	n/a	"NULL"	"NULL"	"NULL"	"<p style=\"color: black; font-size: 80px; padding-left: 8%; padding-right: 49%; padding-top: 13%; padding-bottom: 45%\">+</p>"	"1110"	n/a	n/a	n/a	n/a	n/a	n/a	n/a	n/a	n/a
n/a	"image-keyboard-response"	"96"	"341364"	"0.0-5.0-2.0-1.21"	"k5le04"	"563"	"1134"	"chrome"	"109.0.0"	"FALSE"	"Windows 10"	"60.1"	"026"	n/a	n/a	n/a	n/a	n/a	n/a	"Trial"	n/a	n/a	n/a	"802"	"arrowright"	n/a	"NULL"	"NULL"	"NULL"	"stimuli/VerticalHorizontal_-28.75714_-0.2250.png"	n/a	"VerticalHorizontal"	"arrowright"	"1115"	"TRUE"	"VerticalHorizontal"	"-28.75714000"	"-0.225000000"	"1"	"40"
n/a	"html-keyboard-response"	"97"	"342732"	"0.0-5.0-2.0-0.22"	"k5le04"	"563"	"1134"	"chrome"	"109.0.0"	"FALSE"	"Windows 10"	"60.1"	"026"	n/a	n/a	n/a	n/a	n/a	n/a	"fixation"	n/a	n/a	n/a	n/a	"NULL"	n/a	"NULL"	"NULL"	"NULL"	"<p style=\"color: black; font-size: 80px; padding-left: 39%; padding-right: 39%; padding-top: 27%; padding-bottom: 26%\">+</p>"	"1358"	n/a	n/a	n/a	n/a	n/a	n/a	n/a	n/a	n/a
n/a	"image-keyboard-response"	"98"	"344104"	"0.0-5.0-2.0-1.22"	"k5le04"	"563"	"1134"	"chrome"	"109.0.0"	"FALSE"	"Windows 10"	"60.1"	"026"	n/a	n/a	n/a	n/a	n/a	n/a	"Trial"	n/a	n/a	n/a	"1371"	"arrowright"	n/a	"NULL"	"NULL"	"NULL"	"stimuli/VerticalHorizontal_-11.78571_-0.1096.png"	n/a	"VerticalHorizontal"	"arrowright"	"1368"	"TRUE"	"VerticalHorizontal"	"-11.78571000"	"-0.109600000"	"1"	"41"
n/a	"html-keyboard-response"	"99"	"345596"	"0.0-5.0-2.0-0.23"	"k5le04"	"563"	"1134"	"chrome"	"109.0.0"	"FALSE"	"Windows 10"	"60.1"	"026"	n/a	n/a	n/a	n/a	n/a	n/a	"fixation"	n/a	n/a	n/a	n/a	"NULL"	n/a	"NULL"	"NULL"	"NULL"	"<p style=\"color: black; font-size: 80px; padding-left: 8%; padding-right: 5%; padding-top: 12%; padding-bottom: 25%\">+</p>"	"1476"	n/a	n/a	n/a	n/a	n/a	n/a	n/a	n/a	n/a
n/a	"image-keyboard-response"	"100"	"346248"	"0.0-5.0-2.0-1.23"	"k5le04"	"563"	"1134"	"chrome"	"109.0.0"	"FALSE"	"Windows 10"	"60.1"	"026"	n/a	n/a	n/a	n/a	n/a	n/a	"Trial"	n/a	n/a	n/a	"652"	"arrowleft"	n/a	"NULL"	"NULL"	"NULL"	"stimuli/VerticalHorizontal_11.78571_0.06730.png"	n/a	"VerticalHorizontal"	"arrowleft"	"1492"	"TRUE"	"VerticalHorizontal"	"11.785710000"	"0.0673000000"	"1"	"42"
n/a	"html-keyboard-response"	"101"	"347527"	"0.0-5.0-2.0-0.24"	"k5le04"	"563"	"1134"	"chrome"	"109.0.0"	"FALSE"	"Windows 10"	"60.1"	"026"	n/a	n/a	n/a	n/a	n/a	n/a	"fixation"	n/a	n/a	n/a	n/a	"NULL"	n/a	"NULL"	"NULL"	"NULL"	"<p style=\"color: black; font-size: 80px; padding-left: 10%; padding-right: 3%; padding-top: 8%; padding-bottom: 50%\">+</p>"	"1268"	n/a	n/a	n/a	n/a	n/a	n/a	n/a	n/a	n/a
n/a	"image-keyboard-response"	"102"	"348444"	"0.0-5.0-2.0-1.24"	"k5le04"	"563"	"1134"	"chrome"	"109.0.0"	"FALSE"	"Windows 10"	"60.1"	"026"	n/a	n/a	n/a	n/a	n/a	n/a	"Trial"	n/a	n/a	n/a	"916"	"arrowright"	n/a	"NULL"	"NULL"	"NULL"	"stimuli/VerticalHorizontal_28.75714_0.06730.png"	n/a	"VerticalHorizontal"	"arrowleft"	"1279"	"FALSE"	"VerticalHorizontal"	"28.757140000"	"0.0673000000"	"1"	"43"
n/a	"html-keyboard-response"	"103"	"349556"	"0.0-5.0-2.0-0.25"	"k5le04"	"563"	"1134"	"chrome"	"109.0.0"	"FALSE"	"Windows 10"	"60.1"	"026"	n/a	n/a	n/a	n/a	n/a	n/a	"fixation"	n/a	n/a	n/a	n/a	"NULL"	n/a	"NULL"	"NULL"	"NULL"	"<p style=\"color: black; font-size: 80px; padding-left: 2%; padding-right: 43%; padding-top: 12%; padding-bottom: 19%\">+</p>"	"1094"	n/a	n/a	n/a	n/a	n/a	n/a	n/a	n/a	n/a
n/a	"image-keyboard-response"	"104"	"350152"	"0.0-5.0-2.0-1.25"	"k5le04"	"563"	"1134"	"chrome"	"109.0.0"	"FALSE"	"Windows 10"	"60.1"	"026"	n/a	n/a	n/a	n/a	n/a	n/a	"Trial"	n/a	n/a	n/a	"595"	"arrowleft"	n/a	"NULL"	"NULL"	"NULL"	"stimuli/VerticalHorizontal_-20.27143_0.10960.png"	n/a	"VerticalHorizontal"	"arrowleft"	"1112"	"TRUE"	"VerticalHorizontal"	"-20.27143000"	"0.1096000000"	"1"	"44"
n/a	"html-keyboard-response"	"105"	"351441"	"0.0-5.0-2.0-0.26"	"k5le04"	"563"	"1134"	"chrome"	"109.0.0"	"FALSE"	"Windows 10"	"60.1"	"026"	n/a	n/a	n/a	n/a	n/a	n/a	"fixation"	n/a	n/a	n/a	n/a	"NULL"	n/a	"NULL"	"NULL"	"NULL"	"<p style=\"color: black; font-size: 80px; padding-left: 16%; padding-right: 44%; padding-top: 16%; padding-bottom: 25%\">+</p>"	"1288"	n/a	n/a	n/a	n/a	n/a	n/a	n/a	n/a	n/a
n/a	"image-keyboard-response"	"106"	"352156"	"0.0-5.0-2.0-1.26"	"k5le04"	"563"	"1134"	"chrome"	"109.0.0"	"FALSE"	"Windows 10"	"60.1"	"026"	n/a	n/a	n/a	n/a	n/a	n/a	"Trial"	n/a	n/a	n/a	"714"	"arrowleft"	n/a	"NULL"	"NULL"	"NULL"	"stimuli/VerticalHorizontal_20.27143_0.06730.png"	n/a	"VerticalHorizontal"	"arrowleft"	"1289"	"TRUE"	"VerticalHorizontal"	"20.271430000"	"0.0673000000"	"1"	"45"
n/a	"html-keyboard-response"	"107"	"353629"	"0.0-5.0-2.0-0.27"	"k5le04"	"563"	"1134"	"chrome"	"109.0.0"	"FALSE"	"Windows 10"	"60.1"	"026"	n/a	n/a	n/a	n/a	n/a	n/a	"fixation"	n/a	n/a	n/a	n/a	"NULL"	n/a	"NULL"	"NULL"	"NULL"	"<p style=\"color: black; font-size: 80px; padding-left: 41%; padding-right: 48%; padding-top: 47%; padding-bottom: 9%\">+</p>"	"1462"	n/a	n/a	n/a	n/a	n/a	n/a	n/a	n/a	n/a
n/a	"image-keyboard-response"	"108"	"354119"	"0.0-5.0-2.0-1.27"	"k5le04"	"563"	"1134"	"chrome"	"109.0.0"	"FALSE"	"Windows 10"	"60.1"	"026"	n/a	n/a	n/a	n/a	n/a	n/a	"Trial"	n/a	n/a	n/a	"489"	"arrowright"	n/a	"NULL"	"NULL"	"NULL"	"stimuli/VerticalHorizontal_28.75714_-0.16217.png"	n/a	"VerticalHorizontal"	"arrowright"	"1473"	"TRUE"	"VerticalHorizontal"	"28.757140000"	"-0.162170000"	"1"	"46"
n/a	"html-keyboard-response"	"109"	"355429"	"0.0-5.0-2.0-0.28"	"k5le04"	"563"	"1134"	"chrome"	"109.0.0"	"FALSE"	"Windows 10"	"60.1"	"026"	n/a	n/a	n/a	n/a	n/a	n/a	"fixation"	n/a	n/a	n/a	n/a	"NULL"	n/a	"NULL"	"NULL"	"NULL"	"<p style=\"color: black; font-size: 80px; padding-left: 41%; padding-right: 3%; padding-top: 46%; padding-bottom: 26%\">+</p>"	"1289"	n/a	n/a	n/a	n/a	n/a	n/a	n/a	n/a	n/a
n/a	"image-keyboard-response"	"110"	"356438"	"0.0-5.0-2.0-1.28"	"k5le04"	"563"	"1134"	"chrome"	"109.0.0"	"FALSE"	"Windows 10"	"60.1"	"026"	n/a	n/a	n/a	n/a	n/a	n/a	"Trial"	n/a	n/a	n/a	"1009"	"arrowright"	n/a	"NULL"	"NULL"	"NULL"	"stimuli/VerticalHorizontal_-3.3000_-0.2250.png"	n/a	"VerticalHorizontal"	"arrowright"	"1310"	"TRUE"	"VerticalHorizontal"	"-3.300000000"	"-0.225000000"	"1"	"47"
n/a	"html-keyboard-response"	"111"	"357500"	"0.0-5.0-2.0-0.29"	"k5le04"	"563"	"1134"	"chrome"	"109.0.0"	"FALSE"	"Windows 10"	"60.1"	"026"	n/a	n/a	n/a	n/a	n/a	n/a	"fixation"	n/a	n/a	n/a	n/a	"NULL"	n/a	"NULL"	"NULL"	"NULL"	"<p style=\"color: black; font-size: 80px; padding-left: 5%; padding-right: 42%; padding-top: 1%; padding-bottom: 8%\">+</p>"	"1052"	n/a	n/a	n/a	n/a	n/a	n/a	n/a	n/a	n/a
n/a	"image-keyboard-response"	"112"	"358225"	"0.0-5.0-2.0-1.29"	"k5le04"	"563"	"1134"	"chrome"	"109.0.0"	"FALSE"	"Windows 10"	"60.1"	"026"	n/a	n/a	n/a	n/a	n/a	n/a	"Trial"	n/a	n/a	n/a	"725"	"arrowleft"	n/a	"NULL"	"NULL"	"NULL"	"stimuli/VerticalHorizontal_-20.27143_0.06730.png"	n/a	"VerticalHorizontal"	"arrowleft"	"1062"	"TRUE"	"VerticalHorizontal"	"-20.27143000"	"0.0673000000"	"1"	"48"
n/a	"html-keyboard-response"	"113"	"359314"	"0.0-5.0-2.0-0.30"	"k5le04"	"563"	"1134"	"chrome"	"109.0.0"	"FALSE"	"Windows 10"	"60.1"	"026"	n/a	n/a	n/a	n/a	n/a	n/a	"fixation"	n/a	n/a	n/a	n/a	"NULL"	n/a	"NULL"	"NULL"	"NULL"	"<p style=\"color: black; font-size: 80px; padding-left: 42%; padding-right: 22%; padding-top: 32%; padding-bottom: 26%\">+</p>"	"1073"	n/a	n/a	n/a	n/a	n/a	n/a	n/a	n/a	n/a
n/a	"image-keyboard-response"	"114"	"359847"	"0.0-5.0-2.0-1.30"	"k5le04"	"563"	"1134"	"chrome"	"109.0.0"	"FALSE"	"Windows 10"	"60.1"	"026"	n/a	n/a	n/a	n/a	n/a	n/a	"Trial"	n/a	n/a	n/a	"533"	"arrowright"	n/a	"NULL"	"NULL"	"NULL"	"stimuli/VerticalHorizontal_11.78571_-0.2250.png"	n/a	"VerticalHorizontal"	"arrowright"	"1089"	"TRUE"	"VerticalHorizontal"	"11.785710000"	"-0.225000000"	"1"	"49"
n/a	"html-keyboard-response"	"115"	"360878"	"0.0-5.0-2.0-0.31"	"k5le04"	"563"	"1134"	"chrome"	"109.0.0"	"FALSE"	"Windows 10"	"60.1"	"026"	n/a	n/a	n/a	n/a	n/a	n/a	"fixation"	n/a	n/a	n/a	n/a	"NULL"	n/a	"NULL"	"NULL"	"NULL"	"<p style=\"color: black; font-size: 80px; padding-left: 43%; padding-right: 22%; padding-top: 28%; padding-bottom: 27%\">+</p>"	"1022"	n/a	n/a	n/a	n/a	n/a	n/a	n/a	n/a	n/a
n/a	"image-keyboard-response"	"116"	"361945"	"0.0-5.0-2.0-1.31"	"k5le04"	"563"	"1134"	"chrome"	"109.0.0"	"FALSE"	"Windows 10"	"60.1"	"026"	n/a	n/a	n/a	n/a	n/a	n/a	"Trial"	n/a	n/a	n/a	"1067"	"arrowleft"	n/a	"NULL"	"NULL"	"NULL"	"stimuli/VerticalHorizontal_-3.3000_0.06730.png"	n/a	"VerticalHorizontal"	"arrowleft"	"1031"	"TRUE"	"VerticalHorizontal"	"-3.300000000"	"0.0673000000"	"1"	"50"
n/a	"html-keyboard-response"	"117"	"363225"	"0.0-5.0-2.0-0.32"	"k5le04"	"563"	"1134"	"chrome"	"109.0.0"	"FALSE"	"Windows 10"	"60.1"	"026"	n/a	n/a	n/a	n/a	n/a	n/a	"fixation"	n/a	n/a	n/a	n/a	"NULL"	n/a	"NULL"	"NULL"	"NULL"	"<p style=\"color: black; font-size: 80px; padding-left: 16%; padding-right: 26%; padding-top: 16%; padding-bottom: 43%\">+</p>"	"1269"	n/a	n/a	n/a	n/a	n/a	n/a	n/a	n/a	n/a
n/a	"image-keyboard-response"	"118"	"363846"	"0.0-5.0-2.0-1.32"	"k5le04"	"563"	"1134"	"chrome"	"109.0.0"	"FALSE"	"Windows 10"	"60.1"	"026"	n/a	n/a	n/a	n/a	n/a	n/a	"Trial"	n/a	n/a	n/a	"620"	"arrowright"	n/a	"NULL"	"NULL"	"NULL"	"stimuli/VerticalHorizontal_3.30000_-0.2250.png"	n/a	"VerticalHorizontal"	"arrowright"	"1280"	"TRUE"	"VerticalHorizontal"	"3.3000000000"	"-0.225000000"	"1"	"51"
n/a	"html-keyboard-response"	"119"	"364939"	"0.0-5.0-2.0-0.33"	"k5le04"	"563"	"1134"	"chrome"	"109.0.0"	"FALSE"	"Windows 10"	"60.1"	"026"	n/a	n/a	n/a	n/a	n/a	n/a	"fixation"	n/a	n/a	n/a	n/a	"NULL"	n/a	"NULL"	"NULL"	"NULL"	"<p style=\"color: black; font-size: 80px; padding-left: 40%; padding-right: 22%; padding-top: 1%; padding-bottom: 48%\">+</p>"	"1075"	n/a	n/a	n/a	n/a	n/a	n/a	n/a	n/a	n/a
n/a	"image-keyboard-response"	"120"	"365827"	"0.0-5.0-2.0-1.33"	"k5le04"	"563"	"1134"	"chrome"	"109.0.0"	"FALSE"	"Windows 10"	"60.1"	"026"	n/a	n/a	n/a	n/a	n/a	n/a	"Trial"	n/a	n/a	n/a	"887"	"arrowright"	n/a	"NULL"	"NULL"	"NULL"	"stimuli/VerticalHorizontal_-28.75714_-0.0673.png"	n/a	"VerticalHorizontal"	"arrowright"	"1093"	"TRUE"	"VerticalHorizontal"	"-28.75714000"	"-0.067300000"	"1"	"52"
n/a	"html-keyboard-response"	"121"	"366853"	"0.0-5.0-2.0-0.34"	"k5le04"	"563"	"1134"	"chrome"	"109.0.0"	"FALSE"	"Windows 10"	"60.1"	"026"	n/a	n/a	n/a	n/a	n/a	n/a	"fixation"	n/a	n/a	n/a	n/a	"NULL"	n/a	"NULL"	"NULL"	"NULL"	"<p style=\"color: black; font-size: 80px; padding-left: 33%; padding-right: 3%; padding-top: 25%; padding-bottom: 46%\">+</p>"	"1018"	n/a	n/a	n/a	n/a	n/a	n/a	n/a	n/a	n/a
n/a	"image-keyboard-response"	"122"	"367889"	"0.0-5.0-2.0-1.34"	"k5le04"	"563"	"1134"	"chrome"	"109.0.0"	"FALSE"	"Windows 10"	"60.1"	"026"	n/a	n/a	n/a	n/a	n/a	n/a	"Trial"	n/a	n/a	n/a	"1035"	"arrowright"	n/a	"NULL"	"NULL"	"NULL"	"stimuli/VerticalHorizontal_3.30000_-0.16217.png"	n/a	"VerticalHorizontal"	"arrowright"	"1026"	"TRUE"	"VerticalHorizontal"	"3.3000000000"	"-0.162170000"	"1"	"53"
n/a	"html-keyboard-response"	"123"	"369232"	"0.0-5.0-2.0-0.35"	"k5le04"	"563"	"1134"	"chrome"	"109.0.0"	"FALSE"	"Windows 10"	"60.1"	"026"	n/a	n/a	n/a	n/a	n/a	n/a	"fixation"	n/a	n/a	n/a	n/a	"NULL"	n/a	"NULL"	"NULL"	"NULL"	"<p style=\"color: black; font-size: 80px; padding-left: 23%; padding-right: 50%; padding-top: 26%; padding-bottom: 36%\">+</p>"	"1325"	n/a	n/a	n/a	n/a	n/a	n/a	n/a	n/a	n/a
n/a	"image-keyboard-response"	"124"	"369774"	"0.0-5.0-2.0-1.35"	"k5le04"	"563"	"1134"	"chrome"	"109.0.0"	"FALSE"	"Windows 10"	"60.1"	"026"	n/a	n/a	n/a	n/a	n/a	n/a	"Trial"	n/a	n/a	n/a	"541"	"arrowleft"	n/a	"NULL"	"NULL"	"NULL"	"stimuli/VerticalHorizontal_-20.27143_0.22500.png"	n/a	"VerticalHorizontal"	"arrowleft"	"1343"	"TRUE"	"VerticalHorizontal"	"-20.27143000"	"0.2250000000"	"1"	"54"
n/a	"html-keyboard-response"	"125"	"371214"	"0.0-5.0-2.0-0.36"	"k5le04"	"563"	"1134"	"chrome"	"109.0.0"	"FALSE"	"Windows 10"	"60.1"	"026"	n/a	n/a	n/a	n/a	n/a	n/a	"fixation"	n/a	n/a	n/a	n/a	"NULL"	n/a	"NULL"	"NULL"	"NULL"	"<p style=\"color: black; font-size: 80px; padding-left: 39%; padding-right: 31%; padding-top: 37%; padding-bottom: 18%\">+</p>"	"1429"	n/a	n/a	n/a	n/a	n/a	n/a	n/a	n/a	n/a
n/a	"image-keyboard-response"	"126"	"371634"	"0.0-5.0-2.0-1.36"	"k5le04"	"563"	"1134"	"chrome"	"109.0.0"	"FALSE"	"Windows 10"	"60.1"	"026"	n/a	n/a	n/a	n/a	n/a	n/a	"Trial"	n/a	n/a	n/a	"420"	"arrowright"	n/a	"NULL"	"NULL"	"NULL"	"stimuli/VerticalHorizontal_-20.27143_-0.1096.png"	n/a	"VerticalHorizontal"	"arrowright"	"1440"	"TRUE"	"VerticalHorizontal"	"-20.27143000"	"-0.109600000"	"1"	"55"
n/a	"html-keyboard-response"	"127"	"372878"	"0.0-5.0-2.0-0.37"	"k5le04"	"563"	"1134"	"chrome"	"109.0.0"	"FALSE"	"Windows 10"	"60.1"	"026"	n/a	n/a	n/a	n/a	n/a	n/a	"fixation"	n/a	n/a	n/a	n/a	"NULL"	n/a	"NULL"	"NULL"	"NULL"	"<p style=\"color: black; font-size: 80px; padding-left: 43%; padding-right: 7%; padding-top: 39%; padding-bottom: 41%\">+</p>"	"1231"	n/a	n/a	n/a	n/a	n/a	n/a	n/a	n/a	n/a
n/a	"image-keyboard-response"	"128"	"373303"	"0.0-5.0-2.0-1.37"	"k5le04"	"563"	"1134"	"chrome"	"109.0.0"	"FALSE"	"Windows 10"	"60.1"	"026"	n/a	n/a	n/a	n/a	n/a	n/a	"Trial"	n/a	n/a	n/a	"424"	"arrowleft"	n/a	"NULL"	"NULL"	"NULL"	"stimuli/VerticalHorizontal_-11.78571_0.16217.png"	n/a	"VerticalHorizontal"	"arrowleft"	"1244"	"TRUE"	"VerticalHorizontal"	"-11.78571000"	"0.1621700000"	"1"	"56"
n/a	"html-keyboard-response"	"129"	"374623"	"0.0-5.0-2.0-0.38"	"k5le04"	"563"	"1134"	"chrome"	"109.0.0"	"FALSE"	"Windows 10"	"60.1"	"026"	n/a	n/a	n/a	n/a	n/a	n/a	"fixation"	n/a	n/a	n/a	n/a	"NULL"	n/a	"NULL"	"NULL"	"NULL"	"<p style=\"color: black; font-size: 80px; padding-left: 43%; padding-right: 5%; padding-top: 45%; padding-bottom: 9%\">+</p>"	"1301"	n/a	n/a	n/a	n/a	n/a	n/a	n/a	n/a	n/a
n/a	"image-keyboard-response"	"130"	"375217"	"0.0-5.0-2.0-1.38"	"k5le04"	"563"	"1134"	"chrome"	"109.0.0"	"FALSE"	"Windows 10"	"60.1"	"026"	n/a	n/a	n/a	n/a	n/a	n/a	"Trial"	n/a	n/a	n/a	"593"	"arrowright"	n/a	"NULL"	"NULL"	"NULL"	"stimuli/VerticalHorizontal_11.78571_0.16217.png"	n/a	"VerticalHorizontal"	"arrowleft"	"1320"	"FALSE"	"VerticalHorizontal"	"11.785710000"	"0.1621700000"	"1"	"57"
n/a	"html-keyboard-response"	"131"	"376691"	"0.0-5.0-2.0-0.39"	"k5le04"	"563"	"1134"	"chrome"	"109.0.0"	"FALSE"	"Windows 10"	"60.1"	"026"	n/a	n/a	n/a	n/a	n/a	n/a	"fixation"	n/a	n/a	n/a	n/a	"NULL"	n/a	"NULL"	"NULL"	"NULL"	"<p style=\"color: black; font-size: 80px; padding-left: 46%; padding-right: 22%; padding-top: 50%; padding-bottom: 22%\">+</p>"	"1470"	n/a	n/a	n/a	n/a	n/a	n/a	n/a	n/a	n/a
n/a	"image-keyboard-response"	"132"	"377401"	"0.0-5.0-2.0-1.39"	"k5le04"	"563"	"1134"	"chrome"	"109.0.0"	"FALSE"	"Windows 10"	"60.1"	"026"	n/a	n/a	n/a	n/a	n/a	n/a	"Trial"	n/a	n/a	n/a	"709"	"arrowright"	n/a	"NULL"	"NULL"	"NULL"	"stimuli/VerticalHorizontal_11.78571_-0.1096.png"	n/a	"VerticalHorizontal"	"arrowright"	"1474"	"TRUE"	"VerticalHorizontal"	"11.785710000"	"-0.109600000"	"1"	"58"
n/a	"html-keyboard-response"	"133"	"378487"	"0.0-5.0-2.0-0.40"	"k5le04"	"563"	"1134"	"chrome"	"109.0.0"	"FALSE"	"Windows 10"	"60.1"	"026"	n/a	n/a	n/a	n/a	n/a	n/a	"fixation"	n/a	n/a	n/a	n/a	"NULL"	n/a	"NULL"	"NULL"	"NULL"	"<p style=\"color: black; font-size: 80px; padding-left: 9%; padding-right: 21%; padding-top: 41%; padding-bottom: 47%\">+</p>"	"1073"	n/a	n/a	n/a	n/a	n/a	n/a	n/a	n/a	n/a
n/a	"image-keyboard-response"	"134"	"379286"	"0.0-5.0-2.0-1.40"	"k5le04"	"563"	"1134"	"chrome"	"109.0.0"	"FALSE"	"Windows 10"	"60.1"	"026"	n/a	n/a	n/a	n/a	n/a	n/a	"Trial"	n/a	n/a	n/a	"799"	"arrowright"	n/a	"NULL"	"NULL"	"NULL"	"stimuli/VerticalHorizontal_28.75714_-0.2250.png"	n/a	"VerticalHorizontal"	"arrowright"	"1086"	"TRUE"	"VerticalHorizontal"	"28.757140000"	"-0.225000000"	"1"	"59"
n/a	"html-keyboard-response"	"135"	"380659"	"0.0-5.0-2.0-0.41"	"k5le04"	"563"	"1134"	"chrome"	"109.0.0"	"FALSE"	"Windows 10"	"60.1"	"026"	n/a	n/a	n/a	n/a	n/a	n/a	"fixation"	n/a	n/a	n/a	n/a	"NULL"	n/a	"NULL"	"NULL"	"NULL"	"<p style=\"color: black; font-size: 80px; padding-left: 32%; padding-right: 49%; padding-top: 31%; padding-bottom: 5%\">+</p>"	"1368"	n/a	n/a	n/a	n/a	n/a	n/a	n/a	n/a	n/a
n/a	"image-keyboard-response"	"136"	"381490"	"0.0-5.0-2.0-1.41"	"k5le04"	"563"	"1134"	"chrome"	"109.0.0"	"FALSE"	"Windows 10"	"60.1"	"026"	n/a	n/a	n/a	n/a	n/a	n/a	"Trial"	n/a	n/a	n/a	"831"	"arrowleft"	n/a	"NULL"	"NULL"	"NULL"	"stimuli/VerticalHorizontal_28.75714_0.10960.png"	n/a	"VerticalHorizontal"	"arrowleft"	"1373"	"TRUE"	"VerticalHorizontal"	"28.757140000"	"0.1096000000"	"1"	"60"
n/a	"html-keyboard-response"	"137"	"382973"	"0.0-5.0-2.0-0.42"	"k5le04"	"563"	"1134"	"chrome"	"109.0.0"	"FALSE"	"Windows 10"	"60.1"	"026"	n/a	n/a	n/a	n/a	n/a	n/a	"fixation"	n/a	n/a	n/a	n/a	"NULL"	n/a	"NULL"	"NULL"	"NULL"	"<p style=\"color: black; font-size: 80px; padding-left: 1%; padding-right: 43%; padding-top: 18%; padding-bottom: 49%\">+</p>"	"1469"	n/a	n/a	n/a	n/a	n/a	n/a	n/a	n/a	n/a
n/a	"image-keyboard-response"	"138"	"383824"	"0.0-5.0-2.0-1.42"	"k5le04"	"563"	"1134"	"chrome"	"109.0.0"	"FALSE"	"Windows 10"	"60.1"	"026"	n/a	n/a	n/a	n/a	n/a	n/a	"Trial"	n/a	n/a	n/a	"850"	"arrowleft"	n/a	"NULL"	"NULL"	"NULL"	"stimuli/VerticalHorizontal_3.30000_0.10960.png"	n/a	"VerticalHorizontal"	"arrowleft"	"1483"	"TRUE"	"VerticalHorizontal"	"3.3000000000"	"0.1096000000"	"1"	"61"
n/a	"html-keyboard-response"	"139"	"384860"	"0.0-5.0-2.0-0.43"	"k5le04"	"563"	"1134"	"chrome"	"109.0.0"	"FALSE"	"Windows 10"	"60.1"	"026"	n/a	n/a	n/a	n/a	n/a	n/a	"fixation"	n/a	n/a	n/a	n/a	"NULL"	n/a	"NULL"	"NULL"	"NULL"	"<p style=\"color: black; font-size: 80px; padding-left: 2%; padding-right: 35%; padding-top: 31%; padding-bottom: 10%\">+</p>"	"1024"	n/a	n/a	n/a	n/a	n/a	n/a	n/a	n/a	n/a
n/a	"image-keyboard-response"	"140"	"385436"	"0.0-5.0-2.0-1.43"	"k5le04"	"563"	"1134"	"chrome"	"109.0.0"	"FALSE"	"Windows 10"	"60.1"	"026"	n/a	n/a	n/a	n/a	n/a	n/a	"Trial"	n/a	n/a	n/a	"575"	"arrowleft"	n/a	"NULL"	"NULL"	"NULL"	"stimuli/VerticalHorizontal_20.27143_0.16217.png"	n/a	"VerticalHorizontal"	"arrowleft"	"1036"	"TRUE"	"VerticalHorizontal"	"20.271430000"	"0.1621700000"	"1"	"62"
n/a	"html-keyboard-response"	"141"	"386751"	"0.0-5.0-2.0-0.44"	"k5le04"	"563"	"1134"	"chrome"	"109.0.0"	"FALSE"	"Windows 10"	"60.1"	"026"	n/a	n/a	n/a	n/a	n/a	n/a	"fixation"	n/a	n/a	n/a	n/a	"NULL"	n/a	"NULL"	"NULL"	"NULL"	"<p style=\"color: black; font-size: 80px; padding-left: 3%; padding-right: 1%; padding-top: 49%; padding-bottom: 30%\">+</p>"	"1306"	n/a	n/a	n/a	n/a	n/a	n/a	n/a	n/a	n/a
n/a	"image-keyboard-response"	"142"	"387638"	"0.0-5.0-2.0-1.44"	"k5le04"	"563"	"1134"	"chrome"	"109.0.0"	"FALSE"	"Windows 10"	"60.1"	"026"	n/a	n/a	n/a	n/a	n/a	n/a	"Trial"	n/a	n/a	n/a	"883"	"arrowleft"	n/a	"NULL"	"NULL"	"NULL"	"stimuli/VerticalHorizontal_-11.78571_0.22500.png"	n/a	"VerticalHorizontal"	"arrowleft"	"1315"	"TRUE"	"VerticalHorizontal"	"-11.78571000"	"0.2250000000"	"1"	"63"
n/a	"html-keyboard-response"	"143"	"388910"	"0.0-5.0-2.0-0.45"	"k5le04"	"563"	"1134"	"chrome"	"109.0.0"	"FALSE"	"Windows 10"	"60.1"	"026"	n/a	n/a	n/a	n/a	n/a	n/a	"fixation"	n/a	n/a	n/a	n/a	"NULL"	n/a	"NULL"	"NULL"	"NULL"	"<p style=\"color: black; font-size: 80px; padding-left: 1%; padding-right: 33%; padding-top: 3%; padding-bottom: 38%\">+</p>"	"1262"	n/a	n/a	n/a	n/a	n/a	n/a	n/a	n/a	n/a
n/a	"image-keyboard-response"	"144"	"389452"	"0.0-5.0-2.0-1.45"	"k5le04"	"563"	"1134"	"chrome"	"109.0.0"	"FALSE"	"Windows 10"	"60.1"	"026"	n/a	n/a	n/a	n/a	n/a	n/a	"Trial"	n/a	n/a	n/a	"541"	"arrowleft"	n/a	"NULL"	"NULL"	"NULL"	"stimuli/VerticalHorizontal_-11.78571_0.10960.png"	n/a	"VerticalHorizontal"	"arrowleft"	"1272"	"TRUE"	"VerticalHorizontal"	"-11.78571000"	"0.1096000000"	"1"	"64"
n/a	"html-keyboard-response"	"145"	"390934"	"0.0-5.0-2.0-0.46"	"k5le04"	"563"	"1134"	"chrome"	"109.0.0"	"FALSE"	"Windows 10"	"60.1"	"026"	n/a	n/a	n/a	n/a	n/a	n/a	"fixation"	n/a	n/a	n/a	n/a	"NULL"	n/a	"NULL"	"NULL"	"NULL"	"<p style=\"color: black; font-size: 80px; padding-left: 24%; padding-right: 20%; padding-top: 45%; padding-bottom: 29%\">+</p>"	"1462"	n/a	n/a	n/a	n/a	n/a	n/a	n/a	n/a	n/a
n/a	"image-keyboard-response"	"146"	"391429"	"0.0-5.0-2.0-1.46"	"k5le04"	"563"	"1134"	"chrome"	"109.0.0"	"FALSE"	"Windows 10"	"60.1"	"026"	n/a	n/a	n/a	n/a	n/a	n/a	"Trial"	n/a	n/a	n/a	"495"	"arrowleft"	n/a	"NULL"	"NULL"	"NULL"	"stimuli/VerticalHorizontal_-3.3000_0.22500.png"	n/a	"VerticalHorizontal"	"arrowleft"	"1482"	"TRUE"	"VerticalHorizontal"	"-3.300000000"	"0.2250000000"	"1"	"65"
n/a	"html-keyboard-response"	"147"	"392763"	"0.0-5.0-2.0-0.47"	"k5le04"	"563"	"1134"	"chrome"	"109.0.0"	"FALSE"	"Windows 10"	"60.1"	"026"	n/a	n/a	n/a	n/a	n/a	n/a	"fixation"	n/a	n/a	n/a	n/a	"NULL"	n/a	"NULL"	"NULL"	"NULL"	"<p style=\"color: black; font-size: 80px; padding-left: 47%; padding-right: 27%; padding-top: 20%; padding-bottom: 3%\">+</p>"	"1315"	n/a	n/a	n/a	n/a	n/a	n/a	n/a	n/a	n/a
n/a	"image-keyboard-response"	"148"	"393443"	"0.0-5.0-2.0-1.47"	"k5le04"	"563"	"1134"	"chrome"	"109.0.0"	"FALSE"	"Windows 10"	"60.1"	"026"	n/a	n/a	n/a	n/a	n/a	n/a	"Trial"	n/a	n/a	n/a	"679"	"arrowright"	n/a	"NULL"	"NULL"	"NULL"	"stimuli/VerticalHorizontal_-20.27143_-0.0673.png"	n/a	"VerticalHorizontal"	"arrowright"	"1334"	"TRUE"	"VerticalHorizontal"	"-20.27143000"	"-0.067300000"	"1"	"66"
n/a	"html-keyboard-response"	"149"	"394740"	"0.0-5.0-2.0-0.48"	"k5le04"	"563"	"1134"	"chrome"	"109.0.0"	"FALSE"	"Windows 10"	"60.1"	"026"	n/a	n/a	n/a	n/a	n/a	n/a	"fixation"	n/a	n/a	n/a	n/a	"NULL"	n/a	"NULL"	"NULL"	"NULL"	"<p style=\"color: black; font-size: 80px; padding-left: 46%; padding-right: 0%; padding-top: 32%; padding-bottom: 4%\">+</p>"	"1284"	n/a	n/a	n/a	n/a	n/a	n/a	n/a	n/a	n/a
n/a	"image-keyboard-response"	"150"	"395234"	"0.0-5.0-2.0-1.48"	"k5le04"	"563"	"1134"	"chrome"	"109.0.0"	"FALSE"	"Windows 10"	"60.1"	"026"	n/a	n/a	n/a	n/a	n/a	n/a	"Trial"	n/a	n/a	n/a	"493"	"arrowleft"	n/a	"NULL"	"NULL"	"NULL"	"stimuli/VerticalHorizontal_28.75714_0.22500.png"	n/a	"VerticalHorizontal"	"arrowleft"	"1297"	"TRUE"	"VerticalHorizontal"	"28.757140000"	"0.2250000000"	"1"	"67"
n/a	"html-keyboard-response"	"151"	"396324"	"0.0-5.0-2.0-0.49"	"k5le04"	"563"	"1134"	"chrome"	"109.0.0"	"FALSE"	"Windows 10"	"60.1"	"026"	n/a	n/a	n/a	n/a	n/a	n/a	"fixation"	n/a	n/a	n/a	n/a	"NULL"	n/a	"NULL"	"NULL"	"NULL"	"<p style=\"color: black; font-size: 80px; padding-left: 28%; padding-right: 16%; padding-top: 44%; padding-bottom: 36%\">+</p>"	"1071"	n/a	n/a	n/a	n/a	n/a	n/a	n/a	n/a	n/a
n/a	"image-keyboard-response"	"152"	"397247"	"0.0-5.0-2.0-1.49"	"k5le04"	"563"	"1134"	"chrome"	"109.0.0"	"FALSE"	"Windows 10"	"60.1"	"026"	n/a	n/a	n/a	n/a	n/a	n/a	"Trial"	n/a	n/a	n/a	"922"	"arrowright"	n/a	"NULL"	"NULL"	"NULL"	"stimuli/VerticalHorizontal_28.75714_-0.0673.png"	n/a	"VerticalHorizontal"	"arrowright"	"1090"	"TRUE"	"VerticalHorizontal"	"28.757140000"	"-0.067300000"	"1"	"68"
n/a	"html-keyboard-response"	"153"	"398596"	"0.0-5.0-2.0-0.50"	"k5le04"	"563"	"1134"	"chrome"	"109.0.0"	"FALSE"	"Windows 10"	"60.1"	"026"	n/a	n/a	n/a	n/a	n/a	n/a	"fixation"	n/a	n/a	n/a	n/a	"NULL"	n/a	"NULL"	"NULL"	"NULL"	"<p style=\"color: black; font-size: 80px; padding-left: 42%; padding-right: 15%; padding-top: 43%; padding-bottom: 8%\">+</p>"	"1343"	n/a	n/a	n/a	n/a	n/a	n/a	n/a	n/a	n/a
n/a	"image-keyboard-response"	"154"	"399184"	"0.0-5.0-2.0-1.50"	"k5le04"	"563"	"1134"	"chrome"	"109.0.0"	"FALSE"	"Windows 10"	"60.1"	"026"	n/a	n/a	n/a	n/a	n/a	n/a	"Trial"	n/a	n/a	n/a	"588"	"arrowleft"	n/a	"NULL"	"NULL"	"NULL"	"stimuli/VerticalHorizontal_-3.3000_0.10960.png"	n/a	"VerticalHorizontal"	"arrowleft"	"1349"	"TRUE"	"VerticalHorizontal"	"-3.300000000"	"0.1096000000"	"1"	"69"
n/a	"html-keyboard-response"	"155"	"400279"	"0.0-5.0-2.0-0.51"	"k5le04"	"563"	"1134"	"chrome"	"109.0.0"	"FALSE"	"Windows 10"	"60.1"	"026"	n/a	n/a	n/a	n/a	n/a	n/a	"fixation"	n/a	n/a	n/a	n/a	"NULL"	n/a	"NULL"	"NULL"	"NULL"	"<p style=\"color: black; font-size: 80px; padding-left: 42%; padding-right: 2%; padding-top: 16%; padding-bottom: 25%\">+</p>"	"1082"	n/a	n/a	n/a	n/a	n/a	n/a	n/a	n/a	n/a
n/a	"image-keyboard-response"	"156"	"400797"	"0.0-5.0-2.0-1.51"	"k5le04"	"563"	"1134"	"chrome"	"109.0.0"	"FALSE"	"Windows 10"	"60.1"	"026"	n/a	n/a	n/a	n/a	n/a	n/a	"Trial"	n/a	n/a	n/a	"517"	"arrowleft"	n/a	"NULL"	"NULL"	"NULL"	"stimuli/VerticalHorizontal_11.78571_0.10960.png"	n/a	"VerticalHorizontal"	"arrowleft"	"1095"	"TRUE"	"VerticalHorizontal"	"11.785710000"	"0.1096000000"	"1"	"70"
n/a	"html-keyboard-response"	"157"	"401987"	"0.0-5.0-2.0-0.52"	"k5le04"	"563"	"1134"	"chrome"	"109.0.0"	"FALSE"	"Windows 10"	"60.1"	"026"	n/a	n/a	n/a	n/a	n/a	n/a	"fixation"	n/a	n/a	n/a	n/a	"NULL"	n/a	"NULL"	"NULL"	"NULL"	"<p style=\"color: black; font-size: 80px; padding-left: 41%; padding-right: 36%; padding-top: 16%; padding-bottom: 19%\">+</p>"	"1184"	n/a	n/a	n/a	n/a	n/a	n/a	n/a	n/a	n/a
n/a	"image-keyboard-response"	"158"	"402774"	"0.0-5.0-2.0-1.52"	"k5le04"	"563"	"1134"	"chrome"	"109.0.0"	"FALSE"	"Windows 10"	"60.1"	"026"	n/a	n/a	n/a	n/a	n/a	n/a	"Trial"	n/a	n/a	n/a	"786"	"arrowright"	n/a	"NULL"	"NULL"	"NULL"	"stimuli/VerticalHorizontal_-20.27143_-0.16217.png"	n/a	"VerticalHorizontal"	"arrowright"	"1190"	"TRUE"	"VerticalHorizontal"	"-20.27143000"	"-0.162170000"	"1"	"71"
n/a	"html-keyboard-response"	"159"	"403924"	"0.0-5.0-2.0-0.53"	"k5le04"	"563"	"1134"	"chrome"	"109.0.0"	"FALSE"	"Windows 10"	"60.1"	"026"	n/a	n/a	n/a	n/a	n/a	n/a	"fixation"	n/a	n/a	n/a	n/a	"NULL"	n/a	"NULL"	"NULL"	"NULL"	"<p style=\"color: black; font-size: 80px; padding-left: 34%; padding-right: 35%; padding-top: 8%; padding-bottom: 23%\">+</p>"	"1130"	n/a	n/a	n/a	n/a	n/a	n/a	n/a	n/a	n/a
n/a	"image-keyboard-response"	"160"	"404614"	"0.0-5.0-2.0-1.53"	"k5le04"	"563"	"1134"	"chrome"	"109.0.0"	"FALSE"	"Windows 10"	"60.1"	"026"	n/a	n/a	n/a	n/a	n/a	n/a	"Trial"	n/a	n/a	n/a	"689"	"arrowright"	n/a	"NULL"	"NULL"	"NULL"	"stimuli/VerticalHorizontal_-3.3000_-0.16217.png"	n/a	"VerticalHorizontal"	"arrowright"	"1150"	"TRUE"	"VerticalHorizontal"	"-3.300000000"	"-0.162170000"	"1"	"72"
n/a	"html-keyboard-response"	"161"	"406041"	"0.0-5.0-2.0-0.54"	"k5le04"	"563"	"1134"	"chrome"	"109.0.0"	"FALSE"	"Windows 10"	"60.1"	"026"	n/a	n/a	n/a	n/a	n/a	n/a	"fixation"	n/a	n/a	n/a	n/a	"NULL"	n/a	"NULL"	"NULL"	"NULL"	"<p style=\"color: black; font-size: 80px; padding-left: 24%; padding-right: 46%; padding-top: 17%; padding-bottom: 24%\">+</p>"	"1420"	n/a	n/a	n/a	n/a	n/a	n/a	n/a	n/a	n/a
n/a	"image-keyboard-response"	"162"	"406958"	"0.0-5.0-2.0-1.54"	"k5le04"	"563"	"1134"	"chrome"	"109.0.0"	"FALSE"	"Windows 10"	"60.1"	"026"	n/a	n/a	n/a	n/a	n/a	n/a	"Trial"	n/a	n/a	n/a	"916"	"arrowright"	n/a	"NULL"	"NULL"	"NULL"	"stimuli/VerticalHorizontal_20.27143_-0.16217.png"	n/a	"VerticalHorizontal"	"arrowright"	"1427"	"TRUE"	"VerticalHorizontal"	"20.271430000"	"-0.162170000"	"1"	"73"
n/a	"html-keyboard-response"	"163"	"408177"	"0.0-5.0-2.0-0.55"	"k5le04"	"563"	"1134"	"chrome"	"109.0.0"	"FALSE"	"Windows 10"	"60.1"	"026"	n/a	n/a	n/a	n/a	n/a	n/a	"fixation"	n/a	n/a	n/a	n/a	"NULL"	n/a	"NULL"	"NULL"	"NULL"	"<p style=\"color: black; font-size: 80px; padding-left: 23%; padding-right: 21%; padding-top: 11%; padding-bottom: 44%\">+</p>"	"1207"	n/a	n/a	n/a	n/a	n/a	n/a	n/a	n/a	n/a
n/a	"image-keyboard-response"	"164"	"408695"	"0.0-5.0-2.0-1.55"	"k5le04"	"563"	"1134"	"chrome"	"109.0.0"	"FALSE"	"Windows 10"	"60.1"	"026"	n/a	n/a	n/a	n/a	n/a	n/a	"Trial"	n/a	n/a	n/a	"518"	"arrowright"	n/a	"NULL"	"NULL"	"NULL"	"stimuli/VerticalHorizontal_-11.78571_-0.16217.png"	n/a	"VerticalHorizontal"	"arrowright"	"1219"	"TRUE"	"VerticalHorizontal"	"-11.78571000"	"-0.162170000"	"1"	"74"
n/a	"html-keyboard-response"	"165"	"409767"	"0.0-5.0-2.0-0.56"	"k5le04"	"563"	"1134"	"chrome"	"109.0.0"	"FALSE"	"Windows 10"	"60.1"	"026"	n/a	n/a	n/a	n/a	n/a	n/a	"fixation"	n/a	n/a	n/a	n/a	"NULL"	n/a	"NULL"	"NULL"	"NULL"	"<p style=\"color: black; font-size: 80px; padding-left: 35%; padding-right: 6%; padding-top: 44%; padding-bottom: 1%\">+</p>"	"1056"	n/a	n/a	n/a	n/a	n/a	n/a	n/a	n/a	n/a
n/a	"image-keyboard-response"	"166"	"410424"	"0.0-5.0-2.0-1.56"	"k5le04"	"563"	"1134"	"chrome"	"109.0.0"	"FALSE"	"Windows 10"	"60.1"	"026"	n/a	n/a	n/a	n/a	n/a	n/a	"Trial"	n/a	n/a	n/a	"656"	"arrowright"	n/a	"NULL"	"NULL"	"NULL"	"stimuli/VerticalHorizontal_-28.75714_-0.16217.png"	n/a	"VerticalHorizontal"	"arrowright"	"1072"	"TRUE"	"VerticalHorizontal"	"-28.75714000"	"-0.162170000"	"1"	"75"
n/a	"html-keyboard-response"	"167"	"411725"	"0.0-5.0-2.0-0.57"	"k5le04"	"563"	"1134"	"chrome"	"109.0.0"	"FALSE"	"Windows 10"	"60.1"	"026"	n/a	n/a	n/a	n/a	n/a	n/a	"fixation"	n/a	n/a	n/a	n/a	"NULL"	n/a	"NULL"	"NULL"	"NULL"	"<p style=\"color: black; font-size: 80px; padding-left: 31%; padding-right: 38%; padding-top: 9%; padding-bottom: 8%\">+</p>"	"1292"	n/a	n/a	n/a	n/a	n/a	n/a	n/a	n/a	n/a
n/a	"image-keyboard-response"	"168"	"412271"	"0.0-5.0-2.0-1.57"	"k5le04"	"563"	"1134"	"chrome"	"109.0.0"	"FALSE"	"Windows 10"	"60.1"	"026"	n/a	n/a	n/a	n/a	n/a	n/a	"Trial"	n/a	n/a	n/a	"545"	"arrowleft"	n/a	"NULL"	"NULL"	"NULL"	"stimuli/VerticalHorizontal_-20.27143_0.16217.png"	n/a	"VerticalHorizontal"	"arrowleft"	"1301"	"TRUE"	"VerticalHorizontal"	"-20.27143000"	"0.1621700000"	"1"	"76"
n/a	"html-keyboard-response"	"169"	"413393"	"0.0-5.0-2.0-0.58"	"k5le04"	"563"	"1134"	"chrome"	"109.0.0"	"FALSE"	"Windows 10"	"60.1"	"026"	n/a	n/a	n/a	n/a	n/a	n/a	"fixation"	n/a	n/a	n/a	n/a	"NULL"	n/a	"NULL"	"NULL"	"NULL"	"<p style=\"color: black; font-size: 80px; padding-left: 29%; padding-right: 49%; padding-top: 26%; padding-bottom: 23%\">+</p>"	"1109"	n/a	n/a	n/a	n/a	n/a	n/a	n/a	n/a	n/a
n/a	"image-keyboard-response"	"170"	"414015"	"0.0-5.0-2.0-1.58"	"k5le04"	"563"	"1134"	"chrome"	"109.0.0"	"FALSE"	"Windows 10"	"60.1"	"026"	n/a	n/a	n/a	n/a	n/a	n/a	"Trial"	n/a	n/a	n/a	"621"	"arrowleft"	n/a	"NULL"	"NULL"	"NULL"	"stimuli/VerticalHorizontal_-28.75714_0.10960.png"	n/a	"VerticalHorizontal"	"arrowleft"	"1122"	"TRUE"	"VerticalHorizontal"	"-28.75714000"	"0.1096000000"	"1"	"77"
n/a	"html-keyboard-response"	"171"	"415075"	"0.0-5.0-2.0-0.59"	"k5le04"	"563"	"1134"	"chrome"	"109.0.0"	"FALSE"	"Windows 10"	"60.1"	"026"	n/a	n/a	n/a	n/a	n/a	n/a	"fixation"	n/a	n/a	n/a	n/a	"NULL"	n/a	"NULL"	"NULL"	"NULL"	"<p style=\"color: black; font-size: 80px; padding-left: 47%; padding-right: 41%; padding-top: 23%; padding-bottom: 31%\">+</p>"	"1054"	n/a	n/a	n/a	n/a	n/a	n/a	n/a	n/a	n/a
n/a	"image-keyboard-response"	"172"	"415505"	"0.0-5.0-2.0-1.59"	"k5le04"	"563"	"1134"	"chrome"	"109.0.0"	"FALSE"	"Windows 10"	"60.1"	"026"	n/a	n/a	n/a	n/a	n/a	n/a	"Trial"	n/a	n/a	n/a	"429"	"arrowright"	n/a	"NULL"	"NULL"	"NULL"	"stimuli/VerticalHorizontal_-28.75714_-0.1096.png"	n/a	"VerticalHorizontal"	"arrowright"	"1060"	"TRUE"	"VerticalHorizontal"	"-28.75714000"	"-0.109600000"	"1"	"78"
n/a	"html-keyboard-response"	"173"	"416662"	"0.0-5.0-2.0-0.60"	"k5le04"	"563"	"1134"	"chrome"	"109.0.0"	"FALSE"	"Windows 10"	"60.1"	"026"	n/a	n/a	n/a	n/a	n/a	n/a	"fixation"	n/a	n/a	n/a	n/a	"NULL"	n/a	"NULL"	"NULL"	"NULL"	"<p style=\"color: black; font-size: 80px; padding-left: 32%; padding-right: 37%; padding-top: 44%; padding-bottom: 43%\">+</p>"	"1141"	n/a	n/a	n/a	n/a	n/a	n/a	n/a	n/a	n/a
n/a	"image-keyboard-response"	"174"	"417117"	"0.0-5.0-2.0-1.60"	"k5le04"	"563"	"1134"	"chrome"	"109.0.0"	"FALSE"	"Windows 10"	"60.1"	"026"	n/a	n/a	n/a	n/a	n/a	n/a	"Trial"	n/a	n/a	n/a	"455"	"arrowright"	n/a	"NULL"	"NULL"	"NULL"	"stimuli/VerticalHorizontal_-11.78571_-0.2250.png"	n/a	"VerticalHorizontal"	"arrowright"	"1157"	"TRUE"	"VerticalHorizontal"	"-11.78571000"	"-0.225000000"	"1"	"79"
n/a	"html-keyboard-response"	"175"	"418174"	"0.0-5.0-2.0-0.61"	"k5le04"	"563"	"1134"	"chrome"	"109.0.0"	"FALSE"	"Windows 10"	"60.1"	"026"	n/a	n/a	n/a	n/a	n/a	n/a	"fixation"	n/a	n/a	n/a	n/a	"NULL"	n/a	"NULL"	"NULL"	"NULL"	"<p style=\"color: black; font-size: 80px; padding-left: 9%; padding-right: 23%; padding-top: 21%; padding-bottom: 6%\">+</p>"	"1036"	n/a	n/a	n/a	n/a	n/a	n/a	n/a	n/a	n/a
n/a	"image-keyboard-response"	"176"	"418615"	"0.0-5.0-2.0-1.61"	"k5le04"	"563"	"1134"	"chrome"	"109.0.0"	"FALSE"	"Windows 10"	"60.1"	"026"	n/a	n/a	n/a	n/a	n/a	n/a	"Trial"	n/a	n/a	n/a	"440"	"arrowleft"	n/a	"NULL"	"NULL"	"NULL"	"stimuli/VerticalHorizontal_-28.75714_0.16217.png"	n/a	"VerticalHorizontal"	"arrowleft"	"1057"	"TRUE"	"VerticalHorizontal"	"-28.75714000"	"0.1621700000"	"1"	"80"
n/a	"html-keyboard-response"	"177"	"419775"	"0.0-5.0-2.0-0.62"	"k5le04"	"563"	"1134"	"chrome"	"109.0.0"	"FALSE"	"Windows 10"	"60.1"	"026"	n/a	n/a	n/a	n/a	n/a	n/a	"fixation"	n/a	n/a	n/a	n/a	"NULL"	n/a	"NULL"	"NULL"	"NULL"	"<p style=\"color: black; font-size: 80px; padding-left: 30%; padding-right: 11%; padding-top: 42%; padding-bottom: 22%\">+</p>"	"1138"	n/a	n/a	n/a	n/a	n/a	n/a	n/a	n/a	n/a
n/a	"image-keyboard-response"	"178"	"420395"	"0.0-5.0-2.0-1.62"	"k5le04"	"563"	"1134"	"chrome"	"109.0.0"	"FALSE"	"Windows 10"	"60.1"	"026"	n/a	n/a	n/a	n/a	n/a	n/a	"Trial"	n/a	n/a	n/a	"619"	"arrowleft"	n/a	"NULL"	"NULL"	"NULL"	"stimuli/VerticalHorizontal_3.30000_0.16217.png"	n/a	"VerticalHorizontal"	"arrowleft"	"1160"	"TRUE"	"VerticalHorizontal"	"3.3000000000"	"0.1621700000"	"1"	"81"
n/a	"html-keyboard-response"	"179"	"421475"	"0.0-5.0-2.0-0.63"	"k5le04"	"563"	"1134"	"chrome"	"109.0.0"	"FALSE"	"Windows 10"	"60.1"	"026"	n/a	n/a	n/a	n/a	n/a	n/a	"fixation"	n/a	n/a	n/a	n/a	"NULL"	n/a	"NULL"	"NULL"	"NULL"	"<p style=\"color: black; font-size: 80px; padding-left: 20%; padding-right: 39%; padding-top: 10%; padding-bottom: 34%\">+</p>"	"1072"	n/a	n/a	n/a	n/a	n/a	n/a	n/a	n/a	n/a
n/a	"image-keyboard-response"	"180"	"422239"	"0.0-5.0-2.0-1.63"	"k5le04"	"563"	"1134"	"chrome"	"109.0.0"	"FALSE"	"Windows 10"	"60.1"	"026"	n/a	n/a	n/a	n/a	n/a	n/a	"Trial"	n/a	n/a	n/a	"763"	"arrowright"	n/a	"NULL"	"NULL"	"NULL"	"stimuli/VerticalHorizontal_28.75714_-0.1096.png"	n/a	"VerticalHorizontal"	"arrowright"	"1080"	"TRUE"	"VerticalHorizontal"	"28.757140000"	"-0.109600000"	"1"	"82"
n/a	"html-button-response"	"181"	"425620"	"0.0-5.0-3.0"	"k5le04"	"563"	"1134"	"chrome"	"109.0.0"	"FALSE"	"Windows 10"	"60.1"	"026"	n/a	n/a	n/a	n/a	n/a	n/a	"block_results"	n/a	n/a	n/a	"3379"	"0"	n/a	"NULL"	"NULL"	"NULL"	"<p>Your score for this illusion is <p style=\"color: black; font-size: 48px; font-weight: bold;\">75.7 %</p><hr><p>Can you do better in the next illusion?</p>"	n/a	n/a	n/a	n/a	n/a	n/a	n/a	n/a	n/a	n/a
"TRUE"	"preload"	"182"	"425773"	"0.0-6.0-0.0"	"k5le04"	"563"	"1134"	"chrome"	"109.0.0"	"FALSE"	"Windows 10"	"60.1"	"026"	n/a	n/a	n/a	n/a	n/a	n/a	n/a	n/a	n/a	n/a	n/a	"NULL"	"FALSE"	"list()"	"list()"	"list()"	n/a	n/a	n/a	n/a	n/a	n/a	n/a	n/a	n/a	n/a	n/a
n/a	"html-keyboard-response"	"183"	"440224"	"0.0-6.0-1.0"	"k5le04"	"563"	"1134"	"chrome"	"109.0.0"	"FALSE"	"Windows 10"	"60.1"	"026"	n/a	n/a	n/a	n/a	n/a	n/a	n/a	n/a	n/a	n/a	"14450"	"enter"	n/a	"NULL"	"NULL"	"NULL"	"<p><b>Part 2/6</b></p><p>In this part, two horizontal red lines will appear one above the other.</p><p>Your task is to select which <b>line is longer</b> in length as fast as you can, without making errors.</p><p>Don't get distracted by the surrounding black arrows at the end of the red lines!</p><p>Press <b>the UP or the DOWN arrow</b> to indicate where is the longer <b>red line.</b></p><div style='float: center'><img src='materials/instructions/MullerLyer_Demo.png' height='300'></img><p><img src='utils/answer/answer_updown_keyboard.PNG' height='150'></img></p><p class='small'>In this example, the correct answer is the <b>UP arrow</b>.</p></div><p>Are you ready? <b>Press ENTER to start</b></p>"	n/a	n/a	n/a	n/a	n/a	n/a	n/a	n/a	n/a	n/a
n/a	"html-keyboard-response"	"184"	"442059"	"0.0-6.0-2.0-0.0"	"k5le04"	"563"	"1134"	"chrome"	"109.0.0"	"FALSE"	"Windows 10"	"60.1"	"026"	n/a	n/a	n/a	n/a	n/a	n/a	"fixation"	n/a	n/a	n/a	n/a	"NULL"	n/a	"NULL"	"NULL"	"NULL"	"<p style=\"color: black; font-size: 80px; padding-left: 4%; padding-right: 6%; padding-top: 46%; padding-bottom: 11%\">+</p>"	"1320"	n/a	n/a	n/a	n/a	n/a	n/a	n/a	n/a	n/a
n/a	"image-keyboard-response"	"185"	"442866"	"0.0-6.0-2.0-1.0"	"k5le04"	"563"	"1134"	"chrome"	"109.0.0"	"FALSE"	"Windows 10"	"60.1"	"026"	n/a	n/a	n/a	n/a	n/a	n/a	"Trial"	n/a	n/a	n/a	"806"	"arrowdown"	n/a	"NULL"	"NULL"	"NULL"	"stimuli/MullerLyer_-8.21429_-0.14541.png"	n/a	"MullerLyer"	"arrowdown"	"1835"	"TRUE"	"MullerLyer"	"-8.214290000"	"-0.145410000"	"2"	"1"
n/a	"html-keyboard-response"	"186"	"444138"	"0.0-6.0-2.0-0.1"	"k5le04"	"563"	"1134"	"chrome"	"109.0.0"	"FALSE"	"Windows 10"	"60.1"	"026"	n/a	n/a	n/a	n/a	n/a	n/a	"fixation"	n/a	n/a	n/a	n/a	"NULL"	n/a	"NULL"	"NULL"	"NULL"	"<p style=\"color: black; font-size: 80px; padding-left: 3%; padding-right: 13%; padding-top: 18%; padding-bottom: 33%\">+</p>"	"1260"	n/a	n/a	n/a	n/a	n/a	n/a	n/a	n/a	n/a
n/a	"image-keyboard-response"	"187"	"444717"	"0.0-6.0-2.0-1.1"	"k5le04"	"563"	"1134"	"chrome"	"109.0.0"	"FALSE"	"Windows 10"	"60.1"	"026"	n/a	n/a	n/a	n/a	n/a	n/a	"Trial"	n/a	n/a	n/a	"578"	"arrowdown"	n/a	"NULL"	"NULL"	"NULL"	"stimuli/MullerLyer_-20.04286_-0.3500.png"	n/a	"MullerLyer"	"arrowdown"	"1272"	"TRUE"	"MullerLyer"	"-20.04286000"	"-0.350000000"	"2"	"2"
n/a	"html-keyboard-response"	"188"	"446050"	"0.0-6.0-2.0-0.2"	"k5le04"	"563"	"1134"	"chrome"	"109.0.0"	"FALSE"	"Windows 10"	"60.1"	"026"	n/a	n/a	n/a	n/a	n/a	n/a	"fixation"	n/a	n/a	n/a	n/a	"NULL"	n/a	"NULL"	"NULL"	"NULL"	"<p style=\"color: black; font-size: 80px; padding-left: 39%; padding-right: 14%; padding-top: 28%; padding-bottom: 4%\">+</p>"	"1324"	n/a	n/a	n/a	n/a	n/a	n/a	n/a	n/a	n/a
n/a	"image-keyboard-response"	"189"	"446726"	"0.0-6.0-2.0-1.2"	"k5le04"	"563"	"1134"	"chrome"	"109.0.0"	"FALSE"	"Windows 10"	"60.1"	"026"	n/a	n/a	n/a	n/a	n/a	n/a	"Trial"	n/a	n/a	n/a	"676"	"arrowup"	n/a	"NULL"	"NULL"	"NULL"	"stimuli/MullerLyer_2.30000_0.23665.png"	n/a	"MullerLyer"	"arrowup"	"1333"	"TRUE"	"MullerLyer"	"2.3000000000"	"0.2366500000"	"2"	"3"
n/a	"html-keyboard-response"	"190"	"447940"	"0.0-6.0-2.0-0.3"	"k5le04"	"563"	"1134"	"chrome"	"109.0.0"	"FALSE"	"Windows 10"	"60.1"	"026"	n/a	n/a	n/a	n/a	n/a	n/a	"fixation"	n/a	n/a	n/a	n/a	"NULL"	n/a	"NULL"	"NULL"	"NULL"	"<p style=\"color: black; font-size: 80px; padding-left: 40%; padding-right: 42%; padding-top: 23%; padding-bottom: 16%\">+</p>"	"1193"	n/a	n/a	n/a	n/a	n/a	n/a	n/a	n/a	n/a
n/a	"image-keyboard-response"	"191"	"448605"	"0.0-6.0-2.0-1.3"	"k5le04"	"563"	"1134"	"chrome"	"109.0.0"	"FALSE"	"Windows 10"	"60.1"	"026"	n/a	n/a	n/a	n/a	n/a	n/a	"Trial"	n/a	n/a	n/a	"665"	"arrowdown"	n/a	"NULL"	"NULL"	"NULL"	"stimuli/MullerLyer_-20.04286_-0.14541.png"	n/a	"MullerLyer"	"arrowdown"	"1214"	"TRUE"	"MullerLyer"	"-20.04286000"	"-0.145410000"	"2"	"4"
n/a	"html-keyboard-response"	"192"	"449738"	"0.0-6.0-2.0-0.4"	"k5le04"	"563"	"1134"	"chrome"	"109.0.0"	"FALSE"	"Windows 10"	"60.1"	"026"	n/a	n/a	n/a	n/a	n/a	n/a	"fixation"	n/a	n/a	n/a	n/a	"NULL"	n/a	"NULL"	"NULL"	"NULL"	"<p style=\"color: black; font-size: 80px; padding-left: 20%; padding-right: 22%; padding-top: 38%; padding-bottom: 46%\">+</p>"	"1124"	n/a	n/a	n/a	n/a	n/a	n/a	n/a	n/a	n/a
n/a	"image-keyboard-response"	"193"	"450924"	"0.0-6.0-2.0-1.4"	"k5le04"	"563"	"1134"	"chrome"	"109.0.0"	"FALSE"	"Windows 10"	"60.1"	"026"	n/a	n/a	n/a	n/a	n/a	n/a	"Trial"	n/a	n/a	n/a	"1185"	"arrowdown"	n/a	"NULL"	"NULL"	"NULL"	"stimuli/MullerLyer_-2.3000_-0.07627.png"	n/a	"MullerLyer"	"arrowdown"	"1133"	"TRUE"	"MullerLyer"	"-2.300000000"	"-0.076270000"	"2"	"5"
n/a	"html-keyboard-response"	"194"	"451949"	"0.0-6.0-2.0-0.5"	"k5le04"	"563"	"1134"	"chrome"	"109.0.0"	"FALSE"	"Windows 10"	"60.1"	"026"	n/a	n/a	n/a	n/a	n/a	n/a	"fixation"	n/a	n/a	n/a	n/a	"NULL"	n/a	"NULL"	"NULL"	"NULL"	"<p style=\"color: black; font-size: 80px; padding-left: 46%; padding-right: 48%; padding-top: 19%; padding-bottom: 26%\">+</p>"	"1016"	n/a	n/a	n/a	n/a	n/a	n/a	n/a	n/a	n/a
n/a	"image-keyboard-response"	"195"	"452910"	"0.0-6.0-2.0-1.5"	"k5le04"	"563"	"1134"	"chrome"	"109.0.0"	"FALSE"	"Windows 10"	"60.1"	"026"	n/a	n/a	n/a	n/a	n/a	n/a	"Trial"	n/a	n/a	n/a	"960"	"arrowup"	n/a	"NULL"	"NULL"	"NULL"	"stimuli/MullerLyer_8.21429_0.23665.png"	n/a	"MullerLyer"	"arrowup"	"1025"	"TRUE"	"MullerLyer"	"8.2142900000"	"0.2366500000"	"2"	"6"
n/a	"html-keyboard-response"	"196"	"454261"	"0.0-6.0-2.0-0.6"	"k5le04"	"563"	"1134"	"chrome"	"109.0.0"	"FALSE"	"Windows 10"	"60.1"	"026"	n/a	n/a	n/a	n/a	n/a	n/a	"fixation"	n/a	n/a	n/a	n/a	"NULL"	n/a	"NULL"	"NULL"	"NULL"	"<p style=\"color: black; font-size: 80px; padding-left: 5%; padding-right: 17%; padding-top: 40%; padding-bottom: 43%\">+</p>"	"1336"	n/a	n/a	n/a	n/a	n/a	n/a	n/a	n/a	n/a
n/a	"image-keyboard-response"	"197"	"455493"	"0.0-6.0-2.0-1.6"	"k5le04"	"563"	"1134"	"chrome"	"109.0.0"	"FALSE"	"Windows 10"	"60.1"	"026"	n/a	n/a	n/a	n/a	n/a	n/a	"Trial"	n/a	n/a	n/a	"1231"	"arrowup"	n/a	"NULL"	"NULL"	"NULL"	"stimuli/MullerLyer_-8.21429_0.07627.png"	n/a	"MullerLyer"	"arrowup"	"1351"	"TRUE"	"MullerLyer"	"-8.214290000"	"0.0762700000"	"2"	"7"
n/a	"html-keyboard-response"	"198"	"456645"	"0.0-6.0-2.0-0.7"	"k5le04"	"563"	"1134"	"chrome"	"109.0.0"	"FALSE"	"Windows 10"	"60.1"	"026"	n/a	n/a	n/a	n/a	n/a	n/a	"fixation"	n/a	n/a	n/a	n/a	"NULL"	n/a	"NULL"	"NULL"	"NULL"	"<p style=\"color: black; font-size: 80px; padding-left: 24%; padding-right: 15%; padding-top: 46%; padding-bottom: 28%\">+</p>"	"1139"	n/a	n/a	n/a	n/a	n/a	n/a	n/a	n/a	n/a
n/a	"image-keyboard-response"	"199"	"457364"	"0.0-6.0-2.0-1.7"	"k5le04"	"563"	"1134"	"chrome"	"109.0.0"	"FALSE"	"Windows 10"	"60.1"	"026"	n/a	n/a	n/a	n/a	n/a	n/a	"Trial"	n/a	n/a	n/a	"718"	"arrowdown"	n/a	"NULL"	"NULL"	"NULL"	"stimuli/MullerLyer_8.21429_0.14541.png"	n/a	"MullerLyer"	"arrowup"	"1152"	"FALSE"	"MullerLyer"	"8.2142900000"	"0.1454100000"	"2"	"8"
n/a	"html-keyboard-response"	"200"	"458424"	"0.0-6.0-2.0-0.8"	"k5le04"	"563"	"1134"	"chrome"	"109.0.0"	"FALSE"	"Windows 10"	"60.1"	"026"	n/a	n/a	n/a	n/a	n/a	n/a	"fixation"	n/a	n/a	n/a	n/a	"NULL"	n/a	"NULL"	"NULL"	"NULL"	"<p style=\"color: black; font-size: 80px; padding-left: 49%; padding-right: 46%; padding-top: 23%; padding-bottom: 21%\">+</p>"	"1052"	n/a	n/a	n/a	n/a	n/a	n/a	n/a	n/a	n/a
n/a	"image-keyboard-response"	"201"	"458943"	"0.0-6.0-2.0-1.8"	"k5le04"	"563"	"1134"	"chrome"	"109.0.0"	"FALSE"	"Windows 10"	"60.1"	"026"	n/a	n/a	n/a	n/a	n/a	n/a	"Trial"	n/a	n/a	n/a	"518"	"arrowup"	n/a	"NULL"	"NULL"	"NULL"	"stimuli/MullerLyer_-14.12857_0.07627.png"	n/a	"MullerLyer"	"arrowup"	"1060"	"TRUE"	"MullerLyer"	"-14.12857000"	"0.0762700000"	"2"	"9"
n/a	"html-keyboard-response"	"202"	"460439"	"0.0-6.0-2.0-0.9"	"k5le04"	"563"	"1134"	"chrome"	"109.0.0"	"FALSE"	"Windows 10"	"60.1"	"026"	n/a	n/a	n/a	n/a	n/a	n/a	"fixation"	n/a	n/a	n/a	n/a	"NULL"	n/a	"NULL"	"NULL"	"NULL"	"<p style=\"color: black; font-size: 80px; padding-left: 41%; padding-right: 18%; padding-top: 36%; padding-bottom: 36%\">+</p>"	"1475"	n/a	n/a	n/a	n/a	n/a	n/a	n/a	n/a	n/a
n/a	"image-keyboard-response"	"203"	"461152"	"0.0-6.0-2.0-1.9"	"k5le04"	"563"	"1134"	"chrome"	"109.0.0"	"FALSE"	"Windows 10"	"60.1"	"026"	n/a	n/a	n/a	n/a	n/a	n/a	"Trial"	n/a	n/a	n/a	"712"	"arrowdown"	n/a	"NULL"	"NULL"	"NULL"	"stimuli/MullerLyer_2.30000_-0.14541.png"	n/a	"MullerLyer"	"arrowdown"	"1496"	"TRUE"	"MullerLyer"	"2.3000000000"	"-0.145410000"	"2"	"10"
n/a	"html-keyboard-response"	"204"	"462247"	"0.0-6.0-2.0-0.10"	"k5le04"	"563"	"1134"	"chrome"	"109.0.0"	"FALSE"	"Windows 10"	"60.1"	"026"	n/a	n/a	n/a	n/a	n/a	n/a	"fixation"	n/a	n/a	n/a	n/a	"NULL"	n/a	"NULL"	"NULL"	"NULL"	"<p style=\"color: black; font-size: 80px; padding-left: 31%; padding-right: 47%; padding-top: 14%; padding-bottom: 5%\">+</p>"	"1082"	n/a	n/a	n/a	n/a	n/a	n/a	n/a	n/a	n/a
n/a	"image-keyboard-response"	"205"	"462803"	"0.0-6.0-2.0-1.10"	"k5le04"	"563"	"1134"	"chrome"	"109.0.0"	"FALSE"	"Windows 10"	"60.1"	"026"	n/a	n/a	n/a	n/a	n/a	n/a	"Trial"	n/a	n/a	n/a	"556"	"arrowdown"	n/a	"NULL"	"NULL"	"NULL"	"stimuli/MullerLyer_-14.12857_-0.23665.png"	n/a	"MullerLyer"	"arrowdown"	"1095"	"TRUE"	"MullerLyer"	"-14.12857000"	"-0.236650000"	"2"	"11"
n/a	"html-keyboard-response"	"206"	"464037"	"0.0-6.0-2.0-0.11"	"k5le04"	"563"	"1134"	"chrome"	"109.0.0"	"FALSE"	"Windows 10"	"60.1"	"026"	n/a	n/a	n/a	n/a	n/a	n/a	"fixation"	n/a	n/a	n/a	n/a	"NULL"	n/a	"NULL"	"NULL"	"NULL"	"<p style=\"color: black; font-size: 80px; padding-left: 37%; padding-right: 18%; padding-top: 42%; padding-bottom: 33%\">+</p>"	"1221"	n/a	n/a	n/a	n/a	n/a	n/a	n/a	n/a	n/a
n/a	"image-keyboard-response"	"207"	"464614"	"0.0-6.0-2.0-1.11"	"k5le04"	"563"	"1134"	"chrome"	"109.0.0"	"FALSE"	"Windows 10"	"60.1"	"026"	n/a	n/a	n/a	n/a	n/a	n/a	"Trial"	n/a	n/a	n/a	"577"	"arrowup"	n/a	"NULL"	"NULL"	"NULL"	"stimuli/MullerLyer_8.21429_-0.3500.png"	n/a	"MullerLyer"	"arrowdown"	"1234"	"FALSE"	"MullerLyer"	"8.2142900000"	"-0.350000000"	"2"	"12"
n/a	"html-keyboard-response"	"208"	"466098"	"0.0-6.0-2.0-0.12"	"k5le04"	"563"	"1134"	"chrome"	"109.0.0"	"FALSE"	"Windows 10"	"60.1"	"026"	n/a	n/a	n/a	n/a	n/a	n/a	"fixation"	n/a	n/a	n/a	n/a	"NULL"	n/a	"NULL"	"NULL"	"NULL"	"<p style=\"color: black; font-size: 80px; padding-left: 29%; padding-right: 9%; padding-top: 4%; padding-bottom: 28%\">+</p>"	"1469"	n/a	n/a	n/a	n/a	n/a	n/a	n/a	n/a	n/a
n/a	"image-keyboard-response"	"209"	"467391"	"0.0-6.0-2.0-1.12"	"k5le04"	"563"	"1134"	"chrome"	"109.0.0"	"FALSE"	"Windows 10"	"60.1"	"026"	n/a	n/a	n/a	n/a	n/a	n/a	"Trial"	n/a	n/a	n/a	"1293"	"arrowup"	n/a	"NULL"	"NULL"	"NULL"	"stimuli/MullerLyer_2.30000_-0.07627.png"	n/a	"MullerLyer"	"arrowdown"	"1484"	"FALSE"	"MullerLyer"	"2.3000000000"	"-0.076270000"	"2"	"13"
n/a	"html-keyboard-response"	"210"	"468707"	"0.0-6.0-2.0-0.13"	"k5le04"	"563"	"1134"	"chrome"	"109.0.0"	"FALSE"	"Windows 10"	"60.1"	"026"	n/a	n/a	n/a	n/a	n/a	n/a	"fixation"	n/a	n/a	n/a	n/a	"NULL"	n/a	"NULL"	"NULL"	"NULL"	"<p style=\"color: black; font-size: 80px; padding-left: 23%; padding-right: 24%; padding-top: 20%; padding-bottom: 37%\">+</p>"	"1299"	n/a	n/a	n/a	n/a	n/a	n/a	n/a	n/a	n/a
n/a	"image-keyboard-response"	"211"	"469274"	"0.0-6.0-2.0-1.13"	"k5le04"	"563"	"1134"	"chrome"	"109.0.0"	"FALSE"	"Windows 10"	"60.1"	"026"	n/a	n/a	n/a	n/a	n/a	n/a	"Trial"	n/a	n/a	n/a	"567"	"arrowup"	n/a	"NULL"	"NULL"	"NULL"	"stimuli/MullerLyer_8.21429_-0.07627.png"	n/a	"MullerLyer"	"arrowdown"	"1316"	"FALSE"	"MullerLyer"	"8.2142900000"	"-0.076270000"	"2"	"14"
n/a	"html-keyboard-response"	"212"	"470731"	"0.0-6.0-2.0-0.14"	"k5le04"	"563"	"1134"	"chrome"	"109.0.0"	"FALSE"	"Windows 10"	"60.1"	"026"	n/a	n/a	n/a	n/a	n/a	n/a	"fixation"	n/a	n/a	n/a	n/a	"NULL"	n/a	"NULL"	"NULL"	"NULL"	"<p style=\"color: black; font-size: 80px; padding-left: 35%; padding-right: 31%; padding-top: 18%; padding-bottom: 5%\">+</p>"	"1445"	n/a	n/a	n/a	n/a	n/a	n/a	n/a	n/a	n/a
n/a	"image-keyboard-response"	"213"	"471608"	"0.0-6.0-2.0-1.14"	"k5le04"	"563"	"1134"	"chrome"	"109.0.0"	"FALSE"	"Windows 10"	"60.1"	"026"	n/a	n/a	n/a	n/a	n/a	n/a	"Trial"	n/a	n/a	n/a	"877"	"arrowup"	n/a	"NULL"	"NULL"	"NULL"	"stimuli/MullerLyer_14.12857_-0.23665.png"	n/a	"MullerLyer"	"arrowdown"	"1457"	"FALSE"	"MullerLyer"	"14.128570000"	"-0.236650000"	"2"	"15"
n/a	"html-keyboard-response"	"214"	"472831"	"0.0-6.0-2.0-0.15"	"k5le04"	"563"	"1134"	"chrome"	"109.0.0"	"FALSE"	"Windows 10"	"60.1"	"026"	n/a	n/a	n/a	n/a	n/a	n/a	"fixation"	n/a	n/a	n/a	n/a	"NULL"	n/a	"NULL"	"NULL"	"NULL"	"<p style=\"color: black; font-size: 80px; padding-left: 1%; padding-right: 19%; padding-top: 41%; padding-bottom: 41%\">+</p>"	"1205"	n/a	n/a	n/a	n/a	n/a	n/a	n/a	n/a	n/a
n/a	"image-keyboard-response"	"215"	"473413"	"0.0-6.0-2.0-1.15"	"k5le04"	"563"	"1134"	"chrome"	"109.0.0"	"FALSE"	"Windows 10"	"60.1"	"026"	n/a	n/a	n/a	n/a	n/a	n/a	"Trial"	n/a	n/a	n/a	"581"	"arrowup"	n/a	"NULL"	"NULL"	"NULL"	"stimuli/MullerLyer_-8.21429_0.35000.png"	n/a	"MullerLyer"	"arrowup"	"1223"	"TRUE"	"MullerLyer"	"-8.214290000"	"0.3500000000"	"2"	"16"
n/a	"html-keyboard-response"	"216"	"474587"	"0.0-6.0-2.0-0.16"	"k5le04"	"563"	"1134"	"chrome"	"109.0.0"	"FALSE"	"Windows 10"	"60.1"	"026"	n/a	n/a	n/a	n/a	n/a	n/a	"fixation"	n/a	n/a	n/a	n/a	"NULL"	n/a	"NULL"	"NULL"	"NULL"	"<p style=\"color: black; font-size: 80px; padding-left: 40%; padding-right: 29%; padding-top: 44%; padding-bottom: 31%\">+</p>"	"1155"	n/a	n/a	n/a	n/a	n/a	n/a	n/a	n/a	n/a
n/a	"image-keyboard-response"	"217"	"476647"	"0.0-6.0-2.0-1.16"	"k5le04"	"563"	"1134"	"chrome"	"109.0.0"	"FALSE"	"Windows 10"	"60.1"	"026"	n/a	n/a	n/a	n/a	n/a	n/a	"Trial"	n/a	n/a	n/a	"2059"	"arrowup"	n/a	"NULL"	"NULL"	"NULL"	"stimuli/MullerLyer_8.21429_-0.14541.png"	n/a	"MullerLyer"	"arrowdown"	"1174"	"FALSE"	"MullerLyer"	"8.2142900000"	"-0.145410000"	"2"	"17"
n/a	"html-keyboard-response"	"218"	"478098"	"0.0-6.0-2.0-0.17"	"k5le04"	"563"	"1134"	"chrome"	"109.0.0"	"FALSE"	"Windows 10"	"60.1"	"026"	n/a	n/a	n/a	n/a	n/a	n/a	"fixation"	n/a	n/a	n/a	n/a	"NULL"	n/a	"NULL"	"NULL"	"NULL"	"<p style=\"color: black; font-size: 80px; padding-left: 45%; padding-right: 31%; padding-top: 35%; padding-bottom: 17%\">+</p>"	"1441"	n/a	n/a	n/a	n/a	n/a	n/a	n/a	n/a	n/a
n/a	"image-keyboard-response"	"219"	"478563"	"0.0-6.0-2.0-1.17"	"k5le04"	"563"	"1134"	"chrome"	"109.0.0"	"FALSE"	"Windows 10"	"60.1"	"026"	n/a	n/a	n/a	n/a	n/a	n/a	"Trial"	n/a	n/a	n/a	"465"	"arrowdown"	n/a	"NULL"	"NULL"	"NULL"	"stimuli/MullerLyer_-2.3000_-0.23665.png"	n/a	"MullerLyer"	"arrowdown"	"1451"	"TRUE"	"MullerLyer"	"-2.300000000"	"-0.236650000"	"2"	"18"
n/a	"html-keyboard-response"	"220"	"480019"	"0.0-6.0-2.0-0.18"	"k5le04"	"563"	"1134"	"chrome"	"109.0.0"	"FALSE"	"Windows 10"	"60.1"	"026"	n/a	n/a	n/a	n/a	n/a	n/a	"fixation"	n/a	n/a	n/a	n/a	"NULL"	n/a	"NULL"	"NULL"	"NULL"	"<p style=\"color: black; font-size: 80px; padding-left: 44%; padding-right: 30%; padding-top: 35%; padding-bottom: 31%\">+</p>"	"1437"	n/a	n/a	n/a	n/a	n/a	n/a	n/a	n/a	n/a
n/a	"image-keyboard-response"	"221"	"480580"	"0.0-6.0-2.0-1.18"	"k5le04"	"563"	"1134"	"chrome"	"109.0.0"	"FALSE"	"Windows 10"	"60.1"	"026"	n/a	n/a	n/a	n/a	n/a	n/a	"Trial"	n/a	n/a	n/a	"561"	"arrowup"	n/a	"NULL"	"NULL"	"NULL"	"stimuli/MullerLyer_2.30000_0.14541.png"	n/a	"MullerLyer"	"arrowup"	"1456"	"TRUE"	"MullerLyer"	"2.3000000000"	"0.1454100000"	"2"	"19"
n/a	"html-keyboard-response"	"222"	"481708"	"0.0-6.0-2.0-0.19"	"k5le04"	"563"	"1134"	"chrome"	"109.0.0"	"FALSE"	"Windows 10"	"60.1"	"026"	n/a	n/a	n/a	n/a	n/a	n/a	"fixation"	n/a	n/a	n/a	n/a	"NULL"	n/a	"NULL"	"NULL"	"NULL"	"<p style=\"color: black; font-size: 80px; padding-left: 10%; padding-right: 43%; padding-top: 26%; padding-bottom: 2%\">+</p>"	"1118"	n/a	n/a	n/a	n/a	n/a	n/a	n/a	n/a	n/a
n/a	"image-keyboard-response"	"223"	"482197"	"0.0-6.0-2.0-1.19"	"k5le04"	"563"	"1134"	"chrome"	"109.0.0"	"FALSE"	"Windows 10"	"60.1"	"026"	n/a	n/a	n/a	n/a	n/a	n/a	"Trial"	n/a	n/a	n/a	"488"	"arrowdown"	n/a	"NULL"	"NULL"	"NULL"	"stimuli/MullerLyer_8.21429_0.07627.png"	n/a	"MullerLyer"	"arrowup"	"1128"	"FALSE"	"MullerLyer"	"8.2142900000"	"0.0762700000"	"2"	"20"
n/a	"html-keyboard-response"	"224"	"483298"	"0.0-6.0-2.0-0.20"	"k5le04"	"563"	"1134"	"chrome"	"109.0.0"	"FALSE"	"Windows 10"	"60.1"	"026"	n/a	n/a	n/a	n/a	n/a	n/a	"fixation"	n/a	n/a	n/a	n/a	"NULL"	n/a	"NULL"	"NULL"	"NULL"	"<p style=\"color: black; font-size: 80px; padding-left: 34%; padding-right: 9%; padding-top: 1%; padding-bottom: 35%\">+</p>"	"1087"	n/a	n/a	n/a	n/a	n/a	n/a	n/a	n/a	n/a
n/a	"image-keyboard-response"	"225"	"483654"	"0.0-6.0-2.0-1.20"	"k5le04"	"563"	"1134"	"chrome"	"109.0.0"	"FALSE"	"Windows 10"	"60.1"	"026"	n/a	n/a	n/a	n/a	n/a	n/a	"Trial"	n/a	n/a	n/a	"356"	"arrowup"	n/a	"NULL"	"NULL"	"NULL"	"stimuli/MullerLyer_-14.12857_-0.07627.png"	n/a	"MullerLyer"	"arrowdown"	"1101"	"FALSE"	"MullerLyer"	"-14.12857000"	"-0.076270000"	"2"	"21"
n/a	"html-keyboard-response"	"226"	"485065"	"0.0-6.0-2.0-0.21"	"k5le04"	"563"	"1134"	"chrome"	"109.0.0"	"FALSE"	"Windows 10"	"60.1"	"026"	n/a	n/a	n/a	n/a	n/a	n/a	"fixation"	n/a	n/a	n/a	n/a	"NULL"	n/a	"NULL"	"NULL"	"NULL"	"<p style=\"color: black; font-size: 80px; padding-left: 4%; padding-right: 9%; padding-top: 50%; padding-bottom: 26%\">+</p>"	"1399"	n/a	n/a	n/a	n/a	n/a	n/a	n/a	n/a	n/a
n/a	"image-keyboard-response"	"227"	"485693"	"0.0-6.0-2.0-1.21"	"k5le04"	"563"	"1134"	"chrome"	"109.0.0"	"FALSE"	"Windows 10"	"60.1"	"026"	n/a	n/a	n/a	n/a	n/a	n/a	"Trial"	n/a	n/a	n/a	"627"	"arrowup"	n/a	"NULL"	"NULL"	"NULL"	"stimuli/MullerLyer_-14.12857_0.14541.png"	n/a	"MullerLyer"	"arrowup"	"1411"	"TRUE"	"MullerLyer"	"-14.12857000"	"0.1454100000"	"2"	"22"
n/a	"html-keyboard-response"	"228"	"487060"	"0.0-6.0-2.0-0.22"	"k5le04"	"563"	"1134"	"chrome"	"109.0.0"	"FALSE"	"Windows 10"	"60.1"	"026"	n/a	n/a	n/a	n/a	n/a	n/a	"fixation"	n/a	n/a	n/a	n/a	"NULL"	n/a	"NULL"	"NULL"	"NULL"	"<p style=\"color: black; font-size: 80px; padding-left: 26%; padding-right: 8%; padding-top: 49%; padding-bottom: 48%\">+</p>"	"1351"	n/a	n/a	n/a	n/a	n/a	n/a	n/a	n/a	n/a
n/a	"image-keyboard-response"	"229"	"487555"	"0.0-6.0-2.0-1.22"	"k5le04"	"563"	"1134"	"chrome"	"109.0.0"	"FALSE"	"Windows 10"	"60.1"	"026"	n/a	n/a	n/a	n/a	n/a	n/a	"Trial"	n/a	n/a	n/a	"494"	"arrowup"	n/a	"NULL"	"NULL"	"NULL"	"stimuli/MullerLyer_-2.3000_0.14541.png"	n/a	"MullerLyer"	"arrowup"	"1367"	"TRUE"	"MullerLyer"	"-2.300000000"	"0.1454100000"	"2"	"23"
n/a	"html-keyboard-response"	"230"	"488785"	"0.0-6.0-2.0-0.23"	"k5le04"	"563"	"1134"	"chrome"	"109.0.0"	"FALSE"	"Windows 10"	"60.1"	"026"	n/a	n/a	n/a	n/a	n/a	n/a	"fixation"	n/a	n/a	n/a	n/a	"NULL"	n/a	"NULL"	"NULL"	"NULL"	"<p style=\"color: black; font-size: 80px; padding-left: 47%; padding-right: 9%; padding-top: 2%; padding-bottom: 45%\">+</p>"	"1217"	n/a	n/a	n/a	n/a	n/a	n/a	n/a	n/a	n/a
n/a	"image-keyboard-response"	"231"	"489392"	"0.0-6.0-2.0-1.23"	"k5le04"	"563"	"1134"	"chrome"	"109.0.0"	"FALSE"	"Windows 10"	"60.1"	"026"	n/a	n/a	n/a	n/a	n/a	n/a	"Trial"	n/a	n/a	n/a	"607"	"arrowup"	n/a	"NULL"	"NULL"	"NULL"	"stimuli/MullerLyer_2.30000_0.07627.png"	n/a	"MullerLyer"	"arrowup"	"1230"	"TRUE"	"MullerLyer"	"2.3000000000"	"0.0762700000"	"2"	"24"
n/a	"html-keyboard-response"	"232"	"490567"	"0.0-6.0-2.0-0.24"	"k5le04"	"563"	"1134"	"chrome"	"109.0.0"	"FALSE"	"Windows 10"	"60.1"	"026"	n/a	n/a	n/a	n/a	n/a	n/a	"fixation"	n/a	n/a	n/a	n/a	"NULL"	n/a	"NULL"	"NULL"	"NULL"	"<p style=\"color: black; font-size: 80px; padding-left: 11%; padding-right: 21%; padding-top: 11%; padding-bottom: 49%\">+</p>"	"1160"	n/a	n/a	n/a	n/a	n/a	n/a	n/a	n/a	n/a
n/a	"image-keyboard-response"	"233"	"491218"	"0.0-6.0-2.0-1.24"	"k5le04"	"563"	"1134"	"chrome"	"109.0.0"	"FALSE"	"Windows 10"	"60.1"	"026"	n/a	n/a	n/a	n/a	n/a	n/a	"Trial"	n/a	n/a	n/a	"650"	"arrowup"	n/a	"NULL"	"NULL"	"NULL"	"stimuli/MullerLyer_-8.21429_0.14541.png"	n/a	"MullerLyer"	"arrowup"	"1175"	"TRUE"	"MullerLyer"	"-8.214290000"	"0.1454100000"	"2"	"25"
n/a	"html-keyboard-response"	"234"	"492305"	"0.0-6.0-2.0-0.25"	"k5le04"	"563"	"1134"	"chrome"	"109.0.0"	"FALSE"	"Windows 10"	"60.1"	"026"	n/a	n/a	n/a	n/a	n/a	n/a	"fixation"	n/a	n/a	n/a	n/a	"NULL"	n/a	"NULL"	"NULL"	"NULL"	"<p style=\"color: black; font-size: 80px; padding-left: 16%; padding-right: 34%; padding-top: 7%; padding-bottom: 8%\">+</p>"	"1075"	n/a	n/a	n/a	n/a	n/a	n/a	n/a	n/a	n/a
n/a	"image-keyboard-response"	"235"	"492849"	"0.0-6.0-2.0-1.25"	"k5le04"	"563"	"1134"	"chrome"	"109.0.0"	"FALSE"	"Windows 10"	"60.1"	"026"	n/a	n/a	n/a	n/a	n/a	n/a	"Trial"	n/a	n/a	n/a	"543"	"arrowdown"	n/a	"NULL"	"NULL"	"NULL"	"stimuli/MullerLyer_14.12857_0.14541.png"	n/a	"MullerLyer"	"arrowup"	"1087"	"FALSE"	"MullerLyer"	"14.128570000"	"0.1454100000"	"2"	"26"
n/a	"html-keyboard-response"	"236"	"493969"	"0.0-6.0-2.0-0.26"	"k5le04"	"563"	"1134"	"chrome"	"109.0.0"	"FALSE"	"Windows 10"	"60.1"	"026"	n/a	n/a	n/a	n/a	n/a	n/a	"fixation"	n/a	n/a	n/a	n/a	"NULL"	n/a	"NULL"	"NULL"	"NULL"	"<p style=\"color: black; font-size: 80px; padding-left: 5%; padding-right: 12%; padding-top: 4%; padding-bottom: 11%\">+</p>"	"1110"	n/a	n/a	n/a	n/a	n/a	n/a	n/a	n/a	n/a
n/a	"image-keyboard-response"	"237"	"494494"	"0.0-6.0-2.0-1.26"	"k5le04"	"563"	"1134"	"chrome"	"109.0.0"	"FALSE"	"Windows 10"	"60.1"	"026"	n/a	n/a	n/a	n/a	n/a	n/a	"Trial"	n/a	n/a	n/a	"525"	"arrowup"	n/a	"NULL"	"NULL"	"NULL"	"stimuli/MullerLyer_-20.04286_0.07627.png"	n/a	"MullerLyer"	"arrowup"	"1120"	"TRUE"	"MullerLyer"	"-20.04286000"	"0.0762700000"	"2"	"27"
n/a	"html-keyboard-response"	"238"	"495690"	"0.0-6.0-2.0-0.27"	"k5le04"	"563"	"1134"	"chrome"	"109.0.0"	"FALSE"	"Windows 10"	"60.1"	"026"	n/a	n/a	n/a	n/a	n/a	n/a	"fixation"	n/a	n/a	n/a	n/a	"NULL"	n/a	"NULL"	"NULL"	"NULL"	"<p style=\"color: black; font-size: 80px; padding-left: 8%; padding-right: 23%; padding-top: 31%; padding-bottom: 11%\">+</p>"	"1185"	n/a	n/a	n/a	n/a	n/a	n/a	n/a	n/a	n/a
n/a	"image-keyboard-response"	"239"	"496231"	"0.0-6.0-2.0-1.27"	"k5le04"	"563"	"1134"	"chrome"	"109.0.0"	"FALSE"	"Windows 10"	"60.1"	"026"	n/a	n/a	n/a	n/a	n/a	n/a	"Trial"	n/a	n/a	n/a	"540"	"arrowdown"	n/a	"NULL"	"NULL"	"NULL"	"stimuli/MullerLyer_-14.12857_-0.14541.png"	n/a	"MullerLyer"	"arrowdown"	"1196"	"TRUE"	"MullerLyer"	"-14.12857000"	"-0.145410000"	"2"	"28"
n/a	"html-keyboard-response"	"240"	"497527"	"0.0-6.0-2.0-0.28"	"k5le04"	"563"	"1134"	"chrome"	"109.0.0"	"FALSE"	"Windows 10"	"60.1"	"026"	n/a	n/a	n/a	n/a	n/a	n/a	"fixation"	n/a	n/a	n/a	n/a	"NULL"	n/a	"NULL"	"NULL"	"NULL"	"<p style=\"color: black; font-size: 80px; padding-left: 12%; padding-right: 11%; padding-top: 33%; padding-bottom: 50%\">+</p>"	"1288"	n/a	n/a	n/a	n/a	n/a	n/a	n/a	n/a	n/a
n/a	"image-keyboard-response"	"241"	"498052"	"0.0-6.0-2.0-1.28"	"k5le04"	"563"	"1134"	"chrome"	"109.0.0"	"FALSE"	"Windows 10"	"60.1"	"026"	n/a	n/a	n/a	n/a	n/a	n/a	"Trial"	n/a	n/a	n/a	"524"	"arrowdown"	n/a	"NULL"	"NULL"	"NULL"	"stimuli/MullerLyer_2.30000_-0.3500.png"	n/a	"MullerLyer"	"arrowdown"	"1296"	"TRUE"	"MullerLyer"	"2.3000000000"	"-0.350000000"	"2"	"29"
n/a	"html-keyboard-response"	"242"	"499279"	"0.0-6.0-2.0-0.29"	"k5le04"	"563"	"1134"	"chrome"	"109.0.0"	"FALSE"	"Windows 10"	"60.1"	"026"	n/a	n/a	n/a	n/a	n/a	n/a	"fixation"	n/a	n/a	n/a	n/a	"NULL"	n/a	"NULL"	"NULL"	"NULL"	"<p style=\"color: black; font-size: 80px; padding-left: 23%; padding-right: 12%; padding-top: 2%; padding-bottom: 44%\">+</p>"	"1211"	n/a	n/a	n/a	n/a	n/a	n/a	n/a	n/a	n/a
n/a	"image-keyboard-response"	"243"	"500332"	"0.0-6.0-2.0-1.29"	"k5le04"	"563"	"1134"	"chrome"	"109.0.0"	"FALSE"	"Windows 10"	"60.1"	"026"	n/a	n/a	n/a	n/a	n/a	n/a	"Trial"	n/a	n/a	n/a	"1053"	"arrowdown"	n/a	"NULL"	"NULL"	"NULL"	"stimuli/MullerLyer_20.04286_0.23665.png"	n/a	"MullerLyer"	"arrowup"	"1227"	"FALSE"	"MullerLyer"	"20.042860000"	"0.2366500000"	"2"	"30"
n/a	"html-keyboard-response"	"244"	"501414"	"0.0-6.0-2.0-0.30"	"k5le04"	"563"	"1134"	"chrome"	"109.0.0"	"FALSE"	"Windows 10"	"60.1"	"026"	n/a	n/a	n/a	n/a	n/a	n/a	"fixation"	n/a	n/a	n/a	n/a	"NULL"	n/a	"NULL"	"NULL"	"NULL"	"<p style=\"color: black; font-size: 80px; padding-left: 16%; padding-right: 41%; padding-top: 11%; padding-bottom: 12%\">+</p>"	"1068"	n/a	n/a	n/a	n/a	n/a	n/a	n/a	n/a	n/a
n/a	"image-keyboard-response"	"245"	"502004"	"0.0-6.0-2.0-1.30"	"k5le04"	"563"	"1134"	"chrome"	"109.0.0"	"FALSE"	"Windows 10"	"60.1"	"026"	n/a	n/a	n/a	n/a	n/a	n/a	"Trial"	n/a	n/a	n/a	"590"	"arrowdown"	n/a	"NULL"	"NULL"	"NULL"	"stimuli/MullerLyer_-8.21429_-0.3500.png"	n/a	"MullerLyer"	"arrowdown"	"1082"	"TRUE"	"MullerLyer"	"-8.214290000"	"-0.350000000"	"2"	"31"
n/a	"html-keyboard-response"	"246"	"503140"	"0.0-6.0-2.0-0.31"	"k5le04"	"563"	"1134"	"chrome"	"109.0.0"	"FALSE"	"Windows 10"	"60.1"	"026"	n/a	n/a	n/a	n/a	n/a	n/a	"fixation"	n/a	n/a	n/a	n/a	"NULL"	n/a	"NULL"	"NULL"	"NULL"	"<p style=\"color: black; font-size: 80px; padding-left: 7%; padding-right: 5%; padding-top: 20%; padding-bottom: 31%\">+</p>"	"1131"	n/a	n/a	n/a	n/a	n/a	n/a	n/a	n/a	n/a
n/a	"image-keyboard-response"	"247"	"503614"	"0.0-6.0-2.0-1.31"	"k5le04"	"563"	"1134"	"chrome"	"109.0.0"	"FALSE"	"Windows 10"	"60.1"	"026"	n/a	n/a	n/a	n/a	n/a	n/a	"Trial"	n/a	n/a	n/a	"474"	"arrowup"	n/a	"NULL"	"NULL"	"NULL"	"stimuli/MullerLyer_-2.3000_0.23665.png"	n/a	"MullerLyer"	"arrowup"	"1136"	"TRUE"	"MullerLyer"	"-2.300000000"	"0.2366500000"	"2"	"32"
n/a	"html-keyboard-response"	"248"	"504831"	"0.0-6.0-2.0-0.32"	"k5le04"	"563"	"1134"	"chrome"	"109.0.0"	"FALSE"	"Windows 10"	"60.1"	"026"	n/a	n/a	n/a	n/a	n/a	n/a	"fixation"	n/a	n/a	n/a	n/a	"NULL"	n/a	"NULL"	"NULL"	"NULL"	"<p style=\"color: black; font-size: 80px; padding-left: 2%; padding-right: 42%; padding-top: 22%; padding-bottom: 28%\">+</p>"	"1205"	n/a	n/a	n/a	n/a	n/a	n/a	n/a	n/a	n/a
n/a	"image-keyboard-response"	"249"	"505348"	"0.0-6.0-2.0-1.32"	"k5le04"	"563"	"1134"	"chrome"	"109.0.0"	"FALSE"	"Windows 10"	"60.1"	"026"	n/a	n/a	n/a	n/a	n/a	n/a	"Trial"	n/a	n/a	n/a	"516"	"arrowup"	n/a	"NULL"	"NULL"	"NULL"	"stimuli/MullerLyer_-14.12857_0.35000.png"	n/a	"MullerLyer"	"arrowup"	"1217"	"TRUE"	"MullerLyer"	"-14.12857000"	"0.3500000000"	"2"	"33"
