"success"	"trial_type"	"trial_index"	"time_elapsed"	"internal_node_id"	"participant_id"	"screen_height"	"screen_width"	"browser"	"browser_version"	"mobile"	"os"	"vsync_rate"	"subject_id"	"width"	"height"	"webaudio"	"fullscreen"	"webcam"	"microphone"	"screen"	"version"	"date"	"time"	"rt"	"response"	"timeout"	"failed_images"	"failed_audio"	"failed_video"	"stimulus"	"trial_duration"	"block"	"correct_response"	"prestimulus_duration"	"correct"	"type"	"illusion_strength"	"illusion_difference"	"block_number"	"trial_number"
"TRUE"	"fullscreen"	"0"	"2086"	"0.0-0.0"	"zxdywk"	"600"	"1366"	"chrome"	"111.0.0"	"FALSE"	"Windows 10"	"60.8"	"044"	n/a	n/a	n/a	n/a	n/a	n/a	n/a	n/a	n/a	n/a	n/a	"NULL"	n/a	"NULL"	"NULL"	"NULL"	n/a	n/a	n/a	n/a	n/a	n/a	n/a	n/a	n/a	n/a	n/a
n/a	"browser-check"	"1"	"3085"	"0.0-1.0"	"zxdywk"	"600"	"1366"	"chrome"	"111.0.0"	"FALSE"	"Windows 10"	"60.8"	"044"	"1366"	"600"	"TRUE"	"TRUE"	"TRUE"	"TRUE"	"browser_info"	"1.0"	"14/03/2023"	"17:50:05"	n/a	"NULL"	n/a	"NULL"	"NULL"	"NULL"	n/a	n/a	n/a	n/a	n/a	n/a	n/a	n/a	n/a	n/a	n/a
n/a	"survey-text"	"2"	"5776"	"0.0-2.0"	"zxdywk"	"600"	"1366"	"chrome"	"111.0.0"	"FALSE"	"Windows 10"	"60.8"	"044"	n/a	n/a	n/a	n/a	n/a	n/a	"subject_id"	n/a	n/a	n/a	"2687"	"list(subject_id = \"044\")"	n/a	"NULL"	"NULL"	"NULL"	n/a	n/a	n/a	n/a	n/a	n/a	n/a	n/a	n/a	n/a	n/a
"TRUE"	"preload"	"3"	"5788"	"0.0-3.0"	"zxdywk"	"600"	"1366"	"chrome"	"111.0.0"	"FALSE"	"Windows 10"	"60.8"	"044"	n/a	n/a	n/a	n/a	n/a	n/a	n/a	n/a	n/a	n/a	n/a	"NULL"	"FALSE"	"list()"	"list()"	"list()"	n/a	n/a	n/a	n/a	n/a	n/a	n/a	n/a	n/a	n/a	n/a
n/a	"html-button-response"	"4"	"34124"	"0.0-4.0-0.0"	"zxdywk"	"600"	"1366"	"chrome"	"111.0.0"	"FALSE"	"Windows 10"	"60.8"	"044"	n/a	n/a	n/a	n/a	n/a	n/a	"illusion_instructions"	n/a	n/a	n/a	"28335"	"0"	n/a	"NULL"	"NULL"	"NULL"	"<p><b>Illusion Game</b></p><p>In this game of speed and reflex, you will need to make <b>visual judgments</b> (for instance, which circle is the biggest, or which line is the longest), as fast and as correctly as possible, while <b>resisting different visual illusions</b>.</p><p>We are going to start with some examples of all the illusions you will encounter in the game.</p>"	n/a	n/a	n/a	n/a	n/a	n/a	n/a	n/a	n/a	n/a
"TRUE"	"preload"	"5"	"34139"	"0.0-4.0-1.0-0.0"	"zxdywk"	"600"	"1366"	"chrome"	"111.0.0"	"FALSE"	"Windows 10"	"60.8"	"044"	n/a	n/a	n/a	n/a	n/a	n/a	n/a	n/a	n/a	n/a	n/a	"NULL"	"FALSE"	"list()"	"list()"	"list()"	n/a	n/a	n/a	n/a	n/a	n/a	n/a	n/a	n/a	n/a	n/a
n/a	"html-keyboard-response"	"6"	"61209"	"0.0-4.0-1.0-1.0"	"zxdywk"	"600"	"1366"	"chrome"	"111.0.0"	"FALSE"	"Windows 10"	"60.8"	"044"	n/a	n/a	n/a	n/a	n/a	n/a	n/a	n/a	n/a	n/a	"27069"	"enter"	n/a	"NULL"	"NULL"	"NULL"	"<p><b>Practice</b></p><p>In this part, two red circles will appear side by side on the screen.</p><p>Your task is to select which <b>red circle is bigger</b> in size as fast as you can, without making errors.</p><p>Don't get distracted by the surrounding black circles around the red circles!</p><p>Press <b>the LEFT or the RIGHT arrow</b> to indicate which is the bigger <b>red circle.</b></p><div style='float: center'><img src='materials/instructions/Ebbinghaus_Demo.png' height='300'></img><p><img src='utils/answer/answer_leftright_keyboard.PNG' height='150'></img></p><p class='small'>In this example, the correct answer is the <b>LEFT arrow</b>.</p></div><p>Are you ready? <b>Press ENTER to start</b></p>"	n/a	n/a	n/a	n/a	n/a	n/a	n/a	n/a	n/a	n/a
n/a	"html-keyboard-response"	"7"	"62931"	"0.0-4.0-1.0-2.0-0.0"	"zxdywk"	"600"	"1366"	"chrome"	"111.0.0"	"FALSE"	"Windows 10"	"60.8"	"044"	n/a	n/a	n/a	n/a	n/a	n/a	"fixation"	n/a	n/a	n/a	n/a	"NULL"	n/a	"NULL"	"NULL"	"NULL"	"<p style=\"color: black; font-size: 80px; padding-left: 43%; padding-right: 42%; padding-top: 27%; padding-bottom: 6%\">+</p>"	"1210"	n/a	n/a	n/a	n/a	n/a	n/a	n/a	n/a	n/a
n/a	"image-keyboard-response"	"8"	"64481"	"0.0-4.0-1.0-2.0-1.0"	"zxdywk"	"600"	"1366"	"chrome"	"111.0.0"	"FALSE"	"Windows 10"	"60.8"	"044"	n/a	n/a	n/a	n/a	n/a	n/a	"Trial"	n/a	n/a	n/a	"1536"	"arrowleft"	n/a	"NULL"	"NULL"	"NULL"	"stimuli/Ebbinghaus_1000000_1.40000.png"	n/a	"Ebbinghaus"	"arrowleft"	"1722"	"TRUE"	"Ebbinghaus"	"100000000000"	"1.4000000000"	"1"	"1"
n/a	"html-keyboard-response"	"9"	"65860"	"0.0-4.0-1.0-2.0-0.1"	"zxdywk"	"600"	"1366"	"chrome"	"111.0.0"	"FALSE"	"Windows 10"	"60.8"	"044"	n/a	n/a	n/a	n/a	n/a	n/a	"fixation"	n/a	n/a	n/a	n/a	"NULL"	n/a	"NULL"	"NULL"	"NULL"	"<p style=\"color: black; font-size: 80px; padding-left: 15%; padding-right: 39%; padding-top: 26%; padding-bottom: 3%\">+</p>"	"1364"	n/a	n/a	n/a	n/a	n/a	n/a	n/a	n/a	n/a
n/a	"image-keyboard-response"	"10"	"67496"	"0.0-4.0-1.0-2.0-1.1"	"zxdywk"	"600"	"1366"	"chrome"	"111.0.0"	"FALSE"	"Windows 10"	"60.8"	"044"	n/a	n/a	n/a	n/a	n/a	n/a	"Trial"	n/a	n/a	n/a	"1635"	"arrowleft"	n/a	"NULL"	"NULL"	"NULL"	"stimuli/Ebbinghaus_-100000_1.40000.png"	n/a	"Ebbinghaus"	"arrowleft"	"1379"	"TRUE"	"Ebbinghaus"	"-10000000000"	"1.4000000000"	"1"	"2"
n/a	"html-keyboard-response"	"11"	"68518"	"0.0-4.0-1.0-2.0-0.2"	"zxdywk"	"600"	"1366"	"chrome"	"111.0.0"	"FALSE"	"Windows 10"	"60.8"	"044"	n/a	n/a	n/a	n/a	n/a	n/a	"fixation"	n/a	n/a	n/a	n/a	"NULL"	n/a	"NULL"	"NULL"	"NULL"	"<p style=\"color: black; font-size: 80px; padding-left: 7%; padding-right: 9%; padding-top: 50%; padding-bottom: 12%\">+</p>"	"1009"	n/a	n/a	n/a	n/a	n/a	n/a	n/a	n/a	n/a
n/a	"image-keyboard-response"	"12"	"71165"	"0.0-4.0-1.0-2.0-1.2"	"zxdywk"	"600"	"1366"	"chrome"	"111.0.0"	"FALSE"	"Windows 10"	"60.8"	"044"	n/a	n/a	n/a	n/a	n/a	n/a	"Trial"	n/a	n/a	n/a	"2646"	"arrowright"	n/a	"NULL"	"NULL"	"NULL"	"stimuli/Ebbinghaus_1000000_-1.4000.png"	n/a	"Ebbinghaus"	"arrowright"	"1022"	"TRUE"	"Ebbinghaus"	"100000000000"	"-1.400000000"	"1"	"3"
n/a	"html-keyboard-response"	"13"	"72318"	"0.0-4.0-1.0-2.0-0.3"	"zxdywk"	"600"	"1366"	"chrome"	"111.0.0"	"FALSE"	"Windows 10"	"60.8"	"044"	n/a	n/a	n/a	n/a	n/a	n/a	"fixation"	n/a	n/a	n/a	n/a	"NULL"	n/a	"NULL"	"NULL"	"NULL"	"<p style=\"color: black; font-size: 80px; padding-left: 13%; padding-right: 2%; padding-top: 23%; padding-bottom: 3%\">+</p>"	"1147"	n/a	n/a	n/a	n/a	n/a	n/a	n/a	n/a	n/a
n/a	"image-keyboard-response"	"14"	"73533"	"0.0-4.0-1.0-2.0-1.3"	"zxdywk"	"600"	"1366"	"chrome"	"111.0.0"	"FALSE"	"Windows 10"	"60.8"	"044"	n/a	n/a	n/a	n/a	n/a	n/a	"Trial"	n/a	n/a	n/a	"1214"	"arrowright"	n/a	"NULL"	"NULL"	"NULL"	"stimuli/Ebbinghaus_-100000_-1.4000.png"	n/a	"Ebbinghaus"	"arrowright"	"1153"	"TRUE"	"Ebbinghaus"	"-10000000000"	"-1.400000000"	"1"	"4"
n/a	"html-keyboard-response"	"15"	"74797"	"0.0-4.0-1.0-2.0-0.4"	"zxdywk"	"600"	"1366"	"chrome"	"111.0.0"	"FALSE"	"Windows 10"	"60.8"	"044"	n/a	n/a	n/a	n/a	n/a	n/a	"fixation"	n/a	n/a	n/a	n/a	"NULL"	n/a	"NULL"	"NULL"	"NULL"	"<p style=\"color: black; font-size: 80px; padding-left: 14%; padding-right: 26%; padding-top: 1%; padding-bottom: 36%\">+</p>"	"1250"	n/a	n/a	n/a	n/a	n/a	n/a	n/a	n/a	n/a
n/a	"image-keyboard-response"	"16"	"75840"	"0.0-4.0-1.0-2.0-1.4"	"zxdywk"	"600"	"1366"	"chrome"	"111.0.0"	"FALSE"	"Windows 10"	"60.8"	"044"	n/a	n/a	n/a	n/a	n/a	n/a	"Trial"	n/a	n/a	n/a	"1042"	"arrowright"	n/a	"NULL"	"NULL"	"NULL"	"stimuli/Ebbinghaus_0000000_-1.4000.png"	n/a	"Ebbinghaus"	"arrowright"	"1264"	"TRUE"	"Ebbinghaus"	"000000000000"	"-1.400000000"	"1"	"5"
n/a	"html-keyboard-response"	"17"	"77098"	"0.0-4.0-1.0-2.0-0.5"	"zxdywk"	"600"	"1366"	"chrome"	"111.0.0"	"FALSE"	"Windows 10"	"60.8"	"044"	n/a	n/a	n/a	n/a	n/a	n/a	"fixation"	n/a	n/a	n/a	n/a	"NULL"	n/a	"NULL"	"NULL"	"NULL"	"<p style=\"color: black; font-size: 80px; padding-left: 1%; padding-right: 15%; padding-top: 8%; padding-bottom: 28%\">+</p>"	"1242"	n/a	n/a	n/a	n/a	n/a	n/a	n/a	n/a	n/a
n/a	"image-keyboard-response"	"18"	"78018"	"0.0-4.0-1.0-2.0-1.5"	"zxdywk"	"600"	"1366"	"chrome"	"111.0.0"	"FALSE"	"Windows 10"	"60.8"	"044"	n/a	n/a	n/a	n/a	n/a	n/a	"Trial"	n/a	n/a	n/a	"920"	"arrowleft"	n/a	"NULL"	"NULL"	"NULL"	"stimuli/Ebbinghaus_0000000_1.40000.png"	n/a	"Ebbinghaus"	"arrowleft"	"1258"	"TRUE"	"Ebbinghaus"	"000000000000"	"1.4000000000"	"1"	"6"
n/a	"html-button-response"	"19"	"96729"	"0.0-4.0-1.0-3.0"	"zxdywk"	"600"	"1366"	"chrome"	"111.0.0"	"FALSE"	"Windows 10"	"60.8"	"044"	n/a	n/a	n/a	n/a	n/a	n/a	"practice_block_results"	n/a	n/a	n/a	"18709"	"0"	n/a	"NULL"	"NULL"	"NULL"	"<p style='color:rgb(76,175,80);'> Correct Responses: <b>100.00%</b></p><hr><p style='color:rgb(233,30,99);'> Average Response Time: <b>1498.83</b> ms.</p>"	n/a	n/a	n/a	n/a	n/a	n/a	n/a	n/a	n/a	n/a
"TRUE"	"preload"	"20"	"97252"	"0.0-4.0-2.0-0.0"	"zxdywk"	"600"	"1366"	"chrome"	"111.0.0"	"FALSE"	"Windows 10"	"60.8"	"044"	n/a	n/a	n/a	n/a	n/a	n/a	n/a	n/a	n/a	n/a	n/a	"NULL"	"FALSE"	"list()"	"list()"	"list()"	n/a	n/a	n/a	n/a	n/a	n/a	n/a	n/a	n/a	n/a	n/a
n/a	"html-keyboard-response"	"21"	"103528"	"0.0-4.0-2.0-1.0"	"zxdywk"	"600"	"1366"	"chrome"	"111.0.0"	"FALSE"	"Windows 10"	"60.8"	"044"	n/a	n/a	n/a	n/a	n/a	n/a	n/a	n/a	n/a	n/a	"6276"	"enter"	n/a	"NULL"	"NULL"	"NULL"	"<p><b>Practice</b></p><p>In this part, two horizontal red lines will appear one above the other.</p><p>Your task is to select which <b>line is longer</b> in length as fast as you can, without making errors.</p><p>Don't get distracted by the surrounding black arrows at the end of the red lines!</p><p>Press <b>the UP or the DOWN arrow</b> to indicate where is the longer <b>red line.</b></p><div style='float: center'><img src='materials/instructions/MullerLyer_Demo.png' height='300'></img><p><img src='utils/answer/answer_updown_keyboard.PNG' height='150'></img></p><p class='small'>In this example, the correct answer is the <b>UP arrow</b>.</p></div><p>Are you ready? <b>Press ENTER to start</b></p>"	n/a	n/a	n/a	n/a	n/a	n/a	n/a	n/a	n/a	n/a
n/a	"html-keyboard-response"	"22"	"105088"	"0.0-4.0-2.0-2.0-0.0"	"zxdywk"	"600"	"1366"	"chrome"	"111.0.0"	"FALSE"	"Windows 10"	"60.8"	"044"	n/a	n/a	n/a	n/a	n/a	n/a	"fixation"	n/a	n/a	n/a	n/a	"NULL"	n/a	"NULL"	"NULL"	"NULL"	"<p style=\"color: black; font-size: 80px; padding-left: 23%; padding-right: 18%; padding-top: 20%; padding-bottom: 9%\">+</p>"	"1049"	n/a	n/a	n/a	n/a	n/a	n/a	n/a	n/a	n/a
n/a	"image-keyboard-response"	"23"	"105866"	"0.0-4.0-2.0-2.0-1.0"	"zxdywk"	"600"	"1366"	"chrome"	"111.0.0"	"FALSE"	"Windows 10"	"60.8"	"044"	n/a	n/a	n/a	n/a	n/a	n/a	"Trial"	n/a	n/a	n/a	"777"	"arrowdown"	n/a	"NULL"	"NULL"	"NULL"	"stimuli/MullerLyer_0000000_-0.7000.png"	n/a	"MullerLyer"	"arrowdown"	"1560"	"TRUE"	"MullerLyer"	"000000000000"	"-0.700000000"	"1"	"7"
n/a	"html-keyboard-response"	"24"	"107274"	"0.0-4.0-2.0-2.0-0.1"	"zxdywk"	"600"	"1366"	"chrome"	"111.0.0"	"FALSE"	"Windows 10"	"60.8"	"044"	n/a	n/a	n/a	n/a	n/a	n/a	"fixation"	n/a	n/a	n/a	n/a	"NULL"	n/a	"NULL"	"NULL"	"NULL"	"<p style=\"color: black; font-size: 80px; padding-left: 44%; padding-right: 25%; padding-top: 4%; padding-bottom: 37%\">+</p>"	"1399"	n/a	n/a	n/a	n/a	n/a	n/a	n/a	n/a	n/a
n/a	"image-keyboard-response"	"25"	"107963"	"0.0-4.0-2.0-2.0-1.1"	"zxdywk"	"600"	"1366"	"chrome"	"111.0.0"	"FALSE"	"Windows 10"	"60.8"	"044"	n/a	n/a	n/a	n/a	n/a	n/a	"Trial"	n/a	n/a	n/a	"689"	"arrowdown"	n/a	"NULL"	"NULL"	"NULL"	"stimuli/MullerLyer_-230000_-0.7000.png"	n/a	"MullerLyer"	"arrowdown"	"1408"	"TRUE"	"MullerLyer"	"-23000000000"	"-0.700000000"	"1"	"8"
n/a	"html-keyboard-response"	"26"	"109028"	"0.0-4.0-2.0-2.0-0.2"	"zxdywk"	"600"	"1366"	"chrome"	"111.0.0"	"FALSE"	"Windows 10"	"60.8"	"044"	n/a	n/a	n/a	n/a	n/a	n/a	"fixation"	n/a	n/a	n/a	n/a	"NULL"	n/a	"NULL"	"NULL"	"NULL"	"<p style=\"color: black; font-size: 80px; padding-left: 1%; padding-right: 10%; padding-top: 43%; padding-bottom: 2%\">+</p>"	"1052"	n/a	n/a	n/a	n/a	n/a	n/a	n/a	n/a	n/a
n/a	"image-keyboard-response"	"27"	"109709"	"0.0-4.0-2.0-2.0-1.2"	"zxdywk"	"600"	"1366"	"chrome"	"111.0.0"	"FALSE"	"Windows 10"	"60.8"	"044"	n/a	n/a	n/a	n/a	n/a	n/a	"Trial"	n/a	n/a	n/a	"680"	"arrowup"	n/a	"NULL"	"NULL"	"NULL"	"stimuli/MullerLyer_0000000_0.70000.png"	n/a	"MullerLyer"	"arrowup"	"1065"	"TRUE"	"MullerLyer"	"000000000000"	"0.7000000000"	"1"	"9"
n/a	"html-keyboard-response"	"28"	"110807"	"0.0-4.0-2.0-2.0-0.3"	"zxdywk"	"600"	"1366"	"chrome"	"111.0.0"	"FALSE"	"Windows 10"	"60.8"	"044"	n/a	n/a	n/a	n/a	n/a	n/a	"fixation"	n/a	n/a	n/a	n/a	"NULL"	n/a	"NULL"	"NULL"	"NULL"	"<p style=\"color: black; font-size: 80px; padding-left: 12%; padding-right: 25%; padding-top: 28%; padding-bottom: 21%\">+</p>"	"1091"	n/a	n/a	n/a	n/a	n/a	n/a	n/a	n/a	n/a
n/a	"image-keyboard-response"	"29"	"111706"	"0.0-4.0-2.0-2.0-1.3"	"zxdywk"	"600"	"1366"	"chrome"	"111.0.0"	"FALSE"	"Windows 10"	"60.8"	"044"	n/a	n/a	n/a	n/a	n/a	n/a	"Trial"	n/a	n/a	n/a	"898"	"arrowdown"	n/a	"NULL"	"NULL"	"NULL"	"stimuli/MullerLyer_2300000_-0.7000.png"	n/a	"MullerLyer"	"arrowdown"	"1098"	"TRUE"	"MullerLyer"	"230000000000"	"-0.700000000"	"1"	"10"
n/a	"html-keyboard-response"	"30"	"112869"	"0.0-4.0-2.0-2.0-0.4"	"zxdywk"	"600"	"1366"	"chrome"	"111.0.0"	"FALSE"	"Windows 10"	"60.8"	"044"	n/a	n/a	n/a	n/a	n/a	n/a	"fixation"	n/a	n/a	n/a	n/a	"NULL"	n/a	"NULL"	"NULL"	"NULL"	"<p style=\"color: black; font-size: 80px; padding-left: 18%; padding-right: 32%; padding-top: 21%; padding-bottom: 7%\">+</p>"	"1156"	n/a	n/a	n/a	n/a	n/a	n/a	n/a	n/a	n/a
n/a	"image-keyboard-response"	"31"	"113569"	"0.0-4.0-2.0-2.0-1.4"	"zxdywk"	"600"	"1366"	"chrome"	"111.0.0"	"FALSE"	"Windows 10"	"60.8"	"044"	n/a	n/a	n/a	n/a	n/a	n/a	"Trial"	n/a	n/a	n/a	"699"	"arrowup"	n/a	"NULL"	"NULL"	"NULL"	"stimuli/MullerLyer_2300000_0.70000.png"	n/a	"MullerLyer"	"arrowup"	"1163"	"TRUE"	"MullerLyer"	"230000000000"	"0.7000000000"	"1"	"11"
n/a	"html-keyboard-response"	"32"	"114911"	"0.0-4.0-2.0-2.0-0.5"	"zxdywk"	"600"	"1366"	"chrome"	"111.0.0"	"FALSE"	"Windows 10"	"60.8"	"044"	n/a	n/a	n/a	n/a	n/a	n/a	"fixation"	n/a	n/a	n/a	n/a	"NULL"	n/a	"NULL"	"NULL"	"NULL"	"<p style=\"color: black; font-size: 80px; padding-left: 17%; padding-right: 39%; padding-top: 49%; padding-bottom: 23%\">+</p>"	"1337"	n/a	n/a	n/a	n/a	n/a	n/a	n/a	n/a	n/a
n/a	"image-keyboard-response"	"33"	"115458"	"0.0-4.0-2.0-2.0-1.5"	"zxdywk"	"600"	"1366"	"chrome"	"111.0.0"	"FALSE"	"Windows 10"	"60.8"	"044"	n/a	n/a	n/a	n/a	n/a	n/a	"Trial"	n/a	n/a	n/a	"546"	"arrowup"	n/a	"NULL"	"NULL"	"NULL"	"stimuli/MullerLyer_-230000_0.70000.png"	n/a	"MullerLyer"	"arrowup"	"1342"	"TRUE"	"MullerLyer"	"-23000000000"	"0.7000000000"	"1"	"12"
n/a	"html-button-response"	"34"	"117799"	"0.0-4.0-2.0-3.0"	"zxdywk"	"600"	"1366"	"chrome"	"111.0.0"	"FALSE"	"Windows 10"	"60.8"	"044"	n/a	n/a	n/a	n/a	n/a	n/a	"practice_block_results"	n/a	n/a	n/a	"2341"	"0"	n/a	"NULL"	"NULL"	"NULL"	"<p style='color:rgb(76,175,80);'> Correct Responses: <b>100.00%</b></p><hr><p style='color:rgb(233,30,99);'> Average Response Time: <b>714.83</b> ms.</p>"	n/a	n/a	n/a	n/a	n/a	n/a	n/a	n/a	n/a	n/a
"TRUE"	"preload"	"35"	"118322"	"0.0-4.0-3.0-0.0"	"zxdywk"	"600"	"1366"	"chrome"	"111.0.0"	"FALSE"	"Windows 10"	"60.8"	"044"	n/a	n/a	n/a	n/a	n/a	n/a	n/a	n/a	n/a	n/a	n/a	"NULL"	"FALSE"	"list()"	"list()"	"list()"	n/a	n/a	n/a	n/a	n/a	n/a	n/a	n/a	n/a	n/a	n/a
n/a	"html-keyboard-response"	"36"	"123122"	"0.0-4.0-3.0-1.0"	"zxdywk"	"600"	"1366"	"chrome"	"111.0.0"	"FALSE"	"Windows 10"	"60.8"	"044"	n/a	n/a	n/a	n/a	n/a	n/a	n/a	n/a	n/a	n/a	"4798"	"enter"	n/a	"NULL"	"NULL"	"NULL"	"<p><b>Practice</b></p><p>In this part, two red lines will appear side by side.</p><p>Your task is to tell <b>which line is longer</b> in length, regardless of their orientation, as fast as you can, and without making errors.</p><p>Don't get distracted by the orientation of the lines!</p><p>Press <b>the LEFT or the RIGHT arrow</b> to indicate which <b>line is the longer one.</b></p><div style='float: center'><img src='materials/instructions/VerticalHorizontal_Demo.png' height='300'></img><p><img src='utils/answer/answer_leftright_keyboard.PNG' height='150'></img></p><p class='small'>In this example, the correct answer is the <b>LEFT arrow</b>.</p></div><p>Are you ready? <b>Press ENTER to start</b></p>"	n/a	n/a	n/a	n/a	n/a	n/a	n/a	n/a	n/a	n/a
n/a	"html-keyboard-response"	"37"	"124870"	"0.0-4.0-3.0-2.0-0.0"	"zxdywk"	"600"	"1366"	"chrome"	"111.0.0"	"FALSE"	"Windows 10"	"60.8"	"044"	n/a	n/a	n/a	n/a	n/a	n/a	"fixation"	n/a	n/a	n/a	n/a	"NULL"	n/a	"NULL"	"NULL"	"NULL"	"<p style=\"color: black; font-size: 80px; padding-left: 40%; padding-right: 17%; padding-top: 41%; padding-bottom: 40%\">+</p>"	"1241"	n/a	n/a	n/a	n/a	n/a	n/a	n/a	n/a	n/a
n/a	"image-keyboard-response"	"38"	"125420"	"0.0-4.0-3.0-2.0-1.0"	"zxdywk"	"600"	"1366"	"chrome"	"111.0.0"	"FALSE"	"Windows 10"	"60.8"	"044"	n/a	n/a	n/a	n/a	n/a	n/a	"Trial"	n/a	n/a	n/a	"549"	"arrowright"	n/a	"NULL"	"NULL"	"NULL"	"stimuli/VerticalHorizontal_-330000_-0.9000.png"	n/a	"VerticalHorizontal"	"arrowright"	"1748"	"TRUE"	"VerticalHorizontal"	"-33000000000"	"-0.900000000"	"1"	"13"
n/a	"html-keyboard-response"	"39"	"126643"	"0.0-4.0-3.0-2.0-0.1"	"zxdywk"	"600"	"1366"	"chrome"	"111.0.0"	"FALSE"	"Windows 10"	"60.8"	"044"	n/a	n/a	n/a	n/a	n/a	n/a	"fixation"	n/a	n/a	n/a	n/a	"NULL"	n/a	"NULL"	"NULL"	"NULL"	"<p style=\"color: black; font-size: 80px; padding-left: 37%; padding-right: 28%; padding-top: 4%; padding-bottom: 48%\">+</p>"	"1217"	n/a	n/a	n/a	n/a	n/a	n/a	n/a	n/a	n/a
n/a	"image-keyboard-response"	"40"	"127836"	"0.0-4.0-3.0-2.0-1.1"	"zxdywk"	"600"	"1366"	"chrome"	"111.0.0"	"FALSE"	"Windows 10"	"60.8"	"044"	n/a	n/a	n/a	n/a	n/a	n/a	"Trial"	n/a	n/a	n/a	"1193"	"arrowright"	n/a	"NULL"	"NULL"	"NULL"	"stimuli/VerticalHorizontal_3300000_-0.9000.png"	n/a	"VerticalHorizontal"	"arrowright"	"1223"	"TRUE"	"VerticalHorizontal"	"330000000000"	"-0.900000000"	"1"	"14"
n/a	"html-keyboard-response"	"41"	"129136"	"0.0-4.0-3.0-2.0-0.2"	"zxdywk"	"600"	"1366"	"chrome"	"111.0.0"	"FALSE"	"Windows 10"	"60.8"	"044"	n/a	n/a	n/a	n/a	n/a	n/a	"fixation"	n/a	n/a	n/a	n/a	"NULL"	n/a	"NULL"	"NULL"	"NULL"	"<p style=\"color: black; font-size: 80px; padding-left: 35%; padding-right: 16%; padding-top: 4%; padding-bottom: 43%\">+</p>"	"1291"	n/a	n/a	n/a	n/a	n/a	n/a	n/a	n/a	n/a
n/a	"image-keyboard-response"	"42"	"129898"	"0.0-4.0-3.0-2.0-1.2"	"zxdywk"	"600"	"1366"	"chrome"	"111.0.0"	"FALSE"	"Windows 10"	"60.8"	"044"	n/a	n/a	n/a	n/a	n/a	n/a	"Trial"	n/a	n/a	n/a	"761"	"arrowleft"	n/a	"NULL"	"NULL"	"NULL"	"stimuli/VerticalHorizontal_0000000_0.90000.png"	n/a	"VerticalHorizontal"	"arrowleft"	"1300"	"TRUE"	"VerticalHorizontal"	"000000000000"	"0.9000000000"	"1"	"15"
n/a	"html-keyboard-response"	"43"	"131041"	"0.0-4.0-3.0-2.0-0.3"	"zxdywk"	"600"	"1366"	"chrome"	"111.0.0"	"FALSE"	"Windows 10"	"60.8"	"044"	n/a	n/a	n/a	n/a	n/a	n/a	"fixation"	n/a	n/a	n/a	n/a	"NULL"	n/a	"NULL"	"NULL"	"NULL"	"<p style=\"color: black; font-size: 80px; padding-left: 22%; padding-right: 23%; padding-top: 26%; padding-bottom: 47%\">+</p>"	"1126"	n/a	n/a	n/a	n/a	n/a	n/a	n/a	n/a	n/a
n/a	"image-keyboard-response"	"44"	"131612"	"0.0-4.0-3.0-2.0-1.3"	"zxdywk"	"600"	"1366"	"chrome"	"111.0.0"	"FALSE"	"Windows 10"	"60.8"	"044"	n/a	n/a	n/a	n/a	n/a	n/a	"Trial"	n/a	n/a	n/a	"570"	"arrowright"	n/a	"NULL"	"NULL"	"NULL"	"stimuli/VerticalHorizontal_0000000_-0.9000.png"	n/a	"VerticalHorizontal"	"arrowright"	"1143"	"TRUE"	"VerticalHorizontal"	"000000000000"	"-0.900000000"	"1"	"16"
n/a	"html-keyboard-response"	"45"	"133026"	"0.0-4.0-3.0-2.0-0.4"	"zxdywk"	"600"	"1366"	"chrome"	"111.0.0"	"FALSE"	"Windows 10"	"60.8"	"044"	n/a	n/a	n/a	n/a	n/a	n/a	"fixation"	n/a	n/a	n/a	n/a	"NULL"	n/a	"NULL"	"NULL"	"NULL"	"<p style=\"color: black; font-size: 80px; padding-left: 40%; padding-right: 7%; padding-top: 23%; padding-bottom: 1%\">+</p>"	"1412"	n/a	n/a	n/a	n/a	n/a	n/a	n/a	n/a	n/a
n/a	"image-keyboard-response"	"46"	"133484"	"0.0-4.0-3.0-2.0-1.4"	"zxdywk"	"600"	"1366"	"chrome"	"111.0.0"	"FALSE"	"Windows 10"	"60.8"	"044"	n/a	n/a	n/a	n/a	n/a	n/a	"Trial"	n/a	n/a	n/a	"457"	"arrowleft"	n/a	"NULL"	"NULL"	"NULL"	"stimuli/VerticalHorizontal_-330000_0.90000.png"	n/a	"VerticalHorizontal"	"arrowleft"	"1414"	"TRUE"	"VerticalHorizontal"	"-33000000000"	"0.9000000000"	"1"	"17"
n/a	"html-keyboard-response"	"47"	"134593"	"0.0-4.0-3.0-2.0-0.5"	"zxdywk"	"600"	"1366"	"chrome"	"111.0.0"	"FALSE"	"Windows 10"	"60.8"	"044"	n/a	n/a	n/a	n/a	n/a	n/a	"fixation"	n/a	n/a	n/a	n/a	"NULL"	n/a	"NULL"	"NULL"	"NULL"	"<p style=\"color: black; font-size: 80px; padding-left: 9%; padding-right: 50%; padding-top: 15%; padding-bottom: 20%\">+</p>"	"1097"	n/a	n/a	n/a	n/a	n/a	n/a	n/a	n/a	n/a
n/a	"image-keyboard-response"	"48"	"135110"	"0.0-4.0-3.0-2.0-1.5"	"zxdywk"	"600"	"1366"	"chrome"	"111.0.0"	"FALSE"	"Windows 10"	"60.8"	"044"	n/a	n/a	n/a	n/a	n/a	n/a	"Trial"	n/a	n/a	n/a	"515"	"arrowleft"	n/a	"NULL"	"NULL"	"NULL"	"stimuli/VerticalHorizontal_3300000_0.90000.png"	n/a	"VerticalHorizontal"	"arrowleft"	"1109"	"TRUE"	"VerticalHorizontal"	"330000000000"	"0.9000000000"	"1"	"18"
n/a	"html-button-response"	"49"	"137649"	"0.0-4.0-3.0-3.0"	"zxdywk"	"600"	"1366"	"chrome"	"111.0.0"	"FALSE"	"Windows 10"	"60.8"	"044"	n/a	n/a	n/a	n/a	n/a	n/a	"practice_block_results"	n/a	n/a	n/a	"2539"	"0"	n/a	"NULL"	"NULL"	"NULL"	"<p style='color:rgb(76,175,80);'> Correct Responses: <b>100.00%</b></p><hr><p style='color:rgb(233,30,99);'> Average Response Time: <b>674.17</b> ms.</p>"	n/a	n/a	n/a	n/a	n/a	n/a	n/a	n/a	n/a	n/a
n/a	"html-button-response"	"50"	"214893"	"0.0-4.0-4.0"	"zxdywk"	"600"	"1366"	"chrome"	"111.0.0"	"FALSE"	"Windows 10"	"60.8"	"044"	n/a	n/a	n/a	n/a	n/a	n/a	"practice_debrief"	n/a	n/a	n/a	"76735"	"0"	n/a	"NULL"	"NULL"	"NULL"	"<p><b>TRAINING COMPLETED</b></p><p>In the next phase, there will be more trials, and some might be harder too.<br> Moreover, after each illusion block, a <b>score</b> will be calculated based on speed (time you took to answer) and accuracy (number of errors).</p><p>Try to keep up a high score!</p><br><p>Note that it can be <i>really</i> challenging at times, so you will need to rely on your <b>intuition</b> and gut feeling to answer as fast as you can without making errors.</p><p>Each illusion block will be repeated two times (so that you have the opportunity to improve your score), but the order of the blocks is random.</p><p>Remember, your goal is to be as <b>fast</b> and <b>accurate</b> as possible. Good luck!</p><br>"	n/a	n/a	n/a	n/a	n/a	n/a	n/a	n/a	n/a	n/a
"TRUE"	"preload"	"51"	"215045"	"0.0-5.0-0.0"	"zxdywk"	"600"	"1366"	"chrome"	"111.0.0"	"FALSE"	"Windows 10"	"60.8"	"044"	n/a	n/a	n/a	n/a	n/a	n/a	n/a	n/a	n/a	n/a	n/a	"NULL"	"FALSE"	"list()"	"list()"	"list()"	n/a	n/a	n/a	n/a	n/a	n/a	n/a	n/a	n/a	n/a	n/a
n/a	"html-keyboard-response"	"52"	"219000"	"0.0-5.0-1.0"	"zxdywk"	"600"	"1366"	"chrome"	"111.0.0"	"FALSE"	"Windows 10"	"60.8"	"044"	n/a	n/a	n/a	n/a	n/a	n/a	n/a	n/a	n/a	n/a	"3954"	"enter"	n/a	"NULL"	"NULL"	"NULL"	"<p><b>Part 1/6</b></p><p>In this part, two red circles will appear side by side on the screen.</p><p>Your task is to select which <b>red circle is bigger</b> in size as fast as you can, without making errors.</p><p>Don't get distracted by the surrounding black circles around the red circles!</p><p>Press <b>the LEFT or the RIGHT arrow</b> to indicate which is the bigger <b>red circle.</b></p><div style='float: center'><img src='materials/instructions/Ebbinghaus_Demo.png' height='300'></img><p><img src='utils/answer/answer_leftright_keyboard.PNG' height='150'></img></p><p class='small'>In this example, the correct answer is the <b>LEFT arrow</b>.</p></div><p>Are you ready? <b>Press ENTER to start</b></p>"	n/a	n/a	n/a	n/a	n/a	n/a	n/a	n/a	n/a	n/a
n/a	"html-keyboard-response"	"53"	"220895"	"0.0-5.0-2.0-0.0"	"zxdywk"	"600"	"1366"	"chrome"	"111.0.0"	"FALSE"	"Windows 10"	"60.8"	"044"	n/a	n/a	n/a	n/a	n/a	n/a	"fixation"	n/a	n/a	n/a	n/a	"NULL"	n/a	"NULL"	"NULL"	"NULL"	"<p style=\"color: black; font-size: 80px; padding-left: 16%; padding-right: 26%; padding-top: 30%; padding-bottom: 37%\">+</p>"	"1384"	n/a	n/a	n/a	n/a	n/a	n/a	n/a	n/a	n/a
n/a	"image-keyboard-response"	"54"	"221702"	"0.0-5.0-2.0-1.0"	"zxdywk"	"600"	"1366"	"chrome"	"111.0.0"	"FALSE"	"Windows 10"	"60.8"	"044"	n/a	n/a	n/a	n/a	n/a	n/a	"Trial"	n/a	n/a	n/a	"806"	"arrowleft"	n/a	"NULL"	"NULL"	"NULL"	"stimuli/Ebbinghaus_-0.61429_0.28000.png"	n/a	"Ebbinghaus"	"arrowleft"	"1895"	"TRUE"	"Ebbinghaus"	"-0.614290000"	"0.2800000000"	"1"	"19"
n/a	"html-keyboard-response"	"55"	"222854"	"0.0-5.0-2.0-0.1"	"zxdywk"	"600"	"1366"	"chrome"	"111.0.0"	"FALSE"	"Windows 10"	"60.8"	"044"	n/a	n/a	n/a	n/a	n/a	n/a	"fixation"	n/a	n/a	n/a	n/a	"NULL"	n/a	"NULL"	"NULL"	"NULL"	"<p style=\"color: black; font-size: 80px; padding-left: 22%; padding-right: 43%; padding-top: 19%; padding-bottom: 12%\">+</p>"	"1140"	n/a	n/a	n/a	n/a	n/a	n/a	n/a	n/a	n/a
n/a	"image-keyboard-response"	"56"	"223645"	"0.0-5.0-2.0-1.1"	"zxdywk"	"600"	"1366"	"chrome"	"111.0.0"	"FALSE"	"Windows 10"	"60.8"	"044"	n/a	n/a	n/a	n/a	n/a	n/a	"Trial"	n/a	n/a	n/a	"790"	"arrowleft"	n/a	"NULL"	"NULL"	"NULL"	"stimuli/Ebbinghaus_0.61429_0.21500.png"	n/a	"Ebbinghaus"	"arrowleft"	"1152"	"TRUE"	"Ebbinghaus"	"0.6142900000"	"0.2150000000"	"1"	"20"
n/a	"html-keyboard-response"	"57"	"224822"	"0.0-5.0-2.0-0.2"	"zxdywk"	"600"	"1366"	"chrome"	"111.0.0"	"FALSE"	"Windows 10"	"60.8"	"044"	n/a	n/a	n/a	n/a	n/a	n/a	"fixation"	n/a	n/a	n/a	n/a	"NULL"	n/a	"NULL"	"NULL"	"NULL"	"<p style=\"color: black; font-size: 80px; padding-left: 49%; padding-right: 8%; padding-top: 8%; padding-bottom: 23%\">+</p>"	"1170"	n/a	n/a	n/a	n/a	n/a	n/a	n/a	n/a	n/a
n/a	"image-keyboard-response"	"58"	"225540"	"0.0-5.0-2.0-1.2"	"zxdywk"	"600"	"1366"	"chrome"	"111.0.0"	"FALSE"	"Windows 10"	"60.8"	"044"	n/a	n/a	n/a	n/a	n/a	n/a	"Trial"	n/a	n/a	n/a	"717"	"arrowright"	n/a	"NULL"	"NULL"	"NULL"	"stimuli/Ebbinghaus_-0.35714_-0.2150.png"	n/a	"Ebbinghaus"	"arrowright"	"1177"	"TRUE"	"Ebbinghaus"	"-0.357140000"	"-0.215000000"	"1"	"21"
n/a	"html-keyboard-response"	"59"	"226662"	"0.0-5.0-2.0-0.3"	"zxdywk"	"600"	"1366"	"chrome"	"111.0.0"	"FALSE"	"Windows 10"	"60.8"	"044"	n/a	n/a	n/a	n/a	n/a	n/a	"fixation"	n/a	n/a	n/a	n/a	"NULL"	n/a	"NULL"	"NULL"	"NULL"	"<p style=\"color: black; font-size: 80px; padding-left: 49%; padding-right: 50%; padding-top: 4%; padding-bottom: 46%\">+</p>"	"1121"	n/a	n/a	n/a	n/a	n/a	n/a	n/a	n/a	n/a
n/a	"image-keyboard-response"	"60"	"227237"	"0.0-5.0-2.0-1.3"	"zxdywk"	"600"	"1366"	"chrome"	"111.0.0"	"FALSE"	"Windows 10"	"60.8"	"044"	n/a	n/a	n/a	n/a	n/a	n/a	"Trial"	n/a	n/a	n/a	"574"	"arrowright"	n/a	"NULL"	"NULL"	"NULL"	"stimuli/Ebbinghaus_0.87143_-0.11071.png"	n/a	"Ebbinghaus"	"arrowright"	"1122"	"TRUE"	"Ebbinghaus"	"0.8714300000"	"-0.110710000"	"1"	"22"
n/a	"html-keyboard-response"	"61"	"228663"	"0.0-5.0-2.0-0.4"	"zxdywk"	"600"	"1366"	"chrome"	"111.0.0"	"FALSE"	"Windows 10"	"60.8"	"044"	n/a	n/a	n/a	n/a	n/a	n/a	"fixation"	n/a	n/a	n/a	n/a	"NULL"	n/a	"NULL"	"NULL"	"NULL"	"<p style=\"color: black; font-size: 80px; padding-left: 6%; padding-right: 41%; padding-top: 20%; padding-bottom: 5%\">+</p>"	"1418"	n/a	n/a	n/a	n/a	n/a	n/a	n/a	n/a	n/a
n/a	"image-keyboard-response"	"62"	"229357"	"0.0-5.0-2.0-1.4"	"zxdywk"	"600"	"1366"	"chrome"	"111.0.0"	"FALSE"	"Windows 10"	"60.8"	"044"	n/a	n/a	n/a	n/a	n/a	n/a	"Trial"	n/a	n/a	n/a	"694"	"arrowright"	n/a	"NULL"	"NULL"	"NULL"	"stimuli/Ebbinghaus_0.35714_-0.2800.png"	n/a	"Ebbinghaus"	"arrowright"	"1426"	"TRUE"	"Ebbinghaus"	"0.3571400000"	"-0.280000000"	"1"	"23"
n/a	"html-keyboard-response"	"63"	"230422"	"0.0-5.0-2.0-0.5"	"zxdywk"	"600"	"1366"	"chrome"	"111.0.0"	"FALSE"	"Windows 10"	"60.8"	"044"	n/a	n/a	n/a	n/a	n/a	n/a	"fixation"	n/a	n/a	n/a	n/a	"NULL"	n/a	"NULL"	"NULL"	"NULL"	"<p style=\"color: black; font-size: 80px; padding-left: 2%; padding-right: 28%; padding-top: 35%; padding-bottom: 8%\">+</p>"	"1058"	n/a	n/a	n/a	n/a	n/a	n/a	n/a	n/a	n/a
n/a	"image-keyboard-response"	"64"	"231276"	"0.0-5.0-2.0-1.5"	"zxdywk"	"600"	"1366"	"chrome"	"111.0.0"	"FALSE"	"Windows 10"	"60.8"	"044"	n/a	n/a	n/a	n/a	n/a	n/a	"Trial"	n/a	n/a	n/a	"854"	"arrowleft"	n/a	"NULL"	"NULL"	"NULL"	"stimuli/Ebbinghaus_-0.61429_0.15857.png"	n/a	"Ebbinghaus"	"arrowleft"	"1065"	"TRUE"	"Ebbinghaus"	"-0.614290000"	"0.1585700000"	"1"	"24"
n/a	"html-keyboard-response"	"65"	"232529"	"0.0-5.0-2.0-0.6"	"zxdywk"	"600"	"1366"	"chrome"	"111.0.0"	"FALSE"	"Windows 10"	"60.8"	"044"	n/a	n/a	n/a	n/a	n/a	n/a	"fixation"	n/a	n/a	n/a	n/a	"NULL"	n/a	"NULL"	"NULL"	"NULL"	"<p style=\"color: black; font-size: 80px; padding-left: 20%; padding-right: 42%; padding-top: 15%; padding-bottom: 6%\">+</p>"	"1251"	n/a	n/a	n/a	n/a	n/a	n/a	n/a	n/a	n/a
n/a	"image-keyboard-response"	"66"	"233469"	"0.0-5.0-2.0-1.6"	"zxdywk"	"600"	"1366"	"chrome"	"111.0.0"	"FALSE"	"Windows 10"	"60.8"	"044"	n/a	n/a	n/a	n/a	n/a	n/a	"Trial"	n/a	n/a	n/a	"939"	"arrowright"	n/a	"NULL"	"NULL"	"NULL"	"stimuli/Ebbinghaus_-0.1000_-0.15857.png"	n/a	"Ebbinghaus"	"arrowright"	"1253"	"TRUE"	"Ebbinghaus"	"-0.100000000"	"-0.158570000"	"1"	"25"
n/a	"html-keyboard-response"	"67"	"234629"	"0.0-5.0-2.0-0.7"	"zxdywk"	"600"	"1366"	"chrome"	"111.0.0"	"FALSE"	"Windows 10"	"60.8"	"044"	n/a	n/a	n/a	n/a	n/a	n/a	"fixation"	n/a	n/a	n/a	n/a	"NULL"	n/a	"NULL"	"NULL"	"NULL"	"<p style=\"color: black; font-size: 80px; padding-left: 11%; padding-right: 28%; padding-top: 13%; padding-bottom: 4%\">+</p>"	"1145"	n/a	n/a	n/a	n/a	n/a	n/a	n/a	n/a	n/a
n/a	"image-keyboard-response"	"68"	"235423"	"0.0-5.0-2.0-1.7"	"zxdywk"	"600"	"1366"	"chrome"	"111.0.0"	"FALSE"	"Windows 10"	"60.8"	"044"	n/a	n/a	n/a	n/a	n/a	n/a	"Trial"	n/a	n/a	n/a	"793"	"arrowright"	n/a	"NULL"	"NULL"	"NULL"	"stimuli/Ebbinghaus_0.61429_-0.11071.png"	n/a	"Ebbinghaus"	"arrowright"	"1160"	"TRUE"	"Ebbinghaus"	"0.6142900000"	"-0.110710000"	"1"	"26"
n/a	"html-keyboard-response"	"69"	"236533"	"0.0-5.0-2.0-0.8"	"zxdywk"	"600"	"1366"	"chrome"	"111.0.0"	"FALSE"	"Windows 10"	"60.8"	"044"	n/a	n/a	n/a	n/a	n/a	n/a	"fixation"	n/a	n/a	n/a	n/a	"NULL"	n/a	"NULL"	"NULL"	"NULL"	"<p style=\"color: black; font-size: 80px; padding-left: 11%; padding-right: 13%; padding-top: 17%; padding-bottom: 22%\">+</p>"	"1104"	n/a	n/a	n/a	n/a	n/a	n/a	n/a	n/a	n/a
n/a	"image-keyboard-response"	"70"	"237247"	"0.0-5.0-2.0-1.8"	"zxdywk"	"600"	"1366"	"chrome"	"111.0.0"	"FALSE"	"Windows 10"	"60.8"	"044"	n/a	n/a	n/a	n/a	n/a	n/a	"Trial"	n/a	n/a	n/a	"713"	"arrowright"	n/a	"NULL"	"NULL"	"NULL"	"stimuli/Ebbinghaus_-0.1000_-0.2800.png"	n/a	"Ebbinghaus"	"arrowright"	"1110"	"TRUE"	"Ebbinghaus"	"-0.100000000"	"-0.280000000"	"1"	"27"
n/a	"html-keyboard-response"	"71"	"238434"	"0.0-5.0-2.0-0.9"	"zxdywk"	"600"	"1366"	"chrome"	"111.0.0"	"FALSE"	"Windows 10"	"60.8"	"044"	n/a	n/a	n/a	n/a	n/a	n/a	"fixation"	n/a	n/a	n/a	n/a	"NULL"	n/a	"NULL"	"NULL"	"NULL"	"<p style=\"color: black; font-size: 80px; padding-left: 8%; padding-right: 42%; padding-top: 36%; padding-bottom: 5%\">+</p>"	"1182"	n/a	n/a	n/a	n/a	n/a	n/a	n/a	n/a	n/a
n/a	"image-keyboard-response"	"72"	"239046"	"0.0-5.0-2.0-1.9"	"zxdywk"	"600"	"1366"	"chrome"	"111.0.0"	"FALSE"	"Windows 10"	"60.8"	"044"	n/a	n/a	n/a	n/a	n/a	n/a	"Trial"	n/a	n/a	n/a	"612"	"arrowleft"	n/a	"NULL"	"NULL"	"NULL"	"stimuli/Ebbinghaus_0.35714_0.15857.png"	n/a	"Ebbinghaus"	"arrowleft"	"1187"	"TRUE"	"Ebbinghaus"	"0.3571400000"	"0.1585700000"	"1"	"28"
n/a	"html-keyboard-response"	"73"	"240501"	"0.0-5.0-2.0-0.10"	"zxdywk"	"600"	"1366"	"chrome"	"111.0.0"	"FALSE"	"Windows 10"	"60.8"	"044"	n/a	n/a	n/a	n/a	n/a	n/a	"fixation"	n/a	n/a	n/a	n/a	"NULL"	n/a	"NULL"	"NULL"	"NULL"	"<p style=\"color: black; font-size: 80px; padding-left: 13%; padding-right: 22%; padding-top: 48%; padding-bottom: 32%\">+</p>"	"1452"	n/a	n/a	n/a	n/a	n/a	n/a	n/a	n/a	n/a
n/a	"image-keyboard-response"	"74"	"241281"	"0.0-5.0-2.0-1.10"	"zxdywk"	"600"	"1366"	"chrome"	"111.0.0"	"FALSE"	"Windows 10"	"60.8"	"044"	n/a	n/a	n/a	n/a	n/a	n/a	"Trial"	n/a	n/a	n/a	"779"	"arrowleft"	n/a	"NULL"	"NULL"	"NULL"	"stimuli/Ebbinghaus_0.87143_0.28000.png"	n/a	"Ebbinghaus"	"arrowleft"	"1455"	"TRUE"	"Ebbinghaus"	"0.8714300000"	"0.2800000000"	"1"	"29"
n/a	"html-keyboard-response"	"75"	"242308"	"0.0-5.0-2.0-0.11"	"zxdywk"	"600"	"1366"	"chrome"	"111.0.0"	"FALSE"	"Windows 10"	"60.8"	"044"	n/a	n/a	n/a	n/a	n/a	n/a	"fixation"	n/a	n/a	n/a	n/a	"NULL"	n/a	"NULL"	"NULL"	"NULL"	"<p style=\"color: black; font-size: 80px; padding-left: 12%; padding-right: 37%; padding-top: 21%; padding-bottom: 26%\">+</p>"	"1025"	n/a	n/a	n/a	n/a	n/a	n/a	n/a	n/a	n/a
n/a	"image-keyboard-response"	"76"	"242824"	"0.0-5.0-2.0-1.11"	"zxdywk"	"600"	"1366"	"chrome"	"111.0.0"	"FALSE"	"Windows 10"	"60.8"	"044"	n/a	n/a	n/a	n/a	n/a	n/a	"Trial"	n/a	n/a	n/a	"515"	"arrowright"	n/a	"NULL"	"NULL"	"NULL"	"stimuli/Ebbinghaus_0.35714_-0.2150.png"	n/a	"Ebbinghaus"	"arrowright"	"1027"	"TRUE"	"Ebbinghaus"	"0.3571400000"	"-0.215000000"	"1"	"30"
n/a	"html-keyboard-response"	"77"	"243918"	"0.0-5.0-2.0-0.12"	"zxdywk"	"600"	"1366"	"chrome"	"111.0.0"	"FALSE"	"Windows 10"	"60.8"	"044"	n/a	n/a	n/a	n/a	n/a	n/a	"fixation"	n/a	n/a	n/a	n/a	"NULL"	n/a	"NULL"	"NULL"	"NULL"	"<p style=\"color: black; font-size: 80px; padding-left: 24%; padding-right: 16%; padding-top: 15%; padding-bottom: 13%\">+</p>"	"1081"	n/a	n/a	n/a	n/a	n/a	n/a	n/a	n/a	n/a
n/a	"image-keyboard-response"	"78"	"244594"	"0.0-5.0-2.0-1.12"	"zxdywk"	"600"	"1366"	"chrome"	"111.0.0"	"FALSE"	"Windows 10"	"60.8"	"044"	n/a	n/a	n/a	n/a	n/a	n/a	"Trial"	n/a	n/a	n/a	"675"	"arrowright"	n/a	"NULL"	"NULL"	"NULL"	"stimuli/Ebbinghaus_-0.1000_0.11071.png"	n/a	"Ebbinghaus"	"arrowleft"	"1094"	"FALSE"	"Ebbinghaus"	"-0.100000000"	"0.1107100000"	"1"	"31"
n/a	"html-keyboard-response"	"79"	"245979"	"0.0-5.0-2.0-0.13"	"zxdywk"	"600"	"1366"	"chrome"	"111.0.0"	"FALSE"	"Windows 10"	"60.8"	"044"	n/a	n/a	n/a	n/a	n/a	n/a	"fixation"	n/a	n/a	n/a	n/a	"NULL"	n/a	"NULL"	"NULL"	"NULL"	"<p style=\"color: black; font-size: 80px; padding-left: 14%; padding-right: 37%; padding-top: 42%; padding-bottom: 48%\">+</p>"	"1382"	n/a	n/a	n/a	n/a	n/a	n/a	n/a	n/a	n/a
n/a	"image-keyboard-response"	"80"	"246593"	"0.0-5.0-2.0-1.13"	"zxdywk"	"600"	"1366"	"chrome"	"111.0.0"	"FALSE"	"Windows 10"	"60.8"	"044"	n/a	n/a	n/a	n/a	n/a	n/a	"Trial"	n/a	n/a	n/a	"613"	"arrowright"	n/a	"NULL"	"NULL"	"NULL"	"stimuli/Ebbinghaus_-0.87143_-0.2150.png"	n/a	"Ebbinghaus"	"arrowright"	"1385"	"TRUE"	"Ebbinghaus"	"-0.871430000"	"-0.215000000"	"1"	"32"
n/a	"html-keyboard-response"	"81"	"248075"	"0.0-5.0-2.0-0.14"	"zxdywk"	"600"	"1366"	"chrome"	"111.0.0"	"FALSE"	"Windows 10"	"60.8"	"044"	n/a	n/a	n/a	n/a	n/a	n/a	"fixation"	n/a	n/a	n/a	n/a	"NULL"	n/a	"NULL"	"NULL"	"NULL"	"<p style=\"color: black; font-size: 80px; padding-left: 19%; padding-right: 25%; padding-top: 21%; padding-bottom: 15%\">+</p>"	"1470"	n/a	n/a	n/a	n/a	n/a	n/a	n/a	n/a	n/a
n/a	"image-keyboard-response"	"82"	"248935"	"0.0-5.0-2.0-1.14"	"zxdywk"	"600"	"1366"	"chrome"	"111.0.0"	"FALSE"	"Windows 10"	"60.8"	"044"	n/a	n/a	n/a	n/a	n/a	n/a	"Trial"	n/a	n/a	n/a	"860"	"arrowright"	n/a	"NULL"	"NULL"	"NULL"	"stimuli/Ebbinghaus_-0.35714_-0.11071.png"	n/a	"Ebbinghaus"	"arrowright"	"1482"	"TRUE"	"Ebbinghaus"	"-0.357140000"	"-0.110710000"	"1"	"33"
n/a	"html-keyboard-response"	"83"	"250387"	"0.0-5.0-2.0-0.15"	"zxdywk"	"600"	"1366"	"chrome"	"111.0.0"	"FALSE"	"Windows 10"	"60.8"	"044"	n/a	n/a	n/a	n/a	n/a	n/a	"fixation"	n/a	n/a	n/a	n/a	"NULL"	n/a	"NULL"	"NULL"	"NULL"	"<p style=\"color: black; font-size: 80px; padding-left: 4%; padding-right: 41%; padding-top: 19%; padding-bottom: 0%\">+</p>"	"1447"	n/a	n/a	n/a	n/a	n/a	n/a	n/a	n/a	n/a
n/a	"image-keyboard-response"	"84"	"251132"	"0.0-5.0-2.0-1.15"	"zxdywk"	"600"	"1366"	"chrome"	"111.0.0"	"FALSE"	"Windows 10"	"60.8"	"044"	n/a	n/a	n/a	n/a	n/a	n/a	"Trial"	n/a	n/a	n/a	"744"	"arrowleft"	n/a	"NULL"	"NULL"	"NULL"	"stimuli/Ebbinghaus_-0.87143_0.15857.png"	n/a	"Ebbinghaus"	"arrowleft"	"1452"	"TRUE"	"Ebbinghaus"	"-0.871430000"	"0.1585700000"	"1"	"34"
n/a	"html-keyboard-response"	"85"	"252481"	"0.0-5.0-2.0-0.16"	"zxdywk"	"600"	"1366"	"chrome"	"111.0.0"	"FALSE"	"Windows 10"	"60.8"	"044"	n/a	n/a	n/a	n/a	n/a	n/a	"fixation"	n/a	n/a	n/a	n/a	"NULL"	n/a	"NULL"	"NULL"	"NULL"	"<p style=\"color: black; font-size: 80px; padding-left: 21%; padding-right: 26%; padding-top: 49%; padding-bottom: 47%\">+</p>"	"1342"	n/a	n/a	n/a	n/a	n/a	n/a	n/a	n/a	n/a
n/a	"image-keyboard-response"	"86"	"252984"	"0.0-5.0-2.0-1.16"	"zxdywk"	"600"	"1366"	"chrome"	"111.0.0"	"FALSE"	"Windows 10"	"60.8"	"044"	n/a	n/a	n/a	n/a	n/a	n/a	"Trial"	n/a	n/a	n/a	"502"	"arrowright"	n/a	"NULL"	"NULL"	"NULL"	"stimuli/Ebbinghaus_-0.87143_-0.11071.png"	n/a	"Ebbinghaus"	"arrowright"	"1349"	"TRUE"	"Ebbinghaus"	"-0.871430000"	"-0.110710000"	"1"	"35"
n/a	"html-keyboard-response"	"87"	"254349"	"0.0-5.0-2.0-0.17"	"zxdywk"	"600"	"1366"	"chrome"	"111.0.0"	"FALSE"	"Windows 10"	"60.8"	"044"	n/a	n/a	n/a	n/a	n/a	n/a	"fixation"	n/a	n/a	n/a	n/a	"NULL"	n/a	"NULL"	"NULL"	"NULL"	"<p style=\"color: black; font-size: 80px; padding-left: 47%; padding-right: 23%; padding-top: 48%; padding-bottom: 19%\">+</p>"	"1363"	n/a	n/a	n/a	n/a	n/a	n/a	n/a	n/a	n/a
n/a	"image-keyboard-response"	"88"	"254887"	"0.0-5.0-2.0-1.17"	"zxdywk"	"600"	"1366"	"chrome"	"111.0.0"	"FALSE"	"Windows 10"	"60.8"	"044"	n/a	n/a	n/a	n/a	n/a	n/a	"Trial"	n/a	n/a	n/a	"537"	"arrowright"	n/a	"NULL"	"NULL"	"NULL"	"stimuli/Ebbinghaus_0.61429_-0.2800.png"	n/a	"Ebbinghaus"	"arrowright"	"1365"	"TRUE"	"Ebbinghaus"	"0.6142900000"	"-0.280000000"	"1"	"36"
n/a	"html-keyboard-response"	"89"	"256032"	"0.0-5.0-2.0-0.18"	"zxdywk"	"600"	"1366"	"chrome"	"111.0.0"	"FALSE"	"Windows 10"	"60.8"	"044"	n/a	n/a	n/a	n/a	n/a	n/a	"fixation"	n/a	n/a	n/a	n/a	"NULL"	n/a	"NULL"	"NULL"	"NULL"	"<p style=\"color: black; font-size: 80px; padding-left: 40%; padding-right: 13%; padding-top: 29%; padding-bottom: 48%\">+</p>"	"1129"	n/a	n/a	n/a	n/a	n/a	n/a	n/a	n/a	n/a
n/a	"image-keyboard-response"	"90"	"256681"	"0.0-5.0-2.0-1.18"	"zxdywk"	"600"	"1366"	"chrome"	"111.0.0"	"FALSE"	"Windows 10"	"60.8"	"044"	n/a	n/a	n/a	n/a	n/a	n/a	"Trial"	n/a	n/a	n/a	"648"	"arrowleft"	n/a	"NULL"	"NULL"	"NULL"	"stimuli/Ebbinghaus_-0.87143_0.28000.png"	n/a	"Ebbinghaus"	"arrowleft"	"1145"	"TRUE"	"Ebbinghaus"	"-0.871430000"	"0.2800000000"	"1"	"37"
n/a	"html-keyboard-response"	"91"	"258046"	"0.0-5.0-2.0-0.19"	"zxdywk"	"600"	"1366"	"chrome"	"111.0.0"	"FALSE"	"Windows 10"	"60.8"	"044"	n/a	n/a	n/a	n/a	n/a	n/a	"fixation"	n/a	n/a	n/a	n/a	"NULL"	n/a	"NULL"	"NULL"	"NULL"	"<p style=\"color: black; font-size: 80px; padding-left: 46%; padding-right: 41%; padding-top: 35%; padding-bottom: 18%\">+</p>"	"1353"	n/a	n/a	n/a	n/a	n/a	n/a	n/a	n/a	n/a
n/a	"image-keyboard-response"	"92"	"258685"	"0.0-5.0-2.0-1.19"	"zxdywk"	"600"	"1366"	"chrome"	"111.0.0"	"FALSE"	"Windows 10"	"60.8"	"044"	n/a	n/a	n/a	n/a	n/a	n/a	"Trial"	n/a	n/a	n/a	"637"	"arrowleft"	n/a	"NULL"	"NULL"	"NULL"	"stimuli/Ebbinghaus_-0.35714_0.28000.png"	n/a	"Ebbinghaus"	"arrowleft"	"1365"	"TRUE"	"Ebbinghaus"	"-0.357140000"	"0.2800000000"	"1"	"38"
n/a	"html-keyboard-response"	"93"	"259891"	"0.0-5.0-2.0-0.20"	"zxdywk"	"600"	"1366"	"chrome"	"111.0.0"	"FALSE"	"Windows 10"	"60.8"	"044"	n/a	n/a	n/a	n/a	n/a	n/a	"fixation"	n/a	n/a	n/a	n/a	"NULL"	n/a	"NULL"	"NULL"	"NULL"	"<p style=\"color: black; font-size: 80px; padding-left: 24%; padding-right: 43%; padding-top: 8%; padding-bottom: 19%\">+</p>"	"1194"	n/a	n/a	n/a	n/a	n/a	n/a	n/a	n/a	n/a
n/a	"image-keyboard-response"	"94"	"260409"	"0.0-5.0-2.0-1.20"	"zxdywk"	"600"	"1366"	"chrome"	"111.0.0"	"FALSE"	"Windows 10"	"60.8"	"044"	n/a	n/a	n/a	n/a	n/a	n/a	"Trial"	n/a	n/a	n/a	"518"	"arrowright"	n/a	"NULL"	"NULL"	"NULL"	"stimuli/Ebbinghaus_0.10000_-0.15857.png"	n/a	"Ebbinghaus"	"arrowright"	"1206"	"TRUE"	"Ebbinghaus"	"0.1000000000"	"-0.158570000"	"1"	"39"
n/a	"html-keyboard-response"	"95"	"261838"	"0.0-5.0-2.0-0.21"	"zxdywk"	"600"	"1366"	"chrome"	"111.0.0"	"FALSE"	"Windows 10"	"60.8"	"044"	n/a	n/a	n/a	n/a	n/a	n/a	"fixation"	n/a	n/a	n/a	n/a	"NULL"	n/a	"NULL"	"NULL"	"NULL"	"<p style=\"color: black; font-size: 80px; padding-left: 21%; padding-right: 34%; padding-top: 37%; padding-bottom: 43%\">+</p>"	"1426"	n/a	n/a	n/a	n/a	n/a	n/a	n/a	n/a	n/a
n/a	"image-keyboard-response"	"96"	"262539"	"0.0-5.0-2.0-1.21"	"zxdywk"	"600"	"1366"	"chrome"	"111.0.0"	"FALSE"	"Windows 10"	"60.8"	"044"	n/a	n/a	n/a	n/a	n/a	n/a	"Trial"	n/a	n/a	n/a	"700"	"arrowright"	n/a	"NULL"	"NULL"	"NULL"	"stimuli/Ebbinghaus_0.87143_-0.15857.png"	n/a	"Ebbinghaus"	"arrowright"	"1429"	"TRUE"	"Ebbinghaus"	"0.8714300000"	"-0.158570000"	"1"	"40"
n/a	"html-keyboard-response"	"97"	"264025"	"0.0-5.0-2.0-0.22"	"zxdywk"	"600"	"1366"	"chrome"	"111.0.0"	"FALSE"	"Windows 10"	"60.8"	"044"	n/a	n/a	n/a	n/a	n/a	n/a	"fixation"	n/a	n/a	n/a	n/a	"NULL"	n/a	"NULL"	"NULL"	"NULL"	"<p style=\"color: black; font-size: 80px; padding-left: 20%; padding-right: 7%; padding-top: 20%; padding-bottom: 5%\">+</p>"	"1484"	n/a	n/a	n/a	n/a	n/a	n/a	n/a	n/a	n/a
n/a	"image-keyboard-response"	"98"	"264829"	"0.0-5.0-2.0-1.22"	"zxdywk"	"600"	"1366"	"chrome"	"111.0.0"	"FALSE"	"Windows 10"	"60.8"	"044"	n/a	n/a	n/a	n/a	n/a	n/a	"Trial"	n/a	n/a	n/a	"804"	"arrowright"	n/a	"NULL"	"NULL"	"NULL"	"stimuli/Ebbinghaus_0.10000_-0.2800.png"	n/a	"Ebbinghaus"	"arrowright"	"1486"	"TRUE"	"Ebbinghaus"	"0.1000000000"	"-0.280000000"	"1"	"41"
n/a	"html-keyboard-response"	"99"	"266012"	"0.0-5.0-2.0-0.23"	"zxdywk"	"600"	"1366"	"chrome"	"111.0.0"	"FALSE"	"Windows 10"	"60.8"	"044"	n/a	n/a	n/a	n/a	n/a	n/a	"fixation"	n/a	n/a	n/a	n/a	"NULL"	n/a	"NULL"	"NULL"	"NULL"	"<p style=\"color: black; font-size: 80px; padding-left: 6%; padding-right: 10%; padding-top: 2%; padding-bottom: 33%\">+</p>"	"1170"	n/a	n/a	n/a	n/a	n/a	n/a	n/a	n/a	n/a
n/a	"image-keyboard-response"	"100"	"266601"	"0.0-5.0-2.0-1.23"	"zxdywk"	"600"	"1366"	"chrome"	"111.0.0"	"FALSE"	"Windows 10"	"60.8"	"044"	n/a	n/a	n/a	n/a	n/a	n/a	"Trial"	n/a	n/a	n/a	"589"	"arrowleft"	n/a	"NULL"	"NULL"	"NULL"	"stimuli/Ebbinghaus_0.61429_0.15857.png"	n/a	"Ebbinghaus"	"arrowleft"	"1183"	"TRUE"	"Ebbinghaus"	"0.6142900000"	"0.1585700000"	"1"	"42"
n/a	"html-keyboard-response"	"101"	"267932"	"0.0-5.0-2.0-0.24"	"zxdywk"	"600"	"1366"	"chrome"	"111.0.0"	"FALSE"	"Windows 10"	"60.8"	"044"	n/a	n/a	n/a	n/a	n/a	n/a	"fixation"	n/a	n/a	n/a	n/a	"NULL"	n/a	"NULL"	"NULL"	"NULL"	"<p style=\"color: black; font-size: 80px; padding-left: 50%; padding-right: 22%; padding-top: 6%; padding-bottom: 13%\">+</p>"	"1317"	n/a	n/a	n/a	n/a	n/a	n/a	n/a	n/a	n/a
n/a	"image-keyboard-response"	"102"	"268886"	"0.0-5.0-2.0-1.24"	"zxdywk"	"600"	"1366"	"chrome"	"111.0.0"	"FALSE"	"Windows 10"	"60.8"	"044"	n/a	n/a	n/a	n/a	n/a	n/a	"Trial"	n/a	n/a	n/a	"953"	"arrowright"	n/a	"NULL"	"NULL"	"NULL"	"stimuli/Ebbinghaus_0.87143_0.15857.png"	n/a	"Ebbinghaus"	"arrowleft"	"1331"	"FALSE"	"Ebbinghaus"	"0.8714300000"	"0.1585700000"	"1"	"43"
n/a	"html-keyboard-response"	"103"	"270082"	"0.0-5.0-2.0-0.25"	"zxdywk"	"600"	"1366"	"chrome"	"111.0.0"	"FALSE"	"Windows 10"	"60.8"	"044"	n/a	n/a	n/a	n/a	n/a	n/a	"fixation"	n/a	n/a	n/a	n/a	"NULL"	n/a	"NULL"	"NULL"	"NULL"	"<p style=\"color: black; font-size: 80px; padding-left: 17%; padding-right: 26%; padding-top: 20%; padding-bottom: 10%\">+</p>"	"1182"	n/a	n/a	n/a	n/a	n/a	n/a	n/a	n/a	n/a
n/a	"image-keyboard-response"	"104"	"270795"	"0.0-5.0-2.0-1.25"	"zxdywk"	"600"	"1366"	"chrome"	"111.0.0"	"FALSE"	"Windows 10"	"60.8"	"044"	n/a	n/a	n/a	n/a	n/a	n/a	"Trial"	n/a	n/a	n/a	"712"	"arrowright"	n/a	"NULL"	"NULL"	"NULL"	"stimuli/Ebbinghaus_-0.61429_-0.15857.png"	n/a	"Ebbinghaus"	"arrowright"	"1196"	"TRUE"	"Ebbinghaus"	"-0.614290000"	"-0.158570000"	"1"	"44"
n/a	"html-keyboard-response"	"105"	"272292"	"0.0-5.0-2.0-0.26"	"zxdywk"	"600"	"1366"	"chrome"	"111.0.0"	"FALSE"	"Windows 10"	"60.8"	"044"	n/a	n/a	n/a	n/a	n/a	n/a	"fixation"	n/a	n/a	n/a	n/a	"NULL"	n/a	"NULL"	"NULL"	"NULL"	"<p style=\"color: black; font-size: 80px; padding-left: 17%; padding-right: 45%; padding-top: 9%; padding-bottom: 4%\">+</p>"	"1486"	n/a	n/a	n/a	n/a	n/a	n/a	n/a	n/a	n/a
n/a	"image-keyboard-response"	"106"	"272949"	"0.0-5.0-2.0-1.26"	"zxdywk"	"600"	"1366"	"chrome"	"111.0.0"	"FALSE"	"Windows 10"	"60.8"	"044"	n/a	n/a	n/a	n/a	n/a	n/a	"Trial"	n/a	n/a	n/a	"657"	"arrowleft"	n/a	"NULL"	"NULL"	"NULL"	"stimuli/Ebbinghaus_0.35714_0.21500.png"	n/a	"Ebbinghaus"	"arrowleft"	"1497"	"TRUE"	"Ebbinghaus"	"0.3571400000"	"0.2150000000"	"1"	"45"
n/a	"html-keyboard-response"	"107"	"274045"	"0.0-5.0-2.0-0.27"	"zxdywk"	"600"	"1366"	"chrome"	"111.0.0"	"FALSE"	"Windows 10"	"60.8"	"044"	n/a	n/a	n/a	n/a	n/a	n/a	"fixation"	n/a	n/a	n/a	n/a	"NULL"	n/a	"NULL"	"NULL"	"NULL"	"<p style=\"color: black; font-size: 80px; padding-left: 28%; padding-right: 24%; padding-top: 25%; padding-bottom: 14%\">+</p>"	"1095"	n/a	n/a	n/a	n/a	n/a	n/a	n/a	n/a	n/a
n/a	"image-keyboard-response"	"108"	"274706"	"0.0-5.0-2.0-1.27"	"zxdywk"	"600"	"1366"	"chrome"	"111.0.0"	"FALSE"	"Windows 10"	"60.8"	"044"	n/a	n/a	n/a	n/a	n/a	n/a	"Trial"	n/a	n/a	n/a	"660"	"arrowright"	n/a	"NULL"	"NULL"	"NULL"	"stimuli/Ebbinghaus_0.10000_0.21500.png"	n/a	"Ebbinghaus"	"arrowleft"	"1096"	"FALSE"	"Ebbinghaus"	"0.1000000000"	"0.2150000000"	"1"	"46"
n/a	"html-keyboard-response"	"109"	"275874"	"0.0-5.0-2.0-0.28"	"zxdywk"	"600"	"1366"	"chrome"	"111.0.0"	"FALSE"	"Windows 10"	"60.8"	"044"	n/a	n/a	n/a	n/a	n/a	n/a	"fixation"	n/a	n/a	n/a	n/a	"NULL"	n/a	"NULL"	"NULL"	"NULL"	"<p style=\"color: black; font-size: 80px; padding-left: 2%; padding-right: 12%; padding-top: 4%; padding-bottom: 4%\">+</p>"	"1154"	n/a	n/a	n/a	n/a	n/a	n/a	n/a	n/a	n/a
n/a	"image-keyboard-response"	"110"	"276522"	"0.0-5.0-2.0-1.28"	"zxdywk"	"600"	"1366"	"chrome"	"111.0.0"	"FALSE"	"Windows 10"	"60.8"	"044"	n/a	n/a	n/a	n/a	n/a	n/a	"Trial"	n/a	n/a	n/a	"647"	"arrowleft"	n/a	"NULL"	"NULL"	"NULL"	"stimuli/Ebbinghaus_0.35714_0.28000.png"	n/a	"Ebbinghaus"	"arrowleft"	"1168"	"TRUE"	"Ebbinghaus"	"0.3571400000"	"0.2800000000"	"1"	"47"
n/a	"html-keyboard-response"	"111"	"277774"	"0.0-5.0-2.0-0.29"	"zxdywk"	"600"	"1366"	"chrome"	"111.0.0"	"FALSE"	"Windows 10"	"60.8"	"044"	n/a	n/a	n/a	n/a	n/a	n/a	"fixation"	n/a	n/a	n/a	n/a	"NULL"	n/a	"NULL"	"NULL"	"NULL"	"<p style=\"color: black; font-size: 80px; padding-left: 10%; padding-right: 24%; padding-top: 40%; padding-bottom: 23%\">+</p>"	"1247"	n/a	n/a	n/a	n/a	n/a	n/a	n/a	n/a	n/a
n/a	"image-keyboard-response"	"112"	"278598"	"0.0-5.0-2.0-1.29"	"zxdywk"	"600"	"1366"	"chrome"	"111.0.0"	"FALSE"	"Windows 10"	"60.8"	"044"	n/a	n/a	n/a	n/a	n/a	n/a	"Trial"	n/a	n/a	n/a	"823"	"arrowleft"	n/a	"NULL"	"NULL"	"NULL"	"stimuli/Ebbinghaus_-0.35714_0.21500.png"	n/a	"Ebbinghaus"	"arrowleft"	"1252"	"TRUE"	"Ebbinghaus"	"-0.357140000"	"0.2150000000"	"1"	"48"
n/a	"html-keyboard-response"	"113"	"279840"	"0.0-5.0-2.0-0.30"	"zxdywk"	"600"	"1366"	"chrome"	"111.0.0"	"FALSE"	"Windows 10"	"60.8"	"044"	n/a	n/a	n/a	n/a	n/a	n/a	"fixation"	n/a	n/a	n/a	n/a	"NULL"	n/a	"NULL"	"NULL"	"NULL"	"<p style=\"color: black; font-size: 80px; padding-left: 18%; padding-right: 25%; padding-top: 9%; padding-bottom: 11%\">+</p>"	"1231"	n/a	n/a	n/a	n/a	n/a	n/a	n/a	n/a	n/a
n/a	"image-keyboard-response"	"114"	"280564"	"0.0-5.0-2.0-1.30"	"zxdywk"	"600"	"1366"	"chrome"	"111.0.0"	"FALSE"	"Windows 10"	"60.8"	"044"	n/a	n/a	n/a	n/a	n/a	n/a	"Trial"	n/a	n/a	n/a	"723"	"arrowleft"	n/a	"NULL"	"NULL"	"NULL"	"stimuli/Ebbinghaus_-0.87143_0.11071.png"	n/a	"Ebbinghaus"	"arrowleft"	"1242"	"TRUE"	"Ebbinghaus"	"-0.871430000"	"0.1107100000"	"1"	"49"
n/a	"html-keyboard-response"	"115"	"281886"	"0.0-5.0-2.0-0.31"	"zxdywk"	"600"	"1366"	"chrome"	"111.0.0"	"FALSE"	"Windows 10"	"60.8"	"044"	n/a	n/a	n/a	n/a	n/a	n/a	"fixation"	n/a	n/a	n/a	n/a	"NULL"	n/a	"NULL"	"NULL"	"NULL"	"<p style=\"color: black; font-size: 80px; padding-left: 46%; padding-right: 39%; padding-top: 31%; padding-bottom: 41%\">+</p>"	"1310"	n/a	n/a	n/a	n/a	n/a	n/a	n/a	n/a	n/a
n/a	"image-keyboard-response"	"116"	"282620"	"0.0-5.0-2.0-1.31"	"zxdywk"	"600"	"1366"	"chrome"	"111.0.0"	"FALSE"	"Windows 10"	"60.8"	"044"	n/a	n/a	n/a	n/a	n/a	n/a	"Trial"	n/a	n/a	n/a	"734"	"arrowleft"	n/a	"NULL"	"NULL"	"NULL"	"stimuli/Ebbinghaus_-0.61429_0.21500.png"	n/a	"Ebbinghaus"	"arrowleft"	"1322"	"TRUE"	"Ebbinghaus"	"-0.614290000"	"0.2150000000"	"1"	"50"
n/a	"html-keyboard-response"	"117"	"283824"	"0.0-5.0-2.0-0.32"	"zxdywk"	"600"	"1366"	"chrome"	"111.0.0"	"FALSE"	"Windows 10"	"60.8"	"044"	n/a	n/a	n/a	n/a	n/a	n/a	"fixation"	n/a	n/a	n/a	n/a	"NULL"	n/a	"NULL"	"NULL"	"NULL"	"<p style=\"color: black; font-size: 80px; padding-left: 15%; padding-right: 32%; padding-top: 25%; padding-bottom: 23%\">+</p>"	"1202"	n/a	n/a	n/a	n/a	n/a	n/a	n/a	n/a	n/a
n/a	"image-keyboard-response"	"118"	"284453"	"0.0-5.0-2.0-1.32"	"zxdywk"	"600"	"1366"	"chrome"	"111.0.0"	"FALSE"	"Windows 10"	"60.8"	"044"	n/a	n/a	n/a	n/a	n/a	n/a	"Trial"	n/a	n/a	n/a	"628"	"arrowright"	n/a	"NULL"	"NULL"	"NULL"	"stimuli/Ebbinghaus_0.87143_-0.2150.png"	n/a	"Ebbinghaus"	"arrowright"	"1204"	"TRUE"	"Ebbinghaus"	"0.8714300000"	"-0.215000000"	"1"	"51"
n/a	"html-keyboard-response"	"119"	"285783"	"0.0-5.0-2.0-0.33"	"zxdywk"	"600"	"1366"	"chrome"	"111.0.0"	"FALSE"	"Windows 10"	"60.8"	"044"	n/a	n/a	n/a	n/a	n/a	n/a	"fixation"	n/a	n/a	n/a	n/a	"NULL"	n/a	"NULL"	"NULL"	"NULL"	"<p style=\"color: black; font-size: 80px; padding-left: 35%; padding-right: 44%; padding-top: 26%; padding-bottom: 25%\">+</p>"	"1320"	n/a	n/a	n/a	n/a	n/a	n/a	n/a	n/a	n/a
n/a	"image-keyboard-response"	"120"	"286549"	"0.0-5.0-2.0-1.33"	"zxdywk"	"600"	"1366"	"chrome"	"111.0.0"	"FALSE"	"Windows 10"	"60.8"	"044"	n/a	n/a	n/a	n/a	n/a	n/a	"Trial"	n/a	n/a	n/a	"766"	"arrowleft"	n/a	"NULL"	"NULL"	"NULL"	"stimuli/Ebbinghaus_-0.1000_0.15857.png"	n/a	"Ebbinghaus"	"arrowleft"	"1330"	"TRUE"	"Ebbinghaus"	"-0.100000000"	"0.1585700000"	"1"	"52"
n/a	"html-keyboard-response"	"121"	"287653"	"0.0-5.0-2.0-0.34"	"zxdywk"	"600"	"1366"	"chrome"	"111.0.0"	"FALSE"	"Windows 10"	"60.8"	"044"	n/a	n/a	n/a	n/a	n/a	n/a	"fixation"	n/a	n/a	n/a	n/a	"NULL"	n/a	"NULL"	"NULL"	"NULL"	"<p style=\"color: black; font-size: 80px; padding-left: 8%; padding-right: 3%; padding-top: 11%; padding-bottom: 14%\">+</p>"	"1091"	n/a	n/a	n/a	n/a	n/a	n/a	n/a	n/a	n/a
n/a	"image-keyboard-response"	"122"	"288552"	"0.0-5.0-2.0-1.34"	"zxdywk"	"600"	"1366"	"chrome"	"111.0.0"	"FALSE"	"Windows 10"	"60.8"	"044"	n/a	n/a	n/a	n/a	n/a	n/a	"Trial"	n/a	n/a	n/a	"898"	"arrowright"	n/a	"NULL"	"NULL"	"NULL"	"stimuli/Ebbinghaus_-0.1000_-0.2150.png"	n/a	"Ebbinghaus"	"arrowright"	"1104"	"TRUE"	"Ebbinghaus"	"-0.100000000"	"-0.215000000"	"1"	"53"
n/a	"html-keyboard-response"	"123"	"289917"	"0.0-5.0-2.0-0.35"	"zxdywk"	"600"	"1366"	"chrome"	"111.0.0"	"FALSE"	"Windows 10"	"60.8"	"044"	n/a	n/a	n/a	n/a	n/a	n/a	"fixation"	n/a	n/a	n/a	n/a	"NULL"	n/a	"NULL"	"NULL"	"NULL"	"<p style=\"color: black; font-size: 80px; padding-left: 44%; padding-right: 1%; padding-top: 21%; padding-bottom: 38%\">+</p>"	"1362"	n/a	n/a	n/a	n/a	n/a	n/a	n/a	n/a	n/a
n/a	"image-keyboard-response"	"124"	"290808"	"0.0-5.0-2.0-1.35"	"zxdywk"	"600"	"1366"	"chrome"	"111.0.0"	"FALSE"	"Windows 10"	"60.8"	"044"	n/a	n/a	n/a	n/a	n/a	n/a	"Trial"	n/a	n/a	n/a	"891"	"arrowright"	n/a	"NULL"	"NULL"	"NULL"	"stimuli/Ebbinghaus_0.10000_-0.11071.png"	n/a	"Ebbinghaus"	"arrowright"	"1365"	"TRUE"	"Ebbinghaus"	"0.1000000000"	"-0.110710000"	"1"	"54"
n/a	"html-keyboard-response"	"125"	"291973"	"0.0-5.0-2.0-0.36"	"zxdywk"	"600"	"1366"	"chrome"	"111.0.0"	"FALSE"	"Windows 10"	"60.8"	"044"	n/a	n/a	n/a	n/a	n/a	n/a	"fixation"	n/a	n/a	n/a	n/a	"NULL"	n/a	"NULL"	"NULL"	"NULL"	"<p style=\"color: black; font-size: 80px; padding-left: 12%; padding-right: 4%; padding-top: 17%; padding-bottom: 13%\">+</p>"	"1151"	n/a	n/a	n/a	n/a	n/a	n/a	n/a	n/a	n/a
n/a	"image-keyboard-response"	"126"	"292538"	"0.0-5.0-2.0-1.36"	"zxdywk"	"600"	"1366"	"chrome"	"111.0.0"	"FALSE"	"Windows 10"	"60.8"	"044"	n/a	n/a	n/a	n/a	n/a	n/a	"Trial"	n/a	n/a	n/a	"564"	"arrowleft"	n/a	"NULL"	"NULL"	"NULL"	"stimuli/Ebbinghaus_0.61429_0.28000.png"	n/a	"Ebbinghaus"	"arrowleft"	"1165"	"TRUE"	"Ebbinghaus"	"0.6142900000"	"0.2800000000"	"1"	"55"
n/a	"html-keyboard-response"	"127"	"293980"	"0.0-5.0-2.0-0.37"	"zxdywk"	"600"	"1366"	"chrome"	"111.0.0"	"FALSE"	"Windows 10"	"60.8"	"044"	n/a	n/a	n/a	n/a	n/a	n/a	"fixation"	n/a	n/a	n/a	n/a	"NULL"	n/a	"NULL"	"NULL"	"NULL"	"<p style=\"color: black; font-size: 80px; padding-left: 35%; padding-right: 29%; padding-top: 46%; padding-bottom: 30%\">+</p>"	"1440"	n/a	n/a	n/a	n/a	n/a	n/a	n/a	n/a	n/a
n/a	"image-keyboard-response"	"128"	"294666"	"0.0-5.0-2.0-1.37"	"zxdywk"	"600"	"1366"	"chrome"	"111.0.0"	"FALSE"	"Windows 10"	"60.8"	"044"	n/a	n/a	n/a	n/a	n/a	n/a	"Trial"	n/a	n/a	n/a	"686"	"arrowleft"	n/a	"NULL"	"NULL"	"NULL"	"stimuli/Ebbinghaus_-0.1000_0.28000.png"	n/a	"Ebbinghaus"	"arrowleft"	"1442"	"TRUE"	"Ebbinghaus"	"-0.100000000"	"0.2800000000"	"1"	"56"
n/a	"html-keyboard-response"	"129"	"295933"	"0.0-5.0-2.0-0.38"	"zxdywk"	"600"	"1366"	"chrome"	"111.0.0"	"FALSE"	"Windows 10"	"60.8"	"044"	n/a	n/a	n/a	n/a	n/a	n/a	"fixation"	n/a	n/a	n/a	n/a	"NULL"	n/a	"NULL"	"NULL"	"NULL"	"<p style=\"color: black; font-size: 80px; padding-left: 43%; padding-right: 18%; padding-top: 48%; padding-bottom: 19%\">+</p>"	"1263"	n/a	n/a	n/a	n/a	n/a	n/a	n/a	n/a	n/a
n/a	"image-keyboard-response"	"130"	"297345"	"0.0-5.0-2.0-1.38"	"zxdywk"	"600"	"1366"	"chrome"	"111.0.0"	"FALSE"	"Windows 10"	"60.8"	"044"	n/a	n/a	n/a	n/a	n/a	n/a	"Trial"	n/a	n/a	n/a	"1412"	"arrowright"	n/a	"NULL"	"NULL"	"NULL"	"stimuli/Ebbinghaus_-0.1000_-0.11071.png"	n/a	"Ebbinghaus"	"arrowright"	"1267"	"TRUE"	"Ebbinghaus"	"-0.100000000"	"-0.110710000"	"1"	"57"
n/a	"html-keyboard-response"	"131"	"298588"	"0.0-5.0-2.0-0.39"	"zxdywk"	"600"	"1366"	"chrome"	"111.0.0"	"FALSE"	"Windows 10"	"60.8"	"044"	n/a	n/a	n/a	n/a	n/a	n/a	"fixation"	n/a	n/a	n/a	n/a	"NULL"	n/a	"NULL"	"NULL"	"NULL"	"<p style=\"color: black; font-size: 80px; padding-left: 12%; padding-right: 25%; padding-top: 35%; padding-bottom: 18%\">+</p>"	"1225"	n/a	n/a	n/a	n/a	n/a	n/a	n/a	n/a	n/a
n/a	"image-keyboard-response"	"132"	"299262"	"0.0-5.0-2.0-1.39"	"zxdywk"	"600"	"1366"	"chrome"	"111.0.0"	"FALSE"	"Windows 10"	"60.8"	"044"	n/a	n/a	n/a	n/a	n/a	n/a	"Trial"	n/a	n/a	n/a	"668"	"arrowright"	n/a	"NULL"	"NULL"	"NULL"	"stimuli/Ebbinghaus_-0.87143_-0.2800.png"	n/a	"Ebbinghaus"	"arrowright"	"1243"	"TRUE"	"Ebbinghaus"	"-0.871430000"	"-0.280000000"	"1"	"58"
n/a	"html-keyboard-response"	"133"	"300558"	"0.0-5.0-2.0-0.40"	"zxdywk"	"600"	"1366"	"chrome"	"111.0.0"	"FALSE"	"Windows 10"	"60.8"	"044"	n/a	n/a	n/a	n/a	n/a	n/a	"fixation"	n/a	n/a	n/a	n/a	"NULL"	n/a	"NULL"	"NULL"	"NULL"	"<p style=\"color: black; font-size: 80px; padding-left: 41%; padding-right: 23%; padding-top: 28%; padding-bottom: 7%\">+</p>"	"1284"	n/a	n/a	n/a	n/a	n/a	n/a	n/a	n/a	n/a
n/a	"image-keyboard-response"	"134"	"301250"	"0.0-5.0-2.0-1.40"	"zxdywk"	"600"	"1366"	"chrome"	"111.0.0"	"FALSE"	"Windows 10"	"60.8"	"044"	n/a	n/a	n/a	n/a	n/a	n/a	"Trial"	n/a	n/a	n/a	"691"	"arrowright"	n/a	"NULL"	"NULL"	"NULL"	"stimuli/Ebbinghaus_0.61429_-0.2150.png"	n/a	"Ebbinghaus"	"arrowright"	"1296"	"TRUE"	"Ebbinghaus"	"0.6142900000"	"-0.215000000"	"1"	"59"
n/a	"html-keyboard-response"	"135"	"302729"	"0.0-5.0-2.0-0.41"	"zxdywk"	"600"	"1366"	"chrome"	"111.0.0"	"FALSE"	"Windows 10"	"60.8"	"044"	n/a	n/a	n/a	n/a	n/a	n/a	"fixation"	n/a	n/a	n/a	n/a	"NULL"	n/a	"NULL"	"NULL"	"NULL"	"<p style=\"color: black; font-size: 80px; padding-left: 18%; padding-right: 0%; padding-top: 42%; padding-bottom: 7%\">+</p>"	"1472"	n/a	n/a	n/a	n/a	n/a	n/a	n/a	n/a	n/a
n/a	"image-keyboard-response"	"136"	"303613"	"0.0-5.0-2.0-1.41"	"zxdywk"	"600"	"1366"	"chrome"	"111.0.0"	"FALSE"	"Windows 10"	"60.8"	"044"	n/a	n/a	n/a	n/a	n/a	n/a	"Trial"	n/a	n/a	n/a	"883"	"arrowright"	n/a	"NULL"	"NULL"	"NULL"	"stimuli/Ebbinghaus_0.61429_-0.15857.png"	n/a	"Ebbinghaus"	"arrowright"	"1479"	"TRUE"	"Ebbinghaus"	"0.6142900000"	"-0.158570000"	"1"	"60"
n/a	"html-keyboard-response"	"137"	"304745"	"0.0-5.0-2.0-0.42"	"zxdywk"	"600"	"1366"	"chrome"	"111.0.0"	"FALSE"	"Windows 10"	"60.8"	"044"	n/a	n/a	n/a	n/a	n/a	n/a	"fixation"	n/a	n/a	n/a	n/a	"NULL"	n/a	"NULL"	"NULL"	"NULL"	"<p style=\"color: black; font-size: 80px; padding-left: 48%; padding-right: 13%; padding-top: 21%; padding-bottom: 18%\">+</p>"	"1124"	n/a	n/a	n/a	n/a	n/a	n/a	n/a	n/a	n/a
n/a	"image-keyboard-response"	"138"	"305455"	"0.0-5.0-2.0-1.42"	"zxdywk"	"600"	"1366"	"chrome"	"111.0.0"	"FALSE"	"Windows 10"	"60.8"	"044"	n/a	n/a	n/a	n/a	n/a	n/a	"Trial"	n/a	n/a	n/a	"710"	"arrowright"	n/a	"NULL"	"NULL"	"NULL"	"stimuli/Ebbinghaus_-0.35714_-0.2800.png"	n/a	"Ebbinghaus"	"arrowright"	"1132"	"TRUE"	"Ebbinghaus"	"-0.357140000"	"-0.280000000"	"1"	"61"
n/a	"html-keyboard-response"	"139"	"306493"	"0.0-5.0-2.0-0.43"	"zxdywk"	"600"	"1366"	"chrome"	"111.0.0"	"FALSE"	"Windows 10"	"60.8"	"044"	n/a	n/a	n/a	n/a	n/a	n/a	"fixation"	n/a	n/a	n/a	n/a	"NULL"	n/a	"NULL"	"NULL"	"NULL"	"<p style=\"color: black; font-size: 80px; padding-left: 31%; padding-right: 22%; padding-top: 13%; padding-bottom: 46%\">+</p>"	"1028"	n/a	n/a	n/a	n/a	n/a	n/a	n/a	n/a	n/a
n/a	"image-keyboard-response"	"140"	"307552"	"0.0-5.0-2.0-1.43"	"zxdywk"	"600"	"1366"	"chrome"	"111.0.0"	"FALSE"	"Windows 10"	"60.8"	"044"	n/a	n/a	n/a	n/a	n/a	n/a	"Trial"	n/a	n/a	n/a	"1058"	"arrowright"	n/a	"NULL"	"NULL"	"NULL"	"stimuli/Ebbinghaus_0.61429_0.11071.png"	n/a	"Ebbinghaus"	"arrowleft"	"1038"	"FALSE"	"Ebbinghaus"	"0.6142900000"	"0.1107100000"	"1"	"62"
n/a	"html-keyboard-response"	"141"	"308576"	"0.0-5.0-2.0-0.44"	"zxdywk"	"600"	"1366"	"chrome"	"111.0.0"	"FALSE"	"Windows 10"	"60.8"	"044"	n/a	n/a	n/a	n/a	n/a	n/a	"fixation"	n/a	n/a	n/a	n/a	"NULL"	n/a	"NULL"	"NULL"	"NULL"	"<p style=\"color: black; font-size: 80px; padding-left: 46%; padding-right: 1%; padding-top: 21%; padding-bottom: 28%\">+</p>"	"1010"	n/a	n/a	n/a	n/a	n/a	n/a	n/a	n/a	n/a
n/a	"image-keyboard-response"	"142"	"309143"	"0.0-5.0-2.0-1.44"	"zxdywk"	"600"	"1366"	"chrome"	"111.0.0"	"FALSE"	"Windows 10"	"60.8"	"044"	n/a	n/a	n/a	n/a	n/a	n/a	"Trial"	n/a	n/a	n/a	"566"	"arrowright"	n/a	"NULL"	"NULL"	"NULL"	"stimuli/Ebbinghaus_0.35714_-0.15857.png"	n/a	"Ebbinghaus"	"arrowright"	"1024"	"TRUE"	"Ebbinghaus"	"0.3571400000"	"-0.158570000"	"1"	"63"
n/a	"html-keyboard-response"	"143"	"310188"	"0.0-5.0-2.0-0.45"	"zxdywk"	"600"	"1366"	"chrome"	"111.0.0"	"FALSE"	"Windows 10"	"60.8"	"044"	n/a	n/a	n/a	n/a	n/a	n/a	"fixation"	n/a	n/a	n/a	n/a	"NULL"	n/a	"NULL"	"NULL"	"NULL"	"<p style=\"color: black; font-size: 80px; padding-left: 49%; padding-right: 37%; padding-top: 37%; padding-bottom: 39%\">+</p>"	"1032"	n/a	n/a	n/a	n/a	n/a	n/a	n/a	n/a	n/a
n/a	"image-keyboard-response"	"144"	"310964"	"0.0-5.0-2.0-1.45"	"zxdywk"	"600"	"1366"	"chrome"	"111.0.0"	"FALSE"	"Windows 10"	"60.8"	"044"	n/a	n/a	n/a	n/a	n/a	n/a	"Trial"	n/a	n/a	n/a	"776"	"arrowleft"	n/a	"NULL"	"NULL"	"NULL"	"stimuli/Ebbinghaus_-0.35714_0.15857.png"	n/a	"Ebbinghaus"	"arrowleft"	"1045"	"TRUE"	"Ebbinghaus"	"-0.357140000"	"0.1585700000"	"1"	"64"
n/a	"html-keyboard-response"	"145"	"312092"	"0.0-5.0-2.0-0.46"	"zxdywk"	"600"	"1366"	"chrome"	"111.0.0"	"FALSE"	"Windows 10"	"60.8"	"044"	n/a	n/a	n/a	n/a	n/a	n/a	"fixation"	n/a	n/a	n/a	n/a	"NULL"	n/a	"NULL"	"NULL"	"NULL"	"<p style=\"color: black; font-size: 80px; padding-left: 43%; padding-right: 9%; padding-top: 22%; padding-bottom: 45%\">+</p>"	"1126"	n/a	n/a	n/a	n/a	n/a	n/a	n/a	n/a	n/a
n/a	"image-keyboard-response"	"146"	"312675"	"0.0-5.0-2.0-1.46"	"zxdywk"	"600"	"1366"	"chrome"	"111.0.0"	"FALSE"	"Windows 10"	"60.8"	"044"	n/a	n/a	n/a	n/a	n/a	n/a	"Trial"	n/a	n/a	n/a	"583"	"arrowleft"	n/a	"NULL"	"NULL"	"NULL"	"stimuli/Ebbinghaus_0.87143_0.21500.png"	n/a	"Ebbinghaus"	"arrowleft"	"1128"	"TRUE"	"Ebbinghaus"	"0.8714300000"	"0.2150000000"	"1"	"65"
n/a	"html-keyboard-response"	"147"	"314059"	"0.0-5.0-2.0-0.47"	"zxdywk"	"600"	"1366"	"chrome"	"111.0.0"	"FALSE"	"Windows 10"	"60.8"	"044"	n/a	n/a	n/a	n/a	n/a	n/a	"fixation"	n/a	n/a	n/a	n/a	"NULL"	n/a	"NULL"	"NULL"	"NULL"	"<p style=\"color: black; font-size: 80px; padding-left: 44%; padding-right: 37%; padding-top: 29%; padding-bottom: 41%\">+</p>"	"1376"	n/a	n/a	n/a	n/a	n/a	n/a	n/a	n/a	n/a
n/a	"image-keyboard-response"	"148"	"315420"	"0.0-5.0-2.0-1.47"	"zxdywk"	"600"	"1366"	"chrome"	"111.0.0"	"FALSE"	"Windows 10"	"60.8"	"044"	n/a	n/a	n/a	n/a	n/a	n/a	"Trial"	n/a	n/a	n/a	"1360"	"arrowleft"	n/a	"NULL"	"NULL"	"NULL"	"stimuli/Ebbinghaus_-0.1000_0.21500.png"	n/a	"Ebbinghaus"	"arrowleft"	"1384"	"TRUE"	"Ebbinghaus"	"-0.100000000"	"0.2150000000"	"1"	"66"
n/a	"html-keyboard-response"	"149"	"316500"	"0.0-5.0-2.0-0.48"	"zxdywk"	"600"	"1366"	"chrome"	"111.0.0"	"FALSE"	"Windows 10"	"60.8"	"044"	n/a	n/a	n/a	n/a	n/a	n/a	"fixation"	n/a	n/a	n/a	n/a	"NULL"	n/a	"NULL"	"NULL"	"NULL"	"<p style=\"color: black; font-size: 80px; padding-left: 14%; padding-right: 28%; padding-top: 34%; padding-bottom: 12%\">+</p>"	"1078"	n/a	n/a	n/a	n/a	n/a	n/a	n/a	n/a	n/a
n/a	"image-keyboard-response"	"150"	"317148"	"0.0-5.0-2.0-1.48"	"zxdywk"	"600"	"1366"	"chrome"	"111.0.0"	"FALSE"	"Windows 10"	"60.8"	"044"	n/a	n/a	n/a	n/a	n/a	n/a	"Trial"	n/a	n/a	n/a	"647"	"arrowright"	n/a	"NULL"	"NULL"	"NULL"	"stimuli/Ebbinghaus_-0.87143_-0.15857.png"	n/a	"Ebbinghaus"	"arrowright"	"1080"	"TRUE"	"Ebbinghaus"	"-0.871430000"	"-0.158570000"	"1"	"67"
n/a	"html-keyboard-response"	"151"	"318185"	"0.0-5.0-2.0-0.49"	"zxdywk"	"600"	"1366"	"chrome"	"111.0.0"	"FALSE"	"Windows 10"	"60.8"	"044"	n/a	n/a	n/a	n/a	n/a	n/a	"fixation"	n/a	n/a	n/a	n/a	"NULL"	n/a	"NULL"	"NULL"	"NULL"	"<p style=\"color: black; font-size: 80px; padding-left: 1%; padding-right: 10%; padding-top: 4%; padding-bottom: 40%\">+</p>"	"1022"	n/a	n/a	n/a	n/a	n/a	n/a	n/a	n/a	n/a
n/a	"image-keyboard-response"	"152"	"319062"	"0.0-5.0-2.0-1.49"	"zxdywk"	"600"	"1366"	"chrome"	"111.0.0"	"FALSE"	"Windows 10"	"60.8"	"044"	n/a	n/a	n/a	n/a	n/a	n/a	"Trial"	n/a	n/a	n/a	"876"	"arrowleft"	n/a	"NULL"	"NULL"	"NULL"	"stimuli/Ebbinghaus_0.10000_0.15857.png"	n/a	"Ebbinghaus"	"arrowleft"	"1037"	"TRUE"	"Ebbinghaus"	"0.1000000000"	"0.1585700000"	"1"	"68"
n/a	"html-keyboard-response"	"153"	"320350"	"0.0-5.0-2.0-0.50"	"zxdywk"	"600"	"1366"	"chrome"	"111.0.0"	"FALSE"	"Windows 10"	"60.8"	"044"	n/a	n/a	n/a	n/a	n/a	n/a	"fixation"	n/a	n/a	n/a	n/a	"NULL"	n/a	"NULL"	"NULL"	"NULL"	"<p style=\"color: black; font-size: 80px; padding-left: 6%; padding-right: 24%; padding-top: 11%; padding-bottom: 1%\">+</p>"	"1282"	n/a	n/a	n/a	n/a	n/a	n/a	n/a	n/a	n/a
n/a	"image-keyboard-response"	"154"	"321002"	"0.0-5.0-2.0-1.50"	"zxdywk"	"600"	"1366"	"chrome"	"111.0.0"	"FALSE"	"Windows 10"	"60.8"	"044"	n/a	n/a	n/a	n/a	n/a	n/a	"Trial"	n/a	n/a	n/a	"652"	"arrowright"	n/a	"NULL"	"NULL"	"NULL"	"stimuli/Ebbinghaus_-0.61429_-0.11071.png"	n/a	"Ebbinghaus"	"arrowright"	"1288"	"TRUE"	"Ebbinghaus"	"-0.614290000"	"-0.110710000"	"1"	"69"
n/a	"html-keyboard-response"	"155"	"322093"	"0.0-5.0-2.0-0.51"	"zxdywk"	"600"	"1366"	"chrome"	"111.0.0"	"FALSE"	"Windows 10"	"60.8"	"044"	n/a	n/a	n/a	n/a	n/a	n/a	"fixation"	n/a	n/a	n/a	n/a	"NULL"	n/a	"NULL"	"NULL"	"NULL"	"<p style=\"color: black; font-size: 80px; padding-left: 13%; padding-right: 39%; padding-top: 45%; padding-bottom: 40%\">+</p>"	"1076"	n/a	n/a	n/a	n/a	n/a	n/a	n/a	n/a	n/a
n/a	"image-keyboard-response"	"156"	"322764"	"0.0-5.0-2.0-1.51"	"zxdywk"	"600"	"1366"	"chrome"	"111.0.0"	"FALSE"	"Windows 10"	"60.8"	"044"	n/a	n/a	n/a	n/a	n/a	n/a	"Trial"	n/a	n/a	n/a	"671"	"arrowright"	n/a	"NULL"	"NULL"	"NULL"	"stimuli/Ebbinghaus_-0.61429_-0.2800.png"	n/a	"Ebbinghaus"	"arrowright"	"1091"	"TRUE"	"Ebbinghaus"	"-0.614290000"	"-0.280000000"	"1"	"70"
n/a	"html-keyboard-response"	"157"	"323921"	"0.0-5.0-2.0-0.52"	"zxdywk"	"600"	"1366"	"chrome"	"111.0.0"	"FALSE"	"Windows 10"	"60.8"	"044"	n/a	n/a	n/a	n/a	n/a	n/a	"fixation"	n/a	n/a	n/a	n/a	"NULL"	n/a	"NULL"	"NULL"	"NULL"	"<p style=\"color: black; font-size: 80px; padding-left: 32%; padding-right: 41%; padding-top: 30%; padding-bottom: 15%\">+</p>"	"1144"	n/a	n/a	n/a	n/a	n/a	n/a	n/a	n/a	n/a
n/a	"image-keyboard-response"	"158"	"324614"	"0.0-5.0-2.0-1.52"	"zxdywk"	"600"	"1366"	"chrome"	"111.0.0"	"FALSE"	"Windows 10"	"60.8"	"044"	n/a	n/a	n/a	n/a	n/a	n/a	"Trial"	n/a	n/a	n/a	"692"	"arrowleft"	n/a	"NULL"	"NULL"	"NULL"	"stimuli/Ebbinghaus_0.10000_0.28000.png"	n/a	"Ebbinghaus"	"arrowleft"	"1157"	"TRUE"	"Ebbinghaus"	"0.1000000000"	"0.2800000000"	"1"	"71"
n/a	"html-keyboard-response"	"159"	"325996"	"0.0-5.0-2.0-0.53"	"zxdywk"	"600"	"1366"	"chrome"	"111.0.0"	"FALSE"	"Windows 10"	"60.8"	"044"	n/a	n/a	n/a	n/a	n/a	n/a	"fixation"	n/a	n/a	n/a	n/a	"NULL"	n/a	"NULL"	"NULL"	"NULL"	"<p style=\"color: black; font-size: 80px; padding-left: 36%; padding-right: 26%; padding-top: 10%; padding-bottom: 11%\">+</p>"	"1375"	n/a	n/a	n/a	n/a	n/a	n/a	n/a	n/a	n/a
n/a	"image-keyboard-response"	"160"	"326620"	"0.0-5.0-2.0-1.53"	"zxdywk"	"600"	"1366"	"chrome"	"111.0.0"	"FALSE"	"Windows 10"	"60.8"	"044"	n/a	n/a	n/a	n/a	n/a	n/a	"Trial"	n/a	n/a	n/a	"623"	"arrowleft"	n/a	"NULL"	"NULL"	"NULL"	"stimuli/Ebbinghaus_-0.87143_0.21500.png"	n/a	"Ebbinghaus"	"arrowleft"	"1382"	"TRUE"	"Ebbinghaus"	"-0.871430000"	"0.2150000000"	"1"	"72"
n/a	"html-keyboard-response"	"161"	"327635"	"0.0-5.0-2.0-0.54"	"zxdywk"	"600"	"1366"	"chrome"	"111.0.0"	"FALSE"	"Windows 10"	"60.8"	"044"	n/a	n/a	n/a	n/a	n/a	n/a	"fixation"	n/a	n/a	n/a	n/a	"NULL"	n/a	"NULL"	"NULL"	"NULL"	"<p style=\"color: black; font-size: 80px; padding-left: 3%; padding-right: 32%; padding-top: 30%; padding-bottom: 29%\">+</p>"	"1001"	n/a	n/a	n/a	n/a	n/a	n/a	n/a	n/a	n/a
n/a	"image-keyboard-response"	"162"	"328188"	"0.0-5.0-2.0-1.54"	"zxdywk"	"600"	"1366"	"chrome"	"111.0.0"	"FALSE"	"Windows 10"	"60.8"	"044"	n/a	n/a	n/a	n/a	n/a	n/a	"Trial"	n/a	n/a	n/a	"553"	"arrowright"	n/a	"NULL"	"NULL"	"NULL"	"stimuli/Ebbinghaus_0.10000_-0.2150.png"	n/a	"Ebbinghaus"	"arrowright"	"1015"	"TRUE"	"Ebbinghaus"	"0.1000000000"	"-0.215000000"	"1"	"73"
n/a	"html-keyboard-response"	"163"	"329447"	"0.0-5.0-2.0-0.55"	"zxdywk"	"600"	"1366"	"chrome"	"111.0.0"	"FALSE"	"Windows 10"	"60.8"	"044"	n/a	n/a	n/a	n/a	n/a	n/a	"fixation"	n/a	n/a	n/a	n/a	"NULL"	n/a	"NULL"	"NULL"	"NULL"	"<p style=\"color: black; font-size: 80px; padding-left: 12%; padding-right: 42%; padding-top: 47%; padding-bottom: 34%\">+</p>"	"1246"	n/a	n/a	n/a	n/a	n/a	n/a	n/a	n/a	n/a
n/a	"image-keyboard-response"	"164"	"330146"	"0.0-5.0-2.0-1.55"	"zxdywk"	"600"	"1366"	"chrome"	"111.0.0"	"FALSE"	"Windows 10"	"60.8"	"044"	n/a	n/a	n/a	n/a	n/a	n/a	"Trial"	n/a	n/a	n/a	"699"	"arrowright"	n/a	"NULL"	"NULL"	"NULL"	"stimuli/Ebbinghaus_0.87143_-0.2800.png"	n/a	"Ebbinghaus"	"arrowright"	"1259"	"TRUE"	"Ebbinghaus"	"0.8714300000"	"-0.280000000"	"1"	"74"
n/a	"html-keyboard-response"	"165"	"331151"	"0.0-5.0-2.0-0.56"	"zxdywk"	"600"	"1366"	"chrome"	"111.0.0"	"FALSE"	"Windows 10"	"60.8"	"044"	n/a	n/a	n/a	n/a	n/a	n/a	"fixation"	n/a	n/a	n/a	n/a	"NULL"	n/a	"NULL"	"NULL"	"NULL"	"<p style=\"color: black; font-size: 80px; padding-left: 3%; padding-right: 31%; padding-top: 28%; padding-bottom: 24%\">+</p>"	"1000"	n/a	n/a	n/a	n/a	n/a	n/a	n/a	n/a	n/a
n/a	"image-keyboard-response"	"166"	"331942"	"0.0-5.0-2.0-1.56"	"zxdywk"	"600"	"1366"	"chrome"	"111.0.0"	"FALSE"	"Windows 10"	"60.8"	"044"	n/a	n/a	n/a	n/a	n/a	n/a	"Trial"	n/a	n/a	n/a	"790"	"arrowleft"	n/a	"NULL"	"NULL"	"NULL"	"stimuli/Ebbinghaus_-0.35714_0.11071.png"	n/a	"Ebbinghaus"	"arrowleft"	"1005"	"TRUE"	"Ebbinghaus"	"-0.357140000"	"0.1107100000"	"1"	"75"
n/a	"html-keyboard-response"	"167"	"333323"	"0.0-5.0-2.0-0.57"	"zxdywk"	"600"	"1366"	"chrome"	"111.0.0"	"FALSE"	"Windows 10"	"60.8"	"044"	n/a	n/a	n/a	n/a	n/a	n/a	"fixation"	n/a	n/a	n/a	n/a	"NULL"	n/a	"NULL"	"NULL"	"NULL"	"<p style=\"color: black; font-size: 80px; padding-left: 17%; padding-right: 1%; padding-top: 20%; padding-bottom: 46%\">+</p>"	"1379"	n/a	n/a	n/a	n/a	n/a	n/a	n/a	n/a	n/a
n/a	"image-keyboard-response"	"168"	"333972"	"0.0-5.0-2.0-1.57"	"zxdywk"	"600"	"1366"	"chrome"	"111.0.0"	"FALSE"	"Windows 10"	"60.8"	"044"	n/a	n/a	n/a	n/a	n/a	n/a	"Trial"	n/a	n/a	n/a	"649"	"arrowleft"	n/a	"NULL"	"NULL"	"NULL"	"stimuli/Ebbinghaus_-0.61429_0.11071.png"	n/a	"Ebbinghaus"	"arrowleft"	"1381"	"TRUE"	"Ebbinghaus"	"-0.614290000"	"0.1107100000"	"1"	"76"
n/a	"html-keyboard-response"	"169"	"335073"	"0.0-5.0-2.0-0.58"	"zxdywk"	"600"	"1366"	"chrome"	"111.0.0"	"FALSE"	"Windows 10"	"60.8"	"044"	n/a	n/a	n/a	n/a	n/a	n/a	"fixation"	n/a	n/a	n/a	n/a	"NULL"	n/a	"NULL"	"NULL"	"NULL"	"<p style=\"color: black; font-size: 80px; padding-left: 3%; padding-right: 38%; padding-top: 22%; padding-bottom: 40%\">+</p>"	"1097"	n/a	n/a	n/a	n/a	n/a	n/a	n/a	n/a	n/a
n/a	"image-keyboard-response"	"170"	"335794"	"0.0-5.0-2.0-1.58"	"zxdywk"	"600"	"1366"	"chrome"	"111.0.0"	"FALSE"	"Windows 10"	"60.8"	"044"	n/a	n/a	n/a	n/a	n/a	n/a	"Trial"	n/a	n/a	n/a	"720"	"arrowright"	n/a	"NULL"	"NULL"	"NULL"	"stimuli/Ebbinghaus_0.35714_-0.11071.png"	n/a	"Ebbinghaus"	"arrowright"	"1101"	"TRUE"	"Ebbinghaus"	"0.3571400000"	"-0.110710000"	"1"	"77"
n/a	"html-keyboard-response"	"171"	"337276"	"0.0-5.0-2.0-0.59"	"zxdywk"	"600"	"1366"	"chrome"	"111.0.0"	"FALSE"	"Windows 10"	"60.8"	"044"	n/a	n/a	n/a	n/a	n/a	n/a	"fixation"	n/a	n/a	n/a	n/a	"NULL"	n/a	"NULL"	"NULL"	"NULL"	"<p style=\"color: black; font-size: 80px; padding-left: 27%; padding-right: 39%; padding-top: 41%; padding-bottom: 44%\">+</p>"	"1480"	n/a	n/a	n/a	n/a	n/a	n/a	n/a	n/a	n/a
n/a	"image-keyboard-response"	"172"	"337880"	"0.0-5.0-2.0-1.59"	"zxdywk"	"600"	"1366"	"chrome"	"111.0.0"	"FALSE"	"Windows 10"	"60.8"	"044"	n/a	n/a	n/a	n/a	n/a	n/a	"Trial"	n/a	n/a	n/a	"603"	"arrowright"	n/a	"NULL"	"NULL"	"NULL"	"stimuli/Ebbinghaus_-0.61429_-0.2150.png"	n/a	"Ebbinghaus"	"arrowright"	"1482"	"TRUE"	"Ebbinghaus"	"-0.614290000"	"-0.215000000"	"1"	"78"
n/a	"html-keyboard-response"	"173"	"338943"	"0.0-5.0-2.0-0.60"	"zxdywk"	"600"	"1366"	"chrome"	"111.0.0"	"FALSE"	"Windows 10"	"60.8"	"044"	n/a	n/a	n/a	n/a	n/a	n/a	"fixation"	n/a	n/a	n/a	n/a	"NULL"	n/a	"NULL"	"NULL"	"NULL"	"<p style=\"color: black; font-size: 80px; padding-left: 5%; padding-right: 12%; padding-top: 7%; padding-bottom: 27%\">+</p>"	"1056"	n/a	n/a	n/a	n/a	n/a	n/a	n/a	n/a	n/a
n/a	"image-keyboard-response"	"174"	"339529"	"0.0-5.0-2.0-1.60"	"zxdywk"	"600"	"1366"	"chrome"	"111.0.0"	"FALSE"	"Windows 10"	"60.8"	"044"	n/a	n/a	n/a	n/a	n/a	n/a	"Trial"	n/a	n/a	n/a	"586"	"arrowleft"	n/a	"NULL"	"NULL"	"NULL"	"stimuli/Ebbinghaus_0.35714_0.11071.png"	n/a	"Ebbinghaus"	"arrowleft"	"1063"	"TRUE"	"Ebbinghaus"	"0.3571400000"	"0.1107100000"	"1"	"79"
n/a	"html-keyboard-response"	"175"	"340949"	"0.0-5.0-2.0-0.61"	"zxdywk"	"600"	"1366"	"chrome"	"111.0.0"	"FALSE"	"Windows 10"	"60.8"	"044"	n/a	n/a	n/a	n/a	n/a	n/a	"fixation"	n/a	n/a	n/a	n/a	"NULL"	n/a	"NULL"	"NULL"	"NULL"	"<p style=\"color: black; font-size: 80px; padding-left: 43%; padding-right: 43%; padding-top: 39%; padding-bottom: 39%\">+</p>"	"1405"	n/a	n/a	n/a	n/a	n/a	n/a	n/a	n/a	n/a
n/a	"image-keyboard-response"	"176"	"341909"	"0.0-5.0-2.0-1.61"	"zxdywk"	"600"	"1366"	"chrome"	"111.0.0"	"FALSE"	"Windows 10"	"60.8"	"044"	n/a	n/a	n/a	n/a	n/a	n/a	"Trial"	n/a	n/a	n/a	"960"	"arrowright"	n/a	"NULL"	"NULL"	"NULL"	"stimuli/Ebbinghaus_0.87143_0.11071.png"	n/a	"Ebbinghaus"	"arrowleft"	"1420"	"FALSE"	"Ebbinghaus"	"0.8714300000"	"0.1107100000"	"1"	"80"
n/a	"html-keyboard-response"	"177"	"343293"	"0.0-5.0-2.0-0.62"	"zxdywk"	"600"	"1366"	"chrome"	"111.0.0"	"FALSE"	"Windows 10"	"60.8"	"044"	n/a	n/a	n/a	n/a	n/a	n/a	"fixation"	n/a	n/a	n/a	n/a	"NULL"	n/a	"NULL"	"NULL"	"NULL"	"<p style=\"color: black; font-size: 80px; padding-left: 19%; padding-right: 22%; padding-top: 7%; padding-bottom: 41%\">+</p>"	"1382"	n/a	n/a	n/a	n/a	n/a	n/a	n/a	n/a	n/a
n/a	"image-keyboard-response"	"178"	"344172"	"0.0-5.0-2.0-1.62"	"zxdywk"	"600"	"1366"	"chrome"	"111.0.0"	"FALSE"	"Windows 10"	"60.8"	"044"	n/a	n/a	n/a	n/a	n/a	n/a	"Trial"	n/a	n/a	n/a	"878"	"arrowright"	n/a	"NULL"	"NULL"	"NULL"	"stimuli/Ebbinghaus_-0.35714_-0.15857.png"	n/a	"Ebbinghaus"	"arrowright"	"1384"	"TRUE"	"Ebbinghaus"	"-0.357140000"	"-0.158570000"	"1"	"81"
n/a	"html-keyboard-response"	"179"	"345439"	"0.0-5.0-2.0-0.63"	"zxdywk"	"600"	"1366"	"chrome"	"111.0.0"	"FALSE"	"Windows 10"	"60.8"	"044"	n/a	n/a	n/a	n/a	n/a	n/a	"fixation"	n/a	n/a	n/a	n/a	"NULL"	n/a	"NULL"	"NULL"	"NULL"	"<p style=\"color: black; font-size: 80px; padding-left: 41%; padding-right: 36%; padding-top: 29%; padding-bottom: 43%\">+</p>"	"1266"	n/a	n/a	n/a	n/a	n/a	n/a	n/a	n/a	n/a
n/a	"image-keyboard-response"	"180"	"346281"	"0.0-5.0-2.0-1.63"	"zxdywk"	"600"	"1366"	"chrome"	"111.0.0"	"FALSE"	"Windows 10"	"60.8"	"044"	n/a	n/a	n/a	n/a	n/a	n/a	"Trial"	n/a	n/a	n/a	"841"	"arrowleft"	n/a	"NULL"	"NULL"	"NULL"	"stimuli/Ebbinghaus_0.10000_0.11071.png"	n/a	"Ebbinghaus"	"arrowleft"	"1267"	"TRUE"	"Ebbinghaus"	"0.1000000000"	"0.1107100000"	"1"	"82"
n/a	"html-button-response"	"181"	"360560"	"0.0-5.0-3.0"	"zxdywk"	"600"	"1366"	"chrome"	"111.0.0"	"FALSE"	"Windows 10"	"60.8"	"044"	n/a	n/a	n/a	n/a	n/a	n/a	"block_results"	n/a	n/a	n/a	"14277"	"0"	n/a	"NULL"	"NULL"	"NULL"	"<p>Your score for this illusion is <p style=\"color: black; font-size: 48px; font-weight: bold;\">75.5 %</p><hr><p>Can you do better in the next illusion?</p>"	n/a	n/a	n/a	n/a	n/a	n/a	n/a	n/a	n/a	n/a
"TRUE"	"preload"	"182"	"360717"	"0.0-6.0-0.0"	"zxdywk"	"600"	"1366"	"chrome"	"111.0.0"	"FALSE"	"Windows 10"	"60.8"	"044"	n/a	n/a	n/a	n/a	n/a	n/a	n/a	n/a	n/a	n/a	n/a	"NULL"	"FALSE"	"list()"	"list()"	"list()"	n/a	n/a	n/a	n/a	n/a	n/a	n/a	n/a	n/a	n/a	n/a
n/a	"html-keyboard-response"	"183"	"363649"	"0.0-6.0-1.0"	"zxdywk"	"600"	"1366"	"chrome"	"111.0.0"	"FALSE"	"Windows 10"	"60.8"	"044"	n/a	n/a	n/a	n/a	n/a	n/a	n/a	n/a	n/a	n/a	"2931"	"enter"	n/a	"NULL"	"NULL"	"NULL"	"<p><b>Part 2/6</b></p><p>In this part, two horizontal red lines will appear one above the other.</p><p>Your task is to select which <b>line is longer</b> in length as fast as you can, without making errors.</p><p>Don't get distracted by the surrounding black arrows at the end of the red lines!</p><p>Press <b>the UP or the DOWN arrow</b> to indicate where is the longer <b>red line.</b></p><div style='float: center'><img src='materials/instructions/MullerLyer_Demo.png' height='300'></img><p><img src='utils/answer/answer_updown_keyboard.PNG' height='150'></img></p><p class='small'>In this example, the correct answer is the <b>UP arrow</b>.</p></div><p>Are you ready? <b>Press ENTER to start</b></p>"	n/a	n/a	n/a	n/a	n/a	n/a	n/a	n/a	n/a	n/a
n/a	"html-keyboard-response"	"184"	"365307"	"0.0-6.0-2.0-0.0"	"zxdywk"	"600"	"1366"	"chrome"	"111.0.0"	"FALSE"	"Windows 10"	"60.8"	"044"	n/a	n/a	n/a	n/a	n/a	n/a	"fixation"	n/a	n/a	n/a	n/a	"NULL"	n/a	"NULL"	"NULL"	"NULL"	"<p style=\"color: black; font-size: 80px; padding-left: 23%; padding-right: 5%; padding-top: 9%; padding-bottom: 14%\">+</p>"	"1140"	n/a	n/a	n/a	n/a	n/a	n/a	n/a	n/a	n/a
n/a	"image-keyboard-response"	"185"	"365916"	"0.0-6.0-2.0-1.0"	"zxdywk"	"600"	"1366"	"chrome"	"111.0.0"	"FALSE"	"Windows 10"	"60.8"	"044"	n/a	n/a	n/a	n/a	n/a	n/a	"Trial"	n/a	n/a	n/a	"608"	"arrowup"	n/a	"NULL"	"NULL"	"NULL"	"stimuli/MullerLyer_8.21429_-0.14541.png"	n/a	"MullerLyer"	"arrowdown"	"1658"	"FALSE"	"MullerLyer"	"8.2142900000"	"-0.145410000"	"2"	"1"
n/a	"html-keyboard-response"	"186"	"367392"	"0.0-6.0-2.0-0.1"	"zxdywk"	"600"	"1366"	"chrome"	"111.0.0"	"FALSE"	"Windows 10"	"60.8"	"044"	n/a	n/a	n/a	n/a	n/a	n/a	"fixation"	n/a	n/a	n/a	n/a	"NULL"	n/a	"NULL"	"NULL"	"NULL"	"<p style=\"color: black; font-size: 80px; padding-left: 31%; padding-right: 19%; padding-top: 6%; padding-bottom: 11%\">+</p>"	"1467"	n/a	n/a	n/a	n/a	n/a	n/a	n/a	n/a	n/a
n/a	"image-keyboard-response"	"187"	"368250"	"0.0-6.0-2.0-1.1"	"zxdywk"	"600"	"1366"	"chrome"	"111.0.0"	"FALSE"	"Windows 10"	"60.8"	"044"	n/a	n/a	n/a	n/a	n/a	n/a	"Trial"	n/a	n/a	n/a	"857"	"arrowdown"	n/a	"NULL"	"NULL"	"NULL"	"stimuli/MullerLyer_20.04286_0.07627.png"	n/a	"MullerLyer"	"arrowup"	"1476"	"FALSE"	"MullerLyer"	"20.042860000"	"0.0762700000"	"2"	"2"
n/a	"html-keyboard-response"	"188"	"369356"	"0.0-6.0-2.0-0.2"	"zxdywk"	"600"	"1366"	"chrome"	"111.0.0"	"FALSE"	"Windows 10"	"60.8"	"044"	n/a	n/a	n/a	n/a	n/a	n/a	"fixation"	n/a	n/a	n/a	n/a	"NULL"	n/a	"NULL"	"NULL"	"NULL"	"<p style=\"color: black; font-size: 80px; padding-left: 7%; padding-right: 2%; padding-top: 25%; padding-bottom: 48%\">+</p>"	"1098"	n/a	n/a	n/a	n/a	n/a	n/a	n/a	n/a	n/a
n/a	"image-keyboard-response"	"189"	"370463"	"0.0-6.0-2.0-1.2"	"zxdywk"	"600"	"1366"	"chrome"	"111.0.0"	"FALSE"	"Windows 10"	"60.8"	"044"	n/a	n/a	n/a	n/a	n/a	n/a	"Trial"	n/a	n/a	n/a	"1106"	"arrowdown"	n/a	"NULL"	"NULL"	"NULL"	"stimuli/MullerLyer_-14.12857_-0.14541.png"	n/a	"MullerLyer"	"arrowdown"	"1106"	"TRUE"	"MullerLyer"	"-14.12857000"	"-0.145410000"	"2"	"3"
n/a	"html-keyboard-response"	"190"	"371769"	"0.0-6.0-2.0-0.3"	"zxdywk"	"600"	"1366"	"chrome"	"111.0.0"	"FALSE"	"Windows 10"	"60.8"	"044"	n/a	n/a	n/a	n/a	n/a	n/a	"fixation"	n/a	n/a	n/a	n/a	"NULL"	n/a	"NULL"	"NULL"	"NULL"	"<p style=\"color: black; font-size: 80px; padding-left: 33%; padding-right: 8%; padding-top: 46%; padding-bottom: 41%\">+</p>"	"1297"	n/a	n/a	n/a	n/a	n/a	n/a	n/a	n/a	n/a
n/a	"image-keyboard-response"	"191"	"372843"	"0.0-6.0-2.0-1.3"	"zxdywk"	"600"	"1366"	"chrome"	"111.0.0"	"FALSE"	"Windows 10"	"60.8"	"044"	n/a	n/a	n/a	n/a	n/a	n/a	"Trial"	n/a	n/a	n/a	"1073"	"arrowdown"	n/a	"NULL"	"NULL"	"NULL"	"stimuli/MullerLyer_8.21429_-0.3500.png"	n/a	"MullerLyer"	"arrowdown"	"1306"	"TRUE"	"MullerLyer"	"8.2142900000"	"-0.350000000"	"2"	"4"
n/a	"html-keyboard-response"	"192"	"373900"	"0.0-6.0-2.0-0.4"	"zxdywk"	"600"	"1366"	"chrome"	"111.0.0"	"FALSE"	"Windows 10"	"60.8"	"044"	n/a	n/a	n/a	n/a	n/a	n/a	"fixation"	n/a	n/a	n/a	n/a	"NULL"	n/a	"NULL"	"NULL"	"NULL"	"<p style=\"color: black; font-size: 80px; padding-left: 2%; padding-right: 10%; padding-top: 38%; padding-bottom: 5%\">+</p>"	"1053"	n/a	n/a	n/a	n/a	n/a	n/a	n/a	n/a	n/a
n/a	"image-keyboard-response"	"193"	"374761"	"0.0-6.0-2.0-1.4"	"zxdywk"	"600"	"1366"	"chrome"	"111.0.0"	"FALSE"	"Windows 10"	"60.8"	"044"	n/a	n/a	n/a	n/a	n/a	n/a	"Trial"	n/a	n/a	n/a	"859"	"arrowup"	n/a	"NULL"	"NULL"	"NULL"	"stimuli/MullerLyer_-2.3000_0.14541.png"	n/a	"MullerLyer"	"arrowup"	"1057"	"TRUE"	"MullerLyer"	"-2.300000000"	"0.1454100000"	"2"	"5"
n/a	"html-keyboard-response"	"194"	"375839"	"0.0-6.0-2.0-0.5"	"zxdywk"	"600"	"1366"	"chrome"	"111.0.0"	"FALSE"	"Windows 10"	"60.8"	"044"	n/a	n/a	n/a	n/a	n/a	n/a	"fixation"	n/a	n/a	n/a	n/a	"NULL"	n/a	"NULL"	"NULL"	"NULL"	"<p style=\"color: black; font-size: 80px; padding-left: 32%; padding-right: 34%; padding-top: 17%; padding-bottom: 42%\">+</p>"	"1076"	n/a	n/a	n/a	n/a	n/a	n/a	n/a	n/a	n/a
n/a	"image-keyboard-response"	"195"	"376783"	"0.0-6.0-2.0-1.5"	"zxdywk"	"600"	"1366"	"chrome"	"111.0.0"	"FALSE"	"Windows 10"	"60.8"	"044"	n/a	n/a	n/a	n/a	n/a	n/a	"Trial"	n/a	n/a	n/a	"944"	"arrowdown"	n/a	"NULL"	"NULL"	"NULL"	"stimuli/MullerLyer_8.21429_-0.23665.png"	n/a	"MullerLyer"	"arrowdown"	"1078"	"TRUE"	"MullerLyer"	"8.2142900000"	"-0.236650000"	"2"	"6"
n/a	"html-keyboard-response"	"196"	"377791"	"0.0-6.0-2.0-0.6"	"zxdywk"	"600"	"1366"	"chrome"	"111.0.0"	"FALSE"	"Windows 10"	"60.8"	"044"	n/a	n/a	n/a	n/a	n/a	n/a	"fixation"	n/a	n/a	n/a	n/a	"NULL"	n/a	"NULL"	"NULL"	"NULL"	"<p style=\"color: black; font-size: 80px; padding-left: 20%; padding-right: 21%; padding-top: 36%; padding-bottom: 46%\">+</p>"	"1004"	n/a	n/a	n/a	n/a	n/a	n/a	n/a	n/a	n/a
n/a	"image-keyboard-response"	"197"	"378871"	"0.0-6.0-2.0-1.6"	"zxdywk"	"600"	"1366"	"chrome"	"111.0.0"	"FALSE"	"Windows 10"	"60.8"	"044"	n/a	n/a	n/a	n/a	n/a	n/a	"Trial"	n/a	n/a	n/a	"1078"	"arrowup"	n/a	"NULL"	"NULL"	"NULL"	"stimuli/MullerLyer_20.04286_-0.14541.png"	n/a	"MullerLyer"	"arrowdown"	"1008"	"FALSE"	"MullerLyer"	"20.042860000"	"-0.145410000"	"2"	"7"
n/a	"html-keyboard-response"	"198"	"380017"	"0.0-6.0-2.0-0.7"	"zxdywk"	"600"	"1366"	"chrome"	"111.0.0"	"FALSE"	"Windows 10"	"60.8"	"044"	n/a	n/a	n/a	n/a	n/a	n/a	"fixation"	n/a	n/a	n/a	n/a	"NULL"	n/a	"NULL"	"NULL"	"NULL"	"<p style=\"color: black; font-size: 80px; padding-left: 7%; padding-right: 30%; padding-top: 31%; padding-bottom: 12%\">+</p>"	"1141"	n/a	n/a	n/a	n/a	n/a	n/a	n/a	n/a	n/a
n/a	"image-keyboard-response"	"199"	"380822"	"0.0-6.0-2.0-1.7"	"zxdywk"	"600"	"1366"	"chrome"	"111.0.0"	"FALSE"	"Windows 10"	"60.8"	"044"	n/a	n/a	n/a	n/a	n/a	n/a	"Trial"	n/a	n/a	n/a	"804"	"arrowdown"	n/a	"NULL"	"NULL"	"NULL"	"stimuli/MullerLyer_-2.3000_-0.23665.png"	n/a	"MullerLyer"	"arrowdown"	"1146"	"TRUE"	"MullerLyer"	"-2.300000000"	"-0.236650000"	"2"	"8"
n/a	"html-keyboard-response"	"200"	"381978"	"0.0-6.0-2.0-0.8"	"zxdywk"	"600"	"1366"	"chrome"	"111.0.0"	"FALSE"	"Windows 10"	"60.8"	"044"	n/a	n/a	n/a	n/a	n/a	n/a	"fixation"	n/a	n/a	n/a	n/a	"NULL"	n/a	"NULL"	"NULL"	"NULL"	"<p style=\"color: black; font-size: 80px; padding-left: 49%; padding-right: 30%; padding-top: 29%; padding-bottom: 23%\">+</p>"	"1153"	n/a	n/a	n/a	n/a	n/a	n/a	n/a	n/a	n/a
n/a	"image-keyboard-response"	"201"	"382654"	"0.0-6.0-2.0-1.8"	"zxdywk"	"600"	"1366"	"chrome"	"111.0.0"	"FALSE"	"Windows 10"	"60.8"	"044"	n/a	n/a	n/a	n/a	n/a	n/a	"Trial"	n/a	n/a	n/a	"675"	"arrowdown"	n/a	"NULL"	"NULL"	"NULL"	"stimuli/MullerLyer_-2.3000_-0.14541.png"	n/a	"MullerLyer"	"arrowdown"	"1156"	"TRUE"	"MullerLyer"	"-2.300000000"	"-0.145410000"	"2"	"9"
n/a	"html-keyboard-response"	"202"	"383761"	"0.0-6.0-2.0-0.9"	"zxdywk"	"600"	"1366"	"chrome"	"111.0.0"	"FALSE"	"Windows 10"	"60.8"	"044"	n/a	n/a	n/a	n/a	n/a	n/a	"fixation"	n/a	n/a	n/a	n/a	"NULL"	n/a	"NULL"	"NULL"	"NULL"	"<p style=\"color: black; font-size: 80px; padding-left: 19%; padding-right: 32%; padding-top: 31%; padding-bottom: 32%\">+</p>"	"1106"	n/a	n/a	n/a	n/a	n/a	n/a	n/a	n/a	n/a
n/a	"image-keyboard-response"	"203"	"384545"	"0.0-6.0-2.0-1.9"	"zxdywk"	"600"	"1366"	"chrome"	"111.0.0"	"FALSE"	"Windows 10"	"60.8"	"044"	n/a	n/a	n/a	n/a	n/a	n/a	"Trial"	n/a	n/a	n/a	"783"	"arrowdown"	n/a	"NULL"	"NULL"	"NULL"	"stimuli/MullerLyer_-8.21429_-0.07627.png"	n/a	"MullerLyer"	"arrowdown"	"1107"	"TRUE"	"MullerLyer"	"-8.214290000"	"-0.076270000"	"2"	"10"
n/a	"html-keyboard-response"	"204"	"385572"	"0.0-6.0-2.0-0.10"	"zxdywk"	"600"	"1366"	"chrome"	"111.0.0"	"FALSE"	"Windows 10"	"60.8"	"044"	n/a	n/a	n/a	n/a	n/a	n/a	"fixation"	n/a	n/a	n/a	n/a	"NULL"	n/a	"NULL"	"NULL"	"NULL"	"<p style=\"color: black; font-size: 80px; padding-left: 23%; padding-right: 10%; padding-top: 3%; padding-bottom: 38%\">+</p>"	"1027"	n/a	n/a	n/a	n/a	n/a	n/a	n/a	n/a	n/a
n/a	"image-keyboard-response"	"205"	"386501"	"0.0-6.0-2.0-1.10"	"zxdywk"	"600"	"1366"	"chrome"	"111.0.0"	"FALSE"	"Windows 10"	"60.8"	"044"	n/a	n/a	n/a	n/a	n/a	n/a	"Trial"	n/a	n/a	n/a	"928"	"arrowdown"	n/a	"NULL"	"NULL"	"NULL"	"stimuli/MullerLyer_2.30000_-0.3500.png"	n/a	"MullerLyer"	"arrowdown"	"1027"	"TRUE"	"MullerLyer"	"2.3000000000"	"-0.350000000"	"2"	"11"
n/a	"html-keyboard-response"	"206"	"387990"	"0.0-6.0-2.0-0.11"	"zxdywk"	"600"	"1366"	"chrome"	"111.0.0"	"FALSE"	"Windows 10"	"60.8"	"044"	n/a	n/a	n/a	n/a	n/a	n/a	"fixation"	n/a	n/a	n/a	n/a	"NULL"	n/a	"NULL"	"NULL"	"NULL"	"<p style=\"color: black; font-size: 80px; padding-left: 38%; padding-right: 19%; padding-top: 12%; padding-bottom: 19%\">+</p>"	"1473"	n/a	n/a	n/a	n/a	n/a	n/a	n/a	n/a	n/a
n/a	"image-keyboard-response"	"207"	"389323"	"0.0-6.0-2.0-1.11"	"zxdywk"	"600"	"1366"	"chrome"	"111.0.0"	"FALSE"	"Windows 10"	"60.8"	"044"	n/a	n/a	n/a	n/a	n/a	n/a	"Trial"	n/a	n/a	n/a	"1333"	"arrowup"	n/a	"NULL"	"NULL"	"NULL"	"stimuli/MullerLyer_20.04286_0.23665.png"	n/a	"MullerLyer"	"arrowup"	"1489"	"TRUE"	"MullerLyer"	"20.042860000"	"0.2366500000"	"2"	"12"
n/a	"html-keyboard-response"	"208"	"390512"	"0.0-6.0-2.0-0.12"	"zxdywk"	"600"	"1366"	"chrome"	"111.0.0"	"FALSE"	"Windows 10"	"60.8"	"044"	n/a	n/a	n/a	n/a	n/a	n/a	"fixation"	n/a	n/a	n/a	n/a	"NULL"	n/a	"NULL"	"NULL"	"NULL"	"<p style=\"color: black; font-size: 80px; padding-left: 5%; padding-right: 32%; padding-top: 47%; padding-bottom: 46%\">+</p>"	"1183"	n/a	n/a	n/a	n/a	n/a	n/a	n/a	n/a	n/a
n/a	"image-keyboard-response"	"209"	"391962"	"0.0-6.0-2.0-1.12"	"zxdywk"	"600"	"1366"	"chrome"	"111.0.0"	"FALSE"	"Windows 10"	"60.8"	"044"	n/a	n/a	n/a	n/a	n/a	n/a	"Trial"	n/a	n/a	n/a	"1449"	"arrowup"	n/a	"NULL"	"NULL"	"NULL"	"stimuli/MullerLyer_-14.12857_0.14541.png"	n/a	"MullerLyer"	"arrowup"	"1189"	"TRUE"	"MullerLyer"	"-14.12857000"	"0.1454100000"	"2"	"13"
n/a	"html-keyboard-response"	"210"	"392971"	"0.0-6.0-2.0-0.13"	"zxdywk"	"600"	"1366"	"chrome"	"111.0.0"	"FALSE"	"Windows 10"	"60.8"	"044"	n/a	n/a	n/a	n/a	n/a	n/a	"fixation"	n/a	n/a	n/a	n/a	"NULL"	n/a	"NULL"	"NULL"	"NULL"	"<p style=\"color: black; font-size: 80px; padding-left: 27%; padding-right: 13%; padding-top: 27%; padding-bottom: 17%\">+</p>"	"1003"	n/a	n/a	n/a	n/a	n/a	n/a	n/a	n/a	n/a
n/a	"image-keyboard-response"	"211"	"394050"	"0.0-6.0-2.0-1.13"	"zxdywk"	"600"	"1366"	"chrome"	"111.0.0"	"FALSE"	"Windows 10"	"60.8"	"044"	n/a	n/a	n/a	n/a	n/a	n/a	"Trial"	n/a	n/a	n/a	"1078"	"arrowdown"	n/a	"NULL"	"NULL"	"NULL"	"stimuli/MullerLyer_20.04286_-0.3500.png"	n/a	"MullerLyer"	"arrowdown"	"1009"	"TRUE"	"MullerLyer"	"20.042860000"	"-0.350000000"	"2"	"14"
n/a	"html-keyboard-response"	"212"	"395549"	"0.0-6.0-2.0-0.14"	"zxdywk"	"600"	"1366"	"chrome"	"111.0.0"	"FALSE"	"Windows 10"	"60.8"	"044"	n/a	n/a	n/a	n/a	n/a	n/a	"fixation"	n/a	n/a	n/a	n/a	"NULL"	n/a	"NULL"	"NULL"	"NULL"	"<p style=\"color: black; font-size: 80px; padding-left: 17%; padding-right: 27%; padding-top: 19%; padding-bottom: 48%\">+</p>"	"1495"	n/a	n/a	n/a	n/a	n/a	n/a	n/a	n/a	n/a
n/a	"image-keyboard-response"	"213"	"396430"	"0.0-6.0-2.0-1.14"	"zxdywk"	"600"	"1366"	"chrome"	"111.0.0"	"FALSE"	"Windows 10"	"60.8"	"044"	n/a	n/a	n/a	n/a	n/a	n/a	"Trial"	n/a	n/a	n/a	"881"	"arrowup"	n/a	"NULL"	"NULL"	"NULL"	"stimuli/MullerLyer_-20.04286_0.07627.png"	n/a	"MullerLyer"	"arrowup"	"1499"	"TRUE"	"MullerLyer"	"-20.04286000"	"0.0762700000"	"2"	"15"
n/a	"html-keyboard-response"	"214"	"397868"	"0.0-6.0-2.0-0.15"	"zxdywk"	"600"	"1366"	"chrome"	"111.0.0"	"FALSE"	"Windows 10"	"60.8"	"044"	n/a	n/a	n/a	n/a	n/a	n/a	"fixation"	n/a	n/a	n/a	n/a	"NULL"	n/a	"NULL"	"NULL"	"NULL"	"<p style=\"color: black; font-size: 80px; padding-left: 9%; padding-right: 1%; padding-top: 2%; padding-bottom: 40%\">+</p>"	"1431"	n/a	n/a	n/a	n/a	n/a	n/a	n/a	n/a	n/a
n/a	"image-keyboard-response"	"215"	"399084"	"0.0-6.0-2.0-1.15"	"zxdywk"	"600"	"1366"	"chrome"	"111.0.0"	"FALSE"	"Windows 10"	"60.8"	"044"	n/a	n/a	n/a	n/a	n/a	n/a	"Trial"	n/a	n/a	n/a	"1214"	"arrowup"	n/a	"NULL"	"NULL"	"NULL"	"stimuli/MullerLyer_-20.04286_0.23665.png"	n/a	"MullerLyer"	"arrowup"	"1438"	"TRUE"	"MullerLyer"	"-20.04286000"	"0.2366500000"	"2"	"16"
n/a	"html-keyboard-response"	"216"	"400558"	"0.0-6.0-2.0-0.16"	"zxdywk"	"600"	"1366"	"chrome"	"111.0.0"	"FALSE"	"Windows 10"	"60.8"	"044"	n/a	n/a	n/a	n/a	n/a	n/a	"fixation"	n/a	n/a	n/a	n/a	"NULL"	n/a	"NULL"	"NULL"	"NULL"	"<p style=\"color: black; font-size: 80px; padding-left: 34%; padding-right: 40%; padding-top: 41%; padding-bottom: 45%\">+</p>"	"1459"	n/a	n/a	n/a	n/a	n/a	n/a	n/a	n/a	n/a
n/a	"image-keyboard-response"	"217"	"401238"	"0.0-6.0-2.0-1.16"	"zxdywk"	"600"	"1366"	"chrome"	"111.0.0"	"FALSE"	"Windows 10"	"60.8"	"044"	n/a	n/a	n/a	n/a	n/a	n/a	"Trial"	n/a	n/a	n/a	"680"	"arrowup"	n/a	"NULL"	"NULL"	"NULL"	"stimuli/MullerLyer_-14.12857_0.23665.png"	n/a	"MullerLyer"	"arrowup"	"1474"	"TRUE"	"MullerLyer"	"-14.12857000"	"0.2366500000"	"2"	"17"
n/a	"html-keyboard-response"	"218"	"402293"	"0.0-6.0-2.0-0.17"	"zxdywk"	"600"	"1366"	"chrome"	"111.0.0"	"FALSE"	"Windows 10"	"60.8"	"044"	n/a	n/a	n/a	n/a	n/a	n/a	"fixation"	n/a	n/a	n/a	n/a	"NULL"	n/a	"NULL"	"NULL"	"NULL"	"<p style=\"color: black; font-size: 80px; padding-left: 33%; padding-right: 32%; padding-top: 38%; padding-bottom: 43%\">+</p>"	"1049"	n/a	n/a	n/a	n/a	n/a	n/a	n/a	n/a	n/a
n/a	"image-keyboard-response"	"219"	"402899"	"0.0-6.0-2.0-1.17"	"zxdywk"	"600"	"1366"	"chrome"	"111.0.0"	"FALSE"	"Windows 10"	"60.8"	"044"	n/a	n/a	n/a	n/a	n/a	n/a	"Trial"	n/a	n/a	n/a	"605"	"arrowup"	n/a	"NULL"	"NULL"	"NULL"	"stimuli/MullerLyer_-8.21429_0.23665.png"	n/a	"MullerLyer"	"arrowup"	"1055"	"TRUE"	"MullerLyer"	"-8.214290000"	"0.2366500000"	"2"	"18"
n/a	"html-keyboard-response"	"220"	"404215"	"0.0-6.0-2.0-0.18"	"zxdywk"	"600"	"1366"	"chrome"	"111.0.0"	"FALSE"	"Windows 10"	"60.8"	"044"	n/a	n/a	n/a	n/a	n/a	n/a	"fixation"	n/a	n/a	n/a	n/a	"NULL"	n/a	"NULL"	"NULL"	"NULL"	"<p style=\"color: black; font-size: 80px; padding-left: 35%; padding-right: 17%; padding-top: 5%; padding-bottom: 26%\">+</p>"	"1304"	n/a	n/a	n/a	n/a	n/a	n/a	n/a	n/a	n/a
n/a	"image-keyboard-response"	"221"	"404961"	"0.0-6.0-2.0-1.18"	"zxdywk"	"600"	"1366"	"chrome"	"111.0.0"	"FALSE"	"Windows 10"	"60.8"	"044"	n/a	n/a	n/a	n/a	n/a	n/a	"Trial"	n/a	n/a	n/a	"745"	"arrowdown"	n/a	"NULL"	"NULL"	"NULL"	"stimuli/MullerLyer_-20.04286_-0.23665.png"	n/a	"MullerLyer"	"arrowdown"	"1316"	"TRUE"	"MullerLyer"	"-20.04286000"	"-0.236650000"	"2"	"19"
n/a	"html-keyboard-response"	"222"	"406231"	"0.0-6.0-2.0-0.19"	"zxdywk"	"600"	"1366"	"chrome"	"111.0.0"	"FALSE"	"Windows 10"	"60.8"	"044"	n/a	n/a	n/a	n/a	n/a	n/a	"fixation"	n/a	n/a	n/a	n/a	"NULL"	n/a	"NULL"	"NULL"	"NULL"	"<p style=\"color: black; font-size: 80px; padding-left: 34%; padding-right: 21%; padding-top: 43%; padding-bottom: 5%\">+</p>"	"1259"	n/a	n/a	n/a	n/a	n/a	n/a	n/a	n/a	n/a
n/a	"image-keyboard-response"	"223"	"408185"	"0.0-6.0-2.0-1.19"	"zxdywk"	"600"	"1366"	"chrome"	"111.0.0"	"FALSE"	"Windows 10"	"60.8"	"044"	n/a	n/a	n/a	n/a	n/a	n/a	"Trial"	n/a	n/a	n/a	"1953"	"arrowdown"	n/a	"NULL"	"NULL"	"NULL"	"stimuli/MullerLyer_14.12857_-0.23665.png"	n/a	"MullerLyer"	"arrowdown"	"1270"	"TRUE"	"MullerLyer"	"14.128570000"	"-0.236650000"	"2"	"20"
n/a	"html-keyboard-response"	"224"	"409373"	"0.0-6.0-2.0-0.20"	"zxdywk"	"600"	"1366"	"chrome"	"111.0.0"	"FALSE"	"Windows 10"	"60.8"	"044"	n/a	n/a	n/a	n/a	n/a	n/a	"fixation"	n/a	n/a	n/a	n/a	"NULL"	n/a	"NULL"	"NULL"	"NULL"	"<p style=\"color: black; font-size: 80px; padding-left: 27%; padding-right: 44%; padding-top: 19%; padding-bottom: 37%\">+</p>"	"1172"	n/a	n/a	n/a	n/a	n/a	n/a	n/a	n/a	n/a
n/a	"image-keyboard-response"	"225"	"410534"	"0.0-6.0-2.0-1.20"	"zxdywk"	"600"	"1366"	"chrome"	"111.0.0"	"FALSE"	"Windows 10"	"60.8"	"044"	n/a	n/a	n/a	n/a	n/a	n/a	"Trial"	n/a	n/a	n/a	"1160"	"arrowup"	n/a	"NULL"	"NULL"	"NULL"	"stimuli/MullerLyer_-2.3000_-0.3500.png"	n/a	"MullerLyer"	"arrowdown"	"1188"	"FALSE"	"MullerLyer"	"-2.300000000"	"-0.350000000"	"2"	"21"
n/a	"html-keyboard-response"	"226"	"412008"	"0.0-6.0-2.0-0.21"	"zxdywk"	"600"	"1366"	"chrome"	"111.0.0"	"FALSE"	"Windows 10"	"60.8"	"044"	n/a	n/a	n/a	n/a	n/a	n/a	"fixation"	n/a	n/a	n/a	n/a	"NULL"	n/a	"NULL"	"NULL"	"NULL"	"<p style=\"color: black; font-size: 80px; padding-left: 5%; padding-right: 14%; padding-top: 30%; padding-bottom: 3%\">+</p>"	"1473"	n/a	n/a	n/a	n/a	n/a	n/a	n/a	n/a	n/a
n/a	"image-keyboard-response"	"227"	"413472"	"0.0-6.0-2.0-1.21"	"zxdywk"	"600"	"1366"	"chrome"	"111.0.0"	"FALSE"	"Windows 10"	"60.8"	"044"	n/a	n/a	n/a	n/a	n/a	n/a	"Trial"	n/a	n/a	n/a	"1463"	"arrowdown"	n/a	"NULL"	"NULL"	"NULL"	"stimuli/MullerLyer_14.12857_-0.3500.png"	n/a	"MullerLyer"	"arrowdown"	"1474"	"TRUE"	"MullerLyer"	"14.128570000"	"-0.350000000"	"2"	"22"
n/a	"html-keyboard-response"	"228"	"414634"	"0.0-6.0-2.0-0.22"	"zxdywk"	"600"	"1366"	"chrome"	"111.0.0"	"FALSE"	"Windows 10"	"60.8"	"044"	n/a	n/a	n/a	n/a	n/a	n/a	"fixation"	n/a	n/a	n/a	n/a	"NULL"	n/a	"NULL"	"NULL"	"NULL"	"<p style=\"color: black; font-size: 80px; padding-left: 45%; padding-right: 24%; padding-top: 32%; padding-bottom: 36%\">+</p>"	"1158"	n/a	n/a	n/a	n/a	n/a	n/a	n/a	n/a	n/a
n/a	"image-keyboard-response"	"229"	"416230"	"0.0-6.0-2.0-1.22"	"zxdywk"	"600"	"1366"	"chrome"	"111.0.0"	"FALSE"	"Windows 10"	"60.8"	"044"	n/a	n/a	n/a	n/a	n/a	n/a	"Trial"	n/a	n/a	n/a	"1595"	"arrowdown"	n/a	"NULL"	"NULL"	"NULL"	"stimuli/MullerLyer_-20.04286_-0.07627.png"	n/a	"MullerLyer"	"arrowdown"	"1162"	"TRUE"	"MullerLyer"	"-20.04286000"	"-0.076270000"	"2"	"23"
n/a	"html-keyboard-response"	"230"	"417440"	"0.0-6.0-2.0-0.23"	"zxdywk"	"600"	"1366"	"chrome"	"111.0.0"	"FALSE"	"Windows 10"	"60.8"	"044"	n/a	n/a	n/a	n/a	n/a	n/a	"fixation"	n/a	n/a	n/a	n/a	"NULL"	n/a	"NULL"	"NULL"	"NULL"	"<p style=\"color: black; font-size: 80px; padding-left: 6%; padding-right: 23%; padding-top: 26%; padding-bottom: 7%\">+</p>"	"1200"	n/a	n/a	n/a	n/a	n/a	n/a	n/a	n/a	n/a
n/a	"image-keyboard-response"	"231"	"418267"	"0.0-6.0-2.0-1.23"	"zxdywk"	"600"	"1366"	"chrome"	"111.0.0"	"FALSE"	"Windows 10"	"60.8"	"044"	n/a	n/a	n/a	n/a	n/a	n/a	"Trial"	n/a	n/a	n/a	"826"	"arrowup"	n/a	"NULL"	"NULL"	"NULL"	"stimuli/MullerLyer_-20.04286_0.35000.png"	n/a	"MullerLyer"	"arrowup"	"1210"	"TRUE"	"MullerLyer"	"-20.04286000"	"0.3500000000"	"2"	"24"
n/a	"html-keyboard-response"	"232"	"419563"	"0.0-6.0-2.0-0.24"	"zxdywk"	"600"	"1366"	"chrome"	"111.0.0"	"FALSE"	"Windows 10"	"60.8"	"044"	n/a	n/a	n/a	n/a	n/a	n/a	"fixation"	n/a	n/a	n/a	n/a	"NULL"	n/a	"NULL"	"NULL"	"NULL"	"<p style=\"color: black; font-size: 80px; padding-left: 48%; padding-right: 24%; padding-top: 3%; padding-bottom: 46%\">+</p>"	"1283"	n/a	n/a	n/a	n/a	n/a	n/a	n/a	n/a	n/a
n/a	"image-keyboard-response"	"233"	"420596"	"0.0-6.0-2.0-1.24"	"zxdywk"	"600"	"1366"	"chrome"	"111.0.0"	"FALSE"	"Windows 10"	"60.8"	"044"	n/a	n/a	n/a	n/a	n/a	n/a	"Trial"	n/a	n/a	n/a	"1032"	"arrowup"	n/a	"NULL"	"NULL"	"NULL"	"stimuli/MullerLyer_20.04286_-0.07627.png"	n/a	"MullerLyer"	"arrowdown"	"1296"	"FALSE"	"MullerLyer"	"20.042860000"	"-0.076270000"	"2"	"25"
n/a	"html-keyboard-response"	"234"	"421671"	"0.0-6.0-2.0-0.25"	"zxdywk"	"600"	"1366"	"chrome"	"111.0.0"	"FALSE"	"Windows 10"	"60.8"	"044"	n/a	n/a	n/a	n/a	n/a	n/a	"fixation"	n/a	n/a	n/a	n/a	"NULL"	n/a	"NULL"	"NULL"	"NULL"	"<p style=\"color: black; font-size: 80px; padding-left: 37%; padding-right: 45%; padding-top: 21%; padding-bottom: 35%\">+</p>"	"1058"	n/a	n/a	n/a	n/a	n/a	n/a	n/a	n/a	n/a
n/a	"image-keyboard-response"	"235"	"422637"	"0.0-6.0-2.0-1.25"	"zxdywk"	"600"	"1366"	"chrome"	"111.0.0"	"FALSE"	"Windows 10"	"60.8"	"044"	n/a	n/a	n/a	n/a	n/a	n/a	"Trial"	n/a	n/a	n/a	"963"	"arrowup"	n/a	"NULL"	"NULL"	"NULL"	"stimuli/MullerLyer_-2.3000_0.07627.png"	n/a	"MullerLyer"	"arrowup"	"1075"	"TRUE"	"MullerLyer"	"-2.300000000"	"0.0762700000"	"2"	"26"
n/a	"html-keyboard-response"	"236"	"423950"	"0.0-6.0-2.0-0.26"	"zxdywk"	"600"	"1366"	"chrome"	"111.0.0"	"FALSE"	"Windows 10"	"60.8"	"044"	n/a	n/a	n/a	n/a	n/a	n/a	"fixation"	n/a	n/a	n/a	n/a	"NULL"	n/a	"NULL"	"NULL"	"NULL"	"<p style=\"color: black; font-size: 80px; padding-left: 15%; padding-right: 17%; padding-top: 40%; padding-bottom: 35%\">+</p>"	"1309"	n/a	n/a	n/a	n/a	n/a	n/a	n/a	n/a	n/a
n/a	"image-keyboard-response"	"237"	"425109"	"0.0-6.0-2.0-1.26"	"zxdywk"	"600"	"1366"	"chrome"	"111.0.0"	"FALSE"	"Windows 10"	"60.8"	"044"	n/a	n/a	n/a	n/a	n/a	n/a	"Trial"	n/a	n/a	n/a	"1159"	"arrowdown"	n/a	"NULL"	"NULL"	"NULL"	"stimuli/MullerLyer_-2.3000_-0.07627.png"	n/a	"MullerLyer"	"arrowdown"	"1313"	"TRUE"	"MullerLyer"	"-2.300000000"	"-0.076270000"	"2"	"27"
n/a	"html-keyboard-response"	"238"	"426448"	"0.0-6.0-2.0-0.27"	"zxdywk"	"600"	"1366"	"chrome"	"111.0.0"	"FALSE"	"Windows 10"	"60.8"	"044"	n/a	n/a	n/a	n/a	n/a	n/a	"fixation"	n/a	n/a	n/a	n/a	"NULL"	n/a	"NULL"	"NULL"	"NULL"	"<p style=\"color: black; font-size: 80px; padding-left: 17%; padding-right: 37%; padding-top: 43%; padding-bottom: 31%\">+</p>"	"1337"	n/a	n/a	n/a	n/a	n/a	n/a	n/a	n/a	n/a
n/a	"image-keyboard-response"	"239"	"428017"	"0.0-6.0-2.0-1.27"	"zxdywk"	"600"	"1366"	"chrome"	"111.0.0"	"FALSE"	"Windows 10"	"60.8"	"044"	n/a	n/a	n/a	n/a	n/a	n/a	"Trial"	n/a	n/a	n/a	"1568"	"arrowdown"	n/a	"NULL"	"NULL"	"NULL"	"stimuli/MullerLyer_2.30000_-0.23665.png"	n/a	"MullerLyer"	"arrowdown"	"1339"	"TRUE"	"MullerLyer"	"2.3000000000"	"-0.236650000"	"2"	"28"
n/a	"html-keyboard-response"	"240"	"429184"	"0.0-6.0-2.0-0.28"	"zxdywk"	"600"	"1366"	"chrome"	"111.0.0"	"FALSE"	"Windows 10"	"60.8"	"044"	n/a	n/a	n/a	n/a	n/a	n/a	"fixation"	n/a	n/a	n/a	n/a	"NULL"	n/a	"NULL"	"NULL"	"NULL"	"<p style=\"color: black; font-size: 80px; padding-left: 1%; padding-right: 20%; padding-top: 21%; padding-bottom: 21%\">+</p>"	"1163"	n/a	n/a	n/a	n/a	n/a	n/a	n/a	n/a	n/a
n/a	"image-keyboard-response"	"241"	"430075"	"0.0-6.0-2.0-1.28"	"zxdywk"	"600"	"1366"	"chrome"	"111.0.0"	"FALSE"	"Windows 10"	"60.8"	"044"	n/a	n/a	n/a	n/a	n/a	n/a	"Trial"	n/a	n/a	n/a	"891"	"arrowup"	n/a	"NULL"	"NULL"	"NULL"	"stimuli/MullerLyer_-8.21429_0.14541.png"	n/a	"MullerLyer"	"arrowup"	"1167"	"TRUE"	"MullerLyer"	"-8.214290000"	"0.1454100000"	"2"	"29"
n/a	"html-keyboard-response"	"242"	"431413"	"0.0-6.0-2.0-0.29"	"zxdywk"	"600"	"1366"	"chrome"	"111.0.0"	"FALSE"	"Windows 10"	"60.8"	"044"	n/a	n/a	n/a	n/a	n/a	n/a	"fixation"	n/a	n/a	n/a	n/a	"NULL"	n/a	"NULL"	"NULL"	"NULL"	"<p style=\"color: black; font-size: 80px; padding-left: 4%; padding-right: 43%; padding-top: 2%; padding-bottom: 47%\">+</p>"	"1327"	n/a	n/a	n/a	n/a	n/a	n/a	n/a	n/a	n/a
n/a	"image-keyboard-response"	"243"	"432116"	"0.0-6.0-2.0-1.29"	"zxdywk"	"600"	"1366"	"chrome"	"111.0.0"	"FALSE"	"Windows 10"	"60.8"	"044"	n/a	n/a	n/a	n/a	n/a	n/a	"Trial"	n/a	n/a	n/a	"702"	"arrowup"	n/a	"NULL"	"NULL"	"NULL"	"stimuli/MullerLyer_-2.3000_0.35000.png"	n/a	"MullerLyer"	"arrowup"	"1338"	"TRUE"	"MullerLyer"	"-2.300000000"	"0.3500000000"	"2"	"30"
n/a	"html-keyboard-response"	"244"	"433545"	"0.0-6.0-2.0-0.30"	"zxdywk"	"600"	"1366"	"chrome"	"111.0.0"	"FALSE"	"Windows 10"	"60.8"	"044"	n/a	n/a	n/a	n/a	n/a	n/a	"fixation"	n/a	n/a	n/a	n/a	"NULL"	n/a	"NULL"	"NULL"	"NULL"	"<p style=\"color: black; font-size: 80px; padding-left: 17%; padding-right: 13%; padding-top: 20%; padding-bottom: 36%\">+</p>"	"1428"	n/a	n/a	n/a	n/a	n/a	n/a	n/a	n/a	n/a
n/a	"image-keyboard-response"	"245"	"434153"	"0.0-6.0-2.0-1.30"	"zxdywk"	"600"	"1366"	"chrome"	"111.0.0"	"FALSE"	"Windows 10"	"60.8"	"044"	n/a	n/a	n/a	n/a	n/a	n/a	"Trial"	n/a	n/a	n/a	"607"	"arrowup"	n/a	"NULL"	"NULL"	"NULL"	"stimuli/MullerLyer_-20.04286_0.14541.png"	n/a	"MullerLyer"	"arrowup"	"1429"	"TRUE"	"MullerLyer"	"-20.04286000"	"0.1454100000"	"2"	"31"
n/a	"html-keyboard-response"	"246"	"435417"	"0.0-6.0-2.0-0.31"	"zxdywk"	"600"	"1366"	"chrome"	"111.0.0"	"FALSE"	"Windows 10"	"60.8"	"044"	n/a	n/a	n/a	n/a	n/a	n/a	"fixation"	n/a	n/a	n/a	n/a	"NULL"	n/a	"NULL"	"NULL"	"NULL"	"<p style=\"color: black; font-size: 80px; padding-left: 20%; padding-right: 20%; padding-top: 27%; padding-bottom: 14%\">+</p>"	"1256"	n/a	n/a	n/a	n/a	n/a	n/a	n/a	n/a	n/a
n/a	"image-keyboard-response"	"247"	"436562"	"0.0-6.0-2.0-1.31"	"zxdywk"	"600"	"1366"	"chrome"	"111.0.0"	"FALSE"	"Windows 10"	"60.8"	"044"	n/a	n/a	n/a	n/a	n/a	n/a	"Trial"	n/a	n/a	n/a	"1144"	"arrowdown"	n/a	"NULL"	"NULL"	"NULL"	"stimuli/MullerLyer_20.04286_0.14541.png"	n/a	"MullerLyer"	"arrowup"	"1264"	"FALSE"	"MullerLyer"	"20.042860000"	"0.1454100000"	"2"	"32"
n/a	"html-keyboard-response"	"248"	"437929"	"0.0-6.0-2.0-0.32"	"zxdywk"	"600"	"1366"	"chrome"	"111.0.0"	"FALSE"	"Windows 10"	"60.8"	"044"	n/a	n/a	n/a	n/a	n/a	n/a	"fixation"	n/a	n/a	n/a	n/a	"NULL"	n/a	"NULL"	"NULL"	"NULL"	"<p style=\"color: black; font-size: 80px; padding-left: 31%; padding-right: 18%; padding-top: 49%; padding-bottom: 37%\">+</p>"	"1359"	n/a	n/a	n/a	n/a	n/a	n/a	n/a	n/a	n/a
n/a	"image-keyboard-response"	"249"	"438669"	"0.0-6.0-2.0-1.32"	"zxdywk"	"600"	"1366"	"chrome"	"111.0.0"	"FALSE"	"Windows 10"	"60.8"	"044"	n/a	n/a	n/a	n/a	n/a	n/a	"Trial"	n/a	n/a	n/a	"739"	"arrowup"	n/a	"NULL"	"NULL"	"NULL"	"stimuli/MullerLyer_2.30000_0.35000.png"	n/a	"MullerLyer"	"arrowup"	"1367"	"TRUE"	"MullerLyer"	"2.3000000000"	"0.3500000000"	"2"	"33"
n/a	"html-keyboard-response"	"250"	"439789"	"0.0-6.0-2.0-0.33"	"zxdywk"	"600"	"1366"	"chrome"	"111.0.0"	"FALSE"	"Windows 10"	"60.8"	"044"	n/a	n/a	n/a	n/a	n/a	n/a	"fixation"	n/a	n/a	n/a	n/a	"NULL"	n/a	"NULL"	"NULL"	"NULL"	"<p style=\"color: black; font-size: 80px; padding-left: 37%; padding-right: 33%; padding-top: 23%; padding-bottom: 11%\">+</p>"	"1111"	n/a	n/a	n/a	n/a	n/a	n/a	n/a	n/a	n/a
n/a	"image-keyboard-response"	"251"	"441210"	"0.0-6.0-2.0-1.33"	"zxdywk"	"600"	"1366"	"chrome"	"111.0.0"	"FALSE"	"Windows 10"	"60.8"	"044"	n/a	n/a	n/a	n/a	n/a	n/a	"Trial"	n/a	n/a	n/a	"1420"	"arrowdown"	n/a	"NULL"	"NULL"	"NULL"	"stimuli/MullerLyer_-8.21429_-0.3500.png"	n/a	"MullerLyer"	"arrowdown"	"1120"	"TRUE"	"MullerLyer"	"-8.214290000"	"-0.350000000"	"2"	"34"
n/a	"html-keyboard-response"	"252"	"442339"	"0.0-6.0-2.0-0.34"	"zxdywk"	"600"	"1366"	"chrome"	"111.0.0"	"FALSE"	"Windows 10"	"60.8"	"044"	n/a	n/a	n/a	n/a	n/a	n/a	"fixation"	n/a	n/a	n/a	n/a	"NULL"	n/a	"NULL"	"NULL"	"NULL"	"<p style=\"color: black; font-size: 80px; padding-left: 21%; padding-right: 3%; padding-top: 10%; padding-bottom: 25%\">+</p>"	"1115"	n/a	n/a	n/a	n/a	n/a	n/a	n/a	n/a	n/a
n/a	"image-keyboard-response"	"253"	"442936"	"0.0-6.0-2.0-1.34"	"zxdywk"	"600"	"1366"	"chrome"	"111.0.0"	"FALSE"	"Windows 10"	"60.8"	"044"	n/a	n/a	n/a	n/a	n/a	n/a	"Trial"	n/a	n/a	n/a	"596"	"arrowup"	n/a	"NULL"	"NULL"	"NULL"	"stimuli/MullerLyer_2.30000_0.14541.png"	n/a	"MullerLyer"	"arrowup"	"1129"	"TRUE"	"MullerLyer"	"2.3000000000"	"0.1454100000"	"2"	"35"
