"success"	"trial_type"	"trial_index"	"time_elapsed"	"internal_node_id"	"participant_id"	"screen_height"	"screen_width"	"browser"	"browser_version"	"mobile"	"os"	"vsync_rate"	"subject_id"	"width"	"height"	"webaudio"	"fullscreen"	"webcam"	"microphone"	"screen"	"version"	"date"	"time"	"rt"	"response"	"timeout"	"failed_images"	"failed_audio"	"failed_video"	"stimulus"	"trial_duration"	"block"	"correct_response"	"prestimulus_duration"	"correct"	"type"	"illusion_strength"	"illusion_difference"	"block_number"	"trial_number"
"TRUE"	"fullscreen"	"0"	"14230"	"0.0-0.0"	"jdb9sw"	"600"	"1366"	"chrome"	"108.0.0"	"FALSE"	"Windows 10"	"60.54"	"126"	n/a	n/a	n/a	n/a	n/a	n/a	n/a	n/a	n/a	n/a	n/a	"NULL"	n/a	"NULL"	"NULL"	"NULL"	n/a	n/a	n/a	n/a	n/a	n/a	n/a	n/a	n/a	n/a	n/a
n/a	"browser-check"	"1"	"15237"	"0.0-1.0"	"jdb9sw"	"600"	"1366"	"chrome"	"108.0.0"	"FALSE"	"Windows 10"	"60.54"	"126"	"1366"	"600"	"TRUE"	"TRUE"	"TRUE"	"TRUE"	"browser_info"	"1.0"	"29/12/2022"	"10:33:49"	n/a	"NULL"	n/a	"NULL"	"NULL"	"NULL"	n/a	n/a	n/a	n/a	n/a	n/a	n/a	n/a	n/a	n/a	n/a
n/a	"survey-text"	"2"	"20716"	"0.0-2.0"	"jdb9sw"	"600"	"1366"	"chrome"	"108.0.0"	"FALSE"	"Windows 10"	"60.54"	"126"	n/a	n/a	n/a	n/a	n/a	n/a	"subject_id"	n/a	n/a	n/a	"5473"	"list(subject_id = \"126\")"	n/a	"NULL"	"NULL"	"NULL"	n/a	n/a	n/a	n/a	n/a	n/a	n/a	n/a	n/a	n/a	n/a
"TRUE"	"preload"	"3"	"20732"	"0.0-3.0"	"jdb9sw"	"600"	"1366"	"chrome"	"108.0.0"	"FALSE"	"Windows 10"	"60.54"	"126"	n/a	n/a	n/a	n/a	n/a	n/a	n/a	n/a	n/a	n/a	n/a	"NULL"	"FALSE"	"list()"	"list()"	"list()"	n/a	n/a	n/a	n/a	n/a	n/a	n/a	n/a	n/a	n/a	n/a
n/a	"html-button-response"	"4"	"31980"	"0.0-4.0-0.0"	"jdb9sw"	"600"	"1366"	"chrome"	"108.0.0"	"FALSE"	"Windows 10"	"60.54"	"126"	n/a	n/a	n/a	n/a	n/a	n/a	"illusion_instructions"	n/a	n/a	n/a	"11246"	"0"	n/a	"NULL"	"NULL"	"NULL"	"<p><b>Illusion Game</b></p><p>In this game of speed and reflex, you will need to make <b>visual judgments</b> (for instance, which circle is the biggest, or which line is the longest), as fast and as correctly as possible, while <b>resisting different visual illusions</b>.</p><p>We are going to start with some examples of all the illusions you will encounter in the game.</p>"	n/a	n/a	n/a	n/a	n/a	n/a	n/a	n/a	n/a	n/a
"TRUE"	"preload"	"5"	"32005"	"0.0-4.0-1.0-0.0"	"jdb9sw"	"600"	"1366"	"chrome"	"108.0.0"	"FALSE"	"Windows 10"	"60.54"	"126"	n/a	n/a	n/a	n/a	n/a	n/a	n/a	n/a	n/a	n/a	n/a	"NULL"	"FALSE"	"list()"	"list()"	"list()"	n/a	n/a	n/a	n/a	n/a	n/a	n/a	n/a	n/a	n/a	n/a
n/a	"html-keyboard-response"	"6"	"67524"	"0.0-4.0-1.0-1.0"	"jdb9sw"	"600"	"1366"	"chrome"	"108.0.0"	"FALSE"	"Windows 10"	"60.54"	"126"	n/a	n/a	n/a	n/a	n/a	n/a	n/a	n/a	n/a	n/a	"35512"	"enter"	n/a	"NULL"	"NULL"	"NULL"	"<p><b>Practice</b></p><p>In this part, two red circles will appear side by side on the screen.</p><p>Your task is to select which <b>red circle is bigger</b> in size as fast as you can, without making errors.</p><p>Don't get distracted by the surrounding black circles around the red circles!</p><p>Press <b>the LEFT or the RIGHT arrow</b> to indicate which is the bigger <b>red circle.</b></p><div style='float: center'><img src='materials/instructions/Ebbinghaus_Demo.png' height='300'></img><p><img src='utils/answer/answer_leftright_keyboard.PNG' height='150'></img></p><p class='small'>In this example, the correct answer is the <b>LEFT arrow</b>.</p></div><p>Are you ready? <b>Press ENTER to start</b></p>"	n/a	n/a	n/a	n/a	n/a	n/a	n/a	n/a	n/a	n/a
n/a	"html-keyboard-response"	"7"	"69419"	"0.0-4.0-1.0-2.0-0.0"	"jdb9sw"	"600"	"1366"	"chrome"	"108.0.0"	"FALSE"	"Windows 10"	"60.54"	"126"	n/a	n/a	n/a	n/a	n/a	n/a	"fixation"	n/a	n/a	n/a	n/a	"NULL"	n/a	"NULL"	"NULL"	"NULL"	"<p style=\"color: black; font-size: 80px; padding-left: 20%; padding-right: 41%; padding-top: 16%; padding-bottom: 22%\">+</p>"	"1368"	n/a	n/a	n/a	n/a	n/a	n/a	n/a	n/a	n/a
n/a	"image-keyboard-response"	"8"	"70275"	"0.0-4.0-1.0-2.0-1.0"	"jdb9sw"	"600"	"1366"	"chrome"	"108.0.0"	"FALSE"	"Windows 10"	"60.54"	"126"	n/a	n/a	n/a	n/a	n/a	n/a	"Trial"	n/a	n/a	n/a	"846"	"arrowleft"	n/a	"NULL"	"NULL"	"NULL"	"stimuli/Ebbinghaus_1000000_1.40000.png"	n/a	"Ebbinghaus"	"arrowleft"	"1895"	"TRUE"	"Ebbinghaus"	"100000000000"	"1.4000000000"	"1"	"1"
n/a	"html-keyboard-response"	"9"	"71623"	"0.0-4.0-1.0-2.0-0.1"	"jdb9sw"	"600"	"1366"	"chrome"	"108.0.0"	"FALSE"	"Windows 10"	"60.54"	"126"	n/a	n/a	n/a	n/a	n/a	n/a	"fixation"	n/a	n/a	n/a	n/a	"NULL"	n/a	"NULL"	"NULL"	"NULL"	"<p style=\"color: black; font-size: 80px; padding-left: 33%; padding-right: 30%; padding-top: 38%; padding-bottom: 49%\">+</p>"	"1331"	n/a	n/a	n/a	n/a	n/a	n/a	n/a	n/a	n/a
n/a	"image-keyboard-response"	"10"	"72044"	"0.0-4.0-1.0-2.0-1.1"	"jdb9sw"	"600"	"1366"	"chrome"	"108.0.0"	"FALSE"	"Windows 10"	"60.54"	"126"	n/a	n/a	n/a	n/a	n/a	n/a	"Trial"	n/a	n/a	n/a	"420"	"arrowright"	n/a	"NULL"	"NULL"	"NULL"	"stimuli/Ebbinghaus_0000000_-1.4000.png"	n/a	"Ebbinghaus"	"arrowright"	"1348"	"TRUE"	"Ebbinghaus"	"000000000000"	"-1.400000000"	"1"	"2"
n/a	"html-keyboard-response"	"11"	"73091"	"0.0-4.0-1.0-2.0-0.2"	"jdb9sw"	"600"	"1366"	"chrome"	"108.0.0"	"FALSE"	"Windows 10"	"60.54"	"126"	n/a	n/a	n/a	n/a	n/a	n/a	"fixation"	n/a	n/a	n/a	n/a	"NULL"	n/a	"NULL"	"NULL"	"NULL"	"<p style=\"color: black; font-size: 80px; padding-left: 10%; padding-right: 2%; padding-top: 16%; padding-bottom: 23%\">+</p>"	"1030"	n/a	n/a	n/a	n/a	n/a	n/a	n/a	n/a	n/a
n/a	"image-keyboard-response"	"12"	"73491"	"0.0-4.0-1.0-2.0-1.2"	"jdb9sw"	"600"	"1366"	"chrome"	"108.0.0"	"FALSE"	"Windows 10"	"60.54"	"126"	n/a	n/a	n/a	n/a	n/a	n/a	"Trial"	n/a	n/a	n/a	"399"	"arrowleft"	n/a	"NULL"	"NULL"	"NULL"	"stimuli/Ebbinghaus_-100000_1.40000.png"	n/a	"Ebbinghaus"	"arrowleft"	"1047"	"TRUE"	"Ebbinghaus"	"-10000000000"	"1.4000000000"	"1"	"3"
n/a	"html-keyboard-response"	"13"	"74703"	"0.0-4.0-1.0-2.0-0.3"	"jdb9sw"	"600"	"1366"	"chrome"	"108.0.0"	"FALSE"	"Windows 10"	"60.54"	"126"	n/a	n/a	n/a	n/a	n/a	n/a	"fixation"	n/a	n/a	n/a	n/a	"NULL"	n/a	"NULL"	"NULL"	"NULL"	"<p style=\"color: black; font-size: 80px; padding-left: 45%; padding-right: 31%; padding-top: 24%; padding-bottom: 30%\">+</p>"	"1195"	n/a	n/a	n/a	n/a	n/a	n/a	n/a	n/a	n/a
n/a	"image-keyboard-response"	"14"	"75063"	"0.0-4.0-1.0-2.0-1.3"	"jdb9sw"	"600"	"1366"	"chrome"	"108.0.0"	"FALSE"	"Windows 10"	"60.54"	"126"	n/a	n/a	n/a	n/a	n/a	n/a	"Trial"	n/a	n/a	n/a	"359"	"arrowleft"	n/a	"NULL"	"NULL"	"NULL"	"stimuli/Ebbinghaus_0000000_1.40000.png"	n/a	"Ebbinghaus"	"arrowleft"	"1212"	"TRUE"	"Ebbinghaus"	"000000000000"	"1.4000000000"	"1"	"4"
n/a	"html-keyboard-response"	"15"	"76441"	"0.0-4.0-1.0-2.0-0.4"	"jdb9sw"	"600"	"1366"	"chrome"	"108.0.0"	"FALSE"	"Windows 10"	"60.54"	"126"	n/a	n/a	n/a	n/a	n/a	n/a	"fixation"	n/a	n/a	n/a	n/a	"NULL"	n/a	"NULL"	"NULL"	"NULL"	"<p style=\"color: black; font-size: 80px; padding-left: 17%; padding-right: 5%; padding-top: 44%; padding-bottom: 5%\">+</p>"	"1363"	n/a	n/a	n/a	n/a	n/a	n/a	n/a	n/a	n/a
n/a	"image-keyboard-response"	"16"	"76815"	"0.0-4.0-1.0-2.0-1.4"	"jdb9sw"	"600"	"1366"	"chrome"	"108.0.0"	"FALSE"	"Windows 10"	"60.54"	"126"	n/a	n/a	n/a	n/a	n/a	n/a	"Trial"	n/a	n/a	n/a	"373"	"arrowright"	n/a	"NULL"	"NULL"	"NULL"	"stimuli/Ebbinghaus_-100000_-1.4000.png"	n/a	"Ebbinghaus"	"arrowright"	"1378"	"TRUE"	"Ebbinghaus"	"-10000000000"	"-1.400000000"	"1"	"5"
n/a	"html-keyboard-response"	"17"	"78227"	"0.0-4.0-1.0-2.0-0.5"	"jdb9sw"	"600"	"1366"	"chrome"	"108.0.0"	"FALSE"	"Windows 10"	"60.54"	"126"	n/a	n/a	n/a	n/a	n/a	n/a	"fixation"	n/a	n/a	n/a	n/a	"NULL"	n/a	"NULL"	"NULL"	"NULL"	"<p style=\"color: black; font-size: 80px; padding-left: 48%; padding-right: 47%; padding-top: 10%; padding-bottom: 46%\">+</p>"	"1405"	n/a	n/a	n/a	n/a	n/a	n/a	n/a	n/a	n/a
n/a	"image-keyboard-response"	"18"	"78552"	"0.0-4.0-1.0-2.0-1.5"	"jdb9sw"	"600"	"1366"	"chrome"	"108.0.0"	"FALSE"	"Windows 10"	"60.54"	"126"	n/a	n/a	n/a	n/a	n/a	n/a	"Trial"	n/a	n/a	n/a	"324"	"arrowright"	n/a	"NULL"	"NULL"	"NULL"	"stimuli/Ebbinghaus_1000000_-1.4000.png"	n/a	"Ebbinghaus"	"arrowright"	"1412"	"TRUE"	"Ebbinghaus"	"100000000000"	"-1.400000000"	"1"	"6"
n/a	"html-button-response"	"19"	"91288"	"0.0-4.0-1.0-3.0"	"jdb9sw"	"600"	"1366"	"chrome"	"108.0.0"	"FALSE"	"Windows 10"	"60.54"	"126"	n/a	n/a	n/a	n/a	n/a	n/a	"practice_block_results"	n/a	n/a	n/a	"12731"	"0"	n/a	"NULL"	"NULL"	"NULL"	"<p style='color:rgb(76,175,80);'> Correct Responses: <b>100.00%</b></p><hr><p style='color:rgb(233,30,99);'> Average Response Time: <b>453.50</b> ms.</p>"	n/a	n/a	n/a	n/a	n/a	n/a	n/a	n/a	n/a	n/a
"TRUE"	"preload"	"20"	"91818"	"0.0-4.0-2.0-0.0"	"jdb9sw"	"600"	"1366"	"chrome"	"108.0.0"	"FALSE"	"Windows 10"	"60.54"	"126"	n/a	n/a	n/a	n/a	n/a	n/a	n/a	n/a	n/a	n/a	n/a	"NULL"	"FALSE"	"list()"	"list()"	"list()"	n/a	n/a	n/a	n/a	n/a	n/a	n/a	n/a	n/a	n/a	n/a
n/a	"html-keyboard-response"	"21"	"100558"	"0.0-4.0-2.0-1.0"	"jdb9sw"	"600"	"1366"	"chrome"	"108.0.0"	"FALSE"	"Windows 10"	"60.54"	"126"	n/a	n/a	n/a	n/a	n/a	n/a	n/a	n/a	n/a	n/a	"8740"	"enter"	n/a	"NULL"	"NULL"	"NULL"	"<p><b>Practice</b></p><p>In this part, two horizontal red lines will appear one above the other.</p><p>Your task is to select which <b>line is longer</b> in length as fast as you can, without making errors.</p><p>Don't get distracted by the surrounding black arrows at the end of the red lines!</p><p>Press <b>the UP or the DOWN arrow</b> to indicate where is the longer <b>red line.</b></p><div style='float: center'><img src='materials/instructions/MullerLyer_Demo.png' height='300'></img><p><img src='utils/answer/answer_updown_keyboard.PNG' height='150'></img></p><p class='small'>In this example, the correct answer is the <b>UP arrow</b>.</p></div><p>Are you ready? <b>Press ENTER to start</b></p>"	n/a	n/a	n/a	n/a	n/a	n/a	n/a	n/a	n/a	n/a
n/a	"html-keyboard-response"	"22"	"102473"	"0.0-4.0-2.0-2.0-0.0"	"jdb9sw"	"600"	"1366"	"chrome"	"108.0.0"	"FALSE"	"Windows 10"	"60.54"	"126"	n/a	n/a	n/a	n/a	n/a	n/a	"fixation"	n/a	n/a	n/a	n/a	"NULL"	n/a	"NULL"	"NULL"	"NULL"	"<p style=\"color: black; font-size: 80px; padding-left: 33%; padding-right: 50%; padding-top: 4%; padding-bottom: 16%\">+</p>"	"1400"	n/a	n/a	n/a	n/a	n/a	n/a	n/a	n/a	n/a
n/a	"image-keyboard-response"	"23"	"102852"	"0.0-4.0-2.0-2.0-1.0"	"jdb9sw"	"600"	"1366"	"chrome"	"108.0.0"	"FALSE"	"Windows 10"	"60.54"	"126"	n/a	n/a	n/a	n/a	n/a	n/a	"Trial"	n/a	n/a	n/a	"378"	"arrowup"	n/a	"NULL"	"NULL"	"NULL"	"stimuli/MullerLyer_0000000_0.70000.png"	n/a	"MullerLyer"	"arrowup"	"1915"	"TRUE"	"MullerLyer"	"000000000000"	"0.7000000000"	"1"	"7"
n/a	"html-keyboard-response"	"24"	"104299"	"0.0-4.0-2.0-2.0-0.1"	"jdb9sw"	"600"	"1366"	"chrome"	"108.0.0"	"FALSE"	"Windows 10"	"60.54"	"126"	n/a	n/a	n/a	n/a	n/a	n/a	"fixation"	n/a	n/a	n/a	n/a	"NULL"	n/a	"NULL"	"NULL"	"NULL"	"<p style=\"color: black; font-size: 80px; padding-left: 13%; padding-right: 46%; padding-top: 20%; padding-bottom: 9%\">+</p>"	"1428"	n/a	n/a	n/a	n/a	n/a	n/a	n/a	n/a	n/a
n/a	"image-keyboard-response"	"25"	"104685"	"0.0-4.0-2.0-2.0-1.1"	"jdb9sw"	"600"	"1366"	"chrome"	"108.0.0"	"FALSE"	"Windows 10"	"60.54"	"126"	n/a	n/a	n/a	n/a	n/a	n/a	"Trial"	n/a	n/a	n/a	"385"	"arrowdown"	n/a	"NULL"	"NULL"	"NULL"	"stimuli/MullerLyer_0000000_-0.7000.png"	n/a	"MullerLyer"	"arrowdown"	"1447"	"TRUE"	"MullerLyer"	"000000000000"	"-0.700000000"	"1"	"8"
n/a	"html-keyboard-response"	"26"	"105887"	"0.0-4.0-2.0-2.0-0.2"	"jdb9sw"	"600"	"1366"	"chrome"	"108.0.0"	"FALSE"	"Windows 10"	"60.54"	"126"	n/a	n/a	n/a	n/a	n/a	n/a	"fixation"	n/a	n/a	n/a	n/a	"NULL"	n/a	"NULL"	"NULL"	"NULL"	"<p style=\"color: black; font-size: 80px; padding-left: 8%; padding-right: 39%; padding-top: 27%; padding-bottom: 17%\">+</p>"	"1197"	n/a	n/a	n/a	n/a	n/a	n/a	n/a	n/a	n/a
n/a	"image-keyboard-response"	"27"	"106247"	"0.0-4.0-2.0-2.0-1.2"	"jdb9sw"	"600"	"1366"	"chrome"	"108.0.0"	"FALSE"	"Windows 10"	"60.54"	"126"	n/a	n/a	n/a	n/a	n/a	n/a	"Trial"	n/a	n/a	n/a	"359"	"arrowup"	n/a	"NULL"	"NULL"	"NULL"	"stimuli/MullerLyer_-230000_0.70000.png"	n/a	"MullerLyer"	"arrowup"	"1202"	"TRUE"	"MullerLyer"	"-23000000000"	"0.7000000000"	"1"	"9"
n/a	"html-keyboard-response"	"28"	"107483"	"0.0-4.0-2.0-2.0-0.3"	"jdb9sw"	"600"	"1366"	"chrome"	"108.0.0"	"FALSE"	"Windows 10"	"60.54"	"126"	n/a	n/a	n/a	n/a	n/a	n/a	"fixation"	n/a	n/a	n/a	n/a	"NULL"	n/a	"NULL"	"NULL"	"NULL"	"<p style=\"color: black; font-size: 80px; padding-left: 17%; padding-right: 19%; padding-top: 35%; padding-bottom: 15%\">+</p>"	"1222"	n/a	n/a	n/a	n/a	n/a	n/a	n/a	n/a	n/a
n/a	"image-keyboard-response"	"29"	"108383"	"0.0-4.0-2.0-2.0-1.3"	"jdb9sw"	"600"	"1366"	"chrome"	"108.0.0"	"FALSE"	"Windows 10"	"60.54"	"126"	n/a	n/a	n/a	n/a	n/a	n/a	"Trial"	n/a	n/a	n/a	"899"	"arrowup"	n/a	"NULL"	"NULL"	"NULL"	"stimuli/MullerLyer_2300000_0.70000.png"	n/a	"MullerLyer"	"arrowup"	"1236"	"TRUE"	"MullerLyer"	"230000000000"	"0.7000000000"	"1"	"10"
n/a	"html-keyboard-response"	"30"	"109799"	"0.0-4.0-2.0-2.0-0.4"	"jdb9sw"	"600"	"1366"	"chrome"	"108.0.0"	"FALSE"	"Windows 10"	"60.54"	"126"	n/a	n/a	n/a	n/a	n/a	n/a	"fixation"	n/a	n/a	n/a	n/a	"NULL"	n/a	"NULL"	"NULL"	"NULL"	"<p style=\"color: black; font-size: 80px; padding-left: 20%; padding-right: 10%; padding-top: 49%; padding-bottom: 30%\">+</p>"	"1402"	n/a	n/a	n/a	n/a	n/a	n/a	n/a	n/a	n/a
n/a	"image-keyboard-response"	"31"	"110235"	"0.0-4.0-2.0-2.0-1.4"	"jdb9sw"	"600"	"1366"	"chrome"	"108.0.0"	"FALSE"	"Windows 10"	"60.54"	"126"	n/a	n/a	n/a	n/a	n/a	n/a	"Trial"	n/a	n/a	n/a	"435"	"arrowdown"	n/a	"NULL"	"NULL"	"NULL"	"stimuli/MullerLyer_2300000_-0.7000.png"	n/a	"MullerLyer"	"arrowdown"	"1416"	"TRUE"	"MullerLyer"	"230000000000"	"-0.700000000"	"1"	"11"
n/a	"html-keyboard-response"	"32"	"111525"	"0.0-4.0-2.0-2.0-0.5"	"jdb9sw"	"600"	"1366"	"chrome"	"108.0.0"	"FALSE"	"Windows 10"	"60.54"	"126"	n/a	n/a	n/a	n/a	n/a	n/a	"fixation"	n/a	n/a	n/a	n/a	"NULL"	n/a	"NULL"	"NULL"	"NULL"	"<p style=\"color: black; font-size: 80px; padding-left: 8%; padding-right: 29%; padding-top: 4%; padding-bottom: 5%\">+</p>"	"1277"	n/a	n/a	n/a	n/a	n/a	n/a	n/a	n/a	n/a
n/a	"image-keyboard-response"	"33"	"111881"	"0.0-4.0-2.0-2.0-1.5"	"jdb9sw"	"600"	"1366"	"chrome"	"108.0.0"	"FALSE"	"Windows 10"	"60.54"	"126"	n/a	n/a	n/a	n/a	n/a	n/a	"Trial"	n/a	n/a	n/a	"356"	"arrowdown"	n/a	"NULL"	"NULL"	"NULL"	"stimuli/MullerLyer_-230000_-0.7000.png"	n/a	"MullerLyer"	"arrowdown"	"1290"	"TRUE"	"MullerLyer"	"-23000000000"	"-0.700000000"	"1"	"12"
n/a	"html-button-response"	"34"	"114937"	"0.0-4.0-2.0-3.0"	"jdb9sw"	"600"	"1366"	"chrome"	"108.0.0"	"FALSE"	"Windows 10"	"60.54"	"126"	n/a	n/a	n/a	n/a	n/a	n/a	"practice_block_results"	n/a	n/a	n/a	"3054"	"0"	n/a	"NULL"	"NULL"	"NULL"	"<p style='color:rgb(76,175,80);'> Correct Responses: <b>100.00%</b></p><hr><p style='color:rgb(233,30,99);'> Average Response Time: <b>468.67</b> ms.</p>"	n/a	n/a	n/a	n/a	n/a	n/a	n/a	n/a	n/a	n/a
"TRUE"	"preload"	"35"	"115458"	"0.0-4.0-3.0-0.0"	"jdb9sw"	"600"	"1366"	"chrome"	"108.0.0"	"FALSE"	"Windows 10"	"60.54"	"126"	n/a	n/a	n/a	n/a	n/a	n/a	n/a	n/a	n/a	n/a	n/a	"NULL"	"FALSE"	"list()"	"list()"	"list()"	n/a	n/a	n/a	n/a	n/a	n/a	n/a	n/a	n/a	n/a	n/a
n/a	"html-keyboard-response"	"36"	"122909"	"0.0-4.0-3.0-1.0"	"jdb9sw"	"600"	"1366"	"chrome"	"108.0.0"	"FALSE"	"Windows 10"	"60.54"	"126"	n/a	n/a	n/a	n/a	n/a	n/a	n/a	n/a	n/a	n/a	"7451"	"enter"	n/a	"NULL"	"NULL"	"NULL"	"<p><b>Practice</b></p><p>In this part, two red lines will appear side by side.</p><p>Your task is to tell <b>which line is longer</b> in length, regardless of their orientation, as fast as you can, and without making errors.</p><p>Don't get distracted by the orientation of the lines!</p><p>Press <b>the LEFT or the RIGHT arrow</b> to indicate which <b>line is the longer one.</b></p><div style='float: center'><img src='materials/instructions/VerticalHorizontal_Demo.png' height='300'></img><p><img src='utils/answer/answer_leftright_keyboard.PNG' height='150'></img></p><p class='small'>In this example, the correct answer is the <b>LEFT arrow</b>.</p></div><p>Are you ready? <b>Press ENTER to start</b></p>"	n/a	n/a	n/a	n/a	n/a	n/a	n/a	n/a	n/a	n/a
n/a	"html-keyboard-response"	"37"	"124856"	"0.0-4.0-3.0-2.0-0.0"	"jdb9sw"	"600"	"1366"	"chrome"	"108.0.0"	"FALSE"	"Windows 10"	"60.54"	"126"	n/a	n/a	n/a	n/a	n/a	n/a	"fixation"	n/a	n/a	n/a	n/a	"NULL"	n/a	"NULL"	"NULL"	"NULL"	"<p style=\"color: black; font-size: 80px; padding-left: 29%; padding-right: 36%; padding-top: 20%; padding-bottom: 33%\">+</p>"	"1419"	n/a	n/a	n/a	n/a	n/a	n/a	n/a	n/a	n/a
n/a	"image-keyboard-response"	"38"	"125200"	"0.0-4.0-3.0-2.0-1.0"	"jdb9sw"	"600"	"1366"	"chrome"	"108.0.0"	"FALSE"	"Windows 10"	"60.54"	"126"	n/a	n/a	n/a	n/a	n/a	n/a	"Trial"	n/a	n/a	n/a	"343"	"arrowright"	n/a	"NULL"	"NULL"	"NULL"	"stimuli/VerticalHorizontal_3300000_-0.9000.png"	n/a	"VerticalHorizontal"	"arrowright"	"1947"	"TRUE"	"VerticalHorizontal"	"330000000000"	"-0.900000000"	"1"	"13"
n/a	"html-keyboard-response"	"39"	"126419"	"0.0-4.0-3.0-2.0-0.1"	"jdb9sw"	"600"	"1366"	"chrome"	"108.0.0"	"FALSE"	"Windows 10"	"60.54"	"126"	n/a	n/a	n/a	n/a	n/a	n/a	"fixation"	n/a	n/a	n/a	n/a	"NULL"	n/a	"NULL"	"NULL"	"NULL"	"<p style=\"color: black; font-size: 80px; padding-left: 35%; padding-right: 9%; padding-top: 43%; padding-bottom: 12%\">+</p>"	"1197"	n/a	n/a	n/a	n/a	n/a	n/a	n/a	n/a	n/a
n/a	"image-keyboard-response"	"40"	"126740"	"0.0-4.0-3.0-2.0-1.1"	"jdb9sw"	"600"	"1366"	"chrome"	"108.0.0"	"FALSE"	"Windows 10"	"60.54"	"126"	n/a	n/a	n/a	n/a	n/a	n/a	"Trial"	n/a	n/a	n/a	"319"	"arrowright"	n/a	"NULL"	"NULL"	"NULL"	"stimuli/VerticalHorizontal_-330000_-0.9000.png"	n/a	"VerticalHorizontal"	"arrowright"	"1219"	"TRUE"	"VerticalHorizontal"	"-33000000000"	"-0.900000000"	"1"	"14"
n/a	"html-keyboard-response"	"41"	"127953"	"0.0-4.0-3.0-2.0-0.2"	"jdb9sw"	"600"	"1366"	"chrome"	"108.0.0"	"FALSE"	"Windows 10"	"60.54"	"126"	n/a	n/a	n/a	n/a	n/a	n/a	"fixation"	n/a	n/a	n/a	n/a	"NULL"	n/a	"NULL"	"NULL"	"NULL"	"<p style=\"color: black; font-size: 80px; padding-left: 0%; padding-right: 8%; padding-top: 34%; padding-bottom: 33%\">+</p>"	"1204"	n/a	n/a	n/a	n/a	n/a	n/a	n/a	n/a	n/a
n/a	"image-keyboard-response"	"42"	"128278"	"0.0-4.0-3.0-2.0-1.2"	"jdb9sw"	"600"	"1366"	"chrome"	"108.0.0"	"FALSE"	"Windows 10"	"60.54"	"126"	n/a	n/a	n/a	n/a	n/a	n/a	"Trial"	n/a	n/a	n/a	"324"	"arrowleft"	n/a	"NULL"	"NULL"	"NULL"	"stimuli/VerticalHorizontal_-330000_0.90000.png"	n/a	"VerticalHorizontal"	"arrowleft"	"1213"	"TRUE"	"VerticalHorizontal"	"-33000000000"	"0.9000000000"	"1"	"15"
n/a	"html-keyboard-response"	"43"	"129560"	"0.0-4.0-3.0-2.0-0.3"	"jdb9sw"	"600"	"1366"	"chrome"	"108.0.0"	"FALSE"	"Windows 10"	"60.54"	"126"	n/a	n/a	n/a	n/a	n/a	n/a	"fixation"	n/a	n/a	n/a	n/a	"NULL"	n/a	"NULL"	"NULL"	"NULL"	"<p style=\"color: black; font-size: 80px; padding-left: 4%; padding-right: 36%; padding-top: 6%; padding-bottom: 10%\">+</p>"	"1267"	n/a	n/a	n/a	n/a	n/a	n/a	n/a	n/a	n/a
n/a	"image-keyboard-response"	"44"	"129918"	"0.0-4.0-3.0-2.0-1.3"	"jdb9sw"	"600"	"1366"	"chrome"	"108.0.0"	"FALSE"	"Windows 10"	"60.54"	"126"	n/a	n/a	n/a	n/a	n/a	n/a	"Trial"	n/a	n/a	n/a	"357"	"arrowleft"	n/a	"NULL"	"NULL"	"NULL"	"stimuli/VerticalHorizontal_3300000_0.90000.png"	n/a	"VerticalHorizontal"	"arrowleft"	"1282"	"TRUE"	"VerticalHorizontal"	"330000000000"	"0.9000000000"	"1"	"16"
n/a	"html-keyboard-response"	"45"	"131233"	"0.0-4.0-3.0-2.0-0.4"	"jdb9sw"	"600"	"1366"	"chrome"	"108.0.0"	"FALSE"	"Windows 10"	"60.54"	"126"	n/a	n/a	n/a	n/a	n/a	n/a	"fixation"	n/a	n/a	n/a	n/a	"NULL"	n/a	"NULL"	"NULL"	"NULL"	"<p style=\"color: black; font-size: 80px; padding-left: 38%; padding-right: 14%; padding-top: 10%; padding-bottom: 37%\">+</p>"	"1302"	n/a	n/a	n/a	n/a	n/a	n/a	n/a	n/a	n/a
n/a	"image-keyboard-response"	"46"	"131642"	"0.0-4.0-3.0-2.0-1.4"	"jdb9sw"	"600"	"1366"	"chrome"	"108.0.0"	"FALSE"	"Windows 10"	"60.54"	"126"	n/a	n/a	n/a	n/a	n/a	n/a	"Trial"	n/a	n/a	n/a	"407"	"arrowleft"	n/a	"NULL"	"NULL"	"NULL"	"stimuli/VerticalHorizontal_0000000_0.90000.png"	n/a	"VerticalHorizontal"	"arrowleft"	"1315"	"TRUE"	"VerticalHorizontal"	"000000000000"	"0.9000000000"	"1"	"17"
n/a	"html-keyboard-response"	"47"	"132664"	"0.0-4.0-3.0-2.0-0.5"	"jdb9sw"	"600"	"1366"	"chrome"	"108.0.0"	"FALSE"	"Windows 10"	"60.54"	"126"	n/a	n/a	n/a	n/a	n/a	n/a	"fixation"	n/a	n/a	n/a	n/a	"NULL"	n/a	"NULL"	"NULL"	"NULL"	"<p style=\"color: black; font-size: 80px; padding-left: 25%; padding-right: 31%; padding-top: 43%; padding-bottom: 46%\">+</p>"	"1006"	n/a	n/a	n/a	n/a	n/a	n/a	n/a	n/a	n/a
n/a	"image-keyboard-response"	"48"	"132995"	"0.0-4.0-3.0-2.0-1.5"	"jdb9sw"	"600"	"1366"	"chrome"	"108.0.0"	"FALSE"	"Windows 10"	"60.54"	"126"	n/a	n/a	n/a	n/a	n/a	n/a	"Trial"	n/a	n/a	n/a	"329"	"arrowright"	n/a	"NULL"	"NULL"	"NULL"	"stimuli/VerticalHorizontal_0000000_-0.9000.png"	n/a	"VerticalHorizontal"	"arrowright"	"1022"	"TRUE"	"VerticalHorizontal"	"000000000000"	"-0.900000000"	"1"	"18"
n/a	"html-button-response"	"49"	"136848"	"0.0-4.0-3.0-3.0"	"jdb9sw"	"600"	"1366"	"chrome"	"108.0.0"	"FALSE"	"Windows 10"	"60.54"	"126"	n/a	n/a	n/a	n/a	n/a	n/a	"practice_block_results"	n/a	n/a	n/a	"3851"	"0"	n/a	"NULL"	"NULL"	"NULL"	"<p style='color:rgb(76,175,80);'> Correct Responses: <b>100.00%</b></p><hr><p style='color:rgb(233,30,99);'> Average Response Time: <b>346.50</b> ms.</p>"	n/a	n/a	n/a	n/a	n/a	n/a	n/a	n/a	n/a	n/a
n/a	"html-button-response"	"50"	"210544"	"0.0-4.0-4.0"	"jdb9sw"	"600"	"1366"	"chrome"	"108.0.0"	"FALSE"	"Windows 10"	"60.54"	"126"	n/a	n/a	n/a	n/a	n/a	n/a	"practice_debrief"	n/a	n/a	n/a	"73193"	"0"	n/a	"NULL"	"NULL"	"NULL"	"<p><b>TRAINING COMPLETED</b></p><p>In the next phase, there will be more trials, and some might be harder too.<br> Moreover, after each illusion block, a <b>score</b> will be calculated based on speed (time you took to answer) and accuracy (number of errors).</p><p>Try to keep up a high score!</p><br><p>Note that it can be <i>really</i> challenging at times, so you will need to rely on your <b>intuition</b> and gut feeling to answer as fast as you can without making errors.</p><p>Each illusion block will be repeated two times (so that you have the opportunity to improve your score), but the order of the blocks is random.</p><p>Remember, your goal is to be as <b>fast</b> and <b>accurate</b> as possible. Good luck!</p><br>"	n/a	n/a	n/a	n/a	n/a	n/a	n/a	n/a	n/a	n/a
"TRUE"	"preload"	"51"	"210721"	"0.0-5.0-0.0"	"jdb9sw"	"600"	"1366"	"chrome"	"108.0.0"	"FALSE"	"Windows 10"	"60.54"	"126"	n/a	n/a	n/a	n/a	n/a	n/a	n/a	n/a	n/a	n/a	n/a	"NULL"	"FALSE"	"list()"	"list()"	"list()"	n/a	n/a	n/a	n/a	n/a	n/a	n/a	n/a	n/a	n/a	n/a
n/a	"html-keyboard-response"	"52"	"215072"	"0.0-5.0-1.0"	"jdb9sw"	"600"	"1366"	"chrome"	"108.0.0"	"FALSE"	"Windows 10"	"60.54"	"126"	n/a	n/a	n/a	n/a	n/a	n/a	n/a	n/a	n/a	n/a	"4350"	"enter"	n/a	"NULL"	"NULL"	"NULL"	"<p><b>Part 1/6</b></p><p>In this part, two horizontal red lines will appear one above the other.</p><p>Your task is to select which <b>line is longer</b> in length as fast as you can, without making errors.</p><p>Don't get distracted by the surrounding black arrows at the end of the red lines!</p><p>Press <b>the UP or the DOWN arrow</b> to indicate where is the longer <b>red line.</b></p><div style='float: center'><img src='materials/instructions/MullerLyer_Demo.png' height='300'></img><p><img src='utils/answer/answer_updown_keyboard.PNG' height='150'></img></p><p class='small'>In this example, the correct answer is the <b>UP arrow</b>.</p></div><p>Are you ready? <b>Press ENTER to start</b></p>"	n/a	n/a	n/a	n/a	n/a	n/a	n/a	n/a	n/a	n/a
n/a	"html-keyboard-response"	"53"	"216884"	"0.0-5.0-2.0-0.0"	"jdb9sw"	"600"	"1366"	"chrome"	"108.0.0"	"FALSE"	"Windows 10"	"60.54"	"126"	n/a	n/a	n/a	n/a	n/a	n/a	"fixation"	n/a	n/a	n/a	n/a	"NULL"	n/a	"NULL"	"NULL"	"NULL"	"<p style=\"color: black; font-size: 80px; padding-left: 14%; padding-right: 30%; padding-top: 6%; padding-bottom: 20%\">+</p>"	"1292"	n/a	n/a	n/a	n/a	n/a	n/a	n/a	n/a	n/a
n/a	"image-keyboard-response"	"54"	"217310"	"0.0-5.0-2.0-1.0"	"jdb9sw"	"600"	"1366"	"chrome"	"108.0.0"	"FALSE"	"Windows 10"	"60.54"	"126"	n/a	n/a	n/a	n/a	n/a	n/a	"Trial"	n/a	n/a	n/a	"423"	"arrowdown"	n/a	"NULL"	"NULL"	"NULL"	"stimuli/MullerLyer_-20.04286_-0.23665.png"	n/a	"MullerLyer"	"arrowdown"	"1812"	"TRUE"	"MullerLyer"	"-20.04286000"	"-0.236650000"	"1"	"19"
n/a	"html-keyboard-response"	"55"	"218478"	"0.0-5.0-2.0-0.1"	"jdb9sw"	"600"	"1366"	"chrome"	"108.0.0"	"FALSE"	"Windows 10"	"60.54"	"126"	n/a	n/a	n/a	n/a	n/a	n/a	"fixation"	n/a	n/a	n/a	n/a	"NULL"	n/a	"NULL"	"NULL"	"NULL"	"<p style=\"color: black; font-size: 80px; padding-left: 7%; padding-right: 10%; padding-top: 23%; padding-bottom: 5%\">+</p>"	"1155"	n/a	n/a	n/a	n/a	n/a	n/a	n/a	n/a	n/a
n/a	"image-keyboard-response"	"56"	"219271"	"0.0-5.0-2.0-1.1"	"jdb9sw"	"600"	"1366"	"chrome"	"108.0.0"	"FALSE"	"Windows 10"	"60.54"	"126"	n/a	n/a	n/a	n/a	n/a	n/a	"Trial"	n/a	n/a	n/a	"793"	"arrowdown"	n/a	"NULL"	"NULL"	"NULL"	"stimuli/MullerLyer_14.12857_0.23665.png"	n/a	"MullerLyer"	"arrowup"	"1168"	"FALSE"	"MullerLyer"	"14.128570000"	"0.2366500000"	"1"	"20"
n/a	"html-keyboard-response"	"57"	"220450"	"0.0-5.0-2.0-0.2"	"jdb9sw"	"600"	"1366"	"chrome"	"108.0.0"	"FALSE"	"Windows 10"	"60.54"	"126"	n/a	n/a	n/a	n/a	n/a	n/a	"fixation"	n/a	n/a	n/a	n/a	"NULL"	n/a	"NULL"	"NULL"	"NULL"	"<p style=\"color: black; font-size: 80px; padding-left: 19%; padding-right: 45%; padding-top: 22%; padding-bottom: 46%\">+</p>"	"1164"	n/a	n/a	n/a	n/a	n/a	n/a	n/a	n/a	n/a
n/a	"image-keyboard-response"	"58"	"220870"	"0.0-5.0-2.0-1.2"	"jdb9sw"	"600"	"1366"	"chrome"	"108.0.0"	"FALSE"	"Windows 10"	"60.54"	"126"	n/a	n/a	n/a	n/a	n/a	n/a	"Trial"	n/a	n/a	n/a	"420"	"arrowdown"	n/a	"NULL"	"NULL"	"NULL"	"stimuli/MullerLyer_8.21429_-0.07627.png"	n/a	"MullerLyer"	"arrowdown"	"1179"	"TRUE"	"MullerLyer"	"8.2142900000"	"-0.076270000"	"1"	"21"
n/a	"html-keyboard-response"	"59"	"221922"	"0.0-5.0-2.0-0.3"	"jdb9sw"	"600"	"1366"	"chrome"	"108.0.0"	"FALSE"	"Windows 10"	"60.54"	"126"	n/a	n/a	n/a	n/a	n/a	n/a	"fixation"	n/a	n/a	n/a	n/a	"NULL"	n/a	"NULL"	"NULL"	"NULL"	"<p style=\"color: black; font-size: 80px; padding-left: 28%; padding-right: 44%; padding-top: 11%; padding-bottom: 48%\">+</p>"	"1046"	n/a	n/a	n/a	n/a	n/a	n/a	n/a	n/a	n/a
n/a	"image-keyboard-response"	"60"	"222323"	"0.0-5.0-2.0-1.3"	"jdb9sw"	"600"	"1366"	"chrome"	"108.0.0"	"FALSE"	"Windows 10"	"60.54"	"126"	n/a	n/a	n/a	n/a	n/a	n/a	"Trial"	n/a	n/a	n/a	"400"	"arrowup"	n/a	"NULL"	"NULL"	"NULL"	"stimuli/MullerLyer_-20.04286_0.35000.png"	n/a	"MullerLyer"	"arrowup"	"1052"	"TRUE"	"MullerLyer"	"-20.04286000"	"0.3500000000"	"1"	"22"
n/a	"html-keyboard-response"	"61"	"223411"	"0.0-5.0-2.0-0.4"	"jdb9sw"	"600"	"1366"	"chrome"	"108.0.0"	"FALSE"	"Windows 10"	"60.54"	"126"	n/a	n/a	n/a	n/a	n/a	n/a	"fixation"	n/a	n/a	n/a	n/a	"NULL"	n/a	"NULL"	"NULL"	"NULL"	"<p style=\"color: black; font-size: 80px; padding-left: 1%; padding-right: 2%; padding-top: 7%; padding-bottom: 20%\">+</p>"	"1080"	n/a	n/a	n/a	n/a	n/a	n/a	n/a	n/a	n/a
n/a	"image-keyboard-response"	"62"	"223862"	"0.0-5.0-2.0-1.4"	"jdb9sw"	"600"	"1366"	"chrome"	"108.0.0"	"FALSE"	"Windows 10"	"60.54"	"126"	n/a	n/a	n/a	n/a	n/a	n/a	"Trial"	n/a	n/a	n/a	"450"	"arrowdown"	n/a	"NULL"	"NULL"	"NULL"	"stimuli/MullerLyer_14.12857_0.14541.png"	n/a	"MullerLyer"	"arrowup"	"1088"	"FALSE"	"MullerLyer"	"14.128570000"	"0.1454100000"	"1"	"23"
n/a	"html-keyboard-response"	"63"	"225095"	"0.0-5.0-2.0-0.5"	"jdb9sw"	"600"	"1366"	"chrome"	"108.0.0"	"FALSE"	"Windows 10"	"60.54"	"126"	n/a	n/a	n/a	n/a	n/a	n/a	"fixation"	n/a	n/a	n/a	n/a	"NULL"	n/a	"NULL"	"NULL"	"NULL"	"<p style=\"color: black; font-size: 80px; padding-left: 45%; padding-right: 2%; padding-top: 20%; padding-bottom: 43%\">+</p>"	"1229"	n/a	n/a	n/a	n/a	n/a	n/a	n/a	n/a	n/a
n/a	"image-keyboard-response"	"64"	"225487"	"0.0-5.0-2.0-1.5"	"jdb9sw"	"600"	"1366"	"chrome"	"108.0.0"	"FALSE"	"Windows 10"	"60.54"	"126"	n/a	n/a	n/a	n/a	n/a	n/a	"Trial"	n/a	n/a	n/a	"391"	"arrowup"	n/a	"NULL"	"NULL"	"NULL"	"stimuli/MullerLyer_-20.04286_0.14541.png"	n/a	"MullerLyer"	"arrowup"	"1233"	"TRUE"	"MullerLyer"	"-20.04286000"	"0.1454100000"	"1"	"24"
n/a	"html-keyboard-response"	"65"	"226934"	"0.0-5.0-2.0-0.6"	"jdb9sw"	"600"	"1366"	"chrome"	"108.0.0"	"FALSE"	"Windows 10"	"60.54"	"126"	n/a	n/a	n/a	n/a	n/a	n/a	"fixation"	n/a	n/a	n/a	n/a	"NULL"	n/a	"NULL"	"NULL"	"NULL"	"<p style=\"color: black; font-size: 80px; padding-left: 5%; padding-right: 4%; padding-top: 30%; padding-bottom: 21%\">+</p>"	"1443"	n/a	n/a	n/a	n/a	n/a	n/a	n/a	n/a	n/a
n/a	"image-keyboard-response"	"66"	"227363"	"0.0-5.0-2.0-1.6"	"jdb9sw"	"600"	"1366"	"chrome"	"108.0.0"	"FALSE"	"Windows 10"	"60.54"	"126"	n/a	n/a	n/a	n/a	n/a	n/a	"Trial"	n/a	n/a	n/a	"428"	"arrowdown"	n/a	"NULL"	"NULL"	"NULL"	"stimuli/MullerLyer_-8.21429_-0.14541.png"	n/a	"MullerLyer"	"arrowdown"	"1447"	"TRUE"	"MullerLyer"	"-8.214290000"	"-0.145410000"	"1"	"25"
n/a	"html-keyboard-response"	"67"	"228585"	"0.0-5.0-2.0-0.7"	"jdb9sw"	"600"	"1366"	"chrome"	"108.0.0"	"FALSE"	"Windows 10"	"60.54"	"126"	n/a	n/a	n/a	n/a	n/a	n/a	"fixation"	n/a	n/a	n/a	n/a	"NULL"	n/a	"NULL"	"NULL"	"NULL"	"<p style=\"color: black; font-size: 80px; padding-left: 35%; padding-right: 40%; padding-top: 13%; padding-bottom: 35%\">+</p>"	"1207"	n/a	n/a	n/a	n/a	n/a	n/a	n/a	n/a	n/a
n/a	"image-keyboard-response"	"68"	"229103"	"0.0-5.0-2.0-1.7"	"jdb9sw"	"600"	"1366"	"chrome"	"108.0.0"	"FALSE"	"Windows 10"	"60.54"	"126"	n/a	n/a	n/a	n/a	n/a	n/a	"Trial"	n/a	n/a	n/a	"516"	"arrowup"	n/a	"NULL"	"NULL"	"NULL"	"stimuli/MullerLyer_20.04286_-0.23665.png"	n/a	"MullerLyer"	"arrowdown"	"1222"	"FALSE"	"MullerLyer"	"20.042860000"	"-0.236650000"	"1"	"26"
n/a	"html-keyboard-response"	"69"	"230421"	"0.0-5.0-2.0-0.8"	"jdb9sw"	"600"	"1366"	"chrome"	"108.0.0"	"FALSE"	"Windows 10"	"60.54"	"126"	n/a	n/a	n/a	n/a	n/a	n/a	"fixation"	n/a	n/a	n/a	n/a	"NULL"	n/a	"NULL"	"NULL"	"NULL"	"<p style=\"color: black; font-size: 80px; padding-left: 9%; padding-right: 7%; padding-top: 42%; padding-bottom: 49%\">+</p>"	"1296"	n/a	n/a	n/a	n/a	n/a	n/a	n/a	n/a	n/a
n/a	"image-keyboard-response"	"70"	"231238"	"0.0-5.0-2.0-1.8"	"jdb9sw"	"600"	"1366"	"chrome"	"108.0.0"	"FALSE"	"Windows 10"	"60.54"	"126"	n/a	n/a	n/a	n/a	n/a	n/a	"Trial"	n/a	n/a	n/a	"815"	"arrowup"	n/a	"NULL"	"NULL"	"NULL"	"stimuli/MullerLyer_8.21429_0.14541.png"	n/a	"MullerLyer"	"arrowup"	"1318"	"TRUE"	"MullerLyer"	"8.2142900000"	"0.1454100000"	"1"	"27"
n/a	"html-keyboard-response"	"71"	"232371"	"0.0-5.0-2.0-0.9"	"jdb9sw"	"600"	"1366"	"chrome"	"108.0.0"	"FALSE"	"Windows 10"	"60.54"	"126"	n/a	n/a	n/a	n/a	n/a	n/a	"fixation"	n/a	n/a	n/a	n/a	"NULL"	n/a	"NULL"	"NULL"	"NULL"	"<p style=\"color: black; font-size: 80px; padding-left: 25%; padding-right: 27%; padding-top: 19%; padding-bottom: 45%\">+</p>"	"1127"	n/a	n/a	n/a	n/a	n/a	n/a	n/a	n/a	n/a
n/a	"image-keyboard-response"	"72"	"232804"	"0.0-5.0-2.0-1.9"	"jdb9sw"	"600"	"1366"	"chrome"	"108.0.0"	"FALSE"	"Windows 10"	"60.54"	"126"	n/a	n/a	n/a	n/a	n/a	n/a	"Trial"	n/a	n/a	n/a	"432"	"arrowup"	n/a	"NULL"	"NULL"	"NULL"	"stimuli/MullerLyer_-2.3000_0.23665.png"	n/a	"MullerLyer"	"arrowup"	"1133"	"TRUE"	"MullerLyer"	"-2.300000000"	"0.2366500000"	"1"	"28"
n/a	"html-keyboard-response"	"73"	"234311"	"0.0-5.0-2.0-0.10"	"jdb9sw"	"600"	"1366"	"chrome"	"108.0.0"	"FALSE"	"Windows 10"	"60.54"	"126"	n/a	n/a	n/a	n/a	n/a	n/a	"fixation"	n/a	n/a	n/a	n/a	"NULL"	n/a	"NULL"	"NULL"	"NULL"	"<p style=\"color: black; font-size: 80px; padding-left: 32%; padding-right: 48%; padding-top: 18%; padding-bottom: 42%\">+</p>"	"1492"	n/a	n/a	n/a	n/a	n/a	n/a	n/a	n/a	n/a
n/a	"image-keyboard-response"	"74"	"234726"	"0.0-5.0-2.0-1.10"	"jdb9sw"	"600"	"1366"	"chrome"	"108.0.0"	"FALSE"	"Windows 10"	"60.54"	"126"	n/a	n/a	n/a	n/a	n/a	n/a	"Trial"	n/a	n/a	n/a	"413"	"arrowdown"	n/a	"NULL"	"NULL"	"NULL"	"stimuli/MullerLyer_-14.12857_-0.14541.png"	n/a	"MullerLyer"	"arrowdown"	"1507"	"TRUE"	"MullerLyer"	"-14.12857000"	"-0.145410000"	"1"	"29"
n/a	"html-keyboard-response"	"75"	"235983"	"0.0-5.0-2.0-0.11"	"jdb9sw"	"600"	"1366"	"chrome"	"108.0.0"	"FALSE"	"Windows 10"	"60.54"	"126"	n/a	n/a	n/a	n/a	n/a	n/a	"fixation"	n/a	n/a	n/a	n/a	"NULL"	n/a	"NULL"	"NULL"	"NULL"	"<p style=\"color: black; font-size: 80px; padding-left: 42%; padding-right: 17%; padding-top: 11%; padding-bottom: 36%\">+</p>"	"1252"	n/a	n/a	n/a	n/a	n/a	n/a	n/a	n/a	n/a
n/a	"image-keyboard-response"	"76"	"236386"	"0.0-5.0-2.0-1.11"	"jdb9sw"	"600"	"1366"	"chrome"	"108.0.0"	"FALSE"	"Windows 10"	"60.54"	"126"	n/a	n/a	n/a	n/a	n/a	n/a	"Trial"	n/a	n/a	n/a	"402"	"arrowup"	n/a	"NULL"	"NULL"	"NULL"	"stimuli/MullerLyer_-20.04286_0.23665.png"	n/a	"MullerLyer"	"arrowup"	"1257"	"TRUE"	"MullerLyer"	"-20.04286000"	"0.2366500000"	"1"	"30"
n/a	"html-keyboard-response"	"77"	"237761"	"0.0-5.0-2.0-0.12"	"jdb9sw"	"600"	"1366"	"chrome"	"108.0.0"	"FALSE"	"Windows 10"	"60.54"	"126"	n/a	n/a	n/a	n/a	n/a	n/a	"fixation"	n/a	n/a	n/a	n/a	"NULL"	n/a	"NULL"	"NULL"	"NULL"	"<p style=\"color: black; font-size: 80px; padding-left: 48%; padding-right: 13%; padding-top: 9%; padding-bottom: 48%\">+</p>"	"1368"	n/a	n/a	n/a	n/a	n/a	n/a	n/a	n/a	n/a
n/a	"image-keyboard-response"	"78"	"238155"	"0.0-5.0-2.0-1.12"	"jdb9sw"	"600"	"1366"	"chrome"	"108.0.0"	"FALSE"	"Windows 10"	"60.54"	"126"	n/a	n/a	n/a	n/a	n/a	n/a	"Trial"	n/a	n/a	n/a	"394"	"arrowdown"	n/a	"NULL"	"NULL"	"NULL"	"stimuli/MullerLyer_20.04286_-0.3500.png"	n/a	"MullerLyer"	"arrowdown"	"1375"	"TRUE"	"MullerLyer"	"20.042860000"	"-0.350000000"	"1"	"31"
n/a	"html-keyboard-response"	"79"	"239279"	"0.0-5.0-2.0-0.13"	"jdb9sw"	"600"	"1366"	"chrome"	"108.0.0"	"FALSE"	"Windows 10"	"60.54"	"126"	n/a	n/a	n/a	n/a	n/a	n/a	"fixation"	n/a	n/a	n/a	n/a	"NULL"	n/a	"NULL"	"NULL"	"NULL"	"<p style=\"color: black; font-size: 80px; padding-left: 11%; padding-right: 41%; padding-top: 3%; padding-bottom: 12%\">+</p>"	"1112"	n/a	n/a	n/a	n/a	n/a	n/a	n/a	n/a	n/a
n/a	"image-keyboard-response"	"80"	"239675"	"0.0-5.0-2.0-1.13"	"jdb9sw"	"600"	"1366"	"chrome"	"108.0.0"	"FALSE"	"Windows 10"	"60.54"	"126"	n/a	n/a	n/a	n/a	n/a	n/a	"Trial"	n/a	n/a	n/a	"396"	"arrowdown"	n/a	"NULL"	"NULL"	"NULL"	"stimuli/MullerLyer_8.21429_-0.23665.png"	n/a	"MullerLyer"	"arrowdown"	"1124"	"TRUE"	"MullerLyer"	"8.2142900000"	"-0.236650000"	"1"	"32"
n/a	"html-keyboard-response"	"81"	"240686"	"0.0-5.0-2.0-0.14"	"jdb9sw"	"600"	"1366"	"chrome"	"108.0.0"	"FALSE"	"Windows 10"	"60.54"	"126"	n/a	n/a	n/a	n/a	n/a	n/a	"fixation"	n/a	n/a	n/a	n/a	"NULL"	n/a	"NULL"	"NULL"	"NULL"	"<p style=\"color: black; font-size: 80px; padding-left: 17%; padding-right: 6%; padding-top: 0%; padding-bottom: 26%\">+</p>"	"1003"	n/a	n/a	n/a	n/a	n/a	n/a	n/a	n/a	n/a
n/a	"image-keyboard-response"	"82"	"241111"	"0.0-5.0-2.0-1.14"	"jdb9sw"	"600"	"1366"	"chrome"	"108.0.0"	"FALSE"	"Windows 10"	"60.54"	"126"	n/a	n/a	n/a	n/a	n/a	n/a	"Trial"	n/a	n/a	n/a	"424"	"arrowup"	n/a	"NULL"	"NULL"	"NULL"	"stimuli/MullerLyer_-2.3000_0.35000.png"	n/a	"MullerLyer"	"arrowup"	"1011"	"TRUE"	"MullerLyer"	"-2.300000000"	"0.3500000000"	"1"	"33"
n/a	"html-keyboard-response"	"83"	"242165"	"0.0-5.0-2.0-0.15"	"jdb9sw"	"600"	"1366"	"chrome"	"108.0.0"	"FALSE"	"Windows 10"	"60.54"	"126"	n/a	n/a	n/a	n/a	n/a	n/a	"fixation"	n/a	n/a	n/a	n/a	"NULL"	n/a	"NULL"	"NULL"	"NULL"	"<p style=\"color: black; font-size: 80px; padding-left: 4%; padding-right: 17%; padding-top: 33%; padding-bottom: 25%\">+</p>"	"1036"	n/a	n/a	n/a	n/a	n/a	n/a	n/a	n/a	n/a
n/a	"image-keyboard-response"	"84"	"242627"	"0.0-5.0-2.0-1.15"	"jdb9sw"	"600"	"1366"	"chrome"	"108.0.0"	"FALSE"	"Windows 10"	"60.54"	"126"	n/a	n/a	n/a	n/a	n/a	n/a	"Trial"	n/a	n/a	n/a	"454"	"arrowdown"	n/a	"NULL"	"NULL"	"NULL"	"stimuli/MullerLyer_2.30000_-0.14541.png"	n/a	"MullerLyer"	"arrowdown"	"1054"	"TRUE"	"MullerLyer"	"2.3000000000"	"-0.145410000"	"1"	"34"
n/a	"html-keyboard-response"	"85"	"243950"	"0.0-5.0-2.0-0.16"	"jdb9sw"	"600"	"1366"	"chrome"	"108.0.0"	"FALSE"	"Windows 10"	"60.54"	"126"	n/a	n/a	n/a	n/a	n/a	n/a	"fixation"	n/a	n/a	n/a	n/a	"NULL"	n/a	"NULL"	"NULL"	"NULL"	"<p style=\"color: black; font-size: 80px; padding-left: 10%; padding-right: 19%; padding-top: 40%; padding-bottom: 27%\">+</p>"	"1318"	n/a	n/a	n/a	n/a	n/a	n/a	n/a	n/a	n/a
n/a	"image-keyboard-response"	"86"	"244254"	"0.0-5.0-2.0-1.16"	"jdb9sw"	"600"	"1366"	"chrome"	"108.0.0"	"FALSE"	"Windows 10"	"60.54"	"126"	n/a	n/a	n/a	n/a	n/a	n/a	"Trial"	n/a	n/a	n/a	"303"	"arrowdown"	n/a	"NULL"	"NULL"	"NULL"	"stimuli/MullerLyer_-8.21429_-0.3500.png"	n/a	"MullerLyer"	"arrowdown"	"1323"	"TRUE"	"MullerLyer"	"-8.214290000"	"-0.350000000"	"1"	"35"
n/a	"html-keyboard-response"	"87"	"245453"	"0.0-5.0-2.0-0.17"	"jdb9sw"	"600"	"1366"	"chrome"	"108.0.0"	"FALSE"	"Windows 10"	"60.54"	"126"	n/a	n/a	n/a	n/a	n/a	n/a	"fixation"	n/a	n/a	n/a	n/a	"NULL"	n/a	"NULL"	"NULL"	"NULL"	"<p style=\"color: black; font-size: 80px; padding-left: 18%; padding-right: 19%; padding-top: 40%; padding-bottom: 40%\">+</p>"	"1185"	n/a	n/a	n/a	n/a	n/a	n/a	n/a	n/a	n/a
n/a	"image-keyboard-response"	"88"	"245807"	"0.0-5.0-2.0-1.17"	"jdb9sw"	"600"	"1366"	"chrome"	"108.0.0"	"FALSE"	"Windows 10"	"60.54"	"126"	n/a	n/a	n/a	n/a	n/a	n/a	"Trial"	n/a	n/a	n/a	"353"	"arrowdown"	n/a	"NULL"	"NULL"	"NULL"	"stimuli/MullerLyer_-2.3000_-0.3500.png"	n/a	"MullerLyer"	"arrowdown"	"1199"	"TRUE"	"MullerLyer"	"-2.300000000"	"-0.350000000"	"1"	"36"
n/a	"html-keyboard-response"	"89"	"247105"	"0.0-5.0-2.0-0.18"	"jdb9sw"	"600"	"1366"	"chrome"	"108.0.0"	"FALSE"	"Windows 10"	"60.54"	"126"	n/a	n/a	n/a	n/a	n/a	n/a	"fixation"	n/a	n/a	n/a	n/a	"NULL"	n/a	"NULL"	"NULL"	"NULL"	"<p style=\"color: black; font-size: 80px; padding-left: 40%; padding-right: 7%; padding-top: 11%; padding-bottom: 11%\">+</p>"	"1288"	n/a	n/a	n/a	n/a	n/a	n/a	n/a	n/a	n/a
n/a	"image-keyboard-response"	"90"	"247606"	"0.0-5.0-2.0-1.18"	"jdb9sw"	"600"	"1366"	"chrome"	"108.0.0"	"FALSE"	"Windows 10"	"60.54"	"126"	n/a	n/a	n/a	n/a	n/a	n/a	"Trial"	n/a	n/a	n/a	"500"	"arrowup"	n/a	"NULL"	"NULL"	"NULL"	"stimuli/MullerLyer_20.04286_0.35000.png"	n/a	"MullerLyer"	"arrowup"	"1298"	"TRUE"	"MullerLyer"	"20.042860000"	"0.3500000000"	"1"	"37"
n/a	"html-keyboard-response"	"91"	"248657"	"0.0-5.0-2.0-0.19"	"jdb9sw"	"600"	"1366"	"chrome"	"108.0.0"	"FALSE"	"Windows 10"	"60.54"	"126"	n/a	n/a	n/a	n/a	n/a	n/a	"fixation"	n/a	n/a	n/a	n/a	"NULL"	n/a	"NULL"	"NULL"	"NULL"	"<p style=\"color: black; font-size: 80px; padding-left: 23%; padding-right: 10%; padding-top: 17%; padding-bottom: 9%\">+</p>"	"1031"	n/a	n/a	n/a	n/a	n/a	n/a	n/a	n/a	n/a
n/a	"image-keyboard-response"	"92"	"249103"	"0.0-5.0-2.0-1.19"	"jdb9sw"	"600"	"1366"	"chrome"	"108.0.0"	"FALSE"	"Windows 10"	"60.54"	"126"	n/a	n/a	n/a	n/a	n/a	n/a	"Trial"	n/a	n/a	n/a	"445"	"arrowup"	n/a	"NULL"	"NULL"	"NULL"	"stimuli/MullerLyer_14.12857_-0.07627.png"	n/a	"MullerLyer"	"arrowdown"	"1051"	"FALSE"	"MullerLyer"	"14.128570000"	"-0.076270000"	"1"	"38"
n/a	"html-keyboard-response"	"93"	"250358"	"0.0-5.0-2.0-0.20"	"jdb9sw"	"600"	"1366"	"chrome"	"108.0.0"	"FALSE"	"Windows 10"	"60.54"	"126"	n/a	n/a	n/a	n/a	n/a	n/a	"fixation"	n/a	n/a	n/a	n/a	"NULL"	n/a	"NULL"	"NULL"	"NULL"	"<p style=\"color: black; font-size: 80px; padding-left: 30%; padding-right: 24%; padding-top: 21%; padding-bottom: 48%\">+</p>"	"1241"	n/a	n/a	n/a	n/a	n/a	n/a	n/a	n/a	n/a
n/a	"image-keyboard-response"	"94"	"250840"	"0.0-5.0-2.0-1.20"	"jdb9sw"	"600"	"1366"	"chrome"	"108.0.0"	"FALSE"	"Windows 10"	"60.54"	"126"	n/a	n/a	n/a	n/a	n/a	n/a	"Trial"	n/a	n/a	n/a	"481"	"arrowup"	n/a	"NULL"	"NULL"	"NULL"	"stimuli/MullerLyer_14.12857_0.35000.png"	n/a	"MullerLyer"	"arrowup"	"1255"	"TRUE"	"MullerLyer"	"14.128570000"	"0.3500000000"	"1"	"39"
n/a	"html-keyboard-response"	"95"	"251876"	"0.0-5.0-2.0-0.21"	"jdb9sw"	"600"	"1366"	"chrome"	"108.0.0"	"FALSE"	"Windows 10"	"60.54"	"126"	n/a	n/a	n/a	n/a	n/a	n/a	"fixation"	n/a	n/a	n/a	n/a	"NULL"	n/a	"NULL"	"NULL"	"NULL"	"<p style=\"color: black; font-size: 80px; padding-left: 14%; padding-right: 44%; padding-top: 23%; padding-bottom: 13%\">+</p>"	"1015"	n/a	n/a	n/a	n/a	n/a	n/a	n/a	n/a	n/a
n/a	"image-keyboard-response"	"96"	"252285"	"0.0-5.0-2.0-1.21"	"jdb9sw"	"600"	"1366"	"chrome"	"108.0.0"	"FALSE"	"Windows 10"	"60.54"	"126"	n/a	n/a	n/a	n/a	n/a	n/a	"Trial"	n/a	n/a	n/a	"408"	"arrowdown"	n/a	"NULL"	"NULL"	"NULL"	"stimuli/MullerLyer_-14.12857_-0.23665.png"	n/a	"MullerLyer"	"arrowdown"	"1036"	"TRUE"	"MullerLyer"	"-14.12857000"	"-0.236650000"	"1"	"40"
n/a	"html-keyboard-response"	"97"	"253490"	"0.0-5.0-2.0-0.22"	"jdb9sw"	"600"	"1366"	"chrome"	"108.0.0"	"FALSE"	"Windows 10"	"60.54"	"126"	n/a	n/a	n/a	n/a	n/a	n/a	"fixation"	n/a	n/a	n/a	n/a	"NULL"	n/a	"NULL"	"NULL"	"NULL"	"<p style=\"color: black; font-size: 80px; padding-left: 27%; padding-right: 38%; padding-top: 16%; padding-bottom: 45%\">+</p>"	"1200"	n/a	n/a	n/a	n/a	n/a	n/a	n/a	n/a	n/a
n/a	"image-keyboard-response"	"98"	"253944"	"0.0-5.0-2.0-1.22"	"jdb9sw"	"600"	"1366"	"chrome"	"108.0.0"	"FALSE"	"Windows 10"	"60.54"	"126"	n/a	n/a	n/a	n/a	n/a	n/a	"Trial"	n/a	n/a	n/a	"451"	"arrowup"	n/a	"NULL"	"NULL"	"NULL"	"stimuli/MullerLyer_2.30000_0.23665.png"	n/a	"MullerLyer"	"arrowup"	"1205"	"TRUE"	"MullerLyer"	"2.3000000000"	"0.2366500000"	"1"	"41"
n/a	"html-keyboard-response"	"99"	"254994"	"0.0-5.0-2.0-0.23"	"jdb9sw"	"600"	"1366"	"chrome"	"108.0.0"	"FALSE"	"Windows 10"	"60.54"	"126"	n/a	n/a	n/a	n/a	n/a	n/a	"fixation"	n/a	n/a	n/a	n/a	"NULL"	n/a	"NULL"	"NULL"	"NULL"	"<p style=\"color: black; font-size: 80px; padding-left: 15%; padding-right: 3%; padding-top: 19%; padding-bottom: 44%\">+</p>"	"1031"	n/a	n/a	n/a	n/a	n/a	n/a	n/a	n/a	n/a
n/a	"image-keyboard-response"	"100"	"255417"	"0.0-5.0-2.0-1.23"	"jdb9sw"	"600"	"1366"	"chrome"	"108.0.0"	"FALSE"	"Windows 10"	"60.54"	"126"	n/a	n/a	n/a	n/a	n/a	n/a	"Trial"	n/a	n/a	n/a	"422"	"arrowdown"	n/a	"NULL"	"NULL"	"NULL"	"stimuli/MullerLyer_14.12857_-0.3500.png"	n/a	"MullerLyer"	"arrowdown"	"1050"	"TRUE"	"MullerLyer"	"14.128570000"	"-0.350000000"	"1"	"42"
n/a	"html-keyboard-response"	"101"	"256915"	"0.0-5.0-2.0-0.24"	"jdb9sw"	"600"	"1366"	"chrome"	"108.0.0"	"FALSE"	"Windows 10"	"60.54"	"126"	n/a	n/a	n/a	n/a	n/a	n/a	"fixation"	n/a	n/a	n/a	n/a	"NULL"	n/a	"NULL"	"NULL"	"NULL"	"<p style=\"color: black; font-size: 80px; padding-left: 2%; padding-right: 37%; padding-top: 25%; padding-bottom: 49%\">+</p>"	"1478"	n/a	n/a	n/a	n/a	n/a	n/a	n/a	n/a	n/a
n/a	"image-keyboard-response"	"102"	"257310"	"0.0-5.0-2.0-1.24"	"jdb9sw"	"600"	"1366"	"chrome"	"108.0.0"	"FALSE"	"Windows 10"	"60.54"	"126"	n/a	n/a	n/a	n/a	n/a	n/a	"Trial"	n/a	n/a	n/a	"393"	"arrowup"	n/a	"NULL"	"NULL"	"NULL"	"stimuli/MullerLyer_-14.12857_0.07627.png"	n/a	"MullerLyer"	"arrowup"	"1498"	"TRUE"	"MullerLyer"	"-14.12857000"	"0.0762700000"	"1"	"43"
n/a	"html-keyboard-response"	"103"	"258507"	"0.0-5.0-2.0-0.25"	"jdb9sw"	"600"	"1366"	"chrome"	"108.0.0"	"FALSE"	"Windows 10"	"60.54"	"126"	n/a	n/a	n/a	n/a	n/a	n/a	"fixation"	n/a	n/a	n/a	n/a	"NULL"	n/a	"NULL"	"NULL"	"NULL"	"<p style=\"color: black; font-size: 80px; padding-left: 5%; padding-right: 23%; padding-top: 31%; padding-bottom: 40%\">+</p>"	"1181"	n/a	n/a	n/a	n/a	n/a	n/a	n/a	n/a	n/a
n/a	"image-keyboard-response"	"104"	"258878"	"0.0-5.0-2.0-1.25"	"jdb9sw"	"600"	"1366"	"chrome"	"108.0.0"	"FALSE"	"Windows 10"	"60.54"	"126"	n/a	n/a	n/a	n/a	n/a	n/a	"Trial"	n/a	n/a	n/a	"369"	"arrowdown"	n/a	"NULL"	"NULL"	"NULL"	"stimuli/MullerLyer_20.04286_0.23665.png"	n/a	"MullerLyer"	"arrowup"	"1197"	"FALSE"	"MullerLyer"	"20.042860000"	"0.2366500000"	"1"	"44"
n/a	"html-keyboard-response"	"105"	"260230"	"0.0-5.0-2.0-0.26"	"jdb9sw"	"600"	"1366"	"chrome"	"108.0.0"	"FALSE"	"Windows 10"	"60.54"	"126"	n/a	n/a	n/a	n/a	n/a	n/a	"fixation"	n/a	n/a	n/a	n/a	"NULL"	n/a	"NULL"	"NULL"	"NULL"	"<p style=\"color: black; font-size: 80px; padding-left: 0%; padding-right: 42%; padding-top: 5%; padding-bottom: 46%\">+</p>"	"1337"	n/a	n/a	n/a	n/a	n/a	n/a	n/a	n/a	n/a
n/a	"image-keyboard-response"	"106"	"260618"	"0.0-5.0-2.0-1.26"	"jdb9sw"	"600"	"1366"	"chrome"	"108.0.0"	"FALSE"	"Windows 10"	"60.54"	"126"	n/a	n/a	n/a	n/a	n/a	n/a	"Trial"	n/a	n/a	n/a	"387"	"arrowup"	n/a	"NULL"	"NULL"	"NULL"	"stimuli/MullerLyer_-20.04286_0.07627.png"	n/a	"MullerLyer"	"arrowup"	"1352"	"TRUE"	"MullerLyer"	"-20.04286000"	"0.0762700000"	"1"	"45"
n/a	"html-keyboard-response"	"107"	"261984"	"0.0-5.0-2.0-0.27"	"jdb9sw"	"600"	"1366"	"chrome"	"108.0.0"	"FALSE"	"Windows 10"	"60.54"	"126"	n/a	n/a	n/a	n/a	n/a	n/a	"fixation"	n/a	n/a	n/a	n/a	"NULL"	n/a	"NULL"	"NULL"	"NULL"	"<p style=\"color: black; font-size: 80px; padding-left: 15%; padding-right: 38%; padding-top: 30%; padding-bottom: 16%\">+</p>"	"1347"	n/a	n/a	n/a	n/a	n/a	n/a	n/a	n/a	n/a
n/a	"image-keyboard-response"	"108"	"262364"	"0.0-5.0-2.0-1.27"	"jdb9sw"	"600"	"1366"	"chrome"	"108.0.0"	"FALSE"	"Windows 10"	"60.54"	"126"	n/a	n/a	n/a	n/a	n/a	n/a	"Trial"	n/a	n/a	n/a	"380"	"arrowdown"	n/a	"NULL"	"NULL"	"NULL"	"stimuli/MullerLyer_-20.04286_-0.3500.png"	n/a	"MullerLyer"	"arrowdown"	"1366"	"TRUE"	"MullerLyer"	"-20.04286000"	"-0.350000000"	"1"	"46"
n/a	"html-keyboard-response"	"109"	"263405"	"0.0-5.0-2.0-0.28"	"jdb9sw"	"600"	"1366"	"chrome"	"108.0.0"	"FALSE"	"Windows 10"	"60.54"	"126"	n/a	n/a	n/a	n/a	n/a	n/a	"fixation"	n/a	n/a	n/a	n/a	"NULL"	n/a	"NULL"	"NULL"	"NULL"	"<p style=\"color: black; font-size: 80px; padding-left: 35%; padding-right: 9%; padding-top: 40%; padding-bottom: 37%\">+</p>"	"1032"	n/a	n/a	n/a	n/a	n/a	n/a	n/a	n/a	n/a
n/a	"image-keyboard-response"	"110"	"263810"	"0.0-5.0-2.0-1.28"	"jdb9sw"	"600"	"1366"	"chrome"	"108.0.0"	"FALSE"	"Windows 10"	"60.54"	"126"	n/a	n/a	n/a	n/a	n/a	n/a	"Trial"	n/a	n/a	n/a	"404"	"arrowdown"	n/a	"NULL"	"NULL"	"NULL"	"stimuli/MullerLyer_8.21429_0.07627.png"	n/a	"MullerLyer"	"arrowup"	"1041"	"FALSE"	"MullerLyer"	"8.2142900000"	"0.0762700000"	"1"	"47"
n/a	"html-keyboard-response"	"111"	"264858"	"0.0-5.0-2.0-0.29"	"jdb9sw"	"600"	"1366"	"chrome"	"108.0.0"	"FALSE"	"Windows 10"	"60.54"	"126"	n/a	n/a	n/a	n/a	n/a	n/a	"fixation"	n/a	n/a	n/a	n/a	"NULL"	n/a	"NULL"	"NULL"	"NULL"	"<p style=\"color: black; font-size: 80px; padding-left: 36%; padding-right: 41%; padding-top: 41%; padding-bottom: 20%\">+</p>"	"1042"	n/a	n/a	n/a	n/a	n/a	n/a	n/a	n/a	n/a
n/a	"image-keyboard-response"	"112"	"265287"	"0.0-5.0-2.0-1.29"	"jdb9sw"	"600"	"1366"	"chrome"	"108.0.0"	"FALSE"	"Windows 10"	"60.54"	"126"	n/a	n/a	n/a	n/a	n/a	n/a	"Trial"	n/a	n/a	n/a	"427"	"arrowdown"	n/a	"NULL"	"NULL"	"NULL"	"stimuli/MullerLyer_-2.3000_-0.07627.png"	n/a	"MullerLyer"	"arrowdown"	"1048"	"TRUE"	"MullerLyer"	"-2.300000000"	"-0.076270000"	"1"	"48"
n/a	"html-keyboard-response"	"113"	"266702"	"0.0-5.0-2.0-0.30"	"jdb9sw"	"600"	"1366"	"chrome"	"108.0.0"	"FALSE"	"Windows 10"	"60.54"	"126"	n/a	n/a	n/a	n/a	n/a	n/a	"fixation"	n/a	n/a	n/a	n/a	"NULL"	n/a	"NULL"	"NULL"	"NULL"	"<p style=\"color: black; font-size: 80px; padding-left: 9%; padding-right: 48%; padding-top: 39%; padding-bottom: 12%\">+</p>"	"1403"	n/a	n/a	n/a	n/a	n/a	n/a	n/a	n/a	n/a
n/a	"image-keyboard-response"	"114"	"267097"	"0.0-5.0-2.0-1.30"	"jdb9sw"	"600"	"1366"	"chrome"	"108.0.0"	"FALSE"	"Windows 10"	"60.54"	"126"	n/a	n/a	n/a	n/a	n/a	n/a	"Trial"	n/a	n/a	n/a	"393"	"arrowup"	n/a	"NULL"	"NULL"	"NULL"	"stimuli/MullerLyer_20.04286_-0.14541.png"	n/a	"MullerLyer"	"arrowdown"	"1415"	"FALSE"	"MullerLyer"	"20.042860000"	"-0.145410000"	"1"	"49"
n/a	"html-keyboard-response"	"115"	"268124"	"0.0-5.0-2.0-0.31"	"jdb9sw"	"600"	"1366"	"chrome"	"108.0.0"	"FALSE"	"Windows 10"	"60.54"	"126"	n/a	n/a	n/a	n/a	n/a	n/a	"fixation"	n/a	n/a	n/a	n/a	"NULL"	n/a	"NULL"	"NULL"	"NULL"	"<p style=\"color: black; font-size: 80px; padding-left: 15%; padding-right: 3%; padding-top: 7%; padding-bottom: 41%\">+</p>"	"1016"	n/a	n/a	n/a	n/a	n/a	n/a	n/a	n/a	n/a
n/a	"image-keyboard-response"	"116"	"268541"	"0.0-5.0-2.0-1.31"	"jdb9sw"	"600"	"1366"	"chrome"	"108.0.0"	"FALSE"	"Windows 10"	"60.54"	"126"	n/a	n/a	n/a	n/a	n/a	n/a	"Trial"	n/a	n/a	n/a	"416"	"arrowup"	n/a	"NULL"	"NULL"	"NULL"	"stimuli/MullerLyer_-8.21429_0.35000.png"	n/a	"MullerLyer"	"arrowup"	"1027"	"TRUE"	"MullerLyer"	"-8.214290000"	"0.3500000000"	"1"	"50"
n/a	"html-keyboard-response"	"117"	"269969"	"0.0-5.0-2.0-0.32"	"jdb9sw"	"600"	"1366"	"chrome"	"108.0.0"	"FALSE"	"Windows 10"	"60.54"	"126"	n/a	n/a	n/a	n/a	n/a	n/a	"fixation"	n/a	n/a	n/a	n/a	"NULL"	n/a	"NULL"	"NULL"	"NULL"	"<p style=\"color: black; font-size: 80px; padding-left: 23%; padding-right: 23%; padding-top: 40%; padding-bottom: 7%\">+</p>"	"1422"	n/a	n/a	n/a	n/a	n/a	n/a	n/a	n/a	n/a
n/a	"image-keyboard-response"	"118"	"270409"	"0.0-5.0-2.0-1.32"	"jdb9sw"	"600"	"1366"	"chrome"	"108.0.0"	"FALSE"	"Windows 10"	"60.54"	"126"	n/a	n/a	n/a	n/a	n/a	n/a	"Trial"	n/a	n/a	n/a	"439"	"arrowup"	n/a	"NULL"	"NULL"	"NULL"	"stimuli/MullerLyer_-14.12857_0.14541.png"	n/a	"MullerLyer"	"arrowup"	"1428"	"TRUE"	"MullerLyer"	"-14.12857000"	"0.1454100000"	"1"	"51"
n/a	"html-keyboard-response"	"119"	"271796"	"0.0-5.0-2.0-0.33"	"jdb9sw"	"600"	"1366"	"chrome"	"108.0.0"	"FALSE"	"Windows 10"	"60.54"	"126"	n/a	n/a	n/a	n/a	n/a	n/a	"fixation"	n/a	n/a	n/a	n/a	"NULL"	n/a	"NULL"	"NULL"	"NULL"	"<p style=\"color: black; font-size: 80px; padding-left: 10%; padding-right: 28%; padding-top: 20%; padding-bottom: 13%\">+</p>"	"1367"	n/a	n/a	n/a	n/a	n/a	n/a	n/a	n/a	n/a
n/a	"image-keyboard-response"	"120"	"272235"	"0.0-5.0-2.0-1.33"	"jdb9sw"	"600"	"1366"	"chrome"	"108.0.0"	"FALSE"	"Windows 10"	"60.54"	"126"	n/a	n/a	n/a	n/a	n/a	n/a	"Trial"	n/a	n/a	n/a	"438"	"arrowdown"	n/a	"NULL"	"NULL"	"NULL"	"stimuli/MullerLyer_-2.3000_-0.14541.png"	n/a	"MullerLyer"	"arrowdown"	"1387"	"TRUE"	"MullerLyer"	"-2.300000000"	"-0.145410000"	"1"	"52"
n/a	"html-keyboard-response"	"121"	"273324"	"0.0-5.0-2.0-0.34"	"jdb9sw"	"600"	"1366"	"chrome"	"108.0.0"	"FALSE"	"Windows 10"	"60.54"	"126"	n/a	n/a	n/a	n/a	n/a	n/a	"fixation"	n/a	n/a	n/a	n/a	"NULL"	n/a	"NULL"	"NULL"	"NULL"	"<p style=\"color: black; font-size: 80px; padding-left: 22%; padding-right: 11%; padding-top: 35%; padding-bottom: 16%\">+</p>"	"1080"	n/a	n/a	n/a	n/a	n/a	n/a	n/a	n/a	n/a
n/a	"image-keyboard-response"	"122"	"273852"	"0.0-5.0-2.0-1.34"	"jdb9sw"	"600"	"1366"	"chrome"	"108.0.0"	"FALSE"	"Windows 10"	"60.54"	"126"	n/a	n/a	n/a	n/a	n/a	n/a	"Trial"	n/a	n/a	n/a	"526"	"arrowup"	n/a	"NULL"	"NULL"	"NULL"	"stimuli/MullerLyer_8.21429_0.35000.png"	n/a	"MullerLyer"	"arrowup"	"1089"	"TRUE"	"MullerLyer"	"8.2142900000"	"0.3500000000"	"1"	"53"
n/a	"html-keyboard-response"	"123"	"275167"	"0.0-5.0-2.0-0.35"	"jdb9sw"	"600"	"1366"	"chrome"	"108.0.0"	"FALSE"	"Windows 10"	"60.54"	"126"	n/a	n/a	n/a	n/a	n/a	n/a	"fixation"	n/a	n/a	n/a	n/a	"NULL"	n/a	"NULL"	"NULL"	"NULL"	"<p style=\"color: black; font-size: 80px; padding-left: 37%; padding-right: 19%; padding-top: 42%; padding-bottom: 15%\">+</p>"	"1309"	n/a	n/a	n/a	n/a	n/a	n/a	n/a	n/a	n/a
n/a	"image-keyboard-response"	"124"	"275560"	"0.0-5.0-2.0-1.35"	"jdb9sw"	"600"	"1366"	"chrome"	"108.0.0"	"FALSE"	"Windows 10"	"60.54"	"126"	n/a	n/a	n/a	n/a	n/a	n/a	"Trial"	n/a	n/a	n/a	"392"	"arrowup"	n/a	"NULL"	"NULL"	"NULL"	"stimuli/MullerLyer_-8.21429_0.14541.png"	n/a	"MullerLyer"	"arrowup"	"1315"	"TRUE"	"MullerLyer"	"-8.214290000"	"0.1454100000"	"1"	"54"
n/a	"html-keyboard-response"	"125"	"276668"	"0.0-5.0-2.0-0.36"	"jdb9sw"	"600"	"1366"	"chrome"	"108.0.0"	"FALSE"	"Windows 10"	"60.54"	"126"	n/a	n/a	n/a	n/a	n/a	n/a	"fixation"	n/a	n/a	n/a	n/a	"NULL"	n/a	"NULL"	"NULL"	"NULL"	"<p style=\"color: black; font-size: 80px; padding-left: 29%; padding-right: 13%; padding-top: 49%; padding-bottom: 49%\">+</p>"	"1086"	n/a	n/a	n/a	n/a	n/a	n/a	n/a	n/a	n/a
n/a	"image-keyboard-response"	"126"	"277077"	"0.0-5.0-2.0-1.36"	"jdb9sw"	"600"	"1366"	"chrome"	"108.0.0"	"FALSE"	"Windows 10"	"60.54"	"126"	n/a	n/a	n/a	n/a	n/a	n/a	"Trial"	n/a	n/a	n/a	"408"	"arrowdown"	n/a	"NULL"	"NULL"	"NULL"	"stimuli/MullerLyer_-14.12857_-0.07627.png"	n/a	"MullerLyer"	"arrowdown"	"1108"	"TRUE"	"MullerLyer"	"-14.12857000"	"-0.076270000"	"1"	"55"
n/a	"html-keyboard-response"	"127"	"278221"	"0.0-5.0-2.0-0.37"	"jdb9sw"	"600"	"1366"	"chrome"	"108.0.0"	"FALSE"	"Windows 10"	"60.54"	"126"	n/a	n/a	n/a	n/a	n/a	n/a	"fixation"	n/a	n/a	n/a	n/a	"NULL"	n/a	"NULL"	"NULL"	"NULL"	"<p style=\"color: black; font-size: 80px; padding-left: 29%; padding-right: 47%; padding-top: 24%; padding-bottom: 25%\">+</p>"	"1137"	n/a	n/a	n/a	n/a	n/a	n/a	n/a	n/a	n/a
n/a	"image-keyboard-response"	"128"	"278625"	"0.0-5.0-2.0-1.37"	"jdb9sw"	"600"	"1366"	"chrome"	"108.0.0"	"FALSE"	"Windows 10"	"60.54"	"126"	n/a	n/a	n/a	n/a	n/a	n/a	"Trial"	n/a	n/a	n/a	"403"	"arrowdown"	n/a	"NULL"	"NULL"	"NULL"	"stimuli/MullerLyer_2.30000_-0.3500.png"	n/a	"MullerLyer"	"arrowdown"	"1144"	"TRUE"	"MullerLyer"	"2.3000000000"	"-0.350000000"	"1"	"56"
n/a	"html-keyboard-response"	"129"	"279677"	"0.0-5.0-2.0-0.38"	"jdb9sw"	"600"	"1366"	"chrome"	"108.0.0"	"FALSE"	"Windows 10"	"60.54"	"126"	n/a	n/a	n/a	n/a	n/a	n/a	"fixation"	n/a	n/a	n/a	n/a	"NULL"	n/a	"NULL"	"NULL"	"NULL"	"<p style=\"color: black; font-size: 80px; padding-left: 19%; padding-right: 8%; padding-top: 2%; padding-bottom: 47%\">+</p>"	"1040"	n/a	n/a	n/a	n/a	n/a	n/a	n/a	n/a	n/a
n/a	"image-keyboard-response"	"130"	"280058"	"0.0-5.0-2.0-1.38"	"jdb9sw"	"600"	"1366"	"chrome"	"108.0.0"	"FALSE"	"Windows 10"	"60.54"	"126"	n/a	n/a	n/a	n/a	n/a	n/a	"Trial"	n/a	n/a	n/a	"380"	"arrowup"	n/a	"NULL"	"NULL"	"NULL"	"stimuli/MullerLyer_-8.21429_0.07627.png"	n/a	"MullerLyer"	"arrowup"	"1052"	"TRUE"	"MullerLyer"	"-8.214290000"	"0.0762700000"	"1"	"57"
n/a	"html-keyboard-response"	"131"	"281391"	"0.0-5.0-2.0-0.39"	"jdb9sw"	"600"	"1366"	"chrome"	"108.0.0"	"FALSE"	"Windows 10"	"60.54"	"126"	n/a	n/a	n/a	n/a	n/a	n/a	"fixation"	n/a	n/a	n/a	n/a	"NULL"	n/a	"NULL"	"NULL"	"NULL"	"<p style=\"color: black; font-size: 80px; padding-left: 38%; padding-right: 10%; padding-top: 46%; padding-bottom: 4%\">+</p>"	"1328"	n/a	n/a	n/a	n/a	n/a	n/a	n/a	n/a	n/a
n/a	"image-keyboard-response"	"132"	"281733"	"0.0-5.0-2.0-1.39"	"jdb9sw"	"600"	"1366"	"chrome"	"108.0.0"	"FALSE"	"Windows 10"	"60.54"	"126"	n/a	n/a	n/a	n/a	n/a	n/a	"Trial"	n/a	n/a	n/a	"340"	"arrowup"	n/a	"NULL"	"NULL"	"NULL"	"stimuli/MullerLyer_2.30000_0.35000.png"	n/a	"MullerLyer"	"arrowup"	"1333"	"TRUE"	"MullerLyer"	"2.3000000000"	"0.3500000000"	"1"	"58"
n/a	"html-keyboard-response"	"133"	"283063"	"0.0-5.0-2.0-0.40"	"jdb9sw"	"600"	"1366"	"chrome"	"108.0.0"	"FALSE"	"Windows 10"	"60.54"	"126"	n/a	n/a	n/a	n/a	n/a	n/a	"fixation"	n/a	n/a	n/a	n/a	"NULL"	n/a	"NULL"	"NULL"	"NULL"	"<p style=\"color: black; font-size: 80px; padding-left: 40%; padding-right: 40%; padding-top: 34%; padding-bottom: 19%\">+</p>"	"1314"	n/a	n/a	n/a	n/a	n/a	n/a	n/a	n/a	n/a
n/a	"image-keyboard-response"	"134"	"283430"	"0.0-5.0-2.0-1.40"	"jdb9sw"	"600"	"1366"	"chrome"	"108.0.0"	"FALSE"	"Windows 10"	"60.54"	"126"	n/a	n/a	n/a	n/a	n/a	n/a	"Trial"	n/a	n/a	n/a	"366"	"arrowdown"	n/a	"NULL"	"NULL"	"NULL"	"stimuli/MullerLyer_-20.04286_-0.07627.png"	n/a	"MullerLyer"	"arrowdown"	"1330"	"TRUE"	"MullerLyer"	"-20.04286000"	"-0.076270000"	"1"	"59"
n/a	"html-keyboard-response"	"135"	"284922"	"0.0-5.0-2.0-0.41"	"jdb9sw"	"600"	"1366"	"chrome"	"108.0.0"	"FALSE"	"Windows 10"	"60.54"	"126"	n/a	n/a	n/a	n/a	n/a	n/a	"fixation"	n/a	n/a	n/a	n/a	"NULL"	n/a	"NULL"	"NULL"	"NULL"	"<p style=\"color: black; font-size: 80px; padding-left: 38%; padding-right: 22%; padding-top: 26%; padding-bottom: 19%\">+</p>"	"1472"	n/a	n/a	n/a	n/a	n/a	n/a	n/a	n/a	n/a
n/a	"image-keyboard-response"	"136"	"285459"	"0.0-5.0-2.0-1.41"	"jdb9sw"	"600"	"1366"	"chrome"	"108.0.0"	"FALSE"	"Windows 10"	"60.54"	"126"	n/a	n/a	n/a	n/a	n/a	n/a	"Trial"	n/a	n/a	n/a	"535"	"arrowup"	n/a	"NULL"	"NULL"	"NULL"	"stimuli/MullerLyer_2.30000_0.07627.png"	n/a	"MullerLyer"	"arrowup"	"1492"	"TRUE"	"MullerLyer"	"2.3000000000"	"0.0762700000"	"1"	"60"
n/a	"html-keyboard-response"	"137"	"286888"	"0.0-5.0-2.0-0.42"	"jdb9sw"	"600"	"1366"	"chrome"	"108.0.0"	"FALSE"	"Windows 10"	"60.54"	"126"	n/a	n/a	n/a	n/a	n/a	n/a	"fixation"	n/a	n/a	n/a	n/a	"NULL"	n/a	"NULL"	"NULL"	"NULL"	"<p style=\"color: black; font-size: 80px; padding-left: 45%; padding-right: 11%; padding-top: 30%; padding-bottom: 17%\">+</p>"	"1419"	n/a	n/a	n/a	n/a	n/a	n/a	n/a	n/a	n/a
n/a	"image-keyboard-response"	"138"	"287336"	"0.0-5.0-2.0-1.42"	"jdb9sw"	"600"	"1366"	"chrome"	"108.0.0"	"FALSE"	"Windows 10"	"60.54"	"126"	n/a	n/a	n/a	n/a	n/a	n/a	"Trial"	n/a	n/a	n/a	"445"	"arrowup"	n/a	"NULL"	"NULL"	"NULL"	"stimuli/MullerLyer_-2.3000_0.07627.png"	n/a	"MullerLyer"	"arrowup"	"1429"	"TRUE"	"MullerLyer"	"-2.300000000"	"0.0762700000"	"1"	"61"
n/a	"html-keyboard-response"	"139"	"288543"	"0.0-5.0-2.0-0.43"	"jdb9sw"	"600"	"1366"	"chrome"	"108.0.0"	"FALSE"	"Windows 10"	"60.54"	"126"	n/a	n/a	n/a	n/a	n/a	n/a	"fixation"	n/a	n/a	n/a	n/a	"NULL"	n/a	"NULL"	"NULL"	"NULL"	"<p style=\"color: black; font-size: 80px; padding-left: 24%; padding-right: 0%; padding-top: 41%; padding-bottom: 34%\">+</p>"	"1199"	n/a	n/a	n/a	n/a	n/a	n/a	n/a	n/a	n/a
n/a	"image-keyboard-response"	"140"	"289230"	"0.0-5.0-2.0-1.43"	"jdb9sw"	"600"	"1366"	"chrome"	"108.0.0"	"FALSE"	"Windows 10"	"60.54"	"126"	n/a	n/a	n/a	n/a	n/a	n/a	"Trial"	n/a	n/a	n/a	"686"	"arrowup"	n/a	"NULL"	"NULL"	"NULL"	"stimuli/MullerLyer_14.12857_-0.14541.png"	n/a	"MullerLyer"	"arrowdown"	"1207"	"FALSE"	"MullerLyer"	"14.128570000"	"-0.145410000"	"1"	"62"
n/a	"html-keyboard-response"	"141"	"290453"	"0.0-5.0-2.0-0.44"	"jdb9sw"	"600"	"1366"	"chrome"	"108.0.0"	"FALSE"	"Windows 10"	"60.54"	"126"	n/a	n/a	n/a	n/a	n/a	n/a	"fixation"	n/a	n/a	n/a	n/a	"NULL"	n/a	"NULL"	"NULL"	"NULL"	"<p style=\"color: black; font-size: 80px; padding-left: 47%; padding-right: 36%; padding-top: 17%; padding-bottom: 13%\">+</p>"	"1201"	n/a	n/a	n/a	n/a	n/a	n/a	n/a	n/a	n/a
n/a	"image-keyboard-response"	"142"	"290901"	"0.0-5.0-2.0-1.44"	"jdb9sw"	"600"	"1366"	"chrome"	"108.0.0"	"FALSE"	"Windows 10"	"60.54"	"126"	n/a	n/a	n/a	n/a	n/a	n/a	"Trial"	n/a	n/a	n/a	"447"	"arrowdown"	n/a	"NULL"	"NULL"	"NULL"	"stimuli/MullerLyer_8.21429_-0.3500.png"	n/a	"MullerLyer"	"arrowdown"	"1223"	"TRUE"	"MullerLyer"	"8.2142900000"	"-0.350000000"	"1"	"63"
n/a	"html-keyboard-response"	"143"	"292033"	"0.0-5.0-2.0-0.45"	"jdb9sw"	"600"	"1366"	"chrome"	"108.0.0"	"FALSE"	"Windows 10"	"60.54"	"126"	n/a	n/a	n/a	n/a	n/a	n/a	"fixation"	n/a	n/a	n/a	n/a	"NULL"	n/a	"NULL"	"NULL"	"NULL"	"<p style=\"color: black; font-size: 80px; padding-left: 23%; padding-right: 45%; padding-top: 9%; padding-bottom: 27%\">+</p>"	"1118"	n/a	n/a	n/a	n/a	n/a	n/a	n/a	n/a	n/a
n/a	"image-keyboard-response"	"144"	"292422"	"0.0-5.0-2.0-1.45"	"jdb9sw"	"600"	"1366"	"chrome"	"108.0.0"	"FALSE"	"Windows 10"	"60.54"	"126"	n/a	n/a	n/a	n/a	n/a	n/a	"Trial"	n/a	n/a	n/a	"388"	"arrowdown"	n/a	"NULL"	"NULL"	"NULL"	"stimuli/MullerLyer_-14.12857_-0.3500.png"	n/a	"MullerLyer"	"arrowdown"	"1132"	"TRUE"	"MullerLyer"	"-14.12857000"	"-0.350000000"	"1"	"64"
n/a	"html-keyboard-response"	"145"	"293805"	"0.0-5.0-2.0-0.46"	"jdb9sw"	"600"	"1366"	"chrome"	"108.0.0"	"FALSE"	"Windows 10"	"60.54"	"126"	n/a	n/a	n/a	n/a	n/a	n/a	"fixation"	n/a	n/a	n/a	n/a	"NULL"	n/a	"NULL"	"NULL"	"NULL"	"<p style=\"color: black; font-size: 80px; padding-left: 25%; padding-right: 25%; padding-top: 49%; padding-bottom: 28%\">+</p>"	"1374"	n/a	n/a	n/a	n/a	n/a	n/a	n/a	n/a	n/a
n/a	"image-keyboard-response"	"146"	"294118"	"0.0-5.0-2.0-1.46"	"jdb9sw"	"600"	"1366"	"chrome"	"108.0.0"	"FALSE"	"Windows 10"	"60.54"	"126"	n/a	n/a	n/a	n/a	n/a	n/a	"Trial"	n/a	n/a	n/a	"312"	"arrowup"	n/a	"NULL"	"NULL"	"NULL"	"stimuli/MullerLyer_20.04286_0.14541.png"	n/a	"MullerLyer"	"arrowup"	"1383"	"TRUE"	"MullerLyer"	"20.042860000"	"0.1454100000"	"1"	"65"
n/a	"html-keyboard-response"	"147"	"295302"	"0.0-5.0-2.0-0.47"	"jdb9sw"	"600"	"1366"	"chrome"	"108.0.0"	"FALSE"	"Windows 10"	"60.54"	"126"	n/a	n/a	n/a	n/a	n/a	n/a	"fixation"	n/a	n/a	n/a	n/a	"NULL"	n/a	"NULL"	"NULL"	"NULL"	"<p style=\"color: black; font-size: 80px; padding-left: 49%; padding-right: 19%; padding-top: 33%; padding-bottom: 36%\">+</p>"	"1175"	n/a	n/a	n/a	n/a	n/a	n/a	n/a	n/a	n/a
n/a	"image-keyboard-response"	"148"	"295717"	"0.0-5.0-2.0-1.47"	"jdb9sw"	"600"	"1366"	"chrome"	"108.0.0"	"FALSE"	"Windows 10"	"60.54"	"126"	n/a	n/a	n/a	n/a	n/a	n/a	"Trial"	n/a	n/a	n/a	"414"	"arrowdown"	n/a	"NULL"	"NULL"	"NULL"	"stimuli/MullerLyer_-2.3000_-0.23665.png"	n/a	"MullerLyer"	"arrowdown"	"1184"	"TRUE"	"MullerLyer"	"-2.300000000"	"-0.236650000"	"1"	"66"
n/a	"html-keyboard-response"	"149"	"296864"	"0.0-5.0-2.0-0.48"	"jdb9sw"	"600"	"1366"	"chrome"	"108.0.0"	"FALSE"	"Windows 10"	"60.54"	"126"	n/a	n/a	n/a	n/a	n/a	n/a	"fixation"	n/a	n/a	n/a	n/a	"NULL"	n/a	"NULL"	"NULL"	"NULL"	"<p style=\"color: black; font-size: 80px; padding-left: 20%; padding-right: 19%; padding-top: 19%; padding-bottom: 24%\">+</p>"	"1129"	n/a	n/a	n/a	n/a	n/a	n/a	n/a	n/a	n/a
n/a	"image-keyboard-response"	"150"	"297300"	"0.0-5.0-2.0-1.48"	"jdb9sw"	"600"	"1366"	"chrome"	"108.0.0"	"FALSE"	"Windows 10"	"60.54"	"126"	n/a	n/a	n/a	n/a	n/a	n/a	"Trial"	n/a	n/a	n/a	"435"	"arrowup"	n/a	"NULL"	"NULL"	"NULL"	"stimuli/MullerLyer_8.21429_0.23665.png"	n/a	"MullerLyer"	"arrowup"	"1147"	"TRUE"	"MullerLyer"	"8.2142900000"	"0.2366500000"	"1"	"67"
n/a	"html-keyboard-response"	"151"	"298755"	"0.0-5.0-2.0-0.49"	"jdb9sw"	"600"	"1366"	"chrome"	"108.0.0"	"FALSE"	"Windows 10"	"60.54"	"126"	n/a	n/a	n/a	n/a	n/a	n/a	"fixation"	n/a	n/a	n/a	n/a	"NULL"	n/a	"NULL"	"NULL"	"NULL"	"<p style=\"color: black; font-size: 80px; padding-left: 35%; padding-right: 6%; padding-top: 26%; padding-bottom: 47%\">+</p>"	"1449"	n/a	n/a	n/a	n/a	n/a	n/a	n/a	n/a	n/a
n/a	"image-keyboard-response"	"152"	"299173"	"0.0-5.0-2.0-1.49"	"jdb9sw"	"600"	"1366"	"chrome"	"108.0.0"	"FALSE"	"Windows 10"	"60.54"	"126"	n/a	n/a	n/a	n/a	n/a	n/a	"Trial"	n/a	n/a	n/a	"417"	"arrowdown"	n/a	"NULL"	"NULL"	"NULL"	"stimuli/MullerLyer_-20.04286_-0.14541.png"	n/a	"MullerLyer"	"arrowdown"	"1455"	"TRUE"	"MullerLyer"	"-20.04286000"	"-0.145410000"	"1"	"68"
n/a	"html-keyboard-response"	"153"	"300525"	"0.0-5.0-2.0-0.50"	"jdb9sw"	"600"	"1366"	"chrome"	"108.0.0"	"FALSE"	"Windows 10"	"60.54"	"126"	n/a	n/a	n/a	n/a	n/a	n/a	"fixation"	n/a	n/a	n/a	n/a	"NULL"	n/a	"NULL"	"NULL"	"NULL"	"<p style=\"color: black; font-size: 80px; padding-left: 20%; padding-right: 12%; padding-top: 7%; padding-bottom: 24%\">+</p>"	"1337"	n/a	n/a	n/a	n/a	n/a	n/a	n/a	n/a	n/a
n/a	"image-keyboard-response"	"154"	"300930"	"0.0-5.0-2.0-1.50"	"jdb9sw"	"600"	"1366"	"chrome"	"108.0.0"	"FALSE"	"Windows 10"	"60.54"	"126"	n/a	n/a	n/a	n/a	n/a	n/a	"Trial"	n/a	n/a	n/a	"404"	"arrowup"	n/a	"NULL"	"NULL"	"NULL"	"stimuli/MullerLyer_20.04286_-0.07627.png"	n/a	"MullerLyer"	"arrowdown"	"1352"	"FALSE"	"MullerLyer"	"20.042860000"	"-0.076270000"	"1"	"69"
n/a	"html-keyboard-response"	"155"	"302046"	"0.0-5.0-2.0-0.51"	"jdb9sw"	"600"	"1366"	"chrome"	"108.0.0"	"FALSE"	"Windows 10"	"60.54"	"126"	n/a	n/a	n/a	n/a	n/a	n/a	"fixation"	n/a	n/a	n/a	n/a	"NULL"	n/a	"NULL"	"NULL"	"NULL"	"<p style=\"color: black; font-size: 80px; padding-left: 39%; padding-right: 20%; padding-top: 46%; padding-bottom: 17%\">+</p>"	"1103"	n/a	n/a	n/a	n/a	n/a	n/a	n/a	n/a	n/a
n/a	"image-keyboard-response"	"156"	"302617"	"0.0-5.0-2.0-1.51"	"jdb9sw"	"600"	"1366"	"chrome"	"108.0.0"	"FALSE"	"Windows 10"	"60.54"	"126"	n/a	n/a	n/a	n/a	n/a	n/a	"Trial"	n/a	n/a	n/a	"570"	"arrowdown"	n/a	"NULL"	"NULL"	"NULL"	"stimuli/MullerLyer_14.12857_-0.23665.png"	n/a	"MullerLyer"	"arrowdown"	"1116"	"TRUE"	"MullerLyer"	"14.128570000"	"-0.236650000"	"1"	"70"
n/a	"html-keyboard-response"	"157"	"303859"	"0.0-5.0-2.0-0.52"	"jdb9sw"	"600"	"1366"	"chrome"	"108.0.0"	"FALSE"	"Windows 10"	"60.54"	"126"	n/a	n/a	n/a	n/a	n/a	n/a	"fixation"	n/a	n/a	n/a	n/a	"NULL"	n/a	"NULL"	"NULL"	"NULL"	"<p style=\"color: black; font-size: 80px; padding-left: 13%; padding-right: 6%; padding-top: 14%; padding-bottom: 31%\">+</p>"	"1236"	n/a	n/a	n/a	n/a	n/a	n/a	n/a	n/a	n/a
n/a	"image-keyboard-response"	"158"	"304217"	"0.0-5.0-2.0-1.52"	"jdb9sw"	"600"	"1366"	"chrome"	"108.0.0"	"FALSE"	"Windows 10"	"60.54"	"126"	n/a	n/a	n/a	n/a	n/a	n/a	"Trial"	n/a	n/a	n/a	"356"	"arrowdown"	n/a	"NULL"	"NULL"	"NULL"	"stimuli/MullerLyer_20.04286_0.07627.png"	n/a	"MullerLyer"	"arrowup"	"1242"	"FALSE"	"MullerLyer"	"20.042860000"	"0.0762700000"	"1"	"71"
n/a	"html-keyboard-response"	"159"	"305561"	"0.0-5.0-2.0-0.53"	"jdb9sw"	"600"	"1366"	"chrome"	"108.0.0"	"FALSE"	"Windows 10"	"60.54"	"126"	n/a	n/a	n/a	n/a	n/a	n/a	"fixation"	n/a	n/a	n/a	n/a	"NULL"	n/a	"NULL"	"NULL"	"NULL"	"<p style=\"color: black; font-size: 80px; padding-left: 32%; padding-right: 19%; padding-top: 12%; padding-bottom: 5%\">+</p>"	"1326"	n/a	n/a	n/a	n/a	n/a	n/a	n/a	n/a	n/a
n/a	"image-keyboard-response"	"160"	"306177"	"0.0-5.0-2.0-1.53"	"jdb9sw"	"600"	"1366"	"chrome"	"108.0.0"	"FALSE"	"Windows 10"	"60.54"	"126"	n/a	n/a	n/a	n/a	n/a	n/a	"Trial"	n/a	n/a	n/a	"616"	"arrowdown"	n/a	"NULL"	"NULL"	"NULL"	"stimuli/MullerLyer_2.30000_-0.07627.png"	n/a	"MullerLyer"	"arrowdown"	"1344"	"TRUE"	"MullerLyer"	"2.3000000000"	"-0.076270000"	"1"	"72"
n/a	"html-keyboard-response"	"161"	"307311"	"0.0-5.0-2.0-0.54"	"jdb9sw"	"600"	"1366"	"chrome"	"108.0.0"	"FALSE"	"Windows 10"	"60.54"	"126"	n/a	n/a	n/a	n/a	n/a	n/a	"fixation"	n/a	n/a	n/a	n/a	"NULL"	n/a	"NULL"	"NULL"	"NULL"	"<p style=\"color: black; font-size: 80px; padding-left: 48%; padding-right: 4%; padding-top: 37%; padding-bottom: 36%\">+</p>"	"1130"	n/a	n/a	n/a	n/a	n/a	n/a	n/a	n/a	n/a
n/a	"image-keyboard-response"	"162"	"307773"	"0.0-5.0-2.0-1.54"	"jdb9sw"	"600"	"1366"	"chrome"	"108.0.0"	"FALSE"	"Windows 10"	"60.54"	"126"	n/a	n/a	n/a	n/a	n/a	n/a	"Trial"	n/a	n/a	n/a	"460"	"arrowup"	n/a	"NULL"	"NULL"	"NULL"	"stimuli/MullerLyer_-2.3000_0.14541.png"	n/a	"MullerLyer"	"arrowup"	"1134"	"TRUE"	"MullerLyer"	"-2.300000000"	"0.1454100000"	"1"	"73"
n/a	"html-keyboard-response"	"163"	"308932"	"0.0-5.0-2.0-0.55"	"jdb9sw"	"600"	"1366"	"chrome"	"108.0.0"	"FALSE"	"Windows 10"	"60.54"	"126"	n/a	n/a	n/a	n/a	n/a	n/a	"fixation"	n/a	n/a	n/a	n/a	"NULL"	n/a	"NULL"	"NULL"	"NULL"	"<p style=\"color: black; font-size: 80px; padding-left: 48%; padding-right: 41%; padding-top: 23%; padding-bottom: 14%\">+</p>"	"1137"	n/a	n/a	n/a	n/a	n/a	n/a	n/a	n/a	n/a
n/a	"image-keyboard-response"	"164"	"309335"	"0.0-5.0-2.0-1.55"	"jdb9sw"	"600"	"1366"	"chrome"	"108.0.0"	"FALSE"	"Windows 10"	"60.54"	"126"	n/a	n/a	n/a	n/a	n/a	n/a	"Trial"	n/a	n/a	n/a	"402"	"arrowdown"	n/a	"NULL"	"NULL"	"NULL"	"stimuli/MullerLyer_-8.21429_-0.23665.png"	n/a	"MullerLyer"	"arrowdown"	"1159"	"TRUE"	"MullerLyer"	"-8.214290000"	"-0.236650000"	"1"	"74"
n/a	"html-keyboard-response"	"165"	"310376"	"0.0-5.0-2.0-0.56"	"jdb9sw"	"600"	"1366"	"chrome"	"108.0.0"	"FALSE"	"Windows 10"	"60.54"	"126"	n/a	n/a	n/a	n/a	n/a	n/a	"fixation"	n/a	n/a	n/a	n/a	"NULL"	n/a	"NULL"	"NULL"	"NULL"	"<p style=\"color: black; font-size: 80px; padding-left: 39%; padding-right: 42%; padding-top: 39%; padding-bottom: 4%\">+</p>"	"1039"	n/a	n/a	n/a	n/a	n/a	n/a	n/a	n/a	n/a
n/a	"image-keyboard-response"	"166"	"310787"	"0.0-5.0-2.0-1.56"	"jdb9sw"	"600"	"1366"	"chrome"	"108.0.0"	"FALSE"	"Windows 10"	"60.54"	"126"	n/a	n/a	n/a	n/a	n/a	n/a	"Trial"	n/a	n/a	n/a	"410"	"arrowdown"	n/a	"NULL"	"NULL"	"NULL"	"stimuli/MullerLyer_8.21429_-0.14541.png"	n/a	"MullerLyer"	"arrowdown"	"1041"	"TRUE"	"MullerLyer"	"8.2142900000"	"-0.145410000"	"1"	"75"
n/a	"html-keyboard-response"	"167"	"311872"	"0.0-5.0-2.0-0.57"	"jdb9sw"	"600"	"1366"	"chrome"	"108.0.0"	"FALSE"	"Windows 10"	"60.54"	"126"	n/a	n/a	n/a	n/a	n/a	n/a	"fixation"	n/a	n/a	n/a	n/a	"NULL"	n/a	"NULL"	"NULL"	"NULL"	"<p style=\"color: black; font-size: 80px; padding-left: 2%; padding-right: 33%; padding-top: 27%; padding-bottom: 8%\">+</p>"	"1068"	n/a	n/a	n/a	n/a	n/a	n/a	n/a	n/a	n/a
n/a	"image-keyboard-response"	"168"	"312254"	"0.0-5.0-2.0-1.57"	"jdb9sw"	"600"	"1366"	"chrome"	"108.0.0"	"FALSE"	"Windows 10"	"60.54"	"126"	n/a	n/a	n/a	n/a	n/a	n/a	"Trial"	n/a	n/a	n/a	"381"	"arrowdown"	n/a	"NULL"	"NULL"	"NULL"	"stimuli/MullerLyer_14.12857_0.07627.png"	n/a	"MullerLyer"	"arrowup"	"1085"	"FALSE"	"MullerLyer"	"14.128570000"	"0.0762700000"	"1"	"76"
n/a	"html-keyboard-response"	"169"	"313360"	"0.0-5.0-2.0-0.58"	"jdb9sw"	"600"	"1366"	"chrome"	"108.0.0"	"FALSE"	"Windows 10"	"60.54"	"126"	n/a	n/a	n/a	n/a	n/a	n/a	"fixation"	n/a	n/a	n/a	n/a	"NULL"	n/a	"NULL"	"NULL"	"NULL"	"<p style=\"color: black; font-size: 80px; padding-left: 42%; padding-right: 38%; padding-top: 40%; padding-bottom: 2%\">+</p>"	"1091"	n/a	n/a	n/a	n/a	n/a	n/a	n/a	n/a	n/a
n/a	"image-keyboard-response"	"170"	"313749"	"0.0-5.0-2.0-1.58"	"jdb9sw"	"600"	"1366"	"chrome"	"108.0.0"	"FALSE"	"Windows 10"	"60.54"	"126"	n/a	n/a	n/a	n/a	n/a	n/a	"Trial"	n/a	n/a	n/a	"388"	"arrowup"	n/a	"NULL"	"NULL"	"NULL"	"stimuli/MullerLyer_-8.21429_0.23665.png"	n/a	"MullerLyer"	"arrowup"	"1106"	"TRUE"	"MullerLyer"	"-8.214290000"	"0.2366500000"	"1"	"77"
n/a	"html-keyboard-response"	"171"	"315070"	"0.0-5.0-2.0-0.59"	"jdb9sw"	"600"	"1366"	"chrome"	"108.0.0"	"FALSE"	"Windows 10"	"60.54"	"126"	n/a	n/a	n/a	n/a	n/a	n/a	"fixation"	n/a	n/a	n/a	n/a	"NULL"	n/a	"NULL"	"NULL"	"NULL"	"<p style=\"color: black; font-size: 80px; padding-left: 46%; padding-right: 34%; padding-top: 8%; padding-bottom: 18%\">+</p>"	"1311"	n/a	n/a	n/a	n/a	n/a	n/a	n/a	n/a	n/a
n/a	"image-keyboard-response"	"172"	"315484"	"0.0-5.0-2.0-1.59"	"jdb9sw"	"600"	"1366"	"chrome"	"108.0.0"	"FALSE"	"Windows 10"	"60.54"	"126"	n/a	n/a	n/a	n/a	n/a	n/a	"Trial"	n/a	n/a	n/a	"414"	"arrowup"	n/a	"NULL"	"NULL"	"NULL"	"stimuli/MullerLyer_-14.12857_0.23665.png"	n/a	"MullerLyer"	"arrowup"	"1321"	"TRUE"	"MullerLyer"	"-14.12857000"	"0.2366500000"	"1"	"78"
n/a	"html-keyboard-response"	"173"	"316964"	"0.0-5.0-2.0-0.60"	"jdb9sw"	"600"	"1366"	"chrome"	"108.0.0"	"FALSE"	"Windows 10"	"60.54"	"126"	n/a	n/a	n/a	n/a	n/a	n/a	"fixation"	n/a	n/a	n/a	n/a	"NULL"	n/a	"NULL"	"NULL"	"NULL"	"<p style=\"color: black; font-size: 80px; padding-left: 32%; padding-right: 42%; padding-top: 36%; padding-bottom: 32%\">+</p>"	"1469"	n/a	n/a	n/a	n/a	n/a	n/a	n/a	n/a	n/a
n/a	"image-keyboard-response"	"174"	"317366"	"0.0-5.0-2.0-1.60"	"jdb9sw"	"600"	"1366"	"chrome"	"108.0.0"	"FALSE"	"Windows 10"	"60.54"	"126"	n/a	n/a	n/a	n/a	n/a	n/a	"Trial"	n/a	n/a	n/a	"400"	"arrowup"	n/a	"NULL"	"NULL"	"NULL"	"stimuli/MullerLyer_-14.12857_0.35000.png"	n/a	"MullerLyer"	"arrowup"	"1480"	"TRUE"	"MullerLyer"	"-14.12857000"	"0.3500000000"	"1"	"79"
n/a	"html-keyboard-response"	"175"	"318527"	"0.0-5.0-2.0-0.61"	"jdb9sw"	"600"	"1366"	"chrome"	"108.0.0"	"FALSE"	"Windows 10"	"60.54"	"126"	n/a	n/a	n/a	n/a	n/a	n/a	"fixation"	n/a	n/a	n/a	n/a	"NULL"	n/a	"NULL"	"NULL"	"NULL"	"<p style=\"color: black; font-size: 80px; padding-left: 14%; padding-right: 39%; padding-top: 41%; padding-bottom: 9%\">+</p>"	"1156"	n/a	n/a	n/a	n/a	n/a	n/a	n/a	n/a	n/a
n/a	"image-keyboard-response"	"176"	"318953"	"0.0-5.0-2.0-1.61"	"jdb9sw"	"600"	"1366"	"chrome"	"108.0.0"	"FALSE"	"Windows 10"	"60.54"	"126"	n/a	n/a	n/a	n/a	n/a	n/a	"Trial"	n/a	n/a	n/a	"426"	"arrowdown"	n/a	"NULL"	"NULL"	"NULL"	"stimuli/MullerLyer_2.30000_-0.23665.png"	n/a	"MullerLyer"	"arrowdown"	"1161"	"TRUE"	"MullerLyer"	"2.3000000000"	"-0.236650000"	"1"	"80"
n/a	"html-keyboard-response"	"177"	"320447"	"0.0-5.0-2.0-0.62"	"jdb9sw"	"600"	"1366"	"chrome"	"108.0.0"	"FALSE"	"Windows 10"	"60.54"	"126"	n/a	n/a	n/a	n/a	n/a	n/a	"fixation"	n/a	n/a	n/a	n/a	"NULL"	n/a	"NULL"	"NULL"	"NULL"	"<p style=\"color: black; font-size: 80px; padding-left: 5%; padding-right: 4%; padding-top: 34%; padding-bottom: 43%\">+</p>"	"1487"	n/a	n/a	n/a	n/a	n/a	n/a	n/a	n/a	n/a
n/a	"image-keyboard-response"	"178"	"320871"	"0.0-5.0-2.0-1.62"	"jdb9sw"	"600"	"1366"	"chrome"	"108.0.0"	"FALSE"	"Windows 10"	"60.54"	"126"	n/a	n/a	n/a	n/a	n/a	n/a	"Trial"	n/a	n/a	n/a	"423"	"arrowdown"	n/a	"NULL"	"NULL"	"NULL"	"stimuli/MullerLyer_-8.21429_-0.07627.png"	n/a	"MullerLyer"	"arrowdown"	"1494"	"TRUE"	"MullerLyer"	"-8.214290000"	"-0.076270000"	"1"	"81"
n/a	"html-keyboard-response"	"179"	"322234"	"0.0-5.0-2.0-0.63"	"jdb9sw"	"600"	"1366"	"chrome"	"108.0.0"	"FALSE"	"Windows 10"	"60.54"	"126"	n/a	n/a	n/a	n/a	n/a	n/a	"fixation"	n/a	n/a	n/a	n/a	"NULL"	n/a	"NULL"	"NULL"	"NULL"	"<p style=\"color: black; font-size: 80px; padding-left: 50%; padding-right: 11%; padding-top: 41%; padding-bottom: 44%\">+</p>"	"1355"	n/a	n/a	n/a	n/a	n/a	n/a	n/a	n/a	n/a
n/a	"image-keyboard-response"	"180"	"322684"	"0.0-5.0-2.0-1.63"	"jdb9sw"	"600"	"1366"	"chrome"	"108.0.0"	"FALSE"	"Windows 10"	"60.54"	"126"	n/a	n/a	n/a	n/a	n/a	n/a	"Trial"	n/a	n/a	n/a	"450"	"arrowup"	n/a	"NULL"	"NULL"	"NULL"	"stimuli/MullerLyer_2.30000_0.14541.png"	n/a	"MullerLyer"	"arrowup"	"1363"	"TRUE"	"MullerLyer"	"2.3000000000"	"0.1454100000"	"1"	"82"
n/a	"html-button-response"	"181"	"342305"	"0.0-5.0-3.0"	"jdb9sw"	"600"	"1366"	"chrome"	"108.0.0"	"FALSE"	"Windows 10"	"60.54"	"126"	n/a	n/a	n/a	n/a	n/a	n/a	"block_results"	n/a	n/a	n/a	"19616"	"0"	n/a	"NULL"	"NULL"	"NULL"	"<p>Your score for this illusion is <p style=\"color: black; font-size: 48px; font-weight: bold;\">85.3 %</p><hr><p>Can you do better in the next illusion?</p>"	n/a	n/a	n/a	n/a	n/a	n/a	n/a	n/a	n/a	n/a
"TRUE"	"preload"	"182"	"342494"	"0.0-6.0-0.0"	"jdb9sw"	"600"	"1366"	"chrome"	"108.0.0"	"FALSE"	"Windows 10"	"60.54"	"126"	n/a	n/a	n/a	n/a	n/a	n/a	n/a	n/a	n/a	n/a	n/a	"NULL"	"FALSE"	"list()"	"list()"	"list()"	n/a	n/a	n/a	n/a	n/a	n/a	n/a	n/a	n/a	n/a	n/a
n/a	"html-keyboard-response"	"183"	"346053"	"0.0-6.0-1.0"	"jdb9sw"	"600"	"1366"	"chrome"	"108.0.0"	"FALSE"	"Windows 10"	"60.54"	"126"	n/a	n/a	n/a	n/a	n/a	n/a	n/a	n/a	n/a	n/a	"3557"	"enter"	n/a	"NULL"	"NULL"	"NULL"	"<p><b>Part 2/6</b></p><p>In this part, two red lines will appear side by side.</p><p>Your task is to tell <b>which line is longer</b> in length, regardless of their orientation, as fast as you can, and without making errors.</p><p>Don't get distracted by the orientation of the lines!</p><p>Press <b>the LEFT or the RIGHT arrow</b> to indicate which <b>line is the longer one.</b></p><div style='float: center'><img src='materials/instructions/VerticalHorizontal_Demo.png' height='300'></img><p><img src='utils/answer/answer_leftright_keyboard.PNG' height='150'></img></p><p class='small'>In this example, the correct answer is the <b>LEFT arrow</b>.</p></div><p>Are you ready? <b>Press ENTER to start</b></p>"	n/a	n/a	n/a	n/a	n/a	n/a	n/a	n/a	n/a	n/a
n/a	"html-keyboard-response"	"184"	"347971"	"0.0-6.0-2.0-0.0"	"jdb9sw"	"600"	"1366"	"chrome"	"108.0.0"	"FALSE"	"Windows 10"	"60.54"	"126"	n/a	n/a	n/a	n/a	n/a	n/a	"fixation"	n/a	n/a	n/a	n/a	"NULL"	n/a	"NULL"	"NULL"	"NULL"	"<p style=\"color: black; font-size: 80px; padding-left: 42%; padding-right: 27%; padding-top: 33%; padding-bottom: 0%\">+</p>"	"1393"	n/a	n/a	n/a	n/a	n/a	n/a	n/a	n/a	n/a
n/a	"image-keyboard-response"	"185"	"348798"	"0.0-6.0-2.0-1.0"	"jdb9sw"	"600"	"1366"	"chrome"	"108.0.0"	"FALSE"	"Windows 10"	"60.54"	"126"	n/a	n/a	n/a	n/a	n/a	n/a	"Trial"	n/a	n/a	n/a	"826"	"arrowleft"	n/a	"NULL"	"NULL"	"NULL"	"stimuli/VerticalHorizontal_28.75714_-0.2250.png"	n/a	"VerticalHorizontal"	"arrowright"	"1918"	"FALSE"	"VerticalHorizontal"	"28.757140000"	"-0.225000000"	"2"	"1"
n/a	"html-keyboard-response"	"186"	"350220"	"0.0-6.0-2.0-0.1"	"jdb9sw"	"600"	"1366"	"chrome"	"108.0.0"	"FALSE"	"Windows 10"	"60.54"	"126"	n/a	n/a	n/a	n/a	n/a	n/a	"fixation"	n/a	n/a	n/a	n/a	"NULL"	n/a	"NULL"	"NULL"	"NULL"	"<p style=\"color: black; font-size: 80px; padding-left: 35%; padding-right: 46%; padding-top: 13%; padding-bottom: 22%\">+</p>"	"1403"	n/a	n/a	n/a	n/a	n/a	n/a	n/a	n/a	n/a
n/a	"image-keyboard-response"	"187"	"350969"	"0.0-6.0-2.0-1.1"	"jdb9sw"	"600"	"1366"	"chrome"	"108.0.0"	"FALSE"	"Windows 10"	"60.54"	"126"	n/a	n/a	n/a	n/a	n/a	n/a	"Trial"	n/a	n/a	n/a	"748"	"arrowleft"	n/a	"NULL"	"NULL"	"NULL"	"stimuli/VerticalHorizontal_-11.78571_0.10960.png"	n/a	"VerticalHorizontal"	"arrowleft"	"1422"	"TRUE"	"VerticalHorizontal"	"-11.78571000"	"0.1096000000"	"2"	"2"
n/a	"html-keyboard-response"	"188"	"352337"	"0.0-6.0-2.0-0.2"	"jdb9sw"	"600"	"1366"	"chrome"	"108.0.0"	"FALSE"	"Windows 10"	"60.54"	"126"	n/a	n/a	n/a	n/a	n/a	n/a	"fixation"	n/a	n/a	n/a	n/a	"NULL"	n/a	"NULL"	"NULL"	"NULL"	"<p style=\"color: black; font-size: 80px; padding-left: 11%; padding-right: 7%; padding-top: 34%; padding-bottom: 21%\">+</p>"	"1357"	n/a	n/a	n/a	n/a	n/a	n/a	n/a	n/a	n/a
n/a	"image-keyboard-response"	"189"	"352900"	"0.0-6.0-2.0-1.2"	"jdb9sw"	"600"	"1366"	"chrome"	"108.0.0"	"FALSE"	"Windows 10"	"60.54"	"126"	n/a	n/a	n/a	n/a	n/a	n/a	"Trial"	n/a	n/a	n/a	"561"	"arrowleft"	n/a	"NULL"	"NULL"	"NULL"	"stimuli/VerticalHorizontal_-3.3000_0.10960.png"	n/a	"VerticalHorizontal"	"arrowleft"	"1368"	"TRUE"	"VerticalHorizontal"	"-3.300000000"	"0.1096000000"	"2"	"3"
n/a	"html-keyboard-response"	"190"	"354261"	"0.0-6.0-2.0-0.3"	"jdb9sw"	"600"	"1366"	"chrome"	"108.0.0"	"FALSE"	"Windows 10"	"60.54"	"126"	n/a	n/a	n/a	n/a	n/a	n/a	"fixation"	n/a	n/a	n/a	n/a	"NULL"	n/a	"NULL"	"NULL"	"NULL"	"<p style=\"color: black; font-size: 80px; padding-left: 33%; padding-right: 46%; padding-top: 22%; padding-bottom: 5%\">+</p>"	"1343"	n/a	n/a	n/a	n/a	n/a	n/a	n/a	n/a	n/a
n/a	"image-keyboard-response"	"191"	"354704"	"0.0-6.0-2.0-1.3"	"jdb9sw"	"600"	"1366"	"chrome"	"108.0.0"	"FALSE"	"Windows 10"	"60.54"	"126"	n/a	n/a	n/a	n/a	n/a	n/a	"Trial"	n/a	n/a	n/a	"442"	"arrowleft"	n/a	"NULL"	"NULL"	"NULL"	"stimuli/VerticalHorizontal_-3.3000_0.16217.png"	n/a	"VerticalHorizontal"	"arrowleft"	"1361"	"TRUE"	"VerticalHorizontal"	"-3.300000000"	"0.1621700000"	"2"	"4"
n/a	"html-keyboard-response"	"192"	"356064"	"0.0-6.0-2.0-0.4"	"jdb9sw"	"600"	"1366"	"chrome"	"108.0.0"	"FALSE"	"Windows 10"	"60.54"	"126"	n/a	n/a	n/a	n/a	n/a	n/a	"fixation"	n/a	n/a	n/a	n/a	"NULL"	n/a	"NULL"	"NULL"	"NULL"	"<p style=\"color: black; font-size: 80px; padding-left: 41%; padding-right: 33%; padding-top: 6%; padding-bottom: 35%\">+</p>"	"1347"	n/a	n/a	n/a	n/a	n/a	n/a	n/a	n/a	n/a
n/a	"image-keyboard-response"	"193"	"356391"	"0.0-6.0-2.0-1.4"	"jdb9sw"	"600"	"1366"	"chrome"	"108.0.0"	"FALSE"	"Windows 10"	"60.54"	"126"	n/a	n/a	n/a	n/a	n/a	n/a	"Trial"	n/a	n/a	n/a	"325"	"arrowright"	n/a	"NULL"	"NULL"	"NULL"	"stimuli/VerticalHorizontal_28.75714_0.16217.png"	n/a	"VerticalHorizontal"	"arrowleft"	"1360"	"FALSE"	"VerticalHorizontal"	"28.757140000"	"0.1621700000"	"2"	"5"
n/a	"html-keyboard-response"	"194"	"357642"	"0.0-6.0-2.0-0.5"	"jdb9sw"	"600"	"1366"	"chrome"	"108.0.0"	"FALSE"	"Windows 10"	"60.54"	"126"	n/a	n/a	n/a	n/a	n/a	n/a	"fixation"	n/a	n/a	n/a	n/a	"NULL"	n/a	"NULL"	"NULL"	"NULL"	"<p style=\"color: black; font-size: 80px; padding-left: 34%; padding-right: 30%; padding-top: 36%; padding-bottom: 45%\">+</p>"	"1233"	n/a	n/a	n/a	n/a	n/a	n/a	n/a	n/a	n/a
n/a	"image-keyboard-response"	"195"	"358077"	"0.0-6.0-2.0-1.5"	"jdb9sw"	"600"	"1366"	"chrome"	"108.0.0"	"FALSE"	"Windows 10"	"60.54"	"126"	n/a	n/a	n/a	n/a	n/a	n/a	"Trial"	n/a	n/a	n/a	"434"	"arrowright"	n/a	"NULL"	"NULL"	"NULL"	"stimuli/VerticalHorizontal_20.27143_-0.16217.png"	n/a	"VerticalHorizontal"	"arrowright"	"1251"	"TRUE"	"VerticalHorizontal"	"20.271430000"	"-0.162170000"	"2"	"6"
n/a	"html-keyboard-response"	"196"	"359512"	"0.0-6.0-2.0-0.6"	"jdb9sw"	"600"	"1366"	"chrome"	"108.0.0"	"FALSE"	"Windows 10"	"60.54"	"126"	n/a	n/a	n/a	n/a	n/a	n/a	"fixation"	n/a	n/a	n/a	n/a	"NULL"	n/a	"NULL"	"NULL"	"NULL"	"<p style=\"color: black; font-size: 80px; padding-left: 28%; padding-right: 6%; padding-top: 40%; padding-bottom: 27%\">+</p>"	"1426"	n/a	n/a	n/a	n/a	n/a	n/a	n/a	n/a	n/a
n/a	"image-keyboard-response"	"197"	"359884"	"0.0-6.0-2.0-1.6"	"jdb9sw"	"600"	"1366"	"chrome"	"108.0.0"	"FALSE"	"Windows 10"	"60.54"	"126"	n/a	n/a	n/a	n/a	n/a	n/a	"Trial"	n/a	n/a	n/a	"370"	"arrowright"	n/a	"NULL"	"NULL"	"NULL"	"stimuli/VerticalHorizontal_-28.75714_-0.0673.png"	n/a	"VerticalHorizontal"	"arrowright"	"1435"	"TRUE"	"VerticalHorizontal"	"-28.75714000"	"-0.067300000"	"2"	"7"
n/a	"html-keyboard-response"	"198"	"361297"	"0.0-6.0-2.0-0.7"	"jdb9sw"	"600"	"1366"	"chrome"	"108.0.0"	"FALSE"	"Windows 10"	"60.54"	"126"	n/a	n/a	n/a	n/a	n/a	n/a	"fixation"	n/a	n/a	n/a	n/a	"NULL"	n/a	"NULL"	"NULL"	"NULL"	"<p style=\"color: black; font-size: 80px; padding-left: 15%; padding-right: 12%; padding-top: 18%; padding-bottom: 41%\">+</p>"	"1407"	n/a	n/a	n/a	n/a	n/a	n/a	n/a	n/a	n/a
n/a	"image-keyboard-response"	"199"	"361649"	"0.0-6.0-2.0-1.7"	"jdb9sw"	"600"	"1366"	"chrome"	"108.0.0"	"FALSE"	"Windows 10"	"60.54"	"126"	n/a	n/a	n/a	n/a	n/a	n/a	"Trial"	n/a	n/a	n/a	"351"	"arrowleft"	n/a	"NULL"	"NULL"	"NULL"	"stimuli/VerticalHorizontal_28.75714_-0.0673.png"	n/a	"VerticalHorizontal"	"arrowright"	"1413"	"FALSE"	"VerticalHorizontal"	"28.757140000"	"-0.067300000"	"2"	"8"
n/a	"html-keyboard-response"	"200"	"362772"	"0.0-6.0-2.0-0.8"	"jdb9sw"	"600"	"1366"	"chrome"	"108.0.0"	"FALSE"	"Windows 10"	"60.54"	"126"	n/a	n/a	n/a	n/a	n/a	n/a	"fixation"	n/a	n/a	n/a	n/a	"NULL"	n/a	"NULL"	"NULL"	"NULL"	"<p style=\"color: black; font-size: 80px; padding-left: 26%; padding-right: 30%; padding-top: 8%; padding-bottom: 49%\">+</p>"	"1110"	n/a	n/a	n/a	n/a	n/a	n/a	n/a	n/a	n/a
n/a	"image-keyboard-response"	"201"	"363164"	"0.0-6.0-2.0-1.8"	"jdb9sw"	"600"	"1366"	"chrome"	"108.0.0"	"FALSE"	"Windows 10"	"60.54"	"126"	n/a	n/a	n/a	n/a	n/a	n/a	"Trial"	n/a	n/a	n/a	"391"	"arrowleft"	n/a	"NULL"	"NULL"	"NULL"	"stimuli/VerticalHorizontal_-20.27143_0.22500.png"	n/a	"VerticalHorizontal"	"arrowleft"	"1123"	"TRUE"	"VerticalHorizontal"	"-20.27143000"	"0.2250000000"	"2"	"9"
n/a	"html-keyboard-response"	"202"	"364287"	"0.0-6.0-2.0-0.9"	"jdb9sw"	"600"	"1366"	"chrome"	"108.0.0"	"FALSE"	"Windows 10"	"60.54"	"126"	n/a	n/a	n/a	n/a	n/a	n/a	"fixation"	n/a	n/a	n/a	n/a	"NULL"	n/a	"NULL"	"NULL"	"NULL"	"<p style=\"color: black; font-size: 80px; padding-left: 21%; padding-right: 14%; padding-top: 33%; padding-bottom: 4%\">+</p>"	"1120"	n/a	n/a	n/a	n/a	n/a	n/a	n/a	n/a	n/a
n/a	"image-keyboard-response"	"203"	"364904"	"0.0-6.0-2.0-1.9"	"jdb9sw"	"600"	"1366"	"chrome"	"108.0.0"	"FALSE"	"Windows 10"	"60.54"	"126"	n/a	n/a	n/a	n/a	n/a	n/a	"Trial"	n/a	n/a	n/a	"616"	"arrowleft"	n/a	"NULL"	"NULL"	"NULL"	"stimuli/VerticalHorizontal_-11.78571_0.16217.png"	n/a	"VerticalHorizontal"	"arrowleft"	"1123"	"TRUE"	"VerticalHorizontal"	"-11.78571000"	"0.1621700000"	"2"	"10"
n/a	"html-keyboard-response"	"204"	"366173"	"0.0-6.0-2.0-0.10"	"jdb9sw"	"600"	"1366"	"chrome"	"108.0.0"	"FALSE"	"Windows 10"	"60.54"	"126"	n/a	n/a	n/a	n/a	n/a	n/a	"fixation"	n/a	n/a	n/a	n/a	"NULL"	n/a	"NULL"	"NULL"	"NULL"	"<p style=\"color: black; font-size: 80px; padding-left: 13%; padding-right: 17%; padding-top: 10%; padding-bottom: 18%\">+</p>"	"1258"	n/a	n/a	n/a	n/a	n/a	n/a	n/a	n/a	n/a
n/a	"image-keyboard-response"	"205"	"366528"	"0.0-6.0-2.0-1.10"	"jdb9sw"	"600"	"1366"	"chrome"	"108.0.0"	"FALSE"	"Windows 10"	"60.54"	"126"	n/a	n/a	n/a	n/a	n/a	n/a	"Trial"	n/a	n/a	n/a	"355"	"arrowleft"	n/a	"NULL"	"NULL"	"NULL"	"stimuli/VerticalHorizontal_28.75714_-0.1096.png"	n/a	"VerticalHorizontal"	"arrowright"	"1269"	"FALSE"	"VerticalHorizontal"	"28.757140000"	"-0.109600000"	"2"	"11"
n/a	"html-keyboard-response"	"206"	"368032"	"0.0-6.0-2.0-0.11"	"jdb9sw"	"600"	"1366"	"chrome"	"108.0.0"	"FALSE"	"Windows 10"	"60.54"	"126"	n/a	n/a	n/a	n/a	n/a	n/a	"fixation"	n/a	n/a	n/a	n/a	"NULL"	n/a	"NULL"	"NULL"	"NULL"	"<p style=\"color: black; font-size: 80px; padding-left: 27%; padding-right: 5%; padding-top: 21%; padding-bottom: 4%\">+</p>"	"1500"	n/a	n/a	n/a	n/a	n/a	n/a	n/a	n/a	n/a
n/a	"image-keyboard-response"	"207"	"368518"	"0.0-6.0-2.0-1.11"	"jdb9sw"	"600"	"1366"	"chrome"	"108.0.0"	"FALSE"	"Windows 10"	"60.54"	"126"	n/a	n/a	n/a	n/a	n/a	n/a	"Trial"	n/a	n/a	n/a	"485"	"arrowleft"	n/a	"NULL"	"NULL"	"NULL"	"stimuli/VerticalHorizontal_-28.75714_0.16217.png"	n/a	"VerticalHorizontal"	"arrowleft"	"1504"	"TRUE"	"VerticalHorizontal"	"-28.75714000"	"0.1621700000"	"2"	"12"
n/a	"html-keyboard-response"	"208"	"369593"	"0.0-6.0-2.0-0.12"	"jdb9sw"	"600"	"1366"	"chrome"	"108.0.0"	"FALSE"	"Windows 10"	"60.54"	"126"	n/a	n/a	n/a	n/a	n/a	n/a	"fixation"	n/a	n/a	n/a	n/a	"NULL"	n/a	"NULL"	"NULL"	"NULL"	"<p style=\"color: black; font-size: 80px; padding-left: 13%; padding-right: 33%; padding-top: 34%; padding-bottom: 28%\">+</p>"	"1065"	n/a	n/a	n/a	n/a	n/a	n/a	n/a	n/a	n/a
n/a	"image-keyboard-response"	"209"	"370285"	"0.0-6.0-2.0-1.12"	"jdb9sw"	"600"	"1366"	"chrome"	"108.0.0"	"FALSE"	"Windows 10"	"60.54"	"126"	n/a	n/a	n/a	n/a	n/a	n/a	"Trial"	n/a	n/a	n/a	"690"	"arrowleft"	n/a	"NULL"	"NULL"	"NULL"	"stimuli/VerticalHorizontal_3.30000_0.22500.png"	n/a	"VerticalHorizontal"	"arrowleft"	"1075"	"TRUE"	"VerticalHorizontal"	"3.3000000000"	"0.2250000000"	"2"	"13"
n/a	"html-keyboard-response"	"210"	"371713"	"0.0-6.0-2.0-0.13"	"jdb9sw"	"600"	"1366"	"chrome"	"108.0.0"	"FALSE"	"Windows 10"	"60.54"	"126"	n/a	n/a	n/a	n/a	n/a	n/a	"fixation"	n/a	n/a	n/a	n/a	"NULL"	n/a	"NULL"	"NULL"	"NULL"	"<p style=\"color: black; font-size: 80px; padding-left: 29%; padding-right: 15%; padding-top: 31%; padding-bottom: 46%\">+</p>"	"1420"	n/a	n/a	n/a	n/a	n/a	n/a	n/a	n/a	n/a
n/a	"image-keyboard-response"	"211"	"372026"	"0.0-6.0-2.0-1.13"	"jdb9sw"	"600"	"1366"	"chrome"	"108.0.0"	"FALSE"	"Windows 10"	"60.54"	"126"	n/a	n/a	n/a	n/a	n/a	n/a	"Trial"	n/a	n/a	n/a	"312"	"arrowright"	n/a	"NULL"	"NULL"	"NULL"	"stimuli/VerticalHorizontal_-20.27143_-0.1096.png"	n/a	"VerticalHorizontal"	"arrowright"	"1428"	"TRUE"	"VerticalHorizontal"	"-20.27143000"	"-0.109600000"	"2"	"14"
n/a	"html-keyboard-response"	"212"	"373473"	"0.0-6.0-2.0-0.14"	"jdb9sw"	"600"	"1366"	"chrome"	"108.0.0"	"FALSE"	"Windows 10"	"60.54"	"126"	n/a	n/a	n/a	n/a	n/a	n/a	"fixation"	n/a	n/a	n/a	n/a	"NULL"	n/a	"NULL"	"NULL"	"NULL"	"<p style=\"color: black; font-size: 80px; padding-left: 27%; padding-right: 3%; padding-top: 29%; padding-bottom: 14%\">+</p>"	"1428"	n/a	n/a	n/a	n/a	n/a	n/a	n/a	n/a	n/a
n/a	"image-keyboard-response"	"213"	"374042"	"0.0-6.0-2.0-1.14"	"jdb9sw"	"600"	"1366"	"chrome"	"108.0.0"	"FALSE"	"Windows 10"	"60.54"	"126"	n/a	n/a	n/a	n/a	n/a	n/a	"Trial"	n/a	n/a	n/a	"567"	"arrowright"	n/a	"NULL"	"NULL"	"NULL"	"stimuli/VerticalHorizontal_11.78571_0.16217.png"	n/a	"VerticalHorizontal"	"arrowleft"	"1447"	"FALSE"	"VerticalHorizontal"	"11.785710000"	"0.1621700000"	"2"	"15"
n/a	"html-keyboard-response"	"214"	"375102"	"0.0-6.0-2.0-0.15"	"jdb9sw"	"600"	"1366"	"chrome"	"108.0.0"	"FALSE"	"Windows 10"	"60.54"	"126"	n/a	n/a	n/a	n/a	n/a	n/a	"fixation"	n/a	n/a	n/a	n/a	"NULL"	n/a	"NULL"	"NULL"	"NULL"	"<p style=\"color: black; font-size: 80px; padding-left: 41%; padding-right: 30%; padding-top: 34%; padding-bottom: 49%\">+</p>"	"1048"	n/a	n/a	n/a	n/a	n/a	n/a	n/a	n/a	n/a
n/a	"image-keyboard-response"	"215"	"375809"	"0.0-6.0-2.0-1.15"	"jdb9sw"	"600"	"1366"	"chrome"	"108.0.0"	"FALSE"	"Windows 10"	"60.54"	"126"	n/a	n/a	n/a	n/a	n/a	n/a	"Trial"	n/a	n/a	n/a	"707"	"arrowleft"	n/a	"NULL"	"NULL"	"NULL"	"stimuli/VerticalHorizontal_20.27143_0.22500.png"	n/a	"VerticalHorizontal"	"arrowleft"	"1060"	"TRUE"	"VerticalHorizontal"	"20.271430000"	"0.2250000000"	"2"	"16"
n/a	"html-keyboard-response"	"216"	"376953"	"0.0-6.0-2.0-0.16"	"jdb9sw"	"600"	"1366"	"chrome"	"108.0.0"	"FALSE"	"Windows 10"	"60.54"	"126"	n/a	n/a	n/a	n/a	n/a	n/a	"fixation"	n/a	n/a	n/a	n/a	"NULL"	n/a	"NULL"	"NULL"	"NULL"	"<p style=\"color: black; font-size: 80px; padding-left: 49%; padding-right: 45%; padding-top: 33%; padding-bottom: 36%\">+</p>"	"1128"	n/a	n/a	n/a	n/a	n/a	n/a	n/a	n/a	n/a
n/a	"image-keyboard-response"	"217"	"377648"	"0.0-6.0-2.0-1.16"	"jdb9sw"	"600"	"1366"	"chrome"	"108.0.0"	"FALSE"	"Windows 10"	"60.54"	"126"	n/a	n/a	n/a	n/a	n/a	n/a	"Trial"	n/a	n/a	n/a	"694"	"arrowleft"	n/a	"NULL"	"NULL"	"NULL"	"stimuli/VerticalHorizontal_11.78571_-0.16217.png"	n/a	"VerticalHorizontal"	"arrowright"	"1144"	"FALSE"	"VerticalHorizontal"	"11.785710000"	"-0.162170000"	"2"	"17"
n/a	"html-keyboard-response"	"218"	"378685"	"0.0-6.0-2.0-0.17"	"jdb9sw"	"600"	"1366"	"chrome"	"108.0.0"	"FALSE"	"Windows 10"	"60.54"	"126"	n/a	n/a	n/a	n/a	n/a	n/a	"fixation"	n/a	n/a	n/a	n/a	"NULL"	n/a	"NULL"	"NULL"	"NULL"	"<p style=\"color: black; font-size: 80px; padding-left: 22%; padding-right: 31%; padding-top: 42%; padding-bottom: 3%\">+</p>"	"1021"	n/a	n/a	n/a	n/a	n/a	n/a	n/a	n/a	n/a
n/a	"image-keyboard-response"	"219"	"379091"	"0.0-6.0-2.0-1.17"	"jdb9sw"	"600"	"1366"	"chrome"	"108.0.0"	"FALSE"	"Windows 10"	"60.54"	"126"	n/a	n/a	n/a	n/a	n/a	n/a	"Trial"	n/a	n/a	n/a	"403"	"arrowleft"	n/a	"NULL"	"NULL"	"NULL"	"stimuli/VerticalHorizontal_-28.75714_0.10960.png"	n/a	"VerticalHorizontal"	"arrowleft"	"1037"	"TRUE"	"VerticalHorizontal"	"-28.75714000"	"0.1096000000"	"2"	"18"
n/a	"html-keyboard-response"	"220"	"380407"	"0.0-6.0-2.0-0.18"	"jdb9sw"	"600"	"1366"	"chrome"	"108.0.0"	"FALSE"	"Windows 10"	"60.54"	"126"	n/a	n/a	n/a	n/a	n/a	n/a	"fixation"	n/a	n/a	n/a	n/a	"NULL"	n/a	"NULL"	"NULL"	"NULL"	"<p style=\"color: black; font-size: 80px; padding-left: 24%; padding-right: 11%; padding-top: 36%; padding-bottom: 7%\">+</p>"	"1302"	n/a	n/a	n/a	n/a	n/a	n/a	n/a	n/a	n/a
n/a	"image-keyboard-response"	"221"	"380757"	"0.0-6.0-2.0-1.18"	"jdb9sw"	"600"	"1366"	"chrome"	"108.0.0"	"FALSE"	"Windows 10"	"60.54"	"126"	n/a	n/a	n/a	n/a	n/a	n/a	"Trial"	n/a	n/a	n/a	"350"	"arrowright"	n/a	"NULL"	"NULL"	"NULL"	"stimuli/VerticalHorizontal_-20.27143_-0.16217.png"	n/a	"VerticalHorizontal"	"arrowright"	"1316"	"TRUE"	"VerticalHorizontal"	"-20.27143000"	"-0.162170000"	"2"	"19"
n/a	"html-keyboard-response"	"222"	"381982"	"0.0-6.0-2.0-0.19"	"jdb9sw"	"600"	"1366"	"chrome"	"108.0.0"	"FALSE"	"Windows 10"	"60.54"	"126"	n/a	n/a	n/a	n/a	n/a	n/a	"fixation"	n/a	n/a	n/a	n/a	"NULL"	n/a	"NULL"	"NULL"	"NULL"	"<p style=\"color: black; font-size: 80px; padding-left: 1%; padding-right: 17%; padding-top: 12%; padding-bottom: 16%\">+</p>"	"1215"	n/a	n/a	n/a	n/a	n/a	n/a	n/a	n/a	n/a
n/a	"image-keyboard-response"	"223"	"382320"	"0.0-6.0-2.0-1.19"	"jdb9sw"	"600"	"1366"	"chrome"	"108.0.0"	"FALSE"	"Windows 10"	"60.54"	"126"	n/a	n/a	n/a	n/a	n/a	n/a	"Trial"	n/a	n/a	n/a	"336"	"arrowright"	n/a	"NULL"	"NULL"	"NULL"	"stimuli/VerticalHorizontal_-28.75714_-0.1096.png"	n/a	"VerticalHorizontal"	"arrowright"	"1225"	"TRUE"	"VerticalHorizontal"	"-28.75714000"	"-0.109600000"	"2"	"20"
n/a	"html-keyboard-response"	"224"	"383577"	"0.0-6.0-2.0-0.20"	"jdb9sw"	"600"	"1366"	"chrome"	"108.0.0"	"FALSE"	"Windows 10"	"60.54"	"126"	n/a	n/a	n/a	n/a	n/a	n/a	"fixation"	n/a	n/a	n/a	n/a	"NULL"	n/a	"NULL"	"NULL"	"NULL"	"<p style=\"color: black; font-size: 80px; padding-left: 1%; padding-right: 42%; padding-top: 25%; padding-bottom: 33%\">+</p>"	"1241"	n/a	n/a	n/a	n/a	n/a	n/a	n/a	n/a	n/a
n/a	"image-keyboard-response"	"225"	"384127"	"0.0-6.0-2.0-1.20"	"jdb9sw"	"600"	"1366"	"chrome"	"108.0.0"	"FALSE"	"Windows 10"	"60.54"	"126"	n/a	n/a	n/a	n/a	n/a	n/a	"Trial"	n/a	n/a	n/a	"549"	"arrowright"	n/a	"NULL"	"NULL"	"NULL"	"stimuli/VerticalHorizontal_20.27143_-0.1096.png"	n/a	"VerticalHorizontal"	"arrowright"	"1257"	"TRUE"	"VerticalHorizontal"	"20.271430000"	"-0.109600000"	"2"	"21"
n/a	"html-keyboard-response"	"226"	"385500"	"0.0-6.0-2.0-0.21"	"jdb9sw"	"600"	"1366"	"chrome"	"108.0.0"	"FALSE"	"Windows 10"	"60.54"	"126"	n/a	n/a	n/a	n/a	n/a	n/a	"fixation"	n/a	n/a	n/a	n/a	"NULL"	n/a	"NULL"	"NULL"	"NULL"	"<p style=\"color: black; font-size: 80px; padding-left: 20%; padding-right: 41%; padding-top: 41%; padding-bottom: 37%\">+</p>"	"1353"	n/a	n/a	n/a	n/a	n/a	n/a	n/a	n/a	n/a
n/a	"image-keyboard-response"	"227"	"385960"	"0.0-6.0-2.0-1.21"	"jdb9sw"	"600"	"1366"	"chrome"	"108.0.0"	"FALSE"	"Windows 10"	"60.54"	"126"	n/a	n/a	n/a	n/a	n/a	n/a	"Trial"	n/a	n/a	n/a	"458"	"arrowleft"	n/a	"NULL"	"NULL"	"NULL"	"stimuli/VerticalHorizontal_28.75714_-0.16217.png"	n/a	"VerticalHorizontal"	"arrowright"	"1373"	"FALSE"	"VerticalHorizontal"	"28.757140000"	"-0.162170000"	"2"	"22"
n/a	"html-keyboard-response"	"228"	"387073"	"0.0-6.0-2.0-0.22"	"jdb9sw"	"600"	"1366"	"chrome"	"108.0.0"	"FALSE"	"Windows 10"	"60.54"	"126"	n/a	n/a	n/a	n/a	n/a	n/a	"fixation"	n/a	n/a	n/a	n/a	"NULL"	n/a	"NULL"	"NULL"	"NULL"	"<p style=\"color: black; font-size: 80px; padding-left: 21%; padding-right: 17%; padding-top: 16%; padding-bottom: 9%\">+</p>"	"1104"	n/a	n/a	n/a	n/a	n/a	n/a	n/a	n/a	n/a
n/a	"image-keyboard-response"	"229"	"388201"	"0.0-6.0-2.0-1.22"	"jdb9sw"	"600"	"1366"	"chrome"	"108.0.0"	"FALSE"	"Windows 10"	"60.54"	"126"	n/a	n/a	n/a	n/a	n/a	n/a	"Trial"	n/a	n/a	n/a	"1127"	"arrowleft"	n/a	"NULL"	"NULL"	"NULL"	"stimuli/VerticalHorizontal_11.78571_-0.0673.png"	n/a	"VerticalHorizontal"	"arrowright"	"1113"	"FALSE"	"VerticalHorizontal"	"11.785710000"	"-0.067300000"	"2"	"23"
n/a	"html-keyboard-response"	"230"	"389621"	"0.0-6.0-2.0-0.23"	"jdb9sw"	"600"	"1366"	"chrome"	"108.0.0"	"FALSE"	"Windows 10"	"60.54"	"126"	n/a	n/a	n/a	n/a	n/a	n/a	"fixation"	n/a	n/a	n/a	n/a	"NULL"	n/a	"NULL"	"NULL"	"NULL"	"<p style=\"color: black; font-size: 80px; padding-left: 37%; padding-right: 3%; padding-top: 19%; padding-bottom: 10%\">+</p>"	"1406"	n/a	n/a	n/a	n/a	n/a	n/a	n/a	n/a	n/a
n/a	"image-keyboard-response"	"231"	"389970"	"0.0-6.0-2.0-1.23"	"jdb9sw"	"600"	"1366"	"chrome"	"108.0.0"	"FALSE"	"Windows 10"	"60.54"	"126"	n/a	n/a	n/a	n/a	n/a	n/a	"Trial"	n/a	n/a	n/a	"347"	"arrowright"	n/a	"NULL"	"NULL"	"NULL"	"stimuli/VerticalHorizontal_28.75714_0.06730.png"	n/a	"VerticalHorizontal"	"arrowleft"	"1420"	"FALSE"	"VerticalHorizontal"	"28.757140000"	"0.0673000000"	"2"	"24"
n/a	"html-keyboard-response"	"232"	"391453"	"0.0-6.0-2.0-0.24"	"jdb9sw"	"600"	"1366"	"chrome"	"108.0.0"	"FALSE"	"Windows 10"	"60.54"	"126"	n/a	n/a	n/a	n/a	n/a	n/a	"fixation"	n/a	n/a	n/a	n/a	"NULL"	n/a	"NULL"	"NULL"	"NULL"	"<p style=\"color: black; font-size: 80px; padding-left: 44%; padding-right: 12%; padding-top: 20%; padding-bottom: 29%\">+</p>"	"1468"	n/a	n/a	n/a	n/a	n/a	n/a	n/a	n/a	n/a
n/a	"image-keyboard-response"	"233"	"392059"	"0.0-6.0-2.0-1.24"	"jdb9sw"	"600"	"1366"	"chrome"	"108.0.0"	"FALSE"	"Windows 10"	"60.54"	"126"	n/a	n/a	n/a	n/a	n/a	n/a	"Trial"	n/a	n/a	n/a	"604"	"arrowright"	n/a	"NULL"	"NULL"	"NULL"	"stimuli/VerticalHorizontal_20.27143_-0.2250.png"	n/a	"VerticalHorizontal"	"arrowright"	"1483"	"TRUE"	"VerticalHorizontal"	"20.271430000"	"-0.225000000"	"2"	"25"
n/a	"html-keyboard-response"	"234"	"393484"	"0.0-6.0-2.0-0.25"	"jdb9sw"	"600"	"1366"	"chrome"	"108.0.0"	"FALSE"	"Windows 10"	"60.54"	"126"	n/a	n/a	n/a	n/a	n/a	n/a	"fixation"	n/a	n/a	n/a	n/a	"NULL"	n/a	"NULL"	"NULL"	"NULL"	"<p style=\"color: black; font-size: 80px; padding-left: 2%; padding-right: 4%; padding-top: 31%; padding-bottom: 48%\">+</p>"	"1413"	n/a	n/a	n/a	n/a	n/a	n/a	n/a	n/a	n/a
n/a	"image-keyboard-response"	"235"	"393896"	"0.0-6.0-2.0-1.25"	"jdb9sw"	"600"	"1366"	"chrome"	"108.0.0"	"FALSE"	"Windows 10"	"60.54"	"126"	n/a	n/a	n/a	n/a	n/a	n/a	"Trial"	n/a	n/a	n/a	"411"	"arrowleft"	n/a	"NULL"	"NULL"	"NULL"	"stimuli/VerticalHorizontal_-20.27143_0.06730.png"	n/a	"VerticalHorizontal"	"arrowleft"	"1425"	"TRUE"	"VerticalHorizontal"	"-20.27143000"	"0.0673000000"	"2"	"26"
n/a	"html-keyboard-response"	"236"	"395201"	"0.0-6.0-2.0-0.26"	"jdb9sw"	"600"	"1366"	"chrome"	"108.0.0"	"FALSE"	"Windows 10"	"60.54"	"126"	n/a	n/a	n/a	n/a	n/a	n/a	"fixation"	n/a	n/a	n/a	n/a	"NULL"	n/a	"NULL"	"NULL"	"NULL"	"<p style=\"color: black; font-size: 80px; padding-left: 11%; padding-right: 23%; padding-top: 47%; padding-bottom: 8%\">+</p>"	"1299"	n/a	n/a	n/a	n/a	n/a	n/a	n/a	n/a	n/a
n/a	"image-keyboard-response"	"237"	"395608"	"0.0-6.0-2.0-1.26"	"jdb9sw"	"600"	"1366"	"chrome"	"108.0.0"	"FALSE"	"Windows 10"	"60.54"	"126"	n/a	n/a	n/a	n/a	n/a	n/a	"Trial"	n/a	n/a	n/a	"407"	"arrowleft"	n/a	"NULL"	"NULL"	"NULL"	"stimuli/VerticalHorizontal_-28.75714_0.06730.png"	n/a	"VerticalHorizontal"	"arrowleft"	"1305"	"TRUE"	"VerticalHorizontal"	"-28.75714000"	"0.0673000000"	"2"	"27"
n/a	"html-keyboard-response"	"238"	"396984"	"0.0-6.0-2.0-0.27"	"jdb9sw"	"600"	"1366"	"chrome"	"108.0.0"	"FALSE"	"Windows 10"	"60.54"	"126"	n/a	n/a	n/a	n/a	n/a	n/a	"fixation"	n/a	n/a	n/a	n/a	"NULL"	n/a	"NULL"	"NULL"	"NULL"	"<p style=\"color: black; font-size: 80px; padding-left: 32%; padding-right: 49%; padding-top: 42%; padding-bottom: 16%\">+</p>"	"1363"	n/a	n/a	n/a	n/a	n/a	n/a	n/a	n/a	n/a
n/a	"image-keyboard-response"	"239"	"397334"	"0.0-6.0-2.0-1.27"	"jdb9sw"	"600"	"1366"	"chrome"	"108.0.0"	"FALSE"	"Windows 10"	"60.54"	"126"	n/a	n/a	n/a	n/a	n/a	n/a	"Trial"	n/a	n/a	n/a	"349"	"arrowright"	n/a	"NULL"	"NULL"	"NULL"	"stimuli/VerticalHorizontal_-11.78571_-0.16217.png"	n/a	"VerticalHorizontal"	"arrowright"	"1376"	"TRUE"	"VerticalHorizontal"	"-11.78571000"	"-0.162170000"	"2"	"28"
n/a	"html-keyboard-response"	"240"	"398453"	"0.0-6.0-2.0-0.28"	"jdb9sw"	"600"	"1366"	"chrome"	"108.0.0"	"FALSE"	"Windows 10"	"60.54"	"126"	n/a	n/a	n/a	n/a	n/a	n/a	"fixation"	n/a	n/a	n/a	n/a	"NULL"	n/a	"NULL"	"NULL"	"NULL"	"<p style=\"color: black; font-size: 80px; padding-left: 5%; padding-right: 18%; padding-top: 14%; padding-bottom: 20%\">+</p>"	"1100"	n/a	n/a	n/a	n/a	n/a	n/a	n/a	n/a	n/a
n/a	"image-keyboard-response"	"241"	"398871"	"0.0-6.0-2.0-1.28"	"jdb9sw"	"600"	"1366"	"chrome"	"108.0.0"	"FALSE"	"Windows 10"	"60.54"	"126"	n/a	n/a	n/a	n/a	n/a	n/a	"Trial"	n/a	n/a	n/a	"417"	"arrowleft"	n/a	"NULL"	"NULL"	"NULL"	"stimuli/VerticalHorizontal_3.30000_0.16217.png"	n/a	"VerticalHorizontal"	"arrowleft"	"1119"	"TRUE"	"VerticalHorizontal"	"3.3000000000"	"0.1621700000"	"2"	"29"
n/a	"html-keyboard-response"	"242"	"400280"	"0.0-6.0-2.0-0.29"	"jdb9sw"	"600"	"1366"	"chrome"	"108.0.0"	"FALSE"	"Windows 10"	"60.54"	"126"	n/a	n/a	n/a	n/a	n/a	n/a	"fixation"	n/a	n/a	n/a	n/a	"NULL"	n/a	"NULL"	"NULL"	"NULL"	"<p style=\"color: black; font-size: 80px; padding-left: 31%; padding-right: 42%; padding-top: 28%; padding-bottom: 42%\">+</p>"	"1395"	n/a	n/a	n/a	n/a	n/a	n/a	n/a	n/a	n/a
n/a	"image-keyboard-response"	"243"	"400956"	"0.0-6.0-2.0-1.29"	"jdb9sw"	"600"	"1366"	"chrome"	"108.0.0"	"FALSE"	"Windows 10"	"60.54"	"126"	n/a	n/a	n/a	n/a	n/a	n/a	"Trial"	n/a	n/a	n/a	"674"	"arrowright"	n/a	"NULL"	"NULL"	"NULL"	"stimuli/VerticalHorizontal_-11.78571_-0.0673.png"	n/a	"VerticalHorizontal"	"arrowright"	"1409"	"TRUE"	"VerticalHorizontal"	"-11.78571000"	"-0.067300000"	"2"	"30"
n/a	"html-keyboard-response"	"244"	"402466"	"0.0-6.0-2.0-0.30"	"jdb9sw"	"600"	"1366"	"chrome"	"108.0.0"	"FALSE"	"Windows 10"	"60.54"	"126"	n/a	n/a	n/a	n/a	n/a	n/a	"fixation"	n/a	n/a	n/a	n/a	"NULL"	n/a	"NULL"	"NULL"	"NULL"	"<p style=\"color: black; font-size: 80px; padding-left: 3%; padding-right: 16%; padding-top: 24%; padding-bottom: 39%\">+</p>"	"1495"	n/a	n/a	n/a	n/a	n/a	n/a	n/a	n/a	n/a
n/a	"image-keyboard-response"	"245"	"402787"	"0.0-6.0-2.0-1.30"	"jdb9sw"	"600"	"1366"	"chrome"	"108.0.0"	"FALSE"	"Windows 10"	"60.54"	"126"	n/a	n/a	n/a	n/a	n/a	n/a	"Trial"	n/a	n/a	n/a	"320"	"arrowright"	n/a	"NULL"	"NULL"	"NULL"	"stimuli/VerticalHorizontal_-20.27143_-0.0673.png"	n/a	"VerticalHorizontal"	"arrowright"	"1510"	"TRUE"	"VerticalHorizontal"	"-20.27143000"	"-0.067300000"	"2"	"31"
n/a	"html-keyboard-response"	"246"	"404013"	"0.0-6.0-2.0-0.31"	"jdb9sw"	"600"	"1366"	"chrome"	"108.0.0"	"FALSE"	"Windows 10"	"60.54"	"126"	n/a	n/a	n/a	n/a	n/a	n/a	"fixation"	n/a	n/a	n/a	n/a	"NULL"	n/a	"NULL"	"NULL"	"NULL"	"<p style=\"color: black; font-size: 80px; padding-left: 18%; padding-right: 50%; padding-top: 8%; padding-bottom: 38%\">+</p>"	"1211"	n/a	n/a	n/a	n/a	n/a	n/a	n/a	n/a	n/a
n/a	"image-keyboard-response"	"247"	"404444"	"0.0-6.0-2.0-1.31"	"jdb9sw"	"600"	"1366"	"chrome"	"108.0.0"	"FALSE"	"Windows 10"	"60.54"	"126"	n/a	n/a	n/a	n/a	n/a	n/a	"Trial"	n/a	n/a	n/a	"429"	"arrowleft"	n/a	"NULL"	"NULL"	"NULL"	"stimuli/VerticalHorizontal_-3.3000_0.06730.png"	n/a	"VerticalHorizontal"	"arrowleft"	"1226"	"TRUE"	"VerticalHorizontal"	"-3.300000000"	"0.0673000000"	"2"	"32"
n/a	"html-keyboard-response"	"248"	"405812"	"0.0-6.0-2.0-0.32"	"jdb9sw"	"600"	"1366"	"chrome"	"108.0.0"	"FALSE"	"Windows 10"	"60.54"	"126"	n/a	n/a	n/a	n/a	n/a	n/a	"fixation"	n/a	n/a	n/a	n/a	"NULL"	n/a	"NULL"	"NULL"	"NULL"	"<p style=\"color: black; font-size: 80px; padding-left: 10%; padding-right: 24%; padding-top: 47%; padding-bottom: 45%\">+</p>"	"1359"	n/a	n/a	n/a	n/a	n/a	n/a	n/a	n/a	n/a
n/a	"image-keyboard-response"	"249"	"406243"	"0.0-6.0-2.0-1.32"	"jdb9sw"	"600"	"1366"	"chrome"	"108.0.0"	"FALSE"	"Windows 10"	"60.54"	"126"	n/a	n/a	n/a	n/a	n/a	n/a	"Trial"	n/a	n/a	n/a	"426"	"arrowright"	n/a	"NULL"	"NULL"	"NULL"	"stimuli/VerticalHorizontal_3.30000_-0.1096.png"	n/a	"VerticalHorizontal"	"arrowright"	"1368"	"TRUE"	"VerticalHorizontal"	"3.3000000000"	"-0.109600000"	"2"	"33"
n/a	"html-keyboard-response"	"250"	"407625"	"0.0-6.0-2.0-0.33"	"jdb9sw"	"600"	"1366"	"chrome"	"108.0.0"	"FALSE"	"Windows 10"	"60.54"	"126"	n/a	n/a	n/a	n/a	n/a	n/a	"fixation"	n/a	n/a	n/a	n/a	"NULL"	n/a	"NULL"	"NULL"	"NULL"	"<p style=\"color: black; font-size: 80px; padding-left: 26%; padding-right: 41%; padding-top: 2%; padding-bottom: 33%\">+</p>"	"1375"	n/a	n/a	n/a	n/a	n/a	n/a	n/a	n/a	n/a
n/a	"image-keyboard-response"	"251"	"407985"	"0.0-6.0-2.0-1.33"	"jdb9sw"	"600"	"1366"	"chrome"	"108.0.0"	"FALSE"	"Windows 10"	"60.54"	"126"	n/a	n/a	n/a	n/a	n/a	n/a	"Trial"	n/a	n/a	n/a	"360"	"arrowleft"	n/a	"NULL"	"NULL"	"NULL"	"stimuli/VerticalHorizontal_-20.27143_0.10960.png"	n/a	"VerticalHorizontal"	"arrowleft"	"1382"	"TRUE"	"VerticalHorizontal"	"-20.27143000"	"0.1096000000"	"2"	"34"
