"success"	"trial_type"	"trial_index"	"time_elapsed"	"internal_node_id"	"participant_id"	"screen_height"	"screen_width"	"browser"	"browser_version"	"mobile"	"os"	"vsync_rate"	"subject_id"	"width"	"height"	"webaudio"	"fullscreen"	"webcam"	"microphone"	"screen"	"version"	"date"	"time"	"rt"	"response"	"timeout"	"failed_images"	"failed_audio"	"failed_video"	"stimulus"	"trial_duration"	"block"	"correct_response"	"prestimulus_duration"	"correct"	"type"	"illusion_strength"	"illusion_difference"	"block_number"	"trial_number"
"TRUE"	"fullscreen"	"0"	"1351"	"0.0-0.0"	"wh9d6b"	"600"	"1366"	"chrome"	"111.0.0"	"FALSE"	"Windows 10"	"60.1"	"049"	n/a	n/a	n/a	n/a	n/a	n/a	n/a	n/a	n/a	n/a	n/a	"NULL"	n/a	"NULL"	"NULL"	"NULL"	n/a	n/a	n/a	n/a	n/a	n/a	n/a	n/a	n/a	n/a	n/a
n/a	"browser-check"	"1"	"2360"	"0.0-1.0"	"wh9d6b"	"600"	"1366"	"chrome"	"111.0.0"	"FALSE"	"Windows 10"	"60.1"	"049"	"1366"	"600"	"TRUE"	"TRUE"	"TRUE"	"TRUE"	"browser_info"	"1.0"	"17/03/2023"	"14:42:54"	n/a	"NULL"	n/a	"NULL"	"NULL"	"NULL"	n/a	n/a	n/a	n/a	n/a	n/a	n/a	n/a	n/a	n/a	n/a
n/a	"survey-text"	"2"	"5113"	"0.0-2.0"	"wh9d6b"	"600"	"1366"	"chrome"	"111.0.0"	"FALSE"	"Windows 10"	"60.1"	"049"	n/a	n/a	n/a	n/a	n/a	n/a	"subject_id"	n/a	n/a	n/a	"2750"	"list(subject_id = \"049\")"	n/a	"NULL"	"NULL"	"NULL"	n/a	n/a	n/a	n/a	n/a	n/a	n/a	n/a	n/a	n/a	n/a
"TRUE"	"preload"	"3"	"5125"	"0.0-3.0"	"wh9d6b"	"600"	"1366"	"chrome"	"111.0.0"	"FALSE"	"Windows 10"	"60.1"	"049"	n/a	n/a	n/a	n/a	n/a	n/a	n/a	n/a	n/a	n/a	n/a	"NULL"	"FALSE"	"list()"	"list()"	"list()"	n/a	n/a	n/a	n/a	n/a	n/a	n/a	n/a	n/a	n/a	n/a
n/a	"html-button-response"	"4"	"90983"	"0.0-4.0-0.0"	"wh9d6b"	"600"	"1366"	"chrome"	"111.0.0"	"FALSE"	"Windows 10"	"60.1"	"049"	n/a	n/a	n/a	n/a	n/a	n/a	"illusion_instructions"	n/a	n/a	n/a	"85856"	"0"	n/a	"NULL"	"NULL"	"NULL"	"<p><b>Illusion Game</b></p><p>In this game of speed and reflex, you will need to make <b>visual judgments</b> (for instance, which circle is the biggest, or which line is the longest), as fast and as correctly as possible, while <b>resisting different visual illusions</b>.</p><p>We are going to start with some examples of all the illusions you will encounter in the game.</p>"	n/a	n/a	n/a	n/a	n/a	n/a	n/a	n/a	n/a	n/a
"TRUE"	"preload"	"5"	"91006"	"0.0-4.0-1.0-0.0"	"wh9d6b"	"600"	"1366"	"chrome"	"111.0.0"	"FALSE"	"Windows 10"	"60.1"	"049"	n/a	n/a	n/a	n/a	n/a	n/a	n/a	n/a	n/a	n/a	n/a	"NULL"	"FALSE"	"list()"	"list()"	"list()"	n/a	n/a	n/a	n/a	n/a	n/a	n/a	n/a	n/a	n/a	n/a
n/a	"html-keyboard-response"	"6"	"104246"	"0.0-4.0-1.0-1.0"	"wh9d6b"	"600"	"1366"	"chrome"	"111.0.0"	"FALSE"	"Windows 10"	"60.1"	"049"	n/a	n/a	n/a	n/a	n/a	n/a	n/a	n/a	n/a	n/a	"13239"	"enter"	n/a	"NULL"	"NULL"	"NULL"	"<p><b>Practice</b></p><p>In this part, two red circles will appear side by side on the screen.</p><p>Your task is to select which <b>red circle is bigger</b> in size as fast as you can, without making errors.</p><p>Don't get distracted by the surrounding black circles around the red circles!</p><p>Press <b>the LEFT or the RIGHT arrow</b> to indicate which is the bigger <b>red circle.</b></p><div style='float: center'><img src='materials/instructions/Ebbinghaus_Demo.png' height='300'></img><p><img src='utils/answer/answer_leftright_keyboard.PNG' height='150'></img></p><p class='small'>In this example, the correct answer is the <b>LEFT arrow</b>.</p></div><p>Are you ready? <b>Press ENTER to start</b></p>"	n/a	n/a	n/a	n/a	n/a	n/a	n/a	n/a	n/a	n/a
n/a	"html-keyboard-response"	"7"	"105828"	"0.0-4.0-1.0-2.0-0.0"	"wh9d6b"	"600"	"1366"	"chrome"	"111.0.0"	"FALSE"	"Windows 10"	"60.1"	"049"	n/a	n/a	n/a	n/a	n/a	n/a	"fixation"	n/a	n/a	n/a	n/a	"NULL"	n/a	"NULL"	"NULL"	"NULL"	"<p style=\"color: black; font-size: 80px; padding-left: 40%; padding-right: 40%; padding-top: 21%; padding-bottom: 46%\">+</p>"	"1060"	n/a	n/a	n/a	n/a	n/a	n/a	n/a	n/a	n/a
n/a	"image-keyboard-response"	"8"	"109094"	"0.0-4.0-1.0-2.0-1.0"	"wh9d6b"	"600"	"1366"	"chrome"	"111.0.0"	"FALSE"	"Windows 10"	"60.1"	"049"	n/a	n/a	n/a	n/a	n/a	n/a	"Trial"	n/a	n/a	n/a	"3264"	"arrowleft"	n/a	"NULL"	"NULL"	"NULL"	"stimuli/Ebbinghaus_1000000_1.40000.png"	n/a	"Ebbinghaus"	"arrowleft"	"1582"	"TRUE"	"Ebbinghaus"	"100000000000"	"1.4000000000"	"1"	"1"
n/a	"html-keyboard-response"	"9"	"110150"	"0.0-4.0-1.0-2.0-0.1"	"wh9d6b"	"600"	"1366"	"chrome"	"111.0.0"	"FALSE"	"Windows 10"	"60.1"	"049"	n/a	n/a	n/a	n/a	n/a	n/a	"fixation"	n/a	n/a	n/a	n/a	"NULL"	n/a	"NULL"	"NULL"	"NULL"	"<p style=\"color: black; font-size: 80px; padding-left: 20%; padding-right: 11%; padding-top: 34%; padding-bottom: 38%\">+</p>"	"1048"	n/a	n/a	n/a	n/a	n/a	n/a	n/a	n/a	n/a
n/a	"image-keyboard-response"	"10"	"110968"	"0.0-4.0-1.0-2.0-1.1"	"wh9d6b"	"600"	"1366"	"chrome"	"111.0.0"	"FALSE"	"Windows 10"	"60.1"	"049"	n/a	n/a	n/a	n/a	n/a	n/a	"Trial"	n/a	n/a	n/a	"817"	"arrowright"	n/a	"NULL"	"NULL"	"NULL"	"stimuli/Ebbinghaus_0000000_-1.4000.png"	n/a	"Ebbinghaus"	"arrowright"	"1056"	"TRUE"	"Ebbinghaus"	"000000000000"	"-1.400000000"	"1"	"2"
n/a	"html-keyboard-response"	"11"	"112348"	"0.0-4.0-1.0-2.0-0.2"	"wh9d6b"	"600"	"1366"	"chrome"	"111.0.0"	"FALSE"	"Windows 10"	"60.1"	"049"	n/a	n/a	n/a	n/a	n/a	n/a	"fixation"	n/a	n/a	n/a	n/a	"NULL"	n/a	"NULL"	"NULL"	"NULL"	"<p style=\"color: black; font-size: 80px; padding-left: 23%; padding-right: 12%; padding-top: 26%; padding-bottom: 38%\">+</p>"	"1374"	n/a	n/a	n/a	n/a	n/a	n/a	n/a	n/a	n/a
n/a	"image-keyboard-response"	"12"	"114917"	"0.0-4.0-1.0-2.0-1.2"	"wh9d6b"	"600"	"1366"	"chrome"	"111.0.0"	"FALSE"	"Windows 10"	"60.1"	"049"	n/a	n/a	n/a	n/a	n/a	n/a	"Trial"	n/a	n/a	n/a	"2568"	"arrowleft"	n/a	"NULL"	"NULL"	"NULL"	"stimuli/Ebbinghaus_0000000_1.40000.png"	n/a	"Ebbinghaus"	"arrowleft"	"1380"	"TRUE"	"Ebbinghaus"	"000000000000"	"1.4000000000"	"1"	"3"
n/a	"html-keyboard-response"	"13"	"116059"	"0.0-4.0-1.0-2.0-0.3"	"wh9d6b"	"600"	"1366"	"chrome"	"111.0.0"	"FALSE"	"Windows 10"	"60.1"	"049"	n/a	n/a	n/a	n/a	n/a	n/a	"fixation"	n/a	n/a	n/a	n/a	"NULL"	n/a	"NULL"	"NULL"	"NULL"	"<p style=\"color: black; font-size: 80px; padding-left: 20%; padding-right: 29%; padding-top: 24%; padding-bottom: 14%\">+</p>"	"1126"	n/a	n/a	n/a	n/a	n/a	n/a	n/a	n/a	n/a
n/a	"image-keyboard-response"	"14"	"119010"	"0.0-4.0-1.0-2.0-1.3"	"wh9d6b"	"600"	"1366"	"chrome"	"111.0.0"	"FALSE"	"Windows 10"	"60.1"	"049"	n/a	n/a	n/a	n/a	n/a	n/a	"Trial"	n/a	n/a	n/a	"2951"	"arrowleft"	n/a	"NULL"	"NULL"	"NULL"	"stimuli/Ebbinghaus_-100000_1.40000.png"	n/a	"Ebbinghaus"	"arrowleft"	"1142"	"TRUE"	"Ebbinghaus"	"-10000000000"	"1.4000000000"	"1"	"4"
n/a	"html-keyboard-response"	"15"	"120186"	"0.0-4.0-1.0-2.0-0.4"	"wh9d6b"	"600"	"1366"	"chrome"	"111.0.0"	"FALSE"	"Windows 10"	"60.1"	"049"	n/a	n/a	n/a	n/a	n/a	n/a	"fixation"	n/a	n/a	n/a	n/a	"NULL"	n/a	"NULL"	"NULL"	"NULL"	"<p style=\"color: black; font-size: 80px; padding-left: 8%; padding-right: 12%; padding-top: 3%; padding-bottom: 19%\">+</p>"	"1169"	n/a	n/a	n/a	n/a	n/a	n/a	n/a	n/a	n/a
n/a	"image-keyboard-response"	"16"	"121461"	"0.0-4.0-1.0-2.0-1.4"	"wh9d6b"	"600"	"1366"	"chrome"	"111.0.0"	"FALSE"	"Windows 10"	"60.1"	"049"	n/a	n/a	n/a	n/a	n/a	n/a	"Trial"	n/a	n/a	n/a	"1274"	"arrowright"	n/a	"NULL"	"NULL"	"NULL"	"stimuli/Ebbinghaus_-100000_-1.4000.png"	n/a	"Ebbinghaus"	"arrowright"	"1176"	"TRUE"	"Ebbinghaus"	"-10000000000"	"-1.400000000"	"1"	"5"
n/a	"html-keyboard-response"	"17"	"122843"	"0.0-4.0-1.0-2.0-0.5"	"wh9d6b"	"600"	"1366"	"chrome"	"111.0.0"	"FALSE"	"Windows 10"	"60.1"	"049"	n/a	n/a	n/a	n/a	n/a	n/a	"fixation"	n/a	n/a	n/a	n/a	"NULL"	n/a	"NULL"	"NULL"	"NULL"	"<p style=\"color: black; font-size: 80px; padding-left: 20%; padding-right: 4%; padding-top: 17%; padding-bottom: 10%\">+</p>"	"1366"	n/a	n/a	n/a	n/a	n/a	n/a	n/a	n/a	n/a
n/a	"image-keyboard-response"	"18"	"126790"	"0.0-4.0-1.0-2.0-1.5"	"wh9d6b"	"600"	"1366"	"chrome"	"111.0.0"	"FALSE"	"Windows 10"	"60.1"	"049"	n/a	n/a	n/a	n/a	n/a	n/a	"Trial"	n/a	n/a	n/a	"3947"	"arrowleft"	n/a	"NULL"	"NULL"	"NULL"	"stimuli/Ebbinghaus_1000000_-1.4000.png"	n/a	"Ebbinghaus"	"arrowright"	"1382"	"FALSE"	"Ebbinghaus"	"100000000000"	"-1.400000000"	"1"	"6"
n/a	"html-button-response"	"19"	"135127"	"0.0-4.0-1.0-3.0"	"wh9d6b"	"600"	"1366"	"chrome"	"111.0.0"	"FALSE"	"Windows 10"	"60.1"	"049"	n/a	n/a	n/a	n/a	n/a	n/a	"practice_block_results"	n/a	n/a	n/a	"8334"	"0"	n/a	"NULL"	"NULL"	"NULL"	"<p style='color:rgb(76,175,80);'> Correct Responses: <b>83.33%</b></p><hr><p style='color:rgb(233,30,99);'> Average Response Time: <b>2470.17</b> ms.</p>"	n/a	n/a	n/a	n/a	n/a	n/a	n/a	n/a	n/a	n/a
"TRUE"	"preload"	"20"	"135659"	"0.0-4.0-2.0-0.0"	"wh9d6b"	"600"	"1366"	"chrome"	"111.0.0"	"FALSE"	"Windows 10"	"60.1"	"049"	n/a	n/a	n/a	n/a	n/a	n/a	n/a	n/a	n/a	n/a	n/a	"NULL"	"FALSE"	"list()"	"list()"	"list()"	n/a	n/a	n/a	n/a	n/a	n/a	n/a	n/a	n/a	n/a	n/a
n/a	"html-keyboard-response"	"21"	"148940"	"0.0-4.0-2.0-1.0"	"wh9d6b"	"600"	"1366"	"chrome"	"111.0.0"	"FALSE"	"Windows 10"	"60.1"	"049"	n/a	n/a	n/a	n/a	n/a	n/a	n/a	n/a	n/a	n/a	"13281"	"enter"	n/a	"NULL"	"NULL"	"NULL"	"<p><b>Practice</b></p><p>In this part, two horizontal red lines will appear one above the other.</p><p>Your task is to select which <b>line is longer</b> in length as fast as you can, without making errors.</p><p>Don't get distracted by the surrounding black arrows at the end of the red lines!</p><p>Press <b>the UP or the DOWN arrow</b> to indicate where is the longer <b>red line.</b></p><div style='float: center'><img src='materials/instructions/MullerLyer_Demo.png' height='300'></img><p><img src='utils/answer/answer_updown_keyboard.PNG' height='150'></img></p><p class='small'>In this example, the correct answer is the <b>UP arrow</b>.</p></div><p>Are you ready? <b>Press ENTER to start</b></p>"	n/a	n/a	n/a	n/a	n/a	n/a	n/a	n/a	n/a	n/a
n/a	"html-keyboard-response"	"22"	"150609"	"0.0-4.0-2.0-2.0-0.0"	"wh9d6b"	"600"	"1366"	"chrome"	"111.0.0"	"FALSE"	"Windows 10"	"60.1"	"049"	n/a	n/a	n/a	n/a	n/a	n/a	"fixation"	n/a	n/a	n/a	n/a	"NULL"	n/a	"NULL"	"NULL"	"NULL"	"<p style=\"color: black; font-size: 80px; padding-left: 37%; padding-right: 10%; padding-top: 47%; padding-bottom: 3%\">+</p>"	"1156"	n/a	n/a	n/a	n/a	n/a	n/a	n/a	n/a	n/a
n/a	"image-keyboard-response"	"23"	"151308"	"0.0-4.0-2.0-2.0-1.0"	"wh9d6b"	"600"	"1366"	"chrome"	"111.0.0"	"FALSE"	"Windows 10"	"60.1"	"049"	n/a	n/a	n/a	n/a	n/a	n/a	"Trial"	n/a	n/a	n/a	"699"	"arrowdown"	n/a	"NULL"	"NULL"	"NULL"	"stimuli/MullerLyer_0000000_-0.7000.png"	n/a	"MullerLyer"	"arrowdown"	"1669"	"TRUE"	"MullerLyer"	"000000000000"	"-0.700000000"	"1"	"7"
n/a	"html-keyboard-response"	"24"	"152717"	"0.0-4.0-2.0-2.0-0.1"	"wh9d6b"	"600"	"1366"	"chrome"	"111.0.0"	"FALSE"	"Windows 10"	"60.1"	"049"	n/a	n/a	n/a	n/a	n/a	n/a	"fixation"	n/a	n/a	n/a	n/a	"NULL"	n/a	"NULL"	"NULL"	"NULL"	"<p style=\"color: black; font-size: 80px; padding-left: 1%; padding-right: 43%; padding-top: 1%; padding-bottom: 45%\">+</p>"	"1405"	n/a	n/a	n/a	n/a	n/a	n/a	n/a	n/a	n/a
n/a	"image-keyboard-response"	"25"	"153122"	"0.0-4.0-2.0-2.0-1.1"	"wh9d6b"	"600"	"1366"	"chrome"	"111.0.0"	"FALSE"	"Windows 10"	"60.1"	"049"	n/a	n/a	n/a	n/a	n/a	n/a	"Trial"	n/a	n/a	n/a	"404"	"arrowup"	n/a	"NULL"	"NULL"	"NULL"	"stimuli/MullerLyer_0000000_0.70000.png"	n/a	"MullerLyer"	"arrowup"	"1409"	"TRUE"	"MullerLyer"	"000000000000"	"0.7000000000"	"1"	"8"
n/a	"html-keyboard-response"	"26"	"154358"	"0.0-4.0-2.0-2.0-0.2"	"wh9d6b"	"600"	"1366"	"chrome"	"111.0.0"	"FALSE"	"Windows 10"	"60.1"	"049"	n/a	n/a	n/a	n/a	n/a	n/a	"fixation"	n/a	n/a	n/a	n/a	"NULL"	n/a	"NULL"	"NULL"	"NULL"	"<p style=\"color: black; font-size: 80px; padding-left: 23%; padding-right: 39%; padding-top: 27%; padding-bottom: 36%\">+</p>"	"1228"	n/a	n/a	n/a	n/a	n/a	n/a	n/a	n/a	n/a
n/a	"image-keyboard-response"	"27"	"154831"	"0.0-4.0-2.0-2.0-1.2"	"wh9d6b"	"600"	"1366"	"chrome"	"111.0.0"	"FALSE"	"Windows 10"	"60.1"	"049"	n/a	n/a	n/a	n/a	n/a	n/a	"Trial"	n/a	n/a	n/a	"472"	"arrowup"	n/a	"NULL"	"NULL"	"NULL"	"stimuli/MullerLyer_2300000_0.70000.png"	n/a	"MullerLyer"	"arrowup"	"1236"	"TRUE"	"MullerLyer"	"230000000000"	"0.7000000000"	"1"	"9"
n/a	"html-keyboard-response"	"28"	"156156"	"0.0-4.0-2.0-2.0-0.3"	"wh9d6b"	"600"	"1366"	"chrome"	"111.0.0"	"FALSE"	"Windows 10"	"60.1"	"049"	n/a	n/a	n/a	n/a	n/a	n/a	"fixation"	n/a	n/a	n/a	n/a	"NULL"	n/a	"NULL"	"NULL"	"NULL"	"<p style=\"color: black; font-size: 80px; padding-left: 7%; padding-right: 4%; padding-top: 22%; padding-bottom: 47%\">+</p>"	"1324"	n/a	n/a	n/a	n/a	n/a	n/a	n/a	n/a	n/a
n/a	"image-keyboard-response"	"29"	"156622"	"0.0-4.0-2.0-2.0-1.3"	"wh9d6b"	"600"	"1366"	"chrome"	"111.0.0"	"FALSE"	"Windows 10"	"60.1"	"049"	n/a	n/a	n/a	n/a	n/a	n/a	"Trial"	n/a	n/a	n/a	"465"	"arrowdown"	n/a	"NULL"	"NULL"	"NULL"	"stimuli/MullerLyer_-230000_-0.7000.png"	n/a	"MullerLyer"	"arrowdown"	"1325"	"TRUE"	"MullerLyer"	"-23000000000"	"-0.700000000"	"1"	"10"
n/a	"html-keyboard-response"	"30"	"157650"	"0.0-4.0-2.0-2.0-0.4"	"wh9d6b"	"600"	"1366"	"chrome"	"111.0.0"	"FALSE"	"Windows 10"	"60.1"	"049"	n/a	n/a	n/a	n/a	n/a	n/a	"fixation"	n/a	n/a	n/a	n/a	"NULL"	n/a	"NULL"	"NULL"	"NULL"	"<p style=\"color: black; font-size: 80px; padding-left: 9%; padding-right: 17%; padding-top: 25%; padding-bottom: 49%\">+</p>"	"1025"	n/a	n/a	n/a	n/a	n/a	n/a	n/a	n/a	n/a
n/a	"image-keyboard-response"	"31"	"158077"	"0.0-4.0-2.0-2.0-1.4"	"wh9d6b"	"600"	"1366"	"chrome"	"111.0.0"	"FALSE"	"Windows 10"	"60.1"	"049"	n/a	n/a	n/a	n/a	n/a	n/a	"Trial"	n/a	n/a	n/a	"427"	"arrowup"	n/a	"NULL"	"NULL"	"NULL"	"stimuli/MullerLyer_-230000_0.70000.png"	n/a	"MullerLyer"	"arrowup"	"1028"	"TRUE"	"MullerLyer"	"-23000000000"	"0.7000000000"	"1"	"11"
n/a	"html-keyboard-response"	"32"	"159257"	"0.0-4.0-2.0-2.0-0.5"	"wh9d6b"	"600"	"1366"	"chrome"	"111.0.0"	"FALSE"	"Windows 10"	"60.1"	"049"	n/a	n/a	n/a	n/a	n/a	n/a	"fixation"	n/a	n/a	n/a	n/a	"NULL"	n/a	"NULL"	"NULL"	"NULL"	"<p style=\"color: black; font-size: 80px; padding-left: 9%; padding-right: 16%; padding-top: 48%; padding-bottom: 41%\">+</p>"	"1168"	n/a	n/a	n/a	n/a	n/a	n/a	n/a	n/a	n/a
n/a	"image-keyboard-response"	"33"	"159738"	"0.0-4.0-2.0-2.0-1.5"	"wh9d6b"	"600"	"1366"	"chrome"	"111.0.0"	"FALSE"	"Windows 10"	"60.1"	"049"	n/a	n/a	n/a	n/a	n/a	n/a	"Trial"	n/a	n/a	n/a	"481"	"arrowdown"	n/a	"NULL"	"NULL"	"NULL"	"stimuli/MullerLyer_2300000_-0.7000.png"	n/a	"MullerLyer"	"arrowdown"	"1180"	"TRUE"	"MullerLyer"	"230000000000"	"-0.700000000"	"1"	"12"
n/a	"html-button-response"	"34"	"163974"	"0.0-4.0-2.0-3.0"	"wh9d6b"	"600"	"1366"	"chrome"	"111.0.0"	"FALSE"	"Windows 10"	"60.1"	"049"	n/a	n/a	n/a	n/a	n/a	n/a	"practice_block_results"	n/a	n/a	n/a	"4235"	"0"	n/a	"NULL"	"NULL"	"NULL"	"<p style='color:rgb(76,175,80);'> Correct Responses: <b>100.00%</b></p><hr><p style='color:rgb(233,30,99);'> Average Response Time: <b>491.33</b> ms.</p>"	n/a	n/a	n/a	n/a	n/a	n/a	n/a	n/a	n/a	n/a
"TRUE"	"preload"	"35"	"164494"	"0.0-4.0-3.0-0.0"	"wh9d6b"	"600"	"1366"	"chrome"	"111.0.0"	"FALSE"	"Windows 10"	"60.1"	"049"	n/a	n/a	n/a	n/a	n/a	n/a	n/a	n/a	n/a	n/a	n/a	"NULL"	"FALSE"	"list()"	"list()"	"list()"	n/a	n/a	n/a	n/a	n/a	n/a	n/a	n/a	n/a	n/a	n/a
n/a	"html-keyboard-response"	"36"	"171624"	"0.0-4.0-3.0-1.0"	"wh9d6b"	"600"	"1366"	"chrome"	"111.0.0"	"FALSE"	"Windows 10"	"60.1"	"049"	n/a	n/a	n/a	n/a	n/a	n/a	n/a	n/a	n/a	n/a	"7129"	"enter"	n/a	"NULL"	"NULL"	"NULL"	"<p><b>Practice</b></p><p>In this part, two red lines will appear side by side.</p><p>Your task is to tell <b>which line is longer</b> in length, regardless of their orientation, as fast as you can, and without making errors.</p><p>Don't get distracted by the orientation of the lines!</p><p>Press <b>the LEFT or the RIGHT arrow</b> to indicate which <b>line is the longer one.</b></p><div style='float: center'><img src='materials/instructions/VerticalHorizontal_Demo.png' height='300'></img><p><img src='utils/answer/answer_leftright_keyboard.PNG' height='150'></img></p><p class='small'>In this example, the correct answer is the <b>LEFT arrow</b>.</p></div><p>Are you ready? <b>Press ENTER to start</b></p>"	n/a	n/a	n/a	n/a	n/a	n/a	n/a	n/a	n/a	n/a
n/a	"html-keyboard-response"	"37"	"173419"	"0.0-4.0-3.0-2.0-0.0"	"wh9d6b"	"600"	"1366"	"chrome"	"111.0.0"	"FALSE"	"Windows 10"	"60.1"	"049"	n/a	n/a	n/a	n/a	n/a	n/a	"fixation"	n/a	n/a	n/a	n/a	"NULL"	n/a	"NULL"	"NULL"	"NULL"	"<p style=\"color: black; font-size: 80px; padding-left: 37%; padding-right: 22%; padding-top: 21%; padding-bottom: 3%\">+</p>"	"1289"	n/a	n/a	n/a	n/a	n/a	n/a	n/a	n/a	n/a
n/a	"image-keyboard-response"	"38"	"173800"	"0.0-4.0-3.0-2.0-1.0"	"wh9d6b"	"600"	"1366"	"chrome"	"111.0.0"	"FALSE"	"Windows 10"	"60.1"	"049"	n/a	n/a	n/a	n/a	n/a	n/a	"Trial"	n/a	n/a	n/a	"380"	"arrowright"	n/a	"NULL"	"NULL"	"NULL"	"stimuli/VerticalHorizontal_0000000_-0.9000.png"	n/a	"VerticalHorizontal"	"arrowright"	"1795"	"TRUE"	"VerticalHorizontal"	"000000000000"	"-0.900000000"	"1"	"13"
n/a	"html-keyboard-response"	"39"	"175148"	"0.0-4.0-3.0-2.0-0.1"	"wh9d6b"	"600"	"1366"	"chrome"	"111.0.0"	"FALSE"	"Windows 10"	"60.1"	"049"	n/a	n/a	n/a	n/a	n/a	n/a	"fixation"	n/a	n/a	n/a	n/a	"NULL"	n/a	"NULL"	"NULL"	"NULL"	"<p style=\"color: black; font-size: 80px; padding-left: 17%; padding-right: 1%; padding-top: 12%; padding-bottom: 49%\">+</p>"	"1339"	n/a	n/a	n/a	n/a	n/a	n/a	n/a	n/a	n/a
n/a	"image-keyboard-response"	"40"	"175532"	"0.0-4.0-3.0-2.0-1.1"	"wh9d6b"	"600"	"1366"	"chrome"	"111.0.0"	"FALSE"	"Windows 10"	"60.1"	"049"	n/a	n/a	n/a	n/a	n/a	n/a	"Trial"	n/a	n/a	n/a	"384"	"arrowright"	n/a	"NULL"	"NULL"	"NULL"	"stimuli/VerticalHorizontal_-330000_-0.9000.png"	n/a	"VerticalHorizontal"	"arrowright"	"1348"	"TRUE"	"VerticalHorizontal"	"-33000000000"	"-0.900000000"	"1"	"14"
n/a	"html-keyboard-response"	"41"	"176689"	"0.0-4.0-3.0-2.0-0.2"	"wh9d6b"	"600"	"1366"	"chrome"	"111.0.0"	"FALSE"	"Windows 10"	"60.1"	"049"	n/a	n/a	n/a	n/a	n/a	n/a	"fixation"	n/a	n/a	n/a	n/a	"NULL"	n/a	"NULL"	"NULL"	"NULL"	"<p style=\"color: black; font-size: 80px; padding-left: 27%; padding-right: 44%; padding-top: 12%; padding-bottom: 36%\">+</p>"	"1149"	n/a	n/a	n/a	n/a	n/a	n/a	n/a	n/a	n/a
n/a	"image-keyboard-response"	"42"	"177022"	"0.0-4.0-3.0-2.0-1.2"	"wh9d6b"	"600"	"1366"	"chrome"	"111.0.0"	"FALSE"	"Windows 10"	"60.1"	"049"	n/a	n/a	n/a	n/a	n/a	n/a	"Trial"	n/a	n/a	n/a	"333"	"arrowleft"	n/a	"NULL"	"NULL"	"NULL"	"stimuli/VerticalHorizontal_-330000_0.90000.png"	n/a	"VerticalHorizontal"	"arrowleft"	"1157"	"TRUE"	"VerticalHorizontal"	"-33000000000"	"0.9000000000"	"1"	"15"
n/a	"html-keyboard-response"	"43"	"178218"	"0.0-4.0-3.0-2.0-0.3"	"wh9d6b"	"600"	"1366"	"chrome"	"111.0.0"	"FALSE"	"Windows 10"	"60.1"	"049"	n/a	n/a	n/a	n/a	n/a	n/a	"fixation"	n/a	n/a	n/a	n/a	"NULL"	n/a	"NULL"	"NULL"	"NULL"	"<p style=\"color: black; font-size: 80px; padding-left: 37%; padding-right: 30%; padding-top: 38%; padding-bottom: 39%\">+</p>"	"1184"	n/a	n/a	n/a	n/a	n/a	n/a	n/a	n/a	n/a
n/a	"image-keyboard-response"	"44"	"178619"	"0.0-4.0-3.0-2.0-1.3"	"wh9d6b"	"600"	"1366"	"chrome"	"111.0.0"	"FALSE"	"Windows 10"	"60.1"	"049"	n/a	n/a	n/a	n/a	n/a	n/a	"Trial"	n/a	n/a	n/a	"400"	"arrowleft"	n/a	"NULL"	"NULL"	"NULL"	"stimuli/VerticalHorizontal_3300000_0.90000.png"	n/a	"VerticalHorizontal"	"arrowleft"	"1196"	"TRUE"	"VerticalHorizontal"	"330000000000"	"0.9000000000"	"1"	"16"
n/a	"html-keyboard-response"	"45"	"179873"	"0.0-4.0-3.0-2.0-0.4"	"wh9d6b"	"600"	"1366"	"chrome"	"111.0.0"	"FALSE"	"Windows 10"	"60.1"	"049"	n/a	n/a	n/a	n/a	n/a	n/a	"fixation"	n/a	n/a	n/a	n/a	"NULL"	n/a	"NULL"	"NULL"	"NULL"	"<p style=\"color: black; font-size: 80px; padding-left: 13%; padding-right: 18%; padding-top: 21%; padding-bottom: 27%\">+</p>"	"1252"	n/a	n/a	n/a	n/a	n/a	n/a	n/a	n/a	n/a
n/a	"image-keyboard-response"	"46"	"180251"	"0.0-4.0-3.0-2.0-1.4"	"wh9d6b"	"600"	"1366"	"chrome"	"111.0.0"	"FALSE"	"Windows 10"	"60.1"	"049"	n/a	n/a	n/a	n/a	n/a	n/a	"Trial"	n/a	n/a	n/a	"377"	"arrowleft"	n/a	"NULL"	"NULL"	"NULL"	"stimuli/VerticalHorizontal_0000000_0.90000.png"	n/a	"VerticalHorizontal"	"arrowleft"	"1254"	"TRUE"	"VerticalHorizontal"	"000000000000"	"0.9000000000"	"1"	"17"
n/a	"html-keyboard-response"	"47"	"181449"	"0.0-4.0-3.0-2.0-0.5"	"wh9d6b"	"600"	"1366"	"chrome"	"111.0.0"	"FALSE"	"Windows 10"	"60.1"	"049"	n/a	n/a	n/a	n/a	n/a	n/a	"fixation"	n/a	n/a	n/a	n/a	"NULL"	n/a	"NULL"	"NULL"	"NULL"	"<p style=\"color: black; font-size: 80px; padding-left: 24%; padding-right: 27%; padding-top: 36%; padding-bottom: 22%\">+</p>"	"1190"	n/a	n/a	n/a	n/a	n/a	n/a	n/a	n/a	n/a
n/a	"image-keyboard-response"	"48"	"181831"	"0.0-4.0-3.0-2.0-1.5"	"wh9d6b"	"600"	"1366"	"chrome"	"111.0.0"	"FALSE"	"Windows 10"	"60.1"	"049"	n/a	n/a	n/a	n/a	n/a	n/a	"Trial"	n/a	n/a	n/a	"382"	"arrowright"	n/a	"NULL"	"NULL"	"NULL"	"stimuli/VerticalHorizontal_3300000_-0.9000.png"	n/a	"VerticalHorizontal"	"arrowright"	"1198"	"TRUE"	"VerticalHorizontal"	"330000000000"	"-0.900000000"	"1"	"18"
n/a	"html-button-response"	"49"	"184846"	"0.0-4.0-3.0-3.0"	"wh9d6b"	"600"	"1366"	"chrome"	"111.0.0"	"FALSE"	"Windows 10"	"60.1"	"049"	n/a	n/a	n/a	n/a	n/a	n/a	"practice_block_results"	n/a	n/a	n/a	"3014"	"0"	n/a	"NULL"	"NULL"	"NULL"	"<p style='color:rgb(76,175,80);'> Correct Responses: <b>100.00%</b></p><hr><p style='color:rgb(233,30,99);'> Average Response Time: <b>376.00</b> ms.</p>"	n/a	n/a	n/a	n/a	n/a	n/a	n/a	n/a	n/a	n/a
n/a	"html-button-response"	"50"	"239934"	"0.0-4.0-4.0"	"wh9d6b"	"600"	"1366"	"chrome"	"111.0.0"	"FALSE"	"Windows 10"	"60.1"	"049"	n/a	n/a	n/a	n/a	n/a	n/a	"practice_debrief"	n/a	n/a	n/a	"54585"	"0"	n/a	"NULL"	"NULL"	"NULL"	"<p><b>TRAINING COMPLETED</b></p><p>In the next phase, there will be more trials, and some might be harder too.<br> Moreover, after each illusion block, a <b>score</b> will be calculated based on speed (time you took to answer) and accuracy (number of errors).</p><p>Try to keep up a high score!</p><br><p>Note that it can be <i>really</i> challenging at times, so you will need to rely on your <b>intuition</b> and gut feeling to answer as fast as you can without making errors.</p><p>Each illusion block will be repeated two times (so that you have the opportunity to improve your score), but the order of the blocks is random.</p><p>Remember, your goal is to be as <b>fast</b> and <b>accurate</b> as possible. Good luck!</p><br>"	n/a	n/a	n/a	n/a	n/a	n/a	n/a	n/a	n/a	n/a
"TRUE"	"preload"	"51"	"240111"	"0.0-5.0-0.0"	"wh9d6b"	"600"	"1366"	"chrome"	"111.0.0"	"FALSE"	"Windows 10"	"60.1"	"049"	n/a	n/a	n/a	n/a	n/a	n/a	n/a	n/a	n/a	n/a	n/a	"NULL"	"FALSE"	"list()"	"list()"	"list()"	n/a	n/a	n/a	n/a	n/a	n/a	n/a	n/a	n/a	n/a	n/a
n/a	"html-keyboard-response"	"52"	"247958"	"0.0-5.0-1.0"	"wh9d6b"	"600"	"1366"	"chrome"	"111.0.0"	"FALSE"	"Windows 10"	"60.1"	"049"	n/a	n/a	n/a	n/a	n/a	n/a	n/a	n/a	n/a	n/a	"7845"	"enter"	n/a	"NULL"	"NULL"	"NULL"	"<p><b>Part 1/6</b></p><p>In this part, two horizontal red lines will appear one above the other.</p><p>Your task is to select which <b>line is longer</b> in length as fast as you can, without making errors.</p><p>Don't get distracted by the surrounding black arrows at the end of the red lines!</p><p>Press <b>the UP or the DOWN arrow</b> to indicate where is the longer <b>red line.</b></p><div style='float: center'><img src='materials/instructions/MullerLyer_Demo.png' height='300'></img><p><img src='utils/answer/answer_updown_keyboard.PNG' height='150'></img></p><p class='small'>In this example, the correct answer is the <b>UP arrow</b>.</p></div><p>Are you ready? <b>Press ENTER to start</b></p>"	n/a	n/a	n/a	n/a	n/a	n/a	n/a	n/a	n/a	n/a
n/a	"html-keyboard-response"	"53"	"249712"	"0.0-5.0-2.0-0.0"	"wh9d6b"	"600"	"1366"	"chrome"	"111.0.0"	"FALSE"	"Windows 10"	"60.1"	"049"	n/a	n/a	n/a	n/a	n/a	n/a	"fixation"	n/a	n/a	n/a	n/a	"NULL"	n/a	"NULL"	"NULL"	"NULL"	"<p style=\"color: black; font-size: 80px; padding-left: 27%; padding-right: 34%; padding-top: 49%; padding-bottom: 37%\">+</p>"	"1224"	n/a	n/a	n/a	n/a	n/a	n/a	n/a	n/a	n/a
n/a	"image-keyboard-response"	"54"	"250174"	"0.0-5.0-2.0-1.0"	"wh9d6b"	"600"	"1366"	"chrome"	"111.0.0"	"FALSE"	"Windows 10"	"60.1"	"049"	n/a	n/a	n/a	n/a	n/a	n/a	"Trial"	n/a	n/a	n/a	"462"	"arrowup"	n/a	"NULL"	"NULL"	"NULL"	"stimuli/MullerLyer_-8.21429_0.07627.png"	n/a	"MullerLyer"	"arrowup"	"1754"	"TRUE"	"MullerLyer"	"-8.214290000"	"0.0762700000"	"1"	"19"
n/a	"html-keyboard-response"	"55"	"251649"	"0.0-5.0-2.0-0.1"	"wh9d6b"	"600"	"1366"	"chrome"	"111.0.0"	"FALSE"	"Windows 10"	"60.1"	"049"	n/a	n/a	n/a	n/a	n/a	n/a	"fixation"	n/a	n/a	n/a	n/a	"NULL"	n/a	"NULL"	"NULL"	"NULL"	"<p style=\"color: black; font-size: 80px; padding-left: 31%; padding-right: 38%; padding-top: 41%; padding-bottom: 35%\">+</p>"	"1472"	n/a	n/a	n/a	n/a	n/a	n/a	n/a	n/a	n/a
n/a	"image-keyboard-response"	"56"	"252086"	"0.0-5.0-2.0-1.1"	"wh9d6b"	"600"	"1366"	"chrome"	"111.0.0"	"FALSE"	"Windows 10"	"60.1"	"049"	n/a	n/a	n/a	n/a	n/a	n/a	"Trial"	n/a	n/a	n/a	"436"	"arrowup"	n/a	"NULL"	"NULL"	"NULL"	"stimuli/MullerLyer_8.21429_0.23665.png"	n/a	"MullerLyer"	"arrowup"	"1475"	"TRUE"	"MullerLyer"	"8.2142900000"	"0.2366500000"	"1"	"20"
n/a	"html-keyboard-response"	"57"	"253419"	"0.0-5.0-2.0-0.2"	"wh9d6b"	"600"	"1366"	"chrome"	"111.0.0"	"FALSE"	"Windows 10"	"60.1"	"049"	n/a	n/a	n/a	n/a	n/a	n/a	"fixation"	n/a	n/a	n/a	n/a	"NULL"	n/a	"NULL"	"NULL"	"NULL"	"<p style=\"color: black; font-size: 80px; padding-left: 2%; padding-right: 9%; padding-top: 1%; padding-bottom: 12%\">+</p>"	"1317"	n/a	n/a	n/a	n/a	n/a	n/a	n/a	n/a	n/a
n/a	"image-keyboard-response"	"58"	"253977"	"0.0-5.0-2.0-1.2"	"wh9d6b"	"600"	"1366"	"chrome"	"111.0.0"	"FALSE"	"Windows 10"	"60.1"	"049"	n/a	n/a	n/a	n/a	n/a	n/a	"Trial"	n/a	n/a	n/a	"558"	"arrowdown"	n/a	"NULL"	"NULL"	"NULL"	"stimuli/MullerLyer_-8.21429_-0.23665.png"	n/a	"MullerLyer"	"arrowdown"	"1333"	"TRUE"	"MullerLyer"	"-8.214290000"	"-0.236650000"	"1"	"21"
n/a	"html-keyboard-response"	"59"	"255055"	"0.0-5.0-2.0-0.3"	"wh9d6b"	"600"	"1366"	"chrome"	"111.0.0"	"FALSE"	"Windows 10"	"60.1"	"049"	n/a	n/a	n/a	n/a	n/a	n/a	"fixation"	n/a	n/a	n/a	n/a	"NULL"	n/a	"NULL"	"NULL"	"NULL"	"<p style=\"color: black; font-size: 80px; padding-left: 1%; padding-right: 48%; padding-top: 36%; padding-bottom: 2%\">+</p>"	"1064"	n/a	n/a	n/a	n/a	n/a	n/a	n/a	n/a	n/a
n/a	"image-keyboard-response"	"60"	"255483"	"0.0-5.0-2.0-1.3"	"wh9d6b"	"600"	"1366"	"chrome"	"111.0.0"	"FALSE"	"Windows 10"	"60.1"	"049"	n/a	n/a	n/a	n/a	n/a	n/a	"Trial"	n/a	n/a	n/a	"428"	"arrowup"	n/a	"NULL"	"NULL"	"NULL"	"stimuli/MullerLyer_-14.12857_0.14541.png"	n/a	"MullerLyer"	"arrowup"	"1078"	"TRUE"	"MullerLyer"	"-14.12857000"	"0.1454100000"	"1"	"22"
n/a	"html-keyboard-response"	"61"	"256699"	"0.0-5.0-2.0-0.4"	"wh9d6b"	"600"	"1366"	"chrome"	"111.0.0"	"FALSE"	"Windows 10"	"60.1"	"049"	n/a	n/a	n/a	n/a	n/a	n/a	"fixation"	n/a	n/a	n/a	n/a	"NULL"	n/a	"NULL"	"NULL"	"NULL"	"<p style=\"color: black; font-size: 80px; padding-left: 45%; padding-right: 22%; padding-top: 27%; padding-bottom: 15%\">+</p>"	"1211"	n/a	n/a	n/a	n/a	n/a	n/a	n/a	n/a	n/a
n/a	"image-keyboard-response"	"62"	"257147"	"0.0-5.0-2.0-1.4"	"wh9d6b"	"600"	"1366"	"chrome"	"111.0.0"	"FALSE"	"Windows 10"	"60.1"	"049"	n/a	n/a	n/a	n/a	n/a	n/a	"Trial"	n/a	n/a	n/a	"447"	"arrowdown"	n/a	"NULL"	"NULL"	"NULL"	"stimuli/MullerLyer_2.30000_-0.23665.png"	n/a	"MullerLyer"	"arrowdown"	"1216"	"TRUE"	"MullerLyer"	"2.3000000000"	"-0.236650000"	"1"	"23"
n/a	"html-keyboard-response"	"63"	"258350"	"0.0-5.0-2.0-0.5"	"wh9d6b"	"600"	"1366"	"chrome"	"111.0.0"	"FALSE"	"Windows 10"	"60.1"	"049"	n/a	n/a	n/a	n/a	n/a	n/a	"fixation"	n/a	n/a	n/a	n/a	"NULL"	n/a	"NULL"	"NULL"	"NULL"	"<p style=\"color: black; font-size: 80px; padding-left: 9%; padding-right: 19%; padding-top: 44%; padding-bottom: 23%\">+</p>"	"1191"	n/a	n/a	n/a	n/a	n/a	n/a	n/a	n/a	n/a
n/a	"image-keyboard-response"	"64"	"258759"	"0.0-5.0-2.0-1.5"	"wh9d6b"	"600"	"1366"	"chrome"	"111.0.0"	"FALSE"	"Windows 10"	"60.1"	"049"	n/a	n/a	n/a	n/a	n/a	n/a	"Trial"	n/a	n/a	n/a	"408"	"arrowdown"	n/a	"NULL"	"NULL"	"NULL"	"stimuli/MullerLyer_-2.3000_-0.3500.png"	n/a	"MullerLyer"	"arrowdown"	"1203"	"TRUE"	"MullerLyer"	"-2.300000000"	"-0.350000000"	"1"	"24"
n/a	"html-keyboard-response"	"65"	"259989"	"0.0-5.0-2.0-0.6"	"wh9d6b"	"600"	"1366"	"chrome"	"111.0.0"	"FALSE"	"Windows 10"	"60.1"	"049"	n/a	n/a	n/a	n/a	n/a	n/a	"fixation"	n/a	n/a	n/a	n/a	"NULL"	n/a	"NULL"	"NULL"	"NULL"	"<p style=\"color: black; font-size: 80px; padding-left: 1%; padding-right: 14%; padding-top: 22%; padding-bottom: 47%\">+</p>"	"1228"	n/a	n/a	n/a	n/a	n/a	n/a	n/a	n/a	n/a
n/a	"image-keyboard-response"	"66"	"260476"	"0.0-5.0-2.0-1.6"	"wh9d6b"	"600"	"1366"	"chrome"	"111.0.0"	"FALSE"	"Windows 10"	"60.1"	"049"	n/a	n/a	n/a	n/a	n/a	n/a	"Trial"	n/a	n/a	n/a	"484"	"arrowup"	n/a	"NULL"	"NULL"	"NULL"	"stimuli/MullerLyer_20.04286_-0.14541.png"	n/a	"MullerLyer"	"arrowdown"	"1230"	"FALSE"	"MullerLyer"	"20.042860000"	"-0.145410000"	"1"	"25"
n/a	"html-keyboard-response"	"67"	"261639"	"0.0-5.0-2.0-0.7"	"wh9d6b"	"600"	"1366"	"chrome"	"111.0.0"	"FALSE"	"Windows 10"	"60.1"	"049"	n/a	n/a	n/a	n/a	n/a	n/a	"fixation"	n/a	n/a	n/a	n/a	"NULL"	n/a	"NULL"	"NULL"	"NULL"	"<p style=\"color: black; font-size: 80px; padding-left: 49%; padding-right: 27%; padding-top: 7%; padding-bottom: 12%\">+</p>"	"1160"	n/a	n/a	n/a	n/a	n/a	n/a	n/a	n/a	n/a
n/a	"image-keyboard-response"	"68"	"262289"	"0.0-5.0-2.0-1.7"	"wh9d6b"	"600"	"1366"	"chrome"	"111.0.0"	"FALSE"	"Windows 10"	"60.1"	"049"	n/a	n/a	n/a	n/a	n/a	n/a	"Trial"	n/a	n/a	n/a	"649"	"arrowup"	n/a	"NULL"	"NULL"	"NULL"	"stimuli/MullerLyer_-2.3000_0.14541.png"	n/a	"MullerLyer"	"arrowup"	"1163"	"TRUE"	"MullerLyer"	"-2.300000000"	"0.1454100000"	"1"	"26"
n/a	"html-keyboard-response"	"69"	"263678"	"0.0-5.0-2.0-0.8"	"wh9d6b"	"600"	"1366"	"chrome"	"111.0.0"	"FALSE"	"Windows 10"	"60.1"	"049"	n/a	n/a	n/a	n/a	n/a	n/a	"fixation"	n/a	n/a	n/a	n/a	"NULL"	n/a	"NULL"	"NULL"	"NULL"	"<p style=\"color: black; font-size: 80px; padding-left: 24%; padding-right: 22%; padding-top: 14%; padding-bottom: 21%\">+</p>"	"1380"	n/a	n/a	n/a	n/a	n/a	n/a	n/a	n/a	n/a
n/a	"image-keyboard-response"	"70"	"264223"	"0.0-5.0-2.0-1.8"	"wh9d6b"	"600"	"1366"	"chrome"	"111.0.0"	"FALSE"	"Windows 10"	"60.1"	"049"	n/a	n/a	n/a	n/a	n/a	n/a	"Trial"	n/a	n/a	n/a	"544"	"arrowup"	n/a	"NULL"	"NULL"	"NULL"	"stimuli/MullerLyer_14.12857_0.23665.png"	n/a	"MullerLyer"	"arrowup"	"1389"	"TRUE"	"MullerLyer"	"14.128570000"	"0.2366500000"	"1"	"27"
n/a	"html-keyboard-response"	"71"	"265694"	"0.0-5.0-2.0-0.9"	"wh9d6b"	"600"	"1366"	"chrome"	"111.0.0"	"FALSE"	"Windows 10"	"60.1"	"049"	n/a	n/a	n/a	n/a	n/a	n/a	"fixation"	n/a	n/a	n/a	n/a	"NULL"	n/a	"NULL"	"NULL"	"NULL"	"<p style=\"color: black; font-size: 80px; padding-left: 47%; padding-right: 18%; padding-top: 35%; padding-bottom: 25%\">+</p>"	"1461"	n/a	n/a	n/a	n/a	n/a	n/a	n/a	n/a	n/a
n/a	"image-keyboard-response"	"72"	"266238"	"0.0-5.0-2.0-1.9"	"wh9d6b"	"600"	"1366"	"chrome"	"111.0.0"	"FALSE"	"Windows 10"	"60.1"	"049"	n/a	n/a	n/a	n/a	n/a	n/a	"Trial"	n/a	n/a	n/a	"543"	"arrowdown"	n/a	"NULL"	"NULL"	"NULL"	"stimuli/MullerLyer_20.04286_-0.3500.png"	n/a	"MullerLyer"	"arrowdown"	"1471"	"TRUE"	"MullerLyer"	"20.042860000"	"-0.350000000"	"1"	"28"
n/a	"html-keyboard-response"	"73"	"267625"	"0.0-5.0-2.0-0.10"	"wh9d6b"	"600"	"1366"	"chrome"	"111.0.0"	"FALSE"	"Windows 10"	"60.1"	"049"	n/a	n/a	n/a	n/a	n/a	n/a	"fixation"	n/a	n/a	n/a	n/a	"NULL"	n/a	"NULL"	"NULL"	"NULL"	"<p style=\"color: black; font-size: 80px; padding-left: 8%; padding-right: 4%; padding-top: 46%; padding-bottom: 18%\">+</p>"	"1383"	n/a	n/a	n/a	n/a	n/a	n/a	n/a	n/a	n/a
n/a	"image-keyboard-response"	"74"	"268577"	"0.0-5.0-2.0-1.10"	"wh9d6b"	"600"	"1366"	"chrome"	"111.0.0"	"FALSE"	"Windows 10"	"60.1"	"049"	n/a	n/a	n/a	n/a	n/a	n/a	"Trial"	n/a	n/a	n/a	"951"	"arrowup"	n/a	"NULL"	"NULL"	"NULL"	"stimuli/MullerLyer_8.21429_0.07627.png"	n/a	"MullerLyer"	"arrowup"	"1387"	"TRUE"	"MullerLyer"	"8.2142900000"	"0.0762700000"	"1"	"29"
n/a	"html-keyboard-response"	"75"	"269812"	"0.0-5.0-2.0-0.11"	"wh9d6b"	"600"	"1366"	"chrome"	"111.0.0"	"FALSE"	"Windows 10"	"60.1"	"049"	n/a	n/a	n/a	n/a	n/a	n/a	"fixation"	n/a	n/a	n/a	n/a	"NULL"	n/a	"NULL"	"NULL"	"NULL"	"<p style=\"color: black; font-size: 80px; padding-left: 35%; padding-right: 17%; padding-top: 34%; padding-bottom: 35%\">+</p>"	"1224"	n/a	n/a	n/a	n/a	n/a	n/a	n/a	n/a	n/a
n/a	"image-keyboard-response"	"76"	"270620"	"0.0-5.0-2.0-1.11"	"wh9d6b"	"600"	"1366"	"chrome"	"111.0.0"	"FALSE"	"Windows 10"	"60.1"	"049"	n/a	n/a	n/a	n/a	n/a	n/a	"Trial"	n/a	n/a	n/a	"807"	"arrowup"	n/a	"NULL"	"NULL"	"NULL"	"stimuli/MullerLyer_-20.04286_-0.23665.png"	n/a	"MullerLyer"	"arrowdown"	"1235"	"FALSE"	"MullerLyer"	"-20.04286000"	"-0.236650000"	"1"	"30"
n/a	"html-keyboard-response"	"77"	"272123"	"0.0-5.0-2.0-0.12"	"wh9d6b"	"600"	"1366"	"chrome"	"111.0.0"	"FALSE"	"Windows 10"	"60.1"	"049"	n/a	n/a	n/a	n/a	n/a	n/a	"fixation"	n/a	n/a	n/a	n/a	"NULL"	n/a	"NULL"	"NULL"	"NULL"	"<p style=\"color: black; font-size: 80px; padding-left: 29%; padding-right: 30%; padding-top: 15%; padding-bottom: 28%\">+</p>"	"1496"	n/a	n/a	n/a	n/a	n/a	n/a	n/a	n/a	n/a
n/a	"image-keyboard-response"	"78"	"272902"	"0.0-5.0-2.0-1.12"	"wh9d6b"	"600"	"1366"	"chrome"	"111.0.0"	"FALSE"	"Windows 10"	"60.1"	"049"	n/a	n/a	n/a	n/a	n/a	n/a	"Trial"	n/a	n/a	n/a	"778"	"arrowdown"	n/a	"NULL"	"NULL"	"NULL"	"stimuli/MullerLyer_-20.04286_-0.07627.png"	n/a	"MullerLyer"	"arrowdown"	"1503"	"TRUE"	"MullerLyer"	"-20.04286000"	"-0.076270000"	"1"	"31"
n/a	"html-keyboard-response"	"79"	"274341"	"0.0-5.0-2.0-0.13"	"wh9d6b"	"600"	"1366"	"chrome"	"111.0.0"	"FALSE"	"Windows 10"	"60.1"	"049"	n/a	n/a	n/a	n/a	n/a	n/a	"fixation"	n/a	n/a	n/a	n/a	"NULL"	n/a	"NULL"	"NULL"	"NULL"	"<p style=\"color: black; font-size: 80px; padding-left: 10%; padding-right: 1%; padding-top: 15%; padding-bottom: 45%\">+</p>"	"1434"	n/a	n/a	n/a	n/a	n/a	n/a	n/a	n/a	n/a
n/a	"image-keyboard-response"	"80"	"275085"	"0.0-5.0-2.0-1.13"	"wh9d6b"	"600"	"1366"	"chrome"	"111.0.0"	"FALSE"	"Windows 10"	"60.1"	"049"	n/a	n/a	n/a	n/a	n/a	n/a	"Trial"	n/a	n/a	n/a	"743"	"arrowup"	n/a	"NULL"	"NULL"	"NULL"	"stimuli/MullerLyer_2.30000_-0.07627.png"	n/a	"MullerLyer"	"arrowdown"	"1439"	"FALSE"	"MullerLyer"	"2.3000000000"	"-0.076270000"	"1"	"32"
n/a	"html-keyboard-response"	"81"	"276189"	"0.0-5.0-2.0-0.14"	"wh9d6b"	"600"	"1366"	"chrome"	"111.0.0"	"FALSE"	"Windows 10"	"60.1"	"049"	n/a	n/a	n/a	n/a	n/a	n/a	"fixation"	n/a	n/a	n/a	n/a	"NULL"	n/a	"NULL"	"NULL"	"NULL"	"<p style=\"color: black; font-size: 80px; padding-left: 45%; padding-right: 10%; padding-top: 34%; padding-bottom: 29%\">+</p>"	"1090"	n/a	n/a	n/a	n/a	n/a	n/a	n/a	n/a	n/a
n/a	"image-keyboard-response"	"82"	"276749"	"0.0-5.0-2.0-1.14"	"wh9d6b"	"600"	"1366"	"chrome"	"111.0.0"	"FALSE"	"Windows 10"	"60.1"	"049"	n/a	n/a	n/a	n/a	n/a	n/a	"Trial"	n/a	n/a	n/a	"559"	"arrowdown"	n/a	"NULL"	"NULL"	"NULL"	"stimuli/MullerLyer_-2.3000_-0.23665.png"	n/a	"MullerLyer"	"arrowdown"	"1104"	"TRUE"	"MullerLyer"	"-2.300000000"	"-0.236650000"	"1"	"33"
n/a	"html-keyboard-response"	"83"	"278155"	"0.0-5.0-2.0-0.15"	"wh9d6b"	"600"	"1366"	"chrome"	"111.0.0"	"FALSE"	"Windows 10"	"60.1"	"049"	n/a	n/a	n/a	n/a	n/a	n/a	"fixation"	n/a	n/a	n/a	n/a	"NULL"	n/a	"NULL"	"NULL"	"NULL"	"<p style=\"color: black; font-size: 80px; padding-left: 32%; padding-right: 16%; padding-top: 39%; padding-bottom: 10%\">+</p>"	"1397"	n/a	n/a	n/a	n/a	n/a	n/a	n/a	n/a	n/a
n/a	"image-keyboard-response"	"84"	"278648"	"0.0-5.0-2.0-1.15"	"wh9d6b"	"600"	"1366"	"chrome"	"111.0.0"	"FALSE"	"Windows 10"	"60.1"	"049"	n/a	n/a	n/a	n/a	n/a	n/a	"Trial"	n/a	n/a	n/a	"493"	"arrowdown"	n/a	"NULL"	"NULL"	"NULL"	"stimuli/MullerLyer_8.21429_-0.23665.png"	n/a	"MullerLyer"	"arrowdown"	"1406"	"TRUE"	"MullerLyer"	"8.2142900000"	"-0.236650000"	"1"	"34"
n/a	"html-keyboard-response"	"85"	"280009"	"0.0-5.0-2.0-0.16"	"wh9d6b"	"600"	"1366"	"chrome"	"111.0.0"	"FALSE"	"Windows 10"	"60.1"	"049"	n/a	n/a	n/a	n/a	n/a	n/a	"fixation"	n/a	n/a	n/a	n/a	"NULL"	n/a	"NULL"	"NULL"	"NULL"	"<p style=\"color: black; font-size: 80px; padding-left: 21%; padding-right: 15%; padding-top: 35%; padding-bottom: 47%\">+</p>"	"1354"	n/a	n/a	n/a	n/a	n/a	n/a	n/a	n/a	n/a
n/a	"image-keyboard-response"	"86"	"280434"	"0.0-5.0-2.0-1.16"	"wh9d6b"	"600"	"1366"	"chrome"	"111.0.0"	"FALSE"	"Windows 10"	"60.1"	"049"	n/a	n/a	n/a	n/a	n/a	n/a	"Trial"	n/a	n/a	n/a	"424"	"arrowdown"	n/a	"NULL"	"NULL"	"NULL"	"stimuli/MullerLyer_8.21429_-0.3500.png"	n/a	"MullerLyer"	"arrowdown"	"1361"	"TRUE"	"MullerLyer"	"8.2142900000"	"-0.350000000"	"1"	"35"
n/a	"html-keyboard-response"	"87"	"281634"	"0.0-5.0-2.0-0.17"	"wh9d6b"	"600"	"1366"	"chrome"	"111.0.0"	"FALSE"	"Windows 10"	"60.1"	"049"	n/a	n/a	n/a	n/a	n/a	n/a	"fixation"	n/a	n/a	n/a	n/a	"NULL"	n/a	"NULL"	"NULL"	"NULL"	"<p style=\"color: black; font-size: 80px; padding-left: 44%; padding-right: 45%; padding-top: 29%; padding-bottom: 27%\">+</p>"	"1191"	n/a	n/a	n/a	n/a	n/a	n/a	n/a	n/a	n/a
n/a	"image-keyboard-response"	"88"	"282205"	"0.0-5.0-2.0-1.17"	"wh9d6b"	"600"	"1366"	"chrome"	"111.0.0"	"FALSE"	"Windows 10"	"60.1"	"049"	n/a	n/a	n/a	n/a	n/a	n/a	"Trial"	n/a	n/a	n/a	"571"	"arrowup"	n/a	"NULL"	"NULL"	"NULL"	"stimuli/MullerLyer_14.12857_0.14541.png"	n/a	"MullerLyer"	"arrowup"	"1200"	"TRUE"	"MullerLyer"	"14.128570000"	"0.1454100000"	"1"	"36"
n/a	"html-keyboard-response"	"89"	"283687"	"0.0-5.0-2.0-0.18"	"wh9d6b"	"600"	"1366"	"chrome"	"111.0.0"	"FALSE"	"Windows 10"	"60.1"	"049"	n/a	n/a	n/a	n/a	n/a	n/a	"fixation"	n/a	n/a	n/a	n/a	"NULL"	n/a	"NULL"	"NULL"	"NULL"	"<p style=\"color: black; font-size: 80px; padding-left: 41%; padding-right: 3%; padding-top: 2%; padding-bottom: 48%\">+</p>"	"1478"	n/a	n/a	n/a	n/a	n/a	n/a	n/a	n/a	n/a
n/a	"image-keyboard-response"	"90"	"284190"	"0.0-5.0-2.0-1.18"	"wh9d6b"	"600"	"1366"	"chrome"	"111.0.0"	"FALSE"	"Windows 10"	"60.1"	"049"	n/a	n/a	n/a	n/a	n/a	n/a	"Trial"	n/a	n/a	n/a	"503"	"arrowdown"	n/a	"NULL"	"NULL"	"NULL"	"stimuli/MullerLyer_-14.12857_-0.14541.png"	n/a	"MullerLyer"	"arrowdown"	"1482"	"TRUE"	"MullerLyer"	"-14.12857000"	"-0.145410000"	"1"	"37"
n/a	"html-keyboard-response"	"91"	"285429"	"0.0-5.0-2.0-0.19"	"wh9d6b"	"600"	"1366"	"chrome"	"111.0.0"	"FALSE"	"Windows 10"	"60.1"	"049"	n/a	n/a	n/a	n/a	n/a	n/a	"fixation"	n/a	n/a	n/a	n/a	"NULL"	n/a	"NULL"	"NULL"	"NULL"	"<p style=\"color: black; font-size: 80px; padding-left: 44%; padding-right: 0%; padding-top: 3%; padding-bottom: 20%\">+</p>"	"1234"	n/a	n/a	n/a	n/a	n/a	n/a	n/a	n/a	n/a
n/a	"image-keyboard-response"	"92"	"285880"	"0.0-5.0-2.0-1.19"	"wh9d6b"	"600"	"1366"	"chrome"	"111.0.0"	"FALSE"	"Windows 10"	"60.1"	"049"	n/a	n/a	n/a	n/a	n/a	n/a	"Trial"	n/a	n/a	n/a	"450"	"arrowdown"	n/a	"NULL"	"NULL"	"NULL"	"stimuli/MullerLyer_-8.21429_-0.3500.png"	n/a	"MullerLyer"	"arrowdown"	"1239"	"TRUE"	"MullerLyer"	"-8.214290000"	"-0.350000000"	"1"	"38"
n/a	"html-keyboard-response"	"93"	"287274"	"0.0-5.0-2.0-0.20"	"wh9d6b"	"600"	"1366"	"chrome"	"111.0.0"	"FALSE"	"Windows 10"	"60.1"	"049"	n/a	n/a	n/a	n/a	n/a	n/a	"fixation"	n/a	n/a	n/a	n/a	"NULL"	n/a	"NULL"	"NULL"	"NULL"	"<p style=\"color: black; font-size: 80px; padding-left: 9%; padding-right: 2%; padding-top: 8%; padding-bottom: 45%\">+</p>"	"1387"	n/a	n/a	n/a	n/a	n/a	n/a	n/a	n/a	n/a
n/a	"image-keyboard-response"	"94"	"287650"	"0.0-5.0-2.0-1.20"	"wh9d6b"	"600"	"1366"	"chrome"	"111.0.0"	"FALSE"	"Windows 10"	"60.1"	"049"	n/a	n/a	n/a	n/a	n/a	n/a	"Trial"	n/a	n/a	n/a	"375"	"arrowdown"	n/a	"NULL"	"NULL"	"NULL"	"stimuli/MullerLyer_-14.12857_-0.3500.png"	n/a	"MullerLyer"	"arrowdown"	"1394"	"TRUE"	"MullerLyer"	"-14.12857000"	"-0.350000000"	"1"	"39"
n/a	"html-keyboard-response"	"95"	"288973"	"0.0-5.0-2.0-0.21"	"wh9d6b"	"600"	"1366"	"chrome"	"111.0.0"	"FALSE"	"Windows 10"	"60.1"	"049"	n/a	n/a	n/a	n/a	n/a	n/a	"fixation"	n/a	n/a	n/a	n/a	"NULL"	n/a	"NULL"	"NULL"	"NULL"	"<p style=\"color: black; font-size: 80px; padding-left: 12%; padding-right: 50%; padding-top: 14%; padding-bottom: 41%\">+</p>"	"1313"	n/a	n/a	n/a	n/a	n/a	n/a	n/a	n/a	n/a
n/a	"image-keyboard-response"	"96"	"289458"	"0.0-5.0-2.0-1.21"	"wh9d6b"	"600"	"1366"	"chrome"	"111.0.0"	"FALSE"	"Windows 10"	"60.1"	"049"	n/a	n/a	n/a	n/a	n/a	n/a	"Trial"	n/a	n/a	n/a	"485"	"arrowup"	n/a	"NULL"	"NULL"	"NULL"	"stimuli/MullerLyer_8.21429_-0.07627.png"	n/a	"MullerLyer"	"arrowdown"	"1323"	"FALSE"	"MullerLyer"	"8.2142900000"	"-0.076270000"	"1"	"40"
n/a	"html-keyboard-response"	"97"	"290922"	"0.0-5.0-2.0-0.22"	"wh9d6b"	"600"	"1366"	"chrome"	"111.0.0"	"FALSE"	"Windows 10"	"60.1"	"049"	n/a	n/a	n/a	n/a	n/a	n/a	"fixation"	n/a	n/a	n/a	n/a	"NULL"	n/a	"NULL"	"NULL"	"NULL"	"<p style=\"color: black; font-size: 80px; padding-left: 14%; padding-right: 25%; padding-top: 16%; padding-bottom: 16%\">+</p>"	"1462"	n/a	n/a	n/a	n/a	n/a	n/a	n/a	n/a	n/a
n/a	"image-keyboard-response"	"98"	"291360"	"0.0-5.0-2.0-1.22"	"wh9d6b"	"600"	"1366"	"chrome"	"111.0.0"	"FALSE"	"Windows 10"	"60.1"	"049"	n/a	n/a	n/a	n/a	n/a	n/a	"Trial"	n/a	n/a	n/a	"437"	"arrowdown"	n/a	"NULL"	"NULL"	"NULL"	"stimuli/MullerLyer_14.12857_-0.3500.png"	n/a	"MullerLyer"	"arrowdown"	"1464"	"TRUE"	"MullerLyer"	"14.128570000"	"-0.350000000"	"1"	"41"
n/a	"html-keyboard-response"	"99"	"292561"	"0.0-5.0-2.0-0.23"	"wh9d6b"	"600"	"1366"	"chrome"	"111.0.0"	"FALSE"	"Windows 10"	"60.1"	"049"	n/a	n/a	n/a	n/a	n/a	n/a	"fixation"	n/a	n/a	n/a	n/a	"NULL"	n/a	"NULL"	"NULL"	"NULL"	"<p style=\"color: black; font-size: 80px; padding-left: 16%; padding-right: 18%; padding-top: 48%; padding-bottom: 38%\">+</p>"	"1191"	n/a	n/a	n/a	n/a	n/a	n/a	n/a	n/a	n/a
n/a	"image-keyboard-response"	"100"	"292993"	"0.0-5.0-2.0-1.23"	"wh9d6b"	"600"	"1366"	"chrome"	"111.0.0"	"FALSE"	"Windows 10"	"60.1"	"049"	n/a	n/a	n/a	n/a	n/a	n/a	"Trial"	n/a	n/a	n/a	"430"	"arrowup"	n/a	"NULL"	"NULL"	"NULL"	"stimuli/MullerLyer_-8.21429_0.23665.png"	n/a	"MullerLyer"	"arrowup"	"1201"	"TRUE"	"MullerLyer"	"-8.214290000"	"0.2366500000"	"1"	"42"
n/a	"html-keyboard-response"	"101"	"294050"	"0.0-5.0-2.0-0.24"	"wh9d6b"	"600"	"1366"	"chrome"	"111.0.0"	"FALSE"	"Windows 10"	"60.1"	"049"	n/a	n/a	n/a	n/a	n/a	n/a	"fixation"	n/a	n/a	n/a	n/a	"NULL"	n/a	"NULL"	"NULL"	"NULL"	"<p style=\"color: black; font-size: 80px; padding-left: 11%; padding-right: 25%; padding-top: 43%; padding-bottom: 0%\">+</p>"	"1050"	n/a	n/a	n/a	n/a	n/a	n/a	n/a	n/a	n/a
n/a	"image-keyboard-response"	"102"	"294514"	"0.0-5.0-2.0-1.24"	"wh9d6b"	"600"	"1366"	"chrome"	"111.0.0"	"FALSE"	"Windows 10"	"60.1"	"049"	n/a	n/a	n/a	n/a	n/a	n/a	"Trial"	n/a	n/a	n/a	"463"	"arrowdown"	n/a	"NULL"	"NULL"	"NULL"	"stimuli/MullerLyer_-14.12857_-0.07627.png"	n/a	"MullerLyer"	"arrowdown"	"1057"	"TRUE"	"MullerLyer"	"-14.12857000"	"-0.076270000"	"1"	"43"
n/a	"html-keyboard-response"	"103"	"295843"	"0.0-5.0-2.0-0.25"	"wh9d6b"	"600"	"1366"	"chrome"	"111.0.0"	"FALSE"	"Windows 10"	"60.1"	"049"	n/a	n/a	n/a	n/a	n/a	n/a	"fixation"	n/a	n/a	n/a	n/a	"NULL"	n/a	"NULL"	"NULL"	"NULL"	"<p style=\"color: black; font-size: 80px; padding-left: 45%; padding-right: 3%; padding-top: 40%; padding-bottom: 36%\">+</p>"	"1326"	n/a	n/a	n/a	n/a	n/a	n/a	n/a	n/a	n/a
n/a	"image-keyboard-response"	"104"	"296222"	"0.0-5.0-2.0-1.25"	"wh9d6b"	"600"	"1366"	"chrome"	"111.0.0"	"FALSE"	"Windows 10"	"60.1"	"049"	n/a	n/a	n/a	n/a	n/a	n/a	"Trial"	n/a	n/a	n/a	"378"	"arrowup"	n/a	"NULL"	"NULL"	"NULL"	"stimuli/MullerLyer_2.30000_0.07627.png"	n/a	"MullerLyer"	"arrowup"	"1329"	"TRUE"	"MullerLyer"	"2.3000000000"	"0.0762700000"	"1"	"44"
n/a	"html-keyboard-response"	"105"	"297651"	"0.0-5.0-2.0-0.26"	"wh9d6b"	"600"	"1366"	"chrome"	"111.0.0"	"FALSE"	"Windows 10"	"60.1"	"049"	n/a	n/a	n/a	n/a	n/a	n/a	"fixation"	n/a	n/a	n/a	n/a	"NULL"	n/a	"NULL"	"NULL"	"NULL"	"<p style=\"color: black; font-size: 80px; padding-left: 16%; padding-right: 41%; padding-top: 30%; padding-bottom: 49%\">+</p>"	"1413"	n/a	n/a	n/a	n/a	n/a	n/a	n/a	n/a	n/a
n/a	"image-keyboard-response"	"106"	"298199"	"0.0-5.0-2.0-1.26"	"wh9d6b"	"600"	"1366"	"chrome"	"111.0.0"	"FALSE"	"Windows 10"	"60.1"	"049"	n/a	n/a	n/a	n/a	n/a	n/a	"Trial"	n/a	n/a	n/a	"548"	"arrowdown"	n/a	"NULL"	"NULL"	"NULL"	"stimuli/MullerLyer_2.30000_-0.14541.png"	n/a	"MullerLyer"	"arrowdown"	"1429"	"TRUE"	"MullerLyer"	"2.3000000000"	"-0.145410000"	"1"	"45"
n/a	"html-keyboard-response"	"107"	"299407"	"0.0-5.0-2.0-0.27"	"wh9d6b"	"600"	"1366"	"chrome"	"111.0.0"	"FALSE"	"Windows 10"	"60.1"	"049"	n/a	n/a	n/a	n/a	n/a	n/a	"fixation"	n/a	n/a	n/a	n/a	"NULL"	n/a	"NULL"	"NULL"	"NULL"	"<p style=\"color: black; font-size: 80px; padding-left: 15%; padding-right: 20%; padding-top: 28%; padding-bottom: 34%\">+</p>"	"1204"	n/a	n/a	n/a	n/a	n/a	n/a	n/a	n/a	n/a
n/a	"image-keyboard-response"	"108"	"299868"	"0.0-5.0-2.0-1.27"	"wh9d6b"	"600"	"1366"	"chrome"	"111.0.0"	"FALSE"	"Windows 10"	"60.1"	"049"	n/a	n/a	n/a	n/a	n/a	n/a	"Trial"	n/a	n/a	n/a	"460"	"arrowup"	n/a	"NULL"	"NULL"	"NULL"	"stimuli/MullerLyer_-2.3000_0.35000.png"	n/a	"MullerLyer"	"arrowup"	"1208"	"TRUE"	"MullerLyer"	"-2.300000000"	"0.3500000000"	"1"	"46"
n/a	"html-keyboard-response"	"109"	"301033"	"0.0-5.0-2.0-0.28"	"wh9d6b"	"600"	"1366"	"chrome"	"111.0.0"	"FALSE"	"Windows 10"	"60.1"	"049"	n/a	n/a	n/a	n/a	n/a	n/a	"fixation"	n/a	n/a	n/a	n/a	"NULL"	n/a	"NULL"	"NULL"	"NULL"	"<p style=\"color: black; font-size: 80px; padding-left: 21%; padding-right: 27%; padding-top: 45%; padding-bottom: 16%\">+</p>"	"1154"	n/a	n/a	n/a	n/a	n/a	n/a	n/a	n/a	n/a
n/a	"image-keyboard-response"	"110"	"301439"	"0.0-5.0-2.0-1.28"	"wh9d6b"	"600"	"1366"	"chrome"	"111.0.0"	"FALSE"	"Windows 10"	"60.1"	"049"	n/a	n/a	n/a	n/a	n/a	n/a	"Trial"	n/a	n/a	n/a	"405"	"arrowup"	n/a	"NULL"	"NULL"	"NULL"	"stimuli/MullerLyer_-2.3000_0.23665.png"	n/a	"MullerLyer"	"arrowup"	"1165"	"TRUE"	"MullerLyer"	"-2.300000000"	"0.2366500000"	"1"	"47"
n/a	"html-keyboard-response"	"111"	"302906"	"0.0-5.0-2.0-0.29"	"wh9d6b"	"600"	"1366"	"chrome"	"111.0.0"	"FALSE"	"Windows 10"	"60.1"	"049"	n/a	n/a	n/a	n/a	n/a	n/a	"fixation"	n/a	n/a	n/a	n/a	"NULL"	n/a	"NULL"	"NULL"	"NULL"	"<p style=\"color: black; font-size: 80px; padding-left: 43%; padding-right: 17%; padding-top: 23%; padding-bottom: 46%\">+</p>"	"1463"	n/a	n/a	n/a	n/a	n/a	n/a	n/a	n/a	n/a
n/a	"image-keyboard-response"	"112"	"303334"	"0.0-5.0-2.0-1.29"	"wh9d6b"	"600"	"1366"	"chrome"	"111.0.0"	"FALSE"	"Windows 10"	"60.1"	"049"	n/a	n/a	n/a	n/a	n/a	n/a	"Trial"	n/a	n/a	n/a	"428"	"arrowup"	n/a	"NULL"	"NULL"	"NULL"	"stimuli/MullerLyer_-2.3000_0.07627.png"	n/a	"MullerLyer"	"arrowup"	"1467"	"TRUE"	"MullerLyer"	"-2.300000000"	"0.0762700000"	"1"	"48"
n/a	"html-keyboard-response"	"113"	"304683"	"0.0-5.0-2.0-0.30"	"wh9d6b"	"600"	"1366"	"chrome"	"111.0.0"	"FALSE"	"Windows 10"	"60.1"	"049"	n/a	n/a	n/a	n/a	n/a	n/a	"fixation"	n/a	n/a	n/a	n/a	"NULL"	n/a	"NULL"	"NULL"	"NULL"	"<p style=\"color: black; font-size: 80px; padding-left: 46%; padding-right: 44%; padding-top: 30%; padding-bottom: 41%\">+</p>"	"1337"	n/a	n/a	n/a	n/a	n/a	n/a	n/a	n/a	n/a
n/a	"image-keyboard-response"	"114"	"305104"	"0.0-5.0-2.0-1.30"	"wh9d6b"	"600"	"1366"	"chrome"	"111.0.0"	"FALSE"	"Windows 10"	"60.1"	"049"	n/a	n/a	n/a	n/a	n/a	n/a	"Trial"	n/a	n/a	n/a	"421"	"arrowup"	n/a	"NULL"	"NULL"	"NULL"	"stimuli/MullerLyer_20.04286_-0.07627.png"	n/a	"MullerLyer"	"arrowdown"	"1349"	"FALSE"	"MullerLyer"	"20.042860000"	"-0.076270000"	"1"	"49"
n/a	"html-keyboard-response"	"115"	"306418"	"0.0-5.0-2.0-0.31"	"wh9d6b"	"600"	"1366"	"chrome"	"111.0.0"	"FALSE"	"Windows 10"	"60.1"	"049"	n/a	n/a	n/a	n/a	n/a	n/a	"fixation"	n/a	n/a	n/a	n/a	"NULL"	n/a	"NULL"	"NULL"	"NULL"	"<p style=\"color: black; font-size: 80px; padding-left: 47%; padding-right: 32%; padding-top: 22%; padding-bottom: 40%\">+</p>"	"1311"	n/a	n/a	n/a	n/a	n/a	n/a	n/a	n/a	n/a
n/a	"image-keyboard-response"	"116"	"306872"	"0.0-5.0-2.0-1.31"	"wh9d6b"	"600"	"1366"	"chrome"	"111.0.0"	"FALSE"	"Windows 10"	"60.1"	"049"	n/a	n/a	n/a	n/a	n/a	n/a	"Trial"	n/a	n/a	n/a	"453"	"arrowup"	n/a	"NULL"	"NULL"	"NULL"	"stimuli/MullerLyer_2.30000_0.23665.png"	n/a	"MullerLyer"	"arrowup"	"1314"	"TRUE"	"MullerLyer"	"2.3000000000"	"0.2366500000"	"1"	"50"
n/a	"html-keyboard-response"	"117"	"308269"	"0.0-5.0-2.0-0.32"	"wh9d6b"	"600"	"1366"	"chrome"	"111.0.0"	"FALSE"	"Windows 10"	"60.1"	"049"	n/a	n/a	n/a	n/a	n/a	n/a	"fixation"	n/a	n/a	n/a	n/a	"NULL"	n/a	"NULL"	"NULL"	"NULL"	"<p style=\"color: black; font-size: 80px; padding-left: 18%; padding-right: 40%; padding-top: 17%; padding-bottom: 1%\">+</p>"	"1390"	n/a	n/a	n/a	n/a	n/a	n/a	n/a	n/a	n/a
n/a	"image-keyboard-response"	"118"	"308760"	"0.0-5.0-2.0-1.32"	"wh9d6b"	"600"	"1366"	"chrome"	"111.0.0"	"FALSE"	"Windows 10"	"60.1"	"049"	n/a	n/a	n/a	n/a	n/a	n/a	"Trial"	n/a	n/a	n/a	"491"	"arrowdown"	n/a	"NULL"	"NULL"	"NULL"	"stimuli/MullerLyer_-8.21429_-0.14541.png"	n/a	"MullerLyer"	"arrowdown"	"1397"	"TRUE"	"MullerLyer"	"-8.214290000"	"-0.145410000"	"1"	"51"
n/a	"html-keyboard-response"	"119"	"310267"	"0.0-5.0-2.0-0.33"	"wh9d6b"	"600"	"1366"	"chrome"	"111.0.0"	"FALSE"	"Windows 10"	"60.1"	"049"	n/a	n/a	n/a	n/a	n/a	n/a	"fixation"	n/a	n/a	n/a	n/a	"NULL"	n/a	"NULL"	"NULL"	"NULL"	"<p style=\"color: black; font-size: 80px; padding-left: 12%; padding-right: 43%; padding-top: 47%; padding-bottom: 3%\">+</p>"	"1500"	n/a	n/a	n/a	n/a	n/a	n/a	n/a	n/a	n/a
n/a	"image-keyboard-response"	"120"	"310811"	"0.0-5.0-2.0-1.33"	"wh9d6b"	"600"	"1366"	"chrome"	"111.0.0"	"FALSE"	"Windows 10"	"60.1"	"049"	n/a	n/a	n/a	n/a	n/a	n/a	"Trial"	n/a	n/a	n/a	"543"	"arrowup"	n/a	"NULL"	"NULL"	"NULL"	"stimuli/MullerLyer_8.21429_0.14541.png"	n/a	"MullerLyer"	"arrowup"	"1507"	"TRUE"	"MullerLyer"	"8.2142900000"	"0.1454100000"	"1"	"52"
n/a	"html-keyboard-response"	"121"	"311922"	"0.0-5.0-2.0-0.34"	"wh9d6b"	"600"	"1366"	"chrome"	"111.0.0"	"FALSE"	"Windows 10"	"60.1"	"049"	n/a	n/a	n/a	n/a	n/a	n/a	"fixation"	n/a	n/a	n/a	n/a	"NULL"	n/a	"NULL"	"NULL"	"NULL"	"<p style=\"color: black; font-size: 80px; padding-left: 20%; padding-right: 40%; padding-top: 19%; padding-bottom: 30%\">+</p>"	"1109"	n/a	n/a	n/a	n/a	n/a	n/a	n/a	n/a	n/a
n/a	"image-keyboard-response"	"122"	"312353"	"0.0-5.0-2.0-1.34"	"wh9d6b"	"600"	"1366"	"chrome"	"111.0.0"	"FALSE"	"Windows 10"	"60.1"	"049"	n/a	n/a	n/a	n/a	n/a	n/a	"Trial"	n/a	n/a	n/a	"431"	"arrowdown"	n/a	"NULL"	"NULL"	"NULL"	"stimuli/MullerLyer_20.04286_0.07627.png"	n/a	"MullerLyer"	"arrowup"	"1111"	"FALSE"	"MullerLyer"	"20.042860000"	"0.0762700000"	"1"	"53"
n/a	"html-keyboard-response"	"123"	"313483"	"0.0-5.0-2.0-0.35"	"wh9d6b"	"600"	"1366"	"chrome"	"111.0.0"	"FALSE"	"Windows 10"	"60.1"	"049"	n/a	n/a	n/a	n/a	n/a	n/a	"fixation"	n/a	n/a	n/a	n/a	"NULL"	n/a	"NULL"	"NULL"	"NULL"	"<p style=\"color: black; font-size: 80px; padding-left: 12%; padding-right: 23%; padding-top: 44%; padding-bottom: 16%\">+</p>"	"1125"	n/a	n/a	n/a	n/a	n/a	n/a	n/a	n/a	n/a
n/a	"image-keyboard-response"	"124"	"313822"	"0.0-5.0-2.0-1.35"	"wh9d6b"	"600"	"1366"	"chrome"	"111.0.0"	"FALSE"	"Windows 10"	"60.1"	"049"	n/a	n/a	n/a	n/a	n/a	n/a	"Trial"	n/a	n/a	n/a	"339"	"arrowup"	n/a	"NULL"	"NULL"	"NULL"	"stimuli/MullerLyer_14.12857_0.35000.png"	n/a	"MullerLyer"	"arrowup"	"1130"	"TRUE"	"MullerLyer"	"14.128570000"	"0.3500000000"	"1"	"54"
n/a	"html-keyboard-response"	"125"	"315148"	"0.0-5.0-2.0-0.36"	"wh9d6b"	"600"	"1366"	"chrome"	"111.0.0"	"FALSE"	"Windows 10"	"60.1"	"049"	n/a	n/a	n/a	n/a	n/a	n/a	"fixation"	n/a	n/a	n/a	n/a	"NULL"	n/a	"NULL"	"NULL"	"NULL"	"<p style=\"color: black; font-size: 80px; padding-left: 39%; padding-right: 29%; padding-top: 10%; padding-bottom: 26%\">+</p>"	"1320"	n/a	n/a	n/a	n/a	n/a	n/a	n/a	n/a	n/a
n/a	"image-keyboard-response"	"126"	"315572"	"0.0-5.0-2.0-1.36"	"wh9d6b"	"600"	"1366"	"chrome"	"111.0.0"	"FALSE"	"Windows 10"	"60.1"	"049"	n/a	n/a	n/a	n/a	n/a	n/a	"Trial"	n/a	n/a	n/a	"423"	"arrowdown"	n/a	"NULL"	"NULL"	"NULL"	"stimuli/MullerLyer_2.30000_-0.3500.png"	n/a	"MullerLyer"	"arrowdown"	"1326"	"TRUE"	"MullerLyer"	"2.3000000000"	"-0.350000000"	"1"	"55"
n/a	"html-keyboard-response"	"127"	"316608"	"0.0-5.0-2.0-0.37"	"wh9d6b"	"600"	"1366"	"chrome"	"111.0.0"	"FALSE"	"Windows 10"	"60.1"	"049"	n/a	n/a	n/a	n/a	n/a	n/a	"fixation"	n/a	n/a	n/a	n/a	"NULL"	n/a	"NULL"	"NULL"	"NULL"	"<p style=\"color: black; font-size: 80px; padding-left: 49%; padding-right: 39%; padding-top: 30%; padding-bottom: 49%\">+</p>"	"1028"	n/a	n/a	n/a	n/a	n/a	n/a	n/a	n/a	n/a
n/a	"image-keyboard-response"	"128"	"316941"	"0.0-5.0-2.0-1.37"	"wh9d6b"	"600"	"1366"	"chrome"	"111.0.0"	"FALSE"	"Windows 10"	"60.1"	"049"	n/a	n/a	n/a	n/a	n/a	n/a	"Trial"	n/a	n/a	n/a	"332"	"arrowup"	n/a	"NULL"	"NULL"	"NULL"	"stimuli/MullerLyer_14.12857_-0.23665.png"	n/a	"MullerLyer"	"arrowdown"	"1036"	"FALSE"	"MullerLyer"	"14.128570000"	"-0.236650000"	"1"	"56"
n/a	"html-keyboard-response"	"129"	"318405"	"0.0-5.0-2.0-0.38"	"wh9d6b"	"600"	"1366"	"chrome"	"111.0.0"	"FALSE"	"Windows 10"	"60.1"	"049"	n/a	n/a	n/a	n/a	n/a	n/a	"fixation"	n/a	n/a	n/a	n/a	"NULL"	n/a	"NULL"	"NULL"	"NULL"	"<p style=\"color: black; font-size: 80px; padding-left: 38%; padding-right: 25%; padding-top: 12%; padding-bottom: 34%\">+</p>"	"1453"	n/a	n/a	n/a	n/a	n/a	n/a	n/a	n/a	n/a
n/a	"image-keyboard-response"	"130"	"318834"	"0.0-5.0-2.0-1.38"	"wh9d6b"	"600"	"1366"	"chrome"	"111.0.0"	"FALSE"	"Windows 10"	"60.1"	"049"	n/a	n/a	n/a	n/a	n/a	n/a	"Trial"	n/a	n/a	n/a	"426"	"arrowdown"	n/a	"NULL"	"NULL"	"NULL"	"stimuli/MullerLyer_-2.3000_-0.07627.png"	n/a	"MullerLyer"	"arrowdown"	"1464"	"TRUE"	"MullerLyer"	"-2.300000000"	"-0.076270000"	"1"	"57"
n/a	"html-keyboard-response"	"131"	"319967"	"0.0-5.0-2.0-0.39"	"wh9d6b"	"600"	"1366"	"chrome"	"111.0.0"	"FALSE"	"Windows 10"	"60.1"	"049"	n/a	n/a	n/a	n/a	n/a	n/a	"fixation"	n/a	n/a	n/a	n/a	"NULL"	n/a	"NULL"	"NULL"	"NULL"	"<p style=\"color: black; font-size: 80px; padding-left: 42%; padding-right: 13%; padding-top: 34%; padding-bottom: 18%\">+</p>"	"1123"	n/a	n/a	n/a	n/a	n/a	n/a	n/a	n/a	n/a
n/a	"image-keyboard-response"	"132"	"320616"	"0.0-5.0-2.0-1.39"	"wh9d6b"	"600"	"1366"	"chrome"	"111.0.0"	"FALSE"	"Windows 10"	"60.1"	"049"	n/a	n/a	n/a	n/a	n/a	n/a	"Trial"	n/a	n/a	n/a	"649"	"arrowup"	n/a	"NULL"	"NULL"	"NULL"	"stimuli/MullerLyer_2.30000_0.14541.png"	n/a	"MullerLyer"	"arrowup"	"1133"	"TRUE"	"MullerLyer"	"2.3000000000"	"0.1454100000"	"1"	"58"
n/a	"html-keyboard-response"	"133"	"322031"	"0.0-5.0-2.0-0.40"	"wh9d6b"	"600"	"1366"	"chrome"	"111.0.0"	"FALSE"	"Windows 10"	"60.1"	"049"	n/a	n/a	n/a	n/a	n/a	n/a	"fixation"	n/a	n/a	n/a	n/a	"NULL"	n/a	"NULL"	"NULL"	"NULL"	"<p style=\"color: black; font-size: 80px; padding-left: 48%; padding-right: 2%; padding-top: 49%; padding-bottom: 18%\">+</p>"	"1410"	n/a	n/a	n/a	n/a	n/a	n/a	n/a	n/a	n/a
n/a	"image-keyboard-response"	"134"	"322457"	"0.0-5.0-2.0-1.40"	"wh9d6b"	"600"	"1366"	"chrome"	"111.0.0"	"FALSE"	"Windows 10"	"60.1"	"049"	n/a	n/a	n/a	n/a	n/a	n/a	"Trial"	n/a	n/a	n/a	"425"	"arrowdown"	n/a	"NULL"	"NULL"	"NULL"	"stimuli/MullerLyer_14.12857_0.07627.png"	n/a	"MullerLyer"	"arrowup"	"1415"	"FALSE"	"MullerLyer"	"14.128570000"	"0.0762700000"	"1"	"59"
n/a	"html-keyboard-response"	"135"	"323961"	"0.0-5.0-2.0-0.41"	"wh9d6b"	"600"	"1366"	"chrome"	"111.0.0"	"FALSE"	"Windows 10"	"60.1"	"049"	n/a	n/a	n/a	n/a	n/a	n/a	"fixation"	n/a	n/a	n/a	n/a	"NULL"	n/a	"NULL"	"NULL"	"NULL"	"<p style=\"color: black; font-size: 80px; padding-left: 25%; padding-right: 40%; padding-top: 7%; padding-bottom: 5%\">+</p>"	"1496"	n/a	n/a	n/a	n/a	n/a	n/a	n/a	n/a	n/a
n/a	"image-keyboard-response"	"136"	"324345"	"0.0-5.0-2.0-1.41"	"wh9d6b"	"600"	"1366"	"chrome"	"111.0.0"	"FALSE"	"Windows 10"	"60.1"	"049"	n/a	n/a	n/a	n/a	n/a	n/a	"Trial"	n/a	n/a	n/a	"384"	"arrowup"	n/a	"NULL"	"NULL"	"NULL"	"stimuli/MullerLyer_-20.04286_0.35000.png"	n/a	"MullerLyer"	"arrowup"	"1504"	"TRUE"	"MullerLyer"	"-20.04286000"	"0.3500000000"	"1"	"60"
n/a	"html-keyboard-response"	"137"	"325423"	"0.0-5.0-2.0-0.42"	"wh9d6b"	"600"	"1366"	"chrome"	"111.0.0"	"FALSE"	"Windows 10"	"60.1"	"049"	n/a	n/a	n/a	n/a	n/a	n/a	"fixation"	n/a	n/a	n/a	n/a	"NULL"	n/a	"NULL"	"NULL"	"NULL"	"<p style=\"color: black; font-size: 80px; padding-left: 27%; padding-right: 2%; padding-top: 23%; padding-bottom: 24%\">+</p>"	"1061"	n/a	n/a	n/a	n/a	n/a	n/a	n/a	n/a	n/a
n/a	"image-keyboard-response"	"138"	"325838"	"0.0-5.0-2.0-1.42"	"wh9d6b"	"600"	"1366"	"chrome"	"111.0.0"	"FALSE"	"Windows 10"	"60.1"	"049"	n/a	n/a	n/a	n/a	n/a	n/a	"Trial"	n/a	n/a	n/a	"414"	"arrowup"	n/a	"NULL"	"NULL"	"NULL"	"stimuli/MullerLyer_-14.12857_0.07627.png"	n/a	"MullerLyer"	"arrowup"	"1078"	"TRUE"	"MullerLyer"	"-14.12857000"	"0.0762700000"	"1"	"61"
n/a	"html-keyboard-response"	"139"	"327030"	"0.0-5.0-2.0-0.43"	"wh9d6b"	"600"	"1366"	"chrome"	"111.0.0"	"FALSE"	"Windows 10"	"60.1"	"049"	n/a	n/a	n/a	n/a	n/a	n/a	"fixation"	n/a	n/a	n/a	n/a	"NULL"	n/a	"NULL"	"NULL"	"NULL"	"<p style=\"color: black; font-size: 80px; padding-left: 27%; padding-right: 20%; padding-top: 41%; padding-bottom: 44%\">+</p>"	"1189"	n/a	n/a	n/a	n/a	n/a	n/a	n/a	n/a	n/a
n/a	"image-keyboard-response"	"140"	"327465"	"0.0-5.0-2.0-1.43"	"wh9d6b"	"600"	"1366"	"chrome"	"111.0.0"	"FALSE"	"Windows 10"	"60.1"	"049"	n/a	n/a	n/a	n/a	n/a	n/a	"Trial"	n/a	n/a	n/a	"435"	"arrowup"	n/a	"NULL"	"NULL"	"NULL"	"stimuli/MullerLyer_-14.12857_0.35000.png"	n/a	"MullerLyer"	"arrowup"	"1192"	"TRUE"	"MullerLyer"	"-14.12857000"	"0.3500000000"	"1"	"62"
n/a	"html-keyboard-response"	"141"	"328747"	"0.0-5.0-2.0-0.44"	"wh9d6b"	"600"	"1366"	"chrome"	"111.0.0"	"FALSE"	"Windows 10"	"60.1"	"049"	n/a	n/a	n/a	n/a	n/a	n/a	"fixation"	n/a	n/a	n/a	n/a	"NULL"	n/a	"NULL"	"NULL"	"NULL"	"<p style=\"color: black; font-size: 80px; padding-left: 35%; padding-right: 46%; padding-top: 15%; padding-bottom: 48%\">+</p>"	"1269"	n/a	n/a	n/a	n/a	n/a	n/a	n/a	n/a	n/a
n/a	"image-keyboard-response"	"142"	"329114"	"0.0-5.0-2.0-1.44"	"wh9d6b"	"600"	"1366"	"chrome"	"111.0.0"	"FALSE"	"Windows 10"	"60.1"	"049"	n/a	n/a	n/a	n/a	n/a	n/a	"Trial"	n/a	n/a	n/a	"367"	"arrowup"	n/a	"NULL"	"NULL"	"NULL"	"stimuli/MullerLyer_-20.04286_0.07627.png"	n/a	"MullerLyer"	"arrowup"	"1282"	"TRUE"	"MullerLyer"	"-20.04286000"	"0.0762700000"	"1"	"63"
n/a	"html-keyboard-response"	"143"	"330129"	"0.0-5.0-2.0-0.45"	"wh9d6b"	"600"	"1366"	"chrome"	"111.0.0"	"FALSE"	"Windows 10"	"60.1"	"049"	n/a	n/a	n/a	n/a	n/a	n/a	"fixation"	n/a	n/a	n/a	n/a	"NULL"	n/a	"NULL"	"NULL"	"NULL"	"<p style=\"color: black; font-size: 80px; padding-left: 12%; padding-right: 35%; padding-top: 10%; padding-bottom: 19%\">+</p>"	"1003"	n/a	n/a	n/a	n/a	n/a	n/a	n/a	n/a	n/a
n/a	"image-keyboard-response"	"144"	"330594"	"0.0-5.0-2.0-1.45"	"wh9d6b"	"600"	"1366"	"chrome"	"111.0.0"	"FALSE"	"Windows 10"	"60.1"	"049"	n/a	n/a	n/a	n/a	n/a	n/a	"Trial"	n/a	n/a	n/a	"465"	"arrowdown"	n/a	"NULL"	"NULL"	"NULL"	"stimuli/MullerLyer_-8.21429_-0.07627.png"	n/a	"MullerLyer"	"arrowdown"	"1015"	"TRUE"	"MullerLyer"	"-8.214290000"	"-0.076270000"	"1"	"64"
n/a	"html-keyboard-response"	"145"	"331702"	"0.0-5.0-2.0-0.46"	"wh9d6b"	"600"	"1366"	"chrome"	"111.0.0"	"FALSE"	"Windows 10"	"60.1"	"049"	n/a	n/a	n/a	n/a	n/a	n/a	"fixation"	n/a	n/a	n/a	n/a	"NULL"	n/a	"NULL"	"NULL"	"NULL"	"<p style=\"color: black; font-size: 80px; padding-left: 43%; padding-right: 45%; padding-top: 39%; padding-bottom: 39%\">+</p>"	"1103"	n/a	n/a	n/a	n/a	n/a	n/a	n/a	n/a	n/a
n/a	"image-keyboard-response"	"146"	"332169"	"0.0-5.0-2.0-1.46"	"wh9d6b"	"600"	"1366"	"chrome"	"111.0.0"	"FALSE"	"Windows 10"	"60.1"	"049"	n/a	n/a	n/a	n/a	n/a	n/a	"Trial"	n/a	n/a	n/a	"466"	"arrowup"	n/a	"NULL"	"NULL"	"NULL"	"stimuli/MullerLyer_8.21429_-0.14541.png"	n/a	"MullerLyer"	"arrowdown"	"1108"	"FALSE"	"MullerLyer"	"8.2142900000"	"-0.145410000"	"1"	"65"
n/a	"html-keyboard-response"	"147"	"333462"	"0.0-5.0-2.0-0.47"	"wh9d6b"	"600"	"1366"	"chrome"	"111.0.0"	"FALSE"	"Windows 10"	"60.1"	"049"	n/a	n/a	n/a	n/a	n/a	n/a	"fixation"	n/a	n/a	n/a	n/a	"NULL"	n/a	"NULL"	"NULL"	"NULL"	"<p style=\"color: black; font-size: 80px; padding-left: 27%; padding-right: 30%; padding-top: 7%; padding-bottom: 33%\">+</p>"	"1280"	n/a	n/a	n/a	n/a	n/a	n/a	n/a	n/a	n/a
n/a	"image-keyboard-response"	"148"	"333988"	"0.0-5.0-2.0-1.47"	"wh9d6b"	"600"	"1366"	"chrome"	"111.0.0"	"FALSE"	"Windows 10"	"60.1"	"049"	n/a	n/a	n/a	n/a	n/a	n/a	"Trial"	n/a	n/a	n/a	"525"	"arrowdown"	n/a	"NULL"	"NULL"	"NULL"	"stimuli/MullerLyer_-2.3000_-0.14541.png"	n/a	"MullerLyer"	"arrowdown"	"1293"	"TRUE"	"MullerLyer"	"-2.300000000"	"-0.145410000"	"1"	"66"
n/a	"html-keyboard-response"	"149"	"335126"	"0.0-5.0-2.0-0.48"	"wh9d6b"	"600"	"1366"	"chrome"	"111.0.0"	"FALSE"	"Windows 10"	"60.1"	"049"	n/a	n/a	n/a	n/a	n/a	n/a	"fixation"	n/a	n/a	n/a	n/a	"NULL"	n/a	"NULL"	"NULL"	"NULL"	"<p style=\"color: black; font-size: 80px; padding-left: 38%; padding-right: 15%; padding-top: 5%; padding-bottom: 44%\">+</p>"	"1132"	n/a	n/a	n/a	n/a	n/a	n/a	n/a	n/a	n/a
n/a	"image-keyboard-response"	"150"	"335454"	"0.0-5.0-2.0-1.48"	"wh9d6b"	"600"	"1366"	"chrome"	"111.0.0"	"FALSE"	"Windows 10"	"60.1"	"049"	n/a	n/a	n/a	n/a	n/a	n/a	"Trial"	n/a	n/a	n/a	"327"	"arrowup"	n/a	"NULL"	"NULL"	"NULL"	"stimuli/MullerLyer_-14.12857_0.23665.png"	n/a	"MullerLyer"	"arrowup"	"1138"	"TRUE"	"MullerLyer"	"-14.12857000"	"0.2366500000"	"1"	"67"
n/a	"html-keyboard-response"	"151"	"336554"	"0.0-5.0-2.0-0.49"	"wh9d6b"	"600"	"1366"	"chrome"	"111.0.0"	"FALSE"	"Windows 10"	"60.1"	"049"	n/a	n/a	n/a	n/a	n/a	n/a	"fixation"	n/a	n/a	n/a	n/a	"NULL"	n/a	"NULL"	"NULL"	"NULL"	"<p style=\"color: black; font-size: 80px; padding-left: 45%; padding-right: 12%; padding-top: 32%; padding-bottom: 24%\">+</p>"	"1095"	n/a	n/a	n/a	n/a	n/a	n/a	n/a	n/a	n/a
n/a	"image-keyboard-response"	"152"	"337015"	"0.0-5.0-2.0-1.49"	"wh9d6b"	"600"	"1366"	"chrome"	"111.0.0"	"FALSE"	"Windows 10"	"60.1"	"049"	n/a	n/a	n/a	n/a	n/a	n/a	"Trial"	n/a	n/a	n/a	"460"	"arrowdown"	n/a	"NULL"	"NULL"	"NULL"	"stimuli/MullerLyer_20.04286_0.23665.png"	n/a	"MullerLyer"	"arrowup"	"1100"	"FALSE"	"MullerLyer"	"20.042860000"	"0.2366500000"	"1"	"68"
n/a	"html-keyboard-response"	"153"	"338191"	"0.0-5.0-2.0-0.50"	"wh9d6b"	"600"	"1366"	"chrome"	"111.0.0"	"FALSE"	"Windows 10"	"60.1"	"049"	n/a	n/a	n/a	n/a	n/a	n/a	"fixation"	n/a	n/a	n/a	n/a	"NULL"	n/a	"NULL"	"NULL"	"NULL"	"<p style=\"color: black; font-size: 80px; padding-left: 1%; padding-right: 13%; padding-top: 50%; padding-bottom: 36%\">+</p>"	"1165"	n/a	n/a	n/a	n/a	n/a	n/a	n/a	n/a	n/a
n/a	"image-keyboard-response"	"154"	"338524"	"0.0-5.0-2.0-1.50"	"wh9d6b"	"600"	"1366"	"chrome"	"111.0.0"	"FALSE"	"Windows 10"	"60.1"	"049"	n/a	n/a	n/a	n/a	n/a	n/a	"Trial"	n/a	n/a	n/a	"332"	"arrowup"	n/a	"NULL"	"NULL"	"NULL"	"stimuli/MullerLyer_-20.04286_-0.3500.png"	n/a	"MullerLyer"	"arrowdown"	"1176"	"FALSE"	"MullerLyer"	"-20.04286000"	"-0.350000000"	"1"	"69"
n/a	"html-keyboard-response"	"155"	"339694"	"0.0-5.0-2.0-0.51"	"wh9d6b"	"600"	"1366"	"chrome"	"111.0.0"	"FALSE"	"Windows 10"	"60.1"	"049"	n/a	n/a	n/a	n/a	n/a	n/a	"fixation"	n/a	n/a	n/a	n/a	"NULL"	n/a	"NULL"	"NULL"	"NULL"	"<p style=\"color: black; font-size: 80px; padding-left: 28%; padding-right: 12%; padding-top: 2%; padding-bottom: 16%\">+</p>"	"1162"	n/a	n/a	n/a	n/a	n/a	n/a	n/a	n/a	n/a
n/a	"image-keyboard-response"	"156"	"340209"	"0.0-5.0-2.0-1.51"	"wh9d6b"	"600"	"1366"	"chrome"	"111.0.0"	"FALSE"	"Windows 10"	"60.1"	"049"	n/a	n/a	n/a	n/a	n/a	n/a	"Trial"	n/a	n/a	n/a	"514"	"arrowup"	n/a	"NULL"	"NULL"	"NULL"	"stimuli/MullerLyer_-8.21429_0.14541.png"	n/a	"MullerLyer"	"arrowup"	"1170"	"TRUE"	"MullerLyer"	"-8.214290000"	"0.1454100000"	"1"	"70"
n/a	"html-keyboard-response"	"157"	"341252"	"0.0-5.0-2.0-0.52"	"wh9d6b"	"600"	"1366"	"chrome"	"111.0.0"	"FALSE"	"Windows 10"	"60.1"	"049"	n/a	n/a	n/a	n/a	n/a	n/a	"fixation"	n/a	n/a	n/a	n/a	"NULL"	n/a	"NULL"	"NULL"	"NULL"	"<p style=\"color: black; font-size: 80px; padding-left: 39%; padding-right: 16%; padding-top: 43%; padding-bottom: 44%\">+</p>"	"1033"	n/a	n/a	n/a	n/a	n/a	n/a	n/a	n/a	n/a
n/a	"image-keyboard-response"	"158"	"341666"	"0.0-5.0-2.0-1.52"	"wh9d6b"	"600"	"1366"	"chrome"	"111.0.0"	"FALSE"	"Windows 10"	"60.1"	"049"	n/a	n/a	n/a	n/a	n/a	n/a	"Trial"	n/a	n/a	n/a	"413"	"arrowdown"	n/a	"NULL"	"NULL"	"NULL"	"stimuli/MullerLyer_-20.04286_-0.14541.png"	n/a	"MullerLyer"	"arrowdown"	"1043"	"TRUE"	"MullerLyer"	"-20.04286000"	"-0.145410000"	"1"	"71"
n/a	"html-keyboard-response"	"159"	"342673"	"0.0-5.0-2.0-0.53"	"wh9d6b"	"600"	"1366"	"chrome"	"111.0.0"	"FALSE"	"Windows 10"	"60.1"	"049"	n/a	n/a	n/a	n/a	n/a	n/a	"fixation"	n/a	n/a	n/a	n/a	"NULL"	n/a	"NULL"	"NULL"	"NULL"	"<p style=\"color: black; font-size: 80px; padding-left: 6%; padding-right: 45%; padding-top: 22%; padding-bottom: 10%\">+</p>"	"1006"	n/a	n/a	n/a	n/a	n/a	n/a	n/a	n/a	n/a
n/a	"image-keyboard-response"	"160"	"343079"	"0.0-5.0-2.0-1.53"	"wh9d6b"	"600"	"1366"	"chrome"	"111.0.0"	"FALSE"	"Windows 10"	"60.1"	"049"	n/a	n/a	n/a	n/a	n/a	n/a	"Trial"	n/a	n/a	n/a	"405"	"arrowdown"	n/a	"NULL"	"NULL"	"NULL"	"stimuli/MullerLyer_20.04286_-0.23665.png"	n/a	"MullerLyer"	"arrowdown"	"1007"	"TRUE"	"MullerLyer"	"20.042860000"	"-0.236650000"	"1"	"72"
n/a	"html-keyboard-response"	"161"	"344500"	"0.0-5.0-2.0-0.54"	"wh9d6b"	"600"	"1366"	"chrome"	"111.0.0"	"FALSE"	"Windows 10"	"60.1"	"049"	n/a	n/a	n/a	n/a	n/a	n/a	"fixation"	n/a	n/a	n/a	n/a	"NULL"	n/a	"NULL"	"NULL"	"NULL"	"<p style=\"color: black; font-size: 80px; padding-left: 39%; padding-right: 10%; padding-top: 4%; padding-bottom: 2%\">+</p>"	"1406"	n/a	n/a	n/a	n/a	n/a	n/a	n/a	n/a	n/a
n/a	"image-keyboard-response"	"162"	"345128"	"0.0-5.0-2.0-1.54"	"wh9d6b"	"600"	"1366"	"chrome"	"111.0.0"	"FALSE"	"Windows 10"	"60.1"	"049"	n/a	n/a	n/a	n/a	n/a	n/a	"Trial"	n/a	n/a	n/a	"627"	"arrowup"	n/a	"NULL"	"NULL"	"NULL"	"stimuli/MullerLyer_14.12857_-0.14541.png"	n/a	"MullerLyer"	"arrowdown"	"1421"	"FALSE"	"MullerLyer"	"14.128570000"	"-0.145410000"	"1"	"73"
n/a	"html-keyboard-response"	"163"	"346220"	"0.0-5.0-2.0-0.55"	"wh9d6b"	"600"	"1366"	"chrome"	"111.0.0"	"FALSE"	"Windows 10"	"60.1"	"049"	n/a	n/a	n/a	n/a	n/a	n/a	"fixation"	n/a	n/a	n/a	n/a	"NULL"	n/a	"NULL"	"NULL"	"NULL"	"<p style=\"color: black; font-size: 80px; padding-left: 26%; padding-right: 41%; padding-top: 7%; padding-bottom: 28%\">+</p>"	"1090"	n/a	n/a	n/a	n/a	n/a	n/a	n/a	n/a	n/a
n/a	"image-keyboard-response"	"164"	"346651"	"0.0-5.0-2.0-1.55"	"wh9d6b"	"600"	"1366"	"chrome"	"111.0.0"	"FALSE"	"Windows 10"	"60.1"	"049"	n/a	n/a	n/a	n/a	n/a	n/a	"Trial"	n/a	n/a	n/a	"430"	"arrowdown"	n/a	"NULL"	"NULL"	"NULL"	"stimuli/MullerLyer_20.04286_0.14541.png"	n/a	"MullerLyer"	"arrowup"	"1092"	"FALSE"	"MullerLyer"	"20.042860000"	"0.1454100000"	"1"	"74"
n/a	"html-keyboard-response"	"165"	"347872"	"0.0-5.0-2.0-0.56"	"wh9d6b"	"600"	"1366"	"chrome"	"111.0.0"	"FALSE"	"Windows 10"	"60.1"	"049"	n/a	n/a	n/a	n/a	n/a	n/a	"fixation"	n/a	n/a	n/a	n/a	"NULL"	n/a	"NULL"	"NULL"	"NULL"	"<p style=\"color: black; font-size: 80px; padding-left: 31%; padding-right: 28%; padding-top: 43%; padding-bottom: 15%\">+</p>"	"1209"	n/a	n/a	n/a	n/a	n/a	n/a	n/a	n/a	n/a
n/a	"image-keyboard-response"	"166"	"348319"	"0.0-5.0-2.0-1.56"	"wh9d6b"	"600"	"1366"	"chrome"	"111.0.0"	"FALSE"	"Windows 10"	"60.1"	"049"	n/a	n/a	n/a	n/a	n/a	n/a	"Trial"	n/a	n/a	n/a	"446"	"arrowup"	n/a	"NULL"	"NULL"	"NULL"	"stimuli/MullerLyer_-20.04286_0.23665.png"	n/a	"MullerLyer"	"arrowup"	"1221"	"TRUE"	"MullerLyer"	"-20.04286000"	"0.2366500000"	"1"	"75"
n/a	"html-keyboard-response"	"167"	"349334"	"0.0-5.0-2.0-0.57"	"wh9d6b"	"600"	"1366"	"chrome"	"111.0.0"	"FALSE"	"Windows 10"	"60.1"	"049"	n/a	n/a	n/a	n/a	n/a	n/a	"fixation"	n/a	n/a	n/a	n/a	"NULL"	n/a	"NULL"	"NULL"	"NULL"	"<p style=\"color: black; font-size: 80px; padding-left: 15%; padding-right: 47%; padding-top: 25%; padding-bottom: 10%\">+</p>"	"1011"	n/a	n/a	n/a	n/a	n/a	n/a	n/a	n/a	n/a
n/a	"image-keyboard-response"	"168"	"349768"	"0.0-5.0-2.0-1.57"	"wh9d6b"	"600"	"1366"	"chrome"	"111.0.0"	"FALSE"	"Windows 10"	"60.1"	"049"	n/a	n/a	n/a	n/a	n/a	n/a	"Trial"	n/a	n/a	n/a	"433"	"arrowdown"	n/a	"NULL"	"NULL"	"NULL"	"stimuli/MullerLyer_-14.12857_-0.23665.png"	n/a	"MullerLyer"	"arrowdown"	"1015"	"TRUE"	"MullerLyer"	"-14.12857000"	"-0.236650000"	"1"	"76"
n/a	"html-keyboard-response"	"169"	"350995"	"0.0-5.0-2.0-0.58"	"wh9d6b"	"600"	"1366"	"chrome"	"111.0.0"	"FALSE"	"Windows 10"	"60.1"	"049"	n/a	n/a	n/a	n/a	n/a	n/a	"fixation"	n/a	n/a	n/a	n/a	"NULL"	n/a	"NULL"	"NULL"	"NULL"	"<p style=\"color: black; font-size: 80px; padding-left: 44%; padding-right: 8%; padding-top: 21%; padding-bottom: 14%\">+</p>"	"1212"	n/a	n/a	n/a	n/a	n/a	n/a	n/a	n/a	n/a
n/a	"image-keyboard-response"	"170"	"351643"	"0.0-5.0-2.0-1.58"	"wh9d6b"	"600"	"1366"	"chrome"	"111.0.0"	"FALSE"	"Windows 10"	"60.1"	"049"	n/a	n/a	n/a	n/a	n/a	n/a	"Trial"	n/a	n/a	n/a	"647"	"arrowup"	n/a	"NULL"	"NULL"	"NULL"	"stimuli/MullerLyer_14.12857_-0.07627.png"	n/a	"MullerLyer"	"arrowdown"	"1227"	"FALSE"	"MullerLyer"	"14.128570000"	"-0.076270000"	"1"	"77"
n/a	"html-keyboard-response"	"171"	"353136"	"0.0-5.0-2.0-0.59"	"wh9d6b"	"600"	"1366"	"chrome"	"111.0.0"	"FALSE"	"Windows 10"	"60.1"	"049"	n/a	n/a	n/a	n/a	n/a	n/a	"fixation"	n/a	n/a	n/a	n/a	"NULL"	n/a	"NULL"	"NULL"	"NULL"	"<p style=\"color: black; font-size: 80px; padding-left: 7%; padding-right: 44%; padding-top: 30%; padding-bottom: 34%\">+</p>"	"1481"	n/a	n/a	n/a	n/a	n/a	n/a	n/a	n/a	n/a
n/a	"image-keyboard-response"	"172"	"353671"	"0.0-5.0-2.0-1.59"	"wh9d6b"	"600"	"1366"	"chrome"	"111.0.0"	"FALSE"	"Windows 10"	"60.1"	"049"	n/a	n/a	n/a	n/a	n/a	n/a	"Trial"	n/a	n/a	n/a	"534"	"arrowdown"	n/a	"NULL"	"NULL"	"NULL"	"stimuli/MullerLyer_20.04286_0.35000.png"	n/a	"MullerLyer"	"arrowup"	"1493"	"FALSE"	"MullerLyer"	"20.042860000"	"0.3500000000"	"1"	"78"
n/a	"html-keyboard-response"	"173"	"354751"	"0.0-5.0-2.0-0.60"	"wh9d6b"	"600"	"1366"	"chrome"	"111.0.0"	"FALSE"	"Windows 10"	"60.1"	"049"	n/a	n/a	n/a	n/a	n/a	n/a	"fixation"	n/a	n/a	n/a	n/a	"NULL"	n/a	"NULL"	"NULL"	"NULL"	"<p style=\"color: black; font-size: 80px; padding-left: 35%; padding-right: 28%; padding-top: 33%; padding-bottom: 33%\">+</p>"	"1067"	n/a	n/a	n/a	n/a	n/a	n/a	n/a	n/a	n/a
n/a	"image-keyboard-response"	"174"	"355272"	"0.0-5.0-2.0-1.60"	"wh9d6b"	"600"	"1366"	"chrome"	"111.0.0"	"FALSE"	"Windows 10"	"60.1"	"049"	n/a	n/a	n/a	n/a	n/a	n/a	"Trial"	n/a	n/a	n/a	"520"	"arrowup"	n/a	"NULL"	"NULL"	"NULL"	"stimuli/MullerLyer_8.21429_0.35000.png"	n/a	"MullerLyer"	"arrowup"	"1080"	"TRUE"	"MullerLyer"	"8.2142900000"	"0.3500000000"	"1"	"79"
n/a	"html-keyboard-response"	"175"	"356583"	"0.0-5.0-2.0-0.61"	"wh9d6b"	"600"	"1366"	"chrome"	"111.0.0"	"FALSE"	"Windows 10"	"60.1"	"049"	n/a	n/a	n/a	n/a	n/a	n/a	"fixation"	n/a	n/a	n/a	n/a	"NULL"	n/a	"NULL"	"NULL"	"NULL"	"<p style=\"color: black; font-size: 80px; padding-left: 42%; padding-right: 10%; padding-top: 5%; padding-bottom: 42%\">+</p>"	"1307"	n/a	n/a	n/a	n/a	n/a	n/a	n/a	n/a	n/a
n/a	"image-keyboard-response"	"176"	"356938"	"0.0-5.0-2.0-1.61"	"wh9d6b"	"600"	"1366"	"chrome"	"111.0.0"	"FALSE"	"Windows 10"	"60.1"	"049"	n/a	n/a	n/a	n/a	n/a	n/a	"Trial"	n/a	n/a	n/a	"354"	"arrowup"	n/a	"NULL"	"NULL"	"NULL"	"stimuli/MullerLyer_-8.21429_0.35000.png"	n/a	"MullerLyer"	"arrowup"	"1311"	"TRUE"	"MullerLyer"	"-8.214290000"	"0.3500000000"	"1"	"80"
n/a	"html-keyboard-response"	"177"	"358093"	"0.0-5.0-2.0-0.62"	"wh9d6b"	"600"	"1366"	"chrome"	"111.0.0"	"FALSE"	"Windows 10"	"60.1"	"049"	n/a	n/a	n/a	n/a	n/a	n/a	"fixation"	n/a	n/a	n/a	n/a	"NULL"	n/a	"NULL"	"NULL"	"NULL"	"<p style=\"color: black; font-size: 80px; padding-left: 31%; padding-right: 26%; padding-top: 40%; padding-bottom: 38%\">+</p>"	"1152"	n/a	n/a	n/a	n/a	n/a	n/a	n/a	n/a	n/a
n/a	"image-keyboard-response"	"178"	"358486"	"0.0-5.0-2.0-1.62"	"wh9d6b"	"600"	"1366"	"chrome"	"111.0.0"	"FALSE"	"Windows 10"	"60.1"	"049"	n/a	n/a	n/a	n/a	n/a	n/a	"Trial"	n/a	n/a	n/a	"393"	"arrowup"	n/a	"NULL"	"NULL"	"NULL"	"stimuli/MullerLyer_-20.04286_0.14541.png"	n/a	"MullerLyer"	"arrowup"	"1155"	"TRUE"	"MullerLyer"	"-20.04286000"	"0.1454100000"	"1"	"81"
n/a	"html-keyboard-response"	"179"	"359934"	"0.0-5.0-2.0-0.63"	"wh9d6b"	"600"	"1366"	"chrome"	"111.0.0"	"FALSE"	"Windows 10"	"60.1"	"049"	n/a	n/a	n/a	n/a	n/a	n/a	"fixation"	n/a	n/a	n/a	n/a	"NULL"	n/a	"NULL"	"NULL"	"NULL"	"<p style=\"color: black; font-size: 80px; padding-left: 29%; padding-right: 24%; padding-top: 25%; padding-bottom: 24%\">+</p>"	"1436"	n/a	n/a	n/a	n/a	n/a	n/a	n/a	n/a	n/a
n/a	"image-keyboard-response"	"180"	"360384"	"0.0-5.0-2.0-1.63"	"wh9d6b"	"600"	"1366"	"chrome"	"111.0.0"	"FALSE"	"Windows 10"	"60.1"	"049"	n/a	n/a	n/a	n/a	n/a	n/a	"Trial"	n/a	n/a	n/a	"449"	"arrowup"	n/a	"NULL"	"NULL"	"NULL"	"stimuli/MullerLyer_2.30000_0.35000.png"	n/a	"MullerLyer"	"arrowup"	"1448"	"TRUE"	"MullerLyer"	"2.3000000000"	"0.3500000000"	"1"	"82"
n/a	"html-button-response"	"181"	"376847"	"0.0-5.0-3.0"	"wh9d6b"	"600"	"1366"	"chrome"	"111.0.0"	"FALSE"	"Windows 10"	"60.1"	"049"	n/a	n/a	n/a	n/a	n/a	n/a	"block_results"	n/a	n/a	n/a	"16461"	"0"	n/a	"NULL"	"NULL"	"NULL"	"<p>Your score for this illusion is <p style=\"color: black; font-size: 48px; font-weight: bold;\">82.6 %</p><hr><p>Can you do better in the next illusion?</p>"	n/a	n/a	n/a	n/a	n/a	n/a	n/a	n/a	n/a	n/a
"TRUE"	"preload"	"182"	"377025"	"0.0-6.0-0.0"	"wh9d6b"	"600"	"1366"	"chrome"	"111.0.0"	"FALSE"	"Windows 10"	"60.1"	"049"	n/a	n/a	n/a	n/a	n/a	n/a	n/a	n/a	n/a	n/a	n/a	"NULL"	"FALSE"	"list()"	"list()"	"list()"	n/a	n/a	n/a	n/a	n/a	n/a	n/a	n/a	n/a	n/a	n/a
n/a	"html-keyboard-response"	"183"	"382722"	"0.0-6.0-1.0"	"wh9d6b"	"600"	"1366"	"chrome"	"111.0.0"	"FALSE"	"Windows 10"	"60.1"	"049"	n/a	n/a	n/a	n/a	n/a	n/a	n/a	n/a	n/a	n/a	"5696"	"enter"	n/a	"NULL"	"NULL"	"NULL"	"<p><b>Part 2/6</b></p><p>In this part, two red lines will appear side by side.</p><p>Your task is to tell <b>which line is longer</b> in length, regardless of their orientation, as fast as you can, and without making errors.</p><p>Don't get distracted by the orientation of the lines!</p><p>Press <b>the LEFT or the RIGHT arrow</b> to indicate which <b>line is the longer one.</b></p><div style='float: center'><img src='materials/instructions/VerticalHorizontal_Demo.png' height='300'></img><p><img src='utils/answer/answer_leftright_keyboard.PNG' height='150'></img></p><p class='small'>In this example, the correct answer is the <b>LEFT arrow</b>.</p></div><p>Are you ready? <b>Press ENTER to start</b></p>"	n/a	n/a	n/a	n/a	n/a	n/a	n/a	n/a	n/a	n/a
n/a	"html-keyboard-response"	"184"	"384250"	"0.0-6.0-2.0-0.0"	"wh9d6b"	"600"	"1366"	"chrome"	"111.0.0"	"FALSE"	"Windows 10"	"60.1"	"049"	n/a	n/a	n/a	n/a	n/a	n/a	"fixation"	n/a	n/a	n/a	n/a	"NULL"	n/a	"NULL"	"NULL"	"NULL"	"<p style=\"color: black; font-size: 80px; padding-left: 40%; padding-right: 20%; padding-top: 32%; padding-bottom: 35%\">+</p>"	"1020"	n/a	n/a	n/a	n/a	n/a	n/a	n/a	n/a	n/a
n/a	"image-keyboard-response"	"185"	"384759"	"0.0-6.0-2.0-1.0"	"wh9d6b"	"600"	"1366"	"chrome"	"111.0.0"	"FALSE"	"Windows 10"	"60.1"	"049"	n/a	n/a	n/a	n/a	n/a	n/a	"Trial"	n/a	n/a	n/a	"508"	"arrowleft"	n/a	"NULL"	"NULL"	"NULL"	"stimuli/VerticalHorizontal_-28.75714_0.10960.png"	n/a	"VerticalHorizontal"	"arrowleft"	"1528"	"TRUE"	"VerticalHorizontal"	"-28.75714000"	"0.1096000000"	"2"	"1"
n/a	"html-keyboard-response"	"186"	"385905"	"0.0-6.0-2.0-0.1"	"wh9d6b"	"600"	"1366"	"chrome"	"111.0.0"	"FALSE"	"Windows 10"	"60.1"	"049"	n/a	n/a	n/a	n/a	n/a	n/a	"fixation"	n/a	n/a	n/a	n/a	"NULL"	n/a	"NULL"	"NULL"	"NULL"	"<p style=\"color: black; font-size: 80px; padding-left: 37%; padding-right: 18%; padding-top: 22%; padding-bottom: 6%\">+</p>"	"1144"	n/a	n/a	n/a	n/a	n/a	n/a	n/a	n/a	n/a
n/a	"image-keyboard-response"	"187"	"386294"	"0.0-6.0-2.0-1.1"	"wh9d6b"	"600"	"1366"	"chrome"	"111.0.0"	"FALSE"	"Windows 10"	"60.1"	"049"	n/a	n/a	n/a	n/a	n/a	n/a	"Trial"	n/a	n/a	n/a	"388"	"arrowleft"	n/a	"NULL"	"NULL"	"NULL"	"stimuli/VerticalHorizontal_28.75714_-0.0673.png"	n/a	"VerticalHorizontal"	"arrowright"	"1146"	"FALSE"	"VerticalHorizontal"	"28.757140000"	"-0.067300000"	"2"	"2"
n/a	"html-keyboard-response"	"188"	"387450"	"0.0-6.0-2.0-0.2"	"wh9d6b"	"600"	"1366"	"chrome"	"111.0.0"	"FALSE"	"Windows 10"	"60.1"	"049"	n/a	n/a	n/a	n/a	n/a	n/a	"fixation"	n/a	n/a	n/a	n/a	"NULL"	n/a	"NULL"	"NULL"	"NULL"	"<p style=\"color: black; font-size: 80px; padding-left: 25%; padding-right: 36%; padding-top: 42%; padding-bottom: 7%\">+</p>"	"1140"	n/a	n/a	n/a	n/a	n/a	n/a	n/a	n/a	n/a
n/a	"image-keyboard-response"	"189"	"387793"	"0.0-6.0-2.0-1.2"	"wh9d6b"	"600"	"1366"	"chrome"	"111.0.0"	"FALSE"	"Windows 10"	"60.1"	"049"	n/a	n/a	n/a	n/a	n/a	n/a	"Trial"	n/a	n/a	n/a	"343"	"arrowright"	n/a	"NULL"	"NULL"	"NULL"	"stimuli/VerticalHorizontal_20.27143_0.10960.png"	n/a	"VerticalHorizontal"	"arrowleft"	"1156"	"FALSE"	"VerticalHorizontal"	"20.271430000"	"0.1096000000"	"2"	"3"
n/a	"html-keyboard-response"	"190"	"388829"	"0.0-6.0-2.0-0.3"	"wh9d6b"	"600"	"1366"	"chrome"	"111.0.0"	"FALSE"	"Windows 10"	"60.1"	"049"	n/a	n/a	n/a	n/a	n/a	n/a	"fixation"	n/a	n/a	n/a	n/a	"NULL"	n/a	"NULL"	"NULL"	"NULL"	"<p style=\"color: black; font-size: 80px; padding-left: 42%; padding-right: 39%; padding-top: 8%; padding-bottom: 33%\">+</p>"	"1022"	n/a	n/a	n/a	n/a	n/a	n/a	n/a	n/a	n/a
n/a	"image-keyboard-response"	"191"	"389216"	"0.0-6.0-2.0-1.3"	"wh9d6b"	"600"	"1366"	"chrome"	"111.0.0"	"FALSE"	"Windows 10"	"60.1"	"049"	n/a	n/a	n/a	n/a	n/a	n/a	"Trial"	n/a	n/a	n/a	"387"	"arrowleft"	n/a	"NULL"	"NULL"	"NULL"	"stimuli/VerticalHorizontal_20.27143_-0.0673.png"	n/a	"VerticalHorizontal"	"arrowright"	"1036"	"FALSE"	"VerticalHorizontal"	"20.271430000"	"-0.067300000"	"2"	"4"
n/a	"html-keyboard-response"	"192"	"390511"	"0.0-6.0-2.0-0.4"	"wh9d6b"	"600"	"1366"	"chrome"	"111.0.0"	"FALSE"	"Windows 10"	"60.1"	"049"	n/a	n/a	n/a	n/a	n/a	n/a	"fixation"	n/a	n/a	n/a	n/a	"NULL"	n/a	"NULL"	"NULL"	"NULL"	"<p style=\"color: black; font-size: 80px; padding-left: 35%; padding-right: 4%; padding-top: 13%; padding-bottom: 29%\">+</p>"	"1286"	n/a	n/a	n/a	n/a	n/a	n/a	n/a	n/a	n/a
n/a	"image-keyboard-response"	"193"	"390943"	"0.0-6.0-2.0-1.4"	"wh9d6b"	"600"	"1366"	"chrome"	"111.0.0"	"FALSE"	"Windows 10"	"60.1"	"049"	n/a	n/a	n/a	n/a	n/a	n/a	"Trial"	n/a	n/a	n/a	"430"	"arrowright"	n/a	"NULL"	"NULL"	"NULL"	"stimuli/VerticalHorizontal_-3.3000_-0.16217.png"	n/a	"VerticalHorizontal"	"arrowright"	"1295"	"TRUE"	"VerticalHorizontal"	"-3.300000000"	"-0.162170000"	"2"	"5"
n/a	"html-keyboard-response"	"194"	"392452"	"0.0-6.0-2.0-0.5"	"wh9d6b"	"600"	"1366"	"chrome"	"111.0.0"	"FALSE"	"Windows 10"	"60.1"	"049"	n/a	n/a	n/a	n/a	n/a	n/a	"fixation"	n/a	n/a	n/a	n/a	"NULL"	n/a	"NULL"	"NULL"	"NULL"	"<p style=\"color: black; font-size: 80px; padding-left: 39%; padding-right: 38%; padding-top: 9%; padding-bottom: 35%\">+</p>"	"1499"	n/a	n/a	n/a	n/a	n/a	n/a	n/a	n/a	n/a
n/a	"image-keyboard-response"	"195"	"392818"	"0.0-6.0-2.0-1.5"	"wh9d6b"	"600"	"1366"	"chrome"	"111.0.0"	"FALSE"	"Windows 10"	"60.1"	"049"	n/a	n/a	n/a	n/a	n/a	n/a	"Trial"	n/a	n/a	n/a	"365"	"arrowleft"	n/a	"NULL"	"NULL"	"NULL"	"stimuli/VerticalHorizontal_11.78571_-0.1096.png"	n/a	"VerticalHorizontal"	"arrowright"	"1509"	"FALSE"	"VerticalHorizontal"	"11.785710000"	"-0.109600000"	"2"	"6"
n/a	"html-keyboard-response"	"196"	"393980"	"0.0-6.0-2.0-0.6"	"wh9d6b"	"600"	"1366"	"chrome"	"111.0.0"	"FALSE"	"Windows 10"	"60.1"	"049"	n/a	n/a	n/a	n/a	n/a	n/a	"fixation"	n/a	n/a	n/a	n/a	"NULL"	n/a	"NULL"	"NULL"	"NULL"	"<p style=\"color: black; font-size: 80px; padding-left: 19%; padding-right: 20%; padding-top: 40%; padding-bottom: 38%\">+</p>"	"1159"	n/a	n/a	n/a	n/a	n/a	n/a	n/a	n/a	n/a
n/a	"image-keyboard-response"	"197"	"394513"	"0.0-6.0-2.0-1.6"	"wh9d6b"	"600"	"1366"	"chrome"	"111.0.0"	"FALSE"	"Windows 10"	"60.1"	"049"	n/a	n/a	n/a	n/a	n/a	n/a	"Trial"	n/a	n/a	n/a	"530"	"arrowright"	n/a	"NULL"	"NULL"	"NULL"	"stimuli/VerticalHorizontal_-3.3000_-0.0673.png"	n/a	"VerticalHorizontal"	"arrowright"	"1162"	"TRUE"	"VerticalHorizontal"	"-3.300000000"	"-0.067300000"	"2"	"7"
n/a	"html-keyboard-response"	"198"	"395998"	"0.0-6.0-2.0-0.7"	"wh9d6b"	"600"	"1366"	"chrome"	"111.0.0"	"FALSE"	"Windows 10"	"60.1"	"049"	n/a	n/a	n/a	n/a	n/a	n/a	"fixation"	n/a	n/a	n/a	n/a	"NULL"	n/a	"NULL"	"NULL"	"NULL"	"<p style=\"color: black; font-size: 80px; padding-left: 19%; padding-right: 4%; padding-top: 1%; padding-bottom: 14%\">+</p>"	"1474"	n/a	n/a	n/a	n/a	n/a	n/a	n/a	n/a	n/a
n/a	"image-keyboard-response"	"199"	"396391"	"0.0-6.0-2.0-1.7"	"wh9d6b"	"600"	"1366"	"chrome"	"111.0.0"	"FALSE"	"Windows 10"	"60.1"	"049"	n/a	n/a	n/a	n/a	n/a	n/a	"Trial"	n/a	n/a	n/a	"393"	"arrowleft"	n/a	"NULL"	"NULL"	"NULL"	"stimuli/VerticalHorizontal_-3.3000_0.16217.png"	n/a	"VerticalHorizontal"	"arrowleft"	"1485"	"TRUE"	"VerticalHorizontal"	"-3.300000000"	"0.1621700000"	"2"	"8"
n/a	"html-keyboard-response"	"200"	"397797"	"0.0-6.0-2.0-0.8"	"wh9d6b"	"600"	"1366"	"chrome"	"111.0.0"	"FALSE"	"Windows 10"	"60.1"	"049"	n/a	n/a	n/a	n/a	n/a	n/a	"fixation"	n/a	n/a	n/a	n/a	"NULL"	n/a	"NULL"	"NULL"	"NULL"	"<p style=\"color: black; font-size: 80px; padding-left: 5%; padding-right: 47%; padding-top: 6%; padding-bottom: 28%\">+</p>"	"1405"	n/a	n/a	n/a	n/a	n/a	n/a	n/a	n/a	n/a
n/a	"image-keyboard-response"	"201"	"398281"	"0.0-6.0-2.0-1.8"	"wh9d6b"	"600"	"1366"	"chrome"	"111.0.0"	"FALSE"	"Windows 10"	"60.1"	"049"	n/a	n/a	n/a	n/a	n/a	n/a	"Trial"	n/a	n/a	n/a	"483"	"arrowleft"	n/a	"NULL"	"NULL"	"NULL"	"stimuli/VerticalHorizontal_11.78571_0.06730.png"	n/a	"VerticalHorizontal"	"arrowleft"	"1406"	"TRUE"	"VerticalHorizontal"	"11.785710000"	"0.0673000000"	"2"	"9"
n/a	"html-keyboard-response"	"202"	"399593"	"0.0-6.0-2.0-0.9"	"wh9d6b"	"600"	"1366"	"chrome"	"111.0.0"	"FALSE"	"Windows 10"	"60.1"	"049"	n/a	n/a	n/a	n/a	n/a	n/a	"fixation"	n/a	n/a	n/a	n/a	"NULL"	n/a	"NULL"	"NULL"	"NULL"	"<p style=\"color: black; font-size: 80px; padding-left: 19%; padding-right: 45%; padding-top: 21%; padding-bottom: 5%\">+</p>"	"1298"	n/a	n/a	n/a	n/a	n/a	n/a	n/a	n/a	n/a
n/a	"image-keyboard-response"	"203"	"400029"	"0.0-6.0-2.0-1.9"	"wh9d6b"	"600"	"1366"	"chrome"	"111.0.0"	"FALSE"	"Windows 10"	"60.1"	"049"	n/a	n/a	n/a	n/a	n/a	n/a	"Trial"	n/a	n/a	n/a	"435"	"arrowleft"	n/a	"NULL"	"NULL"	"NULL"	"stimuli/VerticalHorizontal_3.30000_0.10960.png"	n/a	"VerticalHorizontal"	"arrowleft"	"1312"	"TRUE"	"VerticalHorizontal"	"3.3000000000"	"0.1096000000"	"2"	"10"
n/a	"html-keyboard-response"	"204"	"401419"	"0.0-6.0-2.0-0.10"	"wh9d6b"	"600"	"1366"	"chrome"	"111.0.0"	"FALSE"	"Windows 10"	"60.1"	"049"	n/a	n/a	n/a	n/a	n/a	n/a	"fixation"	n/a	n/a	n/a	n/a	"NULL"	n/a	"NULL"	"NULL"	"NULL"	"<p style=\"color: black; font-size: 80px; padding-left: 14%; padding-right: 4%; padding-top: 15%; padding-bottom: 11%\">+</p>"	"1383"	n/a	n/a	n/a	n/a	n/a	n/a	n/a	n/a	n/a
n/a	"image-keyboard-response"	"205"	"402027"	"0.0-6.0-2.0-1.10"	"wh9d6b"	"600"	"1366"	"chrome"	"111.0.0"	"FALSE"	"Windows 10"	"60.1"	"049"	n/a	n/a	n/a	n/a	n/a	n/a	"Trial"	n/a	n/a	n/a	"607"	"arrowleft"	n/a	"NULL"	"NULL"	"NULL"	"stimuli/VerticalHorizontal_11.78571_0.16217.png"	n/a	"VerticalHorizontal"	"arrowleft"	"1390"	"TRUE"	"VerticalHorizontal"	"11.785710000"	"0.1621700000"	"2"	"11"
n/a	"html-keyboard-response"	"206"	"403261"	"0.0-6.0-2.0-0.11"	"wh9d6b"	"600"	"1366"	"chrome"	"111.0.0"	"FALSE"	"Windows 10"	"60.1"	"049"	n/a	n/a	n/a	n/a	n/a	n/a	"fixation"	n/a	n/a	n/a	n/a	"NULL"	n/a	"NULL"	"NULL"	"NULL"	"<p style=\"color: black; font-size: 80px; padding-left: 31%; padding-right: 37%; padding-top: 12%; padding-bottom: 27%\">+</p>"	"1221"	n/a	n/a	n/a	n/a	n/a	n/a	n/a	n/a	n/a
n/a	"image-keyboard-response"	"207"	"403667"	"0.0-6.0-2.0-1.11"	"wh9d6b"	"600"	"1366"	"chrome"	"111.0.0"	"FALSE"	"Windows 10"	"60.1"	"049"	n/a	n/a	n/a	n/a	n/a	n/a	"Trial"	n/a	n/a	n/a	"406"	"arrowleft"	n/a	"NULL"	"NULL"	"NULL"	"stimuli/VerticalHorizontal_-20.27143_0.22500.png"	n/a	"VerticalHorizontal"	"arrowleft"	"1234"	"TRUE"	"VerticalHorizontal"	"-20.27143000"	"0.2250000000"	"2"	"12"
n/a	"html-keyboard-response"	"208"	"405124"	"0.0-6.0-2.0-0.12"	"wh9d6b"	"600"	"1366"	"chrome"	"111.0.0"	"FALSE"	"Windows 10"	"60.1"	"049"	n/a	n/a	n/a	n/a	n/a	n/a	"fixation"	n/a	n/a	n/a	n/a	"NULL"	n/a	"NULL"	"NULL"	"NULL"	"<p style=\"color: black; font-size: 80px; padding-left: 9%; padding-right: 33%; padding-top: 25%; padding-bottom: 26%\">+</p>"	"1453"	n/a	n/a	n/a	n/a	n/a	n/a	n/a	n/a	n/a
n/a	"image-keyboard-response"	"209"	"405746"	"0.0-6.0-2.0-1.12"	"wh9d6b"	"600"	"1366"	"chrome"	"111.0.0"	"FALSE"	"Windows 10"	"60.1"	"049"	n/a	n/a	n/a	n/a	n/a	n/a	"Trial"	n/a	n/a	n/a	"621"	"arrowleft"	n/a	"NULL"	"NULL"	"NULL"	"stimuli/VerticalHorizontal_11.78571_0.22500.png"	n/a	"VerticalHorizontal"	"arrowleft"	"1457"	"TRUE"	"VerticalHorizontal"	"11.785710000"	"0.2250000000"	"2"	"13"
n/a	"html-keyboard-response"	"210"	"407056"	"0.0-6.0-2.0-0.13"	"wh9d6b"	"600"	"1366"	"chrome"	"111.0.0"	"FALSE"	"Windows 10"	"60.1"	"049"	n/a	n/a	n/a	n/a	n/a	n/a	"fixation"	n/a	n/a	n/a	n/a	"NULL"	n/a	"NULL"	"NULL"	"NULL"	"<p style=\"color: black; font-size: 80px; padding-left: 9%; padding-right: 15%; padding-top: 34%; padding-bottom: 40%\">+</p>"	"1307"	n/a	n/a	n/a	n/a	n/a	n/a	n/a	n/a	n/a
n/a	"image-keyboard-response"	"211"	"407559"	"0.0-6.0-2.0-1.13"	"wh9d6b"	"600"	"1366"	"chrome"	"111.0.0"	"FALSE"	"Windows 10"	"60.1"	"049"	n/a	n/a	n/a	n/a	n/a	n/a	"Trial"	n/a	n/a	n/a	"502"	"arrowright"	n/a	"NULL"	"NULL"	"NULL"	"stimuli/VerticalHorizontal_-20.27143_-0.2250.png"	n/a	"VerticalHorizontal"	"arrowright"	"1310"	"TRUE"	"VerticalHorizontal"	"-20.27143000"	"-0.225000000"	"2"	"14"
n/a	"html-keyboard-response"	"212"	"409006"	"0.0-6.0-2.0-0.14"	"wh9d6b"	"600"	"1366"	"chrome"	"111.0.0"	"FALSE"	"Windows 10"	"60.1"	"049"	n/a	n/a	n/a	n/a	n/a	n/a	"fixation"	n/a	n/a	n/a	n/a	"NULL"	n/a	"NULL"	"NULL"	"NULL"	"<p style=\"color: black; font-size: 80px; padding-left: 33%; padding-right: 33%; padding-top: 16%; padding-bottom: 1%\">+</p>"	"1439"	n/a	n/a	n/a	n/a	n/a	n/a	n/a	n/a	n/a
n/a	"image-keyboard-response"	"213"	"409398"	"0.0-6.0-2.0-1.14"	"wh9d6b"	"600"	"1366"	"chrome"	"111.0.0"	"FALSE"	"Windows 10"	"60.1"	"049"	n/a	n/a	n/a	n/a	n/a	n/a	"Trial"	n/a	n/a	n/a	"391"	"arrowleft"	n/a	"NULL"	"NULL"	"NULL"	"stimuli/VerticalHorizontal_-11.78571_0.16217.png"	n/a	"VerticalHorizontal"	"arrowleft"	"1447"	"TRUE"	"VerticalHorizontal"	"-11.78571000"	"0.1621700000"	"2"	"15"
n/a	"html-keyboard-response"	"214"	"410888"	"0.0-6.0-2.0-0.15"	"wh9d6b"	"600"	"1366"	"chrome"	"111.0.0"	"FALSE"	"Windows 10"	"60.1"	"049"	n/a	n/a	n/a	n/a	n/a	n/a	"fixation"	n/a	n/a	n/a	n/a	"NULL"	n/a	"NULL"	"NULL"	"NULL"	"<p style=\"color: black; font-size: 80px; padding-left: 43%; padding-right: 44%; padding-top: 11%; padding-bottom: 39%\">+</p>"	"1474"	n/a	n/a	n/a	n/a	n/a	n/a	n/a	n/a	n/a
n/a	"image-keyboard-response"	"215"	"411452"	"0.0-6.0-2.0-1.15"	"wh9d6b"	"600"	"1366"	"chrome"	"111.0.0"	"FALSE"	"Windows 10"	"60.1"	"049"	n/a	n/a	n/a	n/a	n/a	n/a	"Trial"	n/a	n/a	n/a	"562"	"arrowleft"	n/a	"NULL"	"NULL"	"NULL"	"stimuli/VerticalHorizontal_-11.78571_-0.0673.png"	n/a	"VerticalHorizontal"	"arrowright"	"1490"	"FALSE"	"VerticalHorizontal"	"-11.78571000"	"-0.067300000"	"2"	"16"
n/a	"html-keyboard-response"	"216"	"412656"	"0.0-6.0-2.0-0.16"	"wh9d6b"	"600"	"1366"	"chrome"	"111.0.0"	"FALSE"	"Windows 10"	"60.1"	"049"	n/a	n/a	n/a	n/a	n/a	n/a	"fixation"	n/a	n/a	n/a	n/a	"NULL"	n/a	"NULL"	"NULL"	"NULL"	"<p style=\"color: black; font-size: 80px; padding-left: 24%; padding-right: 38%; padding-top: 28%; padding-bottom: 49%\">+</p>"	"1193"	n/a	n/a	n/a	n/a	n/a	n/a	n/a	n/a	n/a
n/a	"image-keyboard-response"	"217"	"413078"	"0.0-6.0-2.0-1.16"	"wh9d6b"	"600"	"1366"	"chrome"	"111.0.0"	"FALSE"	"Windows 10"	"60.1"	"049"	n/a	n/a	n/a	n/a	n/a	n/a	"Trial"	n/a	n/a	n/a	"422"	"arrowleft"	n/a	"NULL"	"NULL"	"NULL"	"stimuli/VerticalHorizontal_-28.75714_0.16217.png"	n/a	"VerticalHorizontal"	"arrowleft"	"1204"	"TRUE"	"VerticalHorizontal"	"-28.75714000"	"0.1621700000"	"2"	"17"
n/a	"html-keyboard-response"	"218"	"414468"	"0.0-6.0-2.0-0.17"	"wh9d6b"	"600"	"1366"	"chrome"	"111.0.0"	"FALSE"	"Windows 10"	"60.1"	"049"	n/a	n/a	n/a	n/a	n/a	n/a	"fixation"	n/a	n/a	n/a	n/a	"NULL"	n/a	"NULL"	"NULL"	"NULL"	"<p style=\"color: black; font-size: 80px; padding-left: 16%; padding-right: 39%; padding-top: 19%; padding-bottom: 47%\">+</p>"	"1379"	n/a	n/a	n/a	n/a	n/a	n/a	n/a	n/a	n/a
n/a	"image-keyboard-response"	"219"	"414848"	"0.0-6.0-2.0-1.17"	"wh9d6b"	"600"	"1366"	"chrome"	"111.0.0"	"FALSE"	"Windows 10"	"60.1"	"049"	n/a	n/a	n/a	n/a	n/a	n/a	"Trial"	n/a	n/a	n/a	"379"	"arrowleft"	n/a	"NULL"	"NULL"	"NULL"	"stimuli/VerticalHorizontal_11.78571_-0.0673.png"	n/a	"VerticalHorizontal"	"arrowright"	"1390"	"FALSE"	"VerticalHorizontal"	"11.785710000"	"-0.067300000"	"2"	"18"
n/a	"html-keyboard-response"	"220"	"416297"	"0.0-6.0-2.0-0.18"	"wh9d6b"	"600"	"1366"	"chrome"	"111.0.0"	"FALSE"	"Windows 10"	"60.1"	"049"	n/a	n/a	n/a	n/a	n/a	n/a	"fixation"	n/a	n/a	n/a	n/a	"NULL"	n/a	"NULL"	"NULL"	"NULL"	"<p style=\"color: black; font-size: 80px; padding-left: 19%; padding-right: 27%; padding-top: 5%; padding-bottom: 40%\">+</p>"	"1435"	n/a	n/a	n/a	n/a	n/a	n/a	n/a	n/a	n/a
n/a	"image-keyboard-response"	"221"	"416756"	"0.0-6.0-2.0-1.18"	"wh9d6b"	"600"	"1366"	"chrome"	"111.0.0"	"FALSE"	"Windows 10"	"60.1"	"049"	n/a	n/a	n/a	n/a	n/a	n/a	"Trial"	n/a	n/a	n/a	"458"	"arrowleft"	n/a	"NULL"	"NULL"	"NULL"	"stimuli/VerticalHorizontal_-3.3000_0.10960.png"	n/a	"VerticalHorizontal"	"arrowleft"	"1449"	"TRUE"	"VerticalHorizontal"	"-3.300000000"	"0.1096000000"	"2"	"19"
n/a	"html-keyboard-response"	"222"	"417947"	"0.0-6.0-2.0-0.19"	"wh9d6b"	"600"	"1366"	"chrome"	"111.0.0"	"FALSE"	"Windows 10"	"60.1"	"049"	n/a	n/a	n/a	n/a	n/a	n/a	"fixation"	n/a	n/a	n/a	n/a	"NULL"	n/a	"NULL"	"NULL"	"NULL"	"<p style=\"color: black; font-size: 80px; padding-left: 14%; padding-right: 36%; padding-top: 33%; padding-bottom: 46%\">+</p>"	"1178"	n/a	n/a	n/a	n/a	n/a	n/a	n/a	n/a	n/a
n/a	"image-keyboard-response"	"223"	"418537"	"0.0-6.0-2.0-1.19"	"wh9d6b"	"600"	"1366"	"chrome"	"111.0.0"	"FALSE"	"Windows 10"	"60.1"	"049"	n/a	n/a	n/a	n/a	n/a	n/a	"Trial"	n/a	n/a	n/a	"589"	"arrowleft"	n/a	"NULL"	"NULL"	"NULL"	"stimuli/VerticalHorizontal_28.75714_-0.2250.png"	n/a	"VerticalHorizontal"	"arrowright"	"1191"	"FALSE"	"VerticalHorizontal"	"28.757140000"	"-0.225000000"	"2"	"20"
n/a	"html-keyboard-response"	"224"	"419724"	"0.0-6.0-2.0-0.20"	"wh9d6b"	"600"	"1366"	"chrome"	"111.0.0"	"FALSE"	"Windows 10"	"60.1"	"049"	n/a	n/a	n/a	n/a	n/a	n/a	"fixation"	n/a	n/a	n/a	n/a	"NULL"	n/a	"NULL"	"NULL"	"NULL"	"<p style=\"color: black; font-size: 80px; padding-left: 3%; padding-right: 9%; padding-top: 29%; padding-bottom: 10%\">+</p>"	"1173"	n/a	n/a	n/a	n/a	n/a	n/a	n/a	n/a	n/a
n/a	"image-keyboard-response"	"225"	"420279"	"0.0-6.0-2.0-1.20"	"wh9d6b"	"600"	"1366"	"chrome"	"111.0.0"	"FALSE"	"Windows 10"	"60.1"	"049"	n/a	n/a	n/a	n/a	n/a	n/a	"Trial"	n/a	n/a	n/a	"553"	"arrowright"	n/a	"NULL"	"NULL"	"NULL"	"stimuli/VerticalHorizontal_3.30000_-0.2250.png"	n/a	"VerticalHorizontal"	"arrowright"	"1187"	"TRUE"	"VerticalHorizontal"	"3.3000000000"	"-0.225000000"	"2"	"21"
n/a	"html-keyboard-response"	"226"	"421613"	"0.0-6.0-2.0-0.21"	"wh9d6b"	"600"	"1366"	"chrome"	"111.0.0"	"FALSE"	"Windows 10"	"60.1"	"049"	n/a	n/a	n/a	n/a	n/a	n/a	"fixation"	n/a	n/a	n/a	n/a	"NULL"	n/a	"NULL"	"NULL"	"NULL"	"<p style=\"color: black; font-size: 80px; padding-left: 25%; padding-right: 9%; padding-top: 6%; padding-bottom: 33%\">+</p>"	"1318"	n/a	n/a	n/a	n/a	n/a	n/a	n/a	n/a	n/a
n/a	"image-keyboard-response"	"227"	"422253"	"0.0-6.0-2.0-1.21"	"wh9d6b"	"600"	"1366"	"chrome"	"111.0.0"	"FALSE"	"Windows 10"	"60.1"	"049"	n/a	n/a	n/a	n/a	n/a	n/a	"Trial"	n/a	n/a	n/a	"639"	"arrowright"	n/a	"NULL"	"NULL"	"NULL"	"stimuli/VerticalHorizontal_3.30000_-0.1096.png"	n/a	"VerticalHorizontal"	"arrowright"	"1334"	"TRUE"	"VerticalHorizontal"	"3.3000000000"	"-0.109600000"	"2"	"22"
n/a	"html-keyboard-response"	"228"	"423295"	"0.0-6.0-2.0-0.22"	"wh9d6b"	"600"	"1366"	"chrome"	"111.0.0"	"FALSE"	"Windows 10"	"60.1"	"049"	n/a	n/a	n/a	n/a	n/a	n/a	"fixation"	n/a	n/a	n/a	n/a	"NULL"	n/a	"NULL"	"NULL"	"NULL"	"<p style=\"color: black; font-size: 80px; padding-left: 2%; padding-right: 45%; padding-top: 5%; padding-bottom: 27%\">+</p>"	"1026"	n/a	n/a	n/a	n/a	n/a	n/a	n/a	n/a	n/a
n/a	"image-keyboard-response"	"229"	"423937"	"0.0-6.0-2.0-1.22"	"wh9d6b"	"600"	"1366"	"chrome"	"111.0.0"	"FALSE"	"Windows 10"	"60.1"	"049"	n/a	n/a	n/a	n/a	n/a	n/a	"Trial"	n/a	n/a	n/a	"641"	"arrowleft"	n/a	"NULL"	"NULL"	"NULL"	"stimuli/VerticalHorizontal_-20.27143_0.10960.png"	n/a	"VerticalHorizontal"	"arrowleft"	"1042"	"TRUE"	"VerticalHorizontal"	"-20.27143000"	"0.1096000000"	"2"	"23"
n/a	"html-keyboard-response"	"230"	"424958"	"0.0-6.0-2.0-0.23"	"wh9d6b"	"600"	"1366"	"chrome"	"111.0.0"	"FALSE"	"Windows 10"	"60.1"	"049"	n/a	n/a	n/a	n/a	n/a	n/a	"fixation"	n/a	n/a	n/a	n/a	"NULL"	n/a	"NULL"	"NULL"	"NULL"	"<p style=\"color: black; font-size: 80px; padding-left: 35%; padding-right: 39%; padding-top: 40%; padding-bottom: 39%\">+</p>"	"1010"	n/a	n/a	n/a	n/a	n/a	n/a	n/a	n/a	n/a
n/a	"image-keyboard-response"	"231"	"425491"	"0.0-6.0-2.0-1.23"	"wh9d6b"	"600"	"1366"	"chrome"	"111.0.0"	"FALSE"	"Windows 10"	"60.1"	"049"	n/a	n/a	n/a	n/a	n/a	n/a	"Trial"	n/a	n/a	n/a	"532"	"arrowright"	n/a	"NULL"	"NULL"	"NULL"	"stimuli/VerticalHorizontal_-3.3000_-0.1096.png"	n/a	"VerticalHorizontal"	"arrowright"	"1021"	"TRUE"	"VerticalHorizontal"	"-3.300000000"	"-0.109600000"	"2"	"24"
n/a	"html-keyboard-response"	"232"	"426777"	"0.0-6.0-2.0-0.24"	"wh9d6b"	"600"	"1366"	"chrome"	"111.0.0"	"FALSE"	"Windows 10"	"60.1"	"049"	n/a	n/a	n/a	n/a	n/a	n/a	"fixation"	n/a	n/a	n/a	n/a	"NULL"	n/a	"NULL"	"NULL"	"NULL"	"<p style=\"color: black; font-size: 80px; padding-left: 35%; padding-right: 30%; padding-top: 44%; padding-bottom: 2%\">+</p>"	"1276"	n/a	n/a	n/a	n/a	n/a	n/a	n/a	n/a	n/a
n/a	"image-keyboard-response"	"233"	"427185"	"0.0-6.0-2.0-1.24"	"wh9d6b"	"600"	"1366"	"chrome"	"111.0.0"	"FALSE"	"Windows 10"	"60.1"	"049"	n/a	n/a	n/a	n/a	n/a	n/a	"Trial"	n/a	n/a	n/a	"406"	"arrowright"	n/a	"NULL"	"NULL"	"NULL"	"stimuli/VerticalHorizontal_-28.75714_-0.0673.png"	n/a	"VerticalHorizontal"	"arrowright"	"1286"	"TRUE"	"VerticalHorizontal"	"-28.75714000"	"-0.067300000"	"2"	"25"
n/a	"html-keyboard-response"	"234"	"428686"	"0.0-6.0-2.0-0.25"	"wh9d6b"	"600"	"1366"	"chrome"	"111.0.0"	"FALSE"	"Windows 10"	"60.1"	"049"	n/a	n/a	n/a	n/a	n/a	n/a	"fixation"	n/a	n/a	n/a	n/a	"NULL"	n/a	"NULL"	"NULL"	"NULL"	"<p style=\"color: black; font-size: 80px; padding-left: 38%; padding-right: 38%; padding-top: 35%; padding-bottom: 47%\">+</p>"	"1499"	n/a	n/a	n/a	n/a	n/a	n/a	n/a	n/a	n/a
n/a	"image-keyboard-response"	"235"	"429464"	"0.0-6.0-2.0-1.25"	"wh9d6b"	"600"	"1366"	"chrome"	"111.0.0"	"FALSE"	"Windows 10"	"60.1"	"049"	n/a	n/a	n/a	n/a	n/a	n/a	"Trial"	n/a	n/a	n/a	"777"	"arrowright"	n/a	"NULL"	"NULL"	"NULL"	"stimuli/VerticalHorizontal_11.78571_-0.2250.png"	n/a	"VerticalHorizontal"	"arrowright"	"1501"	"TRUE"	"VerticalHorizontal"	"11.785710000"	"-0.225000000"	"2"	"26"
n/a	"html-keyboard-response"	"236"	"430927"	"0.0-6.0-2.0-0.26"	"wh9d6b"	"600"	"1366"	"chrome"	"111.0.0"	"FALSE"	"Windows 10"	"60.1"	"049"	n/a	n/a	n/a	n/a	n/a	n/a	"fixation"	n/a	n/a	n/a	n/a	"NULL"	n/a	"NULL"	"NULL"	"NULL"	"<p style=\"color: black; font-size: 80px; padding-left: 2%; padding-right: 2%; padding-top: 3%; padding-bottom: 44%\">+</p>"	"1448"	n/a	n/a	n/a	n/a	n/a	n/a	n/a	n/a	n/a
n/a	"image-keyboard-response"	"237"	"431604"	"0.0-6.0-2.0-1.26"	"wh9d6b"	"600"	"1366"	"chrome"	"111.0.0"	"FALSE"	"Windows 10"	"60.1"	"049"	n/a	n/a	n/a	n/a	n/a	n/a	"Trial"	n/a	n/a	n/a	"676"	"arrowright"	n/a	"NULL"	"NULL"	"NULL"	"stimuli/VerticalHorizontal_28.75714_0.06730.png"	n/a	"VerticalHorizontal"	"arrowleft"	"1463"	"FALSE"	"VerticalHorizontal"	"28.757140000"	"0.0673000000"	"2"	"27"
n/a	"html-keyboard-response"	"238"	"432939"	"0.0-6.0-2.0-0.27"	"wh9d6b"	"600"	"1366"	"chrome"	"111.0.0"	"FALSE"	"Windows 10"	"60.1"	"049"	n/a	n/a	n/a	n/a	n/a	n/a	"fixation"	n/a	n/a	n/a	n/a	"NULL"	n/a	"NULL"	"NULL"	"NULL"	"<p style=\"color: black; font-size: 80px; padding-left: 31%; padding-right: 9%; padding-top: 47%; padding-bottom: 5%\">+</p>"	"1325"	n/a	n/a	n/a	n/a	n/a	n/a	n/a	n/a	n/a
n/a	"image-keyboard-response"	"239"	"433465"	"0.0-6.0-2.0-1.27"	"wh9d6b"	"600"	"1366"	"chrome"	"111.0.0"	"FALSE"	"Windows 10"	"60.1"	"049"	n/a	n/a	n/a	n/a	n/a	n/a	"Trial"	n/a	n/a	n/a	"525"	"arrowleft"	n/a	"NULL"	"NULL"	"NULL"	"stimuli/VerticalHorizontal_-11.78571_0.10960.png"	n/a	"VerticalHorizontal"	"arrowleft"	"1335"	"TRUE"	"VerticalHorizontal"	"-11.78571000"	"0.1096000000"	"2"	"28"
n/a	"html-keyboard-response"	"240"	"434616"	"0.0-6.0-2.0-0.28"	"wh9d6b"	"600"	"1366"	"chrome"	"111.0.0"	"FALSE"	"Windows 10"	"60.1"	"049"	n/a	n/a	n/a	n/a	n/a	n/a	"fixation"	n/a	n/a	n/a	n/a	"NULL"	n/a	"NULL"	"NULL"	"NULL"	"<p style=\"color: black; font-size: 80px; padding-left: 4%; padding-right: 17%; padding-top: 31%; padding-bottom: 49%\">+</p>"	"1139"	n/a	n/a	n/a	n/a	n/a	n/a	n/a	n/a	n/a
n/a	"image-keyboard-response"	"241"	"435101"	"0.0-6.0-2.0-1.28"	"wh9d6b"	"600"	"1366"	"chrome"	"111.0.0"	"FALSE"	"Windows 10"	"60.1"	"049"	n/a	n/a	n/a	n/a	n/a	n/a	"Trial"	n/a	n/a	n/a	"484"	"arrowleft"	n/a	"NULL"	"NULL"	"NULL"	"stimuli/VerticalHorizontal_-20.27143_0.16217.png"	n/a	"VerticalHorizontal"	"arrowleft"	"1151"	"TRUE"	"VerticalHorizontal"	"-20.27143000"	"0.1621700000"	"2"	"29"
n/a	"html-keyboard-response"	"242"	"436191"	"0.0-6.0-2.0-0.29"	"wh9d6b"	"600"	"1366"	"chrome"	"111.0.0"	"FALSE"	"Windows 10"	"60.1"	"049"	n/a	n/a	n/a	n/a	n/a	n/a	"fixation"	n/a	n/a	n/a	n/a	"NULL"	n/a	"NULL"	"NULL"	"NULL"	"<p style=\"color: black; font-size: 80px; padding-left: 20%; padding-right: 44%; padding-top: 7%; padding-bottom: 1%\">+</p>"	"1077"	n/a	n/a	n/a	n/a	n/a	n/a	n/a	n/a	n/a
n/a	"image-keyboard-response"	"243"	"436821"	"0.0-6.0-2.0-1.29"	"wh9d6b"	"600"	"1366"	"chrome"	"111.0.0"	"FALSE"	"Windows 10"	"60.1"	"049"	n/a	n/a	n/a	n/a	n/a	n/a	"Trial"	n/a	n/a	n/a	"629"	"arrowleft"	n/a	"NULL"	"NULL"	"NULL"	"stimuli/VerticalHorizontal_3.30000_0.22500.png"	n/a	"VerticalHorizontal"	"arrowleft"	"1090"	"TRUE"	"VerticalHorizontal"	"3.3000000000"	"0.2250000000"	"2"	"30"
n/a	"html-keyboard-response"	"244"	"438311"	"0.0-6.0-2.0-0.30"	"wh9d6b"	"600"	"1366"	"chrome"	"111.0.0"	"FALSE"	"Windows 10"	"60.1"	"049"	n/a	n/a	n/a	n/a	n/a	n/a	"fixation"	n/a	n/a	n/a	n/a	"NULL"	n/a	"NULL"	"NULL"	"NULL"	"<p style=\"color: black; font-size: 80px; padding-left: 4%; padding-right: 22%; padding-top: 20%; padding-bottom: 26%\">+</p>"	"1479"	n/a	n/a	n/a	n/a	n/a	n/a	n/a	n/a	n/a
n/a	"image-keyboard-response"	"245"	"438908"	"0.0-6.0-2.0-1.30"	"wh9d6b"	"600"	"1366"	"chrome"	"111.0.0"	"FALSE"	"Windows 10"	"60.1"	"049"	n/a	n/a	n/a	n/a	n/a	n/a	"Trial"	n/a	n/a	n/a	"597"	"arrowright"	n/a	"NULL"	"NULL"	"NULL"	"stimuli/VerticalHorizontal_20.27143_0.16217.png"	n/a	"VerticalHorizontal"	"arrowleft"	"1490"	"FALSE"	"VerticalHorizontal"	"20.271430000"	"0.1621700000"	"2"	"31"
n/a	"html-keyboard-response"	"246"	"440078"	"0.0-6.0-2.0-0.31"	"wh9d6b"	"600"	"1366"	"chrome"	"111.0.0"	"FALSE"	"Windows 10"	"60.1"	"049"	n/a	n/a	n/a	n/a	n/a	n/a	"fixation"	n/a	n/a	n/a	n/a	"NULL"	n/a	"NULL"	"NULL"	"NULL"	"<p style=\"color: black; font-size: 80px; padding-left: 32%; padding-right: 30%; padding-top: 8%; padding-bottom: 17%\">+</p>"	"1159"	n/a	n/a	n/a	n/a	n/a	n/a	n/a	n/a	n/a
n/a	"image-keyboard-response"	"247"	"440708"	"0.0-6.0-2.0-1.31"	"wh9d6b"	"600"	"1366"	"chrome"	"111.0.0"	"FALSE"	"Windows 10"	"60.1"	"049"	n/a	n/a	n/a	n/a	n/a	n/a	"Trial"	n/a	n/a	n/a	"629"	"arrowleft"	n/a	"NULL"	"NULL"	"NULL"	"stimuli/VerticalHorizontal_-3.3000_0.22500.png"	n/a	"VerticalHorizontal"	"arrowleft"	"1170"	"TRUE"	"VerticalHorizontal"	"-3.300000000"	"0.2250000000"	"2"	"32"
n/a	"html-keyboard-response"	"248"	"441840"	"0.0-6.0-2.0-0.32"	"wh9d6b"	"600"	"1366"	"chrome"	"111.0.0"	"FALSE"	"Windows 10"	"60.1"	"049"	n/a	n/a	n/a	n/a	n/a	n/a	"fixation"	n/a	n/a	n/a	n/a	"NULL"	n/a	"NULL"	"NULL"	"NULL"	"<p style=\"color: black; font-size: 80px; padding-left: 38%; padding-right: 13%; padding-top: 7%; padding-bottom: 2%\">+</p>"	"1128"	n/a	n/a	n/a	n/a	n/a	n/a	n/a	n/a	n/a
n/a	"image-keyboard-response"	"249"	"442400"	"0.0-6.0-2.0-1.32"	"wh9d6b"	"600"	"1366"	"chrome"	"111.0.0"	"FALSE"	"Windows 10"	"60.1"	"049"	n/a	n/a	n/a	n/a	n/a	n/a	"Trial"	n/a	n/a	n/a	"560"	"arrowleft"	n/a	"NULL"	"NULL"	"NULL"	"stimuli/VerticalHorizontal_-28.75714_0.06730.png"	n/a	"VerticalHorizontal"	"arrowleft"	"1132"	"TRUE"	"VerticalHorizontal"	"-28.75714000"	"0.0673000000"	"2"	"33"
n/a	"html-keyboard-response"	"250"	"443804"	"0.0-6.0-2.0-0.33"	"wh9d6b"	"600"	"1366"	"chrome"	"111.0.0"	"FALSE"	"Windows 10"	"60.1"	"049"	n/a	n/a	n/a	n/a	n/a	n/a	"fixation"	n/a	n/a	n/a	n/a	"NULL"	n/a	"NULL"	"NULL"	"NULL"	"<p style=\"color: black; font-size: 80px; padding-left: 16%; padding-right: 15%; padding-top: 49%; padding-bottom: 28%\">+</p>"	"1401"	n/a	n/a	n/a	n/a	n/a	n/a	n/a	n/a	n/a
n/a	"image-keyboard-response"	"251"	"444230"	"0.0-6.0-2.0-1.33"	"wh9d6b"	"600"	"1366"	"chrome"	"111.0.0"	"FALSE"	"Windows 10"	"60.1"	"049"	n/a	n/a	n/a	n/a	n/a	n/a	"Trial"	n/a	n/a	n/a	"426"	"arrowleft"	n/a	"NULL"	"NULL"	"NULL"	"stimuli/VerticalHorizontal_3.30000_0.16217.png"	n/a	"VerticalHorizontal"	"arrowleft"	"1404"	"TRUE"	"VerticalHorizontal"	"3.3000000000"	"0.1621700000"	"2"	"34"
