"success"	"trial_type"	"trial_index"	"time_elapsed"	"internal_node_id"	"participant_id"	"screen_height"	"screen_width"	"browser"	"browser_version"	"mobile"	"os"	"vsync_rate"	"width"	"height"	"webaudio"	"fullscreen"	"webcam"	"microphone"	"screen"	"version"	"date"	"time"	"timeout"	"failed_images"	"failed_audio"	"failed_video"	"rt"	"stimulus"	"response"	"trial_duration"	"block"	"correct_response"	"prestimulus_duration"	"correct"	"type"	"illusion_strength"	"illusion_difference"	"block_number"	"trial_number"
"TRUE"	"fullscreen"	"0"	"1950"	"0.0-0.0"	"6su1qc"	"657"	"1366"	"chrome"	"108.0.0"	"FALSE"	"Windows 10"	"60.64"	n/a	n/a	n/a	n/a	n/a	n/a	n/a	n/a	n/a	n/a	n/a	"NULL"	"NULL"	"NULL"	n/a	n/a	n/a	n/a	n/a	n/a	n/a	n/a	n/a	n/a	n/a	n/a	n/a
n/a	"browser-check"	"1"	"2953"	"0.0-1.0"	"6su1qc"	"657"	"1366"	"chrome"	"108.0.0"	"FALSE"	"Windows 10"	"60.64"	"1366"	"657"	"TRUE"	"TRUE"	"TRUE"	"TRUE"	"browser_info"	"1.0"	"24/12/2022"	"14:54:49"	n/a	"NULL"	"NULL"	"NULL"	n/a	n/a	n/a	n/a	n/a	n/a	n/a	n/a	n/a	n/a	n/a	n/a	n/a
"TRUE"	"preload"	"2"	"2965"	"0.0-2.0"	"6su1qc"	"657"	"1366"	"chrome"	"108.0.0"	"FALSE"	"Windows 10"	"60.64"	n/a	n/a	n/a	n/a	n/a	n/a	n/a	n/a	n/a	n/a	"FALSE"	"list()"	"list()"	"list()"	n/a	n/a	n/a	n/a	n/a	n/a	n/a	n/a	n/a	n/a	n/a	n/a	n/a
n/a	"html-button-response"	"3"	"66532"	"0.0-3.0-0.0"	"6su1qc"	"657"	"1366"	"chrome"	"108.0.0"	"FALSE"	"Windows 10"	"60.64"	n/a	n/a	n/a	n/a	n/a	n/a	"illusion_instructions"	n/a	n/a	n/a	n/a	"NULL"	"NULL"	"NULL"	"63566"	"<p><b>Illusion Game</b></p><p>In this game of speed and reflex, you will need to make <b>visual judgments</b> (for instance, which circle is the biggest, or which line is the longest), as fast and as correctly as possible, while <b>resisting different visual illusions</b>.</p><p>We are going to start with some examples of all the illusions you will encounter in the game.</p>"	"0"	n/a	n/a	n/a	n/a	n/a	n/a	n/a	n/a	n/a	n/a
"TRUE"	"preload"	"4"	"66553"	"0.0-3.0-1.0-0.0"	"6su1qc"	"657"	"1366"	"chrome"	"108.0.0"	"FALSE"	"Windows 10"	"60.64"	n/a	n/a	n/a	n/a	n/a	n/a	n/a	n/a	n/a	n/a	"FALSE"	"list()"	"list()"	"list()"	n/a	n/a	n/a	n/a	n/a	n/a	n/a	n/a	n/a	n/a	n/a	n/a	n/a
n/a	"html-keyboard-response"	"5"	"115577"	"0.0-3.0-1.0-1.0"	"6su1qc"	"657"	"1366"	"chrome"	"108.0.0"	"FALSE"	"Windows 10"	"60.64"	n/a	n/a	n/a	n/a	n/a	n/a	n/a	n/a	n/a	n/a	n/a	"NULL"	"NULL"	"NULL"	"49021"	"<p><b>Practice</b></p><p>In this part, two red circles will appear side by side on the screen.</p><p>Your task is to select which <b>red circle is bigger</b> in size as fast as you can, without making errors.</p><p>Don't get distracted by the surrounding black circles around the red circles!</p><p>Press <b>the LEFT or the RIGHT arrow</b> to indicate which is the bigger <b>red circle.</b></p><div style='float: center'><img src='materials/instructions/Ebbinghaus_Demo.png' height='300'></img><p><img src='utils/answer/answer_leftright_keyboard.PNG' height='150'></img></p><p class='small'>In this example, the correct answer is the <b>LEFT arrow</b>.</p></div><p>Are you ready? <b>Press ENTER to start</b></p>"	"enter"	n/a	n/a	n/a	n/a	n/a	n/a	n/a	n/a	n/a	n/a
n/a	"html-keyboard-response"	"6"	"117125"	"0.0-3.0-1.0-2.0-0.0"	"6su1qc"	"657"	"1366"	"chrome"	"108.0.0"	"FALSE"	"Windows 10"	"60.64"	n/a	n/a	n/a	n/a	n/a	n/a	"fixation"	n/a	n/a	n/a	n/a	"NULL"	"NULL"	"NULL"	n/a	"<p style=\"color: black; font-size: 80px; padding-left: 21%; padding-right: 30%; padding-top: 5%; padding-bottom: 39%\">+</p>"	n/a	"1010"	n/a	n/a	n/a	n/a	n/a	n/a	n/a	n/a	n/a
n/a	"image-keyboard-response"	"7"	"117828"	"0.0-3.0-1.0-2.0-1.0"	"6su1qc"	"657"	"1366"	"chrome"	"108.0.0"	"FALSE"	"Windows 10"	"60.64"	n/a	n/a	n/a	n/a	n/a	n/a	"Trial"	n/a	n/a	n/a	n/a	"NULL"	"NULL"	"NULL"	"688"	"stimuli/Ebbinghaus_0000000_-1.4000.png"	"arrowright"	n/a	"Ebbinghaus"	"arrowright"	"1548"	"TRUE"	"Ebbinghaus"	"000000000000"	"-1.400000000"	"1"	"1"
n/a	"html-keyboard-response"	"8"	"119312"	"0.0-3.0-1.0-2.0-0.1"	"6su1qc"	"657"	"1366"	"chrome"	"108.0.0"	"FALSE"	"Windows 10"	"60.64"	n/a	n/a	n/a	n/a	n/a	n/a	"fixation"	n/a	n/a	n/a	n/a	"NULL"	"NULL"	"NULL"	n/a	"<p style=\"color: black; font-size: 80px; padding-left: 22%; padding-right: 25%; padding-top: 2%; padding-bottom: 15%\">+</p>"	n/a	"1467"	n/a	n/a	n/a	n/a	n/a	n/a	n/a	n/a	n/a
n/a	"image-keyboard-response"	"9"	"119778"	"0.0-3.0-1.0-2.0-1.1"	"6su1qc"	"657"	"1366"	"chrome"	"108.0.0"	"FALSE"	"Windows 10"	"60.64"	n/a	n/a	n/a	n/a	n/a	n/a	"Trial"	n/a	n/a	n/a	n/a	"NULL"	"NULL"	"NULL"	"464"	"stimuli/Ebbinghaus_-100000_1.40000.png"	"arrowleft"	n/a	"Ebbinghaus"	"arrowleft"	"1484"	"TRUE"	"Ebbinghaus"	"-10000000000"	"1.4000000000"	"1"	"2"
n/a	"html-keyboard-response"	"10"	"120953"	"0.0-3.0-1.0-2.0-0.2"	"6su1qc"	"657"	"1366"	"chrome"	"108.0.0"	"FALSE"	"Windows 10"	"60.64"	n/a	n/a	n/a	n/a	n/a	n/a	"fixation"	n/a	n/a	n/a	n/a	"NULL"	"NULL"	"NULL"	n/a	"<p style=\"color: black; font-size: 80px; padding-left: 33%; padding-right: 38%; padding-top: 17%; padding-bottom: 4%\">+</p>"	n/a	"1152"	n/a	n/a	n/a	n/a	n/a	n/a	n/a	n/a	n/a
n/a	"image-keyboard-response"	"11"	"121409"	"0.0-3.0-1.0-2.0-1.2"	"6su1qc"	"657"	"1366"	"chrome"	"108.0.0"	"FALSE"	"Windows 10"	"60.64"	n/a	n/a	n/a	n/a	n/a	n/a	"Trial"	n/a	n/a	n/a	n/a	"NULL"	"NULL"	"NULL"	"455"	"stimuli/Ebbinghaus_-100000_-1.4000.png"	"arrowright"	n/a	"Ebbinghaus"	"arrowright"	"1175"	"TRUE"	"Ebbinghaus"	"-10000000000"	"-1.400000000"	"1"	"3"
n/a	"html-keyboard-response"	"12"	"122904"	"0.0-3.0-1.0-2.0-0.3"	"6su1qc"	"657"	"1366"	"chrome"	"108.0.0"	"FALSE"	"Windows 10"	"60.64"	n/a	n/a	n/a	n/a	n/a	n/a	"fixation"	n/a	n/a	n/a	n/a	"NULL"	"NULL"	"NULL"	n/a	"<p style=\"color: black; font-size: 80px; padding-left: 33%; padding-right: 32%; padding-top: 15%; padding-bottom: 32%\">+</p>"	n/a	"1475"	n/a	n/a	n/a	n/a	n/a	n/a	n/a	n/a	n/a
n/a	"image-keyboard-response"	"13"	"123252"	"0.0-3.0-1.0-2.0-1.3"	"6su1qc"	"657"	"1366"	"chrome"	"108.0.0"	"FALSE"	"Windows 10"	"60.64"	n/a	n/a	n/a	n/a	n/a	n/a	"Trial"	n/a	n/a	n/a	n/a	"NULL"	"NULL"	"NULL"	"346"	"stimuli/Ebbinghaus_0000000_1.40000.png"	"arrowleft"	n/a	"Ebbinghaus"	"arrowleft"	"1495"	"TRUE"	"Ebbinghaus"	"000000000000"	"1.4000000000"	"1"	"4"
n/a	"html-keyboard-response"	"14"	"124512"	"0.0-3.0-1.0-2.0-0.4"	"6su1qc"	"657"	"1366"	"chrome"	"108.0.0"	"FALSE"	"Windows 10"	"60.64"	n/a	n/a	n/a	n/a	n/a	n/a	"fixation"	n/a	n/a	n/a	n/a	"NULL"	"NULL"	"NULL"	n/a	"<p style=\"color: black; font-size: 80px; padding-left: 0%; padding-right: 31%; padding-top: 24%; padding-bottom: 26%\">+</p>"	n/a	"1238"	n/a	n/a	n/a	n/a	n/a	n/a	n/a	n/a	n/a
n/a	"image-keyboard-response"	"15"	"124879"	"0.0-3.0-1.0-2.0-1.4"	"6su1qc"	"657"	"1366"	"chrome"	"108.0.0"	"FALSE"	"Windows 10"	"60.64"	n/a	n/a	n/a	n/a	n/a	n/a	"Trial"	n/a	n/a	n/a	n/a	"NULL"	"NULL"	"NULL"	"366"	"stimuli/Ebbinghaus_1000000_1.40000.png"	"arrowleft"	n/a	"Ebbinghaus"	"arrowleft"	"1260"	"TRUE"	"Ebbinghaus"	"100000000000"	"1.4000000000"	"1"	"5"
n/a	"html-keyboard-response"	"16"	"126205"	"0.0-3.0-1.0-2.0-0.5"	"6su1qc"	"657"	"1366"	"chrome"	"108.0.0"	"FALSE"	"Windows 10"	"60.64"	n/a	n/a	n/a	n/a	n/a	n/a	"fixation"	n/a	n/a	n/a	n/a	"NULL"	"NULL"	"NULL"	n/a	"<p style=\"color: black; font-size: 80px; padding-left: 0%; padding-right: 39%; padding-top: 37%; padding-bottom: 36%\">+</p>"	n/a	"1296"	n/a	n/a	n/a	n/a	n/a	n/a	n/a	n/a	n/a
n/a	"image-keyboard-response"	"17"	"126614"	"0.0-3.0-1.0-2.0-1.5"	"6su1qc"	"657"	"1366"	"chrome"	"108.0.0"	"FALSE"	"Windows 10"	"60.64"	n/a	n/a	n/a	n/a	n/a	n/a	"Trial"	n/a	n/a	n/a	n/a	"NULL"	"NULL"	"NULL"	"401"	"stimuli/Ebbinghaus_1000000_-1.4000.png"	"arrowright"	n/a	"Ebbinghaus"	"arrowright"	"1326"	"TRUE"	"Ebbinghaus"	"100000000000"	"-1.400000000"	"1"	"6"
n/a	"html-button-response"	"18"	"130367"	"0.0-3.0-1.0-3.0"	"6su1qc"	"657"	"1366"	"chrome"	"108.0.0"	"FALSE"	"Windows 10"	"60.64"	n/a	n/a	n/a	n/a	n/a	n/a	"practice_block_results"	n/a	n/a	n/a	n/a	"NULL"	"NULL"	"NULL"	"3748"	"<p style='color:rgb(76,175,80);'> Correct Responses: <b>100.00%</b></p><hr><p style='color:rgb(233,30,99);'> Average Response Time: <b>453.33</b> ms.</p>"	"0"	n/a	n/a	n/a	n/a	n/a	n/a	n/a	n/a	n/a	n/a
"TRUE"	"preload"	"19"	"130897"	"0.0-3.0-2.0-0.0"	"6su1qc"	"657"	"1366"	"chrome"	"108.0.0"	"FALSE"	"Windows 10"	"60.64"	n/a	n/a	n/a	n/a	n/a	n/a	n/a	n/a	n/a	n/a	"FALSE"	"list()"	"list()"	"list()"	n/a	n/a	n/a	n/a	n/a	n/a	n/a	n/a	n/a	n/a	n/a	n/a	n/a
n/a	"html-keyboard-response"	"20"	"138155"	"0.0-3.0-2.0-1.0"	"6su1qc"	"657"	"1366"	"chrome"	"108.0.0"	"FALSE"	"Windows 10"	"60.64"	n/a	n/a	n/a	n/a	n/a	n/a	n/a	n/a	n/a	n/a	n/a	"NULL"	"NULL"	"NULL"	"7257"	"<p><b>Practice</b></p><p>In this part, two horizontal red lines will appear one above the other.</p><p>Your task is to select which <b>line is longer</b> in length as fast as you can, without making errors.</p><p>Don't get distracted by the surrounding black arrows at the end of the red lines!</p><p>Press <b>the UP or the DOWN arrow</b> to indicate where is the longer <b>red line.</b></p><div style='float: center'><img src='materials/instructions/MullerLyer_Demo.png' height='300'></img><p><img src='utils/answer/answer_updown_keyboard.PNG' height='150'></img></p><p class='small'>In this example, the correct answer is the <b>UP arrow</b>.</p></div><p>Are you ready? <b>Press ENTER to start</b></p>"	"enter"	n/a	n/a	n/a	n/a	n/a	n/a	n/a	n/a	n/a	n/a
n/a	"html-keyboard-response"	"21"	"140045"	"0.0-3.0-2.0-2.0-0.0"	"6su1qc"	"657"	"1366"	"chrome"	"108.0.0"	"FALSE"	"Windows 10"	"60.64"	n/a	n/a	n/a	n/a	n/a	n/a	"fixation"	n/a	n/a	n/a	n/a	"NULL"	"NULL"	"NULL"	n/a	"<p style=\"color: black; font-size: 80px; padding-left: 43%; padding-right: 12%; padding-top: 39%; padding-bottom: 30%\">+</p>"	n/a	"1357"	n/a	n/a	n/a	n/a	n/a	n/a	n/a	n/a	n/a
n/a	"image-keyboard-response"	"22"	"140744"	"0.0-3.0-2.0-2.0-1.0"	"6su1qc"	"657"	"1366"	"chrome"	"108.0.0"	"FALSE"	"Windows 10"	"60.64"	n/a	n/a	n/a	n/a	n/a	n/a	"Trial"	n/a	n/a	n/a	n/a	"NULL"	"NULL"	"NULL"	"698"	"stimuli/MullerLyer_2300000_-0.7000.png"	"arrowdown"	n/a	"MullerLyer"	"arrowdown"	"1890"	"TRUE"	"MullerLyer"	"230000000000"	"-0.700000000"	"1"	"7"
n/a	"html-keyboard-response"	"23"	"142195"	"0.0-3.0-2.0-2.0-0.1"	"6su1qc"	"657"	"1366"	"chrome"	"108.0.0"	"FALSE"	"Windows 10"	"60.64"	n/a	n/a	n/a	n/a	n/a	n/a	"fixation"	n/a	n/a	n/a	n/a	"NULL"	"NULL"	"NULL"	n/a	"<p style=\"color: black; font-size: 80px; padding-left: 11%; padding-right: 22%; padding-top: 22%; padding-bottom: 46%\">+</p>"	n/a	"1441"	n/a	n/a	n/a	n/a	n/a	n/a	n/a	n/a	n/a
n/a	"image-keyboard-response"	"24"	"142667"	"0.0-3.0-2.0-2.0-1.1"	"6su1qc"	"657"	"1366"	"chrome"	"108.0.0"	"FALSE"	"Windows 10"	"60.64"	n/a	n/a	n/a	n/a	n/a	n/a	"Trial"	n/a	n/a	n/a	n/a	"NULL"	"NULL"	"NULL"	"471"	"stimuli/MullerLyer_2300000_0.70000.png"	"arrowup"	n/a	"MullerLyer"	"arrowup"	"1451"	"TRUE"	"MullerLyer"	"230000000000"	"0.7000000000"	"1"	"8"
n/a	"html-keyboard-response"	"25"	"143732"	"0.0-3.0-2.0-2.0-0.2"	"6su1qc"	"657"	"1366"	"chrome"	"108.0.0"	"FALSE"	"Windows 10"	"60.64"	n/a	n/a	n/a	n/a	n/a	n/a	"fixation"	n/a	n/a	n/a	n/a	"NULL"	"NULL"	"NULL"	n/a	"<p style=\"color: black; font-size: 80px; padding-left: 48%; padding-right: 47%; padding-top: 49%; padding-bottom: 9%\">+</p>"	n/a	"1058"	n/a	n/a	n/a	n/a	n/a	n/a	n/a	n/a	n/a
n/a	"image-keyboard-response"	"26"	"144043"	"0.0-3.0-2.0-2.0-1.2"	"6su1qc"	"657"	"1366"	"chrome"	"108.0.0"	"FALSE"	"Windows 10"	"60.64"	n/a	n/a	n/a	n/a	n/a	n/a	"Trial"	n/a	n/a	n/a	n/a	"NULL"	"NULL"	"NULL"	"311"	"stimuli/MullerLyer_0000000_0.70000.png"	"arrowup"	n/a	"MullerLyer"	"arrowup"	"1065"	"TRUE"	"MullerLyer"	"000000000000"	"0.7000000000"	"1"	"9"
n/a	"html-keyboard-response"	"27"	"145429"	"0.0-3.0-2.0-2.0-0.3"	"6su1qc"	"657"	"1366"	"chrome"	"108.0.0"	"FALSE"	"Windows 10"	"60.64"	n/a	n/a	n/a	n/a	n/a	n/a	"fixation"	n/a	n/a	n/a	n/a	"NULL"	"NULL"	"NULL"	n/a	"<p style=\"color: black; font-size: 80px; padding-left: 21%; padding-right: 27%; padding-top: 23%; padding-bottom: 49%\">+</p>"	n/a	"1374"	n/a	n/a	n/a	n/a	n/a	n/a	n/a	n/a	n/a
n/a	"image-keyboard-response"	"28"	"145906"	"0.0-3.0-2.0-2.0-1.3"	"6su1qc"	"657"	"1366"	"chrome"	"108.0.0"	"FALSE"	"Windows 10"	"60.64"	n/a	n/a	n/a	n/a	n/a	n/a	"Trial"	n/a	n/a	n/a	n/a	"NULL"	"NULL"	"NULL"	"476"	"stimuli/MullerLyer_0000000_-0.7000.png"	"arrowdown"	n/a	"MullerLyer"	"arrowdown"	"1386"	"TRUE"	"MullerLyer"	"000000000000"	"-0.700000000"	"1"	"10"
n/a	"html-keyboard-response"	"29"	"147174"	"0.0-3.0-2.0-2.0-0.4"	"6su1qc"	"657"	"1366"	"chrome"	"108.0.0"	"FALSE"	"Windows 10"	"60.64"	n/a	n/a	n/a	n/a	n/a	n/a	"fixation"	n/a	n/a	n/a	n/a	"NULL"	"NULL"	"NULL"	n/a	"<p style=\"color: black; font-size: 80px; padding-left: 33%; padding-right: 32%; padding-top: 31%; padding-bottom: 27%\">+</p>"	n/a	"1249"	n/a	n/a	n/a	n/a	n/a	n/a	n/a	n/a	n/a
n/a	"image-keyboard-response"	"30"	"147518"	"0.0-3.0-2.0-2.0-1.4"	"6su1qc"	"657"	"1366"	"chrome"	"108.0.0"	"FALSE"	"Windows 10"	"60.64"	n/a	n/a	n/a	n/a	n/a	n/a	"Trial"	n/a	n/a	n/a	n/a	"NULL"	"NULL"	"NULL"	"344"	"stimuli/MullerLyer_-230000_0.70000.png"	"arrowup"	n/a	"MullerLyer"	"arrowup"	"1268"	"TRUE"	"MullerLyer"	"-23000000000"	"0.7000000000"	"1"	"11"
n/a	"html-keyboard-response"	"31"	"148869"	"0.0-3.0-2.0-2.0-0.5"	"6su1qc"	"657"	"1366"	"chrome"	"108.0.0"	"FALSE"	"Windows 10"	"60.64"	n/a	n/a	n/a	n/a	n/a	n/a	"fixation"	n/a	n/a	n/a	n/a	"NULL"	"NULL"	"NULL"	n/a	"<p style=\"color: black; font-size: 80px; padding-left: 40%; padding-right: 29%; padding-top: 50%; padding-bottom: 44%\">+</p>"	n/a	"1343"	n/a	n/a	n/a	n/a	n/a	n/a	n/a	n/a	n/a
n/a	"image-keyboard-response"	"32"	"149203"	"0.0-3.0-2.0-2.0-1.5"	"6su1qc"	"657"	"1366"	"chrome"	"108.0.0"	"FALSE"	"Windows 10"	"60.64"	n/a	n/a	n/a	n/a	n/a	n/a	"Trial"	n/a	n/a	n/a	n/a	"NULL"	"NULL"	"NULL"	"334"	"stimuli/MullerLyer_-230000_-0.7000.png"	"arrowdown"	n/a	"MullerLyer"	"arrowdown"	"1351"	"TRUE"	"MullerLyer"	"-23000000000"	"-0.700000000"	"1"	"12"
n/a	"html-button-response"	"33"	"151637"	"0.0-3.0-2.0-3.0"	"6su1qc"	"657"	"1366"	"chrome"	"108.0.0"	"FALSE"	"Windows 10"	"60.64"	n/a	n/a	n/a	n/a	n/a	n/a	"practice_block_results"	n/a	n/a	n/a	n/a	"NULL"	"NULL"	"NULL"	"2427"	"<p style='color:rgb(76,175,80);'> Correct Responses: <b>100.00%</b></p><hr><p style='color:rgb(233,30,99);'> Average Response Time: <b>439.00</b> ms.</p>"	"0"	n/a	n/a	n/a	n/a	n/a	n/a	n/a	n/a	n/a	n/a
"TRUE"	"preload"	"34"	"152163"	"0.0-3.0-3.0-0.0"	"6su1qc"	"657"	"1366"	"chrome"	"108.0.0"	"FALSE"	"Windows 10"	"60.64"	n/a	n/a	n/a	n/a	n/a	n/a	n/a	n/a	n/a	n/a	"FALSE"	"list()"	"list()"	"list()"	n/a	n/a	n/a	n/a	n/a	n/a	n/a	n/a	n/a	n/a	n/a	n/a	n/a
n/a	"html-keyboard-response"	"35"	"155859"	"0.0-3.0-3.0-1.0"	"6su1qc"	"657"	"1366"	"chrome"	"108.0.0"	"FALSE"	"Windows 10"	"60.64"	n/a	n/a	n/a	n/a	n/a	n/a	n/a	n/a	n/a	n/a	n/a	"NULL"	"NULL"	"NULL"	"3695"	"<p><b>Practice</b></p><p>In this part, two red lines will appear side by side.</p><p>Your task is to tell <b>which line is longer</b> in length, regardless of their orientation, as fast as you can, and without making errors.</p><p>Don't get distracted by the orientation of the lines!</p><p>Press <b>the LEFT or the RIGHT arrow</b> to indicate which <b>line is the longer one.</b></p><div style='float: center'><img src='materials/instructions/VerticalHorizontal_Demo.png' height='300'></img><p><img src='utils/answer/answer_leftright_keyboard.PNG' height='150'></img></p><p class='small'>In this example, the correct answer is the <b>LEFT arrow</b>.</p></div><p>Are you ready? <b>Press ENTER to start</b></p>"	"enter"	n/a	n/a	n/a	n/a	n/a	n/a	n/a	n/a	n/a	n/a
n/a	"html-keyboard-response"	"36"	"157531"	"0.0-3.0-3.0-2.0-0.0"	"6su1qc"	"657"	"1366"	"chrome"	"108.0.0"	"FALSE"	"Windows 10"	"60.64"	n/a	n/a	n/a	n/a	n/a	n/a	"fixation"	n/a	n/a	n/a	n/a	"NULL"	"NULL"	"NULL"	n/a	"<p style=\"color: black; font-size: 80px; padding-left: 12%; padding-right: 17%; padding-top: 15%; padding-bottom: 13%\">+</p>"	n/a	"1149"	n/a	n/a	n/a	n/a	n/a	n/a	n/a	n/a	n/a
n/a	"image-keyboard-response"	"37"	"157943"	"0.0-3.0-3.0-2.0-1.0"	"6su1qc"	"657"	"1366"	"chrome"	"108.0.0"	"FALSE"	"Windows 10"	"60.64"	n/a	n/a	n/a	n/a	n/a	n/a	"Trial"	n/a	n/a	n/a	n/a	"NULL"	"NULL"	"NULL"	"411"	"stimuli/VerticalHorizontal_0000000_0.90000.png"	"arrowleft"	n/a	"VerticalHorizontal"	"arrowleft"	"1672"	"TRUE"	"VerticalHorizontal"	"000000000000"	"0.9000000000"	"1"	"13"
n/a	"html-keyboard-response"	"38"	"159279"	"0.0-3.0-3.0-2.0-0.1"	"6su1qc"	"657"	"1366"	"chrome"	"108.0.0"	"FALSE"	"Windows 10"	"60.64"	n/a	n/a	n/a	n/a	n/a	n/a	"fixation"	n/a	n/a	n/a	n/a	"NULL"	"NULL"	"NULL"	n/a	"<p style=\"color: black; font-size: 80px; padding-left: 35%; padding-right: 4%; padding-top: 9%; padding-bottom: 17%\">+</p>"	n/a	"1329"	n/a	n/a	n/a	n/a	n/a	n/a	n/a	n/a	n/a
n/a	"image-keyboard-response"	"39"	"159598"	"0.0-3.0-3.0-2.0-1.1"	"6su1qc"	"657"	"1366"	"chrome"	"108.0.0"	"FALSE"	"Windows 10"	"60.64"	n/a	n/a	n/a	n/a	n/a	n/a	"Trial"	n/a	n/a	n/a	n/a	"NULL"	"NULL"	"NULL"	"318"	"stimuli/VerticalHorizontal_-330000_-0.9000.png"	"arrowright"	n/a	"VerticalHorizontal"	"arrowright"	"1336"	"TRUE"	"VerticalHorizontal"	"-33000000000"	"-0.900000000"	"1"	"14"
n/a	"html-keyboard-response"	"40"	"160998"	"0.0-3.0-3.0-2.0-0.2"	"6su1qc"	"657"	"1366"	"chrome"	"108.0.0"	"FALSE"	"Windows 10"	"60.64"	n/a	n/a	n/a	n/a	n/a	n/a	"fixation"	n/a	n/a	n/a	n/a	"NULL"	"NULL"	"NULL"	n/a	"<p style=\"color: black; font-size: 80px; padding-left: 13%; padding-right: 33%; padding-top: 1%; padding-bottom: 24%\">+</p>"	n/a	"1381"	n/a	n/a	n/a	n/a	n/a	n/a	n/a	n/a	n/a
n/a	"image-keyboard-response"	"41"	"161301"	"0.0-3.0-3.0-2.0-1.2"	"6su1qc"	"657"	"1366"	"chrome"	"108.0.0"	"FALSE"	"Windows 10"	"60.64"	n/a	n/a	n/a	n/a	n/a	n/a	"Trial"	n/a	n/a	n/a	n/a	"NULL"	"NULL"	"NULL"	"302"	"stimuli/VerticalHorizontal_3300000_0.90000.png"	"arrowleft"	n/a	"VerticalHorizontal"	"arrowleft"	"1400"	"TRUE"	"VerticalHorizontal"	"330000000000"	"0.9000000000"	"1"	"15"
n/a	"html-keyboard-response"	"42"	"162484"	"0.0-3.0-3.0-2.0-0.3"	"6su1qc"	"657"	"1366"	"chrome"	"108.0.0"	"FALSE"	"Windows 10"	"60.64"	n/a	n/a	n/a	n/a	n/a	n/a	"fixation"	n/a	n/a	n/a	n/a	"NULL"	"NULL"	"NULL"	n/a	"<p style=\"color: black; font-size: 80px; padding-left: 7%; padding-right: 13%; padding-top: 18%; padding-bottom: 22%\">+</p>"	n/a	"1180"	n/a	n/a	n/a	n/a	n/a	n/a	n/a	n/a	n/a
n/a	"image-keyboard-response"	"43"	"162837"	"0.0-3.0-3.0-2.0-1.3"	"6su1qc"	"657"	"1366"	"chrome"	"108.0.0"	"FALSE"	"Windows 10"	"60.64"	n/a	n/a	n/a	n/a	n/a	n/a	"Trial"	n/a	n/a	n/a	n/a	"NULL"	"NULL"	"NULL"	"352"	"stimuli/VerticalHorizontal_0000000_-0.9000.png"	"arrowright"	n/a	"VerticalHorizontal"	"arrowright"	"1183"	"TRUE"	"VerticalHorizontal"	"000000000000"	"-0.900000000"	"1"	"16"
n/a	"html-keyboard-response"	"44"	"164025"	"0.0-3.0-3.0-2.0-0.4"	"6su1qc"	"657"	"1366"	"chrome"	"108.0.0"	"FALSE"	"Windows 10"	"60.64"	n/a	n/a	n/a	n/a	n/a	n/a	"fixation"	n/a	n/a	n/a	n/a	"NULL"	"NULL"	"NULL"	n/a	"<p style=\"color: black; font-size: 80px; padding-left: 49%; padding-right: 10%; padding-top: 30%; padding-bottom: 5%\">+</p>"	n/a	"1169"	n/a	n/a	n/a	n/a	n/a	n/a	n/a	n/a	n/a
n/a	"image-keyboard-response"	"45"	"164548"	"0.0-3.0-3.0-2.0-1.4"	"6su1qc"	"657"	"1366"	"chrome"	"108.0.0"	"FALSE"	"Windows 10"	"60.64"	n/a	n/a	n/a	n/a	n/a	n/a	"Trial"	n/a	n/a	n/a	n/a	"NULL"	"NULL"	"NULL"	"522"	"stimuli/VerticalHorizontal_3300000_-0.9000.png"	"arrowright"	n/a	"VerticalHorizontal"	"arrowright"	"1188"	"TRUE"	"VerticalHorizontal"	"330000000000"	"-0.900000000"	"1"	"17"
n/a	"html-keyboard-response"	"46"	"165934"	"0.0-3.0-3.0-2.0-0.5"	"6su1qc"	"657"	"1366"	"chrome"	"108.0.0"	"FALSE"	"Windows 10"	"60.64"	n/a	n/a	n/a	n/a	n/a	n/a	"fixation"	n/a	n/a	n/a	n/a	"NULL"	"NULL"	"NULL"	n/a	"<p style=\"color: black; font-size: 80px; padding-left: 10%; padding-right: 28%; padding-top: 4%; padding-bottom: 41%\">+</p>"	n/a	"1367"	n/a	n/a	n/a	n/a	n/a	n/a	n/a	n/a	n/a
n/a	"image-keyboard-response"	"47"	"166228"	"0.0-3.0-3.0-2.0-1.5"	"6su1qc"	"657"	"1366"	"chrome"	"108.0.0"	"FALSE"	"Windows 10"	"60.64"	n/a	n/a	n/a	n/a	n/a	n/a	"Trial"	n/a	n/a	n/a	n/a	"NULL"	"NULL"	"NULL"	"293"	"stimuli/VerticalHorizontal_-330000_0.90000.png"	"arrowleft"	n/a	"VerticalHorizontal"	"arrowleft"	"1386"	"TRUE"	"VerticalHorizontal"	"-33000000000"	"0.9000000000"	"1"	"18"
n/a	"html-button-response"	"48"	"170779"	"0.0-3.0-3.0-3.0"	"6su1qc"	"657"	"1366"	"chrome"	"108.0.0"	"FALSE"	"Windows 10"	"60.64"	n/a	n/a	n/a	n/a	n/a	n/a	"practice_block_results"	n/a	n/a	n/a	n/a	"NULL"	"NULL"	"NULL"	"4549"	"<p style='color:rgb(76,175,80);'> Correct Responses: <b>100.00%</b></p><hr><p style='color:rgb(233,30,99);'> Average Response Time: <b>366.33</b> ms.</p>"	"0"	n/a	n/a	n/a	n/a	n/a	n/a	n/a	n/a	n/a	n/a
n/a	"html-button-response"	"49"	"184985"	"0.0-3.0-4.0"	"6su1qc"	"657"	"1366"	"chrome"	"108.0.0"	"FALSE"	"Windows 10"	"60.64"	n/a	n/a	n/a	n/a	n/a	n/a	"practice_debrief"	n/a	n/a	n/a	n/a	"NULL"	"NULL"	"NULL"	"13691"	"<p><b>TRAINING COMPLETED</b></p><p>In the next phase, there will be more trials, and some might be harder too.<br> Moreover, after each illusion block, a <b>score</b> will be calculated based on speed (time you took to answer) and accuracy (number of errors).</p><p>Try to keep up a high score!</p><br><p>Note that it can be <i>really</i> challenging at times, so you will need to rely on your <b>intuition</b> and gut feeling to answer as fast as you can without making errors.</p><p>Each illusion block will be repeated two times (so that you have the opportunity to improve your score), but the order of the blocks is random.</p><p>Remember, your goal is to be as <b>fast</b> and <b>accurate</b> as possible. Good luck!</p><br>"	"0"	n/a	n/a	n/a	n/a	n/a	n/a	n/a	n/a	n/a	n/a
"TRUE"	"preload"	"50"	"185147"	"0.0-4.0-0.0"	"6su1qc"	"657"	"1366"	"chrome"	"108.0.0"	"FALSE"	"Windows 10"	"60.64"	n/a	n/a	n/a	n/a	n/a	n/a	n/a	n/a	n/a	n/a	"FALSE"	"list()"	"list()"	"list()"	n/a	n/a	n/a	n/a	n/a	n/a	n/a	n/a	n/a	n/a	n/a	n/a	n/a
n/a	"html-keyboard-response"	"51"	"248968"	"0.0-4.0-1.0"	"6su1qc"	"657"	"1366"	"chrome"	"108.0.0"	"FALSE"	"Windows 10"	"60.64"	n/a	n/a	n/a	n/a	n/a	n/a	n/a	n/a	n/a	n/a	n/a	"NULL"	"NULL"	"NULL"	"63817"	"<p><b>Part 1/6</b></p><p>In this part, two red circles will appear side by side on the screen.</p><p>Your task is to select which <b>red circle is bigger</b> in size as fast as you can, without making errors.</p><p>Don't get distracted by the surrounding black circles around the red circles!</p><p>Press <b>the LEFT or the RIGHT arrow</b> to indicate which is the bigger <b>red circle.</b></p><div style='float: center'><img src='materials/instructions/Ebbinghaus_Demo.png' height='300'></img><p><img src='utils/answer/answer_leftright_keyboard.PNG' height='150'></img></p><p class='small'>In this example, the correct answer is the <b>LEFT arrow</b>.</p></div><p>Are you ready? <b>Press ENTER to start</b></p>"	"enter"	n/a	n/a	n/a	n/a	n/a	n/a	n/a	n/a	n/a	n/a
n/a	"html-keyboard-response"	"52"	"250768"	"0.0-4.0-2.0-0.0"	"6su1qc"	"657"	"1366"	"chrome"	"108.0.0"	"FALSE"	"Windows 10"	"60.64"	n/a	n/a	n/a	n/a	n/a	n/a	"fixation"	n/a	n/a	n/a	n/a	"NULL"	"NULL"	"NULL"	n/a	"<p style=\"color: black; font-size: 80px; padding-left: 1%; padding-right: 9%; padding-top: 38%; padding-bottom: 28%\">+</p>"	n/a	"1280"	n/a	n/a	n/a	n/a	n/a	n/a	n/a	n/a	n/a
n/a	"image-keyboard-response"	"53"	"251271"	"0.0-4.0-2.0-1.0"	"6su1qc"	"657"	"1366"	"chrome"	"108.0.0"	"FALSE"	"Windows 10"	"60.64"	n/a	n/a	n/a	n/a	n/a	n/a	"Trial"	n/a	n/a	n/a	n/a	"NULL"	"NULL"	"NULL"	"501"	"stimuli/Ebbinghaus_-0.61429_0.15857.png"	"arrowright"	n/a	"Ebbinghaus"	"arrowleft"	"1800"	"FALSE"	"Ebbinghaus"	"-0.614290000"	"0.1585700000"	"1"	"19"
n/a	"html-keyboard-response"	"54"	"252562"	"0.0-4.0-2.0-0.1"	"6su1qc"	"657"	"1366"	"chrome"	"108.0.0"	"FALSE"	"Windows 10"	"60.64"	n/a	n/a	n/a	n/a	n/a	n/a	"fixation"	n/a	n/a	n/a	n/a	"NULL"	"NULL"	"NULL"	n/a	"<p style=\"color: black; font-size: 80px; padding-left: 22%; padding-right: 43%; padding-top: 1%; padding-bottom: 23%\">+</p>"	n/a	"1272"	n/a	n/a	n/a	n/a	n/a	n/a	n/a	n/a	n/a
n/a	"image-keyboard-response"	"55"	"252931"	"0.0-4.0-2.0-1.1"	"6su1qc"	"657"	"1366"	"chrome"	"108.0.0"	"FALSE"	"Windows 10"	"60.64"	n/a	n/a	n/a	n/a	n/a	n/a	"Trial"	n/a	n/a	n/a	n/a	"NULL"	"NULL"	"NULL"	"368"	"stimuli/Ebbinghaus_0.61429_0.15857.png"	"arrowleft"	n/a	"Ebbinghaus"	"arrowleft"	"1291"	"TRUE"	"Ebbinghaus"	"0.6142900000"	"0.1585700000"	"1"	"20"
n/a	"html-keyboard-response"	"56"	"253974"	"0.0-4.0-2.0-0.2"	"6su1qc"	"657"	"1366"	"chrome"	"108.0.0"	"FALSE"	"Windows 10"	"60.64"	n/a	n/a	n/a	n/a	n/a	n/a	"fixation"	n/a	n/a	n/a	n/a	"NULL"	"NULL"	"NULL"	n/a	"<p style=\"color: black; font-size: 80px; padding-left: 20%; padding-right: 3%; padding-top: 35%; padding-bottom: 35%\">+</p>"	n/a	"1024"	n/a	n/a	n/a	n/a	n/a	n/a	n/a	n/a	n/a
n/a	"image-keyboard-response"	"57"	"254454"	"0.0-4.0-2.0-1.2"	"6su1qc"	"657"	"1366"	"chrome"	"108.0.0"	"FALSE"	"Windows 10"	"60.64"	n/a	n/a	n/a	n/a	n/a	n/a	"Trial"	n/a	n/a	n/a	n/a	"NULL"	"NULL"	"NULL"	"479"	"stimuli/Ebbinghaus_-0.35714_-0.2150.png"	"arrowleft"	n/a	"Ebbinghaus"	"arrowright"	"1043"	"FALSE"	"Ebbinghaus"	"-0.357140000"	"-0.215000000"	"1"	"21"
n/a	"html-keyboard-response"	"58"	"255622"	"0.0-4.0-2.0-0.3"	"6su1qc"	"657"	"1366"	"chrome"	"108.0.0"	"FALSE"	"Windows 10"	"60.64"	n/a	n/a	n/a	n/a	n/a	n/a	"fixation"	n/a	n/a	n/a	n/a	"NULL"	"NULL"	"NULL"	n/a	"<p style=\"color: black; font-size: 80px; padding-left: 9%; padding-right: 40%; padding-top: 12%; padding-bottom: 1%\">+</p>"	n/a	"1157"	n/a	n/a	n/a	n/a	n/a	n/a	n/a	n/a	n/a
n/a	"image-keyboard-response"	"59"	"256051"	"0.0-4.0-2.0-1.3"	"6su1qc"	"657"	"1366"	"chrome"	"108.0.0"	"FALSE"	"Windows 10"	"60.64"	n/a	n/a	n/a	n/a	n/a	n/a	"Trial"	n/a	n/a	n/a	n/a	"NULL"	"NULL"	"NULL"	"427"	"stimuli/Ebbinghaus_0.35714_0.21500.png"	"arrowleft"	n/a	"Ebbinghaus"	"arrowleft"	"1168"	"TRUE"	"Ebbinghaus"	"0.3571400000"	"0.2150000000"	"1"	"22"
n/a	"html-keyboard-response"	"60"	"257549"	"0.0-4.0-2.0-0.4"	"6su1qc"	"657"	"1366"	"chrome"	"108.0.0"	"FALSE"	"Windows 10"	"60.64"	n/a	n/a	n/a	n/a	n/a	n/a	"fixation"	n/a	n/a	n/a	n/a	"NULL"	"NULL"	"NULL"	n/a	"<p style=\"color: black; font-size: 80px; padding-left: 19%; padding-right: 28%; padding-top: 4%; padding-bottom: 0%\">+</p>"	n/a	"1482"	n/a	n/a	n/a	n/a	n/a	n/a	n/a	n/a	n/a
n/a	"image-keyboard-response"	"61"	"257965"	"0.0-4.0-2.0-1.4"	"6su1qc"	"657"	"1366"	"chrome"	"108.0.0"	"FALSE"	"Windows 10"	"60.64"	n/a	n/a	n/a	n/a	n/a	n/a	"Trial"	n/a	n/a	n/a	n/a	"NULL"	"NULL"	"NULL"	"414"	"stimuli/Ebbinghaus_0.61429_-0.2800.png"	"arrowright"	n/a	"Ebbinghaus"	"arrowright"	"1498"	"TRUE"	"Ebbinghaus"	"0.6142900000"	"-0.280000000"	"1"	"23"
n/a	"html-keyboard-response"	"62"	"259444"	"0.0-4.0-2.0-0.5"	"6su1qc"	"657"	"1366"	"chrome"	"108.0.0"	"FALSE"	"Windows 10"	"60.64"	n/a	n/a	n/a	n/a	n/a	n/a	"fixation"	n/a	n/a	n/a	n/a	"NULL"	"NULL"	"NULL"	n/a	"<p style=\"color: black; font-size: 80px; padding-left: 4%; padding-right: 28%; padding-top: 39%; padding-bottom: 15%\">+</p>"	n/a	"1458"	n/a	n/a	n/a	n/a	n/a	n/a	n/a	n/a	n/a
n/a	"image-keyboard-response"	"63"	"259911"	"0.0-4.0-2.0-1.5"	"6su1qc"	"657"	"1366"	"chrome"	"108.0.0"	"FALSE"	"Windows 10"	"60.64"	n/a	n/a	n/a	n/a	n/a	n/a	"Trial"	n/a	n/a	n/a	n/a	"NULL"	"NULL"	"NULL"	"466"	"stimuli/Ebbinghaus_-0.87143_0.28000.png"	"arrowleft"	n/a	"Ebbinghaus"	"arrowleft"	"1479"	"TRUE"	"Ebbinghaus"	"-0.871430000"	"0.2800000000"	"1"	"24"
n/a	"html-keyboard-response"	"64"	"260999"	"0.0-4.0-2.0-0.6"	"6su1qc"	"657"	"1366"	"chrome"	"108.0.0"	"FALSE"	"Windows 10"	"60.64"	n/a	n/a	n/a	n/a	n/a	n/a	"fixation"	n/a	n/a	n/a	n/a	"NULL"	"NULL"	"NULL"	n/a	"<p style=\"color: black; font-size: 80px; padding-left: 13%; padding-right: 5%; padding-top: 33%; padding-bottom: 21%\">+</p>"	n/a	"1069"	n/a	n/a	n/a	n/a	n/a	n/a	n/a	n/a	n/a
n/a	"image-keyboard-response"	"65"	"261388"	"0.0-4.0-2.0-1.6"	"6su1qc"	"657"	"1366"	"chrome"	"108.0.0"	"FALSE"	"Windows 10"	"60.64"	n/a	n/a	n/a	n/a	n/a	n/a	"Trial"	n/a	n/a	n/a	n/a	"NULL"	"NULL"	"NULL"	"388"	"stimuli/Ebbinghaus_0.87143_0.15857.png"	"arrowleft"	n/a	"Ebbinghaus"	"arrowleft"	"1088"	"TRUE"	"Ebbinghaus"	"0.8714300000"	"0.1585700000"	"1"	"25"
n/a	"html-keyboard-response"	"66"	"262738"	"0.0-4.0-2.0-0.7"	"6su1qc"	"657"	"1366"	"chrome"	"108.0.0"	"FALSE"	"Windows 10"	"60.64"	n/a	n/a	n/a	n/a	n/a	n/a	"fixation"	n/a	n/a	n/a	n/a	"NULL"	"NULL"	"NULL"	n/a	"<p style=\"color: black; font-size: 80px; padding-left: 20%; padding-right: 49%; padding-top: 33%; padding-bottom: 4%\">+</p>"	n/a	"1336"	n/a	n/a	n/a	n/a	n/a	n/a	n/a	n/a	n/a
n/a	"image-keyboard-response"	"67"	"263155"	"0.0-4.0-2.0-1.7"	"6su1qc"	"657"	"1366"	"chrome"	"108.0.0"	"FALSE"	"Windows 10"	"60.64"	n/a	n/a	n/a	n/a	n/a	n/a	"Trial"	n/a	n/a	n/a	n/a	"NULL"	"NULL"	"NULL"	"416"	"stimuli/Ebbinghaus_0.87143_0.28000.png"	"arrowleft"	n/a	"Ebbinghaus"	"arrowleft"	"1350"	"TRUE"	"Ebbinghaus"	"0.8714300000"	"0.2800000000"	"1"	"26"
n/a	"html-keyboard-response"	"68"	"264476"	"0.0-4.0-2.0-0.8"	"6su1qc"	"657"	"1366"	"chrome"	"108.0.0"	"FALSE"	"Windows 10"	"60.64"	n/a	n/a	n/a	n/a	n/a	n/a	"fixation"	n/a	n/a	n/a	n/a	"NULL"	"NULL"	"NULL"	n/a	"<p style=\"color: black; font-size: 80px; padding-left: 17%; padding-right: 38%; padding-top: 39%; padding-bottom: 47%\">+</p>"	n/a	"1314"	n/a	n/a	n/a	n/a	n/a	n/a	n/a	n/a	n/a
n/a	"image-keyboard-response"	"69"	"264897"	"0.0-4.0-2.0-1.8"	"6su1qc"	"657"	"1366"	"chrome"	"108.0.0"	"FALSE"	"Windows 10"	"60.64"	n/a	n/a	n/a	n/a	n/a	n/a	"Trial"	n/a	n/a	n/a	n/a	"NULL"	"NULL"	"NULL"	"419"	"stimuli/Ebbinghaus_0.87143_-0.2150.png"	"arrowright"	n/a	"Ebbinghaus"	"arrowright"	"1321"	"TRUE"	"Ebbinghaus"	"0.8714300000"	"-0.215000000"	"1"	"27"
n/a	"html-keyboard-response"	"70"	"265984"	"0.0-4.0-2.0-0.9"	"6su1qc"	"657"	"1366"	"chrome"	"108.0.0"	"FALSE"	"Windows 10"	"60.64"	n/a	n/a	n/a	n/a	n/a	n/a	"fixation"	n/a	n/a	n/a	n/a	"NULL"	"NULL"	"NULL"	n/a	"<p style=\"color: black; font-size: 80px; padding-left: 33%; padding-right: 39%; padding-top: 21%; padding-bottom: 0%\">+</p>"	n/a	"1081"	n/a	n/a	n/a	n/a	n/a	n/a	n/a	n/a	n/a
n/a	"image-keyboard-response"	"71"	"266489"	"0.0-4.0-2.0-1.9"	"6su1qc"	"657"	"1366"	"chrome"	"108.0.0"	"FALSE"	"Windows 10"	"60.64"	n/a	n/a	n/a	n/a	n/a	n/a	"Trial"	n/a	n/a	n/a	n/a	"NULL"	"NULL"	"NULL"	"504"	"stimuli/Ebbinghaus_0.35714_-0.11071.png"	"arrowleft"	n/a	"Ebbinghaus"	"arrowright"	"1087"	"FALSE"	"Ebbinghaus"	"0.3571400000"	"-0.110710000"	"1"	"28"
n/a	"html-keyboard-response"	"72"	"267832"	"0.0-4.0-2.0-0.10"	"6su1qc"	"657"	"1366"	"chrome"	"108.0.0"	"FALSE"	"Windows 10"	"60.64"	n/a	n/a	n/a	n/a	n/a	n/a	"fixation"	n/a	n/a	n/a	n/a	"NULL"	"NULL"	"NULL"	n/a	"<p style=\"color: black; font-size: 80px; padding-left: 47%; padding-right: 8%; padding-top: 45%; padding-bottom: 2%\">+</p>"	n/a	"1327"	n/a	n/a	n/a	n/a	n/a	n/a	n/a	n/a	n/a
n/a	"image-keyboard-response"	"73"	"268261"	"0.0-4.0-2.0-1.10"	"6su1qc"	"657"	"1366"	"chrome"	"108.0.0"	"FALSE"	"Windows 10"	"60.64"	n/a	n/a	n/a	n/a	n/a	n/a	"Trial"	n/a	n/a	n/a	n/a	"NULL"	"NULL"	"NULL"	"428"	"stimuli/Ebbinghaus_-0.87143_0.11071.png"	"arrowleft"	n/a	"Ebbinghaus"	"arrowleft"	"1343"	"TRUE"	"Ebbinghaus"	"-0.871430000"	"0.1107100000"	"1"	"29"
n/a	"html-keyboard-response"	"74"	"269457"	"0.0-4.0-2.0-0.11"	"6su1qc"	"657"	"1366"	"chrome"	"108.0.0"	"FALSE"	"Windows 10"	"60.64"	n/a	n/a	n/a	n/a	n/a	n/a	"fixation"	n/a	n/a	n/a	n/a	"NULL"	"NULL"	"NULL"	n/a	"<p style=\"color: black; font-size: 80px; padding-left: 49%; padding-right: 16%; padding-top: 32%; padding-bottom: 5%\">+</p>"	n/a	"1180"	n/a	n/a	n/a	n/a	n/a	n/a	n/a	n/a	n/a
n/a	"image-keyboard-response"	"75"	"269868"	"0.0-4.0-2.0-1.11"	"6su1qc"	"657"	"1366"	"chrome"	"108.0.0"	"FALSE"	"Windows 10"	"60.64"	n/a	n/a	n/a	n/a	n/a	n/a	"Trial"	n/a	n/a	n/a	n/a	"NULL"	"NULL"	"NULL"	"410"	"stimuli/Ebbinghaus_-0.35714_0.21500.png"	"arrowleft"	n/a	"Ebbinghaus"	"arrowleft"	"1196"	"TRUE"	"Ebbinghaus"	"-0.357140000"	"0.2150000000"	"1"	"30"
n/a	"html-keyboard-response"	"76"	"271083"	"0.0-4.0-2.0-0.12"	"6su1qc"	"657"	"1366"	"chrome"	"108.0.0"	"FALSE"	"Windows 10"	"60.64"	n/a	n/a	n/a	n/a	n/a	n/a	"fixation"	n/a	n/a	n/a	n/a	"NULL"	"NULL"	"NULL"	n/a	"<p style=\"color: black; font-size: 80px; padding-left: 0%; padding-right: 46%; padding-top: 42%; padding-bottom: 39%\">+</p>"	n/a	"1202"	n/a	n/a	n/a	n/a	n/a	n/a	n/a	n/a	n/a
n/a	"image-keyboard-response"	"77"	"271380"	"0.0-4.0-2.0-1.12"	"6su1qc"	"657"	"1366"	"chrome"	"108.0.0"	"FALSE"	"Windows 10"	"60.64"	n/a	n/a	n/a	n/a	n/a	n/a	"Trial"	n/a	n/a	n/a	n/a	"NULL"	"NULL"	"NULL"	"296"	"stimuli/Ebbinghaus_0.87143_-0.2800.png"	"arrowleft"	n/a	"Ebbinghaus"	"arrowright"	"1215"	"FALSE"	"Ebbinghaus"	"0.8714300000"	"-0.280000000"	"1"	"31"
n/a	"html-keyboard-response"	"78"	"272698"	"0.0-4.0-2.0-0.13"	"6su1qc"	"657"	"1366"	"chrome"	"108.0.0"	"FALSE"	"Windows 10"	"60.64"	n/a	n/a	n/a	n/a	n/a	n/a	"fixation"	n/a	n/a	n/a	n/a	"NULL"	"NULL"	"NULL"	n/a	"<p style=\"color: black; font-size: 80px; padding-left: 11%; padding-right: 38%; padding-top: 36%; padding-bottom: 39%\">+</p>"	n/a	"1305"	n/a	n/a	n/a	n/a	n/a	n/a	n/a	n/a	n/a
n/a	"image-keyboard-response"	"79"	"273010"	"0.0-4.0-2.0-1.13"	"6su1qc"	"657"	"1366"	"chrome"	"108.0.0"	"FALSE"	"Windows 10"	"60.64"	n/a	n/a	n/a	n/a	n/a	n/a	"Trial"	n/a	n/a	n/a	n/a	"NULL"	"NULL"	"NULL"	"311"	"stimuli/Ebbinghaus_0.87143_-0.15857.png"	"arrowleft"	n/a	"Ebbinghaus"	"arrowright"	"1318"	"FALSE"	"Ebbinghaus"	"0.8714300000"	"-0.158570000"	"1"	"32"
n/a	"html-keyboard-response"	"80"	"274316"	"0.0-4.0-2.0-0.14"	"6su1qc"	"657"	"1366"	"chrome"	"108.0.0"	"FALSE"	"Windows 10"	"60.64"	n/a	n/a	n/a	n/a	n/a	n/a	"fixation"	n/a	n/a	n/a	n/a	"NULL"	"NULL"	"NULL"	n/a	"<p style=\"color: black; font-size: 80px; padding-left: 32%; padding-right: 9%; padding-top: 25%; padding-bottom: 44%\">+</p>"	n/a	"1295"	n/a	n/a	n/a	n/a	n/a	n/a	n/a	n/a	n/a
n/a	"image-keyboard-response"	"81"	"274756"	"0.0-4.0-2.0-1.14"	"6su1qc"	"657"	"1366"	"chrome"	"108.0.0"	"FALSE"	"Windows 10"	"60.64"	n/a	n/a	n/a	n/a	n/a	n/a	"Trial"	n/a	n/a	n/a	n/a	"NULL"	"NULL"	"NULL"	"439"	"stimuli/Ebbinghaus_-0.1000_0.15857.png"	"arrowleft"	n/a	"Ebbinghaus"	"arrowleft"	"1306"	"TRUE"	"Ebbinghaus"	"-0.100000000"	"0.1585700000"	"1"	"33"
n/a	"html-keyboard-response"	"82"	"276029"	"0.0-4.0-2.0-0.15"	"6su1qc"	"657"	"1366"	"chrome"	"108.0.0"	"FALSE"	"Windows 10"	"60.64"	n/a	n/a	n/a	n/a	n/a	n/a	"fixation"	n/a	n/a	n/a	n/a	"NULL"	"NULL"	"NULL"	n/a	"<p style=\"color: black; font-size: 80px; padding-left: 2%; padding-right: 9%; padding-top: 50%; padding-bottom: 7%\">+</p>"	n/a	"1261"	n/a	n/a	n/a	n/a	n/a	n/a	n/a	n/a	n/a
n/a	"image-keyboard-response"	"83"	"276423"	"0.0-4.0-2.0-1.15"	"6su1qc"	"657"	"1366"	"chrome"	"108.0.0"	"FALSE"	"Windows 10"	"60.64"	n/a	n/a	n/a	n/a	n/a	n/a	"Trial"	n/a	n/a	n/a	n/a	"NULL"	"NULL"	"NULL"	"393"	"stimuli/Ebbinghaus_-0.1000_0.21500.png"	"arrowleft"	n/a	"Ebbinghaus"	"arrowleft"	"1273"	"TRUE"	"Ebbinghaus"	"-0.100000000"	"0.2150000000"	"1"	"34"
n/a	"html-keyboard-response"	"84"	"277456"	"0.0-4.0-2.0-0.16"	"6su1qc"	"657"	"1366"	"chrome"	"108.0.0"	"FALSE"	"Windows 10"	"60.64"	n/a	n/a	n/a	n/a	n/a	n/a	"fixation"	n/a	n/a	n/a	n/a	"NULL"	"NULL"	"NULL"	n/a	"<p style=\"color: black; font-size: 80px; padding-left: 40%; padding-right: 34%; padding-top: 14%; padding-bottom: 25%\">+</p>"	n/a	"1029"	n/a	n/a	n/a	n/a	n/a	n/a	n/a	n/a	n/a
n/a	"image-keyboard-response"	"85"	"277800"	"0.0-4.0-2.0-1.16"	"6su1qc"	"657"	"1366"	"chrome"	"108.0.0"	"FALSE"	"Windows 10"	"60.64"	n/a	n/a	n/a	n/a	n/a	n/a	"Trial"	n/a	n/a	n/a	n/a	"NULL"	"NULL"	"NULL"	"342"	"stimuli/Ebbinghaus_-0.61429_-0.2150.png"	"arrowleft"	n/a	"Ebbinghaus"	"arrowright"	"1033"	"FALSE"	"Ebbinghaus"	"-0.614290000"	"-0.215000000"	"1"	"35"
n/a	"html-keyboard-response"	"86"	"279130"	"0.0-4.0-2.0-0.17"	"6su1qc"	"657"	"1366"	"chrome"	"108.0.0"	"FALSE"	"Windows 10"	"60.64"	n/a	n/a	n/a	n/a	n/a	n/a	"fixation"	n/a	n/a	n/a	n/a	"NULL"	"NULL"	"NULL"	n/a	"<p style=\"color: black; font-size: 80px; padding-left: 34%; padding-right: 17%; padding-top: 7%; padding-bottom: 31%\">+</p>"	n/a	"1317"	n/a	n/a	n/a	n/a	n/a	n/a	n/a	n/a	n/a
n/a	"image-keyboard-response"	"87"	"279738"	"0.0-4.0-2.0-1.17"	"6su1qc"	"657"	"1366"	"chrome"	"108.0.0"	"FALSE"	"Windows 10"	"60.64"	n/a	n/a	n/a	n/a	n/a	n/a	"Trial"	n/a	n/a	n/a	n/a	"NULL"	"NULL"	"NULL"	"607"	"stimuli/Ebbinghaus_-0.35714_-0.15857.png"	"arrowright"	n/a	"Ebbinghaus"	"arrowright"	"1330"	"TRUE"	"Ebbinghaus"	"-0.357140000"	"-0.158570000"	"1"	"36"
n/a	"html-keyboard-response"	"88"	"280864"	"0.0-4.0-2.0-0.18"	"6su1qc"	"657"	"1366"	"chrome"	"108.0.0"	"FALSE"	"Windows 10"	"60.64"	n/a	n/a	n/a	n/a	n/a	n/a	"fixation"	n/a	n/a	n/a	n/a	"NULL"	"NULL"	"NULL"	n/a	"<p style=\"color: black; font-size: 80px; padding-left: 4%; padding-right: 21%; padding-top: 26%; padding-bottom: 1%\">+</p>"	n/a	"1120"	n/a	n/a	n/a	n/a	n/a	n/a	n/a	n/a	n/a
n/a	"image-keyboard-response"	"89"	"281374"	"0.0-4.0-2.0-1.18"	"6su1qc"	"657"	"1366"	"chrome"	"108.0.0"	"FALSE"	"Windows 10"	"60.64"	n/a	n/a	n/a	n/a	n/a	n/a	"Trial"	n/a	n/a	n/a	n/a	"NULL"	"NULL"	"NULL"	"508"	"stimuli/Ebbinghaus_-0.1000_-0.2150.png"	"arrowright"	n/a	"Ebbinghaus"	"arrowright"	"1126"	"TRUE"	"Ebbinghaus"	"-0.100000000"	"-0.215000000"	"1"	"37"
n/a	"html-keyboard-response"	"90"	"282571"	"0.0-4.0-2.0-0.19"	"6su1qc"	"657"	"1366"	"chrome"	"108.0.0"	"FALSE"	"Windows 10"	"60.64"	n/a	n/a	n/a	n/a	n/a	n/a	"fixation"	n/a	n/a	n/a	n/a	"NULL"	"NULL"	"NULL"	n/a	"<p style=\"color: black; font-size: 80px; padding-left: 27%; padding-right: 20%; padding-top: 16%; padding-bottom: 27%\">+</p>"	n/a	"1191"	n/a	n/a	n/a	n/a	n/a	n/a	n/a	n/a	n/a
n/a	"image-keyboard-response"	"91"	"282977"	"0.0-4.0-2.0-1.19"	"6su1qc"	"657"	"1366"	"chrome"	"108.0.0"	"FALSE"	"Windows 10"	"60.64"	n/a	n/a	n/a	n/a	n/a	n/a	"Trial"	n/a	n/a	n/a	n/a	"NULL"	"NULL"	"NULL"	"404"	"stimuli/Ebbinghaus_0.61429_-0.11071.png"	"arrowright"	n/a	"Ebbinghaus"	"arrowright"	"1197"	"TRUE"	"Ebbinghaus"	"0.6142900000"	"-0.110710000"	"1"	"38"
n/a	"html-keyboard-response"	"92"	"284120"	"0.0-4.0-2.0-0.20"	"6su1qc"	"657"	"1366"	"chrome"	"108.0.0"	"FALSE"	"Windows 10"	"60.64"	n/a	n/a	n/a	n/a	n/a	n/a	"fixation"	n/a	n/a	n/a	n/a	"NULL"	"NULL"	"NULL"	n/a	"<p style=\"color: black; font-size: 80px; padding-left: 5%; padding-right: 23%; padding-top: 30%; padding-bottom: 3%\">+</p>"	n/a	"1133"	n/a	n/a	n/a	n/a	n/a	n/a	n/a	n/a	n/a
n/a	"image-keyboard-response"	"93"	"284459"	"0.0-4.0-2.0-1.20"	"6su1qc"	"657"	"1366"	"chrome"	"108.0.0"	"FALSE"	"Windows 10"	"60.64"	n/a	n/a	n/a	n/a	n/a	n/a	"Trial"	n/a	n/a	n/a	n/a	"NULL"	"NULL"	"NULL"	"338"	"stimuli/Ebbinghaus_0.10000_0.15857.png"	"arrowleft"	n/a	"Ebbinghaus"	"arrowleft"	"1143"	"TRUE"	"Ebbinghaus"	"0.1000000000"	"0.1585700000"	"1"	"39"
n/a	"html-keyboard-response"	"94"	"285531"	"0.0-4.0-2.0-0.21"	"6su1qc"	"657"	"1366"	"chrome"	"108.0.0"	"FALSE"	"Windows 10"	"60.64"	n/a	n/a	n/a	n/a	n/a	n/a	"fixation"	n/a	n/a	n/a	n/a	"NULL"	"NULL"	"NULL"	n/a	"<p style=\"color: black; font-size: 80px; padding-left: 23%; padding-right: 17%; padding-top: 27%; padding-bottom: 37%\">+</p>"	n/a	"1062"	n/a	n/a	n/a	n/a	n/a	n/a	n/a	n/a	n/a
n/a	"image-keyboard-response"	"95"	"285972"	"0.0-4.0-2.0-1.21"	"6su1qc"	"657"	"1366"	"chrome"	"108.0.0"	"FALSE"	"Windows 10"	"60.64"	n/a	n/a	n/a	n/a	n/a	n/a	"Trial"	n/a	n/a	n/a	n/a	"NULL"	"NULL"	"NULL"	"441"	"stimuli/Ebbinghaus_-0.1000_-0.2800.png"	"arrowright"	n/a	"Ebbinghaus"	"arrowright"	"1072"	"TRUE"	"Ebbinghaus"	"-0.100000000"	"-0.280000000"	"1"	"40"
n/a	"html-keyboard-response"	"96"	"287302"	"0.0-4.0-2.0-0.22"	"6su1qc"	"657"	"1366"	"chrome"	"108.0.0"	"FALSE"	"Windows 10"	"60.64"	n/a	n/a	n/a	n/a	n/a	n/a	"fixation"	n/a	n/a	n/a	n/a	"NULL"	"NULL"	"NULL"	n/a	"<p style=\"color: black; font-size: 80px; padding-left: 45%; padding-right: 23%; padding-top: 8%; padding-bottom: 40%\">+</p>"	n/a	"1314"	n/a	n/a	n/a	n/a	n/a	n/a	n/a	n/a	n/a
n/a	"image-keyboard-response"	"97"	"287854"	"0.0-4.0-2.0-1.22"	"6su1qc"	"657"	"1366"	"chrome"	"108.0.0"	"FALSE"	"Windows 10"	"60.64"	n/a	n/a	n/a	n/a	n/a	n/a	"Trial"	n/a	n/a	n/a	n/a	"NULL"	"NULL"	"NULL"	"552"	"stimuli/Ebbinghaus_-0.61429_0.21500.png"	"arrowleft"	n/a	"Ebbinghaus"	"arrowleft"	"1330"	"TRUE"	"Ebbinghaus"	"-0.614290000"	"0.2150000000"	"1"	"41"
n/a	"html-keyboard-response"	"98"	"289363"	"0.0-4.0-2.0-0.23"	"6su1qc"	"657"	"1366"	"chrome"	"108.0.0"	"FALSE"	"Windows 10"	"60.64"	n/a	n/a	n/a	n/a	n/a	n/a	"fixation"	n/a	n/a	n/a	n/a	"NULL"	"NULL"	"NULL"	n/a	"<p style=\"color: black; font-size: 80px; padding-left: 23%; padding-right: 32%; padding-top: 28%; padding-bottom: 16%\">+</p>"	n/a	"1489"	n/a	n/a	n/a	n/a	n/a	n/a	n/a	n/a	n/a
n/a	"image-keyboard-response"	"99"	"289822"	"0.0-4.0-2.0-1.23"	"6su1qc"	"657"	"1366"	"chrome"	"108.0.0"	"FALSE"	"Windows 10"	"60.64"	n/a	n/a	n/a	n/a	n/a	n/a	"Trial"	n/a	n/a	n/a	n/a	"NULL"	"NULL"	"NULL"	"459"	"stimuli/Ebbinghaus_0.10000_0.11071.png"	"arrowleft"	n/a	"Ebbinghaus"	"arrowleft"	"1509"	"TRUE"	"Ebbinghaus"	"0.1000000000"	"0.1107100000"	"1"	"42"
n/a	"html-keyboard-response"	"100"	"291326"	"0.0-4.0-2.0-0.24"	"6su1qc"	"657"	"1366"	"chrome"	"108.0.0"	"FALSE"	"Windows 10"	"60.64"	n/a	n/a	n/a	n/a	n/a	n/a	"fixation"	n/a	n/a	n/a	n/a	"NULL"	"NULL"	"NULL"	n/a	"<p style=\"color: black; font-size: 80px; padding-left: 24%; padding-right: 27%; padding-top: 45%; padding-bottom: 43%\">+</p>"	n/a	"1489"	n/a	n/a	n/a	n/a	n/a	n/a	n/a	n/a	n/a
n/a	"image-keyboard-response"	"101"	"291782"	"0.0-4.0-2.0-1.24"	"6su1qc"	"657"	"1366"	"chrome"	"108.0.0"	"FALSE"	"Windows 10"	"60.64"	n/a	n/a	n/a	n/a	n/a	n/a	"Trial"	n/a	n/a	n/a	n/a	"NULL"	"NULL"	"NULL"	"455"	"stimuli/Ebbinghaus_0.10000_-0.2800.png"	"arrowright"	n/a	"Ebbinghaus"	"arrowright"	"1504"	"TRUE"	"Ebbinghaus"	"0.1000000000"	"-0.280000000"	"1"	"43"
n/a	"html-keyboard-response"	"102"	"292814"	"0.0-4.0-2.0-0.25"	"6su1qc"	"657"	"1366"	"chrome"	"108.0.0"	"FALSE"	"Windows 10"	"60.64"	n/a	n/a	n/a	n/a	n/a	n/a	"fixation"	n/a	n/a	n/a	n/a	"NULL"	"NULL"	"NULL"	n/a	"<p style=\"color: black; font-size: 80px; padding-left: 2%; padding-right: 7%; padding-top: 29%; padding-bottom: 49%\">+</p>"	n/a	"1024"	n/a	n/a	n/a	n/a	n/a	n/a	n/a	n/a	n/a
n/a	"image-keyboard-response"	"103"	"293380"	"0.0-4.0-2.0-1.25"	"6su1qc"	"657"	"1366"	"chrome"	"108.0.0"	"FALSE"	"Windows 10"	"60.64"	n/a	n/a	n/a	n/a	n/a	n/a	"Trial"	n/a	n/a	n/a	n/a	"NULL"	"NULL"	"NULL"	"565"	"stimuli/Ebbinghaus_0.10000_0.21500.png"	"arrowleft"	n/a	"Ebbinghaus"	"arrowleft"	"1032"	"TRUE"	"Ebbinghaus"	"0.1000000000"	"0.2150000000"	"1"	"44"
n/a	"html-keyboard-response"	"104"	"294835"	"0.0-4.0-2.0-0.26"	"6su1qc"	"657"	"1366"	"chrome"	"108.0.0"	"FALSE"	"Windows 10"	"60.64"	n/a	n/a	n/a	n/a	n/a	n/a	"fixation"	n/a	n/a	n/a	n/a	"NULL"	"NULL"	"NULL"	n/a	"<p style=\"color: black; font-size: 80px; padding-left: 24%; padding-right: 11%; padding-top: 42%; padding-bottom: 7%\">+</p>"	n/a	"1435"	n/a	n/a	n/a	n/a	n/a	n/a	n/a	n/a	n/a
n/a	"image-keyboard-response"	"105"	"295247"	"0.0-4.0-2.0-1.26"	"6su1qc"	"657"	"1366"	"chrome"	"108.0.0"	"FALSE"	"Windows 10"	"60.64"	n/a	n/a	n/a	n/a	n/a	n/a	"Trial"	n/a	n/a	n/a	n/a	"NULL"	"NULL"	"NULL"	"410"	"stimuli/Ebbinghaus_-0.1000_-0.15857.png"	"arrowleft"	n/a	"Ebbinghaus"	"arrowright"	"1455"	"FALSE"	"Ebbinghaus"	"-0.100000000"	"-0.158570000"	"1"	"45"
n/a	"html-keyboard-response"	"106"	"296697"	"0.0-4.0-2.0-0.27"	"6su1qc"	"657"	"1366"	"chrome"	"108.0.0"	"FALSE"	"Windows 10"	"60.64"	n/a	n/a	n/a	n/a	n/a	n/a	"fixation"	n/a	n/a	n/a	n/a	"NULL"	"NULL"	"NULL"	n/a	"<p style=\"color: black; font-size: 80px; padding-left: 1%; padding-right: 18%; padding-top: 4%; padding-bottom: 23%\">+</p>"	n/a	"1435"	n/a	n/a	n/a	n/a	n/a	n/a	n/a	n/a	n/a
n/a	"image-keyboard-response"	"107"	"297400"	"0.0-4.0-2.0-1.27"	"6su1qc"	"657"	"1366"	"chrome"	"108.0.0"	"FALSE"	"Windows 10"	"60.64"	n/a	n/a	n/a	n/a	n/a	n/a	"Trial"	n/a	n/a	n/a	n/a	"NULL"	"NULL"	"NULL"	"701"	"stimuli/Ebbinghaus_-0.61429_0.11071.png"	"arrowleft"	n/a	"Ebbinghaus"	"arrowleft"	"1450"	"TRUE"	"Ebbinghaus"	"-0.614290000"	"0.1107100000"	"1"	"46"
n/a	"html-keyboard-response"	"108"	"298567"	"0.0-4.0-2.0-0.28"	"6su1qc"	"657"	"1366"	"chrome"	"108.0.0"	"FALSE"	"Windows 10"	"60.64"	n/a	n/a	n/a	n/a	n/a	n/a	"fixation"	n/a	n/a	n/a	n/a	"NULL"	"NULL"	"NULL"	n/a	"<p style=\"color: black; font-size: 80px; padding-left: 38%; padding-right: 8%; padding-top: 14%; padding-bottom: 31%\">+</p>"	n/a	"1143"	n/a	n/a	n/a	n/a	n/a	n/a	n/a	n/a	n/a
n/a	"image-keyboard-response"	"109"	"299253"	"0.0-4.0-2.0-1.28"	"6su1qc"	"657"	"1366"	"chrome"	"108.0.0"	"FALSE"	"Windows 10"	"60.64"	n/a	n/a	n/a	n/a	n/a	n/a	"Trial"	n/a	n/a	n/a	n/a	"NULL"	"NULL"	"NULL"	"686"	"stimuli/Ebbinghaus_0.61429_0.21500.png"	"arrowleft"	n/a	"Ebbinghaus"	"arrowleft"	"1167"	"TRUE"	"Ebbinghaus"	"0.6142900000"	"0.2150000000"	"1"	"47"
n/a	"html-keyboard-response"	"110"	"300465"	"0.0-4.0-2.0-0.29"	"6su1qc"	"657"	"1366"	"chrome"	"108.0.0"	"FALSE"	"Windows 10"	"60.64"	n/a	n/a	n/a	n/a	n/a	n/a	"fixation"	n/a	n/a	n/a	n/a	"NULL"	"NULL"	"NULL"	n/a	"<p style=\"color: black; font-size: 80px; padding-left: 47%; padding-right: 23%; padding-top: 22%; padding-bottom: 6%\">+</p>"	n/a	"1204"	n/a	n/a	n/a	n/a	n/a	n/a	n/a	n/a	n/a
n/a	"image-keyboard-response"	"111"	"301102"	"0.0-4.0-2.0-1.29"	"6su1qc"	"657"	"1366"	"chrome"	"108.0.0"	"FALSE"	"Windows 10"	"60.64"	n/a	n/a	n/a	n/a	n/a	n/a	"Trial"	n/a	n/a	n/a	n/a	"NULL"	"NULL"	"NULL"	"635"	"stimuli/Ebbinghaus_-0.1000_0.11071.png"	"arrowleft"	n/a	"Ebbinghaus"	"arrowleft"	"1212"	"TRUE"	"Ebbinghaus"	"-0.100000000"	"0.1107100000"	"1"	"48"
n/a	"html-keyboard-response"	"112"	"302301"	"0.0-4.0-2.0-0.30"	"6su1qc"	"657"	"1366"	"chrome"	"108.0.0"	"FALSE"	"Windows 10"	"60.64"	n/a	n/a	n/a	n/a	n/a	n/a	"fixation"	n/a	n/a	n/a	n/a	"NULL"	"NULL"	"NULL"	n/a	"<p style=\"color: black; font-size: 80px; padding-left: 12%; padding-right: 11%; padding-top: 36%; padding-bottom: 33%\">+</p>"	n/a	"1190"	n/a	n/a	n/a	n/a	n/a	n/a	n/a	n/a	n/a
n/a	"image-keyboard-response"	"113"	"302850"	"0.0-4.0-2.0-1.30"	"6su1qc"	"657"	"1366"	"chrome"	"108.0.0"	"FALSE"	"Windows 10"	"60.64"	n/a	n/a	n/a	n/a	n/a	n/a	"Trial"	n/a	n/a	n/a	n/a	"NULL"	"NULL"	"NULL"	"547"	"stimuli/Ebbinghaus_0.10000_0.28000.png"	"arrowleft"	n/a	"Ebbinghaus"	"arrowleft"	"1199"	"TRUE"	"Ebbinghaus"	"0.1000000000"	"0.2800000000"	"1"	"49"
n/a	"html-keyboard-response"	"114"	"304097"	"0.0-4.0-2.0-0.31"	"6su1qc"	"657"	"1366"	"chrome"	"108.0.0"	"FALSE"	"Windows 10"	"60.64"	n/a	n/a	n/a	n/a	n/a	n/a	"fixation"	n/a	n/a	n/a	n/a	"NULL"	"NULL"	"NULL"	n/a	"<p style=\"color: black; font-size: 80px; padding-left: 27%; padding-right: 12%; padding-top: 43%; padding-bottom: 5%\">+</p>"	n/a	"1229"	n/a	n/a	n/a	n/a	n/a	n/a	n/a	n/a	n/a
n/a	"image-keyboard-response"	"115"	"304820"	"0.0-4.0-2.0-1.31"	"6su1qc"	"657"	"1366"	"chrome"	"108.0.0"	"FALSE"	"Windows 10"	"60.64"	n/a	n/a	n/a	n/a	n/a	n/a	"Trial"	n/a	n/a	n/a	n/a	"NULL"	"NULL"	"NULL"	"723"	"stimuli/Ebbinghaus_-0.1000_-0.11071.png"	"arrowright"	n/a	"Ebbinghaus"	"arrowright"	"1247"	"TRUE"	"Ebbinghaus"	"-0.100000000"	"-0.110710000"	"1"	"50"
n/a	"html-keyboard-response"	"116"	"305988"	"0.0-4.0-2.0-0.32"	"6su1qc"	"657"	"1366"	"chrome"	"108.0.0"	"FALSE"	"Windows 10"	"60.64"	n/a	n/a	n/a	n/a	n/a	n/a	"fixation"	n/a	n/a	n/a	n/a	"NULL"	"NULL"	"NULL"	n/a	"<p style=\"color: black; font-size: 80px; padding-left: 47%; padding-right: 14%; padding-top: 37%; padding-bottom: 36%\">+</p>"	n/a	"1156"	n/a	n/a	n/a	n/a	n/a	n/a	n/a	n/a	n/a
n/a	"image-keyboard-response"	"117"	"306719"	"0.0-4.0-2.0-1.32"	"6su1qc"	"657"	"1366"	"chrome"	"108.0.0"	"FALSE"	"Windows 10"	"60.64"	n/a	n/a	n/a	n/a	n/a	n/a	"Trial"	n/a	n/a	n/a	n/a	"NULL"	"NULL"	"NULL"	"730"	"stimuli/Ebbinghaus_-0.35714_0.15857.png"	"arrowleft"	n/a	"Ebbinghaus"	"arrowleft"	"1168"	"TRUE"	"Ebbinghaus"	"-0.357140000"	"0.1585700000"	"1"	"51"
n/a	"html-keyboard-response"	"118"	"307746"	"0.0-4.0-2.0-0.33"	"6su1qc"	"657"	"1366"	"chrome"	"108.0.0"	"FALSE"	"Windows 10"	"60.64"	n/a	n/a	n/a	n/a	n/a	n/a	"fixation"	n/a	n/a	n/a	n/a	"NULL"	"NULL"	"NULL"	n/a	"<p style=\"color: black; font-size: 80px; padding-left: 10%; padding-right: 34%; padding-top: 19%; padding-bottom: 23%\">+</p>"	n/a	"1018"	n/a	n/a	n/a	n/a	n/a	n/a	n/a	n/a	n/a
n/a	"image-keyboard-response"	"119"	"308214"	"0.0-4.0-2.0-1.33"	"6su1qc"	"657"	"1366"	"chrome"	"108.0.0"	"FALSE"	"Windows 10"	"60.64"	n/a	n/a	n/a	n/a	n/a	n/a	"Trial"	n/a	n/a	n/a	n/a	"NULL"	"NULL"	"NULL"	"467"	"stimuli/Ebbinghaus_0.10000_-0.2150.png"	"arrowright"	n/a	"Ebbinghaus"	"arrowright"	"1027"	"TRUE"	"Ebbinghaus"	"0.1000000000"	"-0.215000000"	"1"	"52"
n/a	"html-keyboard-response"	"120"	"309586"	"0.0-4.0-2.0-0.34"	"6su1qc"	"657"	"1366"	"chrome"	"108.0.0"	"FALSE"	"Windows 10"	"60.64"	n/a	n/a	n/a	n/a	n/a	n/a	"fixation"	n/a	n/a	n/a	n/a	"NULL"	"NULL"	"NULL"	n/a	"<p style=\"color: black; font-size: 80px; padding-left: 18%; padding-right: 15%; padding-top: 38%; padding-bottom: 1%\">+</p>"	n/a	"1352"	n/a	n/a	n/a	n/a	n/a	n/a	n/a	n/a	n/a
n/a	"image-keyboard-response"	"121"	"310167"	"0.0-4.0-2.0-1.34"	"6su1qc"	"657"	"1366"	"chrome"	"108.0.0"	"FALSE"	"Windows 10"	"60.64"	n/a	n/a	n/a	n/a	n/a	n/a	"Trial"	n/a	n/a	n/a	n/a	"NULL"	"NULL"	"NULL"	"580"	"stimuli/Ebbinghaus_-0.35714_0.11071.png"	"arrowleft"	n/a	"Ebbinghaus"	"arrowleft"	"1372"	"TRUE"	"Ebbinghaus"	"-0.357140000"	"0.1107100000"	"1"	"53"
n/a	"html-keyboard-response"	"122"	"311177"	"0.0-4.0-2.0-0.35"	"6su1qc"	"657"	"1366"	"chrome"	"108.0.0"	"FALSE"	"Windows 10"	"60.64"	n/a	n/a	n/a	n/a	n/a	n/a	"fixation"	n/a	n/a	n/a	n/a	"NULL"	"NULL"	"NULL"	n/a	"<p style=\"color: black; font-size: 80px; padding-left: 24%; padding-right: 17%; padding-top: 3%; padding-bottom: 31%\">+</p>"	n/a	"1004"	n/a	n/a	n/a	n/a	n/a	n/a	n/a	n/a	n/a
n/a	"image-keyboard-response"	"123"	"311644"	"0.0-4.0-2.0-1.35"	"6su1qc"	"657"	"1366"	"chrome"	"108.0.0"	"FALSE"	"Windows 10"	"60.64"	n/a	n/a	n/a	n/a	n/a	n/a	"Trial"	n/a	n/a	n/a	n/a	"NULL"	"NULL"	"NULL"	"466"	"stimuli/Ebbinghaus_0.61429_0.28000.png"	"arrowleft"	n/a	"Ebbinghaus"	"arrowleft"	"1010"	"TRUE"	"Ebbinghaus"	"0.6142900000"	"0.2800000000"	"1"	"54"
n/a	"html-keyboard-response"	"124"	"313000"	"0.0-4.0-2.0-0.36"	"6su1qc"	"657"	"1366"	"chrome"	"108.0.0"	"FALSE"	"Windows 10"	"60.64"	n/a	n/a	n/a	n/a	n/a	n/a	"fixation"	n/a	n/a	n/a	n/a	"NULL"	"NULL"	"NULL"	n/a	"<p style=\"color: black; font-size: 80px; padding-left: 3%; padding-right: 14%; padding-top: 43%; padding-bottom: 30%\">+</p>"	n/a	"1338"	n/a	n/a	n/a	n/a	n/a	n/a	n/a	n/a	n/a
n/a	"image-keyboard-response"	"125"	"313610"	"0.0-4.0-2.0-1.36"	"6su1qc"	"657"	"1366"	"chrome"	"108.0.0"	"FALSE"	"Windows 10"	"60.64"	n/a	n/a	n/a	n/a	n/a	n/a	"Trial"	n/a	n/a	n/a	n/a	"NULL"	"NULL"	"NULL"	"609"	"stimuli/Ebbinghaus_0.10000_-0.15857.png"	"arrowright"	n/a	"Ebbinghaus"	"arrowright"	"1356"	"TRUE"	"Ebbinghaus"	"0.1000000000"	"-0.158570000"	"1"	"55"
n/a	"html-keyboard-response"	"126"	"314998"	"0.0-4.0-2.0-0.37"	"6su1qc"	"657"	"1366"	"chrome"	"108.0.0"	"FALSE"	"Windows 10"	"60.64"	n/a	n/a	n/a	n/a	n/a	n/a	"fixation"	n/a	n/a	n/a	n/a	"NULL"	"NULL"	"NULL"	n/a	"<p style=\"color: black; font-size: 80px; padding-left: 45%; padding-right: 0%; padding-top: 45%; padding-bottom: 27%\">+</p>"	n/a	"1375"	n/a	n/a	n/a	n/a	n/a	n/a	n/a	n/a	n/a
n/a	"image-keyboard-response"	"127"	"315339"	"0.0-4.0-2.0-1.37"	"6su1qc"	"657"	"1366"	"chrome"	"108.0.0"	"FALSE"	"Windows 10"	"60.64"	n/a	n/a	n/a	n/a	n/a	n/a	"Trial"	n/a	n/a	n/a	n/a	"NULL"	"NULL"	"NULL"	"340"	"stimuli/Ebbinghaus_-0.1000_0.28000.png"	"arrowleft"	n/a	"Ebbinghaus"	"arrowleft"	"1388"	"TRUE"	"Ebbinghaus"	"-0.100000000"	"0.2800000000"	"1"	"56"
n/a	"html-keyboard-response"	"128"	"316852"	"0.0-4.0-2.0-0.38"	"6su1qc"	"657"	"1366"	"chrome"	"108.0.0"	"FALSE"	"Windows 10"	"60.64"	n/a	n/a	n/a	n/a	n/a	n/a	"fixation"	n/a	n/a	n/a	n/a	"NULL"	"NULL"	"NULL"	n/a	"<p style=\"color: black; font-size: 80px; padding-left: 21%; padding-right: 38%; padding-top: 31%; padding-bottom: 25%\">+</p>"	n/a	"1498"	n/a	n/a	n/a	n/a	n/a	n/a	n/a	n/a	n/a
n/a	"image-keyboard-response"	"129"	"317290"	"0.0-4.0-2.0-1.38"	"6su1qc"	"657"	"1366"	"chrome"	"108.0.0"	"FALSE"	"Windows 10"	"60.64"	n/a	n/a	n/a	n/a	n/a	n/a	"Trial"	n/a	n/a	n/a	n/a	"NULL"	"NULL"	"NULL"	"437"	"stimuli/Ebbinghaus_0.87143_-0.11071.png"	"arrowright"	n/a	"Ebbinghaus"	"arrowright"	"1513"	"TRUE"	"Ebbinghaus"	"0.8714300000"	"-0.110710000"	"1"	"57"
n/a	"html-keyboard-response"	"130"	"318714"	"0.0-4.0-2.0-0.39"	"6su1qc"	"657"	"1366"	"chrome"	"108.0.0"	"FALSE"	"Windows 10"	"60.64"	n/a	n/a	n/a	n/a	n/a	n/a	"fixation"	n/a	n/a	n/a	n/a	"NULL"	"NULL"	"NULL"	n/a	"<p style=\"color: black; font-size: 80px; padding-left: 45%; padding-right: 38%; padding-top: 6%; padding-bottom: 18%\">+</p>"	n/a	"1408"	n/a	n/a	n/a	n/a	n/a	n/a	n/a	n/a	n/a
n/a	"image-keyboard-response"	"131"	"319335"	"0.0-4.0-2.0-1.39"	"6su1qc"	"657"	"1366"	"chrome"	"108.0.0"	"FALSE"	"Windows 10"	"60.64"	n/a	n/a	n/a	n/a	n/a	n/a	"Trial"	n/a	n/a	n/a	n/a	"NULL"	"NULL"	"NULL"	"620"	"stimuli/Ebbinghaus_0.35714_-0.2800.png"	"arrowright"	n/a	"Ebbinghaus"	"arrowright"	"1424"	"TRUE"	"Ebbinghaus"	"0.3571400000"	"-0.280000000"	"1"	"58"
n/a	"html-keyboard-response"	"132"	"320757"	"0.0-4.0-2.0-0.40"	"6su1qc"	"657"	"1366"	"chrome"	"108.0.0"	"FALSE"	"Windows 10"	"60.64"	n/a	n/a	n/a	n/a	n/a	n/a	"fixation"	n/a	n/a	n/a	n/a	"NULL"	"NULL"	"NULL"	n/a	"<p style=\"color: black; font-size: 80px; padding-left: 36%; padding-right: 29%; padding-top: 10%; padding-bottom: 32%\">+</p>"	n/a	"1403"	n/a	n/a	n/a	n/a	n/a	n/a	n/a	n/a	n/a
n/a	"image-keyboard-response"	"133"	"321305"	"0.0-4.0-2.0-1.40"	"6su1qc"	"657"	"1366"	"chrome"	"108.0.0"	"FALSE"	"Windows 10"	"60.64"	n/a	n/a	n/a	n/a	n/a	n/a	"Trial"	n/a	n/a	n/a	n/a	"NULL"	"NULL"	"NULL"	"547"	"stimuli/Ebbinghaus_0.87143_0.11071.png"	"arrowleft"	n/a	"Ebbinghaus"	"arrowleft"	"1422"	"TRUE"	"Ebbinghaus"	"0.8714300000"	"0.1107100000"	"1"	"59"
n/a	"html-keyboard-response"	"134"	"322513"	"0.0-4.0-2.0-0.41"	"6su1qc"	"657"	"1366"	"chrome"	"108.0.0"	"FALSE"	"Windows 10"	"60.64"	n/a	n/a	n/a	n/a	n/a	n/a	"fixation"	n/a	n/a	n/a	n/a	"NULL"	"NULL"	"NULL"	n/a	"<p style=\"color: black; font-size: 80px; padding-left: 27%; padding-right: 10%; padding-top: 38%; padding-bottom: 4%\">+</p>"	n/a	"1190"	n/a	n/a	n/a	n/a	n/a	n/a	n/a	n/a	n/a
n/a	"image-keyboard-response"	"135"	"323085"	"0.0-4.0-2.0-1.41"	"6su1qc"	"657"	"1366"	"chrome"	"108.0.0"	"FALSE"	"Windows 10"	"60.64"	n/a	n/a	n/a	n/a	n/a	n/a	"Trial"	n/a	n/a	n/a	n/a	"NULL"	"NULL"	"NULL"	"571"	"stimuli/Ebbinghaus_-0.87143_-0.2800.png"	"arrowright"	n/a	"Ebbinghaus"	"arrowright"	"1208"	"TRUE"	"Ebbinghaus"	"-0.871430000"	"-0.280000000"	"1"	"60"
n/a	"html-keyboard-response"	"136"	"324396"	"0.0-4.0-2.0-0.42"	"6su1qc"	"657"	"1366"	"chrome"	"108.0.0"	"FALSE"	"Windows 10"	"60.64"	n/a	n/a	n/a	n/a	n/a	n/a	"fixation"	n/a	n/a	n/a	n/a	"NULL"	"NULL"	"NULL"	n/a	"<p style=\"color: black; font-size: 80px; padding-left: 50%; padding-right: 25%; padding-top: 7%; padding-bottom: 19%\">+</p>"	n/a	"1295"	n/a	n/a	n/a	n/a	n/a	n/a	n/a	n/a	n/a
n/a	"image-keyboard-response"	"137"	"325103"	"0.0-4.0-2.0-1.42"	"6su1qc"	"657"	"1366"	"chrome"	"108.0.0"	"FALSE"	"Windows 10"	"60.64"	n/a	n/a	n/a	n/a	n/a	n/a	"Trial"	n/a	n/a	n/a	n/a	"NULL"	"NULL"	"NULL"	"706"	"stimuli/Ebbinghaus_0.61429_-0.2150.png"	"arrowleft"	n/a	"Ebbinghaus"	"arrowright"	"1311"	"FALSE"	"Ebbinghaus"	"0.6142900000"	"-0.215000000"	"1"	"61"
n/a	"html-keyboard-response"	"138"	"326542"	"0.0-4.0-2.0-0.43"	"6su1qc"	"657"	"1366"	"chrome"	"108.0.0"	"FALSE"	"Windows 10"	"60.64"	n/a	n/a	n/a	n/a	n/a	n/a	"fixation"	n/a	n/a	n/a	n/a	"NULL"	"NULL"	"NULL"	n/a	"<p style=\"color: black; font-size: 80px; padding-left: 28%; padding-right: 30%; padding-top: 43%; padding-bottom: 21%\">+</p>"	n/a	"1420"	n/a	n/a	n/a	n/a	n/a	n/a	n/a	n/a	n/a
n/a	"image-keyboard-response"	"139"	"327223"	"0.0-4.0-2.0-1.43"	"6su1qc"	"657"	"1366"	"chrome"	"108.0.0"	"FALSE"	"Windows 10"	"60.64"	n/a	n/a	n/a	n/a	n/a	n/a	"Trial"	n/a	n/a	n/a	n/a	"NULL"	"NULL"	"NULL"	"680"	"stimuli/Ebbinghaus_-0.35714_0.28000.png"	"arrowleft"	n/a	"Ebbinghaus"	"arrowleft"	"1439"	"TRUE"	"Ebbinghaus"	"-0.357140000"	"0.2800000000"	"1"	"62"
n/a	"html-keyboard-response"	"140"	"328692"	"0.0-4.0-2.0-0.44"	"6su1qc"	"657"	"1366"	"chrome"	"108.0.0"	"FALSE"	"Windows 10"	"60.64"	n/a	n/a	n/a	n/a	n/a	n/a	"fixation"	n/a	n/a	n/a	n/a	"NULL"	"NULL"	"NULL"	n/a	"<p style=\"color: black; font-size: 80px; padding-left: 21%; padding-right: 2%; padding-top: 34%; padding-bottom: 19%\">+</p>"	n/a	"1452"	n/a	n/a	n/a	n/a	n/a	n/a	n/a	n/a	n/a
n/a	"image-keyboard-response"	"141"	"329293"	"0.0-4.0-2.0-1.44"	"6su1qc"	"657"	"1366"	"chrome"	"108.0.0"	"FALSE"	"Windows 10"	"60.64"	n/a	n/a	n/a	n/a	n/a	n/a	"Trial"	n/a	n/a	n/a	n/a	"NULL"	"NULL"	"NULL"	"599"	"stimuli/Ebbinghaus_-0.87143_-0.11071.png"	"arrowright"	n/a	"Ebbinghaus"	"arrowright"	"1469"	"TRUE"	"Ebbinghaus"	"-0.871430000"	"-0.110710000"	"1"	"63"
n/a	"html-keyboard-response"	"142"	"330591"	"0.0-4.0-2.0-0.45"	"6su1qc"	"657"	"1366"	"chrome"	"108.0.0"	"FALSE"	"Windows 10"	"60.64"	n/a	n/a	n/a	n/a	n/a	n/a	"fixation"	n/a	n/a	n/a	n/a	"NULL"	"NULL"	"NULL"	n/a	"<p style=\"color: black; font-size: 80px; padding-left: 10%; padding-right: 39%; padding-top: 27%; padding-bottom: 36%\">+</p>"	n/a	"1277"	n/a	n/a	n/a	n/a	n/a	n/a	n/a	n/a	n/a
n/a	"image-keyboard-response"	"143"	"331421"	"0.0-4.0-2.0-1.45"	"6su1qc"	"657"	"1366"	"chrome"	"108.0.0"	"FALSE"	"Windows 10"	"60.64"	n/a	n/a	n/a	n/a	n/a	n/a	"Trial"	n/a	n/a	n/a	n/a	"NULL"	"NULL"	"NULL"	"829"	"stimuli/Ebbinghaus_0.35714_-0.2150.png"	"arrowleft"	n/a	"Ebbinghaus"	"arrowright"	"1298"	"FALSE"	"Ebbinghaus"	"0.3571400000"	"-0.215000000"	"1"	"64"
n/a	"html-keyboard-response"	"144"	"332741"	"0.0-4.0-2.0-0.46"	"6su1qc"	"657"	"1366"	"chrome"	"108.0.0"	"FALSE"	"Windows 10"	"60.64"	n/a	n/a	n/a	n/a	n/a	n/a	"fixation"	n/a	n/a	n/a	n/a	"NULL"	"NULL"	"NULL"	n/a	"<p style=\"color: black; font-size: 80px; padding-left: 17%; padding-right: 47%; padding-top: 27%; padding-bottom: 45%\">+</p>"	n/a	"1317"	n/a	n/a	n/a	n/a	n/a	n/a	n/a	n/a	n/a
n/a	"image-keyboard-response"	"145"	"333844"	"0.0-4.0-2.0-1.46"	"6su1qc"	"657"	"1366"	"chrome"	"108.0.0"	"FALSE"	"Windows 10"	"60.64"	n/a	n/a	n/a	n/a	n/a	n/a	"Trial"	n/a	n/a	n/a	n/a	"NULL"	"NULL"	"NULL"	"1102"	"stimuli/Ebbinghaus_0.35714_0.11071.png"	"arrowleft"	n/a	"Ebbinghaus"	"arrowleft"	"1320"	"TRUE"	"Ebbinghaus"	"0.3571400000"	"0.1107100000"	"1"	"65"
n/a	"html-keyboard-response"	"146"	"334860"	"0.0-4.0-2.0-0.47"	"6su1qc"	"657"	"1366"	"chrome"	"108.0.0"	"FALSE"	"Windows 10"	"60.64"	n/a	n/a	n/a	n/a	n/a	n/a	"fixation"	n/a	n/a	n/a	n/a	"NULL"	"NULL"	"NULL"	n/a	"<p style=\"color: black; font-size: 80px; padding-left: 41%; padding-right: 10%; padding-top: 50%; padding-bottom: 35%\">+</p>"	n/a	"1014"	n/a	n/a	n/a	n/a	n/a	n/a	n/a	n/a	n/a
n/a	"image-keyboard-response"	"147"	"335440"	"0.0-4.0-2.0-1.47"	"6su1qc"	"657"	"1366"	"chrome"	"108.0.0"	"FALSE"	"Windows 10"	"60.64"	n/a	n/a	n/a	n/a	n/a	n/a	"Trial"	n/a	n/a	n/a	n/a	"NULL"	"NULL"	"NULL"	"580"	"stimuli/Ebbinghaus_-0.87143_-0.15857.png"	"arrowright"	n/a	"Ebbinghaus"	"arrowright"	"1016"	"TRUE"	"Ebbinghaus"	"-0.871430000"	"-0.158570000"	"1"	"66"
n/a	"html-keyboard-response"	"148"	"336853"	"0.0-4.0-2.0-0.48"	"6su1qc"	"657"	"1366"	"chrome"	"108.0.0"	"FALSE"	"Windows 10"	"60.64"	n/a	n/a	n/a	n/a	n/a	n/a	"fixation"	n/a	n/a	n/a	n/a	"NULL"	"NULL"	"NULL"	n/a	"<p style=\"color: black; font-size: 80px; padding-left: 15%; padding-right: 30%; padding-top: 33%; padding-bottom: 34%\">+</p>"	n/a	"1402"	n/a	n/a	n/a	n/a	n/a	n/a	n/a	n/a	n/a
n/a	"image-keyboard-response"	"149"	"337885"	"0.0-4.0-2.0-1.48"	"6su1qc"	"657"	"1366"	"chrome"	"108.0.0"	"FALSE"	"Windows 10"	"60.64"	n/a	n/a	n/a	n/a	n/a	n/a	"Trial"	n/a	n/a	n/a	n/a	"NULL"	"NULL"	"NULL"	"1031"	"stimuli/Ebbinghaus_0.35714_0.15857.png"	"arrowleft"	n/a	"Ebbinghaus"	"arrowleft"	"1413"	"TRUE"	"Ebbinghaus"	"0.3571400000"	"0.1585700000"	"1"	"67"
n/a	"html-keyboard-response"	"150"	"339382"	"0.0-4.0-2.0-0.49"	"6su1qc"	"657"	"1366"	"chrome"	"108.0.0"	"FALSE"	"Windows 10"	"60.64"	n/a	n/a	n/a	n/a	n/a	n/a	"fixation"	n/a	n/a	n/a	n/a	"NULL"	"NULL"	"NULL"	n/a	"<p style=\"color: black; font-size: 80px; padding-left: 13%; padding-right: 25%; padding-top: 31%; padding-bottom: 2%\">+</p>"	n/a	"1483"	n/a	n/a	n/a	n/a	n/a	n/a	n/a	n/a	n/a
n/a	"image-keyboard-response"	"151"	"340384"	"0.0-4.0-2.0-1.49"	"6su1qc"	"657"	"1366"	"chrome"	"108.0.0"	"FALSE"	"Windows 10"	"60.64"	n/a	n/a	n/a	n/a	n/a	n/a	"Trial"	n/a	n/a	n/a	n/a	"NULL"	"NULL"	"NULL"	"1000"	"stimuli/Ebbinghaus_0.61429_-0.15857.png"	"arrowright"	n/a	"Ebbinghaus"	"arrowright"	"1497"	"TRUE"	"Ebbinghaus"	"0.6142900000"	"-0.158570000"	"1"	"68"
n/a	"html-keyboard-response"	"152"	"341570"	"0.0-4.0-2.0-0.50"	"6su1qc"	"657"	"1366"	"chrome"	"108.0.0"	"FALSE"	"Windows 10"	"60.64"	n/a	n/a	n/a	n/a	n/a	n/a	"fixation"	n/a	n/a	n/a	n/a	"NULL"	"NULL"	"NULL"	n/a	"<p style=\"color: black; font-size: 80px; padding-left: 43%; padding-right: 30%; padding-top: 2%; padding-bottom: 40%\">+</p>"	n/a	"1182"	n/a	n/a	n/a	n/a	n/a	n/a	n/a	n/a	n/a
n/a	"image-keyboard-response"	"153"	"342147"	"0.0-4.0-2.0-1.50"	"6su1qc"	"657"	"1366"	"chrome"	"108.0.0"	"FALSE"	"Windows 10"	"60.64"	n/a	n/a	n/a	n/a	n/a	n/a	"Trial"	n/a	n/a	n/a	n/a	"NULL"	"NULL"	"NULL"	"577"	"stimuli/Ebbinghaus_-0.61429_-0.2800.png"	"arrowright"	n/a	"Ebbinghaus"	"arrowright"	"1186"	"TRUE"	"Ebbinghaus"	"-0.614290000"	"-0.280000000"	"1"	"69"
n/a	"html-keyboard-response"	"154"	"343434"	"0.0-4.0-2.0-0.51"	"6su1qc"	"657"	"1366"	"chrome"	"108.0.0"	"FALSE"	"Windows 10"	"60.64"	n/a	n/a	n/a	n/a	n/a	n/a	"fixation"	n/a	n/a	n/a	n/a	"NULL"	"NULL"	"NULL"	n/a	"<p style=\"color: black; font-size: 80px; padding-left: 31%; padding-right: 27%; padding-top: 34%; padding-bottom: 14%\">+</p>"	n/a	"1275"	n/a	n/a	n/a	n/a	n/a	n/a	n/a	n/a	n/a
n/a	"image-keyboard-response"	"155"	"344088"	"0.0-4.0-2.0-1.51"	"6su1qc"	"657"	"1366"	"chrome"	"108.0.0"	"FALSE"	"Windows 10"	"60.64"	n/a	n/a	n/a	n/a	n/a	n/a	"Trial"	n/a	n/a	n/a	n/a	"NULL"	"NULL"	"NULL"	"653"	"stimuli/Ebbinghaus_-0.87143_0.21500.png"	"arrowleft"	n/a	"Ebbinghaus"	"arrowleft"	"1287"	"TRUE"	"Ebbinghaus"	"-0.871430000"	"0.2150000000"	"1"	"70"
n/a	"html-keyboard-response"	"156"	"345287"	"0.0-4.0-2.0-0.52"	"6su1qc"	"657"	"1366"	"chrome"	"108.0.0"	"FALSE"	"Windows 10"	"60.64"	n/a	n/a	n/a	n/a	n/a	n/a	"fixation"	n/a	n/a	n/a	n/a	"NULL"	"NULL"	"NULL"	n/a	"<p style=\"color: black; font-size: 80px; padding-left: 17%; padding-right: 43%; padding-top: 23%; padding-bottom: 15%\">+</p>"	n/a	"1190"	n/a	n/a	n/a	n/a	n/a	n/a	n/a	n/a	n/a
n/a	"image-keyboard-response"	"157"	"345861"	"0.0-4.0-2.0-1.52"	"6su1qc"	"657"	"1366"	"chrome"	"108.0.0"	"FALSE"	"Windows 10"	"60.64"	n/a	n/a	n/a	n/a	n/a	n/a	"Trial"	n/a	n/a	n/a	n/a	"NULL"	"NULL"	"NULL"	"573"	"stimuli/Ebbinghaus_-0.87143_-0.2150.png"	"arrowright"	n/a	"Ebbinghaus"	"arrowright"	"1199"	"TRUE"	"Ebbinghaus"	"-0.871430000"	"-0.215000000"	"1"	"71"
n/a	"html-keyboard-response"	"158"	"347195"	"0.0-4.0-2.0-0.53"	"6su1qc"	"657"	"1366"	"chrome"	"108.0.0"	"FALSE"	"Windows 10"	"60.64"	n/a	n/a	n/a	n/a	n/a	n/a	"fixation"	n/a	n/a	n/a	n/a	"NULL"	"NULL"	"NULL"	n/a	"<p style=\"color: black; font-size: 80px; padding-left: 10%; padding-right: 9%; padding-top: 36%; padding-bottom: 50%\">+</p>"	n/a	"1317"	n/a	n/a	n/a	n/a	n/a	n/a	n/a	n/a	n/a
n/a	"image-keyboard-response"	"159"	"347690"	"0.0-4.0-2.0-1.53"	"6su1qc"	"657"	"1366"	"chrome"	"108.0.0"	"FALSE"	"Windows 10"	"60.64"	n/a	n/a	n/a	n/a	n/a	n/a	"Trial"	n/a	n/a	n/a	n/a	"NULL"	"NULL"	"NULL"	"493"	"stimuli/Ebbinghaus_0.35714_0.28000.png"	"arrowleft"	n/a	"Ebbinghaus"	"arrowleft"	"1334"	"TRUE"	"Ebbinghaus"	"0.3571400000"	"0.2800000000"	"1"	"72"
n/a	"html-keyboard-response"	"160"	"349039"	"0.0-4.0-2.0-0.54"	"6su1qc"	"657"	"1366"	"chrome"	"108.0.0"	"FALSE"	"Windows 10"	"60.64"	n/a	n/a	n/a	n/a	n/a	n/a	"fixation"	n/a	n/a	n/a	n/a	"NULL"	"NULL"	"NULL"	n/a	"<p style=\"color: black; font-size: 80px; padding-left: 42%; padding-right: 19%; padding-top: 23%; padding-bottom: 49%\">+</p>"	n/a	"1336"	n/a	n/a	n/a	n/a	n/a	n/a	n/a	n/a	n/a
n/a	"image-keyboard-response"	"161"	"350060"	"0.0-4.0-2.0-1.54"	"6su1qc"	"657"	"1366"	"chrome"	"108.0.0"	"FALSE"	"Windows 10"	"60.64"	n/a	n/a	n/a	n/a	n/a	n/a	"Trial"	n/a	n/a	n/a	n/a	"NULL"	"NULL"	"NULL"	"1020"	"stimuli/Ebbinghaus_0.87143_0.21500.png"	"arrowleft"	n/a	"Ebbinghaus"	"arrowleft"	"1349"	"TRUE"	"Ebbinghaus"	"0.8714300000"	"0.2150000000"	"1"	"73"
n/a	"html-keyboard-response"	"162"	"351559"	"0.0-4.0-2.0-0.55"	"6su1qc"	"657"	"1366"	"chrome"	"108.0.0"	"FALSE"	"Windows 10"	"60.64"	n/a	n/a	n/a	n/a	n/a	n/a	"fixation"	n/a	n/a	n/a	n/a	"NULL"	"NULL"	"NULL"	n/a	"<p style=\"color: black; font-size: 80px; padding-left: 3%; padding-right: 13%; padding-top: 13%; padding-bottom: 39%\">+</p>"	n/a	"1480"	n/a	n/a	n/a	n/a	n/a	n/a	n/a	n/a	n/a
n/a	"image-keyboard-response"	"163"	"352068"	"0.0-4.0-2.0-1.55"	"6su1qc"	"657"	"1366"	"chrome"	"108.0.0"	"FALSE"	"Windows 10"	"60.64"	n/a	n/a	n/a	n/a	n/a	n/a	"Trial"	n/a	n/a	n/a	n/a	"NULL"	"NULL"	"NULL"	"508"	"stimuli/Ebbinghaus_-0.61429_-0.11071.png"	"arrowright"	n/a	"Ebbinghaus"	"arrowright"	"1499"	"TRUE"	"Ebbinghaus"	"-0.614290000"	"-0.110710000"	"1"	"74"
n/a	"html-keyboard-response"	"164"	"353221"	"0.0-4.0-2.0-0.56"	"6su1qc"	"657"	"1366"	"chrome"	"108.0.0"	"FALSE"	"Windows 10"	"60.64"	n/a	n/a	n/a	n/a	n/a	n/a	"fixation"	n/a	n/a	n/a	n/a	"NULL"	"NULL"	"NULL"	n/a	"<p style=\"color: black; font-size: 80px; padding-left: 32%; padding-right: 35%; padding-top: 36%; padding-bottom: 38%\">+</p>"	n/a	"1138"	n/a	n/a	n/a	n/a	n/a	n/a	n/a	n/a	n/a
n/a	"image-keyboard-response"	"165"	"353862"	"0.0-4.0-2.0-1.56"	"6su1qc"	"657"	"1366"	"chrome"	"108.0.0"	"FALSE"	"Windows 10"	"60.64"	n/a	n/a	n/a	n/a	n/a	n/a	"Trial"	n/a	n/a	n/a	n/a	"NULL"	"NULL"	"NULL"	"640"	"stimuli/Ebbinghaus_-0.35714_-0.11071.png"	"arrowright"	n/a	"Ebbinghaus"	"arrowright"	"1153"	"TRUE"	"Ebbinghaus"	"-0.357140000"	"-0.110710000"	"1"	"75"
n/a	"html-keyboard-response"	"166"	"355353"	"0.0-4.0-2.0-0.57"	"6su1qc"	"657"	"1366"	"chrome"	"108.0.0"	"FALSE"	"Windows 10"	"60.64"	n/a	n/a	n/a	n/a	n/a	n/a	"fixation"	n/a	n/a	n/a	n/a	"NULL"	"NULL"	"NULL"	n/a	"<p style=\"color: black; font-size: 80px; padding-left: 27%; padding-right: 5%; padding-top: 22%; padding-bottom: 36%\">+</p>"	n/a	"1478"	n/a	n/a	n/a	n/a	n/a	n/a	n/a	n/a	n/a
n/a	"image-keyboard-response"	"167"	"355918"	"0.0-4.0-2.0-1.57"	"6su1qc"	"657"	"1366"	"chrome"	"108.0.0"	"FALSE"	"Windows 10"	"60.64"	n/a	n/a	n/a	n/a	n/a	n/a	"Trial"	n/a	n/a	n/a	n/a	"NULL"	"NULL"	"NULL"	"563"	"stimuli/Ebbinghaus_-0.61429_0.28000.png"	"arrowleft"	n/a	"Ebbinghaus"	"arrowleft"	"1491"	"TRUE"	"Ebbinghaus"	"-0.614290000"	"0.2800000000"	"1"	"76"
n/a	"html-keyboard-response"	"168"	"357141"	"0.0-4.0-2.0-0.58"	"6su1qc"	"657"	"1366"	"chrome"	"108.0.0"	"FALSE"	"Windows 10"	"60.64"	n/a	n/a	n/a	n/a	n/a	n/a	"fixation"	n/a	n/a	n/a	n/a	"NULL"	"NULL"	"NULL"	n/a	"<p style=\"color: black; font-size: 80px; padding-left: 17%; padding-right: 49%; padding-top: 13%; padding-bottom: 0%\">+</p>"	n/a	"1218"	n/a	n/a	n/a	n/a	n/a	n/a	n/a	n/a	n/a
n/a	"image-keyboard-response"	"169"	"357677"	"0.0-4.0-2.0-1.58"	"6su1qc"	"657"	"1366"	"chrome"	"108.0.0"	"FALSE"	"Windows 10"	"60.64"	n/a	n/a	n/a	n/a	n/a	n/a	"Trial"	n/a	n/a	n/a	n/a	"NULL"	"NULL"	"NULL"	"535"	"stimuli/Ebbinghaus_-0.35714_-0.2800.png"	"arrowright"	n/a	"Ebbinghaus"	"arrowright"	"1223"	"TRUE"	"Ebbinghaus"	"-0.357140000"	"-0.280000000"	"1"	"77"
n/a	"html-keyboard-response"	"170"	"359161"	"0.0-4.0-2.0-0.59"	"6su1qc"	"657"	"1366"	"chrome"	"108.0.0"	"FALSE"	"Windows 10"	"60.64"	n/a	n/a	n/a	n/a	n/a	n/a	"fixation"	n/a	n/a	n/a	n/a	"NULL"	"NULL"	"NULL"	n/a	"<p style=\"color: black; font-size: 80px; padding-left: 32%; padding-right: 6%; padding-top: 4%; padding-bottom: 23%\">+</p>"	n/a	"1473"	n/a	n/a	n/a	n/a	n/a	n/a	n/a	n/a	n/a
n/a	"image-keyboard-response"	"171"	"360069"	"0.0-4.0-2.0-1.59"	"6su1qc"	"657"	"1366"	"chrome"	"108.0.0"	"FALSE"	"Windows 10"	"60.64"	n/a	n/a	n/a	n/a	n/a	n/a	"Trial"	n/a	n/a	n/a	n/a	"NULL"	"NULL"	"NULL"	"906"	"stimuli/Ebbinghaus_0.61429_0.11071.png"	"arrowleft"	n/a	"Ebbinghaus"	"arrowleft"	"1484"	"TRUE"	"Ebbinghaus"	"0.6142900000"	"0.1107100000"	"1"	"78"
n/a	"html-keyboard-response"	"172"	"361272"	"0.0-4.0-2.0-0.60"	"6su1qc"	"657"	"1366"	"chrome"	"108.0.0"	"FALSE"	"Windows 10"	"60.64"	n/a	n/a	n/a	n/a	n/a	n/a	"fixation"	n/a	n/a	n/a	n/a	"NULL"	"NULL"	"NULL"	n/a	"<p style=\"color: black; font-size: 80px; padding-left: 3%; padding-right: 14%; padding-top: 21%; padding-bottom: 30%\">+</p>"	n/a	"1195"	n/a	n/a	n/a	n/a	n/a	n/a	n/a	n/a	n/a
n/a	"image-keyboard-response"	"173"	"361818"	"0.0-4.0-2.0-1.60"	"6su1qc"	"657"	"1366"	"chrome"	"108.0.0"	"FALSE"	"Windows 10"	"60.64"	n/a	n/a	n/a	n/a	n/a	n/a	"Trial"	n/a	n/a	n/a	n/a	"NULL"	"NULL"	"NULL"	"546"	"stimuli/Ebbinghaus_-0.61429_-0.15857.png"	"arrowright"	n/a	"Ebbinghaus"	"arrowright"	"1203"	"TRUE"	"Ebbinghaus"	"-0.614290000"	"-0.158570000"	"1"	"79"
n/a	"html-keyboard-response"	"174"	"363210"	"0.0-4.0-2.0-0.61"	"6su1qc"	"657"	"1366"	"chrome"	"108.0.0"	"FALSE"	"Windows 10"	"60.64"	n/a	n/a	n/a	n/a	n/a	n/a	"fixation"	n/a	n/a	n/a	n/a	"NULL"	"NULL"	"NULL"	n/a	"<p style=\"color: black; font-size: 80px; padding-left: 17%; padding-right: 18%; padding-top: 1%; padding-bottom: 25%\">+</p>"	n/a	"1381"	n/a	n/a	n/a	n/a	n/a	n/a	n/a	n/a	n/a
n/a	"image-keyboard-response"	"175"	"363799"	"0.0-4.0-2.0-1.61"	"6su1qc"	"657"	"1366"	"chrome"	"108.0.0"	"FALSE"	"Windows 10"	"60.64"	n/a	n/a	n/a	n/a	n/a	n/a	"Trial"	n/a	n/a	n/a	n/a	"NULL"	"NULL"	"NULL"	"585"	"stimuli/Ebbinghaus_0.10000_-0.11071.png"	"arrowright"	n/a	"Ebbinghaus"	"arrowright"	"1392"	"TRUE"	"Ebbinghaus"	"0.1000000000"	"-0.110710000"	"1"	"80"
n/a	"html-keyboard-response"	"176"	"364937"	"0.0-4.0-2.0-0.62"	"6su1qc"	"657"	"1366"	"chrome"	"108.0.0"	"FALSE"	"Windows 10"	"60.64"	n/a	n/a	n/a	n/a	n/a	n/a	"fixation"	n/a	n/a	n/a	n/a	"NULL"	"NULL"	"NULL"	n/a	"<p style=\"color: black; font-size: 80px; padding-left: 2%; padding-right: 1%; padding-top: 45%; padding-bottom: 13%\">+</p>"	n/a	"1129"	n/a	n/a	n/a	n/a	n/a	n/a	n/a	n/a	n/a
n/a	"image-keyboard-response"	"177"	"365503"	"0.0-4.0-2.0-1.62"	"6su1qc"	"657"	"1366"	"chrome"	"108.0.0"	"FALSE"	"Windows 10"	"60.64"	n/a	n/a	n/a	n/a	n/a	n/a	"Trial"	n/a	n/a	n/a	n/a	"NULL"	"NULL"	"NULL"	"566"	"stimuli/Ebbinghaus_-0.87143_0.15857.png"	"arrowleft"	n/a	"Ebbinghaus"	"arrowleft"	"1138"	"TRUE"	"Ebbinghaus"	"-0.871430000"	"0.1585700000"	"1"	"81"
n/a	"html-keyboard-response"	"178"	"366934"	"0.0-4.0-2.0-0.63"	"6su1qc"	"657"	"1366"	"chrome"	"108.0.0"	"FALSE"	"Windows 10"	"60.64"	n/a	n/a	n/a	n/a	n/a	n/a	"fixation"	n/a	n/a	n/a	n/a	"NULL"	"NULL"	"NULL"	n/a	"<p style=\"color: black; font-size: 80px; padding-left: 17%; padding-right: 33%; padding-top: 2%; padding-bottom: 31%\">+</p>"	n/a	"1416"	n/a	n/a	n/a	n/a	n/a	n/a	n/a	n/a	n/a
n/a	"image-keyboard-response"	"179"	"367490"	"0.0-4.0-2.0-1.63"	"6su1qc"	"657"	"1366"	"chrome"	"108.0.0"	"FALSE"	"Windows 10"	"60.64"	n/a	n/a	n/a	n/a	n/a	n/a	"Trial"	n/a	n/a	n/a	n/a	"NULL"	"NULL"	"NULL"	"554"	"stimuli/Ebbinghaus_0.35714_-0.15857.png"	"arrowright"	n/a	"Ebbinghaus"	"arrowright"	"1431"	"TRUE"	"Ebbinghaus"	"0.3571400000"	"-0.158570000"	"1"	"82"
n/a	"html-button-response"	"180"	"390838"	"0.0-4.0-3.0"	"6su1qc"	"657"	"1366"	"chrome"	"108.0.0"	"FALSE"	"Windows 10"	"60.64"	n/a	n/a	n/a	n/a	n/a	n/a	"block_results"	n/a	n/a	n/a	n/a	"NULL"	"NULL"	"NULL"	"23342"	"<p>Your score for this illusion is <p style=\"color: black; font-size: 48px; font-weight: bold;\">81.7 %</p><hr><p>Can you do better in the next illusion?</p>"	"0"	n/a	n/a	n/a	n/a	n/a	n/a	n/a	n/a	n/a	n/a
"TRUE"	"preload"	"181"	"390988"	"0.0-5.0-0.0"	"6su1qc"	"657"	"1366"	"chrome"	"108.0.0"	"FALSE"	"Windows 10"	"60.64"	n/a	n/a	n/a	n/a	n/a	n/a	n/a	n/a	n/a	n/a	"FALSE"	"list()"	"list()"	"list()"	n/a	n/a	n/a	n/a	n/a	n/a	n/a	n/a	n/a	n/a	n/a	n/a	n/a
n/a	"html-keyboard-response"	"182"	"395425"	"0.0-5.0-1.0"	"6su1qc"	"657"	"1366"	"chrome"	"108.0.0"	"FALSE"	"Windows 10"	"60.64"	n/a	n/a	n/a	n/a	n/a	n/a	n/a	n/a	n/a	n/a	n/a	"NULL"	"NULL"	"NULL"	"4436"	"<p><b>Part 2/6</b></p><p>In this part, two red lines will appear side by side.</p><p>Your task is to tell <b>which line is longer</b> in length, regardless of their orientation, as fast as you can, and without making errors.</p><p>Don't get distracted by the orientation of the lines!</p><p>Press <b>the LEFT or the RIGHT arrow</b> to indicate which <b>line is the longer one.</b></p><div style='float: center'><img src='materials/instructions/VerticalHorizontal_Demo.png' height='300'></img><p><img src='utils/answer/answer_leftright_keyboard.PNG' height='150'></img></p><p class='small'>In this example, the correct answer is the <b>LEFT arrow</b>.</p></div><p>Are you ready? <b>Press ENTER to start</b></p>"	"enter"	n/a	n/a	n/a	n/a	n/a	n/a	n/a	n/a	n/a	n/a
n/a	"html-keyboard-response"	"183"	"397446"	"0.0-5.0-2.0-0.0"	"6su1qc"	"657"	"1366"	"chrome"	"108.0.0"	"FALSE"	"Windows 10"	"60.64"	n/a	n/a	n/a	n/a	n/a	n/a	"fixation"	n/a	n/a	n/a	n/a	"NULL"	"NULL"	"NULL"	n/a	"<p style=\"color: black; font-size: 80px; padding-left: 45%; padding-right: 35%; padding-top: 48%; padding-bottom: 19%\">+</p>"	n/a	"1497"	n/a	n/a	n/a	n/a	n/a	n/a	n/a	n/a	n/a
n/a	"image-keyboard-response"	"184"	"397905"	"0.0-5.0-2.0-1.0"	"6su1qc"	"657"	"1366"	"chrome"	"108.0.0"	"FALSE"	"Windows 10"	"60.64"	n/a	n/a	n/a	n/a	n/a	n/a	"Trial"	n/a	n/a	n/a	n/a	"NULL"	"NULL"	"NULL"	"458"	"stimuli/VerticalHorizontal_3.30000_-0.1096.png"	"arrowright"	n/a	"VerticalHorizontal"	"arrowright"	"2021"	"TRUE"	"VerticalHorizontal"	"3.3000000000"	"-0.109600000"	"2"	"1"
n/a	"html-keyboard-response"	"185"	"399081"	"0.0-5.0-2.0-0.1"	"6su1qc"	"657"	"1366"	"chrome"	"108.0.0"	"FALSE"	"Windows 10"	"60.64"	n/a	n/a	n/a	n/a	n/a	n/a	"fixation"	n/a	n/a	n/a	n/a	"NULL"	"NULL"	"NULL"	n/a	"<p style=\"color: black; font-size: 80px; padding-left: 9%; padding-right: 28%; padding-top: 38%; padding-bottom: 12%\">+</p>"	n/a	"1162"	n/a	n/a	n/a	n/a	n/a	n/a	n/a	n/a	n/a
n/a	"image-keyboard-response"	"186"	"399507"	"0.0-5.0-2.0-1.1"	"6su1qc"	"657"	"1366"	"chrome"	"108.0.0"	"FALSE"	"Windows 10"	"60.64"	n/a	n/a	n/a	n/a	n/a	n/a	"Trial"	n/a	n/a	n/a	n/a	"NULL"	"NULL"	"NULL"	"424"	"stimuli/VerticalHorizontal_28.75714_0.22500.png"	"arrowleft"	n/a	"VerticalHorizontal"	"arrowleft"	"1176"	"TRUE"	"VerticalHorizontal"	"28.757140000"	"0.2250000000"	"2"	"2"
n/a	"html-keyboard-response"	"187"	"401011"	"0.0-5.0-2.0-0.2"	"6su1qc"	"657"	"1366"	"chrome"	"108.0.0"	"FALSE"	"Windows 10"	"60.64"	n/a	n/a	n/a	n/a	n/a	n/a	"fixation"	n/a	n/a	n/a	n/a	"NULL"	"NULL"	"NULL"	n/a	"<p style=\"color: black; font-size: 80px; padding-left: 8%; padding-right: 42%; padding-top: 2%; padding-bottom: 37%\">+</p>"	n/a	"1488"	n/a	n/a	n/a	n/a	n/a	n/a	n/a	n/a	n/a
n/a	"image-keyboard-response"	"188"	"401455"	"0.0-5.0-2.0-1.2"	"6su1qc"	"657"	"1366"	"chrome"	"108.0.0"	"FALSE"	"Windows 10"	"60.64"	n/a	n/a	n/a	n/a	n/a	n/a	"Trial"	n/a	n/a	n/a	n/a	"NULL"	"NULL"	"NULL"	"443"	"stimuli/VerticalHorizontal_20.27143_-0.0673.png"	"arrowleft"	n/a	"VerticalHorizontal"	"arrowright"	"1504"	"FALSE"	"VerticalHorizontal"	"20.271430000"	"-0.067300000"	"2"	"3"
n/a	"html-keyboard-response"	"189"	"402619"	"0.0-5.0-2.0-0.3"	"6su1qc"	"657"	"1366"	"chrome"	"108.0.0"	"FALSE"	"Windows 10"	"60.64"	n/a	n/a	n/a	n/a	n/a	n/a	"fixation"	n/a	n/a	n/a	n/a	"NULL"	"NULL"	"NULL"	n/a	"<p style=\"color: black; font-size: 80px; padding-left: 24%; padding-right: 8%; padding-top: 13%; padding-bottom: 5%\">+</p>"	n/a	"1151"	n/a	n/a	n/a	n/a	n/a	n/a	n/a	n/a	n/a
n/a	"image-keyboard-response"	"190"	"403081"	"0.0-5.0-2.0-1.3"	"6su1qc"	"657"	"1366"	"chrome"	"108.0.0"	"FALSE"	"Windows 10"	"60.64"	n/a	n/a	n/a	n/a	n/a	n/a	"Trial"	n/a	n/a	n/a	n/a	"NULL"	"NULL"	"NULL"	"462"	"stimuli/VerticalHorizontal_11.78571_-0.1096.png"	"arrowleft"	n/a	"VerticalHorizontal"	"arrowright"	"1164"	"FALSE"	"VerticalHorizontal"	"11.785710000"	"-0.109600000"	"2"	"4"
n/a	"html-keyboard-response"	"191"	"404133"	"0.0-5.0-2.0-0.4"	"6su1qc"	"657"	"1366"	"chrome"	"108.0.0"	"FALSE"	"Windows 10"	"60.64"	n/a	n/a	n/a	n/a	n/a	n/a	"fixation"	n/a	n/a	n/a	n/a	"NULL"	"NULL"	"NULL"	n/a	"<p style=\"color: black; font-size: 80px; padding-left: 22%; padding-right: 31%; padding-top: 6%; padding-bottom: 35%\">+</p>"	n/a	"1047"	n/a	n/a	n/a	n/a	n/a	n/a	n/a	n/a	n/a
n/a	"image-keyboard-response"	"192"	"404624"	"0.0-5.0-2.0-1.4"	"6su1qc"	"657"	"1366"	"chrome"	"108.0.0"	"FALSE"	"Windows 10"	"60.64"	n/a	n/a	n/a	n/a	n/a	n/a	"Trial"	n/a	n/a	n/a	n/a	"NULL"	"NULL"	"NULL"	"490"	"stimuli/VerticalHorizontal_-3.3000_-0.16217.png"	"arrowright"	n/a	"VerticalHorizontal"	"arrowright"	"1052"	"TRUE"	"VerticalHorizontal"	"-3.300000000"	"-0.162170000"	"2"	"5"
n/a	"html-keyboard-response"	"193"	"405992"	"0.0-5.0-2.0-0.5"	"6su1qc"	"657"	"1366"	"chrome"	"108.0.0"	"FALSE"	"Windows 10"	"60.64"	n/a	n/a	n/a	n/a	n/a	n/a	"fixation"	n/a	n/a	n/a	n/a	"NULL"	"NULL"	"NULL"	n/a	"<p style=\"color: black; font-size: 80px; padding-left: 2%; padding-right: 41%; padding-top: 36%; padding-bottom: 12%\">+</p>"	n/a	"1354"	n/a	n/a	n/a	n/a	n/a	n/a	n/a	n/a	n/a
n/a	"image-keyboard-response"	"194"	"406442"	"0.0-5.0-2.0-1.5"	"6su1qc"	"657"	"1366"	"chrome"	"108.0.0"	"FALSE"	"Windows 10"	"60.64"	n/a	n/a	n/a	n/a	n/a	n/a	"Trial"	n/a	n/a	n/a	n/a	"NULL"	"NULL"	"NULL"	"450"	"stimuli/VerticalHorizontal_28.75714_-0.1096.png"	"arrowleft"	n/a	"VerticalHorizontal"	"arrowright"	"1368"	"FALSE"	"VerticalHorizontal"	"28.757140000"	"-0.109600000"	"2"	"6"
n/a	"html-keyboard-response"	"195"	"407461"	"0.0-5.0-2.0-0.6"	"6su1qc"	"657"	"1366"	"chrome"	"108.0.0"	"FALSE"	"Windows 10"	"60.64"	n/a	n/a	n/a	n/a	n/a	n/a	"fixation"	n/a	n/a	n/a	n/a	"NULL"	"NULL"	"NULL"	n/a	"<p style=\"color: black; font-size: 80px; padding-left: 13%; padding-right: 15%; padding-top: 36%; padding-bottom: 4%\">+</p>"	n/a	"1004"	n/a	n/a	n/a	n/a	n/a	n/a	n/a	n/a	n/a
n/a	"image-keyboard-response"	"196"	"408096"	"0.0-5.0-2.0-1.6"	"6su1qc"	"657"	"1366"	"chrome"	"108.0.0"	"FALSE"	"Windows 10"	"60.64"	n/a	n/a	n/a	n/a	n/a	n/a	"Trial"	n/a	n/a	n/a	n/a	"NULL"	"NULL"	"NULL"	"633"	"stimuli/VerticalHorizontal_20.27143_-0.2250.png"	"arrowright"	n/a	"VerticalHorizontal"	"arrowright"	"1019"	"TRUE"	"VerticalHorizontal"	"20.271430000"	"-0.225000000"	"2"	"7"
n/a	"html-keyboard-response"	"197"	"409524"	"0.0-5.0-2.0-0.7"	"6su1qc"	"657"	"1366"	"chrome"	"108.0.0"	"FALSE"	"Windows 10"	"60.64"	n/a	n/a	n/a	n/a	n/a	n/a	"fixation"	n/a	n/a	n/a	n/a	"NULL"	"NULL"	"NULL"	n/a	"<p style=\"color: black; font-size: 80px; padding-left: 4%; padding-right: 13%; padding-top: 17%; padding-bottom: 9%\">+</p>"	n/a	"1411"	n/a	n/a	n/a	n/a	n/a	n/a	n/a	n/a	n/a
n/a	"image-keyboard-response"	"198"	"409976"	"0.0-5.0-2.0-1.7"	"6su1qc"	"657"	"1366"	"chrome"	"108.0.0"	"FALSE"	"Windows 10"	"60.64"	n/a	n/a	n/a	n/a	n/a	n/a	"Trial"	n/a	n/a	n/a	n/a	"NULL"	"NULL"	"NULL"	"451"	"stimuli/VerticalHorizontal_-28.75714_-0.16217.png"	"arrowright"	n/a	"VerticalHorizontal"	"arrowright"	"1428"	"TRUE"	"VerticalHorizontal"	"-28.75714000"	"-0.162170000"	"2"	"8"
n/a	"html-keyboard-response"	"199"	"411369"	"0.0-5.0-2.0-0.8"	"6su1qc"	"657"	"1366"	"chrome"	"108.0.0"	"FALSE"	"Windows 10"	"60.64"	n/a	n/a	n/a	n/a	n/a	n/a	"fixation"	n/a	n/a	n/a	n/a	"NULL"	"NULL"	"NULL"	n/a	"<p style=\"color: black; font-size: 80px; padding-left: 9%; padding-right: 29%; padding-top: 20%; padding-bottom: 10%\">+</p>"	n/a	"1378"	n/a	n/a	n/a	n/a	n/a	n/a	n/a	n/a	n/a
n/a	"image-keyboard-response"	"200"	"411836"	"0.0-5.0-2.0-1.8"	"6su1qc"	"657"	"1366"	"chrome"	"108.0.0"	"FALSE"	"Windows 10"	"60.64"	n/a	n/a	n/a	n/a	n/a	n/a	"Trial"	n/a	n/a	n/a	n/a	"NULL"	"NULL"	"NULL"	"467"	"stimuli/VerticalHorizontal_-3.3000_0.16217.png"	"arrowleft"	n/a	"VerticalHorizontal"	"arrowleft"	"1393"	"TRUE"	"VerticalHorizontal"	"-3.300000000"	"0.1621700000"	"2"	"9"
n/a	"html-keyboard-response"	"201"	"412900"	"0.0-5.0-2.0-0.9"	"6su1qc"	"657"	"1366"	"chrome"	"108.0.0"	"FALSE"	"Windows 10"	"60.64"	n/a	n/a	n/a	n/a	n/a	n/a	"fixation"	n/a	n/a	n/a	n/a	"NULL"	"NULL"	"NULL"	n/a	"<p style=\"color: black; font-size: 80px; padding-left: 19%; padding-right: 3%; padding-top: 16%; padding-bottom: 26%\">+</p>"	n/a	"1053"	n/a	n/a	n/a	n/a	n/a	n/a	n/a	n/a	n/a
n/a	"image-keyboard-response"	"202"	"413378"	"0.0-5.0-2.0-1.9"	"6su1qc"	"657"	"1366"	"chrome"	"108.0.0"	"FALSE"	"Windows 10"	"60.64"	n/a	n/a	n/a	n/a	n/a	n/a	"Trial"	n/a	n/a	n/a	n/a	"NULL"	"NULL"	"NULL"	"476"	"stimuli/VerticalHorizontal_-28.75714_0.22500.png"	"arrowleft"	n/a	"VerticalHorizontal"	"arrowleft"	"1064"	"TRUE"	"VerticalHorizontal"	"-28.75714000"	"0.2250000000"	"2"	"10"
n/a	"html-keyboard-response"	"203"	"414556"	"0.0-5.0-2.0-0.10"	"6su1qc"	"657"	"1366"	"chrome"	"108.0.0"	"FALSE"	"Windows 10"	"60.64"	n/a	n/a	n/a	n/a	n/a	n/a	"fixation"	n/a	n/a	n/a	n/a	"NULL"	"NULL"	"NULL"	n/a	"<p style=\"color: black; font-size: 80px; padding-left: 37%; padding-right: 9%; padding-top: 18%; padding-bottom: 42%\">+</p>"	n/a	"1165"	n/a	n/a	n/a	n/a	n/a	n/a	n/a	n/a	n/a
n/a	"image-keyboard-response"	"204"	"415257"	"0.0-5.0-2.0-1.10"	"6su1qc"	"657"	"1366"	"chrome"	"108.0.0"	"FALSE"	"Windows 10"	"60.64"	n/a	n/a	n/a	n/a	n/a	n/a	"Trial"	n/a	n/a	n/a	n/a	"NULL"	"NULL"	"NULL"	"700"	"stimuli/VerticalHorizontal_-3.3000_0.22500.png"	"arrowleft"	n/a	"VerticalHorizontal"	"arrowleft"	"1178"	"TRUE"	"VerticalHorizontal"	"-3.300000000"	"0.2250000000"	"2"	"11"
n/a	"html-keyboard-response"	"205"	"416691"	"0.0-5.0-2.0-0.11"	"6su1qc"	"657"	"1366"	"chrome"	"108.0.0"	"FALSE"	"Windows 10"	"60.64"	n/a	n/a	n/a	n/a	n/a	n/a	"fixation"	n/a	n/a	n/a	n/a	"NULL"	"NULL"	"NULL"	n/a	"<p style=\"color: black; font-size: 80px; padding-left: 27%; padding-right: 19%; padding-top: 30%; padding-bottom: 4%\">+</p>"	n/a	"1418"	n/a	n/a	n/a	n/a	n/a	n/a	n/a	n/a	n/a
n/a	"image-keyboard-response"	"206"	"417124"	"0.0-5.0-2.0-1.11"	"6su1qc"	"657"	"1366"	"chrome"	"108.0.0"	"FALSE"	"Windows 10"	"60.64"	n/a	n/a	n/a	n/a	n/a	n/a	"Trial"	n/a	n/a	n/a	n/a	"NULL"	"NULL"	"NULL"	"432"	"stimuli/VerticalHorizontal_3.30000_0.10960.png"	"arrowleft"	n/a	"VerticalHorizontal"	"arrowleft"	"1434"	"TRUE"	"VerticalHorizontal"	"3.3000000000"	"0.1096000000"	"2"	"12"
n/a	"html-keyboard-response"	"207"	"418365"	"0.0-5.0-2.0-0.12"	"6su1qc"	"657"	"1366"	"chrome"	"108.0.0"	"FALSE"	"Windows 10"	"60.64"	n/a	n/a	n/a	n/a	n/a	n/a	"fixation"	n/a	n/a	n/a	n/a	"NULL"	"NULL"	"NULL"	n/a	"<p style=\"color: black; font-size: 80px; padding-left: 45%; padding-right: 4%; padding-top: 48%; padding-bottom: 44%\">+</p>"	n/a	"1223"	n/a	n/a	n/a	n/a	n/a	n/a	n/a	n/a	n/a
n/a	"image-keyboard-response"	"208"	"418768"	"0.0-5.0-2.0-1.12"	"6su1qc"	"657"	"1366"	"chrome"	"108.0.0"	"FALSE"	"Windows 10"	"60.64"	n/a	n/a	n/a	n/a	n/a	n/a	"Trial"	n/a	n/a	n/a	n/a	"NULL"	"NULL"	"NULL"	"402"	"stimuli/VerticalHorizontal_28.75714_0.16217.png"	"arrowright"	n/a	"VerticalHorizontal"	"arrowleft"	"1241"	"FALSE"	"VerticalHorizontal"	"28.757140000"	"0.1621700000"	"2"	"13"
n/a	"html-keyboard-response"	"209"	"420020"	"0.0-5.0-2.0-0.13"	"6su1qc"	"657"	"1366"	"chrome"	"108.0.0"	"FALSE"	"Windows 10"	"60.64"	n/a	n/a	n/a	n/a	n/a	n/a	"fixation"	n/a	n/a	n/a	n/a	"NULL"	"NULL"	"NULL"	n/a	"<p style=\"color: black; font-size: 80px; padding-left: 36%; padding-right: 37%; padding-top: 30%; padding-bottom: 18%\">+</p>"	n/a	"1235"	n/a	n/a	n/a	n/a	n/a	n/a	n/a	n/a	n/a
n/a	"image-keyboard-response"	"210"	"420460"	"0.0-5.0-2.0-1.13"	"6su1qc"	"657"	"1366"	"chrome"	"108.0.0"	"FALSE"	"Windows 10"	"60.64"	n/a	n/a	n/a	n/a	n/a	n/a	"Trial"	n/a	n/a	n/a	n/a	"NULL"	"NULL"	"NULL"	"439"	"stimuli/VerticalHorizontal_28.75714_-0.2250.png"	"arrowleft"	n/a	"VerticalHorizontal"	"arrowright"	"1252"	"FALSE"	"VerticalHorizontal"	"28.757140000"	"-0.225000000"	"2"	"14"
n/a	"html-keyboard-response"	"211"	"421605"	"0.0-5.0-2.0-0.14"	"6su1qc"	"657"	"1366"	"chrome"	"108.0.0"	"FALSE"	"Windows 10"	"60.64"	n/a	n/a	n/a	n/a	n/a	n/a	"fixation"	n/a	n/a	n/a	n/a	"NULL"	"NULL"	"NULL"	n/a	"<p style=\"color: black; font-size: 80px; padding-left: 41%; padding-right: 38%; padding-top: 19%; padding-bottom: 3%\">+</p>"	n/a	"1144"	n/a	n/a	n/a	n/a	n/a	n/a	n/a	n/a	n/a
n/a	"image-keyboard-response"	"212"	"422182"	"0.0-5.0-2.0-1.14"	"6su1qc"	"657"	"1366"	"chrome"	"108.0.0"	"FALSE"	"Windows 10"	"60.64"	n/a	n/a	n/a	n/a	n/a	n/a	"Trial"	n/a	n/a	n/a	n/a	"NULL"	"NULL"	"NULL"	"575"	"stimuli/VerticalHorizontal_-3.3000_-0.1096.png"	"arrowright"	n/a	"VerticalHorizontal"	"arrowright"	"1145"	"TRUE"	"VerticalHorizontal"	"-3.300000000"	"-0.109600000"	"2"	"15"
n/a	"html-keyboard-response"	"213"	"423561"	"0.0-5.0-2.0-0.15"	"6su1qc"	"657"	"1366"	"chrome"	"108.0.0"	"FALSE"	"Windows 10"	"60.64"	n/a	n/a	n/a	n/a	n/a	n/a	"fixation"	n/a	n/a	n/a	n/a	"NULL"	"NULL"	"NULL"	n/a	"<p style=\"color: black; font-size: 80px; padding-left: 30%; padding-right: 7%; padding-top: 21%; padding-bottom: 25%\">+</p>"	n/a	"1368"	n/a	n/a	n/a	n/a	n/a	n/a	n/a	n/a	n/a
n/a	"image-keyboard-response"	"214"	"423992"	"0.0-5.0-2.0-1.15"	"6su1qc"	"657"	"1366"	"chrome"	"108.0.0"	"FALSE"	"Windows 10"	"60.64"	n/a	n/a	n/a	n/a	n/a	n/a	"Trial"	n/a	n/a	n/a	n/a	"NULL"	"NULL"	"NULL"	"430"	"stimuli/VerticalHorizontal_-20.27143_-0.16217.png"	"arrowright"	n/a	"VerticalHorizontal"	"arrowright"	"1379"	"TRUE"	"VerticalHorizontal"	"-20.27143000"	"-0.162170000"	"2"	"16"
n/a	"html-keyboard-response"	"215"	"425052"	"0.0-5.0-2.0-0.16"	"6su1qc"	"657"	"1366"	"chrome"	"108.0.0"	"FALSE"	"Windows 10"	"60.64"	n/a	n/a	n/a	n/a	n/a	n/a	"fixation"	n/a	n/a	n/a	n/a	"NULL"	"NULL"	"NULL"	n/a	"<p style=\"color: black; font-size: 80px; padding-left: 7%; padding-right: 35%; padding-top: 14%; padding-bottom: 22%\">+</p>"	n/a	"1039"	n/a	n/a	n/a	n/a	n/a	n/a	n/a	n/a	n/a
n/a	"image-keyboard-response"	"216"	"425693"	"0.0-5.0-2.0-1.16"	"6su1qc"	"657"	"1366"	"chrome"	"108.0.0"	"FALSE"	"Windows 10"	"60.64"	n/a	n/a	n/a	n/a	n/a	n/a	"Trial"	n/a	n/a	n/a	n/a	"NULL"	"NULL"	"NULL"	"641"	"stimuli/VerticalHorizontal_20.27143_0.06730.png"	"arrowright"	n/a	"VerticalHorizontal"	"arrowleft"	"1060"	"FALSE"	"VerticalHorizontal"	"20.271430000"	"0.0673000000"	"2"	"17"
n/a	"html-keyboard-response"	"217"	"427013"	"0.0-5.0-2.0-0.17"	"6su1qc"	"657"	"1366"	"chrome"	"108.0.0"	"FALSE"	"Windows 10"	"60.64"	n/a	n/a	n/a	n/a	n/a	n/a	"fixation"	n/a	n/a	n/a	n/a	"NULL"	"NULL"	"NULL"	n/a	"<p style=\"color: black; font-size: 80px; padding-left: 36%; padding-right: 26%; padding-top: 36%; padding-bottom: 23%\">+</p>"	n/a	"1310"	n/a	n/a	n/a	n/a	n/a	n/a	n/a	n/a	n/a
n/a	"image-keyboard-response"	"218"	"427655"	"0.0-5.0-2.0-1.17"	"6su1qc"	"657"	"1366"	"chrome"	"108.0.0"	"FALSE"	"Windows 10"	"60.64"	n/a	n/a	n/a	n/a	n/a	n/a	"Trial"	n/a	n/a	n/a	n/a	"NULL"	"NULL"	"NULL"	"641"	"stimuli/VerticalHorizontal_-3.3000_0.06730.png"	"arrowleft"	n/a	"VerticalHorizontal"	"arrowleft"	"1320"	"TRUE"	"VerticalHorizontal"	"-3.300000000"	"0.0673000000"	"2"	"18"
n/a	"html-keyboard-response"	"219"	"428869"	"0.0-5.0-2.0-0.18"	"6su1qc"	"657"	"1366"	"chrome"	"108.0.0"	"FALSE"	"Windows 10"	"60.64"	n/a	n/a	n/a	n/a	n/a	n/a	"fixation"	n/a	n/a	n/a	n/a	"NULL"	"NULL"	"NULL"	n/a	"<p style=\"color: black; font-size: 80px; padding-left: 13%; padding-right: 43%; padding-top: 11%; padding-bottom: 9%\">+</p>"	n/a	"1209"	n/a	n/a	n/a	n/a	n/a	n/a	n/a	n/a	n/a
n/a	"image-keyboard-response"	"220"	"429355"	"0.0-5.0-2.0-1.18"	"6su1qc"	"657"	"1366"	"chrome"	"108.0.0"	"FALSE"	"Windows 10"	"60.64"	n/a	n/a	n/a	n/a	n/a	n/a	"Trial"	n/a	n/a	n/a	n/a	"NULL"	"NULL"	"NULL"	"485"	"stimuli/VerticalHorizontal_-20.27143_0.22500.png"	"arrowleft"	n/a	"VerticalHorizontal"	"arrowleft"	"1214"	"TRUE"	"VerticalHorizontal"	"-20.27143000"	"0.2250000000"	"2"	"19"
n/a	"html-keyboard-response"	"221"	"430799"	"0.0-5.0-2.0-0.19"	"6su1qc"	"657"	"1366"	"chrome"	"108.0.0"	"FALSE"	"Windows 10"	"60.64"	n/a	n/a	n/a	n/a	n/a	n/a	"fixation"	n/a	n/a	n/a	n/a	"NULL"	"NULL"	"NULL"	n/a	"<p style=\"color: black; font-size: 80px; padding-left: 4%; padding-right: 13%; padding-top: 21%; padding-bottom: 6%\">+</p>"	n/a	"1430"	n/a	n/a	n/a	n/a	n/a	n/a	n/a	n/a	n/a
n/a	"image-keyboard-response"	"222"	"431210"	"0.0-5.0-2.0-1.19"	"6su1qc"	"657"	"1366"	"chrome"	"108.0.0"	"FALSE"	"Windows 10"	"60.64"	n/a	n/a	n/a	n/a	n/a	n/a	"Trial"	n/a	n/a	n/a	n/a	"NULL"	"NULL"	"NULL"	"409"	"stimuli/VerticalHorizontal_-20.27143_0.16217.png"	"arrowleft"	n/a	"VerticalHorizontal"	"arrowleft"	"1444"	"TRUE"	"VerticalHorizontal"	"-20.27143000"	"0.1621700000"	"2"	"20"
n/a	"html-keyboard-response"	"223"	"432351"	"0.0-5.0-2.0-0.20"	"6su1qc"	"657"	"1366"	"chrome"	"108.0.0"	"FALSE"	"Windows 10"	"60.64"	n/a	n/a	n/a	n/a	n/a	n/a	"fixation"	n/a	n/a	n/a	n/a	"NULL"	"NULL"	"NULL"	n/a	"<p style=\"color: black; font-size: 80px; padding-left: 35%; padding-right: 16%; padding-top: 26%; padding-bottom: 9%\">+</p>"	n/a	"1129"	n/a	n/a	n/a	n/a	n/a	n/a	n/a	n/a	n/a
n/a	"image-keyboard-response"	"224"	"432823"	"0.0-5.0-2.0-1.20"	"6su1qc"	"657"	"1366"	"chrome"	"108.0.0"	"FALSE"	"Windows 10"	"60.64"	n/a	n/a	n/a	n/a	n/a	n/a	"Trial"	n/a	n/a	n/a	n/a	"NULL"	"NULL"	"NULL"	"471"	"stimuli/VerticalHorizontal_-11.78571_-0.16217.png"	"arrowright"	n/a	"VerticalHorizontal"	"arrowright"	"1141"	"TRUE"	"VerticalHorizontal"	"-11.78571000"	"-0.162170000"	"2"	"21"
n/a	"html-keyboard-response"	"225"	"434059"	"0.0-5.0-2.0-0.21"	"6su1qc"	"657"	"1366"	"chrome"	"108.0.0"	"FALSE"	"Windows 10"	"60.64"	n/a	n/a	n/a	n/a	n/a	n/a	"fixation"	n/a	n/a	n/a	n/a	"NULL"	"NULL"	"NULL"	n/a	"<p style=\"color: black; font-size: 80px; padding-left: 7%; padding-right: 46%; padding-top: 5%; padding-bottom: 30%\">+</p>"	n/a	"1231"	n/a	n/a	n/a	n/a	n/a	n/a	n/a	n/a	n/a
n/a	"image-keyboard-response"	"226"	"434657"	"0.0-5.0-2.0-1.21"	"6su1qc"	"657"	"1366"	"chrome"	"108.0.0"	"FALSE"	"Windows 10"	"60.64"	n/a	n/a	n/a	n/a	n/a	n/a	"Trial"	n/a	n/a	n/a	n/a	"NULL"	"NULL"	"NULL"	"597"	"stimuli/VerticalHorizontal_11.78571_-0.2250.png"	"arrowright"	n/a	"VerticalHorizontal"	"arrowright"	"1236"	"TRUE"	"VerticalHorizontal"	"11.785710000"	"-0.225000000"	"2"	"22"
n/a	"html-keyboard-response"	"227"	"435919"	"0.0-5.0-2.0-0.22"	"6su1qc"	"657"	"1366"	"chrome"	"108.0.0"	"FALSE"	"Windows 10"	"60.64"	n/a	n/a	n/a	n/a	n/a	n/a	"fixation"	n/a	n/a	n/a	n/a	"NULL"	"NULL"	"NULL"	n/a	"<p style=\"color: black; font-size: 80px; padding-left: 42%; padding-right: 25%; padding-top: 30%; padding-bottom: 3%\">+</p>"	n/a	"1244"	n/a	n/a	n/a	n/a	n/a	n/a	n/a	n/a	n/a
n/a	"image-keyboard-response"	"228"	"436821"	"0.0-5.0-2.0-1.22"	"6su1qc"	"657"	"1366"	"chrome"	"108.0.0"	"FALSE"	"Windows 10"	"60.64"	n/a	n/a	n/a	n/a	n/a	n/a	"Trial"	n/a	n/a	n/a	n/a	"NULL"	"NULL"	"NULL"	"901"	"stimuli/VerticalHorizontal_28.75714_0.06730.png"	"arrowright"	n/a	"VerticalHorizontal"	"arrowleft"	"1262"	"FALSE"	"VerticalHorizontal"	"28.757140000"	"0.0673000000"	"2"	"23"
n/a	"html-keyboard-response"	"229"	"437949"	"0.0-5.0-2.0-0.23"	"6su1qc"	"657"	"1366"	"chrome"	"108.0.0"	"FALSE"	"Windows 10"	"60.64"	n/a	n/a	n/a	n/a	n/a	n/a	"fixation"	n/a	n/a	n/a	n/a	"NULL"	"NULL"	"NULL"	n/a	"<p style=\"color: black; font-size: 80px; padding-left: 38%; padding-right: 37%; padding-top: 2%; padding-bottom: 4%\">+</p>"	n/a	"1117"	n/a	n/a	n/a	n/a	n/a	n/a	n/a	n/a	n/a
n/a	"image-keyboard-response"	"230"	"438411"	"0.0-5.0-2.0-1.23"	"6su1qc"	"657"	"1366"	"chrome"	"108.0.0"	"FALSE"	"Windows 10"	"60.64"	n/a	n/a	n/a	n/a	n/a	n/a	"Trial"	n/a	n/a	n/a	n/a	"NULL"	"NULL"	"NULL"	"462"	"stimuli/VerticalHorizontal_-20.27143_-0.0673.png"	"arrowright"	n/a	"VerticalHorizontal"	"arrowright"	"1128"	"TRUE"	"VerticalHorizontal"	"-20.27143000"	"-0.067300000"	"2"	"24"
n/a	"html-keyboard-response"	"231"	"439623"	"0.0-5.0-2.0-0.24"	"6su1qc"	"657"	"1366"	"chrome"	"108.0.0"	"FALSE"	"Windows 10"	"60.64"	n/a	n/a	n/a	n/a	n/a	n/a	"fixation"	n/a	n/a	n/a	n/a	"NULL"	"NULL"	"NULL"	n/a	"<p style=\"color: black; font-size: 80px; padding-left: 18%; padding-right: 7%; padding-top: 37%; padding-bottom: 27%\">+</p>"	n/a	"1203"	n/a	n/a	n/a	n/a	n/a	n/a	n/a	n/a	n/a
n/a	"image-keyboard-response"	"232"	"440182"	"0.0-5.0-2.0-1.24"	"6su1qc"	"657"	"1366"	"chrome"	"108.0.0"	"FALSE"	"Windows 10"	"60.64"	n/a	n/a	n/a	n/a	n/a	n/a	"Trial"	n/a	n/a	n/a	n/a	"NULL"	"NULL"	"NULL"	"557"	"stimuli/VerticalHorizontal_-11.78571_-0.1096.png"	"arrowright"	n/a	"VerticalHorizontal"	"arrowright"	"1212"	"TRUE"	"VerticalHorizontal"	"-11.78571000"	"-0.109600000"	"2"	"25"
n/a	"html-keyboard-response"	"233"	"441353"	"0.0-5.0-2.0-0.25"	"6su1qc"	"657"	"1366"	"chrome"	"108.0.0"	"FALSE"	"Windows 10"	"60.64"	n/a	n/a	n/a	n/a	n/a	n/a	"fixation"	n/a	n/a	n/a	n/a	"NULL"	"NULL"	"NULL"	n/a	"<p style=\"color: black; font-size: 80px; padding-left: 21%; padding-right: 41%; padding-top: 49%; padding-bottom: 19%\">+</p>"	n/a	"1163"	n/a	n/a	n/a	n/a	n/a	n/a	n/a	n/a	n/a
n/a	"image-keyboard-response"	"234"	"441827"	"0.0-5.0-2.0-1.25"	"6su1qc"	"657"	"1366"	"chrome"	"108.0.0"	"FALSE"	"Windows 10"	"60.64"	n/a	n/a	n/a	n/a	n/a	n/a	"Trial"	n/a	n/a	n/a	n/a	"NULL"	"NULL"	"NULL"	"473"	"stimuli/VerticalHorizontal_11.78571_-0.16217.png"	"arrowleft"	n/a	"VerticalHorizontal"	"arrowright"	"1171"	"FALSE"	"VerticalHorizontal"	"11.785710000"	"-0.162170000"	"2"	"26"
n/a	"html-keyboard-response"	"235"	"442983"	"0.0-5.0-2.0-0.26"	"6su1qc"	"657"	"1366"	"chrome"	"108.0.0"	"FALSE"	"Windows 10"	"60.64"	n/a	n/a	n/a	n/a	n/a	n/a	"fixation"	n/a	n/a	n/a	n/a	"NULL"	"NULL"	"NULL"	n/a	"<p style=\"color: black; font-size: 80px; padding-left: 49%; padding-right: 30%; padding-top: 14%; padding-bottom: 7%\">+</p>"	n/a	"1140"	n/a	n/a	n/a	n/a	n/a	n/a	n/a	n/a	n/a
n/a	"image-keyboard-response"	"236"	"443672"	"0.0-5.0-2.0-1.26"	"6su1qc"	"657"	"1366"	"chrome"	"108.0.0"	"FALSE"	"Windows 10"	"60.64"	n/a	n/a	n/a	n/a	n/a	n/a	"Trial"	n/a	n/a	n/a	n/a	"NULL"	"NULL"	"NULL"	"688"	"stimuli/VerticalHorizontal_20.27143_-0.16217.png"	"arrowright"	n/a	"VerticalHorizontal"	"arrowright"	"1156"	"TRUE"	"VerticalHorizontal"	"20.271430000"	"-0.162170000"	"2"	"27"
n/a	"html-keyboard-response"	"237"	"445071"	"0.0-5.0-2.0-0.27"	"6su1qc"	"657"	"1366"	"chrome"	"108.0.0"	"FALSE"	"Windows 10"	"60.64"	n/a	n/a	n/a	n/a	n/a	n/a	"fixation"	n/a	n/a	n/a	n/a	"NULL"	"NULL"	"NULL"	n/a	"<p style=\"color: black; font-size: 80px; padding-left: 12%; padding-right: 19%; padding-top: 44%; padding-bottom: 17%\">+</p>"	n/a	"1381"	n/a	n/a	n/a	n/a	n/a	n/a	n/a	n/a	n/a
n/a	"image-keyboard-response"	"238"	"445578"	"0.0-5.0-2.0-1.27"	"6su1qc"	"657"	"1366"	"chrome"	"108.0.0"	"FALSE"	"Windows 10"	"60.64"	n/a	n/a	n/a	n/a	n/a	n/a	"Trial"	n/a	n/a	n/a	n/a	"NULL"	"NULL"	"NULL"	"506"	"stimuli/VerticalHorizontal_-20.27143_0.10960.png"	"arrowleft"	n/a	"VerticalHorizontal"	"arrowleft"	"1399"	"TRUE"	"VerticalHorizontal"	"-20.27143000"	"0.1096000000"	"2"	"28"
n/a	"html-keyboard-response"	"239"	"447029"	"0.0-5.0-2.0-0.28"	"6su1qc"	"657"	"1366"	"chrome"	"108.0.0"	"FALSE"	"Windows 10"	"60.64"	n/a	n/a	n/a	n/a	n/a	n/a	"fixation"	n/a	n/a	n/a	n/a	"NULL"	"NULL"	"NULL"	n/a	"<p style=\"color: black; font-size: 80px; padding-left: 22%; padding-right: 13%; padding-top: 28%; padding-bottom: 35%\">+</p>"	n/a	"1443"	n/a	n/a	n/a	n/a	n/a	n/a	n/a	n/a	n/a
n/a	"image-keyboard-response"	"240"	"447653"	"0.0-5.0-2.0-1.28"	"6su1qc"	"657"	"1366"	"chrome"	"108.0.0"	"FALSE"	"Windows 10"	"60.64"	n/a	n/a	n/a	n/a	n/a	n/a	"Trial"	n/a	n/a	n/a	n/a	"NULL"	"NULL"	"NULL"	"623"	"stimuli/VerticalHorizontal_28.75714_-0.0673.png"	"arrowright"	n/a	"VerticalHorizontal"	"arrowright"	"1451"	"TRUE"	"VerticalHorizontal"	"28.757140000"	"-0.067300000"	"2"	"29"
n/a	"html-keyboard-response"	"241"	"448909"	"0.0-5.0-2.0-0.29"	"6su1qc"	"657"	"1366"	"chrome"	"108.0.0"	"FALSE"	"Windows 10"	"60.64"	n/a	n/a	n/a	n/a	n/a	n/a	"fixation"	n/a	n/a	n/a	n/a	"NULL"	"NULL"	"NULL"	n/a	"<p style=\"color: black; font-size: 80px; padding-left: 22%; padding-right: 28%; padding-top: 3%; padding-bottom: 38%\">+</p>"	n/a	"1245"	n/a	n/a	n/a	n/a	n/a	n/a	n/a	n/a	n/a
n/a	"image-keyboard-response"	"242"	"449389"	"0.0-5.0-2.0-1.29"	"6su1qc"	"657"	"1366"	"chrome"	"108.0.0"	"FALSE"	"Windows 10"	"60.64"	n/a	n/a	n/a	n/a	n/a	n/a	"Trial"	n/a	n/a	n/a	n/a	"NULL"	"NULL"	"NULL"	"478"	"stimuli/VerticalHorizontal_-28.75714_0.06730.png"	"arrowleft"	n/a	"VerticalHorizontal"	"arrowleft"	"1256"	"TRUE"	"VerticalHorizontal"	"-28.75714000"	"0.0673000000"	"2"	"30"
n/a	"html-keyboard-response"	"243"	"450589"	"0.0-5.0-2.0-0.30"	"6su1qc"	"657"	"1366"	"chrome"	"108.0.0"	"FALSE"	"Windows 10"	"60.64"	n/a	n/a	n/a	n/a	n/a	n/a	"fixation"	n/a	n/a	n/a	n/a	"NULL"	"NULL"	"NULL"	n/a	"<p style=\"color: black; font-size: 80px; padding-left: 13%; padding-right: 28%; padding-top: 2%; padding-bottom: 3%\">+</p>"	n/a	"1193"	n/a	n/a	n/a	n/a	n/a	n/a	n/a	n/a	n/a
n/a	"image-keyboard-response"	"244"	"451066"	"0.0-5.0-2.0-1.30"	"6su1qc"	"657"	"1366"	"chrome"	"108.0.0"	"FALSE"	"Windows 10"	"60.64"	n/a	n/a	n/a	n/a	n/a	n/a	"Trial"	n/a	n/a	n/a	n/a	"NULL"	"NULL"	"NULL"	"476"	"stimuli/VerticalHorizontal_20.27143_0.16217.png"	"arrowright"	n/a	"VerticalHorizontal"	"arrowleft"	"1200"	"FALSE"	"VerticalHorizontal"	"20.271430000"	"0.1621700000"	"2"	"31"
n/a	"html-keyboard-response"	"245"	"452096"	"0.0-5.0-2.0-0.31"	"6su1qc"	"657"	"1366"	"chrome"	"108.0.0"	"FALSE"	"Windows 10"	"60.64"	n/a	n/a	n/a	n/a	n/a	n/a	"fixation"	n/a	n/a	n/a	n/a	"NULL"	"NULL"	"NULL"	n/a	"<p style=\"color: black; font-size: 80px; padding-left: 16%; padding-right: 25%; padding-top: 48%; padding-bottom: 43%\">+</p>"	n/a	"1015"	n/a	n/a	n/a	n/a	n/a	n/a	n/a	n/a	n/a
n/a	"image-keyboard-response"	"246"	"452924"	"0.0-5.0-2.0-1.31"	"6su1qc"	"657"	"1366"	"chrome"	"108.0.0"	"FALSE"	"Windows 10"	"60.64"	n/a	n/a	n/a	n/a	n/a	n/a	"Trial"	n/a	n/a	n/a	n/a	"NULL"	"NULL"	"NULL"	"826"	"stimuli/VerticalHorizontal_3.30000_0.06730.png"	"arrowleft"	n/a	"VerticalHorizontal"	"arrowleft"	"1030"	"TRUE"	"VerticalHorizontal"	"3.3000000000"	"0.0673000000"	"2"	"32"
n/a	"html-keyboard-response"	"247"	"454225"	"0.0-5.0-2.0-0.32"	"6su1qc"	"657"	"1366"	"chrome"	"108.0.0"	"FALSE"	"Windows 10"	"60.64"	n/a	n/a	n/a	n/a	n/a	n/a	"fixation"	n/a	n/a	n/a	n/a	"NULL"	"NULL"	"NULL"	n/a	"<p style=\"color: black; font-size: 80px; padding-left: 11%; padding-right: 15%; padding-top: 8%; padding-bottom: 32%\">+</p>"	n/a	"1290"	n/a	n/a	n/a	n/a	n/a	n/a	n/a	n/a	n/a
n/a	"image-keyboard-response"	"248"	"454761"	"0.0-5.0-2.0-1.32"	"6su1qc"	"657"	"1366"	"chrome"	"108.0.0"	"FALSE"	"Windows 10"	"60.64"	n/a	n/a	n/a	n/a	n/a	n/a	"Trial"	n/a	n/a	n/a	n/a	"NULL"	"NULL"	"NULL"	"535"	"stimuli/VerticalHorizontal_-20.27143_0.06730.png"	"arrowleft"	n/a	"VerticalHorizontal"	"arrowleft"	"1301"	"TRUE"	"VerticalHorizontal"	"-20.27143000"	"0.0673000000"	"2"	"33"
n/a	"html-keyboard-response"	"249"	"455907"	"0.0-5.0-2.0-0.33"	"6su1qc"	"657"	"1366"	"chrome"	"108.0.0"	"FALSE"	"Windows 10"	"60.64"	n/a	n/a	n/a	n/a	n/a	n/a	"fixation"	n/a	n/a	n/a	n/a	"NULL"	"NULL"	"NULL"	n/a	"<p style=\"color: black; font-size: 80px; padding-left: 22%; padding-right: 23%; padding-top: 15%; padding-bottom: 42%\">+</p>"	n/a	"1140"	n/a	n/a	n/a	n/a	n/a	n/a	n/a	n/a	n/a
n/a	"image-keyboard-response"	"250"	"456451"	"0.0-5.0-2.0-1.33"	"6su1qc"	"657"	"1366"	"chrome"	"108.0.0"	"FALSE"	"Windows 10"	"60.64"	n/a	n/a	n/a	n/a	n/a	n/a	"Trial"	n/a	n/a	n/a	n/a	"NULL"	"NULL"	"NULL"	"539"	"stimuli/VerticalHorizontal_3.30000_-0.2250.png"	"arrowright"	n/a	"VerticalHorizontal"	"arrowright"	"1146"	"TRUE"	"VerticalHorizontal"	"3.3000000000"	"-0.225000000"	"2"	"34"
n/a	"html-keyboard-response"	"251"	"457692"	"0.0-5.0-2.0-0.34"	"6su1qc"	"657"	"1366"	"chrome"	"108.0.0"	"FALSE"	"Windows 10"	"60.64"	n/a	n/a	n/a	n/a	n/a	n/a	"fixation"	n/a	n/a	n/a	n/a	"NULL"	"NULL"	"NULL"	n/a	"<p style=\"color: black; font-size: 80px; padding-left: 20%; padding-right: 39%; padding-top: 15%; padding-bottom: 3%\">+</p>"	n/a	"1235"	n/a	n/a	n/a	n/a	n/a	n/a	n/a	n/a	n/a
n/a	"image-keyboard-response"	"252"	"458628"	"0.0-5.0-2.0-1.34"	"6su1qc"	"657"	"1366"	"chrome"	"108.0.0"	"FALSE"	"Windows 10"	"60.64"	n/a	n/a	n/a	n/a	n/a	n/a	"Trial"	n/a	n/a	n/a	n/a	"NULL"	"NULL"	"NULL"	"934"	"stimuli/VerticalHorizontal_20.27143_0.22500.png"	"arrowleft"	n/a	"VerticalHorizontal"	"arrowleft"	"1241"	"TRUE"	"VerticalHorizontal"	"20.271430000"	"0.2250000000"	"2"	"35"
n/a	"html-keyboard-response"	"253"	"460026"	"0.0-5.0-2.0-0.35"	"6su1qc"	"657"	"1366"	"chrome"	"108.0.0"	"FALSE"	"Windows 10"	"60.64"	n/a	n/a	n/a	n/a	n/a	n/a	"fixation"	n/a	n/a	n/a	n/a	"NULL"	"NULL"	"NULL"	n/a	"<p style=\"color: black; font-size: 80px; padding-left: 5%; padding-right: 1%; padding-top: 22%; padding-bottom: 41%\">+</p>"	n/a	"1395"	n/a	n/a	n/a	n/a	n/a	n/a	n/a	n/a	n/a
n/a	"image-keyboard-response"	"254"	"460547"	"0.0-5.0-2.0-1.35"	"6su1qc"	"657"	"1366"	"chrome"	"108.0.0"	"FALSE"	"Windows 10"	"60.64"	n/a	n/a	n/a	n/a	n/a	n/a	"Trial"	n/a	n/a	n/a	n/a	"NULL"	"NULL"	"NULL"	"520"	"stimuli/VerticalHorizontal_11.78571_0.22500.png"	"arrowleft"	n/a	"VerticalHorizontal"	"arrowleft"	"1398"	"TRUE"	"VerticalHorizontal"	"11.785710000"	"0.2250000000"	"2"	"36"
n/a	"html-keyboard-response"	"255"	"461715"	"0.0-5.0-2.0-0.36"	"6su1qc"	"657"	"1366"	"chrome"	"108.0.0"	"FALSE"	"Windows 10"	"60.64"	n/a	n/a	n/a	n/a	n/a	n/a	"fixation"	n/a	n/a	n/a	n/a	"NULL"	"NULL"	"NULL"	n/a	"<p style=\"color: black; font-size: 80px; padding-left: 27%; padding-right: 11%; padding-top: 4%; padding-bottom: 12%\">+</p>"	n/a	"1154"	n/a	n/a	n/a	n/a	n/a	n/a	n/a	n/a	n/a
