"success"	"trial_type"	"trial_index"	"time_elapsed"	"internal_node_id"	"participant_id"	"screen_height"	"screen_width"	"browser"	"browser_version"	"mobile"	"os"	"vsync_rate"	"subject_id"	"width"	"height"	"webaudio"	"fullscreen"	"webcam"	"microphone"	"screen"	"version"	"date"	"time"	"rt"	"response"	"timeout"	"failed_images"	"failed_audio"	"failed_video"	"stimulus"	"trial_duration"	"block"	"correct_response"	"prestimulus_duration"	"correct"	"type"	"illusion_strength"	"illusion_difference"	"block_number"	"trial_number"
"TRUE"	"fullscreen"	"0"	"1846"	"0.0-0.0"	"vetlbl"	"600"	"1366"	"chrome"	"108.0.0"	"FALSE"	"Windows 10"	"60.13"	"131"	n/a	n/a	n/a	n/a	n/a	n/a	n/a	n/a	n/a	n/a	n/a	"NULL"	n/a	"NULL"	"NULL"	"NULL"	n/a	n/a	n/a	n/a	n/a	n/a	n/a	n/a	n/a	n/a	n/a
n/a	"browser-check"	"1"	"2878"	"0.0-1.0"	"vetlbl"	"600"	"1366"	"chrome"	"108.0.0"	"FALSE"	"Windows 10"	"60.13"	"131"	"1366"	"600"	"TRUE"	"TRUE"	"TRUE"	"TRUE"	"browser_info"	"1.0"	"29/12/2022"	"17:17:50"	n/a	"NULL"	n/a	"NULL"	"NULL"	"NULL"	n/a	n/a	n/a	n/a	n/a	n/a	n/a	n/a	n/a	n/a	n/a
n/a	"survey-text"	"2"	"7402"	"0.0-2.0"	"vetlbl"	"600"	"1366"	"chrome"	"108.0.0"	"FALSE"	"Windows 10"	"60.13"	"131"	n/a	n/a	n/a	n/a	n/a	n/a	"subject_id"	n/a	n/a	n/a	"4519"	"list(subject_id = \"131\")"	n/a	"NULL"	"NULL"	"NULL"	n/a	n/a	n/a	n/a	n/a	n/a	n/a	n/a	n/a	n/a	n/a
"TRUE"	"preload"	"3"	"7414"	"0.0-3.0"	"vetlbl"	"600"	"1366"	"chrome"	"108.0.0"	"FALSE"	"Windows 10"	"60.13"	"131"	n/a	n/a	n/a	n/a	n/a	n/a	n/a	n/a	n/a	n/a	n/a	"NULL"	"FALSE"	"list()"	"list()"	"list()"	n/a	n/a	n/a	n/a	n/a	n/a	n/a	n/a	n/a	n/a	n/a
n/a	"html-button-response"	"4"	"83641"	"0.0-4.0-0.0"	"vetlbl"	"600"	"1366"	"chrome"	"108.0.0"	"FALSE"	"Windows 10"	"60.13"	"131"	n/a	n/a	n/a	n/a	n/a	n/a	"illusion_instructions"	n/a	n/a	n/a	"76225"	"0"	n/a	"NULL"	"NULL"	"NULL"	"<p><b>Illusion Game</b></p><p>In this game of speed and reflex, you will need to make <b>visual judgments</b> (for instance, which circle is the biggest, or which line is the longest), as fast and as correctly as possible, while <b>resisting different visual illusions</b>.</p><p>We are going to start with some examples of all the illusions you will encounter in the game.</p>"	n/a	n/a	n/a	n/a	n/a	n/a	n/a	n/a	n/a	n/a
"TRUE"	"preload"	"5"	"83658"	"0.0-4.0-1.0-0.0"	"vetlbl"	"600"	"1366"	"chrome"	"108.0.0"	"FALSE"	"Windows 10"	"60.13"	"131"	n/a	n/a	n/a	n/a	n/a	n/a	n/a	n/a	n/a	n/a	n/a	"NULL"	"FALSE"	"list()"	"list()"	"list()"	n/a	n/a	n/a	n/a	n/a	n/a	n/a	n/a	n/a	n/a	n/a
n/a	"html-keyboard-response"	"6"	"114756"	"0.0-4.0-1.0-1.0"	"vetlbl"	"600"	"1366"	"chrome"	"108.0.0"	"FALSE"	"Windows 10"	"60.13"	"131"	n/a	n/a	n/a	n/a	n/a	n/a	n/a	n/a	n/a	n/a	"31096"	"enter"	n/a	"NULL"	"NULL"	"NULL"	"<p><b>Practice</b></p><p>In this part, two red circles will appear side by side on the screen.</p><p>Your task is to select which <b>red circle is bigger</b> in size as fast as you can, without making errors.</p><p>Don't get distracted by the surrounding black circles around the red circles!</p><p>Press <b>the LEFT or the RIGHT arrow</b> to indicate which is the bigger <b>red circle.</b></p><div style='float: center'><img src='materials/instructions/Ebbinghaus_Demo.png' height='300'></img><p><img src='utils/answer/answer_leftright_keyboard.PNG' height='150'></img></p><p class='small'>In this example, the correct answer is the <b>LEFT arrow</b>.</p></div><p>Are you ready? <b>Press ENTER to start</b></p>"	n/a	n/a	n/a	n/a	n/a	n/a	n/a	n/a	n/a	n/a
n/a	"html-keyboard-response"	"7"	"116659"	"0.0-4.0-1.0-2.0-0.0"	"vetlbl"	"600"	"1366"	"chrome"	"108.0.0"	"FALSE"	"Windows 10"	"60.13"	"131"	n/a	n/a	n/a	n/a	n/a	n/a	"fixation"	n/a	n/a	n/a	n/a	"NULL"	n/a	"NULL"	"NULL"	"NULL"	"<p style=\"color: black; font-size: 80px; padding-left: 20%; padding-right: 42%; padding-top: 31%; padding-bottom: 21%\">+</p>"	"1385"	n/a	n/a	n/a	n/a	n/a	n/a	n/a	n/a	n/a
n/a	"image-keyboard-response"	"8"	"117545"	"0.0-4.0-1.0-2.0-1.0"	"vetlbl"	"600"	"1366"	"chrome"	"108.0.0"	"FALSE"	"Windows 10"	"60.13"	"131"	n/a	n/a	n/a	n/a	n/a	n/a	"Trial"	n/a	n/a	n/a	"844"	"arrowright"	n/a	"NULL"	"NULL"	"NULL"	"stimuli/Ebbinghaus_0000000_-1.4000.png"	n/a	"Ebbinghaus"	"arrowright"	"1903"	"TRUE"	"Ebbinghaus"	"000000000000"	"-1.400000000"	"1"	"1"
n/a	"html-keyboard-response"	"9"	"118571"	"0.0-4.0-1.0-2.0-0.1"	"vetlbl"	"600"	"1366"	"chrome"	"108.0.0"	"FALSE"	"Windows 10"	"60.13"	"131"	n/a	n/a	n/a	n/a	n/a	n/a	"fixation"	n/a	n/a	n/a	n/a	"NULL"	n/a	"NULL"	"NULL"	"NULL"	"<p style=\"color: black; font-size: 80px; padding-left: 32%; padding-right: 0%; padding-top: 14%; padding-bottom: 1%\">+</p>"	"1018"	n/a	n/a	n/a	n/a	n/a	n/a	n/a	n/a	n/a
n/a	"image-keyboard-response"	"10"	"119074"	"0.0-4.0-1.0-2.0-1.1"	"vetlbl"	"600"	"1366"	"chrome"	"108.0.0"	"FALSE"	"Windows 10"	"60.13"	"131"	n/a	n/a	n/a	n/a	n/a	n/a	"Trial"	n/a	n/a	n/a	"502"	"arrowright"	n/a	"NULL"	"NULL"	"NULL"	"stimuli/Ebbinghaus_-100000_-1.4000.png"	n/a	"Ebbinghaus"	"arrowright"	"1026"	"TRUE"	"Ebbinghaus"	"-10000000000"	"-1.400000000"	"1"	"2"
n/a	"html-keyboard-response"	"11"	"120422"	"0.0-4.0-1.0-2.0-0.2"	"vetlbl"	"600"	"1366"	"chrome"	"108.0.0"	"FALSE"	"Windows 10"	"60.13"	"131"	n/a	n/a	n/a	n/a	n/a	n/a	"fixation"	n/a	n/a	n/a	n/a	"NULL"	n/a	"NULL"	"NULL"	"NULL"	"<p style=\"color: black; font-size: 80px; padding-left: 29%; padding-right: 37%; padding-top: 47%; padding-bottom: 13%\">+</p>"	"1329"	n/a	n/a	n/a	n/a	n/a	n/a	n/a	n/a	n/a
n/a	"image-keyboard-response"	"12"	"120861"	"0.0-4.0-1.0-2.0-1.2"	"vetlbl"	"600"	"1366"	"chrome"	"108.0.0"	"FALSE"	"Windows 10"	"60.13"	"131"	n/a	n/a	n/a	n/a	n/a	n/a	"Trial"	n/a	n/a	n/a	"438"	"arrowleft"	n/a	"NULL"	"NULL"	"NULL"	"stimuli/Ebbinghaus_0000000_1.40000.png"	n/a	"Ebbinghaus"	"arrowleft"	"1348"	"TRUE"	"Ebbinghaus"	"000000000000"	"1.4000000000"	"1"	"3"
n/a	"html-keyboard-response"	"13"	"122329"	"0.0-4.0-1.0-2.0-0.3"	"vetlbl"	"600"	"1366"	"chrome"	"108.0.0"	"FALSE"	"Windows 10"	"60.13"	"131"	n/a	n/a	n/a	n/a	n/a	n/a	"fixation"	n/a	n/a	n/a	n/a	"NULL"	n/a	"NULL"	"NULL"	"NULL"	"<p style=\"color: black; font-size: 80px; padding-left: 3%; padding-right: 42%; padding-top: 41%; padding-bottom: 30%\">+</p>"	"1452"	n/a	n/a	n/a	n/a	n/a	n/a	n/a	n/a	n/a
n/a	"image-keyboard-response"	"14"	"122735"	"0.0-4.0-1.0-2.0-1.3"	"vetlbl"	"600"	"1366"	"chrome"	"108.0.0"	"FALSE"	"Windows 10"	"60.13"	"131"	n/a	n/a	n/a	n/a	n/a	n/a	"Trial"	n/a	n/a	n/a	"405"	"arrowright"	n/a	"NULL"	"NULL"	"NULL"	"stimuli/Ebbinghaus_1000000_-1.4000.png"	n/a	"Ebbinghaus"	"arrowright"	"1468"	"TRUE"	"Ebbinghaus"	"100000000000"	"-1.400000000"	"1"	"4"
n/a	"html-keyboard-response"	"15"	"124191"	"0.0-4.0-1.0-2.0-0.4"	"vetlbl"	"600"	"1366"	"chrome"	"108.0.0"	"FALSE"	"Windows 10"	"60.13"	"131"	n/a	n/a	n/a	n/a	n/a	n/a	"fixation"	n/a	n/a	n/a	n/a	"NULL"	n/a	"NULL"	"NULL"	"NULL"	"<p style=\"color: black; font-size: 80px; padding-left: 43%; padding-right: 16%; padding-top: 37%; padding-bottom: 46%\">+</p>"	"1444"	n/a	n/a	n/a	n/a	n/a	n/a	n/a	n/a	n/a
n/a	"image-keyboard-response"	"16"	"124614"	"0.0-4.0-1.0-2.0-1.4"	"vetlbl"	"600"	"1366"	"chrome"	"108.0.0"	"FALSE"	"Windows 10"	"60.13"	"131"	n/a	n/a	n/a	n/a	n/a	n/a	"Trial"	n/a	n/a	n/a	"421"	"arrowleft"	n/a	"NULL"	"NULL"	"NULL"	"stimuli/Ebbinghaus_-100000_1.40000.png"	n/a	"Ebbinghaus"	"arrowleft"	"1456"	"TRUE"	"Ebbinghaus"	"-10000000000"	"1.4000000000"	"1"	"5"
n/a	"html-keyboard-response"	"17"	"125740"	"0.0-4.0-1.0-2.0-0.5"	"vetlbl"	"600"	"1366"	"chrome"	"108.0.0"	"FALSE"	"Windows 10"	"60.13"	"131"	n/a	n/a	n/a	n/a	n/a	n/a	"fixation"	n/a	n/a	n/a	n/a	"NULL"	n/a	"NULL"	"NULL"	"NULL"	"<p style=\"color: black; font-size: 80px; padding-left: 20%; padding-right: 28%; padding-top: 41%; padding-bottom: 7%\">+</p>"	"1107"	n/a	n/a	n/a	n/a	n/a	n/a	n/a	n/a	n/a
n/a	"image-keyboard-response"	"18"	"126186"	"0.0-4.0-1.0-2.0-1.5"	"vetlbl"	"600"	"1366"	"chrome"	"108.0.0"	"FALSE"	"Windows 10"	"60.13"	"131"	n/a	n/a	n/a	n/a	n/a	n/a	"Trial"	n/a	n/a	n/a	"445"	"arrowleft"	n/a	"NULL"	"NULL"	"NULL"	"stimuli/Ebbinghaus_1000000_1.40000.png"	n/a	"Ebbinghaus"	"arrowleft"	"1126"	"TRUE"	"Ebbinghaus"	"100000000000"	"1.4000000000"	"1"	"6"
n/a	"html-button-response"	"19"	"130973"	"0.0-4.0-1.0-3.0"	"vetlbl"	"600"	"1366"	"chrome"	"108.0.0"	"FALSE"	"Windows 10"	"60.13"	"131"	n/a	n/a	n/a	n/a	n/a	n/a	"practice_block_results"	n/a	n/a	n/a	"4778"	"0"	n/a	"NULL"	"NULL"	"NULL"	"<p style='color:rgb(76,175,80);'> Correct Responses: <b>100.00%</b></p><hr><p style='color:rgb(233,30,99);'> Average Response Time: <b>509.17</b> ms.</p>"	n/a	n/a	n/a	n/a	n/a	n/a	n/a	n/a	n/a	n/a
"TRUE"	"preload"	"20"	"131507"	"0.0-4.0-2.0-0.0"	"vetlbl"	"600"	"1366"	"chrome"	"108.0.0"	"FALSE"	"Windows 10"	"60.13"	"131"	n/a	n/a	n/a	n/a	n/a	n/a	n/a	n/a	n/a	n/a	n/a	"NULL"	"FALSE"	"list()"	"list()"	"list()"	n/a	n/a	n/a	n/a	n/a	n/a	n/a	n/a	n/a	n/a	n/a
n/a	"html-keyboard-response"	"21"	"150373"	"0.0-4.0-2.0-1.0"	"vetlbl"	"600"	"1366"	"chrome"	"108.0.0"	"FALSE"	"Windows 10"	"60.13"	"131"	n/a	n/a	n/a	n/a	n/a	n/a	n/a	n/a	n/a	n/a	"18865"	"enter"	n/a	"NULL"	"NULL"	"NULL"	"<p><b>Practice</b></p><p>In this part, two horizontal red lines will appear one above the other.</p><p>Your task is to select which <b>line is longer</b> in length as fast as you can, without making errors.</p><p>Don't get distracted by the surrounding black arrows at the end of the red lines!</p><p>Press <b>the UP or the DOWN arrow</b> to indicate where is the longer <b>red line.</b></p><div style='float: center'><img src='materials/instructions/MullerLyer_Demo.png' height='300'></img><p><img src='utils/answer/answer_updown_keyboard.PNG' height='150'></img></p><p class='small'>In this example, the correct answer is the <b>UP arrow</b>.</p></div><p>Are you ready? <b>Press ENTER to start</b></p>"	n/a	n/a	n/a	n/a	n/a	n/a	n/a	n/a	n/a	n/a
n/a	"html-keyboard-response"	"22"	"151988"	"0.0-4.0-2.0-2.0-0.0"	"vetlbl"	"600"	"1366"	"chrome"	"108.0.0"	"FALSE"	"Windows 10"	"60.13"	"131"	n/a	n/a	n/a	n/a	n/a	n/a	"fixation"	n/a	n/a	n/a	n/a	"NULL"	n/a	"NULL"	"NULL"	"NULL"	"<p style=\"color: black; font-size: 80px; padding-left: 43%; padding-right: 24%; padding-top: 31%; padding-bottom: 5%\">+</p>"	"1080"	n/a	n/a	n/a	n/a	n/a	n/a	n/a	n/a	n/a
n/a	"image-keyboard-response"	"23"	"152405"	"0.0-4.0-2.0-2.0-1.0"	"vetlbl"	"600"	"1366"	"chrome"	"108.0.0"	"FALSE"	"Windows 10"	"60.13"	"131"	n/a	n/a	n/a	n/a	n/a	n/a	"Trial"	n/a	n/a	n/a	"416"	"arrowdown"	n/a	"NULL"	"NULL"	"NULL"	"stimuli/MullerLyer_-230000_-0.7000.png"	n/a	"MullerLyer"	"arrowdown"	"1615"	"TRUE"	"MullerLyer"	"-23000000000"	"-0.700000000"	"1"	"7"
n/a	"html-keyboard-response"	"24"	"153448"	"0.0-4.0-2.0-2.0-0.1"	"vetlbl"	"600"	"1366"	"chrome"	"108.0.0"	"FALSE"	"Windows 10"	"60.13"	"131"	n/a	n/a	n/a	n/a	n/a	n/a	"fixation"	n/a	n/a	n/a	n/a	"NULL"	n/a	"NULL"	"NULL"	"NULL"	"<p style=\"color: black; font-size: 80px; padding-left: 49%; padding-right: 24%; padding-top: 35%; padding-bottom: 28%\">+</p>"	"1036"	n/a	n/a	n/a	n/a	n/a	n/a	n/a	n/a	n/a
n/a	"image-keyboard-response"	"25"	"154001"	"0.0-4.0-2.0-2.0-1.1"	"vetlbl"	"600"	"1366"	"chrome"	"108.0.0"	"FALSE"	"Windows 10"	"60.13"	"131"	n/a	n/a	n/a	n/a	n/a	n/a	"Trial"	n/a	n/a	n/a	"553"	"arrowdown"	n/a	"NULL"	"NULL"	"NULL"	"stimuli/MullerLyer_2300000_-0.7000.png"	n/a	"MullerLyer"	"arrowdown"	"1043"	"TRUE"	"MullerLyer"	"230000000000"	"-0.700000000"	"1"	"8"
n/a	"html-keyboard-response"	"26"	"155202"	"0.0-4.0-2.0-2.0-0.2"	"vetlbl"	"600"	"1366"	"chrome"	"108.0.0"	"FALSE"	"Windows 10"	"60.13"	"131"	n/a	n/a	n/a	n/a	n/a	n/a	"fixation"	n/a	n/a	n/a	n/a	"NULL"	n/a	"NULL"	"NULL"	"NULL"	"<p style=\"color: black; font-size: 80px; padding-left: 18%; padding-right: 25%; padding-top: 44%; padding-bottom: 19%\">+</p>"	"1191"	n/a	n/a	n/a	n/a	n/a	n/a	n/a	n/a	n/a
n/a	"image-keyboard-response"	"27"	"155566"	"0.0-4.0-2.0-2.0-1.2"	"vetlbl"	"600"	"1366"	"chrome"	"108.0.0"	"FALSE"	"Windows 10"	"60.13"	"131"	n/a	n/a	n/a	n/a	n/a	n/a	"Trial"	n/a	n/a	n/a	"364"	"arrowdown"	n/a	"NULL"	"NULL"	"NULL"	"stimuli/MullerLyer_0000000_-0.7000.png"	n/a	"MullerLyer"	"arrowdown"	"1201"	"TRUE"	"MullerLyer"	"000000000000"	"-0.700000000"	"1"	"9"
n/a	"html-keyboard-response"	"28"	"156908"	"0.0-4.0-2.0-2.0-0.3"	"vetlbl"	"600"	"1366"	"chrome"	"108.0.0"	"FALSE"	"Windows 10"	"60.13"	"131"	n/a	n/a	n/a	n/a	n/a	n/a	"fixation"	n/a	n/a	n/a	n/a	"NULL"	n/a	"NULL"	"NULL"	"NULL"	"<p style=\"color: black; font-size: 80px; padding-left: 4%; padding-right: 25%; padding-top: 19%; padding-bottom: 44%\">+</p>"	"1333"	n/a	n/a	n/a	n/a	n/a	n/a	n/a	n/a	n/a
n/a	"image-keyboard-response"	"29"	"157282"	"0.0-4.0-2.0-2.0-1.3"	"vetlbl"	"600"	"1366"	"chrome"	"108.0.0"	"FALSE"	"Windows 10"	"60.13"	"131"	n/a	n/a	n/a	n/a	n/a	n/a	"Trial"	n/a	n/a	n/a	"372"	"arrowup"	n/a	"NULL"	"NULL"	"NULL"	"stimuli/MullerLyer_2300000_0.70000.png"	n/a	"MullerLyer"	"arrowup"	"1342"	"TRUE"	"MullerLyer"	"230000000000"	"0.7000000000"	"1"	"10"
n/a	"html-keyboard-response"	"30"	"158413"	"0.0-4.0-2.0-2.0-0.4"	"vetlbl"	"600"	"1366"	"chrome"	"108.0.0"	"FALSE"	"Windows 10"	"60.13"	"131"	n/a	n/a	n/a	n/a	n/a	n/a	"fixation"	n/a	n/a	n/a	n/a	"NULL"	n/a	"NULL"	"NULL"	"NULL"	"<p style=\"color: black; font-size: 80px; padding-left: 35%; padding-right: 18%; padding-top: 16%; padding-bottom: 40%\">+</p>"	"1116"	n/a	n/a	n/a	n/a	n/a	n/a	n/a	n/a	n/a
n/a	"image-keyboard-response"	"31"	"158794"	"0.0-4.0-2.0-2.0-1.4"	"vetlbl"	"600"	"1366"	"chrome"	"108.0.0"	"FALSE"	"Windows 10"	"60.13"	"131"	n/a	n/a	n/a	n/a	n/a	n/a	"Trial"	n/a	n/a	n/a	"380"	"arrowup"	n/a	"NULL"	"NULL"	"NULL"	"stimuli/MullerLyer_-230000_0.70000.png"	n/a	"MullerLyer"	"arrowup"	"1131"	"TRUE"	"MullerLyer"	"-23000000000"	"0.7000000000"	"1"	"11"
n/a	"html-keyboard-response"	"32"	"160204"	"0.0-4.0-2.0-2.0-0.5"	"vetlbl"	"600"	"1366"	"chrome"	"108.0.0"	"FALSE"	"Windows 10"	"60.13"	"131"	n/a	n/a	n/a	n/a	n/a	n/a	"fixation"	n/a	n/a	n/a	n/a	"NULL"	n/a	"NULL"	"NULL"	"NULL"	"<p style=\"color: black; font-size: 80px; padding-left: 14%; padding-right: 25%; padding-top: 50%; padding-bottom: 40%\">+</p>"	"1401"	n/a	n/a	n/a	n/a	n/a	n/a	n/a	n/a	n/a
n/a	"image-keyboard-response"	"33"	"160570"	"0.0-4.0-2.0-2.0-1.5"	"vetlbl"	"600"	"1366"	"chrome"	"108.0.0"	"FALSE"	"Windows 10"	"60.13"	"131"	n/a	n/a	n/a	n/a	n/a	n/a	"Trial"	n/a	n/a	n/a	"365"	"arrowup"	n/a	"NULL"	"NULL"	"NULL"	"stimuli/MullerLyer_0000000_0.70000.png"	n/a	"MullerLyer"	"arrowup"	"1410"	"TRUE"	"MullerLyer"	"000000000000"	"0.7000000000"	"1"	"12"
n/a	"html-button-response"	"34"	"165604"	"0.0-4.0-2.0-3.0"	"vetlbl"	"600"	"1366"	"chrome"	"108.0.0"	"FALSE"	"Windows 10"	"60.13"	"131"	n/a	n/a	n/a	n/a	n/a	n/a	"practice_block_results"	n/a	n/a	n/a	"5030"	"0"	n/a	"NULL"	"NULL"	"NULL"	"<p style='color:rgb(76,175,80);'> Correct Responses: <b>100.00%</b></p><hr><p style='color:rgb(233,30,99);'> Average Response Time: <b>408.33</b> ms.</p>"	n/a	n/a	n/a	n/a	n/a	n/a	n/a	n/a	n/a	n/a
"TRUE"	"preload"	"35"	"166135"	"0.0-4.0-3.0-0.0"	"vetlbl"	"600"	"1366"	"chrome"	"108.0.0"	"FALSE"	"Windows 10"	"60.13"	"131"	n/a	n/a	n/a	n/a	n/a	n/a	n/a	n/a	n/a	n/a	n/a	"NULL"	"FALSE"	"list()"	"list()"	"list()"	n/a	n/a	n/a	n/a	n/a	n/a	n/a	n/a	n/a	n/a	n/a
n/a	"html-keyboard-response"	"36"	"183894"	"0.0-4.0-3.0-1.0"	"vetlbl"	"600"	"1366"	"chrome"	"108.0.0"	"FALSE"	"Windows 10"	"60.13"	"131"	n/a	n/a	n/a	n/a	n/a	n/a	n/a	n/a	n/a	n/a	"17758"	"enter"	n/a	"NULL"	"NULL"	"NULL"	"<p><b>Practice</b></p><p>In this part, two red lines will appear side by side.</p><p>Your task is to tell <b>which line is longer</b> in length, regardless of their orientation, as fast as you can, and without making errors.</p><p>Don't get distracted by the orientation of the lines!</p><p>Press <b>the LEFT or the RIGHT arrow</b> to indicate which <b>line is the longer one.</b></p><div style='float: center'><img src='materials/instructions/VerticalHorizontal_Demo.png' height='300'></img><p><img src='utils/answer/answer_leftright_keyboard.PNG' height='150'></img></p><p class='small'>In this example, the correct answer is the <b>LEFT arrow</b>.</p></div><p>Are you ready? <b>Press ENTER to start</b></p>"	n/a	n/a	n/a	n/a	n/a	n/a	n/a	n/a	n/a	n/a
n/a	"html-keyboard-response"	"37"	"185475"	"0.0-4.0-3.0-2.0-0.0"	"vetlbl"	"600"	"1366"	"chrome"	"108.0.0"	"FALSE"	"Windows 10"	"60.13"	"131"	n/a	n/a	n/a	n/a	n/a	n/a	"fixation"	n/a	n/a	n/a	n/a	"NULL"	n/a	"NULL"	"NULL"	"NULL"	"<p style=\"color: black; font-size: 80px; padding-left: 2%; padding-right: 1%; padding-top: 15%; padding-bottom: 7%\">+</p>"	"1055"	n/a	n/a	n/a	n/a	n/a	n/a	n/a	n/a	n/a
n/a	"image-keyboard-response"	"38"	"185914"	"0.0-4.0-3.0-2.0-1.0"	"vetlbl"	"600"	"1366"	"chrome"	"108.0.0"	"FALSE"	"Windows 10"	"60.13"	"131"	n/a	n/a	n/a	n/a	n/a	n/a	"Trial"	n/a	n/a	n/a	"438"	"arrowright"	n/a	"NULL"	"NULL"	"NULL"	"stimuli/VerticalHorizontal_3300000_-0.9000.png"	n/a	"VerticalHorizontal"	"arrowright"	"1581"	"TRUE"	"VerticalHorizontal"	"330000000000"	"-0.900000000"	"1"	"13"
n/a	"html-keyboard-response"	"39"	"186987"	"0.0-4.0-3.0-2.0-0.1"	"vetlbl"	"600"	"1366"	"chrome"	"108.0.0"	"FALSE"	"Windows 10"	"60.13"	"131"	n/a	n/a	n/a	n/a	n/a	n/a	"fixation"	n/a	n/a	n/a	n/a	"NULL"	n/a	"NULL"	"NULL"	"NULL"	"<p style=\"color: black; font-size: 80px; padding-left: 33%; padding-right: 41%; padding-top: 7%; padding-bottom: 48%\">+</p>"	"1066"	n/a	n/a	n/a	n/a	n/a	n/a	n/a	n/a	n/a
n/a	"image-keyboard-response"	"40"	"187315"	"0.0-4.0-3.0-2.0-1.1"	"vetlbl"	"600"	"1366"	"chrome"	"108.0.0"	"FALSE"	"Windows 10"	"60.13"	"131"	n/a	n/a	n/a	n/a	n/a	n/a	"Trial"	n/a	n/a	n/a	"327"	"arrowleft"	n/a	"NULL"	"NULL"	"NULL"	"stimuli/VerticalHorizontal_-330000_0.90000.png"	n/a	"VerticalHorizontal"	"arrowleft"	"1073"	"TRUE"	"VerticalHorizontal"	"-33000000000"	"0.9000000000"	"1"	"14"
n/a	"html-keyboard-response"	"41"	"188396"	"0.0-4.0-3.0-2.0-0.2"	"vetlbl"	"600"	"1366"	"chrome"	"108.0.0"	"FALSE"	"Windows 10"	"60.13"	"131"	n/a	n/a	n/a	n/a	n/a	n/a	"fixation"	n/a	n/a	n/a	n/a	"NULL"	n/a	"NULL"	"NULL"	"NULL"	"<p style=\"color: black; font-size: 80px; padding-left: 9%; padding-right: 28%; padding-top: 15%; padding-bottom: 21%\">+</p>"	"1067"	n/a	n/a	n/a	n/a	n/a	n/a	n/a	n/a	n/a
n/a	"image-keyboard-response"	"42"	"188794"	"0.0-4.0-3.0-2.0-1.2"	"vetlbl"	"600"	"1366"	"chrome"	"108.0.0"	"FALSE"	"Windows 10"	"60.13"	"131"	n/a	n/a	n/a	n/a	n/a	n/a	"Trial"	n/a	n/a	n/a	"397"	"arrowleft"	n/a	"NULL"	"NULL"	"NULL"	"stimuli/VerticalHorizontal_0000000_0.90000.png"	n/a	"VerticalHorizontal"	"arrowleft"	"1081"	"TRUE"	"VerticalHorizontal"	"000000000000"	"0.9000000000"	"1"	"15"
n/a	"html-keyboard-response"	"43"	"189873"	"0.0-4.0-3.0-2.0-0.3"	"vetlbl"	"600"	"1366"	"chrome"	"108.0.0"	"FALSE"	"Windows 10"	"60.13"	"131"	n/a	n/a	n/a	n/a	n/a	n/a	"fixation"	n/a	n/a	n/a	n/a	"NULL"	n/a	"NULL"	"NULL"	"NULL"	"<p style=\"color: black; font-size: 80px; padding-left: 31%; padding-right: 35%; padding-top: 20%; padding-bottom: 20%\">+</p>"	"1061"	n/a	n/a	n/a	n/a	n/a	n/a	n/a	n/a	n/a
n/a	"image-keyboard-response"	"44"	"190170"	"0.0-4.0-3.0-2.0-1.3"	"vetlbl"	"600"	"1366"	"chrome"	"108.0.0"	"FALSE"	"Windows 10"	"60.13"	"131"	n/a	n/a	n/a	n/a	n/a	n/a	"Trial"	n/a	n/a	n/a	"297"	"arrowright"	n/a	"NULL"	"NULL"	"NULL"	"stimuli/VerticalHorizontal_-330000_-0.9000.png"	n/a	"VerticalHorizontal"	"arrowright"	"1079"	"TRUE"	"VerticalHorizontal"	"-33000000000"	"-0.900000000"	"1"	"16"
n/a	"html-keyboard-response"	"45"	"191238"	"0.0-4.0-3.0-2.0-0.4"	"vetlbl"	"600"	"1366"	"chrome"	"108.0.0"	"FALSE"	"Windows 10"	"60.13"	"131"	n/a	n/a	n/a	n/a	n/a	n/a	"fixation"	n/a	n/a	n/a	n/a	"NULL"	n/a	"NULL"	"NULL"	"NULL"	"<p style=\"color: black; font-size: 80px; padding-left: 41%; padding-right: 39%; padding-top: 47%; padding-bottom: 10%\">+</p>"	"1058"	n/a	n/a	n/a	n/a	n/a	n/a	n/a	n/a	n/a
n/a	"image-keyboard-response"	"46"	"191671"	"0.0-4.0-3.0-2.0-1.4"	"vetlbl"	"600"	"1366"	"chrome"	"108.0.0"	"FALSE"	"Windows 10"	"60.13"	"131"	n/a	n/a	n/a	n/a	n/a	n/a	"Trial"	n/a	n/a	n/a	"432"	"arrowleft"	n/a	"NULL"	"NULL"	"NULL"	"stimuli/VerticalHorizontal_3300000_0.90000.png"	n/a	"VerticalHorizontal"	"arrowleft"	"1068"	"TRUE"	"VerticalHorizontal"	"330000000000"	"0.9000000000"	"1"	"17"
n/a	"html-keyboard-response"	"47"	"193172"	"0.0-4.0-3.0-2.0-0.5"	"vetlbl"	"600"	"1366"	"chrome"	"108.0.0"	"FALSE"	"Windows 10"	"60.13"	"131"	n/a	n/a	n/a	n/a	n/a	n/a	"fixation"	n/a	n/a	n/a	n/a	"NULL"	n/a	"NULL"	"NULL"	"NULL"	"<p style=\"color: black; font-size: 80px; padding-left: 4%; padding-right: 39%; padding-top: 21%; padding-bottom: 10%\">+</p>"	"1492"	n/a	n/a	n/a	n/a	n/a	n/a	n/a	n/a	n/a
n/a	"image-keyboard-response"	"48"	"193435"	"0.0-4.0-3.0-2.0-1.5"	"vetlbl"	"600"	"1366"	"chrome"	"108.0.0"	"FALSE"	"Windows 10"	"60.13"	"131"	n/a	n/a	n/a	n/a	n/a	n/a	"Trial"	n/a	n/a	n/a	"261"	"arrowright"	n/a	"NULL"	"NULL"	"NULL"	"stimuli/VerticalHorizontal_0000000_-0.9000.png"	n/a	"VerticalHorizontal"	"arrowright"	"1501"	"TRUE"	"VerticalHorizontal"	"000000000000"	"-0.900000000"	"1"	"18"
n/a	"html-button-response"	"49"	"199196"	"0.0-4.0-3.0-3.0"	"vetlbl"	"600"	"1366"	"chrome"	"108.0.0"	"FALSE"	"Windows 10"	"60.13"	"131"	n/a	n/a	n/a	n/a	n/a	n/a	"practice_block_results"	n/a	n/a	n/a	"5760"	"0"	n/a	"NULL"	"NULL"	"NULL"	"<p style='color:rgb(76,175,80);'> Correct Responses: <b>100.00%</b></p><hr><p style='color:rgb(233,30,99);'> Average Response Time: <b>358.67</b> ms.</p>"	n/a	n/a	n/a	n/a	n/a	n/a	n/a	n/a	n/a	n/a
n/a	"html-button-response"	"50"	"326076"	"0.0-4.0-4.0"	"vetlbl"	"600"	"1366"	"chrome"	"108.0.0"	"FALSE"	"Windows 10"	"60.13"	"131"	n/a	n/a	n/a	n/a	n/a	n/a	"practice_debrief"	n/a	n/a	n/a	"126360"	"0"	n/a	"NULL"	"NULL"	"NULL"	"<p><b>TRAINING COMPLETED</b></p><p>In the next phase, there will be more trials, and some might be harder too.<br> Moreover, after each illusion block, a <b>score</b> will be calculated based on speed (time you took to answer) and accuracy (number of errors).</p><p>Try to keep up a high score!</p><br><p>Note that it can be <i>really</i> challenging at times, so you will need to rely on your <b>intuition</b> and gut feeling to answer as fast as you can without making errors.</p><p>Each illusion block will be repeated two times (so that you have the opportunity to improve your score), but the order of the blocks is random.</p><p>Remember, your goal is to be as <b>fast</b> and <b>accurate</b> as possible. Good luck!</p><br>"	n/a	n/a	n/a	n/a	n/a	n/a	n/a	n/a	n/a	n/a
"TRUE"	"preload"	"51"	"326227"	"0.0-5.0-0.0"	"vetlbl"	"600"	"1366"	"chrome"	"108.0.0"	"FALSE"	"Windows 10"	"60.13"	"131"	n/a	n/a	n/a	n/a	n/a	n/a	n/a	n/a	n/a	n/a	n/a	"NULL"	"FALSE"	"list()"	"list()"	"list()"	n/a	n/a	n/a	n/a	n/a	n/a	n/a	n/a	n/a	n/a	n/a
n/a	"html-keyboard-response"	"52"	"331626"	"0.0-5.0-1.0"	"vetlbl"	"600"	"1366"	"chrome"	"108.0.0"	"FALSE"	"Windows 10"	"60.13"	"131"	n/a	n/a	n/a	n/a	n/a	n/a	n/a	n/a	n/a	n/a	"5398"	"enter"	n/a	"NULL"	"NULL"	"NULL"	"<p><b>Part 1/6</b></p><p>In this part, two red lines will appear side by side.</p><p>Your task is to tell <b>which line is longer</b> in length, regardless of their orientation, as fast as you can, and without making errors.</p><p>Don't get distracted by the orientation of the lines!</p><p>Press <b>the LEFT or the RIGHT arrow</b> to indicate which <b>line is the longer one.</b></p><div style='float: center'><img src='materials/instructions/VerticalHorizontal_Demo.png' height='300'></img><p><img src='utils/answer/answer_leftright_keyboard.PNG' height='150'></img></p><p class='small'>In this example, the correct answer is the <b>LEFT arrow</b>.</p></div><p>Are you ready? <b>Press ENTER to start</b></p>"	n/a	n/a	n/a	n/a	n/a	n/a	n/a	n/a	n/a	n/a
n/a	"html-keyboard-response"	"53"	"333220"	"0.0-5.0-2.0-0.0"	"vetlbl"	"600"	"1366"	"chrome"	"108.0.0"	"FALSE"	"Windows 10"	"60.13"	"131"	n/a	n/a	n/a	n/a	n/a	n/a	"fixation"	n/a	n/a	n/a	n/a	"NULL"	n/a	"NULL"	"NULL"	"NULL"	"<p style=\"color: black; font-size: 80px; padding-left: 5%; padding-right: 23%; padding-top: 39%; padding-bottom: 36%\">+</p>"	"1065"	n/a	n/a	n/a	n/a	n/a	n/a	n/a	n/a	n/a
n/a	"image-keyboard-response"	"54"	"333947"	"0.0-5.0-2.0-1.0"	"vetlbl"	"600"	"1366"	"chrome"	"108.0.0"	"FALSE"	"Windows 10"	"60.13"	"131"	n/a	n/a	n/a	n/a	n/a	n/a	"Trial"	n/a	n/a	n/a	"725"	"arrowleft"	n/a	"NULL"	"NULL"	"NULL"	"stimuli/VerticalHorizontal_-3.3000_0.10960.png"	n/a	"VerticalHorizontal"	"arrowleft"	"1594"	"TRUE"	"VerticalHorizontal"	"-3.300000000"	"0.1096000000"	"1"	"19"
n/a	"html-keyboard-response"	"55"	"335043"	"0.0-5.0-2.0-0.1"	"vetlbl"	"600"	"1366"	"chrome"	"108.0.0"	"FALSE"	"Windows 10"	"60.13"	"131"	n/a	n/a	n/a	n/a	n/a	n/a	"fixation"	n/a	n/a	n/a	n/a	"NULL"	n/a	"NULL"	"NULL"	"NULL"	"<p style=\"color: black; font-size: 80px; padding-left: 34%; padding-right: 23%; padding-top: 13%; padding-bottom: 33%\">+</p>"	"1080"	n/a	n/a	n/a	n/a	n/a	n/a	n/a	n/a	n/a
n/a	"image-keyboard-response"	"56"	"335486"	"0.0-5.0-2.0-1.1"	"vetlbl"	"600"	"1366"	"chrome"	"108.0.0"	"FALSE"	"Windows 10"	"60.13"	"131"	n/a	n/a	n/a	n/a	n/a	n/a	"Trial"	n/a	n/a	n/a	"442"	"arrowright"	n/a	"NULL"	"NULL"	"NULL"	"stimuli/VerticalHorizontal_20.27143_0.06730.png"	n/a	"VerticalHorizontal"	"arrowleft"	"1096"	"FALSE"	"VerticalHorizontal"	"20.271430000"	"0.0673000000"	"1"	"20"
n/a	"html-keyboard-response"	"57"	"336801"	"0.0-5.0-2.0-0.2"	"vetlbl"	"600"	"1366"	"chrome"	"108.0.0"	"FALSE"	"Windows 10"	"60.13"	"131"	n/a	n/a	n/a	n/a	n/a	n/a	"fixation"	n/a	n/a	n/a	n/a	"NULL"	n/a	"NULL"	"NULL"	"NULL"	"<p style=\"color: black; font-size: 80px; padding-left: 48%; padding-right: 48%; padding-top: 28%; padding-bottom: 8%\">+</p>"	"1296"	n/a	n/a	n/a	n/a	n/a	n/a	n/a	n/a	n/a
n/a	"image-keyboard-response"	"58"	"337239"	"0.0-5.0-2.0-1.2"	"vetlbl"	"600"	"1366"	"chrome"	"108.0.0"	"FALSE"	"Windows 10"	"60.13"	"131"	n/a	n/a	n/a	n/a	n/a	n/a	"Trial"	n/a	n/a	n/a	"437"	"arrowleft"	n/a	"NULL"	"NULL"	"NULL"	"stimuli/VerticalHorizontal_-20.27143_0.10960.png"	n/a	"VerticalHorizontal"	"arrowleft"	"1315"	"TRUE"	"VerticalHorizontal"	"-20.27143000"	"0.1096000000"	"1"	"21"
n/a	"html-keyboard-response"	"59"	"338364"	"0.0-5.0-2.0-0.3"	"vetlbl"	"600"	"1366"	"chrome"	"108.0.0"	"FALSE"	"Windows 10"	"60.13"	"131"	n/a	n/a	n/a	n/a	n/a	n/a	"fixation"	n/a	n/a	n/a	n/a	"NULL"	n/a	"NULL"	"NULL"	"NULL"	"<p style=\"color: black; font-size: 80px; padding-left: 21%; padding-right: 42%; padding-top: 48%; padding-bottom: 20%\">+</p>"	"1113"	n/a	n/a	n/a	n/a	n/a	n/a	n/a	n/a	n/a
n/a	"image-keyboard-response"	"60"	"338906"	"0.0-5.0-2.0-1.3"	"vetlbl"	"600"	"1366"	"chrome"	"108.0.0"	"FALSE"	"Windows 10"	"60.13"	"131"	n/a	n/a	n/a	n/a	n/a	n/a	"Trial"	n/a	n/a	n/a	"542"	"arrowright"	n/a	"NULL"	"NULL"	"NULL"	"stimuli/VerticalHorizontal_28.75714_0.10960.png"	n/a	"VerticalHorizontal"	"arrowleft"	"1125"	"FALSE"	"VerticalHorizontal"	"28.757140000"	"0.1096000000"	"1"	"22"
n/a	"html-keyboard-response"	"61"	"340310"	"0.0-5.0-2.0-0.4"	"vetlbl"	"600"	"1366"	"chrome"	"108.0.0"	"FALSE"	"Windows 10"	"60.13"	"131"	n/a	n/a	n/a	n/a	n/a	n/a	"fixation"	n/a	n/a	n/a	n/a	"NULL"	n/a	"NULL"	"NULL"	"NULL"	"<p style=\"color: black; font-size: 80px; padding-left: 37%; padding-right: 44%; padding-top: 10%; padding-bottom: 40%\">+</p>"	"1393"	n/a	n/a	n/a	n/a	n/a	n/a	n/a	n/a	n/a
n/a	"image-keyboard-response"	"62"	"340846"	"0.0-5.0-2.0-1.4"	"vetlbl"	"600"	"1366"	"chrome"	"108.0.0"	"FALSE"	"Windows 10"	"60.13"	"131"	n/a	n/a	n/a	n/a	n/a	n/a	"Trial"	n/a	n/a	n/a	"534"	"arrowleft"	n/a	"NULL"	"NULL"	"NULL"	"stimuli/VerticalHorizontal_20.27143_-0.1096.png"	n/a	"VerticalHorizontal"	"arrowright"	"1404"	"FALSE"	"VerticalHorizontal"	"20.271430000"	"-0.109600000"	"1"	"23"
n/a	"html-keyboard-response"	"63"	"342300"	"0.0-5.0-2.0-0.5"	"vetlbl"	"600"	"1366"	"chrome"	"108.0.0"	"FALSE"	"Windows 10"	"60.13"	"131"	n/a	n/a	n/a	n/a	n/a	n/a	"fixation"	n/a	n/a	n/a	n/a	"NULL"	n/a	"NULL"	"NULL"	"NULL"	"<p style=\"color: black; font-size: 80px; padding-left: 42%; padding-right: 3%; padding-top: 16%; padding-bottom: 15%\">+</p>"	"1442"	n/a	n/a	n/a	n/a	n/a	n/a	n/a	n/a	n/a
n/a	"image-keyboard-response"	"64"	"342940"	"0.0-5.0-2.0-1.5"	"vetlbl"	"600"	"1366"	"chrome"	"108.0.0"	"FALSE"	"Windows 10"	"60.13"	"131"	n/a	n/a	n/a	n/a	n/a	n/a	"Trial"	n/a	n/a	n/a	"638"	"arrowright"	n/a	"NULL"	"NULL"	"NULL"	"stimuli/VerticalHorizontal_20.27143_-0.0673.png"	n/a	"VerticalHorizontal"	"arrowright"	"1454"	"TRUE"	"VerticalHorizontal"	"20.271430000"	"-0.067300000"	"1"	"24"
n/a	"html-keyboard-response"	"65"	"344403"	"0.0-5.0-2.0-0.6"	"vetlbl"	"600"	"1366"	"chrome"	"108.0.0"	"FALSE"	"Windows 10"	"60.13"	"131"	n/a	n/a	n/a	n/a	n/a	n/a	"fixation"	n/a	n/a	n/a	n/a	"NULL"	n/a	"NULL"	"NULL"	"NULL"	"<p style=\"color: black; font-size: 80px; padding-left: 35%; padding-right: 33%; padding-top: 41%; padding-bottom: 43%\">+</p>"	"1451"	n/a	n/a	n/a	n/a	n/a	n/a	n/a	n/a	n/a
n/a	"image-keyboard-response"	"66"	"344809"	"0.0-5.0-2.0-1.6"	"vetlbl"	"600"	"1366"	"chrome"	"108.0.0"	"FALSE"	"Windows 10"	"60.13"	"131"	n/a	n/a	n/a	n/a	n/a	n/a	"Trial"	n/a	n/a	n/a	"403"	"arrowright"	n/a	"NULL"	"NULL"	"NULL"	"stimuli/VerticalHorizontal_-3.3000_-0.16217.png"	n/a	"VerticalHorizontal"	"arrowright"	"1463"	"TRUE"	"VerticalHorizontal"	"-3.300000000"	"-0.162170000"	"1"	"25"
n/a	"html-keyboard-response"	"67"	"346036"	"0.0-5.0-2.0-0.7"	"vetlbl"	"600"	"1366"	"chrome"	"108.0.0"	"FALSE"	"Windows 10"	"60.13"	"131"	n/a	n/a	n/a	n/a	n/a	n/a	"fixation"	n/a	n/a	n/a	n/a	"NULL"	n/a	"NULL"	"NULL"	"NULL"	"<p style=\"color: black; font-size: 80px; padding-left: 12%; padding-right: 43%; padding-top: 43%; padding-bottom: 50%\">+</p>"	"1218"	n/a	n/a	n/a	n/a	n/a	n/a	n/a	n/a	n/a
n/a	"image-keyboard-response"	"68"	"346683"	"0.0-5.0-2.0-1.7"	"vetlbl"	"600"	"1366"	"chrome"	"108.0.0"	"FALSE"	"Windows 10"	"60.13"	"131"	n/a	n/a	n/a	n/a	n/a	n/a	"Trial"	n/a	n/a	n/a	"647"	"arrowright"	n/a	"NULL"	"NULL"	"NULL"	"stimuli/VerticalHorizontal_20.27143_-0.16217.png"	n/a	"VerticalHorizontal"	"arrowright"	"1227"	"TRUE"	"VerticalHorizontal"	"20.271430000"	"-0.162170000"	"1"	"26"
n/a	"html-keyboard-response"	"69"	"347984"	"0.0-5.0-2.0-0.8"	"vetlbl"	"600"	"1366"	"chrome"	"108.0.0"	"FALSE"	"Windows 10"	"60.13"	"131"	n/a	n/a	n/a	n/a	n/a	n/a	"fixation"	n/a	n/a	n/a	n/a	"NULL"	n/a	"NULL"	"NULL"	"NULL"	"<p style=\"color: black; font-size: 80px; padding-left: 11%; padding-right: 21%; padding-top: 35%; padding-bottom: 31%\">+</p>"	"1289"	n/a	n/a	n/a	n/a	n/a	n/a	n/a	n/a	n/a
n/a	"image-keyboard-response"	"70"	"348724"	"0.0-5.0-2.0-1.8"	"vetlbl"	"600"	"1366"	"chrome"	"108.0.0"	"FALSE"	"Windows 10"	"60.13"	"131"	n/a	n/a	n/a	n/a	n/a	n/a	"Trial"	n/a	n/a	n/a	"739"	"arrowleft"	n/a	"NULL"	"NULL"	"NULL"	"stimuli/VerticalHorizontal_28.75714_0.22500.png"	n/a	"VerticalHorizontal"	"arrowleft"	"1301"	"TRUE"	"VerticalHorizontal"	"28.757140000"	"0.2250000000"	"1"	"27"
n/a	"html-keyboard-response"	"71"	"350007"	"0.0-5.0-2.0-0.9"	"vetlbl"	"600"	"1366"	"chrome"	"108.0.0"	"FALSE"	"Windows 10"	"60.13"	"131"	n/a	n/a	n/a	n/a	n/a	n/a	"fixation"	n/a	n/a	n/a	n/a	"NULL"	n/a	"NULL"	"NULL"	"NULL"	"<p style=\"color: black; font-size: 80px; padding-left: 2%; padding-right: 18%; padding-top: 45%; padding-bottom: 5%\">+</p>"	"1267"	n/a	n/a	n/a	n/a	n/a	n/a	n/a	n/a	n/a
n/a	"image-keyboard-response"	"72"	"350651"	"0.0-5.0-2.0-1.9"	"vetlbl"	"600"	"1366"	"chrome"	"108.0.0"	"FALSE"	"Windows 10"	"60.13"	"131"	n/a	n/a	n/a	n/a	n/a	n/a	"Trial"	n/a	n/a	n/a	"643"	"arrowleft"	n/a	"NULL"	"NULL"	"NULL"	"stimuli/VerticalHorizontal_3.30000_0.16217.png"	n/a	"VerticalHorizontal"	"arrowleft"	"1283"	"TRUE"	"VerticalHorizontal"	"3.3000000000"	"0.1621700000"	"1"	"28"
n/a	"html-keyboard-response"	"73"	"352050"	"0.0-5.0-2.0-0.10"	"vetlbl"	"600"	"1366"	"chrome"	"108.0.0"	"FALSE"	"Windows 10"	"60.13"	"131"	n/a	n/a	n/a	n/a	n/a	n/a	"fixation"	n/a	n/a	n/a	n/a	"NULL"	n/a	"NULL"	"NULL"	"NULL"	"<p style=\"color: black; font-size: 80px; padding-left: 2%; padding-right: 14%; padding-top: 48%; padding-bottom: 40%\">+</p>"	"1391"	n/a	n/a	n/a	n/a	n/a	n/a	n/a	n/a	n/a
n/a	"image-keyboard-response"	"74"	"352501"	"0.0-5.0-2.0-1.10"	"vetlbl"	"600"	"1366"	"chrome"	"108.0.0"	"FALSE"	"Windows 10"	"60.13"	"131"	n/a	n/a	n/a	n/a	n/a	n/a	"Trial"	n/a	n/a	n/a	"450"	"arrowleft"	n/a	"NULL"	"NULL"	"NULL"	"stimuli/VerticalHorizontal_-11.78571_0.22500.png"	n/a	"VerticalHorizontal"	"arrowleft"	"1399"	"TRUE"	"VerticalHorizontal"	"-11.78571000"	"0.2250000000"	"1"	"29"
n/a	"html-keyboard-response"	"75"	"353831"	"0.0-5.0-2.0-0.11"	"vetlbl"	"600"	"1366"	"chrome"	"108.0.0"	"FALSE"	"Windows 10"	"60.13"	"131"	n/a	n/a	n/a	n/a	n/a	n/a	"fixation"	n/a	n/a	n/a	n/a	"NULL"	n/a	"NULL"	"NULL"	"NULL"	"<p style=\"color: black; font-size: 80px; padding-left: 30%; padding-right: 17%; padding-top: 12%; padding-bottom: 13%\">+</p>"	"1321"	n/a	n/a	n/a	n/a	n/a	n/a	n/a	n/a	n/a
n/a	"image-keyboard-response"	"76"	"354227"	"0.0-5.0-2.0-1.11"	"vetlbl"	"600"	"1366"	"chrome"	"108.0.0"	"FALSE"	"Windows 10"	"60.13"	"131"	n/a	n/a	n/a	n/a	n/a	n/a	"Trial"	n/a	n/a	n/a	"395"	"arrowleft"	n/a	"NULL"	"NULL"	"NULL"	"stimuli/VerticalHorizontal_-28.75714_0.22500.png"	n/a	"VerticalHorizontal"	"arrowleft"	"1330"	"TRUE"	"VerticalHorizontal"	"-28.75714000"	"0.2250000000"	"1"	"30"
n/a	"html-keyboard-response"	"77"	"355704"	"0.0-5.0-2.0-0.12"	"vetlbl"	"600"	"1366"	"chrome"	"108.0.0"	"FALSE"	"Windows 10"	"60.13"	"131"	n/a	n/a	n/a	n/a	n/a	n/a	"fixation"	n/a	n/a	n/a	n/a	"NULL"	n/a	"NULL"	"NULL"	"NULL"	"<p style=\"color: black; font-size: 80px; padding-left: 14%; padding-right: 42%; padding-top: 47%; padding-bottom: 11%\">+</p>"	"1459"	n/a	n/a	n/a	n/a	n/a	n/a	n/a	n/a	n/a
n/a	"image-keyboard-response"	"78"	"356145"	"0.0-5.0-2.0-1.12"	"vetlbl"	"600"	"1366"	"chrome"	"108.0.0"	"FALSE"	"Windows 10"	"60.13"	"131"	n/a	n/a	n/a	n/a	n/a	n/a	"Trial"	n/a	n/a	n/a	"440"	"arrowright"	n/a	"NULL"	"NULL"	"NULL"	"stimuli/VerticalHorizontal_11.78571_-0.2250.png"	n/a	"VerticalHorizontal"	"arrowright"	"1477"	"TRUE"	"VerticalHorizontal"	"11.785710000"	"-0.225000000"	"1"	"31"
n/a	"html-keyboard-response"	"79"	"357301"	"0.0-5.0-2.0-0.13"	"vetlbl"	"600"	"1366"	"chrome"	"108.0.0"	"FALSE"	"Windows 10"	"60.13"	"131"	n/a	n/a	n/a	n/a	n/a	n/a	"fixation"	n/a	n/a	n/a	n/a	"NULL"	n/a	"NULL"	"NULL"	"NULL"	"<p style=\"color: black; font-size: 80px; padding-left: 41%; padding-right: 11%; padding-top: 42%; padding-bottom: 14%\">+</p>"	"1142"	n/a	n/a	n/a	n/a	n/a	n/a	n/a	n/a	n/a
n/a	"image-keyboard-response"	"80"	"357717"	"0.0-5.0-2.0-1.13"	"vetlbl"	"600"	"1366"	"chrome"	"108.0.0"	"FALSE"	"Windows 10"	"60.13"	"131"	n/a	n/a	n/a	n/a	n/a	n/a	"Trial"	n/a	n/a	n/a	"412"	"arrowright"	n/a	"NULL"	"NULL"	"NULL"	"stimuli/VerticalHorizontal_-11.78571_-0.1096.png"	n/a	"VerticalHorizontal"	"arrowright"	"1156"	"TRUE"	"VerticalHorizontal"	"-11.78571000"	"-0.109600000"	"1"	"32"
n/a	"html-keyboard-response"	"81"	"359082"	"0.0-5.0-2.0-0.14"	"vetlbl"	"600"	"1366"	"chrome"	"108.0.0"	"FALSE"	"Windows 10"	"60.13"	"131"	n/a	n/a	n/a	n/a	n/a	n/a	"fixation"	n/a	n/a	n/a	n/a	"NULL"	n/a	"NULL"	"NULL"	"NULL"	"<p style=\"color: black; font-size: 80px; padding-left: 25%; padding-right: 23%; padding-top: 29%; padding-bottom: 27%\">+</p>"	"1348"	n/a	n/a	n/a	n/a	n/a	n/a	n/a	n/a	n/a
n/a	"image-keyboard-response"	"82"	"359588"	"0.0-5.0-2.0-1.14"	"vetlbl"	"600"	"1366"	"chrome"	"108.0.0"	"FALSE"	"Windows 10"	"60.13"	"131"	n/a	n/a	n/a	n/a	n/a	n/a	"Trial"	n/a	n/a	n/a	"505"	"arrowleft"	n/a	"NULL"	"NULL"	"NULL"	"stimuli/VerticalHorizontal_28.75714_-0.2250.png"	n/a	"VerticalHorizontal"	"arrowright"	"1365"	"FALSE"	"VerticalHorizontal"	"28.757140000"	"-0.225000000"	"1"	"33"
n/a	"html-keyboard-response"	"83"	"360669"	"0.0-5.0-2.0-0.15"	"vetlbl"	"600"	"1366"	"chrome"	"108.0.0"	"FALSE"	"Windows 10"	"60.13"	"131"	n/a	n/a	n/a	n/a	n/a	n/a	"fixation"	n/a	n/a	n/a	n/a	"NULL"	n/a	"NULL"	"NULL"	"NULL"	"<p style=\"color: black; font-size: 80px; padding-left: 0%; padding-right: 19%; padding-top: 16%; padding-bottom: 10%\">+</p>"	"1072"	n/a	n/a	n/a	n/a	n/a	n/a	n/a	n/a	n/a
n/a	"image-keyboard-response"	"84"	"361326"	"0.0-5.0-2.0-1.15"	"vetlbl"	"600"	"1366"	"chrome"	"108.0.0"	"FALSE"	"Windows 10"	"60.13"	"131"	n/a	n/a	n/a	n/a	n/a	n/a	"Trial"	n/a	n/a	n/a	"656"	"arrowleft"	n/a	"NULL"	"NULL"	"NULL"	"stimuli/VerticalHorizontal_-28.75714_0.06730.png"	n/a	"VerticalHorizontal"	"arrowleft"	"1081"	"TRUE"	"VerticalHorizontal"	"-28.75714000"	"0.0673000000"	"1"	"34"
n/a	"html-keyboard-response"	"85"	"362584"	"0.0-5.0-2.0-0.16"	"vetlbl"	"600"	"1366"	"chrome"	"108.0.0"	"FALSE"	"Windows 10"	"60.13"	"131"	n/a	n/a	n/a	n/a	n/a	n/a	"fixation"	n/a	n/a	n/a	n/a	"NULL"	n/a	"NULL"	"NULL"	"NULL"	"<p style=\"color: black; font-size: 80px; padding-left: 21%; padding-right: 49%; padding-top: 1%; padding-bottom: 45%\">+</p>"	"1246"	n/a	n/a	n/a	n/a	n/a	n/a	n/a	n/a	n/a
n/a	"image-keyboard-response"	"86"	"363468"	"0.0-5.0-2.0-1.16"	"vetlbl"	"600"	"1366"	"chrome"	"108.0.0"	"FALSE"	"Windows 10"	"60.13"	"131"	n/a	n/a	n/a	n/a	n/a	n/a	"Trial"	n/a	n/a	n/a	"881"	"arrowleft"	n/a	"NULL"	"NULL"	"NULL"	"stimuli/VerticalHorizontal_3.30000_0.10960.png"	n/a	"VerticalHorizontal"	"arrowleft"	"1258"	"TRUE"	"VerticalHorizontal"	"3.3000000000"	"0.1096000000"	"1"	"35"
n/a	"html-keyboard-response"	"87"	"364858"	"0.0-5.0-2.0-0.17"	"vetlbl"	"600"	"1366"	"chrome"	"108.0.0"	"FALSE"	"Windows 10"	"60.13"	"131"	n/a	n/a	n/a	n/a	n/a	n/a	"fixation"	n/a	n/a	n/a	n/a	"NULL"	n/a	"NULL"	"NULL"	"NULL"	"<p style=\"color: black; font-size: 80px; padding-left: 38%; padding-right: 6%; padding-top: 12%; padding-bottom: 3%\">+</p>"	"1379"	n/a	n/a	n/a	n/a	n/a	n/a	n/a	n/a	n/a
n/a	"image-keyboard-response"	"88"	"365534"	"0.0-5.0-2.0-1.17"	"vetlbl"	"600"	"1366"	"chrome"	"108.0.0"	"FALSE"	"Windows 10"	"60.13"	"131"	n/a	n/a	n/a	n/a	n/a	n/a	"Trial"	n/a	n/a	n/a	"672"	"arrowleft"	n/a	"NULL"	"NULL"	"NULL"	"stimuli/VerticalHorizontal_-11.78571_0.10960.png"	n/a	"VerticalHorizontal"	"arrowleft"	"1390"	"TRUE"	"VerticalHorizontal"	"-11.78571000"	"0.1096000000"	"1"	"36"
n/a	"html-keyboard-response"	"89"	"366955"	"0.0-5.0-2.0-0.18"	"vetlbl"	"600"	"1366"	"chrome"	"108.0.0"	"FALSE"	"Windows 10"	"60.13"	"131"	n/a	n/a	n/a	n/a	n/a	n/a	"fixation"	n/a	n/a	n/a	n/a	"NULL"	n/a	"NULL"	"NULL"	"NULL"	"<p style=\"color: black; font-size: 80px; padding-left: 37%; padding-right: 36%; padding-top: 38%; padding-bottom: 10%\">+</p>"	"1404"	n/a	n/a	n/a	n/a	n/a	n/a	n/a	n/a	n/a
n/a	"image-keyboard-response"	"90"	"367436"	"0.0-5.0-2.0-1.18"	"vetlbl"	"600"	"1366"	"chrome"	"108.0.0"	"FALSE"	"Windows 10"	"60.13"	"131"	n/a	n/a	n/a	n/a	n/a	n/a	"Trial"	n/a	n/a	n/a	"480"	"arrowright"	n/a	"NULL"	"NULL"	"NULL"	"stimuli/VerticalHorizontal_-28.75714_-0.16217.png"	n/a	"VerticalHorizontal"	"arrowright"	"1421"	"TRUE"	"VerticalHorizontal"	"-28.75714000"	"-0.162170000"	"1"	"37"
n/a	"html-keyboard-response"	"91"	"368716"	"0.0-5.0-2.0-0.19"	"vetlbl"	"600"	"1366"	"chrome"	"108.0.0"	"FALSE"	"Windows 10"	"60.13"	"131"	n/a	n/a	n/a	n/a	n/a	n/a	"fixation"	n/a	n/a	n/a	n/a	"NULL"	n/a	"NULL"	"NULL"	"NULL"	"<p style=\"color: black; font-size: 80px; padding-left: 37%; padding-right: 33%; padding-top: 45%; padding-bottom: 4%\">+</p>"	"1258"	n/a	n/a	n/a	n/a	n/a	n/a	n/a	n/a	n/a
n/a	"image-keyboard-response"	"92"	"369161"	"0.0-5.0-2.0-1.19"	"vetlbl"	"600"	"1366"	"chrome"	"108.0.0"	"FALSE"	"Windows 10"	"60.13"	"131"	n/a	n/a	n/a	n/a	n/a	n/a	"Trial"	n/a	n/a	n/a	"444"	"arrowright"	n/a	"NULL"	"NULL"	"NULL"	"stimuli/VerticalHorizontal_-28.75714_-0.1096.png"	n/a	"VerticalHorizontal"	"arrowright"	"1280"	"TRUE"	"VerticalHorizontal"	"-28.75714000"	"-0.109600000"	"1"	"38"
n/a	"html-keyboard-response"	"93"	"370661"	"0.0-5.0-2.0-0.20"	"vetlbl"	"600"	"1366"	"chrome"	"108.0.0"	"FALSE"	"Windows 10"	"60.13"	"131"	n/a	n/a	n/a	n/a	n/a	n/a	"fixation"	n/a	n/a	n/a	n/a	"NULL"	n/a	"NULL"	"NULL"	"NULL"	"<p style=\"color: black; font-size: 80px; padding-left: 23%; padding-right: 46%; padding-top: 21%; padding-bottom: 29%\">+</p>"	"1479"	n/a	n/a	n/a	n/a	n/a	n/a	n/a	n/a	n/a
n/a	"image-keyboard-response"	"94"	"371424"	"0.0-5.0-2.0-1.20"	"vetlbl"	"600"	"1366"	"chrome"	"108.0.0"	"FALSE"	"Windows 10"	"60.13"	"131"	n/a	n/a	n/a	n/a	n/a	n/a	"Trial"	n/a	n/a	n/a	"761"	"arrowright"	n/a	"NULL"	"NULL"	"NULL"	"stimuli/VerticalHorizontal_11.78571_-0.16217.png"	n/a	"VerticalHorizontal"	"arrowright"	"1500"	"TRUE"	"VerticalHorizontal"	"11.785710000"	"-0.162170000"	"1"	"39"
n/a	"html-keyboard-response"	"95"	"372760"	"0.0-5.0-2.0-0.21"	"vetlbl"	"600"	"1366"	"chrome"	"108.0.0"	"FALSE"	"Windows 10"	"60.13"	"131"	n/a	n/a	n/a	n/a	n/a	n/a	"fixation"	n/a	n/a	n/a	n/a	"NULL"	n/a	"NULL"	"NULL"	"NULL"	"<p style=\"color: black; font-size: 80px; padding-left: 9%; padding-right: 44%; padding-top: 40%; padding-bottom: 13%\">+</p>"	"1322"	n/a	n/a	n/a	n/a	n/a	n/a	n/a	n/a	n/a
n/a	"image-keyboard-response"	"96"	"373184"	"0.0-5.0-2.0-1.21"	"vetlbl"	"600"	"1366"	"chrome"	"108.0.0"	"FALSE"	"Windows 10"	"60.13"	"131"	n/a	n/a	n/a	n/a	n/a	n/a	"Trial"	n/a	n/a	n/a	"424"	"arrowleft"	n/a	"NULL"	"NULL"	"NULL"	"stimuli/VerticalHorizontal_-20.27143_0.22500.png"	n/a	"VerticalHorizontal"	"arrowleft"	"1336"	"TRUE"	"VerticalHorizontal"	"-20.27143000"	"0.2250000000"	"1"	"40"
n/a	"html-keyboard-response"	"97"	"374644"	"0.0-5.0-2.0-0.22"	"vetlbl"	"600"	"1366"	"chrome"	"108.0.0"	"FALSE"	"Windows 10"	"60.13"	"131"	n/a	n/a	n/a	n/a	n/a	n/a	"fixation"	n/a	n/a	n/a	n/a	"NULL"	n/a	"NULL"	"NULL"	"NULL"	"<p style=\"color: black; font-size: 80px; padding-left: 14%; padding-right: 17%; padding-top: 47%; padding-bottom: 36%\">+</p>"	"1441"	n/a	n/a	n/a	n/a	n/a	n/a	n/a	n/a	n/a
n/a	"image-keyboard-response"	"98"	"375145"	"0.0-5.0-2.0-1.22"	"vetlbl"	"600"	"1366"	"chrome"	"108.0.0"	"FALSE"	"Windows 10"	"60.13"	"131"	n/a	n/a	n/a	n/a	n/a	n/a	"Trial"	n/a	n/a	n/a	"500"	"arrowright"	n/a	"NULL"	"NULL"	"NULL"	"stimuli/VerticalHorizontal_-28.75714_-0.2250.png"	n/a	"VerticalHorizontal"	"arrowright"	"1460"	"TRUE"	"VerticalHorizontal"	"-28.75714000"	"-0.225000000"	"1"	"41"
n/a	"html-keyboard-response"	"99"	"376243"	"0.0-5.0-2.0-0.23"	"vetlbl"	"600"	"1366"	"chrome"	"108.0.0"	"FALSE"	"Windows 10"	"60.13"	"131"	n/a	n/a	n/a	n/a	n/a	n/a	"fixation"	n/a	n/a	n/a	n/a	"NULL"	n/a	"NULL"	"NULL"	"NULL"	"<p style=\"color: black; font-size: 80px; padding-left: 5%; padding-right: 14%; padding-top: 46%; padding-bottom: 6%\">+</p>"	"1082"	n/a	n/a	n/a	n/a	n/a	n/a	n/a	n/a	n/a
n/a	"image-keyboard-response"	"100"	"376779"	"0.0-5.0-2.0-1.23"	"vetlbl"	"600"	"1366"	"chrome"	"108.0.0"	"FALSE"	"Windows 10"	"60.13"	"131"	n/a	n/a	n/a	n/a	n/a	n/a	"Trial"	n/a	n/a	n/a	"535"	"arrowright"	n/a	"NULL"	"NULL"	"NULL"	"stimuli/VerticalHorizontal_20.27143_-0.2250.png"	n/a	"VerticalHorizontal"	"arrowright"	"1098"	"TRUE"	"VerticalHorizontal"	"20.271430000"	"-0.225000000"	"1"	"42"
n/a	"html-keyboard-response"	"101"	"378273"	"0.0-5.0-2.0-0.24"	"vetlbl"	"600"	"1366"	"chrome"	"108.0.0"	"FALSE"	"Windows 10"	"60.13"	"131"	n/a	n/a	n/a	n/a	n/a	n/a	"fixation"	n/a	n/a	n/a	n/a	"NULL"	n/a	"NULL"	"NULL"	"NULL"	"<p style=\"color: black; font-size: 80px; padding-left: 26%; padding-right: 13%; padding-top: 43%; padding-bottom: 26%\">+</p>"	"1487"	n/a	n/a	n/a	n/a	n/a	n/a	n/a	n/a	n/a
n/a	"image-keyboard-response"	"102"	"378713"	"0.0-5.0-2.0-1.24"	"vetlbl"	"600"	"1366"	"chrome"	"108.0.0"	"FALSE"	"Windows 10"	"60.13"	"131"	n/a	n/a	n/a	n/a	n/a	n/a	"Trial"	n/a	n/a	n/a	"439"	"arrowleft"	n/a	"NULL"	"NULL"	"NULL"	"stimuli/VerticalHorizontal_-3.3000_0.16217.png"	n/a	"VerticalHorizontal"	"arrowleft"	"1494"	"TRUE"	"VerticalHorizontal"	"-3.300000000"	"0.1621700000"	"1"	"43"
n/a	"html-keyboard-response"	"103"	"380108"	"0.0-5.0-2.0-0.25"	"vetlbl"	"600"	"1366"	"chrome"	"108.0.0"	"FALSE"	"Windows 10"	"60.13"	"131"	n/a	n/a	n/a	n/a	n/a	n/a	"fixation"	n/a	n/a	n/a	n/a	"NULL"	n/a	"NULL"	"NULL"	"NULL"	"<p style=\"color: black; font-size: 80px; padding-left: 46%; padding-right: 32%; padding-top: 41%; padding-bottom: 43%\">+</p>"	"1384"	n/a	n/a	n/a	n/a	n/a	n/a	n/a	n/a	n/a
n/a	"image-keyboard-response"	"104"	"380606"	"0.0-5.0-2.0-1.25"	"vetlbl"	"600"	"1366"	"chrome"	"108.0.0"	"FALSE"	"Windows 10"	"60.13"	"131"	n/a	n/a	n/a	n/a	n/a	n/a	"Trial"	n/a	n/a	n/a	"496"	"arrowright"	n/a	"NULL"	"NULL"	"NULL"	"stimuli/VerticalHorizontal_3.30000_-0.16217.png"	n/a	"VerticalHorizontal"	"arrowright"	"1395"	"TRUE"	"VerticalHorizontal"	"3.3000000000"	"-0.162170000"	"1"	"44"
n/a	"html-keyboard-response"	"105"	"381695"	"0.0-5.0-2.0-0.26"	"vetlbl"	"600"	"1366"	"chrome"	"108.0.0"	"FALSE"	"Windows 10"	"60.13"	"131"	n/a	n/a	n/a	n/a	n/a	n/a	"fixation"	n/a	n/a	n/a	n/a	"NULL"	n/a	"NULL"	"NULL"	"NULL"	"<p style=\"color: black; font-size: 80px; padding-left: 9%; padding-right: 36%; padding-top: 16%; padding-bottom: 47%\">+</p>"	"1070"	n/a	n/a	n/a	n/a	n/a	n/a	n/a	n/a	n/a
n/a	"image-keyboard-response"	"106"	"382272"	"0.0-5.0-2.0-1.26"	"vetlbl"	"600"	"1366"	"chrome"	"108.0.0"	"FALSE"	"Windows 10"	"60.13"	"131"	n/a	n/a	n/a	n/a	n/a	n/a	"Trial"	n/a	n/a	n/a	"571"	"arrowright"	n/a	"NULL"	"NULL"	"NULL"	"stimuli/VerticalHorizontal_28.75714_0.06730.png"	n/a	"VerticalHorizontal"	"arrowleft"	"1089"	"FALSE"	"VerticalHorizontal"	"28.757140000"	"0.0673000000"	"1"	"45"
n/a	"html-keyboard-response"	"107"	"383634"	"0.0-5.0-2.0-0.27"	"vetlbl"	"600"	"1366"	"chrome"	"108.0.0"	"FALSE"	"Windows 10"	"60.13"	"131"	n/a	n/a	n/a	n/a	n/a	n/a	"fixation"	n/a	n/a	n/a	n/a	"NULL"	n/a	"NULL"	"NULL"	"NULL"	"<p style=\"color: black; font-size: 80px; padding-left: 2%; padding-right: 16%; padding-top: 25%; padding-bottom: 44%\">+</p>"	"1358"	n/a	n/a	n/a	n/a	n/a	n/a	n/a	n/a	n/a
n/a	"image-keyboard-response"	"108"	"384097"	"0.0-5.0-2.0-1.27"	"vetlbl"	"600"	"1366"	"chrome"	"108.0.0"	"FALSE"	"Windows 10"	"60.13"	"131"	n/a	n/a	n/a	n/a	n/a	n/a	"Trial"	n/a	n/a	n/a	"462"	"arrowleft"	n/a	"NULL"	"NULL"	"NULL"	"stimuli/VerticalHorizontal_3.30000_0.22500.png"	n/a	"VerticalHorizontal"	"arrowleft"	"1362"	"TRUE"	"VerticalHorizontal"	"3.3000000000"	"0.2250000000"	"1"	"46"
n/a	"html-keyboard-response"	"109"	"385289"	"0.0-5.0-2.0-0.28"	"vetlbl"	"600"	"1366"	"chrome"	"108.0.0"	"FALSE"	"Windows 10"	"60.13"	"131"	n/a	n/a	n/a	n/a	n/a	n/a	"fixation"	n/a	n/a	n/a	n/a	"NULL"	n/a	"NULL"	"NULL"	"NULL"	"<p style=\"color: black; font-size: 80px; padding-left: 49%; padding-right: 28%; padding-top: 2%; padding-bottom: 26%\">+</p>"	"1177"	n/a	n/a	n/a	n/a	n/a	n/a	n/a	n/a	n/a
n/a	"image-keyboard-response"	"110"	"385784"	"0.0-5.0-2.0-1.28"	"vetlbl"	"600"	"1366"	"chrome"	"108.0.0"	"FALSE"	"Windows 10"	"60.13"	"131"	n/a	n/a	n/a	n/a	n/a	n/a	"Trial"	n/a	n/a	n/a	"493"	"arrowright"	n/a	"NULL"	"NULL"	"NULL"	"stimuli/VerticalHorizontal_3.30000_-0.1096.png"	n/a	"VerticalHorizontal"	"arrowright"	"1192"	"TRUE"	"VerticalHorizontal"	"3.3000000000"	"-0.109600000"	"1"	"47"
n/a	"html-keyboard-response"	"111"	"387156"	"0.0-5.0-2.0-0.29"	"vetlbl"	"600"	"1366"	"chrome"	"108.0.0"	"FALSE"	"Windows 10"	"60.13"	"131"	n/a	n/a	n/a	n/a	n/a	n/a	"fixation"	n/a	n/a	n/a	n/a	"NULL"	n/a	"NULL"	"NULL"	"NULL"	"<p style=\"color: black; font-size: 80px; padding-left: 44%; padding-right: 7%; padding-top: 38%; padding-bottom: 34%\">+</p>"	"1363"	n/a	n/a	n/a	n/a	n/a	n/a	n/a	n/a	n/a
n/a	"image-keyboard-response"	"112"	"387622"	"0.0-5.0-2.0-1.29"	"vetlbl"	"600"	"1366"	"chrome"	"108.0.0"	"FALSE"	"Windows 10"	"60.13"	"131"	n/a	n/a	n/a	n/a	n/a	n/a	"Trial"	n/a	n/a	n/a	"465"	"arrowleft"	n/a	"NULL"	"NULL"	"NULL"	"stimuli/VerticalHorizontal_20.27143_0.22500.png"	n/a	"VerticalHorizontal"	"arrowleft"	"1372"	"TRUE"	"VerticalHorizontal"	"20.271430000"	"0.2250000000"	"1"	"48"
n/a	"html-keyboard-response"	"113"	"389005"	"0.0-5.0-2.0-0.30"	"vetlbl"	"600"	"1366"	"chrome"	"108.0.0"	"FALSE"	"Windows 10"	"60.13"	"131"	n/a	n/a	n/a	n/a	n/a	n/a	"fixation"	n/a	n/a	n/a	n/a	"NULL"	n/a	"NULL"	"NULL"	"NULL"	"<p style=\"color: black; font-size: 80px; padding-left: 46%; padding-right: 24%; padding-top: 18%; padding-bottom: 34%\">+</p>"	"1367"	n/a	n/a	n/a	n/a	n/a	n/a	n/a	n/a	n/a
n/a	"image-keyboard-response"	"114"	"389382"	"0.0-5.0-2.0-1.30"	"vetlbl"	"600"	"1366"	"chrome"	"108.0.0"	"FALSE"	"Windows 10"	"60.13"	"131"	n/a	n/a	n/a	n/a	n/a	n/a	"Trial"	n/a	n/a	n/a	"377"	"arrowright"	n/a	"NULL"	"NULL"	"NULL"	"stimuli/VerticalHorizontal_11.78571_-0.1096.png"	n/a	"VerticalHorizontal"	"arrowright"	"1383"	"TRUE"	"VerticalHorizontal"	"11.785710000"	"-0.109600000"	"1"	"49"
n/a	"html-keyboard-response"	"115"	"390571"	"0.0-5.0-2.0-0.31"	"vetlbl"	"600"	"1366"	"chrome"	"108.0.0"	"FALSE"	"Windows 10"	"60.13"	"131"	n/a	n/a	n/a	n/a	n/a	n/a	"fixation"	n/a	n/a	n/a	n/a	"NULL"	n/a	"NULL"	"NULL"	"NULL"	"<p style=\"color: black; font-size: 80px; padding-left: 47%; padding-right: 30%; padding-top: 9%; padding-bottom: 3%\">+</p>"	"1168"	n/a	n/a	n/a	n/a	n/a	n/a	n/a	n/a	n/a
n/a	"image-keyboard-response"	"116"	"390957"	"0.0-5.0-2.0-1.31"	"vetlbl"	"600"	"1366"	"chrome"	"108.0.0"	"FALSE"	"Windows 10"	"60.13"	"131"	n/a	n/a	n/a	n/a	n/a	n/a	"Trial"	n/a	n/a	n/a	"385"	"arrowright"	n/a	"NULL"	"NULL"	"NULL"	"stimuli/VerticalHorizontal_-11.78571_-0.16217.png"	n/a	"VerticalHorizontal"	"arrowright"	"1189"	"TRUE"	"VerticalHorizontal"	"-11.78571000"	"-0.162170000"	"1"	"50"
n/a	"html-keyboard-response"	"117"	"392440"	"0.0-5.0-2.0-0.32"	"vetlbl"	"600"	"1366"	"chrome"	"108.0.0"	"FALSE"	"Windows 10"	"60.13"	"131"	n/a	n/a	n/a	n/a	n/a	n/a	"fixation"	n/a	n/a	n/a	n/a	"NULL"	n/a	"NULL"	"NULL"	"NULL"	"<p style=\"color: black; font-size: 80px; padding-left: 24%; padding-right: 17%; padding-top: 36%; padding-bottom: 22%\">+</p>"	"1466"	n/a	n/a	n/a	n/a	n/a	n/a	n/a	n/a	n/a
n/a	"image-keyboard-response"	"118"	"392960"	"0.0-5.0-2.0-1.32"	"vetlbl"	"600"	"1366"	"chrome"	"108.0.0"	"FALSE"	"Windows 10"	"60.13"	"131"	n/a	n/a	n/a	n/a	n/a	n/a	"Trial"	n/a	n/a	n/a	"520"	"arrowleft"	n/a	"NULL"	"NULL"	"NULL"	"stimuli/VerticalHorizontal_-3.3000_-0.0673.png"	n/a	"VerticalHorizontal"	"arrowright"	"1483"	"FALSE"	"VerticalHorizontal"	"-3.300000000"	"-0.067300000"	"1"	"51"
n/a	"html-keyboard-response"	"119"	"394115"	"0.0-5.0-2.0-0.33"	"vetlbl"	"600"	"1366"	"chrome"	"108.0.0"	"FALSE"	"Windows 10"	"60.13"	"131"	n/a	n/a	n/a	n/a	n/a	n/a	"fixation"	n/a	n/a	n/a	n/a	"NULL"	n/a	"NULL"	"NULL"	"NULL"	"<p style=\"color: black; font-size: 80px; padding-left: 22%; padding-right: 46%; padding-top: 48%; padding-bottom: 1%\">+</p>"	"1140"	n/a	n/a	n/a	n/a	n/a	n/a	n/a	n/a	n/a
n/a	"image-keyboard-response"	"120"	"394634"	"0.0-5.0-2.0-1.33"	"vetlbl"	"600"	"1366"	"chrome"	"108.0.0"	"FALSE"	"Windows 10"	"60.13"	"131"	n/a	n/a	n/a	n/a	n/a	n/a	"Trial"	n/a	n/a	n/a	"519"	"arrowleft"	n/a	"NULL"	"NULL"	"NULL"	"stimuli/VerticalHorizontal_28.75714_-0.1096.png"	n/a	"VerticalHorizontal"	"arrowright"	"1155"	"FALSE"	"VerticalHorizontal"	"28.757140000"	"-0.109600000"	"1"	"52"
n/a	"html-keyboard-response"	"121"	"395746"	"0.0-5.0-2.0-0.34"	"vetlbl"	"600"	"1366"	"chrome"	"108.0.0"	"FALSE"	"Windows 10"	"60.13"	"131"	n/a	n/a	n/a	n/a	n/a	n/a	"fixation"	n/a	n/a	n/a	n/a	"NULL"	n/a	"NULL"	"NULL"	"NULL"	"<p style=\"color: black; font-size: 80px; padding-left: 45%; padding-right: 30%; padding-top: 39%; padding-bottom: 46%\">+</p>"	"1102"	n/a	n/a	n/a	n/a	n/a	n/a	n/a	n/a	n/a
n/a	"image-keyboard-response"	"122"	"396226"	"0.0-5.0-2.0-1.34"	"vetlbl"	"600"	"1366"	"chrome"	"108.0.0"	"FALSE"	"Windows 10"	"60.13"	"131"	n/a	n/a	n/a	n/a	n/a	n/a	"Trial"	n/a	n/a	n/a	"479"	"arrowleft"	n/a	"NULL"	"NULL"	"NULL"	"stimuli/VerticalHorizontal_-3.3000_0.22500.png"	n/a	"VerticalHorizontal"	"arrowleft"	"1112"	"TRUE"	"VerticalHorizontal"	"-3.300000000"	"0.2250000000"	"1"	"53"
n/a	"html-keyboard-response"	"123"	"397691"	"0.0-5.0-2.0-0.35"	"vetlbl"	"600"	"1366"	"chrome"	"108.0.0"	"FALSE"	"Windows 10"	"60.13"	"131"	n/a	n/a	n/a	n/a	n/a	n/a	"fixation"	n/a	n/a	n/a	n/a	"NULL"	n/a	"NULL"	"NULL"	"NULL"	"<p style=\"color: black; font-size: 80px; padding-left: 4%; padding-right: 8%; padding-top: 21%; padding-bottom: 13%\">+</p>"	"1456"	n/a	n/a	n/a	n/a	n/a	n/a	n/a	n/a	n/a
n/a	"image-keyboard-response"	"124"	"398287"	"0.0-5.0-2.0-1.35"	"vetlbl"	"600"	"1366"	"chrome"	"108.0.0"	"FALSE"	"Windows 10"	"60.13"	"131"	n/a	n/a	n/a	n/a	n/a	n/a	"Trial"	n/a	n/a	n/a	"595"	"arrowright"	n/a	"NULL"	"NULL"	"NULL"	"stimuli/VerticalHorizontal_28.75714_-0.16217.png"	n/a	"VerticalHorizontal"	"arrowright"	"1465"	"TRUE"	"VerticalHorizontal"	"28.757140000"	"-0.162170000"	"1"	"54"
n/a	"html-keyboard-response"	"125"	"399507"	"0.0-5.0-2.0-0.36"	"vetlbl"	"600"	"1366"	"chrome"	"108.0.0"	"FALSE"	"Windows 10"	"60.13"	"131"	n/a	n/a	n/a	n/a	n/a	n/a	"fixation"	n/a	n/a	n/a	n/a	"NULL"	n/a	"NULL"	"NULL"	"NULL"	"<p style=\"color: black; font-size: 80px; padding-left: 17%; padding-right: 9%; padding-top: 8%; padding-bottom: 27%\">+</p>"	"1207"	n/a	n/a	n/a	n/a	n/a	n/a	n/a	n/a	n/a
n/a	"image-keyboard-response"	"126"	"400002"	"0.0-5.0-2.0-1.36"	"vetlbl"	"600"	"1366"	"chrome"	"108.0.0"	"FALSE"	"Windows 10"	"60.13"	"131"	n/a	n/a	n/a	n/a	n/a	n/a	"Trial"	n/a	n/a	n/a	"493"	"arrowleft"	n/a	"NULL"	"NULL"	"NULL"	"stimuli/VerticalHorizontal_-20.27143_0.06730.png"	n/a	"VerticalHorizontal"	"arrowleft"	"1220"	"TRUE"	"VerticalHorizontal"	"-20.27143000"	"0.0673000000"	"1"	"55"
n/a	"html-keyboard-response"	"127"	"401024"	"0.0-5.0-2.0-0.37"	"vetlbl"	"600"	"1366"	"chrome"	"108.0.0"	"FALSE"	"Windows 10"	"60.13"	"131"	n/a	n/a	n/a	n/a	n/a	n/a	"fixation"	n/a	n/a	n/a	n/a	"NULL"	n/a	"NULL"	"NULL"	"NULL"	"<p style=\"color: black; font-size: 80px; padding-left: 30%; padding-right: 19%; padding-top: 22%; padding-bottom: 35%\">+</p>"	"1019"	n/a	n/a	n/a	n/a	n/a	n/a	n/a	n/a	n/a
n/a	"image-keyboard-response"	"128"	"401447"	"0.0-5.0-2.0-1.37"	"vetlbl"	"600"	"1366"	"chrome"	"108.0.0"	"FALSE"	"Windows 10"	"60.13"	"131"	n/a	n/a	n/a	n/a	n/a	n/a	"Trial"	n/a	n/a	n/a	"422"	"arrowleft"	n/a	"NULL"	"NULL"	"NULL"	"stimuli/VerticalHorizontal_-28.75714_0.10960.png"	n/a	"VerticalHorizontal"	"arrowleft"	"1022"	"TRUE"	"VerticalHorizontal"	"-28.75714000"	"0.1096000000"	"1"	"56"
n/a	"html-keyboard-response"	"129"	"402748"	"0.0-5.0-2.0-0.38"	"vetlbl"	"600"	"1366"	"chrome"	"108.0.0"	"FALSE"	"Windows 10"	"60.13"	"131"	n/a	n/a	n/a	n/a	n/a	n/a	"fixation"	n/a	n/a	n/a	n/a	"NULL"	n/a	"NULL"	"NULL"	"NULL"	"<p style=\"color: black; font-size: 80px; padding-left: 18%; padding-right: 29%; padding-top: 5%; padding-bottom: 1%\">+</p>"	"1291"	n/a	n/a	n/a	n/a	n/a	n/a	n/a	n/a	n/a
n/a	"image-keyboard-response"	"130"	"403170"	"0.0-5.0-2.0-1.38"	"vetlbl"	"600"	"1366"	"chrome"	"108.0.0"	"FALSE"	"Windows 10"	"60.13"	"131"	n/a	n/a	n/a	n/a	n/a	n/a	"Trial"	n/a	n/a	n/a	"421"	"arrowright"	n/a	"NULL"	"NULL"	"NULL"	"stimuli/VerticalHorizontal_-3.3000_-0.1096.png"	n/a	"VerticalHorizontal"	"arrowright"	"1301"	"TRUE"	"VerticalHorizontal"	"-3.300000000"	"-0.109600000"	"1"	"57"
n/a	"html-keyboard-response"	"131"	"404473"	"0.0-5.0-2.0-0.39"	"vetlbl"	"600"	"1366"	"chrome"	"108.0.0"	"FALSE"	"Windows 10"	"60.13"	"131"	n/a	n/a	n/a	n/a	n/a	n/a	"fixation"	n/a	n/a	n/a	n/a	"NULL"	n/a	"NULL"	"NULL"	"NULL"	"<p style=\"color: black; font-size: 80px; padding-left: 24%; padding-right: 22%; padding-top: 44%; padding-bottom: 36%\">+</p>"	"1297"	n/a	n/a	n/a	n/a	n/a	n/a	n/a	n/a	n/a
n/a	"image-keyboard-response"	"132"	"405024"	"0.0-5.0-2.0-1.39"	"vetlbl"	"600"	"1366"	"chrome"	"108.0.0"	"FALSE"	"Windows 10"	"60.13"	"131"	n/a	n/a	n/a	n/a	n/a	n/a	"Trial"	n/a	n/a	n/a	"550"	"arrowright"	n/a	"NULL"	"NULL"	"NULL"	"stimuli/VerticalHorizontal_-20.27143_-0.0673.png"	n/a	"VerticalHorizontal"	"arrowright"	"1303"	"TRUE"	"VerticalHorizontal"	"-20.27143000"	"-0.067300000"	"1"	"58"
n/a	"html-keyboard-response"	"133"	"406314"	"0.0-5.0-2.0-0.40"	"vetlbl"	"600"	"1366"	"chrome"	"108.0.0"	"FALSE"	"Windows 10"	"60.13"	"131"	n/a	n/a	n/a	n/a	n/a	n/a	"fixation"	n/a	n/a	n/a	n/a	"NULL"	n/a	"NULL"	"NULL"	"NULL"	"<p style=\"color: black; font-size: 80px; padding-left: 24%; padding-right: 14%; padding-top: 0%; padding-bottom: 38%\">+</p>"	"1274"	n/a	n/a	n/a	n/a	n/a	n/a	n/a	n/a	n/a
n/a	"image-keyboard-response"	"134"	"406720"	"0.0-5.0-2.0-1.40"	"vetlbl"	"600"	"1366"	"chrome"	"108.0.0"	"FALSE"	"Windows 10"	"60.13"	"131"	n/a	n/a	n/a	n/a	n/a	n/a	"Trial"	n/a	n/a	n/a	"405"	"arrowright"	n/a	"NULL"	"NULL"	"NULL"	"stimuli/VerticalHorizontal_-11.78571_-0.2250.png"	n/a	"VerticalHorizontal"	"arrowright"	"1290"	"TRUE"	"VerticalHorizontal"	"-11.78571000"	"-0.225000000"	"1"	"59"
n/a	"html-keyboard-response"	"135"	"407986"	"0.0-5.0-2.0-0.41"	"vetlbl"	"600"	"1366"	"chrome"	"108.0.0"	"FALSE"	"Windows 10"	"60.13"	"131"	n/a	n/a	n/a	n/a	n/a	n/a	"fixation"	n/a	n/a	n/a	n/a	"NULL"	n/a	"NULL"	"NULL"	"NULL"	"<p style=\"color: black; font-size: 80px; padding-left: 50%; padding-right: 18%; padding-top: 12%; padding-bottom: 12%\">+</p>"	"1258"	n/a	n/a	n/a	n/a	n/a	n/a	n/a	n/a	n/a
n/a	"image-keyboard-response"	"136"	"408458"	"0.0-5.0-2.0-1.41"	"vetlbl"	"600"	"1366"	"chrome"	"108.0.0"	"FALSE"	"Windows 10"	"60.13"	"131"	n/a	n/a	n/a	n/a	n/a	n/a	"Trial"	n/a	n/a	n/a	"471"	"arrowleft"	n/a	"NULL"	"NULL"	"NULL"	"stimuli/VerticalHorizontal_11.78571_0.06730.png"	n/a	"VerticalHorizontal"	"arrowleft"	"1266"	"TRUE"	"VerticalHorizontal"	"11.785710000"	"0.0673000000"	"1"	"60"
n/a	"html-keyboard-response"	"137"	"409579"	"0.0-5.0-2.0-0.42"	"vetlbl"	"600"	"1366"	"chrome"	"108.0.0"	"FALSE"	"Windows 10"	"60.13"	"131"	n/a	n/a	n/a	n/a	n/a	n/a	"fixation"	n/a	n/a	n/a	n/a	"NULL"	n/a	"NULL"	"NULL"	"NULL"	"<p style=\"color: black; font-size: 80px; padding-left: 17%; padding-right: 19%; padding-top: 42%; padding-bottom: 50%\">+</p>"	"1106"	n/a	n/a	n/a	n/a	n/a	n/a	n/a	n/a	n/a
n/a	"image-keyboard-response"	"138"	"409974"	"0.0-5.0-2.0-1.42"	"vetlbl"	"600"	"1366"	"chrome"	"108.0.0"	"FALSE"	"Windows 10"	"60.13"	"131"	n/a	n/a	n/a	n/a	n/a	n/a	"Trial"	n/a	n/a	n/a	"394"	"arrowright"	n/a	"NULL"	"NULL"	"NULL"	"stimuli/VerticalHorizontal_-20.27143_-0.2250.png"	n/a	"VerticalHorizontal"	"arrowright"	"1121"	"TRUE"	"VerticalHorizontal"	"-20.27143000"	"-0.225000000"	"1"	"61"
n/a	"html-keyboard-response"	"139"	"411288"	"0.0-5.0-2.0-0.43"	"vetlbl"	"600"	"1366"	"chrome"	"108.0.0"	"FALSE"	"Windows 10"	"60.13"	"131"	n/a	n/a	n/a	n/a	n/a	n/a	"fixation"	n/a	n/a	n/a	n/a	"NULL"	n/a	"NULL"	"NULL"	"NULL"	"<p style=\"color: black; font-size: 80px; padding-left: 47%; padding-right: 48%; padding-top: 44%; padding-bottom: 25%\">+</p>"	"1304"	n/a	n/a	n/a	n/a	n/a	n/a	n/a	n/a	n/a
n/a	"image-keyboard-response"	"140"	"411723"	"0.0-5.0-2.0-1.43"	"vetlbl"	"600"	"1366"	"chrome"	"108.0.0"	"FALSE"	"Windows 10"	"60.13"	"131"	n/a	n/a	n/a	n/a	n/a	n/a	"Trial"	n/a	n/a	n/a	"435"	"arrowleft"	n/a	"NULL"	"NULL"	"NULL"	"stimuli/VerticalHorizontal_28.75714_-0.0673.png"	n/a	"VerticalHorizontal"	"arrowright"	"1314"	"FALSE"	"VerticalHorizontal"	"28.757140000"	"-0.067300000"	"1"	"62"
n/a	"html-keyboard-response"	"141"	"413214"	"0.0-5.0-2.0-0.44"	"vetlbl"	"600"	"1366"	"chrome"	"108.0.0"	"FALSE"	"Windows 10"	"60.13"	"131"	n/a	n/a	n/a	n/a	n/a	n/a	"fixation"	n/a	n/a	n/a	n/a	"NULL"	n/a	"NULL"	"NULL"	"NULL"	"<p style=\"color: black; font-size: 80px; padding-left: 6%; padding-right: 31%; padding-top: 16%; padding-bottom: 28%\">+</p>"	"1467"	n/a	n/a	n/a	n/a	n/a	n/a	n/a	n/a	n/a
n/a	"image-keyboard-response"	"142"	"413703"	"0.0-5.0-2.0-1.44"	"vetlbl"	"600"	"1366"	"chrome"	"108.0.0"	"FALSE"	"Windows 10"	"60.13"	"131"	n/a	n/a	n/a	n/a	n/a	n/a	"Trial"	n/a	n/a	n/a	"487"	"arrowleft"	n/a	"NULL"	"NULL"	"NULL"	"stimuli/VerticalHorizontal_11.78571_0.22500.png"	n/a	"VerticalHorizontal"	"arrowleft"	"1491"	"TRUE"	"VerticalHorizontal"	"11.785710000"	"0.2250000000"	"1"	"63"
n/a	"html-keyboard-response"	"143"	"414971"	"0.0-5.0-2.0-0.45"	"vetlbl"	"600"	"1366"	"chrome"	"108.0.0"	"FALSE"	"Windows 10"	"60.13"	"131"	n/a	n/a	n/a	n/a	n/a	n/a	"fixation"	n/a	n/a	n/a	n/a	"NULL"	n/a	"NULL"	"NULL"	"NULL"	"<p style=\"color: black; font-size: 80px; padding-left: 16%; padding-right: 8%; padding-top: 18%; padding-bottom: 26%\">+</p>"	"1257"	n/a	n/a	n/a	n/a	n/a	n/a	n/a	n/a	n/a
n/a	"image-keyboard-response"	"144"	"415401"	"0.0-5.0-2.0-1.45"	"vetlbl"	"600"	"1366"	"chrome"	"108.0.0"	"FALSE"	"Windows 10"	"60.13"	"131"	n/a	n/a	n/a	n/a	n/a	n/a	"Trial"	n/a	n/a	n/a	"429"	"arrowleft"	n/a	"NULL"	"NULL"	"NULL"	"stimuli/VerticalHorizontal_-3.3000_0.06730.png"	n/a	"VerticalHorizontal"	"arrowleft"	"1268"	"TRUE"	"VerticalHorizontal"	"-3.300000000"	"0.0673000000"	"1"	"64"
n/a	"html-keyboard-response"	"145"	"416438"	"0.0-5.0-2.0-0.46"	"vetlbl"	"600"	"1366"	"chrome"	"108.0.0"	"FALSE"	"Windows 10"	"60.13"	"131"	n/a	n/a	n/a	n/a	n/a	n/a	"fixation"	n/a	n/a	n/a	n/a	"NULL"	n/a	"NULL"	"NULL"	"NULL"	"<p style=\"color: black; font-size: 80px; padding-left: 40%; padding-right: 21%; padding-top: 22%; padding-bottom: 14%\">+</p>"	"1027"	n/a	n/a	n/a	n/a	n/a	n/a	n/a	n/a	n/a
n/a	"image-keyboard-response"	"146"	"416849"	"0.0-5.0-2.0-1.46"	"vetlbl"	"600"	"1366"	"chrome"	"108.0.0"	"FALSE"	"Windows 10"	"60.13"	"131"	n/a	n/a	n/a	n/a	n/a	n/a	"Trial"	n/a	n/a	n/a	"410"	"arrowright"	n/a	"NULL"	"NULL"	"NULL"	"stimuli/VerticalHorizontal_-20.27143_-0.1096.png"	n/a	"VerticalHorizontal"	"arrowright"	"1037"	"TRUE"	"VerticalHorizontal"	"-20.27143000"	"-0.109600000"	"1"	"65"
n/a	"html-keyboard-response"	"147"	"418283"	"0.0-5.0-2.0-0.47"	"vetlbl"	"600"	"1366"	"chrome"	"108.0.0"	"FALSE"	"Windows 10"	"60.13"	"131"	n/a	n/a	n/a	n/a	n/a	n/a	"fixation"	n/a	n/a	n/a	n/a	"NULL"	n/a	"NULL"	"NULL"	"NULL"	"<p style=\"color: black; font-size: 80px; padding-left: 1%; padding-right: 29%; padding-top: 10%; padding-bottom: 26%\">+</p>"	"1419"	n/a	n/a	n/a	n/a	n/a	n/a	n/a	n/a	n/a
n/a	"image-keyboard-response"	"148"	"418648"	"0.0-5.0-2.0-1.47"	"vetlbl"	"600"	"1366"	"chrome"	"108.0.0"	"FALSE"	"Windows 10"	"60.13"	"131"	n/a	n/a	n/a	n/a	n/a	n/a	"Trial"	n/a	n/a	n/a	"364"	"arrowright"	n/a	"NULL"	"NULL"	"NULL"	"stimuli/VerticalHorizontal_-20.27143_-0.16217.png"	n/a	"VerticalHorizontal"	"arrowright"	"1434"	"TRUE"	"VerticalHorizontal"	"-20.27143000"	"-0.162170000"	"1"	"66"
n/a	"html-keyboard-response"	"149"	"420079"	"0.0-5.0-2.0-0.48"	"vetlbl"	"600"	"1366"	"chrome"	"108.0.0"	"FALSE"	"Windows 10"	"60.13"	"131"	n/a	n/a	n/a	n/a	n/a	n/a	"fixation"	n/a	n/a	n/a	n/a	"NULL"	n/a	"NULL"	"NULL"	"NULL"	"<p style=\"color: black; font-size: 80px; padding-left: 37%; padding-right: 35%; padding-top: 49%; padding-bottom: 40%\">+</p>"	"1412"	n/a	n/a	n/a	n/a	n/a	n/a	n/a	n/a	n/a
n/a	"image-keyboard-response"	"150"	"420376"	"0.0-5.0-2.0-1.48"	"vetlbl"	"600"	"1366"	"chrome"	"108.0.0"	"FALSE"	"Windows 10"	"60.13"	"131"	n/a	n/a	n/a	n/a	n/a	n/a	"Trial"	n/a	n/a	n/a	"296"	"arrowright"	n/a	"NULL"	"NULL"	"NULL"	"stimuli/VerticalHorizontal_3.30000_-0.0673.png"	n/a	"VerticalHorizontal"	"arrowright"	"1431"	"TRUE"	"VerticalHorizontal"	"3.3000000000"	"-0.067300000"	"1"	"67"
n/a	"html-keyboard-response"	"151"	"421885"	"0.0-5.0-2.0-0.49"	"vetlbl"	"600"	"1366"	"chrome"	"108.0.0"	"FALSE"	"Windows 10"	"60.13"	"131"	n/a	n/a	n/a	n/a	n/a	n/a	"fixation"	n/a	n/a	n/a	n/a	"NULL"	n/a	"NULL"	"NULL"	"NULL"	"<p style=\"color: black; font-size: 80px; padding-left: 47%; padding-right: 41%; padding-top: 38%; padding-bottom: 42%\">+</p>"	"1499"	n/a	n/a	n/a	n/a	n/a	n/a	n/a	n/a	n/a
n/a	"image-keyboard-response"	"152"	"422310"	"0.0-5.0-2.0-1.49"	"vetlbl"	"600"	"1366"	"chrome"	"108.0.0"	"FALSE"	"Windows 10"	"60.13"	"131"	n/a	n/a	n/a	n/a	n/a	n/a	"Trial"	n/a	n/a	n/a	"424"	"arrowleft"	n/a	"NULL"	"NULL"	"NULL"	"stimuli/VerticalHorizontal_3.30000_0.06730.png"	n/a	"VerticalHorizontal"	"arrowleft"	"1509"	"TRUE"	"VerticalHorizontal"	"3.3000000000"	"0.0673000000"	"1"	"68"
n/a	"html-keyboard-response"	"153"	"423649"	"0.0-5.0-2.0-0.50"	"vetlbl"	"600"	"1366"	"chrome"	"108.0.0"	"FALSE"	"Windows 10"	"60.13"	"131"	n/a	n/a	n/a	n/a	n/a	n/a	"fixation"	n/a	n/a	n/a	n/a	"NULL"	n/a	"NULL"	"NULL"	"NULL"	"<p style=\"color: black; font-size: 80px; padding-left: 17%; padding-right: 44%; padding-top: 22%; padding-bottom: 8%\">+</p>"	"1326"	n/a	n/a	n/a	n/a	n/a	n/a	n/a	n/a	n/a
n/a	"image-keyboard-response"	"154"	"424075"	"0.0-5.0-2.0-1.50"	"vetlbl"	"600"	"1366"	"chrome"	"108.0.0"	"FALSE"	"Windows 10"	"60.13"	"131"	n/a	n/a	n/a	n/a	n/a	n/a	"Trial"	n/a	n/a	n/a	"421"	"arrowright"	n/a	"NULL"	"NULL"	"NULL"	"stimuli/VerticalHorizontal_20.27143_0.10960.png"	n/a	"VerticalHorizontal"	"arrowleft"	"1339"	"FALSE"	"VerticalHorizontal"	"20.271430000"	"0.1096000000"	"1"	"69"
n/a	"html-keyboard-response"	"155"	"425528"	"0.0-5.0-2.0-0.51"	"vetlbl"	"600"	"1366"	"chrome"	"108.0.0"	"FALSE"	"Windows 10"	"60.13"	"131"	n/a	n/a	n/a	n/a	n/a	n/a	"fixation"	n/a	n/a	n/a	n/a	"NULL"	n/a	"NULL"	"NULL"	"NULL"	"<p style=\"color: black; font-size: 80px; padding-left: 7%; padding-right: 23%; padding-top: 40%; padding-bottom: 42%\">+</p>"	"1444"	n/a	n/a	n/a	n/a	n/a	n/a	n/a	n/a	n/a
n/a	"image-keyboard-response"	"156"	"425943"	"0.0-5.0-2.0-1.51"	"vetlbl"	"600"	"1366"	"chrome"	"108.0.0"	"FALSE"	"Windows 10"	"60.13"	"131"	n/a	n/a	n/a	n/a	n/a	n/a	"Trial"	n/a	n/a	n/a	"413"	"arrowright"	n/a	"NULL"	"NULL"	"NULL"	"stimuli/VerticalHorizontal_3.30000_-0.2250.png"	n/a	"VerticalHorizontal"	"arrowright"	"1453"	"TRUE"	"VerticalHorizontal"	"3.3000000000"	"-0.225000000"	"1"	"70"
n/a	"html-keyboard-response"	"157"	"427206"	"0.0-5.0-2.0-0.52"	"vetlbl"	"600"	"1366"	"chrome"	"108.0.0"	"FALSE"	"Windows 10"	"60.13"	"131"	n/a	n/a	n/a	n/a	n/a	n/a	"fixation"	n/a	n/a	n/a	n/a	"NULL"	n/a	"NULL"	"NULL"	"NULL"	"<p style=\"color: black; font-size: 80px; padding-left: 43%; padding-right: 25%; padding-top: 2%; padding-bottom: 23%\">+</p>"	"1247"	n/a	n/a	n/a	n/a	n/a	n/a	n/a	n/a	n/a
n/a	"image-keyboard-response"	"158"	"427635"	"0.0-5.0-2.0-1.52"	"vetlbl"	"600"	"1366"	"chrome"	"108.0.0"	"FALSE"	"Windows 10"	"60.13"	"131"	n/a	n/a	n/a	n/a	n/a	n/a	"Trial"	n/a	n/a	n/a	"428"	"arrowleft"	n/a	"NULL"	"NULL"	"NULL"	"stimuli/VerticalHorizontal_-28.75714_0.16217.png"	n/a	"VerticalHorizontal"	"arrowleft"	"1263"	"TRUE"	"VerticalHorizontal"	"-28.75714000"	"0.1621700000"	"1"	"71"
n/a	"html-keyboard-response"	"159"	"428674"	"0.0-5.0-2.0-0.53"	"vetlbl"	"600"	"1366"	"chrome"	"108.0.0"	"FALSE"	"Windows 10"	"60.13"	"131"	n/a	n/a	n/a	n/a	n/a	n/a	"fixation"	n/a	n/a	n/a	n/a	"NULL"	n/a	"NULL"	"NULL"	"NULL"	"<p style=\"color: black; font-size: 80px; padding-left: 2%; padding-right: 17%; padding-top: 15%; padding-bottom: 20%\">+</p>"	"1019"	n/a	n/a	n/a	n/a	n/a	n/a	n/a	n/a	n/a
n/a	"image-keyboard-response"	"160"	"429089"	"0.0-5.0-2.0-1.53"	"vetlbl"	"600"	"1366"	"chrome"	"108.0.0"	"FALSE"	"Windows 10"	"60.13"	"131"	n/a	n/a	n/a	n/a	n/a	n/a	"Trial"	n/a	n/a	n/a	"415"	"arrowleft"	n/a	"NULL"	"NULL"	"NULL"	"stimuli/VerticalHorizontal_-20.27143_0.16217.png"	n/a	"VerticalHorizontal"	"arrowleft"	"1039"	"TRUE"	"VerticalHorizontal"	"-20.27143000"	"0.1621700000"	"1"	"72"
n/a	"html-keyboard-response"	"161"	"430144"	"0.0-5.0-2.0-0.54"	"vetlbl"	"600"	"1366"	"chrome"	"108.0.0"	"FALSE"	"Windows 10"	"60.13"	"131"	n/a	n/a	n/a	n/a	n/a	n/a	"fixation"	n/a	n/a	n/a	n/a	"NULL"	n/a	"NULL"	"NULL"	"NULL"	"<p style=\"color: black; font-size: 80px; padding-left: 15%; padding-right: 45%; padding-top: 26%; padding-bottom: 8%\">+</p>"	"1047"	n/a	n/a	n/a	n/a	n/a	n/a	n/a	n/a	n/a
n/a	"image-keyboard-response"	"162"	"430612"	"0.0-5.0-2.0-1.54"	"vetlbl"	"600"	"1366"	"chrome"	"108.0.0"	"FALSE"	"Windows 10"	"60.13"	"131"	n/a	n/a	n/a	n/a	n/a	n/a	"Trial"	n/a	n/a	n/a	"466"	"arrowright"	n/a	"NULL"	"NULL"	"NULL"	"stimuli/VerticalHorizontal_-11.78571_-0.0673.png"	n/a	"VerticalHorizontal"	"arrowright"	"1055"	"TRUE"	"VerticalHorizontal"	"-11.78571000"	"-0.067300000"	"1"	"73"
n/a	"html-keyboard-response"	"163"	"432056"	"0.0-5.0-2.0-0.55"	"vetlbl"	"600"	"1366"	"chrome"	"108.0.0"	"FALSE"	"Windows 10"	"60.13"	"131"	n/a	n/a	n/a	n/a	n/a	n/a	"fixation"	n/a	n/a	n/a	n/a	"NULL"	n/a	"NULL"	"NULL"	"NULL"	"<p style=\"color: black; font-size: 80px; padding-left: 24%; padding-right: 18%; padding-top: 37%; padding-bottom: 14%\">+</p>"	"1435"	n/a	n/a	n/a	n/a	n/a	n/a	n/a	n/a	n/a
n/a	"image-keyboard-response"	"164"	"432465"	"0.0-5.0-2.0-1.55"	"vetlbl"	"600"	"1366"	"chrome"	"108.0.0"	"FALSE"	"Windows 10"	"60.13"	"131"	n/a	n/a	n/a	n/a	n/a	n/a	"Trial"	n/a	n/a	n/a	"406"	"arrowleft"	n/a	"NULL"	"NULL"	"NULL"	"stimuli/VerticalHorizontal_-11.78571_0.16217.png"	n/a	"VerticalHorizontal"	"arrowleft"	"1444"	"TRUE"	"VerticalHorizontal"	"-11.78571000"	"0.1621700000"	"1"	"74"
n/a	"html-keyboard-response"	"165"	"433772"	"0.0-5.0-2.0-0.56"	"vetlbl"	"600"	"1366"	"chrome"	"108.0.0"	"FALSE"	"Windows 10"	"60.13"	"131"	n/a	n/a	n/a	n/a	n/a	n/a	"fixation"	n/a	n/a	n/a	n/a	"NULL"	n/a	"NULL"	"NULL"	"NULL"	"<p style=\"color: black; font-size: 80px; padding-left: 28%; padding-right: 41%; padding-top: 24%; padding-bottom: 36%\">+</p>"	"1286"	n/a	n/a	n/a	n/a	n/a	n/a	n/a	n/a	n/a
n/a	"image-keyboard-response"	"166"	"434180"	"0.0-5.0-2.0-1.56"	"vetlbl"	"600"	"1366"	"chrome"	"108.0.0"	"FALSE"	"Windows 10"	"60.13"	"131"	n/a	n/a	n/a	n/a	n/a	n/a	"Trial"	n/a	n/a	n/a	"407"	"arrowright"	n/a	"NULL"	"NULL"	"NULL"	"stimuli/VerticalHorizontal_-3.3000_-0.2250.png"	n/a	"VerticalHorizontal"	"arrowright"	"1307"	"TRUE"	"VerticalHorizontal"	"-3.300000000"	"-0.225000000"	"1"	"75"
n/a	"html-keyboard-response"	"167"	"435609"	"0.0-5.0-2.0-0.57"	"vetlbl"	"600"	"1366"	"chrome"	"108.0.0"	"FALSE"	"Windows 10"	"60.13"	"131"	n/a	n/a	n/a	n/a	n/a	n/a	"fixation"	n/a	n/a	n/a	n/a	"NULL"	n/a	"NULL"	"NULL"	"NULL"	"<p style=\"color: black; font-size: 80px; padding-left: 11%; padding-right: 1%; padding-top: 50%; padding-bottom: 1%\">+</p>"	"1416"	n/a	n/a	n/a	n/a	n/a	n/a	n/a	n/a	n/a
n/a	"image-keyboard-response"	"168"	"435925"	"0.0-5.0-2.0-1.57"	"vetlbl"	"600"	"1366"	"chrome"	"108.0.0"	"FALSE"	"Windows 10"	"60.13"	"131"	n/a	n/a	n/a	n/a	n/a	n/a	"Trial"	n/a	n/a	n/a	"314"	"arrowright"	n/a	"NULL"	"NULL"	"NULL"	"stimuli/VerticalHorizontal_20.27143_0.16217.png"	n/a	"VerticalHorizontal"	"arrowleft"	"1429"	"FALSE"	"VerticalHorizontal"	"20.271430000"	"0.1621700000"	"1"	"76"
n/a	"html-keyboard-response"	"169"	"437362"	"0.0-5.0-2.0-0.58"	"vetlbl"	"600"	"1366"	"chrome"	"108.0.0"	"FALSE"	"Windows 10"	"60.13"	"131"	n/a	n/a	n/a	n/a	n/a	n/a	"fixation"	n/a	n/a	n/a	n/a	"NULL"	n/a	"NULL"	"NULL"	"NULL"	"<p style=\"color: black; font-size: 80px; padding-left: 41%; padding-right: 4%; padding-top: 4%; padding-bottom: 28%\">+</p>"	"1433"	n/a	n/a	n/a	n/a	n/a	n/a	n/a	n/a	n/a
n/a	"image-keyboard-response"	"170"	"437811"	"0.0-5.0-2.0-1.58"	"vetlbl"	"600"	"1366"	"chrome"	"108.0.0"	"FALSE"	"Windows 10"	"60.13"	"131"	n/a	n/a	n/a	n/a	n/a	n/a	"Trial"	n/a	n/a	n/a	"447"	"arrowleft"	n/a	"NULL"	"NULL"	"NULL"	"stimuli/VerticalHorizontal_-11.78571_0.06730.png"	n/a	"VerticalHorizontal"	"arrowleft"	"1437"	"TRUE"	"VerticalHorizontal"	"-11.78571000"	"0.0673000000"	"1"	"77"
n/a	"html-keyboard-response"	"171"	"439080"	"0.0-5.0-2.0-0.59"	"vetlbl"	"600"	"1366"	"chrome"	"108.0.0"	"FALSE"	"Windows 10"	"60.13"	"131"	n/a	n/a	n/a	n/a	n/a	n/a	"fixation"	n/a	n/a	n/a	n/a	"NULL"	n/a	"NULL"	"NULL"	"NULL"	"<p style=\"color: black; font-size: 80px; padding-left: 36%; padding-right: 6%; padding-top: 22%; padding-bottom: 39%\">+</p>"	"1253"	n/a	n/a	n/a	n/a	n/a	n/a	n/a	n/a	n/a
n/a	"image-keyboard-response"	"172"	"439491"	"0.0-5.0-2.0-1.59"	"vetlbl"	"600"	"1366"	"chrome"	"108.0.0"	"FALSE"	"Windows 10"	"60.13"	"131"	n/a	n/a	n/a	n/a	n/a	n/a	"Trial"	n/a	n/a	n/a	"410"	"arrowright"	n/a	"NULL"	"NULL"	"NULL"	"stimuli/VerticalHorizontal_28.75714_0.16217.png"	n/a	"VerticalHorizontal"	"arrowleft"	"1269"	"FALSE"	"VerticalHorizontal"	"28.757140000"	"0.1621700000"	"1"	"78"
n/a	"html-keyboard-response"	"173"	"440518"	"0.0-5.0-2.0-0.60"	"vetlbl"	"600"	"1366"	"chrome"	"108.0.0"	"FALSE"	"Windows 10"	"60.13"	"131"	n/a	n/a	n/a	n/a	n/a	n/a	"fixation"	n/a	n/a	n/a	n/a	"NULL"	n/a	"NULL"	"NULL"	"NULL"	"<p style=\"color: black; font-size: 80px; padding-left: 30%; padding-right: 41%; padding-top: 16%; padding-bottom: 43%\">+</p>"	"1004"	n/a	n/a	n/a	n/a	n/a	n/a	n/a	n/a	n/a
n/a	"image-keyboard-response"	"174"	"440947"	"0.0-5.0-2.0-1.60"	"vetlbl"	"600"	"1366"	"chrome"	"108.0.0"	"FALSE"	"Windows 10"	"60.13"	"131"	n/a	n/a	n/a	n/a	n/a	n/a	"Trial"	n/a	n/a	n/a	"428"	"arrowleft"	n/a	"NULL"	"NULL"	"NULL"	"stimuli/VerticalHorizontal_11.78571_0.16217.png"	n/a	"VerticalHorizontal"	"arrowleft"	"1027"	"TRUE"	"VerticalHorizontal"	"11.785710000"	"0.1621700000"	"1"	"79"
n/a	"html-keyboard-response"	"175"	"442273"	"0.0-5.0-2.0-0.61"	"vetlbl"	"600"	"1366"	"chrome"	"108.0.0"	"FALSE"	"Windows 10"	"60.13"	"131"	n/a	n/a	n/a	n/a	n/a	n/a	"fixation"	n/a	n/a	n/a	n/a	"NULL"	n/a	"NULL"	"NULL"	"NULL"	"<p style=\"color: black; font-size: 80px; padding-left: 39%; padding-right: 18%; padding-top: 27%; padding-bottom: 28%\">+</p>"	"1321"	n/a	n/a	n/a	n/a	n/a	n/a	n/a	n/a	n/a
n/a	"image-keyboard-response"	"176"	"442729"	"0.0-5.0-2.0-1.61"	"vetlbl"	"600"	"1366"	"chrome"	"108.0.0"	"FALSE"	"Windows 10"	"60.13"	"131"	n/a	n/a	n/a	n/a	n/a	n/a	"Trial"	n/a	n/a	n/a	"455"	"arrowleft"	n/a	"NULL"	"NULL"	"NULL"	"stimuli/VerticalHorizontal_11.78571_0.10960.png"	n/a	"VerticalHorizontal"	"arrowleft"	"1326"	"TRUE"	"VerticalHorizontal"	"11.785710000"	"0.1096000000"	"1"	"80"
n/a	"html-keyboard-response"	"177"	"444018"	"0.0-5.0-2.0-0.62"	"vetlbl"	"600"	"1366"	"chrome"	"108.0.0"	"FALSE"	"Windows 10"	"60.13"	"131"	n/a	n/a	n/a	n/a	n/a	n/a	"fixation"	n/a	n/a	n/a	n/a	"NULL"	n/a	"NULL"	"NULL"	"NULL"	"<p style=\"color: black; font-size: 80px; padding-left: 36%; padding-right: 48%; padding-top: 24%; padding-bottom: 49%\">+</p>"	"1281"	n/a	n/a	n/a	n/a	n/a	n/a	n/a	n/a	n/a
n/a	"image-keyboard-response"	"178"	"444413"	"0.0-5.0-2.0-1.62"	"vetlbl"	"600"	"1366"	"chrome"	"108.0.0"	"FALSE"	"Windows 10"	"60.13"	"131"	n/a	n/a	n/a	n/a	n/a	n/a	"Trial"	n/a	n/a	n/a	"394"	"arrowright"	n/a	"NULL"	"NULL"	"NULL"	"stimuli/VerticalHorizontal_-28.75714_-0.0673.png"	n/a	"VerticalHorizontal"	"arrowright"	"1289"	"TRUE"	"VerticalHorizontal"	"-28.75714000"	"-0.067300000"	"1"	"81"
n/a	"html-keyboard-response"	"179"	"445701"	"0.0-5.0-2.0-0.63"	"vetlbl"	"600"	"1366"	"chrome"	"108.0.0"	"FALSE"	"Windows 10"	"60.13"	"131"	n/a	n/a	n/a	n/a	n/a	n/a	"fixation"	n/a	n/a	n/a	n/a	"NULL"	n/a	"NULL"	"NULL"	"NULL"	"<p style=\"color: black; font-size: 80px; padding-left: 21%; padding-right: 5%; padding-top: 38%; padding-bottom: 19%\">+</p>"	"1278"	n/a	n/a	n/a	n/a	n/a	n/a	n/a	n/a	n/a
n/a	"image-keyboard-response"	"180"	"446274"	"0.0-5.0-2.0-1.63"	"vetlbl"	"600"	"1366"	"chrome"	"108.0.0"	"FALSE"	"Windows 10"	"60.13"	"131"	n/a	n/a	n/a	n/a	n/a	n/a	"Trial"	n/a	n/a	n/a	"572"	"arrowright"	n/a	"NULL"	"NULL"	"NULL"	"stimuli/VerticalHorizontal_11.78571_-0.0673.png"	n/a	"VerticalHorizontal"	"arrowright"	"1288"	"TRUE"	"VerticalHorizontal"	"11.785710000"	"-0.067300000"	"1"	"82"
n/a	"html-button-response"	"181"	"470969"	"0.0-5.0-3.0"	"vetlbl"	"600"	"1366"	"chrome"	"108.0.0"	"FALSE"	"Windows 10"	"60.13"	"131"	n/a	n/a	n/a	n/a	n/a	n/a	"block_results"	n/a	n/a	n/a	"24691"	"0"	n/a	"NULL"	"NULL"	"NULL"	"<p>Your score for this illusion is <p style=\"color: black; font-size: 48px; font-weight: bold;\">83.9 %</p><hr><p>Can you do better in the next illusion?</p>"	n/a	n/a	n/a	n/a	n/a	n/a	n/a	n/a	n/a	n/a
"TRUE"	"preload"	"182"	"471119"	"0.0-6.0-0.0"	"vetlbl"	"600"	"1366"	"chrome"	"108.0.0"	"FALSE"	"Windows 10"	"60.13"	"131"	n/a	n/a	n/a	n/a	n/a	n/a	n/a	n/a	n/a	n/a	n/a	"NULL"	"FALSE"	"list()"	"list()"	"list()"	n/a	n/a	n/a	n/a	n/a	n/a	n/a	n/a	n/a	n/a	n/a
n/a	"html-keyboard-response"	"183"	"477370"	"0.0-6.0-1.0"	"vetlbl"	"600"	"1366"	"chrome"	"108.0.0"	"FALSE"	"Windows 10"	"60.13"	"131"	n/a	n/a	n/a	n/a	n/a	n/a	n/a	n/a	n/a	n/a	"6250"	"enter"	n/a	"NULL"	"NULL"	"NULL"	"<p><b>Part 2/6</b></p><p>In this part, two horizontal red lines will appear one above the other.</p><p>Your task is to select which <b>line is longer</b> in length as fast as you can, without making errors.</p><p>Don't get distracted by the surrounding black arrows at the end of the red lines!</p><p>Press <b>the UP or the DOWN arrow</b> to indicate where is the longer <b>red line.</b></p><div style='float: center'><img src='materials/instructions/MullerLyer_Demo.png' height='300'></img><p><img src='utils/answer/answer_updown_keyboard.PNG' height='150'></img></p><p class='small'>In this example, the correct answer is the <b>UP arrow</b>.</p></div><p>Are you ready? <b>Press ENTER to start</b></p>"	n/a	n/a	n/a	n/a	n/a	n/a	n/a	n/a	n/a	n/a
n/a	"html-keyboard-response"	"184"	"479318"	"0.0-6.0-2.0-0.0"	"vetlbl"	"600"	"1366"	"chrome"	"108.0.0"	"FALSE"	"Windows 10"	"60.13"	"131"	n/a	n/a	n/a	n/a	n/a	n/a	"fixation"	n/a	n/a	n/a	n/a	"NULL"	n/a	"NULL"	"NULL"	"NULL"	"<p style=\"color: black; font-size: 80px; padding-left: 25%; padding-right: 37%; padding-top: 45%; padding-bottom: 15%\">+</p>"	"1431"	n/a	n/a	n/a	n/a	n/a	n/a	n/a	n/a	n/a
n/a	"image-keyboard-response"	"185"	"479871"	"0.0-6.0-2.0-1.0"	"vetlbl"	"600"	"1366"	"chrome"	"108.0.0"	"FALSE"	"Windows 10"	"60.13"	"131"	n/a	n/a	n/a	n/a	n/a	n/a	"Trial"	n/a	n/a	n/a	"552"	"arrowup"	n/a	"NULL"	"NULL"	"NULL"	"stimuli/MullerLyer_-8.21429_0.35000.png"	n/a	"MullerLyer"	"arrowup"	"1948"	"TRUE"	"MullerLyer"	"-8.214290000"	"0.3500000000"	"2"	"1"
n/a	"html-keyboard-response"	"186"	"480902"	"0.0-6.0-2.0-0.1"	"vetlbl"	"600"	"1366"	"chrome"	"108.0.0"	"FALSE"	"Windows 10"	"60.13"	"131"	n/a	n/a	n/a	n/a	n/a	n/a	"fixation"	n/a	n/a	n/a	n/a	"NULL"	n/a	"NULL"	"NULL"	"NULL"	"<p style=\"color: black; font-size: 80px; padding-left: 9%; padding-right: 7%; padding-top: 30%; padding-bottom: 6%\">+</p>"	"1020"	n/a	n/a	n/a	n/a	n/a	n/a	n/a	n/a	n/a
n/a	"image-keyboard-response"	"187"	"481359"	"0.0-6.0-2.0-1.1"	"vetlbl"	"600"	"1366"	"chrome"	"108.0.0"	"FALSE"	"Windows 10"	"60.13"	"131"	n/a	n/a	n/a	n/a	n/a	n/a	"Trial"	n/a	n/a	n/a	"457"	"arrowup"	n/a	"NULL"	"NULL"	"NULL"	"stimuli/MullerLyer_-14.12857_0.07627.png"	n/a	"MullerLyer"	"arrowup"	"1031"	"TRUE"	"MullerLyer"	"-14.12857000"	"0.0762700000"	"2"	"2"
n/a	"html-keyboard-response"	"188"	"482768"	"0.0-6.0-2.0-0.2"	"vetlbl"	"600"	"1366"	"chrome"	"108.0.0"	"FALSE"	"Windows 10"	"60.13"	"131"	n/a	n/a	n/a	n/a	n/a	n/a	"fixation"	n/a	n/a	n/a	n/a	"NULL"	n/a	"NULL"	"NULL"	"NULL"	"<p style=\"color: black; font-size: 80px; padding-left: 12%; padding-right: 49%; padding-top: 43%; padding-bottom: 9%\">+</p>"	"1399"	n/a	n/a	n/a	n/a	n/a	n/a	n/a	n/a	n/a
n/a	"image-keyboard-response"	"189"	"483173"	"0.0-6.0-2.0-1.2"	"vetlbl"	"600"	"1366"	"chrome"	"108.0.0"	"FALSE"	"Windows 10"	"60.13"	"131"	n/a	n/a	n/a	n/a	n/a	n/a	"Trial"	n/a	n/a	n/a	"403"	"arrowup"	n/a	"NULL"	"NULL"	"NULL"	"stimuli/MullerLyer_20.04286_-0.23665.png"	n/a	"MullerLyer"	"arrowdown"	"1409"	"FALSE"	"MullerLyer"	"20.042860000"	"-0.236650000"	"2"	"3"
n/a	"html-keyboard-response"	"190"	"484260"	"0.0-6.0-2.0-0.3"	"vetlbl"	"600"	"1366"	"chrome"	"108.0.0"	"FALSE"	"Windows 10"	"60.13"	"131"	n/a	n/a	n/a	n/a	n/a	n/a	"fixation"	n/a	n/a	n/a	n/a	"NULL"	n/a	"NULL"	"NULL"	"NULL"	"<p style=\"color: black; font-size: 80px; padding-left: 15%; padding-right: 20%; padding-top: 7%; padding-bottom: 26%\">+</p>"	"1067"	n/a	n/a	n/a	n/a	n/a	n/a	n/a	n/a	n/a
n/a	"image-keyboard-response"	"191"	"484891"	"0.0-6.0-2.0-1.3"	"vetlbl"	"600"	"1366"	"chrome"	"108.0.0"	"FALSE"	"Windows 10"	"60.13"	"131"	n/a	n/a	n/a	n/a	n/a	n/a	"Trial"	n/a	n/a	n/a	"629"	"arrowdown"	n/a	"NULL"	"NULL"	"NULL"	"stimuli/MullerLyer_2.30000_-0.14541.png"	n/a	"MullerLyer"	"arrowdown"	"1087"	"TRUE"	"MullerLyer"	"2.3000000000"	"-0.145410000"	"2"	"4"
n/a	"html-keyboard-response"	"192"	"486284"	"0.0-6.0-2.0-0.4"	"vetlbl"	"600"	"1366"	"chrome"	"108.0.0"	"FALSE"	"Windows 10"	"60.13"	"131"	n/a	n/a	n/a	n/a	n/a	n/a	"fixation"	n/a	n/a	n/a	n/a	"NULL"	n/a	"NULL"	"NULL"	"NULL"	"<p style=\"color: black; font-size: 80px; padding-left: 37%; padding-right: 30%; padding-top: 29%; padding-bottom: 12%\">+</p>"	"1381"	n/a	n/a	n/a	n/a	n/a	n/a	n/a	n/a	n/a
n/a	"image-keyboard-response"	"193"	"486685"	"0.0-6.0-2.0-1.4"	"vetlbl"	"600"	"1366"	"chrome"	"108.0.0"	"FALSE"	"Windows 10"	"60.13"	"131"	n/a	n/a	n/a	n/a	n/a	n/a	"Trial"	n/a	n/a	n/a	"401"	"arrowup"	n/a	"NULL"	"NULL"	"NULL"	"stimuli/MullerLyer_-20.04286_0.35000.png"	n/a	"MullerLyer"	"arrowup"	"1393"	"TRUE"	"MullerLyer"	"-20.04286000"	"0.3500000000"	"2"	"5"
n/a	"html-keyboard-response"	"194"	"487753"	"0.0-6.0-2.0-0.5"	"vetlbl"	"600"	"1366"	"chrome"	"108.0.0"	"FALSE"	"Windows 10"	"60.13"	"131"	n/a	n/a	n/a	n/a	n/a	n/a	"fixation"	n/a	n/a	n/a	n/a	"NULL"	n/a	"NULL"	"NULL"	"NULL"	"<p style=\"color: black; font-size: 80px; padding-left: 27%; padding-right: 21%; padding-top: 9%; padding-bottom: 18%\">+</p>"	"1062"	n/a	n/a	n/a	n/a	n/a	n/a	n/a	n/a	n/a
n/a	"image-keyboard-response"	"195"	"488291"	"0.0-6.0-2.0-1.5"	"vetlbl"	"600"	"1366"	"chrome"	"108.0.0"	"FALSE"	"Windows 10"	"60.13"	"131"	n/a	n/a	n/a	n/a	n/a	n/a	"Trial"	n/a	n/a	n/a	"537"	"arrowdown"	n/a	"NULL"	"NULL"	"NULL"	"stimuli/MullerLyer_8.21429_-0.3500.png"	n/a	"MullerLyer"	"arrowdown"	"1068"	"TRUE"	"MullerLyer"	"8.2142900000"	"-0.350000000"	"2"	"6"
n/a	"html-keyboard-response"	"196"	"489425"	"0.0-6.0-2.0-0.6"	"vetlbl"	"600"	"1366"	"chrome"	"108.0.0"	"FALSE"	"Windows 10"	"60.13"	"131"	n/a	n/a	n/a	n/a	n/a	n/a	"fixation"	n/a	n/a	n/a	n/a	"NULL"	n/a	"NULL"	"NULL"	"NULL"	"<p style=\"color: black; font-size: 80px; padding-left: 12%; padding-right: 4%; padding-top: 49%; padding-bottom: 37%\">+</p>"	"1126"	n/a	n/a	n/a	n/a	n/a	n/a	n/a	n/a	n/a
n/a	"image-keyboard-response"	"197"	"489890"	"0.0-6.0-2.0-1.6"	"vetlbl"	"600"	"1366"	"chrome"	"108.0.0"	"FALSE"	"Windows 10"	"60.13"	"131"	n/a	n/a	n/a	n/a	n/a	n/a	"Trial"	n/a	n/a	n/a	"464"	"arrowdown"	n/a	"NULL"	"NULL"	"NULL"	"stimuli/MullerLyer_-14.12857_-0.07627.png"	n/a	"MullerLyer"	"arrowdown"	"1134"	"TRUE"	"MullerLyer"	"-14.12857000"	"-0.076270000"	"2"	"7"
n/a	"html-keyboard-response"	"198"	"491010"	"0.0-6.0-2.0-0.7"	"vetlbl"	"600"	"1366"	"chrome"	"108.0.0"	"FALSE"	"Windows 10"	"60.13"	"131"	n/a	n/a	n/a	n/a	n/a	n/a	"fixation"	n/a	n/a	n/a	n/a	"NULL"	n/a	"NULL"	"NULL"	"NULL"	"<p style=\"color: black; font-size: 80px; padding-left: 38%; padding-right: 9%; padding-top: 22%; padding-bottom: 21%\">+</p>"	"1101"	n/a	n/a	n/a	n/a	n/a	n/a	n/a	n/a	n/a
n/a	"image-keyboard-response"	"199"	"491452"	"0.0-6.0-2.0-1.7"	"vetlbl"	"600"	"1366"	"chrome"	"108.0.0"	"FALSE"	"Windows 10"	"60.13"	"131"	n/a	n/a	n/a	n/a	n/a	n/a	"Trial"	n/a	n/a	n/a	"441"	"arrowup"	n/a	"NULL"	"NULL"	"NULL"	"stimuli/MullerLyer_8.21429_-0.07627.png"	n/a	"MullerLyer"	"arrowdown"	"1120"	"FALSE"	"MullerLyer"	"8.2142900000"	"-0.076270000"	"2"	"8"
n/a	"html-keyboard-response"	"200"	"492799"	"0.0-6.0-2.0-0.8"	"vetlbl"	"600"	"1366"	"chrome"	"108.0.0"	"FALSE"	"Windows 10"	"60.13"	"131"	n/a	n/a	n/a	n/a	n/a	n/a	"fixation"	n/a	n/a	n/a	n/a	"NULL"	n/a	"NULL"	"NULL"	"NULL"	"<p style=\"color: black; font-size: 80px; padding-left: 48%; padding-right: 50%; padding-top: 23%; padding-bottom: 18%\">+</p>"	"1331"	n/a	n/a	n/a	n/a	n/a	n/a	n/a	n/a	n/a
n/a	"image-keyboard-response"	"201"	"493211"	"0.0-6.0-2.0-1.8"	"vetlbl"	"600"	"1366"	"chrome"	"108.0.0"	"FALSE"	"Windows 10"	"60.13"	"131"	n/a	n/a	n/a	n/a	n/a	n/a	"Trial"	n/a	n/a	n/a	"406"	"arrowup"	n/a	"NULL"	"NULL"	"NULL"	"stimuli/MullerLyer_-8.21429_0.07627.png"	n/a	"MullerLyer"	"arrowup"	"1347"	"TRUE"	"MullerLyer"	"-8.214290000"	"0.0762700000"	"2"	"9"
n/a	"html-keyboard-response"	"202"	"494427"	"0.0-6.0-2.0-0.9"	"vetlbl"	"600"	"1366"	"chrome"	"108.0.0"	"FALSE"	"Windows 10"	"60.13"	"131"	n/a	n/a	n/a	n/a	n/a	n/a	"fixation"	n/a	n/a	n/a	n/a	"NULL"	n/a	"NULL"	"NULL"	"NULL"	"<p style=\"color: black; font-size: 80px; padding-left: 5%; padding-right: 10%; padding-top: 19%; padding-bottom: 16%\">+</p>"	"1195"	n/a	n/a	n/a	n/a	n/a	n/a	n/a	n/a	n/a
n/a	"image-keyboard-response"	"203"	"494833"	"0.0-6.0-2.0-1.9"	"vetlbl"	"600"	"1366"	"chrome"	"108.0.0"	"FALSE"	"Windows 10"	"60.13"	"131"	n/a	n/a	n/a	n/a	n/a	n/a	"Trial"	n/a	n/a	n/a	"405"	"arrowup"	n/a	"NULL"	"NULL"	"NULL"	"stimuli/MullerLyer_14.12857_-0.07627.png"	n/a	"MullerLyer"	"arrowdown"	"1216"	"FALSE"	"MullerLyer"	"14.128570000"	"-0.076270000"	"2"	"10"
n/a	"html-keyboard-response"	"204"	"495957"	"0.0-6.0-2.0-0.10"	"vetlbl"	"600"	"1366"	"chrome"	"108.0.0"	"FALSE"	"Windows 10"	"60.13"	"131"	n/a	n/a	n/a	n/a	n/a	n/a	"fixation"	n/a	n/a	n/a	n/a	"NULL"	n/a	"NULL"	"NULL"	"NULL"	"<p style=\"color: black; font-size: 80px; padding-left: 2%; padding-right: 13%; padding-top: 11%; padding-bottom: 12%\">+</p>"	"1106"	n/a	n/a	n/a	n/a	n/a	n/a	n/a	n/a	n/a
n/a	"image-keyboard-response"	"205"	"496378"	"0.0-6.0-2.0-1.10"	"vetlbl"	"600"	"1366"	"chrome"	"108.0.0"	"FALSE"	"Windows 10"	"60.13"	"131"	n/a	n/a	n/a	n/a	n/a	n/a	"Trial"	n/a	n/a	n/a	"419"	"arrowdown"	n/a	"NULL"	"NULL"	"NULL"	"stimuli/MullerLyer_-20.04286_-0.23665.png"	n/a	"MullerLyer"	"arrowdown"	"1124"	"TRUE"	"MullerLyer"	"-20.04286000"	"-0.236650000"	"2"	"11"
n/a	"html-keyboard-response"	"206"	"497731"	"0.0-6.0-2.0-0.11"	"vetlbl"	"600"	"1366"	"chrome"	"108.0.0"	"FALSE"	"Windows 10"	"60.13"	"131"	n/a	n/a	n/a	n/a	n/a	n/a	"fixation"	n/a	n/a	n/a	n/a	"NULL"	n/a	"NULL"	"NULL"	"NULL"	"<p style=\"color: black; font-size: 80px; padding-left: 22%; padding-right: 28%; padding-top: 41%; padding-bottom: 22%\">+</p>"	"1347"	n/a	n/a	n/a	n/a	n/a	n/a	n/a	n/a	n/a
n/a	"image-keyboard-response"	"207"	"498122"	"0.0-6.0-2.0-1.11"	"vetlbl"	"600"	"1366"	"chrome"	"108.0.0"	"FALSE"	"Windows 10"	"60.13"	"131"	n/a	n/a	n/a	n/a	n/a	n/a	"Trial"	n/a	n/a	n/a	"390"	"arrowdown"	n/a	"NULL"	"NULL"	"NULL"	"stimuli/MullerLyer_20.04286_0.23665.png"	n/a	"MullerLyer"	"arrowup"	"1353"	"FALSE"	"MullerLyer"	"20.042860000"	"0.2366500000"	"2"	"12"
n/a	"html-keyboard-response"	"208"	"499389"	"0.0-6.0-2.0-0.12"	"vetlbl"	"600"	"1366"	"chrome"	"108.0.0"	"FALSE"	"Windows 10"	"60.13"	"131"	n/a	n/a	n/a	n/a	n/a	n/a	"fixation"	n/a	n/a	n/a	n/a	"NULL"	n/a	"NULL"	"NULL"	"NULL"	"<p style=\"color: black; font-size: 80px; padding-left: 49%; padding-right: 40%; padding-top: 19%; padding-bottom: 12%\">+</p>"	"1245"	n/a	n/a	n/a	n/a	n/a	n/a	n/a	n/a	n/a
n/a	"image-keyboard-response"	"209"	"499790"	"0.0-6.0-2.0-1.12"	"vetlbl"	"600"	"1366"	"chrome"	"108.0.0"	"FALSE"	"Windows 10"	"60.13"	"131"	n/a	n/a	n/a	n/a	n/a	n/a	"Trial"	n/a	n/a	n/a	"400"	"arrowup"	n/a	"NULL"	"NULL"	"NULL"	"stimuli/MullerLyer_-20.04286_0.14541.png"	n/a	"MullerLyer"	"arrowup"	"1267"	"TRUE"	"MullerLyer"	"-20.04286000"	"0.1454100000"	"2"	"13"
n/a	"html-keyboard-response"	"210"	"501222"	"0.0-6.0-2.0-0.13"	"vetlbl"	"600"	"1366"	"chrome"	"108.0.0"	"FALSE"	"Windows 10"	"60.13"	"131"	n/a	n/a	n/a	n/a	n/a	n/a	"fixation"	n/a	n/a	n/a	n/a	"NULL"	n/a	"NULL"	"NULL"	"NULL"	"<p style=\"color: black; font-size: 80px; padding-left: 15%; padding-right: 36%; padding-top: 12%; padding-bottom: 14%\">+</p>"	"1411"	n/a	n/a	n/a	n/a	n/a	n/a	n/a	n/a	n/a
n/a	"image-keyboard-response"	"211"	"501769"	"0.0-6.0-2.0-1.13"	"vetlbl"	"600"	"1366"	"chrome"	"108.0.0"	"FALSE"	"Windows 10"	"60.13"	"131"	n/a	n/a	n/a	n/a	n/a	n/a	"Trial"	n/a	n/a	n/a	"547"	"arrowup"	n/a	"NULL"	"NULL"	"NULL"	"stimuli/MullerLyer_14.12857_-0.23665.png"	n/a	"MullerLyer"	"arrowdown"	"1432"	"FALSE"	"MullerLyer"	"14.128570000"	"-0.236650000"	"2"	"14"
n/a	"html-keyboard-response"	"212"	"502817"	"0.0-6.0-2.0-0.14"	"vetlbl"	"600"	"1366"	"chrome"	"108.0.0"	"FALSE"	"Windows 10"	"60.13"	"131"	n/a	n/a	n/a	n/a	n/a	n/a	"fixation"	n/a	n/a	n/a	n/a	"NULL"	n/a	"NULL"	"NULL"	"NULL"	"<p style=\"color: black; font-size: 80px; padding-left: 40%; padding-right: 27%; padding-top: 29%; padding-bottom: 50%\">+</p>"	"1041"	n/a	n/a	n/a	n/a	n/a	n/a	n/a	n/a	n/a
n/a	"image-keyboard-response"	"213"	"503276"	"0.0-6.0-2.0-1.14"	"vetlbl"	"600"	"1366"	"chrome"	"108.0.0"	"FALSE"	"Windows 10"	"60.13"	"131"	n/a	n/a	n/a	n/a	n/a	n/a	"Trial"	n/a	n/a	n/a	"458"	"arrowdown"	n/a	"NULL"	"NULL"	"NULL"	"stimuli/MullerLyer_-2.3000_-0.23665.png"	n/a	"MullerLyer"	"arrowdown"	"1048"	"TRUE"	"MullerLyer"	"-2.300000000"	"-0.236650000"	"2"	"15"
n/a	"html-keyboard-response"	"214"	"504457"	"0.0-6.0-2.0-0.15"	"vetlbl"	"600"	"1366"	"chrome"	"108.0.0"	"FALSE"	"Windows 10"	"60.13"	"131"	n/a	n/a	n/a	n/a	n/a	n/a	"fixation"	n/a	n/a	n/a	n/a	"NULL"	n/a	"NULL"	"NULL"	"NULL"	"<p style=\"color: black; font-size: 80px; padding-left: 2%; padding-right: 8%; padding-top: 26%; padding-bottom: 26%\">+</p>"	"1177"	n/a	n/a	n/a	n/a	n/a	n/a	n/a	n/a	n/a
n/a	"image-keyboard-response"	"215"	"504894"	"0.0-6.0-2.0-1.15"	"vetlbl"	"600"	"1366"	"chrome"	"108.0.0"	"FALSE"	"Windows 10"	"60.13"	"131"	n/a	n/a	n/a	n/a	n/a	n/a	"Trial"	n/a	n/a	n/a	"436"	"arrowdown"	n/a	"NULL"	"NULL"	"NULL"	"stimuli/MullerLyer_14.12857_0.07627.png"	n/a	"MullerLyer"	"arrowup"	"1181"	"FALSE"	"MullerLyer"	"14.128570000"	"0.0762700000"	"2"	"16"
n/a	"html-keyboard-response"	"216"	"506077"	"0.0-6.0-2.0-0.16"	"vetlbl"	"600"	"1366"	"chrome"	"108.0.0"	"FALSE"	"Windows 10"	"60.13"	"131"	n/a	n/a	n/a	n/a	n/a	n/a	"fixation"	n/a	n/a	n/a	n/a	"NULL"	n/a	"NULL"	"NULL"	"NULL"	"<p style=\"color: black; font-size: 80px; padding-left: 12%; padding-right: 32%; padding-top: 40%; padding-bottom: 28%\">+</p>"	"1165"	n/a	n/a	n/a	n/a	n/a	n/a	n/a	n/a	n/a
n/a	"image-keyboard-response"	"217"	"506483"	"0.0-6.0-2.0-1.16"	"vetlbl"	"600"	"1366"	"chrome"	"108.0.0"	"FALSE"	"Windows 10"	"60.13"	"131"	n/a	n/a	n/a	n/a	n/a	n/a	"Trial"	n/a	n/a	n/a	"405"	"arrowdown"	n/a	"NULL"	"NULL"	"NULL"	"stimuli/MullerLyer_-20.04286_-0.07627.png"	n/a	"MullerLyer"	"arrowdown"	"1183"	"TRUE"	"MullerLyer"	"-20.04286000"	"-0.076270000"	"2"	"17"
n/a	"html-keyboard-response"	"218"	"507728"	"0.0-6.0-2.0-0.17"	"vetlbl"	"600"	"1366"	"chrome"	"108.0.0"	"FALSE"	"Windows 10"	"60.13"	"131"	n/a	n/a	n/a	n/a	n/a	n/a	"fixation"	n/a	n/a	n/a	n/a	"NULL"	n/a	"NULL"	"NULL"	"NULL"	"<p style=\"color: black; font-size: 80px; padding-left: 6%; padding-right: 29%; padding-top: 26%; padding-bottom: 37%\">+</p>"	"1239"	n/a	n/a	n/a	n/a	n/a	n/a	n/a	n/a	n/a
n/a	"image-keyboard-response"	"219"	"508142"	"0.0-6.0-2.0-1.17"	"vetlbl"	"600"	"1366"	"chrome"	"108.0.0"	"FALSE"	"Windows 10"	"60.13"	"131"	n/a	n/a	n/a	n/a	n/a	n/a	"Trial"	n/a	n/a	n/a	"413"	"arrowup"	n/a	"NULL"	"NULL"	"NULL"	"stimuli/MullerLyer_20.04286_-0.14541.png"	n/a	"MullerLyer"	"arrowdown"	"1245"	"FALSE"	"MullerLyer"	"20.042860000"	"-0.145410000"	"2"	"18"
n/a	"html-keyboard-response"	"220"	"509522"	"0.0-6.0-2.0-0.18"	"vetlbl"	"600"	"1366"	"chrome"	"108.0.0"	"FALSE"	"Windows 10"	"60.13"	"131"	n/a	n/a	n/a	n/a	n/a	n/a	"fixation"	n/a	n/a	n/a	n/a	"NULL"	n/a	"NULL"	"NULL"	"NULL"	"<p style=\"color: black; font-size: 80px; padding-left: 37%; padding-right: 14%; padding-top: 48%; padding-bottom: 7%\">+</p>"	"1372"	n/a	n/a	n/a	n/a	n/a	n/a	n/a	n/a	n/a
n/a	"image-keyboard-response"	"221"	"509934"	"0.0-6.0-2.0-1.18"	"vetlbl"	"600"	"1366"	"chrome"	"108.0.0"	"FALSE"	"Windows 10"	"60.13"	"131"	n/a	n/a	n/a	n/a	n/a	n/a	"Trial"	n/a	n/a	n/a	"412"	"arrowup"	n/a	"NULL"	"NULL"	"NULL"	"stimuli/MullerLyer_2.30000_0.35000.png"	n/a	"MullerLyer"	"arrowup"	"1380"	"TRUE"	"MullerLyer"	"2.3000000000"	"0.3500000000"	"2"	"19"
n/a	"html-keyboard-response"	"222"	"511365"	"0.0-6.0-2.0-0.19"	"vetlbl"	"600"	"1366"	"chrome"	"108.0.0"	"FALSE"	"Windows 10"	"60.13"	"131"	n/a	n/a	n/a	n/a	n/a	n/a	"fixation"	n/a	n/a	n/a	n/a	"NULL"	n/a	"NULL"	"NULL"	"NULL"	"<p style=\"color: black; font-size: 80px; padding-left: 8%; padding-right: 17%; padding-top: 32%; padding-bottom: 4%\">+</p>"	"1408"	n/a	n/a	n/a	n/a	n/a	n/a	n/a	n/a	n/a
n/a	"image-keyboard-response"	"223"	"511744"	"0.0-6.0-2.0-1.19"	"vetlbl"	"600"	"1366"	"chrome"	"108.0.0"	"FALSE"	"Windows 10"	"60.13"	"131"	n/a	n/a	n/a	n/a	n/a	n/a	"Trial"	n/a	n/a	n/a	"378"	"arrowup"	n/a	"NULL"	"NULL"	"NULL"	"stimuli/MullerLyer_-20.04286_0.23665.png"	n/a	"MullerLyer"	"arrowup"	"1431"	"TRUE"	"MullerLyer"	"-20.04286000"	"0.2366500000"	"2"	"20"
n/a	"html-keyboard-response"	"224"	"513015"	"0.0-6.0-2.0-0.20"	"vetlbl"	"600"	"1366"	"chrome"	"108.0.0"	"FALSE"	"Windows 10"	"60.13"	"131"	n/a	n/a	n/a	n/a	n/a	n/a	"fixation"	n/a	n/a	n/a	n/a	"NULL"	n/a	"NULL"	"NULL"	"NULL"	"<p style=\"color: black; font-size: 80px; padding-left: 10%; padding-right: 33%; padding-top: 45%; padding-bottom: 49%\">+</p>"	"1269"	n/a	n/a	n/a	n/a	n/a	n/a	n/a	n/a	n/a
n/a	"image-keyboard-response"	"225"	"513346"	"0.0-6.0-2.0-1.20"	"vetlbl"	"600"	"1366"	"chrome"	"108.0.0"	"FALSE"	"Windows 10"	"60.13"	"131"	n/a	n/a	n/a	n/a	n/a	n/a	"Trial"	n/a	n/a	n/a	"329"	"arrowup"	n/a	"NULL"	"NULL"	"NULL"	"stimuli/MullerLyer_8.21429_0.23665.png"	n/a	"MullerLyer"	"arrowup"	"1271"	"TRUE"	"MullerLyer"	"8.2142900000"	"0.2366500000"	"2"	"21"
n/a	"html-keyboard-response"	"226"	"514753"	"0.0-6.0-2.0-0.21"	"vetlbl"	"600"	"1366"	"chrome"	"108.0.0"	"FALSE"	"Windows 10"	"60.13"	"131"	n/a	n/a	n/a	n/a	n/a	n/a	"fixation"	n/a	n/a	n/a	n/a	"NULL"	n/a	"NULL"	"NULL"	"NULL"	"<p style=\"color: black; font-size: 80px; padding-left: 47%; padding-right: 38%; padding-top: 35%; padding-bottom: 38%\">+</p>"	"1404"	n/a	n/a	n/a	n/a	n/a	n/a	n/a	n/a	n/a
n/a	"image-keyboard-response"	"227"	"515171"	"0.0-6.0-2.0-1.21"	"vetlbl"	"600"	"1366"	"chrome"	"108.0.0"	"FALSE"	"Windows 10"	"60.13"	"131"	n/a	n/a	n/a	n/a	n/a	n/a	"Trial"	n/a	n/a	n/a	"417"	"arrowup"	n/a	"NULL"	"NULL"	"NULL"	"stimuli/MullerLyer_-2.3000_0.35000.png"	n/a	"MullerLyer"	"arrowup"	"1407"	"TRUE"	"MullerLyer"	"-2.300000000"	"0.3500000000"	"2"	"22"
n/a	"html-keyboard-response"	"228"	"516589"	"0.0-6.0-2.0-0.22"	"vetlbl"	"600"	"1366"	"chrome"	"108.0.0"	"FALSE"	"Windows 10"	"60.13"	"131"	n/a	n/a	n/a	n/a	n/a	n/a	"fixation"	n/a	n/a	n/a	n/a	"NULL"	n/a	"NULL"	"NULL"	"NULL"	"<p style=\"color: black; font-size: 80px; padding-left: 8%; padding-right: 15%; padding-top: 21%; padding-bottom: 18%\">+</p>"	"1395"	n/a	n/a	n/a	n/a	n/a	n/a	n/a	n/a	n/a
n/a	"image-keyboard-response"	"229"	"516974"	"0.0-6.0-2.0-1.22"	"vetlbl"	"600"	"1366"	"chrome"	"108.0.0"	"FALSE"	"Windows 10"	"60.13"	"131"	n/a	n/a	n/a	n/a	n/a	n/a	"Trial"	n/a	n/a	n/a	"383"	"arrowup"	n/a	"NULL"	"NULL"	"NULL"	"stimuli/MullerLyer_20.04286_0.35000.png"	n/a	"MullerLyer"	"arrowup"	"1418"	"TRUE"	"MullerLyer"	"20.042860000"	"0.3500000000"	"2"	"23"
n/a	"html-keyboard-response"	"230"	"518004"	"0.0-6.0-2.0-0.23"	"vetlbl"	"600"	"1366"	"chrome"	"108.0.0"	"FALSE"	"Windows 10"	"60.13"	"131"	n/a	n/a	n/a	n/a	n/a	n/a	"fixation"	n/a	n/a	n/a	n/a	"NULL"	n/a	"NULL"	"NULL"	"NULL"	"<p style=\"color: black; font-size: 80px; padding-left: 46%; padding-right: 19%; padding-top: 2%; padding-bottom: 21%\">+</p>"	"1008"	n/a	n/a	n/a	n/a	n/a	n/a	n/a	n/a	n/a
n/a	"image-keyboard-response"	"231"	"518557"	"0.0-6.0-2.0-1.23"	"vetlbl"	"600"	"1366"	"chrome"	"108.0.0"	"FALSE"	"Windows 10"	"60.13"	"131"	n/a	n/a	n/a	n/a	n/a	n/a	"Trial"	n/a	n/a	n/a	"552"	"arrowup"	n/a	"NULL"	"NULL"	"NULL"	"stimuli/MullerLyer_-2.3000_0.07627.png"	n/a	"MullerLyer"	"arrowup"	"1030"	"TRUE"	"MullerLyer"	"-2.300000000"	"0.0762700000"	"2"	"24"
n/a	"html-keyboard-response"	"232"	"520065"	"0.0-6.0-2.0-0.24"	"vetlbl"	"600"	"1366"	"chrome"	"108.0.0"	"FALSE"	"Windows 10"	"60.13"	"131"	n/a	n/a	n/a	n/a	n/a	n/a	"fixation"	n/a	n/a	n/a	n/a	"NULL"	n/a	"NULL"	"NULL"	"NULL"	"<p style=\"color: black; font-size: 80px; padding-left: 27%; padding-right: 37%; padding-top: 28%; padding-bottom: 15%\">+</p>"	"1497"	n/a	n/a	n/a	n/a	n/a	n/a	n/a	n/a	n/a
n/a	"image-keyboard-response"	"233"	"520455"	"0.0-6.0-2.0-1.24"	"vetlbl"	"600"	"1366"	"chrome"	"108.0.0"	"FALSE"	"Windows 10"	"60.13"	"131"	n/a	n/a	n/a	n/a	n/a	n/a	"Trial"	n/a	n/a	n/a	"389"	"arrowup"	n/a	"NULL"	"NULL"	"NULL"	"stimuli/MullerLyer_-2.3000_0.23665.png"	n/a	"MullerLyer"	"arrowup"	"1508"	"TRUE"	"MullerLyer"	"-2.300000000"	"0.2366500000"	"2"	"25"
n/a	"html-keyboard-response"	"234"	"521569"	"0.0-6.0-2.0-0.25"	"vetlbl"	"600"	"1366"	"chrome"	"108.0.0"	"FALSE"	"Windows 10"	"60.13"	"131"	n/a	n/a	n/a	n/a	n/a	n/a	"fixation"	n/a	n/a	n/a	n/a	"NULL"	n/a	"NULL"	"NULL"	"NULL"	"<p style=\"color: black; font-size: 80px; padding-left: 21%; padding-right: 9%; padding-top: 23%; padding-bottom: 20%\">+</p>"	"1097"	n/a	n/a	n/a	n/a	n/a	n/a	n/a	n/a	n/a
n/a	"image-keyboard-response"	"235"	"522020"	"0.0-6.0-2.0-1.25"	"vetlbl"	"600"	"1366"	"chrome"	"108.0.0"	"FALSE"	"Windows 10"	"60.13"	"131"	n/a	n/a	n/a	n/a	n/a	n/a	"Trial"	n/a	n/a	n/a	"449"	"arrowdown"	n/a	"NULL"	"NULL"	"NULL"	"stimuli/MullerLyer_-14.12857_-0.14541.png"	n/a	"MullerLyer"	"arrowdown"	"1114"	"TRUE"	"MullerLyer"	"-14.12857000"	"-0.145410000"	"2"	"26"
n/a	"html-keyboard-response"	"236"	"523378"	"0.0-6.0-2.0-0.26"	"vetlbl"	"600"	"1366"	"chrome"	"108.0.0"	"FALSE"	"Windows 10"	"60.13"	"131"	n/a	n/a	n/a	n/a	n/a	n/a	"fixation"	n/a	n/a	n/a	n/a	"NULL"	n/a	"NULL"	"NULL"	"NULL"	"<p style=\"color: black; font-size: 80px; padding-left: 23%; padding-right: 3%; padding-top: 33%; padding-bottom: 45%\">+</p>"	"1351"	n/a	n/a	n/a	n/a	n/a	n/a	n/a	n/a	n/a
n/a	"image-keyboard-response"	"237"	"523809"	"0.0-6.0-2.0-1.26"	"vetlbl"	"600"	"1366"	"chrome"	"108.0.0"	"FALSE"	"Windows 10"	"60.13"	"131"	n/a	n/a	n/a	n/a	n/a	n/a	"Trial"	n/a	n/a	n/a	"430"	"arrowdown"	n/a	"NULL"	"NULL"	"NULL"	"stimuli/MullerLyer_-8.21429_-0.23665.png"	n/a	"MullerLyer"	"arrowdown"	"1358"	"TRUE"	"MullerLyer"	"-8.214290000"	"-0.236650000"	"2"	"27"
n/a	"html-keyboard-response"	"238"	"524953"	"0.0-6.0-2.0-0.27"	"vetlbl"	"600"	"1366"	"chrome"	"108.0.0"	"FALSE"	"Windows 10"	"60.13"	"131"	n/a	n/a	n/a	n/a	n/a	n/a	"fixation"	n/a	n/a	n/a	n/a	"NULL"	n/a	"NULL"	"NULL"	"NULL"	"<p style=\"color: black; font-size: 80px; padding-left: 26%; padding-right: 34%; padding-top: 48%; padding-bottom: 45%\">+</p>"	"1137"	n/a	n/a	n/a	n/a	n/a	n/a	n/a	n/a	n/a
n/a	"image-keyboard-response"	"239"	"525728"	"0.0-6.0-2.0-1.27"	"vetlbl"	"600"	"1366"	"chrome"	"108.0.0"	"FALSE"	"Windows 10"	"60.13"	"131"	n/a	n/a	n/a	n/a	n/a	n/a	"Trial"	n/a	n/a	n/a	"774"	"arrowdown"	n/a	"NULL"	"NULL"	"NULL"	"stimuli/MullerLyer_8.21429_-0.23665.png"	n/a	"MullerLyer"	"arrowdown"	"1144"	"TRUE"	"MullerLyer"	"8.2142900000"	"-0.236650000"	"2"	"28"
n/a	"html-keyboard-response"	"240"	"527121"	"0.0-6.0-2.0-0.28"	"vetlbl"	"600"	"1366"	"chrome"	"108.0.0"	"FALSE"	"Windows 10"	"60.13"	"131"	n/a	n/a	n/a	n/a	n/a	n/a	"fixation"	n/a	n/a	n/a	n/a	"NULL"	n/a	"NULL"	"NULL"	"NULL"	"<p style=\"color: black; font-size: 80px; padding-left: 34%; padding-right: 35%; padding-top: 49%; padding-bottom: 31%\">+</p>"	"1375"	n/a	n/a	n/a	n/a	n/a	n/a	n/a	n/a	n/a
n/a	"image-keyboard-response"	"241"	"527463"	"0.0-6.0-2.0-1.28"	"vetlbl"	"600"	"1366"	"chrome"	"108.0.0"	"FALSE"	"Windows 10"	"60.13"	"131"	n/a	n/a	n/a	n/a	n/a	n/a	"Trial"	n/a	n/a	n/a	"341"	"arrowup"	n/a	"NULL"	"NULL"	"NULL"	"stimuli/MullerLyer_-8.21429_0.23665.png"	n/a	"MullerLyer"	"arrowup"	"1393"	"TRUE"	"MullerLyer"	"-8.214290000"	"0.2366500000"	"2"	"29"
n/a	"html-keyboard-response"	"242"	"528771"	"0.0-6.0-2.0-0.29"	"vetlbl"	"600"	"1366"	"chrome"	"108.0.0"	"FALSE"	"Windows 10"	"60.13"	"131"	n/a	n/a	n/a	n/a	n/a	n/a	"fixation"	n/a	n/a	n/a	n/a	"NULL"	n/a	"NULL"	"NULL"	"NULL"	"<p style=\"color: black; font-size: 80px; padding-left: 45%; padding-right: 8%; padding-top: 43%; padding-bottom: 3%\">+</p>"	"1296"	n/a	n/a	n/a	n/a	n/a	n/a	n/a	n/a	n/a
n/a	"image-keyboard-response"	"243"	"529175"	"0.0-6.0-2.0-1.29"	"vetlbl"	"600"	"1366"	"chrome"	"108.0.0"	"FALSE"	"Windows 10"	"60.13"	"131"	n/a	n/a	n/a	n/a	n/a	n/a	"Trial"	n/a	n/a	n/a	"403"	"arrowdown"	n/a	"NULL"	"NULL"	"NULL"	"stimuli/MullerLyer_20.04286_0.07627.png"	n/a	"MullerLyer"	"arrowup"	"1308"	"FALSE"	"MullerLyer"	"20.042860000"	"0.0762700000"	"2"	"30"
n/a	"html-keyboard-response"	"244"	"530209"	"0.0-6.0-2.0-0.30"	"vetlbl"	"600"	"1366"	"chrome"	"108.0.0"	"FALSE"	"Windows 10"	"60.13"	"131"	n/a	n/a	n/a	n/a	n/a	n/a	"fixation"	n/a	n/a	n/a	n/a	"NULL"	n/a	"NULL"	"NULL"	"NULL"	"<p style=\"color: black; font-size: 80px; padding-left: 36%; padding-right: 31%; padding-top: 44%; padding-bottom: 24%\">+</p>"	"1028"	n/a	n/a	n/a	n/a	n/a	n/a	n/a	n/a	n/a
n/a	"image-keyboard-response"	"245"	"530620"	"0.0-6.0-2.0-1.30"	"vetlbl"	"600"	"1366"	"chrome"	"108.0.0"	"FALSE"	"Windows 10"	"60.13"	"131"	n/a	n/a	n/a	n/a	n/a	n/a	"Trial"	n/a	n/a	n/a	"410"	"arrowup"	n/a	"NULL"	"NULL"	"NULL"	"stimuli/MullerLyer_8.21429_0.14541.png"	n/a	"MullerLyer"	"arrowup"	"1034"	"TRUE"	"MullerLyer"	"8.2142900000"	"0.1454100000"	"2"	"31"
n/a	"html-keyboard-response"	"246"	"531736"	"0.0-6.0-2.0-0.31"	"vetlbl"	"600"	"1366"	"chrome"	"108.0.0"	"FALSE"	"Windows 10"	"60.13"	"131"	n/a	n/a	n/a	n/a	n/a	n/a	"fixation"	n/a	n/a	n/a	n/a	"NULL"	n/a	"NULL"	"NULL"	"NULL"	"<p style=\"color: black; font-size: 80px; padding-left: 0%; padding-right: 38%; padding-top: 35%; padding-bottom: 21%\">+</p>"	"1113"	n/a	n/a	n/a	n/a	n/a	n/a	n/a	n/a	n/a
n/a	"image-keyboard-response"	"247"	"532223"	"0.0-6.0-2.0-1.31"	"vetlbl"	"600"	"1366"	"chrome"	"108.0.0"	"FALSE"	"Windows 10"	"60.13"	"131"	n/a	n/a	n/a	n/a	n/a	n/a	"Trial"	n/a	n/a	n/a	"485"	"arrowup"	n/a	"NULL"	"NULL"	"NULL"	"stimuli/MullerLyer_-2.3000_0.14541.png"	n/a	"MullerLyer"	"arrowup"	"1116"	"TRUE"	"MullerLyer"	"-2.300000000"	"0.1454100000"	"2"	"32"
n/a	"html-keyboard-response"	"248"	"533646"	"0.0-6.0-2.0-0.32"	"vetlbl"	"600"	"1366"	"chrome"	"108.0.0"	"FALSE"	"Windows 10"	"60.13"	"131"	n/a	n/a	n/a	n/a	n/a	n/a	"fixation"	n/a	n/a	n/a	n/a	"NULL"	n/a	"NULL"	"NULL"	"NULL"	"<p style=\"color: black; font-size: 80px; padding-left: 42%; padding-right: 5%; padding-top: 21%; padding-bottom: 41%\">+</p>"	"1414"	n/a	n/a	n/a	n/a	n/a	n/a	n/a	n/a	n/a
