"success"	"trial_type"	"trial_index"	"time_elapsed"	"internal_node_id"	"participant_id"	"screen_height"	"screen_width"	"browser"	"browser_version"	"mobile"	"os"	"vsync_rate"	"subject_id"	"width"	"height"	"webaudio"	"fullscreen"	"webcam"	"microphone"	"screen"	"version"	"date"	"time"	"rt"	"response"	"timeout"	"failed_images"	"failed_audio"	"failed_video"	"stimulus"	"trial_duration"	"block"	"correct_response"	"prestimulus_duration"	"correct"	"type"	"illusion_strength"	"illusion_difference"	"block_number"	"trial_number"
"TRUE"	"fullscreen"	"0"	"1117"	"0.0-0.0"	"5jb70x"	"600"	"1366"	"chrome"	"108.0.0"	"FALSE"	"Windows 10"	"60.56"	"153"	n/a	n/a	n/a	n/a	n/a	n/a	n/a	n/a	n/a	n/a	n/a	"NULL"	n/a	"NULL"	"NULL"	"NULL"	n/a	n/a	n/a	n/a	n/a	n/a	n/a	n/a	n/a	n/a	n/a
n/a	"browser-check"	"1"	"2127"	"0.0-1.0"	"5jb70x"	"600"	"1366"	"chrome"	"108.0.0"	"FALSE"	"Windows 10"	"60.56"	"153"	"1366"	"600"	"TRUE"	"TRUE"	"TRUE"	"TRUE"	"browser_info"	"1.0"	"06/01/2023"	"11:13:06"	n/a	"NULL"	n/a	"NULL"	"NULL"	"NULL"	n/a	n/a	n/a	n/a	n/a	n/a	n/a	n/a	n/a	n/a	n/a
n/a	"survey-text"	"2"	"7235"	"0.0-2.0"	"5jb70x"	"600"	"1366"	"chrome"	"108.0.0"	"FALSE"	"Windows 10"	"60.56"	"153"	n/a	n/a	n/a	n/a	n/a	n/a	"subject_id"	n/a	n/a	n/a	"5105"	"list(subject_id = \"153\")"	n/a	"NULL"	"NULL"	"NULL"	n/a	n/a	n/a	n/a	n/a	n/a	n/a	n/a	n/a	n/a	n/a
"TRUE"	"preload"	"3"	"7248"	"0.0-3.0"	"5jb70x"	"600"	"1366"	"chrome"	"108.0.0"	"FALSE"	"Windows 10"	"60.56"	"153"	n/a	n/a	n/a	n/a	n/a	n/a	n/a	n/a	n/a	n/a	n/a	"NULL"	"FALSE"	"list()"	"list()"	"list()"	n/a	n/a	n/a	n/a	n/a	n/a	n/a	n/a	n/a	n/a	n/a
n/a	"html-button-response"	"4"	"46642"	"0.0-4.0-0.0"	"5jb70x"	"600"	"1366"	"chrome"	"108.0.0"	"FALSE"	"Windows 10"	"60.56"	"153"	n/a	n/a	n/a	n/a	n/a	n/a	"illusion_instructions"	n/a	n/a	n/a	"39392"	"0"	n/a	"NULL"	"NULL"	"NULL"	"<p><b>Illusion Game</b></p><p>In this game of speed and reflex, you will need to make <b>visual judgments</b> (for instance, which circle is the biggest, or which line is the longest), as fast and as correctly as possible, while <b>resisting different visual illusions</b>.</p><p>We are going to start with some examples of all the illusions you will encounter in the game.</p>"	n/a	n/a	n/a	n/a	n/a	n/a	n/a	n/a	n/a	n/a
"TRUE"	"preload"	"5"	"46680"	"0.0-4.0-1.0-0.0"	"5jb70x"	"600"	"1366"	"chrome"	"108.0.0"	"FALSE"	"Windows 10"	"60.56"	"153"	n/a	n/a	n/a	n/a	n/a	n/a	n/a	n/a	n/a	n/a	n/a	"NULL"	"FALSE"	"list()"	"list()"	"list()"	n/a	n/a	n/a	n/a	n/a	n/a	n/a	n/a	n/a	n/a	n/a
n/a	"html-keyboard-response"	"6"	"102472"	"0.0-4.0-1.0-1.0"	"5jb70x"	"600"	"1366"	"chrome"	"108.0.0"	"FALSE"	"Windows 10"	"60.56"	"153"	n/a	n/a	n/a	n/a	n/a	n/a	n/a	n/a	n/a	n/a	"55792"	"enter"	n/a	"NULL"	"NULL"	"NULL"	"<p><b>Practice</b></p><p>In this part, two red circles will appear side by side on the screen.</p><p>Your task is to select which <b>red circle is bigger</b> in size as fast as you can, without making errors.</p><p>Don't get distracted by the surrounding black circles around the red circles!</p><p>Press <b>the LEFT or the RIGHT arrow</b> to indicate which is the bigger <b>red circle.</b></p><div style='float: center'><img src='materials/instructions/Ebbinghaus_Demo.png' height='300'></img><p><img src='utils/answer/answer_leftright_keyboard.PNG' height='150'></img></p><p class='small'>In this example, the correct answer is the <b>LEFT arrow</b>.</p></div><p>Are you ready? <b>Press ENTER to start</b></p>"	n/a	n/a	n/a	n/a	n/a	n/a	n/a	n/a	n/a	n/a
n/a	"html-keyboard-response"	"7"	"104077"	"0.0-4.0-1.0-2.0-0.0"	"5jb70x"	"600"	"1366"	"chrome"	"108.0.0"	"FALSE"	"Windows 10"	"60.56"	"153"	n/a	n/a	n/a	n/a	n/a	n/a	"fixation"	n/a	n/a	n/a	n/a	"NULL"	n/a	"NULL"	"NULL"	"NULL"	"<p style=\"color: black; font-size: 80px; padding-left: 40%; padding-right: 35%; padding-top: 3%; padding-bottom: 29%\">+</p>"	"1090"	n/a	n/a	n/a	n/a	n/a	n/a	n/a	n/a	n/a
n/a	"image-keyboard-response"	"8"	"106975"	"0.0-4.0-1.0-2.0-1.0"	"5jb70x"	"600"	"1366"	"chrome"	"108.0.0"	"FALSE"	"Windows 10"	"60.56"	"153"	n/a	n/a	n/a	n/a	n/a	n/a	"Trial"	n/a	n/a	n/a	"2879"	"arrowleft"	n/a	"NULL"	"NULL"	"NULL"	"stimuli/Ebbinghaus_-100000_1.40000.png"	n/a	"Ebbinghaus"	"arrowleft"	"1605"	"TRUE"	"Ebbinghaus"	"-10000000000"	"1.4000000000"	"1"	"1"
n/a	"html-keyboard-response"	"9"	"108488"	"0.0-4.0-1.0-2.0-0.1"	"5jb70x"	"600"	"1366"	"chrome"	"108.0.0"	"FALSE"	"Windows 10"	"60.56"	"153"	n/a	n/a	n/a	n/a	n/a	n/a	"fixation"	n/a	n/a	n/a	n/a	"NULL"	n/a	"NULL"	"NULL"	"NULL"	"<p style=\"color: black; font-size: 80px; padding-left: 6%; padding-right: 27%; padding-top: 47%; padding-bottom: 30%\">+</p>"	"1495"	n/a	n/a	n/a	n/a	n/a	n/a	n/a	n/a	n/a
n/a	"image-keyboard-response"	"10"	"109097"	"0.0-4.0-1.0-2.0-1.1"	"5jb70x"	"600"	"1366"	"chrome"	"108.0.0"	"FALSE"	"Windows 10"	"60.56"	"153"	n/a	n/a	n/a	n/a	n/a	n/a	"Trial"	n/a	n/a	n/a	"608"	"arrowright"	n/a	"NULL"	"NULL"	"NULL"	"stimuli/Ebbinghaus_0000000_-1.4000.png"	n/a	"Ebbinghaus"	"arrowright"	"1513"	"TRUE"	"Ebbinghaus"	"000000000000"	"-1.400000000"	"1"	"2"
n/a	"html-keyboard-response"	"11"	"110161"	"0.0-4.0-1.0-2.0-0.2"	"5jb70x"	"600"	"1366"	"chrome"	"108.0.0"	"FALSE"	"Windows 10"	"60.56"	"153"	n/a	n/a	n/a	n/a	n/a	n/a	"fixation"	n/a	n/a	n/a	n/a	"NULL"	n/a	"NULL"	"NULL"	"NULL"	"<p style=\"color: black; font-size: 80px; padding-left: 42%; padding-right: 18%; padding-top: 7%; padding-bottom: 29%\">+</p>"	"1054"	n/a	n/a	n/a	n/a	n/a	n/a	n/a	n/a	n/a
n/a	"image-keyboard-response"	"12"	"110654"	"0.0-4.0-1.0-2.0-1.2"	"5jb70x"	"600"	"1366"	"chrome"	"108.0.0"	"FALSE"	"Windows 10"	"60.56"	"153"	n/a	n/a	n/a	n/a	n/a	n/a	"Trial"	n/a	n/a	n/a	"492"	"arrowleft"	n/a	"NULL"	"NULL"	"NULL"	"stimuli/Ebbinghaus_1000000_1.40000.png"	n/a	"Ebbinghaus"	"arrowleft"	"1064"	"TRUE"	"Ebbinghaus"	"100000000000"	"1.4000000000"	"1"	"3"
n/a	"html-keyboard-response"	"13"	"112041"	"0.0-4.0-1.0-2.0-0.3"	"5jb70x"	"600"	"1366"	"chrome"	"108.0.0"	"FALSE"	"Windows 10"	"60.56"	"153"	n/a	n/a	n/a	n/a	n/a	n/a	"fixation"	n/a	n/a	n/a	n/a	"NULL"	n/a	"NULL"	"NULL"	"NULL"	"<p style=\"color: black; font-size: 80px; padding-left: 7%; padding-right: 10%; padding-top: 46%; padding-bottom: 40%\">+</p>"	"1368"	n/a	n/a	n/a	n/a	n/a	n/a	n/a	n/a	n/a
n/a	"image-keyboard-response"	"14"	"112434"	"0.0-4.0-1.0-2.0-1.3"	"5jb70x"	"600"	"1366"	"chrome"	"108.0.0"	"FALSE"	"Windows 10"	"60.56"	"153"	n/a	n/a	n/a	n/a	n/a	n/a	"Trial"	n/a	n/a	n/a	"392"	"arrowright"	n/a	"NULL"	"NULL"	"NULL"	"stimuli/Ebbinghaus_-100000_-1.4000.png"	n/a	"Ebbinghaus"	"arrowright"	"1387"	"TRUE"	"Ebbinghaus"	"-10000000000"	"-1.400000000"	"1"	"4"
n/a	"html-keyboard-response"	"15"	"113744"	"0.0-4.0-1.0-2.0-0.4"	"5jb70x"	"600"	"1366"	"chrome"	"108.0.0"	"FALSE"	"Windows 10"	"60.56"	"153"	n/a	n/a	n/a	n/a	n/a	n/a	"fixation"	n/a	n/a	n/a	n/a	"NULL"	n/a	"NULL"	"NULL"	"NULL"	"<p style=\"color: black; font-size: 80px; padding-left: 39%; padding-right: 27%; padding-top: 35%; padding-bottom: 12%\">+</p>"	"1295"	n/a	n/a	n/a	n/a	n/a	n/a	n/a	n/a	n/a
n/a	"image-keyboard-response"	"16"	"114219"	"0.0-4.0-1.0-2.0-1.4"	"5jb70x"	"600"	"1366"	"chrome"	"108.0.0"	"FALSE"	"Windows 10"	"60.56"	"153"	n/a	n/a	n/a	n/a	n/a	n/a	"Trial"	n/a	n/a	n/a	"474"	"arrowright"	n/a	"NULL"	"NULL"	"NULL"	"stimuli/Ebbinghaus_1000000_-1.4000.png"	n/a	"Ebbinghaus"	"arrowright"	"1310"	"TRUE"	"Ebbinghaus"	"100000000000"	"-1.400000000"	"1"	"5"
n/a	"html-keyboard-response"	"17"	"115449"	"0.0-4.0-1.0-2.0-0.5"	"5jb70x"	"600"	"1366"	"chrome"	"108.0.0"	"FALSE"	"Windows 10"	"60.56"	"153"	n/a	n/a	n/a	n/a	n/a	n/a	"fixation"	n/a	n/a	n/a	n/a	"NULL"	n/a	"NULL"	"NULL"	"NULL"	"<p style=\"color: black; font-size: 80px; padding-left: 36%; padding-right: 45%; padding-top: 15%; padding-bottom: 50%\">+</p>"	"1213"	n/a	n/a	n/a	n/a	n/a	n/a	n/a	n/a	n/a
n/a	"image-keyboard-response"	"18"	"115972"	"0.0-4.0-1.0-2.0-1.5"	"5jb70x"	"600"	"1366"	"chrome"	"108.0.0"	"FALSE"	"Windows 10"	"60.56"	"153"	n/a	n/a	n/a	n/a	n/a	n/a	"Trial"	n/a	n/a	n/a	"521"	"arrowleft"	n/a	"NULL"	"NULL"	"NULL"	"stimuli/Ebbinghaus_0000000_1.40000.png"	n/a	"Ebbinghaus"	"arrowleft"	"1230"	"TRUE"	"Ebbinghaus"	"000000000000"	"1.4000000000"	"1"	"6"
n/a	"html-button-response"	"19"	"123073"	"0.0-4.0-1.0-3.0"	"5jb70x"	"600"	"1366"	"chrome"	"108.0.0"	"FALSE"	"Windows 10"	"60.56"	"153"	n/a	n/a	n/a	n/a	n/a	n/a	"practice_block_results"	n/a	n/a	n/a	"7097"	"0"	n/a	"NULL"	"NULL"	"NULL"	"<p style='color:rgb(76,175,80);'> Correct Responses: <b>100.00%</b></p><hr><p style='color:rgb(233,30,99);'> Average Response Time: <b>894.33</b> ms.</p>"	n/a	n/a	n/a	n/a	n/a	n/a	n/a	n/a	n/a	n/a
"TRUE"	"preload"	"20"	"123625"	"0.0-4.0-2.0-0.0"	"5jb70x"	"600"	"1366"	"chrome"	"108.0.0"	"FALSE"	"Windows 10"	"60.56"	"153"	n/a	n/a	n/a	n/a	n/a	n/a	n/a	n/a	n/a	n/a	n/a	"NULL"	"FALSE"	"list()"	"list()"	"list()"	n/a	n/a	n/a	n/a	n/a	n/a	n/a	n/a	n/a	n/a	n/a
n/a	"html-keyboard-response"	"21"	"136651"	"0.0-4.0-2.0-1.0"	"5jb70x"	"600"	"1366"	"chrome"	"108.0.0"	"FALSE"	"Windows 10"	"60.56"	"153"	n/a	n/a	n/a	n/a	n/a	n/a	n/a	n/a	n/a	n/a	"13025"	"enter"	n/a	"NULL"	"NULL"	"NULL"	"<p><b>Practice</b></p><p>In this part, two horizontal red lines will appear one above the other.</p><p>Your task is to select which <b>line is longer</b> in length as fast as you can, without making errors.</p><p>Don't get distracted by the surrounding black arrows at the end of the red lines!</p><p>Press <b>the UP or the DOWN arrow</b> to indicate where is the longer <b>red line.</b></p><div style='float: center'><img src='materials/instructions/MullerLyer_Demo.png' height='300'></img><p><img src='utils/answer/answer_updown_keyboard.PNG' height='150'></img></p><p class='small'>In this example, the correct answer is the <b>UP arrow</b>.</p></div><p>Are you ready? <b>Press ENTER to start</b></p>"	n/a	n/a	n/a	n/a	n/a	n/a	n/a	n/a	n/a	n/a
n/a	"html-keyboard-response"	"22"	"138291"	"0.0-4.0-2.0-2.0-0.0"	"5jb70x"	"600"	"1366"	"chrome"	"108.0.0"	"FALSE"	"Windows 10"	"60.56"	"153"	n/a	n/a	n/a	n/a	n/a	n/a	"fixation"	n/a	n/a	n/a	n/a	"NULL"	n/a	"NULL"	"NULL"	"NULL"	"<p style=\"color: black; font-size: 80px; padding-left: 12%; padding-right: 31%; padding-top: 15%; padding-bottom: 24%\">+</p>"	"1114"	n/a	n/a	n/a	n/a	n/a	n/a	n/a	n/a	n/a
n/a	"image-keyboard-response"	"23"	"139081"	"0.0-4.0-2.0-2.0-1.0"	"5jb70x"	"600"	"1366"	"chrome"	"108.0.0"	"FALSE"	"Windows 10"	"60.56"	"153"	n/a	n/a	n/a	n/a	n/a	n/a	"Trial"	n/a	n/a	n/a	"786"	"arrowdown"	n/a	"NULL"	"NULL"	"NULL"	"stimuli/MullerLyer_2300000_-0.7000.png"	n/a	"MullerLyer"	"arrowdown"	"1640"	"TRUE"	"MullerLyer"	"230000000000"	"-0.700000000"	"1"	"7"
n/a	"html-keyboard-response"	"24"	"140151"	"0.0-4.0-2.0-2.0-0.1"	"5jb70x"	"600"	"1366"	"chrome"	"108.0.0"	"FALSE"	"Windows 10"	"60.56"	"153"	n/a	n/a	n/a	n/a	n/a	n/a	"fixation"	n/a	n/a	n/a	n/a	"NULL"	n/a	"NULL"	"NULL"	"NULL"	"<p style=\"color: black; font-size: 80px; padding-left: 0%; padding-right: 7%; padding-top: 27%; padding-bottom: 33%\">+</p>"	"1050"	n/a	n/a	n/a	n/a	n/a	n/a	n/a	n/a	n/a
n/a	"image-keyboard-response"	"25"	"140672"	"0.0-4.0-2.0-2.0-1.1"	"5jb70x"	"600"	"1366"	"chrome"	"108.0.0"	"FALSE"	"Windows 10"	"60.56"	"153"	n/a	n/a	n/a	n/a	n/a	n/a	"Trial"	n/a	n/a	n/a	"520"	"arrowup"	n/a	"NULL"	"NULL"	"NULL"	"stimuli/MullerLyer_-230000_0.70000.png"	n/a	"MullerLyer"	"arrowup"	"1070"	"TRUE"	"MullerLyer"	"-23000000000"	"0.7000000000"	"1"	"8"
n/a	"html-keyboard-response"	"26"	"141803"	"0.0-4.0-2.0-2.0-0.2"	"5jb70x"	"600"	"1366"	"chrome"	"108.0.0"	"FALSE"	"Windows 10"	"60.56"	"153"	n/a	n/a	n/a	n/a	n/a	n/a	"fixation"	n/a	n/a	n/a	n/a	"NULL"	n/a	"NULL"	"NULL"	"NULL"	"<p style=\"color: black; font-size: 80px; padding-left: 32%; padding-right: 5%; padding-top: 10%; padding-bottom: 16%\">+</p>"	"1118"	n/a	n/a	n/a	n/a	n/a	n/a	n/a	n/a	n/a
n/a	"image-keyboard-response"	"27"	"142399"	"0.0-4.0-2.0-2.0-1.2"	"5jb70x"	"600"	"1366"	"chrome"	"108.0.0"	"FALSE"	"Windows 10"	"60.56"	"153"	n/a	n/a	n/a	n/a	n/a	n/a	"Trial"	n/a	n/a	n/a	"595"	"arrowup"	n/a	"NULL"	"NULL"	"NULL"	"stimuli/MullerLyer_2300000_0.70000.png"	n/a	"MullerLyer"	"arrowup"	"1131"	"TRUE"	"MullerLyer"	"230000000000"	"0.7000000000"	"1"	"9"
n/a	"html-keyboard-response"	"28"	"143729"	"0.0-4.0-2.0-2.0-0.3"	"5jb70x"	"600"	"1366"	"chrome"	"108.0.0"	"FALSE"	"Windows 10"	"60.56"	"153"	n/a	n/a	n/a	n/a	n/a	n/a	"fixation"	n/a	n/a	n/a	n/a	"NULL"	n/a	"NULL"	"NULL"	"NULL"	"<p style=\"color: black; font-size: 80px; padding-left: 37%; padding-right: 22%; padding-top: 15%; padding-bottom: 10%\">+</p>"	"1317"	n/a	n/a	n/a	n/a	n/a	n/a	n/a	n/a	n/a
n/a	"image-keyboard-response"	"29"	"144350"	"0.0-4.0-2.0-2.0-1.3"	"5jb70x"	"600"	"1366"	"chrome"	"108.0.0"	"FALSE"	"Windows 10"	"60.56"	"153"	n/a	n/a	n/a	n/a	n/a	n/a	"Trial"	n/a	n/a	n/a	"620"	"arrowup"	n/a	"NULL"	"NULL"	"NULL"	"stimuli/MullerLyer_0000000_0.70000.png"	n/a	"MullerLyer"	"arrowup"	"1330"	"TRUE"	"MullerLyer"	"000000000000"	"0.7000000000"	"1"	"10"
n/a	"html-keyboard-response"	"30"	"145479"	"0.0-4.0-2.0-2.0-0.4"	"5jb70x"	"600"	"1366"	"chrome"	"108.0.0"	"FALSE"	"Windows 10"	"60.56"	"153"	n/a	n/a	n/a	n/a	n/a	n/a	"fixation"	n/a	n/a	n/a	n/a	"NULL"	n/a	"NULL"	"NULL"	"NULL"	"<p style=\"color: black; font-size: 80px; padding-left: 19%; padding-right: 13%; padding-top: 40%; padding-bottom: 40%\">+</p>"	"1118"	n/a	n/a	n/a	n/a	n/a	n/a	n/a	n/a	n/a
n/a	"image-keyboard-response"	"31"	"146939"	"0.0-4.0-2.0-2.0-1.4"	"5jb70x"	"600"	"1366"	"chrome"	"108.0.0"	"FALSE"	"Windows 10"	"60.56"	"153"	n/a	n/a	n/a	n/a	n/a	n/a	"Trial"	n/a	n/a	n/a	"1459"	"arrowdown"	n/a	"NULL"	"NULL"	"NULL"	"stimuli/MullerLyer_-230000_-0.7000.png"	n/a	"MullerLyer"	"arrowdown"	"1129"	"TRUE"	"MullerLyer"	"-23000000000"	"-0.700000000"	"1"	"11"
n/a	"html-keyboard-response"	"32"	"148401"	"0.0-4.0-2.0-2.0-0.5"	"5jb70x"	"600"	"1366"	"chrome"	"108.0.0"	"FALSE"	"Windows 10"	"60.56"	"153"	n/a	n/a	n/a	n/a	n/a	n/a	"fixation"	n/a	n/a	n/a	n/a	"NULL"	n/a	"NULL"	"NULL"	"NULL"	"<p style=\"color: black; font-size: 80px; padding-left: 5%; padding-right: 47%; padding-top: 41%; padding-bottom: 13%\">+</p>"	"1449"	n/a	n/a	n/a	n/a	n/a	n/a	n/a	n/a	n/a
n/a	"image-keyboard-response"	"33"	"149036"	"0.0-4.0-2.0-2.0-1.5"	"5jb70x"	"600"	"1366"	"chrome"	"108.0.0"	"FALSE"	"Windows 10"	"60.56"	"153"	n/a	n/a	n/a	n/a	n/a	n/a	"Trial"	n/a	n/a	n/a	"633"	"arrowdown"	n/a	"NULL"	"NULL"	"NULL"	"stimuli/MullerLyer_0000000_-0.7000.png"	n/a	"MullerLyer"	"arrowdown"	"1462"	"TRUE"	"MullerLyer"	"000000000000"	"-0.700000000"	"1"	"12"
n/a	"html-button-response"	"34"	"151895"	"0.0-4.0-2.0-3.0"	"5jb70x"	"600"	"1366"	"chrome"	"108.0.0"	"FALSE"	"Windows 10"	"60.56"	"153"	n/a	n/a	n/a	n/a	n/a	n/a	"practice_block_results"	n/a	n/a	n/a	"2856"	"0"	n/a	"NULL"	"NULL"	"NULL"	"<p style='color:rgb(76,175,80);'> Correct Responses: <b>100.00%</b></p><hr><p style='color:rgb(233,30,99);'> Average Response Time: <b>768.83</b> ms.</p>"	n/a	n/a	n/a	n/a	n/a	n/a	n/a	n/a	n/a	n/a
"TRUE"	"preload"	"35"	"152442"	"0.0-4.0-3.0-0.0"	"5jb70x"	"600"	"1366"	"chrome"	"108.0.0"	"FALSE"	"Windows 10"	"60.56"	"153"	n/a	n/a	n/a	n/a	n/a	n/a	n/a	n/a	n/a	n/a	n/a	"NULL"	"FALSE"	"list()"	"list()"	"list()"	n/a	n/a	n/a	n/a	n/a	n/a	n/a	n/a	n/a	n/a	n/a
n/a	"html-keyboard-response"	"36"	"162258"	"0.0-4.0-3.0-1.0"	"5jb70x"	"600"	"1366"	"chrome"	"108.0.0"	"FALSE"	"Windows 10"	"60.56"	"153"	n/a	n/a	n/a	n/a	n/a	n/a	n/a	n/a	n/a	n/a	"9815"	"enter"	n/a	"NULL"	"NULL"	"NULL"	"<p><b>Practice</b></p><p>In this part, two red lines will appear side by side.</p><p>Your task is to tell <b>which line is longer</b> in length, regardless of their orientation, as fast as you can, and without making errors.</p><p>Don't get distracted by the orientation of the lines!</p><p>Press <b>the LEFT or the RIGHT arrow</b> to indicate which <b>line is the longer one.</b></p><div style='float: center'><img src='materials/instructions/VerticalHorizontal_Demo.png' height='300'></img><p><img src='utils/answer/answer_leftright_keyboard.PNG' height='150'></img></p><p class='small'>In this example, the correct answer is the <b>LEFT arrow</b>.</p></div><p>Are you ready? <b>Press ENTER to start</b></p>"	n/a	n/a	n/a	n/a	n/a	n/a	n/a	n/a	n/a	n/a
n/a	"html-keyboard-response"	"37"	"163859"	"0.0-4.0-3.0-2.0-0.0"	"5jb70x"	"600"	"1366"	"chrome"	"108.0.0"	"FALSE"	"Windows 10"	"60.56"	"153"	n/a	n/a	n/a	n/a	n/a	n/a	"fixation"	n/a	n/a	n/a	n/a	"NULL"	n/a	"NULL"	"NULL"	"NULL"	"<p style=\"color: black; font-size: 80px; padding-left: 16%; padding-right: 32%; padding-top: 21%; padding-bottom: 10%\">+</p>"	"1077"	n/a	n/a	n/a	n/a	n/a	n/a	n/a	n/a	n/a
n/a	"image-keyboard-response"	"38"	"164609"	"0.0-4.0-3.0-2.0-1.0"	"5jb70x"	"600"	"1366"	"chrome"	"108.0.0"	"FALSE"	"Windows 10"	"60.56"	"153"	n/a	n/a	n/a	n/a	n/a	n/a	"Trial"	n/a	n/a	n/a	"750"	"arrowright"	n/a	"NULL"	"NULL"	"NULL"	"stimuli/VerticalHorizontal_3300000_-0.9000.png"	n/a	"VerticalHorizontal"	"arrowright"	"1601"	"TRUE"	"VerticalHorizontal"	"330000000000"	"-0.900000000"	"1"	"13"
n/a	"html-keyboard-response"	"39"	"165991"	"0.0-4.0-3.0-2.0-0.1"	"5jb70x"	"600"	"1366"	"chrome"	"108.0.0"	"FALSE"	"Windows 10"	"60.56"	"153"	n/a	n/a	n/a	n/a	n/a	n/a	"fixation"	n/a	n/a	n/a	n/a	"NULL"	n/a	"NULL"	"NULL"	"NULL"	"<p style=\"color: black; font-size: 80px; padding-left: 40%; padding-right: 37%; padding-top: 46%; padding-bottom: 41%\">+</p>"	"1377"	n/a	n/a	n/a	n/a	n/a	n/a	n/a	n/a	n/a
n/a	"image-keyboard-response"	"40"	"166639"	"0.0-4.0-3.0-2.0-1.1"	"5jb70x"	"600"	"1366"	"chrome"	"108.0.0"	"FALSE"	"Windows 10"	"60.56"	"153"	n/a	n/a	n/a	n/a	n/a	n/a	"Trial"	n/a	n/a	n/a	"647"	"arrowleft"	n/a	"NULL"	"NULL"	"NULL"	"stimuli/VerticalHorizontal_3300000_0.90000.png"	n/a	"VerticalHorizontal"	"arrowleft"	"1382"	"TRUE"	"VerticalHorizontal"	"330000000000"	"0.9000000000"	"1"	"14"
n/a	"html-keyboard-response"	"41"	"167685"	"0.0-4.0-3.0-2.0-0.2"	"5jb70x"	"600"	"1366"	"chrome"	"108.0.0"	"FALSE"	"Windows 10"	"60.56"	"153"	n/a	n/a	n/a	n/a	n/a	n/a	"fixation"	n/a	n/a	n/a	n/a	"NULL"	n/a	"NULL"	"NULL"	"NULL"	"<p style=\"color: black; font-size: 80px; padding-left: 42%; padding-right: 43%; padding-top: 25%; padding-bottom: 49%\">+</p>"	"1034"	n/a	n/a	n/a	n/a	n/a	n/a	n/a	n/a	n/a
n/a	"image-keyboard-response"	"42"	"168086"	"0.0-4.0-3.0-2.0-1.2"	"5jb70x"	"600"	"1366"	"chrome"	"108.0.0"	"FALSE"	"Windows 10"	"60.56"	"153"	n/a	n/a	n/a	n/a	n/a	n/a	"Trial"	n/a	n/a	n/a	"399"	"arrowright"	n/a	"NULL"	"NULL"	"NULL"	"stimuli/VerticalHorizontal_-330000_-0.9000.png"	n/a	"VerticalHorizontal"	"arrowright"	"1046"	"TRUE"	"VerticalHorizontal"	"-33000000000"	"-0.900000000"	"1"	"15"
n/a	"html-keyboard-response"	"43"	"169401"	"0.0-4.0-3.0-2.0-0.3"	"5jb70x"	"600"	"1366"	"chrome"	"108.0.0"	"FALSE"	"Windows 10"	"60.56"	"153"	n/a	n/a	n/a	n/a	n/a	n/a	"fixation"	n/a	n/a	n/a	n/a	"NULL"	n/a	"NULL"	"NULL"	"NULL"	"<p style=\"color: black; font-size: 80px; padding-left: 33%; padding-right: 18%; padding-top: 42%; padding-bottom: 45%\">+</p>"	"1301"	n/a	n/a	n/a	n/a	n/a	n/a	n/a	n/a	n/a
n/a	"image-keyboard-response"	"44"	"169845"	"0.0-4.0-3.0-2.0-1.3"	"5jb70x"	"600"	"1366"	"chrome"	"108.0.0"	"FALSE"	"Windows 10"	"60.56"	"153"	n/a	n/a	n/a	n/a	n/a	n/a	"Trial"	n/a	n/a	n/a	"442"	"arrowright"	n/a	"NULL"	"NULL"	"NULL"	"stimuli/VerticalHorizontal_0000000_-0.9000.png"	n/a	"VerticalHorizontal"	"arrowright"	"1315"	"TRUE"	"VerticalHorizontal"	"000000000000"	"-0.900000000"	"1"	"16"
n/a	"html-keyboard-response"	"45"	"170924"	"0.0-4.0-3.0-2.0-0.4"	"5jb70x"	"600"	"1366"	"chrome"	"108.0.0"	"FALSE"	"Windows 10"	"60.56"	"153"	n/a	n/a	n/a	n/a	n/a	n/a	"fixation"	n/a	n/a	n/a	n/a	"NULL"	n/a	"NULL"	"NULL"	"NULL"	"<p style=\"color: black; font-size: 80px; padding-left: 18%; padding-right: 22%; padding-top: 4%; padding-bottom: 39%\">+</p>"	"1069"	n/a	n/a	n/a	n/a	n/a	n/a	n/a	n/a	n/a
n/a	"image-keyboard-response"	"46"	"171463"	"0.0-4.0-3.0-2.0-1.4"	"5jb70x"	"600"	"1366"	"chrome"	"108.0.0"	"FALSE"	"Windows 10"	"60.56"	"153"	n/a	n/a	n/a	n/a	n/a	n/a	"Trial"	n/a	n/a	n/a	"538"	"arrowleft"	n/a	"NULL"	"NULL"	"NULL"	"stimuli/VerticalHorizontal_0000000_0.90000.png"	n/a	"VerticalHorizontal"	"arrowleft"	"1079"	"TRUE"	"VerticalHorizontal"	"000000000000"	"0.9000000000"	"1"	"17"
n/a	"html-keyboard-response"	"47"	"172894"	"0.0-4.0-3.0-2.0-0.5"	"5jb70x"	"600"	"1366"	"chrome"	"108.0.0"	"FALSE"	"Windows 10"	"60.56"	"153"	n/a	n/a	n/a	n/a	n/a	n/a	"fixation"	n/a	n/a	n/a	n/a	"NULL"	n/a	"NULL"	"NULL"	"NULL"	"<p style=\"color: black; font-size: 80px; padding-left: 28%; padding-right: 23%; padding-top: 27%; padding-bottom: 44%\">+</p>"	"1419"	n/a	n/a	n/a	n/a	n/a	n/a	n/a	n/a	n/a
n/a	"image-keyboard-response"	"48"	"173361"	"0.0-4.0-3.0-2.0-1.5"	"5jb70x"	"600"	"1366"	"chrome"	"108.0.0"	"FALSE"	"Windows 10"	"60.56"	"153"	n/a	n/a	n/a	n/a	n/a	n/a	"Trial"	n/a	n/a	n/a	"466"	"arrowleft"	n/a	"NULL"	"NULL"	"NULL"	"stimuli/VerticalHorizontal_-330000_0.90000.png"	n/a	"VerticalHorizontal"	"arrowleft"	"1431"	"TRUE"	"VerticalHorizontal"	"-33000000000"	"0.9000000000"	"1"	"18"
n/a	"html-button-response"	"49"	"176762"	"0.0-4.0-3.0-3.0"	"5jb70x"	"600"	"1366"	"chrome"	"108.0.0"	"FALSE"	"Windows 10"	"60.56"	"153"	n/a	n/a	n/a	n/a	n/a	n/a	"practice_block_results"	n/a	n/a	n/a	"3399"	"0"	n/a	"NULL"	"NULL"	"NULL"	"<p style='color:rgb(76,175,80);'> Correct Responses: <b>100.00%</b></p><hr><p style='color:rgb(233,30,99);'> Average Response Time: <b>540.33</b> ms.</p>"	n/a	n/a	n/a	n/a	n/a	n/a	n/a	n/a	n/a	n/a
n/a	"html-button-response"	"50"	"251417"	"0.0-4.0-4.0"	"5jb70x"	"600"	"1366"	"chrome"	"108.0.0"	"FALSE"	"Windows 10"	"60.56"	"153"	n/a	n/a	n/a	n/a	n/a	n/a	"practice_debrief"	n/a	n/a	n/a	"74138"	"0"	n/a	"NULL"	"NULL"	"NULL"	"<p><b>TRAINING COMPLETED</b></p><p>In the next phase, there will be more trials, and some might be harder too.<br> Moreover, after each illusion block, a <b>score</b> will be calculated based on speed (time you took to answer) and accuracy (number of errors).</p><p>Try to keep up a high score!</p><br><p>Note that it can be <i>really</i> challenging at times, so you will need to rely on your <b>intuition</b> and gut feeling to answer as fast as you can without making errors.</p><p>Each illusion block will be repeated two times (so that you have the opportunity to improve your score), but the order of the blocks is random.</p><p>Remember, your goal is to be as <b>fast</b> and <b>accurate</b> as possible. Good luck!</p><br>"	n/a	n/a	n/a	n/a	n/a	n/a	n/a	n/a	n/a	n/a
"TRUE"	"preload"	"51"	"251593"	"0.0-5.0-0.0"	"5jb70x"	"600"	"1366"	"chrome"	"108.0.0"	"FALSE"	"Windows 10"	"60.56"	"153"	n/a	n/a	n/a	n/a	n/a	n/a	n/a	n/a	n/a	n/a	n/a	"NULL"	"FALSE"	"list()"	"list()"	"list()"	n/a	n/a	n/a	n/a	n/a	n/a	n/a	n/a	n/a	n/a	n/a
n/a	"html-keyboard-response"	"52"	"257574"	"0.0-5.0-1.0"	"5jb70x"	"600"	"1366"	"chrome"	"108.0.0"	"FALSE"	"Windows 10"	"60.56"	"153"	n/a	n/a	n/a	n/a	n/a	n/a	n/a	n/a	n/a	n/a	"5980"	"enter"	n/a	"NULL"	"NULL"	"NULL"	"<p><b>Part 1/6</b></p><p>In this part, two horizontal red lines will appear one above the other.</p><p>Your task is to select which <b>line is longer</b> in length as fast as you can, without making errors.</p><p>Don't get distracted by the surrounding black arrows at the end of the red lines!</p><p>Press <b>the UP or the DOWN arrow</b> to indicate where is the longer <b>red line.</b></p><div style='float: center'><img src='materials/instructions/MullerLyer_Demo.png' height='300'></img><p><img src='utils/answer/answer_updown_keyboard.PNG' height='150'></img></p><p class='small'>In this example, the correct answer is the <b>UP arrow</b>.</p></div><p>Are you ready? <b>Press ENTER to start</b></p>"	n/a	n/a	n/a	n/a	n/a	n/a	n/a	n/a	n/a	n/a
n/a	"html-keyboard-response"	"53"	"259455"	"0.0-5.0-2.0-0.0"	"5jb70x"	"600"	"1366"	"chrome"	"108.0.0"	"FALSE"	"Windows 10"	"60.56"	"153"	n/a	n/a	n/a	n/a	n/a	n/a	"fixation"	n/a	n/a	n/a	n/a	"NULL"	n/a	"NULL"	"NULL"	"NULL"	"<p style=\"color: black; font-size: 80px; padding-left: 1%; padding-right: 21%; padding-top: 6%; padding-bottom: 39%\">+</p>"	"1353"	n/a	n/a	n/a	n/a	n/a	n/a	n/a	n/a	n/a
n/a	"image-keyboard-response"	"54"	"260310"	"0.0-5.0-2.0-1.0"	"5jb70x"	"600"	"1366"	"chrome"	"108.0.0"	"FALSE"	"Windows 10"	"60.56"	"153"	n/a	n/a	n/a	n/a	n/a	n/a	"Trial"	n/a	n/a	n/a	"853"	"arrowup"	n/a	"NULL"	"NULL"	"NULL"	"stimuli/MullerLyer_14.12857_-0.07627.png"	n/a	"MullerLyer"	"arrowdown"	"1881"	"FALSE"	"MullerLyer"	"14.128570000"	"-0.076270000"	"1"	"19"
n/a	"html-keyboard-response"	"55"	"261513"	"0.0-5.0-2.0-0.1"	"5jb70x"	"600"	"1366"	"chrome"	"108.0.0"	"FALSE"	"Windows 10"	"60.56"	"153"	n/a	n/a	n/a	n/a	n/a	n/a	"fixation"	n/a	n/a	n/a	n/a	"NULL"	n/a	"NULL"	"NULL"	"NULL"	"<p style=\"color: black; font-size: 80px; padding-left: 9%; padding-right: 29%; padding-top: 44%; padding-bottom: 48%\">+</p>"	"1191"	n/a	n/a	n/a	n/a	n/a	n/a	n/a	n/a	n/a
n/a	"image-keyboard-response"	"56"	"262042"	"0.0-5.0-2.0-1.1"	"5jb70x"	"600"	"1366"	"chrome"	"108.0.0"	"FALSE"	"Windows 10"	"60.56"	"153"	n/a	n/a	n/a	n/a	n/a	n/a	"Trial"	n/a	n/a	n/a	"525"	"arrowup"	n/a	"NULL"	"NULL"	"NULL"	"stimuli/MullerLyer_-2.3000_0.23665.png"	n/a	"MullerLyer"	"arrowup"	"1203"	"TRUE"	"MullerLyer"	"-2.300000000"	"0.2366500000"	"1"	"20"
n/a	"html-keyboard-response"	"57"	"263483"	"0.0-5.0-2.0-0.2"	"5jb70x"	"600"	"1366"	"chrome"	"108.0.0"	"FALSE"	"Windows 10"	"60.56"	"153"	n/a	n/a	n/a	n/a	n/a	n/a	"fixation"	n/a	n/a	n/a	n/a	"NULL"	n/a	"NULL"	"NULL"	"NULL"	"<p style=\"color: black; font-size: 80px; padding-left: 46%; padding-right: 38%; padding-top: 35%; padding-bottom: 34%\">+</p>"	"1423"	n/a	n/a	n/a	n/a	n/a	n/a	n/a	n/a	n/a
n/a	"image-keyboard-response"	"58"	"264215"	"0.0-5.0-2.0-1.2"	"5jb70x"	"600"	"1366"	"chrome"	"108.0.0"	"FALSE"	"Windows 10"	"60.56"	"153"	n/a	n/a	n/a	n/a	n/a	n/a	"Trial"	n/a	n/a	n/a	"731"	"arrowup"	n/a	"NULL"	"NULL"	"NULL"	"stimuli/MullerLyer_14.12857_0.14541.png"	n/a	"MullerLyer"	"arrowup"	"1441"	"TRUE"	"MullerLyer"	"14.128570000"	"0.1454100000"	"1"	"21"
n/a	"html-keyboard-response"	"59"	"265501"	"0.0-5.0-2.0-0.3"	"5jb70x"	"600"	"1366"	"chrome"	"108.0.0"	"FALSE"	"Windows 10"	"60.56"	"153"	n/a	n/a	n/a	n/a	n/a	n/a	"fixation"	n/a	n/a	n/a	n/a	"NULL"	n/a	"NULL"	"NULL"	"NULL"	"<p style=\"color: black; font-size: 80px; padding-left: 39%; padding-right: 6%; padding-top: 30%; padding-bottom: 17%\">+</p>"	"1272"	n/a	n/a	n/a	n/a	n/a	n/a	n/a	n/a	n/a
n/a	"image-keyboard-response"	"60"	"266097"	"0.0-5.0-2.0-1.3"	"5jb70x"	"600"	"1366"	"chrome"	"108.0.0"	"FALSE"	"Windows 10"	"60.56"	"153"	n/a	n/a	n/a	n/a	n/a	n/a	"Trial"	n/a	n/a	n/a	"594"	"arrowup"	n/a	"NULL"	"NULL"	"NULL"	"stimuli/MullerLyer_20.04286_-0.23665.png"	n/a	"MullerLyer"	"arrowdown"	"1286"	"FALSE"	"MullerLyer"	"20.042860000"	"-0.236650000"	"1"	"22"
n/a	"html-keyboard-response"	"61"	"267509"	"0.0-5.0-2.0-0.4"	"5jb70x"	"600"	"1366"	"chrome"	"108.0.0"	"FALSE"	"Windows 10"	"60.56"	"153"	n/a	n/a	n/a	n/a	n/a	n/a	"fixation"	n/a	n/a	n/a	n/a	"NULL"	n/a	"NULL"	"NULL"	"NULL"	"<p style=\"color: black; font-size: 80px; padding-left: 20%; padding-right: 19%; padding-top: 16%; padding-bottom: 22%\">+</p>"	"1403"	n/a	n/a	n/a	n/a	n/a	n/a	n/a	n/a	n/a
n/a	"image-keyboard-response"	"62"	"268338"	"0.0-5.0-2.0-1.4"	"5jb70x"	"600"	"1366"	"chrome"	"108.0.0"	"FALSE"	"Windows 10"	"60.56"	"153"	n/a	n/a	n/a	n/a	n/a	n/a	"Trial"	n/a	n/a	n/a	"828"	"arrowup"	n/a	"NULL"	"NULL"	"NULL"	"stimuli/MullerLyer_20.04286_-0.14541.png"	n/a	"MullerLyer"	"arrowdown"	"1412"	"FALSE"	"MullerLyer"	"20.042860000"	"-0.145410000"	"1"	"23"
n/a	"html-keyboard-response"	"63"	"269717"	"0.0-5.0-2.0-0.5"	"5jb70x"	"600"	"1366"	"chrome"	"108.0.0"	"FALSE"	"Windows 10"	"60.56"	"153"	n/a	n/a	n/a	n/a	n/a	n/a	"fixation"	n/a	n/a	n/a	n/a	"NULL"	n/a	"NULL"	"NULL"	"NULL"	"<p style=\"color: black; font-size: 80px; padding-left: 44%; padding-right: 6%; padding-top: 17%; padding-bottom: 25%\">+</p>"	"1358"	n/a	n/a	n/a	n/a	n/a	n/a	n/a	n/a	n/a
n/a	"image-keyboard-response"	"64"	"270253"	"0.0-5.0-2.0-1.5"	"5jb70x"	"600"	"1366"	"chrome"	"108.0.0"	"FALSE"	"Windows 10"	"60.56"	"153"	n/a	n/a	n/a	n/a	n/a	n/a	"Trial"	n/a	n/a	n/a	"536"	"arrowdown"	n/a	"NULL"	"NULL"	"NULL"	"stimuli/MullerLyer_14.12857_-0.3500.png"	n/a	"MullerLyer"	"arrowdown"	"1379"	"TRUE"	"MullerLyer"	"14.128570000"	"-0.350000000"	"1"	"24"
n/a	"html-keyboard-response"	"65"	"271659"	"0.0-5.0-2.0-0.6"	"5jb70x"	"600"	"1366"	"chrome"	"108.0.0"	"FALSE"	"Windows 10"	"60.56"	"153"	n/a	n/a	n/a	n/a	n/a	n/a	"fixation"	n/a	n/a	n/a	n/a	"NULL"	n/a	"NULL"	"NULL"	"NULL"	"<p style=\"color: black; font-size: 80px; padding-left: 8%; padding-right: 9%; padding-top: 31%; padding-bottom: 9%\">+</p>"	"1392"	n/a	n/a	n/a	n/a	n/a	n/a	n/a	n/a	n/a
n/a	"image-keyboard-response"	"66"	"272555"	"0.0-5.0-2.0-1.6"	"5jb70x"	"600"	"1366"	"chrome"	"108.0.0"	"FALSE"	"Windows 10"	"60.56"	"153"	n/a	n/a	n/a	n/a	n/a	n/a	"Trial"	n/a	n/a	n/a	"888"	"arrowup"	n/a	"NULL"	"NULL"	"NULL"	"stimuli/MullerLyer_2.30000_0.07627.png"	n/a	"MullerLyer"	"arrowup"	"1406"	"TRUE"	"MullerLyer"	"2.3000000000"	"0.0762700000"	"1"	"25"
n/a	"html-keyboard-response"	"67"	"273847"	"0.0-5.0-2.0-0.7"	"5jb70x"	"600"	"1366"	"chrome"	"108.0.0"	"FALSE"	"Windows 10"	"60.56"	"153"	n/a	n/a	n/a	n/a	n/a	n/a	"fixation"	n/a	n/a	n/a	n/a	"NULL"	n/a	"NULL"	"NULL"	"NULL"	"<p style=\"color: black; font-size: 80px; padding-left: 9%; padding-right: 46%; padding-top: 25%; padding-bottom: 10%\">+</p>"	"1280"	n/a	n/a	n/a	n/a	n/a	n/a	n/a	n/a	n/a
n/a	"image-keyboard-response"	"68"	"274503"	"0.0-5.0-2.0-1.7"	"5jb70x"	"600"	"1366"	"chrome"	"108.0.0"	"FALSE"	"Windows 10"	"60.56"	"153"	n/a	n/a	n/a	n/a	n/a	n/a	"Trial"	n/a	n/a	n/a	"655"	"arrowdown"	n/a	"NULL"	"NULL"	"NULL"	"stimuli/MullerLyer_-8.21429_-0.3500.png"	n/a	"MullerLyer"	"arrowdown"	"1292"	"TRUE"	"MullerLyer"	"-8.214290000"	"-0.350000000"	"1"	"26"
n/a	"html-keyboard-response"	"69"	"275877"	"0.0-5.0-2.0-0.8"	"5jb70x"	"600"	"1366"	"chrome"	"108.0.0"	"FALSE"	"Windows 10"	"60.56"	"153"	n/a	n/a	n/a	n/a	n/a	n/a	"fixation"	n/a	n/a	n/a	n/a	"NULL"	n/a	"NULL"	"NULL"	"NULL"	"<p style=\"color: black; font-size: 80px; padding-left: 36%; padding-right: 18%; padding-top: 13%; padding-bottom: 21%\">+</p>"	"1365"	n/a	n/a	n/a	n/a	n/a	n/a	n/a	n/a	n/a
n/a	"image-keyboard-response"	"70"	"276511"	"0.0-5.0-2.0-1.8"	"5jb70x"	"600"	"1366"	"chrome"	"108.0.0"	"FALSE"	"Windows 10"	"60.56"	"153"	n/a	n/a	n/a	n/a	n/a	n/a	"Trial"	n/a	n/a	n/a	"633"	"arrowdown"	n/a	"NULL"	"NULL"	"NULL"	"stimuli/MullerLyer_2.30000_-0.23665.png"	n/a	"MullerLyer"	"arrowdown"	"1374"	"TRUE"	"MullerLyer"	"2.3000000000"	"-0.236650000"	"1"	"27"
n/a	"html-keyboard-response"	"71"	"277623"	"0.0-5.0-2.0-0.9"	"5jb70x"	"600"	"1366"	"chrome"	"108.0.0"	"FALSE"	"Windows 10"	"60.56"	"153"	n/a	n/a	n/a	n/a	n/a	n/a	"fixation"	n/a	n/a	n/a	n/a	"NULL"	n/a	"NULL"	"NULL"	"NULL"	"<p style=\"color: black; font-size: 80px; padding-left: 29%; padding-right: 24%; padding-top: 36%; padding-bottom: 38%\">+</p>"	"1101"	n/a	n/a	n/a	n/a	n/a	n/a	n/a	n/a	n/a
n/a	"image-keyboard-response"	"72"	"278508"	"0.0-5.0-2.0-1.9"	"5jb70x"	"600"	"1366"	"chrome"	"108.0.0"	"FALSE"	"Windows 10"	"60.56"	"153"	n/a	n/a	n/a	n/a	n/a	n/a	"Trial"	n/a	n/a	n/a	"883"	"arrowdown"	n/a	"NULL"	"NULL"	"NULL"	"stimuli/MullerLyer_-14.12857_-0.07627.png"	n/a	"MullerLyer"	"arrowdown"	"1112"	"TRUE"	"MullerLyer"	"-14.12857000"	"-0.076270000"	"1"	"28"
n/a	"html-keyboard-response"	"73"	"279835"	"0.0-5.0-2.0-0.10"	"5jb70x"	"600"	"1366"	"chrome"	"108.0.0"	"FALSE"	"Windows 10"	"60.56"	"153"	n/a	n/a	n/a	n/a	n/a	n/a	"fixation"	n/a	n/a	n/a	n/a	"NULL"	n/a	"NULL"	"NULL"	"NULL"	"<p style=\"color: black; font-size: 80px; padding-left: 44%; padding-right: 36%; padding-top: 11%; padding-bottom: 9%\">+</p>"	"1320"	n/a	n/a	n/a	n/a	n/a	n/a	n/a	n/a	n/a
n/a	"image-keyboard-response"	"74"	"280412"	"0.0-5.0-2.0-1.10"	"5jb70x"	"600"	"1366"	"chrome"	"108.0.0"	"FALSE"	"Windows 10"	"60.56"	"153"	n/a	n/a	n/a	n/a	n/a	n/a	"Trial"	n/a	n/a	n/a	"574"	"arrowup"	n/a	"NULL"	"NULL"	"NULL"	"stimuli/MullerLyer_-20.04286_0.07627.png"	n/a	"MullerLyer"	"arrowup"	"1327"	"TRUE"	"MullerLyer"	"-20.04286000"	"0.0762700000"	"1"	"29"
n/a	"html-keyboard-response"	"75"	"281805"	"0.0-5.0-2.0-0.11"	"5jb70x"	"600"	"1366"	"chrome"	"108.0.0"	"FALSE"	"Windows 10"	"60.56"	"153"	n/a	n/a	n/a	n/a	n/a	n/a	"fixation"	n/a	n/a	n/a	n/a	"NULL"	n/a	"NULL"	"NULL"	"NULL"	"<p style=\"color: black; font-size: 80px; padding-left: 28%; padding-right: 20%; padding-top: 31%; padding-bottom: 0%\">+</p>"	"1378"	n/a	n/a	n/a	n/a	n/a	n/a	n/a	n/a	n/a
n/a	"image-keyboard-response"	"76"	"282332"	"0.0-5.0-2.0-1.11"	"5jb70x"	"600"	"1366"	"chrome"	"108.0.0"	"FALSE"	"Windows 10"	"60.56"	"153"	n/a	n/a	n/a	n/a	n/a	n/a	"Trial"	n/a	n/a	n/a	"526"	"arrowup"	n/a	"NULL"	"NULL"	"NULL"	"stimuli/MullerLyer_-20.04286_0.23665.png"	n/a	"MullerLyer"	"arrowup"	"1393"	"TRUE"	"MullerLyer"	"-20.04286000"	"0.2366500000"	"1"	"30"
n/a	"html-keyboard-response"	"77"	"283812"	"0.0-5.0-2.0-0.12"	"5jb70x"	"600"	"1366"	"chrome"	"108.0.0"	"FALSE"	"Windows 10"	"60.56"	"153"	n/a	n/a	n/a	n/a	n/a	n/a	"fixation"	n/a	n/a	n/a	n/a	"NULL"	n/a	"NULL"	"NULL"	"NULL"	"<p style=\"color: black; font-size: 80px; padding-left: 45%; padding-right: 31%; padding-top: 30%; padding-bottom: 40%\">+</p>"	"1473"	n/a	n/a	n/a	n/a	n/a	n/a	n/a	n/a	n/a
n/a	"image-keyboard-response"	"78"	"284327"	"0.0-5.0-2.0-1.12"	"5jb70x"	"600"	"1366"	"chrome"	"108.0.0"	"FALSE"	"Windows 10"	"60.56"	"153"	n/a	n/a	n/a	n/a	n/a	n/a	"Trial"	n/a	n/a	n/a	"514"	"arrowup"	n/a	"NULL"	"NULL"	"NULL"	"stimuli/MullerLyer_-14.12857_0.23665.png"	n/a	"MullerLyer"	"arrowup"	"1480"	"TRUE"	"MullerLyer"	"-14.12857000"	"0.2366500000"	"1"	"31"
n/a	"html-keyboard-response"	"79"	"285622"	"0.0-5.0-2.0-0.13"	"5jb70x"	"600"	"1366"	"chrome"	"108.0.0"	"FALSE"	"Windows 10"	"60.56"	"153"	n/a	n/a	n/a	n/a	n/a	n/a	"fixation"	n/a	n/a	n/a	n/a	"NULL"	n/a	"NULL"	"NULL"	"NULL"	"<p style=\"color: black; font-size: 80px; padding-left: 25%; padding-right: 44%; padding-top: 47%; padding-bottom: 38%\">+</p>"	"1286"	n/a	n/a	n/a	n/a	n/a	n/a	n/a	n/a	n/a
n/a	"image-keyboard-response"	"80"	"286181"	"0.0-5.0-2.0-1.13"	"5jb70x"	"600"	"1366"	"chrome"	"108.0.0"	"FALSE"	"Windows 10"	"60.56"	"153"	n/a	n/a	n/a	n/a	n/a	n/a	"Trial"	n/a	n/a	n/a	"558"	"arrowup"	n/a	"NULL"	"NULL"	"NULL"	"stimuli/MullerLyer_2.30000_0.23665.png"	n/a	"MullerLyer"	"arrowup"	"1295"	"TRUE"	"MullerLyer"	"2.3000000000"	"0.2366500000"	"1"	"32"
n/a	"html-keyboard-response"	"81"	"287269"	"0.0-5.0-2.0-0.14"	"5jb70x"	"600"	"1366"	"chrome"	"108.0.0"	"FALSE"	"Windows 10"	"60.56"	"153"	n/a	n/a	n/a	n/a	n/a	n/a	"fixation"	n/a	n/a	n/a	n/a	"NULL"	n/a	"NULL"	"NULL"	"NULL"	"<p style=\"color: black; font-size: 80px; padding-left: 34%; padding-right: 49%; padding-top: 38%; padding-bottom: 14%\">+</p>"	"1077"	n/a	n/a	n/a	n/a	n/a	n/a	n/a	n/a	n/a
n/a	"image-keyboard-response"	"82"	"288072"	"0.0-5.0-2.0-1.14"	"5jb70x"	"600"	"1366"	"chrome"	"108.0.0"	"FALSE"	"Windows 10"	"60.56"	"153"	n/a	n/a	n/a	n/a	n/a	n/a	"Trial"	n/a	n/a	n/a	"800"	"arrowup"	n/a	"NULL"	"NULL"	"NULL"	"stimuli/MullerLyer_8.21429_0.14541.png"	n/a	"MullerLyer"	"arrowup"	"1088"	"TRUE"	"MullerLyer"	"8.2142900000"	"0.1454100000"	"1"	"33"
n/a	"html-keyboard-response"	"83"	"289580"	"0.0-5.0-2.0-0.15"	"5jb70x"	"600"	"1366"	"chrome"	"108.0.0"	"FALSE"	"Windows 10"	"60.56"	"153"	n/a	n/a	n/a	n/a	n/a	n/a	"fixation"	n/a	n/a	n/a	n/a	"NULL"	n/a	"NULL"	"NULL"	"NULL"	"<p style=\"color: black; font-size: 80px; padding-left: 41%; padding-right: 19%; padding-top: 41%; padding-bottom: 28%\">+</p>"	"1496"	n/a	n/a	n/a	n/a	n/a	n/a	n/a	n/a	n/a
n/a	"image-keyboard-response"	"84"	"290125"	"0.0-5.0-2.0-1.15"	"5jb70x"	"600"	"1366"	"chrome"	"108.0.0"	"FALSE"	"Windows 10"	"60.56"	"153"	n/a	n/a	n/a	n/a	n/a	n/a	"Trial"	n/a	n/a	n/a	"544"	"arrowdown"	n/a	"NULL"	"NULL"	"NULL"	"stimuli/MullerLyer_8.21429_-0.3500.png"	n/a	"MullerLyer"	"arrowdown"	"1508"	"TRUE"	"MullerLyer"	"8.2142900000"	"-0.350000000"	"1"	"34"
n/a	"html-keyboard-response"	"85"	"291637"	"0.0-5.0-2.0-0.16"	"5jb70x"	"600"	"1366"	"chrome"	"108.0.0"	"FALSE"	"Windows 10"	"60.56"	"153"	n/a	n/a	n/a	n/a	n/a	n/a	"fixation"	n/a	n/a	n/a	n/a	"NULL"	n/a	"NULL"	"NULL"	"NULL"	"<p style=\"color: black; font-size: 80px; padding-left: 7%; padding-right: 46%; padding-top: 48%; padding-bottom: 1%\">+</p>"	"1498"	n/a	n/a	n/a	n/a	n/a	n/a	n/a	n/a	n/a
n/a	"image-keyboard-response"	"86"	"292210"	"0.0-5.0-2.0-1.16"	"5jb70x"	"600"	"1366"	"chrome"	"108.0.0"	"FALSE"	"Windows 10"	"60.56"	"153"	n/a	n/a	n/a	n/a	n/a	n/a	"Trial"	n/a	n/a	n/a	"572"	"arrowup"	n/a	"NULL"	"NULL"	"NULL"	"stimuli/MullerLyer_8.21429_-0.07627.png"	n/a	"MullerLyer"	"arrowdown"	"1512"	"FALSE"	"MullerLyer"	"8.2142900000"	"-0.076270000"	"1"	"35"
n/a	"html-keyboard-response"	"87"	"293707"	"0.0-5.0-2.0-0.17"	"5jb70x"	"600"	"1366"	"chrome"	"108.0.0"	"FALSE"	"Windows 10"	"60.56"	"153"	n/a	n/a	n/a	n/a	n/a	n/a	"fixation"	n/a	n/a	n/a	n/a	"NULL"	n/a	"NULL"	"NULL"	"NULL"	"<p style=\"color: black; font-size: 80px; padding-left: 48%; padding-right: 46%; padding-top: 49%; padding-bottom: 12%\">+</p>"	"1479"	n/a	n/a	n/a	n/a	n/a	n/a	n/a	n/a	n/a
n/a	"image-keyboard-response"	"88"	"294290"	"0.0-5.0-2.0-1.17"	"5jb70x"	"600"	"1366"	"chrome"	"108.0.0"	"FALSE"	"Windows 10"	"60.56"	"153"	n/a	n/a	n/a	n/a	n/a	n/a	"Trial"	n/a	n/a	n/a	"583"	"arrowup"	n/a	"NULL"	"NULL"	"NULL"	"stimuli/MullerLyer_20.04286_0.35000.png"	n/a	"MullerLyer"	"arrowup"	"1497"	"TRUE"	"MullerLyer"	"20.042860000"	"0.3500000000"	"1"	"36"
n/a	"html-keyboard-response"	"89"	"295586"	"0.0-5.0-2.0-0.18"	"5jb70x"	"600"	"1366"	"chrome"	"108.0.0"	"FALSE"	"Windows 10"	"60.56"	"153"	n/a	n/a	n/a	n/a	n/a	n/a	"fixation"	n/a	n/a	n/a	n/a	"NULL"	n/a	"NULL"	"NULL"	"NULL"	"<p style=\"color: black; font-size: 80px; padding-left: 23%; padding-right: 23%; padding-top: 47%; padding-bottom: 32%\">+</p>"	"1286"	n/a	n/a	n/a	n/a	n/a	n/a	n/a	n/a	n/a
n/a	"image-keyboard-response"	"90"	"296174"	"0.0-5.0-2.0-1.18"	"5jb70x"	"600"	"1366"	"chrome"	"108.0.0"	"FALSE"	"Windows 10"	"60.56"	"153"	n/a	n/a	n/a	n/a	n/a	n/a	"Trial"	n/a	n/a	n/a	"587"	"arrowup"	n/a	"NULL"	"NULL"	"NULL"	"stimuli/MullerLyer_-14.12857_0.07627.png"	n/a	"MullerLyer"	"arrowup"	"1296"	"TRUE"	"MullerLyer"	"-14.12857000"	"0.0762700000"	"1"	"37"
n/a	"html-keyboard-response"	"91"	"297531"	"0.0-5.0-2.0-0.19"	"5jb70x"	"600"	"1366"	"chrome"	"108.0.0"	"FALSE"	"Windows 10"	"60.56"	"153"	n/a	n/a	n/a	n/a	n/a	n/a	"fixation"	n/a	n/a	n/a	n/a	"NULL"	n/a	"NULL"	"NULL"	"NULL"	"<p style=\"color: black; font-size: 80px; padding-left: 45%; padding-right: 12%; padding-top: 33%; padding-bottom: 0%\">+</p>"	"1344"	n/a	n/a	n/a	n/a	n/a	n/a	n/a	n/a	n/a
n/a	"image-keyboard-response"	"92"	"298213"	"0.0-5.0-2.0-1.19"	"5jb70x"	"600"	"1366"	"chrome"	"108.0.0"	"FALSE"	"Windows 10"	"60.56"	"153"	n/a	n/a	n/a	n/a	n/a	n/a	"Trial"	n/a	n/a	n/a	"681"	"arrowup"	n/a	"NULL"	"NULL"	"NULL"	"stimuli/MullerLyer_2.30000_0.14541.png"	n/a	"MullerLyer"	"arrowup"	"1357"	"TRUE"	"MullerLyer"	"2.3000000000"	"0.1454100000"	"1"	"38"
n/a	"html-keyboard-response"	"93"	"299633"	"0.0-5.0-2.0-0.20"	"5jb70x"	"600"	"1366"	"chrome"	"108.0.0"	"FALSE"	"Windows 10"	"60.56"	"153"	n/a	n/a	n/a	n/a	n/a	n/a	"fixation"	n/a	n/a	n/a	n/a	"NULL"	n/a	"NULL"	"NULL"	"NULL"	"<p style=\"color: black; font-size: 80px; padding-left: 4%; padding-right: 20%; padding-top: 5%; padding-bottom: 42%\">+</p>"	"1416"	n/a	n/a	n/a	n/a	n/a	n/a	n/a	n/a	n/a
n/a	"image-keyboard-response"	"94"	"300286"	"0.0-5.0-2.0-1.20"	"5jb70x"	"600"	"1366"	"chrome"	"108.0.0"	"FALSE"	"Windows 10"	"60.56"	"153"	n/a	n/a	n/a	n/a	n/a	n/a	"Trial"	n/a	n/a	n/a	"652"	"arrowup"	n/a	"NULL"	"NULL"	"NULL"	"stimuli/MullerLyer_-8.21429_0.35000.png"	n/a	"MullerLyer"	"arrowup"	"1420"	"TRUE"	"MullerLyer"	"-8.214290000"	"0.3500000000"	"1"	"39"
n/a	"html-keyboard-response"	"95"	"301487"	"0.0-5.0-2.0-0.21"	"5jb70x"	"600"	"1366"	"chrome"	"108.0.0"	"FALSE"	"Windows 10"	"60.56"	"153"	n/a	n/a	n/a	n/a	n/a	n/a	"fixation"	n/a	n/a	n/a	n/a	"NULL"	n/a	"NULL"	"NULL"	"NULL"	"<p style=\"color: black; font-size: 80px; padding-left: 16%; padding-right: 43%; padding-top: 26%; padding-bottom: 21%\">+</p>"	"1178"	n/a	n/a	n/a	n/a	n/a	n/a	n/a	n/a	n/a
n/a	"image-keyboard-response"	"96"	"302103"	"0.0-5.0-2.0-1.21"	"5jb70x"	"600"	"1366"	"chrome"	"108.0.0"	"FALSE"	"Windows 10"	"60.56"	"153"	n/a	n/a	n/a	n/a	n/a	n/a	"Trial"	n/a	n/a	n/a	"615"	"arrowdown"	n/a	"NULL"	"NULL"	"NULL"	"stimuli/MullerLyer_-14.12857_-0.23665.png"	n/a	"MullerLyer"	"arrowdown"	"1201"	"TRUE"	"MullerLyer"	"-14.12857000"	"-0.236650000"	"1"	"40"
n/a	"html-keyboard-response"	"97"	"303437"	"0.0-5.0-2.0-0.22"	"5jb70x"	"600"	"1366"	"chrome"	"108.0.0"	"FALSE"	"Windows 10"	"60.56"	"153"	n/a	n/a	n/a	n/a	n/a	n/a	"fixation"	n/a	n/a	n/a	n/a	"NULL"	n/a	"NULL"	"NULL"	"NULL"	"<p style=\"color: black; font-size: 80px; padding-left: 25%; padding-right: 29%; padding-top: 4%; padding-bottom: 9%\">+</p>"	"1313"	n/a	n/a	n/a	n/a	n/a	n/a	n/a	n/a	n/a
n/a	"image-keyboard-response"	"98"	"304336"	"0.0-5.0-2.0-1.22"	"5jb70x"	"600"	"1366"	"chrome"	"108.0.0"	"FALSE"	"Windows 10"	"60.56"	"153"	n/a	n/a	n/a	n/a	n/a	n/a	"Trial"	n/a	n/a	n/a	"898"	"arrowdown"	n/a	"NULL"	"NULL"	"NULL"	"stimuli/MullerLyer_2.30000_-0.14541.png"	n/a	"MullerLyer"	"arrowdown"	"1334"	"TRUE"	"MullerLyer"	"2.3000000000"	"-0.145410000"	"1"	"41"
n/a	"html-keyboard-response"	"99"	"305583"	"0.0-5.0-2.0-0.23"	"5jb70x"	"600"	"1366"	"chrome"	"108.0.0"	"FALSE"	"Windows 10"	"60.56"	"153"	n/a	n/a	n/a	n/a	n/a	n/a	"fixation"	n/a	n/a	n/a	n/a	"NULL"	n/a	"NULL"	"NULL"	"NULL"	"<p style=\"color: black; font-size: 80px; padding-left: 39%; padding-right: 31%; padding-top: 33%; padding-bottom: 30%\">+</p>"	"1232"	n/a	n/a	n/a	n/a	n/a	n/a	n/a	n/a	n/a
n/a	"image-keyboard-response"	"100"	"306471"	"0.0-5.0-2.0-1.23"	"5jb70x"	"600"	"1366"	"chrome"	"108.0.0"	"FALSE"	"Windows 10"	"60.56"	"153"	n/a	n/a	n/a	n/a	n/a	n/a	"Trial"	n/a	n/a	n/a	"887"	"arrowup"	n/a	"NULL"	"NULL"	"NULL"	"stimuli/MullerLyer_14.12857_0.07627.png"	n/a	"MullerLyer"	"arrowup"	"1247"	"TRUE"	"MullerLyer"	"14.128570000"	"0.0762700000"	"1"	"42"
n/a	"html-keyboard-response"	"101"	"307936"	"0.0-5.0-2.0-0.24"	"5jb70x"	"600"	"1366"	"chrome"	"108.0.0"	"FALSE"	"Windows 10"	"60.56"	"153"	n/a	n/a	n/a	n/a	n/a	n/a	"fixation"	n/a	n/a	n/a	n/a	"NULL"	n/a	"NULL"	"NULL"	"NULL"	"<p style=\"color: black; font-size: 80px; padding-left: 41%; padding-right: 8%; padding-top: 1%; padding-bottom: 4%\">+</p>"	"1454"	n/a	n/a	n/a	n/a	n/a	n/a	n/a	n/a	n/a
n/a	"image-keyboard-response"	"102"	"308787"	"0.0-5.0-2.0-1.24"	"5jb70x"	"600"	"1366"	"chrome"	"108.0.0"	"FALSE"	"Windows 10"	"60.56"	"153"	n/a	n/a	n/a	n/a	n/a	n/a	"Trial"	n/a	n/a	n/a	"850"	"arrowup"	n/a	"NULL"	"NULL"	"NULL"	"stimuli/MullerLyer_8.21429_0.23665.png"	n/a	"MullerLyer"	"arrowup"	"1465"	"TRUE"	"MullerLyer"	"8.2142900000"	"0.2366500000"	"1"	"43"
n/a	"html-keyboard-response"	"103"	"310189"	"0.0-5.0-2.0-0.25"	"5jb70x"	"600"	"1366"	"chrome"	"108.0.0"	"FALSE"	"Windows 10"	"60.56"	"153"	n/a	n/a	n/a	n/a	n/a	n/a	"fixation"	n/a	n/a	n/a	n/a	"NULL"	n/a	"NULL"	"NULL"	"NULL"	"<p style=\"color: black; font-size: 80px; padding-left: 18%; padding-right: 2%; padding-top: 32%; padding-bottom: 44%\">+</p>"	"1392"	n/a	n/a	n/a	n/a	n/a	n/a	n/a	n/a	n/a
n/a	"image-keyboard-response"	"104"	"310819"	"0.0-5.0-2.0-1.25"	"5jb70x"	"600"	"1366"	"chrome"	"108.0.0"	"FALSE"	"Windows 10"	"60.56"	"153"	n/a	n/a	n/a	n/a	n/a	n/a	"Trial"	n/a	n/a	n/a	"629"	"arrowup"	n/a	"NULL"	"NULL"	"NULL"	"stimuli/MullerLyer_-14.12857_0.14541.png"	n/a	"MullerLyer"	"arrowup"	"1402"	"TRUE"	"MullerLyer"	"-14.12857000"	"0.1454100000"	"1"	"44"
n/a	"html-keyboard-response"	"105"	"312206"	"0.0-5.0-2.0-0.26"	"5jb70x"	"600"	"1366"	"chrome"	"108.0.0"	"FALSE"	"Windows 10"	"60.56"	"153"	n/a	n/a	n/a	n/a	n/a	n/a	"fixation"	n/a	n/a	n/a	n/a	"NULL"	n/a	"NULL"	"NULL"	"NULL"	"<p style=\"color: black; font-size: 80px; padding-left: 42%; padding-right: 26%; padding-top: 29%; padding-bottom: 10%\">+</p>"	"1371"	n/a	n/a	n/a	n/a	n/a	n/a	n/a	n/a	n/a
n/a	"image-keyboard-response"	"106"	"312781"	"0.0-5.0-2.0-1.26"	"5jb70x"	"600"	"1366"	"chrome"	"108.0.0"	"FALSE"	"Windows 10"	"60.56"	"153"	n/a	n/a	n/a	n/a	n/a	n/a	"Trial"	n/a	n/a	n/a	"575"	"arrowdown"	n/a	"NULL"	"NULL"	"NULL"	"stimuli/MullerLyer_-8.21429_-0.23665.png"	n/a	"MullerLyer"	"arrowdown"	"1387"	"TRUE"	"MullerLyer"	"-8.214290000"	"-0.236650000"	"1"	"45"
n/a	"html-keyboard-response"	"107"	"314216"	"0.0-5.0-2.0-0.27"	"5jb70x"	"600"	"1366"	"chrome"	"108.0.0"	"FALSE"	"Windows 10"	"60.56"	"153"	n/a	n/a	n/a	n/a	n/a	n/a	"fixation"	n/a	n/a	n/a	n/a	"NULL"	n/a	"NULL"	"NULL"	"NULL"	"<p style=\"color: black; font-size: 80px; padding-left: 33%; padding-right: 47%; padding-top: 43%; padding-bottom: 22%\">+</p>"	"1418"	n/a	n/a	n/a	n/a	n/a	n/a	n/a	n/a	n/a
n/a	"image-keyboard-response"	"108"	"314841"	"0.0-5.0-2.0-1.27"	"5jb70x"	"600"	"1366"	"chrome"	"108.0.0"	"FALSE"	"Windows 10"	"60.56"	"153"	n/a	n/a	n/a	n/a	n/a	n/a	"Trial"	n/a	n/a	n/a	"624"	"arrowup"	n/a	"NULL"	"NULL"	"NULL"	"stimuli/MullerLyer_-8.21429_0.23665.png"	n/a	"MullerLyer"	"arrowup"	"1435"	"TRUE"	"MullerLyer"	"-8.214290000"	"0.2366500000"	"1"	"46"
n/a	"html-keyboard-response"	"109"	"316174"	"0.0-5.0-2.0-0.28"	"5jb70x"	"600"	"1366"	"chrome"	"108.0.0"	"FALSE"	"Windows 10"	"60.56"	"153"	n/a	n/a	n/a	n/a	n/a	n/a	"fixation"	n/a	n/a	n/a	n/a	"NULL"	n/a	"NULL"	"NULL"	"NULL"	"<p style=\"color: black; font-size: 80px; padding-left: 17%; padding-right: 13%; padding-top: 20%; padding-bottom: 48%\">+</p>"	"1324"	n/a	n/a	n/a	n/a	n/a	n/a	n/a	n/a	n/a
n/a	"image-keyboard-response"	"110"	"316926"	"0.0-5.0-2.0-1.28"	"5jb70x"	"600"	"1366"	"chrome"	"108.0.0"	"FALSE"	"Windows 10"	"60.56"	"153"	n/a	n/a	n/a	n/a	n/a	n/a	"Trial"	n/a	n/a	n/a	"751"	"arrowdown"	n/a	"NULL"	"NULL"	"NULL"	"stimuli/MullerLyer_20.04286_-0.3500.png"	n/a	"MullerLyer"	"arrowdown"	"1333"	"TRUE"	"MullerLyer"	"20.042860000"	"-0.350000000"	"1"	"47"
n/a	"html-keyboard-response"	"111"	"318416"	"0.0-5.0-2.0-0.29"	"5jb70x"	"600"	"1366"	"chrome"	"108.0.0"	"FALSE"	"Windows 10"	"60.56"	"153"	n/a	n/a	n/a	n/a	n/a	n/a	"fixation"	n/a	n/a	n/a	n/a	"NULL"	n/a	"NULL"	"NULL"	"NULL"	"<p style=\"color: black; font-size: 80px; padding-left: 17%; padding-right: 30%; padding-top: 15%; padding-bottom: 15%\">+</p>"	"1479"	n/a	n/a	n/a	n/a	n/a	n/a	n/a	n/a	n/a
n/a	"image-keyboard-response"	"112"	"318922"	"0.0-5.0-2.0-1.29"	"5jb70x"	"600"	"1366"	"chrome"	"108.0.0"	"FALSE"	"Windows 10"	"60.56"	"153"	n/a	n/a	n/a	n/a	n/a	n/a	"Trial"	n/a	n/a	n/a	"505"	"arrowdown"	n/a	"NULL"	"NULL"	"NULL"	"stimuli/MullerLyer_2.30000_-0.3500.png"	n/a	"MullerLyer"	"arrowdown"	"1490"	"TRUE"	"MullerLyer"	"2.3000000000"	"-0.350000000"	"1"	"48"
n/a	"html-keyboard-response"	"113"	"320381"	"0.0-5.0-2.0-0.30"	"5jb70x"	"600"	"1366"	"chrome"	"108.0.0"	"FALSE"	"Windows 10"	"60.56"	"153"	n/a	n/a	n/a	n/a	n/a	n/a	"fixation"	n/a	n/a	n/a	n/a	"NULL"	n/a	"NULL"	"NULL"	"NULL"	"<p style=\"color: black; font-size: 80px; padding-left: 39%; padding-right: 6%; padding-top: 16%; padding-bottom: 5%\">+</p>"	"1443"	n/a	n/a	n/a	n/a	n/a	n/a	n/a	n/a	n/a
n/a	"image-keyboard-response"	"114"	"320953"	"0.0-5.0-2.0-1.30"	"5jb70x"	"600"	"1366"	"chrome"	"108.0.0"	"FALSE"	"Windows 10"	"60.56"	"153"	n/a	n/a	n/a	n/a	n/a	n/a	"Trial"	n/a	n/a	n/a	"571"	"arrowdown"	n/a	"NULL"	"NULL"	"NULL"	"stimuli/MullerLyer_20.04286_0.23665.png"	n/a	"MullerLyer"	"arrowup"	"1459"	"FALSE"	"MullerLyer"	"20.042860000"	"0.2366500000"	"1"	"49"
n/a	"html-keyboard-response"	"115"	"322298"	"0.0-5.0-2.0-0.31"	"5jb70x"	"600"	"1366"	"chrome"	"108.0.0"	"FALSE"	"Windows 10"	"60.56"	"153"	n/a	n/a	n/a	n/a	n/a	n/a	"fixation"	n/a	n/a	n/a	n/a	"NULL"	n/a	"NULL"	"NULL"	"NULL"	"<p style=\"color: black; font-size: 80px; padding-left: 3%; padding-right: 5%; padding-top: 0%; padding-bottom: 18%\">+</p>"	"1330"	n/a	n/a	n/a	n/a	n/a	n/a	n/a	n/a	n/a
n/a	"image-keyboard-response"	"116"	"323113"	"0.0-5.0-2.0-1.31"	"5jb70x"	"600"	"1366"	"chrome"	"108.0.0"	"FALSE"	"Windows 10"	"60.56"	"153"	n/a	n/a	n/a	n/a	n/a	n/a	"Trial"	n/a	n/a	n/a	"812"	"arrowdown"	n/a	"NULL"	"NULL"	"NULL"	"stimuli/MullerLyer_14.12857_-0.23665.png"	n/a	"MullerLyer"	"arrowdown"	"1345"	"TRUE"	"MullerLyer"	"14.128570000"	"-0.236650000"	"1"	"50"
n/a	"html-keyboard-response"	"117"	"324452"	"0.0-5.0-2.0-0.32"	"5jb70x"	"600"	"1366"	"chrome"	"108.0.0"	"FALSE"	"Windows 10"	"60.56"	"153"	n/a	n/a	n/a	n/a	n/a	n/a	"fixation"	n/a	n/a	n/a	n/a	"NULL"	n/a	"NULL"	"NULL"	"NULL"	"<p style=\"color: black; font-size: 80px; padding-left: 25%; padding-right: 38%; padding-top: 7%; padding-bottom: 47%\">+</p>"	"1323"	n/a	n/a	n/a	n/a	n/a	n/a	n/a	n/a	n/a
n/a	"image-keyboard-response"	"118"	"325174"	"0.0-5.0-2.0-1.32"	"5jb70x"	"600"	"1366"	"chrome"	"108.0.0"	"FALSE"	"Windows 10"	"60.56"	"153"	n/a	n/a	n/a	n/a	n/a	n/a	"Trial"	n/a	n/a	n/a	"721"	"arrowdown"	n/a	"NULL"	"NULL"	"NULL"	"stimuli/MullerLyer_-20.04286_-0.14541.png"	n/a	"MullerLyer"	"arrowdown"	"1339"	"TRUE"	"MullerLyer"	"-20.04286000"	"-0.145410000"	"1"	"51"
n/a	"html-keyboard-response"	"119"	"326659"	"0.0-5.0-2.0-0.33"	"5jb70x"	"600"	"1366"	"chrome"	"108.0.0"	"FALSE"	"Windows 10"	"60.56"	"153"	n/a	n/a	n/a	n/a	n/a	n/a	"fixation"	n/a	n/a	n/a	n/a	"NULL"	n/a	"NULL"	"NULL"	"NULL"	"<p style=\"color: black; font-size: 80px; padding-left: 45%; padding-right: 6%; padding-top: 2%; padding-bottom: 15%\">+</p>"	"1469"	n/a	n/a	n/a	n/a	n/a	n/a	n/a	n/a	n/a
n/a	"image-keyboard-response"	"120"	"327237"	"0.0-5.0-2.0-1.33"	"5jb70x"	"600"	"1366"	"chrome"	"108.0.0"	"FALSE"	"Windows 10"	"60.56"	"153"	n/a	n/a	n/a	n/a	n/a	n/a	"Trial"	n/a	n/a	n/a	"578"	"arrowdown"	n/a	"NULL"	"NULL"	"NULL"	"stimuli/MullerLyer_-14.12857_-0.14541.png"	n/a	"MullerLyer"	"arrowdown"	"1485"	"TRUE"	"MullerLyer"	"-14.12857000"	"-0.145410000"	"1"	"52"
n/a	"html-keyboard-response"	"121"	"328685"	"0.0-5.0-2.0-0.34"	"5jb70x"	"600"	"1366"	"chrome"	"108.0.0"	"FALSE"	"Windows 10"	"60.56"	"153"	n/a	n/a	n/a	n/a	n/a	n/a	"fixation"	n/a	n/a	n/a	n/a	"NULL"	n/a	"NULL"	"NULL"	"NULL"	"<p style=\"color: black; font-size: 80px; padding-left: 1%; padding-right: 17%; padding-top: 42%; padding-bottom: 26%\">+</p>"	"1427"	n/a	n/a	n/a	n/a	n/a	n/a	n/a	n/a	n/a
n/a	"image-keyboard-response"	"122"	"329284"	"0.0-5.0-2.0-1.34"	"5jb70x"	"600"	"1366"	"chrome"	"108.0.0"	"FALSE"	"Windows 10"	"60.56"	"153"	n/a	n/a	n/a	n/a	n/a	n/a	"Trial"	n/a	n/a	n/a	"598"	"arrowup"	n/a	"NULL"	"NULL"	"NULL"	"stimuli/MullerLyer_-2.3000_0.07627.png"	n/a	"MullerLyer"	"arrowup"	"1448"	"TRUE"	"MullerLyer"	"-2.300000000"	"0.0762700000"	"1"	"53"
n/a	"html-keyboard-response"	"123"	"330486"	"0.0-5.0-2.0-0.35"	"5jb70x"	"600"	"1366"	"chrome"	"108.0.0"	"FALSE"	"Windows 10"	"60.56"	"153"	n/a	n/a	n/a	n/a	n/a	n/a	"fixation"	n/a	n/a	n/a	n/a	"NULL"	n/a	"NULL"	"NULL"	"NULL"	"<p style=\"color: black; font-size: 80px; padding-left: 45%; padding-right: 43%; padding-top: 19%; padding-bottom: 33%\">+</p>"	"1186"	n/a	n/a	n/a	n/a	n/a	n/a	n/a	n/a	n/a
n/a	"image-keyboard-response"	"124"	"331309"	"0.0-5.0-2.0-1.35"	"5jb70x"	"600"	"1366"	"chrome"	"108.0.0"	"FALSE"	"Windows 10"	"60.56"	"153"	n/a	n/a	n/a	n/a	n/a	n/a	"Trial"	n/a	n/a	n/a	"822"	"arrowup"	n/a	"NULL"	"NULL"	"NULL"	"stimuli/MullerLyer_8.21429_-0.14541.png"	n/a	"MullerLyer"	"arrowdown"	"1202"	"FALSE"	"MullerLyer"	"8.2142900000"	"-0.145410000"	"1"	"54"
n/a	"html-keyboard-response"	"125"	"332802"	"0.0-5.0-2.0-0.36"	"5jb70x"	"600"	"1366"	"chrome"	"108.0.0"	"FALSE"	"Windows 10"	"60.56"	"153"	n/a	n/a	n/a	n/a	n/a	n/a	"fixation"	n/a	n/a	n/a	n/a	"NULL"	n/a	"NULL"	"NULL"	"NULL"	"<p style=\"color: black; font-size: 80px; padding-left: 3%; padding-right: 19%; padding-top: 31%; padding-bottom: 13%\">+</p>"	"1478"	n/a	n/a	n/a	n/a	n/a	n/a	n/a	n/a	n/a
n/a	"image-keyboard-response"	"126"	"333322"	"0.0-5.0-2.0-1.36"	"5jb70x"	"600"	"1366"	"chrome"	"108.0.0"	"FALSE"	"Windows 10"	"60.56"	"153"	n/a	n/a	n/a	n/a	n/a	n/a	"Trial"	n/a	n/a	n/a	"518"	"arrowdown"	n/a	"NULL"	"NULL"	"NULL"	"stimuli/MullerLyer_-8.21429_-0.14541.png"	n/a	"MullerLyer"	"arrowdown"	"1493"	"TRUE"	"MullerLyer"	"-8.214290000"	"-0.145410000"	"1"	"55"
n/a	"html-keyboard-response"	"127"	"334714"	"0.0-5.0-2.0-0.37"	"5jb70x"	"600"	"1366"	"chrome"	"108.0.0"	"FALSE"	"Windows 10"	"60.56"	"153"	n/a	n/a	n/a	n/a	n/a	n/a	"fixation"	n/a	n/a	n/a	n/a	"NULL"	n/a	"NULL"	"NULL"	"NULL"	"<p style=\"color: black; font-size: 80px; padding-left: 32%; padding-right: 22%; padding-top: 40%; padding-bottom: 20%\">+</p>"	"1387"	n/a	n/a	n/a	n/a	n/a	n/a	n/a	n/a	n/a
n/a	"image-keyboard-response"	"128"	"335304"	"0.0-5.0-2.0-1.37"	"5jb70x"	"600"	"1366"	"chrome"	"108.0.0"	"FALSE"	"Windows 10"	"60.56"	"153"	n/a	n/a	n/a	n/a	n/a	n/a	"Trial"	n/a	n/a	n/a	"589"	"arrowup"	n/a	"NULL"	"NULL"	"NULL"	"stimuli/MullerLyer_14.12857_-0.14541.png"	n/a	"MullerLyer"	"arrowdown"	"1392"	"FALSE"	"MullerLyer"	"14.128570000"	"-0.145410000"	"1"	"56"
n/a	"html-keyboard-response"	"129"	"336516"	"0.0-5.0-2.0-0.38"	"5jb70x"	"600"	"1366"	"chrome"	"108.0.0"	"FALSE"	"Windows 10"	"60.56"	"153"	n/a	n/a	n/a	n/a	n/a	n/a	"fixation"	n/a	n/a	n/a	n/a	"NULL"	n/a	"NULL"	"NULL"	"NULL"	"<p style=\"color: black; font-size: 80px; padding-left: 49%; padding-right: 49%; padding-top: 46%; padding-bottom: 47%\">+</p>"	"1204"	n/a	n/a	n/a	n/a	n/a	n/a	n/a	n/a	n/a
n/a	"image-keyboard-response"	"130"	"337166"	"0.0-5.0-2.0-1.38"	"5jb70x"	"600"	"1366"	"chrome"	"108.0.0"	"FALSE"	"Windows 10"	"60.56"	"153"	n/a	n/a	n/a	n/a	n/a	n/a	"Trial"	n/a	n/a	n/a	"648"	"arrowup"	n/a	"NULL"	"NULL"	"NULL"	"stimuli/MullerLyer_14.12857_0.35000.png"	n/a	"MullerLyer"	"arrowup"	"1212"	"TRUE"	"MullerLyer"	"14.128570000"	"0.3500000000"	"1"	"57"
n/a	"html-keyboard-response"	"131"	"338393"	"0.0-5.0-2.0-0.39"	"5jb70x"	"600"	"1366"	"chrome"	"108.0.0"	"FALSE"	"Windows 10"	"60.56"	"153"	n/a	n/a	n/a	n/a	n/a	n/a	"fixation"	n/a	n/a	n/a	n/a	"NULL"	n/a	"NULL"	"NULL"	"NULL"	"<p style=\"color: black; font-size: 80px; padding-left: 13%; padding-right: 36%; padding-top: 2%; padding-bottom: 30%\">+</p>"	"1215"	n/a	n/a	n/a	n/a	n/a	n/a	n/a	n/a	n/a
n/a	"image-keyboard-response"	"132"	"339010"	"0.0-5.0-2.0-1.39"	"5jb70x"	"600"	"1366"	"chrome"	"108.0.0"	"FALSE"	"Windows 10"	"60.56"	"153"	n/a	n/a	n/a	n/a	n/a	n/a	"Trial"	n/a	n/a	n/a	"616"	"arrowup"	n/a	"NULL"	"NULL"	"NULL"	"stimuli/MullerLyer_-14.12857_0.35000.png"	n/a	"MullerLyer"	"arrowup"	"1227"	"TRUE"	"MullerLyer"	"-14.12857000"	"0.3500000000"	"1"	"58"
n/a	"html-keyboard-response"	"133"	"340424"	"0.0-5.0-2.0-0.40"	"5jb70x"	"600"	"1366"	"chrome"	"108.0.0"	"FALSE"	"Windows 10"	"60.56"	"153"	n/a	n/a	n/a	n/a	n/a	n/a	"fixation"	n/a	n/a	n/a	n/a	"NULL"	n/a	"NULL"	"NULL"	"NULL"	"<p style=\"color: black; font-size: 80px; padding-left: 42%; padding-right: 12%; padding-top: 27%; padding-bottom: 33%\">+</p>"	"1397"	n/a	n/a	n/a	n/a	n/a	n/a	n/a	n/a	n/a
n/a	"image-keyboard-response"	"134"	"340930"	"0.0-5.0-2.0-1.40"	"5jb70x"	"600"	"1366"	"chrome"	"108.0.0"	"FALSE"	"Windows 10"	"60.56"	"153"	n/a	n/a	n/a	n/a	n/a	n/a	"Trial"	n/a	n/a	n/a	"504"	"arrowup"	n/a	"NULL"	"NULL"	"NULL"	"stimuli/MullerLyer_2.30000_0.35000.png"	n/a	"MullerLyer"	"arrowup"	"1414"	"TRUE"	"MullerLyer"	"2.3000000000"	"0.3500000000"	"1"	"59"
n/a	"html-keyboard-response"	"135"	"342315"	"0.0-5.0-2.0-0.41"	"5jb70x"	"600"	"1366"	"chrome"	"108.0.0"	"FALSE"	"Windows 10"	"60.56"	"153"	n/a	n/a	n/a	n/a	n/a	n/a	"fixation"	n/a	n/a	n/a	n/a	"NULL"	n/a	"NULL"	"NULL"	"NULL"	"<p style=\"color: black; font-size: 80px; padding-left: 12%; padding-right: 47%; padding-top: 11%; padding-bottom: 40%\">+</p>"	"1364"	n/a	n/a	n/a	n/a	n/a	n/a	n/a	n/a	n/a
n/a	"image-keyboard-response"	"136"	"343073"	"0.0-5.0-2.0-1.41"	"5jb70x"	"600"	"1366"	"chrome"	"108.0.0"	"FALSE"	"Windows 10"	"60.56"	"153"	n/a	n/a	n/a	n/a	n/a	n/a	"Trial"	n/a	n/a	n/a	"757"	"arrowdown"	n/a	"NULL"	"NULL"	"NULL"	"stimuli/MullerLyer_-2.3000_-0.07627.png"	n/a	"MullerLyer"	"arrowdown"	"1385"	"TRUE"	"MullerLyer"	"-2.300000000"	"-0.076270000"	"1"	"60"
n/a	"html-keyboard-response"	"137"	"344095"	"0.0-5.0-2.0-0.42"	"5jb70x"	"600"	"1366"	"chrome"	"108.0.0"	"FALSE"	"Windows 10"	"60.56"	"153"	n/a	n/a	n/a	n/a	n/a	n/a	"fixation"	n/a	n/a	n/a	n/a	"NULL"	n/a	"NULL"	"NULL"	"NULL"	"<p style=\"color: black; font-size: 80px; padding-left: 30%; padding-right: 44%; padding-top: 35%; padding-bottom: 39%\">+</p>"	"1012"	n/a	n/a	n/a	n/a	n/a	n/a	n/a	n/a	n/a
n/a	"image-keyboard-response"	"138"	"344805"	"0.0-5.0-2.0-1.42"	"5jb70x"	"600"	"1366"	"chrome"	"108.0.0"	"FALSE"	"Windows 10"	"60.56"	"153"	n/a	n/a	n/a	n/a	n/a	n/a	"Trial"	n/a	n/a	n/a	"709"	"arrowup"	n/a	"NULL"	"NULL"	"NULL"	"stimuli/MullerLyer_-20.04286_0.35000.png"	n/a	"MullerLyer"	"arrowup"	"1022"	"TRUE"	"MullerLyer"	"-20.04286000"	"0.3500000000"	"1"	"61"
n/a	"html-keyboard-response"	"139"	"345989"	"0.0-5.0-2.0-0.43"	"5jb70x"	"600"	"1366"	"chrome"	"108.0.0"	"FALSE"	"Windows 10"	"60.56"	"153"	n/a	n/a	n/a	n/a	n/a	n/a	"fixation"	n/a	n/a	n/a	n/a	"NULL"	n/a	"NULL"	"NULL"	"NULL"	"<p style=\"color: black; font-size: 80px; padding-left: 39%; padding-right: 38%; padding-top: 3%; padding-bottom: 50%\">+</p>"	"1182"	n/a	n/a	n/a	n/a	n/a	n/a	n/a	n/a	n/a
n/a	"image-keyboard-response"	"140"	"346534"	"0.0-5.0-2.0-1.43"	"5jb70x"	"600"	"1366"	"chrome"	"108.0.0"	"FALSE"	"Windows 10"	"60.56"	"153"	n/a	n/a	n/a	n/a	n/a	n/a	"Trial"	n/a	n/a	n/a	"542"	"arrowup"	n/a	"NULL"	"NULL"	"NULL"	"stimuli/MullerLyer_-2.3000_0.35000.png"	n/a	"MullerLyer"	"arrowup"	"1184"	"TRUE"	"MullerLyer"	"-2.300000000"	"0.3500000000"	"1"	"62"
n/a	"html-keyboard-response"	"141"	"347752"	"0.0-5.0-2.0-0.44"	"5jb70x"	"600"	"1366"	"chrome"	"108.0.0"	"FALSE"	"Windows 10"	"60.56"	"153"	n/a	n/a	n/a	n/a	n/a	n/a	"fixation"	n/a	n/a	n/a	n/a	"NULL"	n/a	"NULL"	"NULL"	"NULL"	"<p style=\"color: black; font-size: 80px; padding-left: 7%; padding-right: 17%; padding-top: 11%; padding-bottom: 12%\">+</p>"	"1206"	n/a	n/a	n/a	n/a	n/a	n/a	n/a	n/a	n/a
n/a	"image-keyboard-response"	"142"	"348252"	"0.0-5.0-2.0-1.44"	"5jb70x"	"600"	"1366"	"chrome"	"108.0.0"	"FALSE"	"Windows 10"	"60.56"	"153"	n/a	n/a	n/a	n/a	n/a	n/a	"Trial"	n/a	n/a	n/a	"500"	"arrowdown"	n/a	"NULL"	"NULL"	"NULL"	"stimuli/MullerLyer_-14.12857_-0.3500.png"	n/a	"MullerLyer"	"arrowdown"	"1218"	"TRUE"	"MullerLyer"	"-14.12857000"	"-0.350000000"	"1"	"63"
n/a	"html-keyboard-response"	"143"	"349502"	"0.0-5.0-2.0-0.45"	"5jb70x"	"600"	"1366"	"chrome"	"108.0.0"	"FALSE"	"Windows 10"	"60.56"	"153"	n/a	n/a	n/a	n/a	n/a	n/a	"fixation"	n/a	n/a	n/a	n/a	"NULL"	n/a	"NULL"	"NULL"	"NULL"	"<p style=\"color: black; font-size: 80px; padding-left: 22%; padding-right: 16%; padding-top: 9%; padding-bottom: 38%\">+</p>"	"1237"	n/a	n/a	n/a	n/a	n/a	n/a	n/a	n/a	n/a
n/a	"image-keyboard-response"	"144"	"350295"	"0.0-5.0-2.0-1.45"	"5jb70x"	"600"	"1366"	"chrome"	"108.0.0"	"FALSE"	"Windows 10"	"60.56"	"153"	n/a	n/a	n/a	n/a	n/a	n/a	"Trial"	n/a	n/a	n/a	"791"	"arrowdown"	n/a	"NULL"	"NULL"	"NULL"	"stimuli/MullerLyer_2.30000_-0.07627.png"	n/a	"MullerLyer"	"arrowdown"	"1250"	"TRUE"	"MullerLyer"	"2.3000000000"	"-0.076270000"	"1"	"64"
n/a	"html-keyboard-response"	"145"	"351526"	"0.0-5.0-2.0-0.46"	"5jb70x"	"600"	"1366"	"chrome"	"108.0.0"	"FALSE"	"Windows 10"	"60.56"	"153"	n/a	n/a	n/a	n/a	n/a	n/a	"fixation"	n/a	n/a	n/a	n/a	"NULL"	n/a	"NULL"	"NULL"	"NULL"	"<p style=\"color: black; font-size: 80px; padding-left: 22%; padding-right: 5%; padding-top: 27%; padding-bottom: 25%\">+</p>"	"1218"	n/a	n/a	n/a	n/a	n/a	n/a	n/a	n/a	n/a
n/a	"image-keyboard-response"	"146"	"352051"	"0.0-5.0-2.0-1.46"	"5jb70x"	"600"	"1366"	"chrome"	"108.0.0"	"FALSE"	"Windows 10"	"60.56"	"153"	n/a	n/a	n/a	n/a	n/a	n/a	"Trial"	n/a	n/a	n/a	"521"	"arrowdown"	n/a	"NULL"	"NULL"	"NULL"	"stimuli/MullerLyer_20.04286_0.07627.png"	n/a	"MullerLyer"	"arrowup"	"1231"	"FALSE"	"MullerLyer"	"20.042860000"	"0.0762700000"	"1"	"65"
n/a	"html-keyboard-response"	"147"	"353304"	"0.0-5.0-2.0-0.47"	"5jb70x"	"600"	"1366"	"chrome"	"108.0.0"	"FALSE"	"Windows 10"	"60.56"	"153"	n/a	n/a	n/a	n/a	n/a	n/a	"fixation"	n/a	n/a	n/a	n/a	"NULL"	n/a	"NULL"	"NULL"	"NULL"	"<p style=\"color: black; font-size: 80px; padding-left: 34%; padding-right: 15%; padding-top: 28%; padding-bottom: 40%\">+</p>"	"1240"	n/a	n/a	n/a	n/a	n/a	n/a	n/a	n/a	n/a
n/a	"image-keyboard-response"	"148"	"353831"	"0.0-5.0-2.0-1.47"	"5jb70x"	"600"	"1366"	"chrome"	"108.0.0"	"FALSE"	"Windows 10"	"60.56"	"153"	n/a	n/a	n/a	n/a	n/a	n/a	"Trial"	n/a	n/a	n/a	"526"	"arrowup"	n/a	"NULL"	"NULL"	"NULL"	"stimuli/MullerLyer_-2.3000_0.14541.png"	n/a	"MullerLyer"	"arrowup"	"1253"	"TRUE"	"MullerLyer"	"-2.300000000"	"0.1454100000"	"1"	"66"
n/a	"html-keyboard-response"	"149"	"355063"	"0.0-5.0-2.0-0.48"	"5jb70x"	"600"	"1366"	"chrome"	"108.0.0"	"FALSE"	"Windows 10"	"60.56"	"153"	n/a	n/a	n/a	n/a	n/a	n/a	"fixation"	n/a	n/a	n/a	n/a	"NULL"	n/a	"NULL"	"NULL"	"NULL"	"<p style=\"color: black; font-size: 80px; padding-left: 42%; padding-right: 5%; padding-top: 16%; padding-bottom: 45%\">+</p>"	"1222"	n/a	n/a	n/a	n/a	n/a	n/a	n/a	n/a	n/a
n/a	"image-keyboard-response"	"150"	"355673"	"0.0-5.0-2.0-1.48"	"5jb70x"	"600"	"1366"	"chrome"	"108.0.0"	"FALSE"	"Windows 10"	"60.56"	"153"	n/a	n/a	n/a	n/a	n/a	n/a	"Trial"	n/a	n/a	n/a	"608"	"arrowdown"	n/a	"NULL"	"NULL"	"NULL"	"stimuli/MullerLyer_8.21429_-0.23665.png"	n/a	"MullerLyer"	"arrowdown"	"1232"	"TRUE"	"MullerLyer"	"8.2142900000"	"-0.236650000"	"1"	"67"
n/a	"html-keyboard-response"	"151"	"357156"	"0.0-5.0-2.0-0.49"	"5jb70x"	"600"	"1366"	"chrome"	"108.0.0"	"FALSE"	"Windows 10"	"60.56"	"153"	n/a	n/a	n/a	n/a	n/a	n/a	"fixation"	n/a	n/a	n/a	n/a	"NULL"	n/a	"NULL"	"NULL"	"NULL"	"<p style=\"color: black; font-size: 80px; padding-left: 38%; padding-right: 27%; padding-top: 45%; padding-bottom: 18%\">+</p>"	"1473"	n/a	n/a	n/a	n/a	n/a	n/a	n/a	n/a	n/a
n/a	"image-keyboard-response"	"152"	"357706"	"0.0-5.0-2.0-1.49"	"5jb70x"	"600"	"1366"	"chrome"	"108.0.0"	"FALSE"	"Windows 10"	"60.56"	"153"	n/a	n/a	n/a	n/a	n/a	n/a	"Trial"	n/a	n/a	n/a	"548"	"arrowup"	n/a	"NULL"	"NULL"	"NULL"	"stimuli/MullerLyer_8.21429_0.35000.png"	n/a	"MullerLyer"	"arrowup"	"1483"	"TRUE"	"MullerLyer"	"8.2142900000"	"0.3500000000"	"1"	"68"
n/a	"html-keyboard-response"	"153"	"359157"	"0.0-5.0-2.0-0.50"	"5jb70x"	"600"	"1366"	"chrome"	"108.0.0"	"FALSE"	"Windows 10"	"60.56"	"153"	n/a	n/a	n/a	n/a	n/a	n/a	"fixation"	n/a	n/a	n/a	n/a	"NULL"	n/a	"NULL"	"NULL"	"NULL"	"<p style=\"color: black; font-size: 80px; padding-left: 5%; padding-right: 46%; padding-top: 46%; padding-bottom: 41%\">+</p>"	"1437"	n/a	n/a	n/a	n/a	n/a	n/a	n/a	n/a	n/a
n/a	"image-keyboard-response"	"154"	"359722"	"0.0-5.0-2.0-1.50"	"5jb70x"	"600"	"1366"	"chrome"	"108.0.0"	"FALSE"	"Windows 10"	"60.56"	"153"	n/a	n/a	n/a	n/a	n/a	n/a	"Trial"	n/a	n/a	n/a	"563"	"arrowup"	n/a	"NULL"	"NULL"	"NULL"	"stimuli/MullerLyer_-20.04286_0.14541.png"	n/a	"MullerLyer"	"arrowup"	"1451"	"TRUE"	"MullerLyer"	"-20.04286000"	"0.1454100000"	"1"	"69"
n/a	"html-keyboard-response"	"155"	"361048"	"0.0-5.0-2.0-0.51"	"5jb70x"	"600"	"1366"	"chrome"	"108.0.0"	"FALSE"	"Windows 10"	"60.56"	"153"	n/a	n/a	n/a	n/a	n/a	n/a	"fixation"	n/a	n/a	n/a	n/a	"NULL"	n/a	"NULL"	"NULL"	"NULL"	"<p style=\"color: black; font-size: 80px; padding-left: 26%; padding-right: 5%; padding-top: 41%; padding-bottom: 48%\">+</p>"	"1317"	n/a	n/a	n/a	n/a	n/a	n/a	n/a	n/a	n/a
n/a	"image-keyboard-response"	"156"	"361612"	"0.0-5.0-2.0-1.51"	"5jb70x"	"600"	"1366"	"chrome"	"108.0.0"	"FALSE"	"Windows 10"	"60.56"	"153"	n/a	n/a	n/a	n/a	n/a	n/a	"Trial"	n/a	n/a	n/a	"561"	"arrowdown"	n/a	"NULL"	"NULL"	"NULL"	"stimuli/MullerLyer_-2.3000_-0.23665.png"	n/a	"MullerLyer"	"arrowdown"	"1326"	"TRUE"	"MullerLyer"	"-2.300000000"	"-0.236650000"	"1"	"70"
n/a	"html-keyboard-response"	"157"	"363047"	"0.0-5.0-2.0-0.52"	"5jb70x"	"600"	"1366"	"chrome"	"108.0.0"	"FALSE"	"Windows 10"	"60.56"	"153"	n/a	n/a	n/a	n/a	n/a	n/a	"fixation"	n/a	n/a	n/a	n/a	"NULL"	n/a	"NULL"	"NULL"	"NULL"	"<p style=\"color: black; font-size: 80px; padding-left: 30%; padding-right: 12%; padding-top: 26%; padding-bottom: 4%\">+</p>"	"1428"	n/a	n/a	n/a	n/a	n/a	n/a	n/a	n/a	n/a
n/a	"image-keyboard-response"	"158"	"363768"	"0.0-5.0-2.0-1.52"	"5jb70x"	"600"	"1366"	"chrome"	"108.0.0"	"FALSE"	"Windows 10"	"60.56"	"153"	n/a	n/a	n/a	n/a	n/a	n/a	"Trial"	n/a	n/a	n/a	"720"	"arrowup"	n/a	"NULL"	"NULL"	"NULL"	"stimuli/MullerLyer_-8.21429_0.14541.png"	n/a	"MullerLyer"	"arrowup"	"1435"	"TRUE"	"MullerLyer"	"-8.214290000"	"0.1454100000"	"1"	"71"
n/a	"html-keyboard-response"	"159"	"364911"	"0.0-5.0-2.0-0.53"	"5jb70x"	"600"	"1366"	"chrome"	"108.0.0"	"FALSE"	"Windows 10"	"60.56"	"153"	n/a	n/a	n/a	n/a	n/a	n/a	"fixation"	n/a	n/a	n/a	n/a	"NULL"	n/a	"NULL"	"NULL"	"NULL"	"<p style=\"color: black; font-size: 80px; padding-left: 39%; padding-right: 47%; padding-top: 27%; padding-bottom: 42%\">+</p>"	"1127"	n/a	n/a	n/a	n/a	n/a	n/a	n/a	n/a	n/a
n/a	"image-keyboard-response"	"160"	"365508"	"0.0-5.0-2.0-1.53"	"5jb70x"	"600"	"1366"	"chrome"	"108.0.0"	"FALSE"	"Windows 10"	"60.56"	"153"	n/a	n/a	n/a	n/a	n/a	n/a	"Trial"	n/a	n/a	n/a	"596"	"arrowdown"	n/a	"NULL"	"NULL"	"NULL"	"stimuli/MullerLyer_20.04286_0.14541.png"	n/a	"MullerLyer"	"arrowup"	"1143"	"FALSE"	"MullerLyer"	"20.042860000"	"0.1454100000"	"1"	"72"
n/a	"html-keyboard-response"	"161"	"366643"	"0.0-5.0-2.0-0.54"	"5jb70x"	"600"	"1366"	"chrome"	"108.0.0"	"FALSE"	"Windows 10"	"60.56"	"153"	n/a	n/a	n/a	n/a	n/a	n/a	"fixation"	n/a	n/a	n/a	n/a	"NULL"	n/a	"NULL"	"NULL"	"NULL"	"<p style=\"color: black; font-size: 80px; padding-left: 41%; padding-right: 46%; padding-top: 32%; padding-bottom: 18%\">+</p>"	"1118"	n/a	n/a	n/a	n/a	n/a	n/a	n/a	n/a	n/a
n/a	"image-keyboard-response"	"162"	"367206"	"0.0-5.0-2.0-1.54"	"5jb70x"	"600"	"1366"	"chrome"	"108.0.0"	"FALSE"	"Windows 10"	"60.56"	"153"	n/a	n/a	n/a	n/a	n/a	n/a	"Trial"	n/a	n/a	n/a	"561"	"arrowdown"	n/a	"NULL"	"NULL"	"NULL"	"stimuli/MullerLyer_-8.21429_-0.07627.png"	n/a	"MullerLyer"	"arrowdown"	"1135"	"TRUE"	"MullerLyer"	"-8.214290000"	"-0.076270000"	"1"	"73"
n/a	"html-keyboard-response"	"163"	"368607"	"0.0-5.0-2.0-0.55"	"5jb70x"	"600"	"1366"	"chrome"	"108.0.0"	"FALSE"	"Windows 10"	"60.56"	"153"	n/a	n/a	n/a	n/a	n/a	n/a	"fixation"	n/a	n/a	n/a	n/a	"NULL"	n/a	"NULL"	"NULL"	"NULL"	"<p style=\"color: black; font-size: 80px; padding-left: 23%; padding-right: 44%; padding-top: 16%; padding-bottom: 29%\">+</p>"	"1393"	n/a	n/a	n/a	n/a	n/a	n/a	n/a	n/a	n/a
n/a	"image-keyboard-response"	"164"	"369137"	"0.0-5.0-2.0-1.55"	"5jb70x"	"600"	"1366"	"chrome"	"108.0.0"	"FALSE"	"Windows 10"	"60.56"	"153"	n/a	n/a	n/a	n/a	n/a	n/a	"Trial"	n/a	n/a	n/a	"529"	"arrowdown"	n/a	"NULL"	"NULL"	"NULL"	"stimuli/MullerLyer_-2.3000_-0.3500.png"	n/a	"MullerLyer"	"arrowdown"	"1401"	"TRUE"	"MullerLyer"	"-2.300000000"	"-0.350000000"	"1"	"74"
n/a	"html-keyboard-response"	"165"	"370596"	"0.0-5.0-2.0-0.56"	"5jb70x"	"600"	"1366"	"chrome"	"108.0.0"	"FALSE"	"Windows 10"	"60.56"	"153"	n/a	n/a	n/a	n/a	n/a	n/a	"fixation"	n/a	n/a	n/a	n/a	"NULL"	n/a	"NULL"	"NULL"	"NULL"	"<p style=\"color: black; font-size: 80px; padding-left: 7%; padding-right: 1%; padding-top: 18%; padding-bottom: 43%\">+</p>"	"1446"	n/a	n/a	n/a	n/a	n/a	n/a	n/a	n/a	n/a
n/a	"image-keyboard-response"	"166"	"371137"	"0.0-5.0-2.0-1.56"	"5jb70x"	"600"	"1366"	"chrome"	"108.0.0"	"FALSE"	"Windows 10"	"60.56"	"153"	n/a	n/a	n/a	n/a	n/a	n/a	"Trial"	n/a	n/a	n/a	"540"	"arrowup"	n/a	"NULL"	"NULL"	"NULL"	"stimuli/MullerLyer_8.21429_0.07627.png"	n/a	"MullerLyer"	"arrowup"	"1459"	"TRUE"	"MullerLyer"	"8.2142900000"	"0.0762700000"	"1"	"75"
n/a	"html-keyboard-response"	"167"	"372411"	"0.0-5.0-2.0-0.57"	"5jb70x"	"600"	"1366"	"chrome"	"108.0.0"	"FALSE"	"Windows 10"	"60.56"	"153"	n/a	n/a	n/a	n/a	n/a	n/a	"fixation"	n/a	n/a	n/a	n/a	"NULL"	n/a	"NULL"	"NULL"	"NULL"	"<p style=\"color: black; font-size: 80px; padding-left: 14%; padding-right: 5%; padding-top: 3%; padding-bottom: 31%\">+</p>"	"1263"	n/a	n/a	n/a	n/a	n/a	n/a	n/a	n/a	n/a
n/a	"image-keyboard-response"	"168"	"373088"	"0.0-5.0-2.0-1.57"	"5jb70x"	"600"	"1366"	"chrome"	"108.0.0"	"FALSE"	"Windows 10"	"60.56"	"153"	n/a	n/a	n/a	n/a	n/a	n/a	"Trial"	n/a	n/a	n/a	"675"	"arrowup"	n/a	"NULL"	"NULL"	"NULL"	"stimuli/MullerLyer_14.12857_0.23665.png"	n/a	"MullerLyer"	"arrowup"	"1274"	"TRUE"	"MullerLyer"	"14.128570000"	"0.2366500000"	"1"	"76"
n/a	"html-keyboard-response"	"169"	"374222"	"0.0-5.0-2.0-0.58"	"5jb70x"	"600"	"1366"	"chrome"	"108.0.0"	"FALSE"	"Windows 10"	"60.56"	"153"	n/a	n/a	n/a	n/a	n/a	n/a	"fixation"	n/a	n/a	n/a	n/a	"NULL"	n/a	"NULL"	"NULL"	"NULL"	"<p style=\"color: black; font-size: 80px; padding-left: 36%; padding-right: 8%; padding-top: 16%; padding-bottom: 8%\">+</p>"	"1119"	n/a	n/a	n/a	n/a	n/a	n/a	n/a	n/a	n/a
n/a	"image-keyboard-response"	"170"	"374808"	"0.0-5.0-2.0-1.58"	"5jb70x"	"600"	"1366"	"chrome"	"108.0.0"	"FALSE"	"Windows 10"	"60.56"	"153"	n/a	n/a	n/a	n/a	n/a	n/a	"Trial"	n/a	n/a	n/a	"584"	"arrowup"	n/a	"NULL"	"NULL"	"NULL"	"stimuli/MullerLyer_-8.21429_0.07627.png"	n/a	"MullerLyer"	"arrowup"	"1134"	"TRUE"	"MullerLyer"	"-8.214290000"	"0.0762700000"	"1"	"77"
n/a	"html-keyboard-response"	"171"	"375861"	"0.0-5.0-2.0-0.59"	"5jb70x"	"600"	"1366"	"chrome"	"108.0.0"	"FALSE"	"Windows 10"	"60.56"	"153"	n/a	n/a	n/a	n/a	n/a	n/a	"fixation"	n/a	n/a	n/a	n/a	"NULL"	n/a	"NULL"	"NULL"	"NULL"	"<p style=\"color: black; font-size: 80px; padding-left: 11%; padding-right: 40%; padding-top: 48%; padding-bottom: 18%\">+</p>"	"1036"	n/a	n/a	n/a	n/a	n/a	n/a	n/a	n/a	n/a
n/a	"image-keyboard-response"	"172"	"376396"	"0.0-5.0-2.0-1.59"	"5jb70x"	"600"	"1366"	"chrome"	"108.0.0"	"FALSE"	"Windows 10"	"60.56"	"153"	n/a	n/a	n/a	n/a	n/a	n/a	"Trial"	n/a	n/a	n/a	"533"	"arrowup"	n/a	"NULL"	"NULL"	"NULL"	"stimuli/MullerLyer_20.04286_-0.07627.png"	n/a	"MullerLyer"	"arrowdown"	"1053"	"FALSE"	"MullerLyer"	"20.042860000"	"-0.076270000"	"1"	"78"
n/a	"html-keyboard-response"	"173"	"377754"	"0.0-5.0-2.0-0.60"	"5jb70x"	"600"	"1366"	"chrome"	"108.0.0"	"FALSE"	"Windows 10"	"60.56"	"153"	n/a	n/a	n/a	n/a	n/a	n/a	"fixation"	n/a	n/a	n/a	n/a	"NULL"	n/a	"NULL"	"NULL"	"NULL"	"<p style=\"color: black; font-size: 80px; padding-left: 20%; padding-right: 47%; padding-top: 41%; padding-bottom: 47%\">+</p>"	"1353"	n/a	n/a	n/a	n/a	n/a	n/a	n/a	n/a	n/a
n/a	"image-keyboard-response"	"174"	"378326"	"0.0-5.0-2.0-1.60"	"5jb70x"	"600"	"1366"	"chrome"	"108.0.0"	"FALSE"	"Windows 10"	"60.56"	"153"	n/a	n/a	n/a	n/a	n/a	n/a	"Trial"	n/a	n/a	n/a	"567"	"arrowdown"	n/a	"NULL"	"NULL"	"NULL"	"stimuli/MullerLyer_-20.04286_-0.07627.png"	n/a	"MullerLyer"	"arrowdown"	"1358"	"TRUE"	"MullerLyer"	"-20.04286000"	"-0.076270000"	"1"	"79"
n/a	"html-keyboard-response"	"175"	"379434"	"0.0-5.0-2.0-0.61"	"5jb70x"	"600"	"1366"	"chrome"	"108.0.0"	"FALSE"	"Windows 10"	"60.56"	"153"	n/a	n/a	n/a	n/a	n/a	n/a	"fixation"	n/a	n/a	n/a	n/a	"NULL"	n/a	"NULL"	"NULL"	"NULL"	"<p style=\"color: black; font-size: 80px; padding-left: 32%; padding-right: 3%; padding-top: 16%; padding-bottom: 46%\">+</p>"	"1097"	n/a	n/a	n/a	n/a	n/a	n/a	n/a	n/a	n/a
n/a	"image-keyboard-response"	"176"	"379940"	"0.0-5.0-2.0-1.61"	"5jb70x"	"600"	"1366"	"chrome"	"108.0.0"	"FALSE"	"Windows 10"	"60.56"	"153"	n/a	n/a	n/a	n/a	n/a	n/a	"Trial"	n/a	n/a	n/a	"505"	"arrowdown"	n/a	"NULL"	"NULL"	"NULL"	"stimuli/MullerLyer_-20.04286_-0.3500.png"	n/a	"MullerLyer"	"arrowdown"	"1108"	"TRUE"	"MullerLyer"	"-20.04286000"	"-0.350000000"	"1"	"80"
n/a	"html-keyboard-response"	"177"	"381071"	"0.0-5.0-2.0-0.62"	"5jb70x"	"600"	"1366"	"chrome"	"108.0.0"	"FALSE"	"Windows 10"	"60.56"	"153"	n/a	n/a	n/a	n/a	n/a	n/a	"fixation"	n/a	n/a	n/a	n/a	"NULL"	n/a	"NULL"	"NULL"	"NULL"	"<p style=\"color: black; font-size: 80px; padding-left: 14%; padding-right: 19%; padding-top: 12%; padding-bottom: 35%\">+</p>"	"1114"	n/a	n/a	n/a	n/a	n/a	n/a	n/a	n/a	n/a
n/a	"image-keyboard-response"	"178"	"381623"	"0.0-5.0-2.0-1.62"	"5jb70x"	"600"	"1366"	"chrome"	"108.0.0"	"FALSE"	"Windows 10"	"60.56"	"153"	n/a	n/a	n/a	n/a	n/a	n/a	"Trial"	n/a	n/a	n/a	"550"	"arrowdown"	n/a	"NULL"	"NULL"	"NULL"	"stimuli/MullerLyer_-2.3000_-0.14541.png"	n/a	"MullerLyer"	"arrowdown"	"1131"	"TRUE"	"MullerLyer"	"-2.300000000"	"-0.145410000"	"1"	"81"
n/a	"html-keyboard-response"	"179"	"382829"	"0.0-5.0-2.0-0.63"	"5jb70x"	"600"	"1366"	"chrome"	"108.0.0"	"FALSE"	"Windows 10"	"60.56"	"153"	n/a	n/a	n/a	n/a	n/a	n/a	"fixation"	n/a	n/a	n/a	n/a	"NULL"	n/a	"NULL"	"NULL"	"NULL"	"<p style=\"color: black; font-size: 80px; padding-left: 46%; padding-right: 30%; padding-top: 26%; padding-bottom: 30%\">+</p>"	"1190"	n/a	n/a	n/a	n/a	n/a	n/a	n/a	n/a	n/a
n/a	"image-keyboard-response"	"180"	"383388"	"0.0-5.0-2.0-1.63"	"5jb70x"	"600"	"1366"	"chrome"	"108.0.0"	"FALSE"	"Windows 10"	"60.56"	"153"	n/a	n/a	n/a	n/a	n/a	n/a	"Trial"	n/a	n/a	n/a	"558"	"arrowdown"	n/a	"NULL"	"NULL"	"NULL"	"stimuli/MullerLyer_-20.04286_-0.23665.png"	n/a	"MullerLyer"	"arrowdown"	"1206"	"TRUE"	"MullerLyer"	"-20.04286000"	"-0.236650000"	"1"	"82"
n/a	"html-button-response"	"181"	"408955"	"0.0-5.0-3.0"	"5jb70x"	"600"	"1366"	"chrome"	"108.0.0"	"FALSE"	"Windows 10"	"60.56"	"153"	n/a	n/a	n/a	n/a	n/a	n/a	"block_results"	n/a	n/a	n/a	"25563"	"0"	n/a	"NULL"	"NULL"	"NULL"	"<p>Your score for this illusion is <p style=\"color: black; font-size: 48px; font-weight: bold;\">78.5 %</p><hr><p>Can you do better in the next illusion?</p>"	n/a	n/a	n/a	n/a	n/a	n/a	n/a	n/a	n/a	n/a
"TRUE"	"preload"	"182"	"409550"	"0.0-6.0-0.0"	"5jb70x"	"600"	"1366"	"chrome"	"108.0.0"	"FALSE"	"Windows 10"	"60.56"	"153"	n/a	n/a	n/a	n/a	n/a	n/a	n/a	n/a	n/a	n/a	n/a	"NULL"	"FALSE"	"list()"	"list()"	"list()"	n/a	n/a	n/a	n/a	n/a	n/a	n/a	n/a	n/a	n/a	n/a
n/a	"html-keyboard-response"	"183"	"439654"	"0.0-6.0-1.0"	"5jb70x"	"600"	"1366"	"chrome"	"108.0.0"	"FALSE"	"Windows 10"	"60.56"	"153"	n/a	n/a	n/a	n/a	n/a	n/a	n/a	n/a	n/a	n/a	"30103"	"enter"	n/a	"NULL"	"NULL"	"NULL"	"<p><b>Part 2/6</b></p><p>In this part, two red circles will appear side by side on the screen.</p><p>Your task is to select which <b>red circle is bigger</b> in size as fast as you can, without making errors.</p><p>Don't get distracted by the surrounding black circles around the red circles!</p><p>Press <b>the LEFT or the RIGHT arrow</b> to indicate which is the bigger <b>red circle.</b></p><div style='float: center'><img src='materials/instructions/Ebbinghaus_Demo.png' height='300'></img><p><img src='utils/answer/answer_leftright_keyboard.PNG' height='150'></img></p><p class='small'>In this example, the correct answer is the <b>LEFT arrow</b>.</p></div><p>Are you ready? <b>Press ENTER to start</b></p>"	n/a	n/a	n/a	n/a	n/a	n/a	n/a	n/a	n/a	n/a
n/a	"html-keyboard-response"	"184"	"441518"	"0.0-6.0-2.0-0.0"	"5jb70x"	"600"	"1366"	"chrome"	"108.0.0"	"FALSE"	"Windows 10"	"60.56"	"153"	n/a	n/a	n/a	n/a	n/a	n/a	"fixation"	n/a	n/a	n/a	n/a	"NULL"	n/a	"NULL"	"NULL"	"NULL"	"<p style=\"color: black; font-size: 80px; padding-left: 44%; padding-right: 28%; padding-top: 20%; padding-bottom: 41%\">+</p>"	"1345"	n/a	n/a	n/a	n/a	n/a	n/a	n/a	n/a	n/a
n/a	"image-keyboard-response"	"185"	"443324"	"0.0-6.0-2.0-1.0"	"5jb70x"	"600"	"1366"	"chrome"	"108.0.0"	"FALSE"	"Windows 10"	"60.56"	"153"	n/a	n/a	n/a	n/a	n/a	n/a	"Trial"	n/a	n/a	n/a	"1805"	"arrowright"	n/a	"NULL"	"NULL"	"NULL"	"stimuli/Ebbinghaus_0.87143_0.15857.png"	n/a	"Ebbinghaus"	"arrowleft"	"1864"	"FALSE"	"Ebbinghaus"	"0.8714300000"	"0.1585700000"	"2"	"1"
n/a	"html-keyboard-response"	"186"	"444520"	"0.0-6.0-2.0-0.1"	"5jb70x"	"600"	"1366"	"chrome"	"108.0.0"	"FALSE"	"Windows 10"	"60.56"	"153"	n/a	n/a	n/a	n/a	n/a	n/a	"fixation"	n/a	n/a	n/a	n/a	"NULL"	n/a	"NULL"	"NULL"	"NULL"	"<p style=\"color: black; font-size: 80px; padding-left: 14%; padding-right: 39%; padding-top: 18%; padding-bottom: 43%\">+</p>"	"1174"	n/a	n/a	n/a	n/a	n/a	n/a	n/a	n/a	n/a
n/a	"image-keyboard-response"	"187"	"445191"	"0.0-6.0-2.0-1.1"	"5jb70x"	"600"	"1366"	"chrome"	"108.0.0"	"FALSE"	"Windows 10"	"60.56"	"153"	n/a	n/a	n/a	n/a	n/a	n/a	"Trial"	n/a	n/a	n/a	"669"	"arrowright"	n/a	"NULL"	"NULL"	"NULL"	"stimuli/Ebbinghaus_0.87143_0.11071.png"	n/a	"Ebbinghaus"	"arrowleft"	"1196"	"FALSE"	"Ebbinghaus"	"0.8714300000"	"0.1107100000"	"2"	"2"
n/a	"html-keyboard-response"	"188"	"446576"	"0.0-6.0-2.0-0.2"	"5jb70x"	"600"	"1366"	"chrome"	"108.0.0"	"FALSE"	"Windows 10"	"60.56"	"153"	n/a	n/a	n/a	n/a	n/a	n/a	"fixation"	n/a	n/a	n/a	n/a	"NULL"	n/a	"NULL"	"NULL"	"NULL"	"<p style=\"color: black; font-size: 80px; padding-left: 14%; padding-right: 16%; padding-top: 9%; padding-bottom: 21%\">+</p>"	"1382"	n/a	n/a	n/a	n/a	n/a	n/a	n/a	n/a	n/a
n/a	"image-keyboard-response"	"189"	"447122"	"0.0-6.0-2.0-1.2"	"5jb70x"	"600"	"1366"	"chrome"	"108.0.0"	"FALSE"	"Windows 10"	"60.56"	"153"	n/a	n/a	n/a	n/a	n/a	n/a	"Trial"	n/a	n/a	n/a	"544"	"arrowright"	n/a	"NULL"	"NULL"	"NULL"	"stimuli/Ebbinghaus_-0.87143_-0.2800.png"	n/a	"Ebbinghaus"	"arrowright"	"1385"	"TRUE"	"Ebbinghaus"	"-0.871430000"	"-0.280000000"	"2"	"3"
n/a	"html-keyboard-response"	"190"	"448244"	"0.0-6.0-2.0-0.3"	"5jb70x"	"600"	"1366"	"chrome"	"108.0.0"	"FALSE"	"Windows 10"	"60.56"	"153"	n/a	n/a	n/a	n/a	n/a	n/a	"fixation"	n/a	n/a	n/a	n/a	"NULL"	n/a	"NULL"	"NULL"	"NULL"	"<p style=\"color: black; font-size: 80px; padding-left: 15%; padding-right: 46%; padding-top: 25%; padding-bottom: 49%\">+</p>"	"1112"	n/a	n/a	n/a	n/a	n/a	n/a	n/a	n/a	n/a
n/a	"image-keyboard-response"	"191"	"449070"	"0.0-6.0-2.0-1.3"	"5jb70x"	"600"	"1366"	"chrome"	"108.0.0"	"FALSE"	"Windows 10"	"60.56"	"153"	n/a	n/a	n/a	n/a	n/a	n/a	"Trial"	n/a	n/a	n/a	"825"	"arrowright"	n/a	"NULL"	"NULL"	"NULL"	"stimuli/Ebbinghaus_0.35714_-0.2150.png"	n/a	"Ebbinghaus"	"arrowright"	"1122"	"TRUE"	"Ebbinghaus"	"0.3571400000"	"-0.215000000"	"2"	"4"
n/a	"html-keyboard-response"	"192"	"450418"	"0.0-6.0-2.0-0.4"	"5jb70x"	"600"	"1366"	"chrome"	"108.0.0"	"FALSE"	"Windows 10"	"60.56"	"153"	n/a	n/a	n/a	n/a	n/a	n/a	"fixation"	n/a	n/a	n/a	n/a	"NULL"	n/a	"NULL"	"NULL"	"NULL"	"<p style=\"color: black; font-size: 80px; padding-left: 9%; padding-right: 47%; padding-top: 27%; padding-bottom: 31%\">+</p>"	"1330"	n/a	n/a	n/a	n/a	n/a	n/a	n/a	n/a	n/a
n/a	"image-keyboard-response"	"193"	"451196"	"0.0-6.0-2.0-1.4"	"5jb70x"	"600"	"1366"	"chrome"	"108.0.0"	"FALSE"	"Windows 10"	"60.56"	"153"	n/a	n/a	n/a	n/a	n/a	n/a	"Trial"	n/a	n/a	n/a	"777"	"arrowleft"	n/a	"NULL"	"NULL"	"NULL"	"stimuli/Ebbinghaus_-0.1000_-0.11071.png"	n/a	"Ebbinghaus"	"arrowright"	"1348"	"FALSE"	"Ebbinghaus"	"-0.100000000"	"-0.110710000"	"2"	"5"
n/a	"html-keyboard-response"	"194"	"452689"	"0.0-6.0-2.0-0.5"	"5jb70x"	"600"	"1366"	"chrome"	"108.0.0"	"FALSE"	"Windows 10"	"60.56"	"153"	n/a	n/a	n/a	n/a	n/a	n/a	"fixation"	n/a	n/a	n/a	n/a	"NULL"	n/a	"NULL"	"NULL"	"NULL"	"<p style=\"color: black; font-size: 80px; padding-left: 45%; padding-right: 43%; padding-top: 48%; padding-bottom: 23%\">+</p>"	"1480"	n/a	n/a	n/a	n/a	n/a	n/a	n/a	n/a	n/a
n/a	"image-keyboard-response"	"195"	"453121"	"0.0-6.0-2.0-1.5"	"5jb70x"	"600"	"1366"	"chrome"	"108.0.0"	"FALSE"	"Windows 10"	"60.56"	"153"	n/a	n/a	n/a	n/a	n/a	n/a	"Trial"	n/a	n/a	n/a	"431"	"arrowright"	n/a	"NULL"	"NULL"	"NULL"	"stimuli/Ebbinghaus_0.61429_0.28000.png"	n/a	"Ebbinghaus"	"arrowleft"	"1493"	"FALSE"	"Ebbinghaus"	"0.6142900000"	"0.2800000000"	"2"	"6"
n/a	"html-keyboard-response"	"196"	"454192"	"0.0-6.0-2.0-0.6"	"5jb70x"	"600"	"1366"	"chrome"	"108.0.0"	"FALSE"	"Windows 10"	"60.56"	"153"	n/a	n/a	n/a	n/a	n/a	n/a	"fixation"	n/a	n/a	n/a	n/a	"NULL"	n/a	"NULL"	"NULL"	"NULL"	"<p style=\"color: black; font-size: 80px; padding-left: 21%; padding-right: 22%; padding-top: 45%; padding-bottom: 46%\">+</p>"	"1053"	n/a	n/a	n/a	n/a	n/a	n/a	n/a	n/a	n/a
n/a	"image-keyboard-response"	"197"	"454956"	"0.0-6.0-2.0-1.6"	"5jb70x"	"600"	"1366"	"chrome"	"108.0.0"	"FALSE"	"Windows 10"	"60.56"	"153"	n/a	n/a	n/a	n/a	n/a	n/a	"Trial"	n/a	n/a	n/a	"764"	"arrowright"	n/a	"NULL"	"NULL"	"NULL"	"stimuli/Ebbinghaus_0.87143_-0.15857.png"	n/a	"Ebbinghaus"	"arrowright"	"1071"	"TRUE"	"Ebbinghaus"	"0.8714300000"	"-0.158570000"	"2"	"7"
n/a	"html-keyboard-response"	"198"	"456306"	"0.0-6.0-2.0-0.7"	"5jb70x"	"600"	"1366"	"chrome"	"108.0.0"	"FALSE"	"Windows 10"	"60.56"	"153"	n/a	n/a	n/a	n/a	n/a	n/a	"fixation"	n/a	n/a	n/a	n/a	"NULL"	n/a	"NULL"	"NULL"	"NULL"	"<p style=\"color: black; font-size: 80px; padding-left: 38%; padding-right: 22%; padding-top: 7%; padding-bottom: 47%\">+</p>"	"1340"	n/a	n/a	n/a	n/a	n/a	n/a	n/a	n/a	n/a
n/a	"image-keyboard-response"	"199"	"456916"	"0.0-6.0-2.0-1.7"	"5jb70x"	"600"	"1366"	"chrome"	"108.0.0"	"FALSE"	"Windows 10"	"60.56"	"153"	n/a	n/a	n/a	n/a	n/a	n/a	"Trial"	n/a	n/a	n/a	"609"	"arrowleft"	n/a	"NULL"	"NULL"	"NULL"	"stimuli/Ebbinghaus_0.35714_-0.2800.png"	n/a	"Ebbinghaus"	"arrowright"	"1350"	"FALSE"	"Ebbinghaus"	"0.3571400000"	"-0.280000000"	"2"	"8"
n/a	"html-keyboard-response"	"200"	"458393"	"0.0-6.0-2.0-0.8"	"5jb70x"	"600"	"1366"	"chrome"	"108.0.0"	"FALSE"	"Windows 10"	"60.56"	"153"	n/a	n/a	n/a	n/a	n/a	n/a	"fixation"	n/a	n/a	n/a	n/a	"NULL"	n/a	"NULL"	"NULL"	"NULL"	"<p style=\"color: black; font-size: 80px; padding-left: 8%; padding-right: 16%; padding-top: 30%; padding-bottom: 16%\">+</p>"	"1465"	n/a	n/a	n/a	n/a	n/a	n/a	n/a	n/a	n/a
n/a	"image-keyboard-response"	"201"	"458890"	"0.0-6.0-2.0-1.8"	"5jb70x"	"600"	"1366"	"chrome"	"108.0.0"	"FALSE"	"Windows 10"	"60.56"	"153"	n/a	n/a	n/a	n/a	n/a	n/a	"Trial"	n/a	n/a	n/a	"496"	"arrowright"	n/a	"NULL"	"NULL"	"NULL"	"stimuli/Ebbinghaus_-0.1000_-0.2800.png"	n/a	"Ebbinghaus"	"arrowright"	"1477"	"TRUE"	"Ebbinghaus"	"-0.100000000"	"-0.280000000"	"2"	"9"
n/a	"html-keyboard-response"	"202"	"459903"	"0.0-6.0-2.0-0.9"	"5jb70x"	"600"	"1366"	"chrome"	"108.0.0"	"FALSE"	"Windows 10"	"60.56"	"153"	n/a	n/a	n/a	n/a	n/a	n/a	"fixation"	n/a	n/a	n/a	n/a	"NULL"	n/a	"NULL"	"NULL"	"NULL"	"<p style=\"color: black; font-size: 80px; padding-left: 32%; padding-right: 37%; padding-top: 9%; padding-bottom: 20%\">+</p>"	"1005"	n/a	n/a	n/a	n/a	n/a	n/a	n/a	n/a	n/a
n/a	"image-keyboard-response"	"203"	"460682"	"0.0-6.0-2.0-1.9"	"5jb70x"	"600"	"1366"	"chrome"	"108.0.0"	"FALSE"	"Windows 10"	"60.56"	"153"	n/a	n/a	n/a	n/a	n/a	n/a	"Trial"	n/a	n/a	n/a	"778"	"arrowleft"	n/a	"NULL"	"NULL"	"NULL"	"stimuli/Ebbinghaus_0.61429_0.15857.png"	n/a	"Ebbinghaus"	"arrowleft"	"1013"	"TRUE"	"Ebbinghaus"	"0.6142900000"	"0.1585700000"	"2"	"10"
n/a	"html-keyboard-response"	"204"	"461903"	"0.0-6.0-2.0-0.10"	"5jb70x"	"600"	"1366"	"chrome"	"108.0.0"	"FALSE"	"Windows 10"	"60.56"	"153"	n/a	n/a	n/a	n/a	n/a	n/a	"fixation"	n/a	n/a	n/a	n/a	"NULL"	n/a	"NULL"	"NULL"	"NULL"	"<p style=\"color: black; font-size: 80px; padding-left: 30%; padding-right: 9%; padding-top: 12%; padding-bottom: 22%\">+</p>"	"1204"	n/a	n/a	n/a	n/a	n/a	n/a	n/a	n/a	n/a
n/a	"image-keyboard-response"	"205"	"462563"	"0.0-6.0-2.0-1.10"	"5jb70x"	"600"	"1366"	"chrome"	"108.0.0"	"FALSE"	"Windows 10"	"60.56"	"153"	n/a	n/a	n/a	n/a	n/a	n/a	"Trial"	n/a	n/a	n/a	"658"	"arrowright"	n/a	"NULL"	"NULL"	"NULL"	"stimuli/Ebbinghaus_-0.35714_-0.11071.png"	n/a	"Ebbinghaus"	"arrowright"	"1221"	"TRUE"	"Ebbinghaus"	"-0.357140000"	"-0.110710000"	"2"	"11"
n/a	"html-keyboard-response"	"206"	"463657"	"0.0-6.0-2.0-0.11"	"5jb70x"	"600"	"1366"	"chrome"	"108.0.0"	"FALSE"	"Windows 10"	"60.56"	"153"	n/a	n/a	n/a	n/a	n/a	n/a	"fixation"	n/a	n/a	n/a	n/a	"NULL"	n/a	"NULL"	"NULL"	"NULL"	"<p style=\"color: black; font-size: 80px; padding-left: 42%; padding-right: 40%; padding-top: 30%; padding-bottom: 16%\">+</p>"	"1088"	n/a	n/a	n/a	n/a	n/a	n/a	n/a	n/a	n/a
n/a	"image-keyboard-response"	"207"	"464265"	"0.0-6.0-2.0-1.11"	"5jb70x"	"600"	"1366"	"chrome"	"108.0.0"	"FALSE"	"Windows 10"	"60.56"	"153"	n/a	n/a	n/a	n/a	n/a	n/a	"Trial"	n/a	n/a	n/a	"607"	"arrowleft"	n/a	"NULL"	"NULL"	"NULL"	"stimuli/Ebbinghaus_-0.61429_0.28000.png"	n/a	"Ebbinghaus"	"arrowleft"	"1094"	"TRUE"	"Ebbinghaus"	"-0.614290000"	"0.2800000000"	"2"	"12"
n/a	"html-keyboard-response"	"208"	"465401"	"0.0-6.0-2.0-0.12"	"5jb70x"	"600"	"1366"	"chrome"	"108.0.0"	"FALSE"	"Windows 10"	"60.56"	"153"	n/a	n/a	n/a	n/a	n/a	n/a	"fixation"	n/a	n/a	n/a	n/a	"NULL"	n/a	"NULL"	"NULL"	"NULL"	"<p style=\"color: black; font-size: 80px; padding-left: 39%; padding-right: 17%; padding-top: 16%; padding-bottom: 24%\">+</p>"	"1132"	n/a	n/a	n/a	n/a	n/a	n/a	n/a	n/a	n/a
n/a	"image-keyboard-response"	"209"	"466058"	"0.0-6.0-2.0-1.12"	"5jb70x"	"600"	"1366"	"chrome"	"108.0.0"	"FALSE"	"Windows 10"	"60.56"	"153"	n/a	n/a	n/a	n/a	n/a	n/a	"Trial"	n/a	n/a	n/a	"656"	"arrowleft"	n/a	"NULL"	"NULL"	"NULL"	"stimuli/Ebbinghaus_-0.35714_0.28000.png"	n/a	"Ebbinghaus"	"arrowleft"	"1136"	"TRUE"	"Ebbinghaus"	"-0.357140000"	"0.2800000000"	"2"	"13"
n/a	"html-keyboard-response"	"210"	"467305"	"0.0-6.0-2.0-0.13"	"5jb70x"	"600"	"1366"	"chrome"	"108.0.0"	"FALSE"	"Windows 10"	"60.56"	"153"	n/a	n/a	n/a	n/a	n/a	n/a	"fixation"	n/a	n/a	n/a	n/a	"NULL"	n/a	"NULL"	"NULL"	"NULL"	"<p style=\"color: black; font-size: 80px; padding-left: 11%; padding-right: 22%; padding-top: 49%; padding-bottom: 34%\">+</p>"	"1228"	n/a	n/a	n/a	n/a	n/a	n/a	n/a	n/a	n/a
n/a	"image-keyboard-response"	"211"	"467893"	"0.0-6.0-2.0-1.13"	"5jb70x"	"600"	"1366"	"chrome"	"108.0.0"	"FALSE"	"Windows 10"	"60.56"	"153"	n/a	n/a	n/a	n/a	n/a	n/a	"Trial"	n/a	n/a	n/a	"587"	"arrowright"	n/a	"NULL"	"NULL"	"NULL"	"stimuli/Ebbinghaus_-0.87143_-0.2150.png"	n/a	"Ebbinghaus"	"arrowright"	"1247"	"TRUE"	"Ebbinghaus"	"-0.871430000"	"-0.215000000"	"2"	"14"
n/a	"html-keyboard-response"	"212"	"469190"	"0.0-6.0-2.0-0.14"	"5jb70x"	"600"	"1366"	"chrome"	"108.0.0"	"FALSE"	"Windows 10"	"60.56"	"153"	n/a	n/a	n/a	n/a	n/a	n/a	"fixation"	n/a	n/a	n/a	n/a	"NULL"	n/a	"NULL"	"NULL"	"NULL"	"<p style=\"color: black; font-size: 80px; padding-left: 48%; padding-right: 30%; padding-top: 33%; padding-bottom: 11%\">+</p>"	"1276"	n/a	n/a	n/a	n/a	n/a	n/a	n/a	n/a	n/a
n/a	"image-keyboard-response"	"213"	"469922"	"0.0-6.0-2.0-1.14"	"5jb70x"	"600"	"1366"	"chrome"	"108.0.0"	"FALSE"	"Windows 10"	"60.56"	"153"	n/a	n/a	n/a	n/a	n/a	n/a	"Trial"	n/a	n/a	n/a	"730"	"arrowleft"	n/a	"NULL"	"NULL"	"NULL"	"stimuli/Ebbinghaus_-0.61429_0.21500.png"	n/a	"Ebbinghaus"	"arrowleft"	"1297"	"TRUE"	"Ebbinghaus"	"-0.614290000"	"0.2150000000"	"2"	"15"
n/a	"html-keyboard-response"	"214"	"471438"	"0.0-6.0-2.0-0.15"	"5jb70x"	"600"	"1366"	"chrome"	"108.0.0"	"FALSE"	"Windows 10"	"60.56"	"153"	n/a	n/a	n/a	n/a	n/a	n/a	"fixation"	n/a	n/a	n/a	n/a	"NULL"	n/a	"NULL"	"NULL"	"NULL"	"<p style=\"color: black; font-size: 80px; padding-left: 11%; padding-right: 8%; padding-top: 44%; padding-bottom: 19%\">+</p>"	"1493"	n/a	n/a	n/a	n/a	n/a	n/a	n/a	n/a	n/a
n/a	"image-keyboard-response"	"215"	"471979"	"0.0-6.0-2.0-1.15"	"5jb70x"	"600"	"1366"	"chrome"	"108.0.0"	"FALSE"	"Windows 10"	"60.56"	"153"	n/a	n/a	n/a	n/a	n/a	n/a	"Trial"	n/a	n/a	n/a	"538"	"arrowleft"	n/a	"NULL"	"NULL"	"NULL"	"stimuli/Ebbinghaus_0.35714_0.15857.png"	n/a	"Ebbinghaus"	"arrowleft"	"1516"	"TRUE"	"Ebbinghaus"	"0.3571400000"	"0.1585700000"	"2"	"16"
n/a	"html-keyboard-response"	"216"	"473171"	"0.0-6.0-2.0-0.16"	"5jb70x"	"600"	"1366"	"chrome"	"108.0.0"	"FALSE"	"Windows 10"	"60.56"	"153"	n/a	n/a	n/a	n/a	n/a	n/a	"fixation"	n/a	n/a	n/a	n/a	"NULL"	n/a	"NULL"	"NULL"	"NULL"	"<p style=\"color: black; font-size: 80px; padding-left: 40%; padding-right: 36%; padding-top: 32%; padding-bottom: 31%\">+</p>"	"1183"	n/a	n/a	n/a	n/a	n/a	n/a	n/a	n/a	n/a
n/a	"image-keyboard-response"	"217"	"473706"	"0.0-6.0-2.0-1.16"	"5jb70x"	"600"	"1366"	"chrome"	"108.0.0"	"FALSE"	"Windows 10"	"60.56"	"153"	n/a	n/a	n/a	n/a	n/a	n/a	"Trial"	n/a	n/a	n/a	"534"	"arrowright"	n/a	"NULL"	"NULL"	"NULL"	"stimuli/Ebbinghaus_0.10000_-0.2800.png"	n/a	"Ebbinghaus"	"arrowright"	"1192"	"TRUE"	"Ebbinghaus"	"0.1000000000"	"-0.280000000"	"2"	"17"
n/a	"html-keyboard-response"	"218"	"475052"	"0.0-6.0-2.0-0.17"	"5jb70x"	"600"	"1366"	"chrome"	"108.0.0"	"FALSE"	"Windows 10"	"60.56"	"153"	n/a	n/a	n/a	n/a	n/a	n/a	"fixation"	n/a	n/a	n/a	n/a	"NULL"	n/a	"NULL"	"NULL"	"NULL"	"<p style=\"color: black; font-size: 80px; padding-left: 38%; padding-right: 0%; padding-top: 41%; padding-bottom: 11%\">+</p>"	"1325"	n/a	n/a	n/a	n/a	n/a	n/a	n/a	n/a	n/a
n/a	"image-keyboard-response"	"219"	"475665"	"0.0-6.0-2.0-1.17"	"5jb70x"	"600"	"1366"	"chrome"	"108.0.0"	"FALSE"	"Windows 10"	"60.56"	"153"	n/a	n/a	n/a	n/a	n/a	n/a	"Trial"	n/a	n/a	n/a	"612"	"arrowleft"	n/a	"NULL"	"NULL"	"NULL"	"stimuli/Ebbinghaus_0.87143_0.28000.png"	n/a	"Ebbinghaus"	"arrowleft"	"1346"	"TRUE"	"Ebbinghaus"	"0.8714300000"	"0.2800000000"	"2"	"18"
n/a	"html-keyboard-response"	"220"	"476969"	"0.0-6.0-2.0-0.18"	"5jb70x"	"600"	"1366"	"chrome"	"108.0.0"	"FALSE"	"Windows 10"	"60.56"	"153"	n/a	n/a	n/a	n/a	n/a	n/a	"fixation"	n/a	n/a	n/a	n/a	"NULL"	n/a	"NULL"	"NULL"	"NULL"	"<p style=\"color: black; font-size: 80px; padding-left: 7%; padding-right: 42%; padding-top: 10%; padding-bottom: 16%\">+</p>"	"1285"	n/a	n/a	n/a	n/a	n/a	n/a	n/a	n/a	n/a
n/a	"image-keyboard-response"	"221"	"477497"	"0.0-6.0-2.0-1.18"	"5jb70x"	"600"	"1366"	"chrome"	"108.0.0"	"FALSE"	"Windows 10"	"60.56"	"153"	n/a	n/a	n/a	n/a	n/a	n/a	"Trial"	n/a	n/a	n/a	"527"	"arrowright"	n/a	"NULL"	"NULL"	"NULL"	"stimuli/Ebbinghaus_0.35714_-0.15857.png"	n/a	"Ebbinghaus"	"arrowright"	"1304"	"TRUE"	"Ebbinghaus"	"0.3571400000"	"-0.158570000"	"2"	"19"
n/a	"html-keyboard-response"	"222"	"478749"	"0.0-6.0-2.0-0.19"	"5jb70x"	"600"	"1366"	"chrome"	"108.0.0"	"FALSE"	"Windows 10"	"60.56"	"153"	n/a	n/a	n/a	n/a	n/a	n/a	"fixation"	n/a	n/a	n/a	n/a	"NULL"	n/a	"NULL"	"NULL"	"NULL"	"<p style=\"color: black; font-size: 80px; padding-left: 33%; padding-right: 40%; padding-top: 22%; padding-bottom: 26%\">+</p>"	"1238"	n/a	n/a	n/a	n/a	n/a	n/a	n/a	n/a	n/a
n/a	"image-keyboard-response"	"223"	"479350"	"0.0-6.0-2.0-1.19"	"5jb70x"	"600"	"1366"	"chrome"	"108.0.0"	"FALSE"	"Windows 10"	"60.56"	"153"	n/a	n/a	n/a	n/a	n/a	n/a	"Trial"	n/a	n/a	n/a	"599"	"arrowleft"	n/a	"NULL"	"NULL"	"NULL"	"stimuli/Ebbinghaus_-0.87143_0.11071.png"	n/a	"Ebbinghaus"	"arrowleft"	"1252"	"TRUE"	"Ebbinghaus"	"-0.871430000"	"0.1107100000"	"2"	"20"
n/a	"html-keyboard-response"	"224"	"480413"	"0.0-6.0-2.0-0.20"	"5jb70x"	"600"	"1366"	"chrome"	"108.0.0"	"FALSE"	"Windows 10"	"60.56"	"153"	n/a	n/a	n/a	n/a	n/a	n/a	"fixation"	n/a	n/a	n/a	n/a	"NULL"	n/a	"NULL"	"NULL"	"NULL"	"<p style=\"color: black; font-size: 80px; padding-left: 13%; padding-right: 28%; padding-top: 6%; padding-bottom: 34%\">+</p>"	"1048"	n/a	n/a	n/a	n/a	n/a	n/a	n/a	n/a	n/a
n/a	"image-keyboard-response"	"225"	"481268"	"0.0-6.0-2.0-1.20"	"5jb70x"	"600"	"1366"	"chrome"	"108.0.0"	"FALSE"	"Windows 10"	"60.56"	"153"	n/a	n/a	n/a	n/a	n/a	n/a	"Trial"	n/a	n/a	n/a	"854"	"arrowright"	n/a	"NULL"	"NULL"	"NULL"	"stimuli/Ebbinghaus_-0.61429_-0.11071.png"	n/a	"Ebbinghaus"	"arrowright"	"1063"	"TRUE"	"Ebbinghaus"	"-0.614290000"	"-0.110710000"	"2"	"21"
n/a	"html-keyboard-response"	"226"	"482626"	"0.0-6.0-2.0-0.21"	"5jb70x"	"600"	"1366"	"chrome"	"108.0.0"	"FALSE"	"Windows 10"	"60.56"	"153"	n/a	n/a	n/a	n/a	n/a	n/a	"fixation"	n/a	n/a	n/a	n/a	"NULL"	n/a	"NULL"	"NULL"	"NULL"	"<p style=\"color: black; font-size: 80px; padding-left: 31%; padding-right: 21%; padding-top: 40%; padding-bottom: 44%\">+</p>"	"1346"	n/a	n/a	n/a	n/a	n/a	n/a	n/a	n/a	n/a
n/a	"image-keyboard-response"	"227"	"483167"	"0.0-6.0-2.0-1.21"	"5jb70x"	"600"	"1366"	"chrome"	"108.0.0"	"FALSE"	"Windows 10"	"60.56"	"153"	n/a	n/a	n/a	n/a	n/a	n/a	"Trial"	n/a	n/a	n/a	"540"	"arrowleft"	n/a	"NULL"	"NULL"	"NULL"	"stimuli/Ebbinghaus_-0.61429_-0.2800.png"	n/a	"Ebbinghaus"	"arrowright"	"1358"	"FALSE"	"Ebbinghaus"	"-0.614290000"	"-0.280000000"	"2"	"22"
n/a	"html-keyboard-response"	"228"	"484590"	"0.0-6.0-2.0-0.22"	"5jb70x"	"600"	"1366"	"chrome"	"108.0.0"	"FALSE"	"Windows 10"	"60.56"	"153"	n/a	n/a	n/a	n/a	n/a	n/a	"fixation"	n/a	n/a	n/a	n/a	"NULL"	n/a	"NULL"	"NULL"	"NULL"	"<p style=\"color: black; font-size: 80px; padding-left: 5%; padding-right: 30%; padding-top: 47%; padding-bottom: 6%\">+</p>"	"1411"	n/a	n/a	n/a	n/a	n/a	n/a	n/a	n/a	n/a
n/a	"image-keyboard-response"	"229"	"485622"	"0.0-6.0-2.0-1.22"	"5jb70x"	"600"	"1366"	"chrome"	"108.0.0"	"FALSE"	"Windows 10"	"60.56"	"153"	n/a	n/a	n/a	n/a	n/a	n/a	"Trial"	n/a	n/a	n/a	"1031"	"arrowright"	n/a	"NULL"	"NULL"	"NULL"	"stimuli/Ebbinghaus_0.10000_-0.15857.png"	n/a	"Ebbinghaus"	"arrowright"	"1423"	"TRUE"	"Ebbinghaus"	"0.1000000000"	"-0.158570000"	"2"	"23"
n/a	"html-keyboard-response"	"230"	"486756"	"0.0-6.0-2.0-0.23"	"5jb70x"	"600"	"1366"	"chrome"	"108.0.0"	"FALSE"	"Windows 10"	"60.56"	"153"	n/a	n/a	n/a	n/a	n/a	n/a	"fixation"	n/a	n/a	n/a	n/a	"NULL"	n/a	"NULL"	"NULL"	"NULL"	"<p style=\"color: black; font-size: 80px; padding-left: 15%; padding-right: 1%; padding-top: 45%; padding-bottom: 6%\">+</p>"	"1117"	n/a	n/a	n/a	n/a	n/a	n/a	n/a	n/a	n/a
n/a	"image-keyboard-response"	"231"	"487356"	"0.0-6.0-2.0-1.23"	"5jb70x"	"600"	"1366"	"chrome"	"108.0.0"	"FALSE"	"Windows 10"	"60.56"	"153"	n/a	n/a	n/a	n/a	n/a	n/a	"Trial"	n/a	n/a	n/a	"597"	"arrowleft"	n/a	"NULL"	"NULL"	"NULL"	"stimuli/Ebbinghaus_-0.1000_0.21500.png"	n/a	"Ebbinghaus"	"arrowleft"	"1134"	"TRUE"	"Ebbinghaus"	"-0.100000000"	"0.2150000000"	"2"	"24"
n/a	"html-keyboard-response"	"232"	"488738"	"0.0-6.0-2.0-0.24"	"5jb70x"	"600"	"1366"	"chrome"	"108.0.0"	"FALSE"	"Windows 10"	"60.56"	"153"	n/a	n/a	n/a	n/a	n/a	n/a	"fixation"	n/a	n/a	n/a	n/a	"NULL"	n/a	"NULL"	"NULL"	"NULL"	"<p style=\"color: black; font-size: 80px; padding-left: 24%; padding-right: 3%; padding-top: 16%; padding-bottom: 19%\">+</p>"	"1364"	n/a	n/a	n/a	n/a	n/a	n/a	n/a	n/a	n/a
n/a	"image-keyboard-response"	"233"	"489230"	"0.0-6.0-2.0-1.24"	"5jb70x"	"600"	"1366"	"chrome"	"108.0.0"	"FALSE"	"Windows 10"	"60.56"	"153"	n/a	n/a	n/a	n/a	n/a	n/a	"Trial"	n/a	n/a	n/a	"491"	"arrowleft"	n/a	"NULL"	"NULL"	"NULL"	"stimuli/Ebbinghaus_0.35714_0.21500.png"	n/a	"Ebbinghaus"	"arrowleft"	"1382"	"TRUE"	"Ebbinghaus"	"0.3571400000"	"0.2150000000"	"2"	"25"
n/a	"html-keyboard-response"	"234"	"490530"	"0.0-6.0-2.0-0.25"	"5jb70x"	"600"	"1366"	"chrome"	"108.0.0"	"FALSE"	"Windows 10"	"60.56"	"153"	n/a	n/a	n/a	n/a	n/a	n/a	"fixation"	n/a	n/a	n/a	n/a	"NULL"	n/a	"NULL"	"NULL"	"NULL"	"<p style=\"color: black; font-size: 80px; padding-left: 29%; padding-right: 50%; padding-top: 28%; padding-bottom: 46%\">+</p>"	"1288"	n/a	n/a	n/a	n/a	n/a	n/a	n/a	n/a	n/a
n/a	"image-keyboard-response"	"235"	"491029"	"0.0-6.0-2.0-1.25"	"5jb70x"	"600"	"1366"	"chrome"	"108.0.0"	"FALSE"	"Windows 10"	"60.56"	"153"	n/a	n/a	n/a	n/a	n/a	n/a	"Trial"	n/a	n/a	n/a	"498"	"arrowright"	n/a	"NULL"	"NULL"	"NULL"	"stimuli/Ebbinghaus_-0.35714_-0.2150.png"	n/a	"Ebbinghaus"	"arrowright"	"1300"	"TRUE"	"Ebbinghaus"	"-0.357140000"	"-0.215000000"	"2"	"26"
n/a	"html-keyboard-response"	"236"	"492087"	"0.0-6.0-2.0-0.26"	"5jb70x"	"600"	"1366"	"chrome"	"108.0.0"	"FALSE"	"Windows 10"	"60.56"	"153"	n/a	n/a	n/a	n/a	n/a	n/a	"fixation"	n/a	n/a	n/a	n/a	"NULL"	n/a	"NULL"	"NULL"	"NULL"	"<p style=\"color: black; font-size: 80px; padding-left: 11%; padding-right: 11%; padding-top: 30%; padding-bottom: 12%\">+</p>"	"1042"	n/a	n/a	n/a	n/a	n/a	n/a	n/a	n/a	n/a
n/a	"image-keyboard-response"	"237"	"492641"	"0.0-6.0-2.0-1.26"	"5jb70x"	"600"	"1366"	"chrome"	"108.0.0"	"FALSE"	"Windows 10"	"60.56"	"153"	n/a	n/a	n/a	n/a	n/a	n/a	"Trial"	n/a	n/a	n/a	"553"	"arrowleft"	n/a	"NULL"	"NULL"	"NULL"	"stimuli/Ebbinghaus_-0.87143_0.15857.png"	n/a	"Ebbinghaus"	"arrowleft"	"1058"	"TRUE"	"Ebbinghaus"	"-0.871430000"	"0.1585700000"	"2"	"27"
n/a	"html-keyboard-response"	"238"	"494087"	"0.0-6.0-2.0-0.27"	"5jb70x"	"600"	"1366"	"chrome"	"108.0.0"	"FALSE"	"Windows 10"	"60.56"	"153"	n/a	n/a	n/a	n/a	n/a	n/a	"fixation"	n/a	n/a	n/a	n/a	"NULL"	n/a	"NULL"	"NULL"	"NULL"	"<p style=\"color: black; font-size: 80px; padding-left: 29%; padding-right: 29%; padding-top: 22%; padding-bottom: 14%\">+</p>"	"1433"	n/a	n/a	n/a	n/a	n/a	n/a	n/a	n/a	n/a
n/a	"image-keyboard-response"	"239"	"494627"	"0.0-6.0-2.0-1.27"	"5jb70x"	"600"	"1366"	"chrome"	"108.0.0"	"FALSE"	"Windows 10"	"60.56"	"153"	n/a	n/a	n/a	n/a	n/a	n/a	"Trial"	n/a	n/a	n/a	"539"	"arrowleft"	n/a	"NULL"	"NULL"	"NULL"	"stimuli/Ebbinghaus_-0.87143_0.28000.png"	n/a	"Ebbinghaus"	"arrowleft"	"1446"	"TRUE"	"Ebbinghaus"	"-0.871430000"	"0.2800000000"	"2"	"28"
n/a	"html-keyboard-response"	"240"	"495970"	"0.0-6.0-2.0-0.28"	"5jb70x"	"600"	"1366"	"chrome"	"108.0.0"	"FALSE"	"Windows 10"	"60.56"	"153"	n/a	n/a	n/a	n/a	n/a	n/a	"fixation"	n/a	n/a	n/a	n/a	"NULL"	n/a	"NULL"	"NULL"	"NULL"	"<p style=\"color: black; font-size: 80px; padding-left: 15%; padding-right: 19%; padding-top: 31%; padding-bottom: 18%\">+</p>"	"1327"	n/a	n/a	n/a	n/a	n/a	n/a	n/a	n/a	n/a
n/a	"image-keyboard-response"	"241"	"496697"	"0.0-6.0-2.0-1.28"	"5jb70x"	"600"	"1366"	"chrome"	"108.0.0"	"FALSE"	"Windows 10"	"60.56"	"153"	n/a	n/a	n/a	n/a	n/a	n/a	"Trial"	n/a	n/a	n/a	"725"	"arrowleft"	n/a	"NULL"	"NULL"	"NULL"	"stimuli/Ebbinghaus_0.61429_-0.11071.png"	n/a	"Ebbinghaus"	"arrowright"	"1343"	"FALSE"	"Ebbinghaus"	"0.6142900000"	"-0.110710000"	"2"	"29"
n/a	"html-keyboard-response"	"242"	"498047"	"0.0-6.0-2.0-0.29"	"5jb70x"	"600"	"1366"	"chrome"	"108.0.0"	"FALSE"	"Windows 10"	"60.56"	"153"	n/a	n/a	n/a	n/a	n/a	n/a	"fixation"	n/a	n/a	n/a	n/a	"NULL"	n/a	"NULL"	"NULL"	"NULL"	"<p style=\"color: black; font-size: 80px; padding-left: 31%; padding-right: 33%; padding-top: 48%; padding-bottom: 7%\">+</p>"	"1342"	n/a	n/a	n/a	n/a	n/a	n/a	n/a	n/a	n/a
n/a	"image-keyboard-response"	"243"	"498754"	"0.0-6.0-2.0-1.29"	"5jb70x"	"600"	"1366"	"chrome"	"108.0.0"	"FALSE"	"Windows 10"	"60.56"	"153"	n/a	n/a	n/a	n/a	n/a	n/a	"Trial"	n/a	n/a	n/a	"705"	"arrowleft"	n/a	"NULL"	"NULL"	"NULL"	"stimuli/Ebbinghaus_-0.61429_0.15857.png"	n/a	"Ebbinghaus"	"arrowleft"	"1350"	"TRUE"	"Ebbinghaus"	"-0.614290000"	"0.1585700000"	"2"	"30"
n/a	"html-keyboard-response"	"244"	"500225"	"0.0-6.0-2.0-0.30"	"5jb70x"	"600"	"1366"	"chrome"	"108.0.0"	"FALSE"	"Windows 10"	"60.56"	"153"	n/a	n/a	n/a	n/a	n/a	n/a	"fixation"	n/a	n/a	n/a	n/a	"NULL"	n/a	"NULL"	"NULL"	"NULL"	"<p style=\"color: black; font-size: 80px; padding-left: 48%; padding-right: 16%; padding-top: 18%; padding-bottom: 44%\">+</p>"	"1453"	n/a	n/a	n/a	n/a	n/a	n/a	n/a	n/a	n/a
n/a	"image-keyboard-response"	"245"	"500808"	"0.0-6.0-2.0-1.30"	"5jb70x"	"600"	"1366"	"chrome"	"108.0.0"	"FALSE"	"Windows 10"	"60.56"	"153"	n/a	n/a	n/a	n/a	n/a	n/a	"Trial"	n/a	n/a	n/a	"581"	"arrowleft"	n/a	"NULL"	"NULL"	"NULL"	"stimuli/Ebbinghaus_-0.35714_0.15857.png"	n/a	"Ebbinghaus"	"arrowleft"	"1471"	"TRUE"	"Ebbinghaus"	"-0.357140000"	"0.1585700000"	"2"	"31"
n/a	"html-keyboard-response"	"246"	"502034"	"0.0-6.0-2.0-0.31"	"5jb70x"	"600"	"1366"	"chrome"	"108.0.0"	"FALSE"	"Windows 10"	"60.56"	"153"	n/a	n/a	n/a	n/a	n/a	n/a	"fixation"	n/a	n/a	n/a	n/a	"NULL"	n/a	"NULL"	"NULL"	"NULL"	"<p style=\"color: black; font-size: 80px; padding-left: 35%; padding-right: 20%; padding-top: 36%; padding-bottom: 25%\">+</p>"	"1208"	n/a	n/a	n/a	n/a	n/a	n/a	n/a	n/a	n/a
n/a	"image-keyboard-response"	"247"	"502544"	"0.0-6.0-2.0-1.31"	"5jb70x"	"600"	"1366"	"chrome"	"108.0.0"	"FALSE"	"Windows 10"	"60.56"	"153"	n/a	n/a	n/a	n/a	n/a	n/a	"Trial"	n/a	n/a	n/a	"508"	"arrowleft"	n/a	"NULL"	"NULL"	"NULL"	"stimuli/Ebbinghaus_0.35714_0.28000.png"	n/a	"Ebbinghaus"	"arrowleft"	"1226"	"TRUE"	"Ebbinghaus"	"0.3571400000"	"0.2800000000"	"2"	"32"
n/a	"html-keyboard-response"	"248"	"503585"	"0.0-6.0-2.0-0.32"	"5jb70x"	"600"	"1366"	"chrome"	"108.0.0"	"FALSE"	"Windows 10"	"60.56"	"153"	n/a	n/a	n/a	n/a	n/a	n/a	"fixation"	n/a	n/a	n/a	n/a	"NULL"	n/a	"NULL"	"NULL"	"NULL"	"<p style=\"color: black; font-size: 80px; padding-left: 33%; padding-right: 7%; padding-top: 9%; padding-bottom: 33%\">+</p>"	"1030"	n/a	n/a	n/a	n/a	n/a	n/a	n/a	n/a	n/a
n/a	"image-keyboard-response"	"249"	"504310"	"0.0-6.0-2.0-1.32"	"5jb70x"	"600"	"1366"	"chrome"	"108.0.0"	"FALSE"	"Windows 10"	"60.56"	"153"	n/a	n/a	n/a	n/a	n/a	n/a	"Trial"	n/a	n/a	n/a	"724"	"arrowright"	n/a	"NULL"	"NULL"	"NULL"	"stimuli/Ebbinghaus_-0.35714_-0.2800.png"	n/a	"Ebbinghaus"	"arrowright"	"1041"	"TRUE"	"Ebbinghaus"	"-0.357140000"	"-0.280000000"	"2"	"33"
n/a	"html-keyboard-response"	"250"	"505336"	"0.0-6.0-2.0-0.33"	"5jb70x"	"600"	"1366"	"chrome"	"108.0.0"	"FALSE"	"Windows 10"	"60.56"	"153"	n/a	n/a	n/a	n/a	n/a	n/a	"fixation"	n/a	n/a	n/a	n/a	"NULL"	n/a	"NULL"	"NULL"	"NULL"	"<p style=\"color: black; font-size: 80px; padding-left: 0%; padding-right: 43%; padding-top: 33%; padding-bottom: 49%\">+</p>"	"1019"	n/a	n/a	n/a	n/a	n/a	n/a	n/a	n/a	n/a
n/a	"image-keyboard-response"	"251"	"506033"	"0.0-6.0-2.0-1.33"	"5jb70x"	"600"	"1366"	"chrome"	"108.0.0"	"FALSE"	"Windows 10"	"60.56"	"153"	n/a	n/a	n/a	n/a	n/a	n/a	"Trial"	n/a	n/a	n/a	"696"	"arrowright"	n/a	"NULL"	"NULL"	"NULL"	"stimuli/Ebbinghaus_0.10000_-0.11071.png"	n/a	"Ebbinghaus"	"arrowright"	"1026"	"TRUE"	"Ebbinghaus"	"0.1000000000"	"-0.110710000"	"2"	"34"
n/a	"html-keyboard-response"	"252"	"507057"	"0.0-6.0-2.0-0.34"	"5jb70x"	"600"	"1366"	"chrome"	"108.0.0"	"FALSE"	"Windows 10"	"60.56"	"153"	n/a	n/a	n/a	n/a	n/a	n/a	"fixation"	n/a	n/a	n/a	n/a	"NULL"	n/a	"NULL"	"NULL"	"NULL"	"<p style=\"color: black; font-size: 80px; padding-left: 14%; padding-right: 11%; padding-top: 40%; padding-bottom: 5%\">+</p>"	"1006"	n/a	n/a	n/a	n/a	n/a	n/a	n/a	n/a	n/a
n/a	"image-keyboard-response"	"253"	"507684"	"0.0-6.0-2.0-1.34"	"5jb70x"	"600"	"1366"	"chrome"	"108.0.0"	"FALSE"	"Windows 10"	"60.56"	"153"	n/a	n/a	n/a	n/a	n/a	n/a	"Trial"	n/a	n/a	n/a	"627"	"arrowleft"	n/a	"NULL"	"NULL"	"NULL"	"stimuli/Ebbinghaus_-0.35714_0.11071.png"	n/a	"Ebbinghaus"	"arrowleft"	"1024"	"TRUE"	"Ebbinghaus"	"-0.357140000"	"0.1107100000"	"2"	"35"
