"success"	"trial_type"	"trial_index"	"time_elapsed"	"internal_node_id"	"participant_id"	"screen_height"	"screen_width"	"browser"	"browser_version"	"mobile"	"os"	"vsync_rate"	"subject_id"	"width"	"height"	"webaudio"	"fullscreen"	"webcam"	"microphone"	"screen"	"version"	"date"	"time"	"rt"	"response"	"timeout"	"failed_images"	"failed_audio"	"failed_video"	"stimulus"	"trial_duration"	"block"	"correct_response"	"prestimulus_duration"	"correct"	"type"	"illusion_strength"	"illusion_difference"	"block_number"	"trial_number"
"TRUE"	"fullscreen"	"0"	"1747"	"0.0-0.0"	"xvenkz"	"563"	"1199"	"chrome"	"110.0.0"	"FALSE"	"Windows 10"	"60.47"	"030"	n/a	n/a	n/a	n/a	n/a	n/a	n/a	n/a	n/a	n/a	n/a	"NULL"	n/a	"NULL"	"NULL"	"NULL"	n/a	n/a	n/a	n/a	n/a	n/a	n/a	n/a	n/a	n/a	n/a
n/a	"browser-check"	"1"	"2751"	"0.0-1.0"	"xvenkz"	"563"	"1199"	"chrome"	"110.0.0"	"FALSE"	"Windows 10"	"60.47"	"030"	"1199"	"563"	"TRUE"	"TRUE"	"TRUE"	"TRUE"	"browser_info"	"1.0"	"01/03/2023"	"18:24:33"	n/a	"NULL"	n/a	"NULL"	"NULL"	"NULL"	n/a	n/a	n/a	n/a	n/a	n/a	n/a	n/a	n/a	n/a	n/a
n/a	"survey-text"	"2"	"6734"	"0.0-2.0"	"xvenkz"	"563"	"1199"	"chrome"	"110.0.0"	"FALSE"	"Windows 10"	"60.47"	"030"	n/a	n/a	n/a	n/a	n/a	n/a	"subject_id"	n/a	n/a	n/a	"3979"	"list(subject_id = \"030\")"	n/a	"NULL"	"NULL"	"NULL"	n/a	n/a	n/a	n/a	n/a	n/a	n/a	n/a	n/a	n/a	n/a
"TRUE"	"preload"	"3"	"6746"	"0.0-3.0"	"xvenkz"	"563"	"1199"	"chrome"	"110.0.0"	"FALSE"	"Windows 10"	"60.47"	"030"	n/a	n/a	n/a	n/a	n/a	n/a	n/a	n/a	n/a	n/a	n/a	"NULL"	"FALSE"	"list()"	"list()"	"list()"	n/a	n/a	n/a	n/a	n/a	n/a	n/a	n/a	n/a	n/a	n/a
n/a	"html-button-response"	"4"	"75670"	"0.0-4.0-0.0"	"xvenkz"	"563"	"1199"	"chrome"	"110.0.0"	"FALSE"	"Windows 10"	"60.47"	"030"	n/a	n/a	n/a	n/a	n/a	n/a	"illusion_instructions"	n/a	n/a	n/a	"68922"	"0"	n/a	"NULL"	"NULL"	"NULL"	"<p><b>Illusion Game</b></p><p>In this game of speed and reflex, you will need to make <b>visual judgments</b> (for instance, which circle is the biggest, or which line is the longest), as fast and as correctly as possible, while <b>resisting different visual illusions</b>.</p><p>We are going to start with some examples of all the illusions you will encounter in the game.</p>"	n/a	n/a	n/a	n/a	n/a	n/a	n/a	n/a	n/a	n/a
"TRUE"	"preload"	"5"	"75695"	"0.0-4.0-1.0-0.0"	"xvenkz"	"563"	"1199"	"chrome"	"110.0.0"	"FALSE"	"Windows 10"	"60.47"	"030"	n/a	n/a	n/a	n/a	n/a	n/a	n/a	n/a	n/a	n/a	n/a	"NULL"	"FALSE"	"list()"	"list()"	"list()"	n/a	n/a	n/a	n/a	n/a	n/a	n/a	n/a	n/a	n/a	n/a
n/a	"html-keyboard-response"	"6"	"104757"	"0.0-4.0-1.0-1.0"	"xvenkz"	"563"	"1199"	"chrome"	"110.0.0"	"FALSE"	"Windows 10"	"60.47"	"030"	n/a	n/a	n/a	n/a	n/a	n/a	n/a	n/a	n/a	n/a	"29060"	"enter"	n/a	"NULL"	"NULL"	"NULL"	"<p><b>Practice</b></p><p>In this part, two red circles will appear side by side on the screen.</p><p>Your task is to select which <b>red circle is bigger</b> in size as fast as you can, without making errors.</p><p>Don't get distracted by the surrounding black circles around the red circles!</p><p>Press <b>the LEFT or the RIGHT arrow</b> to indicate which is the bigger <b>red circle.</b></p><div style='float: center'><img src='materials/instructions/Ebbinghaus_Demo.png' height='300'></img><p><img src='utils/answer/answer_leftright_keyboard.PNG' height='150'></img></p><p class='small'>In this example, the correct answer is the <b>LEFT arrow</b>.</p></div><p>Are you ready? <b>Press ENTER to start</b></p>"	n/a	n/a	n/a	n/a	n/a	n/a	n/a	n/a	n/a	n/a
n/a	"html-keyboard-response"	"7"	"106431"	"0.0-4.0-1.0-2.0-0.0"	"xvenkz"	"563"	"1199"	"chrome"	"110.0.0"	"FALSE"	"Windows 10"	"60.47"	"030"	n/a	n/a	n/a	n/a	n/a	n/a	"fixation"	n/a	n/a	n/a	n/a	"NULL"	n/a	"NULL"	"NULL"	"NULL"	"<p style=\"color: black; font-size: 80px; padding-left: 25%; padding-right: 35%; padding-top: 39%; padding-bottom: 5%\">+</p>"	"1167"	n/a	n/a	n/a	n/a	n/a	n/a	n/a	n/a	n/a
n/a	"image-keyboard-response"	"8"	"107320"	"0.0-4.0-1.0-2.0-1.0"	"xvenkz"	"563"	"1199"	"chrome"	"110.0.0"	"FALSE"	"Windows 10"	"60.47"	"030"	n/a	n/a	n/a	n/a	n/a	n/a	"Trial"	n/a	n/a	n/a	"881"	"arrowright"	n/a	"NULL"	"NULL"	"NULL"	"stimuli/Ebbinghaus_-100000_-1.4000.png"	n/a	"Ebbinghaus"	"arrowright"	"1674"	"TRUE"	"Ebbinghaus"	"-10000000000"	"-1.400000000"	"1"	"1"
n/a	"html-keyboard-response"	"9"	"108542"	"0.0-4.0-1.0-2.0-0.1"	"xvenkz"	"563"	"1199"	"chrome"	"110.0.0"	"FALSE"	"Windows 10"	"60.47"	"030"	n/a	n/a	n/a	n/a	n/a	n/a	"fixation"	n/a	n/a	n/a	n/a	"NULL"	n/a	"NULL"	"NULL"	"NULL"	"<p style=\"color: black; font-size: 80px; padding-left: 26%; padding-right: 26%; padding-top: 41%; padding-bottom: 18%\">+</p>"	"1216"	n/a	n/a	n/a	n/a	n/a	n/a	n/a	n/a	n/a
n/a	"image-keyboard-response"	"10"	"109013"	"0.0-4.0-1.0-2.0-1.1"	"xvenkz"	"563"	"1199"	"chrome"	"110.0.0"	"FALSE"	"Windows 10"	"60.47"	"030"	n/a	n/a	n/a	n/a	n/a	n/a	"Trial"	n/a	n/a	n/a	"470"	"arrowleft"	n/a	"NULL"	"NULL"	"NULL"	"stimuli/Ebbinghaus_1000000_1.40000.png"	n/a	"Ebbinghaus"	"arrowleft"	"1222"	"TRUE"	"Ebbinghaus"	"100000000000"	"1.4000000000"	"1"	"2"
n/a	"html-keyboard-response"	"11"	"110298"	"0.0-4.0-1.0-2.0-0.2"	"xvenkz"	"563"	"1199"	"chrome"	"110.0.0"	"FALSE"	"Windows 10"	"60.47"	"030"	n/a	n/a	n/a	n/a	n/a	n/a	"fixation"	n/a	n/a	n/a	n/a	"NULL"	n/a	"NULL"	"NULL"	"NULL"	"<p style=\"color: black; font-size: 80px; padding-left: 18%; padding-right: 42%; padding-top: 1%; padding-bottom: 31%\">+</p>"	"1281"	n/a	n/a	n/a	n/a	n/a	n/a	n/a	n/a	n/a
n/a	"image-keyboard-response"	"12"	"110740"	"0.0-4.0-1.0-2.0-1.2"	"xvenkz"	"563"	"1199"	"chrome"	"110.0.0"	"FALSE"	"Windows 10"	"60.47"	"030"	n/a	n/a	n/a	n/a	n/a	n/a	"Trial"	n/a	n/a	n/a	"441"	"arrowright"	n/a	"NULL"	"NULL"	"NULL"	"stimuli/Ebbinghaus_0000000_-1.4000.png"	n/a	"Ebbinghaus"	"arrowright"	"1285"	"TRUE"	"Ebbinghaus"	"000000000000"	"-1.400000000"	"1"	"3"
n/a	"html-keyboard-response"	"13"	"112202"	"0.0-4.0-1.0-2.0-0.3"	"xvenkz"	"563"	"1199"	"chrome"	"110.0.0"	"FALSE"	"Windows 10"	"60.47"	"030"	n/a	n/a	n/a	n/a	n/a	n/a	"fixation"	n/a	n/a	n/a	n/a	"NULL"	n/a	"NULL"	"NULL"	"NULL"	"<p style=\"color: black; font-size: 80px; padding-left: 13%; padding-right: 27%; padding-top: 29%; padding-bottom: 21%\">+</p>"	"1455"	n/a	n/a	n/a	n/a	n/a	n/a	n/a	n/a	n/a
n/a	"image-keyboard-response"	"14"	"112637"	"0.0-4.0-1.0-2.0-1.3"	"xvenkz"	"563"	"1199"	"chrome"	"110.0.0"	"FALSE"	"Windows 10"	"60.47"	"030"	n/a	n/a	n/a	n/a	n/a	n/a	"Trial"	n/a	n/a	n/a	"434"	"arrowright"	n/a	"NULL"	"NULL"	"NULL"	"stimuli/Ebbinghaus_1000000_-1.4000.png"	n/a	"Ebbinghaus"	"arrowright"	"1462"	"TRUE"	"Ebbinghaus"	"100000000000"	"-1.400000000"	"1"	"4"
n/a	"html-keyboard-response"	"15"	"113867"	"0.0-4.0-1.0-2.0-0.4"	"xvenkz"	"563"	"1199"	"chrome"	"110.0.0"	"FALSE"	"Windows 10"	"60.47"	"030"	n/a	n/a	n/a	n/a	n/a	n/a	"fixation"	n/a	n/a	n/a	n/a	"NULL"	n/a	"NULL"	"NULL"	"NULL"	"<p style=\"color: black; font-size: 80px; padding-left: 44%; padding-right: 35%; padding-top: 42%; padding-bottom: 46%\">+</p>"	"1226"	n/a	n/a	n/a	n/a	n/a	n/a	n/a	n/a	n/a
n/a	"image-keyboard-response"	"16"	"114420"	"0.0-4.0-1.0-2.0-1.4"	"xvenkz"	"563"	"1199"	"chrome"	"110.0.0"	"FALSE"	"Windows 10"	"60.47"	"030"	n/a	n/a	n/a	n/a	n/a	n/a	"Trial"	n/a	n/a	n/a	"553"	"arrowleft"	n/a	"NULL"	"NULL"	"NULL"	"stimuli/Ebbinghaus_-100000_1.40000.png"	n/a	"Ebbinghaus"	"arrowleft"	"1230"	"TRUE"	"Ebbinghaus"	"-10000000000"	"1.4000000000"	"1"	"5"
n/a	"html-keyboard-response"	"17"	"115695"	"0.0-4.0-1.0-2.0-0.5"	"xvenkz"	"563"	"1199"	"chrome"	"110.0.0"	"FALSE"	"Windows 10"	"60.47"	"030"	n/a	n/a	n/a	n/a	n/a	n/a	"fixation"	n/a	n/a	n/a	n/a	"NULL"	n/a	"NULL"	"NULL"	"NULL"	"<p style=\"color: black; font-size: 80px; padding-left: 14%; padding-right: 42%; padding-top: 16%; padding-bottom: 12%\">+</p>"	"1269"	n/a	n/a	n/a	n/a	n/a	n/a	n/a	n/a	n/a
n/a	"image-keyboard-response"	"18"	"116212"	"0.0-4.0-1.0-2.0-1.5"	"xvenkz"	"563"	"1199"	"chrome"	"110.0.0"	"FALSE"	"Windows 10"	"60.47"	"030"	n/a	n/a	n/a	n/a	n/a	n/a	"Trial"	n/a	n/a	n/a	"517"	"arrowleft"	n/a	"NULL"	"NULL"	"NULL"	"stimuli/Ebbinghaus_0000000_1.40000.png"	n/a	"Ebbinghaus"	"arrowleft"	"1275"	"TRUE"	"Ebbinghaus"	"000000000000"	"1.4000000000"	"1"	"6"
n/a	"html-button-response"	"19"	"123637"	"0.0-4.0-1.0-3.0"	"xvenkz"	"563"	"1199"	"chrome"	"110.0.0"	"FALSE"	"Windows 10"	"60.47"	"030"	n/a	n/a	n/a	n/a	n/a	n/a	"practice_block_results"	n/a	n/a	n/a	"7422"	"0"	n/a	"NULL"	"NULL"	"NULL"	"<p style='color:rgb(76,175,80);'> Correct Responses: <b>100.00%</b></p><hr><p style='color:rgb(233,30,99);'> Average Response Time: <b>549.33</b> ms.</p>"	n/a	n/a	n/a	n/a	n/a	n/a	n/a	n/a	n/a	n/a
"TRUE"	"preload"	"20"	"124170"	"0.0-4.0-2.0-0.0"	"xvenkz"	"563"	"1199"	"chrome"	"110.0.0"	"FALSE"	"Windows 10"	"60.47"	"030"	n/a	n/a	n/a	n/a	n/a	n/a	n/a	n/a	n/a	n/a	n/a	"NULL"	"FALSE"	"list()"	"list()"	"list()"	n/a	n/a	n/a	n/a	n/a	n/a	n/a	n/a	n/a	n/a	n/a
n/a	"html-keyboard-response"	"21"	"134171"	"0.0-4.0-2.0-1.0"	"xvenkz"	"563"	"1199"	"chrome"	"110.0.0"	"FALSE"	"Windows 10"	"60.47"	"030"	n/a	n/a	n/a	n/a	n/a	n/a	n/a	n/a	n/a	n/a	"10000"	"enter"	n/a	"NULL"	"NULL"	"NULL"	"<p><b>Practice</b></p><p>In this part, two horizontal red lines will appear one above the other.</p><p>Your task is to select which <b>line is longer</b> in length as fast as you can, without making errors.</p><p>Don't get distracted by the surrounding black arrows at the end of the red lines!</p><p>Press <b>the UP or the DOWN arrow</b> to indicate where is the longer <b>red line.</b></p><div style='float: center'><img src='materials/instructions/MullerLyer_Demo.png' height='300'></img><p><img src='utils/answer/answer_updown_keyboard.PNG' height='150'></img></p><p class='small'>In this example, the correct answer is the <b>UP arrow</b>.</p></div><p>Are you ready? <b>Press ENTER to start</b></p>"	n/a	n/a	n/a	n/a	n/a	n/a	n/a	n/a	n/a	n/a
n/a	"html-keyboard-response"	"22"	"135731"	"0.0-4.0-2.0-2.0-0.0"	"xvenkz"	"563"	"1199"	"chrome"	"110.0.0"	"FALSE"	"Windows 10"	"60.47"	"030"	n/a	n/a	n/a	n/a	n/a	n/a	"fixation"	n/a	n/a	n/a	n/a	"NULL"	n/a	"NULL"	"NULL"	"NULL"	"<p style=\"color: black; font-size: 80px; padding-left: 15%; padding-right: 37%; padding-top: 13%; padding-bottom: 34%\">+</p>"	"1042"	n/a	n/a	n/a	n/a	n/a	n/a	n/a	n/a	n/a
n/a	"image-keyboard-response"	"23"	"136285"	"0.0-4.0-2.0-2.0-1.0"	"xvenkz"	"563"	"1199"	"chrome"	"110.0.0"	"FALSE"	"Windows 10"	"60.47"	"030"	n/a	n/a	n/a	n/a	n/a	n/a	"Trial"	n/a	n/a	n/a	"554"	"arrowdown"	n/a	"NULL"	"NULL"	"NULL"	"stimuli/MullerLyer_-230000_-0.7000.png"	n/a	"MullerLyer"	"arrowdown"	"1560"	"TRUE"	"MullerLyer"	"-23000000000"	"-0.700000000"	"1"	"7"
n/a	"html-keyboard-response"	"24"	"137401"	"0.0-4.0-2.0-2.0-0.1"	"xvenkz"	"563"	"1199"	"chrome"	"110.0.0"	"FALSE"	"Windows 10"	"60.47"	"030"	n/a	n/a	n/a	n/a	n/a	n/a	"fixation"	n/a	n/a	n/a	n/a	"NULL"	n/a	"NULL"	"NULL"	"NULL"	"<p style=\"color: black; font-size: 80px; padding-left: 12%; padding-right: 3%; padding-top: 25%; padding-bottom: 37%\">+</p>"	"1114"	n/a	n/a	n/a	n/a	n/a	n/a	n/a	n/a	n/a
n/a	"image-keyboard-response"	"25"	"137884"	"0.0-4.0-2.0-2.0-1.1"	"xvenkz"	"563"	"1199"	"chrome"	"110.0.0"	"FALSE"	"Windows 10"	"60.47"	"030"	n/a	n/a	n/a	n/a	n/a	n/a	"Trial"	n/a	n/a	n/a	"482"	"arrowdown"	n/a	"NULL"	"NULL"	"NULL"	"stimuli/MullerLyer_0000000_-0.7000.png"	n/a	"MullerLyer"	"arrowdown"	"1116"	"TRUE"	"MullerLyer"	"000000000000"	"-0.700000000"	"1"	"8"
n/a	"html-keyboard-response"	"26"	"139324"	"0.0-4.0-2.0-2.0-0.2"	"xvenkz"	"563"	"1199"	"chrome"	"110.0.0"	"FALSE"	"Windows 10"	"60.47"	"030"	n/a	n/a	n/a	n/a	n/a	n/a	"fixation"	n/a	n/a	n/a	n/a	"NULL"	n/a	"NULL"	"NULL"	"NULL"	"<p style=\"color: black; font-size: 80px; padding-left: 10%; padding-right: 10%; padding-top: 10%; padding-bottom: 9%\">+</p>"	"1436"	n/a	n/a	n/a	n/a	n/a	n/a	n/a	n/a	n/a
n/a	"image-keyboard-response"	"27"	"139717"	"0.0-4.0-2.0-2.0-1.2"	"xvenkz"	"563"	"1199"	"chrome"	"110.0.0"	"FALSE"	"Windows 10"	"60.47"	"030"	n/a	n/a	n/a	n/a	n/a	n/a	"Trial"	n/a	n/a	n/a	"392"	"arrowup"	n/a	"NULL"	"NULL"	"NULL"	"stimuli/MullerLyer_-230000_0.70000.png"	n/a	"MullerLyer"	"arrowup"	"1440"	"TRUE"	"MullerLyer"	"-23000000000"	"0.7000000000"	"1"	"9"
n/a	"html-keyboard-response"	"28"	"141129"	"0.0-4.0-2.0-2.0-0.3"	"xvenkz"	"563"	"1199"	"chrome"	"110.0.0"	"FALSE"	"Windows 10"	"60.47"	"030"	n/a	n/a	n/a	n/a	n/a	n/a	"fixation"	n/a	n/a	n/a	n/a	"NULL"	n/a	"NULL"	"NULL"	"NULL"	"<p style=\"color: black; font-size: 80px; padding-left: 24%; padding-right: 25%; padding-top: 44%; padding-bottom: 31%\">+</p>"	"1409"	n/a	n/a	n/a	n/a	n/a	n/a	n/a	n/a	n/a
n/a	"image-keyboard-response"	"29"	"141660"	"0.0-4.0-2.0-2.0-1.3"	"xvenkz"	"563"	"1199"	"chrome"	"110.0.0"	"FALSE"	"Windows 10"	"60.47"	"030"	n/a	n/a	n/a	n/a	n/a	n/a	"Trial"	n/a	n/a	n/a	"529"	"arrowup"	n/a	"NULL"	"NULL"	"NULL"	"stimuli/MullerLyer_0000000_0.70000.png"	n/a	"MullerLyer"	"arrowup"	"1412"	"TRUE"	"MullerLyer"	"000000000000"	"0.7000000000"	"1"	"10"
n/a	"html-keyboard-response"	"30"	"142993"	"0.0-4.0-2.0-2.0-0.4"	"xvenkz"	"563"	"1199"	"chrome"	"110.0.0"	"FALSE"	"Windows 10"	"60.47"	"030"	n/a	n/a	n/a	n/a	n/a	n/a	"fixation"	n/a	n/a	n/a	n/a	"NULL"	n/a	"NULL"	"NULL"	"NULL"	"<p style=\"color: black; font-size: 80px; padding-left: 2%; padding-right: 19%; padding-top: 20%; padding-bottom: 27%\">+</p>"	"1323"	n/a	n/a	n/a	n/a	n/a	n/a	n/a	n/a	n/a
n/a	"image-keyboard-response"	"31"	"143459"	"0.0-4.0-2.0-2.0-1.4"	"xvenkz"	"563"	"1199"	"chrome"	"110.0.0"	"FALSE"	"Windows 10"	"60.47"	"030"	n/a	n/a	n/a	n/a	n/a	n/a	"Trial"	n/a	n/a	n/a	"465"	"arrowup"	n/a	"NULL"	"NULL"	"NULL"	"stimuli/MullerLyer_2300000_0.70000.png"	n/a	"MullerLyer"	"arrowup"	"1333"	"TRUE"	"MullerLyer"	"230000000000"	"0.7000000000"	"1"	"11"
n/a	"html-keyboard-response"	"32"	"144855"	"0.0-4.0-2.0-2.0-0.5"	"xvenkz"	"563"	"1199"	"chrome"	"110.0.0"	"FALSE"	"Windows 10"	"60.47"	"030"	n/a	n/a	n/a	n/a	n/a	n/a	"fixation"	n/a	n/a	n/a	n/a	"NULL"	n/a	"NULL"	"NULL"	"NULL"	"<p style=\"color: black; font-size: 80px; padding-left: 50%; padding-right: 30%; padding-top: 40%; padding-bottom: 11%\">+</p>"	"1380"	n/a	n/a	n/a	n/a	n/a	n/a	n/a	n/a	n/a
n/a	"image-keyboard-response"	"33"	"145468"	"0.0-4.0-2.0-2.0-1.5"	"xvenkz"	"563"	"1199"	"chrome"	"110.0.0"	"FALSE"	"Windows 10"	"60.47"	"030"	n/a	n/a	n/a	n/a	n/a	n/a	"Trial"	n/a	n/a	n/a	"612"	"arrowdown"	n/a	"NULL"	"NULL"	"NULL"	"stimuli/MullerLyer_2300000_-0.7000.png"	n/a	"MullerLyer"	"arrowdown"	"1396"	"TRUE"	"MullerLyer"	"230000000000"	"-0.700000000"	"1"	"12"
n/a	"html-button-response"	"34"	"150249"	"0.0-4.0-2.0-3.0"	"xvenkz"	"563"	"1199"	"chrome"	"110.0.0"	"FALSE"	"Windows 10"	"60.47"	"030"	n/a	n/a	n/a	n/a	n/a	n/a	"practice_block_results"	n/a	n/a	n/a	"4779"	"0"	n/a	"NULL"	"NULL"	"NULL"	"<p style='color:rgb(76,175,80);'> Correct Responses: <b>100.00%</b></p><hr><p style='color:rgb(233,30,99);'> Average Response Time: <b>505.67</b> ms.</p>"	n/a	n/a	n/a	n/a	n/a	n/a	n/a	n/a	n/a	n/a
"TRUE"	"preload"	"35"	"150777"	"0.0-4.0-3.0-0.0"	"xvenkz"	"563"	"1199"	"chrome"	"110.0.0"	"FALSE"	"Windows 10"	"60.47"	"030"	n/a	n/a	n/a	n/a	n/a	n/a	n/a	n/a	n/a	n/a	n/a	"NULL"	"FALSE"	"list()"	"list()"	"list()"	n/a	n/a	n/a	n/a	n/a	n/a	n/a	n/a	n/a	n/a	n/a
n/a	"html-keyboard-response"	"36"	"162147"	"0.0-4.0-3.0-1.0"	"xvenkz"	"563"	"1199"	"chrome"	"110.0.0"	"FALSE"	"Windows 10"	"60.47"	"030"	n/a	n/a	n/a	n/a	n/a	n/a	n/a	n/a	n/a	n/a	"11369"	"enter"	n/a	"NULL"	"NULL"	"NULL"	"<p><b>Practice</b></p><p>In this part, two red lines will appear side by side.</p><p>Your task is to tell <b>which line is longer</b> in length, regardless of their orientation, as fast as you can, and without making errors.</p><p>Don't get distracted by the orientation of the lines!</p><p>Press <b>the LEFT or the RIGHT arrow</b> to indicate which <b>line is the longer one.</b></p><div style='float: center'><img src='materials/instructions/VerticalHorizontal_Demo.png' height='300'></img><p><img src='utils/answer/answer_leftright_keyboard.PNG' height='150'></img></p><p class='small'>In this example, the correct answer is the <b>LEFT arrow</b>.</p></div><p>Are you ready? <b>Press ENTER to start</b></p>"	n/a	n/a	n/a	n/a	n/a	n/a	n/a	n/a	n/a	n/a
n/a	"html-keyboard-response"	"37"	"164100"	"0.0-4.0-3.0-2.0-0.0"	"xvenkz"	"563"	"1199"	"chrome"	"110.0.0"	"FALSE"	"Windows 10"	"60.47"	"030"	n/a	n/a	n/a	n/a	n/a	n/a	"fixation"	n/a	n/a	n/a	n/a	"NULL"	n/a	"NULL"	"NULL"	"NULL"	"<p style=\"color: black; font-size: 80px; padding-left: 13%; padding-right: 29%; padding-top: 4%; padding-bottom: 34%\">+</p>"	"1436"	n/a	n/a	n/a	n/a	n/a	n/a	n/a	n/a	n/a
n/a	"image-keyboard-response"	"38"	"164589"	"0.0-4.0-3.0-2.0-1.0"	"xvenkz"	"563"	"1199"	"chrome"	"110.0.0"	"FALSE"	"Windows 10"	"60.47"	"030"	n/a	n/a	n/a	n/a	n/a	n/a	"Trial"	n/a	n/a	n/a	"488"	"arrowright"	n/a	"NULL"	"NULL"	"NULL"	"stimuli/VerticalHorizontal_3300000_-0.9000.png"	n/a	"VerticalHorizontal"	"arrowright"	"1953"	"TRUE"	"VerticalHorizontal"	"330000000000"	"-0.900000000"	"1"	"13"
n/a	"html-keyboard-response"	"39"	"165735"	"0.0-4.0-3.0-2.0-0.1"	"xvenkz"	"563"	"1199"	"chrome"	"110.0.0"	"FALSE"	"Windows 10"	"60.47"	"030"	n/a	n/a	n/a	n/a	n/a	n/a	"fixation"	n/a	n/a	n/a	n/a	"NULL"	n/a	"NULL"	"NULL"	"NULL"	"<p style=\"color: black; font-size: 80px; padding-left: 35%; padding-right: 36%; padding-top: 11%; padding-bottom: 19%\">+</p>"	"1138"	n/a	n/a	n/a	n/a	n/a	n/a	n/a	n/a	n/a
n/a	"image-keyboard-response"	"40"	"166150"	"0.0-4.0-3.0-2.0-1.1"	"xvenkz"	"563"	"1199"	"chrome"	"110.0.0"	"FALSE"	"Windows 10"	"60.47"	"030"	n/a	n/a	n/a	n/a	n/a	n/a	"Trial"	n/a	n/a	n/a	"414"	"arrowleft"	n/a	"NULL"	"NULL"	"NULL"	"stimuli/VerticalHorizontal_3300000_0.90000.png"	n/a	"VerticalHorizontal"	"arrowleft"	"1146"	"TRUE"	"VerticalHorizontal"	"330000000000"	"0.9000000000"	"1"	"14"
n/a	"html-keyboard-response"	"41"	"167200"	"0.0-4.0-3.0-2.0-0.2"	"xvenkz"	"563"	"1199"	"chrome"	"110.0.0"	"FALSE"	"Windows 10"	"60.47"	"030"	n/a	n/a	n/a	n/a	n/a	n/a	"fixation"	n/a	n/a	n/a	n/a	"NULL"	n/a	"NULL"	"NULL"	"NULL"	"<p style=\"color: black; font-size: 80px; padding-left: 31%; padding-right: 43%; padding-top: 27%; padding-bottom: 13%\">+</p>"	"1037"	n/a	n/a	n/a	n/a	n/a	n/a	n/a	n/a	n/a
n/a	"image-keyboard-response"	"42"	"167612"	"0.0-4.0-3.0-2.0-1.2"	"xvenkz"	"563"	"1199"	"chrome"	"110.0.0"	"FALSE"	"Windows 10"	"60.47"	"030"	n/a	n/a	n/a	n/a	n/a	n/a	"Trial"	n/a	n/a	n/a	"411"	"arrowright"	n/a	"NULL"	"NULL"	"NULL"	"stimuli/VerticalHorizontal_0000000_-0.9000.png"	n/a	"VerticalHorizontal"	"arrowright"	"1050"	"TRUE"	"VerticalHorizontal"	"000000000000"	"-0.900000000"	"1"	"15"
n/a	"html-keyboard-response"	"43"	"168871"	"0.0-4.0-3.0-2.0-0.3"	"xvenkz"	"563"	"1199"	"chrome"	"110.0.0"	"FALSE"	"Windows 10"	"60.47"	"030"	n/a	n/a	n/a	n/a	n/a	n/a	"fixation"	n/a	n/a	n/a	n/a	"NULL"	n/a	"NULL"	"NULL"	"NULL"	"<p style=\"color: black; font-size: 80px; padding-left: 41%; padding-right: 39%; padding-top: 13%; padding-bottom: 31%\">+</p>"	"1244"	n/a	n/a	n/a	n/a	n/a	n/a	n/a	n/a	n/a
n/a	"image-keyboard-response"	"44"	"169261"	"0.0-4.0-3.0-2.0-1.3"	"xvenkz"	"563"	"1199"	"chrome"	"110.0.0"	"FALSE"	"Windows 10"	"60.47"	"030"	n/a	n/a	n/a	n/a	n/a	n/a	"Trial"	n/a	n/a	n/a	"389"	"arrowleft"	n/a	"NULL"	"NULL"	"NULL"	"stimuli/VerticalHorizontal_0000000_0.90000.png"	n/a	"VerticalHorizontal"	"arrowleft"	"1259"	"TRUE"	"VerticalHorizontal"	"000000000000"	"0.9000000000"	"1"	"16"
n/a	"html-keyboard-response"	"45"	"170448"	"0.0-4.0-3.0-2.0-0.4"	"xvenkz"	"563"	"1199"	"chrome"	"110.0.0"	"FALSE"	"Windows 10"	"60.47"	"030"	n/a	n/a	n/a	n/a	n/a	n/a	"fixation"	n/a	n/a	n/a	n/a	"NULL"	n/a	"NULL"	"NULL"	"NULL"	"<p style=\"color: black; font-size: 80px; padding-left: 5%; padding-right: 31%; padding-top: 10%; padding-bottom: 13%\">+</p>"	"1173"	n/a	n/a	n/a	n/a	n/a	n/a	n/a	n/a	n/a
n/a	"image-keyboard-response"	"46"	"170869"	"0.0-4.0-3.0-2.0-1.4"	"xvenkz"	"563"	"1199"	"chrome"	"110.0.0"	"FALSE"	"Windows 10"	"60.47"	"030"	n/a	n/a	n/a	n/a	n/a	n/a	"Trial"	n/a	n/a	n/a	"421"	"arrowleft"	n/a	"NULL"	"NULL"	"NULL"	"stimuli/VerticalHorizontal_-330000_0.90000.png"	n/a	"VerticalHorizontal"	"arrowleft"	"1187"	"TRUE"	"VerticalHorizontal"	"-33000000000"	"0.9000000000"	"1"	"17"
n/a	"html-keyboard-response"	"47"	"172345"	"0.0-4.0-3.0-2.0-0.5"	"xvenkz"	"563"	"1199"	"chrome"	"110.0.0"	"FALSE"	"Windows 10"	"60.47"	"030"	n/a	n/a	n/a	n/a	n/a	n/a	"fixation"	n/a	n/a	n/a	n/a	"NULL"	n/a	"NULL"	"NULL"	"NULL"	"<p style=\"color: black; font-size: 80px; padding-left: 17%; padding-right: 21%; padding-top: 20%; padding-bottom: 30%\">+</p>"	"1466"	n/a	n/a	n/a	n/a	n/a	n/a	n/a	n/a	n/a
n/a	"image-keyboard-response"	"48"	"172739"	"0.0-4.0-3.0-2.0-1.5"	"xvenkz"	"563"	"1199"	"chrome"	"110.0.0"	"FALSE"	"Windows 10"	"60.47"	"030"	n/a	n/a	n/a	n/a	n/a	n/a	"Trial"	n/a	n/a	n/a	"394"	"arrowright"	n/a	"NULL"	"NULL"	"NULL"	"stimuli/VerticalHorizontal_-330000_-0.9000.png"	n/a	"VerticalHorizontal"	"arrowright"	"1476"	"TRUE"	"VerticalHorizontal"	"-33000000000"	"-0.900000000"	"1"	"18"
n/a	"html-button-response"	"49"	"175360"	"0.0-4.0-3.0-3.0"	"xvenkz"	"563"	"1199"	"chrome"	"110.0.0"	"FALSE"	"Windows 10"	"60.47"	"030"	n/a	n/a	n/a	n/a	n/a	n/a	"practice_block_results"	n/a	n/a	n/a	"2620"	"0"	n/a	"NULL"	"NULL"	"NULL"	"<p style='color:rgb(76,175,80);'> Correct Responses: <b>100.00%</b></p><hr><p style='color:rgb(233,30,99);'> Average Response Time: <b>419.50</b> ms.</p>"	n/a	n/a	n/a	n/a	n/a	n/a	n/a	n/a	n/a	n/a
n/a	"html-button-response"	"50"	"228235"	"0.0-4.0-4.0"	"xvenkz"	"563"	"1199"	"chrome"	"110.0.0"	"FALSE"	"Windows 10"	"60.47"	"030"	n/a	n/a	n/a	n/a	n/a	n/a	"practice_debrief"	n/a	n/a	n/a	"52372"	"0"	n/a	"NULL"	"NULL"	"NULL"	"<p><b>TRAINING COMPLETED</b></p><p>In the next phase, there will be more trials, and some might be harder too.<br> Moreover, after each illusion block, a <b>score</b> will be calculated based on speed (time you took to answer) and accuracy (number of errors).</p><p>Try to keep up a high score!</p><br><p>Note that it can be <i>really</i> challenging at times, so you will need to rely on your <b>intuition</b> and gut feeling to answer as fast as you can without making errors.</p><p>Each illusion block will be repeated two times (so that you have the opportunity to improve your score), but the order of the blocks is random.</p><p>Remember, your goal is to be as <b>fast</b> and <b>accurate</b> as possible. Good luck!</p><br>"	n/a	n/a	n/a	n/a	n/a	n/a	n/a	n/a	n/a	n/a
"TRUE"	"preload"	"51"	"228425"	"0.0-5.0-0.0"	"xvenkz"	"563"	"1199"	"chrome"	"110.0.0"	"FALSE"	"Windows 10"	"60.47"	"030"	n/a	n/a	n/a	n/a	n/a	n/a	n/a	n/a	n/a	n/a	n/a	"NULL"	"FALSE"	"list()"	"list()"	"list()"	n/a	n/a	n/a	n/a	n/a	n/a	n/a	n/a	n/a	n/a	n/a
n/a	"html-keyboard-response"	"52"	"232622"	"0.0-5.0-1.0"	"xvenkz"	"563"	"1199"	"chrome"	"110.0.0"	"FALSE"	"Windows 10"	"60.47"	"030"	n/a	n/a	n/a	n/a	n/a	n/a	n/a	n/a	n/a	n/a	"4196"	"enter"	n/a	"NULL"	"NULL"	"NULL"	"<p><b>Part 1/6</b></p><p>In this part, two horizontal red lines will appear one above the other.</p><p>Your task is to select which <b>line is longer</b> in length as fast as you can, without making errors.</p><p>Don't get distracted by the surrounding black arrows at the end of the red lines!</p><p>Press <b>the UP or the DOWN arrow</b> to indicate where is the longer <b>red line.</b></p><div style='float: center'><img src='materials/instructions/MullerLyer_Demo.png' height='300'></img><p><img src='utils/answer/answer_updown_keyboard.PNG' height='150'></img></p><p class='small'>In this example, the correct answer is the <b>UP arrow</b>.</p></div><p>Are you ready? <b>Press ENTER to start</b></p>"	n/a	n/a	n/a	n/a	n/a	n/a	n/a	n/a	n/a	n/a
n/a	"html-keyboard-response"	"53"	"234344"	"0.0-5.0-2.0-0.0"	"xvenkz"	"563"	"1199"	"chrome"	"110.0.0"	"FALSE"	"Windows 10"	"60.47"	"030"	n/a	n/a	n/a	n/a	n/a	n/a	"fixation"	n/a	n/a	n/a	n/a	"NULL"	n/a	"NULL"	"NULL"	"NULL"	"<p style=\"color: black; font-size: 80px; padding-left: 44%; padding-right: 40%; padding-top: 45%; padding-bottom: 1%\">+</p>"	"1211"	n/a	n/a	n/a	n/a	n/a	n/a	n/a	n/a	n/a
n/a	"image-keyboard-response"	"54"	"234898"	"0.0-5.0-2.0-1.0"	"xvenkz"	"563"	"1199"	"chrome"	"110.0.0"	"FALSE"	"Windows 10"	"60.47"	"030"	n/a	n/a	n/a	n/a	n/a	n/a	"Trial"	n/a	n/a	n/a	"553"	"arrowdown"	n/a	"NULL"	"NULL"	"NULL"	"stimuli/MullerLyer_14.12857_0.14541.png"	n/a	"MullerLyer"	"arrowup"	"1722"	"FALSE"	"MullerLyer"	"14.128570000"	"0.1454100000"	"1"	"19"
n/a	"html-keyboard-response"	"55"	"236291"	"0.0-5.0-2.0-0.1"	"xvenkz"	"563"	"1199"	"chrome"	"110.0.0"	"FALSE"	"Windows 10"	"60.47"	"030"	n/a	n/a	n/a	n/a	n/a	n/a	"fixation"	n/a	n/a	n/a	n/a	"NULL"	n/a	"NULL"	"NULL"	"NULL"	"<p style=\"color: black; font-size: 80px; padding-left: 3%; padding-right: 30%; padding-top: 19%; padding-bottom: 24%\">+</p>"	"1392"	n/a	n/a	n/a	n/a	n/a	n/a	n/a	n/a	n/a
n/a	"image-keyboard-response"	"56"	"236906"	"0.0-5.0-2.0-1.1"	"xvenkz"	"563"	"1199"	"chrome"	"110.0.0"	"FALSE"	"Windows 10"	"60.47"	"030"	n/a	n/a	n/a	n/a	n/a	n/a	"Trial"	n/a	n/a	n/a	"615"	"arrowdown"	n/a	"NULL"	"NULL"	"NULL"	"stimuli/MullerLyer_-2.3000_-0.07627.png"	n/a	"MullerLyer"	"arrowdown"	"1393"	"TRUE"	"MullerLyer"	"-2.300000000"	"-0.076270000"	"1"	"20"
n/a	"html-keyboard-response"	"57"	"238182"	"0.0-5.0-2.0-0.2"	"xvenkz"	"563"	"1199"	"chrome"	"110.0.0"	"FALSE"	"Windows 10"	"60.47"	"030"	n/a	n/a	n/a	n/a	n/a	n/a	"fixation"	n/a	n/a	n/a	n/a	"NULL"	n/a	"NULL"	"NULL"	"NULL"	"<p style=\"color: black; font-size: 80px; padding-left: 30%; padding-right: 38%; padding-top: 12%; padding-bottom: 10%\">+</p>"	"1261"	n/a	n/a	n/a	n/a	n/a	n/a	n/a	n/a	n/a
n/a	"image-keyboard-response"	"58"	"238658"	"0.0-5.0-2.0-1.2"	"xvenkz"	"563"	"1199"	"chrome"	"110.0.0"	"FALSE"	"Windows 10"	"60.47"	"030"	n/a	n/a	n/a	n/a	n/a	n/a	"Trial"	n/a	n/a	n/a	"475"	"arrowup"	n/a	"NULL"	"NULL"	"NULL"	"stimuli/MullerLyer_2.30000_0.35000.png"	n/a	"MullerLyer"	"arrowup"	"1276"	"TRUE"	"MullerLyer"	"2.3000000000"	"0.3500000000"	"1"	"21"
n/a	"html-keyboard-response"	"59"	"240025"	"0.0-5.0-2.0-0.3"	"xvenkz"	"563"	"1199"	"chrome"	"110.0.0"	"FALSE"	"Windows 10"	"60.47"	"030"	n/a	n/a	n/a	n/a	n/a	n/a	"fixation"	n/a	n/a	n/a	n/a	"NULL"	n/a	"NULL"	"NULL"	"NULL"	"<p style=\"color: black; font-size: 80px; padding-left: 13%; padding-right: 6%; padding-top: 7%; padding-bottom: 22%\">+</p>"	"1359"	n/a	n/a	n/a	n/a	n/a	n/a	n/a	n/a	n/a
n/a	"image-keyboard-response"	"60"	"240607"	"0.0-5.0-2.0-1.3"	"xvenkz"	"563"	"1199"	"chrome"	"110.0.0"	"FALSE"	"Windows 10"	"60.47"	"030"	n/a	n/a	n/a	n/a	n/a	n/a	"Trial"	n/a	n/a	n/a	"581"	"arrowup"	n/a	"NULL"	"NULL"	"NULL"	"stimuli/MullerLyer_8.21429_0.23665.png"	n/a	"MullerLyer"	"arrowup"	"1367"	"TRUE"	"MullerLyer"	"8.2142900000"	"0.2366500000"	"1"	"22"
n/a	"html-keyboard-response"	"61"	"242082"	"0.0-5.0-2.0-0.4"	"xvenkz"	"563"	"1199"	"chrome"	"110.0.0"	"FALSE"	"Windows 10"	"60.47"	"030"	n/a	n/a	n/a	n/a	n/a	n/a	"fixation"	n/a	n/a	n/a	n/a	"NULL"	n/a	"NULL"	"NULL"	"NULL"	"<p style=\"color: black; font-size: 80px; padding-left: 34%; padding-right: 24%; padding-top: 15%; padding-bottom: 43%\">+</p>"	"1466"	n/a	n/a	n/a	n/a	n/a	n/a	n/a	n/a	n/a
n/a	"image-keyboard-response"	"62"	"242551"	"0.0-5.0-2.0-1.4"	"xvenkz"	"563"	"1199"	"chrome"	"110.0.0"	"FALSE"	"Windows 10"	"60.47"	"030"	n/a	n/a	n/a	n/a	n/a	n/a	"Trial"	n/a	n/a	n/a	"469"	"arrowdown"	n/a	"NULL"	"NULL"	"NULL"	"stimuli/MullerLyer_-14.12857_-0.3500.png"	n/a	"MullerLyer"	"arrowdown"	"1475"	"TRUE"	"MullerLyer"	"-14.12857000"	"-0.350000000"	"1"	"23"
n/a	"html-keyboard-response"	"63"	"243956"	"0.0-5.0-2.0-0.5"	"xvenkz"	"563"	"1199"	"chrome"	"110.0.0"	"FALSE"	"Windows 10"	"60.47"	"030"	n/a	n/a	n/a	n/a	n/a	n/a	"fixation"	n/a	n/a	n/a	n/a	"NULL"	n/a	"NULL"	"NULL"	"NULL"	"<p style=\"color: black; font-size: 80px; padding-left: 41%; padding-right: 45%; padding-top: 42%; padding-bottom: 16%\">+</p>"	"1393"	n/a	n/a	n/a	n/a	n/a	n/a	n/a	n/a	n/a
n/a	"image-keyboard-response"	"64"	"244411"	"0.0-5.0-2.0-1.5"	"xvenkz"	"563"	"1199"	"chrome"	"110.0.0"	"FALSE"	"Windows 10"	"60.47"	"030"	n/a	n/a	n/a	n/a	n/a	n/a	"Trial"	n/a	n/a	n/a	"454"	"arrowup"	n/a	"NULL"	"NULL"	"NULL"	"stimuli/MullerLyer_8.21429_0.35000.png"	n/a	"MullerLyer"	"arrowup"	"1405"	"TRUE"	"MullerLyer"	"8.2142900000"	"0.3500000000"	"1"	"24"
n/a	"html-keyboard-response"	"65"	"245657"	"0.0-5.0-2.0-0.6"	"xvenkz"	"563"	"1199"	"chrome"	"110.0.0"	"FALSE"	"Windows 10"	"60.47"	"030"	n/a	n/a	n/a	n/a	n/a	n/a	"fixation"	n/a	n/a	n/a	n/a	"NULL"	n/a	"NULL"	"NULL"	"NULL"	"<p style=\"color: black; font-size: 80px; padding-left: 11%; padding-right: 32%; padding-top: 11%; padding-bottom: 38%\">+</p>"	"1231"	n/a	n/a	n/a	n/a	n/a	n/a	n/a	n/a	n/a
n/a	"image-keyboard-response"	"66"	"246221"	"0.0-5.0-2.0-1.6"	"xvenkz"	"563"	"1199"	"chrome"	"110.0.0"	"FALSE"	"Windows 10"	"60.47"	"030"	n/a	n/a	n/a	n/a	n/a	n/a	"Trial"	n/a	n/a	n/a	"563"	"arrowup"	n/a	"NULL"	"NULL"	"NULL"	"stimuli/MullerLyer_20.04286_-0.3500.png"	n/a	"MullerLyer"	"arrowdown"	"1246"	"FALSE"	"MullerLyer"	"20.042860000"	"-0.350000000"	"1"	"25"
n/a	"html-keyboard-response"	"67"	"247370"	"0.0-5.0-2.0-0.7"	"xvenkz"	"563"	"1199"	"chrome"	"110.0.0"	"FALSE"	"Windows 10"	"60.47"	"030"	n/a	n/a	n/a	n/a	n/a	n/a	"fixation"	n/a	n/a	n/a	n/a	"NULL"	n/a	"NULL"	"NULL"	"NULL"	"<p style=\"color: black; font-size: 80px; padding-left: 36%; padding-right: 50%; padding-top: 17%; padding-bottom: 23%\">+</p>"	"1141"	n/a	n/a	n/a	n/a	n/a	n/a	n/a	n/a	n/a
n/a	"image-keyboard-response"	"68"	"247888"	"0.0-5.0-2.0-1.7"	"xvenkz"	"563"	"1199"	"chrome"	"110.0.0"	"FALSE"	"Windows 10"	"60.47"	"030"	n/a	n/a	n/a	n/a	n/a	n/a	"Trial"	n/a	n/a	n/a	"517"	"arrowdown"	n/a	"NULL"	"NULL"	"NULL"	"stimuli/MullerLyer_2.30000_-0.3500.png"	n/a	"MullerLyer"	"arrowdown"	"1149"	"TRUE"	"MullerLyer"	"2.3000000000"	"-0.350000000"	"1"	"26"
n/a	"html-keyboard-response"	"69"	"249248"	"0.0-5.0-2.0-0.8"	"xvenkz"	"563"	"1199"	"chrome"	"110.0.0"	"FALSE"	"Windows 10"	"60.47"	"030"	n/a	n/a	n/a	n/a	n/a	n/a	"fixation"	n/a	n/a	n/a	n/a	"NULL"	n/a	"NULL"	"NULL"	"NULL"	"<p style=\"color: black; font-size: 80px; padding-left: 12%; padding-right: 10%; padding-top: 4%; padding-bottom: 36%\">+</p>"	"1346"	n/a	n/a	n/a	n/a	n/a	n/a	n/a	n/a	n/a
n/a	"image-keyboard-response"	"70"	"249845"	"0.0-5.0-2.0-1.8"	"xvenkz"	"563"	"1199"	"chrome"	"110.0.0"	"FALSE"	"Windows 10"	"60.47"	"030"	n/a	n/a	n/a	n/a	n/a	n/a	"Trial"	n/a	n/a	n/a	"596"	"arrowup"	n/a	"NULL"	"NULL"	"NULL"	"stimuli/MullerLyer_8.21429_-0.23665.png"	n/a	"MullerLyer"	"arrowdown"	"1360"	"FALSE"	"MullerLyer"	"8.2142900000"	"-0.236650000"	"1"	"27"
n/a	"html-keyboard-response"	"71"	"250985"	"0.0-5.0-2.0-0.9"	"xvenkz"	"563"	"1199"	"chrome"	"110.0.0"	"FALSE"	"Windows 10"	"60.47"	"030"	n/a	n/a	n/a	n/a	n/a	n/a	"fixation"	n/a	n/a	n/a	n/a	"NULL"	n/a	"NULL"	"NULL"	"NULL"	"<p style=\"color: black; font-size: 80px; padding-left: 14%; padding-right: 16%; padding-top: 23%; padding-bottom: 20%\">+</p>"	"1127"	n/a	n/a	n/a	n/a	n/a	n/a	n/a	n/a	n/a
n/a	"image-keyboard-response"	"72"	"251641"	"0.0-5.0-2.0-1.9"	"xvenkz"	"563"	"1199"	"chrome"	"110.0.0"	"FALSE"	"Windows 10"	"60.47"	"030"	n/a	n/a	n/a	n/a	n/a	n/a	"Trial"	n/a	n/a	n/a	"655"	"arrowup"	n/a	"NULL"	"NULL"	"NULL"	"stimuli/MullerLyer_8.21429_0.14541.png"	n/a	"MullerLyer"	"arrowup"	"1140"	"TRUE"	"MullerLyer"	"8.2142900000"	"0.1454100000"	"1"	"28"
n/a	"html-keyboard-response"	"73"	"253115"	"0.0-5.0-2.0-0.10"	"xvenkz"	"563"	"1199"	"chrome"	"110.0.0"	"FALSE"	"Windows 10"	"60.47"	"030"	n/a	n/a	n/a	n/a	n/a	n/a	"fixation"	n/a	n/a	n/a	n/a	"NULL"	n/a	"NULL"	"NULL"	"NULL"	"<p style=\"color: black; font-size: 80px; padding-left: 10%; padding-right: 16%; padding-top: 29%; padding-bottom: 38%\">+</p>"	"1460"	n/a	n/a	n/a	n/a	n/a	n/a	n/a	n/a	n/a
n/a	"image-keyboard-response"	"74"	"253636"	"0.0-5.0-2.0-1.10"	"xvenkz"	"563"	"1199"	"chrome"	"110.0.0"	"FALSE"	"Windows 10"	"60.47"	"030"	n/a	n/a	n/a	n/a	n/a	n/a	"Trial"	n/a	n/a	n/a	"521"	"arrowdown"	n/a	"NULL"	"NULL"	"NULL"	"stimuli/MullerLyer_-2.3000_-0.3500.png"	n/a	"MullerLyer"	"arrowdown"	"1474"	"TRUE"	"MullerLyer"	"-2.300000000"	"-0.350000000"	"1"	"29"
n/a	"html-keyboard-response"	"75"	"254999"	"0.0-5.0-2.0-0.11"	"xvenkz"	"563"	"1199"	"chrome"	"110.0.0"	"FALSE"	"Windows 10"	"60.47"	"030"	n/a	n/a	n/a	n/a	n/a	n/a	"fixation"	n/a	n/a	n/a	n/a	"NULL"	n/a	"NULL"	"NULL"	"NULL"	"<p style=\"color: black; font-size: 80px; padding-left: 9%; padding-right: 7%; padding-top: 3%; padding-bottom: 7%\">+</p>"	"1346"	n/a	n/a	n/a	n/a	n/a	n/a	n/a	n/a	n/a
n/a	"image-keyboard-response"	"76"	"255556"	"0.0-5.0-2.0-1.11"	"xvenkz"	"563"	"1199"	"chrome"	"110.0.0"	"FALSE"	"Windows 10"	"60.47"	"030"	n/a	n/a	n/a	n/a	n/a	n/a	"Trial"	n/a	n/a	n/a	"556"	"arrowdown"	n/a	"NULL"	"NULL"	"NULL"	"stimuli/MullerLyer_8.21429_0.07627.png"	n/a	"MullerLyer"	"arrowup"	"1363"	"FALSE"	"MullerLyer"	"8.2142900000"	"0.0762700000"	"1"	"30"
n/a	"html-keyboard-response"	"77"	"256760"	"0.0-5.0-2.0-0.12"	"xvenkz"	"563"	"1199"	"chrome"	"110.0.0"	"FALSE"	"Windows 10"	"60.47"	"030"	n/a	n/a	n/a	n/a	n/a	n/a	"fixation"	n/a	n/a	n/a	n/a	"NULL"	n/a	"NULL"	"NULL"	"NULL"	"<p style=\"color: black; font-size: 80px; padding-left: 41%; padding-right: 29%; padding-top: 7%; padding-bottom: 31%\">+</p>"	"1203"	n/a	n/a	n/a	n/a	n/a	n/a	n/a	n/a	n/a
n/a	"image-keyboard-response"	"78"	"257243"	"0.0-5.0-2.0-1.12"	"xvenkz"	"563"	"1199"	"chrome"	"110.0.0"	"FALSE"	"Windows 10"	"60.47"	"030"	n/a	n/a	n/a	n/a	n/a	n/a	"Trial"	n/a	n/a	n/a	"483"	"arrowup"	n/a	"NULL"	"NULL"	"NULL"	"stimuli/MullerLyer_-14.12857_0.14541.png"	n/a	"MullerLyer"	"arrowup"	"1204"	"TRUE"	"MullerLyer"	"-14.12857000"	"0.1454100000"	"1"	"31"
n/a	"html-keyboard-response"	"79"	"258697"	"0.0-5.0-2.0-0.13"	"xvenkz"	"563"	"1199"	"chrome"	"110.0.0"	"FALSE"	"Windows 10"	"60.47"	"030"	n/a	n/a	n/a	n/a	n/a	n/a	"fixation"	n/a	n/a	n/a	n/a	"NULL"	n/a	"NULL"	"NULL"	"NULL"	"<p style=\"color: black; font-size: 80px; padding-left: 0%; padding-right: 15%; padding-top: 29%; padding-bottom: 0%\">+</p>"	"1441"	n/a	n/a	n/a	n/a	n/a	n/a	n/a	n/a	n/a
n/a	"image-keyboard-response"	"80"	"259322"	"0.0-5.0-2.0-1.13"	"xvenkz"	"563"	"1199"	"chrome"	"110.0.0"	"FALSE"	"Windows 10"	"60.47"	"030"	n/a	n/a	n/a	n/a	n/a	n/a	"Trial"	n/a	n/a	n/a	"624"	"arrowup"	n/a	"NULL"	"NULL"	"NULL"	"stimuli/MullerLyer_14.12857_0.35000.png"	n/a	"MullerLyer"	"arrowup"	"1454"	"TRUE"	"MullerLyer"	"14.128570000"	"0.3500000000"	"1"	"32"
n/a	"html-keyboard-response"	"81"	"260667"	"0.0-5.0-2.0-0.14"	"xvenkz"	"563"	"1199"	"chrome"	"110.0.0"	"FALSE"	"Windows 10"	"60.47"	"030"	n/a	n/a	n/a	n/a	n/a	n/a	"fixation"	n/a	n/a	n/a	n/a	"NULL"	n/a	"NULL"	"NULL"	"NULL"	"<p style=\"color: black; font-size: 80px; padding-left: 21%; padding-right: 16%; padding-top: 8%; padding-bottom: 24%\">+</p>"	"1341"	n/a	n/a	n/a	n/a	n/a	n/a	n/a	n/a	n/a
n/a	"image-keyboard-response"	"82"	"261205"	"0.0-5.0-2.0-1.14"	"xvenkz"	"563"	"1199"	"chrome"	"110.0.0"	"FALSE"	"Windows 10"	"60.47"	"030"	n/a	n/a	n/a	n/a	n/a	n/a	"Trial"	n/a	n/a	n/a	"537"	"arrowdown"	n/a	"NULL"	"NULL"	"NULL"	"stimuli/MullerLyer_-8.21429_-0.14541.png"	n/a	"MullerLyer"	"arrowdown"	"1345"	"TRUE"	"MullerLyer"	"-8.214290000"	"-0.145410000"	"1"	"33"
n/a	"html-keyboard-response"	"83"	"262272"	"0.0-5.0-2.0-0.15"	"xvenkz"	"563"	"1199"	"chrome"	"110.0.0"	"FALSE"	"Windows 10"	"60.47"	"030"	n/a	n/a	n/a	n/a	n/a	n/a	"fixation"	n/a	n/a	n/a	n/a	"NULL"	n/a	"NULL"	"NULL"	"NULL"	"<p style=\"color: black; font-size: 80px; padding-left: 16%; padding-right: 29%; padding-top: 21%; padding-bottom: 39%\">+</p>"	"1064"	n/a	n/a	n/a	n/a	n/a	n/a	n/a	n/a	n/a
n/a	"image-keyboard-response"	"84"	"262753"	"0.0-5.0-2.0-1.15"	"xvenkz"	"563"	"1199"	"chrome"	"110.0.0"	"FALSE"	"Windows 10"	"60.47"	"030"	n/a	n/a	n/a	n/a	n/a	n/a	"Trial"	n/a	n/a	n/a	"480"	"arrowup"	n/a	"NULL"	"NULL"	"NULL"	"stimuli/MullerLyer_-20.04286_0.23665.png"	n/a	"MullerLyer"	"arrowup"	"1067"	"TRUE"	"MullerLyer"	"-20.04286000"	"0.2366500000"	"1"	"34"
n/a	"html-keyboard-response"	"85"	"263903"	"0.0-5.0-2.0-0.16"	"xvenkz"	"563"	"1199"	"chrome"	"110.0.0"	"FALSE"	"Windows 10"	"60.47"	"030"	n/a	n/a	n/a	n/a	n/a	n/a	"fixation"	n/a	n/a	n/a	n/a	"NULL"	n/a	"NULL"	"NULL"	"NULL"	"<p style=\"color: black; font-size: 80px; padding-left: 31%; padding-right: 40%; padding-top: 49%; padding-bottom: 18%\">+</p>"	"1142"	n/a	n/a	n/a	n/a	n/a	n/a	n/a	n/a	n/a
n/a	"image-keyboard-response"	"86"	"264536"	"0.0-5.0-2.0-1.16"	"xvenkz"	"563"	"1199"	"chrome"	"110.0.0"	"FALSE"	"Windows 10"	"60.47"	"030"	n/a	n/a	n/a	n/a	n/a	n/a	"Trial"	n/a	n/a	n/a	"633"	"arrowdown"	n/a	"NULL"	"NULL"	"NULL"	"stimuli/MullerLyer_14.12857_-0.3500.png"	n/a	"MullerLyer"	"arrowdown"	"1150"	"TRUE"	"MullerLyer"	"14.128570000"	"-0.350000000"	"1"	"35"
n/a	"html-keyboard-response"	"87"	"266028"	"0.0-5.0-2.0-0.17"	"xvenkz"	"563"	"1199"	"chrome"	"110.0.0"	"FALSE"	"Windows 10"	"60.47"	"030"	n/a	n/a	n/a	n/a	n/a	n/a	"fixation"	n/a	n/a	n/a	n/a	"NULL"	n/a	"NULL"	"NULL"	"NULL"	"<p style=\"color: black; font-size: 80px; padding-left: 13%; padding-right: 35%; padding-top: 9%; padding-bottom: 23%\">+</p>"	"1476"	n/a	n/a	n/a	n/a	n/a	n/a	n/a	n/a	n/a
n/a	"image-keyboard-response"	"88"	"266627"	"0.0-5.0-2.0-1.17"	"xvenkz"	"563"	"1199"	"chrome"	"110.0.0"	"FALSE"	"Windows 10"	"60.47"	"030"	n/a	n/a	n/a	n/a	n/a	n/a	"Trial"	n/a	n/a	n/a	"598"	"arrowdown"	n/a	"NULL"	"NULL"	"NULL"	"stimuli/MullerLyer_-14.12857_-0.23665.png"	n/a	"MullerLyer"	"arrowdown"	"1492"	"TRUE"	"MullerLyer"	"-14.12857000"	"-0.236650000"	"1"	"36"
n/a	"html-keyboard-response"	"89"	"268029"	"0.0-5.0-2.0-0.18"	"xvenkz"	"563"	"1199"	"chrome"	"110.0.0"	"FALSE"	"Windows 10"	"60.47"	"030"	n/a	n/a	n/a	n/a	n/a	n/a	"fixation"	n/a	n/a	n/a	n/a	"NULL"	n/a	"NULL"	"NULL"	"NULL"	"<p style=\"color: black; font-size: 80px; padding-left: 42%; padding-right: 41%; padding-top: 38%; padding-bottom: 20%\">+</p>"	"1396"	n/a	n/a	n/a	n/a	n/a	n/a	n/a	n/a	n/a
n/a	"image-keyboard-response"	"90"	"268557"	"0.0-5.0-2.0-1.18"	"xvenkz"	"563"	"1199"	"chrome"	"110.0.0"	"FALSE"	"Windows 10"	"60.47"	"030"	n/a	n/a	n/a	n/a	n/a	n/a	"Trial"	n/a	n/a	n/a	"527"	"arrowdown"	n/a	"NULL"	"NULL"	"NULL"	"stimuli/MullerLyer_20.04286_0.07627.png"	n/a	"MullerLyer"	"arrowup"	"1402"	"FALSE"	"MullerLyer"	"20.042860000"	"0.0762700000"	"1"	"37"
n/a	"html-keyboard-response"	"91"	"269823"	"0.0-5.0-2.0-0.19"	"xvenkz"	"563"	"1199"	"chrome"	"110.0.0"	"FALSE"	"Windows 10"	"60.47"	"030"	n/a	n/a	n/a	n/a	n/a	n/a	"fixation"	n/a	n/a	n/a	n/a	"NULL"	n/a	"NULL"	"NULL"	"NULL"	"<p style=\"color: black; font-size: 80px; padding-left: 29%; padding-right: 11%; padding-top: 34%; padding-bottom: 7%\">+</p>"	"1258"	n/a	n/a	n/a	n/a	n/a	n/a	n/a	n/a	n/a
n/a	"image-keyboard-response"	"92"	"270269"	"0.0-5.0-2.0-1.19"	"xvenkz"	"563"	"1199"	"chrome"	"110.0.0"	"FALSE"	"Windows 10"	"60.47"	"030"	n/a	n/a	n/a	n/a	n/a	n/a	"Trial"	n/a	n/a	n/a	"446"	"arrowup"	n/a	"NULL"	"NULL"	"NULL"	"stimuli/MullerLyer_-2.3000_0.14541.png"	n/a	"MullerLyer"	"arrowup"	"1266"	"TRUE"	"MullerLyer"	"-2.300000000"	"0.1454100000"	"1"	"38"
n/a	"html-keyboard-response"	"93"	"271475"	"0.0-5.0-2.0-0.20"	"xvenkz"	"563"	"1199"	"chrome"	"110.0.0"	"FALSE"	"Windows 10"	"60.47"	"030"	n/a	n/a	n/a	n/a	n/a	n/a	"fixation"	n/a	n/a	n/a	n/a	"NULL"	n/a	"NULL"	"NULL"	"NULL"	"<p style=\"color: black; font-size: 80px; padding-left: 17%; padding-right: 48%; padding-top: 19%; padding-bottom: 24%\">+</p>"	"1194"	n/a	n/a	n/a	n/a	n/a	n/a	n/a	n/a	n/a
n/a	"image-keyboard-response"	"94"	"271998"	"0.0-5.0-2.0-1.20"	"xvenkz"	"563"	"1199"	"chrome"	"110.0.0"	"FALSE"	"Windows 10"	"60.47"	"030"	n/a	n/a	n/a	n/a	n/a	n/a	"Trial"	n/a	n/a	n/a	"523"	"arrowdown"	n/a	"NULL"	"NULL"	"NULL"	"stimuli/MullerLyer_14.12857_0.07627.png"	n/a	"MullerLyer"	"arrowup"	"1206"	"FALSE"	"MullerLyer"	"14.128570000"	"0.0762700000"	"1"	"39"
n/a	"html-keyboard-response"	"95"	"273146"	"0.0-5.0-2.0-0.21"	"xvenkz"	"563"	"1199"	"chrome"	"110.0.0"	"FALSE"	"Windows 10"	"60.47"	"030"	n/a	n/a	n/a	n/a	n/a	n/a	"fixation"	n/a	n/a	n/a	n/a	"NULL"	n/a	"NULL"	"NULL"	"NULL"	"<p style=\"color: black; font-size: 80px; padding-left: 42%; padding-right: 25%; padding-top: 33%; padding-bottom: 17%\">+</p>"	"1141"	n/a	n/a	n/a	n/a	n/a	n/a	n/a	n/a	n/a
n/a	"image-keyboard-response"	"96"	"273640"	"0.0-5.0-2.0-1.21"	"xvenkz"	"563"	"1199"	"chrome"	"110.0.0"	"FALSE"	"Windows 10"	"60.47"	"030"	n/a	n/a	n/a	n/a	n/a	n/a	"Trial"	n/a	n/a	n/a	"493"	"arrowup"	n/a	"NULL"	"NULL"	"NULL"	"stimuli/MullerLyer_8.21429_-0.07627.png"	n/a	"MullerLyer"	"arrowdown"	"1148"	"FALSE"	"MullerLyer"	"8.2142900000"	"-0.076270000"	"1"	"40"
n/a	"html-keyboard-response"	"97"	"274724"	"0.0-5.0-2.0-0.22"	"xvenkz"	"563"	"1199"	"chrome"	"110.0.0"	"FALSE"	"Windows 10"	"60.47"	"030"	n/a	n/a	n/a	n/a	n/a	n/a	"fixation"	n/a	n/a	n/a	n/a	"NULL"	n/a	"NULL"	"NULL"	"NULL"	"<p style=\"color: black; font-size: 80px; padding-left: 13%; padding-right: 6%; padding-top: 5%; padding-bottom: 9%\">+</p>"	"1080"	n/a	n/a	n/a	n/a	n/a	n/a	n/a	n/a	n/a
n/a	"image-keyboard-response"	"98"	"275349"	"0.0-5.0-2.0-1.22"	"xvenkz"	"563"	"1199"	"chrome"	"110.0.0"	"FALSE"	"Windows 10"	"60.47"	"030"	n/a	n/a	n/a	n/a	n/a	n/a	"Trial"	n/a	n/a	n/a	"624"	"arrowdown"	n/a	"NULL"	"NULL"	"NULL"	"stimuli/MullerLyer_2.30000_-0.14541.png"	n/a	"MullerLyer"	"arrowdown"	"1084"	"TRUE"	"MullerLyer"	"2.3000000000"	"-0.145410000"	"1"	"41"
n/a	"html-keyboard-response"	"99"	"276381"	"0.0-5.0-2.0-0.23"	"xvenkz"	"563"	"1199"	"chrome"	"110.0.0"	"FALSE"	"Windows 10"	"60.47"	"030"	n/a	n/a	n/a	n/a	n/a	n/a	"fixation"	n/a	n/a	n/a	n/a	"NULL"	n/a	"NULL"	"NULL"	"NULL"	"<p style=\"color: black; font-size: 80px; padding-left: 38%; padding-right: 13%; padding-top: 5%; padding-bottom: 19%\">+</p>"	"1023"	n/a	n/a	n/a	n/a	n/a	n/a	n/a	n/a	n/a
n/a	"image-keyboard-response"	"100"	"277309"	"0.0-5.0-2.0-1.23"	"xvenkz"	"563"	"1199"	"chrome"	"110.0.0"	"FALSE"	"Windows 10"	"60.47"	"030"	n/a	n/a	n/a	n/a	n/a	n/a	"Trial"	n/a	n/a	n/a	"928"	"arrowdown"	n/a	"NULL"	"NULL"	"NULL"	"stimuli/MullerLyer_20.04286_0.23665.png"	n/a	"MullerLyer"	"arrowup"	"1032"	"FALSE"	"MullerLyer"	"20.042860000"	"0.2366500000"	"1"	"42"
n/a	"html-keyboard-response"	"101"	"278814"	"0.0-5.0-2.0-0.24"	"xvenkz"	"563"	"1199"	"chrome"	"110.0.0"	"FALSE"	"Windows 10"	"60.47"	"030"	n/a	n/a	n/a	n/a	n/a	n/a	"fixation"	n/a	n/a	n/a	n/a	"NULL"	n/a	"NULL"	"NULL"	"NULL"	"<p style=\"color: black; font-size: 80px; padding-left: 5%; padding-right: 49%; padding-top: 18%; padding-bottom: 21%\">+</p>"	"1499"	n/a	n/a	n/a	n/a	n/a	n/a	n/a	n/a	n/a
n/a	"image-keyboard-response"	"102"	"279336"	"0.0-5.0-2.0-1.24"	"xvenkz"	"563"	"1199"	"chrome"	"110.0.0"	"FALSE"	"Windows 10"	"60.47"	"030"	n/a	n/a	n/a	n/a	n/a	n/a	"Trial"	n/a	n/a	n/a	"522"	"arrowup"	n/a	"NULL"	"NULL"	"NULL"	"stimuli/MullerLyer_14.12857_-0.14541.png"	n/a	"MullerLyer"	"arrowdown"	"1505"	"FALSE"	"MullerLyer"	"14.128570000"	"-0.145410000"	"1"	"43"
n/a	"html-keyboard-response"	"103"	"280368"	"0.0-5.0-2.0-0.25"	"xvenkz"	"563"	"1199"	"chrome"	"110.0.0"	"FALSE"	"Windows 10"	"60.47"	"030"	n/a	n/a	n/a	n/a	n/a	n/a	"fixation"	n/a	n/a	n/a	n/a	"NULL"	n/a	"NULL"	"NULL"	"NULL"	"<p style=\"color: black; font-size: 80px; padding-left: 25%; padding-right: 16%; padding-top: 14%; padding-bottom: 40%\">+</p>"	"1024"	n/a	n/a	n/a	n/a	n/a	n/a	n/a	n/a	n/a
n/a	"image-keyboard-response"	"104"	"280945"	"0.0-5.0-2.0-1.25"	"xvenkz"	"563"	"1199"	"chrome"	"110.0.0"	"FALSE"	"Windows 10"	"60.47"	"030"	n/a	n/a	n/a	n/a	n/a	n/a	"Trial"	n/a	n/a	n/a	"576"	"arrowdown"	n/a	"NULL"	"NULL"	"NULL"	"stimuli/MullerLyer_2.30000_-0.07627.png"	n/a	"MullerLyer"	"arrowdown"	"1032"	"TRUE"	"MullerLyer"	"2.3000000000"	"-0.076270000"	"1"	"44"
n/a	"html-keyboard-response"	"105"	"281963"	"0.0-5.0-2.0-0.26"	"xvenkz"	"563"	"1199"	"chrome"	"110.0.0"	"FALSE"	"Windows 10"	"60.47"	"030"	n/a	n/a	n/a	n/a	n/a	n/a	"fixation"	n/a	n/a	n/a	n/a	"NULL"	n/a	"NULL"	"NULL"	"NULL"	"<p style=\"color: black; font-size: 80px; padding-left: 31%; padding-right: 45%; padding-top: 21%; padding-bottom: 2%\">+</p>"	"1009"	n/a	n/a	n/a	n/a	n/a	n/a	n/a	n/a	n/a
n/a	"image-keyboard-response"	"106"	"282569"	"0.0-5.0-2.0-1.26"	"xvenkz"	"563"	"1199"	"chrome"	"110.0.0"	"FALSE"	"Windows 10"	"60.47"	"030"	n/a	n/a	n/a	n/a	n/a	n/a	"Trial"	n/a	n/a	n/a	"605"	"arrowdown"	n/a	"NULL"	"NULL"	"NULL"	"stimuli/MullerLyer_-8.21429_-0.23665.png"	n/a	"MullerLyer"	"arrowdown"	"1018"	"TRUE"	"MullerLyer"	"-8.214290000"	"-0.236650000"	"1"	"45"
n/a	"html-keyboard-response"	"107"	"283613"	"0.0-5.0-2.0-0.27"	"xvenkz"	"563"	"1199"	"chrome"	"110.0.0"	"FALSE"	"Windows 10"	"60.47"	"030"	n/a	n/a	n/a	n/a	n/a	n/a	"fixation"	n/a	n/a	n/a	n/a	"NULL"	n/a	"NULL"	"NULL"	"NULL"	"<p style=\"color: black; font-size: 80px; padding-left: 24%; padding-right: 13%; padding-top: 38%; padding-bottom: 0%\">+</p>"	"1031"	n/a	n/a	n/a	n/a	n/a	n/a	n/a	n/a	n/a
n/a	"image-keyboard-response"	"108"	"284121"	"0.0-5.0-2.0-1.27"	"xvenkz"	"563"	"1199"	"chrome"	"110.0.0"	"FALSE"	"Windows 10"	"60.47"	"030"	n/a	n/a	n/a	n/a	n/a	n/a	"Trial"	n/a	n/a	n/a	"507"	"arrowup"	n/a	"NULL"	"NULL"	"NULL"	"stimuli/MullerLyer_20.04286_-0.23665.png"	n/a	"MullerLyer"	"arrowdown"	"1044"	"FALSE"	"MullerLyer"	"20.042860000"	"-0.236650000"	"1"	"46"
n/a	"html-keyboard-response"	"109"	"285604"	"0.0-5.0-2.0-0.28"	"xvenkz"	"563"	"1199"	"chrome"	"110.0.0"	"FALSE"	"Windows 10"	"60.47"	"030"	n/a	n/a	n/a	n/a	n/a	n/a	"fixation"	n/a	n/a	n/a	n/a	"NULL"	n/a	"NULL"	"NULL"	"NULL"	"<p style=\"color: black; font-size: 80px; padding-left: 31%; padding-right: 16%; padding-top: 1%; padding-bottom: 10%\">+</p>"	"1472"	n/a	n/a	n/a	n/a	n/a	n/a	n/a	n/a	n/a
n/a	"image-keyboard-response"	"110"	"286223"	"0.0-5.0-2.0-1.28"	"xvenkz"	"563"	"1199"	"chrome"	"110.0.0"	"FALSE"	"Windows 10"	"60.47"	"030"	n/a	n/a	n/a	n/a	n/a	n/a	"Trial"	n/a	n/a	n/a	"618"	"arrowup"	n/a	"NULL"	"NULL"	"NULL"	"stimuli/MullerLyer_-8.21429_0.35000.png"	n/a	"MullerLyer"	"arrowup"	"1483"	"TRUE"	"MullerLyer"	"-8.214290000"	"0.3500000000"	"1"	"47"
n/a	"html-keyboard-response"	"111"	"287293"	"0.0-5.0-2.0-0.29"	"xvenkz"	"563"	"1199"	"chrome"	"110.0.0"	"FALSE"	"Windows 10"	"60.47"	"030"	n/a	n/a	n/a	n/a	n/a	n/a	"fixation"	n/a	n/a	n/a	n/a	"NULL"	n/a	"NULL"	"NULL"	"NULL"	"<p style=\"color: black; font-size: 80px; padding-left: 1%; padding-right: 18%; padding-top: 43%; padding-bottom: 33%\">+</p>"	"1065"	n/a	n/a	n/a	n/a	n/a	n/a	n/a	n/a	n/a
n/a	"image-keyboard-response"	"112"	"287781"	"0.0-5.0-2.0-1.29"	"xvenkz"	"563"	"1199"	"chrome"	"110.0.0"	"FALSE"	"Windows 10"	"60.47"	"030"	n/a	n/a	n/a	n/a	n/a	n/a	"Trial"	n/a	n/a	n/a	"487"	"arrowdown"	n/a	"NULL"	"NULL"	"NULL"	"stimuli/MullerLyer_-20.04286_-0.14541.png"	n/a	"MullerLyer"	"arrowdown"	"1070"	"TRUE"	"MullerLyer"	"-20.04286000"	"-0.145410000"	"1"	"48"
n/a	"html-keyboard-response"	"113"	"289229"	"0.0-5.0-2.0-0.30"	"xvenkz"	"563"	"1199"	"chrome"	"110.0.0"	"FALSE"	"Windows 10"	"60.47"	"030"	n/a	n/a	n/a	n/a	n/a	n/a	"fixation"	n/a	n/a	n/a	n/a	"NULL"	n/a	"NULL"	"NULL"	"NULL"	"<p style=\"color: black; font-size: 80px; padding-left: 28%; padding-right: 0%; padding-top: 1%; padding-bottom: 20%\">+</p>"	"1441"	n/a	n/a	n/a	n/a	n/a	n/a	n/a	n/a	n/a
n/a	"image-keyboard-response"	"114"	"289771"	"0.0-5.0-2.0-1.30"	"xvenkz"	"563"	"1199"	"chrome"	"110.0.0"	"FALSE"	"Windows 10"	"60.47"	"030"	n/a	n/a	n/a	n/a	n/a	n/a	"Trial"	n/a	n/a	n/a	"540"	"arrowdown"	n/a	"NULL"	"NULL"	"NULL"	"stimuli/MullerLyer_2.30000_-0.23665.png"	n/a	"MullerLyer"	"arrowdown"	"1448"	"TRUE"	"MullerLyer"	"2.3000000000"	"-0.236650000"	"1"	"49"
n/a	"html-keyboard-response"	"115"	"291088"	"0.0-5.0-2.0-0.31"	"xvenkz"	"563"	"1199"	"chrome"	"110.0.0"	"FALSE"	"Windows 10"	"60.47"	"030"	n/a	n/a	n/a	n/a	n/a	n/a	"fixation"	n/a	n/a	n/a	n/a	"NULL"	n/a	"NULL"	"NULL"	"NULL"	"<p style=\"color: black; font-size: 80px; padding-left: 12%; padding-right: 17%; padding-top: 21%; padding-bottom: 35%\">+</p>"	"1314"	n/a	n/a	n/a	n/a	n/a	n/a	n/a	n/a	n/a
n/a	"image-keyboard-response"	"116"	"291561"	"0.0-5.0-2.0-1.31"	"xvenkz"	"563"	"1199"	"chrome"	"110.0.0"	"FALSE"	"Windows 10"	"60.47"	"030"	n/a	n/a	n/a	n/a	n/a	n/a	"Trial"	n/a	n/a	n/a	"472"	"arrowup"	n/a	"NULL"	"NULL"	"NULL"	"stimuli/MullerLyer_14.12857_-0.23665.png"	n/a	"MullerLyer"	"arrowdown"	"1317"	"FALSE"	"MullerLyer"	"14.128570000"	"-0.236650000"	"1"	"50"
n/a	"html-keyboard-response"	"117"	"292651"	"0.0-5.0-2.0-0.32"	"xvenkz"	"563"	"1199"	"chrome"	"110.0.0"	"FALSE"	"Windows 10"	"60.47"	"030"	n/a	n/a	n/a	n/a	n/a	n/a	"fixation"	n/a	n/a	n/a	n/a	"NULL"	n/a	"NULL"	"NULL"	"NULL"	"<p style=\"color: black; font-size: 80px; padding-left: 24%; padding-right: 32%; padding-top: 26%; padding-bottom: 16%\">+</p>"	"1088"	n/a	n/a	n/a	n/a	n/a	n/a	n/a	n/a	n/a
n/a	"image-keyboard-response"	"118"	"293185"	"0.0-5.0-2.0-1.32"	"xvenkz"	"563"	"1199"	"chrome"	"110.0.0"	"FALSE"	"Windows 10"	"60.47"	"030"	n/a	n/a	n/a	n/a	n/a	n/a	"Trial"	n/a	n/a	n/a	"534"	"arrowup"	n/a	"NULL"	"NULL"	"NULL"	"stimuli/MullerLyer_-14.12857_0.07627.png"	n/a	"MullerLyer"	"arrowup"	"1090"	"TRUE"	"MullerLyer"	"-14.12857000"	"0.0762700000"	"1"	"51"
n/a	"html-keyboard-response"	"119"	"294686"	"0.0-5.0-2.0-0.33"	"xvenkz"	"563"	"1199"	"chrome"	"110.0.0"	"FALSE"	"Windows 10"	"60.47"	"030"	n/a	n/a	n/a	n/a	n/a	n/a	"fixation"	n/a	n/a	n/a	n/a	"NULL"	n/a	"NULL"	"NULL"	"NULL"	"<p style=\"color: black; font-size: 80px; padding-left: 31%; padding-right: 1%; padding-top: 26%; padding-bottom: 39%\">+</p>"	"1487"	n/a	n/a	n/a	n/a	n/a	n/a	n/a	n/a	n/a
n/a	"image-keyboard-response"	"120"	"295374"	"0.0-5.0-2.0-1.33"	"xvenkz"	"563"	"1199"	"chrome"	"110.0.0"	"FALSE"	"Windows 10"	"60.47"	"030"	n/a	n/a	n/a	n/a	n/a	n/a	"Trial"	n/a	n/a	n/a	"687"	"arrowup"	n/a	"NULL"	"NULL"	"NULL"	"stimuli/MullerLyer_14.12857_0.23665.png"	n/a	"MullerLyer"	"arrowup"	"1501"	"TRUE"	"MullerLyer"	"14.128570000"	"0.2366500000"	"1"	"52"
n/a	"html-keyboard-response"	"121"	"296764"	"0.0-5.0-2.0-0.34"	"xvenkz"	"563"	"1199"	"chrome"	"110.0.0"	"FALSE"	"Windows 10"	"60.47"	"030"	n/a	n/a	n/a	n/a	n/a	n/a	"fixation"	n/a	n/a	n/a	n/a	"NULL"	n/a	"NULL"	"NULL"	"NULL"	"<p style=\"color: black; font-size: 80px; padding-left: 3%; padding-right: 5%; padding-top: 22%; padding-bottom: 17%\">+</p>"	"1380"	n/a	n/a	n/a	n/a	n/a	n/a	n/a	n/a	n/a
n/a	"image-keyboard-response"	"122"	"297257"	"0.0-5.0-2.0-1.34"	"xvenkz"	"563"	"1199"	"chrome"	"110.0.0"	"FALSE"	"Windows 10"	"60.47"	"030"	n/a	n/a	n/a	n/a	n/a	n/a	"Trial"	n/a	n/a	n/a	"493"	"arrowup"	n/a	"NULL"	"NULL"	"NULL"	"stimuli/MullerLyer_-14.12857_0.35000.png"	n/a	"MullerLyer"	"arrowup"	"1390"	"TRUE"	"MullerLyer"	"-14.12857000"	"0.3500000000"	"1"	"53"
n/a	"html-keyboard-response"	"123"	"298417"	"0.0-5.0-2.0-0.35"	"xvenkz"	"563"	"1199"	"chrome"	"110.0.0"	"FALSE"	"Windows 10"	"60.47"	"030"	n/a	n/a	n/a	n/a	n/a	n/a	"fixation"	n/a	n/a	n/a	n/a	"NULL"	n/a	"NULL"	"NULL"	"NULL"	"<p style=\"color: black; font-size: 80px; padding-left: 2%; padding-right: 40%; padding-top: 21%; padding-bottom: 41%\">+</p>"	"1145"	n/a	n/a	n/a	n/a	n/a	n/a	n/a	n/a	n/a
n/a	"image-keyboard-response"	"124"	"299692"	"0.0-5.0-2.0-1.35"	"xvenkz"	"563"	"1199"	"chrome"	"110.0.0"	"FALSE"	"Windows 10"	"60.47"	"030"	n/a	n/a	n/a	n/a	n/a	n/a	"Trial"	n/a	n/a	n/a	"1274"	"arrowup"	n/a	"NULL"	"NULL"	"NULL"	"stimuli/MullerLyer_2.30000_0.23665.png"	n/a	"MullerLyer"	"arrowup"	"1160"	"TRUE"	"MullerLyer"	"2.3000000000"	"0.2366500000"	"1"	"54"
n/a	"html-keyboard-response"	"125"	"301135"	"0.0-5.0-2.0-0.36"	"xvenkz"	"563"	"1199"	"chrome"	"110.0.0"	"FALSE"	"Windows 10"	"60.47"	"030"	n/a	n/a	n/a	n/a	n/a	n/a	"fixation"	n/a	n/a	n/a	n/a	"NULL"	n/a	"NULL"	"NULL"	"NULL"	"<p style=\"color: black; font-size: 80px; padding-left: 19%; padding-right: 2%; padding-top: 10%; padding-bottom: 13%\">+</p>"	"1436"	n/a	n/a	n/a	n/a	n/a	n/a	n/a	n/a	n/a
n/a	"image-keyboard-response"	"126"	"301690"	"0.0-5.0-2.0-1.36"	"xvenkz"	"563"	"1199"	"chrome"	"110.0.0"	"FALSE"	"Windows 10"	"60.47"	"030"	n/a	n/a	n/a	n/a	n/a	n/a	"Trial"	n/a	n/a	n/a	"554"	"arrowup"	n/a	"NULL"	"NULL"	"NULL"	"stimuli/MullerLyer_20.04286_-0.14541.png"	n/a	"MullerLyer"	"arrowdown"	"1443"	"FALSE"	"MullerLyer"	"20.042860000"	"-0.145410000"	"1"	"55"
n/a	"html-keyboard-response"	"127"	"302983"	"0.0-5.0-2.0-0.37"	"xvenkz"	"563"	"1199"	"chrome"	"110.0.0"	"FALSE"	"Windows 10"	"60.47"	"030"	n/a	n/a	n/a	n/a	n/a	n/a	"fixation"	n/a	n/a	n/a	n/a	"NULL"	n/a	"NULL"	"NULL"	"NULL"	"<p style=\"color: black; font-size: 80px; padding-left: 12%; padding-right: 26%; padding-top: 28%; padding-bottom: 28%\">+</p>"	"1287"	n/a	n/a	n/a	n/a	n/a	n/a	n/a	n/a	n/a
n/a	"image-keyboard-response"	"128"	"303490"	"0.0-5.0-2.0-1.37"	"xvenkz"	"563"	"1199"	"chrome"	"110.0.0"	"FALSE"	"Windows 10"	"60.47"	"030"	n/a	n/a	n/a	n/a	n/a	n/a	"Trial"	n/a	n/a	n/a	"507"	"arrowup"	n/a	"NULL"	"NULL"	"NULL"	"stimuli/MullerLyer_-2.3000_0.35000.png"	n/a	"MullerLyer"	"arrowup"	"1293"	"TRUE"	"MullerLyer"	"-2.300000000"	"0.3500000000"	"1"	"56"
n/a	"html-keyboard-response"	"129"	"304951"	"0.0-5.0-2.0-0.38"	"xvenkz"	"563"	"1199"	"chrome"	"110.0.0"	"FALSE"	"Windows 10"	"60.47"	"030"	n/a	n/a	n/a	n/a	n/a	n/a	"fixation"	n/a	n/a	n/a	n/a	"NULL"	n/a	"NULL"	"NULL"	"NULL"	"<p style=\"color: black; font-size: 80px; padding-left: 11%; padding-right: 5%; padding-top: 35%; padding-bottom: 2%\">+</p>"	"1458"	n/a	n/a	n/a	n/a	n/a	n/a	n/a	n/a	n/a
n/a	"image-keyboard-response"	"130"	"305472"	"0.0-5.0-2.0-1.38"	"xvenkz"	"563"	"1199"	"chrome"	"110.0.0"	"FALSE"	"Windows 10"	"60.47"	"030"	n/a	n/a	n/a	n/a	n/a	n/a	"Trial"	n/a	n/a	n/a	"520"	"arrowup"	n/a	"NULL"	"NULL"	"NULL"	"stimuli/MullerLyer_20.04286_-0.07627.png"	n/a	"MullerLyer"	"arrowdown"	"1461"	"FALSE"	"MullerLyer"	"20.042860000"	"-0.076270000"	"1"	"57"
n/a	"html-keyboard-response"	"131"	"306575"	"0.0-5.0-2.0-0.39"	"xvenkz"	"563"	"1199"	"chrome"	"110.0.0"	"FALSE"	"Windows 10"	"60.47"	"030"	n/a	n/a	n/a	n/a	n/a	n/a	"fixation"	n/a	n/a	n/a	n/a	"NULL"	n/a	"NULL"	"NULL"	"NULL"	"<p style=\"color: black; font-size: 80px; padding-left: 47%; padding-right: 24%; padding-top: 23%; padding-bottom: 33%\">+</p>"	"1097"	n/a	n/a	n/a	n/a	n/a	n/a	n/a	n/a	n/a
n/a	"image-keyboard-response"	"132"	"307078"	"0.0-5.0-2.0-1.39"	"xvenkz"	"563"	"1199"	"chrome"	"110.0.0"	"FALSE"	"Windows 10"	"60.47"	"030"	n/a	n/a	n/a	n/a	n/a	n/a	"Trial"	n/a	n/a	n/a	"503"	"arrowup"	n/a	"NULL"	"NULL"	"NULL"	"stimuli/MullerLyer_-8.21429_0.07627.png"	n/a	"MullerLyer"	"arrowup"	"1103"	"TRUE"	"MullerLyer"	"-8.214290000"	"0.0762700000"	"1"	"58"
n/a	"html-keyboard-response"	"133"	"308557"	"0.0-5.0-2.0-0.40"	"xvenkz"	"563"	"1199"	"chrome"	"110.0.0"	"FALSE"	"Windows 10"	"60.47"	"030"	n/a	n/a	n/a	n/a	n/a	n/a	"fixation"	n/a	n/a	n/a	n/a	"NULL"	n/a	"NULL"	"NULL"	"NULL"	"<p style=\"color: black; font-size: 80px; padding-left: 46%; padding-right: 10%; padding-top: 31%; padding-bottom: 24%\">+</p>"	"1472"	n/a	n/a	n/a	n/a	n/a	n/a	n/a	n/a	n/a
n/a	"image-keyboard-response"	"134"	"309069"	"0.0-5.0-2.0-1.40"	"xvenkz"	"563"	"1199"	"chrome"	"110.0.0"	"FALSE"	"Windows 10"	"60.47"	"030"	n/a	n/a	n/a	n/a	n/a	n/a	"Trial"	n/a	n/a	n/a	"512"	"arrowup"	n/a	"NULL"	"NULL"	"NULL"	"stimuli/MullerLyer_8.21429_-0.14541.png"	n/a	"MullerLyer"	"arrowdown"	"1479"	"FALSE"	"MullerLyer"	"8.2142900000"	"-0.145410000"	"1"	"59"
n/a	"html-keyboard-response"	"135"	"310200"	"0.0-5.0-2.0-0.41"	"xvenkz"	"563"	"1199"	"chrome"	"110.0.0"	"FALSE"	"Windows 10"	"60.47"	"030"	n/a	n/a	n/a	n/a	n/a	n/a	"fixation"	n/a	n/a	n/a	n/a	"NULL"	n/a	"NULL"	"NULL"	"NULL"	"<p style=\"color: black; font-size: 80px; padding-left: 46%; padding-right: 21%; padding-top: 14%; padding-bottom: 21%\">+</p>"	"1127"	n/a	n/a	n/a	n/a	n/a	n/a	n/a	n/a	n/a
n/a	"image-keyboard-response"	"136"	"310829"	"0.0-5.0-2.0-1.41"	"xvenkz"	"563"	"1199"	"chrome"	"110.0.0"	"FALSE"	"Windows 10"	"60.47"	"030"	n/a	n/a	n/a	n/a	n/a	n/a	"Trial"	n/a	n/a	n/a	"628"	"arrowdown"	n/a	"NULL"	"NULL"	"NULL"	"stimuli/MullerLyer_20.04286_0.14541.png"	n/a	"MullerLyer"	"arrowup"	"1131"	"FALSE"	"MullerLyer"	"20.042860000"	"0.1454100000"	"1"	"60"
n/a	"html-keyboard-response"	"137"	"311835"	"0.0-5.0-2.0-0.42"	"xvenkz"	"563"	"1199"	"chrome"	"110.0.0"	"FALSE"	"Windows 10"	"60.47"	"030"	n/a	n/a	n/a	n/a	n/a	n/a	"fixation"	n/a	n/a	n/a	n/a	"NULL"	n/a	"NULL"	"NULL"	"NULL"	"<p style=\"color: black; font-size: 80px; padding-left: 19%; padding-right: 23%; padding-top: 22%; padding-bottom: 18%\">+</p>"	"1001"	n/a	n/a	n/a	n/a	n/a	n/a	n/a	n/a	n/a
n/a	"image-keyboard-response"	"138"	"312378"	"0.0-5.0-2.0-1.42"	"xvenkz"	"563"	"1199"	"chrome"	"110.0.0"	"FALSE"	"Windows 10"	"60.47"	"030"	n/a	n/a	n/a	n/a	n/a	n/a	"Trial"	n/a	n/a	n/a	"542"	"arrowup"	n/a	"NULL"	"NULL"	"NULL"	"stimuli/MullerLyer_-2.3000_0.23665.png"	n/a	"MullerLyer"	"arrowup"	"1006"	"TRUE"	"MullerLyer"	"-2.300000000"	"0.2366500000"	"1"	"61"
n/a	"html-keyboard-response"	"139"	"313588"	"0.0-5.0-2.0-0.43"	"xvenkz"	"563"	"1199"	"chrome"	"110.0.0"	"FALSE"	"Windows 10"	"60.47"	"030"	n/a	n/a	n/a	n/a	n/a	n/a	"fixation"	n/a	n/a	n/a	n/a	"NULL"	n/a	"NULL"	"NULL"	"NULL"	"<p style=\"color: black; font-size: 80px; padding-left: 15%; padding-right: 27%; padding-top: 10%; padding-bottom: 2%\">+</p>"	"1208"	n/a	n/a	n/a	n/a	n/a	n/a	n/a	n/a	n/a
n/a	"image-keyboard-response"	"140"	"314159"	"0.0-5.0-2.0-1.43"	"xvenkz"	"563"	"1199"	"chrome"	"110.0.0"	"FALSE"	"Windows 10"	"60.47"	"030"	n/a	n/a	n/a	n/a	n/a	n/a	"Trial"	n/a	n/a	n/a	"570"	"arrowdown"	n/a	"NULL"	"NULL"	"NULL"	"stimuli/MullerLyer_-2.3000_-0.23665.png"	n/a	"MullerLyer"	"arrowdown"	"1210"	"TRUE"	"MullerLyer"	"-2.300000000"	"-0.236650000"	"1"	"62"
n/a	"html-keyboard-response"	"141"	"315479"	"0.0-5.0-2.0-0.44"	"xvenkz"	"563"	"1199"	"chrome"	"110.0.0"	"FALSE"	"Windows 10"	"60.47"	"030"	n/a	n/a	n/a	n/a	n/a	n/a	"fixation"	n/a	n/a	n/a	n/a	"NULL"	n/a	"NULL"	"NULL"	"NULL"	"<p style=\"color: black; font-size: 80px; padding-left: 27%; padding-right: 16%; padding-top: 21%; padding-bottom: 49%\">+</p>"	"1307"	n/a	n/a	n/a	n/a	n/a	n/a	n/a	n/a	n/a
n/a	"image-keyboard-response"	"142"	"315992"	"0.0-5.0-2.0-1.44"	"xvenkz"	"563"	"1199"	"chrome"	"110.0.0"	"FALSE"	"Windows 10"	"60.47"	"030"	n/a	n/a	n/a	n/a	n/a	n/a	"Trial"	n/a	n/a	n/a	"512"	"arrowup"	n/a	"NULL"	"NULL"	"NULL"	"stimuli/MullerLyer_20.04286_0.35000.png"	n/a	"MullerLyer"	"arrowup"	"1320"	"TRUE"	"MullerLyer"	"20.042860000"	"0.3500000000"	"1"	"63"
n/a	"html-keyboard-response"	"143"	"317313"	"0.0-5.0-2.0-0.45"	"xvenkz"	"563"	"1199"	"chrome"	"110.0.0"	"FALSE"	"Windows 10"	"60.47"	"030"	n/a	n/a	n/a	n/a	n/a	n/a	"fixation"	n/a	n/a	n/a	n/a	"NULL"	n/a	"NULL"	"NULL"	"NULL"	"<p style=\"color: black; font-size: 80px; padding-left: 15%; padding-right: 20%; padding-top: 37%; padding-bottom: 49%\">+</p>"	"1312"	n/a	n/a	n/a	n/a	n/a	n/a	n/a	n/a	n/a
n/a	"image-keyboard-response"	"144"	"317822"	"0.0-5.0-2.0-1.45"	"xvenkz"	"563"	"1199"	"chrome"	"110.0.0"	"FALSE"	"Windows 10"	"60.47"	"030"	n/a	n/a	n/a	n/a	n/a	n/a	"Trial"	n/a	n/a	n/a	"508"	"arrowup"	n/a	"NULL"	"NULL"	"NULL"	"stimuli/MullerLyer_14.12857_-0.07627.png"	n/a	"MullerLyer"	"arrowdown"	"1321"	"FALSE"	"MullerLyer"	"14.128570000"	"-0.076270000"	"1"	"64"
n/a	"html-keyboard-response"	"145"	"318983"	"0.0-5.0-2.0-0.46"	"xvenkz"	"563"	"1199"	"chrome"	"110.0.0"	"FALSE"	"Windows 10"	"60.47"	"030"	n/a	n/a	n/a	n/a	n/a	n/a	"fixation"	n/a	n/a	n/a	n/a	"NULL"	n/a	"NULL"	"NULL"	"NULL"	"<p style=\"color: black; font-size: 80px; padding-left: 47%; padding-right: 47%; padding-top: 9%; padding-bottom: 20%\">+</p>"	"1151"	n/a	n/a	n/a	n/a	n/a	n/a	n/a	n/a	n/a
n/a	"image-keyboard-response"	"146"	"319535"	"0.0-5.0-2.0-1.46"	"xvenkz"	"563"	"1199"	"chrome"	"110.0.0"	"FALSE"	"Windows 10"	"60.47"	"030"	n/a	n/a	n/a	n/a	n/a	n/a	"Trial"	n/a	n/a	n/a	"551"	"arrowup"	n/a	"NULL"	"NULL"	"NULL"	"stimuli/MullerLyer_-2.3000_0.07627.png"	n/a	"MullerLyer"	"arrowup"	"1161"	"TRUE"	"MullerLyer"	"-2.300000000"	"0.0762700000"	"1"	"65"
n/a	"html-keyboard-response"	"147"	"320719"	"0.0-5.0-2.0-0.47"	"xvenkz"	"563"	"1199"	"chrome"	"110.0.0"	"FALSE"	"Windows 10"	"60.47"	"030"	n/a	n/a	n/a	n/a	n/a	n/a	"fixation"	n/a	n/a	n/a	n/a	"NULL"	n/a	"NULL"	"NULL"	"NULL"	"<p style=\"color: black; font-size: 80px; padding-left: 12%; padding-right: 33%; padding-top: 21%; padding-bottom: 6%\">+</p>"	"1175"	n/a	n/a	n/a	n/a	n/a	n/a	n/a	n/a	n/a
n/a	"image-keyboard-response"	"148"	"321245"	"0.0-5.0-2.0-1.47"	"xvenkz"	"563"	"1199"	"chrome"	"110.0.0"	"FALSE"	"Windows 10"	"60.47"	"030"	n/a	n/a	n/a	n/a	n/a	n/a	"Trial"	n/a	n/a	n/a	"526"	"arrowup"	n/a	"NULL"	"NULL"	"NULL"	"stimuli/MullerLyer_-20.04286_0.07627.png"	n/a	"MullerLyer"	"arrowup"	"1184"	"TRUE"	"MullerLyer"	"-20.04286000"	"0.0762700000"	"1"	"66"
n/a	"html-keyboard-response"	"149"	"322697"	"0.0-5.0-2.0-0.48"	"xvenkz"	"563"	"1199"	"chrome"	"110.0.0"	"FALSE"	"Windows 10"	"60.47"	"030"	n/a	n/a	n/a	n/a	n/a	n/a	"fixation"	n/a	n/a	n/a	n/a	"NULL"	n/a	"NULL"	"NULL"	"NULL"	"<p style=\"color: black; font-size: 80px; padding-left: 17%; padding-right: 24%; padding-top: 48%; padding-bottom: 32%\">+</p>"	"1444"	n/a	n/a	n/a	n/a	n/a	n/a	n/a	n/a	n/a
n/a	"image-keyboard-response"	"150"	"323261"	"0.0-5.0-2.0-1.48"	"xvenkz"	"563"	"1199"	"chrome"	"110.0.0"	"FALSE"	"Windows 10"	"60.47"	"030"	n/a	n/a	n/a	n/a	n/a	n/a	"Trial"	n/a	n/a	n/a	"563"	"arrowdown"	n/a	"NULL"	"NULL"	"NULL"	"stimuli/MullerLyer_-8.21429_-0.3500.png"	n/a	"MullerLyer"	"arrowdown"	"1452"	"TRUE"	"MullerLyer"	"-8.214290000"	"-0.350000000"	"1"	"67"
n/a	"html-keyboard-response"	"151"	"324277"	"0.0-5.0-2.0-0.49"	"xvenkz"	"563"	"1199"	"chrome"	"110.0.0"	"FALSE"	"Windows 10"	"60.47"	"030"	n/a	n/a	n/a	n/a	n/a	n/a	"fixation"	n/a	n/a	n/a	n/a	"NULL"	n/a	"NULL"	"NULL"	"NULL"	"<p style=\"color: black; font-size: 80px; padding-left: 13%; padding-right: 45%; padding-top: 30%; padding-bottom: 10%\">+</p>"	"1014"	n/a	n/a	n/a	n/a	n/a	n/a	n/a	n/a	n/a
n/a	"image-keyboard-response"	"152"	"324907"	"0.0-5.0-2.0-1.49"	"xvenkz"	"563"	"1199"	"chrome"	"110.0.0"	"FALSE"	"Windows 10"	"60.47"	"030"	n/a	n/a	n/a	n/a	n/a	n/a	"Trial"	n/a	n/a	n/a	"630"	"arrowdown"	n/a	"NULL"	"NULL"	"NULL"	"stimuli/MullerLyer_8.21429_-0.3500.png"	n/a	"MullerLyer"	"arrowdown"	"1016"	"TRUE"	"MullerLyer"	"8.2142900000"	"-0.350000000"	"1"	"68"
n/a	"html-keyboard-response"	"153"	"326307"	"0.0-5.0-2.0-0.50"	"xvenkz"	"563"	"1199"	"chrome"	"110.0.0"	"FALSE"	"Windows 10"	"60.47"	"030"	n/a	n/a	n/a	n/a	n/a	n/a	"fixation"	n/a	n/a	n/a	n/a	"NULL"	n/a	"NULL"	"NULL"	"NULL"	"<p style=\"color: black; font-size: 80px; padding-left: 0%; padding-right: 19%; padding-top: 21%; padding-bottom: 12%\">+</p>"	"1395"	n/a	n/a	n/a	n/a	n/a	n/a	n/a	n/a	n/a
n/a	"image-keyboard-response"	"154"	"326850"	"0.0-5.0-2.0-1.50"	"xvenkz"	"563"	"1199"	"chrome"	"110.0.0"	"FALSE"	"Windows 10"	"60.47"	"030"	n/a	n/a	n/a	n/a	n/a	n/a	"Trial"	n/a	n/a	n/a	"542"	"arrowdown"	n/a	"NULL"	"NULL"	"NULL"	"stimuli/MullerLyer_-14.12857_-0.14541.png"	n/a	"MullerLyer"	"arrowdown"	"1400"	"TRUE"	"MullerLyer"	"-14.12857000"	"-0.145410000"	"1"	"69"
n/a	"html-keyboard-response"	"155"	"328182"	"0.0-5.0-2.0-0.51"	"xvenkz"	"563"	"1199"	"chrome"	"110.0.0"	"FALSE"	"Windows 10"	"60.47"	"030"	n/a	n/a	n/a	n/a	n/a	n/a	"fixation"	n/a	n/a	n/a	n/a	"NULL"	n/a	"NULL"	"NULL"	"NULL"	"<p style=\"color: black; font-size: 80px; padding-left: 43%; padding-right: 35%; padding-top: 30%; padding-bottom: 29%\">+</p>"	"1319"	n/a	n/a	n/a	n/a	n/a	n/a	n/a	n/a	n/a
n/a	"image-keyboard-response"	"156"	"328721"	"0.0-5.0-2.0-1.51"	"xvenkz"	"563"	"1199"	"chrome"	"110.0.0"	"FALSE"	"Windows 10"	"60.47"	"030"	n/a	n/a	n/a	n/a	n/a	n/a	"Trial"	n/a	n/a	n/a	"538"	"arrowdown"	n/a	"NULL"	"NULL"	"NULL"	"stimuli/MullerLyer_-8.21429_-0.07627.png"	n/a	"MullerLyer"	"arrowdown"	"1332"	"TRUE"	"MullerLyer"	"-8.214290000"	"-0.076270000"	"1"	"70"
n/a	"html-keyboard-response"	"157"	"329745"	"0.0-5.0-2.0-0.52"	"xvenkz"	"563"	"1199"	"chrome"	"110.0.0"	"FALSE"	"Windows 10"	"60.47"	"030"	n/a	n/a	n/a	n/a	n/a	n/a	"fixation"	n/a	n/a	n/a	n/a	"NULL"	n/a	"NULL"	"NULL"	"NULL"	"<p style=\"color: black; font-size: 80px; padding-left: 9%; padding-right: 49%; padding-top: 9%; padding-bottom: 10%\">+</p>"	"1015"	n/a	n/a	n/a	n/a	n/a	n/a	n/a	n/a	n/a
n/a	"image-keyboard-response"	"158"	"330248"	"0.0-5.0-2.0-1.52"	"xvenkz"	"563"	"1199"	"chrome"	"110.0.0"	"FALSE"	"Windows 10"	"60.47"	"030"	n/a	n/a	n/a	n/a	n/a	n/a	"Trial"	n/a	n/a	n/a	"502"	"arrowdown"	n/a	"NULL"	"NULL"	"NULL"	"stimuli/MullerLyer_-20.04286_-0.3500.png"	n/a	"MullerLyer"	"arrowdown"	"1024"	"TRUE"	"MullerLyer"	"-20.04286000"	"-0.350000000"	"1"	"71"
n/a	"html-keyboard-response"	"159"	"331715"	"0.0-5.0-2.0-0.53"	"xvenkz"	"563"	"1199"	"chrome"	"110.0.0"	"FALSE"	"Windows 10"	"60.47"	"030"	n/a	n/a	n/a	n/a	n/a	n/a	"fixation"	n/a	n/a	n/a	n/a	"NULL"	n/a	"NULL"	"NULL"	"NULL"	"<p style=\"color: black; font-size: 80px; padding-left: 19%; padding-right: 19%; padding-top: 45%; padding-bottom: 27%\">+</p>"	"1463"	n/a	n/a	n/a	n/a	n/a	n/a	n/a	n/a	n/a
n/a	"image-keyboard-response"	"160"	"332253"	"0.0-5.0-2.0-1.53"	"xvenkz"	"563"	"1199"	"chrome"	"110.0.0"	"FALSE"	"Windows 10"	"60.47"	"030"	n/a	n/a	n/a	n/a	n/a	n/a	"Trial"	n/a	n/a	n/a	"538"	"arrowup"	n/a	"NULL"	"NULL"	"NULL"	"stimuli/MullerLyer_-14.12857_0.23665.png"	n/a	"MullerLyer"	"arrowup"	"1467"	"TRUE"	"MullerLyer"	"-14.12857000"	"0.2366500000"	"1"	"72"
n/a	"html-keyboard-response"	"161"	"333667"	"0.0-5.0-2.0-0.54"	"xvenkz"	"563"	"1199"	"chrome"	"110.0.0"	"FALSE"	"Windows 10"	"60.47"	"030"	n/a	n/a	n/a	n/a	n/a	n/a	"fixation"	n/a	n/a	n/a	n/a	"NULL"	n/a	"NULL"	"NULL"	"NULL"	"<p style=\"color: black; font-size: 80px; padding-left: 21%; padding-right: 35%; padding-top: 2%; padding-bottom: 7%\">+</p>"	"1402"	n/a	n/a	n/a	n/a	n/a	n/a	n/a	n/a	n/a
n/a	"image-keyboard-response"	"162"	"334202"	"0.0-5.0-2.0-1.54"	"xvenkz"	"563"	"1199"	"chrome"	"110.0.0"	"FALSE"	"Windows 10"	"60.47"	"030"	n/a	n/a	n/a	n/a	n/a	n/a	"Trial"	n/a	n/a	n/a	"534"	"arrowup"	n/a	"NULL"	"NULL"	"NULL"	"stimuli/MullerLyer_-20.04286_0.35000.png"	n/a	"MullerLyer"	"arrowup"	"1414"	"TRUE"	"MullerLyer"	"-20.04286000"	"0.3500000000"	"1"	"73"
n/a	"html-keyboard-response"	"163"	"335321"	"0.0-5.0-2.0-0.55"	"xvenkz"	"563"	"1199"	"chrome"	"110.0.0"	"FALSE"	"Windows 10"	"60.47"	"030"	n/a	n/a	n/a	n/a	n/a	n/a	"fixation"	n/a	n/a	n/a	n/a	"NULL"	n/a	"NULL"	"NULL"	"NULL"	"<p style=\"color: black; font-size: 80px; padding-left: 50%; padding-right: 40%; padding-top: 39%; padding-bottom: 33%\">+</p>"	"1111"	n/a	n/a	n/a	n/a	n/a	n/a	n/a	n/a	n/a
n/a	"image-keyboard-response"	"164"	"335842"	"0.0-5.0-2.0-1.55"	"xvenkz"	"563"	"1199"	"chrome"	"110.0.0"	"FALSE"	"Windows 10"	"60.47"	"030"	n/a	n/a	n/a	n/a	n/a	n/a	"Trial"	n/a	n/a	n/a	"521"	"arrowup"	n/a	"NULL"	"NULL"	"NULL"	"stimuli/MullerLyer_-20.04286_0.14541.png"	n/a	"MullerLyer"	"arrowup"	"1119"	"TRUE"	"MullerLyer"	"-20.04286000"	"0.1454100000"	"1"	"74"
n/a	"html-keyboard-response"	"165"	"337085"	"0.0-5.0-2.0-0.56"	"xvenkz"	"563"	"1199"	"chrome"	"110.0.0"	"FALSE"	"Windows 10"	"60.47"	"030"	n/a	n/a	n/a	n/a	n/a	n/a	"fixation"	n/a	n/a	n/a	n/a	"NULL"	n/a	"NULL"	"NULL"	"NULL"	"<p style=\"color: black; font-size: 80px; padding-left: 48%; padding-right: 15%; padding-top: 33%; padding-bottom: 46%\">+</p>"	"1235"	n/a	n/a	n/a	n/a	n/a	n/a	n/a	n/a	n/a
n/a	"image-keyboard-response"	"166"	"337726"	"0.0-5.0-2.0-1.56"	"xvenkz"	"563"	"1199"	"chrome"	"110.0.0"	"FALSE"	"Windows 10"	"60.47"	"030"	n/a	n/a	n/a	n/a	n/a	n/a	"Trial"	n/a	n/a	n/a	"641"	"arrowdown"	n/a	"NULL"	"NULL"	"NULL"	"stimuli/MullerLyer_-14.12857_-0.07627.png"	n/a	"MullerLyer"	"arrowdown"	"1243"	"TRUE"	"MullerLyer"	"-14.12857000"	"-0.076270000"	"1"	"75"
n/a	"html-keyboard-response"	"167"	"338778"	"0.0-5.0-2.0-0.57"	"xvenkz"	"563"	"1199"	"chrome"	"110.0.0"	"FALSE"	"Windows 10"	"60.47"	"030"	n/a	n/a	n/a	n/a	n/a	n/a	"fixation"	n/a	n/a	n/a	n/a	"NULL"	n/a	"NULL"	"NULL"	"NULL"	"<p style=\"color: black; font-size: 80px; padding-left: 21%; padding-right: 16%; padding-top: 25%; padding-bottom: 27%\">+</p>"	"1048"	n/a	n/a	n/a	n/a	n/a	n/a	n/a	n/a	n/a
n/a	"image-keyboard-response"	"168"	"339337"	"0.0-5.0-2.0-1.57"	"xvenkz"	"563"	"1199"	"chrome"	"110.0.0"	"FALSE"	"Windows 10"	"60.47"	"030"	n/a	n/a	n/a	n/a	n/a	n/a	"Trial"	n/a	n/a	n/a	"558"	"arrowup"	n/a	"NULL"	"NULL"	"NULL"	"stimuli/MullerLyer_-8.21429_0.14541.png"	n/a	"MullerLyer"	"arrowup"	"1052"	"TRUE"	"MullerLyer"	"-8.214290000"	"0.1454100000"	"1"	"76"
n/a	"html-keyboard-response"	"169"	"340824"	"0.0-5.0-2.0-0.58"	"xvenkz"	"563"	"1199"	"chrome"	"110.0.0"	"FALSE"	"Windows 10"	"60.47"	"030"	n/a	n/a	n/a	n/a	n/a	n/a	"fixation"	n/a	n/a	n/a	n/a	"NULL"	n/a	"NULL"	"NULL"	"NULL"	"<p style=\"color: black; font-size: 80px; padding-left: 1%; padding-right: 46%; padding-top: 12%; padding-bottom: 1%\">+</p>"	"1472"	n/a	n/a	n/a	n/a	n/a	n/a	n/a	n/a	n/a
n/a	"image-keyboard-response"	"170"	"341421"	"0.0-5.0-2.0-1.58"	"xvenkz"	"563"	"1199"	"chrome"	"110.0.0"	"FALSE"	"Windows 10"	"60.47"	"030"	n/a	n/a	n/a	n/a	n/a	n/a	"Trial"	n/a	n/a	n/a	"594"	"arrowdown"	n/a	"NULL"	"NULL"	"NULL"	"stimuli/MullerLyer_-2.3000_-0.14541.png"	n/a	"MullerLyer"	"arrowdown"	"1487"	"TRUE"	"MullerLyer"	"-2.300000000"	"-0.145410000"	"1"	"77"
n/a	"html-keyboard-response"	"171"	"342714"	"0.0-5.0-2.0-0.59"	"xvenkz"	"563"	"1199"	"chrome"	"110.0.0"	"FALSE"	"Windows 10"	"60.47"	"030"	n/a	n/a	n/a	n/a	n/a	n/a	"fixation"	n/a	n/a	n/a	n/a	"NULL"	n/a	"NULL"	"NULL"	"NULL"	"<p style=\"color: black; font-size: 80px; padding-left: 8%; padding-right: 11%; padding-top: 15%; padding-bottom: 4%\">+</p>"	"1278"	n/a	n/a	n/a	n/a	n/a	n/a	n/a	n/a	n/a
n/a	"image-keyboard-response"	"172"	"343204"	"0.0-5.0-2.0-1.59"	"xvenkz"	"563"	"1199"	"chrome"	"110.0.0"	"FALSE"	"Windows 10"	"60.47"	"030"	n/a	n/a	n/a	n/a	n/a	n/a	"Trial"	n/a	n/a	n/a	"489"	"arrowdown"	n/a	"NULL"	"NULL"	"NULL"	"stimuli/MullerLyer_-20.04286_-0.23665.png"	n/a	"MullerLyer"	"arrowdown"	"1293"	"TRUE"	"MullerLyer"	"-20.04286000"	"-0.236650000"	"1"	"78"
n/a	"html-keyboard-response"	"173"	"344669"	"0.0-5.0-2.0-0.60"	"xvenkz"	"563"	"1199"	"chrome"	"110.0.0"	"FALSE"	"Windows 10"	"60.47"	"030"	n/a	n/a	n/a	n/a	n/a	n/a	"fixation"	n/a	n/a	n/a	n/a	"NULL"	n/a	"NULL"	"NULL"	"NULL"	"<p style=\"color: black; font-size: 80px; padding-left: 30%; padding-right: 42%; padding-top: 30%; padding-bottom: 38%\">+</p>"	"1453"	n/a	n/a	n/a	n/a	n/a	n/a	n/a	n/a	n/a
n/a	"image-keyboard-response"	"174"	"345165"	"0.0-5.0-2.0-1.60"	"xvenkz"	"563"	"1199"	"chrome"	"110.0.0"	"FALSE"	"Windows 10"	"60.47"	"030"	n/a	n/a	n/a	n/a	n/a	n/a	"Trial"	n/a	n/a	n/a	"495"	"arrowdown"	n/a	"NULL"	"NULL"	"NULL"	"stimuli/MullerLyer_-20.04286_-0.07627.png"	n/a	"MullerLyer"	"arrowdown"	"1465"	"TRUE"	"MullerLyer"	"-20.04286000"	"-0.076270000"	"1"	"79"
n/a	"html-keyboard-response"	"175"	"346404"	"0.0-5.0-2.0-0.61"	"xvenkz"	"563"	"1199"	"chrome"	"110.0.0"	"FALSE"	"Windows 10"	"60.47"	"030"	n/a	n/a	n/a	n/a	n/a	n/a	"fixation"	n/a	n/a	n/a	n/a	"NULL"	n/a	"NULL"	"NULL"	"NULL"	"<p style=\"color: black; font-size: 80px; padding-left: 32%; padding-right: 16%; padding-top: 2%; padding-bottom: 33%\">+</p>"	"1225"	n/a	n/a	n/a	n/a	n/a	n/a	n/a	n/a	n/a
n/a	"image-keyboard-response"	"176"	"347010"	"0.0-5.0-2.0-1.61"	"xvenkz"	"563"	"1199"	"chrome"	"110.0.0"	"FALSE"	"Windows 10"	"60.47"	"030"	n/a	n/a	n/a	n/a	n/a	n/a	"Trial"	n/a	n/a	n/a	"605"	"arrowup"	n/a	"NULL"	"NULL"	"NULL"	"stimuli/MullerLyer_2.30000_0.14541.png"	n/a	"MullerLyer"	"arrowup"	"1239"	"TRUE"	"MullerLyer"	"2.3000000000"	"0.1454100000"	"1"	"80"
n/a	"html-keyboard-response"	"177"	"348458"	"0.0-5.0-2.0-0.62"	"xvenkz"	"563"	"1199"	"chrome"	"110.0.0"	"FALSE"	"Windows 10"	"60.47"	"030"	n/a	n/a	n/a	n/a	n/a	n/a	"fixation"	n/a	n/a	n/a	n/a	"NULL"	n/a	"NULL"	"NULL"	"NULL"	"<p style=\"color: black; font-size: 80px; padding-left: 46%; padding-right: 47%; padding-top: 29%; padding-bottom: 14%\">+</p>"	"1444"	n/a	n/a	n/a	n/a	n/a	n/a	n/a	n/a	n/a
n/a	"image-keyboard-response"	"178"	"349021"	"0.0-5.0-2.0-1.62"	"xvenkz"	"563"	"1199"	"chrome"	"110.0.0"	"FALSE"	"Windows 10"	"60.47"	"030"	n/a	n/a	n/a	n/a	n/a	n/a	"Trial"	n/a	n/a	n/a	"562"	"arrowup"	n/a	"NULL"	"NULL"	"NULL"	"stimuli/MullerLyer_-8.21429_0.23665.png"	n/a	"MullerLyer"	"arrowup"	"1448"	"TRUE"	"MullerLyer"	"-8.214290000"	"0.2366500000"	"1"	"81"
n/a	"html-keyboard-response"	"179"	"350108"	"0.0-5.0-2.0-0.63"	"xvenkz"	"563"	"1199"	"chrome"	"110.0.0"	"FALSE"	"Windows 10"	"60.47"	"030"	n/a	n/a	n/a	n/a	n/a	n/a	"fixation"	n/a	n/a	n/a	n/a	"NULL"	n/a	"NULL"	"NULL"	"NULL"	"<p style=\"color: black; font-size: 80px; padding-left: 29%; padding-right: 46%; padding-top: 44%; padding-bottom: 3%\">+</p>"	"1074"	n/a	n/a	n/a	n/a	n/a	n/a	n/a	n/a	n/a
n/a	"image-keyboard-response"	"180"	"350694"	"0.0-5.0-2.0-1.63"	"xvenkz"	"563"	"1199"	"chrome"	"110.0.0"	"FALSE"	"Windows 10"	"60.47"	"030"	n/a	n/a	n/a	n/a	n/a	n/a	"Trial"	n/a	n/a	n/a	"585"	"arrowup"	n/a	"NULL"	"NULL"	"NULL"	"stimuli/MullerLyer_2.30000_0.07627.png"	n/a	"MullerLyer"	"arrowup"	"1087"	"TRUE"	"MullerLyer"	"2.3000000000"	"0.0762700000"	"1"	"82"
n/a	"html-button-response"	"181"	"358976"	"0.0-5.0-3.0"	"xvenkz"	"563"	"1199"	"chrome"	"110.0.0"	"FALSE"	"Windows 10"	"60.47"	"030"	n/a	n/a	n/a	n/a	n/a	n/a	"block_results"	n/a	n/a	n/a	"8280"	"0"	n/a	"NULL"	"NULL"	"NULL"	"<p>Your score for this illusion is <p style=\"color: black; font-size: 48px; font-weight: bold;\">79.3 %</p><hr><p>Can you do better in the next illusion?</p>"	n/a	n/a	n/a	n/a	n/a	n/a	n/a	n/a	n/a	n/a
"TRUE"	"preload"	"182"	"359200"	"0.0-6.0-0.0"	"xvenkz"	"563"	"1199"	"chrome"	"110.0.0"	"FALSE"	"Windows 10"	"60.47"	"030"	n/a	n/a	n/a	n/a	n/a	n/a	n/a	n/a	n/a	n/a	n/a	"NULL"	"FALSE"	"list()"	"list()"	"list()"	n/a	n/a	n/a	n/a	n/a	n/a	n/a	n/a	n/a	n/a	n/a
n/a	"html-keyboard-response"	"183"	"362248"	"0.0-6.0-1.0"	"xvenkz"	"563"	"1199"	"chrome"	"110.0.0"	"FALSE"	"Windows 10"	"60.47"	"030"	n/a	n/a	n/a	n/a	n/a	n/a	n/a	n/a	n/a	n/a	"3048"	"enter"	n/a	"NULL"	"NULL"	"NULL"	"<p><b>Part 2/6</b></p><p>In this part, two red circles will appear side by side on the screen.</p><p>Your task is to select which <b>red circle is bigger</b> in size as fast as you can, without making errors.</p><p>Don't get distracted by the surrounding black circles around the red circles!</p><p>Press <b>the LEFT or the RIGHT arrow</b> to indicate which is the bigger <b>red circle.</b></p><div style='float: center'><img src='materials/instructions/Ebbinghaus_Demo.png' height='300'></img><p><img src='utils/answer/answer_leftright_keyboard.PNG' height='150'></img></p><p class='small'>In this example, the correct answer is the <b>LEFT arrow</b>.</p></div><p>Are you ready? <b>Press ENTER to start</b></p>"	n/a	n/a	n/a	n/a	n/a	n/a	n/a	n/a	n/a	n/a
n/a	"html-keyboard-response"	"184"	"364108"	"0.0-6.0-2.0-0.0"	"xvenkz"	"563"	"1199"	"chrome"	"110.0.0"	"FALSE"	"Windows 10"	"60.47"	"030"	n/a	n/a	n/a	n/a	n/a	n/a	"fixation"	n/a	n/a	n/a	n/a	"NULL"	n/a	"NULL"	"NULL"	"NULL"	"<p style=\"color: black; font-size: 80px; padding-left: 31%; padding-right: 23%; padding-top: 28%; padding-bottom: 17%\">+</p>"	"1351"	n/a	n/a	n/a	n/a	n/a	n/a	n/a	n/a	n/a
n/a	"image-keyboard-response"	"185"	"364964"	"0.0-6.0-2.0-1.0"	"xvenkz"	"563"	"1199"	"chrome"	"110.0.0"	"FALSE"	"Windows 10"	"60.47"	"030"	n/a	n/a	n/a	n/a	n/a	n/a	"Trial"	n/a	n/a	n/a	"855"	"arrowleft"	n/a	"NULL"	"NULL"	"NULL"	"stimuli/Ebbinghaus_-0.87143_0.15857.png"	n/a	"Ebbinghaus"	"arrowleft"	"1860"	"TRUE"	"Ebbinghaus"	"-0.871430000"	"0.1585700000"	"2"	"1"
n/a	"html-keyboard-response"	"186"	"366017"	"0.0-6.0-2.0-0.1"	"xvenkz"	"563"	"1199"	"chrome"	"110.0.0"	"FALSE"	"Windows 10"	"60.47"	"030"	n/a	n/a	n/a	n/a	n/a	n/a	"fixation"	n/a	n/a	n/a	n/a	"NULL"	n/a	"NULL"	"NULL"	"NULL"	"<p style=\"color: black; font-size: 80px; padding-left: 26%; padding-right: 16%; padding-top: 24%; padding-bottom: 2%\">+</p>"	"1050"	n/a	n/a	n/a	n/a	n/a	n/a	n/a	n/a	n/a
n/a	"image-keyboard-response"	"187"	"366534"	"0.0-6.0-2.0-1.1"	"xvenkz"	"563"	"1199"	"chrome"	"110.0.0"	"FALSE"	"Windows 10"	"60.47"	"030"	n/a	n/a	n/a	n/a	n/a	n/a	"Trial"	n/a	n/a	n/a	"516"	"arrowright"	n/a	"NULL"	"NULL"	"NULL"	"stimuli/Ebbinghaus_0.35714_-0.15857.png"	n/a	"Ebbinghaus"	"arrowright"	"1053"	"TRUE"	"Ebbinghaus"	"0.3571400000"	"-0.158570000"	"2"	"2"
n/a	"html-keyboard-response"	"188"	"367666"	"0.0-6.0-2.0-0.2"	"xvenkz"	"563"	"1199"	"chrome"	"110.0.0"	"FALSE"	"Windows 10"	"60.47"	"030"	n/a	n/a	n/a	n/a	n/a	n/a	"fixation"	n/a	n/a	n/a	n/a	"NULL"	n/a	"NULL"	"NULL"	"NULL"	"<p style=\"color: black; font-size: 80px; padding-left: 20%; padding-right: 15%; padding-top: 25%; padding-bottom: 49%\">+</p>"	"1123"	n/a	n/a	n/a	n/a	n/a	n/a	n/a	n/a	n/a
n/a	"image-keyboard-response"	"189"	"368156"	"0.0-6.0-2.0-1.2"	"xvenkz"	"563"	"1199"	"chrome"	"110.0.0"	"FALSE"	"Windows 10"	"60.47"	"030"	n/a	n/a	n/a	n/a	n/a	n/a	"Trial"	n/a	n/a	n/a	"489"	"arrowright"	n/a	"NULL"	"NULL"	"NULL"	"stimuli/Ebbinghaus_-0.87143_-0.2800.png"	n/a	"Ebbinghaus"	"arrowright"	"1132"	"TRUE"	"Ebbinghaus"	"-0.871430000"	"-0.280000000"	"2"	"3"
n/a	"html-keyboard-response"	"190"	"369544"	"0.0-6.0-2.0-0.3"	"xvenkz"	"563"	"1199"	"chrome"	"110.0.0"	"FALSE"	"Windows 10"	"60.47"	"030"	n/a	n/a	n/a	n/a	n/a	n/a	"fixation"	n/a	n/a	n/a	n/a	"NULL"	n/a	"NULL"	"NULL"	"NULL"	"<p style=\"color: black; font-size: 80px; padding-left: 10%; padding-right: 49%; padding-top: 9%; padding-bottom: 9%\">+</p>"	"1372"	n/a	n/a	n/a	n/a	n/a	n/a	n/a	n/a	n/a
n/a	"image-keyboard-response"	"191"	"370110"	"0.0-6.0-2.0-1.3"	"xvenkz"	"563"	"1199"	"chrome"	"110.0.0"	"FALSE"	"Windows 10"	"60.47"	"030"	n/a	n/a	n/a	n/a	n/a	n/a	"Trial"	n/a	n/a	n/a	"566"	"arrowright"	n/a	"NULL"	"NULL"	"NULL"	"stimuli/Ebbinghaus_-0.1000_-0.2150.png"	n/a	"Ebbinghaus"	"arrowright"	"1388"	"TRUE"	"Ebbinghaus"	"-0.100000000"	"-0.215000000"	"2"	"4"
n/a	"html-keyboard-response"	"192"	"371356"	"0.0-6.0-2.0-0.4"	"xvenkz"	"563"	"1199"	"chrome"	"110.0.0"	"FALSE"	"Windows 10"	"60.47"	"030"	n/a	n/a	n/a	n/a	n/a	n/a	"fixation"	n/a	n/a	n/a	n/a	"NULL"	n/a	"NULL"	"NULL"	"NULL"	"<p style=\"color: black; font-size: 80px; padding-left: 31%; padding-right: 24%; padding-top: 10%; padding-bottom: 6%\">+</p>"	"1240"	n/a	n/a	n/a	n/a	n/a	n/a	n/a	n/a	n/a
n/a	"image-keyboard-response"	"193"	"372061"	"0.0-6.0-2.0-1.4"	"xvenkz"	"563"	"1199"	"chrome"	"110.0.0"	"FALSE"	"Windows 10"	"60.47"	"030"	n/a	n/a	n/a	n/a	n/a	n/a	"Trial"	n/a	n/a	n/a	"704"	"arrowright"	n/a	"NULL"	"NULL"	"NULL"	"stimuli/Ebbinghaus_-0.1000_0.11071.png"	n/a	"Ebbinghaus"	"arrowleft"	"1246"	"FALSE"	"Ebbinghaus"	"-0.100000000"	"0.1107100000"	"2"	"5"
n/a	"html-keyboard-response"	"194"	"373386"	"0.0-6.0-2.0-0.5"	"xvenkz"	"563"	"1199"	"chrome"	"110.0.0"	"FALSE"	"Windows 10"	"60.47"	"030"	n/a	n/a	n/a	n/a	n/a	n/a	"fixation"	n/a	n/a	n/a	n/a	"NULL"	n/a	"NULL"	"NULL"	"NULL"	"<p style=\"color: black; font-size: 80px; padding-left: 33%; padding-right: 29%; padding-top: 7%; padding-bottom: 41%\">+</p>"	"1318"	n/a	n/a	n/a	n/a	n/a	n/a	n/a	n/a	n/a
n/a	"image-keyboard-response"	"195"	"373851"	"0.0-6.0-2.0-1.5"	"xvenkz"	"563"	"1199"	"chrome"	"110.0.0"	"FALSE"	"Windows 10"	"60.47"	"030"	n/a	n/a	n/a	n/a	n/a	n/a	"Trial"	n/a	n/a	n/a	"465"	"arrowright"	n/a	"NULL"	"NULL"	"NULL"	"stimuli/Ebbinghaus_0.35714_-0.2150.png"	n/a	"Ebbinghaus"	"arrowright"	"1325"	"TRUE"	"Ebbinghaus"	"0.3571400000"	"-0.215000000"	"2"	"6"
n/a	"html-keyboard-response"	"196"	"374898"	"0.0-6.0-2.0-0.6"	"xvenkz"	"563"	"1199"	"chrome"	"110.0.0"	"FALSE"	"Windows 10"	"60.47"	"030"	n/a	n/a	n/a	n/a	n/a	n/a	"fixation"	n/a	n/a	n/a	n/a	"NULL"	n/a	"NULL"	"NULL"	"NULL"	"<p style=\"color: black; font-size: 80px; padding-left: 34%; padding-right: 9%; padding-top: 25%; padding-bottom: 40%\">+</p>"	"1040"	n/a	n/a	n/a	n/a	n/a	n/a	n/a	n/a	n/a
n/a	"image-keyboard-response"	"197"	"375478"	"0.0-6.0-2.0-1.6"	"xvenkz"	"563"	"1199"	"chrome"	"110.0.0"	"FALSE"	"Windows 10"	"60.47"	"030"	n/a	n/a	n/a	n/a	n/a	n/a	"Trial"	n/a	n/a	n/a	"579"	"arrowright"	n/a	"NULL"	"NULL"	"NULL"	"stimuli/Ebbinghaus_-0.87143_-0.2150.png"	n/a	"Ebbinghaus"	"arrowright"	"1047"	"TRUE"	"Ebbinghaus"	"-0.871430000"	"-0.215000000"	"2"	"7"
n/a	"html-keyboard-response"	"198"	"376584"	"0.0-6.0-2.0-0.7"	"xvenkz"	"563"	"1199"	"chrome"	"110.0.0"	"FALSE"	"Windows 10"	"60.47"	"030"	n/a	n/a	n/a	n/a	n/a	n/a	"fixation"	n/a	n/a	n/a	n/a	"NULL"	n/a	"NULL"	"NULL"	"NULL"	"<p style=\"color: black; font-size: 80px; padding-left: 17%; padding-right: 13%; padding-top: 44%; padding-bottom: 23%\">+</p>"	"1094"	n/a	n/a	n/a	n/a	n/a	n/a	n/a	n/a	n/a
n/a	"image-keyboard-response"	"199"	"377075"	"0.0-6.0-2.0-1.7"	"xvenkz"	"563"	"1199"	"chrome"	"110.0.0"	"FALSE"	"Windows 10"	"60.47"	"030"	n/a	n/a	n/a	n/a	n/a	n/a	"Trial"	n/a	n/a	n/a	"490"	"arrowright"	n/a	"NULL"	"NULL"	"NULL"	"stimuli/Ebbinghaus_0.61429_-0.11071.png"	n/a	"Ebbinghaus"	"arrowright"	"1106"	"TRUE"	"Ebbinghaus"	"0.6142900000"	"-0.110710000"	"2"	"8"
n/a	"html-keyboard-response"	"200"	"378525"	"0.0-6.0-2.0-0.8"	"xvenkz"	"563"	"1199"	"chrome"	"110.0.0"	"FALSE"	"Windows 10"	"60.47"	"030"	n/a	n/a	n/a	n/a	n/a	n/a	"fixation"	n/a	n/a	n/a	n/a	"NULL"	n/a	"NULL"	"NULL"	"NULL"	"<p style=\"color: black; font-size: 80px; padding-left: 48%; padding-right: 9%; padding-top: 12%; padding-bottom: 11%\">+</p>"	"1449"	n/a	n/a	n/a	n/a	n/a	n/a	n/a	n/a	n/a
n/a	"image-keyboard-response"	"201"	"379038"	"0.0-6.0-2.0-1.8"	"xvenkz"	"563"	"1199"	"chrome"	"110.0.0"	"FALSE"	"Windows 10"	"60.47"	"030"	n/a	n/a	n/a	n/a	n/a	n/a	"Trial"	n/a	n/a	n/a	"510"	"arrowleft"	n/a	"NULL"	"NULL"	"NULL"	"stimuli/Ebbinghaus_-0.61429_0.28000.png"	n/a	"Ebbinghaus"	"arrowleft"	"1450"	"TRUE"	"Ebbinghaus"	"-0.614290000"	"0.2800000000"	"2"	"9"
n/a	"html-keyboard-response"	"202"	"380486"	"0.0-6.0-2.0-0.9"	"xvenkz"	"563"	"1199"	"chrome"	"110.0.0"	"FALSE"	"Windows 10"	"60.47"	"030"	n/a	n/a	n/a	n/a	n/a	n/a	"fixation"	n/a	n/a	n/a	n/a	"NULL"	n/a	"NULL"	"NULL"	"NULL"	"<p style=\"color: black; font-size: 80px; padding-left: 24%; padding-right: 9%; padding-top: 24%; padding-bottom: 2%\">+</p>"	"1433"	n/a	n/a	n/a	n/a	n/a	n/a	n/a	n/a	n/a
n/a	"image-keyboard-response"	"203"	"381143"	"0.0-6.0-2.0-1.9"	"xvenkz"	"563"	"1199"	"chrome"	"110.0.0"	"FALSE"	"Windows 10"	"60.47"	"030"	n/a	n/a	n/a	n/a	n/a	n/a	"Trial"	n/a	n/a	n/a	"656"	"arrowright"	n/a	"NULL"	"NULL"	"NULL"	"stimuli/Ebbinghaus_0.87143_-0.2800.png"	n/a	"Ebbinghaus"	"arrowright"	"1448"	"TRUE"	"Ebbinghaus"	"0.8714300000"	"-0.280000000"	"2"	"10"
n/a	"html-keyboard-response"	"204"	"382252"	"0.0-6.0-2.0-0.10"	"xvenkz"	"563"	"1199"	"chrome"	"110.0.0"	"FALSE"	"Windows 10"	"60.47"	"030"	n/a	n/a	n/a	n/a	n/a	n/a	"fixation"	n/a	n/a	n/a	n/a	"NULL"	n/a	"NULL"	"NULL"	"NULL"	"<p style=\"color: black; font-size: 80px; padding-left: 27%; padding-right: 7%; padding-top: 30%; padding-bottom: 2%\">+</p>"	"1104"	n/a	n/a	n/a	n/a	n/a	n/a	n/a	n/a	n/a
n/a	"image-keyboard-response"	"205"	"382780"	"0.0-6.0-2.0-1.10"	"xvenkz"	"563"	"1199"	"chrome"	"110.0.0"	"FALSE"	"Windows 10"	"60.47"	"030"	n/a	n/a	n/a	n/a	n/a	n/a	"Trial"	n/a	n/a	n/a	"528"	"arrowright"	n/a	"NULL"	"NULL"	"NULL"	"stimuli/Ebbinghaus_0.10000_-0.2150.png"	n/a	"Ebbinghaus"	"arrowright"	"1109"	"TRUE"	"Ebbinghaus"	"0.1000000000"	"-0.215000000"	"2"	"11"
n/a	"html-keyboard-response"	"206"	"383792"	"0.0-6.0-2.0-0.11"	"xvenkz"	"563"	"1199"	"chrome"	"110.0.0"	"FALSE"	"Windows 10"	"60.47"	"030"	n/a	n/a	n/a	n/a	n/a	n/a	"fixation"	n/a	n/a	n/a	n/a	"NULL"	n/a	"NULL"	"NULL"	"NULL"	"<p style=\"color: black; font-size: 80px; padding-left: 50%; padding-right: 14%; padding-top: 33%; padding-bottom: 30%\">+</p>"	"1009"	n/a	n/a	n/a	n/a	n/a	n/a	n/a	n/a	n/a
n/a	"image-keyboard-response"	"207"	"384366"	"0.0-6.0-2.0-1.11"	"xvenkz"	"563"	"1199"	"chrome"	"110.0.0"	"FALSE"	"Windows 10"	"60.47"	"030"	n/a	n/a	n/a	n/a	n/a	n/a	"Trial"	n/a	n/a	n/a	"573"	"arrowleft"	n/a	"NULL"	"NULL"	"NULL"	"stimuli/Ebbinghaus_-0.1000_-0.11071.png"	n/a	"Ebbinghaus"	"arrowright"	"1012"	"FALSE"	"Ebbinghaus"	"-0.100000000"	"-0.110710000"	"2"	"12"
n/a	"html-keyboard-response"	"208"	"385582"	"0.0-6.0-2.0-0.12"	"xvenkz"	"563"	"1199"	"chrome"	"110.0.0"	"FALSE"	"Windows 10"	"60.47"	"030"	n/a	n/a	n/a	n/a	n/a	n/a	"fixation"	n/a	n/a	n/a	n/a	"NULL"	n/a	"NULL"	"NULL"	"NULL"	"<p style=\"color: black; font-size: 80px; padding-left: 47%; padding-right: 34%; padding-top: 47%; padding-bottom: 47%\">+</p>"	"1208"	n/a	n/a	n/a	n/a	n/a	n/a	n/a	n/a	n/a
n/a	"image-keyboard-response"	"209"	"386267"	"0.0-6.0-2.0-1.12"	"xvenkz"	"563"	"1199"	"chrome"	"110.0.0"	"FALSE"	"Windows 10"	"60.47"	"030"	n/a	n/a	n/a	n/a	n/a	n/a	"Trial"	n/a	n/a	n/a	"685"	"arrowleft"	n/a	"NULL"	"NULL"	"NULL"	"stimuli/Ebbinghaus_-0.61429_0.11071.png"	n/a	"Ebbinghaus"	"arrowleft"	"1216"	"TRUE"	"Ebbinghaus"	"-0.614290000"	"0.1107100000"	"2"	"13"
n/a	"html-keyboard-response"	"210"	"387488"	"0.0-6.0-2.0-0.13"	"xvenkz"	"563"	"1199"	"chrome"	"110.0.0"	"FALSE"	"Windows 10"	"60.47"	"030"	n/a	n/a	n/a	n/a	n/a	n/a	"fixation"	n/a	n/a	n/a	n/a	"NULL"	n/a	"NULL"	"NULL"	"NULL"	"<p style=\"color: black; font-size: 80px; padding-left: 7%; padding-right: 48%; padding-top: 8%; padding-bottom: 27%\">+</p>"	"1208"	n/a	n/a	n/a	n/a	n/a	n/a	n/a	n/a	n/a
n/a	"image-keyboard-response"	"211"	"388050"	"0.0-6.0-2.0-1.13"	"xvenkz"	"563"	"1199"	"chrome"	"110.0.0"	"FALSE"	"Windows 10"	"60.47"	"030"	n/a	n/a	n/a	n/a	n/a	n/a	"Trial"	n/a	n/a	n/a	"562"	"arrowleft"	n/a	"NULL"	"NULL"	"NULL"	"stimuli/Ebbinghaus_-0.87143_0.28000.png"	n/a	"Ebbinghaus"	"arrowleft"	"1221"	"TRUE"	"Ebbinghaus"	"-0.871430000"	"0.2800000000"	"2"	"14"
n/a	"html-keyboard-response"	"212"	"389274"	"0.0-6.0-2.0-0.14"	"xvenkz"	"563"	"1199"	"chrome"	"110.0.0"	"FALSE"	"Windows 10"	"60.47"	"030"	n/a	n/a	n/a	n/a	n/a	n/a	"fixation"	n/a	n/a	n/a	n/a	"NULL"	n/a	"NULL"	"NULL"	"NULL"	"<p style=\"color: black; font-size: 80px; padding-left: 0%; padding-right: 13%; padding-top: 47%; padding-bottom: 48%\">+</p>"	"1211"	n/a	n/a	n/a	n/a	n/a	n/a	n/a	n/a	n/a
n/a	"image-keyboard-response"	"213"	"389918"	"0.0-6.0-2.0-1.14"	"xvenkz"	"563"	"1199"	"chrome"	"110.0.0"	"FALSE"	"Windows 10"	"60.47"	"030"	n/a	n/a	n/a	n/a	n/a	n/a	"Trial"	n/a	n/a	n/a	"644"	"arrowright"	n/a	"NULL"	"NULL"	"NULL"	"stimuli/Ebbinghaus_-0.87143_-0.15857.png"	n/a	"Ebbinghaus"	"arrowright"	"1224"	"TRUE"	"Ebbinghaus"	"-0.871430000"	"-0.158570000"	"2"	"15"
n/a	"html-keyboard-response"	"214"	"391049"	"0.0-6.0-2.0-0.15"	"xvenkz"	"563"	"1199"	"chrome"	"110.0.0"	"FALSE"	"Windows 10"	"60.47"	"030"	n/a	n/a	n/a	n/a	n/a	n/a	"fixation"	n/a	n/a	n/a	n/a	"NULL"	n/a	"NULL"	"NULL"	"NULL"	"<p style=\"color: black; font-size: 80px; padding-left: 39%; padding-right: 22%; padding-top: 50%; padding-bottom: 16%\">+</p>"	"1121"	n/a	n/a	n/a	n/a	n/a	n/a	n/a	n/a	n/a
n/a	"image-keyboard-response"	"215"	"391774"	"0.0-6.0-2.0-1.15"	"xvenkz"	"563"	"1199"	"chrome"	"110.0.0"	"FALSE"	"Windows 10"	"60.47"	"030"	n/a	n/a	n/a	n/a	n/a	n/a	"Trial"	n/a	n/a	n/a	"724"	"arrowleft"	n/a	"NULL"	"NULL"	"NULL"	"stimuli/Ebbinghaus_0.87143_-0.11071.png"	n/a	"Ebbinghaus"	"arrowright"	"1131"	"FALSE"	"Ebbinghaus"	"0.8714300000"	"-0.110710000"	"2"	"16"
n/a	"html-keyboard-response"	"216"	"393022"	"0.0-6.0-2.0-0.16"	"xvenkz"	"563"	"1199"	"chrome"	"110.0.0"	"FALSE"	"Windows 10"	"60.47"	"030"	n/a	n/a	n/a	n/a	n/a	n/a	"fixation"	n/a	n/a	n/a	n/a	"NULL"	n/a	"NULL"	"NULL"	"NULL"	"<p style=\"color: black; font-size: 80px; padding-left: 3%; padding-right: 39%; padding-top: 28%; padding-bottom: 17%\">+</p>"	"1246"	n/a	n/a	n/a	n/a	n/a	n/a	n/a	n/a	n/a
n/a	"image-keyboard-response"	"217"	"393727"	"0.0-6.0-2.0-1.16"	"xvenkz"	"563"	"1199"	"chrome"	"110.0.0"	"FALSE"	"Windows 10"	"60.47"	"030"	n/a	n/a	n/a	n/a	n/a	n/a	"Trial"	n/a	n/a	n/a	"704"	"arrowright"	n/a	"NULL"	"NULL"	"NULL"	"stimuli/Ebbinghaus_-0.35714_-0.15857.png"	n/a	"Ebbinghaus"	"arrowright"	"1248"	"TRUE"	"Ebbinghaus"	"-0.357140000"	"-0.158570000"	"2"	"17"
n/a	"html-keyboard-response"	"218"	"394792"	"0.0-6.0-2.0-0.17"	"xvenkz"	"563"	"1199"	"chrome"	"110.0.0"	"FALSE"	"Windows 10"	"60.47"	"030"	n/a	n/a	n/a	n/a	n/a	n/a	"fixation"	n/a	n/a	n/a	n/a	"NULL"	n/a	"NULL"	"NULL"	"NULL"	"<p style=\"color: black; font-size: 80px; padding-left: 1%; padding-right: 20%; padding-top: 2%; padding-bottom: 1%\">+</p>"	"1059"	n/a	n/a	n/a	n/a	n/a	n/a	n/a	n/a	n/a
n/a	"image-keyboard-response"	"219"	"395486"	"0.0-6.0-2.0-1.17"	"xvenkz"	"563"	"1199"	"chrome"	"110.0.0"	"FALSE"	"Windows 10"	"60.47"	"030"	n/a	n/a	n/a	n/a	n/a	n/a	"Trial"	n/a	n/a	n/a	"693"	"arrowleft"	n/a	"NULL"	"NULL"	"NULL"	"stimuli/Ebbinghaus_0.61429_0.28000.png"	n/a	"Ebbinghaus"	"arrowleft"	"1065"	"TRUE"	"Ebbinghaus"	"0.6142900000"	"0.2800000000"	"2"	"18"
n/a	"html-keyboard-response"	"220"	"396770"	"0.0-6.0-2.0-0.18"	"xvenkz"	"563"	"1199"	"chrome"	"110.0.0"	"FALSE"	"Windows 10"	"60.47"	"030"	n/a	n/a	n/a	n/a	n/a	n/a	"fixation"	n/a	n/a	n/a	n/a	"NULL"	n/a	"NULL"	"NULL"	"NULL"	"<p style=\"color: black; font-size: 80px; padding-left: 7%; padding-right: 8%; padding-top: 19%; padding-bottom: 23%\">+</p>"	"1275"	n/a	n/a	n/a	n/a	n/a	n/a	n/a	n/a	n/a
n/a	"image-keyboard-response"	"221"	"397625"	"0.0-6.0-2.0-1.18"	"xvenkz"	"563"	"1199"	"chrome"	"110.0.0"	"FALSE"	"Windows 10"	"60.47"	"030"	n/a	n/a	n/a	n/a	n/a	n/a	"Trial"	n/a	n/a	n/a	"855"	"arrowleft"	n/a	"NULL"	"NULL"	"NULL"	"stimuli/Ebbinghaus_-0.35714_0.21500.png"	n/a	"Ebbinghaus"	"arrowleft"	"1284"	"TRUE"	"Ebbinghaus"	"-0.357140000"	"0.2150000000"	"2"	"19"
n/a	"html-keyboard-response"	"222"	"398822"	"0.0-6.0-2.0-0.19"	"xvenkz"	"563"	"1199"	"chrome"	"110.0.0"	"FALSE"	"Windows 10"	"60.47"	"030"	n/a	n/a	n/a	n/a	n/a	n/a	"fixation"	n/a	n/a	n/a	n/a	"NULL"	n/a	"NULL"	"NULL"	"NULL"	"<p style=\"color: black; font-size: 80px; padding-left: 23%; padding-right: 23%; padding-top: 29%; padding-bottom: 43%\">+</p>"	"1186"	n/a	n/a	n/a	n/a	n/a	n/a	n/a	n/a	n/a
n/a	"image-keyboard-response"	"223"	"399589"	"0.0-6.0-2.0-1.19"	"xvenkz"	"563"	"1199"	"chrome"	"110.0.0"	"FALSE"	"Windows 10"	"60.47"	"030"	n/a	n/a	n/a	n/a	n/a	n/a	"Trial"	n/a	n/a	n/a	"767"	"arrowleft"	n/a	"NULL"	"NULL"	"NULL"	"stimuli/Ebbinghaus_0.61429_-0.15857.png"	n/a	"Ebbinghaus"	"arrowright"	"1197"	"FALSE"	"Ebbinghaus"	"0.6142900000"	"-0.158570000"	"2"	"20"
n/a	"html-keyboard-response"	"224"	"401072"	"0.0-6.0-2.0-0.20"	"xvenkz"	"563"	"1199"	"chrome"	"110.0.0"	"FALSE"	"Windows 10"	"60.47"	"030"	n/a	n/a	n/a	n/a	n/a	n/a	"fixation"	n/a	n/a	n/a	n/a	"NULL"	n/a	"NULL"	"NULL"	"NULL"	"<p style=\"color: black; font-size: 80px; padding-left: 9%; padding-right: 8%; padding-top: 8%; padding-bottom: 16%\">+</p>"	"1474"	n/a	n/a	n/a	n/a	n/a	n/a	n/a	n/a	n/a
n/a	"image-keyboard-response"	"225"	"401597"	"0.0-6.0-2.0-1.20"	"xvenkz"	"563"	"1199"	"chrome"	"110.0.0"	"FALSE"	"Windows 10"	"60.47"	"030"	n/a	n/a	n/a	n/a	n/a	n/a	"Trial"	n/a	n/a	n/a	"525"	"arrowleft"	n/a	"NULL"	"NULL"	"NULL"	"stimuli/Ebbinghaus_-0.35714_0.28000.png"	n/a	"Ebbinghaus"	"arrowleft"	"1483"	"TRUE"	"Ebbinghaus"	"-0.357140000"	"0.2800000000"	"2"	"21"
n/a	"html-keyboard-response"	"226"	"402995"	"0.0-6.0-2.0-0.21"	"xvenkz"	"563"	"1199"	"chrome"	"110.0.0"	"FALSE"	"Windows 10"	"60.47"	"030"	n/a	n/a	n/a	n/a	n/a	n/a	"fixation"	n/a	n/a	n/a	n/a	"NULL"	n/a	"NULL"	"NULL"	"NULL"	"<p style=\"color: black; font-size: 80px; padding-left: 38%; padding-right: 4%; padding-top: 22%; padding-bottom: 35%\">+</p>"	"1386"	n/a	n/a	n/a	n/a	n/a	n/a	n/a	n/a	n/a
n/a	"image-keyboard-response"	"227"	"403542"	"0.0-6.0-2.0-1.21"	"xvenkz"	"563"	"1199"	"chrome"	"110.0.0"	"FALSE"	"Windows 10"	"60.47"	"030"	n/a	n/a	n/a	n/a	n/a	n/a	"Trial"	n/a	n/a	n/a	"546"	"arrowleft"	n/a	"NULL"	"NULL"	"NULL"	"stimuli/Ebbinghaus_-0.87143_0.11071.png"	n/a	"Ebbinghaus"	"arrowleft"	"1398"	"TRUE"	"Ebbinghaus"	"-0.871430000"	"0.1107100000"	"2"	"22"
n/a	"html-keyboard-response"	"228"	"405027"	"0.0-6.0-2.0-0.22"	"xvenkz"	"563"	"1199"	"chrome"	"110.0.0"	"FALSE"	"Windows 10"	"60.47"	"030"	n/a	n/a	n/a	n/a	n/a	n/a	"fixation"	n/a	n/a	n/a	n/a	"NULL"	n/a	"NULL"	"NULL"	"NULL"	"<p style=\"color: black; font-size: 80px; padding-left: 27%; padding-right: 0%; padding-top: 38%; padding-bottom: 14%\">+</p>"	"1476"	n/a	n/a	n/a	n/a	n/a	n/a	n/a	n/a	n/a
n/a	"image-keyboard-response"	"229"	"405576"	"0.0-6.0-2.0-1.22"	"xvenkz"	"563"	"1199"	"chrome"	"110.0.0"	"FALSE"	"Windows 10"	"60.47"	"030"	n/a	n/a	n/a	n/a	n/a	n/a	"Trial"	n/a	n/a	n/a	"548"	"arrowleft"	n/a	"NULL"	"NULL"	"NULL"	"stimuli/Ebbinghaus_0.35714_0.11071.png"	n/a	"Ebbinghaus"	"arrowleft"	"1485"	"TRUE"	"Ebbinghaus"	"0.3571400000"	"0.1107100000"	"2"	"23"
n/a	"html-keyboard-response"	"230"	"406723"	"0.0-6.0-2.0-0.23"	"xvenkz"	"563"	"1199"	"chrome"	"110.0.0"	"FALSE"	"Windows 10"	"60.47"	"030"	n/a	n/a	n/a	n/a	n/a	n/a	"fixation"	n/a	n/a	n/a	n/a	"NULL"	n/a	"NULL"	"NULL"	"NULL"	"<p style=\"color: black; font-size: 80px; padding-left: 49%; padding-right: 11%; padding-top: 12%; padding-bottom: 12%\">+</p>"	"1138"	n/a	n/a	n/a	n/a	n/a	n/a	n/a	n/a	n/a
n/a	"image-keyboard-response"	"231"	"407337"	"0.0-6.0-2.0-1.23"	"xvenkz"	"563"	"1199"	"chrome"	"110.0.0"	"FALSE"	"Windows 10"	"60.47"	"030"	n/a	n/a	n/a	n/a	n/a	n/a	"Trial"	n/a	n/a	n/a	"613"	"arrowright"	n/a	"NULL"	"NULL"	"NULL"	"stimuli/Ebbinghaus_-0.1000_-0.2800.png"	n/a	"Ebbinghaus"	"arrowright"	"1147"	"TRUE"	"Ebbinghaus"	"-0.100000000"	"-0.280000000"	"2"	"24"
n/a	"html-keyboard-response"	"232"	"408452"	"0.0-6.0-2.0-0.24"	"xvenkz"	"563"	"1199"	"chrome"	"110.0.0"	"FALSE"	"Windows 10"	"60.47"	"030"	n/a	n/a	n/a	n/a	n/a	n/a	"fixation"	n/a	n/a	n/a	n/a	"NULL"	n/a	"NULL"	"NULL"	"NULL"	"<p style=\"color: black; font-size: 80px; padding-left: 37%; padding-right: 29%; padding-top: 49%; padding-bottom: 42%\">+</p>"	"1109"	n/a	n/a	n/a	n/a	n/a	n/a	n/a	n/a	n/a
n/a	"image-keyboard-response"	"233"	"409190"	"0.0-6.0-2.0-1.24"	"xvenkz"	"563"	"1199"	"chrome"	"110.0.0"	"FALSE"	"Windows 10"	"60.47"	"030"	n/a	n/a	n/a	n/a	n/a	n/a	"Trial"	n/a	n/a	n/a	"737"	"arrowleft"	n/a	"NULL"	"NULL"	"NULL"	"stimuli/Ebbinghaus_0.61429_0.15857.png"	n/a	"Ebbinghaus"	"arrowleft"	"1115"	"TRUE"	"Ebbinghaus"	"0.6142900000"	"0.1585700000"	"2"	"25"
n/a	"html-keyboard-response"	"234"	"410213"	"0.0-6.0-2.0-0.25"	"xvenkz"	"563"	"1199"	"chrome"	"110.0.0"	"FALSE"	"Windows 10"	"60.47"	"030"	n/a	n/a	n/a	n/a	n/a	n/a	"fixation"	n/a	n/a	n/a	n/a	"NULL"	n/a	"NULL"	"NULL"	"NULL"	"<p style=\"color: black; font-size: 80px; padding-left: 2%; padding-right: 47%; padding-top: 41%; padding-bottom: 20%\">+</p>"	"1015"	n/a	n/a	n/a	n/a	n/a	n/a	n/a	n/a	n/a
n/a	"image-keyboard-response"	"235"	"410803"	"0.0-6.0-2.0-1.25"	"xvenkz"	"563"	"1199"	"chrome"	"110.0.0"	"FALSE"	"Windows 10"	"60.47"	"030"	n/a	n/a	n/a	n/a	n/a	n/a	"Trial"	n/a	n/a	n/a	"589"	"arrowleft"	n/a	"NULL"	"NULL"	"NULL"	"stimuli/Ebbinghaus_-0.87143_0.21500.png"	n/a	"Ebbinghaus"	"arrowleft"	"1023"	"TRUE"	"Ebbinghaus"	"-0.871430000"	"0.2150000000"	"2"	"26"
n/a	"html-keyboard-response"	"236"	"411817"	"0.0-6.0-2.0-0.26"	"xvenkz"	"563"	"1199"	"chrome"	"110.0.0"	"FALSE"	"Windows 10"	"60.47"	"030"	n/a	n/a	n/a	n/a	n/a	n/a	"fixation"	n/a	n/a	n/a	n/a	"NULL"	n/a	"NULL"	"NULL"	"NULL"	"<p style=\"color: black; font-size: 80px; padding-left: 4%; padding-right: 28%; padding-top: 15%; padding-bottom: 43%\">+</p>"	"1006"	n/a	n/a	n/a	n/a	n/a	n/a	n/a	n/a	n/a
n/a	"image-keyboard-response"	"237"	"412335"	"0.0-6.0-2.0-1.26"	"xvenkz"	"563"	"1199"	"chrome"	"110.0.0"	"FALSE"	"Windows 10"	"60.47"	"030"	n/a	n/a	n/a	n/a	n/a	n/a	"Trial"	n/a	n/a	n/a	"518"	"arrowleft"	n/a	"NULL"	"NULL"	"NULL"	"stimuli/Ebbinghaus_0.87143_0.28000.png"	n/a	"Ebbinghaus"	"arrowleft"	"1014"	"TRUE"	"Ebbinghaus"	"0.8714300000"	"0.2800000000"	"2"	"27"
n/a	"html-keyboard-response"	"238"	"413387"	"0.0-6.0-2.0-0.27"	"xvenkz"	"563"	"1199"	"chrome"	"110.0.0"	"FALSE"	"Windows 10"	"60.47"	"030"	n/a	n/a	n/a	n/a	n/a	n/a	"fixation"	n/a	n/a	n/a	n/a	"NULL"	n/a	"NULL"	"NULL"	"NULL"	"<p style=\"color: black; font-size: 80px; padding-left: 39%; padding-right: 17%; padding-top: 23%; padding-bottom: 39%\">+</p>"	"1045"	n/a	n/a	n/a	n/a	n/a	n/a	n/a	n/a	n/a
n/a	"image-keyboard-response"	"239"	"413971"	"0.0-6.0-2.0-1.27"	"xvenkz"	"563"	"1199"	"chrome"	"110.0.0"	"FALSE"	"Windows 10"	"60.47"	"030"	n/a	n/a	n/a	n/a	n/a	n/a	"Trial"	n/a	n/a	n/a	"584"	"arrowleft"	n/a	"NULL"	"NULL"	"NULL"	"stimuli/Ebbinghaus_-0.35714_0.11071.png"	n/a	"Ebbinghaus"	"arrowleft"	"1052"	"TRUE"	"Ebbinghaus"	"-0.357140000"	"0.1107100000"	"2"	"28"
n/a	"html-keyboard-response"	"240"	"415167"	"0.0-6.0-2.0-0.28"	"xvenkz"	"563"	"1199"	"chrome"	"110.0.0"	"FALSE"	"Windows 10"	"60.47"	"030"	n/a	n/a	n/a	n/a	n/a	n/a	"fixation"	n/a	n/a	n/a	n/a	"NULL"	n/a	"NULL"	"NULL"	"NULL"	"<p style=\"color: black; font-size: 80px; padding-left: 3%; padding-right: 18%; padding-top: 43%; padding-bottom: 33%\">+</p>"	"1191"	n/a	n/a	n/a	n/a	n/a	n/a	n/a	n/a	n/a
n/a	"image-keyboard-response"	"241"	"415799"	"0.0-6.0-2.0-1.28"	"xvenkz"	"563"	"1199"	"chrome"	"110.0.0"	"FALSE"	"Windows 10"	"60.47"	"030"	n/a	n/a	n/a	n/a	n/a	n/a	"Trial"	n/a	n/a	n/a	"630"	"arrowleft"	n/a	"NULL"	"NULL"	"NULL"	"stimuli/Ebbinghaus_-0.61429_-0.15857.png"	n/a	"Ebbinghaus"	"arrowright"	"1196"	"FALSE"	"Ebbinghaus"	"-0.614290000"	"-0.158570000"	"2"	"29"
n/a	"html-keyboard-response"	"242"	"417170"	"0.0-6.0-2.0-0.29"	"xvenkz"	"563"	"1199"	"chrome"	"110.0.0"	"FALSE"	"Windows 10"	"60.47"	"030"	n/a	n/a	n/a	n/a	n/a	n/a	"fixation"	n/a	n/a	n/a	n/a	"NULL"	n/a	"NULL"	"NULL"	"NULL"	"<p style=\"color: black; font-size: 80px; padding-left: 45%; padding-right: 30%; padding-top: 22%; padding-bottom: 32%\">+</p>"	"1370"	n/a	n/a	n/a	n/a	n/a	n/a	n/a	n/a	n/a
n/a	"image-keyboard-response"	"243"	"417760"	"0.0-6.0-2.0-1.29"	"xvenkz"	"563"	"1199"	"chrome"	"110.0.0"	"FALSE"	"Windows 10"	"60.47"	"030"	n/a	n/a	n/a	n/a	n/a	n/a	"Trial"	n/a	n/a	n/a	"590"	"arrowleft"	n/a	"NULL"	"NULL"	"NULL"	"stimuli/Ebbinghaus_-0.35714_-0.11071.png"	n/a	"Ebbinghaus"	"arrowright"	"1371"	"FALSE"	"Ebbinghaus"	"-0.357140000"	"-0.110710000"	"2"	"30"
n/a	"html-keyboard-response"	"244"	"418812"	"0.0-6.0-2.0-0.30"	"xvenkz"	"563"	"1199"	"chrome"	"110.0.0"	"FALSE"	"Windows 10"	"60.47"	"030"	n/a	n/a	n/a	n/a	n/a	n/a	"fixation"	n/a	n/a	n/a	n/a	"NULL"	n/a	"NULL"	"NULL"	"NULL"	"<p style=\"color: black; font-size: 80px; padding-left: 37%; padding-right: 18%; padding-top: 40%; padding-bottom: 2%\">+</p>"	"1048"	n/a	n/a	n/a	n/a	n/a	n/a	n/a	n/a	n/a
n/a	"image-keyboard-response"	"245"	"419536"	"0.0-6.0-2.0-1.30"	"xvenkz"	"563"	"1199"	"chrome"	"110.0.0"	"FALSE"	"Windows 10"	"60.47"	"030"	n/a	n/a	n/a	n/a	n/a	n/a	"Trial"	n/a	n/a	n/a	"724"	"arrowright"	n/a	"NULL"	"NULL"	"NULL"	"stimuli/Ebbinghaus_0.61429_-0.2800.png"	n/a	"Ebbinghaus"	"arrowright"	"1052"	"TRUE"	"Ebbinghaus"	"0.6142900000"	"-0.280000000"	"2"	"31"
n/a	"html-keyboard-response"	"246"	"420941"	"0.0-6.0-2.0-0.31"	"xvenkz"	"563"	"1199"	"chrome"	"110.0.0"	"FALSE"	"Windows 10"	"60.47"	"030"	n/a	n/a	n/a	n/a	n/a	n/a	"fixation"	n/a	n/a	n/a	n/a	"NULL"	n/a	"NULL"	"NULL"	"NULL"	"<p style=\"color: black; font-size: 80px; padding-left: 36%; padding-right: 1%; padding-top: 15%; padding-bottom: 2%\">+</p>"	"1399"	n/a	n/a	n/a	n/a	n/a	n/a	n/a	n/a	n/a
n/a	"image-keyboard-response"	"247"	"421742"	"0.0-6.0-2.0-1.31"	"xvenkz"	"563"	"1199"	"chrome"	"110.0.0"	"FALSE"	"Windows 10"	"60.47"	"030"	n/a	n/a	n/a	n/a	n/a	n/a	"Trial"	n/a	n/a	n/a	"801"	"arrowleft"	n/a	"NULL"	"NULL"	"NULL"	"stimuli/Ebbinghaus_-0.1000_0.28000.png"	n/a	"Ebbinghaus"	"arrowleft"	"1405"	"TRUE"	"Ebbinghaus"	"-0.100000000"	"0.2800000000"	"2"	"32"
n/a	"html-keyboard-response"	"248"	"422820"	"0.0-6.0-2.0-0.32"	"xvenkz"	"563"	"1199"	"chrome"	"110.0.0"	"FALSE"	"Windows 10"	"60.47"	"030"	n/a	n/a	n/a	n/a	n/a	n/a	"fixation"	n/a	n/a	n/a	n/a	"NULL"	n/a	"NULL"	"NULL"	"NULL"	"<p style=\"color: black; font-size: 80px; padding-left: 14%; padding-right: 44%; padding-top: 47%; padding-bottom: 47%\">+</p>"	"1071"	n/a	n/a	n/a	n/a	n/a	n/a	n/a	n/a	n/a
n/a	"image-keyboard-response"	"249"	"423690"	"0.0-6.0-2.0-1.32"	"xvenkz"	"563"	"1199"	"chrome"	"110.0.0"	"FALSE"	"Windows 10"	"60.47"	"030"	n/a	n/a	n/a	n/a	n/a	n/a	"Trial"	n/a	n/a	n/a	"869"	"arrowleft"	n/a	"NULL"	"NULL"	"NULL"	"stimuli/Ebbinghaus_-0.61429_0.15857.png"	n/a	"Ebbinghaus"	"arrowleft"	"1078"	"TRUE"	"Ebbinghaus"	"-0.614290000"	"0.1585700000"	"2"	"33"
n/a	"html-keyboard-response"	"250"	"425091"	"0.0-6.0-2.0-0.33"	"xvenkz"	"563"	"1199"	"chrome"	"110.0.0"	"FALSE"	"Windows 10"	"60.47"	"030"	n/a	n/a	n/a	n/a	n/a	n/a	"fixation"	n/a	n/a	n/a	n/a	"NULL"	n/a	"NULL"	"NULL"	"NULL"	"<p style=\"color: black; font-size: 80px; padding-left: 39%; padding-right: 5%; padding-top: 32%; padding-bottom: 36%\">+</p>"	"1391"	n/a	n/a	n/a	n/a	n/a	n/a	n/a	n/a	n/a
n/a	"image-keyboard-response"	"251"	"425740"	"0.0-6.0-2.0-1.33"	"xvenkz"	"563"	"1199"	"chrome"	"110.0.0"	"FALSE"	"Windows 10"	"60.47"	"030"	n/a	n/a	n/a	n/a	n/a	n/a	"Trial"	n/a	n/a	n/a	"649"	"arrowleft"	n/a	"NULL"	"NULL"	"NULL"	"stimuli/Ebbinghaus_0.87143_-0.15857.png"	n/a	"Ebbinghaus"	"arrowright"	"1401"	"FALSE"	"Ebbinghaus"	"0.8714300000"	"-0.158570000"	"2"	"34"
n/a	"html-keyboard-response"	"252"	"427000"	"0.0-6.0-2.0-0.34"	"xvenkz"	"563"	"1199"	"chrome"	"110.0.0"	"FALSE"	"Windows 10"	"60.47"	"030"	n/a	n/a	n/a	n/a	n/a	n/a	"fixation"	n/a	n/a	n/a	n/a	"NULL"	n/a	"NULL"	"NULL"	"NULL"	"<p style=\"color: black; font-size: 80px; padding-left: 20%; padding-right: 42%; padding-top: 48%; padding-bottom: 39%\">+</p>"	"1245"	n/a	n/a	n/a	n/a	n/a	n/a	n/a	n/a	n/a
n/a	"image-keyboard-response"	"253"	"427711"	"0.0-6.0-2.0-1.34"	"xvenkz"	"563"	"1199"	"chrome"	"110.0.0"	"FALSE"	"Windows 10"	"60.47"	"030"	n/a	n/a	n/a	n/a	n/a	n/a	"Trial"	n/a	n/a	n/a	"710"	"arrowright"	n/a	"NULL"	"NULL"	"NULL"	"stimuli/Ebbinghaus_-0.35714_-0.2800.png"	n/a	"Ebbinghaus"	"arrowright"	"1260"	"TRUE"	"Ebbinghaus"	"-0.357140000"	"-0.280000000"	"2"	"35"
