"success"	"trial_type"	"trial_index"	"time_elapsed"	"internal_node_id"	"participant_id"	"screen_height"	"screen_width"	"browser"	"browser_version"	"mobile"	"os"	"vsync_rate"	"subject_id"	"width"	"height"	"webaudio"	"fullscreen"	"webcam"	"microphone"	"screen"	"version"	"date"	"time"	"rt"	"response"	"timeout"	"failed_images"	"failed_audio"	"failed_video"	"stimulus"	"trial_duration"	"block"	"correct_response"	"prestimulus_duration"	"correct"	"type"	"illusion_strength"	"illusion_difference"	"block_number"	"trial_number"
"TRUE"	"fullscreen"	"0"	"1813"	"0.0-0.0"	"m1s1tc"	"600"	"1366"	"chrome"	"111.0.0"	"FALSE"	"Windows 10"	"60.42"	"045"	n/a	n/a	n/a	n/a	n/a	n/a	n/a	n/a	n/a	n/a	n/a	"NULL"	n/a	"NULL"	"NULL"	"NULL"	n/a	n/a	n/a	n/a	n/a	n/a	n/a	n/a	n/a	n/a	n/a
n/a	"browser-check"	"1"	"2820"	"0.0-1.0"	"m1s1tc"	"600"	"1366"	"chrome"	"111.0.0"	"FALSE"	"Windows 10"	"60.42"	"045"	"1366"	"600"	"TRUE"	"TRUE"	"TRUE"	"TRUE"	"browser_info"	"1.0"	"15/03/2023"	"17:44:09"	n/a	"NULL"	n/a	"NULL"	"NULL"	"NULL"	n/a	n/a	n/a	n/a	n/a	n/a	n/a	n/a	n/a	n/a	n/a
n/a	"survey-text"	"2"	"5686"	"0.0-2.0"	"m1s1tc"	"600"	"1366"	"chrome"	"111.0.0"	"FALSE"	"Windows 10"	"60.42"	"045"	n/a	n/a	n/a	n/a	n/a	n/a	"subject_id"	n/a	n/a	n/a	"2862"	"list(subject_id = \"045\")"	n/a	"NULL"	"NULL"	"NULL"	n/a	n/a	n/a	n/a	n/a	n/a	n/a	n/a	n/a	n/a	n/a
"TRUE"	"preload"	"3"	"5699"	"0.0-3.0"	"m1s1tc"	"600"	"1366"	"chrome"	"111.0.0"	"FALSE"	"Windows 10"	"60.42"	"045"	n/a	n/a	n/a	n/a	n/a	n/a	n/a	n/a	n/a	n/a	n/a	"NULL"	"FALSE"	"list()"	"list()"	"list()"	n/a	n/a	n/a	n/a	n/a	n/a	n/a	n/a	n/a	n/a	n/a
n/a	"html-button-response"	"4"	"23984"	"0.0-4.0-0.0"	"m1s1tc"	"600"	"1366"	"chrome"	"111.0.0"	"FALSE"	"Windows 10"	"60.42"	"045"	n/a	n/a	n/a	n/a	n/a	n/a	"illusion_instructions"	n/a	n/a	n/a	"18285"	"0"	n/a	"NULL"	"NULL"	"NULL"	"<p><b>Illusion Game</b></p><p>In this game of speed and reflex, you will need to make <b>visual judgments</b> (for instance, which circle is the biggest, or which line is the longest), as fast and as correctly as possible, while <b>resisting different visual illusions</b>.</p><p>We are going to start with some examples of all the illusions you will encounter in the game.</p>"	n/a	n/a	n/a	n/a	n/a	n/a	n/a	n/a	n/a	n/a
"TRUE"	"preload"	"5"	"24326"	"0.0-4.0-1.0-0.0"	"m1s1tc"	"600"	"1366"	"chrome"	"111.0.0"	"FALSE"	"Windows 10"	"60.42"	"045"	n/a	n/a	n/a	n/a	n/a	n/a	n/a	n/a	n/a	n/a	n/a	"NULL"	"FALSE"	"list()"	"list()"	"list()"	n/a	n/a	n/a	n/a	n/a	n/a	n/a	n/a	n/a	n/a	n/a
n/a	"html-keyboard-response"	"6"	"51183"	"0.0-4.0-1.0-1.0"	"m1s1tc"	"600"	"1366"	"chrome"	"111.0.0"	"FALSE"	"Windows 10"	"60.42"	"045"	n/a	n/a	n/a	n/a	n/a	n/a	n/a	n/a	n/a	n/a	"26856"	"enter"	n/a	"NULL"	"NULL"	"NULL"	"<p><b>Practice</b></p><p>In this part, two red circles will appear side by side on the screen.</p><p>Your task is to select which <b>red circle is bigger</b> in size as fast as you can, without making errors.</p><p>Don't get distracted by the surrounding black circles around the red circles!</p><p>Press <b>the LEFT or the RIGHT arrow</b> to indicate which is the bigger <b>red circle.</b></p><div style='float: center'><img src='materials/instructions/Ebbinghaus_Demo.png' height='300'></img><p><img src='utils/answer/answer_leftright_keyboard.PNG' height='150'></img></p><p class='small'>In this example, the correct answer is the <b>LEFT arrow</b>.</p></div><p>Are you ready? <b>Press ENTER to start</b></p>"	n/a	n/a	n/a	n/a	n/a	n/a	n/a	n/a	n/a	n/a
n/a	"html-keyboard-response"	"7"	"52859"	"0.0-4.0-1.0-2.0-0.0"	"m1s1tc"	"600"	"1366"	"chrome"	"111.0.0"	"FALSE"	"Windows 10"	"60.42"	"045"	n/a	n/a	n/a	n/a	n/a	n/a	"fixation"	n/a	n/a	n/a	n/a	"NULL"	n/a	"NULL"	"NULL"	"NULL"	"<p style=\"color: black; font-size: 80px; padding-left: 11%; padding-right: 38%; padding-top: 50%; padding-bottom: 26%\">+</p>"	"1161"	n/a	n/a	n/a	n/a	n/a	n/a	n/a	n/a	n/a
n/a	"image-keyboard-response"	"8"	"53650"	"0.0-4.0-1.0-2.0-1.0"	"m1s1tc"	"600"	"1366"	"chrome"	"111.0.0"	"FALSE"	"Windows 10"	"60.42"	"045"	n/a	n/a	n/a	n/a	n/a	n/a	"Trial"	n/a	n/a	n/a	"763"	"arrowleft"	n/a	"NULL"	"NULL"	"NULL"	"stimuli/Ebbinghaus_-100000_1.40000.png"	n/a	"Ebbinghaus"	"arrowleft"	"1676"	"TRUE"	"Ebbinghaus"	"-10000000000"	"1.4000000000"	"1"	"1"
n/a	"html-keyboard-response"	"9"	"54764"	"0.0-4.0-1.0-2.0-0.1"	"m1s1tc"	"600"	"1366"	"chrome"	"111.0.0"	"FALSE"	"Windows 10"	"60.42"	"045"	n/a	n/a	n/a	n/a	n/a	n/a	"fixation"	n/a	n/a	n/a	n/a	"NULL"	n/a	"NULL"	"NULL"	"NULL"	"<p style=\"color: black; font-size: 80px; padding-left: 38%; padding-right: 24%; padding-top: 20%; padding-bottom: 29%\">+</p>"	"1103"	n/a	n/a	n/a	n/a	n/a	n/a	n/a	n/a	n/a
n/a	"image-keyboard-response"	"10"	"55160"	"0.0-4.0-1.0-2.0-1.1"	"m1s1tc"	"600"	"1366"	"chrome"	"111.0.0"	"FALSE"	"Windows 10"	"60.42"	"045"	n/a	n/a	n/a	n/a	n/a	n/a	"Trial"	n/a	n/a	n/a	"395"	"arrowleft"	n/a	"NULL"	"NULL"	"NULL"	"stimuli/Ebbinghaus_0000000_1.40000.png"	n/a	"Ebbinghaus"	"arrowleft"	"1114"	"TRUE"	"Ebbinghaus"	"000000000000"	"1.4000000000"	"1"	"2"
n/a	"html-keyboard-response"	"11"	"56235"	"0.0-4.0-1.0-2.0-0.2"	"m1s1tc"	"600"	"1366"	"chrome"	"111.0.0"	"FALSE"	"Windows 10"	"60.42"	"045"	n/a	n/a	n/a	n/a	n/a	n/a	"fixation"	n/a	n/a	n/a	n/a	"NULL"	n/a	"NULL"	"NULL"	"NULL"	"<p style=\"color: black; font-size: 80px; padding-left: 13%; padding-right: 19%; padding-top: 46%; padding-bottom: 7%\">+</p>"	"1071"	n/a	n/a	n/a	n/a	n/a	n/a	n/a	n/a	n/a
n/a	"image-keyboard-response"	"12"	"56660"	"0.0-4.0-1.0-2.0-1.2"	"m1s1tc"	"600"	"1366"	"chrome"	"111.0.0"	"FALSE"	"Windows 10"	"60.42"	"045"	n/a	n/a	n/a	n/a	n/a	n/a	"Trial"	n/a	n/a	n/a	"424"	"arrowright"	n/a	"NULL"	"NULL"	"NULL"	"stimuli/Ebbinghaus_0000000_-1.4000.png"	n/a	"Ebbinghaus"	"arrowright"	"1075"	"TRUE"	"Ebbinghaus"	"000000000000"	"-1.400000000"	"1"	"3"
n/a	"html-keyboard-response"	"13"	"57805"	"0.0-4.0-1.0-2.0-0.3"	"m1s1tc"	"600"	"1366"	"chrome"	"111.0.0"	"FALSE"	"Windows 10"	"60.42"	"045"	n/a	n/a	n/a	n/a	n/a	n/a	"fixation"	n/a	n/a	n/a	n/a	"NULL"	n/a	"NULL"	"NULL"	"NULL"	"<p style=\"color: black; font-size: 80px; padding-left: 16%; padding-right: 11%; padding-top: 14%; padding-bottom: 27%\">+</p>"	"1136"	n/a	n/a	n/a	n/a	n/a	n/a	n/a	n/a	n/a
n/a	"image-keyboard-response"	"14"	"58226"	"0.0-4.0-1.0-2.0-1.3"	"m1s1tc"	"600"	"1366"	"chrome"	"111.0.0"	"FALSE"	"Windows 10"	"60.42"	"045"	n/a	n/a	n/a	n/a	n/a	n/a	"Trial"	n/a	n/a	n/a	"419"	"arrowright"	n/a	"NULL"	"NULL"	"NULL"	"stimuli/Ebbinghaus_-100000_-1.4000.png"	n/a	"Ebbinghaus"	"arrowright"	"1145"	"TRUE"	"Ebbinghaus"	"-10000000000"	"-1.400000000"	"1"	"4"
n/a	"html-keyboard-response"	"15"	"59680"	"0.0-4.0-1.0-2.0-0.4"	"m1s1tc"	"600"	"1366"	"chrome"	"111.0.0"	"FALSE"	"Windows 10"	"60.42"	"045"	n/a	n/a	n/a	n/a	n/a	n/a	"fixation"	n/a	n/a	n/a	n/a	"NULL"	n/a	"NULL"	"NULL"	"NULL"	"<p style=\"color: black; font-size: 80px; padding-left: 34%; padding-right: 8%; padding-top: 1%; padding-bottom: 43%\">+</p>"	"1450"	n/a	n/a	n/a	n/a	n/a	n/a	n/a	n/a	n/a
n/a	"image-keyboard-response"	"16"	"60090"	"0.0-4.0-1.0-2.0-1.4"	"m1s1tc"	"600"	"1366"	"chrome"	"111.0.0"	"FALSE"	"Windows 10"	"60.42"	"045"	n/a	n/a	n/a	n/a	n/a	n/a	"Trial"	n/a	n/a	n/a	"409"	"arrowright"	n/a	"NULL"	"NULL"	"NULL"	"stimuli/Ebbinghaus_1000000_-1.4000.png"	n/a	"Ebbinghaus"	"arrowright"	"1454"	"TRUE"	"Ebbinghaus"	"100000000000"	"-1.400000000"	"1"	"5"
n/a	"html-keyboard-response"	"17"	"61267"	"0.0-4.0-1.0-2.0-0.5"	"m1s1tc"	"600"	"1366"	"chrome"	"111.0.0"	"FALSE"	"Windows 10"	"60.42"	"045"	n/a	n/a	n/a	n/a	n/a	n/a	"fixation"	n/a	n/a	n/a	n/a	"NULL"	n/a	"NULL"	"NULL"	"NULL"	"<p style=\"color: black; font-size: 80px; padding-left: 20%; padding-right: 30%; padding-top: 45%; padding-bottom: 9%\">+</p>"	"1173"	n/a	n/a	n/a	n/a	n/a	n/a	n/a	n/a	n/a
n/a	"image-keyboard-response"	"18"	"61694"	"0.0-4.0-1.0-2.0-1.5"	"m1s1tc"	"600"	"1366"	"chrome"	"111.0.0"	"FALSE"	"Windows 10"	"60.42"	"045"	n/a	n/a	n/a	n/a	n/a	n/a	"Trial"	n/a	n/a	n/a	"427"	"arrowleft"	n/a	"NULL"	"NULL"	"NULL"	"stimuli/Ebbinghaus_1000000_1.40000.png"	n/a	"Ebbinghaus"	"arrowleft"	"1177"	"TRUE"	"Ebbinghaus"	"100000000000"	"1.4000000000"	"1"	"6"
n/a	"html-button-response"	"19"	"68256"	"0.0-4.0-1.0-3.0"	"m1s1tc"	"600"	"1366"	"chrome"	"111.0.0"	"FALSE"	"Windows 10"	"60.42"	"045"	n/a	n/a	n/a	n/a	n/a	n/a	"practice_block_results"	n/a	n/a	n/a	"6561"	"0"	n/a	"NULL"	"NULL"	"NULL"	"<p style='color:rgb(76,175,80);'> Correct Responses: <b>100.00%</b></p><hr><p style='color:rgb(233,30,99);'> Average Response Time: <b>472.83</b> ms.</p>"	n/a	n/a	n/a	n/a	n/a	n/a	n/a	n/a	n/a	n/a
"TRUE"	"preload"	"20"	"68793"	"0.0-4.0-2.0-0.0"	"m1s1tc"	"600"	"1366"	"chrome"	"111.0.0"	"FALSE"	"Windows 10"	"60.42"	"045"	n/a	n/a	n/a	n/a	n/a	n/a	n/a	n/a	n/a	n/a	n/a	"NULL"	"FALSE"	"list()"	"list()"	"list()"	n/a	n/a	n/a	n/a	n/a	n/a	n/a	n/a	n/a	n/a	n/a
n/a	"html-keyboard-response"	"21"	"73132"	"0.0-4.0-2.0-1.0"	"m1s1tc"	"600"	"1366"	"chrome"	"111.0.0"	"FALSE"	"Windows 10"	"60.42"	"045"	n/a	n/a	n/a	n/a	n/a	n/a	n/a	n/a	n/a	n/a	"4339"	"enter"	n/a	"NULL"	"NULL"	"NULL"	"<p><b>Practice</b></p><p>In this part, two horizontal red lines will appear one above the other.</p><p>Your task is to select which <b>line is longer</b> in length as fast as you can, without making errors.</p><p>Don't get distracted by the surrounding black arrows at the end of the red lines!</p><p>Press <b>the UP or the DOWN arrow</b> to indicate where is the longer <b>red line.</b></p><div style='float: center'><img src='materials/instructions/MullerLyer_Demo.png' height='300'></img><p><img src='utils/answer/answer_updown_keyboard.PNG' height='150'></img></p><p class='small'>In this example, the correct answer is the <b>UP arrow</b>.</p></div><p>Are you ready? <b>Press ENTER to start</b></p>"	n/a	n/a	n/a	n/a	n/a	n/a	n/a	n/a	n/a	n/a
n/a	"html-keyboard-response"	"22"	"74953"	"0.0-4.0-2.0-2.0-0.0"	"m1s1tc"	"600"	"1366"	"chrome"	"111.0.0"	"FALSE"	"Windows 10"	"60.42"	"045"	n/a	n/a	n/a	n/a	n/a	n/a	"fixation"	n/a	n/a	n/a	n/a	"NULL"	n/a	"NULL"	"NULL"	"NULL"	"<p style=\"color: black; font-size: 80px; padding-left: 27%; padding-right: 19%; padding-top: 3%; padding-bottom: 13%\">+</p>"	"1304"	n/a	n/a	n/a	n/a	n/a	n/a	n/a	n/a	n/a
n/a	"image-keyboard-response"	"23"	"75364"	"0.0-4.0-2.0-2.0-1.0"	"m1s1tc"	"600"	"1366"	"chrome"	"111.0.0"	"FALSE"	"Windows 10"	"60.42"	"045"	n/a	n/a	n/a	n/a	n/a	n/a	"Trial"	n/a	n/a	n/a	"409"	"arrowup"	n/a	"NULL"	"NULL"	"NULL"	"stimuli/MullerLyer_-230000_0.70000.png"	n/a	"MullerLyer"	"arrowup"	"1821"	"TRUE"	"MullerLyer"	"-23000000000"	"0.7000000000"	"1"	"7"
n/a	"html-keyboard-response"	"24"	"76414"	"0.0-4.0-2.0-2.0-0.1"	"m1s1tc"	"600"	"1366"	"chrome"	"111.0.0"	"FALSE"	"Windows 10"	"60.42"	"045"	n/a	n/a	n/a	n/a	n/a	n/a	"fixation"	n/a	n/a	n/a	n/a	"NULL"	n/a	"NULL"	"NULL"	"NULL"	"<p style=\"color: black; font-size: 80px; padding-left: 40%; padding-right: 33%; padding-top: 43%; padding-bottom: 18%\">+</p>"	"1048"	n/a	n/a	n/a	n/a	n/a	n/a	n/a	n/a	n/a
n/a	"image-keyboard-response"	"25"	"76838"	"0.0-4.0-2.0-2.0-1.1"	"m1s1tc"	"600"	"1366"	"chrome"	"111.0.0"	"FALSE"	"Windows 10"	"60.42"	"045"	n/a	n/a	n/a	n/a	n/a	n/a	"Trial"	n/a	n/a	n/a	"423"	"arrowdown"	n/a	"NULL"	"NULL"	"NULL"	"stimuli/MullerLyer_0000000_-0.7000.png"	n/a	"MullerLyer"	"arrowdown"	"1050"	"TRUE"	"MullerLyer"	"000000000000"	"-0.700000000"	"1"	"8"
n/a	"html-keyboard-response"	"26"	"78176"	"0.0-4.0-2.0-2.0-0.2"	"m1s1tc"	"600"	"1366"	"chrome"	"111.0.0"	"FALSE"	"Windows 10"	"60.42"	"045"	n/a	n/a	n/a	n/a	n/a	n/a	"fixation"	n/a	n/a	n/a	n/a	"NULL"	n/a	"NULL"	"NULL"	"NULL"	"<p style=\"color: black; font-size: 80px; padding-left: 46%; padding-right: 21%; padding-top: 14%; padding-bottom: 43%\">+</p>"	"1331"	n/a	n/a	n/a	n/a	n/a	n/a	n/a	n/a	n/a
n/a	"image-keyboard-response"	"27"	"78600"	"0.0-4.0-2.0-2.0-1.2"	"m1s1tc"	"600"	"1366"	"chrome"	"111.0.0"	"FALSE"	"Windows 10"	"60.42"	"045"	n/a	n/a	n/a	n/a	n/a	n/a	"Trial"	n/a	n/a	n/a	"424"	"arrowdown"	n/a	"NULL"	"NULL"	"NULL"	"stimuli/MullerLyer_-230000_-0.7000.png"	n/a	"MullerLyer"	"arrowdown"	"1338"	"TRUE"	"MullerLyer"	"-23000000000"	"-0.700000000"	"1"	"9"
n/a	"html-keyboard-response"	"28"	"79815"	"0.0-4.0-2.0-2.0-0.3"	"m1s1tc"	"600"	"1366"	"chrome"	"111.0.0"	"FALSE"	"Windows 10"	"60.42"	"045"	n/a	n/a	n/a	n/a	n/a	n/a	"fixation"	n/a	n/a	n/a	n/a	"NULL"	n/a	"NULL"	"NULL"	"NULL"	"<p style=\"color: black; font-size: 80px; padding-left: 45%; padding-right: 25%; padding-top: 30%; padding-bottom: 3%\">+</p>"	"1212"	n/a	n/a	n/a	n/a	n/a	n/a	n/a	n/a	n/a
n/a	"image-keyboard-response"	"29"	"80625"	"0.0-4.0-2.0-2.0-1.3"	"m1s1tc"	"600"	"1366"	"chrome"	"111.0.0"	"FALSE"	"Windows 10"	"60.42"	"045"	n/a	n/a	n/a	n/a	n/a	n/a	"Trial"	n/a	n/a	n/a	"809"	"arrowdown"	n/a	"NULL"	"NULL"	"NULL"	"stimuli/MullerLyer_2300000_-0.7000.png"	n/a	"MullerLyer"	"arrowdown"	"1215"	"TRUE"	"MullerLyer"	"230000000000"	"-0.700000000"	"1"	"10"
n/a	"html-keyboard-response"	"30"	"81879"	"0.0-4.0-2.0-2.0-0.4"	"m1s1tc"	"600"	"1366"	"chrome"	"111.0.0"	"FALSE"	"Windows 10"	"60.42"	"045"	n/a	n/a	n/a	n/a	n/a	n/a	"fixation"	n/a	n/a	n/a	n/a	"NULL"	n/a	"NULL"	"NULL"	"NULL"	"<p style=\"color: black; font-size: 80px; padding-left: 20%; padding-right: 1%; padding-top: 4%; padding-bottom: 47%\">+</p>"	"1240"	n/a	n/a	n/a	n/a	n/a	n/a	n/a	n/a	n/a
n/a	"image-keyboard-response"	"31"	"82439"	"0.0-4.0-2.0-2.0-1.4"	"m1s1tc"	"600"	"1366"	"chrome"	"111.0.0"	"FALSE"	"Windows 10"	"60.42"	"045"	n/a	n/a	n/a	n/a	n/a	n/a	"Trial"	n/a	n/a	n/a	"560"	"arrowup"	n/a	"NULL"	"NULL"	"NULL"	"stimuli/MullerLyer_2300000_0.70000.png"	n/a	"MullerLyer"	"arrowup"	"1254"	"TRUE"	"MullerLyer"	"230000000000"	"0.7000000000"	"1"	"11"
n/a	"html-keyboard-response"	"32"	"83898"	"0.0-4.0-2.0-2.0-0.5"	"m1s1tc"	"600"	"1366"	"chrome"	"111.0.0"	"FALSE"	"Windows 10"	"60.42"	"045"	n/a	n/a	n/a	n/a	n/a	n/a	"fixation"	n/a	n/a	n/a	n/a	"NULL"	n/a	"NULL"	"NULL"	"NULL"	"<p style=\"color: black; font-size: 80px; padding-left: 25%; padding-right: 47%; padding-top: 24%; padding-bottom: 5%\">+</p>"	"1454"	n/a	n/a	n/a	n/a	n/a	n/a	n/a	n/a	n/a
n/a	"image-keyboard-response"	"33"	"84355"	"0.0-4.0-2.0-2.0-1.5"	"m1s1tc"	"600"	"1366"	"chrome"	"111.0.0"	"FALSE"	"Windows 10"	"60.42"	"045"	n/a	n/a	n/a	n/a	n/a	n/a	"Trial"	n/a	n/a	n/a	"457"	"arrowup"	n/a	"NULL"	"NULL"	"NULL"	"stimuli/MullerLyer_0000000_0.70000.png"	n/a	"MullerLyer"	"arrowup"	"1459"	"TRUE"	"MullerLyer"	"000000000000"	"0.7000000000"	"1"	"12"
n/a	"html-button-response"	"34"	"87303"	"0.0-4.0-2.0-3.0"	"m1s1tc"	"600"	"1366"	"chrome"	"111.0.0"	"FALSE"	"Windows 10"	"60.42"	"045"	n/a	n/a	n/a	n/a	n/a	n/a	"practice_block_results"	n/a	n/a	n/a	"2947"	"0"	n/a	"NULL"	"NULL"	"NULL"	"<p style='color:rgb(76,175,80);'> Correct Responses: <b>100.00%</b></p><hr><p style='color:rgb(233,30,99);'> Average Response Time: <b>513.67</b> ms.</p>"	n/a	n/a	n/a	n/a	n/a	n/a	n/a	n/a	n/a	n/a
"TRUE"	"preload"	"35"	"87836"	"0.0-4.0-3.0-0.0"	"m1s1tc"	"600"	"1366"	"chrome"	"111.0.0"	"FALSE"	"Windows 10"	"60.42"	"045"	n/a	n/a	n/a	n/a	n/a	n/a	n/a	n/a	n/a	n/a	n/a	"NULL"	"FALSE"	"list()"	"list()"	"list()"	n/a	n/a	n/a	n/a	n/a	n/a	n/a	n/a	n/a	n/a	n/a
n/a	"html-keyboard-response"	"36"	"93829"	"0.0-4.0-3.0-1.0"	"m1s1tc"	"600"	"1366"	"chrome"	"111.0.0"	"FALSE"	"Windows 10"	"60.42"	"045"	n/a	n/a	n/a	n/a	n/a	n/a	n/a	n/a	n/a	n/a	"5993"	"enter"	n/a	"NULL"	"NULL"	"NULL"	"<p><b>Practice</b></p><p>In this part, two red lines will appear side by side.</p><p>Your task is to tell <b>which line is longer</b> in length, regardless of their orientation, as fast as you can, and without making errors.</p><p>Don't get distracted by the orientation of the lines!</p><p>Press <b>the LEFT or the RIGHT arrow</b> to indicate which <b>line is the longer one.</b></p><div style='float: center'><img src='materials/instructions/VerticalHorizontal_Demo.png' height='300'></img><p><img src='utils/answer/answer_leftright_keyboard.PNG' height='150'></img></p><p class='small'>In this example, the correct answer is the <b>LEFT arrow</b>.</p></div><p>Are you ready? <b>Press ENTER to start</b></p>"	n/a	n/a	n/a	n/a	n/a	n/a	n/a	n/a	n/a	n/a
n/a	"html-keyboard-response"	"37"	"95627"	"0.0-4.0-3.0-2.0-0.0"	"m1s1tc"	"600"	"1366"	"chrome"	"111.0.0"	"FALSE"	"Windows 10"	"60.42"	"045"	n/a	n/a	n/a	n/a	n/a	n/a	"fixation"	n/a	n/a	n/a	n/a	"NULL"	n/a	"NULL"	"NULL"	"NULL"	"<p style=\"color: black; font-size: 80px; padding-left: 27%; padding-right: 24%; padding-top: 50%; padding-bottom: 21%\">+</p>"	"1272"	n/a	n/a	n/a	n/a	n/a	n/a	n/a	n/a	n/a
n/a	"image-keyboard-response"	"38"	"96076"	"0.0-4.0-3.0-2.0-1.0"	"m1s1tc"	"600"	"1366"	"chrome"	"111.0.0"	"FALSE"	"Windows 10"	"60.42"	"045"	n/a	n/a	n/a	n/a	n/a	n/a	"Trial"	n/a	n/a	n/a	"447"	"arrowright"	n/a	"NULL"	"NULL"	"NULL"	"stimuli/VerticalHorizontal_3300000_-0.9000.png"	n/a	"VerticalHorizontal"	"arrowright"	"1798"	"TRUE"	"VerticalHorizontal"	"330000000000"	"-0.900000000"	"1"	"13"
n/a	"html-keyboard-response"	"39"	"97451"	"0.0-4.0-3.0-2.0-0.1"	"m1s1tc"	"600"	"1366"	"chrome"	"111.0.0"	"FALSE"	"Windows 10"	"60.42"	"045"	n/a	n/a	n/a	n/a	n/a	n/a	"fixation"	n/a	n/a	n/a	n/a	"NULL"	n/a	"NULL"	"NULL"	"NULL"	"<p style=\"color: black; font-size: 80px; padding-left: 43%; padding-right: 4%; padding-top: 24%; padding-bottom: 5%\">+</p>"	"1362"	n/a	n/a	n/a	n/a	n/a	n/a	n/a	n/a	n/a
n/a	"image-keyboard-response"	"40"	"97798"	"0.0-4.0-3.0-2.0-1.1"	"m1s1tc"	"600"	"1366"	"chrome"	"111.0.0"	"FALSE"	"Windows 10"	"60.42"	"045"	n/a	n/a	n/a	n/a	n/a	n/a	"Trial"	n/a	n/a	n/a	"347"	"arrowleft"	n/a	"NULL"	"NULL"	"NULL"	"stimuli/VerticalHorizontal_-330000_0.90000.png"	n/a	"VerticalHorizontal"	"arrowleft"	"1375"	"TRUE"	"VerticalHorizontal"	"-33000000000"	"0.9000000000"	"1"	"14"
n/a	"html-keyboard-response"	"41"	"99054"	"0.0-4.0-3.0-2.0-0.2"	"m1s1tc"	"600"	"1366"	"chrome"	"111.0.0"	"FALSE"	"Windows 10"	"60.42"	"045"	n/a	n/a	n/a	n/a	n/a	n/a	"fixation"	n/a	n/a	n/a	n/a	"NULL"	n/a	"NULL"	"NULL"	"NULL"	"<p style=\"color: black; font-size: 80px; padding-left: 17%; padding-right: 38%; padding-top: 11%; padding-bottom: 2%\">+</p>"	"1241"	n/a	n/a	n/a	n/a	n/a	n/a	n/a	n/a	n/a
n/a	"image-keyboard-response"	"42"	"99410"	"0.0-4.0-3.0-2.0-1.2"	"m1s1tc"	"600"	"1366"	"chrome"	"111.0.0"	"FALSE"	"Windows 10"	"60.42"	"045"	n/a	n/a	n/a	n/a	n/a	n/a	"Trial"	n/a	n/a	n/a	"354"	"arrowright"	n/a	"NULL"	"NULL"	"NULL"	"stimuli/VerticalHorizontal_0000000_-0.9000.png"	n/a	"VerticalHorizontal"	"arrowright"	"1256"	"TRUE"	"VerticalHorizontal"	"000000000000"	"-0.900000000"	"1"	"15"
n/a	"html-keyboard-response"	"43"	"100721"	"0.0-4.0-3.0-2.0-0.3"	"m1s1tc"	"600"	"1366"	"chrome"	"111.0.0"	"FALSE"	"Windows 10"	"60.42"	"045"	n/a	n/a	n/a	n/a	n/a	n/a	"fixation"	n/a	n/a	n/a	n/a	"NULL"	n/a	"NULL"	"NULL"	"NULL"	"<p style=\"color: black; font-size: 80px; padding-left: 24%; padding-right: 11%; padding-top: 33%; padding-bottom: 39%\">+</p>"	"1307"	n/a	n/a	n/a	n/a	n/a	n/a	n/a	n/a	n/a
n/a	"image-keyboard-response"	"44"	"101087"	"0.0-4.0-3.0-2.0-1.3"	"m1s1tc"	"600"	"1366"	"chrome"	"111.0.0"	"FALSE"	"Windows 10"	"60.42"	"045"	n/a	n/a	n/a	n/a	n/a	n/a	"Trial"	n/a	n/a	n/a	"365"	"arrowleft"	n/a	"NULL"	"NULL"	"NULL"	"stimuli/VerticalHorizontal_0000000_0.90000.png"	n/a	"VerticalHorizontal"	"arrowleft"	"1311"	"TRUE"	"VerticalHorizontal"	"000000000000"	"0.9000000000"	"1"	"16"
n/a	"html-keyboard-response"	"45"	"102250"	"0.0-4.0-3.0-2.0-0.4"	"m1s1tc"	"600"	"1366"	"chrome"	"111.0.0"	"FALSE"	"Windows 10"	"60.42"	"045"	n/a	n/a	n/a	n/a	n/a	n/a	"fixation"	n/a	n/a	n/a	n/a	"NULL"	n/a	"NULL"	"NULL"	"NULL"	"<p style=\"color: black; font-size: 80px; padding-left: 15%; padding-right: 43%; padding-top: 46%; padding-bottom: 8%\">+</p>"	"1154"	n/a	n/a	n/a	n/a	n/a	n/a	n/a	n/a	n/a
n/a	"image-keyboard-response"	"46"	"102595"	"0.0-4.0-3.0-2.0-1.4"	"m1s1tc"	"600"	"1366"	"chrome"	"111.0.0"	"FALSE"	"Windows 10"	"60.42"	"045"	n/a	n/a	n/a	n/a	n/a	n/a	"Trial"	n/a	n/a	n/a	"344"	"arrowright"	n/a	"NULL"	"NULL"	"NULL"	"stimuli/VerticalHorizontal_-330000_-0.9000.png"	n/a	"VerticalHorizontal"	"arrowright"	"1163"	"TRUE"	"VerticalHorizontal"	"-33000000000"	"-0.900000000"	"1"	"17"
n/a	"html-keyboard-response"	"47"	"103923"	"0.0-4.0-3.0-2.0-0.5"	"m1s1tc"	"600"	"1366"	"chrome"	"111.0.0"	"FALSE"	"Windows 10"	"60.42"	"045"	n/a	n/a	n/a	n/a	n/a	n/a	"fixation"	n/a	n/a	n/a	n/a	"NULL"	n/a	"NULL"	"NULL"	"NULL"	"<p style=\"color: black; font-size: 80px; padding-left: 11%; padding-right: 36%; padding-top: 2%; padding-bottom: 45%\">+</p>"	"1312"	n/a	n/a	n/a	n/a	n/a	n/a	n/a	n/a	n/a
n/a	"image-keyboard-response"	"48"	"104325"	"0.0-4.0-3.0-2.0-1.5"	"m1s1tc"	"600"	"1366"	"chrome"	"111.0.0"	"FALSE"	"Windows 10"	"60.42"	"045"	n/a	n/a	n/a	n/a	n/a	n/a	"Trial"	n/a	n/a	n/a	"402"	"arrowleft"	n/a	"NULL"	"NULL"	"NULL"	"stimuli/VerticalHorizontal_3300000_0.90000.png"	n/a	"VerticalHorizontal"	"arrowleft"	"1328"	"TRUE"	"VerticalHorizontal"	"330000000000"	"0.9000000000"	"1"	"18"
n/a	"html-button-response"	"49"	"108086"	"0.0-4.0-3.0-3.0"	"m1s1tc"	"600"	"1366"	"chrome"	"111.0.0"	"FALSE"	"Windows 10"	"60.42"	"045"	n/a	n/a	n/a	n/a	n/a	n/a	"practice_block_results"	n/a	n/a	n/a	"3760"	"0"	n/a	"NULL"	"NULL"	"NULL"	"<p style='color:rgb(76,175,80);'> Correct Responses: <b>100.00%</b></p><hr><p style='color:rgb(233,30,99);'> Average Response Time: <b>376.50</b> ms.</p>"	n/a	n/a	n/a	n/a	n/a	n/a	n/a	n/a	n/a	n/a
n/a	"html-button-response"	"50"	"182149"	"0.0-4.0-4.0"	"m1s1tc"	"600"	"1366"	"chrome"	"111.0.0"	"FALSE"	"Windows 10"	"60.42"	"045"	n/a	n/a	n/a	n/a	n/a	n/a	"practice_debrief"	n/a	n/a	n/a	"73551"	"0"	n/a	"NULL"	"NULL"	"NULL"	"<p><b>TRAINING COMPLETED</b></p><p>In the next phase, there will be more trials, and some might be harder too.<br> Moreover, after each illusion block, a <b>score</b> will be calculated based on speed (time you took to answer) and accuracy (number of errors).</p><p>Try to keep up a high score!</p><br><p>Note that it can be <i>really</i> challenging at times, so you will need to rely on your <b>intuition</b> and gut feeling to answer as fast as you can without making errors.</p><p>Each illusion block will be repeated two times (so that you have the opportunity to improve your score), but the order of the blocks is random.</p><p>Remember, your goal is to be as <b>fast</b> and <b>accurate</b> as possible. Good luck!</p><br>"	n/a	n/a	n/a	n/a	n/a	n/a	n/a	n/a	n/a	n/a
"TRUE"	"preload"	"51"	"182335"	"0.0-5.0-0.0"	"m1s1tc"	"600"	"1366"	"chrome"	"111.0.0"	"FALSE"	"Windows 10"	"60.42"	"045"	n/a	n/a	n/a	n/a	n/a	n/a	n/a	n/a	n/a	n/a	n/a	"NULL"	"FALSE"	"list()"	"list()"	"list()"	n/a	n/a	n/a	n/a	n/a	n/a	n/a	n/a	n/a	n/a	n/a
n/a	"html-keyboard-response"	"52"	"187188"	"0.0-5.0-1.0"	"m1s1tc"	"600"	"1366"	"chrome"	"111.0.0"	"FALSE"	"Windows 10"	"60.42"	"045"	n/a	n/a	n/a	n/a	n/a	n/a	n/a	n/a	n/a	n/a	"4852"	"enter"	n/a	"NULL"	"NULL"	"NULL"	"<p><b>Part 1/6</b></p><p>In this part, two red lines will appear side by side.</p><p>Your task is to tell <b>which line is longer</b> in length, regardless of their orientation, as fast as you can, and without making errors.</p><p>Don't get distracted by the orientation of the lines!</p><p>Press <b>the LEFT or the RIGHT arrow</b> to indicate which <b>line is the longer one.</b></p><div style='float: center'><img src='materials/instructions/VerticalHorizontal_Demo.png' height='300'></img><p><img src='utils/answer/answer_leftright_keyboard.PNG' height='150'></img></p><p class='small'>In this example, the correct answer is the <b>LEFT arrow</b>.</p></div><p>Are you ready? <b>Press ENTER to start</b></p>"	n/a	n/a	n/a	n/a	n/a	n/a	n/a	n/a	n/a	n/a
n/a	"html-keyboard-response"	"53"	"188905"	"0.0-5.0-2.0-0.0"	"m1s1tc"	"600"	"1366"	"chrome"	"111.0.0"	"FALSE"	"Windows 10"	"60.42"	"045"	n/a	n/a	n/a	n/a	n/a	n/a	"fixation"	n/a	n/a	n/a	n/a	"NULL"	n/a	"NULL"	"NULL"	"NULL"	"<p style=\"color: black; font-size: 80px; padding-left: 16%; padding-right: 1%; padding-top: 43%; padding-bottom: 11%\">+</p>"	"1200"	n/a	n/a	n/a	n/a	n/a	n/a	n/a	n/a	n/a
n/a	"image-keyboard-response"	"54"	"189369"	"0.0-5.0-2.0-1.0"	"m1s1tc"	"600"	"1366"	"chrome"	"111.0.0"	"FALSE"	"Windows 10"	"60.42"	"045"	n/a	n/a	n/a	n/a	n/a	n/a	"Trial"	n/a	n/a	n/a	"463"	"arrowright"	n/a	"NULL"	"NULL"	"NULL"	"stimuli/VerticalHorizontal_-11.78571_-0.2250.png"	n/a	"VerticalHorizontal"	"arrowright"	"1717"	"TRUE"	"VerticalHorizontal"	"-11.78571000"	"-0.225000000"	"1"	"19"
n/a	"html-keyboard-response"	"55"	"190669"	"0.0-5.0-2.0-0.1"	"m1s1tc"	"600"	"1366"	"chrome"	"111.0.0"	"FALSE"	"Windows 10"	"60.42"	"045"	n/a	n/a	n/a	n/a	n/a	n/a	"fixation"	n/a	n/a	n/a	n/a	"NULL"	n/a	"NULL"	"NULL"	"NULL"	"<p style=\"color: black; font-size: 80px; padding-left: 36%; padding-right: 29%; padding-top: 6%; padding-bottom: 47%\">+</p>"	"1288"	n/a	n/a	n/a	n/a	n/a	n/a	n/a	n/a	n/a
n/a	"image-keyboard-response"	"56"	"191018"	"0.0-5.0-2.0-1.1"	"m1s1tc"	"600"	"1366"	"chrome"	"111.0.0"	"FALSE"	"Windows 10"	"60.42"	"045"	n/a	n/a	n/a	n/a	n/a	n/a	"Trial"	n/a	n/a	n/a	"349"	"arrowright"	n/a	"NULL"	"NULL"	"NULL"	"stimuli/VerticalHorizontal_-20.27143_-0.1096.png"	n/a	"VerticalHorizontal"	"arrowright"	"1300"	"TRUE"	"VerticalHorizontal"	"-20.27143000"	"-0.109600000"	"1"	"20"
n/a	"html-keyboard-response"	"57"	"192390"	"0.0-5.0-2.0-0.2"	"m1s1tc"	"600"	"1366"	"chrome"	"111.0.0"	"FALSE"	"Windows 10"	"60.42"	"045"	n/a	n/a	n/a	n/a	n/a	n/a	"fixation"	n/a	n/a	n/a	n/a	"NULL"	n/a	"NULL"	"NULL"	"NULL"	"<p style=\"color: black; font-size: 80px; padding-left: 47%; padding-right: 12%; padding-top: 2%; padding-bottom: 46%\">+</p>"	"1370"	n/a	n/a	n/a	n/a	n/a	n/a	n/a	n/a	n/a
n/a	"image-keyboard-response"	"58"	"193588"	"0.0-5.0-2.0-1.2"	"m1s1tc"	"600"	"1366"	"chrome"	"111.0.0"	"FALSE"	"Windows 10"	"60.42"	"045"	n/a	n/a	n/a	n/a	n/a	n/a	"Trial"	n/a	n/a	n/a	"1198"	"arrowright"	n/a	"NULL"	"NULL"	"NULL"	"stimuli/VerticalHorizontal_20.27143_-0.16217.png"	n/a	"VerticalHorizontal"	"arrowright"	"1372"	"TRUE"	"VerticalHorizontal"	"20.271430000"	"-0.162170000"	"1"	"21"
n/a	"html-keyboard-response"	"59"	"194792"	"0.0-5.0-2.0-0.3"	"m1s1tc"	"600"	"1366"	"chrome"	"111.0.0"	"FALSE"	"Windows 10"	"60.42"	"045"	n/a	n/a	n/a	n/a	n/a	n/a	"fixation"	n/a	n/a	n/a	n/a	"NULL"	n/a	"NULL"	"NULL"	"NULL"	"<p style=\"color: black; font-size: 80px; padding-left: 30%; padding-right: 45%; padding-top: 11%; padding-bottom: 22%\">+</p>"	"1200"	n/a	n/a	n/a	n/a	n/a	n/a	n/a	n/a	n/a
n/a	"image-keyboard-response"	"60"	"195231"	"0.0-5.0-2.0-1.3"	"m1s1tc"	"600"	"1366"	"chrome"	"111.0.0"	"FALSE"	"Windows 10"	"60.42"	"045"	n/a	n/a	n/a	n/a	n/a	n/a	"Trial"	n/a	n/a	n/a	"438"	"arrowright"	n/a	"NULL"	"NULL"	"NULL"	"stimuli/VerticalHorizontal_-11.78571_-0.1096.png"	n/a	"VerticalHorizontal"	"arrowright"	"1204"	"TRUE"	"VerticalHorizontal"	"-11.78571000"	"-0.109600000"	"1"	"22"
n/a	"html-keyboard-response"	"61"	"196363"	"0.0-5.0-2.0-0.4"	"m1s1tc"	"600"	"1366"	"chrome"	"111.0.0"	"FALSE"	"Windows 10"	"60.42"	"045"	n/a	n/a	n/a	n/a	n/a	n/a	"fixation"	n/a	n/a	n/a	n/a	"NULL"	n/a	"NULL"	"NULL"	"NULL"	"<p style=\"color: black; font-size: 80px; padding-left: 28%; padding-right: 12%; padding-top: 29%; padding-bottom: 8%\">+</p>"	"1129"	n/a	n/a	n/a	n/a	n/a	n/a	n/a	n/a	n/a
n/a	"image-keyboard-response"	"62"	"197339"	"0.0-5.0-2.0-1.4"	"m1s1tc"	"600"	"1366"	"chrome"	"111.0.0"	"FALSE"	"Windows 10"	"60.42"	"045"	n/a	n/a	n/a	n/a	n/a	n/a	"Trial"	n/a	n/a	n/a	"975"	"arrowleft"	n/a	"NULL"	"NULL"	"NULL"	"stimuli/VerticalHorizontal_11.78571_0.06730.png"	n/a	"VerticalHorizontal"	"arrowleft"	"1132"	"TRUE"	"VerticalHorizontal"	"11.785710000"	"0.0673000000"	"1"	"23"
n/a	"html-keyboard-response"	"63"	"198465"	"0.0-5.0-2.0-0.5"	"m1s1tc"	"600"	"1366"	"chrome"	"111.0.0"	"FALSE"	"Windows 10"	"60.42"	"045"	n/a	n/a	n/a	n/a	n/a	n/a	"fixation"	n/a	n/a	n/a	n/a	"NULL"	n/a	"NULL"	"NULL"	"NULL"	"<p style=\"color: black; font-size: 80px; padding-left: 3%; padding-right: 37%; padding-top: 11%; padding-bottom: 34%\">+</p>"	"1111"	n/a	n/a	n/a	n/a	n/a	n/a	n/a	n/a	n/a
n/a	"image-keyboard-response"	"64"	"199384"	"0.0-5.0-2.0-1.5"	"m1s1tc"	"600"	"1366"	"chrome"	"111.0.0"	"FALSE"	"Windows 10"	"60.42"	"045"	n/a	n/a	n/a	n/a	n/a	n/a	"Trial"	n/a	n/a	n/a	"918"	"arrowleft"	n/a	"NULL"	"NULL"	"NULL"	"stimuli/VerticalHorizontal_28.75714_-0.0673.png"	n/a	"VerticalHorizontal"	"arrowright"	"1126"	"FALSE"	"VerticalHorizontal"	"28.757140000"	"-0.067300000"	"1"	"24"
n/a	"html-keyboard-response"	"65"	"200453"	"0.0-5.0-2.0-0.6"	"m1s1tc"	"600"	"1366"	"chrome"	"111.0.0"	"FALSE"	"Windows 10"	"60.42"	"045"	n/a	n/a	n/a	n/a	n/a	n/a	"fixation"	n/a	n/a	n/a	n/a	"NULL"	n/a	"NULL"	"NULL"	"NULL"	"<p style=\"color: black; font-size: 80px; padding-left: 1%; padding-right: 2%; padding-top: 44%; padding-bottom: 47%\">+</p>"	"1059"	n/a	n/a	n/a	n/a	n/a	n/a	n/a	n/a	n/a
n/a	"image-keyboard-response"	"66"	"202003"	"0.0-5.0-2.0-1.6"	"m1s1tc"	"600"	"1366"	"chrome"	"111.0.0"	"FALSE"	"Windows 10"	"60.42"	"045"	n/a	n/a	n/a	n/a	n/a	n/a	"Trial"	n/a	n/a	n/a	"1549"	"arrowleft"	n/a	"NULL"	"NULL"	"NULL"	"stimuli/VerticalHorizontal_3.30000_0.06730.png"	n/a	"VerticalHorizontal"	"arrowleft"	"1069"	"TRUE"	"VerticalHorizontal"	"3.3000000000"	"0.0673000000"	"1"	"25"
n/a	"html-keyboard-response"	"67"	"203039"	"0.0-5.0-2.0-0.7"	"m1s1tc"	"600"	"1366"	"chrome"	"111.0.0"	"FALSE"	"Windows 10"	"60.42"	"045"	n/a	n/a	n/a	n/a	n/a	n/a	"fixation"	n/a	n/a	n/a	n/a	"NULL"	n/a	"NULL"	"NULL"	"NULL"	"<p style=\"color: black; font-size: 80px; padding-left: 46%; padding-right: 15%; padding-top: 34%; padding-bottom: 40%\">+</p>"	"1023"	n/a	n/a	n/a	n/a	n/a	n/a	n/a	n/a	n/a
n/a	"image-keyboard-response"	"68"	"204041"	"0.0-5.0-2.0-1.7"	"m1s1tc"	"600"	"1366"	"chrome"	"111.0.0"	"FALSE"	"Windows 10"	"60.42"	"045"	n/a	n/a	n/a	n/a	n/a	n/a	"Trial"	n/a	n/a	n/a	"1001"	"arrowright"	n/a	"NULL"	"NULL"	"NULL"	"stimuli/VerticalHorizontal_28.75714_-0.1096.png"	n/a	"VerticalHorizontal"	"arrowright"	"1036"	"TRUE"	"VerticalHorizontal"	"28.757140000"	"-0.109600000"	"1"	"26"
n/a	"html-keyboard-response"	"69"	"205085"	"0.0-5.0-2.0-0.8"	"m1s1tc"	"600"	"1366"	"chrome"	"111.0.0"	"FALSE"	"Windows 10"	"60.42"	"045"	n/a	n/a	n/a	n/a	n/a	n/a	"fixation"	n/a	n/a	n/a	n/a	"NULL"	n/a	"NULL"	"NULL"	"NULL"	"<p style=\"color: black; font-size: 80px; padding-left: 42%; padding-right: 8%; padding-top: 26%; padding-bottom: 43%\">+</p>"	"1041"	n/a	n/a	n/a	n/a	n/a	n/a	n/a	n/a	n/a
n/a	"image-keyboard-response"	"70"	"205585"	"0.0-5.0-2.0-1.8"	"m1s1tc"	"600"	"1366"	"chrome"	"111.0.0"	"FALSE"	"Windows 10"	"60.42"	"045"	n/a	n/a	n/a	n/a	n/a	n/a	"Trial"	n/a	n/a	n/a	"498"	"arrowleft"	n/a	"NULL"	"NULL"	"NULL"	"stimuli/VerticalHorizontal_-11.78571_0.22500.png"	n/a	"VerticalHorizontal"	"arrowleft"	"1044"	"TRUE"	"VerticalHorizontal"	"-11.78571000"	"0.2250000000"	"1"	"27"
n/a	"html-keyboard-response"	"71"	"206965"	"0.0-5.0-2.0-0.9"	"m1s1tc"	"600"	"1366"	"chrome"	"111.0.0"	"FALSE"	"Windows 10"	"60.42"	"045"	n/a	n/a	n/a	n/a	n/a	n/a	"fixation"	n/a	n/a	n/a	n/a	"NULL"	n/a	"NULL"	"NULL"	"NULL"	"<p style=\"color: black; font-size: 80px; padding-left: 10%; padding-right: 10%; padding-top: 30%; padding-bottom: 7%\">+</p>"	"1369"	n/a	n/a	n/a	n/a	n/a	n/a	n/a	n/a	n/a
n/a	"image-keyboard-response"	"72"	"207527"	"0.0-5.0-2.0-1.9"	"m1s1tc"	"600"	"1366"	"chrome"	"111.0.0"	"FALSE"	"Windows 10"	"60.42"	"045"	n/a	n/a	n/a	n/a	n/a	n/a	"Trial"	n/a	n/a	n/a	"561"	"arrowright"	n/a	"NULL"	"NULL"	"NULL"	"stimuli/VerticalHorizontal_-3.3000_0.10960.png"	n/a	"VerticalHorizontal"	"arrowleft"	"1380"	"FALSE"	"VerticalHorizontal"	"-3.300000000"	"0.1096000000"	"1"	"28"
n/a	"html-keyboard-response"	"73"	"208564"	"0.0-5.0-2.0-0.10"	"m1s1tc"	"600"	"1366"	"chrome"	"111.0.0"	"FALSE"	"Windows 10"	"60.42"	"045"	n/a	n/a	n/a	n/a	n/a	n/a	"fixation"	n/a	n/a	n/a	n/a	"NULL"	n/a	"NULL"	"NULL"	"NULL"	"<p style=\"color: black; font-size: 80px; padding-left: 24%; padding-right: 9%; padding-top: 30%; padding-bottom: 17%\">+</p>"	"1032"	n/a	n/a	n/a	n/a	n/a	n/a	n/a	n/a	n/a
n/a	"image-keyboard-response"	"74"	"209365"	"0.0-5.0-2.0-1.10"	"m1s1tc"	"600"	"1366"	"chrome"	"111.0.0"	"FALSE"	"Windows 10"	"60.42"	"045"	n/a	n/a	n/a	n/a	n/a	n/a	"Trial"	n/a	n/a	n/a	"799"	"arrowleft"	n/a	"NULL"	"NULL"	"NULL"	"stimuli/VerticalHorizontal_28.75714_0.22500.png"	n/a	"VerticalHorizontal"	"arrowleft"	"1037"	"TRUE"	"VerticalHorizontal"	"28.757140000"	"0.2250000000"	"1"	"29"
n/a	"html-keyboard-response"	"75"	"210527"	"0.0-5.0-2.0-0.11"	"m1s1tc"	"600"	"1366"	"chrome"	"111.0.0"	"FALSE"	"Windows 10"	"60.42"	"045"	n/a	n/a	n/a	n/a	n/a	n/a	"fixation"	n/a	n/a	n/a	n/a	"NULL"	n/a	"NULL"	"NULL"	"NULL"	"<p style=\"color: black; font-size: 80px; padding-left: 34%; padding-right: 5%; padding-top: 40%; padding-bottom: 18%\">+</p>"	"1159"	n/a	n/a	n/a	n/a	n/a	n/a	n/a	n/a	n/a
n/a	"image-keyboard-response"	"76"	"211193"	"0.0-5.0-2.0-1.11"	"m1s1tc"	"600"	"1366"	"chrome"	"111.0.0"	"FALSE"	"Windows 10"	"60.42"	"045"	n/a	n/a	n/a	n/a	n/a	n/a	"Trial"	n/a	n/a	n/a	"665"	"arrowright"	n/a	"NULL"	"NULL"	"NULL"	"stimuli/VerticalHorizontal_-11.78571_-0.16217.png"	n/a	"VerticalHorizontal"	"arrowright"	"1162"	"TRUE"	"VerticalHorizontal"	"-11.78571000"	"-0.162170000"	"1"	"30"
n/a	"html-keyboard-response"	"77"	"212578"	"0.0-5.0-2.0-0.12"	"m1s1tc"	"600"	"1366"	"chrome"	"111.0.0"	"FALSE"	"Windows 10"	"60.42"	"045"	n/a	n/a	n/a	n/a	n/a	n/a	"fixation"	n/a	n/a	n/a	n/a	"NULL"	n/a	"NULL"	"NULL"	"NULL"	"<p style=\"color: black; font-size: 80px; padding-left: 37%; padding-right: 41%; padding-top: 46%; padding-bottom: 1%\">+</p>"	"1373"	n/a	n/a	n/a	n/a	n/a	n/a	n/a	n/a	n/a
n/a	"image-keyboard-response"	"78"	"213970"	"0.0-5.0-2.0-1.12"	"m1s1tc"	"600"	"1366"	"chrome"	"111.0.0"	"FALSE"	"Windows 10"	"60.42"	"045"	n/a	n/a	n/a	n/a	n/a	n/a	"Trial"	n/a	n/a	n/a	"1391"	"arrowright"	n/a	"NULL"	"NULL"	"NULL"	"stimuli/VerticalHorizontal_-3.3000_-0.0673.png"	n/a	"VerticalHorizontal"	"arrowright"	"1385"	"TRUE"	"VerticalHorizontal"	"-3.300000000"	"-0.067300000"	"1"	"31"
n/a	"html-keyboard-response"	"79"	"215347"	"0.0-5.0-2.0-0.13"	"m1s1tc"	"600"	"1366"	"chrome"	"111.0.0"	"FALSE"	"Windows 10"	"60.42"	"045"	n/a	n/a	n/a	n/a	n/a	n/a	"fixation"	n/a	n/a	n/a	n/a	"NULL"	n/a	"NULL"	"NULL"	"NULL"	"<p style=\"color: black; font-size: 80px; padding-left: 2%; padding-right: 11%; padding-top: 48%; padding-bottom: 27%\">+</p>"	"1374"	n/a	n/a	n/a	n/a	n/a	n/a	n/a	n/a	n/a
n/a	"image-keyboard-response"	"80"	"216480"	"0.0-5.0-2.0-1.13"	"m1s1tc"	"600"	"1366"	"chrome"	"111.0.0"	"FALSE"	"Windows 10"	"60.42"	"045"	n/a	n/a	n/a	n/a	n/a	n/a	"Trial"	n/a	n/a	n/a	"1133"	"arrowright"	n/a	"NULL"	"NULL"	"NULL"	"stimuli/VerticalHorizontal_-3.3000_-0.1096.png"	n/a	"VerticalHorizontal"	"arrowright"	"1377"	"TRUE"	"VerticalHorizontal"	"-3.300000000"	"-0.109600000"	"1"	"32"
n/a	"html-keyboard-response"	"81"	"217642"	"0.0-5.0-2.0-0.14"	"m1s1tc"	"600"	"1366"	"chrome"	"111.0.0"	"FALSE"	"Windows 10"	"60.42"	"045"	n/a	n/a	n/a	n/a	n/a	n/a	"fixation"	n/a	n/a	n/a	n/a	"NULL"	n/a	"NULL"	"NULL"	"NULL"	"<p style=\"color: black; font-size: 80px; padding-left: 21%; padding-right: 6%; padding-top: 21%; padding-bottom: 35%\">+</p>"	"1148"	n/a	n/a	n/a	n/a	n/a	n/a	n/a	n/a	n/a
n/a	"image-keyboard-response"	"82"	"218150"	"0.0-5.0-2.0-1.14"	"m1s1tc"	"600"	"1366"	"chrome"	"111.0.0"	"FALSE"	"Windows 10"	"60.42"	"045"	n/a	n/a	n/a	n/a	n/a	n/a	"Trial"	n/a	n/a	n/a	"505"	"arrowleft"	n/a	"NULL"	"NULL"	"NULL"	"stimuli/VerticalHorizontal_-20.27143_0.16217.png"	n/a	"VerticalHorizontal"	"arrowleft"	"1162"	"TRUE"	"VerticalHorizontal"	"-20.27143000"	"0.1621700000"	"1"	"33"
n/a	"html-keyboard-response"	"83"	"219454"	"0.0-5.0-2.0-0.15"	"m1s1tc"	"600"	"1366"	"chrome"	"111.0.0"	"FALSE"	"Windows 10"	"60.42"	"045"	n/a	n/a	n/a	n/a	n/a	n/a	"fixation"	n/a	n/a	n/a	n/a	"NULL"	n/a	"NULL"	"NULL"	"NULL"	"<p style=\"color: black; font-size: 80px; padding-left: 18%; padding-right: 23%; padding-top: 42%; padding-bottom: 5%\">+</p>"	"1290"	n/a	n/a	n/a	n/a	n/a	n/a	n/a	n/a	n/a
n/a	"image-keyboard-response"	"84"	"220434"	"0.0-5.0-2.0-1.15"	"m1s1tc"	"600"	"1366"	"chrome"	"111.0.0"	"FALSE"	"Windows 10"	"60.42"	"045"	n/a	n/a	n/a	n/a	n/a	n/a	"Trial"	n/a	n/a	n/a	"980"	"arrowright"	n/a	"NULL"	"NULL"	"NULL"	"stimuli/VerticalHorizontal_-11.78571_-0.0673.png"	n/a	"VerticalHorizontal"	"arrowright"	"1304"	"TRUE"	"VerticalHorizontal"	"-11.78571000"	"-0.067300000"	"1"	"34"
n/a	"html-keyboard-response"	"85"	"221651"	"0.0-5.0-2.0-0.16"	"m1s1tc"	"600"	"1366"	"chrome"	"111.0.0"	"FALSE"	"Windows 10"	"60.42"	"045"	n/a	n/a	n/a	n/a	n/a	n/a	"fixation"	n/a	n/a	n/a	n/a	"NULL"	n/a	"NULL"	"NULL"	"NULL"	"<p style=\"color: black; font-size: 80px; padding-left: 23%; padding-right: 23%; padding-top: 29%; padding-bottom: 21%\">+</p>"	"1210"	n/a	n/a	n/a	n/a	n/a	n/a	n/a	n/a	n/a
n/a	"image-keyboard-response"	"86"	"222395"	"0.0-5.0-2.0-1.16"	"m1s1tc"	"600"	"1366"	"chrome"	"111.0.0"	"FALSE"	"Windows 10"	"60.42"	"045"	n/a	n/a	n/a	n/a	n/a	n/a	"Trial"	n/a	n/a	n/a	"743"	"arrowleft"	n/a	"NULL"	"NULL"	"NULL"	"stimuli/VerticalHorizontal_28.75714_0.16217.png"	n/a	"VerticalHorizontal"	"arrowleft"	"1217"	"TRUE"	"VerticalHorizontal"	"28.757140000"	"0.1621700000"	"1"	"35"
n/a	"html-keyboard-response"	"87"	"223694"	"0.0-5.0-2.0-0.17"	"m1s1tc"	"600"	"1366"	"chrome"	"111.0.0"	"FALSE"	"Windows 10"	"60.42"	"045"	n/a	n/a	n/a	n/a	n/a	n/a	"fixation"	n/a	n/a	n/a	n/a	"NULL"	n/a	"NULL"	"NULL"	"NULL"	"<p style=\"color: black; font-size: 80px; padding-left: 23%; padding-right: 22%; padding-top: 4%; padding-bottom: 16%\">+</p>"	"1288"	n/a	n/a	n/a	n/a	n/a	n/a	n/a	n/a	n/a
n/a	"image-keyboard-response"	"88"	"224344"	"0.0-5.0-2.0-1.17"	"m1s1tc"	"600"	"1366"	"chrome"	"111.0.0"	"FALSE"	"Windows 10"	"60.42"	"045"	n/a	n/a	n/a	n/a	n/a	n/a	"Trial"	n/a	n/a	n/a	"649"	"arrowleft"	n/a	"NULL"	"NULL"	"NULL"	"stimuli/VerticalHorizontal_-11.78571_0.06730.png"	n/a	"VerticalHorizontal"	"arrowleft"	"1299"	"TRUE"	"VerticalHorizontal"	"-11.78571000"	"0.0673000000"	"1"	"36"
n/a	"html-keyboard-response"	"89"	"225369"	"0.0-5.0-2.0-0.18"	"m1s1tc"	"600"	"1366"	"chrome"	"111.0.0"	"FALSE"	"Windows 10"	"60.42"	"045"	n/a	n/a	n/a	n/a	n/a	n/a	"fixation"	n/a	n/a	n/a	n/a	"NULL"	n/a	"NULL"	"NULL"	"NULL"	"<p style=\"color: black; font-size: 80px; padding-left: 29%; padding-right: 28%; padding-top: 47%; padding-bottom: 29%\">+</p>"	"1010"	n/a	n/a	n/a	n/a	n/a	n/a	n/a	n/a	n/a
n/a	"image-keyboard-response"	"90"	"226114"	"0.0-5.0-2.0-1.18"	"m1s1tc"	"600"	"1366"	"chrome"	"111.0.0"	"FALSE"	"Windows 10"	"60.42"	"045"	n/a	n/a	n/a	n/a	n/a	n/a	"Trial"	n/a	n/a	n/a	"744"	"arrowleft"	n/a	"NULL"	"NULL"	"NULL"	"stimuli/VerticalHorizontal_20.27143_0.16217.png"	n/a	"VerticalHorizontal"	"arrowleft"	"1025"	"TRUE"	"VerticalHorizontal"	"20.271430000"	"0.1621700000"	"1"	"37"
n/a	"html-keyboard-response"	"91"	"227132"	"0.0-5.0-2.0-0.19"	"m1s1tc"	"600"	"1366"	"chrome"	"111.0.0"	"FALSE"	"Windows 10"	"60.42"	"045"	n/a	n/a	n/a	n/a	n/a	n/a	"fixation"	n/a	n/a	n/a	n/a	"NULL"	n/a	"NULL"	"NULL"	"NULL"	"<p style=\"color: black; font-size: 80px; padding-left: 39%; padding-right: 33%; padding-top: 42%; padding-bottom: 3%\">+</p>"	"1014"	n/a	n/a	n/a	n/a	n/a	n/a	n/a	n/a	n/a
n/a	"image-keyboard-response"	"92"	"227635"	"0.0-5.0-2.0-1.19"	"m1s1tc"	"600"	"1366"	"chrome"	"111.0.0"	"FALSE"	"Windows 10"	"60.42"	"045"	n/a	n/a	n/a	n/a	n/a	n/a	"Trial"	n/a	n/a	n/a	"502"	"arrowleft"	n/a	"NULL"	"NULL"	"NULL"	"stimuli/VerticalHorizontal_-3.3000_0.16217.png"	n/a	"VerticalHorizontal"	"arrowleft"	"1018"	"TRUE"	"VerticalHorizontal"	"-3.300000000"	"0.1621700000"	"1"	"38"
n/a	"html-keyboard-response"	"93"	"228737"	"0.0-5.0-2.0-0.20"	"m1s1tc"	"600"	"1366"	"chrome"	"111.0.0"	"FALSE"	"Windows 10"	"60.42"	"045"	n/a	n/a	n/a	n/a	n/a	n/a	"fixation"	n/a	n/a	n/a	n/a	"NULL"	n/a	"NULL"	"NULL"	"NULL"	"<p style=\"color: black; font-size: 80px; padding-left: 47%; padding-right: 15%; padding-top: 6%; padding-bottom: 1%\">+</p>"	"1091"	n/a	n/a	n/a	n/a	n/a	n/a	n/a	n/a	n/a
n/a	"image-keyboard-response"	"94"	"229329"	"0.0-5.0-2.0-1.20"	"m1s1tc"	"600"	"1366"	"chrome"	"111.0.0"	"FALSE"	"Windows 10"	"60.42"	"045"	n/a	n/a	n/a	n/a	n/a	n/a	"Trial"	n/a	n/a	n/a	"592"	"arrowright"	n/a	"NULL"	"NULL"	"NULL"	"stimuli/VerticalHorizontal_-3.3000_-0.16217.png"	n/a	"VerticalHorizontal"	"arrowright"	"1102"	"TRUE"	"VerticalHorizontal"	"-3.300000000"	"-0.162170000"	"1"	"39"
n/a	"html-keyboard-response"	"95"	"230408"	"0.0-5.0-2.0-0.21"	"m1s1tc"	"600"	"1366"	"chrome"	"111.0.0"	"FALSE"	"Windows 10"	"60.42"	"045"	n/a	n/a	n/a	n/a	n/a	n/a	"fixation"	n/a	n/a	n/a	n/a	"NULL"	n/a	"NULL"	"NULL"	"NULL"	"<p style=\"color: black; font-size: 80px; padding-left: 39%; padding-right: 16%; padding-top: 12%; padding-bottom: 41%\">+</p>"	"1066"	n/a	n/a	n/a	n/a	n/a	n/a	n/a	n/a	n/a
n/a	"image-keyboard-response"	"96"	"230867"	"0.0-5.0-2.0-1.21"	"m1s1tc"	"600"	"1366"	"chrome"	"111.0.0"	"FALSE"	"Windows 10"	"60.42"	"045"	n/a	n/a	n/a	n/a	n/a	n/a	"Trial"	n/a	n/a	n/a	"458"	"arrowright"	n/a	"NULL"	"NULL"	"NULL"	"stimuli/VerticalHorizontal_-28.75714_-0.2250.png"	n/a	"VerticalHorizontal"	"arrowright"	"1079"	"TRUE"	"VerticalHorizontal"	"-28.75714000"	"-0.225000000"	"1"	"40"
n/a	"html-keyboard-response"	"97"	"232056"	"0.0-5.0-2.0-0.22"	"m1s1tc"	"600"	"1366"	"chrome"	"111.0.0"	"FALSE"	"Windows 10"	"60.42"	"045"	n/a	n/a	n/a	n/a	n/a	n/a	"fixation"	n/a	n/a	n/a	n/a	"NULL"	n/a	"NULL"	"NULL"	"NULL"	"<p style=\"color: black; font-size: 80px; padding-left: 2%; padding-right: 30%; padding-top: 12%; padding-bottom: 43%\">+</p>"	"1183"	n/a	n/a	n/a	n/a	n/a	n/a	n/a	n/a	n/a
n/a	"image-keyboard-response"	"98"	"232528"	"0.0-5.0-2.0-1.22"	"m1s1tc"	"600"	"1366"	"chrome"	"111.0.0"	"FALSE"	"Windows 10"	"60.42"	"045"	n/a	n/a	n/a	n/a	n/a	n/a	"Trial"	n/a	n/a	n/a	"471"	"arrowleft"	n/a	"NULL"	"NULL"	"NULL"	"stimuli/VerticalHorizontal_3.30000_0.10960.png"	n/a	"VerticalHorizontal"	"arrowleft"	"1189"	"TRUE"	"VerticalHorizontal"	"3.3000000000"	"0.1096000000"	"1"	"41"
n/a	"html-keyboard-response"	"99"	"233687"	"0.0-5.0-2.0-0.23"	"m1s1tc"	"600"	"1366"	"chrome"	"111.0.0"	"FALSE"	"Windows 10"	"60.42"	"045"	n/a	n/a	n/a	n/a	n/a	n/a	"fixation"	n/a	n/a	n/a	n/a	"NULL"	n/a	"NULL"	"NULL"	"NULL"	"<p style=\"color: black; font-size: 80px; padding-left: 33%; padding-right: 9%; padding-top: 17%; padding-bottom: 9%\">+</p>"	"1147"	n/a	n/a	n/a	n/a	n/a	n/a	n/a	n/a	n/a
n/a	"image-keyboard-response"	"100"	"234278"	"0.0-5.0-2.0-1.23"	"m1s1tc"	"600"	"1366"	"chrome"	"111.0.0"	"FALSE"	"Windows 10"	"60.42"	"045"	n/a	n/a	n/a	n/a	n/a	n/a	"Trial"	n/a	n/a	n/a	"590"	"arrowright"	n/a	"NULL"	"NULL"	"NULL"	"stimuli/VerticalHorizontal_28.75714_0.06730.png"	n/a	"VerticalHorizontal"	"arrowleft"	"1159"	"FALSE"	"VerticalHorizontal"	"28.757140000"	"0.0673000000"	"1"	"42"
n/a	"html-keyboard-response"	"101"	"235470"	"0.0-5.0-2.0-0.24"	"m1s1tc"	"600"	"1366"	"chrome"	"111.0.0"	"FALSE"	"Windows 10"	"60.42"	"045"	n/a	n/a	n/a	n/a	n/a	n/a	"fixation"	n/a	n/a	n/a	n/a	"NULL"	n/a	"NULL"	"NULL"	"NULL"	"<p style=\"color: black; font-size: 80px; padding-left: 16%; padding-right: 11%; padding-top: 22%; padding-bottom: 22%\">+</p>"	"1181"	n/a	n/a	n/a	n/a	n/a	n/a	n/a	n/a	n/a
n/a	"image-keyboard-response"	"102"	"235985"	"0.0-5.0-2.0-1.24"	"m1s1tc"	"600"	"1366"	"chrome"	"111.0.0"	"FALSE"	"Windows 10"	"60.42"	"045"	n/a	n/a	n/a	n/a	n/a	n/a	"Trial"	n/a	n/a	n/a	"514"	"arrowright"	n/a	"NULL"	"NULL"	"NULL"	"stimuli/VerticalHorizontal_-20.27143_-0.0673.png"	n/a	"VerticalHorizontal"	"arrowright"	"1192"	"TRUE"	"VerticalHorizontal"	"-20.27143000"	"-0.067300000"	"1"	"43"
n/a	"html-keyboard-response"	"103"	"237029"	"0.0-5.0-2.0-0.25"	"m1s1tc"	"600"	"1366"	"chrome"	"111.0.0"	"FALSE"	"Windows 10"	"60.42"	"045"	n/a	n/a	n/a	n/a	n/a	n/a	"fixation"	n/a	n/a	n/a	n/a	"NULL"	n/a	"NULL"	"NULL"	"NULL"	"<p style=\"color: black; font-size: 80px; padding-left: 28%; padding-right: 23%; padding-top: 5%; padding-bottom: 9%\">+</p>"	"1031"	n/a	n/a	n/a	n/a	n/a	n/a	n/a	n/a	n/a
n/a	"image-keyboard-response"	"104"	"237475"	"0.0-5.0-2.0-1.25"	"m1s1tc"	"600"	"1366"	"chrome"	"111.0.0"	"FALSE"	"Windows 10"	"60.42"	"045"	n/a	n/a	n/a	n/a	n/a	n/a	"Trial"	n/a	n/a	n/a	"446"	"arrowleft"	n/a	"NULL"	"NULL"	"NULL"	"stimuli/VerticalHorizontal_-28.75714_0.10960.png"	n/a	"VerticalHorizontal"	"arrowleft"	"1044"	"TRUE"	"VerticalHorizontal"	"-28.75714000"	"0.1096000000"	"1"	"44"
n/a	"html-keyboard-response"	"105"	"238876"	"0.0-5.0-2.0-0.26"	"m1s1tc"	"600"	"1366"	"chrome"	"111.0.0"	"FALSE"	"Windows 10"	"60.42"	"045"	n/a	n/a	n/a	n/a	n/a	n/a	"fixation"	n/a	n/a	n/a	n/a	"NULL"	n/a	"NULL"	"NULL"	"NULL"	"<p style=\"color: black; font-size: 80px; padding-left: 4%; padding-right: 33%; padding-top: 45%; padding-bottom: 11%\">+</p>"	"1393"	n/a	n/a	n/a	n/a	n/a	n/a	n/a	n/a	n/a
n/a	"image-keyboard-response"	"106"	"239444"	"0.0-5.0-2.0-1.26"	"m1s1tc"	"600"	"1366"	"chrome"	"111.0.0"	"FALSE"	"Windows 10"	"60.42"	"045"	n/a	n/a	n/a	n/a	n/a	n/a	"Trial"	n/a	n/a	n/a	"567"	"arrowleft"	n/a	"NULL"	"NULL"	"NULL"	"stimuli/VerticalHorizontal_-11.78571_0.16217.png"	n/a	"VerticalHorizontal"	"arrowleft"	"1401"	"TRUE"	"VerticalHorizontal"	"-11.78571000"	"0.1621700000"	"1"	"45"
n/a	"html-keyboard-response"	"107"	"240625"	"0.0-5.0-2.0-0.27"	"m1s1tc"	"600"	"1366"	"chrome"	"111.0.0"	"FALSE"	"Windows 10"	"60.42"	"045"	n/a	n/a	n/a	n/a	n/a	n/a	"fixation"	n/a	n/a	n/a	n/a	"NULL"	n/a	"NULL"	"NULL"	"NULL"	"<p style=\"color: black; font-size: 80px; padding-left: 31%; padding-right: 31%; padding-top: 15%; padding-bottom: 15%\">+</p>"	"1172"	n/a	n/a	n/a	n/a	n/a	n/a	n/a	n/a	n/a
n/a	"image-keyboard-response"	"108"	"241031"	"0.0-5.0-2.0-1.27"	"m1s1tc"	"600"	"1366"	"chrome"	"111.0.0"	"FALSE"	"Windows 10"	"60.42"	"045"	n/a	n/a	n/a	n/a	n/a	n/a	"Trial"	n/a	n/a	n/a	"405"	"arrowleft"	n/a	"NULL"	"NULL"	"NULL"	"stimuli/VerticalHorizontal_-20.27143_0.10960.png"	n/a	"VerticalHorizontal"	"arrowleft"	"1181"	"TRUE"	"VerticalHorizontal"	"-20.27143000"	"0.1096000000"	"1"	"46"
n/a	"html-keyboard-response"	"109"	"242201"	"0.0-5.0-2.0-0.28"	"m1s1tc"	"600"	"1366"	"chrome"	"111.0.0"	"FALSE"	"Windows 10"	"60.42"	"045"	n/a	n/a	n/a	n/a	n/a	n/a	"fixation"	n/a	n/a	n/a	n/a	"NULL"	n/a	"NULL"	"NULL"	"NULL"	"<p style=\"color: black; font-size: 80px; padding-left: 41%; padding-right: 5%; padding-top: 25%; padding-bottom: 39%\">+</p>"	"1165"	n/a	n/a	n/a	n/a	n/a	n/a	n/a	n/a	n/a
n/a	"image-keyboard-response"	"110"	"243152"	"0.0-5.0-2.0-1.28"	"m1s1tc"	"600"	"1366"	"chrome"	"111.0.0"	"FALSE"	"Windows 10"	"60.42"	"045"	n/a	n/a	n/a	n/a	n/a	n/a	"Trial"	n/a	n/a	n/a	"950"	"arrowright"	n/a	"NULL"	"NULL"	"NULL"	"stimuli/VerticalHorizontal_28.75714_-0.2250.png"	n/a	"VerticalHorizontal"	"arrowright"	"1170"	"TRUE"	"VerticalHorizontal"	"28.757140000"	"-0.225000000"	"1"	"47"
n/a	"html-keyboard-response"	"111"	"244184"	"0.0-5.0-2.0-0.29"	"m1s1tc"	"600"	"1366"	"chrome"	"111.0.0"	"FALSE"	"Windows 10"	"60.42"	"045"	n/a	n/a	n/a	n/a	n/a	n/a	"fixation"	n/a	n/a	n/a	n/a	"NULL"	n/a	"NULL"	"NULL"	"NULL"	"<p style=\"color: black; font-size: 80px; padding-left: 19%; padding-right: 19%; padding-top: 27%; padding-bottom: 22%\">+</p>"	"1027"	n/a	n/a	n/a	n/a	n/a	n/a	n/a	n/a	n/a
n/a	"image-keyboard-response"	"112"	"244651"	"0.0-5.0-2.0-1.29"	"m1s1tc"	"600"	"1366"	"chrome"	"111.0.0"	"FALSE"	"Windows 10"	"60.42"	"045"	n/a	n/a	n/a	n/a	n/a	n/a	"Trial"	n/a	n/a	n/a	"467"	"arrowleft"	n/a	"NULL"	"NULL"	"NULL"	"stimuli/VerticalHorizontal_20.27143_0.22500.png"	n/a	"VerticalHorizontal"	"arrowleft"	"1032"	"TRUE"	"VerticalHorizontal"	"20.271430000"	"0.2250000000"	"1"	"48"
n/a	"html-keyboard-response"	"113"	"246040"	"0.0-5.0-2.0-0.30"	"m1s1tc"	"600"	"1366"	"chrome"	"111.0.0"	"FALSE"	"Windows 10"	"60.42"	"045"	n/a	n/a	n/a	n/a	n/a	n/a	"fixation"	n/a	n/a	n/a	n/a	"NULL"	n/a	"NULL"	"NULL"	"NULL"	"<p style=\"color: black; font-size: 80px; padding-left: 40%; padding-right: 42%; padding-top: 11%; padding-bottom: 48%\">+</p>"	"1373"	n/a	n/a	n/a	n/a	n/a	n/a	n/a	n/a	n/a
n/a	"image-keyboard-response"	"114"	"246671"	"0.0-5.0-2.0-1.30"	"m1s1tc"	"600"	"1366"	"chrome"	"111.0.0"	"FALSE"	"Windows 10"	"60.42"	"045"	n/a	n/a	n/a	n/a	n/a	n/a	"Trial"	n/a	n/a	n/a	"630"	"arrowright"	n/a	"NULL"	"NULL"	"NULL"	"stimuli/VerticalHorizontal_20.27143_-0.2250.png"	n/a	"VerticalHorizontal"	"arrowright"	"1389"	"TRUE"	"VerticalHorizontal"	"20.271430000"	"-0.225000000"	"1"	"49"
n/a	"html-keyboard-response"	"115"	"247682"	"0.0-5.0-2.0-0.31"	"m1s1tc"	"600"	"1366"	"chrome"	"111.0.0"	"FALSE"	"Windows 10"	"60.42"	"045"	n/a	n/a	n/a	n/a	n/a	n/a	"fixation"	n/a	n/a	n/a	n/a	"NULL"	n/a	"NULL"	"NULL"	"NULL"	"<p style=\"color: black; font-size: 80px; padding-left: 27%; padding-right: 2%; padding-top: 16%; padding-bottom: 4%\">+</p>"	"1003"	n/a	n/a	n/a	n/a	n/a	n/a	n/a	n/a	n/a
n/a	"image-keyboard-response"	"116"	"248259"	"0.0-5.0-2.0-1.31"	"m1s1tc"	"600"	"1366"	"chrome"	"111.0.0"	"FALSE"	"Windows 10"	"60.42"	"045"	n/a	n/a	n/a	n/a	n/a	n/a	"Trial"	n/a	n/a	n/a	"576"	"arrowright"	n/a	"NULL"	"NULL"	"NULL"	"stimuli/VerticalHorizontal_3.30000_-0.2250.png"	n/a	"VerticalHorizontal"	"arrowright"	"1011"	"TRUE"	"VerticalHorizontal"	"3.3000000000"	"-0.225000000"	"1"	"50"
n/a	"html-keyboard-response"	"117"	"249723"	"0.0-5.0-2.0-0.32"	"m1s1tc"	"600"	"1366"	"chrome"	"111.0.0"	"FALSE"	"Windows 10"	"60.42"	"045"	n/a	n/a	n/a	n/a	n/a	n/a	"fixation"	n/a	n/a	n/a	n/a	"NULL"	n/a	"NULL"	"NULL"	"NULL"	"<p style=\"color: black; font-size: 80px; padding-left: 31%; padding-right: 12%; padding-top: 26%; padding-bottom: 22%\">+</p>"	"1459"	n/a	n/a	n/a	n/a	n/a	n/a	n/a	n/a	n/a
n/a	"image-keyboard-response"	"118"	"250698"	"0.0-5.0-2.0-1.32"	"m1s1tc"	"600"	"1366"	"chrome"	"111.0.0"	"FALSE"	"Windows 10"	"60.42"	"045"	n/a	n/a	n/a	n/a	n/a	n/a	"Trial"	n/a	n/a	n/a	"974"	"arrowleft"	n/a	"NULL"	"NULL"	"NULL"	"stimuli/VerticalHorizontal_-3.3000_0.06730.png"	n/a	"VerticalHorizontal"	"arrowleft"	"1464"	"TRUE"	"VerticalHorizontal"	"-3.300000000"	"0.0673000000"	"1"	"51"
n/a	"html-keyboard-response"	"119"	"251909"	"0.0-5.0-2.0-0.33"	"m1s1tc"	"600"	"1366"	"chrome"	"111.0.0"	"FALSE"	"Windows 10"	"60.42"	"045"	n/a	n/a	n/a	n/a	n/a	n/a	"fixation"	n/a	n/a	n/a	n/a	"NULL"	n/a	"NULL"	"NULL"	"NULL"	"<p style=\"color: black; font-size: 80px; padding-left: 10%; padding-right: 1%; padding-top: 24%; padding-bottom: 14%\">+</p>"	"1210"	n/a	n/a	n/a	n/a	n/a	n/a	n/a	n/a	n/a
n/a	"image-keyboard-response"	"120"	"252385"	"0.0-5.0-2.0-1.33"	"m1s1tc"	"600"	"1366"	"chrome"	"111.0.0"	"FALSE"	"Windows 10"	"60.42"	"045"	n/a	n/a	n/a	n/a	n/a	n/a	"Trial"	n/a	n/a	n/a	"475"	"arrowleft"	n/a	"NULL"	"NULL"	"NULL"	"stimuli/VerticalHorizontal_-28.75714_0.22500.png"	n/a	"VerticalHorizontal"	"arrowleft"	"1211"	"TRUE"	"VerticalHorizontal"	"-28.75714000"	"0.2250000000"	"1"	"52"
n/a	"html-keyboard-response"	"121"	"253768"	"0.0-5.0-2.0-0.34"	"m1s1tc"	"600"	"1366"	"chrome"	"111.0.0"	"FALSE"	"Windows 10"	"60.42"	"045"	n/a	n/a	n/a	n/a	n/a	n/a	"fixation"	n/a	n/a	n/a	n/a	"NULL"	n/a	"NULL"	"NULL"	"NULL"	"<p style=\"color: black; font-size: 80px; padding-left: 9%; padding-right: 32%; padding-top: 21%; padding-bottom: 26%\">+</p>"	"1371"	n/a	n/a	n/a	n/a	n/a	n/a	n/a	n/a	n/a
n/a	"image-keyboard-response"	"122"	"254180"	"0.0-5.0-2.0-1.34"	"m1s1tc"	"600"	"1366"	"chrome"	"111.0.0"	"FALSE"	"Windows 10"	"60.42"	"045"	n/a	n/a	n/a	n/a	n/a	n/a	"Trial"	n/a	n/a	n/a	"411"	"arrowleft"	n/a	"NULL"	"NULL"	"NULL"	"stimuli/VerticalHorizontal_-28.75714_0.16217.png"	n/a	"VerticalHorizontal"	"arrowleft"	"1383"	"TRUE"	"VerticalHorizontal"	"-28.75714000"	"0.1621700000"	"1"	"53"
n/a	"html-keyboard-response"	"123"	"255282"	"0.0-5.0-2.0-0.35"	"m1s1tc"	"600"	"1366"	"chrome"	"111.0.0"	"FALSE"	"Windows 10"	"60.42"	"045"	n/a	n/a	n/a	n/a	n/a	n/a	"fixation"	n/a	n/a	n/a	n/a	"NULL"	n/a	"NULL"	"NULL"	"NULL"	"<p style=\"color: black; font-size: 80px; padding-left: 32%; padding-right: 25%; padding-top: 34%; padding-bottom: 17%\">+</p>"	"1099"	n/a	n/a	n/a	n/a	n/a	n/a	n/a	n/a	n/a
n/a	"image-keyboard-response"	"124"	"255821"	"0.0-5.0-2.0-1.35"	"m1s1tc"	"600"	"1366"	"chrome"	"111.0.0"	"FALSE"	"Windows 10"	"60.42"	"045"	n/a	n/a	n/a	n/a	n/a	n/a	"Trial"	n/a	n/a	n/a	"539"	"arrowleft"	n/a	"NULL"	"NULL"	"NULL"	"stimuli/VerticalHorizontal_11.78571_0.10960.png"	n/a	"VerticalHorizontal"	"arrowleft"	"1102"	"TRUE"	"VerticalHorizontal"	"11.785710000"	"0.1096000000"	"1"	"54"
n/a	"html-keyboard-response"	"125"	"257040"	"0.0-5.0-2.0-0.36"	"m1s1tc"	"600"	"1366"	"chrome"	"111.0.0"	"FALSE"	"Windows 10"	"60.42"	"045"	n/a	n/a	n/a	n/a	n/a	n/a	"fixation"	n/a	n/a	n/a	n/a	"NULL"	n/a	"NULL"	"NULL"	"NULL"	"<p style=\"color: black; font-size: 80px; padding-left: 43%; padding-right: 11%; padding-top: 20%; padding-bottom: 37%\">+</p>"	"1209"	n/a	n/a	n/a	n/a	n/a	n/a	n/a	n/a	n/a
n/a	"image-keyboard-response"	"126"	"257506"	"0.0-5.0-2.0-1.36"	"m1s1tc"	"600"	"1366"	"chrome"	"111.0.0"	"FALSE"	"Windows 10"	"60.42"	"045"	n/a	n/a	n/a	n/a	n/a	n/a	"Trial"	n/a	n/a	n/a	"465"	"arrowright"	n/a	"NULL"	"NULL"	"NULL"	"stimuli/VerticalHorizontal_-28.75714_-0.1096.png"	n/a	"VerticalHorizontal"	"arrowright"	"1219"	"TRUE"	"VerticalHorizontal"	"-28.75714000"	"-0.109600000"	"1"	"55"
n/a	"html-keyboard-response"	"127"	"258626"	"0.0-5.0-2.0-0.37"	"m1s1tc"	"600"	"1366"	"chrome"	"111.0.0"	"FALSE"	"Windows 10"	"60.42"	"045"	n/a	n/a	n/a	n/a	n/a	n/a	"fixation"	n/a	n/a	n/a	n/a	"NULL"	n/a	"NULL"	"NULL"	"NULL"	"<p style=\"color: black; font-size: 80px; padding-left: 24%; padding-right: 28%; padding-top: 39%; padding-bottom: 1%\">+</p>"	"1109"	n/a	n/a	n/a	n/a	n/a	n/a	n/a	n/a	n/a
n/a	"image-keyboard-response"	"128"	"259701"	"0.0-5.0-2.0-1.37"	"m1s1tc"	"600"	"1366"	"chrome"	"111.0.0"	"FALSE"	"Windows 10"	"60.42"	"045"	n/a	n/a	n/a	n/a	n/a	n/a	"Trial"	n/a	n/a	n/a	"1074"	"arrowright"	n/a	"NULL"	"NULL"	"NULL"	"stimuli/VerticalHorizontal_3.30000_-0.0673.png"	n/a	"VerticalHorizontal"	"arrowright"	"1120"	"TRUE"	"VerticalHorizontal"	"3.3000000000"	"-0.067300000"	"1"	"56"
n/a	"html-keyboard-response"	"129"	"260893"	"0.0-5.0-2.0-0.38"	"m1s1tc"	"600"	"1366"	"chrome"	"111.0.0"	"FALSE"	"Windows 10"	"60.42"	"045"	n/a	n/a	n/a	n/a	n/a	n/a	"fixation"	n/a	n/a	n/a	n/a	"NULL"	n/a	"NULL"	"NULL"	"NULL"	"<p style=\"color: black; font-size: 80px; padding-left: 26%; padding-right: 13%; padding-top: 0%; padding-bottom: 0%\">+</p>"	"1179"	n/a	n/a	n/a	n/a	n/a	n/a	n/a	n/a	n/a
n/a	"image-keyboard-response"	"130"	"261645"	"0.0-5.0-2.0-1.38"	"m1s1tc"	"600"	"1366"	"chrome"	"111.0.0"	"FALSE"	"Windows 10"	"60.42"	"045"	n/a	n/a	n/a	n/a	n/a	n/a	"Trial"	n/a	n/a	n/a	"751"	"arrowleft"	n/a	"NULL"	"NULL"	"NULL"	"stimuli/VerticalHorizontal_28.75714_0.10960.png"	n/a	"VerticalHorizontal"	"arrowleft"	"1192"	"TRUE"	"VerticalHorizontal"	"28.757140000"	"0.1096000000"	"1"	"57"
n/a	"html-keyboard-response"	"131"	"262657"	"0.0-5.0-2.0-0.39"	"m1s1tc"	"600"	"1366"	"chrome"	"111.0.0"	"FALSE"	"Windows 10"	"60.42"	"045"	n/a	n/a	n/a	n/a	n/a	n/a	"fixation"	n/a	n/a	n/a	n/a	"NULL"	n/a	"NULL"	"NULL"	"NULL"	"<p style=\"color: black; font-size: 80px; padding-left: 38%; padding-right: 35%; padding-top: 38%; padding-bottom: 9%\">+</p>"	"1002"	n/a	n/a	n/a	n/a	n/a	n/a	n/a	n/a	n/a
n/a	"image-keyboard-response"	"132"	"263150"	"0.0-5.0-2.0-1.39"	"m1s1tc"	"600"	"1366"	"chrome"	"111.0.0"	"FALSE"	"Windows 10"	"60.42"	"045"	n/a	n/a	n/a	n/a	n/a	n/a	"Trial"	n/a	n/a	n/a	"492"	"arrowleft"	n/a	"NULL"	"NULL"	"NULL"	"stimuli/VerticalHorizontal_3.30000_0.22500.png"	n/a	"VerticalHorizontal"	"arrowleft"	"1012"	"TRUE"	"VerticalHorizontal"	"3.3000000000"	"0.2250000000"	"1"	"58"
n/a	"html-keyboard-response"	"133"	"264417"	"0.0-5.0-2.0-0.40"	"m1s1tc"	"600"	"1366"	"chrome"	"111.0.0"	"FALSE"	"Windows 10"	"60.42"	"045"	n/a	n/a	n/a	n/a	n/a	n/a	"fixation"	n/a	n/a	n/a	n/a	"NULL"	n/a	"NULL"	"NULL"	"NULL"	"<p style=\"color: black; font-size: 80px; padding-left: 13%; padding-right: 33%; padding-top: 17%; padding-bottom: 41%\">+</p>"	"1255"	n/a	n/a	n/a	n/a	n/a	n/a	n/a	n/a	n/a
n/a	"image-keyboard-response"	"134"	"265689"	"0.0-5.0-2.0-1.40"	"m1s1tc"	"600"	"1366"	"chrome"	"111.0.0"	"FALSE"	"Windows 10"	"60.42"	"045"	n/a	n/a	n/a	n/a	n/a	n/a	"Trial"	n/a	n/a	n/a	"1272"	"arrowright"	n/a	"NULL"	"NULL"	"NULL"	"stimuli/VerticalHorizontal_11.78571_-0.0673.png"	n/a	"VerticalHorizontal"	"arrowright"	"1267"	"TRUE"	"VerticalHorizontal"	"11.785710000"	"-0.067300000"	"1"	"59"
n/a	"html-keyboard-response"	"135"	"267048"	"0.0-5.0-2.0-0.41"	"m1s1tc"	"600"	"1366"	"chrome"	"111.0.0"	"FALSE"	"Windows 10"	"60.42"	"045"	n/a	n/a	n/a	n/a	n/a	n/a	"fixation"	n/a	n/a	n/a	n/a	"NULL"	n/a	"NULL"	"NULL"	"NULL"	"<p style=\"color: black; font-size: 80px; padding-left: 45%; padding-right: 35%; padding-top: 31%; padding-bottom: 50%\">+</p>"	"1348"	n/a	n/a	n/a	n/a	n/a	n/a	n/a	n/a	n/a
n/a	"image-keyboard-response"	"136"	"267478"	"0.0-5.0-2.0-1.41"	"m1s1tc"	"600"	"1366"	"chrome"	"111.0.0"	"FALSE"	"Windows 10"	"60.42"	"045"	n/a	n/a	n/a	n/a	n/a	n/a	"Trial"	n/a	n/a	n/a	"430"	"arrowleft"	n/a	"NULL"	"NULL"	"NULL"	"stimuli/VerticalHorizontal_-28.75714_0.06730.png"	n/a	"VerticalHorizontal"	"arrowleft"	"1359"	"TRUE"	"VerticalHorizontal"	"-28.75714000"	"0.0673000000"	"1"	"60"
n/a	"html-keyboard-response"	"137"	"268825"	"0.0-5.0-2.0-0.42"	"m1s1tc"	"600"	"1366"	"chrome"	"111.0.0"	"FALSE"	"Windows 10"	"60.42"	"045"	n/a	n/a	n/a	n/a	n/a	n/a	"fixation"	n/a	n/a	n/a	n/a	"NULL"	n/a	"NULL"	"NULL"	"NULL"	"<p style=\"color: black; font-size: 80px; padding-left: 50%; padding-right: 49%; padding-top: 31%; padding-bottom: 6%\">+</p>"	"1340"	n/a	n/a	n/a	n/a	n/a	n/a	n/a	n/a	n/a
n/a	"image-keyboard-response"	"138"	"269295"	"0.0-5.0-2.0-1.42"	"m1s1tc"	"600"	"1366"	"chrome"	"111.0.0"	"FALSE"	"Windows 10"	"60.42"	"045"	n/a	n/a	n/a	n/a	n/a	n/a	"Trial"	n/a	n/a	n/a	"470"	"arrowleft"	n/a	"NULL"	"NULL"	"NULL"	"stimuli/VerticalHorizontal_-3.3000_0.22500.png"	n/a	"VerticalHorizontal"	"arrowleft"	"1347"	"TRUE"	"VerticalHorizontal"	"-3.300000000"	"0.2250000000"	"1"	"61"
n/a	"html-keyboard-response"	"139"	"270799"	"0.0-5.0-2.0-0.43"	"m1s1tc"	"600"	"1366"	"chrome"	"111.0.0"	"FALSE"	"Windows 10"	"60.42"	"045"	n/a	n/a	n/a	n/a	n/a	n/a	"fixation"	n/a	n/a	n/a	n/a	"NULL"	n/a	"NULL"	"NULL"	"NULL"	"<p style=\"color: black; font-size: 80px; padding-left: 10%; padding-right: 41%; padding-top: 33%; padding-bottom: 14%\">+</p>"	"1493"	n/a	n/a	n/a	n/a	n/a	n/a	n/a	n/a	n/a
n/a	"image-keyboard-response"	"140"	"271326"	"0.0-5.0-2.0-1.43"	"m1s1tc"	"600"	"1366"	"chrome"	"111.0.0"	"FALSE"	"Windows 10"	"60.42"	"045"	n/a	n/a	n/a	n/a	n/a	n/a	"Trial"	n/a	n/a	n/a	"526"	"arrowright"	n/a	"NULL"	"NULL"	"NULL"	"stimuli/VerticalHorizontal_-28.75714_-0.16217.png"	n/a	"VerticalHorizontal"	"arrowright"	"1504"	"TRUE"	"VerticalHorizontal"	"-28.75714000"	"-0.162170000"	"1"	"62"
n/a	"html-keyboard-response"	"141"	"272473"	"0.0-5.0-2.0-0.44"	"m1s1tc"	"600"	"1366"	"chrome"	"111.0.0"	"FALSE"	"Windows 10"	"60.42"	"045"	n/a	n/a	n/a	n/a	n/a	n/a	"fixation"	n/a	n/a	n/a	n/a	"NULL"	n/a	"NULL"	"NULL"	"NULL"	"<p style=\"color: black; font-size: 80px; padding-left: 38%; padding-right: 39%; padding-top: 37%; padding-bottom: 3%\">+</p>"	"1147"	n/a	n/a	n/a	n/a	n/a	n/a	n/a	n/a	n/a
n/a	"image-keyboard-response"	"142"	"272882"	"0.0-5.0-2.0-1.44"	"m1s1tc"	"600"	"1366"	"chrome"	"111.0.0"	"FALSE"	"Windows 10"	"60.42"	"045"	n/a	n/a	n/a	n/a	n/a	n/a	"Trial"	n/a	n/a	n/a	"408"	"arrowleft"	n/a	"NULL"	"NULL"	"NULL"	"stimuli/VerticalHorizontal_-11.78571_0.10960.png"	n/a	"VerticalHorizontal"	"arrowleft"	"1147"	"TRUE"	"VerticalHorizontal"	"-11.78571000"	"0.1096000000"	"1"	"63"
n/a	"html-keyboard-response"	"143"	"273941"	"0.0-5.0-2.0-0.45"	"m1s1tc"	"600"	"1366"	"chrome"	"111.0.0"	"FALSE"	"Windows 10"	"60.42"	"045"	n/a	n/a	n/a	n/a	n/a	n/a	"fixation"	n/a	n/a	n/a	n/a	"NULL"	n/a	"NULL"	"NULL"	"NULL"	"<p style=\"color: black; font-size: 80px; padding-left: 31%; padding-right: 20%; padding-top: 2%; padding-bottom: 26%\">+</p>"	"1048"	n/a	n/a	n/a	n/a	n/a	n/a	n/a	n/a	n/a
n/a	"image-keyboard-response"	"144"	"274306"	"0.0-5.0-2.0-1.45"	"m1s1tc"	"600"	"1366"	"chrome"	"111.0.0"	"FALSE"	"Windows 10"	"60.42"	"045"	n/a	n/a	n/a	n/a	n/a	n/a	"Trial"	n/a	n/a	n/a	"364"	"arrowright"	n/a	"NULL"	"NULL"	"NULL"	"stimuli/VerticalHorizontal_-20.27143_-0.2250.png"	n/a	"VerticalHorizontal"	"arrowright"	"1059"	"TRUE"	"VerticalHorizontal"	"-20.27143000"	"-0.225000000"	"1"	"64"
n/a	"html-keyboard-response"	"145"	"275740"	"0.0-5.0-2.0-0.46"	"m1s1tc"	"600"	"1366"	"chrome"	"111.0.0"	"FALSE"	"Windows 10"	"60.42"	"045"	n/a	n/a	n/a	n/a	n/a	n/a	"fixation"	n/a	n/a	n/a	n/a	"NULL"	n/a	"NULL"	"NULL"	"NULL"	"<p style=\"color: black; font-size: 80px; padding-left: 49%; padding-right: 38%; padding-top: 35%; padding-bottom: 40%\">+</p>"	"1426"	n/a	n/a	n/a	n/a	n/a	n/a	n/a	n/a	n/a
n/a	"image-keyboard-response"	"146"	"276045"	"0.0-5.0-2.0-1.46"	"m1s1tc"	"600"	"1366"	"chrome"	"111.0.0"	"FALSE"	"Windows 10"	"60.42"	"045"	n/a	n/a	n/a	n/a	n/a	n/a	"Trial"	n/a	n/a	n/a	"304"	"arrowright"	n/a	"NULL"	"NULL"	"NULL"	"stimuli/VerticalHorizontal_20.27143_0.06730.png"	n/a	"VerticalHorizontal"	"arrowleft"	"1434"	"FALSE"	"VerticalHorizontal"	"20.271430000"	"0.0673000000"	"1"	"65"
n/a	"html-keyboard-response"	"147"	"277095"	"0.0-5.0-2.0-0.47"	"m1s1tc"	"600"	"1366"	"chrome"	"111.0.0"	"FALSE"	"Windows 10"	"60.42"	"045"	n/a	n/a	n/a	n/a	n/a	n/a	"fixation"	n/a	n/a	n/a	n/a	"NULL"	n/a	"NULL"	"NULL"	"NULL"	"<p style=\"color: black; font-size: 80px; padding-left: 3%; padding-right: 34%; padding-top: 4%; padding-bottom: 36%\">+</p>"	"1041"	n/a	n/a	n/a	n/a	n/a	n/a	n/a	n/a	n/a
n/a	"image-keyboard-response"	"148"	"277789"	"0.0-5.0-2.0-1.47"	"m1s1tc"	"600"	"1366"	"chrome"	"111.0.0"	"FALSE"	"Windows 10"	"60.42"	"045"	n/a	n/a	n/a	n/a	n/a	n/a	"Trial"	n/a	n/a	n/a	"694"	"arrowleft"	n/a	"NULL"	"NULL"	"NULL"	"stimuli/VerticalHorizontal_11.78571_0.16217.png"	n/a	"VerticalHorizontal"	"arrowleft"	"1050"	"TRUE"	"VerticalHorizontal"	"11.785710000"	"0.1621700000"	"1"	"66"
n/a	"html-keyboard-response"	"149"	"279094"	"0.0-5.0-2.0-0.48"	"m1s1tc"	"600"	"1366"	"chrome"	"111.0.0"	"FALSE"	"Windows 10"	"60.42"	"045"	n/a	n/a	n/a	n/a	n/a	n/a	"fixation"	n/a	n/a	n/a	n/a	"NULL"	n/a	"NULL"	"NULL"	"NULL"	"<p style=\"color: black; font-size: 80px; padding-left: 22%; padding-right: 28%; padding-top: 49%; padding-bottom: 23%\">+</p>"	"1292"	n/a	n/a	n/a	n/a	n/a	n/a	n/a	n/a	n/a
n/a	"image-keyboard-response"	"150"	"279822"	"0.0-5.0-2.0-1.48"	"m1s1tc"	"600"	"1366"	"chrome"	"111.0.0"	"FALSE"	"Windows 10"	"60.42"	"045"	n/a	n/a	n/a	n/a	n/a	n/a	"Trial"	n/a	n/a	n/a	"727"	"arrowright"	n/a	"NULL"	"NULL"	"NULL"	"stimuli/VerticalHorizontal_20.27143_-0.1096.png"	n/a	"VerticalHorizontal"	"arrowright"	"1305"	"TRUE"	"VerticalHorizontal"	"20.271430000"	"-0.109600000"	"1"	"67"
n/a	"html-keyboard-response"	"151"	"281159"	"0.0-5.0-2.0-0.49"	"m1s1tc"	"600"	"1366"	"chrome"	"111.0.0"	"FALSE"	"Windows 10"	"60.42"	"045"	n/a	n/a	n/a	n/a	n/a	n/a	"fixation"	n/a	n/a	n/a	n/a	"NULL"	n/a	"NULL"	"NULL"	"NULL"	"<p style=\"color: black; font-size: 80px; padding-left: 23%; padding-right: 7%; padding-top: 18%; padding-bottom: 15%\">+</p>"	"1322"	n/a	n/a	n/a	n/a	n/a	n/a	n/a	n/a	n/a
n/a	"image-keyboard-response"	"152"	"281900"	"0.0-5.0-2.0-1.49"	"m1s1tc"	"600"	"1366"	"chrome"	"111.0.0"	"FALSE"	"Windows 10"	"60.42"	"045"	n/a	n/a	n/a	n/a	n/a	n/a	"Trial"	n/a	n/a	n/a	"740"	"arrowright"	n/a	"NULL"	"NULL"	"NULL"	"stimuli/VerticalHorizontal_11.78571_-0.16217.png"	n/a	"VerticalHorizontal"	"arrowright"	"1337"	"TRUE"	"VerticalHorizontal"	"11.785710000"	"-0.162170000"	"1"	"68"
n/a	"html-keyboard-response"	"153"	"283393"	"0.0-5.0-2.0-0.50"	"m1s1tc"	"600"	"1366"	"chrome"	"111.0.0"	"FALSE"	"Windows 10"	"60.42"	"045"	n/a	n/a	n/a	n/a	n/a	n/a	"fixation"	n/a	n/a	n/a	n/a	"NULL"	n/a	"NULL"	"NULL"	"NULL"	"<p style=\"color: black; font-size: 80px; padding-left: 48%; padding-right: 16%; padding-top: 2%; padding-bottom: 43%\">+</p>"	"1489"	n/a	n/a	n/a	n/a	n/a	n/a	n/a	n/a	n/a
n/a	"image-keyboard-response"	"154"	"284175"	"0.0-5.0-2.0-1.50"	"m1s1tc"	"600"	"1366"	"chrome"	"111.0.0"	"FALSE"	"Windows 10"	"60.42"	"045"	n/a	n/a	n/a	n/a	n/a	n/a	"Trial"	n/a	n/a	n/a	"781"	"arrowright"	n/a	"NULL"	"NULL"	"NULL"	"stimuli/VerticalHorizontal_3.30000_-0.1096.png"	n/a	"VerticalHorizontal"	"arrowright"	"1493"	"TRUE"	"VerticalHorizontal"	"3.3000000000"	"-0.109600000"	"1"	"69"
n/a	"html-keyboard-response"	"155"	"285388"	"0.0-5.0-2.0-0.51"	"m1s1tc"	"600"	"1366"	"chrome"	"111.0.0"	"FALSE"	"Windows 10"	"60.42"	"045"	n/a	n/a	n/a	n/a	n/a	n/a	"fixation"	n/a	n/a	n/a	n/a	"NULL"	n/a	"NULL"	"NULL"	"NULL"	"<p style=\"color: black; font-size: 80px; padding-left: 31%; padding-right: 48%; padding-top: 17%; padding-bottom: 9%\">+</p>"	"1207"	n/a	n/a	n/a	n/a	n/a	n/a	n/a	n/a	n/a
n/a	"image-keyboard-response"	"156"	"286284"	"0.0-5.0-2.0-1.51"	"m1s1tc"	"600"	"1366"	"chrome"	"111.0.0"	"FALSE"	"Windows 10"	"60.42"	"045"	n/a	n/a	n/a	n/a	n/a	n/a	"Trial"	n/a	n/a	n/a	"895"	"arrowright"	n/a	"NULL"	"NULL"	"NULL"	"stimuli/VerticalHorizontal_28.75714_-0.16217.png"	n/a	"VerticalHorizontal"	"arrowright"	"1213"	"TRUE"	"VerticalHorizontal"	"28.757140000"	"-0.162170000"	"1"	"70"
n/a	"html-keyboard-response"	"157"	"287525"	"0.0-5.0-2.0-0.52"	"m1s1tc"	"600"	"1366"	"chrome"	"111.0.0"	"FALSE"	"Windows 10"	"60.42"	"045"	n/a	n/a	n/a	n/a	n/a	n/a	"fixation"	n/a	n/a	n/a	n/a	"NULL"	n/a	"NULL"	"NULL"	"NULL"	"<p style=\"color: black; font-size: 80px; padding-left: 48%; padding-right: 43%; padding-top: 3%; padding-bottom: 9%\">+</p>"	"1230"	n/a	n/a	n/a	n/a	n/a	n/a	n/a	n/a	n/a
n/a	"image-keyboard-response"	"158"	"288001"	"0.0-5.0-2.0-1.52"	"m1s1tc"	"600"	"1366"	"chrome"	"111.0.0"	"FALSE"	"Windows 10"	"60.42"	"045"	n/a	n/a	n/a	n/a	n/a	n/a	"Trial"	n/a	n/a	n/a	"475"	"arrowleft"	n/a	"NULL"	"NULL"	"NULL"	"stimuli/VerticalHorizontal_3.30000_0.16217.png"	n/a	"VerticalHorizontal"	"arrowleft"	"1241"	"TRUE"	"VerticalHorizontal"	"3.3000000000"	"0.1621700000"	"1"	"71"
n/a	"html-keyboard-response"	"159"	"289324"	"0.0-5.0-2.0-0.53"	"m1s1tc"	"600"	"1366"	"chrome"	"111.0.0"	"FALSE"	"Windows 10"	"60.42"	"045"	n/a	n/a	n/a	n/a	n/a	n/a	"fixation"	n/a	n/a	n/a	n/a	"NULL"	n/a	"NULL"	"NULL"	"NULL"	"<p style=\"color: black; font-size: 80px; padding-left: 47%; padding-right: 2%; padding-top: 35%; padding-bottom: 48%\">+</p>"	"1316"	n/a	n/a	n/a	n/a	n/a	n/a	n/a	n/a	n/a
n/a	"image-keyboard-response"	"160"	"289860"	"0.0-5.0-2.0-1.53"	"m1s1tc"	"600"	"1366"	"chrome"	"111.0.0"	"FALSE"	"Windows 10"	"60.42"	"045"	n/a	n/a	n/a	n/a	n/a	n/a	"Trial"	n/a	n/a	n/a	"535"	"arrowleft"	n/a	"NULL"	"NULL"	"NULL"	"stimuli/VerticalHorizontal_20.27143_0.10960.png"	n/a	"VerticalHorizontal"	"arrowleft"	"1323"	"TRUE"	"VerticalHorizontal"	"20.271430000"	"0.1096000000"	"1"	"72"
n/a	"html-keyboard-response"	"161"	"291239"	"0.0-5.0-2.0-0.54"	"m1s1tc"	"600"	"1366"	"chrome"	"111.0.0"	"FALSE"	"Windows 10"	"60.42"	"045"	n/a	n/a	n/a	n/a	n/a	n/a	"fixation"	n/a	n/a	n/a	n/a	"NULL"	n/a	"NULL"	"NULL"	"NULL"	"<p style=\"color: black; font-size: 80px; padding-left: 45%; padding-right: 7%; padding-top: 23%; padding-bottom: 45%\">+</p>"	"1371"	n/a	n/a	n/a	n/a	n/a	n/a	n/a	n/a	n/a
n/a	"image-keyboard-response"	"162"	"291905"	"0.0-5.0-2.0-1.54"	"m1s1tc"	"600"	"1366"	"chrome"	"111.0.0"	"FALSE"	"Windows 10"	"60.42"	"045"	n/a	n/a	n/a	n/a	n/a	n/a	"Trial"	n/a	n/a	n/a	"665"	"arrowleft"	n/a	"NULL"	"NULL"	"NULL"	"stimuli/VerticalHorizontal_20.27143_-0.0673.png"	n/a	"VerticalHorizontal"	"arrowright"	"1379"	"FALSE"	"VerticalHorizontal"	"20.271430000"	"-0.067300000"	"1"	"73"
n/a	"html-keyboard-response"	"163"	"292965"	"0.0-5.0-2.0-0.55"	"m1s1tc"	"600"	"1366"	"chrome"	"111.0.0"	"FALSE"	"Windows 10"	"60.42"	"045"	n/a	n/a	n/a	n/a	n/a	n/a	"fixation"	n/a	n/a	n/a	n/a	"NULL"	n/a	"NULL"	"NULL"	"NULL"	"<p style=\"color: black; font-size: 80px; padding-left: 27%; padding-right: 22%; padding-top: 29%; padding-bottom: 11%\">+</p>"	"1045"	n/a	n/a	n/a	n/a	n/a	n/a	n/a	n/a	n/a
n/a	"image-keyboard-response"	"164"	"293317"	"0.0-5.0-2.0-1.55"	"m1s1tc"	"600"	"1366"	"chrome"	"111.0.0"	"FALSE"	"Windows 10"	"60.42"	"045"	n/a	n/a	n/a	n/a	n/a	n/a	"Trial"	n/a	n/a	n/a	"352"	"arrowleft"	n/a	"NULL"	"NULL"	"NULL"	"stimuli/VerticalHorizontal_11.78571_-0.1096.png"	n/a	"VerticalHorizontal"	"arrowright"	"1060"	"FALSE"	"VerticalHorizontal"	"11.785710000"	"-0.109600000"	"1"	"74"
n/a	"html-keyboard-response"	"165"	"294424"	"0.0-5.0-2.0-0.56"	"m1s1tc"	"600"	"1366"	"chrome"	"111.0.0"	"FALSE"	"Windows 10"	"60.42"	"045"	n/a	n/a	n/a	n/a	n/a	n/a	"fixation"	n/a	n/a	n/a	n/a	"NULL"	n/a	"NULL"	"NULL"	"NULL"	"<p style=\"color: black; font-size: 80px; padding-left: 23%; padding-right: 6%; padding-top: 14%; padding-bottom: 19%\">+</p>"	"1105"	n/a	n/a	n/a	n/a	n/a	n/a	n/a	n/a	n/a
n/a	"image-keyboard-response"	"166"	"294849"	"0.0-5.0-2.0-1.56"	"m1s1tc"	"600"	"1366"	"chrome"	"111.0.0"	"FALSE"	"Windows 10"	"60.42"	"045"	n/a	n/a	n/a	n/a	n/a	n/a	"Trial"	n/a	n/a	n/a	"425"	"arrowleft"	n/a	"NULL"	"NULL"	"NULL"	"stimuli/VerticalHorizontal_11.78571_0.22500.png"	n/a	"VerticalHorizontal"	"arrowleft"	"1107"	"TRUE"	"VerticalHorizontal"	"11.785710000"	"0.2250000000"	"1"	"75"
n/a	"html-keyboard-response"	"167"	"296190"	"0.0-5.0-2.0-0.57"	"m1s1tc"	"600"	"1366"	"chrome"	"111.0.0"	"FALSE"	"Windows 10"	"60.42"	"045"	n/a	n/a	n/a	n/a	n/a	n/a	"fixation"	n/a	n/a	n/a	n/a	"NULL"	n/a	"NULL"	"NULL"	"NULL"	"<p style=\"color: black; font-size: 80px; padding-left: 35%; padding-right: 28%; padding-top: 34%; padding-bottom: 10%\">+</p>"	"1333"	n/a	n/a	n/a	n/a	n/a	n/a	n/a	n/a	n/a
n/a	"image-keyboard-response"	"168"	"296673"	"0.0-5.0-2.0-1.57"	"m1s1tc"	"600"	"1366"	"chrome"	"111.0.0"	"FALSE"	"Windows 10"	"60.42"	"045"	n/a	n/a	n/a	n/a	n/a	n/a	"Trial"	n/a	n/a	n/a	"482"	"arrowright"	n/a	"NULL"	"NULL"	"NULL"	"stimuli/VerticalHorizontal_3.30000_-0.16217.png"	n/a	"VerticalHorizontal"	"arrowright"	"1341"	"TRUE"	"VerticalHorizontal"	"3.3000000000"	"-0.162170000"	"1"	"76"
n/a	"html-keyboard-response"	"169"	"297721"	"0.0-5.0-2.0-0.58"	"m1s1tc"	"600"	"1366"	"chrome"	"111.0.0"	"FALSE"	"Windows 10"	"60.42"	"045"	n/a	n/a	n/a	n/a	n/a	n/a	"fixation"	n/a	n/a	n/a	n/a	"NULL"	n/a	"NULL"	"NULL"	"NULL"	"<p style=\"color: black; font-size: 80px; padding-left: 47%; padding-right: 50%; padding-top: 28%; padding-bottom: 28%\">+</p>"	"1034"	n/a	n/a	n/a	n/a	n/a	n/a	n/a	n/a	n/a
n/a	"image-keyboard-response"	"170"	"298447"	"0.0-5.0-2.0-1.58"	"m1s1tc"	"600"	"1366"	"chrome"	"111.0.0"	"FALSE"	"Windows 10"	"60.42"	"045"	n/a	n/a	n/a	n/a	n/a	n/a	"Trial"	n/a	n/a	n/a	"725"	"arrowright"	n/a	"NULL"	"NULL"	"NULL"	"stimuli/VerticalHorizontal_-3.3000_-0.2250.png"	n/a	"VerticalHorizontal"	"arrowright"	"1048"	"TRUE"	"VerticalHorizontal"	"-3.300000000"	"-0.225000000"	"1"	"77"
n/a	"html-keyboard-response"	"171"	"299719"	"0.0-5.0-2.0-0.59"	"m1s1tc"	"600"	"1366"	"chrome"	"111.0.0"	"FALSE"	"Windows 10"	"60.42"	"045"	n/a	n/a	n/a	n/a	n/a	n/a	"fixation"	n/a	n/a	n/a	n/a	"NULL"	n/a	"NULL"	"NULL"	"NULL"	"<p style=\"color: black; font-size: 80px; padding-left: 32%; padding-right: 29%; padding-top: 26%; padding-bottom: 27%\">+</p>"	"1266"	n/a	n/a	n/a	n/a	n/a	n/a	n/a	n/a	n/a
n/a	"image-keyboard-response"	"172"	"300561"	"0.0-5.0-2.0-1.59"	"m1s1tc"	"600"	"1366"	"chrome"	"111.0.0"	"FALSE"	"Windows 10"	"60.42"	"045"	n/a	n/a	n/a	n/a	n/a	n/a	"Trial"	n/a	n/a	n/a	"841"	"arrowright"	n/a	"NULL"	"NULL"	"NULL"	"stimuli/VerticalHorizontal_-28.75714_-0.0673.png"	n/a	"VerticalHorizontal"	"arrowright"	"1272"	"TRUE"	"VerticalHorizontal"	"-28.75714000"	"-0.067300000"	"1"	"78"
n/a	"html-keyboard-response"	"173"	"301868"	"0.0-5.0-2.0-0.60"	"m1s1tc"	"600"	"1366"	"chrome"	"111.0.0"	"FALSE"	"Windows 10"	"60.42"	"045"	n/a	n/a	n/a	n/a	n/a	n/a	"fixation"	n/a	n/a	n/a	n/a	"NULL"	n/a	"NULL"	"NULL"	"NULL"	"<p style=\"color: black; font-size: 80px; padding-left: 5%; padding-right: 33%; padding-top: 24%; padding-bottom: 35%\">+</p>"	"1293"	n/a	n/a	n/a	n/a	n/a	n/a	n/a	n/a	n/a
n/a	"image-keyboard-response"	"174"	"302342"	"0.0-5.0-2.0-1.60"	"m1s1tc"	"600"	"1366"	"chrome"	"111.0.0"	"FALSE"	"Windows 10"	"60.42"	"045"	n/a	n/a	n/a	n/a	n/a	n/a	"Trial"	n/a	n/a	n/a	"473"	"arrowleft"	n/a	"NULL"	"NULL"	"NULL"	"stimuli/VerticalHorizontal_-20.27143_0.06730.png"	n/a	"VerticalHorizontal"	"arrowleft"	"1307"	"TRUE"	"VerticalHorizontal"	"-20.27143000"	"0.0673000000"	"1"	"79"
n/a	"html-keyboard-response"	"175"	"303437"	"0.0-5.0-2.0-0.61"	"m1s1tc"	"600"	"1366"	"chrome"	"111.0.0"	"FALSE"	"Windows 10"	"60.42"	"045"	n/a	n/a	n/a	n/a	n/a	n/a	"fixation"	n/a	n/a	n/a	n/a	"NULL"	n/a	"NULL"	"NULL"	"NULL"	"<p style=\"color: black; font-size: 80px; padding-left: 2%; padding-right: 19%; padding-top: 32%; padding-bottom: 24%\">+</p>"	"1088"	n/a	n/a	n/a	n/a	n/a	n/a	n/a	n/a	n/a
n/a	"image-keyboard-response"	"176"	"303834"	"0.0-5.0-2.0-1.61"	"m1s1tc"	"600"	"1366"	"chrome"	"111.0.0"	"FALSE"	"Windows 10"	"60.42"	"045"	n/a	n/a	n/a	n/a	n/a	n/a	"Trial"	n/a	n/a	n/a	"397"	"arrowleft"	n/a	"NULL"	"NULL"	"NULL"	"stimuli/VerticalHorizontal_-20.27143_0.22500.png"	n/a	"VerticalHorizontal"	"arrowleft"	"1095"	"TRUE"	"VerticalHorizontal"	"-20.27143000"	"0.2250000000"	"1"	"80"
n/a	"html-keyboard-response"	"177"	"305058"	"0.0-5.0-2.0-0.62"	"m1s1tc"	"600"	"1366"	"chrome"	"111.0.0"	"FALSE"	"Windows 10"	"60.42"	"045"	n/a	n/a	n/a	n/a	n/a	n/a	"fixation"	n/a	n/a	n/a	n/a	"NULL"	n/a	"NULL"	"NULL"	"NULL"	"<p style=\"color: black; font-size: 80px; padding-left: 15%; padding-right: 27%; padding-top: 26%; padding-bottom: 9%\">+</p>"	"1217"	n/a	n/a	n/a	n/a	n/a	n/a	n/a	n/a	n/a
n/a	"image-keyboard-response"	"178"	"305726"	"0.0-5.0-2.0-1.62"	"m1s1tc"	"600"	"1366"	"chrome"	"111.0.0"	"FALSE"	"Windows 10"	"60.42"	"045"	n/a	n/a	n/a	n/a	n/a	n/a	"Trial"	n/a	n/a	n/a	"667"	"arrowright"	n/a	"NULL"	"NULL"	"NULL"	"stimuli/VerticalHorizontal_11.78571_-0.2250.png"	n/a	"VerticalHorizontal"	"arrowright"	"1224"	"TRUE"	"VerticalHorizontal"	"11.785710000"	"-0.225000000"	"1"	"81"
n/a	"html-keyboard-response"	"179"	"306866"	"0.0-5.0-2.0-0.63"	"m1s1tc"	"600"	"1366"	"chrome"	"111.0.0"	"FALSE"	"Windows 10"	"60.42"	"045"	n/a	n/a	n/a	n/a	n/a	n/a	"fixation"	n/a	n/a	n/a	n/a	"NULL"	n/a	"NULL"	"NULL"	"NULL"	"<p style=\"color: black; font-size: 80px; padding-left: 22%; padding-right: 8%; padding-top: 48%; padding-bottom: 31%\">+</p>"	"1135"	n/a	n/a	n/a	n/a	n/a	n/a	n/a	n/a	n/a
n/a	"image-keyboard-response"	"180"	"307318"	"0.0-5.0-2.0-1.63"	"m1s1tc"	"600"	"1366"	"chrome"	"111.0.0"	"FALSE"	"Windows 10"	"60.42"	"045"	n/a	n/a	n/a	n/a	n/a	n/a	"Trial"	n/a	n/a	n/a	"452"	"arrowright"	n/a	"NULL"	"NULL"	"NULL"	"stimuli/VerticalHorizontal_-20.27143_-0.16217.png"	n/a	"VerticalHorizontal"	"arrowright"	"1140"	"TRUE"	"VerticalHorizontal"	"-20.27143000"	"-0.162170000"	"1"	"82"
n/a	"html-button-response"	"181"	"319626"	"0.0-5.0-3.0"	"m1s1tc"	"600"	"1366"	"chrome"	"111.0.0"	"FALSE"	"Windows 10"	"60.42"	"045"	n/a	n/a	n/a	n/a	n/a	n/a	"block_results"	n/a	n/a	n/a	"12305"	"0"	n/a	"NULL"	"NULL"	"NULL"	"<p>Your score for this illusion is <p style=\"color: black; font-size: 48px; font-weight: bold;\">80 %</p><hr><p>Can you do better in the next illusion?</p>"	n/a	n/a	n/a	n/a	n/a	n/a	n/a	n/a	n/a	n/a
"TRUE"	"preload"	"182"	"319847"	"0.0-6.0-0.0"	"m1s1tc"	"600"	"1366"	"chrome"	"111.0.0"	"FALSE"	"Windows 10"	"60.42"	"045"	n/a	n/a	n/a	n/a	n/a	n/a	n/a	n/a	n/a	n/a	n/a	"NULL"	"FALSE"	"list()"	"list()"	"list()"	n/a	n/a	n/a	n/a	n/a	n/a	n/a	n/a	n/a	n/a	n/a
n/a	"html-keyboard-response"	"183"	"322778"	"0.0-6.0-1.0"	"m1s1tc"	"600"	"1366"	"chrome"	"111.0.0"	"FALSE"	"Windows 10"	"60.42"	"045"	n/a	n/a	n/a	n/a	n/a	n/a	n/a	n/a	n/a	n/a	"2930"	"enter"	n/a	"NULL"	"NULL"	"NULL"	"<p><b>Part 2/6</b></p><p>In this part, two red circles will appear side by side on the screen.</p><p>Your task is to select which <b>red circle is bigger</b> in size as fast as you can, without making errors.</p><p>Don't get distracted by the surrounding black circles around the red circles!</p><p>Press <b>the LEFT or the RIGHT arrow</b> to indicate which is the bigger <b>red circle.</b></p><div style='float: center'><img src='materials/instructions/Ebbinghaus_Demo.png' height='300'></img><p><img src='utils/answer/answer_leftright_keyboard.PNG' height='150'></img></p><p class='small'>In this example, the correct answer is the <b>LEFT arrow</b>.</p></div><p>Are you ready? <b>Press ENTER to start</b></p>"	n/a	n/a	n/a	n/a	n/a	n/a	n/a	n/a	n/a	n/a
n/a	"html-keyboard-response"	"184"	"324660"	"0.0-6.0-2.0-0.0"	"m1s1tc"	"600"	"1366"	"chrome"	"111.0.0"	"FALSE"	"Windows 10"	"60.42"	"045"	n/a	n/a	n/a	n/a	n/a	n/a	"fixation"	n/a	n/a	n/a	n/a	"NULL"	n/a	"NULL"	"NULL"	"NULL"	"<p style=\"color: black; font-size: 80px; padding-left: 23%; padding-right: 37%; padding-top: 33%; padding-bottom: 45%\">+</p>"	"1365"	n/a	n/a	n/a	n/a	n/a	n/a	n/a	n/a	n/a
n/a	"image-keyboard-response"	"185"	"325504"	"0.0-6.0-2.0-1.0"	"m1s1tc"	"600"	"1366"	"chrome"	"111.0.0"	"FALSE"	"Windows 10"	"60.42"	"045"	n/a	n/a	n/a	n/a	n/a	n/a	"Trial"	n/a	n/a	n/a	"843"	"arrowright"	n/a	"NULL"	"NULL"	"NULL"	"stimuli/Ebbinghaus_-0.1000_-0.2800.png"	n/a	"Ebbinghaus"	"arrowright"	"1882"	"TRUE"	"Ebbinghaus"	"-0.100000000"	"-0.280000000"	"2"	"1"
n/a	"html-keyboard-response"	"186"	"326915"	"0.0-6.0-2.0-0.1"	"m1s1tc"	"600"	"1366"	"chrome"	"111.0.0"	"FALSE"	"Windows 10"	"60.42"	"045"	n/a	n/a	n/a	n/a	n/a	n/a	"fixation"	n/a	n/a	n/a	n/a	"NULL"	n/a	"NULL"	"NULL"	"NULL"	"<p style=\"color: black; font-size: 80px; padding-left: 18%; padding-right: 5%; padding-top: 12%; padding-bottom: 26%\">+</p>"	"1406"	n/a	n/a	n/a	n/a	n/a	n/a	n/a	n/a	n/a
n/a	"image-keyboard-response"	"187"	"327646"	"0.0-6.0-2.0-1.1"	"m1s1tc"	"600"	"1366"	"chrome"	"111.0.0"	"FALSE"	"Windows 10"	"60.42"	"045"	n/a	n/a	n/a	n/a	n/a	n/a	"Trial"	n/a	n/a	n/a	"730"	"arrowright"	n/a	"NULL"	"NULL"	"NULL"	"stimuli/Ebbinghaus_-0.35714_-0.11071.png"	n/a	"Ebbinghaus"	"arrowright"	"1411"	"TRUE"	"Ebbinghaus"	"-0.357140000"	"-0.110710000"	"2"	"2"
n/a	"html-keyboard-response"	"188"	"328769"	"0.0-6.0-2.0-0.2"	"m1s1tc"	"600"	"1366"	"chrome"	"111.0.0"	"FALSE"	"Windows 10"	"60.42"	"045"	n/a	n/a	n/a	n/a	n/a	n/a	"fixation"	n/a	n/a	n/a	n/a	"NULL"	n/a	"NULL"	"NULL"	"NULL"	"<p style=\"color: black; font-size: 80px; padding-left: 8%; padding-right: 48%; padding-top: 24%; padding-bottom: 30%\">+</p>"	"1113"	n/a	n/a	n/a	n/a	n/a	n/a	n/a	n/a	n/a
n/a	"image-keyboard-response"	"189"	"329573"	"0.0-6.0-2.0-1.2"	"m1s1tc"	"600"	"1366"	"chrome"	"111.0.0"	"FALSE"	"Windows 10"	"60.42"	"045"	n/a	n/a	n/a	n/a	n/a	n/a	"Trial"	n/a	n/a	n/a	"803"	"arrowright"	n/a	"NULL"	"NULL"	"NULL"	"stimuli/Ebbinghaus_-0.87143_-0.11071.png"	n/a	"Ebbinghaus"	"arrowright"	"1123"	"TRUE"	"Ebbinghaus"	"-0.871430000"	"-0.110710000"	"2"	"3"
n/a	"html-keyboard-response"	"190"	"330813"	"0.0-6.0-2.0-0.3"	"m1s1tc"	"600"	"1366"	"chrome"	"111.0.0"	"FALSE"	"Windows 10"	"60.42"	"045"	n/a	n/a	n/a	n/a	n/a	n/a	"fixation"	n/a	n/a	n/a	n/a	"NULL"	n/a	"NULL"	"NULL"	"NULL"	"<p style=\"color: black; font-size: 80px; padding-left: 4%; padding-right: 39%; padding-top: 14%; padding-bottom: 28%\">+</p>"	"1233"	n/a	n/a	n/a	n/a	n/a	n/a	n/a	n/a	n/a
n/a	"image-keyboard-response"	"191"	"331431"	"0.0-6.0-2.0-1.3"	"m1s1tc"	"600"	"1366"	"chrome"	"111.0.0"	"FALSE"	"Windows 10"	"60.42"	"045"	n/a	n/a	n/a	n/a	n/a	n/a	"Trial"	n/a	n/a	n/a	"617"	"arrowright"	n/a	"NULL"	"NULL"	"NULL"	"stimuli/Ebbinghaus_-0.61429_-0.2800.png"	n/a	"Ebbinghaus"	"arrowright"	"1240"	"TRUE"	"Ebbinghaus"	"-0.614290000"	"-0.280000000"	"2"	"4"
n/a	"html-keyboard-response"	"192"	"332700"	"0.0-6.0-2.0-0.4"	"m1s1tc"	"600"	"1366"	"chrome"	"111.0.0"	"FALSE"	"Windows 10"	"60.42"	"045"	n/a	n/a	n/a	n/a	n/a	n/a	"fixation"	n/a	n/a	n/a	n/a	"NULL"	n/a	"NULL"	"NULL"	"NULL"	"<p style=\"color: black; font-size: 80px; padding-left: 31%; padding-right: 6%; padding-top: 50%; padding-bottom: 48%\">+</p>"	"1254"	n/a	n/a	n/a	n/a	n/a	n/a	n/a	n/a	n/a
n/a	"image-keyboard-response"	"193"	"333308"	"0.0-6.0-2.0-1.4"	"m1s1tc"	"600"	"1366"	"chrome"	"111.0.0"	"FALSE"	"Windows 10"	"60.42"	"045"	n/a	n/a	n/a	n/a	n/a	n/a	"Trial"	n/a	n/a	n/a	"607"	"arrowleft"	n/a	"NULL"	"NULL"	"NULL"	"stimuli/Ebbinghaus_-0.87143_0.11071.png"	n/a	"Ebbinghaus"	"arrowleft"	"1269"	"TRUE"	"Ebbinghaus"	"-0.871430000"	"0.1107100000"	"2"	"5"
n/a	"html-keyboard-response"	"194"	"334736"	"0.0-6.0-2.0-0.5"	"m1s1tc"	"600"	"1366"	"chrome"	"111.0.0"	"FALSE"	"Windows 10"	"60.42"	"045"	n/a	n/a	n/a	n/a	n/a	n/a	"fixation"	n/a	n/a	n/a	n/a	"NULL"	n/a	"NULL"	"NULL"	"NULL"	"<p style=\"color: black; font-size: 80px; padding-left: 7%; padding-right: 21%; padding-top: 33%; padding-bottom: 24%\">+</p>"	"1423"	n/a	n/a	n/a	n/a	n/a	n/a	n/a	n/a	n/a
n/a	"image-keyboard-response"	"195"	"335324"	"0.0-6.0-2.0-1.5"	"m1s1tc"	"600"	"1366"	"chrome"	"111.0.0"	"FALSE"	"Windows 10"	"60.42"	"045"	n/a	n/a	n/a	n/a	n/a	n/a	"Trial"	n/a	n/a	n/a	"587"	"arrowleft"	n/a	"NULL"	"NULL"	"NULL"	"stimuli/Ebbinghaus_0.87143_-0.2800.png"	n/a	"Ebbinghaus"	"arrowright"	"1428"	"FALSE"	"Ebbinghaus"	"0.8714300000"	"-0.280000000"	"2"	"6"
n/a	"html-keyboard-response"	"196"	"336771"	"0.0-6.0-2.0-0.6"	"m1s1tc"	"600"	"1366"	"chrome"	"111.0.0"	"FALSE"	"Windows 10"	"60.42"	"045"	n/a	n/a	n/a	n/a	n/a	n/a	"fixation"	n/a	n/a	n/a	n/a	"NULL"	n/a	"NULL"	"NULL"	"NULL"	"<p style=\"color: black; font-size: 80px; padding-left: 37%; padding-right: 5%; padding-top: 26%; padding-bottom: 24%\">+</p>"	"1436"	n/a	n/a	n/a	n/a	n/a	n/a	n/a	n/a	n/a
n/a	"image-keyboard-response"	"197"	"337977"	"0.0-6.0-2.0-1.6"	"m1s1tc"	"600"	"1366"	"chrome"	"111.0.0"	"FALSE"	"Windows 10"	"60.42"	"045"	n/a	n/a	n/a	n/a	n/a	n/a	"Trial"	n/a	n/a	n/a	"1205"	"arrowright"	n/a	"NULL"	"NULL"	"NULL"	"stimuli/Ebbinghaus_0.61429_-0.2800.png"	n/a	"Ebbinghaus"	"arrowright"	"1447"	"TRUE"	"Ebbinghaus"	"0.6142900000"	"-0.280000000"	"2"	"7"
n/a	"html-keyboard-response"	"198"	"339236"	"0.0-6.0-2.0-0.7"	"m1s1tc"	"600"	"1366"	"chrome"	"111.0.0"	"FALSE"	"Windows 10"	"60.42"	"045"	n/a	n/a	n/a	n/a	n/a	n/a	"fixation"	n/a	n/a	n/a	n/a	"NULL"	n/a	"NULL"	"NULL"	"NULL"	"<p style=\"color: black; font-size: 80px; padding-left: 46%; padding-right: 30%; padding-top: 1%; padding-bottom: 44%\">+</p>"	"1255"	n/a	n/a	n/a	n/a	n/a	n/a	n/a	n/a	n/a
n/a	"image-keyboard-response"	"199"	"340116"	"0.0-6.0-2.0-1.7"	"m1s1tc"	"600"	"1366"	"chrome"	"111.0.0"	"FALSE"	"Windows 10"	"60.42"	"045"	n/a	n/a	n/a	n/a	n/a	n/a	"Trial"	n/a	n/a	n/a	"879"	"arrowleft"	n/a	"NULL"	"NULL"	"NULL"	"stimuli/Ebbinghaus_0.87143_-0.2150.png"	n/a	"Ebbinghaus"	"arrowright"	"1259"	"FALSE"	"Ebbinghaus"	"0.8714300000"	"-0.215000000"	"2"	"8"
n/a	"html-keyboard-response"	"200"	"341423"	"0.0-6.0-2.0-0.8"	"m1s1tc"	"600"	"1366"	"chrome"	"111.0.0"	"FALSE"	"Windows 10"	"60.42"	"045"	n/a	n/a	n/a	n/a	n/a	n/a	"fixation"	n/a	n/a	n/a	n/a	"NULL"	n/a	"NULL"	"NULL"	"NULL"	"<p style=\"color: black; font-size: 80px; padding-left: 49%; padding-right: 32%; padding-top: 35%; padding-bottom: 20%\">+</p>"	"1291"	n/a	n/a	n/a	n/a	n/a	n/a	n/a	n/a	n/a
n/a	"image-keyboard-response"	"201"	"342047"	"0.0-6.0-2.0-1.8"	"m1s1tc"	"600"	"1366"	"chrome"	"111.0.0"	"FALSE"	"Windows 10"	"60.42"	"045"	n/a	n/a	n/a	n/a	n/a	n/a	"Trial"	n/a	n/a	n/a	"623"	"arrowleft"	n/a	"NULL"	"NULL"	"NULL"	"stimuli/Ebbinghaus_-0.1000_0.28000.png"	n/a	"Ebbinghaus"	"arrowleft"	"1307"	"TRUE"	"Ebbinghaus"	"-0.100000000"	"0.2800000000"	"2"	"9"
n/a	"html-keyboard-response"	"202"	"343344"	"0.0-6.0-2.0-0.9"	"m1s1tc"	"600"	"1366"	"chrome"	"111.0.0"	"FALSE"	"Windows 10"	"60.42"	"045"	n/a	n/a	n/a	n/a	n/a	n/a	"fixation"	n/a	n/a	n/a	n/a	"NULL"	n/a	"NULL"	"NULL"	"NULL"	"<p style=\"color: black; font-size: 80px; padding-left: 32%; padding-right: 7%; padding-top: 20%; padding-bottom: 39%\">+</p>"	"1287"	n/a	n/a	n/a	n/a	n/a	n/a	n/a	n/a	n/a
n/a	"image-keyboard-response"	"203"	"344141"	"0.0-6.0-2.0-1.9"	"m1s1tc"	"600"	"1366"	"chrome"	"111.0.0"	"FALSE"	"Windows 10"	"60.42"	"045"	n/a	n/a	n/a	n/a	n/a	n/a	"Trial"	n/a	n/a	n/a	"796"	"arrowright"	n/a	"NULL"	"NULL"	"NULL"	"stimuli/Ebbinghaus_-0.35714_-0.15857.png"	n/a	"Ebbinghaus"	"arrowright"	"1297"	"TRUE"	"Ebbinghaus"	"-0.357140000"	"-0.158570000"	"2"	"10"
n/a	"html-keyboard-response"	"204"	"345547"	"0.0-6.0-2.0-0.10"	"m1s1tc"	"600"	"1366"	"chrome"	"111.0.0"	"FALSE"	"Windows 10"	"60.42"	"045"	n/a	n/a	n/a	n/a	n/a	n/a	"fixation"	n/a	n/a	n/a	n/a	"NULL"	n/a	"NULL"	"NULL"	"NULL"	"<p style=\"color: black; font-size: 80px; padding-left: 25%; padding-right: 5%; padding-top: 14%; padding-bottom: 22%\">+</p>"	"1394"	n/a	n/a	n/a	n/a	n/a	n/a	n/a	n/a	n/a
n/a	"image-keyboard-response"	"205"	"346096"	"0.0-6.0-2.0-1.10"	"m1s1tc"	"600"	"1366"	"chrome"	"111.0.0"	"FALSE"	"Windows 10"	"60.42"	"045"	n/a	n/a	n/a	n/a	n/a	n/a	"Trial"	n/a	n/a	n/a	"547"	"arrowleft"	n/a	"NULL"	"NULL"	"NULL"	"stimuli/Ebbinghaus_0.61429_0.15857.png"	n/a	"Ebbinghaus"	"arrowleft"	"1406"	"TRUE"	"Ebbinghaus"	"0.6142900000"	"0.1585700000"	"2"	"11"
n/a	"html-keyboard-response"	"206"	"347258"	"0.0-6.0-2.0-0.11"	"m1s1tc"	"600"	"1366"	"chrome"	"111.0.0"	"FALSE"	"Windows 10"	"60.42"	"045"	n/a	n/a	n/a	n/a	n/a	n/a	"fixation"	n/a	n/a	n/a	n/a	"NULL"	n/a	"NULL"	"NULL"	"NULL"	"<p style=\"color: black; font-size: 80px; padding-left: 28%; padding-right: 17%; padding-top: 24%; padding-bottom: 38%\">+</p>"	"1157"	n/a	n/a	n/a	n/a	n/a	n/a	n/a	n/a	n/a
n/a	"image-keyboard-response"	"207"	"347793"	"0.0-6.0-2.0-1.11"	"m1s1tc"	"600"	"1366"	"chrome"	"111.0.0"	"FALSE"	"Windows 10"	"60.42"	"045"	n/a	n/a	n/a	n/a	n/a	n/a	"Trial"	n/a	n/a	n/a	"535"	"arrowleft"	n/a	"NULL"	"NULL"	"NULL"	"stimuli/Ebbinghaus_0.10000_0.15857.png"	n/a	"Ebbinghaus"	"arrowleft"	"1162"	"TRUE"	"Ebbinghaus"	"0.1000000000"	"0.1585700000"	"2"	"12"
n/a	"html-keyboard-response"	"208"	"348813"	"0.0-6.0-2.0-0.12"	"m1s1tc"	"600"	"1366"	"chrome"	"111.0.0"	"FALSE"	"Windows 10"	"60.42"	"045"	n/a	n/a	n/a	n/a	n/a	n/a	"fixation"	n/a	n/a	n/a	n/a	"NULL"	n/a	"NULL"	"NULL"	"NULL"	"<p style=\"color: black; font-size: 80px; padding-left: 13%; padding-right: 17%; padding-top: 27%; padding-bottom: 25%\">+</p>"	"1011"	n/a	n/a	n/a	n/a	n/a	n/a	n/a	n/a	n/a
n/a	"image-keyboard-response"	"209"	"351136"	"0.0-6.0-2.0-1.12"	"m1s1tc"	"600"	"1366"	"chrome"	"111.0.0"	"FALSE"	"Windows 10"	"60.42"	"045"	n/a	n/a	n/a	n/a	n/a	n/a	"Trial"	n/a	n/a	n/a	"2322"	"arrowright"	n/a	"NULL"	"NULL"	"NULL"	"stimuli/Ebbinghaus_0.35714_-0.11071.png"	n/a	"Ebbinghaus"	"arrowright"	"1020"	"TRUE"	"Ebbinghaus"	"0.3571400000"	"-0.110710000"	"2"	"13"
n/a	"html-keyboard-response"	"210"	"352158"	"0.0-6.0-2.0-0.13"	"m1s1tc"	"600"	"1366"	"chrome"	"111.0.0"	"FALSE"	"Windows 10"	"60.42"	"045"	n/a	n/a	n/a	n/a	n/a	n/a	"fixation"	n/a	n/a	n/a	n/a	"NULL"	n/a	"NULL"	"NULL"	"NULL"	"<p style=\"color: black; font-size: 80px; padding-left: 1%; padding-right: 34%; padding-top: 38%; padding-bottom: 17%\">+</p>"	"1020"	n/a	n/a	n/a	n/a	n/a	n/a	n/a	n/a	n/a
n/a	"image-keyboard-response"	"211"	"352825"	"0.0-6.0-2.0-1.13"	"m1s1tc"	"600"	"1366"	"chrome"	"111.0.0"	"FALSE"	"Windows 10"	"60.42"	"045"	n/a	n/a	n/a	n/a	n/a	n/a	"Trial"	n/a	n/a	n/a	"666"	"arrowleft"	n/a	"NULL"	"NULL"	"NULL"	"stimuli/Ebbinghaus_-0.61429_0.11071.png"	n/a	"Ebbinghaus"	"arrowleft"	"1022"	"TRUE"	"Ebbinghaus"	"-0.614290000"	"0.1107100000"	"2"	"14"
n/a	"html-keyboard-response"	"212"	"354172"	"0.0-6.0-2.0-0.14"	"m1s1tc"	"600"	"1366"	"chrome"	"111.0.0"	"FALSE"	"Windows 10"	"60.42"	"045"	n/a	n/a	n/a	n/a	n/a	n/a	"fixation"	n/a	n/a	n/a	n/a	"NULL"	n/a	"NULL"	"NULL"	"NULL"	"<p style=\"color: black; font-size: 80px; padding-left: 32%; padding-right: 10%; padding-top: 6%; padding-bottom: 3%\">+</p>"	"1334"	n/a	n/a	n/a	n/a	n/a	n/a	n/a	n/a	n/a
n/a	"image-keyboard-response"	"213"	"354865"	"0.0-6.0-2.0-1.14"	"m1s1tc"	"600"	"1366"	"chrome"	"111.0.0"	"FALSE"	"Windows 10"	"60.42"	"045"	n/a	n/a	n/a	n/a	n/a	n/a	"Trial"	n/a	n/a	n/a	"692"	"arrowright"	n/a	"NULL"	"NULL"	"NULL"	"stimuli/Ebbinghaus_-0.35714_-0.2150.png"	n/a	"Ebbinghaus"	"arrowright"	"1347"	"TRUE"	"Ebbinghaus"	"-0.357140000"	"-0.215000000"	"2"	"15"
n/a	"html-keyboard-response"	"214"	"355975"	"0.0-6.0-2.0-0.15"	"m1s1tc"	"600"	"1366"	"chrome"	"111.0.0"	"FALSE"	"Windows 10"	"60.42"	"045"	n/a	n/a	n/a	n/a	n/a	n/a	"fixation"	n/a	n/a	n/a	n/a	"NULL"	n/a	"NULL"	"NULL"	"NULL"	"<p style=\"color: black; font-size: 80px; padding-left: 6%; padding-right: 46%; padding-top: 40%; padding-bottom: 8%\">+</p>"	"1098"	n/a	n/a	n/a	n/a	n/a	n/a	n/a	n/a	n/a
n/a	"image-keyboard-response"	"215"	"356651"	"0.0-6.0-2.0-1.15"	"m1s1tc"	"600"	"1366"	"chrome"	"111.0.0"	"FALSE"	"Windows 10"	"60.42"	"045"	n/a	n/a	n/a	n/a	n/a	n/a	"Trial"	n/a	n/a	n/a	"675"	"arrowleft"	n/a	"NULL"	"NULL"	"NULL"	"stimuli/Ebbinghaus_0.35714_0.28000.png"	n/a	"Ebbinghaus"	"arrowleft"	"1110"	"TRUE"	"Ebbinghaus"	"0.3571400000"	"0.2800000000"	"2"	"16"
n/a	"html-keyboard-response"	"216"	"357657"	"0.0-6.0-2.0-0.16"	"m1s1tc"	"600"	"1366"	"chrome"	"111.0.0"	"FALSE"	"Windows 10"	"60.42"	"045"	n/a	n/a	n/a	n/a	n/a	n/a	"fixation"	n/a	n/a	n/a	n/a	"NULL"	n/a	"NULL"	"NULL"	"NULL"	"<p style=\"color: black; font-size: 80px; padding-left: 14%; padding-right: 3%; padding-top: 9%; padding-bottom: 26%\">+</p>"	"1001"	n/a	n/a	n/a	n/a	n/a	n/a	n/a	n/a	n/a
n/a	"image-keyboard-response"	"217"	"358188"	"0.0-6.0-2.0-1.16"	"m1s1tc"	"600"	"1366"	"chrome"	"111.0.0"	"FALSE"	"Windows 10"	"60.42"	"045"	n/a	n/a	n/a	n/a	n/a	n/a	"Trial"	n/a	n/a	n/a	"530"	"arrowright"	n/a	"NULL"	"NULL"	"NULL"	"stimuli/Ebbinghaus_-0.87143_-0.2150.png"	n/a	"Ebbinghaus"	"arrowright"	"1006"	"TRUE"	"Ebbinghaus"	"-0.871430000"	"-0.215000000"	"2"	"17"
n/a	"html-keyboard-response"	"218"	"359452"	"0.0-6.0-2.0-0.17"	"m1s1tc"	"600"	"1366"	"chrome"	"111.0.0"	"FALSE"	"Windows 10"	"60.42"	"045"	n/a	n/a	n/a	n/a	n/a	n/a	"fixation"	n/a	n/a	n/a	n/a	"NULL"	n/a	"NULL"	"NULL"	"NULL"	"<p style=\"color: black; font-size: 80px; padding-left: 10%; padding-right: 13%; padding-top: 32%; padding-bottom: 48%\">+</p>"	"1255"	n/a	n/a	n/a	n/a	n/a	n/a	n/a	n/a	n/a
n/a	"image-keyboard-response"	"219"	"360095"	"0.0-6.0-2.0-1.17"	"m1s1tc"	"600"	"1366"	"chrome"	"111.0.0"	"FALSE"	"Windows 10"	"60.42"	"045"	n/a	n/a	n/a	n/a	n/a	n/a	"Trial"	n/a	n/a	n/a	"643"	"arrowright"	n/a	"NULL"	"NULL"	"NULL"	"stimuli/Ebbinghaus_0.35714_-0.2800.png"	n/a	"Ebbinghaus"	"arrowright"	"1264"	"TRUE"	"Ebbinghaus"	"0.3571400000"	"-0.280000000"	"2"	"18"
n/a	"html-keyboard-response"	"220"	"361505"	"0.0-6.0-2.0-0.18"	"m1s1tc"	"600"	"1366"	"chrome"	"111.0.0"	"FALSE"	"Windows 10"	"60.42"	"045"	n/a	n/a	n/a	n/a	n/a	n/a	"fixation"	n/a	n/a	n/a	n/a	"NULL"	n/a	"NULL"	"NULL"	"NULL"	"<p style=\"color: black; font-size: 80px; padding-left: 36%; padding-right: 36%; padding-top: 41%; padding-bottom: 40%\">+</p>"	"1402"	n/a	n/a	n/a	n/a	n/a	n/a	n/a	n/a	n/a
n/a	"image-keyboard-response"	"221"	"361987"	"0.0-6.0-2.0-1.18"	"m1s1tc"	"600"	"1366"	"chrome"	"111.0.0"	"FALSE"	"Windows 10"	"60.42"	"045"	n/a	n/a	n/a	n/a	n/a	n/a	"Trial"	n/a	n/a	n/a	"482"	"arrowleft"	n/a	"NULL"	"NULL"	"NULL"	"stimuli/Ebbinghaus_-0.35714_0.28000.png"	n/a	"Ebbinghaus"	"arrowleft"	"1410"	"TRUE"	"Ebbinghaus"	"-0.357140000"	"0.2800000000"	"2"	"19"
n/a	"html-keyboard-response"	"222"	"363031"	"0.0-6.0-2.0-0.19"	"m1s1tc"	"600"	"1366"	"chrome"	"111.0.0"	"FALSE"	"Windows 10"	"60.42"	"045"	n/a	n/a	n/a	n/a	n/a	n/a	"fixation"	n/a	n/a	n/a	n/a	"NULL"	n/a	"NULL"	"NULL"	"NULL"	"<p style=\"color: black; font-size: 80px; padding-left: 17%; padding-right: 45%; padding-top: 16%; padding-bottom: 37%\">+</p>"	"1038"	n/a	n/a	n/a	n/a	n/a	n/a	n/a	n/a	n/a
n/a	"image-keyboard-response"	"223"	"363558"	"0.0-6.0-2.0-1.19"	"m1s1tc"	"600"	"1366"	"chrome"	"111.0.0"	"FALSE"	"Windows 10"	"60.42"	"045"	n/a	n/a	n/a	n/a	n/a	n/a	"Trial"	n/a	n/a	n/a	"526"	"arrowright"	n/a	"NULL"	"NULL"	"NULL"	"stimuli/Ebbinghaus_0.35714_-0.15857.png"	n/a	"Ebbinghaus"	"arrowright"	"1044"	"TRUE"	"Ebbinghaus"	"0.3571400000"	"-0.158570000"	"2"	"20"
n/a	"html-keyboard-response"	"224"	"365027"	"0.0-6.0-2.0-0.20"	"m1s1tc"	"600"	"1366"	"chrome"	"111.0.0"	"FALSE"	"Windows 10"	"60.42"	"045"	n/a	n/a	n/a	n/a	n/a	n/a	"fixation"	n/a	n/a	n/a	n/a	"NULL"	n/a	"NULL"	"NULL"	"NULL"	"<p style=\"color: black; font-size: 80px; padding-left: 17%; padding-right: 34%; padding-top: 24%; padding-bottom: 50%\">+</p>"	"1458"	n/a	n/a	n/a	n/a	n/a	n/a	n/a	n/a	n/a
n/a	"image-keyboard-response"	"225"	"365625"	"0.0-6.0-2.0-1.20"	"m1s1tc"	"600"	"1366"	"chrome"	"111.0.0"	"FALSE"	"Windows 10"	"60.42"	"045"	n/a	n/a	n/a	n/a	n/a	n/a	"Trial"	n/a	n/a	n/a	"597"	"arrowright"	n/a	"NULL"	"NULL"	"NULL"	"stimuli/Ebbinghaus_-0.35714_-0.2800.png"	n/a	"Ebbinghaus"	"arrowright"	"1469"	"TRUE"	"Ebbinghaus"	"-0.357140000"	"-0.280000000"	"2"	"21"
n/a	"html-keyboard-response"	"226"	"367016"	"0.0-6.0-2.0-0.21"	"m1s1tc"	"600"	"1366"	"chrome"	"111.0.0"	"FALSE"	"Windows 10"	"60.42"	"045"	n/a	n/a	n/a	n/a	n/a	n/a	"fixation"	n/a	n/a	n/a	n/a	"NULL"	n/a	"NULL"	"NULL"	"NULL"	"<p style=\"color: black; font-size: 80px; padding-left: 21%; padding-right: 45%; padding-top: 16%; padding-bottom: 39%\">+</p>"	"1387"	n/a	n/a	n/a	n/a	n/a	n/a	n/a	n/a	n/a
n/a	"image-keyboard-response"	"227"	"367606"	"0.0-6.0-2.0-1.21"	"m1s1tc"	"600"	"1366"	"chrome"	"111.0.0"	"FALSE"	"Windows 10"	"60.42"	"045"	n/a	n/a	n/a	n/a	n/a	n/a	"Trial"	n/a	n/a	n/a	"589"	"arrowleft"	n/a	"NULL"	"NULL"	"NULL"	"stimuli/Ebbinghaus_-0.87143_0.28000.png"	n/a	"Ebbinghaus"	"arrowleft"	"1391"	"TRUE"	"Ebbinghaus"	"-0.871430000"	"0.2800000000"	"2"	"22"
n/a	"html-keyboard-response"	"228"	"369071"	"0.0-6.0-2.0-0.22"	"m1s1tc"	"600"	"1366"	"chrome"	"111.0.0"	"FALSE"	"Windows 10"	"60.42"	"045"	n/a	n/a	n/a	n/a	n/a	n/a	"fixation"	n/a	n/a	n/a	n/a	"NULL"	n/a	"NULL"	"NULL"	"NULL"	"<p style=\"color: black; font-size: 80px; padding-left: 9%; padding-right: 8%; padding-top: 14%; padding-bottom: 27%\">+</p>"	"1456"	n/a	n/a	n/a	n/a	n/a	n/a	n/a	n/a	n/a
n/a	"image-keyboard-response"	"229"	"369861"	"0.0-6.0-2.0-1.22"	"m1s1tc"	"600"	"1366"	"chrome"	"111.0.0"	"FALSE"	"Windows 10"	"60.42"	"045"	n/a	n/a	n/a	n/a	n/a	n/a	"Trial"	n/a	n/a	n/a	"790"	"arrowleft"	n/a	"NULL"	"NULL"	"NULL"	"stimuli/Ebbinghaus_-0.35714_0.11071.png"	n/a	"Ebbinghaus"	"arrowleft"	"1465"	"TRUE"	"Ebbinghaus"	"-0.357140000"	"0.1107100000"	"2"	"23"
n/a	"html-keyboard-response"	"230"	"371342"	"0.0-6.0-2.0-0.23"	"m1s1tc"	"600"	"1366"	"chrome"	"111.0.0"	"FALSE"	"Windows 10"	"60.42"	"045"	n/a	n/a	n/a	n/a	n/a	n/a	"fixation"	n/a	n/a	n/a	n/a	"NULL"	n/a	"NULL"	"NULL"	"NULL"	"<p style=\"color: black; font-size: 80px; padding-left: 42%; padding-right: 49%; padding-top: 19%; padding-bottom: 15%\">+</p>"	"1477"	n/a	n/a	n/a	n/a	n/a	n/a	n/a	n/a	n/a
n/a	"image-keyboard-response"	"231"	"372273"	"0.0-6.0-2.0-1.23"	"m1s1tc"	"600"	"1366"	"chrome"	"111.0.0"	"FALSE"	"Windows 10"	"60.42"	"045"	n/a	n/a	n/a	n/a	n/a	n/a	"Trial"	n/a	n/a	n/a	"924"	"arrowright"	n/a	"NULL"	"NULL"	"NULL"	"stimuli/Ebbinghaus_0.61429_0.21500.png"	n/a	"Ebbinghaus"	"arrowleft"	"1481"	"FALSE"	"Ebbinghaus"	"0.6142900000"	"0.2150000000"	"2"	"24"
n/a	"html-keyboard-response"	"232"	"373340"	"0.0-6.0-2.0-0.24"	"m1s1tc"	"600"	"1366"	"chrome"	"111.0.0"	"FALSE"	"Windows 10"	"60.42"	"045"	n/a	n/a	n/a	n/a	n/a	n/a	"fixation"	n/a	n/a	n/a	n/a	"NULL"	n/a	"NULL"	"NULL"	"NULL"	"<p style=\"color: black; font-size: 80px; padding-left: 33%; padding-right: 27%; padding-top: 46%; padding-bottom: 3%\">+</p>"	"1052"	n/a	n/a	n/a	n/a	n/a	n/a	n/a	n/a	n/a
n/a	"image-keyboard-response"	"233"	"374036"	"0.0-6.0-2.0-1.24"	"m1s1tc"	"600"	"1366"	"chrome"	"111.0.0"	"FALSE"	"Windows 10"	"60.42"	"045"	n/a	n/a	n/a	n/a	n/a	n/a	"Trial"	n/a	n/a	n/a	"696"	"arrowright"	n/a	"NULL"	"NULL"	"NULL"	"stimuli/Ebbinghaus_0.87143_0.11071.png"	n/a	"Ebbinghaus"	"arrowleft"	"1067"	"FALSE"	"Ebbinghaus"	"0.8714300000"	"0.1107100000"	"2"	"25"
n/a	"html-keyboard-response"	"234"	"375189"	"0.0-6.0-2.0-0.25"	"m1s1tc"	"600"	"1366"	"chrome"	"111.0.0"	"FALSE"	"Windows 10"	"60.42"	"045"	n/a	n/a	n/a	n/a	n/a	n/a	"fixation"	n/a	n/a	n/a	n/a	"NULL"	n/a	"NULL"	"NULL"	"NULL"	"<p style=\"color: black; font-size: 80px; padding-left: 47%; padding-right: 20%; padding-top: 13%; padding-bottom: 19%\">+</p>"	"1149"	n/a	n/a	n/a	n/a	n/a	n/a	n/a	n/a	n/a
n/a	"image-keyboard-response"	"235"	"375819"	"0.0-6.0-2.0-1.25"	"m1s1tc"	"600"	"1366"	"chrome"	"111.0.0"	"FALSE"	"Windows 10"	"60.42"	"045"	n/a	n/a	n/a	n/a	n/a	n/a	"Trial"	n/a	n/a	n/a	"630"	"arrowright"	n/a	"NULL"	"NULL"	"NULL"	"stimuli/Ebbinghaus_0.61429_-0.15857.png"	n/a	"Ebbinghaus"	"arrowright"	"1153"	"TRUE"	"Ebbinghaus"	"0.6142900000"	"-0.158570000"	"2"	"26"
n/a	"html-keyboard-response"	"236"	"377248"	"0.0-6.0-2.0-0.26"	"m1s1tc"	"600"	"1366"	"chrome"	"111.0.0"	"FALSE"	"Windows 10"	"60.42"	"045"	n/a	n/a	n/a	n/a	n/a	n/a	"fixation"	n/a	n/a	n/a	n/a	"NULL"	n/a	"NULL"	"NULL"	"NULL"	"<p style=\"color: black; font-size: 80px; padding-left: 18%; padding-right: 14%; padding-top: 33%; padding-bottom: 1%\">+</p>"	"1421"	n/a	n/a	n/a	n/a	n/a	n/a	n/a	n/a	n/a
n/a	"image-keyboard-response"	"237"	"378022"	"0.0-6.0-2.0-1.26"	"m1s1tc"	"600"	"1366"	"chrome"	"111.0.0"	"FALSE"	"Windows 10"	"60.42"	"045"	n/a	n/a	n/a	n/a	n/a	n/a	"Trial"	n/a	n/a	n/a	"774"	"arrowleft"	n/a	"NULL"	"NULL"	"NULL"	"stimuli/Ebbinghaus_0.61429_-0.11071.png"	n/a	"Ebbinghaus"	"arrowright"	"1429"	"FALSE"	"Ebbinghaus"	"0.6142900000"	"-0.110710000"	"2"	"27"
n/a	"html-keyboard-response"	"238"	"379336"	"0.0-6.0-2.0-0.27"	"m1s1tc"	"600"	"1366"	"chrome"	"111.0.0"	"FALSE"	"Windows 10"	"60.42"	"045"	n/a	n/a	n/a	n/a	n/a	n/a	"fixation"	n/a	n/a	n/a	n/a	"NULL"	n/a	"NULL"	"NULL"	"NULL"	"<p style=\"color: black; font-size: 80px; padding-left: 29%; padding-right: 43%; padding-top: 17%; padding-bottom: 47%\">+</p>"	"1300"	n/a	n/a	n/a	n/a	n/a	n/a	n/a	n/a	n/a
n/a	"image-keyboard-response"	"239"	"380191"	"0.0-6.0-2.0-1.27"	"m1s1tc"	"600"	"1366"	"chrome"	"111.0.0"	"FALSE"	"Windows 10"	"60.42"	"045"	n/a	n/a	n/a	n/a	n/a	n/a	"Trial"	n/a	n/a	n/a	"854"	"arrowright"	n/a	"NULL"	"NULL"	"NULL"	"stimuli/Ebbinghaus_-0.1000_-0.2150.png"	n/a	"Ebbinghaus"	"arrowright"	"1314"	"TRUE"	"Ebbinghaus"	"-0.100000000"	"-0.215000000"	"2"	"28"
n/a	"html-keyboard-response"	"240"	"381305"	"0.0-6.0-2.0-0.28"	"m1s1tc"	"600"	"1366"	"chrome"	"111.0.0"	"FALSE"	"Windows 10"	"60.42"	"045"	n/a	n/a	n/a	n/a	n/a	n/a	"fixation"	n/a	n/a	n/a	n/a	"NULL"	n/a	"NULL"	"NULL"	"NULL"	"<p style=\"color: black; font-size: 80px; padding-left: 28%; padding-right: 0%; padding-top: 6%; padding-bottom: 36%\">+</p>"	"1102"	n/a	n/a	n/a	n/a	n/a	n/a	n/a	n/a	n/a
n/a	"image-keyboard-response"	"241"	"383480"	"0.0-6.0-2.0-1.28"	"m1s1tc"	"600"	"1366"	"chrome"	"111.0.0"	"FALSE"	"Windows 10"	"60.42"	"045"	n/a	n/a	n/a	n/a	n/a	n/a	"Trial"	n/a	n/a	n/a	"2175"	"arrowright"	n/a	"NULL"	"NULL"	"NULL"	"stimuli/Ebbinghaus_0.10000_-0.11071.png"	n/a	"Ebbinghaus"	"arrowright"	"1114"	"TRUE"	"Ebbinghaus"	"0.1000000000"	"-0.110710000"	"2"	"29"
n/a	"html-keyboard-response"	"242"	"384954"	"0.0-6.0-2.0-0.29"	"m1s1tc"	"600"	"1366"	"chrome"	"111.0.0"	"FALSE"	"Windows 10"	"60.42"	"045"	n/a	n/a	n/a	n/a	n/a	n/a	"fixation"	n/a	n/a	n/a	n/a	"NULL"	n/a	"NULL"	"NULL"	"NULL"	"<p style=\"color: black; font-size: 80px; padding-left: 33%; padding-right: 48%; padding-top: 17%; padding-bottom: 21%\">+</p>"	"1473"	n/a	n/a	n/a	n/a	n/a	n/a	n/a	n/a	n/a
n/a	"image-keyboard-response"	"243"	"385604"	"0.0-6.0-2.0-1.29"	"m1s1tc"	"600"	"1366"	"chrome"	"111.0.0"	"FALSE"	"Windows 10"	"60.42"	"045"	n/a	n/a	n/a	n/a	n/a	n/a	"Trial"	n/a	n/a	n/a	"649"	"arrowright"	n/a	"NULL"	"NULL"	"NULL"	"stimuli/Ebbinghaus_0.10000_-0.15857.png"	n/a	"Ebbinghaus"	"arrowright"	"1474"	"TRUE"	"Ebbinghaus"	"0.1000000000"	"-0.158570000"	"2"	"30"
n/a	"html-keyboard-response"	"244"	"386969"	"0.0-6.0-2.0-0.30"	"m1s1tc"	"600"	"1366"	"chrome"	"111.0.0"	"FALSE"	"Windows 10"	"60.42"	"045"	n/a	n/a	n/a	n/a	n/a	n/a	"fixation"	n/a	n/a	n/a	n/a	"NULL"	n/a	"NULL"	"NULL"	"NULL"	"<p style=\"color: black; font-size: 80px; padding-left: 38%; padding-right: 11%; padding-top: 46%; padding-bottom: 34%\">+</p>"	"1356"	n/a	n/a	n/a	n/a	n/a	n/a	n/a	n/a	n/a
n/a	"image-keyboard-response"	"245"	"387697"	"0.0-6.0-2.0-1.30"	"m1s1tc"	"600"	"1366"	"chrome"	"111.0.0"	"FALSE"	"Windows 10"	"60.42"	"045"	n/a	n/a	n/a	n/a	n/a	n/a	"Trial"	n/a	n/a	n/a	"727"	"arrowright"	n/a	"NULL"	"NULL"	"NULL"	"stimuli/Ebbinghaus_0.61429_-0.2150.png"	n/a	"Ebbinghaus"	"arrowright"	"1365"	"TRUE"	"Ebbinghaus"	"0.6142900000"	"-0.215000000"	"2"	"31"
n/a	"html-keyboard-response"	"246"	"388786"	"0.0-6.0-2.0-0.31"	"m1s1tc"	"600"	"1366"	"chrome"	"111.0.0"	"FALSE"	"Windows 10"	"60.42"	"045"	n/a	n/a	n/a	n/a	n/a	n/a	"fixation"	n/a	n/a	n/a	n/a	"NULL"	n/a	"NULL"	"NULL"	"NULL"	"<p style=\"color: black; font-size: 80px; padding-left: 44%; padding-right: 31%; padding-top: 10%; padding-bottom: 44%\">+</p>"	"1080"	n/a	n/a	n/a	n/a	n/a	n/a	n/a	n/a	n/a
n/a	"image-keyboard-response"	"247"	"389375"	"0.0-6.0-2.0-1.31"	"m1s1tc"	"600"	"1366"	"chrome"	"111.0.0"	"FALSE"	"Windows 10"	"60.42"	"045"	n/a	n/a	n/a	n/a	n/a	n/a	"Trial"	n/a	n/a	n/a	"586"	"arrowright"	n/a	"NULL"	"NULL"	"NULL"	"stimuli/Ebbinghaus_-0.87143_-0.15857.png"	n/a	"Ebbinghaus"	"arrowright"	"1089"	"TRUE"	"Ebbinghaus"	"-0.871430000"	"-0.158570000"	"2"	"32"
n/a	"html-keyboard-response"	"248"	"390753"	"0.0-6.0-2.0-0.32"	"m1s1tc"	"600"	"1366"	"chrome"	"111.0.0"	"FALSE"	"Windows 10"	"60.42"	"045"	n/a	n/a	n/a	n/a	n/a	n/a	"fixation"	n/a	n/a	n/a	n/a	"NULL"	n/a	"NULL"	"NULL"	"NULL"	"<p style=\"color: black; font-size: 80px; padding-left: 18%; padding-right: 15%; padding-top: 14%; padding-bottom: 10%\">+</p>"	"1376"	n/a	n/a	n/a	n/a	n/a	n/a	n/a	n/a	n/a
