"success"	"trial_type"	"trial_index"	"time_elapsed"	"internal_node_id"	"participant_id"	"screen_height"	"screen_width"	"browser"	"browser_version"	"mobile"	"os"	"vsync_rate"	"width"	"height"	"webaudio"	"fullscreen"	"webcam"	"microphone"	"screen"	"version"	"date"	"time"	"timeout"	"failed_images"	"failed_audio"	"failed_video"	"rt"	"stimulus"	"response"	"trial_duration"	"block"	"correct_response"	"prestimulus_duration"	"correct"	"type"	"illusion_strength"	"illusion_difference"	"block_number"	"trial_number"
"TRUE"	"fullscreen"	"0"	"1466"	"0.0-0.0"	"khrdz6"	"600"	"1366"	"chrome"	"108.0.0"	"FALSE"	"Windows 10"	"60.66"	n/a	n/a	n/a	n/a	n/a	n/a	n/a	n/a	n/a	n/a	n/a	"NULL"	"NULL"	"NULL"	n/a	n/a	n/a	n/a	n/a	n/a	n/a	n/a	n/a	n/a	n/a	n/a	n/a
n/a	"browser-check"	"1"	"2473"	"0.0-1.0"	"khrdz6"	"600"	"1366"	"chrome"	"108.0.0"	"FALSE"	"Windows 10"	"60.66"	"1366"	"600"	"TRUE"	"TRUE"	"TRUE"	"TRUE"	"browser_info"	"1.0"	"23/12/2022"	"11:29:29"	n/a	"NULL"	"NULL"	"NULL"	n/a	n/a	n/a	n/a	n/a	n/a	n/a	n/a	n/a	n/a	n/a	n/a	n/a
"TRUE"	"preload"	"2"	"2492"	"0.0-2.0"	"khrdz6"	"600"	"1366"	"chrome"	"108.0.0"	"FALSE"	"Windows 10"	"60.66"	n/a	n/a	n/a	n/a	n/a	n/a	n/a	n/a	n/a	n/a	"FALSE"	"list()"	"list()"	"list()"	n/a	n/a	n/a	n/a	n/a	n/a	n/a	n/a	n/a	n/a	n/a	n/a	n/a
n/a	"html-button-response"	"3"	"65959"	"0.0-3.0-0.0"	"khrdz6"	"600"	"1366"	"chrome"	"108.0.0"	"FALSE"	"Windows 10"	"60.66"	n/a	n/a	n/a	n/a	n/a	n/a	"illusion_instructions"	n/a	n/a	n/a	n/a	"NULL"	"NULL"	"NULL"	"63466"	"<p><b>Illusion Game</b></p><p>In this game of speed and reflex, you will need to make <b>visual judgments</b> (for instance, which circle is the biggest, or which line is the longest), as fast and as correctly as possible, while <b>resisting different visual illusions</b>.</p><p>We are going to start with some examples of all the illusions you will encounter in the game.</p>"	"0"	n/a	n/a	n/a	n/a	n/a	n/a	n/a	n/a	n/a	n/a
"TRUE"	"preload"	"4"	"65987"	"0.0-3.0-1.0-0.0"	"khrdz6"	"600"	"1366"	"chrome"	"108.0.0"	"FALSE"	"Windows 10"	"60.66"	n/a	n/a	n/a	n/a	n/a	n/a	n/a	n/a	n/a	n/a	"FALSE"	"list()"	"list()"	"list()"	n/a	n/a	n/a	n/a	n/a	n/a	n/a	n/a	n/a	n/a	n/a	n/a	n/a
n/a	"html-keyboard-response"	"5"	"87935"	"0.0-3.0-1.0-1.0"	"khrdz6"	"600"	"1366"	"chrome"	"108.0.0"	"FALSE"	"Windows 10"	"60.66"	n/a	n/a	n/a	n/a	n/a	n/a	n/a	n/a	n/a	n/a	n/a	"NULL"	"NULL"	"NULL"	"21947"	"<p><b>Practice</b></p><p>In this part, two red circles will appear side by side on the screen.</p><p>Your task is to select which <b>red circle is bigger</b> in size as fast as you can, without making errors.</p><p>Don't get distracted by the surrounding black circles around the red circles!</p><p>Press <b>the LEFT or the RIGHT arrow</b> to indicate which is the bigger <b>red circle.</b></p><div style='float: center'><img src='materials/instructions/Ebbinghaus_Demo.png' height='300'></img><p><img src='utils/answer/answer_leftright_keyboard.PNG' height='150'></img></p><p class='small'>In this example, the correct answer is the <b>LEFT arrow</b>.</p></div><p>Are you ready? <b>Press ENTER to start</b></p>"	"enter"	n/a	n/a	n/a	n/a	n/a	n/a	n/a	n/a	n/a	n/a
n/a	"html-keyboard-response"	"6"	"89805"	"0.0-3.0-1.0-2.0-0.0"	"khrdz6"	"600"	"1366"	"chrome"	"108.0.0"	"FALSE"	"Windows 10"	"60.66"	n/a	n/a	n/a	n/a	n/a	n/a	"fixation"	n/a	n/a	n/a	n/a	"NULL"	"NULL"	"NULL"	n/a	"<p style=\"color: black; font-size: 80px; padding-left: 7%; padding-right: 35%; padding-top: 50%; padding-bottom: 48%\">+</p>"	n/a	"1359"	n/a	n/a	n/a	n/a	n/a	n/a	n/a	n/a	n/a
n/a	"image-keyboard-response"	"7"	"90730"	"0.0-3.0-1.0-2.0-1.0"	"khrdz6"	"600"	"1366"	"chrome"	"108.0.0"	"FALSE"	"Windows 10"	"60.66"	n/a	n/a	n/a	n/a	n/a	n/a	"Trial"	n/a	n/a	n/a	n/a	"NULL"	"NULL"	"NULL"	"915"	"stimuli/Ebbinghaus_0000000_-1.4000.png"	"arrowright"	n/a	"Ebbinghaus"	"arrowright"	"1870"	"TRUE"	"Ebbinghaus"	"000000000000"	"-1.400000000"	"1"	"1"
n/a	"html-keyboard-response"	"8"	"92049"	"0.0-3.0-1.0-2.0-0.1"	"khrdz6"	"600"	"1366"	"chrome"	"108.0.0"	"FALSE"	"Windows 10"	"60.66"	n/a	n/a	n/a	n/a	n/a	n/a	"fixation"	n/a	n/a	n/a	n/a	"NULL"	"NULL"	"NULL"	n/a	"<p style=\"color: black; font-size: 80px; padding-left: 13%; padding-right: 20%; padding-top: 5%; padding-bottom: 40%\">+</p>"	n/a	"1311"	n/a	n/a	n/a	n/a	n/a	n/a	n/a	n/a	n/a
n/a	"image-keyboard-response"	"9"	"92864"	"0.0-3.0-1.0-2.0-1.1"	"khrdz6"	"600"	"1366"	"chrome"	"108.0.0"	"FALSE"	"Windows 10"	"60.66"	n/a	n/a	n/a	n/a	n/a	n/a	"Trial"	n/a	n/a	n/a	n/a	"NULL"	"NULL"	"NULL"	"813"	"stimuli/Ebbinghaus_-100000_1.40000.png"	"arrowleft"	n/a	"Ebbinghaus"	"arrowleft"	"1319"	"TRUE"	"Ebbinghaus"	"-10000000000"	"1.4000000000"	"1"	"2"
n/a	"html-keyboard-response"	"10"	"94074"	"0.0-3.0-1.0-2.0-0.2"	"khrdz6"	"600"	"1366"	"chrome"	"108.0.0"	"FALSE"	"Windows 10"	"60.66"	n/a	n/a	n/a	n/a	n/a	n/a	"fixation"	n/a	n/a	n/a	n/a	"NULL"	"NULL"	"NULL"	n/a	"<p style=\"color: black; font-size: 80px; padding-left: 20%; padding-right: 11%; padding-top: 38%; padding-bottom: 43%\">+</p>"	n/a	"1193"	n/a	n/a	n/a	n/a	n/a	n/a	n/a	n/a	n/a
n/a	"image-keyboard-response"	"11"	"95027"	"0.0-3.0-1.0-2.0-1.2"	"khrdz6"	"600"	"1366"	"chrome"	"108.0.0"	"FALSE"	"Windows 10"	"60.66"	n/a	n/a	n/a	n/a	n/a	n/a	"Trial"	n/a	n/a	n/a	n/a	"NULL"	"NULL"	"NULL"	"951"	"stimuli/Ebbinghaus_1000000_1.40000.png"	"arrowleft"	n/a	"Ebbinghaus"	"arrowleft"	"1210"	"TRUE"	"Ebbinghaus"	"100000000000"	"1.4000000000"	"1"	"3"
n/a	"html-keyboard-response"	"12"	"96529"	"0.0-3.0-1.0-2.0-0.3"	"khrdz6"	"600"	"1366"	"chrome"	"108.0.0"	"FALSE"	"Windows 10"	"60.66"	n/a	n/a	n/a	n/a	n/a	n/a	"fixation"	n/a	n/a	n/a	n/a	"NULL"	"NULL"	"NULL"	n/a	"<p style=\"color: black; font-size: 80px; padding-left: 36%; padding-right: 49%; padding-top: 48%; padding-bottom: 26%\">+</p>"	n/a	"1492"	n/a	n/a	n/a	n/a	n/a	n/a	n/a	n/a	n/a
n/a	"image-keyboard-response"	"13"	"97347"	"0.0-3.0-1.0-2.0-1.3"	"khrdz6"	"600"	"1366"	"chrome"	"108.0.0"	"FALSE"	"Windows 10"	"60.66"	n/a	n/a	n/a	n/a	n/a	n/a	"Trial"	n/a	n/a	n/a	n/a	"NULL"	"NULL"	"NULL"	"817"	"stimuli/Ebbinghaus_0000000_1.40000.png"	"arrowleft"	n/a	"Ebbinghaus"	"arrowleft"	"1502"	"TRUE"	"Ebbinghaus"	"000000000000"	"1.4000000000"	"1"	"4"
n/a	"html-keyboard-response"	"14"	"98482"	"0.0-3.0-1.0-2.0-0.4"	"khrdz6"	"600"	"1366"	"chrome"	"108.0.0"	"FALSE"	"Windows 10"	"60.66"	n/a	n/a	n/a	n/a	n/a	n/a	"fixation"	n/a	n/a	n/a	n/a	"NULL"	"NULL"	"NULL"	n/a	"<p style=\"color: black; font-size: 80px; padding-left: 12%; padding-right: 23%; padding-top: 30%; padding-bottom: 48%\">+</p>"	n/a	"1126"	n/a	n/a	n/a	n/a	n/a	n/a	n/a	n/a	n/a
n/a	"image-keyboard-response"	"15"	"99148"	"0.0-3.0-1.0-2.0-1.4"	"khrdz6"	"600"	"1366"	"chrome"	"108.0.0"	"FALSE"	"Windows 10"	"60.66"	n/a	n/a	n/a	n/a	n/a	n/a	"Trial"	n/a	n/a	n/a	n/a	"NULL"	"NULL"	"NULL"	"665"	"stimuli/Ebbinghaus_-100000_-1.4000.png"	"arrowright"	n/a	"Ebbinghaus"	"arrowright"	"1135"	"TRUE"	"Ebbinghaus"	"-10000000000"	"-1.400000000"	"1"	"5"
n/a	"html-keyboard-response"	"16"	"100409"	"0.0-3.0-1.0-2.0-0.5"	"khrdz6"	"600"	"1366"	"chrome"	"108.0.0"	"FALSE"	"Windows 10"	"60.66"	n/a	n/a	n/a	n/a	n/a	n/a	"fixation"	n/a	n/a	n/a	n/a	"NULL"	"NULL"	"NULL"	n/a	"<p style=\"color: black; font-size: 80px; padding-left: 5%; padding-right: 20%; padding-top: 48%; padding-bottom: 49%\">+</p>"	n/a	"1241"	n/a	n/a	n/a	n/a	n/a	n/a	n/a	n/a	n/a
n/a	"image-keyboard-response"	"17"	"101057"	"0.0-3.0-1.0-2.0-1.5"	"khrdz6"	"600"	"1366"	"chrome"	"108.0.0"	"FALSE"	"Windows 10"	"60.66"	n/a	n/a	n/a	n/a	n/a	n/a	"Trial"	n/a	n/a	n/a	n/a	"NULL"	"NULL"	"NULL"	"647"	"stimuli/Ebbinghaus_1000000_-1.4000.png"	"arrowright"	n/a	"Ebbinghaus"	"arrowright"	"1261"	"TRUE"	"Ebbinghaus"	"100000000000"	"-1.400000000"	"1"	"6"
n/a	"html-button-response"	"18"	"109703"	"0.0-3.0-1.0-3.0"	"khrdz6"	"600"	"1366"	"chrome"	"108.0.0"	"FALSE"	"Windows 10"	"60.66"	n/a	n/a	n/a	n/a	n/a	n/a	"practice_block_results"	n/a	n/a	n/a	n/a	"NULL"	"NULL"	"NULL"	"8642"	"<p style='color:rgb(76,175,80);'> Correct Responses: <b>100.00%</b></p><hr><p style='color:rgb(233,30,99);'> Average Response Time: <b>801.33</b> ms.</p>"	"0"	n/a	n/a	n/a	n/a	n/a	n/a	n/a	n/a	n/a	n/a
"TRUE"	"preload"	"19"	"110327"	"0.0-3.0-2.0-0.0"	"khrdz6"	"600"	"1366"	"chrome"	"108.0.0"	"FALSE"	"Windows 10"	"60.66"	n/a	n/a	n/a	n/a	n/a	n/a	n/a	n/a	n/a	n/a	"FALSE"	"list()"	"list()"	"list()"	n/a	n/a	n/a	n/a	n/a	n/a	n/a	n/a	n/a	n/a	n/a	n/a	n/a
n/a	"html-keyboard-response"	"20"	"127697"	"0.0-3.0-2.0-1.0"	"khrdz6"	"600"	"1366"	"chrome"	"108.0.0"	"FALSE"	"Windows 10"	"60.66"	n/a	n/a	n/a	n/a	n/a	n/a	n/a	n/a	n/a	n/a	n/a	"NULL"	"NULL"	"NULL"	"17368"	"<p><b>Practice</b></p><p>In this part, two horizontal red lines will appear one above the other.</p><p>Your task is to select which <b>line is longer</b> in length as fast as you can, without making errors.</p><p>Don't get distracted by the surrounding black arrows at the end of the red lines!</p><p>Press <b>the UP or the DOWN arrow</b> to indicate where is the longer <b>red line.</b></p><div style='float: center'><img src='materials/instructions/MullerLyer_Demo.png' height='300'></img><p><img src='utils/answer/answer_updown_keyboard.PNG' height='150'></img></p><p class='small'>In this example, the correct answer is the <b>UP arrow</b>.</p></div><p>Are you ready? <b>Press ENTER to start</b></p>"	"enter"	n/a	n/a	n/a	n/a	n/a	n/a	n/a	n/a	n/a	n/a
n/a	"html-keyboard-response"	"21"	"129532"	"0.0-3.0-2.0-2.0-0.0"	"khrdz6"	"600"	"1366"	"chrome"	"108.0.0"	"FALSE"	"Windows 10"	"60.66"	n/a	n/a	n/a	n/a	n/a	n/a	"fixation"	n/a	n/a	n/a	n/a	"NULL"	"NULL"	"NULL"	n/a	"<p style=\"color: black; font-size: 80px; padding-left: 23%; padding-right: 2%; padding-top: 21%; padding-bottom: 11%\">+</p>"	n/a	"1316"	n/a	n/a	n/a	n/a	n/a	n/a	n/a	n/a	n/a
n/a	"image-keyboard-response"	"22"	"130123"	"0.0-3.0-2.0-2.0-1.0"	"khrdz6"	"600"	"1366"	"chrome"	"108.0.0"	"FALSE"	"Windows 10"	"60.66"	n/a	n/a	n/a	n/a	n/a	n/a	"Trial"	n/a	n/a	n/a	n/a	"NULL"	"NULL"	"NULL"	"589"	"stimuli/MullerLyer_0000000_0.70000.png"	"arrowup"	n/a	"MullerLyer"	"arrowup"	"1835"	"TRUE"	"MullerLyer"	"000000000000"	"0.7000000000"	"1"	"7"
n/a	"html-keyboard-response"	"23"	"131299"	"0.0-3.0-2.0-2.0-0.1"	"khrdz6"	"600"	"1366"	"chrome"	"108.0.0"	"FALSE"	"Windows 10"	"60.66"	n/a	n/a	n/a	n/a	n/a	n/a	"fixation"	n/a	n/a	n/a	n/a	"NULL"	"NULL"	"NULL"	n/a	"<p style=\"color: black; font-size: 80px; padding-left: 36%; padding-right: 20%; padding-top: 22%; padding-bottom: 28%\">+</p>"	n/a	"1156"	n/a	n/a	n/a	n/a	n/a	n/a	n/a	n/a	n/a
n/a	"image-keyboard-response"	"24"	"132086"	"0.0-3.0-2.0-2.0-1.1"	"khrdz6"	"600"	"1366"	"chrome"	"108.0.0"	"FALSE"	"Windows 10"	"60.66"	n/a	n/a	n/a	n/a	n/a	n/a	"Trial"	n/a	n/a	n/a	n/a	"NULL"	"NULL"	"NULL"	"786"	"stimuli/MullerLyer_2300000_0.70000.png"	"arrowup"	n/a	"MullerLyer"	"arrowup"	"1176"	"TRUE"	"MullerLyer"	"230000000000"	"0.7000000000"	"1"	"8"
n/a	"html-keyboard-response"	"25"	"133584"	"0.0-3.0-2.0-2.0-0.2"	"khrdz6"	"600"	"1366"	"chrome"	"108.0.0"	"FALSE"	"Windows 10"	"60.66"	n/a	n/a	n/a	n/a	n/a	n/a	"fixation"	n/a	n/a	n/a	n/a	"NULL"	"NULL"	"NULL"	n/a	"<p style=\"color: black; font-size: 80px; padding-left: 22%; padding-right: 43%; padding-top: 37%; padding-bottom: 25%\">+</p>"	n/a	"1487"	n/a	n/a	n/a	n/a	n/a	n/a	n/a	n/a	n/a
n/a	"image-keyboard-response"	"26"	"134095"	"0.0-3.0-2.0-2.0-1.2"	"khrdz6"	"600"	"1366"	"chrome"	"108.0.0"	"FALSE"	"Windows 10"	"60.66"	n/a	n/a	n/a	n/a	n/a	n/a	"Trial"	n/a	n/a	n/a	n/a	"NULL"	"NULL"	"NULL"	"510"	"stimuli/MullerLyer_0000000_-0.7000.png"	"arrowdown"	n/a	"MullerLyer"	"arrowdown"	"1498"	"TRUE"	"MullerLyer"	"000000000000"	"-0.700000000"	"1"	"9"
n/a	"html-keyboard-response"	"27"	"135157"	"0.0-3.0-2.0-2.0-0.3"	"khrdz6"	"600"	"1366"	"chrome"	"108.0.0"	"FALSE"	"Windows 10"	"60.66"	n/a	n/a	n/a	n/a	n/a	n/a	"fixation"	n/a	n/a	n/a	n/a	"NULL"	"NULL"	"NULL"	n/a	"<p style=\"color: black; font-size: 80px; padding-left: 4%; padding-right: 28%; padding-top: 16%; padding-bottom: 29%\">+</p>"	n/a	"1047"	n/a	n/a	n/a	n/a	n/a	n/a	n/a	n/a	n/a
n/a	"image-keyboard-response"	"28"	"135786"	"0.0-3.0-2.0-2.0-1.3"	"khrdz6"	"600"	"1366"	"chrome"	"108.0.0"	"FALSE"	"Windows 10"	"60.66"	n/a	n/a	n/a	n/a	n/a	n/a	"Trial"	n/a	n/a	n/a	n/a	"NULL"	"NULL"	"NULL"	"629"	"stimuli/MullerLyer_2300000_-0.7000.png"	"arrowdown"	n/a	"MullerLyer"	"arrowdown"	"1062"	"TRUE"	"MullerLyer"	"230000000000"	"-0.700000000"	"1"	"10"
n/a	"html-keyboard-response"	"29"	"137144"	"0.0-3.0-2.0-2.0-0.4"	"khrdz6"	"600"	"1366"	"chrome"	"108.0.0"	"FALSE"	"Windows 10"	"60.66"	n/a	n/a	n/a	n/a	n/a	n/a	"fixation"	n/a	n/a	n/a	n/a	"NULL"	"NULL"	"NULL"	n/a	"<p style=\"color: black; font-size: 80px; padding-left: 42%; padding-right: 25%; padding-top: 29%; padding-bottom: 36%\">+</p>"	n/a	"1340"	n/a	n/a	n/a	n/a	n/a	n/a	n/a	n/a	n/a
n/a	"image-keyboard-response"	"30"	"137599"	"0.0-3.0-2.0-2.0-1.4"	"khrdz6"	"600"	"1366"	"chrome"	"108.0.0"	"FALSE"	"Windows 10"	"60.66"	n/a	n/a	n/a	n/a	n/a	n/a	"Trial"	n/a	n/a	n/a	n/a	"NULL"	"NULL"	"NULL"	"454"	"stimuli/MullerLyer_-230000_0.70000.png"	"arrowup"	n/a	"MullerLyer"	"arrowup"	"1358"	"TRUE"	"MullerLyer"	"-23000000000"	"0.7000000000"	"1"	"11"
n/a	"html-keyboard-response"	"31"	"138663"	"0.0-3.0-2.0-2.0-0.5"	"khrdz6"	"600"	"1366"	"chrome"	"108.0.0"	"FALSE"	"Windows 10"	"60.66"	n/a	n/a	n/a	n/a	n/a	n/a	"fixation"	n/a	n/a	n/a	n/a	"NULL"	"NULL"	"NULL"	n/a	"<p style=\"color: black; font-size: 80px; padding-left: 38%; padding-right: 25%; padding-top: 50%; padding-bottom: 42%\">+</p>"	n/a	"1058"	n/a	n/a	n/a	n/a	n/a	n/a	n/a	n/a	n/a
n/a	"image-keyboard-response"	"32"	"139109"	"0.0-3.0-2.0-2.0-1.5"	"khrdz6"	"600"	"1366"	"chrome"	"108.0.0"	"FALSE"	"Windows 10"	"60.66"	n/a	n/a	n/a	n/a	n/a	n/a	"Trial"	n/a	n/a	n/a	n/a	"NULL"	"NULL"	"NULL"	"444"	"stimuli/MullerLyer_-230000_-0.7000.png"	"arrowdown"	n/a	"MullerLyer"	"arrowdown"	"1064"	"TRUE"	"MullerLyer"	"-23000000000"	"-0.700000000"	"1"	"12"
n/a	"html-button-response"	"33"	"143391"	"0.0-3.0-2.0-3.0"	"khrdz6"	"600"	"1366"	"chrome"	"108.0.0"	"FALSE"	"Windows 10"	"60.66"	n/a	n/a	n/a	n/a	n/a	n/a	"practice_block_results"	n/a	n/a	n/a	n/a	"NULL"	"NULL"	"NULL"	"4281"	"<p style='color:rgb(76,175,80);'> Correct Responses: <b>100.00%</b></p><hr><p style='color:rgb(233,30,99);'> Average Response Time: <b>568.67</b> ms.</p>"	"0"	n/a	n/a	n/a	n/a	n/a	n/a	n/a	n/a	n/a	n/a
"TRUE"	"preload"	"34"	"143934"	"0.0-3.0-3.0-0.0"	"khrdz6"	"600"	"1366"	"chrome"	"108.0.0"	"FALSE"	"Windows 10"	"60.66"	n/a	n/a	n/a	n/a	n/a	n/a	n/a	n/a	n/a	n/a	"FALSE"	"list()"	"list()"	"list()"	n/a	n/a	n/a	n/a	n/a	n/a	n/a	n/a	n/a	n/a	n/a	n/a	n/a
n/a	"html-keyboard-response"	"35"	"154367"	"0.0-3.0-3.0-1.0"	"khrdz6"	"600"	"1366"	"chrome"	"108.0.0"	"FALSE"	"Windows 10"	"60.66"	n/a	n/a	n/a	n/a	n/a	n/a	n/a	n/a	n/a	n/a	n/a	"NULL"	"NULL"	"NULL"	"10432"	"<p><b>Practice</b></p><p>In this part, two red lines will appear side by side.</p><p>Your task is to tell <b>which line is longer</b> in length, regardless of their orientation, as fast as you can, and without making errors.</p><p>Don't get distracted by the orientation of the lines!</p><p>Press <b>the LEFT or the RIGHT arrow</b> to indicate which <b>line is the longer one.</b></p><div style='float: center'><img src='materials/instructions/VerticalHorizontal_Demo.png' height='300'></img><p><img src='utils/answer/answer_leftright_keyboard.PNG' height='150'></img></p><p class='small'>In this example, the correct answer is the <b>LEFT arrow</b>.</p></div><p>Are you ready? <b>Press ENTER to start</b></p>"	"enter"	n/a	n/a	n/a	n/a	n/a	n/a	n/a	n/a	n/a	n/a
n/a	"html-keyboard-response"	"36"	"156283"	"0.0-3.0-3.0-2.0-0.0"	"khrdz6"	"600"	"1366"	"chrome"	"108.0.0"	"FALSE"	"Windows 10"	"60.66"	n/a	n/a	n/a	n/a	n/a	n/a	"fixation"	n/a	n/a	n/a	n/a	"NULL"	"NULL"	"NULL"	n/a	"<p style=\"color: black; font-size: 80px; padding-left: 7%; padding-right: 47%; padding-top: 48%; padding-bottom: 48%\">+</p>"	n/a	"1398"	n/a	n/a	n/a	n/a	n/a	n/a	n/a	n/a	n/a
n/a	"image-keyboard-response"	"37"	"156757"	"0.0-3.0-3.0-2.0-1.0"	"khrdz6"	"600"	"1366"	"chrome"	"108.0.0"	"FALSE"	"Windows 10"	"60.66"	n/a	n/a	n/a	n/a	n/a	n/a	"Trial"	n/a	n/a	n/a	n/a	"NULL"	"NULL"	"NULL"	"471"	"stimuli/VerticalHorizontal_0000000_0.90000.png"	"arrowleft"	n/a	"VerticalHorizontal"	"arrowleft"	"1916"	"TRUE"	"VerticalHorizontal"	"000000000000"	"0.9000000000"	"1"	"13"
n/a	"html-keyboard-response"	"38"	"158047"	"0.0-3.0-3.0-2.0-0.1"	"khrdz6"	"600"	"1366"	"chrome"	"108.0.0"	"FALSE"	"Windows 10"	"60.66"	n/a	n/a	n/a	n/a	n/a	n/a	"fixation"	n/a	n/a	n/a	n/a	"NULL"	"NULL"	"NULL"	n/a	"<p style=\"color: black; font-size: 80px; padding-left: 9%; padding-right: 35%; padding-top: 13%; padding-bottom: 41%\">+</p>"	n/a	"1270"	n/a	n/a	n/a	n/a	n/a	n/a	n/a	n/a	n/a
n/a	"image-keyboard-response"	"39"	"158432"	"0.0-3.0-3.0-2.0-1.1"	"khrdz6"	"600"	"1366"	"chrome"	"108.0.0"	"FALSE"	"Windows 10"	"60.66"	n/a	n/a	n/a	n/a	n/a	n/a	"Trial"	n/a	n/a	n/a	n/a	"NULL"	"NULL"	"NULL"	"384"	"stimuli/VerticalHorizontal_-330000_0.90000.png"	"arrowleft"	n/a	"VerticalHorizontal"	"arrowleft"	"1290"	"TRUE"	"VerticalHorizontal"	"-33000000000"	"0.9000000000"	"1"	"14"
n/a	"html-keyboard-response"	"40"	"159641"	"0.0-3.0-3.0-2.0-0.2"	"khrdz6"	"600"	"1366"	"chrome"	"108.0.0"	"FALSE"	"Windows 10"	"60.66"	n/a	n/a	n/a	n/a	n/a	n/a	"fixation"	n/a	n/a	n/a	n/a	"NULL"	"NULL"	"NULL"	n/a	"<p style=\"color: black; font-size: 80px; padding-left: 6%; padding-right: 10%; padding-top: 0%; padding-bottom: 48%\">+</p>"	n/a	"1187"	n/a	n/a	n/a	n/a	n/a	n/a	n/a	n/a	n/a
n/a	"image-keyboard-response"	"41"	"160007"	"0.0-3.0-3.0-2.0-1.2"	"khrdz6"	"600"	"1366"	"chrome"	"108.0.0"	"FALSE"	"Windows 10"	"60.66"	n/a	n/a	n/a	n/a	n/a	n/a	"Trial"	n/a	n/a	n/a	n/a	"NULL"	"NULL"	"NULL"	"365"	"stimuli/VerticalHorizontal_0000000_-0.9000.png"	"arrowright"	n/a	"VerticalHorizontal"	"arrowright"	"1209"	"TRUE"	"VerticalHorizontal"	"000000000000"	"-0.900000000"	"1"	"15"
n/a	"html-keyboard-response"	"42"	"161021"	"0.0-3.0-3.0-2.0-0.3"	"khrdz6"	"600"	"1366"	"chrome"	"108.0.0"	"FALSE"	"Windows 10"	"60.66"	n/a	n/a	n/a	n/a	n/a	n/a	"fixation"	n/a	n/a	n/a	n/a	"NULL"	"NULL"	"NULL"	n/a	"<p style=\"color: black; font-size: 80px; padding-left: 33%; padding-right: 44%; padding-top: 17%; padding-bottom: 28%\">+</p>"	n/a	"1002"	n/a	n/a	n/a	n/a	n/a	n/a	n/a	n/a	n/a
n/a	"image-keyboard-response"	"43"	"161495"	"0.0-3.0-3.0-2.0-1.3"	"khrdz6"	"600"	"1366"	"chrome"	"108.0.0"	"FALSE"	"Windows 10"	"60.66"	n/a	n/a	n/a	n/a	n/a	n/a	"Trial"	n/a	n/a	n/a	n/a	"NULL"	"NULL"	"NULL"	"472"	"stimuli/VerticalHorizontal_3300000_0.90000.png"	"arrowleft"	n/a	"VerticalHorizontal"	"arrowleft"	"1014"	"TRUE"	"VerticalHorizontal"	"330000000000"	"0.9000000000"	"1"	"16"
n/a	"html-keyboard-response"	"44"	"162905"	"0.0-3.0-3.0-2.0-0.4"	"khrdz6"	"600"	"1366"	"chrome"	"108.0.0"	"FALSE"	"Windows 10"	"60.66"	n/a	n/a	n/a	n/a	n/a	n/a	"fixation"	n/a	n/a	n/a	n/a	"NULL"	"NULL"	"NULL"	n/a	"<p style=\"color: black; font-size: 80px; padding-left: 37%; padding-right: 45%; padding-top: 24%; padding-bottom: 49%\">+</p>"	n/a	"1401"	n/a	n/a	n/a	n/a	n/a	n/a	n/a	n/a	n/a
n/a	"image-keyboard-response"	"45"	"163318"	"0.0-3.0-3.0-2.0-1.4"	"khrdz6"	"600"	"1366"	"chrome"	"108.0.0"	"FALSE"	"Windows 10"	"60.66"	n/a	n/a	n/a	n/a	n/a	n/a	"Trial"	n/a	n/a	n/a	n/a	"NULL"	"NULL"	"NULL"	"412"	"stimuli/VerticalHorizontal_3300000_-0.9000.png"	"arrowright"	n/a	"VerticalHorizontal"	"arrowright"	"1410"	"TRUE"	"VerticalHorizontal"	"330000000000"	"-0.900000000"	"1"	"17"
n/a	"html-keyboard-response"	"46"	"164698"	"0.0-3.0-3.0-2.0-0.5"	"khrdz6"	"600"	"1366"	"chrome"	"108.0.0"	"FALSE"	"Windows 10"	"60.66"	n/a	n/a	n/a	n/a	n/a	n/a	"fixation"	n/a	n/a	n/a	n/a	"NULL"	"NULL"	"NULL"	n/a	"<p style=\"color: black; font-size: 80px; padding-left: 9%; padding-right: 27%; padding-top: 38%; padding-bottom: 7%\">+</p>"	n/a	"1360"	n/a	n/a	n/a	n/a	n/a	n/a	n/a	n/a	n/a
n/a	"image-keyboard-response"	"47"	"165091"	"0.0-3.0-3.0-2.0-1.5"	"khrdz6"	"600"	"1366"	"chrome"	"108.0.0"	"FALSE"	"Windows 10"	"60.66"	n/a	n/a	n/a	n/a	n/a	n/a	"Trial"	n/a	n/a	n/a	n/a	"NULL"	"NULL"	"NULL"	"392"	"stimuli/VerticalHorizontal_-330000_-0.9000.png"	"arrowright"	n/a	"VerticalHorizontal"	"arrowright"	"1380"	"TRUE"	"VerticalHorizontal"	"-33000000000"	"-0.900000000"	"1"	"18"
n/a	"html-button-response"	"48"	"169039"	"0.0-3.0-3.0-3.0"	"khrdz6"	"600"	"1366"	"chrome"	"108.0.0"	"FALSE"	"Windows 10"	"60.66"	n/a	n/a	n/a	n/a	n/a	n/a	"practice_block_results"	n/a	n/a	n/a	n/a	"NULL"	"NULL"	"NULL"	"3946"	"<p style='color:rgb(76,175,80);'> Correct Responses: <b>100.00%</b></p><hr><p style='color:rgb(233,30,99);'> Average Response Time: <b>416.00</b> ms.</p>"	"0"	n/a	n/a	n/a	n/a	n/a	n/a	n/a	n/a	n/a	n/a
n/a	"html-button-response"	"49"	"276487"	"0.0-3.0-4.0"	"khrdz6"	"600"	"1366"	"chrome"	"108.0.0"	"FALSE"	"Windows 10"	"60.66"	n/a	n/a	n/a	n/a	n/a	n/a	"practice_debrief"	n/a	n/a	n/a	n/a	"NULL"	"NULL"	"NULL"	"106940"	"<p><b>TRAINING COMPLETED</b></p><p>In the next phase, there will be more trials, and some might be harder too.<br> Moreover, after each illusion block, a <b>score</b> will be calculated based on speed (time you took to answer) and accuracy (number of errors).</p><p>Try to keep up a high score!</p><br><p>Note that it can be <i>really</i> challenging at times, so you will need to rely on your <b>intuition</b> and gut feeling to answer as fast as you can without making errors.</p><p>Each illusion block will be repeated two times (so that you have the opportunity to improve your score), but the order of the blocks is random.</p><p>Remember, your goal is to be as <b>fast</b> and <b>accurate</b> as possible. Good luck!</p><br>"	"0"	n/a	n/a	n/a	n/a	n/a	n/a	n/a	n/a	n/a	n/a
"TRUE"	"preload"	"50"	"276666"	"0.0-4.0-0.0"	"khrdz6"	"600"	"1366"	"chrome"	"108.0.0"	"FALSE"	"Windows 10"	"60.66"	n/a	n/a	n/a	n/a	n/a	n/a	n/a	n/a	n/a	n/a	"FALSE"	"list()"	"list()"	"list()"	n/a	n/a	n/a	n/a	n/a	n/a	n/a	n/a	n/a	n/a	n/a	n/a	n/a
n/a	"html-keyboard-response"	"51"	"287653"	"0.0-4.0-1.0"	"khrdz6"	"600"	"1366"	"chrome"	"108.0.0"	"FALSE"	"Windows 10"	"60.66"	n/a	n/a	n/a	n/a	n/a	n/a	n/a	n/a	n/a	n/a	n/a	"NULL"	"NULL"	"NULL"	"10986"	"<p><b>Part 1/6</b></p><p>In this part, two red lines will appear side by side.</p><p>Your task is to tell <b>which line is longer</b> in length, regardless of their orientation, as fast as you can, and without making errors.</p><p>Don't get distracted by the orientation of the lines!</p><p>Press <b>the LEFT or the RIGHT arrow</b> to indicate which <b>line is the longer one.</b></p><div style='float: center'><img src='materials/instructions/VerticalHorizontal_Demo.png' height='300'></img><p><img src='utils/answer/answer_leftright_keyboard.PNG' height='150'></img></p><p class='small'>In this example, the correct answer is the <b>LEFT arrow</b>.</p></div><p>Are you ready? <b>Press ENTER to start</b></p>"	"enter"	n/a	n/a	n/a	n/a	n/a	n/a	n/a	n/a	n/a	n/a
n/a	"html-keyboard-response"	"52"	"289175"	"0.0-4.0-2.0-0.0"	"khrdz6"	"600"	"1366"	"chrome"	"108.0.0"	"FALSE"	"Windows 10"	"60.66"	n/a	n/a	n/a	n/a	n/a	n/a	"fixation"	n/a	n/a	n/a	n/a	"NULL"	"NULL"	"NULL"	n/a	"<p style=\"color: black; font-size: 80px; padding-left: 5%; padding-right: 29%; padding-top: 1%; padding-bottom: 7%\">+</p>"	n/a	"1012"	n/a	n/a	n/a	n/a	n/a	n/a	n/a	n/a	n/a
n/a	"image-keyboard-response"	"53"	"289647"	"0.0-4.0-2.0-1.0"	"khrdz6"	"600"	"1366"	"chrome"	"108.0.0"	"FALSE"	"Windows 10"	"60.66"	n/a	n/a	n/a	n/a	n/a	n/a	"Trial"	n/a	n/a	n/a	n/a	"NULL"	"NULL"	"NULL"	"471"	"stimuli/VerticalHorizontal_11.78571_-0.2250.png"	"arrowright"	n/a	"VerticalHorizontal"	"arrowright"	"1522"	"TRUE"	"VerticalHorizontal"	"11.785710000"	"-0.225000000"	"1"	"19"
n/a	"html-keyboard-response"	"54"	"290741"	"0.0-4.0-2.0-0.1"	"khrdz6"	"600"	"1366"	"chrome"	"108.0.0"	"FALSE"	"Windows 10"	"60.66"	n/a	n/a	n/a	n/a	n/a	n/a	"fixation"	n/a	n/a	n/a	n/a	"NULL"	"NULL"	"NULL"	n/a	"<p style=\"color: black; font-size: 80px; padding-left: 4%; padding-right: 18%; padding-top: 25%; padding-bottom: 6%\">+</p>"	n/a	"1082"	n/a	n/a	n/a	n/a	n/a	n/a	n/a	n/a	n/a
n/a	"image-keyboard-response"	"55"	"291422"	"0.0-4.0-2.0-1.1"	"khrdz6"	"600"	"1366"	"chrome"	"108.0.0"	"FALSE"	"Windows 10"	"60.66"	n/a	n/a	n/a	n/a	n/a	n/a	"Trial"	n/a	n/a	n/a	n/a	"NULL"	"NULL"	"NULL"	"680"	"stimuli/VerticalHorizontal_-11.78571_0.06730.png"	"arrowleft"	n/a	"VerticalHorizontal"	"arrowleft"	"1094"	"TRUE"	"VerticalHorizontal"	"-11.78571000"	"0.0673000000"	"1"	"20"
n/a	"html-keyboard-response"	"56"	"292528"	"0.0-4.0-2.0-0.2"	"khrdz6"	"600"	"1366"	"chrome"	"108.0.0"	"FALSE"	"Windows 10"	"60.66"	n/a	n/a	n/a	n/a	n/a	n/a	"fixation"	n/a	n/a	n/a	n/a	"NULL"	"NULL"	"NULL"	n/a	"<p style=\"color: black; font-size: 80px; padding-left: 2%; padding-right: 48%; padding-top: 38%; padding-bottom: 41%\">+</p>"	n/a	"1097"	n/a	n/a	n/a	n/a	n/a	n/a	n/a	n/a	n/a
n/a	"image-keyboard-response"	"57"	"293092"	"0.0-4.0-2.0-1.2"	"khrdz6"	"600"	"1366"	"chrome"	"108.0.0"	"FALSE"	"Windows 10"	"60.66"	n/a	n/a	n/a	n/a	n/a	n/a	"Trial"	n/a	n/a	n/a	n/a	"NULL"	"NULL"	"NULL"	"563"	"stimuli/VerticalHorizontal_11.78571_0.16217.png"	"arrowright"	n/a	"VerticalHorizontal"	"arrowleft"	"1106"	"FALSE"	"VerticalHorizontal"	"11.785710000"	"0.1621700000"	"1"	"21"
n/a	"html-keyboard-response"	"58"	"294494"	"0.0-4.0-2.0-0.3"	"khrdz6"	"600"	"1366"	"chrome"	"108.0.0"	"FALSE"	"Windows 10"	"60.66"	n/a	n/a	n/a	n/a	n/a	n/a	"fixation"	n/a	n/a	n/a	n/a	"NULL"	"NULL"	"NULL"	n/a	"<p style=\"color: black; font-size: 80px; padding-left: 6%; padding-right: 38%; padding-top: 8%; padding-bottom: 11%\">+</p>"	n/a	"1383"	n/a	n/a	n/a	n/a	n/a	n/a	n/a	n/a	n/a
n/a	"image-keyboard-response"	"59"	"295211"	"0.0-4.0-2.0-1.3"	"khrdz6"	"600"	"1366"	"chrome"	"108.0.0"	"FALSE"	"Windows 10"	"60.66"	n/a	n/a	n/a	n/a	n/a	n/a	"Trial"	n/a	n/a	n/a	n/a	"NULL"	"NULL"	"NULL"	"716"	"stimuli/VerticalHorizontal_-28.75714_0.06730.png"	"arrowleft"	n/a	"VerticalHorizontal"	"arrowleft"	"1402"	"TRUE"	"VerticalHorizontal"	"-28.75714000"	"0.0673000000"	"1"	"22"
n/a	"html-keyboard-response"	"60"	"296373"	"0.0-4.0-2.0-0.4"	"khrdz6"	"600"	"1366"	"chrome"	"108.0.0"	"FALSE"	"Windows 10"	"60.66"	n/a	n/a	n/a	n/a	n/a	n/a	"fixation"	n/a	n/a	n/a	n/a	"NULL"	"NULL"	"NULL"	n/a	"<p style=\"color: black; font-size: 80px; padding-left: 38%; padding-right: 34%; padding-top: 42%; padding-bottom: 5%\">+</p>"	n/a	"1152"	n/a	n/a	n/a	n/a	n/a	n/a	n/a	n/a	n/a
n/a	"image-keyboard-response"	"61"	"296955"	"0.0-4.0-2.0-1.4"	"khrdz6"	"600"	"1366"	"chrome"	"108.0.0"	"FALSE"	"Windows 10"	"60.66"	n/a	n/a	n/a	n/a	n/a	n/a	"Trial"	n/a	n/a	n/a	n/a	"NULL"	"NULL"	"NULL"	"581"	"stimuli/VerticalHorizontal_-28.75714_0.16217.png"	"arrowleft"	n/a	"VerticalHorizontal"	"arrowleft"	"1162"	"TRUE"	"VerticalHorizontal"	"-28.75714000"	"0.1621700000"	"1"	"23"
n/a	"html-keyboard-response"	"62"	"298005"	"0.0-4.0-2.0-0.5"	"khrdz6"	"600"	"1366"	"chrome"	"108.0.0"	"FALSE"	"Windows 10"	"60.66"	n/a	n/a	n/a	n/a	n/a	n/a	"fixation"	n/a	n/a	n/a	n/a	"NULL"	"NULL"	"NULL"	n/a	"<p style=\"color: black; font-size: 80px; padding-left: 40%; padding-right: 19%; padding-top: 44%; padding-bottom: 0%\">+</p>"	n/a	"1037"	n/a	n/a	n/a	n/a	n/a	n/a	n/a	n/a	n/a
n/a	"image-keyboard-response"	"63"	"298529"	"0.0-4.0-2.0-1.5"	"khrdz6"	"600"	"1366"	"chrome"	"108.0.0"	"FALSE"	"Windows 10"	"60.66"	n/a	n/a	n/a	n/a	n/a	n/a	"Trial"	n/a	n/a	n/a	n/a	"NULL"	"NULL"	"NULL"	"523"	"stimuli/VerticalHorizontal_3.30000_-0.16217.png"	"arrowright"	n/a	"VerticalHorizontal"	"arrowright"	"1050"	"TRUE"	"VerticalHorizontal"	"3.3000000000"	"-0.162170000"	"1"	"24"
n/a	"html-keyboard-response"	"64"	"299918"	"0.0-4.0-2.0-0.6"	"khrdz6"	"600"	"1366"	"chrome"	"108.0.0"	"FALSE"	"Windows 10"	"60.66"	n/a	n/a	n/a	n/a	n/a	n/a	"fixation"	n/a	n/a	n/a	n/a	"NULL"	"NULL"	"NULL"	n/a	"<p style=\"color: black; font-size: 80px; padding-left: 1%; padding-right: 43%; padding-top: 40%; padding-bottom: 14%\">+</p>"	n/a	"1370"	n/a	n/a	n/a	n/a	n/a	n/a	n/a	n/a	n/a
n/a	"image-keyboard-response"	"65"	"300675"	"0.0-4.0-2.0-1.6"	"khrdz6"	"600"	"1366"	"chrome"	"108.0.0"	"FALSE"	"Windows 10"	"60.66"	n/a	n/a	n/a	n/a	n/a	n/a	"Trial"	n/a	n/a	n/a	n/a	"NULL"	"NULL"	"NULL"	"756"	"stimuli/VerticalHorizontal_20.27143_-0.0673.png"	"arrowright"	n/a	"VerticalHorizontal"	"arrowright"	"1389"	"TRUE"	"VerticalHorizontal"	"20.271430000"	"-0.067300000"	"1"	"25"
n/a	"html-keyboard-response"	"66"	"301797"	"0.0-4.0-2.0-0.7"	"khrdz6"	"600"	"1366"	"chrome"	"108.0.0"	"FALSE"	"Windows 10"	"60.66"	n/a	n/a	n/a	n/a	n/a	n/a	"fixation"	n/a	n/a	n/a	n/a	"NULL"	"NULL"	"NULL"	n/a	"<p style=\"color: black; font-size: 80px; padding-left: 35%; padding-right: 33%; padding-top: 35%; padding-bottom: 33%\">+</p>"	n/a	"1109"	n/a	n/a	n/a	n/a	n/a	n/a	n/a	n/a	n/a
n/a	"image-keyboard-response"	"67"	"302326"	"0.0-4.0-2.0-1.7"	"khrdz6"	"600"	"1366"	"chrome"	"108.0.0"	"FALSE"	"Windows 10"	"60.66"	n/a	n/a	n/a	n/a	n/a	n/a	"Trial"	n/a	n/a	n/a	n/a	"NULL"	"NULL"	"NULL"	"525"	"stimuli/VerticalHorizontal_-28.75714_-0.2250.png"	"arrowright"	n/a	"VerticalHorizontal"	"arrowright"	"1122"	"TRUE"	"VerticalHorizontal"	"-28.75714000"	"-0.225000000"	"1"	"26"
n/a	"html-keyboard-response"	"68"	"303688"	"0.0-4.0-2.0-0.8"	"khrdz6"	"600"	"1366"	"chrome"	"108.0.0"	"FALSE"	"Windows 10"	"60.66"	n/a	n/a	n/a	n/a	n/a	n/a	"fixation"	n/a	n/a	n/a	n/a	"NULL"	"NULL"	"NULL"	n/a	"<p style=\"color: black; font-size: 80px; padding-left: 18%; padding-right: 33%; padding-top: 39%; padding-bottom: 42%\">+</p>"	n/a	"1345"	n/a	n/a	n/a	n/a	n/a	n/a	n/a	n/a	n/a
n/a	"image-keyboard-response"	"69"	"304380"	"0.0-4.0-2.0-1.8"	"khrdz6"	"600"	"1366"	"chrome"	"108.0.0"	"FALSE"	"Windows 10"	"60.66"	n/a	n/a	n/a	n/a	n/a	n/a	"Trial"	n/a	n/a	n/a	n/a	"NULL"	"NULL"	"NULL"	"690"	"stimuli/VerticalHorizontal_11.78571_0.06730.png"	"arrowleft"	n/a	"VerticalHorizontal"	"arrowleft"	"1362"	"TRUE"	"VerticalHorizontal"	"11.785710000"	"0.0673000000"	"1"	"27"
n/a	"html-keyboard-response"	"70"	"305704"	"0.0-4.0-2.0-0.9"	"khrdz6"	"600"	"1366"	"chrome"	"108.0.0"	"FALSE"	"Windows 10"	"60.66"	n/a	n/a	n/a	n/a	n/a	n/a	"fixation"	n/a	n/a	n/a	n/a	"NULL"	"NULL"	"NULL"	n/a	"<p style=\"color: black; font-size: 80px; padding-left: 49%; padding-right: 9%; padding-top: 22%; padding-bottom: 10%\">+</p>"	n/a	"1309"	n/a	n/a	n/a	n/a	n/a	n/a	n/a	n/a	n/a
n/a	"image-keyboard-response"	"71"	"306295"	"0.0-4.0-2.0-1.9"	"khrdz6"	"600"	"1366"	"chrome"	"108.0.0"	"FALSE"	"Windows 10"	"60.66"	n/a	n/a	n/a	n/a	n/a	n/a	"Trial"	n/a	n/a	n/a	n/a	"NULL"	"NULL"	"NULL"	"590"	"stimuli/VerticalHorizontal_-3.3000_-0.0673.png"	"arrowright"	n/a	"VerticalHorizontal"	"arrowright"	"1324"	"TRUE"	"VerticalHorizontal"	"-3.300000000"	"-0.067300000"	"1"	"28"
n/a	"html-keyboard-response"	"72"	"307750"	"0.0-4.0-2.0-0.10"	"khrdz6"	"600"	"1366"	"chrome"	"108.0.0"	"FALSE"	"Windows 10"	"60.66"	n/a	n/a	n/a	n/a	n/a	n/a	"fixation"	n/a	n/a	n/a	n/a	"NULL"	"NULL"	"NULL"	n/a	"<p style=\"color: black; font-size: 80px; padding-left: 46%; padding-right: 48%; padding-top: 27%; padding-bottom: 11%\">+</p>"	n/a	"1444"	n/a	n/a	n/a	n/a	n/a	n/a	n/a	n/a	n/a
n/a	"image-keyboard-response"	"73"	"308295"	"0.0-4.0-2.0-1.10"	"khrdz6"	"600"	"1366"	"chrome"	"108.0.0"	"FALSE"	"Windows 10"	"60.66"	n/a	n/a	n/a	n/a	n/a	n/a	"Trial"	n/a	n/a	n/a	n/a	"NULL"	"NULL"	"NULL"	"544"	"stimuli/VerticalHorizontal_-11.78571_0.22500.png"	"arrowleft"	n/a	"VerticalHorizontal"	"arrowleft"	"1455"	"TRUE"	"VerticalHorizontal"	"-11.78571000"	"0.2250000000"	"1"	"29"
n/a	"html-keyboard-response"	"74"	"309531"	"0.0-4.0-2.0-0.11"	"khrdz6"	"600"	"1366"	"chrome"	"108.0.0"	"FALSE"	"Windows 10"	"60.66"	n/a	n/a	n/a	n/a	n/a	n/a	"fixation"	n/a	n/a	n/a	n/a	"NULL"	"NULL"	"NULL"	n/a	"<p style=\"color: black; font-size: 80px; padding-left: 47%; padding-right: 19%; padding-top: 1%; padding-bottom: 16%\">+</p>"	n/a	"1220"	n/a	n/a	n/a	n/a	n/a	n/a	n/a	n/a	n/a
n/a	"image-keyboard-response"	"75"	"310082"	"0.0-4.0-2.0-1.11"	"khrdz6"	"600"	"1366"	"chrome"	"108.0.0"	"FALSE"	"Windows 10"	"60.66"	n/a	n/a	n/a	n/a	n/a	n/a	"Trial"	n/a	n/a	n/a	n/a	"NULL"	"NULL"	"NULL"	"550"	"stimuli/VerticalHorizontal_-3.3000_-0.1096.png"	"arrowright"	n/a	"VerticalHorizontal"	"arrowright"	"1236"	"TRUE"	"VerticalHorizontal"	"-3.300000000"	"-0.109600000"	"1"	"30"
n/a	"html-keyboard-response"	"76"	"311542"	"0.0-4.0-2.0-0.12"	"khrdz6"	"600"	"1366"	"chrome"	"108.0.0"	"FALSE"	"Windows 10"	"60.66"	n/a	n/a	n/a	n/a	n/a	n/a	"fixation"	n/a	n/a	n/a	n/a	"NULL"	"NULL"	"NULL"	n/a	"<p style=\"color: black; font-size: 80px; padding-left: 48%; padding-right: 11%; padding-top: 1%; padding-bottom: 36%\">+</p>"	n/a	"1452"	n/a	n/a	n/a	n/a	n/a	n/a	n/a	n/a	n/a
n/a	"image-keyboard-response"	"77"	"312180"	"0.0-4.0-2.0-1.12"	"khrdz6"	"600"	"1366"	"chrome"	"108.0.0"	"FALSE"	"Windows 10"	"60.66"	n/a	n/a	n/a	n/a	n/a	n/a	"Trial"	n/a	n/a	n/a	n/a	"NULL"	"NULL"	"NULL"	"636"	"stimuli/VerticalHorizontal_28.75714_0.16217.png"	"arrowright"	n/a	"VerticalHorizontal"	"arrowleft"	"1460"	"FALSE"	"VerticalHorizontal"	"28.757140000"	"0.1621700000"	"1"	"31"
n/a	"html-keyboard-response"	"78"	"313496"	"0.0-4.0-2.0-0.13"	"khrdz6"	"600"	"1366"	"chrome"	"108.0.0"	"FALSE"	"Windows 10"	"60.66"	n/a	n/a	n/a	n/a	n/a	n/a	"fixation"	n/a	n/a	n/a	n/a	"NULL"	"NULL"	"NULL"	n/a	"<p style=\"color: black; font-size: 80px; padding-left: 36%; padding-right: 49%; padding-top: 30%; padding-bottom: 4%\">+</p>"	n/a	"1304"	n/a	n/a	n/a	n/a	n/a	n/a	n/a	n/a	n/a
n/a	"image-keyboard-response"	"79"	"314144"	"0.0-4.0-2.0-1.13"	"khrdz6"	"600"	"1366"	"chrome"	"108.0.0"	"FALSE"	"Windows 10"	"60.66"	n/a	n/a	n/a	n/a	n/a	n/a	"Trial"	n/a	n/a	n/a	n/a	"NULL"	"NULL"	"NULL"	"647"	"stimuli/VerticalHorizontal_-20.27143_-0.2250.png"	"arrowright"	n/a	"VerticalHorizontal"	"arrowright"	"1316"	"TRUE"	"VerticalHorizontal"	"-20.27143000"	"-0.225000000"	"1"	"32"
n/a	"html-keyboard-response"	"80"	"315553"	"0.0-4.0-2.0-0.14"	"khrdz6"	"600"	"1366"	"chrome"	"108.0.0"	"FALSE"	"Windows 10"	"60.66"	n/a	n/a	n/a	n/a	n/a	n/a	"fixation"	n/a	n/a	n/a	n/a	"NULL"	"NULL"	"NULL"	n/a	"<p style=\"color: black; font-size: 80px; padding-left: 33%; padding-right: 40%; padding-top: 12%; padding-bottom: 37%\">+</p>"	n/a	"1386"	n/a	n/a	n/a	n/a	n/a	n/a	n/a	n/a	n/a
n/a	"image-keyboard-response"	"81"	"316175"	"0.0-4.0-2.0-1.14"	"khrdz6"	"600"	"1366"	"chrome"	"108.0.0"	"FALSE"	"Windows 10"	"60.66"	n/a	n/a	n/a	n/a	n/a	n/a	"Trial"	n/a	n/a	n/a	n/a	"NULL"	"NULL"	"NULL"	"621"	"stimuli/VerticalHorizontal_3.30000_0.16217.png"	"arrowleft"	n/a	"VerticalHorizontal"	"arrowleft"	"1409"	"TRUE"	"VerticalHorizontal"	"3.3000000000"	"0.1621700000"	"1"	"33"
n/a	"html-keyboard-response"	"82"	"317590"	"0.0-4.0-2.0-0.15"	"khrdz6"	"600"	"1366"	"chrome"	"108.0.0"	"FALSE"	"Windows 10"	"60.66"	n/a	n/a	n/a	n/a	n/a	n/a	"fixation"	n/a	n/a	n/a	n/a	"NULL"	"NULL"	"NULL"	n/a	"<p style=\"color: black; font-size: 80px; padding-left: 12%; padding-right: 7%; padding-top: 25%; padding-bottom: 26%\">+</p>"	n/a	"1395"	n/a	n/a	n/a	n/a	n/a	n/a	n/a	n/a	n/a
n/a	"image-keyboard-response"	"83"	"318223"	"0.0-4.0-2.0-1.15"	"khrdz6"	"600"	"1366"	"chrome"	"108.0.0"	"FALSE"	"Windows 10"	"60.66"	n/a	n/a	n/a	n/a	n/a	n/a	"Trial"	n/a	n/a	n/a	n/a	"NULL"	"NULL"	"NULL"	"632"	"stimuli/VerticalHorizontal_-11.78571_0.10960.png"	"arrowleft"	n/a	"VerticalHorizontal"	"arrowleft"	"1415"	"TRUE"	"VerticalHorizontal"	"-11.78571000"	"0.1096000000"	"1"	"34"
n/a	"html-keyboard-response"	"84"	"319578"	"0.0-4.0-2.0-0.16"	"khrdz6"	"600"	"1366"	"chrome"	"108.0.0"	"FALSE"	"Windows 10"	"60.66"	n/a	n/a	n/a	n/a	n/a	n/a	"fixation"	n/a	n/a	n/a	n/a	"NULL"	"NULL"	"NULL"	n/a	"<p style=\"color: black; font-size: 80px; padding-left: 2%; padding-right: 34%; padding-top: 29%; padding-bottom: 45%\">+</p>"	n/a	"1341"	n/a	n/a	n/a	n/a	n/a	n/a	n/a	n/a	n/a
n/a	"image-keyboard-response"	"85"	"320234"	"0.0-4.0-2.0-1.16"	"khrdz6"	"600"	"1366"	"chrome"	"108.0.0"	"FALSE"	"Windows 10"	"60.66"	n/a	n/a	n/a	n/a	n/a	n/a	"Trial"	n/a	n/a	n/a	n/a	"NULL"	"NULL"	"NULL"	"655"	"stimuli/VerticalHorizontal_-3.3000_0.22500.png"	"arrowleft"	n/a	"VerticalHorizontal"	"arrowleft"	"1355"	"TRUE"	"VerticalHorizontal"	"-3.300000000"	"0.2250000000"	"1"	"35"
n/a	"html-keyboard-response"	"86"	"321311"	"0.0-4.0-2.0-0.17"	"khrdz6"	"600"	"1366"	"chrome"	"108.0.0"	"FALSE"	"Windows 10"	"60.66"	n/a	n/a	n/a	n/a	n/a	n/a	"fixation"	n/a	n/a	n/a	n/a	"NULL"	"NULL"	"NULL"	n/a	"<p style=\"color: black; font-size: 80px; padding-left: 15%; padding-right: 16%; padding-top: 1%; padding-bottom: 26%\">+</p>"	n/a	"1067"	n/a	n/a	n/a	n/a	n/a	n/a	n/a	n/a	n/a
n/a	"image-keyboard-response"	"87"	"321982"	"0.0-4.0-2.0-1.17"	"khrdz6"	"600"	"1366"	"chrome"	"108.0.0"	"FALSE"	"Windows 10"	"60.66"	n/a	n/a	n/a	n/a	n/a	n/a	"Trial"	n/a	n/a	n/a	n/a	"NULL"	"NULL"	"NULL"	"670"	"stimuli/VerticalHorizontal_28.75714_-0.1096.png"	"arrowright"	n/a	"VerticalHorizontal"	"arrowright"	"1077"	"TRUE"	"VerticalHorizontal"	"28.757140000"	"-0.109600000"	"1"	"36"
n/a	"html-keyboard-response"	"88"	"323223"	"0.0-4.0-2.0-0.18"	"khrdz6"	"600"	"1366"	"chrome"	"108.0.0"	"FALSE"	"Windows 10"	"60.66"	n/a	n/a	n/a	n/a	n/a	n/a	"fixation"	n/a	n/a	n/a	n/a	"NULL"	"NULL"	"NULL"	n/a	"<p style=\"color: black; font-size: 80px; padding-left: 49%; padding-right: 9%; padding-top: 48%; padding-bottom: 46%\">+</p>"	n/a	"1232"	n/a	n/a	n/a	n/a	n/a	n/a	n/a	n/a	n/a
n/a	"image-keyboard-response"	"89"	"323786"	"0.0-4.0-2.0-1.18"	"khrdz6"	"600"	"1366"	"chrome"	"108.0.0"	"FALSE"	"Windows 10"	"60.66"	n/a	n/a	n/a	n/a	n/a	n/a	"Trial"	n/a	n/a	n/a	n/a	"NULL"	"NULL"	"NULL"	"563"	"stimuli/VerticalHorizontal_-11.78571_-0.16217.png"	"arrowright"	n/a	"VerticalHorizontal"	"arrowright"	"1241"	"TRUE"	"VerticalHorizontal"	"-11.78571000"	"-0.162170000"	"1"	"37"
n/a	"html-keyboard-response"	"90"	"325018"	"0.0-4.0-2.0-0.19"	"khrdz6"	"600"	"1366"	"chrome"	"108.0.0"	"FALSE"	"Windows 10"	"60.66"	n/a	n/a	n/a	n/a	n/a	n/a	"fixation"	n/a	n/a	n/a	n/a	"NULL"	"NULL"	"NULL"	n/a	"<p style=\"color: black; font-size: 80px; padding-left: 33%; padding-right: 24%; padding-top: 4%; padding-bottom: 37%\">+</p>"	n/a	"1216"	n/a	n/a	n/a	n/a	n/a	n/a	n/a	n/a	n/a
n/a	"image-keyboard-response"	"91"	"325701"	"0.0-4.0-2.0-1.19"	"khrdz6"	"600"	"1366"	"chrome"	"108.0.0"	"FALSE"	"Windows 10"	"60.66"	n/a	n/a	n/a	n/a	n/a	n/a	"Trial"	n/a	n/a	n/a	n/a	"NULL"	"NULL"	"NULL"	"682"	"stimuli/VerticalHorizontal_20.27143_0.10960.png"	"arrowleft"	n/a	"VerticalHorizontal"	"arrowleft"	"1232"	"TRUE"	"VerticalHorizontal"	"20.271430000"	"0.1096000000"	"1"	"38"
n/a	"html-keyboard-response"	"92"	"327079"	"0.0-4.0-2.0-0.20"	"khrdz6"	"600"	"1366"	"chrome"	"108.0.0"	"FALSE"	"Windows 10"	"60.66"	n/a	n/a	n/a	n/a	n/a	n/a	"fixation"	n/a	n/a	n/a	n/a	"NULL"	"NULL"	"NULL"	n/a	"<p style=\"color: black; font-size: 80px; padding-left: 15%; padding-right: 29%; padding-top: 38%; padding-bottom: 15%\">+</p>"	n/a	"1366"	n/a	n/a	n/a	n/a	n/a	n/a	n/a	n/a	n/a
n/a	"image-keyboard-response"	"93"	"327802"	"0.0-4.0-2.0-1.20"	"khrdz6"	"600"	"1366"	"chrome"	"108.0.0"	"FALSE"	"Windows 10"	"60.66"	n/a	n/a	n/a	n/a	n/a	n/a	"Trial"	n/a	n/a	n/a	n/a	"NULL"	"NULL"	"NULL"	"722"	"stimuli/VerticalHorizontal_20.27143_0.16217.png"	"arrowright"	n/a	"VerticalHorizontal"	"arrowleft"	"1378"	"FALSE"	"VerticalHorizontal"	"20.271430000"	"0.1621700000"	"1"	"39"
n/a	"html-keyboard-response"	"94"	"329264"	"0.0-4.0-2.0-0.21"	"khrdz6"	"600"	"1366"	"chrome"	"108.0.0"	"FALSE"	"Windows 10"	"60.66"	n/a	n/a	n/a	n/a	n/a	n/a	"fixation"	n/a	n/a	n/a	n/a	"NULL"	"NULL"	"NULL"	n/a	"<p style=\"color: black; font-size: 80px; padding-left: 13%; padding-right: 23%; padding-top: 34%; padding-bottom: 48%\">+</p>"	n/a	"1447"	n/a	n/a	n/a	n/a	n/a	n/a	n/a	n/a	n/a
n/a	"image-keyboard-response"	"95"	"329893"	"0.0-4.0-2.0-1.21"	"khrdz6"	"600"	"1366"	"chrome"	"108.0.0"	"FALSE"	"Windows 10"	"60.66"	n/a	n/a	n/a	n/a	n/a	n/a	"Trial"	n/a	n/a	n/a	n/a	"NULL"	"NULL"	"NULL"	"628"	"stimuli/VerticalHorizontal_20.27143_-0.2250.png"	"arrowright"	n/a	"VerticalHorizontal"	"arrowright"	"1462"	"TRUE"	"VerticalHorizontal"	"20.271430000"	"-0.225000000"	"1"	"40"
n/a	"html-keyboard-response"	"96"	"331089"	"0.0-4.0-2.0-0.22"	"khrdz6"	"600"	"1366"	"chrome"	"108.0.0"	"FALSE"	"Windows 10"	"60.66"	n/a	n/a	n/a	n/a	n/a	n/a	"fixation"	n/a	n/a	n/a	n/a	"NULL"	"NULL"	"NULL"	n/a	"<p style=\"color: black; font-size: 80px; padding-left: 12%; padding-right: 50%; padding-top: 4%; padding-bottom: 25%\">+</p>"	n/a	"1179"	n/a	n/a	n/a	n/a	n/a	n/a	n/a	n/a	n/a
n/a	"image-keyboard-response"	"97"	"331750"	"0.0-4.0-2.0-1.22"	"khrdz6"	"600"	"1366"	"chrome"	"108.0.0"	"FALSE"	"Windows 10"	"60.66"	n/a	n/a	n/a	n/a	n/a	n/a	"Trial"	n/a	n/a	n/a	n/a	"NULL"	"NULL"	"NULL"	"660"	"stimuli/VerticalHorizontal_20.27143_-0.16217.png"	"arrowright"	n/a	"VerticalHorizontal"	"arrowright"	"1196"	"TRUE"	"VerticalHorizontal"	"20.271430000"	"-0.162170000"	"1"	"41"
n/a	"html-keyboard-response"	"98"	"332811"	"0.0-4.0-2.0-0.23"	"khrdz6"	"600"	"1366"	"chrome"	"108.0.0"	"FALSE"	"Windows 10"	"60.66"	n/a	n/a	n/a	n/a	n/a	n/a	"fixation"	n/a	n/a	n/a	n/a	"NULL"	"NULL"	"NULL"	n/a	"<p style=\"color: black; font-size: 80px; padding-left: 28%; padding-right: 18%; padding-top: 7%; padding-bottom: 48%\">+</p>"	n/a	"1052"	n/a	n/a	n/a	n/a	n/a	n/a	n/a	n/a	n/a
n/a	"image-keyboard-response"	"99"	"333491"	"0.0-4.0-2.0-1.23"	"khrdz6"	"600"	"1366"	"chrome"	"108.0.0"	"FALSE"	"Windows 10"	"60.66"	n/a	n/a	n/a	n/a	n/a	n/a	"Trial"	n/a	n/a	n/a	n/a	"NULL"	"NULL"	"NULL"	"680"	"stimuli/VerticalHorizontal_-11.78571_-0.2250.png"	"arrowright"	n/a	"VerticalHorizontal"	"arrowright"	"1061"	"TRUE"	"VerticalHorizontal"	"-11.78571000"	"-0.225000000"	"1"	"42"
n/a	"html-keyboard-response"	"100"	"334579"	"0.0-4.0-2.0-0.24"	"khrdz6"	"600"	"1366"	"chrome"	"108.0.0"	"FALSE"	"Windows 10"	"60.66"	n/a	n/a	n/a	n/a	n/a	n/a	"fixation"	n/a	n/a	n/a	n/a	"NULL"	"NULL"	"NULL"	n/a	"<p style=\"color: black; font-size: 80px; padding-left: 16%; padding-right: 13%; padding-top: 4%; padding-bottom: 36%\">+</p>"	n/a	"1079"	n/a	n/a	n/a	n/a	n/a	n/a	n/a	n/a	n/a
n/a	"image-keyboard-response"	"101"	"335305"	"0.0-4.0-2.0-1.24"	"khrdz6"	"600"	"1366"	"chrome"	"108.0.0"	"FALSE"	"Windows 10"	"60.66"	n/a	n/a	n/a	n/a	n/a	n/a	"Trial"	n/a	n/a	n/a	n/a	"NULL"	"NULL"	"NULL"	"719"	"stimuli/VerticalHorizontal_3.30000_0.10960.png"	"arrowleft"	n/a	"VerticalHorizontal"	"arrowleft"	"1088"	"TRUE"	"VerticalHorizontal"	"3.3000000000"	"0.1096000000"	"1"	"43"
n/a	"html-keyboard-response"	"102"	"336731"	"0.0-4.0-2.0-0.25"	"khrdz6"	"600"	"1366"	"chrome"	"108.0.0"	"FALSE"	"Windows 10"	"60.66"	n/a	n/a	n/a	n/a	n/a	n/a	"fixation"	n/a	n/a	n/a	n/a	"NULL"	"NULL"	"NULL"	n/a	"<p style=\"color: black; font-size: 80px; padding-left: 48%; padding-right: 23%; padding-top: 37%; padding-bottom: 28%\">+</p>"	n/a	"1405"	n/a	n/a	n/a	n/a	n/a	n/a	n/a	n/a	n/a
n/a	"image-keyboard-response"	"103"	"337482"	"0.0-4.0-2.0-1.25"	"khrdz6"	"600"	"1366"	"chrome"	"108.0.0"	"FALSE"	"Windows 10"	"60.66"	n/a	n/a	n/a	n/a	n/a	n/a	"Trial"	n/a	n/a	n/a	n/a	"NULL"	"NULL"	"NULL"	"751"	"stimuli/VerticalHorizontal_28.75714_0.10960.png"	"arrowright"	n/a	"VerticalHorizontal"	"arrowleft"	"1426"	"FALSE"	"VerticalHorizontal"	"28.757140000"	"0.1096000000"	"1"	"44"
n/a	"html-keyboard-response"	"104"	"338692"	"0.0-4.0-2.0-0.26"	"khrdz6"	"600"	"1366"	"chrome"	"108.0.0"	"FALSE"	"Windows 10"	"60.66"	n/a	n/a	n/a	n/a	n/a	n/a	"fixation"	n/a	n/a	n/a	n/a	"NULL"	"NULL"	"NULL"	n/a	"<p style=\"color: black; font-size: 80px; padding-left: 37%; padding-right: 50%; padding-top: 7%; padding-bottom: 3%\">+</p>"	n/a	"1207"	n/a	n/a	n/a	n/a	n/a	n/a	n/a	n/a	n/a
n/a	"image-keyboard-response"	"105"	"339355"	"0.0-4.0-2.0-1.26"	"khrdz6"	"600"	"1366"	"chrome"	"108.0.0"	"FALSE"	"Windows 10"	"60.66"	n/a	n/a	n/a	n/a	n/a	n/a	"Trial"	n/a	n/a	n/a	n/a	"NULL"	"NULL"	"NULL"	"661"	"stimuli/VerticalHorizontal_-11.78571_0.16217.png"	"arrowleft"	n/a	"VerticalHorizontal"	"arrowleft"	"1210"	"TRUE"	"VerticalHorizontal"	"-11.78571000"	"0.1621700000"	"1"	"45"
n/a	"html-keyboard-response"	"106"	"340613"	"0.0-4.0-2.0-0.27"	"khrdz6"	"600"	"1366"	"chrome"	"108.0.0"	"FALSE"	"Windows 10"	"60.66"	n/a	n/a	n/a	n/a	n/a	n/a	"fixation"	n/a	n/a	n/a	n/a	"NULL"	"NULL"	"NULL"	n/a	"<p style=\"color: black; font-size: 80px; padding-left: 44%; padding-right: 45%; padding-top: 18%; padding-bottom: 10%\">+</p>"	n/a	"1255"	n/a	n/a	n/a	n/a	n/a	n/a	n/a	n/a	n/a
n/a	"image-keyboard-response"	"107"	"341488"	"0.0-4.0-2.0-1.27"	"khrdz6"	"600"	"1366"	"chrome"	"108.0.0"	"FALSE"	"Windows 10"	"60.66"	n/a	n/a	n/a	n/a	n/a	n/a	"Trial"	n/a	n/a	n/a	n/a	"NULL"	"NULL"	"NULL"	"873"	"stimuli/VerticalHorizontal_20.27143_0.22500.png"	"arrowleft"	n/a	"VerticalHorizontal"	"arrowleft"	"1258"	"TRUE"	"VerticalHorizontal"	"20.271430000"	"0.2250000000"	"1"	"46"
n/a	"html-keyboard-response"	"108"	"342841"	"0.0-4.0-2.0-0.28"	"khrdz6"	"600"	"1366"	"chrome"	"108.0.0"	"FALSE"	"Windows 10"	"60.66"	n/a	n/a	n/a	n/a	n/a	n/a	"fixation"	n/a	n/a	n/a	n/a	"NULL"	"NULL"	"NULL"	n/a	"<p style=\"color: black; font-size: 80px; padding-left: 5%; padding-right: 44%; padding-top: 32%; padding-bottom: 47%\">+</p>"	n/a	"1336"	n/a	n/a	n/a	n/a	n/a	n/a	n/a	n/a	n/a
n/a	"image-keyboard-response"	"109"	"343449"	"0.0-4.0-2.0-1.28"	"khrdz6"	"600"	"1366"	"chrome"	"108.0.0"	"FALSE"	"Windows 10"	"60.66"	n/a	n/a	n/a	n/a	n/a	n/a	"Trial"	n/a	n/a	n/a	n/a	"NULL"	"NULL"	"NULL"	"607"	"stimuli/VerticalHorizontal_11.78571_-0.16217.png"	"arrowright"	n/a	"VerticalHorizontal"	"arrowright"	"1353"	"TRUE"	"VerticalHorizontal"	"11.785710000"	"-0.162170000"	"1"	"47"
n/a	"html-keyboard-response"	"110"	"344505"	"0.0-4.0-2.0-0.29"	"khrdz6"	"600"	"1366"	"chrome"	"108.0.0"	"FALSE"	"Windows 10"	"60.66"	n/a	n/a	n/a	n/a	n/a	n/a	"fixation"	n/a	n/a	n/a	n/a	"NULL"	"NULL"	"NULL"	n/a	"<p style=\"color: black; font-size: 80px; padding-left: 49%; padding-right: 48%; padding-top: 22%; padding-bottom: 31%\">+</p>"	n/a	"1037"	n/a	n/a	n/a	n/a	n/a	n/a	n/a	n/a	n/a
n/a	"image-keyboard-response"	"111"	"345213"	"0.0-4.0-2.0-1.29"	"khrdz6"	"600"	"1366"	"chrome"	"108.0.0"	"FALSE"	"Windows 10"	"60.66"	n/a	n/a	n/a	n/a	n/a	n/a	"Trial"	n/a	n/a	n/a	n/a	"NULL"	"NULL"	"NULL"	"707"	"stimuli/VerticalHorizontal_11.78571_0.10960.png"	"arrowleft"	n/a	"VerticalHorizontal"	"arrowleft"	"1056"	"TRUE"	"VerticalHorizontal"	"11.785710000"	"0.1096000000"	"1"	"48"
n/a	"html-keyboard-response"	"112"	"346534"	"0.0-4.0-2.0-0.30"	"khrdz6"	"600"	"1366"	"chrome"	"108.0.0"	"FALSE"	"Windows 10"	"60.66"	n/a	n/a	n/a	n/a	n/a	n/a	"fixation"	n/a	n/a	n/a	n/a	"NULL"	"NULL"	"NULL"	n/a	"<p style=\"color: black; font-size: 80px; padding-left: 44%; padding-right: 37%; padding-top: 30%; padding-bottom: 45%\">+</p>"	n/a	"1307"	n/a	n/a	n/a	n/a	n/a	n/a	n/a	n/a	n/a
n/a	"image-keyboard-response"	"113"	"347426"	"0.0-4.0-2.0-1.30"	"khrdz6"	"600"	"1366"	"chrome"	"108.0.0"	"FALSE"	"Windows 10"	"60.66"	n/a	n/a	n/a	n/a	n/a	n/a	"Trial"	n/a	n/a	n/a	n/a	"NULL"	"NULL"	"NULL"	"891"	"stimuli/VerticalHorizontal_-3.3000_0.10960.png"	"arrowright"	n/a	"VerticalHorizontal"	"arrowleft"	"1321"	"FALSE"	"VerticalHorizontal"	"-3.300000000"	"0.1096000000"	"1"	"49"
n/a	"html-keyboard-response"	"114"	"348503"	"0.0-4.0-2.0-0.31"	"khrdz6"	"600"	"1366"	"chrome"	"108.0.0"	"FALSE"	"Windows 10"	"60.66"	n/a	n/a	n/a	n/a	n/a	n/a	"fixation"	n/a	n/a	n/a	n/a	"NULL"	"NULL"	"NULL"	n/a	"<p style=\"color: black; font-size: 80px; padding-left: 5%; padding-right: 1%; padding-top: 7%; padding-bottom: 46%\">+</p>"	n/a	"1072"	n/a	n/a	n/a	n/a	n/a	n/a	n/a	n/a	n/a
n/a	"image-keyboard-response"	"115"	"349174"	"0.0-4.0-2.0-1.31"	"khrdz6"	"600"	"1366"	"chrome"	"108.0.0"	"FALSE"	"Windows 10"	"60.66"	n/a	n/a	n/a	n/a	n/a	n/a	"Trial"	n/a	n/a	n/a	n/a	"NULL"	"NULL"	"NULL"	"670"	"stimuli/VerticalHorizontal_28.75714_0.06730.png"	"arrowright"	n/a	"VerticalHorizontal"	"arrowleft"	"1077"	"FALSE"	"VerticalHorizontal"	"28.757140000"	"0.0673000000"	"1"	"50"
n/a	"html-keyboard-response"	"116"	"350302"	"0.0-4.0-2.0-0.32"	"khrdz6"	"600"	"1366"	"chrome"	"108.0.0"	"FALSE"	"Windows 10"	"60.66"	n/a	n/a	n/a	n/a	n/a	n/a	"fixation"	n/a	n/a	n/a	n/a	"NULL"	"NULL"	"NULL"	n/a	"<p style=\"color: black; font-size: 80px; padding-left: 25%; padding-right: 17%; padding-top: 39%; padding-bottom: 6%\">+</p>"	n/a	"1119"	n/a	n/a	n/a	n/a	n/a	n/a	n/a	n/a	n/a
n/a	"image-keyboard-response"	"117"	"350848"	"0.0-4.0-2.0-1.32"	"khrdz6"	"600"	"1366"	"chrome"	"108.0.0"	"FALSE"	"Windows 10"	"60.66"	n/a	n/a	n/a	n/a	n/a	n/a	"Trial"	n/a	n/a	n/a	n/a	"NULL"	"NULL"	"NULL"	"542"	"stimuli/VerticalHorizontal_-3.3000_-0.16217.png"	"arrowright"	n/a	"VerticalHorizontal"	"arrowright"	"1128"	"TRUE"	"VerticalHorizontal"	"-3.300000000"	"-0.162170000"	"1"	"51"
n/a	"html-keyboard-response"	"118"	"351969"	"0.0-4.0-2.0-0.33"	"khrdz6"	"600"	"1366"	"chrome"	"108.0.0"	"FALSE"	"Windows 10"	"60.66"	n/a	n/a	n/a	n/a	n/a	n/a	"fixation"	n/a	n/a	n/a	n/a	"NULL"	"NULL"	"NULL"	n/a	"<p style=\"color: black; font-size: 80px; padding-left: 2%; padding-right: 5%; padding-top: 16%; padding-bottom: 33%\">+</p>"	n/a	"1105"	n/a	n/a	n/a	n/a	n/a	n/a	n/a	n/a	n/a
n/a	"image-keyboard-response"	"119"	"352579"	"0.0-4.0-2.0-1.33"	"khrdz6"	"600"	"1366"	"chrome"	"108.0.0"	"FALSE"	"Windows 10"	"60.66"	n/a	n/a	n/a	n/a	n/a	n/a	"Trial"	n/a	n/a	n/a	n/a	"NULL"	"NULL"	"NULL"	"608"	"stimuli/VerticalHorizontal_-20.27143_-0.1096.png"	"arrowright"	n/a	"VerticalHorizontal"	"arrowright"	"1121"	"TRUE"	"VerticalHorizontal"	"-20.27143000"	"-0.109600000"	"1"	"52"
n/a	"html-keyboard-response"	"120"	"354055"	"0.0-4.0-2.0-0.34"	"khrdz6"	"600"	"1366"	"chrome"	"108.0.0"	"FALSE"	"Windows 10"	"60.66"	n/a	n/a	n/a	n/a	n/a	n/a	"fixation"	n/a	n/a	n/a	n/a	"NULL"	"NULL"	"NULL"	n/a	"<p style=\"color: black; font-size: 80px; padding-left: 32%; padding-right: 43%; padding-top: 35%; padding-bottom: 28%\">+</p>"	n/a	"1463"	n/a	n/a	n/a	n/a	n/a	n/a	n/a	n/a	n/a
n/a	"image-keyboard-response"	"121"	"354644"	"0.0-4.0-2.0-1.34"	"khrdz6"	"600"	"1366"	"chrome"	"108.0.0"	"FALSE"	"Windows 10"	"60.66"	n/a	n/a	n/a	n/a	n/a	n/a	"Trial"	n/a	n/a	n/a	n/a	"NULL"	"NULL"	"NULL"	"588"	"stimuli/VerticalHorizontal_-28.75714_-0.16217.png"	"arrowright"	n/a	"VerticalHorizontal"	"arrowright"	"1476"	"TRUE"	"VerticalHorizontal"	"-28.75714000"	"-0.162170000"	"1"	"53"
n/a	"html-keyboard-response"	"122"	"355929"	"0.0-4.0-2.0-0.35"	"khrdz6"	"600"	"1366"	"chrome"	"108.0.0"	"FALSE"	"Windows 10"	"60.66"	n/a	n/a	n/a	n/a	n/a	n/a	"fixation"	n/a	n/a	n/a	n/a	"NULL"	"NULL"	"NULL"	n/a	"<p style=\"color: black; font-size: 80px; padding-left: 19%; padding-right: 43%; padding-top: 48%; padding-bottom: 13%\">+</p>"	n/a	"1274"	n/a	n/a	n/a	n/a	n/a	n/a	n/a	n/a	n/a
n/a	"image-keyboard-response"	"123"	"356626"	"0.0-4.0-2.0-1.35"	"khrdz6"	"600"	"1366"	"chrome"	"108.0.0"	"FALSE"	"Windows 10"	"60.66"	n/a	n/a	n/a	n/a	n/a	n/a	"Trial"	n/a	n/a	n/a	n/a	"NULL"	"NULL"	"NULL"	"697"	"stimuli/VerticalHorizontal_-20.27143_0.10960.png"	"arrowleft"	n/a	"VerticalHorizontal"	"arrowleft"	"1285"	"TRUE"	"VerticalHorizontal"	"-20.27143000"	"0.1096000000"	"1"	"54"
n/a	"html-keyboard-response"	"124"	"358093"	"0.0-4.0-2.0-0.36"	"khrdz6"	"600"	"1366"	"chrome"	"108.0.0"	"FALSE"	"Windows 10"	"60.66"	n/a	n/a	n/a	n/a	n/a	n/a	"fixation"	n/a	n/a	n/a	n/a	"NULL"	"NULL"	"NULL"	n/a	"<p style=\"color: black; font-size: 80px; padding-left: 6%; padding-right: 20%; padding-top: 48%; padding-bottom: 38%\">+</p>"	n/a	"1456"	n/a	n/a	n/a	n/a	n/a	n/a	n/a	n/a	n/a
n/a	"image-keyboard-response"	"125"	"358714"	"0.0-4.0-2.0-1.36"	"khrdz6"	"600"	"1366"	"chrome"	"108.0.0"	"FALSE"	"Windows 10"	"60.66"	n/a	n/a	n/a	n/a	n/a	n/a	"Trial"	n/a	n/a	n/a	n/a	"NULL"	"NULL"	"NULL"	"620"	"stimuli/VerticalHorizontal_-28.75714_-0.0673.png"	"arrowright"	n/a	"VerticalHorizontal"	"arrowright"	"1467"	"TRUE"	"VerticalHorizontal"	"-28.75714000"	"-0.067300000"	"1"	"55"
n/a	"html-keyboard-response"	"126"	"359862"	"0.0-4.0-2.0-0.37"	"khrdz6"	"600"	"1366"	"chrome"	"108.0.0"	"FALSE"	"Windows 10"	"60.66"	n/a	n/a	n/a	n/a	n/a	n/a	"fixation"	n/a	n/a	n/a	n/a	"NULL"	"NULL"	"NULL"	n/a	"<p style=\"color: black; font-size: 80px; padding-left: 48%; padding-right: 15%; padding-top: 15%; padding-bottom: 9%\">+</p>"	n/a	"1133"	n/a	n/a	n/a	n/a	n/a	n/a	n/a	n/a	n/a
n/a	"image-keyboard-response"	"127"	"360528"	"0.0-4.0-2.0-1.37"	"khrdz6"	"600"	"1366"	"chrome"	"108.0.0"	"FALSE"	"Windows 10"	"60.66"	n/a	n/a	n/a	n/a	n/a	n/a	"Trial"	n/a	n/a	n/a	n/a	"NULL"	"NULL"	"NULL"	"664"	"stimuli/VerticalHorizontal_-20.27143_0.22500.png"	"arrowleft"	n/a	"VerticalHorizontal"	"arrowleft"	"1148"	"TRUE"	"VerticalHorizontal"	"-20.27143000"	"0.2250000000"	"1"	"56"
n/a	"html-keyboard-response"	"128"	"361770"	"0.0-4.0-2.0-0.38"	"khrdz6"	"600"	"1366"	"chrome"	"108.0.0"	"FALSE"	"Windows 10"	"60.66"	n/a	n/a	n/a	n/a	n/a	n/a	"fixation"	n/a	n/a	n/a	n/a	"NULL"	"NULL"	"NULL"	n/a	"<p style=\"color: black; font-size: 80px; padding-left: 14%; padding-right: 47%; padding-top: 35%; padding-bottom: 43%\">+</p>"	n/a	"1222"	n/a	n/a	n/a	n/a	n/a	n/a	n/a	n/a	n/a
n/a	"image-keyboard-response"	"129"	"362419"	"0.0-4.0-2.0-1.38"	"khrdz6"	"600"	"1366"	"chrome"	"108.0.0"	"FALSE"	"Windows 10"	"60.66"	n/a	n/a	n/a	n/a	n/a	n/a	"Trial"	n/a	n/a	n/a	n/a	"NULL"	"NULL"	"NULL"	"648"	"stimuli/VerticalHorizontal_28.75714_-0.2250.png"	"arrowright"	n/a	"VerticalHorizontal"	"arrowright"	"1242"	"TRUE"	"VerticalHorizontal"	"28.757140000"	"-0.225000000"	"1"	"57"
n/a	"html-keyboard-response"	"130"	"363795"	"0.0-4.0-2.0-0.39"	"khrdz6"	"600"	"1366"	"chrome"	"108.0.0"	"FALSE"	"Windows 10"	"60.66"	n/a	n/a	n/a	n/a	n/a	n/a	"fixation"	n/a	n/a	n/a	n/a	"NULL"	"NULL"	"NULL"	n/a	"<p style=\"color: black; font-size: 80px; padding-left: 1%; padding-right: 45%; padding-top: 9%; padding-bottom: 38%\">+</p>"	n/a	"1373"	n/a	n/a	n/a	n/a	n/a	n/a	n/a	n/a	n/a
n/a	"image-keyboard-response"	"131"	"364566"	"0.0-4.0-2.0-1.39"	"khrdz6"	"600"	"1366"	"chrome"	"108.0.0"	"FALSE"	"Windows 10"	"60.66"	n/a	n/a	n/a	n/a	n/a	n/a	"Trial"	n/a	n/a	n/a	n/a	"NULL"	"NULL"	"NULL"	"770"	"stimuli/VerticalHorizontal_-3.3000_0.06730.png"	"arrowright"	n/a	"VerticalHorizontal"	"arrowleft"	"1376"	"FALSE"	"VerticalHorizontal"	"-3.300000000"	"0.0673000000"	"1"	"58"
n/a	"html-keyboard-response"	"132"	"365659"	"0.0-4.0-2.0-0.40"	"khrdz6"	"600"	"1366"	"chrome"	"108.0.0"	"FALSE"	"Windows 10"	"60.66"	n/a	n/a	n/a	n/a	n/a	n/a	"fixation"	n/a	n/a	n/a	n/a	"NULL"	"NULL"	"NULL"	n/a	"<p style=\"color: black; font-size: 80px; padding-left: 42%; padding-right: 1%; padding-top: 39%; padding-bottom: 50%\">+</p>"	n/a	"1081"	n/a	n/a	n/a	n/a	n/a	n/a	n/a	n/a	n/a
n/a	"image-keyboard-response"	"133"	"366458"	"0.0-4.0-2.0-1.40"	"khrdz6"	"600"	"1366"	"chrome"	"108.0.0"	"FALSE"	"Windows 10"	"60.66"	n/a	n/a	n/a	n/a	n/a	n/a	"Trial"	n/a	n/a	n/a	n/a	"NULL"	"NULL"	"NULL"	"799"	"stimuli/VerticalHorizontal_11.78571_-0.0673.png"	"arrowright"	n/a	"VerticalHorizontal"	"arrowright"	"1093"	"TRUE"	"VerticalHorizontal"	"11.785710000"	"-0.067300000"	"1"	"59"
n/a	"html-keyboard-response"	"134"	"367740"	"0.0-4.0-2.0-0.41"	"khrdz6"	"600"	"1366"	"chrome"	"108.0.0"	"FALSE"	"Windows 10"	"60.66"	n/a	n/a	n/a	n/a	n/a	n/a	"fixation"	n/a	n/a	n/a	n/a	"NULL"	"NULL"	"NULL"	n/a	"<p style=\"color: black; font-size: 80px; padding-left: 25%; padding-right: 9%; padding-top: 33%; padding-bottom: 36%\">+</p>"	n/a	"1271"	n/a	n/a	n/a	n/a	n/a	n/a	n/a	n/a	n/a
n/a	"image-keyboard-response"	"135"	"368461"	"0.0-4.0-2.0-1.41"	"khrdz6"	"600"	"1366"	"chrome"	"108.0.0"	"FALSE"	"Windows 10"	"60.66"	n/a	n/a	n/a	n/a	n/a	n/a	"Trial"	n/a	n/a	n/a	n/a	"NULL"	"NULL"	"NULL"	"719"	"stimuli/VerticalHorizontal_28.75714_-0.0673.png"	"arrowleft"	n/a	"VerticalHorizontal"	"arrowright"	"1282"	"FALSE"	"VerticalHorizontal"	"28.757140000"	"-0.067300000"	"1"	"60"
n/a	"html-keyboard-response"	"136"	"369534"	"0.0-4.0-2.0-0.42"	"khrdz6"	"600"	"1366"	"chrome"	"108.0.0"	"FALSE"	"Windows 10"	"60.66"	n/a	n/a	n/a	n/a	n/a	n/a	"fixation"	n/a	n/a	n/a	n/a	"NULL"	"NULL"	"NULL"	n/a	"<p style=\"color: black; font-size: 80px; padding-left: 25%; padding-right: 45%; padding-top: 29%; padding-bottom: 37%\">+</p>"	n/a	"1063"	n/a	n/a	n/a	n/a	n/a	n/a	n/a	n/a	n/a
n/a	"image-keyboard-response"	"137"	"370290"	"0.0-4.0-2.0-1.42"	"khrdz6"	"600"	"1366"	"chrome"	"108.0.0"	"FALSE"	"Windows 10"	"60.66"	n/a	n/a	n/a	n/a	n/a	n/a	"Trial"	n/a	n/a	n/a	n/a	"NULL"	"NULL"	"NULL"	"753"	"stimuli/VerticalHorizontal_28.75714_0.22500.png"	"arrowleft"	n/a	"VerticalHorizontal"	"arrowleft"	"1073"	"TRUE"	"VerticalHorizontal"	"28.757140000"	"0.2250000000"	"1"	"61"
n/a	"html-keyboard-response"	"138"	"371409"	"0.0-4.0-2.0-0.43"	"khrdz6"	"600"	"1366"	"chrome"	"108.0.0"	"FALSE"	"Windows 10"	"60.66"	n/a	n/a	n/a	n/a	n/a	n/a	"fixation"	n/a	n/a	n/a	n/a	"NULL"	"NULL"	"NULL"	n/a	"<p style=\"color: black; font-size: 80px; padding-left: 2%; padding-right: 32%; padding-top: 50%; padding-bottom: 45%\">+</p>"	n/a	"1108"	n/a	n/a	n/a	n/a	n/a	n/a	n/a	n/a	n/a
n/a	"image-keyboard-response"	"139"	"372040"	"0.0-4.0-2.0-1.43"	"khrdz6"	"600"	"1366"	"chrome"	"108.0.0"	"FALSE"	"Windows 10"	"60.66"	n/a	n/a	n/a	n/a	n/a	n/a	"Trial"	n/a	n/a	n/a	n/a	"NULL"	"NULL"	"NULL"	"628"	"stimuli/VerticalHorizontal_-28.75714_-0.1096.png"	"arrowright"	n/a	"VerticalHorizontal"	"arrowright"	"1119"	"TRUE"	"VerticalHorizontal"	"-28.75714000"	"-0.109600000"	"1"	"62"
n/a	"html-keyboard-response"	"140"	"373335"	"0.0-4.0-2.0-0.44"	"khrdz6"	"600"	"1366"	"chrome"	"108.0.0"	"FALSE"	"Windows 10"	"60.66"	n/a	n/a	n/a	n/a	n/a	n/a	"fixation"	n/a	n/a	n/a	n/a	"NULL"	"NULL"	"NULL"	n/a	"<p style=\"color: black; font-size: 80px; padding-left: 44%; padding-right: 24%; padding-top: 12%; padding-bottom: 21%\">+</p>"	n/a	"1280"	n/a	n/a	n/a	n/a	n/a	n/a	n/a	n/a	n/a
n/a	"image-keyboard-response"	"141"	"373970"	"0.0-4.0-2.0-1.44"	"khrdz6"	"600"	"1366"	"chrome"	"108.0.0"	"FALSE"	"Windows 10"	"60.66"	n/a	n/a	n/a	n/a	n/a	n/a	"Trial"	n/a	n/a	n/a	n/a	"NULL"	"NULL"	"NULL"	"634"	"stimuli/VerticalHorizontal_3.30000_-0.1096.png"	"arrowright"	n/a	"VerticalHorizontal"	"arrowright"	"1295"	"TRUE"	"VerticalHorizontal"	"3.3000000000"	"-0.109600000"	"1"	"63"
n/a	"html-keyboard-response"	"142"	"375331"	"0.0-4.0-2.0-0.45"	"khrdz6"	"600"	"1366"	"chrome"	"108.0.0"	"FALSE"	"Windows 10"	"60.66"	n/a	n/a	n/a	n/a	n/a	n/a	"fixation"	n/a	n/a	n/a	n/a	"NULL"	"NULL"	"NULL"	n/a	"<p style=\"color: black; font-size: 80px; padding-left: 11%; padding-right: 8%; padding-top: 11%; padding-bottom: 42%\">+</p>"	n/a	"1348"	n/a	n/a	n/a	n/a	n/a	n/a	n/a	n/a	n/a
n/a	"image-keyboard-response"	"143"	"376092"	"0.0-4.0-2.0-1.45"	"khrdz6"	"600"	"1366"	"chrome"	"108.0.0"	"FALSE"	"Windows 10"	"60.66"	n/a	n/a	n/a	n/a	n/a	n/a	"Trial"	n/a	n/a	n/a	n/a	"NULL"	"NULL"	"NULL"	"761"	"stimuli/VerticalHorizontal_-3.3000_0.16217.png"	"arrowright"	n/a	"VerticalHorizontal"	"arrowleft"	"1361"	"FALSE"	"VerticalHorizontal"	"-3.300000000"	"0.1621700000"	"1"	"64"
n/a	"html-keyboard-response"	"144"	"377347"	"0.0-4.0-2.0-0.46"	"khrdz6"	"600"	"1366"	"chrome"	"108.0.0"	"FALSE"	"Windows 10"	"60.66"	n/a	n/a	n/a	n/a	n/a	n/a	"fixation"	n/a	n/a	n/a	n/a	"NULL"	"NULL"	"NULL"	n/a	"<p style=\"color: black; font-size: 80px; padding-left: 30%; padding-right: 14%; padding-top: 8%; padding-bottom: 38%\">+</p>"	n/a	"1241"	n/a	n/a	n/a	n/a	n/a	n/a	n/a	n/a	n/a
n/a	"image-keyboard-response"	"145"	"378140"	"0.0-4.0-2.0-1.46"	"khrdz6"	"600"	"1366"	"chrome"	"108.0.0"	"FALSE"	"Windows 10"	"60.66"	n/a	n/a	n/a	n/a	n/a	n/a	"Trial"	n/a	n/a	n/a	n/a	"NULL"	"NULL"	"NULL"	"792"	"stimuli/VerticalHorizontal_28.75714_-0.16217.png"	"arrowright"	n/a	"VerticalHorizontal"	"arrowright"	"1255"	"TRUE"	"VerticalHorizontal"	"28.757140000"	"-0.162170000"	"1"	"65"
n/a	"html-keyboard-response"	"146"	"379487"	"0.0-4.0-2.0-0.47"	"khrdz6"	"600"	"1366"	"chrome"	"108.0.0"	"FALSE"	"Windows 10"	"60.66"	n/a	n/a	n/a	n/a	n/a	n/a	"fixation"	n/a	n/a	n/a	n/a	"NULL"	"NULL"	"NULL"	n/a	"<p style=\"color: black; font-size: 80px; padding-left: 49%; padding-right: 31%; padding-top: 26%; padding-bottom: 28%\">+</p>"	n/a	"1336"	n/a	n/a	n/a	n/a	n/a	n/a	n/a	n/a	n/a
n/a	"image-keyboard-response"	"147"	"380299"	"0.0-4.0-2.0-1.47"	"khrdz6"	"600"	"1366"	"chrome"	"108.0.0"	"FALSE"	"Windows 10"	"60.66"	n/a	n/a	n/a	n/a	n/a	n/a	"Trial"	n/a	n/a	n/a	n/a	"NULL"	"NULL"	"NULL"	"810"	"stimuli/VerticalHorizontal_-11.78571_-0.0673.png"	"arrowright"	n/a	"VerticalHorizontal"	"arrowright"	"1347"	"TRUE"	"VerticalHorizontal"	"-11.78571000"	"-0.067300000"	"1"	"66"
n/a	"html-keyboard-response"	"148"	"381689"	"0.0-4.0-2.0-0.48"	"khrdz6"	"600"	"1366"	"chrome"	"108.0.0"	"FALSE"	"Windows 10"	"60.66"	n/a	n/a	n/a	n/a	n/a	n/a	"fixation"	n/a	n/a	n/a	n/a	"NULL"	"NULL"	"NULL"	n/a	"<p style=\"color: black; font-size: 80px; padding-left: 32%; padding-right: 41%; padding-top: 38%; padding-bottom: 1%\">+</p>"	n/a	"1378"	n/a	n/a	n/a	n/a	n/a	n/a	n/a	n/a	n/a
n/a	"image-keyboard-response"	"149"	"382313"	"0.0-4.0-2.0-1.48"	"khrdz6"	"600"	"1366"	"chrome"	"108.0.0"	"FALSE"	"Windows 10"	"60.66"	n/a	n/a	n/a	n/a	n/a	n/a	"Trial"	n/a	n/a	n/a	n/a	"NULL"	"NULL"	"NULL"	"624"	"stimuli/VerticalHorizontal_3.30000_-0.0673.png"	"arrowright"	n/a	"VerticalHorizontal"	"arrowright"	"1390"	"TRUE"	"VerticalHorizontal"	"3.3000000000"	"-0.067300000"	"1"	"67"
n/a	"html-keyboard-response"	"150"	"383454"	"0.0-4.0-2.0-0.49"	"khrdz6"	"600"	"1366"	"chrome"	"108.0.0"	"FALSE"	"Windows 10"	"60.66"	n/a	n/a	n/a	n/a	n/a	n/a	"fixation"	n/a	n/a	n/a	n/a	"NULL"	"NULL"	"NULL"	n/a	"<p style=\"color: black; font-size: 80px; padding-left: 17%; padding-right: 31%; padding-top: 49%; padding-bottom: 14%\">+</p>"	n/a	"1133"	n/a	n/a	n/a	n/a	n/a	n/a	n/a	n/a	n/a
n/a	"image-keyboard-response"	"151"	"384060"	"0.0-4.0-2.0-1.49"	"khrdz6"	"600"	"1366"	"chrome"	"108.0.0"	"FALSE"	"Windows 10"	"60.66"	n/a	n/a	n/a	n/a	n/a	n/a	"Trial"	n/a	n/a	n/a	n/a	"NULL"	"NULL"	"NULL"	"604"	"stimuli/VerticalHorizontal_-28.75714_0.22500.png"	"arrowleft"	n/a	"VerticalHorizontal"	"arrowleft"	"1141"	"TRUE"	"VerticalHorizontal"	"-28.75714000"	"0.2250000000"	"1"	"68"
n/a	"html-keyboard-response"	"152"	"385219"	"0.0-4.0-2.0-0.50"	"khrdz6"	"600"	"1366"	"chrome"	"108.0.0"	"FALSE"	"Windows 10"	"60.66"	n/a	n/a	n/a	n/a	n/a	n/a	"fixation"	n/a	n/a	n/a	n/a	"NULL"	"NULL"	"NULL"	n/a	"<p style=\"color: black; font-size: 80px; padding-left: 50%; padding-right: 25%; padding-top: 28%; padding-bottom: 3%\">+</p>"	n/a	"1147"	n/a	n/a	n/a	n/a	n/a	n/a	n/a	n/a	n/a
n/a	"image-keyboard-response"	"153"	"386107"	"0.0-4.0-2.0-1.50"	"khrdz6"	"600"	"1366"	"chrome"	"108.0.0"	"FALSE"	"Windows 10"	"60.66"	n/a	n/a	n/a	n/a	n/a	n/a	"Trial"	n/a	n/a	n/a	n/a	"NULL"	"NULL"	"NULL"	"886"	"stimuli/VerticalHorizontal_20.27143_-0.1096.png"	"arrowright"	n/a	"VerticalHorizontal"	"arrowright"	"1159"	"TRUE"	"VerticalHorizontal"	"20.271430000"	"-0.109600000"	"1"	"69"
n/a	"html-keyboard-response"	"154"	"387332"	"0.0-4.0-2.0-0.51"	"khrdz6"	"600"	"1366"	"chrome"	"108.0.0"	"FALSE"	"Windows 10"	"60.66"	n/a	n/a	n/a	n/a	n/a	n/a	"fixation"	n/a	n/a	n/a	n/a	"NULL"	"NULL"	"NULL"	n/a	"<p style=\"color: black; font-size: 80px; padding-left: 18%; padding-right: 11%; padding-top: 24%; padding-bottom: 23%\">+</p>"	n/a	"1223"	n/a	n/a	n/a	n/a	n/a	n/a	n/a	n/a	n/a
n/a	"image-keyboard-response"	"155"	"388026"	"0.0-4.0-2.0-1.51"	"khrdz6"	"600"	"1366"	"chrome"	"108.0.0"	"FALSE"	"Windows 10"	"60.66"	n/a	n/a	n/a	n/a	n/a	n/a	"Trial"	n/a	n/a	n/a	n/a	"NULL"	"NULL"	"NULL"	"692"	"stimuli/VerticalHorizontal_11.78571_0.22500.png"	"arrowleft"	n/a	"VerticalHorizontal"	"arrowleft"	"1225"	"TRUE"	"VerticalHorizontal"	"11.785710000"	"0.2250000000"	"1"	"70"
n/a	"html-keyboard-response"	"156"	"389112"	"0.0-4.0-2.0-0.52"	"khrdz6"	"600"	"1366"	"chrome"	"108.0.0"	"FALSE"	"Windows 10"	"60.66"	n/a	n/a	n/a	n/a	n/a	n/a	"fixation"	n/a	n/a	n/a	n/a	"NULL"	"NULL"	"NULL"	n/a	"<p style=\"color: black; font-size: 80px; padding-left: 35%; padding-right: 3%; padding-top: 2%; padding-bottom: 17%\">+</p>"	n/a	"1071"	n/a	n/a	n/a	n/a	n/a	n/a	n/a	n/a	n/a
n/a	"image-keyboard-response"	"157"	"389875"	"0.0-4.0-2.0-1.52"	"khrdz6"	"600"	"1366"	"chrome"	"108.0.0"	"FALSE"	"Windows 10"	"60.66"	n/a	n/a	n/a	n/a	n/a	n/a	"Trial"	n/a	n/a	n/a	n/a	"NULL"	"NULL"	"NULL"	"762"	"stimuli/VerticalHorizontal_-20.27143_0.16217.png"	"arrowleft"	n/a	"VerticalHorizontal"	"arrowleft"	"1086"	"TRUE"	"VerticalHorizontal"	"-20.27143000"	"0.1621700000"	"1"	"71"
n/a	"html-keyboard-response"	"158"	"391371"	"0.0-4.0-2.0-0.53"	"khrdz6"	"600"	"1366"	"chrome"	"108.0.0"	"FALSE"	"Windows 10"	"60.66"	n/a	n/a	n/a	n/a	n/a	n/a	"fixation"	n/a	n/a	n/a	n/a	"NULL"	"NULL"	"NULL"	n/a	"<p style=\"color: black; font-size: 80px; padding-left: 45%; padding-right: 22%; padding-top: 49%; padding-bottom: 12%\">+</p>"	n/a	"1482"	n/a	n/a	n/a	n/a	n/a	n/a	n/a	n/a	n/a
n/a	"image-keyboard-response"	"159"	"392159"	"0.0-4.0-2.0-1.53"	"khrdz6"	"600"	"1366"	"chrome"	"108.0.0"	"FALSE"	"Windows 10"	"60.66"	n/a	n/a	n/a	n/a	n/a	n/a	"Trial"	n/a	n/a	n/a	n/a	"NULL"	"NULL"	"NULL"	"788"	"stimuli/VerticalHorizontal_3.30000_0.06730.png"	"arrowleft"	n/a	"VerticalHorizontal"	"arrowleft"	"1496"	"TRUE"	"VerticalHorizontal"	"3.3000000000"	"0.0673000000"	"1"	"72"
n/a	"html-keyboard-response"	"160"	"393566"	"0.0-4.0-2.0-0.54"	"khrdz6"	"600"	"1366"	"chrome"	"108.0.0"	"FALSE"	"Windows 10"	"60.66"	n/a	n/a	n/a	n/a	n/a	n/a	"fixation"	n/a	n/a	n/a	n/a	"NULL"	"NULL"	"NULL"	n/a	"<p style=\"color: black; font-size: 80px; padding-left: 8%; padding-right: 35%; padding-top: 8%; padding-bottom: 41%\">+</p>"	n/a	"1398"	n/a	n/a	n/a	n/a	n/a	n/a	n/a	n/a	n/a
n/a	"image-keyboard-response"	"161"	"394178"	"0.0-4.0-2.0-1.54"	"khrdz6"	"600"	"1366"	"chrome"	"108.0.0"	"FALSE"	"Windows 10"	"60.66"	n/a	n/a	n/a	n/a	n/a	n/a	"Trial"	n/a	n/a	n/a	n/a	"NULL"	"NULL"	"NULL"	"611"	"stimuli/VerticalHorizontal_-11.78571_-0.1096.png"	"arrowright"	n/a	"VerticalHorizontal"	"arrowright"	"1407"	"TRUE"	"VerticalHorizontal"	"-11.78571000"	"-0.109600000"	"1"	"73"
n/a	"html-keyboard-response"	"162"	"395379"	"0.0-4.0-2.0-0.55"	"khrdz6"	"600"	"1366"	"chrome"	"108.0.0"	"FALSE"	"Windows 10"	"60.66"	n/a	n/a	n/a	n/a	n/a	n/a	"fixation"	n/a	n/a	n/a	n/a	"NULL"	"NULL"	"NULL"	n/a	"<p style=\"color: black; font-size: 80px; padding-left: 28%; padding-right: 8%; padding-top: 30%; padding-bottom: 36%\">+</p>"	n/a	"1189"	n/a	n/a	n/a	n/a	n/a	n/a	n/a	n/a	n/a
n/a	"image-keyboard-response"	"163"	"396050"	"0.0-4.0-2.0-1.55"	"khrdz6"	"600"	"1366"	"chrome"	"108.0.0"	"FALSE"	"Windows 10"	"60.66"	n/a	n/a	n/a	n/a	n/a	n/a	"Trial"	n/a	n/a	n/a	n/a	"NULL"	"NULL"	"NULL"	"670"	"stimuli/VerticalHorizontal_20.27143_0.06730.png"	"arrowright"	n/a	"VerticalHorizontal"	"arrowleft"	"1201"	"FALSE"	"VerticalHorizontal"	"20.271430000"	"0.0673000000"	"1"	"74"
n/a	"html-keyboard-response"	"164"	"397413"	"0.0-4.0-2.0-0.56"	"khrdz6"	"600"	"1366"	"chrome"	"108.0.0"	"FALSE"	"Windows 10"	"60.66"	n/a	n/a	n/a	n/a	n/a	n/a	"fixation"	n/a	n/a	n/a	n/a	"NULL"	"NULL"	"NULL"	n/a	"<p style=\"color: black; font-size: 80px; padding-left: 9%; padding-right: 4%; padding-top: 42%; padding-bottom: 31%\">+</p>"	n/a	"1352"	n/a	n/a	n/a	n/a	n/a	n/a	n/a	n/a	n/a
n/a	"image-keyboard-response"	"165"	"398173"	"0.0-4.0-2.0-1.56"	"khrdz6"	"600"	"1366"	"chrome"	"108.0.0"	"FALSE"	"Windows 10"	"60.66"	n/a	n/a	n/a	n/a	n/a	n/a	"Trial"	n/a	n/a	n/a	n/a	"NULL"	"NULL"	"NULL"	"759"	"stimuli/VerticalHorizontal_11.78571_-0.1096.png"	"arrowright"	n/a	"VerticalHorizontal"	"arrowright"	"1363"	"TRUE"	"VerticalHorizontal"	"11.785710000"	"-0.109600000"	"1"	"75"
n/a	"html-keyboard-response"	"166"	"399448"	"0.0-4.0-2.0-0.57"	"khrdz6"	"600"	"1366"	"chrome"	"108.0.0"	"FALSE"	"Windows 10"	"60.66"	n/a	n/a	n/a	n/a	n/a	n/a	"fixation"	n/a	n/a	n/a	n/a	"NULL"	"NULL"	"NULL"	n/a	"<p style=\"color: black; font-size: 80px; padding-left: 46%; padding-right: 6%; padding-top: 27%; padding-bottom: 33%\">+</p>"	n/a	"1266"	n/a	n/a	n/a	n/a	n/a	n/a	n/a	n/a	n/a
n/a	"image-keyboard-response"	"167"	"400087"	"0.0-4.0-2.0-1.57"	"khrdz6"	"600"	"1366"	"chrome"	"108.0.0"	"FALSE"	"Windows 10"	"60.66"	n/a	n/a	n/a	n/a	n/a	n/a	"Trial"	n/a	n/a	n/a	n/a	"NULL"	"NULL"	"NULL"	"637"	"stimuli/VerticalHorizontal_-20.27143_-0.16217.png"	"arrowright"	n/a	"VerticalHorizontal"	"arrowright"	"1275"	"TRUE"	"VerticalHorizontal"	"-20.27143000"	"-0.162170000"	"1"	"76"
n/a	"html-keyboard-response"	"168"	"401226"	"0.0-4.0-2.0-0.58"	"khrdz6"	"600"	"1366"	"chrome"	"108.0.0"	"FALSE"	"Windows 10"	"60.66"	n/a	n/a	n/a	n/a	n/a	n/a	"fixation"	n/a	n/a	n/a	n/a	"NULL"	"NULL"	"NULL"	n/a	"<p style=\"color: black; font-size: 80px; padding-left: 35%; padding-right: 13%; padding-top: 28%; padding-bottom: 11%\">+</p>"	n/a	"1130"	n/a	n/a	n/a	n/a	n/a	n/a	n/a	n/a	n/a
n/a	"image-keyboard-response"	"169"	"401864"	"0.0-4.0-2.0-1.58"	"khrdz6"	"600"	"1366"	"chrome"	"108.0.0"	"FALSE"	"Windows 10"	"60.66"	n/a	n/a	n/a	n/a	n/a	n/a	"Trial"	n/a	n/a	n/a	n/a	"NULL"	"NULL"	"NULL"	"637"	"stimuli/VerticalHorizontal_-20.27143_0.06730.png"	"arrowleft"	n/a	"VerticalHorizontal"	"arrowleft"	"1139"	"TRUE"	"VerticalHorizontal"	"-20.27143000"	"0.0673000000"	"1"	"77"
n/a	"html-keyboard-response"	"170"	"403152"	"0.0-4.0-2.0-0.59"	"khrdz6"	"600"	"1366"	"chrome"	"108.0.0"	"FALSE"	"Windows 10"	"60.66"	n/a	n/a	n/a	n/a	n/a	n/a	"fixation"	n/a	n/a	n/a	n/a	"NULL"	"NULL"	"NULL"	n/a	"<p style=\"color: black; font-size: 80px; padding-left: 45%; padding-right: 33%; padding-top: 47%; padding-bottom: 2%\">+</p>"	n/a	"1276"	n/a	n/a	n/a	n/a	n/a	n/a	n/a	n/a	n/a
n/a	"image-keyboard-response"	"171"	"403796"	"0.0-4.0-2.0-1.59"	"khrdz6"	"600"	"1366"	"chrome"	"108.0.0"	"FALSE"	"Windows 10"	"60.66"	n/a	n/a	n/a	n/a	n/a	n/a	"Trial"	n/a	n/a	n/a	n/a	"NULL"	"NULL"	"NULL"	"643"	"stimuli/VerticalHorizontal_3.30000_0.22500.png"	"arrowleft"	n/a	"VerticalHorizontal"	"arrowleft"	"1288"	"TRUE"	"VerticalHorizontal"	"3.3000000000"	"0.2250000000"	"1"	"78"
n/a	"html-keyboard-response"	"172"	"404909"	"0.0-4.0-2.0-0.60"	"khrdz6"	"600"	"1366"	"chrome"	"108.0.0"	"FALSE"	"Windows 10"	"60.66"	n/a	n/a	n/a	n/a	n/a	n/a	"fixation"	n/a	n/a	n/a	n/a	"NULL"	"NULL"	"NULL"	n/a	"<p style=\"color: black; font-size: 80px; padding-left: 45%; padding-right: 1%; padding-top: 20%; padding-bottom: 13%\">+</p>"	n/a	"1097"	n/a	n/a	n/a	n/a	n/a	n/a	n/a	n/a	n/a
n/a	"image-keyboard-response"	"173"	"405464"	"0.0-4.0-2.0-1.60"	"khrdz6"	"600"	"1366"	"chrome"	"108.0.0"	"FALSE"	"Windows 10"	"60.66"	n/a	n/a	n/a	n/a	n/a	n/a	"Trial"	n/a	n/a	n/a	n/a	"NULL"	"NULL"	"NULL"	"553"	"stimuli/VerticalHorizontal_3.30000_-0.2250.png"	"arrowright"	n/a	"VerticalHorizontal"	"arrowright"	"1113"	"TRUE"	"VerticalHorizontal"	"3.3000000000"	"-0.225000000"	"1"	"79"
n/a	"html-keyboard-response"	"174"	"406682"	"0.0-4.0-2.0-0.61"	"khrdz6"	"600"	"1366"	"chrome"	"108.0.0"	"FALSE"	"Windows 10"	"60.66"	n/a	n/a	n/a	n/a	n/a	n/a	"fixation"	n/a	n/a	n/a	n/a	"NULL"	"NULL"	"NULL"	n/a	"<p style=\"color: black; font-size: 80px; padding-left: 13%; padding-right: 5%; padding-top: 2%; padding-bottom: 26%\">+</p>"	n/a	"1213"	n/a	n/a	n/a	n/a	n/a	n/a	n/a	n/a	n/a
n/a	"image-keyboard-response"	"175"	"407247"	"0.0-4.0-2.0-1.61"	"khrdz6"	"600"	"1366"	"chrome"	"108.0.0"	"FALSE"	"Windows 10"	"60.66"	n/a	n/a	n/a	n/a	n/a	n/a	"Trial"	n/a	n/a	n/a	n/a	"NULL"	"NULL"	"NULL"	"564"	"stimuli/VerticalHorizontal_-28.75714_0.10960.png"	"arrowleft"	n/a	"VerticalHorizontal"	"arrowleft"	"1218"	"TRUE"	"VerticalHorizontal"	"-28.75714000"	"0.1096000000"	"1"	"80"
n/a	"html-keyboard-response"	"176"	"408456"	"0.0-4.0-2.0-0.62"	"khrdz6"	"600"	"1366"	"chrome"	"108.0.0"	"FALSE"	"Windows 10"	"60.66"	n/a	n/a	n/a	n/a	n/a	n/a	"fixation"	n/a	n/a	n/a	n/a	"NULL"	"NULL"	"NULL"	n/a	"<p style=\"color: black; font-size: 80px; padding-left: 15%; padding-right: 41%; padding-top: 11%; padding-bottom: 28%\">+</p>"	n/a	"1193"	n/a	n/a	n/a	n/a	n/a	n/a	n/a	n/a	n/a
n/a	"image-keyboard-response"	"177"	"409013"	"0.0-4.0-2.0-1.62"	"khrdz6"	"600"	"1366"	"chrome"	"108.0.0"	"FALSE"	"Windows 10"	"60.66"	n/a	n/a	n/a	n/a	n/a	n/a	"Trial"	n/a	n/a	n/a	n/a	"NULL"	"NULL"	"NULL"	"556"	"stimuli/VerticalHorizontal_-3.3000_-0.2250.png"	"arrowright"	n/a	"VerticalHorizontal"	"arrowright"	"1209"	"TRUE"	"VerticalHorizontal"	"-3.300000000"	"-0.225000000"	"1"	"81"
n/a	"html-keyboard-response"	"178"	"410252"	"0.0-4.0-2.0-0.63"	"khrdz6"	"600"	"1366"	"chrome"	"108.0.0"	"FALSE"	"Windows 10"	"60.66"	n/a	n/a	n/a	n/a	n/a	n/a	"fixation"	n/a	n/a	n/a	n/a	"NULL"	"NULL"	"NULL"	n/a	"<p style=\"color: black; font-size: 80px; padding-left: 3%; padding-right: 24%; padding-top: 47%; padding-bottom: 7%\">+</p>"	n/a	"1221"	n/a	n/a	n/a	n/a	n/a	n/a	n/a	n/a	n/a
n/a	"image-keyboard-response"	"179"	"410852"	"0.0-4.0-2.0-1.63"	"khrdz6"	"600"	"1366"	"chrome"	"108.0.0"	"FALSE"	"Windows 10"	"60.66"	n/a	n/a	n/a	n/a	n/a	n/a	"Trial"	n/a	n/a	n/a	n/a	"NULL"	"NULL"	"NULL"	"599"	"stimuli/VerticalHorizontal_-20.27143_-0.0673.png"	"arrowright"	n/a	"VerticalHorizontal"	"arrowright"	"1239"	"TRUE"	"VerticalHorizontal"	"-20.27143000"	"-0.067300000"	"1"	"82"
n/a	"html-button-response"	"180"	"430683"	"0.0-4.0-3.0"	"khrdz6"	"600"	"1366"	"chrome"	"108.0.0"	"FALSE"	"Windows 10"	"60.66"	n/a	n/a	n/a	n/a	n/a	n/a	"block_results"	n/a	n/a	n/a	n/a	"NULL"	"NULL"	"NULL"	"19828"	"<p>Your score for this illusion is <p style=\"color: black; font-size: 48px; font-weight: bold;\">79 %</p><hr><p>Can you do better in the next illusion?</p>"	"0"	n/a	n/a	n/a	n/a	n/a	n/a	n/a	n/a	n/a	n/a
"TRUE"	"preload"	"181"	"430863"	"0.0-5.0-0.0"	"khrdz6"	"600"	"1366"	"chrome"	"108.0.0"	"FALSE"	"Windows 10"	"60.66"	n/a	n/a	n/a	n/a	n/a	n/a	n/a	n/a	n/a	n/a	"FALSE"	"list()"	"list()"	"list()"	n/a	n/a	n/a	n/a	n/a	n/a	n/a	n/a	n/a	n/a	n/a	n/a	n/a
n/a	"html-keyboard-response"	"182"	"440673"	"0.0-5.0-1.0"	"khrdz6"	"600"	"1366"	"chrome"	"108.0.0"	"FALSE"	"Windows 10"	"60.66"	n/a	n/a	n/a	n/a	n/a	n/a	n/a	n/a	n/a	n/a	n/a	"NULL"	"NULL"	"NULL"	"9809"	"<p><b>Part 2/6</b></p><p>In this part, two horizontal red lines will appear one above the other.</p><p>Your task is to select which <b>line is longer</b> in length as fast as you can, without making errors.</p><p>Don't get distracted by the surrounding black arrows at the end of the red lines!</p><p>Press <b>the UP or the DOWN arrow</b> to indicate where is the longer <b>red line.</b></p><div style='float: center'><img src='materials/instructions/MullerLyer_Demo.png' height='300'></img><p><img src='utils/answer/answer_updown_keyboard.PNG' height='150'></img></p><p class='small'>In this example, the correct answer is the <b>UP arrow</b>.</p></div><p>Are you ready? <b>Press ENTER to start</b></p>"	"enter"	n/a	n/a	n/a	n/a	n/a	n/a	n/a	n/a	n/a	n/a
n/a	"html-keyboard-response"	"183"	"442569"	"0.0-5.0-2.0-0.0"	"khrdz6"	"600"	"1366"	"chrome"	"108.0.0"	"FALSE"	"Windows 10"	"60.66"	n/a	n/a	n/a	n/a	n/a	n/a	"fixation"	n/a	n/a	n/a	n/a	"NULL"	"NULL"	"NULL"	n/a	"<p style=\"color: black; font-size: 80px; padding-left: 48%; padding-right: 2%; padding-top: 36%; padding-bottom: 9%\">+</p>"	n/a	"1378"	n/a	n/a	n/a	n/a	n/a	n/a	n/a	n/a	n/a
n/a	"image-keyboard-response"	"184"	"443095"	"0.0-5.0-2.0-1.0"	"khrdz6"	"600"	"1366"	"chrome"	"108.0.0"	"FALSE"	"Windows 10"	"60.66"	n/a	n/a	n/a	n/a	n/a	n/a	"Trial"	n/a	n/a	n/a	n/a	"NULL"	"NULL"	"NULL"	"524"	"stimuli/MullerLyer_-8.21429_-0.3500.png"	"arrowdown"	n/a	"MullerLyer"	"arrowdown"	"1896"	"TRUE"	"MullerLyer"	"-8.214290000"	"-0.350000000"	"2"	"1"
n/a	"html-keyboard-response"	"185"	"444160"	"0.0-5.0-2.0-0.1"	"khrdz6"	"600"	"1366"	"chrome"	"108.0.0"	"FALSE"	"Windows 10"	"60.66"	n/a	n/a	n/a	n/a	n/a	n/a	"fixation"	n/a	n/a	n/a	n/a	"NULL"	"NULL"	"NULL"	n/a	"<p style=\"color: black; font-size: 80px; padding-left: 2%; padding-right: 33%; padding-top: 43%; padding-bottom: 32%\">+</p>"	n/a	"1054"	n/a	n/a	n/a	n/a	n/a	n/a	n/a	n/a	n/a
n/a	"image-keyboard-response"	"186"	"444657"	"0.0-5.0-2.0-1.1"	"khrdz6"	"600"	"1366"	"chrome"	"108.0.0"	"FALSE"	"Windows 10"	"60.66"	n/a	n/a	n/a	n/a	n/a	n/a	"Trial"	n/a	n/a	n/a	n/a	"NULL"	"NULL"	"NULL"	"497"	"stimuli/MullerLyer_-8.21429_0.07627.png"	"arrowup"	n/a	"MullerLyer"	"arrowup"	"1065"	"TRUE"	"MullerLyer"	"-8.214290000"	"0.0762700000"	"2"	"2"
n/a	"html-keyboard-response"	"187"	"445793"	"0.0-5.0-2.0-0.2"	"khrdz6"	"600"	"1366"	"chrome"	"108.0.0"	"FALSE"	"Windows 10"	"60.66"	n/a	n/a	n/a	n/a	n/a	n/a	"fixation"	n/a	n/a	n/a	n/a	"NULL"	"NULL"	"NULL"	n/a	"<p style=\"color: black; font-size: 80px; padding-left: 16%; padding-right: 17%; padding-top: 6%; padding-bottom: 22%\">+</p>"	n/a	"1129"	n/a	n/a	n/a	n/a	n/a	n/a	n/a	n/a	n/a
n/a	"image-keyboard-response"	"188"	"446216"	"0.0-5.0-2.0-1.2"	"khrdz6"	"600"	"1366"	"chrome"	"108.0.0"	"FALSE"	"Windows 10"	"60.66"	n/a	n/a	n/a	n/a	n/a	n/a	"Trial"	n/a	n/a	n/a	n/a	"NULL"	"NULL"	"NULL"	"423"	"stimuli/MullerLyer_-14.12857_0.07627.png"	"arrowup"	n/a	"MullerLyer"	"arrowup"	"1136"	"TRUE"	"MullerLyer"	"-14.12857000"	"0.0762700000"	"2"	"3"
n/a	"html-keyboard-response"	"189"	"447387"	"0.0-5.0-2.0-0.3"	"khrdz6"	"600"	"1366"	"chrome"	"108.0.0"	"FALSE"	"Windows 10"	"60.66"	n/a	n/a	n/a	n/a	n/a	n/a	"fixation"	n/a	n/a	n/a	n/a	"NULL"	"NULL"	"NULL"	n/a	"<p style=\"color: black; font-size: 80px; padding-left: 33%; padding-right: 10%; padding-top: 3%; padding-bottom: 29%\">+</p>"	n/a	"1153"	n/a	n/a	n/a	n/a	n/a	n/a	n/a	n/a	n/a
n/a	"image-keyboard-response"	"190"	"447862"	"0.0-5.0-2.0-1.3"	"khrdz6"	"600"	"1366"	"chrome"	"108.0.0"	"FALSE"	"Windows 10"	"60.66"	n/a	n/a	n/a	n/a	n/a	n/a	"Trial"	n/a	n/a	n/a	n/a	"NULL"	"NULL"	"NULL"	"468"	"stimuli/MullerLyer_-8.21429_0.14541.png"	"arrowup"	n/a	"MullerLyer"	"arrowup"	"1171"	"TRUE"	"MullerLyer"	"-8.214290000"	"0.1454100000"	"2"	"4"
n/a	"html-keyboard-response"	"191"	"449086"	"0.0-5.0-2.0-0.4"	"khrdz6"	"600"	"1366"	"chrome"	"108.0.0"	"FALSE"	"Windows 10"	"60.66"	n/a	n/a	n/a	n/a	n/a	n/a	"fixation"	n/a	n/a	n/a	n/a	"NULL"	"NULL"	"NULL"	n/a	"<p style=\"color: black; font-size: 80px; padding-left: 14%; padding-right: 26%; padding-top: 19%; padding-bottom: 32%\">+</p>"	n/a	"1205"	n/a	n/a	n/a	n/a	n/a	n/a	n/a	n/a	n/a
n/a	"image-keyboard-response"	"192"	"449611"	"0.0-5.0-2.0-1.4"	"khrdz6"	"600"	"1366"	"chrome"	"108.0.0"	"FALSE"	"Windows 10"	"60.66"	n/a	n/a	n/a	n/a	n/a	n/a	"Trial"	n/a	n/a	n/a	n/a	"NULL"	"NULL"	"NULL"	"523"	"stimuli/MullerLyer_20.04286_0.23665.png"	"arrowdown"	n/a	"MullerLyer"	"arrowup"	"1224"	"FALSE"	"MullerLyer"	"20.042860000"	"0.2366500000"	"2"	"5"
n/a	"html-keyboard-response"	"193"	"450724"	"0.0-5.0-2.0-0.5"	"khrdz6"	"600"	"1366"	"chrome"	"108.0.0"	"FALSE"	"Windows 10"	"60.66"	n/a	n/a	n/a	n/a	n/a	n/a	"fixation"	n/a	n/a	n/a	n/a	"NULL"	"NULL"	"NULL"	n/a	"<p style=\"color: black; font-size: 80px; padding-left: 43%; padding-right: 6%; padding-top: 28%; padding-bottom: 21%\">+</p>"	n/a	"1092"	n/a	n/a	n/a	n/a	n/a	n/a	n/a	n/a	n/a
n/a	"image-keyboard-response"	"194"	"451544"	"0.0-5.0-2.0-1.5"	"khrdz6"	"600"	"1366"	"chrome"	"108.0.0"	"FALSE"	"Windows 10"	"60.66"	n/a	n/a	n/a	n/a	n/a	n/a	"Trial"	n/a	n/a	n/a	n/a	"NULL"	"NULL"	"NULL"	"819"	"stimuli/MullerLyer_14.12857_0.14541.png"	"arrowup"	n/a	"MullerLyer"	"arrowup"	"1113"	"TRUE"	"MullerLyer"	"14.128570000"	"0.1454100000"	"2"	"6"
n/a	"html-keyboard-response"	"195"	"452663"	"0.0-5.0-2.0-0.6"	"khrdz6"	"600"	"1366"	"chrome"	"108.0.0"	"FALSE"	"Windows 10"	"60.66"	n/a	n/a	n/a	n/a	n/a	n/a	"fixation"	n/a	n/a	n/a	n/a	"NULL"	"NULL"	"NULL"	n/a	"<p style=\"color: black; font-size: 80px; padding-left: 8%; padding-right: 11%; padding-top: 29%; padding-bottom: 19%\">+</p>"	n/a	"1109"	n/a	n/a	n/a	n/a	n/a	n/a	n/a	n/a	n/a
n/a	"image-keyboard-response"	"196"	"453298"	"0.0-5.0-2.0-1.6"	"khrdz6"	"600"	"1366"	"chrome"	"108.0.0"	"FALSE"	"Windows 10"	"60.66"	n/a	n/a	n/a	n/a	n/a	n/a	"Trial"	n/a	n/a	n/a	n/a	"NULL"	"NULL"	"NULL"	"635"	"stimuli/MullerLyer_-8.21429_0.35000.png"	"arrowup"	n/a	"MullerLyer"	"arrowup"	"1119"	"TRUE"	"MullerLyer"	"-8.214290000"	"0.3500000000"	"2"	"7"
n/a	"html-keyboard-response"	"197"	"454469"	"0.0-5.0-2.0-0.7"	"khrdz6"	"600"	"1366"	"chrome"	"108.0.0"	"FALSE"	"Windows 10"	"60.66"	n/a	n/a	n/a	n/a	n/a	n/a	"fixation"	n/a	n/a	n/a	n/a	"NULL"	"NULL"	"NULL"	n/a	"<p style=\"color: black; font-size: 80px; padding-left: 49%; padding-right: 42%; padding-top: 4%; padding-bottom: 17%\">+</p>"	n/a	"1155"	n/a	n/a	n/a	n/a	n/a	n/a	n/a	n/a	n/a
n/a	"image-keyboard-response"	"198"	"455183"	"0.0-5.0-2.0-1.7"	"khrdz6"	"600"	"1366"	"chrome"	"108.0.0"	"FALSE"	"Windows 10"	"60.66"	n/a	n/a	n/a	n/a	n/a	n/a	"Trial"	n/a	n/a	n/a	n/a	"NULL"	"NULL"	"NULL"	"713"	"stimuli/MullerLyer_-20.04286_-0.07627.png"	"arrowdown"	n/a	"MullerLyer"	"arrowdown"	"1171"	"TRUE"	"MullerLyer"	"-20.04286000"	"-0.076270000"	"2"	"8"
n/a	"html-keyboard-response"	"199"	"456612"	"0.0-5.0-2.0-0.8"	"khrdz6"	"600"	"1366"	"chrome"	"108.0.0"	"FALSE"	"Windows 10"	"60.66"	n/a	n/a	n/a	n/a	n/a	n/a	"fixation"	n/a	n/a	n/a	n/a	"NULL"	"NULL"	"NULL"	n/a	"<p style=\"color: black; font-size: 80px; padding-left: 4%; padding-right: 17%; padding-top: 33%; padding-bottom: 29%\">+</p>"	n/a	"1421"	n/a	n/a	n/a	n/a	n/a	n/a	n/a	n/a	n/a
n/a	"image-keyboard-response"	"200"	"457383"	"0.0-5.0-2.0-1.8"	"khrdz6"	"600"	"1366"	"chrome"	"108.0.0"	"FALSE"	"Windows 10"	"60.66"	n/a	n/a	n/a	n/a	n/a	n/a	"Trial"	n/a	n/a	n/a	n/a	"NULL"	"NULL"	"NULL"	"769"	"stimuli/MullerLyer_-2.3000_-0.14541.png"	"arrowdown"	n/a	"MullerLyer"	"arrowdown"	"1429"	"TRUE"	"MullerLyer"	"-2.300000000"	"-0.145410000"	"2"	"9"
n/a	"html-keyboard-response"	"201"	"458899"	"0.0-5.0-2.0-0.9"	"khrdz6"	"600"	"1366"	"chrome"	"108.0.0"	"FALSE"	"Windows 10"	"60.66"	n/a	n/a	n/a	n/a	n/a	n/a	"fixation"	n/a	n/a	n/a	n/a	"NULL"	"NULL"	"NULL"	n/a	"<p style=\"color: black; font-size: 80px; padding-left: 1%; padding-right: 29%; padding-top: 21%; padding-bottom: 40%\">+</p>"	n/a	"1497"	n/a	n/a	n/a	n/a	n/a	n/a	n/a	n/a	n/a
n/a	"image-keyboard-response"	"202"	"459385"	"0.0-5.0-2.0-1.9"	"khrdz6"	"600"	"1366"	"chrome"	"108.0.0"	"FALSE"	"Windows 10"	"60.66"	n/a	n/a	n/a	n/a	n/a	n/a	"Trial"	n/a	n/a	n/a	n/a	"NULL"	"NULL"	"NULL"	"486"	"stimuli/MullerLyer_-20.04286_-0.23665.png"	"arrowdown"	n/a	"MullerLyer"	"arrowdown"	"1516"	"TRUE"	"MullerLyer"	"-20.04286000"	"-0.236650000"	"2"	"10"
n/a	"html-keyboard-response"	"203"	"460510"	"0.0-5.0-2.0-0.10"	"khrdz6"	"600"	"1366"	"chrome"	"108.0.0"	"FALSE"	"Windows 10"	"60.66"	n/a	n/a	n/a	n/a	n/a	n/a	"fixation"	n/a	n/a	n/a	n/a	"NULL"	"NULL"	"NULL"	n/a	"<p style=\"color: black; font-size: 80px; padding-left: 30%; padding-right: 35%; padding-top: 27%; padding-bottom: 28%\">+</p>"	n/a	"1117"	n/a	n/a	n/a	n/a	n/a	n/a	n/a	n/a	n/a
n/a	"image-keyboard-response"	"204"	"461302"	"0.0-5.0-2.0-1.10"	"khrdz6"	"600"	"1366"	"chrome"	"108.0.0"	"FALSE"	"Windows 10"	"60.66"	n/a	n/a	n/a	n/a	n/a	n/a	"Trial"	n/a	n/a	n/a	n/a	"NULL"	"NULL"	"NULL"	"791"	"stimuli/MullerLyer_14.12857_-0.3500.png"	"arrowdown"	n/a	"MullerLyer"	"arrowdown"	"1125"	"TRUE"	"MullerLyer"	"14.128570000"	"-0.350000000"	"2"	"11"
n/a	"html-keyboard-response"	"205"	"462360"	"0.0-5.0-2.0-0.11"	"khrdz6"	"600"	"1366"	"chrome"	"108.0.0"	"FALSE"	"Windows 10"	"60.66"	n/a	n/a	n/a	n/a	n/a	n/a	"fixation"	n/a	n/a	n/a	n/a	"NULL"	"NULL"	"NULL"	n/a	"<p style=\"color: black; font-size: 80px; padding-left: 46%; padding-right: 46%; padding-top: 39%; padding-bottom: 9%\">+</p>"	n/a	"1041"	n/a	n/a	n/a	n/a	n/a	n/a	n/a	n/a	n/a
n/a	"image-keyboard-response"	"206"	"462953"	"0.0-5.0-2.0-1.11"	"khrdz6"	"600"	"1366"	"chrome"	"108.0.0"	"FALSE"	"Windows 10"	"60.66"	n/a	n/a	n/a	n/a	n/a	n/a	"Trial"	n/a	n/a	n/a	n/a	"NULL"	"NULL"	"NULL"	"592"	"stimuli/MullerLyer_8.21429_-0.3500.png"	"arrowdown"	n/a	"MullerLyer"	"arrowdown"	"1058"	"TRUE"	"MullerLyer"	"8.2142900000"	"-0.350000000"	"2"	"12"
n/a	"html-keyboard-response"	"207"	"464151"	"0.0-5.0-2.0-0.12"	"khrdz6"	"600"	"1366"	"chrome"	"108.0.0"	"FALSE"	"Windows 10"	"60.66"	n/a	n/a	n/a	n/a	n/a	n/a	"fixation"	n/a	n/a	n/a	n/a	"NULL"	"NULL"	"NULL"	n/a	"<p style=\"color: black; font-size: 80px; padding-left: 34%; padding-right: 4%; padding-top: 17%; padding-bottom: 44%\">+</p>"	n/a	"1179"	n/a	n/a	n/a	n/a	n/a	n/a	n/a	n/a	n/a
n/a	"image-keyboard-response"	"208"	"464888"	"0.0-5.0-2.0-1.12"	"khrdz6"	"600"	"1366"	"chrome"	"108.0.0"	"FALSE"	"Windows 10"	"60.66"	n/a	n/a	n/a	n/a	n/a	n/a	"Trial"	n/a	n/a	n/a	n/a	"NULL"	"NULL"	"NULL"	"735"	"stimuli/MullerLyer_8.21429_0.07627.png"	"arrowup"	n/a	"MullerLyer"	"arrowup"	"1198"	"TRUE"	"MullerLyer"	"8.2142900000"	"0.0762700000"	"2"	"13"
n/a	"html-keyboard-response"	"209"	"466259"	"0.0-5.0-2.0-0.13"	"khrdz6"	"600"	"1366"	"chrome"	"108.0.0"	"FALSE"	"Windows 10"	"60.66"	n/a	n/a	n/a	n/a	n/a	n/a	"fixation"	n/a	n/a	n/a	n/a	"NULL"	"NULL"	"NULL"	n/a	"<p style=\"color: black; font-size: 80px; padding-left: 10%; padding-right: 39%; padding-top: 30%; padding-bottom: 45%\">+</p>"	n/a	"1361"	n/a	n/a	n/a	n/a	n/a	n/a	n/a	n/a	n/a
n/a	"image-keyboard-response"	"210"	"466965"	"0.0-5.0-2.0-1.13"	"khrdz6"	"600"	"1366"	"chrome"	"108.0.0"	"FALSE"	"Windows 10"	"60.66"	n/a	n/a	n/a	n/a	n/a	n/a	"Trial"	n/a	n/a	n/a	n/a	"NULL"	"NULL"	"NULL"	"705"	"stimuli/MullerLyer_20.04286_0.14541.png"	"arrowup"	n/a	"MullerLyer"	"arrowup"	"1371"	"TRUE"	"MullerLyer"	"20.042860000"	"0.1454100000"	"2"	"14"
n/a	"html-keyboard-response"	"211"	"468230"	"0.0-5.0-2.0-0.14"	"khrdz6"	"600"	"1366"	"chrome"	"108.0.0"	"FALSE"	"Windows 10"	"60.66"	n/a	n/a	n/a	n/a	n/a	n/a	"fixation"	n/a	n/a	n/a	n/a	"NULL"	"NULL"	"NULL"	n/a	"<p style=\"color: black; font-size: 80px; padding-left: 19%; padding-right: 10%; padding-top: 45%; padding-bottom: 27%\">+</p>"	n/a	"1251"	n/a	n/a	n/a	n/a	n/a	n/a	n/a	n/a	n/a
n/a	"image-keyboard-response"	"212"	"468799"	"0.0-5.0-2.0-1.14"	"khrdz6"	"600"	"1366"	"chrome"	"108.0.0"	"FALSE"	"Windows 10"	"60.66"	n/a	n/a	n/a	n/a	n/a	n/a	"Trial"	n/a	n/a	n/a	n/a	"NULL"	"NULL"	"NULL"	"569"	"stimuli/MullerLyer_2.30000_0.23665.png"	"arrowup"	n/a	"MullerLyer"	"arrowup"	"1265"	"TRUE"	"MullerLyer"	"2.3000000000"	"0.2366500000"	"2"	"15"
n/a	"html-keyboard-response"	"213"	"470064"	"0.0-5.0-2.0-0.15"	"khrdz6"	"600"	"1366"	"chrome"	"108.0.0"	"FALSE"	"Windows 10"	"60.66"	n/a	n/a	n/a	n/a	n/a	n/a	"fixation"	n/a	n/a	n/a	n/a	"NULL"	"NULL"	"NULL"	n/a	"<p style=\"color: black; font-size: 80px; padding-left: 6%; padding-right: 9%; padding-top: 41%; padding-bottom: 16%\">+</p>"	n/a	"1250"	n/a	n/a	n/a	n/a	n/a	n/a	n/a	n/a	n/a
n/a	"image-keyboard-response"	"214"	"470627"	"0.0-5.0-2.0-1.15"	"khrdz6"	"600"	"1366"	"chrome"	"108.0.0"	"FALSE"	"Windows 10"	"60.66"	n/a	n/a	n/a	n/a	n/a	n/a	"Trial"	n/a	n/a	n/a	n/a	"NULL"	"NULL"	"NULL"	"562"	"stimuli/MullerLyer_-14.12857_0.23665.png"	"arrowup"	n/a	"MullerLyer"	"arrowup"	"1265"	"TRUE"	"MullerLyer"	"-14.12857000"	"0.2366500000"	"2"	"16"
n/a	"html-keyboard-response"	"215"	"471949"	"0.0-5.0-2.0-0.16"	"khrdz6"	"600"	"1366"	"chrome"	"108.0.0"	"FALSE"	"Windows 10"	"60.66"	n/a	n/a	n/a	n/a	n/a	n/a	"fixation"	n/a	n/a	n/a	n/a	"NULL"	"NULL"	"NULL"	n/a	"<p style=\"color: black; font-size: 80px; padding-left: 15%; padding-right: 22%; padding-top: 38%; padding-bottom: 13%\">+</p>"	n/a	"1306"	n/a	n/a	n/a	n/a	n/a	n/a	n/a	n/a	n/a
n/a	"image-keyboard-response"	"216"	"472394"	"0.0-5.0-2.0-1.16"	"khrdz6"	"600"	"1366"	"chrome"	"108.0.0"	"FALSE"	"Windows 10"	"60.66"	n/a	n/a	n/a	n/a	n/a	n/a	"Trial"	n/a	n/a	n/a	n/a	"NULL"	"NULL"	"NULL"	"445"	"stimuli/MullerLyer_8.21429_0.35000.png"	"arrowup"	n/a	"MullerLyer"	"arrowup"	"1322"	"TRUE"	"MullerLyer"	"8.2142900000"	"0.3500000000"	"2"	"17"
n/a	"html-keyboard-response"	"217"	"473865"	"0.0-5.0-2.0-0.17"	"khrdz6"	"600"	"1366"	"chrome"	"108.0.0"	"FALSE"	"Windows 10"	"60.66"	n/a	n/a	n/a	n/a	n/a	n/a	"fixation"	n/a	n/a	n/a	n/a	"NULL"	"NULL"	"NULL"	n/a	"<p style=\"color: black; font-size: 80px; padding-left: 31%; padding-right: 25%; padding-top: 40%; padding-bottom: 6%\">+</p>"	n/a	"1453"	n/a	n/a	n/a	n/a	n/a	n/a	n/a	n/a	n/a
n/a	"image-keyboard-response"	"218"	"474295"	"0.0-5.0-2.0-1.17"	"khrdz6"	"600"	"1366"	"chrome"	"108.0.0"	"FALSE"	"Windows 10"	"60.66"	n/a	n/a	n/a	n/a	n/a	n/a	"Trial"	n/a	n/a	n/a	n/a	"NULL"	"NULL"	"NULL"	"429"	"stimuli/MullerLyer_-20.04286_-0.14541.png"	"arrowdown"	n/a	"MullerLyer"	"arrowdown"	"1471"	"TRUE"	"MullerLyer"	"-20.04286000"	"-0.145410000"	"2"	"18"
n/a	"html-keyboard-response"	"219"	"475457"	"0.0-5.0-2.0-0.18"	"khrdz6"	"600"	"1366"	"chrome"	"108.0.0"	"FALSE"	"Windows 10"	"60.66"	n/a	n/a	n/a	n/a	n/a	n/a	"fixation"	n/a	n/a	n/a	n/a	"NULL"	"NULL"	"NULL"	n/a	"<p style=\"color: black; font-size: 80px; padding-left: 42%; padding-right: 10%; padding-top: 11%; padding-bottom: 45%\">+</p>"	n/a	"1141"	n/a	n/a	n/a	n/a	n/a	n/a	n/a	n/a	n/a
n/a	"image-keyboard-response"	"220"	"475975"	"0.0-5.0-2.0-1.18"	"khrdz6"	"600"	"1366"	"chrome"	"108.0.0"	"FALSE"	"Windows 10"	"60.66"	n/a	n/a	n/a	n/a	n/a	n/a	"Trial"	n/a	n/a	n/a	n/a	"NULL"	"NULL"	"NULL"	"517"	"stimuli/MullerLyer_14.12857_-0.07627.png"	"arrowup"	n/a	"MullerLyer"	"arrowdown"	"1162"	"FALSE"	"MullerLyer"	"14.128570000"	"-0.076270000"	"2"	"19"
n/a	"html-keyboard-response"	"221"	"477127"	"0.0-5.0-2.0-0.19"	"khrdz6"	"600"	"1366"	"chrome"	"108.0.0"	"FALSE"	"Windows 10"	"60.66"	n/a	n/a	n/a	n/a	n/a	n/a	"fixation"	n/a	n/a	n/a	n/a	"NULL"	"NULL"	"NULL"	n/a	"<p style=\"color: black; font-size: 80px; padding-left: 6%; padding-right: 19%; padding-top: 3%; padding-bottom: 41%\">+</p>"	n/a	"1132"	n/a	n/a	n/a	n/a	n/a	n/a	n/a	n/a	n/a
n/a	"image-keyboard-response"	"222"	"477596"	"0.0-5.0-2.0-1.19"	"khrdz6"	"600"	"1366"	"chrome"	"108.0.0"	"FALSE"	"Windows 10"	"60.66"	n/a	n/a	n/a	n/a	n/a	n/a	"Trial"	n/a	n/a	n/a	n/a	"NULL"	"NULL"	"NULL"	"468"	"stimuli/MullerLyer_-14.12857_0.14541.png"	"arrowup"	n/a	"MullerLyer"	"arrowup"	"1152"	"TRUE"	"MullerLyer"	"-14.12857000"	"0.1454100000"	"2"	"20"
n/a	"html-keyboard-response"	"223"	"478977"	"0.0-5.0-2.0-0.20"	"khrdz6"	"600"	"1366"	"chrome"	"108.0.0"	"FALSE"	"Windows 10"	"60.66"	n/a	n/a	n/a	n/a	n/a	n/a	"fixation"	n/a	n/a	n/a	n/a	"NULL"	"NULL"	"NULL"	n/a	"<p style=\"color: black; font-size: 80px; padding-left: 47%; padding-right: 40%; padding-top: 19%; padding-bottom: 21%\">+</p>"	n/a	"1358"	n/a	n/a	n/a	n/a	n/a	n/a	n/a	n/a	n/a
n/a	"image-keyboard-response"	"224"	"479345"	"0.0-5.0-2.0-1.20"	"khrdz6"	"600"	"1366"	"chrome"	"108.0.0"	"FALSE"	"Windows 10"	"60.66"	n/a	n/a	n/a	n/a	n/a	n/a	"Trial"	n/a	n/a	n/a	n/a	"NULL"	"NULL"	"NULL"	"367"	"stimuli/MullerLyer_-20.04286_0.35000.png"	"arrowup"	n/a	"MullerLyer"	"arrowup"	"1381"	"TRUE"	"MullerLyer"	"-20.04286000"	"0.3500000000"	"2"	"21"
n/a	"html-keyboard-response"	"225"	"480382"	"0.0-5.0-2.0-0.21"	"khrdz6"	"600"	"1366"	"chrome"	"108.0.0"	"FALSE"	"Windows 10"	"60.66"	n/a	n/a	n/a	n/a	n/a	n/a	"fixation"	n/a	n/a	n/a	n/a	"NULL"	"NULL"	"NULL"	n/a	"<p style=\"color: black; font-size: 80px; padding-left: 0%; padding-right: 36%; padding-top: 33%; padding-bottom: 7%\">+</p>"	n/a	"1017"	n/a	n/a	n/a	n/a	n/a	n/a	n/a	n/a	n/a
n/a	"image-keyboard-response"	"226"	"480877"	"0.0-5.0-2.0-1.21"	"khrdz6"	"600"	"1366"	"chrome"	"108.0.0"	"FALSE"	"Windows 10"	"60.66"	n/a	n/a	n/a	n/a	n/a	n/a	"Trial"	n/a	n/a	n/a	n/a	"NULL"	"NULL"	"NULL"	"490"	"stimuli/MullerLyer_8.21429_0.14541.png"	"arrowdown"	n/a	"MullerLyer"	"arrowup"	"1037"	"FALSE"	"MullerLyer"	"8.2142900000"	"0.1454100000"	"2"	"22"
n/a	"html-keyboard-response"	"227"	"482370"	"0.0-5.0-2.0-0.22"	"khrdz6"	"600"	"1366"	"chrome"	"108.0.0"	"FALSE"	"Windows 10"	"60.66"	n/a	n/a	n/a	n/a	n/a	n/a	"fixation"	n/a	n/a	n/a	n/a	"NULL"	"NULL"	"NULL"	n/a	"<p style=\"color: black; font-size: 80px; padding-left: 14%; padding-right: 23%; padding-top: 35%; padding-bottom: 32%\">+</p>"	n/a	"1480"	n/a	n/a	n/a	n/a	n/a	n/a	n/a	n/a	n/a
n/a	"image-keyboard-response"	"228"	"482836"	"0.0-5.0-2.0-1.22"	"khrdz6"	"600"	"1366"	"chrome"	"108.0.0"	"FALSE"	"Windows 10"	"60.66"	n/a	n/a	n/a	n/a	n/a	n/a	"Trial"	n/a	n/a	n/a	n/a	"NULL"	"NULL"	"NULL"	"465"	"stimuli/MullerLyer_-2.3000_0.35000.png"	"arrowup"	n/a	"MullerLyer"	"arrowup"	"1493"	"TRUE"	"MullerLyer"	"-2.300000000"	"0.3500000000"	"2"	"23"
n/a	"html-keyboard-response"	"229"	"483928"	"0.0-5.0-2.0-0.23"	"khrdz6"	"600"	"1366"	"chrome"	"108.0.0"	"FALSE"	"Windows 10"	"60.66"	n/a	n/a	n/a	n/a	n/a	n/a	"fixation"	n/a	n/a	n/a	n/a	"NULL"	"NULL"	"NULL"	n/a	"<p style=\"color: black; font-size: 80px; padding-left: 17%; padding-right: 34%; padding-top: 23%; padding-bottom: 26%\">+</p>"	n/a	"1071"	n/a	n/a	n/a	n/a	n/a	n/a	n/a	n/a	n/a
n/a	"image-keyboard-response"	"230"	"484396"	"0.0-5.0-2.0-1.23"	"khrdz6"	"600"	"1366"	"chrome"	"108.0.0"	"FALSE"	"Windows 10"	"60.66"	n/a	n/a	n/a	n/a	n/a	n/a	"Trial"	n/a	n/a	n/a	n/a	"NULL"	"NULL"	"NULL"	"467"	"stimuli/MullerLyer_20.04286_-0.07627.png"	"arrowup"	n/a	"MullerLyer"	"arrowdown"	"1092"	"FALSE"	"MullerLyer"	"20.042860000"	"-0.076270000"	"2"	"24"
n/a	"html-keyboard-response"	"231"	"485837"	"0.0-5.0-2.0-0.24"	"khrdz6"	"600"	"1366"	"chrome"	"108.0.0"	"FALSE"	"Windows 10"	"60.66"	n/a	n/a	n/a	n/a	n/a	n/a	"fixation"	n/a	n/a	n/a	n/a	"NULL"	"NULL"	"NULL"	n/a	"<p style=\"color: black; font-size: 80px; padding-left: 21%; padding-right: 6%; padding-top: 49%; padding-bottom: 6%\">+</p>"	n/a	"1434"	n/a	n/a	n/a	n/a	n/a	n/a	n/a	n/a	n/a
n/a	"image-keyboard-response"	"232"	"486283"	"0.0-5.0-2.0-1.24"	"khrdz6"	"600"	"1366"	"chrome"	"108.0.0"	"FALSE"	"Windows 10"	"60.66"	n/a	n/a	n/a	n/a	n/a	n/a	"Trial"	n/a	n/a	n/a	n/a	"NULL"	"NULL"	"NULL"	"445"	"stimuli/MullerLyer_-20.04286_-0.3500.png"	"arrowdown"	n/a	"MullerLyer"	"arrowdown"	"1441"	"TRUE"	"MullerLyer"	"-20.04286000"	"-0.350000000"	"2"	"25"
n/a	"html-keyboard-response"	"233"	"487540"	"0.0-5.0-2.0-0.25"	"khrdz6"	"600"	"1366"	"chrome"	"108.0.0"	"FALSE"	"Windows 10"	"60.66"	n/a	n/a	n/a	n/a	n/a	n/a	"fixation"	n/a	n/a	n/a	n/a	"NULL"	"NULL"	"NULL"	n/a	"<p style=\"color: black; font-size: 80px; padding-left: 16%; padding-right: 39%; padding-top: 42%; padding-bottom: 31%\">+</p>"	n/a	"1248"	n/a	n/a	n/a	n/a	n/a	n/a	n/a	n/a	n/a
n/a	"image-keyboard-response"	"234"	"488110"	"0.0-5.0-2.0-1.25"	"khrdz6"	"600"	"1366"	"chrome"	"108.0.0"	"FALSE"	"Windows 10"	"60.66"	n/a	n/a	n/a	n/a	n/a	n/a	"Trial"	n/a	n/a	n/a	n/a	"NULL"	"NULL"	"NULL"	"569"	"stimuli/MullerLyer_8.21429_-0.14541.png"	"arrowup"	n/a	"MullerLyer"	"arrowdown"	"1257"	"FALSE"	"MullerLyer"	"8.2142900000"	"-0.145410000"	"2"	"26"
n/a	"html-keyboard-response"	"235"	"489416"	"0.0-5.0-2.0-0.26"	"khrdz6"	"600"	"1366"	"chrome"	"108.0.0"	"FALSE"	"Windows 10"	"60.66"	n/a	n/a	n/a	n/a	n/a	n/a	"fixation"	n/a	n/a	n/a	n/a	"NULL"	"NULL"	"NULL"	n/a	"<p style=\"color: black; font-size: 80px; padding-left: 3%; padding-right: 30%; padding-top: 14%; padding-bottom: 12%\">+</p>"	n/a	"1290"	n/a	n/a	n/a	n/a	n/a	n/a	n/a	n/a	n/a
n/a	"image-keyboard-response"	"236"	"489885"	"0.0-5.0-2.0-1.26"	"khrdz6"	"600"	"1366"	"chrome"	"108.0.0"	"FALSE"	"Windows 10"	"60.66"	n/a	n/a	n/a	n/a	n/a	n/a	"Trial"	n/a	n/a	n/a	n/a	"NULL"	"NULL"	"NULL"	"468"	"stimuli/MullerLyer_-2.3000_-0.07627.png"	"arrowdown"	n/a	"MullerLyer"	"arrowdown"	"1306"	"TRUE"	"MullerLyer"	"-2.300000000"	"-0.076270000"	"2"	"27"
n/a	"html-keyboard-response"	"237"	"491117"	"0.0-5.0-2.0-0.27"	"khrdz6"	"600"	"1366"	"chrome"	"108.0.0"	"FALSE"	"Windows 10"	"60.66"	n/a	n/a	n/a	n/a	n/a	n/a	"fixation"	n/a	n/a	n/a	n/a	"NULL"	"NULL"	"NULL"	n/a	"<p style=\"color: black; font-size: 80px; padding-left: 16%; padding-right: 1%; padding-top: 37%; padding-bottom: 4%\">+</p>"	n/a	"1220"	n/a	n/a	n/a	n/a	n/a	n/a	n/a	n/a	n/a
n/a	"image-keyboard-response"	"238"	"491593"	"0.0-5.0-2.0-1.27"	"khrdz6"	"600"	"1366"	"chrome"	"108.0.0"	"FALSE"	"Windows 10"	"60.66"	n/a	n/a	n/a	n/a	n/a	n/a	"Trial"	n/a	n/a	n/a	n/a	"NULL"	"NULL"	"NULL"	"474"	"stimuli/MullerLyer_2.30000_-0.23665.png"	"arrowdown"	n/a	"MullerLyer"	"arrowdown"	"1232"	"TRUE"	"MullerLyer"	"2.3000000000"	"-0.236650000"	"2"	"28"
n/a	"html-keyboard-response"	"239"	"492902"	"0.0-5.0-2.0-0.28"	"khrdz6"	"600"	"1366"	"chrome"	"108.0.0"	"FALSE"	"Windows 10"	"60.66"	n/a	n/a	n/a	n/a	n/a	n/a	"fixation"	n/a	n/a	n/a	n/a	"NULL"	"NULL"	"NULL"	n/a	"<p style=\"color: black; font-size: 80px; padding-left: 35%; padding-right: 37%; padding-top: 47%; padding-bottom: 7%\">+</p>"	n/a	"1293"	n/a	n/a	n/a	n/a	n/a	n/a	n/a	n/a	n/a
n/a	"image-keyboard-response"	"240"	"493327"	"0.0-5.0-2.0-1.28"	"khrdz6"	"600"	"1366"	"chrome"	"108.0.0"	"FALSE"	"Windows 10"	"60.66"	n/a	n/a	n/a	n/a	n/a	n/a	"Trial"	n/a	n/a	n/a	n/a	"NULL"	"NULL"	"NULL"	"424"	"stimuli/MullerLyer_-8.21429_-0.23665.png"	"arrowdown"	n/a	"MullerLyer"	"arrowdown"	"1309"	"TRUE"	"MullerLyer"	"-8.214290000"	"-0.236650000"	"2"	"29"
n/a	"html-keyboard-response"	"241"	"494679"	"0.0-5.0-2.0-0.29"	"khrdz6"	"600"	"1366"	"chrome"	"108.0.0"	"FALSE"	"Windows 10"	"60.66"	n/a	n/a	n/a	n/a	n/a	n/a	"fixation"	n/a	n/a	n/a	n/a	"NULL"	"NULL"	"NULL"	n/a	"<p style=\"color: black; font-size: 80px; padding-left: 32%; padding-right: 36%; padding-top: 33%; padding-bottom: 2%\">+</p>"	n/a	"1332"	n/a	n/a	n/a	n/a	n/a	n/a	n/a	n/a	n/a
n/a	"image-keyboard-response"	"242"	"495139"	"0.0-5.0-2.0-1.29"	"khrdz6"	"600"	"1366"	"chrome"	"108.0.0"	"FALSE"	"Windows 10"	"60.66"	n/a	n/a	n/a	n/a	n/a	n/a	"Trial"	n/a	n/a	n/a	n/a	"NULL"	"NULL"	"NULL"	"459"	"stimuli/MullerLyer_20.04286_0.07627.png"	"arrowdown"	n/a	"MullerLyer"	"arrowup"	"1352"	"FALSE"	"MullerLyer"	"20.042860000"	"0.0762700000"	"2"	"30"
n/a	"html-keyboard-response"	"243"	"496555"	"0.0-5.0-2.0-0.30"	"khrdz6"	"600"	"1366"	"chrome"	"108.0.0"	"FALSE"	"Windows 10"	"60.66"	n/a	n/a	n/a	n/a	n/a	n/a	"fixation"	n/a	n/a	n/a	n/a	"NULL"	"NULL"	"NULL"	n/a	"<p style=\"color: black; font-size: 80px; padding-left: 30%; padding-right: 8%; padding-top: 44%; padding-bottom: 27%\">+</p>"	n/a	"1401"	n/a	n/a	n/a	n/a	n/a	n/a	n/a	n/a	n/a
n/a	"image-keyboard-response"	"244"	"497032"	"0.0-5.0-2.0-1.30"	"khrdz6"	"600"	"1366"	"chrome"	"108.0.0"	"FALSE"	"Windows 10"	"60.66"	n/a	n/a	n/a	n/a	n/a	n/a	"Trial"	n/a	n/a	n/a	n/a	"NULL"	"NULL"	"NULL"	"477"	"stimuli/MullerLyer_-20.04286_0.14541.png"	"arrowup"	n/a	"MullerLyer"	"arrowup"	"1416"	"TRUE"	"MullerLyer"	"-20.04286000"	"0.1454100000"	"2"	"31"
n/a	"html-keyboard-response"	"245"	"498158"	"0.0-5.0-2.0-0.31"	"khrdz6"	"600"	"1366"	"chrome"	"108.0.0"	"FALSE"	"Windows 10"	"60.66"	n/a	n/a	n/a	n/a	n/a	n/a	"fixation"	n/a	n/a	n/a	n/a	"NULL"	"NULL"	"NULL"	n/a	"<p style=\"color: black; font-size: 80px; padding-left: 42%; padding-right: 34%; padding-top: 14%; padding-bottom: 45%\">+</p>"	n/a	"1114"	n/a	n/a	n/a	n/a	n/a	n/a	n/a	n/a	n/a
n/a	"image-keyboard-response"	"246"	"498592"	"0.0-5.0-2.0-1.31"	"khrdz6"	"600"	"1366"	"chrome"	"108.0.0"	"FALSE"	"Windows 10"	"60.66"	n/a	n/a	n/a	n/a	n/a	n/a	"Trial"	n/a	n/a	n/a	n/a	"NULL"	"NULL"	"NULL"	"434"	"stimuli/MullerLyer_14.12857_0.35000.png"	"arrowup"	n/a	"MullerLyer"	"arrowup"	"1126"	"TRUE"	"MullerLyer"	"14.128570000"	"0.3500000000"	"2"	"32"
n/a	"html-keyboard-response"	"247"	"500070"	"0.0-5.0-2.0-0.32"	"khrdz6"	"600"	"1366"	"chrome"	"108.0.0"	"FALSE"	"Windows 10"	"60.66"	n/a	n/a	n/a	n/a	n/a	n/a	"fixation"	n/a	n/a	n/a	n/a	"NULL"	"NULL"	"NULL"	n/a	"<p style=\"color: black; font-size: 80px; padding-left: 12%; padding-right: 46%; padding-top: 32%; padding-bottom: 13%\">+</p>"	n/a	"1467"	n/a	n/a	n/a	n/a	n/a	n/a	n/a	n/a	n/a
n/a	"image-keyboard-response"	"248"	"500535"	"0.0-5.0-2.0-1.32"	"khrdz6"	"600"	"1366"	"chrome"	"108.0.0"	"FALSE"	"Windows 10"	"60.66"	n/a	n/a	n/a	n/a	n/a	n/a	"Trial"	n/a	n/a	n/a	n/a	"NULL"	"NULL"	"NULL"	"464"	"stimuli/MullerLyer_-14.12857_-0.14541.png"	"arrowdown"	n/a	"MullerLyer"	"arrowdown"	"1478"	"TRUE"	"MullerLyer"	"-14.12857000"	"-0.145410000"	"2"	"33"
n/a	"html-keyboard-response"	"249"	"501634"	"0.0-5.0-2.0-0.33"	"khrdz6"	"600"	"1366"	"chrome"	"108.0.0"	"FALSE"	"Windows 10"	"60.66"	n/a	n/a	n/a	n/a	n/a	n/a	"fixation"	n/a	n/a	n/a	n/a	"NULL"	"NULL"	"NULL"	n/a	"<p style=\"color: black; font-size: 80px; padding-left: 41%; padding-right: 20%; padding-top: 35%; padding-bottom: 10%\">+</p>"	n/a	"1089"	n/a	n/a	n/a	n/a	n/a	n/a	n/a	n/a	n/a
n/a	"image-keyboard-response"	"250"	"502179"	"0.0-5.0-2.0-1.33"	"khrdz6"	"600"	"1366"	"chrome"	"108.0.0"	"FALSE"	"Windows 10"	"60.66"	n/a	n/a	n/a	n/a	n/a	n/a	"Trial"	n/a	n/a	n/a	n/a	"NULL"	"NULL"	"NULL"	"543"	"stimuli/MullerLyer_14.12857_0.07627.png"	"arrowdown"	n/a	"MullerLyer"	"arrowup"	"1099"	"FALSE"	"MullerLyer"	"14.128570000"	"0.0762700000"	"2"	"34"
n/a	"html-keyboard-response"	"251"	"503488"	"0.0-5.0-2.0-0.34"	"khrdz6"	"600"	"1366"	"chrome"	"108.0.0"	"FALSE"	"Windows 10"	"60.66"	n/a	n/a	n/a	n/a	n/a	n/a	"fixation"	n/a	n/a	n/a	n/a	"NULL"	"NULL"	"NULL"	n/a	"<p style=\"color: black; font-size: 80px; padding-left: 4%; padding-right: 39%; padding-top: 19%; padding-bottom: 13%\">+</p>"	n/a	"1292"	n/a	n/a	n/a	n/a	n/a	n/a	n/a	n/a	n/a
n/a	"image-keyboard-response"	"252"	"504214"	"0.0-5.0-2.0-1.34"	"khrdz6"	"600"	"1366"	"chrome"	"108.0.0"	"FALSE"	"Windows 10"	"60.66"	n/a	n/a	n/a	n/a	n/a	n/a	"Trial"	n/a	n/a	n/a	n/a	"NULL"	"NULL"	"NULL"	"725"	"stimuli/MullerLyer_2.30000_0.07627.png"	"arrowup"	n/a	"MullerLyer"	"arrowup"	"1309"	"TRUE"	"MullerLyer"	"2.3000000000"	"0.0762700000"	"2"	"35"
n/a	"html-keyboard-response"	"253"	"505311"	"0.0-5.0-2.0-0.35"	"khrdz6"	"600"	"1366"	"chrome"	"108.0.0"	"FALSE"	"Windows 10"	"60.66"	n/a	n/a	n/a	n/a	n/a	n/a	"fixation"	n/a	n/a	n/a	n/a	"NULL"	"NULL"	"NULL"	n/a	"<p style=\"color: black; font-size: 80px; padding-left: 21%; padding-right: 31%; padding-top: 3%; padding-bottom: 9%\">+</p>"	n/a	"1076"	n/a	n/a	n/a	n/a	n/a	n/a	n/a	n/a	n/a
