"success"	"trial_type"	"trial_index"	"time_elapsed"	"internal_node_id"	"participant_id"	"screen_height"	"screen_width"	"browser"	"browser_version"	"mobile"	"os"	"vsync_rate"	"subject_id"	"width"	"height"	"webaudio"	"fullscreen"	"webcam"	"microphone"	"screen"	"version"	"date"	"time"	"rt"	"response"	"timeout"	"failed_images"	"failed_audio"	"failed_video"	"stimulus"	"trial_duration"	"block"	"correct_response"	"prestimulus_duration"	"correct"	"type"	"illusion_strength"	"illusion_difference"	"block_number"	"trial_number"
"TRUE"	"fullscreen"	"0"	"2793"	"0.0-0.0"	"puloo0"	"600"	"1366"	"chrome"	"108.0.0"	"FALSE"	"Windows 10"	"61.56"	"127"	n/a	n/a	n/a	n/a	n/a	n/a	n/a	n/a	n/a	n/a	n/a	"NULL"	n/a	"NULL"	"NULL"	"NULL"	n/a	n/a	n/a	n/a	n/a	n/a	n/a	n/a	n/a	n/a	n/a
n/a	"browser-check"	"1"	"3805"	"0.0-1.0"	"puloo0"	"600"	"1366"	"chrome"	"108.0.0"	"FALSE"	"Windows 10"	"61.56"	"127"	"1366"	"600"	"TRUE"	"TRUE"	"TRUE"	"TRUE"	"browser_info"	"1.0"	"07/01/2023"	"17:13:37"	n/a	"NULL"	n/a	"NULL"	"NULL"	"NULL"	n/a	n/a	n/a	n/a	n/a	n/a	n/a	n/a	n/a	n/a	n/a
n/a	"survey-text"	"2"	"9588"	"0.0-2.0"	"puloo0"	"600"	"1366"	"chrome"	"108.0.0"	"FALSE"	"Windows 10"	"61.56"	"127"	n/a	n/a	n/a	n/a	n/a	n/a	"subject_id"	n/a	n/a	n/a	"5775"	"list(subject_id = \"127\")"	n/a	"NULL"	"NULL"	"NULL"	n/a	n/a	n/a	n/a	n/a	n/a	n/a	n/a	n/a	n/a	n/a
"TRUE"	"preload"	"3"	"9599"	"0.0-3.0"	"puloo0"	"600"	"1366"	"chrome"	"108.0.0"	"FALSE"	"Windows 10"	"61.56"	"127"	n/a	n/a	n/a	n/a	n/a	n/a	n/a	n/a	n/a	n/a	n/a	"NULL"	"FALSE"	"list()"	"list()"	"list()"	n/a	n/a	n/a	n/a	n/a	n/a	n/a	n/a	n/a	n/a	n/a
n/a	"html-button-response"	"4"	"29626"	"0.0-4.0-0.0"	"puloo0"	"600"	"1366"	"chrome"	"108.0.0"	"FALSE"	"Windows 10"	"61.56"	"127"	n/a	n/a	n/a	n/a	n/a	n/a	"illusion_instructions"	n/a	n/a	n/a	"20025"	"0"	n/a	"NULL"	"NULL"	"NULL"	"<p><b>Illusion Game</b></p><p>In this game of speed and reflex, you will need to make <b>visual judgments</b> (for instance, which circle is the biggest, or which line is the longest), as fast and as correctly as possible, while <b>resisting different visual illusions</b>.</p><p>We are going to start with some examples of all the illusions you will encounter in the game.</p>"	n/a	n/a	n/a	n/a	n/a	n/a	n/a	n/a	n/a	n/a
"TRUE"	"preload"	"5"	"29663"	"0.0-4.0-1.0-0.0"	"puloo0"	"600"	"1366"	"chrome"	"108.0.0"	"FALSE"	"Windows 10"	"61.56"	"127"	n/a	n/a	n/a	n/a	n/a	n/a	n/a	n/a	n/a	n/a	n/a	"NULL"	"FALSE"	"list()"	"list()"	"list()"	n/a	n/a	n/a	n/a	n/a	n/a	n/a	n/a	n/a	n/a	n/a
n/a	"html-keyboard-response"	"6"	"81572"	"0.0-4.0-1.0-1.0"	"puloo0"	"600"	"1366"	"chrome"	"108.0.0"	"FALSE"	"Windows 10"	"61.56"	"127"	n/a	n/a	n/a	n/a	n/a	n/a	n/a	n/a	n/a	n/a	"51906"	"enter"	n/a	"NULL"	"NULL"	"NULL"	"<p><b>Practice</b></p><p>In this part, two red circles will appear side by side on the screen.</p><p>Your task is to select which <b>red circle is bigger</b> in size as fast as you can, without making errors.</p><p>Don't get distracted by the surrounding black circles around the red circles!</p><p>Press <b>the LEFT or the RIGHT arrow</b> to indicate which is the bigger <b>red circle.</b></p><div style='float: center'><img src='materials/instructions/Ebbinghaus_Demo.png' height='300'></img><p><img src='utils/answer/answer_leftright_keyboard.PNG' height='150'></img></p><p class='small'>In this example, the correct answer is the <b>LEFT arrow</b>.</p></div><p>Are you ready? <b>Press ENTER to start</b></p>"	n/a	n/a	n/a	n/a	n/a	n/a	n/a	n/a	n/a	n/a
n/a	"html-keyboard-response"	"7"	"83108"	"0.0-4.0-1.0-2.0-0.0"	"puloo0"	"600"	"1366"	"chrome"	"108.0.0"	"FALSE"	"Windows 10"	"61.56"	"127"	n/a	n/a	n/a	n/a	n/a	n/a	"fixation"	n/a	n/a	n/a	n/a	"NULL"	n/a	"NULL"	"NULL"	"NULL"	"<p style=\"color: black; font-size: 80px; padding-left: 21%; padding-right: 31%; padding-top: 30%; padding-bottom: 45%\">+</p>"	"1025"	n/a	n/a	n/a	n/a	n/a	n/a	n/a	n/a	n/a
n/a	"image-keyboard-response"	"8"	"88653"	"0.0-4.0-1.0-2.0-1.0"	"puloo0"	"600"	"1366"	"chrome"	"108.0.0"	"FALSE"	"Windows 10"	"61.56"	"127"	n/a	n/a	n/a	n/a	n/a	n/a	"Trial"	n/a	n/a	n/a	"5514"	"arrowright"	n/a	"NULL"	"NULL"	"NULL"	"stimuli/Ebbinghaus_-100000_-1.4000.png"	n/a	"Ebbinghaus"	"arrowright"	"1536"	"TRUE"	"Ebbinghaus"	"-10000000000"	"-1.400000000"	"1"	"1"
n/a	"html-keyboard-response"	"9"	"89927"	"0.0-4.0-1.0-2.0-0.1"	"puloo0"	"600"	"1366"	"chrome"	"108.0.0"	"FALSE"	"Windows 10"	"61.56"	"127"	n/a	n/a	n/a	n/a	n/a	n/a	"fixation"	n/a	n/a	n/a	n/a	"NULL"	n/a	"NULL"	"NULL"	"NULL"	"<p style=\"color: black; font-size: 80px; padding-left: 1%; padding-right: 4%; padding-top: 9%; padding-bottom: 5%\">+</p>"	"1259"	n/a	n/a	n/a	n/a	n/a	n/a	n/a	n/a	n/a
n/a	"image-keyboard-response"	"10"	"91204"	"0.0-4.0-1.0-2.0-1.1"	"puloo0"	"600"	"1366"	"chrome"	"108.0.0"	"FALSE"	"Windows 10"	"61.56"	"127"	n/a	n/a	n/a	n/a	n/a	n/a	"Trial"	n/a	n/a	n/a	"1276"	"arrowleft"	n/a	"NULL"	"NULL"	"NULL"	"stimuli/Ebbinghaus_1000000_1.40000.png"	n/a	"Ebbinghaus"	"arrowleft"	"1274"	"TRUE"	"Ebbinghaus"	"100000000000"	"1.4000000000"	"1"	"2"
n/a	"html-keyboard-response"	"11"	"92486"	"0.0-4.0-1.0-2.0-0.2"	"puloo0"	"600"	"1366"	"chrome"	"108.0.0"	"FALSE"	"Windows 10"	"61.56"	"127"	n/a	n/a	n/a	n/a	n/a	n/a	"fixation"	n/a	n/a	n/a	n/a	"NULL"	n/a	"NULL"	"NULL"	"NULL"	"<p style=\"color: black; font-size: 80px; padding-left: 38%; padding-right: 27%; padding-top: 23%; padding-bottom: 28%\">+</p>"	"1277"	n/a	n/a	n/a	n/a	n/a	n/a	n/a	n/a	n/a
n/a	"image-keyboard-response"	"12"	"93594"	"0.0-4.0-1.0-2.0-1.2"	"puloo0"	"600"	"1366"	"chrome"	"108.0.0"	"FALSE"	"Windows 10"	"61.56"	"127"	n/a	n/a	n/a	n/a	n/a	n/a	"Trial"	n/a	n/a	n/a	"1106"	"arrowleft"	n/a	"NULL"	"NULL"	"NULL"	"stimuli/Ebbinghaus_-100000_1.40000.png"	n/a	"Ebbinghaus"	"arrowleft"	"1282"	"TRUE"	"Ebbinghaus"	"-10000000000"	"1.4000000000"	"1"	"3"
n/a	"html-keyboard-response"	"13"	"94759"	"0.0-4.0-1.0-2.0-0.3"	"puloo0"	"600"	"1366"	"chrome"	"108.0.0"	"FALSE"	"Windows 10"	"61.56"	"127"	n/a	n/a	n/a	n/a	n/a	n/a	"fixation"	n/a	n/a	n/a	n/a	"NULL"	n/a	"NULL"	"NULL"	"NULL"	"<p style=\"color: black; font-size: 80px; padding-left: 43%; padding-right: 25%; padding-top: 21%; padding-bottom: 48%\">+</p>"	"1147"	n/a	n/a	n/a	n/a	n/a	n/a	n/a	n/a	n/a
n/a	"image-keyboard-response"	"14"	"95501"	"0.0-4.0-1.0-2.0-1.3"	"puloo0"	"600"	"1366"	"chrome"	"108.0.0"	"FALSE"	"Windows 10"	"61.56"	"127"	n/a	n/a	n/a	n/a	n/a	n/a	"Trial"	n/a	n/a	n/a	"740"	"arrowright"	n/a	"NULL"	"NULL"	"NULL"	"stimuli/Ebbinghaus_0000000_-1.4000.png"	n/a	"Ebbinghaus"	"arrowright"	"1165"	"TRUE"	"Ebbinghaus"	"000000000000"	"-1.400000000"	"1"	"4"
n/a	"html-keyboard-response"	"15"	"96679"	"0.0-4.0-1.0-2.0-0.4"	"puloo0"	"600"	"1366"	"chrome"	"108.0.0"	"FALSE"	"Windows 10"	"61.56"	"127"	n/a	n/a	n/a	n/a	n/a	n/a	"fixation"	n/a	n/a	n/a	n/a	"NULL"	n/a	"NULL"	"NULL"	"NULL"	"<p style=\"color: black; font-size: 80px; padding-left: 30%; padding-right: 2%; padding-top: 22%; padding-bottom: 1%\">+</p>"	"1172"	n/a	n/a	n/a	n/a	n/a	n/a	n/a	n/a	n/a
n/a	"image-keyboard-response"	"16"	"97323"	"0.0-4.0-1.0-2.0-1.4"	"puloo0"	"600"	"1366"	"chrome"	"108.0.0"	"FALSE"	"Windows 10"	"61.56"	"127"	n/a	n/a	n/a	n/a	n/a	n/a	"Trial"	n/a	n/a	n/a	"642"	"arrowright"	n/a	"NULL"	"NULL"	"NULL"	"stimuli/Ebbinghaus_1000000_-1.4000.png"	n/a	"Ebbinghaus"	"arrowright"	"1178"	"TRUE"	"Ebbinghaus"	"100000000000"	"-1.400000000"	"1"	"5"
n/a	"html-keyboard-response"	"17"	"98782"	"0.0-4.0-1.0-2.0-0.5"	"puloo0"	"600"	"1366"	"chrome"	"108.0.0"	"FALSE"	"Windows 10"	"61.56"	"127"	n/a	n/a	n/a	n/a	n/a	n/a	"fixation"	n/a	n/a	n/a	n/a	"NULL"	n/a	"NULL"	"NULL"	"NULL"	"<p style=\"color: black; font-size: 80px; padding-left: 17%; padding-right: 30%; padding-top: 19%; padding-bottom: 46%\">+</p>"	"1451"	n/a	n/a	n/a	n/a	n/a	n/a	n/a	n/a	n/a
n/a	"image-keyboard-response"	"18"	"99537"	"0.0-4.0-1.0-2.0-1.5"	"puloo0"	"600"	"1366"	"chrome"	"108.0.0"	"FALSE"	"Windows 10"	"61.56"	"127"	n/a	n/a	n/a	n/a	n/a	n/a	"Trial"	n/a	n/a	n/a	"753"	"arrowleft"	n/a	"NULL"	"NULL"	"NULL"	"stimuli/Ebbinghaus_0000000_1.40000.png"	n/a	"Ebbinghaus"	"arrowleft"	"1459"	"TRUE"	"Ebbinghaus"	"000000000000"	"1.4000000000"	"1"	"6"
n/a	"html-button-response"	"19"	"119689"	"0.0-4.0-1.0-3.0"	"puloo0"	"600"	"1366"	"chrome"	"108.0.0"	"FALSE"	"Windows 10"	"61.56"	"127"	n/a	n/a	n/a	n/a	n/a	n/a	"practice_block_results"	n/a	n/a	n/a	"20140"	"0"	n/a	"NULL"	"NULL"	"NULL"	"<p style='color:rgb(76,175,80);'> Correct Responses: <b>100.00%</b></p><hr><p style='color:rgb(233,30,99);'> Average Response Time: <b>1671.83</b> ms.</p>"	n/a	n/a	n/a	n/a	n/a	n/a	n/a	n/a	n/a	n/a
"TRUE"	"preload"	"20"	"120248"	"0.0-4.0-2.0-0.0"	"puloo0"	"600"	"1366"	"chrome"	"108.0.0"	"FALSE"	"Windows 10"	"61.56"	"127"	n/a	n/a	n/a	n/a	n/a	n/a	n/a	n/a	n/a	n/a	n/a	"NULL"	"FALSE"	"list()"	"list()"	"list()"	n/a	n/a	n/a	n/a	n/a	n/a	n/a	n/a	n/a	n/a	n/a
n/a	"html-keyboard-response"	"21"	"136483"	"0.0-4.0-2.0-1.0"	"puloo0"	"600"	"1366"	"chrome"	"108.0.0"	"FALSE"	"Windows 10"	"61.56"	"127"	n/a	n/a	n/a	n/a	n/a	n/a	n/a	n/a	n/a	n/a	"16233"	"enter"	n/a	"NULL"	"NULL"	"NULL"	"<p><b>Practice</b></p><p>In this part, two horizontal red lines will appear one above the other.</p><p>Your task is to select which <b>line is longer</b> in length as fast as you can, without making errors.</p><p>Don't get distracted by the surrounding black arrows at the end of the red lines!</p><p>Press <b>the UP or the DOWN arrow</b> to indicate where is the longer <b>red line.</b></p><div style='float: center'><img src='materials/instructions/MullerLyer_Demo.png' height='300'></img><p><img src='utils/answer/answer_updown_keyboard.PNG' height='150'></img></p><p class='small'>In this example, the correct answer is the <b>UP arrow</b>.</p></div><p>Are you ready? <b>Press ENTER to start</b></p>"	n/a	n/a	n/a	n/a	n/a	n/a	n/a	n/a	n/a	n/a
n/a	"html-keyboard-response"	"22"	"138486"	"0.0-4.0-2.0-2.0-0.0"	"puloo0"	"600"	"1366"	"chrome"	"108.0.0"	"FALSE"	"Windows 10"	"61.56"	"127"	n/a	n/a	n/a	n/a	n/a	n/a	"fixation"	n/a	n/a	n/a	n/a	"NULL"	n/a	"NULL"	"NULL"	"NULL"	"<p style=\"color: black; font-size: 80px; padding-left: 42%; padding-right: 16%; padding-top: 7%; padding-bottom: 49%\">+</p>"	"1477"	n/a	n/a	n/a	n/a	n/a	n/a	n/a	n/a	n/a
n/a	"image-keyboard-response"	"23"	"139290"	"0.0-4.0-2.0-2.0-1.0"	"puloo0"	"600"	"1366"	"chrome"	"108.0.0"	"FALSE"	"Windows 10"	"61.56"	"127"	n/a	n/a	n/a	n/a	n/a	n/a	"Trial"	n/a	n/a	n/a	"802"	"arrowdown"	n/a	"NULL"	"NULL"	"NULL"	"stimuli/MullerLyer_0000000_-0.7000.png"	n/a	"MullerLyer"	"arrowdown"	"2003"	"TRUE"	"MullerLyer"	"000000000000"	"-0.700000000"	"1"	"7"
n/a	"html-keyboard-response"	"24"	"140469"	"0.0-4.0-2.0-2.0-0.1"	"puloo0"	"600"	"1366"	"chrome"	"108.0.0"	"FALSE"	"Windows 10"	"61.56"	"127"	n/a	n/a	n/a	n/a	n/a	n/a	"fixation"	n/a	n/a	n/a	n/a	"NULL"	n/a	"NULL"	"NULL"	"NULL"	"<p style=\"color: black; font-size: 80px; padding-left: 22%; padding-right: 38%; padding-top: 1%; padding-bottom: 39%\">+</p>"	"1162"	n/a	n/a	n/a	n/a	n/a	n/a	n/a	n/a	n/a
n/a	"image-keyboard-response"	"25"	"140960"	"0.0-4.0-2.0-2.0-1.1"	"puloo0"	"600"	"1366"	"chrome"	"108.0.0"	"FALSE"	"Windows 10"	"61.56"	"127"	n/a	n/a	n/a	n/a	n/a	n/a	"Trial"	n/a	n/a	n/a	"489"	"arrowup"	n/a	"NULL"	"NULL"	"NULL"	"stimuli/MullerLyer_-230000_0.70000.png"	n/a	"MullerLyer"	"arrowup"	"1179"	"TRUE"	"MullerLyer"	"-23000000000"	"0.7000000000"	"1"	"8"
n/a	"html-keyboard-response"	"26"	"142095"	"0.0-4.0-2.0-2.0-0.2"	"puloo0"	"600"	"1366"	"chrome"	"108.0.0"	"FALSE"	"Windows 10"	"61.56"	"127"	n/a	n/a	n/a	n/a	n/a	n/a	"fixation"	n/a	n/a	n/a	n/a	"NULL"	n/a	"NULL"	"NULL"	"NULL"	"<p style=\"color: black; font-size: 80px; padding-left: 7%; padding-right: 41%; padding-top: 37%; padding-bottom: 18%\">+</p>"	"1121"	n/a	n/a	n/a	n/a	n/a	n/a	n/a	n/a	n/a
n/a	"image-keyboard-response"	"27"	"142693"	"0.0-4.0-2.0-2.0-1.2"	"puloo0"	"600"	"1366"	"chrome"	"108.0.0"	"FALSE"	"Windows 10"	"61.56"	"127"	n/a	n/a	n/a	n/a	n/a	n/a	"Trial"	n/a	n/a	n/a	"596"	"arrowdown"	n/a	"NULL"	"NULL"	"NULL"	"stimuli/MullerLyer_2300000_-0.7000.png"	n/a	"MullerLyer"	"arrowdown"	"1135"	"TRUE"	"MullerLyer"	"230000000000"	"-0.700000000"	"1"	"9"
n/a	"html-keyboard-response"	"28"	"144138"	"0.0-4.0-2.0-2.0-0.3"	"puloo0"	"600"	"1366"	"chrome"	"108.0.0"	"FALSE"	"Windows 10"	"61.56"	"127"	n/a	n/a	n/a	n/a	n/a	n/a	"fixation"	n/a	n/a	n/a	n/a	"NULL"	n/a	"NULL"	"NULL"	"NULL"	"<p style=\"color: black; font-size: 80px; padding-left: 32%; padding-right: 17%; padding-top: 26%; padding-bottom: 26%\">+</p>"	"1433"	n/a	n/a	n/a	n/a	n/a	n/a	n/a	n/a	n/a
n/a	"image-keyboard-response"	"29"	"144613"	"0.0-4.0-2.0-2.0-1.3"	"puloo0"	"600"	"1366"	"chrome"	"108.0.0"	"FALSE"	"Windows 10"	"61.56"	"127"	n/a	n/a	n/a	n/a	n/a	n/a	"Trial"	n/a	n/a	n/a	"473"	"arrowdown"	n/a	"NULL"	"NULL"	"NULL"	"stimuli/MullerLyer_-230000_-0.7000.png"	n/a	"MullerLyer"	"arrowdown"	"1445"	"TRUE"	"MullerLyer"	"-23000000000"	"-0.700000000"	"1"	"10"
n/a	"html-keyboard-response"	"30"	"145918"	"0.0-4.0-2.0-2.0-0.4"	"puloo0"	"600"	"1366"	"chrome"	"108.0.0"	"FALSE"	"Windows 10"	"61.56"	"127"	n/a	n/a	n/a	n/a	n/a	n/a	"fixation"	n/a	n/a	n/a	n/a	"NULL"	n/a	"NULL"	"NULL"	"NULL"	"<p style=\"color: black; font-size: 80px; padding-left: 35%; padding-right: 49%; padding-top: 2%; padding-bottom: 14%\">+</p>"	"1288"	n/a	n/a	n/a	n/a	n/a	n/a	n/a	n/a	n/a
n/a	"image-keyboard-response"	"31"	"146631"	"0.0-4.0-2.0-2.0-1.4"	"puloo0"	"600"	"1366"	"chrome"	"108.0.0"	"FALSE"	"Windows 10"	"61.56"	"127"	n/a	n/a	n/a	n/a	n/a	n/a	"Trial"	n/a	n/a	n/a	"711"	"arrowup"	n/a	"NULL"	"NULL"	"NULL"	"stimuli/MullerLyer_0000000_0.70000.png"	n/a	"MullerLyer"	"arrowup"	"1305"	"TRUE"	"MullerLyer"	"000000000000"	"0.7000000000"	"1"	"11"
n/a	"html-keyboard-response"	"32"	"147724"	"0.0-4.0-2.0-2.0-0.5"	"puloo0"	"600"	"1366"	"chrome"	"108.0.0"	"FALSE"	"Windows 10"	"61.56"	"127"	n/a	n/a	n/a	n/a	n/a	n/a	"fixation"	n/a	n/a	n/a	n/a	"NULL"	n/a	"NULL"	"NULL"	"NULL"	"<p style=\"color: black; font-size: 80px; padding-left: 3%; padding-right: 45%; padding-top: 37%; padding-bottom: 2%\">+</p>"	"1076"	n/a	n/a	n/a	n/a	n/a	n/a	n/a	n/a	n/a
n/a	"image-keyboard-response"	"33"	"148428"	"0.0-4.0-2.0-2.0-1.5"	"puloo0"	"600"	"1366"	"chrome"	"108.0.0"	"FALSE"	"Windows 10"	"61.56"	"127"	n/a	n/a	n/a	n/a	n/a	n/a	"Trial"	n/a	n/a	n/a	"700"	"arrowup"	n/a	"NULL"	"NULL"	"NULL"	"stimuli/MullerLyer_2300000_0.70000.png"	n/a	"MullerLyer"	"arrowup"	"1093"	"TRUE"	"MullerLyer"	"230000000000"	"0.7000000000"	"1"	"12"
n/a	"html-button-response"	"34"	"152305"	"0.0-4.0-2.0-3.0"	"puloo0"	"600"	"1366"	"chrome"	"108.0.0"	"FALSE"	"Windows 10"	"61.56"	"127"	n/a	n/a	n/a	n/a	n/a	n/a	"practice_block_results"	n/a	n/a	n/a	"3876"	"0"	n/a	"NULL"	"NULL"	"NULL"	"<p style='color:rgb(76,175,80);'> Correct Responses: <b>100.00%</b></p><hr><p style='color:rgb(233,30,99);'> Average Response Time: <b>628.50</b> ms.</p>"	n/a	n/a	n/a	n/a	n/a	n/a	n/a	n/a	n/a	n/a
"TRUE"	"preload"	"35"	"152849"	"0.0-4.0-3.0-0.0"	"puloo0"	"600"	"1366"	"chrome"	"108.0.0"	"FALSE"	"Windows 10"	"61.56"	"127"	n/a	n/a	n/a	n/a	n/a	n/a	n/a	n/a	n/a	n/a	n/a	"NULL"	"FALSE"	"list()"	"list()"	"list()"	n/a	n/a	n/a	n/a	n/a	n/a	n/a	n/a	n/a	n/a	n/a
n/a	"html-keyboard-response"	"36"	"160219"	"0.0-4.0-3.0-1.0"	"puloo0"	"600"	"1366"	"chrome"	"108.0.0"	"FALSE"	"Windows 10"	"61.56"	"127"	n/a	n/a	n/a	n/a	n/a	n/a	n/a	n/a	n/a	n/a	"7369"	"enter"	n/a	"NULL"	"NULL"	"NULL"	"<p><b>Practice</b></p><p>In this part, two red lines will appear side by side.</p><p>Your task is to tell <b>which line is longer</b> in length, regardless of their orientation, as fast as you can, and without making errors.</p><p>Don't get distracted by the orientation of the lines!</p><p>Press <b>the LEFT or the RIGHT arrow</b> to indicate which <b>line is the longer one.</b></p><div style='float: center'><img src='materials/instructions/VerticalHorizontal_Demo.png' height='300'></img><p><img src='utils/answer/answer_leftright_keyboard.PNG' height='150'></img></p><p class='small'>In this example, the correct answer is the <b>LEFT arrow</b>.</p></div><p>Are you ready? <b>Press ENTER to start</b></p>"	n/a	n/a	n/a	n/a	n/a	n/a	n/a	n/a	n/a	n/a
n/a	"html-keyboard-response"	"37"	"162158"	"0.0-4.0-3.0-2.0-0.0"	"puloo0"	"600"	"1366"	"chrome"	"108.0.0"	"FALSE"	"Windows 10"	"61.56"	"127"	n/a	n/a	n/a	n/a	n/a	n/a	"fixation"	n/a	n/a	n/a	n/a	"NULL"	n/a	"NULL"	"NULL"	"NULL"	"<p style=\"color: black; font-size: 80px; padding-left: 7%; padding-right: 29%; padding-top: 49%; padding-bottom: 39%\">+</p>"	"1404"	n/a	n/a	n/a	n/a	n/a	n/a	n/a	n/a	n/a
n/a	"image-keyboard-response"	"38"	"163376"	"0.0-4.0-3.0-2.0-1.0"	"puloo0"	"600"	"1366"	"chrome"	"108.0.0"	"FALSE"	"Windows 10"	"61.56"	"127"	n/a	n/a	n/a	n/a	n/a	n/a	"Trial"	n/a	n/a	n/a	"1217"	"arrowright"	n/a	"NULL"	"NULL"	"NULL"	"stimuli/VerticalHorizontal_-330000_-0.9000.png"	n/a	"VerticalHorizontal"	"arrowright"	"1939"	"TRUE"	"VerticalHorizontal"	"-33000000000"	"-0.900000000"	"1"	"13"
n/a	"html-keyboard-response"	"39"	"164860"	"0.0-4.0-3.0-2.0-0.1"	"puloo0"	"600"	"1366"	"chrome"	"108.0.0"	"FALSE"	"Windows 10"	"61.56"	"127"	n/a	n/a	n/a	n/a	n/a	n/a	"fixation"	n/a	n/a	n/a	n/a	"NULL"	n/a	"NULL"	"NULL"	"NULL"	"<p style=\"color: black; font-size: 80px; padding-left: 14%; padding-right: 15%; padding-top: 13%; padding-bottom: 27%\">+</p>"	"1472"	n/a	n/a	n/a	n/a	n/a	n/a	n/a	n/a	n/a
n/a	"image-keyboard-response"	"40"	"165277"	"0.0-4.0-3.0-2.0-1.1"	"puloo0"	"600"	"1366"	"chrome"	"108.0.0"	"FALSE"	"Windows 10"	"61.56"	"127"	n/a	n/a	n/a	n/a	n/a	n/a	"Trial"	n/a	n/a	n/a	"416"	"arrowleft"	n/a	"NULL"	"NULL"	"NULL"	"stimuli/VerticalHorizontal_-330000_0.90000.png"	n/a	"VerticalHorizontal"	"arrowleft"	"1484"	"TRUE"	"VerticalHorizontal"	"-33000000000"	"0.9000000000"	"1"	"14"
n/a	"html-keyboard-response"	"41"	"166296"	"0.0-4.0-3.0-2.0-0.2"	"puloo0"	"600"	"1366"	"chrome"	"108.0.0"	"FALSE"	"Windows 10"	"61.56"	"127"	n/a	n/a	n/a	n/a	n/a	n/a	"fixation"	n/a	n/a	n/a	n/a	"NULL"	n/a	"NULL"	"NULL"	"NULL"	"<p style=\"color: black; font-size: 80px; padding-left: 11%; padding-right: 27%; padding-top: 8%; padding-bottom: 7%\">+</p>"	"1012"	n/a	n/a	n/a	n/a	n/a	n/a	n/a	n/a	n/a
n/a	"image-keyboard-response"	"42"	"166695"	"0.0-4.0-3.0-2.0-1.2"	"puloo0"	"600"	"1366"	"chrome"	"108.0.0"	"FALSE"	"Windows 10"	"61.56"	"127"	n/a	n/a	n/a	n/a	n/a	n/a	"Trial"	n/a	n/a	n/a	"398"	"arrowright"	n/a	"NULL"	"NULL"	"NULL"	"stimuli/VerticalHorizontal_3300000_-0.9000.png"	n/a	"VerticalHorizontal"	"arrowright"	"1019"	"TRUE"	"VerticalHorizontal"	"330000000000"	"-0.900000000"	"1"	"15"
n/a	"html-keyboard-response"	"43"	"167938"	"0.0-4.0-3.0-2.0-0.3"	"puloo0"	"600"	"1366"	"chrome"	"108.0.0"	"FALSE"	"Windows 10"	"61.56"	"127"	n/a	n/a	n/a	n/a	n/a	n/a	"fixation"	n/a	n/a	n/a	n/a	"NULL"	n/a	"NULL"	"NULL"	"NULL"	"<p style=\"color: black; font-size: 80px; padding-left: 34%; padding-right: 30%; padding-top: 8%; padding-bottom: 5%\">+</p>"	"1231"	n/a	n/a	n/a	n/a	n/a	n/a	n/a	n/a	n/a
n/a	"image-keyboard-response"	"44"	"168373"	"0.0-4.0-3.0-2.0-1.3"	"puloo0"	"600"	"1366"	"chrome"	"108.0.0"	"FALSE"	"Windows 10"	"61.56"	"127"	n/a	n/a	n/a	n/a	n/a	n/a	"Trial"	n/a	n/a	n/a	"433"	"arrowright"	n/a	"NULL"	"NULL"	"NULL"	"stimuli/VerticalHorizontal_0000000_-0.9000.png"	n/a	"VerticalHorizontal"	"arrowright"	"1243"	"TRUE"	"VerticalHorizontal"	"000000000000"	"-0.900000000"	"1"	"16"
n/a	"html-keyboard-response"	"45"	"169827"	"0.0-4.0-3.0-2.0-0.4"	"puloo0"	"600"	"1366"	"chrome"	"108.0.0"	"FALSE"	"Windows 10"	"61.56"	"127"	n/a	n/a	n/a	n/a	n/a	n/a	"fixation"	n/a	n/a	n/a	n/a	"NULL"	n/a	"NULL"	"NULL"	"NULL"	"<p style=\"color: black; font-size: 80px; padding-left: 29%; padding-right: 21%; padding-top: 3%; padding-bottom: 4%\">+</p>"	"1435"	n/a	n/a	n/a	n/a	n/a	n/a	n/a	n/a	n/a
n/a	"image-keyboard-response"	"46"	"170265"	"0.0-4.0-3.0-2.0-1.4"	"puloo0"	"600"	"1366"	"chrome"	"108.0.0"	"FALSE"	"Windows 10"	"61.56"	"127"	n/a	n/a	n/a	n/a	n/a	n/a	"Trial"	n/a	n/a	n/a	"436"	"arrowleft"	n/a	"NULL"	"NULL"	"NULL"	"stimuli/VerticalHorizontal_0000000_0.90000.png"	n/a	"VerticalHorizontal"	"arrowleft"	"1454"	"TRUE"	"VerticalHorizontal"	"000000000000"	"0.9000000000"	"1"	"17"
n/a	"html-keyboard-response"	"47"	"171749"	"0.0-4.0-3.0-2.0-0.5"	"puloo0"	"600"	"1366"	"chrome"	"108.0.0"	"FALSE"	"Windows 10"	"61.56"	"127"	n/a	n/a	n/a	n/a	n/a	n/a	"fixation"	n/a	n/a	n/a	n/a	"NULL"	n/a	"NULL"	"NULL"	"NULL"	"<p style=\"color: black; font-size: 80px; padding-left: 46%; padding-right: 15%; padding-top: 6%; padding-bottom: 7%\">+</p>"	"1479"	n/a	n/a	n/a	n/a	n/a	n/a	n/a	n/a	n/a
n/a	"image-keyboard-response"	"48"	"172164"	"0.0-4.0-3.0-2.0-1.5"	"puloo0"	"600"	"1366"	"chrome"	"108.0.0"	"FALSE"	"Windows 10"	"61.56"	"127"	n/a	n/a	n/a	n/a	n/a	n/a	"Trial"	n/a	n/a	n/a	"413"	"arrowright"	n/a	"NULL"	"NULL"	"NULL"	"stimuli/VerticalHorizontal_3300000_0.90000.png"	n/a	"VerticalHorizontal"	"arrowleft"	"1484"	"FALSE"	"VerticalHorizontal"	"330000000000"	"0.9000000000"	"1"	"18"
n/a	"html-button-response"	"49"	"176340"	"0.0-4.0-3.0-3.0"	"puloo0"	"600"	"1366"	"chrome"	"108.0.0"	"FALSE"	"Windows 10"	"61.56"	"127"	n/a	n/a	n/a	n/a	n/a	n/a	"practice_block_results"	n/a	n/a	n/a	"4172"	"0"	n/a	"NULL"	"NULL"	"NULL"	"<p style='color:rgb(76,175,80);'> Correct Responses: <b>83.33%</b></p><hr><p style='color:rgb(233,30,99);'> Average Response Time: <b>552.17</b> ms.</p>"	n/a	n/a	n/a	n/a	n/a	n/a	n/a	n/a	n/a	n/a
n/a	"html-button-response"	"50"	"248246"	"0.0-4.0-4.0"	"puloo0"	"600"	"1366"	"chrome"	"108.0.0"	"FALSE"	"Windows 10"	"61.56"	"127"	n/a	n/a	n/a	n/a	n/a	n/a	"practice_debrief"	n/a	n/a	n/a	"71387"	"0"	n/a	"NULL"	"NULL"	"NULL"	"<p><b>TRAINING COMPLETED</b></p><p>In the next phase, there will be more trials, and some might be harder too.<br> Moreover, after each illusion block, a <b>score</b> will be calculated based on speed (time you took to answer) and accuracy (number of errors).</p><p>Try to keep up a high score!</p><br><p>Note that it can be <i>really</i> challenging at times, so you will need to rely on your <b>intuition</b> and gut feeling to answer as fast as you can without making errors.</p><p>Each illusion block will be repeated two times (so that you have the opportunity to improve your score), but the order of the blocks is random.</p><p>Remember, your goal is to be as <b>fast</b> and <b>accurate</b> as possible. Good luck!</p><br>"	n/a	n/a	n/a	n/a	n/a	n/a	n/a	n/a	n/a	n/a
"TRUE"	"preload"	"51"	"248445"	"0.0-5.0-0.0"	"puloo0"	"600"	"1366"	"chrome"	"108.0.0"	"FALSE"	"Windows 10"	"61.56"	"127"	n/a	n/a	n/a	n/a	n/a	n/a	n/a	n/a	n/a	n/a	n/a	"NULL"	"FALSE"	"list()"	"list()"	"list()"	n/a	n/a	n/a	n/a	n/a	n/a	n/a	n/a	n/a	n/a	n/a
n/a	"html-keyboard-response"	"52"	"253463"	"0.0-5.0-1.0"	"puloo0"	"600"	"1366"	"chrome"	"108.0.0"	"FALSE"	"Windows 10"	"61.56"	"127"	n/a	n/a	n/a	n/a	n/a	n/a	n/a	n/a	n/a	n/a	"5018"	"enter"	n/a	"NULL"	"NULL"	"NULL"	"<p><b>Part 1/6</b></p><p>In this part, two red circles will appear side by side on the screen.</p><p>Your task is to select which <b>red circle is bigger</b> in size as fast as you can, without making errors.</p><p>Don't get distracted by the surrounding black circles around the red circles!</p><p>Press <b>the LEFT or the RIGHT arrow</b> to indicate which is the bigger <b>red circle.</b></p><div style='float: center'><img src='materials/instructions/Ebbinghaus_Demo.png' height='300'></img><p><img src='utils/answer/answer_leftright_keyboard.PNG' height='150'></img></p><p class='small'>In this example, the correct answer is the <b>LEFT arrow</b>.</p></div><p>Are you ready? <b>Press ENTER to start</b></p>"	n/a	n/a	n/a	n/a	n/a	n/a	n/a	n/a	n/a	n/a
n/a	"html-keyboard-response"	"53"	"255373"	"0.0-5.0-2.0-0.0"	"puloo0"	"600"	"1366"	"chrome"	"108.0.0"	"FALSE"	"Windows 10"	"61.56"	"127"	n/a	n/a	n/a	n/a	n/a	n/a	"fixation"	n/a	n/a	n/a	n/a	"NULL"	n/a	"NULL"	"NULL"	"NULL"	"<p style=\"color: black; font-size: 80px; padding-left: 41%; padding-right: 26%; padding-top: 39%; padding-bottom: 45%\">+</p>"	"1399"	n/a	n/a	n/a	n/a	n/a	n/a	n/a	n/a	n/a
n/a	"image-keyboard-response"	"54"	"255877"	"0.0-5.0-2.0-1.0"	"puloo0"	"600"	"1366"	"chrome"	"108.0.0"	"FALSE"	"Windows 10"	"61.56"	"127"	n/a	n/a	n/a	n/a	n/a	n/a	"Trial"	n/a	n/a	n/a	"502"	"arrowright"	n/a	"NULL"	"NULL"	"NULL"	"stimuli/Ebbinghaus_0.61429_-0.2150.png"	n/a	"Ebbinghaus"	"arrowright"	"1910"	"TRUE"	"Ebbinghaus"	"0.6142900000"	"-0.215000000"	"1"	"19"
n/a	"html-keyboard-response"	"55"	"257190"	"0.0-5.0-2.0-0.1"	"puloo0"	"600"	"1366"	"chrome"	"108.0.0"	"FALSE"	"Windows 10"	"61.56"	"127"	n/a	n/a	n/a	n/a	n/a	n/a	"fixation"	n/a	n/a	n/a	n/a	"NULL"	n/a	"NULL"	"NULL"	"NULL"	"<p style=\"color: black; font-size: 80px; padding-left: 29%; padding-right: 19%; padding-top: 10%; padding-bottom: 49%\">+</p>"	"1305"	n/a	n/a	n/a	n/a	n/a	n/a	n/a	n/a	n/a
n/a	"image-keyboard-response"	"56"	"257763"	"0.0-5.0-2.0-1.1"	"puloo0"	"600"	"1366"	"chrome"	"108.0.0"	"FALSE"	"Windows 10"	"61.56"	"127"	n/a	n/a	n/a	n/a	n/a	n/a	"Trial"	n/a	n/a	n/a	"572"	"arrowleft"	n/a	"NULL"	"NULL"	"NULL"	"stimuli/Ebbinghaus_0.61429_0.15857.png"	n/a	"Ebbinghaus"	"arrowleft"	"1313"	"TRUE"	"Ebbinghaus"	"0.6142900000"	"0.1585700000"	"1"	"20"
n/a	"html-keyboard-response"	"57"	"259173"	"0.0-5.0-2.0-0.2"	"puloo0"	"600"	"1366"	"chrome"	"108.0.0"	"FALSE"	"Windows 10"	"61.56"	"127"	n/a	n/a	n/a	n/a	n/a	n/a	"fixation"	n/a	n/a	n/a	n/a	"NULL"	n/a	"NULL"	"NULL"	"NULL"	"<p style=\"color: black; font-size: 80px; padding-left: 12%; padding-right: 15%; padding-top: 30%; padding-bottom: 29%\">+</p>"	"1392"	n/a	n/a	n/a	n/a	n/a	n/a	n/a	n/a	n/a
n/a	"image-keyboard-response"	"58"	"260240"	"0.0-5.0-2.0-1.2"	"puloo0"	"600"	"1366"	"chrome"	"108.0.0"	"FALSE"	"Windows 10"	"61.56"	"127"	n/a	n/a	n/a	n/a	n/a	n/a	"Trial"	n/a	n/a	n/a	"1065"	"arrowleft"	n/a	"NULL"	"NULL"	"NULL"	"stimuli/Ebbinghaus_0.61429_-0.11071.png"	n/a	"Ebbinghaus"	"arrowright"	"1410"	"FALSE"	"Ebbinghaus"	"0.6142900000"	"-0.110710000"	"1"	"21"
n/a	"html-keyboard-response"	"59"	"261474"	"0.0-5.0-2.0-0.3"	"puloo0"	"600"	"1366"	"chrome"	"108.0.0"	"FALSE"	"Windows 10"	"61.56"	"127"	n/a	n/a	n/a	n/a	n/a	n/a	"fixation"	n/a	n/a	n/a	n/a	"NULL"	n/a	"NULL"	"NULL"	"NULL"	"<p style=\"color: black; font-size: 80px; padding-left: 48%; padding-right: 21%; padding-top: 7%; padding-bottom: 7%\">+</p>"	"1225"	n/a	n/a	n/a	n/a	n/a	n/a	n/a	n/a	n/a
n/a	"image-keyboard-response"	"60"	"262344"	"0.0-5.0-2.0-1.3"	"puloo0"	"600"	"1366"	"chrome"	"108.0.0"	"FALSE"	"Windows 10"	"61.56"	"127"	n/a	n/a	n/a	n/a	n/a	n/a	"Trial"	n/a	n/a	n/a	"868"	"arrowleft"	n/a	"NULL"	"NULL"	"NULL"	"stimuli/Ebbinghaus_0.10000_0.11071.png"	n/a	"Ebbinghaus"	"arrowleft"	"1234"	"TRUE"	"Ebbinghaus"	"0.1000000000"	"0.1107100000"	"1"	"22"
n/a	"html-keyboard-response"	"61"	"263420"	"0.0-5.0-2.0-0.4"	"puloo0"	"600"	"1366"	"chrome"	"108.0.0"	"FALSE"	"Windows 10"	"61.56"	"127"	n/a	n/a	n/a	n/a	n/a	n/a	"fixation"	n/a	n/a	n/a	n/a	"NULL"	n/a	"NULL"	"NULL"	"NULL"	"<p style=\"color: black; font-size: 80px; padding-left: 17%; padding-right: 27%; padding-top: 40%; padding-bottom: 48%\">+</p>"	"1058"	n/a	n/a	n/a	n/a	n/a	n/a	n/a	n/a	n/a
n/a	"image-keyboard-response"	"62"	"264178"	"0.0-5.0-2.0-1.4"	"puloo0"	"600"	"1366"	"chrome"	"108.0.0"	"FALSE"	"Windows 10"	"61.56"	"127"	n/a	n/a	n/a	n/a	n/a	n/a	"Trial"	n/a	n/a	n/a	"753"	"arrowright"	n/a	"NULL"	"NULL"	"NULL"	"stimuli/Ebbinghaus_0.10000_-0.15857.png"	n/a	"Ebbinghaus"	"arrowright"	"1076"	"TRUE"	"Ebbinghaus"	"0.1000000000"	"-0.158570000"	"1"	"23"
n/a	"html-keyboard-response"	"63"	"265600"	"0.0-5.0-2.0-0.5"	"puloo0"	"600"	"1366"	"chrome"	"108.0.0"	"FALSE"	"Windows 10"	"61.56"	"127"	n/a	n/a	n/a	n/a	n/a	n/a	"fixation"	n/a	n/a	n/a	n/a	"NULL"	n/a	"NULL"	"NULL"	"NULL"	"<p style=\"color: black; font-size: 80px; padding-left: 16%; padding-right: 3%; padding-top: 26%; padding-bottom: 15%\">+</p>"	"1416"	n/a	n/a	n/a	n/a	n/a	n/a	n/a	n/a	n/a
n/a	"image-keyboard-response"	"64"	"266305"	"0.0-5.0-2.0-1.5"	"puloo0"	"600"	"1366"	"chrome"	"108.0.0"	"FALSE"	"Windows 10"	"61.56"	"127"	n/a	n/a	n/a	n/a	n/a	n/a	"Trial"	n/a	n/a	n/a	"704"	"arrowright"	n/a	"NULL"	"NULL"	"NULL"	"stimuli/Ebbinghaus_0.10000_-0.11071.png"	n/a	"Ebbinghaus"	"arrowright"	"1422"	"TRUE"	"Ebbinghaus"	"0.1000000000"	"-0.110710000"	"1"	"24"
n/a	"html-keyboard-response"	"65"	"267799"	"0.0-5.0-2.0-0.6"	"puloo0"	"600"	"1366"	"chrome"	"108.0.0"	"FALSE"	"Windows 10"	"61.56"	"127"	n/a	n/a	n/a	n/a	n/a	n/a	"fixation"	n/a	n/a	n/a	n/a	"NULL"	n/a	"NULL"	"NULL"	"NULL"	"<p style=\"color: black; font-size: 80px; padding-left: 48%; padding-right: 13%; padding-top: 18%; padding-bottom: 1%\">+</p>"	"1480"	n/a	n/a	n/a	n/a	n/a	n/a	n/a	n/a	n/a
n/a	"image-keyboard-response"	"66"	"268468"	"0.0-5.0-2.0-1.6"	"puloo0"	"600"	"1366"	"chrome"	"108.0.0"	"FALSE"	"Windows 10"	"61.56"	"127"	n/a	n/a	n/a	n/a	n/a	n/a	"Trial"	n/a	n/a	n/a	"668"	"arrowright"	n/a	"NULL"	"NULL"	"NULL"	"stimuli/Ebbinghaus_0.35714_-0.2150.png"	n/a	"Ebbinghaus"	"arrowright"	"1494"	"TRUE"	"Ebbinghaus"	"0.3571400000"	"-0.215000000"	"1"	"25"
n/a	"html-keyboard-response"	"67"	"269860"	"0.0-5.0-2.0-0.7"	"puloo0"	"600"	"1366"	"chrome"	"108.0.0"	"FALSE"	"Windows 10"	"61.56"	"127"	n/a	n/a	n/a	n/a	n/a	n/a	"fixation"	n/a	n/a	n/a	n/a	"NULL"	n/a	"NULL"	"NULL"	"NULL"	"<p style=\"color: black; font-size: 80px; padding-left: 49%; padding-right: 15%; padding-top: 5%; padding-bottom: 25%\">+</p>"	"1386"	n/a	n/a	n/a	n/a	n/a	n/a	n/a	n/a	n/a
n/a	"image-keyboard-response"	"68"	"270440"	"0.0-5.0-2.0-1.7"	"puloo0"	"600"	"1366"	"chrome"	"108.0.0"	"FALSE"	"Windows 10"	"61.56"	"127"	n/a	n/a	n/a	n/a	n/a	n/a	"Trial"	n/a	n/a	n/a	"577"	"arrowleft"	n/a	"NULL"	"NULL"	"NULL"	"stimuli/Ebbinghaus_-0.35714_0.28000.png"	n/a	"Ebbinghaus"	"arrowleft"	"1392"	"TRUE"	"Ebbinghaus"	"-0.357140000"	"0.2800000000"	"1"	"26"
n/a	"html-keyboard-response"	"69"	"271783"	"0.0-5.0-2.0-0.8"	"puloo0"	"600"	"1366"	"chrome"	"108.0.0"	"FALSE"	"Windows 10"	"61.56"	"127"	n/a	n/a	n/a	n/a	n/a	n/a	"fixation"	n/a	n/a	n/a	n/a	"NULL"	n/a	"NULL"	"NULL"	"NULL"	"<p style=\"color: black; font-size: 80px; padding-left: 15%; padding-right: 7%; padding-top: 3%; padding-bottom: 12%\">+</p>"	"1336"	n/a	n/a	n/a	n/a	n/a	n/a	n/a	n/a	n/a
n/a	"image-keyboard-response"	"70"	"272372"	"0.0-5.0-2.0-1.8"	"puloo0"	"600"	"1366"	"chrome"	"108.0.0"	"FALSE"	"Windows 10"	"61.56"	"127"	n/a	n/a	n/a	n/a	n/a	n/a	"Trial"	n/a	n/a	n/a	"587"	"arrowleft"	n/a	"NULL"	"NULL"	"NULL"	"stimuli/Ebbinghaus_0.10000_0.21500.png"	n/a	"Ebbinghaus"	"arrowleft"	"1343"	"TRUE"	"Ebbinghaus"	"0.1000000000"	"0.2150000000"	"1"	"27"
n/a	"html-keyboard-response"	"71"	"273469"	"0.0-5.0-2.0-0.9"	"puloo0"	"600"	"1366"	"chrome"	"108.0.0"	"FALSE"	"Windows 10"	"61.56"	"127"	n/a	n/a	n/a	n/a	n/a	n/a	"fixation"	n/a	n/a	n/a	n/a	"NULL"	n/a	"NULL"	"NULL"	"NULL"	"<p style=\"color: black; font-size: 80px; padding-left: 43%; padding-right: 16%; padding-top: 23%; padding-bottom: 47%\">+</p>"	"1091"	n/a	n/a	n/a	n/a	n/a	n/a	n/a	n/a	n/a
n/a	"image-keyboard-response"	"72"	"274183"	"0.0-5.0-2.0-1.9"	"puloo0"	"600"	"1366"	"chrome"	"108.0.0"	"FALSE"	"Windows 10"	"61.56"	"127"	n/a	n/a	n/a	n/a	n/a	n/a	"Trial"	n/a	n/a	n/a	"710"	"arrowleft"	n/a	"NULL"	"NULL"	"NULL"	"stimuli/Ebbinghaus_-0.1000_0.21500.png"	n/a	"Ebbinghaus"	"arrowleft"	"1097"	"TRUE"	"Ebbinghaus"	"-0.100000000"	"0.2150000000"	"1"	"28"
n/a	"html-keyboard-response"	"73"	"275665"	"0.0-5.0-2.0-0.10"	"puloo0"	"600"	"1366"	"chrome"	"108.0.0"	"FALSE"	"Windows 10"	"61.56"	"127"	n/a	n/a	n/a	n/a	n/a	n/a	"fixation"	n/a	n/a	n/a	n/a	"NULL"	n/a	"NULL"	"NULL"	"NULL"	"<p style=\"color: black; font-size: 80px; padding-left: 44%; padding-right: 33%; padding-top: 46%; padding-bottom: 35%\">+</p>"	"1472"	n/a	n/a	n/a	n/a	n/a	n/a	n/a	n/a	n/a
n/a	"image-keyboard-response"	"74"	"276533"	"0.0-5.0-2.0-1.10"	"puloo0"	"600"	"1366"	"chrome"	"108.0.0"	"FALSE"	"Windows 10"	"61.56"	"127"	n/a	n/a	n/a	n/a	n/a	n/a	"Trial"	n/a	n/a	n/a	"865"	"arrowright"	n/a	"NULL"	"NULL"	"NULL"	"stimuli/Ebbinghaus_0.61429_-0.2800.png"	n/a	"Ebbinghaus"	"arrowright"	"1482"	"TRUE"	"Ebbinghaus"	"0.6142900000"	"-0.280000000"	"1"	"29"
n/a	"html-keyboard-response"	"75"	"277944"	"0.0-5.0-2.0-0.11"	"puloo0"	"600"	"1366"	"chrome"	"108.0.0"	"FALSE"	"Windows 10"	"61.56"	"127"	n/a	n/a	n/a	n/a	n/a	n/a	"fixation"	n/a	n/a	n/a	n/a	"NULL"	n/a	"NULL"	"NULL"	"NULL"	"<p style=\"color: black; font-size: 80px; padding-left: 6%; padding-right: 10%; padding-top: 48%; padding-bottom: 31%\">+</p>"	"1390"	n/a	n/a	n/a	n/a	n/a	n/a	n/a	n/a	n/a
n/a	"image-keyboard-response"	"76"	"278620"	"0.0-5.0-2.0-1.11"	"puloo0"	"600"	"1366"	"chrome"	"108.0.0"	"FALSE"	"Windows 10"	"61.56"	"127"	n/a	n/a	n/a	n/a	n/a	n/a	"Trial"	n/a	n/a	n/a	"674"	"arrowright"	n/a	"NULL"	"NULL"	"NULL"	"stimuli/Ebbinghaus_-0.87143_-0.2150.png"	n/a	"Ebbinghaus"	"arrowright"	"1411"	"TRUE"	"Ebbinghaus"	"-0.871430000"	"-0.215000000"	"1"	"30"
n/a	"html-keyboard-response"	"77"	"279694"	"0.0-5.0-2.0-0.12"	"puloo0"	"600"	"1366"	"chrome"	"108.0.0"	"FALSE"	"Windows 10"	"61.56"	"127"	n/a	n/a	n/a	n/a	n/a	n/a	"fixation"	n/a	n/a	n/a	n/a	"NULL"	n/a	"NULL"	"NULL"	"NULL"	"<p style=\"color: black; font-size: 80px; padding-left: 26%; padding-right: 37%; padding-top: 29%; padding-bottom: 1%\">+</p>"	"1056"	n/a	n/a	n/a	n/a	n/a	n/a	n/a	n/a	n/a
n/a	"image-keyboard-response"	"78"	"280223"	"0.0-5.0-2.0-1.12"	"puloo0"	"600"	"1366"	"chrome"	"108.0.0"	"FALSE"	"Windows 10"	"61.56"	"127"	n/a	n/a	n/a	n/a	n/a	n/a	"Trial"	n/a	n/a	n/a	"528"	"arrowright"	n/a	"NULL"	"NULL"	"NULL"	"stimuli/Ebbinghaus_-0.61429_-0.2800.png"	n/a	"Ebbinghaus"	"arrowright"	"1074"	"TRUE"	"Ebbinghaus"	"-0.614290000"	"-0.280000000"	"1"	"31"
n/a	"html-keyboard-response"	"79"	"281664"	"0.0-5.0-2.0-0.13"	"puloo0"	"600"	"1366"	"chrome"	"108.0.0"	"FALSE"	"Windows 10"	"61.56"	"127"	n/a	n/a	n/a	n/a	n/a	n/a	"fixation"	n/a	n/a	n/a	n/a	"NULL"	n/a	"NULL"	"NULL"	"NULL"	"<p style=\"color: black; font-size: 80px; padding-left: 46%; padding-right: 29%; padding-top: 27%; padding-bottom: 43%\">+</p>"	"1436"	n/a	n/a	n/a	n/a	n/a	n/a	n/a	n/a	n/a
n/a	"image-keyboard-response"	"80"	"282464"	"0.0-5.0-2.0-1.13"	"puloo0"	"600"	"1366"	"chrome"	"108.0.0"	"FALSE"	"Windows 10"	"61.56"	"127"	n/a	n/a	n/a	n/a	n/a	n/a	"Trial"	n/a	n/a	n/a	"798"	"arrowleft"	n/a	"NULL"	"NULL"	"NULL"	"stimuli/Ebbinghaus_0.10000_0.15857.png"	n/a	"Ebbinghaus"	"arrowleft"	"1441"	"TRUE"	"Ebbinghaus"	"0.1000000000"	"0.1585700000"	"1"	"32"
n/a	"html-keyboard-response"	"81"	"283612"	"0.0-5.0-2.0-0.14"	"puloo0"	"600"	"1366"	"chrome"	"108.0.0"	"FALSE"	"Windows 10"	"61.56"	"127"	n/a	n/a	n/a	n/a	n/a	n/a	"fixation"	n/a	n/a	n/a	n/a	"NULL"	n/a	"NULL"	"NULL"	"NULL"	"<p style=\"color: black; font-size: 80px; padding-left: 16%; padding-right: 35%; padding-top: 22%; padding-bottom: 45%\">+</p>"	"1133"	n/a	n/a	n/a	n/a	n/a	n/a	n/a	n/a	n/a
n/a	"image-keyboard-response"	"82"	"284198"	"0.0-5.0-2.0-1.14"	"puloo0"	"600"	"1366"	"chrome"	"108.0.0"	"FALSE"	"Windows 10"	"61.56"	"127"	n/a	n/a	n/a	n/a	n/a	n/a	"Trial"	n/a	n/a	n/a	"585"	"arrowleft"	n/a	"NULL"	"NULL"	"NULL"	"stimuli/Ebbinghaus_0.35714_0.11071.png"	n/a	"Ebbinghaus"	"arrowleft"	"1148"	"TRUE"	"Ebbinghaus"	"0.3571400000"	"0.1107100000"	"1"	"33"
n/a	"html-keyboard-response"	"83"	"285417"	"0.0-5.0-2.0-0.15"	"puloo0"	"600"	"1366"	"chrome"	"108.0.0"	"FALSE"	"Windows 10"	"61.56"	"127"	n/a	n/a	n/a	n/a	n/a	n/a	"fixation"	n/a	n/a	n/a	n/a	"NULL"	n/a	"NULL"	"NULL"	"NULL"	"<p style=\"color: black; font-size: 80px; padding-left: 8%; padding-right: 24%; padding-top: 15%; padding-bottom: 41%\">+</p>"	"1199"	n/a	n/a	n/a	n/a	n/a	n/a	n/a	n/a	n/a
n/a	"image-keyboard-response"	"84"	"285876"	"0.0-5.0-2.0-1.15"	"puloo0"	"600"	"1366"	"chrome"	"108.0.0"	"FALSE"	"Windows 10"	"61.56"	"127"	n/a	n/a	n/a	n/a	n/a	n/a	"Trial"	n/a	n/a	n/a	"457"	"arrowleft"	n/a	"NULL"	"NULL"	"NULL"	"stimuli/Ebbinghaus_-0.61429_-0.11071.png"	n/a	"Ebbinghaus"	"arrowright"	"1219"	"FALSE"	"Ebbinghaus"	"-0.614290000"	"-0.110710000"	"1"	"34"
n/a	"html-keyboard-response"	"85"	"287035"	"0.0-5.0-2.0-0.16"	"puloo0"	"600"	"1366"	"chrome"	"108.0.0"	"FALSE"	"Windows 10"	"61.56"	"127"	n/a	n/a	n/a	n/a	n/a	n/a	"fixation"	n/a	n/a	n/a	n/a	"NULL"	n/a	"NULL"	"NULL"	"NULL"	"<p style=\"color: black; font-size: 80px; padding-left: 6%; padding-right: 4%; padding-top: 42%; padding-bottom: 43%\">+</p>"	"1137"	n/a	n/a	n/a	n/a	n/a	n/a	n/a	n/a	n/a
n/a	"image-keyboard-response"	"86"	"287633"	"0.0-5.0-2.0-1.16"	"puloo0"	"600"	"1366"	"chrome"	"108.0.0"	"FALSE"	"Windows 10"	"61.56"	"127"	n/a	n/a	n/a	n/a	n/a	n/a	"Trial"	n/a	n/a	n/a	"597"	"arrowleft"	n/a	"NULL"	"NULL"	"NULL"	"stimuli/Ebbinghaus_-0.61429_0.21500.png"	n/a	"Ebbinghaus"	"arrowleft"	"1159"	"TRUE"	"Ebbinghaus"	"-0.614290000"	"0.2150000000"	"1"	"35"
n/a	"html-keyboard-response"	"87"	"288767"	"0.0-5.0-2.0-0.17"	"puloo0"	"600"	"1366"	"chrome"	"108.0.0"	"FALSE"	"Windows 10"	"61.56"	"127"	n/a	n/a	n/a	n/a	n/a	n/a	"fixation"	n/a	n/a	n/a	n/a	"NULL"	n/a	"NULL"	"NULL"	"NULL"	"<p style=\"color: black; font-size: 80px; padding-left: 7%; padding-right: 7%; padding-top: 34%; padding-bottom: 19%\">+</p>"	"1128"	n/a	n/a	n/a	n/a	n/a	n/a	n/a	n/a	n/a
n/a	"image-keyboard-response"	"88"	"289474"	"0.0-5.0-2.0-1.17"	"puloo0"	"600"	"1366"	"chrome"	"108.0.0"	"FALSE"	"Windows 10"	"61.56"	"127"	n/a	n/a	n/a	n/a	n/a	n/a	"Trial"	n/a	n/a	n/a	"705"	"arrowleft"	n/a	"NULL"	"NULL"	"NULL"	"stimuli/Ebbinghaus_-0.61429_0.11071.png"	n/a	"Ebbinghaus"	"arrowleft"	"1134"	"TRUE"	"Ebbinghaus"	"-0.614290000"	"0.1107100000"	"1"	"36"
n/a	"html-keyboard-response"	"89"	"290798"	"0.0-5.0-2.0-0.18"	"puloo0"	"600"	"1366"	"chrome"	"108.0.0"	"FALSE"	"Windows 10"	"61.56"	"127"	n/a	n/a	n/a	n/a	n/a	n/a	"fixation"	n/a	n/a	n/a	n/a	"NULL"	n/a	"NULL"	"NULL"	"NULL"	"<p style=\"color: black; font-size: 80px; padding-left: 30%; padding-right: 20%; padding-top: 45%; padding-bottom: 50%\">+</p>"	"1321"	n/a	n/a	n/a	n/a	n/a	n/a	n/a	n/a	n/a
n/a	"image-keyboard-response"	"90"	"291190"	"0.0-5.0-2.0-1.18"	"puloo0"	"600"	"1366"	"chrome"	"108.0.0"	"FALSE"	"Windows 10"	"61.56"	"127"	n/a	n/a	n/a	n/a	n/a	n/a	"Trial"	n/a	n/a	n/a	"390"	"arrowleft"	n/a	"NULL"	"NULL"	"NULL"	"stimuli/Ebbinghaus_0.87143_-0.15857.png"	n/a	"Ebbinghaus"	"arrowright"	"1324"	"FALSE"	"Ebbinghaus"	"0.8714300000"	"-0.158570000"	"1"	"37"
n/a	"html-keyboard-response"	"91"	"292409"	"0.0-5.0-2.0-0.19"	"puloo0"	"600"	"1366"	"chrome"	"108.0.0"	"FALSE"	"Windows 10"	"61.56"	"127"	n/a	n/a	n/a	n/a	n/a	n/a	"fixation"	n/a	n/a	n/a	n/a	"NULL"	n/a	"NULL"	"NULL"	"NULL"	"<p style=\"color: black; font-size: 80px; padding-left: 36%; padding-right: 5%; padding-top: 28%; padding-bottom: 26%\">+</p>"	"1202"	n/a	n/a	n/a	n/a	n/a	n/a	n/a	n/a	n/a
n/a	"image-keyboard-response"	"92"	"293037"	"0.0-5.0-2.0-1.19"	"puloo0"	"600"	"1366"	"chrome"	"108.0.0"	"FALSE"	"Windows 10"	"61.56"	"127"	n/a	n/a	n/a	n/a	n/a	n/a	"Trial"	n/a	n/a	n/a	"626"	"arrowright"	n/a	"NULL"	"NULL"	"NULL"	"stimuli/Ebbinghaus_-0.87143_-0.11071.png"	n/a	"Ebbinghaus"	"arrowright"	"1219"	"TRUE"	"Ebbinghaus"	"-0.871430000"	"-0.110710000"	"1"	"38"
n/a	"html-keyboard-response"	"93"	"294173"	"0.0-5.0-2.0-0.20"	"puloo0"	"600"	"1366"	"chrome"	"108.0.0"	"FALSE"	"Windows 10"	"61.56"	"127"	n/a	n/a	n/a	n/a	n/a	n/a	"fixation"	n/a	n/a	n/a	n/a	"NULL"	n/a	"NULL"	"NULL"	"NULL"	"<p style=\"color: black; font-size: 80px; padding-left: 35%; padding-right: 10%; padding-top: 12%; padding-bottom: 33%\">+</p>"	"1133"	n/a	n/a	n/a	n/a	n/a	n/a	n/a	n/a	n/a
n/a	"image-keyboard-response"	"94"	"294776"	"0.0-5.0-2.0-1.20"	"puloo0"	"600"	"1366"	"chrome"	"108.0.0"	"FALSE"	"Windows 10"	"61.56"	"127"	n/a	n/a	n/a	n/a	n/a	n/a	"Trial"	n/a	n/a	n/a	"603"	"arrowright"	n/a	"NULL"	"NULL"	"NULL"	"stimuli/Ebbinghaus_0.87143_0.11071.png"	n/a	"Ebbinghaus"	"arrowleft"	"1136"	"FALSE"	"Ebbinghaus"	"0.8714300000"	"0.1107100000"	"1"	"39"
n/a	"html-keyboard-response"	"95"	"295976"	"0.0-5.0-2.0-0.21"	"puloo0"	"600"	"1366"	"chrome"	"108.0.0"	"FALSE"	"Windows 10"	"61.56"	"127"	n/a	n/a	n/a	n/a	n/a	n/a	"fixation"	n/a	n/a	n/a	n/a	"NULL"	n/a	"NULL"	"NULL"	"NULL"	"<p style=\"color: black; font-size: 80px; padding-left: 10%; padding-right: 39%; padding-top: 22%; padding-bottom: 49%\">+</p>"	"1186"	n/a	n/a	n/a	n/a	n/a	n/a	n/a	n/a	n/a
n/a	"image-keyboard-response"	"96"	"296625"	"0.0-5.0-2.0-1.21"	"puloo0"	"600"	"1366"	"chrome"	"108.0.0"	"FALSE"	"Windows 10"	"61.56"	"127"	n/a	n/a	n/a	n/a	n/a	n/a	"Trial"	n/a	n/a	n/a	"647"	"arrowleft"	n/a	"NULL"	"NULL"	"NULL"	"stimuli/Ebbinghaus_0.87143_0.15857.png"	n/a	"Ebbinghaus"	"arrowleft"	"1200"	"TRUE"	"Ebbinghaus"	"0.8714300000"	"0.1585700000"	"1"	"40"
n/a	"html-keyboard-response"	"97"	"297705"	"0.0-5.0-2.0-0.22"	"puloo0"	"600"	"1366"	"chrome"	"108.0.0"	"FALSE"	"Windows 10"	"61.56"	"127"	n/a	n/a	n/a	n/a	n/a	n/a	"fixation"	n/a	n/a	n/a	n/a	"NULL"	n/a	"NULL"	"NULL"	"NULL"	"<p style=\"color: black; font-size: 80px; padding-left: 9%; padding-right: 14%; padding-top: 28%; padding-bottom: 8%\">+</p>"	"1059"	n/a	n/a	n/a	n/a	n/a	n/a	n/a	n/a	n/a
n/a	"image-keyboard-response"	"98"	"298629"	"0.0-5.0-2.0-1.22"	"puloo0"	"600"	"1366"	"chrome"	"108.0.0"	"FALSE"	"Windows 10"	"61.56"	"127"	n/a	n/a	n/a	n/a	n/a	n/a	"Trial"	n/a	n/a	n/a	"923"	"arrowleft"	n/a	"NULL"	"NULL"	"NULL"	"stimuli/Ebbinghaus_0.10000_-0.2150.png"	n/a	"Ebbinghaus"	"arrowright"	"1080"	"FALSE"	"Ebbinghaus"	"0.1000000000"	"-0.215000000"	"1"	"41"
n/a	"html-keyboard-response"	"99"	"299858"	"0.0-5.0-2.0-0.23"	"puloo0"	"600"	"1366"	"chrome"	"108.0.0"	"FALSE"	"Windows 10"	"61.56"	"127"	n/a	n/a	n/a	n/a	n/a	n/a	"fixation"	n/a	n/a	n/a	n/a	"NULL"	n/a	"NULL"	"NULL"	"NULL"	"<p style=\"color: black; font-size: 80px; padding-left: 7%; padding-right: 30%; padding-top: 25%; padding-bottom: 10%\">+</p>"	"1219"	n/a	n/a	n/a	n/a	n/a	n/a	n/a	n/a	n/a
n/a	"image-keyboard-response"	"100"	"300492"	"0.0-5.0-2.0-1.23"	"puloo0"	"600"	"1366"	"chrome"	"108.0.0"	"FALSE"	"Windows 10"	"61.56"	"127"	n/a	n/a	n/a	n/a	n/a	n/a	"Trial"	n/a	n/a	n/a	"632"	"arrowleft"	n/a	"NULL"	"NULL"	"NULL"	"stimuli/Ebbinghaus_-0.87143_0.21500.png"	n/a	"Ebbinghaus"	"arrowleft"	"1229"	"TRUE"	"Ebbinghaus"	"-0.871430000"	"0.2150000000"	"1"	"42"
n/a	"html-keyboard-response"	"101"	"301577"	"0.0-5.0-2.0-0.24"	"puloo0"	"600"	"1366"	"chrome"	"108.0.0"	"FALSE"	"Windows 10"	"61.56"	"127"	n/a	n/a	n/a	n/a	n/a	n/a	"fixation"	n/a	n/a	n/a	n/a	"NULL"	n/a	"NULL"	"NULL"	"NULL"	"<p style=\"color: black; font-size: 80px; padding-left: 22%; padding-right: 40%; padding-top: 46%; padding-bottom: 30%\">+</p>"	"1069"	n/a	n/a	n/a	n/a	n/a	n/a	n/a	n/a	n/a
n/a	"image-keyboard-response"	"102"	"301992"	"0.0-5.0-2.0-1.24"	"puloo0"	"600"	"1366"	"chrome"	"108.0.0"	"FALSE"	"Windows 10"	"61.56"	"127"	n/a	n/a	n/a	n/a	n/a	n/a	"Trial"	n/a	n/a	n/a	"413"	"arrowleft"	n/a	"NULL"	"NULL"	"NULL"	"stimuli/Ebbinghaus_-0.35714_-0.15857.png"	n/a	"Ebbinghaus"	"arrowright"	"1085"	"FALSE"	"Ebbinghaus"	"-0.357140000"	"-0.158570000"	"1"	"43"
n/a	"html-keyboard-response"	"103"	"303213"	"0.0-5.0-2.0-0.25"	"puloo0"	"600"	"1366"	"chrome"	"108.0.0"	"FALSE"	"Windows 10"	"61.56"	"127"	n/a	n/a	n/a	n/a	n/a	n/a	"fixation"	n/a	n/a	n/a	n/a	"NULL"	n/a	"NULL"	"NULL"	"NULL"	"<p style=\"color: black; font-size: 80px; padding-left: 4%; padding-right: 42%; padding-top: 18%; padding-bottom: 11%\">+</p>"	"1210"	n/a	n/a	n/a	n/a	n/a	n/a	n/a	n/a	n/a
n/a	"image-keyboard-response"	"104"	"303988"	"0.0-5.0-2.0-1.25"	"puloo0"	"600"	"1366"	"chrome"	"108.0.0"	"FALSE"	"Windows 10"	"61.56"	"127"	n/a	n/a	n/a	n/a	n/a	n/a	"Trial"	n/a	n/a	n/a	"773"	"arrowleft"	n/a	"NULL"	"NULL"	"NULL"	"stimuli/Ebbinghaus_0.61429_-0.15857.png"	n/a	"Ebbinghaus"	"arrowright"	"1221"	"FALSE"	"Ebbinghaus"	"0.6142900000"	"-0.158570000"	"1"	"44"
n/a	"html-keyboard-response"	"105"	"305251"	"0.0-5.0-2.0-0.26"	"puloo0"	"600"	"1366"	"chrome"	"108.0.0"	"FALSE"	"Windows 10"	"61.56"	"127"	n/a	n/a	n/a	n/a	n/a	n/a	"fixation"	n/a	n/a	n/a	n/a	"NULL"	n/a	"NULL"	"NULL"	"NULL"	"<p style=\"color: black; font-size: 80px; padding-left: 28%; padding-right: 24%; padding-top: 12%; padding-bottom: 31%\">+</p>"	"1252"	n/a	n/a	n/a	n/a	n/a	n/a	n/a	n/a	n/a
n/a	"image-keyboard-response"	"106"	"306153"	"0.0-5.0-2.0-1.26"	"puloo0"	"600"	"1366"	"chrome"	"108.0.0"	"FALSE"	"Windows 10"	"61.56"	"127"	n/a	n/a	n/a	n/a	n/a	n/a	"Trial"	n/a	n/a	n/a	"899"	"arrowright"	n/a	"NULL"	"NULL"	"NULL"	"stimuli/Ebbinghaus_0.35714_-0.11071.png"	n/a	"Ebbinghaus"	"arrowright"	"1263"	"TRUE"	"Ebbinghaus"	"0.3571400000"	"-0.110710000"	"1"	"45"
n/a	"html-keyboard-response"	"107"	"307291"	"0.0-5.0-2.0-0.27"	"puloo0"	"600"	"1366"	"chrome"	"108.0.0"	"FALSE"	"Windows 10"	"61.56"	"127"	n/a	n/a	n/a	n/a	n/a	n/a	"fixation"	n/a	n/a	n/a	n/a	"NULL"	n/a	"NULL"	"NULL"	"NULL"	"<p style=\"color: black; font-size: 80px; padding-left: 27%; padding-right: 17%; padding-top: 49%; padding-bottom: 14%\">+</p>"	"1126"	n/a	n/a	n/a	n/a	n/a	n/a	n/a	n/a	n/a
n/a	"image-keyboard-response"	"108"	"307746"	"0.0-5.0-2.0-1.27"	"puloo0"	"600"	"1366"	"chrome"	"108.0.0"	"FALSE"	"Windows 10"	"61.56"	"127"	n/a	n/a	n/a	n/a	n/a	n/a	"Trial"	n/a	n/a	n/a	"453"	"arrowright"	n/a	"NULL"	"NULL"	"NULL"	"stimuli/Ebbinghaus_0.87143_-0.11071.png"	n/a	"Ebbinghaus"	"arrowright"	"1138"	"TRUE"	"Ebbinghaus"	"0.8714300000"	"-0.110710000"	"1"	"46"
n/a	"html-keyboard-response"	"109"	"309182"	"0.0-5.0-2.0-0.28"	"puloo0"	"600"	"1366"	"chrome"	"108.0.0"	"FALSE"	"Windows 10"	"61.56"	"127"	n/a	n/a	n/a	n/a	n/a	n/a	"fixation"	n/a	n/a	n/a	n/a	"NULL"	n/a	"NULL"	"NULL"	"NULL"	"<p style=\"color: black; font-size: 80px; padding-left: 23%; padding-right: 6%; padding-top: 28%; padding-bottom: 39%\">+</p>"	"1418"	n/a	n/a	n/a	n/a	n/a	n/a	n/a	n/a	n/a
n/a	"image-keyboard-response"	"110"	"309791"	"0.0-5.0-2.0-1.28"	"puloo0"	"600"	"1366"	"chrome"	"108.0.0"	"FALSE"	"Windows 10"	"61.56"	"127"	n/a	n/a	n/a	n/a	n/a	n/a	"Trial"	n/a	n/a	n/a	"606"	"arrowright"	n/a	"NULL"	"NULL"	"NULL"	"stimuli/Ebbinghaus_0.87143_-0.2150.png"	n/a	"Ebbinghaus"	"arrowright"	"1436"	"TRUE"	"Ebbinghaus"	"0.8714300000"	"-0.215000000"	"1"	"47"
n/a	"html-keyboard-response"	"111"	"311266"	"0.0-5.0-2.0-0.29"	"puloo0"	"600"	"1366"	"chrome"	"108.0.0"	"FALSE"	"Windows 10"	"61.56"	"127"	n/a	n/a	n/a	n/a	n/a	n/a	"fixation"	n/a	n/a	n/a	n/a	"NULL"	n/a	"NULL"	"NULL"	"NULL"	"<p style=\"color: black; font-size: 80px; padding-left: 16%; padding-right: 36%; padding-top: 43%; padding-bottom: 25%\">+</p>"	"1455"	n/a	n/a	n/a	n/a	n/a	n/a	n/a	n/a	n/a
n/a	"image-keyboard-response"	"112"	"311837"	"0.0-5.0-2.0-1.29"	"puloo0"	"600"	"1366"	"chrome"	"108.0.0"	"FALSE"	"Windows 10"	"61.56"	"127"	n/a	n/a	n/a	n/a	n/a	n/a	"Trial"	n/a	n/a	n/a	"569"	"arrowleft"	n/a	"NULL"	"NULL"	"NULL"	"stimuli/Ebbinghaus_-0.35714_0.15857.png"	n/a	"Ebbinghaus"	"arrowleft"	"1475"	"TRUE"	"Ebbinghaus"	"-0.357140000"	"0.1585700000"	"1"	"48"
n/a	"html-keyboard-response"	"113"	"312907"	"0.0-5.0-2.0-0.30"	"puloo0"	"600"	"1366"	"chrome"	"108.0.0"	"FALSE"	"Windows 10"	"61.56"	"127"	n/a	n/a	n/a	n/a	n/a	n/a	"fixation"	n/a	n/a	n/a	n/a	"NULL"	n/a	"NULL"	"NULL"	"NULL"	"<p style=\"color: black; font-size: 80px; padding-left: 28%; padding-right: 48%; padding-top: 24%; padding-bottom: 22%\">+</p>"	"1049"	n/a	n/a	n/a	n/a	n/a	n/a	n/a	n/a	n/a
n/a	"image-keyboard-response"	"114"	"313711"	"0.0-5.0-2.0-1.30"	"puloo0"	"600"	"1366"	"chrome"	"108.0.0"	"FALSE"	"Windows 10"	"61.56"	"127"	n/a	n/a	n/a	n/a	n/a	n/a	"Trial"	n/a	n/a	n/a	"802"	"arrowright"	n/a	"NULL"	"NULL"	"NULL"	"stimuli/Ebbinghaus_-0.61429_-0.15857.png"	n/a	"Ebbinghaus"	"arrowright"	"1070"	"TRUE"	"Ebbinghaus"	"-0.614290000"	"-0.158570000"	"1"	"49"
n/a	"html-keyboard-response"	"115"	"315024"	"0.0-5.0-2.0-0.31"	"puloo0"	"600"	"1366"	"chrome"	"108.0.0"	"FALSE"	"Windows 10"	"61.56"	"127"	n/a	n/a	n/a	n/a	n/a	n/a	"fixation"	n/a	n/a	n/a	n/a	"NULL"	n/a	"NULL"	"NULL"	"NULL"	"<p style=\"color: black; font-size: 80px; padding-left: 8%; padding-right: 16%; padding-top: 42%; padding-bottom: 0%\">+</p>"	"1297"	n/a	n/a	n/a	n/a	n/a	n/a	n/a	n/a	n/a
n/a	"image-keyboard-response"	"116"	"315642"	"0.0-5.0-2.0-1.31"	"puloo0"	"600"	"1366"	"chrome"	"108.0.0"	"FALSE"	"Windows 10"	"61.56"	"127"	n/a	n/a	n/a	n/a	n/a	n/a	"Trial"	n/a	n/a	n/a	"616"	"arrowleft"	n/a	"NULL"	"NULL"	"NULL"	"stimuli/Ebbinghaus_-0.1000_0.15857.png"	n/a	"Ebbinghaus"	"arrowleft"	"1313"	"TRUE"	"Ebbinghaus"	"-0.100000000"	"0.1585700000"	"1"	"50"
n/a	"html-keyboard-response"	"117"	"316988"	"0.0-5.0-2.0-0.32"	"puloo0"	"600"	"1366"	"chrome"	"108.0.0"	"FALSE"	"Windows 10"	"61.56"	"127"	n/a	n/a	n/a	n/a	n/a	n/a	"fixation"	n/a	n/a	n/a	n/a	"NULL"	n/a	"NULL"	"NULL"	"NULL"	"<p style=\"color: black; font-size: 80px; padding-left: 6%; padding-right: 10%; padding-top: 15%; padding-bottom: 33%\">+</p>"	"1324"	n/a	n/a	n/a	n/a	n/a	n/a	n/a	n/a	n/a
n/a	"image-keyboard-response"	"118"	"317535"	"0.0-5.0-2.0-1.32"	"puloo0"	"600"	"1366"	"chrome"	"108.0.0"	"FALSE"	"Windows 10"	"61.56"	"127"	n/a	n/a	n/a	n/a	n/a	n/a	"Trial"	n/a	n/a	n/a	"546"	"arrowright"	n/a	"NULL"	"NULL"	"NULL"	"stimuli/Ebbinghaus_-0.61429_-0.2150.png"	n/a	"Ebbinghaus"	"arrowright"	"1346"	"TRUE"	"Ebbinghaus"	"-0.614290000"	"-0.215000000"	"1"	"51"
n/a	"html-keyboard-response"	"119"	"318735"	"0.0-5.0-2.0-0.33"	"puloo0"	"600"	"1366"	"chrome"	"108.0.0"	"FALSE"	"Windows 10"	"61.56"	"127"	n/a	n/a	n/a	n/a	n/a	n/a	"fixation"	n/a	n/a	n/a	n/a	"NULL"	n/a	"NULL"	"NULL"	"NULL"	"<p style=\"color: black; font-size: 80px; padding-left: 16%; padding-right: 50%; padding-top: 39%; padding-bottom: 14%\">+</p>"	"1190"	n/a	n/a	n/a	n/a	n/a	n/a	n/a	n/a	n/a
n/a	"image-keyboard-response"	"120"	"319178"	"0.0-5.0-2.0-1.33"	"puloo0"	"600"	"1366"	"chrome"	"108.0.0"	"FALSE"	"Windows 10"	"61.56"	"127"	n/a	n/a	n/a	n/a	n/a	n/a	"Trial"	n/a	n/a	n/a	"439"	"arrowright"	n/a	"NULL"	"NULL"	"NULL"	"stimuli/Ebbinghaus_0.87143_-0.2800.png"	n/a	"Ebbinghaus"	"arrowright"	"1200"	"TRUE"	"Ebbinghaus"	"0.8714300000"	"-0.280000000"	"1"	"52"
n/a	"html-keyboard-response"	"121"	"320398"	"0.0-5.0-2.0-0.34"	"puloo0"	"600"	"1366"	"chrome"	"108.0.0"	"FALSE"	"Windows 10"	"61.56"	"127"	n/a	n/a	n/a	n/a	n/a	n/a	"fixation"	n/a	n/a	n/a	n/a	"NULL"	n/a	"NULL"	"NULL"	"NULL"	"<p style=\"color: black; font-size: 80px; padding-left: 41%; padding-right: 25%; padding-top: 1%; padding-bottom: 5%\">+</p>"	"1208"	n/a	n/a	n/a	n/a	n/a	n/a	n/a	n/a	n/a
n/a	"image-keyboard-response"	"122"	"320885"	"0.0-5.0-2.0-1.34"	"puloo0"	"600"	"1366"	"chrome"	"108.0.0"	"FALSE"	"Windows 10"	"61.56"	"127"	n/a	n/a	n/a	n/a	n/a	n/a	"Trial"	n/a	n/a	n/a	"485"	"arrowleft"	n/a	"NULL"	"NULL"	"NULL"	"stimuli/Ebbinghaus_-0.1000_0.28000.png"	n/a	"Ebbinghaus"	"arrowleft"	"1220"	"TRUE"	"Ebbinghaus"	"-0.100000000"	"0.2800000000"	"1"	"53"
n/a	"html-keyboard-response"	"123"	"322069"	"0.0-5.0-2.0-0.35"	"puloo0"	"600"	"1366"	"chrome"	"108.0.0"	"FALSE"	"Windows 10"	"61.56"	"127"	n/a	n/a	n/a	n/a	n/a	n/a	"fixation"	n/a	n/a	n/a	n/a	"NULL"	n/a	"NULL"	"NULL"	"NULL"	"<p style=\"color: black; font-size: 80px; padding-left: 6%; padding-right: 30%; padding-top: 4%; padding-bottom: 31%\">+</p>"	"1174"	n/a	n/a	n/a	n/a	n/a	n/a	n/a	n/a	n/a
n/a	"image-keyboard-response"	"124"	"322717"	"0.0-5.0-2.0-1.35"	"puloo0"	"600"	"1366"	"chrome"	"108.0.0"	"FALSE"	"Windows 10"	"61.56"	"127"	n/a	n/a	n/a	n/a	n/a	n/a	"Trial"	n/a	n/a	n/a	"646"	"arrowright"	n/a	"NULL"	"NULL"	"NULL"	"stimuli/Ebbinghaus_-0.35714_0.11071.png"	n/a	"Ebbinghaus"	"arrowleft"	"1184"	"FALSE"	"Ebbinghaus"	"-0.357140000"	"0.1107100000"	"1"	"54"
n/a	"html-keyboard-response"	"125"	"324025"	"0.0-5.0-2.0-0.36"	"puloo0"	"600"	"1366"	"chrome"	"108.0.0"	"FALSE"	"Windows 10"	"61.56"	"127"	n/a	n/a	n/a	n/a	n/a	n/a	"fixation"	n/a	n/a	n/a	n/a	"NULL"	n/a	"NULL"	"NULL"	"NULL"	"<p style=\"color: black; font-size: 80px; padding-left: 10%; padding-right: 3%; padding-top: 24%; padding-bottom: 31%\">+</p>"	"1290"	n/a	n/a	n/a	n/a	n/a	n/a	n/a	n/a	n/a
n/a	"image-keyboard-response"	"126"	"324660"	"0.0-5.0-2.0-1.36"	"puloo0"	"600"	"1366"	"chrome"	"108.0.0"	"FALSE"	"Windows 10"	"61.56"	"127"	n/a	n/a	n/a	n/a	n/a	n/a	"Trial"	n/a	n/a	n/a	"634"	"arrowleft"	n/a	"NULL"	"NULL"	"NULL"	"stimuli/Ebbinghaus_0.61429_0.21500.png"	n/a	"Ebbinghaus"	"arrowleft"	"1308"	"TRUE"	"Ebbinghaus"	"0.6142900000"	"0.2150000000"	"1"	"55"
n/a	"html-keyboard-response"	"127"	"325793"	"0.0-5.0-2.0-0.37"	"puloo0"	"600"	"1366"	"chrome"	"108.0.0"	"FALSE"	"Windows 10"	"61.56"	"127"	n/a	n/a	n/a	n/a	n/a	n/a	"fixation"	n/a	n/a	n/a	n/a	"NULL"	n/a	"NULL"	"NULL"	"NULL"	"<p style=\"color: black; font-size: 80px; padding-left: 34%; padding-right: 18%; padding-top: 49%; padding-bottom: 11%\">+</p>"	"1117"	n/a	n/a	n/a	n/a	n/a	n/a	n/a	n/a	n/a
n/a	"image-keyboard-response"	"128"	"326279"	"0.0-5.0-2.0-1.37"	"puloo0"	"600"	"1366"	"chrome"	"108.0.0"	"FALSE"	"Windows 10"	"61.56"	"127"	n/a	n/a	n/a	n/a	n/a	n/a	"Trial"	n/a	n/a	n/a	"484"	"arrowleft"	n/a	"NULL"	"NULL"	"NULL"	"stimuli/Ebbinghaus_0.35714_0.28000.png"	n/a	"Ebbinghaus"	"arrowleft"	"1133"	"TRUE"	"Ebbinghaus"	"0.3571400000"	"0.2800000000"	"1"	"56"
n/a	"html-keyboard-response"	"129"	"327694"	"0.0-5.0-2.0-0.38"	"puloo0"	"600"	"1366"	"chrome"	"108.0.0"	"FALSE"	"Windows 10"	"61.56"	"127"	n/a	n/a	n/a	n/a	n/a	n/a	"fixation"	n/a	n/a	n/a	n/a	"NULL"	n/a	"NULL"	"NULL"	"NULL"	"<p style=\"color: black; font-size: 80px; padding-left: 42%; padding-right: 20%; padding-top: 41%; padding-bottom: 27%\">+</p>"	"1411"	n/a	n/a	n/a	n/a	n/a	n/a	n/a	n/a	n/a
n/a	"image-keyboard-response"	"130"	"328043"	"0.0-5.0-2.0-1.38"	"puloo0"	"600"	"1366"	"chrome"	"108.0.0"	"FALSE"	"Windows 10"	"61.56"	"127"	n/a	n/a	n/a	n/a	n/a	n/a	"Trial"	n/a	n/a	n/a	"346"	"arrowleft"	n/a	"NULL"	"NULL"	"NULL"	"stimuli/Ebbinghaus_-0.35714_0.21500.png"	n/a	"Ebbinghaus"	"arrowleft"	"1415"	"TRUE"	"Ebbinghaus"	"-0.357140000"	"0.2150000000"	"1"	"57"
n/a	"html-keyboard-response"	"131"	"329183"	"0.0-5.0-2.0-0.39"	"puloo0"	"600"	"1366"	"chrome"	"108.0.0"	"FALSE"	"Windows 10"	"61.56"	"127"	n/a	n/a	n/a	n/a	n/a	n/a	"fixation"	n/a	n/a	n/a	n/a	"NULL"	n/a	"NULL"	"NULL"	"NULL"	"<p style=\"color: black; font-size: 80px; padding-left: 43%; padding-right: 21%; padding-top: 45%; padding-bottom: 5%\">+</p>"	"1134"	n/a	n/a	n/a	n/a	n/a	n/a	n/a	n/a	n/a
n/a	"image-keyboard-response"	"132"	"329800"	"0.0-5.0-2.0-1.39"	"puloo0"	"600"	"1366"	"chrome"	"108.0.0"	"FALSE"	"Windows 10"	"61.56"	"127"	n/a	n/a	n/a	n/a	n/a	n/a	"Trial"	n/a	n/a	n/a	"616"	"arrowright"	n/a	"NULL"	"NULL"	"NULL"	"stimuli/Ebbinghaus_-0.87143_-0.2800.png"	n/a	"Ebbinghaus"	"arrowright"	"1140"	"TRUE"	"Ebbinghaus"	"-0.871430000"	"-0.280000000"	"1"	"58"
n/a	"html-keyboard-response"	"133"	"331006"	"0.0-5.0-2.0-0.40"	"puloo0"	"600"	"1366"	"chrome"	"108.0.0"	"FALSE"	"Windows 10"	"61.56"	"127"	n/a	n/a	n/a	n/a	n/a	n/a	"fixation"	n/a	n/a	n/a	n/a	"NULL"	n/a	"NULL"	"NULL"	"NULL"	"<p style=\"color: black; font-size: 80px; padding-left: 49%; padding-right: 48%; padding-top: 44%; padding-bottom: 4%\">+</p>"	"1192"	n/a	n/a	n/a	n/a	n/a	n/a	n/a	n/a	n/a
n/a	"image-keyboard-response"	"134"	"331595"	"0.0-5.0-2.0-1.40"	"puloo0"	"600"	"1366"	"chrome"	"108.0.0"	"FALSE"	"Windows 10"	"61.56"	"127"	n/a	n/a	n/a	n/a	n/a	n/a	"Trial"	n/a	n/a	n/a	"588"	"arrowleft"	n/a	"NULL"	"NULL"	"NULL"	"stimuli/Ebbinghaus_-0.87143_0.28000.png"	n/a	"Ebbinghaus"	"arrowleft"	"1206"	"TRUE"	"Ebbinghaus"	"-0.871430000"	"0.2800000000"	"1"	"59"
n/a	"html-keyboard-response"	"135"	"332919"	"0.0-5.0-2.0-0.41"	"puloo0"	"600"	"1366"	"chrome"	"108.0.0"	"FALSE"	"Windows 10"	"61.56"	"127"	n/a	n/a	n/a	n/a	n/a	n/a	"fixation"	n/a	n/a	n/a	n/a	"NULL"	n/a	"NULL"	"NULL"	"NULL"	"<p style=\"color: black; font-size: 80px; padding-left: 15%; padding-right: 23%; padding-top: 20%; padding-bottom: 10%\">+</p>"	"1321"	n/a	n/a	n/a	n/a	n/a	n/a	n/a	n/a	n/a
n/a	"image-keyboard-response"	"136"	"333290"	"0.0-5.0-2.0-1.41"	"puloo0"	"600"	"1366"	"chrome"	"108.0.0"	"FALSE"	"Windows 10"	"61.56"	"127"	n/a	n/a	n/a	n/a	n/a	n/a	"Trial"	n/a	n/a	n/a	"370"	"arrowleft"	n/a	"NULL"	"NULL"	"NULL"	"stimuli/Ebbinghaus_-0.61429_0.28000.png"	n/a	"Ebbinghaus"	"arrowleft"	"1324"	"TRUE"	"Ebbinghaus"	"-0.614290000"	"0.2800000000"	"1"	"60"
n/a	"html-keyboard-response"	"137"	"334616"	"0.0-5.0-2.0-0.42"	"puloo0"	"600"	"1366"	"chrome"	"108.0.0"	"FALSE"	"Windows 10"	"61.56"	"127"	n/a	n/a	n/a	n/a	n/a	n/a	"fixation"	n/a	n/a	n/a	n/a	"NULL"	n/a	"NULL"	"NULL"	"NULL"	"<p style=\"color: black; font-size: 80px; padding-left: 5%; padding-right: 4%; padding-top: 30%; padding-bottom: 1%\">+</p>"	"1310"	n/a	n/a	n/a	n/a	n/a	n/a	n/a	n/a	n/a
n/a	"image-keyboard-response"	"138"	"334976"	"0.0-5.0-2.0-1.42"	"puloo0"	"600"	"1366"	"chrome"	"108.0.0"	"FALSE"	"Windows 10"	"61.56"	"127"	n/a	n/a	n/a	n/a	n/a	n/a	"Trial"	n/a	n/a	n/a	"360"	"arrowleft"	n/a	"NULL"	"NULL"	"NULL"	"stimuli/Ebbinghaus_0.35714_-0.2800.png"	n/a	"Ebbinghaus"	"arrowright"	"1326"	"FALSE"	"Ebbinghaus"	"0.3571400000"	"-0.280000000"	"1"	"61"
n/a	"html-keyboard-response"	"139"	"336157"	"0.0-5.0-2.0-0.43"	"puloo0"	"600"	"1366"	"chrome"	"108.0.0"	"FALSE"	"Windows 10"	"61.56"	"127"	n/a	n/a	n/a	n/a	n/a	n/a	"fixation"	n/a	n/a	n/a	n/a	"NULL"	n/a	"NULL"	"NULL"	"NULL"	"<p style=\"color: black; font-size: 80px; padding-left: 44%; padding-right: 9%; padding-top: 21%; padding-bottom: 12%\">+</p>"	"1172"	n/a	n/a	n/a	n/a	n/a	n/a	n/a	n/a	n/a
n/a	"image-keyboard-response"	"140"	"336680"	"0.0-5.0-2.0-1.43"	"puloo0"	"600"	"1366"	"chrome"	"108.0.0"	"FALSE"	"Windows 10"	"61.56"	"127"	n/a	n/a	n/a	n/a	n/a	n/a	"Trial"	n/a	n/a	n/a	"521"	"arrowleft"	n/a	"NULL"	"NULL"	"NULL"	"stimuli/Ebbinghaus_-0.87143_0.15857.png"	n/a	"Ebbinghaus"	"arrowleft"	"1181"	"TRUE"	"Ebbinghaus"	"-0.871430000"	"0.1585700000"	"1"	"62"
n/a	"html-keyboard-response"	"141"	"337878"	"0.0-5.0-2.0-0.44"	"puloo0"	"600"	"1366"	"chrome"	"108.0.0"	"FALSE"	"Windows 10"	"61.56"	"127"	n/a	n/a	n/a	n/a	n/a	n/a	"fixation"	n/a	n/a	n/a	n/a	"NULL"	n/a	"NULL"	"NULL"	"NULL"	"<p style=\"color: black; font-size: 80px; padding-left: 29%; padding-right: 24%; padding-top: 48%; padding-bottom: 36%\">+</p>"	"1193"	n/a	n/a	n/a	n/a	n/a	n/a	n/a	n/a	n/a
n/a	"image-keyboard-response"	"142"	"338446"	"0.0-5.0-2.0-1.44"	"puloo0"	"600"	"1366"	"chrome"	"108.0.0"	"FALSE"	"Windows 10"	"61.56"	"127"	n/a	n/a	n/a	n/a	n/a	n/a	"Trial"	n/a	n/a	n/a	"566"	"arrowright"	n/a	"NULL"	"NULL"	"NULL"	"stimuli/Ebbinghaus_-0.35714_-0.2800.png"	n/a	"Ebbinghaus"	"arrowright"	"1198"	"TRUE"	"Ebbinghaus"	"-0.357140000"	"-0.280000000"	"1"	"63"
n/a	"html-keyboard-response"	"143"	"339553"	"0.0-5.0-2.0-0.45"	"puloo0"	"600"	"1366"	"chrome"	"108.0.0"	"FALSE"	"Windows 10"	"61.56"	"127"	n/a	n/a	n/a	n/a	n/a	n/a	"fixation"	n/a	n/a	n/a	n/a	"NULL"	n/a	"NULL"	"NULL"	"NULL"	"<p style=\"color: black; font-size: 80px; padding-left: 28%; padding-right: 41%; padding-top: 23%; padding-bottom: 1%\">+</p>"	"1096"	n/a	n/a	n/a	n/a	n/a	n/a	n/a	n/a	n/a
n/a	"image-keyboard-response"	"144"	"340066"	"0.0-5.0-2.0-1.45"	"puloo0"	"600"	"1366"	"chrome"	"108.0.0"	"FALSE"	"Windows 10"	"61.56"	"127"	n/a	n/a	n/a	n/a	n/a	n/a	"Trial"	n/a	n/a	n/a	"511"	"arrowright"	n/a	"NULL"	"NULL"	"NULL"	"stimuli/Ebbinghaus_0.35714_-0.15857.png"	n/a	"Ebbinghaus"	"arrowright"	"1107"	"TRUE"	"Ebbinghaus"	"0.3571400000"	"-0.158570000"	"1"	"64"
n/a	"html-keyboard-response"	"145"	"341578"	"0.0-5.0-2.0-0.46"	"puloo0"	"600"	"1366"	"chrome"	"108.0.0"	"FALSE"	"Windows 10"	"61.56"	"127"	n/a	n/a	n/a	n/a	n/a	n/a	"fixation"	n/a	n/a	n/a	n/a	"NULL"	n/a	"NULL"	"NULL"	"NULL"	"<p style=\"color: black; font-size: 80px; padding-left: 19%; padding-right: 6%; padding-top: 31%; padding-bottom: 13%\">+</p>"	"1490"	n/a	n/a	n/a	n/a	n/a	n/a	n/a	n/a	n/a
n/a	"image-keyboard-response"	"146"	"342085"	"0.0-5.0-2.0-1.46"	"puloo0"	"600"	"1366"	"chrome"	"108.0.0"	"FALSE"	"Windows 10"	"61.56"	"127"	n/a	n/a	n/a	n/a	n/a	n/a	"Trial"	n/a	n/a	n/a	"506"	"arrowleft"	n/a	"NULL"	"NULL"	"NULL"	"stimuli/Ebbinghaus_-0.1000_-0.11071.png"	n/a	"Ebbinghaus"	"arrowright"	"1512"	"FALSE"	"Ebbinghaus"	"-0.100000000"	"-0.110710000"	"1"	"65"
n/a	"html-keyboard-response"	"147"	"343229"	"0.0-5.0-2.0-0.47"	"puloo0"	"600"	"1366"	"chrome"	"108.0.0"	"FALSE"	"Windows 10"	"61.56"	"127"	n/a	n/a	n/a	n/a	n/a	n/a	"fixation"	n/a	n/a	n/a	n/a	"NULL"	n/a	"NULL"	"NULL"	"NULL"	"<p style=\"color: black; font-size: 80px; padding-left: 26%; padding-right: 1%; padding-top: 4%; padding-bottom: 43%\">+</p>"	"1114"	n/a	n/a	n/a	n/a	n/a	n/a	n/a	n/a	n/a
n/a	"image-keyboard-response"	"148"	"343969"	"0.0-5.0-2.0-1.47"	"puloo0"	"600"	"1366"	"chrome"	"108.0.0"	"FALSE"	"Windows 10"	"61.56"	"127"	n/a	n/a	n/a	n/a	n/a	n/a	"Trial"	n/a	n/a	n/a	"738"	"arrowleft"	n/a	"NULL"	"NULL"	"NULL"	"stimuli/Ebbinghaus_0.35714_0.15857.png"	n/a	"Ebbinghaus"	"arrowleft"	"1144"	"TRUE"	"Ebbinghaus"	"0.3571400000"	"0.1585700000"	"1"	"66"
n/a	"html-keyboard-response"	"149"	"345376"	"0.0-5.0-2.0-0.48"	"puloo0"	"600"	"1366"	"chrome"	"108.0.0"	"FALSE"	"Windows 10"	"61.56"	"127"	n/a	n/a	n/a	n/a	n/a	n/a	"fixation"	n/a	n/a	n/a	n/a	"NULL"	n/a	"NULL"	"NULL"	"NULL"	"<p style=\"color: black; font-size: 80px; padding-left: 49%; padding-right: 32%; padding-top: 24%; padding-bottom: 46%\">+</p>"	"1394"	n/a	n/a	n/a	n/a	n/a	n/a	n/a	n/a	n/a
n/a	"image-keyboard-response"	"150"	"345936"	"0.0-5.0-2.0-1.48"	"puloo0"	"600"	"1366"	"chrome"	"108.0.0"	"FALSE"	"Windows 10"	"61.56"	"127"	n/a	n/a	n/a	n/a	n/a	n/a	"Trial"	n/a	n/a	n/a	"558"	"arrowright"	n/a	"NULL"	"NULL"	"NULL"	"stimuli/Ebbinghaus_0.10000_-0.2800.png"	n/a	"Ebbinghaus"	"arrowright"	"1407"	"TRUE"	"Ebbinghaus"	"0.1000000000"	"-0.280000000"	"1"	"67"
n/a	"html-keyboard-response"	"151"	"346956"	"0.0-5.0-2.0-0.49"	"puloo0"	"600"	"1366"	"chrome"	"108.0.0"	"FALSE"	"Windows 10"	"61.56"	"127"	n/a	n/a	n/a	n/a	n/a	n/a	"fixation"	n/a	n/a	n/a	n/a	"NULL"	n/a	"NULL"	"NULL"	"NULL"	"<p style=\"color: black; font-size: 80px; padding-left: 23%; padding-right: 16%; padding-top: 8%; padding-bottom: 27%\">+</p>"	"1009"	n/a	n/a	n/a	n/a	n/a	n/a	n/a	n/a	n/a
n/a	"image-keyboard-response"	"152"	"347577"	"0.0-5.0-2.0-1.49"	"puloo0"	"600"	"1366"	"chrome"	"108.0.0"	"FALSE"	"Windows 10"	"61.56"	"127"	n/a	n/a	n/a	n/a	n/a	n/a	"Trial"	n/a	n/a	n/a	"619"	"arrowleft"	n/a	"NULL"	"NULL"	"NULL"	"stimuli/Ebbinghaus_-0.1000_0.11071.png"	n/a	"Ebbinghaus"	"arrowleft"	"1020"	"TRUE"	"Ebbinghaus"	"-0.100000000"	"0.1107100000"	"1"	"68"
n/a	"html-keyboard-response"	"153"	"348614"	"0.0-5.0-2.0-0.50"	"puloo0"	"600"	"1366"	"chrome"	"108.0.0"	"FALSE"	"Windows 10"	"61.56"	"127"	n/a	n/a	n/a	n/a	n/a	n/a	"fixation"	n/a	n/a	n/a	n/a	"NULL"	n/a	"NULL"	"NULL"	"NULL"	"<p style=\"color: black; font-size: 80px; padding-left: 18%; padding-right: 40%; padding-top: 47%; padding-bottom: 34%\">+</p>"	"1023"	n/a	n/a	n/a	n/a	n/a	n/a	n/a	n/a	n/a
n/a	"image-keyboard-response"	"154"	"349070"	"0.0-5.0-2.0-1.50"	"puloo0"	"600"	"1366"	"chrome"	"108.0.0"	"FALSE"	"Windows 10"	"61.56"	"127"	n/a	n/a	n/a	n/a	n/a	n/a	"Trial"	n/a	n/a	n/a	"455"	"arrowleft"	n/a	"NULL"	"NULL"	"NULL"	"stimuli/Ebbinghaus_0.61429_0.28000.png"	n/a	"Ebbinghaus"	"arrowleft"	"1037"	"TRUE"	"Ebbinghaus"	"0.6142900000"	"0.2800000000"	"1"	"69"
n/a	"html-keyboard-response"	"155"	"350492"	"0.0-5.0-2.0-0.51"	"puloo0"	"600"	"1366"	"chrome"	"108.0.0"	"FALSE"	"Windows 10"	"61.56"	"127"	n/a	n/a	n/a	n/a	n/a	n/a	"fixation"	n/a	n/a	n/a	n/a	"NULL"	n/a	"NULL"	"NULL"	"NULL"	"<p style=\"color: black; font-size: 80px; padding-left: 20%; padding-right: 27%; padding-top: 23%; padding-bottom: 44%\">+</p>"	"1411"	n/a	n/a	n/a	n/a	n/a	n/a	n/a	n/a	n/a
n/a	"image-keyboard-response"	"156"	"350843"	"0.0-5.0-2.0-1.51"	"puloo0"	"600"	"1366"	"chrome"	"108.0.0"	"FALSE"	"Windows 10"	"61.56"	"127"	n/a	n/a	n/a	n/a	n/a	n/a	"Trial"	n/a	n/a	n/a	"349"	"arrowleft"	n/a	"NULL"	"NULL"	"NULL"	"stimuli/Ebbinghaus_-0.61429_0.15857.png"	n/a	"Ebbinghaus"	"arrowleft"	"1422"	"TRUE"	"Ebbinghaus"	"-0.614290000"	"0.1585700000"	"1"	"70"
n/a	"html-keyboard-response"	"157"	"352138"	"0.0-5.0-2.0-0.52"	"puloo0"	"600"	"1366"	"chrome"	"108.0.0"	"FALSE"	"Windows 10"	"61.56"	"127"	n/a	n/a	n/a	n/a	n/a	n/a	"fixation"	n/a	n/a	n/a	n/a	"NULL"	n/a	"NULL"	"NULL"	"NULL"	"<p style=\"color: black; font-size: 80px; padding-left: 44%; padding-right: 39%; padding-top: 3%; padding-bottom: 11%\">+</p>"	"1286"	n/a	n/a	n/a	n/a	n/a	n/a	n/a	n/a	n/a
n/a	"image-keyboard-response"	"158"	"352574"	"0.0-5.0-2.0-1.52"	"puloo0"	"600"	"1366"	"chrome"	"108.0.0"	"FALSE"	"Windows 10"	"61.56"	"127"	n/a	n/a	n/a	n/a	n/a	n/a	"Trial"	n/a	n/a	n/a	"435"	"arrowleft"	n/a	"NULL"	"NULL"	"NULL"	"stimuli/Ebbinghaus_0.87143_0.28000.png"	n/a	"Ebbinghaus"	"arrowleft"	"1295"	"TRUE"	"Ebbinghaus"	"0.8714300000"	"0.2800000000"	"1"	"71"
n/a	"html-keyboard-response"	"159"	"353738"	"0.0-5.0-2.0-0.53"	"puloo0"	"600"	"1366"	"chrome"	"108.0.0"	"FALSE"	"Windows 10"	"61.56"	"127"	n/a	n/a	n/a	n/a	n/a	n/a	"fixation"	n/a	n/a	n/a	n/a	"NULL"	n/a	"NULL"	"NULL"	"NULL"	"<p style=\"color: black; font-size: 80px; padding-left: 47%; padding-right: 21%; padding-top: 41%; padding-bottom: 13%\">+</p>"	"1144"	n/a	n/a	n/a	n/a	n/a	n/a	n/a	n/a	n/a
n/a	"image-keyboard-response"	"160"	"354384"	"0.0-5.0-2.0-1.53"	"puloo0"	"600"	"1366"	"chrome"	"108.0.0"	"FALSE"	"Windows 10"	"61.56"	"127"	n/a	n/a	n/a	n/a	n/a	n/a	"Trial"	n/a	n/a	n/a	"644"	"arrowright"	n/a	"NULL"	"NULL"	"NULL"	"stimuli/Ebbinghaus_-0.87143_-0.15857.png"	n/a	"Ebbinghaus"	"arrowright"	"1164"	"TRUE"	"Ebbinghaus"	"-0.871430000"	"-0.158570000"	"1"	"72"
n/a	"html-keyboard-response"	"161"	"355405"	"0.0-5.0-2.0-0.54"	"puloo0"	"600"	"1366"	"chrome"	"108.0.0"	"FALSE"	"Windows 10"	"61.56"	"127"	n/a	n/a	n/a	n/a	n/a	n/a	"fixation"	n/a	n/a	n/a	n/a	"NULL"	n/a	"NULL"	"NULL"	"NULL"	"<p style=\"color: black; font-size: 80px; padding-left: 6%; padding-right: 38%; padding-top: 6%; padding-bottom: 16%\">+</p>"	"1005"	n/a	n/a	n/a	n/a	n/a	n/a	n/a	n/a	n/a
n/a	"image-keyboard-response"	"162"	"355955"	"0.0-5.0-2.0-1.54"	"puloo0"	"600"	"1366"	"chrome"	"108.0.0"	"FALSE"	"Windows 10"	"61.56"	"127"	n/a	n/a	n/a	n/a	n/a	n/a	"Trial"	n/a	n/a	n/a	"549"	"arrowright"	n/a	"NULL"	"NULL"	"NULL"	"stimuli/Ebbinghaus_-0.1000_-0.15857.png"	n/a	"Ebbinghaus"	"arrowright"	"1021"	"TRUE"	"Ebbinghaus"	"-0.100000000"	"-0.158570000"	"1"	"73"
n/a	"html-keyboard-response"	"163"	"357314"	"0.0-5.0-2.0-0.55"	"puloo0"	"600"	"1366"	"chrome"	"108.0.0"	"FALSE"	"Windows 10"	"61.56"	"127"	n/a	n/a	n/a	n/a	n/a	n/a	"fixation"	n/a	n/a	n/a	n/a	"NULL"	n/a	"NULL"	"NULL"	"NULL"	"<p style=\"color: black; font-size: 80px; padding-left: 28%; padding-right: 31%; padding-top: 21%; padding-bottom: 30%\">+</p>"	"1342"	n/a	n/a	n/a	n/a	n/a	n/a	n/a	n/a	n/a
n/a	"image-keyboard-response"	"164"	"357861"	"0.0-5.0-2.0-1.55"	"puloo0"	"600"	"1366"	"chrome"	"108.0.0"	"FALSE"	"Windows 10"	"61.56"	"127"	n/a	n/a	n/a	n/a	n/a	n/a	"Trial"	n/a	n/a	n/a	"544"	"arrowleft"	n/a	"NULL"	"NULL"	"NULL"	"stimuli/Ebbinghaus_0.61429_0.11071.png"	n/a	"Ebbinghaus"	"arrowleft"	"1359"	"TRUE"	"Ebbinghaus"	"0.6142900000"	"0.1107100000"	"1"	"74"
n/a	"html-keyboard-response"	"165"	"359032"	"0.0-5.0-2.0-0.56"	"puloo0"	"600"	"1366"	"chrome"	"108.0.0"	"FALSE"	"Windows 10"	"61.56"	"127"	n/a	n/a	n/a	n/a	n/a	n/a	"fixation"	n/a	n/a	n/a	n/a	"NULL"	n/a	"NULL"	"NULL"	"NULL"	"<p style=\"color: black; font-size: 80px; padding-left: 5%; padding-right: 43%; padding-top: 27%; padding-bottom: 35%\">+</p>"	"1154"	n/a	n/a	n/a	n/a	n/a	n/a	n/a	n/a	n/a
n/a	"image-keyboard-response"	"166"	"359566"	"0.0-5.0-2.0-1.56"	"puloo0"	"600"	"1366"	"chrome"	"108.0.0"	"FALSE"	"Windows 10"	"61.56"	"127"	n/a	n/a	n/a	n/a	n/a	n/a	"Trial"	n/a	n/a	n/a	"533"	"arrowright"	n/a	"NULL"	"NULL"	"NULL"	"stimuli/Ebbinghaus_-0.1000_-0.2150.png"	n/a	"Ebbinghaus"	"arrowright"	"1171"	"TRUE"	"Ebbinghaus"	"-0.100000000"	"-0.215000000"	"1"	"75"
n/a	"html-keyboard-response"	"167"	"360901"	"0.0-5.0-2.0-0.57"	"puloo0"	"600"	"1366"	"chrome"	"108.0.0"	"FALSE"	"Windows 10"	"61.56"	"127"	n/a	n/a	n/a	n/a	n/a	n/a	"fixation"	n/a	n/a	n/a	n/a	"NULL"	n/a	"NULL"	"NULL"	"NULL"	"<p style=\"color: black; font-size: 80px; padding-left: 12%; padding-right: 30%; padding-top: 7%; padding-bottom: 3%\">+</p>"	"1328"	n/a	n/a	n/a	n/a	n/a	n/a	n/a	n/a	n/a
n/a	"image-keyboard-response"	"168"	"361635"	"0.0-5.0-2.0-1.57"	"puloo0"	"600"	"1366"	"chrome"	"108.0.0"	"FALSE"	"Windows 10"	"61.56"	"127"	n/a	n/a	n/a	n/a	n/a	n/a	"Trial"	n/a	n/a	n/a	"731"	"arrowleft"	n/a	"NULL"	"NULL"	"NULL"	"stimuli/Ebbinghaus_-0.87143_0.11071.png"	n/a	"Ebbinghaus"	"arrowleft"	"1335"	"TRUE"	"Ebbinghaus"	"-0.871430000"	"0.1107100000"	"1"	"76"
n/a	"html-keyboard-response"	"169"	"362690"	"0.0-5.0-2.0-0.58"	"puloo0"	"600"	"1366"	"chrome"	"108.0.0"	"FALSE"	"Windows 10"	"61.56"	"127"	n/a	n/a	n/a	n/a	n/a	n/a	"fixation"	n/a	n/a	n/a	n/a	"NULL"	n/a	"NULL"	"NULL"	"NULL"	"<p style=\"color: black; font-size: 80px; padding-left: 39%; padding-right: 36%; padding-top: 44%; padding-bottom: 0%\">+</p>"	"1038"	n/a	n/a	n/a	n/a	n/a	n/a	n/a	n/a	n/a
n/a	"image-keyboard-response"	"170"	"363264"	"0.0-5.0-2.0-1.58"	"puloo0"	"600"	"1366"	"chrome"	"108.0.0"	"FALSE"	"Windows 10"	"61.56"	"127"	n/a	n/a	n/a	n/a	n/a	n/a	"Trial"	n/a	n/a	n/a	"572"	"arrowright"	n/a	"NULL"	"NULL"	"NULL"	"stimuli/Ebbinghaus_-0.1000_-0.2800.png"	n/a	"Ebbinghaus"	"arrowright"	"1055"	"TRUE"	"Ebbinghaus"	"-0.100000000"	"-0.280000000"	"1"	"77"
n/a	"html-keyboard-response"	"171"	"364456"	"0.0-5.0-2.0-0.59"	"puloo0"	"600"	"1366"	"chrome"	"108.0.0"	"FALSE"	"Windows 10"	"61.56"	"127"	n/a	n/a	n/a	n/a	n/a	n/a	"fixation"	n/a	n/a	n/a	n/a	"NULL"	n/a	"NULL"	"NULL"	"NULL"	"<p style=\"color: black; font-size: 80px; padding-left: 31%; padding-right: 47%; padding-top: 34%; padding-bottom: 6%\">+</p>"	"1185"	n/a	n/a	n/a	n/a	n/a	n/a	n/a	n/a	n/a
n/a	"image-keyboard-response"	"172"	"365070"	"0.0-5.0-2.0-1.59"	"puloo0"	"600"	"1366"	"chrome"	"108.0.0"	"FALSE"	"Windows 10"	"61.56"	"127"	n/a	n/a	n/a	n/a	n/a	n/a	"Trial"	n/a	n/a	n/a	"613"	"arrowleft"	n/a	"NULL"	"NULL"	"NULL"	"stimuli/Ebbinghaus_0.10000_0.28000.png"	n/a	"Ebbinghaus"	"arrowleft"	"1192"	"TRUE"	"Ebbinghaus"	"0.1000000000"	"0.2800000000"	"1"	"78"
n/a	"html-keyboard-response"	"173"	"366468"	"0.0-5.0-2.0-0.60"	"puloo0"	"600"	"1366"	"chrome"	"108.0.0"	"FALSE"	"Windows 10"	"61.56"	"127"	n/a	n/a	n/a	n/a	n/a	n/a	"fixation"	n/a	n/a	n/a	n/a	"NULL"	n/a	"NULL"	"NULL"	"NULL"	"<p style=\"color: black; font-size: 80px; padding-left: 32%; padding-right: 10%; padding-top: 7%; padding-bottom: 10%\">+</p>"	"1375"	n/a	n/a	n/a	n/a	n/a	n/a	n/a	n/a	n/a
n/a	"image-keyboard-response"	"174"	"366956"	"0.0-5.0-2.0-1.60"	"puloo0"	"600"	"1366"	"chrome"	"108.0.0"	"FALSE"	"Windows 10"	"61.56"	"127"	n/a	n/a	n/a	n/a	n/a	n/a	"Trial"	n/a	n/a	n/a	"487"	"arrowleft"	n/a	"NULL"	"NULL"	"NULL"	"stimuli/Ebbinghaus_-0.35714_-0.11071.png"	n/a	"Ebbinghaus"	"arrowright"	"1398"	"FALSE"	"Ebbinghaus"	"-0.357140000"	"-0.110710000"	"1"	"79"
n/a	"html-keyboard-response"	"175"	"368345"	"0.0-5.0-2.0-0.61"	"puloo0"	"600"	"1366"	"chrome"	"108.0.0"	"FALSE"	"Windows 10"	"61.56"	"127"	n/a	n/a	n/a	n/a	n/a	n/a	"fixation"	n/a	n/a	n/a	n/a	"NULL"	n/a	"NULL"	"NULL"	"NULL"	"<p style=\"color: black; font-size: 80px; padding-left: 22%; padding-right: 32%; padding-top: 43%; padding-bottom: 46%\">+</p>"	"1379"	n/a	n/a	n/a	n/a	n/a	n/a	n/a	n/a	n/a
n/a	"image-keyboard-response"	"176"	"368971"	"0.0-5.0-2.0-1.61"	"puloo0"	"600"	"1366"	"chrome"	"108.0.0"	"FALSE"	"Windows 10"	"61.56"	"127"	n/a	n/a	n/a	n/a	n/a	n/a	"Trial"	n/a	n/a	n/a	"623"	"arrowright"	n/a	"NULL"	"NULL"	"NULL"	"stimuli/Ebbinghaus_-0.35714_-0.2150.png"	n/a	"Ebbinghaus"	"arrowright"	"1389"	"TRUE"	"Ebbinghaus"	"-0.357140000"	"-0.215000000"	"1"	"80"
n/a	"html-keyboard-response"	"177"	"370338"	"0.0-5.0-2.0-0.62"	"puloo0"	"600"	"1366"	"chrome"	"108.0.0"	"FALSE"	"Windows 10"	"61.56"	"127"	n/a	n/a	n/a	n/a	n/a	n/a	"fixation"	n/a	n/a	n/a	n/a	"NULL"	n/a	"NULL"	"NULL"	"NULL"	"<p style=\"color: black; font-size: 80px; padding-left: 41%; padding-right: 40%; padding-top: 23%; padding-bottom: 4%\">+</p>"	"1358"	n/a	n/a	n/a	n/a	n/a	n/a	n/a	n/a	n/a
n/a	"image-keyboard-response"	"178"	"371410"	"0.0-5.0-2.0-1.62"	"puloo0"	"600"	"1366"	"chrome"	"108.0.0"	"FALSE"	"Windows 10"	"61.56"	"127"	n/a	n/a	n/a	n/a	n/a	n/a	"Trial"	n/a	n/a	n/a	"1071"	"arrowleft"	n/a	"NULL"	"NULL"	"NULL"	"stimuli/Ebbinghaus_0.87143_0.21500.png"	n/a	"Ebbinghaus"	"arrowleft"	"1367"	"TRUE"	"Ebbinghaus"	"0.8714300000"	"0.2150000000"	"1"	"81"
n/a	"html-keyboard-response"	"179"	"372541"	"0.0-5.0-2.0-0.63"	"puloo0"	"600"	"1366"	"chrome"	"108.0.0"	"FALSE"	"Windows 10"	"61.56"	"127"	n/a	n/a	n/a	n/a	n/a	n/a	"fixation"	n/a	n/a	n/a	n/a	"NULL"	n/a	"NULL"	"NULL"	"NULL"	"<p style=\"color: black; font-size: 80px; padding-left: 37%; padding-right: 33%; padding-top: 41%; padding-bottom: 21%\">+</p>"	"1112"	n/a	n/a	n/a	n/a	n/a	n/a	n/a	n/a	n/a
n/a	"image-keyboard-response"	"180"	"372996"	"0.0-5.0-2.0-1.63"	"puloo0"	"600"	"1366"	"chrome"	"108.0.0"	"FALSE"	"Windows 10"	"61.56"	"127"	n/a	n/a	n/a	n/a	n/a	n/a	"Trial"	n/a	n/a	n/a	"452"	"arrowleft"	n/a	"NULL"	"NULL"	"NULL"	"stimuli/Ebbinghaus_0.35714_0.21500.png"	n/a	"Ebbinghaus"	"arrowleft"	"1131"	"TRUE"	"Ebbinghaus"	"0.3571400000"	"0.2150000000"	"1"	"82"
n/a	"html-button-response"	"181"	"392915"	"0.0-5.0-3.0"	"puloo0"	"600"	"1366"	"chrome"	"108.0.0"	"FALSE"	"Windows 10"	"61.56"	"127"	n/a	n/a	n/a	n/a	n/a	n/a	"block_results"	n/a	n/a	n/a	"19917"	"0"	n/a	"NULL"	"NULL"	"NULL"	"<p>Your score for this illusion is <p style=\"color: black; font-size: 48px; font-weight: bold;\">75.8 %</p><hr><p>Can you do better in the next illusion?</p>"	n/a	n/a	n/a	n/a	n/a	n/a	n/a	n/a	n/a	n/a
"TRUE"	"preload"	"182"	"393115"	"0.0-6.0-0.0"	"puloo0"	"600"	"1366"	"chrome"	"108.0.0"	"FALSE"	"Windows 10"	"61.56"	"127"	n/a	n/a	n/a	n/a	n/a	n/a	n/a	n/a	n/a	n/a	n/a	"NULL"	"FALSE"	"list()"	"list()"	"list()"	n/a	n/a	n/a	n/a	n/a	n/a	n/a	n/a	n/a	n/a	n/a
n/a	"html-keyboard-response"	"183"	"398866"	"0.0-6.0-1.0"	"puloo0"	"600"	"1366"	"chrome"	"108.0.0"	"FALSE"	"Windows 10"	"61.56"	"127"	n/a	n/a	n/a	n/a	n/a	n/a	n/a	n/a	n/a	n/a	"5750"	"enter"	n/a	"NULL"	"NULL"	"NULL"	"<p><b>Part 2/6</b></p><p>In this part, two red lines will appear side by side.</p><p>Your task is to tell <b>which line is longer</b> in length, regardless of their orientation, as fast as you can, and without making errors.</p><p>Don't get distracted by the orientation of the lines!</p><p>Press <b>the LEFT or the RIGHT arrow</b> to indicate which <b>line is the longer one.</b></p><div style='float: center'><img src='materials/instructions/VerticalHorizontal_Demo.png' height='300'></img><p><img src='utils/answer/answer_leftright_keyboard.PNG' height='150'></img></p><p class='small'>In this example, the correct answer is the <b>LEFT arrow</b>.</p></div><p>Are you ready? <b>Press ENTER to start</b></p>"	n/a	n/a	n/a	n/a	n/a	n/a	n/a	n/a	n/a	n/a
n/a	"html-keyboard-response"	"184"	"400436"	"0.0-6.0-2.0-0.0"	"puloo0"	"600"	"1366"	"chrome"	"108.0.0"	"FALSE"	"Windows 10"	"61.56"	"127"	n/a	n/a	n/a	n/a	n/a	n/a	"fixation"	n/a	n/a	n/a	n/a	"NULL"	n/a	"NULL"	"NULL"	"NULL"	"<p style=\"color: black; font-size: 80px; padding-left: 14%; padding-right: 10%; padding-top: 16%; padding-bottom: 35%\">+</p>"	"1046"	n/a	n/a	n/a	n/a	n/a	n/a	n/a	n/a	n/a
n/a	"image-keyboard-response"	"185"	"401441"	"0.0-6.0-2.0-1.0"	"puloo0"	"600"	"1366"	"chrome"	"108.0.0"	"FALSE"	"Windows 10"	"61.56"	"127"	n/a	n/a	n/a	n/a	n/a	n/a	"Trial"	n/a	n/a	n/a	"1003"	"arrowright"	n/a	"NULL"	"NULL"	"NULL"	"stimuli/VerticalHorizontal_-20.27143_-0.0673.png"	n/a	"VerticalHorizontal"	"arrowright"	"1570"	"TRUE"	"VerticalHorizontal"	"-20.27143000"	"-0.067300000"	"2"	"1"
n/a	"html-keyboard-response"	"186"	"402628"	"0.0-6.0-2.0-0.1"	"puloo0"	"600"	"1366"	"chrome"	"108.0.0"	"FALSE"	"Windows 10"	"61.56"	"127"	n/a	n/a	n/a	n/a	n/a	n/a	"fixation"	n/a	n/a	n/a	n/a	"NULL"	n/a	"NULL"	"NULL"	"NULL"	"<p style=\"color: black; font-size: 80px; padding-left: 24%; padding-right: 47%; padding-top: 36%; padding-bottom: 46%\">+</p>"	"1164"	n/a	n/a	n/a	n/a	n/a	n/a	n/a	n/a	n/a
n/a	"image-keyboard-response"	"187"	"403161"	"0.0-6.0-2.0-1.1"	"puloo0"	"600"	"1366"	"chrome"	"108.0.0"	"FALSE"	"Windows 10"	"61.56"	"127"	n/a	n/a	n/a	n/a	n/a	n/a	"Trial"	n/a	n/a	n/a	"532"	"arrowleft"	n/a	"NULL"	"NULL"	"NULL"	"stimuli/VerticalHorizontal_-11.78571_0.22500.png"	n/a	"VerticalHorizontal"	"arrowleft"	"1187"	"TRUE"	"VerticalHorizontal"	"-11.78571000"	"0.2250000000"	"2"	"2"
n/a	"html-keyboard-response"	"188"	"404284"	"0.0-6.0-2.0-0.2"	"puloo0"	"600"	"1366"	"chrome"	"108.0.0"	"FALSE"	"Windows 10"	"61.56"	"127"	n/a	n/a	n/a	n/a	n/a	n/a	"fixation"	n/a	n/a	n/a	n/a	"NULL"	n/a	"NULL"	"NULL"	"NULL"	"<p style=\"color: black; font-size: 80px; padding-left: 18%; padding-right: 32%; padding-top: 27%; padding-bottom: 30%\">+</p>"	"1101"	n/a	n/a	n/a	n/a	n/a	n/a	n/a	n/a	n/a
n/a	"image-keyboard-response"	"189"	"405201"	"0.0-6.0-2.0-1.2"	"puloo0"	"600"	"1366"	"chrome"	"108.0.0"	"FALSE"	"Windows 10"	"61.56"	"127"	n/a	n/a	n/a	n/a	n/a	n/a	"Trial"	n/a	n/a	n/a	"916"	"arrowright"	n/a	"NULL"	"NULL"	"NULL"	"stimuli/VerticalHorizontal_20.27143_-0.0673.png"	n/a	"VerticalHorizontal"	"arrowright"	"1123"	"TRUE"	"VerticalHorizontal"	"20.271430000"	"-0.067300000"	"2"	"3"
n/a	"html-keyboard-response"	"190"	"406397"	"0.0-6.0-2.0-0.3"	"puloo0"	"600"	"1366"	"chrome"	"108.0.0"	"FALSE"	"Windows 10"	"61.56"	"127"	n/a	n/a	n/a	n/a	n/a	n/a	"fixation"	n/a	n/a	n/a	n/a	"NULL"	n/a	"NULL"	"NULL"	"NULL"	"<p style=\"color: black; font-size: 80px; padding-left: 14%; padding-right: 0%; padding-top: 16%; padding-bottom: 26%\">+</p>"	"1172"	n/a	n/a	n/a	n/a	n/a	n/a	n/a	n/a	n/a
n/a	"image-keyboard-response"	"191"	"407288"	"0.0-6.0-2.0-1.3"	"puloo0"	"600"	"1366"	"chrome"	"108.0.0"	"FALSE"	"Windows 10"	"61.56"	"127"	n/a	n/a	n/a	n/a	n/a	n/a	"Trial"	n/a	n/a	n/a	"889"	"arrowright"	n/a	"NULL"	"NULL"	"NULL"	"stimuli/VerticalHorizontal_11.78571_0.10960.png"	n/a	"VerticalHorizontal"	"arrowleft"	"1196"	"FALSE"	"VerticalHorizontal"	"11.785710000"	"0.1096000000"	"2"	"4"
n/a	"html-keyboard-response"	"192"	"408715"	"0.0-6.0-2.0-0.4"	"puloo0"	"600"	"1366"	"chrome"	"108.0.0"	"FALSE"	"Windows 10"	"61.56"	"127"	n/a	n/a	n/a	n/a	n/a	n/a	"fixation"	n/a	n/a	n/a	n/a	"NULL"	n/a	"NULL"	"NULL"	"NULL"	"<p style=\"color: black; font-size: 80px; padding-left: 31%; padding-right: 36%; padding-top: 45%; padding-bottom: 35%\">+</p>"	"1420"	n/a	n/a	n/a	n/a	n/a	n/a	n/a	n/a	n/a
n/a	"image-keyboard-response"	"193"	"409561"	"0.0-6.0-2.0-1.4"	"puloo0"	"600"	"1366"	"chrome"	"108.0.0"	"FALSE"	"Windows 10"	"61.56"	"127"	n/a	n/a	n/a	n/a	n/a	n/a	"Trial"	n/a	n/a	n/a	"844"	"arrowleft"	n/a	"NULL"	"NULL"	"NULL"	"stimuli/VerticalHorizontal_-28.75714_0.06730.png"	n/a	"VerticalHorizontal"	"arrowleft"	"1427"	"TRUE"	"VerticalHorizontal"	"-28.75714000"	"0.0673000000"	"2"	"5"
n/a	"html-keyboard-response"	"194"	"410646"	"0.0-6.0-2.0-0.5"	"puloo0"	"600"	"1366"	"chrome"	"108.0.0"	"FALSE"	"Windows 10"	"61.56"	"127"	n/a	n/a	n/a	n/a	n/a	n/a	"fixation"	n/a	n/a	n/a	n/a	"NULL"	n/a	"NULL"	"NULL"	"NULL"	"<p style=\"color: black; font-size: 80px; padding-left: 7%; padding-right: 42%; padding-top: 44%; padding-bottom: 37%\">+</p>"	"1070"	n/a	n/a	n/a	n/a	n/a	n/a	n/a	n/a	n/a
n/a	"image-keyboard-response"	"195"	"411190"	"0.0-6.0-2.0-1.5"	"puloo0"	"600"	"1366"	"chrome"	"108.0.0"	"FALSE"	"Windows 10"	"61.56"	"127"	n/a	n/a	n/a	n/a	n/a	n/a	"Trial"	n/a	n/a	n/a	"541"	"arrowleft"	n/a	"NULL"	"NULL"	"NULL"	"stimuli/VerticalHorizontal_-28.75714_0.22500.png"	n/a	"VerticalHorizontal"	"arrowleft"	"1085"	"TRUE"	"VerticalHorizontal"	"-28.75714000"	"0.2250000000"	"2"	"6"
n/a	"html-keyboard-response"	"196"	"412658"	"0.0-6.0-2.0-0.6"	"puloo0"	"600"	"1366"	"chrome"	"108.0.0"	"FALSE"	"Windows 10"	"61.56"	"127"	n/a	n/a	n/a	n/a	n/a	n/a	"fixation"	n/a	n/a	n/a	n/a	"NULL"	n/a	"NULL"	"NULL"	"NULL"	"<p style=\"color: black; font-size: 80px; padding-left: 1%; padding-right: 46%; padding-top: 47%; padding-bottom: 44%\">+</p>"	"1452"	n/a	n/a	n/a	n/a	n/a	n/a	n/a	n/a	n/a
n/a	"image-keyboard-response"	"197"	"413102"	"0.0-6.0-2.0-1.6"	"puloo0"	"600"	"1366"	"chrome"	"108.0.0"	"FALSE"	"Windows 10"	"61.56"	"127"	n/a	n/a	n/a	n/a	n/a	n/a	"Trial"	n/a	n/a	n/a	"441"	"arrowleft"	n/a	"NULL"	"NULL"	"NULL"	"stimuli/VerticalHorizontal_-28.75714_0.16217.png"	n/a	"VerticalHorizontal"	"arrowleft"	"1468"	"TRUE"	"VerticalHorizontal"	"-28.75714000"	"0.1621700000"	"2"	"7"
n/a	"html-keyboard-response"	"198"	"414207"	"0.0-6.0-2.0-0.7"	"puloo0"	"600"	"1366"	"chrome"	"108.0.0"	"FALSE"	"Windows 10"	"61.56"	"127"	n/a	n/a	n/a	n/a	n/a	n/a	"fixation"	n/a	n/a	n/a	n/a	"NULL"	n/a	"NULL"	"NULL"	"NULL"	"<p style=\"color: black; font-size: 80px; padding-left: 32%; padding-right: 4%; padding-top: 19%; padding-bottom: 2%\">+</p>"	"1101"	n/a	n/a	n/a	n/a	n/a	n/a	n/a	n/a	n/a
n/a	"image-keyboard-response"	"199"	"414755"	"0.0-6.0-2.0-1.7"	"puloo0"	"600"	"1366"	"chrome"	"108.0.0"	"FALSE"	"Windows 10"	"61.56"	"127"	n/a	n/a	n/a	n/a	n/a	n/a	"Trial"	n/a	n/a	n/a	"546"	"arrowright"	n/a	"NULL"	"NULL"	"NULL"	"stimuli/VerticalHorizontal_-11.78571_-0.1096.png"	n/a	"VerticalHorizontal"	"arrowright"	"1105"	"TRUE"	"VerticalHorizontal"	"-11.78571000"	"-0.109600000"	"2"	"8"
n/a	"html-keyboard-response"	"200"	"416186"	"0.0-6.0-2.0-0.8"	"puloo0"	"600"	"1366"	"chrome"	"108.0.0"	"FALSE"	"Windows 10"	"61.56"	"127"	n/a	n/a	n/a	n/a	n/a	n/a	"fixation"	n/a	n/a	n/a	n/a	"NULL"	n/a	"NULL"	"NULL"	"NULL"	"<p style=\"color: black; font-size: 80px; padding-left: 26%; padding-right: 39%; padding-top: 34%; padding-bottom: 30%\">+</p>"	"1411"	n/a	n/a	n/a	n/a	n/a	n/a	n/a	n/a	n/a
n/a	"image-keyboard-response"	"201"	"416893"	"0.0-6.0-2.0-1.8"	"puloo0"	"600"	"1366"	"chrome"	"108.0.0"	"FALSE"	"Windows 10"	"61.56"	"127"	n/a	n/a	n/a	n/a	n/a	n/a	"Trial"	n/a	n/a	n/a	"705"	"arrowleft"	n/a	"NULL"	"NULL"	"NULL"	"stimuli/VerticalHorizontal_11.78571_0.22500.png"	n/a	"VerticalHorizontal"	"arrowleft"	"1431"	"TRUE"	"VerticalHorizontal"	"11.785710000"	"0.2250000000"	"2"	"9"
n/a	"html-keyboard-response"	"202"	"418191"	"0.0-6.0-2.0-0.9"	"puloo0"	"600"	"1366"	"chrome"	"108.0.0"	"FALSE"	"Windows 10"	"61.56"	"127"	n/a	n/a	n/a	n/a	n/a	n/a	"fixation"	n/a	n/a	n/a	n/a	"NULL"	n/a	"NULL"	"NULL"	"NULL"	"<p style=\"color: black; font-size: 80px; padding-left: 7%; padding-right: 29%; padding-top: 7%; padding-bottom: 39%\">+</p>"	"1285"	n/a	n/a	n/a	n/a	n/a	n/a	n/a	n/a	n/a
n/a	"image-keyboard-response"	"203"	"418645"	"0.0-6.0-2.0-1.9"	"puloo0"	"600"	"1366"	"chrome"	"108.0.0"	"FALSE"	"Windows 10"	"61.56"	"127"	n/a	n/a	n/a	n/a	n/a	n/a	"Trial"	n/a	n/a	n/a	"450"	"arrowleft"	n/a	"NULL"	"NULL"	"NULL"	"stimuli/VerticalHorizontal_-11.78571_0.06730.png"	n/a	"VerticalHorizontal"	"arrowleft"	"1298"	"TRUE"	"VerticalHorizontal"	"-11.78571000"	"0.0673000000"	"2"	"10"
n/a	"html-keyboard-response"	"204"	"419878"	"0.0-6.0-2.0-0.10"	"puloo0"	"600"	"1366"	"chrome"	"108.0.0"	"FALSE"	"Windows 10"	"61.56"	"127"	n/a	n/a	n/a	n/a	n/a	n/a	"fixation"	n/a	n/a	n/a	n/a	"NULL"	n/a	"NULL"	"NULL"	"NULL"	"<p style=\"color: black; font-size: 80px; padding-left: 36%; padding-right: 19%; padding-top: 1%; padding-bottom: 33%\">+</p>"	"1230"	n/a	n/a	n/a	n/a	n/a	n/a	n/a	n/a	n/a
n/a	"image-keyboard-response"	"205"	"420331"	"0.0-6.0-2.0-1.10"	"puloo0"	"600"	"1366"	"chrome"	"108.0.0"	"FALSE"	"Windows 10"	"61.56"	"127"	n/a	n/a	n/a	n/a	n/a	n/a	"Trial"	n/a	n/a	n/a	"451"	"arrowright"	n/a	"NULL"	"NULL"	"NULL"	"stimuli/VerticalHorizontal_-28.75714_-0.0673.png"	n/a	"VerticalHorizontal"	"arrowright"	"1233"	"TRUE"	"VerticalHorizontal"	"-28.75714000"	"-0.067300000"	"2"	"11"
n/a	"html-keyboard-response"	"206"	"421809"	"0.0-6.0-2.0-0.11"	"puloo0"	"600"	"1366"	"chrome"	"108.0.0"	"FALSE"	"Windows 10"	"61.56"	"127"	n/a	n/a	n/a	n/a	n/a	n/a	"fixation"	n/a	n/a	n/a	n/a	"NULL"	n/a	"NULL"	"NULL"	"NULL"	"<p style=\"color: black; font-size: 80px; padding-left: 32%; padding-right: 39%; padding-top: 7%; padding-bottom: 16%\">+</p>"	"1470"	n/a	n/a	n/a	n/a	n/a	n/a	n/a	n/a	n/a
n/a	"image-keyboard-response"	"207"	"422218"	"0.0-6.0-2.0-1.11"	"puloo0"	"600"	"1366"	"chrome"	"108.0.0"	"FALSE"	"Windows 10"	"61.56"	"127"	n/a	n/a	n/a	n/a	n/a	n/a	"Trial"	n/a	n/a	n/a	"407"	"arrowright"	n/a	"NULL"	"NULL"	"NULL"	"stimuli/VerticalHorizontal_28.75714_0.06730.png"	n/a	"VerticalHorizontal"	"arrowleft"	"1478"	"FALSE"	"VerticalHorizontal"	"28.757140000"	"0.0673000000"	"2"	"12"
n/a	"html-keyboard-response"	"208"	"423275"	"0.0-6.0-2.0-0.12"	"puloo0"	"600"	"1366"	"chrome"	"108.0.0"	"FALSE"	"Windows 10"	"61.56"	"127"	n/a	n/a	n/a	n/a	n/a	n/a	"fixation"	n/a	n/a	n/a	n/a	"NULL"	n/a	"NULL"	"NULL"	"NULL"	"<p style=\"color: black; font-size: 80px; padding-left: 9%; padding-right: 40%; padding-top: 7%; padding-bottom: 28%\">+</p>"	"1044"	n/a	n/a	n/a	n/a	n/a	n/a	n/a	n/a	n/a
n/a	"image-keyboard-response"	"209"	"423795"	"0.0-6.0-2.0-1.12"	"puloo0"	"600"	"1366"	"chrome"	"108.0.0"	"FALSE"	"Windows 10"	"61.56"	"127"	n/a	n/a	n/a	n/a	n/a	n/a	"Trial"	n/a	n/a	n/a	"518"	"arrowleft"	n/a	"NULL"	"NULL"	"NULL"	"stimuli/VerticalHorizontal_-3.3000_0.10960.png"	n/a	"VerticalHorizontal"	"arrowleft"	"1057"	"TRUE"	"VerticalHorizontal"	"-3.300000000"	"0.1096000000"	"2"	"13"
n/a	"html-keyboard-response"	"210"	"425215"	"0.0-6.0-2.0-0.13"	"puloo0"	"600"	"1366"	"chrome"	"108.0.0"	"FALSE"	"Windows 10"	"61.56"	"127"	n/a	n/a	n/a	n/a	n/a	n/a	"fixation"	n/a	n/a	n/a	n/a	"NULL"	n/a	"NULL"	"NULL"	"NULL"	"<p style=\"color: black; font-size: 80px; padding-left: 25%; padding-right: 19%; padding-top: 42%; padding-bottom: 38%\">+</p>"	"1407"	n/a	n/a	n/a	n/a	n/a	n/a	n/a	n/a	n/a
n/a	"image-keyboard-response"	"211"	"425852"	"0.0-6.0-2.0-1.13"	"puloo0"	"600"	"1366"	"chrome"	"108.0.0"	"FALSE"	"Windows 10"	"61.56"	"127"	n/a	n/a	n/a	n/a	n/a	n/a	"Trial"	n/a	n/a	n/a	"635"	"arrowright"	n/a	"NULL"	"NULL"	"NULL"	"stimuli/VerticalHorizontal_-3.3000_-0.1096.png"	n/a	"VerticalHorizontal"	"arrowright"	"1420"	"TRUE"	"VerticalHorizontal"	"-3.300000000"	"-0.109600000"	"2"	"14"
n/a	"html-keyboard-response"	"212"	"427130"	"0.0-6.0-2.0-0.14"	"puloo0"	"600"	"1366"	"chrome"	"108.0.0"	"FALSE"	"Windows 10"	"61.56"	"127"	n/a	n/a	n/a	n/a	n/a	n/a	"fixation"	n/a	n/a	n/a	n/a	"NULL"	n/a	"NULL"	"NULL"	"NULL"	"<p style=\"color: black; font-size: 80px; padding-left: 11%; padding-right: 33%; padding-top: 33%; padding-bottom: 14%\">+</p>"	"1265"	n/a	n/a	n/a	n/a	n/a	n/a	n/a	n/a	n/a
n/a	"image-keyboard-response"	"213"	"427572"	"0.0-6.0-2.0-1.14"	"puloo0"	"600"	"1366"	"chrome"	"108.0.0"	"FALSE"	"Windows 10"	"61.56"	"127"	n/a	n/a	n/a	n/a	n/a	n/a	"Trial"	n/a	n/a	n/a	"440"	"arrowright"	n/a	"NULL"	"NULL"	"NULL"	"stimuli/VerticalHorizontal_20.27143_0.10960.png"	n/a	"VerticalHorizontal"	"arrowleft"	"1278"	"FALSE"	"VerticalHorizontal"	"20.271430000"	"0.1096000000"	"2"	"15"
n/a	"html-keyboard-response"	"214"	"428617"	"0.0-6.0-2.0-0.15"	"puloo0"	"600"	"1366"	"chrome"	"108.0.0"	"FALSE"	"Windows 10"	"61.56"	"127"	n/a	n/a	n/a	n/a	n/a	n/a	"fixation"	n/a	n/a	n/a	n/a	"NULL"	n/a	"NULL"	"NULL"	"NULL"	"<p style=\"color: black; font-size: 80px; padding-left: 18%; padding-right: 41%; padding-top: 22%; padding-bottom: 6%\">+</p>"	"1031"	n/a	n/a	n/a	n/a	n/a	n/a	n/a	n/a	n/a
n/a	"image-keyboard-response"	"215"	"429014"	"0.0-6.0-2.0-1.15"	"puloo0"	"600"	"1366"	"chrome"	"108.0.0"	"FALSE"	"Windows 10"	"61.56"	"127"	n/a	n/a	n/a	n/a	n/a	n/a	"Trial"	n/a	n/a	n/a	"396"	"arrowright"	n/a	"NULL"	"NULL"	"NULL"	"stimuli/VerticalHorizontal_28.75714_0.22500.png"	n/a	"VerticalHorizontal"	"arrowleft"	"1045"	"FALSE"	"VerticalHorizontal"	"28.757140000"	"0.2250000000"	"2"	"16"
n/a	"html-keyboard-response"	"216"	"430513"	"0.0-6.0-2.0-0.16"	"puloo0"	"600"	"1366"	"chrome"	"108.0.0"	"FALSE"	"Windows 10"	"61.56"	"127"	n/a	n/a	n/a	n/a	n/a	n/a	"fixation"	n/a	n/a	n/a	n/a	"NULL"	n/a	"NULL"	"NULL"	"NULL"	"<p style=\"color: black; font-size: 80px; padding-left: 20%; padding-right: 1%; padding-top: 8%; padding-bottom: 7%\">+</p>"	"1483"	n/a	n/a	n/a	n/a	n/a	n/a	n/a	n/a	n/a
n/a	"image-keyboard-response"	"217"	"430866"	"0.0-6.0-2.0-1.16"	"puloo0"	"600"	"1366"	"chrome"	"108.0.0"	"FALSE"	"Windows 10"	"61.56"	"127"	n/a	n/a	n/a	n/a	n/a	n/a	"Trial"	n/a	n/a	n/a	"351"	"arrowright"	n/a	"NULL"	"NULL"	"NULL"	"stimuli/VerticalHorizontal_-11.78571_0.16217.png"	n/a	"VerticalHorizontal"	"arrowleft"	"1499"	"FALSE"	"VerticalHorizontal"	"-11.78571000"	"0.1621700000"	"2"	"17"
n/a	"html-keyboard-response"	"218"	"431956"	"0.0-6.0-2.0-0.17"	"puloo0"	"600"	"1366"	"chrome"	"108.0.0"	"FALSE"	"Windows 10"	"61.56"	"127"	n/a	n/a	n/a	n/a	n/a	n/a	"fixation"	n/a	n/a	n/a	n/a	"NULL"	n/a	"NULL"	"NULL"	"NULL"	"<p style=\"color: black; font-size: 80px; padding-left: 22%; padding-right: 44%; padding-top: 11%; padding-bottom: 49%\">+</p>"	"1075"	n/a	n/a	n/a	n/a	n/a	n/a	n/a	n/a	n/a
n/a	"image-keyboard-response"	"219"	"432341"	"0.0-6.0-2.0-1.17"	"puloo0"	"600"	"1366"	"chrome"	"108.0.0"	"FALSE"	"Windows 10"	"61.56"	"127"	n/a	n/a	n/a	n/a	n/a	n/a	"Trial"	n/a	n/a	n/a	"383"	"arrowleft"	n/a	"NULL"	"NULL"	"NULL"	"stimuli/VerticalHorizontal_-20.27143_0.22500.png"	n/a	"VerticalHorizontal"	"arrowleft"	"1090"	"TRUE"	"VerticalHorizontal"	"-20.27143000"	"0.2250000000"	"2"	"18"
n/a	"html-keyboard-response"	"220"	"433456"	"0.0-6.0-2.0-0.18"	"puloo0"	"600"	"1366"	"chrome"	"108.0.0"	"FALSE"	"Windows 10"	"61.56"	"127"	n/a	n/a	n/a	n/a	n/a	n/a	"fixation"	n/a	n/a	n/a	n/a	"NULL"	n/a	"NULL"	"NULL"	"NULL"	"<p style=\"color: black; font-size: 80px; padding-left: 46%; padding-right: 35%; padding-top: 0%; padding-bottom: 10%\">+</p>"	"1099"	n/a	n/a	n/a	n/a	n/a	n/a	n/a	n/a	n/a
n/a	"image-keyboard-response"	"221"	"433828"	"0.0-6.0-2.0-1.18"	"puloo0"	"600"	"1366"	"chrome"	"108.0.0"	"FALSE"	"Windows 10"	"61.56"	"127"	n/a	n/a	n/a	n/a	n/a	n/a	"Trial"	n/a	n/a	n/a	"371"	"arrowleft"	n/a	"NULL"	"NULL"	"NULL"	"stimuli/VerticalHorizontal_-20.27143_0.06730.png"	n/a	"VerticalHorizontal"	"arrowleft"	"1115"	"TRUE"	"VerticalHorizontal"	"-20.27143000"	"0.0673000000"	"2"	"19"
n/a	"html-keyboard-response"	"222"	"435039"	"0.0-6.0-2.0-0.19"	"puloo0"	"600"	"1366"	"chrome"	"108.0.0"	"FALSE"	"Windows 10"	"61.56"	"127"	n/a	n/a	n/a	n/a	n/a	n/a	"fixation"	n/a	n/a	n/a	n/a	"NULL"	n/a	"NULL"	"NULL"	"NULL"	"<p style=\"color: black; font-size: 80px; padding-left: 43%; padding-right: 48%; padding-top: 17%; padding-bottom: 28%\">+</p>"	"1206"	n/a	n/a	n/a	n/a	n/a	n/a	n/a	n/a	n/a
n/a	"image-keyboard-response"	"223"	"435439"	"0.0-6.0-2.0-1.19"	"puloo0"	"600"	"1366"	"chrome"	"108.0.0"	"FALSE"	"Windows 10"	"61.56"	"127"	n/a	n/a	n/a	n/a	n/a	n/a	"Trial"	n/a	n/a	n/a	"399"	"arrowleft"	n/a	"NULL"	"NULL"	"NULL"	"stimuli/VerticalHorizontal_-3.3000_0.22500.png"	n/a	"VerticalHorizontal"	"arrowleft"	"1211"	"TRUE"	"VerticalHorizontal"	"-3.300000000"	"0.2250000000"	"2"	"20"
n/a	"html-keyboard-response"	"224"	"436889"	"0.0-6.0-2.0-0.20"	"puloo0"	"600"	"1366"	"chrome"	"108.0.0"	"FALSE"	"Windows 10"	"61.56"	"127"	n/a	n/a	n/a	n/a	n/a	n/a	"fixation"	n/a	n/a	n/a	n/a	"NULL"	n/a	"NULL"	"NULL"	"NULL"	"<p style=\"color: black; font-size: 80px; padding-left: 43%; padding-right: 5%; padding-top: 31%; padding-bottom: 46%\">+</p>"	"1442"	n/a	n/a	n/a	n/a	n/a	n/a	n/a	n/a	n/a
n/a	"image-keyboard-response"	"225"	"437497"	"0.0-6.0-2.0-1.20"	"puloo0"	"600"	"1366"	"chrome"	"108.0.0"	"FALSE"	"Windows 10"	"61.56"	"127"	n/a	n/a	n/a	n/a	n/a	n/a	"Trial"	n/a	n/a	n/a	"607"	"arrowright"	n/a	"NULL"	"NULL"	"NULL"	"stimuli/VerticalHorizontal_20.27143_-0.2250.png"	n/a	"VerticalHorizontal"	"arrowright"	"1450"	"TRUE"	"VerticalHorizontal"	"20.271430000"	"-0.225000000"	"2"	"21"
n/a	"html-keyboard-response"	"226"	"438914"	"0.0-6.0-2.0-0.21"	"puloo0"	"600"	"1366"	"chrome"	"108.0.0"	"FALSE"	"Windows 10"	"61.56"	"127"	n/a	n/a	n/a	n/a	n/a	n/a	"fixation"	n/a	n/a	n/a	n/a	"NULL"	n/a	"NULL"	"NULL"	"NULL"	"<p style=\"color: black; font-size: 80px; padding-left: 25%; padding-right: 6%; padding-top: 25%; padding-bottom: 18%\">+</p>"	"1403"	n/a	n/a	n/a	n/a	n/a	n/a	n/a	n/a	n/a
n/a	"image-keyboard-response"	"227"	"439451"	"0.0-6.0-2.0-1.21"	"puloo0"	"600"	"1366"	"chrome"	"108.0.0"	"FALSE"	"Windows 10"	"61.56"	"127"	n/a	n/a	n/a	n/a	n/a	n/a	"Trial"	n/a	n/a	n/a	"535"	"arrowleft"	n/a	"NULL"	"NULL"	"NULL"	"stimuli/VerticalHorizontal_-3.3000_0.16217.png"	n/a	"VerticalHorizontal"	"arrowleft"	"1417"	"TRUE"	"VerticalHorizontal"	"-3.300000000"	"0.1621700000"	"2"	"22"
n/a	"html-keyboard-response"	"228"	"440859"	"0.0-6.0-2.0-0.22"	"puloo0"	"600"	"1366"	"chrome"	"108.0.0"	"FALSE"	"Windows 10"	"61.56"	"127"	n/a	n/a	n/a	n/a	n/a	n/a	"fixation"	n/a	n/a	n/a	n/a	"NULL"	n/a	"NULL"	"NULL"	"NULL"	"<p style=\"color: black; font-size: 80px; padding-left: 25%; padding-right: 33%; padding-top: 47%; padding-bottom: 6%\">+</p>"	"1400"	n/a	n/a	n/a	n/a	n/a	n/a	n/a	n/a	n/a
n/a	"image-keyboard-response"	"229"	"441387"	"0.0-6.0-2.0-1.22"	"puloo0"	"600"	"1366"	"chrome"	"108.0.0"	"FALSE"	"Windows 10"	"61.56"	"127"	n/a	n/a	n/a	n/a	n/a	n/a	"Trial"	n/a	n/a	n/a	"526"	"arrowright"	n/a	"NULL"	"NULL"	"NULL"	"stimuli/VerticalHorizontal_-3.3000_-0.2250.png"	n/a	"VerticalHorizontal"	"arrowright"	"1408"	"TRUE"	"VerticalHorizontal"	"-3.300000000"	"-0.225000000"	"2"	"23"
n/a	"html-keyboard-response"	"230"	"442422"	"0.0-6.0-2.0-0.23"	"puloo0"	"600"	"1366"	"chrome"	"108.0.0"	"FALSE"	"Windows 10"	"61.56"	"127"	n/a	n/a	n/a	n/a	n/a	n/a	"fixation"	n/a	n/a	n/a	n/a	"NULL"	n/a	"NULL"	"NULL"	"NULL"	"<p style=\"color: black; font-size: 80px; padding-left: 41%; padding-right: 48%; padding-top: 24%; padding-bottom: 26%\">+</p>"	"1022"	n/a	n/a	n/a	n/a	n/a	n/a	n/a	n/a	n/a
n/a	"image-keyboard-response"	"231"	"442873"	"0.0-6.0-2.0-1.23"	"puloo0"	"600"	"1366"	"chrome"	"108.0.0"	"FALSE"	"Windows 10"	"61.56"	"127"	n/a	n/a	n/a	n/a	n/a	n/a	"Trial"	n/a	n/a	n/a	"450"	"arrowleft"	n/a	"NULL"	"NULL"	"NULL"	"stimuli/VerticalHorizontal_-28.75714_0.10960.png"	n/a	"VerticalHorizontal"	"arrowleft"	"1035"	"TRUE"	"VerticalHorizontal"	"-28.75714000"	"0.1096000000"	"2"	"24"
n/a	"html-keyboard-response"	"232"	"444191"	"0.0-6.0-2.0-0.24"	"puloo0"	"600"	"1366"	"chrome"	"108.0.0"	"FALSE"	"Windows 10"	"61.56"	"127"	n/a	n/a	n/a	n/a	n/a	n/a	"fixation"	n/a	n/a	n/a	n/a	"NULL"	n/a	"NULL"	"NULL"	"NULL"	"<p style=\"color: black; font-size: 80px; padding-left: 32%; padding-right: 36%; padding-top: 8%; padding-bottom: 25%\">+</p>"	"1311"	n/a	n/a	n/a	n/a	n/a	n/a	n/a	n/a	n/a
n/a	"image-keyboard-response"	"233"	"444617"	"0.0-6.0-2.0-1.24"	"puloo0"	"600"	"1366"	"chrome"	"108.0.0"	"FALSE"	"Windows 10"	"61.56"	"127"	n/a	n/a	n/a	n/a	n/a	n/a	"Trial"	n/a	n/a	n/a	"423"	"arrowleft"	n/a	"NULL"	"NULL"	"NULL"	"stimuli/VerticalHorizontal_3.30000_0.16217.png"	n/a	"VerticalHorizontal"	"arrowleft"	"1318"	"TRUE"	"VerticalHorizontal"	"3.3000000000"	"0.1621700000"	"2"	"25"
n/a	"html-keyboard-response"	"234"	"445910"	"0.0-6.0-2.0-0.25"	"puloo0"	"600"	"1366"	"chrome"	"108.0.0"	"FALSE"	"Windows 10"	"61.56"	"127"	n/a	n/a	n/a	n/a	n/a	n/a	"fixation"	n/a	n/a	n/a	n/a	"NULL"	n/a	"NULL"	"NULL"	"NULL"	"<p style=\"color: black; font-size: 80px; padding-left: 41%; padding-right: 3%; padding-top: 18%; padding-bottom: 29%\">+</p>"	"1287"	n/a	n/a	n/a	n/a	n/a	n/a	n/a	n/a	n/a
n/a	"image-keyboard-response"	"235"	"446327"	"0.0-6.0-2.0-1.25"	"puloo0"	"600"	"1366"	"chrome"	"108.0.0"	"FALSE"	"Windows 10"	"61.56"	"127"	n/a	n/a	n/a	n/a	n/a	n/a	"Trial"	n/a	n/a	n/a	"415"	"arrowleft"	n/a	"NULL"	"NULL"	"NULL"	"stimuli/VerticalHorizontal_11.78571_-0.1096.png"	n/a	"VerticalHorizontal"	"arrowright"	"1293"	"FALSE"	"VerticalHorizontal"	"11.785710000"	"-0.109600000"	"2"	"26"
n/a	"html-keyboard-response"	"236"	"447575"	"0.0-6.0-2.0-0.26"	"puloo0"	"600"	"1366"	"chrome"	"108.0.0"	"FALSE"	"Windows 10"	"61.56"	"127"	n/a	n/a	n/a	n/a	n/a	n/a	"fixation"	n/a	n/a	n/a	n/a	"NULL"	n/a	"NULL"	"NULL"	"NULL"	"<p style=\"color: black; font-size: 80px; padding-left: 14%; padding-right: 24%; padding-top: 0%; padding-bottom: 18%\">+</p>"	"1232"	n/a	n/a	n/a	n/a	n/a	n/a	n/a	n/a	n/a
n/a	"image-keyboard-response"	"237"	"448017"	"0.0-6.0-2.0-1.26"	"puloo0"	"600"	"1366"	"chrome"	"108.0.0"	"FALSE"	"Windows 10"	"61.56"	"127"	n/a	n/a	n/a	n/a	n/a	n/a	"Trial"	n/a	n/a	n/a	"441"	"arrowleft"	n/a	"NULL"	"NULL"	"NULL"	"stimuli/VerticalHorizontal_11.78571_-0.0673.png"	n/a	"VerticalHorizontal"	"arrowright"	"1248"	"FALSE"	"VerticalHorizontal"	"11.785710000"	"-0.067300000"	"2"	"27"
n/a	"html-keyboard-response"	"238"	"449158"	"0.0-6.0-2.0-0.27"	"puloo0"	"600"	"1366"	"chrome"	"108.0.0"	"FALSE"	"Windows 10"	"61.56"	"127"	n/a	n/a	n/a	n/a	n/a	n/a	"fixation"	n/a	n/a	n/a	n/a	"NULL"	n/a	"NULL"	"NULL"	"NULL"	"<p style=\"color: black; font-size: 80px; padding-left: 47%; padding-right: 24%; padding-top: 27%; padding-bottom: 1%\">+</p>"	"1130"	n/a	n/a	n/a	n/a	n/a	n/a	n/a	n/a	n/a
n/a	"image-keyboard-response"	"239"	"449774"	"0.0-6.0-2.0-1.27"	"puloo0"	"600"	"1366"	"chrome"	"108.0.0"	"FALSE"	"Windows 10"	"61.56"	"127"	n/a	n/a	n/a	n/a	n/a	n/a	"Trial"	n/a	n/a	n/a	"610"	"arrowright"	n/a	"NULL"	"NULL"	"NULL"	"stimuli/VerticalHorizontal_-3.3000_-0.16217.png"	n/a	"VerticalHorizontal"	"arrowright"	"1141"	"TRUE"	"VerticalHorizontal"	"-3.300000000"	"-0.162170000"	"2"	"28"
n/a	"html-keyboard-response"	"240"	"451054"	"0.0-6.0-2.0-0.28"	"puloo0"	"600"	"1366"	"chrome"	"108.0.0"	"FALSE"	"Windows 10"	"61.56"	"127"	n/a	n/a	n/a	n/a	n/a	n/a	"fixation"	n/a	n/a	n/a	n/a	"NULL"	n/a	"NULL"	"NULL"	"NULL"	"<p style=\"color: black; font-size: 80px; padding-left: 21%; padding-right: 30%; padding-top: 12%; padding-bottom: 4%\">+</p>"	"1275"	n/a	n/a	n/a	n/a	n/a	n/a	n/a	n/a	n/a
n/a	"image-keyboard-response"	"241"	"451798"	"0.0-6.0-2.0-1.28"	"puloo0"	"600"	"1366"	"chrome"	"108.0.0"	"FALSE"	"Windows 10"	"61.56"	"127"	n/a	n/a	n/a	n/a	n/a	n/a	"Trial"	n/a	n/a	n/a	"742"	"arrowleft"	n/a	"NULL"	"NULL"	"NULL"	"stimuli/VerticalHorizontal_20.27143_-0.16217.png"	n/a	"VerticalHorizontal"	"arrowright"	"1280"	"FALSE"	"VerticalHorizontal"	"20.271430000"	"-0.162170000"	"2"	"29"
n/a	"html-keyboard-response"	"242"	"453044"	"0.0-6.0-2.0-0.29"	"puloo0"	"600"	"1366"	"chrome"	"108.0.0"	"FALSE"	"Windows 10"	"61.56"	"127"	n/a	n/a	n/a	n/a	n/a	n/a	"fixation"	n/a	n/a	n/a	n/a	"NULL"	n/a	"NULL"	"NULL"	"NULL"	"<p style=\"color: black; font-size: 80px; padding-left: 41%; padding-right: 21%; padding-top: 22%; padding-bottom: 20%\">+</p>"	"1236"	n/a	n/a	n/a	n/a	n/a	n/a	n/a	n/a	n/a
n/a	"image-keyboard-response"	"243"	"453535"	"0.0-6.0-2.0-1.29"	"puloo0"	"600"	"1366"	"chrome"	"108.0.0"	"FALSE"	"Windows 10"	"61.56"	"127"	n/a	n/a	n/a	n/a	n/a	n/a	"Trial"	n/a	n/a	n/a	"490"	"arrowleft"	n/a	"NULL"	"NULL"	"NULL"	"stimuli/VerticalHorizontal_28.75714_-0.0673.png"	n/a	"VerticalHorizontal"	"arrowright"	"1246"	"FALSE"	"VerticalHorizontal"	"28.757140000"	"-0.067300000"	"2"	"30"
n/a	"html-keyboard-response"	"244"	"455034"	"0.0-6.0-2.0-0.30"	"puloo0"	"600"	"1366"	"chrome"	"108.0.0"	"FALSE"	"Windows 10"	"61.56"	"127"	n/a	n/a	n/a	n/a	n/a	n/a	"fixation"	n/a	n/a	n/a	n/a	"NULL"	n/a	"NULL"	"NULL"	"NULL"	"<p style=\"color: black; font-size: 80px; padding-left: 44%; padding-right: 13%; padding-top: 10%; padding-bottom: 16%\">+</p>"	"1486"	n/a	n/a	n/a	n/a	n/a	n/a	n/a	n/a	n/a
n/a	"image-keyboard-response"	"245"	"455436"	"0.0-6.0-2.0-1.30"	"puloo0"	"600"	"1366"	"chrome"	"108.0.0"	"FALSE"	"Windows 10"	"61.56"	"127"	n/a	n/a	n/a	n/a	n/a	n/a	"Trial"	n/a	n/a	n/a	"401"	"arrowleft"	n/a	"NULL"	"NULL"	"NULL"	"stimuli/VerticalHorizontal_28.75714_-0.1096.png"	n/a	"VerticalHorizontal"	"arrowright"	"1499"	"FALSE"	"VerticalHorizontal"	"28.757140000"	"-0.109600000"	"2"	"31"
n/a	"html-keyboard-response"	"246"	"456609"	"0.0-6.0-2.0-0.31"	"puloo0"	"600"	"1366"	"chrome"	"108.0.0"	"FALSE"	"Windows 10"	"61.56"	"127"	n/a	n/a	n/a	n/a	n/a	n/a	"fixation"	n/a	n/a	n/a	n/a	"NULL"	n/a	"NULL"	"NULL"	"NULL"	"<p style=\"color: black; font-size: 80px; padding-left: 7%; padding-right: 28%; padding-top: 16%; padding-bottom: 31%\">+</p>"	"1156"	n/a	n/a	n/a	n/a	n/a	n/a	n/a	n/a	n/a
n/a	"image-keyboard-response"	"247"	"457192"	"0.0-6.0-2.0-1.31"	"puloo0"	"600"	"1366"	"chrome"	"108.0.0"	"FALSE"	"Windows 10"	"61.56"	"127"	n/a	n/a	n/a	n/a	n/a	n/a	"Trial"	n/a	n/a	n/a	"582"	"arrowright"	n/a	"NULL"	"NULL"	"NULL"	"stimuli/VerticalHorizontal_3.30000_0.06730.png"	n/a	"VerticalHorizontal"	"arrowleft"	"1173"	"FALSE"	"VerticalHorizontal"	"3.3000000000"	"0.0673000000"	"2"	"32"
n/a	"html-keyboard-response"	"248"	"458393"	"0.0-6.0-2.0-0.32"	"puloo0"	"600"	"1366"	"chrome"	"108.0.0"	"FALSE"	"Windows 10"	"61.56"	"127"	n/a	n/a	n/a	n/a	n/a	n/a	"fixation"	n/a	n/a	n/a	n/a	"NULL"	n/a	"NULL"	"NULL"	"NULL"	"<p style=\"color: black; font-size: 80px; padding-left: 1%; padding-right: 11%; padding-top: 24%; padding-bottom: 15%\">+</p>"	"1191"	n/a	n/a	n/a	n/a	n/a	n/a	n/a	n/a	n/a
n/a	"image-keyboard-response"	"249"	"458939"	"0.0-6.0-2.0-1.32"	"puloo0"	"600"	"1366"	"chrome"	"108.0.0"	"FALSE"	"Windows 10"	"61.56"	"127"	n/a	n/a	n/a	n/a	n/a	n/a	"Trial"	n/a	n/a	n/a	"545"	"arrowright"	n/a	"NULL"	"NULL"	"NULL"	"stimuli/VerticalHorizontal_-3.3000_-0.0673.png"	n/a	"VerticalHorizontal"	"arrowright"	"1201"	"TRUE"	"VerticalHorizontal"	"-3.300000000"	"-0.067300000"	"2"	"33"
n/a	"html-keyboard-response"	"250"	"460154"	"0.0-6.0-2.0-0.33"	"puloo0"	"600"	"1366"	"chrome"	"108.0.0"	"FALSE"	"Windows 10"	"61.56"	"127"	n/a	n/a	n/a	n/a	n/a	n/a	"fixation"	n/a	n/a	n/a	n/a	"NULL"	n/a	"NULL"	"NULL"	"NULL"	"<p style=\"color: black; font-size: 80px; padding-left: 45%; padding-right: 23%; padding-top: 34%; padding-bottom: 27%\">+</p>"	"1204"	n/a	n/a	n/a	n/a	n/a	n/a	n/a	n/a	n/a
