"success"	"trial_type"	"trial_index"	"time_elapsed"	"internal_node_id"	"participant_id"	"screen_height"	"screen_width"	"browser"	"browser_version"	"mobile"	"os"	"vsync_rate"	"subject_id"	"width"	"height"	"webaudio"	"fullscreen"	"webcam"	"microphone"	"screen"	"version"	"date"	"time"	"rt"	"response"	"timeout"	"failed_images"	"failed_audio"	"failed_video"	"stimulus"	"trial_duration"	"block"	"correct_response"	"prestimulus_duration"	"correct"	"type"	"illusion_strength"	"illusion_difference"	"block_number"	"trial_number"
"TRUE"	"fullscreen"	"0"	"1657"	"0.0-0.0"	"h67egb"	"600"	"1366"	"chrome"	"108.0.0"	"FALSE"	"Windows 10"	"60.85"	"150"	n/a	n/a	n/a	n/a	n/a	n/a	n/a	n/a	n/a	n/a	n/a	"NULL"	n/a	"NULL"	"NULL"	"NULL"	n/a	n/a	n/a	n/a	n/a	n/a	n/a	n/a	n/a	n/a	n/a
n/a	"browser-check"	"1"	"2669"	"0.0-1.0"	"h67egb"	"600"	"1366"	"chrome"	"108.0.0"	"FALSE"	"Windows 10"	"60.85"	"150"	"1366"	"600"	"TRUE"	"TRUE"	"TRUE"	"TRUE"	"browser_info"	"1.0"	"10/01/2023"	"13:11:44"	n/a	"NULL"	n/a	"NULL"	"NULL"	"NULL"	n/a	n/a	n/a	n/a	n/a	n/a	n/a	n/a	n/a	n/a	n/a
n/a	"survey-text"	"2"	"5241"	"0.0-2.0"	"h67egb"	"600"	"1366"	"chrome"	"108.0.0"	"FALSE"	"Windows 10"	"60.85"	"150"	n/a	n/a	n/a	n/a	n/a	n/a	"subject_id"	n/a	n/a	n/a	"2565"	"list(subject_id = \"150\")"	n/a	"NULL"	"NULL"	"NULL"	n/a	n/a	n/a	n/a	n/a	n/a	n/a	n/a	n/a	n/a	n/a
"TRUE"	"preload"	"3"	"5255"	"0.0-3.0"	"h67egb"	"600"	"1366"	"chrome"	"108.0.0"	"FALSE"	"Windows 10"	"60.85"	"150"	n/a	n/a	n/a	n/a	n/a	n/a	n/a	n/a	n/a	n/a	n/a	"NULL"	"FALSE"	"list()"	"list()"	"list()"	n/a	n/a	n/a	n/a	n/a	n/a	n/a	n/a	n/a	n/a	n/a
n/a	"html-button-response"	"4"	"27409"	"0.0-4.0-0.0"	"h67egb"	"600"	"1366"	"chrome"	"108.0.0"	"FALSE"	"Windows 10"	"60.85"	"150"	n/a	n/a	n/a	n/a	n/a	n/a	"illusion_instructions"	n/a	n/a	n/a	"22152"	"0"	n/a	"NULL"	"NULL"	"NULL"	"<p><b>Illusion Game</b></p><p>In this game of speed and reflex, you will need to make <b>visual judgments</b> (for instance, which circle is the biggest, or which line is the longest), as fast and as correctly as possible, while <b>resisting different visual illusions</b>.</p><p>We are going to start with some examples of all the illusions you will encounter in the game.</p>"	n/a	n/a	n/a	n/a	n/a	n/a	n/a	n/a	n/a	n/a
"TRUE"	"preload"	"5"	"27436"	"0.0-4.0-1.0-0.0"	"h67egb"	"600"	"1366"	"chrome"	"108.0.0"	"FALSE"	"Windows 10"	"60.85"	"150"	n/a	n/a	n/a	n/a	n/a	n/a	n/a	n/a	n/a	n/a	n/a	"NULL"	"FALSE"	"list()"	"list()"	"list()"	n/a	n/a	n/a	n/a	n/a	n/a	n/a	n/a	n/a	n/a	n/a
n/a	"html-keyboard-response"	"6"	"52864"	"0.0-4.0-1.0-1.0"	"h67egb"	"600"	"1366"	"chrome"	"108.0.0"	"FALSE"	"Windows 10"	"60.85"	"150"	n/a	n/a	n/a	n/a	n/a	n/a	n/a	n/a	n/a	n/a	"25427"	"enter"	n/a	"NULL"	"NULL"	"NULL"	"<p><b>Practice</b></p><p>In this part, two red circles will appear side by side on the screen.</p><p>Your task is to select which <b>red circle is bigger</b> in size as fast as you can, without making errors.</p><p>Don't get distracted by the surrounding black circles around the red circles!</p><p>Press <b>the LEFT or the RIGHT arrow</b> to indicate which is the bigger <b>red circle.</b></p><div style='float: center'><img src='materials/instructions/Ebbinghaus_Demo.png' height='300'></img><p><img src='utils/answer/answer_leftright_keyboard.PNG' height='150'></img></p><p class='small'>In this example, the correct answer is the <b>LEFT arrow</b>.</p></div><p>Are you ready? <b>Press ENTER to start</b></p>"	n/a	n/a	n/a	n/a	n/a	n/a	n/a	n/a	n/a	n/a
n/a	"html-keyboard-response"	"7"	"54590"	"0.0-4.0-1.0-2.0-0.0"	"h67egb"	"600"	"1366"	"chrome"	"108.0.0"	"FALSE"	"Windows 10"	"60.85"	"150"	n/a	n/a	n/a	n/a	n/a	n/a	"fixation"	n/a	n/a	n/a	n/a	"NULL"	n/a	"NULL"	"NULL"	"NULL"	"<p style=\"color: black; font-size: 80px; padding-left: 3%; padding-right: 22%; padding-top: 27%; padding-bottom: 35%\">+</p>"	"1197"	n/a	n/a	n/a	n/a	n/a	n/a	n/a	n/a	n/a
n/a	"image-keyboard-response"	"8"	"56213"	"0.0-4.0-1.0-2.0-1.0"	"h67egb"	"600"	"1366"	"chrome"	"108.0.0"	"FALSE"	"Windows 10"	"60.85"	"150"	n/a	n/a	n/a	n/a	n/a	n/a	"Trial"	n/a	n/a	n/a	"1607"	"arrowleft"	n/a	"NULL"	"NULL"	"NULL"	"stimuli/Ebbinghaus_-100000_1.40000.png"	n/a	"Ebbinghaus"	"arrowleft"	"1726"	"TRUE"	"Ebbinghaus"	"-10000000000"	"1.4000000000"	"1"	"1"
n/a	"html-keyboard-response"	"9"	"57577"	"0.0-4.0-1.0-2.0-0.1"	"h67egb"	"600"	"1366"	"chrome"	"108.0.0"	"FALSE"	"Windows 10"	"60.85"	"150"	n/a	n/a	n/a	n/a	n/a	n/a	"fixation"	n/a	n/a	n/a	n/a	"NULL"	n/a	"NULL"	"NULL"	"NULL"	"<p style=\"color: black; font-size: 80px; padding-left: 4%; padding-right: 7%; padding-top: 27%; padding-bottom: 11%\">+</p>"	"1344"	n/a	n/a	n/a	n/a	n/a	n/a	n/a	n/a	n/a
n/a	"image-keyboard-response"	"10"	"58136"	"0.0-4.0-1.0-2.0-1.1"	"h67egb"	"600"	"1366"	"chrome"	"108.0.0"	"FALSE"	"Windows 10"	"60.85"	"150"	n/a	n/a	n/a	n/a	n/a	n/a	"Trial"	n/a	n/a	n/a	"557"	"arrowleft"	n/a	"NULL"	"NULL"	"NULL"	"stimuli/Ebbinghaus_0000000_1.40000.png"	n/a	"Ebbinghaus"	"arrowleft"	"1364"	"TRUE"	"Ebbinghaus"	"000000000000"	"1.4000000000"	"1"	"2"
n/a	"html-keyboard-response"	"11"	"59539"	"0.0-4.0-1.0-2.0-0.2"	"h67egb"	"600"	"1366"	"chrome"	"108.0.0"	"FALSE"	"Windows 10"	"60.85"	"150"	n/a	n/a	n/a	n/a	n/a	n/a	"fixation"	n/a	n/a	n/a	n/a	"NULL"	n/a	"NULL"	"NULL"	"NULL"	"<p style=\"color: black; font-size: 80px; padding-left: 36%; padding-right: 18%; padding-top: 31%; padding-bottom: 37%\">+</p>"	"1384"	n/a	n/a	n/a	n/a	n/a	n/a	n/a	n/a	n/a
n/a	"image-keyboard-response"	"12"	"60019"	"0.0-4.0-1.0-2.0-1.2"	"h67egb"	"600"	"1366"	"chrome"	"108.0.0"	"FALSE"	"Windows 10"	"60.85"	"150"	n/a	n/a	n/a	n/a	n/a	n/a	"Trial"	n/a	n/a	n/a	"477"	"arrowright"	n/a	"NULL"	"NULL"	"NULL"	"stimuli/Ebbinghaus_1000000_-1.4000.png"	n/a	"Ebbinghaus"	"arrowright"	"1403"	"TRUE"	"Ebbinghaus"	"100000000000"	"-1.400000000"	"1"	"3"
n/a	"html-keyboard-response"	"13"	"61186"	"0.0-4.0-1.0-2.0-0.3"	"h67egb"	"600"	"1366"	"chrome"	"108.0.0"	"FALSE"	"Windows 10"	"60.85"	"150"	n/a	n/a	n/a	n/a	n/a	n/a	"fixation"	n/a	n/a	n/a	n/a	"NULL"	n/a	"NULL"	"NULL"	"NULL"	"<p style=\"color: black; font-size: 80px; padding-left: 6%; padding-right: 12%; padding-top: 43%; padding-bottom: 22%\">+</p>"	"1146"	n/a	n/a	n/a	n/a	n/a	n/a	n/a	n/a	n/a
n/a	"image-keyboard-response"	"14"	"61674"	"0.0-4.0-1.0-2.0-1.3"	"h67egb"	"600"	"1366"	"chrome"	"108.0.0"	"FALSE"	"Windows 10"	"60.85"	"150"	n/a	n/a	n/a	n/a	n/a	n/a	"Trial"	n/a	n/a	n/a	"485"	"arrowright"	n/a	"NULL"	"NULL"	"NULL"	"stimuli/Ebbinghaus_-100000_-1.4000.png"	n/a	"Ebbinghaus"	"arrowright"	"1167"	"TRUE"	"Ebbinghaus"	"-10000000000"	"-1.400000000"	"1"	"4"
n/a	"html-keyboard-response"	"15"	"63079"	"0.0-4.0-1.0-2.0-0.4"	"h67egb"	"600"	"1366"	"chrome"	"108.0.0"	"FALSE"	"Windows 10"	"60.85"	"150"	n/a	n/a	n/a	n/a	n/a	n/a	"fixation"	n/a	n/a	n/a	n/a	"NULL"	n/a	"NULL"	"NULL"	"NULL"	"<p style=\"color: black; font-size: 80px; padding-left: 49%; padding-right: 28%; padding-top: 15%; padding-bottom: 31%\">+</p>"	"1392"	n/a	n/a	n/a	n/a	n/a	n/a	n/a	n/a	n/a
n/a	"image-keyboard-response"	"16"	"63595"	"0.0-4.0-1.0-2.0-1.4"	"h67egb"	"600"	"1366"	"chrome"	"108.0.0"	"FALSE"	"Windows 10"	"60.85"	"150"	n/a	n/a	n/a	n/a	n/a	n/a	"Trial"	n/a	n/a	n/a	"514"	"arrowleft"	n/a	"NULL"	"NULL"	"NULL"	"stimuli/Ebbinghaus_1000000_1.40000.png"	n/a	"Ebbinghaus"	"arrowleft"	"1405"	"TRUE"	"Ebbinghaus"	"100000000000"	"1.4000000000"	"1"	"5"
n/a	"html-keyboard-response"	"17"	"64889"	"0.0-4.0-1.0-2.0-0.5"	"h67egb"	"600"	"1366"	"chrome"	"108.0.0"	"FALSE"	"Windows 10"	"60.85"	"150"	n/a	n/a	n/a	n/a	n/a	n/a	"fixation"	n/a	n/a	n/a	n/a	"NULL"	n/a	"NULL"	"NULL"	"NULL"	"<p style=\"color: black; font-size: 80px; padding-left: 33%; padding-right: 20%; padding-top: 11%; padding-bottom: 11%\">+</p>"	"1287"	n/a	n/a	n/a	n/a	n/a	n/a	n/a	n/a	n/a
n/a	"image-keyboard-response"	"18"	"65373"	"0.0-4.0-1.0-2.0-1.5"	"h67egb"	"600"	"1366"	"chrome"	"108.0.0"	"FALSE"	"Windows 10"	"60.85"	"150"	n/a	n/a	n/a	n/a	n/a	n/a	"Trial"	n/a	n/a	n/a	"483"	"arrowright"	n/a	"NULL"	"NULL"	"NULL"	"stimuli/Ebbinghaus_0000000_-1.4000.png"	n/a	"Ebbinghaus"	"arrowright"	"1294"	"TRUE"	"Ebbinghaus"	"000000000000"	"-1.400000000"	"1"	"6"
n/a	"html-button-response"	"19"	"80863"	"0.0-4.0-1.0-3.0"	"h67egb"	"600"	"1366"	"chrome"	"108.0.0"	"FALSE"	"Windows 10"	"60.85"	"150"	n/a	n/a	n/a	n/a	n/a	n/a	"practice_block_results"	n/a	n/a	n/a	"15488"	"0"	n/a	"NULL"	"NULL"	"NULL"	"<p style='color:rgb(76,175,80);'> Correct Responses: <b>100.00%</b></p><hr><p style='color:rgb(233,30,99);'> Average Response Time: <b>687.17</b> ms.</p>"	n/a	n/a	n/a	n/a	n/a	n/a	n/a	n/a	n/a	n/a
"TRUE"	"preload"	"20"	"81420"	"0.0-4.0-2.0-0.0"	"h67egb"	"600"	"1366"	"chrome"	"108.0.0"	"FALSE"	"Windows 10"	"60.85"	"150"	n/a	n/a	n/a	n/a	n/a	n/a	n/a	n/a	n/a	n/a	n/a	"NULL"	"FALSE"	"list()"	"list()"	"list()"	n/a	n/a	n/a	n/a	n/a	n/a	n/a	n/a	n/a	n/a	n/a
n/a	"html-keyboard-response"	"21"	"89667"	"0.0-4.0-2.0-1.0"	"h67egb"	"600"	"1366"	"chrome"	"108.0.0"	"FALSE"	"Windows 10"	"60.85"	"150"	n/a	n/a	n/a	n/a	n/a	n/a	n/a	n/a	n/a	n/a	"8246"	"enter"	n/a	"NULL"	"NULL"	"NULL"	"<p><b>Practice</b></p><p>In this part, two horizontal red lines will appear one above the other.</p><p>Your task is to select which <b>line is longer</b> in length as fast as you can, without making errors.</p><p>Don't get distracted by the surrounding black arrows at the end of the red lines!</p><p>Press <b>the UP or the DOWN arrow</b> to indicate where is the longer <b>red line.</b></p><div style='float: center'><img src='materials/instructions/MullerLyer_Demo.png' height='300'></img><p><img src='utils/answer/answer_updown_keyboard.PNG' height='150'></img></p><p class='small'>In this example, the correct answer is the <b>UP arrow</b>.</p></div><p>Are you ready? <b>Press ENTER to start</b></p>"	n/a	n/a	n/a	n/a	n/a	n/a	n/a	n/a	n/a	n/a
n/a	"html-keyboard-response"	"22"	"91578"	"0.0-4.0-2.0-2.0-0.0"	"h67egb"	"600"	"1366"	"chrome"	"108.0.0"	"FALSE"	"Windows 10"	"60.85"	"150"	n/a	n/a	n/a	n/a	n/a	n/a	"fixation"	n/a	n/a	n/a	n/a	"NULL"	n/a	"NULL"	"NULL"	"NULL"	"<p style=\"color: black; font-size: 80px; padding-left: 2%; padding-right: 32%; padding-top: 42%; padding-bottom: 44%\">+</p>"	"1391"	n/a	n/a	n/a	n/a	n/a	n/a	n/a	n/a	n/a
n/a	"image-keyboard-response"	"23"	"92300"	"0.0-4.0-2.0-2.0-1.0"	"h67egb"	"600"	"1366"	"chrome"	"108.0.0"	"FALSE"	"Windows 10"	"60.85"	"150"	n/a	n/a	n/a	n/a	n/a	n/a	"Trial"	n/a	n/a	n/a	"721"	"arrowdown"	n/a	"NULL"	"NULL"	"NULL"	"stimuli/MullerLyer_2300000_-0.7000.png"	n/a	"MullerLyer"	"arrowdown"	"1911"	"TRUE"	"MullerLyer"	"230000000000"	"-0.700000000"	"1"	"7"
n/a	"html-keyboard-response"	"24"	"93343"	"0.0-4.0-2.0-2.0-0.1"	"h67egb"	"600"	"1366"	"chrome"	"108.0.0"	"FALSE"	"Windows 10"	"60.85"	"150"	n/a	n/a	n/a	n/a	n/a	n/a	"fixation"	n/a	n/a	n/a	n/a	"NULL"	n/a	"NULL"	"NULL"	"NULL"	"<p style=\"color: black; font-size: 80px; padding-left: 32%; padding-right: 41%; padding-top: 36%; padding-bottom: 17%\">+</p>"	"1039"	n/a	n/a	n/a	n/a	n/a	n/a	n/a	n/a	n/a
n/a	"image-keyboard-response"	"25"	"93805"	"0.0-4.0-2.0-2.0-1.1"	"h67egb"	"600"	"1366"	"chrome"	"108.0.0"	"FALSE"	"Windows 10"	"60.85"	"150"	n/a	n/a	n/a	n/a	n/a	n/a	"Trial"	n/a	n/a	n/a	"459"	"arrowup"	n/a	"NULL"	"NULL"	"NULL"	"stimuli/MullerLyer_2300000_0.70000.png"	n/a	"MullerLyer"	"arrowup"	"1043"	"TRUE"	"MullerLyer"	"230000000000"	"0.7000000000"	"1"	"8"
n/a	"html-keyboard-response"	"26"	"94825"	"0.0-4.0-2.0-2.0-0.2"	"h67egb"	"600"	"1366"	"chrome"	"108.0.0"	"FALSE"	"Windows 10"	"60.85"	"150"	n/a	n/a	n/a	n/a	n/a	n/a	"fixation"	n/a	n/a	n/a	n/a	"NULL"	n/a	"NULL"	"NULL"	"NULL"	"<p style=\"color: black; font-size: 80px; padding-left: 48%; padding-right: 27%; padding-top: 3%; padding-bottom: 1%\">+</p>"	"1003"	n/a	n/a	n/a	n/a	n/a	n/a	n/a	n/a	n/a
n/a	"image-keyboard-response"	"27"	"95251"	"0.0-4.0-2.0-2.0-1.2"	"h67egb"	"600"	"1366"	"chrome"	"108.0.0"	"FALSE"	"Windows 10"	"60.85"	"150"	n/a	n/a	n/a	n/a	n/a	n/a	"Trial"	n/a	n/a	n/a	"425"	"arrowup"	n/a	"NULL"	"NULL"	"NULL"	"stimuli/MullerLyer_0000000_0.70000.png"	n/a	"MullerLyer"	"arrowup"	"1020"	"TRUE"	"MullerLyer"	"000000000000"	"0.7000000000"	"1"	"9"
n/a	"html-keyboard-response"	"28"	"96457"	"0.0-4.0-2.0-2.0-0.3"	"h67egb"	"600"	"1366"	"chrome"	"108.0.0"	"FALSE"	"Windows 10"	"60.85"	"150"	n/a	n/a	n/a	n/a	n/a	n/a	"fixation"	n/a	n/a	n/a	n/a	"NULL"	n/a	"NULL"	"NULL"	"NULL"	"<p style=\"color: black; font-size: 80px; padding-left: 3%; padding-right: 16%; padding-top: 12%; padding-bottom: 34%\">+</p>"	"1195"	n/a	n/a	n/a	n/a	n/a	n/a	n/a	n/a	n/a
n/a	"image-keyboard-response"	"29"	"96848"	"0.0-4.0-2.0-2.0-1.3"	"h67egb"	"600"	"1366"	"chrome"	"108.0.0"	"FALSE"	"Windows 10"	"60.85"	"150"	n/a	n/a	n/a	n/a	n/a	n/a	"Trial"	n/a	n/a	n/a	"390"	"arrowdown"	n/a	"NULL"	"NULL"	"NULL"	"stimuli/MullerLyer_0000000_-0.7000.png"	n/a	"MullerLyer"	"arrowdown"	"1206"	"TRUE"	"MullerLyer"	"000000000000"	"-0.700000000"	"1"	"10"
n/a	"html-keyboard-response"	"30"	"98243"	"0.0-4.0-2.0-2.0-0.4"	"h67egb"	"600"	"1366"	"chrome"	"108.0.0"	"FALSE"	"Windows 10"	"60.85"	"150"	n/a	n/a	n/a	n/a	n/a	n/a	"fixation"	n/a	n/a	n/a	n/a	"NULL"	n/a	"NULL"	"NULL"	"NULL"	"<p style=\"color: black; font-size: 80px; padding-left: 4%; padding-right: 19%; padding-top: 45%; padding-bottom: 15%\">+</p>"	"1378"	n/a	n/a	n/a	n/a	n/a	n/a	n/a	n/a	n/a
n/a	"image-keyboard-response"	"31"	"98633"	"0.0-4.0-2.0-2.0-1.4"	"h67egb"	"600"	"1366"	"chrome"	"108.0.0"	"FALSE"	"Windows 10"	"60.85"	"150"	n/a	n/a	n/a	n/a	n/a	n/a	"Trial"	n/a	n/a	n/a	"389"	"arrowup"	n/a	"NULL"	"NULL"	"NULL"	"stimuli/MullerLyer_-230000_0.70000.png"	n/a	"MullerLyer"	"arrowup"	"1395"	"TRUE"	"MullerLyer"	"-23000000000"	"0.7000000000"	"1"	"11"
n/a	"html-keyboard-response"	"32"	"99749"	"0.0-4.0-2.0-2.0-0.5"	"h67egb"	"600"	"1366"	"chrome"	"108.0.0"	"FALSE"	"Windows 10"	"60.85"	"150"	n/a	n/a	n/a	n/a	n/a	n/a	"fixation"	n/a	n/a	n/a	n/a	"NULL"	n/a	"NULL"	"NULL"	"NULL"	"<p style=\"color: black; font-size: 80px; padding-left: 43%; padding-right: 35%; padding-top: 38%; padding-bottom: 43%\">+</p>"	"1104"	n/a	n/a	n/a	n/a	n/a	n/a	n/a	n/a	n/a
n/a	"image-keyboard-response"	"33"	"100140"	"0.0-4.0-2.0-2.0-1.5"	"h67egb"	"600"	"1366"	"chrome"	"108.0.0"	"FALSE"	"Windows 10"	"60.85"	"150"	n/a	n/a	n/a	n/a	n/a	n/a	"Trial"	n/a	n/a	n/a	"389"	"arrowdown"	n/a	"NULL"	"NULL"	"NULL"	"stimuli/MullerLyer_-230000_-0.7000.png"	n/a	"MullerLyer"	"arrowdown"	"1116"	"TRUE"	"MullerLyer"	"-23000000000"	"-0.700000000"	"1"	"12"
n/a	"html-button-response"	"34"	"103552"	"0.0-4.0-2.0-3.0"	"h67egb"	"600"	"1366"	"chrome"	"108.0.0"	"FALSE"	"Windows 10"	"60.85"	"150"	n/a	n/a	n/a	n/a	n/a	n/a	"practice_block_results"	n/a	n/a	n/a	"3408"	"0"	n/a	"NULL"	"NULL"	"NULL"	"<p style='color:rgb(76,175,80);'> Correct Responses: <b>100.00%</b></p><hr><p style='color:rgb(233,30,99);'> Average Response Time: <b>462.17</b> ms.</p>"	n/a	n/a	n/a	n/a	n/a	n/a	n/a	n/a	n/a	n/a
"TRUE"	"preload"	"35"	"104094"	"0.0-4.0-3.0-0.0"	"h67egb"	"600"	"1366"	"chrome"	"108.0.0"	"FALSE"	"Windows 10"	"60.85"	"150"	n/a	n/a	n/a	n/a	n/a	n/a	n/a	n/a	n/a	n/a	n/a	"NULL"	"FALSE"	"list()"	"list()"	"list()"	n/a	n/a	n/a	n/a	n/a	n/a	n/a	n/a	n/a	n/a	n/a
n/a	"html-keyboard-response"	"36"	"111061"	"0.0-4.0-3.0-1.0"	"h67egb"	"600"	"1366"	"chrome"	"108.0.0"	"FALSE"	"Windows 10"	"60.85"	"150"	n/a	n/a	n/a	n/a	n/a	n/a	n/a	n/a	n/a	n/a	"6966"	"enter"	n/a	"NULL"	"NULL"	"NULL"	"<p><b>Practice</b></p><p>In this part, two red lines will appear side by side.</p><p>Your task is to tell <b>which line is longer</b> in length, regardless of their orientation, as fast as you can, and without making errors.</p><p>Don't get distracted by the orientation of the lines!</p><p>Press <b>the LEFT or the RIGHT arrow</b> to indicate which <b>line is the longer one.</b></p><div style='float: center'><img src='materials/instructions/VerticalHorizontal_Demo.png' height='300'></img><p><img src='utils/answer/answer_leftright_keyboard.PNG' height='150'></img></p><p class='small'>In this example, the correct answer is the <b>LEFT arrow</b>.</p></div><p>Are you ready? <b>Press ENTER to start</b></p>"	n/a	n/a	n/a	n/a	n/a	n/a	n/a	n/a	n/a	n/a
n/a	"html-keyboard-response"	"37"	"112999"	"0.0-4.0-3.0-2.0-0.0"	"h67egb"	"600"	"1366"	"chrome"	"108.0.0"	"FALSE"	"Windows 10"	"60.85"	"150"	n/a	n/a	n/a	n/a	n/a	n/a	"fixation"	n/a	n/a	n/a	n/a	"NULL"	n/a	"NULL"	"NULL"	"NULL"	"<p style=\"color: black; font-size: 80px; padding-left: 48%; padding-right: 15%; padding-top: 49%; padding-bottom: 33%\">+</p>"	"1411"	n/a	n/a	n/a	n/a	n/a	n/a	n/a	n/a	n/a
n/a	"image-keyboard-response"	"38"	"113477"	"0.0-4.0-3.0-2.0-1.0"	"h67egb"	"600"	"1366"	"chrome"	"108.0.0"	"FALSE"	"Windows 10"	"60.85"	"150"	n/a	n/a	n/a	n/a	n/a	n/a	"Trial"	n/a	n/a	n/a	"475"	"arrowright"	n/a	"NULL"	"NULL"	"NULL"	"stimuli/VerticalHorizontal_3300000_-0.9000.png"	n/a	"VerticalHorizontal"	"arrowright"	"1938"	"TRUE"	"VerticalHorizontal"	"330000000000"	"-0.900000000"	"1"	"13"
n/a	"html-keyboard-response"	"39"	"114969"	"0.0-4.0-3.0-2.0-0.1"	"h67egb"	"600"	"1366"	"chrome"	"108.0.0"	"FALSE"	"Windows 10"	"60.85"	"150"	n/a	n/a	n/a	n/a	n/a	n/a	"fixation"	n/a	n/a	n/a	n/a	"NULL"	n/a	"NULL"	"NULL"	"NULL"	"<p style=\"color: black; font-size: 80px; padding-left: 18%; padding-right: 19%; padding-top: 10%; padding-bottom: 11%\">+</p>"	"1482"	n/a	n/a	n/a	n/a	n/a	n/a	n/a	n/a	n/a
n/a	"image-keyboard-response"	"40"	"115358"	"0.0-4.0-3.0-2.0-1.1"	"h67egb"	"600"	"1366"	"chrome"	"108.0.0"	"FALSE"	"Windows 10"	"60.85"	"150"	n/a	n/a	n/a	n/a	n/a	n/a	"Trial"	n/a	n/a	n/a	"388"	"arrowright"	n/a	"NULL"	"NULL"	"NULL"	"stimuli/VerticalHorizontal_-330000_-0.9000.png"	n/a	"VerticalHorizontal"	"arrowright"	"1492"	"TRUE"	"VerticalHorizontal"	"-33000000000"	"-0.900000000"	"1"	"14"
n/a	"html-keyboard-response"	"41"	"116530"	"0.0-4.0-3.0-2.0-0.2"	"h67egb"	"600"	"1366"	"chrome"	"108.0.0"	"FALSE"	"Windows 10"	"60.85"	"150"	n/a	n/a	n/a	n/a	n/a	n/a	"fixation"	n/a	n/a	n/a	n/a	"NULL"	n/a	"NULL"	"NULL"	"NULL"	"<p style=\"color: black; font-size: 80px; padding-left: 48%; padding-right: 34%; padding-top: 37%; padding-bottom: 45%\">+</p>"	"1161"	n/a	n/a	n/a	n/a	n/a	n/a	n/a	n/a	n/a
n/a	"image-keyboard-response"	"42"	"116888"	"0.0-4.0-3.0-2.0-1.2"	"h67egb"	"600"	"1366"	"chrome"	"108.0.0"	"FALSE"	"Windows 10"	"60.85"	"150"	n/a	n/a	n/a	n/a	n/a	n/a	"Trial"	n/a	n/a	n/a	"357"	"arrowleft"	n/a	"NULL"	"NULL"	"NULL"	"stimuli/VerticalHorizontal_3300000_0.90000.png"	n/a	"VerticalHorizontal"	"arrowleft"	"1172"	"TRUE"	"VerticalHorizontal"	"330000000000"	"0.9000000000"	"1"	"15"
n/a	"html-keyboard-response"	"43"	"118089"	"0.0-4.0-3.0-2.0-0.3"	"h67egb"	"600"	"1366"	"chrome"	"108.0.0"	"FALSE"	"Windows 10"	"60.85"	"150"	n/a	n/a	n/a	n/a	n/a	n/a	"fixation"	n/a	n/a	n/a	n/a	"NULL"	n/a	"NULL"	"NULL"	"NULL"	"<p style=\"color: black; font-size: 80px; padding-left: 28%; padding-right: 28%; padding-top: 7%; padding-bottom: 43%\">+</p>"	"1194"	n/a	n/a	n/a	n/a	n/a	n/a	n/a	n/a	n/a
n/a	"image-keyboard-response"	"44"	"118484"	"0.0-4.0-3.0-2.0-1.3"	"h67egb"	"600"	"1366"	"chrome"	"108.0.0"	"FALSE"	"Windows 10"	"60.85"	"150"	n/a	n/a	n/a	n/a	n/a	n/a	"Trial"	n/a	n/a	n/a	"391"	"arrowleft"	n/a	"NULL"	"NULL"	"NULL"	"stimuli/VerticalHorizontal_0000000_0.90000.png"	n/a	"VerticalHorizontal"	"arrowleft"	"1201"	"TRUE"	"VerticalHorizontal"	"000000000000"	"0.9000000000"	"1"	"16"
n/a	"html-keyboard-response"	"45"	"119812"	"0.0-4.0-3.0-2.0-0.4"	"h67egb"	"600"	"1366"	"chrome"	"108.0.0"	"FALSE"	"Windows 10"	"60.85"	"150"	n/a	n/a	n/a	n/a	n/a	n/a	"fixation"	n/a	n/a	n/a	n/a	"NULL"	n/a	"NULL"	"NULL"	"NULL"	"<p style=\"color: black; font-size: 80px; padding-left: 19%; padding-right: 15%; padding-top: 13%; padding-bottom: 22%\">+</p>"	"1308"	n/a	n/a	n/a	n/a	n/a	n/a	n/a	n/a	n/a
n/a	"image-keyboard-response"	"46"	"120172"	"0.0-4.0-3.0-2.0-1.4"	"h67egb"	"600"	"1366"	"chrome"	"108.0.0"	"FALSE"	"Windows 10"	"60.85"	"150"	n/a	n/a	n/a	n/a	n/a	n/a	"Trial"	n/a	n/a	n/a	"359"	"arrowright"	n/a	"NULL"	"NULL"	"NULL"	"stimuli/VerticalHorizontal_0000000_-0.9000.png"	n/a	"VerticalHorizontal"	"arrowright"	"1328"	"TRUE"	"VerticalHorizontal"	"000000000000"	"-0.900000000"	"1"	"17"
n/a	"html-keyboard-response"	"47"	"121513"	"0.0-4.0-3.0-2.0-0.5"	"h67egb"	"600"	"1366"	"chrome"	"108.0.0"	"FALSE"	"Windows 10"	"60.85"	"150"	n/a	n/a	n/a	n/a	n/a	n/a	"fixation"	n/a	n/a	n/a	n/a	"NULL"	n/a	"NULL"	"NULL"	"NULL"	"<p style=\"color: black; font-size: 80px; padding-left: 14%; padding-right: 3%; padding-top: 2%; padding-bottom: 18%\">+</p>"	"1335"	n/a	n/a	n/a	n/a	n/a	n/a	n/a	n/a	n/a
n/a	"image-keyboard-response"	"48"	"121885"	"0.0-4.0-3.0-2.0-1.5"	"h67egb"	"600"	"1366"	"chrome"	"108.0.0"	"FALSE"	"Windows 10"	"60.85"	"150"	n/a	n/a	n/a	n/a	n/a	n/a	"Trial"	n/a	n/a	n/a	"370"	"arrowleft"	n/a	"NULL"	"NULL"	"NULL"	"stimuli/VerticalHorizontal_-330000_0.90000.png"	n/a	"VerticalHorizontal"	"arrowleft"	"1341"	"TRUE"	"VerticalHorizontal"	"-33000000000"	"0.9000000000"	"1"	"18"
n/a	"html-button-response"	"49"	"125231"	"0.0-4.0-3.0-3.0"	"h67egb"	"600"	"1366"	"chrome"	"108.0.0"	"FALSE"	"Windows 10"	"60.85"	"150"	n/a	n/a	n/a	n/a	n/a	n/a	"practice_block_results"	n/a	n/a	n/a	"3343"	"0"	n/a	"NULL"	"NULL"	"NULL"	"<p style='color:rgb(76,175,80);'> Correct Responses: <b>100.00%</b></p><hr><p style='color:rgb(233,30,99);'> Average Response Time: <b>390.00</b> ms.</p>"	n/a	n/a	n/a	n/a	n/a	n/a	n/a	n/a	n/a	n/a
n/a	"html-button-response"	"50"	"180520"	"0.0-4.0-4.0"	"h67egb"	"600"	"1366"	"chrome"	"108.0.0"	"FALSE"	"Windows 10"	"60.85"	"150"	n/a	n/a	n/a	n/a	n/a	n/a	"practice_debrief"	n/a	n/a	n/a	"54779"	"0"	n/a	"NULL"	"NULL"	"NULL"	"<p><b>TRAINING COMPLETED</b></p><p>In the next phase, there will be more trials, and some might be harder too.<br> Moreover, after each illusion block, a <b>score</b> will be calculated based on speed (time you took to answer) and accuracy (number of errors).</p><p>Try to keep up a high score!</p><br><p>Note that it can be <i>really</i> challenging at times, so you will need to rely on your <b>intuition</b> and gut feeling to answer as fast as you can without making errors.</p><p>Each illusion block will be repeated two times (so that you have the opportunity to improve your score), but the order of the blocks is random.</p><p>Remember, your goal is to be as <b>fast</b> and <b>accurate</b> as possible. Good luck!</p><br>"	n/a	n/a	n/a	n/a	n/a	n/a	n/a	n/a	n/a	n/a
"TRUE"	"preload"	"51"	"180737"	"0.0-5.0-0.0"	"h67egb"	"600"	"1366"	"chrome"	"108.0.0"	"FALSE"	"Windows 10"	"60.85"	"150"	n/a	n/a	n/a	n/a	n/a	n/a	n/a	n/a	n/a	n/a	n/a	"NULL"	"FALSE"	"list()"	"list()"	"list()"	n/a	n/a	n/a	n/a	n/a	n/a	n/a	n/a	n/a	n/a	n/a
n/a	"html-keyboard-response"	"52"	"185547"	"0.0-5.0-1.0"	"h67egb"	"600"	"1366"	"chrome"	"108.0.0"	"FALSE"	"Windows 10"	"60.85"	"150"	n/a	n/a	n/a	n/a	n/a	n/a	n/a	n/a	n/a	n/a	"4809"	"enter"	n/a	"NULL"	"NULL"	"NULL"	"<p><b>Part 1/6</b></p><p>In this part, two red circles will appear side by side on the screen.</p><p>Your task is to select which <b>red circle is bigger</b> in size as fast as you can, without making errors.</p><p>Don't get distracted by the surrounding black circles around the red circles!</p><p>Press <b>the LEFT or the RIGHT arrow</b> to indicate which is the bigger <b>red circle.</b></p><div style='float: center'><img src='materials/instructions/Ebbinghaus_Demo.png' height='300'></img><p><img src='utils/answer/answer_leftright_keyboard.PNG' height='150'></img></p><p class='small'>In this example, the correct answer is the <b>LEFT arrow</b>.</p></div><p>Are you ready? <b>Press ENTER to start</b></p>"	n/a	n/a	n/a	n/a	n/a	n/a	n/a	n/a	n/a	n/a
n/a	"html-keyboard-response"	"53"	"187279"	"0.0-5.0-2.0-0.0"	"h67egb"	"600"	"1366"	"chrome"	"108.0.0"	"FALSE"	"Windows 10"	"60.85"	"150"	n/a	n/a	n/a	n/a	n/a	n/a	"fixation"	n/a	n/a	n/a	n/a	"NULL"	n/a	"NULL"	"NULL"	"NULL"	"<p style=\"color: black; font-size: 80px; padding-left: 4%; padding-right: 12%; padding-top: 1%; padding-bottom: 32%\">+</p>"	"1202"	n/a	n/a	n/a	n/a	n/a	n/a	n/a	n/a	n/a
n/a	"image-keyboard-response"	"54"	"188155"	"0.0-5.0-2.0-1.0"	"h67egb"	"600"	"1366"	"chrome"	"108.0.0"	"FALSE"	"Windows 10"	"60.85"	"150"	n/a	n/a	n/a	n/a	n/a	n/a	"Trial"	n/a	n/a	n/a	"875"	"arrowleft"	n/a	"NULL"	"NULL"	"NULL"	"stimuli/Ebbinghaus_0.35714_0.28000.png"	n/a	"Ebbinghaus"	"arrowleft"	"1732"	"TRUE"	"Ebbinghaus"	"0.3571400000"	"0.2800000000"	"1"	"19"
n/a	"html-keyboard-response"	"55"	"189345"	"0.0-5.0-2.0-0.1"	"h67egb"	"600"	"1366"	"chrome"	"108.0.0"	"FALSE"	"Windows 10"	"60.85"	"150"	n/a	n/a	n/a	n/a	n/a	n/a	"fixation"	n/a	n/a	n/a	n/a	"NULL"	n/a	"NULL"	"NULL"	"NULL"	"<p style=\"color: black; font-size: 80px; padding-left: 41%; padding-right: 30%; padding-top: 15%; padding-bottom: 14%\">+</p>"	"1179"	n/a	n/a	n/a	n/a	n/a	n/a	n/a	n/a	n/a
n/a	"image-keyboard-response"	"56"	"189970"	"0.0-5.0-2.0-1.1"	"h67egb"	"600"	"1366"	"chrome"	"108.0.0"	"FALSE"	"Windows 10"	"60.85"	"150"	n/a	n/a	n/a	n/a	n/a	n/a	"Trial"	n/a	n/a	n/a	"623"	"arrowleft"	n/a	"NULL"	"NULL"	"NULL"	"stimuli/Ebbinghaus_-0.61429_0.28000.png"	n/a	"Ebbinghaus"	"arrowleft"	"1190"	"TRUE"	"Ebbinghaus"	"-0.614290000"	"0.2800000000"	"1"	"20"
n/a	"html-keyboard-response"	"57"	"191126"	"0.0-5.0-2.0-0.2"	"h67egb"	"600"	"1366"	"chrome"	"108.0.0"	"FALSE"	"Windows 10"	"60.85"	"150"	n/a	n/a	n/a	n/a	n/a	n/a	"fixation"	n/a	n/a	n/a	n/a	"NULL"	n/a	"NULL"	"NULL"	"NULL"	"<p style=\"color: black; font-size: 80px; padding-left: 27%; padding-right: 14%; padding-top: 40%; padding-bottom: 49%\">+</p>"	"1140"	n/a	n/a	n/a	n/a	n/a	n/a	n/a	n/a	n/a
n/a	"image-keyboard-response"	"58"	"191569"	"0.0-5.0-2.0-1.2"	"h67egb"	"600"	"1366"	"chrome"	"108.0.0"	"FALSE"	"Windows 10"	"60.85"	"150"	n/a	n/a	n/a	n/a	n/a	n/a	"Trial"	n/a	n/a	n/a	"441"	"arrowright"	n/a	"NULL"	"NULL"	"NULL"	"stimuli/Ebbinghaus_0.87143_-0.2150.png"	n/a	"Ebbinghaus"	"arrowright"	"1156"	"TRUE"	"Ebbinghaus"	"0.8714300000"	"-0.215000000"	"1"	"21"
n/a	"html-keyboard-response"	"59"	"192637"	"0.0-5.0-2.0-0.3"	"h67egb"	"600"	"1366"	"chrome"	"108.0.0"	"FALSE"	"Windows 10"	"60.85"	"150"	n/a	n/a	n/a	n/a	n/a	n/a	"fixation"	n/a	n/a	n/a	n/a	"NULL"	n/a	"NULL"	"NULL"	"NULL"	"<p style=\"color: black; font-size: 80px; padding-left: 42%; padding-right: 26%; padding-top: 44%; padding-bottom: 17%\">+</p>"	"1050"	n/a	n/a	n/a	n/a	n/a	n/a	n/a	n/a	n/a
n/a	"image-keyboard-response"	"60"	"193169"	"0.0-5.0-2.0-1.3"	"h67egb"	"600"	"1366"	"chrome"	"108.0.0"	"FALSE"	"Windows 10"	"60.85"	"150"	n/a	n/a	n/a	n/a	n/a	n/a	"Trial"	n/a	n/a	n/a	"532"	"arrowleft"	n/a	"NULL"	"NULL"	"NULL"	"stimuli/Ebbinghaus_-0.1000_0.21500.png"	n/a	"Ebbinghaus"	"arrowleft"	"1068"	"TRUE"	"Ebbinghaus"	"-0.100000000"	"0.2150000000"	"1"	"22"
n/a	"html-keyboard-response"	"61"	"194592"	"0.0-5.0-2.0-0.4"	"h67egb"	"600"	"1366"	"chrome"	"108.0.0"	"FALSE"	"Windows 10"	"60.85"	"150"	n/a	n/a	n/a	n/a	n/a	n/a	"fixation"	n/a	n/a	n/a	n/a	"NULL"	n/a	"NULL"	"NULL"	"NULL"	"<p style=\"color: black; font-size: 80px; padding-left: 25%; padding-right: 47%; padding-top: 11%; padding-bottom: 45%\">+</p>"	"1419"	n/a	n/a	n/a	n/a	n/a	n/a	n/a	n/a	n/a
n/a	"image-keyboard-response"	"62"	"195249"	"0.0-5.0-2.0-1.4"	"h67egb"	"600"	"1366"	"chrome"	"108.0.0"	"FALSE"	"Windows 10"	"60.85"	"150"	n/a	n/a	n/a	n/a	n/a	n/a	"Trial"	n/a	n/a	n/a	"656"	"arrowright"	n/a	"NULL"	"NULL"	"NULL"	"stimuli/Ebbinghaus_0.35714_-0.2800.png"	n/a	"Ebbinghaus"	"arrowright"	"1423"	"TRUE"	"Ebbinghaus"	"0.3571400000"	"-0.280000000"	"1"	"23"
n/a	"html-keyboard-response"	"63"	"196329"	"0.0-5.0-2.0-0.5"	"h67egb"	"600"	"1366"	"chrome"	"108.0.0"	"FALSE"	"Windows 10"	"60.85"	"150"	n/a	n/a	n/a	n/a	n/a	n/a	"fixation"	n/a	n/a	n/a	n/a	"NULL"	n/a	"NULL"	"NULL"	"NULL"	"<p style=\"color: black; font-size: 80px; padding-left: 44%; padding-right: 33%; padding-top: 18%; padding-bottom: 32%\">+</p>"	"1064"	n/a	n/a	n/a	n/a	n/a	n/a	n/a	n/a	n/a
n/a	"image-keyboard-response"	"64"	"197243"	"0.0-5.0-2.0-1.5"	"h67egb"	"600"	"1366"	"chrome"	"108.0.0"	"FALSE"	"Windows 10"	"60.85"	"150"	n/a	n/a	n/a	n/a	n/a	n/a	"Trial"	n/a	n/a	n/a	"911"	"arrowright"	n/a	"NULL"	"NULL"	"NULL"	"stimuli/Ebbinghaus_-0.61429_-0.2800.png"	n/a	"Ebbinghaus"	"arrowright"	"1080"	"TRUE"	"Ebbinghaus"	"-0.614290000"	"-0.280000000"	"1"	"24"
n/a	"html-keyboard-response"	"65"	"198732"	"0.0-5.0-2.0-0.6"	"h67egb"	"600"	"1366"	"chrome"	"108.0.0"	"FALSE"	"Windows 10"	"60.85"	"150"	n/a	n/a	n/a	n/a	n/a	n/a	"fixation"	n/a	n/a	n/a	n/a	"NULL"	n/a	"NULL"	"NULL"	"NULL"	"<p style=\"color: black; font-size: 80px; padding-left: 50%; padding-right: 42%; padding-top: 35%; padding-bottom: 19%\">+</p>"	"1481"	n/a	n/a	n/a	n/a	n/a	n/a	n/a	n/a	n/a
n/a	"image-keyboard-response"	"66"	"199371"	"0.0-5.0-2.0-1.6"	"h67egb"	"600"	"1366"	"chrome"	"108.0.0"	"FALSE"	"Windows 10"	"60.85"	"150"	n/a	n/a	n/a	n/a	n/a	n/a	"Trial"	n/a	n/a	n/a	"639"	"arrowleft"	n/a	"NULL"	"NULL"	"NULL"	"stimuli/Ebbinghaus_-0.61429_0.11071.png"	n/a	"Ebbinghaus"	"arrowleft"	"1489"	"TRUE"	"Ebbinghaus"	"-0.614290000"	"0.1107100000"	"1"	"25"
n/a	"html-keyboard-response"	"67"	"200687"	"0.0-5.0-2.0-0.7"	"h67egb"	"600"	"1366"	"chrome"	"108.0.0"	"FALSE"	"Windows 10"	"60.85"	"150"	n/a	n/a	n/a	n/a	n/a	n/a	"fixation"	n/a	n/a	n/a	n/a	"NULL"	n/a	"NULL"	"NULL"	"NULL"	"<p style=\"color: black; font-size: 80px; padding-left: 29%; padding-right: 4%; padding-top: 33%; padding-bottom: 6%\">+</p>"	"1299"	n/a	n/a	n/a	n/a	n/a	n/a	n/a	n/a	n/a
n/a	"image-keyboard-response"	"68"	"201302"	"0.0-5.0-2.0-1.7"	"h67egb"	"600"	"1366"	"chrome"	"108.0.0"	"FALSE"	"Windows 10"	"60.85"	"150"	n/a	n/a	n/a	n/a	n/a	n/a	"Trial"	n/a	n/a	n/a	"613"	"arrowright"	n/a	"NULL"	"NULL"	"NULL"	"stimuli/Ebbinghaus_-0.35714_-0.11071.png"	n/a	"Ebbinghaus"	"arrowright"	"1316"	"TRUE"	"Ebbinghaus"	"-0.357140000"	"-0.110710000"	"1"	"26"
n/a	"html-keyboard-response"	"69"	"202510"	"0.0-5.0-2.0-0.8"	"h67egb"	"600"	"1366"	"chrome"	"108.0.0"	"FALSE"	"Windows 10"	"60.85"	"150"	n/a	n/a	n/a	n/a	n/a	n/a	"fixation"	n/a	n/a	n/a	n/a	"NULL"	n/a	"NULL"	"NULL"	"NULL"	"<p style=\"color: black; font-size: 80px; padding-left: 37%; padding-right: 4%; padding-top: 7%; padding-bottom: 11%\">+</p>"	"1207"	n/a	n/a	n/a	n/a	n/a	n/a	n/a	n/a	n/a
n/a	"image-keyboard-response"	"70"	"203169"	"0.0-5.0-2.0-1.8"	"h67egb"	"600"	"1366"	"chrome"	"108.0.0"	"FALSE"	"Windows 10"	"60.85"	"150"	n/a	n/a	n/a	n/a	n/a	n/a	"Trial"	n/a	n/a	n/a	"657"	"arrowright"	n/a	"NULL"	"NULL"	"NULL"	"stimuli/Ebbinghaus_0.61429_-0.2800.png"	n/a	"Ebbinghaus"	"arrowright"	"1208"	"TRUE"	"Ebbinghaus"	"0.6142900000"	"-0.280000000"	"1"	"27"
n/a	"html-keyboard-response"	"71"	"204390"	"0.0-5.0-2.0-0.9"	"h67egb"	"600"	"1366"	"chrome"	"108.0.0"	"FALSE"	"Windows 10"	"60.85"	"150"	n/a	n/a	n/a	n/a	n/a	n/a	"fixation"	n/a	n/a	n/a	n/a	"NULL"	n/a	"NULL"	"NULL"	"NULL"	"<p style=\"color: black; font-size: 80px; padding-left: 11%; padding-right: 21%; padding-top: 45%; padding-bottom: 21%\">+</p>"	"1208"	n/a	n/a	n/a	n/a	n/a	n/a	n/a	n/a	n/a
n/a	"image-keyboard-response"	"72"	"204954"	"0.0-5.0-2.0-1.9"	"h67egb"	"600"	"1366"	"chrome"	"108.0.0"	"FALSE"	"Windows 10"	"60.85"	"150"	n/a	n/a	n/a	n/a	n/a	n/a	"Trial"	n/a	n/a	n/a	"564"	"arrowright"	n/a	"NULL"	"NULL"	"NULL"	"stimuli/Ebbinghaus_0.87143_-0.2800.png"	n/a	"Ebbinghaus"	"arrowright"	"1221"	"TRUE"	"Ebbinghaus"	"0.8714300000"	"-0.280000000"	"1"	"28"
n/a	"html-keyboard-response"	"73"	"206029"	"0.0-5.0-2.0-0.10"	"h67egb"	"600"	"1366"	"chrome"	"108.0.0"	"FALSE"	"Windows 10"	"60.85"	"150"	n/a	n/a	n/a	n/a	n/a	n/a	"fixation"	n/a	n/a	n/a	n/a	"NULL"	n/a	"NULL"	"NULL"	"NULL"	"<p style=\"color: black; font-size: 80px; padding-left: 43%; padding-right: 1%; padding-top: 16%; padding-bottom: 11%\">+</p>"	"1056"	n/a	n/a	n/a	n/a	n/a	n/a	n/a	n/a	n/a
n/a	"image-keyboard-response"	"74"	"206511"	"0.0-5.0-2.0-1.10"	"h67egb"	"600"	"1366"	"chrome"	"108.0.0"	"FALSE"	"Windows 10"	"60.85"	"150"	n/a	n/a	n/a	n/a	n/a	n/a	"Trial"	n/a	n/a	n/a	"481"	"arrowleft"	n/a	"NULL"	"NULL"	"NULL"	"stimuli/Ebbinghaus_0.35714_0.21500.png"	n/a	"Ebbinghaus"	"arrowleft"	"1075"	"TRUE"	"Ebbinghaus"	"0.3571400000"	"0.2150000000"	"1"	"29"
n/a	"html-keyboard-response"	"75"	"207824"	"0.0-5.0-2.0-0.11"	"h67egb"	"600"	"1366"	"chrome"	"108.0.0"	"FALSE"	"Windows 10"	"60.85"	"150"	n/a	n/a	n/a	n/a	n/a	n/a	"fixation"	n/a	n/a	n/a	n/a	"NULL"	n/a	"NULL"	"NULL"	"NULL"	"<p style=\"color: black; font-size: 80px; padding-left: 40%; padding-right: 35%; padding-top: 44%; padding-bottom: 28%\">+</p>"	"1301"	n/a	n/a	n/a	n/a	n/a	n/a	n/a	n/a	n/a
n/a	"image-keyboard-response"	"76"	"208397"	"0.0-5.0-2.0-1.11"	"h67egb"	"600"	"1366"	"chrome"	"108.0.0"	"FALSE"	"Windows 10"	"60.85"	"150"	n/a	n/a	n/a	n/a	n/a	n/a	"Trial"	n/a	n/a	n/a	"570"	"arrowleft"	n/a	"NULL"	"NULL"	"NULL"	"stimuli/Ebbinghaus_0.61429_-0.11071.png"	n/a	"Ebbinghaus"	"arrowright"	"1313"	"FALSE"	"Ebbinghaus"	"0.6142900000"	"-0.110710000"	"1"	"30"
n/a	"html-keyboard-response"	"77"	"209700"	"0.0-5.0-2.0-0.12"	"h67egb"	"600"	"1366"	"chrome"	"108.0.0"	"FALSE"	"Windows 10"	"60.85"	"150"	n/a	n/a	n/a	n/a	n/a	n/a	"fixation"	n/a	n/a	n/a	n/a	"NULL"	n/a	"NULL"	"NULL"	"NULL"	"<p style=\"color: black; font-size: 80px; padding-left: 32%; padding-right: 6%; padding-top: 35%; padding-bottom: 9%\">+</p>"	"1283"	n/a	n/a	n/a	n/a	n/a	n/a	n/a	n/a	n/a
n/a	"image-keyboard-response"	"78"	"210204"	"0.0-5.0-2.0-1.12"	"h67egb"	"600"	"1366"	"chrome"	"108.0.0"	"FALSE"	"Windows 10"	"60.85"	"150"	n/a	n/a	n/a	n/a	n/a	n/a	"Trial"	n/a	n/a	n/a	"504"	"arrowleft"	n/a	"NULL"	"NULL"	"NULL"	"stimuli/Ebbinghaus_0.87143_0.15857.png"	n/a	"Ebbinghaus"	"arrowleft"	"1303"	"TRUE"	"Ebbinghaus"	"0.8714300000"	"0.1585700000"	"1"	"31"
n/a	"html-keyboard-response"	"79"	"211308"	"0.0-5.0-2.0-0.13"	"h67egb"	"600"	"1366"	"chrome"	"108.0.0"	"FALSE"	"Windows 10"	"60.85"	"150"	n/a	n/a	n/a	n/a	n/a	n/a	"fixation"	n/a	n/a	n/a	n/a	"NULL"	n/a	"NULL"	"NULL"	"NULL"	"<p style=\"color: black; font-size: 80px; padding-left: 45%; padding-right: 24%; padding-top: 49%; padding-bottom: 12%\">+</p>"	"1085"	n/a	n/a	n/a	n/a	n/a	n/a	n/a	n/a	n/a
n/a	"image-keyboard-response"	"80"	"211869"	"0.0-5.0-2.0-1.13"	"h67egb"	"600"	"1366"	"chrome"	"108.0.0"	"FALSE"	"Windows 10"	"60.85"	"150"	n/a	n/a	n/a	n/a	n/a	n/a	"Trial"	n/a	n/a	n/a	"561"	"arrowleft"	n/a	"NULL"	"NULL"	"NULL"	"stimuli/Ebbinghaus_-0.87143_0.15857.png"	n/a	"Ebbinghaus"	"arrowleft"	"1104"	"TRUE"	"Ebbinghaus"	"-0.871430000"	"0.1585700000"	"1"	"32"
n/a	"html-keyboard-response"	"81"	"213259"	"0.0-5.0-2.0-0.14"	"h67egb"	"600"	"1366"	"chrome"	"108.0.0"	"FALSE"	"Windows 10"	"60.85"	"150"	n/a	n/a	n/a	n/a	n/a	n/a	"fixation"	n/a	n/a	n/a	n/a	"NULL"	n/a	"NULL"	"NULL"	"NULL"	"<p style=\"color: black; font-size: 80px; padding-left: 33%; padding-right: 46%; padding-top: 11%; padding-bottom: 17%\">+</p>"	"1382"	n/a	n/a	n/a	n/a	n/a	n/a	n/a	n/a	n/a
n/a	"image-keyboard-response"	"82"	"213835"	"0.0-5.0-2.0-1.14"	"h67egb"	"600"	"1366"	"chrome"	"108.0.0"	"FALSE"	"Windows 10"	"60.85"	"150"	n/a	n/a	n/a	n/a	n/a	n/a	"Trial"	n/a	n/a	n/a	"575"	"arrowright"	n/a	"NULL"	"NULL"	"NULL"	"stimuli/Ebbinghaus_0.87143_0.21500.png"	n/a	"Ebbinghaus"	"arrowleft"	"1390"	"FALSE"	"Ebbinghaus"	"0.8714300000"	"0.2150000000"	"1"	"33"
n/a	"html-keyboard-response"	"83"	"215185"	"0.0-5.0-2.0-0.15"	"h67egb"	"600"	"1366"	"chrome"	"108.0.0"	"FALSE"	"Windows 10"	"60.85"	"150"	n/a	n/a	n/a	n/a	n/a	n/a	"fixation"	n/a	n/a	n/a	n/a	"NULL"	n/a	"NULL"	"NULL"	"NULL"	"<p style=\"color: black; font-size: 80px; padding-left: 2%; padding-right: 24%; padding-top: 32%; padding-bottom: 6%\">+</p>"	"1339"	n/a	n/a	n/a	n/a	n/a	n/a	n/a	n/a	n/a
n/a	"image-keyboard-response"	"84"	"215863"	"0.0-5.0-2.0-1.15"	"h67egb"	"600"	"1366"	"chrome"	"108.0.0"	"FALSE"	"Windows 10"	"60.85"	"150"	n/a	n/a	n/a	n/a	n/a	n/a	"Trial"	n/a	n/a	n/a	"673"	"arrowright"	n/a	"NULL"	"NULL"	"NULL"	"stimuli/Ebbinghaus_-0.61429_-0.11071.png"	n/a	"Ebbinghaus"	"arrowright"	"1350"	"TRUE"	"Ebbinghaus"	"-0.614290000"	"-0.110710000"	"1"	"34"
n/a	"html-keyboard-response"	"85"	"217359"	"0.0-5.0-2.0-0.16"	"h67egb"	"600"	"1366"	"chrome"	"108.0.0"	"FALSE"	"Windows 10"	"60.85"	"150"	n/a	n/a	n/a	n/a	n/a	n/a	"fixation"	n/a	n/a	n/a	n/a	"NULL"	n/a	"NULL"	"NULL"	"NULL"	"<p style=\"color: black; font-size: 80px; padding-left: 37%; padding-right: 48%; padding-top: 41%; padding-bottom: 1%\">+</p>"	"1481"	n/a	n/a	n/a	n/a	n/a	n/a	n/a	n/a	n/a
n/a	"image-keyboard-response"	"86"	"217946"	"0.0-5.0-2.0-1.16"	"h67egb"	"600"	"1366"	"chrome"	"108.0.0"	"FALSE"	"Windows 10"	"60.85"	"150"	n/a	n/a	n/a	n/a	n/a	n/a	"Trial"	n/a	n/a	n/a	"586"	"arrowright"	n/a	"NULL"	"NULL"	"NULL"	"stimuli/Ebbinghaus_0.61429_0.11071.png"	n/a	"Ebbinghaus"	"arrowleft"	"1496"	"FALSE"	"Ebbinghaus"	"0.6142900000"	"0.1107100000"	"1"	"35"
n/a	"html-keyboard-response"	"87"	"219213"	"0.0-5.0-2.0-0.17"	"h67egb"	"600"	"1366"	"chrome"	"108.0.0"	"FALSE"	"Windows 10"	"60.85"	"150"	n/a	n/a	n/a	n/a	n/a	n/a	"fixation"	n/a	n/a	n/a	n/a	"NULL"	n/a	"NULL"	"NULL"	"NULL"	"<p style=\"color: black; font-size: 80px; padding-left: 48%; padding-right: 3%; padding-top: 18%; padding-bottom: 2%\">+</p>"	"1252"	n/a	n/a	n/a	n/a	n/a	n/a	n/a	n/a	n/a
n/a	"image-keyboard-response"	"88"	"219866"	"0.0-5.0-2.0-1.17"	"h67egb"	"600"	"1366"	"chrome"	"108.0.0"	"FALSE"	"Windows 10"	"60.85"	"150"	n/a	n/a	n/a	n/a	n/a	n/a	"Trial"	n/a	n/a	n/a	"648"	"arrowright"	n/a	"NULL"	"NULL"	"NULL"	"stimuli/Ebbinghaus_0.10000_-0.15857.png"	n/a	"Ebbinghaus"	"arrowright"	"1267"	"TRUE"	"Ebbinghaus"	"0.1000000000"	"-0.158570000"	"1"	"36"
n/a	"html-keyboard-response"	"89"	"220999"	"0.0-5.0-2.0-0.18"	"h67egb"	"600"	"1366"	"chrome"	"108.0.0"	"FALSE"	"Windows 10"	"60.85"	"150"	n/a	n/a	n/a	n/a	n/a	n/a	"fixation"	n/a	n/a	n/a	n/a	"NULL"	n/a	"NULL"	"NULL"	"NULL"	"<p style=\"color: black; font-size: 80px; padding-left: 36%; padding-right: 39%; padding-top: 27%; padding-bottom: 38%\">+</p>"	"1131"	n/a	n/a	n/a	n/a	n/a	n/a	n/a	n/a	n/a
n/a	"image-keyboard-response"	"90"	"221436"	"0.0-5.0-2.0-1.18"	"h67egb"	"600"	"1366"	"chrome"	"108.0.0"	"FALSE"	"Windows 10"	"60.85"	"150"	n/a	n/a	n/a	n/a	n/a	n/a	"Trial"	n/a	n/a	n/a	"435"	"arrowright"	n/a	"NULL"	"NULL"	"NULL"	"stimuli/Ebbinghaus_0.61429_-0.2150.png"	n/a	"Ebbinghaus"	"arrowright"	"1133"	"TRUE"	"Ebbinghaus"	"0.6142900000"	"-0.215000000"	"1"	"37"
n/a	"html-keyboard-response"	"91"	"222544"	"0.0-5.0-2.0-0.19"	"h67egb"	"600"	"1366"	"chrome"	"108.0.0"	"FALSE"	"Windows 10"	"60.85"	"150"	n/a	n/a	n/a	n/a	n/a	n/a	"fixation"	n/a	n/a	n/a	n/a	"NULL"	n/a	"NULL"	"NULL"	"NULL"	"<p style=\"color: black; font-size: 80px; padding-left: 26%; padding-right: 17%; padding-top: 21%; padding-bottom: 45%\">+</p>"	"1104"	n/a	n/a	n/a	n/a	n/a	n/a	n/a	n/a	n/a
n/a	"image-keyboard-response"	"92"	"223001"	"0.0-5.0-2.0-1.19"	"h67egb"	"600"	"1366"	"chrome"	"108.0.0"	"FALSE"	"Windows 10"	"60.85"	"150"	n/a	n/a	n/a	n/a	n/a	n/a	"Trial"	n/a	n/a	n/a	"456"	"arrowleft"	n/a	"NULL"	"NULL"	"NULL"	"stimuli/Ebbinghaus_0.10000_0.15857.png"	n/a	"Ebbinghaus"	"arrowleft"	"1108"	"TRUE"	"Ebbinghaus"	"0.1000000000"	"0.1585700000"	"1"	"38"
n/a	"html-keyboard-response"	"93"	"224167"	"0.0-5.0-2.0-0.20"	"h67egb"	"600"	"1366"	"chrome"	"108.0.0"	"FALSE"	"Windows 10"	"60.85"	"150"	n/a	n/a	n/a	n/a	n/a	n/a	"fixation"	n/a	n/a	n/a	n/a	"NULL"	n/a	"NULL"	"NULL"	"NULL"	"<p style=\"color: black; font-size: 80px; padding-left: 38%; padding-right: 45%; padding-top: 5%; padding-bottom: 43%\">+</p>"	"1144"	n/a	n/a	n/a	n/a	n/a	n/a	n/a	n/a	n/a
n/a	"image-keyboard-response"	"94"	"224529"	"0.0-5.0-2.0-1.20"	"h67egb"	"600"	"1366"	"chrome"	"108.0.0"	"FALSE"	"Windows 10"	"60.85"	"150"	n/a	n/a	n/a	n/a	n/a	n/a	"Trial"	n/a	n/a	n/a	"361"	"arrowleft"	n/a	"NULL"	"NULL"	"NULL"	"stimuli/Ebbinghaus_-0.35714_-0.2150.png"	n/a	"Ebbinghaus"	"arrowright"	"1166"	"FALSE"	"Ebbinghaus"	"-0.357140000"	"-0.215000000"	"1"	"39"
n/a	"html-keyboard-response"	"95"	"225795"	"0.0-5.0-2.0-0.21"	"h67egb"	"600"	"1366"	"chrome"	"108.0.0"	"FALSE"	"Windows 10"	"60.85"	"150"	n/a	n/a	n/a	n/a	n/a	n/a	"fixation"	n/a	n/a	n/a	n/a	"NULL"	n/a	"NULL"	"NULL"	"NULL"	"<p style=\"color: black; font-size: 80px; padding-left: 10%; padding-right: 23%; padding-top: 16%; padding-bottom: 30%\">+</p>"	"1260"	n/a	n/a	n/a	n/a	n/a	n/a	n/a	n/a	n/a
n/a	"image-keyboard-response"	"96"	"226458"	"0.0-5.0-2.0-1.21"	"h67egb"	"600"	"1366"	"chrome"	"108.0.0"	"FALSE"	"Windows 10"	"60.85"	"150"	n/a	n/a	n/a	n/a	n/a	n/a	"Trial"	n/a	n/a	n/a	"661"	"arrowleft"	n/a	"NULL"	"NULL"	"NULL"	"stimuli/Ebbinghaus_-0.87143_0.11071.png"	n/a	"Ebbinghaus"	"arrowleft"	"1266"	"TRUE"	"Ebbinghaus"	"-0.871430000"	"0.1107100000"	"1"	"40"
n/a	"html-keyboard-response"	"97"	"227862"	"0.0-5.0-2.0-0.22"	"h67egb"	"600"	"1366"	"chrome"	"108.0.0"	"FALSE"	"Windows 10"	"60.85"	"150"	n/a	n/a	n/a	n/a	n/a	n/a	"fixation"	n/a	n/a	n/a	n/a	"NULL"	n/a	"NULL"	"NULL"	"NULL"	"<p style=\"color: black; font-size: 80px; padding-left: 46%; padding-right: 50%; padding-top: 31%; padding-bottom: 3%\">+</p>"	"1392"	n/a	n/a	n/a	n/a	n/a	n/a	n/a	n/a	n/a
n/a	"image-keyboard-response"	"98"	"228330"	"0.0-5.0-2.0-1.22"	"h67egb"	"600"	"1366"	"chrome"	"108.0.0"	"FALSE"	"Windows 10"	"60.85"	"150"	n/a	n/a	n/a	n/a	n/a	n/a	"Trial"	n/a	n/a	n/a	"466"	"arrowleft"	n/a	"NULL"	"NULL"	"NULL"	"stimuli/Ebbinghaus_-0.35714_0.28000.png"	n/a	"Ebbinghaus"	"arrowleft"	"1404"	"TRUE"	"Ebbinghaus"	"-0.357140000"	"0.2800000000"	"1"	"41"
n/a	"html-keyboard-response"	"99"	"229547"	"0.0-5.0-2.0-0.23"	"h67egb"	"600"	"1366"	"chrome"	"108.0.0"	"FALSE"	"Windows 10"	"60.85"	"150"	n/a	n/a	n/a	n/a	n/a	n/a	"fixation"	n/a	n/a	n/a	n/a	"NULL"	n/a	"NULL"	"NULL"	"NULL"	"<p style=\"color: black; font-size: 80px; padding-left: 16%; padding-right: 23%; padding-top: 46%; padding-bottom: 39%\">+</p>"	"1205"	n/a	n/a	n/a	n/a	n/a	n/a	n/a	n/a	n/a
n/a	"image-keyboard-response"	"100"	"230132"	"0.0-5.0-2.0-1.23"	"h67egb"	"600"	"1366"	"chrome"	"108.0.0"	"FALSE"	"Windows 10"	"60.85"	"150"	n/a	n/a	n/a	n/a	n/a	n/a	"Trial"	n/a	n/a	n/a	"583"	"arrowright"	n/a	"NULL"	"NULL"	"NULL"	"stimuli/Ebbinghaus_-0.1000_-0.11071.png"	n/a	"Ebbinghaus"	"arrowright"	"1217"	"TRUE"	"Ebbinghaus"	"-0.100000000"	"-0.110710000"	"1"	"42"
n/a	"html-keyboard-response"	"101"	"231457"	"0.0-5.0-2.0-0.24"	"h67egb"	"600"	"1366"	"chrome"	"108.0.0"	"FALSE"	"Windows 10"	"60.85"	"150"	n/a	n/a	n/a	n/a	n/a	n/a	"fixation"	n/a	n/a	n/a	n/a	"NULL"	n/a	"NULL"	"NULL"	"NULL"	"<p style=\"color: black; font-size: 80px; padding-left: 38%; padding-right: 32%; padding-top: 20%; padding-bottom: 1%\">+</p>"	"1319"	n/a	n/a	n/a	n/a	n/a	n/a	n/a	n/a	n/a
n/a	"image-keyboard-response"	"102"	"232084"	"0.0-5.0-2.0-1.24"	"h67egb"	"600"	"1366"	"chrome"	"108.0.0"	"FALSE"	"Windows 10"	"60.85"	"150"	n/a	n/a	n/a	n/a	n/a	n/a	"Trial"	n/a	n/a	n/a	"626"	"arrowright"	n/a	"NULL"	"NULL"	"NULL"	"stimuli/Ebbinghaus_-0.1000_-0.15857.png"	n/a	"Ebbinghaus"	"arrowright"	"1325"	"TRUE"	"Ebbinghaus"	"-0.100000000"	"-0.158570000"	"1"	"43"
n/a	"html-keyboard-response"	"103"	"233113"	"0.0-5.0-2.0-0.25"	"h67egb"	"600"	"1366"	"chrome"	"108.0.0"	"FALSE"	"Windows 10"	"60.85"	"150"	n/a	n/a	n/a	n/a	n/a	n/a	"fixation"	n/a	n/a	n/a	n/a	"NULL"	n/a	"NULL"	"NULL"	"NULL"	"<p style=\"color: black; font-size: 80px; padding-left: 34%; padding-right: 16%; padding-top: 15%; padding-bottom: 42%\">+</p>"	"1015"	n/a	n/a	n/a	n/a	n/a	n/a	n/a	n/a	n/a
n/a	"image-keyboard-response"	"104"	"233593"	"0.0-5.0-2.0-1.25"	"h67egb"	"600"	"1366"	"chrome"	"108.0.0"	"FALSE"	"Windows 10"	"60.85"	"150"	n/a	n/a	n/a	n/a	n/a	n/a	"Trial"	n/a	n/a	n/a	"479"	"arrowleft"	n/a	"NULL"	"NULL"	"NULL"	"stimuli/Ebbinghaus_0.10000_0.21500.png"	n/a	"Ebbinghaus"	"arrowleft"	"1029"	"TRUE"	"Ebbinghaus"	"0.1000000000"	"0.2150000000"	"1"	"44"
n/a	"html-keyboard-response"	"105"	"234659"	"0.0-5.0-2.0-0.26"	"h67egb"	"600"	"1366"	"chrome"	"108.0.0"	"FALSE"	"Windows 10"	"60.85"	"150"	n/a	n/a	n/a	n/a	n/a	n/a	"fixation"	n/a	n/a	n/a	n/a	"NULL"	n/a	"NULL"	"NULL"	"NULL"	"<p style=\"color: black; font-size: 80px; padding-left: 14%; padding-right: 41%; padding-top: 5%; padding-bottom: 32%\">+</p>"	"1053"	n/a	n/a	n/a	n/a	n/a	n/a	n/a	n/a	n/a
n/a	"image-keyboard-response"	"106"	"235111"	"0.0-5.0-2.0-1.26"	"h67egb"	"600"	"1366"	"chrome"	"108.0.0"	"FALSE"	"Windows 10"	"60.85"	"150"	n/a	n/a	n/a	n/a	n/a	n/a	"Trial"	n/a	n/a	n/a	"450"	"arrowright"	n/a	"NULL"	"NULL"	"NULL"	"stimuli/Ebbinghaus_-0.1000_-0.2800.png"	n/a	"Ebbinghaus"	"arrowright"	"1066"	"TRUE"	"Ebbinghaus"	"-0.100000000"	"-0.280000000"	"1"	"45"
n/a	"html-keyboard-response"	"107"	"236208"	"0.0-5.0-2.0-0.27"	"h67egb"	"600"	"1366"	"chrome"	"108.0.0"	"FALSE"	"Windows 10"	"60.85"	"150"	n/a	n/a	n/a	n/a	n/a	n/a	"fixation"	n/a	n/a	n/a	n/a	"NULL"	n/a	"NULL"	"NULL"	"NULL"	"<p style=\"color: black; font-size: 80px; padding-left: 11%; padding-right: 26%; padding-top: 49%; padding-bottom: 15%\">+</p>"	"1082"	n/a	n/a	n/a	n/a	n/a	n/a	n/a	n/a	n/a
n/a	"image-keyboard-response"	"108"	"236658"	"0.0-5.0-2.0-1.27"	"h67egb"	"600"	"1366"	"chrome"	"108.0.0"	"FALSE"	"Windows 10"	"60.85"	"150"	n/a	n/a	n/a	n/a	n/a	n/a	"Trial"	n/a	n/a	n/a	"449"	"arrowleft"	n/a	"NULL"	"NULL"	"NULL"	"stimuli/Ebbinghaus_-0.61429_0.15857.png"	n/a	"Ebbinghaus"	"arrowleft"	"1097"	"TRUE"	"Ebbinghaus"	"-0.614290000"	"0.1585700000"	"1"	"46"
n/a	"html-keyboard-response"	"109"	"237783"	"0.0-5.0-2.0-0.28"	"h67egb"	"600"	"1366"	"chrome"	"108.0.0"	"FALSE"	"Windows 10"	"60.85"	"150"	n/a	n/a	n/a	n/a	n/a	n/a	"fixation"	n/a	n/a	n/a	n/a	"NULL"	n/a	"NULL"	"NULL"	"NULL"	"<p style=\"color: black; font-size: 80px; padding-left: 16%; padding-right: 11%; padding-top: 2%; padding-bottom: 23%\">+</p>"	"1115"	n/a	n/a	n/a	n/a	n/a	n/a	n/a	n/a	n/a
n/a	"image-keyboard-response"	"110"	"238234"	"0.0-5.0-2.0-1.28"	"h67egb"	"600"	"1366"	"chrome"	"108.0.0"	"FALSE"	"Windows 10"	"60.85"	"150"	n/a	n/a	n/a	n/a	n/a	n/a	"Trial"	n/a	n/a	n/a	"449"	"arrowleft"	n/a	"NULL"	"NULL"	"NULL"	"stimuli/Ebbinghaus_-0.35714_0.21500.png"	n/a	"Ebbinghaus"	"arrowleft"	"1125"	"TRUE"	"Ebbinghaus"	"-0.357140000"	"0.2150000000"	"1"	"47"
n/a	"html-keyboard-response"	"111"	"239734"	"0.0-5.0-2.0-0.29"	"h67egb"	"600"	"1366"	"chrome"	"108.0.0"	"FALSE"	"Windows 10"	"60.85"	"150"	n/a	n/a	n/a	n/a	n/a	n/a	"fixation"	n/a	n/a	n/a	n/a	"NULL"	n/a	"NULL"	"NULL"	"NULL"	"<p style=\"color: black; font-size: 80px; padding-left: 24%; padding-right: 6%; padding-top: 8%; padding-bottom: 28%\">+</p>"	"1478"	n/a	n/a	n/a	n/a	n/a	n/a	n/a	n/a	n/a
n/a	"image-keyboard-response"	"112"	"240217"	"0.0-5.0-2.0-1.29"	"h67egb"	"600"	"1366"	"chrome"	"108.0.0"	"FALSE"	"Windows 10"	"60.85"	"150"	n/a	n/a	n/a	n/a	n/a	n/a	"Trial"	n/a	n/a	n/a	"482"	"arrowright"	n/a	"NULL"	"NULL"	"NULL"	"stimuli/Ebbinghaus_0.10000_-0.2800.png"	n/a	"Ebbinghaus"	"arrowright"	"1500"	"TRUE"	"Ebbinghaus"	"0.1000000000"	"-0.280000000"	"1"	"48"
n/a	"html-keyboard-response"	"113"	"241575"	"0.0-5.0-2.0-0.30"	"h67egb"	"600"	"1366"	"chrome"	"108.0.0"	"FALSE"	"Windows 10"	"60.85"	"150"	n/a	n/a	n/a	n/a	n/a	n/a	"fixation"	n/a	n/a	n/a	n/a	"NULL"	n/a	"NULL"	"NULL"	"NULL"	"<p style=\"color: black; font-size: 80px; padding-left: 34%; padding-right: 43%; padding-top: 11%; padding-bottom: 4%\">+</p>"	"1355"	n/a	n/a	n/a	n/a	n/a	n/a	n/a	n/a	n/a
n/a	"image-keyboard-response"	"114"	"242202"	"0.0-5.0-2.0-1.30"	"h67egb"	"600"	"1366"	"chrome"	"108.0.0"	"FALSE"	"Windows 10"	"60.85"	"150"	n/a	n/a	n/a	n/a	n/a	n/a	"Trial"	n/a	n/a	n/a	"626"	"arrowleft"	n/a	"NULL"	"NULL"	"NULL"	"stimuli/Ebbinghaus_-0.35714_0.15857.png"	n/a	"Ebbinghaus"	"arrowleft"	"1358"	"TRUE"	"Ebbinghaus"	"-0.357140000"	"0.1585700000"	"1"	"49"
n/a	"html-keyboard-response"	"115"	"243460"	"0.0-5.0-2.0-0.31"	"h67egb"	"600"	"1366"	"chrome"	"108.0.0"	"FALSE"	"Windows 10"	"60.85"	"150"	n/a	n/a	n/a	n/a	n/a	n/a	"fixation"	n/a	n/a	n/a	n/a	"NULL"	n/a	"NULL"	"NULL"	"NULL"	"<p style=\"color: black; font-size: 80px; padding-left: 9%; padding-right: 12%; padding-top: 40%; padding-bottom: 31%\">+</p>"	"1238"	n/a	n/a	n/a	n/a	n/a	n/a	n/a	n/a	n/a
n/a	"image-keyboard-response"	"116"	"244079"	"0.0-5.0-2.0-1.31"	"h67egb"	"600"	"1366"	"chrome"	"108.0.0"	"FALSE"	"Windows 10"	"60.85"	"150"	n/a	n/a	n/a	n/a	n/a	n/a	"Trial"	n/a	n/a	n/a	"618"	"arrowright"	n/a	"NULL"	"NULL"	"NULL"	"stimuli/Ebbinghaus_-0.87143_-0.11071.png"	n/a	"Ebbinghaus"	"arrowright"	"1258"	"TRUE"	"Ebbinghaus"	"-0.871430000"	"-0.110710000"	"1"	"50"
n/a	"html-keyboard-response"	"117"	"245324"	"0.0-5.0-2.0-0.32"	"h67egb"	"600"	"1366"	"chrome"	"108.0.0"	"FALSE"	"Windows 10"	"60.85"	"150"	n/a	n/a	n/a	n/a	n/a	n/a	"fixation"	n/a	n/a	n/a	n/a	"NULL"	n/a	"NULL"	"NULL"	"NULL"	"<p style=\"color: black; font-size: 80px; padding-left: 36%; padding-right: 14%; padding-top: 12%; padding-bottom: 39%\">+</p>"	"1234"	n/a	n/a	n/a	n/a	n/a	n/a	n/a	n/a	n/a
n/a	"image-keyboard-response"	"118"	"245811"	"0.0-5.0-2.0-1.32"	"h67egb"	"600"	"1366"	"chrome"	"108.0.0"	"FALSE"	"Windows 10"	"60.85"	"150"	n/a	n/a	n/a	n/a	n/a	n/a	"Trial"	n/a	n/a	n/a	"485"	"arrowleft"	n/a	"NULL"	"NULL"	"NULL"	"stimuli/Ebbinghaus_0.35714_-0.11071.png"	n/a	"Ebbinghaus"	"arrowright"	"1245"	"FALSE"	"Ebbinghaus"	"0.3571400000"	"-0.110710000"	"1"	"51"
n/a	"html-keyboard-response"	"119"	"246971"	"0.0-5.0-2.0-0.33"	"h67egb"	"600"	"1366"	"chrome"	"108.0.0"	"FALSE"	"Windows 10"	"60.85"	"150"	n/a	n/a	n/a	n/a	n/a	n/a	"fixation"	n/a	n/a	n/a	n/a	"NULL"	n/a	"NULL"	"NULL"	"NULL"	"<p style=\"color: black; font-size: 80px; padding-left: 30%; padding-right: 45%; padding-top: 3%; padding-bottom: 15%\">+</p>"	"1143"	n/a	n/a	n/a	n/a	n/a	n/a	n/a	n/a	n/a
n/a	"image-keyboard-response"	"120"	"247398"	"0.0-5.0-2.0-1.33"	"h67egb"	"600"	"1366"	"chrome"	"108.0.0"	"FALSE"	"Windows 10"	"60.85"	"150"	n/a	n/a	n/a	n/a	n/a	n/a	"Trial"	n/a	n/a	n/a	"424"	"arrowleft"	n/a	"NULL"	"NULL"	"NULL"	"stimuli/Ebbinghaus_-0.87143_-0.2800.png"	n/a	"Ebbinghaus"	"arrowright"	"1160"	"FALSE"	"Ebbinghaus"	"-0.871430000"	"-0.280000000"	"1"	"52"
n/a	"html-keyboard-response"	"121"	"248421"	"0.0-5.0-2.0-0.34"	"h67egb"	"600"	"1366"	"chrome"	"108.0.0"	"FALSE"	"Windows 10"	"60.85"	"150"	n/a	n/a	n/a	n/a	n/a	n/a	"fixation"	n/a	n/a	n/a	n/a	"NULL"	n/a	"NULL"	"NULL"	"NULL"	"<p style=\"color: black; font-size: 80px; padding-left: 13%; padding-right: 50%; padding-top: 32%; padding-bottom: 40%\">+</p>"	"1002"	n/a	n/a	n/a	n/a	n/a	n/a	n/a	n/a	n/a
n/a	"image-keyboard-response"	"122"	"248968"	"0.0-5.0-2.0-1.34"	"h67egb"	"600"	"1366"	"chrome"	"108.0.0"	"FALSE"	"Windows 10"	"60.85"	"150"	n/a	n/a	n/a	n/a	n/a	n/a	"Trial"	n/a	n/a	n/a	"546"	"arrowleft"	n/a	"NULL"	"NULL"	"NULL"	"stimuli/Ebbinghaus_-0.61429_0.21500.png"	n/a	"Ebbinghaus"	"arrowleft"	"1023"	"TRUE"	"Ebbinghaus"	"-0.614290000"	"0.2150000000"	"1"	"53"
n/a	"html-keyboard-response"	"123"	"250466"	"0.0-5.0-2.0-0.35"	"h67egb"	"600"	"1366"	"chrome"	"108.0.0"	"FALSE"	"Windows 10"	"60.85"	"150"	n/a	n/a	n/a	n/a	n/a	n/a	"fixation"	n/a	n/a	n/a	n/a	"NULL"	n/a	"NULL"	"NULL"	"NULL"	"<p style=\"color: black; font-size: 80px; padding-left: 33%; padding-right: 6%; padding-top: 37%; padding-bottom: 8%\">+</p>"	"1481"	n/a	n/a	n/a	n/a	n/a	n/a	n/a	n/a	n/a
n/a	"image-keyboard-response"	"124"	"250910"	"0.0-5.0-2.0-1.35"	"h67egb"	"600"	"1366"	"chrome"	"108.0.0"	"FALSE"	"Windows 10"	"60.85"	"150"	n/a	n/a	n/a	n/a	n/a	n/a	"Trial"	n/a	n/a	n/a	"438"	"arrowleft"	n/a	"NULL"	"NULL"	"NULL"	"stimuli/Ebbinghaus_0.87143_0.28000.png"	n/a	"Ebbinghaus"	"arrowleft"	"1498"	"TRUE"	"Ebbinghaus"	"0.8714300000"	"0.2800000000"	"1"	"54"
n/a	"html-keyboard-response"	"125"	"252311"	"0.0-5.0-2.0-0.36"	"h67egb"	"600"	"1366"	"chrome"	"108.0.0"	"FALSE"	"Windows 10"	"60.85"	"150"	n/a	n/a	n/a	n/a	n/a	n/a	"fixation"	n/a	n/a	n/a	n/a	"NULL"	n/a	"NULL"	"NULL"	"NULL"	"<p style=\"color: black; font-size: 80px; padding-left: 47%; padding-right: 20%; padding-top: 47%; padding-bottom: 23%\">+</p>"	"1397"	n/a	n/a	n/a	n/a	n/a	n/a	n/a	n/a	n/a
n/a	"image-keyboard-response"	"126"	"252753"	"0.0-5.0-2.0-1.36"	"h67egb"	"600"	"1366"	"chrome"	"108.0.0"	"FALSE"	"Windows 10"	"60.85"	"150"	n/a	n/a	n/a	n/a	n/a	n/a	"Trial"	n/a	n/a	n/a	"440"	"arrowright"	n/a	"NULL"	"NULL"	"NULL"	"stimuli/Ebbinghaus_-0.87143_-0.2150.png"	n/a	"Ebbinghaus"	"arrowright"	"1401"	"TRUE"	"Ebbinghaus"	"-0.871430000"	"-0.215000000"	"1"	"55"
n/a	"html-keyboard-response"	"127"	"253954"	"0.0-5.0-2.0-0.37"	"h67egb"	"600"	"1366"	"chrome"	"108.0.0"	"FALSE"	"Windows 10"	"60.85"	"150"	n/a	n/a	n/a	n/a	n/a	n/a	"fixation"	n/a	n/a	n/a	n/a	"NULL"	n/a	"NULL"	"NULL"	"NULL"	"<p style=\"color: black; font-size: 80px; padding-left: 44%; padding-right: 23%; padding-top: 44%; padding-bottom: 47%\">+</p>"	"1191"	n/a	n/a	n/a	n/a	n/a	n/a	n/a	n/a	n/a
n/a	"image-keyboard-response"	"128"	"254395"	"0.0-5.0-2.0-1.37"	"h67egb"	"600"	"1366"	"chrome"	"108.0.0"	"FALSE"	"Windows 10"	"60.85"	"150"	n/a	n/a	n/a	n/a	n/a	n/a	"Trial"	n/a	n/a	n/a	"440"	"arrowright"	n/a	"NULL"	"NULL"	"NULL"	"stimuli/Ebbinghaus_-0.61429_-0.2150.png"	n/a	"Ebbinghaus"	"arrowright"	"1201"	"TRUE"	"Ebbinghaus"	"-0.614290000"	"-0.215000000"	"1"	"56"
n/a	"html-keyboard-response"	"129"	"255703"	"0.0-5.0-2.0-0.38"	"h67egb"	"600"	"1366"	"chrome"	"108.0.0"	"FALSE"	"Windows 10"	"60.85"	"150"	n/a	n/a	n/a	n/a	n/a	n/a	"fixation"	n/a	n/a	n/a	n/a	"NULL"	n/a	"NULL"	"NULL"	"NULL"	"<p style=\"color: black; font-size: 80px; padding-left: 15%; padding-right: 49%; padding-top: 48%; padding-bottom: 8%\">+</p>"	"1292"	n/a	n/a	n/a	n/a	n/a	n/a	n/a	n/a	n/a
n/a	"image-keyboard-response"	"130"	"256242"	"0.0-5.0-2.0-1.38"	"h67egb"	"600"	"1366"	"chrome"	"108.0.0"	"FALSE"	"Windows 10"	"60.85"	"150"	n/a	n/a	n/a	n/a	n/a	n/a	"Trial"	n/a	n/a	n/a	"538"	"arrowleft"	n/a	"NULL"	"NULL"	"NULL"	"stimuli/Ebbinghaus_0.61429_0.15857.png"	n/a	"Ebbinghaus"	"arrowleft"	"1308"	"TRUE"	"Ebbinghaus"	"0.6142900000"	"0.1585700000"	"1"	"57"
n/a	"html-keyboard-response"	"131"	"257523"	"0.0-5.0-2.0-0.39"	"h67egb"	"600"	"1366"	"chrome"	"108.0.0"	"FALSE"	"Windows 10"	"60.85"	"150"	n/a	n/a	n/a	n/a	n/a	n/a	"fixation"	n/a	n/a	n/a	n/a	"NULL"	n/a	"NULL"	"NULL"	"NULL"	"<p style=\"color: black; font-size: 80px; padding-left: 26%; padding-right: 5%; padding-top: 33%; padding-bottom: 28%\">+</p>"	"1272"	n/a	n/a	n/a	n/a	n/a	n/a	n/a	n/a	n/a
n/a	"image-keyboard-response"	"132"	"258073"	"0.0-5.0-2.0-1.39"	"h67egb"	"600"	"1366"	"chrome"	"108.0.0"	"FALSE"	"Windows 10"	"60.85"	"150"	n/a	n/a	n/a	n/a	n/a	n/a	"Trial"	n/a	n/a	n/a	"549"	"arrowright"	n/a	"NULL"	"NULL"	"NULL"	"stimuli/Ebbinghaus_0.61429_-0.15857.png"	n/a	"Ebbinghaus"	"arrowright"	"1281"	"TRUE"	"Ebbinghaus"	"0.6142900000"	"-0.158570000"	"1"	"58"
n/a	"html-keyboard-response"	"133"	"259354"	"0.0-5.0-2.0-0.40"	"h67egb"	"600"	"1366"	"chrome"	"108.0.0"	"FALSE"	"Windows 10"	"60.85"	"150"	n/a	n/a	n/a	n/a	n/a	n/a	"fixation"	n/a	n/a	n/a	n/a	"NULL"	n/a	"NULL"	"NULL"	"NULL"	"<p style=\"color: black; font-size: 80px; padding-left: 32%; padding-right: 16%; padding-top: 7%; padding-bottom: 18%\">+</p>"	"1264"	n/a	n/a	n/a	n/a	n/a	n/a	n/a	n/a	n/a
n/a	"image-keyboard-response"	"134"	"259804"	"0.0-5.0-2.0-1.40"	"h67egb"	"600"	"1366"	"chrome"	"108.0.0"	"FALSE"	"Windows 10"	"60.85"	"150"	n/a	n/a	n/a	n/a	n/a	n/a	"Trial"	n/a	n/a	n/a	"449"	"arrowleft"	n/a	"NULL"	"NULL"	"NULL"	"stimuli/Ebbinghaus_0.61429_0.21500.png"	n/a	"Ebbinghaus"	"arrowleft"	"1281"	"TRUE"	"Ebbinghaus"	"0.6142900000"	"0.2150000000"	"1"	"59"
n/a	"html-keyboard-response"	"135"	"260824"	"0.0-5.0-2.0-0.41"	"h67egb"	"600"	"1366"	"chrome"	"108.0.0"	"FALSE"	"Windows 10"	"60.85"	"150"	n/a	n/a	n/a	n/a	n/a	n/a	"fixation"	n/a	n/a	n/a	n/a	"NULL"	n/a	"NULL"	"NULL"	"NULL"	"<p style=\"color: black; font-size: 80px; padding-left: 35%; padding-right: 45%; padding-top: 11%; padding-bottom: 8%\">+</p>"	"1004"	n/a	n/a	n/a	n/a	n/a	n/a	n/a	n/a	n/a
n/a	"image-keyboard-response"	"136"	"261344"	"0.0-5.0-2.0-1.41"	"h67egb"	"600"	"1366"	"chrome"	"108.0.0"	"FALSE"	"Windows 10"	"60.85"	"150"	n/a	n/a	n/a	n/a	n/a	n/a	"Trial"	n/a	n/a	n/a	"519"	"arrowleft"	n/a	"NULL"	"NULL"	"NULL"	"stimuli/Ebbinghaus_-0.87143_0.21500.png"	n/a	"Ebbinghaus"	"arrowleft"	"1020"	"TRUE"	"Ebbinghaus"	"-0.871430000"	"0.2150000000"	"1"	"60"
n/a	"html-keyboard-response"	"137"	"262641"	"0.0-5.0-2.0-0.42"	"h67egb"	"600"	"1366"	"chrome"	"108.0.0"	"FALSE"	"Windows 10"	"60.85"	"150"	n/a	n/a	n/a	n/a	n/a	n/a	"fixation"	n/a	n/a	n/a	n/a	"NULL"	n/a	"NULL"	"NULL"	"NULL"	"<p style=\"color: black; font-size: 80px; padding-left: 40%; padding-right: 13%; padding-top: 38%; padding-bottom: 12%\">+</p>"	"1286"	n/a	n/a	n/a	n/a	n/a	n/a	n/a	n/a	n/a
n/a	"image-keyboard-response"	"138"	"263217"	"0.0-5.0-2.0-1.42"	"h67egb"	"600"	"1366"	"chrome"	"108.0.0"	"FALSE"	"Windows 10"	"60.85"	"150"	n/a	n/a	n/a	n/a	n/a	n/a	"Trial"	n/a	n/a	n/a	"574"	"arrowright"	n/a	"NULL"	"NULL"	"NULL"	"stimuli/Ebbinghaus_0.10000_-0.2150.png"	n/a	"Ebbinghaus"	"arrowright"	"1297"	"TRUE"	"Ebbinghaus"	"0.1000000000"	"-0.215000000"	"1"	"61"
n/a	"html-keyboard-response"	"139"	"264262"	"0.0-5.0-2.0-0.43"	"h67egb"	"600"	"1366"	"chrome"	"108.0.0"	"FALSE"	"Windows 10"	"60.85"	"150"	n/a	n/a	n/a	n/a	n/a	n/a	"fixation"	n/a	n/a	n/a	n/a	"NULL"	n/a	"NULL"	"NULL"	"NULL"	"<p style=\"color: black; font-size: 80px; padding-left: 45%; padding-right: 16%; padding-top: 26%; padding-bottom: 20%\">+</p>"	"1023"	n/a	n/a	n/a	n/a	n/a	n/a	n/a	n/a	n/a
n/a	"image-keyboard-response"	"140"	"264758"	"0.0-5.0-2.0-1.43"	"h67egb"	"600"	"1366"	"chrome"	"108.0.0"	"FALSE"	"Windows 10"	"60.85"	"150"	n/a	n/a	n/a	n/a	n/a	n/a	"Trial"	n/a	n/a	n/a	"488"	"arrowright"	n/a	"NULL"	"NULL"	"NULL"	"stimuli/Ebbinghaus_-0.35714_-0.15857.png"	n/a	"Ebbinghaus"	"arrowright"	"1045"	"TRUE"	"Ebbinghaus"	"-0.357140000"	"-0.158570000"	"1"	"62"
n/a	"html-keyboard-response"	"141"	"266029"	"0.0-5.0-2.0-0.44"	"h67egb"	"600"	"1366"	"chrome"	"108.0.0"	"FALSE"	"Windows 10"	"60.85"	"150"	n/a	n/a	n/a	n/a	n/a	n/a	"fixation"	n/a	n/a	n/a	n/a	"NULL"	n/a	"NULL"	"NULL"	"NULL"	"<p style=\"color: black; font-size: 80px; padding-left: 5%; padding-right: 24%; padding-top: 40%; padding-bottom: 46%\">+</p>"	"1252"	n/a	n/a	n/a	n/a	n/a	n/a	n/a	n/a	n/a
n/a	"image-keyboard-response"	"142"	"266480"	"0.0-5.0-2.0-1.44"	"h67egb"	"600"	"1366"	"chrome"	"108.0.0"	"FALSE"	"Windows 10"	"60.85"	"150"	n/a	n/a	n/a	n/a	n/a	n/a	"Trial"	n/a	n/a	n/a	"449"	"arrowleft"	n/a	"NULL"	"NULL"	"NULL"	"stimuli/Ebbinghaus_-0.1000_0.28000.png"	n/a	"Ebbinghaus"	"arrowleft"	"1271"	"TRUE"	"Ebbinghaus"	"-0.100000000"	"0.2800000000"	"1"	"63"
n/a	"html-keyboard-response"	"143"	"267559"	"0.0-5.0-2.0-0.45"	"h67egb"	"600"	"1366"	"chrome"	"108.0.0"	"FALSE"	"Windows 10"	"60.85"	"150"	n/a	n/a	n/a	n/a	n/a	n/a	"fixation"	n/a	n/a	n/a	n/a	"NULL"	n/a	"NULL"	"NULL"	"NULL"	"<p style=\"color: black; font-size: 80px; padding-left: 10%; padding-right: 46%; padding-top: 29%; padding-bottom: 31%\">+</p>"	"1066"	n/a	n/a	n/a	n/a	n/a	n/a	n/a	n/a	n/a
n/a	"image-keyboard-response"	"144"	"268098"	"0.0-5.0-2.0-1.45"	"h67egb"	"600"	"1366"	"chrome"	"108.0.0"	"FALSE"	"Windows 10"	"60.85"	"150"	n/a	n/a	n/a	n/a	n/a	n/a	"Trial"	n/a	n/a	n/a	"538"	"arrowleft"	n/a	"NULL"	"NULL"	"NULL"	"stimuli/Ebbinghaus_0.35714_0.11071.png"	n/a	"Ebbinghaus"	"arrowleft"	"1079"	"TRUE"	"Ebbinghaus"	"0.3571400000"	"0.1107100000"	"1"	"64"
n/a	"html-keyboard-response"	"145"	"269529"	"0.0-5.0-2.0-0.46"	"h67egb"	"600"	"1366"	"chrome"	"108.0.0"	"FALSE"	"Windows 10"	"60.85"	"150"	n/a	n/a	n/a	n/a	n/a	n/a	"fixation"	n/a	n/a	n/a	n/a	"NULL"	n/a	"NULL"	"NULL"	"NULL"	"<p style=\"color: black; font-size: 80px; padding-left: 21%; padding-right: 18%; padding-top: 28%; padding-bottom: 30%\">+</p>"	"1422"	n/a	n/a	n/a	n/a	n/a	n/a	n/a	n/a	n/a
n/a	"image-keyboard-response"	"146"	"270111"	"0.0-5.0-2.0-1.46"	"h67egb"	"600"	"1366"	"chrome"	"108.0.0"	"FALSE"	"Windows 10"	"60.85"	"150"	n/a	n/a	n/a	n/a	n/a	n/a	"Trial"	n/a	n/a	n/a	"581"	"arrowleft"	n/a	"NULL"	"NULL"	"NULL"	"stimuli/Ebbinghaus_0.10000_0.11071.png"	n/a	"Ebbinghaus"	"arrowleft"	"1431"	"TRUE"	"Ebbinghaus"	"0.1000000000"	"0.1107100000"	"1"	"65"
n/a	"html-keyboard-response"	"147"	"271216"	"0.0-5.0-2.0-0.47"	"h67egb"	"600"	"1366"	"chrome"	"108.0.0"	"FALSE"	"Windows 10"	"60.85"	"150"	n/a	n/a	n/a	n/a	n/a	n/a	"fixation"	n/a	n/a	n/a	n/a	"NULL"	n/a	"NULL"	"NULL"	"NULL"	"<p style=\"color: black; font-size: 80px; padding-left: 31%; padding-right: 19%; padding-top: 14%; padding-bottom: 5%\">+</p>"	"1089"	n/a	n/a	n/a	n/a	n/a	n/a	n/a	n/a	n/a
n/a	"image-keyboard-response"	"148"	"271724"	"0.0-5.0-2.0-1.47"	"h67egb"	"600"	"1366"	"chrome"	"108.0.0"	"FALSE"	"Windows 10"	"60.85"	"150"	n/a	n/a	n/a	n/a	n/a	n/a	"Trial"	n/a	n/a	n/a	"507"	"arrowright"	n/a	"NULL"	"NULL"	"NULL"	"stimuli/Ebbinghaus_-0.1000_-0.2150.png"	n/a	"Ebbinghaus"	"arrowright"	"1105"	"TRUE"	"Ebbinghaus"	"-0.100000000"	"-0.215000000"	"1"	"66"
n/a	"html-keyboard-response"	"149"	"272766"	"0.0-5.0-2.0-0.48"	"h67egb"	"600"	"1366"	"chrome"	"108.0.0"	"FALSE"	"Windows 10"	"60.85"	"150"	n/a	n/a	n/a	n/a	n/a	n/a	"fixation"	n/a	n/a	n/a	n/a	"NULL"	n/a	"NULL"	"NULL"	"NULL"	"<p style=\"color: black; font-size: 80px; padding-left: 22%; padding-right: 43%; padding-top: 17%; padding-bottom: 10%\">+</p>"	"1034"	n/a	n/a	n/a	n/a	n/a	n/a	n/a	n/a	n/a
n/a	"image-keyboard-response"	"150"	"273203"	"0.0-5.0-2.0-1.48"	"h67egb"	"600"	"1366"	"chrome"	"108.0.0"	"FALSE"	"Windows 10"	"60.85"	"150"	n/a	n/a	n/a	n/a	n/a	n/a	"Trial"	n/a	n/a	n/a	"434"	"arrowleft"	n/a	"NULL"	"NULL"	"NULL"	"stimuli/Ebbinghaus_0.87143_0.11071.png"	n/a	"Ebbinghaus"	"arrowleft"	"1042"	"TRUE"	"Ebbinghaus"	"0.8714300000"	"0.1107100000"	"1"	"67"
n/a	"html-keyboard-response"	"151"	"274653"	"0.0-5.0-2.0-0.49"	"h67egb"	"600"	"1366"	"chrome"	"108.0.0"	"FALSE"	"Windows 10"	"60.85"	"150"	n/a	n/a	n/a	n/a	n/a	n/a	"fixation"	n/a	n/a	n/a	n/a	"NULL"	n/a	"NULL"	"NULL"	"NULL"	"<p style=\"color: black; font-size: 80px; padding-left: 29%; padding-right: 7%; padding-top: 47%; padding-bottom: 30%\">+</p>"	"1433"	n/a	n/a	n/a	n/a	n/a	n/a	n/a	n/a	n/a
n/a	"image-keyboard-response"	"152"	"275130"	"0.0-5.0-2.0-1.49"	"h67egb"	"600"	"1366"	"chrome"	"108.0.0"	"FALSE"	"Windows 10"	"60.85"	"150"	n/a	n/a	n/a	n/a	n/a	n/a	"Trial"	n/a	n/a	n/a	"474"	"arrowleft"	n/a	"NULL"	"NULL"	"NULL"	"stimuli/Ebbinghaus_0.61429_0.28000.png"	n/a	"Ebbinghaus"	"arrowleft"	"1450"	"TRUE"	"Ebbinghaus"	"0.6142900000"	"0.2800000000"	"1"	"68"
n/a	"html-keyboard-response"	"153"	"276452"	"0.0-5.0-2.0-0.50"	"h67egb"	"600"	"1366"	"chrome"	"108.0.0"	"FALSE"	"Windows 10"	"60.85"	"150"	n/a	n/a	n/a	n/a	n/a	n/a	"fixation"	n/a	n/a	n/a	n/a	"NULL"	n/a	"NULL"	"NULL"	"NULL"	"<p style=\"color: black; font-size: 80px; padding-left: 38%; padding-right: 29%; padding-top: 9%; padding-bottom: 28%\">+</p>"	"1305"	n/a	n/a	n/a	n/a	n/a	n/a	n/a	n/a	n/a
n/a	"image-keyboard-response"	"154"	"276904"	"0.0-5.0-2.0-1.50"	"h67egb"	"600"	"1366"	"chrome"	"108.0.0"	"FALSE"	"Windows 10"	"60.85"	"150"	n/a	n/a	n/a	n/a	n/a	n/a	"Trial"	n/a	n/a	n/a	"450"	"arrowright"	n/a	"NULL"	"NULL"	"NULL"	"stimuli/Ebbinghaus_0.35714_-0.15857.png"	n/a	"Ebbinghaus"	"arrowright"	"1322"	"TRUE"	"Ebbinghaus"	"0.3571400000"	"-0.158570000"	"1"	"69"
n/a	"html-keyboard-response"	"155"	"278084"	"0.0-5.0-2.0-0.51"	"h67egb"	"600"	"1366"	"chrome"	"108.0.0"	"FALSE"	"Windows 10"	"60.85"	"150"	n/a	n/a	n/a	n/a	n/a	n/a	"fixation"	n/a	n/a	n/a	n/a	"NULL"	n/a	"NULL"	"NULL"	"NULL"	"<p style=\"color: black; font-size: 80px; padding-left: 28%; padding-right: 23%; padding-top: 15%; padding-bottom: 15%\">+</p>"	"1167"	n/a	n/a	n/a	n/a	n/a	n/a	n/a	n/a	n/a
n/a	"image-keyboard-response"	"156"	"278490"	"0.0-5.0-2.0-1.51"	"h67egb"	"600"	"1366"	"chrome"	"108.0.0"	"FALSE"	"Windows 10"	"60.85"	"150"	n/a	n/a	n/a	n/a	n/a	n/a	"Trial"	n/a	n/a	n/a	"405"	"arrowright"	n/a	"NULL"	"NULL"	"NULL"	"stimuli/Ebbinghaus_-0.35714_-0.2800.png"	n/a	"Ebbinghaus"	"arrowright"	"1180"	"TRUE"	"Ebbinghaus"	"-0.357140000"	"-0.280000000"	"1"	"70"
n/a	"html-keyboard-response"	"157"	"279582"	"0.0-5.0-2.0-0.52"	"h67egb"	"600"	"1366"	"chrome"	"108.0.0"	"FALSE"	"Windows 10"	"60.85"	"150"	n/a	n/a	n/a	n/a	n/a	n/a	"fixation"	n/a	n/a	n/a	n/a	"NULL"	n/a	"NULL"	"NULL"	"NULL"	"<p style=\"color: black; font-size: 80px; padding-left: 33%; padding-right: 41%; padding-top: 46%; padding-bottom: 5%\">+</p>"	"1069"	n/a	n/a	n/a	n/a	n/a	n/a	n/a	n/a	n/a
n/a	"image-keyboard-response"	"158"	"280085"	"0.0-5.0-2.0-1.52"	"h67egb"	"600"	"1366"	"chrome"	"108.0.0"	"FALSE"	"Windows 10"	"60.85"	"150"	n/a	n/a	n/a	n/a	n/a	n/a	"Trial"	n/a	n/a	n/a	"501"	"arrowleft"	n/a	"NULL"	"NULL"	"NULL"	"stimuli/Ebbinghaus_-0.35714_0.11071.png"	n/a	"Ebbinghaus"	"arrowleft"	"1092"	"TRUE"	"Ebbinghaus"	"-0.357140000"	"0.1107100000"	"1"	"71"
n/a	"html-keyboard-response"	"159"	"281357"	"0.0-5.0-2.0-0.53"	"h67egb"	"600"	"1366"	"chrome"	"108.0.0"	"FALSE"	"Windows 10"	"60.85"	"150"	n/a	n/a	n/a	n/a	n/a	n/a	"fixation"	n/a	n/a	n/a	n/a	"NULL"	n/a	"NULL"	"NULL"	"NULL"	"<p style=\"color: black; font-size: 80px; padding-left: 50%; padding-right: 42%; padding-top: 46%; padding-bottom: 50%\">+</p>"	"1256"	n/a	n/a	n/a	n/a	n/a	n/a	n/a	n/a	n/a
n/a	"image-keyboard-response"	"160"	"281819"	"0.0-5.0-2.0-1.53"	"h67egb"	"600"	"1366"	"chrome"	"108.0.0"	"FALSE"	"Windows 10"	"60.85"	"150"	n/a	n/a	n/a	n/a	n/a	n/a	"Trial"	n/a	n/a	n/a	"461"	"arrowleft"	n/a	"NULL"	"NULL"	"NULL"	"stimuli/Ebbinghaus_0.35714_0.15857.png"	n/a	"Ebbinghaus"	"arrowleft"	"1272"	"TRUE"	"Ebbinghaus"	"0.3571400000"	"0.1585700000"	"1"	"72"
n/a	"html-keyboard-response"	"161"	"282871"	"0.0-5.0-2.0-0.54"	"h67egb"	"600"	"1366"	"chrome"	"108.0.0"	"FALSE"	"Windows 10"	"60.85"	"150"	n/a	n/a	n/a	n/a	n/a	n/a	"fixation"	n/a	n/a	n/a	n/a	"NULL"	n/a	"NULL"	"NULL"	"NULL"	"<p style=\"color: black; font-size: 80px; padding-left: 29%; padding-right: 41%; padding-top: 0%; padding-bottom: 20%\">+</p>"	"1047"	n/a	n/a	n/a	n/a	n/a	n/a	n/a	n/a	n/a
n/a	"image-keyboard-response"	"162"	"283342"	"0.0-5.0-2.0-1.54"	"h67egb"	"600"	"1366"	"chrome"	"108.0.0"	"FALSE"	"Windows 10"	"60.85"	"150"	n/a	n/a	n/a	n/a	n/a	n/a	"Trial"	n/a	n/a	n/a	"469"	"arrowright"	n/a	"NULL"	"NULL"	"NULL"	"stimuli/Ebbinghaus_0.87143_-0.15857.png"	n/a	"Ebbinghaus"	"arrowright"	"1052"	"TRUE"	"Ebbinghaus"	"0.8714300000"	"-0.158570000"	"1"	"73"
n/a	"html-keyboard-response"	"163"	"284586"	"0.0-5.0-2.0-0.55"	"h67egb"	"600"	"1366"	"chrome"	"108.0.0"	"FALSE"	"Windows 10"	"60.85"	"150"	n/a	n/a	n/a	n/a	n/a	n/a	"fixation"	n/a	n/a	n/a	n/a	"NULL"	n/a	"NULL"	"NULL"	"NULL"	"<p style=\"color: black; font-size: 80px; padding-left: 12%; padding-right: 16%; padding-top: 12%; padding-bottom: 5%\">+</p>"	"1231"	n/a	n/a	n/a	n/a	n/a	n/a	n/a	n/a	n/a
n/a	"image-keyboard-response"	"164"	"285034"	"0.0-5.0-2.0-1.55"	"h67egb"	"600"	"1366"	"chrome"	"108.0.0"	"FALSE"	"Windows 10"	"60.85"	"150"	n/a	n/a	n/a	n/a	n/a	n/a	"Trial"	n/a	n/a	n/a	"447"	"arrowleft"	n/a	"NULL"	"NULL"	"NULL"	"stimuli/Ebbinghaus_-0.61429_-0.15857.png"	n/a	"Ebbinghaus"	"arrowright"	"1244"	"FALSE"	"Ebbinghaus"	"-0.614290000"	"-0.158570000"	"1"	"74"
n/a	"html-keyboard-response"	"165"	"286275"	"0.0-5.0-2.0-0.56"	"h67egb"	"600"	"1366"	"chrome"	"108.0.0"	"FALSE"	"Windows 10"	"60.85"	"150"	n/a	n/a	n/a	n/a	n/a	n/a	"fixation"	n/a	n/a	n/a	n/a	"NULL"	n/a	"NULL"	"NULL"	"NULL"	"<p style=\"color: black; font-size: 80px; padding-left: 6%; padding-right: 13%; padding-top: 17%; padding-bottom: 37%\">+</p>"	"1228"	n/a	n/a	n/a	n/a	n/a	n/a	n/a	n/a	n/a
n/a	"image-keyboard-response"	"166"	"287011"	"0.0-5.0-2.0-1.56"	"h67egb"	"600"	"1366"	"chrome"	"108.0.0"	"FALSE"	"Windows 10"	"60.85"	"150"	n/a	n/a	n/a	n/a	n/a	n/a	"Trial"	n/a	n/a	n/a	"733"	"arrowleft"	n/a	"NULL"	"NULL"	"NULL"	"stimuli/Ebbinghaus_0.35714_-0.2150.png"	n/a	"Ebbinghaus"	"arrowright"	"1241"	"FALSE"	"Ebbinghaus"	"0.3571400000"	"-0.215000000"	"1"	"75"
n/a	"html-keyboard-response"	"167"	"288209"	"0.0-5.0-2.0-0.57"	"h67egb"	"600"	"1366"	"chrome"	"108.0.0"	"FALSE"	"Windows 10"	"60.85"	"150"	n/a	n/a	n/a	n/a	n/a	n/a	"fixation"	n/a	n/a	n/a	n/a	"NULL"	n/a	"NULL"	"NULL"	"NULL"	"<p style=\"color: black; font-size: 80px; padding-left: 28%; padding-right: 24%; padding-top: 14%; padding-bottom: 24%\">+</p>"	"1194"	n/a	n/a	n/a	n/a	n/a	n/a	n/a	n/a	n/a
n/a	"image-keyboard-response"	"168"	"288854"	"0.0-5.0-2.0-1.57"	"h67egb"	"600"	"1366"	"chrome"	"108.0.0"	"FALSE"	"Windows 10"	"60.85"	"150"	n/a	n/a	n/a	n/a	n/a	n/a	"Trial"	n/a	n/a	n/a	"644"	"arrowleft"	n/a	"NULL"	"NULL"	"NULL"	"stimuli/Ebbinghaus_-0.1000_0.11071.png"	n/a	"Ebbinghaus"	"arrowleft"	"1198"	"TRUE"	"Ebbinghaus"	"-0.100000000"	"0.1107100000"	"1"	"76"
n/a	"html-keyboard-response"	"169"	"290064"	"0.0-5.0-2.0-0.58"	"h67egb"	"600"	"1366"	"chrome"	"108.0.0"	"FALSE"	"Windows 10"	"60.85"	"150"	n/a	n/a	n/a	n/a	n/a	n/a	"fixation"	n/a	n/a	n/a	n/a	"NULL"	n/a	"NULL"	"NULL"	"NULL"	"<p style=\"color: black; font-size: 80px; padding-left: 23%; padding-right: 15%; padding-top: 27%; padding-bottom: 42%\">+</p>"	"1200"	n/a	n/a	n/a	n/a	n/a	n/a	n/a	n/a	n/a
n/a	"image-keyboard-response"	"170"	"290609"	"0.0-5.0-2.0-1.58"	"h67egb"	"600"	"1366"	"chrome"	"108.0.0"	"FALSE"	"Windows 10"	"60.85"	"150"	n/a	n/a	n/a	n/a	n/a	n/a	"Trial"	n/a	n/a	n/a	"543"	"arrowleft"	n/a	"NULL"	"NULL"	"NULL"	"stimuli/Ebbinghaus_-0.1000_0.15857.png"	n/a	"Ebbinghaus"	"arrowleft"	"1210"	"TRUE"	"Ebbinghaus"	"-0.100000000"	"0.1585700000"	"1"	"77"
n/a	"html-keyboard-response"	"171"	"291764"	"0.0-5.0-2.0-0.59"	"h67egb"	"600"	"1366"	"chrome"	"108.0.0"	"FALSE"	"Windows 10"	"60.85"	"150"	n/a	n/a	n/a	n/a	n/a	n/a	"fixation"	n/a	n/a	n/a	n/a	"NULL"	n/a	"NULL"	"NULL"	"NULL"	"<p style=\"color: black; font-size: 80px; padding-left: 37%; padding-right: 15%; padding-top: 9%; padding-bottom: 45%\">+</p>"	"1137"	n/a	n/a	n/a	n/a	n/a	n/a	n/a	n/a	n/a
n/a	"image-keyboard-response"	"172"	"292305"	"0.0-5.0-2.0-1.59"	"h67egb"	"600"	"1366"	"chrome"	"108.0.0"	"FALSE"	"Windows 10"	"60.85"	"150"	n/a	n/a	n/a	n/a	n/a	n/a	"Trial"	n/a	n/a	n/a	"538"	"arrowleft"	n/a	"NULL"	"NULL"	"NULL"	"stimuli/Ebbinghaus_-0.87143_0.28000.png"	n/a	"Ebbinghaus"	"arrowleft"	"1155"	"TRUE"	"Ebbinghaus"	"-0.871430000"	"0.2800000000"	"1"	"78"
n/a	"html-keyboard-response"	"173"	"293436"	"0.0-5.0-2.0-0.60"	"h67egb"	"600"	"1366"	"chrome"	"108.0.0"	"FALSE"	"Windows 10"	"60.85"	"150"	n/a	n/a	n/a	n/a	n/a	n/a	"fixation"	n/a	n/a	n/a	n/a	"NULL"	n/a	"NULL"	"NULL"	"NULL"	"<p style=\"color: black; font-size: 80px; padding-left: 7%; padding-right: 31%; padding-top: 19%; padding-bottom: 20%\">+</p>"	"1108"	n/a	n/a	n/a	n/a	n/a	n/a	n/a	n/a	n/a
n/a	"image-keyboard-response"	"174"	"293980"	"0.0-5.0-2.0-1.60"	"h67egb"	"600"	"1366"	"chrome"	"108.0.0"	"FALSE"	"Windows 10"	"60.85"	"150"	n/a	n/a	n/a	n/a	n/a	n/a	"Trial"	n/a	n/a	n/a	"541"	"arrowleft"	n/a	"NULL"	"NULL"	"NULL"	"stimuli/Ebbinghaus_0.87143_-0.11071.png"	n/a	"Ebbinghaus"	"arrowright"	"1131"	"FALSE"	"Ebbinghaus"	"0.8714300000"	"-0.110710000"	"1"	"79"
n/a	"html-keyboard-response"	"175"	"295404"	"0.0-5.0-2.0-0.61"	"h67egb"	"600"	"1366"	"chrome"	"108.0.0"	"FALSE"	"Windows 10"	"60.85"	"150"	n/a	n/a	n/a	n/a	n/a	n/a	"fixation"	n/a	n/a	n/a	n/a	"NULL"	n/a	"NULL"	"NULL"	"NULL"	"<p style=\"color: black; font-size: 80px; padding-left: 13%; padding-right: 46%; padding-top: 21%; padding-bottom: 48%\">+</p>"	"1403"	n/a	n/a	n/a	n/a	n/a	n/a	n/a	n/a	n/a
n/a	"image-keyboard-response"	"176"	"296021"	"0.0-5.0-2.0-1.61"	"h67egb"	"600"	"1366"	"chrome"	"108.0.0"	"FALSE"	"Windows 10"	"60.85"	"150"	n/a	n/a	n/a	n/a	n/a	n/a	"Trial"	n/a	n/a	n/a	"614"	"arrowright"	n/a	"NULL"	"NULL"	"NULL"	"stimuli/Ebbinghaus_0.10000_-0.11071.png"	n/a	"Ebbinghaus"	"arrowright"	"1424"	"TRUE"	"Ebbinghaus"	"0.1000000000"	"-0.110710000"	"1"	"80"
n/a	"html-keyboard-response"	"177"	"297107"	"0.0-5.0-2.0-0.62"	"h67egb"	"600"	"1366"	"chrome"	"108.0.0"	"FALSE"	"Windows 10"	"60.85"	"150"	n/a	n/a	n/a	n/a	n/a	n/a	"fixation"	n/a	n/a	n/a	n/a	"NULL"	n/a	"NULL"	"NULL"	"NULL"	"<p style=\"color: black; font-size: 80px; padding-left: 44%; padding-right: 36%; padding-top: 50%; padding-bottom: 24%\">+</p>"	"1067"	n/a	n/a	n/a	n/a	n/a	n/a	n/a	n/a	n/a
n/a	"image-keyboard-response"	"178"	"297577"	"0.0-5.0-2.0-1.62"	"h67egb"	"600"	"1366"	"chrome"	"108.0.0"	"FALSE"	"Windows 10"	"60.85"	"150"	n/a	n/a	n/a	n/a	n/a	n/a	"Trial"	n/a	n/a	n/a	"468"	"arrowleft"	n/a	"NULL"	"NULL"	"NULL"	"stimuli/Ebbinghaus_0.10000_0.28000.png"	n/a	"Ebbinghaus"	"arrowleft"	"1086"	"TRUE"	"Ebbinghaus"	"0.1000000000"	"0.2800000000"	"1"	"81"
n/a	"html-keyboard-response"	"179"	"299091"	"0.0-5.0-2.0-0.63"	"h67egb"	"600"	"1366"	"chrome"	"108.0.0"	"FALSE"	"Windows 10"	"60.85"	"150"	n/a	n/a	n/a	n/a	n/a	n/a	"fixation"	n/a	n/a	n/a	n/a	"NULL"	n/a	"NULL"	"NULL"	"NULL"	"<p style=\"color: black; font-size: 80px; padding-left: 31%; padding-right: 42%; padding-top: 0%; padding-bottom: 16%\">+</p>"	"1496"	n/a	n/a	n/a	n/a	n/a	n/a	n/a	n/a	n/a
n/a	"image-keyboard-response"	"180"	"299718"	"0.0-5.0-2.0-1.63"	"h67egb"	"600"	"1366"	"chrome"	"108.0.0"	"FALSE"	"Windows 10"	"60.85"	"150"	n/a	n/a	n/a	n/a	n/a	n/a	"Trial"	n/a	n/a	n/a	"625"	"arrowright"	n/a	"NULL"	"NULL"	"NULL"	"stimuli/Ebbinghaus_-0.87143_-0.15857.png"	n/a	"Ebbinghaus"	"arrowright"	"1514"	"TRUE"	"Ebbinghaus"	"-0.871430000"	"-0.158570000"	"1"	"82"
n/a	"html-button-response"	"181"	"318288"	"0.0-5.0-3.0"	"h67egb"	"600"	"1366"	"chrome"	"108.0.0"	"FALSE"	"Windows 10"	"60.85"	"150"	n/a	n/a	n/a	n/a	n/a	n/a	"block_results"	n/a	n/a	n/a	"18568"	"0"	n/a	"NULL"	"NULL"	"NULL"	"<p>Your score for this illusion is <p style=\"color: black; font-size: 48px; font-weight: bold;\">81.7 %</p><hr><p>Can you do better in the next illusion?</p>"	n/a	n/a	n/a	n/a	n/a	n/a	n/a	n/a	n/a	n/a
"TRUE"	"preload"	"182"	"318472"	"0.0-6.0-0.0"	"h67egb"	"600"	"1366"	"chrome"	"108.0.0"	"FALSE"	"Windows 10"	"60.85"	"150"	n/a	n/a	n/a	n/a	n/a	n/a	n/a	n/a	n/a	n/a	n/a	"NULL"	"FALSE"	"list()"	"list()"	"list()"	n/a	n/a	n/a	n/a	n/a	n/a	n/a	n/a	n/a	n/a	n/a
n/a	"html-keyboard-response"	"183"	"323580"	"0.0-6.0-1.0"	"h67egb"	"600"	"1366"	"chrome"	"108.0.0"	"FALSE"	"Windows 10"	"60.85"	"150"	n/a	n/a	n/a	n/a	n/a	n/a	n/a	n/a	n/a	n/a	"5108"	"enter"	n/a	"NULL"	"NULL"	"NULL"	"<p><b>Part 2/6</b></p><p>In this part, two red lines will appear side by side.</p><p>Your task is to tell <b>which line is longer</b> in length, regardless of their orientation, as fast as you can, and without making errors.</p><p>Don't get distracted by the orientation of the lines!</p><p>Press <b>the LEFT or the RIGHT arrow</b> to indicate which <b>line is the longer one.</b></p><div style='float: center'><img src='materials/instructions/VerticalHorizontal_Demo.png' height='300'></img><p><img src='utils/answer/answer_leftright_keyboard.PNG' height='150'></img></p><p class='small'>In this example, the correct answer is the <b>LEFT arrow</b>.</p></div><p>Are you ready? <b>Press ENTER to start</b></p>"	n/a	n/a	n/a	n/a	n/a	n/a	n/a	n/a	n/a	n/a
n/a	"html-keyboard-response"	"184"	"325171"	"0.0-6.0-2.0-0.0"	"h67egb"	"600"	"1366"	"chrome"	"108.0.0"	"FALSE"	"Windows 10"	"60.85"	"150"	n/a	n/a	n/a	n/a	n/a	n/a	"fixation"	n/a	n/a	n/a	n/a	"NULL"	n/a	"NULL"	"NULL"	"NULL"	"<p style=\"color: black; font-size: 80px; padding-left: 16%; padding-right: 27%; padding-top: 9%; padding-bottom: 37%\">+</p>"	"1067"	n/a	n/a	n/a	n/a	n/a	n/a	n/a	n/a	n/a
n/a	"image-keyboard-response"	"185"	"327212"	"0.0-6.0-2.0-1.0"	"h67egb"	"600"	"1366"	"chrome"	"108.0.0"	"FALSE"	"Windows 10"	"60.85"	"150"	n/a	n/a	n/a	n/a	n/a	n/a	"Trial"	n/a	n/a	n/a	"2040"	"arrowright"	n/a	"NULL"	"NULL"	"NULL"	"stimuli/VerticalHorizontal_3.30000_-0.2250.png"	n/a	"VerticalHorizontal"	"arrowright"	"1591"	"TRUE"	"VerticalHorizontal"	"3.3000000000"	"-0.225000000"	"2"	"1"
n/a	"html-keyboard-response"	"186"	"328347"	"0.0-6.0-2.0-0.1"	"h67egb"	"600"	"1366"	"chrome"	"108.0.0"	"FALSE"	"Windows 10"	"60.85"	"150"	n/a	n/a	n/a	n/a	n/a	n/a	"fixation"	n/a	n/a	n/a	n/a	"NULL"	n/a	"NULL"	"NULL"	"NULL"	"<p style=\"color: black; font-size: 80px; padding-left: 21%; padding-right: 24%; padding-top: 39%; padding-bottom: 14%\">+</p>"	"1120"	n/a	n/a	n/a	n/a	n/a	n/a	n/a	n/a	n/a
n/a	"image-keyboard-response"	"187"	"329386"	"0.0-6.0-2.0-1.1"	"h67egb"	"600"	"1366"	"chrome"	"108.0.0"	"FALSE"	"Windows 10"	"60.85"	"150"	n/a	n/a	n/a	n/a	n/a	n/a	"Trial"	n/a	n/a	n/a	"1037"	"arrowright"	n/a	"NULL"	"NULL"	"NULL"	"stimuli/VerticalHorizontal_11.78571_-0.1096.png"	n/a	"VerticalHorizontal"	"arrowright"	"1135"	"TRUE"	"VerticalHorizontal"	"11.785710000"	"-0.109600000"	"2"	"2"
n/a	"html-keyboard-response"	"188"	"330556"	"0.0-6.0-2.0-0.2"	"h67egb"	"600"	"1366"	"chrome"	"108.0.0"	"FALSE"	"Windows 10"	"60.85"	"150"	n/a	n/a	n/a	n/a	n/a	n/a	"fixation"	n/a	n/a	n/a	n/a	"NULL"	n/a	"NULL"	"NULL"	"NULL"	"<p style=\"color: black; font-size: 80px; padding-left: 39%; padding-right: 31%; padding-top: 32%; padding-bottom: 2%\">+</p>"	"1154"	n/a	n/a	n/a	n/a	n/a	n/a	n/a	n/a	n/a
n/a	"image-keyboard-response"	"189"	"331165"	"0.0-6.0-2.0-1.2"	"h67egb"	"600"	"1366"	"chrome"	"108.0.0"	"FALSE"	"Windows 10"	"60.85"	"150"	n/a	n/a	n/a	n/a	n/a	n/a	"Trial"	n/a	n/a	n/a	"606"	"arrowleft"	n/a	"NULL"	"NULL"	"NULL"	"stimuli/VerticalHorizontal_-3.3000_0.10960.png"	n/a	"VerticalHorizontal"	"arrowleft"	"1170"	"TRUE"	"VerticalHorizontal"	"-3.300000000"	"0.1096000000"	"2"	"3"
n/a	"html-keyboard-response"	"190"	"332626"	"0.0-6.0-2.0-0.3"	"h67egb"	"600"	"1366"	"chrome"	"108.0.0"	"FALSE"	"Windows 10"	"60.85"	"150"	n/a	n/a	n/a	n/a	n/a	n/a	"fixation"	n/a	n/a	n/a	n/a	"NULL"	n/a	"NULL"	"NULL"	"NULL"	"<p style=\"color: black; font-size: 80px; padding-left: 30%; padding-right: 8%; padding-top: 30%; padding-bottom: 42%\">+</p>"	"1454"	n/a	n/a	n/a	n/a	n/a	n/a	n/a	n/a	n/a
n/a	"image-keyboard-response"	"191"	"333411"	"0.0-6.0-2.0-1.3"	"h67egb"	"600"	"1366"	"chrome"	"108.0.0"	"FALSE"	"Windows 10"	"60.85"	"150"	n/a	n/a	n/a	n/a	n/a	n/a	"Trial"	n/a	n/a	n/a	"783"	"arrowleft"	n/a	"NULL"	"NULL"	"NULL"	"stimuli/VerticalHorizontal_-11.78571_-0.0673.png"	n/a	"VerticalHorizontal"	"arrowright"	"1461"	"FALSE"	"VerticalHorizontal"	"-11.78571000"	"-0.067300000"	"2"	"4"
n/a	"html-keyboard-response"	"192"	"334652"	"0.0-6.0-2.0-0.4"	"h67egb"	"600"	"1366"	"chrome"	"108.0.0"	"FALSE"	"Windows 10"	"60.85"	"150"	n/a	n/a	n/a	n/a	n/a	n/a	"fixation"	n/a	n/a	n/a	n/a	"NULL"	n/a	"NULL"	"NULL"	"NULL"	"<p style=\"color: black; font-size: 80px; padding-left: 42%; padding-right: 28%; padding-top: 49%; padding-bottom: 41%\">+</p>"	"1226"	n/a	n/a	n/a	n/a	n/a	n/a	n/a	n/a	n/a
n/a	"image-keyboard-response"	"193"	"335363"	"0.0-6.0-2.0-1.4"	"h67egb"	"600"	"1366"	"chrome"	"108.0.0"	"FALSE"	"Windows 10"	"60.85"	"150"	n/a	n/a	n/a	n/a	n/a	n/a	"Trial"	n/a	n/a	n/a	"708"	"arrowleft"	n/a	"NULL"	"NULL"	"NULL"	"stimuli/VerticalHorizontal_28.75714_0.10960.png"	n/a	"VerticalHorizontal"	"arrowleft"	"1241"	"TRUE"	"VerticalHorizontal"	"28.757140000"	"0.1096000000"	"2"	"5"
n/a	"html-keyboard-response"	"194"	"336412"	"0.0-6.0-2.0-0.5"	"h67egb"	"600"	"1366"	"chrome"	"108.0.0"	"FALSE"	"Windows 10"	"60.85"	"150"	n/a	n/a	n/a	n/a	n/a	n/a	"fixation"	n/a	n/a	n/a	n/a	"NULL"	n/a	"NULL"	"NULL"	"NULL"	"<p style=\"color: black; font-size: 80px; padding-left: 25%; padding-right: 46%; padding-top: 13%; padding-bottom: 31%\">+</p>"	"1036"	n/a	n/a	n/a	n/a	n/a	n/a	n/a	n/a	n/a
n/a	"image-keyboard-response"	"195"	"337233"	"0.0-6.0-2.0-1.5"	"h67egb"	"600"	"1366"	"chrome"	"108.0.0"	"FALSE"	"Windows 10"	"60.85"	"150"	n/a	n/a	n/a	n/a	n/a	n/a	"Trial"	n/a	n/a	n/a	"820"	"arrowright"	n/a	"NULL"	"NULL"	"NULL"	"stimuli/VerticalHorizontal_-3.3000_-0.1096.png"	n/a	"VerticalHorizontal"	"arrowright"	"1049"	"TRUE"	"VerticalHorizontal"	"-3.300000000"	"-0.109600000"	"2"	"6"
n/a	"html-keyboard-response"	"196"	"338626"	"0.0-6.0-2.0-0.6"	"h67egb"	"600"	"1366"	"chrome"	"108.0.0"	"FALSE"	"Windows 10"	"60.85"	"150"	n/a	n/a	n/a	n/a	n/a	n/a	"fixation"	n/a	n/a	n/a	n/a	"NULL"	n/a	"NULL"	"NULL"	"NULL"	"<p style=\"color: black; font-size: 80px; padding-left: 40%; padding-right: 45%; padding-top: 30%; padding-bottom: 46%\">+</p>"	"1384"	n/a	n/a	n/a	n/a	n/a	n/a	n/a	n/a	n/a
n/a	"image-keyboard-response"	"197"	"339671"	"0.0-6.0-2.0-1.6"	"h67egb"	"600"	"1366"	"chrome"	"108.0.0"	"FALSE"	"Windows 10"	"60.85"	"150"	n/a	n/a	n/a	n/a	n/a	n/a	"Trial"	n/a	n/a	n/a	"1032"	"arrowright"	n/a	"NULL"	"NULL"	"NULL"	"stimuli/VerticalHorizontal_3.30000_-0.1096.png"	n/a	"VerticalHorizontal"	"arrowright"	"1393"	"TRUE"	"VerticalHorizontal"	"3.3000000000"	"-0.109600000"	"2"	"7"
n/a	"html-keyboard-response"	"198"	"341144"	"0.0-6.0-2.0-0.7"	"h67egb"	"600"	"1366"	"chrome"	"108.0.0"	"FALSE"	"Windows 10"	"60.85"	"150"	n/a	n/a	n/a	n/a	n/a	n/a	"fixation"	n/a	n/a	n/a	n/a	"NULL"	n/a	"NULL"	"NULL"	"NULL"	"<p style=\"color: black; font-size: 80px; padding-left: 30%; padding-right: 2%; padding-top: 44%; padding-bottom: 26%\">+</p>"	"1460"	n/a	n/a	n/a	n/a	n/a	n/a	n/a	n/a	n/a
n/a	"image-keyboard-response"	"199"	"341632"	"0.0-6.0-2.0-1.7"	"h67egb"	"600"	"1366"	"chrome"	"108.0.0"	"FALSE"	"Windows 10"	"60.85"	"150"	n/a	n/a	n/a	n/a	n/a	n/a	"Trial"	n/a	n/a	n/a	"486"	"arrowleft"	n/a	"NULL"	"NULL"	"NULL"	"stimuli/VerticalHorizontal_3.30000_0.10960.png"	n/a	"VerticalHorizontal"	"arrowleft"	"1473"	"TRUE"	"VerticalHorizontal"	"3.3000000000"	"0.1096000000"	"2"	"8"
n/a	"html-keyboard-response"	"200"	"342945"	"0.0-6.0-2.0-0.8"	"h67egb"	"600"	"1366"	"chrome"	"108.0.0"	"FALSE"	"Windows 10"	"60.85"	"150"	n/a	n/a	n/a	n/a	n/a	n/a	"fixation"	n/a	n/a	n/a	n/a	"NULL"	n/a	"NULL"	"NULL"	"NULL"	"<p style=\"color: black; font-size: 80px; padding-left: 14%; padding-right: 12%; padding-top: 11%; padding-bottom: 14%\">+</p>"	"1300"	n/a	n/a	n/a	n/a	n/a	n/a	n/a	n/a	n/a
n/a	"image-keyboard-response"	"201"	"343832"	"0.0-6.0-2.0-1.8"	"h67egb"	"600"	"1366"	"chrome"	"108.0.0"	"FALSE"	"Windows 10"	"60.85"	"150"	n/a	n/a	n/a	n/a	n/a	n/a	"Trial"	n/a	n/a	n/a	"886"	"arrowright"	n/a	"NULL"	"NULL"	"NULL"	"stimuli/VerticalHorizontal_-11.78571_-0.1096.png"	n/a	"VerticalHorizontal"	"arrowright"	"1313"	"TRUE"	"VerticalHorizontal"	"-11.78571000"	"-0.109600000"	"2"	"9"
n/a	"html-keyboard-response"	"202"	"345275"	"0.0-6.0-2.0-0.9"	"h67egb"	"600"	"1366"	"chrome"	"108.0.0"	"FALSE"	"Windows 10"	"60.85"	"150"	n/a	n/a	n/a	n/a	n/a	n/a	"fixation"	n/a	n/a	n/a	n/a	"NULL"	n/a	"NULL"	"NULL"	"NULL"	"<p style=\"color: black; font-size: 80px; padding-left: 31%; padding-right: 21%; padding-top: 1%; padding-bottom: 2%\">+</p>"	"1436"	n/a	n/a	n/a	n/a	n/a	n/a	n/a	n/a	n/a
n/a	"image-keyboard-response"	"203"	"345734"	"0.0-6.0-2.0-1.9"	"h67egb"	"600"	"1366"	"chrome"	"108.0.0"	"FALSE"	"Windows 10"	"60.85"	"150"	n/a	n/a	n/a	n/a	n/a	n/a	"Trial"	n/a	n/a	n/a	"458"	"arrowleft"	n/a	"NULL"	"NULL"	"NULL"	"stimuli/VerticalHorizontal_-3.3000_0.22500.png"	n/a	"VerticalHorizontal"	"arrowleft"	"1443"	"TRUE"	"VerticalHorizontal"	"-3.300000000"	"0.2250000000"	"2"	"10"
n/a	"html-keyboard-response"	"204"	"347061"	"0.0-6.0-2.0-0.10"	"h67egb"	"600"	"1366"	"chrome"	"108.0.0"	"FALSE"	"Windows 10"	"60.85"	"150"	n/a	n/a	n/a	n/a	n/a	n/a	"fixation"	n/a	n/a	n/a	n/a	"NULL"	n/a	"NULL"	"NULL"	"NULL"	"<p style=\"color: black; font-size: 80px; padding-left: 7%; padding-right: 26%; padding-top: 41%; padding-bottom: 15%\">+</p>"	"1310"	n/a	n/a	n/a	n/a	n/a	n/a	n/a	n/a	n/a
n/a	"image-keyboard-response"	"205"	"347877"	"0.0-6.0-2.0-1.10"	"h67egb"	"600"	"1366"	"chrome"	"108.0.0"	"FALSE"	"Windows 10"	"60.85"	"150"	n/a	n/a	n/a	n/a	n/a	n/a	"Trial"	n/a	n/a	n/a	"813"	"arrowleft"	n/a	"NULL"	"NULL"	"NULL"	"stimuli/VerticalHorizontal_11.78571_0.06730.png"	n/a	"VerticalHorizontal"	"arrowleft"	"1327"	"TRUE"	"VerticalHorizontal"	"11.785710000"	"0.0673000000"	"2"	"11"
n/a	"html-keyboard-response"	"206"	"349330"	"0.0-6.0-2.0-0.11"	"h67egb"	"600"	"1366"	"chrome"	"108.0.0"	"FALSE"	"Windows 10"	"60.85"	"150"	n/a	n/a	n/a	n/a	n/a	n/a	"fixation"	n/a	n/a	n/a	n/a	"NULL"	n/a	"NULL"	"NULL"	"NULL"	"<p style=\"color: black; font-size: 80px; padding-left: 4%; padding-right: 46%; padding-top: 1%; padding-bottom: 25%\">+</p>"	"1443"	n/a	n/a	n/a	n/a	n/a	n/a	n/a	n/a	n/a
n/a	"image-keyboard-response"	"207"	"349931"	"0.0-6.0-2.0-1.11"	"h67egb"	"600"	"1366"	"chrome"	"108.0.0"	"FALSE"	"Windows 10"	"60.85"	"150"	n/a	n/a	n/a	n/a	n/a	n/a	"Trial"	n/a	n/a	n/a	"600"	"arrowleft"	n/a	"NULL"	"NULL"	"NULL"	"stimuli/VerticalHorizontal_20.27143_0.22500.png"	n/a	"VerticalHorizontal"	"arrowleft"	"1453"	"TRUE"	"VerticalHorizontal"	"20.271430000"	"0.2250000000"	"2"	"12"
n/a	"html-keyboard-response"	"208"	"351001"	"0.0-6.0-2.0-0.12"	"h67egb"	"600"	"1366"	"chrome"	"108.0.0"	"FALSE"	"Windows 10"	"60.85"	"150"	n/a	n/a	n/a	n/a	n/a	n/a	"fixation"	n/a	n/a	n/a	n/a	"NULL"	n/a	"NULL"	"NULL"	"NULL"	"<p style=\"color: black; font-size: 80px; padding-left: 17%; padding-right: 39%; padding-top: 11%; padding-bottom: 29%\">+</p>"	"1050"	n/a	n/a	n/a	n/a	n/a	n/a	n/a	n/a	n/a
n/a	"image-keyboard-response"	"209"	"351592"	"0.0-6.0-2.0-1.12"	"h67egb"	"600"	"1366"	"chrome"	"108.0.0"	"FALSE"	"Windows 10"	"60.85"	"150"	n/a	n/a	n/a	n/a	n/a	n/a	"Trial"	n/a	n/a	n/a	"589"	"arrowright"	n/a	"NULL"	"NULL"	"NULL"	"stimuli/VerticalHorizontal_-11.78571_-0.2250.png"	n/a	"VerticalHorizontal"	"arrowright"	"1070"	"TRUE"	"VerticalHorizontal"	"-11.78571000"	"-0.225000000"	"2"	"13"
n/a	"html-keyboard-response"	"210"	"352703"	"0.0-6.0-2.0-0.13"	"h67egb"	"600"	"1366"	"chrome"	"108.0.0"	"FALSE"	"Windows 10"	"60.85"	"150"	n/a	n/a	n/a	n/a	n/a	n/a	"fixation"	n/a	n/a	n/a	n/a	"NULL"	n/a	"NULL"	"NULL"	"NULL"	"<p style=\"color: black; font-size: 80px; padding-left: 15%; padding-right: 5%; padding-top: 24%; padding-bottom: 5%\">+</p>"	"1099"	n/a	n/a	n/a	n/a	n/a	n/a	n/a	n/a	n/a
n/a	"image-keyboard-response"	"211"	"353418"	"0.0-6.0-2.0-1.13"	"h67egb"	"600"	"1366"	"chrome"	"108.0.0"	"FALSE"	"Windows 10"	"60.85"	"150"	n/a	n/a	n/a	n/a	n/a	n/a	"Trial"	n/a	n/a	n/a	"713"	"arrowright"	n/a	"NULL"	"NULL"	"NULL"	"stimuli/VerticalHorizontal_11.78571_-0.16217.png"	n/a	"VerticalHorizontal"	"arrowright"	"1111"	"TRUE"	"VerticalHorizontal"	"11.785710000"	"-0.162170000"	"2"	"14"
n/a	"html-keyboard-response"	"212"	"354469"	"0.0-6.0-2.0-0.14"	"h67egb"	"600"	"1366"	"chrome"	"108.0.0"	"FALSE"	"Windows 10"	"60.85"	"150"	n/a	n/a	n/a	n/a	n/a	n/a	"fixation"	n/a	n/a	n/a	n/a	"NULL"	n/a	"NULL"	"NULL"	"NULL"	"<p style=\"color: black; font-size: 80px; padding-left: 37%; padding-right: 16%; padding-top: 7%; padding-bottom: 10%\">+</p>"	"1036"	n/a	n/a	n/a	n/a	n/a	n/a	n/a	n/a	n/a
n/a	"image-keyboard-response"	"213"	"355514"	"0.0-6.0-2.0-1.14"	"h67egb"	"600"	"1366"	"chrome"	"108.0.0"	"FALSE"	"Windows 10"	"60.85"	"150"	n/a	n/a	n/a	n/a	n/a	n/a	"Trial"	n/a	n/a	n/a	"1044"	"arrowright"	n/a	"NULL"	"NULL"	"NULL"	"stimuli/VerticalHorizontal_11.78571_-0.0673.png"	n/a	"VerticalHorizontal"	"arrowright"	"1051"	"TRUE"	"VerticalHorizontal"	"11.785710000"	"-0.067300000"	"2"	"15"
n/a	"html-keyboard-response"	"214"	"356590"	"0.0-6.0-2.0-0.15"	"h67egb"	"600"	"1366"	"chrome"	"108.0.0"	"FALSE"	"Windows 10"	"60.85"	"150"	n/a	n/a	n/a	n/a	n/a	n/a	"fixation"	n/a	n/a	n/a	n/a	"NULL"	n/a	"NULL"	"NULL"	"NULL"	"<p style=\"color: black; font-size: 80px; padding-left: 4%; padding-right: 21%; padding-top: 38%; padding-bottom: 38%\">+</p>"	"1065"	n/a	n/a	n/a	n/a	n/a	n/a	n/a	n/a	n/a
n/a	"image-keyboard-response"	"215"	"358134"	"0.0-6.0-2.0-1.15"	"h67egb"	"600"	"1366"	"chrome"	"108.0.0"	"FALSE"	"Windows 10"	"60.85"	"150"	n/a	n/a	n/a	n/a	n/a	n/a	"Trial"	n/a	n/a	n/a	"1542"	"arrowleft"	n/a	"NULL"	"NULL"	"NULL"	"stimuli/VerticalHorizontal_20.27143_-0.16217.png"	n/a	"VerticalHorizontal"	"arrowright"	"1076"	"FALSE"	"VerticalHorizontal"	"20.271430000"	"-0.162170000"	"2"	"16"
n/a	"html-keyboard-response"	"216"	"359557"	"0.0-6.0-2.0-0.16"	"h67egb"	"600"	"1366"	"chrome"	"108.0.0"	"FALSE"	"Windows 10"	"60.85"	"150"	n/a	n/a	n/a	n/a	n/a	n/a	"fixation"	n/a	n/a	n/a	n/a	"NULL"	n/a	"NULL"	"NULL"	"NULL"	"<p style=\"color: black; font-size: 80px; padding-left: 42%; padding-right: 16%; padding-top: 19%; padding-bottom: 42%\">+</p>"	"1414"	n/a	n/a	n/a	n/a	n/a	n/a	n/a	n/a	n/a
n/a	"image-keyboard-response"	"217"	"360174"	"0.0-6.0-2.0-1.16"	"h67egb"	"600"	"1366"	"chrome"	"108.0.0"	"FALSE"	"Windows 10"	"60.85"	"150"	n/a	n/a	n/a	n/a	n/a	n/a	"Trial"	n/a	n/a	n/a	"615"	"arrowleft"	n/a	"NULL"	"NULL"	"NULL"	"stimuli/VerticalHorizontal_-3.3000_0.16217.png"	n/a	"VerticalHorizontal"	"arrowleft"	"1423"	"TRUE"	"VerticalHorizontal"	"-3.300000000"	"0.1621700000"	"2"	"17"
n/a	"html-keyboard-response"	"218"	"361211"	"0.0-6.0-2.0-0.17"	"h67egb"	"600"	"1366"	"chrome"	"108.0.0"	"FALSE"	"Windows 10"	"60.85"	"150"	n/a	n/a	n/a	n/a	n/a	n/a	"fixation"	n/a	n/a	n/a	n/a	"NULL"	n/a	"NULL"	"NULL"	"NULL"	"<p style=\"color: black; font-size: 80px; padding-left: 19%; padding-right: 19%; padding-top: 17%; padding-bottom: 45%\">+</p>"	"1018"	n/a	n/a	n/a	n/a	n/a	n/a	n/a	n/a	n/a
n/a	"image-keyboard-response"	"219"	"361744"	"0.0-6.0-2.0-1.17"	"h67egb"	"600"	"1366"	"chrome"	"108.0.0"	"FALSE"	"Windows 10"	"60.85"	"150"	n/a	n/a	n/a	n/a	n/a	n/a	"Trial"	n/a	n/a	n/a	"532"	"arrowright"	n/a	"NULL"	"NULL"	"NULL"	"stimuli/VerticalHorizontal_20.27143_-0.1096.png"	n/a	"VerticalHorizontal"	"arrowright"	"1037"	"TRUE"	"VerticalHorizontal"	"20.271430000"	"-0.109600000"	"2"	"18"
n/a	"html-keyboard-response"	"220"	"363057"	"0.0-6.0-2.0-0.18"	"h67egb"	"600"	"1366"	"chrome"	"108.0.0"	"FALSE"	"Windows 10"	"60.85"	"150"	n/a	n/a	n/a	n/a	n/a	n/a	"fixation"	n/a	n/a	n/a	n/a	"NULL"	n/a	"NULL"	"NULL"	"NULL"	"<p style=\"color: black; font-size: 80px; padding-left: 2%; padding-right: 46%; padding-top: 6%; padding-bottom: 34%\">+</p>"	"1309"	n/a	n/a	n/a	n/a	n/a	n/a	n/a	n/a	n/a
n/a	"image-keyboard-response"	"221"	"363665"	"0.0-6.0-2.0-1.18"	"h67egb"	"600"	"1366"	"chrome"	"108.0.0"	"FALSE"	"Windows 10"	"60.85"	"150"	n/a	n/a	n/a	n/a	n/a	n/a	"Trial"	n/a	n/a	n/a	"606"	"arrowleft"	n/a	"NULL"	"NULL"	"NULL"	"stimuli/VerticalHorizontal_-11.78571_0.10960.png"	n/a	"VerticalHorizontal"	"arrowleft"	"1313"	"TRUE"	"VerticalHorizontal"	"-11.78571000"	"0.1096000000"	"2"	"19"
n/a	"html-keyboard-response"	"222"	"364813"	"0.0-6.0-2.0-0.19"	"h67egb"	"600"	"1366"	"chrome"	"108.0.0"	"FALSE"	"Windows 10"	"60.85"	"150"	n/a	n/a	n/a	n/a	n/a	n/a	"fixation"	n/a	n/a	n/a	n/a	"NULL"	n/a	"NULL"	"NULL"	"NULL"	"<p style=\"color: black; font-size: 80px; padding-left: 47%; padding-right: 12%; padding-top: 20%; padding-bottom: 47%\">+</p>"	"1135"	n/a	n/a	n/a	n/a	n/a	n/a	n/a	n/a	n/a
n/a	"image-keyboard-response"	"223"	"365957"	"0.0-6.0-2.0-1.19"	"h67egb"	"600"	"1366"	"chrome"	"108.0.0"	"FALSE"	"Windows 10"	"60.85"	"150"	n/a	n/a	n/a	n/a	n/a	n/a	"Trial"	n/a	n/a	n/a	"1144"	"arrowright"	n/a	"NULL"	"NULL"	"NULL"	"stimuli/VerticalHorizontal_-3.3000_0.06730.png"	n/a	"VerticalHorizontal"	"arrowleft"	"1148"	"FALSE"	"VerticalHorizontal"	"-3.300000000"	"0.0673000000"	"2"	"20"
n/a	"html-keyboard-response"	"224"	"367415"	"0.0-6.0-2.0-0.20"	"h67egb"	"600"	"1366"	"chrome"	"108.0.0"	"FALSE"	"Windows 10"	"60.85"	"150"	n/a	n/a	n/a	n/a	n/a	n/a	"fixation"	n/a	n/a	n/a	n/a	"NULL"	n/a	"NULL"	"NULL"	"NULL"	"<p style=\"color: black; font-size: 80px; padding-left: 21%; padding-right: 17%; padding-top: 31%; padding-bottom: 20%\">+</p>"	"1446"	n/a	n/a	n/a	n/a	n/a	n/a	n/a	n/a	n/a
n/a	"image-keyboard-response"	"225"	"367999"	"0.0-6.0-2.0-1.20"	"h67egb"	"600"	"1366"	"chrome"	"108.0.0"	"FALSE"	"Windows 10"	"60.85"	"150"	n/a	n/a	n/a	n/a	n/a	n/a	"Trial"	n/a	n/a	n/a	"582"	"arrowright"	n/a	"NULL"	"NULL"	"NULL"	"stimuli/VerticalHorizontal_-28.75714_-0.1096.png"	n/a	"VerticalHorizontal"	"arrowright"	"1458"	"TRUE"	"VerticalHorizontal"	"-28.75714000"	"-0.109600000"	"2"	"21"
n/a	"html-keyboard-response"	"226"	"369168"	"0.0-6.0-2.0-0.21"	"h67egb"	"600"	"1366"	"chrome"	"108.0.0"	"FALSE"	"Windows 10"	"60.85"	"150"	n/a	n/a	n/a	n/a	n/a	n/a	"fixation"	n/a	n/a	n/a	n/a	"NULL"	n/a	"NULL"	"NULL"	"NULL"	"<p style=\"color: black; font-size: 80px; padding-left: 41%; padding-right: 37%; padding-top: 36%; padding-bottom: 34%\">+</p>"	"1164"	n/a	n/a	n/a	n/a	n/a	n/a	n/a	n/a	n/a
n/a	"image-keyboard-response"	"227"	"369704"	"0.0-6.0-2.0-1.21"	"h67egb"	"600"	"1366"	"chrome"	"108.0.0"	"FALSE"	"Windows 10"	"60.85"	"150"	n/a	n/a	n/a	n/a	n/a	n/a	"Trial"	n/a	n/a	n/a	"534"	"arrowright"	n/a	"NULL"	"NULL"	"NULL"	"stimuli/VerticalHorizontal_-28.75714_-0.2250.png"	n/a	"VerticalHorizontal"	"arrowright"	"1169"	"TRUE"	"VerticalHorizontal"	"-28.75714000"	"-0.225000000"	"2"	"22"
n/a	"html-keyboard-response"	"228"	"370904"	"0.0-6.0-2.0-0.22"	"h67egb"	"600"	"1366"	"chrome"	"108.0.0"	"FALSE"	"Windows 10"	"60.85"	"150"	n/a	n/a	n/a	n/a	n/a	n/a	"fixation"	n/a	n/a	n/a	n/a	"NULL"	n/a	"NULL"	"NULL"	"NULL"	"<p style=\"color: black; font-size: 80px; padding-left: 39%; padding-right: 21%; padding-top: 3%; padding-bottom: 12%\">+</p>"	"1194"	n/a	n/a	n/a	n/a	n/a	n/a	n/a	n/a	n/a
n/a	"image-keyboard-response"	"229"	"371412"	"0.0-6.0-2.0-1.22"	"h67egb"	"600"	"1366"	"chrome"	"108.0.0"	"FALSE"	"Windows 10"	"60.85"	"150"	n/a	n/a	n/a	n/a	n/a	n/a	"Trial"	n/a	n/a	n/a	"506"	"arrowright"	n/a	"NULL"	"NULL"	"NULL"	"stimuli/VerticalHorizontal_-28.75714_-0.0673.png"	n/a	"VerticalHorizontal"	"arrowright"	"1200"	"TRUE"	"VerticalHorizontal"	"-28.75714000"	"-0.067300000"	"2"	"23"
n/a	"html-keyboard-response"	"230"	"372687"	"0.0-6.0-2.0-0.23"	"h67egb"	"600"	"1366"	"chrome"	"108.0.0"	"FALSE"	"Windows 10"	"60.85"	"150"	n/a	n/a	n/a	n/a	n/a	n/a	"fixation"	n/a	n/a	n/a	n/a	"NULL"	n/a	"NULL"	"NULL"	"NULL"	"<p style=\"color: black; font-size: 80px; padding-left: 15%; padding-right: 41%; padding-top: 29%; padding-bottom: 36%\">+</p>"	"1273"	n/a	n/a	n/a	n/a	n/a	n/a	n/a	n/a	n/a
n/a	"image-keyboard-response"	"231"	"373510"	"0.0-6.0-2.0-1.23"	"h67egb"	"600"	"1366"	"chrome"	"108.0.0"	"FALSE"	"Windows 10"	"60.85"	"150"	n/a	n/a	n/a	n/a	n/a	n/a	"Trial"	n/a	n/a	n/a	"822"	"arrowleft"	n/a	"NULL"	"NULL"	"NULL"	"stimuli/VerticalHorizontal_3.30000_0.16217.png"	n/a	"VerticalHorizontal"	"arrowleft"	"1275"	"TRUE"	"VerticalHorizontal"	"3.3000000000"	"0.1621700000"	"2"	"24"
n/a	"html-keyboard-response"	"232"	"374885"	"0.0-6.0-2.0-0.24"	"h67egb"	"600"	"1366"	"chrome"	"108.0.0"	"FALSE"	"Windows 10"	"60.85"	"150"	n/a	n/a	n/a	n/a	n/a	n/a	"fixation"	n/a	n/a	n/a	n/a	"NULL"	n/a	"NULL"	"NULL"	"NULL"	"<p style=\"color: black; font-size: 80px; padding-left: 28%; padding-right: 17%; padding-top: 6%; padding-bottom: 34%\">+</p>"	"1359"	n/a	n/a	n/a	n/a	n/a	n/a	n/a	n/a	n/a
n/a	"image-keyboard-response"	"233"	"375674"	"0.0-6.0-2.0-1.24"	"h67egb"	"600"	"1366"	"chrome"	"108.0.0"	"FALSE"	"Windows 10"	"60.85"	"150"	n/a	n/a	n/a	n/a	n/a	n/a	"Trial"	n/a	n/a	n/a	"787"	"arrowleft"	n/a	"NULL"	"NULL"	"NULL"	"stimuli/VerticalHorizontal_-11.78571_0.06730.png"	n/a	"VerticalHorizontal"	"arrowleft"	"1375"	"TRUE"	"VerticalHorizontal"	"-11.78571000"	"0.0673000000"	"2"	"25"
n/a	"html-keyboard-response"	"234"	"376824"	"0.0-6.0-2.0-0.25"	"h67egb"	"600"	"1366"	"chrome"	"108.0.0"	"FALSE"	"Windows 10"	"60.85"	"150"	n/a	n/a	n/a	n/a	n/a	n/a	"fixation"	n/a	n/a	n/a	n/a	"NULL"	n/a	"NULL"	"NULL"	"NULL"	"<p style=\"color: black; font-size: 80px; padding-left: 7%; padding-right: 29%; padding-top: 8%; padding-bottom: 48%\">+</p>"	"1143"	n/a	n/a	n/a	n/a	n/a	n/a	n/a	n/a	n/a
n/a	"image-keyboard-response"	"235"	"377297"	"0.0-6.0-2.0-1.25"	"h67egb"	"600"	"1366"	"chrome"	"108.0.0"	"FALSE"	"Windows 10"	"60.85"	"150"	n/a	n/a	n/a	n/a	n/a	n/a	"Trial"	n/a	n/a	n/a	"472"	"arrowright"	n/a	"NULL"	"NULL"	"NULL"	"stimuli/VerticalHorizontal_-3.3000_-0.16217.png"	n/a	"VerticalHorizontal"	"arrowright"	"1150"	"TRUE"	"VerticalHorizontal"	"-3.300000000"	"-0.162170000"	"2"	"26"
n/a	"html-keyboard-response"	"236"	"378797"	"0.0-6.0-2.0-0.26"	"h67egb"	"600"	"1366"	"chrome"	"108.0.0"	"FALSE"	"Windows 10"	"60.85"	"150"	n/a	n/a	n/a	n/a	n/a	n/a	"fixation"	n/a	n/a	n/a	n/a	"NULL"	n/a	"NULL"	"NULL"	"NULL"	"<p style=\"color: black; font-size: 80px; padding-left: 32%; padding-right: 41%; padding-top: 22%; padding-bottom: 41%\">+</p>"	"1489"	n/a	n/a	n/a	n/a	n/a	n/a	n/a	n/a	n/a
n/a	"image-keyboard-response"	"237"	"379218"	"0.0-6.0-2.0-1.26"	"h67egb"	"600"	"1366"	"chrome"	"108.0.0"	"FALSE"	"Windows 10"	"60.85"	"150"	n/a	n/a	n/a	n/a	n/a	n/a	"Trial"	n/a	n/a	n/a	"420"	"arrowright"	n/a	"NULL"	"NULL"	"NULL"	"stimuli/VerticalHorizontal_-20.27143_-0.0673.png"	n/a	"VerticalHorizontal"	"arrowright"	"1500"	"TRUE"	"VerticalHorizontal"	"-20.27143000"	"-0.067300000"	"2"	"27"
n/a	"html-keyboard-response"	"238"	"380263"	"0.0-6.0-2.0-0.27"	"h67egb"	"600"	"1366"	"chrome"	"108.0.0"	"FALSE"	"Windows 10"	"60.85"	"150"	n/a	n/a	n/a	n/a	n/a	n/a	"fixation"	n/a	n/a	n/a	n/a	"NULL"	n/a	"NULL"	"NULL"	"NULL"	"<p style=\"color: black; font-size: 80px; padding-left: 2%; padding-right: 25%; padding-top: 13%; padding-bottom: 19%\">+</p>"	"1040"	n/a	n/a	n/a	n/a	n/a	n/a	n/a	n/a	n/a
n/a	"image-keyboard-response"	"239"	"380798"	"0.0-6.0-2.0-1.27"	"h67egb"	"600"	"1366"	"chrome"	"108.0.0"	"FALSE"	"Windows 10"	"60.85"	"150"	n/a	n/a	n/a	n/a	n/a	n/a	"Trial"	n/a	n/a	n/a	"532"	"arrowleft"	n/a	"NULL"	"NULL"	"NULL"	"stimuli/VerticalHorizontal_28.75714_-0.2250.png"	n/a	"VerticalHorizontal"	"arrowright"	"1045"	"FALSE"	"VerticalHorizontal"	"28.757140000"	"-0.225000000"	"2"	"28"
n/a	"html-keyboard-response"	"240"	"381888"	"0.0-6.0-2.0-0.28"	"h67egb"	"600"	"1366"	"chrome"	"108.0.0"	"FALSE"	"Windows 10"	"60.85"	"150"	n/a	n/a	n/a	n/a	n/a	n/a	"fixation"	n/a	n/a	n/a	n/a	"NULL"	n/a	"NULL"	"NULL"	"NULL"	"<p style=\"color: black; font-size: 80px; padding-left: 4%; padding-right: 5%; padding-top: 22%; padding-bottom: 30%\">+</p>"	"1077"	n/a	n/a	n/a	n/a	n/a	n/a	n/a	n/a	n/a
n/a	"image-keyboard-response"	"241"	"382423"	"0.0-6.0-2.0-1.28"	"h67egb"	"600"	"1366"	"chrome"	"108.0.0"	"FALSE"	"Windows 10"	"60.85"	"150"	n/a	n/a	n/a	n/a	n/a	n/a	"Trial"	n/a	n/a	n/a	"534"	"arrowleft"	n/a	"NULL"	"NULL"	"NULL"	"stimuli/VerticalHorizontal_28.75714_0.22500.png"	n/a	"VerticalHorizontal"	"arrowleft"	"1090"	"TRUE"	"VerticalHorizontal"	"28.757140000"	"0.2250000000"	"2"	"29"
n/a	"html-keyboard-response"	"242"	"383745"	"0.0-6.0-2.0-0.29"	"h67egb"	"600"	"1366"	"chrome"	"108.0.0"	"FALSE"	"Windows 10"	"60.85"	"150"	n/a	n/a	n/a	n/a	n/a	n/a	"fixation"	n/a	n/a	n/a	n/a	"NULL"	n/a	"NULL"	"NULL"	"NULL"	"<p style=\"color: black; font-size: 80px; padding-left: 2%; padding-right: 10%; padding-top: 47%; padding-bottom: 31%\">+</p>"	"1315"	n/a	n/a	n/a	n/a	n/a	n/a	n/a	n/a	n/a
n/a	"image-keyboard-response"	"243"	"384139"	"0.0-6.0-2.0-1.29"	"h67egb"	"600"	"1366"	"chrome"	"108.0.0"	"FALSE"	"Windows 10"	"60.85"	"150"	n/a	n/a	n/a	n/a	n/a	n/a	"Trial"	n/a	n/a	n/a	"393"	"arrowright"	n/a	"NULL"	"NULL"	"NULL"	"stimuli/VerticalHorizontal_-20.27143_-0.16217.png"	n/a	"VerticalHorizontal"	"arrowright"	"1322"	"TRUE"	"VerticalHorizontal"	"-20.27143000"	"-0.162170000"	"2"	"30"
n/a	"html-keyboard-response"	"244"	"385275"	"0.0-6.0-2.0-0.30"	"h67egb"	"600"	"1366"	"chrome"	"108.0.0"	"FALSE"	"Windows 10"	"60.85"	"150"	n/a	n/a	n/a	n/a	n/a	n/a	"fixation"	n/a	n/a	n/a	n/a	"NULL"	n/a	"NULL"	"NULL"	"NULL"	"<p style=\"color: black; font-size: 80px; padding-left: 1%; padding-right: 12%; padding-top: 39%; padding-bottom: 0%\">+</p>"	"1119"	n/a	n/a	n/a	n/a	n/a	n/a	n/a	n/a	n/a
n/a	"image-keyboard-response"	"245"	"385884"	"0.0-6.0-2.0-1.30"	"h67egb"	"600"	"1366"	"chrome"	"108.0.0"	"FALSE"	"Windows 10"	"60.85"	"150"	n/a	n/a	n/a	n/a	n/a	n/a	"Trial"	n/a	n/a	n/a	"607"	"arrowleft"	n/a	"NULL"	"NULL"	"NULL"	"stimuli/VerticalHorizontal_28.75714_-0.16217.png"	n/a	"VerticalHorizontal"	"arrowright"	"1136"	"FALSE"	"VerticalHorizontal"	"28.757140000"	"-0.162170000"	"2"	"31"
n/a	"html-keyboard-response"	"246"	"387169"	"0.0-6.0-2.0-0.31"	"h67egb"	"600"	"1366"	"chrome"	"108.0.0"	"FALSE"	"Windows 10"	"60.85"	"150"	n/a	n/a	n/a	n/a	n/a	n/a	"fixation"	n/a	n/a	n/a	n/a	"NULL"	n/a	"NULL"	"NULL"	"NULL"	"<p style=\"color: black; font-size: 80px; padding-left: 2%; padding-right: 33%; padding-top: 9%; padding-bottom: 30%\">+</p>"	"1276"	n/a	n/a	n/a	n/a	n/a	n/a	n/a	n/a	n/a
n/a	"image-keyboard-response"	"247"	"387583"	"0.0-6.0-2.0-1.31"	"h67egb"	"600"	"1366"	"chrome"	"108.0.0"	"FALSE"	"Windows 10"	"60.85"	"150"	n/a	n/a	n/a	n/a	n/a	n/a	"Trial"	n/a	n/a	n/a	"413"	"arrowright"	n/a	"NULL"	"NULL"	"NULL"	"stimuli/VerticalHorizontal_-20.27143_-0.1096.png"	n/a	"VerticalHorizontal"	"arrowright"	"1285"	"TRUE"	"VerticalHorizontal"	"-20.27143000"	"-0.109600000"	"2"	"32"
n/a	"html-keyboard-response"	"248"	"388997"	"0.0-6.0-2.0-0.32"	"h67egb"	"600"	"1366"	"chrome"	"108.0.0"	"FALSE"	"Windows 10"	"60.85"	"150"	n/a	n/a	n/a	n/a	n/a	n/a	"fixation"	n/a	n/a	n/a	n/a	"NULL"	n/a	"NULL"	"NULL"	"NULL"	"<p style=\"color: black; font-size: 80px; padding-left: 49%; padding-right: 40%; padding-top: 0%; padding-bottom: 20%\">+</p>"	"1394"	n/a	n/a	n/a	n/a	n/a	n/a	n/a	n/a	n/a
n/a	"image-keyboard-response"	"249"	"389519"	"0.0-6.0-2.0-1.32"	"h67egb"	"600"	"1366"	"chrome"	"108.0.0"	"FALSE"	"Windows 10"	"60.85"	"150"	n/a	n/a	n/a	n/a	n/a	n/a	"Trial"	n/a	n/a	n/a	"520"	"arrowleft"	n/a	"NULL"	"NULL"	"NULL"	"stimuli/VerticalHorizontal_3.30000_-0.0673.png"	n/a	"VerticalHorizontal"	"arrowright"	"1414"	"FALSE"	"VerticalHorizontal"	"3.3000000000"	"-0.067300000"	"2"	"33"
n/a	"html-keyboard-response"	"250"	"390996"	"0.0-6.0-2.0-0.33"	"h67egb"	"600"	"1366"	"chrome"	"108.0.0"	"FALSE"	"Windows 10"	"60.85"	"150"	n/a	n/a	n/a	n/a	n/a	n/a	"fixation"	n/a	n/a	n/a	n/a	"NULL"	n/a	"NULL"	"NULL"	"NULL"	"<p style=\"color: black; font-size: 80px; padding-left: 36%; padding-right: 2%; padding-top: 50%; padding-bottom: 12%\">+</p>"	"1470"	n/a	n/a	n/a	n/a	n/a	n/a	n/a	n/a	n/a
