"success"	"trial_type"	"trial_index"	"time_elapsed"	"internal_node_id"	"participant_id"	"screen_height"	"screen_width"	"browser"	"browser_version"	"mobile"	"os"	"vsync_rate"	"subject_id"	"width"	"height"	"webaudio"	"fullscreen"	"webcam"	"microphone"	"screen"	"version"	"date"	"time"	"rt"	"response"	"timeout"	"failed_images"	"failed_audio"	"failed_video"	"stimulus"	"trial_duration"	"block"	"correct_response"	"prestimulus_duration"	"correct"	"type"	"illusion_strength"	"illusion_difference"	"block_number"	"trial_number"
"TRUE"	"fullscreen"	"0"	"2024"	"0.0-0.0"	"an6dho"	"600"	"1366"	"chrome"	"109.0.0"	"FALSE"	"Windows 10"	"60.77"	"017"	n/a	n/a	n/a	n/a	n/a	n/a	n/a	n/a	n/a	n/a	n/a	"NULL"	n/a	"NULL"	"NULL"	"NULL"	n/a	n/a	n/a	n/a	n/a	n/a	n/a	n/a	n/a	n/a	n/a
n/a	"browser-check"	"1"	"3034"	"0.0-1.0"	"an6dho"	"600"	"1366"	"chrome"	"109.0.0"	"FALSE"	"Windows 10"	"60.77"	"017"	"1366"	"600"	"TRUE"	"TRUE"	"TRUE"	"TRUE"	"browser_info"	"1.0"	"15/02/2023"	"18:13:00"	n/a	"NULL"	n/a	"NULL"	"NULL"	"NULL"	n/a	n/a	n/a	n/a	n/a	n/a	n/a	n/a	n/a	n/a	n/a
n/a	"survey-text"	"2"	"6236"	"0.0-2.0"	"an6dho"	"600"	"1366"	"chrome"	"109.0.0"	"FALSE"	"Windows 10"	"60.77"	"017"	n/a	n/a	n/a	n/a	n/a	n/a	"subject_id"	n/a	n/a	n/a	"3195"	"list(subject_id = \"017\")"	n/a	"NULL"	"NULL"	"NULL"	n/a	n/a	n/a	n/a	n/a	n/a	n/a	n/a	n/a	n/a	n/a
"TRUE"	"preload"	"3"	"6251"	"0.0-3.0"	"an6dho"	"600"	"1366"	"chrome"	"109.0.0"	"FALSE"	"Windows 10"	"60.77"	"017"	n/a	n/a	n/a	n/a	n/a	n/a	n/a	n/a	n/a	n/a	n/a	"NULL"	"FALSE"	"list()"	"list()"	"list()"	n/a	n/a	n/a	n/a	n/a	n/a	n/a	n/a	n/a	n/a	n/a
n/a	"html-button-response"	"4"	"41466"	"0.0-4.0-0.0"	"an6dho"	"600"	"1366"	"chrome"	"109.0.0"	"FALSE"	"Windows 10"	"60.77"	"017"	n/a	n/a	n/a	n/a	n/a	n/a	"illusion_instructions"	n/a	n/a	n/a	"35213"	"0"	n/a	"NULL"	"NULL"	"NULL"	"<p><b>Illusion Game</b></p><p>In this game of speed and reflex, you will need to make <b>visual judgments</b> (for instance, which circle is the biggest, or which line is the longest), as fast and as correctly as possible, while <b>resisting different visual illusions</b>.</p><p>We are going to start with some examples of all the illusions you will encounter in the game.</p>"	n/a	n/a	n/a	n/a	n/a	n/a	n/a	n/a	n/a	n/a
"TRUE"	"preload"	"5"	"41495"	"0.0-4.0-1.0-0.0"	"an6dho"	"600"	"1366"	"chrome"	"109.0.0"	"FALSE"	"Windows 10"	"60.77"	"017"	n/a	n/a	n/a	n/a	n/a	n/a	n/a	n/a	n/a	n/a	n/a	"NULL"	"FALSE"	"list()"	"list()"	"list()"	n/a	n/a	n/a	n/a	n/a	n/a	n/a	n/a	n/a	n/a	n/a
n/a	"html-keyboard-response"	"6"	"139721"	"0.0-4.0-1.0-1.0"	"an6dho"	"600"	"1366"	"chrome"	"109.0.0"	"FALSE"	"Windows 10"	"60.77"	"017"	n/a	n/a	n/a	n/a	n/a	n/a	n/a	n/a	n/a	n/a	"98225"	"enter"	n/a	"NULL"	"NULL"	"NULL"	"<p><b>Practice</b></p><p>In this part, two red circles will appear side by side on the screen.</p><p>Your task is to select which <b>red circle is bigger</b> in size as fast as you can, without making errors.</p><p>Don't get distracted by the surrounding black circles around the red circles!</p><p>Press <b>the LEFT or the RIGHT arrow</b> to indicate which is the bigger <b>red circle.</b></p><div style='float: center'><img src='materials/instructions/Ebbinghaus_Demo.png' height='300'></img><p><img src='utils/answer/answer_leftright_keyboard.PNG' height='150'></img></p><p class='small'>In this example, the correct answer is the <b>LEFT arrow</b>.</p></div><p>Are you ready? <b>Press ENTER to start</b></p>"	n/a	n/a	n/a	n/a	n/a	n/a	n/a	n/a	n/a	n/a
n/a	"html-keyboard-response"	"7"	"141263"	"0.0-4.0-1.0-2.0-0.0"	"an6dho"	"600"	"1366"	"chrome"	"109.0.0"	"FALSE"	"Windows 10"	"60.77"	"017"	n/a	n/a	n/a	n/a	n/a	n/a	"fixation"	n/a	n/a	n/a	n/a	"NULL"	n/a	"NULL"	"NULL"	"NULL"	"<p style=\"color: black; font-size: 80px; padding-left: 38%; padding-right: 43%; padding-top: 32%; padding-bottom: 20%\">+</p>"	"1009"	n/a	n/a	n/a	n/a	n/a	n/a	n/a	n/a	n/a
n/a	"image-keyboard-response"	"8"	"144043"	"0.0-4.0-1.0-2.0-1.0"	"an6dho"	"600"	"1366"	"chrome"	"109.0.0"	"FALSE"	"Windows 10"	"60.77"	"017"	n/a	n/a	n/a	n/a	n/a	n/a	"Trial"	n/a	n/a	n/a	"2759"	"arrowleft"	n/a	"NULL"	"NULL"	"NULL"	"stimuli/Ebbinghaus_0000000_-1.4000.png"	n/a	"Ebbinghaus"	"arrowright"	"1542"	"FALSE"	"Ebbinghaus"	"000000000000"	"-1.400000000"	"1"	"1"
n/a	"html-keyboard-response"	"9"	"145451"	"0.0-4.0-1.0-2.0-0.1"	"an6dho"	"600"	"1366"	"chrome"	"109.0.0"	"FALSE"	"Windows 10"	"60.77"	"017"	n/a	n/a	n/a	n/a	n/a	n/a	"fixation"	n/a	n/a	n/a	n/a	"NULL"	n/a	"NULL"	"NULL"	"NULL"	"<p style=\"color: black; font-size: 80px; padding-left: 13%; padding-right: 41%; padding-top: 41%; padding-bottom: 32%\">+</p>"	"1395"	n/a	n/a	n/a	n/a	n/a	n/a	n/a	n/a	n/a
n/a	"image-keyboard-response"	"10"	"146977"	"0.0-4.0-1.0-2.0-1.1"	"an6dho"	"600"	"1366"	"chrome"	"109.0.0"	"FALSE"	"Windows 10"	"60.77"	"017"	n/a	n/a	n/a	n/a	n/a	n/a	"Trial"	n/a	n/a	n/a	"1524"	"arrowleft"	n/a	"NULL"	"NULL"	"NULL"	"stimuli/Ebbinghaus_0000000_1.40000.png"	n/a	"Ebbinghaus"	"arrowleft"	"1408"	"TRUE"	"Ebbinghaus"	"000000000000"	"1.4000000000"	"1"	"2"
n/a	"html-keyboard-response"	"11"	"148301"	"0.0-4.0-1.0-2.0-0.2"	"an6dho"	"600"	"1366"	"chrome"	"109.0.0"	"FALSE"	"Windows 10"	"60.77"	"017"	n/a	n/a	n/a	n/a	n/a	n/a	"fixation"	n/a	n/a	n/a	n/a	"NULL"	n/a	"NULL"	"NULL"	"NULL"	"<p style=\"color: black; font-size: 80px; padding-left: 50%; padding-right: 2%; padding-top: 42%; padding-bottom: 21%\">+</p>"	"1319"	n/a	n/a	n/a	n/a	n/a	n/a	n/a	n/a	n/a
n/a	"image-keyboard-response"	"12"	"149653"	"0.0-4.0-1.0-2.0-1.2"	"an6dho"	"600"	"1366"	"chrome"	"109.0.0"	"FALSE"	"Windows 10"	"60.77"	"017"	n/a	n/a	n/a	n/a	n/a	n/a	"Trial"	n/a	n/a	n/a	"1349"	"arrowright"	n/a	"NULL"	"NULL"	"NULL"	"stimuli/Ebbinghaus_-100000_-1.4000.png"	n/a	"Ebbinghaus"	"arrowright"	"1324"	"TRUE"	"Ebbinghaus"	"-10000000000"	"-1.400000000"	"1"	"3"
n/a	"html-keyboard-response"	"13"	"150966"	"0.0-4.0-1.0-2.0-0.3"	"an6dho"	"600"	"1366"	"chrome"	"109.0.0"	"FALSE"	"Windows 10"	"60.77"	"017"	n/a	n/a	n/a	n/a	n/a	n/a	"fixation"	n/a	n/a	n/a	n/a	"NULL"	n/a	"NULL"	"NULL"	"NULL"	"<p style=\"color: black; font-size: 80px; padding-left: 17%; padding-right: 41%; padding-top: 11%; padding-bottom: 13%\">+</p>"	"1296"	n/a	n/a	n/a	n/a	n/a	n/a	n/a	n/a	n/a
n/a	"image-keyboard-response"	"14"	"152008"	"0.0-4.0-1.0-2.0-1.3"	"an6dho"	"600"	"1366"	"chrome"	"109.0.0"	"FALSE"	"Windows 10"	"60.77"	"017"	n/a	n/a	n/a	n/a	n/a	n/a	"Trial"	n/a	n/a	n/a	"1041"	"arrowleft"	n/a	"NULL"	"NULL"	"NULL"	"stimuli/Ebbinghaus_-100000_1.40000.png"	n/a	"Ebbinghaus"	"arrowleft"	"1313"	"TRUE"	"Ebbinghaus"	"-10000000000"	"1.4000000000"	"1"	"4"
n/a	"html-keyboard-response"	"15"	"153186"	"0.0-4.0-1.0-2.0-0.4"	"an6dho"	"600"	"1366"	"chrome"	"109.0.0"	"FALSE"	"Windows 10"	"60.77"	"017"	n/a	n/a	n/a	n/a	n/a	n/a	"fixation"	n/a	n/a	n/a	n/a	"NULL"	n/a	"NULL"	"NULL"	"NULL"	"<p style=\"color: black; font-size: 80px; padding-left: 39%; padding-right: 28%; padding-top: 23%; padding-bottom: 25%\">+</p>"	"1158"	n/a	n/a	n/a	n/a	n/a	n/a	n/a	n/a	n/a
n/a	"image-keyboard-response"	"16"	"154989"	"0.0-4.0-1.0-2.0-1.4"	"an6dho"	"600"	"1366"	"chrome"	"109.0.0"	"FALSE"	"Windows 10"	"60.77"	"017"	n/a	n/a	n/a	n/a	n/a	n/a	"Trial"	n/a	n/a	n/a	"1802"	"arrowleft"	n/a	"NULL"	"NULL"	"NULL"	"stimuli/Ebbinghaus_1000000_1.40000.png"	n/a	"Ebbinghaus"	"arrowleft"	"1178"	"TRUE"	"Ebbinghaus"	"100000000000"	"1.4000000000"	"1"	"5"
n/a	"html-keyboard-response"	"17"	"156086"	"0.0-4.0-1.0-2.0-0.5"	"an6dho"	"600"	"1366"	"chrome"	"109.0.0"	"FALSE"	"Windows 10"	"60.77"	"017"	n/a	n/a	n/a	n/a	n/a	n/a	"fixation"	n/a	n/a	n/a	n/a	"NULL"	n/a	"NULL"	"NULL"	"NULL"	"<p style=\"color: black; font-size: 80px; padding-left: 30%; padding-right: 4%; padding-top: 27%; padding-bottom: 15%\">+</p>"	"1087"	n/a	n/a	n/a	n/a	n/a	n/a	n/a	n/a	n/a
n/a	"image-keyboard-response"	"18"	"157081"	"0.0-4.0-1.0-2.0-1.5"	"an6dho"	"600"	"1366"	"chrome"	"109.0.0"	"FALSE"	"Windows 10"	"60.77"	"017"	n/a	n/a	n/a	n/a	n/a	n/a	"Trial"	n/a	n/a	n/a	"992"	"arrowright"	n/a	"NULL"	"NULL"	"NULL"	"stimuli/Ebbinghaus_1000000_-1.4000.png"	n/a	"Ebbinghaus"	"arrowright"	"1097"	"TRUE"	"Ebbinghaus"	"100000000000"	"-1.400000000"	"1"	"6"
n/a	"html-button-response"	"19"	"177412"	"0.0-4.0-1.0-3.0"	"an6dho"	"600"	"1366"	"chrome"	"109.0.0"	"FALSE"	"Windows 10"	"60.77"	"017"	n/a	n/a	n/a	n/a	n/a	n/a	"practice_block_results"	n/a	n/a	n/a	"20309"	"0"	n/a	"NULL"	"NULL"	"NULL"	"<p style='color:rgb(76,175,80);'> Correct Responses: <b>83.33%</b></p><hr><p style='color:rgb(233,30,99);'> Average Response Time: <b>1577.83</b> ms.</p>"	n/a	n/a	n/a	n/a	n/a	n/a	n/a	n/a	n/a	n/a
"TRUE"	"preload"	"20"	"177947"	"0.0-4.0-2.0-0.0"	"an6dho"	"600"	"1366"	"chrome"	"109.0.0"	"FALSE"	"Windows 10"	"60.77"	"017"	n/a	n/a	n/a	n/a	n/a	n/a	n/a	n/a	n/a	n/a	n/a	"NULL"	"FALSE"	"list()"	"list()"	"list()"	n/a	n/a	n/a	n/a	n/a	n/a	n/a	n/a	n/a	n/a	n/a
n/a	"html-keyboard-response"	"21"	"188469"	"0.0-4.0-2.0-1.0"	"an6dho"	"600"	"1366"	"chrome"	"109.0.0"	"FALSE"	"Windows 10"	"60.77"	"017"	n/a	n/a	n/a	n/a	n/a	n/a	n/a	n/a	n/a	n/a	"10521"	"enter"	n/a	"NULL"	"NULL"	"NULL"	"<p><b>Practice</b></p><p>In this part, two horizontal red lines will appear one above the other.</p><p>Your task is to select which <b>line is longer</b> in length as fast as you can, without making errors.</p><p>Don't get distracted by the surrounding black arrows at the end of the red lines!</p><p>Press <b>the UP or the DOWN arrow</b> to indicate where is the longer <b>red line.</b></p><div style='float: center'><img src='materials/instructions/MullerLyer_Demo.png' height='300'></img><p><img src='utils/answer/answer_updown_keyboard.PNG' height='150'></img></p><p class='small'>In this example, the correct answer is the <b>UP arrow</b>.</p></div><p>Are you ready? <b>Press ENTER to start</b></p>"	n/a	n/a	n/a	n/a	n/a	n/a	n/a	n/a	n/a	n/a
n/a	"html-keyboard-response"	"22"	"190452"	"0.0-4.0-2.0-2.0-0.0"	"an6dho"	"600"	"1366"	"chrome"	"109.0.0"	"FALSE"	"Windows 10"	"60.77"	"017"	n/a	n/a	n/a	n/a	n/a	n/a	"fixation"	n/a	n/a	n/a	n/a	"NULL"	n/a	"NULL"	"NULL"	"NULL"	"<p style=\"color: black; font-size: 80px; padding-left: 16%; padding-right: 3%; padding-top: 47%; padding-bottom: 33%\">+</p>"	"1460"	n/a	n/a	n/a	n/a	n/a	n/a	n/a	n/a	n/a
n/a	"image-keyboard-response"	"23"	"191753"	"0.0-4.0-2.0-2.0-1.0"	"an6dho"	"600"	"1366"	"chrome"	"109.0.0"	"FALSE"	"Windows 10"	"60.77"	"017"	n/a	n/a	n/a	n/a	n/a	n/a	"Trial"	n/a	n/a	n/a	"1299"	"arrowdown"	n/a	"NULL"	"NULL"	"NULL"	"stimuli/MullerLyer_0000000_-0.7000.png"	n/a	"MullerLyer"	"arrowdown"	"1983"	"TRUE"	"MullerLyer"	"000000000000"	"-0.700000000"	"1"	"7"
n/a	"html-keyboard-response"	"24"	"193018"	"0.0-4.0-2.0-2.0-0.1"	"an6dho"	"600"	"1366"	"chrome"	"109.0.0"	"FALSE"	"Windows 10"	"60.77"	"017"	n/a	n/a	n/a	n/a	n/a	n/a	"fixation"	n/a	n/a	n/a	n/a	"NULL"	n/a	"NULL"	"NULL"	"NULL"	"<p style=\"color: black; font-size: 80px; padding-left: 15%; padding-right: 46%; padding-top: 30%; padding-bottom: 29%\">+</p>"	"1243"	n/a	n/a	n/a	n/a	n/a	n/a	n/a	n/a	n/a
n/a	"image-keyboard-response"	"25"	"193654"	"0.0-4.0-2.0-2.0-1.1"	"an6dho"	"600"	"1366"	"chrome"	"109.0.0"	"FALSE"	"Windows 10"	"60.77"	"017"	n/a	n/a	n/a	n/a	n/a	n/a	"Trial"	n/a	n/a	n/a	"634"	"arrowup"	n/a	"NULL"	"NULL"	"NULL"	"stimuli/MullerLyer_0000000_0.70000.png"	n/a	"MullerLyer"	"arrowup"	"1265"	"TRUE"	"MullerLyer"	"000000000000"	"0.7000000000"	"1"	"8"
n/a	"html-keyboard-response"	"26"	"194954"	"0.0-4.0-2.0-2.0-0.2"	"an6dho"	"600"	"1366"	"chrome"	"109.0.0"	"FALSE"	"Windows 10"	"60.77"	"017"	n/a	n/a	n/a	n/a	n/a	n/a	"fixation"	n/a	n/a	n/a	n/a	"NULL"	n/a	"NULL"	"NULL"	"NULL"	"<p style=\"color: black; font-size: 80px; padding-left: 3%; padding-right: 11%; padding-top: 29%; padding-bottom: 21%\">+</p>"	"1288"	n/a	n/a	n/a	n/a	n/a	n/a	n/a	n/a	n/a
n/a	"image-keyboard-response"	"27"	"195550"	"0.0-4.0-2.0-2.0-1.2"	"an6dho"	"600"	"1366"	"chrome"	"109.0.0"	"FALSE"	"Windows 10"	"60.77"	"017"	n/a	n/a	n/a	n/a	n/a	n/a	"Trial"	n/a	n/a	n/a	"594"	"arrowup"	n/a	"NULL"	"NULL"	"NULL"	"stimuli/MullerLyer_2300000_0.70000.png"	n/a	"MullerLyer"	"arrowup"	"1300"	"TRUE"	"MullerLyer"	"230000000000"	"0.7000000000"	"1"	"9"
n/a	"html-keyboard-response"	"28"	"196575"	"0.0-4.0-2.0-2.0-0.3"	"an6dho"	"600"	"1366"	"chrome"	"109.0.0"	"FALSE"	"Windows 10"	"60.77"	"017"	n/a	n/a	n/a	n/a	n/a	n/a	"fixation"	n/a	n/a	n/a	n/a	"NULL"	n/a	"NULL"	"NULL"	"NULL"	"<p style=\"color: black; font-size: 80px; padding-left: 50%; padding-right: 35%; padding-top: 3%; padding-bottom: 45%\">+</p>"	"1015"	n/a	n/a	n/a	n/a	n/a	n/a	n/a	n/a	n/a
n/a	"image-keyboard-response"	"29"	"197289"	"0.0-4.0-2.0-2.0-1.3"	"an6dho"	"600"	"1366"	"chrome"	"109.0.0"	"FALSE"	"Windows 10"	"60.77"	"017"	n/a	n/a	n/a	n/a	n/a	n/a	"Trial"	n/a	n/a	n/a	"710"	"arrowdown"	n/a	"NULL"	"NULL"	"NULL"	"stimuli/MullerLyer_2300000_-0.7000.png"	n/a	"MullerLyer"	"arrowdown"	"1025"	"TRUE"	"MullerLyer"	"230000000000"	"-0.700000000"	"1"	"10"
n/a	"html-keyboard-response"	"30"	"198410"	"0.0-4.0-2.0-2.0-0.4"	"an6dho"	"600"	"1366"	"chrome"	"109.0.0"	"FALSE"	"Windows 10"	"60.77"	"017"	n/a	n/a	n/a	n/a	n/a	n/a	"fixation"	n/a	n/a	n/a	n/a	"NULL"	n/a	"NULL"	"NULL"	"NULL"	"<p style=\"color: black; font-size: 80px; padding-left: 6%; padding-right: 42%; padding-top: 39%; padding-bottom: 7%\">+</p>"	"1092"	n/a	n/a	n/a	n/a	n/a	n/a	n/a	n/a	n/a
n/a	"image-keyboard-response"	"31"	"199008"	"0.0-4.0-2.0-2.0-1.4"	"an6dho"	"600"	"1366"	"chrome"	"109.0.0"	"FALSE"	"Windows 10"	"60.77"	"017"	n/a	n/a	n/a	n/a	n/a	n/a	"Trial"	n/a	n/a	n/a	"596"	"arrowup"	n/a	"NULL"	"NULL"	"NULL"	"stimuli/MullerLyer_-230000_0.70000.png"	n/a	"MullerLyer"	"arrowup"	"1121"	"TRUE"	"MullerLyer"	"-23000000000"	"0.7000000000"	"1"	"11"
n/a	"html-keyboard-response"	"32"	"200418"	"0.0-4.0-2.0-2.0-0.5"	"an6dho"	"600"	"1366"	"chrome"	"109.0.0"	"FALSE"	"Windows 10"	"60.77"	"017"	n/a	n/a	n/a	n/a	n/a	n/a	"fixation"	n/a	n/a	n/a	n/a	"NULL"	n/a	"NULL"	"NULL"	"NULL"	"<p style=\"color: black; font-size: 80px; padding-left: 5%; padding-right: 41%; padding-top: 9%; padding-bottom: 47%\">+</p>"	"1388"	n/a	n/a	n/a	n/a	n/a	n/a	n/a	n/a	n/a
n/a	"image-keyboard-response"	"33"	"201143"	"0.0-4.0-2.0-2.0-1.5"	"an6dho"	"600"	"1366"	"chrome"	"109.0.0"	"FALSE"	"Windows 10"	"60.77"	"017"	n/a	n/a	n/a	n/a	n/a	n/a	"Trial"	n/a	n/a	n/a	"724"	"arrowdown"	n/a	"NULL"	"NULL"	"NULL"	"stimuli/MullerLyer_-230000_-0.7000.png"	n/a	"MullerLyer"	"arrowdown"	"1410"	"TRUE"	"MullerLyer"	"-23000000000"	"-0.700000000"	"1"	"12"
n/a	"html-button-response"	"34"	"205341"	"0.0-4.0-2.0-3.0"	"an6dho"	"600"	"1366"	"chrome"	"109.0.0"	"FALSE"	"Windows 10"	"60.77"	"017"	n/a	n/a	n/a	n/a	n/a	n/a	"practice_block_results"	n/a	n/a	n/a	"4195"	"0"	n/a	"NULL"	"NULL"	"NULL"	"<p style='color:rgb(76,175,80);'> Correct Responses: <b>100.00%</b></p><hr><p style='color:rgb(233,30,99);'> Average Response Time: <b>759.50</b> ms.</p>"	n/a	n/a	n/a	n/a	n/a	n/a	n/a	n/a	n/a	n/a
"TRUE"	"preload"	"35"	"205878"	"0.0-4.0-3.0-0.0"	"an6dho"	"600"	"1366"	"chrome"	"109.0.0"	"FALSE"	"Windows 10"	"60.77"	"017"	n/a	n/a	n/a	n/a	n/a	n/a	n/a	n/a	n/a	n/a	n/a	"NULL"	"FALSE"	"list()"	"list()"	"list()"	n/a	n/a	n/a	n/a	n/a	n/a	n/a	n/a	n/a	n/a	n/a
n/a	"html-keyboard-response"	"36"	"216672"	"0.0-4.0-3.0-1.0"	"an6dho"	"600"	"1366"	"chrome"	"109.0.0"	"FALSE"	"Windows 10"	"60.77"	"017"	n/a	n/a	n/a	n/a	n/a	n/a	n/a	n/a	n/a	n/a	"10794"	"enter"	n/a	"NULL"	"NULL"	"NULL"	"<p><b>Practice</b></p><p>In this part, two red lines will appear side by side.</p><p>Your task is to tell <b>which line is longer</b> in length, regardless of their orientation, as fast as you can, and without making errors.</p><p>Don't get distracted by the orientation of the lines!</p><p>Press <b>the LEFT or the RIGHT arrow</b> to indicate which <b>line is the longer one.</b></p><div style='float: center'><img src='materials/instructions/VerticalHorizontal_Demo.png' height='300'></img><p><img src='utils/answer/answer_leftright_keyboard.PNG' height='150'></img></p><p class='small'>In this example, the correct answer is the <b>LEFT arrow</b>.</p></div><p>Are you ready? <b>Press ENTER to start</b></p>"	n/a	n/a	n/a	n/a	n/a	n/a	n/a	n/a	n/a	n/a
n/a	"html-keyboard-response"	"37"	"218555"	"0.0-4.0-3.0-2.0-0.0"	"an6dho"	"600"	"1366"	"chrome"	"109.0.0"	"FALSE"	"Windows 10"	"60.77"	"017"	n/a	n/a	n/a	n/a	n/a	n/a	"fixation"	n/a	n/a	n/a	n/a	"NULL"	n/a	"NULL"	"NULL"	"NULL"	"<p style=\"color: black; font-size: 80px; padding-left: 13%; padding-right: 10%; padding-top: 11%; padding-bottom: 31%\">+</p>"	"1362"	n/a	n/a	n/a	n/a	n/a	n/a	n/a	n/a	n/a
n/a	"image-keyboard-response"	"38"	"219350"	"0.0-4.0-3.0-2.0-1.0"	"an6dho"	"600"	"1366"	"chrome"	"109.0.0"	"FALSE"	"Windows 10"	"60.77"	"017"	n/a	n/a	n/a	n/a	n/a	n/a	"Trial"	n/a	n/a	n/a	"794"	"arrowright"	n/a	"NULL"	"NULL"	"NULL"	"stimuli/VerticalHorizontal_-330000_-0.9000.png"	n/a	"VerticalHorizontal"	"arrowright"	"1883"	"TRUE"	"VerticalHorizontal"	"-33000000000"	"-0.900000000"	"1"	"13"
n/a	"html-keyboard-response"	"39"	"220587"	"0.0-4.0-3.0-2.0-0.1"	"an6dho"	"600"	"1366"	"chrome"	"109.0.0"	"FALSE"	"Windows 10"	"60.77"	"017"	n/a	n/a	n/a	n/a	n/a	n/a	"fixation"	n/a	n/a	n/a	n/a	"NULL"	n/a	"NULL"	"NULL"	"NULL"	"<p style=\"color: black; font-size: 80px; padding-left: 2%; padding-right: 11%; padding-top: 36%; padding-bottom: 22%\">+</p>"	"1221"	n/a	n/a	n/a	n/a	n/a	n/a	n/a	n/a	n/a
n/a	"image-keyboard-response"	"40"	"221448"	"0.0-4.0-3.0-2.0-1.1"	"an6dho"	"600"	"1366"	"chrome"	"109.0.0"	"FALSE"	"Windows 10"	"60.77"	"017"	n/a	n/a	n/a	n/a	n/a	n/a	"Trial"	n/a	n/a	n/a	"860"	"arrowright"	n/a	"NULL"	"NULL"	"NULL"	"stimuli/VerticalHorizontal_3300000_-0.9000.png"	n/a	"VerticalHorizontal"	"arrowright"	"1237"	"TRUE"	"VerticalHorizontal"	"330000000000"	"-0.900000000"	"1"	"14"
n/a	"html-keyboard-response"	"41"	"222528"	"0.0-4.0-3.0-2.0-0.2"	"an6dho"	"600"	"1366"	"chrome"	"109.0.0"	"FALSE"	"Windows 10"	"60.77"	"017"	n/a	n/a	n/a	n/a	n/a	n/a	"fixation"	n/a	n/a	n/a	n/a	"NULL"	n/a	"NULL"	"NULL"	"NULL"	"<p style=\"color: black; font-size: 80px; padding-left: 19%; padding-right: 44%; padding-top: 30%; padding-bottom: 18%\">+</p>"	"1060"	n/a	n/a	n/a	n/a	n/a	n/a	n/a	n/a	n/a
n/a	"image-keyboard-response"	"42"	"223364"	"0.0-4.0-3.0-2.0-1.2"	"an6dho"	"600"	"1366"	"chrome"	"109.0.0"	"FALSE"	"Windows 10"	"60.77"	"017"	n/a	n/a	n/a	n/a	n/a	n/a	"Trial"	n/a	n/a	n/a	"835"	"arrowleft"	n/a	"NULL"	"NULL"	"NULL"	"stimuli/VerticalHorizontal_3300000_0.90000.png"	n/a	"VerticalHorizontal"	"arrowleft"	"1080"	"TRUE"	"VerticalHorizontal"	"330000000000"	"0.9000000000"	"1"	"15"
n/a	"html-keyboard-response"	"43"	"224824"	"0.0-4.0-3.0-2.0-0.3"	"an6dho"	"600"	"1366"	"chrome"	"109.0.0"	"FALSE"	"Windows 10"	"60.77"	"017"	n/a	n/a	n/a	n/a	n/a	n/a	"fixation"	n/a	n/a	n/a	n/a	"NULL"	n/a	"NULL"	"NULL"	"NULL"	"<p style=\"color: black; font-size: 80px; padding-left: 14%; padding-right: 5%; padding-top: 23%; padding-bottom: 22%\">+</p>"	"1453"	n/a	n/a	n/a	n/a	n/a	n/a	n/a	n/a	n/a
n/a	"image-keyboard-response"	"44"	"225647"	"0.0-4.0-3.0-2.0-1.3"	"an6dho"	"600"	"1366"	"chrome"	"109.0.0"	"FALSE"	"Windows 10"	"60.77"	"017"	n/a	n/a	n/a	n/a	n/a	n/a	"Trial"	n/a	n/a	n/a	"820"	"arrowright"	n/a	"NULL"	"NULL"	"NULL"	"stimuli/VerticalHorizontal_0000000_-0.9000.png"	n/a	"VerticalHorizontal"	"arrowright"	"1460"	"TRUE"	"VerticalHorizontal"	"000000000000"	"-0.900000000"	"1"	"16"
n/a	"html-keyboard-response"	"45"	"227120"	"0.0-4.0-3.0-2.0-0.4"	"an6dho"	"600"	"1366"	"chrome"	"109.0.0"	"FALSE"	"Windows 10"	"60.77"	"017"	n/a	n/a	n/a	n/a	n/a	n/a	"fixation"	n/a	n/a	n/a	n/a	"NULL"	n/a	"NULL"	"NULL"	"NULL"	"<p style=\"color: black; font-size: 80px; padding-left: 14%; padding-right: 6%; padding-top: 32%; padding-bottom: 34%\">+</p>"	"1461"	n/a	n/a	n/a	n/a	n/a	n/a	n/a	n/a	n/a
n/a	"image-keyboard-response"	"46"	"227633"	"0.0-4.0-3.0-2.0-1.4"	"an6dho"	"600"	"1366"	"chrome"	"109.0.0"	"FALSE"	"Windows 10"	"60.77"	"017"	n/a	n/a	n/a	n/a	n/a	n/a	"Trial"	n/a	n/a	n/a	"512"	"arrowleft"	n/a	"NULL"	"NULL"	"NULL"	"stimuli/VerticalHorizontal_0000000_0.90000.png"	n/a	"VerticalHorizontal"	"arrowleft"	"1473"	"TRUE"	"VerticalHorizontal"	"000000000000"	"0.9000000000"	"1"	"17"
n/a	"html-keyboard-response"	"47"	"228678"	"0.0-4.0-3.0-2.0-0.5"	"an6dho"	"600"	"1366"	"chrome"	"109.0.0"	"FALSE"	"Windows 10"	"60.77"	"017"	n/a	n/a	n/a	n/a	n/a	n/a	"fixation"	n/a	n/a	n/a	n/a	"NULL"	n/a	"NULL"	"NULL"	"NULL"	"<p style=\"color: black; font-size: 80px; padding-left: 27%; padding-right: 43%; padding-top: 2%; padding-bottom: 38%\">+</p>"	"1039"	n/a	n/a	n/a	n/a	n/a	n/a	n/a	n/a	n/a
n/a	"image-keyboard-response"	"48"	"229403"	"0.0-4.0-3.0-2.0-1.5"	"an6dho"	"600"	"1366"	"chrome"	"109.0.0"	"FALSE"	"Windows 10"	"60.77"	"017"	n/a	n/a	n/a	n/a	n/a	n/a	"Trial"	n/a	n/a	n/a	"724"	"arrowleft"	n/a	"NULL"	"NULL"	"NULL"	"stimuli/VerticalHorizontal_-330000_0.90000.png"	n/a	"VerticalHorizontal"	"arrowleft"	"1045"	"TRUE"	"VerticalHorizontal"	"-33000000000"	"0.9000000000"	"1"	"18"
n/a	"html-button-response"	"49"	"232867"	"0.0-4.0-3.0-3.0"	"an6dho"	"600"	"1366"	"chrome"	"109.0.0"	"FALSE"	"Windows 10"	"60.77"	"017"	n/a	n/a	n/a	n/a	n/a	n/a	"practice_block_results"	n/a	n/a	n/a	"3461"	"0"	n/a	"NULL"	"NULL"	"NULL"	"<p style='color:rgb(76,175,80);'> Correct Responses: <b>100.00%</b></p><hr><p style='color:rgb(233,30,99);'> Average Response Time: <b>757.50</b> ms.</p>"	n/a	n/a	n/a	n/a	n/a	n/a	n/a	n/a	n/a	n/a
n/a	"html-button-response"	"50"	"295494"	"0.0-4.0-4.0"	"an6dho"	"600"	"1366"	"chrome"	"109.0.0"	"FALSE"	"Windows 10"	"60.77"	"017"	n/a	n/a	n/a	n/a	n/a	n/a	"practice_debrief"	n/a	n/a	n/a	"62108"	"0"	n/a	"NULL"	"NULL"	"NULL"	"<p><b>TRAINING COMPLETED</b></p><p>In the next phase, there will be more trials, and some might be harder too.<br> Moreover, after each illusion block, a <b>score</b> will be calculated based on speed (time you took to answer) and accuracy (number of errors).</p><p>Try to keep up a high score!</p><br><p>Note that it can be <i>really</i> challenging at times, so you will need to rely on your <b>intuition</b> and gut feeling to answer as fast as you can without making errors.</p><p>Each illusion block will be repeated two times (so that you have the opportunity to improve your score), but the order of the blocks is random.</p><p>Remember, your goal is to be as <b>fast</b> and <b>accurate</b> as possible. Good luck!</p><br>"	n/a	n/a	n/a	n/a	n/a	n/a	n/a	n/a	n/a	n/a
"TRUE"	"preload"	"51"	"296176"	"0.0-5.0-0.0"	"an6dho"	"600"	"1366"	"chrome"	"109.0.0"	"FALSE"	"Windows 10"	"60.77"	"017"	n/a	n/a	n/a	n/a	n/a	n/a	n/a	n/a	n/a	n/a	n/a	"NULL"	"FALSE"	"list()"	"list()"	"list()"	n/a	n/a	n/a	n/a	n/a	n/a	n/a	n/a	n/a	n/a	n/a
n/a	"html-keyboard-response"	"52"	"300751"	"0.0-5.0-1.0"	"an6dho"	"600"	"1366"	"chrome"	"109.0.0"	"FALSE"	"Windows 10"	"60.77"	"017"	n/a	n/a	n/a	n/a	n/a	n/a	n/a	n/a	n/a	n/a	"4574"	"enter"	n/a	"NULL"	"NULL"	"NULL"	"<p><b>Part 1/6</b></p><p>In this part, two horizontal red lines will appear one above the other.</p><p>Your task is to select which <b>line is longer</b> in length as fast as you can, without making errors.</p><p>Don't get distracted by the surrounding black arrows at the end of the red lines!</p><p>Press <b>the UP or the DOWN arrow</b> to indicate where is the longer <b>red line.</b></p><div style='float: center'><img src='materials/instructions/MullerLyer_Demo.png' height='300'></img><p><img src='utils/answer/answer_updown_keyboard.PNG' height='150'></img></p><p class='small'>In this example, the correct answer is the <b>UP arrow</b>.</p></div><p>Are you ready? <b>Press ENTER to start</b></p>"	n/a	n/a	n/a	n/a	n/a	n/a	n/a	n/a	n/a	n/a
n/a	"html-keyboard-response"	"53"	"302575"	"0.0-5.0-2.0-0.0"	"an6dho"	"600"	"1366"	"chrome"	"109.0.0"	"FALSE"	"Windows 10"	"60.77"	"017"	n/a	n/a	n/a	n/a	n/a	n/a	"fixation"	n/a	n/a	n/a	n/a	"NULL"	n/a	"NULL"	"NULL"	"NULL"	"<p style=\"color: black; font-size: 80px; padding-left: 26%; padding-right: 20%; padding-top: 46%; padding-bottom: 29%\">+</p>"	"1294"	n/a	n/a	n/a	n/a	n/a	n/a	n/a	n/a	n/a
n/a	"image-keyboard-response"	"54"	"303166"	"0.0-5.0-2.0-1.0"	"an6dho"	"600"	"1366"	"chrome"	"109.0.0"	"FALSE"	"Windows 10"	"60.77"	"017"	n/a	n/a	n/a	n/a	n/a	n/a	"Trial"	n/a	n/a	n/a	"590"	"arrowup"	n/a	"NULL"	"NULL"	"NULL"	"stimuli/MullerLyer_-8.21429_0.07627.png"	n/a	"MullerLyer"	"arrowup"	"1824"	"TRUE"	"MullerLyer"	"-8.214290000"	"0.0762700000"	"1"	"19"
n/a	"html-keyboard-response"	"55"	"304494"	"0.0-5.0-2.0-0.1"	"an6dho"	"600"	"1366"	"chrome"	"109.0.0"	"FALSE"	"Windows 10"	"60.77"	"017"	n/a	n/a	n/a	n/a	n/a	n/a	"fixation"	n/a	n/a	n/a	n/a	"NULL"	n/a	"NULL"	"NULL"	"NULL"	"<p style=\"color: black; font-size: 80px; padding-left: 26%; padding-right: 45%; padding-top: 35%; padding-bottom: 15%\">+</p>"	"1307"	n/a	n/a	n/a	n/a	n/a	n/a	n/a	n/a	n/a
n/a	"image-keyboard-response"	"56"	"305040"	"0.0-5.0-2.0-1.1"	"an6dho"	"600"	"1366"	"chrome"	"109.0.0"	"FALSE"	"Windows 10"	"60.77"	"017"	n/a	n/a	n/a	n/a	n/a	n/a	"Trial"	n/a	n/a	n/a	"545"	"arrowup"	n/a	"NULL"	"NULL"	"NULL"	"stimuli/MullerLyer_8.21429_-0.14541.png"	n/a	"MullerLyer"	"arrowdown"	"1328"	"FALSE"	"MullerLyer"	"8.2142900000"	"-0.145410000"	"1"	"20"
n/a	"html-keyboard-response"	"57"	"306379"	"0.0-5.0-2.0-0.2"	"an6dho"	"600"	"1366"	"chrome"	"109.0.0"	"FALSE"	"Windows 10"	"60.77"	"017"	n/a	n/a	n/a	n/a	n/a	n/a	"fixation"	n/a	n/a	n/a	n/a	"NULL"	n/a	"NULL"	"NULL"	"NULL"	"<p style=\"color: black; font-size: 80px; padding-left: 17%; padding-right: 23%; padding-top: 20%; padding-bottom: 30%\">+</p>"	"1330"	n/a	n/a	n/a	n/a	n/a	n/a	n/a	n/a	n/a
n/a	"image-keyboard-response"	"58"	"306993"	"0.0-5.0-2.0-1.2"	"an6dho"	"600"	"1366"	"chrome"	"109.0.0"	"FALSE"	"Windows 10"	"60.77"	"017"	n/a	n/a	n/a	n/a	n/a	n/a	"Trial"	n/a	n/a	n/a	"613"	"arrowdown"	n/a	"NULL"	"NULL"	"NULL"	"stimuli/MullerLyer_-8.21429_-0.07627.png"	n/a	"MullerLyer"	"arrowdown"	"1339"	"TRUE"	"MullerLyer"	"-8.214290000"	"-0.076270000"	"1"	"21"
n/a	"html-keyboard-response"	"59"	"308314"	"0.0-5.0-2.0-0.3"	"an6dho"	"600"	"1366"	"chrome"	"109.0.0"	"FALSE"	"Windows 10"	"60.77"	"017"	n/a	n/a	n/a	n/a	n/a	n/a	"fixation"	n/a	n/a	n/a	n/a	"NULL"	n/a	"NULL"	"NULL"	"NULL"	"<p style=\"color: black; font-size: 80px; padding-left: 13%; padding-right: 47%; padding-top: 34%; padding-bottom: 14%\">+</p>"	"1301"	n/a	n/a	n/a	n/a	n/a	n/a	n/a	n/a	n/a
n/a	"image-keyboard-response"	"60"	"308873"	"0.0-5.0-2.0-1.3"	"an6dho"	"600"	"1366"	"chrome"	"109.0.0"	"FALSE"	"Windows 10"	"60.77"	"017"	n/a	n/a	n/a	n/a	n/a	n/a	"Trial"	n/a	n/a	n/a	"558"	"arrowdown"	n/a	"NULL"	"NULL"	"NULL"	"stimuli/MullerLyer_-20.04286_-0.3500.png"	n/a	"MullerLyer"	"arrowdown"	"1321"	"TRUE"	"MullerLyer"	"-20.04286000"	"-0.350000000"	"1"	"22"
n/a	"html-keyboard-response"	"61"	"310334"	"0.0-5.0-2.0-0.4"	"an6dho"	"600"	"1366"	"chrome"	"109.0.0"	"FALSE"	"Windows 10"	"60.77"	"017"	n/a	n/a	n/a	n/a	n/a	n/a	"fixation"	n/a	n/a	n/a	n/a	"NULL"	n/a	"NULL"	"NULL"	"NULL"	"<p style=\"color: black; font-size: 80px; padding-left: 16%; padding-right: 10%; padding-top: 43%; padding-bottom: 17%\">+</p>"	"1457"	n/a	n/a	n/a	n/a	n/a	n/a	n/a	n/a	n/a
n/a	"image-keyboard-response"	"62"	"310850"	"0.0-5.0-2.0-1.4"	"an6dho"	"600"	"1366"	"chrome"	"109.0.0"	"FALSE"	"Windows 10"	"60.77"	"017"	n/a	n/a	n/a	n/a	n/a	n/a	"Trial"	n/a	n/a	n/a	"515"	"arrowdown"	n/a	"NULL"	"NULL"	"NULL"	"stimuli/MullerLyer_-14.12857_-0.23665.png"	n/a	"MullerLyer"	"arrowdown"	"1461"	"TRUE"	"MullerLyer"	"-14.12857000"	"-0.236650000"	"1"	"23"
n/a	"html-keyboard-response"	"63"	"312099"	"0.0-5.0-2.0-0.5"	"an6dho"	"600"	"1366"	"chrome"	"109.0.0"	"FALSE"	"Windows 10"	"60.77"	"017"	n/a	n/a	n/a	n/a	n/a	n/a	"fixation"	n/a	n/a	n/a	n/a	"NULL"	n/a	"NULL"	"NULL"	"NULL"	"<p style=\"color: black; font-size: 80px; padding-left: 26%; padding-right: 29%; padding-top: 39%; padding-bottom: 16%\">+</p>"	"1226"	n/a	n/a	n/a	n/a	n/a	n/a	n/a	n/a	n/a
n/a	"image-keyboard-response"	"64"	"312639"	"0.0-5.0-2.0-1.5"	"an6dho"	"600"	"1366"	"chrome"	"109.0.0"	"FALSE"	"Windows 10"	"60.77"	"017"	n/a	n/a	n/a	n/a	n/a	n/a	"Trial"	n/a	n/a	n/a	"539"	"arrowdown"	n/a	"NULL"	"NULL"	"NULL"	"stimuli/MullerLyer_-20.04286_-0.14541.png"	n/a	"MullerLyer"	"arrowdown"	"1249"	"TRUE"	"MullerLyer"	"-20.04286000"	"-0.145410000"	"1"	"24"
n/a	"html-keyboard-response"	"65"	"313750"	"0.0-5.0-2.0-0.6"	"an6dho"	"600"	"1366"	"chrome"	"109.0.0"	"FALSE"	"Windows 10"	"60.77"	"017"	n/a	n/a	n/a	n/a	n/a	n/a	"fixation"	n/a	n/a	n/a	n/a	"NULL"	n/a	"NULL"	"NULL"	"NULL"	"<p style=\"color: black; font-size: 80px; padding-left: 2%; padding-right: 18%; padding-top: 31%; padding-bottom: 18%\">+</p>"	"1104"	n/a	n/a	n/a	n/a	n/a	n/a	n/a	n/a	n/a
n/a	"image-keyboard-response"	"66"	"314351"	"0.0-5.0-2.0-1.6"	"an6dho"	"600"	"1366"	"chrome"	"109.0.0"	"FALSE"	"Windows 10"	"60.77"	"017"	n/a	n/a	n/a	n/a	n/a	n/a	"Trial"	n/a	n/a	n/a	"600"	"arrowup"	n/a	"NULL"	"NULL"	"NULL"	"stimuli/MullerLyer_-8.21429_0.35000.png"	n/a	"MullerLyer"	"arrowup"	"1111"	"TRUE"	"MullerLyer"	"-8.214290000"	"0.3500000000"	"1"	"25"
n/a	"html-keyboard-response"	"67"	"315689"	"0.0-5.0-2.0-0.7"	"an6dho"	"600"	"1366"	"chrome"	"109.0.0"	"FALSE"	"Windows 10"	"60.77"	"017"	n/a	n/a	n/a	n/a	n/a	n/a	"fixation"	n/a	n/a	n/a	n/a	"NULL"	n/a	"NULL"	"NULL"	"NULL"	"<p style=\"color: black; font-size: 80px; padding-left: 45%; padding-right: 3%; padding-top: 27%; padding-bottom: 43%\">+</p>"	"1320"	n/a	n/a	n/a	n/a	n/a	n/a	n/a	n/a	n/a
n/a	"image-keyboard-response"	"68"	"316248"	"0.0-5.0-2.0-1.7"	"an6dho"	"600"	"1366"	"chrome"	"109.0.0"	"FALSE"	"Windows 10"	"60.77"	"017"	n/a	n/a	n/a	n/a	n/a	n/a	"Trial"	n/a	n/a	n/a	"554"	"arrowdown"	n/a	"NULL"	"NULL"	"NULL"	"stimuli/MullerLyer_-8.21429_-0.23665.png"	n/a	"MullerLyer"	"arrowdown"	"1338"	"TRUE"	"MullerLyer"	"-8.214290000"	"-0.236650000"	"1"	"26"
n/a	"html-keyboard-response"	"69"	"317707"	"0.0-5.0-2.0-0.8"	"an6dho"	"600"	"1366"	"chrome"	"109.0.0"	"FALSE"	"Windows 10"	"60.77"	"017"	n/a	n/a	n/a	n/a	n/a	n/a	"fixation"	n/a	n/a	n/a	n/a	"NULL"	n/a	"NULL"	"NULL"	"NULL"	"<p style=\"color: black; font-size: 80px; padding-left: 5%; padding-right: 24%; padding-top: 30%; padding-bottom: 14%\">+</p>"	"1445"	n/a	n/a	n/a	n/a	n/a	n/a	n/a	n/a	n/a
n/a	"image-keyboard-response"	"70"	"318371"	"0.0-5.0-2.0-1.8"	"an6dho"	"600"	"1366"	"chrome"	"109.0.0"	"FALSE"	"Windows 10"	"60.77"	"017"	n/a	n/a	n/a	n/a	n/a	n/a	"Trial"	n/a	n/a	n/a	"663"	"arrowup"	n/a	"NULL"	"NULL"	"NULL"	"stimuli/MullerLyer_20.04286_0.14541.png"	n/a	"MullerLyer"	"arrowup"	"1459"	"TRUE"	"MullerLyer"	"20.042860000"	"0.1454100000"	"1"	"27"
n/a	"html-keyboard-response"	"71"	"319735"	"0.0-5.0-2.0-0.9"	"an6dho"	"600"	"1366"	"chrome"	"109.0.0"	"FALSE"	"Windows 10"	"60.77"	"017"	n/a	n/a	n/a	n/a	n/a	n/a	"fixation"	n/a	n/a	n/a	n/a	"NULL"	n/a	"NULL"	"NULL"	"NULL"	"<p style=\"color: black; font-size: 80px; padding-left: 25%; padding-right: 47%; padding-top: 1%; padding-bottom: 8%\">+</p>"	"1346"	n/a	n/a	n/a	n/a	n/a	n/a	n/a	n/a	n/a
n/a	"image-keyboard-response"	"72"	"320389"	"0.0-5.0-2.0-1.9"	"an6dho"	"600"	"1366"	"chrome"	"109.0.0"	"FALSE"	"Windows 10"	"60.77"	"017"	n/a	n/a	n/a	n/a	n/a	n/a	"Trial"	n/a	n/a	n/a	"653"	"arrowup"	n/a	"NULL"	"NULL"	"NULL"	"stimuli/MullerLyer_-2.3000_0.35000.png"	n/a	"MullerLyer"	"arrowup"	"1364"	"TRUE"	"MullerLyer"	"-2.300000000"	"0.3500000000"	"1"	"28"
n/a	"html-keyboard-response"	"73"	"321676"	"0.0-5.0-2.0-0.10"	"an6dho"	"600"	"1366"	"chrome"	"109.0.0"	"FALSE"	"Windows 10"	"60.77"	"017"	n/a	n/a	n/a	n/a	n/a	n/a	"fixation"	n/a	n/a	n/a	n/a	"NULL"	n/a	"NULL"	"NULL"	"NULL"	"<p style=\"color: black; font-size: 80px; padding-left: 16%; padding-right: 47%; padding-top: 38%; padding-bottom: 8%\">+</p>"	"1274"	n/a	n/a	n/a	n/a	n/a	n/a	n/a	n/a	n/a
n/a	"image-keyboard-response"	"74"	"322250"	"0.0-5.0-2.0-1.10"	"an6dho"	"600"	"1366"	"chrome"	"109.0.0"	"FALSE"	"Windows 10"	"60.77"	"017"	n/a	n/a	n/a	n/a	n/a	n/a	"Trial"	n/a	n/a	n/a	"572"	"arrowup"	n/a	"NULL"	"NULL"	"NULL"	"stimuli/MullerLyer_-20.04286_0.23665.png"	n/a	"MullerLyer"	"arrowup"	"1287"	"TRUE"	"MullerLyer"	"-20.04286000"	"0.2366500000"	"1"	"29"
n/a	"html-keyboard-response"	"75"	"323409"	"0.0-5.0-2.0-0.11"	"an6dho"	"600"	"1366"	"chrome"	"109.0.0"	"FALSE"	"Windows 10"	"60.77"	"017"	n/a	n/a	n/a	n/a	n/a	n/a	"fixation"	n/a	n/a	n/a	n/a	"NULL"	n/a	"NULL"	"NULL"	"NULL"	"<p style=\"color: black; font-size: 80px; padding-left: 35%; padding-right: 33%; padding-top: 1%; padding-bottom: 16%\">+</p>"	"1143"	n/a	n/a	n/a	n/a	n/a	n/a	n/a	n/a	n/a
n/a	"image-keyboard-response"	"76"	"324040"	"0.0-5.0-2.0-1.11"	"an6dho"	"600"	"1366"	"chrome"	"109.0.0"	"FALSE"	"Windows 10"	"60.77"	"017"	n/a	n/a	n/a	n/a	n/a	n/a	"Trial"	n/a	n/a	n/a	"631"	"arrowup"	n/a	"NULL"	"NULL"	"NULL"	"stimuli/MullerLyer_2.30000_0.07627.png"	n/a	"MullerLyer"	"arrowup"	"1159"	"TRUE"	"MullerLyer"	"2.3000000000"	"0.0762700000"	"1"	"30"
n/a	"html-keyboard-response"	"77"	"325299"	"0.0-5.0-2.0-0.12"	"an6dho"	"600"	"1366"	"chrome"	"109.0.0"	"FALSE"	"Windows 10"	"60.77"	"017"	n/a	n/a	n/a	n/a	n/a	n/a	"fixation"	n/a	n/a	n/a	n/a	"NULL"	n/a	"NULL"	"NULL"	"NULL"	"<p style=\"color: black; font-size: 80px; padding-left: 37%; padding-right: 26%; padding-top: 23%; padding-bottom: 7%\">+</p>"	"1243"	n/a	n/a	n/a	n/a	n/a	n/a	n/a	n/a	n/a
n/a	"image-keyboard-response"	"78"	"325884"	"0.0-5.0-2.0-1.12"	"an6dho"	"600"	"1366"	"chrome"	"109.0.0"	"FALSE"	"Windows 10"	"60.77"	"017"	n/a	n/a	n/a	n/a	n/a	n/a	"Trial"	n/a	n/a	n/a	"585"	"arrowup"	n/a	"NULL"	"NULL"	"NULL"	"stimuli/MullerLyer_20.04286_-0.14541.png"	n/a	"MullerLyer"	"arrowdown"	"1259"	"FALSE"	"MullerLyer"	"20.042860000"	"-0.145410000"	"1"	"31"
n/a	"html-keyboard-response"	"79"	"327301"	"0.0-5.0-2.0-0.13"	"an6dho"	"600"	"1366"	"chrome"	"109.0.0"	"FALSE"	"Windows 10"	"60.77"	"017"	n/a	n/a	n/a	n/a	n/a	n/a	"fixation"	n/a	n/a	n/a	n/a	"NULL"	n/a	"NULL"	"NULL"	"NULL"	"<p style=\"color: black; font-size: 80px; padding-left: 30%; padding-right: 42%; padding-top: 47%; padding-bottom: 14%\">+</p>"	"1408"	n/a	n/a	n/a	n/a	n/a	n/a	n/a	n/a	n/a
n/a	"image-keyboard-response"	"80"	"327824"	"0.0-5.0-2.0-1.13"	"an6dho"	"600"	"1366"	"chrome"	"109.0.0"	"FALSE"	"Windows 10"	"60.77"	"017"	n/a	n/a	n/a	n/a	n/a	n/a	"Trial"	n/a	n/a	n/a	"521"	"arrowup"	n/a	"NULL"	"NULL"	"NULL"	"stimuli/MullerLyer_-14.12857_0.14541.png"	n/a	"MullerLyer"	"arrowup"	"1417"	"TRUE"	"MullerLyer"	"-14.12857000"	"0.1454100000"	"1"	"32"
n/a	"html-keyboard-response"	"81"	"329025"	"0.0-5.0-2.0-0.14"	"an6dho"	"600"	"1366"	"chrome"	"109.0.0"	"FALSE"	"Windows 10"	"60.77"	"017"	n/a	n/a	n/a	n/a	n/a	n/a	"fixation"	n/a	n/a	n/a	n/a	"NULL"	n/a	"NULL"	"NULL"	"NULL"	"<p style=\"color: black; font-size: 80px; padding-left: 39%; padding-right: 48%; padding-top: 3%; padding-bottom: 34%\">+</p>"	"1185"	n/a	n/a	n/a	n/a	n/a	n/a	n/a	n/a	n/a
n/a	"image-keyboard-response"	"82"	"329467"	"0.0-5.0-2.0-1.14"	"an6dho"	"600"	"1366"	"chrome"	"109.0.0"	"FALSE"	"Windows 10"	"60.77"	"017"	n/a	n/a	n/a	n/a	n/a	n/a	"Trial"	n/a	n/a	n/a	"442"	"arrowup"	n/a	"NULL"	"NULL"	"NULL"	"stimuli/MullerLyer_14.12857_-0.07627.png"	n/a	"MullerLyer"	"arrowdown"	"1201"	"FALSE"	"MullerLyer"	"14.128570000"	"-0.076270000"	"1"	"33"
n/a	"html-keyboard-response"	"83"	"330695"	"0.0-5.0-2.0-0.15"	"an6dho"	"600"	"1366"	"chrome"	"109.0.0"	"FALSE"	"Windows 10"	"60.77"	"017"	n/a	n/a	n/a	n/a	n/a	n/a	"fixation"	n/a	n/a	n/a	n/a	"NULL"	n/a	"NULL"	"NULL"	"NULL"	"<p style=\"color: black; font-size: 80px; padding-left: 15%; padding-right: 45%; padding-top: 10%; padding-bottom: 10%\">+</p>"	"1213"	n/a	n/a	n/a	n/a	n/a	n/a	n/a	n/a	n/a
n/a	"image-keyboard-response"	"84"	"331276"	"0.0-5.0-2.0-1.15"	"an6dho"	"600"	"1366"	"chrome"	"109.0.0"	"FALSE"	"Windows 10"	"60.77"	"017"	n/a	n/a	n/a	n/a	n/a	n/a	"Trial"	n/a	n/a	n/a	"579"	"arrowup"	n/a	"NULL"	"NULL"	"NULL"	"stimuli/MullerLyer_8.21429_-0.23665.png"	n/a	"MullerLyer"	"arrowdown"	"1228"	"FALSE"	"MullerLyer"	"8.2142900000"	"-0.236650000"	"1"	"34"
n/a	"html-keyboard-response"	"85"	"332563"	"0.0-5.0-2.0-0.16"	"an6dho"	"600"	"1366"	"chrome"	"109.0.0"	"FALSE"	"Windows 10"	"60.77"	"017"	n/a	n/a	n/a	n/a	n/a	n/a	"fixation"	n/a	n/a	n/a	n/a	"NULL"	n/a	"NULL"	"NULL"	"NULL"	"<p style=\"color: black; font-size: 80px; padding-left: 18%; padding-right: 30%; padding-top: 22%; padding-bottom: 21%\">+</p>"	"1274"	n/a	n/a	n/a	n/a	n/a	n/a	n/a	n/a	n/a
n/a	"image-keyboard-response"	"86"	"333108"	"0.0-5.0-2.0-1.16"	"an6dho"	"600"	"1366"	"chrome"	"109.0.0"	"FALSE"	"Windows 10"	"60.77"	"017"	n/a	n/a	n/a	n/a	n/a	n/a	"Trial"	n/a	n/a	n/a	"544"	"arrowdown"	n/a	"NULL"	"NULL"	"NULL"	"stimuli/MullerLyer_2.30000_-0.3500.png"	n/a	"MullerLyer"	"arrowdown"	"1287"	"TRUE"	"MullerLyer"	"2.3000000000"	"-0.350000000"	"1"	"35"
n/a	"html-keyboard-response"	"87"	"334258"	"0.0-5.0-2.0-0.17"	"an6dho"	"600"	"1366"	"chrome"	"109.0.0"	"FALSE"	"Windows 10"	"60.77"	"017"	n/a	n/a	n/a	n/a	n/a	n/a	"fixation"	n/a	n/a	n/a	n/a	"NULL"	n/a	"NULL"	"NULL"	"NULL"	"<p style=\"color: black; font-size: 80px; padding-left: 11%; padding-right: 28%; padding-top: 28%; padding-bottom: 22%\">+</p>"	"1128"	n/a	n/a	n/a	n/a	n/a	n/a	n/a	n/a	n/a
n/a	"image-keyboard-response"	"88"	"334724"	"0.0-5.0-2.0-1.17"	"an6dho"	"600"	"1366"	"chrome"	"109.0.0"	"FALSE"	"Windows 10"	"60.77"	"017"	n/a	n/a	n/a	n/a	n/a	n/a	"Trial"	n/a	n/a	n/a	"465"	"arrowup"	n/a	"NULL"	"NULL"	"NULL"	"stimuli/MullerLyer_-14.12857_0.23665.png"	n/a	"MullerLyer"	"arrowup"	"1150"	"TRUE"	"MullerLyer"	"-14.12857000"	"0.2366500000"	"1"	"36"
n/a	"html-keyboard-response"	"89"	"336112"	"0.0-5.0-2.0-0.18"	"an6dho"	"600"	"1366"	"chrome"	"109.0.0"	"FALSE"	"Windows 10"	"60.77"	"017"	n/a	n/a	n/a	n/a	n/a	n/a	"fixation"	n/a	n/a	n/a	n/a	"NULL"	n/a	"NULL"	"NULL"	"NULL"	"<p style=\"color: black; font-size: 80px; padding-left: 3%; padding-right: 46%; padding-top: 49%; padding-bottom: 24%\">+</p>"	"1370"	n/a	n/a	n/a	n/a	n/a	n/a	n/a	n/a	n/a
n/a	"image-keyboard-response"	"90"	"336508"	"0.0-5.0-2.0-1.18"	"an6dho"	"600"	"1366"	"chrome"	"109.0.0"	"FALSE"	"Windows 10"	"60.77"	"017"	n/a	n/a	n/a	n/a	n/a	n/a	"Trial"	n/a	n/a	n/a	"395"	"arrowup"	n/a	"NULL"	"NULL"	"NULL"	"stimuli/MullerLyer_14.12857_0.35000.png"	n/a	"MullerLyer"	"arrowup"	"1388"	"TRUE"	"MullerLyer"	"14.128570000"	"0.3500000000"	"1"	"37"
n/a	"html-keyboard-response"	"91"	"337609"	"0.0-5.0-2.0-0.19"	"an6dho"	"600"	"1366"	"chrome"	"109.0.0"	"FALSE"	"Windows 10"	"60.77"	"017"	n/a	n/a	n/a	n/a	n/a	n/a	"fixation"	n/a	n/a	n/a	n/a	"NULL"	n/a	"NULL"	"NULL"	"NULL"	"<p style=\"color: black; font-size: 80px; padding-left: 9%; padding-right: 1%; padding-top: 3%; padding-bottom: 21%\">+</p>"	"1091"	n/a	n/a	n/a	n/a	n/a	n/a	n/a	n/a	n/a
n/a	"image-keyboard-response"	"92"	"338031"	"0.0-5.0-2.0-1.19"	"an6dho"	"600"	"1366"	"chrome"	"109.0.0"	"FALSE"	"Windows 10"	"60.77"	"017"	n/a	n/a	n/a	n/a	n/a	n/a	"Trial"	n/a	n/a	n/a	"421"	"arrowup"	n/a	"NULL"	"NULL"	"NULL"	"stimuli/MullerLyer_14.12857_-0.23665.png"	n/a	"MullerLyer"	"arrowdown"	"1101"	"FALSE"	"MullerLyer"	"14.128570000"	"-0.236650000"	"1"	"38"
n/a	"html-keyboard-response"	"93"	"339086"	"0.0-5.0-2.0-0.20"	"an6dho"	"600"	"1366"	"chrome"	"109.0.0"	"FALSE"	"Windows 10"	"60.77"	"017"	n/a	n/a	n/a	n/a	n/a	n/a	"fixation"	n/a	n/a	n/a	n/a	"NULL"	n/a	"NULL"	"NULL"	"NULL"	"<p style=\"color: black; font-size: 80px; padding-left: 24%; padding-right: 13%; padding-top: 35%; padding-bottom: 12%\">+</p>"	"1042"	n/a	n/a	n/a	n/a	n/a	n/a	n/a	n/a	n/a
n/a	"image-keyboard-response"	"94"	"339633"	"0.0-5.0-2.0-1.20"	"an6dho"	"600"	"1366"	"chrome"	"109.0.0"	"FALSE"	"Windows 10"	"60.77"	"017"	n/a	n/a	n/a	n/a	n/a	n/a	"Trial"	n/a	n/a	n/a	"547"	"arrowup"	n/a	"NULL"	"NULL"	"NULL"	"stimuli/MullerLyer_8.21429_0.35000.png"	n/a	"MullerLyer"	"arrowup"	"1055"	"TRUE"	"MullerLyer"	"8.2142900000"	"0.3500000000"	"1"	"39"
n/a	"html-keyboard-response"	"95"	"340727"	"0.0-5.0-2.0-0.21"	"an6dho"	"600"	"1366"	"chrome"	"109.0.0"	"FALSE"	"Windows 10"	"60.77"	"017"	n/a	n/a	n/a	n/a	n/a	n/a	"fixation"	n/a	n/a	n/a	n/a	"NULL"	n/a	"NULL"	"NULL"	"NULL"	"<p style=\"color: black; font-size: 80px; padding-left: 38%; padding-right: 26%; padding-top: 25%; padding-bottom: 14%\">+</p>"	"1080"	n/a	n/a	n/a	n/a	n/a	n/a	n/a	n/a	n/a
n/a	"image-keyboard-response"	"96"	"341268"	"0.0-5.0-2.0-1.21"	"an6dho"	"600"	"1366"	"chrome"	"109.0.0"	"FALSE"	"Windows 10"	"60.77"	"017"	n/a	n/a	n/a	n/a	n/a	n/a	"Trial"	n/a	n/a	n/a	"540"	"arrowup"	n/a	"NULL"	"NULL"	"NULL"	"stimuli/MullerLyer_-20.04286_0.35000.png"	n/a	"MullerLyer"	"arrowup"	"1094"	"TRUE"	"MullerLyer"	"-20.04286000"	"0.3500000000"	"1"	"40"
n/a	"html-keyboard-response"	"97"	"342772"	"0.0-5.0-2.0-0.22"	"an6dho"	"600"	"1366"	"chrome"	"109.0.0"	"FALSE"	"Windows 10"	"60.77"	"017"	n/a	n/a	n/a	n/a	n/a	n/a	"fixation"	n/a	n/a	n/a	n/a	"NULL"	n/a	"NULL"	"NULL"	"NULL"	"<p style=\"color: black; font-size: 80px; padding-left: 3%; padding-right: 17%; padding-top: 16%; padding-bottom: 30%\">+</p>"	"1489"	n/a	n/a	n/a	n/a	n/a	n/a	n/a	n/a	n/a
n/a	"image-keyboard-response"	"98"	"343429"	"0.0-5.0-2.0-1.22"	"an6dho"	"600"	"1366"	"chrome"	"109.0.0"	"FALSE"	"Windows 10"	"60.77"	"017"	n/a	n/a	n/a	n/a	n/a	n/a	"Trial"	n/a	n/a	n/a	"656"	"arrowdown"	n/a	"NULL"	"NULL"	"NULL"	"stimuli/MullerLyer_20.04286_0.35000.png"	n/a	"MullerLyer"	"arrowup"	"1504"	"FALSE"	"MullerLyer"	"20.042860000"	"0.3500000000"	"1"	"41"
n/a	"html-keyboard-response"	"99"	"344659"	"0.0-5.0-2.0-0.23"	"an6dho"	"600"	"1366"	"chrome"	"109.0.0"	"FALSE"	"Windows 10"	"60.77"	"017"	n/a	n/a	n/a	n/a	n/a	n/a	"fixation"	n/a	n/a	n/a	n/a	"NULL"	n/a	"NULL"	"NULL"	"NULL"	"<p style=\"color: black; font-size: 80px; padding-left: 1%; padding-right: 18%; padding-top: 45%; padding-bottom: 30%\">+</p>"	"1209"	n/a	n/a	n/a	n/a	n/a	n/a	n/a	n/a	n/a
n/a	"image-keyboard-response"	"100"	"345131"	"0.0-5.0-2.0-1.23"	"an6dho"	"600"	"1366"	"chrome"	"109.0.0"	"FALSE"	"Windows 10"	"60.77"	"017"	n/a	n/a	n/a	n/a	n/a	n/a	"Trial"	n/a	n/a	n/a	"471"	"arrowup"	n/a	"NULL"	"NULL"	"NULL"	"stimuli/MullerLyer_2.30000_-0.23665.png"	n/a	"MullerLyer"	"arrowdown"	"1230"	"FALSE"	"MullerLyer"	"2.3000000000"	"-0.236650000"	"1"	"42"
n/a	"html-keyboard-response"	"101"	"346478"	"0.0-5.0-2.0-0.24"	"an6dho"	"600"	"1366"	"chrome"	"109.0.0"	"FALSE"	"Windows 10"	"60.77"	"017"	n/a	n/a	n/a	n/a	n/a	n/a	"fixation"	n/a	n/a	n/a	n/a	"NULL"	n/a	"NULL"	"NULL"	"NULL"	"<p style=\"color: black; font-size: 80px; padding-left: 43%; padding-right: 44%; padding-top: 32%; padding-bottom: 40%\">+</p>"	"1332"	n/a	n/a	n/a	n/a	n/a	n/a	n/a	n/a	n/a
n/a	"image-keyboard-response"	"102"	"347010"	"0.0-5.0-2.0-1.24"	"an6dho"	"600"	"1366"	"chrome"	"109.0.0"	"FALSE"	"Windows 10"	"60.77"	"017"	n/a	n/a	n/a	n/a	n/a	n/a	"Trial"	n/a	n/a	n/a	"530"	"arrowup"	n/a	"NULL"	"NULL"	"NULL"	"stimuli/MullerLyer_-14.12857_-0.3500.png"	n/a	"MullerLyer"	"arrowdown"	"1347"	"FALSE"	"MullerLyer"	"-14.12857000"	"-0.350000000"	"1"	"43"
n/a	"html-keyboard-response"	"103"	"348208"	"0.0-5.0-2.0-0.25"	"an6dho"	"600"	"1366"	"chrome"	"109.0.0"	"FALSE"	"Windows 10"	"60.77"	"017"	n/a	n/a	n/a	n/a	n/a	n/a	"fixation"	n/a	n/a	n/a	n/a	"NULL"	n/a	"NULL"	"NULL"	"NULL"	"<p style=\"color: black; font-size: 80px; padding-left: 47%; padding-right: 42%; padding-top: 6%; padding-bottom: 3%\">+</p>"	"1188"	n/a	n/a	n/a	n/a	n/a	n/a	n/a	n/a	n/a
n/a	"image-keyboard-response"	"104"	"348727"	"0.0-5.0-2.0-1.25"	"an6dho"	"600"	"1366"	"chrome"	"109.0.0"	"FALSE"	"Windows 10"	"60.77"	"017"	n/a	n/a	n/a	n/a	n/a	n/a	"Trial"	n/a	n/a	n/a	"518"	"arrowup"	n/a	"NULL"	"NULL"	"NULL"	"stimuli/MullerLyer_8.21429_0.23665.png"	n/a	"MullerLyer"	"arrowup"	"1198"	"TRUE"	"MullerLyer"	"8.2142900000"	"0.2366500000"	"1"	"44"
n/a	"html-keyboard-response"	"105"	"349925"	"0.0-5.0-2.0-0.26"	"an6dho"	"600"	"1366"	"chrome"	"109.0.0"	"FALSE"	"Windows 10"	"60.77"	"017"	n/a	n/a	n/a	n/a	n/a	n/a	"fixation"	n/a	n/a	n/a	n/a	"NULL"	n/a	"NULL"	"NULL"	"NULL"	"<p style=\"color: black; font-size: 80px; padding-left: 15%; padding-right: 12%; padding-top: 32%; padding-bottom: 26%\">+</p>"	"1188"	n/a	n/a	n/a	n/a	n/a	n/a	n/a	n/a	n/a
n/a	"image-keyboard-response"	"106"	"350400"	"0.0-5.0-2.0-1.26"	"an6dho"	"600"	"1366"	"chrome"	"109.0.0"	"FALSE"	"Windows 10"	"60.77"	"017"	n/a	n/a	n/a	n/a	n/a	n/a	"Trial"	n/a	n/a	n/a	"474"	"arrowup"	n/a	"NULL"	"NULL"	"NULL"	"stimuli/MullerLyer_-20.04286_-0.07627.png"	n/a	"MullerLyer"	"arrowdown"	"1198"	"FALSE"	"MullerLyer"	"-20.04286000"	"-0.076270000"	"1"	"45"
n/a	"html-keyboard-response"	"107"	"351869"	"0.0-5.0-2.0-0.27"	"an6dho"	"600"	"1366"	"chrome"	"109.0.0"	"FALSE"	"Windows 10"	"60.77"	"017"	n/a	n/a	n/a	n/a	n/a	n/a	"fixation"	n/a	n/a	n/a	n/a	"NULL"	n/a	"NULL"	"NULL"	"NULL"	"<p style=\"color: black; font-size: 80px; padding-left: 22%; padding-right: 1%; padding-top: 43%; padding-bottom: 18%\">+</p>"	"1461"	n/a	n/a	n/a	n/a	n/a	n/a	n/a	n/a	n/a
n/a	"image-keyboard-response"	"108"	"352323"	"0.0-5.0-2.0-1.27"	"an6dho"	"600"	"1366"	"chrome"	"109.0.0"	"FALSE"	"Windows 10"	"60.77"	"017"	n/a	n/a	n/a	n/a	n/a	n/a	"Trial"	n/a	n/a	n/a	"453"	"arrowdown"	n/a	"NULL"	"NULL"	"NULL"	"stimuli/MullerLyer_-14.12857_-0.14541.png"	n/a	"MullerLyer"	"arrowdown"	"1469"	"TRUE"	"MullerLyer"	"-14.12857000"	"-0.145410000"	"1"	"46"
n/a	"html-keyboard-response"	"109"	"353755"	"0.0-5.0-2.0-0.28"	"an6dho"	"600"	"1366"	"chrome"	"109.0.0"	"FALSE"	"Windows 10"	"60.77"	"017"	n/a	n/a	n/a	n/a	n/a	n/a	"fixation"	n/a	n/a	n/a	n/a	"NULL"	n/a	"NULL"	"NULL"	"NULL"	"<p style=\"color: black; font-size: 80px; padding-left: 37%; padding-right: 47%; padding-top: 46%; padding-bottom: 24%\">+</p>"	"1414"	n/a	n/a	n/a	n/a	n/a	n/a	n/a	n/a	n/a
n/a	"image-keyboard-response"	"110"	"354343"	"0.0-5.0-2.0-1.28"	"an6dho"	"600"	"1366"	"chrome"	"109.0.0"	"FALSE"	"Windows 10"	"60.77"	"017"	n/a	n/a	n/a	n/a	n/a	n/a	"Trial"	n/a	n/a	n/a	"587"	"arrowup"	n/a	"NULL"	"NULL"	"NULL"	"stimuli/MullerLyer_20.04286_-0.07627.png"	n/a	"MullerLyer"	"arrowdown"	"1432"	"FALSE"	"MullerLyer"	"20.042860000"	"-0.076270000"	"1"	"47"
n/a	"html-keyboard-response"	"111"	"355706"	"0.0-5.0-2.0-0.29"	"an6dho"	"600"	"1366"	"chrome"	"109.0.0"	"FALSE"	"Windows 10"	"60.77"	"017"	n/a	n/a	n/a	n/a	n/a	n/a	"fixation"	n/a	n/a	n/a	n/a	"NULL"	n/a	"NULL"	"NULL"	"NULL"	"<p style=\"color: black; font-size: 80px; padding-left: 24%; padding-right: 9%; padding-top: 17%; padding-bottom: 13%\">+</p>"	"1350"	n/a	n/a	n/a	n/a	n/a	n/a	n/a	n/a	n/a
n/a	"image-keyboard-response"	"112"	"356331"	"0.0-5.0-2.0-1.29"	"an6dho"	"600"	"1366"	"chrome"	"109.0.0"	"FALSE"	"Windows 10"	"60.77"	"017"	n/a	n/a	n/a	n/a	n/a	n/a	"Trial"	n/a	n/a	n/a	"625"	"arrowup"	n/a	"NULL"	"NULL"	"NULL"	"stimuli/MullerLyer_20.04286_-0.3500.png"	n/a	"MullerLyer"	"arrowdown"	"1363"	"FALSE"	"MullerLyer"	"20.042860000"	"-0.350000000"	"1"	"48"
n/a	"html-keyboard-response"	"113"	"357700"	"0.0-5.0-2.0-0.30"	"an6dho"	"600"	"1366"	"chrome"	"109.0.0"	"FALSE"	"Windows 10"	"60.77"	"017"	n/a	n/a	n/a	n/a	n/a	n/a	"fixation"	n/a	n/a	n/a	n/a	"NULL"	n/a	"NULL"	"NULL"	"NULL"	"<p style=\"color: black; font-size: 80px; padding-left: 19%; padding-right: 40%; padding-top: 30%; padding-bottom: 18%\">+</p>"	"1360"	n/a	n/a	n/a	n/a	n/a	n/a	n/a	n/a	n/a
n/a	"image-keyboard-response"	"114"	"358300"	"0.0-5.0-2.0-1.30"	"an6dho"	"600"	"1366"	"chrome"	"109.0.0"	"FALSE"	"Windows 10"	"60.77"	"017"	n/a	n/a	n/a	n/a	n/a	n/a	"Trial"	n/a	n/a	n/a	"599"	"arrowdown"	n/a	"NULL"	"NULL"	"NULL"	"stimuli/MullerLyer_14.12857_0.07627.png"	n/a	"MullerLyer"	"arrowup"	"1369"	"FALSE"	"MullerLyer"	"14.128570000"	"0.0762700000"	"1"	"49"
n/a	"html-keyboard-response"	"115"	"359675"	"0.0-5.0-2.0-0.31"	"an6dho"	"600"	"1366"	"chrome"	"109.0.0"	"FALSE"	"Windows 10"	"60.77"	"017"	n/a	n/a	n/a	n/a	n/a	n/a	"fixation"	n/a	n/a	n/a	n/a	"NULL"	n/a	"NULL"	"NULL"	"NULL"	"<p style=\"color: black; font-size: 80px; padding-left: 2%; padding-right: 39%; padding-top: 33%; padding-bottom: 41%\">+</p>"	"1366"	n/a	n/a	n/a	n/a	n/a	n/a	n/a	n/a	n/a
n/a	"image-keyboard-response"	"116"	"360211"	"0.0-5.0-2.0-1.31"	"an6dho"	"600"	"1366"	"chrome"	"109.0.0"	"FALSE"	"Windows 10"	"60.77"	"017"	n/a	n/a	n/a	n/a	n/a	n/a	"Trial"	n/a	n/a	n/a	"534"	"arrowup"	n/a	"NULL"	"NULL"	"NULL"	"stimuli/MullerLyer_20.04286_-0.23665.png"	n/a	"MullerLyer"	"arrowdown"	"1375"	"FALSE"	"MullerLyer"	"20.042860000"	"-0.236650000"	"1"	"50"
n/a	"html-keyboard-response"	"117"	"361307"	"0.0-5.0-2.0-0.32"	"an6dho"	"600"	"1366"	"chrome"	"109.0.0"	"FALSE"	"Windows 10"	"60.77"	"017"	n/a	n/a	n/a	n/a	n/a	n/a	"fixation"	n/a	n/a	n/a	n/a	"NULL"	n/a	"NULL"	"NULL"	"NULL"	"<p style=\"color: black; font-size: 80px; padding-left: 29%; padding-right: 29%; padding-top: 31%; padding-bottom: 2%\">+</p>"	"1089"	n/a	n/a	n/a	n/a	n/a	n/a	n/a	n/a	n/a
n/a	"image-keyboard-response"	"118"	"361785"	"0.0-5.0-2.0-1.32"	"an6dho"	"600"	"1366"	"chrome"	"109.0.0"	"FALSE"	"Windows 10"	"60.77"	"017"	n/a	n/a	n/a	n/a	n/a	n/a	"Trial"	n/a	n/a	n/a	"477"	"arrowup"	n/a	"NULL"	"NULL"	"NULL"	"stimuli/MullerLyer_14.12857_-0.3500.png"	n/a	"MullerLyer"	"arrowdown"	"1096"	"FALSE"	"MullerLyer"	"14.128570000"	"-0.350000000"	"1"	"51"
n/a	"html-keyboard-response"	"119"	"363117"	"0.0-5.0-2.0-0.33"	"an6dho"	"600"	"1366"	"chrome"	"109.0.0"	"FALSE"	"Windows 10"	"60.77"	"017"	n/a	n/a	n/a	n/a	n/a	n/a	"fixation"	n/a	n/a	n/a	n/a	"NULL"	n/a	"NULL"	"NULL"	"NULL"	"<p style=\"color: black; font-size: 80px; padding-left: 43%; padding-right: 41%; padding-top: 35%; padding-bottom: 27%\">+</p>"	"1321"	n/a	n/a	n/a	n/a	n/a	n/a	n/a	n/a	n/a
n/a	"image-keyboard-response"	"120"	"363817"	"0.0-5.0-2.0-1.33"	"an6dho"	"600"	"1366"	"chrome"	"109.0.0"	"FALSE"	"Windows 10"	"60.77"	"017"	n/a	n/a	n/a	n/a	n/a	n/a	"Trial"	n/a	n/a	n/a	"700"	"arrowdown"	n/a	"NULL"	"NULL"	"NULL"	"stimuli/MullerLyer_8.21429_0.07627.png"	n/a	"MullerLyer"	"arrowup"	"1332"	"FALSE"	"MullerLyer"	"8.2142900000"	"0.0762700000"	"1"	"52"
n/a	"html-keyboard-response"	"121"	"365202"	"0.0-5.0-2.0-0.34"	"an6dho"	"600"	"1366"	"chrome"	"109.0.0"	"FALSE"	"Windows 10"	"60.77"	"017"	n/a	n/a	n/a	n/a	n/a	n/a	"fixation"	n/a	n/a	n/a	n/a	"NULL"	n/a	"NULL"	"NULL"	"NULL"	"<p style=\"color: black; font-size: 80px; padding-left: 15%; padding-right: 49%; padding-top: 16%; padding-bottom: 8%\">+</p>"	"1372"	n/a	n/a	n/a	n/a	n/a	n/a	n/a	n/a	n/a
n/a	"image-keyboard-response"	"122"	"365649"	"0.0-5.0-2.0-1.34"	"an6dho"	"600"	"1366"	"chrome"	"109.0.0"	"FALSE"	"Windows 10"	"60.77"	"017"	n/a	n/a	n/a	n/a	n/a	n/a	"Trial"	n/a	n/a	n/a	"447"	"arrowup"	n/a	"NULL"	"NULL"	"NULL"	"stimuli/MullerLyer_-14.12857_0.35000.png"	n/a	"MullerLyer"	"arrowup"	"1385"	"TRUE"	"MullerLyer"	"-14.12857000"	"0.3500000000"	"1"	"53"
n/a	"html-keyboard-response"	"123"	"366975"	"0.0-5.0-2.0-0.35"	"an6dho"	"600"	"1366"	"chrome"	"109.0.0"	"FALSE"	"Windows 10"	"60.77"	"017"	n/a	n/a	n/a	n/a	n/a	n/a	"fixation"	n/a	n/a	n/a	n/a	"NULL"	n/a	"NULL"	"NULL"	"NULL"	"<p style=\"color: black; font-size: 80px; padding-left: 3%; padding-right: 27%; padding-top: 25%; padding-bottom: 22%\">+</p>"	"1310"	n/a	n/a	n/a	n/a	n/a	n/a	n/a	n/a	n/a
n/a	"image-keyboard-response"	"124"	"367492"	"0.0-5.0-2.0-1.35"	"an6dho"	"600"	"1366"	"chrome"	"109.0.0"	"FALSE"	"Windows 10"	"60.77"	"017"	n/a	n/a	n/a	n/a	n/a	n/a	"Trial"	n/a	n/a	n/a	"515"	"arrowup"	n/a	"NULL"	"NULL"	"NULL"	"stimuli/MullerLyer_-20.04286_0.07627.png"	n/a	"MullerLyer"	"arrowup"	"1326"	"TRUE"	"MullerLyer"	"-20.04286000"	"0.0762700000"	"1"	"54"
n/a	"html-keyboard-response"	"125"	"368518"	"0.0-5.0-2.0-0.36"	"an6dho"	"600"	"1366"	"chrome"	"109.0.0"	"FALSE"	"Windows 10"	"60.77"	"017"	n/a	n/a	n/a	n/a	n/a	n/a	"fixation"	n/a	n/a	n/a	n/a	"NULL"	n/a	"NULL"	"NULL"	"NULL"	"<p style=\"color: black; font-size: 80px; padding-left: 22%; padding-right: 37%; padding-top: 33%; padding-bottom: 49%\">+</p>"	"1012"	n/a	n/a	n/a	n/a	n/a	n/a	n/a	n/a	n/a
n/a	"image-keyboard-response"	"126"	"369095"	"0.0-5.0-2.0-1.36"	"an6dho"	"600"	"1366"	"chrome"	"109.0.0"	"FALSE"	"Windows 10"	"60.77"	"017"	n/a	n/a	n/a	n/a	n/a	n/a	"Trial"	n/a	n/a	n/a	"575"	"arrowup"	n/a	"NULL"	"NULL"	"NULL"	"stimuli/MullerLyer_8.21429_-0.3500.png"	n/a	"MullerLyer"	"arrowdown"	"1026"	"FALSE"	"MullerLyer"	"8.2142900000"	"-0.350000000"	"1"	"55"
n/a	"html-keyboard-response"	"127"	"370141"	"0.0-5.0-2.0-0.37"	"an6dho"	"600"	"1366"	"chrome"	"109.0.0"	"FALSE"	"Windows 10"	"60.77"	"017"	n/a	n/a	n/a	n/a	n/a	n/a	"fixation"	n/a	n/a	n/a	n/a	"NULL"	n/a	"NULL"	"NULL"	"NULL"	"<p style=\"color: black; font-size: 80px; padding-left: 37%; padding-right: 48%; padding-top: 47%; padding-bottom: 40%\">+</p>"	"1037"	n/a	n/a	n/a	n/a	n/a	n/a	n/a	n/a	n/a
n/a	"image-keyboard-response"	"128"	"370714"	"0.0-5.0-2.0-1.37"	"an6dho"	"600"	"1366"	"chrome"	"109.0.0"	"FALSE"	"Windows 10"	"60.77"	"017"	n/a	n/a	n/a	n/a	n/a	n/a	"Trial"	n/a	n/a	n/a	"572"	"arrowdown"	n/a	"NULL"	"NULL"	"NULL"	"stimuli/MullerLyer_14.12857_0.23665.png"	n/a	"MullerLyer"	"arrowup"	"1046"	"FALSE"	"MullerLyer"	"14.128570000"	"0.2366500000"	"1"	"56"
n/a	"html-keyboard-response"	"129"	"371807"	"0.0-5.0-2.0-0.38"	"an6dho"	"600"	"1366"	"chrome"	"109.0.0"	"FALSE"	"Windows 10"	"60.77"	"017"	n/a	n/a	n/a	n/a	n/a	n/a	"fixation"	n/a	n/a	n/a	n/a	"NULL"	n/a	"NULL"	"NULL"	"NULL"	"<p style=\"color: black; font-size: 80px; padding-left: 2%; padding-right: 36%; padding-top: 5%; padding-bottom: 17%\">+</p>"	"1075"	n/a	n/a	n/a	n/a	n/a	n/a	n/a	n/a	n/a
n/a	"image-keyboard-response"	"130"	"372353"	"0.0-5.0-2.0-1.38"	"an6dho"	"600"	"1366"	"chrome"	"109.0.0"	"FALSE"	"Windows 10"	"60.77"	"017"	n/a	n/a	n/a	n/a	n/a	n/a	"Trial"	n/a	n/a	n/a	"545"	"arrowup"	n/a	"NULL"	"NULL"	"NULL"	"stimuli/MullerLyer_-2.3000_0.23665.png"	n/a	"MullerLyer"	"arrowup"	"1093"	"TRUE"	"MullerLyer"	"-2.300000000"	"0.2366500000"	"1"	"57"
n/a	"html-keyboard-response"	"131"	"373718"	"0.0-5.0-2.0-0.39"	"an6dho"	"600"	"1366"	"chrome"	"109.0.0"	"FALSE"	"Windows 10"	"60.77"	"017"	n/a	n/a	n/a	n/a	n/a	n/a	"fixation"	n/a	n/a	n/a	n/a	"NULL"	n/a	"NULL"	"NULL"	"NULL"	"<p style=\"color: black; font-size: 80px; padding-left: 4%; padding-right: 9%; padding-top: 38%; padding-bottom: 18%\">+</p>"	"1350"	n/a	n/a	n/a	n/a	n/a	n/a	n/a	n/a	n/a
n/a	"image-keyboard-response"	"132"	"374489"	"0.0-5.0-2.0-1.39"	"an6dho"	"600"	"1366"	"chrome"	"109.0.0"	"FALSE"	"Windows 10"	"60.77"	"017"	n/a	n/a	n/a	n/a	n/a	n/a	"Trial"	n/a	n/a	n/a	"769"	"arrowdown"	n/a	"NULL"	"NULL"	"NULL"	"stimuli/MullerLyer_-2.3000_-0.14541.png"	n/a	"MullerLyer"	"arrowdown"	"1365"	"TRUE"	"MullerLyer"	"-2.300000000"	"-0.145410000"	"1"	"58"
n/a	"html-keyboard-response"	"133"	"375831"	"0.0-5.0-2.0-0.40"	"an6dho"	"600"	"1366"	"chrome"	"109.0.0"	"FALSE"	"Windows 10"	"60.77"	"017"	n/a	n/a	n/a	n/a	n/a	n/a	"fixation"	n/a	n/a	n/a	n/a	"NULL"	n/a	"NULL"	"NULL"	"NULL"	"<p style=\"color: black; font-size: 80px; padding-left: 15%; padding-right: 20%; padding-top: 49%; padding-bottom: 41%\">+</p>"	"1327"	n/a	n/a	n/a	n/a	n/a	n/a	n/a	n/a	n/a
n/a	"image-keyboard-response"	"134"	"376332"	"0.0-5.0-2.0-1.40"	"an6dho"	"600"	"1366"	"chrome"	"109.0.0"	"FALSE"	"Windows 10"	"60.77"	"017"	n/a	n/a	n/a	n/a	n/a	n/a	"Trial"	n/a	n/a	n/a	"499"	"arrowup"	n/a	"NULL"	"NULL"	"NULL"	"stimuli/MullerLyer_-8.21429_0.23665.png"	n/a	"MullerLyer"	"arrowup"	"1342"	"TRUE"	"MullerLyer"	"-8.214290000"	"0.2366500000"	"1"	"59"
n/a	"html-keyboard-response"	"135"	"377841"	"0.0-5.0-2.0-0.41"	"an6dho"	"600"	"1366"	"chrome"	"109.0.0"	"FALSE"	"Windows 10"	"60.77"	"017"	n/a	n/a	n/a	n/a	n/a	n/a	"fixation"	n/a	n/a	n/a	n/a	"NULL"	n/a	"NULL"	"NULL"	"NULL"	"<p style=\"color: black; font-size: 80px; padding-left: 46%; padding-right: 19%; padding-top: 36%; padding-bottom: 17%\">+</p>"	"1489"	n/a	n/a	n/a	n/a	n/a	n/a	n/a	n/a	n/a
n/a	"image-keyboard-response"	"136"	"378233"	"0.0-5.0-2.0-1.41"	"an6dho"	"600"	"1366"	"chrome"	"109.0.0"	"FALSE"	"Windows 10"	"60.77"	"017"	n/a	n/a	n/a	n/a	n/a	n/a	"Trial"	n/a	n/a	n/a	"392"	"arrowup"	n/a	"NULL"	"NULL"	"NULL"	"stimuli/MullerLyer_2.30000_0.35000.png"	n/a	"MullerLyer"	"arrowup"	"1509"	"TRUE"	"MullerLyer"	"2.3000000000"	"0.3500000000"	"1"	"60"
n/a	"html-keyboard-response"	"137"	"379307"	"0.0-5.0-2.0-0.42"	"an6dho"	"600"	"1366"	"chrome"	"109.0.0"	"FALSE"	"Windows 10"	"60.77"	"017"	n/a	n/a	n/a	n/a	n/a	n/a	"fixation"	n/a	n/a	n/a	n/a	"NULL"	n/a	"NULL"	"NULL"	"NULL"	"<p style=\"color: black; font-size: 80px; padding-left: 33%; padding-right: 19%; padding-top: 15%; padding-bottom: 9%\">+</p>"	"1055"	n/a	n/a	n/a	n/a	n/a	n/a	n/a	n/a	n/a
n/a	"image-keyboard-response"	"138"	"379796"	"0.0-5.0-2.0-1.42"	"an6dho"	"600"	"1366"	"chrome"	"109.0.0"	"FALSE"	"Windows 10"	"60.77"	"017"	n/a	n/a	n/a	n/a	n/a	n/a	"Trial"	n/a	n/a	n/a	"487"	"arrowup"	n/a	"NULL"	"NULL"	"NULL"	"stimuli/MullerLyer_14.12857_0.14541.png"	n/a	"MullerLyer"	"arrowup"	"1074"	"TRUE"	"MullerLyer"	"14.128570000"	"0.1454100000"	"1"	"61"
n/a	"html-keyboard-response"	"139"	"380827"	"0.0-5.0-2.0-0.43"	"an6dho"	"600"	"1366"	"chrome"	"109.0.0"	"FALSE"	"Windows 10"	"60.77"	"017"	n/a	n/a	n/a	n/a	n/a	n/a	"fixation"	n/a	n/a	n/a	n/a	"NULL"	n/a	"NULL"	"NULL"	"NULL"	"<p style=\"color: black; font-size: 80px; padding-left: 41%; padding-right: 7%; padding-top: 3%; padding-bottom: 32%\">+</p>"	"1011"	n/a	n/a	n/a	n/a	n/a	n/a	n/a	n/a	n/a
n/a	"image-keyboard-response"	"140"	"381357"	"0.0-5.0-2.0-1.43"	"an6dho"	"600"	"1366"	"chrome"	"109.0.0"	"FALSE"	"Windows 10"	"60.77"	"017"	n/a	n/a	n/a	n/a	n/a	n/a	"Trial"	n/a	n/a	n/a	"529"	"arrowdown"	n/a	"NULL"	"NULL"	"NULL"	"stimuli/MullerLyer_-2.3000_-0.07627.png"	n/a	"MullerLyer"	"arrowdown"	"1031"	"TRUE"	"MullerLyer"	"-2.300000000"	"-0.076270000"	"1"	"62"
n/a	"html-keyboard-response"	"141"	"382443"	"0.0-5.0-2.0-0.44"	"an6dho"	"600"	"1366"	"chrome"	"109.0.0"	"FALSE"	"Windows 10"	"60.77"	"017"	n/a	n/a	n/a	n/a	n/a	n/a	"fixation"	n/a	n/a	n/a	n/a	"NULL"	n/a	"NULL"	"NULL"	"NULL"	"<p style=\"color: black; font-size: 80px; padding-left: 23%; padding-right: 46%; padding-top: 8%; padding-bottom: 23%\">+</p>"	"1077"	n/a	n/a	n/a	n/a	n/a	n/a	n/a	n/a	n/a
n/a	"image-keyboard-response"	"142"	"382897"	"0.0-5.0-2.0-1.44"	"an6dho"	"600"	"1366"	"chrome"	"109.0.0"	"FALSE"	"Windows 10"	"60.77"	"017"	n/a	n/a	n/a	n/a	n/a	n/a	"Trial"	n/a	n/a	n/a	"453"	"arrowup"	n/a	"NULL"	"NULL"	"NULL"	"stimuli/MullerLyer_8.21429_0.14541.png"	n/a	"MullerLyer"	"arrowup"	"1086"	"TRUE"	"MullerLyer"	"8.2142900000"	"0.1454100000"	"1"	"63"
n/a	"html-keyboard-response"	"143"	"384103"	"0.0-5.0-2.0-0.45"	"an6dho"	"600"	"1366"	"chrome"	"109.0.0"	"FALSE"	"Windows 10"	"60.77"	"017"	n/a	n/a	n/a	n/a	n/a	n/a	"fixation"	n/a	n/a	n/a	n/a	"NULL"	n/a	"NULL"	"NULL"	"NULL"	"<p style=\"color: black; font-size: 80px; padding-left: 6%; padding-right: 19%; padding-top: 22%; padding-bottom: 30%\">+</p>"	"1193"	n/a	n/a	n/a	n/a	n/a	n/a	n/a	n/a	n/a
n/a	"image-keyboard-response"	"144"	"384982"	"0.0-5.0-2.0-1.45"	"an6dho"	"600"	"1366"	"chrome"	"109.0.0"	"FALSE"	"Windows 10"	"60.77"	"017"	n/a	n/a	n/a	n/a	n/a	n/a	"Trial"	n/a	n/a	n/a	"878"	"arrowdown"	n/a	"NULL"	"NULL"	"NULL"	"stimuli/MullerLyer_2.30000_-0.07627.png"	n/a	"MullerLyer"	"arrowdown"	"1206"	"TRUE"	"MullerLyer"	"2.3000000000"	"-0.076270000"	"1"	"64"
n/a	"html-keyboard-response"	"145"	"386438"	"0.0-5.0-2.0-0.46"	"an6dho"	"600"	"1366"	"chrome"	"109.0.0"	"FALSE"	"Windows 10"	"60.77"	"017"	n/a	n/a	n/a	n/a	n/a	n/a	"fixation"	n/a	n/a	n/a	n/a	"NULL"	n/a	"NULL"	"NULL"	"NULL"	"<p style=\"color: black; font-size: 80px; padding-left: 17%; padding-right: 46%; padding-top: 15%; padding-bottom: 11%\">+</p>"	"1448"	n/a	n/a	n/a	n/a	n/a	n/a	n/a	n/a	n/a
n/a	"image-keyboard-response"	"146"	"387179"	"0.0-5.0-2.0-1.46"	"an6dho"	"600"	"1366"	"chrome"	"109.0.0"	"FALSE"	"Windows 10"	"60.77"	"017"	n/a	n/a	n/a	n/a	n/a	n/a	"Trial"	n/a	n/a	n/a	"740"	"arrowdown"	n/a	"NULL"	"NULL"	"NULL"	"stimuli/MullerLyer_-8.21429_-0.14541.png"	n/a	"MullerLyer"	"arrowdown"	"1456"	"TRUE"	"MullerLyer"	"-8.214290000"	"-0.145410000"	"1"	"65"
n/a	"html-keyboard-response"	"147"	"388464"	"0.0-5.0-2.0-0.47"	"an6dho"	"600"	"1366"	"chrome"	"109.0.0"	"FALSE"	"Windows 10"	"60.77"	"017"	n/a	n/a	n/a	n/a	n/a	n/a	"fixation"	n/a	n/a	n/a	n/a	"NULL"	n/a	"NULL"	"NULL"	"NULL"	"<p style=\"color: black; font-size: 80px; padding-left: 42%; padding-right: 48%; padding-top: 2%; padding-bottom: 4%\">+</p>"	"1276"	n/a	n/a	n/a	n/a	n/a	n/a	n/a	n/a	n/a
n/a	"image-keyboard-response"	"148"	"389108"	"0.0-5.0-2.0-1.47"	"an6dho"	"600"	"1366"	"chrome"	"109.0.0"	"FALSE"	"Windows 10"	"60.77"	"017"	n/a	n/a	n/a	n/a	n/a	n/a	"Trial"	n/a	n/a	n/a	"643"	"arrowup"	n/a	"NULL"	"NULL"	"NULL"	"stimuli/MullerLyer_-2.3000_0.14541.png"	n/a	"MullerLyer"	"arrowup"	"1285"	"TRUE"	"MullerLyer"	"-2.300000000"	"0.1454100000"	"1"	"66"
n/a	"html-keyboard-response"	"149"	"390151"	"0.0-5.0-2.0-0.48"	"an6dho"	"600"	"1366"	"chrome"	"109.0.0"	"FALSE"	"Windows 10"	"60.77"	"017"	n/a	n/a	n/a	n/a	n/a	n/a	"fixation"	n/a	n/a	n/a	n/a	"NULL"	n/a	"NULL"	"NULL"	"NULL"	"<p style=\"color: black; font-size: 80px; padding-left: 34%; padding-right: 25%; padding-top: 27%; padding-bottom: 13%\">+</p>"	"1032"	n/a	n/a	n/a	n/a	n/a	n/a	n/a	n/a	n/a
n/a	"image-keyboard-response"	"150"	"390801"	"0.0-5.0-2.0-1.48"	"an6dho"	"600"	"1366"	"chrome"	"109.0.0"	"FALSE"	"Windows 10"	"60.77"	"017"	n/a	n/a	n/a	n/a	n/a	n/a	"Trial"	n/a	n/a	n/a	"650"	"arrowdown"	n/a	"NULL"	"NULL"	"NULL"	"stimuli/MullerLyer_-14.12857_-0.07627.png"	n/a	"MullerLyer"	"arrowdown"	"1043"	"TRUE"	"MullerLyer"	"-14.12857000"	"-0.076270000"	"1"	"67"
n/a	"html-keyboard-response"	"151"	"391954"	"0.0-5.0-2.0-0.49"	"an6dho"	"600"	"1366"	"chrome"	"109.0.0"	"FALSE"	"Windows 10"	"60.77"	"017"	n/a	n/a	n/a	n/a	n/a	n/a	"fixation"	n/a	n/a	n/a	n/a	"NULL"	n/a	"NULL"	"NULL"	"NULL"	"<p style=\"color: black; font-size: 80px; padding-left: 14%; padding-right: 9%; padding-top: 35%; padding-bottom: 23%\">+</p>"	"1131"	n/a	n/a	n/a	n/a	n/a	n/a	n/a	n/a	n/a
n/a	"image-keyboard-response"	"152"	"392500"	"0.0-5.0-2.0-1.49"	"an6dho"	"600"	"1366"	"chrome"	"109.0.0"	"FALSE"	"Windows 10"	"60.77"	"017"	n/a	n/a	n/a	n/a	n/a	n/a	"Trial"	n/a	n/a	n/a	"545"	"arrowdown"	n/a	"NULL"	"NULL"	"NULL"	"stimuli/MullerLyer_20.04286_0.07627.png"	n/a	"MullerLyer"	"arrowup"	"1153"	"FALSE"	"MullerLyer"	"20.042860000"	"0.0762700000"	"1"	"68"
n/a	"html-keyboard-response"	"153"	"393748"	"0.0-5.0-2.0-0.50"	"an6dho"	"600"	"1366"	"chrome"	"109.0.0"	"FALSE"	"Windows 10"	"60.77"	"017"	n/a	n/a	n/a	n/a	n/a	n/a	"fixation"	n/a	n/a	n/a	n/a	"NULL"	n/a	"NULL"	"NULL"	"NULL"	"<p style=\"color: black; font-size: 80px; padding-left: 0%; padding-right: 20%; padding-top: 41%; padding-bottom: 15%\">+</p>"	"1233"	n/a	n/a	n/a	n/a	n/a	n/a	n/a	n/a	n/a
n/a	"image-keyboard-response"	"154"	"394188"	"0.0-5.0-2.0-1.50"	"an6dho"	"600"	"1366"	"chrome"	"109.0.0"	"FALSE"	"Windows 10"	"60.77"	"017"	n/a	n/a	n/a	n/a	n/a	n/a	"Trial"	n/a	n/a	n/a	"439"	"arrowup"	n/a	"NULL"	"NULL"	"NULL"	"stimuli/MullerLyer_-8.21429_0.14541.png"	n/a	"MullerLyer"	"arrowup"	"1248"	"TRUE"	"MullerLyer"	"-8.214290000"	"0.1454100000"	"1"	"69"
n/a	"html-keyboard-response"	"155"	"395523"	"0.0-5.0-2.0-0.51"	"an6dho"	"600"	"1366"	"chrome"	"109.0.0"	"FALSE"	"Windows 10"	"60.77"	"017"	n/a	n/a	n/a	n/a	n/a	n/a	"fixation"	n/a	n/a	n/a	n/a	"NULL"	n/a	"NULL"	"NULL"	"NULL"	"<p style=\"color: black; font-size: 80px; padding-left: 18%; padding-right: 29%; padding-top: 16%; padding-bottom: 40%\">+</p>"	"1320"	n/a	n/a	n/a	n/a	n/a	n/a	n/a	n/a	n/a
n/a	"image-keyboard-response"	"156"	"396039"	"0.0-5.0-2.0-1.51"	"an6dho"	"600"	"1366"	"chrome"	"109.0.0"	"FALSE"	"Windows 10"	"60.77"	"017"	n/a	n/a	n/a	n/a	n/a	n/a	"Trial"	n/a	n/a	n/a	"515"	"arrowup"	n/a	"NULL"	"NULL"	"NULL"	"stimuli/MullerLyer_2.30000_0.14541.png"	n/a	"MullerLyer"	"arrowup"	"1335"	"TRUE"	"MullerLyer"	"2.3000000000"	"0.1454100000"	"1"	"70"
n/a	"html-keyboard-response"	"157"	"397378"	"0.0-5.0-2.0-0.52"	"an6dho"	"600"	"1366"	"chrome"	"109.0.0"	"FALSE"	"Windows 10"	"60.77"	"017"	n/a	n/a	n/a	n/a	n/a	n/a	"fixation"	n/a	n/a	n/a	n/a	"NULL"	n/a	"NULL"	"NULL"	"NULL"	"<p style=\"color: black; font-size: 80px; padding-left: 18%; padding-right: 45%; padding-top: 2%; padding-bottom: 41%\">+</p>"	"1318"	n/a	n/a	n/a	n/a	n/a	n/a	n/a	n/a	n/a
n/a	"image-keyboard-response"	"158"	"397976"	"0.0-5.0-2.0-1.52"	"an6dho"	"600"	"1366"	"chrome"	"109.0.0"	"FALSE"	"Windows 10"	"60.77"	"017"	n/a	n/a	n/a	n/a	n/a	n/a	"Trial"	n/a	n/a	n/a	"597"	"arrowup"	n/a	"NULL"	"NULL"	"NULL"	"stimuli/MullerLyer_14.12857_-0.14541.png"	n/a	"MullerLyer"	"arrowdown"	"1339"	"FALSE"	"MullerLyer"	"14.128570000"	"-0.145410000"	"1"	"71"
n/a	"html-keyboard-response"	"159"	"399325"	"0.0-5.0-2.0-0.53"	"an6dho"	"600"	"1366"	"chrome"	"109.0.0"	"FALSE"	"Windows 10"	"60.77"	"017"	n/a	n/a	n/a	n/a	n/a	n/a	"fixation"	n/a	n/a	n/a	n/a	"NULL"	n/a	"NULL"	"NULL"	"NULL"	"<p style=\"color: black; font-size: 80px; padding-left: 45%; padding-right: 19%; padding-top: 39%; padding-bottom: 5%\">+</p>"	"1333"	n/a	n/a	n/a	n/a	n/a	n/a	n/a	n/a	n/a
n/a	"image-keyboard-response"	"160"	"399904"	"0.0-5.0-2.0-1.53"	"an6dho"	"600"	"1366"	"chrome"	"109.0.0"	"FALSE"	"Windows 10"	"60.77"	"017"	n/a	n/a	n/a	n/a	n/a	n/a	"Trial"	n/a	n/a	n/a	"578"	"arrowdown"	n/a	"NULL"	"NULL"	"NULL"	"stimuli/MullerLyer_-2.3000_-0.23665.png"	n/a	"MullerLyer"	"arrowdown"	"1349"	"TRUE"	"MullerLyer"	"-2.300000000"	"-0.236650000"	"1"	"72"
n/a	"html-keyboard-response"	"161"	"401049"	"0.0-5.0-2.0-0.54"	"an6dho"	"600"	"1366"	"chrome"	"109.0.0"	"FALSE"	"Windows 10"	"60.77"	"017"	n/a	n/a	n/a	n/a	n/a	n/a	"fixation"	n/a	n/a	n/a	n/a	"NULL"	n/a	"NULL"	"NULL"	"NULL"	"<p style=\"color: black; font-size: 80px; padding-left: 10%; padding-right: 13%; padding-top: 11%; padding-bottom: 30%\">+</p>"	"1129"	n/a	n/a	n/a	n/a	n/a	n/a	n/a	n/a	n/a
n/a	"image-keyboard-response"	"162"	"401572"	"0.0-5.0-2.0-1.54"	"an6dho"	"600"	"1366"	"chrome"	"109.0.0"	"FALSE"	"Windows 10"	"60.77"	"017"	n/a	n/a	n/a	n/a	n/a	n/a	"Trial"	n/a	n/a	n/a	"522"	"arrowup"	n/a	"NULL"	"NULL"	"NULL"	"stimuli/MullerLyer_-20.04286_0.14541.png"	n/a	"MullerLyer"	"arrowup"	"1145"	"TRUE"	"MullerLyer"	"-20.04286000"	"0.1454100000"	"1"	"73"
n/a	"html-keyboard-response"	"163"	"402771"	"0.0-5.0-2.0-0.55"	"an6dho"	"600"	"1366"	"chrome"	"109.0.0"	"FALSE"	"Windows 10"	"60.77"	"017"	n/a	n/a	n/a	n/a	n/a	n/a	"fixation"	n/a	n/a	n/a	n/a	"NULL"	n/a	"NULL"	"NULL"	"NULL"	"<p style=\"color: black; font-size: 80px; padding-left: 7%; padding-right: 38%; padding-top: 8%; padding-bottom: 12%\">+</p>"	"1180"	n/a	n/a	n/a	n/a	n/a	n/a	n/a	n/a	n/a
n/a	"image-keyboard-response"	"164"	"403254"	"0.0-5.0-2.0-1.55"	"an6dho"	"600"	"1366"	"chrome"	"109.0.0"	"FALSE"	"Windows 10"	"60.77"	"017"	n/a	n/a	n/a	n/a	n/a	n/a	"Trial"	n/a	n/a	n/a	"482"	"arrowup"	n/a	"NULL"	"NULL"	"NULL"	"stimuli/MullerLyer_-14.12857_0.07627.png"	n/a	"MullerLyer"	"arrowup"	"1199"	"TRUE"	"MullerLyer"	"-14.12857000"	"0.0762700000"	"1"	"74"
n/a	"html-keyboard-response"	"165"	"404484"	"0.0-5.0-2.0-0.56"	"an6dho"	"600"	"1366"	"chrome"	"109.0.0"	"FALSE"	"Windows 10"	"60.77"	"017"	n/a	n/a	n/a	n/a	n/a	n/a	"fixation"	n/a	n/a	n/a	n/a	"NULL"	n/a	"NULL"	"NULL"	"NULL"	"<p style=\"color: black; font-size: 80px; padding-left: 7%; padding-right: 3%; padding-top: 16%; padding-bottom: 36%\">+</p>"	"1215"	n/a	n/a	n/a	n/a	n/a	n/a	n/a	n/a	n/a
n/a	"image-keyboard-response"	"166"	"405112"	"0.0-5.0-2.0-1.56"	"an6dho"	"600"	"1366"	"chrome"	"109.0.0"	"FALSE"	"Windows 10"	"60.77"	"017"	n/a	n/a	n/a	n/a	n/a	n/a	"Trial"	n/a	n/a	n/a	"627"	"arrowdown"	n/a	"NULL"	"NULL"	"NULL"	"stimuli/MullerLyer_-2.3000_0.07627.png"	n/a	"MullerLyer"	"arrowup"	"1230"	"FALSE"	"MullerLyer"	"-2.300000000"	"0.0762700000"	"1"	"75"
n/a	"html-keyboard-response"	"167"	"406263"	"0.0-5.0-2.0-0.57"	"an6dho"	"600"	"1366"	"chrome"	"109.0.0"	"FALSE"	"Windows 10"	"60.77"	"017"	n/a	n/a	n/a	n/a	n/a	n/a	"fixation"	n/a	n/a	n/a	n/a	"NULL"	n/a	"NULL"	"NULL"	"NULL"	"<p style=\"color: black; font-size: 80px; padding-left: 44%; padding-right: 38%; padding-top: 37%; padding-bottom: 13%\">+</p>"	"1147"	n/a	n/a	n/a	n/a	n/a	n/a	n/a	n/a	n/a
n/a	"image-keyboard-response"	"168"	"406997"	"0.0-5.0-2.0-1.57"	"an6dho"	"600"	"1366"	"chrome"	"109.0.0"	"FALSE"	"Windows 10"	"60.77"	"017"	n/a	n/a	n/a	n/a	n/a	n/a	"Trial"	n/a	n/a	n/a	"733"	"arrowup"	n/a	"NULL"	"NULL"	"NULL"	"stimuli/MullerLyer_-20.04286_-0.23665.png"	n/a	"MullerLyer"	"arrowdown"	"1151"	"FALSE"	"MullerLyer"	"-20.04286000"	"-0.236650000"	"1"	"76"
n/a	"html-keyboard-response"	"169"	"408084"	"0.0-5.0-2.0-0.58"	"an6dho"	"600"	"1366"	"chrome"	"109.0.0"	"FALSE"	"Windows 10"	"60.77"	"017"	n/a	n/a	n/a	n/a	n/a	n/a	"fixation"	n/a	n/a	n/a	n/a	"NULL"	n/a	"NULL"	"NULL"	"NULL"	"<p style=\"color: black; font-size: 80px; padding-left: 20%; padding-right: 17%; padding-top: 45%; padding-bottom: 24%\">+</p>"	"1068"	n/a	n/a	n/a	n/a	n/a	n/a	n/a	n/a	n/a
n/a	"image-keyboard-response"	"170"	"408654"	"0.0-5.0-2.0-1.58"	"an6dho"	"600"	"1366"	"chrome"	"109.0.0"	"FALSE"	"Windows 10"	"60.77"	"017"	n/a	n/a	n/a	n/a	n/a	n/a	"Trial"	n/a	n/a	n/a	"569"	"arrowup"	n/a	"NULL"	"NULL"	"NULL"	"stimuli/MullerLyer_20.04286_0.23665.png"	n/a	"MullerLyer"	"arrowup"	"1087"	"TRUE"	"MullerLyer"	"20.042860000"	"0.2366500000"	"1"	"77"
n/a	"html-keyboard-response"	"171"	"410037"	"0.0-5.0-2.0-0.59"	"an6dho"	"600"	"1366"	"chrome"	"109.0.0"	"FALSE"	"Windows 10"	"60.77"	"017"	n/a	n/a	n/a	n/a	n/a	n/a	"fixation"	n/a	n/a	n/a	n/a	"NULL"	n/a	"NULL"	"NULL"	"NULL"	"<p style=\"color: black; font-size: 80px; padding-left: 13%; padding-right: 31%; padding-top: 5%; padding-bottom: 49%\">+</p>"	"1372"	n/a	n/a	n/a	n/a	n/a	n/a	n/a	n/a	n/a
n/a	"image-keyboard-response"	"172"	"410573"	"0.0-5.0-2.0-1.59"	"an6dho"	"600"	"1366"	"chrome"	"109.0.0"	"FALSE"	"Windows 10"	"60.77"	"017"	n/a	n/a	n/a	n/a	n/a	n/a	"Trial"	n/a	n/a	n/a	"535"	"arrowdown"	n/a	"NULL"	"NULL"	"NULL"	"stimuli/MullerLyer_-8.21429_-0.3500.png"	n/a	"MullerLyer"	"arrowdown"	"1383"	"TRUE"	"MullerLyer"	"-8.214290000"	"-0.350000000"	"1"	"78"
n/a	"html-keyboard-response"	"173"	"412081"	"0.0-5.0-2.0-0.60"	"an6dho"	"600"	"1366"	"chrome"	"109.0.0"	"FALSE"	"Windows 10"	"60.77"	"017"	n/a	n/a	n/a	n/a	n/a	n/a	"fixation"	n/a	n/a	n/a	n/a	"NULL"	n/a	"NULL"	"NULL"	"NULL"	"<p style=\"color: black; font-size: 80px; padding-left: 28%; padding-right: 38%; padding-top: 45%; padding-bottom: 39%\">+</p>"	"1500"	n/a	n/a	n/a	n/a	n/a	n/a	n/a	n/a	n/a
n/a	"image-keyboard-response"	"174"	"412722"	"0.0-5.0-2.0-1.60"	"an6dho"	"600"	"1366"	"chrome"	"109.0.0"	"FALSE"	"Windows 10"	"60.77"	"017"	n/a	n/a	n/a	n/a	n/a	n/a	"Trial"	n/a	n/a	n/a	"640"	"arrowup"	n/a	"NULL"	"NULL"	"NULL"	"stimuli/MullerLyer_8.21429_-0.07627.png"	n/a	"MullerLyer"	"arrowdown"	"1508"	"FALSE"	"MullerLyer"	"8.2142900000"	"-0.076270000"	"1"	"79"
n/a	"html-keyboard-response"	"175"	"414016"	"0.0-5.0-2.0-0.61"	"an6dho"	"600"	"1366"	"chrome"	"109.0.0"	"FALSE"	"Windows 10"	"60.77"	"017"	n/a	n/a	n/a	n/a	n/a	n/a	"fixation"	n/a	n/a	n/a	n/a	"NULL"	n/a	"NULL"	"NULL"	"NULL"	"<p style=\"color: black; font-size: 80px; padding-left: 7%; padding-right: 12%; padding-top: 5%; padding-bottom: 27%\">+</p>"	"1283"	n/a	n/a	n/a	n/a	n/a	n/a	n/a	n/a	n/a
n/a	"image-keyboard-response"	"176"	"414571"	"0.0-5.0-2.0-1.61"	"an6dho"	"600"	"1366"	"chrome"	"109.0.0"	"FALSE"	"Windows 10"	"60.77"	"017"	n/a	n/a	n/a	n/a	n/a	n/a	"Trial"	n/a	n/a	n/a	"554"	"arrowup"	n/a	"NULL"	"NULL"	"NULL"	"stimuli/MullerLyer_2.30000_0.23665.png"	n/a	"MullerLyer"	"arrowup"	"1294"	"TRUE"	"MullerLyer"	"2.3000000000"	"0.2366500000"	"1"	"80"
n/a	"html-keyboard-response"	"177"	"415985"	"0.0-5.0-2.0-0.62"	"an6dho"	"600"	"1366"	"chrome"	"109.0.0"	"FALSE"	"Windows 10"	"60.77"	"017"	n/a	n/a	n/a	n/a	n/a	n/a	"fixation"	n/a	n/a	n/a	n/a	"NULL"	n/a	"NULL"	"NULL"	"NULL"	"<p style=\"color: black; font-size: 80px; padding-left: 47%; padding-right: 27%; padding-top: 8%; padding-bottom: 9%\">+</p>"	"1396"	n/a	n/a	n/a	n/a	n/a	n/a	n/a	n/a	n/a
n/a	"image-keyboard-response"	"178"	"416557"	"0.0-5.0-2.0-1.62"	"an6dho"	"600"	"1366"	"chrome"	"109.0.0"	"FALSE"	"Windows 10"	"60.77"	"017"	n/a	n/a	n/a	n/a	n/a	n/a	"Trial"	n/a	n/a	n/a	"570"	"arrowdown"	n/a	"NULL"	"NULL"	"NULL"	"stimuli/MullerLyer_-2.3000_-0.3500.png"	n/a	"MullerLyer"	"arrowdown"	"1414"	"TRUE"	"MullerLyer"	"-2.300000000"	"-0.350000000"	"1"	"81"
n/a	"html-keyboard-response"	"179"	"417966"	"0.0-5.0-2.0-0.63"	"an6dho"	"600"	"1366"	"chrome"	"109.0.0"	"FALSE"	"Windows 10"	"60.77"	"017"	n/a	n/a	n/a	n/a	n/a	n/a	"fixation"	n/a	n/a	n/a	n/a	"NULL"	n/a	"NULL"	"NULL"	"NULL"	"<p style=\"color: black; font-size: 80px; padding-left: 3%; padding-right: 21%; padding-top: 20%; padding-bottom: 8%\">+</p>"	"1405"	n/a	n/a	n/a	n/a	n/a	n/a	n/a	n/a	n/a
n/a	"image-keyboard-response"	"180"	"418589"	"0.0-5.0-2.0-1.63"	"an6dho"	"600"	"1366"	"chrome"	"109.0.0"	"FALSE"	"Windows 10"	"60.77"	"017"	n/a	n/a	n/a	n/a	n/a	n/a	"Trial"	n/a	n/a	n/a	"621"	"arrowup"	n/a	"NULL"	"NULL"	"NULL"	"stimuli/MullerLyer_2.30000_-0.14541.png"	n/a	"MullerLyer"	"arrowdown"	"1409"	"FALSE"	"MullerLyer"	"2.3000000000"	"-0.145410000"	"1"	"82"
n/a	"html-button-response"	"181"	"434005"	"0.0-5.0-3.0"	"an6dho"	"600"	"1366"	"chrome"	"109.0.0"	"FALSE"	"Windows 10"	"60.77"	"017"	n/a	n/a	n/a	n/a	n/a	n/a	"block_results"	n/a	n/a	n/a	"15406"	"0"	n/a	"NULL"	"NULL"	"NULL"	"<p>Your score for this illusion is <p style=\"color: black; font-size: 48px; font-weight: bold;\">75.2 %</p><hr><p>Can you do better in the next illusion?</p>"	n/a	n/a	n/a	n/a	n/a	n/a	n/a	n/a	n/a	n/a
"TRUE"	"preload"	"182"	"434187"	"0.0-6.0-0.0"	"an6dho"	"600"	"1366"	"chrome"	"109.0.0"	"FALSE"	"Windows 10"	"60.77"	"017"	n/a	n/a	n/a	n/a	n/a	n/a	n/a	n/a	n/a	n/a	n/a	"NULL"	"FALSE"	"list()"	"list()"	"list()"	n/a	n/a	n/a	n/a	n/a	n/a	n/a	n/a	n/a	n/a	n/a
n/a	"html-keyboard-response"	"183"	"441783"	"0.0-6.0-1.0"	"an6dho"	"600"	"1366"	"chrome"	"109.0.0"	"FALSE"	"Windows 10"	"60.77"	"017"	n/a	n/a	n/a	n/a	n/a	n/a	n/a	n/a	n/a	n/a	"7595"	"enter"	n/a	"NULL"	"NULL"	"NULL"	"<p><b>Part 2/6</b></p><p>In this part, two red lines will appear side by side.</p><p>Your task is to tell <b>which line is longer</b> in length, regardless of their orientation, as fast as you can, and without making errors.</p><p>Don't get distracted by the orientation of the lines!</p><p>Press <b>the LEFT or the RIGHT arrow</b> to indicate which <b>line is the longer one.</b></p><div style='float: center'><img src='materials/instructions/VerticalHorizontal_Demo.png' height='300'></img><p><img src='utils/answer/answer_leftright_keyboard.PNG' height='150'></img></p><p class='small'>In this example, the correct answer is the <b>LEFT arrow</b>.</p></div><p>Are you ready? <b>Press ENTER to start</b></p>"	n/a	n/a	n/a	n/a	n/a	n/a	n/a	n/a	n/a	n/a
n/a	"html-keyboard-response"	"184"	"443574"	"0.0-6.0-2.0-0.0"	"an6dho"	"600"	"1366"	"chrome"	"109.0.0"	"FALSE"	"Windows 10"	"60.77"	"017"	n/a	n/a	n/a	n/a	n/a	n/a	"fixation"	n/a	n/a	n/a	n/a	"NULL"	n/a	"NULL"	"NULL"	"NULL"	"<p style=\"color: black; font-size: 80px; padding-left: 24%; padding-right: 39%; padding-top: 1%; padding-bottom: 22%\">+</p>"	"1268"	n/a	n/a	n/a	n/a	n/a	n/a	n/a	n/a	n/a
n/a	"image-keyboard-response"	"185"	"444338"	"0.0-6.0-2.0-1.0"	"an6dho"	"600"	"1366"	"chrome"	"109.0.0"	"FALSE"	"Windows 10"	"60.77"	"017"	n/a	n/a	n/a	n/a	n/a	n/a	"Trial"	n/a	n/a	n/a	"763"	"arrowright"	n/a	"NULL"	"NULL"	"NULL"	"stimuli/VerticalHorizontal_20.27143_0.16217.png"	n/a	"VerticalHorizontal"	"arrowleft"	"1791"	"FALSE"	"VerticalHorizontal"	"20.271430000"	"0.1621700000"	"2"	"1"
n/a	"html-keyboard-response"	"186"	"445533"	"0.0-6.0-2.0-0.1"	"an6dho"	"600"	"1366"	"chrome"	"109.0.0"	"FALSE"	"Windows 10"	"60.77"	"017"	n/a	n/a	n/a	n/a	n/a	n/a	"fixation"	n/a	n/a	n/a	n/a	"NULL"	n/a	"NULL"	"NULL"	"NULL"	"<p style=\"color: black; font-size: 80px; padding-left: 22%; padding-right: 45%; padding-top: 19%; padding-bottom: 36%\">+</p>"	"1189"	n/a	n/a	n/a	n/a	n/a	n/a	n/a	n/a	n/a
n/a	"image-keyboard-response"	"187"	"446239"	"0.0-6.0-2.0-1.1"	"an6dho"	"600"	"1366"	"chrome"	"109.0.0"	"FALSE"	"Windows 10"	"60.77"	"017"	n/a	n/a	n/a	n/a	n/a	n/a	"Trial"	n/a	n/a	n/a	"705"	"arrowleft"	n/a	"NULL"	"NULL"	"NULL"	"stimuli/VerticalHorizontal_28.75714_-0.0673.png"	n/a	"VerticalHorizontal"	"arrowright"	"1195"	"FALSE"	"VerticalHorizontal"	"28.757140000"	"-0.067300000"	"2"	"2"
n/a	"html-keyboard-response"	"188"	"447674"	"0.0-6.0-2.0-0.2"	"an6dho"	"600"	"1366"	"chrome"	"109.0.0"	"FALSE"	"Windows 10"	"60.77"	"017"	n/a	n/a	n/a	n/a	n/a	n/a	"fixation"	n/a	n/a	n/a	n/a	"NULL"	n/a	"NULL"	"NULL"	"NULL"	"<p style=\"color: black; font-size: 80px; padding-left: 38%; padding-right: 34%; padding-top: 38%; padding-bottom: 0%\">+</p>"	"1422"	n/a	n/a	n/a	n/a	n/a	n/a	n/a	n/a	n/a
n/a	"image-keyboard-response"	"189"	"448367"	"0.0-6.0-2.0-1.2"	"an6dho"	"600"	"1366"	"chrome"	"109.0.0"	"FALSE"	"Windows 10"	"60.77"	"017"	n/a	n/a	n/a	n/a	n/a	n/a	"Trial"	n/a	n/a	n/a	"692"	"arrowleft"	n/a	"NULL"	"NULL"	"NULL"	"stimuli/VerticalHorizontal_20.27143_-0.1096.png"	n/a	"VerticalHorizontal"	"arrowright"	"1435"	"FALSE"	"VerticalHorizontal"	"20.271430000"	"-0.109600000"	"2"	"3"
n/a	"html-keyboard-response"	"190"	"449834"	"0.0-6.0-2.0-0.3"	"an6dho"	"600"	"1366"	"chrome"	"109.0.0"	"FALSE"	"Windows 10"	"60.77"	"017"	n/a	n/a	n/a	n/a	n/a	n/a	"fixation"	n/a	n/a	n/a	n/a	"NULL"	n/a	"NULL"	"NULL"	"NULL"	"<p style=\"color: black; font-size: 80px; padding-left: 17%; padding-right: 32%; padding-top: 7%; padding-bottom: 17%\">+</p>"	"1461"	n/a	n/a	n/a	n/a	n/a	n/a	n/a	n/a	n/a
n/a	"image-keyboard-response"	"191"	"450550"	"0.0-6.0-2.0-1.3"	"an6dho"	"600"	"1366"	"chrome"	"109.0.0"	"FALSE"	"Windows 10"	"60.77"	"017"	n/a	n/a	n/a	n/a	n/a	n/a	"Trial"	n/a	n/a	n/a	"715"	"arrowleft"	n/a	"NULL"	"NULL"	"NULL"	"stimuli/VerticalHorizontal_-3.3000_0.16217.png"	n/a	"VerticalHorizontal"	"arrowleft"	"1467"	"TRUE"	"VerticalHorizontal"	"-3.300000000"	"0.1621700000"	"2"	"4"
n/a	"html-keyboard-response"	"192"	"451824"	"0.0-6.0-2.0-0.4"	"an6dho"	"600"	"1366"	"chrome"	"109.0.0"	"FALSE"	"Windows 10"	"60.77"	"017"	n/a	n/a	n/a	n/a	n/a	n/a	"fixation"	n/a	n/a	n/a	n/a	"NULL"	n/a	"NULL"	"NULL"	"NULL"	"<p style=\"color: black; font-size: 80px; padding-left: 7%; padding-right: 39%; padding-top: 37%; padding-bottom: 27%\">+</p>"	"1269"	n/a	n/a	n/a	n/a	n/a	n/a	n/a	n/a	n/a
n/a	"image-keyboard-response"	"193"	"452324"	"0.0-6.0-2.0-1.4"	"an6dho"	"600"	"1366"	"chrome"	"109.0.0"	"FALSE"	"Windows 10"	"60.77"	"017"	n/a	n/a	n/a	n/a	n/a	n/a	"Trial"	n/a	n/a	n/a	"499"	"arrowleft"	n/a	"NULL"	"NULL"	"NULL"	"stimuli/VerticalHorizontal_3.30000_-0.1096.png"	n/a	"VerticalHorizontal"	"arrowright"	"1274"	"FALSE"	"VerticalHorizontal"	"3.3000000000"	"-0.109600000"	"2"	"5"
n/a	"html-keyboard-response"	"194"	"453502"	"0.0-6.0-2.0-0.5"	"an6dho"	"600"	"1366"	"chrome"	"109.0.0"	"FALSE"	"Windows 10"	"60.77"	"017"	n/a	n/a	n/a	n/a	n/a	n/a	"fixation"	n/a	n/a	n/a	n/a	"NULL"	n/a	"NULL"	"NULL"	"NULL"	"<p style=\"color: black; font-size: 80px; padding-left: 30%; padding-right: 22%; padding-top: 45%; padding-bottom: 42%\">+</p>"	"1161"	n/a	n/a	n/a	n/a	n/a	n/a	n/a	n/a	n/a
n/a	"image-keyboard-response"	"195"	"454004"	"0.0-6.0-2.0-1.5"	"an6dho"	"600"	"1366"	"chrome"	"109.0.0"	"FALSE"	"Windows 10"	"60.77"	"017"	n/a	n/a	n/a	n/a	n/a	n/a	"Trial"	n/a	n/a	n/a	"500"	"arrowright"	n/a	"NULL"	"NULL"	"NULL"	"stimuli/VerticalHorizontal_-28.75714_-0.1096.png"	n/a	"VerticalHorizontal"	"arrowright"	"1178"	"TRUE"	"VerticalHorizontal"	"-28.75714000"	"-0.109600000"	"2"	"6"
n/a	"html-keyboard-response"	"196"	"455515"	"0.0-6.0-2.0-0.6"	"an6dho"	"600"	"1366"	"chrome"	"109.0.0"	"FALSE"	"Windows 10"	"60.77"	"017"	n/a	n/a	n/a	n/a	n/a	n/a	"fixation"	n/a	n/a	n/a	n/a	"NULL"	n/a	"NULL"	"NULL"	"NULL"	"<p style=\"color: black; font-size: 80px; padding-left: 13%; padding-right: 25%; padding-top: 37%; padding-bottom: 30%\">+</p>"	"1498"	n/a	n/a	n/a	n/a	n/a	n/a	n/a	n/a	n/a
n/a	"image-keyboard-response"	"197"	"456044"	"0.0-6.0-2.0-1.6"	"an6dho"	"600"	"1366"	"chrome"	"109.0.0"	"FALSE"	"Windows 10"	"60.77"	"017"	n/a	n/a	n/a	n/a	n/a	n/a	"Trial"	n/a	n/a	n/a	"529"	"arrowleft"	n/a	"NULL"	"NULL"	"NULL"	"stimuli/VerticalHorizontal_20.27143_0.10960.png"	n/a	"VerticalHorizontal"	"arrowleft"	"1511"	"TRUE"	"VerticalHorizontal"	"20.271430000"	"0.1096000000"	"2"	"7"
n/a	"html-keyboard-response"	"198"	"457160"	"0.0-6.0-2.0-0.7"	"an6dho"	"600"	"1366"	"chrome"	"109.0.0"	"FALSE"	"Windows 10"	"60.77"	"017"	n/a	n/a	n/a	n/a	n/a	n/a	"fixation"	n/a	n/a	n/a	n/a	"NULL"	n/a	"NULL"	"NULL"	"NULL"	"<p style=\"color: black; font-size: 80px; padding-left: 42%; padding-right: 42%; padding-top: 5%; padding-bottom: 40%\">+</p>"	"1105"	n/a	n/a	n/a	n/a	n/a	n/a	n/a	n/a	n/a
n/a	"image-keyboard-response"	"199"	"457937"	"0.0-6.0-2.0-1.7"	"an6dho"	"600"	"1366"	"chrome"	"109.0.0"	"FALSE"	"Windows 10"	"60.77"	"017"	n/a	n/a	n/a	n/a	n/a	n/a	"Trial"	n/a	n/a	n/a	"777"	"arrowright"	n/a	"NULL"	"NULL"	"NULL"	"stimuli/VerticalHorizontal_-3.3000_-0.2250.png"	n/a	"VerticalHorizontal"	"arrowright"	"1116"	"TRUE"	"VerticalHorizontal"	"-3.300000000"	"-0.225000000"	"2"	"8"
n/a	"html-keyboard-response"	"200"	"459400"	"0.0-6.0-2.0-0.8"	"an6dho"	"600"	"1366"	"chrome"	"109.0.0"	"FALSE"	"Windows 10"	"60.77"	"017"	n/a	n/a	n/a	n/a	n/a	n/a	"fixation"	n/a	n/a	n/a	n/a	"NULL"	n/a	"NULL"	"NULL"	"NULL"	"<p style=\"color: black; font-size: 80px; padding-left: 42%; padding-right: 44%; padding-top: 35%; padding-bottom: 39%\">+</p>"	"1458"	n/a	n/a	n/a	n/a	n/a	n/a	n/a	n/a	n/a
n/a	"image-keyboard-response"	"201"	"460276"	"0.0-6.0-2.0-1.8"	"an6dho"	"600"	"1366"	"chrome"	"109.0.0"	"FALSE"	"Windows 10"	"60.77"	"017"	n/a	n/a	n/a	n/a	n/a	n/a	"Trial"	n/a	n/a	n/a	"875"	"arrowleft"	n/a	"NULL"	"NULL"	"NULL"	"stimuli/VerticalHorizontal_-20.27143_0.10960.png"	n/a	"VerticalHorizontal"	"arrowleft"	"1463"	"TRUE"	"VerticalHorizontal"	"-20.27143000"	"0.1096000000"	"2"	"9"
n/a	"html-keyboard-response"	"202"	"461302"	"0.0-6.0-2.0-0.9"	"an6dho"	"600"	"1366"	"chrome"	"109.0.0"	"FALSE"	"Windows 10"	"60.77"	"017"	n/a	n/a	n/a	n/a	n/a	n/a	"fixation"	n/a	n/a	n/a	n/a	"NULL"	n/a	"NULL"	"NULL"	"NULL"	"<p style=\"color: black; font-size: 80px; padding-left: 17%; padding-right: 3%; padding-top: 9%; padding-bottom: 44%\">+</p>"	"1016"	n/a	n/a	n/a	n/a	n/a	n/a	n/a	n/a	n/a
n/a	"image-keyboard-response"	"203"	"462412"	"0.0-6.0-2.0-1.9"	"an6dho"	"600"	"1366"	"chrome"	"109.0.0"	"FALSE"	"Windows 10"	"60.77"	"017"	n/a	n/a	n/a	n/a	n/a	n/a	"Trial"	n/a	n/a	n/a	"1109"	"arrowleft"	n/a	"NULL"	"NULL"	"NULL"	"stimuli/VerticalHorizontal_-11.78571_0.06730.png"	n/a	"VerticalHorizontal"	"arrowleft"	"1026"	"TRUE"	"VerticalHorizontal"	"-11.78571000"	"0.0673000000"	"2"	"10"
n/a	"html-keyboard-response"	"204"	"463753"	"0.0-6.0-2.0-0.10"	"an6dho"	"600"	"1366"	"chrome"	"109.0.0"	"FALSE"	"Windows 10"	"60.77"	"017"	n/a	n/a	n/a	n/a	n/a	n/a	"fixation"	n/a	n/a	n/a	n/a	"NULL"	n/a	"NULL"	"NULL"	"NULL"	"<p style=\"color: black; font-size: 80px; padding-left: 17%; padding-right: 46%; padding-top: 19%; padding-bottom: 26%\">+</p>"	"1322"	n/a	n/a	n/a	n/a	n/a	n/a	n/a	n/a	n/a
n/a	"image-keyboard-response"	"205"	"464677"	"0.0-6.0-2.0-1.10"	"an6dho"	"600"	"1366"	"chrome"	"109.0.0"	"FALSE"	"Windows 10"	"60.77"	"017"	n/a	n/a	n/a	n/a	n/a	n/a	"Trial"	n/a	n/a	n/a	"923"	"arrowright"	n/a	"NULL"	"NULL"	"NULL"	"stimuli/VerticalHorizontal_28.75714_-0.16217.png"	n/a	"VerticalHorizontal"	"arrowright"	"1341"	"TRUE"	"VerticalHorizontal"	"28.757140000"	"-0.162170000"	"2"	"11"
n/a	"html-keyboard-response"	"206"	"466057"	"0.0-6.0-2.0-0.11"	"an6dho"	"600"	"1366"	"chrome"	"109.0.0"	"FALSE"	"Windows 10"	"60.77"	"017"	n/a	n/a	n/a	n/a	n/a	n/a	"fixation"	n/a	n/a	n/a	n/a	"NULL"	n/a	"NULL"	"NULL"	"NULL"	"<p style=\"color: black; font-size: 80px; padding-left: 5%; padding-right: 32%; padding-top: 36%; padding-bottom: 31%\">+</p>"	"1365"	n/a	n/a	n/a	n/a	n/a	n/a	n/a	n/a	n/a
n/a	"image-keyboard-response"	"207"	"467016"	"0.0-6.0-2.0-1.11"	"an6dho"	"600"	"1366"	"chrome"	"109.0.0"	"FALSE"	"Windows 10"	"60.77"	"017"	n/a	n/a	n/a	n/a	n/a	n/a	"Trial"	n/a	n/a	n/a	"958"	"arrowleft"	n/a	"NULL"	"NULL"	"NULL"	"stimuli/VerticalHorizontal_-3.3000_-0.1096.png"	n/a	"VerticalHorizontal"	"arrowright"	"1380"	"FALSE"	"VerticalHorizontal"	"-3.300000000"	"-0.109600000"	"2"	"12"
n/a	"html-keyboard-response"	"208"	"468390"	"0.0-6.0-2.0-0.12"	"an6dho"	"600"	"1366"	"chrome"	"109.0.0"	"FALSE"	"Windows 10"	"60.77"	"017"	n/a	n/a	n/a	n/a	n/a	n/a	"fixation"	n/a	n/a	n/a	n/a	"NULL"	n/a	"NULL"	"NULL"	"NULL"	"<p style=\"color: black; font-size: 80px; padding-left: 41%; padding-right: 4%; padding-top: 18%; padding-bottom: 5%\">+</p>"	"1350"	n/a	n/a	n/a	n/a	n/a	n/a	n/a	n/a	n/a
n/a	"image-keyboard-response"	"209"	"469143"	"0.0-6.0-2.0-1.12"	"an6dho"	"600"	"1366"	"chrome"	"109.0.0"	"FALSE"	"Windows 10"	"60.77"	"017"	n/a	n/a	n/a	n/a	n/a	n/a	"Trial"	n/a	n/a	n/a	"752"	"arrowright"	n/a	"NULL"	"NULL"	"NULL"	"stimuli/VerticalHorizontal_-11.78571_-0.16217.png"	n/a	"VerticalHorizontal"	"arrowright"	"1374"	"TRUE"	"VerticalHorizontal"	"-11.78571000"	"-0.162170000"	"2"	"13"
n/a	"html-keyboard-response"	"210"	"470427"	"0.0-6.0-2.0-0.13"	"an6dho"	"600"	"1366"	"chrome"	"109.0.0"	"FALSE"	"Windows 10"	"60.77"	"017"	n/a	n/a	n/a	n/a	n/a	n/a	"fixation"	n/a	n/a	n/a	n/a	"NULL"	n/a	"NULL"	"NULL"	"NULL"	"<p style=\"color: black; font-size: 80px; padding-left: 39%; padding-right: 48%; padding-top: 29%; padding-bottom: 48%\">+</p>"	"1272"	n/a	n/a	n/a	n/a	n/a	n/a	n/a	n/a	n/a
n/a	"image-keyboard-response"	"211"	"471323"	"0.0-6.0-2.0-1.13"	"an6dho"	"600"	"1366"	"chrome"	"109.0.0"	"FALSE"	"Windows 10"	"60.77"	"017"	n/a	n/a	n/a	n/a	n/a	n/a	"Trial"	n/a	n/a	n/a	"896"	"arrowleft"	n/a	"NULL"	"NULL"	"NULL"	"stimuli/VerticalHorizontal_3.30000_0.22500.png"	n/a	"VerticalHorizontal"	"arrowleft"	"1284"	"TRUE"	"VerticalHorizontal"	"3.3000000000"	"0.2250000000"	"2"	"14"
n/a	"html-keyboard-response"	"212"	"472715"	"0.0-6.0-2.0-0.14"	"an6dho"	"600"	"1366"	"chrome"	"109.0.0"	"FALSE"	"Windows 10"	"60.77"	"017"	n/a	n/a	n/a	n/a	n/a	n/a	"fixation"	n/a	n/a	n/a	n/a	"NULL"	n/a	"NULL"	"NULL"	"NULL"	"<p style=\"color: black; font-size: 80px; padding-left: 10%; padding-right: 4%; padding-top: 38%; padding-bottom: 7%\">+</p>"	"1378"	n/a	n/a	n/a	n/a	n/a	n/a	n/a	n/a	n/a
n/a	"image-keyboard-response"	"213"	"473521"	"0.0-6.0-2.0-1.14"	"an6dho"	"600"	"1366"	"chrome"	"109.0.0"	"FALSE"	"Windows 10"	"60.77"	"017"	n/a	n/a	n/a	n/a	n/a	n/a	"Trial"	n/a	n/a	n/a	"805"	"arrowright"	n/a	"NULL"	"NULL"	"NULL"	"stimuli/VerticalHorizontal_-3.3000_-0.0673.png"	n/a	"VerticalHorizontal"	"arrowright"	"1392"	"TRUE"	"VerticalHorizontal"	"-3.300000000"	"-0.067300000"	"2"	"15"
n/a	"html-keyboard-response"	"214"	"474689"	"0.0-6.0-2.0-0.15"	"an6dho"	"600"	"1366"	"chrome"	"109.0.0"	"FALSE"	"Windows 10"	"60.77"	"017"	n/a	n/a	n/a	n/a	n/a	n/a	"fixation"	n/a	n/a	n/a	n/a	"NULL"	n/a	"NULL"	"NULL"	"NULL"	"<p style=\"color: black; font-size: 80px; padding-left: 45%; padding-right: 27%; padding-top: 38%; padding-bottom: 33%\">+</p>"	"1149"	n/a	n/a	n/a	n/a	n/a	n/a	n/a	n/a	n/a
n/a	"image-keyboard-response"	"215"	"475599"	"0.0-6.0-2.0-1.15"	"an6dho"	"600"	"1366"	"chrome"	"109.0.0"	"FALSE"	"Windows 10"	"60.77"	"017"	n/a	n/a	n/a	n/a	n/a	n/a	"Trial"	n/a	n/a	n/a	"909"	"arrowleft"	n/a	"NULL"	"NULL"	"NULL"	"stimuli/VerticalHorizontal_3.30000_0.10960.png"	n/a	"VerticalHorizontal"	"arrowleft"	"1168"	"TRUE"	"VerticalHorizontal"	"3.3000000000"	"0.1096000000"	"2"	"16"
n/a	"html-keyboard-response"	"216"	"476760"	"0.0-6.0-2.0-0.16"	"an6dho"	"600"	"1366"	"chrome"	"109.0.0"	"FALSE"	"Windows 10"	"60.77"	"017"	n/a	n/a	n/a	n/a	n/a	n/a	"fixation"	n/a	n/a	n/a	n/a	"NULL"	n/a	"NULL"	"NULL"	"NULL"	"<p style=\"color: black; font-size: 80px; padding-left: 14%; padding-right: 5%; padding-top: 17%; padding-bottom: 18%\">+</p>"	"1152"	n/a	n/a	n/a	n/a	n/a	n/a	n/a	n/a	n/a
n/a	"image-keyboard-response"	"217"	"477680"	"0.0-6.0-2.0-1.16"	"an6dho"	"600"	"1366"	"chrome"	"109.0.0"	"FALSE"	"Windows 10"	"60.77"	"017"	n/a	n/a	n/a	n/a	n/a	n/a	"Trial"	n/a	n/a	n/a	"919"	"arrowright"	n/a	"NULL"	"NULL"	"NULL"	"stimuli/VerticalHorizontal_-20.27143_-0.0673.png"	n/a	"VerticalHorizontal"	"arrowright"	"1161"	"TRUE"	"VerticalHorizontal"	"-20.27143000"	"-0.067300000"	"2"	"17"
n/a	"html-keyboard-response"	"218"	"479080"	"0.0-6.0-2.0-0.17"	"an6dho"	"600"	"1366"	"chrome"	"109.0.0"	"FALSE"	"Windows 10"	"60.77"	"017"	n/a	n/a	n/a	n/a	n/a	n/a	"fixation"	n/a	n/a	n/a	n/a	"NULL"	n/a	"NULL"	"NULL"	"NULL"	"<p style=\"color: black; font-size: 80px; padding-left: 1%; padding-right: 10%; padding-top: 29%; padding-bottom: 42%\">+</p>"	"1396"	n/a	n/a	n/a	n/a	n/a	n/a	n/a	n/a	n/a
n/a	"image-keyboard-response"	"219"	"479752"	"0.0-6.0-2.0-1.17"	"an6dho"	"600"	"1366"	"chrome"	"109.0.0"	"FALSE"	"Windows 10"	"60.77"	"017"	n/a	n/a	n/a	n/a	n/a	n/a	"Trial"	n/a	n/a	n/a	"671"	"arrowright"	n/a	"NULL"	"NULL"	"NULL"	"stimuli/VerticalHorizontal_-20.27143_-0.2250.png"	n/a	"VerticalHorizontal"	"arrowright"	"1400"	"TRUE"	"VerticalHorizontal"	"-20.27143000"	"-0.225000000"	"2"	"18"
n/a	"html-keyboard-response"	"220"	"480859"	"0.0-6.0-2.0-0.18"	"an6dho"	"600"	"1366"	"chrome"	"109.0.0"	"FALSE"	"Windows 10"	"60.77"	"017"	n/a	n/a	n/a	n/a	n/a	n/a	"fixation"	n/a	n/a	n/a	n/a	"NULL"	n/a	"NULL"	"NULL"	"NULL"	"<p style=\"color: black; font-size: 80px; padding-left: 27%; padding-right: 47%; padding-top: 32%; padding-bottom: 47%\">+</p>"	"1091"	n/a	n/a	n/a	n/a	n/a	n/a	n/a	n/a	n/a
n/a	"image-keyboard-response"	"221"	"481900"	"0.0-6.0-2.0-1.18"	"an6dho"	"600"	"1366"	"chrome"	"109.0.0"	"FALSE"	"Windows 10"	"60.77"	"017"	n/a	n/a	n/a	n/a	n/a	n/a	"Trial"	n/a	n/a	n/a	"1039"	"arrowleft"	n/a	"NULL"	"NULL"	"NULL"	"stimuli/VerticalHorizontal_-11.78571_-0.0673.png"	n/a	"VerticalHorizontal"	"arrowright"	"1107"	"FALSE"	"VerticalHorizontal"	"-11.78571000"	"-0.067300000"	"2"	"19"
n/a	"html-keyboard-response"	"222"	"483055"	"0.0-6.0-2.0-0.19"	"an6dho"	"600"	"1366"	"chrome"	"109.0.0"	"FALSE"	"Windows 10"	"60.77"	"017"	n/a	n/a	n/a	n/a	n/a	n/a	"fixation"	n/a	n/a	n/a	n/a	"NULL"	n/a	"NULL"	"NULL"	"NULL"	"<p style=\"color: black; font-size: 80px; padding-left: 38%; padding-right: 4%; padding-top: 30%; padding-bottom: 1%\">+</p>"	"1138"	n/a	n/a	n/a	n/a	n/a	n/a	n/a	n/a	n/a
n/a	"image-keyboard-response"	"223"	"483965"	"0.0-6.0-2.0-1.19"	"an6dho"	"600"	"1366"	"chrome"	"109.0.0"	"FALSE"	"Windows 10"	"60.77"	"017"	n/a	n/a	n/a	n/a	n/a	n/a	"Trial"	n/a	n/a	n/a	"908"	"arrowright"	n/a	"NULL"	"NULL"	"NULL"	"stimuli/VerticalHorizontal_20.27143_-0.16217.png"	n/a	"VerticalHorizontal"	"arrowright"	"1155"	"TRUE"	"VerticalHorizontal"	"20.271430000"	"-0.162170000"	"2"	"20"
n/a	"html-keyboard-response"	"224"	"485052"	"0.0-6.0-2.0-0.20"	"an6dho"	"600"	"1366"	"chrome"	"109.0.0"	"FALSE"	"Windows 10"	"60.77"	"017"	n/a	n/a	n/a	n/a	n/a	n/a	"fixation"	n/a	n/a	n/a	n/a	"NULL"	n/a	"NULL"	"NULL"	"NULL"	"<p style=\"color: black; font-size: 80px; padding-left: 17%; padding-right: 18%; padding-top: 5%; padding-bottom: 22%\">+</p>"	"1069"	n/a	n/a	n/a	n/a	n/a	n/a	n/a	n/a	n/a
n/a	"image-keyboard-response"	"225"	"486066"	"0.0-6.0-2.0-1.20"	"an6dho"	"600"	"1366"	"chrome"	"109.0.0"	"FALSE"	"Windows 10"	"60.77"	"017"	n/a	n/a	n/a	n/a	n/a	n/a	"Trial"	n/a	n/a	n/a	"1013"	"arrowright"	n/a	"NULL"	"NULL"	"NULL"	"stimuli/VerticalHorizontal_20.27143_-0.2250.png"	n/a	"VerticalHorizontal"	"arrowright"	"1087"	"TRUE"	"VerticalHorizontal"	"20.271430000"	"-0.225000000"	"2"	"21"
n/a	"html-keyboard-response"	"226"	"487226"	"0.0-6.0-2.0-0.21"	"an6dho"	"600"	"1366"	"chrome"	"109.0.0"	"FALSE"	"Windows 10"	"60.77"	"017"	n/a	n/a	n/a	n/a	n/a	n/a	"fixation"	n/a	n/a	n/a	n/a	"NULL"	n/a	"NULL"	"NULL"	"NULL"	"<p style=\"color: black; font-size: 80px; padding-left: 13%; padding-right: 42%; padding-top: 13%; padding-bottom: 1%\">+</p>"	"1139"	n/a	n/a	n/a	n/a	n/a	n/a	n/a	n/a	n/a
n/a	"image-keyboard-response"	"227"	"487779"	"0.0-6.0-2.0-1.21"	"an6dho"	"600"	"1366"	"chrome"	"109.0.0"	"FALSE"	"Windows 10"	"60.77"	"017"	n/a	n/a	n/a	n/a	n/a	n/a	"Trial"	n/a	n/a	n/a	"546"	"arrowleft"	n/a	"NULL"	"NULL"	"NULL"	"stimuli/VerticalHorizontal_-28.75714_0.22500.png"	n/a	"VerticalHorizontal"	"arrowleft"	"1160"	"TRUE"	"VerticalHorizontal"	"-28.75714000"	"0.2250000000"	"2"	"22"
n/a	"html-keyboard-response"	"228"	"488957"	"0.0-6.0-2.0-0.22"	"an6dho"	"600"	"1366"	"chrome"	"109.0.0"	"FALSE"	"Windows 10"	"60.77"	"017"	n/a	n/a	n/a	n/a	n/a	n/a	"fixation"	n/a	n/a	n/a	n/a	"NULL"	n/a	"NULL"	"NULL"	"NULL"	"<p style=\"color: black; font-size: 80px; padding-left: 29%; padding-right: 5%; padding-top: 41%; padding-bottom: 41%\">+</p>"	"1155"	n/a	n/a	n/a	n/a	n/a	n/a	n/a	n/a	n/a
n/a	"image-keyboard-response"	"229"	"489546"	"0.0-6.0-2.0-1.22"	"an6dho"	"600"	"1366"	"chrome"	"109.0.0"	"FALSE"	"Windows 10"	"60.77"	"017"	n/a	n/a	n/a	n/a	n/a	n/a	"Trial"	n/a	n/a	n/a	"589"	"arrowright"	n/a	"NULL"	"NULL"	"NULL"	"stimuli/VerticalHorizontal_-11.78571_-0.1096.png"	n/a	"VerticalHorizontal"	"arrowright"	"1178"	"TRUE"	"VerticalHorizontal"	"-11.78571000"	"-0.109600000"	"2"	"23"
n/a	"html-keyboard-response"	"230"	"490979"	"0.0-6.0-2.0-0.23"	"an6dho"	"600"	"1366"	"chrome"	"109.0.0"	"FALSE"	"Windows 10"	"60.77"	"017"	n/a	n/a	n/a	n/a	n/a	n/a	"fixation"	n/a	n/a	n/a	n/a	"NULL"	n/a	"NULL"	"NULL"	"NULL"	"<p style=\"color: black; font-size: 80px; padding-left: 12%; padding-right: 10%; padding-top: 2%; padding-bottom: 19%\">+</p>"	"1418"	n/a	n/a	n/a	n/a	n/a	n/a	n/a	n/a	n/a
n/a	"image-keyboard-response"	"231"	"491788"	"0.0-6.0-2.0-1.23"	"an6dho"	"600"	"1366"	"chrome"	"109.0.0"	"FALSE"	"Windows 10"	"60.77"	"017"	n/a	n/a	n/a	n/a	n/a	n/a	"Trial"	n/a	n/a	n/a	"807"	"arrowleft"	n/a	"NULL"	"NULL"	"NULL"	"stimuli/VerticalHorizontal_28.75714_0.22500.png"	n/a	"VerticalHorizontal"	"arrowleft"	"1433"	"TRUE"	"VerticalHorizontal"	"28.757140000"	"0.2250000000"	"2"	"24"
n/a	"html-keyboard-response"	"232"	"493070"	"0.0-6.0-2.0-0.24"	"an6dho"	"600"	"1366"	"chrome"	"109.0.0"	"FALSE"	"Windows 10"	"60.77"	"017"	n/a	n/a	n/a	n/a	n/a	n/a	"fixation"	n/a	n/a	n/a	n/a	"NULL"	n/a	"NULL"	"NULL"	"NULL"	"<p style=\"color: black; font-size: 80px; padding-left: 14%; padding-right: 20%; padding-top: 35%; padding-bottom: 50%\">+</p>"	"1271"	n/a	n/a	n/a	n/a	n/a	n/a	n/a	n/a	n/a
n/a	"image-keyboard-response"	"233"	"493877"	"0.0-6.0-2.0-1.24"	"an6dho"	"600"	"1366"	"chrome"	"109.0.0"	"FALSE"	"Windows 10"	"60.77"	"017"	n/a	n/a	n/a	n/a	n/a	n/a	"Trial"	n/a	n/a	n/a	"806"	"arrowright"	n/a	"NULL"	"NULL"	"NULL"	"stimuli/VerticalHorizontal_11.78571_-0.0673.png"	n/a	"VerticalHorizontal"	"arrowright"	"1282"	"TRUE"	"VerticalHorizontal"	"11.785710000"	"-0.067300000"	"2"	"25"
n/a	"html-keyboard-response"	"234"	"494990"	"0.0-6.0-2.0-0.25"	"an6dho"	"600"	"1366"	"chrome"	"109.0.0"	"FALSE"	"Windows 10"	"60.77"	"017"	n/a	n/a	n/a	n/a	n/a	n/a	"fixation"	n/a	n/a	n/a	n/a	"NULL"	n/a	"NULL"	"NULL"	"NULL"	"<p style=\"color: black; font-size: 80px; padding-left: 8%; padding-right: 6%; padding-top: 15%; padding-bottom: 19%\">+</p>"	"1102"	n/a	n/a	n/a	n/a	n/a	n/a	n/a	n/a	n/a
n/a	"image-keyboard-response"	"235"	"495591"	"0.0-6.0-2.0-1.25"	"an6dho"	"600"	"1366"	"chrome"	"109.0.0"	"FALSE"	"Windows 10"	"60.77"	"017"	n/a	n/a	n/a	n/a	n/a	n/a	"Trial"	n/a	n/a	n/a	"600"	"arrowleft"	n/a	"NULL"	"NULL"	"NULL"	"stimuli/VerticalHorizontal_28.75714_0.16217.png"	n/a	"VerticalHorizontal"	"arrowleft"	"1113"	"TRUE"	"VerticalHorizontal"	"28.757140000"	"0.1621700000"	"2"	"26"
n/a	"html-keyboard-response"	"236"	"496751"	"0.0-6.0-2.0-0.26"	"an6dho"	"600"	"1366"	"chrome"	"109.0.0"	"FALSE"	"Windows 10"	"60.77"	"017"	n/a	n/a	n/a	n/a	n/a	n/a	"fixation"	n/a	n/a	n/a	n/a	"NULL"	n/a	"NULL"	"NULL"	"NULL"	"<p style=\"color: black; font-size: 80px; padding-left: 10%; padding-right: 36%; padding-top: 30%; padding-bottom: 6%\">+</p>"	"1149"	n/a	n/a	n/a	n/a	n/a	n/a	n/a	n/a	n/a
n/a	"image-keyboard-response"	"237"	"497462"	"0.0-6.0-2.0-1.26"	"an6dho"	"600"	"1366"	"chrome"	"109.0.0"	"FALSE"	"Windows 10"	"60.77"	"017"	n/a	n/a	n/a	n/a	n/a	n/a	"Trial"	n/a	n/a	n/a	"710"	"arrowright"	n/a	"NULL"	"NULL"	"NULL"	"stimuli/VerticalHorizontal_11.78571_-0.16217.png"	n/a	"VerticalHorizontal"	"arrowright"	"1160"	"TRUE"	"VerticalHorizontal"	"11.785710000"	"-0.162170000"	"2"	"27"
n/a	"html-keyboard-response"	"238"	"498665"	"0.0-6.0-2.0-0.27"	"an6dho"	"600"	"1366"	"chrome"	"109.0.0"	"FALSE"	"Windows 10"	"60.77"	"017"	n/a	n/a	n/a	n/a	n/a	n/a	"fixation"	n/a	n/a	n/a	n/a	"NULL"	n/a	"NULL"	"NULL"	"NULL"	"<p style=\"color: black; font-size: 80px; padding-left: 49%; padding-right: 32%; padding-top: 19%; padding-bottom: 3%\">+</p>"	"1191"	n/a	n/a	n/a	n/a	n/a	n/a	n/a	n/a	n/a
n/a	"image-keyboard-response"	"239"	"499207"	"0.0-6.0-2.0-1.27"	"an6dho"	"600"	"1366"	"chrome"	"109.0.0"	"FALSE"	"Windows 10"	"60.77"	"017"	n/a	n/a	n/a	n/a	n/a	n/a	"Trial"	n/a	n/a	n/a	"541"	"arrowleft"	n/a	"NULL"	"NULL"	"NULL"	"stimuli/VerticalHorizontal_28.75714_-0.2250.png"	n/a	"VerticalHorizontal"	"arrowright"	"1203"	"FALSE"	"VerticalHorizontal"	"28.757140000"	"-0.225000000"	"2"	"28"
n/a	"html-keyboard-response"	"240"	"500674"	"0.0-6.0-2.0-0.28"	"an6dho"	"600"	"1366"	"chrome"	"109.0.0"	"FALSE"	"Windows 10"	"60.77"	"017"	n/a	n/a	n/a	n/a	n/a	n/a	"fixation"	n/a	n/a	n/a	n/a	"NULL"	n/a	"NULL"	"NULL"	"NULL"	"<p style=\"color: black; font-size: 80px; padding-left: 35%; padding-right: 26%; padding-top: 48%; padding-bottom: 35%\">+</p>"	"1461"	n/a	n/a	n/a	n/a	n/a	n/a	n/a	n/a	n/a
n/a	"image-keyboard-response"	"241"	"501909"	"0.0-6.0-2.0-1.28"	"an6dho"	"600"	"1366"	"chrome"	"109.0.0"	"FALSE"	"Windows 10"	"60.77"	"017"	n/a	n/a	n/a	n/a	n/a	n/a	"Trial"	n/a	n/a	n/a	"1234"	"arrowright"	n/a	"NULL"	"NULL"	"NULL"	"stimuli/VerticalHorizontal_11.78571_-0.1096.png"	n/a	"VerticalHorizontal"	"arrowright"	"1467"	"TRUE"	"VerticalHorizontal"	"11.785710000"	"-0.109600000"	"2"	"29"
n/a	"html-keyboard-response"	"242"	"503354"	"0.0-6.0-2.0-0.29"	"an6dho"	"600"	"1366"	"chrome"	"109.0.0"	"FALSE"	"Windows 10"	"60.77"	"017"	n/a	n/a	n/a	n/a	n/a	n/a	"fixation"	n/a	n/a	n/a	n/a	"NULL"	n/a	"NULL"	"NULL"	"NULL"	"<p style=\"color: black; font-size: 80px; padding-left: 41%; padding-right: 43%; padding-top: 24%; padding-bottom: 9%\">+</p>"	"1438"	n/a	n/a	n/a	n/a	n/a	n/a	n/a	n/a	n/a
n/a	"image-keyboard-response"	"243"	"503996"	"0.0-6.0-2.0-1.29"	"an6dho"	"600"	"1366"	"chrome"	"109.0.0"	"FALSE"	"Windows 10"	"60.77"	"017"	n/a	n/a	n/a	n/a	n/a	n/a	"Trial"	n/a	n/a	n/a	"641"	"arrowleft"	n/a	"NULL"	"NULL"	"NULL"	"stimuli/VerticalHorizontal_-3.3000_-0.16217.png"	n/a	"VerticalHorizontal"	"arrowright"	"1445"	"FALSE"	"VerticalHorizontal"	"-3.300000000"	"-0.162170000"	"2"	"30"
n/a	"html-keyboard-response"	"244"	"505316"	"0.0-6.0-2.0-0.30"	"an6dho"	"600"	"1366"	"chrome"	"109.0.0"	"FALSE"	"Windows 10"	"60.77"	"017"	n/a	n/a	n/a	n/a	n/a	n/a	"fixation"	n/a	n/a	n/a	n/a	"NULL"	n/a	"NULL"	"NULL"	"NULL"	"<p style=\"color: black; font-size: 80px; padding-left: 30%; padding-right: 6%; padding-top: 4%; padding-bottom: 8%\">+</p>"	"1309"	n/a	n/a	n/a	n/a	n/a	n/a	n/a	n/a	n/a
n/a	"image-keyboard-response"	"245"	"506053"	"0.0-6.0-2.0-1.30"	"an6dho"	"600"	"1366"	"chrome"	"109.0.0"	"FALSE"	"Windows 10"	"60.77"	"017"	n/a	n/a	n/a	n/a	n/a	n/a	"Trial"	n/a	n/a	n/a	"736"	"arrowleft"	n/a	"NULL"	"NULL"	"NULL"	"stimuli/VerticalHorizontal_3.30000_0.06730.png"	n/a	"VerticalHorizontal"	"arrowleft"	"1320"	"TRUE"	"VerticalHorizontal"	"3.3000000000"	"0.0673000000"	"2"	"31"
n/a	"html-keyboard-response"	"246"	"507370"	"0.0-6.0-2.0-0.31"	"an6dho"	"600"	"1366"	"chrome"	"109.0.0"	"FALSE"	"Windows 10"	"60.77"	"017"	n/a	n/a	n/a	n/a	n/a	n/a	"fixation"	n/a	n/a	n/a	n/a	"NULL"	n/a	"NULL"	"NULL"	"NULL"	"<p style=\"color: black; font-size: 80px; padding-left: 14%; padding-right: 43%; padding-top: 42%; padding-bottom: 48%\">+</p>"	"1305"	n/a	n/a	n/a	n/a	n/a	n/a	n/a	n/a	n/a
n/a	"image-keyboard-response"	"247"	"508336"	"0.0-6.0-2.0-1.31"	"an6dho"	"600"	"1366"	"chrome"	"109.0.0"	"FALSE"	"Windows 10"	"60.77"	"017"	n/a	n/a	n/a	n/a	n/a	n/a	"Trial"	n/a	n/a	n/a	"965"	"arrowright"	n/a	"NULL"	"NULL"	"NULL"	"stimuli/VerticalHorizontal_20.27143_0.22500.png"	n/a	"VerticalHorizontal"	"arrowleft"	"1317"	"FALSE"	"VerticalHorizontal"	"20.271430000"	"0.2250000000"	"2"	"32"
n/a	"html-keyboard-response"	"248"	"509581"	"0.0-6.0-2.0-0.32"	"an6dho"	"600"	"1366"	"chrome"	"109.0.0"	"FALSE"	"Windows 10"	"60.77"	"017"	n/a	n/a	n/a	n/a	n/a	n/a	"fixation"	n/a	n/a	n/a	n/a	"NULL"	n/a	"NULL"	"NULL"	"NULL"	"<p style=\"color: black; font-size: 80px; padding-left: 10%; padding-right: 12%; padding-top: 49%; padding-bottom: 27%\">+</p>"	"1242"	n/a	n/a	n/a	n/a	n/a	n/a	n/a	n/a	n/a
n/a	"image-keyboard-response"	"249"	"510438"	"0.0-6.0-2.0-1.32"	"an6dho"	"600"	"1366"	"chrome"	"109.0.0"	"FALSE"	"Windows 10"	"60.77"	"017"	n/a	n/a	n/a	n/a	n/a	n/a	"Trial"	n/a	n/a	n/a	"857"	"arrowleft"	n/a	"NULL"	"NULL"	"NULL"	"stimuli/VerticalHorizontal_-11.78571_0.16217.png"	n/a	"VerticalHorizontal"	"arrowleft"	"1245"	"TRUE"	"VerticalHorizontal"	"-11.78571000"	"0.1621700000"	"2"	"33"
n/a	"html-keyboard-response"	"250"	"511899"	"0.0-6.0-2.0-0.33"	"an6dho"	"600"	"1366"	"chrome"	"109.0.0"	"FALSE"	"Windows 10"	"60.77"	"017"	n/a	n/a	n/a	n/a	n/a	n/a	"fixation"	n/a	n/a	n/a	n/a	"NULL"	n/a	"NULL"	"NULL"	"NULL"	"<p style=\"color: black; font-size: 80px; padding-left: 40%; padding-right: 49%; padding-top: 31%; padding-bottom: 17%\">+</p>"	"1439"	n/a	n/a	n/a	n/a	n/a	n/a	n/a	n/a	n/a
n/a	"image-keyboard-response"	"251"	"512569"	"0.0-6.0-2.0-1.33"	"an6dho"	"600"	"1366"	"chrome"	"109.0.0"	"FALSE"	"Windows 10"	"60.77"	"017"	n/a	n/a	n/a	n/a	n/a	n/a	"Trial"	n/a	n/a	n/a	"670"	"arrowleft"	n/a	"NULL"	"NULL"	"NULL"	"stimuli/VerticalHorizontal_-20.27143_0.16217.png"	n/a	"VerticalHorizontal"	"arrowleft"	"1461"	"TRUE"	"VerticalHorizontal"	"-20.27143000"	"0.1621700000"	"2"	"34"
