"success"	"trial_type"	"trial_index"	"time_elapsed"	"internal_node_id"	"participant_id"	"screen_height"	"screen_width"	"browser"	"browser_version"	"mobile"	"os"	"vsync_rate"	"subject_id"	"width"	"height"	"webaudio"	"fullscreen"	"webcam"	"microphone"	"screen"	"version"	"date"	"time"	"rt"	"response"	"timeout"	"failed_images"	"failed_audio"	"failed_video"	"stimulus"	"trial_duration"	"block"	"correct_response"	"prestimulus_duration"	"correct"	"type"	"illusion_strength"	"illusion_difference"	"block_number"	"trial_number"
"TRUE"	"fullscreen"	"0"	"1631"	"0.0-0.0"	"jn389l"	"600"	"1366"	"chrome"	"108.0.0"	"FALSE"	"Windows 10"	"61.62"	"135"	n/a	n/a	n/a	n/a	n/a	n/a	n/a	n/a	n/a	n/a	n/a	"NULL"	n/a	"NULL"	"NULL"	"NULL"	n/a	n/a	n/a	n/a	n/a	n/a	n/a	n/a	n/a	n/a	n/a
n/a	"browser-check"	"1"	"2635"	"0.0-1.0"	"jn389l"	"600"	"1366"	"chrome"	"108.0.0"	"FALSE"	"Windows 10"	"61.62"	"135"	"1366"	"600"	"TRUE"	"TRUE"	"TRUE"	"TRUE"	"browser_info"	"1.0"	"07/01/2023"	"15:20:19"	n/a	"NULL"	n/a	"NULL"	"NULL"	"NULL"	n/a	n/a	n/a	n/a	n/a	n/a	n/a	n/a	n/a	n/a	n/a
n/a	"survey-text"	"2"	"5422"	"0.0-2.0"	"jn389l"	"600"	"1366"	"chrome"	"108.0.0"	"FALSE"	"Windows 10"	"61.62"	"135"	n/a	n/a	n/a	n/a	n/a	n/a	"subject_id"	n/a	n/a	n/a	"2781"	"list(subject_id = \"135\")"	n/a	"NULL"	"NULL"	"NULL"	n/a	n/a	n/a	n/a	n/a	n/a	n/a	n/a	n/a	n/a	n/a
"TRUE"	"preload"	"3"	"5433"	"0.0-3.0"	"jn389l"	"600"	"1366"	"chrome"	"108.0.0"	"FALSE"	"Windows 10"	"61.62"	"135"	n/a	n/a	n/a	n/a	n/a	n/a	n/a	n/a	n/a	n/a	n/a	"NULL"	"FALSE"	"list()"	"list()"	"list()"	n/a	n/a	n/a	n/a	n/a	n/a	n/a	n/a	n/a	n/a	n/a
n/a	"html-button-response"	"4"	"22717"	"0.0-4.0-0.0"	"jn389l"	"600"	"1366"	"chrome"	"108.0.0"	"FALSE"	"Windows 10"	"61.62"	"135"	n/a	n/a	n/a	n/a	n/a	n/a	"illusion_instructions"	n/a	n/a	n/a	"17282"	"0"	n/a	"NULL"	"NULL"	"NULL"	"<p><b>Illusion Game</b></p><p>In this game of speed and reflex, you will need to make <b>visual judgments</b> (for instance, which circle is the biggest, or which line is the longest), as fast and as correctly as possible, while <b>resisting different visual illusions</b>.</p><p>We are going to start with some examples of all the illusions you will encounter in the game.</p>"	n/a	n/a	n/a	n/a	n/a	n/a	n/a	n/a	n/a	n/a
"TRUE"	"preload"	"5"	"22771"	"0.0-4.0-1.0-0.0"	"jn389l"	"600"	"1366"	"chrome"	"108.0.0"	"FALSE"	"Windows 10"	"61.62"	"135"	n/a	n/a	n/a	n/a	n/a	n/a	n/a	n/a	n/a	n/a	n/a	"NULL"	"FALSE"	"list()"	"list()"	"list()"	n/a	n/a	n/a	n/a	n/a	n/a	n/a	n/a	n/a	n/a	n/a
n/a	"html-keyboard-response"	"6"	"79220"	"0.0-4.0-1.0-1.0"	"jn389l"	"600"	"1366"	"chrome"	"108.0.0"	"FALSE"	"Windows 10"	"61.62"	"135"	n/a	n/a	n/a	n/a	n/a	n/a	n/a	n/a	n/a	n/a	"56446"	"enter"	n/a	"NULL"	"NULL"	"NULL"	"<p><b>Practice</b></p><p>In this part, two red circles will appear side by side on the screen.</p><p>Your task is to select which <b>red circle is bigger</b> in size as fast as you can, without making errors.</p><p>Don't get distracted by the surrounding black circles around the red circles!</p><p>Press <b>the LEFT or the RIGHT arrow</b> to indicate which is the bigger <b>red circle.</b></p><div style='float: center'><img src='materials/instructions/Ebbinghaus_Demo.png' height='300'></img><p><img src='utils/answer/answer_leftright_keyboard.PNG' height='150'></img></p><p class='small'>In this example, the correct answer is the <b>LEFT arrow</b>.</p></div><p>Are you ready? <b>Press ENTER to start</b></p>"	n/a	n/a	n/a	n/a	n/a	n/a	n/a	n/a	n/a	n/a
n/a	"html-keyboard-response"	"7"	"80822"	"0.0-4.0-1.0-2.0-0.0"	"jn389l"	"600"	"1366"	"chrome"	"108.0.0"	"FALSE"	"Windows 10"	"61.62"	"135"	n/a	n/a	n/a	n/a	n/a	n/a	"fixation"	n/a	n/a	n/a	n/a	"NULL"	n/a	"NULL"	"NULL"	"NULL"	"<p style=\"color: black; font-size: 80px; padding-left: 3%; padding-right: 16%; padding-top: 20%; padding-bottom: 1%\">+</p>"	"1062"	n/a	n/a	n/a	n/a	n/a	n/a	n/a	n/a	n/a
n/a	"image-keyboard-response"	"8"	"91737"	"0.0-4.0-1.0-2.0-1.0"	"jn389l"	"600"	"1366"	"chrome"	"108.0.0"	"FALSE"	"Windows 10"	"61.62"	"135"	n/a	n/a	n/a	n/a	n/a	n/a	"Trial"	n/a	n/a	n/a	"10880"	"arrowleft"	n/a	"NULL"	"NULL"	"NULL"	"stimuli/Ebbinghaus_-100000_1.40000.png"	n/a	"Ebbinghaus"	"arrowleft"	"1602"	"TRUE"	"Ebbinghaus"	"-10000000000"	"1.4000000000"	"1"	"1"
n/a	"html-keyboard-response"	"9"	"92875"	"0.0-4.0-1.0-2.0-0.1"	"jn389l"	"600"	"1366"	"chrome"	"108.0.0"	"FALSE"	"Windows 10"	"61.62"	"135"	n/a	n/a	n/a	n/a	n/a	n/a	"fixation"	n/a	n/a	n/a	n/a	"NULL"	n/a	"NULL"	"NULL"	"NULL"	"<p style=\"color: black; font-size: 80px; padding-left: 12%; padding-right: 42%; padding-top: 7%; padding-bottom: 39%\">+</p>"	"1122"	n/a	n/a	n/a	n/a	n/a	n/a	n/a	n/a	n/a
n/a	"image-keyboard-response"	"10"	"94214"	"0.0-4.0-1.0-2.0-1.1"	"jn389l"	"600"	"1366"	"chrome"	"108.0.0"	"FALSE"	"Windows 10"	"61.62"	"135"	n/a	n/a	n/a	n/a	n/a	n/a	"Trial"	n/a	n/a	n/a	"1330"	"arrowleft"	n/a	"NULL"	"NULL"	"NULL"	"stimuli/Ebbinghaus_0000000_1.40000.png"	n/a	"Ebbinghaus"	"arrowleft"	"1138"	"TRUE"	"Ebbinghaus"	"000000000000"	"1.4000000000"	"1"	"2"
n/a	"html-keyboard-response"	"11"	"95259"	"0.0-4.0-1.0-2.0-0.2"	"jn389l"	"600"	"1366"	"chrome"	"108.0.0"	"FALSE"	"Windows 10"	"61.62"	"135"	n/a	n/a	n/a	n/a	n/a	n/a	"fixation"	n/a	n/a	n/a	n/a	"NULL"	n/a	"NULL"	"NULL"	"NULL"	"<p style=\"color: black; font-size: 80px; padding-left: 7%; padding-right: 39%; padding-top: 27%; padding-bottom: 20%\">+</p>"	"1030"	n/a	n/a	n/a	n/a	n/a	n/a	n/a	n/a	n/a
n/a	"image-keyboard-response"	"12"	"96043"	"0.0-4.0-1.0-2.0-1.2"	"jn389l"	"600"	"1366"	"chrome"	"108.0.0"	"FALSE"	"Windows 10"	"61.62"	"135"	n/a	n/a	n/a	n/a	n/a	n/a	"Trial"	n/a	n/a	n/a	"783"	"arrowright"	n/a	"NULL"	"NULL"	"NULL"	"stimuli/Ebbinghaus_1000000_-1.4000.png"	n/a	"Ebbinghaus"	"arrowright"	"1045"	"TRUE"	"Ebbinghaus"	"100000000000"	"-1.400000000"	"1"	"3"
n/a	"html-keyboard-response"	"13"	"97412"	"0.0-4.0-1.0-2.0-0.3"	"jn389l"	"600"	"1366"	"chrome"	"108.0.0"	"FALSE"	"Windows 10"	"61.62"	"135"	n/a	n/a	n/a	n/a	n/a	n/a	"fixation"	n/a	n/a	n/a	n/a	"NULL"	n/a	"NULL"	"NULL"	"NULL"	"<p style=\"color: black; font-size: 80px; padding-left: 23%; padding-right: 22%; padding-top: 44%; padding-bottom: 8%\">+</p>"	"1358"	n/a	n/a	n/a	n/a	n/a	n/a	n/a	n/a	n/a
n/a	"image-keyboard-response"	"14"	"98365"	"0.0-4.0-1.0-2.0-1.3"	"jn389l"	"600"	"1366"	"chrome"	"108.0.0"	"FALSE"	"Windows 10"	"61.62"	"135"	n/a	n/a	n/a	n/a	n/a	n/a	"Trial"	n/a	n/a	n/a	"949"	"arrowleft"	n/a	"NULL"	"NULL"	"NULL"	"stimuli/Ebbinghaus_1000000_1.40000.png"	n/a	"Ebbinghaus"	"arrowleft"	"1369"	"TRUE"	"Ebbinghaus"	"100000000000"	"1.4000000000"	"1"	"4"
n/a	"html-keyboard-response"	"15"	"99737"	"0.0-4.0-1.0-2.0-0.4"	"jn389l"	"600"	"1366"	"chrome"	"108.0.0"	"FALSE"	"Windows 10"	"61.62"	"135"	n/a	n/a	n/a	n/a	n/a	n/a	"fixation"	n/a	n/a	n/a	n/a	"NULL"	n/a	"NULL"	"NULL"	"NULL"	"<p style=\"color: black; font-size: 80px; padding-left: 27%; padding-right: 26%; padding-top: 20%; padding-bottom: 6%\">+</p>"	"1355"	n/a	n/a	n/a	n/a	n/a	n/a	n/a	n/a	n/a
n/a	"image-keyboard-response"	"16"	"100254"	"0.0-4.0-1.0-2.0-1.4"	"jn389l"	"600"	"1366"	"chrome"	"108.0.0"	"FALSE"	"Windows 10"	"61.62"	"135"	n/a	n/a	n/a	n/a	n/a	n/a	"Trial"	n/a	n/a	n/a	"515"	"arrowright"	n/a	"NULL"	"NULL"	"NULL"	"stimuli/Ebbinghaus_0000000_-1.4000.png"	n/a	"Ebbinghaus"	"arrowright"	"1372"	"TRUE"	"Ebbinghaus"	"000000000000"	"-1.400000000"	"1"	"5"
n/a	"html-keyboard-response"	"17"	"101536"	"0.0-4.0-1.0-2.0-0.5"	"jn389l"	"600"	"1366"	"chrome"	"108.0.0"	"FALSE"	"Windows 10"	"61.62"	"135"	n/a	n/a	n/a	n/a	n/a	n/a	"fixation"	n/a	n/a	n/a	n/a	"NULL"	n/a	"NULL"	"NULL"	"NULL"	"<p style=\"color: black; font-size: 80px; padding-left: 9%; padding-right: 39%; padding-top: 31%; padding-bottom: 3%\">+</p>"	"1267"	n/a	n/a	n/a	n/a	n/a	n/a	n/a	n/a	n/a
n/a	"image-keyboard-response"	"18"	"102633"	"0.0-4.0-1.0-2.0-1.5"	"jn389l"	"600"	"1366"	"chrome"	"108.0.0"	"FALSE"	"Windows 10"	"61.62"	"135"	n/a	n/a	n/a	n/a	n/a	n/a	"Trial"	n/a	n/a	n/a	"1094"	"arrowright"	n/a	"NULL"	"NULL"	"NULL"	"stimuli/Ebbinghaus_-100000_-1.4000.png"	n/a	"Ebbinghaus"	"arrowright"	"1282"	"TRUE"	"Ebbinghaus"	"-10000000000"	"-1.400000000"	"1"	"6"
n/a	"html-button-response"	"19"	"119795"	"0.0-4.0-1.0-3.0"	"jn389l"	"600"	"1366"	"chrome"	"108.0.0"	"FALSE"	"Windows 10"	"61.62"	"135"	n/a	n/a	n/a	n/a	n/a	n/a	"practice_block_results"	n/a	n/a	n/a	"17155"	"0"	n/a	"NULL"	"NULL"	"NULL"	"<p style='color:rgb(76,175,80);'> Correct Responses: <b>100.00%</b></p><hr><p style='color:rgb(233,30,99);'> Average Response Time: <b>2591.83</b> ms.</p>"	n/a	n/a	n/a	n/a	n/a	n/a	n/a	n/a	n/a	n/a
"TRUE"	"preload"	"20"	"120336"	"0.0-4.0-2.0-0.0"	"jn389l"	"600"	"1366"	"chrome"	"108.0.0"	"FALSE"	"Windows 10"	"61.62"	"135"	n/a	n/a	n/a	n/a	n/a	n/a	n/a	n/a	n/a	n/a	n/a	"NULL"	"FALSE"	"list()"	"list()"	"list()"	n/a	n/a	n/a	n/a	n/a	n/a	n/a	n/a	n/a	n/a	n/a
n/a	"html-keyboard-response"	"21"	"138543"	"0.0-4.0-2.0-1.0"	"jn389l"	"600"	"1366"	"chrome"	"108.0.0"	"FALSE"	"Windows 10"	"61.62"	"135"	n/a	n/a	n/a	n/a	n/a	n/a	n/a	n/a	n/a	n/a	"18206"	"enter"	n/a	"NULL"	"NULL"	"NULL"	"<p><b>Practice</b></p><p>In this part, two horizontal red lines will appear one above the other.</p><p>Your task is to select which <b>line is longer</b> in length as fast as you can, without making errors.</p><p>Don't get distracted by the surrounding black arrows at the end of the red lines!</p><p>Press <b>the UP or the DOWN arrow</b> to indicate where is the longer <b>red line.</b></p><div style='float: center'><img src='materials/instructions/MullerLyer_Demo.png' height='300'></img><p><img src='utils/answer/answer_updown_keyboard.PNG' height='150'></img></p><p class='small'>In this example, the correct answer is the <b>UP arrow</b>.</p></div><p>Are you ready? <b>Press ENTER to start</b></p>"	n/a	n/a	n/a	n/a	n/a	n/a	n/a	n/a	n/a	n/a
n/a	"html-keyboard-response"	"22"	"140094"	"0.0-4.0-2.0-2.0-0.0"	"jn389l"	"600"	"1366"	"chrome"	"108.0.0"	"FALSE"	"Windows 10"	"61.62"	"135"	n/a	n/a	n/a	n/a	n/a	n/a	"fixation"	n/a	n/a	n/a	n/a	"NULL"	n/a	"NULL"	"NULL"	"NULL"	"<p style=\"color: black; font-size: 80px; padding-left: 33%; padding-right: 49%; padding-top: 37%; padding-bottom: 15%\">+</p>"	"1034"	n/a	n/a	n/a	n/a	n/a	n/a	n/a	n/a	n/a
n/a	"image-keyboard-response"	"23"	"145283"	"0.0-4.0-2.0-2.0-1.0"	"jn389l"	"600"	"1366"	"chrome"	"108.0.0"	"FALSE"	"Windows 10"	"61.62"	"135"	n/a	n/a	n/a	n/a	n/a	n/a	"Trial"	n/a	n/a	n/a	"5188"	"arrowup"	n/a	"NULL"	"NULL"	"NULL"	"stimuli/MullerLyer_2300000_0.70000.png"	n/a	"MullerLyer"	"arrowup"	"1551"	"TRUE"	"MullerLyer"	"230000000000"	"0.7000000000"	"1"	"7"
n/a	"html-keyboard-response"	"24"	"146624"	"0.0-4.0-2.0-2.0-0.1"	"jn389l"	"600"	"1366"	"chrome"	"108.0.0"	"FALSE"	"Windows 10"	"61.62"	"135"	n/a	n/a	n/a	n/a	n/a	n/a	"fixation"	n/a	n/a	n/a	n/a	"NULL"	n/a	"NULL"	"NULL"	"NULL"	"<p style=\"color: black; font-size: 80px; padding-left: 39%; padding-right: 2%; padding-top: 20%; padding-bottom: 7%\">+</p>"	"1332"	n/a	n/a	n/a	n/a	n/a	n/a	n/a	n/a	n/a
n/a	"image-keyboard-response"	"25"	"147588"	"0.0-4.0-2.0-2.0-1.1"	"jn389l"	"600"	"1366"	"chrome"	"108.0.0"	"FALSE"	"Windows 10"	"61.62"	"135"	n/a	n/a	n/a	n/a	n/a	n/a	"Trial"	n/a	n/a	n/a	"961"	"arrowup"	n/a	"NULL"	"NULL"	"NULL"	"stimuli/MullerLyer_0000000_0.70000.png"	n/a	"MullerLyer"	"arrowup"	"1341"	"TRUE"	"MullerLyer"	"000000000000"	"0.7000000000"	"1"	"8"
n/a	"html-keyboard-response"	"26"	"148828"	"0.0-4.0-2.0-2.0-0.2"	"jn389l"	"600"	"1366"	"chrome"	"108.0.0"	"FALSE"	"Windows 10"	"61.62"	"135"	n/a	n/a	n/a	n/a	n/a	n/a	"fixation"	n/a	n/a	n/a	n/a	"NULL"	n/a	"NULL"	"NULL"	"NULL"	"<p style=\"color: black; font-size: 80px; padding-left: 30%; padding-right: 4%; padding-top: 27%; padding-bottom: 24%\">+</p>"	"1223"	n/a	n/a	n/a	n/a	n/a	n/a	n/a	n/a	n/a
n/a	"image-keyboard-response"	"27"	"149757"	"0.0-4.0-2.0-2.0-1.2"	"jn389l"	"600"	"1366"	"chrome"	"108.0.0"	"FALSE"	"Windows 10"	"61.62"	"135"	n/a	n/a	n/a	n/a	n/a	n/a	"Trial"	n/a	n/a	n/a	"928"	"arrowdown"	n/a	"NULL"	"NULL"	"NULL"	"stimuli/MullerLyer_0000000_-0.7000.png"	n/a	"MullerLyer"	"arrowdown"	"1240"	"TRUE"	"MullerLyer"	"000000000000"	"-0.700000000"	"1"	"9"
n/a	"html-keyboard-response"	"28"	"150891"	"0.0-4.0-2.0-2.0-0.3"	"jn389l"	"600"	"1366"	"chrome"	"108.0.0"	"FALSE"	"Windows 10"	"61.62"	"135"	n/a	n/a	n/a	n/a	n/a	n/a	"fixation"	n/a	n/a	n/a	n/a	"NULL"	n/a	"NULL"	"NULL"	"NULL"	"<p style=\"color: black; font-size: 80px; padding-left: 36%; padding-right: 23%; padding-top: 19%; padding-bottom: 31%\">+</p>"	"1122"	n/a	n/a	n/a	n/a	n/a	n/a	n/a	n/a	n/a
n/a	"image-keyboard-response"	"29"	"152117"	"0.0-4.0-2.0-2.0-1.3"	"jn389l"	"600"	"1366"	"chrome"	"108.0.0"	"FALSE"	"Windows 10"	"61.62"	"135"	n/a	n/a	n/a	n/a	n/a	n/a	"Trial"	n/a	n/a	n/a	"1224"	"arrowdown"	n/a	"NULL"	"NULL"	"NULL"	"stimuli/MullerLyer_2300000_-0.7000.png"	n/a	"MullerLyer"	"arrowdown"	"1134"	"TRUE"	"MullerLyer"	"230000000000"	"-0.700000000"	"1"	"10"
n/a	"html-keyboard-response"	"30"	"153160"	"0.0-4.0-2.0-2.0-0.4"	"jn389l"	"600"	"1366"	"chrome"	"108.0.0"	"FALSE"	"Windows 10"	"61.62"	"135"	n/a	n/a	n/a	n/a	n/a	n/a	"fixation"	n/a	n/a	n/a	n/a	"NULL"	n/a	"NULL"	"NULL"	"NULL"	"<p style=\"color: black; font-size: 80px; padding-left: 4%; padding-right: 29%; padding-top: 21%; padding-bottom: 36%\">+</p>"	"1025"	n/a	n/a	n/a	n/a	n/a	n/a	n/a	n/a	n/a
n/a	"image-keyboard-response"	"31"	"153883"	"0.0-4.0-2.0-2.0-1.4"	"jn389l"	"600"	"1366"	"chrome"	"108.0.0"	"FALSE"	"Windows 10"	"61.62"	"135"	n/a	n/a	n/a	n/a	n/a	n/a	"Trial"	n/a	n/a	n/a	"719"	"arrowdown"	n/a	"NULL"	"NULL"	"NULL"	"stimuli/MullerLyer_-230000_-0.7000.png"	n/a	"MullerLyer"	"arrowdown"	"1043"	"TRUE"	"MullerLyer"	"-23000000000"	"-0.700000000"	"1"	"11"
n/a	"html-keyboard-response"	"32"	"155327"	"0.0-4.0-2.0-2.0-0.5"	"jn389l"	"600"	"1366"	"chrome"	"108.0.0"	"FALSE"	"Windows 10"	"61.62"	"135"	n/a	n/a	n/a	n/a	n/a	n/a	"fixation"	n/a	n/a	n/a	n/a	"NULL"	n/a	"NULL"	"NULL"	"NULL"	"<p style=\"color: black; font-size: 80px; padding-left: 45%; padding-right: 21%; padding-top: 7%; padding-bottom: 48%\">+</p>"	"1420"	n/a	n/a	n/a	n/a	n/a	n/a	n/a	n/a	n/a
n/a	"image-keyboard-response"	"33"	"155992"	"0.0-4.0-2.0-2.0-1.5"	"jn389l"	"600"	"1366"	"chrome"	"108.0.0"	"FALSE"	"Windows 10"	"61.62"	"135"	n/a	n/a	n/a	n/a	n/a	n/a	"Trial"	n/a	n/a	n/a	"663"	"arrowup"	n/a	"NULL"	"NULL"	"NULL"	"stimuli/MullerLyer_-230000_0.70000.png"	n/a	"MullerLyer"	"arrowup"	"1444"	"TRUE"	"MullerLyer"	"-23000000000"	"0.7000000000"	"1"	"12"
n/a	"html-button-response"	"34"	"163118"	"0.0-4.0-2.0-3.0"	"jn389l"	"600"	"1366"	"chrome"	"108.0.0"	"FALSE"	"Windows 10"	"61.62"	"135"	n/a	n/a	n/a	n/a	n/a	n/a	"practice_block_results"	n/a	n/a	n/a	"7124"	"0"	n/a	"NULL"	"NULL"	"NULL"	"<p style='color:rgb(76,175,80);'> Correct Responses: <b>100.00%</b></p><hr><p style='color:rgb(233,30,99);'> Average Response Time: <b>1613.83</b> ms.</p>"	n/a	n/a	n/a	n/a	n/a	n/a	n/a	n/a	n/a	n/a
"TRUE"	"preload"	"35"	"163670"	"0.0-4.0-3.0-0.0"	"jn389l"	"600"	"1366"	"chrome"	"108.0.0"	"FALSE"	"Windows 10"	"61.62"	"135"	n/a	n/a	n/a	n/a	n/a	n/a	n/a	n/a	n/a	n/a	n/a	"NULL"	"FALSE"	"list()"	"list()"	"list()"	n/a	n/a	n/a	n/a	n/a	n/a	n/a	n/a	n/a	n/a	n/a
n/a	"html-keyboard-response"	"36"	"186342"	"0.0-4.0-3.0-1.0"	"jn389l"	"600"	"1366"	"chrome"	"108.0.0"	"FALSE"	"Windows 10"	"61.62"	"135"	n/a	n/a	n/a	n/a	n/a	n/a	n/a	n/a	n/a	n/a	"22672"	"enter"	n/a	"NULL"	"NULL"	"NULL"	"<p><b>Practice</b></p><p>In this part, two red lines will appear side by side.</p><p>Your task is to tell <b>which line is longer</b> in length, regardless of their orientation, as fast as you can, and without making errors.</p><p>Don't get distracted by the orientation of the lines!</p><p>Press <b>the LEFT or the RIGHT arrow</b> to indicate which <b>line is the longer one.</b></p><div style='float: center'><img src='materials/instructions/VerticalHorizontal_Demo.png' height='300'></img><p><img src='utils/answer/answer_leftright_keyboard.PNG' height='150'></img></p><p class='small'>In this example, the correct answer is the <b>LEFT arrow</b>.</p></div><p>Are you ready? <b>Press ENTER to start</b></p>"	n/a	n/a	n/a	n/a	n/a	n/a	n/a	n/a	n/a	n/a
n/a	"html-keyboard-response"	"37"	"188124"	"0.0-4.0-3.0-2.0-0.0"	"jn389l"	"600"	"1366"	"chrome"	"108.0.0"	"FALSE"	"Windows 10"	"61.62"	"135"	n/a	n/a	n/a	n/a	n/a	n/a	"fixation"	n/a	n/a	n/a	n/a	"NULL"	n/a	"NULL"	"NULL"	"NULL"	"<p style=\"color: black; font-size: 80px; padding-left: 25%; padding-right: 16%; padding-top: 31%; padding-bottom: 31%\">+</p>"	"1252"	n/a	n/a	n/a	n/a	n/a	n/a	n/a	n/a	n/a
n/a	"image-keyboard-response"	"38"	"188915"	"0.0-4.0-3.0-2.0-1.0"	"jn389l"	"600"	"1366"	"chrome"	"108.0.0"	"FALSE"	"Windows 10"	"61.62"	"135"	n/a	n/a	n/a	n/a	n/a	n/a	"Trial"	n/a	n/a	n/a	"789"	"arrowleft"	n/a	"NULL"	"NULL"	"NULL"	"stimuli/VerticalHorizontal_0000000_0.90000.png"	n/a	"VerticalHorizontal"	"arrowleft"	"1782"	"TRUE"	"VerticalHorizontal"	"000000000000"	"0.9000000000"	"1"	"13"
n/a	"html-keyboard-response"	"39"	"190391"	"0.0-4.0-3.0-2.0-0.1"	"jn389l"	"600"	"1366"	"chrome"	"108.0.0"	"FALSE"	"Windows 10"	"61.62"	"135"	n/a	n/a	n/a	n/a	n/a	n/a	"fixation"	n/a	n/a	n/a	n/a	"NULL"	n/a	"NULL"	"NULL"	"NULL"	"<p style=\"color: black; font-size: 80px; padding-left: 21%; padding-right: 20%; padding-top: 36%; padding-bottom: 9%\">+</p>"	"1467"	n/a	n/a	n/a	n/a	n/a	n/a	n/a	n/a	n/a
n/a	"image-keyboard-response"	"40"	"190900"	"0.0-4.0-3.0-2.0-1.1"	"jn389l"	"600"	"1366"	"chrome"	"108.0.0"	"FALSE"	"Windows 10"	"61.62"	"135"	n/a	n/a	n/a	n/a	n/a	n/a	"Trial"	n/a	n/a	n/a	"508"	"arrowright"	n/a	"NULL"	"NULL"	"NULL"	"stimuli/VerticalHorizontal_3300000_-0.9000.png"	n/a	"VerticalHorizontal"	"arrowright"	"1476"	"TRUE"	"VerticalHorizontal"	"330000000000"	"-0.900000000"	"1"	"14"
n/a	"html-keyboard-response"	"41"	"191982"	"0.0-4.0-3.0-2.0-0.2"	"jn389l"	"600"	"1366"	"chrome"	"108.0.0"	"FALSE"	"Windows 10"	"61.62"	"135"	n/a	n/a	n/a	n/a	n/a	n/a	"fixation"	n/a	n/a	n/a	n/a	"NULL"	n/a	"NULL"	"NULL"	"NULL"	"<p style=\"color: black; font-size: 80px; padding-left: 2%; padding-right: 27%; padding-top: 5%; padding-bottom: 35%\">+</p>"	"1067"	n/a	n/a	n/a	n/a	n/a	n/a	n/a	n/a	n/a
n/a	"image-keyboard-response"	"42"	"192490"	"0.0-4.0-3.0-2.0-1.2"	"jn389l"	"600"	"1366"	"chrome"	"108.0.0"	"FALSE"	"Windows 10"	"61.62"	"135"	n/a	n/a	n/a	n/a	n/a	n/a	"Trial"	n/a	n/a	n/a	"504"	"arrowleft"	n/a	"NULL"	"NULL"	"NULL"	"stimuli/VerticalHorizontal_3300000_0.90000.png"	n/a	"VerticalHorizontal"	"arrowleft"	"1082"	"TRUE"	"VerticalHorizontal"	"330000000000"	"0.9000000000"	"1"	"15"
n/a	"html-keyboard-response"	"43"	"193515"	"0.0-4.0-3.0-2.0-0.3"	"jn389l"	"600"	"1366"	"chrome"	"108.0.0"	"FALSE"	"Windows 10"	"61.62"	"135"	n/a	n/a	n/a	n/a	n/a	n/a	"fixation"	n/a	n/a	n/a	n/a	"NULL"	n/a	"NULL"	"NULL"	"NULL"	"<p style=\"color: black; font-size: 80px; padding-left: 40%; padding-right: 26%; padding-top: 23%; padding-bottom: 50%\">+</p>"	"1010"	n/a	n/a	n/a	n/a	n/a	n/a	n/a	n/a	n/a
n/a	"image-keyboard-response"	"44"	"194037"	"0.0-4.0-3.0-2.0-1.3"	"jn389l"	"600"	"1366"	"chrome"	"108.0.0"	"FALSE"	"Windows 10"	"61.62"	"135"	n/a	n/a	n/a	n/a	n/a	n/a	"Trial"	n/a	n/a	n/a	"520"	"arrowleft"	n/a	"NULL"	"NULL"	"NULL"	"stimuli/VerticalHorizontal_-330000_0.90000.png"	n/a	"VerticalHorizontal"	"arrowleft"	"1025"	"TRUE"	"VerticalHorizontal"	"-33000000000"	"0.9000000000"	"1"	"16"
n/a	"html-keyboard-response"	"45"	"195373"	"0.0-4.0-3.0-2.0-0.4"	"jn389l"	"600"	"1366"	"chrome"	"108.0.0"	"FALSE"	"Windows 10"	"61.62"	"135"	n/a	n/a	n/a	n/a	n/a	n/a	"fixation"	n/a	n/a	n/a	n/a	"NULL"	n/a	"NULL"	"NULL"	"NULL"	"<p style=\"color: black; font-size: 80px; padding-left: 9%; padding-right: 21%; padding-top: 18%; padding-bottom: 13%\">+</p>"	"1315"	n/a	n/a	n/a	n/a	n/a	n/a	n/a	n/a	n/a
n/a	"image-keyboard-response"	"46"	"195892"	"0.0-4.0-3.0-2.0-1.4"	"jn389l"	"600"	"1366"	"chrome"	"108.0.0"	"FALSE"	"Windows 10"	"61.62"	"135"	n/a	n/a	n/a	n/a	n/a	n/a	"Trial"	n/a	n/a	n/a	"517"	"arrowright"	n/a	"NULL"	"NULL"	"NULL"	"stimuli/VerticalHorizontal_-330000_-0.9000.png"	n/a	"VerticalHorizontal"	"arrowright"	"1336"	"TRUE"	"VerticalHorizontal"	"-33000000000"	"-0.900000000"	"1"	"17"
n/a	"html-keyboard-response"	"47"	"197176"	"0.0-4.0-3.0-2.0-0.5"	"jn389l"	"600"	"1366"	"chrome"	"108.0.0"	"FALSE"	"Windows 10"	"61.62"	"135"	n/a	n/a	n/a	n/a	n/a	n/a	"fixation"	n/a	n/a	n/a	n/a	"NULL"	n/a	"NULL"	"NULL"	"NULL"	"<p style=\"color: black; font-size: 80px; padding-left: 8%; padding-right: 20%; padding-top: 11%; padding-bottom: 41%\">+</p>"	"1268"	n/a	n/a	n/a	n/a	n/a	n/a	n/a	n/a	n/a
n/a	"image-keyboard-response"	"48"	"197659"	"0.0-4.0-3.0-2.0-1.5"	"jn389l"	"600"	"1366"	"chrome"	"108.0.0"	"FALSE"	"Windows 10"	"61.62"	"135"	n/a	n/a	n/a	n/a	n/a	n/a	"Trial"	n/a	n/a	n/a	"481"	"arrowright"	n/a	"NULL"	"NULL"	"NULL"	"stimuli/VerticalHorizontal_0000000_-0.9000.png"	n/a	"VerticalHorizontal"	"arrowright"	"1284"	"TRUE"	"VerticalHorizontal"	"000000000000"	"-0.900000000"	"1"	"18"
n/a	"html-button-response"	"49"	"200941"	"0.0-4.0-3.0-3.0"	"jn389l"	"600"	"1366"	"chrome"	"108.0.0"	"FALSE"	"Windows 10"	"61.62"	"135"	n/a	n/a	n/a	n/a	n/a	n/a	"practice_block_results"	n/a	n/a	n/a	"3278"	"0"	n/a	"NULL"	"NULL"	"NULL"	"<p style='color:rgb(76,175,80);'> Correct Responses: <b>100.00%</b></p><hr><p style='color:rgb(233,30,99);'> Average Response Time: <b>553.17</b> ms.</p>"	n/a	n/a	n/a	n/a	n/a	n/a	n/a	n/a	n/a	n/a
n/a	"html-button-response"	"50"	"265934"	"0.0-4.0-4.0"	"jn389l"	"600"	"1366"	"chrome"	"108.0.0"	"FALSE"	"Windows 10"	"61.62"	"135"	n/a	n/a	n/a	n/a	n/a	n/a	"practice_debrief"	n/a	n/a	n/a	"64475"	"0"	n/a	"NULL"	"NULL"	"NULL"	"<p><b>TRAINING COMPLETED</b></p><p>In the next phase, there will be more trials, and some might be harder too.<br> Moreover, after each illusion block, a <b>score</b> will be calculated based on speed (time you took to answer) and accuracy (number of errors).</p><p>Try to keep up a high score!</p><br><p>Note that it can be <i>really</i> challenging at times, so you will need to rely on your <b>intuition</b> and gut feeling to answer as fast as you can without making errors.</p><p>Each illusion block will be repeated two times (so that you have the opportunity to improve your score), but the order of the blocks is random.</p><p>Remember, your goal is to be as <b>fast</b> and <b>accurate</b> as possible. Good luck!</p><br>"	n/a	n/a	n/a	n/a	n/a	n/a	n/a	n/a	n/a	n/a
"TRUE"	"preload"	"51"	"266090"	"0.0-5.0-0.0"	"jn389l"	"600"	"1366"	"chrome"	"108.0.0"	"FALSE"	"Windows 10"	"61.62"	"135"	n/a	n/a	n/a	n/a	n/a	n/a	n/a	n/a	n/a	n/a	n/a	"NULL"	"FALSE"	"list()"	"list()"	"list()"	n/a	n/a	n/a	n/a	n/a	n/a	n/a	n/a	n/a	n/a	n/a
n/a	"html-keyboard-response"	"52"	"271555"	"0.0-5.0-1.0"	"jn389l"	"600"	"1366"	"chrome"	"108.0.0"	"FALSE"	"Windows 10"	"61.62"	"135"	n/a	n/a	n/a	n/a	n/a	n/a	n/a	n/a	n/a	n/a	"5464"	"enter"	n/a	"NULL"	"NULL"	"NULL"	"<p><b>Part 1/6</b></p><p>In this part, two red lines will appear side by side.</p><p>Your task is to tell <b>which line is longer</b> in length, regardless of their orientation, as fast as you can, and without making errors.</p><p>Don't get distracted by the orientation of the lines!</p><p>Press <b>the LEFT or the RIGHT arrow</b> to indicate which <b>line is the longer one.</b></p><div style='float: center'><img src='materials/instructions/VerticalHorizontal_Demo.png' height='300'></img><p><img src='utils/answer/answer_leftright_keyboard.PNG' height='150'></img></p><p class='small'>In this example, the correct answer is the <b>LEFT arrow</b>.</p></div><p>Are you ready? <b>Press ENTER to start</b></p>"	n/a	n/a	n/a	n/a	n/a	n/a	n/a	n/a	n/a	n/a
n/a	"html-keyboard-response"	"53"	"273298"	"0.0-5.0-2.0-0.0"	"jn389l"	"600"	"1366"	"chrome"	"108.0.0"	"FALSE"	"Windows 10"	"61.62"	"135"	n/a	n/a	n/a	n/a	n/a	n/a	"fixation"	n/a	n/a	n/a	n/a	"NULL"	n/a	"NULL"	"NULL"	"NULL"	"<p style=\"color: black; font-size: 80px; padding-left: 45%; padding-right: 46%; padding-top: 34%; padding-bottom: 21%\">+</p>"	"1209"	n/a	n/a	n/a	n/a	n/a	n/a	n/a	n/a	n/a
n/a	"image-keyboard-response"	"54"	"274134"	"0.0-5.0-2.0-1.0"	"jn389l"	"600"	"1366"	"chrome"	"108.0.0"	"FALSE"	"Windows 10"	"61.62"	"135"	n/a	n/a	n/a	n/a	n/a	n/a	"Trial"	n/a	n/a	n/a	"834"	"arrowleft"	n/a	"NULL"	"NULL"	"NULL"	"stimuli/VerticalHorizontal_-20.27143_0.10960.png"	n/a	"VerticalHorizontal"	"arrowleft"	"1743"	"TRUE"	"VerticalHorizontal"	"-20.27143000"	"0.1096000000"	"1"	"19"
n/a	"html-keyboard-response"	"55"	"275415"	"0.0-5.0-2.0-0.1"	"jn389l"	"600"	"1366"	"chrome"	"108.0.0"	"FALSE"	"Windows 10"	"61.62"	"135"	n/a	n/a	n/a	n/a	n/a	n/a	"fixation"	n/a	n/a	n/a	n/a	"NULL"	n/a	"NULL"	"NULL"	"NULL"	"<p style=\"color: black; font-size: 80px; padding-left: 15%; padding-right: 0%; padding-top: 18%; padding-bottom: 20%\">+</p>"	"1260"	n/a	n/a	n/a	n/a	n/a	n/a	n/a	n/a	n/a
n/a	"image-keyboard-response"	"56"	"275939"	"0.0-5.0-2.0-1.1"	"jn389l"	"600"	"1366"	"chrome"	"108.0.0"	"FALSE"	"Windows 10"	"61.62"	"135"	n/a	n/a	n/a	n/a	n/a	n/a	"Trial"	n/a	n/a	n/a	"523"	"arrowright"	n/a	"NULL"	"NULL"	"NULL"	"stimuli/VerticalHorizontal_-3.3000_-0.0673.png"	n/a	"VerticalHorizontal"	"arrowright"	"1281"	"TRUE"	"VerticalHorizontal"	"-3.300000000"	"-0.067300000"	"1"	"20"
n/a	"html-keyboard-response"	"57"	"277212"	"0.0-5.0-2.0-0.2"	"jn389l"	"600"	"1366"	"chrome"	"108.0.0"	"FALSE"	"Windows 10"	"61.62"	"135"	n/a	n/a	n/a	n/a	n/a	n/a	"fixation"	n/a	n/a	n/a	n/a	"NULL"	n/a	"NULL"	"NULL"	"NULL"	"<p style=\"color: black; font-size: 80px; padding-left: 16%; padding-right: 21%; padding-top: 1%; padding-bottom: 38%\">+</p>"	"1251"	n/a	n/a	n/a	n/a	n/a	n/a	n/a	n/a	n/a
n/a	"image-keyboard-response"	"58"	"277715"	"0.0-5.0-2.0-1.2"	"jn389l"	"600"	"1366"	"chrome"	"108.0.0"	"FALSE"	"Windows 10"	"61.62"	"135"	n/a	n/a	n/a	n/a	n/a	n/a	"Trial"	n/a	n/a	n/a	"502"	"arrowright"	n/a	"NULL"	"NULL"	"NULL"	"stimuli/VerticalHorizontal_-11.78571_-0.1096.png"	n/a	"VerticalHorizontal"	"arrowright"	"1273"	"TRUE"	"VerticalHorizontal"	"-11.78571000"	"-0.109600000"	"1"	"21"
n/a	"html-keyboard-response"	"59"	"278765"	"0.0-5.0-2.0-0.3"	"jn389l"	"600"	"1366"	"chrome"	"108.0.0"	"FALSE"	"Windows 10"	"61.62"	"135"	n/a	n/a	n/a	n/a	n/a	n/a	"fixation"	n/a	n/a	n/a	n/a	"NULL"	n/a	"NULL"	"NULL"	"NULL"	"<p style=\"color: black; font-size: 80px; padding-left: 10%; padding-right: 27%; padding-top: 34%; padding-bottom: 38%\">+</p>"	"1037"	n/a	n/a	n/a	n/a	n/a	n/a	n/a	n/a	n/a
n/a	"image-keyboard-response"	"60"	"279502"	"0.0-5.0-2.0-1.3"	"jn389l"	"600"	"1366"	"chrome"	"108.0.0"	"FALSE"	"Windows 10"	"61.62"	"135"	n/a	n/a	n/a	n/a	n/a	n/a	"Trial"	n/a	n/a	n/a	"734"	"arrowleft"	n/a	"NULL"	"NULL"	"NULL"	"stimuli/VerticalHorizontal_11.78571_0.16217.png"	n/a	"VerticalHorizontal"	"arrowleft"	"1050"	"TRUE"	"VerticalHorizontal"	"11.785710000"	"0.1621700000"	"1"	"22"
n/a	"html-keyboard-response"	"61"	"280831"	"0.0-5.0-2.0-0.4"	"jn389l"	"600"	"1366"	"chrome"	"108.0.0"	"FALSE"	"Windows 10"	"61.62"	"135"	n/a	n/a	n/a	n/a	n/a	n/a	"fixation"	n/a	n/a	n/a	n/a	"NULL"	n/a	"NULL"	"NULL"	"NULL"	"<p style=\"color: black; font-size: 80px; padding-left: 27%; padding-right: 15%; padding-top: 37%; padding-bottom: 18%\">+</p>"	"1305"	n/a	n/a	n/a	n/a	n/a	n/a	n/a	n/a	n/a
n/a	"image-keyboard-response"	"62"	"281497"	"0.0-5.0-2.0-1.4"	"jn389l"	"600"	"1366"	"chrome"	"108.0.0"	"FALSE"	"Windows 10"	"61.62"	"135"	n/a	n/a	n/a	n/a	n/a	n/a	"Trial"	n/a	n/a	n/a	"665"	"arrowleft"	n/a	"NULL"	"NULL"	"NULL"	"stimuli/VerticalHorizontal_-20.27143_0.16217.png"	n/a	"VerticalHorizontal"	"arrowleft"	"1329"	"TRUE"	"VerticalHorizontal"	"-20.27143000"	"0.1621700000"	"1"	"23"
n/a	"html-keyboard-response"	"63"	"282994"	"0.0-5.0-2.0-0.5"	"jn389l"	"600"	"1366"	"chrome"	"108.0.0"	"FALSE"	"Windows 10"	"61.62"	"135"	n/a	n/a	n/a	n/a	n/a	n/a	"fixation"	n/a	n/a	n/a	n/a	"NULL"	n/a	"NULL"	"NULL"	"NULL"	"<p style=\"color: black; font-size: 80px; padding-left: 36%; padding-right: 7%; padding-top: 36%; padding-bottom: 41%\">+</p>"	"1485"	n/a	n/a	n/a	n/a	n/a	n/a	n/a	n/a	n/a
n/a	"image-keyboard-response"	"64"	"283607"	"0.0-5.0-2.0-1.5"	"jn389l"	"600"	"1366"	"chrome"	"108.0.0"	"FALSE"	"Windows 10"	"61.62"	"135"	n/a	n/a	n/a	n/a	n/a	n/a	"Trial"	n/a	n/a	n/a	"612"	"arrowright"	n/a	"NULL"	"NULL"	"NULL"	"stimuli/VerticalHorizontal_3.30000_-0.0673.png"	n/a	"VerticalHorizontal"	"arrowright"	"1497"	"TRUE"	"VerticalHorizontal"	"3.3000000000"	"-0.067300000"	"1"	"24"
n/a	"html-keyboard-response"	"65"	"284687"	"0.0-5.0-2.0-0.6"	"jn389l"	"600"	"1366"	"chrome"	"108.0.0"	"FALSE"	"Windows 10"	"61.62"	"135"	n/a	n/a	n/a	n/a	n/a	n/a	"fixation"	n/a	n/a	n/a	n/a	"NULL"	n/a	"NULL"	"NULL"	"NULL"	"<p style=\"color: black; font-size: 80px; padding-left: 17%; padding-right: 17%; padding-top: 38%; padding-bottom: 32%\">+</p>"	"1060"	n/a	n/a	n/a	n/a	n/a	n/a	n/a	n/a	n/a
n/a	"image-keyboard-response"	"66"	"285165"	"0.0-5.0-2.0-1.6"	"jn389l"	"600"	"1366"	"chrome"	"108.0.0"	"FALSE"	"Windows 10"	"61.62"	"135"	n/a	n/a	n/a	n/a	n/a	n/a	"Trial"	n/a	n/a	n/a	"476"	"arrowright"	n/a	"NULL"	"NULL"	"NULL"	"stimuli/VerticalHorizontal_-20.27143_-0.2250.png"	n/a	"VerticalHorizontal"	"arrowright"	"1080"	"TRUE"	"VerticalHorizontal"	"-20.27143000"	"-0.225000000"	"1"	"25"
n/a	"html-keyboard-response"	"67"	"286643"	"0.0-5.0-2.0-0.7"	"jn389l"	"600"	"1366"	"chrome"	"108.0.0"	"FALSE"	"Windows 10"	"61.62"	"135"	n/a	n/a	n/a	n/a	n/a	n/a	"fixation"	n/a	n/a	n/a	n/a	"NULL"	n/a	"NULL"	"NULL"	"NULL"	"<p style=\"color: black; font-size: 80px; padding-left: 11%; padding-right: 19%; padding-top: 20%; padding-bottom: 50%\">+</p>"	"1460"	n/a	n/a	n/a	n/a	n/a	n/a	n/a	n/a	n/a
n/a	"image-keyboard-response"	"68"	"287433"	"0.0-5.0-2.0-1.7"	"jn389l"	"600"	"1366"	"chrome"	"108.0.0"	"FALSE"	"Windows 10"	"61.62"	"135"	n/a	n/a	n/a	n/a	n/a	n/a	"Trial"	n/a	n/a	n/a	"789"	"arrowright"	n/a	"NULL"	"NULL"	"NULL"	"stimuli/VerticalHorizontal_-3.3000_-0.16217.png"	n/a	"VerticalHorizontal"	"arrowright"	"1478"	"TRUE"	"VerticalHorizontal"	"-3.300000000"	"-0.162170000"	"1"	"26"
n/a	"html-keyboard-response"	"69"	"288786"	"0.0-5.0-2.0-0.8"	"jn389l"	"600"	"1366"	"chrome"	"108.0.0"	"FALSE"	"Windows 10"	"61.62"	"135"	n/a	n/a	n/a	n/a	n/a	n/a	"fixation"	n/a	n/a	n/a	n/a	"NULL"	n/a	"NULL"	"NULL"	"NULL"	"<p style=\"color: black; font-size: 80px; padding-left: 49%; padding-right: 12%; padding-top: 30%; padding-bottom: 16%\">+</p>"	"1340"	n/a	n/a	n/a	n/a	n/a	n/a	n/a	n/a	n/a
n/a	"image-keyboard-response"	"70"	"289650"	"0.0-5.0-2.0-1.8"	"jn389l"	"600"	"1366"	"chrome"	"108.0.0"	"FALSE"	"Windows 10"	"61.62"	"135"	n/a	n/a	n/a	n/a	n/a	n/a	"Trial"	n/a	n/a	n/a	"853"	"arrowleft"	n/a	"NULL"	"NULL"	"NULL"	"stimuli/VerticalHorizontal_20.27143_0.16217.png"	n/a	"VerticalHorizontal"	"arrowleft"	"1353"	"TRUE"	"VerticalHorizontal"	"20.271430000"	"0.1621700000"	"1"	"27"
n/a	"html-keyboard-response"	"71"	"290927"	"0.0-5.0-2.0-0.9"	"jn389l"	"600"	"1366"	"chrome"	"108.0.0"	"FALSE"	"Windows 10"	"61.62"	"135"	n/a	n/a	n/a	n/a	n/a	n/a	"fixation"	n/a	n/a	n/a	n/a	"NULL"	n/a	"NULL"	"NULL"	"NULL"	"<p style=\"color: black; font-size: 80px; padding-left: 39%; padding-right: 36%; padding-top: 29%; padding-bottom: 40%\">+</p>"	"1251"	n/a	n/a	n/a	n/a	n/a	n/a	n/a	n/a	n/a
n/a	"image-keyboard-response"	"72"	"292028"	"0.0-5.0-2.0-1.9"	"jn389l"	"600"	"1366"	"chrome"	"108.0.0"	"FALSE"	"Windows 10"	"61.62"	"135"	n/a	n/a	n/a	n/a	n/a	n/a	"Trial"	n/a	n/a	n/a	"1098"	"arrowright"	n/a	"NULL"	"NULL"	"NULL"	"stimuli/VerticalHorizontal_28.75714_0.06730.png"	n/a	"VerticalHorizontal"	"arrowleft"	"1277"	"FALSE"	"VerticalHorizontal"	"28.757140000"	"0.0673000000"	"1"	"28"
n/a	"html-keyboard-response"	"73"	"293480"	"0.0-5.0-2.0-0.10"	"jn389l"	"600"	"1366"	"chrome"	"108.0.0"	"FALSE"	"Windows 10"	"61.62"	"135"	n/a	n/a	n/a	n/a	n/a	n/a	"fixation"	n/a	n/a	n/a	n/a	"NULL"	n/a	"NULL"	"NULL"	"NULL"	"<p style=\"color: black; font-size: 80px; padding-left: 8%; padding-right: 14%; padding-top: 31%; padding-bottom: 30%\">+</p>"	"1441"	n/a	n/a	n/a	n/a	n/a	n/a	n/a	n/a	n/a
n/a	"image-keyboard-response"	"74"	"294226"	"0.0-5.0-2.0-1.10"	"jn389l"	"600"	"1366"	"chrome"	"108.0.0"	"FALSE"	"Windows 10"	"61.62"	"135"	n/a	n/a	n/a	n/a	n/a	n/a	"Trial"	n/a	n/a	n/a	"744"	"arrowleft"	n/a	"NULL"	"NULL"	"NULL"	"stimuli/VerticalHorizontal_11.78571_-0.0673.png"	n/a	"VerticalHorizontal"	"arrowright"	"1452"	"FALSE"	"VerticalHorizontal"	"11.785710000"	"-0.067300000"	"1"	"29"
n/a	"html-keyboard-response"	"75"	"295258"	"0.0-5.0-2.0-0.11"	"jn389l"	"600"	"1366"	"chrome"	"108.0.0"	"FALSE"	"Windows 10"	"61.62"	"135"	n/a	n/a	n/a	n/a	n/a	n/a	"fixation"	n/a	n/a	n/a	n/a	"NULL"	n/a	"NULL"	"NULL"	"NULL"	"<p style=\"color: black; font-size: 80px; padding-left: 14%; padding-right: 23%; padding-top: 7%; padding-bottom: 24%\">+</p>"	"1013"	n/a	n/a	n/a	n/a	n/a	n/a	n/a	n/a	n/a
n/a	"image-keyboard-response"	"76"	"295888"	"0.0-5.0-2.0-1.11"	"jn389l"	"600"	"1366"	"chrome"	"108.0.0"	"FALSE"	"Windows 10"	"61.62"	"135"	n/a	n/a	n/a	n/a	n/a	n/a	"Trial"	n/a	n/a	n/a	"628"	"arrowright"	n/a	"NULL"	"NULL"	"NULL"	"stimuli/VerticalHorizontal_3.30000_0.10960.png"	n/a	"VerticalHorizontal"	"arrowleft"	"1032"	"FALSE"	"VerticalHorizontal"	"3.3000000000"	"0.1096000000"	"1"	"30"
n/a	"html-keyboard-response"	"77"	"297114"	"0.0-5.0-2.0-0.12"	"jn389l"	"600"	"1366"	"chrome"	"108.0.0"	"FALSE"	"Windows 10"	"61.62"	"135"	n/a	n/a	n/a	n/a	n/a	n/a	"fixation"	n/a	n/a	n/a	n/a	"NULL"	n/a	"NULL"	"NULL"	"NULL"	"<p style=\"color: black; font-size: 80px; padding-left: 2%; padding-right: 44%; padding-top: 49%; padding-bottom: 34%\">+</p>"	"1208"	n/a	n/a	n/a	n/a	n/a	n/a	n/a	n/a	n/a
n/a	"image-keyboard-response"	"78"	"297752"	"0.0-5.0-2.0-1.12"	"jn389l"	"600"	"1366"	"chrome"	"108.0.0"	"FALSE"	"Windows 10"	"61.62"	"135"	n/a	n/a	n/a	n/a	n/a	n/a	"Trial"	n/a	n/a	n/a	"636"	"arrowright"	n/a	"NULL"	"NULL"	"NULL"	"stimuli/VerticalHorizontal_20.27143_-0.0673.png"	n/a	"VerticalHorizontal"	"arrowright"	"1226"	"TRUE"	"VerticalHorizontal"	"20.271430000"	"-0.067300000"	"1"	"31"
n/a	"html-keyboard-response"	"79"	"299245"	"0.0-5.0-2.0-0.13"	"jn389l"	"600"	"1366"	"chrome"	"108.0.0"	"FALSE"	"Windows 10"	"61.62"	"135"	n/a	n/a	n/a	n/a	n/a	n/a	"fixation"	n/a	n/a	n/a	n/a	"NULL"	n/a	"NULL"	"NULL"	"NULL"	"<p style=\"color: black; font-size: 80px; padding-left: 3%; padding-right: 1%; padding-top: 30%; padding-bottom: 48%\">+</p>"	"1476"	n/a	n/a	n/a	n/a	n/a	n/a	n/a	n/a	n/a
n/a	"image-keyboard-response"	"80"	"299816"	"0.0-5.0-2.0-1.13"	"jn389l"	"600"	"1366"	"chrome"	"108.0.0"	"FALSE"	"Windows 10"	"61.62"	"135"	n/a	n/a	n/a	n/a	n/a	n/a	"Trial"	n/a	n/a	n/a	"570"	"arrowright"	n/a	"NULL"	"NULL"	"NULL"	"stimuli/VerticalHorizontal_11.78571_-0.2250.png"	n/a	"VerticalHorizontal"	"arrowright"	"1493"	"TRUE"	"VerticalHorizontal"	"11.785710000"	"-0.225000000"	"1"	"32"
n/a	"html-keyboard-response"	"81"	"301299"	"0.0-5.0-2.0-0.14"	"jn389l"	"600"	"1366"	"chrome"	"108.0.0"	"FALSE"	"Windows 10"	"61.62"	"135"	n/a	n/a	n/a	n/a	n/a	n/a	"fixation"	n/a	n/a	n/a	n/a	"NULL"	n/a	"NULL"	"NULL"	"NULL"	"<p style=\"color: black; font-size: 80px; padding-left: 22%; padding-right: 15%; padding-top: 44%; padding-bottom: 35%\">+</p>"	"1465"	n/a	n/a	n/a	n/a	n/a	n/a	n/a	n/a	n/a
n/a	"image-keyboard-response"	"82"	"302192"	"0.0-5.0-2.0-1.14"	"jn389l"	"600"	"1366"	"chrome"	"108.0.0"	"FALSE"	"Windows 10"	"61.62"	"135"	n/a	n/a	n/a	n/a	n/a	n/a	"Trial"	n/a	n/a	n/a	"892"	"arrowright"	n/a	"NULL"	"NULL"	"NULL"	"stimuli/VerticalHorizontal_20.27143_-0.1096.png"	n/a	"VerticalHorizontal"	"arrowright"	"1483"	"TRUE"	"VerticalHorizontal"	"20.271430000"	"-0.109600000"	"1"	"33"
n/a	"html-keyboard-response"	"83"	"303313"	"0.0-5.0-2.0-0.15"	"jn389l"	"600"	"1366"	"chrome"	"108.0.0"	"FALSE"	"Windows 10"	"61.62"	"135"	n/a	n/a	n/a	n/a	n/a	n/a	"fixation"	n/a	n/a	n/a	n/a	"NULL"	n/a	"NULL"	"NULL"	"NULL"	"<p style=\"color: black; font-size: 80px; padding-left: 17%; padding-right: 47%; padding-top: 36%; padding-bottom: 44%\">+</p>"	"1116"	n/a	n/a	n/a	n/a	n/a	n/a	n/a	n/a	n/a
n/a	"image-keyboard-response"	"84"	"304146"	"0.0-5.0-2.0-1.15"	"jn389l"	"600"	"1366"	"chrome"	"108.0.0"	"FALSE"	"Windows 10"	"61.62"	"135"	n/a	n/a	n/a	n/a	n/a	n/a	"Trial"	n/a	n/a	n/a	"820"	"arrowright"	n/a	"NULL"	"NULL"	"NULL"	"stimuli/VerticalHorizontal_-20.27143_-0.0673.png"	n/a	"VerticalHorizontal"	"arrowright"	"1121"	"TRUE"	"VerticalHorizontal"	"-20.27143000"	"-0.067300000"	"1"	"34"
n/a	"html-keyboard-response"	"85"	"305419"	"0.0-5.0-2.0-0.16"	"jn389l"	"600"	"1366"	"chrome"	"108.0.0"	"FALSE"	"Windows 10"	"61.62"	"135"	n/a	n/a	n/a	n/a	n/a	n/a	"fixation"	n/a	n/a	n/a	n/a	"NULL"	n/a	"NULL"	"NULL"	"NULL"	"<p style=\"color: black; font-size: 80px; padding-left: 10%; padding-right: 9%; padding-top: 20%; padding-bottom: 19%\">+</p>"	"1253"	n/a	n/a	n/a	n/a	n/a	n/a	n/a	n/a	n/a
n/a	"image-keyboard-response"	"86"	"306270"	"0.0-5.0-2.0-1.16"	"jn389l"	"600"	"1366"	"chrome"	"108.0.0"	"FALSE"	"Windows 10"	"61.62"	"135"	n/a	n/a	n/a	n/a	n/a	n/a	"Trial"	n/a	n/a	n/a	"849"	"arrowleft"	n/a	"NULL"	"NULL"	"NULL"	"stimuli/VerticalHorizontal_20.27143_0.22500.png"	n/a	"VerticalHorizontal"	"arrowleft"	"1273"	"TRUE"	"VerticalHorizontal"	"20.271430000"	"0.2250000000"	"1"	"35"
n/a	"html-keyboard-response"	"87"	"307361"	"0.0-5.0-2.0-0.17"	"jn389l"	"600"	"1366"	"chrome"	"108.0.0"	"FALSE"	"Windows 10"	"61.62"	"135"	n/a	n/a	n/a	n/a	n/a	n/a	"fixation"	n/a	n/a	n/a	n/a	"NULL"	n/a	"NULL"	"NULL"	"NULL"	"<p style=\"color: black; font-size: 80px; padding-left: 32%; padding-right: 43%; padding-top: 48%; padding-bottom: 34%\">+</p>"	"1071"	n/a	n/a	n/a	n/a	n/a	n/a	n/a	n/a	n/a
n/a	"image-keyboard-response"	"88"	"308053"	"0.0-5.0-2.0-1.17"	"jn389l"	"600"	"1366"	"chrome"	"108.0.0"	"FALSE"	"Windows 10"	"61.62"	"135"	n/a	n/a	n/a	n/a	n/a	n/a	"Trial"	n/a	n/a	n/a	"690"	"arrowleft"	n/a	"NULL"	"NULL"	"NULL"	"stimuli/VerticalHorizontal_-3.3000_0.16217.png"	n/a	"VerticalHorizontal"	"arrowleft"	"1091"	"TRUE"	"VerticalHorizontal"	"-3.300000000"	"0.1621700000"	"1"	"36"
n/a	"html-keyboard-response"	"89"	"309325"	"0.0-5.0-2.0-0.18"	"jn389l"	"600"	"1366"	"chrome"	"108.0.0"	"FALSE"	"Windows 10"	"61.62"	"135"	n/a	n/a	n/a	n/a	n/a	n/a	"fixation"	n/a	n/a	n/a	n/a	"NULL"	n/a	"NULL"	"NULL"	"NULL"	"<p style=\"color: black; font-size: 80px; padding-left: 43%; padding-right: 20%; padding-top: 37%; padding-bottom: 29%\">+</p>"	"1263"	n/a	n/a	n/a	n/a	n/a	n/a	n/a	n/a	n/a
n/a	"image-keyboard-response"	"90"	"310304"	"0.0-5.0-2.0-1.18"	"jn389l"	"600"	"1366"	"chrome"	"108.0.0"	"FALSE"	"Windows 10"	"61.62"	"135"	n/a	n/a	n/a	n/a	n/a	n/a	"Trial"	n/a	n/a	n/a	"977"	"arrowleft"	n/a	"NULL"	"NULL"	"NULL"	"stimuli/VerticalHorizontal_28.75714_0.22500.png"	n/a	"VerticalHorizontal"	"arrowleft"	"1272"	"TRUE"	"VerticalHorizontal"	"28.757140000"	"0.2250000000"	"1"	"37"
n/a	"html-keyboard-response"	"91"	"311667"	"0.0-5.0-2.0-0.19"	"jn389l"	"600"	"1366"	"chrome"	"108.0.0"	"FALSE"	"Windows 10"	"61.62"	"135"	n/a	n/a	n/a	n/a	n/a	n/a	"fixation"	n/a	n/a	n/a	n/a	"NULL"	n/a	"NULL"	"NULL"	"NULL"	"<p style=\"color: black; font-size: 80px; padding-left: 48%; padding-right: 45%; padding-top: 19%; padding-bottom: 27%\">+</p>"	"1346"	n/a	n/a	n/a	n/a	n/a	n/a	n/a	n/a	n/a
n/a	"image-keyboard-response"	"92"	"312321"	"0.0-5.0-2.0-1.19"	"jn389l"	"600"	"1366"	"chrome"	"108.0.0"	"FALSE"	"Windows 10"	"61.62"	"135"	n/a	n/a	n/a	n/a	n/a	n/a	"Trial"	n/a	n/a	n/a	"653"	"arrowright"	n/a	"NULL"	"NULL"	"NULL"	"stimuli/VerticalHorizontal_-28.75714_-0.2250.png"	n/a	"VerticalHorizontal"	"arrowright"	"1363"	"TRUE"	"VerticalHorizontal"	"-28.75714000"	"-0.225000000"	"1"	"38"
n/a	"html-keyboard-response"	"93"	"313515"	"0.0-5.0-2.0-0.20"	"jn389l"	"600"	"1366"	"chrome"	"108.0.0"	"FALSE"	"Windows 10"	"61.62"	"135"	n/a	n/a	n/a	n/a	n/a	n/a	"fixation"	n/a	n/a	n/a	n/a	"NULL"	n/a	"NULL"	"NULL"	"NULL"	"<p style=\"color: black; font-size: 80px; padding-left: 36%; padding-right: 41%; padding-top: 45%; padding-bottom: 41%\">+</p>"	"1188"	n/a	n/a	n/a	n/a	n/a	n/a	n/a	n/a	n/a
n/a	"image-keyboard-response"	"94"	"314272"	"0.0-5.0-2.0-1.20"	"jn389l"	"600"	"1366"	"chrome"	"108.0.0"	"FALSE"	"Windows 10"	"61.62"	"135"	n/a	n/a	n/a	n/a	n/a	n/a	"Trial"	n/a	n/a	n/a	"755"	"arrowright"	n/a	"NULL"	"NULL"	"NULL"	"stimuli/VerticalHorizontal_-11.78571_-0.0673.png"	n/a	"VerticalHorizontal"	"arrowright"	"1194"	"TRUE"	"VerticalHorizontal"	"-11.78571000"	"-0.067300000"	"1"	"39"
n/a	"html-keyboard-response"	"95"	"315701"	"0.0-5.0-2.0-0.21"	"jn389l"	"600"	"1366"	"chrome"	"108.0.0"	"FALSE"	"Windows 10"	"61.62"	"135"	n/a	n/a	n/a	n/a	n/a	n/a	"fixation"	n/a	n/a	n/a	n/a	"NULL"	n/a	"NULL"	"NULL"	"NULL"	"<p style=\"color: black; font-size: 80px; padding-left: 32%; padding-right: 16%; padding-top: 12%; padding-bottom: 2%\">+</p>"	"1407"	n/a	n/a	n/a	n/a	n/a	n/a	n/a	n/a	n/a
n/a	"image-keyboard-response"	"96"	"316426"	"0.0-5.0-2.0-1.21"	"jn389l"	"600"	"1366"	"chrome"	"108.0.0"	"FALSE"	"Windows 10"	"61.62"	"135"	n/a	n/a	n/a	n/a	n/a	n/a	"Trial"	n/a	n/a	n/a	"723"	"arrowleft"	n/a	"NULL"	"NULL"	"NULL"	"stimuli/VerticalHorizontal_-11.78571_0.10960.png"	n/a	"VerticalHorizontal"	"arrowleft"	"1429"	"TRUE"	"VerticalHorizontal"	"-11.78571000"	"0.1096000000"	"1"	"40"
n/a	"html-keyboard-response"	"97"	"317715"	"0.0-5.0-2.0-0.22"	"jn389l"	"600"	"1366"	"chrome"	"108.0.0"	"FALSE"	"Windows 10"	"61.62"	"135"	n/a	n/a	n/a	n/a	n/a	n/a	"fixation"	n/a	n/a	n/a	n/a	"NULL"	n/a	"NULL"	"NULL"	"NULL"	"<p style=\"color: black; font-size: 80px; padding-left: 32%; padding-right: 0%; padding-top: 11%; padding-bottom: 32%\">+</p>"	"1270"	n/a	n/a	n/a	n/a	n/a	n/a	n/a	n/a	n/a
n/a	"image-keyboard-response"	"98"	"318231"	"0.0-5.0-2.0-1.22"	"jn389l"	"600"	"1366"	"chrome"	"108.0.0"	"FALSE"	"Windows 10"	"61.62"	"135"	n/a	n/a	n/a	n/a	n/a	n/a	"Trial"	n/a	n/a	n/a	"514"	"arrowright"	n/a	"NULL"	"NULL"	"NULL"	"stimuli/VerticalHorizontal_-3.3000_-0.2250.png"	n/a	"VerticalHorizontal"	"arrowright"	"1289"	"TRUE"	"VerticalHorizontal"	"-3.300000000"	"-0.225000000"	"1"	"41"
n/a	"html-keyboard-response"	"99"	"319485"	"0.0-5.0-2.0-0.23"	"jn389l"	"600"	"1366"	"chrome"	"108.0.0"	"FALSE"	"Windows 10"	"61.62"	"135"	n/a	n/a	n/a	n/a	n/a	n/a	"fixation"	n/a	n/a	n/a	n/a	"NULL"	n/a	"NULL"	"NULL"	"NULL"	"<p style=\"color: black; font-size: 80px; padding-left: 9%; padding-right: 27%; padding-top: 9%; padding-bottom: 7%\">+</p>"	"1235"	n/a	n/a	n/a	n/a	n/a	n/a	n/a	n/a	n/a
n/a	"image-keyboard-response"	"100"	"320436"	"0.0-5.0-2.0-1.23"	"jn389l"	"600"	"1366"	"chrome"	"108.0.0"	"FALSE"	"Windows 10"	"61.62"	"135"	n/a	n/a	n/a	n/a	n/a	n/a	"Trial"	n/a	n/a	n/a	"950"	"arrowright"	n/a	"NULL"	"NULL"	"NULL"	"stimuli/VerticalHorizontal_28.75714_-0.1096.png"	n/a	"VerticalHorizontal"	"arrowright"	"1254"	"TRUE"	"VerticalHorizontal"	"28.757140000"	"-0.109600000"	"1"	"42"
n/a	"html-keyboard-response"	"101"	"321564"	"0.0-5.0-2.0-0.24"	"jn389l"	"600"	"1366"	"chrome"	"108.0.0"	"FALSE"	"Windows 10"	"61.62"	"135"	n/a	n/a	n/a	n/a	n/a	n/a	"fixation"	n/a	n/a	n/a	n/a	"NULL"	n/a	"NULL"	"NULL"	"NULL"	"<p style=\"color: black; font-size: 80px; padding-left: 47%; padding-right: 38%; padding-top: 17%; padding-bottom: 18%\">+</p>"	"1107"	n/a	n/a	n/a	n/a	n/a	n/a	n/a	n/a	n/a
n/a	"image-keyboard-response"	"102"	"322356"	"0.0-5.0-2.0-1.24"	"jn389l"	"600"	"1366"	"chrome"	"108.0.0"	"FALSE"	"Windows 10"	"61.62"	"135"	n/a	n/a	n/a	n/a	n/a	n/a	"Trial"	n/a	n/a	n/a	"791"	"arrowleft"	n/a	"NULL"	"NULL"	"NULL"	"stimuli/VerticalHorizontal_-3.3000_0.22500.png"	n/a	"VerticalHorizontal"	"arrowleft"	"1128"	"TRUE"	"VerticalHorizontal"	"-3.300000000"	"0.2250000000"	"1"	"43"
n/a	"html-keyboard-response"	"103"	"323671"	"0.0-5.0-2.0-0.25"	"jn389l"	"600"	"1366"	"chrome"	"108.0.0"	"FALSE"	"Windows 10"	"61.62"	"135"	n/a	n/a	n/a	n/a	n/a	n/a	"fixation"	n/a	n/a	n/a	n/a	"NULL"	n/a	"NULL"	"NULL"	"NULL"	"<p style=\"color: black; font-size: 80px; padding-left: 28%; padding-right: 36%; padding-top: 24%; padding-bottom: 10%\">+</p>"	"1305"	n/a	n/a	n/a	n/a	n/a	n/a	n/a	n/a	n/a
n/a	"image-keyboard-response"	"104"	"324516"	"0.0-5.0-2.0-1.25"	"jn389l"	"600"	"1366"	"chrome"	"108.0.0"	"FALSE"	"Windows 10"	"61.62"	"135"	n/a	n/a	n/a	n/a	n/a	n/a	"Trial"	n/a	n/a	n/a	"844"	"arrowleft"	n/a	"NULL"	"NULL"	"NULL"	"stimuli/VerticalHorizontal_3.30000_0.16217.png"	n/a	"VerticalHorizontal"	"arrowleft"	"1315"	"TRUE"	"VerticalHorizontal"	"3.3000000000"	"0.1621700000"	"1"	"44"
n/a	"html-keyboard-response"	"105"	"325673"	"0.0-5.0-2.0-0.26"	"jn389l"	"600"	"1366"	"chrome"	"108.0.0"	"FALSE"	"Windows 10"	"61.62"	"135"	n/a	n/a	n/a	n/a	n/a	n/a	"fixation"	n/a	n/a	n/a	n/a	"NULL"	n/a	"NULL"	"NULL"	"NULL"	"<p style=\"color: black; font-size: 80px; padding-left: 28%; padding-right: 30%; padding-top: 33%; padding-bottom: 46%\">+</p>"	"1140"	n/a	n/a	n/a	n/a	n/a	n/a	n/a	n/a	n/a
n/a	"image-keyboard-response"	"106"	"326532"	"0.0-5.0-2.0-1.26"	"jn389l"	"600"	"1366"	"chrome"	"108.0.0"	"FALSE"	"Windows 10"	"61.62"	"135"	n/a	n/a	n/a	n/a	n/a	n/a	"Trial"	n/a	n/a	n/a	"857"	"arrowright"	n/a	"NULL"	"NULL"	"NULL"	"stimuli/VerticalHorizontal_28.75714_-0.0673.png"	n/a	"VerticalHorizontal"	"arrowright"	"1157"	"TRUE"	"VerticalHorizontal"	"28.757140000"	"-0.067300000"	"1"	"45"
n/a	"html-keyboard-response"	"107"	"327798"	"0.0-5.0-2.0-0.27"	"jn389l"	"600"	"1366"	"chrome"	"108.0.0"	"FALSE"	"Windows 10"	"61.62"	"135"	n/a	n/a	n/a	n/a	n/a	n/a	"fixation"	n/a	n/a	n/a	n/a	"NULL"	n/a	"NULL"	"NULL"	"NULL"	"<p style=\"color: black; font-size: 80px; padding-left: 31%; padding-right: 4%; padding-top: 46%; padding-bottom: 10%\">+</p>"	"1253"	n/a	n/a	n/a	n/a	n/a	n/a	n/a	n/a	n/a
n/a	"image-keyboard-response"	"108"	"328467"	"0.0-5.0-2.0-1.27"	"jn389l"	"600"	"1366"	"chrome"	"108.0.0"	"FALSE"	"Windows 10"	"61.62"	"135"	n/a	n/a	n/a	n/a	n/a	n/a	"Trial"	n/a	n/a	n/a	"668"	"arrowright"	n/a	"NULL"	"NULL"	"NULL"	"stimuli/VerticalHorizontal_-28.75714_-0.16217.png"	n/a	"VerticalHorizontal"	"arrowright"	"1266"	"TRUE"	"VerticalHorizontal"	"-28.75714000"	"-0.162170000"	"1"	"46"
n/a	"html-keyboard-response"	"109"	"329788"	"0.0-5.0-2.0-0.28"	"jn389l"	"600"	"1366"	"chrome"	"108.0.0"	"FALSE"	"Windows 10"	"61.62"	"135"	n/a	n/a	n/a	n/a	n/a	n/a	"fixation"	n/a	n/a	n/a	n/a	"NULL"	n/a	"NULL"	"NULL"	"NULL"	"<p style=\"color: black; font-size: 80px; padding-left: 6%; padding-right: 47%; padding-top: 15%; padding-bottom: 19%\">+</p>"	"1301"	n/a	n/a	n/a	n/a	n/a	n/a	n/a	n/a	n/a
n/a	"image-keyboard-response"	"110"	"330618"	"0.0-5.0-2.0-1.28"	"jn389l"	"600"	"1366"	"chrome"	"108.0.0"	"FALSE"	"Windows 10"	"61.62"	"135"	n/a	n/a	n/a	n/a	n/a	n/a	"Trial"	n/a	n/a	n/a	"828"	"arrowleft"	n/a	"NULL"	"NULL"	"NULL"	"stimuli/VerticalHorizontal_-11.78571_0.06730.png"	n/a	"VerticalHorizontal"	"arrowleft"	"1321"	"TRUE"	"VerticalHorizontal"	"-11.78571000"	"0.0673000000"	"1"	"47"
n/a	"html-keyboard-response"	"111"	"331879"	"0.0-5.0-2.0-0.29"	"jn389l"	"600"	"1366"	"chrome"	"108.0.0"	"FALSE"	"Windows 10"	"61.62"	"135"	n/a	n/a	n/a	n/a	n/a	n/a	"fixation"	n/a	n/a	n/a	n/a	"NULL"	n/a	"NULL"	"NULL"	"NULL"	"<p style=\"color: black; font-size: 80px; padding-left: 17%; padding-right: 11%; padding-top: 35%; padding-bottom: 14%\">+</p>"	"1243"	n/a	n/a	n/a	n/a	n/a	n/a	n/a	n/a	n/a
n/a	"image-keyboard-response"	"112"	"332432"	"0.0-5.0-2.0-1.29"	"jn389l"	"600"	"1366"	"chrome"	"108.0.0"	"FALSE"	"Windows 10"	"61.62"	"135"	n/a	n/a	n/a	n/a	n/a	n/a	"Trial"	n/a	n/a	n/a	"550"	"arrowleft"	n/a	"NULL"	"NULL"	"NULL"	"stimuli/VerticalHorizontal_-28.75714_0.22500.png"	n/a	"VerticalHorizontal"	"arrowleft"	"1261"	"TRUE"	"VerticalHorizontal"	"-28.75714000"	"0.2250000000"	"1"	"48"
n/a	"html-keyboard-response"	"113"	"333812"	"0.0-5.0-2.0-0.30"	"jn389l"	"600"	"1366"	"chrome"	"108.0.0"	"FALSE"	"Windows 10"	"61.62"	"135"	n/a	n/a	n/a	n/a	n/a	n/a	"fixation"	n/a	n/a	n/a	n/a	"NULL"	n/a	"NULL"	"NULL"	"NULL"	"<p style=\"color: black; font-size: 80px; padding-left: 23%; padding-right: 24%; padding-top: 8%; padding-bottom: 33%\">+</p>"	"1364"	n/a	n/a	n/a	n/a	n/a	n/a	n/a	n/a	n/a
n/a	"image-keyboard-response"	"114"	"334546"	"0.0-5.0-2.0-1.30"	"jn389l"	"600"	"1366"	"chrome"	"108.0.0"	"FALSE"	"Windows 10"	"61.62"	"135"	n/a	n/a	n/a	n/a	n/a	n/a	"Trial"	n/a	n/a	n/a	"730"	"arrowleft"	n/a	"NULL"	"NULL"	"NULL"	"stimuli/VerticalHorizontal_-11.78571_0.16217.png"	n/a	"VerticalHorizontal"	"arrowleft"	"1380"	"TRUE"	"VerticalHorizontal"	"-11.78571000"	"0.1621700000"	"1"	"49"
n/a	"html-keyboard-response"	"115"	"336031"	"0.0-5.0-2.0-0.31"	"jn389l"	"600"	"1366"	"chrome"	"108.0.0"	"FALSE"	"Windows 10"	"61.62"	"135"	n/a	n/a	n/a	n/a	n/a	n/a	"fixation"	n/a	n/a	n/a	n/a	"NULL"	n/a	"NULL"	"NULL"	"NULL"	"<p style=\"color: black; font-size: 80px; padding-left: 47%; padding-right: 22%; padding-top: 34%; padding-bottom: 23%\">+</p>"	"1482"	n/a	n/a	n/a	n/a	n/a	n/a	n/a	n/a	n/a
n/a	"image-keyboard-response"	"116"	"336885"	"0.0-5.0-2.0-1.31"	"jn389l"	"600"	"1366"	"chrome"	"108.0.0"	"FALSE"	"Windows 10"	"61.62"	"135"	n/a	n/a	n/a	n/a	n/a	n/a	"Trial"	n/a	n/a	n/a	"852"	"arrowright"	n/a	"NULL"	"NULL"	"NULL"	"stimuli/VerticalHorizontal_28.75714_0.10960.png"	n/a	"VerticalHorizontal"	"arrowleft"	"1485"	"FALSE"	"VerticalHorizontal"	"28.757140000"	"0.1096000000"	"1"	"50"
n/a	"html-keyboard-response"	"117"	"338124"	"0.0-5.0-2.0-0.32"	"jn389l"	"600"	"1366"	"chrome"	"108.0.0"	"FALSE"	"Windows 10"	"61.62"	"135"	n/a	n/a	n/a	n/a	n/a	n/a	"fixation"	n/a	n/a	n/a	n/a	"NULL"	n/a	"NULL"	"NULL"	"NULL"	"<p style=\"color: black; font-size: 80px; padding-left: 2%; padding-right: 6%; padding-top: 24%; padding-bottom: 36%\">+</p>"	"1233"	n/a	n/a	n/a	n/a	n/a	n/a	n/a	n/a	n/a
n/a	"image-keyboard-response"	"118"	"338875"	"0.0-5.0-2.0-1.32"	"jn389l"	"600"	"1366"	"chrome"	"108.0.0"	"FALSE"	"Windows 10"	"61.62"	"135"	n/a	n/a	n/a	n/a	n/a	n/a	"Trial"	n/a	n/a	n/a	"748"	"arrowleft"	n/a	"NULL"	"NULL"	"NULL"	"stimuli/VerticalHorizontal_20.27143_0.06730.png"	n/a	"VerticalHorizontal"	"arrowleft"	"1239"	"TRUE"	"VerticalHorizontal"	"20.271430000"	"0.0673000000"	"1"	"51"
n/a	"html-keyboard-response"	"119"	"340222"	"0.0-5.0-2.0-0.33"	"jn389l"	"600"	"1366"	"chrome"	"108.0.0"	"FALSE"	"Windows 10"	"61.62"	"135"	n/a	n/a	n/a	n/a	n/a	n/a	"fixation"	n/a	n/a	n/a	n/a	"NULL"	n/a	"NULL"	"NULL"	"NULL"	"<p style=\"color: black; font-size: 80px; padding-left: 9%; padding-right: 9%; padding-top: 8%; padding-bottom: 48%\">+</p>"	"1327"	n/a	n/a	n/a	n/a	n/a	n/a	n/a	n/a	n/a
n/a	"image-keyboard-response"	"120"	"340899"	"0.0-5.0-2.0-1.33"	"jn389l"	"600"	"1366"	"chrome"	"108.0.0"	"FALSE"	"Windows 10"	"61.62"	"135"	n/a	n/a	n/a	n/a	n/a	n/a	"Trial"	n/a	n/a	n/a	"676"	"arrowright"	n/a	"NULL"	"NULL"	"NULL"	"stimuli/VerticalHorizontal_-11.78571_-0.2250.png"	n/a	"VerticalHorizontal"	"arrowright"	"1347"	"TRUE"	"VerticalHorizontal"	"-11.78571000"	"-0.225000000"	"1"	"52"
n/a	"html-keyboard-response"	"121"	"342202"	"0.0-5.0-2.0-0.34"	"jn389l"	"600"	"1366"	"chrome"	"108.0.0"	"FALSE"	"Windows 10"	"61.62"	"135"	n/a	n/a	n/a	n/a	n/a	n/a	"fixation"	n/a	n/a	n/a	n/a	"NULL"	n/a	"NULL"	"NULL"	"NULL"	"<p style=\"color: black; font-size: 80px; padding-left: 17%; padding-right: 9%; padding-top: 12%; padding-bottom: 10%\">+</p>"	"1284"	n/a	n/a	n/a	n/a	n/a	n/a	n/a	n/a	n/a
n/a	"image-keyboard-response"	"122"	"342790"	"0.0-5.0-2.0-1.34"	"jn389l"	"600"	"1366"	"chrome"	"108.0.0"	"FALSE"	"Windows 10"	"61.62"	"135"	n/a	n/a	n/a	n/a	n/a	n/a	"Trial"	n/a	n/a	n/a	"587"	"arrowright"	n/a	"NULL"	"NULL"	"NULL"	"stimuli/VerticalHorizontal_3.30000_-0.2250.png"	n/a	"VerticalHorizontal"	"arrowright"	"1303"	"TRUE"	"VerticalHorizontal"	"3.3000000000"	"-0.225000000"	"1"	"53"
n/a	"html-keyboard-response"	"123"	"344221"	"0.0-5.0-2.0-0.35"	"jn389l"	"600"	"1366"	"chrome"	"108.0.0"	"FALSE"	"Windows 10"	"61.62"	"135"	n/a	n/a	n/a	n/a	n/a	n/a	"fixation"	n/a	n/a	n/a	n/a	"NULL"	n/a	"NULL"	"NULL"	"NULL"	"<p style=\"color: black; font-size: 80px; padding-left: 43%; padding-right: 32%; padding-top: 23%; padding-bottom: 4%\">+</p>"	"1421"	n/a	n/a	n/a	n/a	n/a	n/a	n/a	n/a	n/a
n/a	"image-keyboard-response"	"124"	"345110"	"0.0-5.0-2.0-1.35"	"jn389l"	"600"	"1366"	"chrome"	"108.0.0"	"FALSE"	"Windows 10"	"61.62"	"135"	n/a	n/a	n/a	n/a	n/a	n/a	"Trial"	n/a	n/a	n/a	"888"	"arrowright"	n/a	"NULL"	"NULL"	"NULL"	"stimuli/VerticalHorizontal_28.75714_-0.16217.png"	n/a	"VerticalHorizontal"	"arrowright"	"1431"	"TRUE"	"VerticalHorizontal"	"28.757140000"	"-0.162170000"	"1"	"54"
n/a	"html-keyboard-response"	"125"	"346625"	"0.0-5.0-2.0-0.36"	"jn389l"	"600"	"1366"	"chrome"	"108.0.0"	"FALSE"	"Windows 10"	"61.62"	"135"	n/a	n/a	n/a	n/a	n/a	n/a	"fixation"	n/a	n/a	n/a	n/a	"NULL"	n/a	"NULL"	"NULL"	"NULL"	"<p style=\"color: black; font-size: 80px; padding-left: 2%; padding-right: 29%; padding-top: 27%; padding-bottom: 5%\">+</p>"	"1497"	n/a	n/a	n/a	n/a	n/a	n/a	n/a	n/a	n/a
n/a	"image-keyboard-response"	"126"	"347217"	"0.0-5.0-2.0-1.36"	"jn389l"	"600"	"1366"	"chrome"	"108.0.0"	"FALSE"	"Windows 10"	"61.62"	"135"	n/a	n/a	n/a	n/a	n/a	n/a	"Trial"	n/a	n/a	n/a	"591"	"arrowleft"	n/a	"NULL"	"NULL"	"NULL"	"stimuli/VerticalHorizontal_3.30000_0.22500.png"	n/a	"VerticalHorizontal"	"arrowleft"	"1515"	"TRUE"	"VerticalHorizontal"	"3.3000000000"	"0.2250000000"	"1"	"55"
n/a	"html-keyboard-response"	"127"	"348514"	"0.0-5.0-2.0-0.37"	"jn389l"	"600"	"1366"	"chrome"	"108.0.0"	"FALSE"	"Windows 10"	"61.62"	"135"	n/a	n/a	n/a	n/a	n/a	n/a	"fixation"	n/a	n/a	n/a	n/a	"NULL"	n/a	"NULL"	"NULL"	"NULL"	"<p style=\"color: black; font-size: 80px; padding-left: 25%; padding-right: 17%; padding-top: 3%; padding-bottom: 21%\">+</p>"	"1281"	n/a	n/a	n/a	n/a	n/a	n/a	n/a	n/a	n/a
n/a	"image-keyboard-response"	"128"	"349290"	"0.0-5.0-2.0-1.37"	"jn389l"	"600"	"1366"	"chrome"	"108.0.0"	"FALSE"	"Windows 10"	"61.62"	"135"	n/a	n/a	n/a	n/a	n/a	n/a	"Trial"	n/a	n/a	n/a	"776"	"arrowleft"	n/a	"NULL"	"NULL"	"NULL"	"stimuli/VerticalHorizontal_-3.3000_0.10960.png"	n/a	"VerticalHorizontal"	"arrowleft"	"1297"	"TRUE"	"VerticalHorizontal"	"-3.300000000"	"0.1096000000"	"1"	"56"
n/a	"html-keyboard-response"	"129"	"350358"	"0.0-5.0-2.0-0.38"	"jn389l"	"600"	"1366"	"chrome"	"108.0.0"	"FALSE"	"Windows 10"	"61.62"	"135"	n/a	n/a	n/a	n/a	n/a	n/a	"fixation"	n/a	n/a	n/a	n/a	"NULL"	n/a	"NULL"	"NULL"	"NULL"	"<p style=\"color: black; font-size: 80px; padding-left: 31%; padding-right: 2%; padding-top: 40%; padding-bottom: 36%\">+</p>"	"1049"	n/a	n/a	n/a	n/a	n/a	n/a	n/a	n/a	n/a
n/a	"image-keyboard-response"	"130"	"350996"	"0.0-5.0-2.0-1.38"	"jn389l"	"600"	"1366"	"chrome"	"108.0.0"	"FALSE"	"Windows 10"	"61.62"	"135"	n/a	n/a	n/a	n/a	n/a	n/a	"Trial"	n/a	n/a	n/a	"637"	"arrowright"	n/a	"NULL"	"NULL"	"NULL"	"stimuli/VerticalHorizontal_11.78571_-0.1096.png"	n/a	"VerticalHorizontal"	"arrowright"	"1068"	"TRUE"	"VerticalHorizontal"	"11.785710000"	"-0.109600000"	"1"	"57"
n/a	"html-keyboard-response"	"131"	"352464"	"0.0-5.0-2.0-0.39"	"jn389l"	"600"	"1366"	"chrome"	"108.0.0"	"FALSE"	"Windows 10"	"61.62"	"135"	n/a	n/a	n/a	n/a	n/a	n/a	"fixation"	n/a	n/a	n/a	n/a	"NULL"	n/a	"NULL"	"NULL"	"NULL"	"<p style=\"color: black; font-size: 80px; padding-left: 29%; padding-right: 41%; padding-top: 48%; padding-bottom: 26%\">+</p>"	"1455"	n/a	n/a	n/a	n/a	n/a	n/a	n/a	n/a	n/a
n/a	"image-keyboard-response"	"132"	"353152"	"0.0-5.0-2.0-1.39"	"jn389l"	"600"	"1366"	"chrome"	"108.0.0"	"FALSE"	"Windows 10"	"61.62"	"135"	n/a	n/a	n/a	n/a	n/a	n/a	"Trial"	n/a	n/a	n/a	"686"	"arrowright"	n/a	"NULL"	"NULL"	"NULL"	"stimuli/VerticalHorizontal_-20.27143_-0.16217.png"	n/a	"VerticalHorizontal"	"arrowright"	"1468"	"TRUE"	"VerticalHorizontal"	"-20.27143000"	"-0.162170000"	"1"	"58"
n/a	"html-keyboard-response"	"133"	"354492"	"0.0-5.0-2.0-0.40"	"jn389l"	"600"	"1366"	"chrome"	"108.0.0"	"FALSE"	"Windows 10"	"61.62"	"135"	n/a	n/a	n/a	n/a	n/a	n/a	"fixation"	n/a	n/a	n/a	n/a	"NULL"	n/a	"NULL"	"NULL"	"NULL"	"<p style=\"color: black; font-size: 80px; padding-left: 23%; padding-right: 24%; padding-top: 17%; padding-bottom: 18%\">+</p>"	"1319"	n/a	n/a	n/a	n/a	n/a	n/a	n/a	n/a	n/a
n/a	"image-keyboard-response"	"134"	"355610"	"0.0-5.0-2.0-1.40"	"jn389l"	"600"	"1366"	"chrome"	"108.0.0"	"FALSE"	"Windows 10"	"61.62"	"135"	n/a	n/a	n/a	n/a	n/a	n/a	"Trial"	n/a	n/a	n/a	"1117"	"arrowright"	n/a	"NULL"	"NULL"	"NULL"	"stimuli/VerticalHorizontal_28.75714_-0.2250.png"	n/a	"VerticalHorizontal"	"arrowright"	"1340"	"TRUE"	"VerticalHorizontal"	"28.757140000"	"-0.225000000"	"1"	"59"
n/a	"html-keyboard-response"	"135"	"356849"	"0.0-5.0-2.0-0.41"	"jn389l"	"600"	"1366"	"chrome"	"108.0.0"	"FALSE"	"Windows 10"	"61.62"	"135"	n/a	n/a	n/a	n/a	n/a	n/a	"fixation"	n/a	n/a	n/a	n/a	"NULL"	n/a	"NULL"	"NULL"	"NULL"	"<p style=\"color: black; font-size: 80px; padding-left: 34%; padding-right: 43%; padding-top: 38%; padding-bottom: 6%\">+</p>"	"1230"	n/a	n/a	n/a	n/a	n/a	n/a	n/a	n/a	n/a
n/a	"image-keyboard-response"	"136"	"357819"	"0.0-5.0-2.0-1.41"	"jn389l"	"600"	"1366"	"chrome"	"108.0.0"	"FALSE"	"Windows 10"	"61.62"	"135"	n/a	n/a	n/a	n/a	n/a	n/a	"Trial"	n/a	n/a	n/a	"957"	"arrowleft"	n/a	"NULL"	"NULL"	"NULL"	"stimuli/VerticalHorizontal_20.27143_0.10960.png"	n/a	"VerticalHorizontal"	"arrowleft"	"1239"	"TRUE"	"VerticalHorizontal"	"20.271430000"	"0.1096000000"	"1"	"60"
n/a	"html-keyboard-response"	"137"	"359018"	"0.0-5.0-2.0-0.42"	"jn389l"	"600"	"1366"	"chrome"	"108.0.0"	"FALSE"	"Windows 10"	"61.62"	"135"	n/a	n/a	n/a	n/a	n/a	n/a	"fixation"	n/a	n/a	n/a	n/a	"NULL"	n/a	"NULL"	"NULL"	"NULL"	"<p style=\"color: black; font-size: 80px; padding-left: 30%; padding-right: 3%; padding-top: 6%; padding-bottom: 15%\">+</p>"	"1188"	n/a	n/a	n/a	n/a	n/a	n/a	n/a	n/a	n/a
n/a	"image-keyboard-response"	"138"	"359698"	"0.0-5.0-2.0-1.42"	"jn389l"	"600"	"1366"	"chrome"	"108.0.0"	"FALSE"	"Windows 10"	"61.62"	"135"	n/a	n/a	n/a	n/a	n/a	n/a	"Trial"	n/a	n/a	n/a	"678"	"arrowright"	n/a	"NULL"	"NULL"	"NULL"	"stimuli/VerticalHorizontal_-3.3000_-0.1096.png"	n/a	"VerticalHorizontal"	"arrowright"	"1199"	"TRUE"	"VerticalHorizontal"	"-3.300000000"	"-0.109600000"	"1"	"61"
n/a	"html-keyboard-response"	"139"	"360861"	"0.0-5.0-2.0-0.43"	"jn389l"	"600"	"1366"	"chrome"	"108.0.0"	"FALSE"	"Windows 10"	"61.62"	"135"	n/a	n/a	n/a	n/a	n/a	n/a	"fixation"	n/a	n/a	n/a	n/a	"NULL"	n/a	"NULL"	"NULL"	"NULL"	"<p style=\"color: black; font-size: 80px; padding-left: 24%; padding-right: 4%; padding-top: 34%; padding-bottom: 5%\">+</p>"	"1145"	n/a	n/a	n/a	n/a	n/a	n/a	n/a	n/a	n/a
n/a	"image-keyboard-response"	"140"	"361402"	"0.0-5.0-2.0-1.43"	"jn389l"	"600"	"1366"	"chrome"	"108.0.0"	"FALSE"	"Windows 10"	"61.62"	"135"	n/a	n/a	n/a	n/a	n/a	n/a	"Trial"	n/a	n/a	n/a	"539"	"arrowleft"	n/a	"NULL"	"NULL"	"NULL"	"stimuli/VerticalHorizontal_-20.27143_0.22500.png"	n/a	"VerticalHorizontal"	"arrowleft"	"1163"	"TRUE"	"VerticalHorizontal"	"-20.27143000"	"0.2250000000"	"1"	"62"
n/a	"html-keyboard-response"	"141"	"362626"	"0.0-5.0-2.0-0.44"	"jn389l"	"600"	"1366"	"chrome"	"108.0.0"	"FALSE"	"Windows 10"	"61.62"	"135"	n/a	n/a	n/a	n/a	n/a	n/a	"fixation"	n/a	n/a	n/a	n/a	"NULL"	n/a	"NULL"	"NULL"	"NULL"	"<p style=\"color: black; font-size: 80px; padding-left: 41%; padding-right: 13%; padding-top: 22%; padding-bottom: 7%\">+</p>"	"1209"	n/a	n/a	n/a	n/a	n/a	n/a	n/a	n/a	n/a
n/a	"image-keyboard-response"	"142"	"363552"	"0.0-5.0-2.0-1.44"	"jn389l"	"600"	"1366"	"chrome"	"108.0.0"	"FALSE"	"Windows 10"	"61.62"	"135"	n/a	n/a	n/a	n/a	n/a	n/a	"Trial"	n/a	n/a	n/a	"925"	"arrowright"	n/a	"NULL"	"NULL"	"NULL"	"stimuli/VerticalHorizontal_-28.75714_0.06730.png"	n/a	"VerticalHorizontal"	"arrowleft"	"1224"	"FALSE"	"VerticalHorizontal"	"-28.75714000"	"0.0673000000"	"1"	"63"
n/a	"html-keyboard-response"	"143"	"364672"	"0.0-5.0-2.0-0.45"	"jn389l"	"600"	"1366"	"chrome"	"108.0.0"	"FALSE"	"Windows 10"	"61.62"	"135"	n/a	n/a	n/a	n/a	n/a	n/a	"fixation"	n/a	n/a	n/a	n/a	"NULL"	n/a	"NULL"	"NULL"	"NULL"	"<p style=\"color: black; font-size: 80px; padding-left: 11%; padding-right: 16%; padding-top: 7%; padding-bottom: 3%\">+</p>"	"1117"	n/a	n/a	n/a	n/a	n/a	n/a	n/a	n/a	n/a
n/a	"image-keyboard-response"	"144"	"365372"	"0.0-5.0-2.0-1.45"	"jn389l"	"600"	"1366"	"chrome"	"108.0.0"	"FALSE"	"Windows 10"	"61.62"	"135"	n/a	n/a	n/a	n/a	n/a	n/a	"Trial"	n/a	n/a	n/a	"699"	"arrowright"	n/a	"NULL"	"NULL"	"NULL"	"stimuli/VerticalHorizontal_20.27143_-0.2250.png"	n/a	"VerticalHorizontal"	"arrowright"	"1120"	"TRUE"	"VerticalHorizontal"	"20.271430000"	"-0.225000000"	"1"	"64"
n/a	"html-keyboard-response"	"145"	"366657"	"0.0-5.0-2.0-0.46"	"jn389l"	"600"	"1366"	"chrome"	"108.0.0"	"FALSE"	"Windows 10"	"61.62"	"135"	n/a	n/a	n/a	n/a	n/a	n/a	"fixation"	n/a	n/a	n/a	n/a	"NULL"	n/a	"NULL"	"NULL"	"NULL"	"<p style=\"color: black; font-size: 80px; padding-left: 47%; padding-right: 9%; padding-top: 1%; padding-bottom: 33%\">+</p>"	"1270"	n/a	n/a	n/a	n/a	n/a	n/a	n/a	n/a	n/a
n/a	"image-keyboard-response"	"146"	"367785"	"0.0-5.0-2.0-1.46"	"jn389l"	"600"	"1366"	"chrome"	"108.0.0"	"FALSE"	"Windows 10"	"61.62"	"135"	n/a	n/a	n/a	n/a	n/a	n/a	"Trial"	n/a	n/a	n/a	"1126"	"arrowright"	n/a	"NULL"	"NULL"	"NULL"	"stimuli/VerticalHorizontal_-28.75714_-0.0673.png"	n/a	"VerticalHorizontal"	"arrowright"	"1285"	"TRUE"	"VerticalHorizontal"	"-28.75714000"	"-0.067300000"	"1"	"65"
n/a	"html-keyboard-response"	"147"	"369130"	"0.0-5.0-2.0-0.47"	"jn389l"	"600"	"1366"	"chrome"	"108.0.0"	"FALSE"	"Windows 10"	"61.62"	"135"	n/a	n/a	n/a	n/a	n/a	n/a	"fixation"	n/a	n/a	n/a	n/a	"NULL"	n/a	"NULL"	"NULL"	"NULL"	"<p style=\"color: black; font-size: 80px; padding-left: 42%; padding-right: 31%; padding-top: 4%; padding-bottom: 37%\">+</p>"	"1329"	n/a	n/a	n/a	n/a	n/a	n/a	n/a	n/a	n/a
n/a	"image-keyboard-response"	"148"	"369774"	"0.0-5.0-2.0-1.47"	"jn389l"	"600"	"1366"	"chrome"	"108.0.0"	"FALSE"	"Windows 10"	"61.62"	"135"	n/a	n/a	n/a	n/a	n/a	n/a	"Trial"	n/a	n/a	n/a	"642"	"arrowright"	n/a	"NULL"	"NULL"	"NULL"	"stimuli/VerticalHorizontal_-11.78571_-0.16217.png"	n/a	"VerticalHorizontal"	"arrowright"	"1345"	"TRUE"	"VerticalHorizontal"	"-11.78571000"	"-0.162170000"	"1"	"66"
n/a	"html-keyboard-response"	"149"	"370935"	"0.0-5.0-2.0-0.48"	"jn389l"	"600"	"1366"	"chrome"	"108.0.0"	"FALSE"	"Windows 10"	"61.62"	"135"	n/a	n/a	n/a	n/a	n/a	n/a	"fixation"	n/a	n/a	n/a	n/a	"NULL"	n/a	"NULL"	"NULL"	"NULL"	"<p style=\"color: black; font-size: 80px; padding-left: 35%; padding-right: 20%; padding-top: 24%; padding-bottom: 44%\">+</p>"	"1158"	n/a	n/a	n/a	n/a	n/a	n/a	n/a	n/a	n/a
n/a	"image-keyboard-response"	"150"	"371646"	"0.0-5.0-2.0-1.48"	"jn389l"	"600"	"1366"	"chrome"	"108.0.0"	"FALSE"	"Windows 10"	"61.62"	"135"	n/a	n/a	n/a	n/a	n/a	n/a	"Trial"	n/a	n/a	n/a	"709"	"arrowright"	n/a	"NULL"	"NULL"	"NULL"	"stimuli/VerticalHorizontal_3.30000_-0.16217.png"	n/a	"VerticalHorizontal"	"arrowright"	"1161"	"TRUE"	"VerticalHorizontal"	"3.3000000000"	"-0.162170000"	"1"	"67"
n/a	"html-keyboard-response"	"151"	"373093"	"0.0-5.0-2.0-0.49"	"jn389l"	"600"	"1366"	"chrome"	"108.0.0"	"FALSE"	"Windows 10"	"61.62"	"135"	n/a	n/a	n/a	n/a	n/a	n/a	"fixation"	n/a	n/a	n/a	n/a	"NULL"	n/a	"NULL"	"NULL"	"NULL"	"<p style=\"color: black; font-size: 80px; padding-left: 11%; padding-right: 31%; padding-top: 30%; padding-bottom: 4%\">+</p>"	"1436"	n/a	n/a	n/a	n/a	n/a	n/a	n/a	n/a	n/a
n/a	"image-keyboard-response"	"152"	"373643"	"0.0-5.0-2.0-1.49"	"jn389l"	"600"	"1366"	"chrome"	"108.0.0"	"FALSE"	"Windows 10"	"61.62"	"135"	n/a	n/a	n/a	n/a	n/a	n/a	"Trial"	n/a	n/a	n/a	"549"	"arrowleft"	n/a	"NULL"	"NULL"	"NULL"	"stimuli/VerticalHorizontal_-20.27143_0.06730.png"	n/a	"VerticalHorizontal"	"arrowleft"	"1447"	"TRUE"	"VerticalHorizontal"	"-20.27143000"	"0.0673000000"	"1"	"68"
n/a	"html-keyboard-response"	"153"	"374765"	"0.0-5.0-2.0-0.50"	"jn389l"	"600"	"1366"	"chrome"	"108.0.0"	"FALSE"	"Windows 10"	"61.62"	"135"	n/a	n/a	n/a	n/a	n/a	n/a	"fixation"	n/a	n/a	n/a	n/a	"NULL"	n/a	"NULL"	"NULL"	"NULL"	"<p style=\"color: black; font-size: 80px; padding-left: 6%; padding-right: 10%; padding-top: 41%; padding-bottom: 30%\">+</p>"	"1115"	n/a	n/a	n/a	n/a	n/a	n/a	n/a	n/a	n/a
n/a	"image-keyboard-response"	"154"	"375327"	"0.0-5.0-2.0-1.50"	"jn389l"	"600"	"1366"	"chrome"	"108.0.0"	"FALSE"	"Windows 10"	"61.62"	"135"	n/a	n/a	n/a	n/a	n/a	n/a	"Trial"	n/a	n/a	n/a	"561"	"arrowleft"	n/a	"NULL"	"NULL"	"NULL"	"stimuli/VerticalHorizontal_-28.75714_0.10960.png"	n/a	"VerticalHorizontal"	"arrowleft"	"1122"	"TRUE"	"VerticalHorizontal"	"-28.75714000"	"0.1096000000"	"1"	"69"
n/a	"html-keyboard-response"	"155"	"376719"	"0.0-5.0-2.0-0.51"	"jn389l"	"600"	"1366"	"chrome"	"108.0.0"	"FALSE"	"Windows 10"	"61.62"	"135"	n/a	n/a	n/a	n/a	n/a	n/a	"fixation"	n/a	n/a	n/a	n/a	"NULL"	n/a	"NULL"	"NULL"	"NULL"	"<p style=\"color: black; font-size: 80px; padding-left: 34%; padding-right: 31%; padding-top: 27%; padding-bottom: 13%\">+</p>"	"1377"	n/a	n/a	n/a	n/a	n/a	n/a	n/a	n/a	n/a
n/a	"image-keyboard-response"	"156"	"377369"	"0.0-5.0-2.0-1.51"	"jn389l"	"600"	"1366"	"chrome"	"108.0.0"	"FALSE"	"Windows 10"	"61.62"	"135"	n/a	n/a	n/a	n/a	n/a	n/a	"Trial"	n/a	n/a	n/a	"646"	"arrowleft"	n/a	"NULL"	"NULL"	"NULL"	"stimuli/VerticalHorizontal_-11.78571_0.22500.png"	n/a	"VerticalHorizontal"	"arrowleft"	"1392"	"TRUE"	"VerticalHorizontal"	"-11.78571000"	"0.2250000000"	"1"	"70"
n/a	"html-keyboard-response"	"157"	"378567"	"0.0-5.0-2.0-0.52"	"jn389l"	"600"	"1366"	"chrome"	"108.0.0"	"FALSE"	"Windows 10"	"61.62"	"135"	n/a	n/a	n/a	n/a	n/a	n/a	"fixation"	n/a	n/a	n/a	n/a	"NULL"	n/a	"NULL"	"NULL"	"NULL"	"<p style=\"color: black; font-size: 80px; padding-left: 16%; padding-right: 18%; padding-top: 0%; padding-bottom: 9%\">+</p>"	"1187"	n/a	n/a	n/a	n/a	n/a	n/a	n/a	n/a	n/a
n/a	"image-keyboard-response"	"158"	"379494"	"0.0-5.0-2.0-1.52"	"jn389l"	"600"	"1366"	"chrome"	"108.0.0"	"FALSE"	"Windows 10"	"61.62"	"135"	n/a	n/a	n/a	n/a	n/a	n/a	"Trial"	n/a	n/a	n/a	"925"	"arrowleft"	n/a	"NULL"	"NULL"	"NULL"	"stimuli/VerticalHorizontal_3.30000_0.06730.png"	n/a	"VerticalHorizontal"	"arrowleft"	"1198"	"TRUE"	"VerticalHorizontal"	"3.3000000000"	"0.0673000000"	"1"	"71"
n/a	"html-keyboard-response"	"159"	"380807"	"0.0-5.0-2.0-0.53"	"jn389l"	"600"	"1366"	"chrome"	"108.0.0"	"FALSE"	"Windows 10"	"61.62"	"135"	n/a	n/a	n/a	n/a	n/a	n/a	"fixation"	n/a	n/a	n/a	n/a	"NULL"	n/a	"NULL"	"NULL"	"NULL"	"<p style=\"color: black; font-size: 80px; padding-left: 10%; padding-right: 35%; padding-top: 18%; padding-bottom: 33%\">+</p>"	"1289"	n/a	n/a	n/a	n/a	n/a	n/a	n/a	n/a	n/a
n/a	"image-keyboard-response"	"160"	"381416"	"0.0-5.0-2.0-1.53"	"jn389l"	"600"	"1366"	"chrome"	"108.0.0"	"FALSE"	"Windows 10"	"61.62"	"135"	n/a	n/a	n/a	n/a	n/a	n/a	"Trial"	n/a	n/a	n/a	"608"	"arrowright"	n/a	"NULL"	"NULL"	"NULL"	"stimuli/VerticalHorizontal_11.78571_-0.16217.png"	n/a	"VerticalHorizontal"	"arrowright"	"1313"	"TRUE"	"VerticalHorizontal"	"11.785710000"	"-0.162170000"	"1"	"72"
n/a	"html-keyboard-response"	"161"	"382640"	"0.0-5.0-2.0-0.54"	"jn389l"	"600"	"1366"	"chrome"	"108.0.0"	"FALSE"	"Windows 10"	"61.62"	"135"	n/a	n/a	n/a	n/a	n/a	n/a	"fixation"	n/a	n/a	n/a	n/a	"NULL"	n/a	"NULL"	"NULL"	"NULL"	"<p style=\"color: black; font-size: 80px; padding-left: 22%; padding-right: 11%; padding-top: 22%; padding-bottom: 36%\">+</p>"	"1209"	n/a	n/a	n/a	n/a	n/a	n/a	n/a	n/a	n/a
n/a	"image-keyboard-response"	"162"	"383411"	"0.0-5.0-2.0-1.54"	"jn389l"	"600"	"1366"	"chrome"	"108.0.0"	"FALSE"	"Windows 10"	"61.62"	"135"	n/a	n/a	n/a	n/a	n/a	n/a	"Trial"	n/a	n/a	n/a	"771"	"arrowright"	n/a	"NULL"	"NULL"	"NULL"	"stimuli/VerticalHorizontal_-28.75714_-0.1096.png"	n/a	"VerticalHorizontal"	"arrowright"	"1224"	"TRUE"	"VerticalHorizontal"	"-28.75714000"	"-0.109600000"	"1"	"73"
n/a	"html-keyboard-response"	"163"	"384451"	"0.0-5.0-2.0-0.55"	"jn389l"	"600"	"1366"	"chrome"	"108.0.0"	"FALSE"	"Windows 10"	"61.62"	"135"	n/a	n/a	n/a	n/a	n/a	n/a	"fixation"	n/a	n/a	n/a	n/a	"NULL"	n/a	"NULL"	"NULL"	"NULL"	"<p style=\"color: black; font-size: 80px; padding-left: 49%; padding-right: 41%; padding-top: 1%; padding-bottom: 6%\">+</p>"	"1027"	n/a	n/a	n/a	n/a	n/a	n/a	n/a	n/a	n/a
n/a	"image-keyboard-response"	"164"	"385251"	"0.0-5.0-2.0-1.55"	"jn389l"	"600"	"1366"	"chrome"	"108.0.0"	"FALSE"	"Windows 10"	"61.62"	"135"	n/a	n/a	n/a	n/a	n/a	n/a	"Trial"	n/a	n/a	n/a	"799"	"arrowleft"	n/a	"NULL"	"NULL"	"NULL"	"stimuli/VerticalHorizontal_-3.3000_0.06730.png"	n/a	"VerticalHorizontal"	"arrowleft"	"1040"	"TRUE"	"VerticalHorizontal"	"-3.300000000"	"0.0673000000"	"1"	"74"
n/a	"html-keyboard-response"	"165"	"386697"	"0.0-5.0-2.0-0.56"	"jn389l"	"600"	"1366"	"chrome"	"108.0.0"	"FALSE"	"Windows 10"	"61.62"	"135"	n/a	n/a	n/a	n/a	n/a	n/a	"fixation"	n/a	n/a	n/a	n/a	"NULL"	n/a	"NULL"	"NULL"	"NULL"	"<p style=\"color: black; font-size: 80px; padding-left: 32%; padding-right: 11%; padding-top: 11%; padding-bottom: 14%\">+</p>"	"1439"	n/a	n/a	n/a	n/a	n/a	n/a	n/a	n/a	n/a
n/a	"image-keyboard-response"	"166"	"387247"	"0.0-5.0-2.0-1.56"	"jn389l"	"600"	"1366"	"chrome"	"108.0.0"	"FALSE"	"Windows 10"	"61.62"	"135"	n/a	n/a	n/a	n/a	n/a	n/a	"Trial"	n/a	n/a	n/a	"549"	"arrowright"	n/a	"NULL"	"NULL"	"NULL"	"stimuli/VerticalHorizontal_-20.27143_-0.1096.png"	n/a	"VerticalHorizontal"	"arrowright"	"1446"	"TRUE"	"VerticalHorizontal"	"-20.27143000"	"-0.109600000"	"1"	"75"
n/a	"html-keyboard-response"	"167"	"388312"	"0.0-5.0-2.0-0.57"	"jn389l"	"600"	"1366"	"chrome"	"108.0.0"	"FALSE"	"Windows 10"	"61.62"	"135"	n/a	n/a	n/a	n/a	n/a	n/a	"fixation"	n/a	n/a	n/a	n/a	"NULL"	n/a	"NULL"	"NULL"	"NULL"	"<p style=\"color: black; font-size: 80px; padding-left: 42%; padding-right: 50%; padding-top: 45%; padding-bottom: 24%\">+</p>"	"1060"	n/a	n/a	n/a	n/a	n/a	n/a	n/a	n/a	n/a
n/a	"image-keyboard-response"	"168"	"388854"	"0.0-5.0-2.0-1.57"	"jn389l"	"600"	"1366"	"chrome"	"108.0.0"	"FALSE"	"Windows 10"	"61.62"	"135"	n/a	n/a	n/a	n/a	n/a	n/a	"Trial"	n/a	n/a	n/a	"540"	"arrowleft"	n/a	"NULL"	"NULL"	"NULL"	"stimuli/VerticalHorizontal_-28.75714_0.16217.png"	n/a	"VerticalHorizontal"	"arrowleft"	"1065"	"TRUE"	"VerticalHorizontal"	"-28.75714000"	"0.1621700000"	"1"	"76"
n/a	"html-keyboard-response"	"169"	"389911"	"0.0-5.0-2.0-0.58"	"jn389l"	"600"	"1366"	"chrome"	"108.0.0"	"FALSE"	"Windows 10"	"61.62"	"135"	n/a	n/a	n/a	n/a	n/a	n/a	"fixation"	n/a	n/a	n/a	n/a	"NULL"	n/a	"NULL"	"NULL"	"NULL"	"<p style=\"color: black; font-size: 80px; padding-left: 29%; padding-right: 13%; padding-top: 19%; padding-bottom: 25%\">+</p>"	"1044"	n/a	n/a	n/a	n/a	n/a	n/a	n/a	n/a	n/a
n/a	"image-keyboard-response"	"170"	"390643"	"0.0-5.0-2.0-1.58"	"jn389l"	"600"	"1366"	"chrome"	"108.0.0"	"FALSE"	"Windows 10"	"61.62"	"135"	n/a	n/a	n/a	n/a	n/a	n/a	"Trial"	n/a	n/a	n/a	"730"	"arrowright"	n/a	"NULL"	"NULL"	"NULL"	"stimuli/VerticalHorizontal_11.78571_0.10960.png"	n/a	"VerticalHorizontal"	"arrowleft"	"1057"	"FALSE"	"VerticalHorizontal"	"11.785710000"	"0.1096000000"	"1"	"77"
n/a	"html-keyboard-response"	"171"	"392142"	"0.0-5.0-2.0-0.59"	"jn389l"	"600"	"1366"	"chrome"	"108.0.0"	"FALSE"	"Windows 10"	"61.62"	"135"	n/a	n/a	n/a	n/a	n/a	n/a	"fixation"	n/a	n/a	n/a	n/a	"NULL"	n/a	"NULL"	"NULL"	"NULL"	"<p style=\"color: black; font-size: 80px; padding-left: 14%; padding-right: 18%; padding-top: 13%; padding-bottom: 38%\">+</p>"	"1485"	n/a	n/a	n/a	n/a	n/a	n/a	n/a	n/a	n/a
n/a	"image-keyboard-response"	"172"	"393168"	"0.0-5.0-2.0-1.59"	"jn389l"	"600"	"1366"	"chrome"	"108.0.0"	"FALSE"	"Windows 10"	"61.62"	"135"	n/a	n/a	n/a	n/a	n/a	n/a	"Trial"	n/a	n/a	n/a	"1025"	"arrowleft"	n/a	"NULL"	"NULL"	"NULL"	"stimuli/VerticalHorizontal_28.75714_0.16217.png"	n/a	"VerticalHorizontal"	"arrowleft"	"1499"	"TRUE"	"VerticalHorizontal"	"28.757140000"	"0.1621700000"	"1"	"78"
n/a	"html-keyboard-response"	"173"	"394394"	"0.0-5.0-2.0-0.60"	"jn389l"	"600"	"1366"	"chrome"	"108.0.0"	"FALSE"	"Windows 10"	"61.62"	"135"	n/a	n/a	n/a	n/a	n/a	n/a	"fixation"	n/a	n/a	n/a	n/a	"NULL"	n/a	"NULL"	"NULL"	"NULL"	"<p style=\"color: black; font-size: 80px; padding-left: 45%; padding-right: 7%; padding-top: 33%; padding-bottom: 30%\">+</p>"	"1216"	n/a	n/a	n/a	n/a	n/a	n/a	n/a	n/a	n/a
n/a	"image-keyboard-response"	"174"	"395196"	"0.0-5.0-2.0-1.60"	"jn389l"	"600"	"1366"	"chrome"	"108.0.0"	"FALSE"	"Windows 10"	"61.62"	"135"	n/a	n/a	n/a	n/a	n/a	n/a	"Trial"	n/a	n/a	n/a	"800"	"arrowleft"	n/a	"NULL"	"NULL"	"NULL"	"stimuli/VerticalHorizontal_11.78571_0.22500.png"	n/a	"VerticalHorizontal"	"arrowleft"	"1226"	"TRUE"	"VerticalHorizontal"	"11.785710000"	"0.2250000000"	"1"	"79"
n/a	"html-keyboard-response"	"175"	"396367"	"0.0-5.0-2.0-0.61"	"jn389l"	"600"	"1366"	"chrome"	"108.0.0"	"FALSE"	"Windows 10"	"61.62"	"135"	n/a	n/a	n/a	n/a	n/a	n/a	"fixation"	n/a	n/a	n/a	n/a	"NULL"	n/a	"NULL"	"NULL"	"NULL"	"<p style=\"color: black; font-size: 80px; padding-left: 15%; padding-right: 31%; padding-top: 48%; padding-bottom: 16%\">+</p>"	"1149"	n/a	n/a	n/a	n/a	n/a	n/a	n/a	n/a	n/a
n/a	"image-keyboard-response"	"176"	"397271"	"0.0-5.0-2.0-1.61"	"jn389l"	"600"	"1366"	"chrome"	"108.0.0"	"FALSE"	"Windows 10"	"61.62"	"135"	n/a	n/a	n/a	n/a	n/a	n/a	"Trial"	n/a	n/a	n/a	"902"	"arrowleft"	n/a	"NULL"	"NULL"	"NULL"	"stimuli/VerticalHorizontal_11.78571_0.06730.png"	n/a	"VerticalHorizontal"	"arrowleft"	"1171"	"TRUE"	"VerticalHorizontal"	"11.785710000"	"0.0673000000"	"1"	"80"
n/a	"html-keyboard-response"	"177"	"398434"	"0.0-5.0-2.0-0.62"	"jn389l"	"600"	"1366"	"chrome"	"108.0.0"	"FALSE"	"Windows 10"	"61.62"	"135"	n/a	n/a	n/a	n/a	n/a	n/a	"fixation"	n/a	n/a	n/a	n/a	"NULL"	n/a	"NULL"	"NULL"	"NULL"	"<p style=\"color: black; font-size: 80px; padding-left: 16%; padding-right: 10%; padding-top: 12%; padding-bottom: 1%\">+</p>"	"1160"	n/a	n/a	n/a	n/a	n/a	n/a	n/a	n/a	n/a
n/a	"image-keyboard-response"	"178"	"399036"	"0.0-5.0-2.0-1.62"	"jn389l"	"600"	"1366"	"chrome"	"108.0.0"	"FALSE"	"Windows 10"	"61.62"	"135"	n/a	n/a	n/a	n/a	n/a	n/a	"Trial"	n/a	n/a	n/a	"601"	"arrowright"	n/a	"NULL"	"NULL"	"NULL"	"stimuli/VerticalHorizontal_3.30000_-0.1096.png"	n/a	"VerticalHorizontal"	"arrowright"	"1163"	"TRUE"	"VerticalHorizontal"	"3.3000000000"	"-0.109600000"	"1"	"81"
n/a	"html-keyboard-response"	"179"	"400480"	"0.0-5.0-2.0-0.63"	"jn389l"	"600"	"1366"	"chrome"	"108.0.0"	"FALSE"	"Windows 10"	"61.62"	"135"	n/a	n/a	n/a	n/a	n/a	n/a	"fixation"	n/a	n/a	n/a	n/a	"NULL"	n/a	"NULL"	"NULL"	"NULL"	"<p style=\"color: black; font-size: 80px; padding-left: 3%; padding-right: 31%; padding-top: 4%; padding-bottom: 49%\">+</p>"	"1439"	n/a	n/a	n/a	n/a	n/a	n/a	n/a	n/a	n/a
n/a	"image-keyboard-response"	"180"	"401424"	"0.0-5.0-2.0-1.63"	"jn389l"	"600"	"1366"	"chrome"	"108.0.0"	"FALSE"	"Windows 10"	"61.62"	"135"	n/a	n/a	n/a	n/a	n/a	n/a	"Trial"	n/a	n/a	n/a	"936"	"arrowright"	n/a	"NULL"	"NULL"	"NULL"	"stimuli/VerticalHorizontal_20.27143_-0.16217.png"	n/a	"VerticalHorizontal"	"arrowright"	"1444"	"TRUE"	"VerticalHorizontal"	"20.271430000"	"-0.162170000"	"1"	"82"
n/a	"html-button-response"	"181"	"419087"	"0.0-5.0-3.0"	"jn389l"	"600"	"1366"	"chrome"	"108.0.0"	"FALSE"	"Windows 10"	"61.62"	"135"	n/a	n/a	n/a	n/a	n/a	n/a	"block_results"	n/a	n/a	n/a	"17660"	"0"	n/a	"NULL"	"NULL"	"NULL"	"<p>Your score for this illusion is <p style=\"color: black; font-size: 48px; font-weight: bold;\">77.6 %</p><hr><p>Can you do better in the next illusion?</p>"	n/a	n/a	n/a	n/a	n/a	n/a	n/a	n/a	n/a	n/a
"TRUE"	"preload"	"182"	"419248"	"0.0-6.0-0.0"	"jn389l"	"600"	"1366"	"chrome"	"108.0.0"	"FALSE"	"Windows 10"	"61.62"	"135"	n/a	n/a	n/a	n/a	n/a	n/a	n/a	n/a	n/a	n/a	n/a	"NULL"	"FALSE"	"list()"	"list()"	"list()"	n/a	n/a	n/a	n/a	n/a	n/a	n/a	n/a	n/a	n/a	n/a
n/a	"html-keyboard-response"	"183"	"428717"	"0.0-6.0-1.0"	"jn389l"	"600"	"1366"	"chrome"	"108.0.0"	"FALSE"	"Windows 10"	"61.62"	"135"	n/a	n/a	n/a	n/a	n/a	n/a	n/a	n/a	n/a	n/a	"9468"	"enter"	n/a	"NULL"	"NULL"	"NULL"	"<p><b>Part 2/6</b></p><p>In this part, two red circles will appear side by side on the screen.</p><p>Your task is to select which <b>red circle is bigger</b> in size as fast as you can, without making errors.</p><p>Don't get distracted by the surrounding black circles around the red circles!</p><p>Press <b>the LEFT or the RIGHT arrow</b> to indicate which is the bigger <b>red circle.</b></p><div style='float: center'><img src='materials/instructions/Ebbinghaus_Demo.png' height='300'></img><p><img src='utils/answer/answer_leftright_keyboard.PNG' height='150'></img></p><p class='small'>In this example, the correct answer is the <b>LEFT arrow</b>.</p></div><p>Are you ready? <b>Press ENTER to start</b></p>"	n/a	n/a	n/a	n/a	n/a	n/a	n/a	n/a	n/a	n/a
n/a	"html-keyboard-response"	"184"	"430695"	"0.0-6.0-2.0-0.0"	"jn389l"	"600"	"1366"	"chrome"	"108.0.0"	"FALSE"	"Windows 10"	"61.62"	"135"	n/a	n/a	n/a	n/a	n/a	n/a	"fixation"	n/a	n/a	n/a	n/a	"NULL"	n/a	"NULL"	"NULL"	"NULL"	"<p style=\"color: black; font-size: 80px; padding-left: 20%; padding-right: 21%; padding-top: 2%; padding-bottom: 39%\">+</p>"	"1456"	n/a	n/a	n/a	n/a	n/a	n/a	n/a	n/a	n/a
n/a	"image-keyboard-response"	"185"	"432292"	"0.0-6.0-2.0-1.0"	"jn389l"	"600"	"1366"	"chrome"	"108.0.0"	"FALSE"	"Windows 10"	"61.62"	"135"	n/a	n/a	n/a	n/a	n/a	n/a	"Trial"	n/a	n/a	n/a	"1595"	"arrowright"	n/a	"NULL"	"NULL"	"NULL"	"stimuli/Ebbinghaus_0.87143_0.21500.png"	n/a	"Ebbinghaus"	"arrowleft"	"1978"	"FALSE"	"Ebbinghaus"	"0.8714300000"	"0.2150000000"	"2"	"1"
n/a	"html-keyboard-response"	"186"	"433542"	"0.0-6.0-2.0-0.1"	"jn389l"	"600"	"1366"	"chrome"	"108.0.0"	"FALSE"	"Windows 10"	"61.62"	"135"	n/a	n/a	n/a	n/a	n/a	n/a	"fixation"	n/a	n/a	n/a	n/a	"NULL"	n/a	"NULL"	"NULL"	"NULL"	"<p style=\"color: black; font-size: 80px; padding-left: 37%; padding-right: 6%; padding-top: 49%; padding-bottom: 2%\">+</p>"	"1240"	n/a	n/a	n/a	n/a	n/a	n/a	n/a	n/a	n/a
n/a	"image-keyboard-response"	"187"	"434478"	"0.0-6.0-2.0-1.1"	"jn389l"	"600"	"1366"	"chrome"	"108.0.0"	"FALSE"	"Windows 10"	"61.62"	"135"	n/a	n/a	n/a	n/a	n/a	n/a	"Trial"	n/a	n/a	n/a	"934"	"arrowleft"	n/a	"NULL"	"NULL"	"NULL"	"stimuli/Ebbinghaus_0.61429_0.15857.png"	n/a	"Ebbinghaus"	"arrowleft"	"1250"	"TRUE"	"Ebbinghaus"	"0.6142900000"	"0.1585700000"	"2"	"2"
n/a	"html-keyboard-response"	"188"	"435721"	"0.0-6.0-2.0-0.2"	"jn389l"	"600"	"1366"	"chrome"	"108.0.0"	"FALSE"	"Windows 10"	"61.62"	"135"	n/a	n/a	n/a	n/a	n/a	n/a	"fixation"	n/a	n/a	n/a	n/a	"NULL"	n/a	"NULL"	"NULL"	"NULL"	"<p style=\"color: black; font-size: 80px; padding-left: 8%; padding-right: 48%; padding-top: 42%; padding-bottom: 39%\">+</p>"	"1233"	n/a	n/a	n/a	n/a	n/a	n/a	n/a	n/a	n/a
n/a	"image-keyboard-response"	"189"	"436482"	"0.0-6.0-2.0-1.2"	"jn389l"	"600"	"1366"	"chrome"	"108.0.0"	"FALSE"	"Windows 10"	"61.62"	"135"	n/a	n/a	n/a	n/a	n/a	n/a	"Trial"	n/a	n/a	n/a	"759"	"arrowright"	n/a	"NULL"	"NULL"	"NULL"	"stimuli/Ebbinghaus_0.35714_-0.15857.png"	n/a	"Ebbinghaus"	"arrowright"	"1243"	"TRUE"	"Ebbinghaus"	"0.3571400000"	"-0.158570000"	"2"	"3"
n/a	"html-keyboard-response"	"190"	"437737"	"0.0-6.0-2.0-0.3"	"jn389l"	"600"	"1366"	"chrome"	"108.0.0"	"FALSE"	"Windows 10"	"61.62"	"135"	n/a	n/a	n/a	n/a	n/a	n/a	"fixation"	n/a	n/a	n/a	n/a	"NULL"	n/a	"NULL"	"NULL"	"NULL"	"<p style=\"color: black; font-size: 80px; padding-left: 43%; padding-right: 47%; padding-top: 29%; padding-bottom: 21%\">+</p>"	"1238"	n/a	n/a	n/a	n/a	n/a	n/a	n/a	n/a	n/a
n/a	"image-keyboard-response"	"191"	"438496"	"0.0-6.0-2.0-1.3"	"jn389l"	"600"	"1366"	"chrome"	"108.0.0"	"FALSE"	"Windows 10"	"61.62"	"135"	n/a	n/a	n/a	n/a	n/a	n/a	"Trial"	n/a	n/a	n/a	"757"	"arrowright"	n/a	"NULL"	"NULL"	"NULL"	"stimuli/Ebbinghaus_-0.87143_-0.2150.png"	n/a	"Ebbinghaus"	"arrowright"	"1255"	"TRUE"	"Ebbinghaus"	"-0.871430000"	"-0.215000000"	"2"	"4"
n/a	"html-keyboard-response"	"192"	"439926"	"0.0-6.0-2.0-0.4"	"jn389l"	"600"	"1366"	"chrome"	"108.0.0"	"FALSE"	"Windows 10"	"61.62"	"135"	n/a	n/a	n/a	n/a	n/a	n/a	"fixation"	n/a	n/a	n/a	n/a	"NULL"	n/a	"NULL"	"NULL"	"NULL"	"<p style=\"color: black; font-size: 80px; padding-left: 17%; padding-right: 44%; padding-top: 1%; padding-bottom: 47%\">+</p>"	"1407"	n/a	n/a	n/a	n/a	n/a	n/a	n/a	n/a	n/a
n/a	"image-keyboard-response"	"193"	"440806"	"0.0-6.0-2.0-1.4"	"jn389l"	"600"	"1366"	"chrome"	"108.0.0"	"FALSE"	"Windows 10"	"61.62"	"135"	n/a	n/a	n/a	n/a	n/a	n/a	"Trial"	n/a	n/a	n/a	"877"	"arrowright"	n/a	"NULL"	"NULL"	"NULL"	"stimuli/Ebbinghaus_-0.35714_-0.2150.png"	n/a	"Ebbinghaus"	"arrowright"	"1430"	"TRUE"	"Ebbinghaus"	"-0.357140000"	"-0.215000000"	"2"	"5"
n/a	"html-keyboard-response"	"194"	"442189"	"0.0-6.0-2.0-0.5"	"jn389l"	"600"	"1366"	"chrome"	"108.0.0"	"FALSE"	"Windows 10"	"61.62"	"135"	n/a	n/a	n/a	n/a	n/a	n/a	"fixation"	n/a	n/a	n/a	n/a	"NULL"	n/a	"NULL"	"NULL"	"NULL"	"<p style=\"color: black; font-size: 80px; padding-left: 11%; padding-right: 37%; padding-top: 33%; padding-bottom: 48%\">+</p>"	"1370"	n/a	n/a	n/a	n/a	n/a	n/a	n/a	n/a	n/a
n/a	"image-keyboard-response"	"195"	"443155"	"0.0-6.0-2.0-1.5"	"jn389l"	"600"	"1366"	"chrome"	"108.0.0"	"FALSE"	"Windows 10"	"61.62"	"135"	n/a	n/a	n/a	n/a	n/a	n/a	"Trial"	n/a	n/a	n/a	"961"	"arrowright"	n/a	"NULL"	"NULL"	"NULL"	"stimuli/Ebbinghaus_-0.61429_-0.11071.png"	n/a	"Ebbinghaus"	"arrowright"	"1383"	"TRUE"	"Ebbinghaus"	"-0.614290000"	"-0.110710000"	"2"	"6"
n/a	"html-keyboard-response"	"196"	"444579"	"0.0-6.0-2.0-0.6"	"jn389l"	"600"	"1366"	"chrome"	"108.0.0"	"FALSE"	"Windows 10"	"61.62"	"135"	n/a	n/a	n/a	n/a	n/a	n/a	"fixation"	n/a	n/a	n/a	n/a	"NULL"	n/a	"NULL"	"NULL"	"NULL"	"<p style=\"color: black; font-size: 80px; padding-left: 36%; padding-right: 43%; padding-top: 49%; padding-bottom: 31%\">+</p>"	"1409"	n/a	n/a	n/a	n/a	n/a	n/a	n/a	n/a	n/a
n/a	"image-keyboard-response"	"197"	"445384"	"0.0-6.0-2.0-1.6"	"jn389l"	"600"	"1366"	"chrome"	"108.0.0"	"FALSE"	"Windows 10"	"61.62"	"135"	n/a	n/a	n/a	n/a	n/a	n/a	"Trial"	n/a	n/a	n/a	"804"	"arrowleft"	n/a	"NULL"	"NULL"	"NULL"	"stimuli/Ebbinghaus_0.35714_0.15857.png"	n/a	"Ebbinghaus"	"arrowleft"	"1424"	"TRUE"	"Ebbinghaus"	"0.3571400000"	"0.1585700000"	"2"	"7"
n/a	"html-keyboard-response"	"198"	"446674"	"0.0-6.0-2.0-0.7"	"jn389l"	"600"	"1366"	"chrome"	"108.0.0"	"FALSE"	"Windows 10"	"61.62"	"135"	n/a	n/a	n/a	n/a	n/a	n/a	"fixation"	n/a	n/a	n/a	n/a	"NULL"	n/a	"NULL"	"NULL"	"NULL"	"<p style=\"color: black; font-size: 80px; padding-left: 34%; padding-right: 36%; padding-top: 14%; padding-bottom: 37%\">+</p>"	"1272"	n/a	n/a	n/a	n/a	n/a	n/a	n/a	n/a	n/a
n/a	"image-keyboard-response"	"199"	"447494"	"0.0-6.0-2.0-1.7"	"jn389l"	"600"	"1366"	"chrome"	"108.0.0"	"FALSE"	"Windows 10"	"61.62"	"135"	n/a	n/a	n/a	n/a	n/a	n/a	"Trial"	n/a	n/a	n/a	"819"	"arrowleft"	n/a	"NULL"	"NULL"	"NULL"	"stimuli/Ebbinghaus_0.87143_0.28000.png"	n/a	"Ebbinghaus"	"arrowleft"	"1290"	"TRUE"	"Ebbinghaus"	"0.8714300000"	"0.2800000000"	"2"	"8"
n/a	"html-keyboard-response"	"200"	"448703"	"0.0-6.0-2.0-0.8"	"jn389l"	"600"	"1366"	"chrome"	"108.0.0"	"FALSE"	"Windows 10"	"61.62"	"135"	n/a	n/a	n/a	n/a	n/a	n/a	"fixation"	n/a	n/a	n/a	n/a	"NULL"	n/a	"NULL"	"NULL"	"NULL"	"<p style=\"color: black; font-size: 80px; padding-left: 5%; padding-right: 16%; padding-top: 1%; padding-bottom: 45%\">+</p>"	"1193"	n/a	n/a	n/a	n/a	n/a	n/a	n/a	n/a	n/a
n/a	"image-keyboard-response"	"201"	"449491"	"0.0-6.0-2.0-1.8"	"jn389l"	"600"	"1366"	"chrome"	"108.0.0"	"FALSE"	"Windows 10"	"61.62"	"135"	n/a	n/a	n/a	n/a	n/a	n/a	"Trial"	n/a	n/a	n/a	"787"	"arrowright"	n/a	"NULL"	"NULL"	"NULL"	"stimuli/Ebbinghaus_-0.1000_-0.2150.png"	n/a	"Ebbinghaus"	"arrowright"	"1209"	"TRUE"	"Ebbinghaus"	"-0.100000000"	"-0.215000000"	"2"	"9"
n/a	"html-keyboard-response"	"202"	"450709"	"0.0-6.0-2.0-0.9"	"jn389l"	"600"	"1366"	"chrome"	"108.0.0"	"FALSE"	"Windows 10"	"61.62"	"135"	n/a	n/a	n/a	n/a	n/a	n/a	"fixation"	n/a	n/a	n/a	n/a	"NULL"	n/a	"NULL"	"NULL"	"NULL"	"<p style=\"color: black; font-size: 80px; padding-left: 3%; padding-right: 41%; padding-top: 22%; padding-bottom: 23%\">+</p>"	"1201"	n/a	n/a	n/a	n/a	n/a	n/a	n/a	n/a	n/a
n/a	"image-keyboard-response"	"203"	"451535"	"0.0-6.0-2.0-1.9"	"jn389l"	"600"	"1366"	"chrome"	"108.0.0"	"FALSE"	"Windows 10"	"61.62"	"135"	n/a	n/a	n/a	n/a	n/a	n/a	"Trial"	n/a	n/a	n/a	"824"	"arrowleft"	n/a	"NULL"	"NULL"	"NULL"	"stimuli/Ebbinghaus_-0.87143_0.21500.png"	n/a	"Ebbinghaus"	"arrowleft"	"1218"	"TRUE"	"Ebbinghaus"	"-0.871430000"	"0.2150000000"	"2"	"10"
n/a	"html-keyboard-response"	"204"	"452688"	"0.0-6.0-2.0-0.10"	"jn389l"	"600"	"1366"	"chrome"	"108.0.0"	"FALSE"	"Windows 10"	"61.62"	"135"	n/a	n/a	n/a	n/a	n/a	n/a	"fixation"	n/a	n/a	n/a	n/a	"NULL"	n/a	"NULL"	"NULL"	"NULL"	"<p style=\"color: black; font-size: 80px; padding-left: 41%; padding-right: 6%; padding-top: 36%; padding-bottom: 49%\">+</p>"	"1131"	n/a	n/a	n/a	n/a	n/a	n/a	n/a	n/a	n/a
n/a	"image-keyboard-response"	"205"	"453389"	"0.0-6.0-2.0-1.10"	"jn389l"	"600"	"1366"	"chrome"	"108.0.0"	"FALSE"	"Windows 10"	"61.62"	"135"	n/a	n/a	n/a	n/a	n/a	n/a	"Trial"	n/a	n/a	n/a	"700"	"arrowright"	n/a	"NULL"	"NULL"	"NULL"	"stimuli/Ebbinghaus_-0.87143_-0.2800.png"	n/a	"Ebbinghaus"	"arrowright"	"1153"	"TRUE"	"Ebbinghaus"	"-0.871430000"	"-0.280000000"	"2"	"11"
n/a	"html-keyboard-response"	"206"	"454805"	"0.0-6.0-2.0-0.11"	"jn389l"	"600"	"1366"	"chrome"	"108.0.0"	"FALSE"	"Windows 10"	"61.62"	"135"	n/a	n/a	n/a	n/a	n/a	n/a	"fixation"	n/a	n/a	n/a	n/a	"NULL"	n/a	"NULL"	"NULL"	"NULL"	"<p style=\"color: black; font-size: 80px; padding-left: 9%; padding-right: 6%; padding-top: 21%; padding-bottom: 46%\">+</p>"	"1405"	n/a	n/a	n/a	n/a	n/a	n/a	n/a	n/a	n/a
n/a	"image-keyboard-response"	"207"	"455872"	"0.0-6.0-2.0-1.11"	"jn389l"	"600"	"1366"	"chrome"	"108.0.0"	"FALSE"	"Windows 10"	"61.62"	"135"	n/a	n/a	n/a	n/a	n/a	n/a	"Trial"	n/a	n/a	n/a	"1065"	"arrowleft"	n/a	"NULL"	"NULL"	"NULL"	"stimuli/Ebbinghaus_0.87143_-0.11071.png"	n/a	"Ebbinghaus"	"arrowright"	"1416"	"FALSE"	"Ebbinghaus"	"0.8714300000"	"-0.110710000"	"2"	"12"
n/a	"html-keyboard-response"	"208"	"457033"	"0.0-6.0-2.0-0.12"	"jn389l"	"600"	"1366"	"chrome"	"108.0.0"	"FALSE"	"Windows 10"	"61.62"	"135"	n/a	n/a	n/a	n/a	n/a	n/a	"fixation"	n/a	n/a	n/a	n/a	"NULL"	n/a	"NULL"	"NULL"	"NULL"	"<p style=\"color: black; font-size: 80px; padding-left: 27%; padding-right: 20%; padding-top: 23%; padding-bottom: 30%\">+</p>"	"1152"	n/a	n/a	n/a	n/a	n/a	n/a	n/a	n/a	n/a
n/a	"image-keyboard-response"	"209"	"457813"	"0.0-6.0-2.0-1.12"	"jn389l"	"600"	"1366"	"chrome"	"108.0.0"	"FALSE"	"Windows 10"	"61.62"	"135"	n/a	n/a	n/a	n/a	n/a	n/a	"Trial"	n/a	n/a	n/a	"778"	"arrowright"	n/a	"NULL"	"NULL"	"NULL"	"stimuli/Ebbinghaus_0.61429_-0.2150.png"	n/a	"Ebbinghaus"	"arrowright"	"1161"	"TRUE"	"Ebbinghaus"	"0.6142900000"	"-0.215000000"	"2"	"13"
n/a	"html-keyboard-response"	"210"	"459234"	"0.0-6.0-2.0-0.13"	"jn389l"	"600"	"1366"	"chrome"	"108.0.0"	"FALSE"	"Windows 10"	"61.62"	"135"	n/a	n/a	n/a	n/a	n/a	n/a	"fixation"	n/a	n/a	n/a	n/a	"NULL"	n/a	"NULL"	"NULL"	"NULL"	"<p style=\"color: black; font-size: 80px; padding-left: 29%; padding-right: 48%; padding-top: 49%; padding-bottom: 11%\">+</p>"	"1411"	n/a	n/a	n/a	n/a	n/a	n/a	n/a	n/a	n/a
n/a	"image-keyboard-response"	"211"	"460025"	"0.0-6.0-2.0-1.13"	"jn389l"	"600"	"1366"	"chrome"	"108.0.0"	"FALSE"	"Windows 10"	"61.62"	"135"	n/a	n/a	n/a	n/a	n/a	n/a	"Trial"	n/a	n/a	n/a	"789"	"arrowleft"	n/a	"NULL"	"NULL"	"NULL"	"stimuli/Ebbinghaus_-0.35714_0.15857.png"	n/a	"Ebbinghaus"	"arrowleft"	"1421"	"TRUE"	"Ebbinghaus"	"-0.357140000"	"0.1585700000"	"2"	"14"
n/a	"html-keyboard-response"	"212"	"461192"	"0.0-6.0-2.0-0.14"	"jn389l"	"600"	"1366"	"chrome"	"108.0.0"	"FALSE"	"Windows 10"	"61.62"	"135"	n/a	n/a	n/a	n/a	n/a	n/a	"fixation"	n/a	n/a	n/a	n/a	"NULL"	n/a	"NULL"	"NULL"	"NULL"	"<p style=\"color: black; font-size: 80px; padding-left: 31%; padding-right: 44%; padding-top: 44%; padding-bottom: 4%\">+</p>"	"1163"	n/a	n/a	n/a	n/a	n/a	n/a	n/a	n/a	n/a
n/a	"image-keyboard-response"	"213"	"461964"	"0.0-6.0-2.0-1.14"	"jn389l"	"600"	"1366"	"chrome"	"108.0.0"	"FALSE"	"Windows 10"	"61.62"	"135"	n/a	n/a	n/a	n/a	n/a	n/a	"Trial"	n/a	n/a	n/a	"771"	"arrowright"	n/a	"NULL"	"NULL"	"NULL"	"stimuli/Ebbinghaus_0.35714_-0.11071.png"	n/a	"Ebbinghaus"	"arrowright"	"1167"	"TRUE"	"Ebbinghaus"	"0.3571400000"	"-0.110710000"	"2"	"15"
n/a	"html-keyboard-response"	"214"	"463076"	"0.0-6.0-2.0-0.15"	"jn389l"	"600"	"1366"	"chrome"	"108.0.0"	"FALSE"	"Windows 10"	"61.62"	"135"	n/a	n/a	n/a	n/a	n/a	n/a	"fixation"	n/a	n/a	n/a	n/a	"NULL"	n/a	"NULL"	"NULL"	"NULL"	"<p style=\"color: black; font-size: 80px; padding-left: 43%; padding-right: 23%; padding-top: 5%; padding-bottom: 24%\">+</p>"	"1099"	n/a	n/a	n/a	n/a	n/a	n/a	n/a	n/a	n/a
n/a	"image-keyboard-response"	"215"	"463823"	"0.0-6.0-2.0-1.15"	"jn389l"	"600"	"1366"	"chrome"	"108.0.0"	"FALSE"	"Windows 10"	"61.62"	"135"	n/a	n/a	n/a	n/a	n/a	n/a	"Trial"	n/a	n/a	n/a	"745"	"arrowleft"	n/a	"NULL"	"NULL"	"NULL"	"stimuli/Ebbinghaus_-0.1000_0.11071.png"	n/a	"Ebbinghaus"	"arrowleft"	"1112"	"TRUE"	"Ebbinghaus"	"-0.100000000"	"0.1107100000"	"2"	"16"
n/a	"html-keyboard-response"	"216"	"465077"	"0.0-6.0-2.0-0.16"	"jn389l"	"600"	"1366"	"chrome"	"108.0.0"	"FALSE"	"Windows 10"	"61.62"	"135"	n/a	n/a	n/a	n/a	n/a	n/a	"fixation"	n/a	n/a	n/a	n/a	"NULL"	n/a	"NULL"	"NULL"	"NULL"	"<p style=\"color: black; font-size: 80px; padding-left: 7%; padding-right: 17%; padding-top: 13%; padding-bottom: 41%\">+</p>"	"1241"	n/a	n/a	n/a	n/a	n/a	n/a	n/a	n/a	n/a
n/a	"image-keyboard-response"	"217"	"465711"	"0.0-6.0-2.0-1.16"	"jn389l"	"600"	"1366"	"chrome"	"108.0.0"	"FALSE"	"Windows 10"	"61.62"	"135"	n/a	n/a	n/a	n/a	n/a	n/a	"Trial"	n/a	n/a	n/a	"631"	"arrowleft"	n/a	"NULL"	"NULL"	"NULL"	"stimuli/Ebbinghaus_-0.1000_0.28000.png"	n/a	"Ebbinghaus"	"arrowleft"	"1254"	"TRUE"	"Ebbinghaus"	"-0.100000000"	"0.2800000000"	"2"	"17"
n/a	"html-keyboard-response"	"218"	"467103"	"0.0-6.0-2.0-0.17"	"jn389l"	"600"	"1366"	"chrome"	"108.0.0"	"FALSE"	"Windows 10"	"61.62"	"135"	n/a	n/a	n/a	n/a	n/a	n/a	"fixation"	n/a	n/a	n/a	n/a	"NULL"	n/a	"NULL"	"NULL"	"NULL"	"<p style=\"color: black; font-size: 80px; padding-left: 9%; padding-right: 0%; padding-top: 22%; padding-bottom: 9%\">+</p>"	"1380"	n/a	n/a	n/a	n/a	n/a	n/a	n/a	n/a	n/a
n/a	"image-keyboard-response"	"219"	"468089"	"0.0-6.0-2.0-1.17"	"jn389l"	"600"	"1366"	"chrome"	"108.0.0"	"FALSE"	"Windows 10"	"61.62"	"135"	n/a	n/a	n/a	n/a	n/a	n/a	"Trial"	n/a	n/a	n/a	"983"	"arrowleft"	n/a	"NULL"	"NULL"	"NULL"	"stimuli/Ebbinghaus_0.87143_-0.15857.png"	n/a	"Ebbinghaus"	"arrowright"	"1392"	"FALSE"	"Ebbinghaus"	"0.8714300000"	"-0.158570000"	"2"	"18"
n/a	"html-keyboard-response"	"220"	"469309"	"0.0-6.0-2.0-0.18"	"jn389l"	"600"	"1366"	"chrome"	"108.0.0"	"FALSE"	"Windows 10"	"61.62"	"135"	n/a	n/a	n/a	n/a	n/a	n/a	"fixation"	n/a	n/a	n/a	n/a	"NULL"	n/a	"NULL"	"NULL"	"NULL"	"<p style=\"color: black; font-size: 80px; padding-left: 27%; padding-right: 42%; padding-top: 30%; padding-bottom: 40%\">+</p>"	"1202"	n/a	n/a	n/a	n/a	n/a	n/a	n/a	n/a	n/a
n/a	"image-keyboard-response"	"221"	"470143"	"0.0-6.0-2.0-1.18"	"jn389l"	"600"	"1366"	"chrome"	"108.0.0"	"FALSE"	"Windows 10"	"61.62"	"135"	n/a	n/a	n/a	n/a	n/a	n/a	"Trial"	n/a	n/a	n/a	"832"	"arrowright"	n/a	"NULL"	"NULL"	"NULL"	"stimuli/Ebbinghaus_0.87143_-0.2150.png"	n/a	"Ebbinghaus"	"arrowright"	"1220"	"TRUE"	"Ebbinghaus"	"0.8714300000"	"-0.215000000"	"2"	"19"
n/a	"html-keyboard-response"	"222"	"471219"	"0.0-6.0-2.0-0.19"	"jn389l"	"600"	"1366"	"chrome"	"108.0.0"	"FALSE"	"Windows 10"	"61.62"	"135"	n/a	n/a	n/a	n/a	n/a	n/a	"fixation"	n/a	n/a	n/a	n/a	"NULL"	n/a	"NULL"	"NULL"	"NULL"	"<p style=\"color: black; font-size: 80px; padding-left: 33%; padding-right: 5%; padding-top: 5%; padding-bottom: 8%\">+</p>"	"1062"	n/a	n/a	n/a	n/a	n/a	n/a	n/a	n/a	n/a
n/a	"image-keyboard-response"	"223"	"472075"	"0.0-6.0-2.0-1.19"	"jn389l"	"600"	"1366"	"chrome"	"108.0.0"	"FALSE"	"Windows 10"	"61.62"	"135"	n/a	n/a	n/a	n/a	n/a	n/a	"Trial"	n/a	n/a	n/a	"854"	"arrowleft"	n/a	"NULL"	"NULL"	"NULL"	"stimuli/Ebbinghaus_0.10000_-0.11071.png"	n/a	"Ebbinghaus"	"arrowright"	"1076"	"FALSE"	"Ebbinghaus"	"0.1000000000"	"-0.110710000"	"2"	"20"
n/a	"html-keyboard-response"	"224"	"473551"	"0.0-6.0-2.0-0.20"	"jn389l"	"600"	"1366"	"chrome"	"108.0.0"	"FALSE"	"Windows 10"	"61.62"	"135"	n/a	n/a	n/a	n/a	n/a	n/a	"fixation"	n/a	n/a	n/a	n/a	"NULL"	n/a	"NULL"	"NULL"	"NULL"	"<p style=\"color: black; font-size: 80px; padding-left: 17%; padding-right: 41%; padding-top: 5%; padding-bottom: 2%\">+</p>"	"1460"	n/a	n/a	n/a	n/a	n/a	n/a	n/a	n/a	n/a
n/a	"image-keyboard-response"	"225"	"474303"	"0.0-6.0-2.0-1.20"	"jn389l"	"600"	"1366"	"chrome"	"108.0.0"	"FALSE"	"Windows 10"	"61.62"	"135"	n/a	n/a	n/a	n/a	n/a	n/a	"Trial"	n/a	n/a	n/a	"749"	"arrowright"	n/a	"NULL"	"NULL"	"NULL"	"stimuli/Ebbinghaus_0.35714_-0.2800.png"	n/a	"Ebbinghaus"	"arrowright"	"1476"	"TRUE"	"Ebbinghaus"	"0.3571400000"	"-0.280000000"	"2"	"21"
n/a	"html-keyboard-response"	"226"	"475655"	"0.0-6.0-2.0-0.21"	"jn389l"	"600"	"1366"	"chrome"	"108.0.0"	"FALSE"	"Windows 10"	"61.62"	"135"	n/a	n/a	n/a	n/a	n/a	n/a	"fixation"	n/a	n/a	n/a	n/a	"NULL"	n/a	"NULL"	"NULL"	"NULL"	"<p style=\"color: black; font-size: 80px; padding-left: 41%; padding-right: 25%; padding-top: 15%; padding-bottom: 42%\">+</p>"	"1343"	n/a	n/a	n/a	n/a	n/a	n/a	n/a	n/a	n/a
n/a	"image-keyboard-response"	"227"	"476398"	"0.0-6.0-2.0-1.21"	"jn389l"	"600"	"1366"	"chrome"	"108.0.0"	"FALSE"	"Windows 10"	"61.62"	"135"	n/a	n/a	n/a	n/a	n/a	n/a	"Trial"	n/a	n/a	n/a	"741"	"arrowright"	n/a	"NULL"	"NULL"	"NULL"	"stimuli/Ebbinghaus_-0.61429_0.21500.png"	n/a	"Ebbinghaus"	"arrowleft"	"1352"	"FALSE"	"Ebbinghaus"	"-0.614290000"	"0.2150000000"	"2"	"22"
n/a	"html-keyboard-response"	"228"	"477487"	"0.0-6.0-2.0-0.22"	"jn389l"	"600"	"1366"	"chrome"	"108.0.0"	"FALSE"	"Windows 10"	"61.62"	"135"	n/a	n/a	n/a	n/a	n/a	n/a	"fixation"	n/a	n/a	n/a	n/a	"NULL"	n/a	"NULL"	"NULL"	"NULL"	"<p style=\"color: black; font-size: 80px; padding-left: 42%; padding-right: 26%; padding-top: 13%; padding-bottom: 13%\">+</p>"	"1076"	n/a	n/a	n/a	n/a	n/a	n/a	n/a	n/a	n/a
n/a	"image-keyboard-response"	"229"	"478157"	"0.0-6.0-2.0-1.22"	"jn389l"	"600"	"1366"	"chrome"	"108.0.0"	"FALSE"	"Windows 10"	"61.62"	"135"	n/a	n/a	n/a	n/a	n/a	n/a	"Trial"	n/a	n/a	n/a	"668"	"arrowleft"	n/a	"NULL"	"NULL"	"NULL"	"stimuli/Ebbinghaus_0.35714_0.21500.png"	n/a	"Ebbinghaus"	"arrowleft"	"1089"	"TRUE"	"Ebbinghaus"	"0.3571400000"	"0.2150000000"	"2"	"23"
n/a	"html-keyboard-response"	"230"	"479327"	"0.0-6.0-2.0-0.23"	"jn389l"	"600"	"1366"	"chrome"	"108.0.0"	"FALSE"	"Windows 10"	"61.62"	"135"	n/a	n/a	n/a	n/a	n/a	n/a	"fixation"	n/a	n/a	n/a	n/a	"NULL"	n/a	"NULL"	"NULL"	"NULL"	"<p style=\"color: black; font-size: 80px; padding-left: 29%; padding-right: 22%; padding-top: 11%; padding-bottom: 12%\">+</p>"	"1165"	n/a	n/a	n/a	n/a	n/a	n/a	n/a	n/a	n/a
n/a	"image-keyboard-response"	"231"	"479933"	"0.0-6.0-2.0-1.23"	"jn389l"	"600"	"1366"	"chrome"	"108.0.0"	"FALSE"	"Windows 10"	"61.62"	"135"	n/a	n/a	n/a	n/a	n/a	n/a	"Trial"	n/a	n/a	n/a	"604"	"arrowleft"	n/a	"NULL"	"NULL"	"NULL"	"stimuli/Ebbinghaus_0.35714_0.11071.png"	n/a	"Ebbinghaus"	"arrowleft"	"1170"	"TRUE"	"Ebbinghaus"	"0.3571400000"	"0.1107100000"	"2"	"24"
n/a	"html-keyboard-response"	"232"	"481328"	"0.0-6.0-2.0-0.24"	"jn389l"	"600"	"1366"	"chrome"	"108.0.0"	"FALSE"	"Windows 10"	"61.62"	"135"	n/a	n/a	n/a	n/a	n/a	n/a	"fixation"	n/a	n/a	n/a	n/a	"NULL"	n/a	"NULL"	"NULL"	"NULL"	"<p style=\"color: black; font-size: 80px; padding-left: 5%; padding-right: 22%; padding-top: 24%; padding-bottom: 11%\">+</p>"	"1381"	n/a	n/a	n/a	n/a	n/a	n/a	n/a	n/a	n/a
n/a	"image-keyboard-response"	"233"	"482190"	"0.0-6.0-2.0-1.24"	"jn389l"	"600"	"1366"	"chrome"	"108.0.0"	"FALSE"	"Windows 10"	"61.62"	"135"	n/a	n/a	n/a	n/a	n/a	n/a	"Trial"	n/a	n/a	n/a	"861"	"arrowleft"	n/a	"NULL"	"NULL"	"NULL"	"stimuli/Ebbinghaus_0.87143_0.15857.png"	n/a	"Ebbinghaus"	"arrowleft"	"1395"	"TRUE"	"Ebbinghaus"	"0.8714300000"	"0.1585700000"	"2"	"25"
n/a	"html-keyboard-response"	"234"	"483278"	"0.0-6.0-2.0-0.25"	"jn389l"	"600"	"1366"	"chrome"	"108.0.0"	"FALSE"	"Windows 10"	"61.62"	"135"	n/a	n/a	n/a	n/a	n/a	n/a	"fixation"	n/a	n/a	n/a	n/a	"NULL"	n/a	"NULL"	"NULL"	"NULL"	"<p style=\"color: black; font-size: 80px; padding-left: 17%; padding-right: 14%; padding-top: 15%; padding-bottom: 25%\">+</p>"	"1066"	n/a	n/a	n/a	n/a	n/a	n/a	n/a	n/a	n/a
n/a	"image-keyboard-response"	"235"	"483867"	"0.0-6.0-2.0-1.25"	"jn389l"	"600"	"1366"	"chrome"	"108.0.0"	"FALSE"	"Windows 10"	"61.62"	"135"	n/a	n/a	n/a	n/a	n/a	n/a	"Trial"	n/a	n/a	n/a	"583"	"arrowright"	n/a	"NULL"	"NULL"	"NULL"	"stimuli/Ebbinghaus_-0.87143_-0.15857.png"	n/a	"Ebbinghaus"	"arrowright"	"1088"	"TRUE"	"Ebbinghaus"	"-0.871430000"	"-0.158570000"	"2"	"26"
n/a	"html-keyboard-response"	"236"	"485236"	"0.0-6.0-2.0-0.26"	"jn389l"	"600"	"1366"	"chrome"	"108.0.0"	"FALSE"	"Windows 10"	"61.62"	"135"	n/a	n/a	n/a	n/a	n/a	n/a	"fixation"	n/a	n/a	n/a	n/a	"NULL"	n/a	"NULL"	"NULL"	"NULL"	"<p style=\"color: black; font-size: 80px; padding-left: 2%; padding-right: 15%; padding-top: 6%; padding-bottom: 46%\">+</p>"	"1350"	n/a	n/a	n/a	n/a	n/a	n/a	n/a	n/a	n/a
n/a	"image-keyboard-response"	"237"	"485986"	"0.0-6.0-2.0-1.26"	"jn389l"	"600"	"1366"	"chrome"	"108.0.0"	"FALSE"	"Windows 10"	"61.62"	"135"	n/a	n/a	n/a	n/a	n/a	n/a	"Trial"	n/a	n/a	n/a	"748"	"arrowleft"	n/a	"NULL"	"NULL"	"NULL"	"stimuli/Ebbinghaus_0.35714_0.28000.png"	n/a	"Ebbinghaus"	"arrowleft"	"1369"	"TRUE"	"Ebbinghaus"	"0.3571400000"	"0.2800000000"	"2"	"27"
n/a	"html-keyboard-response"	"238"	"487195"	"0.0-6.0-2.0-0.27"	"jn389l"	"600"	"1366"	"chrome"	"108.0.0"	"FALSE"	"Windows 10"	"61.62"	"135"	n/a	n/a	n/a	n/a	n/a	n/a	"fixation"	n/a	n/a	n/a	n/a	"NULL"	n/a	"NULL"	"NULL"	"NULL"	"<p style=\"color: black; font-size: 80px; padding-left: 35%; padding-right: 9%; padding-top: 20%; padding-bottom: 46%\">+</p>"	"1196"	n/a	n/a	n/a	n/a	n/a	n/a	n/a	n/a	n/a
n/a	"image-keyboard-response"	"239"	"487894"	"0.0-6.0-2.0-1.27"	"jn389l"	"600"	"1366"	"chrome"	"108.0.0"	"FALSE"	"Windows 10"	"61.62"	"135"	n/a	n/a	n/a	n/a	n/a	n/a	"Trial"	n/a	n/a	n/a	"698"	"arrowright"	n/a	"NULL"	"NULL"	"NULL"	"stimuli/Ebbinghaus_0.10000_-0.2150.png"	n/a	"Ebbinghaus"	"arrowright"	"1209"	"TRUE"	"Ebbinghaus"	"0.1000000000"	"-0.215000000"	"2"	"28"
n/a	"html-keyboard-response"	"240"	"488930"	"0.0-6.0-2.0-0.28"	"jn389l"	"600"	"1366"	"chrome"	"108.0.0"	"FALSE"	"Windows 10"	"61.62"	"135"	n/a	n/a	n/a	n/a	n/a	n/a	"fixation"	n/a	n/a	n/a	n/a	"NULL"	n/a	"NULL"	"NULL"	"NULL"	"<p style=\"color: black; font-size: 80px; padding-left: 13%; padding-right: 29%; padding-top: 43%; padding-bottom: 25%\">+</p>"	"1021"	n/a	n/a	n/a	n/a	n/a	n/a	n/a	n/a	n/a
n/a	"image-keyboard-response"	"241"	"489735"	"0.0-6.0-2.0-1.28"	"jn389l"	"600"	"1366"	"chrome"	"108.0.0"	"FALSE"	"Windows 10"	"61.62"	"135"	n/a	n/a	n/a	n/a	n/a	n/a	"Trial"	n/a	n/a	n/a	"804"	"arrowleft"	n/a	"NULL"	"NULL"	"NULL"	"stimuli/Ebbinghaus_0.10000_0.15857.png"	n/a	"Ebbinghaus"	"arrowleft"	"1036"	"TRUE"	"Ebbinghaus"	"0.1000000000"	"0.1585700000"	"2"	"29"
n/a	"html-keyboard-response"	"242"	"490922"	"0.0-6.0-2.0-0.29"	"jn389l"	"600"	"1366"	"chrome"	"108.0.0"	"FALSE"	"Windows 10"	"61.62"	"135"	n/a	n/a	n/a	n/a	n/a	n/a	"fixation"	n/a	n/a	n/a	n/a	"NULL"	n/a	"NULL"	"NULL"	"NULL"	"<p style=\"color: black; font-size: 80px; padding-left: 22%; padding-right: 45%; padding-top: 39%; padding-bottom: 12%\">+</p>"	"1176"	n/a	n/a	n/a	n/a	n/a	n/a	n/a	n/a	n/a
n/a	"image-keyboard-response"	"243"	"491528"	"0.0-6.0-2.0-1.29"	"jn389l"	"600"	"1366"	"chrome"	"108.0.0"	"FALSE"	"Windows 10"	"61.62"	"135"	n/a	n/a	n/a	n/a	n/a	n/a	"Trial"	n/a	n/a	n/a	"604"	"arrowleft"	n/a	"NULL"	"NULL"	"NULL"	"stimuli/Ebbinghaus_0.10000_0.28000.png"	n/a	"Ebbinghaus"	"arrowleft"	"1187"	"TRUE"	"Ebbinghaus"	"0.1000000000"	"0.2800000000"	"2"	"30"
n/a	"html-keyboard-response"	"244"	"492673"	"0.0-6.0-2.0-0.30"	"jn389l"	"600"	"1366"	"chrome"	"108.0.0"	"FALSE"	"Windows 10"	"61.62"	"135"	n/a	n/a	n/a	n/a	n/a	n/a	"fixation"	n/a	n/a	n/a	n/a	"NULL"	n/a	"NULL"	"NULL"	"NULL"	"<p style=\"color: black; font-size: 80px; padding-left: 49%; padding-right: 35%; padding-top: 23%; padding-bottom: 44%\">+</p>"	"1134"	n/a	n/a	n/a	n/a	n/a	n/a	n/a	n/a	n/a
n/a	"image-keyboard-response"	"245"	"493241"	"0.0-6.0-2.0-1.30"	"jn389l"	"600"	"1366"	"chrome"	"108.0.0"	"FALSE"	"Windows 10"	"61.62"	"135"	n/a	n/a	n/a	n/a	n/a	n/a	"Trial"	n/a	n/a	n/a	"566"	"arrowright"	n/a	"NULL"	"NULL"	"NULL"	"stimuli/Ebbinghaus_0.35714_-0.2150.png"	n/a	"Ebbinghaus"	"arrowright"	"1145"	"TRUE"	"Ebbinghaus"	"0.3571400000"	"-0.215000000"	"2"	"31"
n/a	"html-keyboard-response"	"246"	"494670"	"0.0-6.0-2.0-0.31"	"jn389l"	"600"	"1366"	"chrome"	"108.0.0"	"FALSE"	"Windows 10"	"61.62"	"135"	n/a	n/a	n/a	n/a	n/a	n/a	"fixation"	n/a	n/a	n/a	n/a	"NULL"	n/a	"NULL"	"NULL"	"NULL"	"<p style=\"color: black; font-size: 80px; padding-left: 27%; padding-right: 19%; padding-top: 45%; padding-bottom: 14%\">+</p>"	"1413"	n/a	n/a	n/a	n/a	n/a	n/a	n/a	n/a	n/a
n/a	"image-keyboard-response"	"247"	"495272"	"0.0-6.0-2.0-1.31"	"jn389l"	"600"	"1366"	"chrome"	"108.0.0"	"FALSE"	"Windows 10"	"61.62"	"135"	n/a	n/a	n/a	n/a	n/a	n/a	"Trial"	n/a	n/a	n/a	"600"	"arrowright"	n/a	"NULL"	"NULL"	"NULL"	"stimuli/Ebbinghaus_0.61429_-0.15857.png"	n/a	"Ebbinghaus"	"arrowright"	"1429"	"TRUE"	"Ebbinghaus"	"0.6142900000"	"-0.158570000"	"2"	"32"
n/a	"html-keyboard-response"	"248"	"496643"	"0.0-6.0-2.0-0.32"	"jn389l"	"600"	"1366"	"chrome"	"108.0.0"	"FALSE"	"Windows 10"	"61.62"	"135"	n/a	n/a	n/a	n/a	n/a	n/a	"fixation"	n/a	n/a	n/a	n/a	"NULL"	n/a	"NULL"	"NULL"	"NULL"	"<p style=\"color: black; font-size: 80px; padding-left: 30%; padding-right: 13%; padding-top: 43%; padding-bottom: 12%\">+</p>"	"1357"	n/a	n/a	n/a	n/a	n/a	n/a	n/a	n/a	n/a
