"success"	"trial_type"	"trial_index"	"time_elapsed"	"internal_node_id"	"participant_id"	"screen_height"	"screen_width"	"browser"	"browser_version"	"mobile"	"os"	"vsync_rate"	"subject_id"	"width"	"height"	"webaudio"	"fullscreen"	"webcam"	"microphone"	"screen"	"version"	"date"	"time"	"rt"	"response"	"timeout"	"failed_images"	"failed_audio"	"failed_video"	"stimulus"	"trial_duration"	"block"	"correct_response"	"prestimulus_duration"	"correct"	"type"	"illusion_strength"	"illusion_difference"	"block_number"	"trial_number"
"TRUE"	"fullscreen"	"0"	"5823"	"0.0-0.0"	"z9kzht"	"600"	"1366"	"chrome"	"111.0.0"	"FALSE"	"Windows 10"	"60.13"	"046"	n/a	n/a	n/a	n/a	n/a	n/a	n/a	n/a	n/a	n/a	n/a	"NULL"	n/a	"NULL"	"NULL"	"NULL"	n/a	n/a	n/a	n/a	n/a	n/a	n/a	n/a	n/a	n/a	n/a
n/a	"browser-check"	"1"	"6829"	"0.0-1.0"	"z9kzht"	"600"	"1366"	"chrome"	"111.0.0"	"FALSE"	"Windows 10"	"60.13"	"046"	"1366"	"600"	"TRUE"	"TRUE"	"TRUE"	"TRUE"	"browser_info"	"1.0"	"16/03/2023"	"14:47:12"	n/a	"NULL"	n/a	"NULL"	"NULL"	"NULL"	n/a	n/a	n/a	n/a	n/a	n/a	n/a	n/a	n/a	n/a	n/a
n/a	"survey-text"	"2"	"13747"	"0.0-2.0"	"z9kzht"	"600"	"1366"	"chrome"	"111.0.0"	"FALSE"	"Windows 10"	"60.13"	"046"	n/a	n/a	n/a	n/a	n/a	n/a	"subject_id"	n/a	n/a	n/a	"6916"	"list(subject_id = \"046\")"	n/a	"NULL"	"NULL"	"NULL"	n/a	n/a	n/a	n/a	n/a	n/a	n/a	n/a	n/a	n/a	n/a
"TRUE"	"preload"	"3"	"13760"	"0.0-3.0"	"z9kzht"	"600"	"1366"	"chrome"	"111.0.0"	"FALSE"	"Windows 10"	"60.13"	"046"	n/a	n/a	n/a	n/a	n/a	n/a	n/a	n/a	n/a	n/a	n/a	"NULL"	"FALSE"	"list()"	"list()"	"list()"	n/a	n/a	n/a	n/a	n/a	n/a	n/a	n/a	n/a	n/a	n/a
n/a	"html-button-response"	"4"	"106430"	"0.0-4.0-0.0"	"z9kzht"	"600"	"1366"	"chrome"	"111.0.0"	"FALSE"	"Windows 10"	"60.13"	"046"	n/a	n/a	n/a	n/a	n/a	n/a	"illusion_instructions"	n/a	n/a	n/a	"92668"	"0"	n/a	"NULL"	"NULL"	"NULL"	"<p><b>Illusion Game</b></p><p>In this game of speed and reflex, you will need to make <b>visual judgments</b> (for instance, which circle is the biggest, or which line is the longest), as fast and as correctly as possible, while <b>resisting different visual illusions</b>.</p><p>We are going to start with some examples of all the illusions you will encounter in the game.</p>"	n/a	n/a	n/a	n/a	n/a	n/a	n/a	n/a	n/a	n/a
"TRUE"	"preload"	"5"	"106454"	"0.0-4.0-1.0-0.0"	"z9kzht"	"600"	"1366"	"chrome"	"111.0.0"	"FALSE"	"Windows 10"	"60.13"	"046"	n/a	n/a	n/a	n/a	n/a	n/a	n/a	n/a	n/a	n/a	n/a	"NULL"	"FALSE"	"list()"	"list()"	"list()"	n/a	n/a	n/a	n/a	n/a	n/a	n/a	n/a	n/a	n/a	n/a
n/a	"html-keyboard-response"	"6"	"132859"	"0.0-4.0-1.0-1.0"	"z9kzht"	"600"	"1366"	"chrome"	"111.0.0"	"FALSE"	"Windows 10"	"60.13"	"046"	n/a	n/a	n/a	n/a	n/a	n/a	n/a	n/a	n/a	n/a	"26403"	"enter"	n/a	"NULL"	"NULL"	"NULL"	"<p><b>Practice</b></p><p>In this part, two red circles will appear side by side on the screen.</p><p>Your task is to select which <b>red circle is bigger</b> in size as fast as you can, without making errors.</p><p>Don't get distracted by the surrounding black circles around the red circles!</p><p>Press <b>the LEFT or the RIGHT arrow</b> to indicate which is the bigger <b>red circle.</b></p><div style='float: center'><img src='materials/instructions/Ebbinghaus_Demo.png' height='300'></img><p><img src='utils/answer/answer_leftright_keyboard.PNG' height='150'></img></p><p class='small'>In this example, the correct answer is the <b>LEFT arrow</b>.</p></div><p>Are you ready? <b>Press ENTER to start</b></p>"	n/a	n/a	n/a	n/a	n/a	n/a	n/a	n/a	n/a	n/a
n/a	"html-keyboard-response"	"7"	"134730"	"0.0-4.0-1.0-2.0-0.0"	"z9kzht"	"600"	"1366"	"chrome"	"111.0.0"	"FALSE"	"Windows 10"	"60.13"	"046"	n/a	n/a	n/a	n/a	n/a	n/a	"fixation"	n/a	n/a	n/a	n/a	"NULL"	n/a	"NULL"	"NULL"	"NULL"	"<p style=\"color: black; font-size: 80px; padding-left: 37%; padding-right: 41%; padding-top: 32%; padding-bottom: 27%\">+</p>"	"1356"	n/a	n/a	n/a	n/a	n/a	n/a	n/a	n/a	n/a
n/a	"image-keyboard-response"	"8"	"135743"	"0.0-4.0-1.0-2.0-1.0"	"z9kzht"	"600"	"1366"	"chrome"	"111.0.0"	"FALSE"	"Windows 10"	"60.13"	"046"	n/a	n/a	n/a	n/a	n/a	n/a	"Trial"	n/a	n/a	n/a	"1002"	"arrowright"	n/a	"NULL"	"NULL"	"NULL"	"stimuli/Ebbinghaus_1000000_-1.4000.png"	n/a	"Ebbinghaus"	"arrowright"	"1871"	"TRUE"	"Ebbinghaus"	"100000000000"	"-1.400000000"	"1"	"1"
n/a	"html-keyboard-response"	"9"	"136850"	"0.0-4.0-1.0-2.0-0.1"	"z9kzht"	"600"	"1366"	"chrome"	"111.0.0"	"FALSE"	"Windows 10"	"60.13"	"046"	n/a	n/a	n/a	n/a	n/a	n/a	"fixation"	n/a	n/a	n/a	n/a	"NULL"	n/a	"NULL"	"NULL"	"NULL"	"<p style=\"color: black; font-size: 80px; padding-left: 5%; padding-right: 31%; padding-top: 7%; padding-bottom: 5%\">+</p>"	"1097"	n/a	n/a	n/a	n/a	n/a	n/a	n/a	n/a	n/a
n/a	"image-keyboard-response"	"10"	"137334"	"0.0-4.0-1.0-2.0-1.1"	"z9kzht"	"600"	"1366"	"chrome"	"111.0.0"	"FALSE"	"Windows 10"	"60.13"	"046"	n/a	n/a	n/a	n/a	n/a	n/a	"Trial"	n/a	n/a	n/a	"483"	"arrowleft"	n/a	"NULL"	"NULL"	"NULL"	"stimuli/Ebbinghaus_-100000_1.40000.png"	n/a	"Ebbinghaus"	"arrowleft"	"1107"	"TRUE"	"Ebbinghaus"	"-10000000000"	"1.4000000000"	"1"	"2"
n/a	"html-keyboard-response"	"11"	"138387"	"0.0-4.0-1.0-2.0-0.2"	"z9kzht"	"600"	"1366"	"chrome"	"111.0.0"	"FALSE"	"Windows 10"	"60.13"	"046"	n/a	n/a	n/a	n/a	n/a	n/a	"fixation"	n/a	n/a	n/a	n/a	"NULL"	n/a	"NULL"	"NULL"	"NULL"	"<p style=\"color: black; font-size: 80px; padding-left: 10%; padding-right: 36%; padding-top: 10%; padding-bottom: 9%\">+</p>"	"1039"	n/a	n/a	n/a	n/a	n/a	n/a	n/a	n/a	n/a
n/a	"image-keyboard-response"	"12"	"138812"	"0.0-4.0-1.0-2.0-1.2"	"z9kzht"	"600"	"1366"	"chrome"	"111.0.0"	"FALSE"	"Windows 10"	"60.13"	"046"	n/a	n/a	n/a	n/a	n/a	n/a	"Trial"	n/a	n/a	n/a	"423"	"arrowright"	n/a	"NULL"	"NULL"	"NULL"	"stimuli/Ebbinghaus_0000000_-1.4000.png"	n/a	"Ebbinghaus"	"arrowright"	"1053"	"TRUE"	"Ebbinghaus"	"000000000000"	"-1.400000000"	"1"	"3"
n/a	"html-keyboard-response"	"13"	"140312"	"0.0-4.0-1.0-2.0-0.3"	"z9kzht"	"600"	"1366"	"chrome"	"111.0.0"	"FALSE"	"Windows 10"	"60.13"	"046"	n/a	n/a	n/a	n/a	n/a	n/a	"fixation"	n/a	n/a	n/a	n/a	"NULL"	n/a	"NULL"	"NULL"	"NULL"	"<p style=\"color: black; font-size: 80px; padding-left: 5%; padding-right: 22%; padding-top: 13%; padding-bottom: 0%\">+</p>"	"1486"	n/a	n/a	n/a	n/a	n/a	n/a	n/a	n/a	n/a
n/a	"image-keyboard-response"	"14"	"140810"	"0.0-4.0-1.0-2.0-1.3"	"z9kzht"	"600"	"1366"	"chrome"	"111.0.0"	"FALSE"	"Windows 10"	"60.13"	"046"	n/a	n/a	n/a	n/a	n/a	n/a	"Trial"	n/a	n/a	n/a	"497"	"arrowright"	n/a	"NULL"	"NULL"	"NULL"	"stimuli/Ebbinghaus_-100000_-1.4000.png"	n/a	"Ebbinghaus"	"arrowright"	"1500"	"TRUE"	"Ebbinghaus"	"-10000000000"	"-1.400000000"	"1"	"4"
n/a	"html-keyboard-response"	"15"	"142225"	"0.0-4.0-1.0-2.0-0.4"	"z9kzht"	"600"	"1366"	"chrome"	"111.0.0"	"FALSE"	"Windows 10"	"60.13"	"046"	n/a	n/a	n/a	n/a	n/a	n/a	"fixation"	n/a	n/a	n/a	n/a	"NULL"	n/a	"NULL"	"NULL"	"NULL"	"<p style=\"color: black; font-size: 80px; padding-left: 5%; padding-right: 41%; padding-top: 9%; padding-bottom: 48%\">+</p>"	"1403"	n/a	n/a	n/a	n/a	n/a	n/a	n/a	n/a	n/a
n/a	"image-keyboard-response"	"16"	"142633"	"0.0-4.0-1.0-2.0-1.4"	"z9kzht"	"600"	"1366"	"chrome"	"111.0.0"	"FALSE"	"Windows 10"	"60.13"	"046"	n/a	n/a	n/a	n/a	n/a	n/a	"Trial"	n/a	n/a	n/a	"407"	"arrowleft"	n/a	"NULL"	"NULL"	"NULL"	"stimuli/Ebbinghaus_0000000_1.40000.png"	n/a	"Ebbinghaus"	"arrowleft"	"1415"	"TRUE"	"Ebbinghaus"	"000000000000"	"1.4000000000"	"1"	"5"
n/a	"html-keyboard-response"	"17"	"143911"	"0.0-4.0-1.0-2.0-0.5"	"z9kzht"	"600"	"1366"	"chrome"	"111.0.0"	"FALSE"	"Windows 10"	"60.13"	"046"	n/a	n/a	n/a	n/a	n/a	n/a	"fixation"	n/a	n/a	n/a	n/a	"NULL"	n/a	"NULL"	"NULL"	"NULL"	"<p style=\"color: black; font-size: 80px; padding-left: 13%; padding-right: 22%; padding-top: 24%; padding-bottom: 7%\">+</p>"	"1265"	n/a	n/a	n/a	n/a	n/a	n/a	n/a	n/a	n/a
n/a	"image-keyboard-response"	"18"	"144316"	"0.0-4.0-1.0-2.0-1.5"	"z9kzht"	"600"	"1366"	"chrome"	"111.0.0"	"FALSE"	"Windows 10"	"60.13"	"046"	n/a	n/a	n/a	n/a	n/a	n/a	"Trial"	n/a	n/a	n/a	"404"	"arrowleft"	n/a	"NULL"	"NULL"	"NULL"	"stimuli/Ebbinghaus_1000000_1.40000.png"	n/a	"Ebbinghaus"	"arrowleft"	"1278"	"TRUE"	"Ebbinghaus"	"100000000000"	"1.4000000000"	"1"	"6"
n/a	"html-button-response"	"19"	"149278"	"0.0-4.0-1.0-3.0"	"z9kzht"	"600"	"1366"	"chrome"	"111.0.0"	"FALSE"	"Windows 10"	"60.13"	"046"	n/a	n/a	n/a	n/a	n/a	n/a	"practice_block_results"	n/a	n/a	n/a	"4959"	"0"	n/a	"NULL"	"NULL"	"NULL"	"<p style='color:rgb(76,175,80);'> Correct Responses: <b>100.00%</b></p><hr><p style='color:rgb(233,30,99);'> Average Response Time: <b>536.00</b> ms.</p>"	n/a	n/a	n/a	n/a	n/a	n/a	n/a	n/a	n/a	n/a
"TRUE"	"preload"	"20"	"150099"	"0.0-4.0-2.0-0.0"	"z9kzht"	"600"	"1366"	"chrome"	"111.0.0"	"FALSE"	"Windows 10"	"60.13"	"046"	n/a	n/a	n/a	n/a	n/a	n/a	n/a	n/a	n/a	n/a	n/a	"NULL"	"FALSE"	"list()"	"list()"	"list()"	n/a	n/a	n/a	n/a	n/a	n/a	n/a	n/a	n/a	n/a	n/a
n/a	"html-keyboard-response"	"21"	"160050"	"0.0-4.0-2.0-1.0"	"z9kzht"	"600"	"1366"	"chrome"	"111.0.0"	"FALSE"	"Windows 10"	"60.13"	"046"	n/a	n/a	n/a	n/a	n/a	n/a	n/a	n/a	n/a	n/a	"9950"	"enter"	n/a	"NULL"	"NULL"	"NULL"	"<p><b>Practice</b></p><p>In this part, two horizontal red lines will appear one above the other.</p><p>Your task is to select which <b>line is longer</b> in length as fast as you can, without making errors.</p><p>Don't get distracted by the surrounding black arrows at the end of the red lines!</p><p>Press <b>the UP or the DOWN arrow</b> to indicate where is the longer <b>red line.</b></p><div style='float: center'><img src='materials/instructions/MullerLyer_Demo.png' height='300'></img><p><img src='utils/answer/answer_updown_keyboard.PNG' height='150'></img></p><p class='small'>In this example, the correct answer is the <b>UP arrow</b>.</p></div><p>Are you ready? <b>Press ENTER to start</b></p>"	n/a	n/a	n/a	n/a	n/a	n/a	n/a	n/a	n/a	n/a
n/a	"html-keyboard-response"	"22"	"161798"	"0.0-4.0-2.0-2.0-0.0"	"z9kzht"	"600"	"1366"	"chrome"	"111.0.0"	"FALSE"	"Windows 10"	"60.13"	"046"	n/a	n/a	n/a	n/a	n/a	n/a	"fixation"	n/a	n/a	n/a	n/a	"NULL"	n/a	"NULL"	"NULL"	"NULL"	"<p style=\"color: black; font-size: 80px; padding-left: 15%; padding-right: 30%; padding-top: 6%; padding-bottom: 50%\">+</p>"	"1238"	n/a	n/a	n/a	n/a	n/a	n/a	n/a	n/a	n/a
n/a	"image-keyboard-response"	"23"	"162733"	"0.0-4.0-2.0-2.0-1.0"	"z9kzht"	"600"	"1366"	"chrome"	"111.0.0"	"FALSE"	"Windows 10"	"60.13"	"046"	n/a	n/a	n/a	n/a	n/a	n/a	"Trial"	n/a	n/a	n/a	"935"	"arrowdown"	n/a	"NULL"	"NULL"	"NULL"	"stimuli/MullerLyer_2300000_-0.7000.png"	n/a	"MullerLyer"	"arrowdown"	"1748"	"TRUE"	"MullerLyer"	"230000000000"	"-0.700000000"	"1"	"7"
n/a	"html-keyboard-response"	"24"	"164023"	"0.0-4.0-2.0-2.0-0.1"	"z9kzht"	"600"	"1366"	"chrome"	"111.0.0"	"FALSE"	"Windows 10"	"60.13"	"046"	n/a	n/a	n/a	n/a	n/a	n/a	"fixation"	n/a	n/a	n/a	n/a	"NULL"	n/a	"NULL"	"NULL"	"NULL"	"<p style=\"color: black; font-size: 80px; padding-left: 8%; padding-right: 15%; padding-top: 29%; padding-bottom: 3%\">+</p>"	"1282"	n/a	n/a	n/a	n/a	n/a	n/a	n/a	n/a	n/a
n/a	"image-keyboard-response"	"25"	"164492"	"0.0-4.0-2.0-2.0-1.1"	"z9kzht"	"600"	"1366"	"chrome"	"111.0.0"	"FALSE"	"Windows 10"	"60.13"	"046"	n/a	n/a	n/a	n/a	n/a	n/a	"Trial"	n/a	n/a	n/a	"467"	"arrowdown"	n/a	"NULL"	"NULL"	"NULL"	"stimuli/MullerLyer_-230000_-0.7000.png"	n/a	"MullerLyer"	"arrowdown"	"1290"	"TRUE"	"MullerLyer"	"-23000000000"	"-0.700000000"	"1"	"8"
n/a	"html-keyboard-response"	"26"	"165709"	"0.0-4.0-2.0-2.0-0.2"	"z9kzht"	"600"	"1366"	"chrome"	"111.0.0"	"FALSE"	"Windows 10"	"60.13"	"046"	n/a	n/a	n/a	n/a	n/a	n/a	"fixation"	n/a	n/a	n/a	n/a	"NULL"	n/a	"NULL"	"NULL"	"NULL"	"<p style=\"color: black; font-size: 80px; padding-left: 35%; padding-right: 47%; padding-top: 18%; padding-bottom: 10%\">+</p>"	"1202"	n/a	n/a	n/a	n/a	n/a	n/a	n/a	n/a	n/a
n/a	"image-keyboard-response"	"27"	"166139"	"0.0-4.0-2.0-2.0-1.2"	"z9kzht"	"600"	"1366"	"chrome"	"111.0.0"	"FALSE"	"Windows 10"	"60.13"	"046"	n/a	n/a	n/a	n/a	n/a	n/a	"Trial"	n/a	n/a	n/a	"430"	"arrowup"	n/a	"NULL"	"NULL"	"NULL"	"stimuli/MullerLyer_0000000_0.70000.png"	n/a	"MullerLyer"	"arrowup"	"1217"	"TRUE"	"MullerLyer"	"000000000000"	"0.7000000000"	"1"	"9"
n/a	"html-keyboard-response"	"28"	"167593"	"0.0-4.0-2.0-2.0-0.3"	"z9kzht"	"600"	"1366"	"chrome"	"111.0.0"	"FALSE"	"Windows 10"	"60.13"	"046"	n/a	n/a	n/a	n/a	n/a	n/a	"fixation"	n/a	n/a	n/a	n/a	"NULL"	n/a	"NULL"	"NULL"	"NULL"	"<p style=\"color: black; font-size: 80px; padding-left: 22%; padding-right: 25%; padding-top: 26%; padding-bottom: 3%\">+</p>"	"1444"	n/a	n/a	n/a	n/a	n/a	n/a	n/a	n/a	n/a
n/a	"image-keyboard-response"	"29"	"168017"	"0.0-4.0-2.0-2.0-1.3"	"z9kzht"	"600"	"1366"	"chrome"	"111.0.0"	"FALSE"	"Windows 10"	"60.13"	"046"	n/a	n/a	n/a	n/a	n/a	n/a	"Trial"	n/a	n/a	n/a	"424"	"arrowup"	n/a	"NULL"	"NULL"	"NULL"	"stimuli/MullerLyer_2300000_0.70000.png"	n/a	"MullerLyer"	"arrowup"	"1454"	"TRUE"	"MullerLyer"	"230000000000"	"0.7000000000"	"1"	"10"
n/a	"html-keyboard-response"	"30"	"169512"	"0.0-4.0-2.0-2.0-0.4"	"z9kzht"	"600"	"1366"	"chrome"	"111.0.0"	"FALSE"	"Windows 10"	"60.13"	"046"	n/a	n/a	n/a	n/a	n/a	n/a	"fixation"	n/a	n/a	n/a	n/a	"NULL"	n/a	"NULL"	"NULL"	"NULL"	"<p style=\"color: black; font-size: 80px; padding-left: 19%; padding-right: 11%; padding-top: 8%; padding-bottom: 11%\">+</p>"	"1485"	n/a	n/a	n/a	n/a	n/a	n/a	n/a	n/a	n/a
n/a	"image-keyboard-response"	"31"	"169912"	"0.0-4.0-2.0-2.0-1.4"	"z9kzht"	"600"	"1366"	"chrome"	"111.0.0"	"FALSE"	"Windows 10"	"60.13"	"046"	n/a	n/a	n/a	n/a	n/a	n/a	"Trial"	n/a	n/a	n/a	"400"	"arrowup"	n/a	"NULL"	"NULL"	"NULL"	"stimuli/MullerLyer_-230000_0.70000.png"	n/a	"MullerLyer"	"arrowup"	"1495"	"TRUE"	"MullerLyer"	"-23000000000"	"0.7000000000"	"1"	"11"
n/a	"html-keyboard-response"	"32"	"171291"	"0.0-4.0-2.0-2.0-0.5"	"z9kzht"	"600"	"1366"	"chrome"	"111.0.0"	"FALSE"	"Windows 10"	"60.13"	"046"	n/a	n/a	n/a	n/a	n/a	n/a	"fixation"	n/a	n/a	n/a	n/a	"NULL"	n/a	"NULL"	"NULL"	"NULL"	"<p style=\"color: black; font-size: 80px; padding-left: 38%; padding-right: 24%; padding-top: 13%; padding-bottom: 41%\">+</p>"	"1378"	n/a	n/a	n/a	n/a	n/a	n/a	n/a	n/a	n/a
n/a	"image-keyboard-response"	"33"	"171711"	"0.0-4.0-2.0-2.0-1.5"	"z9kzht"	"600"	"1366"	"chrome"	"111.0.0"	"FALSE"	"Windows 10"	"60.13"	"046"	n/a	n/a	n/a	n/a	n/a	n/a	"Trial"	n/a	n/a	n/a	"419"	"arrowdown"	n/a	"NULL"	"NULL"	"NULL"	"stimuli/MullerLyer_0000000_-0.7000.png"	n/a	"MullerLyer"	"arrowdown"	"1379"	"TRUE"	"MullerLyer"	"000000000000"	"-0.700000000"	"1"	"12"
n/a	"html-button-response"	"34"	"173942"	"0.0-4.0-2.0-3.0"	"z9kzht"	"600"	"1366"	"chrome"	"111.0.0"	"FALSE"	"Windows 10"	"60.13"	"046"	n/a	n/a	n/a	n/a	n/a	n/a	"practice_block_results"	n/a	n/a	n/a	"2229"	"0"	n/a	"NULL"	"NULL"	"NULL"	"<p style='color:rgb(76,175,80);'> Correct Responses: <b>100.00%</b></p><hr><p style='color:rgb(233,30,99);'> Average Response Time: <b>512.50</b> ms.</p>"	n/a	n/a	n/a	n/a	n/a	n/a	n/a	n/a	n/a	n/a
"TRUE"	"preload"	"35"	"174474"	"0.0-4.0-3.0-0.0"	"z9kzht"	"600"	"1366"	"chrome"	"111.0.0"	"FALSE"	"Windows 10"	"60.13"	"046"	n/a	n/a	n/a	n/a	n/a	n/a	n/a	n/a	n/a	n/a	n/a	"NULL"	"FALSE"	"list()"	"list()"	"list()"	n/a	n/a	n/a	n/a	n/a	n/a	n/a	n/a	n/a	n/a	n/a
n/a	"html-keyboard-response"	"36"	"182963"	"0.0-4.0-3.0-1.0"	"z9kzht"	"600"	"1366"	"chrome"	"111.0.0"	"FALSE"	"Windows 10"	"60.13"	"046"	n/a	n/a	n/a	n/a	n/a	n/a	n/a	n/a	n/a	n/a	"8488"	"enter"	n/a	"NULL"	"NULL"	"NULL"	"<p><b>Practice</b></p><p>In this part, two red lines will appear side by side.</p><p>Your task is to tell <b>which line is longer</b> in length, regardless of their orientation, as fast as you can, and without making errors.</p><p>Don't get distracted by the orientation of the lines!</p><p>Press <b>the LEFT or the RIGHT arrow</b> to indicate which <b>line is the longer one.</b></p><div style='float: center'><img src='materials/instructions/VerticalHorizontal_Demo.png' height='300'></img><p><img src='utils/answer/answer_leftright_keyboard.PNG' height='150'></img></p><p class='small'>In this example, the correct answer is the <b>LEFT arrow</b>.</p></div><p>Are you ready? <b>Press ENTER to start</b></p>"	n/a	n/a	n/a	n/a	n/a	n/a	n/a	n/a	n/a	n/a
n/a	"html-keyboard-response"	"37"	"184785"	"0.0-4.0-3.0-2.0-0.0"	"z9kzht"	"600"	"1366"	"chrome"	"111.0.0"	"FALSE"	"Windows 10"	"60.13"	"046"	n/a	n/a	n/a	n/a	n/a	n/a	"fixation"	n/a	n/a	n/a	n/a	"NULL"	n/a	"NULL"	"NULL"	"NULL"	"<p style=\"color: black; font-size: 80px; padding-left: 26%; padding-right: 33%; padding-top: 14%; padding-bottom: 9%\">+</p>"	"1306"	n/a	n/a	n/a	n/a	n/a	n/a	n/a	n/a	n/a
n/a	"image-keyboard-response"	"38"	"185476"	"0.0-4.0-3.0-2.0-1.0"	"z9kzht"	"600"	"1366"	"chrome"	"111.0.0"	"FALSE"	"Windows 10"	"60.13"	"046"	n/a	n/a	n/a	n/a	n/a	n/a	"Trial"	n/a	n/a	n/a	"690"	"arrowright"	n/a	"NULL"	"NULL"	"NULL"	"stimuli/VerticalHorizontal_3300000_-0.9000.png"	n/a	"VerticalHorizontal"	"arrowright"	"1822"	"TRUE"	"VerticalHorizontal"	"330000000000"	"-0.900000000"	"1"	"13"
n/a	"html-keyboard-response"	"39"	"186939"	"0.0-4.0-3.0-2.0-0.1"	"z9kzht"	"600"	"1366"	"chrome"	"111.0.0"	"FALSE"	"Windows 10"	"60.13"	"046"	n/a	n/a	n/a	n/a	n/a	n/a	"fixation"	n/a	n/a	n/a	n/a	"NULL"	n/a	"NULL"	"NULL"	"NULL"	"<p style=\"color: black; font-size: 80px; padding-left: 26%; padding-right: 25%; padding-top: 45%; padding-bottom: 33%\">+</p>"	"1458"	n/a	n/a	n/a	n/a	n/a	n/a	n/a	n/a	n/a
n/a	"image-keyboard-response"	"40"	"187275"	"0.0-4.0-3.0-2.0-1.1"	"z9kzht"	"600"	"1366"	"chrome"	"111.0.0"	"FALSE"	"Windows 10"	"60.13"	"046"	n/a	n/a	n/a	n/a	n/a	n/a	"Trial"	n/a	n/a	n/a	"336"	"arrowleft"	n/a	"NULL"	"NULL"	"NULL"	"stimuli/VerticalHorizontal_-330000_0.90000.png"	n/a	"VerticalHorizontal"	"arrowleft"	"1463"	"TRUE"	"VerticalHorizontal"	"-33000000000"	"0.9000000000"	"1"	"14"
n/a	"html-keyboard-response"	"41"	"188533"	"0.0-4.0-3.0-2.0-0.2"	"z9kzht"	"600"	"1366"	"chrome"	"111.0.0"	"FALSE"	"Windows 10"	"60.13"	"046"	n/a	n/a	n/a	n/a	n/a	n/a	"fixation"	n/a	n/a	n/a	n/a	"NULL"	n/a	"NULL"	"NULL"	"NULL"	"<p style=\"color: black; font-size: 80px; padding-left: 22%; padding-right: 13%; padding-top: 11%; padding-bottom: 37%\">+</p>"	"1249"	n/a	n/a	n/a	n/a	n/a	n/a	n/a	n/a	n/a
n/a	"image-keyboard-response"	"42"	"188915"	"0.0-4.0-3.0-2.0-1.2"	"z9kzht"	"600"	"1366"	"chrome"	"111.0.0"	"FALSE"	"Windows 10"	"60.13"	"046"	n/a	n/a	n/a	n/a	n/a	n/a	"Trial"	n/a	n/a	n/a	"381"	"arrowleft"	n/a	"NULL"	"NULL"	"NULL"	"stimuli/VerticalHorizontal_0000000_0.90000.png"	n/a	"VerticalHorizontal"	"arrowleft"	"1258"	"TRUE"	"VerticalHorizontal"	"000000000000"	"0.9000000000"	"1"	"15"
n/a	"html-keyboard-response"	"43"	"190045"	"0.0-4.0-3.0-2.0-0.3"	"z9kzht"	"600"	"1366"	"chrome"	"111.0.0"	"FALSE"	"Windows 10"	"60.13"	"046"	n/a	n/a	n/a	n/a	n/a	n/a	"fixation"	n/a	n/a	n/a	n/a	"NULL"	n/a	"NULL"	"NULL"	"NULL"	"<p style=\"color: black; font-size: 80px; padding-left: 34%; padding-right: 28%; padding-top: 46%; padding-bottom: 10%\">+</p>"	"1116"	n/a	n/a	n/a	n/a	n/a	n/a	n/a	n/a	n/a
n/a	"image-keyboard-response"	"44"	"190395"	"0.0-4.0-3.0-2.0-1.3"	"z9kzht"	"600"	"1366"	"chrome"	"111.0.0"	"FALSE"	"Windows 10"	"60.13"	"046"	n/a	n/a	n/a	n/a	n/a	n/a	"Trial"	n/a	n/a	n/a	"350"	"arrowright"	n/a	"NULL"	"NULL"	"NULL"	"stimuli/VerticalHorizontal_-330000_-0.9000.png"	n/a	"VerticalHorizontal"	"arrowright"	"1130"	"TRUE"	"VerticalHorizontal"	"-33000000000"	"-0.900000000"	"1"	"16"
n/a	"html-keyboard-response"	"45"	"191566"	"0.0-4.0-3.0-2.0-0.4"	"z9kzht"	"600"	"1366"	"chrome"	"111.0.0"	"FALSE"	"Windows 10"	"60.13"	"046"	n/a	n/a	n/a	n/a	n/a	n/a	"fixation"	n/a	n/a	n/a	n/a	"NULL"	n/a	"NULL"	"NULL"	"NULL"	"<p style=\"color: black; font-size: 80px; padding-left: 10%; padding-right: 36%; padding-top: 16%; padding-bottom: 48%\">+</p>"	"1169"	n/a	n/a	n/a	n/a	n/a	n/a	n/a	n/a	n/a
n/a	"image-keyboard-response"	"46"	"191955"	"0.0-4.0-3.0-2.0-1.4"	"z9kzht"	"600"	"1366"	"chrome"	"111.0.0"	"FALSE"	"Windows 10"	"60.13"	"046"	n/a	n/a	n/a	n/a	n/a	n/a	"Trial"	n/a	n/a	n/a	"388"	"arrowleft"	n/a	"NULL"	"NULL"	"NULL"	"stimuli/VerticalHorizontal_3300000_0.90000.png"	n/a	"VerticalHorizontal"	"arrowleft"	"1171"	"TRUE"	"VerticalHorizontal"	"330000000000"	"0.9000000000"	"1"	"17"
n/a	"html-keyboard-response"	"47"	"193167"	"0.0-4.0-3.0-2.0-0.5"	"z9kzht"	"600"	"1366"	"chrome"	"111.0.0"	"FALSE"	"Windows 10"	"60.13"	"046"	n/a	n/a	n/a	n/a	n/a	n/a	"fixation"	n/a	n/a	n/a	n/a	"NULL"	n/a	"NULL"	"NULL"	"NULL"	"<p style=\"color: black; font-size: 80px; padding-left: 48%; padding-right: 40%; padding-top: 44%; padding-bottom: 11%\">+</p>"	"1206"	n/a	n/a	n/a	n/a	n/a	n/a	n/a	n/a	n/a
n/a	"image-keyboard-response"	"48"	"193501"	"0.0-4.0-3.0-2.0-1.5"	"z9kzht"	"600"	"1366"	"chrome"	"111.0.0"	"FALSE"	"Windows 10"	"60.13"	"046"	n/a	n/a	n/a	n/a	n/a	n/a	"Trial"	n/a	n/a	n/a	"333"	"arrowright"	n/a	"NULL"	"NULL"	"NULL"	"stimuli/VerticalHorizontal_0000000_-0.9000.png"	n/a	"VerticalHorizontal"	"arrowright"	"1212"	"TRUE"	"VerticalHorizontal"	"000000000000"	"-0.900000000"	"1"	"18"
n/a	"html-button-response"	"49"	"196102"	"0.0-4.0-3.0-3.0"	"z9kzht"	"600"	"1366"	"chrome"	"111.0.0"	"FALSE"	"Windows 10"	"60.13"	"046"	n/a	n/a	n/a	n/a	n/a	n/a	"practice_block_results"	n/a	n/a	n/a	"2600"	"0"	n/a	"NULL"	"NULL"	"NULL"	"<p style='color:rgb(76,175,80);'> Correct Responses: <b>100.00%</b></p><hr><p style='color:rgb(233,30,99);'> Average Response Time: <b>413.00</b> ms.</p>"	n/a	n/a	n/a	n/a	n/a	n/a	n/a	n/a	n/a	n/a
n/a	"html-button-response"	"50"	"255382"	"0.0-4.0-4.0"	"z9kzht"	"600"	"1366"	"chrome"	"111.0.0"	"FALSE"	"Windows 10"	"60.13"	"046"	n/a	n/a	n/a	n/a	n/a	n/a	"practice_debrief"	n/a	n/a	n/a	"58769"	"0"	n/a	"NULL"	"NULL"	"NULL"	"<p><b>TRAINING COMPLETED</b></p><p>In the next phase, there will be more trials, and some might be harder too.<br> Moreover, after each illusion block, a <b>score</b> will be calculated based on speed (time you took to answer) and accuracy (number of errors).</p><p>Try to keep up a high score!</p><br><p>Note that it can be <i>really</i> challenging at times, so you will need to rely on your <b>intuition</b> and gut feeling to answer as fast as you can without making errors.</p><p>Each illusion block will be repeated two times (so that you have the opportunity to improve your score), but the order of the blocks is random.</p><p>Remember, your goal is to be as <b>fast</b> and <b>accurate</b> as possible. Good luck!</p><br>"	n/a	n/a	n/a	n/a	n/a	n/a	n/a	n/a	n/a	n/a
"TRUE"	"preload"	"51"	"255602"	"0.0-5.0-0.0"	"z9kzht"	"600"	"1366"	"chrome"	"111.0.0"	"FALSE"	"Windows 10"	"60.13"	"046"	n/a	n/a	n/a	n/a	n/a	n/a	n/a	n/a	n/a	n/a	n/a	"NULL"	"FALSE"	"list()"	"list()"	"list()"	n/a	n/a	n/a	n/a	n/a	n/a	n/a	n/a	n/a	n/a	n/a
n/a	"html-keyboard-response"	"52"	"261189"	"0.0-5.0-1.0"	"z9kzht"	"600"	"1366"	"chrome"	"111.0.0"	"FALSE"	"Windows 10"	"60.13"	"046"	n/a	n/a	n/a	n/a	n/a	n/a	n/a	n/a	n/a	n/a	"5586"	"enter"	n/a	"NULL"	"NULL"	"NULL"	"<p><b>Part 1/6</b></p><p>In this part, two red circles will appear side by side on the screen.</p><p>Your task is to select which <b>red circle is bigger</b> in size as fast as you can, without making errors.</p><p>Don't get distracted by the surrounding black circles around the red circles!</p><p>Press <b>the LEFT or the RIGHT arrow</b> to indicate which is the bigger <b>red circle.</b></p><div style='float: center'><img src='materials/instructions/Ebbinghaus_Demo.png' height='300'></img><p><img src='utils/answer/answer_leftright_keyboard.PNG' height='150'></img></p><p class='small'>In this example, the correct answer is the <b>LEFT arrow</b>.</p></div><p>Are you ready? <b>Press ENTER to start</b></p>"	n/a	n/a	n/a	n/a	n/a	n/a	n/a	n/a	n/a	n/a
n/a	"html-keyboard-response"	"53"	"262892"	"0.0-5.0-2.0-0.0"	"z9kzht"	"600"	"1366"	"chrome"	"111.0.0"	"FALSE"	"Windows 10"	"60.13"	"046"	n/a	n/a	n/a	n/a	n/a	n/a	"fixation"	n/a	n/a	n/a	n/a	"NULL"	n/a	"NULL"	"NULL"	"NULL"	"<p style=\"color: black; font-size: 80px; padding-left: 43%; padding-right: 39%; padding-top: 6%; padding-bottom: 29%\">+</p>"	"1197"	n/a	n/a	n/a	n/a	n/a	n/a	n/a	n/a	n/a
n/a	"image-keyboard-response"	"54"	"263393"	"0.0-5.0-2.0-1.0"	"z9kzht"	"600"	"1366"	"chrome"	"111.0.0"	"FALSE"	"Windows 10"	"60.13"	"046"	n/a	n/a	n/a	n/a	n/a	n/a	"Trial"	n/a	n/a	n/a	"501"	"arrowright"	n/a	"NULL"	"NULL"	"NULL"	"stimuli/Ebbinghaus_0.10000_-0.11071.png"	n/a	"Ebbinghaus"	"arrowright"	"1703"	"TRUE"	"Ebbinghaus"	"0.1000000000"	"-0.110710000"	"1"	"19"
n/a	"html-keyboard-response"	"55"	"264703"	"0.0-5.0-2.0-0.1"	"z9kzht"	"600"	"1366"	"chrome"	"111.0.0"	"FALSE"	"Windows 10"	"60.13"	"046"	n/a	n/a	n/a	n/a	n/a	n/a	"fixation"	n/a	n/a	n/a	n/a	"NULL"	n/a	"NULL"	"NULL"	"NULL"	"<p style=\"color: black; font-size: 80px; padding-left: 41%; padding-right: 5%; padding-top: 1%; padding-bottom: 46%\">+</p>"	"1295"	n/a	n/a	n/a	n/a	n/a	n/a	n/a	n/a	n/a
n/a	"image-keyboard-response"	"56"	"265810"	"0.0-5.0-2.0-1.1"	"z9kzht"	"600"	"1366"	"chrome"	"111.0.0"	"FALSE"	"Windows 10"	"60.13"	"046"	n/a	n/a	n/a	n/a	n/a	n/a	"Trial"	n/a	n/a	n/a	"1106"	"arrowleft"	n/a	"NULL"	"NULL"	"NULL"	"stimuli/Ebbinghaus_-0.87143_0.28000.png"	n/a	"Ebbinghaus"	"arrowleft"	"1310"	"TRUE"	"Ebbinghaus"	"-0.871430000"	"0.2800000000"	"1"	"20"
n/a	"html-keyboard-response"	"57"	"266917"	"0.0-5.0-2.0-0.2"	"z9kzht"	"600"	"1366"	"chrome"	"111.0.0"	"FALSE"	"Windows 10"	"60.13"	"046"	n/a	n/a	n/a	n/a	n/a	n/a	"fixation"	n/a	n/a	n/a	n/a	"NULL"	n/a	"NULL"	"NULL"	"NULL"	"<p style=\"color: black; font-size: 80px; padding-left: 16%; padding-right: 36%; padding-top: 12%; padding-bottom: 45%\">+</p>"	"1102"	n/a	n/a	n/a	n/a	n/a	n/a	n/a	n/a	n/a
n/a	"image-keyboard-response"	"58"	"267496"	"0.0-5.0-2.0-1.2"	"z9kzht"	"600"	"1366"	"chrome"	"111.0.0"	"FALSE"	"Windows 10"	"60.13"	"046"	n/a	n/a	n/a	n/a	n/a	n/a	"Trial"	n/a	n/a	n/a	"578"	"arrowright"	n/a	"NULL"	"NULL"	"NULL"	"stimuli/Ebbinghaus_-0.87143_-0.2800.png"	n/a	"Ebbinghaus"	"arrowright"	"1107"	"TRUE"	"Ebbinghaus"	"-0.871430000"	"-0.280000000"	"1"	"21"
n/a	"html-keyboard-response"	"59"	"268551"	"0.0-5.0-2.0-0.3"	"z9kzht"	"600"	"1366"	"chrome"	"111.0.0"	"FALSE"	"Windows 10"	"60.13"	"046"	n/a	n/a	n/a	n/a	n/a	n/a	"fixation"	n/a	n/a	n/a	n/a	"NULL"	n/a	"NULL"	"NULL"	"NULL"	"<p style=\"color: black; font-size: 80px; padding-left: 1%; padding-right: 8%; padding-top: 29%; padding-bottom: 48%\">+</p>"	"1048"	n/a	n/a	n/a	n/a	n/a	n/a	n/a	n/a	n/a
n/a	"image-keyboard-response"	"60"	"269223"	"0.0-5.0-2.0-1.3"	"z9kzht"	"600"	"1366"	"chrome"	"111.0.0"	"FALSE"	"Windows 10"	"60.13"	"046"	n/a	n/a	n/a	n/a	n/a	n/a	"Trial"	n/a	n/a	n/a	"672"	"arrowright"	n/a	"NULL"	"NULL"	"NULL"	"stimuli/Ebbinghaus_0.61429_-0.2800.png"	n/a	"Ebbinghaus"	"arrowright"	"1055"	"TRUE"	"Ebbinghaus"	"0.6142900000"	"-0.280000000"	"1"	"22"
n/a	"html-keyboard-response"	"61"	"270640"	"0.0-5.0-2.0-0.4"	"z9kzht"	"600"	"1366"	"chrome"	"111.0.0"	"FALSE"	"Windows 10"	"60.13"	"046"	n/a	n/a	n/a	n/a	n/a	n/a	"fixation"	n/a	n/a	n/a	n/a	"NULL"	n/a	"NULL"	"NULL"	"NULL"	"<p style=\"color: black; font-size: 80px; padding-left: 12%; padding-right: 48%; padding-top: 18%; padding-bottom: 10%\">+</p>"	"1403"	n/a	n/a	n/a	n/a	n/a	n/a	n/a	n/a	n/a
n/a	"image-keyboard-response"	"62"	"271617"	"0.0-5.0-2.0-1.4"	"z9kzht"	"600"	"1366"	"chrome"	"111.0.0"	"FALSE"	"Windows 10"	"60.13"	"046"	n/a	n/a	n/a	n/a	n/a	n/a	"Trial"	n/a	n/a	n/a	"976"	"arrowleft"	n/a	"NULL"	"NULL"	"NULL"	"stimuli/Ebbinghaus_-0.1000_0.21500.png"	n/a	"Ebbinghaus"	"arrowleft"	"1417"	"TRUE"	"Ebbinghaus"	"-0.100000000"	"0.2150000000"	"1"	"23"
n/a	"html-keyboard-response"	"63"	"272866"	"0.0-5.0-2.0-0.5"	"z9kzht"	"600"	"1366"	"chrome"	"111.0.0"	"FALSE"	"Windows 10"	"60.13"	"046"	n/a	n/a	n/a	n/a	n/a	n/a	"fixation"	n/a	n/a	n/a	n/a	"NULL"	n/a	"NULL"	"NULL"	"NULL"	"<p style=\"color: black; font-size: 80px; padding-left: 12%; padding-right: 16%; padding-top: 49%; padding-bottom: 23%\">+</p>"	"1246"	n/a	n/a	n/a	n/a	n/a	n/a	n/a	n/a	n/a
n/a	"image-keyboard-response"	"64"	"275172"	"0.0-5.0-2.0-1.5"	"z9kzht"	"600"	"1366"	"chrome"	"111.0.0"	"FALSE"	"Windows 10"	"60.13"	"046"	n/a	n/a	n/a	n/a	n/a	n/a	"Trial"	n/a	n/a	n/a	"2305"	"arrowright"	n/a	"NULL"	"NULL"	"NULL"	"stimuli/Ebbinghaus_-0.35714_-0.11071.png"	n/a	"Ebbinghaus"	"arrowright"	"1249"	"TRUE"	"Ebbinghaus"	"-0.357140000"	"-0.110710000"	"1"	"24"
n/a	"html-keyboard-response"	"65"	"276271"	"0.0-5.0-2.0-0.6"	"z9kzht"	"600"	"1366"	"chrome"	"111.0.0"	"FALSE"	"Windows 10"	"60.13"	"046"	n/a	n/a	n/a	n/a	n/a	n/a	"fixation"	n/a	n/a	n/a	n/a	"NULL"	n/a	"NULL"	"NULL"	"NULL"	"<p style=\"color: black; font-size: 80px; padding-left: 14%; padding-right: 8%; padding-top: 48%; padding-bottom: 36%\">+</p>"	"1098"	n/a	n/a	n/a	n/a	n/a	n/a	n/a	n/a	n/a
n/a	"image-keyboard-response"	"66"	"277063"	"0.0-5.0-2.0-1.6"	"z9kzht"	"600"	"1366"	"chrome"	"111.0.0"	"FALSE"	"Windows 10"	"60.13"	"046"	n/a	n/a	n/a	n/a	n/a	n/a	"Trial"	n/a	n/a	n/a	"791"	"arrowright"	n/a	"NULL"	"NULL"	"NULL"	"stimuli/Ebbinghaus_0.61429_-0.2150.png"	n/a	"Ebbinghaus"	"arrowright"	"1099"	"TRUE"	"Ebbinghaus"	"0.6142900000"	"-0.215000000"	"1"	"25"
n/a	"html-keyboard-response"	"67"	"278276"	"0.0-5.0-2.0-0.7"	"z9kzht"	"600"	"1366"	"chrome"	"111.0.0"	"FALSE"	"Windows 10"	"60.13"	"046"	n/a	n/a	n/a	n/a	n/a	n/a	"fixation"	n/a	n/a	n/a	n/a	"NULL"	n/a	"NULL"	"NULL"	"NULL"	"<p style=\"color: black; font-size: 80px; padding-left: 15%; padding-right: 42%; padding-top: 4%; padding-bottom: 42%\">+</p>"	"1207"	n/a	n/a	n/a	n/a	n/a	n/a	n/a	n/a	n/a
n/a	"image-keyboard-response"	"68"	"278817"	"0.0-5.0-2.0-1.7"	"z9kzht"	"600"	"1366"	"chrome"	"111.0.0"	"FALSE"	"Windows 10"	"60.13"	"046"	n/a	n/a	n/a	n/a	n/a	n/a	"Trial"	n/a	n/a	n/a	"540"	"arrowleft"	n/a	"NULL"	"NULL"	"NULL"	"stimuli/Ebbinghaus_0.61429_0.28000.png"	n/a	"Ebbinghaus"	"arrowleft"	"1213"	"TRUE"	"Ebbinghaus"	"0.6142900000"	"0.2800000000"	"1"	"26"
n/a	"html-keyboard-response"	"69"	"279955"	"0.0-5.0-2.0-0.8"	"z9kzht"	"600"	"1366"	"chrome"	"111.0.0"	"FALSE"	"Windows 10"	"60.13"	"046"	n/a	n/a	n/a	n/a	n/a	n/a	"fixation"	n/a	n/a	n/a	n/a	"NULL"	n/a	"NULL"	"NULL"	"NULL"	"<p style=\"color: black; font-size: 80px; padding-left: 9%; padding-right: 35%; padding-top: 18%; padding-bottom: 26%\">+</p>"	"1129"	n/a	n/a	n/a	n/a	n/a	n/a	n/a	n/a	n/a
n/a	"image-keyboard-response"	"70"	"281233"	"0.0-5.0-2.0-1.8"	"z9kzht"	"600"	"1366"	"chrome"	"111.0.0"	"FALSE"	"Windows 10"	"60.13"	"046"	n/a	n/a	n/a	n/a	n/a	n/a	"Trial"	n/a	n/a	n/a	"1277"	"arrowleft"	n/a	"NULL"	"NULL"	"NULL"	"stimuli/Ebbinghaus_-0.87143_0.11071.png"	n/a	"Ebbinghaus"	"arrowleft"	"1138"	"TRUE"	"Ebbinghaus"	"-0.871430000"	"0.1107100000"	"1"	"27"
n/a	"html-keyboard-response"	"71"	"282372"	"0.0-5.0-2.0-0.9"	"z9kzht"	"600"	"1366"	"chrome"	"111.0.0"	"FALSE"	"Windows 10"	"60.13"	"046"	n/a	n/a	n/a	n/a	n/a	n/a	"fixation"	n/a	n/a	n/a	n/a	"NULL"	n/a	"NULL"	"NULL"	"NULL"	"<p style=\"color: black; font-size: 80px; padding-left: 26%; padding-right: 29%; padding-top: 1%; padding-bottom: 4%\">+</p>"	"1135"	n/a	n/a	n/a	n/a	n/a	n/a	n/a	n/a	n/a
n/a	"image-keyboard-response"	"72"	"283856"	"0.0-5.0-2.0-1.9"	"z9kzht"	"600"	"1366"	"chrome"	"111.0.0"	"FALSE"	"Windows 10"	"60.13"	"046"	n/a	n/a	n/a	n/a	n/a	n/a	"Trial"	n/a	n/a	n/a	"1484"	"arrowleft"	n/a	"NULL"	"NULL"	"NULL"	"stimuli/Ebbinghaus_0.61429_-0.15857.png"	n/a	"Ebbinghaus"	"arrowright"	"1139"	"FALSE"	"Ebbinghaus"	"0.6142900000"	"-0.158570000"	"1"	"28"
n/a	"html-keyboard-response"	"73"	"284890"	"0.0-5.0-2.0-0.10"	"z9kzht"	"600"	"1366"	"chrome"	"111.0.0"	"FALSE"	"Windows 10"	"60.13"	"046"	n/a	n/a	n/a	n/a	n/a	n/a	"fixation"	n/a	n/a	n/a	n/a	"NULL"	n/a	"NULL"	"NULL"	"NULL"	"<p style=\"color: black; font-size: 80px; padding-left: 25%; padding-right: 44%; padding-top: 7%; padding-bottom: 44%\">+</p>"	"1028"	n/a	n/a	n/a	n/a	n/a	n/a	n/a	n/a	n/a
n/a	"image-keyboard-response"	"74"	"285765"	"0.0-5.0-2.0-1.10"	"z9kzht"	"600"	"1366"	"chrome"	"111.0.0"	"FALSE"	"Windows 10"	"60.13"	"046"	n/a	n/a	n/a	n/a	n/a	n/a	"Trial"	n/a	n/a	n/a	"875"	"arrowright"	n/a	"NULL"	"NULL"	"NULL"	"stimuli/Ebbinghaus_-0.1000_-0.11071.png"	n/a	"Ebbinghaus"	"arrowright"	"1034"	"TRUE"	"Ebbinghaus"	"-0.100000000"	"-0.110710000"	"1"	"29"
n/a	"html-keyboard-response"	"75"	"286837"	"0.0-5.0-2.0-0.11"	"z9kzht"	"600"	"1366"	"chrome"	"111.0.0"	"FALSE"	"Windows 10"	"60.13"	"046"	n/a	n/a	n/a	n/a	n/a	n/a	"fixation"	n/a	n/a	n/a	n/a	"NULL"	n/a	"NULL"	"NULL"	"NULL"	"<p style=\"color: black; font-size: 80px; padding-left: 19%; padding-right: 8%; padding-top: 36%; padding-bottom: 1%\">+</p>"	"1064"	n/a	n/a	n/a	n/a	n/a	n/a	n/a	n/a	n/a
n/a	"image-keyboard-response"	"76"	"287448"	"0.0-5.0-2.0-1.11"	"z9kzht"	"600"	"1366"	"chrome"	"111.0.0"	"FALSE"	"Windows 10"	"60.13"	"046"	n/a	n/a	n/a	n/a	n/a	n/a	"Trial"	n/a	n/a	n/a	"610"	"arrowleft"	n/a	"NULL"	"NULL"	"NULL"	"stimuli/Ebbinghaus_0.35714_0.15857.png"	n/a	"Ebbinghaus"	"arrowleft"	"1072"	"TRUE"	"Ebbinghaus"	"0.3571400000"	"0.1585700000"	"1"	"30"
n/a	"html-keyboard-response"	"77"	"288788"	"0.0-5.0-2.0-0.12"	"z9kzht"	"600"	"1366"	"chrome"	"111.0.0"	"FALSE"	"Windows 10"	"60.13"	"046"	n/a	n/a	n/a	n/a	n/a	n/a	"fixation"	n/a	n/a	n/a	n/a	"NULL"	n/a	"NULL"	"NULL"	"NULL"	"<p style=\"color: black; font-size: 80px; padding-left: 1%; padding-right: 45%; padding-top: 26%; padding-bottom: 4%\">+</p>"	"1330"	n/a	n/a	n/a	n/a	n/a	n/a	n/a	n/a	n/a
n/a	"image-keyboard-response"	"78"	"289636"	"0.0-5.0-2.0-1.12"	"z9kzht"	"600"	"1366"	"chrome"	"111.0.0"	"FALSE"	"Windows 10"	"60.13"	"046"	n/a	n/a	n/a	n/a	n/a	n/a	"Trial"	n/a	n/a	n/a	"847"	"arrowleft"	n/a	"NULL"	"NULL"	"NULL"	"stimuli/Ebbinghaus_0.10000_0.28000.png"	n/a	"Ebbinghaus"	"arrowleft"	"1340"	"TRUE"	"Ebbinghaus"	"0.1000000000"	"0.2800000000"	"1"	"31"
n/a	"html-keyboard-response"	"79"	"290863"	"0.0-5.0-2.0-0.13"	"z9kzht"	"600"	"1366"	"chrome"	"111.0.0"	"FALSE"	"Windows 10"	"60.13"	"046"	n/a	n/a	n/a	n/a	n/a	n/a	"fixation"	n/a	n/a	n/a	n/a	"NULL"	n/a	"NULL"	"NULL"	"NULL"	"<p style=\"color: black; font-size: 80px; padding-left: 34%; padding-right: 46%; padding-top: 23%; padding-bottom: 44%\">+</p>"	"1217"	n/a	n/a	n/a	n/a	n/a	n/a	n/a	n/a	n/a
n/a	"image-keyboard-response"	"80"	"291952"	"0.0-5.0-2.0-1.13"	"z9kzht"	"600"	"1366"	"chrome"	"111.0.0"	"FALSE"	"Windows 10"	"60.13"	"046"	n/a	n/a	n/a	n/a	n/a	n/a	"Trial"	n/a	n/a	n/a	"1088"	"arrowleft"	n/a	"NULL"	"NULL"	"NULL"	"stimuli/Ebbinghaus_0.35714_-0.2150.png"	n/a	"Ebbinghaus"	"arrowright"	"1227"	"FALSE"	"Ebbinghaus"	"0.3571400000"	"-0.215000000"	"1"	"32"
n/a	"html-keyboard-response"	"81"	"293287"	"0.0-5.0-2.0-0.14"	"z9kzht"	"600"	"1366"	"chrome"	"111.0.0"	"FALSE"	"Windows 10"	"60.13"	"046"	n/a	n/a	n/a	n/a	n/a	n/a	"fixation"	n/a	n/a	n/a	n/a	"NULL"	n/a	"NULL"	"NULL"	"NULL"	"<p style=\"color: black; font-size: 80px; padding-left: 7%; padding-right: 17%; padding-top: 47%; padding-bottom: 26%\">+</p>"	"1321"	n/a	n/a	n/a	n/a	n/a	n/a	n/a	n/a	n/a
n/a	"image-keyboard-response"	"82"	"294642"	"0.0-5.0-2.0-1.14"	"z9kzht"	"600"	"1366"	"chrome"	"111.0.0"	"FALSE"	"Windows 10"	"60.13"	"046"	n/a	n/a	n/a	n/a	n/a	n/a	"Trial"	n/a	n/a	n/a	"1354"	"arrowleft"	n/a	"NULL"	"NULL"	"NULL"	"stimuli/Ebbinghaus_0.61429_0.21500.png"	n/a	"Ebbinghaus"	"arrowleft"	"1335"	"TRUE"	"Ebbinghaus"	"0.6142900000"	"0.2150000000"	"1"	"33"
n/a	"html-keyboard-response"	"83"	"295814"	"0.0-5.0-2.0-0.15"	"z9kzht"	"600"	"1366"	"chrome"	"111.0.0"	"FALSE"	"Windows 10"	"60.13"	"046"	n/a	n/a	n/a	n/a	n/a	n/a	"fixation"	n/a	n/a	n/a	n/a	"NULL"	n/a	"NULL"	"NULL"	"NULL"	"<p style=\"color: black; font-size: 80px; padding-left: 25%; padding-right: 15%; padding-top: 31%; padding-bottom: 2%\">+</p>"	"1164"	n/a	n/a	n/a	n/a	n/a	n/a	n/a	n/a	n/a
n/a	"image-keyboard-response"	"84"	"296781"	"0.0-5.0-2.0-1.15"	"z9kzht"	"600"	"1366"	"chrome"	"111.0.0"	"FALSE"	"Windows 10"	"60.13"	"046"	n/a	n/a	n/a	n/a	n/a	n/a	"Trial"	n/a	n/a	n/a	"967"	"arrowright"	n/a	"NULL"	"NULL"	"NULL"	"stimuli/Ebbinghaus_-0.1000_0.15857.png"	n/a	"Ebbinghaus"	"arrowleft"	"1172"	"FALSE"	"Ebbinghaus"	"-0.100000000"	"0.1585700000"	"1"	"34"
n/a	"html-keyboard-response"	"85"	"298070"	"0.0-5.0-2.0-0.16"	"z9kzht"	"600"	"1366"	"chrome"	"111.0.0"	"FALSE"	"Windows 10"	"60.13"	"046"	n/a	n/a	n/a	n/a	n/a	n/a	"fixation"	n/a	n/a	n/a	n/a	"NULL"	n/a	"NULL"	"NULL"	"NULL"	"<p style=\"color: black; font-size: 80px; padding-left: 35%; padding-right: 3%; padding-top: 34%; padding-bottom: 34%\">+</p>"	"1272"	n/a	n/a	n/a	n/a	n/a	n/a	n/a	n/a	n/a
n/a	"image-keyboard-response"	"86"	"298796"	"0.0-5.0-2.0-1.16"	"z9kzht"	"600"	"1366"	"chrome"	"111.0.0"	"FALSE"	"Windows 10"	"60.13"	"046"	n/a	n/a	n/a	n/a	n/a	n/a	"Trial"	n/a	n/a	n/a	"725"	"arrowright"	n/a	"NULL"	"NULL"	"NULL"	"stimuli/Ebbinghaus_0.10000_-0.2150.png"	n/a	"Ebbinghaus"	"arrowright"	"1289"	"TRUE"	"Ebbinghaus"	"0.1000000000"	"-0.215000000"	"1"	"35"
n/a	"html-keyboard-response"	"87"	"300037"	"0.0-5.0-2.0-0.17"	"z9kzht"	"600"	"1366"	"chrome"	"111.0.0"	"FALSE"	"Windows 10"	"60.13"	"046"	n/a	n/a	n/a	n/a	n/a	n/a	"fixation"	n/a	n/a	n/a	n/a	"NULL"	n/a	"NULL"	"NULL"	"NULL"	"<p style=\"color: black; font-size: 80px; padding-left: 37%; padding-right: 44%; padding-top: 20%; padding-bottom: 42%\">+</p>"	"1236"	n/a	n/a	n/a	n/a	n/a	n/a	n/a	n/a	n/a
n/a	"image-keyboard-response"	"88"	"300701"	"0.0-5.0-2.0-1.17"	"z9kzht"	"600"	"1366"	"chrome"	"111.0.0"	"FALSE"	"Windows 10"	"60.13"	"046"	n/a	n/a	n/a	n/a	n/a	n/a	"Trial"	n/a	n/a	n/a	"663"	"arrowright"	n/a	"NULL"	"NULL"	"NULL"	"stimuli/Ebbinghaus_-0.87143_-0.2150.png"	n/a	"Ebbinghaus"	"arrowright"	"1241"	"TRUE"	"Ebbinghaus"	"-0.871430000"	"-0.215000000"	"1"	"36"
n/a	"html-keyboard-response"	"89"	"301746"	"0.0-5.0-2.0-0.18"	"z9kzht"	"600"	"1366"	"chrome"	"111.0.0"	"FALSE"	"Windows 10"	"60.13"	"046"	n/a	n/a	n/a	n/a	n/a	n/a	"fixation"	n/a	n/a	n/a	n/a	"NULL"	n/a	"NULL"	"NULL"	"NULL"	"<p style=\"color: black; font-size: 80px; padding-left: 30%; padding-right: 35%; padding-top: 11%; padding-bottom: 47%\">+</p>"	"1036"	n/a	n/a	n/a	n/a	n/a	n/a	n/a	n/a	n/a
n/a	"image-keyboard-response"	"90"	"302291"	"0.0-5.0-2.0-1.18"	"z9kzht"	"600"	"1366"	"chrome"	"111.0.0"	"FALSE"	"Windows 10"	"60.13"	"046"	n/a	n/a	n/a	n/a	n/a	n/a	"Trial"	n/a	n/a	n/a	"543"	"arrowleft"	n/a	"NULL"	"NULL"	"NULL"	"stimuli/Ebbinghaus_-0.35714_0.21500.png"	n/a	"Ebbinghaus"	"arrowleft"	"1045"	"TRUE"	"Ebbinghaus"	"-0.357140000"	"0.2150000000"	"1"	"37"
n/a	"html-keyboard-response"	"91"	"303445"	"0.0-5.0-2.0-0.19"	"z9kzht"	"600"	"1366"	"chrome"	"111.0.0"	"FALSE"	"Windows 10"	"60.13"	"046"	n/a	n/a	n/a	n/a	n/a	n/a	"fixation"	n/a	n/a	n/a	n/a	"NULL"	n/a	"NULL"	"NULL"	"NULL"	"<p style=\"color: black; font-size: 80px; padding-left: 16%; padding-right: 6%; padding-top: 17%; padding-bottom: 38%\">+</p>"	"1148"	n/a	n/a	n/a	n/a	n/a	n/a	n/a	n/a	n/a
n/a	"image-keyboard-response"	"92"	"303959"	"0.0-5.0-2.0-1.19"	"z9kzht"	"600"	"1366"	"chrome"	"111.0.0"	"FALSE"	"Windows 10"	"60.13"	"046"	n/a	n/a	n/a	n/a	n/a	n/a	"Trial"	n/a	n/a	n/a	"513"	"arrowright"	n/a	"NULL"	"NULL"	"NULL"	"stimuli/Ebbinghaus_0.87143_-0.11071.png"	n/a	"Ebbinghaus"	"arrowright"	"1154"	"TRUE"	"Ebbinghaus"	"0.8714300000"	"-0.110710000"	"1"	"38"
n/a	"html-keyboard-response"	"93"	"305018"	"0.0-5.0-2.0-0.20"	"z9kzht"	"600"	"1366"	"chrome"	"111.0.0"	"FALSE"	"Windows 10"	"60.13"	"046"	n/a	n/a	n/a	n/a	n/a	n/a	"fixation"	n/a	n/a	n/a	n/a	"NULL"	n/a	"NULL"	"NULL"	"NULL"	"<p style=\"color: black; font-size: 80px; padding-left: 31%; padding-right: 43%; padding-top: 38%; padding-bottom: 29%\">+</p>"	"1048"	n/a	n/a	n/a	n/a	n/a	n/a	n/a	n/a	n/a
n/a	"image-keyboard-response"	"94"	"306011"	"0.0-5.0-2.0-1.20"	"z9kzht"	"600"	"1366"	"chrome"	"111.0.0"	"FALSE"	"Windows 10"	"60.13"	"046"	n/a	n/a	n/a	n/a	n/a	n/a	"Trial"	n/a	n/a	n/a	"992"	"arrowleft"	n/a	"NULL"	"NULL"	"NULL"	"stimuli/Ebbinghaus_0.10000_0.15857.png"	n/a	"Ebbinghaus"	"arrowleft"	"1059"	"TRUE"	"Ebbinghaus"	"0.1000000000"	"0.1585700000"	"1"	"39"
n/a	"html-keyboard-response"	"95"	"307040"	"0.0-5.0-2.0-0.21"	"z9kzht"	"600"	"1366"	"chrome"	"111.0.0"	"FALSE"	"Windows 10"	"60.13"	"046"	n/a	n/a	n/a	n/a	n/a	n/a	"fixation"	n/a	n/a	n/a	n/a	"NULL"	n/a	"NULL"	"NULL"	"NULL"	"<p style=\"color: black; font-size: 80px; padding-left: 33%; padding-right: 26%; padding-top: 41%; padding-bottom: 33%\">+</p>"	"1017"	n/a	n/a	n/a	n/a	n/a	n/a	n/a	n/a	n/a
n/a	"image-keyboard-response"	"96"	"307589"	"0.0-5.0-2.0-1.21"	"z9kzht"	"600"	"1366"	"chrome"	"111.0.0"	"FALSE"	"Windows 10"	"60.13"	"046"	n/a	n/a	n/a	n/a	n/a	n/a	"Trial"	n/a	n/a	n/a	"548"	"arrowleft"	n/a	"NULL"	"NULL"	"NULL"	"stimuli/Ebbinghaus_-0.35714_0.15857.png"	n/a	"Ebbinghaus"	"arrowleft"	"1029"	"TRUE"	"Ebbinghaus"	"-0.357140000"	"0.1585700000"	"1"	"40"
n/a	"html-keyboard-response"	"97"	"308634"	"0.0-5.0-2.0-0.22"	"z9kzht"	"600"	"1366"	"chrome"	"111.0.0"	"FALSE"	"Windows 10"	"60.13"	"046"	n/a	n/a	n/a	n/a	n/a	n/a	"fixation"	n/a	n/a	n/a	n/a	"NULL"	n/a	"NULL"	"NULL"	"NULL"	"<p style=\"color: black; font-size: 80px; padding-left: 21%; padding-right: 23%; padding-top: 41%; padding-bottom: 0%\">+</p>"	"1042"	n/a	n/a	n/a	n/a	n/a	n/a	n/a	n/a	n/a
n/a	"image-keyboard-response"	"98"	"309295"	"0.0-5.0-2.0-1.22"	"z9kzht"	"600"	"1366"	"chrome"	"111.0.0"	"FALSE"	"Windows 10"	"60.13"	"046"	n/a	n/a	n/a	n/a	n/a	n/a	"Trial"	n/a	n/a	n/a	"660"	"arrowright"	n/a	"NULL"	"NULL"	"NULL"	"stimuli/Ebbinghaus_0.87143_0.15857.png"	n/a	"Ebbinghaus"	"arrowleft"	"1045"	"FALSE"	"Ebbinghaus"	"0.8714300000"	"0.1585700000"	"1"	"41"
n/a	"html-keyboard-response"	"99"	"310475"	"0.0-5.0-2.0-0.23"	"z9kzht"	"600"	"1366"	"chrome"	"111.0.0"	"FALSE"	"Windows 10"	"60.13"	"046"	n/a	n/a	n/a	n/a	n/a	n/a	"fixation"	n/a	n/a	n/a	n/a	"NULL"	n/a	"NULL"	"NULL"	"NULL"	"<p style=\"color: black; font-size: 80px; padding-left: 22%; padding-right: 12%; padding-top: 9%; padding-bottom: 19%\">+</p>"	"1171"	n/a	n/a	n/a	n/a	n/a	n/a	n/a	n/a	n/a
n/a	"image-keyboard-response"	"100"	"311316"	"0.0-5.0-2.0-1.23"	"z9kzht"	"600"	"1366"	"chrome"	"111.0.0"	"FALSE"	"Windows 10"	"60.13"	"046"	n/a	n/a	n/a	n/a	n/a	n/a	"Trial"	n/a	n/a	n/a	"840"	"arrowright"	n/a	"NULL"	"NULL"	"NULL"	"stimuli/Ebbinghaus_-0.35714_-0.2150.png"	n/a	"Ebbinghaus"	"arrowright"	"1180"	"TRUE"	"Ebbinghaus"	"-0.357140000"	"-0.215000000"	"1"	"42"
n/a	"html-keyboard-response"	"101"	"312737"	"0.0-5.0-2.0-0.24"	"z9kzht"	"600"	"1366"	"chrome"	"111.0.0"	"FALSE"	"Windows 10"	"60.13"	"046"	n/a	n/a	n/a	n/a	n/a	n/a	"fixation"	n/a	n/a	n/a	n/a	"NULL"	n/a	"NULL"	"NULL"	"NULL"	"<p style=\"color: black; font-size: 80px; padding-left: 29%; padding-right: 32%; padding-top: 1%; padding-bottom: 11%\">+</p>"	"1413"	n/a	n/a	n/a	n/a	n/a	n/a	n/a	n/a	n/a
n/a	"image-keyboard-response"	"102"	"313375"	"0.0-5.0-2.0-1.24"	"z9kzht"	"600"	"1366"	"chrome"	"111.0.0"	"FALSE"	"Windows 10"	"60.13"	"046"	n/a	n/a	n/a	n/a	n/a	n/a	"Trial"	n/a	n/a	n/a	"638"	"arrowright"	n/a	"NULL"	"NULL"	"NULL"	"stimuli/Ebbinghaus_-0.1000_-0.2800.png"	n/a	"Ebbinghaus"	"arrowright"	"1421"	"TRUE"	"Ebbinghaus"	"-0.100000000"	"-0.280000000"	"1"	"43"
n/a	"html-keyboard-response"	"103"	"314589"	"0.0-5.0-2.0-0.25"	"z9kzht"	"600"	"1366"	"chrome"	"111.0.0"	"FALSE"	"Windows 10"	"60.13"	"046"	n/a	n/a	n/a	n/a	n/a	n/a	"fixation"	n/a	n/a	n/a	n/a	"NULL"	n/a	"NULL"	"NULL"	"NULL"	"<p style=\"color: black; font-size: 80px; padding-left: 26%; padding-right: 12%; padding-top: 8%; padding-bottom: 18%\">+</p>"	"1197"	n/a	n/a	n/a	n/a	n/a	n/a	n/a	n/a	n/a
n/a	"image-keyboard-response"	"104"	"315140"	"0.0-5.0-2.0-1.25"	"z9kzht"	"600"	"1366"	"chrome"	"111.0.0"	"FALSE"	"Windows 10"	"60.13"	"046"	n/a	n/a	n/a	n/a	n/a	n/a	"Trial"	n/a	n/a	n/a	"550"	"arrowleft"	n/a	"NULL"	"NULL"	"NULL"	"stimuli/Ebbinghaus_-0.61429_0.28000.png"	n/a	"Ebbinghaus"	"arrowleft"	"1214"	"TRUE"	"Ebbinghaus"	"-0.614290000"	"0.2800000000"	"1"	"44"
n/a	"html-keyboard-response"	"105"	"316601"	"0.0-5.0-2.0-0.26"	"z9kzht"	"600"	"1366"	"chrome"	"111.0.0"	"FALSE"	"Windows 10"	"60.13"	"046"	n/a	n/a	n/a	n/a	n/a	n/a	"fixation"	n/a	n/a	n/a	n/a	"NULL"	n/a	"NULL"	"NULL"	"NULL"	"<p style=\"color: black; font-size: 80px; padding-left: 16%; padding-right: 41%; padding-top: 2%; padding-bottom: 2%\">+</p>"	"1457"	n/a	n/a	n/a	n/a	n/a	n/a	n/a	n/a	n/a
n/a	"image-keyboard-response"	"106"	"317385"	"0.0-5.0-2.0-1.26"	"z9kzht"	"600"	"1366"	"chrome"	"111.0.0"	"FALSE"	"Windows 10"	"60.13"	"046"	n/a	n/a	n/a	n/a	n/a	n/a	"Trial"	n/a	n/a	n/a	"783"	"arrowright"	n/a	"NULL"	"NULL"	"NULL"	"stimuli/Ebbinghaus_0.87143_0.11071.png"	n/a	"Ebbinghaus"	"arrowleft"	"1461"	"FALSE"	"Ebbinghaus"	"0.8714300000"	"0.1107100000"	"1"	"45"
n/a	"html-keyboard-response"	"107"	"318506"	"0.0-5.0-2.0-0.27"	"z9kzht"	"600"	"1366"	"chrome"	"111.0.0"	"FALSE"	"Windows 10"	"60.13"	"046"	n/a	n/a	n/a	n/a	n/a	n/a	"fixation"	n/a	n/a	n/a	n/a	"NULL"	n/a	"NULL"	"NULL"	"NULL"	"<p style=\"color: black; font-size: 80px; padding-left: 15%; padding-right: 16%; padding-top: 40%; padding-bottom: 13%\">+</p>"	"1107"	n/a	n/a	n/a	n/a	n/a	n/a	n/a	n/a	n/a
n/a	"image-keyboard-response"	"108"	"319077"	"0.0-5.0-2.0-1.27"	"z9kzht"	"600"	"1366"	"chrome"	"111.0.0"	"FALSE"	"Windows 10"	"60.13"	"046"	n/a	n/a	n/a	n/a	n/a	n/a	"Trial"	n/a	n/a	n/a	"570"	"arrowleft"	n/a	"NULL"	"NULL"	"NULL"	"stimuli/Ebbinghaus_-0.35714_0.28000.png"	n/a	"Ebbinghaus"	"arrowleft"	"1121"	"TRUE"	"Ebbinghaus"	"-0.357140000"	"0.2800000000"	"1"	"46"
n/a	"html-keyboard-response"	"109"	"320544"	"0.0-5.0-2.0-0.28"	"z9kzht"	"600"	"1366"	"chrome"	"111.0.0"	"FALSE"	"Windows 10"	"60.13"	"046"	n/a	n/a	n/a	n/a	n/a	n/a	"fixation"	n/a	n/a	n/a	n/a	"NULL"	n/a	"NULL"	"NULL"	"NULL"	"<p style=\"color: black; font-size: 80px; padding-left: 19%; padding-right: 35%; padding-top: 30%; padding-bottom: 26%\">+</p>"	"1464"	n/a	n/a	n/a	n/a	n/a	n/a	n/a	n/a	n/a
n/a	"image-keyboard-response"	"110"	"321719"	"0.0-5.0-2.0-1.28"	"z9kzht"	"600"	"1366"	"chrome"	"111.0.0"	"FALSE"	"Windows 10"	"60.13"	"046"	n/a	n/a	n/a	n/a	n/a	n/a	"Trial"	n/a	n/a	n/a	"1173"	"arrowleft"	n/a	"NULL"	"NULL"	"NULL"	"stimuli/Ebbinghaus_0.87143_0.28000.png"	n/a	"Ebbinghaus"	"arrowleft"	"1467"	"TRUE"	"Ebbinghaus"	"0.8714300000"	"0.2800000000"	"1"	"47"
n/a	"html-keyboard-response"	"111"	"322883"	"0.0-5.0-2.0-0.29"	"z9kzht"	"600"	"1366"	"chrome"	"111.0.0"	"FALSE"	"Windows 10"	"60.13"	"046"	n/a	n/a	n/a	n/a	n/a	n/a	"fixation"	n/a	n/a	n/a	n/a	"NULL"	n/a	"NULL"	"NULL"	"NULL"	"<p style=\"color: black; font-size: 80px; padding-left: 23%; padding-right: 30%; padding-top: 32%; padding-bottom: 0%\">+</p>"	"1150"	n/a	n/a	n/a	n/a	n/a	n/a	n/a	n/a	n/a
n/a	"image-keyboard-response"	"112"	"323759"	"0.0-5.0-2.0-1.29"	"z9kzht"	"600"	"1366"	"chrome"	"111.0.0"	"FALSE"	"Windows 10"	"60.13"	"046"	n/a	n/a	n/a	n/a	n/a	n/a	"Trial"	n/a	n/a	n/a	"875"	"arrowright"	n/a	"NULL"	"NULL"	"NULL"	"stimuli/Ebbinghaus_0.10000_-0.2800.png"	n/a	"Ebbinghaus"	"arrowright"	"1164"	"TRUE"	"Ebbinghaus"	"0.1000000000"	"-0.280000000"	"1"	"48"
n/a	"html-keyboard-response"	"113"	"324983"	"0.0-5.0-2.0-0.30"	"z9kzht"	"600"	"1366"	"chrome"	"111.0.0"	"FALSE"	"Windows 10"	"60.13"	"046"	n/a	n/a	n/a	n/a	n/a	n/a	"fixation"	n/a	n/a	n/a	n/a	"NULL"	n/a	"NULL"	"NULL"	"NULL"	"<p style=\"color: black; font-size: 80px; padding-left: 48%; padding-right: 43%; padding-top: 24%; padding-bottom: 13%\">+</p>"	"1211"	n/a	n/a	n/a	n/a	n/a	n/a	n/a	n/a	n/a
n/a	"image-keyboard-response"	"114"	"326159"	"0.0-5.0-2.0-1.30"	"z9kzht"	"600"	"1366"	"chrome"	"111.0.0"	"FALSE"	"Windows 10"	"60.13"	"046"	n/a	n/a	n/a	n/a	n/a	n/a	"Trial"	n/a	n/a	n/a	"1176"	"arrowright"	n/a	"NULL"	"NULL"	"NULL"	"stimuli/Ebbinghaus_0.35714_-0.15857.png"	n/a	"Ebbinghaus"	"arrowright"	"1224"	"TRUE"	"Ebbinghaus"	"0.3571400000"	"-0.158570000"	"1"	"49"
n/a	"html-keyboard-response"	"115"	"327234"	"0.0-5.0-2.0-0.31"	"z9kzht"	"600"	"1366"	"chrome"	"111.0.0"	"FALSE"	"Windows 10"	"60.13"	"046"	n/a	n/a	n/a	n/a	n/a	n/a	"fixation"	n/a	n/a	n/a	n/a	"NULL"	n/a	"NULL"	"NULL"	"NULL"	"<p style=\"color: black; font-size: 80px; padding-left: 28%; padding-right: 24%; padding-top: 42%; padding-bottom: 1%\">+</p>"	"1060"	n/a	n/a	n/a	n/a	n/a	n/a	n/a	n/a	n/a
n/a	"image-keyboard-response"	"116"	"327914"	"0.0-5.0-2.0-1.31"	"z9kzht"	"600"	"1366"	"chrome"	"111.0.0"	"FALSE"	"Windows 10"	"60.13"	"046"	n/a	n/a	n/a	n/a	n/a	n/a	"Trial"	n/a	n/a	n/a	"680"	"arrowright"	n/a	"NULL"	"NULL"	"NULL"	"stimuli/Ebbinghaus_-0.87143_-0.11071.png"	n/a	"Ebbinghaus"	"arrowright"	"1075"	"TRUE"	"Ebbinghaus"	"-0.871430000"	"-0.110710000"	"1"	"50"
n/a	"html-keyboard-response"	"117"	"329269"	"0.0-5.0-2.0-0.32"	"z9kzht"	"600"	"1366"	"chrome"	"111.0.0"	"FALSE"	"Windows 10"	"60.13"	"046"	n/a	n/a	n/a	n/a	n/a	n/a	"fixation"	n/a	n/a	n/a	n/a	"NULL"	n/a	"NULL"	"NULL"	"NULL"	"<p style=\"color: black; font-size: 80px; padding-left: 16%; padding-right: 23%; padding-top: 21%; padding-bottom: 6%\">+</p>"	"1339"	n/a	n/a	n/a	n/a	n/a	n/a	n/a	n/a	n/a
n/a	"image-keyboard-response"	"118"	"329898"	"0.0-5.0-2.0-1.32"	"z9kzht"	"600"	"1366"	"chrome"	"111.0.0"	"FALSE"	"Windows 10"	"60.13"	"046"	n/a	n/a	n/a	n/a	n/a	n/a	"Trial"	n/a	n/a	n/a	"628"	"arrowleft"	n/a	"NULL"	"NULL"	"NULL"	"stimuli/Ebbinghaus_-0.35714_0.11071.png"	n/a	"Ebbinghaus"	"arrowleft"	"1355"	"TRUE"	"Ebbinghaus"	"-0.357140000"	"0.1107100000"	"1"	"51"
n/a	"html-keyboard-response"	"119"	"330986"	"0.0-5.0-2.0-0.33"	"z9kzht"	"600"	"1366"	"chrome"	"111.0.0"	"FALSE"	"Windows 10"	"60.13"	"046"	n/a	n/a	n/a	n/a	n/a	n/a	"fixation"	n/a	n/a	n/a	n/a	"NULL"	n/a	"NULL"	"NULL"	"NULL"	"<p style=\"color: black; font-size: 80px; padding-left: 13%; padding-right: 39%; padding-top: 21%; padding-bottom: 19%\">+</p>"	"1076"	n/a	n/a	n/a	n/a	n/a	n/a	n/a	n/a	n/a
n/a	"image-keyboard-response"	"120"	"331790"	"0.0-5.0-2.0-1.33"	"z9kzht"	"600"	"1366"	"chrome"	"111.0.0"	"FALSE"	"Windows 10"	"60.13"	"046"	n/a	n/a	n/a	n/a	n/a	n/a	"Trial"	n/a	n/a	n/a	"804"	"arrowright"	n/a	"NULL"	"NULL"	"NULL"	"stimuli/Ebbinghaus_0.35714_0.11071.png"	n/a	"Ebbinghaus"	"arrowleft"	"1088"	"FALSE"	"Ebbinghaus"	"0.3571400000"	"0.1107100000"	"1"	"52"
n/a	"html-keyboard-response"	"121"	"333102"	"0.0-5.0-2.0-0.34"	"z9kzht"	"600"	"1366"	"chrome"	"111.0.0"	"FALSE"	"Windows 10"	"60.13"	"046"	n/a	n/a	n/a	n/a	n/a	n/a	"fixation"	n/a	n/a	n/a	n/a	"NULL"	n/a	"NULL"	"NULL"	"NULL"	"<p style=\"color: black; font-size: 80px; padding-left: 35%; padding-right: 30%; padding-top: 19%; padding-bottom: 14%\">+</p>"	"1301"	n/a	n/a	n/a	n/a	n/a	n/a	n/a	n/a	n/a
n/a	"image-keyboard-response"	"122"	"333676"	"0.0-5.0-2.0-1.34"	"z9kzht"	"600"	"1366"	"chrome"	"111.0.0"	"FALSE"	"Windows 10"	"60.13"	"046"	n/a	n/a	n/a	n/a	n/a	n/a	"Trial"	n/a	n/a	n/a	"574"	"arrowleft"	n/a	"NULL"	"NULL"	"NULL"	"stimuli/Ebbinghaus_0.10000_0.11071.png"	n/a	"Ebbinghaus"	"arrowleft"	"1312"	"TRUE"	"Ebbinghaus"	"0.1000000000"	"0.1107100000"	"1"	"53"
n/a	"html-keyboard-response"	"123"	"335083"	"0.0-5.0-2.0-0.35"	"z9kzht"	"600"	"1366"	"chrome"	"111.0.0"	"FALSE"	"Windows 10"	"60.13"	"046"	n/a	n/a	n/a	n/a	n/a	n/a	"fixation"	n/a	n/a	n/a	n/a	"NULL"	n/a	"NULL"	"NULL"	"NULL"	"<p style=\"color: black; font-size: 80px; padding-left: 35%; padding-right: 3%; padding-top: 9%; padding-bottom: 30%\">+</p>"	"1403"	n/a	n/a	n/a	n/a	n/a	n/a	n/a	n/a	n/a
n/a	"image-keyboard-response"	"124"	"335648"	"0.0-5.0-2.0-1.35"	"z9kzht"	"600"	"1366"	"chrome"	"111.0.0"	"FALSE"	"Windows 10"	"60.13"	"046"	n/a	n/a	n/a	n/a	n/a	n/a	"Trial"	n/a	n/a	n/a	"565"	"arrowright"	n/a	"NULL"	"NULL"	"NULL"	"stimuli/Ebbinghaus_0.87143_-0.2150.png"	n/a	"Ebbinghaus"	"arrowright"	"1407"	"TRUE"	"Ebbinghaus"	"0.8714300000"	"-0.215000000"	"1"	"54"
n/a	"html-keyboard-response"	"125"	"336809"	"0.0-5.0-2.0-0.36"	"z9kzht"	"600"	"1366"	"chrome"	"111.0.0"	"FALSE"	"Windows 10"	"60.13"	"046"	n/a	n/a	n/a	n/a	n/a	n/a	"fixation"	n/a	n/a	n/a	n/a	"NULL"	n/a	"NULL"	"NULL"	"NULL"	"<p style=\"color: black; font-size: 80px; padding-left: 38%; padding-right: 37%; padding-top: 37%; padding-bottom: 30%\">+</p>"	"1156"	n/a	n/a	n/a	n/a	n/a	n/a	n/a	n/a	n/a
n/a	"image-keyboard-response"	"126"	"337419"	"0.0-5.0-2.0-1.36"	"z9kzht"	"600"	"1366"	"chrome"	"111.0.0"	"FALSE"	"Windows 10"	"60.13"	"046"	n/a	n/a	n/a	n/a	n/a	n/a	"Trial"	n/a	n/a	n/a	"609"	"arrowleft"	n/a	"NULL"	"NULL"	"NULL"	"stimuli/Ebbinghaus_0.10000_0.21500.png"	n/a	"Ebbinghaus"	"arrowleft"	"1161"	"TRUE"	"Ebbinghaus"	"0.1000000000"	"0.2150000000"	"1"	"55"
n/a	"html-keyboard-response"	"127"	"338447"	"0.0-5.0-2.0-0.37"	"z9kzht"	"600"	"1366"	"chrome"	"111.0.0"	"FALSE"	"Windows 10"	"60.13"	"046"	n/a	n/a	n/a	n/a	n/a	n/a	"fixation"	n/a	n/a	n/a	n/a	"NULL"	n/a	"NULL"	"NULL"	"NULL"	"<p style=\"color: black; font-size: 80px; padding-left: 1%; padding-right: 32%; padding-top: 40%; padding-bottom: 32%\">+</p>"	"1023"	n/a	n/a	n/a	n/a	n/a	n/a	n/a	n/a	n/a
n/a	"image-keyboard-response"	"128"	"339004"	"0.0-5.0-2.0-1.37"	"z9kzht"	"600"	"1366"	"chrome"	"111.0.0"	"FALSE"	"Windows 10"	"60.13"	"046"	n/a	n/a	n/a	n/a	n/a	n/a	"Trial"	n/a	n/a	n/a	"556"	"arrowright"	n/a	"NULL"	"NULL"	"NULL"	"stimuli/Ebbinghaus_0.35714_-0.2800.png"	n/a	"Ebbinghaus"	"arrowright"	"1028"	"TRUE"	"Ebbinghaus"	"0.3571400000"	"-0.280000000"	"1"	"56"
n/a	"html-keyboard-response"	"129"	"340413"	"0.0-5.0-2.0-0.38"	"z9kzht"	"600"	"1366"	"chrome"	"111.0.0"	"FALSE"	"Windows 10"	"60.13"	"046"	n/a	n/a	n/a	n/a	n/a	n/a	"fixation"	n/a	n/a	n/a	n/a	"NULL"	n/a	"NULL"	"NULL"	"NULL"	"<p style=\"color: black; font-size: 80px; padding-left: 32%; padding-right: 29%; padding-top: 16%; padding-bottom: 1%\">+</p>"	"1406"	n/a	n/a	n/a	n/a	n/a	n/a	n/a	n/a	n/a
n/a	"image-keyboard-response"	"130"	"340891"	"0.0-5.0-2.0-1.38"	"z9kzht"	"600"	"1366"	"chrome"	"111.0.0"	"FALSE"	"Windows 10"	"60.13"	"046"	n/a	n/a	n/a	n/a	n/a	n/a	"Trial"	n/a	n/a	n/a	"477"	"arrowright"	n/a	"NULL"	"NULL"	"NULL"	"stimuli/Ebbinghaus_0.87143_-0.2800.png"	n/a	"Ebbinghaus"	"arrowright"	"1409"	"TRUE"	"Ebbinghaus"	"0.8714300000"	"-0.280000000"	"1"	"57"
n/a	"html-keyboard-response"	"131"	"341940"	"0.0-5.0-2.0-0.39"	"z9kzht"	"600"	"1366"	"chrome"	"111.0.0"	"FALSE"	"Windows 10"	"60.13"	"046"	n/a	n/a	n/a	n/a	n/a	n/a	"fixation"	n/a	n/a	n/a	n/a	"NULL"	n/a	"NULL"	"NULL"	"NULL"	"<p style=\"color: black; font-size: 80px; padding-left: 48%; padding-right: 20%; padding-top: 37%; padding-bottom: 6%\">+</p>"	"1044"	n/a	n/a	n/a	n/a	n/a	n/a	n/a	n/a	n/a
n/a	"image-keyboard-response"	"132"	"342661"	"0.0-5.0-2.0-1.39"	"z9kzht"	"600"	"1366"	"chrome"	"111.0.0"	"FALSE"	"Windows 10"	"60.13"	"046"	n/a	n/a	n/a	n/a	n/a	n/a	"Trial"	n/a	n/a	n/a	"720"	"arrowleft"	n/a	"NULL"	"NULL"	"NULL"	"stimuli/Ebbinghaus_-0.61429_0.21500.png"	n/a	"Ebbinghaus"	"arrowleft"	"1049"	"TRUE"	"Ebbinghaus"	"-0.614290000"	"0.2150000000"	"1"	"58"
n/a	"html-keyboard-response"	"133"	"343842"	"0.0-5.0-2.0-0.40"	"z9kzht"	"600"	"1366"	"chrome"	"111.0.0"	"FALSE"	"Windows 10"	"60.13"	"046"	n/a	n/a	n/a	n/a	n/a	n/a	"fixation"	n/a	n/a	n/a	n/a	"NULL"	n/a	"NULL"	"NULL"	"NULL"	"<p style=\"color: black; font-size: 80px; padding-left: 17%; padding-right: 46%; padding-top: 29%; padding-bottom: 31%\">+</p>"	"1180"	n/a	n/a	n/a	n/a	n/a	n/a	n/a	n/a	n/a
n/a	"image-keyboard-response"	"134"	"344437"	"0.0-5.0-2.0-1.40"	"z9kzht"	"600"	"1366"	"chrome"	"111.0.0"	"FALSE"	"Windows 10"	"60.13"	"046"	n/a	n/a	n/a	n/a	n/a	n/a	"Trial"	n/a	n/a	n/a	"594"	"arrowleft"	n/a	"NULL"	"NULL"	"NULL"	"stimuli/Ebbinghaus_-0.61429_0.11071.png"	n/a	"Ebbinghaus"	"arrowleft"	"1181"	"TRUE"	"Ebbinghaus"	"-0.614290000"	"0.1107100000"	"1"	"59"
n/a	"html-keyboard-response"	"135"	"345762"	"0.0-5.0-2.0-0.41"	"z9kzht"	"600"	"1366"	"chrome"	"111.0.0"	"FALSE"	"Windows 10"	"60.13"	"046"	n/a	n/a	n/a	n/a	n/a	n/a	"fixation"	n/a	n/a	n/a	n/a	"NULL"	n/a	"NULL"	"NULL"	"NULL"	"<p style=\"color: black; font-size: 80px; padding-left: 24%; padding-right: 24%; padding-top: 45%; padding-bottom: 34%\">+</p>"	"1309"	n/a	n/a	n/a	n/a	n/a	n/a	n/a	n/a	n/a
n/a	"image-keyboard-response"	"136"	"346243"	"0.0-5.0-2.0-1.41"	"z9kzht"	"600"	"1366"	"chrome"	"111.0.0"	"FALSE"	"Windows 10"	"60.13"	"046"	n/a	n/a	n/a	n/a	n/a	n/a	"Trial"	n/a	n/a	n/a	"480"	"arrowright"	n/a	"NULL"	"NULL"	"NULL"	"stimuli/Ebbinghaus_-0.35714_-0.15857.png"	n/a	"Ebbinghaus"	"arrowright"	"1325"	"TRUE"	"Ebbinghaus"	"-0.357140000"	"-0.158570000"	"1"	"60"
n/a	"html-keyboard-response"	"137"	"347275"	"0.0-5.0-2.0-0.42"	"z9kzht"	"600"	"1366"	"chrome"	"111.0.0"	"FALSE"	"Windows 10"	"60.13"	"046"	n/a	n/a	n/a	n/a	n/a	n/a	"fixation"	n/a	n/a	n/a	n/a	"NULL"	n/a	"NULL"	"NULL"	"NULL"	"<p style=\"color: black; font-size: 80px; padding-left: 37%; padding-right: 27%; padding-top: 22%; padding-bottom: 14%\">+</p>"	"1015"	n/a	n/a	n/a	n/a	n/a	n/a	n/a	n/a	n/a
n/a	"image-keyboard-response"	"138"	"347795"	"0.0-5.0-2.0-1.42"	"z9kzht"	"600"	"1366"	"chrome"	"111.0.0"	"FALSE"	"Windows 10"	"60.13"	"046"	n/a	n/a	n/a	n/a	n/a	n/a	"Trial"	n/a	n/a	n/a	"519"	"arrowleft"	n/a	"NULL"	"NULL"	"NULL"	"stimuli/Ebbinghaus_0.61429_0.15857.png"	n/a	"Ebbinghaus"	"arrowleft"	"1032"	"TRUE"	"Ebbinghaus"	"0.6142900000"	"0.1585700000"	"1"	"61"
n/a	"html-keyboard-response"	"139"	"349289"	"0.0-5.0-2.0-0.43"	"z9kzht"	"600"	"1366"	"chrome"	"111.0.0"	"FALSE"	"Windows 10"	"60.13"	"046"	n/a	n/a	n/a	n/a	n/a	n/a	"fixation"	n/a	n/a	n/a	n/a	"NULL"	n/a	"NULL"	"NULL"	"NULL"	"<p style=\"color: black; font-size: 80px; padding-left: 44%; padding-right: 31%; padding-top: 2%; padding-bottom: 37%\">+</p>"	"1482"	n/a	n/a	n/a	n/a	n/a	n/a	n/a	n/a	n/a
n/a	"image-keyboard-response"	"140"	"349812"	"0.0-5.0-2.0-1.43"	"z9kzht"	"600"	"1366"	"chrome"	"111.0.0"	"FALSE"	"Windows 10"	"60.13"	"046"	n/a	n/a	n/a	n/a	n/a	n/a	"Trial"	n/a	n/a	n/a	"521"	"arrowleft"	n/a	"NULL"	"NULL"	"NULL"	"stimuli/Ebbinghaus_0.35714_0.28000.png"	n/a	"Ebbinghaus"	"arrowleft"	"1494"	"TRUE"	"Ebbinghaus"	"0.3571400000"	"0.2800000000"	"1"	"62"
n/a	"html-keyboard-response"	"141"	"351163"	"0.0-5.0-2.0-0.44"	"z9kzht"	"600"	"1366"	"chrome"	"111.0.0"	"FALSE"	"Windows 10"	"60.13"	"046"	n/a	n/a	n/a	n/a	n/a	n/a	"fixation"	n/a	n/a	n/a	n/a	"NULL"	n/a	"NULL"	"NULL"	"NULL"	"<p style=\"color: black; font-size: 80px; padding-left: 19%; padding-right: 38%; padding-top: 41%; padding-bottom: 13%\">+</p>"	"1344"	n/a	n/a	n/a	n/a	n/a	n/a	n/a	n/a	n/a
n/a	"image-keyboard-response"	"142"	"351798"	"0.0-5.0-2.0-1.44"	"z9kzht"	"600"	"1366"	"chrome"	"111.0.0"	"FALSE"	"Windows 10"	"60.13"	"046"	n/a	n/a	n/a	n/a	n/a	n/a	"Trial"	n/a	n/a	n/a	"634"	"arrowright"	n/a	"NULL"	"NULL"	"NULL"	"stimuli/Ebbinghaus_0.61429_0.11071.png"	n/a	"Ebbinghaus"	"arrowleft"	"1351"	"FALSE"	"Ebbinghaus"	"0.6142900000"	"0.1107100000"	"1"	"63"
n/a	"html-keyboard-response"	"143"	"352990"	"0.0-5.0-2.0-0.45"	"z9kzht"	"600"	"1366"	"chrome"	"111.0.0"	"FALSE"	"Windows 10"	"60.13"	"046"	n/a	n/a	n/a	n/a	n/a	n/a	"fixation"	n/a	n/a	n/a	n/a	"NULL"	n/a	"NULL"	"NULL"	"NULL"	"<p style=\"color: black; font-size: 80px; padding-left: 35%; padding-right: 13%; padding-top: 36%; padding-bottom: 13%\">+</p>"	"1187"	n/a	n/a	n/a	n/a	n/a	n/a	n/a	n/a	n/a
n/a	"image-keyboard-response"	"144"	"353537"	"0.0-5.0-2.0-1.45"	"z9kzht"	"600"	"1366"	"chrome"	"111.0.0"	"FALSE"	"Windows 10"	"60.13"	"046"	n/a	n/a	n/a	n/a	n/a	n/a	"Trial"	n/a	n/a	n/a	"546"	"arrowright"	n/a	"NULL"	"NULL"	"NULL"	"stimuli/Ebbinghaus_-0.87143_-0.15857.png"	n/a	"Ebbinghaus"	"arrowright"	"1192"	"TRUE"	"Ebbinghaus"	"-0.871430000"	"-0.158570000"	"1"	"64"
n/a	"html-keyboard-response"	"145"	"354886"	"0.0-5.0-2.0-0.46"	"z9kzht"	"600"	"1366"	"chrome"	"111.0.0"	"FALSE"	"Windows 10"	"60.13"	"046"	n/a	n/a	n/a	n/a	n/a	n/a	"fixation"	n/a	n/a	n/a	n/a	"NULL"	n/a	"NULL"	"NULL"	"NULL"	"<p style=\"color: black; font-size: 80px; padding-left: 50%; padding-right: 35%; padding-top: 26%; padding-bottom: 19%\">+</p>"	"1339"	n/a	n/a	n/a	n/a	n/a	n/a	n/a	n/a	n/a
n/a	"image-keyboard-response"	"146"	"355376"	"0.0-5.0-2.0-1.46"	"z9kzht"	"600"	"1366"	"chrome"	"111.0.0"	"FALSE"	"Windows 10"	"60.13"	"046"	n/a	n/a	n/a	n/a	n/a	n/a	"Trial"	n/a	n/a	n/a	"490"	"arrowleft"	n/a	"NULL"	"NULL"	"NULL"	"stimuli/Ebbinghaus_0.35714_0.21500.png"	n/a	"Ebbinghaus"	"arrowleft"	"1349"	"TRUE"	"Ebbinghaus"	"0.3571400000"	"0.2150000000"	"1"	"65"
n/a	"html-keyboard-response"	"147"	"356559"	"0.0-5.0-2.0-0.47"	"z9kzht"	"600"	"1366"	"chrome"	"111.0.0"	"FALSE"	"Windows 10"	"60.13"	"046"	n/a	n/a	n/a	n/a	n/a	n/a	"fixation"	n/a	n/a	n/a	n/a	"NULL"	n/a	"NULL"	"NULL"	"NULL"	"<p style=\"color: black; font-size: 80px; padding-left: 15%; padding-right: 2%; padding-top: 39%; padding-bottom: 16%\">+</p>"	"1180"	n/a	n/a	n/a	n/a	n/a	n/a	n/a	n/a	n/a
n/a	"image-keyboard-response"	"148"	"356850"	"0.0-5.0-2.0-1.47"	"z9kzht"	"600"	"1366"	"chrome"	"111.0.0"	"FALSE"	"Windows 10"	"60.13"	"046"	n/a	n/a	n/a	n/a	n/a	n/a	"Trial"	n/a	n/a	n/a	"291"	"arrowleft"	n/a	"NULL"	"NULL"	"NULL"	"stimuli/Ebbinghaus_-0.1000_0.28000.png"	n/a	"Ebbinghaus"	"arrowleft"	"1183"	"TRUE"	"Ebbinghaus"	"-0.100000000"	"0.2800000000"	"1"	"66"
n/a	"html-keyboard-response"	"149"	"358289"	"0.0-5.0-2.0-0.48"	"z9kzht"	"600"	"1366"	"chrome"	"111.0.0"	"FALSE"	"Windows 10"	"60.13"	"046"	n/a	n/a	n/a	n/a	n/a	n/a	"fixation"	n/a	n/a	n/a	n/a	"NULL"	n/a	"NULL"	"NULL"	"NULL"	"<p style=\"color: black; font-size: 80px; padding-left: 19%; padding-right: 3%; padding-top: 39%; padding-bottom: 15%\">+</p>"	"1433"	n/a	n/a	n/a	n/a	n/a	n/a	n/a	n/a	n/a
n/a	"image-keyboard-response"	"150"	"358865"	"0.0-5.0-2.0-1.48"	"z9kzht"	"600"	"1366"	"chrome"	"111.0.0"	"FALSE"	"Windows 10"	"60.13"	"046"	n/a	n/a	n/a	n/a	n/a	n/a	"Trial"	n/a	n/a	n/a	"576"	"arrowright"	n/a	"NULL"	"NULL"	"NULL"	"stimuli/Ebbinghaus_-0.61429_-0.2800.png"	n/a	"Ebbinghaus"	"arrowright"	"1439"	"TRUE"	"Ebbinghaus"	"-0.614290000"	"-0.280000000"	"1"	"67"
n/a	"html-keyboard-response"	"151"	"360114"	"0.0-5.0-2.0-0.49"	"z9kzht"	"600"	"1366"	"chrome"	"111.0.0"	"FALSE"	"Windows 10"	"60.13"	"046"	n/a	n/a	n/a	n/a	n/a	n/a	"fixation"	n/a	n/a	n/a	n/a	"NULL"	n/a	"NULL"	"NULL"	"NULL"	"<p style=\"color: black; font-size: 80px; padding-left: 16%; padding-right: 26%; padding-top: 33%; padding-bottom: 38%\">+</p>"	"1233"	n/a	n/a	n/a	n/a	n/a	n/a	n/a	n/a	n/a
n/a	"image-keyboard-response"	"152"	"360775"	"0.0-5.0-2.0-1.49"	"z9kzht"	"600"	"1366"	"chrome"	"111.0.0"	"FALSE"	"Windows 10"	"60.13"	"046"	n/a	n/a	n/a	n/a	n/a	n/a	"Trial"	n/a	n/a	n/a	"660"	"arrowright"	n/a	"NULL"	"NULL"	"NULL"	"stimuli/Ebbinghaus_-0.61429_-0.2150.png"	n/a	"Ebbinghaus"	"arrowright"	"1249"	"TRUE"	"Ebbinghaus"	"-0.614290000"	"-0.215000000"	"1"	"68"
n/a	"html-keyboard-response"	"153"	"362054"	"0.0-5.0-2.0-0.50"	"z9kzht"	"600"	"1366"	"chrome"	"111.0.0"	"FALSE"	"Windows 10"	"60.13"	"046"	n/a	n/a	n/a	n/a	n/a	n/a	"fixation"	n/a	n/a	n/a	n/a	"NULL"	n/a	"NULL"	"NULL"	"NULL"	"<p style=\"color: black; font-size: 80px; padding-left: 37%; padding-right: 9%; padding-top: 35%; padding-bottom: 46%\">+</p>"	"1268"	n/a	n/a	n/a	n/a	n/a	n/a	n/a	n/a	n/a
n/a	"image-keyboard-response"	"154"	"362591"	"0.0-5.0-2.0-1.50"	"z9kzht"	"600"	"1366"	"chrome"	"111.0.0"	"FALSE"	"Windows 10"	"60.13"	"046"	n/a	n/a	n/a	n/a	n/a	n/a	"Trial"	n/a	n/a	n/a	"536"	"arrowleft"	n/a	"NULL"	"NULL"	"NULL"	"stimuli/Ebbinghaus_0.87143_0.21500.png"	n/a	"Ebbinghaus"	"arrowleft"	"1279"	"TRUE"	"Ebbinghaus"	"0.8714300000"	"0.2150000000"	"1"	"69"
n/a	"html-keyboard-response"	"155"	"363927"	"0.0-5.0-2.0-0.51"	"z9kzht"	"600"	"1366"	"chrome"	"111.0.0"	"FALSE"	"Windows 10"	"60.13"	"046"	n/a	n/a	n/a	n/a	n/a	n/a	"fixation"	n/a	n/a	n/a	n/a	"NULL"	n/a	"NULL"	"NULL"	"NULL"	"<p style=\"color: black; font-size: 80px; padding-left: 33%; padding-right: 17%; padding-top: 28%; padding-bottom: 3%\">+</p>"	"1329"	n/a	n/a	n/a	n/a	n/a	n/a	n/a	n/a	n/a
n/a	"image-keyboard-response"	"156"	"364508"	"0.0-5.0-2.0-1.51"	"z9kzht"	"600"	"1366"	"chrome"	"111.0.0"	"FALSE"	"Windows 10"	"60.13"	"046"	n/a	n/a	n/a	n/a	n/a	n/a	"Trial"	n/a	n/a	n/a	"580"	"arrowright"	n/a	"NULL"	"NULL"	"NULL"	"stimuli/Ebbinghaus_0.61429_-0.11071.png"	n/a	"Ebbinghaus"	"arrowright"	"1336"	"TRUE"	"Ebbinghaus"	"0.6142900000"	"-0.110710000"	"1"	"70"
n/a	"html-keyboard-response"	"157"	"365722"	"0.0-5.0-2.0-0.52"	"z9kzht"	"600"	"1366"	"chrome"	"111.0.0"	"FALSE"	"Windows 10"	"60.13"	"046"	n/a	n/a	n/a	n/a	n/a	n/a	"fixation"	n/a	n/a	n/a	n/a	"NULL"	n/a	"NULL"	"NULL"	"NULL"	"<p style=\"color: black; font-size: 80px; padding-left: 10%; padding-right: 43%; padding-top: 14%; padding-bottom: 10%\">+</p>"	"1212"	n/a	n/a	n/a	n/a	n/a	n/a	n/a	n/a	n/a
n/a	"image-keyboard-response"	"158"	"366277"	"0.0-5.0-2.0-1.52"	"z9kzht"	"600"	"1366"	"chrome"	"111.0.0"	"FALSE"	"Windows 10"	"60.13"	"046"	n/a	n/a	n/a	n/a	n/a	n/a	"Trial"	n/a	n/a	n/a	"554"	"arrowleft"	n/a	"NULL"	"NULL"	"NULL"	"stimuli/Ebbinghaus_-0.1000_0.11071.png"	n/a	"Ebbinghaus"	"arrowleft"	"1214"	"TRUE"	"Ebbinghaus"	"-0.100000000"	"0.1107100000"	"1"	"71"
n/a	"html-keyboard-response"	"159"	"367325"	"0.0-5.0-2.0-0.53"	"z9kzht"	"600"	"1366"	"chrome"	"111.0.0"	"FALSE"	"Windows 10"	"60.13"	"046"	n/a	n/a	n/a	n/a	n/a	n/a	"fixation"	n/a	n/a	n/a	n/a	"NULL"	n/a	"NULL"	"NULL"	"NULL"	"<p style=\"color: black; font-size: 80px; padding-left: 25%; padding-right: 41%; padding-top: 15%; padding-bottom: 6%\">+</p>"	"1041"	n/a	n/a	n/a	n/a	n/a	n/a	n/a	n/a	n/a
n/a	"image-keyboard-response"	"160"	"367900"	"0.0-5.0-2.0-1.53"	"z9kzht"	"600"	"1366"	"chrome"	"111.0.0"	"FALSE"	"Windows 10"	"60.13"	"046"	n/a	n/a	n/a	n/a	n/a	n/a	"Trial"	n/a	n/a	n/a	"573"	"arrowleft"	n/a	"NULL"	"NULL"	"NULL"	"stimuli/Ebbinghaus_-0.87143_0.21500.png"	n/a	"Ebbinghaus"	"arrowleft"	"1048"	"TRUE"	"Ebbinghaus"	"-0.871430000"	"0.2150000000"	"1"	"72"
n/a	"html-keyboard-response"	"161"	"369070"	"0.0-5.0-2.0-0.54"	"z9kzht"	"600"	"1366"	"chrome"	"111.0.0"	"FALSE"	"Windows 10"	"60.13"	"046"	n/a	n/a	n/a	n/a	n/a	n/a	"fixation"	n/a	n/a	n/a	n/a	"NULL"	n/a	"NULL"	"NULL"	"NULL"	"<p style=\"color: black; font-size: 80px; padding-left: 12%; padding-right: 17%; padding-top: 7%; padding-bottom: 5%\">+</p>"	"1168"	n/a	n/a	n/a	n/a	n/a	n/a	n/a	n/a	n/a
n/a	"image-keyboard-response"	"162"	"369658"	"0.0-5.0-2.0-1.54"	"z9kzht"	"600"	"1366"	"chrome"	"111.0.0"	"FALSE"	"Windows 10"	"60.13"	"046"	n/a	n/a	n/a	n/a	n/a	n/a	"Trial"	n/a	n/a	n/a	"587"	"arrowleft"	n/a	"NULL"	"NULL"	"NULL"	"stimuli/Ebbinghaus_-0.61429_0.15857.png"	n/a	"Ebbinghaus"	"arrowleft"	"1170"	"TRUE"	"Ebbinghaus"	"-0.614290000"	"0.1585700000"	"1"	"73"
n/a	"html-keyboard-response"	"163"	"370918"	"0.0-5.0-2.0-0.55"	"z9kzht"	"600"	"1366"	"chrome"	"111.0.0"	"FALSE"	"Windows 10"	"60.13"	"046"	n/a	n/a	n/a	n/a	n/a	n/a	"fixation"	n/a	n/a	n/a	n/a	"NULL"	n/a	"NULL"	"NULL"	"NULL"	"<p style=\"color: black; font-size: 80px; padding-left: 13%; padding-right: 18%; padding-top: 26%; padding-bottom: 8%\">+</p>"	"1253"	n/a	n/a	n/a	n/a	n/a	n/a	n/a	n/a	n/a
n/a	"image-keyboard-response"	"164"	"371467"	"0.0-5.0-2.0-1.55"	"z9kzht"	"600"	"1366"	"chrome"	"111.0.0"	"FALSE"	"Windows 10"	"60.13"	"046"	n/a	n/a	n/a	n/a	n/a	n/a	"Trial"	n/a	n/a	n/a	"548"	"arrowright"	n/a	"NULL"	"NULL"	"NULL"	"stimuli/Ebbinghaus_-0.61429_-0.11071.png"	n/a	"Ebbinghaus"	"arrowright"	"1260"	"TRUE"	"Ebbinghaus"	"-0.614290000"	"-0.110710000"	"1"	"74"
n/a	"html-keyboard-response"	"165"	"372710"	"0.0-5.0-2.0-0.56"	"z9kzht"	"600"	"1366"	"chrome"	"111.0.0"	"FALSE"	"Windows 10"	"60.13"	"046"	n/a	n/a	n/a	n/a	n/a	n/a	"fixation"	n/a	n/a	n/a	n/a	"NULL"	n/a	"NULL"	"NULL"	"NULL"	"<p style=\"color: black; font-size: 80px; padding-left: 44%; padding-right: 21%; padding-top: 20%; padding-bottom: 29%\">+</p>"	"1236"	n/a	n/a	n/a	n/a	n/a	n/a	n/a	n/a	n/a
n/a	"image-keyboard-response"	"166"	"373386"	"0.0-5.0-2.0-1.56"	"z9kzht"	"600"	"1366"	"chrome"	"111.0.0"	"FALSE"	"Windows 10"	"60.13"	"046"	n/a	n/a	n/a	n/a	n/a	n/a	"Trial"	n/a	n/a	n/a	"675"	"arrowleft"	n/a	"NULL"	"NULL"	"NULL"	"stimuli/Ebbinghaus_0.87143_-0.15857.png"	n/a	"Ebbinghaus"	"arrowright"	"1243"	"FALSE"	"Ebbinghaus"	"0.8714300000"	"-0.158570000"	"1"	"75"
n/a	"html-keyboard-response"	"167"	"374647"	"0.0-5.0-2.0-0.57"	"z9kzht"	"600"	"1366"	"chrome"	"111.0.0"	"FALSE"	"Windows 10"	"60.13"	"046"	n/a	n/a	n/a	n/a	n/a	n/a	"fixation"	n/a	n/a	n/a	n/a	"NULL"	n/a	"NULL"	"NULL"	"NULL"	"<p style=\"color: black; font-size: 80px; padding-left: 4%; padding-right: 27%; padding-top: 14%; padding-bottom: 43%\">+</p>"	"1256"	n/a	n/a	n/a	n/a	n/a	n/a	n/a	n/a	n/a
n/a	"image-keyboard-response"	"168"	"375256"	"0.0-5.0-2.0-1.57"	"z9kzht"	"600"	"1366"	"chrome"	"111.0.0"	"FALSE"	"Windows 10"	"60.13"	"046"	n/a	n/a	n/a	n/a	n/a	n/a	"Trial"	n/a	n/a	n/a	"608"	"arrowright"	n/a	"NULL"	"NULL"	"NULL"	"stimuli/Ebbinghaus_-0.1000_-0.15857.png"	n/a	"Ebbinghaus"	"arrowright"	"1261"	"TRUE"	"Ebbinghaus"	"-0.100000000"	"-0.158570000"	"1"	"76"
n/a	"html-keyboard-response"	"169"	"376750"	"0.0-5.0-2.0-0.58"	"z9kzht"	"600"	"1366"	"chrome"	"111.0.0"	"FALSE"	"Windows 10"	"60.13"	"046"	n/a	n/a	n/a	n/a	n/a	n/a	"fixation"	n/a	n/a	n/a	n/a	"NULL"	n/a	"NULL"	"NULL"	"NULL"	"<p style=\"color: black; font-size: 80px; padding-left: 43%; padding-right: 15%; padding-top: 29%; padding-bottom: 26%\">+</p>"	"1492"	n/a	n/a	n/a	n/a	n/a	n/a	n/a	n/a	n/a
n/a	"image-keyboard-response"	"170"	"377256"	"0.0-5.0-2.0-1.58"	"z9kzht"	"600"	"1366"	"chrome"	"111.0.0"	"FALSE"	"Windows 10"	"60.13"	"046"	n/a	n/a	n/a	n/a	n/a	n/a	"Trial"	n/a	n/a	n/a	"505"	"arrowright"	n/a	"NULL"	"NULL"	"NULL"	"stimuli/Ebbinghaus_-0.35714_-0.2800.png"	n/a	"Ebbinghaus"	"arrowright"	"1494"	"TRUE"	"Ebbinghaus"	"-0.357140000"	"-0.280000000"	"1"	"77"
n/a	"html-keyboard-response"	"171"	"378561"	"0.0-5.0-2.0-0.59"	"z9kzht"	"600"	"1366"	"chrome"	"111.0.0"	"FALSE"	"Windows 10"	"60.13"	"046"	n/a	n/a	n/a	n/a	n/a	n/a	"fixation"	n/a	n/a	n/a	n/a	"NULL"	n/a	"NULL"	"NULL"	"NULL"	"<p style=\"color: black; font-size: 80px; padding-left: 4%; padding-right: 20%; padding-top: 12%; padding-bottom: 17%\">+</p>"	"1302"	n/a	n/a	n/a	n/a	n/a	n/a	n/a	n/a	n/a
n/a	"image-keyboard-response"	"172"	"379105"	"0.0-5.0-2.0-1.59"	"z9kzht"	"600"	"1366"	"chrome"	"111.0.0"	"FALSE"	"Windows 10"	"60.13"	"046"	n/a	n/a	n/a	n/a	n/a	n/a	"Trial"	n/a	n/a	n/a	"543"	"arrowright"	n/a	"NULL"	"NULL"	"NULL"	"stimuli/Ebbinghaus_0.10000_-0.15857.png"	n/a	"Ebbinghaus"	"arrowright"	"1305"	"TRUE"	"Ebbinghaus"	"0.1000000000"	"-0.158570000"	"1"	"78"
n/a	"html-keyboard-response"	"173"	"380178"	"0.0-5.0-2.0-0.60"	"z9kzht"	"600"	"1366"	"chrome"	"111.0.0"	"FALSE"	"Windows 10"	"60.13"	"046"	n/a	n/a	n/a	n/a	n/a	n/a	"fixation"	n/a	n/a	n/a	n/a	"NULL"	n/a	"NULL"	"NULL"	"NULL"	"<p style=\"color: black; font-size: 80px; padding-left: 28%; padding-right: 12%; padding-top: 44%; padding-bottom: 26%\">+</p>"	"1071"	n/a	n/a	n/a	n/a	n/a	n/a	n/a	n/a	n/a
n/a	"image-keyboard-response"	"174"	"380760"	"0.0-5.0-2.0-1.60"	"z9kzht"	"600"	"1366"	"chrome"	"111.0.0"	"FALSE"	"Windows 10"	"60.13"	"046"	n/a	n/a	n/a	n/a	n/a	n/a	"Trial"	n/a	n/a	n/a	"582"	"arrowleft"	n/a	"NULL"	"NULL"	"NULL"	"stimuli/Ebbinghaus_-0.87143_0.15857.png"	n/a	"Ebbinghaus"	"arrowleft"	"1073"	"TRUE"	"Ebbinghaus"	"-0.871430000"	"0.1585700000"	"1"	"79"
n/a	"html-keyboard-response"	"175"	"381878"	"0.0-5.0-2.0-0.61"	"z9kzht"	"600"	"1366"	"chrome"	"111.0.0"	"FALSE"	"Windows 10"	"60.13"	"046"	n/a	n/a	n/a	n/a	n/a	n/a	"fixation"	n/a	n/a	n/a	n/a	"NULL"	n/a	"NULL"	"NULL"	"NULL"	"<p style=\"color: black; font-size: 80px; padding-left: 48%; padding-right: 12%; padding-top: 12%; padding-bottom: 31%\">+</p>"	"1105"	n/a	n/a	n/a	n/a	n/a	n/a	n/a	n/a	n/a
n/a	"image-keyboard-response"	"176"	"382396"	"0.0-5.0-2.0-1.61"	"z9kzht"	"600"	"1366"	"chrome"	"111.0.0"	"FALSE"	"Windows 10"	"60.13"	"046"	n/a	n/a	n/a	n/a	n/a	n/a	"Trial"	n/a	n/a	n/a	"517"	"arrowright"	n/a	"NULL"	"NULL"	"NULL"	"stimuli/Ebbinghaus_-0.1000_-0.2150.png"	n/a	"Ebbinghaus"	"arrowright"	"1118"	"TRUE"	"Ebbinghaus"	"-0.100000000"	"-0.215000000"	"1"	"80"
n/a	"html-keyboard-response"	"177"	"383551"	"0.0-5.0-2.0-0.62"	"z9kzht"	"600"	"1366"	"chrome"	"111.0.0"	"FALSE"	"Windows 10"	"60.13"	"046"	n/a	n/a	n/a	n/a	n/a	n/a	"fixation"	n/a	n/a	n/a	n/a	"NULL"	n/a	"NULL"	"NULL"	"NULL"	"<p style=\"color: black; font-size: 80px; padding-left: 7%; padding-right: 45%; padding-top: 18%; padding-bottom: 6%\">+</p>"	"1153"	n/a	n/a	n/a	n/a	n/a	n/a	n/a	n/a	n/a
n/a	"image-keyboard-response"	"178"	"384156"	"0.0-5.0-2.0-1.62"	"z9kzht"	"600"	"1366"	"chrome"	"111.0.0"	"FALSE"	"Windows 10"	"60.13"	"046"	n/a	n/a	n/a	n/a	n/a	n/a	"Trial"	n/a	n/a	n/a	"603"	"arrowright"	n/a	"NULL"	"NULL"	"NULL"	"stimuli/Ebbinghaus_0.35714_-0.11071.png"	n/a	"Ebbinghaus"	"arrowright"	"1155"	"TRUE"	"Ebbinghaus"	"0.3571400000"	"-0.110710000"	"1"	"81"
n/a	"html-keyboard-response"	"179"	"385459"	"0.0-5.0-2.0-0.63"	"z9kzht"	"600"	"1366"	"chrome"	"111.0.0"	"FALSE"	"Windows 10"	"60.13"	"046"	n/a	n/a	n/a	n/a	n/a	n/a	"fixation"	n/a	n/a	n/a	n/a	"NULL"	n/a	"NULL"	"NULL"	"NULL"	"<p style=\"color: black; font-size: 80px; padding-left: 18%; padding-right: 3%; padding-top: 12%; padding-bottom: 12%\">+</p>"	"1288"	n/a	n/a	n/a	n/a	n/a	n/a	n/a	n/a	n/a
n/a	"image-keyboard-response"	"180"	"386283"	"0.0-5.0-2.0-1.63"	"z9kzht"	"600"	"1366"	"chrome"	"111.0.0"	"FALSE"	"Windows 10"	"60.13"	"046"	n/a	n/a	n/a	n/a	n/a	n/a	"Trial"	n/a	n/a	n/a	"822"	"arrowright"	n/a	"NULL"	"NULL"	"NULL"	"stimuli/Ebbinghaus_-0.61429_-0.15857.png"	n/a	"Ebbinghaus"	"arrowright"	"1303"	"TRUE"	"Ebbinghaus"	"-0.614290000"	"-0.158570000"	"1"	"82"
n/a	"html-button-response"	"181"	"390518"	"0.0-5.0-3.0"	"z9kzht"	"600"	"1366"	"chrome"	"111.0.0"	"FALSE"	"Windows 10"	"60.13"	"046"	n/a	n/a	n/a	n/a	n/a	n/a	"block_results"	n/a	n/a	n/a	"4233"	"0"	n/a	"NULL"	"NULL"	"NULL"	"<p>Your score for this illusion is <p style=\"color: black; font-size: 48px; font-weight: bold;\">77.9 %</p><hr><p>Can you do better in the next illusion?</p>"	n/a	n/a	n/a	n/a	n/a	n/a	n/a	n/a	n/a	n/a
"TRUE"	"preload"	"182"	"390701"	"0.0-6.0-0.0"	"z9kzht"	"600"	"1366"	"chrome"	"111.0.0"	"FALSE"	"Windows 10"	"60.13"	"046"	n/a	n/a	n/a	n/a	n/a	n/a	n/a	n/a	n/a	n/a	n/a	"NULL"	"FALSE"	"list()"	"list()"	"list()"	n/a	n/a	n/a	n/a	n/a	n/a	n/a	n/a	n/a	n/a	n/a
n/a	"html-keyboard-response"	"183"	"404281"	"0.0-6.0-1.0"	"z9kzht"	"600"	"1366"	"chrome"	"111.0.0"	"FALSE"	"Windows 10"	"60.13"	"046"	n/a	n/a	n/a	n/a	n/a	n/a	n/a	n/a	n/a	n/a	"13580"	"enter"	n/a	"NULL"	"NULL"	"NULL"	"<p><b>Part 2/6</b></p><p>In this part, two red lines will appear side by side.</p><p>Your task is to tell <b>which line is longer</b> in length, regardless of their orientation, as fast as you can, and without making errors.</p><p>Don't get distracted by the orientation of the lines!</p><p>Press <b>the LEFT or the RIGHT arrow</b> to indicate which <b>line is the longer one.</b></p><div style='float: center'><img src='materials/instructions/VerticalHorizontal_Demo.png' height='300'></img><p><img src='utils/answer/answer_leftright_keyboard.PNG' height='150'></img></p><p class='small'>In this example, the correct answer is the <b>LEFT arrow</b>.</p></div><p>Are you ready? <b>Press ENTER to start</b></p>"	n/a	n/a	n/a	n/a	n/a	n/a	n/a	n/a	n/a	n/a
n/a	"html-keyboard-response"	"184"	"406293"	"0.0-6.0-2.0-0.0"	"z9kzht"	"600"	"1366"	"chrome"	"111.0.0"	"FALSE"	"Windows 10"	"60.13"	"046"	n/a	n/a	n/a	n/a	n/a	n/a	"fixation"	n/a	n/a	n/a	n/a	"NULL"	n/a	"NULL"	"NULL"	"NULL"	"<p style=\"color: black; font-size: 80px; padding-left: 33%; padding-right: 45%; padding-top: 12%; padding-bottom: 1%\">+</p>"	"1497"	n/a	n/a	n/a	n/a	n/a	n/a	n/a	n/a	n/a
n/a	"image-keyboard-response"	"185"	"406825"	"0.0-6.0-2.0-1.0"	"z9kzht"	"600"	"1366"	"chrome"	"111.0.0"	"FALSE"	"Windows 10"	"60.13"	"046"	n/a	n/a	n/a	n/a	n/a	n/a	"Trial"	n/a	n/a	n/a	"531"	"arrowright"	n/a	"NULL"	"NULL"	"NULL"	"stimuli/VerticalHorizontal_3.30000_-0.2250.png"	n/a	"VerticalHorizontal"	"arrowright"	"2012"	"TRUE"	"VerticalHorizontal"	"3.3000000000"	"-0.225000000"	"2"	"1"
n/a	"html-keyboard-response"	"186"	"407979"	"0.0-6.0-2.0-0.1"	"z9kzht"	"600"	"1366"	"chrome"	"111.0.0"	"FALSE"	"Windows 10"	"60.13"	"046"	n/a	n/a	n/a	n/a	n/a	n/a	"fixation"	n/a	n/a	n/a	n/a	"NULL"	n/a	"NULL"	"NULL"	"NULL"	"<p style=\"color: black; font-size: 80px; padding-left: 14%; padding-right: 3%; padding-top: 16%; padding-bottom: 40%\">+</p>"	"1149"	n/a	n/a	n/a	n/a	n/a	n/a	n/a	n/a	n/a
n/a	"image-keyboard-response"	"187"	"408638"	"0.0-6.0-2.0-1.1"	"z9kzht"	"600"	"1366"	"chrome"	"111.0.0"	"FALSE"	"Windows 10"	"60.13"	"046"	n/a	n/a	n/a	n/a	n/a	n/a	"Trial"	n/a	n/a	n/a	"658"	"arrowleft"	n/a	"NULL"	"NULL"	"NULL"	"stimuli/VerticalHorizontal_20.27143_0.06730.png"	n/a	"VerticalHorizontal"	"arrowleft"	"1154"	"TRUE"	"VerticalHorizontal"	"20.271430000"	"0.0673000000"	"2"	"2"
n/a	"html-keyboard-response"	"188"	"410118"	"0.0-6.0-2.0-0.2"	"z9kzht"	"600"	"1366"	"chrome"	"111.0.0"	"FALSE"	"Windows 10"	"60.13"	"046"	n/a	n/a	n/a	n/a	n/a	n/a	"fixation"	n/a	n/a	n/a	n/a	"NULL"	n/a	"NULL"	"NULL"	"NULL"	"<p style=\"color: black; font-size: 80px; padding-left: 26%; padding-right: 31%; padding-top: 34%; padding-bottom: 6%\">+</p>"	"1477"	n/a	n/a	n/a	n/a	n/a	n/a	n/a	n/a	n/a
n/a	"image-keyboard-response"	"189"	"410734"	"0.0-6.0-2.0-1.2"	"z9kzht"	"600"	"1366"	"chrome"	"111.0.0"	"FALSE"	"Windows 10"	"60.13"	"046"	n/a	n/a	n/a	n/a	n/a	n/a	"Trial"	n/a	n/a	n/a	"616"	"arrowleft"	n/a	"NULL"	"NULL"	"NULL"	"stimuli/VerticalHorizontal_-28.75714_0.22500.png"	n/a	"VerticalHorizontal"	"arrowleft"	"1480"	"TRUE"	"VerticalHorizontal"	"-28.75714000"	"0.2250000000"	"2"	"3"
n/a	"html-keyboard-response"	"190"	"412206"	"0.0-6.0-2.0-0.3"	"z9kzht"	"600"	"1366"	"chrome"	"111.0.0"	"FALSE"	"Windows 10"	"60.13"	"046"	n/a	n/a	n/a	n/a	n/a	n/a	"fixation"	n/a	n/a	n/a	n/a	"NULL"	n/a	"NULL"	"NULL"	"NULL"	"<p style=\"color: black; font-size: 80px; padding-left: 26%; padding-right: 13%; padding-top: 4%; padding-bottom: 20%\">+</p>"	"1469"	n/a	n/a	n/a	n/a	n/a	n/a	n/a	n/a	n/a
n/a	"image-keyboard-response"	"191"	"412831"	"0.0-6.0-2.0-1.3"	"z9kzht"	"600"	"1366"	"chrome"	"111.0.0"	"FALSE"	"Windows 10"	"60.13"	"046"	n/a	n/a	n/a	n/a	n/a	n/a	"Trial"	n/a	n/a	n/a	"624"	"arrowright"	n/a	"NULL"	"NULL"	"NULL"	"stimuli/VerticalHorizontal_-3.3000_-0.1096.png"	n/a	"VerticalHorizontal"	"arrowright"	"1472"	"TRUE"	"VerticalHorizontal"	"-3.300000000"	"-0.109600000"	"2"	"4"
n/a	"html-keyboard-response"	"192"	"414000"	"0.0-6.0-2.0-0.4"	"z9kzht"	"600"	"1366"	"chrome"	"111.0.0"	"FALSE"	"Windows 10"	"60.13"	"046"	n/a	n/a	n/a	n/a	n/a	n/a	"fixation"	n/a	n/a	n/a	n/a	"NULL"	n/a	"NULL"	"NULL"	"NULL"	"<p style=\"color: black; font-size: 80px; padding-left: 45%; padding-right: 30%; padding-top: 38%; padding-bottom: 14%\">+</p>"	"1157"	n/a	n/a	n/a	n/a	n/a	n/a	n/a	n/a	n/a
n/a	"image-keyboard-response"	"193"	"414476"	"0.0-6.0-2.0-1.4"	"z9kzht"	"600"	"1366"	"chrome"	"111.0.0"	"FALSE"	"Windows 10"	"60.13"	"046"	n/a	n/a	n/a	n/a	n/a	n/a	"Trial"	n/a	n/a	n/a	"475"	"arrowleft"	n/a	"NULL"	"NULL"	"NULL"	"stimuli/VerticalHorizontal_-28.75714_0.16217.png"	n/a	"VerticalHorizontal"	"arrowleft"	"1169"	"TRUE"	"VerticalHorizontal"	"-28.75714000"	"0.1621700000"	"2"	"5"
n/a	"html-keyboard-response"	"194"	"415515"	"0.0-6.0-2.0-0.5"	"z9kzht"	"600"	"1366"	"chrome"	"111.0.0"	"FALSE"	"Windows 10"	"60.13"	"046"	n/a	n/a	n/a	n/a	n/a	n/a	"fixation"	n/a	n/a	n/a	n/a	"NULL"	n/a	"NULL"	"NULL"	"NULL"	"<p style=\"color: black; font-size: 80px; padding-left: 24%; padding-right: 44%; padding-top: 40%; padding-bottom: 7%\">+</p>"	"1037"	n/a	n/a	n/a	n/a	n/a	n/a	n/a	n/a	n/a
n/a	"image-keyboard-response"	"195"	"416115"	"0.0-6.0-2.0-1.5"	"z9kzht"	"600"	"1366"	"chrome"	"111.0.0"	"FALSE"	"Windows 10"	"60.13"	"046"	n/a	n/a	n/a	n/a	n/a	n/a	"Trial"	n/a	n/a	n/a	"599"	"arrowleft"	n/a	"NULL"	"NULL"	"NULL"	"stimuli/VerticalHorizontal_-20.27143_0.22500.png"	n/a	"VerticalHorizontal"	"arrowleft"	"1039"	"TRUE"	"VerticalHorizontal"	"-20.27143000"	"0.2250000000"	"2"	"6"
n/a	"html-keyboard-response"	"196"	"417260"	"0.0-6.0-2.0-0.6"	"z9kzht"	"600"	"1366"	"chrome"	"111.0.0"	"FALSE"	"Windows 10"	"60.13"	"046"	n/a	n/a	n/a	n/a	n/a	n/a	"fixation"	n/a	n/a	n/a	n/a	"NULL"	n/a	"NULL"	"NULL"	"NULL"	"<p style=\"color: black; font-size: 80px; padding-left: 41%; padding-right: 38%; padding-top: 35%; padding-bottom: 16%\">+</p>"	"1141"	n/a	n/a	n/a	n/a	n/a	n/a	n/a	n/a	n/a
n/a	"image-keyboard-response"	"197"	"418065"	"0.0-6.0-2.0-1.6"	"z9kzht"	"600"	"1366"	"chrome"	"111.0.0"	"FALSE"	"Windows 10"	"60.13"	"046"	n/a	n/a	n/a	n/a	n/a	n/a	"Trial"	n/a	n/a	n/a	"805"	"arrowright"	n/a	"NULL"	"NULL"	"NULL"	"stimuli/VerticalHorizontal_3.30000_0.16217.png"	n/a	"VerticalHorizontal"	"arrowleft"	"1145"	"FALSE"	"VerticalHorizontal"	"3.3000000000"	"0.1621700000"	"2"	"7"
n/a	"html-keyboard-response"	"198"	"419316"	"0.0-6.0-2.0-0.7"	"z9kzht"	"600"	"1366"	"chrome"	"111.0.0"	"FALSE"	"Windows 10"	"60.13"	"046"	n/a	n/a	n/a	n/a	n/a	n/a	"fixation"	n/a	n/a	n/a	n/a	"NULL"	n/a	"NULL"	"NULL"	"NULL"	"<p style=\"color: black; font-size: 80px; padding-left: 17%; padding-right: 49%; padding-top: 14%; padding-bottom: 19%\">+</p>"	"1242"	n/a	n/a	n/a	n/a	n/a	n/a	n/a	n/a	n/a
n/a	"image-keyboard-response"	"199"	"419810"	"0.0-6.0-2.0-1.7"	"z9kzht"	"600"	"1366"	"chrome"	"111.0.0"	"FALSE"	"Windows 10"	"60.13"	"046"	n/a	n/a	n/a	n/a	n/a	n/a	"Trial"	n/a	n/a	n/a	"493"	"arrowright"	n/a	"NULL"	"NULL"	"NULL"	"stimuli/VerticalHorizontal_20.27143_-0.16217.png"	n/a	"VerticalHorizontal"	"arrowright"	"1251"	"TRUE"	"VerticalHorizontal"	"20.271430000"	"-0.162170000"	"2"	"8"
n/a	"html-keyboard-response"	"200"	"421195"	"0.0-6.0-2.0-0.8"	"z9kzht"	"600"	"1366"	"chrome"	"111.0.0"	"FALSE"	"Windows 10"	"60.13"	"046"	n/a	n/a	n/a	n/a	n/a	n/a	"fixation"	n/a	n/a	n/a	n/a	"NULL"	n/a	"NULL"	"NULL"	"NULL"	"<p style=\"color: black; font-size: 80px; padding-left: 30%; padding-right: 19%; padding-top: 47%; padding-bottom: 40%\">+</p>"	"1375"	n/a	n/a	n/a	n/a	n/a	n/a	n/a	n/a	n/a
n/a	"image-keyboard-response"	"201"	"422114"	"0.0-6.0-2.0-1.8"	"z9kzht"	"600"	"1366"	"chrome"	"111.0.0"	"FALSE"	"Windows 10"	"60.13"	"046"	n/a	n/a	n/a	n/a	n/a	n/a	"Trial"	n/a	n/a	n/a	"918"	"arrowright"	n/a	"NULL"	"NULL"	"NULL"	"stimuli/VerticalHorizontal_28.75714_-0.1096.png"	n/a	"VerticalHorizontal"	"arrowright"	"1385"	"TRUE"	"VerticalHorizontal"	"28.757140000"	"-0.109600000"	"2"	"9"
n/a	"html-keyboard-response"	"202"	"423154"	"0.0-6.0-2.0-0.9"	"z9kzht"	"600"	"1366"	"chrome"	"111.0.0"	"FALSE"	"Windows 10"	"60.13"	"046"	n/a	n/a	n/a	n/a	n/a	n/a	"fixation"	n/a	n/a	n/a	n/a	"NULL"	n/a	"NULL"	"NULL"	"NULL"	"<p style=\"color: black; font-size: 80px; padding-left: 28%; padding-right: 43%; padding-top: 49%; padding-bottom: 31%\">+</p>"	"1038"	n/a	n/a	n/a	n/a	n/a	n/a	n/a	n/a	n/a
n/a	"image-keyboard-response"	"203"	"423896"	"0.0-6.0-2.0-1.9"	"z9kzht"	"600"	"1366"	"chrome"	"111.0.0"	"FALSE"	"Windows 10"	"60.13"	"046"	n/a	n/a	n/a	n/a	n/a	n/a	"Trial"	n/a	n/a	n/a	"741"	"arrowleft"	n/a	"NULL"	"NULL"	"NULL"	"stimuli/VerticalHorizontal_-11.78571_-0.16217.png"	n/a	"VerticalHorizontal"	"arrowright"	"1040"	"FALSE"	"VerticalHorizontal"	"-11.78571000"	"-0.162170000"	"2"	"10"
n/a	"html-keyboard-response"	"204"	"424985"	"0.0-6.0-2.0-0.10"	"z9kzht"	"600"	"1366"	"chrome"	"111.0.0"	"FALSE"	"Windows 10"	"60.13"	"046"	n/a	n/a	n/a	n/a	n/a	n/a	"fixation"	n/a	n/a	n/a	n/a	"NULL"	n/a	"NULL"	"NULL"	"NULL"	"<p style=\"color: black; font-size: 80px; padding-left: 40%; padding-right: 36%; padding-top: 12%; padding-bottom: 36%\">+</p>"	"1079"	n/a	n/a	n/a	n/a	n/a	n/a	n/a	n/a	n/a
n/a	"image-keyboard-response"	"205"	"425630"	"0.0-6.0-2.0-1.10"	"z9kzht"	"600"	"1366"	"chrome"	"111.0.0"	"FALSE"	"Windows 10"	"60.13"	"046"	n/a	n/a	n/a	n/a	n/a	n/a	"Trial"	n/a	n/a	n/a	"644"	"arrowright"	n/a	"NULL"	"NULL"	"NULL"	"stimuli/VerticalHorizontal_-28.75714_-0.0673.png"	n/a	"VerticalHorizontal"	"arrowright"	"1089"	"TRUE"	"VerticalHorizontal"	"-28.75714000"	"-0.067300000"	"2"	"11"
n/a	"html-keyboard-response"	"206"	"426742"	"0.0-6.0-2.0-0.11"	"z9kzht"	"600"	"1366"	"chrome"	"111.0.0"	"FALSE"	"Windows 10"	"60.13"	"046"	n/a	n/a	n/a	n/a	n/a	n/a	"fixation"	n/a	n/a	n/a	n/a	"NULL"	n/a	"NULL"	"NULL"	"NULL"	"<p style=\"color: black; font-size: 80px; padding-left: 22%; padding-right: 12%; padding-top: 6%; padding-bottom: 46%\">+</p>"	"1099"	n/a	n/a	n/a	n/a	n/a	n/a	n/a	n/a	n/a
n/a	"image-keyboard-response"	"207"	"427433"	"0.0-6.0-2.0-1.11"	"z9kzht"	"600"	"1366"	"chrome"	"111.0.0"	"FALSE"	"Windows 10"	"60.13"	"046"	n/a	n/a	n/a	n/a	n/a	n/a	"Trial"	n/a	n/a	n/a	"690"	"arrowright"	n/a	"NULL"	"NULL"	"NULL"	"stimuli/VerticalHorizontal_20.27143_-0.2250.png"	n/a	"VerticalHorizontal"	"arrowright"	"1112"	"TRUE"	"VerticalHorizontal"	"20.271430000"	"-0.225000000"	"2"	"12"
n/a	"html-keyboard-response"	"208"	"428617"	"0.0-6.0-2.0-0.12"	"z9kzht"	"600"	"1366"	"chrome"	"111.0.0"	"FALSE"	"Windows 10"	"60.13"	"046"	n/a	n/a	n/a	n/a	n/a	n/a	"fixation"	n/a	n/a	n/a	n/a	"NULL"	n/a	"NULL"	"NULL"	"NULL"	"<p style=\"color: black; font-size: 80px; padding-left: 5%; padding-right: 19%; padding-top: 3%; padding-bottom: 46%\">+</p>"	"1172"	n/a	n/a	n/a	n/a	n/a	n/a	n/a	n/a	n/a
n/a	"image-keyboard-response"	"209"	"429491"	"0.0-6.0-2.0-1.12"	"z9kzht"	"600"	"1366"	"chrome"	"111.0.0"	"FALSE"	"Windows 10"	"60.13"	"046"	n/a	n/a	n/a	n/a	n/a	n/a	"Trial"	n/a	n/a	n/a	"874"	"arrowright"	n/a	"NULL"	"NULL"	"NULL"	"stimuli/VerticalHorizontal_-3.3000_0.10960.png"	n/a	"VerticalHorizontal"	"arrowleft"	"1184"	"FALSE"	"VerticalHorizontal"	"-3.300000000"	"0.1096000000"	"2"	"13"
n/a	"html-keyboard-response"	"210"	"430728"	"0.0-6.0-2.0-0.13"	"z9kzht"	"600"	"1366"	"chrome"	"111.0.0"	"FALSE"	"Windows 10"	"60.13"	"046"	n/a	n/a	n/a	n/a	n/a	n/a	"fixation"	n/a	n/a	n/a	n/a	"NULL"	n/a	"NULL"	"NULL"	"NULL"	"<p style=\"color: black; font-size: 80px; padding-left: 12%; padding-right: 12%; padding-top: 29%; padding-bottom: 22%\">+</p>"	"1221"	n/a	n/a	n/a	n/a	n/a	n/a	n/a	n/a	n/a
n/a	"image-keyboard-response"	"211"	"431863"	"0.0-6.0-2.0-1.13"	"z9kzht"	"600"	"1366"	"chrome"	"111.0.0"	"FALSE"	"Windows 10"	"60.13"	"046"	n/a	n/a	n/a	n/a	n/a	n/a	"Trial"	n/a	n/a	n/a	"1133"	"arrowright"	n/a	"NULL"	"NULL"	"NULL"	"stimuli/VerticalHorizontal_20.27143_-0.0673.png"	n/a	"VerticalHorizontal"	"arrowright"	"1237"	"TRUE"	"VerticalHorizontal"	"20.271430000"	"-0.067300000"	"2"	"14"
n/a	"html-keyboard-response"	"212"	"433287"	"0.0-6.0-2.0-0.14"	"z9kzht"	"600"	"1366"	"chrome"	"111.0.0"	"FALSE"	"Windows 10"	"60.13"	"046"	n/a	n/a	n/a	n/a	n/a	n/a	"fixation"	n/a	n/a	n/a	n/a	"NULL"	n/a	"NULL"	"NULL"	"NULL"	"<p style=\"color: black; font-size: 80px; padding-left: 25%; padding-right: 1%; padding-top: 35%; padding-bottom: 48%\">+</p>"	"1422"	n/a	n/a	n/a	n/a	n/a	n/a	n/a	n/a	n/a
n/a	"image-keyboard-response"	"213"	"434111"	"0.0-6.0-2.0-1.14"	"z9kzht"	"600"	"1366"	"chrome"	"111.0.0"	"FALSE"	"Windows 10"	"60.13"	"046"	n/a	n/a	n/a	n/a	n/a	n/a	"Trial"	n/a	n/a	n/a	"823"	"arrowright"	n/a	"NULL"	"NULL"	"NULL"	"stimuli/VerticalHorizontal_-11.78571_-0.0673.png"	n/a	"VerticalHorizontal"	"arrowright"	"1424"	"TRUE"	"VerticalHorizontal"	"-11.78571000"	"-0.067300000"	"2"	"15"
n/a	"html-keyboard-response"	"214"	"435138"	"0.0-6.0-2.0-0.15"	"z9kzht"	"600"	"1366"	"chrome"	"111.0.0"	"FALSE"	"Windows 10"	"60.13"	"046"	n/a	n/a	n/a	n/a	n/a	n/a	"fixation"	n/a	n/a	n/a	n/a	"NULL"	n/a	"NULL"	"NULL"	"NULL"	"<p style=\"color: black; font-size: 80px; padding-left: 35%; padding-right: 20%; padding-top: 8%; padding-bottom: 20%\">+</p>"	"1018"	n/a	n/a	n/a	n/a	n/a	n/a	n/a	n/a	n/a
n/a	"image-keyboard-response"	"215"	"435816"	"0.0-6.0-2.0-1.15"	"z9kzht"	"600"	"1366"	"chrome"	"111.0.0"	"FALSE"	"Windows 10"	"60.13"	"046"	n/a	n/a	n/a	n/a	n/a	n/a	"Trial"	n/a	n/a	n/a	"678"	"arrowleft"	n/a	"NULL"	"NULL"	"NULL"	"stimuli/VerticalHorizontal_20.27143_0.16217.png"	n/a	"VerticalHorizontal"	"arrowleft"	"1027"	"TRUE"	"VerticalHorizontal"	"20.271430000"	"0.1621700000"	"2"	"16"
n/a	"html-keyboard-response"	"216"	"437258"	"0.0-6.0-2.0-0.16"	"z9kzht"	"600"	"1366"	"chrome"	"111.0.0"	"FALSE"	"Windows 10"	"60.13"	"046"	n/a	n/a	n/a	n/a	n/a	n/a	"fixation"	n/a	n/a	n/a	n/a	"NULL"	n/a	"NULL"	"NULL"	"NULL"	"<p style=\"color: black; font-size: 80px; padding-left: 5%; padding-right: 18%; padding-top: 46%; padding-bottom: 11%\">+</p>"	"1435"	n/a	n/a	n/a	n/a	n/a	n/a	n/a	n/a	n/a
n/a	"image-keyboard-response"	"217"	"437959"	"0.0-6.0-2.0-1.16"	"z9kzht"	"600"	"1366"	"chrome"	"111.0.0"	"FALSE"	"Windows 10"	"60.13"	"046"	n/a	n/a	n/a	n/a	n/a	n/a	"Trial"	n/a	n/a	n/a	"701"	"arrowleft"	n/a	"NULL"	"NULL"	"NULL"	"stimuli/VerticalHorizontal_-11.78571_0.22500.png"	n/a	"VerticalHorizontal"	"arrowleft"	"1442"	"TRUE"	"VerticalHorizontal"	"-11.78571000"	"0.2250000000"	"2"	"17"
n/a	"html-keyboard-response"	"218"	"439052"	"0.0-6.0-2.0-0.17"	"z9kzht"	"600"	"1366"	"chrome"	"111.0.0"	"FALSE"	"Windows 10"	"60.13"	"046"	n/a	n/a	n/a	n/a	n/a	n/a	"fixation"	n/a	n/a	n/a	n/a	"NULL"	n/a	"NULL"	"NULL"	"NULL"	"<p style=\"color: black; font-size: 80px; padding-left: 38%; padding-right: 48%; padding-top: 16%; padding-bottom: 22%\">+</p>"	"1091"	n/a	n/a	n/a	n/a	n/a	n/a	n/a	n/a	n/a
n/a	"image-keyboard-response"	"219"	"439931"	"0.0-6.0-2.0-1.17"	"z9kzht"	"600"	"1366"	"chrome"	"111.0.0"	"FALSE"	"Windows 10"	"60.13"	"046"	n/a	n/a	n/a	n/a	n/a	n/a	"Trial"	n/a	n/a	n/a	"878"	"arrowright"	n/a	"NULL"	"NULL"	"NULL"	"stimuli/VerticalHorizontal_-3.3000_0.06730.png"	n/a	"VerticalHorizontal"	"arrowleft"	"1093"	"FALSE"	"VerticalHorizontal"	"-3.300000000"	"0.0673000000"	"2"	"18"
n/a	"html-keyboard-response"	"220"	"441365"	"0.0-6.0-2.0-0.18"	"z9kzht"	"600"	"1366"	"chrome"	"111.0.0"	"FALSE"	"Windows 10"	"60.13"	"046"	n/a	n/a	n/a	n/a	n/a	n/a	"fixation"	n/a	n/a	n/a	n/a	"NULL"	n/a	"NULL"	"NULL"	"NULL"	"<p style=\"color: black; font-size: 80px; padding-left: 16%; padding-right: 5%; padding-top: 1%; padding-bottom: 26%\">+</p>"	"1418"	n/a	n/a	n/a	n/a	n/a	n/a	n/a	n/a	n/a
n/a	"image-keyboard-response"	"221"	"441883"	"0.0-6.0-2.0-1.18"	"z9kzht"	"600"	"1366"	"chrome"	"111.0.0"	"FALSE"	"Windows 10"	"60.13"	"046"	n/a	n/a	n/a	n/a	n/a	n/a	"Trial"	n/a	n/a	n/a	"517"	"arrowright"	n/a	"NULL"	"NULL"	"NULL"	"stimuli/VerticalHorizontal_-28.75714_-0.2250.png"	n/a	"VerticalHorizontal"	"arrowright"	"1434"	"TRUE"	"VerticalHorizontal"	"-28.75714000"	"-0.225000000"	"2"	"19"
n/a	"html-keyboard-response"	"222"	"443002"	"0.0-6.0-2.0-0.19"	"z9kzht"	"600"	"1366"	"chrome"	"111.0.0"	"FALSE"	"Windows 10"	"60.13"	"046"	n/a	n/a	n/a	n/a	n/a	n/a	"fixation"	n/a	n/a	n/a	n/a	"NULL"	n/a	"NULL"	"NULL"	"NULL"	"<p style=\"color: black; font-size: 80px; padding-left: 0%; padding-right: 42%; padding-top: 17%; padding-bottom: 14%\">+</p>"	"1115"	n/a	n/a	n/a	n/a	n/a	n/a	n/a	n/a	n/a
n/a	"image-keyboard-response"	"223"	"444288"	"0.0-6.0-2.0-1.19"	"z9kzht"	"600"	"1366"	"chrome"	"111.0.0"	"FALSE"	"Windows 10"	"60.13"	"046"	n/a	n/a	n/a	n/a	n/a	n/a	"Trial"	n/a	n/a	n/a	"1286"	"arrowleft"	n/a	"NULL"	"NULL"	"NULL"	"stimuli/VerticalHorizontal_3.30000_0.06730.png"	n/a	"VerticalHorizontal"	"arrowleft"	"1119"	"TRUE"	"VerticalHorizontal"	"3.3000000000"	"0.0673000000"	"2"	"20"
n/a	"html-keyboard-response"	"224"	"445301"	"0.0-6.0-2.0-0.20"	"z9kzht"	"600"	"1366"	"chrome"	"111.0.0"	"FALSE"	"Windows 10"	"60.13"	"046"	n/a	n/a	n/a	n/a	n/a	n/a	"fixation"	n/a	n/a	n/a	n/a	"NULL"	n/a	"NULL"	"NULL"	"NULL"	"<p style=\"color: black; font-size: 80px; padding-left: 19%; padding-right: 12%; padding-top: 17%; padding-bottom: 29%\">+</p>"	"1005"	n/a	n/a	n/a	n/a	n/a	n/a	n/a	n/a	n/a
n/a	"image-keyboard-response"	"225"	"446272"	"0.0-6.0-2.0-1.20"	"z9kzht"	"600"	"1366"	"chrome"	"111.0.0"	"FALSE"	"Windows 10"	"60.13"	"046"	n/a	n/a	n/a	n/a	n/a	n/a	"Trial"	n/a	n/a	n/a	"970"	"arrowleft"	n/a	"NULL"	"NULL"	"NULL"	"stimuli/VerticalHorizontal_20.27143_0.22500.png"	n/a	"VerticalHorizontal"	"arrowleft"	"1013"	"TRUE"	"VerticalHorizontal"	"20.271430000"	"0.2250000000"	"2"	"21"
n/a	"html-keyboard-response"	"226"	"447640"	"0.0-6.0-2.0-0.21"	"z9kzht"	"600"	"1366"	"chrome"	"111.0.0"	"FALSE"	"Windows 10"	"60.13"	"046"	n/a	n/a	n/a	n/a	n/a	n/a	"fixation"	n/a	n/a	n/a	n/a	"NULL"	n/a	"NULL"	"NULL"	"NULL"	"<p style=\"color: black; font-size: 80px; padding-left: 6%; padding-right: 28%; padding-top: 19%; padding-bottom: 34%\">+</p>"	"1367"	n/a	n/a	n/a	n/a	n/a	n/a	n/a	n/a	n/a
n/a	"image-keyboard-response"	"227"	"448659"	"0.0-6.0-2.0-1.21"	"z9kzht"	"600"	"1366"	"chrome"	"111.0.0"	"FALSE"	"Windows 10"	"60.13"	"046"	n/a	n/a	n/a	n/a	n/a	n/a	"Trial"	n/a	n/a	n/a	"1018"	"arrowright"	n/a	"NULL"	"NULL"	"NULL"	"stimuli/VerticalHorizontal_-20.27143_0.06730.png"	n/a	"VerticalHorizontal"	"arrowleft"	"1368"	"FALSE"	"VerticalHorizontal"	"-20.27143000"	"0.0673000000"	"2"	"22"
n/a	"html-keyboard-response"	"228"	"449736"	"0.0-6.0-2.0-0.22"	"z9kzht"	"600"	"1366"	"chrome"	"111.0.0"	"FALSE"	"Windows 10"	"60.13"	"046"	n/a	n/a	n/a	n/a	n/a	n/a	"fixation"	n/a	n/a	n/a	n/a	"NULL"	n/a	"NULL"	"NULL"	"NULL"	"<p style=\"color: black; font-size: 80px; padding-left: 49%; padding-right: 8%; padding-top: 28%; padding-bottom: 12%\">+</p>"	"1062"	n/a	n/a	n/a	n/a	n/a	n/a	n/a	n/a	n/a
n/a	"image-keyboard-response"	"229"	"450866"	"0.0-6.0-2.0-1.22"	"z9kzht"	"600"	"1366"	"chrome"	"111.0.0"	"FALSE"	"Windows 10"	"60.13"	"046"	n/a	n/a	n/a	n/a	n/a	n/a	"Trial"	n/a	n/a	n/a	"1129"	"arrowleft"	n/a	"NULL"	"NULL"	"NULL"	"stimuli/VerticalHorizontal_11.78571_0.22500.png"	n/a	"VerticalHorizontal"	"arrowleft"	"1077"	"TRUE"	"VerticalHorizontal"	"11.785710000"	"0.2250000000"	"2"	"23"
n/a	"html-keyboard-response"	"230"	"452282"	"0.0-6.0-2.0-0.23"	"z9kzht"	"600"	"1366"	"chrome"	"111.0.0"	"FALSE"	"Windows 10"	"60.13"	"046"	n/a	n/a	n/a	n/a	n/a	n/a	"fixation"	n/a	n/a	n/a	n/a	"NULL"	n/a	"NULL"	"NULL"	"NULL"	"<p style=\"color: black; font-size: 80px; padding-left: 42%; padding-right: 48%; padding-top: 14%; padding-bottom: 41%\">+</p>"	"1400"	n/a	n/a	n/a	n/a	n/a	n/a	n/a	n/a	n/a
n/a	"image-keyboard-response"	"231"	"453070"	"0.0-6.0-2.0-1.23"	"z9kzht"	"600"	"1366"	"chrome"	"111.0.0"	"FALSE"	"Windows 10"	"60.13"	"046"	n/a	n/a	n/a	n/a	n/a	n/a	"Trial"	n/a	n/a	n/a	"788"	"arrowleft"	n/a	"NULL"	"NULL"	"NULL"	"stimuli/VerticalHorizontal_28.75714_0.22500.png"	n/a	"VerticalHorizontal"	"arrowleft"	"1416"	"TRUE"	"VerticalHorizontal"	"28.757140000"	"0.2250000000"	"2"	"24"
n/a	"html-keyboard-response"	"232"	"454258"	"0.0-6.0-2.0-0.24"	"z9kzht"	"600"	"1366"	"chrome"	"111.0.0"	"FALSE"	"Windows 10"	"60.13"	"046"	n/a	n/a	n/a	n/a	n/a	n/a	"fixation"	n/a	n/a	n/a	n/a	"NULL"	n/a	"NULL"	"NULL"	"NULL"	"<p style=\"color: black; font-size: 80px; padding-left: 28%; padding-right: 28%; padding-top: 41%; padding-bottom: 6%\">+</p>"	"1182"	n/a	n/a	n/a	n/a	n/a	n/a	n/a	n/a	n/a
n/a	"image-keyboard-response"	"233"	"454817"	"0.0-6.0-2.0-1.24"	"z9kzht"	"600"	"1366"	"chrome"	"111.0.0"	"FALSE"	"Windows 10"	"60.13"	"046"	n/a	n/a	n/a	n/a	n/a	n/a	"Trial"	n/a	n/a	n/a	"558"	"arrowright"	n/a	"NULL"	"NULL"	"NULL"	"stimuli/VerticalHorizontal_11.78571_-0.0673.png"	n/a	"VerticalHorizontal"	"arrowright"	"1188"	"TRUE"	"VerticalHorizontal"	"11.785710000"	"-0.067300000"	"2"	"25"
n/a	"html-keyboard-response"	"234"	"456030"	"0.0-6.0-2.0-0.25"	"z9kzht"	"600"	"1366"	"chrome"	"111.0.0"	"FALSE"	"Windows 10"	"60.13"	"046"	n/a	n/a	n/a	n/a	n/a	n/a	"fixation"	n/a	n/a	n/a	n/a	"NULL"	n/a	"NULL"	"NULL"	"NULL"	"<p style=\"color: black; font-size: 80px; padding-left: 8%; padding-right: 21%; padding-top: 9%; padding-bottom: 18%\">+</p>"	"1200"	n/a	n/a	n/a	n/a	n/a	n/a	n/a	n/a	n/a
n/a	"image-keyboard-response"	"235"	"456909"	"0.0-6.0-2.0-1.25"	"z9kzht"	"600"	"1366"	"chrome"	"111.0.0"	"FALSE"	"Windows 10"	"60.13"	"046"	n/a	n/a	n/a	n/a	n/a	n/a	"Trial"	n/a	n/a	n/a	"878"	"arrowleft"	n/a	"NULL"	"NULL"	"NULL"	"stimuli/VerticalHorizontal_28.75714_-0.0673.png"	n/a	"VerticalHorizontal"	"arrowright"	"1213"	"FALSE"	"VerticalHorizontal"	"28.757140000"	"-0.067300000"	"2"	"26"
n/a	"html-keyboard-response"	"236"	"458156"	"0.0-6.0-2.0-0.26"	"z9kzht"	"600"	"1366"	"chrome"	"111.0.0"	"FALSE"	"Windows 10"	"60.13"	"046"	n/a	n/a	n/a	n/a	n/a	n/a	"fixation"	n/a	n/a	n/a	n/a	"NULL"	n/a	"NULL"	"NULL"	"NULL"	"<p style=\"color: black; font-size: 80px; padding-left: 35%; padding-right: 3%; padding-top: 40%; padding-bottom: 33%\">+</p>"	"1242"	n/a	n/a	n/a	n/a	n/a	n/a	n/a	n/a	n/a
n/a	"image-keyboard-response"	"237"	"459270"	"0.0-6.0-2.0-1.26"	"z9kzht"	"600"	"1366"	"chrome"	"111.0.0"	"FALSE"	"Windows 10"	"60.13"	"046"	n/a	n/a	n/a	n/a	n/a	n/a	"Trial"	n/a	n/a	n/a	"1114"	"arrowleft"	n/a	"NULL"	"NULL"	"NULL"	"stimuli/VerticalHorizontal_20.27143_0.10960.png"	n/a	"VerticalHorizontal"	"arrowleft"	"1247"	"TRUE"	"VerticalHorizontal"	"20.271430000"	"0.1096000000"	"2"	"27"
n/a	"html-keyboard-response"	"238"	"460438"	"0.0-6.0-2.0-0.27"	"z9kzht"	"600"	"1366"	"chrome"	"111.0.0"	"FALSE"	"Windows 10"	"60.13"	"046"	n/a	n/a	n/a	n/a	n/a	n/a	"fixation"	n/a	n/a	n/a	n/a	"NULL"	n/a	"NULL"	"NULL"	"NULL"	"<p style=\"color: black; font-size: 80px; padding-left: 41%; padding-right: 32%; padding-top: 37%; padding-bottom: 46%\">+</p>"	"1152"	n/a	n/a	n/a	n/a	n/a	n/a	n/a	n/a	n/a
n/a	"image-keyboard-response"	"239"	"461177"	"0.0-6.0-2.0-1.27"	"z9kzht"	"600"	"1366"	"chrome"	"111.0.0"	"FALSE"	"Windows 10"	"60.13"	"046"	n/a	n/a	n/a	n/a	n/a	n/a	"Trial"	n/a	n/a	n/a	"738"	"arrowright"	n/a	"NULL"	"NULL"	"NULL"	"stimuli/VerticalHorizontal_20.27143_-0.1096.png"	n/a	"VerticalHorizontal"	"arrowright"	"1168"	"TRUE"	"VerticalHorizontal"	"20.271430000"	"-0.109600000"	"2"	"28"
n/a	"html-keyboard-response"	"240"	"462515"	"0.0-6.0-2.0-0.28"	"z9kzht"	"600"	"1366"	"chrome"	"111.0.0"	"FALSE"	"Windows 10"	"60.13"	"046"	n/a	n/a	n/a	n/a	n/a	n/a	"fixation"	n/a	n/a	n/a	n/a	"NULL"	n/a	"NULL"	"NULL"	"NULL"	"<p style=\"color: black; font-size: 80px; padding-left: 0%; padding-right: 26%; padding-top: 1%; padding-bottom: 25%\">+</p>"	"1335"	n/a	n/a	n/a	n/a	n/a	n/a	n/a	n/a	n/a
n/a	"image-keyboard-response"	"241"	"463582"	"0.0-6.0-2.0-1.28"	"z9kzht"	"600"	"1366"	"chrome"	"111.0.0"	"FALSE"	"Windows 10"	"60.13"	"046"	n/a	n/a	n/a	n/a	n/a	n/a	"Trial"	n/a	n/a	n/a	"1067"	"arrowleft"	n/a	"NULL"	"NULL"	"NULL"	"stimuli/VerticalHorizontal_-3.3000_0.16217.png"	n/a	"VerticalHorizontal"	"arrowleft"	"1338"	"TRUE"	"VerticalHorizontal"	"-3.300000000"	"0.1621700000"	"2"	"29"
n/a	"html-keyboard-response"	"242"	"464818"	"0.0-6.0-2.0-0.29"	"z9kzht"	"600"	"1366"	"chrome"	"111.0.0"	"FALSE"	"Windows 10"	"60.13"	"046"	n/a	n/a	n/a	n/a	n/a	n/a	"fixation"	n/a	n/a	n/a	n/a	"NULL"	n/a	"NULL"	"NULL"	"NULL"	"<p style=\"color: black; font-size: 80px; padding-left: 49%; padding-right: 11%; padding-top: 1%; padding-bottom: 3%\">+</p>"	"1221"	n/a	n/a	n/a	n/a	n/a	n/a	n/a	n/a	n/a
n/a	"image-keyboard-response"	"243"	"465342"	"0.0-6.0-2.0-1.29"	"z9kzht"	"600"	"1366"	"chrome"	"111.0.0"	"FALSE"	"Windows 10"	"60.13"	"046"	n/a	n/a	n/a	n/a	n/a	n/a	"Trial"	n/a	n/a	n/a	"523"	"arrowright"	n/a	"NULL"	"NULL"	"NULL"	"stimuli/VerticalHorizontal_11.78571_-0.2250.png"	n/a	"VerticalHorizontal"	"arrowright"	"1236"	"TRUE"	"VerticalHorizontal"	"11.785710000"	"-0.225000000"	"2"	"30"
n/a	"html-keyboard-response"	"244"	"466759"	"0.0-6.0-2.0-0.30"	"z9kzht"	"600"	"1366"	"chrome"	"111.0.0"	"FALSE"	"Windows 10"	"60.13"	"046"	n/a	n/a	n/a	n/a	n/a	n/a	"fixation"	n/a	n/a	n/a	n/a	"NULL"	n/a	"NULL"	"NULL"	"NULL"	"<p style=\"color: black; font-size: 80px; padding-left: 37%; padding-right: 37%; padding-top: 7%; padding-bottom: 5%\">+</p>"	"1403"	n/a	n/a	n/a	n/a	n/a	n/a	n/a	n/a	n/a
n/a	"image-keyboard-response"	"245"	"467510"	"0.0-6.0-2.0-1.30"	"z9kzht"	"600"	"1366"	"chrome"	"111.0.0"	"FALSE"	"Windows 10"	"60.13"	"046"	n/a	n/a	n/a	n/a	n/a	n/a	"Trial"	n/a	n/a	n/a	"750"	"arrowleft"	n/a	"NULL"	"NULL"	"NULL"	"stimuli/VerticalHorizontal_-20.27143_-0.0673.png"	n/a	"VerticalHorizontal"	"arrowright"	"1417"	"FALSE"	"VerticalHorizontal"	"-20.27143000"	"-0.067300000"	"2"	"31"
n/a	"html-keyboard-response"	"246"	"468978"	"0.0-6.0-2.0-0.31"	"z9kzht"	"600"	"1366"	"chrome"	"111.0.0"	"FALSE"	"Windows 10"	"60.13"	"046"	n/a	n/a	n/a	n/a	n/a	n/a	"fixation"	n/a	n/a	n/a	n/a	"NULL"	n/a	"NULL"	"NULL"	"NULL"	"<p style=\"color: black; font-size: 80px; padding-left: 42%; padding-right: 33%; padding-top: 26%; padding-bottom: 3%\">+</p>"	"1458"	n/a	n/a	n/a	n/a	n/a	n/a	n/a	n/a	n/a
n/a	"image-keyboard-response"	"247"	"469548"	"0.0-6.0-2.0-1.31"	"z9kzht"	"600"	"1366"	"chrome"	"111.0.0"	"FALSE"	"Windows 10"	"60.13"	"046"	n/a	n/a	n/a	n/a	n/a	n/a	"Trial"	n/a	n/a	n/a	"569"	"arrowright"	n/a	"NULL"	"NULL"	"NULL"	"stimuli/VerticalHorizontal_-20.27143_-0.2250.png"	n/a	"VerticalHorizontal"	"arrowright"	"1468"	"TRUE"	"VerticalHorizontal"	"-20.27143000"	"-0.225000000"	"2"	"32"
n/a	"html-keyboard-response"	"248"	"470992"	"0.0-6.0-2.0-0.32"	"z9kzht"	"600"	"1366"	"chrome"	"111.0.0"	"FALSE"	"Windows 10"	"60.13"	"046"	n/a	n/a	n/a	n/a	n/a	n/a	"fixation"	n/a	n/a	n/a	n/a	"NULL"	n/a	"NULL"	"NULL"	"NULL"	"<p style=\"color: black; font-size: 80px; padding-left: 17%; padding-right: 37%; padding-top: 36%; padding-bottom: 18%\">+</p>"	"1436"	n/a	n/a	n/a	n/a	n/a	n/a	n/a	n/a	n/a
n/a	"image-keyboard-response"	"249"	"471715"	"0.0-6.0-2.0-1.32"	"z9kzht"	"600"	"1366"	"chrome"	"111.0.0"	"FALSE"	"Windows 10"	"60.13"	"046"	n/a	n/a	n/a	n/a	n/a	n/a	"Trial"	n/a	n/a	n/a	"723"	"arrowright"	n/a	"NULL"	"NULL"	"NULL"	"stimuli/VerticalHorizontal_-3.3000_-0.0673.png"	n/a	"VerticalHorizontal"	"arrowright"	"1444"	"TRUE"	"VerticalHorizontal"	"-3.300000000"	"-0.067300000"	"2"	"33"
n/a	"html-keyboard-response"	"250"	"473148"	"0.0-6.0-2.0-0.33"	"z9kzht"	"600"	"1366"	"chrome"	"111.0.0"	"FALSE"	"Windows 10"	"60.13"	"046"	n/a	n/a	n/a	n/a	n/a	n/a	"fixation"	n/a	n/a	n/a	n/a	"NULL"	n/a	"NULL"	"NULL"	"NULL"	"<p style=\"color: black; font-size: 80px; padding-left: 12%; padding-right: 18%; padding-top: 15%; padding-bottom: 44%\">+</p>"	"1417"	n/a	n/a	n/a	n/a	n/a	n/a	n/a	n/a	n/a
