"success"	"trial_type"	"trial_index"	"time_elapsed"	"internal_node_id"	"participant_id"	"screen_height"	"screen_width"	"browser"	"browser_version"	"mobile"	"os"	"vsync_rate"	"subject_id"	"width"	"height"	"webaudio"	"fullscreen"	"webcam"	"microphone"	"screen"	"version"	"date"	"time"	"rt"	"response"	"timeout"	"failed_images"	"failed_audio"	"failed_video"	"stimulus"	"trial_duration"	"block"	"correct_response"	"prestimulus_duration"	"correct"	"type"	"illusion_strength"	"illusion_difference"	"block_number"	"trial_number"
"TRUE"	"fullscreen"	"0"	"1749"	"0.0-0.0"	"2x5zxf"	"600"	"1366"	"chrome"	"111.0.0"	"FALSE"	"Windows 10"	"60.48"	"055"	n/a	n/a	n/a	n/a	n/a	n/a	n/a	n/a	n/a	n/a	n/a	"NULL"	n/a	"NULL"	"NULL"	"NULL"	n/a	n/a	n/a	n/a	n/a	n/a	n/a	n/a	n/a	n/a	n/a
n/a	"browser-check"	"1"	"2751"	"0.0-1.0"	"2x5zxf"	"600"	"1366"	"chrome"	"111.0.0"	"FALSE"	"Windows 10"	"60.48"	"055"	"1366"	"600"	"TRUE"	"TRUE"	"TRUE"	"TRUE"	"browser_info"	"1.0"	"22/03/2023"	"14:40:23"	n/a	"NULL"	n/a	"NULL"	"NULL"	"NULL"	n/a	n/a	n/a	n/a	n/a	n/a	n/a	n/a	n/a	n/a	n/a
n/a	"survey-text"	"2"	"5732"	"0.0-2.0"	"2x5zxf"	"600"	"1366"	"chrome"	"111.0.0"	"FALSE"	"Windows 10"	"60.48"	"055"	n/a	n/a	n/a	n/a	n/a	n/a	"subject_id"	n/a	n/a	n/a	"2977"	"list(subject_id = \"055\")"	n/a	"NULL"	"NULL"	"NULL"	n/a	n/a	n/a	n/a	n/a	n/a	n/a	n/a	n/a	n/a	n/a
"TRUE"	"preload"	"3"	"5745"	"0.0-3.0"	"2x5zxf"	"600"	"1366"	"chrome"	"111.0.0"	"FALSE"	"Windows 10"	"60.48"	"055"	n/a	n/a	n/a	n/a	n/a	n/a	n/a	n/a	n/a	n/a	n/a	"NULL"	"FALSE"	"list()"	"list()"	"list()"	n/a	n/a	n/a	n/a	n/a	n/a	n/a	n/a	n/a	n/a	n/a
n/a	"html-button-response"	"4"	"36867"	"0.0-4.0-0.0"	"2x5zxf"	"600"	"1366"	"chrome"	"111.0.0"	"FALSE"	"Windows 10"	"60.48"	"055"	n/a	n/a	n/a	n/a	n/a	n/a	"illusion_instructions"	n/a	n/a	n/a	"31121"	"0"	n/a	"NULL"	"NULL"	"NULL"	"<p><b>Illusion Game</b></p><p>In this game of speed and reflex, you will need to make <b>visual judgments</b> (for instance, which circle is the biggest, or which line is the longest), as fast and as correctly as possible, while <b>resisting different visual illusions</b>.</p><p>We are going to start with some examples of all the illusions you will encounter in the game.</p>"	n/a	n/a	n/a	n/a	n/a	n/a	n/a	n/a	n/a	n/a
"TRUE"	"preload"	"5"	"36891"	"0.0-4.0-1.0-0.0"	"2x5zxf"	"600"	"1366"	"chrome"	"111.0.0"	"FALSE"	"Windows 10"	"60.48"	"055"	n/a	n/a	n/a	n/a	n/a	n/a	n/a	n/a	n/a	n/a	n/a	"NULL"	"FALSE"	"list()"	"list()"	"list()"	n/a	n/a	n/a	n/a	n/a	n/a	n/a	n/a	n/a	n/a	n/a
n/a	"html-keyboard-response"	"6"	"65805"	"0.0-4.0-1.0-1.0"	"2x5zxf"	"600"	"1366"	"chrome"	"111.0.0"	"FALSE"	"Windows 10"	"60.48"	"055"	n/a	n/a	n/a	n/a	n/a	n/a	n/a	n/a	n/a	n/a	"28913"	"enter"	n/a	"NULL"	"NULL"	"NULL"	"<p><b>Practice</b></p><p>In this part, two red circles will appear side by side on the screen.</p><p>Your task is to select which <b>red circle is bigger</b> in size as fast as you can, without making errors.</p><p>Don't get distracted by the surrounding black circles around the red circles!</p><p>Press <b>the LEFT or the RIGHT arrow</b> to indicate which is the bigger <b>red circle.</b></p><div style='float: center'><img src='materials/instructions/Ebbinghaus_Demo.png' height='300'></img><p><img src='utils/answer/answer_leftright_keyboard.PNG' height='150'></img></p><p class='small'>In this example, the correct answer is the <b>LEFT arrow</b>.</p></div><p>Are you ready? <b>Press ENTER to start</b></p>"	n/a	n/a	n/a	n/a	n/a	n/a	n/a	n/a	n/a	n/a
n/a	"html-keyboard-response"	"7"	"67808"	"0.0-4.0-1.0-2.0-0.0"	"2x5zxf"	"600"	"1366"	"chrome"	"111.0.0"	"FALSE"	"Windows 10"	"60.48"	"055"	n/a	n/a	n/a	n/a	n/a	n/a	"fixation"	n/a	n/a	n/a	n/a	"NULL"	n/a	"NULL"	"NULL"	"NULL"	"<p style=\"color: black; font-size: 80px; padding-left: 17%; padding-right: 44%; padding-top: 38%; padding-bottom: 49%\">+</p>"	"1498"	n/a	n/a	n/a	n/a	n/a	n/a	n/a	n/a	n/a
n/a	"image-keyboard-response"	"8"	"68709"	"0.0-4.0-1.0-2.0-1.0"	"2x5zxf"	"600"	"1366"	"chrome"	"111.0.0"	"FALSE"	"Windows 10"	"60.48"	"055"	n/a	n/a	n/a	n/a	n/a	n/a	"Trial"	n/a	n/a	n/a	"887"	"arrowright"	n/a	"NULL"	"NULL"	"NULL"	"stimuli/Ebbinghaus_0000000_-1.4000.png"	n/a	"Ebbinghaus"	"arrowright"	"2003"	"TRUE"	"Ebbinghaus"	"000000000000"	"-1.400000000"	"1"	"1"
n/a	"html-keyboard-response"	"9"	"70161"	"0.0-4.0-1.0-2.0-0.1"	"2x5zxf"	"600"	"1366"	"chrome"	"111.0.0"	"FALSE"	"Windows 10"	"60.48"	"055"	n/a	n/a	n/a	n/a	n/a	n/a	"fixation"	n/a	n/a	n/a	n/a	"NULL"	n/a	"NULL"	"NULL"	"NULL"	"<p style=\"color: black; font-size: 80px; padding-left: 48%; padding-right: 50%; padding-top: 18%; padding-bottom: 1%\">+</p>"	"1450"	n/a	n/a	n/a	n/a	n/a	n/a	n/a	n/a	n/a
n/a	"image-keyboard-response"	"10"	"70632"	"0.0-4.0-1.0-2.0-1.1"	"2x5zxf"	"600"	"1366"	"chrome"	"111.0.0"	"FALSE"	"Windows 10"	"60.48"	"055"	n/a	n/a	n/a	n/a	n/a	n/a	"Trial"	n/a	n/a	n/a	"470"	"arrowleft"	n/a	"NULL"	"NULL"	"NULL"	"stimuli/Ebbinghaus_1000000_1.40000.png"	n/a	"Ebbinghaus"	"arrowleft"	"1452"	"TRUE"	"Ebbinghaus"	"100000000000"	"1.4000000000"	"1"	"2"
n/a	"html-keyboard-response"	"11"	"71821"	"0.0-4.0-1.0-2.0-0.2"	"2x5zxf"	"600"	"1366"	"chrome"	"111.0.0"	"FALSE"	"Windows 10"	"60.48"	"055"	n/a	n/a	n/a	n/a	n/a	n/a	"fixation"	n/a	n/a	n/a	n/a	"NULL"	n/a	"NULL"	"NULL"	"NULL"	"<p style=\"color: black; font-size: 80px; padding-left: 31%; padding-right: 44%; padding-top: 21%; padding-bottom: 14%\">+</p>"	"1173"	n/a	n/a	n/a	n/a	n/a	n/a	n/a	n/a	n/a
n/a	"image-keyboard-response"	"12"	"72172"	"0.0-4.0-1.0-2.0-1.2"	"2x5zxf"	"600"	"1366"	"chrome"	"111.0.0"	"FALSE"	"Windows 10"	"60.48"	"055"	n/a	n/a	n/a	n/a	n/a	n/a	"Trial"	n/a	n/a	n/a	"350"	"arrowleft"	n/a	"NULL"	"NULL"	"NULL"	"stimuli/Ebbinghaus_0000000_1.40000.png"	n/a	"Ebbinghaus"	"arrowleft"	"1189"	"TRUE"	"Ebbinghaus"	"000000000000"	"1.4000000000"	"1"	"3"
n/a	"html-keyboard-response"	"13"	"73199"	"0.0-4.0-1.0-2.0-0.3"	"2x5zxf"	"600"	"1366"	"chrome"	"111.0.0"	"FALSE"	"Windows 10"	"60.48"	"055"	n/a	n/a	n/a	n/a	n/a	n/a	"fixation"	n/a	n/a	n/a	n/a	"NULL"	n/a	"NULL"	"NULL"	"NULL"	"<p style=\"color: black; font-size: 80px; padding-left: 47%; padding-right: 29%; padding-top: 22%; padding-bottom: 5%\">+</p>"	"1016"	n/a	n/a	n/a	n/a	n/a	n/a	n/a	n/a	n/a
n/a	"image-keyboard-response"	"14"	"73613"	"0.0-4.0-1.0-2.0-1.3"	"2x5zxf"	"600"	"1366"	"chrome"	"111.0.0"	"FALSE"	"Windows 10"	"60.48"	"055"	n/a	n/a	n/a	n/a	n/a	n/a	"Trial"	n/a	n/a	n/a	"413"	"arrowright"	n/a	"NULL"	"NULL"	"NULL"	"stimuli/Ebbinghaus_1000000_-1.4000.png"	n/a	"Ebbinghaus"	"arrowright"	"1027"	"TRUE"	"Ebbinghaus"	"100000000000"	"-1.400000000"	"1"	"4"
n/a	"html-keyboard-response"	"15"	"74844"	"0.0-4.0-1.0-2.0-0.4"	"2x5zxf"	"600"	"1366"	"chrome"	"111.0.0"	"FALSE"	"Windows 10"	"60.48"	"055"	n/a	n/a	n/a	n/a	n/a	n/a	"fixation"	n/a	n/a	n/a	n/a	"NULL"	n/a	"NULL"	"NULL"	"NULL"	"<p style=\"color: black; font-size: 80px; padding-left: 40%; padding-right: 38%; padding-top: 14%; padding-bottom: 48%\">+</p>"	"1219"	n/a	n/a	n/a	n/a	n/a	n/a	n/a	n/a	n/a
n/a	"image-keyboard-response"	"16"	"75220"	"0.0-4.0-1.0-2.0-1.4"	"2x5zxf"	"600"	"1366"	"chrome"	"111.0.0"	"FALSE"	"Windows 10"	"60.48"	"055"	n/a	n/a	n/a	n/a	n/a	n/a	"Trial"	n/a	n/a	n/a	"376"	"arrowright"	n/a	"NULL"	"NULL"	"NULL"	"stimuli/Ebbinghaus_-100000_-1.4000.png"	n/a	"Ebbinghaus"	"arrowright"	"1231"	"TRUE"	"Ebbinghaus"	"-10000000000"	"-1.400000000"	"1"	"5"
n/a	"html-keyboard-response"	"17"	"76464"	"0.0-4.0-1.0-2.0-0.5"	"2x5zxf"	"600"	"1366"	"chrome"	"111.0.0"	"FALSE"	"Windows 10"	"60.48"	"055"	n/a	n/a	n/a	n/a	n/a	n/a	"fixation"	n/a	n/a	n/a	n/a	"NULL"	n/a	"NULL"	"NULL"	"NULL"	"<p style=\"color: black; font-size: 80px; padding-left: 11%; padding-right: 19%; padding-top: 15%; padding-bottom: 12%\">+</p>"	"1239"	n/a	n/a	n/a	n/a	n/a	n/a	n/a	n/a	n/a
n/a	"image-keyboard-response"	"18"	"76909"	"0.0-4.0-1.0-2.0-1.5"	"2x5zxf"	"600"	"1366"	"chrome"	"111.0.0"	"FALSE"	"Windows 10"	"60.48"	"055"	n/a	n/a	n/a	n/a	n/a	n/a	"Trial"	n/a	n/a	n/a	"444"	"arrowleft"	n/a	"NULL"	"NULL"	"NULL"	"stimuli/Ebbinghaus_-100000_1.40000.png"	n/a	"Ebbinghaus"	"arrowleft"	"1244"	"TRUE"	"Ebbinghaus"	"-10000000000"	"1.4000000000"	"1"	"6"
n/a	"html-button-response"	"19"	"79569"	"0.0-4.0-1.0-3.0"	"2x5zxf"	"600"	"1366"	"chrome"	"111.0.0"	"FALSE"	"Windows 10"	"60.48"	"055"	n/a	n/a	n/a	n/a	n/a	n/a	"practice_block_results"	n/a	n/a	n/a	"2658"	"0"	n/a	"NULL"	"NULL"	"NULL"	"<p style='color:rgb(76,175,80);'> Correct Responses: <b>100.00%</b></p><hr><p style='color:rgb(233,30,99);'> Average Response Time: <b>490.00</b> ms.</p>"	n/a	n/a	n/a	n/a	n/a	n/a	n/a	n/a	n/a	n/a
"TRUE"	"preload"	"20"	"80103"	"0.0-4.0-2.0-0.0"	"2x5zxf"	"600"	"1366"	"chrome"	"111.0.0"	"FALSE"	"Windows 10"	"60.48"	"055"	n/a	n/a	n/a	n/a	n/a	n/a	n/a	n/a	n/a	n/a	n/a	"NULL"	"FALSE"	"list()"	"list()"	"list()"	n/a	n/a	n/a	n/a	n/a	n/a	n/a	n/a	n/a	n/a	n/a
n/a	"html-keyboard-response"	"21"	"85533"	"0.0-4.0-2.0-1.0"	"2x5zxf"	"600"	"1366"	"chrome"	"111.0.0"	"FALSE"	"Windows 10"	"60.48"	"055"	n/a	n/a	n/a	n/a	n/a	n/a	n/a	n/a	n/a	n/a	"5428"	"enter"	n/a	"NULL"	"NULL"	"NULL"	"<p><b>Practice</b></p><p>In this part, two horizontal red lines will appear one above the other.</p><p>Your task is to select which <b>line is longer</b> in length as fast as you can, without making errors.</p><p>Don't get distracted by the surrounding black arrows at the end of the red lines!</p><p>Press <b>the UP or the DOWN arrow</b> to indicate where is the longer <b>red line.</b></p><div style='float: center'><img src='materials/instructions/MullerLyer_Demo.png' height='300'></img><p><img src='utils/answer/answer_updown_keyboard.PNG' height='150'></img></p><p class='small'>In this example, the correct answer is the <b>UP arrow</b>.</p></div><p>Are you ready? <b>Press ENTER to start</b></p>"	n/a	n/a	n/a	n/a	n/a	n/a	n/a	n/a	n/a	n/a
n/a	"html-keyboard-response"	"22"	"87204"	"0.0-4.0-2.0-2.0-0.0"	"2x5zxf"	"600"	"1366"	"chrome"	"111.0.0"	"FALSE"	"Windows 10"	"60.48"	"055"	n/a	n/a	n/a	n/a	n/a	n/a	"fixation"	n/a	n/a	n/a	n/a	"NULL"	n/a	"NULL"	"NULL"	"NULL"	"<p style=\"color: black; font-size: 80px; padding-left: 29%; padding-right: 13%; padding-top: 10%; padding-bottom: 31%\">+</p>"	"1151"	n/a	n/a	n/a	n/a	n/a	n/a	n/a	n/a	n/a
n/a	"image-keyboard-response"	"23"	"88362"	"0.0-4.0-2.0-2.0-1.0"	"2x5zxf"	"600"	"1366"	"chrome"	"111.0.0"	"FALSE"	"Windows 10"	"60.48"	"055"	n/a	n/a	n/a	n/a	n/a	n/a	"Trial"	n/a	n/a	n/a	"1157"	"arrowdown"	n/a	"NULL"	"NULL"	"NULL"	"stimuli/MullerLyer_0000000_-0.7000.png"	n/a	"MullerLyer"	"arrowdown"	"1671"	"TRUE"	"MullerLyer"	"000000000000"	"-0.700000000"	"1"	"7"
n/a	"html-keyboard-response"	"24"	"89792"	"0.0-4.0-2.0-2.0-0.1"	"2x5zxf"	"600"	"1366"	"chrome"	"111.0.0"	"FALSE"	"Windows 10"	"60.48"	"055"	n/a	n/a	n/a	n/a	n/a	n/a	"fixation"	n/a	n/a	n/a	n/a	"NULL"	n/a	"NULL"	"NULL"	"NULL"	"<p style=\"color: black; font-size: 80px; padding-left: 16%; padding-right: 26%; padding-top: 4%; padding-bottom: 39%\">+</p>"	"1421"	n/a	n/a	n/a	n/a	n/a	n/a	n/a	n/a	n/a
n/a	"image-keyboard-response"	"25"	"90379"	"0.0-4.0-2.0-2.0-1.1"	"2x5zxf"	"600"	"1366"	"chrome"	"111.0.0"	"FALSE"	"Windows 10"	"60.48"	"055"	n/a	n/a	n/a	n/a	n/a	n/a	"Trial"	n/a	n/a	n/a	"586"	"arrowup"	n/a	"NULL"	"NULL"	"NULL"	"stimuli/MullerLyer_0000000_0.70000.png"	n/a	"MullerLyer"	"arrowup"	"1430"	"TRUE"	"MullerLyer"	"000000000000"	"0.7000000000"	"1"	"8"
n/a	"html-keyboard-response"	"26"	"91871"	"0.0-4.0-2.0-2.0-0.2"	"2x5zxf"	"600"	"1366"	"chrome"	"111.0.0"	"FALSE"	"Windows 10"	"60.48"	"055"	n/a	n/a	n/a	n/a	n/a	n/a	"fixation"	n/a	n/a	n/a	n/a	"NULL"	n/a	"NULL"	"NULL"	"NULL"	"<p style=\"color: black; font-size: 80px; padding-left: 15%; padding-right: 38%; padding-top: 30%; padding-bottom: 20%\">+</p>"	"1489"	n/a	n/a	n/a	n/a	n/a	n/a	n/a	n/a	n/a
n/a	"image-keyboard-response"	"27"	"92290"	"0.0-4.0-2.0-2.0-1.2"	"2x5zxf"	"600"	"1366"	"chrome"	"111.0.0"	"FALSE"	"Windows 10"	"60.48"	"055"	n/a	n/a	n/a	n/a	n/a	n/a	"Trial"	n/a	n/a	n/a	"418"	"arrowup"	n/a	"NULL"	"NULL"	"NULL"	"stimuli/MullerLyer_-230000_0.70000.png"	n/a	"MullerLyer"	"arrowup"	"1492"	"TRUE"	"MullerLyer"	"-23000000000"	"0.7000000000"	"1"	"9"
n/a	"html-keyboard-response"	"28"	"93517"	"0.0-4.0-2.0-2.0-0.3"	"2x5zxf"	"600"	"1366"	"chrome"	"111.0.0"	"FALSE"	"Windows 10"	"60.48"	"055"	n/a	n/a	n/a	n/a	n/a	n/a	"fixation"	n/a	n/a	n/a	n/a	"NULL"	n/a	"NULL"	"NULL"	"NULL"	"<p style=\"color: black; font-size: 80px; padding-left: 32%; padding-right: 3%; padding-top: 29%; padding-bottom: 14%\">+</p>"	"1216"	n/a	n/a	n/a	n/a	n/a	n/a	n/a	n/a	n/a
n/a	"image-keyboard-response"	"29"	"94098"	"0.0-4.0-2.0-2.0-1.3"	"2x5zxf"	"600"	"1366"	"chrome"	"111.0.0"	"FALSE"	"Windows 10"	"60.48"	"055"	n/a	n/a	n/a	n/a	n/a	n/a	"Trial"	n/a	n/a	n/a	"581"	"arrowdown"	n/a	"NULL"	"NULL"	"NULL"	"stimuli/MullerLyer_2300000_-0.7000.png"	n/a	"MullerLyer"	"arrowdown"	"1227"	"TRUE"	"MullerLyer"	"230000000000"	"-0.700000000"	"1"	"10"
n/a	"html-keyboard-response"	"30"	"95181"	"0.0-4.0-2.0-2.0-0.4"	"2x5zxf"	"600"	"1366"	"chrome"	"111.0.0"	"FALSE"	"Windows 10"	"60.48"	"055"	n/a	n/a	n/a	n/a	n/a	n/a	"fixation"	n/a	n/a	n/a	n/a	"NULL"	n/a	"NULL"	"NULL"	"NULL"	"<p style=\"color: black; font-size: 80px; padding-left: 50%; padding-right: 16%; padding-top: 12%; padding-bottom: 32%\">+</p>"	"1080"	n/a	n/a	n/a	n/a	n/a	n/a	n/a	n/a	n/a
n/a	"image-keyboard-response"	"31"	"95725"	"0.0-4.0-2.0-2.0-1.4"	"2x5zxf"	"600"	"1366"	"chrome"	"111.0.0"	"FALSE"	"Windows 10"	"60.48"	"055"	n/a	n/a	n/a	n/a	n/a	n/a	"Trial"	n/a	n/a	n/a	"543"	"arrowup"	n/a	"NULL"	"NULL"	"NULL"	"stimuli/MullerLyer_2300000_0.70000.png"	n/a	"MullerLyer"	"arrowup"	"1083"	"TRUE"	"MullerLyer"	"230000000000"	"0.7000000000"	"1"	"11"
n/a	"html-keyboard-response"	"32"	"96743"	"0.0-4.0-2.0-2.0-0.5"	"2x5zxf"	"600"	"1366"	"chrome"	"111.0.0"	"FALSE"	"Windows 10"	"60.48"	"055"	n/a	n/a	n/a	n/a	n/a	n/a	"fixation"	n/a	n/a	n/a	n/a	"NULL"	n/a	"NULL"	"NULL"	"NULL"	"<p style=\"color: black; font-size: 80px; padding-left: 27%; padding-right: 15%; padding-top: 2%; padding-bottom: 37%\">+</p>"	"1016"	n/a	n/a	n/a	n/a	n/a	n/a	n/a	n/a	n/a
n/a	"image-keyboard-response"	"33"	"97223"	"0.0-4.0-2.0-2.0-1.5"	"2x5zxf"	"600"	"1366"	"chrome"	"111.0.0"	"FALSE"	"Windows 10"	"60.48"	"055"	n/a	n/a	n/a	n/a	n/a	n/a	"Trial"	n/a	n/a	n/a	"478"	"arrowdown"	n/a	"NULL"	"NULL"	"NULL"	"stimuli/MullerLyer_-230000_-0.7000.png"	n/a	"MullerLyer"	"arrowdown"	"1018"	"TRUE"	"MullerLyer"	"-23000000000"	"-0.700000000"	"1"	"12"
n/a	"html-button-response"	"34"	"99210"	"0.0-4.0-2.0-3.0"	"2x5zxf"	"600"	"1366"	"chrome"	"111.0.0"	"FALSE"	"Windows 10"	"60.48"	"055"	n/a	n/a	n/a	n/a	n/a	n/a	"practice_block_results"	n/a	n/a	n/a	"1987"	"0"	n/a	"NULL"	"NULL"	"NULL"	"<p style='color:rgb(76,175,80);'> Correct Responses: <b>100.00%</b></p><hr><p style='color:rgb(233,30,99);'> Average Response Time: <b>627.17</b> ms.</p>"	n/a	n/a	n/a	n/a	n/a	n/a	n/a	n/a	n/a	n/a
"TRUE"	"preload"	"35"	"99731"	"0.0-4.0-3.0-0.0"	"2x5zxf"	"600"	"1366"	"chrome"	"111.0.0"	"FALSE"	"Windows 10"	"60.48"	"055"	n/a	n/a	n/a	n/a	n/a	n/a	n/a	n/a	n/a	n/a	n/a	"NULL"	"FALSE"	"list()"	"list()"	"list()"	n/a	n/a	n/a	n/a	n/a	n/a	n/a	n/a	n/a	n/a	n/a
n/a	"html-keyboard-response"	"36"	"103323"	"0.0-4.0-3.0-1.0"	"2x5zxf"	"600"	"1366"	"chrome"	"111.0.0"	"FALSE"	"Windows 10"	"60.48"	"055"	n/a	n/a	n/a	n/a	n/a	n/a	n/a	n/a	n/a	n/a	"3591"	"enter"	n/a	"NULL"	"NULL"	"NULL"	"<p><b>Practice</b></p><p>In this part, two red lines will appear side by side.</p><p>Your task is to tell <b>which line is longer</b> in length, regardless of their orientation, as fast as you can, and without making errors.</p><p>Don't get distracted by the orientation of the lines!</p><p>Press <b>the LEFT or the RIGHT arrow</b> to indicate which <b>line is the longer one.</b></p><div style='float: center'><img src='materials/instructions/VerticalHorizontal_Demo.png' height='300'></img><p><img src='utils/answer/answer_leftright_keyboard.PNG' height='150'></img></p><p class='small'>In this example, the correct answer is the <b>LEFT arrow</b>.</p></div><p>Are you ready? <b>Press ENTER to start</b></p>"	n/a	n/a	n/a	n/a	n/a	n/a	n/a	n/a	n/a	n/a
n/a	"html-keyboard-response"	"37"	"105259"	"0.0-4.0-3.0-2.0-0.0"	"2x5zxf"	"600"	"1366"	"chrome"	"111.0.0"	"FALSE"	"Windows 10"	"60.48"	"055"	n/a	n/a	n/a	n/a	n/a	n/a	"fixation"	n/a	n/a	n/a	n/a	"NULL"	n/a	"NULL"	"NULL"	"NULL"	"<p style=\"color: black; font-size: 80px; padding-left: 42%; padding-right: 45%; padding-top: 9%; padding-bottom: 40%\">+</p>"	"1406"	n/a	n/a	n/a	n/a	n/a	n/a	n/a	n/a	n/a
n/a	"image-keyboard-response"	"38"	"105949"	"0.0-4.0-3.0-2.0-1.0"	"2x5zxf"	"600"	"1366"	"chrome"	"111.0.0"	"FALSE"	"Windows 10"	"60.48"	"055"	n/a	n/a	n/a	n/a	n/a	n/a	"Trial"	n/a	n/a	n/a	"688"	"arrowleft"	n/a	"NULL"	"NULL"	"NULL"	"stimuli/VerticalHorizontal_0000000_0.90000.png"	n/a	"VerticalHorizontal"	"arrowleft"	"1936"	"TRUE"	"VerticalHorizontal"	"000000000000"	"0.9000000000"	"1"	"13"
n/a	"html-keyboard-response"	"39"	"107105"	"0.0-4.0-3.0-2.0-0.1"	"2x5zxf"	"600"	"1366"	"chrome"	"111.0.0"	"FALSE"	"Windows 10"	"60.48"	"055"	n/a	n/a	n/a	n/a	n/a	n/a	"fixation"	n/a	n/a	n/a	n/a	"NULL"	n/a	"NULL"	"NULL"	"NULL"	"<p style=\"color: black; font-size: 80px; padding-left: 5%; padding-right: 34%; padding-top: 18%; padding-bottom: 45%\">+</p>"	"1152"	n/a	n/a	n/a	n/a	n/a	n/a	n/a	n/a	n/a
n/a	"image-keyboard-response"	"40"	"107760"	"0.0-4.0-3.0-2.0-1.1"	"2x5zxf"	"600"	"1366"	"chrome"	"111.0.0"	"FALSE"	"Windows 10"	"60.48"	"055"	n/a	n/a	n/a	n/a	n/a	n/a	"Trial"	n/a	n/a	n/a	"653"	"arrowright"	n/a	"NULL"	"NULL"	"NULL"	"stimuli/VerticalHorizontal_3300000_0.90000.png"	n/a	"VerticalHorizontal"	"arrowleft"	"1156"	"FALSE"	"VerticalHorizontal"	"330000000000"	"0.9000000000"	"1"	"14"
n/a	"html-keyboard-response"	"41"	"109250"	"0.0-4.0-3.0-2.0-0.2"	"2x5zxf"	"600"	"1366"	"chrome"	"111.0.0"	"FALSE"	"Windows 10"	"60.48"	"055"	n/a	n/a	n/a	n/a	n/a	n/a	"fixation"	n/a	n/a	n/a	n/a	"NULL"	n/a	"NULL"	"NULL"	"NULL"	"<p style=\"color: black; font-size: 80px; padding-left: 14%; padding-right: 47%; padding-top: 46%; padding-bottom: 24%\">+</p>"	"1484"	n/a	n/a	n/a	n/a	n/a	n/a	n/a	n/a	n/a
n/a	"image-keyboard-response"	"42"	"109704"	"0.0-4.0-3.0-2.0-1.2"	"2x5zxf"	"600"	"1366"	"chrome"	"111.0.0"	"FALSE"	"Windows 10"	"60.48"	"055"	n/a	n/a	n/a	n/a	n/a	n/a	"Trial"	n/a	n/a	n/a	"453"	"arrowleft"	n/a	"NULL"	"NULL"	"NULL"	"stimuli/VerticalHorizontal_-330000_0.90000.png"	n/a	"VerticalHorizontal"	"arrowleft"	"1490"	"TRUE"	"VerticalHorizontal"	"-33000000000"	"0.9000000000"	"1"	"15"
n/a	"html-keyboard-response"	"43"	"110819"	"0.0-4.0-3.0-2.0-0.3"	"2x5zxf"	"600"	"1366"	"chrome"	"111.0.0"	"FALSE"	"Windows 10"	"60.48"	"055"	n/a	n/a	n/a	n/a	n/a	n/a	"fixation"	n/a	n/a	n/a	n/a	"NULL"	n/a	"NULL"	"NULL"	"NULL"	"<p style=\"color: black; font-size: 80px; padding-left: 47%; padding-right: 34%; padding-top: 46%; padding-bottom: 22%\">+</p>"	"1112"	n/a	n/a	n/a	n/a	n/a	n/a	n/a	n/a	n/a
n/a	"image-keyboard-response"	"44"	"111267"	"0.0-4.0-3.0-2.0-1.3"	"2x5zxf"	"600"	"1366"	"chrome"	"111.0.0"	"FALSE"	"Windows 10"	"60.48"	"055"	n/a	n/a	n/a	n/a	n/a	n/a	"Trial"	n/a	n/a	n/a	"447"	"arrowright"	n/a	"NULL"	"NULL"	"NULL"	"stimuli/VerticalHorizontal_3300000_-0.9000.png"	n/a	"VerticalHorizontal"	"arrowright"	"1115"	"TRUE"	"VerticalHorizontal"	"330000000000"	"-0.900000000"	"1"	"16"
n/a	"html-keyboard-response"	"45"	"112746"	"0.0-4.0-3.0-2.0-0.4"	"2x5zxf"	"600"	"1366"	"chrome"	"111.0.0"	"FALSE"	"Windows 10"	"60.48"	"055"	n/a	n/a	n/a	n/a	n/a	n/a	"fixation"	n/a	n/a	n/a	n/a	"NULL"	n/a	"NULL"	"NULL"	"NULL"	"<p style=\"color: black; font-size: 80px; padding-left: 27%; padding-right: 21%; padding-top: 14%; padding-bottom: 15%\">+</p>"	"1471"	n/a	n/a	n/a	n/a	n/a	n/a	n/a	n/a	n/a
n/a	"image-keyboard-response"	"46"	"113163"	"0.0-4.0-3.0-2.0-1.4"	"2x5zxf"	"600"	"1366"	"chrome"	"111.0.0"	"FALSE"	"Windows 10"	"60.48"	"055"	n/a	n/a	n/a	n/a	n/a	n/a	"Trial"	n/a	n/a	n/a	"416"	"arrowright"	n/a	"NULL"	"NULL"	"NULL"	"stimuli/VerticalHorizontal_0000000_-0.9000.png"	n/a	"VerticalHorizontal"	"arrowright"	"1479"	"TRUE"	"VerticalHorizontal"	"000000000000"	"-0.900000000"	"1"	"17"
n/a	"html-keyboard-response"	"47"	"114354"	"0.0-4.0-3.0-2.0-0.5"	"2x5zxf"	"600"	"1366"	"chrome"	"111.0.0"	"FALSE"	"Windows 10"	"60.48"	"055"	n/a	n/a	n/a	n/a	n/a	n/a	"fixation"	n/a	n/a	n/a	n/a	"NULL"	n/a	"NULL"	"NULL"	"NULL"	"<p style=\"color: black; font-size: 80px; padding-left: 29%; padding-right: 1%; padding-top: 45%; padding-bottom: 10%\">+</p>"	"1182"	n/a	n/a	n/a	n/a	n/a	n/a	n/a	n/a	n/a
n/a	"image-keyboard-response"	"48"	"115184"	"0.0-4.0-3.0-2.0-1.5"	"2x5zxf"	"600"	"1366"	"chrome"	"111.0.0"	"FALSE"	"Windows 10"	"60.48"	"055"	n/a	n/a	n/a	n/a	n/a	n/a	"Trial"	n/a	n/a	n/a	"829"	"arrowright"	n/a	"NULL"	"NULL"	"NULL"	"stimuli/VerticalHorizontal_-330000_-0.9000.png"	n/a	"VerticalHorizontal"	"arrowright"	"1191"	"TRUE"	"VerticalHorizontal"	"-33000000000"	"-0.900000000"	"1"	"18"
n/a	"html-button-response"	"49"	"118305"	"0.0-4.0-3.0-3.0"	"2x5zxf"	"600"	"1366"	"chrome"	"111.0.0"	"FALSE"	"Windows 10"	"60.48"	"055"	n/a	n/a	n/a	n/a	n/a	n/a	"practice_block_results"	n/a	n/a	n/a	"3120"	"0"	n/a	"NULL"	"NULL"	"NULL"	"<p style='color:rgb(76,175,80);'> Correct Responses: <b>83.33%</b></p><hr><p style='color:rgb(233,30,99);'> Average Response Time: <b>581.00</b> ms.</p>"	n/a	n/a	n/a	n/a	n/a	n/a	n/a	n/a	n/a	n/a
n/a	"html-button-response"	"50"	"240051"	"0.0-4.0-4.0"	"2x5zxf"	"600"	"1366"	"chrome"	"111.0.0"	"FALSE"	"Windows 10"	"60.48"	"055"	n/a	n/a	n/a	n/a	n/a	n/a	"practice_debrief"	n/a	n/a	n/a	"121245"	"0"	n/a	"NULL"	"NULL"	"NULL"	"<p><b>TRAINING COMPLETED</b></p><p>In the next phase, there will be more trials, and some might be harder too.<br> Moreover, after each illusion block, a <b>score</b> will be calculated based on speed (time you took to answer) and accuracy (number of errors).</p><p>Try to keep up a high score!</p><br><p>Note that it can be <i>really</i> challenging at times, so you will need to rely on your <b>intuition</b> and gut feeling to answer as fast as you can without making errors.</p><p>Each illusion block will be repeated two times (so that you have the opportunity to improve your score), but the order of the blocks is random.</p><p>Remember, your goal is to be as <b>fast</b> and <b>accurate</b> as possible. Good luck!</p><br>"	n/a	n/a	n/a	n/a	n/a	n/a	n/a	n/a	n/a	n/a
"TRUE"	"preload"	"51"	"240243"	"0.0-5.0-0.0"	"2x5zxf"	"600"	"1366"	"chrome"	"111.0.0"	"FALSE"	"Windows 10"	"60.48"	"055"	n/a	n/a	n/a	n/a	n/a	n/a	n/a	n/a	n/a	n/a	n/a	"NULL"	"FALSE"	"list()"	"list()"	"list()"	n/a	n/a	n/a	n/a	n/a	n/a	n/a	n/a	n/a	n/a	n/a
n/a	"html-keyboard-response"	"52"	"242514"	"0.0-5.0-1.0"	"2x5zxf"	"600"	"1366"	"chrome"	"111.0.0"	"FALSE"	"Windows 10"	"60.48"	"055"	n/a	n/a	n/a	n/a	n/a	n/a	n/a	n/a	n/a	n/a	"2270"	"enter"	n/a	"NULL"	"NULL"	"NULL"	"<p><b>Part 1/6</b></p><p>In this part, two horizontal red lines will appear one above the other.</p><p>Your task is to select which <b>line is longer</b> in length as fast as you can, without making errors.</p><p>Don't get distracted by the surrounding black arrows at the end of the red lines!</p><p>Press <b>the UP or the DOWN arrow</b> to indicate where is the longer <b>red line.</b></p><div style='float: center'><img src='materials/instructions/MullerLyer_Demo.png' height='300'></img><p><img src='utils/answer/answer_updown_keyboard.PNG' height='150'></img></p><p class='small'>In this example, the correct answer is the <b>UP arrow</b>.</p></div><p>Are you ready? <b>Press ENTER to start</b></p>"	n/a	n/a	n/a	n/a	n/a	n/a	n/a	n/a	n/a	n/a
n/a	"html-keyboard-response"	"53"	"244234"	"0.0-5.0-2.0-0.0"	"2x5zxf"	"600"	"1366"	"chrome"	"111.0.0"	"FALSE"	"Windows 10"	"60.48"	"055"	n/a	n/a	n/a	n/a	n/a	n/a	"fixation"	n/a	n/a	n/a	n/a	"NULL"	n/a	"NULL"	"NULL"	"NULL"	"<p style=\"color: black; font-size: 80px; padding-left: 20%; padding-right: 22%; padding-top: 10%; padding-bottom: 14%\">+</p>"	"1202"	n/a	n/a	n/a	n/a	n/a	n/a	n/a	n/a	n/a
n/a	"image-keyboard-response"	"54"	"244833"	"0.0-5.0-2.0-1.0"	"2x5zxf"	"600"	"1366"	"chrome"	"111.0.0"	"FALSE"	"Windows 10"	"60.48"	"055"	n/a	n/a	n/a	n/a	n/a	n/a	"Trial"	n/a	n/a	n/a	"598"	"arrowdown"	n/a	"NULL"	"NULL"	"NULL"	"stimuli/MullerLyer_2.30000_-0.23665.png"	n/a	"MullerLyer"	"arrowdown"	"1720"	"TRUE"	"MullerLyer"	"2.3000000000"	"-0.236650000"	"1"	"19"
n/a	"html-keyboard-response"	"55"	"246078"	"0.0-5.0-2.0-0.1"	"2x5zxf"	"600"	"1366"	"chrome"	"111.0.0"	"FALSE"	"Windows 10"	"60.48"	"055"	n/a	n/a	n/a	n/a	n/a	n/a	"fixation"	n/a	n/a	n/a	n/a	"NULL"	n/a	"NULL"	"NULL"	"NULL"	"<p style=\"color: black; font-size: 80px; padding-left: 41%; padding-right: 27%; padding-top: 15%; padding-bottom: 49%\">+</p>"	"1228"	n/a	n/a	n/a	n/a	n/a	n/a	n/a	n/a	n/a
n/a	"image-keyboard-response"	"56"	"246533"	"0.0-5.0-2.0-1.1"	"2x5zxf"	"600"	"1366"	"chrome"	"111.0.0"	"FALSE"	"Windows 10"	"60.48"	"055"	n/a	n/a	n/a	n/a	n/a	n/a	"Trial"	n/a	n/a	n/a	"455"	"arrowdown"	n/a	"NULL"	"NULL"	"NULL"	"stimuli/MullerLyer_-2.3000_-0.14541.png"	n/a	"MullerLyer"	"arrowdown"	"1245"	"TRUE"	"MullerLyer"	"-2.300000000"	"-0.145410000"	"1"	"20"
n/a	"html-keyboard-response"	"57"	"247814"	"0.0-5.0-2.0-0.2"	"2x5zxf"	"600"	"1366"	"chrome"	"111.0.0"	"FALSE"	"Windows 10"	"60.48"	"055"	n/a	n/a	n/a	n/a	n/a	n/a	"fixation"	n/a	n/a	n/a	n/a	"NULL"	n/a	"NULL"	"NULL"	"NULL"	"<p style=\"color: black; font-size: 80px; padding-left: 44%; padding-right: 38%; padding-top: 23%; padding-bottom: 3%\">+</p>"	"1265"	n/a	n/a	n/a	n/a	n/a	n/a	n/a	n/a	n/a
n/a	"image-keyboard-response"	"58"	"248311"	"0.0-5.0-2.0-1.2"	"2x5zxf"	"600"	"1366"	"chrome"	"111.0.0"	"FALSE"	"Windows 10"	"60.48"	"055"	n/a	n/a	n/a	n/a	n/a	n/a	"Trial"	n/a	n/a	n/a	"497"	"arrowdown"	n/a	"NULL"	"NULL"	"NULL"	"stimuli/MullerLyer_14.12857_0.14541.png"	n/a	"MullerLyer"	"arrowup"	"1281"	"FALSE"	"MullerLyer"	"14.128570000"	"0.1454100000"	"1"	"21"
n/a	"html-keyboard-response"	"59"	"249325"	"0.0-5.0-2.0-0.3"	"2x5zxf"	"600"	"1366"	"chrome"	"111.0.0"	"FALSE"	"Windows 10"	"60.48"	"055"	n/a	n/a	n/a	n/a	n/a	n/a	"fixation"	n/a	n/a	n/a	n/a	"NULL"	n/a	"NULL"	"NULL"	"NULL"	"<p style=\"color: black; font-size: 80px; padding-left: 2%; padding-right: 18%; padding-top: 17%; padding-bottom: 37%\">+</p>"	"1006"	n/a	n/a	n/a	n/a	n/a	n/a	n/a	n/a	n/a
n/a	"image-keyboard-response"	"60"	"249930"	"0.0-5.0-2.0-1.3"	"2x5zxf"	"600"	"1366"	"chrome"	"111.0.0"	"FALSE"	"Windows 10"	"60.48"	"055"	n/a	n/a	n/a	n/a	n/a	n/a	"Trial"	n/a	n/a	n/a	"604"	"arrowup"	n/a	"NULL"	"NULL"	"NULL"	"stimuli/MullerLyer_-14.12857_0.07627.png"	n/a	"MullerLyer"	"arrowup"	"1014"	"TRUE"	"MullerLyer"	"-14.12857000"	"0.0762700000"	"1"	"22"
n/a	"html-keyboard-response"	"61"	"251120"	"0.0-5.0-2.0-0.4"	"2x5zxf"	"600"	"1366"	"chrome"	"111.0.0"	"FALSE"	"Windows 10"	"60.48"	"055"	n/a	n/a	n/a	n/a	n/a	n/a	"fixation"	n/a	n/a	n/a	n/a	"NULL"	n/a	"NULL"	"NULL"	"NULL"	"<p style=\"color: black; font-size: 80px; padding-left: 2%; padding-right: 42%; padding-top: 49%; padding-bottom: 31%\">+</p>"	"1183"	n/a	n/a	n/a	n/a	n/a	n/a	n/a	n/a	n/a
n/a	"image-keyboard-response"	"62"	"251617"	"0.0-5.0-2.0-1.4"	"2x5zxf"	"600"	"1366"	"chrome"	"111.0.0"	"FALSE"	"Windows 10"	"60.48"	"055"	n/a	n/a	n/a	n/a	n/a	n/a	"Trial"	n/a	n/a	n/a	"496"	"arrowdown"	n/a	"NULL"	"NULL"	"NULL"	"stimuli/MullerLyer_-20.04286_-0.23665.png"	n/a	"MullerLyer"	"arrowdown"	"1190"	"TRUE"	"MullerLyer"	"-20.04286000"	"-0.236650000"	"1"	"23"
n/a	"html-keyboard-response"	"63"	"253083"	"0.0-5.0-2.0-0.5"	"2x5zxf"	"600"	"1366"	"chrome"	"111.0.0"	"FALSE"	"Windows 10"	"60.48"	"055"	n/a	n/a	n/a	n/a	n/a	n/a	"fixation"	n/a	n/a	n/a	n/a	"NULL"	n/a	"NULL"	"NULL"	"NULL"	"<p style=\"color: black; font-size: 80px; padding-left: 7%; padding-right: 8%; padding-top: 1%; padding-bottom: 18%\">+</p>"	"1461"	n/a	n/a	n/a	n/a	n/a	n/a	n/a	n/a	n/a
n/a	"image-keyboard-response"	"64"	"254266"	"0.0-5.0-2.0-1.5"	"2x5zxf"	"600"	"1366"	"chrome"	"111.0.0"	"FALSE"	"Windows 10"	"60.48"	"055"	n/a	n/a	n/a	n/a	n/a	n/a	"Trial"	n/a	n/a	n/a	"1182"	"arrowdown"	n/a	"NULL"	"NULL"	"NULL"	"stimuli/MullerLyer_8.21429_-0.23665.png"	n/a	"MullerLyer"	"arrowdown"	"1466"	"TRUE"	"MullerLyer"	"8.2142900000"	"-0.236650000"	"1"	"24"
n/a	"html-keyboard-response"	"65"	"255652"	"0.0-5.0-2.0-0.6"	"2x5zxf"	"600"	"1366"	"chrome"	"111.0.0"	"FALSE"	"Windows 10"	"60.48"	"055"	n/a	n/a	n/a	n/a	n/a	n/a	"fixation"	n/a	n/a	n/a	n/a	"NULL"	n/a	"NULL"	"NULL"	"NULL"	"<p style=\"color: black; font-size: 80px; padding-left: 0%; padding-right: 25%; padding-top: 13%; padding-bottom: 38%\">+</p>"	"1383"	n/a	n/a	n/a	n/a	n/a	n/a	n/a	n/a	n/a
n/a	"image-keyboard-response"	"66"	"256194"	"0.0-5.0-2.0-1.6"	"2x5zxf"	"600"	"1366"	"chrome"	"111.0.0"	"FALSE"	"Windows 10"	"60.48"	"055"	n/a	n/a	n/a	n/a	n/a	n/a	"Trial"	n/a	n/a	n/a	"542"	"arrowup"	n/a	"NULL"	"NULL"	"NULL"	"stimuli/MullerLyer_2.30000_0.14541.png"	n/a	"MullerLyer"	"arrowup"	"1386"	"TRUE"	"MullerLyer"	"2.3000000000"	"0.1454100000"	"1"	"25"
n/a	"html-keyboard-response"	"67"	"257366"	"0.0-5.0-2.0-0.7"	"2x5zxf"	"600"	"1366"	"chrome"	"111.0.0"	"FALSE"	"Windows 10"	"60.48"	"055"	n/a	n/a	n/a	n/a	n/a	n/a	"fixation"	n/a	n/a	n/a	n/a	"NULL"	n/a	"NULL"	"NULL"	"NULL"	"<p style=\"color: black; font-size: 80px; padding-left: 15%; padding-right: 11%; padding-top: 41%; padding-bottom: 37%\">+</p>"	"1170"	n/a	n/a	n/a	n/a	n/a	n/a	n/a	n/a	n/a
n/a	"image-keyboard-response"	"68"	"258632"	"0.0-5.0-2.0-1.7"	"2x5zxf"	"600"	"1366"	"chrome"	"111.0.0"	"FALSE"	"Windows 10"	"60.48"	"055"	n/a	n/a	n/a	n/a	n/a	n/a	"Trial"	n/a	n/a	n/a	"1265"	"arrowup"	n/a	"NULL"	"NULL"	"NULL"	"stimuli/MullerLyer_2.30000_0.07627.png"	n/a	"MullerLyer"	"arrowup"	"1172"	"TRUE"	"MullerLyer"	"2.3000000000"	"0.0762700000"	"1"	"26"
n/a	"html-keyboard-response"	"69"	"259655"	"0.0-5.0-2.0-0.8"	"2x5zxf"	"600"	"1366"	"chrome"	"111.0.0"	"FALSE"	"Windows 10"	"60.48"	"055"	n/a	n/a	n/a	n/a	n/a	n/a	"fixation"	n/a	n/a	n/a	n/a	"NULL"	n/a	"NULL"	"NULL"	"NULL"	"<p style=\"color: black; font-size: 80px; padding-left: 25%; padding-right: 6%; padding-top: 49%; padding-bottom: 47%\">+</p>"	"1020"	n/a	n/a	n/a	n/a	n/a	n/a	n/a	n/a	n/a
n/a	"image-keyboard-response"	"70"	"260739"	"0.0-5.0-2.0-1.8"	"2x5zxf"	"600"	"1366"	"chrome"	"111.0.0"	"FALSE"	"Windows 10"	"60.48"	"055"	n/a	n/a	n/a	n/a	n/a	n/a	"Trial"	n/a	n/a	n/a	"1083"	"arrowup"	n/a	"NULL"	"NULL"	"NULL"	"stimuli/MullerLyer_14.12857_0.23665.png"	n/a	"MullerLyer"	"arrowup"	"1023"	"TRUE"	"MullerLyer"	"14.128570000"	"0.2366500000"	"1"	"27"
n/a	"html-keyboard-response"	"71"	"261850"	"0.0-5.0-2.0-0.9"	"2x5zxf"	"600"	"1366"	"chrome"	"111.0.0"	"FALSE"	"Windows 10"	"60.48"	"055"	n/a	n/a	n/a	n/a	n/a	n/a	"fixation"	n/a	n/a	n/a	n/a	"NULL"	n/a	"NULL"	"NULL"	"NULL"	"<p style=\"color: black; font-size: 80px; padding-left: 6%; padding-right: 47%; padding-top: 8%; padding-bottom: 8%\">+</p>"	"1110"	n/a	n/a	n/a	n/a	n/a	n/a	n/a	n/a	n/a
n/a	"image-keyboard-response"	"72"	"262525"	"0.0-5.0-2.0-1.9"	"2x5zxf"	"600"	"1366"	"chrome"	"111.0.0"	"FALSE"	"Windows 10"	"60.48"	"055"	n/a	n/a	n/a	n/a	n/a	n/a	"Trial"	n/a	n/a	n/a	"674"	"arrowup"	n/a	"NULL"	"NULL"	"NULL"	"stimuli/MullerLyer_20.04286_-0.07627.png"	n/a	"MullerLyer"	"arrowdown"	"1111"	"FALSE"	"MullerLyer"	"20.042860000"	"-0.076270000"	"1"	"28"
n/a	"html-keyboard-response"	"73"	"263729"	"0.0-5.0-2.0-0.10"	"2x5zxf"	"600"	"1366"	"chrome"	"111.0.0"	"FALSE"	"Windows 10"	"60.48"	"055"	n/a	n/a	n/a	n/a	n/a	n/a	"fixation"	n/a	n/a	n/a	n/a	"NULL"	n/a	"NULL"	"NULL"	"NULL"	"<p style=\"color: black; font-size: 80px; padding-left: 0%; padding-right: 12%; padding-top: 16%; padding-bottom: 12%\">+</p>"	"1203"	n/a	n/a	n/a	n/a	n/a	n/a	n/a	n/a	n/a
n/a	"image-keyboard-response"	"74"	"264277"	"0.0-5.0-2.0-1.10"	"2x5zxf"	"600"	"1366"	"chrome"	"111.0.0"	"FALSE"	"Windows 10"	"60.48"	"055"	n/a	n/a	n/a	n/a	n/a	n/a	"Trial"	n/a	n/a	n/a	"546"	"arrowdown"	n/a	"NULL"	"NULL"	"NULL"	"stimuli/MullerLyer_-14.12857_-0.07627.png"	n/a	"MullerLyer"	"arrowdown"	"1204"	"TRUE"	"MullerLyer"	"-14.12857000"	"-0.076270000"	"1"	"29"
n/a	"html-keyboard-response"	"75"	"265445"	"0.0-5.0-2.0-0.11"	"2x5zxf"	"600"	"1366"	"chrome"	"111.0.0"	"FALSE"	"Windows 10"	"60.48"	"055"	n/a	n/a	n/a	n/a	n/a	n/a	"fixation"	n/a	n/a	n/a	n/a	"NULL"	n/a	"NULL"	"NULL"	"NULL"	"<p style=\"color: black; font-size: 80px; padding-left: 46%; padding-right: 27%; padding-top: 6%; padding-bottom: 46%\">+</p>"	"1153"	n/a	n/a	n/a	n/a	n/a	n/a	n/a	n/a	n/a
n/a	"image-keyboard-response"	"76"	"265941"	"0.0-5.0-2.0-1.11"	"2x5zxf"	"600"	"1366"	"chrome"	"111.0.0"	"FALSE"	"Windows 10"	"60.48"	"055"	n/a	n/a	n/a	n/a	n/a	n/a	"Trial"	n/a	n/a	n/a	"496"	"arrowup"	n/a	"NULL"	"NULL"	"NULL"	"stimuli/MullerLyer_-14.12857_0.35000.png"	n/a	"MullerLyer"	"arrowup"	"1168"	"TRUE"	"MullerLyer"	"-14.12857000"	"0.3500000000"	"1"	"30"
n/a	"html-keyboard-response"	"77"	"266992"	"0.0-5.0-2.0-0.12"	"2x5zxf"	"600"	"1366"	"chrome"	"111.0.0"	"FALSE"	"Windows 10"	"60.48"	"055"	n/a	n/a	n/a	n/a	n/a	n/a	"fixation"	n/a	n/a	n/a	n/a	"NULL"	n/a	"NULL"	"NULL"	"NULL"	"<p style=\"color: black; font-size: 80px; padding-left: 4%; padding-right: 21%; padding-top: 8%; padding-bottom: 31%\">+</p>"	"1042"	n/a	n/a	n/a	n/a	n/a	n/a	n/a	n/a	n/a
n/a	"image-keyboard-response"	"78"	"267623"	"0.0-5.0-2.0-1.12"	"2x5zxf"	"600"	"1366"	"chrome"	"111.0.0"	"FALSE"	"Windows 10"	"60.48"	"055"	n/a	n/a	n/a	n/a	n/a	n/a	"Trial"	n/a	n/a	n/a	"630"	"arrowdown"	n/a	"NULL"	"NULL"	"NULL"	"stimuli/MullerLyer_-8.21429_-0.14541.png"	n/a	"MullerLyer"	"arrowdown"	"1051"	"TRUE"	"MullerLyer"	"-8.214290000"	"-0.145410000"	"1"	"31"
n/a	"html-keyboard-response"	"79"	"268655"	"0.0-5.0-2.0-0.13"	"2x5zxf"	"600"	"1366"	"chrome"	"111.0.0"	"FALSE"	"Windows 10"	"60.48"	"055"	n/a	n/a	n/a	n/a	n/a	n/a	"fixation"	n/a	n/a	n/a	n/a	"NULL"	n/a	"NULL"	"NULL"	"NULL"	"<p style=\"color: black; font-size: 80px; padding-left: 42%; padding-right: 28%; padding-top: 42%; padding-bottom: 16%\">+</p>"	"1031"	n/a	n/a	n/a	n/a	n/a	n/a	n/a	n/a	n/a
n/a	"image-keyboard-response"	"80"	"269160"	"0.0-5.0-2.0-1.13"	"2x5zxf"	"600"	"1366"	"chrome"	"111.0.0"	"FALSE"	"Windows 10"	"60.48"	"055"	n/a	n/a	n/a	n/a	n/a	n/a	"Trial"	n/a	n/a	n/a	"505"	"arrowup"	n/a	"NULL"	"NULL"	"NULL"	"stimuli/MullerLyer_-2.3000_0.23665.png"	n/a	"MullerLyer"	"arrowup"	"1032"	"TRUE"	"MullerLyer"	"-2.300000000"	"0.2366500000"	"1"	"32"
n/a	"html-keyboard-response"	"81"	"270447"	"0.0-5.0-2.0-0.14"	"2x5zxf"	"600"	"1366"	"chrome"	"111.0.0"	"FALSE"	"Windows 10"	"60.48"	"055"	n/a	n/a	n/a	n/a	n/a	n/a	"fixation"	n/a	n/a	n/a	n/a	"NULL"	n/a	"NULL"	"NULL"	"NULL"	"<p style=\"color: black; font-size: 80px; padding-left: 36%; padding-right: 48%; padding-top: 38%; padding-bottom: 18%\">+</p>"	"1271"	n/a	n/a	n/a	n/a	n/a	n/a	n/a	n/a	n/a
n/a	"image-keyboard-response"	"82"	"270877"	"0.0-5.0-2.0-1.14"	"2x5zxf"	"600"	"1366"	"chrome"	"111.0.0"	"FALSE"	"Windows 10"	"60.48"	"055"	n/a	n/a	n/a	n/a	n/a	n/a	"Trial"	n/a	n/a	n/a	"429"	"arrowup"	n/a	"NULL"	"NULL"	"NULL"	"stimuli/MullerLyer_-14.12857_0.14541.png"	n/a	"MullerLyer"	"arrowup"	"1287"	"TRUE"	"MullerLyer"	"-14.12857000"	"0.1454100000"	"1"	"33"
n/a	"html-keyboard-response"	"83"	"271899"	"0.0-5.0-2.0-0.15"	"2x5zxf"	"600"	"1366"	"chrome"	"111.0.0"	"FALSE"	"Windows 10"	"60.48"	"055"	n/a	n/a	n/a	n/a	n/a	n/a	"fixation"	n/a	n/a	n/a	n/a	"NULL"	n/a	"NULL"	"NULL"	"NULL"	"<p style=\"color: black; font-size: 80px; padding-left: 47%; padding-right: 27%; padding-top: 17%; padding-bottom: 14%\">+</p>"	"1009"	n/a	n/a	n/a	n/a	n/a	n/a	n/a	n/a	n/a
n/a	"image-keyboard-response"	"84"	"272741"	"0.0-5.0-2.0-1.15"	"2x5zxf"	"600"	"1366"	"chrome"	"111.0.0"	"FALSE"	"Windows 10"	"60.48"	"055"	n/a	n/a	n/a	n/a	n/a	n/a	"Trial"	n/a	n/a	n/a	"841"	"arrowup"	n/a	"NULL"	"NULL"	"NULL"	"stimuli/MullerLyer_20.04286_0.35000.png"	n/a	"MullerLyer"	"arrowup"	"1022"	"TRUE"	"MullerLyer"	"20.042860000"	"0.3500000000"	"1"	"34"
n/a	"html-keyboard-response"	"85"	"273869"	"0.0-5.0-2.0-0.16"	"2x5zxf"	"600"	"1366"	"chrome"	"111.0.0"	"FALSE"	"Windows 10"	"60.48"	"055"	n/a	n/a	n/a	n/a	n/a	n/a	"fixation"	n/a	n/a	n/a	n/a	"NULL"	n/a	"NULL"	"NULL"	"NULL"	"<p style=\"color: black; font-size: 80px; padding-left: 6%; padding-right: 23%; padding-top: 8%; padding-bottom: 6%\">+</p>"	"1121"	n/a	n/a	n/a	n/a	n/a	n/a	n/a	n/a	n/a
n/a	"image-keyboard-response"	"86"	"274625"	"0.0-5.0-2.0-1.16"	"2x5zxf"	"600"	"1366"	"chrome"	"111.0.0"	"FALSE"	"Windows 10"	"60.48"	"055"	n/a	n/a	n/a	n/a	n/a	n/a	"Trial"	n/a	n/a	n/a	"755"	"arrowup"	n/a	"NULL"	"NULL"	"NULL"	"stimuli/MullerLyer_2.30000_0.23665.png"	n/a	"MullerLyer"	"arrowup"	"1128"	"TRUE"	"MullerLyer"	"2.3000000000"	"0.2366500000"	"1"	"35"
n/a	"html-keyboard-response"	"87"	"275938"	"0.0-5.0-2.0-0.17"	"2x5zxf"	"600"	"1366"	"chrome"	"111.0.0"	"FALSE"	"Windows 10"	"60.48"	"055"	n/a	n/a	n/a	n/a	n/a	n/a	"fixation"	n/a	n/a	n/a	n/a	"NULL"	n/a	"NULL"	"NULL"	"NULL"	"<p style=\"color: black; font-size: 80px; padding-left: 41%; padding-right: 9%; padding-top: 11%; padding-bottom: 11%\">+</p>"	"1299"	n/a	n/a	n/a	n/a	n/a	n/a	n/a	n/a	n/a
n/a	"image-keyboard-response"	"88"	"276797"	"0.0-5.0-2.0-1.17"	"2x5zxf"	"600"	"1366"	"chrome"	"111.0.0"	"FALSE"	"Windows 10"	"60.48"	"055"	n/a	n/a	n/a	n/a	n/a	n/a	"Trial"	n/a	n/a	n/a	"858"	"arrowup"	n/a	"NULL"	"NULL"	"NULL"	"stimuli/MullerLyer_14.12857_0.35000.png"	n/a	"MullerLyer"	"arrowup"	"1313"	"TRUE"	"MullerLyer"	"14.128570000"	"0.3500000000"	"1"	"36"
n/a	"html-keyboard-response"	"89"	"277818"	"0.0-5.0-2.0-0.18"	"2x5zxf"	"600"	"1366"	"chrome"	"111.0.0"	"FALSE"	"Windows 10"	"60.48"	"055"	n/a	n/a	n/a	n/a	n/a	n/a	"fixation"	n/a	n/a	n/a	n/a	"NULL"	n/a	"NULL"	"NULL"	"NULL"	"<p style=\"color: black; font-size: 80px; padding-left: 44%; padding-right: 14%; padding-top: 43%; padding-bottom: 5%\">+</p>"	"1019"	n/a	n/a	n/a	n/a	n/a	n/a	n/a	n/a	n/a
n/a	"image-keyboard-response"	"90"	"278371"	"0.0-5.0-2.0-1.18"	"2x5zxf"	"600"	"1366"	"chrome"	"111.0.0"	"FALSE"	"Windows 10"	"60.48"	"055"	n/a	n/a	n/a	n/a	n/a	n/a	"Trial"	n/a	n/a	n/a	"553"	"arrowup"	n/a	"NULL"	"NULL"	"NULL"	"stimuli/MullerLyer_8.21429_0.23665.png"	n/a	"MullerLyer"	"arrowup"	"1021"	"TRUE"	"MullerLyer"	"8.2142900000"	"0.2366500000"	"1"	"37"
n/a	"html-keyboard-response"	"91"	"279431"	"0.0-5.0-2.0-0.19"	"2x5zxf"	"600"	"1366"	"chrome"	"111.0.0"	"FALSE"	"Windows 10"	"60.48"	"055"	n/a	n/a	n/a	n/a	n/a	n/a	"fixation"	n/a	n/a	n/a	n/a	"NULL"	n/a	"NULL"	"NULL"	"NULL"	"<p style=\"color: black; font-size: 80px; padding-left: 22%; padding-right: 6%; padding-top: 16%; padding-bottom: 23%\">+</p>"	"1051"	n/a	n/a	n/a	n/a	n/a	n/a	n/a	n/a	n/a
n/a	"image-keyboard-response"	"92"	"279963"	"0.0-5.0-2.0-1.19"	"2x5zxf"	"600"	"1366"	"chrome"	"111.0.0"	"FALSE"	"Windows 10"	"60.48"	"055"	n/a	n/a	n/a	n/a	n/a	n/a	"Trial"	n/a	n/a	n/a	"531"	"arrowup"	n/a	"NULL"	"NULL"	"NULL"	"stimuli/MullerLyer_-20.04286_0.07627.png"	n/a	"MullerLyer"	"arrowup"	"1060"	"TRUE"	"MullerLyer"	"-20.04286000"	"0.0762700000"	"1"	"38"
n/a	"html-keyboard-response"	"93"	"281040"	"0.0-5.0-2.0-0.20"	"2x5zxf"	"600"	"1366"	"chrome"	"111.0.0"	"FALSE"	"Windows 10"	"60.48"	"055"	n/a	n/a	n/a	n/a	n/a	n/a	"fixation"	n/a	n/a	n/a	n/a	"NULL"	n/a	"NULL"	"NULL"	"NULL"	"<p style=\"color: black; font-size: 80px; padding-left: 34%; padding-right: 0%; padding-top: 17%; padding-bottom: 34%\">+</p>"	"1074"	n/a	n/a	n/a	n/a	n/a	n/a	n/a	n/a	n/a
n/a	"image-keyboard-response"	"94"	"281645"	"0.0-5.0-2.0-1.20"	"2x5zxf"	"600"	"1366"	"chrome"	"111.0.0"	"FALSE"	"Windows 10"	"60.48"	"055"	n/a	n/a	n/a	n/a	n/a	n/a	"Trial"	n/a	n/a	n/a	"604"	"arrowdown"	n/a	"NULL"	"NULL"	"NULL"	"stimuli/MullerLyer_-20.04286_-0.14541.png"	n/a	"MullerLyer"	"arrowdown"	"1077"	"TRUE"	"MullerLyer"	"-20.04286000"	"-0.145410000"	"1"	"39"
n/a	"html-keyboard-response"	"95"	"282739"	"0.0-5.0-2.0-0.21"	"2x5zxf"	"600"	"1366"	"chrome"	"111.0.0"	"FALSE"	"Windows 10"	"60.48"	"055"	n/a	n/a	n/a	n/a	n/a	n/a	"fixation"	n/a	n/a	n/a	n/a	"NULL"	n/a	"NULL"	"NULL"	"NULL"	"<p style=\"color: black; font-size: 80px; padding-left: 2%; padding-right: 25%; padding-top: 47%; padding-bottom: 29%\">+</p>"	"1088"	n/a	n/a	n/a	n/a	n/a	n/a	n/a	n/a	n/a
n/a	"image-keyboard-response"	"96"	"283189"	"0.0-5.0-2.0-1.21"	"2x5zxf"	"600"	"1366"	"chrome"	"111.0.0"	"FALSE"	"Windows 10"	"60.48"	"055"	n/a	n/a	n/a	n/a	n/a	n/a	"Trial"	n/a	n/a	n/a	"449"	"arrowdown"	n/a	"NULL"	"NULL"	"NULL"	"stimuli/MullerLyer_-2.3000_-0.23665.png"	n/a	"MullerLyer"	"arrowdown"	"1094"	"TRUE"	"MullerLyer"	"-2.300000000"	"-0.236650000"	"1"	"40"
n/a	"html-keyboard-response"	"97"	"284272"	"0.0-5.0-2.0-0.22"	"2x5zxf"	"600"	"1366"	"chrome"	"111.0.0"	"FALSE"	"Windows 10"	"60.48"	"055"	n/a	n/a	n/a	n/a	n/a	n/a	"fixation"	n/a	n/a	n/a	n/a	"NULL"	n/a	"NULL"	"NULL"	"NULL"	"<p style=\"color: black; font-size: 80px; padding-left: 43%; padding-right: 21%; padding-top: 33%; padding-bottom: 8%\">+</p>"	"1069"	n/a	n/a	n/a	n/a	n/a	n/a	n/a	n/a	n/a
n/a	"image-keyboard-response"	"98"	"284799"	"0.0-5.0-2.0-1.22"	"2x5zxf"	"600"	"1366"	"chrome"	"111.0.0"	"FALSE"	"Windows 10"	"60.48"	"055"	n/a	n/a	n/a	n/a	n/a	n/a	"Trial"	n/a	n/a	n/a	"526"	"arrowup"	n/a	"NULL"	"NULL"	"NULL"	"stimuli/MullerLyer_-8.21429_0.07627.png"	n/a	"MullerLyer"	"arrowup"	"1083"	"TRUE"	"MullerLyer"	"-8.214290000"	"0.0762700000"	"1"	"41"
n/a	"html-keyboard-response"	"99"	"285826"	"0.0-5.0-2.0-0.23"	"2x5zxf"	"600"	"1366"	"chrome"	"111.0.0"	"FALSE"	"Windows 10"	"60.48"	"055"	n/a	n/a	n/a	n/a	n/a	n/a	"fixation"	n/a	n/a	n/a	n/a	"NULL"	n/a	"NULL"	"NULL"	"NULL"	"<p style=\"color: black; font-size: 80px; padding-left: 45%; padding-right: 14%; padding-top: 15%; padding-bottom: 30%\">+</p>"	"1014"	n/a	n/a	n/a	n/a	n/a	n/a	n/a	n/a	n/a
n/a	"image-keyboard-response"	"100"	"286341"	"0.0-5.0-2.0-1.23"	"2x5zxf"	"600"	"1366"	"chrome"	"111.0.0"	"FALSE"	"Windows 10"	"60.48"	"055"	n/a	n/a	n/a	n/a	n/a	n/a	"Trial"	n/a	n/a	n/a	"512"	"arrowdown"	n/a	"NULL"	"NULL"	"NULL"	"stimuli/MullerLyer_14.12857_0.07627.png"	n/a	"MullerLyer"	"arrowup"	"1027"	"FALSE"	"MullerLyer"	"14.128570000"	"0.0762700000"	"1"	"42"
n/a	"html-keyboard-response"	"101"	"287473"	"0.0-5.0-2.0-0.24"	"2x5zxf"	"600"	"1366"	"chrome"	"111.0.0"	"FALSE"	"Windows 10"	"60.48"	"055"	n/a	n/a	n/a	n/a	n/a	n/a	"fixation"	n/a	n/a	n/a	n/a	"NULL"	n/a	"NULL"	"NULL"	"NULL"	"<p style=\"color: black; font-size: 80px; padding-left: 11%; padding-right: 8%; padding-top: 27%; padding-bottom: 34%\">+</p>"	"1118"	n/a	n/a	n/a	n/a	n/a	n/a	n/a	n/a	n/a
n/a	"image-keyboard-response"	"102"	"287930"	"0.0-5.0-2.0-1.24"	"2x5zxf"	"600"	"1366"	"chrome"	"111.0.0"	"FALSE"	"Windows 10"	"60.48"	"055"	n/a	n/a	n/a	n/a	n/a	n/a	"Trial"	n/a	n/a	n/a	"457"	"arrowup"	n/a	"NULL"	"NULL"	"NULL"	"stimuli/MullerLyer_8.21429_-0.07627.png"	n/a	"MullerLyer"	"arrowdown"	"1132"	"FALSE"	"MullerLyer"	"8.2142900000"	"-0.076270000"	"1"	"43"
n/a	"html-keyboard-response"	"103"	"289229"	"0.0-5.0-2.0-0.25"	"2x5zxf"	"600"	"1366"	"chrome"	"111.0.0"	"FALSE"	"Windows 10"	"60.48"	"055"	n/a	n/a	n/a	n/a	n/a	n/a	"fixation"	n/a	n/a	n/a	n/a	"NULL"	n/a	"NULL"	"NULL"	"NULL"	"<p style=\"color: black; font-size: 80px; padding-left: 40%; padding-right: 18%; padding-top: 13%; padding-bottom: 43%\">+</p>"	"1298"	n/a	n/a	n/a	n/a	n/a	n/a	n/a	n/a	n/a
n/a	"image-keyboard-response"	"104"	"289822"	"0.0-5.0-2.0-1.25"	"2x5zxf"	"600"	"1366"	"chrome"	"111.0.0"	"FALSE"	"Windows 10"	"60.48"	"055"	n/a	n/a	n/a	n/a	n/a	n/a	"Trial"	n/a	n/a	n/a	"592"	"arrowdown"	n/a	"NULL"	"NULL"	"NULL"	"stimuli/MullerLyer_2.30000_-0.14541.png"	n/a	"MullerLyer"	"arrowdown"	"1299"	"TRUE"	"MullerLyer"	"2.3000000000"	"-0.145410000"	"1"	"44"
n/a	"html-keyboard-response"	"105"	"291166"	"0.0-5.0-2.0-0.26"	"2x5zxf"	"600"	"1366"	"chrome"	"111.0.0"	"FALSE"	"Windows 10"	"60.48"	"055"	n/a	n/a	n/a	n/a	n/a	n/a	"fixation"	n/a	n/a	n/a	n/a	"NULL"	n/a	"NULL"	"NULL"	"NULL"	"<p style=\"color: black; font-size: 80px; padding-left: 14%; padding-right: 42%; padding-top: 6%; padding-bottom: 37%\">+</p>"	"1331"	n/a	n/a	n/a	n/a	n/a	n/a	n/a	n/a	n/a
n/a	"image-keyboard-response"	"106"	"291782"	"0.0-5.0-2.0-1.26"	"2x5zxf"	"600"	"1366"	"chrome"	"111.0.0"	"FALSE"	"Windows 10"	"60.48"	"055"	n/a	n/a	n/a	n/a	n/a	n/a	"Trial"	n/a	n/a	n/a	"615"	"arrowup"	n/a	"NULL"	"NULL"	"NULL"	"stimuli/MullerLyer_20.04286_-0.23665.png"	n/a	"MullerLyer"	"arrowdown"	"1344"	"FALSE"	"MullerLyer"	"20.042860000"	"-0.236650000"	"1"	"45"
n/a	"html-keyboard-response"	"107"	"293021"	"0.0-5.0-2.0-0.27"	"2x5zxf"	"600"	"1366"	"chrome"	"111.0.0"	"FALSE"	"Windows 10"	"60.48"	"055"	n/a	n/a	n/a	n/a	n/a	n/a	"fixation"	n/a	n/a	n/a	n/a	"NULL"	n/a	"NULL"	"NULL"	"NULL"	"<p style=\"color: black; font-size: 80px; padding-left: 19%; padding-right: 8%; padding-top: 32%; padding-bottom: 15%\">+</p>"	"1229"	n/a	n/a	n/a	n/a	n/a	n/a	n/a	n/a	n/a
n/a	"image-keyboard-response"	"108"	"293522"	"0.0-5.0-2.0-1.27"	"2x5zxf"	"600"	"1366"	"chrome"	"111.0.0"	"FALSE"	"Windows 10"	"60.48"	"055"	n/a	n/a	n/a	n/a	n/a	n/a	"Trial"	n/a	n/a	n/a	"500"	"arrowdown"	n/a	"NULL"	"NULL"	"NULL"	"stimuli/MullerLyer_-8.21429_-0.07627.png"	n/a	"MullerLyer"	"arrowdown"	"1239"	"TRUE"	"MullerLyer"	"-8.214290000"	"-0.076270000"	"1"	"46"
n/a	"html-keyboard-response"	"109"	"294996"	"0.0-5.0-2.0-0.28"	"2x5zxf"	"600"	"1366"	"chrome"	"111.0.0"	"FALSE"	"Windows 10"	"60.48"	"055"	n/a	n/a	n/a	n/a	n/a	n/a	"fixation"	n/a	n/a	n/a	n/a	"NULL"	n/a	"NULL"	"NULL"	"NULL"	"<p style=\"color: black; font-size: 80px; padding-left: 1%; padding-right: 12%; padding-top: 5%; padding-bottom: 6%\">+</p>"	"1460"	n/a	n/a	n/a	n/a	n/a	n/a	n/a	n/a	n/a
n/a	"image-keyboard-response"	"110"	"295509"	"0.0-5.0-2.0-1.28"	"2x5zxf"	"600"	"1366"	"chrome"	"111.0.0"	"FALSE"	"Windows 10"	"60.48"	"055"	n/a	n/a	n/a	n/a	n/a	n/a	"Trial"	n/a	n/a	n/a	"512"	"arrowdown"	n/a	"NULL"	"NULL"	"NULL"	"stimuli/MullerLyer_8.21429_-0.3500.png"	n/a	"MullerLyer"	"arrowdown"	"1474"	"TRUE"	"MullerLyer"	"8.2142900000"	"-0.350000000"	"1"	"47"
n/a	"html-keyboard-response"	"111"	"296579"	"0.0-5.0-2.0-0.29"	"2x5zxf"	"600"	"1366"	"chrome"	"111.0.0"	"FALSE"	"Windows 10"	"60.48"	"055"	n/a	n/a	n/a	n/a	n/a	n/a	"fixation"	n/a	n/a	n/a	n/a	"NULL"	n/a	"NULL"	"NULL"	"NULL"	"<p style=\"color: black; font-size: 80px; padding-left: 42%; padding-right: 28%; padding-top: 39%; padding-bottom: 21%\">+</p>"	"1058"	n/a	n/a	n/a	n/a	n/a	n/a	n/a	n/a	n/a
n/a	"image-keyboard-response"	"112"	"297033"	"0.0-5.0-2.0-1.29"	"2x5zxf"	"600"	"1366"	"chrome"	"111.0.0"	"FALSE"	"Windows 10"	"60.48"	"055"	n/a	n/a	n/a	n/a	n/a	n/a	"Trial"	n/a	n/a	n/a	"453"	"arrowdown"	n/a	"NULL"	"NULL"	"NULL"	"stimuli/MullerLyer_-20.04286_-0.3500.png"	n/a	"MullerLyer"	"arrowdown"	"1070"	"TRUE"	"MullerLyer"	"-20.04286000"	"-0.350000000"	"1"	"48"
n/a	"html-keyboard-response"	"113"	"298064"	"0.0-5.0-2.0-0.30"	"2x5zxf"	"600"	"1366"	"chrome"	"111.0.0"	"FALSE"	"Windows 10"	"60.48"	"055"	n/a	n/a	n/a	n/a	n/a	n/a	"fixation"	n/a	n/a	n/a	n/a	"NULL"	n/a	"NULL"	"NULL"	"NULL"	"<p style=\"color: black; font-size: 80px; padding-left: 13%; padding-right: 12%; padding-top: 19%; padding-bottom: 5%\">+</p>"	"1024"	n/a	n/a	n/a	n/a	n/a	n/a	n/a	n/a	n/a
n/a	"image-keyboard-response"	"114"	"298516"	"0.0-5.0-2.0-1.30"	"2x5zxf"	"600"	"1366"	"chrome"	"111.0.0"	"FALSE"	"Windows 10"	"60.48"	"055"	n/a	n/a	n/a	n/a	n/a	n/a	"Trial"	n/a	n/a	n/a	"451"	"arrowdown"	n/a	"NULL"	"NULL"	"NULL"	"stimuli/MullerLyer_-8.21429_-0.23665.png"	n/a	"MullerLyer"	"arrowdown"	"1031"	"TRUE"	"MullerLyer"	"-8.214290000"	"-0.236650000"	"1"	"49"
n/a	"html-keyboard-response"	"115"	"299712"	"0.0-5.0-2.0-0.31"	"2x5zxf"	"600"	"1366"	"chrome"	"111.0.0"	"FALSE"	"Windows 10"	"60.48"	"055"	n/a	n/a	n/a	n/a	n/a	n/a	"fixation"	n/a	n/a	n/a	n/a	"NULL"	n/a	"NULL"	"NULL"	"NULL"	"<p style=\"color: black; font-size: 80px; padding-left: 10%; padding-right: 12%; padding-top: 0%; padding-bottom: 45%\">+</p>"	"1184"	n/a	n/a	n/a	n/a	n/a	n/a	n/a	n/a	n/a
n/a	"image-keyboard-response"	"116"	"300188"	"0.0-5.0-2.0-1.31"	"2x5zxf"	"600"	"1366"	"chrome"	"111.0.0"	"FALSE"	"Windows 10"	"60.48"	"055"	n/a	n/a	n/a	n/a	n/a	n/a	"Trial"	n/a	n/a	n/a	"476"	"arrowup"	n/a	"NULL"	"NULL"	"NULL"	"stimuli/MullerLyer_-8.21429_0.14541.png"	n/a	"MullerLyer"	"arrowup"	"1196"	"TRUE"	"MullerLyer"	"-8.214290000"	"0.1454100000"	"1"	"50"
n/a	"html-keyboard-response"	"117"	"301312"	"0.0-5.0-2.0-0.32"	"2x5zxf"	"600"	"1366"	"chrome"	"111.0.0"	"FALSE"	"Windows 10"	"60.48"	"055"	n/a	n/a	n/a	n/a	n/a	n/a	"fixation"	n/a	n/a	n/a	n/a	"NULL"	n/a	"NULL"	"NULL"	"NULL"	"<p style=\"color: black; font-size: 80px; padding-left: 10%; padding-right: 8%; padding-top: 13%; padding-bottom: 38%\">+</p>"	"1118"	n/a	n/a	n/a	n/a	n/a	n/a	n/a	n/a	n/a
n/a	"image-keyboard-response"	"118"	"302004"	"0.0-5.0-2.0-1.32"	"2x5zxf"	"600"	"1366"	"chrome"	"111.0.0"	"FALSE"	"Windows 10"	"60.48"	"055"	n/a	n/a	n/a	n/a	n/a	n/a	"Trial"	n/a	n/a	n/a	"692"	"arrowup"	n/a	"NULL"	"NULL"	"NULL"	"stimuli/MullerLyer_8.21429_0.35000.png"	n/a	"MullerLyer"	"arrowup"	"1124"	"TRUE"	"MullerLyer"	"8.2142900000"	"0.3500000000"	"1"	"51"
n/a	"html-keyboard-response"	"119"	"303491"	"0.0-5.0-2.0-0.33"	"2x5zxf"	"600"	"1366"	"chrome"	"111.0.0"	"FALSE"	"Windows 10"	"60.48"	"055"	n/a	n/a	n/a	n/a	n/a	n/a	"fixation"	n/a	n/a	n/a	n/a	"NULL"	n/a	"NULL"	"NULL"	"NULL"	"<p style=\"color: black; font-size: 80px; padding-left: 13%; padding-right: 18%; padding-top: 12%; padding-bottom: 49%\">+</p>"	"1480"	n/a	n/a	n/a	n/a	n/a	n/a	n/a	n/a	n/a
n/a	"image-keyboard-response"	"120"	"303929"	"0.0-5.0-2.0-1.33"	"2x5zxf"	"600"	"1366"	"chrome"	"111.0.0"	"FALSE"	"Windows 10"	"60.48"	"055"	n/a	n/a	n/a	n/a	n/a	n/a	"Trial"	n/a	n/a	n/a	"438"	"arrowup"	n/a	"NULL"	"NULL"	"NULL"	"stimuli/MullerLyer_-20.04286_0.14541.png"	n/a	"MullerLyer"	"arrowup"	"1487"	"TRUE"	"MullerLyer"	"-20.04286000"	"0.1454100000"	"1"	"52"
n/a	"html-keyboard-response"	"121"	"305135"	"0.0-5.0-2.0-0.34"	"2x5zxf"	"600"	"1366"	"chrome"	"111.0.0"	"FALSE"	"Windows 10"	"60.48"	"055"	n/a	n/a	n/a	n/a	n/a	n/a	"fixation"	n/a	n/a	n/a	n/a	"NULL"	n/a	"NULL"	"NULL"	"NULL"	"<p style=\"color: black; font-size: 80px; padding-left: 5%; padding-right: 45%; padding-top: 2%; padding-bottom: 28%\">+</p>"	"1201"	n/a	n/a	n/a	n/a	n/a	n/a	n/a	n/a	n/a
n/a	"image-keyboard-response"	"122"	"305592"	"0.0-5.0-2.0-1.34"	"2x5zxf"	"600"	"1366"	"chrome"	"111.0.0"	"FALSE"	"Windows 10"	"60.48"	"055"	n/a	n/a	n/a	n/a	n/a	n/a	"Trial"	n/a	n/a	n/a	"456"	"arrowdown"	n/a	"NULL"	"NULL"	"NULL"	"stimuli/MullerLyer_-2.3000_-0.3500.png"	n/a	"MullerLyer"	"arrowdown"	"1206"	"TRUE"	"MullerLyer"	"-2.300000000"	"-0.350000000"	"1"	"53"
n/a	"html-keyboard-response"	"123"	"306951"	"0.0-5.0-2.0-0.35"	"2x5zxf"	"600"	"1366"	"chrome"	"111.0.0"	"FALSE"	"Windows 10"	"60.48"	"055"	n/a	n/a	n/a	n/a	n/a	n/a	"fixation"	n/a	n/a	n/a	n/a	"NULL"	n/a	"NULL"	"NULL"	"NULL"	"<p style=\"color: black; font-size: 80px; padding-left: 36%; padding-right: 3%; padding-top: 47%; padding-bottom: 0%\">+</p>"	"1352"	n/a	n/a	n/a	n/a	n/a	n/a	n/a	n/a	n/a
n/a	"image-keyboard-response"	"124"	"307396"	"0.0-5.0-2.0-1.35"	"2x5zxf"	"600"	"1366"	"chrome"	"111.0.0"	"FALSE"	"Windows 10"	"60.48"	"055"	n/a	n/a	n/a	n/a	n/a	n/a	"Trial"	n/a	n/a	n/a	"445"	"arrowdown"	n/a	"NULL"	"NULL"	"NULL"	"stimuli/MullerLyer_-20.04286_-0.07627.png"	n/a	"MullerLyer"	"arrowdown"	"1359"	"TRUE"	"MullerLyer"	"-20.04286000"	"-0.076270000"	"1"	"54"
n/a	"html-keyboard-response"	"125"	"308659"	"0.0-5.0-2.0-0.36"	"2x5zxf"	"600"	"1366"	"chrome"	"111.0.0"	"FALSE"	"Windows 10"	"60.48"	"055"	n/a	n/a	n/a	n/a	n/a	n/a	"fixation"	n/a	n/a	n/a	n/a	"NULL"	n/a	"NULL"	"NULL"	"NULL"	"<p style=\"color: black; font-size: 80px; padding-left: 33%; padding-right: 26%; padding-top: 12%; padding-bottom: 26%\">+</p>"	"1258"	n/a	n/a	n/a	n/a	n/a	n/a	n/a	n/a	n/a
n/a	"image-keyboard-response"	"126"	"309082"	"0.0-5.0-2.0-1.36"	"2x5zxf"	"600"	"1366"	"chrome"	"111.0.0"	"FALSE"	"Windows 10"	"60.48"	"055"	n/a	n/a	n/a	n/a	n/a	n/a	"Trial"	n/a	n/a	n/a	"422"	"arrowup"	n/a	"NULL"	"NULL"	"NULL"	"stimuli/MullerLyer_-20.04286_0.23665.png"	n/a	"MullerLyer"	"arrowup"	"1263"	"TRUE"	"MullerLyer"	"-20.04286000"	"0.2366500000"	"1"	"55"
n/a	"html-keyboard-response"	"127"	"310558"	"0.0-5.0-2.0-0.37"	"2x5zxf"	"600"	"1366"	"chrome"	"111.0.0"	"FALSE"	"Windows 10"	"60.48"	"055"	n/a	n/a	n/a	n/a	n/a	n/a	"fixation"	n/a	n/a	n/a	n/a	"NULL"	n/a	"NULL"	"NULL"	"NULL"	"<p style=\"color: black; font-size: 80px; padding-left: 43%; padding-right: 19%; padding-top: 45%; padding-bottom: 42%\">+</p>"	"1474"	n/a	n/a	n/a	n/a	n/a	n/a	n/a	n/a	n/a
n/a	"image-keyboard-response"	"128"	"311040"	"0.0-5.0-2.0-1.37"	"2x5zxf"	"600"	"1366"	"chrome"	"111.0.0"	"FALSE"	"Windows 10"	"60.48"	"055"	n/a	n/a	n/a	n/a	n/a	n/a	"Trial"	n/a	n/a	n/a	"482"	"arrowdown"	n/a	"NULL"	"NULL"	"NULL"	"stimuli/MullerLyer_-2.3000_-0.07627.png"	n/a	"MullerLyer"	"arrowdown"	"1476"	"TRUE"	"MullerLyer"	"-2.300000000"	"-0.076270000"	"1"	"56"
n/a	"html-keyboard-response"	"129"	"312511"	"0.0-5.0-2.0-0.38"	"2x5zxf"	"600"	"1366"	"chrome"	"111.0.0"	"FALSE"	"Windows 10"	"60.48"	"055"	n/a	n/a	n/a	n/a	n/a	n/a	"fixation"	n/a	n/a	n/a	n/a	"NULL"	n/a	"NULL"	"NULL"	"NULL"	"<p style=\"color: black; font-size: 80px; padding-left: 37%; padding-right: 44%; padding-top: 6%; padding-bottom: 33%\">+</p>"	"1454"	n/a	n/a	n/a	n/a	n/a	n/a	n/a	n/a	n/a
n/a	"image-keyboard-response"	"130"	"313014"	"0.0-5.0-2.0-1.38"	"2x5zxf"	"600"	"1366"	"chrome"	"111.0.0"	"FALSE"	"Windows 10"	"60.48"	"055"	n/a	n/a	n/a	n/a	n/a	n/a	"Trial"	n/a	n/a	n/a	"503"	"arrowup"	n/a	"NULL"	"NULL"	"NULL"	"stimuli/MullerLyer_14.12857_-0.07627.png"	n/a	"MullerLyer"	"arrowdown"	"1471"	"FALSE"	"MullerLyer"	"14.128570000"	"-0.076270000"	"1"	"57"
n/a	"html-keyboard-response"	"131"	"314432"	"0.0-5.0-2.0-0.39"	"2x5zxf"	"600"	"1366"	"chrome"	"111.0.0"	"FALSE"	"Windows 10"	"60.48"	"055"	n/a	n/a	n/a	n/a	n/a	n/a	"fixation"	n/a	n/a	n/a	n/a	"NULL"	n/a	"NULL"	"NULL"	"NULL"	"<p style=\"color: black; font-size: 80px; padding-left: 39%; padding-right: 37%; padding-top: 49%; padding-bottom: 14%\">+</p>"	"1411"	n/a	n/a	n/a	n/a	n/a	n/a	n/a	n/a	n/a
n/a	"image-keyboard-response"	"132"	"314874"	"0.0-5.0-2.0-1.39"	"2x5zxf"	"600"	"1366"	"chrome"	"111.0.0"	"FALSE"	"Windows 10"	"60.48"	"055"	n/a	n/a	n/a	n/a	n/a	n/a	"Trial"	n/a	n/a	n/a	"442"	"arrowdown"	n/a	"NULL"	"NULL"	"NULL"	"stimuli/MullerLyer_-14.12857_-0.3500.png"	n/a	"MullerLyer"	"arrowdown"	"1418"	"TRUE"	"MullerLyer"	"-14.12857000"	"-0.350000000"	"1"	"58"
n/a	"html-keyboard-response"	"133"	"316255"	"0.0-5.0-2.0-0.40"	"2x5zxf"	"600"	"1366"	"chrome"	"111.0.0"	"FALSE"	"Windows 10"	"60.48"	"055"	n/a	n/a	n/a	n/a	n/a	n/a	"fixation"	n/a	n/a	n/a	n/a	"NULL"	n/a	"NULL"	"NULL"	"NULL"	"<p style=\"color: black; font-size: 80px; padding-left: 4%; padding-right: 12%; padding-top: 13%; padding-bottom: 5%\">+</p>"	"1377"	n/a	n/a	n/a	n/a	n/a	n/a	n/a	n/a	n/a
n/a	"image-keyboard-response"	"134"	"316692"	"0.0-5.0-2.0-1.40"	"2x5zxf"	"600"	"1366"	"chrome"	"111.0.0"	"FALSE"	"Windows 10"	"60.48"	"055"	n/a	n/a	n/a	n/a	n/a	n/a	"Trial"	n/a	n/a	n/a	"436"	"arrowup"	n/a	"NULL"	"NULL"	"NULL"	"stimuli/MullerLyer_-14.12857_0.23665.png"	n/a	"MullerLyer"	"arrowup"	"1381"	"TRUE"	"MullerLyer"	"-14.12857000"	"0.2366500000"	"1"	"59"
n/a	"html-keyboard-response"	"135"	"317709"	"0.0-5.0-2.0-0.41"	"2x5zxf"	"600"	"1366"	"chrome"	"111.0.0"	"FALSE"	"Windows 10"	"60.48"	"055"	n/a	n/a	n/a	n/a	n/a	n/a	"fixation"	n/a	n/a	n/a	n/a	"NULL"	n/a	"NULL"	"NULL"	"NULL"	"<p style=\"color: black; font-size: 80px; padding-left: 40%; padding-right: 21%; padding-top: 14%; padding-bottom: 23%\">+</p>"	"1014"	n/a	n/a	n/a	n/a	n/a	n/a	n/a	n/a	n/a
n/a	"image-keyboard-response"	"136"	"318330"	"0.0-5.0-2.0-1.41"	"2x5zxf"	"600"	"1366"	"chrome"	"111.0.0"	"FALSE"	"Windows 10"	"60.48"	"055"	n/a	n/a	n/a	n/a	n/a	n/a	"Trial"	n/a	n/a	n/a	"621"	"arrowup"	n/a	"NULL"	"NULL"	"NULL"	"stimuli/MullerLyer_-20.04286_0.35000.png"	n/a	"MullerLyer"	"arrowup"	"1017"	"TRUE"	"MullerLyer"	"-20.04286000"	"0.3500000000"	"1"	"60"
n/a	"html-keyboard-response"	"137"	"319619"	"0.0-5.0-2.0-0.42"	"2x5zxf"	"600"	"1366"	"chrome"	"111.0.0"	"FALSE"	"Windows 10"	"60.48"	"055"	n/a	n/a	n/a	n/a	n/a	n/a	"fixation"	n/a	n/a	n/a	n/a	"NULL"	n/a	"NULL"	"NULL"	"NULL"	"<p style=\"color: black; font-size: 80px; padding-left: 41%; padding-right: 29%; padding-top: 27%; padding-bottom: 19%\">+</p>"	"1273"	n/a	n/a	n/a	n/a	n/a	n/a	n/a	n/a	n/a
n/a	"image-keyboard-response"	"138"	"320095"	"0.0-5.0-2.0-1.42"	"2x5zxf"	"600"	"1366"	"chrome"	"111.0.0"	"FALSE"	"Windows 10"	"60.48"	"055"	n/a	n/a	n/a	n/a	n/a	n/a	"Trial"	n/a	n/a	n/a	"474"	"arrowdown"	n/a	"NULL"	"NULL"	"NULL"	"stimuli/MullerLyer_2.30000_-0.3500.png"	n/a	"MullerLyer"	"arrowdown"	"1289"	"TRUE"	"MullerLyer"	"2.3000000000"	"-0.350000000"	"1"	"61"
n/a	"html-keyboard-response"	"139"	"321229"	"0.0-5.0-2.0-0.43"	"2x5zxf"	"600"	"1366"	"chrome"	"111.0.0"	"FALSE"	"Windows 10"	"60.48"	"055"	n/a	n/a	n/a	n/a	n/a	n/a	"fixation"	n/a	n/a	n/a	n/a	"NULL"	n/a	"NULL"	"NULL"	"NULL"	"<p style=\"color: black; font-size: 80px; padding-left: 30%; padding-right: 3%; padding-top: 26%; padding-bottom: 6%\">+</p>"	"1130"	n/a	n/a	n/a	n/a	n/a	n/a	n/a	n/a	n/a
n/a	"image-keyboard-response"	"140"	"321861"	"0.0-5.0-2.0-1.43"	"2x5zxf"	"600"	"1366"	"chrome"	"111.0.0"	"FALSE"	"Windows 10"	"60.48"	"055"	n/a	n/a	n/a	n/a	n/a	n/a	"Trial"	n/a	n/a	n/a	"631"	"arrowup"	n/a	"NULL"	"NULL"	"NULL"	"stimuli/MullerLyer_8.21429_-0.14541.png"	n/a	"MullerLyer"	"arrowdown"	"1134"	"FALSE"	"MullerLyer"	"8.2142900000"	"-0.145410000"	"1"	"62"
n/a	"html-keyboard-response"	"141"	"323114"	"0.0-5.0-2.0-0.44"	"2x5zxf"	"600"	"1366"	"chrome"	"111.0.0"	"FALSE"	"Windows 10"	"60.48"	"055"	n/a	n/a	n/a	n/a	n/a	n/a	"fixation"	n/a	n/a	n/a	n/a	"NULL"	n/a	"NULL"	"NULL"	"NULL"	"<p style=\"color: black; font-size: 80px; padding-left: 19%; padding-right: 30%; padding-top: 40%; padding-bottom: 44%\">+</p>"	"1243"	n/a	n/a	n/a	n/a	n/a	n/a	n/a	n/a	n/a
n/a	"image-keyboard-response"	"142"	"323884"	"0.0-5.0-2.0-1.44"	"2x5zxf"	"600"	"1366"	"chrome"	"111.0.0"	"FALSE"	"Windows 10"	"60.48"	"055"	n/a	n/a	n/a	n/a	n/a	n/a	"Trial"	n/a	n/a	n/a	"769"	"arrowup"	n/a	"NULL"	"NULL"	"NULL"	"stimuli/MullerLyer_14.12857_-0.14541.png"	n/a	"MullerLyer"	"arrowdown"	"1253"	"FALSE"	"MullerLyer"	"14.128570000"	"-0.145410000"	"1"	"63"
n/a	"html-keyboard-response"	"143"	"324967"	"0.0-5.0-2.0-0.45"	"2x5zxf"	"600"	"1366"	"chrome"	"111.0.0"	"FALSE"	"Windows 10"	"60.48"	"055"	n/a	n/a	n/a	n/a	n/a	n/a	"fixation"	n/a	n/a	n/a	n/a	"NULL"	n/a	"NULL"	"NULL"	"NULL"	"<p style=\"color: black; font-size: 80px; padding-left: 46%; padding-right: 3%; padding-top: 39%; padding-bottom: 9%\">+</p>"	"1070"	n/a	n/a	n/a	n/a	n/a	n/a	n/a	n/a	n/a
n/a	"image-keyboard-response"	"144"	"325944"	"0.0-5.0-2.0-1.45"	"2x5zxf"	"600"	"1366"	"chrome"	"111.0.0"	"FALSE"	"Windows 10"	"60.48"	"055"	n/a	n/a	n/a	n/a	n/a	n/a	"Trial"	n/a	n/a	n/a	"976"	"arrowdown"	n/a	"NULL"	"NULL"	"NULL"	"stimuli/MullerLyer_14.12857_-0.23665.png"	n/a	"MullerLyer"	"arrowdown"	"1083"	"TRUE"	"MullerLyer"	"14.128570000"	"-0.236650000"	"1"	"64"
n/a	"html-keyboard-response"	"145"	"326996"	"0.0-5.0-2.0-0.46"	"2x5zxf"	"600"	"1366"	"chrome"	"111.0.0"	"FALSE"	"Windows 10"	"60.48"	"055"	n/a	n/a	n/a	n/a	n/a	n/a	"fixation"	n/a	n/a	n/a	n/a	"NULL"	n/a	"NULL"	"NULL"	"NULL"	"<p style=\"color: black; font-size: 80px; padding-left: 38%; padding-right: 42%; padding-top: 25%; padding-bottom: 38%\">+</p>"	"1049"	n/a	n/a	n/a	n/a	n/a	n/a	n/a	n/a	n/a
n/a	"image-keyboard-response"	"146"	"327570"	"0.0-5.0-2.0-1.46"	"2x5zxf"	"600"	"1366"	"chrome"	"111.0.0"	"FALSE"	"Windows 10"	"60.48"	"055"	n/a	n/a	n/a	n/a	n/a	n/a	"Trial"	n/a	n/a	n/a	"573"	"arrowup"	n/a	"NULL"	"NULL"	"NULL"	"stimuli/MullerLyer_-8.21429_0.35000.png"	n/a	"MullerLyer"	"arrowup"	"1052"	"TRUE"	"MullerLyer"	"-8.214290000"	"0.3500000000"	"1"	"65"
n/a	"html-keyboard-response"	"147"	"329033"	"0.0-5.0-2.0-0.47"	"2x5zxf"	"600"	"1366"	"chrome"	"111.0.0"	"FALSE"	"Windows 10"	"60.48"	"055"	n/a	n/a	n/a	n/a	n/a	n/a	"fixation"	n/a	n/a	n/a	n/a	"NULL"	n/a	"NULL"	"NULL"	"NULL"	"<p style=\"color: black; font-size: 80px; padding-left: 5%; padding-right: 13%; padding-top: 48%; padding-bottom: 38%\">+</p>"	"1459"	n/a	n/a	n/a	n/a	n/a	n/a	n/a	n/a	n/a
n/a	"image-keyboard-response"	"148"	"329573"	"0.0-5.0-2.0-1.47"	"2x5zxf"	"600"	"1366"	"chrome"	"111.0.0"	"FALSE"	"Windows 10"	"60.48"	"055"	n/a	n/a	n/a	n/a	n/a	n/a	"Trial"	n/a	n/a	n/a	"538"	"arrowup"	n/a	"NULL"	"NULL"	"NULL"	"stimuli/MullerLyer_20.04286_-0.14541.png"	n/a	"MullerLyer"	"arrowdown"	"1463"	"FALSE"	"MullerLyer"	"20.042860000"	"-0.145410000"	"1"	"66"
n/a	"html-keyboard-response"	"149"	"330707"	"0.0-5.0-2.0-0.48"	"2x5zxf"	"600"	"1366"	"chrome"	"111.0.0"	"FALSE"	"Windows 10"	"60.48"	"055"	n/a	n/a	n/a	n/a	n/a	n/a	"fixation"	n/a	n/a	n/a	n/a	"NULL"	n/a	"NULL"	"NULL"	"NULL"	"<p style=\"color: black; font-size: 80px; padding-left: 20%; padding-right: 26%; padding-top: 41%; padding-bottom: 43%\">+</p>"	"1131"	n/a	n/a	n/a	n/a	n/a	n/a	n/a	n/a	n/a
n/a	"image-keyboard-response"	"150"	"331183"	"0.0-5.0-2.0-1.48"	"2x5zxf"	"600"	"1366"	"chrome"	"111.0.0"	"FALSE"	"Windows 10"	"60.48"	"055"	n/a	n/a	n/a	n/a	n/a	n/a	"Trial"	n/a	n/a	n/a	"475"	"arrowdown"	n/a	"NULL"	"NULL"	"NULL"	"stimuli/MullerLyer_-14.12857_-0.23665.png"	n/a	"MullerLyer"	"arrowdown"	"1134"	"TRUE"	"MullerLyer"	"-14.12857000"	"-0.236650000"	"1"	"67"
n/a	"html-keyboard-response"	"151"	"332473"	"0.0-5.0-2.0-0.49"	"2x5zxf"	"600"	"1366"	"chrome"	"111.0.0"	"FALSE"	"Windows 10"	"60.48"	"055"	n/a	n/a	n/a	n/a	n/a	n/a	"fixation"	n/a	n/a	n/a	n/a	"NULL"	n/a	"NULL"	"NULL"	"NULL"	"<p style=\"color: black; font-size: 80px; padding-left: 5%; padding-right: 42%; padding-top: 47%; padding-bottom: 30%\">+</p>"	"1275"	n/a	n/a	n/a	n/a	n/a	n/a	n/a	n/a	n/a
n/a	"image-keyboard-response"	"152"	"332909"	"0.0-5.0-2.0-1.49"	"2x5zxf"	"600"	"1366"	"chrome"	"111.0.0"	"FALSE"	"Windows 10"	"60.48"	"055"	n/a	n/a	n/a	n/a	n/a	n/a	"Trial"	n/a	n/a	n/a	"436"	"arrowdown"	n/a	"NULL"	"NULL"	"NULL"	"stimuli/MullerLyer_20.04286_0.14541.png"	n/a	"MullerLyer"	"arrowup"	"1290"	"FALSE"	"MullerLyer"	"20.042860000"	"0.1454100000"	"1"	"68"
n/a	"html-keyboard-response"	"153"	"334385"	"0.0-5.0-2.0-0.50"	"2x5zxf"	"600"	"1366"	"chrome"	"111.0.0"	"FALSE"	"Windows 10"	"60.48"	"055"	n/a	n/a	n/a	n/a	n/a	n/a	"fixation"	n/a	n/a	n/a	n/a	"NULL"	n/a	"NULL"	"NULL"	"NULL"	"<p style=\"color: black; font-size: 80px; padding-left: 25%; padding-right: 14%; padding-top: 36%; padding-bottom: 42%\">+</p>"	"1475"	n/a	n/a	n/a	n/a	n/a	n/a	n/a	n/a	n/a
n/a	"image-keyboard-response"	"154"	"335147"	"0.0-5.0-2.0-1.50"	"2x5zxf"	"600"	"1366"	"chrome"	"111.0.0"	"FALSE"	"Windows 10"	"60.48"	"055"	n/a	n/a	n/a	n/a	n/a	n/a	"Trial"	n/a	n/a	n/a	"762"	"arrowdown"	n/a	"NULL"	"NULL"	"NULL"	"stimuli/MullerLyer_20.04286_0.07627.png"	n/a	"MullerLyer"	"arrowup"	"1476"	"FALSE"	"MullerLyer"	"20.042860000"	"0.0762700000"	"1"	"69"
n/a	"html-keyboard-response"	"155"	"336605"	"0.0-5.0-2.0-0.51"	"2x5zxf"	"600"	"1366"	"chrome"	"111.0.0"	"FALSE"	"Windows 10"	"60.48"	"055"	n/a	n/a	n/a	n/a	n/a	n/a	"fixation"	n/a	n/a	n/a	n/a	"NULL"	n/a	"NULL"	"NULL"	"NULL"	"<p style=\"color: black; font-size: 80px; padding-left: 19%; padding-right: 50%; padding-top: 35%; padding-bottom: 16%\">+</p>"	"1455"	n/a	n/a	n/a	n/a	n/a	n/a	n/a	n/a	n/a
n/a	"image-keyboard-response"	"156"	"337426"	"0.0-5.0-2.0-1.51"	"2x5zxf"	"600"	"1366"	"chrome"	"111.0.0"	"FALSE"	"Windows 10"	"60.48"	"055"	n/a	n/a	n/a	n/a	n/a	n/a	"Trial"	n/a	n/a	n/a	"820"	"arrowup"	n/a	"NULL"	"NULL"	"NULL"	"stimuli/MullerLyer_8.21429_0.07627.png"	n/a	"MullerLyer"	"arrowup"	"1458"	"TRUE"	"MullerLyer"	"8.2142900000"	"0.0762700000"	"1"	"70"
n/a	"html-keyboard-response"	"157"	"338821"	"0.0-5.0-2.0-0.52"	"2x5zxf"	"600"	"1366"	"chrome"	"111.0.0"	"FALSE"	"Windows 10"	"60.48"	"055"	n/a	n/a	n/a	n/a	n/a	n/a	"fixation"	n/a	n/a	n/a	n/a	"NULL"	n/a	"NULL"	"NULL"	"NULL"	"<p style=\"color: black; font-size: 80px; padding-left: 41%; padding-right: 44%; padding-top: 33%; padding-bottom: 35%\">+</p>"	"1382"	n/a	n/a	n/a	n/a	n/a	n/a	n/a	n/a	n/a
n/a	"image-keyboard-response"	"158"	"339346"	"0.0-5.0-2.0-1.52"	"2x5zxf"	"600"	"1366"	"chrome"	"111.0.0"	"FALSE"	"Windows 10"	"60.48"	"055"	n/a	n/a	n/a	n/a	n/a	n/a	"Trial"	n/a	n/a	n/a	"524"	"arrowup"	n/a	"NULL"	"NULL"	"NULL"	"stimuli/MullerLyer_-2.3000_0.35000.png"	n/a	"MullerLyer"	"arrowup"	"1395"	"TRUE"	"MullerLyer"	"-2.300000000"	"0.3500000000"	"1"	"71"
n/a	"html-keyboard-response"	"159"	"340735"	"0.0-5.0-2.0-0.53"	"2x5zxf"	"600"	"1366"	"chrome"	"111.0.0"	"FALSE"	"Windows 10"	"60.48"	"055"	n/a	n/a	n/a	n/a	n/a	n/a	"fixation"	n/a	n/a	n/a	n/a	"NULL"	n/a	"NULL"	"NULL"	"NULL"	"<p style=\"color: black; font-size: 80px; padding-left: 2%; padding-right: 6%; padding-top: 30%; padding-bottom: 40%\">+</p>"	"1373"	n/a	n/a	n/a	n/a	n/a	n/a	n/a	n/a	n/a
n/a	"image-keyboard-response"	"160"	"341290"	"0.0-5.0-2.0-1.53"	"2x5zxf"	"600"	"1366"	"chrome"	"111.0.0"	"FALSE"	"Windows 10"	"60.48"	"055"	n/a	n/a	n/a	n/a	n/a	n/a	"Trial"	n/a	n/a	n/a	"555"	"arrowup"	n/a	"NULL"	"NULL"	"NULL"	"stimuli/MullerLyer_-8.21429_0.23665.png"	n/a	"MullerLyer"	"arrowup"	"1389"	"TRUE"	"MullerLyer"	"-8.214290000"	"0.2366500000"	"1"	"72"
n/a	"html-keyboard-response"	"161"	"342369"	"0.0-5.0-2.0-0.54"	"2x5zxf"	"600"	"1366"	"chrome"	"111.0.0"	"FALSE"	"Windows 10"	"60.48"	"055"	n/a	n/a	n/a	n/a	n/a	n/a	"fixation"	n/a	n/a	n/a	n/a	"NULL"	n/a	"NULL"	"NULL"	"NULL"	"<p style=\"color: black; font-size: 80px; padding-left: 42%; padding-right: 33%; padding-top: 12%; padding-bottom: 47%\">+</p>"	"1064"	n/a	n/a	n/a	n/a	n/a	n/a	n/a	n/a	n/a
n/a	"image-keyboard-response"	"162"	"342824"	"0.0-5.0-2.0-1.54"	"2x5zxf"	"600"	"1366"	"chrome"	"111.0.0"	"FALSE"	"Windows 10"	"60.48"	"055"	n/a	n/a	n/a	n/a	n/a	n/a	"Trial"	n/a	n/a	n/a	"455"	"arrowup"	n/a	"NULL"	"NULL"	"NULL"	"stimuli/MullerLyer_2.30000_0.35000.png"	n/a	"MullerLyer"	"arrowup"	"1079"	"TRUE"	"MullerLyer"	"2.3000000000"	"0.3500000000"	"1"	"73"
n/a	"html-keyboard-response"	"163"	"343996"	"0.0-5.0-2.0-0.55"	"2x5zxf"	"600"	"1366"	"chrome"	"111.0.0"	"FALSE"	"Windows 10"	"60.48"	"055"	n/a	n/a	n/a	n/a	n/a	n/a	"fixation"	n/a	n/a	n/a	n/a	"NULL"	n/a	"NULL"	"NULL"	"NULL"	"<p style=\"color: black; font-size: 80px; padding-left: 7%; padding-right: 7%; padding-top: 13%; padding-bottom: 26%\">+</p>"	"1167"	n/a	n/a	n/a	n/a	n/a	n/a	n/a	n/a	n/a
n/a	"image-keyboard-response"	"164"	"344827"	"0.0-5.0-2.0-1.55"	"2x5zxf"	"600"	"1366"	"chrome"	"111.0.0"	"FALSE"	"Windows 10"	"60.48"	"055"	n/a	n/a	n/a	n/a	n/a	n/a	"Trial"	n/a	n/a	n/a	"830"	"arrowdown"	n/a	"NULL"	"NULL"	"NULL"	"stimuli/MullerLyer_2.30000_-0.07627.png"	n/a	"MullerLyer"	"arrowdown"	"1172"	"TRUE"	"MullerLyer"	"2.3000000000"	"-0.076270000"	"1"	"74"
n/a	"html-keyboard-response"	"165"	"346088"	"0.0-5.0-2.0-0.56"	"2x5zxf"	"600"	"1366"	"chrome"	"111.0.0"	"FALSE"	"Windows 10"	"60.48"	"055"	n/a	n/a	n/a	n/a	n/a	n/a	"fixation"	n/a	n/a	n/a	n/a	"NULL"	n/a	"NULL"	"NULL"	"NULL"	"<p style=\"color: black; font-size: 80px; padding-left: 20%; padding-right: 8%; padding-top: 15%; padding-bottom: 6%\">+</p>"	"1256"	n/a	n/a	n/a	n/a	n/a	n/a	n/a	n/a	n/a
n/a	"image-keyboard-response"	"166"	"346585"	"0.0-5.0-2.0-1.56"	"2x5zxf"	"600"	"1366"	"chrome"	"111.0.0"	"FALSE"	"Windows 10"	"60.48"	"055"	n/a	n/a	n/a	n/a	n/a	n/a	"Trial"	n/a	n/a	n/a	"496"	"arrowdown"	n/a	"NULL"	"NULL"	"NULL"	"stimuli/MullerLyer_14.12857_-0.3500.png"	n/a	"MullerLyer"	"arrowdown"	"1261"	"TRUE"	"MullerLyer"	"14.128570000"	"-0.350000000"	"1"	"75"
n/a	"html-keyboard-response"	"167"	"347587"	"0.0-5.0-2.0-0.57"	"2x5zxf"	"600"	"1366"	"chrome"	"111.0.0"	"FALSE"	"Windows 10"	"60.48"	"055"	n/a	n/a	n/a	n/a	n/a	n/a	"fixation"	n/a	n/a	n/a	n/a	"NULL"	n/a	"NULL"	"NULL"	"NULL"	"<p style=\"color: black; font-size: 80px; padding-left: 44%; padding-right: 26%; padding-top: 17%; padding-bottom: 16%\">+</p>"	"1001"	n/a	n/a	n/a	n/a	n/a	n/a	n/a	n/a	n/a
n/a	"image-keyboard-response"	"168"	"348328"	"0.0-5.0-2.0-1.57"	"2x5zxf"	"600"	"1366"	"chrome"	"111.0.0"	"FALSE"	"Windows 10"	"60.48"	"055"	n/a	n/a	n/a	n/a	n/a	n/a	"Trial"	n/a	n/a	n/a	"740"	"arrowup"	n/a	"NULL"	"NULL"	"NULL"	"stimuli/MullerLyer_8.21429_0.14541.png"	n/a	"MullerLyer"	"arrowup"	"1002"	"TRUE"	"MullerLyer"	"8.2142900000"	"0.1454100000"	"1"	"76"
n/a	"html-keyboard-response"	"169"	"349353"	"0.0-5.0-2.0-0.58"	"2x5zxf"	"600"	"1366"	"chrome"	"111.0.0"	"FALSE"	"Windows 10"	"60.48"	"055"	n/a	n/a	n/a	n/a	n/a	n/a	"fixation"	n/a	n/a	n/a	n/a	"NULL"	n/a	"NULL"	"NULL"	"NULL"	"<p style=\"color: black; font-size: 80px; padding-left: 10%; padding-right: 2%; padding-top: 47%; padding-bottom: 34%\">+</p>"	"1013"	n/a	n/a	n/a	n/a	n/a	n/a	n/a	n/a	n/a
n/a	"image-keyboard-response"	"170"	"349923"	"0.0-5.0-2.0-1.58"	"2x5zxf"	"600"	"1366"	"chrome"	"111.0.0"	"FALSE"	"Windows 10"	"60.48"	"055"	n/a	n/a	n/a	n/a	n/a	n/a	"Trial"	n/a	n/a	n/a	"569"	"arrowdown"	n/a	"NULL"	"NULL"	"NULL"	"stimuli/MullerLyer_-14.12857_-0.14541.png"	n/a	"MullerLyer"	"arrowdown"	"1025"	"TRUE"	"MullerLyer"	"-14.12857000"	"-0.145410000"	"1"	"77"
n/a	"html-keyboard-response"	"171"	"351369"	"0.0-5.0-2.0-0.59"	"2x5zxf"	"600"	"1366"	"chrome"	"111.0.0"	"FALSE"	"Windows 10"	"60.48"	"055"	n/a	n/a	n/a	n/a	n/a	n/a	"fixation"	n/a	n/a	n/a	n/a	"NULL"	n/a	"NULL"	"NULL"	"NULL"	"<p style=\"color: black; font-size: 80px; padding-left: 22%; padding-right: 49%; padding-top: 10%; padding-bottom: 38%\">+</p>"	"1439"	n/a	n/a	n/a	n/a	n/a	n/a	n/a	n/a	n/a
n/a	"image-keyboard-response"	"172"	"352043"	"0.0-5.0-2.0-1.59"	"2x5zxf"	"600"	"1366"	"chrome"	"111.0.0"	"FALSE"	"Windows 10"	"60.48"	"055"	n/a	n/a	n/a	n/a	n/a	n/a	"Trial"	n/a	n/a	n/a	"673"	"arrowdown"	n/a	"NULL"	"NULL"	"NULL"	"stimuli/MullerLyer_20.04286_-0.3500.png"	n/a	"MullerLyer"	"arrowdown"	"1446"	"TRUE"	"MullerLyer"	"20.042860000"	"-0.350000000"	"1"	"78"
n/a	"html-keyboard-response"	"173"	"353244"	"0.0-5.0-2.0-0.60"	"2x5zxf"	"600"	"1366"	"chrome"	"111.0.0"	"FALSE"	"Windows 10"	"60.48"	"055"	n/a	n/a	n/a	n/a	n/a	n/a	"fixation"	n/a	n/a	n/a	n/a	"NULL"	n/a	"NULL"	"NULL"	"NULL"	"<p style=\"color: black; font-size: 80px; padding-left: 29%; padding-right: 14%; padding-top: 19%; padding-bottom: 24%\">+</p>"	"1185"	n/a	n/a	n/a	n/a	n/a	n/a	n/a	n/a	n/a
n/a	"image-keyboard-response"	"174"	"353935"	"0.0-5.0-2.0-1.60"	"2x5zxf"	"600"	"1366"	"chrome"	"111.0.0"	"FALSE"	"Windows 10"	"60.48"	"055"	n/a	n/a	n/a	n/a	n/a	n/a	"Trial"	n/a	n/a	n/a	"690"	"arrowup"	n/a	"NULL"	"NULL"	"NULL"	"stimuli/MullerLyer_20.04286_0.23665.png"	n/a	"MullerLyer"	"arrowup"	"1201"	"TRUE"	"MullerLyer"	"20.042860000"	"0.2366500000"	"1"	"79"
n/a	"html-keyboard-response"	"175"	"355011"	"0.0-5.0-2.0-0.61"	"2x5zxf"	"600"	"1366"	"chrome"	"111.0.0"	"FALSE"	"Windows 10"	"60.48"	"055"	n/a	n/a	n/a	n/a	n/a	n/a	"fixation"	n/a	n/a	n/a	n/a	"NULL"	n/a	"NULL"	"NULL"	"NULL"	"<p style=\"color: black; font-size: 80px; padding-left: 32%; padding-right: 16%; padding-top: 11%; padding-bottom: 34%\">+</p>"	"1061"	n/a	n/a	n/a	n/a	n/a	n/a	n/a	n/a	n/a
n/a	"image-keyboard-response"	"176"	"355804"	"0.0-5.0-2.0-1.61"	"2x5zxf"	"600"	"1366"	"chrome"	"111.0.0"	"FALSE"	"Windows 10"	"60.48"	"055"	n/a	n/a	n/a	n/a	n/a	n/a	"Trial"	n/a	n/a	n/a	"792"	"arrowdown"	n/a	"NULL"	"NULL"	"NULL"	"stimuli/MullerLyer_-8.21429_-0.3500.png"	n/a	"MullerLyer"	"arrowdown"	"1076"	"TRUE"	"MullerLyer"	"-8.214290000"	"-0.350000000"	"1"	"80"
n/a	"html-keyboard-response"	"177"	"356963"	"0.0-5.0-2.0-0.62"	"2x5zxf"	"600"	"1366"	"chrome"	"111.0.0"	"FALSE"	"Windows 10"	"60.48"	"055"	n/a	n/a	n/a	n/a	n/a	n/a	"fixation"	n/a	n/a	n/a	n/a	"NULL"	n/a	"NULL"	"NULL"	"NULL"	"<p style=\"color: black; font-size: 80px; padding-left: 23%; padding-right: 8%; padding-top: 9%; padding-bottom: 7%\">+</p>"	"1158"	n/a	n/a	n/a	n/a	n/a	n/a	n/a	n/a	n/a
n/a	"image-keyboard-response"	"178"	"357554"	"0.0-5.0-2.0-1.62"	"2x5zxf"	"600"	"1366"	"chrome"	"111.0.0"	"FALSE"	"Windows 10"	"60.48"	"055"	n/a	n/a	n/a	n/a	n/a	n/a	"Trial"	n/a	n/a	n/a	"590"	"arrowup"	n/a	"NULL"	"NULL"	"NULL"	"stimuli/MullerLyer_-2.3000_0.07627.png"	n/a	"MullerLyer"	"arrowup"	"1159"	"TRUE"	"MullerLyer"	"-2.300000000"	"0.0762700000"	"1"	"81"
n/a	"html-keyboard-response"	"179"	"358851"	"0.0-5.0-2.0-0.63"	"2x5zxf"	"600"	"1366"	"chrome"	"111.0.0"	"FALSE"	"Windows 10"	"60.48"	"055"	n/a	n/a	n/a	n/a	n/a	n/a	"fixation"	n/a	n/a	n/a	n/a	"NULL"	n/a	"NULL"	"NULL"	"NULL"	"<p style=\"color: black; font-size: 80px; padding-left: 31%; padding-right: 25%; padding-top: 38%; padding-bottom: 12%\">+</p>"	"1294"	n/a	n/a	n/a	n/a	n/a	n/a	n/a	n/a	n/a
n/a	"image-keyboard-response"	"180"	"359277"	"0.0-5.0-2.0-1.63"	"2x5zxf"	"600"	"1366"	"chrome"	"111.0.0"	"FALSE"	"Windows 10"	"60.48"	"055"	n/a	n/a	n/a	n/a	n/a	n/a	"Trial"	n/a	n/a	n/a	"425"	"arrowup"	n/a	"NULL"	"NULL"	"NULL"	"stimuli/MullerLyer_-2.3000_0.14541.png"	n/a	"MullerLyer"	"arrowup"	"1297"	"TRUE"	"MullerLyer"	"-2.300000000"	"0.1454100000"	"1"	"82"
n/a	"html-button-response"	"181"	"364228"	"0.0-5.0-3.0"	"2x5zxf"	"600"	"1366"	"chrome"	"111.0.0"	"FALSE"	"Windows 10"	"60.48"	"055"	n/a	n/a	n/a	n/a	n/a	n/a	"block_results"	n/a	n/a	n/a	"4950"	"0"	n/a	"NULL"	"NULL"	"NULL"	"<p>Your score for this illusion is <p style=\"color: black; font-size: 48px; font-weight: bold;\">79.4 %</p><hr><p>Can you do better in the next illusion?</p>"	n/a	n/a	n/a	n/a	n/a	n/a	n/a	n/a	n/a	n/a
"TRUE"	"preload"	"182"	"364420"	"0.0-6.0-0.0"	"2x5zxf"	"600"	"1366"	"chrome"	"111.0.0"	"FALSE"	"Windows 10"	"60.48"	"055"	n/a	n/a	n/a	n/a	n/a	n/a	n/a	n/a	n/a	n/a	n/a	"NULL"	"FALSE"	"list()"	"list()"	"list()"	n/a	n/a	n/a	n/a	n/a	n/a	n/a	n/a	n/a	n/a	n/a
n/a	"html-keyboard-response"	"183"	"367651"	"0.0-6.0-1.0"	"2x5zxf"	"600"	"1366"	"chrome"	"111.0.0"	"FALSE"	"Windows 10"	"60.48"	"055"	n/a	n/a	n/a	n/a	n/a	n/a	n/a	n/a	n/a	n/a	"3231"	"enter"	n/a	"NULL"	"NULL"	"NULL"	"<p><b>Part 2/6</b></p><p>In this part, two red lines will appear side by side.</p><p>Your task is to tell <b>which line is longer</b> in length, regardless of their orientation, as fast as you can, and without making errors.</p><p>Don't get distracted by the orientation of the lines!</p><p>Press <b>the LEFT or the RIGHT arrow</b> to indicate which <b>line is the longer one.</b></p><div style='float: center'><img src='materials/instructions/VerticalHorizontal_Demo.png' height='300'></img><p><img src='utils/answer/answer_leftright_keyboard.PNG' height='150'></img></p><p class='small'>In this example, the correct answer is the <b>LEFT arrow</b>.</p></div><p>Are you ready? <b>Press ENTER to start</b></p>"	n/a	n/a	n/a	n/a	n/a	n/a	n/a	n/a	n/a	n/a
n/a	"html-keyboard-response"	"184"	"369496"	"0.0-6.0-2.0-0.0"	"2x5zxf"	"600"	"1366"	"chrome"	"111.0.0"	"FALSE"	"Windows 10"	"60.48"	"055"	n/a	n/a	n/a	n/a	n/a	n/a	"fixation"	n/a	n/a	n/a	n/a	"NULL"	n/a	"NULL"	"NULL"	"NULL"	"<p style=\"color: black; font-size: 80px; padding-left: 21%; padding-right: 1%; padding-top: 40%; padding-bottom: 26%\">+</p>"	"1326"	n/a	n/a	n/a	n/a	n/a	n/a	n/a	n/a	n/a
n/a	"image-keyboard-response"	"185"	"370334"	"0.0-6.0-2.0-1.0"	"2x5zxf"	"600"	"1366"	"chrome"	"111.0.0"	"FALSE"	"Windows 10"	"60.48"	"055"	n/a	n/a	n/a	n/a	n/a	n/a	"Trial"	n/a	n/a	n/a	"837"	"arrowleft"	n/a	"NULL"	"NULL"	"NULL"	"stimuli/VerticalHorizontal_28.75714_-0.0673.png"	n/a	"VerticalHorizontal"	"arrowright"	"1845"	"FALSE"	"VerticalHorizontal"	"28.757140000"	"-0.067300000"	"2"	"1"
n/a	"html-keyboard-response"	"186"	"371448"	"0.0-6.0-2.0-0.1"	"2x5zxf"	"600"	"1366"	"chrome"	"111.0.0"	"FALSE"	"Windows 10"	"60.48"	"055"	n/a	n/a	n/a	n/a	n/a	n/a	"fixation"	n/a	n/a	n/a	n/a	"NULL"	n/a	"NULL"	"NULL"	"NULL"	"<p style=\"color: black; font-size: 80px; padding-left: 0%; padding-right: 15%; padding-top: 28%; padding-bottom: 35%\">+</p>"	"1106"	n/a	n/a	n/a	n/a	n/a	n/a	n/a	n/a	n/a
n/a	"image-keyboard-response"	"187"	"371843"	"0.0-6.0-2.0-1.1"	"2x5zxf"	"600"	"1366"	"chrome"	"111.0.0"	"FALSE"	"Windows 10"	"60.48"	"055"	n/a	n/a	n/a	n/a	n/a	n/a	"Trial"	n/a	n/a	n/a	"394"	"arrowleft"	n/a	"NULL"	"NULL"	"NULL"	"stimuli/VerticalHorizontal_-3.3000_0.16217.png"	n/a	"VerticalHorizontal"	"arrowleft"	"1114"	"TRUE"	"VerticalHorizontal"	"-3.300000000"	"0.1621700000"	"2"	"2"
n/a	"html-keyboard-response"	"188"	"373037"	"0.0-6.0-2.0-0.2"	"2x5zxf"	"600"	"1366"	"chrome"	"111.0.0"	"FALSE"	"Windows 10"	"60.48"	"055"	n/a	n/a	n/a	n/a	n/a	n/a	"fixation"	n/a	n/a	n/a	n/a	"NULL"	n/a	"NULL"	"NULL"	"NULL"	"<p style=\"color: black; font-size: 80px; padding-left: 30%; padding-right: 36%; padding-top: 28%; padding-bottom: 25%\">+</p>"	"1183"	n/a	n/a	n/a	n/a	n/a	n/a	n/a	n/a	n/a
n/a	"image-keyboard-response"	"189"	"373447"	"0.0-6.0-2.0-1.2"	"2x5zxf"	"600"	"1366"	"chrome"	"111.0.0"	"FALSE"	"Windows 10"	"60.48"	"055"	n/a	n/a	n/a	n/a	n/a	n/a	"Trial"	n/a	n/a	n/a	"409"	"arrowright"	n/a	"NULL"	"NULL"	"NULL"	"stimuli/VerticalHorizontal_-20.27143_-0.2250.png"	n/a	"VerticalHorizontal"	"arrowright"	"1194"	"TRUE"	"VerticalHorizontal"	"-20.27143000"	"-0.225000000"	"2"	"3"
n/a	"html-keyboard-response"	"190"	"374594"	"0.0-6.0-2.0-0.3"	"2x5zxf"	"600"	"1366"	"chrome"	"111.0.0"	"FALSE"	"Windows 10"	"60.48"	"055"	n/a	n/a	n/a	n/a	n/a	n/a	"fixation"	n/a	n/a	n/a	n/a	"NULL"	n/a	"NULL"	"NULL"	"NULL"	"<p style=\"color: black; font-size: 80px; padding-left: 24%; padding-right: 11%; padding-top: 38%; padding-bottom: 37%\">+</p>"	"1138"	n/a	n/a	n/a	n/a	n/a	n/a	n/a	n/a	n/a
n/a	"image-keyboard-response"	"191"	"375451"	"0.0-6.0-2.0-1.3"	"2x5zxf"	"600"	"1366"	"chrome"	"111.0.0"	"FALSE"	"Windows 10"	"60.48"	"055"	n/a	n/a	n/a	n/a	n/a	n/a	"Trial"	n/a	n/a	n/a	"855"	"arrowleft"	n/a	"NULL"	"NULL"	"NULL"	"stimuli/VerticalHorizontal_20.27143_0.22500.png"	n/a	"VerticalHorizontal"	"arrowleft"	"1147"	"TRUE"	"VerticalHorizontal"	"20.271430000"	"0.2250000000"	"2"	"4"
n/a	"html-keyboard-response"	"192"	"376604"	"0.0-6.0-2.0-0.4"	"2x5zxf"	"600"	"1366"	"chrome"	"111.0.0"	"FALSE"	"Windows 10"	"60.48"	"055"	n/a	n/a	n/a	n/a	n/a	n/a	"fixation"	n/a	n/a	n/a	n/a	"NULL"	n/a	"NULL"	"NULL"	"NULL"	"<p style=\"color: black; font-size: 80px; padding-left: 33%; padding-right: 9%; padding-top: 13%; padding-bottom: 46%\">+</p>"	"1140"	n/a	n/a	n/a	n/a	n/a	n/a	n/a	n/a	n/a
n/a	"image-keyboard-response"	"193"	"377119"	"0.0-6.0-2.0-1.4"	"2x5zxf"	"600"	"1366"	"chrome"	"111.0.0"	"FALSE"	"Windows 10"	"60.48"	"055"	n/a	n/a	n/a	n/a	n/a	n/a	"Trial"	n/a	n/a	n/a	"515"	"arrowleft"	n/a	"NULL"	"NULL"	"NULL"	"stimuli/VerticalHorizontal_-3.3000_-0.0673.png"	n/a	"VerticalHorizontal"	"arrowright"	"1153"	"FALSE"	"VerticalHorizontal"	"-3.300000000"	"-0.067300000"	"2"	"5"
n/a	"html-keyboard-response"	"194"	"378544"	"0.0-6.0-2.0-0.5"	"2x5zxf"	"600"	"1366"	"chrome"	"111.0.0"	"FALSE"	"Windows 10"	"60.48"	"055"	n/a	n/a	n/a	n/a	n/a	n/a	"fixation"	n/a	n/a	n/a	n/a	"NULL"	n/a	"NULL"	"NULL"	"NULL"	"<p style=\"color: black; font-size: 80px; padding-left: 19%; padding-right: 8%; padding-top: 6%; padding-bottom: 13%\">+</p>"	"1418"	n/a	n/a	n/a	n/a	n/a	n/a	n/a	n/a	n/a
n/a	"image-keyboard-response"	"195"	"378992"	"0.0-6.0-2.0-1.5"	"2x5zxf"	"600"	"1366"	"chrome"	"111.0.0"	"FALSE"	"Windows 10"	"60.48"	"055"	n/a	n/a	n/a	n/a	n/a	n/a	"Trial"	n/a	n/a	n/a	"448"	"arrowleft"	n/a	"NULL"	"NULL"	"NULL"	"stimuli/VerticalHorizontal_-28.75714_0.16217.png"	n/a	"VerticalHorizontal"	"arrowleft"	"1425"	"TRUE"	"VerticalHorizontal"	"-28.75714000"	"0.1621700000"	"2"	"6"
n/a	"html-keyboard-response"	"196"	"380029"	"0.0-6.0-2.0-0.6"	"2x5zxf"	"600"	"1366"	"chrome"	"111.0.0"	"FALSE"	"Windows 10"	"60.48"	"055"	n/a	n/a	n/a	n/a	n/a	n/a	"fixation"	n/a	n/a	n/a	n/a	"NULL"	n/a	"NULL"	"NULL"	"NULL"	"<p style=\"color: black; font-size: 80px; padding-left: 46%; padding-right: 1%; padding-top: 42%; padding-bottom: 22%\">+</p>"	"1034"	n/a	n/a	n/a	n/a	n/a	n/a	n/a	n/a	n/a
n/a	"image-keyboard-response"	"197"	"380578"	"0.0-6.0-2.0-1.6"	"2x5zxf"	"600"	"1366"	"chrome"	"111.0.0"	"FALSE"	"Windows 10"	"60.48"	"055"	n/a	n/a	n/a	n/a	n/a	n/a	"Trial"	n/a	n/a	n/a	"548"	"arrowleft"	n/a	"NULL"	"NULL"	"NULL"	"stimuli/VerticalHorizontal_-3.3000_0.22500.png"	n/a	"VerticalHorizontal"	"arrowleft"	"1037"	"TRUE"	"VerticalHorizontal"	"-3.300000000"	"0.2250000000"	"2"	"7"
n/a	"html-keyboard-response"	"198"	"381893"	"0.0-6.0-2.0-0.7"	"2x5zxf"	"600"	"1366"	"chrome"	"111.0.0"	"FALSE"	"Windows 10"	"60.48"	"055"	n/a	n/a	n/a	n/a	n/a	n/a	"fixation"	n/a	n/a	n/a	n/a	"NULL"	n/a	"NULL"	"NULL"	"NULL"	"<p style=\"color: black; font-size: 80px; padding-left: 37%; padding-right: 25%; padding-top: 13%; padding-bottom: 3%\">+</p>"	"1314"	n/a	n/a	n/a	n/a	n/a	n/a	n/a	n/a	n/a
n/a	"image-keyboard-response"	"199"	"382304"	"0.0-6.0-2.0-1.7"	"2x5zxf"	"600"	"1366"	"chrome"	"111.0.0"	"FALSE"	"Windows 10"	"60.48"	"055"	n/a	n/a	n/a	n/a	n/a	n/a	"Trial"	n/a	n/a	n/a	"410"	"arrowleft"	n/a	"NULL"	"NULL"	"NULL"	"stimuli/VerticalHorizontal_-3.3000_0.06730.png"	n/a	"VerticalHorizontal"	"arrowleft"	"1315"	"TRUE"	"VerticalHorizontal"	"-3.300000000"	"0.0673000000"	"2"	"8"
n/a	"html-keyboard-response"	"200"	"383324"	"0.0-6.0-2.0-0.8"	"2x5zxf"	"600"	"1366"	"chrome"	"111.0.0"	"FALSE"	"Windows 10"	"60.48"	"055"	n/a	n/a	n/a	n/a	n/a	n/a	"fixation"	n/a	n/a	n/a	n/a	"NULL"	n/a	"NULL"	"NULL"	"NULL"	"<p style=\"color: black; font-size: 80px; padding-left: 12%; padding-right: 26%; padding-top: 35%; padding-bottom: 9%\">+</p>"	"1008"	n/a	n/a	n/a	n/a	n/a	n/a	n/a	n/a	n/a
n/a	"image-keyboard-response"	"201"	"383733"	"0.0-6.0-2.0-1.8"	"2x5zxf"	"600"	"1366"	"chrome"	"111.0.0"	"FALSE"	"Windows 10"	"60.48"	"055"	n/a	n/a	n/a	n/a	n/a	n/a	"Trial"	n/a	n/a	n/a	"408"	"arrowleft"	n/a	"NULL"	"NULL"	"NULL"	"stimuli/VerticalHorizontal_-20.27143_0.06730.png"	n/a	"VerticalHorizontal"	"arrowleft"	"1020"	"TRUE"	"VerticalHorizontal"	"-20.27143000"	"0.0673000000"	"2"	"9"
n/a	"html-keyboard-response"	"202"	"384762"	"0.0-6.0-2.0-0.9"	"2x5zxf"	"600"	"1366"	"chrome"	"111.0.0"	"FALSE"	"Windows 10"	"60.48"	"055"	n/a	n/a	n/a	n/a	n/a	n/a	"fixation"	n/a	n/a	n/a	n/a	"NULL"	n/a	"NULL"	"NULL"	"NULL"	"<p style=\"color: black; font-size: 80px; padding-left: 14%; padding-right: 31%; padding-top: 22%; padding-bottom: 50%\">+</p>"	"1022"	n/a	n/a	n/a	n/a	n/a	n/a	n/a	n/a	n/a
n/a	"image-keyboard-response"	"203"	"385161"	"0.0-6.0-2.0-1.9"	"2x5zxf"	"600"	"1366"	"chrome"	"111.0.0"	"FALSE"	"Windows 10"	"60.48"	"055"	n/a	n/a	n/a	n/a	n/a	n/a	"Trial"	n/a	n/a	n/a	"398"	"arrowleft"	n/a	"NULL"	"NULL"	"NULL"	"stimuli/VerticalHorizontal_28.75714_-0.1096.png"	n/a	"VerticalHorizontal"	"arrowright"	"1029"	"FALSE"	"VerticalHorizontal"	"28.757140000"	"-0.109600000"	"2"	"10"
n/a	"html-keyboard-response"	"204"	"386448"	"0.0-6.0-2.0-0.10"	"2x5zxf"	"600"	"1366"	"chrome"	"111.0.0"	"FALSE"	"Windows 10"	"60.48"	"055"	n/a	n/a	n/a	n/a	n/a	n/a	"fixation"	n/a	n/a	n/a	n/a	"NULL"	n/a	"NULL"	"NULL"	"NULL"	"<p style=\"color: black; font-size: 80px; padding-left: 46%; padding-right: 18%; padding-top: 2%; padding-bottom: 18%\">+</p>"	"1282"	n/a	n/a	n/a	n/a	n/a	n/a	n/a	n/a	n/a
n/a	"image-keyboard-response"	"205"	"386930"	"0.0-6.0-2.0-1.10"	"2x5zxf"	"600"	"1366"	"chrome"	"111.0.0"	"FALSE"	"Windows 10"	"60.48"	"055"	n/a	n/a	n/a	n/a	n/a	n/a	"Trial"	n/a	n/a	n/a	"480"	"arrowleft"	n/a	"NULL"	"NULL"	"NULL"	"stimuli/VerticalHorizontal_-20.27143_0.16217.png"	n/a	"VerticalHorizontal"	"arrowleft"	"1287"	"TRUE"	"VerticalHorizontal"	"-20.27143000"	"0.1621700000"	"2"	"11"
n/a	"html-keyboard-response"	"206"	"388032"	"0.0-6.0-2.0-0.11"	"2x5zxf"	"600"	"1366"	"chrome"	"111.0.0"	"FALSE"	"Windows 10"	"60.48"	"055"	n/a	n/a	n/a	n/a	n/a	n/a	"fixation"	n/a	n/a	n/a	n/a	"NULL"	n/a	"NULL"	"NULL"	"NULL"	"<p style=\"color: black; font-size: 80px; padding-left: 23%; padding-right: 25%; padding-top: 14%; padding-bottom: 4%\">+</p>"	"1099"	n/a	n/a	n/a	n/a	n/a	n/a	n/a	n/a	n/a
n/a	"image-keyboard-response"	"207"	"388577"	"0.0-6.0-2.0-1.11"	"2x5zxf"	"600"	"1366"	"chrome"	"111.0.0"	"FALSE"	"Windows 10"	"60.48"	"055"	n/a	n/a	n/a	n/a	n/a	n/a	"Trial"	n/a	n/a	n/a	"544"	"arrowright"	n/a	"NULL"	"NULL"	"NULL"	"stimuli/VerticalHorizontal_-11.78571_-0.16217.png"	n/a	"VerticalHorizontal"	"arrowright"	"1102"	"TRUE"	"VerticalHorizontal"	"-11.78571000"	"-0.162170000"	"2"	"12"
n/a	"html-keyboard-response"	"208"	"389932"	"0.0-6.0-2.0-0.12"	"2x5zxf"	"600"	"1366"	"chrome"	"111.0.0"	"FALSE"	"Windows 10"	"60.48"	"055"	n/a	n/a	n/a	n/a	n/a	n/a	"fixation"	n/a	n/a	n/a	n/a	"NULL"	n/a	"NULL"	"NULL"	"NULL"	"<p style=\"color: black; font-size: 80px; padding-left: 49%; padding-right: 48%; padding-top: 16%; padding-bottom: 34%\">+</p>"	"1346"	n/a	n/a	n/a	n/a	n/a	n/a	n/a	n/a	n/a
n/a	"image-keyboard-response"	"209"	"390443"	"0.0-6.0-2.0-1.12"	"2x5zxf"	"600"	"1366"	"chrome"	"111.0.0"	"FALSE"	"Windows 10"	"60.48"	"055"	n/a	n/a	n/a	n/a	n/a	n/a	"Trial"	n/a	n/a	n/a	"511"	"arrowright"	n/a	"NULL"	"NULL"	"NULL"	"stimuli/VerticalHorizontal_-20.27143_-0.16217.png"	n/a	"VerticalHorizontal"	"arrowright"	"1355"	"TRUE"	"VerticalHorizontal"	"-20.27143000"	"-0.162170000"	"2"	"13"
n/a	"html-keyboard-response"	"210"	"391847"	"0.0-6.0-2.0-0.13"	"2x5zxf"	"600"	"1366"	"chrome"	"111.0.0"	"FALSE"	"Windows 10"	"60.48"	"055"	n/a	n/a	n/a	n/a	n/a	n/a	"fixation"	n/a	n/a	n/a	n/a	"NULL"	n/a	"NULL"	"NULL"	"NULL"	"<p style=\"color: black; font-size: 80px; padding-left: 23%; padding-right: 33%; padding-top: 20%; padding-bottom: 34%\">+</p>"	"1396"	n/a	n/a	n/a	n/a	n/a	n/a	n/a	n/a	n/a
n/a	"image-keyboard-response"	"211"	"392240"	"0.0-6.0-2.0-1.13"	"2x5zxf"	"600"	"1366"	"chrome"	"111.0.0"	"FALSE"	"Windows 10"	"60.48"	"055"	n/a	n/a	n/a	n/a	n/a	n/a	"Trial"	n/a	n/a	n/a	"392"	"arrowleft"	n/a	"NULL"	"NULL"	"NULL"	"stimuli/VerticalHorizontal_-11.78571_0.16217.png"	n/a	"VerticalHorizontal"	"arrowleft"	"1404"	"TRUE"	"VerticalHorizontal"	"-11.78571000"	"0.1621700000"	"2"	"14"
n/a	"html-keyboard-response"	"212"	"393600"	"0.0-6.0-2.0-0.14"	"2x5zxf"	"600"	"1366"	"chrome"	"111.0.0"	"FALSE"	"Windows 10"	"60.48"	"055"	n/a	n/a	n/a	n/a	n/a	n/a	"fixation"	n/a	n/a	n/a	n/a	"NULL"	n/a	"NULL"	"NULL"	"NULL"	"<p style=\"color: black; font-size: 80px; padding-left: 10%; padding-right: 15%; padding-top: 39%; padding-bottom: 10%\">+</p>"	"1358"	n/a	n/a	n/a	n/a	n/a	n/a	n/a	n/a	n/a
n/a	"image-keyboard-response"	"213"	"394182"	"0.0-6.0-2.0-1.14"	"2x5zxf"	"600"	"1366"	"chrome"	"111.0.0"	"FALSE"	"Windows 10"	"60.48"	"055"	n/a	n/a	n/a	n/a	n/a	n/a	"Trial"	n/a	n/a	n/a	"581"	"arrowleft"	n/a	"NULL"	"NULL"	"NULL"	"stimuli/VerticalHorizontal_20.27143_0.16217.png"	n/a	"VerticalHorizontal"	"arrowleft"	"1360"	"TRUE"	"VerticalHorizontal"	"20.271430000"	"0.1621700000"	"2"	"15"
n/a	"html-keyboard-response"	"214"	"395509"	"0.0-6.0-2.0-0.15"	"2x5zxf"	"600"	"1366"	"chrome"	"111.0.0"	"FALSE"	"Windows 10"	"60.48"	"055"	n/a	n/a	n/a	n/a	n/a	n/a	"fixation"	n/a	n/a	n/a	n/a	"NULL"	n/a	"NULL"	"NULL"	"NULL"	"<p style=\"color: black; font-size: 80px; padding-left: 15%; padding-right: 4%; padding-top: 1%; padding-bottom: 41%\">+</p>"	"1316"	n/a	n/a	n/a	n/a	n/a	n/a	n/a	n/a	n/a
n/a	"image-keyboard-response"	"215"	"396058"	"0.0-6.0-2.0-1.15"	"2x5zxf"	"600"	"1366"	"chrome"	"111.0.0"	"FALSE"	"Windows 10"	"60.48"	"055"	n/a	n/a	n/a	n/a	n/a	n/a	"Trial"	n/a	n/a	n/a	"544"	"arrowright"	n/a	"NULL"	"NULL"	"NULL"	"stimuli/VerticalHorizontal_-3.3000_-0.1096.png"	n/a	"VerticalHorizontal"	"arrowright"	"1327"	"TRUE"	"VerticalHorizontal"	"-3.300000000"	"-0.109600000"	"2"	"16"
n/a	"html-keyboard-response"	"216"	"397257"	"0.0-6.0-2.0-0.16"	"2x5zxf"	"600"	"1366"	"chrome"	"111.0.0"	"FALSE"	"Windows 10"	"60.48"	"055"	n/a	n/a	n/a	n/a	n/a	n/a	"fixation"	n/a	n/a	n/a	n/a	"NULL"	n/a	"NULL"	"NULL"	"NULL"	"<p style=\"color: black; font-size: 80px; padding-left: 2%; padding-right: 34%; padding-top: 13%; padding-bottom: 10%\">+</p>"	"1185"	n/a	n/a	n/a	n/a	n/a	n/a	n/a	n/a	n/a
n/a	"image-keyboard-response"	"217"	"397721"	"0.0-6.0-2.0-1.16"	"2x5zxf"	"600"	"1366"	"chrome"	"111.0.0"	"FALSE"	"Windows 10"	"60.48"	"055"	n/a	n/a	n/a	n/a	n/a	n/a	"Trial"	n/a	n/a	n/a	"462"	"arrowright"	n/a	"NULL"	"NULL"	"NULL"	"stimuli/VerticalHorizontal_-3.3000_-0.2250.png"	n/a	"VerticalHorizontal"	"arrowright"	"1199"	"TRUE"	"VerticalHorizontal"	"-3.300000000"	"-0.225000000"	"2"	"17"
n/a	"html-keyboard-response"	"218"	"398894"	"0.0-6.0-2.0-0.17"	"2x5zxf"	"600"	"1366"	"chrome"	"111.0.0"	"FALSE"	"Windows 10"	"60.48"	"055"	n/a	n/a	n/a	n/a	n/a	n/a	"fixation"	n/a	n/a	n/a	n/a	"NULL"	n/a	"NULL"	"NULL"	"NULL"	"<p style=\"color: black; font-size: 80px; padding-left: 40%; padding-right: 29%; padding-top: 28%; padding-bottom: 4%\">+</p>"	"1161"	n/a	n/a	n/a	n/a	n/a	n/a	n/a	n/a	n/a
n/a	"image-keyboard-response"	"219"	"399527"	"0.0-6.0-2.0-1.17"	"2x5zxf"	"600"	"1366"	"chrome"	"111.0.0"	"FALSE"	"Windows 10"	"60.48"	"055"	n/a	n/a	n/a	n/a	n/a	n/a	"Trial"	n/a	n/a	n/a	"633"	"arrowright"	n/a	"NULL"	"NULL"	"NULL"	"stimuli/VerticalHorizontal_-28.75714_-0.2250.png"	n/a	"VerticalHorizontal"	"arrowright"	"1173"	"TRUE"	"VerticalHorizontal"	"-28.75714000"	"-0.225000000"	"2"	"18"
n/a	"html-keyboard-response"	"220"	"400785"	"0.0-6.0-2.0-0.18"	"2x5zxf"	"600"	"1366"	"chrome"	"111.0.0"	"FALSE"	"Windows 10"	"60.48"	"055"	n/a	n/a	n/a	n/a	n/a	n/a	"fixation"	n/a	n/a	n/a	n/a	"NULL"	n/a	"NULL"	"NULL"	"NULL"	"<p style=\"color: black; font-size: 80px; padding-left: 37%; padding-right: 2%; padding-top: 10%; padding-bottom: 38%\">+</p>"	"1243"	n/a	n/a	n/a	n/a	n/a	n/a	n/a	n/a	n/a
n/a	"image-keyboard-response"	"221"	"401634"	"0.0-6.0-2.0-1.18"	"2x5zxf"	"600"	"1366"	"chrome"	"111.0.0"	"FALSE"	"Windows 10"	"60.48"	"055"	n/a	n/a	n/a	n/a	n/a	n/a	"Trial"	n/a	n/a	n/a	"848"	"arrowleft"	n/a	"NULL"	"NULL"	"NULL"	"stimuli/VerticalHorizontal_20.27143_-0.0673.png"	n/a	"VerticalHorizontal"	"arrowright"	"1258"	"FALSE"	"VerticalHorizontal"	"20.271430000"	"-0.067300000"	"2"	"19"
n/a	"html-keyboard-response"	"222"	"402929"	"0.0-6.0-2.0-0.19"	"2x5zxf"	"600"	"1366"	"chrome"	"111.0.0"	"FALSE"	"Windows 10"	"60.48"	"055"	n/a	n/a	n/a	n/a	n/a	n/a	"fixation"	n/a	n/a	n/a	n/a	"NULL"	n/a	"NULL"	"NULL"	"NULL"	"<p style=\"color: black; font-size: 80px; padding-left: 35%; padding-right: 47%; padding-top: 20%; padding-bottom: 31%\">+</p>"	"1288"	n/a	n/a	n/a	n/a	n/a	n/a	n/a	n/a	n/a
n/a	"image-keyboard-response"	"223"	"403304"	"0.0-6.0-2.0-1.19"	"2x5zxf"	"600"	"1366"	"chrome"	"111.0.0"	"FALSE"	"Windows 10"	"60.48"	"055"	n/a	n/a	n/a	n/a	n/a	n/a	"Trial"	n/a	n/a	n/a	"374"	"arrowleft"	n/a	"NULL"	"NULL"	"NULL"	"stimuli/VerticalHorizontal_-11.78571_0.06730.png"	n/a	"VerticalHorizontal"	"arrowleft"	"1295"	"TRUE"	"VerticalHorizontal"	"-11.78571000"	"0.0673000000"	"2"	"20"
n/a	"html-keyboard-response"	"224"	"404765"	"0.0-6.0-2.0-0.20"	"2x5zxf"	"600"	"1366"	"chrome"	"111.0.0"	"FALSE"	"Windows 10"	"60.48"	"055"	n/a	n/a	n/a	n/a	n/a	n/a	"fixation"	n/a	n/a	n/a	n/a	"NULL"	n/a	"NULL"	"NULL"	"NULL"	"<p style=\"color: black; font-size: 80px; padding-left: 43%; padding-right: 19%; padding-top: 45%; padding-bottom: 22%\">+</p>"	"1460"	n/a	n/a	n/a	n/a	n/a	n/a	n/a	n/a	n/a
n/a	"image-keyboard-response"	"225"	"405167"	"0.0-6.0-2.0-1.20"	"2x5zxf"	"600"	"1366"	"chrome"	"111.0.0"	"FALSE"	"Windows 10"	"60.48"	"055"	n/a	n/a	n/a	n/a	n/a	n/a	"Trial"	n/a	n/a	n/a	"400"	"arrowright"	n/a	"NULL"	"NULL"	"NULL"	"stimuli/VerticalHorizontal_28.75714_0.16217.png"	n/a	"VerticalHorizontal"	"arrowleft"	"1461"	"FALSE"	"VerticalHorizontal"	"28.757140000"	"0.1621700000"	"2"	"21"
n/a	"html-keyboard-response"	"226"	"406306"	"0.0-6.0-2.0-0.21"	"2x5zxf"	"600"	"1366"	"chrome"	"111.0.0"	"FALSE"	"Windows 10"	"60.48"	"055"	n/a	n/a	n/a	n/a	n/a	n/a	"fixation"	n/a	n/a	n/a	n/a	"NULL"	n/a	"NULL"	"NULL"	"NULL"	"<p style=\"color: black; font-size: 80px; padding-left: 40%; padding-right: 50%; padding-top: 20%; padding-bottom: 38%\">+</p>"	"1131"	n/a	n/a	n/a	n/a	n/a	n/a	n/a	n/a	n/a
n/a	"image-keyboard-response"	"227"	"406970"	"0.0-6.0-2.0-1.21"	"2x5zxf"	"600"	"1366"	"chrome"	"111.0.0"	"FALSE"	"Windows 10"	"60.48"	"055"	n/a	n/a	n/a	n/a	n/a	n/a	"Trial"	n/a	n/a	n/a	"663"	"arrowleft"	n/a	"NULL"	"NULL"	"NULL"	"stimuli/VerticalHorizontal_3.30000_0.06730.png"	n/a	"VerticalHorizontal"	"arrowleft"	"1139"	"TRUE"	"VerticalHorizontal"	"3.3000000000"	"0.0673000000"	"2"	"22"
n/a	"html-keyboard-response"	"228"	"408308"	"0.0-6.0-2.0-0.22"	"2x5zxf"	"600"	"1366"	"chrome"	"111.0.0"	"FALSE"	"Windows 10"	"60.48"	"055"	n/a	n/a	n/a	n/a	n/a	n/a	"fixation"	n/a	n/a	n/a	n/a	"NULL"	n/a	"NULL"	"NULL"	"NULL"	"<p style=\"color: black; font-size: 80px; padding-left: 36%; padding-right: 19%; padding-top: 19%; padding-bottom: 34%\">+</p>"	"1337"	n/a	n/a	n/a	n/a	n/a	n/a	n/a	n/a	n/a
n/a	"image-keyboard-response"	"229"	"408996"	"0.0-6.0-2.0-1.22"	"2x5zxf"	"600"	"1366"	"chrome"	"111.0.0"	"FALSE"	"Windows 10"	"60.48"	"055"	n/a	n/a	n/a	n/a	n/a	n/a	"Trial"	n/a	n/a	n/a	"684"	"arrowleft"	n/a	"NULL"	"NULL"	"NULL"	"stimuli/VerticalHorizontal_28.75714_0.10960.png"	n/a	"VerticalHorizontal"	"arrowleft"	"1338"	"TRUE"	"VerticalHorizontal"	"28.757140000"	"0.1096000000"	"2"	"23"
n/a	"html-keyboard-response"	"230"	"410353"	"0.0-6.0-2.0-0.23"	"2x5zxf"	"600"	"1366"	"chrome"	"111.0.0"	"FALSE"	"Windows 10"	"60.48"	"055"	n/a	n/a	n/a	n/a	n/a	n/a	"fixation"	n/a	n/a	n/a	n/a	"NULL"	n/a	"NULL"	"NULL"	"NULL"	"<p style=\"color: black; font-size: 80px; padding-left: 12%; padding-right: 23%; padding-top: 46%; padding-bottom: 47%\">+</p>"	"1353"	n/a	n/a	n/a	n/a	n/a	n/a	n/a	n/a	n/a
n/a	"image-keyboard-response"	"231"	"410949"	"0.0-6.0-2.0-1.23"	"2x5zxf"	"600"	"1366"	"chrome"	"111.0.0"	"FALSE"	"Windows 10"	"60.48"	"055"	n/a	n/a	n/a	n/a	n/a	n/a	"Trial"	n/a	n/a	n/a	"595"	"arrowright"	n/a	"NULL"	"NULL"	"NULL"	"stimuli/VerticalHorizontal_-20.27143_-0.1096.png"	n/a	"VerticalHorizontal"	"arrowright"	"1357"	"TRUE"	"VerticalHorizontal"	"-20.27143000"	"-0.109600000"	"2"	"24"
n/a	"html-keyboard-response"	"232"	"412053"	"0.0-6.0-2.0-0.24"	"2x5zxf"	"600"	"1366"	"chrome"	"111.0.0"	"FALSE"	"Windows 10"	"60.48"	"055"	n/a	n/a	n/a	n/a	n/a	n/a	"fixation"	n/a	n/a	n/a	n/a	"NULL"	n/a	"NULL"	"NULL"	"NULL"	"<p style=\"color: black; font-size: 80px; padding-left: 46%; padding-right: 3%; padding-top: 38%; padding-bottom: 41%\">+</p>"	"1097"	n/a	n/a	n/a	n/a	n/a	n/a	n/a	n/a	n/a
n/a	"image-keyboard-response"	"233"	"412533"	"0.0-6.0-2.0-1.24"	"2x5zxf"	"600"	"1366"	"chrome"	"111.0.0"	"FALSE"	"Windows 10"	"60.48"	"055"	n/a	n/a	n/a	n/a	n/a	n/a	"Trial"	n/a	n/a	n/a	"479"	"arrowleft"	n/a	"NULL"	"NULL"	"NULL"	"stimuli/VerticalHorizontal_3.30000_0.16217.png"	n/a	"VerticalHorizontal"	"arrowleft"	"1104"	"TRUE"	"VerticalHorizontal"	"3.3000000000"	"0.1621700000"	"2"	"25"
n/a	"html-keyboard-response"	"234"	"413739"	"0.0-6.0-2.0-0.25"	"2x5zxf"	"600"	"1366"	"chrome"	"111.0.0"	"FALSE"	"Windows 10"	"60.48"	"055"	n/a	n/a	n/a	n/a	n/a	n/a	"fixation"	n/a	n/a	n/a	n/a	"NULL"	n/a	"NULL"	"NULL"	"NULL"	"<p style=\"color: black; font-size: 80px; padding-left: 43%; padding-right: 29%; padding-top: 13%; padding-bottom: 12%\">+</p>"	"1202"	n/a	n/a	n/a	n/a	n/a	n/a	n/a	n/a	n/a
n/a	"image-keyboard-response"	"235"	"414134"	"0.0-6.0-2.0-1.25"	"2x5zxf"	"600"	"1366"	"chrome"	"111.0.0"	"FALSE"	"Windows 10"	"60.48"	"055"	n/a	n/a	n/a	n/a	n/a	n/a	"Trial"	n/a	n/a	n/a	"394"	"arrowright"	n/a	"NULL"	"NULL"	"NULL"	"stimuli/VerticalHorizontal_-3.3000_-0.16217.png"	n/a	"VerticalHorizontal"	"arrowright"	"1206"	"TRUE"	"VerticalHorizontal"	"-3.300000000"	"-0.162170000"	"2"	"26"
n/a	"html-keyboard-response"	"236"	"415181"	"0.0-6.0-2.0-0.26"	"2x5zxf"	"600"	"1366"	"chrome"	"111.0.0"	"FALSE"	"Windows 10"	"60.48"	"055"	n/a	n/a	n/a	n/a	n/a	n/a	"fixation"	n/a	n/a	n/a	n/a	"NULL"	n/a	"NULL"	"NULL"	"NULL"	"<p style=\"color: black; font-size: 80px; padding-left: 28%; padding-right: 32%; padding-top: 11%; padding-bottom: 32%\">+</p>"	"1038"	n/a	n/a	n/a	n/a	n/a	n/a	n/a	n/a	n/a
n/a	"image-keyboard-response"	"237"	"415688"	"0.0-6.0-2.0-1.26"	"2x5zxf"	"600"	"1366"	"chrome"	"111.0.0"	"FALSE"	"Windows 10"	"60.48"	"055"	n/a	n/a	n/a	n/a	n/a	n/a	"Trial"	n/a	n/a	n/a	"507"	"arrowleft"	n/a	"NULL"	"NULL"	"NULL"	"stimuli/VerticalHorizontal_28.75714_0.22500.png"	n/a	"VerticalHorizontal"	"arrowleft"	"1047"	"TRUE"	"VerticalHorizontal"	"28.757140000"	"0.2250000000"	"2"	"27"
n/a	"html-keyboard-response"	"238"	"416964"	"0.0-6.0-2.0-0.27"	"2x5zxf"	"600"	"1366"	"chrome"	"111.0.0"	"FALSE"	"Windows 10"	"60.48"	"055"	n/a	n/a	n/a	n/a	n/a	n/a	"fixation"	n/a	n/a	n/a	n/a	"NULL"	n/a	"NULL"	"NULL"	"NULL"	"<p style=\"color: black; font-size: 80px; padding-left: 35%; padding-right: 38%; padding-top: 39%; padding-bottom: 7%\">+</p>"	"1272"	n/a	n/a	n/a	n/a	n/a	n/a	n/a	n/a	n/a
n/a	"image-keyboard-response"	"239"	"417446"	"0.0-6.0-2.0-1.27"	"2x5zxf"	"600"	"1366"	"chrome"	"111.0.0"	"FALSE"	"Windows 10"	"60.48"	"055"	n/a	n/a	n/a	n/a	n/a	n/a	"Trial"	n/a	n/a	n/a	"481"	"arrowright"	n/a	"NULL"	"NULL"	"NULL"	"stimuli/VerticalHorizontal_11.78571_-0.2250.png"	n/a	"VerticalHorizontal"	"arrowright"	"1276"	"TRUE"	"VerticalHorizontal"	"11.785710000"	"-0.225000000"	"2"	"28"
n/a	"html-keyboard-response"	"240"	"418946"	"0.0-6.0-2.0-0.28"	"2x5zxf"	"600"	"1366"	"chrome"	"111.0.0"	"FALSE"	"Windows 10"	"60.48"	"055"	n/a	n/a	n/a	n/a	n/a	n/a	"fixation"	n/a	n/a	n/a	n/a	"NULL"	n/a	"NULL"	"NULL"	"NULL"	"<p style=\"color: black; font-size: 80px; padding-left: 24%; padding-right: 2%; padding-top: 6%; padding-bottom: 7%\">+</p>"	"1488"	n/a	n/a	n/a	n/a	n/a	n/a	n/a	n/a	n/a
n/a	"image-keyboard-response"	"241"	"419744"	"0.0-6.0-2.0-1.28"	"2x5zxf"	"600"	"1366"	"chrome"	"111.0.0"	"FALSE"	"Windows 10"	"60.48"	"055"	n/a	n/a	n/a	n/a	n/a	n/a	"Trial"	n/a	n/a	n/a	"797"	"arrowleft"	n/a	"NULL"	"NULL"	"NULL"	"stimuli/VerticalHorizontal_-11.78571_0.10960.png"	n/a	"VerticalHorizontal"	"arrowleft"	"1500"	"TRUE"	"VerticalHorizontal"	"-11.78571000"	"0.1096000000"	"2"	"29"
n/a	"html-keyboard-response"	"242"	"421025"	"0.0-6.0-2.0-0.29"	"2x5zxf"	"600"	"1366"	"chrome"	"111.0.0"	"FALSE"	"Windows 10"	"60.48"	"055"	n/a	n/a	n/a	n/a	n/a	n/a	"fixation"	n/a	n/a	n/a	n/a	"NULL"	n/a	"NULL"	"NULL"	"NULL"	"<p style=\"color: black; font-size: 80px; padding-left: 33%; padding-right: 16%; padding-top: 41%; padding-bottom: 12%\">+</p>"	"1267"	n/a	n/a	n/a	n/a	n/a	n/a	n/a	n/a	n/a
n/a	"image-keyboard-response"	"243"	"421765"	"0.0-6.0-2.0-1.29"	"2x5zxf"	"600"	"1366"	"chrome"	"111.0.0"	"FALSE"	"Windows 10"	"60.48"	"055"	n/a	n/a	n/a	n/a	n/a	n/a	"Trial"	n/a	n/a	n/a	"740"	"arrowright"	n/a	"NULL"	"NULL"	"NULL"	"stimuli/VerticalHorizontal_28.75714_-0.2250.png"	n/a	"VerticalHorizontal"	"arrowright"	"1281"	"TRUE"	"VerticalHorizontal"	"28.757140000"	"-0.225000000"	"2"	"30"
n/a	"html-keyboard-response"	"244"	"422807"	"0.0-6.0-2.0-0.30"	"2x5zxf"	"600"	"1366"	"chrome"	"111.0.0"	"FALSE"	"Windows 10"	"60.48"	"055"	n/a	n/a	n/a	n/a	n/a	n/a	"fixation"	n/a	n/a	n/a	n/a	"NULL"	n/a	"NULL"	"NULL"	"NULL"	"<p style=\"color: black; font-size: 80px; padding-left: 25%; padding-right: 45%; padding-top: 2%; padding-bottom: 20%\">+</p>"	"1037"	n/a	n/a	n/a	n/a	n/a	n/a	n/a	n/a	n/a
n/a	"image-keyboard-response"	"245"	"423286"	"0.0-6.0-2.0-1.30"	"2x5zxf"	"600"	"1366"	"chrome"	"111.0.0"	"FALSE"	"Windows 10"	"60.48"	"055"	n/a	n/a	n/a	n/a	n/a	n/a	"Trial"	n/a	n/a	n/a	"478"	"arrowright"	n/a	"NULL"	"NULL"	"NULL"	"stimuli/VerticalHorizontal_20.27143_-0.2250.png"	n/a	"VerticalHorizontal"	"arrowright"	"1042"	"TRUE"	"VerticalHorizontal"	"20.271430000"	"-0.225000000"	"2"	"31"
n/a	"html-keyboard-response"	"246"	"424478"	"0.0-6.0-2.0-0.31"	"2x5zxf"	"600"	"1366"	"chrome"	"111.0.0"	"FALSE"	"Windows 10"	"60.48"	"055"	n/a	n/a	n/a	n/a	n/a	n/a	"fixation"	n/a	n/a	n/a	n/a	"NULL"	n/a	"NULL"	"NULL"	"NULL"	"<p style=\"color: black; font-size: 80px; padding-left: 31%; padding-right: 26%; padding-top: 14%; padding-bottom: 8%\">+</p>"	"1179"	n/a	n/a	n/a	n/a	n/a	n/a	n/a	n/a	n/a
n/a	"image-keyboard-response"	"247"	"425039"	"0.0-6.0-2.0-1.31"	"2x5zxf"	"600"	"1366"	"chrome"	"111.0.0"	"FALSE"	"Windows 10"	"60.48"	"055"	n/a	n/a	n/a	n/a	n/a	n/a	"Trial"	n/a	n/a	n/a	"560"	"arrowright"	n/a	"NULL"	"NULL"	"NULL"	"stimuli/VerticalHorizontal_11.78571_-0.16217.png"	n/a	"VerticalHorizontal"	"arrowright"	"1192"	"TRUE"	"VerticalHorizontal"	"11.785710000"	"-0.162170000"	"2"	"32"
n/a	"html-keyboard-response"	"248"	"426542"	"0.0-6.0-2.0-0.32"	"2x5zxf"	"600"	"1366"	"chrome"	"111.0.0"	"FALSE"	"Windows 10"	"60.48"	"055"	n/a	n/a	n/a	n/a	n/a	n/a	"fixation"	n/a	n/a	n/a	n/a	"NULL"	n/a	"NULL"	"NULL"	"NULL"	"<p style=\"color: black; font-size: 80px; padding-left: 20%; padding-right: 33%; padding-top: 25%; padding-bottom: 18%\">+</p>"	"1498"	n/a	n/a	n/a	n/a	n/a	n/a	n/a	n/a	n/a
n/a	"image-keyboard-response"	"249"	"427048"	"0.0-6.0-2.0-1.32"	"2x5zxf"	"600"	"1366"	"chrome"	"111.0.0"	"FALSE"	"Windows 10"	"60.48"	"055"	n/a	n/a	n/a	n/a	n/a	n/a	"Trial"	n/a	n/a	n/a	"506"	"arrowleft"	n/a	"NULL"	"NULL"	"NULL"	"stimuli/VerticalHorizontal_11.78571_0.10960.png"	n/a	"VerticalHorizontal"	"arrowleft"	"1503"	"TRUE"	"VerticalHorizontal"	"11.785710000"	"0.1096000000"	"2"	"33"
n/a	"html-keyboard-response"	"250"	"428432"	"0.0-6.0-2.0-0.33"	"2x5zxf"	"600"	"1366"	"chrome"	"111.0.0"	"FALSE"	"Windows 10"	"60.48"	"055"	n/a	n/a	n/a	n/a	n/a	n/a	"fixation"	n/a	n/a	n/a	n/a	"NULL"	n/a	"NULL"	"NULL"	"NULL"	"<p style=\"color: black; font-size: 80px; padding-left: 42%; padding-right: 20%; padding-top: 29%; padding-bottom: 1%\">+</p>"	"1382"	n/a	n/a	n/a	n/a	n/a	n/a	n/a	n/a	n/a
n/a	"image-keyboard-response"	"251"	"429389"	"0.0-6.0-2.0-1.33"	"2x5zxf"	"600"	"1366"	"chrome"	"111.0.0"	"FALSE"	"Windows 10"	"60.48"	"055"	n/a	n/a	n/a	n/a	n/a	n/a	"Trial"	n/a	n/a	n/a	"956"	"arrowleft"	n/a	"NULL"	"NULL"	"NULL"	"stimuli/VerticalHorizontal_11.78571_0.22500.png"	n/a	"VerticalHorizontal"	"arrowleft"	"1384"	"TRUE"	"VerticalHorizontal"	"11.785710000"	"0.2250000000"	"2"	"34"
