"success"	"trial_type"	"trial_index"	"time_elapsed"	"internal_node_id"	"participant_id"	"screen_height"	"screen_width"	"browser"	"browser_version"	"mobile"	"os"	"vsync_rate"	"subject_id"	"width"	"height"	"webaudio"	"fullscreen"	"webcam"	"microphone"	"screen"	"version"	"date"	"time"	"rt"	"response"	"timeout"	"failed_images"	"failed_audio"	"failed_video"	"stimulus"	"trial_duration"	"block"	"correct_response"	"prestimulus_duration"	"correct"	"type"	"illusion_strength"	"illusion_difference"	"block_number"	"trial_number"
"TRUE"	"fullscreen"	"0"	"7200590"	"0.0-0.0"	"f6ztws"	"600"	"1366"	"chrome"	"109.0.0"	"FALSE"	"Windows 10"	"60.41"	"023"	n/a	n/a	n/a	n/a	n/a	n/a	n/a	n/a	n/a	n/a	n/a	"NULL"	n/a	"NULL"	"NULL"	"NULL"	n/a	n/a	n/a	n/a	n/a	n/a	n/a	n/a	n/a	n/a	n/a
n/a	"browser-check"	"1"	"7201600"	"0.0-1.0"	"f6ztws"	"600"	"1366"	"chrome"	"109.0.0"	"FALSE"	"Windows 10"	"60.41"	"023"	"1366"	"600"	"TRUE"	"TRUE"	"TRUE"	"TRUE"	"browser_info"	"1.0"	"23/02/2023"	"13:26:35"	n/a	"NULL"	n/a	"NULL"	"NULL"	"NULL"	n/a	n/a	n/a	n/a	n/a	n/a	n/a	n/a	n/a	n/a	n/a
n/a	"survey-text"	"2"	"7208155"	"0.0-2.0"	"f6ztws"	"600"	"1366"	"chrome"	"109.0.0"	"FALSE"	"Windows 10"	"60.41"	"023"	n/a	n/a	n/a	n/a	n/a	n/a	"subject_id"	n/a	n/a	n/a	"6553"	"list(subject_id = \"023\")"	n/a	"NULL"	"NULL"	"NULL"	n/a	n/a	n/a	n/a	n/a	n/a	n/a	n/a	n/a	n/a	n/a
"TRUE"	"preload"	"3"	"7208168"	"0.0-3.0"	"f6ztws"	"600"	"1366"	"chrome"	"109.0.0"	"FALSE"	"Windows 10"	"60.41"	"023"	n/a	n/a	n/a	n/a	n/a	n/a	n/a	n/a	n/a	n/a	n/a	"NULL"	"FALSE"	"list()"	"list()"	"list()"	n/a	n/a	n/a	n/a	n/a	n/a	n/a	n/a	n/a	n/a	n/a
n/a	"html-button-response"	"4"	"7267151"	"0.0-4.0-0.0"	"f6ztws"	"600"	"1366"	"chrome"	"109.0.0"	"FALSE"	"Windows 10"	"60.41"	"023"	n/a	n/a	n/a	n/a	n/a	n/a	"illusion_instructions"	n/a	n/a	n/a	"58978"	"0"	n/a	"NULL"	"NULL"	"NULL"	"<p><b>Illusion Game</b></p><p>In this game of speed and reflex, you will need to make <b>visual judgments</b> (for instance, which circle is the biggest, or which line is the longest), as fast and as correctly as possible, while <b>resisting different visual illusions</b>.</p><p>We are going to start with some examples of all the illusions you will encounter in the game.</p>"	n/a	n/a	n/a	n/a	n/a	n/a	n/a	n/a	n/a	n/a
"TRUE"	"preload"	"5"	"7267175"	"0.0-4.0-1.0-0.0"	"f6ztws"	"600"	"1366"	"chrome"	"109.0.0"	"FALSE"	"Windows 10"	"60.41"	"023"	n/a	n/a	n/a	n/a	n/a	n/a	n/a	n/a	n/a	n/a	n/a	"NULL"	"FALSE"	"list()"	"list()"	"list()"	n/a	n/a	n/a	n/a	n/a	n/a	n/a	n/a	n/a	n/a	n/a
n/a	"html-keyboard-response"	"6"	"7292635"	"0.0-4.0-1.0-1.0"	"f6ztws"	"600"	"1366"	"chrome"	"109.0.0"	"FALSE"	"Windows 10"	"60.41"	"023"	n/a	n/a	n/a	n/a	n/a	n/a	n/a	n/a	n/a	n/a	"25459"	"enter"	n/a	"NULL"	"NULL"	"NULL"	"<p><b>Practice</b></p><p>In this part, two red circles will appear side by side on the screen.</p><p>Your task is to select which <b>red circle is bigger</b> in size as fast as you can, without making errors.</p><p>Don't get distracted by the surrounding black circles around the red circles!</p><p>Press <b>the LEFT or the RIGHT arrow</b> to indicate which is the bigger <b>red circle.</b></p><div style='float: center'><img src='materials/instructions/Ebbinghaus_Demo.png' height='300'></img><p><img src='utils/answer/answer_leftright_keyboard.PNG' height='150'></img></p><p class='small'>In this example, the correct answer is the <b>LEFT arrow</b>.</p></div><p>Are you ready? <b>Press ENTER to start</b></p>"	n/a	n/a	n/a	n/a	n/a	n/a	n/a	n/a	n/a	n/a
n/a	"html-keyboard-response"	"7"	"7294504"	"0.0-4.0-1.0-2.0-0.0"	"f6ztws"	"600"	"1366"	"chrome"	"109.0.0"	"FALSE"	"Windows 10"	"60.41"	"023"	n/a	n/a	n/a	n/a	n/a	n/a	"fixation"	n/a	n/a	n/a	n/a	"NULL"	n/a	"NULL"	"NULL"	"NULL"	"<p style=\"color: black; font-size: 80px; padding-left: 6%; padding-right: 40%; padding-top: 35%; padding-bottom: 10%\">+</p>"	"1341"	n/a	n/a	n/a	n/a	n/a	n/a	n/a	n/a	n/a
n/a	"image-keyboard-response"	"8"	"7298526"	"0.0-4.0-1.0-2.0-1.0"	"f6ztws"	"600"	"1366"	"chrome"	"109.0.0"	"FALSE"	"Windows 10"	"60.41"	"023"	n/a	n/a	n/a	n/a	n/a	n/a	"Trial"	n/a	n/a	n/a	"4021"	"arrowright"	n/a	"NULL"	"NULL"	"NULL"	"stimuli/Ebbinghaus_1000000_-1.4000.png"	n/a	"Ebbinghaus"	"arrowright"	"1869"	"TRUE"	"Ebbinghaus"	"100000000000"	"-1.400000000"	"1"	"1"
n/a	"html-keyboard-response"	"9"	"7299834"	"0.0-4.0-1.0-2.0-0.1"	"f6ztws"	"600"	"1366"	"chrome"	"109.0.0"	"FALSE"	"Windows 10"	"60.41"	"023"	n/a	n/a	n/a	n/a	n/a	n/a	"fixation"	n/a	n/a	n/a	n/a	"NULL"	n/a	"NULL"	"NULL"	"NULL"	"<p style=\"color: black; font-size: 80px; padding-left: 48%; padding-right: 3%; padding-top: 35%; padding-bottom: 48%\">+</p>"	"1290"	n/a	n/a	n/a	n/a	n/a	n/a	n/a	n/a	n/a
n/a	"image-keyboard-response"	"10"	"7301706"	"0.0-4.0-1.0-2.0-1.1"	"f6ztws"	"600"	"1366"	"chrome"	"109.0.0"	"FALSE"	"Windows 10"	"60.41"	"023"	n/a	n/a	n/a	n/a	n/a	n/a	"Trial"	n/a	n/a	n/a	"1871"	"arrowleft"	n/a	"NULL"	"NULL"	"NULL"	"stimuli/Ebbinghaus_-100000_1.40000.png"	n/a	"Ebbinghaus"	"arrowleft"	"1308"	"TRUE"	"Ebbinghaus"	"-10000000000"	"1.4000000000"	"1"	"2"
n/a	"html-keyboard-response"	"11"	"7303170"	"0.0-4.0-1.0-2.0-0.2"	"f6ztws"	"600"	"1366"	"chrome"	"109.0.0"	"FALSE"	"Windows 10"	"60.41"	"023"	n/a	n/a	n/a	n/a	n/a	n/a	"fixation"	n/a	n/a	n/a	n/a	"NULL"	n/a	"NULL"	"NULL"	"NULL"	"<p style=\"color: black; font-size: 80px; padding-left: 45%; padding-right: 3%; padding-top: 43%; padding-bottom: 2%\">+</p>"	"1454"	n/a	n/a	n/a	n/a	n/a	n/a	n/a	n/a	n/a
n/a	"image-keyboard-response"	"12"	"7303748"	"0.0-4.0-1.0-2.0-1.2"	"f6ztws"	"600"	"1366"	"chrome"	"109.0.0"	"FALSE"	"Windows 10"	"60.41"	"023"	n/a	n/a	n/a	n/a	n/a	n/a	"Trial"	n/a	n/a	n/a	"577"	"arrowleft"	n/a	"NULL"	"NULL"	"NULL"	"stimuli/Ebbinghaus_1000000_1.40000.png"	n/a	"Ebbinghaus"	"arrowleft"	"1464"	"TRUE"	"Ebbinghaus"	"100000000000"	"1.4000000000"	"1"	"3"
n/a	"html-keyboard-response"	"13"	"7305136"	"0.0-4.0-1.0-2.0-0.3"	"f6ztws"	"600"	"1366"	"chrome"	"109.0.0"	"FALSE"	"Windows 10"	"60.41"	"023"	n/a	n/a	n/a	n/a	n/a	n/a	"fixation"	n/a	n/a	n/a	n/a	"NULL"	n/a	"NULL"	"NULL"	"NULL"	"<p style=\"color: black; font-size: 80px; padding-left: 19%; padding-right: 13%; padding-top: 48%; padding-bottom: 41%\">+</p>"	"1373"	n/a	n/a	n/a	n/a	n/a	n/a	n/a	n/a	n/a
n/a	"image-keyboard-response"	"14"	"7305687"	"0.0-4.0-1.0-2.0-1.3"	"f6ztws"	"600"	"1366"	"chrome"	"109.0.0"	"FALSE"	"Windows 10"	"60.41"	"023"	n/a	n/a	n/a	n/a	n/a	n/a	"Trial"	n/a	n/a	n/a	"550"	"arrowright"	n/a	"NULL"	"NULL"	"NULL"	"stimuli/Ebbinghaus_-100000_-1.4000.png"	n/a	"Ebbinghaus"	"arrowright"	"1388"	"TRUE"	"Ebbinghaus"	"-10000000000"	"-1.400000000"	"1"	"4"
n/a	"html-keyboard-response"	"15"	"7306964"	"0.0-4.0-1.0-2.0-0.4"	"f6ztws"	"600"	"1366"	"chrome"	"109.0.0"	"FALSE"	"Windows 10"	"60.41"	"023"	n/a	n/a	n/a	n/a	n/a	n/a	"fixation"	n/a	n/a	n/a	n/a	"NULL"	n/a	"NULL"	"NULL"	"NULL"	"<p style=\"color: black; font-size: 80px; padding-left: 31%; padding-right: 14%; padding-top: 41%; padding-bottom: 44%\">+</p>"	"1259"	n/a	n/a	n/a	n/a	n/a	n/a	n/a	n/a	n/a
n/a	"image-keyboard-response"	"16"	"7307575"	"0.0-4.0-1.0-2.0-1.4"	"f6ztws"	"600"	"1366"	"chrome"	"109.0.0"	"FALSE"	"Windows 10"	"60.41"	"023"	n/a	n/a	n/a	n/a	n/a	n/a	"Trial"	n/a	n/a	n/a	"611"	"arrowright"	n/a	"NULL"	"NULL"	"NULL"	"stimuli/Ebbinghaus_0000000_-1.4000.png"	n/a	"Ebbinghaus"	"arrowright"	"1277"	"TRUE"	"Ebbinghaus"	"000000000000"	"-1.400000000"	"1"	"5"
n/a	"html-keyboard-response"	"17"	"7308881"	"0.0-4.0-1.0-2.0-0.5"	"f6ztws"	"600"	"1366"	"chrome"	"109.0.0"	"FALSE"	"Windows 10"	"60.41"	"023"	n/a	n/a	n/a	n/a	n/a	n/a	"fixation"	n/a	n/a	n/a	n/a	"NULL"	n/a	"NULL"	"NULL"	"NULL"	"<p style=\"color: black; font-size: 80px; padding-left: 41%; padding-right: 25%; padding-top: 42%; padding-bottom: 35%\">+</p>"	"1293"	n/a	n/a	n/a	n/a	n/a	n/a	n/a	n/a	n/a
n/a	"image-keyboard-response"	"18"	"7309477"	"0.0-4.0-1.0-2.0-1.5"	"f6ztws"	"600"	"1366"	"chrome"	"109.0.0"	"FALSE"	"Windows 10"	"60.41"	"023"	n/a	n/a	n/a	n/a	n/a	n/a	"Trial"	n/a	n/a	n/a	"596"	"arrowleft"	n/a	"NULL"	"NULL"	"NULL"	"stimuli/Ebbinghaus_0000000_1.40000.png"	n/a	"Ebbinghaus"	"arrowleft"	"1306"	"TRUE"	"Ebbinghaus"	"000000000000"	"1.4000000000"	"1"	"6"
n/a	"html-button-response"	"19"	"7313751"	"0.0-4.0-1.0-3.0"	"f6ztws"	"600"	"1366"	"chrome"	"109.0.0"	"FALSE"	"Windows 10"	"60.41"	"023"	n/a	n/a	n/a	n/a	n/a	n/a	"practice_block_results"	n/a	n/a	n/a	"4272"	"0"	n/a	"NULL"	"NULL"	"NULL"	"<p style='color:rgb(76,175,80);'> Correct Responses: <b>100.00%</b></p><hr><p style='color:rgb(233,30,99);'> Average Response Time: <b>1371.00</b> ms.</p>"	n/a	n/a	n/a	n/a	n/a	n/a	n/a	n/a	n/a	n/a
"TRUE"	"preload"	"20"	"7314277"	"0.0-4.0-2.0-0.0"	"f6ztws"	"600"	"1366"	"chrome"	"109.0.0"	"FALSE"	"Windows 10"	"60.41"	"023"	n/a	n/a	n/a	n/a	n/a	n/a	n/a	n/a	n/a	n/a	n/a	"NULL"	"FALSE"	"list()"	"list()"	"list()"	n/a	n/a	n/a	n/a	n/a	n/a	n/a	n/a	n/a	n/a	n/a
n/a	"html-keyboard-response"	"21"	"7321990"	"0.0-4.0-2.0-1.0"	"f6ztws"	"600"	"1366"	"chrome"	"109.0.0"	"FALSE"	"Windows 10"	"60.41"	"023"	n/a	n/a	n/a	n/a	n/a	n/a	n/a	n/a	n/a	n/a	"7713"	"enter"	n/a	"NULL"	"NULL"	"NULL"	"<p><b>Practice</b></p><p>In this part, two horizontal red lines will appear one above the other.</p><p>Your task is to select which <b>line is longer</b> in length as fast as you can, without making errors.</p><p>Don't get distracted by the surrounding black arrows at the end of the red lines!</p><p>Press <b>the UP or the DOWN arrow</b> to indicate where is the longer <b>red line.</b></p><div style='float: center'><img src='materials/instructions/MullerLyer_Demo.png' height='300'></img><p><img src='utils/answer/answer_updown_keyboard.PNG' height='150'></img></p><p class='small'>In this example, the correct answer is the <b>UP arrow</b>.</p></div><p>Are you ready? <b>Press ENTER to start</b></p>"	n/a	n/a	n/a	n/a	n/a	n/a	n/a	n/a	n/a	n/a
n/a	"html-keyboard-response"	"22"	"7323842"	"0.0-4.0-2.0-2.0-0.0"	"f6ztws"	"600"	"1366"	"chrome"	"109.0.0"	"FALSE"	"Windows 10"	"60.41"	"023"	n/a	n/a	n/a	n/a	n/a	n/a	"fixation"	n/a	n/a	n/a	n/a	"NULL"	n/a	"NULL"	"NULL"	"NULL"	"<p style=\"color: black; font-size: 80px; padding-left: 37%; padding-right: 14%; padding-top: 44%; padding-bottom: 8%\">+</p>"	"1325"	n/a	n/a	n/a	n/a	n/a	n/a	n/a	n/a	n/a
n/a	"image-keyboard-response"	"23"	"7324441"	"0.0-4.0-2.0-2.0-1.0"	"f6ztws"	"600"	"1366"	"chrome"	"109.0.0"	"FALSE"	"Windows 10"	"60.41"	"023"	n/a	n/a	n/a	n/a	n/a	n/a	"Trial"	n/a	n/a	n/a	"598"	"arrowup"	n/a	"NULL"	"NULL"	"NULL"	"stimuli/MullerLyer_-230000_0.70000.png"	n/a	"MullerLyer"	"arrowup"	"1852"	"TRUE"	"MullerLyer"	"-23000000000"	"0.7000000000"	"1"	"7"
n/a	"html-keyboard-response"	"24"	"7325733"	"0.0-4.0-2.0-2.0-0.1"	"f6ztws"	"600"	"1366"	"chrome"	"109.0.0"	"FALSE"	"Windows 10"	"60.41"	"023"	n/a	n/a	n/a	n/a	n/a	n/a	"fixation"	n/a	n/a	n/a	n/a	"NULL"	n/a	"NULL"	"NULL"	"NULL"	"<p style=\"color: black; font-size: 80px; padding-left: 10%; padding-right: 31%; padding-top: 39%; padding-bottom: 17%\">+</p>"	"1281"	n/a	n/a	n/a	n/a	n/a	n/a	n/a	n/a	n/a
n/a	"image-keyboard-response"	"25"	"7326314"	"0.0-4.0-2.0-2.0-1.1"	"f6ztws"	"600"	"1366"	"chrome"	"109.0.0"	"FALSE"	"Windows 10"	"60.41"	"023"	n/a	n/a	n/a	n/a	n/a	n/a	"Trial"	n/a	n/a	n/a	"580"	"arrowdown"	n/a	"NULL"	"NULL"	"NULL"	"stimuli/MullerLyer_-230000_-0.7000.png"	n/a	"MullerLyer"	"arrowdown"	"1292"	"TRUE"	"MullerLyer"	"-23000000000"	"-0.700000000"	"1"	"8"
n/a	"html-keyboard-response"	"26"	"7327812"	"0.0-4.0-2.0-2.0-0.2"	"f6ztws"	"600"	"1366"	"chrome"	"109.0.0"	"FALSE"	"Windows 10"	"60.41"	"023"	n/a	n/a	n/a	n/a	n/a	n/a	"fixation"	n/a	n/a	n/a	n/a	"NULL"	n/a	"NULL"	"NULL"	"NULL"	"<p style=\"color: black; font-size: 80px; padding-left: 3%; padding-right: 4%; padding-top: 21%; padding-bottom: 12%\">+</p>"	"1484"	n/a	n/a	n/a	n/a	n/a	n/a	n/a	n/a	n/a
n/a	"image-keyboard-response"	"27"	"7328743"	"0.0-4.0-2.0-2.0-1.2"	"f6ztws"	"600"	"1366"	"chrome"	"109.0.0"	"FALSE"	"Windows 10"	"60.41"	"023"	n/a	n/a	n/a	n/a	n/a	n/a	"Trial"	n/a	n/a	n/a	"931"	"arrowup"	n/a	"NULL"	"NULL"	"NULL"	"stimuli/MullerLyer_2300000_0.70000.png"	n/a	"MullerLyer"	"arrowup"	"1498"	"TRUE"	"MullerLyer"	"230000000000"	"0.7000000000"	"1"	"9"
n/a	"html-keyboard-response"	"28"	"7329984"	"0.0-4.0-2.0-2.0-0.3"	"f6ztws"	"600"	"1366"	"chrome"	"109.0.0"	"FALSE"	"Windows 10"	"60.41"	"023"	n/a	n/a	n/a	n/a	n/a	n/a	"fixation"	n/a	n/a	n/a	n/a	"NULL"	n/a	"NULL"	"NULL"	"NULL"	"<p style=\"color: black; font-size: 80px; padding-left: 28%; padding-right: 21%; padding-top: 40%; padding-bottom: 11%\">+</p>"	"1223"	n/a	n/a	n/a	n/a	n/a	n/a	n/a	n/a	n/a
n/a	"image-keyboard-response"	"29"	"7330921"	"0.0-4.0-2.0-2.0-1.3"	"f6ztws"	"600"	"1366"	"chrome"	"109.0.0"	"FALSE"	"Windows 10"	"60.41"	"023"	n/a	n/a	n/a	n/a	n/a	n/a	"Trial"	n/a	n/a	n/a	"937"	"arrowdown"	n/a	"NULL"	"NULL"	"NULL"	"stimuli/MullerLyer_0000000_-0.7000.png"	n/a	"MullerLyer"	"arrowdown"	"1241"	"TRUE"	"MullerLyer"	"000000000000"	"-0.700000000"	"1"	"10"
n/a	"html-keyboard-response"	"30"	"7332296"	"0.0-4.0-2.0-2.0-0.4"	"f6ztws"	"600"	"1366"	"chrome"	"109.0.0"	"FALSE"	"Windows 10"	"60.41"	"023"	n/a	n/a	n/a	n/a	n/a	n/a	"fixation"	n/a	n/a	n/a	n/a	"NULL"	n/a	"NULL"	"NULL"	"NULL"	"<p style=\"color: black; font-size: 80px; padding-left: 11%; padding-right: 26%; padding-top: 1%; padding-bottom: 23%\">+</p>"	"1362"	n/a	n/a	n/a	n/a	n/a	n/a	n/a	n/a	n/a
n/a	"image-keyboard-response"	"31"	"7332915"	"0.0-4.0-2.0-2.0-1.4"	"f6ztws"	"600"	"1366"	"chrome"	"109.0.0"	"FALSE"	"Windows 10"	"60.41"	"023"	n/a	n/a	n/a	n/a	n/a	n/a	"Trial"	n/a	n/a	n/a	"618"	"arrowup"	n/a	"NULL"	"NULL"	"NULL"	"stimuli/MullerLyer_0000000_0.70000.png"	n/a	"MullerLyer"	"arrowup"	"1375"	"TRUE"	"MullerLyer"	"000000000000"	"0.7000000000"	"1"	"11"
n/a	"html-keyboard-response"	"32"	"7334330"	"0.0-4.0-2.0-2.0-0.5"	"f6ztws"	"600"	"1366"	"chrome"	"109.0.0"	"FALSE"	"Windows 10"	"60.41"	"023"	n/a	n/a	n/a	n/a	n/a	n/a	"fixation"	n/a	n/a	n/a	n/a	"NULL"	n/a	"NULL"	"NULL"	"NULL"	"<p style=\"color: black; font-size: 80px; padding-left: 19%; padding-right: 11%; padding-top: 43%; padding-bottom: 26%\">+</p>"	"1393"	n/a	n/a	n/a	n/a	n/a	n/a	n/a	n/a	n/a
n/a	"image-keyboard-response"	"33"	"7334906"	"0.0-4.0-2.0-2.0-1.5"	"f6ztws"	"600"	"1366"	"chrome"	"109.0.0"	"FALSE"	"Windows 10"	"60.41"	"023"	n/a	n/a	n/a	n/a	n/a	n/a	"Trial"	n/a	n/a	n/a	"575"	"arrowdown"	n/a	"NULL"	"NULL"	"NULL"	"stimuli/MullerLyer_2300000_-0.7000.png"	n/a	"MullerLyer"	"arrowdown"	"1415"	"TRUE"	"MullerLyer"	"230000000000"	"-0.700000000"	"1"	"12"
n/a	"html-button-response"	"34"	"7337050"	"0.0-4.0-2.0-3.0"	"f6ztws"	"600"	"1366"	"chrome"	"109.0.0"	"FALSE"	"Windows 10"	"60.41"	"023"	n/a	n/a	n/a	n/a	n/a	n/a	"practice_block_results"	n/a	n/a	n/a	"2143"	"0"	n/a	"NULL"	"NULL"	"NULL"	"<p style='color:rgb(76,175,80);'> Correct Responses: <b>100.00%</b></p><hr><p style='color:rgb(233,30,99);'> Average Response Time: <b>706.50</b> ms.</p>"	n/a	n/a	n/a	n/a	n/a	n/a	n/a	n/a	n/a	n/a
"TRUE"	"preload"	"35"	"7337882"	"0.0-4.0-3.0-0.0"	"f6ztws"	"600"	"1366"	"chrome"	"109.0.0"	"FALSE"	"Windows 10"	"60.41"	"023"	n/a	n/a	n/a	n/a	n/a	n/a	n/a	n/a	n/a	n/a	n/a	"NULL"	"FALSE"	"list()"	"list()"	"list()"	n/a	n/a	n/a	n/a	n/a	n/a	n/a	n/a	n/a	n/a	n/a
n/a	"html-keyboard-response"	"36"	"7346777"	"0.0-4.0-3.0-1.0"	"f6ztws"	"600"	"1366"	"chrome"	"109.0.0"	"FALSE"	"Windows 10"	"60.41"	"023"	n/a	n/a	n/a	n/a	n/a	n/a	n/a	n/a	n/a	n/a	"8895"	"enter"	n/a	"NULL"	"NULL"	"NULL"	"<p><b>Practice</b></p><p>In this part, two red lines will appear side by side.</p><p>Your task is to tell <b>which line is longer</b> in length, regardless of their orientation, as fast as you can, and without making errors.</p><p>Don't get distracted by the orientation of the lines!</p><p>Press <b>the LEFT or the RIGHT arrow</b> to indicate which <b>line is the longer one.</b></p><div style='float: center'><img src='materials/instructions/VerticalHorizontal_Demo.png' height='300'></img><p><img src='utils/answer/answer_leftright_keyboard.PNG' height='150'></img></p><p class='small'>In this example, the correct answer is the <b>LEFT arrow</b>.</p></div><p>Are you ready? <b>Press ENTER to start</b></p>"	n/a	n/a	n/a	n/a	n/a	n/a	n/a	n/a	n/a	n/a
n/a	"html-keyboard-response"	"37"	"7348383"	"0.0-4.0-3.0-2.0-0.0"	"f6ztws"	"600"	"1366"	"chrome"	"109.0.0"	"FALSE"	"Windows 10"	"60.41"	"023"	n/a	n/a	n/a	n/a	n/a	n/a	"fixation"	n/a	n/a	n/a	n/a	"NULL"	n/a	"NULL"	"NULL"	"NULL"	"<p style=\"color: black; font-size: 80px; padding-left: 18%; padding-right: 44%; padding-top: 38%; padding-bottom: 42%\">+</p>"	"1073"	n/a	n/a	n/a	n/a	n/a	n/a	n/a	n/a	n/a
n/a	"image-keyboard-response"	"38"	"7349001"	"0.0-4.0-3.0-2.0-1.0"	"f6ztws"	"600"	"1366"	"chrome"	"109.0.0"	"FALSE"	"Windows 10"	"60.41"	"023"	n/a	n/a	n/a	n/a	n/a	n/a	"Trial"	n/a	n/a	n/a	"618"	"arrowleft"	n/a	"NULL"	"NULL"	"NULL"	"stimuli/VerticalHorizontal_-330000_0.90000.png"	n/a	"VerticalHorizontal"	"arrowleft"	"1606"	"TRUE"	"VerticalHorizontal"	"-33000000000"	"0.9000000000"	"1"	"13"
n/a	"html-keyboard-response"	"39"	"7350088"	"0.0-4.0-3.0-2.0-0.1"	"f6ztws"	"600"	"1366"	"chrome"	"109.0.0"	"FALSE"	"Windows 10"	"60.41"	"023"	n/a	n/a	n/a	n/a	n/a	n/a	"fixation"	n/a	n/a	n/a	n/a	"NULL"	n/a	"NULL"	"NULL"	"NULL"	"<p style=\"color: black; font-size: 80px; padding-left: 49%; padding-right: 24%; padding-top: 10%; padding-bottom: 47%\">+</p>"	"1073"	n/a	n/a	n/a	n/a	n/a	n/a	n/a	n/a	n/a
n/a	"image-keyboard-response"	"40"	"7350540"	"0.0-4.0-3.0-2.0-1.1"	"f6ztws"	"600"	"1366"	"chrome"	"109.0.0"	"FALSE"	"Windows 10"	"60.41"	"023"	n/a	n/a	n/a	n/a	n/a	n/a	"Trial"	n/a	n/a	n/a	"451"	"arrowright"	n/a	"NULL"	"NULL"	"NULL"	"stimuli/VerticalHorizontal_3300000_-0.9000.png"	n/a	"VerticalHorizontal"	"arrowright"	"1087"	"TRUE"	"VerticalHorizontal"	"330000000000"	"-0.900000000"	"1"	"14"
n/a	"html-keyboard-response"	"41"	"7351864"	"0.0-4.0-3.0-2.0-0.2"	"f6ztws"	"600"	"1366"	"chrome"	"109.0.0"	"FALSE"	"Windows 10"	"60.41"	"023"	n/a	n/a	n/a	n/a	n/a	n/a	"fixation"	n/a	n/a	n/a	n/a	"NULL"	n/a	"NULL"	"NULL"	"NULL"	"<p style=\"color: black; font-size: 80px; padding-left: 23%; padding-right: 50%; padding-top: 19%; padding-bottom: 20%\">+</p>"	"1305"	n/a	n/a	n/a	n/a	n/a	n/a	n/a	n/a	n/a
n/a	"image-keyboard-response"	"42"	"7352279"	"0.0-4.0-3.0-2.0-1.2"	"f6ztws"	"600"	"1366"	"chrome"	"109.0.0"	"FALSE"	"Windows 10"	"60.41"	"023"	n/a	n/a	n/a	n/a	n/a	n/a	"Trial"	n/a	n/a	n/a	"415"	"arrowright"	n/a	"NULL"	"NULL"	"NULL"	"stimuli/VerticalHorizontal_0000000_-0.9000.png"	n/a	"VerticalHorizontal"	"arrowright"	"1324"	"TRUE"	"VerticalHorizontal"	"000000000000"	"-0.900000000"	"1"	"15"
n/a	"html-keyboard-response"	"43"	"7353485"	"0.0-4.0-3.0-2.0-0.3"	"f6ztws"	"600"	"1366"	"chrome"	"109.0.0"	"FALSE"	"Windows 10"	"60.41"	"023"	n/a	n/a	n/a	n/a	n/a	n/a	"fixation"	n/a	n/a	n/a	n/a	"NULL"	n/a	"NULL"	"NULL"	"NULL"	"<p style=\"color: black; font-size: 80px; padding-left: 11%; padding-right: 31%; padding-top: 3%; padding-bottom: 41%\">+</p>"	"1189"	n/a	n/a	n/a	n/a	n/a	n/a	n/a	n/a	n/a
n/a	"image-keyboard-response"	"44"	"7353917"	"0.0-4.0-3.0-2.0-1.3"	"f6ztws"	"600"	"1366"	"chrome"	"109.0.0"	"FALSE"	"Windows 10"	"60.41"	"023"	n/a	n/a	n/a	n/a	n/a	n/a	"Trial"	n/a	n/a	n/a	"431"	"arrowright"	n/a	"NULL"	"NULL"	"NULL"	"stimuli/VerticalHorizontal_-330000_-0.9000.png"	n/a	"VerticalHorizontal"	"arrowright"	"1206"	"TRUE"	"VerticalHorizontal"	"-33000000000"	"-0.900000000"	"1"	"16"
n/a	"html-keyboard-response"	"45"	"7355169"	"0.0-4.0-3.0-2.0-0.4"	"f6ztws"	"600"	"1366"	"chrome"	"109.0.0"	"FALSE"	"Windows 10"	"60.41"	"023"	n/a	n/a	n/a	n/a	n/a	n/a	"fixation"	n/a	n/a	n/a	n/a	"NULL"	n/a	"NULL"	"NULL"	"NULL"	"<p style=\"color: black; font-size: 80px; padding-left: 43%; padding-right: 46%; padding-top: 5%; padding-bottom: 14%\">+</p>"	"1244"	n/a	n/a	n/a	n/a	n/a	n/a	n/a	n/a	n/a
n/a	"image-keyboard-response"	"46"	"7355754"	"0.0-4.0-3.0-2.0-1.4"	"f6ztws"	"600"	"1366"	"chrome"	"109.0.0"	"FALSE"	"Windows 10"	"60.41"	"023"	n/a	n/a	n/a	n/a	n/a	n/a	"Trial"	n/a	n/a	n/a	"584"	"arrowleft"	n/a	"NULL"	"NULL"	"NULL"	"stimuli/VerticalHorizontal_0000000_0.90000.png"	n/a	"VerticalHorizontal"	"arrowleft"	"1252"	"TRUE"	"VerticalHorizontal"	"000000000000"	"0.9000000000"	"1"	"17"
n/a	"html-keyboard-response"	"47"	"7357121"	"0.0-4.0-3.0-2.0-0.5"	"f6ztws"	"600"	"1366"	"chrome"	"109.0.0"	"FALSE"	"Windows 10"	"60.41"	"023"	n/a	n/a	n/a	n/a	n/a	n/a	"fixation"	n/a	n/a	n/a	n/a	"NULL"	n/a	"NULL"	"NULL"	"NULL"	"<p style=\"color: black; font-size: 80px; padding-left: 21%; padding-right: 16%; padding-top: 19%; padding-bottom: 24%\">+</p>"	"1352"	n/a	n/a	n/a	n/a	n/a	n/a	n/a	n/a	n/a
n/a	"image-keyboard-response"	"48"	"7357809"	"0.0-4.0-3.0-2.0-1.5"	"f6ztws"	"600"	"1366"	"chrome"	"109.0.0"	"FALSE"	"Windows 10"	"60.41"	"023"	n/a	n/a	n/a	n/a	n/a	n/a	"Trial"	n/a	n/a	n/a	"687"	"arrowleft"	n/a	"NULL"	"NULL"	"NULL"	"stimuli/VerticalHorizontal_3300000_0.90000.png"	n/a	"VerticalHorizontal"	"arrowleft"	"1367"	"TRUE"	"VerticalHorizontal"	"330000000000"	"0.9000000000"	"1"	"18"
n/a	"html-button-response"	"49"	"7360642"	"0.0-4.0-3.0-3.0"	"f6ztws"	"600"	"1366"	"chrome"	"109.0.0"	"FALSE"	"Windows 10"	"60.41"	"023"	n/a	n/a	n/a	n/a	n/a	n/a	"practice_block_results"	n/a	n/a	n/a	"2831"	"0"	n/a	"NULL"	"NULL"	"NULL"	"<p style='color:rgb(76,175,80);'> Correct Responses: <b>100.00%</b></p><hr><p style='color:rgb(233,30,99);'> Average Response Time: <b>531.00</b> ms.</p>"	n/a	n/a	n/a	n/a	n/a	n/a	n/a	n/a	n/a	n/a
n/a	"html-button-response"	"50"	"7520381"	"0.0-4.0-4.0"	"f6ztws"	"600"	"1366"	"chrome"	"109.0.0"	"FALSE"	"Windows 10"	"60.41"	"023"	n/a	n/a	n/a	n/a	n/a	n/a	"practice_debrief"	n/a	n/a	n/a	"159213"	"0"	n/a	"NULL"	"NULL"	"NULL"	"<p><b>TRAINING COMPLETED</b></p><p>In the next phase, there will be more trials, and some might be harder too.<br> Moreover, after each illusion block, a <b>score</b> will be calculated based on speed (time you took to answer) and accuracy (number of errors).</p><p>Try to keep up a high score!</p><br><p>Note that it can be <i>really</i> challenging at times, so you will need to rely on your <b>intuition</b> and gut feeling to answer as fast as you can without making errors.</p><p>Each illusion block will be repeated two times (so that you have the opportunity to improve your score), but the order of the blocks is random.</p><p>Remember, your goal is to be as <b>fast</b> and <b>accurate</b> as possible. Good luck!</p><br>"	n/a	n/a	n/a	n/a	n/a	n/a	n/a	n/a	n/a	n/a
"TRUE"	"preload"	"51"	"7520554"	"0.0-5.0-0.0"	"f6ztws"	"600"	"1366"	"chrome"	"109.0.0"	"FALSE"	"Windows 10"	"60.41"	"023"	n/a	n/a	n/a	n/a	n/a	n/a	n/a	n/a	n/a	n/a	n/a	"NULL"	"FALSE"	"list()"	"list()"	"list()"	n/a	n/a	n/a	n/a	n/a	n/a	n/a	n/a	n/a	n/a	n/a
n/a	"html-keyboard-response"	"52"	"7526355"	"0.0-5.0-1.0"	"f6ztws"	"600"	"1366"	"chrome"	"109.0.0"	"FALSE"	"Windows 10"	"60.41"	"023"	n/a	n/a	n/a	n/a	n/a	n/a	n/a	n/a	n/a	n/a	"5799"	"enter"	n/a	"NULL"	"NULL"	"NULL"	"<p><b>Part 1/6</b></p><p>In this part, two red lines will appear side by side.</p><p>Your task is to tell <b>which line is longer</b> in length, regardless of their orientation, as fast as you can, and without making errors.</p><p>Don't get distracted by the orientation of the lines!</p><p>Press <b>the LEFT or the RIGHT arrow</b> to indicate which <b>line is the longer one.</b></p><div style='float: center'><img src='materials/instructions/VerticalHorizontal_Demo.png' height='300'></img><p><img src='utils/answer/answer_leftright_keyboard.PNG' height='150'></img></p><p class='small'>In this example, the correct answer is the <b>LEFT arrow</b>.</p></div><p>Are you ready? <b>Press ENTER to start</b></p>"	n/a	n/a	n/a	n/a	n/a	n/a	n/a	n/a	n/a	n/a
n/a	"html-keyboard-response"	"53"	"7527989"	"0.0-5.0-2.0-0.0"	"f6ztws"	"600"	"1366"	"chrome"	"109.0.0"	"FALSE"	"Windows 10"	"60.41"	"023"	n/a	n/a	n/a	n/a	n/a	n/a	"fixation"	n/a	n/a	n/a	n/a	"NULL"	n/a	"NULL"	"NULL"	"NULL"	"<p style=\"color: black; font-size: 80px; padding-left: 7%; padding-right: 7%; padding-top: 17%; padding-bottom: 9%\">+</p>"	"1126"	n/a	n/a	n/a	n/a	n/a	n/a	n/a	n/a	n/a
n/a	"image-keyboard-response"	"54"	"7528943"	"0.0-5.0-2.0-1.0"	"f6ztws"	"600"	"1366"	"chrome"	"109.0.0"	"FALSE"	"Windows 10"	"60.41"	"023"	n/a	n/a	n/a	n/a	n/a	n/a	"Trial"	n/a	n/a	n/a	"953"	"arrowleft"	n/a	"NULL"	"NULL"	"NULL"	"stimuli/VerticalHorizontal_-3.3000_0.16217.png"	n/a	"VerticalHorizontal"	"arrowleft"	"1634"	"TRUE"	"VerticalHorizontal"	"-3.300000000"	"0.1621700000"	"1"	"19"
n/a	"html-keyboard-response"	"55"	"7530402"	"0.0-5.0-2.0-0.1"	"f6ztws"	"600"	"1366"	"chrome"	"109.0.0"	"FALSE"	"Windows 10"	"60.41"	"023"	n/a	n/a	n/a	n/a	n/a	n/a	"fixation"	n/a	n/a	n/a	n/a	"NULL"	n/a	"NULL"	"NULL"	"NULL"	"<p style=\"color: black; font-size: 80px; padding-left: 4%; padding-right: 24%; padding-top: 32%; padding-bottom: 15%\">+</p>"	"1445"	n/a	n/a	n/a	n/a	n/a	n/a	n/a	n/a	n/a
n/a	"image-keyboard-response"	"56"	"7530918"	"0.0-5.0-2.0-1.1"	"f6ztws"	"600"	"1366"	"chrome"	"109.0.0"	"FALSE"	"Windows 10"	"60.41"	"023"	n/a	n/a	n/a	n/a	n/a	n/a	"Trial"	n/a	n/a	n/a	"514"	"arrowleft"	n/a	"NULL"	"NULL"	"NULL"	"stimuli/VerticalHorizontal_-11.78571_0.22500.png"	n/a	"VerticalHorizontal"	"arrowleft"	"1459"	"TRUE"	"VerticalHorizontal"	"-11.78571000"	"0.2250000000"	"1"	"20"
n/a	"html-keyboard-response"	"57"	"7532325"	"0.0-5.0-2.0-0.2"	"f6ztws"	"600"	"1366"	"chrome"	"109.0.0"	"FALSE"	"Windows 10"	"60.41"	"023"	n/a	n/a	n/a	n/a	n/a	n/a	"fixation"	n/a	n/a	n/a	n/a	"NULL"	n/a	"NULL"	"NULL"	"NULL"	"<p style=\"color: black; font-size: 80px; padding-left: 11%; padding-right: 12%; padding-top: 40%; padding-bottom: 7%\">+</p>"	"1399"	n/a	n/a	n/a	n/a	n/a	n/a	n/a	n/a	n/a
n/a	"image-keyboard-response"	"58"	"7532921"	"0.0-5.0-2.0-1.2"	"f6ztws"	"600"	"1366"	"chrome"	"109.0.0"	"FALSE"	"Windows 10"	"60.41"	"023"	n/a	n/a	n/a	n/a	n/a	n/a	"Trial"	n/a	n/a	n/a	"595"	"arrowright"	n/a	"NULL"	"NULL"	"NULL"	"stimuli/VerticalHorizontal_3.30000_-0.1096.png"	n/a	"VerticalHorizontal"	"arrowright"	"1407"	"TRUE"	"VerticalHorizontal"	"3.3000000000"	"-0.109600000"	"1"	"21"
n/a	"html-keyboard-response"	"59"	"7534208"	"0.0-5.0-2.0-0.3"	"f6ztws"	"600"	"1366"	"chrome"	"109.0.0"	"FALSE"	"Windows 10"	"60.41"	"023"	n/a	n/a	n/a	n/a	n/a	n/a	"fixation"	n/a	n/a	n/a	n/a	"NULL"	n/a	"NULL"	"NULL"	"NULL"	"<p style=\"color: black; font-size: 80px; padding-left: 33%; padding-right: 30%; padding-top: 20%; padding-bottom: 14%\">+</p>"	"1267"	n/a	n/a	n/a	n/a	n/a	n/a	n/a	n/a	n/a
n/a	"image-keyboard-response"	"60"	"7534696"	"0.0-5.0-2.0-1.3"	"f6ztws"	"600"	"1366"	"chrome"	"109.0.0"	"FALSE"	"Windows 10"	"60.41"	"023"	n/a	n/a	n/a	n/a	n/a	n/a	"Trial"	n/a	n/a	n/a	"487"	"arrowright"	n/a	"NULL"	"NULL"	"NULL"	"stimuli/VerticalHorizontal_-28.75714_-0.2250.png"	n/a	"VerticalHorizontal"	"arrowright"	"1287"	"TRUE"	"VerticalHorizontal"	"-28.75714000"	"-0.225000000"	"1"	"22"
n/a	"html-keyboard-response"	"61"	"7535783"	"0.0-5.0-2.0-0.4"	"f6ztws"	"600"	"1366"	"chrome"	"109.0.0"	"FALSE"	"Windows 10"	"60.41"	"023"	n/a	n/a	n/a	n/a	n/a	n/a	"fixation"	n/a	n/a	n/a	n/a	"NULL"	n/a	"NULL"	"NULL"	"NULL"	"<p style=\"color: black; font-size: 80px; padding-left: 47%; padding-right: 49%; padding-top: 16%; padding-bottom: 50%\">+</p>"	"1075"	n/a	n/a	n/a	n/a	n/a	n/a	n/a	n/a	n/a
n/a	"image-keyboard-response"	"62"	"7536249"	"0.0-5.0-2.0-1.4"	"f6ztws"	"600"	"1366"	"chrome"	"109.0.0"	"FALSE"	"Windows 10"	"60.41"	"023"	n/a	n/a	n/a	n/a	n/a	n/a	"Trial"	n/a	n/a	n/a	"466"	"arrowleft"	n/a	"NULL"	"NULL"	"NULL"	"stimuli/VerticalHorizontal_3.30000_0.16217.png"	n/a	"VerticalHorizontal"	"arrowleft"	"1087"	"TRUE"	"VerticalHorizontal"	"3.3000000000"	"0.1621700000"	"1"	"23"
n/a	"html-keyboard-response"	"63"	"7537552"	"0.0-5.0-2.0-0.5"	"f6ztws"	"600"	"1366"	"chrome"	"109.0.0"	"FALSE"	"Windows 10"	"60.41"	"023"	n/a	n/a	n/a	n/a	n/a	n/a	"fixation"	n/a	n/a	n/a	n/a	"NULL"	n/a	"NULL"	"NULL"	"NULL"	"<p style=\"color: black; font-size: 80px; padding-left: 30%; padding-right: 50%; padding-top: 8%; padding-bottom: 6%\">+</p>"	"1284"	n/a	n/a	n/a	n/a	n/a	n/a	n/a	n/a	n/a
n/a	"image-keyboard-response"	"64"	"7538608"	"0.0-5.0-2.0-1.5"	"f6ztws"	"600"	"1366"	"chrome"	"109.0.0"	"FALSE"	"Windows 10"	"60.41"	"023"	n/a	n/a	n/a	n/a	n/a	n/a	"Trial"	n/a	n/a	n/a	"1055"	"arrowleft"	n/a	"NULL"	"NULL"	"NULL"	"stimuli/VerticalHorizontal_-20.27143_0.06730.png"	n/a	"VerticalHorizontal"	"arrowleft"	"1303"	"TRUE"	"VerticalHorizontal"	"-20.27143000"	"0.0673000000"	"1"	"24"
n/a	"html-keyboard-response"	"65"	"7539916"	"0.0-5.0-2.0-0.6"	"f6ztws"	"600"	"1366"	"chrome"	"109.0.0"	"FALSE"	"Windows 10"	"60.41"	"023"	n/a	n/a	n/a	n/a	n/a	n/a	"fixation"	n/a	n/a	n/a	n/a	"NULL"	n/a	"NULL"	"NULL"	"NULL"	"<p style=\"color: black; font-size: 80px; padding-left: 33%; padding-right: 47%; padding-top: 50%; padding-bottom: 15%\">+</p>"	"1289"	n/a	n/a	n/a	n/a	n/a	n/a	n/a	n/a	n/a
n/a	"image-keyboard-response"	"66"	"7540810"	"0.0-5.0-2.0-1.6"	"f6ztws"	"600"	"1366"	"chrome"	"109.0.0"	"FALSE"	"Windows 10"	"60.41"	"023"	n/a	n/a	n/a	n/a	n/a	n/a	"Trial"	n/a	n/a	n/a	"893"	"arrowleft"	n/a	"NULL"	"NULL"	"NULL"	"stimuli/VerticalHorizontal_-20.27143_0.16217.png"	n/a	"VerticalHorizontal"	"arrowleft"	"1308"	"TRUE"	"VerticalHorizontal"	"-20.27143000"	"0.1621700000"	"1"	"25"
n/a	"html-keyboard-response"	"67"	"7542215"	"0.0-5.0-2.0-0.7"	"f6ztws"	"600"	"1366"	"chrome"	"109.0.0"	"FALSE"	"Windows 10"	"60.41"	"023"	n/a	n/a	n/a	n/a	n/a	n/a	"fixation"	n/a	n/a	n/a	n/a	"NULL"	n/a	"NULL"	"NULL"	"NULL"	"<p style=\"color: black; font-size: 80px; padding-left: 0%; padding-right: 10%; padding-top: 5%; padding-bottom: 9%\">+</p>"	"1383"	n/a	n/a	n/a	n/a	n/a	n/a	n/a	n/a	n/a
n/a	"image-keyboard-response"	"68"	"7542763"	"0.0-5.0-2.0-1.7"	"f6ztws"	"600"	"1366"	"chrome"	"109.0.0"	"FALSE"	"Windows 10"	"60.41"	"023"	n/a	n/a	n/a	n/a	n/a	n/a	"Trial"	n/a	n/a	n/a	"547"	"arrowright"	n/a	"NULL"	"NULL"	"NULL"	"stimuli/VerticalHorizontal_-11.78571_-0.2250.png"	n/a	"VerticalHorizontal"	"arrowright"	"1405"	"TRUE"	"VerticalHorizontal"	"-11.78571000"	"-0.225000000"	"1"	"26"
n/a	"html-keyboard-response"	"69"	"7544123"	"0.0-5.0-2.0-0.8"	"f6ztws"	"600"	"1366"	"chrome"	"109.0.0"	"FALSE"	"Windows 10"	"60.41"	"023"	n/a	n/a	n/a	n/a	n/a	n/a	"fixation"	n/a	n/a	n/a	n/a	"NULL"	n/a	"NULL"	"NULL"	"NULL"	"<p style=\"color: black; font-size: 80px; padding-left: 3%; padding-right: 34%; padding-top: 3%; padding-bottom: 22%\">+</p>"	"1352"	n/a	n/a	n/a	n/a	n/a	n/a	n/a	n/a	n/a
n/a	"image-keyboard-response"	"70"	"7545138"	"0.0-5.0-2.0-1.8"	"f6ztws"	"600"	"1366"	"chrome"	"109.0.0"	"FALSE"	"Windows 10"	"60.41"	"023"	n/a	n/a	n/a	n/a	n/a	n/a	"Trial"	n/a	n/a	n/a	"1015"	"arrowleft"	n/a	"NULL"	"NULL"	"NULL"	"stimuli/VerticalHorizontal_28.75714_-0.1096.png"	n/a	"VerticalHorizontal"	"arrowright"	"1360"	"FALSE"	"VerticalHorizontal"	"28.757140000"	"-0.109600000"	"1"	"27"
n/a	"html-keyboard-response"	"71"	"7546646"	"0.0-5.0-2.0-0.9"	"f6ztws"	"600"	"1366"	"chrome"	"109.0.0"	"FALSE"	"Windows 10"	"60.41"	"023"	n/a	n/a	n/a	n/a	n/a	n/a	"fixation"	n/a	n/a	n/a	n/a	"NULL"	n/a	"NULL"	"NULL"	"NULL"	"<p style=\"color: black; font-size: 80px; padding-left: 36%; padding-right: 15%; padding-top: 3%; padding-bottom: 32%\">+</p>"	"1486"	n/a	n/a	n/a	n/a	n/a	n/a	n/a	n/a	n/a
n/a	"image-keyboard-response"	"72"	"7547179"	"0.0-5.0-2.0-1.9"	"f6ztws"	"600"	"1366"	"chrome"	"109.0.0"	"FALSE"	"Windows 10"	"60.41"	"023"	n/a	n/a	n/a	n/a	n/a	n/a	"Trial"	n/a	n/a	n/a	"533"	"arrowright"	n/a	"NULL"	"NULL"	"NULL"	"stimuli/VerticalHorizontal_-20.27143_-0.1096.png"	n/a	"VerticalHorizontal"	"arrowright"	"1508"	"TRUE"	"VerticalHorizontal"	"-20.27143000"	"-0.109600000"	"1"	"28"
n/a	"html-keyboard-response"	"73"	"7548639"	"0.0-5.0-2.0-0.10"	"f6ztws"	"600"	"1366"	"chrome"	"109.0.0"	"FALSE"	"Windows 10"	"60.41"	"023"	n/a	n/a	n/a	n/a	n/a	n/a	"fixation"	n/a	n/a	n/a	n/a	"NULL"	n/a	"NULL"	"NULL"	"NULL"	"<p style=\"color: black; font-size: 80px; padding-left: 13%; padding-right: 24%; padding-top: 4%; padding-bottom: 41%\">+</p>"	"1443"	n/a	n/a	n/a	n/a	n/a	n/a	n/a	n/a	n/a
n/a	"image-keyboard-response"	"74"	"7549330"	"0.0-5.0-2.0-1.10"	"f6ztws"	"600"	"1366"	"chrome"	"109.0.0"	"FALSE"	"Windows 10"	"60.41"	"023"	n/a	n/a	n/a	n/a	n/a	n/a	"Trial"	n/a	n/a	n/a	"691"	"arrowright"	n/a	"NULL"	"NULL"	"NULL"	"stimuli/VerticalHorizontal_20.27143_0.06730.png"	n/a	"VerticalHorizontal"	"arrowleft"	"1460"	"FALSE"	"VerticalHorizontal"	"20.271430000"	"0.0673000000"	"1"	"29"
n/a	"html-keyboard-response"	"75"	"7550804"	"0.0-5.0-2.0-0.11"	"f6ztws"	"600"	"1366"	"chrome"	"109.0.0"	"FALSE"	"Windows 10"	"60.41"	"023"	n/a	n/a	n/a	n/a	n/a	n/a	"fixation"	n/a	n/a	n/a	n/a	"NULL"	n/a	"NULL"	"NULL"	"NULL"	"<p style=\"color: black; font-size: 80px; padding-left: 8%; padding-right: 26%; padding-top: 38%; padding-bottom: 42%\">+</p>"	"1455"	n/a	n/a	n/a	n/a	n/a	n/a	n/a	n/a	n/a
n/a	"image-keyboard-response"	"76"	"7551521"	"0.0-5.0-2.0-1.11"	"f6ztws"	"600"	"1366"	"chrome"	"109.0.0"	"FALSE"	"Windows 10"	"60.41"	"023"	n/a	n/a	n/a	n/a	n/a	n/a	"Trial"	n/a	n/a	n/a	"716"	"arrowleft"	n/a	"NULL"	"NULL"	"NULL"	"stimuli/VerticalHorizontal_20.27143_0.22500.png"	n/a	"VerticalHorizontal"	"arrowleft"	"1474"	"TRUE"	"VerticalHorizontal"	"20.271430000"	"0.2250000000"	"1"	"30"
n/a	"html-keyboard-response"	"77"	"7552833"	"0.0-5.0-2.0-0.12"	"f6ztws"	"600"	"1366"	"chrome"	"109.0.0"	"FALSE"	"Windows 10"	"60.41"	"023"	n/a	n/a	n/a	n/a	n/a	n/a	"fixation"	n/a	n/a	n/a	n/a	"NULL"	n/a	"NULL"	"NULL"	"NULL"	"<p style=\"color: black; font-size: 80px; padding-left: 33%; padding-right: 23%; padding-top: 32%; padding-bottom: 41%\">+</p>"	"1303"	n/a	n/a	n/a	n/a	n/a	n/a	n/a	n/a	n/a
n/a	"image-keyboard-response"	"78"	"7553562"	"0.0-5.0-2.0-1.12"	"f6ztws"	"600"	"1366"	"chrome"	"109.0.0"	"FALSE"	"Windows 10"	"60.41"	"023"	n/a	n/a	n/a	n/a	n/a	n/a	"Trial"	n/a	n/a	n/a	"728"	"arrowright"	n/a	"NULL"	"NULL"	"NULL"	"stimuli/VerticalHorizontal_28.75714_0.06730.png"	n/a	"VerticalHorizontal"	"arrowleft"	"1312"	"FALSE"	"VerticalHorizontal"	"28.757140000"	"0.0673000000"	"1"	"31"
n/a	"html-keyboard-response"	"79"	"7554819"	"0.0-5.0-2.0-0.13"	"f6ztws"	"600"	"1366"	"chrome"	"109.0.0"	"FALSE"	"Windows 10"	"60.41"	"023"	n/a	n/a	n/a	n/a	n/a	n/a	"fixation"	n/a	n/a	n/a	n/a	"NULL"	n/a	"NULL"	"NULL"	"NULL"	"<p style=\"color: black; font-size: 80px; padding-left: 4%; padding-right: 49%; padding-top: 18%; padding-bottom: 41%\">+</p>"	"1248"	n/a	n/a	n/a	n/a	n/a	n/a	n/a	n/a	n/a
n/a	"image-keyboard-response"	"80"	"7555762"	"0.0-5.0-2.0-1.13"	"f6ztws"	"600"	"1366"	"chrome"	"109.0.0"	"FALSE"	"Windows 10"	"60.41"	"023"	n/a	n/a	n/a	n/a	n/a	n/a	"Trial"	n/a	n/a	n/a	"942"	"arrowright"	n/a	"NULL"	"NULL"	"NULL"	"stimuli/VerticalHorizontal_11.78571_-0.16217.png"	n/a	"VerticalHorizontal"	"arrowright"	"1257"	"TRUE"	"VerticalHorizontal"	"11.785710000"	"-0.162170000"	"1"	"32"
n/a	"html-keyboard-response"	"81"	"7556811"	"0.0-5.0-2.0-0.14"	"f6ztws"	"600"	"1366"	"chrome"	"109.0.0"	"FALSE"	"Windows 10"	"60.41"	"023"	n/a	n/a	n/a	n/a	n/a	n/a	"fixation"	n/a	n/a	n/a	n/a	"NULL"	n/a	"NULL"	"NULL"	"NULL"	"<p style=\"color: black; font-size: 80px; padding-left: 20%; padding-right: 16%; padding-top: 8%; padding-bottom: 31%\">+</p>"	"1035"	n/a	n/a	n/a	n/a	n/a	n/a	n/a	n/a	n/a
n/a	"image-keyboard-response"	"82"	"7557532"	"0.0-5.0-2.0-1.14"	"f6ztws"	"600"	"1366"	"chrome"	"109.0.0"	"FALSE"	"Windows 10"	"60.41"	"023"	n/a	n/a	n/a	n/a	n/a	n/a	"Trial"	n/a	n/a	n/a	"720"	"arrowleft"	n/a	"NULL"	"NULL"	"NULL"	"stimuli/VerticalHorizontal_28.75714_0.16217.png"	n/a	"VerticalHorizontal"	"arrowleft"	"1049"	"TRUE"	"VerticalHorizontal"	"28.757140000"	"0.1621700000"	"1"	"33"
n/a	"html-keyboard-response"	"83"	"7558942"	"0.0-5.0-2.0-0.15"	"f6ztws"	"600"	"1366"	"chrome"	"109.0.0"	"FALSE"	"Windows 10"	"60.41"	"023"	n/a	n/a	n/a	n/a	n/a	n/a	"fixation"	n/a	n/a	n/a	n/a	"NULL"	n/a	"NULL"	"NULL"	"NULL"	"<p style=\"color: black; font-size: 80px; padding-left: 13%; padding-right: 2%; padding-top: 31%; padding-bottom: 36%\">+</p>"	"1396"	n/a	n/a	n/a	n/a	n/a	n/a	n/a	n/a	n/a
n/a	"image-keyboard-response"	"84"	"7559584"	"0.0-5.0-2.0-1.15"	"f6ztws"	"600"	"1366"	"chrome"	"109.0.0"	"FALSE"	"Windows 10"	"60.41"	"023"	n/a	n/a	n/a	n/a	n/a	n/a	"Trial"	n/a	n/a	n/a	"641"	"arrowright"	n/a	"NULL"	"NULL"	"NULL"	"stimuli/VerticalHorizontal_28.75714_-0.2250.png"	n/a	"VerticalHorizontal"	"arrowright"	"1410"	"TRUE"	"VerticalHorizontal"	"28.757140000"	"-0.225000000"	"1"	"34"
n/a	"html-keyboard-response"	"85"	"7560641"	"0.0-5.0-2.0-0.16"	"f6ztws"	"600"	"1366"	"chrome"	"109.0.0"	"FALSE"	"Windows 10"	"60.41"	"023"	n/a	n/a	n/a	n/a	n/a	n/a	"fixation"	n/a	n/a	n/a	n/a	"NULL"	n/a	"NULL"	"NULL"	"NULL"	"<p style=\"color: black; font-size: 80px; padding-left: 20%; padding-right: 26%; padding-top: 48%; padding-bottom: 26%\">+</p>"	"1051"	n/a	n/a	n/a	n/a	n/a	n/a	n/a	n/a	n/a
n/a	"image-keyboard-response"	"86"	"7561318"	"0.0-5.0-2.0-1.16"	"f6ztws"	"600"	"1366"	"chrome"	"109.0.0"	"FALSE"	"Windows 10"	"60.41"	"023"	n/a	n/a	n/a	n/a	n/a	n/a	"Trial"	n/a	n/a	n/a	"676"	"arrowright"	n/a	"NULL"	"NULL"	"NULL"	"stimuli/VerticalHorizontal_3.30000_-0.2250.png"	n/a	"VerticalHorizontal"	"arrowright"	"1057"	"TRUE"	"VerticalHorizontal"	"3.3000000000"	"-0.225000000"	"1"	"35"
n/a	"html-keyboard-response"	"87"	"7562544"	"0.0-5.0-2.0-0.17"	"f6ztws"	"600"	"1366"	"chrome"	"109.0.0"	"FALSE"	"Windows 10"	"60.41"	"023"	n/a	n/a	n/a	n/a	n/a	n/a	"fixation"	n/a	n/a	n/a	n/a	"NULL"	n/a	"NULL"	"NULL"	"NULL"	"<p style=\"color: black; font-size: 80px; padding-left: 38%; padding-right: 8%; padding-top: 2%; padding-bottom: 22%\">+</p>"	"1216"	n/a	n/a	n/a	n/a	n/a	n/a	n/a	n/a	n/a
n/a	"image-keyboard-response"	"88"	"7563226"	"0.0-5.0-2.0-1.17"	"f6ztws"	"600"	"1366"	"chrome"	"109.0.0"	"FALSE"	"Windows 10"	"60.41"	"023"	n/a	n/a	n/a	n/a	n/a	n/a	"Trial"	n/a	n/a	n/a	"681"	"arrowleft"	n/a	"NULL"	"NULL"	"NULL"	"stimuli/VerticalHorizontal_-3.3000_0.22500.png"	n/a	"VerticalHorizontal"	"arrowleft"	"1226"	"TRUE"	"VerticalHorizontal"	"-3.300000000"	"0.2250000000"	"1"	"36"
n/a	"html-keyboard-response"	"89"	"7564565"	"0.0-5.0-2.0-0.18"	"f6ztws"	"600"	"1366"	"chrome"	"109.0.0"	"FALSE"	"Windows 10"	"60.41"	"023"	n/a	n/a	n/a	n/a	n/a	n/a	"fixation"	n/a	n/a	n/a	n/a	"NULL"	n/a	"NULL"	"NULL"	"NULL"	"<p style=\"color: black; font-size: 80px; padding-left: 41%; padding-right: 50%; padding-top: 14%; padding-bottom: 3%\">+</p>"	"1331"	n/a	n/a	n/a	n/a	n/a	n/a	n/a	n/a	n/a
n/a	"image-keyboard-response"	"90"	"7565198"	"0.0-5.0-2.0-1.18"	"f6ztws"	"600"	"1366"	"chrome"	"109.0.0"	"FALSE"	"Windows 10"	"60.41"	"023"	n/a	n/a	n/a	n/a	n/a	n/a	"Trial"	n/a	n/a	n/a	"632"	"arrowleft"	n/a	"NULL"	"NULL"	"NULL"	"stimuli/VerticalHorizontal_11.78571_0.22500.png"	n/a	"VerticalHorizontal"	"arrowleft"	"1339"	"TRUE"	"VerticalHorizontal"	"11.785710000"	"0.2250000000"	"1"	"37"
n/a	"html-keyboard-response"	"91"	"7566236"	"0.0-5.0-2.0-0.19"	"f6ztws"	"600"	"1366"	"chrome"	"109.0.0"	"FALSE"	"Windows 10"	"60.41"	"023"	n/a	n/a	n/a	n/a	n/a	n/a	"fixation"	n/a	n/a	n/a	n/a	"NULL"	n/a	"NULL"	"NULL"	"NULL"	"<p style=\"color: black; font-size: 80px; padding-left: 19%; padding-right: 18%; padding-top: 12%; padding-bottom: 19%\">+</p>"	"1033"	n/a	n/a	n/a	n/a	n/a	n/a	n/a	n/a	n/a
n/a	"image-keyboard-response"	"92"	"7567005"	"0.0-5.0-2.0-1.19"	"f6ztws"	"600"	"1366"	"chrome"	"109.0.0"	"FALSE"	"Windows 10"	"60.41"	"023"	n/a	n/a	n/a	n/a	n/a	n/a	"Trial"	n/a	n/a	n/a	"768"	"arrowleft"	n/a	"NULL"	"NULL"	"NULL"	"stimuli/VerticalHorizontal_-28.75714_0.10960.png"	n/a	"VerticalHorizontal"	"arrowleft"	"1038"	"TRUE"	"VerticalHorizontal"	"-28.75714000"	"0.1096000000"	"1"	"38"
n/a	"html-keyboard-response"	"93"	"7568074"	"0.0-5.0-2.0-0.20"	"f6ztws"	"600"	"1366"	"chrome"	"109.0.0"	"FALSE"	"Windows 10"	"60.41"	"023"	n/a	n/a	n/a	n/a	n/a	n/a	"fixation"	n/a	n/a	n/a	n/a	"NULL"	n/a	"NULL"	"NULL"	"NULL"	"<p style=\"color: black; font-size: 80px; padding-left: 21%; padding-right: 15%; padding-top: 34%; padding-bottom: 41%\">+</p>"	"1058"	n/a	n/a	n/a	n/a	n/a	n/a	n/a	n/a	n/a
n/a	"image-keyboard-response"	"94"	"7568884"	"0.0-5.0-2.0-1.20"	"f6ztws"	"600"	"1366"	"chrome"	"109.0.0"	"FALSE"	"Windows 10"	"60.41"	"023"	n/a	n/a	n/a	n/a	n/a	n/a	"Trial"	n/a	n/a	n/a	"810"	"arrowright"	n/a	"NULL"	"NULL"	"NULL"	"stimuli/VerticalHorizontal_-11.78571_-0.16217.png"	n/a	"VerticalHorizontal"	"arrowright"	"1069"	"TRUE"	"VerticalHorizontal"	"-11.78571000"	"-0.162170000"	"1"	"39"
n/a	"html-keyboard-response"	"95"	"7569948"	"0.0-5.0-2.0-0.21"	"f6ztws"	"600"	"1366"	"chrome"	"109.0.0"	"FALSE"	"Windows 10"	"60.41"	"023"	n/a	n/a	n/a	n/a	n/a	n/a	"fixation"	n/a	n/a	n/a	n/a	"NULL"	n/a	"NULL"	"NULL"	"NULL"	"<p style=\"color: black; font-size: 80px; padding-left: 35%; padding-right: 8%; padding-top: 25%; padding-bottom: 35%\">+</p>"	"1053"	n/a	n/a	n/a	n/a	n/a	n/a	n/a	n/a	n/a
n/a	"image-keyboard-response"	"96"	"7570776"	"0.0-5.0-2.0-1.21"	"f6ztws"	"600"	"1366"	"chrome"	"109.0.0"	"FALSE"	"Windows 10"	"60.41"	"023"	n/a	n/a	n/a	n/a	n/a	n/a	"Trial"	n/a	n/a	n/a	"827"	"arrowright"	n/a	"NULL"	"NULL"	"NULL"	"stimuli/VerticalHorizontal_3.30000_-0.16217.png"	n/a	"VerticalHorizontal"	"arrowright"	"1064"	"TRUE"	"VerticalHorizontal"	"3.3000000000"	"-0.162170000"	"1"	"40"
n/a	"html-keyboard-response"	"97"	"7571848"	"0.0-5.0-2.0-0.22"	"f6ztws"	"600"	"1366"	"chrome"	"109.0.0"	"FALSE"	"Windows 10"	"60.41"	"023"	n/a	n/a	n/a	n/a	n/a	n/a	"fixation"	n/a	n/a	n/a	n/a	"NULL"	n/a	"NULL"	"NULL"	"NULL"	"<p style=\"color: black; font-size: 80px; padding-left: 41%; padding-right: 47%; padding-top: 29%; padding-bottom: 28%\">+</p>"	"1063"	n/a	n/a	n/a	n/a	n/a	n/a	n/a	n/a	n/a
n/a	"image-keyboard-response"	"98"	"7572497"	"0.0-5.0-2.0-1.22"	"f6ztws"	"600"	"1366"	"chrome"	"109.0.0"	"FALSE"	"Windows 10"	"60.41"	"023"	n/a	n/a	n/a	n/a	n/a	n/a	"Trial"	n/a	n/a	n/a	"648"	"arrowright"	n/a	"NULL"	"NULL"	"NULL"	"stimuli/VerticalHorizontal_-11.78571_-0.1096.png"	n/a	"VerticalHorizontal"	"arrowright"	"1072"	"TRUE"	"VerticalHorizontal"	"-11.78571000"	"-0.109600000"	"1"	"41"
n/a	"html-keyboard-response"	"99"	"7573989"	"0.0-5.0-2.0-0.23"	"f6ztws"	"600"	"1366"	"chrome"	"109.0.0"	"FALSE"	"Windows 10"	"60.41"	"023"	n/a	n/a	n/a	n/a	n/a	n/a	"fixation"	n/a	n/a	n/a	n/a	"NULL"	n/a	"NULL"	"NULL"	"NULL"	"<p style=\"color: black; font-size: 80px; padding-left: 1%; padding-right: 32%; padding-top: 46%; padding-bottom: 21%\">+</p>"	"1477"	n/a	n/a	n/a	n/a	n/a	n/a	n/a	n/a	n/a
n/a	"image-keyboard-response"	"100"	"7574588"	"0.0-5.0-2.0-1.23"	"f6ztws"	"600"	"1366"	"chrome"	"109.0.0"	"FALSE"	"Windows 10"	"60.41"	"023"	n/a	n/a	n/a	n/a	n/a	n/a	"Trial"	n/a	n/a	n/a	"599"	"arrowleft"	n/a	"NULL"	"NULL"	"NULL"	"stimuli/VerticalHorizontal_-20.27143_0.22500.png"	n/a	"VerticalHorizontal"	"arrowleft"	"1492"	"TRUE"	"VerticalHorizontal"	"-20.27143000"	"0.2250000000"	"1"	"42"
n/a	"html-keyboard-response"	"101"	"7575994"	"0.0-5.0-2.0-0.24"	"f6ztws"	"600"	"1366"	"chrome"	"109.0.0"	"FALSE"	"Windows 10"	"60.41"	"023"	n/a	n/a	n/a	n/a	n/a	n/a	"fixation"	n/a	n/a	n/a	n/a	"NULL"	n/a	"NULL"	"NULL"	"NULL"	"<p style=\"color: black; font-size: 80px; padding-left: 24%; padding-right: 10%; padding-top: 38%; padding-bottom: 12%\">+</p>"	"1396"	n/a	n/a	n/a	n/a	n/a	n/a	n/a	n/a	n/a
n/a	"image-keyboard-response"	"102"	"7576814"	"0.0-5.0-2.0-1.24"	"f6ztws"	"600"	"1366"	"chrome"	"109.0.0"	"FALSE"	"Windows 10"	"60.41"	"023"	n/a	n/a	n/a	n/a	n/a	n/a	"Trial"	n/a	n/a	n/a	"819"	"arrowleft"	n/a	"NULL"	"NULL"	"NULL"	"stimuli/VerticalHorizontal_3.30000_0.10960.png"	n/a	"VerticalHorizontal"	"arrowleft"	"1406"	"TRUE"	"VerticalHorizontal"	"3.3000000000"	"0.1096000000"	"1"	"43"
n/a	"html-keyboard-response"	"103"	"7578120"	"0.0-5.0-2.0-0.25"	"f6ztws"	"600"	"1366"	"chrome"	"109.0.0"	"FALSE"	"Windows 10"	"60.41"	"023"	n/a	n/a	n/a	n/a	n/a	n/a	"fixation"	n/a	n/a	n/a	n/a	"NULL"	n/a	"NULL"	"NULL"	"NULL"	"<p style=\"color: black; font-size: 80px; padding-left: 1%; padding-right: 26%; padding-top: 26%; padding-bottom: 17%\">+</p>"	"1286"	n/a	n/a	n/a	n/a	n/a	n/a	n/a	n/a	n/a
n/a	"image-keyboard-response"	"104"	"7578653"	"0.0-5.0-2.0-1.25"	"f6ztws"	"600"	"1366"	"chrome"	"109.0.0"	"FALSE"	"Windows 10"	"60.41"	"023"	n/a	n/a	n/a	n/a	n/a	n/a	"Trial"	n/a	n/a	n/a	"532"	"arrowright"	n/a	"NULL"	"NULL"	"NULL"	"stimuli/VerticalHorizontal_-28.75714_-0.1096.png"	n/a	"VerticalHorizontal"	"arrowright"	"1306"	"TRUE"	"VerticalHorizontal"	"-28.75714000"	"-0.109600000"	"1"	"44"
n/a	"html-keyboard-response"	"105"	"7580137"	"0.0-5.0-2.0-0.26"	"f6ztws"	"600"	"1366"	"chrome"	"109.0.0"	"FALSE"	"Windows 10"	"60.41"	"023"	n/a	n/a	n/a	n/a	n/a	n/a	"fixation"	n/a	n/a	n/a	n/a	"NULL"	n/a	"NULL"	"NULL"	"NULL"	"<p style=\"color: black; font-size: 80px; padding-left: 25%; padding-right: 35%; padding-top: 42%; padding-bottom: 13%\">+</p>"	"1470"	n/a	n/a	n/a	n/a	n/a	n/a	n/a	n/a	n/a
n/a	"image-keyboard-response"	"106"	"7580898"	"0.0-5.0-2.0-1.26"	"f6ztws"	"600"	"1366"	"chrome"	"109.0.0"	"FALSE"	"Windows 10"	"60.41"	"023"	n/a	n/a	n/a	n/a	n/a	n/a	"Trial"	n/a	n/a	n/a	"760"	"arrowright"	n/a	"NULL"	"NULL"	"NULL"	"stimuli/VerticalHorizontal_11.78571_-0.1096.png"	n/a	"VerticalHorizontal"	"arrowright"	"1484"	"TRUE"	"VerticalHorizontal"	"11.785710000"	"-0.109600000"	"1"	"45"
n/a	"html-keyboard-response"	"107"	"7582320"	"0.0-5.0-2.0-0.27"	"f6ztws"	"600"	"1366"	"chrome"	"109.0.0"	"FALSE"	"Windows 10"	"60.41"	"023"	n/a	n/a	n/a	n/a	n/a	n/a	"fixation"	n/a	n/a	n/a	n/a	"NULL"	n/a	"NULL"	"NULL"	"NULL"	"<p style=\"color: black; font-size: 80px; padding-left: 28%; padding-right: 8%; padding-top: 10%; padding-bottom: 24%\">+</p>"	"1399"	n/a	n/a	n/a	n/a	n/a	n/a	n/a	n/a	n/a
n/a	"image-keyboard-response"	"108"	"7583234"	"0.0-5.0-2.0-1.27"	"f6ztws"	"600"	"1366"	"chrome"	"109.0.0"	"FALSE"	"Windows 10"	"60.41"	"023"	n/a	n/a	n/a	n/a	n/a	n/a	"Trial"	n/a	n/a	n/a	"913"	"arrowright"	n/a	"NULL"	"NULL"	"NULL"	"stimuli/VerticalHorizontal_20.27143_-0.1096.png"	n/a	"VerticalHorizontal"	"arrowright"	"1422"	"TRUE"	"VerticalHorizontal"	"20.271430000"	"-0.109600000"	"1"	"46"
n/a	"html-keyboard-response"	"109"	"7584335"	"0.0-5.0-2.0-0.28"	"f6ztws"	"600"	"1366"	"chrome"	"109.0.0"	"FALSE"	"Windows 10"	"60.41"	"023"	n/a	n/a	n/a	n/a	n/a	n/a	"fixation"	n/a	n/a	n/a	n/a	"NULL"	n/a	"NULL"	"NULL"	"NULL"	"<p style=\"color: black; font-size: 80px; padding-left: 31%; padding-right: 24%; padding-top: 48%; padding-bottom: 45%\">+</p>"	"1094"	n/a	n/a	n/a	n/a	n/a	n/a	n/a	n/a	n/a
n/a	"image-keyboard-response"	"110"	"7584934"	"0.0-5.0-2.0-1.28"	"f6ztws"	"600"	"1366"	"chrome"	"109.0.0"	"FALSE"	"Windows 10"	"60.41"	"023"	n/a	n/a	n/a	n/a	n/a	n/a	"Trial"	n/a	n/a	n/a	"598"	"arrowright"	n/a	"NULL"	"NULL"	"NULL"	"stimuli/VerticalHorizontal_20.27143_-0.2250.png"	n/a	"VerticalHorizontal"	"arrowright"	"1101"	"TRUE"	"VerticalHorizontal"	"20.271430000"	"-0.225000000"	"1"	"47"
n/a	"html-keyboard-response"	"111"	"7585989"	"0.0-5.0-2.0-0.29"	"f6ztws"	"600"	"1366"	"chrome"	"109.0.0"	"FALSE"	"Windows 10"	"60.41"	"023"	n/a	n/a	n/a	n/a	n/a	n/a	"fixation"	n/a	n/a	n/a	n/a	"NULL"	n/a	"NULL"	"NULL"	"NULL"	"<p style=\"color: black; font-size: 80px; padding-left: 48%; padding-right: 16%; padding-top: 32%; padding-bottom: 2%\">+</p>"	"1035"	n/a	n/a	n/a	n/a	n/a	n/a	n/a	n/a	n/a
n/a	"image-keyboard-response"	"112"	"7586609"	"0.0-5.0-2.0-1.29"	"f6ztws"	"600"	"1366"	"chrome"	"109.0.0"	"FALSE"	"Windows 10"	"60.41"	"023"	n/a	n/a	n/a	n/a	n/a	n/a	"Trial"	n/a	n/a	n/a	"619"	"arrowleft"	n/a	"NULL"	"NULL"	"NULL"	"stimuli/VerticalHorizontal_-11.78571_0.10960.png"	n/a	"VerticalHorizontal"	"arrowleft"	"1055"	"TRUE"	"VerticalHorizontal"	"-11.78571000"	"0.1096000000"	"1"	"48"
n/a	"html-keyboard-response"	"113"	"7588011"	"0.0-5.0-2.0-0.30"	"f6ztws"	"600"	"1366"	"chrome"	"109.0.0"	"FALSE"	"Windows 10"	"60.41"	"023"	n/a	n/a	n/a	n/a	n/a	n/a	"fixation"	n/a	n/a	n/a	n/a	"NULL"	n/a	"NULL"	"NULL"	"NULL"	"<p style=\"color: black; font-size: 80px; padding-left: 12%; padding-right: 11%; padding-top: 2%; padding-bottom: 42%\">+</p>"	"1398"	n/a	n/a	n/a	n/a	n/a	n/a	n/a	n/a	n/a
n/a	"image-keyboard-response"	"114"	"7589444"	"0.0-5.0-2.0-1.30"	"f6ztws"	"600"	"1366"	"chrome"	"109.0.0"	"FALSE"	"Windows 10"	"60.41"	"023"	n/a	n/a	n/a	n/a	n/a	n/a	"Trial"	n/a	n/a	n/a	"1432"	"arrowleft"	n/a	"NULL"	"NULL"	"NULL"	"stimuli/VerticalHorizontal_20.27143_-0.0673.png"	n/a	"VerticalHorizontal"	"arrowright"	"1402"	"FALSE"	"VerticalHorizontal"	"20.271430000"	"-0.067300000"	"1"	"49"
n/a	"html-keyboard-response"	"115"	"7590802"	"0.0-5.0-2.0-0.31"	"f6ztws"	"600"	"1366"	"chrome"	"109.0.0"	"FALSE"	"Windows 10"	"60.41"	"023"	n/a	n/a	n/a	n/a	n/a	n/a	"fixation"	n/a	n/a	n/a	n/a	"NULL"	n/a	"NULL"	"NULL"	"NULL"	"<p style=\"color: black; font-size: 80px; padding-left: 15%; padding-right: 3%; padding-top: 2%; padding-bottom: 40%\">+</p>"	"1348"	n/a	n/a	n/a	n/a	n/a	n/a	n/a	n/a	n/a
n/a	"image-keyboard-response"	"116"	"7591325"	"0.0-5.0-2.0-1.31"	"f6ztws"	"600"	"1366"	"chrome"	"109.0.0"	"FALSE"	"Windows 10"	"60.41"	"023"	n/a	n/a	n/a	n/a	n/a	n/a	"Trial"	n/a	n/a	n/a	"523"	"arrowright"	n/a	"NULL"	"NULL"	"NULL"	"stimuli/VerticalHorizontal_-20.27143_-0.16217.png"	n/a	"VerticalHorizontal"	"arrowright"	"1358"	"TRUE"	"VerticalHorizontal"	"-20.27143000"	"-0.162170000"	"1"	"50"
n/a	"html-keyboard-response"	"117"	"7592695"	"0.0-5.0-2.0-0.32"	"f6ztws"	"600"	"1366"	"chrome"	"109.0.0"	"FALSE"	"Windows 10"	"60.41"	"023"	n/a	n/a	n/a	n/a	n/a	n/a	"fixation"	n/a	n/a	n/a	n/a	"NULL"	n/a	"NULL"	"NULL"	"NULL"	"<p style=\"color: black; font-size: 80px; padding-left: 44%; padding-right: 42%; padding-top: 35%; padding-bottom: 28%\">+</p>"	"1357"	n/a	n/a	n/a	n/a	n/a	n/a	n/a	n/a	n/a
n/a	"image-keyboard-response"	"118"	"7593533"	"0.0-5.0-2.0-1.32"	"f6ztws"	"600"	"1366"	"chrome"	"109.0.0"	"FALSE"	"Windows 10"	"60.41"	"023"	n/a	n/a	n/a	n/a	n/a	n/a	"Trial"	n/a	n/a	n/a	"837"	"arrowleft"	n/a	"NULL"	"NULL"	"NULL"	"stimuli/VerticalHorizontal_20.27143_0.16217.png"	n/a	"VerticalHorizontal"	"arrowleft"	"1370"	"TRUE"	"VerticalHorizontal"	"20.271430000"	"0.1621700000"	"1"	"51"
n/a	"html-keyboard-response"	"119"	"7594996"	"0.0-5.0-2.0-0.33"	"f6ztws"	"600"	"1366"	"chrome"	"109.0.0"	"FALSE"	"Windows 10"	"60.41"	"023"	n/a	n/a	n/a	n/a	n/a	n/a	"fixation"	n/a	n/a	n/a	n/a	"NULL"	n/a	"NULL"	"NULL"	"NULL"	"<p style=\"color: black; font-size: 80px; padding-left: 24%; padding-right: 41%; padding-top: 36%; padding-bottom: 21%\">+</p>"	"1459"	n/a	n/a	n/a	n/a	n/a	n/a	n/a	n/a	n/a
n/a	"image-keyboard-response"	"120"	"7596979"	"0.0-5.0-2.0-1.33"	"f6ztws"	"600"	"1366"	"chrome"	"109.0.0"	"FALSE"	"Windows 10"	"60.41"	"023"	n/a	n/a	n/a	n/a	n/a	n/a	"Trial"	n/a	n/a	n/a	"1983"	"arrowright"	n/a	"NULL"	"NULL"	"NULL"	"stimuli/VerticalHorizontal_3.30000_0.06730.png"	n/a	"VerticalHorizontal"	"arrowleft"	"1463"	"FALSE"	"VerticalHorizontal"	"3.3000000000"	"0.0673000000"	"1"	"52"
n/a	"html-keyboard-response"	"121"	"7598464"	"0.0-5.0-2.0-0.34"	"f6ztws"	"600"	"1366"	"chrome"	"109.0.0"	"FALSE"	"Windows 10"	"60.41"	"023"	n/a	n/a	n/a	n/a	n/a	n/a	"fixation"	n/a	n/a	n/a	n/a	"NULL"	n/a	"NULL"	"NULL"	"NULL"	"<p style=\"color: black; font-size: 80px; padding-left: 0%; padding-right: 23%; padding-top: 40%; padding-bottom: 17%\">+</p>"	"1463"	n/a	n/a	n/a	n/a	n/a	n/a	n/a	n/a	n/a
n/a	"image-keyboard-response"	"122"	"7599120"	"0.0-5.0-2.0-1.34"	"f6ztws"	"600"	"1366"	"chrome"	"109.0.0"	"FALSE"	"Windows 10"	"60.41"	"023"	n/a	n/a	n/a	n/a	n/a	n/a	"Trial"	n/a	n/a	n/a	"654"	"arrowleft"	n/a	"NULL"	"NULL"	"NULL"	"stimuli/VerticalHorizontal_-20.27143_0.10960.png"	n/a	"VerticalHorizontal"	"arrowleft"	"1485"	"TRUE"	"VerticalHorizontal"	"-20.27143000"	"0.1096000000"	"1"	"53"
n/a	"html-keyboard-response"	"123"	"7600540"	"0.0-5.0-2.0-0.35"	"f6ztws"	"600"	"1366"	"chrome"	"109.0.0"	"FALSE"	"Windows 10"	"60.41"	"023"	n/a	n/a	n/a	n/a	n/a	n/a	"fixation"	n/a	n/a	n/a	n/a	"NULL"	n/a	"NULL"	"NULL"	"NULL"	"<p style=\"color: black; font-size: 80px; padding-left: 28%; padding-right: 31%; padding-top: 0%; padding-bottom: 25%\">+</p>"	"1402"	n/a	n/a	n/a	n/a	n/a	n/a	n/a	n/a	n/a
n/a	"image-keyboard-response"	"124"	"7602268"	"0.0-5.0-2.0-1.35"	"f6ztws"	"600"	"1366"	"chrome"	"109.0.0"	"FALSE"	"Windows 10"	"60.41"	"023"	n/a	n/a	n/a	n/a	n/a	n/a	"Trial"	n/a	n/a	n/a	"1727"	"arrowleft"	n/a	"NULL"	"NULL"	"NULL"	"stimuli/VerticalHorizontal_-11.78571_0.06730.png"	n/a	"VerticalHorizontal"	"arrowleft"	"1420"	"TRUE"	"VerticalHorizontal"	"-11.78571000"	"0.0673000000"	"1"	"54"
n/a	"html-keyboard-response"	"125"	"7603742"	"0.0-5.0-2.0-0.36"	"f6ztws"	"600"	"1366"	"chrome"	"109.0.0"	"FALSE"	"Windows 10"	"60.41"	"023"	n/a	n/a	n/a	n/a	n/a	n/a	"fixation"	n/a	n/a	n/a	n/a	"NULL"	n/a	"NULL"	"NULL"	"NULL"	"<p style=\"color: black; font-size: 80px; padding-left: 23%; padding-right: 4%; padding-top: 5%; padding-bottom: 26%\">+</p>"	"1454"	n/a	n/a	n/a	n/a	n/a	n/a	n/a	n/a	n/a
n/a	"image-keyboard-response"	"126"	"7604582"	"0.0-5.0-2.0-1.36"	"f6ztws"	"600"	"1366"	"chrome"	"109.0.0"	"FALSE"	"Windows 10"	"60.41"	"023"	n/a	n/a	n/a	n/a	n/a	n/a	"Trial"	n/a	n/a	n/a	"840"	"arrowright"	n/a	"NULL"	"NULL"	"NULL"	"stimuli/VerticalHorizontal_20.27143_-0.16217.png"	n/a	"VerticalHorizontal"	"arrowright"	"1474"	"TRUE"	"VerticalHorizontal"	"20.271430000"	"-0.162170000"	"1"	"55"
n/a	"html-keyboard-response"	"127"	"7605764"	"0.0-5.0-2.0-0.37"	"f6ztws"	"600"	"1366"	"chrome"	"109.0.0"	"FALSE"	"Windows 10"	"60.41"	"023"	n/a	n/a	n/a	n/a	n/a	n/a	"fixation"	n/a	n/a	n/a	n/a	"NULL"	n/a	"NULL"	"NULL"	"NULL"	"<p style=\"color: black; font-size: 80px; padding-left: 44%; padding-right: 39%; padding-top: 10%; padding-bottom: 38%\">+</p>"	"1166"	n/a	n/a	n/a	n/a	n/a	n/a	n/a	n/a	n/a
n/a	"image-keyboard-response"	"128"	"7606780"	"0.0-5.0-2.0-1.37"	"f6ztws"	"600"	"1366"	"chrome"	"109.0.0"	"FALSE"	"Windows 10"	"60.41"	"023"	n/a	n/a	n/a	n/a	n/a	n/a	"Trial"	n/a	n/a	n/a	"1015"	"arrowleft"	n/a	"NULL"	"NULL"	"NULL"	"stimuli/VerticalHorizontal_3.30000_-0.0673.png"	n/a	"VerticalHorizontal"	"arrowright"	"1182"	"FALSE"	"VerticalHorizontal"	"3.3000000000"	"-0.067300000"	"1"	"56"
n/a	"html-keyboard-response"	"129"	"7608122"	"0.0-5.0-2.0-0.38"	"f6ztws"	"600"	"1366"	"chrome"	"109.0.0"	"FALSE"	"Windows 10"	"60.41"	"023"	n/a	n/a	n/a	n/a	n/a	n/a	"fixation"	n/a	n/a	n/a	n/a	"NULL"	n/a	"NULL"	"NULL"	"NULL"	"<p style=\"color: black; font-size: 80px; padding-left: 32%; padding-right: 13%; padding-top: 49%; padding-bottom: 26%\">+</p>"	"1327"	n/a	n/a	n/a	n/a	n/a	n/a	n/a	n/a	n/a
n/a	"image-keyboard-response"	"130"	"7608628"	"0.0-5.0-2.0-1.38"	"f6ztws"	"600"	"1366"	"chrome"	"109.0.0"	"FALSE"	"Windows 10"	"60.41"	"023"	n/a	n/a	n/a	n/a	n/a	n/a	"Trial"	n/a	n/a	n/a	"505"	"arrowleft"	n/a	"NULL"	"NULL"	"NULL"	"stimuli/VerticalHorizontal_-28.75714_0.22500.png"	n/a	"VerticalHorizontal"	"arrowleft"	"1342"	"TRUE"	"VerticalHorizontal"	"-28.75714000"	"0.2250000000"	"1"	"57"
n/a	"html-keyboard-response"	"131"	"7609963"	"0.0-5.0-2.0-0.39"	"f6ztws"	"600"	"1366"	"chrome"	"109.0.0"	"FALSE"	"Windows 10"	"60.41"	"023"	n/a	n/a	n/a	n/a	n/a	n/a	"fixation"	n/a	n/a	n/a	n/a	"NULL"	n/a	"NULL"	"NULL"	"NULL"	"<p style=\"color: black; font-size: 80px; padding-left: 49%; padding-right: 26%; padding-top: 20%; padding-bottom: 28%\">+</p>"	"1329"	n/a	n/a	n/a	n/a	n/a	n/a	n/a	n/a	n/a
n/a	"image-keyboard-response"	"132"	"7611275"	"0.0-5.0-2.0-1.39"	"f6ztws"	"600"	"1366"	"chrome"	"109.0.0"	"FALSE"	"Windows 10"	"60.41"	"023"	n/a	n/a	n/a	n/a	n/a	n/a	"Trial"	n/a	n/a	n/a	"1311"	"arrowleft"	n/a	"NULL"	"NULL"	"NULL"	"stimuli/VerticalHorizontal_-3.3000_0.06730.png"	n/a	"VerticalHorizontal"	"arrowleft"	"1335"	"TRUE"	"VerticalHorizontal"	"-3.300000000"	"0.0673000000"	"1"	"58"
n/a	"html-keyboard-response"	"133"	"7612703"	"0.0-5.0-2.0-0.40"	"f6ztws"	"600"	"1366"	"chrome"	"109.0.0"	"FALSE"	"Windows 10"	"60.41"	"023"	n/a	n/a	n/a	n/a	n/a	n/a	"fixation"	n/a	n/a	n/a	n/a	"NULL"	n/a	"NULL"	"NULL"	"NULL"	"<p style=\"color: black; font-size: 80px; padding-left: 4%; padding-right: 20%; padding-top: 38%; padding-bottom: 32%\">+</p>"	"1406"	n/a	n/a	n/a	n/a	n/a	n/a	n/a	n/a	n/a
n/a	"image-keyboard-response"	"134"	"7613336"	"0.0-5.0-2.0-1.40"	"f6ztws"	"600"	"1366"	"chrome"	"109.0.0"	"FALSE"	"Windows 10"	"60.41"	"023"	n/a	n/a	n/a	n/a	n/a	n/a	"Trial"	n/a	n/a	n/a	"631"	"arrowright"	n/a	"NULL"	"NULL"	"NULL"	"stimuli/VerticalHorizontal_-28.75714_-0.16217.png"	n/a	"VerticalHorizontal"	"arrowright"	"1428"	"TRUE"	"VerticalHorizontal"	"-28.75714000"	"-0.162170000"	"1"	"59"
n/a	"html-keyboard-response"	"135"	"7614717"	"0.0-5.0-2.0-0.41"	"f6ztws"	"600"	"1366"	"chrome"	"109.0.0"	"FALSE"	"Windows 10"	"60.41"	"023"	n/a	n/a	n/a	n/a	n/a	n/a	"fixation"	n/a	n/a	n/a	n/a	"NULL"	n/a	"NULL"	"NULL"	"NULL"	"<p style=\"color: black; font-size: 80px; padding-left: 30%; padding-right: 20%; padding-top: 44%; padding-bottom: 39%\">+</p>"	"1363"	n/a	n/a	n/a	n/a	n/a	n/a	n/a	n/a	n/a
n/a	"image-keyboard-response"	"136"	"7616297"	"0.0-5.0-2.0-1.41"	"f6ztws"	"600"	"1366"	"chrome"	"109.0.0"	"FALSE"	"Windows 10"	"60.41"	"023"	n/a	n/a	n/a	n/a	n/a	n/a	"Trial"	n/a	n/a	n/a	"1580"	"arrowleft"	n/a	"NULL"	"NULL"	"NULL"	"stimuli/VerticalHorizontal_20.27143_0.10960.png"	n/a	"VerticalHorizontal"	"arrowleft"	"1381"	"TRUE"	"VerticalHorizontal"	"20.271430000"	"0.1096000000"	"1"	"60"
n/a	"html-keyboard-response"	"137"	"7617431"	"0.0-5.0-2.0-0.42"	"f6ztws"	"600"	"1366"	"chrome"	"109.0.0"	"FALSE"	"Windows 10"	"60.41"	"023"	n/a	n/a	n/a	n/a	n/a	n/a	"fixation"	n/a	n/a	n/a	n/a	"NULL"	n/a	"NULL"	"NULL"	"NULL"	"<p style=\"color: black; font-size: 80px; padding-left: 34%; padding-right: 30%; padding-top: 34%; padding-bottom: 7%\">+</p>"	"1121"	n/a	n/a	n/a	n/a	n/a	n/a	n/a	n/a	n/a
n/a	"image-keyboard-response"	"138"	"7618405"	"0.0-5.0-2.0-1.42"	"f6ztws"	"600"	"1366"	"chrome"	"109.0.0"	"FALSE"	"Windows 10"	"60.41"	"023"	n/a	n/a	n/a	n/a	n/a	n/a	"Trial"	n/a	n/a	n/a	"973"	"arrowright"	n/a	"NULL"	"NULL"	"NULL"	"stimuli/VerticalHorizontal_-20.27143_-0.0673.png"	n/a	"VerticalHorizontal"	"arrowright"	"1134"	"TRUE"	"VerticalHorizontal"	"-20.27143000"	"-0.067300000"	"1"	"61"
n/a	"html-keyboard-response"	"139"	"7619607"	"0.0-5.0-2.0-0.43"	"f6ztws"	"600"	"1366"	"chrome"	"109.0.0"	"FALSE"	"Windows 10"	"60.41"	"023"	n/a	n/a	n/a	n/a	n/a	n/a	"fixation"	n/a	n/a	n/a	n/a	"NULL"	n/a	"NULL"	"NULL"	"NULL"	"<p style=\"color: black; font-size: 80px; padding-left: 48%; padding-right: 24%; padding-top: 27%; padding-bottom: 19%\">+</p>"	"1196"	n/a	n/a	n/a	n/a	n/a	n/a	n/a	n/a	n/a
n/a	"image-keyboard-response"	"140"	"7621419"	"0.0-5.0-2.0-1.43"	"f6ztws"	"600"	"1366"	"chrome"	"109.0.0"	"FALSE"	"Windows 10"	"60.41"	"023"	n/a	n/a	n/a	n/a	n/a	n/a	"Trial"	n/a	n/a	n/a	"1811"	"arrowright"	n/a	"NULL"	"NULL"	"NULL"	"stimuli/VerticalHorizontal_28.75714_0.10960.png"	n/a	"VerticalHorizontal"	"arrowleft"	"1202"	"FALSE"	"VerticalHorizontal"	"28.757140000"	"0.1096000000"	"1"	"62"
n/a	"html-keyboard-response"	"141"	"7622924"	"0.0-5.0-2.0-0.44"	"f6ztws"	"600"	"1366"	"chrome"	"109.0.0"	"FALSE"	"Windows 10"	"60.41"	"023"	n/a	n/a	n/a	n/a	n/a	n/a	"fixation"	n/a	n/a	n/a	n/a	"NULL"	n/a	"NULL"	"NULL"	"NULL"	"<p style=\"color: black; font-size: 80px; padding-left: 47%; padding-right: 50%; padding-top: 5%; padding-bottom: 39%\">+</p>"	"1499"	n/a	n/a	n/a	n/a	n/a	n/a	n/a	n/a	n/a
n/a	"image-keyboard-response"	"142"	"7623504"	"0.0-5.0-2.0-1.44"	"f6ztws"	"600"	"1366"	"chrome"	"109.0.0"	"FALSE"	"Windows 10"	"60.41"	"023"	n/a	n/a	n/a	n/a	n/a	n/a	"Trial"	n/a	n/a	n/a	"579"	"arrowright"	n/a	"NULL"	"NULL"	"NULL"	"stimuli/VerticalHorizontal_-3.3000_-0.2250.png"	n/a	"VerticalHorizontal"	"arrowright"	"1505"	"TRUE"	"VerticalHorizontal"	"-3.300000000"	"-0.225000000"	"1"	"63"
n/a	"html-keyboard-response"	"143"	"7624786"	"0.0-5.0-2.0-0.45"	"f6ztws"	"600"	"1366"	"chrome"	"109.0.0"	"FALSE"	"Windows 10"	"60.41"	"023"	n/a	n/a	n/a	n/a	n/a	n/a	"fixation"	n/a	n/a	n/a	n/a	"NULL"	n/a	"NULL"	"NULL"	"NULL"	"<p style=\"color: black; font-size: 80px; padding-left: 35%; padding-right: 29%; padding-top: 15%; padding-bottom: 17%\">+</p>"	"1275"	n/a	n/a	n/a	n/a	n/a	n/a	n/a	n/a	n/a
n/a	"image-keyboard-response"	"144"	"7625578"	"0.0-5.0-2.0-1.45"	"f6ztws"	"600"	"1366"	"chrome"	"109.0.0"	"FALSE"	"Windows 10"	"60.41"	"023"	n/a	n/a	n/a	n/a	n/a	n/a	"Trial"	n/a	n/a	n/a	"792"	"arrowright"	n/a	"NULL"	"NULL"	"NULL"	"stimuli/VerticalHorizontal_11.78571_0.06730.png"	n/a	"VerticalHorizontal"	"arrowleft"	"1282"	"FALSE"	"VerticalHorizontal"	"11.785710000"	"0.0673000000"	"1"	"64"
n/a	"html-keyboard-response"	"145"	"7626936"	"0.0-5.0-2.0-0.46"	"f6ztws"	"600"	"1366"	"chrome"	"109.0.0"	"FALSE"	"Windows 10"	"60.41"	"023"	n/a	n/a	n/a	n/a	n/a	n/a	"fixation"	n/a	n/a	n/a	n/a	"NULL"	n/a	"NULL"	"NULL"	"NULL"	"<p style=\"color: black; font-size: 80px; padding-left: 30%; padding-right: 3%; padding-top: 41%; padding-bottom: 49%\">+</p>"	"1347"	n/a	n/a	n/a	n/a	n/a	n/a	n/a	n/a	n/a
n/a	"image-keyboard-response"	"146"	"7627794"	"0.0-5.0-2.0-1.46"	"f6ztws"	"600"	"1366"	"chrome"	"109.0.0"	"FALSE"	"Windows 10"	"60.41"	"023"	n/a	n/a	n/a	n/a	n/a	n/a	"Trial"	n/a	n/a	n/a	"857"	"arrowright"	n/a	"NULL"	"NULL"	"NULL"	"stimuli/VerticalHorizontal_11.78571_-0.0673.png"	n/a	"VerticalHorizontal"	"arrowright"	"1358"	"TRUE"	"VerticalHorizontal"	"11.785710000"	"-0.067300000"	"1"	"65"
n/a	"html-keyboard-response"	"147"	"7629262"	"0.0-5.0-2.0-0.47"	"f6ztws"	"600"	"1366"	"chrome"	"109.0.0"	"FALSE"	"Windows 10"	"60.41"	"023"	n/a	n/a	n/a	n/a	n/a	n/a	"fixation"	n/a	n/a	n/a	n/a	"NULL"	n/a	"NULL"	"NULL"	"NULL"	"<p style=\"color: black; font-size: 80px; padding-left: 22%; padding-right: 15%; padding-top: 12%; padding-bottom: 2%\">+</p>"	"1454"	n/a	n/a	n/a	n/a	n/a	n/a	n/a	n/a	n/a
n/a	"image-keyboard-response"	"148"	"7629801"	"0.0-5.0-2.0-1.47"	"f6ztws"	"600"	"1366"	"chrome"	"109.0.0"	"FALSE"	"Windows 10"	"60.41"	"023"	n/a	n/a	n/a	n/a	n/a	n/a	"Trial"	n/a	n/a	n/a	"538"	"arrowright"	n/a	"NULL"	"NULL"	"NULL"	"stimuli/VerticalHorizontal_-3.3000_-0.16217.png"	n/a	"VerticalHorizontal"	"arrowright"	"1468"	"TRUE"	"VerticalHorizontal"	"-3.300000000"	"-0.162170000"	"1"	"66"
n/a	"html-keyboard-response"	"149"	"7630931"	"0.0-5.0-2.0-0.48"	"f6ztws"	"600"	"1366"	"chrome"	"109.0.0"	"FALSE"	"Windows 10"	"60.41"	"023"	n/a	n/a	n/a	n/a	n/a	n/a	"fixation"	n/a	n/a	n/a	n/a	"NULL"	n/a	"NULL"	"NULL"	"NULL"	"<p style=\"color: black; font-size: 80px; padding-left: 8%; padding-right: 36%; padding-top: 24%; padding-bottom: 44%\">+</p>"	"1118"	n/a	n/a	n/a	n/a	n/a	n/a	n/a	n/a	n/a
n/a	"image-keyboard-response"	"150"	"7631552"	"0.0-5.0-2.0-1.48"	"f6ztws"	"600"	"1366"	"chrome"	"109.0.0"	"FALSE"	"Windows 10"	"60.41"	"023"	n/a	n/a	n/a	n/a	n/a	n/a	"Trial"	n/a	n/a	n/a	"620"	"arrowleft"	n/a	"NULL"	"NULL"	"NULL"	"stimuli/VerticalHorizontal_-28.75714_0.06730.png"	n/a	"VerticalHorizontal"	"arrowleft"	"1130"	"TRUE"	"VerticalHorizontal"	"-28.75714000"	"0.0673000000"	"1"	"67"
n/a	"html-keyboard-response"	"151"	"7632986"	"0.0-5.0-2.0-0.49"	"f6ztws"	"600"	"1366"	"chrome"	"109.0.0"	"FALSE"	"Windows 10"	"60.41"	"023"	n/a	n/a	n/a	n/a	n/a	n/a	"fixation"	n/a	n/a	n/a	n/a	"NULL"	n/a	"NULL"	"NULL"	"NULL"	"<p style=\"color: black; font-size: 80px; padding-left: 48%; padding-right: 38%; padding-top: 13%; padding-bottom: 46%\">+</p>"	"1425"	n/a	n/a	n/a	n/a	n/a	n/a	n/a	n/a	n/a
n/a	"image-keyboard-response"	"152"	"7634303"	"0.0-5.0-2.0-1.49"	"f6ztws"	"600"	"1366"	"chrome"	"109.0.0"	"FALSE"	"Windows 10"	"60.41"	"023"	n/a	n/a	n/a	n/a	n/a	n/a	"Trial"	n/a	n/a	n/a	"1316"	"arrowright"	n/a	"NULL"	"NULL"	"NULL"	"stimuli/VerticalHorizontal_28.75714_-0.16217.png"	n/a	"VerticalHorizontal"	"arrowright"	"1434"	"TRUE"	"VerticalHorizontal"	"28.757140000"	"-0.162170000"	"1"	"68"
n/a	"html-keyboard-response"	"153"	"7635521"	"0.0-5.0-2.0-0.50"	"f6ztws"	"600"	"1366"	"chrome"	"109.0.0"	"FALSE"	"Windows 10"	"60.41"	"023"	n/a	n/a	n/a	n/a	n/a	n/a	"fixation"	n/a	n/a	n/a	n/a	"NULL"	n/a	"NULL"	"NULL"	"NULL"	"<p style=\"color: black; font-size: 80px; padding-left: 30%; padding-right: 44%; padding-top: 24%; padding-bottom: 46%\">+</p>"	"1195"	n/a	n/a	n/a	n/a	n/a	n/a	n/a	n/a	n/a
n/a	"image-keyboard-response"	"154"	"7636449"	"0.0-5.0-2.0-1.50"	"f6ztws"	"600"	"1366"	"chrome"	"109.0.0"	"FALSE"	"Windows 10"	"60.41"	"023"	n/a	n/a	n/a	n/a	n/a	n/a	"Trial"	n/a	n/a	n/a	"927"	"arrowleft"	n/a	"NULL"	"NULL"	"NULL"	"stimuli/VerticalHorizontal_11.78571_0.16217.png"	n/a	"VerticalHorizontal"	"arrowleft"	"1218"	"TRUE"	"VerticalHorizontal"	"11.785710000"	"0.1621700000"	"1"	"69"
n/a	"html-keyboard-response"	"155"	"7637595"	"0.0-5.0-2.0-0.51"	"f6ztws"	"600"	"1366"	"chrome"	"109.0.0"	"FALSE"	"Windows 10"	"60.41"	"023"	n/a	n/a	n/a	n/a	n/a	n/a	"fixation"	n/a	n/a	n/a	n/a	"NULL"	n/a	"NULL"	"NULL"	"NULL"	"<p style=\"color: black; font-size: 80px; padding-left: 47%; padding-right: 47%; padding-top: 48%; padding-bottom: 31%\">+</p>"	"1139"	n/a	n/a	n/a	n/a	n/a	n/a	n/a	n/a	n/a
n/a	"image-keyboard-response"	"156"	"7638173"	"0.0-5.0-2.0-1.51"	"f6ztws"	"600"	"1366"	"chrome"	"109.0.0"	"FALSE"	"Windows 10"	"60.41"	"023"	n/a	n/a	n/a	n/a	n/a	n/a	"Trial"	n/a	n/a	n/a	"578"	"arrowleft"	n/a	"NULL"	"NULL"	"NULL"	"stimuli/VerticalHorizontal_3.30000_0.22500.png"	n/a	"VerticalHorizontal"	"arrowleft"	"1146"	"TRUE"	"VerticalHorizontal"	"3.3000000000"	"0.2250000000"	"1"	"70"
n/a	"html-keyboard-response"	"157"	"7639200"	"0.0-5.0-2.0-0.52"	"f6ztws"	"600"	"1366"	"chrome"	"109.0.0"	"FALSE"	"Windows 10"	"60.41"	"023"	n/a	n/a	n/a	n/a	n/a	n/a	"fixation"	n/a	n/a	n/a	n/a	"NULL"	n/a	"NULL"	"NULL"	"NULL"	"<p style=\"color: black; font-size: 80px; padding-left: 45%; padding-right: 9%; padding-top: 17%; padding-bottom: 0%\">+</p>"	"1011"	n/a	n/a	n/a	n/a	n/a	n/a	n/a	n/a	n/a
n/a	"image-keyboard-response"	"158"	"7639723"	"0.0-5.0-2.0-1.52"	"f6ztws"	"600"	"1366"	"chrome"	"109.0.0"	"FALSE"	"Windows 10"	"60.41"	"023"	n/a	n/a	n/a	n/a	n/a	n/a	"Trial"	n/a	n/a	n/a	"522"	"arrowright"	n/a	"NULL"	"NULL"	"NULL"	"stimuli/VerticalHorizontal_11.78571_-0.2250.png"	n/a	"VerticalHorizontal"	"arrowright"	"1027"	"TRUE"	"VerticalHorizontal"	"11.785710000"	"-0.225000000"	"1"	"71"
n/a	"html-keyboard-response"	"159"	"7640740"	"0.0-5.0-2.0-0.53"	"f6ztws"	"600"	"1366"	"chrome"	"109.0.0"	"FALSE"	"Windows 10"	"60.41"	"023"	n/a	n/a	n/a	n/a	n/a	n/a	"fixation"	n/a	n/a	n/a	n/a	"NULL"	n/a	"NULL"	"NULL"	"NULL"	"<p style=\"color: black; font-size: 80px; padding-left: 21%; padding-right: 26%; padding-top: 30%; padding-bottom: 47%\">+</p>"	"1004"	n/a	n/a	n/a	n/a	n/a	n/a	n/a	n/a	n/a
n/a	"image-keyboard-response"	"160"	"7641167"	"0.0-5.0-2.0-1.53"	"f6ztws"	"600"	"1366"	"chrome"	"109.0.0"	"FALSE"	"Windows 10"	"60.41"	"023"	n/a	n/a	n/a	n/a	n/a	n/a	"Trial"	n/a	n/a	n/a	"426"	"arrowleft"	n/a	"NULL"	"NULL"	"NULL"	"stimuli/VerticalHorizontal_-28.75714_0.16217.png"	n/a	"VerticalHorizontal"	"arrowleft"	"1017"	"TRUE"	"VerticalHorizontal"	"-28.75714000"	"0.1621700000"	"1"	"72"
n/a	"html-keyboard-response"	"161"	"7642328"	"0.0-5.0-2.0-0.54"	"f6ztws"	"600"	"1366"	"chrome"	"109.0.0"	"FALSE"	"Windows 10"	"60.41"	"023"	n/a	n/a	n/a	n/a	n/a	n/a	"fixation"	n/a	n/a	n/a	n/a	"NULL"	n/a	"NULL"	"NULL"	"NULL"	"<p style=\"color: black; font-size: 80px; padding-left: 50%; padding-right: 27%; padding-top: 23%; padding-bottom: 15%\">+</p>"	"1145"	n/a	n/a	n/a	n/a	n/a	n/a	n/a	n/a	n/a
n/a	"image-keyboard-response"	"162"	"7642842"	"0.0-5.0-2.0-1.54"	"f6ztws"	"600"	"1366"	"chrome"	"109.0.0"	"FALSE"	"Windows 10"	"60.41"	"023"	n/a	n/a	n/a	n/a	n/a	n/a	"Trial"	n/a	n/a	n/a	"513"	"arrowright"	n/a	"NULL"	"NULL"	"NULL"	"stimuli/VerticalHorizontal_-3.3000_-0.0673.png"	n/a	"VerticalHorizontal"	"arrowright"	"1161"	"TRUE"	"VerticalHorizontal"	"-3.300000000"	"-0.067300000"	"1"	"73"
n/a	"html-keyboard-response"	"163"	"7644012"	"0.0-5.0-2.0-0.55"	"f6ztws"	"600"	"1366"	"chrome"	"109.0.0"	"FALSE"	"Windows 10"	"60.41"	"023"	n/a	n/a	n/a	n/a	n/a	n/a	"fixation"	n/a	n/a	n/a	n/a	"NULL"	n/a	"NULL"	"NULL"	"NULL"	"<p style=\"color: black; font-size: 80px; padding-left: 35%; padding-right: 48%; padding-top: 2%; padding-bottom: 8%\">+</p>"	"1153"	n/a	n/a	n/a	n/a	n/a	n/a	n/a	n/a	n/a
n/a	"image-keyboard-response"	"164"	"7644670"	"0.0-5.0-2.0-1.55"	"f6ztws"	"600"	"1366"	"chrome"	"109.0.0"	"FALSE"	"Windows 10"	"60.41"	"023"	n/a	n/a	n/a	n/a	n/a	n/a	"Trial"	n/a	n/a	n/a	"657"	"arrowleft"	n/a	"NULL"	"NULL"	"NULL"	"stimuli/VerticalHorizontal_-3.3000_0.10960.png"	n/a	"VerticalHorizontal"	"arrowleft"	"1170"	"TRUE"	"VerticalHorizontal"	"-3.300000000"	"0.1096000000"	"1"	"74"
n/a	"html-keyboard-response"	"165"	"7646045"	"0.0-5.0-2.0-0.56"	"f6ztws"	"600"	"1366"	"chrome"	"109.0.0"	"FALSE"	"Windows 10"	"60.41"	"023"	n/a	n/a	n/a	n/a	n/a	n/a	"fixation"	n/a	n/a	n/a	n/a	"NULL"	n/a	"NULL"	"NULL"	"NULL"	"<p style=\"color: black; font-size: 80px; padding-left: 10%; padding-right: 25%; padding-top: 18%; padding-bottom: 45%\">+</p>"	"1361"	n/a	n/a	n/a	n/a	n/a	n/a	n/a	n/a	n/a
n/a	"image-keyboard-response"	"166"	"7646579"	"0.0-5.0-2.0-1.56"	"f6ztws"	"600"	"1366"	"chrome"	"109.0.0"	"FALSE"	"Windows 10"	"60.41"	"023"	n/a	n/a	n/a	n/a	n/a	n/a	"Trial"	n/a	n/a	n/a	"533"	"arrowright"	n/a	"NULL"	"NULL"	"NULL"	"stimuli/VerticalHorizontal_-28.75714_-0.0673.png"	n/a	"VerticalHorizontal"	"arrowright"	"1375"	"TRUE"	"VerticalHorizontal"	"-28.75714000"	"-0.067300000"	"1"	"75"
n/a	"html-keyboard-response"	"167"	"7647725"	"0.0-5.0-2.0-0.57"	"f6ztws"	"600"	"1366"	"chrome"	"109.0.0"	"FALSE"	"Windows 10"	"60.41"	"023"	n/a	n/a	n/a	n/a	n/a	n/a	"fixation"	n/a	n/a	n/a	n/a	"NULL"	n/a	"NULL"	"NULL"	"NULL"	"<p style=\"color: black; font-size: 80px; padding-left: 32%; padding-right: 26%; padding-top: 35%; padding-bottom: 4%\">+</p>"	"1126"	n/a	n/a	n/a	n/a	n/a	n/a	n/a	n/a	n/a
n/a	"image-keyboard-response"	"168"	"7648269"	"0.0-5.0-2.0-1.57"	"f6ztws"	"600"	"1366"	"chrome"	"109.0.0"	"FALSE"	"Windows 10"	"60.41"	"023"	n/a	n/a	n/a	n/a	n/a	n/a	"Trial"	n/a	n/a	n/a	"543"	"arrowright"	n/a	"NULL"	"NULL"	"NULL"	"stimuli/VerticalHorizontal_-11.78571_-0.0673.png"	n/a	"VerticalHorizontal"	"arrowright"	"1146"	"TRUE"	"VerticalHorizontal"	"-11.78571000"	"-0.067300000"	"1"	"76"
n/a	"html-keyboard-response"	"169"	"7649487"	"0.0-5.0-2.0-0.58"	"f6ztws"	"600"	"1366"	"chrome"	"109.0.0"	"FALSE"	"Windows 10"	"60.41"	"023"	n/a	n/a	n/a	n/a	n/a	n/a	"fixation"	n/a	n/a	n/a	n/a	"NULL"	n/a	"NULL"	"NULL"	"NULL"	"<p style=\"color: black; font-size: 80px; padding-left: 9%; padding-right: 23%; padding-top: 49%; padding-bottom: 46%\">+</p>"	"1202"	n/a	n/a	n/a	n/a	n/a	n/a	n/a	n/a	n/a
n/a	"image-keyboard-response"	"170"	"7649918"	"0.0-5.0-2.0-1.58"	"f6ztws"	"600"	"1366"	"chrome"	"109.0.0"	"FALSE"	"Windows 10"	"60.41"	"023"	n/a	n/a	n/a	n/a	n/a	n/a	"Trial"	n/a	n/a	n/a	"431"	"arrowright"	n/a	"NULL"	"NULL"	"NULL"	"stimuli/VerticalHorizontal_-20.27143_-0.2250.png"	n/a	"VerticalHorizontal"	"arrowright"	"1218"	"TRUE"	"VerticalHorizontal"	"-20.27143000"	"-0.225000000"	"1"	"77"
n/a	"html-keyboard-response"	"171"	"7651100"	"0.0-5.0-2.0-0.59"	"f6ztws"	"600"	"1366"	"chrome"	"109.0.0"	"FALSE"	"Windows 10"	"60.41"	"023"	n/a	n/a	n/a	n/a	n/a	n/a	"fixation"	n/a	n/a	n/a	n/a	"NULL"	n/a	"NULL"	"NULL"	"NULL"	"<p style=\"color: black; font-size: 80px; padding-left: 39%; padding-right: 48%; padding-top: 43%; padding-bottom: 42%\">+</p>"	"1166"	n/a	n/a	n/a	n/a	n/a	n/a	n/a	n/a	n/a
n/a	"image-keyboard-response"	"172"	"7651733"	"0.0-5.0-2.0-1.59"	"f6ztws"	"600"	"1366"	"chrome"	"109.0.0"	"FALSE"	"Windows 10"	"60.41"	"023"	n/a	n/a	n/a	n/a	n/a	n/a	"Trial"	n/a	n/a	n/a	"632"	"arrowleft"	n/a	"NULL"	"NULL"	"NULL"	"stimuli/VerticalHorizontal_28.75714_0.22500.png"	n/a	"VerticalHorizontal"	"arrowleft"	"1182"	"TRUE"	"VerticalHorizontal"	"28.757140000"	"0.2250000000"	"1"	"78"
n/a	"html-keyboard-response"	"173"	"7653094"	"0.0-5.0-2.0-0.60"	"f6ztws"	"600"	"1366"	"chrome"	"109.0.0"	"FALSE"	"Windows 10"	"60.41"	"023"	n/a	n/a	n/a	n/a	n/a	n/a	"fixation"	n/a	n/a	n/a	n/a	"NULL"	n/a	"NULL"	"NULL"	"NULL"	"<p style=\"color: black; font-size: 80px; padding-left: 41%; padding-right: 10%; padding-top: 11%; padding-bottom: 15%\">+</p>"	"1350"	n/a	n/a	n/a	n/a	n/a	n/a	n/a	n/a	n/a
n/a	"image-keyboard-response"	"174"	"7653636"	"0.0-5.0-2.0-1.60"	"f6ztws"	"600"	"1366"	"chrome"	"109.0.0"	"FALSE"	"Windows 10"	"60.41"	"023"	n/a	n/a	n/a	n/a	n/a	n/a	"Trial"	n/a	n/a	n/a	"542"	"arrowleft"	n/a	"NULL"	"NULL"	"NULL"	"stimuli/VerticalHorizontal_28.75714_-0.0673.png"	n/a	"VerticalHorizontal"	"arrowright"	"1361"	"FALSE"	"VerticalHorizontal"	"28.757140000"	"-0.067300000"	"1"	"79"
n/a	"html-keyboard-response"	"175"	"7654828"	"0.0-5.0-2.0-0.61"	"f6ztws"	"600"	"1366"	"chrome"	"109.0.0"	"FALSE"	"Windows 10"	"60.41"	"023"	n/a	n/a	n/a	n/a	n/a	n/a	"fixation"	n/a	n/a	n/a	n/a	"NULL"	n/a	"NULL"	"NULL"	"NULL"	"<p style=\"color: black; font-size: 80px; padding-left: 18%; padding-right: 20%; padding-top: 14%; padding-bottom: 48%\">+</p>"	"1185"	n/a	n/a	n/a	n/a	n/a	n/a	n/a	n/a	n/a
n/a	"image-keyboard-response"	"176"	"7655638"	"0.0-5.0-2.0-1.61"	"f6ztws"	"600"	"1366"	"chrome"	"109.0.0"	"FALSE"	"Windows 10"	"60.41"	"023"	n/a	n/a	n/a	n/a	n/a	n/a	"Trial"	n/a	n/a	n/a	"809"	"arrowright"	n/a	"NULL"	"NULL"	"NULL"	"stimuli/VerticalHorizontal_11.78571_0.10960.png"	n/a	"VerticalHorizontal"	"arrowleft"	"1192"	"FALSE"	"VerticalHorizontal"	"11.785710000"	"0.1096000000"	"1"	"80"
n/a	"html-keyboard-response"	"177"	"7657056"	"0.0-5.0-2.0-0.62"	"f6ztws"	"600"	"1366"	"chrome"	"109.0.0"	"FALSE"	"Windows 10"	"60.41"	"023"	n/a	n/a	n/a	n/a	n/a	n/a	"fixation"	n/a	n/a	n/a	n/a	"NULL"	n/a	"NULL"	"NULL"	"NULL"	"<p style=\"color: black; font-size: 80px; padding-left: 44%; padding-right: 25%; padding-top: 8%; padding-bottom: 36%\">+</p>"	"1397"	n/a	n/a	n/a	n/a	n/a	n/a	n/a	n/a	n/a
n/a	"image-keyboard-response"	"178"	"7657562"	"0.0-5.0-2.0-1.62"	"f6ztws"	"600"	"1366"	"chrome"	"109.0.0"	"FALSE"	"Windows 10"	"60.41"	"023"	n/a	n/a	n/a	n/a	n/a	n/a	"Trial"	n/a	n/a	n/a	"504"	"arrowleft"	n/a	"NULL"	"NULL"	"NULL"	"stimuli/VerticalHorizontal_-11.78571_0.16217.png"	n/a	"VerticalHorizontal"	"arrowleft"	"1418"	"TRUE"	"VerticalHorizontal"	"-11.78571000"	"0.1621700000"	"1"	"81"
n/a	"html-keyboard-response"	"179"	"7658601"	"0.0-5.0-2.0-0.63"	"f6ztws"	"600"	"1366"	"chrome"	"109.0.0"	"FALSE"	"Windows 10"	"60.41"	"023"	n/a	n/a	n/a	n/a	n/a	n/a	"fixation"	n/a	n/a	n/a	n/a	"NULL"	n/a	"NULL"	"NULL"	"NULL"	"<p style=\"color: black; font-size: 80px; padding-left: 9%; padding-right: 1%; padding-top: 9%; padding-bottom: 23%\">+</p>"	"1016"	n/a	n/a	n/a	n/a	n/a	n/a	n/a	n/a	n/a
n/a	"image-keyboard-response"	"180"	"7659220"	"0.0-5.0-2.0-1.63"	"f6ztws"	"600"	"1366"	"chrome"	"109.0.0"	"FALSE"	"Windows 10"	"60.41"	"023"	n/a	n/a	n/a	n/a	n/a	n/a	"Trial"	n/a	n/a	n/a	"619"	"arrowright"	n/a	"NULL"	"NULL"	"NULL"	"stimuli/VerticalHorizontal_-3.3000_-0.1096.png"	n/a	"VerticalHorizontal"	"arrowright"	"1039"	"TRUE"	"VerticalHorizontal"	"-3.300000000"	"-0.109600000"	"1"	"82"
n/a	"html-button-response"	"181"	"7682280"	"0.0-5.0-3.0"	"f6ztws"	"600"	"1366"	"chrome"	"109.0.0"	"FALSE"	"Windows 10"	"60.41"	"023"	n/a	n/a	n/a	n/a	n/a	n/a	"block_results"	n/a	n/a	n/a	"23057"	"0"	n/a	"NULL"	"NULL"	"NULL"	"<p>Your score for this illusion is <p style=\"color: black; font-size: 48px; font-weight: bold;\">76.4 %</p><hr><p>Can you do better in the next illusion?</p>"	n/a	n/a	n/a	n/a	n/a	n/a	n/a	n/a	n/a	n/a
"TRUE"	"preload"	"182"	"7682489"	"0.0-6.0-0.0"	"f6ztws"	"600"	"1366"	"chrome"	"109.0.0"	"FALSE"	"Windows 10"	"60.41"	"023"	n/a	n/a	n/a	n/a	n/a	n/a	n/a	n/a	n/a	n/a	n/a	"NULL"	"FALSE"	"list()"	"list()"	"list()"	n/a	n/a	n/a	n/a	n/a	n/a	n/a	n/a	n/a	n/a	n/a
n/a	"html-keyboard-response"	"183"	"7685751"	"0.0-6.0-1.0"	"f6ztws"	"600"	"1366"	"chrome"	"109.0.0"	"FALSE"	"Windows 10"	"60.41"	"023"	n/a	n/a	n/a	n/a	n/a	n/a	n/a	n/a	n/a	n/a	"3262"	"enter"	n/a	"NULL"	"NULL"	"NULL"	"<p><b>Part 2/6</b></p><p>In this part, two red circles will appear side by side on the screen.</p><p>Your task is to select which <b>red circle is bigger</b> in size as fast as you can, without making errors.</p><p>Don't get distracted by the surrounding black circles around the red circles!</p><p>Press <b>the LEFT or the RIGHT arrow</b> to indicate which is the bigger <b>red circle.</b></p><div style='float: center'><img src='materials/instructions/Ebbinghaus_Demo.png' height='300'></img><p><img src='utils/answer/answer_leftright_keyboard.PNG' height='150'></img></p><p class='small'>In this example, the correct answer is the <b>LEFT arrow</b>.</p></div><p>Are you ready? <b>Press ENTER to start</b></p>"	n/a	n/a	n/a	n/a	n/a	n/a	n/a	n/a	n/a	n/a
n/a	"html-keyboard-response"	"184"	"7687320"	"0.0-6.0-2.0-0.0"	"f6ztws"	"600"	"1366"	"chrome"	"109.0.0"	"FALSE"	"Windows 10"	"60.41"	"023"	n/a	n/a	n/a	n/a	n/a	n/a	"fixation"	n/a	n/a	n/a	n/a	"NULL"	n/a	"NULL"	"NULL"	"NULL"	"<p style=\"color: black; font-size: 80px; padding-left: 41%; padding-right: 14%; padding-top: 10%; padding-bottom: 2%\">+</p>"	"1030"	n/a	n/a	n/a	n/a	n/a	n/a	n/a	n/a	n/a
n/a	"image-keyboard-response"	"185"	"7688345"	"0.0-6.0-2.0-1.0"	"f6ztws"	"600"	"1366"	"chrome"	"109.0.0"	"FALSE"	"Windows 10"	"60.41"	"023"	n/a	n/a	n/a	n/a	n/a	n/a	"Trial"	n/a	n/a	n/a	"1025"	"arrowleft"	n/a	"NULL"	"NULL"	"NULL"	"stimuli/Ebbinghaus_0.87143_0.15857.png"	n/a	"Ebbinghaus"	"arrowleft"	"1569"	"TRUE"	"Ebbinghaus"	"0.8714300000"	"0.1585700000"	"2"	"1"
n/a	"html-keyboard-response"	"186"	"7689634"	"0.0-6.0-2.0-0.1"	"f6ztws"	"600"	"1366"	"chrome"	"109.0.0"	"FALSE"	"Windows 10"	"60.41"	"023"	n/a	n/a	n/a	n/a	n/a	n/a	"fixation"	n/a	n/a	n/a	n/a	"NULL"	n/a	"NULL"	"NULL"	"NULL"	"<p style=\"color: black; font-size: 80px; padding-left: 41%; padding-right: 11%; padding-top: 14%; padding-bottom: 17%\">+</p>"	"1279"	n/a	n/a	n/a	n/a	n/a	n/a	n/a	n/a	n/a
n/a	"image-keyboard-response"	"187"	"7690563"	"0.0-6.0-2.0-1.1"	"f6ztws"	"600"	"1366"	"chrome"	"109.0.0"	"FALSE"	"Windows 10"	"60.41"	"023"	n/a	n/a	n/a	n/a	n/a	n/a	"Trial"	n/a	n/a	n/a	"928"	"arrowright"	n/a	"NULL"	"NULL"	"NULL"	"stimuli/Ebbinghaus_0.10000_-0.2150.png"	n/a	"Ebbinghaus"	"arrowright"	"1289"	"TRUE"	"Ebbinghaus"	"0.1000000000"	"-0.215000000"	"2"	"2"
n/a	"html-keyboard-response"	"188"	"7691695"	"0.0-6.0-2.0-0.2"	"f6ztws"	"600"	"1366"	"chrome"	"109.0.0"	"FALSE"	"Windows 10"	"60.41"	"023"	n/a	n/a	n/a	n/a	n/a	n/a	"fixation"	n/a	n/a	n/a	n/a	"NULL"	n/a	"NULL"	"NULL"	"NULL"	"<p style=\"color: black; font-size: 80px; padding-left: 30%; padding-right: 40%; padding-top: 12%; padding-bottom: 13%\">+</p>"	"1115"	n/a	n/a	n/a	n/a	n/a	n/a	n/a	n/a	n/a
n/a	"image-keyboard-response"	"189"	"7692536"	"0.0-6.0-2.0-1.2"	"f6ztws"	"600"	"1366"	"chrome"	"109.0.0"	"FALSE"	"Windows 10"	"60.41"	"023"	n/a	n/a	n/a	n/a	n/a	n/a	"Trial"	n/a	n/a	n/a	"840"	"arrowleft"	n/a	"NULL"	"NULL"	"NULL"	"stimuli/Ebbinghaus_0.35714_0.28000.png"	n/a	"Ebbinghaus"	"arrowleft"	"1132"	"TRUE"	"Ebbinghaus"	"0.3571400000"	"0.2800000000"	"2"	"3"
n/a	"html-keyboard-response"	"190"	"7693769"	"0.0-6.0-2.0-0.3"	"f6ztws"	"600"	"1366"	"chrome"	"109.0.0"	"FALSE"	"Windows 10"	"60.41"	"023"	n/a	n/a	n/a	n/a	n/a	n/a	"fixation"	n/a	n/a	n/a	n/a	"NULL"	n/a	"NULL"	"NULL"	"NULL"	"<p style=\"color: black; font-size: 80px; padding-left: 37%; padding-right: 28%; padding-top: 10%; padding-bottom: 16%\">+</p>"	"1230"	n/a	n/a	n/a	n/a	n/a	n/a	n/a	n/a	n/a
n/a	"image-keyboard-response"	"191"	"7694371"	"0.0-6.0-2.0-1.3"	"f6ztws"	"600"	"1366"	"chrome"	"109.0.0"	"FALSE"	"Windows 10"	"60.41"	"023"	n/a	n/a	n/a	n/a	n/a	n/a	"Trial"	n/a	n/a	n/a	"600"	"arrowleft"	n/a	"NULL"	"NULL"	"NULL"	"stimuli/Ebbinghaus_-0.61429_0.15857.png"	n/a	"Ebbinghaus"	"arrowleft"	"1233"	"TRUE"	"Ebbinghaus"	"-0.614290000"	"0.1585700000"	"2"	"4"
n/a	"html-keyboard-response"	"192"	"7695804"	"0.0-6.0-2.0-0.4"	"f6ztws"	"600"	"1366"	"chrome"	"109.0.0"	"FALSE"	"Windows 10"	"60.41"	"023"	n/a	n/a	n/a	n/a	n/a	n/a	"fixation"	n/a	n/a	n/a	n/a	"NULL"	n/a	"NULL"	"NULL"	"NULL"	"<p style=\"color: black; font-size: 80px; padding-left: 10%; padding-right: 21%; padding-top: 38%; padding-bottom: 7%\">+</p>"	"1424"	n/a	n/a	n/a	n/a	n/a	n/a	n/a	n/a	n/a
n/a	"image-keyboard-response"	"193"	"7696578"	"0.0-6.0-2.0-1.4"	"f6ztws"	"600"	"1366"	"chrome"	"109.0.0"	"FALSE"	"Windows 10"	"60.41"	"023"	n/a	n/a	n/a	n/a	n/a	n/a	"Trial"	n/a	n/a	n/a	"774"	"arrowright"	n/a	"NULL"	"NULL"	"NULL"	"stimuli/Ebbinghaus_0.87143_-0.2800.png"	n/a	"Ebbinghaus"	"arrowright"	"1433"	"TRUE"	"Ebbinghaus"	"0.8714300000"	"-0.280000000"	"2"	"5"
n/a	"html-keyboard-response"	"194"	"7697804"	"0.0-6.0-2.0-0.5"	"f6ztws"	"600"	"1366"	"chrome"	"109.0.0"	"FALSE"	"Windows 10"	"60.41"	"023"	n/a	n/a	n/a	n/a	n/a	n/a	"fixation"	n/a	n/a	n/a	n/a	"NULL"	n/a	"NULL"	"NULL"	"NULL"	"<p style=\"color: black; font-size: 80px; padding-left: 48%; padding-right: 43%; padding-top: 27%; padding-bottom: 38%\">+</p>"	"1213"	n/a	n/a	n/a	n/a	n/a	n/a	n/a	n/a	n/a
n/a	"image-keyboard-response"	"195"	"7698317"	"0.0-6.0-2.0-1.5"	"f6ztws"	"600"	"1366"	"chrome"	"109.0.0"	"FALSE"	"Windows 10"	"60.41"	"023"	n/a	n/a	n/a	n/a	n/a	n/a	"Trial"	n/a	n/a	n/a	"512"	"arrowright"	n/a	"NULL"	"NULL"	"NULL"	"stimuli/Ebbinghaus_-0.61429_-0.2800.png"	n/a	"Ebbinghaus"	"arrowright"	"1226"	"TRUE"	"Ebbinghaus"	"-0.614290000"	"-0.280000000"	"2"	"6"
n/a	"html-keyboard-response"	"196"	"7699536"	"0.0-6.0-2.0-0.6"	"f6ztws"	"600"	"1366"	"chrome"	"109.0.0"	"FALSE"	"Windows 10"	"60.41"	"023"	n/a	n/a	n/a	n/a	n/a	n/a	"fixation"	n/a	n/a	n/a	n/a	"NULL"	n/a	"NULL"	"NULL"	"NULL"	"<p style=\"color: black; font-size: 80px; padding-left: 37%; padding-right: 27%; padding-top: 1%; padding-bottom: 20%\">+</p>"	"1198"	n/a	n/a	n/a	n/a	n/a	n/a	n/a	n/a	n/a
n/a	"image-keyboard-response"	"197"	"7700153"	"0.0-6.0-2.0-1.6"	"f6ztws"	"600"	"1366"	"chrome"	"109.0.0"	"FALSE"	"Windows 10"	"60.41"	"023"	n/a	n/a	n/a	n/a	n/a	n/a	"Trial"	n/a	n/a	n/a	"616"	"arrowleft"	n/a	"NULL"	"NULL"	"NULL"	"stimuli/Ebbinghaus_0.61429_0.28000.png"	n/a	"Ebbinghaus"	"arrowleft"	"1219"	"TRUE"	"Ebbinghaus"	"0.6142900000"	"0.2800000000"	"2"	"7"
n/a	"html-keyboard-response"	"198"	"7701542"	"0.0-6.0-2.0-0.7"	"f6ztws"	"600"	"1366"	"chrome"	"109.0.0"	"FALSE"	"Windows 10"	"60.41"	"023"	n/a	n/a	n/a	n/a	n/a	n/a	"fixation"	n/a	n/a	n/a	n/a	"NULL"	n/a	"NULL"	"NULL"	"NULL"	"<p style=\"color: black; font-size: 80px; padding-left: 47%; padding-right: 18%; padding-top: 34%; padding-bottom: 0%\">+</p>"	"1383"	n/a	n/a	n/a	n/a	n/a	n/a	n/a	n/a	n/a
n/a	"image-keyboard-response"	"199"	"7702142"	"0.0-6.0-2.0-1.7"	"f6ztws"	"600"	"1366"	"chrome"	"109.0.0"	"FALSE"	"Windows 10"	"60.41"	"023"	n/a	n/a	n/a	n/a	n/a	n/a	"Trial"	n/a	n/a	n/a	"599"	"arrowright"	n/a	"NULL"	"NULL"	"NULL"	"stimuli/Ebbinghaus_0.35714_-0.2150.png"	n/a	"Ebbinghaus"	"arrowright"	"1389"	"TRUE"	"Ebbinghaus"	"0.3571400000"	"-0.215000000"	"2"	"8"
n/a	"html-keyboard-response"	"200"	"7703538"	"0.0-6.0-2.0-0.8"	"f6ztws"	"600"	"1366"	"chrome"	"109.0.0"	"FALSE"	"Windows 10"	"60.41"	"023"	n/a	n/a	n/a	n/a	n/a	n/a	"fixation"	n/a	n/a	n/a	n/a	"NULL"	n/a	"NULL"	"NULL"	"NULL"	"<p style=\"color: black; font-size: 80px; padding-left: 22%; padding-right: 5%; padding-top: 46%; padding-bottom: 27%\">+</p>"	"1389"	n/a	n/a	n/a	n/a	n/a	n/a	n/a	n/a	n/a
n/a	"image-keyboard-response"	"201"	"7704064"	"0.0-6.0-2.0-1.8"	"f6ztws"	"600"	"1366"	"chrome"	"109.0.0"	"FALSE"	"Windows 10"	"60.41"	"023"	n/a	n/a	n/a	n/a	n/a	n/a	"Trial"	n/a	n/a	n/a	"525"	"arrowright"	n/a	"NULL"	"NULL"	"NULL"	"stimuli/Ebbinghaus_-0.61429_-0.15857.png"	n/a	"Ebbinghaus"	"arrowright"	"1396"	"TRUE"	"Ebbinghaus"	"-0.614290000"	"-0.158570000"	"2"	"9"
n/a	"html-keyboard-response"	"202"	"7705521"	"0.0-6.0-2.0-0.9"	"f6ztws"	"600"	"1366"	"chrome"	"109.0.0"	"FALSE"	"Windows 10"	"60.41"	"023"	n/a	n/a	n/a	n/a	n/a	n/a	"fixation"	n/a	n/a	n/a	n/a	"NULL"	n/a	"NULL"	"NULL"	"NULL"	"<p style=\"color: black; font-size: 80px; padding-left: 36%; padding-right: 45%; padding-top: 33%; padding-bottom: 2%\">+</p>"	"1446"	n/a	n/a	n/a	n/a	n/a	n/a	n/a	n/a	n/a
n/a	"image-keyboard-response"	"203"	"7706005"	"0.0-6.0-2.0-1.9"	"f6ztws"	"600"	"1366"	"chrome"	"109.0.0"	"FALSE"	"Windows 10"	"60.41"	"023"	n/a	n/a	n/a	n/a	n/a	n/a	"Trial"	n/a	n/a	n/a	"483"	"arrowright"	n/a	"NULL"	"NULL"	"NULL"	"stimuli/Ebbinghaus_0.61429_-0.2150.png"	n/a	"Ebbinghaus"	"arrowright"	"1457"	"TRUE"	"Ebbinghaus"	"0.6142900000"	"-0.215000000"	"2"	"10"
n/a	"html-keyboard-response"	"204"	"7707082"	"0.0-6.0-2.0-0.10"	"f6ztws"	"600"	"1366"	"chrome"	"109.0.0"	"FALSE"	"Windows 10"	"60.41"	"023"	n/a	n/a	n/a	n/a	n/a	n/a	"fixation"	n/a	n/a	n/a	n/a	"NULL"	n/a	"NULL"	"NULL"	"NULL"	"<p style=\"color: black; font-size: 80px; padding-left: 5%; padding-right: 18%; padding-top: 16%; padding-bottom: 17%\">+</p>"	"1065"	n/a	n/a	n/a	n/a	n/a	n/a	n/a	n/a	n/a
n/a	"image-keyboard-response"	"205"	"7707671"	"0.0-6.0-2.0-1.10"	"f6ztws"	"600"	"1366"	"chrome"	"109.0.0"	"FALSE"	"Windows 10"	"60.41"	"023"	n/a	n/a	n/a	n/a	n/a	n/a	"Trial"	n/a	n/a	n/a	"589"	"arrowleft"	n/a	"NULL"	"NULL"	"NULL"	"stimuli/Ebbinghaus_0.61429_0.21500.png"	n/a	"Ebbinghaus"	"arrowleft"	"1077"	"TRUE"	"Ebbinghaus"	"0.6142900000"	"0.2150000000"	"2"	"11"
n/a	"html-keyboard-response"	"206"	"7708983"	"0.0-6.0-2.0-0.11"	"f6ztws"	"600"	"1366"	"chrome"	"109.0.0"	"FALSE"	"Windows 10"	"60.41"	"023"	n/a	n/a	n/a	n/a	n/a	n/a	"fixation"	n/a	n/a	n/a	n/a	"NULL"	n/a	"NULL"	"NULL"	"NULL"	"<p style=\"color: black; font-size: 80px; padding-left: 16%; padding-right: 3%; padding-top: 29%; padding-bottom: 36%\">+</p>"	"1297"	n/a	n/a	n/a	n/a	n/a	n/a	n/a	n/a	n/a
n/a	"image-keyboard-response"	"207"	"7709515"	"0.0-6.0-2.0-1.11"	"f6ztws"	"600"	"1366"	"chrome"	"109.0.0"	"FALSE"	"Windows 10"	"60.41"	"023"	n/a	n/a	n/a	n/a	n/a	n/a	"Trial"	n/a	n/a	n/a	"531"	"arrowright"	n/a	"NULL"	"NULL"	"NULL"	"stimuli/Ebbinghaus_0.10000_-0.2800.png"	n/a	"Ebbinghaus"	"arrowright"	"1312"	"TRUE"	"Ebbinghaus"	"0.1000000000"	"-0.280000000"	"2"	"12"
n/a	"html-keyboard-response"	"208"	"7710823"	"0.0-6.0-2.0-0.12"	"f6ztws"	"600"	"1366"	"chrome"	"109.0.0"	"FALSE"	"Windows 10"	"60.41"	"023"	n/a	n/a	n/a	n/a	n/a	n/a	"fixation"	n/a	n/a	n/a	n/a	"NULL"	n/a	"NULL"	"NULL"	"NULL"	"<p style=\"color: black; font-size: 80px; padding-left: 34%; padding-right: 47%; padding-top: 1%; padding-bottom: 37%\">+</p>"	"1300"	n/a	n/a	n/a	n/a	n/a	n/a	n/a	n/a	n/a
n/a	"image-keyboard-response"	"209"	"7711361"	"0.0-6.0-2.0-1.12"	"f6ztws"	"600"	"1366"	"chrome"	"109.0.0"	"FALSE"	"Windows 10"	"60.41"	"023"	n/a	n/a	n/a	n/a	n/a	n/a	"Trial"	n/a	n/a	n/a	"538"	"arrowleft"	n/a	"NULL"	"NULL"	"NULL"	"stimuli/Ebbinghaus_-0.1000_-0.11071.png"	n/a	"Ebbinghaus"	"arrowright"	"1308"	"FALSE"	"Ebbinghaus"	"-0.100000000"	"-0.110710000"	"2"	"13"
n/a	"html-keyboard-response"	"210"	"7712490"	"0.0-6.0-2.0-0.13"	"f6ztws"	"600"	"1366"	"chrome"	"109.0.0"	"FALSE"	"Windows 10"	"60.41"	"023"	n/a	n/a	n/a	n/a	n/a	n/a	"fixation"	n/a	n/a	n/a	n/a	"NULL"	n/a	"NULL"	"NULL"	"NULL"	"<p style=\"color: black; font-size: 80px; padding-left: 46%; padding-right: 41%; padding-top: 5%; padding-bottom: 4%\">+</p>"	"1119"	n/a	n/a	n/a	n/a	n/a	n/a	n/a	n/a	n/a
n/a	"image-keyboard-response"	"211"	"7713285"	"0.0-6.0-2.0-1.13"	"f6ztws"	"600"	"1366"	"chrome"	"109.0.0"	"FALSE"	"Windows 10"	"60.41"	"023"	n/a	n/a	n/a	n/a	n/a	n/a	"Trial"	n/a	n/a	n/a	"794"	"arrowright"	n/a	"NULL"	"NULL"	"NULL"	"stimuli/Ebbinghaus_0.87143_-0.2150.png"	n/a	"Ebbinghaus"	"arrowright"	"1129"	"TRUE"	"Ebbinghaus"	"0.8714300000"	"-0.215000000"	"2"	"14"
n/a	"html-keyboard-response"	"212"	"7714318"	"0.0-6.0-2.0-0.14"	"f6ztws"	"600"	"1366"	"chrome"	"109.0.0"	"FALSE"	"Windows 10"	"60.41"	"023"	n/a	n/a	n/a	n/a	n/a	n/a	"fixation"	n/a	n/a	n/a	n/a	"NULL"	n/a	"NULL"	"NULL"	"NULL"	"<p style=\"color: black; font-size: 80px; padding-left: 37%; padding-right: 11%; padding-top: 48%; padding-bottom: 2%\">+</p>"	"1024"	n/a	n/a	n/a	n/a	n/a	n/a	n/a	n/a	n/a
n/a	"image-keyboard-response"	"213"	"7715118"	"0.0-6.0-2.0-1.14"	"f6ztws"	"600"	"1366"	"chrome"	"109.0.0"	"FALSE"	"Windows 10"	"60.41"	"023"	n/a	n/a	n/a	n/a	n/a	n/a	"Trial"	n/a	n/a	n/a	"799"	"arrowright"	n/a	"NULL"	"NULL"	"NULL"	"stimuli/Ebbinghaus_0.10000_-0.15857.png"	n/a	"Ebbinghaus"	"arrowright"	"1033"	"TRUE"	"Ebbinghaus"	"0.1000000000"	"-0.158570000"	"2"	"15"
n/a	"html-keyboard-response"	"214"	"7716490"	"0.0-6.0-2.0-0.15"	"f6ztws"	"600"	"1366"	"chrome"	"109.0.0"	"FALSE"	"Windows 10"	"60.41"	"023"	n/a	n/a	n/a	n/a	n/a	n/a	"fixation"	n/a	n/a	n/a	n/a	"NULL"	n/a	"NULL"	"NULL"	"NULL"	"<p style=\"color: black; font-size: 80px; padding-left: 3%; padding-right: 22%; padding-top: 16%; padding-bottom: 32%\">+</p>"	"1358"	n/a	n/a	n/a	n/a	n/a	n/a	n/a	n/a	n/a
n/a	"image-keyboard-response"	"215"	"7717128"	"0.0-6.0-2.0-1.15"	"f6ztws"	"600"	"1366"	"chrome"	"109.0.0"	"FALSE"	"Windows 10"	"60.41"	"023"	n/a	n/a	n/a	n/a	n/a	n/a	"Trial"	n/a	n/a	n/a	"637"	"arrowleft"	n/a	"NULL"	"NULL"	"NULL"	"stimuli/Ebbinghaus_-0.1000_0.28000.png"	n/a	"Ebbinghaus"	"arrowleft"	"1372"	"TRUE"	"Ebbinghaus"	"-0.100000000"	"0.2800000000"	"2"	"16"
n/a	"html-keyboard-response"	"216"	"7718492"	"0.0-6.0-2.0-0.16"	"f6ztws"	"600"	"1366"	"chrome"	"109.0.0"	"FALSE"	"Windows 10"	"60.41"	"023"	n/a	n/a	n/a	n/a	n/a	n/a	"fixation"	n/a	n/a	n/a	n/a	"NULL"	n/a	"NULL"	"NULL"	"NULL"	"<p style=\"color: black; font-size: 80px; padding-left: 16%; padding-right: 40%; padding-top: 36%; padding-bottom: 29%\">+</p>"	"1349"	n/a	n/a	n/a	n/a	n/a	n/a	n/a	n/a	n/a
n/a	"image-keyboard-response"	"217"	"7719102"	"0.0-6.0-2.0-1.16"	"f6ztws"	"600"	"1366"	"chrome"	"109.0.0"	"FALSE"	"Windows 10"	"60.41"	"023"	n/a	n/a	n/a	n/a	n/a	n/a	"Trial"	n/a	n/a	n/a	"609"	"arrowright"	n/a	"NULL"	"NULL"	"NULL"	"stimuli/Ebbinghaus_0.35714_-0.2800.png"	n/a	"Ebbinghaus"	"arrowright"	"1364"	"TRUE"	"Ebbinghaus"	"0.3571400000"	"-0.280000000"	"2"	"17"
n/a	"html-keyboard-response"	"218"	"7720371"	"0.0-6.0-2.0-0.17"	"f6ztws"	"600"	"1366"	"chrome"	"109.0.0"	"FALSE"	"Windows 10"	"60.41"	"023"	n/a	n/a	n/a	n/a	n/a	n/a	"fixation"	n/a	n/a	n/a	n/a	"NULL"	n/a	"NULL"	"NULL"	"NULL"	"<p style=\"color: black; font-size: 80px; padding-left: 16%; padding-right: 11%; padding-top: 36%; padding-bottom: 10%\">+</p>"	"1253"	n/a	n/a	n/a	n/a	n/a	n/a	n/a	n/a	n/a
n/a	"image-keyboard-response"	"219"	"7721071"	"0.0-6.0-2.0-1.17"	"f6ztws"	"600"	"1366"	"chrome"	"109.0.0"	"FALSE"	"Windows 10"	"60.41"	"023"	n/a	n/a	n/a	n/a	n/a	n/a	"Trial"	n/a	n/a	n/a	"699"	"arrowright"	n/a	"NULL"	"NULL"	"NULL"	"stimuli/Ebbinghaus_-0.87143_-0.11071.png"	n/a	"Ebbinghaus"	"arrowright"	"1269"	"TRUE"	"Ebbinghaus"	"-0.871430000"	"-0.110710000"	"2"	"18"
n/a	"html-keyboard-response"	"220"	"7722278"	"0.0-6.0-2.0-0.18"	"f6ztws"	"600"	"1366"	"chrome"	"109.0.0"	"FALSE"	"Windows 10"	"60.41"	"023"	n/a	n/a	n/a	n/a	n/a	n/a	"fixation"	n/a	n/a	n/a	n/a	"NULL"	n/a	"NULL"	"NULL"	"NULL"	"<p style=\"color: black; font-size: 80px; padding-left: 28%; padding-right: 37%; padding-top: 43%; padding-bottom: 22%\">+</p>"	"1188"	n/a	n/a	n/a	n/a	n/a	n/a	n/a	n/a	n/a
n/a	"image-keyboard-response"	"221"	"7723023"	"0.0-6.0-2.0-1.18"	"f6ztws"	"600"	"1366"	"chrome"	"109.0.0"	"FALSE"	"Windows 10"	"60.41"	"023"	n/a	n/a	n/a	n/a	n/a	n/a	"Trial"	n/a	n/a	n/a	"745"	"arrowleft"	n/a	"NULL"	"NULL"	"NULL"	"stimuli/Ebbinghaus_0.10000_-0.11071.png"	n/a	"Ebbinghaus"	"arrowright"	"1207"	"FALSE"	"Ebbinghaus"	"0.1000000000"	"-0.110710000"	"2"	"19"
n/a	"html-keyboard-response"	"222"	"7724389"	"0.0-6.0-2.0-0.19"	"f6ztws"	"600"	"1366"	"chrome"	"109.0.0"	"FALSE"	"Windows 10"	"60.41"	"023"	n/a	n/a	n/a	n/a	n/a	n/a	"fixation"	n/a	n/a	n/a	n/a	"NULL"	n/a	"NULL"	"NULL"	"NULL"	"<p style=\"color: black; font-size: 80px; padding-left: 1%; padding-right: 1%; padding-top: 17%; padding-bottom: 2%\">+</p>"	"1354"	n/a	n/a	n/a	n/a	n/a	n/a	n/a	n/a	n/a
n/a	"image-keyboard-response"	"223"	"7725367"	"0.0-6.0-2.0-1.19"	"f6ztws"	"600"	"1366"	"chrome"	"109.0.0"	"FALSE"	"Windows 10"	"60.41"	"023"	n/a	n/a	n/a	n/a	n/a	n/a	"Trial"	n/a	n/a	n/a	"977"	"arrowright"	n/a	"NULL"	"NULL"	"NULL"	"stimuli/Ebbinghaus_-0.61429_-0.11071.png"	n/a	"Ebbinghaus"	"arrowright"	"1366"	"TRUE"	"Ebbinghaus"	"-0.614290000"	"-0.110710000"	"2"	"20"
n/a	"html-keyboard-response"	"224"	"7726438"	"0.0-6.0-2.0-0.20"	"f6ztws"	"600"	"1366"	"chrome"	"109.0.0"	"FALSE"	"Windows 10"	"60.41"	"023"	n/a	n/a	n/a	n/a	n/a	n/a	"fixation"	n/a	n/a	n/a	n/a	"NULL"	n/a	"NULL"	"NULL"	"NULL"	"<p style=\"color: black; font-size: 80px; padding-left: 5%; padding-right: 9%; padding-top: 24%; padding-bottom: 11%\">+</p>"	"1050"	n/a	n/a	n/a	n/a	n/a	n/a	n/a	n/a	n/a
n/a	"image-keyboard-response"	"225"	"7727172"	"0.0-6.0-2.0-1.20"	"f6ztws"	"600"	"1366"	"chrome"	"109.0.0"	"FALSE"	"Windows 10"	"60.41"	"023"	n/a	n/a	n/a	n/a	n/a	n/a	"Trial"	n/a	n/a	n/a	"733"	"arrowleft"	n/a	"NULL"	"NULL"	"NULL"	"stimuli/Ebbinghaus_0.87143_0.28000.png"	n/a	"Ebbinghaus"	"arrowleft"	"1071"	"TRUE"	"Ebbinghaus"	"0.8714300000"	"0.2800000000"	"2"	"21"
n/a	"html-keyboard-response"	"226"	"7728568"	"0.0-6.0-2.0-0.21"	"f6ztws"	"600"	"1366"	"chrome"	"109.0.0"	"FALSE"	"Windows 10"	"60.41"	"023"	n/a	n/a	n/a	n/a	n/a	n/a	"fixation"	n/a	n/a	n/a	n/a	"NULL"	n/a	"NULL"	"NULL"	"NULL"	"<p style=\"color: black; font-size: 80px; padding-left: 1%; padding-right: 6%; padding-top: 36%; padding-bottom: 17%\">+</p>"	"1384"	n/a	n/a	n/a	n/a	n/a	n/a	n/a	n/a	n/a
n/a	"image-keyboard-response"	"227"	"7729410"	"0.0-6.0-2.0-1.21"	"f6ztws"	"600"	"1366"	"chrome"	"109.0.0"	"FALSE"	"Windows 10"	"60.41"	"023"	n/a	n/a	n/a	n/a	n/a	n/a	"Trial"	n/a	n/a	n/a	"841"	"arrowleft"	n/a	"NULL"	"NULL"	"NULL"	"stimuli/Ebbinghaus_-0.87143_0.28000.png"	n/a	"Ebbinghaus"	"arrowleft"	"1396"	"TRUE"	"Ebbinghaus"	"-0.871430000"	"0.2800000000"	"2"	"22"
n/a	"html-keyboard-response"	"228"	"7730423"	"0.0-6.0-2.0-0.22"	"f6ztws"	"600"	"1366"	"chrome"	"109.0.0"	"FALSE"	"Windows 10"	"60.41"	"023"	n/a	n/a	n/a	n/a	n/a	n/a	"fixation"	n/a	n/a	n/a	n/a	"NULL"	n/a	"NULL"	"NULL"	"NULL"	"<p style=\"color: black; font-size: 80px; padding-left: 10%; padding-right: 44%; padding-top: 38%; padding-bottom: 24%\">+</p>"	"1003"	n/a	n/a	n/a	n/a	n/a	n/a	n/a	n/a	n/a
n/a	"image-keyboard-response"	"229"	"7731183"	"0.0-6.0-2.0-1.22"	"f6ztws"	"600"	"1366"	"chrome"	"109.0.0"	"FALSE"	"Windows 10"	"60.41"	"023"	n/a	n/a	n/a	n/a	n/a	n/a	"Trial"	n/a	n/a	n/a	"759"	"arrowleft"	n/a	"NULL"	"NULL"	"NULL"	"stimuli/Ebbinghaus_-0.87143_0.11071.png"	n/a	"Ebbinghaus"	"arrowleft"	"1013"	"TRUE"	"Ebbinghaus"	"-0.871430000"	"0.1107100000"	"2"	"23"
n/a	"html-keyboard-response"	"230"	"7732661"	"0.0-6.0-2.0-0.23"	"f6ztws"	"600"	"1366"	"chrome"	"109.0.0"	"FALSE"	"Windows 10"	"60.41"	"023"	n/a	n/a	n/a	n/a	n/a	n/a	"fixation"	n/a	n/a	n/a	n/a	"NULL"	n/a	"NULL"	"NULL"	"NULL"	"<p style=\"color: black; font-size: 80px; padding-left: 2%; padding-right: 12%; padding-top: 20%; padding-bottom: 48%\">+</p>"	"1470"	n/a	n/a	n/a	n/a	n/a	n/a	n/a	n/a	n/a
n/a	"image-keyboard-response"	"231"	"7733591"	"0.0-6.0-2.0-1.23"	"f6ztws"	"600"	"1366"	"chrome"	"109.0.0"	"FALSE"	"Windows 10"	"60.41"	"023"	n/a	n/a	n/a	n/a	n/a	n/a	"Trial"	n/a	n/a	n/a	"929"	"arrowleft"	n/a	"NULL"	"NULL"	"NULL"	"stimuli/Ebbinghaus_0.35714_0.11071.png"	n/a	"Ebbinghaus"	"arrowleft"	"1478"	"TRUE"	"Ebbinghaus"	"0.3571400000"	"0.1107100000"	"2"	"24"
n/a	"html-keyboard-response"	"232"	"7734764"	"0.0-6.0-2.0-0.24"	"f6ztws"	"600"	"1366"	"chrome"	"109.0.0"	"FALSE"	"Windows 10"	"60.41"	"023"	n/a	n/a	n/a	n/a	n/a	n/a	"fixation"	n/a	n/a	n/a	n/a	"NULL"	n/a	"NULL"	"NULL"	"NULL"	"<p style=\"color: black; font-size: 80px; padding-left: 13%; padding-right: 12%; padding-top: 39%; padding-bottom: 38%\">+</p>"	"1165"	n/a	n/a	n/a	n/a	n/a	n/a	n/a	n/a	n/a
n/a	"image-keyboard-response"	"233"	"7735427"	"0.0-6.0-2.0-1.24"	"f6ztws"	"600"	"1366"	"chrome"	"109.0.0"	"FALSE"	"Windows 10"	"60.41"	"023"	n/a	n/a	n/a	n/a	n/a	n/a	"Trial"	n/a	n/a	n/a	"662"	"arrowleft"	n/a	"NULL"	"NULL"	"NULL"	"stimuli/Ebbinghaus_-0.1000_0.21500.png"	n/a	"Ebbinghaus"	"arrowleft"	"1173"	"TRUE"	"Ebbinghaus"	"-0.100000000"	"0.2150000000"	"2"	"25"
n/a	"html-keyboard-response"	"234"	"7736866"	"0.0-6.0-2.0-0.25"	"f6ztws"	"600"	"1366"	"chrome"	"109.0.0"	"FALSE"	"Windows 10"	"60.41"	"023"	n/a	n/a	n/a	n/a	n/a	n/a	"fixation"	n/a	n/a	n/a	n/a	"NULL"	n/a	"NULL"	"NULL"	"NULL"	"<p style=\"color: black; font-size: 80px; padding-left: 16%; padding-right: 10%; padding-top: 9%; padding-bottom: 47%\">+</p>"	"1424"	n/a	n/a	n/a	n/a	n/a	n/a	n/a	n/a	n/a
n/a	"image-keyboard-response"	"235"	"7737648"	"0.0-6.0-2.0-1.25"	"f6ztws"	"600"	"1366"	"chrome"	"109.0.0"	"FALSE"	"Windows 10"	"60.41"	"023"	n/a	n/a	n/a	n/a	n/a	n/a	"Trial"	n/a	n/a	n/a	"781"	"arrowleft"	n/a	"NULL"	"NULL"	"NULL"	"stimuli/Ebbinghaus_0.10000_0.21500.png"	n/a	"Ebbinghaus"	"arrowleft"	"1439"	"TRUE"	"Ebbinghaus"	"0.1000000000"	"0.2150000000"	"2"	"26"
n/a	"html-keyboard-response"	"236"	"7738751"	"0.0-6.0-2.0-0.26"	"f6ztws"	"600"	"1366"	"chrome"	"109.0.0"	"FALSE"	"Windows 10"	"60.41"	"023"	n/a	n/a	n/a	n/a	n/a	n/a	"fixation"	n/a	n/a	n/a	n/a	"NULL"	n/a	"NULL"	"NULL"	"NULL"	"<p style=\"color: black; font-size: 80px; padding-left: 25%; padding-right: 23%; padding-top: 27%; padding-bottom: 15%\">+</p>"	"1084"	n/a	n/a	n/a	n/a	n/a	n/a	n/a	n/a	n/a
n/a	"image-keyboard-response"	"237"	"7739568"	"0.0-6.0-2.0-1.26"	"f6ztws"	"600"	"1366"	"chrome"	"109.0.0"	"FALSE"	"Windows 10"	"60.41"	"023"	n/a	n/a	n/a	n/a	n/a	n/a	"Trial"	n/a	n/a	n/a	"817"	"arrowleft"	n/a	"NULL"	"NULL"	"NULL"	"stimuli/Ebbinghaus_-0.35714_0.15857.png"	n/a	"Ebbinghaus"	"arrowleft"	"1103"	"TRUE"	"Ebbinghaus"	"-0.357140000"	"0.1585700000"	"2"	"27"
n/a	"html-keyboard-response"	"238"	"7740929"	"0.0-6.0-2.0-0.27"	"f6ztws"	"600"	"1366"	"chrome"	"109.0.0"	"FALSE"	"Windows 10"	"60.41"	"023"	n/a	n/a	n/a	n/a	n/a	n/a	"fixation"	n/a	n/a	n/a	n/a	"NULL"	n/a	"NULL"	"NULL"	"NULL"	"<p style=\"color: black; font-size: 80px; padding-left: 39%; padding-right: 40%; padding-top: 12%; padding-bottom: 15%\">+</p>"	"1339"	n/a	n/a	n/a	n/a	n/a	n/a	n/a	n/a	n/a
n/a	"image-keyboard-response"	"239"	"7741932"	"0.0-6.0-2.0-1.27"	"f6ztws"	"600"	"1366"	"chrome"	"109.0.0"	"FALSE"	"Windows 10"	"60.41"	"023"	n/a	n/a	n/a	n/a	n/a	n/a	"Trial"	n/a	n/a	n/a	"1002"	"arrowleft"	n/a	"NULL"	"NULL"	"NULL"	"stimuli/Ebbinghaus_-0.35714_0.11071.png"	n/a	"Ebbinghaus"	"arrowleft"	"1361"	"TRUE"	"Ebbinghaus"	"-0.357140000"	"0.1107100000"	"2"	"28"
n/a	"html-keyboard-response"	"240"	"7743429"	"0.0-6.0-2.0-0.28"	"f6ztws"	"600"	"1366"	"chrome"	"109.0.0"	"FALSE"	"Windows 10"	"60.41"	"023"	n/a	n/a	n/a	n/a	n/a	n/a	"fixation"	n/a	n/a	n/a	n/a	"NULL"	n/a	"NULL"	"NULL"	"NULL"	"<p style=\"color: black; font-size: 80px; padding-left: 8%; padding-right: 44%; padding-top: 15%; padding-bottom: 15%\">+</p>"	"1489"	n/a	n/a	n/a	n/a	n/a	n/a	n/a	n/a	n/a
n/a	"image-keyboard-response"	"241"	"7744264"	"0.0-6.0-2.0-1.28"	"f6ztws"	"600"	"1366"	"chrome"	"109.0.0"	"FALSE"	"Windows 10"	"60.41"	"023"	n/a	n/a	n/a	n/a	n/a	n/a	"Trial"	n/a	n/a	n/a	"830"	"arrowleft"	n/a	"NULL"	"NULL"	"NULL"	"stimuli/Ebbinghaus_0.61429_-0.15857.png"	n/a	"Ebbinghaus"	"arrowright"	"1497"	"FALSE"	"Ebbinghaus"	"0.6142900000"	"-0.158570000"	"2"	"29"
n/a	"html-keyboard-response"	"242"	"7745726"	"0.0-6.0-2.0-0.29"	"f6ztws"	"600"	"1366"	"chrome"	"109.0.0"	"FALSE"	"Windows 10"	"60.41"	"023"	n/a	n/a	n/a	n/a	n/a	n/a	"fixation"	n/a	n/a	n/a	n/a	"NULL"	n/a	"NULL"	"NULL"	"NULL"	"<p style=\"color: black; font-size: 80px; padding-left: 30%; padding-right: 38%; padding-top: 10%; padding-bottom: 36%\">+</p>"	"1447"	n/a	n/a	n/a	n/a	n/a	n/a	n/a	n/a	n/a
n/a	"image-keyboard-response"	"243"	"7746725"	"0.0-6.0-2.0-1.29"	"f6ztws"	"600"	"1366"	"chrome"	"109.0.0"	"FALSE"	"Windows 10"	"60.41"	"023"	n/a	n/a	n/a	n/a	n/a	n/a	"Trial"	n/a	n/a	n/a	"998"	"arrowleft"	n/a	"NULL"	"NULL"	"NULL"	"stimuli/Ebbinghaus_0.61429_0.15857.png"	n/a	"Ebbinghaus"	"arrowleft"	"1462"	"TRUE"	"Ebbinghaus"	"0.6142900000"	"0.1585700000"	"2"	"30"
n/a	"html-keyboard-response"	"244"	"7747957"	"0.0-6.0-2.0-0.30"	"f6ztws"	"600"	"1366"	"chrome"	"109.0.0"	"FALSE"	"Windows 10"	"60.41"	"023"	n/a	n/a	n/a	n/a	n/a	n/a	"fixation"	n/a	n/a	n/a	n/a	"NULL"	n/a	"NULL"	"NULL"	"NULL"	"<p style=\"color: black; font-size: 80px; padding-left: 35%; padding-right: 11%; padding-top: 15%; padding-bottom: 43%\">+</p>"	"1216"	n/a	n/a	n/a	n/a	n/a	n/a	n/a	n/a	n/a
n/a	"image-keyboard-response"	"245"	"7748521"	"0.0-6.0-2.0-1.30"	"f6ztws"	"600"	"1366"	"chrome"	"109.0.0"	"FALSE"	"Windows 10"	"60.41"	"023"	n/a	n/a	n/a	n/a	n/a	n/a	"Trial"	n/a	n/a	n/a	"563"	"arrowleft"	n/a	"NULL"	"NULL"	"NULL"	"stimuli/Ebbinghaus_-0.87143_0.15857.png"	n/a	"Ebbinghaus"	"arrowleft"	"1232"	"TRUE"	"Ebbinghaus"	"-0.871430000"	"0.1585700000"	"2"	"31"
n/a	"html-keyboard-response"	"246"	"7749704"	"0.0-6.0-2.0-0.31"	"f6ztws"	"600"	"1366"	"chrome"	"109.0.0"	"FALSE"	"Windows 10"	"60.41"	"023"	n/a	n/a	n/a	n/a	n/a	n/a	"fixation"	n/a	n/a	n/a	n/a	"NULL"	n/a	"NULL"	"NULL"	"NULL"	"<p style=\"color: black; font-size: 80px; padding-left: 3%; padding-right: 6%; padding-top: 36%; padding-bottom: 43%\">+</p>"	"1173"	n/a	n/a	n/a	n/a	n/a	n/a	n/a	n/a	n/a
n/a	"image-keyboard-response"	"247"	"7750692"	"0.0-6.0-2.0-1.31"	"f6ztws"	"600"	"1366"	"chrome"	"109.0.0"	"FALSE"	"Windows 10"	"60.41"	"023"	n/a	n/a	n/a	n/a	n/a	n/a	"Trial"	n/a	n/a	n/a	"987"	"arrowleft"	n/a	"NULL"	"NULL"	"NULL"	"stimuli/Ebbinghaus_0.87143_-0.15857.png"	n/a	"Ebbinghaus"	"arrowright"	"1183"	"FALSE"	"Ebbinghaus"	"0.8714300000"	"-0.158570000"	"2"	"32"
n/a	"html-keyboard-response"	"248"	"7751856"	"0.0-6.0-2.0-0.32"	"f6ztws"	"600"	"1366"	"chrome"	"109.0.0"	"FALSE"	"Windows 10"	"60.41"	"023"	n/a	n/a	n/a	n/a	n/a	n/a	"fixation"	n/a	n/a	n/a	n/a	"NULL"	n/a	"NULL"	"NULL"	"NULL"	"<p style=\"color: black; font-size: 80px; padding-left: 22%; padding-right: 42%; padding-top: 27%; padding-bottom: 41%\">+</p>"	"1153"	n/a	n/a	n/a	n/a	n/a	n/a	n/a	n/a	n/a
