"success"	"trial_type"	"trial_index"	"time_elapsed"	"internal_node_id"	"participant_id"	"screen_height"	"screen_width"	"browser"	"browser_version"	"mobile"	"os"	"vsync_rate"	"subject_id"	"width"	"height"	"webaudio"	"fullscreen"	"webcam"	"microphone"	"screen"	"version"	"date"	"time"	"rt"	"response"	"timeout"	"failed_images"	"failed_audio"	"failed_video"	"stimulus"	"trial_duration"	"block"	"correct_response"	"prestimulus_duration"	"correct"	"type"	"illusion_strength"	"illusion_difference"	"block_number"	"trial_number"
"TRUE"	"fullscreen"	"0"	"6105"	"0.0-0.0"	"pm88c0"	"600"	"1366"	"chrome"	"109.0.0"	"FALSE"	"Windows 10"	"60.2"	"014"	n/a	n/a	n/a	n/a	n/a	n/a	n/a	n/a	n/a	n/a	n/a	"NULL"	n/a	"NULL"	"NULL"	"NULL"	n/a	n/a	n/a	n/a	n/a	n/a	n/a	n/a	n/a	n/a	n/a
n/a	"browser-check"	"1"	"7118"	"0.0-1.0"	"pm88c0"	"600"	"1366"	"chrome"	"109.0.0"	"FALSE"	"Windows 10"	"60.2"	"014"	"1366"	"600"	"TRUE"	"TRUE"	"TRUE"	"TRUE"	"browser_info"	"1.0"	"09/02/2023"	"15:18:45"	n/a	"NULL"	n/a	"NULL"	"NULL"	"NULL"	n/a	n/a	n/a	n/a	n/a	n/a	n/a	n/a	n/a	n/a	n/a
n/a	"survey-text"	"2"	"11031"	"0.0-2.0"	"pm88c0"	"600"	"1366"	"chrome"	"109.0.0"	"FALSE"	"Windows 10"	"60.2"	"014"	n/a	n/a	n/a	n/a	n/a	n/a	"subject_id"	n/a	n/a	n/a	"3906"	"list(subject_id = \"014\")"	n/a	"NULL"	"NULL"	"NULL"	n/a	n/a	n/a	n/a	n/a	n/a	n/a	n/a	n/a	n/a	n/a
"TRUE"	"preload"	"3"	"11047"	"0.0-3.0"	"pm88c0"	"600"	"1366"	"chrome"	"109.0.0"	"FALSE"	"Windows 10"	"60.2"	"014"	n/a	n/a	n/a	n/a	n/a	n/a	n/a	n/a	n/a	n/a	n/a	"NULL"	"FALSE"	"list()"	"list()"	"list()"	n/a	n/a	n/a	n/a	n/a	n/a	n/a	n/a	n/a	n/a	n/a
n/a	"html-button-response"	"4"	"76963"	"0.0-4.0-0.0"	"pm88c0"	"600"	"1366"	"chrome"	"109.0.0"	"FALSE"	"Windows 10"	"60.2"	"014"	n/a	n/a	n/a	n/a	n/a	n/a	"illusion_instructions"	n/a	n/a	n/a	"65915"	"0"	n/a	"NULL"	"NULL"	"NULL"	"<p><b>Illusion Game</b></p><p>In this game of speed and reflex, you will need to make <b>visual judgments</b> (for instance, which circle is the biggest, or which line is the longest), as fast and as correctly as possible, while <b>resisting different visual illusions</b>.</p><p>We are going to start with some examples of all the illusions you will encounter in the game.</p>"	n/a	n/a	n/a	n/a	n/a	n/a	n/a	n/a	n/a	n/a
"TRUE"	"preload"	"5"	"76993"	"0.0-4.0-1.0-0.0"	"pm88c0"	"600"	"1366"	"chrome"	"109.0.0"	"FALSE"	"Windows 10"	"60.2"	"014"	n/a	n/a	n/a	n/a	n/a	n/a	n/a	n/a	n/a	n/a	n/a	"NULL"	"FALSE"	"list()"	"list()"	"list()"	n/a	n/a	n/a	n/a	n/a	n/a	n/a	n/a	n/a	n/a	n/a
n/a	"html-keyboard-response"	"6"	"105700"	"0.0-4.0-1.0-1.0"	"pm88c0"	"600"	"1366"	"chrome"	"109.0.0"	"FALSE"	"Windows 10"	"60.2"	"014"	n/a	n/a	n/a	n/a	n/a	n/a	n/a	n/a	n/a	n/a	"28704"	"enter"	n/a	"NULL"	"NULL"	"NULL"	"<p><b>Practice</b></p><p>In this part, two red circles will appear side by side on the screen.</p><p>Your task is to select which <b>red circle is bigger</b> in size as fast as you can, without making errors.</p><p>Don't get distracted by the surrounding black circles around the red circles!</p><p>Press <b>the LEFT or the RIGHT arrow</b> to indicate which is the bigger <b>red circle.</b></p><div style='float: center'><img src='materials/instructions/Ebbinghaus_Demo.png' height='300'></img><p><img src='utils/answer/answer_leftright_keyboard.PNG' height='150'></img></p><p class='small'>In this example, the correct answer is the <b>LEFT arrow</b>.</p></div><p>Are you ready? <b>Press ENTER to start</b></p>"	n/a	n/a	n/a	n/a	n/a	n/a	n/a	n/a	n/a	n/a
n/a	"html-keyboard-response"	"7"	"107670"	"0.0-4.0-1.0-2.0-0.0"	"pm88c0"	"600"	"1366"	"chrome"	"109.0.0"	"FALSE"	"Windows 10"	"60.2"	"014"	n/a	n/a	n/a	n/a	n/a	n/a	"fixation"	n/a	n/a	n/a	n/a	"NULL"	n/a	"NULL"	"NULL"	"NULL"	"<p style=\"color: black; font-size: 80px; padding-left: 29%; padding-right: 15%; padding-top: 22%; padding-bottom: 47%\">+</p>"	"1439"	n/a	n/a	n/a	n/a	n/a	n/a	n/a	n/a	n/a
n/a	"image-keyboard-response"	"8"	"109081"	"0.0-4.0-1.0-2.0-1.0"	"pm88c0"	"600"	"1366"	"chrome"	"109.0.0"	"FALSE"	"Windows 10"	"60.2"	"014"	n/a	n/a	n/a	n/a	n/a	n/a	"Trial"	n/a	n/a	n/a	"1399"	"arrowright"	n/a	"NULL"	"NULL"	"NULL"	"stimuli/Ebbinghaus_-100000_1.40000.png"	n/a	"Ebbinghaus"	"arrowleft"	"1970"	"FALSE"	"Ebbinghaus"	"-10000000000"	"1.4000000000"	"1"	"1"
n/a	"html-keyboard-response"	"9"	"110571"	"0.0-4.0-1.0-2.0-0.1"	"pm88c0"	"600"	"1366"	"chrome"	"109.0.0"	"FALSE"	"Windows 10"	"60.2"	"014"	n/a	n/a	n/a	n/a	n/a	n/a	"fixation"	n/a	n/a	n/a	n/a	"NULL"	n/a	"NULL"	"NULL"	"NULL"	"<p style=\"color: black; font-size: 80px; padding-left: 1%; padding-right: 31%; padding-top: 27%; padding-bottom: 23%\">+</p>"	"1480"	n/a	n/a	n/a	n/a	n/a	n/a	n/a	n/a	n/a
n/a	"image-keyboard-response"	"10"	"111274"	"0.0-4.0-1.0-2.0-1.1"	"pm88c0"	"600"	"1366"	"chrome"	"109.0.0"	"FALSE"	"Windows 10"	"60.2"	"014"	n/a	n/a	n/a	n/a	n/a	n/a	"Trial"	n/a	n/a	n/a	"702"	"arrowright"	n/a	"NULL"	"NULL"	"NULL"	"stimuli/Ebbinghaus_1000000_-1.4000.png"	n/a	"Ebbinghaus"	"arrowright"	"1490"	"TRUE"	"Ebbinghaus"	"100000000000"	"-1.400000000"	"1"	"2"
n/a	"html-keyboard-response"	"11"	"112557"	"0.0-4.0-1.0-2.0-0.2"	"pm88c0"	"600"	"1366"	"chrome"	"109.0.0"	"FALSE"	"Windows 10"	"60.2"	"014"	n/a	n/a	n/a	n/a	n/a	n/a	"fixation"	n/a	n/a	n/a	n/a	"NULL"	n/a	"NULL"	"NULL"	"NULL"	"<p style=\"color: black; font-size: 80px; padding-left: 38%; padding-right: 48%; padding-top: 38%; padding-bottom: 14%\">+</p>"	"1264"	n/a	n/a	n/a	n/a	n/a	n/a	n/a	n/a	n/a
n/a	"image-keyboard-response"	"12"	"113057"	"0.0-4.0-1.0-2.0-1.2"	"pm88c0"	"600"	"1366"	"chrome"	"109.0.0"	"FALSE"	"Windows 10"	"60.2"	"014"	n/a	n/a	n/a	n/a	n/a	n/a	"Trial"	n/a	n/a	n/a	"499"	"arrowleft"	n/a	"NULL"	"NULL"	"NULL"	"stimuli/Ebbinghaus_1000000_1.40000.png"	n/a	"Ebbinghaus"	"arrowleft"	"1283"	"TRUE"	"Ebbinghaus"	"100000000000"	"1.4000000000"	"1"	"3"
n/a	"html-keyboard-response"	"13"	"114203"	"0.0-4.0-1.0-2.0-0.3"	"pm88c0"	"600"	"1366"	"chrome"	"109.0.0"	"FALSE"	"Windows 10"	"60.2"	"014"	n/a	n/a	n/a	n/a	n/a	n/a	"fixation"	n/a	n/a	n/a	n/a	"NULL"	n/a	"NULL"	"NULL"	"NULL"	"<p style=\"color: black; font-size: 80px; padding-left: 38%; padding-right: 50%; padding-top: 31%; padding-bottom: 18%\">+</p>"	"1137"	n/a	n/a	n/a	n/a	n/a	n/a	n/a	n/a	n/a
n/a	"image-keyboard-response"	"14"	"114837"	"0.0-4.0-1.0-2.0-1.3"	"pm88c0"	"600"	"1366"	"chrome"	"109.0.0"	"FALSE"	"Windows 10"	"60.2"	"014"	n/a	n/a	n/a	n/a	n/a	n/a	"Trial"	n/a	n/a	n/a	"633"	"arrowright"	n/a	"NULL"	"NULL"	"NULL"	"stimuli/Ebbinghaus_-100000_-1.4000.png"	n/a	"Ebbinghaus"	"arrowright"	"1146"	"TRUE"	"Ebbinghaus"	"-10000000000"	"-1.400000000"	"1"	"4"
n/a	"html-keyboard-response"	"15"	"115997"	"0.0-4.0-1.0-2.0-0.4"	"pm88c0"	"600"	"1366"	"chrome"	"109.0.0"	"FALSE"	"Windows 10"	"60.2"	"014"	n/a	n/a	n/a	n/a	n/a	n/a	"fixation"	n/a	n/a	n/a	n/a	"NULL"	n/a	"NULL"	"NULL"	"NULL"	"<p style=\"color: black; font-size: 80px; padding-left: 46%; padding-right: 44%; padding-top: 22%; padding-bottom: 26%\">+</p>"	"1153"	n/a	n/a	n/a	n/a	n/a	n/a	n/a	n/a	n/a
n/a	"image-keyboard-response"	"16"	"116642"	"0.0-4.0-1.0-2.0-1.4"	"pm88c0"	"600"	"1366"	"chrome"	"109.0.0"	"FALSE"	"Windows 10"	"60.2"	"014"	n/a	n/a	n/a	n/a	n/a	n/a	"Trial"	n/a	n/a	n/a	"644"	"arrowleft"	n/a	"NULL"	"NULL"	"NULL"	"stimuli/Ebbinghaus_0000000_1.40000.png"	n/a	"Ebbinghaus"	"arrowleft"	"1160"	"TRUE"	"Ebbinghaus"	"000000000000"	"1.4000000000"	"1"	"5"
n/a	"html-keyboard-response"	"17"	"117942"	"0.0-4.0-1.0-2.0-0.5"	"pm88c0"	"600"	"1366"	"chrome"	"109.0.0"	"FALSE"	"Windows 10"	"60.2"	"014"	n/a	n/a	n/a	n/a	n/a	n/a	"fixation"	n/a	n/a	n/a	n/a	"NULL"	n/a	"NULL"	"NULL"	"NULL"	"<p style=\"color: black; font-size: 80px; padding-left: 35%; padding-right: 14%; padding-top: 14%; padding-bottom: 8%\">+</p>"	"1291"	n/a	n/a	n/a	n/a	n/a	n/a	n/a	n/a	n/a
n/a	"image-keyboard-response"	"18"	"118479"	"0.0-4.0-1.0-2.0-1.5"	"pm88c0"	"600"	"1366"	"chrome"	"109.0.0"	"FALSE"	"Windows 10"	"60.2"	"014"	n/a	n/a	n/a	n/a	n/a	n/a	"Trial"	n/a	n/a	n/a	"535"	"arrowright"	n/a	"NULL"	"NULL"	"NULL"	"stimuli/Ebbinghaus_0000000_-1.4000.png"	n/a	"Ebbinghaus"	"arrowright"	"1300"	"TRUE"	"Ebbinghaus"	"000000000000"	"-1.400000000"	"1"	"6"
n/a	"html-button-response"	"19"	"122935"	"0.0-4.0-1.0-3.0"	"pm88c0"	"600"	"1366"	"chrome"	"109.0.0"	"FALSE"	"Windows 10"	"60.2"	"014"	n/a	n/a	n/a	n/a	n/a	n/a	"practice_block_results"	n/a	n/a	n/a	"4454"	"0"	n/a	"NULL"	"NULL"	"NULL"	"<p style='color:rgb(76,175,80);'> Correct Responses: <b>83.33%</b></p><hr><p style='color:rgb(233,30,99);'> Average Response Time: <b>735.33</b> ms.</p>"	n/a	n/a	n/a	n/a	n/a	n/a	n/a	n/a	n/a	n/a
"TRUE"	"preload"	"20"	"123474"	"0.0-4.0-2.0-0.0"	"pm88c0"	"600"	"1366"	"chrome"	"109.0.0"	"FALSE"	"Windows 10"	"60.2"	"014"	n/a	n/a	n/a	n/a	n/a	n/a	n/a	n/a	n/a	n/a	n/a	"NULL"	"FALSE"	"list()"	"list()"	"list()"	n/a	n/a	n/a	n/a	n/a	n/a	n/a	n/a	n/a	n/a	n/a
n/a	"html-keyboard-response"	"21"	"131703"	"0.0-4.0-2.0-1.0"	"pm88c0"	"600"	"1366"	"chrome"	"109.0.0"	"FALSE"	"Windows 10"	"60.2"	"014"	n/a	n/a	n/a	n/a	n/a	n/a	n/a	n/a	n/a	n/a	"8228"	"enter"	n/a	"NULL"	"NULL"	"NULL"	"<p><b>Practice</b></p><p>In this part, two horizontal red lines will appear one above the other.</p><p>Your task is to select which <b>line is longer</b> in length as fast as you can, without making errors.</p><p>Don't get distracted by the surrounding black arrows at the end of the red lines!</p><p>Press <b>the UP or the DOWN arrow</b> to indicate where is the longer <b>red line.</b></p><div style='float: center'><img src='materials/instructions/MullerLyer_Demo.png' height='300'></img><p><img src='utils/answer/answer_updown_keyboard.PNG' height='150'></img></p><p class='small'>In this example, the correct answer is the <b>UP arrow</b>.</p></div><p>Are you ready? <b>Press ENTER to start</b></p>"	n/a	n/a	n/a	n/a	n/a	n/a	n/a	n/a	n/a	n/a
n/a	"html-keyboard-response"	"22"	"133453"	"0.0-4.0-2.0-2.0-0.0"	"pm88c0"	"600"	"1366"	"chrome"	"109.0.0"	"FALSE"	"Windows 10"	"60.2"	"014"	n/a	n/a	n/a	n/a	n/a	n/a	"fixation"	n/a	n/a	n/a	n/a	"NULL"	n/a	"NULL"	"NULL"	"NULL"	"<p style=\"color: black; font-size: 80px; padding-left: 19%; padding-right: 2%; padding-top: 34%; padding-bottom: 50%\">+</p>"	"1228"	n/a	n/a	n/a	n/a	n/a	n/a	n/a	n/a	n/a
n/a	"image-keyboard-response"	"23"	"134439"	"0.0-4.0-2.0-2.0-1.0"	"pm88c0"	"600"	"1366"	"chrome"	"109.0.0"	"FALSE"	"Windows 10"	"60.2"	"014"	n/a	n/a	n/a	n/a	n/a	n/a	"Trial"	n/a	n/a	n/a	"983"	"arrowdown"	n/a	"NULL"	"NULL"	"NULL"	"stimuli/MullerLyer_2300000_-0.7000.png"	n/a	"MullerLyer"	"arrowdown"	"1750"	"TRUE"	"MullerLyer"	"230000000000"	"-0.700000000"	"1"	"7"
n/a	"html-keyboard-response"	"24"	"135859"	"0.0-4.0-2.0-2.0-0.1"	"pm88c0"	"600"	"1366"	"chrome"	"109.0.0"	"FALSE"	"Windows 10"	"60.2"	"014"	n/a	n/a	n/a	n/a	n/a	n/a	"fixation"	n/a	n/a	n/a	n/a	"NULL"	n/a	"NULL"	"NULL"	"NULL"	"<p style=\"color: black; font-size: 80px; padding-left: 12%; padding-right: 15%; padding-top: 49%; padding-bottom: 14%\">+</p>"	"1403"	n/a	n/a	n/a	n/a	n/a	n/a	n/a	n/a	n/a
n/a	"image-keyboard-response"	"25"	"136283"	"0.0-4.0-2.0-2.0-1.1"	"pm88c0"	"600"	"1366"	"chrome"	"109.0.0"	"FALSE"	"Windows 10"	"60.2"	"014"	n/a	n/a	n/a	n/a	n/a	n/a	"Trial"	n/a	n/a	n/a	"422"	"arrowup"	n/a	"NULL"	"NULL"	"NULL"	"stimuli/MullerLyer_2300000_0.70000.png"	n/a	"MullerLyer"	"arrowup"	"1420"	"TRUE"	"MullerLyer"	"230000000000"	"0.7000000000"	"1"	"8"
n/a	"html-keyboard-response"	"26"	"137406"	"0.0-4.0-2.0-2.0-0.2"	"pm88c0"	"600"	"1366"	"chrome"	"109.0.0"	"FALSE"	"Windows 10"	"60.2"	"014"	n/a	n/a	n/a	n/a	n/a	n/a	"fixation"	n/a	n/a	n/a	n/a	"NULL"	n/a	"NULL"	"NULL"	"NULL"	"<p style=\"color: black; font-size: 80px; padding-left: 50%; padding-right: 5%; padding-top: 5%; padding-bottom: 2%\">+</p>"	"1117"	n/a	n/a	n/a	n/a	n/a	n/a	n/a	n/a	n/a
n/a	"image-keyboard-response"	"27"	"137985"	"0.0-4.0-2.0-2.0-1.2"	"pm88c0"	"600"	"1366"	"chrome"	"109.0.0"	"FALSE"	"Windows 10"	"60.2"	"014"	n/a	n/a	n/a	n/a	n/a	n/a	"Trial"	n/a	n/a	n/a	"578"	"arrowdown"	n/a	"NULL"	"NULL"	"NULL"	"stimuli/MullerLyer_0000000_-0.7000.png"	n/a	"MullerLyer"	"arrowdown"	"1123"	"TRUE"	"MullerLyer"	"000000000000"	"-0.700000000"	"1"	"9"
n/a	"html-keyboard-response"	"28"	"139142"	"0.0-4.0-2.0-2.0-0.3"	"pm88c0"	"600"	"1366"	"chrome"	"109.0.0"	"FALSE"	"Windows 10"	"60.2"	"014"	n/a	n/a	n/a	n/a	n/a	n/a	"fixation"	n/a	n/a	n/a	n/a	"NULL"	n/a	"NULL"	"NULL"	"NULL"	"<p style=\"color: black; font-size: 80px; padding-left: 12%; padding-right: 19%; padding-top: 48%; padding-bottom: 34%\">+</p>"	"1149"	n/a	n/a	n/a	n/a	n/a	n/a	n/a	n/a	n/a
n/a	"image-keyboard-response"	"29"	"139688"	"0.0-4.0-2.0-2.0-1.3"	"pm88c0"	"600"	"1366"	"chrome"	"109.0.0"	"FALSE"	"Windows 10"	"60.2"	"014"	n/a	n/a	n/a	n/a	n/a	n/a	"Trial"	n/a	n/a	n/a	"545"	"arrowup"	n/a	"NULL"	"NULL"	"NULL"	"stimuli/MullerLyer_-230000_0.70000.png"	n/a	"MullerLyer"	"arrowup"	"1157"	"TRUE"	"MullerLyer"	"-23000000000"	"0.7000000000"	"1"	"10"
n/a	"html-keyboard-response"	"30"	"141112"	"0.0-4.0-2.0-2.0-0.4"	"pm88c0"	"600"	"1366"	"chrome"	"109.0.0"	"FALSE"	"Windows 10"	"60.2"	"014"	n/a	n/a	n/a	n/a	n/a	n/a	"fixation"	n/a	n/a	n/a	n/a	"NULL"	n/a	"NULL"	"NULL"	"NULL"	"<p style=\"color: black; font-size: 80px; padding-left: 35%; padding-right: 10%; padding-top: 38%; padding-bottom: 7%\">+</p>"	"1406"	n/a	n/a	n/a	n/a	n/a	n/a	n/a	n/a	n/a
n/a	"image-keyboard-response"	"31"	"141521"	"0.0-4.0-2.0-2.0-1.4"	"pm88c0"	"600"	"1366"	"chrome"	"109.0.0"	"FALSE"	"Windows 10"	"60.2"	"014"	n/a	n/a	n/a	n/a	n/a	n/a	"Trial"	n/a	n/a	n/a	"408"	"arrowup"	n/a	"NULL"	"NULL"	"NULL"	"stimuli/MullerLyer_0000000_0.70000.png"	n/a	"MullerLyer"	"arrowup"	"1424"	"TRUE"	"MullerLyer"	"000000000000"	"0.7000000000"	"1"	"11"
n/a	"html-keyboard-response"	"32"	"142990"	"0.0-4.0-2.0-2.0-0.5"	"pm88c0"	"600"	"1366"	"chrome"	"109.0.0"	"FALSE"	"Windows 10"	"60.2"	"014"	n/a	n/a	n/a	n/a	n/a	n/a	"fixation"	n/a	n/a	n/a	n/a	"NULL"	n/a	"NULL"	"NULL"	"NULL"	"<p style=\"color: black; font-size: 80px; padding-left: 16%; padding-right: 0%; padding-top: 33%; padding-bottom: 18%\">+</p>"	"1455"	n/a	n/a	n/a	n/a	n/a	n/a	n/a	n/a	n/a
n/a	"image-keyboard-response"	"33"	"143456"	"0.0-4.0-2.0-2.0-1.5"	"pm88c0"	"600"	"1366"	"chrome"	"109.0.0"	"FALSE"	"Windows 10"	"60.2"	"014"	n/a	n/a	n/a	n/a	n/a	n/a	"Trial"	n/a	n/a	n/a	"464"	"arrowdown"	n/a	"NULL"	"NULL"	"NULL"	"stimuli/MullerLyer_-230000_-0.7000.png"	n/a	"MullerLyer"	"arrowdown"	"1469"	"TRUE"	"MullerLyer"	"-23000000000"	"-0.700000000"	"1"	"12"
n/a	"html-button-response"	"34"	"145307"	"0.0-4.0-2.0-3.0"	"pm88c0"	"600"	"1366"	"chrome"	"109.0.0"	"FALSE"	"Windows 10"	"60.2"	"014"	n/a	n/a	n/a	n/a	n/a	n/a	"practice_block_results"	n/a	n/a	n/a	"1850"	"0"	n/a	"NULL"	"NULL"	"NULL"	"<p style='color:rgb(76,175,80);'> Correct Responses: <b>100.00%</b></p><hr><p style='color:rgb(233,30,99);'> Average Response Time: <b>566.67</b> ms.</p>"	n/a	n/a	n/a	n/a	n/a	n/a	n/a	n/a	n/a	n/a
"TRUE"	"preload"	"35"	"145847"	"0.0-4.0-3.0-0.0"	"pm88c0"	"600"	"1366"	"chrome"	"109.0.0"	"FALSE"	"Windows 10"	"60.2"	"014"	n/a	n/a	n/a	n/a	n/a	n/a	n/a	n/a	n/a	n/a	n/a	"NULL"	"FALSE"	"list()"	"list()"	"list()"	n/a	n/a	n/a	n/a	n/a	n/a	n/a	n/a	n/a	n/a	n/a
n/a	"html-keyboard-response"	"36"	"153594"	"0.0-4.0-3.0-1.0"	"pm88c0"	"600"	"1366"	"chrome"	"109.0.0"	"FALSE"	"Windows 10"	"60.2"	"014"	n/a	n/a	n/a	n/a	n/a	n/a	n/a	n/a	n/a	n/a	"7746"	"enter"	n/a	"NULL"	"NULL"	"NULL"	"<p><b>Practice</b></p><p>In this part, two red lines will appear side by side.</p><p>Your task is to tell <b>which line is longer</b> in length, regardless of their orientation, as fast as you can, and without making errors.</p><p>Don't get distracted by the orientation of the lines!</p><p>Press <b>the LEFT or the RIGHT arrow</b> to indicate which <b>line is the longer one.</b></p><div style='float: center'><img src='materials/instructions/VerticalHorizontal_Demo.png' height='300'></img><p><img src='utils/answer/answer_leftright_keyboard.PNG' height='150'></img></p><p class='small'>In this example, the correct answer is the <b>LEFT arrow</b>.</p></div><p>Are you ready? <b>Press ENTER to start</b></p>"	n/a	n/a	n/a	n/a	n/a	n/a	n/a	n/a	n/a	n/a
n/a	"html-keyboard-response"	"37"	"155189"	"0.0-4.0-3.0-2.0-0.0"	"pm88c0"	"600"	"1366"	"chrome"	"109.0.0"	"FALSE"	"Windows 10"	"60.2"	"014"	n/a	n/a	n/a	n/a	n/a	n/a	"fixation"	n/a	n/a	n/a	n/a	"NULL"	n/a	"NULL"	"NULL"	"NULL"	"<p style=\"color: black; font-size: 80px; padding-left: 48%; padding-right: 6%; padding-top: 31%; padding-bottom: 20%\">+</p>"	"1075"	n/a	n/a	n/a	n/a	n/a	n/a	n/a	n/a	n/a
n/a	"image-keyboard-response"	"38"	"155911"	"0.0-4.0-3.0-2.0-1.0"	"pm88c0"	"600"	"1366"	"chrome"	"109.0.0"	"FALSE"	"Windows 10"	"60.2"	"014"	n/a	n/a	n/a	n/a	n/a	n/a	"Trial"	n/a	n/a	n/a	"721"	"arrowright"	n/a	"NULL"	"NULL"	"NULL"	"stimuli/VerticalHorizontal_-330000_-0.9000.png"	n/a	"VerticalHorizontal"	"arrowright"	"1595"	"TRUE"	"VerticalHorizontal"	"-33000000000"	"-0.900000000"	"1"	"13"
n/a	"html-keyboard-response"	"39"	"157000"	"0.0-4.0-3.0-2.0-0.1"	"pm88c0"	"600"	"1366"	"chrome"	"109.0.0"	"FALSE"	"Windows 10"	"60.2"	"014"	n/a	n/a	n/a	n/a	n/a	n/a	"fixation"	n/a	n/a	n/a	n/a	"NULL"	n/a	"NULL"	"NULL"	"NULL"	"<p style=\"color: black; font-size: 80px; padding-left: 45%; padding-right: 27%; padding-top: 26%; padding-bottom: 12%\">+</p>"	"1081"	n/a	n/a	n/a	n/a	n/a	n/a	n/a	n/a	n/a
n/a	"image-keyboard-response"	"40"	"157468"	"0.0-4.0-3.0-2.0-1.1"	"pm88c0"	"600"	"1366"	"chrome"	"109.0.0"	"FALSE"	"Windows 10"	"60.2"	"014"	n/a	n/a	n/a	n/a	n/a	n/a	"Trial"	n/a	n/a	n/a	"467"	"arrowright"	n/a	"NULL"	"NULL"	"NULL"	"stimuli/VerticalHorizontal_0000000_-0.9000.png"	n/a	"VerticalHorizontal"	"arrowright"	"1089"	"TRUE"	"VerticalHorizontal"	"000000000000"	"-0.900000000"	"1"	"14"
n/a	"html-keyboard-response"	"41"	"158576"	"0.0-4.0-3.0-2.0-0.2"	"pm88c0"	"600"	"1366"	"chrome"	"109.0.0"	"FALSE"	"Windows 10"	"60.2"	"014"	n/a	n/a	n/a	n/a	n/a	n/a	"fixation"	n/a	n/a	n/a	n/a	"NULL"	n/a	"NULL"	"NULL"	"NULL"	"<p style=\"color: black; font-size: 80px; padding-left: 30%; padding-right: 8%; padding-top: 15%; padding-bottom: 14%\">+</p>"	"1091"	n/a	n/a	n/a	n/a	n/a	n/a	n/a	n/a	n/a
n/a	"image-keyboard-response"	"42"	"159007"	"0.0-4.0-3.0-2.0-1.2"	"pm88c0"	"600"	"1366"	"chrome"	"109.0.0"	"FALSE"	"Windows 10"	"60.2"	"014"	n/a	n/a	n/a	n/a	n/a	n/a	"Trial"	n/a	n/a	n/a	"430"	"arrowleft"	n/a	"NULL"	"NULL"	"NULL"	"stimuli/VerticalHorizontal_3300000_-0.9000.png"	n/a	"VerticalHorizontal"	"arrowright"	"1108"	"FALSE"	"VerticalHorizontal"	"330000000000"	"-0.900000000"	"1"	"15"
n/a	"html-keyboard-response"	"43"	"160092"	"0.0-4.0-3.0-2.0-0.3"	"pm88c0"	"600"	"1366"	"chrome"	"109.0.0"	"FALSE"	"Windows 10"	"60.2"	"014"	n/a	n/a	n/a	n/a	n/a	n/a	"fixation"	n/a	n/a	n/a	n/a	"NULL"	n/a	"NULL"	"NULL"	"NULL"	"<p style=\"color: black; font-size: 80px; padding-left: 14%; padding-right: 20%; padding-top: 47%; padding-bottom: 6%\">+</p>"	"1073"	n/a	n/a	n/a	n/a	n/a	n/a	n/a	n/a	n/a
n/a	"image-keyboard-response"	"44"	"160571"	"0.0-4.0-3.0-2.0-1.3"	"pm88c0"	"600"	"1366"	"chrome"	"109.0.0"	"FALSE"	"Windows 10"	"60.2"	"014"	n/a	n/a	n/a	n/a	n/a	n/a	"Trial"	n/a	n/a	n/a	"478"	"arrowleft"	n/a	"NULL"	"NULL"	"NULL"	"stimuli/VerticalHorizontal_3300000_0.90000.png"	n/a	"VerticalHorizontal"	"arrowleft"	"1085"	"TRUE"	"VerticalHorizontal"	"330000000000"	"0.9000000000"	"1"	"16"
n/a	"html-keyboard-response"	"45"	"161812"	"0.0-4.0-3.0-2.0-0.4"	"pm88c0"	"600"	"1366"	"chrome"	"109.0.0"	"FALSE"	"Windows 10"	"60.2"	"014"	n/a	n/a	n/a	n/a	n/a	n/a	"fixation"	n/a	n/a	n/a	n/a	"NULL"	n/a	"NULL"	"NULL"	"NULL"	"<p style=\"color: black; font-size: 80px; padding-left: 11%; padding-right: 45%; padding-top: 34%; padding-bottom: 18%\">+</p>"	"1230"	n/a	n/a	n/a	n/a	n/a	n/a	n/a	n/a	n/a
n/a	"image-keyboard-response"	"46"	"162211"	"0.0-4.0-3.0-2.0-1.4"	"pm88c0"	"600"	"1366"	"chrome"	"109.0.0"	"FALSE"	"Windows 10"	"60.2"	"014"	n/a	n/a	n/a	n/a	n/a	n/a	"Trial"	n/a	n/a	n/a	"397"	"arrowleft"	n/a	"NULL"	"NULL"	"NULL"	"stimuli/VerticalHorizontal_0000000_0.90000.png"	n/a	"VerticalHorizontal"	"arrowleft"	"1241"	"TRUE"	"VerticalHorizontal"	"000000000000"	"0.9000000000"	"1"	"17"
n/a	"html-keyboard-response"	"47"	"163485"	"0.0-4.0-3.0-2.0-0.5"	"pm88c0"	"600"	"1366"	"chrome"	"109.0.0"	"FALSE"	"Windows 10"	"60.2"	"014"	n/a	n/a	n/a	n/a	n/a	n/a	"fixation"	n/a	n/a	n/a	n/a	"NULL"	n/a	"NULL"	"NULL"	"NULL"	"<p style=\"color: black; font-size: 80px; padding-left: 19%; padding-right: 39%; padding-top: 41%; padding-bottom: 50%\">+</p>"	"1265"	n/a	n/a	n/a	n/a	n/a	n/a	n/a	n/a	n/a
n/a	"image-keyboard-response"	"48"	"163888"	"0.0-4.0-3.0-2.0-1.5"	"pm88c0"	"600"	"1366"	"chrome"	"109.0.0"	"FALSE"	"Windows 10"	"60.2"	"014"	n/a	n/a	n/a	n/a	n/a	n/a	"Trial"	n/a	n/a	n/a	"403"	"arrowleft"	n/a	"NULL"	"NULL"	"NULL"	"stimuli/VerticalHorizontal_-330000_0.90000.png"	n/a	"VerticalHorizontal"	"arrowleft"	"1274"	"TRUE"	"VerticalHorizontal"	"-33000000000"	"0.9000000000"	"1"	"18"
n/a	"html-button-response"	"49"	"166054"	"0.0-4.0-3.0-3.0"	"pm88c0"	"600"	"1366"	"chrome"	"109.0.0"	"FALSE"	"Windows 10"	"60.2"	"014"	n/a	n/a	n/a	n/a	n/a	n/a	"practice_block_results"	n/a	n/a	n/a	"2164"	"0"	n/a	"NULL"	"NULL"	"NULL"	"<p style='color:rgb(76,175,80);'> Correct Responses: <b>83.33%</b></p><hr><p style='color:rgb(233,30,99);'> Average Response Time: <b>482.67</b> ms.</p>"	n/a	n/a	n/a	n/a	n/a	n/a	n/a	n/a	n/a	n/a
n/a	"html-button-response"	"50"	"224321"	"0.0-4.0-4.0"	"pm88c0"	"600"	"1366"	"chrome"	"109.0.0"	"FALSE"	"Windows 10"	"60.2"	"014"	n/a	n/a	n/a	n/a	n/a	n/a	"practice_debrief"	n/a	n/a	n/a	"57758"	"0"	n/a	"NULL"	"NULL"	"NULL"	"<p><b>TRAINING COMPLETED</b></p><p>In the next phase, there will be more trials, and some might be harder too.<br> Moreover, after each illusion block, a <b>score</b> will be calculated based on speed (time you took to answer) and accuracy (number of errors).</p><p>Try to keep up a high score!</p><br><p>Note that it can be <i>really</i> challenging at times, so you will need to rely on your <b>intuition</b> and gut feeling to answer as fast as you can without making errors.</p><p>Each illusion block will be repeated two times (so that you have the opportunity to improve your score), but the order of the blocks is random.</p><p>Remember, your goal is to be as <b>fast</b> and <b>accurate</b> as possible. Good luck!</p><br>"	n/a	n/a	n/a	n/a	n/a	n/a	n/a	n/a	n/a	n/a
"TRUE"	"preload"	"51"	"224544"	"0.0-5.0-0.0"	"pm88c0"	"600"	"1366"	"chrome"	"109.0.0"	"FALSE"	"Windows 10"	"60.2"	"014"	n/a	n/a	n/a	n/a	n/a	n/a	n/a	n/a	n/a	n/a	n/a	"NULL"	"FALSE"	"list()"	"list()"	"list()"	n/a	n/a	n/a	n/a	n/a	n/a	n/a	n/a	n/a	n/a	n/a
n/a	"html-keyboard-response"	"52"	"229404"	"0.0-5.0-1.0"	"pm88c0"	"600"	"1366"	"chrome"	"109.0.0"	"FALSE"	"Windows 10"	"60.2"	"014"	n/a	n/a	n/a	n/a	n/a	n/a	n/a	n/a	n/a	n/a	"4859"	"enter"	n/a	"NULL"	"NULL"	"NULL"	"<p><b>Part 1/6</b></p><p>In this part, two red circles will appear side by side on the screen.</p><p>Your task is to select which <b>red circle is bigger</b> in size as fast as you can, without making errors.</p><p>Don't get distracted by the surrounding black circles around the red circles!</p><p>Press <b>the LEFT or the RIGHT arrow</b> to indicate which is the bigger <b>red circle.</b></p><div style='float: center'><img src='materials/instructions/Ebbinghaus_Demo.png' height='300'></img><p><img src='utils/answer/answer_leftright_keyboard.PNG' height='150'></img></p><p class='small'>In this example, the correct answer is the <b>LEFT arrow</b>.</p></div><p>Are you ready? <b>Press ENTER to start</b></p>"	n/a	n/a	n/a	n/a	n/a	n/a	n/a	n/a	n/a	n/a
n/a	"html-keyboard-response"	"53"	"231050"	"0.0-5.0-2.0-0.0"	"pm88c0"	"600"	"1366"	"chrome"	"109.0.0"	"FALSE"	"Windows 10"	"60.2"	"014"	n/a	n/a	n/a	n/a	n/a	n/a	"fixation"	n/a	n/a	n/a	n/a	"NULL"	n/a	"NULL"	"NULL"	"NULL"	"<p style=\"color: black; font-size: 80px; padding-left: 6%; padding-right: 34%; padding-top: 9%; padding-bottom: 46%\">+</p>"	"1129"	n/a	n/a	n/a	n/a	n/a	n/a	n/a	n/a	n/a
n/a	"image-keyboard-response"	"54"	"232387"	"0.0-5.0-2.0-1.0"	"pm88c0"	"600"	"1366"	"chrome"	"109.0.0"	"FALSE"	"Windows 10"	"60.2"	"014"	n/a	n/a	n/a	n/a	n/a	n/a	"Trial"	n/a	n/a	n/a	"1336"	"arrowleft"	n/a	"NULL"	"NULL"	"NULL"	"stimuli/Ebbinghaus_0.61429_-0.11071.png"	n/a	"Ebbinghaus"	"arrowright"	"1646"	"FALSE"	"Ebbinghaus"	"0.6142900000"	"-0.110710000"	"1"	"19"
n/a	"html-keyboard-response"	"55"	"233592"	"0.0-5.0-2.0-0.1"	"pm88c0"	"600"	"1366"	"chrome"	"109.0.0"	"FALSE"	"Windows 10"	"60.2"	"014"	n/a	n/a	n/a	n/a	n/a	n/a	"fixation"	n/a	n/a	n/a	n/a	"NULL"	n/a	"NULL"	"NULL"	"NULL"	"<p style=\"color: black; font-size: 80px; padding-left: 48%; padding-right: 34%; padding-top: 8%; padding-bottom: 24%\">+</p>"	"1184"	n/a	n/a	n/a	n/a	n/a	n/a	n/a	n/a	n/a
n/a	"image-keyboard-response"	"56"	"234204"	"0.0-5.0-2.0-1.1"	"pm88c0"	"600"	"1366"	"chrome"	"109.0.0"	"FALSE"	"Windows 10"	"60.2"	"014"	n/a	n/a	n/a	n/a	n/a	n/a	"Trial"	n/a	n/a	n/a	"611"	"arrowright"	n/a	"NULL"	"NULL"	"NULL"	"stimuli/Ebbinghaus_-0.35714_-0.2150.png"	n/a	"Ebbinghaus"	"arrowright"	"1205"	"TRUE"	"Ebbinghaus"	"-0.357140000"	"-0.215000000"	"1"	"20"
n/a	"html-keyboard-response"	"57"	"235517"	"0.0-5.0-2.0-0.2"	"pm88c0"	"600"	"1366"	"chrome"	"109.0.0"	"FALSE"	"Windows 10"	"60.2"	"014"	n/a	n/a	n/a	n/a	n/a	n/a	"fixation"	n/a	n/a	n/a	n/a	"NULL"	n/a	"NULL"	"NULL"	"NULL"	"<p style=\"color: black; font-size: 80px; padding-left: 26%; padding-right: 42%; padding-top: 41%; padding-bottom: 18%\">+</p>"	"1297"	n/a	n/a	n/a	n/a	n/a	n/a	n/a	n/a	n/a
n/a	"image-keyboard-response"	"58"	"236755"	"0.0-5.0-2.0-1.2"	"pm88c0"	"600"	"1366"	"chrome"	"109.0.0"	"FALSE"	"Windows 10"	"60.2"	"014"	n/a	n/a	n/a	n/a	n/a	n/a	"Trial"	n/a	n/a	n/a	"1237"	"arrowleft"	n/a	"NULL"	"NULL"	"NULL"	"stimuli/Ebbinghaus_-0.35714_0.11071.png"	n/a	"Ebbinghaus"	"arrowleft"	"1313"	"TRUE"	"Ebbinghaus"	"-0.357140000"	"0.1107100000"	"1"	"21"
n/a	"html-keyboard-response"	"59"	"237934"	"0.0-5.0-2.0-0.3"	"pm88c0"	"600"	"1366"	"chrome"	"109.0.0"	"FALSE"	"Windows 10"	"60.2"	"014"	n/a	n/a	n/a	n/a	n/a	n/a	"fixation"	n/a	n/a	n/a	n/a	"NULL"	n/a	"NULL"	"NULL"	"NULL"	"<p style=\"color: black; font-size: 80px; padding-left: 21%; padding-right: 30%; padding-top: 32%; padding-bottom: 17%\">+</p>"	"1171"	n/a	n/a	n/a	n/a	n/a	n/a	n/a	n/a	n/a
n/a	"image-keyboard-response"	"60"	"238938"	"0.0-5.0-2.0-1.3"	"pm88c0"	"600"	"1366"	"chrome"	"109.0.0"	"FALSE"	"Windows 10"	"60.2"	"014"	n/a	n/a	n/a	n/a	n/a	n/a	"Trial"	n/a	n/a	n/a	"1003"	"arrowleft"	n/a	"NULL"	"NULL"	"NULL"	"stimuli/Ebbinghaus_-0.1000_0.28000.png"	n/a	"Ebbinghaus"	"arrowleft"	"1179"	"TRUE"	"Ebbinghaus"	"-0.100000000"	"0.2800000000"	"1"	"22"
n/a	"html-keyboard-response"	"61"	"240406"	"0.0-5.0-2.0-0.4"	"pm88c0"	"600"	"1366"	"chrome"	"109.0.0"	"FALSE"	"Windows 10"	"60.2"	"014"	n/a	n/a	n/a	n/a	n/a	n/a	"fixation"	n/a	n/a	n/a	n/a	"NULL"	n/a	"NULL"	"NULL"	"NULL"	"<p style=\"color: black; font-size: 80px; padding-left: 22%; padding-right: 2%; padding-top: 7%; padding-bottom: 33%\">+</p>"	"1450"	n/a	n/a	n/a	n/a	n/a	n/a	n/a	n/a	n/a
n/a	"image-keyboard-response"	"62"	"241430"	"0.0-5.0-2.0-1.4"	"pm88c0"	"600"	"1366"	"chrome"	"109.0.0"	"FALSE"	"Windows 10"	"60.2"	"014"	n/a	n/a	n/a	n/a	n/a	n/a	"Trial"	n/a	n/a	n/a	"1023"	"arrowleft"	n/a	"NULL"	"NULL"	"NULL"	"stimuli/Ebbinghaus_-0.87143_0.11071.png"	n/a	"Ebbinghaus"	"arrowleft"	"1468"	"TRUE"	"Ebbinghaus"	"-0.871430000"	"0.1107100000"	"1"	"23"
n/a	"html-keyboard-response"	"63"	"242486"	"0.0-5.0-2.0-0.5"	"pm88c0"	"600"	"1366"	"chrome"	"109.0.0"	"FALSE"	"Windows 10"	"60.2"	"014"	n/a	n/a	n/a	n/a	n/a	n/a	"fixation"	n/a	n/a	n/a	n/a	"NULL"	n/a	"NULL"	"NULL"	"NULL"	"<p style=\"color: black; font-size: 80px; padding-left: 26%; padding-right: 19%; padding-top: 37%; padding-bottom: 10%\">+</p>"	"1039"	n/a	n/a	n/a	n/a	n/a	n/a	n/a	n/a	n/a
n/a	"image-keyboard-response"	"64"	"243308"	"0.0-5.0-2.0-1.5"	"pm88c0"	"600"	"1366"	"chrome"	"109.0.0"	"FALSE"	"Windows 10"	"60.2"	"014"	n/a	n/a	n/a	n/a	n/a	n/a	"Trial"	n/a	n/a	n/a	"821"	"arrowright"	n/a	"NULL"	"NULL"	"NULL"	"stimuli/Ebbinghaus_0.10000_0.11071.png"	n/a	"Ebbinghaus"	"arrowleft"	"1056"	"FALSE"	"Ebbinghaus"	"0.1000000000"	"0.1107100000"	"1"	"24"
n/a	"html-keyboard-response"	"65"	"244662"	"0.0-5.0-2.0-0.6"	"pm88c0"	"600"	"1366"	"chrome"	"109.0.0"	"FALSE"	"Windows 10"	"60.2"	"014"	n/a	n/a	n/a	n/a	n/a	n/a	"fixation"	n/a	n/a	n/a	n/a	"NULL"	n/a	"NULL"	"NULL"	"NULL"	"<p style=\"color: black; font-size: 80px; padding-left: 4%; padding-right: 32%; padding-top: 6%; padding-bottom: 1%\">+</p>"	"1338"	n/a	n/a	n/a	n/a	n/a	n/a	n/a	n/a	n/a
n/a	"image-keyboard-response"	"66"	"245263"	"0.0-5.0-2.0-1.6"	"pm88c0"	"600"	"1366"	"chrome"	"109.0.0"	"FALSE"	"Windows 10"	"60.2"	"014"	n/a	n/a	n/a	n/a	n/a	n/a	"Trial"	n/a	n/a	n/a	"600"	"arrowright"	n/a	"NULL"	"NULL"	"NULL"	"stimuli/Ebbinghaus_-0.1000_-0.2150.png"	n/a	"Ebbinghaus"	"arrowright"	"1354"	"TRUE"	"Ebbinghaus"	"-0.100000000"	"-0.215000000"	"1"	"25"
n/a	"html-keyboard-response"	"67"	"246579"	"0.0-5.0-2.0-0.7"	"pm88c0"	"600"	"1366"	"chrome"	"109.0.0"	"FALSE"	"Windows 10"	"60.2"	"014"	n/a	n/a	n/a	n/a	n/a	n/a	"fixation"	n/a	n/a	n/a	n/a	"NULL"	n/a	"NULL"	"NULL"	"NULL"	"<p style=\"color: black; font-size: 80px; padding-left: 8%; padding-right: 8%; padding-top: 24%; padding-bottom: 22%\">+</p>"	"1306"	n/a	n/a	n/a	n/a	n/a	n/a	n/a	n/a	n/a
n/a	"image-keyboard-response"	"68"	"247422"	"0.0-5.0-2.0-1.7"	"pm88c0"	"600"	"1366"	"chrome"	"109.0.0"	"FALSE"	"Windows 10"	"60.2"	"014"	n/a	n/a	n/a	n/a	n/a	n/a	"Trial"	n/a	n/a	n/a	"842"	"arrowleft"	n/a	"NULL"	"NULL"	"NULL"	"stimuli/Ebbinghaus_-0.35714_0.21500.png"	n/a	"Ebbinghaus"	"arrowleft"	"1316"	"TRUE"	"Ebbinghaus"	"-0.357140000"	"0.2150000000"	"1"	"26"
n/a	"html-keyboard-response"	"69"	"248484"	"0.0-5.0-2.0-0.8"	"pm88c0"	"600"	"1366"	"chrome"	"109.0.0"	"FALSE"	"Windows 10"	"60.2"	"014"	n/a	n/a	n/a	n/a	n/a	n/a	"fixation"	n/a	n/a	n/a	n/a	"NULL"	n/a	"NULL"	"NULL"	"NULL"	"<p style=\"color: black; font-size: 80px; padding-left: 3%; padding-right: 20%; padding-top: 2%; padding-bottom: 35%\">+</p>"	"1046"	n/a	n/a	n/a	n/a	n/a	n/a	n/a	n/a	n/a
n/a	"image-keyboard-response"	"70"	"249466"	"0.0-5.0-2.0-1.8"	"pm88c0"	"600"	"1366"	"chrome"	"109.0.0"	"FALSE"	"Windows 10"	"60.2"	"014"	n/a	n/a	n/a	n/a	n/a	n/a	"Trial"	n/a	n/a	n/a	"981"	"arrowleft"	n/a	"NULL"	"NULL"	"NULL"	"stimuli/Ebbinghaus_0.61429_0.28000.png"	n/a	"Ebbinghaus"	"arrowleft"	"1062"	"TRUE"	"Ebbinghaus"	"0.6142900000"	"0.2800000000"	"1"	"27"
n/a	"html-keyboard-response"	"71"	"250529"	"0.0-5.0-2.0-0.9"	"pm88c0"	"600"	"1366"	"chrome"	"109.0.0"	"FALSE"	"Windows 10"	"60.2"	"014"	n/a	n/a	n/a	n/a	n/a	n/a	"fixation"	n/a	n/a	n/a	n/a	"NULL"	n/a	"NULL"	"NULL"	"NULL"	"<p style=\"color: black; font-size: 80px; padding-left: 8%; padding-right: 47%; padding-top: 3%; padding-bottom: 23%\">+</p>"	"1042"	n/a	n/a	n/a	n/a	n/a	n/a	n/a	n/a	n/a
n/a	"image-keyboard-response"	"72"	"251225"	"0.0-5.0-2.0-1.9"	"pm88c0"	"600"	"1366"	"chrome"	"109.0.0"	"FALSE"	"Windows 10"	"60.2"	"014"	n/a	n/a	n/a	n/a	n/a	n/a	"Trial"	n/a	n/a	n/a	"696"	"arrowright"	n/a	"NULL"	"NULL"	"NULL"	"stimuli/Ebbinghaus_-0.61429_0.28000.png"	n/a	"Ebbinghaus"	"arrowleft"	"1063"	"FALSE"	"Ebbinghaus"	"-0.614290000"	"0.2800000000"	"1"	"28"
n/a	"html-keyboard-response"	"73"	"252497"	"0.0-5.0-2.0-0.10"	"pm88c0"	"600"	"1366"	"chrome"	"109.0.0"	"FALSE"	"Windows 10"	"60.2"	"014"	n/a	n/a	n/a	n/a	n/a	n/a	"fixation"	n/a	n/a	n/a	n/a	"NULL"	n/a	"NULL"	"NULL"	"NULL"	"<p style=\"color: black; font-size: 80px; padding-left: 10%; padding-right: 32%; padding-top: 37%; padding-bottom: 38%\">+</p>"	"1264"	n/a	n/a	n/a	n/a	n/a	n/a	n/a	n/a	n/a
n/a	"image-keyboard-response"	"74"	"253356"	"0.0-5.0-2.0-1.10"	"pm88c0"	"600"	"1366"	"chrome"	"109.0.0"	"FALSE"	"Windows 10"	"60.2"	"014"	n/a	n/a	n/a	n/a	n/a	n/a	"Trial"	n/a	n/a	n/a	"858"	"arrowleft"	n/a	"NULL"	"NULL"	"NULL"	"stimuli/Ebbinghaus_-0.35714_0.28000.png"	n/a	"Ebbinghaus"	"arrowleft"	"1272"	"TRUE"	"Ebbinghaus"	"-0.357140000"	"0.2800000000"	"1"	"29"
n/a	"html-keyboard-response"	"75"	"254624"	"0.0-5.0-2.0-0.11"	"pm88c0"	"600"	"1366"	"chrome"	"109.0.0"	"FALSE"	"Windows 10"	"60.2"	"014"	n/a	n/a	n/a	n/a	n/a	n/a	"fixation"	n/a	n/a	n/a	n/a	"NULL"	n/a	"NULL"	"NULL"	"NULL"	"<p style=\"color: black; font-size: 80px; padding-left: 50%; padding-right: 5%; padding-top: 34%; padding-bottom: 24%\">+</p>"	"1257"	n/a	n/a	n/a	n/a	n/a	n/a	n/a	n/a	n/a
n/a	"image-keyboard-response"	"76"	"255185"	"0.0-5.0-2.0-1.11"	"pm88c0"	"600"	"1366"	"chrome"	"109.0.0"	"FALSE"	"Windows 10"	"60.2"	"014"	n/a	n/a	n/a	n/a	n/a	n/a	"Trial"	n/a	n/a	n/a	"560"	"arrowright"	n/a	"NULL"	"NULL"	"NULL"	"stimuli/Ebbinghaus_0.35714_0.11071.png"	n/a	"Ebbinghaus"	"arrowleft"	"1268"	"FALSE"	"Ebbinghaus"	"0.3571400000"	"0.1107100000"	"1"	"30"
n/a	"html-keyboard-response"	"77"	"256497"	"0.0-5.0-2.0-0.12"	"pm88c0"	"600"	"1366"	"chrome"	"109.0.0"	"FALSE"	"Windows 10"	"60.2"	"014"	n/a	n/a	n/a	n/a	n/a	n/a	"fixation"	n/a	n/a	n/a	n/a	"NULL"	n/a	"NULL"	"NULL"	"NULL"	"<p style=\"color: black; font-size: 80px; padding-left: 20%; padding-right: 16%; padding-top: 45%; padding-bottom: 20%\">+</p>"	"1299"	n/a	n/a	n/a	n/a	n/a	n/a	n/a	n/a	n/a
n/a	"image-keyboard-response"	"78"	"257157"	"0.0-5.0-2.0-1.12"	"pm88c0"	"600"	"1366"	"chrome"	"109.0.0"	"FALSE"	"Windows 10"	"60.2"	"014"	n/a	n/a	n/a	n/a	n/a	n/a	"Trial"	n/a	n/a	n/a	"660"	"arrowright"	n/a	"NULL"	"NULL"	"NULL"	"stimuli/Ebbinghaus_0.35714_0.28000.png"	n/a	"Ebbinghaus"	"arrowleft"	"1312"	"FALSE"	"Ebbinghaus"	"0.3571400000"	"0.2800000000"	"1"	"31"
n/a	"html-keyboard-response"	"79"	"258187"	"0.0-5.0-2.0-0.13"	"pm88c0"	"600"	"1366"	"chrome"	"109.0.0"	"FALSE"	"Windows 10"	"60.2"	"014"	n/a	n/a	n/a	n/a	n/a	n/a	"fixation"	n/a	n/a	n/a	n/a	"NULL"	n/a	"NULL"	"NULL"	"NULL"	"<p style=\"color: black; font-size: 80px; padding-left: 38%; padding-right: 34%; padding-top: 31%; padding-bottom: 42%\">+</p>"	"1023"	n/a	n/a	n/a	n/a	n/a	n/a	n/a	n/a	n/a
n/a	"image-keyboard-response"	"80"	"258758"	"0.0-5.0-2.0-1.13"	"pm88c0"	"600"	"1366"	"chrome"	"109.0.0"	"FALSE"	"Windows 10"	"60.2"	"014"	n/a	n/a	n/a	n/a	n/a	n/a	"Trial"	n/a	n/a	n/a	"569"	"arrowright"	n/a	"NULL"	"NULL"	"NULL"	"stimuli/Ebbinghaus_0.61429_0.21500.png"	n/a	"Ebbinghaus"	"arrowleft"	"1030"	"FALSE"	"Ebbinghaus"	"0.6142900000"	"0.2150000000"	"1"	"32"
n/a	"html-keyboard-response"	"81"	"259928"	"0.0-5.0-2.0-0.14"	"pm88c0"	"600"	"1366"	"chrome"	"109.0.0"	"FALSE"	"Windows 10"	"60.2"	"014"	n/a	n/a	n/a	n/a	n/a	n/a	"fixation"	n/a	n/a	n/a	n/a	"NULL"	n/a	"NULL"	"NULL"	"NULL"	"<p style=\"color: black; font-size: 80px; padding-left: 9%; padding-right: 14%; padding-top: 9%; padding-bottom: 47%\">+</p>"	"1162"	n/a	n/a	n/a	n/a	n/a	n/a	n/a	n/a	n/a
n/a	"image-keyboard-response"	"82"	"260476"	"0.0-5.0-2.0-1.14"	"pm88c0"	"600"	"1366"	"chrome"	"109.0.0"	"FALSE"	"Windows 10"	"60.2"	"014"	n/a	n/a	n/a	n/a	n/a	n/a	"Trial"	n/a	n/a	n/a	"547"	"arrowright"	n/a	"NULL"	"NULL"	"NULL"	"stimuli/Ebbinghaus_-0.87143_-0.15857.png"	n/a	"Ebbinghaus"	"arrowright"	"1170"	"TRUE"	"Ebbinghaus"	"-0.871430000"	"-0.158570000"	"1"	"33"
n/a	"html-keyboard-response"	"83"	"261705"	"0.0-5.0-2.0-0.15"	"pm88c0"	"600"	"1366"	"chrome"	"109.0.0"	"FALSE"	"Windows 10"	"60.2"	"014"	n/a	n/a	n/a	n/a	n/a	n/a	"fixation"	n/a	n/a	n/a	n/a	"NULL"	n/a	"NULL"	"NULL"	"NULL"	"<p style=\"color: black; font-size: 80px; padding-left: 46%; padding-right: 18%; padding-top: 45%; padding-bottom: 34%\">+</p>"	"1216"	n/a	n/a	n/a	n/a	n/a	n/a	n/a	n/a	n/a
n/a	"image-keyboard-response"	"84"	"262303"	"0.0-5.0-2.0-1.15"	"pm88c0"	"600"	"1366"	"chrome"	"109.0.0"	"FALSE"	"Windows 10"	"60.2"	"014"	n/a	n/a	n/a	n/a	n/a	n/a	"Trial"	n/a	n/a	n/a	"597"	"arrowleft"	n/a	"NULL"	"NULL"	"NULL"	"stimuli/Ebbinghaus_-0.35714_0.15857.png"	n/a	"Ebbinghaus"	"arrowleft"	"1229"	"TRUE"	"Ebbinghaus"	"-0.357140000"	"0.1585700000"	"1"	"34"
n/a	"html-keyboard-response"	"85"	"263545"	"0.0-5.0-2.0-0.16"	"pm88c0"	"600"	"1366"	"chrome"	"109.0.0"	"FALSE"	"Windows 10"	"60.2"	"014"	n/a	n/a	n/a	n/a	n/a	n/a	"fixation"	n/a	n/a	n/a	n/a	"NULL"	n/a	"NULL"	"NULL"	"NULL"	"<p style=\"color: black; font-size: 80px; padding-left: 20%; padding-right: 32%; padding-top: 42%; padding-bottom: 40%\">+</p>"	"1232"	n/a	n/a	n/a	n/a	n/a	n/a	n/a	n/a	n/a
n/a	"image-keyboard-response"	"86"	"264030"	"0.0-5.0-2.0-1.16"	"pm88c0"	"600"	"1366"	"chrome"	"109.0.0"	"FALSE"	"Windows 10"	"60.2"	"014"	n/a	n/a	n/a	n/a	n/a	n/a	"Trial"	n/a	n/a	n/a	"483"	"arrowright"	n/a	"NULL"	"NULL"	"NULL"	"stimuli/Ebbinghaus_-0.61429_-0.2800.png"	n/a	"Ebbinghaus"	"arrowright"	"1242"	"TRUE"	"Ebbinghaus"	"-0.614290000"	"-0.280000000"	"1"	"35"
n/a	"html-keyboard-response"	"87"	"265309"	"0.0-5.0-2.0-0.17"	"pm88c0"	"600"	"1366"	"chrome"	"109.0.0"	"FALSE"	"Windows 10"	"60.2"	"014"	n/a	n/a	n/a	n/a	n/a	n/a	"fixation"	n/a	n/a	n/a	n/a	"NULL"	n/a	"NULL"	"NULL"	"NULL"	"<p style=\"color: black; font-size: 80px; padding-left: 3%; padding-right: 43%; padding-top: 47%; padding-bottom: 15%\">+</p>"	"1265"	n/a	n/a	n/a	n/a	n/a	n/a	n/a	n/a	n/a
n/a	"image-keyboard-response"	"88"	"265797"	"0.0-5.0-2.0-1.17"	"pm88c0"	"600"	"1366"	"chrome"	"109.0.0"	"FALSE"	"Windows 10"	"60.2"	"014"	n/a	n/a	n/a	n/a	n/a	n/a	"Trial"	n/a	n/a	n/a	"486"	"arrowright"	n/a	"NULL"	"NULL"	"NULL"	"stimuli/Ebbinghaus_0.35714_-0.15857.png"	n/a	"Ebbinghaus"	"arrowright"	"1279"	"TRUE"	"Ebbinghaus"	"0.3571400000"	"-0.158570000"	"1"	"36"
n/a	"html-keyboard-response"	"89"	"267280"	"0.0-5.0-2.0-0.18"	"pm88c0"	"600"	"1366"	"chrome"	"109.0.0"	"FALSE"	"Windows 10"	"60.2"	"014"	n/a	n/a	n/a	n/a	n/a	n/a	"fixation"	n/a	n/a	n/a	n/a	"NULL"	n/a	"NULL"	"NULL"	"NULL"	"<p style=\"color: black; font-size: 80px; padding-left: 39%; padding-right: 46%; padding-top: 22%; padding-bottom: 37%\">+</p>"	"1467"	n/a	n/a	n/a	n/a	n/a	n/a	n/a	n/a	n/a
n/a	"image-keyboard-response"	"90"	"267711"	"0.0-5.0-2.0-1.18"	"pm88c0"	"600"	"1366"	"chrome"	"109.0.0"	"FALSE"	"Windows 10"	"60.2"	"014"	n/a	n/a	n/a	n/a	n/a	n/a	"Trial"	n/a	n/a	n/a	"429"	"arrowright"	n/a	"NULL"	"NULL"	"NULL"	"stimuli/Ebbinghaus_0.87143_-0.2800.png"	n/a	"Ebbinghaus"	"arrowright"	"1483"	"TRUE"	"Ebbinghaus"	"0.8714300000"	"-0.280000000"	"1"	"37"
n/a	"html-keyboard-response"	"91"	"269186"	"0.0-5.0-2.0-0.19"	"pm88c0"	"600"	"1366"	"chrome"	"109.0.0"	"FALSE"	"Windows 10"	"60.2"	"014"	n/a	n/a	n/a	n/a	n/a	n/a	"fixation"	n/a	n/a	n/a	n/a	"NULL"	n/a	"NULL"	"NULL"	"NULL"	"<p style=\"color: black; font-size: 80px; padding-left: 38%; padding-right: 15%; padding-top: 17%; padding-bottom: 20%\">+</p>"	"1469"	n/a	n/a	n/a	n/a	n/a	n/a	n/a	n/a	n/a
n/a	"image-keyboard-response"	"92"	"269635"	"0.0-5.0-2.0-1.19"	"pm88c0"	"600"	"1366"	"chrome"	"109.0.0"	"FALSE"	"Windows 10"	"60.2"	"014"	n/a	n/a	n/a	n/a	n/a	n/a	"Trial"	n/a	n/a	n/a	"448"	"arrowright"	n/a	"NULL"	"NULL"	"NULL"	"stimuli/Ebbinghaus_-0.35714_-0.15857.png"	n/a	"Ebbinghaus"	"arrowright"	"1475"	"TRUE"	"Ebbinghaus"	"-0.357140000"	"-0.158570000"	"1"	"38"
n/a	"html-keyboard-response"	"93"	"270829"	"0.0-5.0-2.0-0.20"	"pm88c0"	"600"	"1366"	"chrome"	"109.0.0"	"FALSE"	"Windows 10"	"60.2"	"014"	n/a	n/a	n/a	n/a	n/a	n/a	"fixation"	n/a	n/a	n/a	n/a	"NULL"	n/a	"NULL"	"NULL"	"NULL"	"<p style=\"color: black; font-size: 80px; padding-left: 22%; padding-right: 20%; padding-top: 3%; padding-bottom: 13%\">+</p>"	"1180"	n/a	n/a	n/a	n/a	n/a	n/a	n/a	n/a	n/a
n/a	"image-keyboard-response"	"94"	"271283"	"0.0-5.0-2.0-1.20"	"pm88c0"	"600"	"1366"	"chrome"	"109.0.0"	"FALSE"	"Windows 10"	"60.2"	"014"	n/a	n/a	n/a	n/a	n/a	n/a	"Trial"	n/a	n/a	n/a	"454"	"arrowright"	n/a	"NULL"	"NULL"	"NULL"	"stimuli/Ebbinghaus_-0.1000_-0.2800.png"	n/a	"Ebbinghaus"	"arrowright"	"1194"	"TRUE"	"Ebbinghaus"	"-0.100000000"	"-0.280000000"	"1"	"39"
n/a	"html-keyboard-response"	"95"	"272345"	"0.0-5.0-2.0-0.21"	"pm88c0"	"600"	"1366"	"chrome"	"109.0.0"	"FALSE"	"Windows 10"	"60.2"	"014"	n/a	n/a	n/a	n/a	n/a	n/a	"fixation"	n/a	n/a	n/a	n/a	"NULL"	n/a	"NULL"	"NULL"	"NULL"	"<p style=\"color: black; font-size: 80px; padding-left: 46%; padding-right: 3%; padding-top: 32%; padding-bottom: 30%\">+</p>"	"1051"	n/a	n/a	n/a	n/a	n/a	n/a	n/a	n/a	n/a
n/a	"image-keyboard-response"	"96"	"272916"	"0.0-5.0-2.0-1.21"	"pm88c0"	"600"	"1366"	"chrome"	"109.0.0"	"FALSE"	"Windows 10"	"60.2"	"014"	n/a	n/a	n/a	n/a	n/a	n/a	"Trial"	n/a	n/a	n/a	"570"	"arrowleft"	n/a	"NULL"	"NULL"	"NULL"	"stimuli/Ebbinghaus_-0.1000_0.21500.png"	n/a	"Ebbinghaus"	"arrowleft"	"1062"	"TRUE"	"Ebbinghaus"	"-0.100000000"	"0.2150000000"	"1"	"40"
n/a	"html-keyboard-response"	"97"	"274005"	"0.0-5.0-2.0-0.22"	"pm88c0"	"600"	"1366"	"chrome"	"109.0.0"	"FALSE"	"Windows 10"	"60.2"	"014"	n/a	n/a	n/a	n/a	n/a	n/a	"fixation"	n/a	n/a	n/a	n/a	"NULL"	n/a	"NULL"	"NULL"	"NULL"	"<p style=\"color: black; font-size: 80px; padding-left: 16%; padding-right: 44%; padding-top: 46%; padding-bottom: 25%\">+</p>"	"1083"	n/a	n/a	n/a	n/a	n/a	n/a	n/a	n/a	n/a
n/a	"image-keyboard-response"	"98"	"274533"	"0.0-5.0-2.0-1.22"	"pm88c0"	"600"	"1366"	"chrome"	"109.0.0"	"FALSE"	"Windows 10"	"60.2"	"014"	n/a	n/a	n/a	n/a	n/a	n/a	"Trial"	n/a	n/a	n/a	"527"	"arrowright"	n/a	"NULL"	"NULL"	"NULL"	"stimuli/Ebbinghaus_-0.35714_-0.11071.png"	n/a	"Ebbinghaus"	"arrowright"	"1089"	"TRUE"	"Ebbinghaus"	"-0.357140000"	"-0.110710000"	"1"	"41"
n/a	"html-keyboard-response"	"99"	"275580"	"0.0-5.0-2.0-0.23"	"pm88c0"	"600"	"1366"	"chrome"	"109.0.0"	"FALSE"	"Windows 10"	"60.2"	"014"	n/a	n/a	n/a	n/a	n/a	n/a	"fixation"	n/a	n/a	n/a	n/a	"NULL"	n/a	"NULL"	"NULL"	"NULL"	"<p style=\"color: black; font-size: 80px; padding-left: 43%; padding-right: 28%; padding-top: 16%; padding-bottom: 29%\">+</p>"	"1041"	n/a	n/a	n/a	n/a	n/a	n/a	n/a	n/a	n/a
n/a	"image-keyboard-response"	"100"	"276398"	"0.0-5.0-2.0-1.23"	"pm88c0"	"600"	"1366"	"chrome"	"109.0.0"	"FALSE"	"Windows 10"	"60.2"	"014"	n/a	n/a	n/a	n/a	n/a	n/a	"Trial"	n/a	n/a	n/a	"817"	"arrowleft"	n/a	"NULL"	"NULL"	"NULL"	"stimuli/Ebbinghaus_-0.1000_0.15857.png"	n/a	"Ebbinghaus"	"arrowleft"	"1047"	"TRUE"	"Ebbinghaus"	"-0.100000000"	"0.1585700000"	"1"	"42"
n/a	"html-keyboard-response"	"101"	"277797"	"0.0-5.0-2.0-0.24"	"pm88c0"	"600"	"1366"	"chrome"	"109.0.0"	"FALSE"	"Windows 10"	"60.2"	"014"	n/a	n/a	n/a	n/a	n/a	n/a	"fixation"	n/a	n/a	n/a	n/a	"NULL"	n/a	"NULL"	"NULL"	"NULL"	"<p style=\"color: black; font-size: 80px; padding-left: 45%; padding-right: 34%; padding-top: 48%; padding-bottom: 35%\">+</p>"	"1393"	n/a	n/a	n/a	n/a	n/a	n/a	n/a	n/a	n/a
n/a	"image-keyboard-response"	"102"	"278305"	"0.0-5.0-2.0-1.24"	"pm88c0"	"600"	"1366"	"chrome"	"109.0.0"	"FALSE"	"Windows 10"	"60.2"	"014"	n/a	n/a	n/a	n/a	n/a	n/a	"Trial"	n/a	n/a	n/a	"508"	"arrowright"	n/a	"NULL"	"NULL"	"NULL"	"stimuli/Ebbinghaus_-0.61429_0.21500.png"	n/a	"Ebbinghaus"	"arrowleft"	"1399"	"FALSE"	"Ebbinghaus"	"-0.614290000"	"0.2150000000"	"1"	"43"
n/a	"html-keyboard-response"	"103"	"279448"	"0.0-5.0-2.0-0.25"	"pm88c0"	"600"	"1366"	"chrome"	"109.0.0"	"FALSE"	"Windows 10"	"60.2"	"014"	n/a	n/a	n/a	n/a	n/a	n/a	"fixation"	n/a	n/a	n/a	n/a	"NULL"	n/a	"NULL"	"NULL"	"NULL"	"<p style=\"color: black; font-size: 80px; padding-left: 50%; padding-right: 28%; padding-top: 41%; padding-bottom: 36%\">+</p>"	"1125"	n/a	n/a	n/a	n/a	n/a	n/a	n/a	n/a	n/a
n/a	"image-keyboard-response"	"104"	"279979"	"0.0-5.0-2.0-1.25"	"pm88c0"	"600"	"1366"	"chrome"	"109.0.0"	"FALSE"	"Windows 10"	"60.2"	"014"	n/a	n/a	n/a	n/a	n/a	n/a	"Trial"	n/a	n/a	n/a	"530"	"arrowright"	n/a	"NULL"	"NULL"	"NULL"	"stimuli/Ebbinghaus_0.87143_-0.11071.png"	n/a	"Ebbinghaus"	"arrowright"	"1143"	"TRUE"	"Ebbinghaus"	"0.8714300000"	"-0.110710000"	"1"	"44"
n/a	"html-keyboard-response"	"105"	"281053"	"0.0-5.0-2.0-0.26"	"pm88c0"	"600"	"1366"	"chrome"	"109.0.0"	"FALSE"	"Windows 10"	"60.2"	"014"	n/a	n/a	n/a	n/a	n/a	n/a	"fixation"	n/a	n/a	n/a	n/a	"NULL"	n/a	"NULL"	"NULL"	"NULL"	"<p style=\"color: black; font-size: 80px; padding-left: 13%; padding-right: 39%; padding-top: 25%; padding-bottom: 28%\">+</p>"	"1060"	n/a	n/a	n/a	n/a	n/a	n/a	n/a	n/a	n/a
n/a	"image-keyboard-response"	"106"	"281804"	"0.0-5.0-2.0-1.26"	"pm88c0"	"600"	"1366"	"chrome"	"109.0.0"	"FALSE"	"Windows 10"	"60.2"	"014"	n/a	n/a	n/a	n/a	n/a	n/a	"Trial"	n/a	n/a	n/a	"751"	"arrowright"	n/a	"NULL"	"NULL"	"NULL"	"stimuli/Ebbinghaus_0.61429_0.11071.png"	n/a	"Ebbinghaus"	"arrowleft"	"1074"	"FALSE"	"Ebbinghaus"	"0.6142900000"	"0.1107100000"	"1"	"45"
n/a	"html-keyboard-response"	"107"	"282853"	"0.0-5.0-2.0-0.27"	"pm88c0"	"600"	"1366"	"chrome"	"109.0.0"	"FALSE"	"Windows 10"	"60.2"	"014"	n/a	n/a	n/a	n/a	n/a	n/a	"fixation"	n/a	n/a	n/a	n/a	"NULL"	n/a	"NULL"	"NULL"	"NULL"	"<p style=\"color: black; font-size: 80px; padding-left: 19%; padding-right: 2%; padding-top: 16%; padding-bottom: 19%\">+</p>"	"1043"	n/a	n/a	n/a	n/a	n/a	n/a	n/a	n/a	n/a
n/a	"image-keyboard-response"	"108"	"283374"	"0.0-5.0-2.0-1.27"	"pm88c0"	"600"	"1366"	"chrome"	"109.0.0"	"FALSE"	"Windows 10"	"60.2"	"014"	n/a	n/a	n/a	n/a	n/a	n/a	"Trial"	n/a	n/a	n/a	"521"	"arrowright"	n/a	"NULL"	"NULL"	"NULL"	"stimuli/Ebbinghaus_0.87143_0.28000.png"	n/a	"Ebbinghaus"	"arrowleft"	"1049"	"FALSE"	"Ebbinghaus"	"0.8714300000"	"0.2800000000"	"1"	"46"
n/a	"html-keyboard-response"	"109"	"284747"	"0.0-5.0-2.0-0.28"	"pm88c0"	"600"	"1366"	"chrome"	"109.0.0"	"FALSE"	"Windows 10"	"60.2"	"014"	n/a	n/a	n/a	n/a	n/a	n/a	"fixation"	n/a	n/a	n/a	n/a	"NULL"	n/a	"NULL"	"NULL"	"NULL"	"<p style=\"color: black; font-size: 80px; padding-left: 22%; padding-right: 33%; padding-top: 33%; padding-bottom: 43%\">+</p>"	"1355"	n/a	n/a	n/a	n/a	n/a	n/a	n/a	n/a	n/a
n/a	"image-keyboard-response"	"110"	"285573"	"0.0-5.0-2.0-1.28"	"pm88c0"	"600"	"1366"	"chrome"	"109.0.0"	"FALSE"	"Windows 10"	"60.2"	"014"	n/a	n/a	n/a	n/a	n/a	n/a	"Trial"	n/a	n/a	n/a	"825"	"arrowleft"	n/a	"NULL"	"NULL"	"NULL"	"stimuli/Ebbinghaus_-0.61429_0.11071.png"	n/a	"Ebbinghaus"	"arrowleft"	"1373"	"TRUE"	"Ebbinghaus"	"-0.614290000"	"0.1107100000"	"1"	"47"
n/a	"html-keyboard-response"	"111"	"286826"	"0.0-5.0-2.0-0.29"	"pm88c0"	"600"	"1366"	"chrome"	"109.0.0"	"FALSE"	"Windows 10"	"60.2"	"014"	n/a	n/a	n/a	n/a	n/a	n/a	"fixation"	n/a	n/a	n/a	n/a	"NULL"	n/a	"NULL"	"NULL"	"NULL"	"<p style=\"color: black; font-size: 80px; padding-left: 29%; padding-right: 25%; padding-top: 24%; padding-bottom: 21%\">+</p>"	"1246"	n/a	n/a	n/a	n/a	n/a	n/a	n/a	n/a	n/a
n/a	"image-keyboard-response"	"112"	"287369"	"0.0-5.0-2.0-1.29"	"pm88c0"	"600"	"1366"	"chrome"	"109.0.0"	"FALSE"	"Windows 10"	"60.2"	"014"	n/a	n/a	n/a	n/a	n/a	n/a	"Trial"	n/a	n/a	n/a	"543"	"arrowright"	n/a	"NULL"	"NULL"	"NULL"	"stimuli/Ebbinghaus_0.35714_-0.11071.png"	n/a	"Ebbinghaus"	"arrowright"	"1253"	"TRUE"	"Ebbinghaus"	"0.3571400000"	"-0.110710000"	"1"	"48"
n/a	"html-keyboard-response"	"113"	"288686"	"0.0-5.0-2.0-0.30"	"pm88c0"	"600"	"1366"	"chrome"	"109.0.0"	"FALSE"	"Windows 10"	"60.2"	"014"	n/a	n/a	n/a	n/a	n/a	n/a	"fixation"	n/a	n/a	n/a	n/a	"NULL"	n/a	"NULL"	"NULL"	"NULL"	"<p style=\"color: black; font-size: 80px; padding-left: 31%; padding-right: 47%; padding-top: 10%; padding-bottom: 4%\">+</p>"	"1295"	n/a	n/a	n/a	n/a	n/a	n/a	n/a	n/a	n/a
n/a	"image-keyboard-response"	"114"	"289274"	"0.0-5.0-2.0-1.30"	"pm88c0"	"600"	"1366"	"chrome"	"109.0.0"	"FALSE"	"Windows 10"	"60.2"	"014"	n/a	n/a	n/a	n/a	n/a	n/a	"Trial"	n/a	n/a	n/a	"586"	"arrowright"	n/a	"NULL"	"NULL"	"NULL"	"stimuli/Ebbinghaus_0.35714_0.15857.png"	n/a	"Ebbinghaus"	"arrowleft"	"1317"	"FALSE"	"Ebbinghaus"	"0.3571400000"	"0.1585700000"	"1"	"49"
n/a	"html-keyboard-response"	"115"	"290702"	"0.0-5.0-2.0-0.31"	"pm88c0"	"600"	"1366"	"chrome"	"109.0.0"	"FALSE"	"Windows 10"	"60.2"	"014"	n/a	n/a	n/a	n/a	n/a	n/a	"fixation"	n/a	n/a	n/a	n/a	"NULL"	n/a	"NULL"	"NULL"	"NULL"	"<p style=\"color: black; font-size: 80px; padding-left: 26%; padding-right: 36%; padding-top: 39%; padding-bottom: 21%\">+</p>"	"1418"	n/a	n/a	n/a	n/a	n/a	n/a	n/a	n/a	n/a
n/a	"image-keyboard-response"	"116"	"291505"	"0.0-5.0-2.0-1.31"	"pm88c0"	"600"	"1366"	"chrome"	"109.0.0"	"FALSE"	"Windows 10"	"60.2"	"014"	n/a	n/a	n/a	n/a	n/a	n/a	"Trial"	n/a	n/a	n/a	"802"	"arrowleft"	n/a	"NULL"	"NULL"	"NULL"	"stimuli/Ebbinghaus_-0.87143_0.15857.png"	n/a	"Ebbinghaus"	"arrowleft"	"1428"	"TRUE"	"Ebbinghaus"	"-0.871430000"	"0.1585700000"	"1"	"50"
n/a	"html-keyboard-response"	"117"	"292887"	"0.0-5.0-2.0-0.32"	"pm88c0"	"600"	"1366"	"chrome"	"109.0.0"	"FALSE"	"Windows 10"	"60.2"	"014"	n/a	n/a	n/a	n/a	n/a	n/a	"fixation"	n/a	n/a	n/a	n/a	"NULL"	n/a	"NULL"	"NULL"	"NULL"	"<p style=\"color: black; font-size: 80px; padding-left: 10%; padding-right: 7%; padding-top: 42%; padding-bottom: 26%\">+</p>"	"1368"	n/a	n/a	n/a	n/a	n/a	n/a	n/a	n/a	n/a
n/a	"image-keyboard-response"	"118"	"293441"	"0.0-5.0-2.0-1.32"	"pm88c0"	"600"	"1366"	"chrome"	"109.0.0"	"FALSE"	"Windows 10"	"60.2"	"014"	n/a	n/a	n/a	n/a	n/a	n/a	"Trial"	n/a	n/a	n/a	"553"	"arrowright"	n/a	"NULL"	"NULL"	"NULL"	"stimuli/Ebbinghaus_-0.87143_-0.2150.png"	n/a	"Ebbinghaus"	"arrowright"	"1382"	"TRUE"	"Ebbinghaus"	"-0.871430000"	"-0.215000000"	"1"	"51"
n/a	"html-keyboard-response"	"119"	"294653"	"0.0-5.0-2.0-0.33"	"pm88c0"	"600"	"1366"	"chrome"	"109.0.0"	"FALSE"	"Windows 10"	"60.2"	"014"	n/a	n/a	n/a	n/a	n/a	n/a	"fixation"	n/a	n/a	n/a	n/a	"NULL"	n/a	"NULL"	"NULL"	"NULL"	"<p style=\"color: black; font-size: 80px; padding-left: 34%; padding-right: 13%; padding-top: 2%; padding-bottom: 49%\">+</p>"	"1196"	n/a	n/a	n/a	n/a	n/a	n/a	n/a	n/a	n/a
n/a	"image-keyboard-response"	"120"	"295243"	"0.0-5.0-2.0-1.33"	"pm88c0"	"600"	"1366"	"chrome"	"109.0.0"	"FALSE"	"Windows 10"	"60.2"	"014"	n/a	n/a	n/a	n/a	n/a	n/a	"Trial"	n/a	n/a	n/a	"585"	"arrowright"	n/a	"NULL"	"NULL"	"NULL"	"stimuli/Ebbinghaus_-0.61429_-0.2150.png"	n/a	"Ebbinghaus"	"arrowright"	"1212"	"TRUE"	"Ebbinghaus"	"-0.614290000"	"-0.215000000"	"1"	"52"
n/a	"html-keyboard-response"	"121"	"296577"	"0.0-5.0-2.0-0.34"	"pm88c0"	"600"	"1366"	"chrome"	"109.0.0"	"FALSE"	"Windows 10"	"60.2"	"014"	n/a	n/a	n/a	n/a	n/a	n/a	"fixation"	n/a	n/a	n/a	n/a	"NULL"	n/a	"NULL"	"NULL"	"NULL"	"<p style=\"color: black; font-size: 80px; padding-left: 36%; padding-right: 15%; padding-top: 46%; padding-bottom: 20%\">+</p>"	"1319"	n/a	n/a	n/a	n/a	n/a	n/a	n/a	n/a	n/a
n/a	"image-keyboard-response"	"122"	"297146"	"0.0-5.0-2.0-1.34"	"pm88c0"	"600"	"1366"	"chrome"	"109.0.0"	"FALSE"	"Windows 10"	"60.2"	"014"	n/a	n/a	n/a	n/a	n/a	n/a	"Trial"	n/a	n/a	n/a	"568"	"arrowright"	n/a	"NULL"	"NULL"	"NULL"	"stimuli/Ebbinghaus_0.35714_-0.2150.png"	n/a	"Ebbinghaus"	"arrowright"	"1334"	"TRUE"	"Ebbinghaus"	"0.3571400000"	"-0.215000000"	"1"	"53"
n/a	"html-keyboard-response"	"123"	"298167"	"0.0-5.0-2.0-0.35"	"pm88c0"	"600"	"1366"	"chrome"	"109.0.0"	"FALSE"	"Windows 10"	"60.2"	"014"	n/a	n/a	n/a	n/a	n/a	n/a	"fixation"	n/a	n/a	n/a	n/a	"NULL"	n/a	"NULL"	"NULL"	"NULL"	"<p style=\"color: black; font-size: 80px; padding-left: 47%; padding-right: 41%; padding-top: 33%; padding-bottom: 37%\">+</p>"	"1009"	n/a	n/a	n/a	n/a	n/a	n/a	n/a	n/a	n/a
n/a	"image-keyboard-response"	"124"	"298723"	"0.0-5.0-2.0-1.35"	"pm88c0"	"600"	"1366"	"chrome"	"109.0.0"	"FALSE"	"Windows 10"	"60.2"	"014"	n/a	n/a	n/a	n/a	n/a	n/a	"Trial"	n/a	n/a	n/a	"555"	"arrowleft"	n/a	"NULL"	"NULL"	"NULL"	"stimuli/Ebbinghaus_-0.87143_0.21500.png"	n/a	"Ebbinghaus"	"arrowleft"	"1021"	"TRUE"	"Ebbinghaus"	"-0.871430000"	"0.2150000000"	"1"	"54"
n/a	"html-keyboard-response"	"125"	"299962"	"0.0-5.0-2.0-0.36"	"pm88c0"	"600"	"1366"	"chrome"	"109.0.0"	"FALSE"	"Windows 10"	"60.2"	"014"	n/a	n/a	n/a	n/a	n/a	n/a	"fixation"	n/a	n/a	n/a	n/a	"NULL"	n/a	"NULL"	"NULL"	"NULL"	"<p style=\"color: black; font-size: 80px; padding-left: 16%; padding-right: 34%; padding-top: 7%; padding-bottom: 29%\">+</p>"	"1232"	n/a	n/a	n/a	n/a	n/a	n/a	n/a	n/a	n/a
n/a	"image-keyboard-response"	"126"	"300452"	"0.0-5.0-2.0-1.36"	"pm88c0"	"600"	"1366"	"chrome"	"109.0.0"	"FALSE"	"Windows 10"	"60.2"	"014"	n/a	n/a	n/a	n/a	n/a	n/a	"Trial"	n/a	n/a	n/a	"490"	"arrowright"	n/a	"NULL"	"NULL"	"NULL"	"stimuli/Ebbinghaus_0.87143_-0.15857.png"	n/a	"Ebbinghaus"	"arrowright"	"1239"	"TRUE"	"Ebbinghaus"	"0.8714300000"	"-0.158570000"	"1"	"55"
n/a	"html-keyboard-response"	"127"	"301928"	"0.0-5.0-2.0-0.37"	"pm88c0"	"600"	"1366"	"chrome"	"109.0.0"	"FALSE"	"Windows 10"	"60.2"	"014"	n/a	n/a	n/a	n/a	n/a	n/a	"fixation"	n/a	n/a	n/a	n/a	"NULL"	n/a	"NULL"	"NULL"	"NULL"	"<p style=\"color: black; font-size: 80px; padding-left: 1%; padding-right: 47%; padding-top: 48%; padding-bottom: 32%\">+</p>"	"1465"	n/a	n/a	n/a	n/a	n/a	n/a	n/a	n/a	n/a
n/a	"image-keyboard-response"	"128"	"302934"	"0.0-5.0-2.0-1.37"	"pm88c0"	"600"	"1366"	"chrome"	"109.0.0"	"FALSE"	"Windows 10"	"60.2"	"014"	n/a	n/a	n/a	n/a	n/a	n/a	"Trial"	n/a	n/a	n/a	"1006"	"arrowleft"	n/a	"NULL"	"NULL"	"NULL"	"stimuli/Ebbinghaus_0.87143_0.15857.png"	n/a	"Ebbinghaus"	"arrowleft"	"1476"	"TRUE"	"Ebbinghaus"	"0.8714300000"	"0.1585700000"	"1"	"56"
n/a	"html-keyboard-response"	"129"	"304204"	"0.0-5.0-2.0-0.38"	"pm88c0"	"600"	"1366"	"chrome"	"109.0.0"	"FALSE"	"Windows 10"	"60.2"	"014"	n/a	n/a	n/a	n/a	n/a	n/a	"fixation"	n/a	n/a	n/a	n/a	"NULL"	n/a	"NULL"	"NULL"	"NULL"	"<p style=\"color: black; font-size: 80px; padding-left: 42%; padding-right: 50%; padding-top: 2%; padding-bottom: 49%\">+</p>"	"1256"	n/a	n/a	n/a	n/a	n/a	n/a	n/a	n/a	n/a
n/a	"image-keyboard-response"	"130"	"304712"	"0.0-5.0-2.0-1.38"	"pm88c0"	"600"	"1366"	"chrome"	"109.0.0"	"FALSE"	"Windows 10"	"60.2"	"014"	n/a	n/a	n/a	n/a	n/a	n/a	"Trial"	n/a	n/a	n/a	"508"	"arrowright"	n/a	"NULL"	"NULL"	"NULL"	"stimuli/Ebbinghaus_-0.35714_-0.2800.png"	n/a	"Ebbinghaus"	"arrowright"	"1270"	"TRUE"	"Ebbinghaus"	"-0.357140000"	"-0.280000000"	"1"	"57"
n/a	"html-keyboard-response"	"131"	"305836"	"0.0-5.0-2.0-0.39"	"pm88c0"	"600"	"1366"	"chrome"	"109.0.0"	"FALSE"	"Windows 10"	"60.2"	"014"	n/a	n/a	n/a	n/a	n/a	n/a	"fixation"	n/a	n/a	n/a	n/a	"NULL"	n/a	"NULL"	"NULL"	"NULL"	"<p style=\"color: black; font-size: 80px; padding-left: 34%; padding-right: 45%; padding-top: 27%; padding-bottom: 4%\">+</p>"	"1115"	n/a	n/a	n/a	n/a	n/a	n/a	n/a	n/a	n/a
n/a	"image-keyboard-response"	"132"	"306653"	"0.0-5.0-2.0-1.39"	"pm88c0"	"600"	"1366"	"chrome"	"109.0.0"	"FALSE"	"Windows 10"	"60.2"	"014"	n/a	n/a	n/a	n/a	n/a	n/a	"Trial"	n/a	n/a	n/a	"816"	"arrowright"	n/a	"NULL"	"NULL"	"NULL"	"stimuli/Ebbinghaus_-0.1000_0.11071.png"	n/a	"Ebbinghaus"	"arrowleft"	"1124"	"FALSE"	"Ebbinghaus"	"-0.100000000"	"0.1107100000"	"1"	"58"
n/a	"html-keyboard-response"	"133"	"308092"	"0.0-5.0-2.0-0.40"	"pm88c0"	"600"	"1366"	"chrome"	"109.0.0"	"FALSE"	"Windows 10"	"60.2"	"014"	n/a	n/a	n/a	n/a	n/a	n/a	"fixation"	n/a	n/a	n/a	n/a	"NULL"	n/a	"NULL"	"NULL"	"NULL"	"<p style=\"color: black; font-size: 80px; padding-left: 12%; padding-right: 26%; padding-top: 19%; padding-bottom: 0%\">+</p>"	"1434"	n/a	n/a	n/a	n/a	n/a	n/a	n/a	n/a	n/a
n/a	"image-keyboard-response"	"134"	"308823"	"0.0-5.0-2.0-1.40"	"pm88c0"	"600"	"1366"	"chrome"	"109.0.0"	"FALSE"	"Windows 10"	"60.2"	"014"	n/a	n/a	n/a	n/a	n/a	n/a	"Trial"	n/a	n/a	n/a	"729"	"arrowright"	n/a	"NULL"	"NULL"	"NULL"	"stimuli/Ebbinghaus_0.87143_0.11071.png"	n/a	"Ebbinghaus"	"arrowleft"	"1439"	"FALSE"	"Ebbinghaus"	"0.8714300000"	"0.1107100000"	"1"	"59"
n/a	"html-keyboard-response"	"135"	"310172"	"0.0-5.0-2.0-0.41"	"pm88c0"	"600"	"1366"	"chrome"	"109.0.0"	"FALSE"	"Windows 10"	"60.2"	"014"	n/a	n/a	n/a	n/a	n/a	n/a	"fixation"	n/a	n/a	n/a	n/a	"NULL"	n/a	"NULL"	"NULL"	"NULL"	"<p style=\"color: black; font-size: 80px; padding-left: 46%; padding-right: 16%; padding-top: 34%; padding-bottom: 29%\">+</p>"	"1335"	n/a	n/a	n/a	n/a	n/a	n/a	n/a	n/a	n/a
n/a	"image-keyboard-response"	"136"	"310726"	"0.0-5.0-2.0-1.41"	"pm88c0"	"600"	"1366"	"chrome"	"109.0.0"	"FALSE"	"Windows 10"	"60.2"	"014"	n/a	n/a	n/a	n/a	n/a	n/a	"Trial"	n/a	n/a	n/a	"553"	"arrowleft"	n/a	"NULL"	"NULL"	"NULL"	"stimuli/Ebbinghaus_-0.87143_0.28000.png"	n/a	"Ebbinghaus"	"arrowleft"	"1349"	"TRUE"	"Ebbinghaus"	"-0.871430000"	"0.2800000000"	"1"	"60"
n/a	"html-keyboard-response"	"137"	"312062"	"0.0-5.0-2.0-0.42"	"pm88c0"	"600"	"1366"	"chrome"	"109.0.0"	"FALSE"	"Windows 10"	"60.2"	"014"	n/a	n/a	n/a	n/a	n/a	n/a	"fixation"	n/a	n/a	n/a	n/a	"NULL"	n/a	"NULL"	"NULL"	"NULL"	"<p style=\"color: black; font-size: 80px; padding-left: 38%; padding-right: 36%; padding-top: 9%; padding-bottom: 13%\">+</p>"	"1319"	n/a	n/a	n/a	n/a	n/a	n/a	n/a	n/a	n/a
n/a	"image-keyboard-response"	"138"	"312552"	"0.0-5.0-2.0-1.42"	"pm88c0"	"600"	"1366"	"chrome"	"109.0.0"	"FALSE"	"Windows 10"	"60.2"	"014"	n/a	n/a	n/a	n/a	n/a	n/a	"Trial"	n/a	n/a	n/a	"489"	"arrowright"	n/a	"NULL"	"NULL"	"NULL"	"stimuli/Ebbinghaus_-0.61429_-0.15857.png"	n/a	"Ebbinghaus"	"arrowright"	"1336"	"TRUE"	"Ebbinghaus"	"-0.614290000"	"-0.158570000"	"1"	"61"
n/a	"html-keyboard-response"	"139"	"313765"	"0.0-5.0-2.0-0.43"	"pm88c0"	"600"	"1366"	"chrome"	"109.0.0"	"FALSE"	"Windows 10"	"60.2"	"014"	n/a	n/a	n/a	n/a	n/a	n/a	"fixation"	n/a	n/a	n/a	n/a	"NULL"	n/a	"NULL"	"NULL"	"NULL"	"<p style=\"color: black; font-size: 80px; padding-left: 23%; padding-right: 10%; padding-top: 21%; padding-bottom: 47%\">+</p>"	"1206"	n/a	n/a	n/a	n/a	n/a	n/a	n/a	n/a	n/a
n/a	"image-keyboard-response"	"140"	"314397"	"0.0-5.0-2.0-1.43"	"pm88c0"	"600"	"1366"	"chrome"	"109.0.0"	"FALSE"	"Windows 10"	"60.2"	"014"	n/a	n/a	n/a	n/a	n/a	n/a	"Trial"	n/a	n/a	n/a	"630"	"arrowright"	n/a	"NULL"	"NULL"	"NULL"	"stimuli/Ebbinghaus_0.10000_-0.2150.png"	n/a	"Ebbinghaus"	"arrowright"	"1213"	"TRUE"	"Ebbinghaus"	"0.1000000000"	"-0.215000000"	"1"	"62"
n/a	"html-keyboard-response"	"141"	"315670"	"0.0-5.0-2.0-0.44"	"pm88c0"	"600"	"1366"	"chrome"	"109.0.0"	"FALSE"	"Windows 10"	"60.2"	"014"	n/a	n/a	n/a	n/a	n/a	n/a	"fixation"	n/a	n/a	n/a	n/a	"NULL"	n/a	"NULL"	"NULL"	"NULL"	"<p style=\"color: black; font-size: 80px; padding-left: 19%; padding-right: 20%; padding-top: 48%; padding-bottom: 49%\">+</p>"	"1254"	n/a	n/a	n/a	n/a	n/a	n/a	n/a	n/a	n/a
n/a	"image-keyboard-response"	"142"	"316458"	"0.0-5.0-2.0-1.44"	"pm88c0"	"600"	"1366"	"chrome"	"109.0.0"	"FALSE"	"Windows 10"	"60.2"	"014"	n/a	n/a	n/a	n/a	n/a	n/a	"Trial"	n/a	n/a	n/a	"787"	"arrowleft"	n/a	"NULL"	"NULL"	"NULL"	"stimuli/Ebbinghaus_0.35714_0.21500.png"	n/a	"Ebbinghaus"	"arrowleft"	"1273"	"TRUE"	"Ebbinghaus"	"0.3571400000"	"0.2150000000"	"1"	"63"
n/a	"html-keyboard-response"	"143"	"317749"	"0.0-5.0-2.0-0.45"	"pm88c0"	"600"	"1366"	"chrome"	"109.0.0"	"FALSE"	"Windows 10"	"60.2"	"014"	n/a	n/a	n/a	n/a	n/a	n/a	"fixation"	n/a	n/a	n/a	n/a	"NULL"	n/a	"NULL"	"NULL"	"NULL"	"<p style=\"color: black; font-size: 80px; padding-left: 41%; padding-right: 4%; padding-top: 9%; padding-bottom: 30%\">+</p>"	"1283"	n/a	n/a	n/a	n/a	n/a	n/a	n/a	n/a	n/a
n/a	"image-keyboard-response"	"144"	"318218"	"0.0-5.0-2.0-1.45"	"pm88c0"	"600"	"1366"	"chrome"	"109.0.0"	"FALSE"	"Windows 10"	"60.2"	"014"	n/a	n/a	n/a	n/a	n/a	n/a	"Trial"	n/a	n/a	n/a	"468"	"arrowright"	n/a	"NULL"	"NULL"	"NULL"	"stimuli/Ebbinghaus_0.10000_-0.15857.png"	n/a	"Ebbinghaus"	"arrowright"	"1291"	"TRUE"	"Ebbinghaus"	"0.1000000000"	"-0.158570000"	"1"	"64"
n/a	"html-keyboard-response"	"145"	"319390"	"0.0-5.0-2.0-0.46"	"pm88c0"	"600"	"1366"	"chrome"	"109.0.0"	"FALSE"	"Windows 10"	"60.2"	"014"	n/a	n/a	n/a	n/a	n/a	n/a	"fixation"	n/a	n/a	n/a	n/a	"NULL"	n/a	"NULL"	"NULL"	"NULL"	"<p style=\"color: black; font-size: 80px; padding-left: 16%; padding-right: 3%; padding-top: 14%; padding-bottom: 49%\">+</p>"	"1154"	n/a	n/a	n/a	n/a	n/a	n/a	n/a	n/a	n/a
n/a	"image-keyboard-response"	"146"	"319947"	"0.0-5.0-2.0-1.46"	"pm88c0"	"600"	"1366"	"chrome"	"109.0.0"	"FALSE"	"Windows 10"	"60.2"	"014"	n/a	n/a	n/a	n/a	n/a	n/a	"Trial"	n/a	n/a	n/a	"556"	"arrowright"	n/a	"NULL"	"NULL"	"NULL"	"stimuli/Ebbinghaus_-0.1000_-0.11071.png"	n/a	"Ebbinghaus"	"arrowright"	"1172"	"TRUE"	"Ebbinghaus"	"-0.100000000"	"-0.110710000"	"1"	"65"
n/a	"html-keyboard-response"	"147"	"321240"	"0.0-5.0-2.0-0.47"	"pm88c0"	"600"	"1366"	"chrome"	"109.0.0"	"FALSE"	"Windows 10"	"60.2"	"014"	n/a	n/a	n/a	n/a	n/a	n/a	"fixation"	n/a	n/a	n/a	n/a	"NULL"	n/a	"NULL"	"NULL"	"NULL"	"<p style=\"color: black; font-size: 80px; padding-left: 7%; padding-right: 12%; padding-top: 46%; padding-bottom: 41%\">+</p>"	"1274"	n/a	n/a	n/a	n/a	n/a	n/a	n/a	n/a	n/a
n/a	"image-keyboard-response"	"148"	"321940"	"0.0-5.0-2.0-1.47"	"pm88c0"	"600"	"1366"	"chrome"	"109.0.0"	"FALSE"	"Windows 10"	"60.2"	"014"	n/a	n/a	n/a	n/a	n/a	n/a	"Trial"	n/a	n/a	n/a	"699"	"arrowleft"	n/a	"NULL"	"NULL"	"NULL"	"stimuli/Ebbinghaus_0.61429_0.15857.png"	n/a	"Ebbinghaus"	"arrowleft"	"1293"	"TRUE"	"Ebbinghaus"	"0.6142900000"	"0.1585700000"	"1"	"66"
n/a	"html-keyboard-response"	"149"	"323306"	"0.0-5.0-2.0-0.48"	"pm88c0"	"600"	"1366"	"chrome"	"109.0.0"	"FALSE"	"Windows 10"	"60.2"	"014"	n/a	n/a	n/a	n/a	n/a	n/a	"fixation"	n/a	n/a	n/a	n/a	"NULL"	n/a	"NULL"	"NULL"	"NULL"	"<p style=\"color: black; font-size: 80px; padding-left: 32%; padding-right: 32%; padding-top: 24%; padding-bottom: 49%\">+</p>"	"1353"	n/a	n/a	n/a	n/a	n/a	n/a	n/a	n/a	n/a
n/a	"image-keyboard-response"	"150"	"323751"	"0.0-5.0-2.0-1.48"	"pm88c0"	"600"	"1366"	"chrome"	"109.0.0"	"FALSE"	"Windows 10"	"60.2"	"014"	n/a	n/a	n/a	n/a	n/a	n/a	"Trial"	n/a	n/a	n/a	"444"	"arrowright"	n/a	"NULL"	"NULL"	"NULL"	"stimuli/Ebbinghaus_0.87143_-0.2150.png"	n/a	"Ebbinghaus"	"arrowright"	"1366"	"TRUE"	"Ebbinghaus"	"0.8714300000"	"-0.215000000"	"1"	"67"
n/a	"html-keyboard-response"	"151"	"325155"	"0.0-5.0-2.0-0.49"	"pm88c0"	"600"	"1366"	"chrome"	"109.0.0"	"FALSE"	"Windows 10"	"60.2"	"014"	n/a	n/a	n/a	n/a	n/a	n/a	"fixation"	n/a	n/a	n/a	n/a	"NULL"	n/a	"NULL"	"NULL"	"NULL"	"<p style=\"color: black; font-size: 80px; padding-left: 45%; padding-right: 32%; padding-top: 23%; padding-bottom: 40%\">+</p>"	"1386"	n/a	n/a	n/a	n/a	n/a	n/a	n/a	n/a	n/a
n/a	"image-keyboard-response"	"152"	"325697"	"0.0-5.0-2.0-1.49"	"pm88c0"	"600"	"1366"	"chrome"	"109.0.0"	"FALSE"	"Windows 10"	"60.2"	"014"	n/a	n/a	n/a	n/a	n/a	n/a	"Trial"	n/a	n/a	n/a	"541"	"arrowright"	n/a	"NULL"	"NULL"	"NULL"	"stimuli/Ebbinghaus_-0.87143_-0.2800.png"	n/a	"Ebbinghaus"	"arrowright"	"1404"	"TRUE"	"Ebbinghaus"	"-0.871430000"	"-0.280000000"	"1"	"68"
n/a	"html-keyboard-response"	"153"	"326921"	"0.0-5.0-2.0-0.50"	"pm88c0"	"600"	"1366"	"chrome"	"109.0.0"	"FALSE"	"Windows 10"	"60.2"	"014"	n/a	n/a	n/a	n/a	n/a	n/a	"fixation"	n/a	n/a	n/a	n/a	"NULL"	n/a	"NULL"	"NULL"	"NULL"	"<p style=\"color: black; font-size: 80px; padding-left: 36%; padding-right: 29%; padding-top: 31%; padding-bottom: 31%\">+</p>"	"1209"	n/a	n/a	n/a	n/a	n/a	n/a	n/a	n/a	n/a
n/a	"image-keyboard-response"	"154"	"327506"	"0.0-5.0-2.0-1.50"	"pm88c0"	"600"	"1366"	"chrome"	"109.0.0"	"FALSE"	"Windows 10"	"60.2"	"014"	n/a	n/a	n/a	n/a	n/a	n/a	"Trial"	n/a	n/a	n/a	"583"	"arrowright"	n/a	"NULL"	"NULL"	"NULL"	"stimuli/Ebbinghaus_-0.1000_-0.15857.png"	n/a	"Ebbinghaus"	"arrowright"	"1224"	"TRUE"	"Ebbinghaus"	"-0.100000000"	"-0.158570000"	"1"	"69"
n/a	"html-keyboard-response"	"155"	"328701"	"0.0-5.0-2.0-0.51"	"pm88c0"	"600"	"1366"	"chrome"	"109.0.0"	"FALSE"	"Windows 10"	"60.2"	"014"	n/a	n/a	n/a	n/a	n/a	n/a	"fixation"	n/a	n/a	n/a	n/a	"NULL"	n/a	"NULL"	"NULL"	"NULL"	"<p style=\"color: black; font-size: 80px; padding-left: 46%; padding-right: 23%; padding-top: 45%; padding-bottom: 43%\">+</p>"	"1180"	n/a	n/a	n/a	n/a	n/a	n/a	n/a	n/a	n/a
n/a	"image-keyboard-response"	"156"	"329258"	"0.0-5.0-2.0-1.51"	"pm88c0"	"600"	"1366"	"chrome"	"109.0.0"	"FALSE"	"Windows 10"	"60.2"	"014"	n/a	n/a	n/a	n/a	n/a	n/a	"Trial"	n/a	n/a	n/a	"557"	"arrowright"	n/a	"NULL"	"NULL"	"NULL"	"stimuli/Ebbinghaus_0.87143_0.21500.png"	n/a	"Ebbinghaus"	"arrowleft"	"1195"	"FALSE"	"Ebbinghaus"	"0.8714300000"	"0.2150000000"	"1"	"70"
n/a	"html-keyboard-response"	"157"	"330765"	"0.0-5.0-2.0-0.52"	"pm88c0"	"600"	"1366"	"chrome"	"109.0.0"	"FALSE"	"Windows 10"	"60.2"	"014"	n/a	n/a	n/a	n/a	n/a	n/a	"fixation"	n/a	n/a	n/a	n/a	"NULL"	n/a	"NULL"	"NULL"	"NULL"	"<p style=\"color: black; font-size: 80px; padding-left: 2%; padding-right: 19%; padding-top: 23%; padding-bottom: 41%\">+</p>"	"1498"	n/a	n/a	n/a	n/a	n/a	n/a	n/a	n/a	n/a
n/a	"image-keyboard-response"	"158"	"331280"	"0.0-5.0-2.0-1.52"	"pm88c0"	"600"	"1366"	"chrome"	"109.0.0"	"FALSE"	"Windows 10"	"60.2"	"014"	n/a	n/a	n/a	n/a	n/a	n/a	"Trial"	n/a	n/a	n/a	"515"	"arrowright"	n/a	"NULL"	"NULL"	"NULL"	"stimuli/Ebbinghaus_0.61429_-0.2150.png"	n/a	"Ebbinghaus"	"arrowright"	"1507"	"TRUE"	"Ebbinghaus"	"0.6142900000"	"-0.215000000"	"1"	"71"
n/a	"html-keyboard-response"	"159"	"332668"	"0.0-5.0-2.0-0.53"	"pm88c0"	"600"	"1366"	"chrome"	"109.0.0"	"FALSE"	"Windows 10"	"60.2"	"014"	n/a	n/a	n/a	n/a	n/a	n/a	"fixation"	n/a	n/a	n/a	n/a	"NULL"	n/a	"NULL"	"NULL"	"NULL"	"<p style=\"color: black; font-size: 80px; padding-left: 25%; padding-right: 22%; padding-top: 17%; padding-bottom: 5%\">+</p>"	"1381"	n/a	n/a	n/a	n/a	n/a	n/a	n/a	n/a	n/a
n/a	"image-keyboard-response"	"160"	"333215"	"0.0-5.0-2.0-1.53"	"pm88c0"	"600"	"1366"	"chrome"	"109.0.0"	"FALSE"	"Windows 10"	"60.2"	"014"	n/a	n/a	n/a	n/a	n/a	n/a	"Trial"	n/a	n/a	n/a	"546"	"arrowright"	n/a	"NULL"	"NULL"	"NULL"	"stimuli/Ebbinghaus_-0.87143_-0.11071.png"	n/a	"Ebbinghaus"	"arrowright"	"1388"	"TRUE"	"Ebbinghaus"	"-0.871430000"	"-0.110710000"	"1"	"72"
n/a	"html-keyboard-response"	"161"	"334261"	"0.0-5.0-2.0-0.54"	"pm88c0"	"600"	"1366"	"chrome"	"109.0.0"	"FALSE"	"Windows 10"	"60.2"	"014"	n/a	n/a	n/a	n/a	n/a	n/a	"fixation"	n/a	n/a	n/a	n/a	"NULL"	n/a	"NULL"	"NULL"	"NULL"	"<p style=\"color: black; font-size: 80px; padding-left: 34%; padding-right: 42%; padding-top: 17%; padding-bottom: 29%\">+</p>"	"1027"	n/a	n/a	n/a	n/a	n/a	n/a	n/a	n/a	n/a
n/a	"image-keyboard-response"	"162"	"335287"	"0.0-5.0-2.0-1.54"	"pm88c0"	"600"	"1366"	"chrome"	"109.0.0"	"FALSE"	"Windows 10"	"60.2"	"014"	n/a	n/a	n/a	n/a	n/a	n/a	"Trial"	n/a	n/a	n/a	"1025"	"arrowleft"	n/a	"NULL"	"NULL"	"NULL"	"stimuli/Ebbinghaus_0.10000_-0.11071.png"	n/a	"Ebbinghaus"	"arrowright"	"1046"	"FALSE"	"Ebbinghaus"	"0.1000000000"	"-0.110710000"	"1"	"73"
n/a	"html-keyboard-response"	"163"	"336343"	"0.0-5.0-2.0-0.55"	"pm88c0"	"600"	"1366"	"chrome"	"109.0.0"	"FALSE"	"Windows 10"	"60.2"	"014"	n/a	n/a	n/a	n/a	n/a	n/a	"fixation"	n/a	n/a	n/a	n/a	"NULL"	n/a	"NULL"	"NULL"	"NULL"	"<p style=\"color: black; font-size: 80px; padding-left: 5%; padding-right: 37%; padding-top: 32%; padding-bottom: 38%\">+</p>"	"1045"	n/a	n/a	n/a	n/a	n/a	n/a	n/a	n/a	n/a
n/a	"image-keyboard-response"	"164"	"336873"	"0.0-5.0-2.0-1.55"	"pm88c0"	"600"	"1366"	"chrome"	"109.0.0"	"FALSE"	"Windows 10"	"60.2"	"014"	n/a	n/a	n/a	n/a	n/a	n/a	"Trial"	n/a	n/a	n/a	"529"	"arrowright"	n/a	"NULL"	"NULL"	"NULL"	"stimuli/Ebbinghaus_-0.61429_-0.11071.png"	n/a	"Ebbinghaus"	"arrowright"	"1056"	"TRUE"	"Ebbinghaus"	"-0.614290000"	"-0.110710000"	"1"	"74"
n/a	"html-keyboard-response"	"165"	"338148"	"0.0-5.0-2.0-0.56"	"pm88c0"	"600"	"1366"	"chrome"	"109.0.0"	"FALSE"	"Windows 10"	"60.2"	"014"	n/a	n/a	n/a	n/a	n/a	n/a	"fixation"	n/a	n/a	n/a	n/a	"NULL"	n/a	"NULL"	"NULL"	"NULL"	"<p style=\"color: black; font-size: 80px; padding-left: 19%; padding-right: 29%; padding-top: 50%; padding-bottom: 49%\">+</p>"	"1259"	n/a	n/a	n/a	n/a	n/a	n/a	n/a	n/a	n/a
n/a	"image-keyboard-response"	"166"	"338703"	"0.0-5.0-2.0-1.56"	"pm88c0"	"600"	"1366"	"chrome"	"109.0.0"	"FALSE"	"Windows 10"	"60.2"	"014"	n/a	n/a	n/a	n/a	n/a	n/a	"Trial"	n/a	n/a	n/a	"555"	"arrowleft"	n/a	"NULL"	"NULL"	"NULL"	"stimuli/Ebbinghaus_-0.61429_0.15857.png"	n/a	"Ebbinghaus"	"arrowleft"	"1275"	"TRUE"	"Ebbinghaus"	"-0.614290000"	"0.1585700000"	"1"	"75"
n/a	"html-keyboard-response"	"167"	"339929"	"0.0-5.0-2.0-0.57"	"pm88c0"	"600"	"1366"	"chrome"	"109.0.0"	"FALSE"	"Windows 10"	"60.2"	"014"	n/a	n/a	n/a	n/a	n/a	n/a	"fixation"	n/a	n/a	n/a	n/a	"NULL"	n/a	"NULL"	"NULL"	"NULL"	"<p style=\"color: black; font-size: 80px; padding-left: 29%; padding-right: 41%; padding-top: 50%; padding-bottom: 9%\">+</p>"	"1214"	n/a	n/a	n/a	n/a	n/a	n/a	n/a	n/a	n/a
n/a	"image-keyboard-response"	"168"	"340503"	"0.0-5.0-2.0-1.57"	"pm88c0"	"600"	"1366"	"chrome"	"109.0.0"	"FALSE"	"Windows 10"	"60.2"	"014"	n/a	n/a	n/a	n/a	n/a	n/a	"Trial"	n/a	n/a	n/a	"573"	"arrowright"	n/a	"NULL"	"NULL"	"NULL"	"stimuli/Ebbinghaus_0.10000_0.28000.png"	n/a	"Ebbinghaus"	"arrowleft"	"1226"	"FALSE"	"Ebbinghaus"	"0.1000000000"	"0.2800000000"	"1"	"76"
n/a	"html-keyboard-response"	"169"	"341578"	"0.0-5.0-2.0-0.58"	"pm88c0"	"600"	"1366"	"chrome"	"109.0.0"	"FALSE"	"Windows 10"	"60.2"	"014"	n/a	n/a	n/a	n/a	n/a	n/a	"fixation"	n/a	n/a	n/a	n/a	"NULL"	n/a	"NULL"	"NULL"	"NULL"	"<p style=\"color: black; font-size: 80px; padding-left: 31%; padding-right: 18%; padding-top: 9%; padding-bottom: 39%\">+</p>"	"1072"	n/a	n/a	n/a	n/a	n/a	n/a	n/a	n/a	n/a
n/a	"image-keyboard-response"	"170"	"342139"	"0.0-5.0-2.0-1.58"	"pm88c0"	"600"	"1366"	"chrome"	"109.0.0"	"FALSE"	"Windows 10"	"60.2"	"014"	n/a	n/a	n/a	n/a	n/a	n/a	"Trial"	n/a	n/a	n/a	"559"	"arrowright"	n/a	"NULL"	"NULL"	"NULL"	"stimuli/Ebbinghaus_0.61429_-0.2800.png"	n/a	"Ebbinghaus"	"arrowright"	"1075"	"TRUE"	"Ebbinghaus"	"0.6142900000"	"-0.280000000"	"1"	"77"
n/a	"html-keyboard-response"	"171"	"343312"	"0.0-5.0-2.0-0.59"	"pm88c0"	"600"	"1366"	"chrome"	"109.0.0"	"FALSE"	"Windows 10"	"60.2"	"014"	n/a	n/a	n/a	n/a	n/a	n/a	"fixation"	n/a	n/a	n/a	n/a	"NULL"	n/a	"NULL"	"NULL"	"NULL"	"<p style=\"color: black; font-size: 80px; padding-left: 37%; padding-right: 25%; padding-top: 3%; padding-bottom: 27%\">+</p>"	"1160"	n/a	n/a	n/a	n/a	n/a	n/a	n/a	n/a	n/a
n/a	"image-keyboard-response"	"172"	"343978"	"0.0-5.0-2.0-1.59"	"pm88c0"	"600"	"1366"	"chrome"	"109.0.0"	"FALSE"	"Windows 10"	"60.2"	"014"	n/a	n/a	n/a	n/a	n/a	n/a	"Trial"	n/a	n/a	n/a	"665"	"arrowleft"	n/a	"NULL"	"NULL"	"NULL"	"stimuli/Ebbinghaus_0.10000_0.15857.png"	n/a	"Ebbinghaus"	"arrowleft"	"1173"	"TRUE"	"Ebbinghaus"	"0.1000000000"	"0.1585700000"	"1"	"78"
n/a	"html-keyboard-response"	"173"	"345342"	"0.0-5.0-2.0-0.60"	"pm88c0"	"600"	"1366"	"chrome"	"109.0.0"	"FALSE"	"Windows 10"	"60.2"	"014"	n/a	n/a	n/a	n/a	n/a	n/a	"fixation"	n/a	n/a	n/a	n/a	"NULL"	n/a	"NULL"	"NULL"	"NULL"	"<p style=\"color: black; font-size: 80px; padding-left: 10%; padding-right: 48%; padding-top: 3%; padding-bottom: 11%\">+</p>"	"1353"	n/a	n/a	n/a	n/a	n/a	n/a	n/a	n/a	n/a
n/a	"image-keyboard-response"	"174"	"346252"	"0.0-5.0-2.0-1.60"	"pm88c0"	"600"	"1366"	"chrome"	"109.0.0"	"FALSE"	"Windows 10"	"60.2"	"014"	n/a	n/a	n/a	n/a	n/a	n/a	"Trial"	n/a	n/a	n/a	"909"	"arrowleft"	n/a	"NULL"	"NULL"	"NULL"	"stimuli/Ebbinghaus_0.10000_0.21500.png"	n/a	"Ebbinghaus"	"arrowleft"	"1364"	"TRUE"	"Ebbinghaus"	"0.1000000000"	"0.2150000000"	"1"	"79"
n/a	"html-keyboard-response"	"175"	"347310"	"0.0-5.0-2.0-0.61"	"pm88c0"	"600"	"1366"	"chrome"	"109.0.0"	"FALSE"	"Windows 10"	"60.2"	"014"	n/a	n/a	n/a	n/a	n/a	n/a	"fixation"	n/a	n/a	n/a	n/a	"NULL"	n/a	"NULL"	"NULL"	"NULL"	"<p style=\"color: black; font-size: 80px; padding-left: 36%; padding-right: 49%; padding-top: 38%; padding-bottom: 24%\">+</p>"	"1039"	n/a	n/a	n/a	n/a	n/a	n/a	n/a	n/a	n/a
n/a	"image-keyboard-response"	"176"	"347893"	"0.0-5.0-2.0-1.61"	"pm88c0"	"600"	"1366"	"chrome"	"109.0.0"	"FALSE"	"Windows 10"	"60.2"	"014"	n/a	n/a	n/a	n/a	n/a	n/a	"Trial"	n/a	n/a	n/a	"582"	"arrowright"	n/a	"NULL"	"NULL"	"NULL"	"stimuli/Ebbinghaus_0.61429_-0.15857.png"	n/a	"Ebbinghaus"	"arrowright"	"1058"	"TRUE"	"Ebbinghaus"	"0.6142900000"	"-0.158570000"	"1"	"80"
n/a	"html-keyboard-response"	"177"	"349295"	"0.0-5.0-2.0-0.62"	"pm88c0"	"600"	"1366"	"chrome"	"109.0.0"	"FALSE"	"Windows 10"	"60.2"	"014"	n/a	n/a	n/a	n/a	n/a	n/a	"fixation"	n/a	n/a	n/a	n/a	"NULL"	n/a	"NULL"	"NULL"	"NULL"	"<p style=\"color: black; font-size: 80px; padding-left: 4%; padding-right: 29%; padding-top: 3%; padding-bottom: 23%\">+</p>"	"1385"	n/a	n/a	n/a	n/a	n/a	n/a	n/a	n/a	n/a
n/a	"image-keyboard-response"	"178"	"349842"	"0.0-5.0-2.0-1.62"	"pm88c0"	"600"	"1366"	"chrome"	"109.0.0"	"FALSE"	"Windows 10"	"60.2"	"014"	n/a	n/a	n/a	n/a	n/a	n/a	"Trial"	n/a	n/a	n/a	"547"	"arrowright"	n/a	"NULL"	"NULL"	"NULL"	"stimuli/Ebbinghaus_0.10000_-0.2800.png"	n/a	"Ebbinghaus"	"arrowright"	"1402"	"TRUE"	"Ebbinghaus"	"0.1000000000"	"-0.280000000"	"1"	"81"
n/a	"html-keyboard-response"	"179"	"351079"	"0.0-5.0-2.0-0.63"	"pm88c0"	"600"	"1366"	"chrome"	"109.0.0"	"FALSE"	"Windows 10"	"60.2"	"014"	n/a	n/a	n/a	n/a	n/a	n/a	"fixation"	n/a	n/a	n/a	n/a	"NULL"	n/a	"NULL"	"NULL"	"NULL"	"<p style=\"color: black; font-size: 80px; padding-left: 1%; padding-right: 28%; padding-top: 5%; padding-bottom: 8%\">+</p>"	"1219"	n/a	n/a	n/a	n/a	n/a	n/a	n/a	n/a	n/a
n/a	"image-keyboard-response"	"180"	"351633"	"0.0-5.0-2.0-1.63"	"pm88c0"	"600"	"1366"	"chrome"	"109.0.0"	"FALSE"	"Windows 10"	"60.2"	"014"	n/a	n/a	n/a	n/a	n/a	n/a	"Trial"	n/a	n/a	n/a	"553"	"arrowright"	n/a	"NULL"	"NULL"	"NULL"	"stimuli/Ebbinghaus_0.35714_-0.2800.png"	n/a	"Ebbinghaus"	"arrowright"	"1237"	"TRUE"	"Ebbinghaus"	"0.3571400000"	"-0.280000000"	"1"	"82"
n/a	"html-button-response"	"181"	"368103"	"0.0-5.0-3.0"	"pm88c0"	"600"	"1366"	"chrome"	"109.0.0"	"FALSE"	"Windows 10"	"60.2"	"014"	n/a	n/a	n/a	n/a	n/a	n/a	"block_results"	n/a	n/a	n/a	"16468"	"0"	n/a	"NULL"	"NULL"	"NULL"	"<p>Your score for this illusion is <p style=\"color: black; font-size: 48px; font-weight: bold;\">76.5 %</p><hr><p>Can you do better in the next illusion?</p>"	n/a	n/a	n/a	n/a	n/a	n/a	n/a	n/a	n/a	n/a
"TRUE"	"preload"	"182"	"368291"	"0.0-6.0-0.0"	"pm88c0"	"600"	"1366"	"chrome"	"109.0.0"	"FALSE"	"Windows 10"	"60.2"	"014"	n/a	n/a	n/a	n/a	n/a	n/a	n/a	n/a	n/a	n/a	n/a	"NULL"	"FALSE"	"list()"	"list()"	"list()"	n/a	n/a	n/a	n/a	n/a	n/a	n/a	n/a	n/a	n/a	n/a
n/a	"html-keyboard-response"	"183"	"372748"	"0.0-6.0-1.0"	"pm88c0"	"600"	"1366"	"chrome"	"109.0.0"	"FALSE"	"Windows 10"	"60.2"	"014"	n/a	n/a	n/a	n/a	n/a	n/a	n/a	n/a	n/a	n/a	"4455"	"enter"	n/a	"NULL"	"NULL"	"NULL"	"<p><b>Part 2/6</b></p><p>In this part, two red lines will appear side by side.</p><p>Your task is to tell <b>which line is longer</b> in length, regardless of their orientation, as fast as you can, and without making errors.</p><p>Don't get distracted by the orientation of the lines!</p><p>Press <b>the LEFT or the RIGHT arrow</b> to indicate which <b>line is the longer one.</b></p><div style='float: center'><img src='materials/instructions/VerticalHorizontal_Demo.png' height='300'></img><p><img src='utils/answer/answer_leftright_keyboard.PNG' height='150'></img></p><p class='small'>In this example, the correct answer is the <b>LEFT arrow</b>.</p></div><p>Are you ready? <b>Press ENTER to start</b></p>"	n/a	n/a	n/a	n/a	n/a	n/a	n/a	n/a	n/a	n/a
n/a	"html-keyboard-response"	"184"	"374534"	"0.0-6.0-2.0-0.0"	"pm88c0"	"600"	"1366"	"chrome"	"109.0.0"	"FALSE"	"Windows 10"	"60.2"	"014"	n/a	n/a	n/a	n/a	n/a	n/a	"fixation"	n/a	n/a	n/a	n/a	"NULL"	n/a	"NULL"	"NULL"	"NULL"	"<p style=\"color: black; font-size: 80px; padding-left: 8%; padding-right: 48%; padding-top: 44%; padding-bottom: 41%\">+</p>"	"1270"	n/a	n/a	n/a	n/a	n/a	n/a	n/a	n/a	n/a
n/a	"image-keyboard-response"	"185"	"375385"	"0.0-6.0-2.0-1.0"	"pm88c0"	"600"	"1366"	"chrome"	"109.0.0"	"FALSE"	"Windows 10"	"60.2"	"014"	n/a	n/a	n/a	n/a	n/a	n/a	"Trial"	n/a	n/a	n/a	"851"	"arrowleft"	n/a	"NULL"	"NULL"	"NULL"	"stimuli/VerticalHorizontal_11.78571_-0.2250.png"	n/a	"VerticalHorizontal"	"arrowright"	"1786"	"FALSE"	"VerticalHorizontal"	"11.785710000"	"-0.225000000"	"2"	"1"
n/a	"html-keyboard-response"	"186"	"376605"	"0.0-6.0-2.0-0.1"	"pm88c0"	"600"	"1366"	"chrome"	"109.0.0"	"FALSE"	"Windows 10"	"60.2"	"014"	n/a	n/a	n/a	n/a	n/a	n/a	"fixation"	n/a	n/a	n/a	n/a	"NULL"	n/a	"NULL"	"NULL"	"NULL"	"<p style=\"color: black; font-size: 80px; padding-left: 44%; padding-right: 9%; padding-top: 35%; padding-bottom: 13%\">+</p>"	"1212"	n/a	n/a	n/a	n/a	n/a	n/a	n/a	n/a	n/a
n/a	"image-keyboard-response"	"187"	"377111"	"0.0-6.0-2.0-1.1"	"pm88c0"	"600"	"1366"	"chrome"	"109.0.0"	"FALSE"	"Windows 10"	"60.2"	"014"	n/a	n/a	n/a	n/a	n/a	n/a	"Trial"	n/a	n/a	n/a	"505"	"arrowleft"	n/a	"NULL"	"NULL"	"NULL"	"stimuli/VerticalHorizontal_28.75714_-0.16217.png"	n/a	"VerticalHorizontal"	"arrowright"	"1220"	"FALSE"	"VerticalHorizontal"	"28.757140000"	"-0.162170000"	"2"	"2"
n/a	"html-keyboard-response"	"188"	"378475"	"0.0-6.0-2.0-0.2"	"pm88c0"	"600"	"1366"	"chrome"	"109.0.0"	"FALSE"	"Windows 10"	"60.2"	"014"	n/a	n/a	n/a	n/a	n/a	n/a	"fixation"	n/a	n/a	n/a	n/a	"NULL"	n/a	"NULL"	"NULL"	"NULL"	"<p style=\"color: black; font-size: 80px; padding-left: 32%; padding-right: 34%; padding-top: 40%; padding-bottom: 41%\">+</p>"	"1359"	n/a	n/a	n/a	n/a	n/a	n/a	n/a	n/a	n/a
n/a	"image-keyboard-response"	"189"	"378992"	"0.0-6.0-2.0-1.2"	"pm88c0"	"600"	"1366"	"chrome"	"109.0.0"	"FALSE"	"Windows 10"	"60.2"	"014"	n/a	n/a	n/a	n/a	n/a	n/a	"Trial"	n/a	n/a	n/a	"516"	"arrowleft"	n/a	"NULL"	"NULL"	"NULL"	"stimuli/VerticalHorizontal_11.78571_0.22500.png"	n/a	"VerticalHorizontal"	"arrowleft"	"1364"	"TRUE"	"VerticalHorizontal"	"11.785710000"	"0.2250000000"	"2"	"3"
n/a	"html-keyboard-response"	"190"	"380244"	"0.0-6.0-2.0-0.3"	"pm88c0"	"600"	"1366"	"chrome"	"109.0.0"	"FALSE"	"Windows 10"	"60.2"	"014"	n/a	n/a	n/a	n/a	n/a	n/a	"fixation"	n/a	n/a	n/a	n/a	"NULL"	n/a	"NULL"	"NULL"	"NULL"	"<p style=\"color: black; font-size: 80px; padding-left: 40%; padding-right: 47%; padding-top: 12%; padding-bottom: 47%\">+</p>"	"1239"	n/a	n/a	n/a	n/a	n/a	n/a	n/a	n/a	n/a
n/a	"image-keyboard-response"	"191"	"380850"	"0.0-6.0-2.0-1.3"	"pm88c0"	"600"	"1366"	"chrome"	"109.0.0"	"FALSE"	"Windows 10"	"60.2"	"014"	n/a	n/a	n/a	n/a	n/a	n/a	"Trial"	n/a	n/a	n/a	"605"	"arrowleft"	n/a	"NULL"	"NULL"	"NULL"	"stimuli/VerticalHorizontal_11.78571_0.16217.png"	n/a	"VerticalHorizontal"	"arrowleft"	"1252"	"TRUE"	"VerticalHorizontal"	"11.785710000"	"0.1621700000"	"2"	"4"
n/a	"html-keyboard-response"	"192"	"382256"	"0.0-6.0-2.0-0.4"	"pm88c0"	"600"	"1366"	"chrome"	"109.0.0"	"FALSE"	"Windows 10"	"60.2"	"014"	n/a	n/a	n/a	n/a	n/a	n/a	"fixation"	n/a	n/a	n/a	n/a	"NULL"	n/a	"NULL"	"NULL"	"NULL"	"<p style=\"color: black; font-size: 80px; padding-left: 15%; padding-right: 7%; padding-top: 35%; padding-bottom: 47%\">+</p>"	"1390"	n/a	n/a	n/a	n/a	n/a	n/a	n/a	n/a	n/a
n/a	"image-keyboard-response"	"193"	"382910"	"0.0-6.0-2.0-1.4"	"pm88c0"	"600"	"1366"	"chrome"	"109.0.0"	"FALSE"	"Windows 10"	"60.2"	"014"	n/a	n/a	n/a	n/a	n/a	n/a	"Trial"	n/a	n/a	n/a	"653"	"arrowright"	n/a	"NULL"	"NULL"	"NULL"	"stimuli/VerticalHorizontal_3.30000_-0.16217.png"	n/a	"VerticalHorizontal"	"arrowright"	"1406"	"TRUE"	"VerticalHorizontal"	"3.3000000000"	"-0.162170000"	"2"	"5"
n/a	"html-keyboard-response"	"194"	"384103"	"0.0-6.0-2.0-0.5"	"pm88c0"	"600"	"1366"	"chrome"	"109.0.0"	"FALSE"	"Windows 10"	"60.2"	"014"	n/a	n/a	n/a	n/a	n/a	n/a	"fixation"	n/a	n/a	n/a	n/a	"NULL"	n/a	"NULL"	"NULL"	"NULL"	"<p style=\"color: black; font-size: 80px; padding-left: 32%; padding-right: 10%; padding-top: 40%; padding-bottom: 17%\">+</p>"	"1176"	n/a	n/a	n/a	n/a	n/a	n/a	n/a	n/a	n/a
n/a	"image-keyboard-response"	"195"	"384594"	"0.0-6.0-2.0-1.5"	"pm88c0"	"600"	"1366"	"chrome"	"109.0.0"	"FALSE"	"Windows 10"	"60.2"	"014"	n/a	n/a	n/a	n/a	n/a	n/a	"Trial"	n/a	n/a	n/a	"489"	"arrowleft"	n/a	"NULL"	"NULL"	"NULL"	"stimuli/VerticalHorizontal_3.30000_0.06730.png"	n/a	"VerticalHorizontal"	"arrowleft"	"1193"	"TRUE"	"VerticalHorizontal"	"3.3000000000"	"0.0673000000"	"2"	"6"
n/a	"html-keyboard-response"	"196"	"385860"	"0.0-6.0-2.0-0.6"	"pm88c0"	"600"	"1366"	"chrome"	"109.0.0"	"FALSE"	"Windows 10"	"60.2"	"014"	n/a	n/a	n/a	n/a	n/a	n/a	"fixation"	n/a	n/a	n/a	n/a	"NULL"	n/a	"NULL"	"NULL"	"NULL"	"<p style=\"color: black; font-size: 80px; padding-left: 5%; padding-right: 33%; padding-top: 8%; padding-bottom: 32%\">+</p>"	"1252"	n/a	n/a	n/a	n/a	n/a	n/a	n/a	n/a	n/a
n/a	"image-keyboard-response"	"197"	"386364"	"0.0-6.0-2.0-1.6"	"pm88c0"	"600"	"1366"	"chrome"	"109.0.0"	"FALSE"	"Windows 10"	"60.2"	"014"	n/a	n/a	n/a	n/a	n/a	n/a	"Trial"	n/a	n/a	n/a	"502"	"arrowright"	n/a	"NULL"	"NULL"	"NULL"	"stimuli/VerticalHorizontal_-3.3000_-0.2250.png"	n/a	"VerticalHorizontal"	"arrowright"	"1266"	"TRUE"	"VerticalHorizontal"	"-3.300000000"	"-0.225000000"	"2"	"7"
n/a	"html-keyboard-response"	"198"	"387624"	"0.0-6.0-2.0-0.7"	"pm88c0"	"600"	"1366"	"chrome"	"109.0.0"	"FALSE"	"Windows 10"	"60.2"	"014"	n/a	n/a	n/a	n/a	n/a	n/a	"fixation"	n/a	n/a	n/a	n/a	"NULL"	n/a	"NULL"	"NULL"	"NULL"	"<p style=\"color: black; font-size: 80px; padding-left: 37%; padding-right: 42%; padding-top: 7%; padding-bottom: 18%\">+</p>"	"1252"	n/a	n/a	n/a	n/a	n/a	n/a	n/a	n/a	n/a
n/a	"image-keyboard-response"	"199"	"388138"	"0.0-6.0-2.0-1.7"	"pm88c0"	"600"	"1366"	"chrome"	"109.0.0"	"FALSE"	"Windows 10"	"60.2"	"014"	n/a	n/a	n/a	n/a	n/a	n/a	"Trial"	n/a	n/a	n/a	"513"	"arrowleft"	n/a	"NULL"	"NULL"	"NULL"	"stimuli/VerticalHorizontal_3.30000_-0.0673.png"	n/a	"VerticalHorizontal"	"arrowright"	"1260"	"FALSE"	"VerticalHorizontal"	"3.3000000000"	"-0.067300000"	"2"	"8"
n/a	"html-keyboard-response"	"200"	"389608"	"0.0-6.0-2.0-0.8"	"pm88c0"	"600"	"1366"	"chrome"	"109.0.0"	"FALSE"	"Windows 10"	"60.2"	"014"	n/a	n/a	n/a	n/a	n/a	n/a	"fixation"	n/a	n/a	n/a	n/a	"NULL"	n/a	"NULL"	"NULL"	"NULL"	"<p style=\"color: black; font-size: 80px; padding-left: 30%; padding-right: 3%; padding-top: 29%; padding-bottom: 28%\">+</p>"	"1455"	n/a	n/a	n/a	n/a	n/a	n/a	n/a	n/a	n/a
n/a	"image-keyboard-response"	"201"	"390042"	"0.0-6.0-2.0-1.8"	"pm88c0"	"600"	"1366"	"chrome"	"109.0.0"	"FALSE"	"Windows 10"	"60.2"	"014"	n/a	n/a	n/a	n/a	n/a	n/a	"Trial"	n/a	n/a	n/a	"433"	"arrowleft"	n/a	"NULL"	"NULL"	"NULL"	"stimuli/VerticalHorizontal_-28.75714_0.06730.png"	n/a	"VerticalHorizontal"	"arrowleft"	"1470"	"TRUE"	"VerticalHorizontal"	"-28.75714000"	"0.0673000000"	"2"	"9"
n/a	"html-keyboard-response"	"202"	"391277"	"0.0-6.0-2.0-0.9"	"pm88c0"	"600"	"1366"	"chrome"	"109.0.0"	"FALSE"	"Windows 10"	"60.2"	"014"	n/a	n/a	n/a	n/a	n/a	n/a	"fixation"	n/a	n/a	n/a	n/a	"NULL"	n/a	"NULL"	"NULL"	"NULL"	"<p style=\"color: black; font-size: 80px; padding-left: 37%; padding-right: 16%; padding-top: 13%; padding-bottom: 12%\">+</p>"	"1227"	n/a	n/a	n/a	n/a	n/a	n/a	n/a	n/a	n/a
n/a	"image-keyboard-response"	"203"	"392055"	"0.0-6.0-2.0-1.9"	"pm88c0"	"600"	"1366"	"chrome"	"109.0.0"	"FALSE"	"Windows 10"	"60.2"	"014"	n/a	n/a	n/a	n/a	n/a	n/a	"Trial"	n/a	n/a	n/a	"777"	"arrowleft"	n/a	"NULL"	"NULL"	"NULL"	"stimuli/VerticalHorizontal_11.78571_0.06730.png"	n/a	"VerticalHorizontal"	"arrowleft"	"1235"	"TRUE"	"VerticalHorizontal"	"11.785710000"	"0.0673000000"	"2"	"10"
n/a	"html-keyboard-response"	"204"	"393225"	"0.0-6.0-2.0-0.10"	"pm88c0"	"600"	"1366"	"chrome"	"109.0.0"	"FALSE"	"Windows 10"	"60.2"	"014"	n/a	n/a	n/a	n/a	n/a	n/a	"fixation"	n/a	n/a	n/a	n/a	"NULL"	n/a	"NULL"	"NULL"	"NULL"	"<p style=\"color: black; font-size: 80px; padding-left: 4%; padding-right: 29%; padding-top: 31%; padding-bottom: 12%\">+</p>"	"1160"	n/a	n/a	n/a	n/a	n/a	n/a	n/a	n/a	n/a
n/a	"image-keyboard-response"	"205"	"393945"	"0.0-6.0-2.0-1.10"	"pm88c0"	"600"	"1366"	"chrome"	"109.0.0"	"FALSE"	"Windows 10"	"60.2"	"014"	n/a	n/a	n/a	n/a	n/a	n/a	"Trial"	n/a	n/a	n/a	"719"	"arrowright"	n/a	"NULL"	"NULL"	"NULL"	"stimuli/VerticalHorizontal_28.75714_0.10960.png"	n/a	"VerticalHorizontal"	"arrowleft"	"1170"	"FALSE"	"VerticalHorizontal"	"28.757140000"	"0.1096000000"	"2"	"11"
n/a	"html-keyboard-response"	"206"	"395102"	"0.0-6.0-2.0-0.11"	"pm88c0"	"600"	"1366"	"chrome"	"109.0.0"	"FALSE"	"Windows 10"	"60.2"	"014"	n/a	n/a	n/a	n/a	n/a	n/a	"fixation"	n/a	n/a	n/a	n/a	"NULL"	n/a	"NULL"	"NULL"	"NULL"	"<p style=\"color: black; font-size: 80px; padding-left: 8%; padding-right: 11%; padding-top: 20%; padding-bottom: 46%\">+</p>"	"1149"	n/a	n/a	n/a	n/a	n/a	n/a	n/a	n/a	n/a
n/a	"image-keyboard-response"	"207"	"395730"	"0.0-6.0-2.0-1.11"	"pm88c0"	"600"	"1366"	"chrome"	"109.0.0"	"FALSE"	"Windows 10"	"60.2"	"014"	n/a	n/a	n/a	n/a	n/a	n/a	"Trial"	n/a	n/a	n/a	"627"	"arrowright"	n/a	"NULL"	"NULL"	"NULL"	"stimuli/VerticalHorizontal_3.30000_-0.1096.png"	n/a	"VerticalHorizontal"	"arrowright"	"1157"	"TRUE"	"VerticalHorizontal"	"3.3000000000"	"-0.109600000"	"2"	"12"
n/a	"html-keyboard-response"	"208"	"396920"	"0.0-6.0-2.0-0.12"	"pm88c0"	"600"	"1366"	"chrome"	"109.0.0"	"FALSE"	"Windows 10"	"60.2"	"014"	n/a	n/a	n/a	n/a	n/a	n/a	"fixation"	n/a	n/a	n/a	n/a	"NULL"	n/a	"NULL"	"NULL"	"NULL"	"<p style=\"color: black; font-size: 80px; padding-left: 18%; padding-right: 33%; padding-top: 25%; padding-bottom: 19%\">+</p>"	"1170"	n/a	n/a	n/a	n/a	n/a	n/a	n/a	n/a	n/a
n/a	"image-keyboard-response"	"209"	"397370"	"0.0-6.0-2.0-1.12"	"pm88c0"	"600"	"1366"	"chrome"	"109.0.0"	"FALSE"	"Windows 10"	"60.2"	"014"	n/a	n/a	n/a	n/a	n/a	n/a	"Trial"	n/a	n/a	n/a	"447"	"arrowright"	n/a	"NULL"	"NULL"	"NULL"	"stimuli/VerticalHorizontal_-3.3000_-0.0673.png"	n/a	"VerticalHorizontal"	"arrowright"	"1190"	"TRUE"	"VerticalHorizontal"	"-3.300000000"	"-0.067300000"	"2"	"13"
n/a	"html-keyboard-response"	"210"	"398469"	"0.0-6.0-2.0-0.13"	"pm88c0"	"600"	"1366"	"chrome"	"109.0.0"	"FALSE"	"Windows 10"	"60.2"	"014"	n/a	n/a	n/a	n/a	n/a	n/a	"fixation"	n/a	n/a	n/a	n/a	"NULL"	n/a	"NULL"	"NULL"	"NULL"	"<p style=\"color: black; font-size: 80px; padding-left: 38%; padding-right: 22%; padding-top: 28%; padding-bottom: 42%\">+</p>"	"1090"	n/a	n/a	n/a	n/a	n/a	n/a	n/a	n/a	n/a
n/a	"image-keyboard-response"	"211"	"399014"	"0.0-6.0-2.0-1.13"	"pm88c0"	"600"	"1366"	"chrome"	"109.0.0"	"FALSE"	"Windows 10"	"60.2"	"014"	n/a	n/a	n/a	n/a	n/a	n/a	"Trial"	n/a	n/a	n/a	"542"	"arrowleft"	n/a	"NULL"	"NULL"	"NULL"	"stimuli/VerticalHorizontal_-3.3000_0.22500.png"	n/a	"VerticalHorizontal"	"arrowleft"	"1099"	"TRUE"	"VerticalHorizontal"	"-3.300000000"	"0.2250000000"	"2"	"14"
n/a	"html-keyboard-response"	"212"	"400308"	"0.0-6.0-2.0-0.14"	"pm88c0"	"600"	"1366"	"chrome"	"109.0.0"	"FALSE"	"Windows 10"	"60.2"	"014"	n/a	n/a	n/a	n/a	n/a	n/a	"fixation"	n/a	n/a	n/a	n/a	"NULL"	n/a	"NULL"	"NULL"	"NULL"	"<p style=\"color: black; font-size: 80px; padding-left: 24%; padding-right: 19%; padding-top: 12%; padding-bottom: 44%\">+</p>"	"1281"	n/a	n/a	n/a	n/a	n/a	n/a	n/a	n/a	n/a
n/a	"image-keyboard-response"	"213"	"400802"	"0.0-6.0-2.0-1.14"	"pm88c0"	"600"	"1366"	"chrome"	"109.0.0"	"FALSE"	"Windows 10"	"60.2"	"014"	n/a	n/a	n/a	n/a	n/a	n/a	"Trial"	n/a	n/a	n/a	"493"	"arrowleft"	n/a	"NULL"	"NULL"	"NULL"	"stimuli/VerticalHorizontal_-11.78571_0.10960.png"	n/a	"VerticalHorizontal"	"arrowleft"	"1294"	"TRUE"	"VerticalHorizontal"	"-11.78571000"	"0.1096000000"	"2"	"15"
n/a	"html-keyboard-response"	"214"	"402140"	"0.0-6.0-2.0-0.15"	"pm88c0"	"600"	"1366"	"chrome"	"109.0.0"	"FALSE"	"Windows 10"	"60.2"	"014"	n/a	n/a	n/a	n/a	n/a	n/a	"fixation"	n/a	n/a	n/a	n/a	"NULL"	n/a	"NULL"	"NULL"	"NULL"	"<p style=\"color: black; font-size: 80px; padding-left: 36%; padding-right: 6%; padding-top: 27%; padding-bottom: 41%\">+</p>"	"1325"	n/a	n/a	n/a	n/a	n/a	n/a	n/a	n/a	n/a
n/a	"image-keyboard-response"	"215"	"402566"	"0.0-6.0-2.0-1.15"	"pm88c0"	"600"	"1366"	"chrome"	"109.0.0"	"FALSE"	"Windows 10"	"60.2"	"014"	n/a	n/a	n/a	n/a	n/a	n/a	"Trial"	n/a	n/a	n/a	"425"	"arrowright"	n/a	"NULL"	"NULL"	"NULL"	"stimuli/VerticalHorizontal_28.75714_0.06730.png"	n/a	"VerticalHorizontal"	"arrowleft"	"1338"	"FALSE"	"VerticalHorizontal"	"28.757140000"	"0.0673000000"	"2"	"16"
n/a	"html-keyboard-response"	"216"	"403763"	"0.0-6.0-2.0-0.16"	"pm88c0"	"600"	"1366"	"chrome"	"109.0.0"	"FALSE"	"Windows 10"	"60.2"	"014"	n/a	n/a	n/a	n/a	n/a	n/a	"fixation"	n/a	n/a	n/a	n/a	"NULL"	n/a	"NULL"	"NULL"	"NULL"	"<p style=\"color: black; font-size: 80px; padding-left: 22%; padding-right: 4%; padding-top: 15%; padding-bottom: 45%\">+</p>"	"1185"	n/a	n/a	n/a	n/a	n/a	n/a	n/a	n/a	n/a
n/a	"image-keyboard-response"	"217"	"404159"	"0.0-6.0-2.0-1.16"	"pm88c0"	"600"	"1366"	"chrome"	"109.0.0"	"FALSE"	"Windows 10"	"60.2"	"014"	n/a	n/a	n/a	n/a	n/a	n/a	"Trial"	n/a	n/a	n/a	"394"	"arrowright"	n/a	"NULL"	"NULL"	"NULL"	"stimuli/VerticalHorizontal_-28.75714_-0.16217.png"	n/a	"VerticalHorizontal"	"arrowright"	"1197"	"TRUE"	"VerticalHorizontal"	"-28.75714000"	"-0.162170000"	"2"	"17"
n/a	"html-keyboard-response"	"218"	"405595"	"0.0-6.0-2.0-0.17"	"pm88c0"	"600"	"1366"	"chrome"	"109.0.0"	"FALSE"	"Windows 10"	"60.2"	"014"	n/a	n/a	n/a	n/a	n/a	n/a	"fixation"	n/a	n/a	n/a	n/a	"NULL"	n/a	"NULL"	"NULL"	"NULL"	"<p style=\"color: black; font-size: 80px; padding-left: 21%; padding-right: 45%; padding-top: 21%; padding-bottom: 0%\">+</p>"	"1424"	n/a	n/a	n/a	n/a	n/a	n/a	n/a	n/a	n/a
n/a	"image-keyboard-response"	"219"	"405997"	"0.0-6.0-2.0-1.17"	"pm88c0"	"600"	"1366"	"chrome"	"109.0.0"	"FALSE"	"Windows 10"	"60.2"	"014"	n/a	n/a	n/a	n/a	n/a	n/a	"Trial"	n/a	n/a	n/a	"401"	"arrowleft"	n/a	"NULL"	"NULL"	"NULL"	"stimuli/VerticalHorizontal_-28.75714_0.10960.png"	n/a	"VerticalHorizontal"	"arrowleft"	"1436"	"TRUE"	"VerticalHorizontal"	"-28.75714000"	"0.1096000000"	"2"	"18"
n/a	"html-keyboard-response"	"220"	"407265"	"0.0-6.0-2.0-0.18"	"pm88c0"	"600"	"1366"	"chrome"	"109.0.0"	"FALSE"	"Windows 10"	"60.2"	"014"	n/a	n/a	n/a	n/a	n/a	n/a	"fixation"	n/a	n/a	n/a	n/a	"NULL"	n/a	"NULL"	"NULL"	"NULL"	"<p style=\"color: black; font-size: 80px; padding-left: 33%; padding-right: 26%; padding-top: 29%; padding-bottom: 17%\">+</p>"	"1259"	n/a	n/a	n/a	n/a	n/a	n/a	n/a	n/a	n/a
n/a	"image-keyboard-response"	"221"	"407639"	"0.0-6.0-2.0-1.18"	"pm88c0"	"600"	"1366"	"chrome"	"109.0.0"	"FALSE"	"Windows 10"	"60.2"	"014"	n/a	n/a	n/a	n/a	n/a	n/a	"Trial"	n/a	n/a	n/a	"373"	"arrowright"	n/a	"NULL"	"NULL"	"NULL"	"stimuli/VerticalHorizontal_-20.27143_-0.0673.png"	n/a	"VerticalHorizontal"	"arrowright"	"1268"	"TRUE"	"VerticalHorizontal"	"-20.27143000"	"-0.067300000"	"2"	"19"
n/a	"html-keyboard-response"	"222"	"408656"	"0.0-6.0-2.0-0.19"	"pm88c0"	"600"	"1366"	"chrome"	"109.0.0"	"FALSE"	"Windows 10"	"60.2"	"014"	n/a	n/a	n/a	n/a	n/a	n/a	"fixation"	n/a	n/a	n/a	n/a	"NULL"	n/a	"NULL"	"NULL"	"NULL"	"<p style=\"color: black; font-size: 80px; padding-left: 3%; padding-right: 48%; padding-top: 2%; padding-bottom: 22%\">+</p>"	"1003"	n/a	n/a	n/a	n/a	n/a	n/a	n/a	n/a	n/a
n/a	"image-keyboard-response"	"223"	"409198"	"0.0-6.0-2.0-1.19"	"pm88c0"	"600"	"1366"	"chrome"	"109.0.0"	"FALSE"	"Windows 10"	"60.2"	"014"	n/a	n/a	n/a	n/a	n/a	n/a	"Trial"	n/a	n/a	n/a	"541"	"arrowright"	n/a	"NULL"	"NULL"	"NULL"	"stimuli/VerticalHorizontal_-28.75714_-0.1096.png"	n/a	"VerticalHorizontal"	"arrowright"	"1017"	"TRUE"	"VerticalHorizontal"	"-28.75714000"	"-0.109600000"	"2"	"20"
n/a	"html-keyboard-response"	"224"	"410514"	"0.0-6.0-2.0-0.20"	"pm88c0"	"600"	"1366"	"chrome"	"109.0.0"	"FALSE"	"Windows 10"	"60.2"	"014"	n/a	n/a	n/a	n/a	n/a	n/a	"fixation"	n/a	n/a	n/a	n/a	"NULL"	n/a	"NULL"	"NULL"	"NULL"	"<p style=\"color: black; font-size: 80px; padding-left: 30%; padding-right: 38%; padding-top: 30%; padding-bottom: 45%\">+</p>"	"1314"	n/a	n/a	n/a	n/a	n/a	n/a	n/a	n/a	n/a
n/a	"image-keyboard-response"	"225"	"410918"	"0.0-6.0-2.0-1.20"	"pm88c0"	"600"	"1366"	"chrome"	"109.0.0"	"FALSE"	"Windows 10"	"60.2"	"014"	n/a	n/a	n/a	n/a	n/a	n/a	"Trial"	n/a	n/a	n/a	"403"	"arrowleft"	n/a	"NULL"	"NULL"	"NULL"	"stimuli/VerticalHorizontal_20.27143_-0.2250.png"	n/a	"VerticalHorizontal"	"arrowright"	"1316"	"FALSE"	"VerticalHorizontal"	"20.271430000"	"-0.225000000"	"2"	"21"
n/a	"html-keyboard-response"	"226"	"412358"	"0.0-6.0-2.0-0.21"	"pm88c0"	"600"	"1366"	"chrome"	"109.0.0"	"FALSE"	"Windows 10"	"60.2"	"014"	n/a	n/a	n/a	n/a	n/a	n/a	"fixation"	n/a	n/a	n/a	n/a	"NULL"	n/a	"NULL"	"NULL"	"NULL"	"<p style=\"color: black; font-size: 80px; padding-left: 16%; padding-right: 19%; padding-top: 22%; padding-bottom: 3%\">+</p>"	"1424"	n/a	n/a	n/a	n/a	n/a	n/a	n/a	n/a	n/a
n/a	"image-keyboard-response"	"227"	"412867"	"0.0-6.0-2.0-1.21"	"pm88c0"	"600"	"1366"	"chrome"	"109.0.0"	"FALSE"	"Windows 10"	"60.2"	"014"	n/a	n/a	n/a	n/a	n/a	n/a	"Trial"	n/a	n/a	n/a	"508"	"arrowleft"	n/a	"NULL"	"NULL"	"NULL"	"stimuli/VerticalHorizontal_11.78571_-0.0673.png"	n/a	"VerticalHorizontal"	"arrowright"	"1440"	"FALSE"	"VerticalHorizontal"	"11.785710000"	"-0.067300000"	"2"	"22"
n/a	"html-keyboard-response"	"228"	"414211"	"0.0-6.0-2.0-0.22"	"pm88c0"	"600"	"1366"	"chrome"	"109.0.0"	"FALSE"	"Windows 10"	"60.2"	"014"	n/a	n/a	n/a	n/a	n/a	n/a	"fixation"	n/a	n/a	n/a	n/a	"NULL"	n/a	"NULL"	"NULL"	"NULL"	"<p style=\"color: black; font-size: 80px; padding-left: 4%; padding-right: 27%; padding-top: 20%; padding-bottom: 38%\">+</p>"	"1332"	n/a	n/a	n/a	n/a	n/a	n/a	n/a	n/a	n/a
n/a	"image-keyboard-response"	"229"	"414680"	"0.0-6.0-2.0-1.22"	"pm88c0"	"600"	"1366"	"chrome"	"109.0.0"	"FALSE"	"Windows 10"	"60.2"	"014"	n/a	n/a	n/a	n/a	n/a	n/a	"Trial"	n/a	n/a	n/a	"468"	"arrowleft"	n/a	"NULL"	"NULL"	"NULL"	"stimuli/VerticalHorizontal_11.78571_0.10960.png"	n/a	"VerticalHorizontal"	"arrowleft"	"1344"	"TRUE"	"VerticalHorizontal"	"11.785710000"	"0.1096000000"	"2"	"23"
n/a	"html-keyboard-response"	"230"	"415804"	"0.0-6.0-2.0-0.23"	"pm88c0"	"600"	"1366"	"chrome"	"109.0.0"	"FALSE"	"Windows 10"	"60.2"	"014"	n/a	n/a	n/a	n/a	n/a	n/a	"fixation"	n/a	n/a	n/a	n/a	"NULL"	n/a	"NULL"	"NULL"	"NULL"	"<p style=\"color: black; font-size: 80px; padding-left: 18%; padding-right: 19%; padding-top: 14%; padding-bottom: 42%\">+</p>"	"1112"	n/a	n/a	n/a	n/a	n/a	n/a	n/a	n/a	n/a
n/a	"image-keyboard-response"	"231"	"416572"	"0.0-6.0-2.0-1.23"	"pm88c0"	"600"	"1366"	"chrome"	"109.0.0"	"FALSE"	"Windows 10"	"60.2"	"014"	n/a	n/a	n/a	n/a	n/a	n/a	"Trial"	n/a	n/a	n/a	"767"	"arrowleft"	n/a	"NULL"	"NULL"	"NULL"	"stimuli/VerticalHorizontal_-3.3000_0.10960.png"	n/a	"VerticalHorizontal"	"arrowleft"	"1124"	"TRUE"	"VerticalHorizontal"	"-3.300000000"	"0.1096000000"	"2"	"24"
n/a	"html-keyboard-response"	"232"	"417980"	"0.0-6.0-2.0-0.24"	"pm88c0"	"600"	"1366"	"chrome"	"109.0.0"	"FALSE"	"Windows 10"	"60.2"	"014"	n/a	n/a	n/a	n/a	n/a	n/a	"fixation"	n/a	n/a	n/a	n/a	"NULL"	n/a	"NULL"	"NULL"	"NULL"	"<p style=\"color: black; font-size: 80px; padding-left: 12%; padding-right: 11%; padding-top: 16%; padding-bottom: 44%\">+</p>"	"1390"	n/a	n/a	n/a	n/a	n/a	n/a	n/a	n/a	n/a
n/a	"image-keyboard-response"	"233"	"418498"	"0.0-6.0-2.0-1.24"	"pm88c0"	"600"	"1366"	"chrome"	"109.0.0"	"FALSE"	"Windows 10"	"60.2"	"014"	n/a	n/a	n/a	n/a	n/a	n/a	"Trial"	n/a	n/a	n/a	"518"	"arrowleft"	n/a	"NULL"	"NULL"	"NULL"	"stimuli/VerticalHorizontal_28.75714_-0.1096.png"	n/a	"VerticalHorizontal"	"arrowright"	"1408"	"FALSE"	"VerticalHorizontal"	"28.757140000"	"-0.109600000"	"2"	"25"
n/a	"html-keyboard-response"	"234"	"419740"	"0.0-6.0-2.0-0.25"	"pm88c0"	"600"	"1366"	"chrome"	"109.0.0"	"FALSE"	"Windows 10"	"60.2"	"014"	n/a	n/a	n/a	n/a	n/a	n/a	"fixation"	n/a	n/a	n/a	n/a	"NULL"	n/a	"NULL"	"NULL"	"NULL"	"<p style=\"color: black; font-size: 80px; padding-left: 21%; padding-right: 10%; padding-top: 11%; padding-bottom: 6%\">+</p>"	"1236"	n/a	n/a	n/a	n/a	n/a	n/a	n/a	n/a	n/a
n/a	"image-keyboard-response"	"235"	"420386"	"0.0-6.0-2.0-1.25"	"pm88c0"	"600"	"1366"	"chrome"	"109.0.0"	"FALSE"	"Windows 10"	"60.2"	"014"	n/a	n/a	n/a	n/a	n/a	n/a	"Trial"	n/a	n/a	n/a	"645"	"arrowleft"	n/a	"NULL"	"NULL"	"NULL"	"stimuli/VerticalHorizontal_-11.78571_0.06730.png"	n/a	"VerticalHorizontal"	"arrowleft"	"1242"	"TRUE"	"VerticalHorizontal"	"-11.78571000"	"0.0673000000"	"2"	"26"
n/a	"html-keyboard-response"	"236"	"421622"	"0.0-6.0-2.0-0.26"	"pm88c0"	"600"	"1366"	"chrome"	"109.0.0"	"FALSE"	"Windows 10"	"60.2"	"014"	n/a	n/a	n/a	n/a	n/a	n/a	"fixation"	n/a	n/a	n/a	n/a	"NULL"	n/a	"NULL"	"NULL"	"NULL"	"<p style=\"color: black; font-size: 80px; padding-left: 39%; padding-right: 11%; padding-top: 27%; padding-bottom: 49%\">+</p>"	"1218"	n/a	n/a	n/a	n/a	n/a	n/a	n/a	n/a	n/a
n/a	"image-keyboard-response"	"237"	"422064"	"0.0-6.0-2.0-1.26"	"pm88c0"	"600"	"1366"	"chrome"	"109.0.0"	"FALSE"	"Windows 10"	"60.2"	"014"	n/a	n/a	n/a	n/a	n/a	n/a	"Trial"	n/a	n/a	n/a	"442"	"arrowleft"	n/a	"NULL"	"NULL"	"NULL"	"stimuli/VerticalHorizontal_-28.75714_0.16217.png"	n/a	"VerticalHorizontal"	"arrowleft"	"1236"	"TRUE"	"VerticalHorizontal"	"-28.75714000"	"0.1621700000"	"2"	"27"
n/a	"html-keyboard-response"	"238"	"423548"	"0.0-6.0-2.0-0.27"	"pm88c0"	"600"	"1366"	"chrome"	"109.0.0"	"FALSE"	"Windows 10"	"60.2"	"014"	n/a	n/a	n/a	n/a	n/a	n/a	"fixation"	n/a	n/a	n/a	n/a	"NULL"	n/a	"NULL"	"NULL"	"NULL"	"<p style=\"color: black; font-size: 80px; padding-left: 39%; padding-right: 42%; padding-top: 45%; padding-bottom: 39%\">+</p>"	"1466"	n/a	n/a	n/a	n/a	n/a	n/a	n/a	n/a	n/a
n/a	"image-keyboard-response"	"239"	"423979"	"0.0-6.0-2.0-1.27"	"pm88c0"	"600"	"1366"	"chrome"	"109.0.0"	"FALSE"	"Windows 10"	"60.2"	"014"	n/a	n/a	n/a	n/a	n/a	n/a	"Trial"	n/a	n/a	n/a	"430"	"arrowleft"	n/a	"NULL"	"NULL"	"NULL"	"stimuli/VerticalHorizontal_-11.78571_0.22500.png"	n/a	"VerticalHorizontal"	"arrowleft"	"1484"	"TRUE"	"VerticalHorizontal"	"-11.78571000"	"0.2250000000"	"2"	"28"
n/a	"html-keyboard-response"	"240"	"425379"	"0.0-6.0-2.0-0.28"	"pm88c0"	"600"	"1366"	"chrome"	"109.0.0"	"FALSE"	"Windows 10"	"60.2"	"014"	n/a	n/a	n/a	n/a	n/a	n/a	"fixation"	n/a	n/a	n/a	n/a	"NULL"	n/a	"NULL"	"NULL"	"NULL"	"<p style=\"color: black; font-size: 80px; padding-left: 6%; padding-right: 45%; padding-top: 44%; padding-bottom: 11%\">+</p>"	"1389"	n/a	n/a	n/a	n/a	n/a	n/a	n/a	n/a	n/a
n/a	"image-keyboard-response"	"241"	"425925"	"0.0-6.0-2.0-1.28"	"pm88c0"	"600"	"1366"	"chrome"	"109.0.0"	"FALSE"	"Windows 10"	"60.2"	"014"	n/a	n/a	n/a	n/a	n/a	n/a	"Trial"	n/a	n/a	n/a	"545"	"arrowright"	n/a	"NULL"	"NULL"	"NULL"	"stimuli/VerticalHorizontal_3.30000_-0.2250.png"	n/a	"VerticalHorizontal"	"arrowright"	"1400"	"TRUE"	"VerticalHorizontal"	"3.3000000000"	"-0.225000000"	"2"	"29"
n/a	"html-keyboard-response"	"242"	"427154"	"0.0-6.0-2.0-0.29"	"pm88c0"	"600"	"1366"	"chrome"	"109.0.0"	"FALSE"	"Windows 10"	"60.2"	"014"	n/a	n/a	n/a	n/a	n/a	n/a	"fixation"	n/a	n/a	n/a	n/a	"NULL"	n/a	"NULL"	"NULL"	"NULL"	"<p style=\"color: black; font-size: 80px; padding-left: 9%; padding-right: 14%; padding-top: 42%; padding-bottom: 27%\">+</p>"	"1219"	n/a	n/a	n/a	n/a	n/a	n/a	n/a	n/a	n/a
n/a	"image-keyboard-response"	"243"	"427898"	"0.0-6.0-2.0-1.29"	"pm88c0"	"600"	"1366"	"chrome"	"109.0.0"	"FALSE"	"Windows 10"	"60.2"	"014"	n/a	n/a	n/a	n/a	n/a	n/a	"Trial"	n/a	n/a	n/a	"743"	"arrowright"	n/a	"NULL"	"NULL"	"NULL"	"stimuli/VerticalHorizontal_28.75714_0.22500.png"	n/a	"VerticalHorizontal"	"arrowleft"	"1229"	"FALSE"	"VerticalHorizontal"	"28.757140000"	"0.2250000000"	"2"	"30"
n/a	"html-keyboard-response"	"244"	"429139"	"0.0-6.0-2.0-0.30"	"pm88c0"	"600"	"1366"	"chrome"	"109.0.0"	"FALSE"	"Windows 10"	"60.2"	"014"	n/a	n/a	n/a	n/a	n/a	n/a	"fixation"	n/a	n/a	n/a	n/a	"NULL"	n/a	"NULL"	"NULL"	"NULL"	"<p style=\"color: black; font-size: 80px; padding-left: 0%; padding-right: 42%; padding-top: 41%; padding-bottom: 1%\">+</p>"	"1224"	n/a	n/a	n/a	n/a	n/a	n/a	n/a	n/a	n/a
n/a	"image-keyboard-response"	"245"	"429839"	"0.0-6.0-2.0-1.30"	"pm88c0"	"600"	"1366"	"chrome"	"109.0.0"	"FALSE"	"Windows 10"	"60.2"	"014"	n/a	n/a	n/a	n/a	n/a	n/a	"Trial"	n/a	n/a	n/a	"699"	"arrowright"	n/a	"NULL"	"NULL"	"NULL"	"stimuli/VerticalHorizontal_28.75714_-0.0673.png"	n/a	"VerticalHorizontal"	"arrowright"	"1241"	"TRUE"	"VerticalHorizontal"	"28.757140000"	"-0.067300000"	"2"	"31"
n/a	"html-keyboard-response"	"246"	"431202"	"0.0-6.0-2.0-0.31"	"pm88c0"	"600"	"1366"	"chrome"	"109.0.0"	"FALSE"	"Windows 10"	"60.2"	"014"	n/a	n/a	n/a	n/a	n/a	n/a	"fixation"	n/a	n/a	n/a	n/a	"NULL"	n/a	"NULL"	"NULL"	"NULL"	"<p style=\"color: black; font-size: 80px; padding-left: 7%; padding-right: 45%; padding-top: 8%; padding-bottom: 4%\">+</p>"	"1348"	n/a	n/a	n/a	n/a	n/a	n/a	n/a	n/a	n/a
n/a	"image-keyboard-response"	"247"	"431987"	"0.0-6.0-2.0-1.31"	"pm88c0"	"600"	"1366"	"chrome"	"109.0.0"	"FALSE"	"Windows 10"	"60.2"	"014"	n/a	n/a	n/a	n/a	n/a	n/a	"Trial"	n/a	n/a	n/a	"782"	"arrowright"	n/a	"NULL"	"NULL"	"NULL"	"stimuli/VerticalHorizontal_28.75714_0.16217.png"	n/a	"VerticalHorizontal"	"arrowleft"	"1363"	"FALSE"	"VerticalHorizontal"	"28.757140000"	"0.1621700000"	"2"	"32"
n/a	"html-keyboard-response"	"248"	"433482"	"0.0-6.0-2.0-0.32"	"pm88c0"	"600"	"1366"	"chrome"	"109.0.0"	"FALSE"	"Windows 10"	"60.2"	"014"	n/a	n/a	n/a	n/a	n/a	n/a	"fixation"	n/a	n/a	n/a	n/a	"NULL"	n/a	"NULL"	"NULL"	"NULL"	"<p style=\"color: black; font-size: 80px; padding-left: 27%; padding-right: 44%; padding-top: 8%; padding-bottom: 49%\">+</p>"	"1489"	n/a	n/a	n/a	n/a	n/a	n/a	n/a	n/a	n/a
n/a	"image-keyboard-response"	"249"	"434227"	"0.0-6.0-2.0-1.32"	"pm88c0"	"600"	"1366"	"chrome"	"109.0.0"	"FALSE"	"Windows 10"	"60.2"	"014"	n/a	n/a	n/a	n/a	n/a	n/a	"Trial"	n/a	n/a	n/a	"744"	"arrowleft"	n/a	"NULL"	"NULL"	"NULL"	"stimuli/VerticalHorizontal_3.30000_0.22500.png"	n/a	"VerticalHorizontal"	"arrowleft"	"1495"	"TRUE"	"VerticalHorizontal"	"3.3000000000"	"0.2250000000"	"2"	"33"
n/a	"html-keyboard-response"	"250"	"435694"	"0.0-6.0-2.0-0.33"	"pm88c0"	"600"	"1366"	"chrome"	"109.0.0"	"FALSE"	"Windows 10"	"60.2"	"014"	n/a	n/a	n/a	n/a	n/a	n/a	"fixation"	n/a	n/a	n/a	n/a	"NULL"	n/a	"NULL"	"NULL"	"NULL"	"<p style=\"color: black; font-size: 80px; padding-left: 6%; padding-right: 30%; padding-top: 26%; padding-bottom: 30%\">+</p>"	"1457"	n/a	n/a	n/a	n/a	n/a	n/a	n/a	n/a	n/a
n/a	"image-keyboard-response"	"251"	"436325"	"0.0-6.0-2.0-1.33"	"pm88c0"	"600"	"1366"	"chrome"	"109.0.0"	"FALSE"	"Windows 10"	"60.2"	"014"	n/a	n/a	n/a	n/a	n/a	n/a	"Trial"	n/a	n/a	n/a	"630"	"arrowright"	n/a	"NULL"	"NULL"	"NULL"	"stimuli/VerticalHorizontal_20.27143_-0.1096.png"	n/a	"VerticalHorizontal"	"arrowright"	"1467"	"TRUE"	"VerticalHorizontal"	"20.271430000"	"-0.109600000"	"2"	"34"
