"success"	"trial_type"	"trial_index"	"time_elapsed"	"internal_node_id"	"participant_id"	"screen_height"	"screen_width"	"browser"	"browser_version"	"mobile"	"os"	"vsync_rate"	"subject_id"	"width"	"height"	"webaudio"	"fullscreen"	"webcam"	"microphone"	"screen"	"version"	"date"	"time"	"rt"	"response"	"timeout"	"failed_images"	"failed_audio"	"failed_video"	"stimulus"	"trial_duration"	"block"	"correct_response"	"prestimulus_duration"	"correct"	"type"	"illusion_strength"	"illusion_difference"	"block_number"	"trial_number"
"TRUE"	"fullscreen"	"0"	"18527"	"0.0-0.0"	"c0qqt7"	"600"	"1366"	"chrome"	"109.0.0"	"FALSE"	"Windows 10"	"60.63"	"151"	n/a	n/a	n/a	n/a	n/a	n/a	n/a	n/a	n/a	n/a	n/a	"NULL"	n/a	"NULL"	"NULL"	"NULL"	n/a	n/a	n/a	n/a	n/a	n/a	n/a	n/a	n/a	n/a	n/a
n/a	"browser-check"	"1"	"19532"	"0.0-1.0"	"c0qqt7"	"600"	"1366"	"chrome"	"109.0.0"	"FALSE"	"Windows 10"	"60.63"	"151"	"1366"	"600"	"TRUE"	"TRUE"	"TRUE"	"TRUE"	"browser_info"	"1.0"	"14/01/2023"	"14:52:53"	n/a	"NULL"	n/a	"NULL"	"NULL"	"NULL"	n/a	n/a	n/a	n/a	n/a	n/a	n/a	n/a	n/a	n/a	n/a
n/a	"survey-text"	"2"	"24678"	"0.0-2.0"	"c0qqt7"	"600"	"1366"	"chrome"	"109.0.0"	"FALSE"	"Windows 10"	"60.63"	"151"	n/a	n/a	n/a	n/a	n/a	n/a	"subject_id"	n/a	n/a	n/a	"5141"	"list(subject_id = \"151\")"	n/a	"NULL"	"NULL"	"NULL"	n/a	n/a	n/a	n/a	n/a	n/a	n/a	n/a	n/a	n/a	n/a
"TRUE"	"preload"	"3"	"24689"	"0.0-3.0"	"c0qqt7"	"600"	"1366"	"chrome"	"109.0.0"	"FALSE"	"Windows 10"	"60.63"	"151"	n/a	n/a	n/a	n/a	n/a	n/a	n/a	n/a	n/a	n/a	n/a	"NULL"	"FALSE"	"list()"	"list()"	"list()"	n/a	n/a	n/a	n/a	n/a	n/a	n/a	n/a	n/a	n/a	n/a
n/a	"html-button-response"	"4"	"36030"	"0.0-4.0-0.0"	"c0qqt7"	"600"	"1366"	"chrome"	"109.0.0"	"FALSE"	"Windows 10"	"60.63"	"151"	n/a	n/a	n/a	n/a	n/a	n/a	"illusion_instructions"	n/a	n/a	n/a	"11339"	"0"	n/a	"NULL"	"NULL"	"NULL"	"<p><b>Illusion Game</b></p><p>In this game of speed and reflex, you will need to make <b>visual judgments</b> (for instance, which circle is the biggest, or which line is the longest), as fast and as correctly as possible, while <b>resisting different visual illusions</b>.</p><p>We are going to start with some examples of all the illusions you will encounter in the game.</p>"	n/a	n/a	n/a	n/a	n/a	n/a	n/a	n/a	n/a	n/a
"TRUE"	"preload"	"5"	"36046"	"0.0-4.0-1.0-0.0"	"c0qqt7"	"600"	"1366"	"chrome"	"109.0.0"	"FALSE"	"Windows 10"	"60.63"	"151"	n/a	n/a	n/a	n/a	n/a	n/a	n/a	n/a	n/a	n/a	n/a	"NULL"	"FALSE"	"list()"	"list()"	"list()"	n/a	n/a	n/a	n/a	n/a	n/a	n/a	n/a	n/a	n/a	n/a
n/a	"html-keyboard-response"	"6"	"58155"	"0.0-4.0-1.0-1.0"	"c0qqt7"	"600"	"1366"	"chrome"	"109.0.0"	"FALSE"	"Windows 10"	"60.63"	"151"	n/a	n/a	n/a	n/a	n/a	n/a	n/a	n/a	n/a	n/a	"22109"	"enter"	n/a	"NULL"	"NULL"	"NULL"	"<p><b>Practice</b></p><p>In this part, two red circles will appear side by side on the screen.</p><p>Your task is to select which <b>red circle is bigger</b> in size as fast as you can, without making errors.</p><p>Don't get distracted by the surrounding black circles around the red circles!</p><p>Press <b>the LEFT or the RIGHT arrow</b> to indicate which is the bigger <b>red circle.</b></p><div style='float: center'><img src='materials/instructions/Ebbinghaus_Demo.png' height='300'></img><p><img src='utils/answer/answer_leftright_keyboard.PNG' height='150'></img></p><p class='small'>In this example, the correct answer is the <b>LEFT arrow</b>.</p></div><p>Are you ready? <b>Press ENTER to start</b></p>"	n/a	n/a	n/a	n/a	n/a	n/a	n/a	n/a	n/a	n/a
n/a	"html-keyboard-response"	"7"	"59768"	"0.0-4.0-1.0-2.0-0.0"	"c0qqt7"	"600"	"1366"	"chrome"	"109.0.0"	"FALSE"	"Windows 10"	"60.63"	"151"	n/a	n/a	n/a	n/a	n/a	n/a	"fixation"	n/a	n/a	n/a	n/a	"NULL"	n/a	"NULL"	"NULL"	"NULL"	"<p style=\"color: black; font-size: 80px; padding-left: 26%; padding-right: 32%; padding-top: 17%; padding-bottom: 25%\">+</p>"	"1084"	n/a	n/a	n/a	n/a	n/a	n/a	n/a	n/a	n/a
n/a	"image-keyboard-response"	"8"	"60794"	"0.0-4.0-1.0-2.0-1.0"	"c0qqt7"	"600"	"1366"	"chrome"	"109.0.0"	"FALSE"	"Windows 10"	"60.63"	"151"	n/a	n/a	n/a	n/a	n/a	n/a	"Trial"	n/a	n/a	n/a	"1000"	"arrowright"	n/a	"NULL"	"NULL"	"NULL"	"stimuli/Ebbinghaus_0000000_-1.4000.png"	n/a	"Ebbinghaus"	"arrowright"	"1613"	"TRUE"	"Ebbinghaus"	"000000000000"	"-1.400000000"	"1"	"1"
n/a	"html-keyboard-response"	"9"	"62193"	"0.0-4.0-1.0-2.0-0.1"	"c0qqt7"	"600"	"1366"	"chrome"	"109.0.0"	"FALSE"	"Windows 10"	"60.63"	"151"	n/a	n/a	n/a	n/a	n/a	n/a	"fixation"	n/a	n/a	n/a	n/a	"NULL"	n/a	"NULL"	"NULL"	"NULL"	"<p style=\"color: black; font-size: 80px; padding-left: 9%; padding-right: 49%; padding-top: 41%; padding-bottom: 23%\">+</p>"	"1383"	n/a	n/a	n/a	n/a	n/a	n/a	n/a	n/a	n/a
n/a	"image-keyboard-response"	"10"	"62704"	"0.0-4.0-1.0-2.0-1.1"	"c0qqt7"	"600"	"1366"	"chrome"	"109.0.0"	"FALSE"	"Windows 10"	"60.63"	"151"	n/a	n/a	n/a	n/a	n/a	n/a	"Trial"	n/a	n/a	n/a	"501"	"arrowleft"	n/a	"NULL"	"NULL"	"NULL"	"stimuli/Ebbinghaus_-100000_1.40000.png"	n/a	"Ebbinghaus"	"arrowleft"	"1399"	"TRUE"	"Ebbinghaus"	"-10000000000"	"1.4000000000"	"1"	"2"
n/a	"html-keyboard-response"	"11"	"63886"	"0.0-4.0-1.0-2.0-0.2"	"c0qqt7"	"600"	"1366"	"chrome"	"109.0.0"	"FALSE"	"Windows 10"	"60.63"	"151"	n/a	n/a	n/a	n/a	n/a	n/a	"fixation"	n/a	n/a	n/a	n/a	"NULL"	n/a	"NULL"	"NULL"	"NULL"	"<p style=\"color: black; font-size: 80px; padding-left: 17%; padding-right: 36%; padding-top: 20%; padding-bottom: 46%\">+</p>"	"1171"	n/a	n/a	n/a	n/a	n/a	n/a	n/a	n/a	n/a
n/a	"image-keyboard-response"	"12"	"64305"	"0.0-4.0-1.0-2.0-1.2"	"c0qqt7"	"600"	"1366"	"chrome"	"109.0.0"	"FALSE"	"Windows 10"	"60.63"	"151"	n/a	n/a	n/a	n/a	n/a	n/a	"Trial"	n/a	n/a	n/a	"418"	"arrowright"	n/a	"NULL"	"NULL"	"NULL"	"stimuli/Ebbinghaus_-100000_-1.4000.png"	n/a	"Ebbinghaus"	"arrowright"	"1182"	"TRUE"	"Ebbinghaus"	"-10000000000"	"-1.400000000"	"1"	"3"
n/a	"html-keyboard-response"	"13"	"65404"	"0.0-4.0-1.0-2.0-0.3"	"c0qqt7"	"600"	"1366"	"chrome"	"109.0.0"	"FALSE"	"Windows 10"	"60.63"	"151"	n/a	n/a	n/a	n/a	n/a	n/a	"fixation"	n/a	n/a	n/a	n/a	"NULL"	n/a	"NULL"	"NULL"	"NULL"	"<p style=\"color: black; font-size: 80px; padding-left: 11%; padding-right: 49%; padding-top: 37%; padding-bottom: 42%\">+</p>"	"1086"	n/a	n/a	n/a	n/a	n/a	n/a	n/a	n/a	n/a
n/a	"image-keyboard-response"	"14"	"65752"	"0.0-4.0-1.0-2.0-1.3"	"c0qqt7"	"600"	"1366"	"chrome"	"109.0.0"	"FALSE"	"Windows 10"	"60.63"	"151"	n/a	n/a	n/a	n/a	n/a	n/a	"Trial"	n/a	n/a	n/a	"346"	"arrowright"	n/a	"NULL"	"NULL"	"NULL"	"stimuli/Ebbinghaus_1000000_-1.4000.png"	n/a	"Ebbinghaus"	"arrowright"	"1099"	"TRUE"	"Ebbinghaus"	"100000000000"	"-1.400000000"	"1"	"4"
n/a	"html-keyboard-response"	"15"	"67198"	"0.0-4.0-1.0-2.0-0.4"	"c0qqt7"	"600"	"1366"	"chrome"	"109.0.0"	"FALSE"	"Windows 10"	"60.63"	"151"	n/a	n/a	n/a	n/a	n/a	n/a	"fixation"	n/a	n/a	n/a	n/a	"NULL"	n/a	"NULL"	"NULL"	"NULL"	"<p style=\"color: black; font-size: 80px; padding-left: 6%; padding-right: 20%; padding-top: 9%; padding-bottom: 36%\">+</p>"	"1435"	n/a	n/a	n/a	n/a	n/a	n/a	n/a	n/a	n/a
n/a	"image-keyboard-response"	"16"	"67719"	"0.0-4.0-1.0-2.0-1.4"	"c0qqt7"	"600"	"1366"	"chrome"	"109.0.0"	"FALSE"	"Windows 10"	"60.63"	"151"	n/a	n/a	n/a	n/a	n/a	n/a	"Trial"	n/a	n/a	n/a	"520"	"arrowleft"	n/a	"NULL"	"NULL"	"NULL"	"stimuli/Ebbinghaus_0000000_1.40000.png"	n/a	"Ebbinghaus"	"arrowleft"	"1446"	"TRUE"	"Ebbinghaus"	"000000000000"	"1.4000000000"	"1"	"5"
n/a	"html-keyboard-response"	"17"	"69071"	"0.0-4.0-1.0-2.0-0.5"	"c0qqt7"	"600"	"1366"	"chrome"	"109.0.0"	"FALSE"	"Windows 10"	"60.63"	"151"	n/a	n/a	n/a	n/a	n/a	n/a	"fixation"	n/a	n/a	n/a	n/a	"NULL"	n/a	"NULL"	"NULL"	"NULL"	"<p style=\"color: black; font-size: 80px; padding-left: 12%; padding-right: 33%; padding-top: 18%; padding-bottom: 13%\">+</p>"	"1338"	n/a	n/a	n/a	n/a	n/a	n/a	n/a	n/a	n/a
n/a	"image-keyboard-response"	"18"	"69564"	"0.0-4.0-1.0-2.0-1.5"	"c0qqt7"	"600"	"1366"	"chrome"	"109.0.0"	"FALSE"	"Windows 10"	"60.63"	"151"	n/a	n/a	n/a	n/a	n/a	n/a	"Trial"	n/a	n/a	n/a	"490"	"arrowleft"	n/a	"NULL"	"NULL"	"NULL"	"stimuli/Ebbinghaus_1000000_1.40000.png"	n/a	"Ebbinghaus"	"arrowleft"	"1352"	"TRUE"	"Ebbinghaus"	"100000000000"	"1.4000000000"	"1"	"6"
n/a	"html-button-response"	"19"	"74862"	"0.0-4.0-1.0-3.0"	"c0qqt7"	"600"	"1366"	"chrome"	"109.0.0"	"FALSE"	"Windows 10"	"60.63"	"151"	n/a	n/a	n/a	n/a	n/a	n/a	"practice_block_results"	n/a	n/a	n/a	"5293"	"0"	n/a	"NULL"	"NULL"	"NULL"	"<p style='color:rgb(76,175,80);'> Correct Responses: <b>100.00%</b></p><hr><p style='color:rgb(233,30,99);'> Average Response Time: <b>545.83</b> ms.</p>"	n/a	n/a	n/a	n/a	n/a	n/a	n/a	n/a	n/a	n/a
"TRUE"	"preload"	"20"	"75409"	"0.0-4.0-2.0-0.0"	"c0qqt7"	"600"	"1366"	"chrome"	"109.0.0"	"FALSE"	"Windows 10"	"60.63"	"151"	n/a	n/a	n/a	n/a	n/a	n/a	n/a	n/a	n/a	n/a	n/a	"NULL"	"FALSE"	"list()"	"list()"	"list()"	n/a	n/a	n/a	n/a	n/a	n/a	n/a	n/a	n/a	n/a	n/a
n/a	"html-keyboard-response"	"21"	"88126"	"0.0-4.0-2.0-1.0"	"c0qqt7"	"600"	"1366"	"chrome"	"109.0.0"	"FALSE"	"Windows 10"	"60.63"	"151"	n/a	n/a	n/a	n/a	n/a	n/a	n/a	n/a	n/a	n/a	"12717"	"enter"	n/a	"NULL"	"NULL"	"NULL"	"<p><b>Practice</b></p><p>In this part, two horizontal red lines will appear one above the other.</p><p>Your task is to select which <b>line is longer</b> in length as fast as you can, without making errors.</p><p>Don't get distracted by the surrounding black arrows at the end of the red lines!</p><p>Press <b>the UP or the DOWN arrow</b> to indicate where is the longer <b>red line.</b></p><div style='float: center'><img src='materials/instructions/MullerLyer_Demo.png' height='300'></img><p><img src='utils/answer/answer_updown_keyboard.PNG' height='150'></img></p><p class='small'>In this example, the correct answer is the <b>UP arrow</b>.</p></div><p>Are you ready? <b>Press ENTER to start</b></p>"	n/a	n/a	n/a	n/a	n/a	n/a	n/a	n/a	n/a	n/a
n/a	"html-keyboard-response"	"22"	"89811"	"0.0-4.0-2.0-2.0-0.0"	"c0qqt7"	"600"	"1366"	"chrome"	"109.0.0"	"FALSE"	"Windows 10"	"60.63"	"151"	n/a	n/a	n/a	n/a	n/a	n/a	"fixation"	n/a	n/a	n/a	n/a	"NULL"	n/a	"NULL"	"NULL"	"NULL"	"<p style=\"color: black; font-size: 80px; padding-left: 41%; padding-right: 37%; padding-top: 45%; padding-bottom: 10%\">+</p>"	"1170"	n/a	n/a	n/a	n/a	n/a	n/a	n/a	n/a	n/a
n/a	"image-keyboard-response"	"23"	"91173"	"0.0-4.0-2.0-2.0-1.0"	"c0qqt7"	"600"	"1366"	"chrome"	"109.0.0"	"FALSE"	"Windows 10"	"60.63"	"151"	n/a	n/a	n/a	n/a	n/a	n/a	"Trial"	n/a	n/a	n/a	"1361"	"arrowup"	n/a	"NULL"	"NULL"	"NULL"	"stimuli/MullerLyer_2300000_0.70000.png"	n/a	"MullerLyer"	"arrowup"	"1685"	"TRUE"	"MullerLyer"	"230000000000"	"0.7000000000"	"1"	"7"
n/a	"html-keyboard-response"	"24"	"92325"	"0.0-4.0-2.0-2.0-0.1"	"c0qqt7"	"600"	"1366"	"chrome"	"109.0.0"	"FALSE"	"Windows 10"	"60.63"	"151"	n/a	n/a	n/a	n/a	n/a	n/a	"fixation"	n/a	n/a	n/a	n/a	"NULL"	n/a	"NULL"	"NULL"	"NULL"	"<p style=\"color: black; font-size: 80px; padding-left: 42%; padding-right: 27%; padding-top: 22%; padding-bottom: 25%\">+</p>"	"1146"	n/a	n/a	n/a	n/a	n/a	n/a	n/a	n/a	n/a
n/a	"image-keyboard-response"	"25"	"92852"	"0.0-4.0-2.0-2.0-1.1"	"c0qqt7"	"600"	"1366"	"chrome"	"109.0.0"	"FALSE"	"Windows 10"	"60.63"	"151"	n/a	n/a	n/a	n/a	n/a	n/a	"Trial"	n/a	n/a	n/a	"525"	"arrowup"	n/a	"NULL"	"NULL"	"NULL"	"stimuli/MullerLyer_-230000_0.70000.png"	n/a	"MullerLyer"	"arrowup"	"1152"	"TRUE"	"MullerLyer"	"-23000000000"	"0.7000000000"	"1"	"8"
n/a	"html-keyboard-response"	"26"	"93876"	"0.0-4.0-2.0-2.0-0.2"	"c0qqt7"	"600"	"1366"	"chrome"	"109.0.0"	"FALSE"	"Windows 10"	"60.63"	"151"	n/a	n/a	n/a	n/a	n/a	n/a	"fixation"	n/a	n/a	n/a	n/a	"NULL"	n/a	"NULL"	"NULL"	"NULL"	"<p style=\"color: black; font-size: 80px; padding-left: 10%; padding-right: 11%; padding-top: 17%; padding-bottom: 33%\">+</p>"	"1011"	n/a	n/a	n/a	n/a	n/a	n/a	n/a	n/a	n/a
n/a	"image-keyboard-response"	"27"	"94217"	"0.0-4.0-2.0-2.0-1.2"	"c0qqt7"	"600"	"1366"	"chrome"	"109.0.0"	"FALSE"	"Windows 10"	"60.63"	"151"	n/a	n/a	n/a	n/a	n/a	n/a	"Trial"	n/a	n/a	n/a	"340"	"arrowup"	n/a	"NULL"	"NULL"	"NULL"	"stimuli/MullerLyer_0000000_0.70000.png"	n/a	"MullerLyer"	"arrowup"	"1024"	"TRUE"	"MullerLyer"	"000000000000"	"0.7000000000"	"1"	"9"
n/a	"html-keyboard-response"	"28"	"95658"	"0.0-4.0-2.0-2.0-0.3"	"c0qqt7"	"600"	"1366"	"chrome"	"109.0.0"	"FALSE"	"Windows 10"	"60.63"	"151"	n/a	n/a	n/a	n/a	n/a	n/a	"fixation"	n/a	n/a	n/a	n/a	"NULL"	n/a	"NULL"	"NULL"	"NULL"	"<p style=\"color: black; font-size: 80px; padding-left: 48%; padding-right: 39%; padding-top: 0%; padding-bottom: 8%\">+</p>"	"1433"	n/a	n/a	n/a	n/a	n/a	n/a	n/a	n/a	n/a
n/a	"image-keyboard-response"	"29"	"95984"	"0.0-4.0-2.0-2.0-1.3"	"c0qqt7"	"600"	"1366"	"chrome"	"109.0.0"	"FALSE"	"Windows 10"	"60.63"	"151"	n/a	n/a	n/a	n/a	n/a	n/a	"Trial"	n/a	n/a	n/a	"324"	"arrowup"	n/a	"NULL"	"NULL"	"NULL"	"stimuli/MullerLyer_-230000_-0.7000.png"	n/a	"MullerLyer"	"arrowdown"	"1441"	"FALSE"	"MullerLyer"	"-23000000000"	"-0.700000000"	"1"	"10"
n/a	"html-keyboard-response"	"30"	"97268"	"0.0-4.0-2.0-2.0-0.4"	"c0qqt7"	"600"	"1366"	"chrome"	"109.0.0"	"FALSE"	"Windows 10"	"60.63"	"151"	n/a	n/a	n/a	n/a	n/a	n/a	"fixation"	n/a	n/a	n/a	n/a	"NULL"	n/a	"NULL"	"NULL"	"NULL"	"<p style=\"color: black; font-size: 80px; padding-left: 47%; padding-right: 41%; padding-top: 30%; padding-bottom: 46%\">+</p>"	"1266"	n/a	n/a	n/a	n/a	n/a	n/a	n/a	n/a	n/a
n/a	"image-keyboard-response"	"31"	"97839"	"0.0-4.0-2.0-2.0-1.4"	"c0qqt7"	"600"	"1366"	"chrome"	"109.0.0"	"FALSE"	"Windows 10"	"60.63"	"151"	n/a	n/a	n/a	n/a	n/a	n/a	"Trial"	n/a	n/a	n/a	"569"	"arrowdown"	n/a	"NULL"	"NULL"	"NULL"	"stimuli/MullerLyer_2300000_-0.7000.png"	n/a	"MullerLyer"	"arrowdown"	"1284"	"TRUE"	"MullerLyer"	"230000000000"	"-0.700000000"	"1"	"11"
n/a	"html-keyboard-response"	"32"	"99097"	"0.0-4.0-2.0-2.0-0.5"	"c0qqt7"	"600"	"1366"	"chrome"	"109.0.0"	"FALSE"	"Windows 10"	"60.63"	"151"	n/a	n/a	n/a	n/a	n/a	n/a	"fixation"	n/a	n/a	n/a	n/a	"NULL"	n/a	"NULL"	"NULL"	"NULL"	"<p style=\"color: black; font-size: 80px; padding-left: 6%; padding-right: 25%; padding-top: 43%; padding-bottom: 3%\">+</p>"	"1238"	n/a	n/a	n/a	n/a	n/a	n/a	n/a	n/a	n/a
n/a	"image-keyboard-response"	"33"	"99458"	"0.0-4.0-2.0-2.0-1.5"	"c0qqt7"	"600"	"1366"	"chrome"	"109.0.0"	"FALSE"	"Windows 10"	"60.63"	"151"	n/a	n/a	n/a	n/a	n/a	n/a	"Trial"	n/a	n/a	n/a	"360"	"arrowdown"	n/a	"NULL"	"NULL"	"NULL"	"stimuli/MullerLyer_0000000_-0.7000.png"	n/a	"MullerLyer"	"arrowdown"	"1258"	"TRUE"	"MullerLyer"	"000000000000"	"-0.700000000"	"1"	"12"
n/a	"html-button-response"	"34"	"103558"	"0.0-4.0-2.0-3.0"	"c0qqt7"	"600"	"1366"	"chrome"	"109.0.0"	"FALSE"	"Windows 10"	"60.63"	"151"	n/a	n/a	n/a	n/a	n/a	n/a	"practice_block_results"	n/a	n/a	n/a	"4097"	"0"	n/a	"NULL"	"NULL"	"NULL"	"<p style='color:rgb(76,175,80);'> Correct Responses: <b>83.33%</b></p><hr><p style='color:rgb(233,30,99);'> Average Response Time: <b>579.83</b> ms.</p>"	n/a	n/a	n/a	n/a	n/a	n/a	n/a	n/a	n/a	n/a
"TRUE"	"preload"	"35"	"104104"	"0.0-4.0-3.0-0.0"	"c0qqt7"	"600"	"1366"	"chrome"	"109.0.0"	"FALSE"	"Windows 10"	"60.63"	"151"	n/a	n/a	n/a	n/a	n/a	n/a	n/a	n/a	n/a	n/a	n/a	"NULL"	"FALSE"	"list()"	"list()"	"list()"	n/a	n/a	n/a	n/a	n/a	n/a	n/a	n/a	n/a	n/a	n/a
n/a	"html-keyboard-response"	"36"	"115893"	"0.0-4.0-3.0-1.0"	"c0qqt7"	"600"	"1366"	"chrome"	"109.0.0"	"FALSE"	"Windows 10"	"60.63"	"151"	n/a	n/a	n/a	n/a	n/a	n/a	n/a	n/a	n/a	n/a	"11788"	"enter"	n/a	"NULL"	"NULL"	"NULL"	"<p><b>Practice</b></p><p>In this part, two red lines will appear side by side.</p><p>Your task is to tell <b>which line is longer</b> in length, regardless of their orientation, as fast as you can, and without making errors.</p><p>Don't get distracted by the orientation of the lines!</p><p>Press <b>the LEFT or the RIGHT arrow</b> to indicate which <b>line is the longer one.</b></p><div style='float: center'><img src='materials/instructions/VerticalHorizontal_Demo.png' height='300'></img><p><img src='utils/answer/answer_leftright_keyboard.PNG' height='150'></img></p><p class='small'>In this example, the correct answer is the <b>LEFT arrow</b>.</p></div><p>Are you ready? <b>Press ENTER to start</b></p>"	n/a	n/a	n/a	n/a	n/a	n/a	n/a	n/a	n/a	n/a
n/a	"html-keyboard-response"	"37"	"117621"	"0.0-4.0-3.0-2.0-0.0"	"c0qqt7"	"600"	"1366"	"chrome"	"109.0.0"	"FALSE"	"Windows 10"	"60.63"	"151"	n/a	n/a	n/a	n/a	n/a	n/a	"fixation"	n/a	n/a	n/a	n/a	"NULL"	n/a	"NULL"	"NULL"	"NULL"	"<p style=\"color: black; font-size: 80px; padding-left: 35%; padding-right: 49%; padding-top: 6%; padding-bottom: 29%\">+</p>"	"1200"	n/a	n/a	n/a	n/a	n/a	n/a	n/a	n/a	n/a
n/a	"image-keyboard-response"	"38"	"118707"	"0.0-4.0-3.0-2.0-1.0"	"c0qqt7"	"600"	"1366"	"chrome"	"109.0.0"	"FALSE"	"Windows 10"	"60.63"	"151"	n/a	n/a	n/a	n/a	n/a	n/a	"Trial"	n/a	n/a	n/a	"1086"	"arrowleft"	n/a	"NULL"	"NULL"	"NULL"	"stimuli/VerticalHorizontal_0000000_0.90000.png"	n/a	"VerticalHorizontal"	"arrowleft"	"1728"	"TRUE"	"VerticalHorizontal"	"000000000000"	"0.9000000000"	"1"	"13"
n/a	"html-keyboard-response"	"39"	"120107"	"0.0-4.0-3.0-2.0-0.1"	"c0qqt7"	"600"	"1366"	"chrome"	"109.0.0"	"FALSE"	"Windows 10"	"60.63"	"151"	n/a	n/a	n/a	n/a	n/a	n/a	"fixation"	n/a	n/a	n/a	n/a	"NULL"	n/a	"NULL"	"NULL"	"NULL"	"<p style=\"color: black; font-size: 80px; padding-left: 4%; padding-right: 9%; padding-top: 4%; padding-bottom: 24%\">+</p>"	"1391"	n/a	n/a	n/a	n/a	n/a	n/a	n/a	n/a	n/a
n/a	"image-keyboard-response"	"40"	"120550"	"0.0-4.0-3.0-2.0-1.1"	"c0qqt7"	"600"	"1366"	"chrome"	"109.0.0"	"FALSE"	"Windows 10"	"60.63"	"151"	n/a	n/a	n/a	n/a	n/a	n/a	"Trial"	n/a	n/a	n/a	"440"	"arrowleft"	n/a	"NULL"	"NULL"	"NULL"	"stimuli/VerticalHorizontal_-330000_0.90000.png"	n/a	"VerticalHorizontal"	"arrowleft"	"1400"	"TRUE"	"VerticalHorizontal"	"-33000000000"	"0.9000000000"	"1"	"14"
n/a	"html-keyboard-response"	"41"	"121837"	"0.0-4.0-3.0-2.0-0.2"	"c0qqt7"	"600"	"1366"	"chrome"	"109.0.0"	"FALSE"	"Windows 10"	"60.63"	"151"	n/a	n/a	n/a	n/a	n/a	n/a	"fixation"	n/a	n/a	n/a	n/a	"NULL"	n/a	"NULL"	"NULL"	"NULL"	"<p style=\"color: black; font-size: 80px; padding-left: 8%; padding-right: 36%; padding-top: 41%; padding-bottom: 3%\">+</p>"	"1271"	n/a	n/a	n/a	n/a	n/a	n/a	n/a	n/a	n/a
n/a	"image-keyboard-response"	"42"	"122204"	"0.0-4.0-3.0-2.0-1.2"	"c0qqt7"	"600"	"1366"	"chrome"	"109.0.0"	"FALSE"	"Windows 10"	"60.63"	"151"	n/a	n/a	n/a	n/a	n/a	n/a	"Trial"	n/a	n/a	n/a	"365"	"arrowright"	n/a	"NULL"	"NULL"	"NULL"	"stimuli/VerticalHorizontal_-330000_-0.9000.png"	n/a	"VerticalHorizontal"	"arrowright"	"1287"	"TRUE"	"VerticalHorizontal"	"-33000000000"	"-0.900000000"	"1"	"15"
n/a	"html-keyboard-response"	"43"	"123346"	"0.0-4.0-3.0-2.0-0.3"	"c0qqt7"	"600"	"1366"	"chrome"	"109.0.0"	"FALSE"	"Windows 10"	"60.63"	"151"	n/a	n/a	n/a	n/a	n/a	n/a	"fixation"	n/a	n/a	n/a	n/a	"NULL"	n/a	"NULL"	"NULL"	"NULL"	"<p style=\"color: black; font-size: 80px; padding-left: 2%; padding-right: 13%; padding-top: 26%; padding-bottom: 33%\">+</p>"	"1127"	n/a	n/a	n/a	n/a	n/a	n/a	n/a	n/a	n/a
n/a	"image-keyboard-response"	"44"	"123757"	"0.0-4.0-3.0-2.0-1.3"	"c0qqt7"	"600"	"1366"	"chrome"	"109.0.0"	"FALSE"	"Windows 10"	"60.63"	"151"	n/a	n/a	n/a	n/a	n/a	n/a	"Trial"	n/a	n/a	n/a	"410"	"arrowright"	n/a	"NULL"	"NULL"	"NULL"	"stimuli/VerticalHorizontal_3300000_-0.9000.png"	n/a	"VerticalHorizontal"	"arrowright"	"1142"	"TRUE"	"VerticalHorizontal"	"330000000000"	"-0.900000000"	"1"	"16"
n/a	"html-keyboard-response"	"45"	"125231"	"0.0-4.0-3.0-2.0-0.4"	"c0qqt7"	"600"	"1366"	"chrome"	"109.0.0"	"FALSE"	"Windows 10"	"60.63"	"151"	n/a	n/a	n/a	n/a	n/a	n/a	"fixation"	n/a	n/a	n/a	n/a	"NULL"	n/a	"NULL"	"NULL"	"NULL"	"<p style=\"color: black; font-size: 80px; padding-left: 11%; padding-right: 5%; padding-top: 45%; padding-bottom: 5%\">+</p>"	"1458"	n/a	n/a	n/a	n/a	n/a	n/a	n/a	n/a	n/a
n/a	"image-keyboard-response"	"46"	"125749"	"0.0-4.0-3.0-2.0-1.4"	"c0qqt7"	"600"	"1366"	"chrome"	"109.0.0"	"FALSE"	"Windows 10"	"60.63"	"151"	n/a	n/a	n/a	n/a	n/a	n/a	"Trial"	n/a	n/a	n/a	"517"	"arrowleft"	n/a	"NULL"	"NULL"	"NULL"	"stimuli/VerticalHorizontal_3300000_0.90000.png"	n/a	"VerticalHorizontal"	"arrowleft"	"1474"	"TRUE"	"VerticalHorizontal"	"330000000000"	"0.9000000000"	"1"	"17"
n/a	"html-keyboard-response"	"47"	"126883"	"0.0-4.0-3.0-2.0-0.5"	"c0qqt7"	"600"	"1366"	"chrome"	"109.0.0"	"FALSE"	"Windows 10"	"60.63"	"151"	n/a	n/a	n/a	n/a	n/a	n/a	"fixation"	n/a	n/a	n/a	n/a	"NULL"	n/a	"NULL"	"NULL"	"NULL"	"<p style=\"color: black; font-size: 80px; padding-left: 5%; padding-right: 50%; padding-top: 32%; padding-bottom: 12%\">+</p>"	"1123"	n/a	n/a	n/a	n/a	n/a	n/a	n/a	n/a	n/a
n/a	"image-keyboard-response"	"48"	"127231"	"0.0-4.0-3.0-2.0-1.5"	"c0qqt7"	"600"	"1366"	"chrome"	"109.0.0"	"FALSE"	"Windows 10"	"60.63"	"151"	n/a	n/a	n/a	n/a	n/a	n/a	"Trial"	n/a	n/a	n/a	"346"	"arrowright"	n/a	"NULL"	"NULL"	"NULL"	"stimuli/VerticalHorizontal_0000000_-0.9000.png"	n/a	"VerticalHorizontal"	"arrowright"	"1134"	"TRUE"	"VerticalHorizontal"	"000000000000"	"-0.900000000"	"1"	"18"
n/a	"html-button-response"	"49"	"137886"	"0.0-4.0-3.0-3.0"	"c0qqt7"	"600"	"1366"	"chrome"	"109.0.0"	"FALSE"	"Windows 10"	"60.63"	"151"	n/a	n/a	n/a	n/a	n/a	n/a	"practice_block_results"	n/a	n/a	n/a	"10648"	"0"	n/a	"NULL"	"NULL"	"NULL"	"<p style='color:rgb(76,175,80);'> Correct Responses: <b>100.00%</b></p><hr><p style='color:rgb(233,30,99);'> Average Response Time: <b>527.33</b> ms.</p>"	n/a	n/a	n/a	n/a	n/a	n/a	n/a	n/a	n/a	n/a
n/a	"html-button-response"	"50"	"234430"	"0.0-4.0-4.0"	"c0qqt7"	"600"	"1366"	"chrome"	"109.0.0"	"FALSE"	"Windows 10"	"60.63"	"151"	n/a	n/a	n/a	n/a	n/a	n/a	"practice_debrief"	n/a	n/a	n/a	"96040"	"0"	n/a	"NULL"	"NULL"	"NULL"	"<p><b>TRAINING COMPLETED</b></p><p>In the next phase, there will be more trials, and some might be harder too.<br> Moreover, after each illusion block, a <b>score</b> will be calculated based on speed (time you took to answer) and accuracy (number of errors).</p><p>Try to keep up a high score!</p><br><p>Note that it can be <i>really</i> challenging at times, so you will need to rely on your <b>intuition</b> and gut feeling to answer as fast as you can without making errors.</p><p>Each illusion block will be repeated two times (so that you have the opportunity to improve your score), but the order of the blocks is random.</p><p>Remember, your goal is to be as <b>fast</b> and <b>accurate</b> as possible. Good luck!</p><br>"	n/a	n/a	n/a	n/a	n/a	n/a	n/a	n/a	n/a	n/a
"TRUE"	"preload"	"51"	"234577"	"0.0-5.0-0.0"	"c0qqt7"	"600"	"1366"	"chrome"	"109.0.0"	"FALSE"	"Windows 10"	"60.63"	"151"	n/a	n/a	n/a	n/a	n/a	n/a	n/a	n/a	n/a	n/a	n/a	"NULL"	"FALSE"	"list()"	"list()"	"list()"	n/a	n/a	n/a	n/a	n/a	n/a	n/a	n/a	n/a	n/a	n/a
n/a	"html-keyboard-response"	"52"	"238731"	"0.0-5.0-1.0"	"c0qqt7"	"600"	"1366"	"chrome"	"109.0.0"	"FALSE"	"Windows 10"	"60.63"	"151"	n/a	n/a	n/a	n/a	n/a	n/a	n/a	n/a	n/a	n/a	"4153"	"enter"	n/a	"NULL"	"NULL"	"NULL"	"<p><b>Part 1/6</b></p><p>In this part, two red lines will appear side by side.</p><p>Your task is to tell <b>which line is longer</b> in length, regardless of their orientation, as fast as you can, and without making errors.</p><p>Don't get distracted by the orientation of the lines!</p><p>Press <b>the LEFT or the RIGHT arrow</b> to indicate which <b>line is the longer one.</b></p><div style='float: center'><img src='materials/instructions/VerticalHorizontal_Demo.png' height='300'></img><p><img src='utils/answer/answer_leftright_keyboard.PNG' height='150'></img></p><p class='small'>In this example, the correct answer is the <b>LEFT arrow</b>.</p></div><p>Are you ready? <b>Press ENTER to start</b></p>"	n/a	n/a	n/a	n/a	n/a	n/a	n/a	n/a	n/a	n/a
n/a	"html-keyboard-response"	"53"	"240524"	"0.0-5.0-2.0-0.0"	"c0qqt7"	"600"	"1366"	"chrome"	"109.0.0"	"FALSE"	"Windows 10"	"60.63"	"151"	n/a	n/a	n/a	n/a	n/a	n/a	"fixation"	n/a	n/a	n/a	n/a	"NULL"	n/a	"NULL"	"NULL"	"NULL"	"<p style=\"color: black; font-size: 80px; padding-left: 42%; padding-right: 10%; padding-top: 26%; padding-bottom: 31%\">+</p>"	"1279"	n/a	n/a	n/a	n/a	n/a	n/a	n/a	n/a	n/a
n/a	"image-keyboard-response"	"54"	"241529"	"0.0-5.0-2.0-1.0"	"c0qqt7"	"600"	"1366"	"chrome"	"109.0.0"	"FALSE"	"Windows 10"	"60.63"	"151"	n/a	n/a	n/a	n/a	n/a	n/a	"Trial"	n/a	n/a	n/a	"1004"	"arrowleft"	n/a	"NULL"	"NULL"	"NULL"	"stimuli/VerticalHorizontal_-3.3000_0.16217.png"	n/a	"VerticalHorizontal"	"arrowleft"	"1793"	"TRUE"	"VerticalHorizontal"	"-3.300000000"	"0.1621700000"	"1"	"19"
n/a	"html-keyboard-response"	"55"	"242964"	"0.0-5.0-2.0-0.1"	"c0qqt7"	"600"	"1366"	"chrome"	"109.0.0"	"FALSE"	"Windows 10"	"60.63"	"151"	n/a	n/a	n/a	n/a	n/a	n/a	"fixation"	n/a	n/a	n/a	n/a	"NULL"	n/a	"NULL"	"NULL"	"NULL"	"<p style=\"color: black; font-size: 80px; padding-left: 6%; padding-right: 5%; padding-top: 45%; padding-bottom: 27%\">+</p>"	"1420"	n/a	n/a	n/a	n/a	n/a	n/a	n/a	n/a	n/a
n/a	"image-keyboard-response"	"56"	"243938"	"0.0-5.0-2.0-1.1"	"c0qqt7"	"600"	"1366"	"chrome"	"109.0.0"	"FALSE"	"Windows 10"	"60.63"	"151"	n/a	n/a	n/a	n/a	n/a	n/a	"Trial"	n/a	n/a	n/a	"972"	"arrowright"	n/a	"NULL"	"NULL"	"NULL"	"stimuli/VerticalHorizontal_28.75714_-0.16217.png"	n/a	"VerticalHorizontal"	"arrowright"	"1435"	"TRUE"	"VerticalHorizontal"	"28.757140000"	"-0.162170000"	"1"	"20"
n/a	"html-keyboard-response"	"57"	"245398"	"0.0-5.0-2.0-0.2"	"c0qqt7"	"600"	"1366"	"chrome"	"109.0.0"	"FALSE"	"Windows 10"	"60.63"	"151"	n/a	n/a	n/a	n/a	n/a	n/a	"fixation"	n/a	n/a	n/a	n/a	"NULL"	n/a	"NULL"	"NULL"	"NULL"	"<p style=\"color: black; font-size: 80px; padding-left: 37%; padding-right: 49%; padding-top: 45%; padding-bottom: 6%\">+</p>"	"1453"	n/a	n/a	n/a	n/a	n/a	n/a	n/a	n/a	n/a
n/a	"image-keyboard-response"	"58"	"246309"	"0.0-5.0-2.0-1.2"	"c0qqt7"	"600"	"1366"	"chrome"	"109.0.0"	"FALSE"	"Windows 10"	"60.63"	"151"	n/a	n/a	n/a	n/a	n/a	n/a	"Trial"	n/a	n/a	n/a	"909"	"arrowleft"	n/a	"NULL"	"NULL"	"NULL"	"stimuli/VerticalHorizontal_28.75714_-0.1096.png"	n/a	"VerticalHorizontal"	"arrowright"	"1460"	"FALSE"	"VerticalHorizontal"	"28.757140000"	"-0.109600000"	"1"	"21"
n/a	"html-keyboard-response"	"59"	"247690"	"0.0-5.0-2.0-0.3"	"c0qqt7"	"600"	"1366"	"chrome"	"109.0.0"	"FALSE"	"Windows 10"	"60.63"	"151"	n/a	n/a	n/a	n/a	n/a	n/a	"fixation"	n/a	n/a	n/a	n/a	"NULL"	n/a	"NULL"	"NULL"	"NULL"	"<p style=\"color: black; font-size: 80px; padding-left: 37%; padding-right: 16%; padding-top: 13%; padding-bottom: 30%\">+</p>"	"1362"	n/a	n/a	n/a	n/a	n/a	n/a	n/a	n/a	n/a
n/a	"image-keyboard-response"	"60"	"248664"	"0.0-5.0-2.0-1.3"	"c0qqt7"	"600"	"1366"	"chrome"	"109.0.0"	"FALSE"	"Windows 10"	"60.63"	"151"	n/a	n/a	n/a	n/a	n/a	n/a	"Trial"	n/a	n/a	n/a	"973"	"arrowleft"	n/a	"NULL"	"NULL"	"NULL"	"stimuli/VerticalHorizontal_11.78571_0.10960.png"	n/a	"VerticalHorizontal"	"arrowleft"	"1381"	"TRUE"	"VerticalHorizontal"	"11.785710000"	"0.1096000000"	"1"	"22"
n/a	"html-keyboard-response"	"61"	"249684"	"0.0-5.0-2.0-0.4"	"c0qqt7"	"600"	"1366"	"chrome"	"109.0.0"	"FALSE"	"Windows 10"	"60.63"	"151"	n/a	n/a	n/a	n/a	n/a	n/a	"fixation"	n/a	n/a	n/a	n/a	"NULL"	n/a	"NULL"	"NULL"	"NULL"	"<p style=\"color: black; font-size: 80px; padding-left: 41%; padding-right: 39%; padding-top: 39%; padding-bottom: 3%\">+</p>"	"1012"	n/a	n/a	n/a	n/a	n/a	n/a	n/a	n/a	n/a
n/a	"image-keyboard-response"	"62"	"250283"	"0.0-5.0-2.0-1.4"	"c0qqt7"	"600"	"1366"	"chrome"	"109.0.0"	"FALSE"	"Windows 10"	"60.63"	"151"	n/a	n/a	n/a	n/a	n/a	n/a	"Trial"	n/a	n/a	n/a	"597"	"arrowright"	n/a	"NULL"	"NULL"	"NULL"	"stimuli/VerticalHorizontal_-11.78571_-0.2250.png"	n/a	"VerticalHorizontal"	"arrowright"	"1020"	"TRUE"	"VerticalHorizontal"	"-11.78571000"	"-0.225000000"	"1"	"23"
n/a	"html-keyboard-response"	"63"	"251592"	"0.0-5.0-2.0-0.5"	"c0qqt7"	"600"	"1366"	"chrome"	"109.0.0"	"FALSE"	"Windows 10"	"60.63"	"151"	n/a	n/a	n/a	n/a	n/a	n/a	"fixation"	n/a	n/a	n/a	n/a	"NULL"	n/a	"NULL"	"NULL"	"NULL"	"<p style=\"color: black; font-size: 80px; padding-left: 38%; padding-right: 41%; padding-top: 6%; padding-bottom: 15%\">+</p>"	"1297"	n/a	n/a	n/a	n/a	n/a	n/a	n/a	n/a	n/a
n/a	"image-keyboard-response"	"64"	"252627"	"0.0-5.0-2.0-1.5"	"c0qqt7"	"600"	"1366"	"chrome"	"109.0.0"	"FALSE"	"Windows 10"	"60.63"	"151"	n/a	n/a	n/a	n/a	n/a	n/a	"Trial"	n/a	n/a	n/a	"1032"	"arrowright"	n/a	"NULL"	"NULL"	"NULL"	"stimuli/VerticalHorizontal_28.75714_0.06730.png"	n/a	"VerticalHorizontal"	"arrowleft"	"1309"	"FALSE"	"VerticalHorizontal"	"28.757140000"	"0.0673000000"	"1"	"24"
n/a	"html-keyboard-response"	"65"	"253639"	"0.0-5.0-2.0-0.6"	"c0qqt7"	"600"	"1366"	"chrome"	"109.0.0"	"FALSE"	"Windows 10"	"60.63"	"151"	n/a	n/a	n/a	n/a	n/a	n/a	"fixation"	n/a	n/a	n/a	n/a	"NULL"	n/a	"NULL"	"NULL"	"NULL"	"<p style=\"color: black; font-size: 80px; padding-left: 47%; padding-right: 28%; padding-top: 40%; padding-bottom: 43%\">+</p>"	"1001"	n/a	n/a	n/a	n/a	n/a	n/a	n/a	n/a	n/a
n/a	"image-keyboard-response"	"66"	"254437"	"0.0-5.0-2.0-1.6"	"c0qqt7"	"600"	"1366"	"chrome"	"109.0.0"	"FALSE"	"Windows 10"	"60.63"	"151"	n/a	n/a	n/a	n/a	n/a	n/a	"Trial"	n/a	n/a	n/a	"797"	"arrowright"	n/a	"NULL"	"NULL"	"NULL"	"stimuli/VerticalHorizontal_-3.3000_-0.1096.png"	n/a	"VerticalHorizontal"	"arrowright"	"1012"	"TRUE"	"VerticalHorizontal"	"-3.300000000"	"-0.109600000"	"1"	"25"
n/a	"html-keyboard-response"	"67"	"255888"	"0.0-5.0-2.0-0.7"	"c0qqt7"	"600"	"1366"	"chrome"	"109.0.0"	"FALSE"	"Windows 10"	"60.63"	"151"	n/a	n/a	n/a	n/a	n/a	n/a	"fixation"	n/a	n/a	n/a	n/a	"NULL"	n/a	"NULL"	"NULL"	"NULL"	"<p style=\"color: black; font-size: 80px; padding-left: 44%; padding-right: 14%; padding-top: 44%; padding-bottom: 15%\">+</p>"	"1436"	n/a	n/a	n/a	n/a	n/a	n/a	n/a	n/a	n/a
n/a	"image-keyboard-response"	"68"	"256440"	"0.0-5.0-2.0-1.7"	"c0qqt7"	"600"	"1366"	"chrome"	"109.0.0"	"FALSE"	"Windows 10"	"60.63"	"151"	n/a	n/a	n/a	n/a	n/a	n/a	"Trial"	n/a	n/a	n/a	"550"	"arrowleft"	n/a	"NULL"	"NULL"	"NULL"	"stimuli/VerticalHorizontal_-11.78571_0.06730.png"	n/a	"VerticalHorizontal"	"arrowleft"	"1451"	"TRUE"	"VerticalHorizontal"	"-11.78571000"	"0.0673000000"	"1"	"26"
n/a	"html-keyboard-response"	"69"	"257935"	"0.0-5.0-2.0-0.8"	"c0qqt7"	"600"	"1366"	"chrome"	"109.0.0"	"FALSE"	"Windows 10"	"60.63"	"151"	n/a	n/a	n/a	n/a	n/a	n/a	"fixation"	n/a	n/a	n/a	n/a	"NULL"	n/a	"NULL"	"NULL"	"NULL"	"<p style=\"color: black; font-size: 80px; padding-left: 22%; padding-right: 8%; padding-top: 28%; padding-bottom: 29%\">+</p>"	"1488"	n/a	n/a	n/a	n/a	n/a	n/a	n/a	n/a	n/a
n/a	"image-keyboard-response"	"70"	"258374"	"0.0-5.0-2.0-1.8"	"c0qqt7"	"600"	"1366"	"chrome"	"109.0.0"	"FALSE"	"Windows 10"	"60.63"	"151"	n/a	n/a	n/a	n/a	n/a	n/a	"Trial"	n/a	n/a	n/a	"434"	"arrowleft"	n/a	"NULL"	"NULL"	"NULL"	"stimuli/VerticalHorizontal_-11.78571_0.22500.png"	n/a	"VerticalHorizontal"	"arrowleft"	"1495"	"TRUE"	"VerticalHorizontal"	"-11.78571000"	"0.2250000000"	"1"	"27"
n/a	"html-keyboard-response"	"71"	"259734"	"0.0-5.0-2.0-0.9"	"c0qqt7"	"600"	"1366"	"chrome"	"109.0.0"	"FALSE"	"Windows 10"	"60.63"	"151"	n/a	n/a	n/a	n/a	n/a	n/a	"fixation"	n/a	n/a	n/a	n/a	"NULL"	n/a	"NULL"	"NULL"	"NULL"	"<p style=\"color: black; font-size: 80px; padding-left: 32%; padding-right: 2%; padding-top: 18%; padding-bottom: 6%\">+</p>"	"1352"	n/a	n/a	n/a	n/a	n/a	n/a	n/a	n/a	n/a
n/a	"image-keyboard-response"	"72"	"260168"	"0.0-5.0-2.0-1.9"	"c0qqt7"	"600"	"1366"	"chrome"	"109.0.0"	"FALSE"	"Windows 10"	"60.63"	"151"	n/a	n/a	n/a	n/a	n/a	n/a	"Trial"	n/a	n/a	n/a	"432"	"arrowleft"	n/a	"NULL"	"NULL"	"NULL"	"stimuli/VerticalHorizontal_-28.75714_0.22500.png"	n/a	"VerticalHorizontal"	"arrowleft"	"1360"	"TRUE"	"VerticalHorizontal"	"-28.75714000"	"0.2250000000"	"1"	"28"
n/a	"html-keyboard-response"	"73"	"261400"	"0.0-5.0-2.0-0.10"	"c0qqt7"	"600"	"1366"	"chrome"	"109.0.0"	"FALSE"	"Windows 10"	"60.63"	"151"	n/a	n/a	n/a	n/a	n/a	n/a	"fixation"	n/a	n/a	n/a	n/a	"NULL"	n/a	"NULL"	"NULL"	"NULL"	"<p style=\"color: black; font-size: 80px; padding-left: 43%; padding-right: 47%; padding-top: 26%; padding-bottom: 27%\">+</p>"	"1211"	n/a	n/a	n/a	n/a	n/a	n/a	n/a	n/a	n/a
n/a	"image-keyboard-response"	"74"	"261988"	"0.0-5.0-2.0-1.10"	"c0qqt7"	"600"	"1366"	"chrome"	"109.0.0"	"FALSE"	"Windows 10"	"60.63"	"151"	n/a	n/a	n/a	n/a	n/a	n/a	"Trial"	n/a	n/a	n/a	"587"	"arrowright"	n/a	"NULL"	"NULL"	"NULL"	"stimuli/VerticalHorizontal_20.27143_-0.1096.png"	n/a	"VerticalHorizontal"	"arrowright"	"1232"	"TRUE"	"VerticalHorizontal"	"20.271430000"	"-0.109600000"	"1"	"29"
n/a	"html-keyboard-response"	"75"	"263045"	"0.0-5.0-2.0-0.11"	"c0qqt7"	"600"	"1366"	"chrome"	"109.0.0"	"FALSE"	"Windows 10"	"60.63"	"151"	n/a	n/a	n/a	n/a	n/a	n/a	"fixation"	n/a	n/a	n/a	n/a	"NULL"	n/a	"NULL"	"NULL"	"NULL"	"<p style=\"color: black; font-size: 80px; padding-left: 17%; padding-right: 46%; padding-top: 9%; padding-bottom: 43%\">+</p>"	"1045"	n/a	n/a	n/a	n/a	n/a	n/a	n/a	n/a	n/a
n/a	"image-keyboard-response"	"76"	"263501"	"0.0-5.0-2.0-1.11"	"c0qqt7"	"600"	"1366"	"chrome"	"109.0.0"	"FALSE"	"Windows 10"	"60.63"	"151"	n/a	n/a	n/a	n/a	n/a	n/a	"Trial"	n/a	n/a	n/a	"455"	"arrowright"	n/a	"NULL"	"NULL"	"NULL"	"stimuli/VerticalHorizontal_28.75714_0.10960.png"	n/a	"VerticalHorizontal"	"arrowleft"	"1057"	"FALSE"	"VerticalHorizontal"	"28.757140000"	"0.1096000000"	"1"	"30"
n/a	"html-keyboard-response"	"77"	"264653"	"0.0-5.0-2.0-0.12"	"c0qqt7"	"600"	"1366"	"chrome"	"109.0.0"	"FALSE"	"Windows 10"	"60.63"	"151"	n/a	n/a	n/a	n/a	n/a	n/a	"fixation"	n/a	n/a	n/a	n/a	"NULL"	n/a	"NULL"	"NULL"	"NULL"	"<p style=\"color: black; font-size: 80px; padding-left: 28%; padding-right: 19%; padding-top: 22%; padding-bottom: 49%\">+</p>"	"1139"	n/a	n/a	n/a	n/a	n/a	n/a	n/a	n/a	n/a
n/a	"image-keyboard-response"	"78"	"265240"	"0.0-5.0-2.0-1.12"	"c0qqt7"	"600"	"1366"	"chrome"	"109.0.0"	"FALSE"	"Windows 10"	"60.63"	"151"	n/a	n/a	n/a	n/a	n/a	n/a	"Trial"	n/a	n/a	n/a	"586"	"arrowright"	n/a	"NULL"	"NULL"	"NULL"	"stimuli/VerticalHorizontal_3.30000_-0.1096.png"	n/a	"VerticalHorizontal"	"arrowright"	"1152"	"TRUE"	"VerticalHorizontal"	"3.3000000000"	"-0.109600000"	"1"	"31"
n/a	"html-keyboard-response"	"79"	"266404"	"0.0-5.0-2.0-0.13"	"c0qqt7"	"600"	"1366"	"chrome"	"109.0.0"	"FALSE"	"Windows 10"	"60.63"	"151"	n/a	n/a	n/a	n/a	n/a	n/a	"fixation"	n/a	n/a	n/a	n/a	"NULL"	n/a	"NULL"	"NULL"	"NULL"	"<p style=\"color: black; font-size: 80px; padding-left: 15%; padding-right: 3%; padding-top: 50%; padding-bottom: 47%\">+</p>"	"1160"	n/a	n/a	n/a	n/a	n/a	n/a	n/a	n/a	n/a
n/a	"image-keyboard-response"	"80"	"266785"	"0.0-5.0-2.0-1.13"	"c0qqt7"	"600"	"1366"	"chrome"	"109.0.0"	"FALSE"	"Windows 10"	"60.63"	"151"	n/a	n/a	n/a	n/a	n/a	n/a	"Trial"	n/a	n/a	n/a	"380"	"arrowright"	n/a	"NULL"	"NULL"	"NULL"	"stimuli/VerticalHorizontal_-3.3000_-0.16217.png"	n/a	"VerticalHorizontal"	"arrowright"	"1164"	"TRUE"	"VerticalHorizontal"	"-3.300000000"	"-0.162170000"	"1"	"32"
n/a	"html-keyboard-response"	"81"	"268043"	"0.0-5.0-2.0-0.14"	"c0qqt7"	"600"	"1366"	"chrome"	"109.0.0"	"FALSE"	"Windows 10"	"60.63"	"151"	n/a	n/a	n/a	n/a	n/a	n/a	"fixation"	n/a	n/a	n/a	n/a	"NULL"	n/a	"NULL"	"NULL"	"NULL"	"<p style=\"color: black; font-size: 80px; padding-left: 21%; padding-right: 6%; padding-top: 23%; padding-bottom: 5%\">+</p>"	"1243"	n/a	n/a	n/a	n/a	n/a	n/a	n/a	n/a	n/a
n/a	"image-keyboard-response"	"82"	"268828"	"0.0-5.0-2.0-1.14"	"c0qqt7"	"600"	"1366"	"chrome"	"109.0.0"	"FALSE"	"Windows 10"	"60.63"	"151"	n/a	n/a	n/a	n/a	n/a	n/a	"Trial"	n/a	n/a	n/a	"783"	"arrowleft"	n/a	"NULL"	"NULL"	"NULL"	"stimuli/VerticalHorizontal_3.30000_0.10960.png"	n/a	"VerticalHorizontal"	"arrowleft"	"1258"	"TRUE"	"VerticalHorizontal"	"3.3000000000"	"0.1096000000"	"1"	"33"
n/a	"html-keyboard-response"	"83"	"270153"	"0.0-5.0-2.0-0.15"	"c0qqt7"	"600"	"1366"	"chrome"	"109.0.0"	"FALSE"	"Windows 10"	"60.63"	"151"	n/a	n/a	n/a	n/a	n/a	n/a	"fixation"	n/a	n/a	n/a	n/a	"NULL"	n/a	"NULL"	"NULL"	"NULL"	"<p style=\"color: black; font-size: 80px; padding-left: 42%; padding-right: 19%; padding-top: 5%; padding-bottom: 24%\">+</p>"	"1315"	n/a	n/a	n/a	n/a	n/a	n/a	n/a	n/a	n/a
n/a	"image-keyboard-response"	"84"	"270568"	"0.0-5.0-2.0-1.15"	"c0qqt7"	"600"	"1366"	"chrome"	"109.0.0"	"FALSE"	"Windows 10"	"60.63"	"151"	n/a	n/a	n/a	n/a	n/a	n/a	"Trial"	n/a	n/a	n/a	"410"	"arrowleft"	n/a	"NULL"	"NULL"	"NULL"	"stimuli/VerticalHorizontal_11.78571_-0.0673.png"	n/a	"VerticalHorizontal"	"arrowright"	"1325"	"FALSE"	"VerticalHorizontal"	"11.785710000"	"-0.067300000"	"1"	"34"
n/a	"html-keyboard-response"	"85"	"271792"	"0.0-5.0-2.0-0.16"	"c0qqt7"	"600"	"1366"	"chrome"	"109.0.0"	"FALSE"	"Windows 10"	"60.63"	"151"	n/a	n/a	n/a	n/a	n/a	n/a	"fixation"	n/a	n/a	n/a	n/a	"NULL"	n/a	"NULL"	"NULL"	"NULL"	"<p style=\"color: black; font-size: 80px; padding-left: 6%; padding-right: 22%; padding-top: 18%; padding-bottom: 41%\">+</p>"	"1206"	n/a	n/a	n/a	n/a	n/a	n/a	n/a	n/a	n/a
n/a	"image-keyboard-response"	"86"	"272293"	"0.0-5.0-2.0-1.16"	"c0qqt7"	"600"	"1366"	"chrome"	"109.0.0"	"FALSE"	"Windows 10"	"60.63"	"151"	n/a	n/a	n/a	n/a	n/a	n/a	"Trial"	n/a	n/a	n/a	"501"	"arrowleft"	n/a	"NULL"	"NULL"	"NULL"	"stimuli/VerticalHorizontal_-28.75714_0.10960.png"	n/a	"VerticalHorizontal"	"arrowleft"	"1224"	"TRUE"	"VerticalHorizontal"	"-28.75714000"	"0.1096000000"	"1"	"35"
n/a	"html-keyboard-response"	"87"	"273781"	"0.0-5.0-2.0-0.17"	"c0qqt7"	"600"	"1366"	"chrome"	"109.0.0"	"FALSE"	"Windows 10"	"60.63"	"151"	n/a	n/a	n/a	n/a	n/a	n/a	"fixation"	n/a	n/a	n/a	n/a	"NULL"	n/a	"NULL"	"NULL"	"NULL"	"<p style=\"color: black; font-size: 80px; padding-left: 3%; padding-right: 21%; padding-top: 38%; padding-bottom: 26%\">+</p>"	"1474"	n/a	n/a	n/a	n/a	n/a	n/a	n/a	n/a	n/a
n/a	"image-keyboard-response"	"88"	"274241"	"0.0-5.0-2.0-1.17"	"c0qqt7"	"600"	"1366"	"chrome"	"109.0.0"	"FALSE"	"Windows 10"	"60.63"	"151"	n/a	n/a	n/a	n/a	n/a	n/a	"Trial"	n/a	n/a	n/a	"449"	"arrowleft"	n/a	"NULL"	"NULL"	"NULL"	"stimuli/VerticalHorizontal_-28.75714_0.16217.png"	n/a	"VerticalHorizontal"	"arrowleft"	"1488"	"TRUE"	"VerticalHorizontal"	"-28.75714000"	"0.1621700000"	"1"	"36"
n/a	"html-keyboard-response"	"89"	"275591"	"0.0-5.0-2.0-0.18"	"c0qqt7"	"600"	"1366"	"chrome"	"109.0.0"	"FALSE"	"Windows 10"	"60.63"	"151"	n/a	n/a	n/a	n/a	n/a	n/a	"fixation"	n/a	n/a	n/a	n/a	"NULL"	n/a	"NULL"	"NULL"	"NULL"	"<p style=\"color: black; font-size: 80px; padding-left: 33%; padding-right: 13%; padding-top: 43%; padding-bottom: 25%\">+</p>"	"1338"	n/a	n/a	n/a	n/a	n/a	n/a	n/a	n/a	n/a
n/a	"image-keyboard-response"	"90"	"276332"	"0.0-5.0-2.0-1.18"	"c0qqt7"	"600"	"1366"	"chrome"	"109.0.0"	"FALSE"	"Windows 10"	"60.63"	"151"	n/a	n/a	n/a	n/a	n/a	n/a	"Trial"	n/a	n/a	n/a	"738"	"arrowleft"	n/a	"NULL"	"NULL"	"NULL"	"stimuli/VerticalHorizontal_-20.27143_0.06730.png"	n/a	"VerticalHorizontal"	"arrowleft"	"1350"	"TRUE"	"VerticalHorizontal"	"-20.27143000"	"0.0673000000"	"1"	"37"
n/a	"html-keyboard-response"	"91"	"277763"	"0.0-5.0-2.0-0.19"	"c0qqt7"	"600"	"1366"	"chrome"	"109.0.0"	"FALSE"	"Windows 10"	"60.63"	"151"	n/a	n/a	n/a	n/a	n/a	n/a	"fixation"	n/a	n/a	n/a	n/a	"NULL"	n/a	"NULL"	"NULL"	"NULL"	"<p style=\"color: black; font-size: 80px; padding-left: 47%; padding-right: 18%; padding-top: 38%; padding-bottom: 27%\">+</p>"	"1425"	n/a	n/a	n/a	n/a	n/a	n/a	n/a	n/a	n/a
n/a	"image-keyboard-response"	"92"	"278554"	"0.0-5.0-2.0-1.19"	"c0qqt7"	"600"	"1366"	"chrome"	"109.0.0"	"FALSE"	"Windows 10"	"60.63"	"151"	n/a	n/a	n/a	n/a	n/a	n/a	"Trial"	n/a	n/a	n/a	"790"	"arrowright"	n/a	"NULL"	"NULL"	"NULL"	"stimuli/VerticalHorizontal_11.78571_-0.1096.png"	n/a	"VerticalHorizontal"	"arrowright"	"1431"	"TRUE"	"VerticalHorizontal"	"11.785710000"	"-0.109600000"	"1"	"38"
n/a	"html-keyboard-response"	"93"	"279937"	"0.0-5.0-2.0-0.20"	"c0qqt7"	"600"	"1366"	"chrome"	"109.0.0"	"FALSE"	"Windows 10"	"60.63"	"151"	n/a	n/a	n/a	n/a	n/a	n/a	"fixation"	n/a	n/a	n/a	n/a	"NULL"	n/a	"NULL"	"NULL"	"NULL"	"<p style=\"color: black; font-size: 80px; padding-left: 33%; padding-right: 33%; padding-top: 43%; padding-bottom: 22%\">+</p>"	"1365"	n/a	n/a	n/a	n/a	n/a	n/a	n/a	n/a	n/a
n/a	"image-keyboard-response"	"94"	"280738"	"0.0-5.0-2.0-1.20"	"c0qqt7"	"600"	"1366"	"chrome"	"109.0.0"	"FALSE"	"Windows 10"	"60.63"	"151"	n/a	n/a	n/a	n/a	n/a	n/a	"Trial"	n/a	n/a	n/a	"800"	"arrowright"	n/a	"NULL"	"NULL"	"NULL"	"stimuli/VerticalHorizontal_20.27143_-0.2250.png"	n/a	"VerticalHorizontal"	"arrowright"	"1383"	"TRUE"	"VerticalHorizontal"	"20.271430000"	"-0.225000000"	"1"	"39"
n/a	"html-keyboard-response"	"95"	"281962"	"0.0-5.0-2.0-0.21"	"c0qqt7"	"600"	"1366"	"chrome"	"109.0.0"	"FALSE"	"Windows 10"	"60.63"	"151"	n/a	n/a	n/a	n/a	n/a	n/a	"fixation"	n/a	n/a	n/a	n/a	"NULL"	n/a	"NULL"	"NULL"	"NULL"	"<p style=\"color: black; font-size: 80px; padding-left: 19%; padding-right: 24%; padding-top: 45%; padding-bottom: 6%\">+</p>"	"1212"	n/a	n/a	n/a	n/a	n/a	n/a	n/a	n/a	n/a
n/a	"image-keyboard-response"	"96"	"282599"	"0.0-5.0-2.0-1.21"	"c0qqt7"	"600"	"1366"	"chrome"	"109.0.0"	"FALSE"	"Windows 10"	"60.63"	"151"	n/a	n/a	n/a	n/a	n/a	n/a	"Trial"	n/a	n/a	n/a	"636"	"arrowleft"	n/a	"NULL"	"NULL"	"NULL"	"stimuli/VerticalHorizontal_20.27143_0.10960.png"	n/a	"VerticalHorizontal"	"arrowleft"	"1224"	"TRUE"	"VerticalHorizontal"	"20.271430000"	"0.1096000000"	"1"	"40"
n/a	"html-keyboard-response"	"97"	"283717"	"0.0-5.0-2.0-0.22"	"c0qqt7"	"600"	"1366"	"chrome"	"109.0.0"	"FALSE"	"Windows 10"	"60.63"	"151"	n/a	n/a	n/a	n/a	n/a	n/a	"fixation"	n/a	n/a	n/a	n/a	"NULL"	n/a	"NULL"	"NULL"	"NULL"	"<p style=\"color: black; font-size: 80px; padding-left: 48%; padding-right: 7%; padding-top: 22%; padding-bottom: 40%\">+</p>"	"1104"	n/a	n/a	n/a	n/a	n/a	n/a	n/a	n/a	n/a
n/a	"image-keyboard-response"	"98"	"284344"	"0.0-5.0-2.0-1.22"	"c0qqt7"	"600"	"1366"	"chrome"	"109.0.0"	"FALSE"	"Windows 10"	"60.63"	"151"	n/a	n/a	n/a	n/a	n/a	n/a	"Trial"	n/a	n/a	n/a	"626"	"arrowleft"	n/a	"NULL"	"NULL"	"NULL"	"stimuli/VerticalHorizontal_-3.3000_0.10960.png"	n/a	"VerticalHorizontal"	"arrowleft"	"1118"	"TRUE"	"VerticalHorizontal"	"-3.300000000"	"0.1096000000"	"1"	"41"
n/a	"html-keyboard-response"	"99"	"285512"	"0.0-5.0-2.0-0.23"	"c0qqt7"	"600"	"1366"	"chrome"	"109.0.0"	"FALSE"	"Windows 10"	"60.63"	"151"	n/a	n/a	n/a	n/a	n/a	n/a	"fixation"	n/a	n/a	n/a	n/a	"NULL"	n/a	"NULL"	"NULL"	"NULL"	"<p style=\"color: black; font-size: 80px; padding-left: 48%; padding-right: 21%; padding-top: 32%; padding-bottom: 37%\">+</p>"	"1147"	n/a	n/a	n/a	n/a	n/a	n/a	n/a	n/a	n/a
n/a	"image-keyboard-response"	"100"	"285948"	"0.0-5.0-2.0-1.23"	"c0qqt7"	"600"	"1366"	"chrome"	"109.0.0"	"FALSE"	"Windows 10"	"60.63"	"151"	n/a	n/a	n/a	n/a	n/a	n/a	"Trial"	n/a	n/a	n/a	"433"	"arrowleft"	n/a	"NULL"	"NULL"	"NULL"	"stimuli/VerticalHorizontal_20.27143_-0.0673.png"	n/a	"VerticalHorizontal"	"arrowright"	"1168"	"FALSE"	"VerticalHorizontal"	"20.271430000"	"-0.067300000"	"1"	"42"
n/a	"html-keyboard-response"	"101"	"287152"	"0.0-5.0-2.0-0.24"	"c0qqt7"	"600"	"1366"	"chrome"	"109.0.0"	"FALSE"	"Windows 10"	"60.63"	"151"	n/a	n/a	n/a	n/a	n/a	n/a	"fixation"	n/a	n/a	n/a	n/a	"NULL"	n/a	"NULL"	"NULL"	"NULL"	"<p style=\"color: black; font-size: 80px; padding-left: 42%; padding-right: 24%; padding-top: 3%; padding-bottom: 20%\">+</p>"	"1195"	n/a	n/a	n/a	n/a	n/a	n/a	n/a	n/a	n/a
n/a	"image-keyboard-response"	"102"	"287721"	"0.0-5.0-2.0-1.24"	"c0qqt7"	"600"	"1366"	"chrome"	"109.0.0"	"FALSE"	"Windows 10"	"60.63"	"151"	n/a	n/a	n/a	n/a	n/a	n/a	"Trial"	n/a	n/a	n/a	"568"	"arrowleft"	n/a	"NULL"	"NULL"	"NULL"	"stimuli/VerticalHorizontal_-11.78571_0.10960.png"	n/a	"VerticalHorizontal"	"arrowleft"	"1204"	"TRUE"	"VerticalHorizontal"	"-11.78571000"	"0.1096000000"	"1"	"43"
n/a	"html-keyboard-response"	"103"	"288927"	"0.0-5.0-2.0-0.25"	"c0qqt7"	"600"	"1366"	"chrome"	"109.0.0"	"FALSE"	"Windows 10"	"60.63"	"151"	n/a	n/a	n/a	n/a	n/a	n/a	"fixation"	n/a	n/a	n/a	n/a	"NULL"	n/a	"NULL"	"NULL"	"NULL"	"<p style=\"color: black; font-size: 80px; padding-left: 48%; padding-right: 12%; padding-top: 36%; padding-bottom: 14%\">+</p>"	"1190"	n/a	n/a	n/a	n/a	n/a	n/a	n/a	n/a	n/a
n/a	"image-keyboard-response"	"104"	"289358"	"0.0-5.0-2.0-1.25"	"c0qqt7"	"600"	"1366"	"chrome"	"109.0.0"	"FALSE"	"Windows 10"	"60.63"	"151"	n/a	n/a	n/a	n/a	n/a	n/a	"Trial"	n/a	n/a	n/a	"430"	"arrowleft"	n/a	"NULL"	"NULL"	"NULL"	"stimuli/VerticalHorizontal_-20.27143_0.22500.png"	n/a	"VerticalHorizontal"	"arrowleft"	"1206"	"TRUE"	"VerticalHorizontal"	"-20.27143000"	"0.2250000000"	"1"	"44"
n/a	"html-keyboard-response"	"105"	"290386"	"0.0-5.0-2.0-0.26"	"c0qqt7"	"600"	"1366"	"chrome"	"109.0.0"	"FALSE"	"Windows 10"	"60.63"	"151"	n/a	n/a	n/a	n/a	n/a	n/a	"fixation"	n/a	n/a	n/a	n/a	"NULL"	n/a	"NULL"	"NULL"	"NULL"	"<p style=\"color: black; font-size: 80px; padding-left: 28%; padding-right: 16%; padding-top: 32%; padding-bottom: 33%\">+</p>"	"1017"	n/a	n/a	n/a	n/a	n/a	n/a	n/a	n/a	n/a
n/a	"image-keyboard-response"	"106"	"290749"	"0.0-5.0-2.0-1.26"	"c0qqt7"	"600"	"1366"	"chrome"	"109.0.0"	"FALSE"	"Windows 10"	"60.63"	"151"	n/a	n/a	n/a	n/a	n/a	n/a	"Trial"	n/a	n/a	n/a	"363"	"arrowright"	n/a	"NULL"	"NULL"	"NULL"	"stimuli/VerticalHorizontal_-28.75714_-0.1096.png"	n/a	"VerticalHorizontal"	"arrowright"	"1028"	"TRUE"	"VerticalHorizontal"	"-28.75714000"	"-0.109600000"	"1"	"45"
n/a	"html-keyboard-response"	"107"	"292199"	"0.0-5.0-2.0-0.27"	"c0qqt7"	"600"	"1366"	"chrome"	"109.0.0"	"FALSE"	"Windows 10"	"60.63"	"151"	n/a	n/a	n/a	n/a	n/a	n/a	"fixation"	n/a	n/a	n/a	n/a	"NULL"	n/a	"NULL"	"NULL"	"NULL"	"<p style=\"color: black; font-size: 80px; padding-left: 5%; padding-right: 19%; padding-top: 25%; padding-bottom: 17%\">+</p>"	"1439"	n/a	n/a	n/a	n/a	n/a	n/a	n/a	n/a	n/a
n/a	"image-keyboard-response"	"108"	"292858"	"0.0-5.0-2.0-1.27"	"c0qqt7"	"600"	"1366"	"chrome"	"109.0.0"	"FALSE"	"Windows 10"	"60.63"	"151"	n/a	n/a	n/a	n/a	n/a	n/a	"Trial"	n/a	n/a	n/a	"657"	"arrowleft"	n/a	"NULL"	"NULL"	"NULL"	"stimuli/VerticalHorizontal_11.78571_0.16217.png"	n/a	"VerticalHorizontal"	"arrowleft"	"1450"	"TRUE"	"VerticalHorizontal"	"11.785710000"	"0.1621700000"	"1"	"46"
n/a	"html-keyboard-response"	"109"	"293887"	"0.0-5.0-2.0-0.28"	"c0qqt7"	"600"	"1366"	"chrome"	"109.0.0"	"FALSE"	"Windows 10"	"60.63"	"151"	n/a	n/a	n/a	n/a	n/a	n/a	"fixation"	n/a	n/a	n/a	n/a	"NULL"	n/a	"NULL"	"NULL"	"NULL"	"<p style=\"color: black; font-size: 80px; padding-left: 5%; padding-right: 5%; padding-top: 33%; padding-bottom: 23%\">+</p>"	"1020"	n/a	n/a	n/a	n/a	n/a	n/a	n/a	n/a	n/a
n/a	"image-keyboard-response"	"110"	"294306"	"0.0-5.0-2.0-1.28"	"c0qqt7"	"600"	"1366"	"chrome"	"109.0.0"	"FALSE"	"Windows 10"	"60.63"	"151"	n/a	n/a	n/a	n/a	n/a	n/a	"Trial"	n/a	n/a	n/a	"418"	"arrowright"	n/a	"NULL"	"NULL"	"NULL"	"stimuli/VerticalHorizontal_11.78571_0.06730.png"	n/a	"VerticalHorizontal"	"arrowleft"	"1029"	"FALSE"	"VerticalHorizontal"	"11.785710000"	"0.0673000000"	"1"	"47"
n/a	"html-keyboard-response"	"111"	"295562"	"0.0-5.0-2.0-0.29"	"c0qqt7"	"600"	"1366"	"chrome"	"109.0.0"	"FALSE"	"Windows 10"	"60.63"	"151"	n/a	n/a	n/a	n/a	n/a	n/a	"fixation"	n/a	n/a	n/a	n/a	"NULL"	n/a	"NULL"	"NULL"	"NULL"	"<p style=\"color: black; font-size: 80px; padding-left: 26%; padding-right: 28%; padding-top: 17%; padding-bottom: 23%\">+</p>"	"1251"	n/a	n/a	n/a	n/a	n/a	n/a	n/a	n/a	n/a
n/a	"image-keyboard-response"	"112"	"296143"	"0.0-5.0-2.0-1.29"	"c0qqt7"	"600"	"1366"	"chrome"	"109.0.0"	"FALSE"	"Windows 10"	"60.63"	"151"	n/a	n/a	n/a	n/a	n/a	n/a	"Trial"	n/a	n/a	n/a	"580"	"arrowleft"	n/a	"NULL"	"NULL"	"NULL"	"stimuli/VerticalHorizontal_3.30000_0.16217.png"	n/a	"VerticalHorizontal"	"arrowleft"	"1256"	"TRUE"	"VerticalHorizontal"	"3.3000000000"	"0.1621700000"	"1"	"48"
n/a	"html-keyboard-response"	"113"	"297272"	"0.0-5.0-2.0-0.30"	"c0qqt7"	"600"	"1366"	"chrome"	"109.0.0"	"FALSE"	"Windows 10"	"60.63"	"151"	n/a	n/a	n/a	n/a	n/a	n/a	"fixation"	n/a	n/a	n/a	n/a	"NULL"	n/a	"NULL"	"NULL"	"NULL"	"<p style=\"color: black; font-size: 80px; padding-left: 10%; padding-right: 38%; padding-top: 20%; padding-bottom: 30%\">+</p>"	"1117"	n/a	n/a	n/a	n/a	n/a	n/a	n/a	n/a	n/a
n/a	"image-keyboard-response"	"114"	"297666"	"0.0-5.0-2.0-1.30"	"c0qqt7"	"600"	"1366"	"chrome"	"109.0.0"	"FALSE"	"Windows 10"	"60.63"	"151"	n/a	n/a	n/a	n/a	n/a	n/a	"Trial"	n/a	n/a	n/a	"393"	"arrowright"	n/a	"NULL"	"NULL"	"NULL"	"stimuli/VerticalHorizontal_-28.75714_-0.0673.png"	n/a	"VerticalHorizontal"	"arrowright"	"1129"	"TRUE"	"VerticalHorizontal"	"-28.75714000"	"-0.067300000"	"1"	"49"
n/a	"html-keyboard-response"	"115"	"299029"	"0.0-5.0-2.0-0.31"	"c0qqt7"	"600"	"1366"	"chrome"	"109.0.0"	"FALSE"	"Windows 10"	"60.63"	"151"	n/a	n/a	n/a	n/a	n/a	n/a	"fixation"	n/a	n/a	n/a	n/a	"NULL"	n/a	"NULL"	"NULL"	"NULL"	"<p style=\"color: black; font-size: 80px; padding-left: 40%; padding-right: 45%; padding-top: 18%; padding-bottom: 13%\">+</p>"	"1356"	n/a	n/a	n/a	n/a	n/a	n/a	n/a	n/a	n/a
n/a	"image-keyboard-response"	"116"	"299399"	"0.0-5.0-2.0-1.31"	"c0qqt7"	"600"	"1366"	"chrome"	"109.0.0"	"FALSE"	"Windows 10"	"60.63"	"151"	n/a	n/a	n/a	n/a	n/a	n/a	"Trial"	n/a	n/a	n/a	"370"	"arrowleft"	n/a	"NULL"	"NULL"	"NULL"	"stimuli/VerticalHorizontal_-3.3000_0.22500.png"	n/a	"VerticalHorizontal"	"arrowleft"	"1363"	"TRUE"	"VerticalHorizontal"	"-3.300000000"	"0.2250000000"	"1"	"50"
n/a	"html-keyboard-response"	"117"	"300522"	"0.0-5.0-2.0-0.32"	"c0qqt7"	"600"	"1366"	"chrome"	"109.0.0"	"FALSE"	"Windows 10"	"60.63"	"151"	n/a	n/a	n/a	n/a	n/a	n/a	"fixation"	n/a	n/a	n/a	n/a	"NULL"	n/a	"NULL"	"NULL"	"NULL"	"<p style=\"color: black; font-size: 80px; padding-left: 24%; padding-right: 38%; padding-top: 8%; padding-bottom: 19%\">+</p>"	"1113"	n/a	n/a	n/a	n/a	n/a	n/a	n/a	n/a	n/a
n/a	"image-keyboard-response"	"118"	"300940"	"0.0-5.0-2.0-1.32"	"c0qqt7"	"600"	"1366"	"chrome"	"109.0.0"	"FALSE"	"Windows 10"	"60.63"	"151"	n/a	n/a	n/a	n/a	n/a	n/a	"Trial"	n/a	n/a	n/a	"416"	"arrowright"	n/a	"NULL"	"NULL"	"NULL"	"stimuli/VerticalHorizontal_-20.27143_-0.16217.png"	n/a	"VerticalHorizontal"	"arrowright"	"1123"	"TRUE"	"VerticalHorizontal"	"-20.27143000"	"-0.162170000"	"1"	"51"
n/a	"html-keyboard-response"	"119"	"302346"	"0.0-5.0-2.0-0.33"	"c0qqt7"	"600"	"1366"	"chrome"	"109.0.0"	"FALSE"	"Windows 10"	"60.63"	"151"	n/a	n/a	n/a	n/a	n/a	n/a	"fixation"	n/a	n/a	n/a	n/a	"NULL"	n/a	"NULL"	"NULL"	"NULL"	"<p style=\"color: black; font-size: 80px; padding-left: 21%; padding-right: 10%; padding-top: 44%; padding-bottom: 36%\">+</p>"	"1394"	n/a	n/a	n/a	n/a	n/a	n/a	n/a	n/a	n/a
n/a	"image-keyboard-response"	"120"	"302698"	"0.0-5.0-2.0-1.33"	"c0qqt7"	"600"	"1366"	"chrome"	"109.0.0"	"FALSE"	"Windows 10"	"60.63"	"151"	n/a	n/a	n/a	n/a	n/a	n/a	"Trial"	n/a	n/a	n/a	"351"	"arrowright"	n/a	"NULL"	"NULL"	"NULL"	"stimuli/VerticalHorizontal_-20.27143_-0.2250.png"	n/a	"VerticalHorizontal"	"arrowright"	"1406"	"TRUE"	"VerticalHorizontal"	"-20.27143000"	"-0.225000000"	"1"	"52"
n/a	"html-keyboard-response"	"121"	"303979"	"0.0-5.0-2.0-0.34"	"c0qqt7"	"600"	"1366"	"chrome"	"109.0.0"	"FALSE"	"Windows 10"	"60.63"	"151"	n/a	n/a	n/a	n/a	n/a	n/a	"fixation"	n/a	n/a	n/a	n/a	"NULL"	n/a	"NULL"	"NULL"	"NULL"	"<p style=\"color: black; font-size: 80px; padding-left: 37%; padding-right: 6%; padding-top: 37%; padding-bottom: 25%\">+</p>"	"1276"	n/a	n/a	n/a	n/a	n/a	n/a	n/a	n/a	n/a
n/a	"image-keyboard-response"	"122"	"304539"	"0.0-5.0-2.0-1.34"	"c0qqt7"	"600"	"1366"	"chrome"	"109.0.0"	"FALSE"	"Windows 10"	"60.63"	"151"	n/a	n/a	n/a	n/a	n/a	n/a	"Trial"	n/a	n/a	n/a	"558"	"arrowleft"	n/a	"NULL"	"NULL"	"NULL"	"stimuli/VerticalHorizontal_20.27143_0.06730.png"	n/a	"VerticalHorizontal"	"arrowleft"	"1281"	"TRUE"	"VerticalHorizontal"	"20.271430000"	"0.0673000000"	"1"	"53"
n/a	"html-keyboard-response"	"123"	"305611"	"0.0-5.0-2.0-0.35"	"c0qqt7"	"600"	"1366"	"chrome"	"109.0.0"	"FALSE"	"Windows 10"	"60.63"	"151"	n/a	n/a	n/a	n/a	n/a	n/a	"fixation"	n/a	n/a	n/a	n/a	"NULL"	n/a	"NULL"	"NULL"	"NULL"	"<p style=\"color: black; font-size: 80px; padding-left: 44%; padding-right: 47%; padding-top: 31%; padding-bottom: 26%\">+</p>"	"1061"	n/a	n/a	n/a	n/a	n/a	n/a	n/a	n/a	n/a
n/a	"image-keyboard-response"	"124"	"306239"	"0.0-5.0-2.0-1.35"	"c0qqt7"	"600"	"1366"	"chrome"	"109.0.0"	"FALSE"	"Windows 10"	"60.63"	"151"	n/a	n/a	n/a	n/a	n/a	n/a	"Trial"	n/a	n/a	n/a	"627"	"arrowright"	n/a	"NULL"	"NULL"	"NULL"	"stimuli/VerticalHorizontal_-28.75714_-0.16217.png"	n/a	"VerticalHorizontal"	"arrowright"	"1072"	"TRUE"	"VerticalHorizontal"	"-28.75714000"	"-0.162170000"	"1"	"54"
n/a	"html-keyboard-response"	"125"	"307688"	"0.0-5.0-2.0-0.36"	"c0qqt7"	"600"	"1366"	"chrome"	"109.0.0"	"FALSE"	"Windows 10"	"60.63"	"151"	n/a	n/a	n/a	n/a	n/a	n/a	"fixation"	n/a	n/a	n/a	n/a	"NULL"	n/a	"NULL"	"NULL"	"NULL"	"<p style=\"color: black; font-size: 80px; padding-left: 7%; padding-right: 9%; padding-top: 32%; padding-bottom: 21%\">+</p>"	"1431"	n/a	n/a	n/a	n/a	n/a	n/a	n/a	n/a	n/a
n/a	"image-keyboard-response"	"126"	"308289"	"0.0-5.0-2.0-1.36"	"c0qqt7"	"600"	"1366"	"chrome"	"109.0.0"	"FALSE"	"Windows 10"	"60.63"	"151"	n/a	n/a	n/a	n/a	n/a	n/a	"Trial"	n/a	n/a	n/a	"598"	"arrowleft"	n/a	"NULL"	"NULL"	"NULL"	"stimuli/VerticalHorizontal_20.27143_0.16217.png"	n/a	"VerticalHorizontal"	"arrowleft"	"1449"	"TRUE"	"VerticalHorizontal"	"20.271430000"	"0.1621700000"	"1"	"55"
n/a	"html-keyboard-response"	"127"	"309430"	"0.0-5.0-2.0-0.37"	"c0qqt7"	"600"	"1366"	"chrome"	"109.0.0"	"FALSE"	"Windows 10"	"60.63"	"151"	n/a	n/a	n/a	n/a	n/a	n/a	"fixation"	n/a	n/a	n/a	n/a	"NULL"	n/a	"NULL"	"NULL"	"NULL"	"<p style=\"color: black; font-size: 80px; padding-left: 11%; padding-right: 16%; padding-top: 12%; padding-bottom: 37%\">+</p>"	"1121"	n/a	n/a	n/a	n/a	n/a	n/a	n/a	n/a	n/a
n/a	"image-keyboard-response"	"128"	"309907"	"0.0-5.0-2.0-1.37"	"c0qqt7"	"600"	"1366"	"chrome"	"109.0.0"	"FALSE"	"Windows 10"	"60.63"	"151"	n/a	n/a	n/a	n/a	n/a	n/a	"Trial"	n/a	n/a	n/a	"476"	"arrowright"	n/a	"NULL"	"NULL"	"NULL"	"stimuli/VerticalHorizontal_-11.78571_-0.0673.png"	n/a	"VerticalHorizontal"	"arrowright"	"1141"	"TRUE"	"VerticalHorizontal"	"-11.78571000"	"-0.067300000"	"1"	"56"
n/a	"html-keyboard-response"	"129"	"311342"	"0.0-5.0-2.0-0.38"	"c0qqt7"	"600"	"1366"	"chrome"	"109.0.0"	"FALSE"	"Windows 10"	"60.63"	"151"	n/a	n/a	n/a	n/a	n/a	n/a	"fixation"	n/a	n/a	n/a	n/a	"NULL"	n/a	"NULL"	"NULL"	"NULL"	"<p style=\"color: black; font-size: 80px; padding-left: 15%; padding-right: 31%; padding-top: 8%; padding-bottom: 22%\">+</p>"	"1426"	n/a	n/a	n/a	n/a	n/a	n/a	n/a	n/a	n/a
n/a	"image-keyboard-response"	"130"	"311741"	"0.0-5.0-2.0-1.38"	"c0qqt7"	"600"	"1366"	"chrome"	"109.0.0"	"FALSE"	"Windows 10"	"60.63"	"151"	n/a	n/a	n/a	n/a	n/a	n/a	"Trial"	n/a	n/a	n/a	"399"	"arrowleft"	n/a	"NULL"	"NULL"	"NULL"	"stimuli/VerticalHorizontal_-28.75714_0.06730.png"	n/a	"VerticalHorizontal"	"arrowleft"	"1435"	"TRUE"	"VerticalHorizontal"	"-28.75714000"	"0.0673000000"	"1"	"57"
n/a	"html-keyboard-response"	"131"	"313117"	"0.0-5.0-2.0-0.39"	"c0qqt7"	"600"	"1366"	"chrome"	"109.0.0"	"FALSE"	"Windows 10"	"60.63"	"151"	n/a	n/a	n/a	n/a	n/a	n/a	"fixation"	n/a	n/a	n/a	n/a	"NULL"	n/a	"NULL"	"NULL"	"NULL"	"<p style=\"color: black; font-size: 80px; padding-left: 49%; padding-right: 33%; padding-top: 8%; padding-bottom: 30%\">+</p>"	"1358"	n/a	n/a	n/a	n/a	n/a	n/a	n/a	n/a	n/a
n/a	"image-keyboard-response"	"132"	"313707"	"0.0-5.0-2.0-1.39"	"c0qqt7"	"600"	"1366"	"chrome"	"109.0.0"	"FALSE"	"Windows 10"	"60.63"	"151"	n/a	n/a	n/a	n/a	n/a	n/a	"Trial"	n/a	n/a	n/a	"589"	"arrowright"	n/a	"NULL"	"NULL"	"NULL"	"stimuli/VerticalHorizontal_-3.3000_-0.0673.png"	n/a	"VerticalHorizontal"	"arrowright"	"1376"	"TRUE"	"VerticalHorizontal"	"-3.300000000"	"-0.067300000"	"1"	"58"
n/a	"html-keyboard-response"	"133"	"314941"	"0.0-5.0-2.0-0.40"	"c0qqt7"	"600"	"1366"	"chrome"	"109.0.0"	"FALSE"	"Windows 10"	"60.63"	"151"	n/a	n/a	n/a	n/a	n/a	n/a	"fixation"	n/a	n/a	n/a	n/a	"NULL"	n/a	"NULL"	"NULL"	"NULL"	"<p style=\"color: black; font-size: 80px; padding-left: 42%; padding-right: 26%; padding-top: 10%; padding-bottom: 43%\">+</p>"	"1223"	n/a	n/a	n/a	n/a	n/a	n/a	n/a	n/a	n/a
n/a	"image-keyboard-response"	"134"	"315568"	"0.0-5.0-2.0-1.40"	"c0qqt7"	"600"	"1366"	"chrome"	"109.0.0"	"FALSE"	"Windows 10"	"60.63"	"151"	n/a	n/a	n/a	n/a	n/a	n/a	"Trial"	n/a	n/a	n/a	"626"	"arrowright"	n/a	"NULL"	"NULL"	"NULL"	"stimuli/VerticalHorizontal_11.78571_-0.16217.png"	n/a	"VerticalHorizontal"	"arrowright"	"1234"	"TRUE"	"VerticalHorizontal"	"11.785710000"	"-0.162170000"	"1"	"59"
n/a	"html-keyboard-response"	"135"	"316968"	"0.0-5.0-2.0-0.41"	"c0qqt7"	"600"	"1366"	"chrome"	"109.0.0"	"FALSE"	"Windows 10"	"60.63"	"151"	n/a	n/a	n/a	n/a	n/a	n/a	"fixation"	n/a	n/a	n/a	n/a	"NULL"	n/a	"NULL"	"NULL"	"NULL"	"<p style=\"color: black; font-size: 80px; padding-left: 50%; padding-right: 29%; padding-top: 43%; padding-bottom: 22%\">+</p>"	"1378"	n/a	n/a	n/a	n/a	n/a	n/a	n/a	n/a	n/a
n/a	"image-keyboard-response"	"136"	"317502"	"0.0-5.0-2.0-1.41"	"c0qqt7"	"600"	"1366"	"chrome"	"109.0.0"	"FALSE"	"Windows 10"	"60.63"	"151"	n/a	n/a	n/a	n/a	n/a	n/a	"Trial"	n/a	n/a	n/a	"533"	"arrowleft"	n/a	"NULL"	"NULL"	"NULL"	"stimuli/VerticalHorizontal_28.75714_0.22500.png"	n/a	"VerticalHorizontal"	"arrowleft"	"1400"	"TRUE"	"VerticalHorizontal"	"28.757140000"	"0.2250000000"	"1"	"60"
n/a	"html-keyboard-response"	"137"	"318842"	"0.0-5.0-2.0-0.42"	"c0qqt7"	"600"	"1366"	"chrome"	"109.0.0"	"FALSE"	"Windows 10"	"60.63"	"151"	n/a	n/a	n/a	n/a	n/a	n/a	"fixation"	n/a	n/a	n/a	n/a	"NULL"	n/a	"NULL"	"NULL"	"NULL"	"<p style=\"color: black; font-size: 80px; padding-left: 39%; padding-right: 26%; padding-top: 6%; padding-bottom: 50%\">+</p>"	"1332"	n/a	n/a	n/a	n/a	n/a	n/a	n/a	n/a	n/a
n/a	"image-keyboard-response"	"138"	"319331"	"0.0-5.0-2.0-1.42"	"c0qqt7"	"600"	"1366"	"chrome"	"109.0.0"	"FALSE"	"Windows 10"	"60.63"	"151"	n/a	n/a	n/a	n/a	n/a	n/a	"Trial"	n/a	n/a	n/a	"487"	"arrowright"	n/a	"NULL"	"NULL"	"NULL"	"stimuli/VerticalHorizontal_-11.78571_-0.16217.png"	n/a	"VerticalHorizontal"	"arrowright"	"1340"	"TRUE"	"VerticalHorizontal"	"-11.78571000"	"-0.162170000"	"1"	"61"
n/a	"html-keyboard-response"	"139"	"320711"	"0.0-5.0-2.0-0.43"	"c0qqt7"	"600"	"1366"	"chrome"	"109.0.0"	"FALSE"	"Windows 10"	"60.63"	"151"	n/a	n/a	n/a	n/a	n/a	n/a	"fixation"	n/a	n/a	n/a	n/a	"NULL"	n/a	"NULL"	"NULL"	"NULL"	"<p style=\"color: black; font-size: 80px; padding-left: 15%; padding-right: 19%; padding-top: 1%; padding-bottom: 23%\">+</p>"	"1358"	n/a	n/a	n/a	n/a	n/a	n/a	n/a	n/a	n/a
n/a	"image-keyboard-response"	"140"	"321078"	"0.0-5.0-2.0-1.43"	"c0qqt7"	"600"	"1366"	"chrome"	"109.0.0"	"FALSE"	"Windows 10"	"60.63"	"151"	n/a	n/a	n/a	n/a	n/a	n/a	"Trial"	n/a	n/a	n/a	"366"	"arrowright"	n/a	"NULL"	"NULL"	"NULL"	"stimuli/VerticalHorizontal_-28.75714_-0.2250.png"	n/a	"VerticalHorizontal"	"arrowright"	"1380"	"TRUE"	"VerticalHorizontal"	"-28.75714000"	"-0.225000000"	"1"	"62"
n/a	"html-keyboard-response"	"141"	"322297"	"0.0-5.0-2.0-0.44"	"c0qqt7"	"600"	"1366"	"chrome"	"109.0.0"	"FALSE"	"Windows 10"	"60.63"	"151"	n/a	n/a	n/a	n/a	n/a	n/a	"fixation"	n/a	n/a	n/a	n/a	"NULL"	n/a	"NULL"	"NULL"	"NULL"	"<p style=\"color: black; font-size: 80px; padding-left: 35%; padding-right: 3%; padding-top: 36%; padding-bottom: 27%\">+</p>"	"1205"	n/a	n/a	n/a	n/a	n/a	n/a	n/a	n/a	n/a
n/a	"image-keyboard-response"	"142"	"322662"	"0.0-5.0-2.0-1.44"	"c0qqt7"	"600"	"1366"	"chrome"	"109.0.0"	"FALSE"	"Windows 10"	"60.63"	"151"	n/a	n/a	n/a	n/a	n/a	n/a	"Trial"	n/a	n/a	n/a	"365"	"arrowright"	n/a	"NULL"	"NULL"	"NULL"	"stimuli/VerticalHorizontal_-11.78571_-0.1096.png"	n/a	"VerticalHorizontal"	"arrowright"	"1219"	"TRUE"	"VerticalHorizontal"	"-11.78571000"	"-0.109600000"	"1"	"63"
n/a	"html-keyboard-response"	"143"	"324062"	"0.0-5.0-2.0-0.45"	"c0qqt7"	"600"	"1366"	"chrome"	"109.0.0"	"FALSE"	"Windows 10"	"60.63"	"151"	n/a	n/a	n/a	n/a	n/a	n/a	"fixation"	n/a	n/a	n/a	n/a	"NULL"	n/a	"NULL"	"NULL"	"NULL"	"<p style=\"color: black; font-size: 80px; padding-left: 48%; padding-right: 5%; padding-top: 26%; padding-bottom: 47%\">+</p>"	"1381"	n/a	n/a	n/a	n/a	n/a	n/a	n/a	n/a	n/a
n/a	"image-keyboard-response"	"144"	"324594"	"0.0-5.0-2.0-1.45"	"c0qqt7"	"600"	"1366"	"chrome"	"109.0.0"	"FALSE"	"Windows 10"	"60.63"	"151"	n/a	n/a	n/a	n/a	n/a	n/a	"Trial"	n/a	n/a	n/a	"531"	"arrowleft"	n/a	"NULL"	"NULL"	"NULL"	"stimuli/VerticalHorizontal_11.78571_0.22500.png"	n/a	"VerticalHorizontal"	"arrowleft"	"1400"	"TRUE"	"VerticalHorizontal"	"11.785710000"	"0.2250000000"	"1"	"64"
n/a	"html-keyboard-response"	"145"	"325684"	"0.0-5.0-2.0-0.46"	"c0qqt7"	"600"	"1366"	"chrome"	"109.0.0"	"FALSE"	"Windows 10"	"60.63"	"151"	n/a	n/a	n/a	n/a	n/a	n/a	"fixation"	n/a	n/a	n/a	n/a	"NULL"	n/a	"NULL"	"NULL"	"NULL"	"<p style=\"color: black; font-size: 80px; padding-left: 20%; padding-right: 48%; padding-top: 37%; padding-bottom: 8%\">+</p>"	"1073"	n/a	n/a	n/a	n/a	n/a	n/a	n/a	n/a	n/a
n/a	"image-keyboard-response"	"146"	"326366"	"0.0-5.0-2.0-1.46"	"c0qqt7"	"600"	"1366"	"chrome"	"109.0.0"	"FALSE"	"Windows 10"	"60.63"	"151"	n/a	n/a	n/a	n/a	n/a	n/a	"Trial"	n/a	n/a	n/a	"681"	"arrowleft"	n/a	"NULL"	"NULL"	"NULL"	"stimuli/VerticalHorizontal_28.75714_-0.0673.png"	n/a	"VerticalHorizontal"	"arrowright"	"1090"	"FALSE"	"VerticalHorizontal"	"28.757140000"	"-0.067300000"	"1"	"65"
n/a	"html-keyboard-response"	"147"	"327529"	"0.0-5.0-2.0-0.47"	"c0qqt7"	"600"	"1366"	"chrome"	"109.0.0"	"FALSE"	"Windows 10"	"60.63"	"151"	n/a	n/a	n/a	n/a	n/a	n/a	"fixation"	n/a	n/a	n/a	n/a	"NULL"	n/a	"NULL"	"NULL"	"NULL"	"<p style=\"color: black; font-size: 80px; padding-left: 42%; padding-right: 46%; padding-top: 18%; padding-bottom: 25%\">+</p>"	"1143"	n/a	n/a	n/a	n/a	n/a	n/a	n/a	n/a	n/a
n/a	"image-keyboard-response"	"148"	"328088"	"0.0-5.0-2.0-1.47"	"c0qqt7"	"600"	"1366"	"chrome"	"109.0.0"	"FALSE"	"Windows 10"	"60.63"	"151"	n/a	n/a	n/a	n/a	n/a	n/a	"Trial"	n/a	n/a	n/a	"558"	"arrowright"	n/a	"NULL"	"NULL"	"NULL"	"stimuli/VerticalHorizontal_-3.3000_0.06730.png"	n/a	"VerticalHorizontal"	"arrowleft"	"1163"	"FALSE"	"VerticalHorizontal"	"-3.300000000"	"0.0673000000"	"1"	"66"
n/a	"html-keyboard-response"	"149"	"329528"	"0.0-5.0-2.0-0.48"	"c0qqt7"	"600"	"1366"	"chrome"	"109.0.0"	"FALSE"	"Windows 10"	"60.63"	"151"	n/a	n/a	n/a	n/a	n/a	n/a	"fixation"	n/a	n/a	n/a	n/a	"NULL"	n/a	"NULL"	"NULL"	"NULL"	"<p style=\"color: black; font-size: 80px; padding-left: 37%; padding-right: 6%; padding-top: 11%; padding-bottom: 19%\">+</p>"	"1430"	n/a	n/a	n/a	n/a	n/a	n/a	n/a	n/a	n/a
n/a	"image-keyboard-response"	"150"	"330300"	"0.0-5.0-2.0-1.48"	"c0qqt7"	"600"	"1366"	"chrome"	"109.0.0"	"FALSE"	"Windows 10"	"60.63"	"151"	n/a	n/a	n/a	n/a	n/a	n/a	"Trial"	n/a	n/a	n/a	"771"	"arrowright"	n/a	"NULL"	"NULL"	"NULL"	"stimuli/VerticalHorizontal_11.78571_-0.2250.png"	n/a	"VerticalHorizontal"	"arrowright"	"1440"	"TRUE"	"VerticalHorizontal"	"11.785710000"	"-0.225000000"	"1"	"67"
n/a	"html-keyboard-response"	"151"	"331332"	"0.0-5.0-2.0-0.49"	"c0qqt7"	"600"	"1366"	"chrome"	"109.0.0"	"FALSE"	"Windows 10"	"60.63"	"151"	n/a	n/a	n/a	n/a	n/a	n/a	"fixation"	n/a	n/a	n/a	n/a	"NULL"	n/a	"NULL"	"NULL"	"NULL"	"<p style=\"color: black; font-size: 80px; padding-left: 24%; padding-right: 44%; padding-top: 43%; padding-bottom: 30%\">+</p>"	"1021"	n/a	n/a	n/a	n/a	n/a	n/a	n/a	n/a	n/a
n/a	"image-keyboard-response"	"152"	"331992"	"0.0-5.0-2.0-1.49"	"c0qqt7"	"600"	"1366"	"chrome"	"109.0.0"	"FALSE"	"Windows 10"	"60.63"	"151"	n/a	n/a	n/a	n/a	n/a	n/a	"Trial"	n/a	n/a	n/a	"658"	"arrowleft"	n/a	"NULL"	"NULL"	"NULL"	"stimuli/VerticalHorizontal_3.30000_0.06730.png"	n/a	"VerticalHorizontal"	"arrowleft"	"1032"	"TRUE"	"VerticalHorizontal"	"3.3000000000"	"0.0673000000"	"1"	"68"
n/a	"html-keyboard-response"	"153"	"333497"	"0.0-5.0-2.0-0.50"	"c0qqt7"	"600"	"1366"	"chrome"	"109.0.0"	"FALSE"	"Windows 10"	"60.63"	"151"	n/a	n/a	n/a	n/a	n/a	n/a	"fixation"	n/a	n/a	n/a	n/a	"NULL"	n/a	"NULL"	"NULL"	"NULL"	"<p style=\"color: black; font-size: 80px; padding-left: 25%; padding-right: 26%; padding-top: 22%; padding-bottom: 25%\">+</p>"	"1486"	n/a	n/a	n/a	n/a	n/a	n/a	n/a	n/a	n/a
n/a	"image-keyboard-response"	"154"	"333983"	"0.0-5.0-2.0-1.50"	"c0qqt7"	"600"	"1366"	"chrome"	"109.0.0"	"FALSE"	"Windows 10"	"60.63"	"151"	n/a	n/a	n/a	n/a	n/a	n/a	"Trial"	n/a	n/a	n/a	"484"	"arrowleft"	n/a	"NULL"	"NULL"	"NULL"	"stimuli/VerticalHorizontal_-11.78571_0.16217.png"	n/a	"VerticalHorizontal"	"arrowleft"	"1505"	"TRUE"	"VerticalHorizontal"	"-11.78571000"	"0.1621700000"	"1"	"69"
n/a	"html-keyboard-response"	"155"	"335465"	"0.0-5.0-2.0-0.51"	"c0qqt7"	"600"	"1366"	"chrome"	"109.0.0"	"FALSE"	"Windows 10"	"60.63"	"151"	n/a	n/a	n/a	n/a	n/a	n/a	"fixation"	n/a	n/a	n/a	n/a	"NULL"	n/a	"NULL"	"NULL"	"NULL"	"<p style=\"color: black; font-size: 80px; padding-left: 20%; padding-right: 32%; padding-top: 14%; padding-bottom: 42%\">+</p>"	"1466"	n/a	n/a	n/a	n/a	n/a	n/a	n/a	n/a	n/a
n/a	"image-keyboard-response"	"156"	"335841"	"0.0-5.0-2.0-1.51"	"c0qqt7"	"600"	"1366"	"chrome"	"109.0.0"	"FALSE"	"Windows 10"	"60.63"	"151"	n/a	n/a	n/a	n/a	n/a	n/a	"Trial"	n/a	n/a	n/a	"376"	"arrowright"	n/a	"NULL"	"NULL"	"NULL"	"stimuli/VerticalHorizontal_28.75714_0.16217.png"	n/a	"VerticalHorizontal"	"arrowleft"	"1482"	"FALSE"	"VerticalHorizontal"	"28.757140000"	"0.1621700000"	"1"	"70"
n/a	"html-keyboard-response"	"157"	"337044"	"0.0-5.0-2.0-0.52"	"c0qqt7"	"600"	"1366"	"chrome"	"109.0.0"	"FALSE"	"Windows 10"	"60.63"	"151"	n/a	n/a	n/a	n/a	n/a	n/a	"fixation"	n/a	n/a	n/a	n/a	"NULL"	n/a	"NULL"	"NULL"	"NULL"	"<p style=\"color: black; font-size: 80px; padding-left: 44%; padding-right: 28%; padding-top: 18%; padding-bottom: 11%\">+</p>"	"1191"	n/a	n/a	n/a	n/a	n/a	n/a	n/a	n/a	n/a
n/a	"image-keyboard-response"	"158"	"337530"	"0.0-5.0-2.0-1.52"	"c0qqt7"	"600"	"1366"	"chrome"	"109.0.0"	"FALSE"	"Windows 10"	"60.63"	"151"	n/a	n/a	n/a	n/a	n/a	n/a	"Trial"	n/a	n/a	n/a	"484"	"arrowleft"	n/a	"NULL"	"NULL"	"NULL"	"stimuli/VerticalHorizontal_-20.27143_0.16217.png"	n/a	"VerticalHorizontal"	"arrowleft"	"1203"	"TRUE"	"VerticalHorizontal"	"-20.27143000"	"0.1621700000"	"1"	"71"
n/a	"html-keyboard-response"	"159"	"338846"	"0.0-5.0-2.0-0.53"	"c0qqt7"	"600"	"1366"	"chrome"	"109.0.0"	"FALSE"	"Windows 10"	"60.63"	"151"	n/a	n/a	n/a	n/a	n/a	n/a	"fixation"	n/a	n/a	n/a	n/a	"NULL"	n/a	"NULL"	"NULL"	"NULL"	"<p style=\"color: black; font-size: 80px; padding-left: 29%; padding-right: 5%; padding-top: 31%; padding-bottom: 6%\">+</p>"	"1300"	n/a	n/a	n/a	n/a	n/a	n/a	n/a	n/a	n/a
n/a	"image-keyboard-response"	"160"	"339260"	"0.0-5.0-2.0-1.53"	"c0qqt7"	"600"	"1366"	"chrome"	"109.0.0"	"FALSE"	"Windows 10"	"60.63"	"151"	n/a	n/a	n/a	n/a	n/a	n/a	"Trial"	n/a	n/a	n/a	"413"	"arrowright"	n/a	"NULL"	"NULL"	"NULL"	"stimuli/VerticalHorizontal_-3.3000_-0.2250.png"	n/a	"VerticalHorizontal"	"arrowright"	"1316"	"TRUE"	"VerticalHorizontal"	"-3.300000000"	"-0.225000000"	"1"	"72"
n/a	"html-keyboard-response"	"161"	"340732"	"0.0-5.0-2.0-0.54"	"c0qqt7"	"600"	"1366"	"chrome"	"109.0.0"	"FALSE"	"Windows 10"	"60.63"	"151"	n/a	n/a	n/a	n/a	n/a	n/a	"fixation"	n/a	n/a	n/a	n/a	"NULL"	n/a	"NULL"	"NULL"	"NULL"	"<p style=\"color: black; font-size: 80px; padding-left: 34%; padding-right: 36%; padding-top: 8%; padding-bottom: 39%\">+</p>"	"1464"	n/a	n/a	n/a	n/a	n/a	n/a	n/a	n/a	n/a
n/a	"image-keyboard-response"	"162"	"341215"	"0.0-5.0-2.0-1.54"	"c0qqt7"	"600"	"1366"	"chrome"	"109.0.0"	"FALSE"	"Windows 10"	"60.63"	"151"	n/a	n/a	n/a	n/a	n/a	n/a	"Trial"	n/a	n/a	n/a	"482"	"arrowleft"	n/a	"NULL"	"NULL"	"NULL"	"stimuli/VerticalHorizontal_20.27143_0.22500.png"	n/a	"VerticalHorizontal"	"arrowleft"	"1472"	"TRUE"	"VerticalHorizontal"	"20.271430000"	"0.2250000000"	"1"	"73"
n/a	"html-keyboard-response"	"163"	"342734"	"0.0-5.0-2.0-0.55"	"c0qqt7"	"600"	"1366"	"chrome"	"109.0.0"	"FALSE"	"Windows 10"	"60.63"	"151"	n/a	n/a	n/a	n/a	n/a	n/a	"fixation"	n/a	n/a	n/a	n/a	"NULL"	n/a	"NULL"	"NULL"	"NULL"	"<p style=\"color: black; font-size: 80px; padding-left: 29%; padding-right: 13%; padding-top: 44%; padding-bottom: 2%\">+</p>"	"1500"	n/a	n/a	n/a	n/a	n/a	n/a	n/a	n/a	n/a
n/a	"image-keyboard-response"	"164"	"343103"	"0.0-5.0-2.0-1.55"	"c0qqt7"	"600"	"1366"	"chrome"	"109.0.0"	"FALSE"	"Windows 10"	"60.63"	"151"	n/a	n/a	n/a	n/a	n/a	n/a	"Trial"	n/a	n/a	n/a	"368"	"arrowright"	n/a	"NULL"	"NULL"	"NULL"	"stimuli/VerticalHorizontal_-20.27143_-0.1096.png"	n/a	"VerticalHorizontal"	"arrowright"	"1519"	"TRUE"	"VerticalHorizontal"	"-20.27143000"	"-0.109600000"	"1"	"74"
n/a	"html-keyboard-response"	"165"	"344141"	"0.0-5.0-2.0-0.56"	"c0qqt7"	"600"	"1366"	"chrome"	"109.0.0"	"FALSE"	"Windows 10"	"60.63"	"151"	n/a	n/a	n/a	n/a	n/a	n/a	"fixation"	n/a	n/a	n/a	n/a	"NULL"	n/a	"NULL"	"NULL"	"NULL"	"<p style=\"color: black; font-size: 80px; padding-left: 30%; padding-right: 42%; padding-top: 37%; padding-bottom: 8%\">+</p>"	"1016"	n/a	n/a	n/a	n/a	n/a	n/a	n/a	n/a	n/a
n/a	"image-keyboard-response"	"166"	"344625"	"0.0-5.0-2.0-1.56"	"c0qqt7"	"600"	"1366"	"chrome"	"109.0.0"	"FALSE"	"Windows 10"	"60.63"	"151"	n/a	n/a	n/a	n/a	n/a	n/a	"Trial"	n/a	n/a	n/a	"483"	"arrowleft"	n/a	"NULL"	"NULL"	"NULL"	"stimuli/VerticalHorizontal_3.30000_0.22500.png"	n/a	"VerticalHorizontal"	"arrowleft"	"1038"	"TRUE"	"VerticalHorizontal"	"3.3000000000"	"0.2250000000"	"1"	"75"
n/a	"html-keyboard-response"	"167"	"345671"	"0.0-5.0-2.0-0.57"	"c0qqt7"	"600"	"1366"	"chrome"	"109.0.0"	"FALSE"	"Windows 10"	"60.63"	"151"	n/a	n/a	n/a	n/a	n/a	n/a	"fixation"	n/a	n/a	n/a	n/a	"NULL"	n/a	"NULL"	"NULL"	"NULL"	"<p style=\"color: black; font-size: 80px; padding-left: 41%; padding-right: 10%; padding-top: 25%; padding-bottom: 42%\">+</p>"	"1038"	n/a	n/a	n/a	n/a	n/a	n/a	n/a	n/a	n/a
n/a	"image-keyboard-response"	"168"	"346056"	"0.0-5.0-2.0-1.57"	"c0qqt7"	"600"	"1366"	"chrome"	"109.0.0"	"FALSE"	"Windows 10"	"60.63"	"151"	n/a	n/a	n/a	n/a	n/a	n/a	"Trial"	n/a	n/a	n/a	"384"	"arrowleft"	n/a	"NULL"	"NULL"	"NULL"	"stimuli/VerticalHorizontal_-20.27143_0.10960.png"	n/a	"VerticalHorizontal"	"arrowleft"	"1046"	"TRUE"	"VerticalHorizontal"	"-20.27143000"	"0.1096000000"	"1"	"76"
n/a	"html-keyboard-response"	"169"	"347295"	"0.0-5.0-2.0-0.58"	"c0qqt7"	"600"	"1366"	"chrome"	"109.0.0"	"FALSE"	"Windows 10"	"60.63"	"151"	n/a	n/a	n/a	n/a	n/a	n/a	"fixation"	n/a	n/a	n/a	n/a	"NULL"	n/a	"NULL"	"NULL"	"NULL"	"<p style=\"color: black; font-size: 80px; padding-left: 46%; padding-right: 10%; padding-top: 43%; padding-bottom: 15%\">+</p>"	"1230"	n/a	n/a	n/a	n/a	n/a	n/a	n/a	n/a	n/a
n/a	"image-keyboard-response"	"170"	"347801"	"0.0-5.0-2.0-1.58"	"c0qqt7"	"600"	"1366"	"chrome"	"109.0.0"	"FALSE"	"Windows 10"	"60.63"	"151"	n/a	n/a	n/a	n/a	n/a	n/a	"Trial"	n/a	n/a	n/a	"505"	"arrowright"	n/a	"NULL"	"NULL"	"NULL"	"stimuli/VerticalHorizontal_3.30000_-0.16217.png"	n/a	"VerticalHorizontal"	"arrowright"	"1239"	"TRUE"	"VerticalHorizontal"	"3.3000000000"	"-0.162170000"	"1"	"77"
n/a	"html-keyboard-response"	"171"	"348919"	"0.0-5.0-2.0-0.59"	"c0qqt7"	"600"	"1366"	"chrome"	"109.0.0"	"FALSE"	"Windows 10"	"60.63"	"151"	n/a	n/a	n/a	n/a	n/a	n/a	"fixation"	n/a	n/a	n/a	n/a	"NULL"	n/a	"NULL"	"NULL"	"NULL"	"<p style=\"color: black; font-size: 80px; padding-left: 23%; padding-right: 40%; padding-top: 3%; padding-bottom: 32%\">+</p>"	"1097"	n/a	n/a	n/a	n/a	n/a	n/a	n/a	n/a	n/a
n/a	"image-keyboard-response"	"172"	"349565"	"0.0-5.0-2.0-1.59"	"c0qqt7"	"600"	"1366"	"chrome"	"109.0.0"	"FALSE"	"Windows 10"	"60.63"	"151"	n/a	n/a	n/a	n/a	n/a	n/a	"Trial"	n/a	n/a	n/a	"644"	"arrowright"	n/a	"NULL"	"NULL"	"NULL"	"stimuli/VerticalHorizontal_-20.27143_-0.0673.png"	n/a	"VerticalHorizontal"	"arrowright"	"1118"	"TRUE"	"VerticalHorizontal"	"-20.27143000"	"-0.067300000"	"1"	"78"
n/a	"html-keyboard-response"	"173"	"350809"	"0.0-5.0-2.0-0.60"	"c0qqt7"	"600"	"1366"	"chrome"	"109.0.0"	"FALSE"	"Windows 10"	"60.63"	"151"	n/a	n/a	n/a	n/a	n/a	n/a	"fixation"	n/a	n/a	n/a	n/a	"NULL"	n/a	"NULL"	"NULL"	"NULL"	"<p style=\"color: black; font-size: 80px; padding-left: 13%; padding-right: 35%; padding-top: 46%; padding-bottom: 15%\">+</p>"	"1225"	n/a	n/a	n/a	n/a	n/a	n/a	n/a	n/a	n/a
n/a	"image-keyboard-response"	"174"	"351401"	"0.0-5.0-2.0-1.60"	"c0qqt7"	"600"	"1366"	"chrome"	"109.0.0"	"FALSE"	"Windows 10"	"60.63"	"151"	n/a	n/a	n/a	n/a	n/a	n/a	"Trial"	n/a	n/a	n/a	"591"	"arrowleft"	n/a	"NULL"	"NULL"	"NULL"	"stimuli/VerticalHorizontal_3.30000_-0.0673.png"	n/a	"VerticalHorizontal"	"arrowright"	"1244"	"FALSE"	"VerticalHorizontal"	"3.3000000000"	"-0.067300000"	"1"	"79"
n/a	"html-keyboard-response"	"175"	"352553"	"0.0-5.0-2.0-0.61"	"c0qqt7"	"600"	"1366"	"chrome"	"109.0.0"	"FALSE"	"Windows 10"	"60.63"	"151"	n/a	n/a	n/a	n/a	n/a	n/a	"fixation"	n/a	n/a	n/a	n/a	"NULL"	n/a	"NULL"	"NULL"	"NULL"	"<p style=\"color: black; font-size: 80px; padding-left: 38%; padding-right: 47%; padding-top: 4%; padding-bottom: 46%\">+</p>"	"1132"	n/a	n/a	n/a	n/a	n/a	n/a	n/a	n/a	n/a
n/a	"image-keyboard-response"	"176"	"353010"	"0.0-5.0-2.0-1.61"	"c0qqt7"	"600"	"1366"	"chrome"	"109.0.0"	"FALSE"	"Windows 10"	"60.63"	"151"	n/a	n/a	n/a	n/a	n/a	n/a	"Trial"	n/a	n/a	n/a	"456"	"arrowleft"	n/a	"NULL"	"NULL"	"NULL"	"stimuli/VerticalHorizontal_20.27143_-0.16217.png"	n/a	"VerticalHorizontal"	"arrowright"	"1152"	"FALSE"	"VerticalHorizontal"	"20.271430000"	"-0.162170000"	"1"	"80"
n/a	"html-keyboard-response"	"177"	"354483"	"0.0-5.0-2.0-0.62"	"c0qqt7"	"600"	"1366"	"chrome"	"109.0.0"	"FALSE"	"Windows 10"	"60.63"	"151"	n/a	n/a	n/a	n/a	n/a	n/a	"fixation"	n/a	n/a	n/a	n/a	"NULL"	n/a	"NULL"	"NULL"	"NULL"	"<p style=\"color: black; font-size: 80px; padding-left: 48%; padding-right: 32%; padding-top: 21%; padding-bottom: 22%\">+</p>"	"1467"	n/a	n/a	n/a	n/a	n/a	n/a	n/a	n/a	n/a
n/a	"image-keyboard-response"	"178"	"354874"	"0.0-5.0-2.0-1.62"	"c0qqt7"	"600"	"1366"	"chrome"	"109.0.0"	"FALSE"	"Windows 10"	"60.63"	"151"	n/a	n/a	n/a	n/a	n/a	n/a	"Trial"	n/a	n/a	n/a	"389"	"arrowright"	n/a	"NULL"	"NULL"	"NULL"	"stimuli/VerticalHorizontal_3.30000_-0.2250.png"	n/a	"VerticalHorizontal"	"arrowright"	"1473"	"TRUE"	"VerticalHorizontal"	"3.3000000000"	"-0.225000000"	"1"	"81"
n/a	"html-keyboard-response"	"179"	"356282"	"0.0-5.0-2.0-0.63"	"c0qqt7"	"600"	"1366"	"chrome"	"109.0.0"	"FALSE"	"Windows 10"	"60.63"	"151"	n/a	n/a	n/a	n/a	n/a	n/a	"fixation"	n/a	n/a	n/a	n/a	"NULL"	n/a	"NULL"	"NULL"	"NULL"	"<p style=\"color: black; font-size: 80px; padding-left: 45%; padding-right: 10%; padding-top: 34%; padding-bottom: 18%\">+</p>"	"1403"	n/a	n/a	n/a	n/a	n/a	n/a	n/a	n/a	n/a
n/a	"image-keyboard-response"	"180"	"356696"	"0.0-5.0-2.0-1.63"	"c0qqt7"	"600"	"1366"	"chrome"	"109.0.0"	"FALSE"	"Windows 10"	"60.63"	"151"	n/a	n/a	n/a	n/a	n/a	n/a	"Trial"	n/a	n/a	n/a	"413"	"arrowleft"	n/a	"NULL"	"NULL"	"NULL"	"stimuli/VerticalHorizontal_28.75714_-0.2250.png"	n/a	"VerticalHorizontal"	"arrowright"	"1408"	"FALSE"	"VerticalHorizontal"	"28.757140000"	"-0.225000000"	"1"	"82"
n/a	"html-button-response"	"181"	"387165"	"0.0-5.0-3.0"	"c0qqt7"	"600"	"1366"	"chrome"	"109.0.0"	"FALSE"	"Windows 10"	"60.63"	"151"	n/a	n/a	n/a	n/a	n/a	n/a	"block_results"	n/a	n/a	n/a	"30466"	"0"	n/a	"NULL"	"NULL"	"NULL"	"<p>Your score for this illusion is <p style=\"color: black; font-size: 48px; font-weight: bold;\">80.9 %</p><hr><p>Can you do better in the next illusion?</p>"	n/a	n/a	n/a	n/a	n/a	n/a	n/a	n/a	n/a	n/a
"TRUE"	"preload"	"182"	"387328"	"0.0-6.0-0.0"	"c0qqt7"	"600"	"1366"	"chrome"	"109.0.0"	"FALSE"	"Windows 10"	"60.63"	"151"	n/a	n/a	n/a	n/a	n/a	n/a	n/a	n/a	n/a	n/a	n/a	"NULL"	"FALSE"	"list()"	"list()"	"list()"	n/a	n/a	n/a	n/a	n/a	n/a	n/a	n/a	n/a	n/a	n/a
n/a	"html-keyboard-response"	"183"	"391963"	"0.0-6.0-1.0"	"c0qqt7"	"600"	"1366"	"chrome"	"109.0.0"	"FALSE"	"Windows 10"	"60.63"	"151"	n/a	n/a	n/a	n/a	n/a	n/a	n/a	n/a	n/a	n/a	"4634"	"enter"	n/a	"NULL"	"NULL"	"NULL"	"<p><b>Part 2/6</b></p><p>In this part, two red circles will appear side by side on the screen.</p><p>Your task is to select which <b>red circle is bigger</b> in size as fast as you can, without making errors.</p><p>Don't get distracted by the surrounding black circles around the red circles!</p><p>Press <b>the LEFT or the RIGHT arrow</b> to indicate which is the bigger <b>red circle.</b></p><div style='float: center'><img src='materials/instructions/Ebbinghaus_Demo.png' height='300'></img><p><img src='utils/answer/answer_leftright_keyboard.PNG' height='150'></img></p><p class='small'>In this example, the correct answer is the <b>LEFT arrow</b>.</p></div><p>Are you ready? <b>Press ENTER to start</b></p>"	n/a	n/a	n/a	n/a	n/a	n/a	n/a	n/a	n/a	n/a
n/a	"html-keyboard-response"	"184"	"393832"	"0.0-6.0-2.0-0.0"	"c0qqt7"	"600"	"1366"	"chrome"	"109.0.0"	"FALSE"	"Windows 10"	"60.63"	"151"	n/a	n/a	n/a	n/a	n/a	n/a	"fixation"	n/a	n/a	n/a	n/a	"NULL"	n/a	"NULL"	"NULL"	"NULL"	"<p style=\"color: black; font-size: 80px; padding-left: 26%; padding-right: 41%; padding-top: 40%; padding-bottom: 6%\">+</p>"	"1341"	n/a	n/a	n/a	n/a	n/a	n/a	n/a	n/a	n/a
n/a	"image-keyboard-response"	"185"	"395097"	"0.0-6.0-2.0-1.0"	"c0qqt7"	"600"	"1366"	"chrome"	"109.0.0"	"FALSE"	"Windows 10"	"60.63"	"151"	n/a	n/a	n/a	n/a	n/a	n/a	"Trial"	n/a	n/a	n/a	"1264"	"arrowright"	n/a	"NULL"	"NULL"	"NULL"	"stimuli/Ebbinghaus_0.87143_0.21500.png"	n/a	"Ebbinghaus"	"arrowleft"	"1869"	"FALSE"	"Ebbinghaus"	"0.8714300000"	"0.2150000000"	"2"	"1"
n/a	"html-keyboard-response"	"186"	"396581"	"0.0-6.0-2.0-0.1"	"c0qqt7"	"600"	"1366"	"chrome"	"109.0.0"	"FALSE"	"Windows 10"	"60.63"	"151"	n/a	n/a	n/a	n/a	n/a	n/a	"fixation"	n/a	n/a	n/a	n/a	"NULL"	n/a	"NULL"	"NULL"	"NULL"	"<p style=\"color: black; font-size: 80px; padding-left: 29%; padding-right: 19%; padding-top: 25%; padding-bottom: 17%\">+</p>"	"1465"	n/a	n/a	n/a	n/a	n/a	n/a	n/a	n/a	n/a
n/a	"image-keyboard-response"	"187"	"397167"	"0.0-6.0-2.0-1.1"	"c0qqt7"	"600"	"1366"	"chrome"	"109.0.0"	"FALSE"	"Windows 10"	"60.63"	"151"	n/a	n/a	n/a	n/a	n/a	n/a	"Trial"	n/a	n/a	n/a	"585"	"arrowright"	n/a	"NULL"	"NULL"	"NULL"	"stimuli/Ebbinghaus_0.87143_-0.2150.png"	n/a	"Ebbinghaus"	"arrowright"	"1484"	"TRUE"	"Ebbinghaus"	"0.8714300000"	"-0.215000000"	"2"	"2"
n/a	"html-keyboard-response"	"188"	"398389"	"0.0-6.0-2.0-0.2"	"c0qqt7"	"600"	"1366"	"chrome"	"109.0.0"	"FALSE"	"Windows 10"	"60.63"	"151"	n/a	n/a	n/a	n/a	n/a	n/a	"fixation"	n/a	n/a	n/a	n/a	"NULL"	n/a	"NULL"	"NULL"	"NULL"	"<p style=\"color: black; font-size: 80px; padding-left: 21%; padding-right: 18%; padding-top: 21%; padding-bottom: 8%\">+</p>"	"1212"	n/a	n/a	n/a	n/a	n/a	n/a	n/a	n/a	n/a
n/a	"image-keyboard-response"	"189"	"399251"	"0.0-6.0-2.0-1.2"	"c0qqt7"	"600"	"1366"	"chrome"	"109.0.0"	"FALSE"	"Windows 10"	"60.63"	"151"	n/a	n/a	n/a	n/a	n/a	n/a	"Trial"	n/a	n/a	n/a	"861"	"arrowleft"	n/a	"NULL"	"NULL"	"NULL"	"stimuli/Ebbinghaus_0.61429_0.28000.png"	n/a	"Ebbinghaus"	"arrowleft"	"1222"	"TRUE"	"Ebbinghaus"	"0.6142900000"	"0.2800000000"	"2"	"3"
n/a	"html-keyboard-response"	"190"	"400621"	"0.0-6.0-2.0-0.3"	"c0qqt7"	"600"	"1366"	"chrome"	"109.0.0"	"FALSE"	"Windows 10"	"60.63"	"151"	n/a	n/a	n/a	n/a	n/a	n/a	"fixation"	n/a	n/a	n/a	n/a	"NULL"	n/a	"NULL"	"NULL"	"NULL"	"<p style=\"color: black; font-size: 80px; padding-left: 15%; padding-right: 8%; padding-top: 35%; padding-bottom: 47%\">+</p>"	"1352"	n/a	n/a	n/a	n/a	n/a	n/a	n/a	n/a	n/a
n/a	"image-keyboard-response"	"191"	"401322"	"0.0-6.0-2.0-1.3"	"c0qqt7"	"600"	"1366"	"chrome"	"109.0.0"	"FALSE"	"Windows 10"	"60.63"	"151"	n/a	n/a	n/a	n/a	n/a	n/a	"Trial"	n/a	n/a	n/a	"699"	"arrowright"	n/a	"NULL"	"NULL"	"NULL"	"stimuli/Ebbinghaus_-0.87143_-0.15857.png"	n/a	"Ebbinghaus"	"arrowright"	"1370"	"TRUE"	"Ebbinghaus"	"-0.871430000"	"-0.158570000"	"2"	"4"
n/a	"html-keyboard-response"	"192"	"402436"	"0.0-6.0-2.0-0.4"	"c0qqt7"	"600"	"1366"	"chrome"	"109.0.0"	"FALSE"	"Windows 10"	"60.63"	"151"	n/a	n/a	n/a	n/a	n/a	n/a	"fixation"	n/a	n/a	n/a	n/a	"NULL"	n/a	"NULL"	"NULL"	"NULL"	"<p style=\"color: black; font-size: 80px; padding-left: 41%; padding-right: 37%; padding-top: 47%; padding-bottom: 22%\">+</p>"	"1106"	n/a	n/a	n/a	n/a	n/a	n/a	n/a	n/a	n/a
n/a	"image-keyboard-response"	"193"	"403082"	"0.0-6.0-2.0-1.4"	"c0qqt7"	"600"	"1366"	"chrome"	"109.0.0"	"FALSE"	"Windows 10"	"60.63"	"151"	n/a	n/a	n/a	n/a	n/a	n/a	"Trial"	n/a	n/a	n/a	"645"	"arrowleft"	n/a	"NULL"	"NULL"	"NULL"	"stimuli/Ebbinghaus_-0.35714_0.15857.png"	n/a	"Ebbinghaus"	"arrowleft"	"1114"	"TRUE"	"Ebbinghaus"	"-0.357140000"	"0.1585700000"	"2"	"5"
n/a	"html-keyboard-response"	"194"	"404410"	"0.0-6.0-2.0-0.5"	"c0qqt7"	"600"	"1366"	"chrome"	"109.0.0"	"FALSE"	"Windows 10"	"60.63"	"151"	n/a	n/a	n/a	n/a	n/a	n/a	"fixation"	n/a	n/a	n/a	n/a	"NULL"	n/a	"NULL"	"NULL"	"NULL"	"<p style=\"color: black; font-size: 80px; padding-left: 39%; padding-right: 45%; padding-top: 21%; padding-bottom: 23%\">+</p>"	"1314"	n/a	n/a	n/a	n/a	n/a	n/a	n/a	n/a	n/a
n/a	"image-keyboard-response"	"195"	"404962"	"0.0-6.0-2.0-1.5"	"c0qqt7"	"600"	"1366"	"chrome"	"109.0.0"	"FALSE"	"Windows 10"	"60.63"	"151"	n/a	n/a	n/a	n/a	n/a	n/a	"Trial"	n/a	n/a	n/a	"551"	"arrowleft"	n/a	"NULL"	"NULL"	"NULL"	"stimuli/Ebbinghaus_0.87143_0.28000.png"	n/a	"Ebbinghaus"	"arrowleft"	"1328"	"TRUE"	"Ebbinghaus"	"0.8714300000"	"0.2800000000"	"2"	"6"
n/a	"html-keyboard-response"	"196"	"406074"	"0.0-6.0-2.0-0.6"	"c0qqt7"	"600"	"1366"	"chrome"	"109.0.0"	"FALSE"	"Windows 10"	"60.63"	"151"	n/a	n/a	n/a	n/a	n/a	n/a	"fixation"	n/a	n/a	n/a	n/a	"NULL"	n/a	"NULL"	"NULL"	"NULL"	"<p style=\"color: black; font-size: 80px; padding-left: 21%; padding-right: 29%; padding-top: 36%; padding-bottom: 14%\">+</p>"	"1108"	n/a	n/a	n/a	n/a	n/a	n/a	n/a	n/a	n/a
n/a	"image-keyboard-response"	"197"	"406753"	"0.0-6.0-2.0-1.6"	"c0qqt7"	"600"	"1366"	"chrome"	"109.0.0"	"FALSE"	"Windows 10"	"60.63"	"151"	n/a	n/a	n/a	n/a	n/a	n/a	"Trial"	n/a	n/a	n/a	"678"	"arrowright"	n/a	"NULL"	"NULL"	"NULL"	"stimuli/Ebbinghaus_-0.61429_-0.11071.png"	n/a	"Ebbinghaus"	"arrowright"	"1112"	"TRUE"	"Ebbinghaus"	"-0.614290000"	"-0.110710000"	"2"	"7"
n/a	"html-keyboard-response"	"198"	"407810"	"0.0-6.0-2.0-0.7"	"c0qqt7"	"600"	"1366"	"chrome"	"109.0.0"	"FALSE"	"Windows 10"	"60.63"	"151"	n/a	n/a	n/a	n/a	n/a	n/a	"fixation"	n/a	n/a	n/a	n/a	"NULL"	n/a	"NULL"	"NULL"	"NULL"	"<p style=\"color: black; font-size: 80px; padding-left: 34%; padding-right: 10%; padding-top: 14%; padding-bottom: 44%\">+</p>"	"1046"	n/a	n/a	n/a	n/a	n/a	n/a	n/a	n/a	n/a
n/a	"image-keyboard-response"	"199"	"408620"	"0.0-6.0-2.0-1.7"	"c0qqt7"	"600"	"1366"	"chrome"	"109.0.0"	"FALSE"	"Windows 10"	"60.63"	"151"	n/a	n/a	n/a	n/a	n/a	n/a	"Trial"	n/a	n/a	n/a	"810"	"arrowleft"	n/a	"NULL"	"NULL"	"NULL"	"stimuli/Ebbinghaus_0.10000_0.21500.png"	n/a	"Ebbinghaus"	"arrowleft"	"1057"	"TRUE"	"Ebbinghaus"	"0.1000000000"	"0.2150000000"	"2"	"8"
n/a	"html-keyboard-response"	"200"	"409778"	"0.0-6.0-2.0-0.8"	"c0qqt7"	"600"	"1366"	"chrome"	"109.0.0"	"FALSE"	"Windows 10"	"60.63"	"151"	n/a	n/a	n/a	n/a	n/a	n/a	"fixation"	n/a	n/a	n/a	n/a	"NULL"	n/a	"NULL"	"NULL"	"NULL"	"<p style=\"color: black; font-size: 80px; padding-left: 36%; padding-right: 12%; padding-top: 41%; padding-bottom: 41%\">+</p>"	"1148"	n/a	n/a	n/a	n/a	n/a	n/a	n/a	n/a	n/a
n/a	"image-keyboard-response"	"201"	"410765"	"0.0-6.0-2.0-1.8"	"c0qqt7"	"600"	"1366"	"chrome"	"109.0.0"	"FALSE"	"Windows 10"	"60.63"	"151"	n/a	n/a	n/a	n/a	n/a	n/a	"Trial"	n/a	n/a	n/a	"986"	"arrowleft"	n/a	"NULL"	"NULL"	"NULL"	"stimuli/Ebbinghaus_0.87143_0.15857.png"	n/a	"Ebbinghaus"	"arrowleft"	"1158"	"TRUE"	"Ebbinghaus"	"0.8714300000"	"0.1585700000"	"2"	"9"
n/a	"html-keyboard-response"	"202"	"411778"	"0.0-6.0-2.0-0.9"	"c0qqt7"	"600"	"1366"	"chrome"	"109.0.0"	"FALSE"	"Windows 10"	"60.63"	"151"	n/a	n/a	n/a	n/a	n/a	n/a	"fixation"	n/a	n/a	n/a	n/a	"NULL"	n/a	"NULL"	"NULL"	"NULL"	"<p style=\"color: black; font-size: 80px; padding-left: 43%; padding-right: 0%; padding-top: 23%; padding-bottom: 12%\">+</p>"	"1000"	n/a	n/a	n/a	n/a	n/a	n/a	n/a	n/a	n/a
n/a	"image-keyboard-response"	"203"	"412706"	"0.0-6.0-2.0-1.9"	"c0qqt7"	"600"	"1366"	"chrome"	"109.0.0"	"FALSE"	"Windows 10"	"60.63"	"151"	n/a	n/a	n/a	n/a	n/a	n/a	"Trial"	n/a	n/a	n/a	"926"	"arrowleft"	n/a	"NULL"	"NULL"	"NULL"	"stimuli/Ebbinghaus_-0.61429_0.28000.png"	n/a	"Ebbinghaus"	"arrowleft"	"1013"	"TRUE"	"Ebbinghaus"	"-0.614290000"	"0.2800000000"	"2"	"10"
n/a	"html-keyboard-response"	"204"	"413998"	"0.0-6.0-2.0-0.10"	"c0qqt7"	"600"	"1366"	"chrome"	"109.0.0"	"FALSE"	"Windows 10"	"60.63"	"151"	n/a	n/a	n/a	n/a	n/a	n/a	"fixation"	n/a	n/a	n/a	n/a	"NULL"	n/a	"NULL"	"NULL"	"NULL"	"<p style=\"color: black; font-size: 80px; padding-left: 17%; padding-right: 2%; padding-top: 12%; padding-bottom: 7%\">+</p>"	"1277"	n/a	n/a	n/a	n/a	n/a	n/a	n/a	n/a	n/a
n/a	"image-keyboard-response"	"205"	"414646"	"0.0-6.0-2.0-1.10"	"c0qqt7"	"600"	"1366"	"chrome"	"109.0.0"	"FALSE"	"Windows 10"	"60.63"	"151"	n/a	n/a	n/a	n/a	n/a	n/a	"Trial"	n/a	n/a	n/a	"646"	"arrowleft"	n/a	"NULL"	"NULL"	"NULL"	"stimuli/Ebbinghaus_0.35714_0.28000.png"	n/a	"Ebbinghaus"	"arrowleft"	"1292"	"TRUE"	"Ebbinghaus"	"0.3571400000"	"0.2800000000"	"2"	"11"
n/a	"html-keyboard-response"	"206"	"415813"	"0.0-6.0-2.0-0.11"	"c0qqt7"	"600"	"1366"	"chrome"	"109.0.0"	"FALSE"	"Windows 10"	"60.63"	"151"	n/a	n/a	n/a	n/a	n/a	n/a	"fixation"	n/a	n/a	n/a	n/a	"NULL"	n/a	"NULL"	"NULL"	"NULL"	"<p style=\"color: black; font-size: 80px; padding-left: 17%; padding-right: 3%; padding-top: 7%; padding-bottom: 8%\">+</p>"	"1162"	n/a	n/a	n/a	n/a	n/a	n/a	n/a	n/a	n/a
n/a	"image-keyboard-response"	"207"	"416390"	"0.0-6.0-2.0-1.11"	"c0qqt7"	"600"	"1366"	"chrome"	"109.0.0"	"FALSE"	"Windows 10"	"60.63"	"151"	n/a	n/a	n/a	n/a	n/a	n/a	"Trial"	n/a	n/a	n/a	"575"	"arrowright"	n/a	"NULL"	"NULL"	"NULL"	"stimuli/Ebbinghaus_0.87143_-0.11071.png"	n/a	"Ebbinghaus"	"arrowright"	"1167"	"TRUE"	"Ebbinghaus"	"0.8714300000"	"-0.110710000"	"2"	"12"
n/a	"html-keyboard-response"	"208"	"417905"	"0.0-6.0-2.0-0.12"	"c0qqt7"	"600"	"1366"	"chrome"	"109.0.0"	"FALSE"	"Windows 10"	"60.63"	"151"	n/a	n/a	n/a	n/a	n/a	n/a	"fixation"	n/a	n/a	n/a	n/a	"NULL"	n/a	"NULL"	"NULL"	"NULL"	"<p style=\"color: black; font-size: 80px; padding-left: 36%; padding-right: 29%; padding-top: 39%; padding-bottom: 41%\">+</p>"	"1496"	n/a	n/a	n/a	n/a	n/a	n/a	n/a	n/a	n/a
n/a	"image-keyboard-response"	"209"	"418548"	"0.0-6.0-2.0-1.12"	"c0qqt7"	"600"	"1366"	"chrome"	"109.0.0"	"FALSE"	"Windows 10"	"60.63"	"151"	n/a	n/a	n/a	n/a	n/a	n/a	"Trial"	n/a	n/a	n/a	"641"	"arrowleft"	n/a	"NULL"	"NULL"	"NULL"	"stimuli/Ebbinghaus_0.10000_0.11071.png"	n/a	"Ebbinghaus"	"arrowleft"	"1515"	"TRUE"	"Ebbinghaus"	"0.1000000000"	"0.1107100000"	"2"	"13"
n/a	"html-keyboard-response"	"210"	"419763"	"0.0-6.0-2.0-0.13"	"c0qqt7"	"600"	"1366"	"chrome"	"109.0.0"	"FALSE"	"Windows 10"	"60.63"	"151"	n/a	n/a	n/a	n/a	n/a	n/a	"fixation"	n/a	n/a	n/a	n/a	"NULL"	n/a	"NULL"	"NULL"	"NULL"	"<p style=\"color: black; font-size: 80px; padding-left: 12%; padding-right: 49%; padding-top: 12%; padding-bottom: 35%\">+</p>"	"1204"	n/a	n/a	n/a	n/a	n/a	n/a	n/a	n/a	n/a
n/a	"image-keyboard-response"	"211"	"420453"	"0.0-6.0-2.0-1.13"	"c0qqt7"	"600"	"1366"	"chrome"	"109.0.0"	"FALSE"	"Windows 10"	"60.63"	"151"	n/a	n/a	n/a	n/a	n/a	n/a	"Trial"	n/a	n/a	n/a	"688"	"arrowright"	n/a	"NULL"	"NULL"	"NULL"	"stimuli/Ebbinghaus_0.35714_-0.15857.png"	n/a	"Ebbinghaus"	"arrowright"	"1215"	"TRUE"	"Ebbinghaus"	"0.3571400000"	"-0.158570000"	"2"	"14"
n/a	"html-keyboard-response"	"212"	"421707"	"0.0-6.0-2.0-0.14"	"c0qqt7"	"600"	"1366"	"chrome"	"109.0.0"	"FALSE"	"Windows 10"	"60.63"	"151"	n/a	n/a	n/a	n/a	n/a	n/a	"fixation"	n/a	n/a	n/a	n/a	"NULL"	n/a	"NULL"	"NULL"	"NULL"	"<p style=\"color: black; font-size: 80px; padding-left: 44%; padding-right: 44%; padding-top: 6%; padding-bottom: 45%\">+</p>"	"1248"	n/a	n/a	n/a	n/a	n/a	n/a	n/a	n/a	n/a
n/a	"image-keyboard-response"	"213"	"422491"	"0.0-6.0-2.0-1.14"	"c0qqt7"	"600"	"1366"	"chrome"	"109.0.0"	"FALSE"	"Windows 10"	"60.63"	"151"	n/a	n/a	n/a	n/a	n/a	n/a	"Trial"	n/a	n/a	n/a	"783"	"arrowright"	n/a	"NULL"	"NULL"	"NULL"	"stimuli/Ebbinghaus_0.35714_-0.2150.png"	n/a	"Ebbinghaus"	"arrowright"	"1254"	"TRUE"	"Ebbinghaus"	"0.3571400000"	"-0.215000000"	"2"	"15"
n/a	"html-keyboard-response"	"214"	"423794"	"0.0-6.0-2.0-0.15"	"c0qqt7"	"600"	"1366"	"chrome"	"109.0.0"	"FALSE"	"Windows 10"	"60.63"	"151"	n/a	n/a	n/a	n/a	n/a	n/a	"fixation"	n/a	n/a	n/a	n/a	"NULL"	n/a	"NULL"	"NULL"	"NULL"	"<p style=\"color: black; font-size: 80px; padding-left: 7%; padding-right: 30%; padding-top: 34%; padding-bottom: 38%\">+</p>"	"1296"	n/a	n/a	n/a	n/a	n/a	n/a	n/a	n/a	n/a
n/a	"image-keyboard-response"	"215"	"424381"	"0.0-6.0-2.0-1.15"	"c0qqt7"	"600"	"1366"	"chrome"	"109.0.0"	"FALSE"	"Windows 10"	"60.63"	"151"	n/a	n/a	n/a	n/a	n/a	n/a	"Trial"	n/a	n/a	n/a	"581"	"arrowleft"	n/a	"NULL"	"NULL"	"NULL"	"stimuli/Ebbinghaus_-0.87143_0.28000.png"	n/a	"Ebbinghaus"	"arrowleft"	"1303"	"TRUE"	"Ebbinghaus"	"-0.871430000"	"0.2800000000"	"2"	"16"
n/a	"html-keyboard-response"	"216"	"425514"	"0.0-6.0-2.0-0.16"	"c0qqt7"	"600"	"1366"	"chrome"	"109.0.0"	"FALSE"	"Windows 10"	"60.63"	"151"	n/a	n/a	n/a	n/a	n/a	n/a	"fixation"	n/a	n/a	n/a	n/a	"NULL"	n/a	"NULL"	"NULL"	"NULL"	"<p style=\"color: black; font-size: 80px; padding-left: 7%; padding-right: 33%; padding-top: 14%; padding-bottom: 3%\">+</p>"	"1130"	n/a	n/a	n/a	n/a	n/a	n/a	n/a	n/a	n/a
n/a	"image-keyboard-response"	"217"	"426147"	"0.0-6.0-2.0-1.16"	"c0qqt7"	"600"	"1366"	"chrome"	"109.0.0"	"FALSE"	"Windows 10"	"60.63"	"151"	n/a	n/a	n/a	n/a	n/a	n/a	"Trial"	n/a	n/a	n/a	"631"	"arrowleft"	n/a	"NULL"	"NULL"	"NULL"	"stimuli/Ebbinghaus_-0.87143_0.21500.png"	n/a	"Ebbinghaus"	"arrowleft"	"1133"	"TRUE"	"Ebbinghaus"	"-0.871430000"	"0.2150000000"	"2"	"17"
n/a	"html-keyboard-response"	"218"	"427155"	"0.0-6.0-2.0-0.17"	"c0qqt7"	"600"	"1366"	"chrome"	"109.0.0"	"FALSE"	"Windows 10"	"60.63"	"151"	n/a	n/a	n/a	n/a	n/a	n/a	"fixation"	n/a	n/a	n/a	n/a	"NULL"	n/a	"NULL"	"NULL"	"NULL"	"<p style=\"color: black; font-size: 80px; padding-left: 45%; padding-right: 3%; padding-top: 9%; padding-bottom: 18%\">+</p>"	"1003"	n/a	n/a	n/a	n/a	n/a	n/a	n/a	n/a	n/a
n/a	"image-keyboard-response"	"219"	"428032"	"0.0-6.0-2.0-1.17"	"c0qqt7"	"600"	"1366"	"chrome"	"109.0.0"	"FALSE"	"Windows 10"	"60.63"	"151"	n/a	n/a	n/a	n/a	n/a	n/a	"Trial"	n/a	n/a	n/a	"875"	"arrowleft"	n/a	"NULL"	"NULL"	"NULL"	"stimuli/Ebbinghaus_0.35714_0.21500.png"	n/a	"Ebbinghaus"	"arrowleft"	"1008"	"TRUE"	"Ebbinghaus"	"0.3571400000"	"0.2150000000"	"2"	"18"
n/a	"html-keyboard-response"	"220"	"429076"	"0.0-6.0-2.0-0.18"	"c0qqt7"	"600"	"1366"	"chrome"	"109.0.0"	"FALSE"	"Windows 10"	"60.63"	"151"	n/a	n/a	n/a	n/a	n/a	n/a	"fixation"	n/a	n/a	n/a	n/a	"NULL"	n/a	"NULL"	"NULL"	"NULL"	"<p style=\"color: black; font-size: 80px; padding-left: 41%; padding-right: 13%; padding-top: 7%; padding-bottom: 45%\">+</p>"	"1033"	n/a	n/a	n/a	n/a	n/a	n/a	n/a	n/a	n/a
n/a	"image-keyboard-response"	"221"	"429679"	"0.0-6.0-2.0-1.18"	"c0qqt7"	"600"	"1366"	"chrome"	"109.0.0"	"FALSE"	"Windows 10"	"60.63"	"151"	n/a	n/a	n/a	n/a	n/a	n/a	"Trial"	n/a	n/a	n/a	"601"	"arrowleft"	n/a	"NULL"	"NULL"	"NULL"	"stimuli/Ebbinghaus_0.10000_0.28000.png"	n/a	"Ebbinghaus"	"arrowleft"	"1044"	"TRUE"	"Ebbinghaus"	"0.1000000000"	"0.2800000000"	"2"	"19"
n/a	"html-keyboard-response"	"222"	"431075"	"0.0-6.0-2.0-0.19"	"c0qqt7"	"600"	"1366"	"chrome"	"109.0.0"	"FALSE"	"Windows 10"	"60.63"	"151"	n/a	n/a	n/a	n/a	n/a	n/a	"fixation"	n/a	n/a	n/a	n/a	"NULL"	n/a	"NULL"	"NULL"	"NULL"	"<p style=\"color: black; font-size: 80px; padding-left: 8%; padding-right: 7%; padding-top: 36%; padding-bottom: 8%\">+</p>"	"1390"	n/a	n/a	n/a	n/a	n/a	n/a	n/a	n/a	n/a
n/a	"image-keyboard-response"	"223"	"431790"	"0.0-6.0-2.0-1.19"	"c0qqt7"	"600"	"1366"	"chrome"	"109.0.0"	"FALSE"	"Windows 10"	"60.63"	"151"	n/a	n/a	n/a	n/a	n/a	n/a	"Trial"	n/a	n/a	n/a	"714"	"arrowleft"	n/a	"NULL"	"NULL"	"NULL"	"stimuli/Ebbinghaus_-0.1000_0.21500.png"	n/a	"Ebbinghaus"	"arrowleft"	"1396"	"TRUE"	"Ebbinghaus"	"-0.100000000"	"0.2150000000"	"2"	"20"
n/a	"html-keyboard-response"	"224"	"432942"	"0.0-6.0-2.0-0.20"	"c0qqt7"	"600"	"1366"	"chrome"	"109.0.0"	"FALSE"	"Windows 10"	"60.63"	"151"	n/a	n/a	n/a	n/a	n/a	n/a	"fixation"	n/a	n/a	n/a	n/a	"NULL"	n/a	"NULL"	"NULL"	"NULL"	"<p style=\"color: black; font-size: 80px; padding-left: 25%; padding-right: 25%; padding-top: 24%; padding-bottom: 34%\">+</p>"	"1135"	n/a	n/a	n/a	n/a	n/a	n/a	n/a	n/a	n/a
n/a	"image-keyboard-response"	"225"	"433688"	"0.0-6.0-2.0-1.20"	"c0qqt7"	"600"	"1366"	"chrome"	"109.0.0"	"FALSE"	"Windows 10"	"60.63"	"151"	n/a	n/a	n/a	n/a	n/a	n/a	"Trial"	n/a	n/a	n/a	"744"	"arrowright"	n/a	"NULL"	"NULL"	"NULL"	"stimuli/Ebbinghaus_0.61429_0.11071.png"	n/a	"Ebbinghaus"	"arrowleft"	"1152"	"FALSE"	"Ebbinghaus"	"0.6142900000"	"0.1107100000"	"2"	"21"
n/a	"html-keyboard-response"	"226"	"435050"	"0.0-6.0-2.0-0.21"	"c0qqt7"	"600"	"1366"	"chrome"	"109.0.0"	"FALSE"	"Windows 10"	"60.63"	"151"	n/a	n/a	n/a	n/a	n/a	n/a	"fixation"	n/a	n/a	n/a	n/a	"NULL"	n/a	"NULL"	"NULL"	"NULL"	"<p style=\"color: black; font-size: 80px; padding-left: 35%; padding-right: 29%; padding-top: 48%; padding-bottom: 14%\">+</p>"	"1352"	n/a	n/a	n/a	n/a	n/a	n/a	n/a	n/a	n/a
n/a	"image-keyboard-response"	"227"	"435594"	"0.0-6.0-2.0-1.21"	"c0qqt7"	"600"	"1366"	"chrome"	"109.0.0"	"FALSE"	"Windows 10"	"60.63"	"151"	n/a	n/a	n/a	n/a	n/a	n/a	"Trial"	n/a	n/a	n/a	"543"	"arrowright"	n/a	"NULL"	"NULL"	"NULL"	"stimuli/Ebbinghaus_-0.35714_-0.11071.png"	n/a	"Ebbinghaus"	"arrowright"	"1362"	"TRUE"	"Ebbinghaus"	"-0.357140000"	"-0.110710000"	"2"	"22"
n/a	"html-keyboard-response"	"228"	"436919"	"0.0-6.0-2.0-0.22"	"c0qqt7"	"600"	"1366"	"chrome"	"109.0.0"	"FALSE"	"Windows 10"	"60.63"	"151"	n/a	n/a	n/a	n/a	n/a	n/a	"fixation"	n/a	n/a	n/a	n/a	"NULL"	n/a	"NULL"	"NULL"	"NULL"	"<p style=\"color: black; font-size: 80px; padding-left: 15%; padding-right: 48%; padding-top: 0%; padding-bottom: 33%\">+</p>"	"1310"	n/a	n/a	n/a	n/a	n/a	n/a	n/a	n/a	n/a
n/a	"image-keyboard-response"	"229"	"437412"	"0.0-6.0-2.0-1.22"	"c0qqt7"	"600"	"1366"	"chrome"	"109.0.0"	"FALSE"	"Windows 10"	"60.63"	"151"	n/a	n/a	n/a	n/a	n/a	n/a	"Trial"	n/a	n/a	n/a	"492"	"arrowright"	n/a	"NULL"	"NULL"	"NULL"	"stimuli/Ebbinghaus_-0.61429_-0.2800.png"	n/a	"Ebbinghaus"	"arrowright"	"1325"	"TRUE"	"Ebbinghaus"	"-0.614290000"	"-0.280000000"	"2"	"23"
n/a	"html-keyboard-response"	"230"	"438468"	"0.0-6.0-2.0-0.23"	"c0qqt7"	"600"	"1366"	"chrome"	"109.0.0"	"FALSE"	"Windows 10"	"60.63"	"151"	n/a	n/a	n/a	n/a	n/a	n/a	"fixation"	n/a	n/a	n/a	n/a	"NULL"	n/a	"NULL"	"NULL"	"NULL"	"<p style=\"color: black; font-size: 80px; padding-left: 49%; padding-right: 2%; padding-top: 24%; padding-bottom: 16%\">+</p>"	"1043"	n/a	n/a	n/a	n/a	n/a	n/a	n/a	n/a	n/a
n/a	"image-keyboard-response"	"231"	"439156"	"0.0-6.0-2.0-1.23"	"c0qqt7"	"600"	"1366"	"chrome"	"109.0.0"	"FALSE"	"Windows 10"	"60.63"	"151"	n/a	n/a	n/a	n/a	n/a	n/a	"Trial"	n/a	n/a	n/a	"686"	"arrowleft"	n/a	"NULL"	"NULL"	"NULL"	"stimuli/Ebbinghaus_-0.61429_0.15857.png"	n/a	"Ebbinghaus"	"arrowleft"	"1056"	"TRUE"	"Ebbinghaus"	"-0.614290000"	"0.1585700000"	"2"	"24"
n/a	"html-keyboard-response"	"232"	"440356"	"0.0-6.0-2.0-0.24"	"c0qqt7"	"600"	"1366"	"chrome"	"109.0.0"	"FALSE"	"Windows 10"	"60.63"	"151"	n/a	n/a	n/a	n/a	n/a	n/a	"fixation"	n/a	n/a	n/a	n/a	"NULL"	n/a	"NULL"	"NULL"	"NULL"	"<p style=\"color: black; font-size: 80px; padding-left: 36%; padding-right: 45%; padding-top: 15%; padding-bottom: 30%\">+</p>"	"1193"	n/a	n/a	n/a	n/a	n/a	n/a	n/a	n/a	n/a
n/a	"image-keyboard-response"	"233"	"440845"	"0.0-6.0-2.0-1.24"	"c0qqt7"	"600"	"1366"	"chrome"	"109.0.0"	"FALSE"	"Windows 10"	"60.63"	"151"	n/a	n/a	n/a	n/a	n/a	n/a	"Trial"	n/a	n/a	n/a	"488"	"arrowright"	n/a	"NULL"	"NULL"	"NULL"	"stimuli/Ebbinghaus_0.35714_0.11071.png"	n/a	"Ebbinghaus"	"arrowleft"	"1200"	"FALSE"	"Ebbinghaus"	"0.3571400000"	"0.1107100000"	"2"	"25"
n/a	"html-keyboard-response"	"234"	"442201"	"0.0-6.0-2.0-0.25"	"c0qqt7"	"600"	"1366"	"chrome"	"109.0.0"	"FALSE"	"Windows 10"	"60.63"	"151"	n/a	n/a	n/a	n/a	n/a	n/a	"fixation"	n/a	n/a	n/a	n/a	"NULL"	n/a	"NULL"	"NULL"	"NULL"	"<p style=\"color: black; font-size: 80px; padding-left: 28%; padding-right: 27%; padding-top: 39%; padding-bottom: 39%\">+</p>"	"1347"	n/a	n/a	n/a	n/a	n/a	n/a	n/a	n/a	n/a
n/a	"image-keyboard-response"	"235"	"442795"	"0.0-6.0-2.0-1.25"	"c0qqt7"	"600"	"1366"	"chrome"	"109.0.0"	"FALSE"	"Windows 10"	"60.63"	"151"	n/a	n/a	n/a	n/a	n/a	n/a	"Trial"	n/a	n/a	n/a	"593"	"arrowright"	n/a	"NULL"	"NULL"	"NULL"	"stimuli/Ebbinghaus_0.10000_-0.2800.png"	n/a	"Ebbinghaus"	"arrowright"	"1356"	"TRUE"	"Ebbinghaus"	"0.1000000000"	"-0.280000000"	"2"	"26"
n/a	"html-keyboard-response"	"236"	"444274"	"0.0-6.0-2.0-0.26"	"c0qqt7"	"600"	"1366"	"chrome"	"109.0.0"	"FALSE"	"Windows 10"	"60.63"	"151"	n/a	n/a	n/a	n/a	n/a	n/a	"fixation"	n/a	n/a	n/a	n/a	"NULL"	n/a	"NULL"	"NULL"	"NULL"	"<p style=\"color: black; font-size: 80px; padding-left: 20%; padding-right: 20%; padding-top: 49%; padding-bottom: 22%\">+</p>"	"1465"	n/a	n/a	n/a	n/a	n/a	n/a	n/a	n/a	n/a
n/a	"image-keyboard-response"	"237"	"445032"	"0.0-6.0-2.0-1.26"	"c0qqt7"	"600"	"1366"	"chrome"	"109.0.0"	"FALSE"	"Windows 10"	"60.63"	"151"	n/a	n/a	n/a	n/a	n/a	n/a	"Trial"	n/a	n/a	n/a	"756"	"arrowright"	n/a	"NULL"	"NULL"	"NULL"	"stimuli/Ebbinghaus_0.10000_-0.15857.png"	n/a	"Ebbinghaus"	"arrowright"	"1479"	"TRUE"	"Ebbinghaus"	"0.1000000000"	"-0.158570000"	"2"	"27"
n/a	"html-keyboard-response"	"238"	"446172"	"0.0-6.0-2.0-0.27"	"c0qqt7"	"600"	"1366"	"chrome"	"109.0.0"	"FALSE"	"Windows 10"	"60.63"	"151"	n/a	n/a	n/a	n/a	n/a	n/a	"fixation"	n/a	n/a	n/a	n/a	"NULL"	n/a	"NULL"	"NULL"	"NULL"	"<p style=\"color: black; font-size: 80px; padding-left: 20%; padding-right: 28%; padding-top: 36%; padding-bottom: 47%\">+</p>"	"1124"	n/a	n/a	n/a	n/a	n/a	n/a	n/a	n/a	n/a
n/a	"image-keyboard-response"	"239"	"446769"	"0.0-6.0-2.0-1.27"	"c0qqt7"	"600"	"1366"	"chrome"	"109.0.0"	"FALSE"	"Windows 10"	"60.63"	"151"	n/a	n/a	n/a	n/a	n/a	n/a	"Trial"	n/a	n/a	n/a	"595"	"arrowleft"	n/a	"NULL"	"NULL"	"NULL"	"stimuli/Ebbinghaus_-0.1000_0.28000.png"	n/a	"Ebbinghaus"	"arrowleft"	"1140"	"TRUE"	"Ebbinghaus"	"-0.100000000"	"0.2800000000"	"2"	"28"
n/a	"html-keyboard-response"	"240"	"447935"	"0.0-6.0-2.0-0.28"	"c0qqt7"	"600"	"1366"	"chrome"	"109.0.0"	"FALSE"	"Windows 10"	"60.63"	"151"	n/a	n/a	n/a	n/a	n/a	n/a	"fixation"	n/a	n/a	n/a	n/a	"NULL"	n/a	"NULL"	"NULL"	"NULL"	"<p style=\"color: black; font-size: 80px; padding-left: 32%; padding-right: 6%; padding-top: 20%; padding-bottom: 42%\">+</p>"	"1144"	n/a	n/a	n/a	n/a	n/a	n/a	n/a	n/a	n/a
n/a	"image-keyboard-response"	"241"	"448427"	"0.0-6.0-2.0-1.28"	"c0qqt7"	"600"	"1366"	"chrome"	"109.0.0"	"FALSE"	"Windows 10"	"60.63"	"151"	n/a	n/a	n/a	n/a	n/a	n/a	"Trial"	n/a	n/a	n/a	"491"	"arrowright"	n/a	"NULL"	"NULL"	"NULL"	"stimuli/Ebbinghaus_0.10000_-0.2150.png"	n/a	"Ebbinghaus"	"arrowright"	"1166"	"TRUE"	"Ebbinghaus"	"0.1000000000"	"-0.215000000"	"2"	"29"
n/a	"html-keyboard-response"	"242"	"449798"	"0.0-6.0-2.0-0.29"	"c0qqt7"	"600"	"1366"	"chrome"	"109.0.0"	"FALSE"	"Windows 10"	"60.63"	"151"	n/a	n/a	n/a	n/a	n/a	n/a	"fixation"	n/a	n/a	n/a	n/a	"NULL"	n/a	"NULL"	"NULL"	"NULL"	"<p style=\"color: black; font-size: 80px; padding-left: 34%; padding-right: 41%; padding-top: 40%; padding-bottom: 46%\">+</p>"	"1352"	n/a	n/a	n/a	n/a	n/a	n/a	n/a	n/a	n/a
n/a	"image-keyboard-response"	"243"	"450640"	"0.0-6.0-2.0-1.29"	"c0qqt7"	"600"	"1366"	"chrome"	"109.0.0"	"FALSE"	"Windows 10"	"60.63"	"151"	n/a	n/a	n/a	n/a	n/a	n/a	"Trial"	n/a	n/a	n/a	"841"	"arrowright"	n/a	"NULL"	"NULL"	"NULL"	"stimuli/Ebbinghaus_0.87143_-0.2800.png"	n/a	"Ebbinghaus"	"arrowright"	"1371"	"TRUE"	"Ebbinghaus"	"0.8714300000"	"-0.280000000"	"2"	"30"
n/a	"html-keyboard-response"	"244"	"451774"	"0.0-6.0-2.0-0.30"	"c0qqt7"	"600"	"1366"	"chrome"	"109.0.0"	"FALSE"	"Windows 10"	"60.63"	"151"	n/a	n/a	n/a	n/a	n/a	n/a	"fixation"	n/a	n/a	n/a	n/a	"NULL"	n/a	"NULL"	"NULL"	"NULL"	"<p style=\"color: black; font-size: 80px; padding-left: 27%; padding-right: 3%; padding-top: 12%; padding-bottom: 7%\">+</p>"	"1127"	n/a	n/a	n/a	n/a	n/a	n/a	n/a	n/a	n/a
n/a	"image-keyboard-response"	"245"	"452354"	"0.0-6.0-2.0-1.30"	"c0qqt7"	"600"	"1366"	"chrome"	"109.0.0"	"FALSE"	"Windows 10"	"60.63"	"151"	n/a	n/a	n/a	n/a	n/a	n/a	"Trial"	n/a	n/a	n/a	"578"	"arrowleft"	n/a	"NULL"	"NULL"	"NULL"	"stimuli/Ebbinghaus_-0.87143_0.11071.png"	n/a	"Ebbinghaus"	"arrowleft"	"1134"	"TRUE"	"Ebbinghaus"	"-0.871430000"	"0.1107100000"	"2"	"31"
n/a	"html-keyboard-response"	"246"	"453798"	"0.0-6.0-2.0-0.31"	"c0qqt7"	"600"	"1366"	"chrome"	"109.0.0"	"FALSE"	"Windows 10"	"60.63"	"151"	n/a	n/a	n/a	n/a	n/a	n/a	"fixation"	n/a	n/a	n/a	n/a	"NULL"	n/a	"NULL"	"NULL"	"NULL"	"<p style=\"color: black; font-size: 80px; padding-left: 5%; padding-right: 9%; padding-top: 42%; padding-bottom: 7%\">+</p>"	"1436"	n/a	n/a	n/a	n/a	n/a	n/a	n/a	n/a	n/a
n/a	"image-keyboard-response"	"247"	"454242"	"0.0-6.0-2.0-1.31"	"c0qqt7"	"600"	"1366"	"chrome"	"109.0.0"	"FALSE"	"Windows 10"	"60.63"	"151"	n/a	n/a	n/a	n/a	n/a	n/a	"Trial"	n/a	n/a	n/a	"438"	"arrowright"	n/a	"NULL"	"NULL"	"NULL"	"stimuli/Ebbinghaus_-0.61429_-0.2150.png"	n/a	"Ebbinghaus"	"arrowright"	"1444"	"TRUE"	"Ebbinghaus"	"-0.614290000"	"-0.215000000"	"2"	"32"
n/a	"html-keyboard-response"	"248"	"455252"	"0.0-6.0-2.0-0.32"	"c0qqt7"	"600"	"1366"	"chrome"	"109.0.0"	"FALSE"	"Windows 10"	"60.63"	"151"	n/a	n/a	n/a	n/a	n/a	n/a	"fixation"	n/a	n/a	n/a	n/a	"NULL"	n/a	"NULL"	"NULL"	"NULL"	"<p style=\"color: black; font-size: 80px; padding-left: 25%; padding-right: 13%; padding-top: 28%; padding-bottom: 19%\">+</p>"	"1007"	n/a	n/a	n/a	n/a	n/a	n/a	n/a	n/a	n/a
