"success"	"trial_type"	"trial_index"	"time_elapsed"	"internal_node_id"	"participant_id"	"screen_height"	"screen_width"	"browser"	"browser_version"	"mobile"	"os"	"vsync_rate"	"subject_id"	"width"	"height"	"webaudio"	"fullscreen"	"webcam"	"microphone"	"screen"	"version"	"date"	"time"	"rt"	"response"	"timeout"	"failed_images"	"failed_audio"	"failed_video"	"stimulus"	"trial_duration"	"block"	"correct_response"	"prestimulus_duration"	"correct"	"type"	"illusion_strength"	"illusion_difference"	"block_number"	"trial_number"
"TRUE"	"fullscreen"	"0"	"7574127"	"0.0-0.0"	"xbdh0a"	"563"	"1034"	"chrome"	"111.0.0"	"FALSE"	"Windows 10"	"60.93"	"048"	n/a	n/a	n/a	n/a	n/a	n/a	n/a	n/a	n/a	n/a	n/a	"NULL"	n/a	"NULL"	"NULL"	"NULL"	n/a	n/a	n/a	n/a	n/a	n/a	n/a	n/a	n/a	n/a	n/a
n/a	"browser-check"	"1"	"7575125"	"0.0-1.0"	"xbdh0a"	"563"	"1034"	"chrome"	"111.0.0"	"FALSE"	"Windows 10"	"60.93"	"048"	"1034"	"563"	"TRUE"	"TRUE"	"TRUE"	"TRUE"	"browser_info"	"1.0"	"17/03/2023"	"08:43:52"	n/a	"NULL"	n/a	"NULL"	"NULL"	"NULL"	n/a	n/a	n/a	n/a	n/a	n/a	n/a	n/a	n/a	n/a	n/a
n/a	"survey-text"	"2"	"7579717"	"0.0-2.0"	"xbdh0a"	"563"	"1034"	"chrome"	"111.0.0"	"FALSE"	"Windows 10"	"60.93"	"048"	n/a	n/a	n/a	n/a	n/a	n/a	"subject_id"	n/a	n/a	n/a	"4587"	"list(subject_id = \"048\")"	n/a	"NULL"	"NULL"	"NULL"	n/a	n/a	n/a	n/a	n/a	n/a	n/a	n/a	n/a	n/a	n/a
"TRUE"	"preload"	"3"	"7579731"	"0.0-3.0"	"xbdh0a"	"563"	"1034"	"chrome"	"111.0.0"	"FALSE"	"Windows 10"	"60.93"	"048"	n/a	n/a	n/a	n/a	n/a	n/a	n/a	n/a	n/a	n/a	n/a	"NULL"	"FALSE"	"list()"	"list()"	"list()"	n/a	n/a	n/a	n/a	n/a	n/a	n/a	n/a	n/a	n/a	n/a
n/a	"html-button-response"	"4"	"7667329"	"0.0-4.0-0.0"	"xbdh0a"	"563"	"1034"	"chrome"	"111.0.0"	"FALSE"	"Windows 10"	"60.93"	"048"	n/a	n/a	n/a	n/a	n/a	n/a	"illusion_instructions"	n/a	n/a	n/a	"87596"	"0"	n/a	"NULL"	"NULL"	"NULL"	"<p><b>Illusion Game</b></p><p>In this game of speed and reflex, you will need to make <b>visual judgments</b> (for instance, which circle is the biggest, or which line is the longest), as fast and as correctly as possible, while <b>resisting different visual illusions</b>.</p><p>We are going to start with some examples of all the illusions you will encounter in the game.</p>"	n/a	n/a	n/a	n/a	n/a	n/a	n/a	n/a	n/a	n/a
"TRUE"	"preload"	"5"	"7667354"	"0.0-4.0-1.0-0.0"	"xbdh0a"	"563"	"1034"	"chrome"	"111.0.0"	"FALSE"	"Windows 10"	"60.93"	"048"	n/a	n/a	n/a	n/a	n/a	n/a	n/a	n/a	n/a	n/a	n/a	"NULL"	"FALSE"	"list()"	"list()"	"list()"	n/a	n/a	n/a	n/a	n/a	n/a	n/a	n/a	n/a	n/a	n/a
n/a	"html-keyboard-response"	"6"	"7680956"	"0.0-4.0-1.0-1.0"	"xbdh0a"	"563"	"1034"	"chrome"	"111.0.0"	"FALSE"	"Windows 10"	"60.93"	"048"	n/a	n/a	n/a	n/a	n/a	n/a	n/a	n/a	n/a	n/a	"13601"	"enter"	n/a	"NULL"	"NULL"	"NULL"	"<p><b>Practice</b></p><p>In this part, two red circles will appear side by side on the screen.</p><p>Your task is to select which <b>red circle is bigger</b> in size as fast as you can, without making errors.</p><p>Don't get distracted by the surrounding black circles around the red circles!</p><p>Press <b>the LEFT or the RIGHT arrow</b> to indicate which is the bigger <b>red circle.</b></p><div style='float: center'><img src='materials/instructions/Ebbinghaus_Demo.png' height='300'></img><p><img src='utils/answer/answer_leftright_keyboard.PNG' height='150'></img></p><p class='small'>In this example, the correct answer is the <b>LEFT arrow</b>.</p></div><p>Are you ready? <b>Press ENTER to start</b></p>"	n/a	n/a	n/a	n/a	n/a	n/a	n/a	n/a	n/a	n/a
n/a	"html-keyboard-response"	"7"	"7682651"	"0.0-4.0-1.0-2.0-0.0"	"xbdh0a"	"563"	"1034"	"chrome"	"111.0.0"	"FALSE"	"Windows 10"	"60.93"	"048"	n/a	n/a	n/a	n/a	n/a	n/a	"fixation"	n/a	n/a	n/a	n/a	"NULL"	n/a	"NULL"	"NULL"	"NULL"	"<p style=\"color: black; font-size: 80px; padding-left: 48%; padding-right: 39%; padding-top: 16%; padding-bottom: 35%\">+</p>"	"1172"	n/a	n/a	n/a	n/a	n/a	n/a	n/a	n/a	n/a
n/a	"image-keyboard-response"	"8"	"7683142"	"0.0-4.0-1.0-2.0-1.0"	"xbdh0a"	"563"	"1034"	"chrome"	"111.0.0"	"FALSE"	"Windows 10"	"60.93"	"048"	n/a	n/a	n/a	n/a	n/a	n/a	"Trial"	n/a	n/a	n/a	"490"	"arrowleft"	n/a	"NULL"	"NULL"	"NULL"	"stimuli/Ebbinghaus_0000000_-1.4000.png"	n/a	"Ebbinghaus"	"arrowright"	"1695"	"FALSE"	"Ebbinghaus"	"000000000000"	"-1.400000000"	"1"	"1"
n/a	"html-keyboard-response"	"9"	"7684274"	"0.0-4.0-1.0-2.0-0.1"	"xbdh0a"	"563"	"1034"	"chrome"	"111.0.0"	"FALSE"	"Windows 10"	"60.93"	"048"	n/a	n/a	n/a	n/a	n/a	n/a	"fixation"	n/a	n/a	n/a	n/a	"NULL"	n/a	"NULL"	"NULL"	"NULL"	"<p style=\"color: black; font-size: 80px; padding-left: 14%; padding-right: 34%; padding-top: 44%; padding-bottom: 2%\">+</p>"	"1125"	n/a	n/a	n/a	n/a	n/a	n/a	n/a	n/a	n/a
n/a	"image-keyboard-response"	"10"	"7684714"	"0.0-4.0-1.0-2.0-1.1"	"xbdh0a"	"563"	"1034"	"chrome"	"111.0.0"	"FALSE"	"Windows 10"	"60.93"	"048"	n/a	n/a	n/a	n/a	n/a	n/a	"Trial"	n/a	n/a	n/a	"437"	"arrowleft"	n/a	"NULL"	"NULL"	"NULL"	"stimuli/Ebbinghaus_1000000_1.40000.png"	n/a	"Ebbinghaus"	"arrowleft"	"1132"	"TRUE"	"Ebbinghaus"	"100000000000"	"1.4000000000"	"1"	"2"
n/a	"html-keyboard-response"	"11"	"7685787"	"0.0-4.0-1.0-2.0-0.2"	"xbdh0a"	"563"	"1034"	"chrome"	"111.0.0"	"FALSE"	"Windows 10"	"60.93"	"048"	n/a	n/a	n/a	n/a	n/a	n/a	"fixation"	n/a	n/a	n/a	n/a	"NULL"	n/a	"NULL"	"NULL"	"NULL"	"<p style=\"color: black; font-size: 80px; padding-left: 12%; padding-right: 20%; padding-top: 28%; padding-bottom: 45%\">+</p>"	"1062"	n/a	n/a	n/a	n/a	n/a	n/a	n/a	n/a	n/a
n/a	"image-keyboard-response"	"12"	"7686228"	"0.0-4.0-1.0-2.0-1.2"	"xbdh0a"	"563"	"1034"	"chrome"	"111.0.0"	"FALSE"	"Windows 10"	"60.93"	"048"	n/a	n/a	n/a	n/a	n/a	n/a	"Trial"	n/a	n/a	n/a	"440"	"arrowleft"	n/a	"NULL"	"NULL"	"NULL"	"stimuli/Ebbinghaus_0000000_1.40000.png"	n/a	"Ebbinghaus"	"arrowleft"	"1073"	"TRUE"	"Ebbinghaus"	"000000000000"	"1.4000000000"	"1"	"3"
n/a	"html-keyboard-response"	"13"	"7687463"	"0.0-4.0-1.0-2.0-0.3"	"xbdh0a"	"563"	"1034"	"chrome"	"111.0.0"	"FALSE"	"Windows 10"	"60.93"	"048"	n/a	n/a	n/a	n/a	n/a	n/a	"fixation"	n/a	n/a	n/a	n/a	"NULL"	n/a	"NULL"	"NULL"	"NULL"	"<p style=\"color: black; font-size: 80px; padding-left: 20%; padding-right: 45%; padding-top: 22%; padding-bottom: 11%\">+</p>"	"1230"	n/a	n/a	n/a	n/a	n/a	n/a	n/a	n/a	n/a
n/a	"image-keyboard-response"	"14"	"7687960"	"0.0-4.0-1.0-2.0-1.3"	"xbdh0a"	"563"	"1034"	"chrome"	"111.0.0"	"FALSE"	"Windows 10"	"60.93"	"048"	n/a	n/a	n/a	n/a	n/a	n/a	"Trial"	n/a	n/a	n/a	"496"	"arrowleft"	n/a	"NULL"	"NULL"	"NULL"	"stimuli/Ebbinghaus_-100000_1.40000.png"	n/a	"Ebbinghaus"	"arrowleft"	"1235"	"TRUE"	"Ebbinghaus"	"-10000000000"	"1.4000000000"	"1"	"4"
n/a	"html-keyboard-response"	"15"	"7689371"	"0.0-4.0-1.0-2.0-0.4"	"xbdh0a"	"563"	"1034"	"chrome"	"111.0.0"	"FALSE"	"Windows 10"	"60.93"	"048"	n/a	n/a	n/a	n/a	n/a	n/a	"fixation"	n/a	n/a	n/a	n/a	"NULL"	n/a	"NULL"	"NULL"	"NULL"	"<p style=\"color: black; font-size: 80px; padding-left: 35%; padding-right: 16%; padding-top: 48%; padding-bottom: 26%\">+</p>"	"1402"	n/a	n/a	n/a	n/a	n/a	n/a	n/a	n/a	n/a
n/a	"image-keyboard-response"	"16"	"7689709"	"0.0-4.0-1.0-2.0-1.4"	"xbdh0a"	"563"	"1034"	"chrome"	"111.0.0"	"FALSE"	"Windows 10"	"60.93"	"048"	n/a	n/a	n/a	n/a	n/a	n/a	"Trial"	n/a	n/a	n/a	"337"	"arrowright"	n/a	"NULL"	"NULL"	"NULL"	"stimuli/Ebbinghaus_1000000_-1.4000.png"	n/a	"Ebbinghaus"	"arrowright"	"1411"	"TRUE"	"Ebbinghaus"	"100000000000"	"-1.400000000"	"1"	"5"
n/a	"html-keyboard-response"	"17"	"7690739"	"0.0-4.0-1.0-2.0-0.5"	"xbdh0a"	"563"	"1034"	"chrome"	"111.0.0"	"FALSE"	"Windows 10"	"60.93"	"048"	n/a	n/a	n/a	n/a	n/a	n/a	"fixation"	n/a	n/a	n/a	n/a	"NULL"	n/a	"NULL"	"NULL"	"NULL"	"<p style=\"color: black; font-size: 80px; padding-left: 32%; padding-right: 30%; padding-top: 46%; padding-bottom: 23%\">+</p>"	"1025"	n/a	n/a	n/a	n/a	n/a	n/a	n/a	n/a	n/a
n/a	"image-keyboard-response"	"18"	"7691062"	"0.0-4.0-1.0-2.0-1.5"	"xbdh0a"	"563"	"1034"	"chrome"	"111.0.0"	"FALSE"	"Windows 10"	"60.93"	"048"	n/a	n/a	n/a	n/a	n/a	n/a	"Trial"	n/a	n/a	n/a	"323"	"arrowright"	n/a	"NULL"	"NULL"	"NULL"	"stimuli/Ebbinghaus_-100000_-1.4000.png"	n/a	"Ebbinghaus"	"arrowright"	"1030"	"TRUE"	"Ebbinghaus"	"-10000000000"	"-1.400000000"	"1"	"6"
n/a	"html-button-response"	"19"	"7697983"	"0.0-4.0-1.0-3.0"	"xbdh0a"	"563"	"1034"	"chrome"	"111.0.0"	"FALSE"	"Windows 10"	"60.93"	"048"	n/a	n/a	n/a	n/a	n/a	n/a	"practice_block_results"	n/a	n/a	n/a	"6919"	"0"	n/a	"NULL"	"NULL"	"NULL"	"<p style='color:rgb(76,175,80);'> Correct Responses: <b>83.33%</b></p><hr><p style='color:rgb(233,30,99);'> Average Response Time: <b>420.50</b> ms.</p>"	n/a	n/a	n/a	n/a	n/a	n/a	n/a	n/a	n/a	n/a
"TRUE"	"preload"	"20"	"7698506"	"0.0-4.0-2.0-0.0"	"xbdh0a"	"563"	"1034"	"chrome"	"111.0.0"	"FALSE"	"Windows 10"	"60.93"	"048"	n/a	n/a	n/a	n/a	n/a	n/a	n/a	n/a	n/a	n/a	n/a	"NULL"	"FALSE"	"list()"	"list()"	"list()"	n/a	n/a	n/a	n/a	n/a	n/a	n/a	n/a	n/a	n/a	n/a
n/a	"html-keyboard-response"	"21"	"7704988"	"0.0-4.0-2.0-1.0"	"xbdh0a"	"563"	"1034"	"chrome"	"111.0.0"	"FALSE"	"Windows 10"	"60.93"	"048"	n/a	n/a	n/a	n/a	n/a	n/a	n/a	n/a	n/a	n/a	"6481"	"enter"	n/a	"NULL"	"NULL"	"NULL"	"<p><b>Practice</b></p><p>In this part, two horizontal red lines will appear one above the other.</p><p>Your task is to select which <b>line is longer</b> in length as fast as you can, without making errors.</p><p>Don't get distracted by the surrounding black arrows at the end of the red lines!</p><p>Press <b>the UP or the DOWN arrow</b> to indicate where is the longer <b>red line.</b></p><div style='float: center'><img src='materials/instructions/MullerLyer_Demo.png' height='300'></img><p><img src='utils/answer/answer_updown_keyboard.PNG' height='150'></img></p><p class='small'>In this example, the correct answer is the <b>UP arrow</b>.</p></div><p>Are you ready? <b>Press ENTER to start</b></p>"	n/a	n/a	n/a	n/a	n/a	n/a	n/a	n/a	n/a	n/a
n/a	"html-keyboard-response"	"22"	"7706825"	"0.0-4.0-2.0-2.0-0.0"	"xbdh0a"	"563"	"1034"	"chrome"	"111.0.0"	"FALSE"	"Windows 10"	"60.93"	"048"	n/a	n/a	n/a	n/a	n/a	n/a	"fixation"	n/a	n/a	n/a	n/a	"NULL"	n/a	"NULL"	"NULL"	"NULL"	"<p style=\"color: black; font-size: 80px; padding-left: 27%; padding-right: 16%; padding-top: 14%; padding-bottom: 49%\">+</p>"	"1322"	n/a	n/a	n/a	n/a	n/a	n/a	n/a	n/a	n/a
n/a	"image-keyboard-response"	"23"	"7707326"	"0.0-4.0-2.0-2.0-1.0"	"xbdh0a"	"563"	"1034"	"chrome"	"111.0.0"	"FALSE"	"Windows 10"	"60.93"	"048"	n/a	n/a	n/a	n/a	n/a	n/a	"Trial"	n/a	n/a	n/a	"500"	"arrowup"	n/a	"NULL"	"NULL"	"NULL"	"stimuli/MullerLyer_2300000_0.70000.png"	n/a	"MullerLyer"	"arrowup"	"1837"	"TRUE"	"MullerLyer"	"230000000000"	"0.7000000000"	"1"	"7"
n/a	"html-keyboard-response"	"24"	"7708761"	"0.0-4.0-2.0-2.0-0.1"	"xbdh0a"	"563"	"1034"	"chrome"	"111.0.0"	"FALSE"	"Windows 10"	"60.93"	"048"	n/a	n/a	n/a	n/a	n/a	n/a	"fixation"	n/a	n/a	n/a	n/a	"NULL"	n/a	"NULL"	"NULL"	"NULL"	"<p style=\"color: black; font-size: 80px; padding-left: 33%; padding-right: 45%; padding-top: 26%; padding-bottom: 35%\">+</p>"	"1425"	n/a	n/a	n/a	n/a	n/a	n/a	n/a	n/a	n/a
n/a	"image-keyboard-response"	"25"	"7709180"	"0.0-4.0-2.0-2.0-1.1"	"xbdh0a"	"563"	"1034"	"chrome"	"111.0.0"	"FALSE"	"Windows 10"	"60.93"	"048"	n/a	n/a	n/a	n/a	n/a	n/a	"Trial"	n/a	n/a	n/a	"419"	"arrowup"	n/a	"NULL"	"NULL"	"NULL"	"stimuli/MullerLyer_0000000_0.70000.png"	n/a	"MullerLyer"	"arrowup"	"1435"	"TRUE"	"MullerLyer"	"000000000000"	"0.7000000000"	"1"	"8"
n/a	"html-keyboard-response"	"26"	"7710407"	"0.0-4.0-2.0-2.0-0.2"	"xbdh0a"	"563"	"1034"	"chrome"	"111.0.0"	"FALSE"	"Windows 10"	"60.93"	"048"	n/a	n/a	n/a	n/a	n/a	n/a	"fixation"	n/a	n/a	n/a	n/a	"NULL"	n/a	"NULL"	"NULL"	"NULL"	"<p style=\"color: black; font-size: 80px; padding-left: 21%; padding-right: 48%; padding-top: 16%; padding-bottom: 41%\">+</p>"	"1213"	n/a	n/a	n/a	n/a	n/a	n/a	n/a	n/a	n/a
n/a	"image-keyboard-response"	"27"	"7710950"	"0.0-4.0-2.0-2.0-1.2"	"xbdh0a"	"563"	"1034"	"chrome"	"111.0.0"	"FALSE"	"Windows 10"	"60.93"	"048"	n/a	n/a	n/a	n/a	n/a	n/a	"Trial"	n/a	n/a	n/a	"542"	"arrowdown"	n/a	"NULL"	"NULL"	"NULL"	"stimuli/MullerLyer_0000000_-0.7000.png"	n/a	"MullerLyer"	"arrowdown"	"1227"	"TRUE"	"MullerLyer"	"000000000000"	"-0.700000000"	"1"	"9"
n/a	"html-keyboard-response"	"28"	"7712044"	"0.0-4.0-2.0-2.0-0.3"	"xbdh0a"	"563"	"1034"	"chrome"	"111.0.0"	"FALSE"	"Windows 10"	"60.93"	"048"	n/a	n/a	n/a	n/a	n/a	n/a	"fixation"	n/a	n/a	n/a	n/a	"NULL"	n/a	"NULL"	"NULL"	"NULL"	"<p style=\"color: black; font-size: 80px; padding-left: 16%; padding-right: 30%; padding-top: 18%; padding-bottom: 12%\">+</p>"	"1078"	n/a	n/a	n/a	n/a	n/a	n/a	n/a	n/a	n/a
n/a	"image-keyboard-response"	"29"	"7712437"	"0.0-4.0-2.0-2.0-1.3"	"xbdh0a"	"563"	"1034"	"chrome"	"111.0.0"	"FALSE"	"Windows 10"	"60.93"	"048"	n/a	n/a	n/a	n/a	n/a	n/a	"Trial"	n/a	n/a	n/a	"393"	"arrowup"	n/a	"NULL"	"NULL"	"NULL"	"stimuli/MullerLyer_-230000_0.70000.png"	n/a	"MullerLyer"	"arrowup"	"1094"	"TRUE"	"MullerLyer"	"-23000000000"	"0.7000000000"	"1"	"10"
n/a	"html-keyboard-response"	"30"	"7713663"	"0.0-4.0-2.0-2.0-0.4"	"xbdh0a"	"563"	"1034"	"chrome"	"111.0.0"	"FALSE"	"Windows 10"	"60.93"	"048"	n/a	n/a	n/a	n/a	n/a	n/a	"fixation"	n/a	n/a	n/a	n/a	"NULL"	n/a	"NULL"	"NULL"	"NULL"	"<p style=\"color: black; font-size: 80px; padding-left: 33%; padding-right: 33%; padding-top: 3%; padding-bottom: 48%\">+</p>"	"1211"	n/a	n/a	n/a	n/a	n/a	n/a	n/a	n/a	n/a
n/a	"image-keyboard-response"	"31"	"7714047"	"0.0-4.0-2.0-2.0-1.4"	"xbdh0a"	"563"	"1034"	"chrome"	"111.0.0"	"FALSE"	"Windows 10"	"60.93"	"048"	n/a	n/a	n/a	n/a	n/a	n/a	"Trial"	n/a	n/a	n/a	"383"	"arrowdown"	n/a	"NULL"	"NULL"	"NULL"	"stimuli/MullerLyer_-230000_-0.7000.png"	n/a	"MullerLyer"	"arrowdown"	"1226"	"TRUE"	"MullerLyer"	"-23000000000"	"-0.700000000"	"1"	"11"
n/a	"html-keyboard-response"	"32"	"7715168"	"0.0-4.0-2.0-2.0-0.5"	"xbdh0a"	"563"	"1034"	"chrome"	"111.0.0"	"FALSE"	"Windows 10"	"60.93"	"048"	n/a	n/a	n/a	n/a	n/a	n/a	"fixation"	n/a	n/a	n/a	n/a	"NULL"	n/a	"NULL"	"NULL"	"NULL"	"<p style=\"color: black; font-size: 80px; padding-left: 33%; padding-right: 17%; padding-top: 5%; padding-bottom: 45%\">+</p>"	"1114"	n/a	n/a	n/a	n/a	n/a	n/a	n/a	n/a	n/a
n/a	"image-keyboard-response"	"33"	"7715588"	"0.0-4.0-2.0-2.0-1.5"	"xbdh0a"	"563"	"1034"	"chrome"	"111.0.0"	"FALSE"	"Windows 10"	"60.93"	"048"	n/a	n/a	n/a	n/a	n/a	n/a	"Trial"	n/a	n/a	n/a	"420"	"arrowdown"	n/a	"NULL"	"NULL"	"NULL"	"stimuli/MullerLyer_2300000_-0.7000.png"	n/a	"MullerLyer"	"arrowdown"	"1121"	"TRUE"	"MullerLyer"	"230000000000"	"-0.700000000"	"1"	"12"
n/a	"html-button-response"	"34"	"7719502"	"0.0-4.0-2.0-3.0"	"xbdh0a"	"563"	"1034"	"chrome"	"111.0.0"	"FALSE"	"Windows 10"	"60.93"	"048"	n/a	n/a	n/a	n/a	n/a	n/a	"practice_block_results"	n/a	n/a	n/a	"3913"	"0"	n/a	"NULL"	"NULL"	"NULL"	"<p style='color:rgb(76,175,80);'> Correct Responses: <b>100.00%</b></p><hr><p style='color:rgb(233,30,99);'> Average Response Time: <b>442.83</b> ms.</p>"	n/a	n/a	n/a	n/a	n/a	n/a	n/a	n/a	n/a	n/a
"TRUE"	"preload"	"35"	"7720296"	"0.0-4.0-3.0-0.0"	"xbdh0a"	"563"	"1034"	"chrome"	"111.0.0"	"FALSE"	"Windows 10"	"60.93"	"048"	n/a	n/a	n/a	n/a	n/a	n/a	n/a	n/a	n/a	n/a	n/a	"NULL"	"FALSE"	"list()"	"list()"	"list()"	n/a	n/a	n/a	n/a	n/a	n/a	n/a	n/a	n/a	n/a	n/a
n/a	"html-keyboard-response"	"36"	"7727192"	"0.0-4.0-3.0-1.0"	"xbdh0a"	"563"	"1034"	"chrome"	"111.0.0"	"FALSE"	"Windows 10"	"60.93"	"048"	n/a	n/a	n/a	n/a	n/a	n/a	n/a	n/a	n/a	n/a	"6896"	"enter"	n/a	"NULL"	"NULL"	"NULL"	"<p><b>Practice</b></p><p>In this part, two red lines will appear side by side.</p><p>Your task is to tell <b>which line is longer</b> in length, regardless of their orientation, as fast as you can, and without making errors.</p><p>Don't get distracted by the orientation of the lines!</p><p>Press <b>the LEFT or the RIGHT arrow</b> to indicate which <b>line is the longer one.</b></p><div style='float: center'><img src='materials/instructions/VerticalHorizontal_Demo.png' height='300'></img><p><img src='utils/answer/answer_leftright_keyboard.PNG' height='150'></img></p><p class='small'>In this example, the correct answer is the <b>LEFT arrow</b>.</p></div><p>Are you ready? <b>Press ENTER to start</b></p>"	n/a	n/a	n/a	n/a	n/a	n/a	n/a	n/a	n/a	n/a
n/a	"html-keyboard-response"	"37"	"7728941"	"0.0-4.0-3.0-2.0-0.0"	"xbdh0a"	"563"	"1034"	"chrome"	"111.0.0"	"FALSE"	"Windows 10"	"60.93"	"048"	n/a	n/a	n/a	n/a	n/a	n/a	"fixation"	n/a	n/a	n/a	n/a	"NULL"	n/a	"NULL"	"NULL"	"NULL"	"<p style=\"color: black; font-size: 80px; padding-left: 24%; padding-right: 7%; padding-top: 22%; padding-bottom: 29%\">+</p>"	"1235"	n/a	n/a	n/a	n/a	n/a	n/a	n/a	n/a	n/a
n/a	"image-keyboard-response"	"38"	"7729323"	"0.0-4.0-3.0-2.0-1.0"	"xbdh0a"	"563"	"1034"	"chrome"	"111.0.0"	"FALSE"	"Windows 10"	"60.93"	"048"	n/a	n/a	n/a	n/a	n/a	n/a	"Trial"	n/a	n/a	n/a	"380"	"arrowleft"	n/a	"NULL"	"NULL"	"NULL"	"stimuli/VerticalHorizontal_-330000_0.90000.png"	n/a	"VerticalHorizontal"	"arrowleft"	"1749"	"TRUE"	"VerticalHorizontal"	"-33000000000"	"0.9000000000"	"1"	"13"
n/a	"html-keyboard-response"	"39"	"7730476"	"0.0-4.0-3.0-2.0-0.1"	"xbdh0a"	"563"	"1034"	"chrome"	"111.0.0"	"FALSE"	"Windows 10"	"60.93"	"048"	n/a	n/a	n/a	n/a	n/a	n/a	"fixation"	n/a	n/a	n/a	n/a	"NULL"	n/a	"NULL"	"NULL"	"NULL"	"<p style=\"color: black; font-size: 80px; padding-left: 50%; padding-right: 27%; padding-top: 34%; padding-bottom: 6%\">+</p>"	"1149"	n/a	n/a	n/a	n/a	n/a	n/a	n/a	n/a	n/a
n/a	"image-keyboard-response"	"40"	"7730779"	"0.0-4.0-3.0-2.0-1.1"	"xbdh0a"	"563"	"1034"	"chrome"	"111.0.0"	"FALSE"	"Windows 10"	"60.93"	"048"	n/a	n/a	n/a	n/a	n/a	n/a	"Trial"	n/a	n/a	n/a	"303"	"arrowright"	n/a	"NULL"	"NULL"	"NULL"	"stimuli/VerticalHorizontal_-330000_-0.9000.png"	n/a	"VerticalHorizontal"	"arrowright"	"1153"	"TRUE"	"VerticalHorizontal"	"-33000000000"	"-0.900000000"	"1"	"14"
n/a	"html-keyboard-response"	"41"	"7731899"	"0.0-4.0-3.0-2.0-0.2"	"xbdh0a"	"563"	"1034"	"chrome"	"111.0.0"	"FALSE"	"Windows 10"	"60.93"	"048"	n/a	n/a	n/a	n/a	n/a	n/a	"fixation"	n/a	n/a	n/a	n/a	"NULL"	n/a	"NULL"	"NULL"	"NULL"	"<p style=\"color: black; font-size: 80px; padding-left: 12%; padding-right: 6%; padding-top: 30%; padding-bottom: 3%\">+</p>"	"1115"	n/a	n/a	n/a	n/a	n/a	n/a	n/a	n/a	n/a
n/a	"image-keyboard-response"	"42"	"7732266"	"0.0-4.0-3.0-2.0-1.2"	"xbdh0a"	"563"	"1034"	"chrome"	"111.0.0"	"FALSE"	"Windows 10"	"60.93"	"048"	n/a	n/a	n/a	n/a	n/a	n/a	"Trial"	n/a	n/a	n/a	"366"	"arrowright"	n/a	"NULL"	"NULL"	"NULL"	"stimuli/VerticalHorizontal_0000000_-0.9000.png"	n/a	"VerticalHorizontal"	"arrowright"	"1120"	"TRUE"	"VerticalHorizontal"	"000000000000"	"-0.900000000"	"1"	"15"
n/a	"html-keyboard-response"	"43"	"7733553"	"0.0-4.0-3.0-2.0-0.3"	"xbdh0a"	"563"	"1034"	"chrome"	"111.0.0"	"FALSE"	"Windows 10"	"60.93"	"048"	n/a	n/a	n/a	n/a	n/a	n/a	"fixation"	n/a	n/a	n/a	n/a	"NULL"	n/a	"NULL"	"NULL"	"NULL"	"<p style=\"color: black; font-size: 80px; padding-left: 47%; padding-right: 36%; padding-top: 17%; padding-bottom: 9%\">+</p>"	"1271"	n/a	n/a	n/a	n/a	n/a	n/a	n/a	n/a	n/a
n/a	"image-keyboard-response"	"44"	"7733930"	"0.0-4.0-3.0-2.0-1.3"	"xbdh0a"	"563"	"1034"	"chrome"	"111.0.0"	"FALSE"	"Windows 10"	"60.93"	"048"	n/a	n/a	n/a	n/a	n/a	n/a	"Trial"	n/a	n/a	n/a	"376"	"arrowright"	n/a	"NULL"	"NULL"	"NULL"	"stimuli/VerticalHorizontal_3300000_-0.9000.png"	n/a	"VerticalHorizontal"	"arrowright"	"1287"	"TRUE"	"VerticalHorizontal"	"330000000000"	"-0.900000000"	"1"	"16"
n/a	"html-keyboard-response"	"45"	"7735382"	"0.0-4.0-3.0-2.0-0.4"	"xbdh0a"	"563"	"1034"	"chrome"	"111.0.0"	"FALSE"	"Windows 10"	"60.93"	"048"	n/a	n/a	n/a	n/a	n/a	n/a	"fixation"	n/a	n/a	n/a	n/a	"NULL"	n/a	"NULL"	"NULL"	"NULL"	"<p style=\"color: black; font-size: 80px; padding-left: 24%; padding-right: 18%; padding-top: 3%; padding-bottom: 44%\">+</p>"	"1439"	n/a	n/a	n/a	n/a	n/a	n/a	n/a	n/a	n/a
n/a	"image-keyboard-response"	"46"	"7735749"	"0.0-4.0-3.0-2.0-1.4"	"xbdh0a"	"563"	"1034"	"chrome"	"111.0.0"	"FALSE"	"Windows 10"	"60.93"	"048"	n/a	n/a	n/a	n/a	n/a	n/a	"Trial"	n/a	n/a	n/a	"366"	"arrowleft"	n/a	"NULL"	"NULL"	"NULL"	"stimuli/VerticalHorizontal_3300000_0.90000.png"	n/a	"VerticalHorizontal"	"arrowleft"	"1452"	"TRUE"	"VerticalHorizontal"	"330000000000"	"0.9000000000"	"1"	"17"
n/a	"html-keyboard-response"	"47"	"7737218"	"0.0-4.0-3.0-2.0-0.5"	"xbdh0a"	"563"	"1034"	"chrome"	"111.0.0"	"FALSE"	"Windows 10"	"60.93"	"048"	n/a	n/a	n/a	n/a	n/a	n/a	"fixation"	n/a	n/a	n/a	n/a	"NULL"	n/a	"NULL"	"NULL"	"NULL"	"<p style=\"color: black; font-size: 80px; padding-left: 14%; padding-right: 27%; padding-top: 39%; padding-bottom: 18%\">+</p>"	"1458"	n/a	n/a	n/a	n/a	n/a	n/a	n/a	n/a	n/a
n/a	"image-keyboard-response"	"48"	"7737578"	"0.0-4.0-3.0-2.0-1.5"	"xbdh0a"	"563"	"1034"	"chrome"	"111.0.0"	"FALSE"	"Windows 10"	"60.93"	"048"	n/a	n/a	n/a	n/a	n/a	n/a	"Trial"	n/a	n/a	n/a	"359"	"arrowleft"	n/a	"NULL"	"NULL"	"NULL"	"stimuli/VerticalHorizontal_0000000_0.90000.png"	n/a	"VerticalHorizontal"	"arrowleft"	"1469"	"TRUE"	"VerticalHorizontal"	"000000000000"	"0.9000000000"	"1"	"18"
n/a	"html-button-response"	"49"	"7739502"	"0.0-4.0-3.0-3.0"	"xbdh0a"	"563"	"1034"	"chrome"	"111.0.0"	"FALSE"	"Windows 10"	"60.93"	"048"	n/a	n/a	n/a	n/a	n/a	n/a	"practice_block_results"	n/a	n/a	n/a	"1924"	"0"	n/a	"NULL"	"NULL"	"NULL"	"<p style='color:rgb(76,175,80);'> Correct Responses: <b>100.00%</b></p><hr><p style='color:rgb(233,30,99);'> Average Response Time: <b>358.33</b> ms.</p>"	n/a	n/a	n/a	n/a	n/a	n/a	n/a	n/a	n/a	n/a
n/a	"html-button-response"	"50"	"7820045"	"0.0-4.0-4.0"	"xbdh0a"	"563"	"1034"	"chrome"	"111.0.0"	"FALSE"	"Windows 10"	"60.93"	"048"	n/a	n/a	n/a	n/a	n/a	n/a	"practice_debrief"	n/a	n/a	n/a	"80041"	"0"	n/a	"NULL"	"NULL"	"NULL"	"<p><b>TRAINING COMPLETED</b></p><p>In the next phase, there will be more trials, and some might be harder too.<br> Moreover, after each illusion block, a <b>score</b> will be calculated based on speed (time you took to answer) and accuracy (number of errors).</p><p>Try to keep up a high score!</p><br><p>Note that it can be <i>really</i> challenging at times, so you will need to rely on your <b>intuition</b> and gut feeling to answer as fast as you can without making errors.</p><p>Each illusion block will be repeated two times (so that you have the opportunity to improve your score), but the order of the blocks is random.</p><p>Remember, your goal is to be as <b>fast</b> and <b>accurate</b> as possible. Good luck!</p><br>"	n/a	n/a	n/a	n/a	n/a	n/a	n/a	n/a	n/a	n/a
"TRUE"	"preload"	"51"	"7820337"	"0.0-5.0-0.0"	"xbdh0a"	"563"	"1034"	"chrome"	"111.0.0"	"FALSE"	"Windows 10"	"60.93"	"048"	n/a	n/a	n/a	n/a	n/a	n/a	n/a	n/a	n/a	n/a	n/a	"NULL"	"FALSE"	"list()"	"list()"	"list()"	n/a	n/a	n/a	n/a	n/a	n/a	n/a	n/a	n/a	n/a	n/a
n/a	"html-keyboard-response"	"52"	"7826312"	"0.0-5.0-1.0"	"xbdh0a"	"563"	"1034"	"chrome"	"111.0.0"	"FALSE"	"Windows 10"	"60.93"	"048"	n/a	n/a	n/a	n/a	n/a	n/a	n/a	n/a	n/a	n/a	"5975"	"enter"	n/a	"NULL"	"NULL"	"NULL"	"<p><b>Part 1/6</b></p><p>In this part, two red circles will appear side by side on the screen.</p><p>Your task is to select which <b>red circle is bigger</b> in size as fast as you can, without making errors.</p><p>Don't get distracted by the surrounding black circles around the red circles!</p><p>Press <b>the LEFT or the RIGHT arrow</b> to indicate which is the bigger <b>red circle.</b></p><div style='float: center'><img src='materials/instructions/Ebbinghaus_Demo.png' height='300'></img><p><img src='utils/answer/answer_leftright_keyboard.PNG' height='150'></img></p><p class='small'>In this example, the correct answer is the <b>LEFT arrow</b>.</p></div><p>Are you ready? <b>Press ENTER to start</b></p>"	n/a	n/a	n/a	n/a	n/a	n/a	n/a	n/a	n/a	n/a
n/a	"html-keyboard-response"	"53"	"7828157"	"0.0-5.0-2.0-0.0"	"xbdh0a"	"563"	"1034"	"chrome"	"111.0.0"	"FALSE"	"Windows 10"	"60.93"	"048"	n/a	n/a	n/a	n/a	n/a	n/a	"fixation"	n/a	n/a	n/a	n/a	"NULL"	n/a	"NULL"	"NULL"	"NULL"	"<p style=\"color: black; font-size: 80px; padding-left: 49%; padding-right: 43%; padding-top: 4%; padding-bottom: 5%\">+</p>"	"1329"	n/a	n/a	n/a	n/a	n/a	n/a	n/a	n/a	n/a
n/a	"image-keyboard-response"	"54"	"7828529"	"0.0-5.0-2.0-1.0"	"xbdh0a"	"563"	"1034"	"chrome"	"111.0.0"	"FALSE"	"Windows 10"	"60.93"	"048"	n/a	n/a	n/a	n/a	n/a	n/a	"Trial"	n/a	n/a	n/a	"371"	"arrowright"	n/a	"NULL"	"NULL"	"NULL"	"stimuli/Ebbinghaus_0.61429_-0.2150.png"	n/a	"Ebbinghaus"	"arrowright"	"1845"	"TRUE"	"Ebbinghaus"	"0.6142900000"	"-0.215000000"	"1"	"19"
n/a	"html-keyboard-response"	"55"	"7829651"	"0.0-5.0-2.0-0.1"	"xbdh0a"	"563"	"1034"	"chrome"	"111.0.0"	"FALSE"	"Windows 10"	"60.93"	"048"	n/a	n/a	n/a	n/a	n/a	n/a	"fixation"	n/a	n/a	n/a	n/a	"NULL"	n/a	"NULL"	"NULL"	"NULL"	"<p style=\"color: black; font-size: 80px; padding-left: 5%; padding-right: 26%; padding-top: 22%; padding-bottom: 25%\">+</p>"	"1115"	n/a	n/a	n/a	n/a	n/a	n/a	n/a	n/a	n/a
n/a	"image-keyboard-response"	"56"	"7830087"	"0.0-5.0-2.0-1.1"	"xbdh0a"	"563"	"1034"	"chrome"	"111.0.0"	"FALSE"	"Windows 10"	"60.93"	"048"	n/a	n/a	n/a	n/a	n/a	n/a	"Trial"	n/a	n/a	n/a	"436"	"arrowright"	n/a	"NULL"	"NULL"	"NULL"	"stimuli/Ebbinghaus_0.87143_-0.11071.png"	n/a	"Ebbinghaus"	"arrowright"	"1122"	"TRUE"	"Ebbinghaus"	"0.8714300000"	"-0.110710000"	"1"	"20"
n/a	"html-keyboard-response"	"57"	"7831354"	"0.0-5.0-2.0-0.2"	"xbdh0a"	"563"	"1034"	"chrome"	"111.0.0"	"FALSE"	"Windows 10"	"60.93"	"048"	n/a	n/a	n/a	n/a	n/a	n/a	"fixation"	n/a	n/a	n/a	n/a	"NULL"	n/a	"NULL"	"NULL"	"NULL"	"<p style=\"color: black; font-size: 80px; padding-left: 28%; padding-right: 20%; padding-top: 49%; padding-bottom: 17%\">+</p>"	"1255"	n/a	n/a	n/a	n/a	n/a	n/a	n/a	n/a	n/a
n/a	"image-keyboard-response"	"58"	"7832094"	"0.0-5.0-2.0-1.2"	"xbdh0a"	"563"	"1034"	"chrome"	"111.0.0"	"FALSE"	"Windows 10"	"60.93"	"048"	n/a	n/a	n/a	n/a	n/a	n/a	"Trial"	n/a	n/a	n/a	"739"	"arrowleft"	n/a	"NULL"	"NULL"	"NULL"	"stimuli/Ebbinghaus_0.35714_0.15857.png"	n/a	"Ebbinghaus"	"arrowleft"	"1267"	"TRUE"	"Ebbinghaus"	"0.3571400000"	"0.1585700000"	"1"	"21"
n/a	"html-keyboard-response"	"59"	"7833229"	"0.0-5.0-2.0-0.3"	"xbdh0a"	"563"	"1034"	"chrome"	"111.0.0"	"FALSE"	"Windows 10"	"60.93"	"048"	n/a	n/a	n/a	n/a	n/a	n/a	"fixation"	n/a	n/a	n/a	n/a	"NULL"	n/a	"NULL"	"NULL"	"NULL"	"<p style=\"color: black; font-size: 80px; padding-left: 29%; padding-right: 16%; padding-top: 44%; padding-bottom: 11%\">+</p>"	"1134"	n/a	n/a	n/a	n/a	n/a	n/a	n/a	n/a	n/a
n/a	"image-keyboard-response"	"60"	"7833712"	"0.0-5.0-2.0-1.3"	"xbdh0a"	"563"	"1034"	"chrome"	"111.0.0"	"FALSE"	"Windows 10"	"60.93"	"048"	n/a	n/a	n/a	n/a	n/a	n/a	"Trial"	n/a	n/a	n/a	"482"	"arrowright"	n/a	"NULL"	"NULL"	"NULL"	"stimuli/Ebbinghaus_0.10000_-0.2800.png"	n/a	"Ebbinghaus"	"arrowright"	"1135"	"TRUE"	"Ebbinghaus"	"0.1000000000"	"-0.280000000"	"1"	"22"
n/a	"html-keyboard-response"	"61"	"7835061"	"0.0-5.0-2.0-0.4"	"xbdh0a"	"563"	"1034"	"chrome"	"111.0.0"	"FALSE"	"Windows 10"	"60.93"	"048"	n/a	n/a	n/a	n/a	n/a	n/a	"fixation"	n/a	n/a	n/a	n/a	"NULL"	n/a	"NULL"	"NULL"	"NULL"	"<p style=\"color: black; font-size: 80px; padding-left: 10%; padding-right: 35%; padding-top: 45%; padding-bottom: 48%\">+</p>"	"1343"	n/a	n/a	n/a	n/a	n/a	n/a	n/a	n/a	n/a
n/a	"image-keyboard-response"	"62"	"7835634"	"0.0-5.0-2.0-1.4"	"xbdh0a"	"563"	"1034"	"chrome"	"111.0.0"	"FALSE"	"Windows 10"	"60.93"	"048"	n/a	n/a	n/a	n/a	n/a	n/a	"Trial"	n/a	n/a	n/a	"572"	"arrowleft"	n/a	"NULL"	"NULL"	"NULL"	"stimuli/Ebbinghaus_-0.61429_0.21500.png"	n/a	"Ebbinghaus"	"arrowleft"	"1349"	"TRUE"	"Ebbinghaus"	"-0.614290000"	"0.2150000000"	"1"	"23"
n/a	"html-keyboard-response"	"63"	"7836726"	"0.0-5.0-2.0-0.5"	"xbdh0a"	"563"	"1034"	"chrome"	"111.0.0"	"FALSE"	"Windows 10"	"60.93"	"048"	n/a	n/a	n/a	n/a	n/a	n/a	"fixation"	n/a	n/a	n/a	n/a	"NULL"	n/a	"NULL"	"NULL"	"NULL"	"<p style=\"color: black; font-size: 80px; padding-left: 6%; padding-right: 14%; padding-top: 4%; padding-bottom: 48%\">+</p>"	"1089"	n/a	n/a	n/a	n/a	n/a	n/a	n/a	n/a	n/a
n/a	"image-keyboard-response"	"64"	"7837329"	"0.0-5.0-2.0-1.5"	"xbdh0a"	"563"	"1034"	"chrome"	"111.0.0"	"FALSE"	"Windows 10"	"60.93"	"048"	n/a	n/a	n/a	n/a	n/a	n/a	"Trial"	n/a	n/a	n/a	"603"	"arrowright"	n/a	"NULL"	"NULL"	"NULL"	"stimuli/Ebbinghaus_0.10000_-0.2150.png"	n/a	"Ebbinghaus"	"arrowright"	"1092"	"TRUE"	"Ebbinghaus"	"0.1000000000"	"-0.215000000"	"1"	"24"
n/a	"html-keyboard-response"	"65"	"7838396"	"0.0-5.0-2.0-0.6"	"xbdh0a"	"563"	"1034"	"chrome"	"111.0.0"	"FALSE"	"Windows 10"	"60.93"	"048"	n/a	n/a	n/a	n/a	n/a	n/a	"fixation"	n/a	n/a	n/a	n/a	"NULL"	n/a	"NULL"	"NULL"	"NULL"	"<p style=\"color: black; font-size: 80px; padding-left: 39%; padding-right: 30%; padding-top: 12%; padding-bottom: 33%\">+</p>"	"1054"	n/a	n/a	n/a	n/a	n/a	n/a	n/a	n/a	n/a
n/a	"image-keyboard-response"	"66"	"7838971"	"0.0-5.0-2.0-1.6"	"xbdh0a"	"563"	"1034"	"chrome"	"111.0.0"	"FALSE"	"Windows 10"	"60.93"	"048"	n/a	n/a	n/a	n/a	n/a	n/a	"Trial"	n/a	n/a	n/a	"574"	"arrowright"	n/a	"NULL"	"NULL"	"NULL"	"stimuli/Ebbinghaus_0.35714_-0.15857.png"	n/a	"Ebbinghaus"	"arrowright"	"1067"	"TRUE"	"Ebbinghaus"	"0.3571400000"	"-0.158570000"	"1"	"25"
n/a	"html-keyboard-response"	"67"	"7839992"	"0.0-5.0-2.0-0.7"	"xbdh0a"	"563"	"1034"	"chrome"	"111.0.0"	"FALSE"	"Windows 10"	"60.93"	"048"	n/a	n/a	n/a	n/a	n/a	n/a	"fixation"	n/a	n/a	n/a	n/a	"NULL"	n/a	"NULL"	"NULL"	"NULL"	"<p style=\"color: black; font-size: 80px; padding-left: 34%; padding-right: 44%; padding-top: 27%; padding-bottom: 36%\">+</p>"	"1018"	n/a	n/a	n/a	n/a	n/a	n/a	n/a	n/a	n/a
n/a	"image-keyboard-response"	"68"	"7840523"	"0.0-5.0-2.0-1.7"	"xbdh0a"	"563"	"1034"	"chrome"	"111.0.0"	"FALSE"	"Windows 10"	"60.93"	"048"	n/a	n/a	n/a	n/a	n/a	n/a	"Trial"	n/a	n/a	n/a	"530"	"arrowleft"	n/a	"NULL"	"NULL"	"NULL"	"stimuli/Ebbinghaus_0.61429_0.15857.png"	n/a	"Ebbinghaus"	"arrowleft"	"1021"	"TRUE"	"Ebbinghaus"	"0.6142900000"	"0.1585700000"	"1"	"26"
n/a	"html-keyboard-response"	"69"	"7841864"	"0.0-5.0-2.0-0.8"	"xbdh0a"	"563"	"1034"	"chrome"	"111.0.0"	"FALSE"	"Windows 10"	"60.93"	"048"	n/a	n/a	n/a	n/a	n/a	n/a	"fixation"	n/a	n/a	n/a	n/a	"NULL"	n/a	"NULL"	"NULL"	"NULL"	"<p style=\"color: black; font-size: 80px; padding-left: 22%; padding-right: 46%; padding-top: 23%; padding-bottom: 6%\">+</p>"	"1329"	n/a	n/a	n/a	n/a	n/a	n/a	n/a	n/a	n/a
n/a	"image-keyboard-response"	"70"	"7842562"	"0.0-5.0-2.0-1.8"	"xbdh0a"	"563"	"1034"	"chrome"	"111.0.0"	"FALSE"	"Windows 10"	"60.93"	"048"	n/a	n/a	n/a	n/a	n/a	n/a	"Trial"	n/a	n/a	n/a	"697"	"arrowleft"	n/a	"NULL"	"NULL"	"NULL"	"stimuli/Ebbinghaus_-0.87143_0.28000.png"	n/a	"Ebbinghaus"	"arrowleft"	"1341"	"TRUE"	"Ebbinghaus"	"-0.871430000"	"0.2800000000"	"1"	"27"
n/a	"html-keyboard-response"	"71"	"7843706"	"0.0-5.0-2.0-0.9"	"xbdh0a"	"563"	"1034"	"chrome"	"111.0.0"	"FALSE"	"Windows 10"	"60.93"	"048"	n/a	n/a	n/a	n/a	n/a	n/a	"fixation"	n/a	n/a	n/a	n/a	"NULL"	n/a	"NULL"	"NULL"	"NULL"	"<p style=\"color: black; font-size: 80px; padding-left: 1%; padding-right: 48%; padding-top: 42%; padding-bottom: 41%\">+</p>"	"1132"	n/a	n/a	n/a	n/a	n/a	n/a	n/a	n/a	n/a
n/a	"image-keyboard-response"	"72"	"7844341"	"0.0-5.0-2.0-1.9"	"xbdh0a"	"563"	"1034"	"chrome"	"111.0.0"	"FALSE"	"Windows 10"	"60.93"	"048"	n/a	n/a	n/a	n/a	n/a	n/a	"Trial"	n/a	n/a	n/a	"635"	"arrowleft"	n/a	"NULL"	"NULL"	"NULL"	"stimuli/Ebbinghaus_0.10000_0.21500.png"	n/a	"Ebbinghaus"	"arrowleft"	"1144"	"TRUE"	"Ebbinghaus"	"0.1000000000"	"0.2150000000"	"1"	"28"
n/a	"html-keyboard-response"	"73"	"7845413"	"0.0-5.0-2.0-0.10"	"xbdh0a"	"563"	"1034"	"chrome"	"111.0.0"	"FALSE"	"Windows 10"	"60.93"	"048"	n/a	n/a	n/a	n/a	n/a	n/a	"fixation"	n/a	n/a	n/a	n/a	"NULL"	n/a	"NULL"	"NULL"	"NULL"	"<p style=\"color: black; font-size: 80px; padding-left: 10%; padding-right: 44%; padding-top: 47%; padding-bottom: 2%\">+</p>"	"1061"	n/a	n/a	n/a	n/a	n/a	n/a	n/a	n/a	n/a
n/a	"image-keyboard-response"	"74"	"7846368"	"0.0-5.0-2.0-1.10"	"xbdh0a"	"563"	"1034"	"chrome"	"111.0.0"	"FALSE"	"Windows 10"	"60.93"	"048"	n/a	n/a	n/a	n/a	n/a	n/a	"Trial"	n/a	n/a	n/a	"954"	"arrowright"	n/a	"NULL"	"NULL"	"NULL"	"stimuli/Ebbinghaus_-0.1000_-0.11071.png"	n/a	"Ebbinghaus"	"arrowright"	"1072"	"TRUE"	"Ebbinghaus"	"-0.100000000"	"-0.110710000"	"1"	"29"
n/a	"html-keyboard-response"	"75"	"7847506"	"0.0-5.0-2.0-0.11"	"xbdh0a"	"563"	"1034"	"chrome"	"111.0.0"	"FALSE"	"Windows 10"	"60.93"	"048"	n/a	n/a	n/a	n/a	n/a	n/a	"fixation"	n/a	n/a	n/a	n/a	"NULL"	n/a	"NULL"	"NULL"	"NULL"	"<p style=\"color: black; font-size: 80px; padding-left: 24%; padding-right: 44%; padding-top: 17%; padding-bottom: 43%\">+</p>"	"1132"	n/a	n/a	n/a	n/a	n/a	n/a	n/a	n/a	n/a
n/a	"image-keyboard-response"	"76"	"7848167"	"0.0-5.0-2.0-1.11"	"xbdh0a"	"563"	"1034"	"chrome"	"111.0.0"	"FALSE"	"Windows 10"	"60.93"	"048"	n/a	n/a	n/a	n/a	n/a	n/a	"Trial"	n/a	n/a	n/a	"661"	"arrowright"	n/a	"NULL"	"NULL"	"NULL"	"stimuli/Ebbinghaus_-0.1000_-0.2800.png"	n/a	"Ebbinghaus"	"arrowright"	"1138"	"TRUE"	"Ebbinghaus"	"-0.100000000"	"-0.280000000"	"1"	"30"
n/a	"html-keyboard-response"	"77"	"7849335"	"0.0-5.0-2.0-0.12"	"xbdh0a"	"563"	"1034"	"chrome"	"111.0.0"	"FALSE"	"Windows 10"	"60.93"	"048"	n/a	n/a	n/a	n/a	n/a	n/a	"fixation"	n/a	n/a	n/a	n/a	"NULL"	n/a	"NULL"	"NULL"	"NULL"	"<p style=\"color: black; font-size: 80px; padding-left: 40%; padding-right: 9%; padding-top: 2%; padding-bottom: 13%\">+</p>"	"1154"	n/a	n/a	n/a	n/a	n/a	n/a	n/a	n/a	n/a
n/a	"image-keyboard-response"	"78"	"7850527"	"0.0-5.0-2.0-1.12"	"xbdh0a"	"563"	"1034"	"chrome"	"111.0.0"	"FALSE"	"Windows 10"	"60.93"	"048"	n/a	n/a	n/a	n/a	n/a	n/a	"Trial"	n/a	n/a	n/a	"1191"	"arrowright"	n/a	"NULL"	"NULL"	"NULL"	"stimuli/Ebbinghaus_0.35714_-0.11071.png"	n/a	"Ebbinghaus"	"arrowright"	"1168"	"TRUE"	"Ebbinghaus"	"0.3571400000"	"-0.110710000"	"1"	"31"
n/a	"html-keyboard-response"	"79"	"7851963"	"0.0-5.0-2.0-0.13"	"xbdh0a"	"563"	"1034"	"chrome"	"111.0.0"	"FALSE"	"Windows 10"	"60.93"	"048"	n/a	n/a	n/a	n/a	n/a	n/a	"fixation"	n/a	n/a	n/a	n/a	"NULL"	n/a	"NULL"	"NULL"	"NULL"	"<p style=\"color: black; font-size: 80px; padding-left: 26%; padding-right: 19%; padding-top: 13%; padding-bottom: 6%\">+</p>"	"1431"	n/a	n/a	n/a	n/a	n/a	n/a	n/a	n/a	n/a
n/a	"image-keyboard-response"	"80"	"7852964"	"0.0-5.0-2.0-1.13"	"xbdh0a"	"563"	"1034"	"chrome"	"111.0.0"	"FALSE"	"Windows 10"	"60.93"	"048"	n/a	n/a	n/a	n/a	n/a	n/a	"Trial"	n/a	n/a	n/a	"1000"	"arrowright"	n/a	"NULL"	"NULL"	"NULL"	"stimuli/Ebbinghaus_-0.87143_-0.11071.png"	n/a	"Ebbinghaus"	"arrowright"	"1436"	"TRUE"	"Ebbinghaus"	"-0.871430000"	"-0.110710000"	"1"	"32"
n/a	"html-keyboard-response"	"81"	"7854321"	"0.0-5.0-2.0-0.14"	"xbdh0a"	"563"	"1034"	"chrome"	"111.0.0"	"FALSE"	"Windows 10"	"60.93"	"048"	n/a	n/a	n/a	n/a	n/a	n/a	"fixation"	n/a	n/a	n/a	n/a	"NULL"	n/a	"NULL"	"NULL"	"NULL"	"<p style=\"color: black; font-size: 80px; padding-left: 24%; padding-right: 14%; padding-top: 29%; padding-bottom: 25%\">+</p>"	"1344"	n/a	n/a	n/a	n/a	n/a	n/a	n/a	n/a	n/a
n/a	"image-keyboard-response"	"82"	"7855179"	"0.0-5.0-2.0-1.14"	"xbdh0a"	"563"	"1034"	"chrome"	"111.0.0"	"FALSE"	"Windows 10"	"60.93"	"048"	n/a	n/a	n/a	n/a	n/a	n/a	"Trial"	n/a	n/a	n/a	"857"	"arrowleft"	n/a	"NULL"	"NULL"	"NULL"	"stimuli/Ebbinghaus_-0.1000_0.11071.png"	n/a	"Ebbinghaus"	"arrowleft"	"1357"	"TRUE"	"Ebbinghaus"	"-0.100000000"	"0.1107100000"	"1"	"33"
n/a	"html-keyboard-response"	"83"	"7856272"	"0.0-5.0-2.0-0.15"	"xbdh0a"	"563"	"1034"	"chrome"	"111.0.0"	"FALSE"	"Windows 10"	"60.93"	"048"	n/a	n/a	n/a	n/a	n/a	n/a	"fixation"	n/a	n/a	n/a	n/a	"NULL"	n/a	"NULL"	"NULL"	"NULL"	"<p style=\"color: black; font-size: 80px; padding-left: 14%; padding-right: 44%; padding-top: 15%; padding-bottom: 6%\">+</p>"	"1085"	n/a	n/a	n/a	n/a	n/a	n/a	n/a	n/a	n/a
n/a	"image-keyboard-response"	"84"	"7856952"	"0.0-5.0-2.0-1.15"	"xbdh0a"	"563"	"1034"	"chrome"	"111.0.0"	"FALSE"	"Windows 10"	"60.93"	"048"	n/a	n/a	n/a	n/a	n/a	n/a	"Trial"	n/a	n/a	n/a	"679"	"arrowleft"	n/a	"NULL"	"NULL"	"NULL"	"stimuli/Ebbinghaus_-0.87143_0.11071.png"	n/a	"Ebbinghaus"	"arrowleft"	"1093"	"TRUE"	"Ebbinghaus"	"-0.871430000"	"0.1107100000"	"1"	"34"
n/a	"html-keyboard-response"	"85"	"7857992"	"0.0-5.0-2.0-0.16"	"xbdh0a"	"563"	"1034"	"chrome"	"111.0.0"	"FALSE"	"Windows 10"	"60.93"	"048"	n/a	n/a	n/a	n/a	n/a	n/a	"fixation"	n/a	n/a	n/a	n/a	"NULL"	n/a	"NULL"	"NULL"	"NULL"	"<p style=\"color: black; font-size: 80px; padding-left: 38%; padding-right: 8%; padding-top: 6%; padding-bottom: 12%\">+</p>"	"1028"	n/a	n/a	n/a	n/a	n/a	n/a	n/a	n/a	n/a
n/a	"image-keyboard-response"	"86"	"7858626"	"0.0-5.0-2.0-1.16"	"xbdh0a"	"563"	"1034"	"chrome"	"111.0.0"	"FALSE"	"Windows 10"	"60.93"	"048"	n/a	n/a	n/a	n/a	n/a	n/a	"Trial"	n/a	n/a	n/a	"633"	"arrowleft"	n/a	"NULL"	"NULL"	"NULL"	"stimuli/Ebbinghaus_-0.87143_0.15857.png"	n/a	"Ebbinghaus"	"arrowleft"	"1040"	"TRUE"	"Ebbinghaus"	"-0.871430000"	"0.1585700000"	"1"	"35"
n/a	"html-keyboard-response"	"87"	"7860104"	"0.0-5.0-2.0-0.17"	"xbdh0a"	"563"	"1034"	"chrome"	"111.0.0"	"FALSE"	"Windows 10"	"60.93"	"048"	n/a	n/a	n/a	n/a	n/a	n/a	"fixation"	n/a	n/a	n/a	n/a	"NULL"	n/a	"NULL"	"NULL"	"NULL"	"<p style=\"color: black; font-size: 80px; padding-left: 31%; padding-right: 12%; padding-top: 40%; padding-bottom: 50%\">+</p>"	"1469"	n/a	n/a	n/a	n/a	n/a	n/a	n/a	n/a	n/a
n/a	"image-keyboard-response"	"88"	"7860662"	"0.0-5.0-2.0-1.17"	"xbdh0a"	"563"	"1034"	"chrome"	"111.0.0"	"FALSE"	"Windows 10"	"60.93"	"048"	n/a	n/a	n/a	n/a	n/a	n/a	"Trial"	n/a	n/a	n/a	"557"	"arrowright"	n/a	"NULL"	"NULL"	"NULL"	"stimuli/Ebbinghaus_-0.87143_-0.2150.png"	n/a	"Ebbinghaus"	"arrowright"	"1478"	"TRUE"	"Ebbinghaus"	"-0.871430000"	"-0.215000000"	"1"	"36"
n/a	"html-keyboard-response"	"89"	"7861756"	"0.0-5.0-2.0-0.18"	"xbdh0a"	"563"	"1034"	"chrome"	"111.0.0"	"FALSE"	"Windows 10"	"60.93"	"048"	n/a	n/a	n/a	n/a	n/a	n/a	"fixation"	n/a	n/a	n/a	n/a	"NULL"	n/a	"NULL"	"NULL"	"NULL"	"<p style=\"color: black; font-size: 80px; padding-left: 21%; padding-right: 37%; padding-top: 16%; padding-bottom: 45%\">+</p>"	"1084"	n/a	n/a	n/a	n/a	n/a	n/a	n/a	n/a	n/a
n/a	"image-keyboard-response"	"90"	"7862529"	"0.0-5.0-2.0-1.18"	"xbdh0a"	"563"	"1034"	"chrome"	"111.0.0"	"FALSE"	"Windows 10"	"60.93"	"048"	n/a	n/a	n/a	n/a	n/a	n/a	"Trial"	n/a	n/a	n/a	"773"	"arrowright"	n/a	"NULL"	"NULL"	"NULL"	"stimuli/Ebbinghaus_-0.1000_-0.15857.png"	n/a	"Ebbinghaus"	"arrowright"	"1094"	"TRUE"	"Ebbinghaus"	"-0.100000000"	"-0.158570000"	"1"	"37"
n/a	"html-keyboard-response"	"91"	"7863755"	"0.0-5.0-2.0-0.19"	"xbdh0a"	"563"	"1034"	"chrome"	"111.0.0"	"FALSE"	"Windows 10"	"60.93"	"048"	n/a	n/a	n/a	n/a	n/a	n/a	"fixation"	n/a	n/a	n/a	n/a	"NULL"	n/a	"NULL"	"NULL"	"NULL"	"<p style=\"color: black; font-size: 80px; padding-left: 9%; padding-right: 11%; padding-top: 37%; padding-bottom: 18%\">+</p>"	"1220"	n/a	n/a	n/a	n/a	n/a	n/a	n/a	n/a	n/a
n/a	"image-keyboard-response"	"92"	"7864466"	"0.0-5.0-2.0-1.19"	"xbdh0a"	"563"	"1034"	"chrome"	"111.0.0"	"FALSE"	"Windows 10"	"60.93"	"048"	n/a	n/a	n/a	n/a	n/a	n/a	"Trial"	n/a	n/a	n/a	"710"	"arrowleft"	n/a	"NULL"	"NULL"	"NULL"	"stimuli/Ebbinghaus_-0.35714_0.21500.png"	n/a	"Ebbinghaus"	"arrowleft"	"1226"	"TRUE"	"Ebbinghaus"	"-0.357140000"	"0.2150000000"	"1"	"38"
n/a	"html-keyboard-response"	"93"	"7865801"	"0.0-5.0-2.0-0.20"	"xbdh0a"	"563"	"1034"	"chrome"	"111.0.0"	"FALSE"	"Windows 10"	"60.93"	"048"	n/a	n/a	n/a	n/a	n/a	n/a	"fixation"	n/a	n/a	n/a	n/a	"NULL"	n/a	"NULL"	"NULL"	"NULL"	"<p style=\"color: black; font-size: 80px; padding-left: 20%; padding-right: 11%; padding-top: 12%; padding-bottom: 16%\">+</p>"	"1332"	n/a	n/a	n/a	n/a	n/a	n/a	n/a	n/a	n/a
n/a	"image-keyboard-response"	"94"	"7866422"	"0.0-5.0-2.0-1.20"	"xbdh0a"	"563"	"1034"	"chrome"	"111.0.0"	"FALSE"	"Windows 10"	"60.93"	"048"	n/a	n/a	n/a	n/a	n/a	n/a	"Trial"	n/a	n/a	n/a	"621"	"arrowleft"	n/a	"NULL"	"NULL"	"NULL"	"stimuli/Ebbinghaus_-0.1000_0.21500.png"	n/a	"Ebbinghaus"	"arrowleft"	"1335"	"TRUE"	"Ebbinghaus"	"-0.100000000"	"0.2150000000"	"1"	"39"
n/a	"html-keyboard-response"	"95"	"7867737"	"0.0-5.0-2.0-0.21"	"xbdh0a"	"563"	"1034"	"chrome"	"111.0.0"	"FALSE"	"Windows 10"	"60.93"	"048"	n/a	n/a	n/a	n/a	n/a	n/a	"fixation"	n/a	n/a	n/a	n/a	"NULL"	n/a	"NULL"	"NULL"	"NULL"	"<p style=\"color: black; font-size: 80px; padding-left: 11%; padding-right: 4%; padding-top: 40%; padding-bottom: 32%\">+</p>"	"1312"	n/a	n/a	n/a	n/a	n/a	n/a	n/a	n/a	n/a
n/a	"image-keyboard-response"	"96"	"7868475"	"0.0-5.0-2.0-1.21"	"xbdh0a"	"563"	"1034"	"chrome"	"111.0.0"	"FALSE"	"Windows 10"	"60.93"	"048"	n/a	n/a	n/a	n/a	n/a	n/a	"Trial"	n/a	n/a	n/a	"737"	"arrowright"	n/a	"NULL"	"NULL"	"NULL"	"stimuli/Ebbinghaus_-0.35714_-0.15857.png"	n/a	"Ebbinghaus"	"arrowright"	"1315"	"TRUE"	"Ebbinghaus"	"-0.357140000"	"-0.158570000"	"1"	"40"
n/a	"html-keyboard-response"	"97"	"7869847"	"0.0-5.0-2.0-0.22"	"xbdh0a"	"563"	"1034"	"chrome"	"111.0.0"	"FALSE"	"Windows 10"	"60.93"	"048"	n/a	n/a	n/a	n/a	n/a	n/a	"fixation"	n/a	n/a	n/a	n/a	"NULL"	n/a	"NULL"	"NULL"	"NULL"	"<p style=\"color: black; font-size: 80px; padding-left: 8%; padding-right: 2%; padding-top: 23%; padding-bottom: 7%\">+</p>"	"1371"	n/a	n/a	n/a	n/a	n/a	n/a	n/a	n/a	n/a
n/a	"image-keyboard-response"	"98"	"7870337"	"0.0-5.0-2.0-1.22"	"xbdh0a"	"563"	"1034"	"chrome"	"111.0.0"	"FALSE"	"Windows 10"	"60.93"	"048"	n/a	n/a	n/a	n/a	n/a	n/a	"Trial"	n/a	n/a	n/a	"489"	"arrowleft"	n/a	"NULL"	"NULL"	"NULL"	"stimuli/Ebbinghaus_-0.35714_0.28000.png"	n/a	"Ebbinghaus"	"arrowleft"	"1372"	"TRUE"	"Ebbinghaus"	"-0.357140000"	"0.2800000000"	"1"	"41"
n/a	"html-keyboard-response"	"99"	"7871712"	"0.0-5.0-2.0-0.23"	"xbdh0a"	"563"	"1034"	"chrome"	"111.0.0"	"FALSE"	"Windows 10"	"60.93"	"048"	n/a	n/a	n/a	n/a	n/a	n/a	"fixation"	n/a	n/a	n/a	n/a	"NULL"	n/a	"NULL"	"NULL"	"NULL"	"<p style=\"color: black; font-size: 80px; padding-left: 12%; padding-right: 40%; padding-top: 47%; padding-bottom: 5%\">+</p>"	"1360"	n/a	n/a	n/a	n/a	n/a	n/a	n/a	n/a	n/a
n/a	"image-keyboard-response"	"100"	"7872262"	"0.0-5.0-2.0-1.23"	"xbdh0a"	"563"	"1034"	"chrome"	"111.0.0"	"FALSE"	"Windows 10"	"60.93"	"048"	n/a	n/a	n/a	n/a	n/a	n/a	"Trial"	n/a	n/a	n/a	"550"	"arrowleft"	n/a	"NULL"	"NULL"	"NULL"	"stimuli/Ebbinghaus_0.35714_0.21500.png"	n/a	"Ebbinghaus"	"arrowleft"	"1375"	"TRUE"	"Ebbinghaus"	"0.3571400000"	"0.2150000000"	"1"	"42"
n/a	"html-keyboard-response"	"101"	"7873747"	"0.0-5.0-2.0-0.24"	"xbdh0a"	"563"	"1034"	"chrome"	"111.0.0"	"FALSE"	"Windows 10"	"60.93"	"048"	n/a	n/a	n/a	n/a	n/a	n/a	"fixation"	n/a	n/a	n/a	n/a	"NULL"	n/a	"NULL"	"NULL"	"NULL"	"<p style=\"color: black; font-size: 80px; padding-left: 22%; padding-right: 5%; padding-top: 16%; padding-bottom: 46%\">+</p>"	"1473"	n/a	n/a	n/a	n/a	n/a	n/a	n/a	n/a	n/a
n/a	"image-keyboard-response"	"102"	"7874250"	"0.0-5.0-2.0-1.24"	"xbdh0a"	"563"	"1034"	"chrome"	"111.0.0"	"FALSE"	"Windows 10"	"60.93"	"048"	n/a	n/a	n/a	n/a	n/a	n/a	"Trial"	n/a	n/a	n/a	"503"	"arrowright"	n/a	"NULL"	"NULL"	"NULL"	"stimuli/Ebbinghaus_-0.61429_-0.15857.png"	n/a	"Ebbinghaus"	"arrowright"	"1485"	"TRUE"	"Ebbinghaus"	"-0.614290000"	"-0.158570000"	"1"	"43"
n/a	"html-keyboard-response"	"103"	"7875423"	"0.0-5.0-2.0-0.25"	"xbdh0a"	"563"	"1034"	"chrome"	"111.0.0"	"FALSE"	"Windows 10"	"60.93"	"048"	n/a	n/a	n/a	n/a	n/a	n/a	"fixation"	n/a	n/a	n/a	n/a	"NULL"	n/a	"NULL"	"NULL"	"NULL"	"<p style=\"color: black; font-size: 80px; padding-left: 26%; padding-right: 31%; padding-top: 47%; padding-bottom: 42%\">+</p>"	"1162"	n/a	n/a	n/a	n/a	n/a	n/a	n/a	n/a	n/a
n/a	"image-keyboard-response"	"104"	"7876130"	"0.0-5.0-2.0-1.25"	"xbdh0a"	"563"	"1034"	"chrome"	"111.0.0"	"FALSE"	"Windows 10"	"60.93"	"048"	n/a	n/a	n/a	n/a	n/a	n/a	"Trial"	n/a	n/a	n/a	"706"	"arrowright"	n/a	"NULL"	"NULL"	"NULL"	"stimuli/Ebbinghaus_0.87143_-0.2800.png"	n/a	"Ebbinghaus"	"arrowright"	"1173"	"TRUE"	"Ebbinghaus"	"0.8714300000"	"-0.280000000"	"1"	"44"
n/a	"html-keyboard-response"	"105"	"7877579"	"0.0-5.0-2.0-0.26"	"xbdh0a"	"563"	"1034"	"chrome"	"111.0.0"	"FALSE"	"Windows 10"	"60.93"	"048"	n/a	n/a	n/a	n/a	n/a	n/a	"fixation"	n/a	n/a	n/a	n/a	"NULL"	n/a	"NULL"	"NULL"	"NULL"	"<p style=\"color: black; font-size: 80px; padding-left: 36%; padding-right: 14%; padding-top: 1%; padding-bottom: 10%\">+</p>"	"1442"	n/a	n/a	n/a	n/a	n/a	n/a	n/a	n/a	n/a
n/a	"image-keyboard-response"	"106"	"7878235"	"0.0-5.0-2.0-1.26"	"xbdh0a"	"563"	"1034"	"chrome"	"111.0.0"	"FALSE"	"Windows 10"	"60.93"	"048"	n/a	n/a	n/a	n/a	n/a	n/a	"Trial"	n/a	n/a	n/a	"656"	"arrowright"	n/a	"NULL"	"NULL"	"NULL"	"stimuli/Ebbinghaus_0.10000_-0.11071.png"	n/a	"Ebbinghaus"	"arrowright"	"1449"	"TRUE"	"Ebbinghaus"	"0.1000000000"	"-0.110710000"	"1"	"45"
n/a	"html-keyboard-response"	"107"	"7879275"	"0.0-5.0-2.0-0.27"	"xbdh0a"	"563"	"1034"	"chrome"	"111.0.0"	"FALSE"	"Windows 10"	"60.93"	"048"	n/a	n/a	n/a	n/a	n/a	n/a	"fixation"	n/a	n/a	n/a	n/a	"NULL"	n/a	"NULL"	"NULL"	"NULL"	"<p style=\"color: black; font-size: 80px; padding-left: 41%; padding-right: 17%; padding-top: 45%; padding-bottom: 40%\">+</p>"	"1027"	n/a	n/a	n/a	n/a	n/a	n/a	n/a	n/a	n/a
n/a	"image-keyboard-response"	"108"	"7880239"	"0.0-5.0-2.0-1.27"	"xbdh0a"	"563"	"1034"	"chrome"	"111.0.0"	"FALSE"	"Windows 10"	"60.93"	"048"	n/a	n/a	n/a	n/a	n/a	n/a	"Trial"	n/a	n/a	n/a	"963"	"arrowright"	n/a	"NULL"	"NULL"	"NULL"	"stimuli/Ebbinghaus_0.35714_-0.2150.png"	n/a	"Ebbinghaus"	"arrowright"	"1040"	"TRUE"	"Ebbinghaus"	"0.3571400000"	"-0.215000000"	"1"	"46"
n/a	"html-keyboard-response"	"109"	"7881293"	"0.0-5.0-2.0-0.28"	"xbdh0a"	"563"	"1034"	"chrome"	"111.0.0"	"FALSE"	"Windows 10"	"60.93"	"048"	n/a	n/a	n/a	n/a	n/a	n/a	"fixation"	n/a	n/a	n/a	n/a	"NULL"	n/a	"NULL"	"NULL"	"NULL"	"<p style=\"color: black; font-size: 80px; padding-left: 48%; padding-right: 21%; padding-top: 23%; padding-bottom: 38%\">+</p>"	"1043"	n/a	n/a	n/a	n/a	n/a	n/a	n/a	n/a	n/a
n/a	"image-keyboard-response"	"110"	"7881974"	"0.0-5.0-2.0-1.28"	"xbdh0a"	"563"	"1034"	"chrome"	"111.0.0"	"FALSE"	"Windows 10"	"60.93"	"048"	n/a	n/a	n/a	n/a	n/a	n/a	"Trial"	n/a	n/a	n/a	"680"	"arrowright"	n/a	"NULL"	"NULL"	"NULL"	"stimuli/Ebbinghaus_0.10000_-0.15857.png"	n/a	"Ebbinghaus"	"arrowright"	"1054"	"TRUE"	"Ebbinghaus"	"0.1000000000"	"-0.158570000"	"1"	"47"
n/a	"html-keyboard-response"	"111"	"7883334"	"0.0-5.0-2.0-0.29"	"xbdh0a"	"563"	"1034"	"chrome"	"111.0.0"	"FALSE"	"Windows 10"	"60.93"	"048"	n/a	n/a	n/a	n/a	n/a	n/a	"fixation"	n/a	n/a	n/a	n/a	"NULL"	n/a	"NULL"	"NULL"	"NULL"	"<p style=\"color: black; font-size: 80px; padding-left: 9%; padding-right: 32%; padding-top: 49%; padding-bottom: 4%\">+</p>"	"1351"	n/a	n/a	n/a	n/a	n/a	n/a	n/a	n/a	n/a
n/a	"image-keyboard-response"	"112"	"7883887"	"0.0-5.0-2.0-1.29"	"xbdh0a"	"563"	"1034"	"chrome"	"111.0.0"	"FALSE"	"Windows 10"	"60.93"	"048"	n/a	n/a	n/a	n/a	n/a	n/a	"Trial"	n/a	n/a	n/a	"552"	"arrowleft"	n/a	"NULL"	"NULL"	"NULL"	"stimuli/Ebbinghaus_-0.35714_0.15857.png"	n/a	"Ebbinghaus"	"arrowleft"	"1360"	"TRUE"	"Ebbinghaus"	"-0.357140000"	"0.1585700000"	"1"	"48"
n/a	"html-keyboard-response"	"113"	"7885302"	"0.0-5.0-2.0-0.30"	"xbdh0a"	"563"	"1034"	"chrome"	"111.0.0"	"FALSE"	"Windows 10"	"60.93"	"048"	n/a	n/a	n/a	n/a	n/a	n/a	"fixation"	n/a	n/a	n/a	n/a	"NULL"	n/a	"NULL"	"NULL"	"NULL"	"<p style=\"color: black; font-size: 80px; padding-left: 36%; padding-right: 11%; padding-top: 1%; padding-bottom: 37%\">+</p>"	"1408"	n/a	n/a	n/a	n/a	n/a	n/a	n/a	n/a	n/a
n/a	"image-keyboard-response"	"114"	"7885860"	"0.0-5.0-2.0-1.30"	"xbdh0a"	"563"	"1034"	"chrome"	"111.0.0"	"FALSE"	"Windows 10"	"60.93"	"048"	n/a	n/a	n/a	n/a	n/a	n/a	"Trial"	n/a	n/a	n/a	"557"	"arrowleft"	n/a	"NULL"	"NULL"	"NULL"	"stimuli/Ebbinghaus_-0.35714_0.11071.png"	n/a	"Ebbinghaus"	"arrowleft"	"1415"	"TRUE"	"Ebbinghaus"	"-0.357140000"	"0.1107100000"	"1"	"49"
n/a	"html-keyboard-response"	"115"	"7886880"	"0.0-5.0-2.0-0.31"	"xbdh0a"	"563"	"1034"	"chrome"	"111.0.0"	"FALSE"	"Windows 10"	"60.93"	"048"	n/a	n/a	n/a	n/a	n/a	n/a	"fixation"	n/a	n/a	n/a	n/a	"NULL"	n/a	"NULL"	"NULL"	"NULL"	"<p style=\"color: black; font-size: 80px; padding-left: 19%; padding-right: 43%; padding-top: 13%; padding-bottom: 6%\">+</p>"	"1012"	n/a	n/a	n/a	n/a	n/a	n/a	n/a	n/a	n/a
n/a	"image-keyboard-response"	"116"	"7887431"	"0.0-5.0-2.0-1.31"	"xbdh0a"	"563"	"1034"	"chrome"	"111.0.0"	"FALSE"	"Windows 10"	"60.93"	"048"	n/a	n/a	n/a	n/a	n/a	n/a	"Trial"	n/a	n/a	n/a	"550"	"arrowleft"	n/a	"NULL"	"NULL"	"NULL"	"stimuli/Ebbinghaus_0.61429_0.28000.png"	n/a	"Ebbinghaus"	"arrowleft"	"1020"	"TRUE"	"Ebbinghaus"	"0.6142900000"	"0.2800000000"	"1"	"50"
n/a	"html-keyboard-response"	"117"	"7888701"	"0.0-5.0-2.0-0.32"	"xbdh0a"	"563"	"1034"	"chrome"	"111.0.0"	"FALSE"	"Windows 10"	"60.93"	"048"	n/a	n/a	n/a	n/a	n/a	n/a	"fixation"	n/a	n/a	n/a	n/a	"NULL"	n/a	"NULL"	"NULL"	"NULL"	"<p style=\"color: black; font-size: 80px; padding-left: 41%; padding-right: 13%; padding-top: 19%; padding-bottom: 3%\">+</p>"	"1255"	n/a	n/a	n/a	n/a	n/a	n/a	n/a	n/a	n/a
n/a	"image-keyboard-response"	"118"	"7889211"	"0.0-5.0-2.0-1.32"	"xbdh0a"	"563"	"1034"	"chrome"	"111.0.0"	"FALSE"	"Windows 10"	"60.93"	"048"	n/a	n/a	n/a	n/a	n/a	n/a	"Trial"	n/a	n/a	n/a	"509"	"arrowright"	n/a	"NULL"	"NULL"	"NULL"	"stimuli/Ebbinghaus_-0.61429_-0.2800.png"	n/a	"Ebbinghaus"	"arrowright"	"1270"	"TRUE"	"Ebbinghaus"	"-0.614290000"	"-0.280000000"	"1"	"51"
n/a	"html-keyboard-response"	"119"	"7890639"	"0.0-5.0-2.0-0.33"	"xbdh0a"	"563"	"1034"	"chrome"	"111.0.0"	"FALSE"	"Windows 10"	"60.93"	"048"	n/a	n/a	n/a	n/a	n/a	n/a	"fixation"	n/a	n/a	n/a	n/a	"NULL"	n/a	"NULL"	"NULL"	"NULL"	"<p style=\"color: black; font-size: 80px; padding-left: 35%; padding-right: 20%; padding-top: 28%; padding-bottom: 46%\">+</p>"	"1420"	n/a	n/a	n/a	n/a	n/a	n/a	n/a	n/a	n/a
n/a	"image-keyboard-response"	"120"	"7891227"	"0.0-5.0-2.0-1.33"	"xbdh0a"	"563"	"1034"	"chrome"	"111.0.0"	"FALSE"	"Windows 10"	"60.93"	"048"	n/a	n/a	n/a	n/a	n/a	n/a	"Trial"	n/a	n/a	n/a	"587"	"arrowright"	n/a	"NULL"	"NULL"	"NULL"	"stimuli/Ebbinghaus_-0.35714_-0.2150.png"	n/a	"Ebbinghaus"	"arrowright"	"1428"	"TRUE"	"Ebbinghaus"	"-0.357140000"	"-0.215000000"	"1"	"52"
n/a	"html-keyboard-response"	"121"	"7892247"	"0.0-5.0-2.0-0.34"	"xbdh0a"	"563"	"1034"	"chrome"	"111.0.0"	"FALSE"	"Windows 10"	"60.93"	"048"	n/a	n/a	n/a	n/a	n/a	n/a	"fixation"	n/a	n/a	n/a	n/a	"NULL"	n/a	"NULL"	"NULL"	"NULL"	"<p style=\"color: black; font-size: 80px; padding-left: 24%; padding-right: 27%; padding-top: 37%; padding-bottom: 26%\">+</p>"	"1006"	n/a	n/a	n/a	n/a	n/a	n/a	n/a	n/a	n/a
n/a	"image-keyboard-response"	"122"	"7892762"	"0.0-5.0-2.0-1.34"	"xbdh0a"	"563"	"1034"	"chrome"	"111.0.0"	"FALSE"	"Windows 10"	"60.93"	"048"	n/a	n/a	n/a	n/a	n/a	n/a	"Trial"	n/a	n/a	n/a	"515"	"arrowleft"	n/a	"NULL"	"NULL"	"NULL"	"stimuli/Ebbinghaus_0.87143_0.28000.png"	n/a	"Ebbinghaus"	"arrowleft"	"1020"	"TRUE"	"Ebbinghaus"	"0.8714300000"	"0.2800000000"	"1"	"53"
n/a	"html-keyboard-response"	"123"	"7893959"	"0.0-5.0-2.0-0.35"	"xbdh0a"	"563"	"1034"	"chrome"	"111.0.0"	"FALSE"	"Windows 10"	"60.93"	"048"	n/a	n/a	n/a	n/a	n/a	n/a	"fixation"	n/a	n/a	n/a	n/a	"NULL"	n/a	"NULL"	"NULL"	"NULL"	"<p style=\"color: black; font-size: 80px; padding-left: 14%; padding-right: 29%; padding-top: 33%; padding-bottom: 39%\">+</p>"	"1185"	n/a	n/a	n/a	n/a	n/a	n/a	n/a	n/a	n/a
n/a	"image-keyboard-response"	"124"	"7894506"	"0.0-5.0-2.0-1.35"	"xbdh0a"	"563"	"1034"	"chrome"	"111.0.0"	"FALSE"	"Windows 10"	"60.93"	"048"	n/a	n/a	n/a	n/a	n/a	n/a	"Trial"	n/a	n/a	n/a	"546"	"arrowright"	n/a	"NULL"	"NULL"	"NULL"	"stimuli/Ebbinghaus_0.61429_-0.2800.png"	n/a	"Ebbinghaus"	"arrowright"	"1197"	"TRUE"	"Ebbinghaus"	"0.6142900000"	"-0.280000000"	"1"	"54"
n/a	"html-keyboard-response"	"125"	"7895648"	"0.0-5.0-2.0-0.36"	"xbdh0a"	"563"	"1034"	"chrome"	"111.0.0"	"FALSE"	"Windows 10"	"60.93"	"048"	n/a	n/a	n/a	n/a	n/a	n/a	"fixation"	n/a	n/a	n/a	n/a	"NULL"	n/a	"NULL"	"NULL"	"NULL"	"<p style=\"color: black; font-size: 80px; padding-left: 22%; padding-right: 48%; padding-top: 11%; padding-bottom: 48%\">+</p>"	"1127"	n/a	n/a	n/a	n/a	n/a	n/a	n/a	n/a	n/a
n/a	"image-keyboard-response"	"126"	"7896162"	"0.0-5.0-2.0-1.36"	"xbdh0a"	"563"	"1034"	"chrome"	"111.0.0"	"FALSE"	"Windows 10"	"60.93"	"048"	n/a	n/a	n/a	n/a	n/a	n/a	"Trial"	n/a	n/a	n/a	"511"	"arrowright"	n/a	"NULL"	"NULL"	"NULL"	"stimuli/Ebbinghaus_0.87143_-0.15857.png"	n/a	"Ebbinghaus"	"arrowright"	"1142"	"TRUE"	"Ebbinghaus"	"0.8714300000"	"-0.158570000"	"1"	"55"
n/a	"html-keyboard-response"	"127"	"7897196"	"0.0-5.0-2.0-0.37"	"xbdh0a"	"563"	"1034"	"chrome"	"111.0.0"	"FALSE"	"Windows 10"	"60.93"	"048"	n/a	n/a	n/a	n/a	n/a	n/a	"fixation"	n/a	n/a	n/a	n/a	"NULL"	n/a	"NULL"	"NULL"	"NULL"	"<p style=\"color: black; font-size: 80px; padding-left: 12%; padding-right: 8%; padding-top: 32%; padding-bottom: 8%\">+</p>"	"1019"	n/a	n/a	n/a	n/a	n/a	n/a	n/a	n/a	n/a
n/a	"image-keyboard-response"	"128"	"7897731"	"0.0-5.0-2.0-1.37"	"xbdh0a"	"563"	"1034"	"chrome"	"111.0.0"	"FALSE"	"Windows 10"	"60.93"	"048"	n/a	n/a	n/a	n/a	n/a	n/a	"Trial"	n/a	n/a	n/a	"535"	"arrowleft"	n/a	"NULL"	"NULL"	"NULL"	"stimuli/Ebbinghaus_-0.61429_0.11071.png"	n/a	"Ebbinghaus"	"arrowleft"	"1034"	"TRUE"	"Ebbinghaus"	"-0.614290000"	"0.1107100000"	"1"	"56"
n/a	"html-keyboard-response"	"129"	"7899050"	"0.0-5.0-2.0-0.38"	"xbdh0a"	"563"	"1034"	"chrome"	"111.0.0"	"FALSE"	"Windows 10"	"60.93"	"048"	n/a	n/a	n/a	n/a	n/a	n/a	"fixation"	n/a	n/a	n/a	n/a	"NULL"	n/a	"NULL"	"NULL"	"NULL"	"<p style=\"color: black; font-size: 80px; padding-left: 44%; padding-right: 32%; padding-top: 16%; padding-bottom: 15%\">+</p>"	"1306"	n/a	n/a	n/a	n/a	n/a	n/a	n/a	n/a	n/a
n/a	"image-keyboard-response"	"130"	"7899575"	"0.0-5.0-2.0-1.38"	"xbdh0a"	"563"	"1034"	"chrome"	"111.0.0"	"FALSE"	"Windows 10"	"60.93"	"048"	n/a	n/a	n/a	n/a	n/a	n/a	"Trial"	n/a	n/a	n/a	"524"	"arrowleft"	n/a	"NULL"	"NULL"	"NULL"	"stimuli/Ebbinghaus_-0.61429_0.28000.png"	n/a	"Ebbinghaus"	"arrowleft"	"1319"	"TRUE"	"Ebbinghaus"	"-0.614290000"	"0.2800000000"	"1"	"57"
n/a	"html-keyboard-response"	"131"	"7900940"	"0.0-5.0-2.0-0.39"	"xbdh0a"	"563"	"1034"	"chrome"	"111.0.0"	"FALSE"	"Windows 10"	"60.93"	"048"	n/a	n/a	n/a	n/a	n/a	n/a	"fixation"	n/a	n/a	n/a	n/a	"NULL"	n/a	"NULL"	"NULL"	"NULL"	"<p style=\"color: black; font-size: 80px; padding-left: 38%; padding-right: 33%; padding-top: 25%; padding-bottom: 18%\">+</p>"	"1351"	n/a	n/a	n/a	n/a	n/a	n/a	n/a	n/a	n/a
n/a	"image-keyboard-response"	"132"	"7901491"	"0.0-5.0-2.0-1.39"	"xbdh0a"	"563"	"1034"	"chrome"	"111.0.0"	"FALSE"	"Windows 10"	"60.93"	"048"	n/a	n/a	n/a	n/a	n/a	n/a	"Trial"	n/a	n/a	n/a	"550"	"arrowleft"	n/a	"NULL"	"NULL"	"NULL"	"stimuli/Ebbinghaus_0.87143_0.21500.png"	n/a	"Ebbinghaus"	"arrowleft"	"1365"	"TRUE"	"Ebbinghaus"	"0.8714300000"	"0.2150000000"	"1"	"58"
n/a	"html-keyboard-response"	"133"	"7902699"	"0.0-5.0-2.0-0.40"	"xbdh0a"	"563"	"1034"	"chrome"	"111.0.0"	"FALSE"	"Windows 10"	"60.93"	"048"	n/a	n/a	n/a	n/a	n/a	n/a	"fixation"	n/a	n/a	n/a	n/a	"NULL"	n/a	"NULL"	"NULL"	"NULL"	"<p style=\"color: black; font-size: 80px; padding-left: 39%; padding-right: 19%; padding-top: 24%; padding-bottom: 9%\">+</p>"	"1192"	n/a	n/a	n/a	n/a	n/a	n/a	n/a	n/a	n/a
n/a	"image-keyboard-response"	"134"	"7903231"	"0.0-5.0-2.0-1.40"	"xbdh0a"	"563"	"1034"	"chrome"	"111.0.0"	"FALSE"	"Windows 10"	"60.93"	"048"	n/a	n/a	n/a	n/a	n/a	n/a	"Trial"	n/a	n/a	n/a	"531"	"arrowright"	n/a	"NULL"	"NULL"	"NULL"	"stimuli/Ebbinghaus_-0.1000_-0.2150.png"	n/a	"Ebbinghaus"	"arrowright"	"1208"	"TRUE"	"Ebbinghaus"	"-0.100000000"	"-0.215000000"	"1"	"59"
n/a	"html-keyboard-response"	"135"	"7904279"	"0.0-5.0-2.0-0.41"	"xbdh0a"	"563"	"1034"	"chrome"	"111.0.0"	"FALSE"	"Windows 10"	"60.93"	"048"	n/a	n/a	n/a	n/a	n/a	n/a	"fixation"	n/a	n/a	n/a	n/a	"NULL"	n/a	"NULL"	"NULL"	"NULL"	"<p style=\"color: black; font-size: 80px; padding-left: 35%; padding-right: 22%; padding-top: 35%; padding-bottom: 11%\">+</p>"	"1037"	n/a	n/a	n/a	n/a	n/a	n/a	n/a	n/a	n/a
n/a	"image-keyboard-response"	"136"	"7904966"	"0.0-5.0-2.0-1.41"	"xbdh0a"	"563"	"1034"	"chrome"	"111.0.0"	"FALSE"	"Windows 10"	"60.93"	"048"	n/a	n/a	n/a	n/a	n/a	n/a	"Trial"	n/a	n/a	n/a	"687"	"arrowright"	n/a	"NULL"	"NULL"	"NULL"	"stimuli/Ebbinghaus_-0.35714_-0.11071.png"	n/a	"Ebbinghaus"	"arrowright"	"1048"	"TRUE"	"Ebbinghaus"	"-0.357140000"	"-0.110710000"	"1"	"60"
n/a	"html-keyboard-response"	"137"	"7906257"	"0.0-5.0-2.0-0.42"	"xbdh0a"	"563"	"1034"	"chrome"	"111.0.0"	"FALSE"	"Windows 10"	"60.93"	"048"	n/a	n/a	n/a	n/a	n/a	n/a	"fixation"	n/a	n/a	n/a	n/a	"NULL"	n/a	"NULL"	"NULL"	"NULL"	"<p style=\"color: black; font-size: 80px; padding-left: 32%; padding-right: 11%; padding-top: 49%; padding-bottom: 48%\">+</p>"	"1285"	n/a	n/a	n/a	n/a	n/a	n/a	n/a	n/a	n/a
n/a	"image-keyboard-response"	"138"	"7906756"	"0.0-5.0-2.0-1.42"	"xbdh0a"	"563"	"1034"	"chrome"	"111.0.0"	"FALSE"	"Windows 10"	"60.93"	"048"	n/a	n/a	n/a	n/a	n/a	n/a	"Trial"	n/a	n/a	n/a	"499"	"arrowright"	n/a	"NULL"	"NULL"	"NULL"	"stimuli/Ebbinghaus_-0.87143_-0.15857.png"	n/a	"Ebbinghaus"	"arrowright"	"1291"	"TRUE"	"Ebbinghaus"	"-0.871430000"	"-0.158570000"	"1"	"61"
n/a	"html-keyboard-response"	"139"	"7908100"	"0.0-5.0-2.0-0.43"	"xbdh0a"	"563"	"1034"	"chrome"	"111.0.0"	"FALSE"	"Windows 10"	"60.93"	"048"	n/a	n/a	n/a	n/a	n/a	n/a	"fixation"	n/a	n/a	n/a	n/a	"NULL"	n/a	"NULL"	"NULL"	"NULL"	"<p style=\"color: black; font-size: 80px; padding-left: 40%; padding-right: 39%; padding-top: 30%; padding-bottom: 41%\">+</p>"	"1337"	n/a	n/a	n/a	n/a	n/a	n/a	n/a	n/a	n/a
n/a	"image-keyboard-response"	"140"	"7908847"	"0.0-5.0-2.0-1.43"	"xbdh0a"	"563"	"1034"	"chrome"	"111.0.0"	"FALSE"	"Windows 10"	"60.93"	"048"	n/a	n/a	n/a	n/a	n/a	n/a	"Trial"	n/a	n/a	n/a	"746"	"arrowleft"	n/a	"NULL"	"NULL"	"NULL"	"stimuli/Ebbinghaus_0.61429_-0.11071.png"	n/a	"Ebbinghaus"	"arrowright"	"1344"	"FALSE"	"Ebbinghaus"	"0.6142900000"	"-0.110710000"	"1"	"62"
n/a	"html-keyboard-response"	"141"	"7910296"	"0.0-5.0-2.0-0.44"	"xbdh0a"	"563"	"1034"	"chrome"	"111.0.0"	"FALSE"	"Windows 10"	"60.93"	"048"	n/a	n/a	n/a	n/a	n/a	n/a	"fixation"	n/a	n/a	n/a	n/a	"NULL"	n/a	"NULL"	"NULL"	"NULL"	"<p style=\"color: black; font-size: 80px; padding-left: 31%; padding-right: 33%; padding-top: 31%; padding-bottom: 12%\">+</p>"	"1437"	n/a	n/a	n/a	n/a	n/a	n/a	n/a	n/a	n/a
n/a	"image-keyboard-response"	"142"	"7910812"	"0.0-5.0-2.0-1.44"	"xbdh0a"	"563"	"1034"	"chrome"	"111.0.0"	"FALSE"	"Windows 10"	"60.93"	"048"	n/a	n/a	n/a	n/a	n/a	n/a	"Trial"	n/a	n/a	n/a	"515"	"arrowleft"	n/a	"NULL"	"NULL"	"NULL"	"stimuli/Ebbinghaus_0.10000_0.28000.png"	n/a	"Ebbinghaus"	"arrowleft"	"1449"	"TRUE"	"Ebbinghaus"	"0.1000000000"	"0.2800000000"	"1"	"63"
n/a	"html-keyboard-response"	"143"	"7912042"	"0.0-5.0-2.0-0.45"	"xbdh0a"	"563"	"1034"	"chrome"	"111.0.0"	"FALSE"	"Windows 10"	"60.93"	"048"	n/a	n/a	n/a	n/a	n/a	n/a	"fixation"	n/a	n/a	n/a	n/a	"NULL"	n/a	"NULL"	"NULL"	"NULL"	"<p style=\"color: black; font-size: 80px; padding-left: 24%; padding-right: 38%; padding-top: 39%; padding-bottom: 34%\">+</p>"	"1217"	n/a	n/a	n/a	n/a	n/a	n/a	n/a	n/a	n/a
n/a	"image-keyboard-response"	"144"	"7912543"	"0.0-5.0-2.0-1.45"	"xbdh0a"	"563"	"1034"	"chrome"	"111.0.0"	"FALSE"	"Windows 10"	"60.93"	"048"	n/a	n/a	n/a	n/a	n/a	n/a	"Trial"	n/a	n/a	n/a	"500"	"arrowleft"	n/a	"NULL"	"NULL"	"NULL"	"stimuli/Ebbinghaus_-0.87143_0.21500.png"	n/a	"Ebbinghaus"	"arrowleft"	"1230"	"TRUE"	"Ebbinghaus"	"-0.871430000"	"0.2150000000"	"1"	"64"
n/a	"html-keyboard-response"	"145"	"7913818"	"0.0-5.0-2.0-0.46"	"xbdh0a"	"563"	"1034"	"chrome"	"111.0.0"	"FALSE"	"Windows 10"	"60.93"	"048"	n/a	n/a	n/a	n/a	n/a	n/a	"fixation"	n/a	n/a	n/a	n/a	"NULL"	n/a	"NULL"	"NULL"	"NULL"	"<p style=\"color: black; font-size: 80px; padding-left: 10%; padding-right: 23%; padding-top: 16%; padding-bottom: 36%\">+</p>"	"1270"	n/a	n/a	n/a	n/a	n/a	n/a	n/a	n/a	n/a
n/a	"image-keyboard-response"	"146"	"7914511"	"0.0-5.0-2.0-1.46"	"xbdh0a"	"563"	"1034"	"chrome"	"111.0.0"	"FALSE"	"Windows 10"	"60.93"	"048"	n/a	n/a	n/a	n/a	n/a	n/a	"Trial"	n/a	n/a	n/a	"692"	"arrowleft"	n/a	"NULL"	"NULL"	"NULL"	"stimuli/Ebbinghaus_0.10000_0.11071.png"	n/a	"Ebbinghaus"	"arrowleft"	"1275"	"TRUE"	"Ebbinghaus"	"0.1000000000"	"0.1107100000"	"1"	"65"
n/a	"html-keyboard-response"	"147"	"7915564"	"0.0-5.0-2.0-0.47"	"xbdh0a"	"563"	"1034"	"chrome"	"111.0.0"	"FALSE"	"Windows 10"	"60.93"	"048"	n/a	n/a	n/a	n/a	n/a	n/a	"fixation"	n/a	n/a	n/a	n/a	"NULL"	n/a	"NULL"	"NULL"	"NULL"	"<p style=\"color: black; font-size: 80px; padding-left: 33%; padding-right: 37%; padding-top: 10%; padding-bottom: 25%\">+</p>"	"1038"	n/a	n/a	n/a	n/a	n/a	n/a	n/a	n/a	n/a
n/a	"image-keyboard-response"	"148"	"7916150"	"0.0-5.0-2.0-1.47"	"xbdh0a"	"563"	"1034"	"chrome"	"111.0.0"	"FALSE"	"Windows 10"	"60.93"	"048"	n/a	n/a	n/a	n/a	n/a	n/a	"Trial"	n/a	n/a	n/a	"585"	"arrowright"	n/a	"NULL"	"NULL"	"NULL"	"stimuli/Ebbinghaus_-0.61429_-0.11071.png"	n/a	"Ebbinghaus"	"arrowright"	"1053"	"TRUE"	"Ebbinghaus"	"-0.614290000"	"-0.110710000"	"1"	"66"
n/a	"html-keyboard-response"	"149"	"7917433"	"0.0-5.0-2.0-0.48"	"xbdh0a"	"563"	"1034"	"chrome"	"111.0.0"	"FALSE"	"Windows 10"	"60.93"	"048"	n/a	n/a	n/a	n/a	n/a	n/a	"fixation"	n/a	n/a	n/a	n/a	"NULL"	n/a	"NULL"	"NULL"	"NULL"	"<p style=\"color: black; font-size: 80px; padding-left: 19%; padding-right: 7%; padding-top: 25%; padding-bottom: 45%\">+</p>"	"1270"	n/a	n/a	n/a	n/a	n/a	n/a	n/a	n/a	n/a
n/a	"image-keyboard-response"	"150"	"7917937"	"0.0-5.0-2.0-1.48"	"xbdh0a"	"563"	"1034"	"chrome"	"111.0.0"	"FALSE"	"Windows 10"	"60.93"	"048"	n/a	n/a	n/a	n/a	n/a	n/a	"Trial"	n/a	n/a	n/a	"504"	"arrowleft"	n/a	"NULL"	"NULL"	"NULL"	"stimuli/Ebbinghaus_-0.1000_0.15857.png"	n/a	"Ebbinghaus"	"arrowleft"	"1283"	"TRUE"	"Ebbinghaus"	"-0.100000000"	"0.1585700000"	"1"	"67"
n/a	"html-keyboard-response"	"151"	"7919350"	"0.0-5.0-2.0-0.49"	"xbdh0a"	"563"	"1034"	"chrome"	"111.0.0"	"FALSE"	"Windows 10"	"60.93"	"048"	n/a	n/a	n/a	n/a	n/a	n/a	"fixation"	n/a	n/a	n/a	n/a	"NULL"	n/a	"NULL"	"NULL"	"NULL"	"<p style=\"color: black; font-size: 80px; padding-left: 9%; padding-right: 43%; padding-top: 26%; padding-bottom: 33%\">+</p>"	"1405"	n/a	n/a	n/a	n/a	n/a	n/a	n/a	n/a	n/a
n/a	"image-keyboard-response"	"152"	"7919905"	"0.0-5.0-2.0-1.49"	"xbdh0a"	"563"	"1034"	"chrome"	"111.0.0"	"FALSE"	"Windows 10"	"60.93"	"048"	n/a	n/a	n/a	n/a	n/a	n/a	"Trial"	n/a	n/a	n/a	"554"	"arrowleft"	n/a	"NULL"	"NULL"	"NULL"	"stimuli/Ebbinghaus_-0.61429_0.15857.png"	n/a	"Ebbinghaus"	"arrowleft"	"1413"	"TRUE"	"Ebbinghaus"	"-0.614290000"	"0.1585700000"	"1"	"68"
n/a	"html-keyboard-response"	"153"	"7921375"	"0.0-5.0-2.0-0.50"	"xbdh0a"	"563"	"1034"	"chrome"	"111.0.0"	"FALSE"	"Windows 10"	"60.93"	"048"	n/a	n/a	n/a	n/a	n/a	n/a	"fixation"	n/a	n/a	n/a	n/a	"NULL"	n/a	"NULL"	"NULL"	"NULL"	"<p style=\"color: black; font-size: 80px; padding-left: 47%; padding-right: 22%; padding-top: 33%; padding-bottom: 36%\">+</p>"	"1468"	n/a	n/a	n/a	n/a	n/a	n/a	n/a	n/a	n/a
n/a	"image-keyboard-response"	"154"	"7922199"	"0.0-5.0-2.0-1.50"	"xbdh0a"	"563"	"1034"	"chrome"	"111.0.0"	"FALSE"	"Windows 10"	"60.93"	"048"	n/a	n/a	n/a	n/a	n/a	n/a	"Trial"	n/a	n/a	n/a	"823"	"arrowleft"	n/a	"NULL"	"NULL"	"NULL"	"stimuli/Ebbinghaus_0.35714_0.11071.png"	n/a	"Ebbinghaus"	"arrowleft"	"1470"	"TRUE"	"Ebbinghaus"	"0.3571400000"	"0.1107100000"	"1"	"69"
n/a	"html-keyboard-response"	"155"	"7923413"	"0.0-5.0-2.0-0.51"	"xbdh0a"	"563"	"1034"	"chrome"	"111.0.0"	"FALSE"	"Windows 10"	"60.93"	"048"	n/a	n/a	n/a	n/a	n/a	n/a	"fixation"	n/a	n/a	n/a	n/a	"NULL"	n/a	"NULL"	"NULL"	"NULL"	"<p style=\"color: black; font-size: 80px; padding-left: 29%; padding-right: 19%; padding-top: 9%; padding-bottom: 45%\">+</p>"	"1207"	n/a	n/a	n/a	n/a	n/a	n/a	n/a	n/a	n/a
n/a	"image-keyboard-response"	"156"	"7923970"	"0.0-5.0-2.0-1.51"	"xbdh0a"	"563"	"1034"	"chrome"	"111.0.0"	"FALSE"	"Windows 10"	"60.93"	"048"	n/a	n/a	n/a	n/a	n/a	n/a	"Trial"	n/a	n/a	n/a	"555"	"arrowright"	n/a	"NULL"	"NULL"	"NULL"	"stimuli/Ebbinghaus_-0.35714_-0.2800.png"	n/a	"Ebbinghaus"	"arrowright"	"1214"	"TRUE"	"Ebbinghaus"	"-0.357140000"	"-0.280000000"	"1"	"70"
n/a	"html-keyboard-response"	"157"	"7925099"	"0.0-5.0-2.0-0.52"	"xbdh0a"	"563"	"1034"	"chrome"	"111.0.0"	"FALSE"	"Windows 10"	"60.93"	"048"	n/a	n/a	n/a	n/a	n/a	n/a	"fixation"	n/a	n/a	n/a	n/a	"NULL"	n/a	"NULL"	"NULL"	"NULL"	"<p style=\"color: black; font-size: 80px; padding-left: 32%; padding-right: 28%; padding-top: 11%; padding-bottom: 22%\">+</p>"	"1119"	n/a	n/a	n/a	n/a	n/a	n/a	n/a	n/a	n/a
n/a	"image-keyboard-response"	"158"	"7925541"	"0.0-5.0-2.0-1.52"	"xbdh0a"	"563"	"1034"	"chrome"	"111.0.0"	"FALSE"	"Windows 10"	"60.93"	"048"	n/a	n/a	n/a	n/a	n/a	n/a	"Trial"	n/a	n/a	n/a	"442"	"arrowleft"	n/a	"NULL"	"NULL"	"NULL"	"stimuli/Ebbinghaus_0.87143_0.11071.png"	n/a	"Ebbinghaus"	"arrowleft"	"1129"	"TRUE"	"Ebbinghaus"	"0.8714300000"	"0.1107100000"	"1"	"71"
n/a	"html-keyboard-response"	"159"	"7926636"	"0.0-5.0-2.0-0.53"	"xbdh0a"	"563"	"1034"	"chrome"	"111.0.0"	"FALSE"	"Windows 10"	"60.93"	"048"	n/a	n/a	n/a	n/a	n/a	n/a	"fixation"	n/a	n/a	n/a	n/a	"NULL"	n/a	"NULL"	"NULL"	"NULL"	"<p style=\"color: black; font-size: 80px; padding-left: 43%; padding-right: 22%; padding-top: 25%; padding-bottom: 40%\">+</p>"	"1090"	n/a	n/a	n/a	n/a	n/a	n/a	n/a	n/a	n/a
n/a	"image-keyboard-response"	"160"	"7927121"	"0.0-5.0-2.0-1.53"	"xbdh0a"	"563"	"1034"	"chrome"	"111.0.0"	"FALSE"	"Windows 10"	"60.93"	"048"	n/a	n/a	n/a	n/a	n/a	n/a	"Trial"	n/a	n/a	n/a	"484"	"arrowleft"	n/a	"NULL"	"NULL"	"NULL"	"stimuli/Ebbinghaus_0.10000_0.15857.png"	n/a	"Ebbinghaus"	"arrowleft"	"1095"	"TRUE"	"Ebbinghaus"	"0.1000000000"	"0.1585700000"	"1"	"72"
n/a	"html-keyboard-response"	"161"	"7928260"	"0.0-5.0-2.0-0.54"	"xbdh0a"	"563"	"1034"	"chrome"	"111.0.0"	"FALSE"	"Windows 10"	"60.93"	"048"	n/a	n/a	n/a	n/a	n/a	n/a	"fixation"	n/a	n/a	n/a	n/a	"NULL"	n/a	"NULL"	"NULL"	"NULL"	"<p style=\"color: black; font-size: 80px; padding-left: 10%; padding-right: 1%; padding-top: 18%; padding-bottom: 27%\">+</p>"	"1123"	n/a	n/a	n/a	n/a	n/a	n/a	n/a	n/a	n/a
n/a	"image-keyboard-response"	"162"	"7928792"	"0.0-5.0-2.0-1.54"	"xbdh0a"	"563"	"1034"	"chrome"	"111.0.0"	"FALSE"	"Windows 10"	"60.93"	"048"	n/a	n/a	n/a	n/a	n/a	n/a	"Trial"	n/a	n/a	n/a	"532"	"arrowright"	n/a	"NULL"	"NULL"	"NULL"	"stimuli/Ebbinghaus_-0.61429_-0.2150.png"	n/a	"Ebbinghaus"	"arrowright"	"1139"	"TRUE"	"Ebbinghaus"	"-0.614290000"	"-0.215000000"	"1"	"73"
n/a	"html-keyboard-response"	"163"	"7929815"	"0.0-5.0-2.0-0.55"	"xbdh0a"	"563"	"1034"	"chrome"	"111.0.0"	"FALSE"	"Windows 10"	"60.93"	"048"	n/a	n/a	n/a	n/a	n/a	n/a	"fixation"	n/a	n/a	n/a	n/a	"NULL"	n/a	"NULL"	"NULL"	"NULL"	"<p style=\"color: black; font-size: 80px; padding-left: 2%; padding-right: 3%; padding-top: 6%; padding-bottom: 24%\">+</p>"	"1021"	n/a	n/a	n/a	n/a	n/a	n/a	n/a	n/a	n/a
n/a	"image-keyboard-response"	"164"	"7930292"	"0.0-5.0-2.0-1.55"	"xbdh0a"	"563"	"1034"	"chrome"	"111.0.0"	"FALSE"	"Windows 10"	"60.93"	"048"	n/a	n/a	n/a	n/a	n/a	n/a	"Trial"	n/a	n/a	n/a	"476"	"arrowleft"	n/a	"NULL"	"NULL"	"NULL"	"stimuli/Ebbinghaus_0.87143_0.15857.png"	n/a	"Ebbinghaus"	"arrowleft"	"1023"	"TRUE"	"Ebbinghaus"	"0.8714300000"	"0.1585700000"	"1"	"74"
n/a	"html-keyboard-response"	"165"	"7931782"	"0.0-5.0-2.0-0.56"	"xbdh0a"	"563"	"1034"	"chrome"	"111.0.0"	"FALSE"	"Windows 10"	"60.93"	"048"	n/a	n/a	n/a	n/a	n/a	n/a	"fixation"	n/a	n/a	n/a	n/a	"NULL"	n/a	"NULL"	"NULL"	"NULL"	"<p style=\"color: black; font-size: 80px; padding-left: 3%; padding-right: 9%; padding-top: 10%; padding-bottom: 7%\">+</p>"	"1487"	n/a	n/a	n/a	n/a	n/a	n/a	n/a	n/a	n/a
n/a	"image-keyboard-response"	"166"	"7932309"	"0.0-5.0-2.0-1.56"	"xbdh0a"	"563"	"1034"	"chrome"	"111.0.0"	"FALSE"	"Windows 10"	"60.93"	"048"	n/a	n/a	n/a	n/a	n/a	n/a	"Trial"	n/a	n/a	n/a	"526"	"arrowright"	n/a	"NULL"	"NULL"	"NULL"	"stimuli/Ebbinghaus_-0.87143_-0.2800.png"	n/a	"Ebbinghaus"	"arrowright"	"1490"	"TRUE"	"Ebbinghaus"	"-0.871430000"	"-0.280000000"	"1"	"75"
n/a	"html-keyboard-response"	"167"	"7933377"	"0.0-5.0-2.0-0.57"	"xbdh0a"	"563"	"1034"	"chrome"	"111.0.0"	"FALSE"	"Windows 10"	"60.93"	"048"	n/a	n/a	n/a	n/a	n/a	n/a	"fixation"	n/a	n/a	n/a	n/a	"NULL"	n/a	"NULL"	"NULL"	"NULL"	"<p style=\"color: black; font-size: 80px; padding-left: 33%; padding-right: 23%; padding-top: 49%; padding-bottom: 36%\">+</p>"	"1054"	n/a	n/a	n/a	n/a	n/a	n/a	n/a	n/a	n/a
n/a	"image-keyboard-response"	"168"	"7934092"	"0.0-5.0-2.0-1.57"	"xbdh0a"	"563"	"1034"	"chrome"	"111.0.0"	"FALSE"	"Windows 10"	"60.93"	"048"	n/a	n/a	n/a	n/a	n/a	n/a	"Trial"	n/a	n/a	n/a	"714"	"arrowleft"	n/a	"NULL"	"NULL"	"NULL"	"stimuli/Ebbinghaus_0.87143_-0.2150.png"	n/a	"Ebbinghaus"	"arrowright"	"1068"	"FALSE"	"Ebbinghaus"	"0.8714300000"	"-0.215000000"	"1"	"76"
n/a	"html-keyboard-response"	"169"	"7935467"	"0.0-5.0-2.0-0.58"	"xbdh0a"	"563"	"1034"	"chrome"	"111.0.0"	"FALSE"	"Windows 10"	"60.93"	"048"	n/a	n/a	n/a	n/a	n/a	n/a	"fixation"	n/a	n/a	n/a	n/a	"NULL"	n/a	"NULL"	"NULL"	"NULL"	"<p style=\"color: black; font-size: 80px; padding-left: 20%; padding-right: 36%; padding-top: 27%; padding-bottom: 50%\">+</p>"	"1367"	n/a	n/a	n/a	n/a	n/a	n/a	n/a	n/a	n/a
n/a	"image-keyboard-response"	"170"	"7935992"	"0.0-5.0-2.0-1.58"	"xbdh0a"	"563"	"1034"	"chrome"	"111.0.0"	"FALSE"	"Windows 10"	"60.93"	"048"	n/a	n/a	n/a	n/a	n/a	n/a	"Trial"	n/a	n/a	n/a	"522"	"arrowleft"	n/a	"NULL"	"NULL"	"NULL"	"stimuli/Ebbinghaus_0.61429_0.21500.png"	n/a	"Ebbinghaus"	"arrowleft"	"1375"	"TRUE"	"Ebbinghaus"	"0.6142900000"	"0.2150000000"	"1"	"77"
n/a	"html-keyboard-response"	"171"	"7937083"	"0.0-5.0-2.0-0.59"	"xbdh0a"	"563"	"1034"	"chrome"	"111.0.0"	"FALSE"	"Windows 10"	"60.93"	"048"	n/a	n/a	n/a	n/a	n/a	n/a	"fixation"	n/a	n/a	n/a	n/a	"NULL"	n/a	"NULL"	"NULL"	"NULL"	"<p style=\"color: black; font-size: 80px; padding-left: 32%; padding-right: 34%; padding-top: 1%; padding-bottom: 15%\">+</p>"	"1079"	n/a	n/a	n/a	n/a	n/a	n/a	n/a	n/a	n/a
n/a	"image-keyboard-response"	"172"	"7937601"	"0.0-5.0-2.0-1.59"	"xbdh0a"	"563"	"1034"	"chrome"	"111.0.0"	"FALSE"	"Windows 10"	"60.93"	"048"	n/a	n/a	n/a	n/a	n/a	n/a	"Trial"	n/a	n/a	n/a	"517"	"arrowright"	n/a	"NULL"	"NULL"	"NULL"	"stimuli/Ebbinghaus_0.35714_-0.2800.png"	n/a	"Ebbinghaus"	"arrowright"	"1091"	"TRUE"	"Ebbinghaus"	"0.3571400000"	"-0.280000000"	"1"	"78"
n/a	"html-keyboard-response"	"173"	"7938935"	"0.0-5.0-2.0-0.60"	"xbdh0a"	"563"	"1034"	"chrome"	"111.0.0"	"FALSE"	"Windows 10"	"60.93"	"048"	n/a	n/a	n/a	n/a	n/a	n/a	"fixation"	n/a	n/a	n/a	n/a	"NULL"	n/a	"NULL"	"NULL"	"NULL"	"<p style=\"color: black; font-size: 80px; padding-left: 10%; padding-right: 14%; padding-top: 15%; padding-bottom: 44%\">+</p>"	"1318"	n/a	n/a	n/a	n/a	n/a	n/a	n/a	n/a	n/a
n/a	"image-keyboard-response"	"174"	"7939573"	"0.0-5.0-2.0-1.60"	"xbdh0a"	"563"	"1034"	"chrome"	"111.0.0"	"FALSE"	"Windows 10"	"60.93"	"048"	n/a	n/a	n/a	n/a	n/a	n/a	"Trial"	n/a	n/a	n/a	"638"	"arrowleft"	n/a	"NULL"	"NULL"	"NULL"	"stimuli/Ebbinghaus_0.61429_0.11071.png"	n/a	"Ebbinghaus"	"arrowleft"	"1334"	"TRUE"	"Ebbinghaus"	"0.6142900000"	"0.1107100000"	"1"	"79"
n/a	"html-keyboard-response"	"175"	"7940945"	"0.0-5.0-2.0-0.61"	"xbdh0a"	"563"	"1034"	"chrome"	"111.0.0"	"FALSE"	"Windows 10"	"60.93"	"048"	n/a	n/a	n/a	n/a	n/a	n/a	"fixation"	n/a	n/a	n/a	n/a	"NULL"	n/a	"NULL"	"NULL"	"NULL"	"<p style=\"color: black; font-size: 80px; padding-left: 43%; padding-right: 3%; padding-top: 32%; padding-bottom: 33%\">+</p>"	"1362"	n/a	n/a	n/a	n/a	n/a	n/a	n/a	n/a	n/a
n/a	"image-keyboard-response"	"176"	"7941429"	"0.0-5.0-2.0-1.61"	"xbdh0a"	"563"	"1034"	"chrome"	"111.0.0"	"FALSE"	"Windows 10"	"60.93"	"048"	n/a	n/a	n/a	n/a	n/a	n/a	"Trial"	n/a	n/a	n/a	"482"	"arrowleft"	n/a	"NULL"	"NULL"	"NULL"	"stimuli/Ebbinghaus_0.35714_0.28000.png"	n/a	"Ebbinghaus"	"arrowleft"	"1372"	"TRUE"	"Ebbinghaus"	"0.3571400000"	"0.2800000000"	"1"	"80"
n/a	"html-keyboard-response"	"177"	"7942719"	"0.0-5.0-2.0-0.62"	"xbdh0a"	"563"	"1034"	"chrome"	"111.0.0"	"FALSE"	"Windows 10"	"60.93"	"048"	n/a	n/a	n/a	n/a	n/a	n/a	"fixation"	n/a	n/a	n/a	n/a	"NULL"	n/a	"NULL"	"NULL"	"NULL"	"<p style=\"color: black; font-size: 80px; padding-left: 44%; padding-right: 37%; padding-top: 21%; padding-bottom: 8%\">+</p>"	"1281"	n/a	n/a	n/a	n/a	n/a	n/a	n/a	n/a	n/a
n/a	"image-keyboard-response"	"178"	"7943219"	"0.0-5.0-2.0-1.62"	"xbdh0a"	"563"	"1034"	"chrome"	"111.0.0"	"FALSE"	"Windows 10"	"60.93"	"048"	n/a	n/a	n/a	n/a	n/a	n/a	"Trial"	n/a	n/a	n/a	"499"	"arrowright"	n/a	"NULL"	"NULL"	"NULL"	"stimuli/Ebbinghaus_0.61429_-0.15857.png"	n/a	"Ebbinghaus"	"arrowright"	"1290"	"TRUE"	"Ebbinghaus"	"0.6142900000"	"-0.158570000"	"1"	"81"
n/a	"html-keyboard-response"	"179"	"7944493"	"0.0-5.0-2.0-0.63"	"xbdh0a"	"563"	"1034"	"chrome"	"111.0.0"	"FALSE"	"Windows 10"	"60.93"	"048"	n/a	n/a	n/a	n/a	n/a	n/a	"fixation"	n/a	n/a	n/a	n/a	"NULL"	n/a	"NULL"	"NULL"	"NULL"	"<p style=\"color: black; font-size: 80px; padding-left: 16%; padding-right: 28%; padding-top: 16%; padding-bottom: 31%\">+</p>"	"1259"	n/a	n/a	n/a	n/a	n/a	n/a	n/a	n/a	n/a
n/a	"image-keyboard-response"	"180"	"7944954"	"0.0-5.0-2.0-1.63"	"xbdh0a"	"563"	"1034"	"chrome"	"111.0.0"	"FALSE"	"Windows 10"	"60.93"	"048"	n/a	n/a	n/a	n/a	n/a	n/a	"Trial"	n/a	n/a	n/a	"460"	"arrowleft"	n/a	"NULL"	"NULL"	"NULL"	"stimuli/Ebbinghaus_-0.1000_0.28000.png"	n/a	"Ebbinghaus"	"arrowleft"	"1274"	"TRUE"	"Ebbinghaus"	"-0.100000000"	"0.2800000000"	"1"	"82"
n/a	"html-button-response"	"181"	"7957449"	"0.0-5.0-3.0"	"xbdh0a"	"563"	"1034"	"chrome"	"111.0.0"	"FALSE"	"Windows 10"	"60.93"	"048"	n/a	n/a	n/a	n/a	n/a	n/a	"block_results"	n/a	n/a	n/a	"12493"	"0"	n/a	"NULL"	"NULL"	"NULL"	"<p>Your score for this illusion is <p style=\"color: black; font-size: 48px; font-weight: bold;\">82.4 %</p><hr><p>Can you do better in the next illusion?</p>"	n/a	n/a	n/a	n/a	n/a	n/a	n/a	n/a	n/a	n/a
"TRUE"	"preload"	"182"	"7957906"	"0.0-6.0-0.0"	"xbdh0a"	"563"	"1034"	"chrome"	"111.0.0"	"FALSE"	"Windows 10"	"60.93"	"048"	n/a	n/a	n/a	n/a	n/a	n/a	n/a	n/a	n/a	n/a	n/a	"NULL"	"FALSE"	"list()"	"list()"	"list()"	n/a	n/a	n/a	n/a	n/a	n/a	n/a	n/a	n/a	n/a	n/a
n/a	"html-keyboard-response"	"183"	"7962111"	"0.0-6.0-1.0"	"xbdh0a"	"563"	"1034"	"chrome"	"111.0.0"	"FALSE"	"Windows 10"	"60.93"	"048"	n/a	n/a	n/a	n/a	n/a	n/a	n/a	n/a	n/a	n/a	"4204"	"enter"	n/a	"NULL"	"NULL"	"NULL"	"<p><b>Part 2/6</b></p><p>In this part, two horizontal red lines will appear one above the other.</p><p>Your task is to select which <b>line is longer</b> in length as fast as you can, without making errors.</p><p>Don't get distracted by the surrounding black arrows at the end of the red lines!</p><p>Press <b>the UP or the DOWN arrow</b> to indicate where is the longer <b>red line.</b></p><div style='float: center'><img src='materials/instructions/MullerLyer_Demo.png' height='300'></img><p><img src='utils/answer/answer_updown_keyboard.PNG' height='150'></img></p><p class='small'>In this example, the correct answer is the <b>UP arrow</b>.</p></div><p>Are you ready? <b>Press ENTER to start</b></p>"	n/a	n/a	n/a	n/a	n/a	n/a	n/a	n/a	n/a	n/a
n/a	"html-keyboard-response"	"184"	"7963681"	"0.0-6.0-2.0-0.0"	"xbdh0a"	"563"	"1034"	"chrome"	"111.0.0"	"FALSE"	"Windows 10"	"60.93"	"048"	n/a	n/a	n/a	n/a	n/a	n/a	"fixation"	n/a	n/a	n/a	n/a	"NULL"	n/a	"NULL"	"NULL"	"NULL"	"<p style=\"color: black; font-size: 80px; padding-left: 47%; padding-right: 5%; padding-top: 33%; padding-bottom: 33%\">+</p>"	"1042"	n/a	n/a	n/a	n/a	n/a	n/a	n/a	n/a	n/a
n/a	"image-keyboard-response"	"185"	"7964188"	"0.0-6.0-2.0-1.0"	"xbdh0a"	"563"	"1034"	"chrome"	"111.0.0"	"FALSE"	"Windows 10"	"60.93"	"048"	n/a	n/a	n/a	n/a	n/a	n/a	"Trial"	n/a	n/a	n/a	"506"	"arrowdown"	n/a	"NULL"	"NULL"	"NULL"	"stimuli/MullerLyer_8.21429_-0.3500.png"	n/a	"MullerLyer"	"arrowdown"	"1570"	"TRUE"	"MullerLyer"	"8.2142900000"	"-0.350000000"	"2"	"1"
n/a	"html-keyboard-response"	"186"	"7965508"	"0.0-6.0-2.0-0.1"	"xbdh0a"	"563"	"1034"	"chrome"	"111.0.0"	"FALSE"	"Windows 10"	"60.93"	"048"	n/a	n/a	n/a	n/a	n/a	n/a	"fixation"	n/a	n/a	n/a	n/a	"NULL"	n/a	"NULL"	"NULL"	"NULL"	"<p style=\"color: black; font-size: 80px; padding-left: 26%; padding-right: 43%; padding-top: 31%; padding-bottom: 32%\">+</p>"	"1311"	n/a	n/a	n/a	n/a	n/a	n/a	n/a	n/a	n/a
n/a	"image-keyboard-response"	"187"	"7966427"	"0.0-6.0-2.0-1.1"	"xbdh0a"	"563"	"1034"	"chrome"	"111.0.0"	"FALSE"	"Windows 10"	"60.93"	"048"	n/a	n/a	n/a	n/a	n/a	n/a	"Trial"	n/a	n/a	n/a	"919"	"arrowdown"	n/a	"NULL"	"NULL"	"NULL"	"stimuli/MullerLyer_8.21429_0.07627.png"	n/a	"MullerLyer"	"arrowup"	"1320"	"FALSE"	"MullerLyer"	"8.2142900000"	"0.0762700000"	"2"	"2"
n/a	"html-keyboard-response"	"188"	"7967642"	"0.0-6.0-2.0-0.2"	"xbdh0a"	"563"	"1034"	"chrome"	"111.0.0"	"FALSE"	"Windows 10"	"60.93"	"048"	n/a	n/a	n/a	n/a	n/a	n/a	"fixation"	n/a	n/a	n/a	n/a	"NULL"	n/a	"NULL"	"NULL"	"NULL"	"<p style=\"color: black; font-size: 80px; padding-left: 45%; padding-right: 28%; padding-top: 34%; padding-bottom: 45%\">+</p>"	"1206"	n/a	n/a	n/a	n/a	n/a	n/a	n/a	n/a	n/a
n/a	"image-keyboard-response"	"189"	"7968224"	"0.0-6.0-2.0-1.2"	"xbdh0a"	"563"	"1034"	"chrome"	"111.0.0"	"FALSE"	"Windows 10"	"60.93"	"048"	n/a	n/a	n/a	n/a	n/a	n/a	"Trial"	n/a	n/a	n/a	"582"	"arrowup"	n/a	"NULL"	"NULL"	"NULL"	"stimuli/MullerLyer_2.30000_0.35000.png"	n/a	"MullerLyer"	"arrowup"	"1215"	"TRUE"	"MullerLyer"	"2.3000000000"	"0.3500000000"	"2"	"3"
n/a	"html-keyboard-response"	"190"	"7969482"	"0.0-6.0-2.0-0.3"	"xbdh0a"	"563"	"1034"	"chrome"	"111.0.0"	"FALSE"	"Windows 10"	"60.93"	"048"	n/a	n/a	n/a	n/a	n/a	n/a	"fixation"	n/a	n/a	n/a	n/a	"NULL"	n/a	"NULL"	"NULL"	"NULL"	"<p style=\"color: black; font-size: 80px; padding-left: 6%; padding-right: 30%; padding-top: 16%; padding-bottom: 21%\">+</p>"	"1256"	n/a	n/a	n/a	n/a	n/a	n/a	n/a	n/a	n/a
n/a	"image-keyboard-response"	"191"	"7970001"	"0.0-6.0-2.0-1.3"	"xbdh0a"	"563"	"1034"	"chrome"	"111.0.0"	"FALSE"	"Windows 10"	"60.93"	"048"	n/a	n/a	n/a	n/a	n/a	n/a	"Trial"	n/a	n/a	n/a	"518"	"arrowup"	n/a	"NULL"	"NULL"	"NULL"	"stimuli/MullerLyer_8.21429_0.35000.png"	n/a	"MullerLyer"	"arrowup"	"1258"	"TRUE"	"MullerLyer"	"8.2142900000"	"0.3500000000"	"2"	"4"
n/a	"html-keyboard-response"	"192"	"7971272"	"0.0-6.0-2.0-0.4"	"xbdh0a"	"563"	"1034"	"chrome"	"111.0.0"	"FALSE"	"Windows 10"	"60.93"	"048"	n/a	n/a	n/a	n/a	n/a	n/a	"fixation"	n/a	n/a	n/a	n/a	"NULL"	n/a	"NULL"	"NULL"	"NULL"	"<p style=\"color: black; font-size: 80px; padding-left: 47%; padding-right: 15%; padding-top: 49%; padding-bottom: 33%\">+</p>"	"1264"	n/a	n/a	n/a	n/a	n/a	n/a	n/a	n/a	n/a
n/a	"image-keyboard-response"	"193"	"7971867"	"0.0-6.0-2.0-1.4"	"xbdh0a"	"563"	"1034"	"chrome"	"111.0.0"	"FALSE"	"Windows 10"	"60.93"	"048"	n/a	n/a	n/a	n/a	n/a	n/a	"Trial"	n/a	n/a	n/a	"594"	"arrowup"	n/a	"NULL"	"NULL"	"NULL"	"stimuli/MullerLyer_-8.21429_0.14541.png"	n/a	"MullerLyer"	"arrowup"	"1271"	"TRUE"	"MullerLyer"	"-8.214290000"	"0.1454100000"	"2"	"5"
n/a	"html-keyboard-response"	"194"	"7972991"	"0.0-6.0-2.0-0.5"	"xbdh0a"	"563"	"1034"	"chrome"	"111.0.0"	"FALSE"	"Windows 10"	"60.93"	"048"	n/a	n/a	n/a	n/a	n/a	n/a	"fixation"	n/a	n/a	n/a	n/a	"NULL"	n/a	"NULL"	"NULL"	"NULL"	"<p style=\"color: black; font-size: 80px; padding-left: 27%; padding-right: 16%; padding-top: 19%; padding-bottom: 40%\">+</p>"	"1120"	n/a	n/a	n/a	n/a	n/a	n/a	n/a	n/a	n/a
n/a	"image-keyboard-response"	"195"	"7973437"	"0.0-6.0-2.0-1.5"	"xbdh0a"	"563"	"1034"	"chrome"	"111.0.0"	"FALSE"	"Windows 10"	"60.93"	"048"	n/a	n/a	n/a	n/a	n/a	n/a	"Trial"	n/a	n/a	n/a	"445"	"arrowup"	n/a	"NULL"	"NULL"	"NULL"	"stimuli/MullerLyer_-8.21429_0.35000.png"	n/a	"MullerLyer"	"arrowup"	"1124"	"TRUE"	"MullerLyer"	"-8.214290000"	"0.3500000000"	"2"	"6"
n/a	"html-keyboard-response"	"196"	"7974550"	"0.0-6.0-2.0-0.6"	"xbdh0a"	"563"	"1034"	"chrome"	"111.0.0"	"FALSE"	"Windows 10"	"60.93"	"048"	n/a	n/a	n/a	n/a	n/a	n/a	"fixation"	n/a	n/a	n/a	n/a	"NULL"	n/a	"NULL"	"NULL"	"NULL"	"<p style=\"color: black; font-size: 80px; padding-left: 30%; padding-right: 24%; padding-top: 28%; padding-bottom: 50%\">+</p>"	"1107"	n/a	n/a	n/a	n/a	n/a	n/a	n/a	n/a	n/a
n/a	"image-keyboard-response"	"197"	"7975074"	"0.0-6.0-2.0-1.6"	"xbdh0a"	"563"	"1034"	"chrome"	"111.0.0"	"FALSE"	"Windows 10"	"60.93"	"048"	n/a	n/a	n/a	n/a	n/a	n/a	"Trial"	n/a	n/a	n/a	"523"	"arrowdown"	n/a	"NULL"	"NULL"	"NULL"	"stimuli/MullerLyer_8.21429_0.14541.png"	n/a	"MullerLyer"	"arrowup"	"1113"	"FALSE"	"MullerLyer"	"8.2142900000"	"0.1454100000"	"2"	"7"
n/a	"html-keyboard-response"	"198"	"7976231"	"0.0-6.0-2.0-0.7"	"xbdh0a"	"563"	"1034"	"chrome"	"111.0.0"	"FALSE"	"Windows 10"	"60.93"	"048"	n/a	n/a	n/a	n/a	n/a	n/a	"fixation"	n/a	n/a	n/a	n/a	"NULL"	n/a	"NULL"	"NULL"	"NULL"	"<p style=\"color: black; font-size: 80px; padding-left: 46%; padding-right: 16%; padding-top: 50%; padding-bottom: 9%\">+</p>"	"1143"	n/a	n/a	n/a	n/a	n/a	n/a	n/a	n/a	n/a
n/a	"image-keyboard-response"	"199"	"7976708"	"0.0-6.0-2.0-1.7"	"xbdh0a"	"563"	"1034"	"chrome"	"111.0.0"	"FALSE"	"Windows 10"	"60.93"	"048"	n/a	n/a	n/a	n/a	n/a	n/a	"Trial"	n/a	n/a	n/a	"476"	"arrowup"	n/a	"NULL"	"NULL"	"NULL"	"stimuli/MullerLyer_-14.12857_0.35000.png"	n/a	"MullerLyer"	"arrowup"	"1157"	"TRUE"	"MullerLyer"	"-14.12857000"	"0.3500000000"	"2"	"8"
n/a	"html-keyboard-response"	"200"	"7977881"	"0.0-6.0-2.0-0.8"	"xbdh0a"	"563"	"1034"	"chrome"	"111.0.0"	"FALSE"	"Windows 10"	"60.93"	"048"	n/a	n/a	n/a	n/a	n/a	n/a	"fixation"	n/a	n/a	n/a	n/a	"NULL"	n/a	"NULL"	"NULL"	"NULL"	"<p style=\"color: black; font-size: 80px; padding-left: 34%; padding-right: 34%; padding-top: 22%; padding-bottom: 27%\">+</p>"	"1156"	n/a	n/a	n/a	n/a	n/a	n/a	n/a	n/a	n/a
n/a	"image-keyboard-response"	"201"	"7978331"	"0.0-6.0-2.0-1.8"	"xbdh0a"	"563"	"1034"	"chrome"	"111.0.0"	"FALSE"	"Windows 10"	"60.93"	"048"	n/a	n/a	n/a	n/a	n/a	n/a	"Trial"	n/a	n/a	n/a	"449"	"arrowdown"	n/a	"NULL"	"NULL"	"NULL"	"stimuli/MullerLyer_-14.12857_-0.3500.png"	n/a	"MullerLyer"	"arrowdown"	"1173"	"TRUE"	"MullerLyer"	"-14.12857000"	"-0.350000000"	"2"	"9"
n/a	"html-keyboard-response"	"202"	"7979708"	"0.0-6.0-2.0-0.9"	"xbdh0a"	"563"	"1034"	"chrome"	"111.0.0"	"FALSE"	"Windows 10"	"60.93"	"048"	n/a	n/a	n/a	n/a	n/a	n/a	"fixation"	n/a	n/a	n/a	n/a	"NULL"	n/a	"NULL"	"NULL"	"NULL"	"<p style=\"color: black; font-size: 80px; padding-left: 5%; padding-right: 43%; padding-top: 18%; padding-bottom: 13%\">+</p>"	"1370"	n/a	n/a	n/a	n/a	n/a	n/a	n/a	n/a	n/a
n/a	"image-keyboard-response"	"203"	"7980189"	"0.0-6.0-2.0-1.9"	"xbdh0a"	"563"	"1034"	"chrome"	"111.0.0"	"FALSE"	"Windows 10"	"60.93"	"048"	n/a	n/a	n/a	n/a	n/a	n/a	"Trial"	n/a	n/a	n/a	"480"	"arrowdown"	n/a	"NULL"	"NULL"	"NULL"	"stimuli/MullerLyer_-8.21429_-0.14541.png"	n/a	"MullerLyer"	"arrowdown"	"1377"	"TRUE"	"MullerLyer"	"-8.214290000"	"-0.145410000"	"2"	"10"
n/a	"html-keyboard-response"	"204"	"7981227"	"0.0-6.0-2.0-0.10"	"xbdh0a"	"563"	"1034"	"chrome"	"111.0.0"	"FALSE"	"Windows 10"	"60.93"	"048"	n/a	n/a	n/a	n/a	n/a	n/a	"fixation"	n/a	n/a	n/a	n/a	"NULL"	n/a	"NULL"	"NULL"	"NULL"	"<p style=\"color: black; font-size: 80px; padding-left: 15%; padding-right: 4%; padding-top: 47%; padding-bottom: 0%\">+</p>"	"1033"	n/a	n/a	n/a	n/a	n/a	n/a	n/a	n/a	n/a
n/a	"image-keyboard-response"	"205"	"7981723"	"0.0-6.0-2.0-1.10"	"xbdh0a"	"563"	"1034"	"chrome"	"111.0.0"	"FALSE"	"Windows 10"	"60.93"	"048"	n/a	n/a	n/a	n/a	n/a	n/a	"Trial"	n/a	n/a	n/a	"496"	"arrowup"	n/a	"NULL"	"NULL"	"NULL"	"stimuli/MullerLyer_14.12857_-0.14541.png"	n/a	"MullerLyer"	"arrowdown"	"1038"	"FALSE"	"MullerLyer"	"14.128570000"	"-0.145410000"	"2"	"11"
n/a	"html-keyboard-response"	"206"	"7983022"	"0.0-6.0-2.0-0.11"	"xbdh0a"	"563"	"1034"	"chrome"	"111.0.0"	"FALSE"	"Windows 10"	"60.93"	"048"	n/a	n/a	n/a	n/a	n/a	n/a	"fixation"	n/a	n/a	n/a	n/a	"NULL"	n/a	"NULL"	"NULL"	"NULL"	"<p style=\"color: black; font-size: 80px; padding-left: 8%; padding-right: 33%; padding-top: 27%; padding-bottom: 21%\">+</p>"	"1286"	n/a	n/a	n/a	n/a	n/a	n/a	n/a	n/a	n/a
n/a	"image-keyboard-response"	"207"	"7983529"	"0.0-6.0-2.0-1.11"	"xbdh0a"	"563"	"1034"	"chrome"	"111.0.0"	"FALSE"	"Windows 10"	"60.93"	"048"	n/a	n/a	n/a	n/a	n/a	n/a	"Trial"	n/a	n/a	n/a	"507"	"arrowup"	n/a	"NULL"	"NULL"	"NULL"	"stimuli/MullerLyer_-20.04286_0.23665.png"	n/a	"MullerLyer"	"arrowup"	"1299"	"TRUE"	"MullerLyer"	"-20.04286000"	"0.2366500000"	"2"	"12"
n/a	"html-keyboard-response"	"208"	"7984789"	"0.0-6.0-2.0-0.12"	"xbdh0a"	"563"	"1034"	"chrome"	"111.0.0"	"FALSE"	"Windows 10"	"60.93"	"048"	n/a	n/a	n/a	n/a	n/a	n/a	"fixation"	n/a	n/a	n/a	n/a	"NULL"	n/a	"NULL"	"NULL"	"NULL"	"<p style=\"color: black; font-size: 80px; padding-left: 13%; padding-right: 28%; padding-top: 24%; padding-bottom: 36%\">+</p>"	"1246"	n/a	n/a	n/a	n/a	n/a	n/a	n/a	n/a	n/a
n/a	"image-keyboard-response"	"209"	"7985333"	"0.0-6.0-2.0-1.12"	"xbdh0a"	"563"	"1034"	"chrome"	"111.0.0"	"FALSE"	"Windows 10"	"60.93"	"048"	n/a	n/a	n/a	n/a	n/a	n/a	"Trial"	n/a	n/a	n/a	"543"	"arrowdown"	n/a	"NULL"	"NULL"	"NULL"	"stimuli/MullerLyer_2.30000_-0.23665.png"	n/a	"MullerLyer"	"arrowdown"	"1260"	"TRUE"	"MullerLyer"	"2.3000000000"	"-0.236650000"	"2"	"13"
n/a	"html-keyboard-response"	"210"	"7986713"	"0.0-6.0-2.0-0.13"	"xbdh0a"	"563"	"1034"	"chrome"	"111.0.0"	"FALSE"	"Windows 10"	"60.93"	"048"	n/a	n/a	n/a	n/a	n/a	n/a	"fixation"	n/a	n/a	n/a	n/a	"NULL"	n/a	"NULL"	"NULL"	"NULL"	"<p style=\"color: black; font-size: 80px; padding-left: 7%; padding-right: 22%; padding-top: 16%; padding-bottom: 11%\">+</p>"	"1370"	n/a	n/a	n/a	n/a	n/a	n/a	n/a	n/a	n/a
n/a	"image-keyboard-response"	"211"	"7987141"	"0.0-6.0-2.0-1.13"	"xbdh0a"	"563"	"1034"	"chrome"	"111.0.0"	"FALSE"	"Windows 10"	"60.93"	"048"	n/a	n/a	n/a	n/a	n/a	n/a	"Trial"	n/a	n/a	n/a	"427"	"arrowdown"	n/a	"NULL"	"NULL"	"NULL"	"stimuli/MullerLyer_-8.21429_-0.3500.png"	n/a	"MullerLyer"	"arrowdown"	"1380"	"TRUE"	"MullerLyer"	"-8.214290000"	"-0.350000000"	"2"	"14"
n/a	"html-keyboard-response"	"212"	"7988255"	"0.0-6.0-2.0-0.14"	"xbdh0a"	"563"	"1034"	"chrome"	"111.0.0"	"FALSE"	"Windows 10"	"60.93"	"048"	n/a	n/a	n/a	n/a	n/a	n/a	"fixation"	n/a	n/a	n/a	n/a	"NULL"	n/a	"NULL"	"NULL"	"NULL"	"<p style=\"color: black; font-size: 80px; padding-left: 44%; padding-right: 2%; padding-top: 15%; padding-bottom: 38%\">+</p>"	"1112"	n/a	n/a	n/a	n/a	n/a	n/a	n/a	n/a	n/a
n/a	"image-keyboard-response"	"213"	"7988845"	"0.0-6.0-2.0-1.14"	"xbdh0a"	"563"	"1034"	"chrome"	"111.0.0"	"FALSE"	"Windows 10"	"60.93"	"048"	n/a	n/a	n/a	n/a	n/a	n/a	"Trial"	n/a	n/a	n/a	"589"	"arrowup"	n/a	"NULL"	"NULL"	"NULL"	"stimuli/MullerLyer_2.30000_-0.07627.png"	n/a	"MullerLyer"	"arrowdown"	"1114"	"FALSE"	"MullerLyer"	"2.3000000000"	"-0.076270000"	"2"	"15"
n/a	"html-keyboard-response"	"214"	"7990331"	"0.0-6.0-2.0-0.15"	"xbdh0a"	"563"	"1034"	"chrome"	"111.0.0"	"FALSE"	"Windows 10"	"60.93"	"048"	n/a	n/a	n/a	n/a	n/a	n/a	"fixation"	n/a	n/a	n/a	n/a	"NULL"	n/a	"NULL"	"NULL"	"NULL"	"<p style=\"color: black; font-size: 80px; padding-left: 39%; padding-right: 9%; padding-top: 45%; padding-bottom: 7%\">+</p>"	"1478"	n/a	n/a	n/a	n/a	n/a	n/a	n/a	n/a	n/a
n/a	"image-keyboard-response"	"215"	"7990887"	"0.0-6.0-2.0-1.15"	"xbdh0a"	"563"	"1034"	"chrome"	"111.0.0"	"FALSE"	"Windows 10"	"60.93"	"048"	n/a	n/a	n/a	n/a	n/a	n/a	"Trial"	n/a	n/a	n/a	"556"	"arrowup"	n/a	"NULL"	"NULL"	"NULL"	"stimuli/MullerLyer_8.21429_0.23665.png"	n/a	"MullerLyer"	"arrowup"	"1486"	"TRUE"	"MullerLyer"	"8.2142900000"	"0.2366500000"	"2"	"16"
n/a	"html-keyboard-response"	"216"	"7991944"	"0.0-6.0-2.0-0.16"	"xbdh0a"	"563"	"1034"	"chrome"	"111.0.0"	"FALSE"	"Windows 10"	"60.93"	"048"	n/a	n/a	n/a	n/a	n/a	n/a	"fixation"	n/a	n/a	n/a	n/a	"NULL"	n/a	"NULL"	"NULL"	"NULL"	"<p style=\"color: black; font-size: 80px; padding-left: 22%; padding-right: 10%; padding-top: 19%; padding-bottom: 1%\">+</p>"	"1049"	n/a	n/a	n/a	n/a	n/a	n/a	n/a	n/a	n/a
n/a	"image-keyboard-response"	"217"	"7992429"	"0.0-6.0-2.0-1.16"	"xbdh0a"	"563"	"1034"	"chrome"	"111.0.0"	"FALSE"	"Windows 10"	"60.93"	"048"	n/a	n/a	n/a	n/a	n/a	n/a	"Trial"	n/a	n/a	n/a	"483"	"arrowdown"	n/a	"NULL"	"NULL"	"NULL"	"stimuli/MullerLyer_-2.3000_-0.3500.png"	n/a	"MullerLyer"	"arrowdown"	"1057"	"TRUE"	"MullerLyer"	"-2.300000000"	"-0.350000000"	"2"	"17"
n/a	"html-keyboard-response"	"218"	"7993922"	"0.0-6.0-2.0-0.17"	"xbdh0a"	"563"	"1034"	"chrome"	"111.0.0"	"FALSE"	"Windows 10"	"60.93"	"048"	n/a	n/a	n/a	n/a	n/a	n/a	"fixation"	n/a	n/a	n/a	n/a	"NULL"	n/a	"NULL"	"NULL"	"NULL"	"<p style=\"color: black; font-size: 80px; padding-left: 34%; padding-right: 8%; padding-top: 35%; padding-bottom: 36%\">+</p>"	"1480"	n/a	n/a	n/a	n/a	n/a	n/a	n/a	n/a	n/a
n/a	"image-keyboard-response"	"219"	"7994379"	"0.0-6.0-2.0-1.17"	"xbdh0a"	"563"	"1034"	"chrome"	"111.0.0"	"FALSE"	"Windows 10"	"60.93"	"048"	n/a	n/a	n/a	n/a	n/a	n/a	"Trial"	n/a	n/a	n/a	"457"	"arrowdown"	n/a	"NULL"	"NULL"	"NULL"	"stimuli/MullerLyer_-20.04286_-0.07627.png"	n/a	"MullerLyer"	"arrowdown"	"1493"	"TRUE"	"MullerLyer"	"-20.04286000"	"-0.076270000"	"2"	"18"
n/a	"html-keyboard-response"	"220"	"7995852"	"0.0-6.0-2.0-0.18"	"xbdh0a"	"563"	"1034"	"chrome"	"111.0.0"	"FALSE"	"Windows 10"	"60.93"	"048"	n/a	n/a	n/a	n/a	n/a	n/a	"fixation"	n/a	n/a	n/a	n/a	"NULL"	n/a	"NULL"	"NULL"	"NULL"	"<p style=\"color: black; font-size: 80px; padding-left: 47%; padding-right: 30%; padding-top: 50%; padding-bottom: 22%\">+</p>"	"1469"	n/a	n/a	n/a	n/a	n/a	n/a	n/a	n/a	n/a
n/a	"image-keyboard-response"	"221"	"7996289"	"0.0-6.0-2.0-1.18"	"xbdh0a"	"563"	"1034"	"chrome"	"111.0.0"	"FALSE"	"Windows 10"	"60.93"	"048"	n/a	n/a	n/a	n/a	n/a	n/a	"Trial"	n/a	n/a	n/a	"436"	"arrowdown"	n/a	"NULL"	"NULL"	"NULL"	"stimuli/MullerLyer_-20.04286_-0.14541.png"	n/a	"MullerLyer"	"arrowdown"	"1473"	"TRUE"	"MullerLyer"	"-20.04286000"	"-0.145410000"	"2"	"19"
n/a	"html-keyboard-response"	"222"	"7997751"	"0.0-6.0-2.0-0.19"	"xbdh0a"	"563"	"1034"	"chrome"	"111.0.0"	"FALSE"	"Windows 10"	"60.93"	"048"	n/a	n/a	n/a	n/a	n/a	n/a	"fixation"	n/a	n/a	n/a	n/a	"NULL"	n/a	"NULL"	"NULL"	"NULL"	"<p style=\"color: black; font-size: 80px; padding-left: 0%; padding-right: 18%; padding-top: 3%; padding-bottom: 14%\">+</p>"	"1457"	n/a	n/a	n/a	n/a	n/a	n/a	n/a	n/a	n/a
n/a	"image-keyboard-response"	"223"	"7998435"	"0.0-6.0-2.0-1.19"	"xbdh0a"	"563"	"1034"	"chrome"	"111.0.0"	"FALSE"	"Windows 10"	"60.93"	"048"	n/a	n/a	n/a	n/a	n/a	n/a	"Trial"	n/a	n/a	n/a	"683"	"arrowup"	n/a	"NULL"	"NULL"	"NULL"	"stimuli/MullerLyer_14.12857_0.07627.png"	n/a	"MullerLyer"	"arrowup"	"1462"	"TRUE"	"MullerLyer"	"14.128570000"	"0.0762700000"	"2"	"20"
n/a	"html-keyboard-response"	"224"	"7999814"	"0.0-6.0-2.0-0.20"	"xbdh0a"	"563"	"1034"	"chrome"	"111.0.0"	"FALSE"	"Windows 10"	"60.93"	"048"	n/a	n/a	n/a	n/a	n/a	n/a	"fixation"	n/a	n/a	n/a	n/a	"NULL"	n/a	"NULL"	"NULL"	"NULL"	"<p style=\"color: black; font-size: 80px; padding-left: 7%; padding-right: 17%; padding-top: 35%; padding-bottom: 26%\">+</p>"	"1377"	n/a	n/a	n/a	n/a	n/a	n/a	n/a	n/a	n/a
n/a	"image-keyboard-response"	"225"	"8000440"	"0.0-6.0-2.0-1.20"	"xbdh0a"	"563"	"1034"	"chrome"	"111.0.0"	"FALSE"	"Windows 10"	"60.93"	"048"	n/a	n/a	n/a	n/a	n/a	n/a	"Trial"	n/a	n/a	n/a	"625"	"arrowup"	n/a	"NULL"	"NULL"	"NULL"	"stimuli/MullerLyer_8.21429_-0.14541.png"	n/a	"MullerLyer"	"arrowdown"	"1379"	"FALSE"	"MullerLyer"	"8.2142900000"	"-0.145410000"	"2"	"21"
n/a	"html-keyboard-response"	"226"	"8001557"	"0.0-6.0-2.0-0.21"	"xbdh0a"	"563"	"1034"	"chrome"	"111.0.0"	"FALSE"	"Windows 10"	"60.93"	"048"	n/a	n/a	n/a	n/a	n/a	n/a	"fixation"	n/a	n/a	n/a	n/a	"NULL"	n/a	"NULL"	"NULL"	"NULL"	"<p style=\"color: black; font-size: 80px; padding-left: 41%; padding-right: 26%; padding-top: 44%; padding-bottom: 0%\">+</p>"	"1102"	n/a	n/a	n/a	n/a	n/a	n/a	n/a	n/a	n/a
n/a	"image-keyboard-response"	"227"	"8002162"	"0.0-6.0-2.0-1.21"	"xbdh0a"	"563"	"1034"	"chrome"	"111.0.0"	"FALSE"	"Windows 10"	"60.93"	"048"	n/a	n/a	n/a	n/a	n/a	n/a	"Trial"	n/a	n/a	n/a	"604"	"arrowdown"	n/a	"NULL"	"NULL"	"NULL"	"stimuli/MullerLyer_14.12857_-0.3500.png"	n/a	"MullerLyer"	"arrowdown"	"1117"	"TRUE"	"MullerLyer"	"14.128570000"	"-0.350000000"	"2"	"22"
n/a	"html-keyboard-response"	"228"	"8003180"	"0.0-6.0-2.0-0.22"	"xbdh0a"	"563"	"1034"	"chrome"	"111.0.0"	"FALSE"	"Windows 10"	"60.93"	"048"	n/a	n/a	n/a	n/a	n/a	n/a	"fixation"	n/a	n/a	n/a	n/a	"NULL"	n/a	"NULL"	"NULL"	"NULL"	"<p style=\"color: black; font-size: 80px; padding-left: 28%; padding-right: 29%; padding-top: 15%; padding-bottom: 16%\">+</p>"	"1008"	n/a	n/a	n/a	n/a	n/a	n/a	n/a	n/a	n/a
n/a	"image-keyboard-response"	"229"	"8003758"	"0.0-6.0-2.0-1.22"	"xbdh0a"	"563"	"1034"	"chrome"	"111.0.0"	"FALSE"	"Windows 10"	"60.93"	"048"	n/a	n/a	n/a	n/a	n/a	n/a	"Trial"	n/a	n/a	n/a	"576"	"arrowup"	n/a	"NULL"	"NULL"	"NULL"	"stimuli/MullerLyer_2.30000_0.07627.png"	n/a	"MullerLyer"	"arrowup"	"1018"	"TRUE"	"MullerLyer"	"2.3000000000"	"0.0762700000"	"2"	"23"
n/a	"html-keyboard-response"	"230"	"8005172"	"0.0-6.0-2.0-0.23"	"xbdh0a"	"563"	"1034"	"chrome"	"111.0.0"	"FALSE"	"Windows 10"	"60.93"	"048"	n/a	n/a	n/a	n/a	n/a	n/a	"fixation"	n/a	n/a	n/a	n/a	"NULL"	n/a	"NULL"	"NULL"	"NULL"	"<p style=\"color: black; font-size: 80px; padding-left: 28%; padding-right: 13%; padding-top: 6%; padding-bottom: 39%\">+</p>"	"1400"	n/a	n/a	n/a	n/a	n/a	n/a	n/a	n/a	n/a
n/a	"image-keyboard-response"	"231"	"8005699"	"0.0-6.0-2.0-1.23"	"xbdh0a"	"563"	"1034"	"chrome"	"111.0.0"	"FALSE"	"Windows 10"	"60.93"	"048"	n/a	n/a	n/a	n/a	n/a	n/a	"Trial"	n/a	n/a	n/a	"527"	"arrowup"	n/a	"NULL"	"NULL"	"NULL"	"stimuli/MullerLyer_-2.3000_0.14541.png"	n/a	"MullerLyer"	"arrowup"	"1414"	"TRUE"	"MullerLyer"	"-2.300000000"	"0.1454100000"	"2"	"24"
n/a	"html-keyboard-response"	"232"	"8007131"	"0.0-6.0-2.0-0.24"	"xbdh0a"	"563"	"1034"	"chrome"	"111.0.0"	"FALSE"	"Windows 10"	"60.93"	"048"	n/a	n/a	n/a	n/a	n/a	n/a	"fixation"	n/a	n/a	n/a	n/a	"NULL"	n/a	"NULL"	"NULL"	"NULL"	"<p style=\"color: black; font-size: 80px; padding-left: 44%; padding-right: 45%; padding-top: 32%; padding-bottom: 25%\">+</p>"	"1422"	n/a	n/a	n/a	n/a	n/a	n/a	n/a	n/a	n/a
n/a	"image-keyboard-response"	"233"	"8007632"	"0.0-6.0-2.0-1.24"	"xbdh0a"	"563"	"1034"	"chrome"	"111.0.0"	"FALSE"	"Windows 10"	"60.93"	"048"	n/a	n/a	n/a	n/a	n/a	n/a	"Trial"	n/a	n/a	n/a	"499"	"arrowup"	n/a	"NULL"	"NULL"	"NULL"	"stimuli/MullerLyer_20.04286_-0.14541.png"	n/a	"MullerLyer"	"arrowdown"	"1432"	"FALSE"	"MullerLyer"	"20.042860000"	"-0.145410000"	"2"	"25"
n/a	"html-keyboard-response"	"234"	"8009022"	"0.0-6.0-2.0-0.25"	"xbdh0a"	"563"	"1034"	"chrome"	"111.0.0"	"FALSE"	"Windows 10"	"60.93"	"048"	n/a	n/a	n/a	n/a	n/a	n/a	"fixation"	n/a	n/a	n/a	n/a	"NULL"	n/a	"NULL"	"NULL"	"NULL"	"<p style=\"color: black; font-size: 80px; padding-left: 18%; padding-right: 36%; padding-top: 25%; padding-bottom: 42%\">+</p>"	"1382"	n/a	n/a	n/a	n/a	n/a	n/a	n/a	n/a	n/a
n/a	"image-keyboard-response"	"235"	"8009586"	"0.0-6.0-2.0-1.25"	"xbdh0a"	"563"	"1034"	"chrome"	"111.0.0"	"FALSE"	"Windows 10"	"60.93"	"048"	n/a	n/a	n/a	n/a	n/a	n/a	"Trial"	n/a	n/a	n/a	"563"	"arrowdown"	n/a	"NULL"	"NULL"	"NULL"	"stimuli/MullerLyer_8.21429_-0.23665.png"	n/a	"MullerLyer"	"arrowdown"	"1390"	"TRUE"	"MullerLyer"	"8.2142900000"	"-0.236650000"	"2"	"26"
n/a	"html-keyboard-response"	"236"	"8011099"	"0.0-6.0-2.0-0.26"	"xbdh0a"	"563"	"1034"	"chrome"	"111.0.0"	"FALSE"	"Windows 10"	"60.93"	"048"	n/a	n/a	n/a	n/a	n/a	n/a	"fixation"	n/a	n/a	n/a	n/a	"NULL"	n/a	"NULL"	"NULL"	"NULL"	"<p style=\"color: black; font-size: 80px; padding-left: 22%; padding-right: 33%; padding-top: 27%; padding-bottom: 30%\">+</p>"	"1499"	n/a	n/a	n/a	n/a	n/a	n/a	n/a	n/a	n/a
n/a	"image-keyboard-response"	"237"	"8011603"	"0.0-6.0-2.0-1.26"	"xbdh0a"	"563"	"1034"	"chrome"	"111.0.0"	"FALSE"	"Windows 10"	"60.93"	"048"	n/a	n/a	n/a	n/a	n/a	n/a	"Trial"	n/a	n/a	n/a	"503"	"arrowup"	n/a	"NULL"	"NULL"	"NULL"	"stimuli/MullerLyer_-2.3000_0.35000.png"	n/a	"MullerLyer"	"arrowup"	"1513"	"TRUE"	"MullerLyer"	"-2.300000000"	"0.3500000000"	"2"	"27"
n/a	"html-keyboard-response"	"238"	"8012812"	"0.0-6.0-2.0-0.27"	"xbdh0a"	"563"	"1034"	"chrome"	"111.0.0"	"FALSE"	"Windows 10"	"60.93"	"048"	n/a	n/a	n/a	n/a	n/a	n/a	"fixation"	n/a	n/a	n/a	n/a	"NULL"	n/a	"NULL"	"NULL"	"NULL"	"<p style=\"color: black; font-size: 80px; padding-left: 9%; padding-right: 9%; padding-top: 15%; padding-bottom: 6%\">+</p>"	"1194"	n/a	n/a	n/a	n/a	n/a	n/a	n/a	n/a	n/a
n/a	"image-keyboard-response"	"239"	"8013249"	"0.0-6.0-2.0-1.27"	"xbdh0a"	"563"	"1034"	"chrome"	"111.0.0"	"FALSE"	"Windows 10"	"60.93"	"048"	n/a	n/a	n/a	n/a	n/a	n/a	"Trial"	n/a	n/a	n/a	"437"	"arrowdown"	n/a	"NULL"	"NULL"	"NULL"	"stimuli/MullerLyer_-14.12857_-0.07627.png"	n/a	"MullerLyer"	"arrowdown"	"1209"	"TRUE"	"MullerLyer"	"-14.12857000"	"-0.076270000"	"2"	"28"
n/a	"html-keyboard-response"	"240"	"8014636"	"0.0-6.0-2.0-0.28"	"xbdh0a"	"563"	"1034"	"chrome"	"111.0.0"	"FALSE"	"Windows 10"	"60.93"	"048"	n/a	n/a	n/a	n/a	n/a	n/a	"fixation"	n/a	n/a	n/a	n/a	"NULL"	n/a	"NULL"	"NULL"	"NULL"	"<p style=\"color: black; font-size: 80px; padding-left: 25%; padding-right: 45%; padding-top: 16%; padding-bottom: 13%\">+</p>"	"1374"	n/a	n/a	n/a	n/a	n/a	n/a	n/a	n/a	n/a
n/a	"image-keyboard-response"	"241"	"8015157"	"0.0-6.0-2.0-1.28"	"xbdh0a"	"563"	"1034"	"chrome"	"111.0.0"	"FALSE"	"Windows 10"	"60.93"	"048"	n/a	n/a	n/a	n/a	n/a	n/a	"Trial"	n/a	n/a	n/a	"521"	"arrowup"	n/a	"NULL"	"NULL"	"NULL"	"stimuli/MullerLyer_2.30000_0.14541.png"	n/a	"MullerLyer"	"arrowup"	"1387"	"TRUE"	"MullerLyer"	"2.3000000000"	"0.1454100000"	"2"	"29"
n/a	"html-keyboard-response"	"242"	"8016649"	"0.0-6.0-2.0-0.29"	"xbdh0a"	"563"	"1034"	"chrome"	"111.0.0"	"FALSE"	"Windows 10"	"60.93"	"048"	n/a	n/a	n/a	n/a	n/a	n/a	"fixation"	n/a	n/a	n/a	n/a	"NULL"	n/a	"NULL"	"NULL"	"NULL"	"<p style=\"color: black; font-size: 80px; padding-left: 39%; padding-right: 7%; padding-top: 15%; padding-bottom: 2%\">+</p>"	"1478"	n/a	n/a	n/a	n/a	n/a	n/a	n/a	n/a	n/a
n/a	"image-keyboard-response"	"243"	"8017204"	"0.0-6.0-2.0-1.29"	"xbdh0a"	"563"	"1034"	"chrome"	"111.0.0"	"FALSE"	"Windows 10"	"60.93"	"048"	n/a	n/a	n/a	n/a	n/a	n/a	"Trial"	n/a	n/a	n/a	"554"	"arrowdown"	n/a	"NULL"	"NULL"	"NULL"	"stimuli/MullerLyer_20.04286_0.23665.png"	n/a	"MullerLyer"	"arrowup"	"1492"	"FALSE"	"MullerLyer"	"20.042860000"	"0.2366500000"	"2"	"30"
n/a	"html-keyboard-response"	"244"	"8018224"	"0.0-6.0-2.0-0.30"	"xbdh0a"	"563"	"1034"	"chrome"	"111.0.0"	"FALSE"	"Windows 10"	"60.93"	"048"	n/a	n/a	n/a	n/a	n/a	n/a	"fixation"	n/a	n/a	n/a	n/a	"NULL"	n/a	"NULL"	"NULL"	"NULL"	"<p style=\"color: black; font-size: 80px; padding-left: 3%; padding-right: 1%; padding-top: 1%; padding-bottom: 33%\">+</p>"	"1011"	n/a	n/a	n/a	n/a	n/a	n/a	n/a	n/a	n/a
n/a	"image-keyboard-response"	"245"	"8018836"	"0.0-6.0-2.0-1.30"	"xbdh0a"	"563"	"1034"	"chrome"	"111.0.0"	"FALSE"	"Windows 10"	"60.93"	"048"	n/a	n/a	n/a	n/a	n/a	n/a	"Trial"	n/a	n/a	n/a	"611"	"arrowup"	n/a	"NULL"	"NULL"	"NULL"	"stimuli/MullerLyer_2.30000_0.23665.png"	n/a	"MullerLyer"	"arrowup"	"1020"	"TRUE"	"MullerLyer"	"2.3000000000"	"0.2366500000"	"2"	"31"
n/a	"html-keyboard-response"	"246"	"8020008"	"0.0-6.0-2.0-0.31"	"xbdh0a"	"563"	"1034"	"chrome"	"111.0.0"	"FALSE"	"Windows 10"	"60.93"	"048"	n/a	n/a	n/a	n/a	n/a	n/a	"fixation"	n/a	n/a	n/a	n/a	"NULL"	n/a	"NULL"	"NULL"	"NULL"	"<p style=\"color: black; font-size: 80px; padding-left: 11%; padding-right: 37%; padding-top: 39%; padding-bottom: 16%\">+</p>"	"1168"	n/a	n/a	n/a	n/a	n/a	n/a	n/a	n/a	n/a
n/a	"image-keyboard-response"	"247"	"8020460"	"0.0-6.0-2.0-1.31"	"xbdh0a"	"563"	"1034"	"chrome"	"111.0.0"	"FALSE"	"Windows 10"	"60.93"	"048"	n/a	n/a	n/a	n/a	n/a	n/a	"Trial"	n/a	n/a	n/a	"452"	"arrowdown"	n/a	"NULL"	"NULL"	"NULL"	"stimuli/MullerLyer_-14.12857_-0.23665.png"	n/a	"MullerLyer"	"arrowdown"	"1172"	"TRUE"	"MullerLyer"	"-14.12857000"	"-0.236650000"	"2"	"32"
n/a	"html-keyboard-response"	"248"	"8021647"	"0.0-6.0-2.0-0.32"	"xbdh0a"	"563"	"1034"	"chrome"	"111.0.0"	"FALSE"	"Windows 10"	"60.93"	"048"	n/a	n/a	n/a	n/a	n/a	n/a	"fixation"	n/a	n/a	n/a	n/a	"NULL"	n/a	"NULL"	"NULL"	"NULL"	"<p style=\"color: black; font-size: 80px; padding-left: 25%; padding-right: 3%; padding-top: 31%; padding-bottom: 40%\">+</p>"	"1175"	n/a	n/a	n/a	n/a	n/a	n/a	n/a	n/a	n/a
n/a	"image-keyboard-response"	"249"	"8022056"	"0.0-6.0-2.0-1.32"	"xbdh0a"	"563"	"1034"	"chrome"	"111.0.0"	"FALSE"	"Windows 10"	"60.93"	"048"	n/a	n/a	n/a	n/a	n/a	n/a	"Trial"	n/a	n/a	n/a	"405"	"arrowdown"	n/a	"NULL"	"NULL"	"NULL"	"stimuli/MullerLyer_-20.04286_-0.3500.png"	n/a	"MullerLyer"	"arrowdown"	"1187"	"TRUE"	"MullerLyer"	"-20.04286000"	"-0.350000000"	"2"	"33"
n/a	"html-keyboard-response"	"250"	"8023448"	"0.0-6.0-2.0-0.33"	"xbdh0a"	"563"	"1034"	"chrome"	"111.0.0"	"FALSE"	"Windows 10"	"60.93"	"048"	n/a	n/a	n/a	n/a	n/a	n/a	"fixation"	n/a	n/a	n/a	n/a	"NULL"	n/a	"NULL"	"NULL"	"NULL"	"<p style=\"color: black; font-size: 80px; padding-left: 12%; padding-right: 16%; padding-top: 29%; padding-bottom: 1%\">+</p>"	"1379"	n/a	n/a	n/a	n/a	n/a	n/a	n/a	n/a	n/a
n/a	"image-keyboard-response"	"251"	"8024332"	"0.0-6.0-2.0-1.33"	"xbdh0a"	"563"	"1034"	"chrome"	"111.0.0"	"FALSE"	"Windows 10"	"60.93"	"048"	n/a	n/a	n/a	n/a	n/a	n/a	"Trial"	n/a	n/a	n/a	"882"	"arrowdown"	n/a	"NULL"	"NULL"	"NULL"	"stimuli/MullerLyer_14.12857_-0.23665.png"	n/a	"MullerLyer"	"arrowdown"	"1392"	"TRUE"	"MullerLyer"	"14.128570000"	"-0.236650000"	"2"	"34"
n/a	"html-keyboard-response"	"252"	"8025635"	"0.0-6.0-2.0-0.34"	"xbdh0a"	"563"	"1034"	"chrome"	"111.0.0"	"FALSE"	"Windows 10"	"60.93"	"048"	n/a	n/a	n/a	n/a	n/a	n/a	"fixation"	n/a	n/a	n/a	n/a	"NULL"	n/a	"NULL"	"NULL"	"NULL"	"<p style=\"color: black; font-size: 80px; padding-left: 21%; padding-right: 17%; padding-top: 28%; padding-bottom: 6%\">+</p>"	"1298"	n/a	n/a	n/a	n/a	n/a	n/a	n/a	n/a	n/a
