"success"	"trial_type"	"trial_index"	"time_elapsed"	"internal_node_id"	"participant_id"	"screen_height"	"screen_width"	"browser"	"browser_version"	"mobile"	"os"	"vsync_rate"	"subject_id"	"width"	"height"	"webaudio"	"fullscreen"	"webcam"	"microphone"	"screen"	"version"	"date"	"time"	"rt"	"response"	"timeout"	"failed_images"	"failed_audio"	"failed_video"	"stimulus"	"trial_duration"	"block"	"correct_response"	"prestimulus_duration"	"correct"	"type"	"illusion_strength"	"illusion_difference"	"block_number"	"trial_number"
"TRUE"	"fullscreen"	"0"	"47932"	"0.0-0.0"	"2bhdeq"	"600"	"1366"	"chrome"	"109.0.0"	"FALSE"	"Windows 10"	"60.82"	"008"	n/a	n/a	n/a	n/a	n/a	n/a	n/a	n/a	n/a	n/a	n/a	"NULL"	n/a	"NULL"	"NULL"	"NULL"	n/a	n/a	n/a	n/a	n/a	n/a	n/a	n/a	n/a	n/a	n/a
n/a	"browser-check"	"1"	"48934"	"0.0-1.0"	"2bhdeq"	"600"	"1366"	"chrome"	"109.0.0"	"FALSE"	"Windows 10"	"60.82"	"008"	"1366"	"600"	"TRUE"	"TRUE"	"TRUE"	"TRUE"	"browser_info"	"1.0"	"30/01/2023"	"10:29:56"	n/a	"NULL"	n/a	"NULL"	"NULL"	"NULL"	n/a	n/a	n/a	n/a	n/a	n/a	n/a	n/a	n/a	n/a	n/a
n/a	"survey-text"	"2"	"52796"	"0.0-2.0"	"2bhdeq"	"600"	"1366"	"chrome"	"109.0.0"	"FALSE"	"Windows 10"	"60.82"	"008"	n/a	n/a	n/a	n/a	n/a	n/a	"subject_id"	n/a	n/a	n/a	"3854"	"list(subject_id = \"008\")"	n/a	"NULL"	"NULL"	"NULL"	n/a	n/a	n/a	n/a	n/a	n/a	n/a	n/a	n/a	n/a	n/a
"TRUE"	"preload"	"3"	"52813"	"0.0-3.0"	"2bhdeq"	"600"	"1366"	"chrome"	"109.0.0"	"FALSE"	"Windows 10"	"60.82"	"008"	n/a	n/a	n/a	n/a	n/a	n/a	n/a	n/a	n/a	n/a	n/a	"NULL"	"FALSE"	"list()"	"list()"	"list()"	n/a	n/a	n/a	n/a	n/a	n/a	n/a	n/a	n/a	n/a	n/a
n/a	"html-button-response"	"4"	"131610"	"0.0-4.0-0.0"	"2bhdeq"	"600"	"1366"	"chrome"	"109.0.0"	"FALSE"	"Windows 10"	"60.82"	"008"	n/a	n/a	n/a	n/a	n/a	n/a	"illusion_instructions"	n/a	n/a	n/a	"78796"	"0"	n/a	"NULL"	"NULL"	"NULL"	"<p><b>Illusion Game</b></p><p>In this game of speed and reflex, you will need to make <b>visual judgments</b> (for instance, which circle is the biggest, or which line is the longest), as fast and as correctly as possible, while <b>resisting different visual illusions</b>.</p><p>We are going to start with some examples of all the illusions you will encounter in the game.</p>"	n/a	n/a	n/a	n/a	n/a	n/a	n/a	n/a	n/a	n/a
"TRUE"	"preload"	"5"	"131640"	"0.0-4.0-1.0-0.0"	"2bhdeq"	"600"	"1366"	"chrome"	"109.0.0"	"FALSE"	"Windows 10"	"60.82"	"008"	n/a	n/a	n/a	n/a	n/a	n/a	n/a	n/a	n/a	n/a	n/a	"NULL"	"FALSE"	"list()"	"list()"	"list()"	n/a	n/a	n/a	n/a	n/a	n/a	n/a	n/a	n/a	n/a	n/a
n/a	"html-keyboard-response"	"6"	"165090"	"0.0-4.0-1.0-1.0"	"2bhdeq"	"600"	"1366"	"chrome"	"109.0.0"	"FALSE"	"Windows 10"	"60.82"	"008"	n/a	n/a	n/a	n/a	n/a	n/a	n/a	n/a	n/a	n/a	"33448"	"enter"	n/a	"NULL"	"NULL"	"NULL"	"<p><b>Practice</b></p><p>In this part, two red circles will appear side by side on the screen.</p><p>Your task is to select which <b>red circle is bigger</b> in size as fast as you can, without making errors.</p><p>Don't get distracted by the surrounding black circles around the red circles!</p><p>Press <b>the LEFT or the RIGHT arrow</b> to indicate which is the bigger <b>red circle.</b></p><div style='float: center'><img src='materials/instructions/Ebbinghaus_Demo.png' height='300'></img><p><img src='utils/answer/answer_leftright_keyboard.PNG' height='150'></img></p><p class='small'>In this example, the correct answer is the <b>LEFT arrow</b>.</p></div><p>Are you ready? <b>Press ENTER to start</b></p>"	n/a	n/a	n/a	n/a	n/a	n/a	n/a	n/a	n/a	n/a
n/a	"html-keyboard-response"	"7"	"166880"	"0.0-4.0-1.0-2.0-0.0"	"2bhdeq"	"600"	"1366"	"chrome"	"109.0.0"	"FALSE"	"Windows 10"	"60.82"	"008"	n/a	n/a	n/a	n/a	n/a	n/a	"fixation"	n/a	n/a	n/a	n/a	"NULL"	n/a	"NULL"	"NULL"	"NULL"	"<p style=\"color: black; font-size: 80px; padding-left: 14%; padding-right: 1%; padding-top: 36%; padding-bottom: 12%\">+</p>"	"1264"	n/a	n/a	n/a	n/a	n/a	n/a	n/a	n/a	n/a
n/a	"image-keyboard-response"	"8"	"168370"	"0.0-4.0-1.0-2.0-1.0"	"2bhdeq"	"600"	"1366"	"chrome"	"109.0.0"	"FALSE"	"Windows 10"	"60.82"	"008"	n/a	n/a	n/a	n/a	n/a	n/a	"Trial"	n/a	n/a	n/a	"1477"	"arrowright"	n/a	"NULL"	"NULL"	"NULL"	"stimuli/Ebbinghaus_-100000_-1.4000.png"	n/a	"Ebbinghaus"	"arrowright"	"1790"	"TRUE"	"Ebbinghaus"	"-10000000000"	"-1.400000000"	"1"	"1"
n/a	"html-keyboard-response"	"9"	"169738"	"0.0-4.0-1.0-2.0-0.1"	"2bhdeq"	"600"	"1366"	"chrome"	"109.0.0"	"FALSE"	"Windows 10"	"60.82"	"008"	n/a	n/a	n/a	n/a	n/a	n/a	"fixation"	n/a	n/a	n/a	n/a	"NULL"	n/a	"NULL"	"NULL"	"NULL"	"<p style=\"color: black; font-size: 80px; padding-left: 48%; padding-right: 10%; padding-top: 15%; padding-bottom: 43%\">+</p>"	"1355"	n/a	n/a	n/a	n/a	n/a	n/a	n/a	n/a	n/a
n/a	"image-keyboard-response"	"10"	"170691"	"0.0-4.0-1.0-2.0-1.1"	"2bhdeq"	"600"	"1366"	"chrome"	"109.0.0"	"FALSE"	"Windows 10"	"60.82"	"008"	n/a	n/a	n/a	n/a	n/a	n/a	"Trial"	n/a	n/a	n/a	"952"	"arrowright"	n/a	"NULL"	"NULL"	"NULL"	"stimuli/Ebbinghaus_1000000_-1.4000.png"	n/a	"Ebbinghaus"	"arrowright"	"1368"	"TRUE"	"Ebbinghaus"	"100000000000"	"-1.400000000"	"1"	"2"
n/a	"html-keyboard-response"	"11"	"172013"	"0.0-4.0-1.0-2.0-0.2"	"2bhdeq"	"600"	"1366"	"chrome"	"109.0.0"	"FALSE"	"Windows 10"	"60.82"	"008"	n/a	n/a	n/a	n/a	n/a	n/a	"fixation"	n/a	n/a	n/a	n/a	"NULL"	n/a	"NULL"	"NULL"	"NULL"	"<p style=\"color: black; font-size: 80px; padding-left: 18%; padding-right: 42%; padding-top: 27%; padding-bottom: 38%\">+</p>"	"1309"	n/a	n/a	n/a	n/a	n/a	n/a	n/a	n/a	n/a
n/a	"image-keyboard-response"	"12"	"172730"	"0.0-4.0-1.0-2.0-1.2"	"2bhdeq"	"600"	"1366"	"chrome"	"109.0.0"	"FALSE"	"Windows 10"	"60.82"	"008"	n/a	n/a	n/a	n/a	n/a	n/a	"Trial"	n/a	n/a	n/a	"716"	"arrowleft"	n/a	"NULL"	"NULL"	"NULL"	"stimuli/Ebbinghaus_0000000_1.40000.png"	n/a	"Ebbinghaus"	"arrowleft"	"1322"	"TRUE"	"Ebbinghaus"	"000000000000"	"1.4000000000"	"1"	"3"
n/a	"html-keyboard-response"	"13"	"174071"	"0.0-4.0-1.0-2.0-0.3"	"2bhdeq"	"600"	"1366"	"chrome"	"109.0.0"	"FALSE"	"Windows 10"	"60.82"	"008"	n/a	n/a	n/a	n/a	n/a	n/a	"fixation"	n/a	n/a	n/a	n/a	"NULL"	n/a	"NULL"	"NULL"	"NULL"	"<p style=\"color: black; font-size: 80px; padding-left: 9%; padding-right: 2%; padding-top: 19%; padding-bottom: 26%\">+</p>"	"1334"	n/a	n/a	n/a	n/a	n/a	n/a	n/a	n/a	n/a
n/a	"image-keyboard-response"	"14"	"174666"	"0.0-4.0-1.0-2.0-1.3"	"2bhdeq"	"600"	"1366"	"chrome"	"109.0.0"	"FALSE"	"Windows 10"	"60.82"	"008"	n/a	n/a	n/a	n/a	n/a	n/a	"Trial"	n/a	n/a	n/a	"595"	"arrowleft"	n/a	"NULL"	"NULL"	"NULL"	"stimuli/Ebbinghaus_1000000_1.40000.png"	n/a	"Ebbinghaus"	"arrowleft"	"1341"	"TRUE"	"Ebbinghaus"	"100000000000"	"1.4000000000"	"1"	"4"
n/a	"html-keyboard-response"	"15"	"175772"	"0.0-4.0-1.0-2.0-0.4"	"2bhdeq"	"600"	"1366"	"chrome"	"109.0.0"	"FALSE"	"Windows 10"	"60.82"	"008"	n/a	n/a	n/a	n/a	n/a	n/a	"fixation"	n/a	n/a	n/a	n/a	"NULL"	n/a	"NULL"	"NULL"	"NULL"	"<p style=\"color: black; font-size: 80px; padding-left: 29%; padding-right: 19%; padding-top: 9%; padding-bottom: 5%\">+</p>"	"1094"	n/a	n/a	n/a	n/a	n/a	n/a	n/a	n/a	n/a
n/a	"image-keyboard-response"	"16"	"176723"	"0.0-4.0-1.0-2.0-1.4"	"2bhdeq"	"600"	"1366"	"chrome"	"109.0.0"	"FALSE"	"Windows 10"	"60.82"	"008"	n/a	n/a	n/a	n/a	n/a	n/a	"Trial"	n/a	n/a	n/a	"949"	"arrowright"	n/a	"NULL"	"NULL"	"NULL"	"stimuli/Ebbinghaus_0000000_-1.4000.png"	n/a	"Ebbinghaus"	"arrowright"	"1106"	"TRUE"	"Ebbinghaus"	"000000000000"	"-1.400000000"	"1"	"5"
n/a	"html-keyboard-response"	"17"	"178148"	"0.0-4.0-1.0-2.0-0.5"	"2bhdeq"	"600"	"1366"	"chrome"	"109.0.0"	"FALSE"	"Windows 10"	"60.82"	"008"	n/a	n/a	n/a	n/a	n/a	n/a	"fixation"	n/a	n/a	n/a	n/a	"NULL"	n/a	"NULL"	"NULL"	"NULL"	"<p style=\"color: black; font-size: 80px; padding-left: 6%; padding-right: 26%; padding-top: 22%; padding-bottom: 33%\">+</p>"	"1409"	n/a	n/a	n/a	n/a	n/a	n/a	n/a	n/a	n/a
n/a	"image-keyboard-response"	"18"	"178707"	"0.0-4.0-1.0-2.0-1.5"	"2bhdeq"	"600"	"1366"	"chrome"	"109.0.0"	"FALSE"	"Windows 10"	"60.82"	"008"	n/a	n/a	n/a	n/a	n/a	n/a	"Trial"	n/a	n/a	n/a	"558"	"arrowleft"	n/a	"NULL"	"NULL"	"NULL"	"stimuli/Ebbinghaus_-100000_1.40000.png"	n/a	"Ebbinghaus"	"arrowleft"	"1425"	"TRUE"	"Ebbinghaus"	"-10000000000"	"1.4000000000"	"1"	"6"
n/a	"html-button-response"	"19"	"182080"	"0.0-4.0-1.0-3.0"	"2bhdeq"	"600"	"1366"	"chrome"	"109.0.0"	"FALSE"	"Windows 10"	"60.82"	"008"	n/a	n/a	n/a	n/a	n/a	n/a	"practice_block_results"	n/a	n/a	n/a	"3367"	"0"	n/a	"NULL"	"NULL"	"NULL"	"<p style='color:rgb(76,175,80);'> Correct Responses: <b>100.00%</b></p><hr><p style='color:rgb(233,30,99);'> Average Response Time: <b>874.50</b> ms.</p>"	n/a	n/a	n/a	n/a	n/a	n/a	n/a	n/a	n/a	n/a
"TRUE"	"preload"	"20"	"182615"	"0.0-4.0-2.0-0.0"	"2bhdeq"	"600"	"1366"	"chrome"	"109.0.0"	"FALSE"	"Windows 10"	"60.82"	"008"	n/a	n/a	n/a	n/a	n/a	n/a	n/a	n/a	n/a	n/a	n/a	"NULL"	"FALSE"	"list()"	"list()"	"list()"	n/a	n/a	n/a	n/a	n/a	n/a	n/a	n/a	n/a	n/a	n/a
n/a	"html-keyboard-response"	"21"	"186778"	"0.0-4.0-2.0-1.0"	"2bhdeq"	"600"	"1366"	"chrome"	"109.0.0"	"FALSE"	"Windows 10"	"60.82"	"008"	n/a	n/a	n/a	n/a	n/a	n/a	n/a	n/a	n/a	n/a	"4162"	"enter"	n/a	"NULL"	"NULL"	"NULL"	"<p><b>Practice</b></p><p>In this part, two horizontal red lines will appear one above the other.</p><p>Your task is to select which <b>line is longer</b> in length as fast as you can, without making errors.</p><p>Don't get distracted by the surrounding black arrows at the end of the red lines!</p><p>Press <b>the UP or the DOWN arrow</b> to indicate where is the longer <b>red line.</b></p><div style='float: center'><img src='materials/instructions/MullerLyer_Demo.png' height='300'></img><p><img src='utils/answer/answer_updown_keyboard.PNG' height='150'></img></p><p class='small'>In this example, the correct answer is the <b>UP arrow</b>.</p></div><p>Are you ready? <b>Press ENTER to start</b></p>"	n/a	n/a	n/a	n/a	n/a	n/a	n/a	n/a	n/a	n/a
n/a	"html-keyboard-response"	"22"	"188664"	"0.0-4.0-2.0-2.0-0.0"	"2bhdeq"	"600"	"1366"	"chrome"	"109.0.0"	"FALSE"	"Windows 10"	"60.82"	"008"	n/a	n/a	n/a	n/a	n/a	n/a	"fixation"	n/a	n/a	n/a	n/a	"NULL"	n/a	"NULL"	"NULL"	"NULL"	"<p style=\"color: black; font-size: 80px; padding-left: 11%; padding-right: 33%; padding-top: 47%; padding-bottom: 9%\">+</p>"	"1364"	n/a	n/a	n/a	n/a	n/a	n/a	n/a	n/a	n/a
n/a	"image-keyboard-response"	"23"	"189173"	"0.0-4.0-2.0-2.0-1.0"	"2bhdeq"	"600"	"1366"	"chrome"	"109.0.0"	"FALSE"	"Windows 10"	"60.82"	"008"	n/a	n/a	n/a	n/a	n/a	n/a	"Trial"	n/a	n/a	n/a	"508"	"arrowdown"	n/a	"NULL"	"NULL"	"NULL"	"stimuli/MullerLyer_0000000_-0.7000.png"	n/a	"MullerLyer"	"arrowdown"	"1886"	"TRUE"	"MullerLyer"	"000000000000"	"-0.700000000"	"1"	"7"
n/a	"html-keyboard-response"	"24"	"190497"	"0.0-4.0-2.0-2.0-0.1"	"2bhdeq"	"600"	"1366"	"chrome"	"109.0.0"	"FALSE"	"Windows 10"	"60.82"	"008"	n/a	n/a	n/a	n/a	n/a	n/a	"fixation"	n/a	n/a	n/a	n/a	"NULL"	n/a	"NULL"	"NULL"	"NULL"	"<p style=\"color: black; font-size: 80px; padding-left: 40%; padding-right: 10%; padding-top: 24%; padding-bottom: 7%\">+</p>"	"1317"	n/a	n/a	n/a	n/a	n/a	n/a	n/a	n/a	n/a
n/a	"image-keyboard-response"	"25"	"190981"	"0.0-4.0-2.0-2.0-1.1"	"2bhdeq"	"600"	"1366"	"chrome"	"109.0.0"	"FALSE"	"Windows 10"	"60.82"	"008"	n/a	n/a	n/a	n/a	n/a	n/a	"Trial"	n/a	n/a	n/a	"483"	"arrowdown"	n/a	"NULL"	"NULL"	"NULL"	"stimuli/MullerLyer_-230000_-0.7000.png"	n/a	"MullerLyer"	"arrowdown"	"1324"	"TRUE"	"MullerLyer"	"-23000000000"	"-0.700000000"	"1"	"8"
n/a	"html-keyboard-response"	"26"	"192176"	"0.0-4.0-2.0-2.0-0.2"	"2bhdeq"	"600"	"1366"	"chrome"	"109.0.0"	"FALSE"	"Windows 10"	"60.82"	"008"	n/a	n/a	n/a	n/a	n/a	n/a	"fixation"	n/a	n/a	n/a	n/a	"NULL"	n/a	"NULL"	"NULL"	"NULL"	"<p style=\"color: black; font-size: 80px; padding-left: 41%; padding-right: 20%; padding-top: 21%; padding-bottom: 37%\">+</p>"	"1185"	n/a	n/a	n/a	n/a	n/a	n/a	n/a	n/a	n/a
n/a	"image-keyboard-response"	"27"	"192568"	"0.0-4.0-2.0-2.0-1.2"	"2bhdeq"	"600"	"1366"	"chrome"	"109.0.0"	"FALSE"	"Windows 10"	"60.82"	"008"	n/a	n/a	n/a	n/a	n/a	n/a	"Trial"	n/a	n/a	n/a	"392"	"arrowup"	n/a	"NULL"	"NULL"	"NULL"	"stimuli/MullerLyer_-230000_0.70000.png"	n/a	"MullerLyer"	"arrowup"	"1195"	"TRUE"	"MullerLyer"	"-23000000000"	"0.7000000000"	"1"	"9"
n/a	"html-keyboard-response"	"28"	"193819"	"0.0-4.0-2.0-2.0-0.3"	"2bhdeq"	"600"	"1366"	"chrome"	"109.0.0"	"FALSE"	"Windows 10"	"60.82"	"008"	n/a	n/a	n/a	n/a	n/a	n/a	"fixation"	n/a	n/a	n/a	n/a	"NULL"	n/a	"NULL"	"NULL"	"NULL"	"<p style=\"color: black; font-size: 80px; padding-left: 40%; padding-right: 44%; padding-top: 0%; padding-bottom: 30%\">+</p>"	"1241"	n/a	n/a	n/a	n/a	n/a	n/a	n/a	n/a	n/a
n/a	"image-keyboard-response"	"29"	"194310"	"0.0-4.0-2.0-2.0-1.3"	"2bhdeq"	"600"	"1366"	"chrome"	"109.0.0"	"FALSE"	"Windows 10"	"60.82"	"008"	n/a	n/a	n/a	n/a	n/a	n/a	"Trial"	n/a	n/a	n/a	"490"	"arrowup"	n/a	"NULL"	"NULL"	"NULL"	"stimuli/MullerLyer_2300000_0.70000.png"	n/a	"MullerLyer"	"arrowup"	"1251"	"TRUE"	"MullerLyer"	"230000000000"	"0.7000000000"	"1"	"10"
n/a	"html-keyboard-response"	"30"	"195487"	"0.0-4.0-2.0-2.0-0.4"	"2bhdeq"	"600"	"1366"	"chrome"	"109.0.0"	"FALSE"	"Windows 10"	"60.82"	"008"	n/a	n/a	n/a	n/a	n/a	n/a	"fixation"	n/a	n/a	n/a	n/a	"NULL"	n/a	"NULL"	"NULL"	"NULL"	"<p style=\"color: black; font-size: 80px; padding-left: 15%; padding-right: 23%; padding-top: 9%; padding-bottom: 1%\">+</p>"	"1160"	n/a	n/a	n/a	n/a	n/a	n/a	n/a	n/a	n/a
n/a	"image-keyboard-response"	"31"	"196073"	"0.0-4.0-2.0-2.0-1.4"	"2bhdeq"	"600"	"1366"	"chrome"	"109.0.0"	"FALSE"	"Windows 10"	"60.82"	"008"	n/a	n/a	n/a	n/a	n/a	n/a	"Trial"	n/a	n/a	n/a	"583"	"arrowdown"	n/a	"NULL"	"NULL"	"NULL"	"stimuli/MullerLyer_2300000_-0.7000.png"	n/a	"MullerLyer"	"arrowdown"	"1177"	"TRUE"	"MullerLyer"	"230000000000"	"-0.700000000"	"1"	"11"
n/a	"html-keyboard-response"	"32"	"197132"	"0.0-4.0-2.0-2.0-0.5"	"2bhdeq"	"600"	"1366"	"chrome"	"109.0.0"	"FALSE"	"Windows 10"	"60.82"	"008"	n/a	n/a	n/a	n/a	n/a	n/a	"fixation"	n/a	n/a	n/a	n/a	"NULL"	n/a	"NULL"	"NULL"	"NULL"	"<p style=\"color: black; font-size: 80px; padding-left: 3%; padding-right: 13%; padding-top: 24%; padding-bottom: 37%\">+</p>"	"1038"	n/a	n/a	n/a	n/a	n/a	n/a	n/a	n/a	n/a
n/a	"image-keyboard-response"	"33"	"197530"	"0.0-4.0-2.0-2.0-1.5"	"2bhdeq"	"600"	"1366"	"chrome"	"109.0.0"	"FALSE"	"Windows 10"	"60.82"	"008"	n/a	n/a	n/a	n/a	n/a	n/a	"Trial"	n/a	n/a	n/a	"397"	"arrowup"	n/a	"NULL"	"NULL"	"NULL"	"stimuli/MullerLyer_0000000_0.70000.png"	n/a	"MullerLyer"	"arrowup"	"1059"	"TRUE"	"MullerLyer"	"000000000000"	"0.7000000000"	"1"	"12"
n/a	"html-button-response"	"34"	"199360"	"0.0-4.0-2.0-3.0"	"2bhdeq"	"600"	"1366"	"chrome"	"109.0.0"	"FALSE"	"Windows 10"	"60.82"	"008"	n/a	n/a	n/a	n/a	n/a	n/a	"practice_block_results"	n/a	n/a	n/a	"1828"	"0"	n/a	"NULL"	"NULL"	"NULL"	"<p style='color:rgb(76,175,80);'> Correct Responses: <b>100.00%</b></p><hr><p style='color:rgb(233,30,99);'> Average Response Time: <b>475.50</b> ms.</p>"	n/a	n/a	n/a	n/a	n/a	n/a	n/a	n/a	n/a	n/a
"TRUE"	"preload"	"35"	"199903"	"0.0-4.0-3.0-0.0"	"2bhdeq"	"600"	"1366"	"chrome"	"109.0.0"	"FALSE"	"Windows 10"	"60.82"	"008"	n/a	n/a	n/a	n/a	n/a	n/a	n/a	n/a	n/a	n/a	n/a	"NULL"	"FALSE"	"list()"	"list()"	"list()"	n/a	n/a	n/a	n/a	n/a	n/a	n/a	n/a	n/a	n/a	n/a
n/a	"html-keyboard-response"	"36"	"204101"	"0.0-4.0-3.0-1.0"	"2bhdeq"	"600"	"1366"	"chrome"	"109.0.0"	"FALSE"	"Windows 10"	"60.82"	"008"	n/a	n/a	n/a	n/a	n/a	n/a	n/a	n/a	n/a	n/a	"4198"	"enter"	n/a	"NULL"	"NULL"	"NULL"	"<p><b>Practice</b></p><p>In this part, two red lines will appear side by side.</p><p>Your task is to tell <b>which line is longer</b> in length, regardless of their orientation, as fast as you can, and without making errors.</p><p>Don't get distracted by the orientation of the lines!</p><p>Press <b>the LEFT or the RIGHT arrow</b> to indicate which <b>line is the longer one.</b></p><div style='float: center'><img src='materials/instructions/VerticalHorizontal_Demo.png' height='300'></img><p><img src='utils/answer/answer_leftright_keyboard.PNG' height='150'></img></p><p class='small'>In this example, the correct answer is the <b>LEFT arrow</b>.</p></div><p>Are you ready? <b>Press ENTER to start</b></p>"	n/a	n/a	n/a	n/a	n/a	n/a	n/a	n/a	n/a	n/a
n/a	"html-keyboard-response"	"37"	"205788"	"0.0-4.0-3.0-2.0-0.0"	"2bhdeq"	"600"	"1366"	"chrome"	"109.0.0"	"FALSE"	"Windows 10"	"60.82"	"008"	n/a	n/a	n/a	n/a	n/a	n/a	"fixation"	n/a	n/a	n/a	n/a	"NULL"	n/a	"NULL"	"NULL"	"NULL"	"<p style=\"color: black; font-size: 80px; padding-left: 2%; padding-right: 26%; padding-top: 35%; padding-bottom: 11%\">+</p>"	"1162"	n/a	n/a	n/a	n/a	n/a	n/a	n/a	n/a	n/a
n/a	"image-keyboard-response"	"38"	"206291"	"0.0-4.0-3.0-2.0-1.0"	"2bhdeq"	"600"	"1366"	"chrome"	"109.0.0"	"FALSE"	"Windows 10"	"60.82"	"008"	n/a	n/a	n/a	n/a	n/a	n/a	"Trial"	n/a	n/a	n/a	"501"	"arrowright"	n/a	"NULL"	"NULL"	"NULL"	"stimuli/VerticalHorizontal_0000000_-0.9000.png"	n/a	"VerticalHorizontal"	"arrowright"	"1687"	"TRUE"	"VerticalHorizontal"	"000000000000"	"-0.900000000"	"1"	"13"
n/a	"html-keyboard-response"	"39"	"207335"	"0.0-4.0-3.0-2.0-0.1"	"2bhdeq"	"600"	"1366"	"chrome"	"109.0.0"	"FALSE"	"Windows 10"	"60.82"	"008"	n/a	n/a	n/a	n/a	n/a	n/a	"fixation"	n/a	n/a	n/a	n/a	"NULL"	n/a	"NULL"	"NULL"	"NULL"	"<p style=\"color: black; font-size: 80px; padding-left: 34%; padding-right: 38%; padding-top: 31%; padding-bottom: 21%\">+</p>"	"1026"	n/a	n/a	n/a	n/a	n/a	n/a	n/a	n/a	n/a
n/a	"image-keyboard-response"	"40"	"207757"	"0.0-4.0-3.0-2.0-1.1"	"2bhdeq"	"600"	"1366"	"chrome"	"109.0.0"	"FALSE"	"Windows 10"	"60.82"	"008"	n/a	n/a	n/a	n/a	n/a	n/a	"Trial"	n/a	n/a	n/a	"421"	"arrowleft"	n/a	"NULL"	"NULL"	"NULL"	"stimuli/VerticalHorizontal_0000000_0.90000.png"	n/a	"VerticalHorizontal"	"arrowleft"	"1044"	"TRUE"	"VerticalHorizontal"	"000000000000"	"0.9000000000"	"1"	"14"
n/a	"html-keyboard-response"	"41"	"209092"	"0.0-4.0-3.0-2.0-0.2"	"2bhdeq"	"600"	"1366"	"chrome"	"109.0.0"	"FALSE"	"Windows 10"	"60.82"	"008"	n/a	n/a	n/a	n/a	n/a	n/a	"fixation"	n/a	n/a	n/a	n/a	"NULL"	n/a	"NULL"	"NULL"	"NULL"	"<p style=\"color: black; font-size: 80px; padding-left: 5%; padding-right: 4%; padding-top: 26%; padding-bottom: 34%\">+</p>"	"1321"	n/a	n/a	n/a	n/a	n/a	n/a	n/a	n/a	n/a
n/a	"image-keyboard-response"	"42"	"209515"	"0.0-4.0-3.0-2.0-1.2"	"2bhdeq"	"600"	"1366"	"chrome"	"109.0.0"	"FALSE"	"Windows 10"	"60.82"	"008"	n/a	n/a	n/a	n/a	n/a	n/a	"Trial"	n/a	n/a	n/a	"422"	"arrowright"	n/a	"NULL"	"NULL"	"NULL"	"stimuli/VerticalHorizontal_-330000_-0.9000.png"	n/a	"VerticalHorizontal"	"arrowright"	"1335"	"TRUE"	"VerticalHorizontal"	"-33000000000"	"-0.900000000"	"1"	"15"
n/a	"html-keyboard-response"	"43"	"210669"	"0.0-4.0-3.0-2.0-0.3"	"2bhdeq"	"600"	"1366"	"chrome"	"109.0.0"	"FALSE"	"Windows 10"	"60.82"	"008"	n/a	n/a	n/a	n/a	n/a	n/a	"fixation"	n/a	n/a	n/a	n/a	"NULL"	n/a	"NULL"	"NULL"	"NULL"	"<p style=\"color: black; font-size: 80px; padding-left: 39%; padding-right: 49%; padding-top: 23%; padding-bottom: 49%\">+</p>"	"1132"	n/a	n/a	n/a	n/a	n/a	n/a	n/a	n/a	n/a
n/a	"image-keyboard-response"	"44"	"211185"	"0.0-4.0-3.0-2.0-1.3"	"2bhdeq"	"600"	"1366"	"chrome"	"109.0.0"	"FALSE"	"Windows 10"	"60.82"	"008"	n/a	n/a	n/a	n/a	n/a	n/a	"Trial"	n/a	n/a	n/a	"513"	"arrowleft"	n/a	"NULL"	"NULL"	"NULL"	"stimuli/VerticalHorizontal_3300000_0.90000.png"	n/a	"VerticalHorizontal"	"arrowleft"	"1154"	"TRUE"	"VerticalHorizontal"	"330000000000"	"0.9000000000"	"1"	"16"
n/a	"html-keyboard-response"	"45"	"212460"	"0.0-4.0-3.0-2.0-0.4"	"2bhdeq"	"600"	"1366"	"chrome"	"109.0.0"	"FALSE"	"Windows 10"	"60.82"	"008"	n/a	n/a	n/a	n/a	n/a	n/a	"fixation"	n/a	n/a	n/a	n/a	"NULL"	n/a	"NULL"	"NULL"	"NULL"	"<p style=\"color: black; font-size: 80px; padding-left: 37%; padding-right: 7%; padding-top: 40%; padding-bottom: 40%\">+</p>"	"1255"	n/a	n/a	n/a	n/a	n/a	n/a	n/a	n/a	n/a
n/a	"image-keyboard-response"	"46"	"212932"	"0.0-4.0-3.0-2.0-1.4"	"2bhdeq"	"600"	"1366"	"chrome"	"109.0.0"	"FALSE"	"Windows 10"	"60.82"	"008"	n/a	n/a	n/a	n/a	n/a	n/a	"Trial"	n/a	n/a	n/a	"471"	"arrowleft"	n/a	"NULL"	"NULL"	"NULL"	"stimuli/VerticalHorizontal_-330000_0.90000.png"	n/a	"VerticalHorizontal"	"arrowleft"	"1275"	"TRUE"	"VerticalHorizontal"	"-33000000000"	"0.9000000000"	"1"	"17"
n/a	"html-keyboard-response"	"47"	"214149"	"0.0-4.0-3.0-2.0-0.5"	"2bhdeq"	"600"	"1366"	"chrome"	"109.0.0"	"FALSE"	"Windows 10"	"60.82"	"008"	n/a	n/a	n/a	n/a	n/a	n/a	"fixation"	n/a	n/a	n/a	n/a	"NULL"	n/a	"NULL"	"NULL"	"NULL"	"<p style=\"color: black; font-size: 80px; padding-left: 4%; padding-right: 22%; padding-top: 47%; padding-bottom: 1%\">+</p>"	"1207"	n/a	n/a	n/a	n/a	n/a	n/a	n/a	n/a	n/a
n/a	"image-keyboard-response"	"48"	"214498"	"0.0-4.0-3.0-2.0-1.5"	"2bhdeq"	"600"	"1366"	"chrome"	"109.0.0"	"FALSE"	"Windows 10"	"60.82"	"008"	n/a	n/a	n/a	n/a	n/a	n/a	"Trial"	n/a	n/a	n/a	"348"	"arrowright"	n/a	"NULL"	"NULL"	"NULL"	"stimuli/VerticalHorizontal_3300000_-0.9000.png"	n/a	"VerticalHorizontal"	"arrowright"	"1217"	"TRUE"	"VerticalHorizontal"	"330000000000"	"-0.900000000"	"1"	"18"
n/a	"html-button-response"	"49"	"215756"	"0.0-4.0-3.0-3.0"	"2bhdeq"	"600"	"1366"	"chrome"	"109.0.0"	"FALSE"	"Windows 10"	"60.82"	"008"	n/a	n/a	n/a	n/a	n/a	n/a	"practice_block_results"	n/a	n/a	n/a	"1257"	"0"	n/a	"NULL"	"NULL"	"NULL"	"<p style='color:rgb(76,175,80);'> Correct Responses: <b>100.00%</b></p><hr><p style='color:rgb(233,30,99);'> Average Response Time: <b>446.00</b> ms.</p>"	n/a	n/a	n/a	n/a	n/a	n/a	n/a	n/a	n/a	n/a
n/a	"html-button-response"	"50"	"298922"	"0.0-4.0-4.0"	"2bhdeq"	"600"	"1366"	"chrome"	"109.0.0"	"FALSE"	"Windows 10"	"60.82"	"008"	n/a	n/a	n/a	n/a	n/a	n/a	"practice_debrief"	n/a	n/a	n/a	"82647"	"0"	n/a	"NULL"	"NULL"	"NULL"	"<p><b>TRAINING COMPLETED</b></p><p>In the next phase, there will be more trials, and some might be harder too.<br> Moreover, after each illusion block, a <b>score</b> will be calculated based on speed (time you took to answer) and accuracy (number of errors).</p><p>Try to keep up a high score!</p><br><p>Note that it can be <i>really</i> challenging at times, so you will need to rely on your <b>intuition</b> and gut feeling to answer as fast as you can without making errors.</p><p>Each illusion block will be repeated two times (so that you have the opportunity to improve your score), but the order of the blocks is random.</p><p>Remember, your goal is to be as <b>fast</b> and <b>accurate</b> as possible. Good luck!</p><br>"	n/a	n/a	n/a	n/a	n/a	n/a	n/a	n/a	n/a	n/a
"TRUE"	"preload"	"51"	"299114"	"0.0-5.0-0.0"	"2bhdeq"	"600"	"1366"	"chrome"	"109.0.0"	"FALSE"	"Windows 10"	"60.82"	"008"	n/a	n/a	n/a	n/a	n/a	n/a	n/a	n/a	n/a	n/a	n/a	"NULL"	"FALSE"	"list()"	"list()"	"list()"	n/a	n/a	n/a	n/a	n/a	n/a	n/a	n/a	n/a	n/a	n/a
n/a	"html-keyboard-response"	"52"	"303147"	"0.0-5.0-1.0"	"2bhdeq"	"600"	"1366"	"chrome"	"109.0.0"	"FALSE"	"Windows 10"	"60.82"	"008"	n/a	n/a	n/a	n/a	n/a	n/a	n/a	n/a	n/a	n/a	"4032"	"enter"	n/a	"NULL"	"NULL"	"NULL"	"<p><b>Part 1/6</b></p><p>In this part, two horizontal red lines will appear one above the other.</p><p>Your task is to select which <b>line is longer</b> in length as fast as you can, without making errors.</p><p>Don't get distracted by the surrounding black arrows at the end of the red lines!</p><p>Press <b>the UP or the DOWN arrow</b> to indicate where is the longer <b>red line.</b></p><div style='float: center'><img src='materials/instructions/MullerLyer_Demo.png' height='300'></img><p><img src='utils/answer/answer_updown_keyboard.PNG' height='150'></img></p><p class='small'>In this example, the correct answer is the <b>UP arrow</b>.</p></div><p>Are you ready? <b>Press ENTER to start</b></p>"	n/a	n/a	n/a	n/a	n/a	n/a	n/a	n/a	n/a	n/a
n/a	"html-keyboard-response"	"53"	"305021"	"0.0-5.0-2.0-0.0"	"2bhdeq"	"600"	"1366"	"chrome"	"109.0.0"	"FALSE"	"Windows 10"	"60.82"	"008"	n/a	n/a	n/a	n/a	n/a	n/a	"fixation"	n/a	n/a	n/a	n/a	"NULL"	n/a	"NULL"	"NULL"	"NULL"	"<p style=\"color: black; font-size: 80px; padding-left: 0%; padding-right: 50%; padding-top: 31%; padding-bottom: 35%\">+</p>"	"1348"	n/a	n/a	n/a	n/a	n/a	n/a	n/a	n/a	n/a
n/a	"image-keyboard-response"	"54"	"305445"	"0.0-5.0-2.0-1.0"	"2bhdeq"	"600"	"1366"	"chrome"	"109.0.0"	"FALSE"	"Windows 10"	"60.82"	"008"	n/a	n/a	n/a	n/a	n/a	n/a	"Trial"	n/a	n/a	n/a	"424"	"arrowup"	n/a	"NULL"	"NULL"	"NULL"	"stimuli/MullerLyer_-20.04286_0.14541.png"	n/a	"MullerLyer"	"arrowup"	"1874"	"TRUE"	"MullerLyer"	"-20.04286000"	"0.1454100000"	"1"	"19"
n/a	"html-keyboard-response"	"55"	"306895"	"0.0-5.0-2.0-0.1"	"2bhdeq"	"600"	"1366"	"chrome"	"109.0.0"	"FALSE"	"Windows 10"	"60.82"	"008"	n/a	n/a	n/a	n/a	n/a	n/a	"fixation"	n/a	n/a	n/a	n/a	"NULL"	n/a	"NULL"	"NULL"	"NULL"	"<p style=\"color: black; font-size: 80px; padding-left: 35%; padding-right: 12%; padding-top: 42%; padding-bottom: 7%\">+</p>"	"1435"	n/a	n/a	n/a	n/a	n/a	n/a	n/a	n/a	n/a
n/a	"image-keyboard-response"	"56"	"307359"	"0.0-5.0-2.0-1.1"	"2bhdeq"	"600"	"1366"	"chrome"	"109.0.0"	"FALSE"	"Windows 10"	"60.82"	"008"	n/a	n/a	n/a	n/a	n/a	n/a	"Trial"	n/a	n/a	n/a	"463"	"arrowdown"	n/a	"NULL"	"NULL"	"NULL"	"stimuli/MullerLyer_-2.3000_-0.23665.png"	n/a	"MullerLyer"	"arrowdown"	"1450"	"TRUE"	"MullerLyer"	"-2.300000000"	"-0.236650000"	"1"	"20"
n/a	"html-keyboard-response"	"57"	"308374"	"0.0-5.0-2.0-0.2"	"2bhdeq"	"600"	"1366"	"chrome"	"109.0.0"	"FALSE"	"Windows 10"	"60.82"	"008"	n/a	n/a	n/a	n/a	n/a	n/a	"fixation"	n/a	n/a	n/a	n/a	"NULL"	n/a	"NULL"	"NULL"	"NULL"	"<p style=\"color: black; font-size: 80px; padding-left: 26%; padding-right: 8%; padding-top: 16%; padding-bottom: 35%\">+</p>"	"1012"	n/a	n/a	n/a	n/a	n/a	n/a	n/a	n/a	n/a
n/a	"image-keyboard-response"	"58"	"308786"	"0.0-5.0-2.0-1.2"	"2bhdeq"	"600"	"1366"	"chrome"	"109.0.0"	"FALSE"	"Windows 10"	"60.82"	"008"	n/a	n/a	n/a	n/a	n/a	n/a	"Trial"	n/a	n/a	n/a	"411"	"arrowup"	n/a	"NULL"	"NULL"	"NULL"	"stimuli/MullerLyer_-2.3000_0.23665.png"	n/a	"MullerLyer"	"arrowup"	"1015"	"TRUE"	"MullerLyer"	"-2.300000000"	"0.2366500000"	"1"	"21"
n/a	"html-keyboard-response"	"59"	"310128"	"0.0-5.0-2.0-0.3"	"2bhdeq"	"600"	"1366"	"chrome"	"109.0.0"	"FALSE"	"Windows 10"	"60.82"	"008"	n/a	n/a	n/a	n/a	n/a	n/a	"fixation"	n/a	n/a	n/a	n/a	"NULL"	n/a	"NULL"	"NULL"	"NULL"	"<p style=\"color: black; font-size: 80px; padding-left: 12%; padding-right: 42%; padding-top: 27%; padding-bottom: 1%\">+</p>"	"1336"	n/a	n/a	n/a	n/a	n/a	n/a	n/a	n/a	n/a
n/a	"image-keyboard-response"	"60"	"310469"	"0.0-5.0-2.0-1.3"	"2bhdeq"	"600"	"1366"	"chrome"	"109.0.0"	"FALSE"	"Windows 10"	"60.82"	"008"	n/a	n/a	n/a	n/a	n/a	n/a	"Trial"	n/a	n/a	n/a	"339"	"arrowup"	n/a	"NULL"	"NULL"	"NULL"	"stimuli/MullerLyer_2.30000_0.14541.png"	n/a	"MullerLyer"	"arrowup"	"1342"	"TRUE"	"MullerLyer"	"2.3000000000"	"0.1454100000"	"1"	"22"
n/a	"html-keyboard-response"	"61"	"311678"	"0.0-5.0-2.0-0.4"	"2bhdeq"	"600"	"1366"	"chrome"	"109.0.0"	"FALSE"	"Windows 10"	"60.82"	"008"	n/a	n/a	n/a	n/a	n/a	n/a	"fixation"	n/a	n/a	n/a	n/a	"NULL"	n/a	"NULL"	"NULL"	"NULL"	"<p style=\"color: black; font-size: 80px; padding-left: 46%; padding-right: 4%; padding-top: 17%; padding-bottom: 38%\">+</p>"	"1198"	n/a	n/a	n/a	n/a	n/a	n/a	n/a	n/a	n/a
n/a	"image-keyboard-response"	"62"	"312159"	"0.0-5.0-2.0-1.4"	"2bhdeq"	"600"	"1366"	"chrome"	"109.0.0"	"FALSE"	"Windows 10"	"60.82"	"008"	n/a	n/a	n/a	n/a	n/a	n/a	"Trial"	n/a	n/a	n/a	"479"	"arrowdown"	n/a	"NULL"	"NULL"	"NULL"	"stimuli/MullerLyer_-20.04286_-0.23665.png"	n/a	"MullerLyer"	"arrowdown"	"1209"	"TRUE"	"MullerLyer"	"-20.04286000"	"-0.236650000"	"1"	"23"
n/a	"html-keyboard-response"	"63"	"313548"	"0.0-5.0-2.0-0.5"	"2bhdeq"	"600"	"1366"	"chrome"	"109.0.0"	"FALSE"	"Windows 10"	"60.82"	"008"	n/a	n/a	n/a	n/a	n/a	n/a	"fixation"	n/a	n/a	n/a	n/a	"NULL"	n/a	"NULL"	"NULL"	"NULL"	"<p style=\"color: black; font-size: 80px; padding-left: 33%; padding-right: 4%; padding-top: 12%; padding-bottom: 16%\">+</p>"	"1375"	n/a	n/a	n/a	n/a	n/a	n/a	n/a	n/a	n/a
n/a	"image-keyboard-response"	"64"	"315013"	"0.0-5.0-2.0-1.5"	"2bhdeq"	"600"	"1366"	"chrome"	"109.0.0"	"FALSE"	"Windows 10"	"60.82"	"008"	n/a	n/a	n/a	n/a	n/a	n/a	"Trial"	n/a	n/a	n/a	"1464"	"arrowdown"	n/a	"NULL"	"NULL"	"NULL"	"stimuli/MullerLyer_8.21429_-0.23665.png"	n/a	"MullerLyer"	"arrowdown"	"1389"	"TRUE"	"MullerLyer"	"8.2142900000"	"-0.236650000"	"1"	"24"
n/a	"html-keyboard-response"	"65"	"316177"	"0.0-5.0-2.0-0.6"	"2bhdeq"	"600"	"1366"	"chrome"	"109.0.0"	"FALSE"	"Windows 10"	"60.82"	"008"	n/a	n/a	n/a	n/a	n/a	n/a	"fixation"	n/a	n/a	n/a	n/a	"NULL"	n/a	"NULL"	"NULL"	"NULL"	"<p style=\"color: black; font-size: 80px; padding-left: 40%; padding-right: 4%; padding-top: 0%; padding-bottom: 20%\">+</p>"	"1143"	n/a	n/a	n/a	n/a	n/a	n/a	n/a	n/a	n/a
n/a	"image-keyboard-response"	"66"	"316757"	"0.0-5.0-2.0-1.6"	"2bhdeq"	"600"	"1366"	"chrome"	"109.0.0"	"FALSE"	"Windows 10"	"60.82"	"008"	n/a	n/a	n/a	n/a	n/a	n/a	"Trial"	n/a	n/a	n/a	"567"	"arrowup"	n/a	"NULL"	"NULL"	"NULL"	"stimuli/MullerLyer_-8.21429_0.35000.png"	n/a	"MullerLyer"	"arrowup"	"1164"	"TRUE"	"MullerLyer"	"-8.214290000"	"0.3500000000"	"1"	"25"
n/a	"html-keyboard-response"	"67"	"318013"	"0.0-5.0-2.0-0.7"	"2bhdeq"	"600"	"1366"	"chrome"	"109.0.0"	"FALSE"	"Windows 10"	"60.82"	"008"	n/a	n/a	n/a	n/a	n/a	n/a	"fixation"	n/a	n/a	n/a	n/a	"NULL"	n/a	"NULL"	"NULL"	"NULL"	"<p style=\"color: black; font-size: 80px; padding-left: 32%; padding-right: 19%; padding-top: 26%; padding-bottom: 24%\">+</p>"	"1238"	n/a	n/a	n/a	n/a	n/a	n/a	n/a	n/a	n/a
n/a	"image-keyboard-response"	"68"	"318601"	"0.0-5.0-2.0-1.7"	"2bhdeq"	"600"	"1366"	"chrome"	"109.0.0"	"FALSE"	"Windows 10"	"60.82"	"008"	n/a	n/a	n/a	n/a	n/a	n/a	"Trial"	n/a	n/a	n/a	"587"	"arrowdown"	n/a	"NULL"	"NULL"	"NULL"	"stimuli/MullerLyer_-2.3000_-0.07627.png"	n/a	"MullerLyer"	"arrowdown"	"1256"	"TRUE"	"MullerLyer"	"-2.300000000"	"-0.076270000"	"1"	"26"
n/a	"html-keyboard-response"	"69"	"319740"	"0.0-5.0-2.0-0.8"	"2bhdeq"	"600"	"1366"	"chrome"	"109.0.0"	"FALSE"	"Windows 10"	"60.82"	"008"	n/a	n/a	n/a	n/a	n/a	n/a	"fixation"	n/a	n/a	n/a	n/a	"NULL"	n/a	"NULL"	"NULL"	"NULL"	"<p style=\"color: black; font-size: 80px; padding-left: 31%; padding-right: 20%; padding-top: 1%; padding-bottom: 29%\">+</p>"	"1131"	n/a	n/a	n/a	n/a	n/a	n/a	n/a	n/a	n/a
n/a	"image-keyboard-response"	"70"	"320219"	"0.0-5.0-2.0-1.8"	"2bhdeq"	"600"	"1366"	"chrome"	"109.0.0"	"FALSE"	"Windows 10"	"60.82"	"008"	n/a	n/a	n/a	n/a	n/a	n/a	"Trial"	n/a	n/a	n/a	"478"	"arrowup"	n/a	"NULL"	"NULL"	"NULL"	"stimuli/MullerLyer_-20.04286_0.23665.png"	n/a	"MullerLyer"	"arrowup"	"1139"	"TRUE"	"MullerLyer"	"-20.04286000"	"0.2366500000"	"1"	"27"
n/a	"html-keyboard-response"	"71"	"321311"	"0.0-5.0-2.0-0.9"	"2bhdeq"	"600"	"1366"	"chrome"	"109.0.0"	"FALSE"	"Windows 10"	"60.82"	"008"	n/a	n/a	n/a	n/a	n/a	n/a	"fixation"	n/a	n/a	n/a	n/a	"NULL"	n/a	"NULL"	"NULL"	"NULL"	"<p style=\"color: black; font-size: 80px; padding-left: 21%; padding-right: 17%; padding-top: 2%; padding-bottom: 13%\">+</p>"	"1087"	n/a	n/a	n/a	n/a	n/a	n/a	n/a	n/a	n/a
n/a	"image-keyboard-response"	"72"	"322711"	"0.0-5.0-2.0-1.9"	"2bhdeq"	"600"	"1366"	"chrome"	"109.0.0"	"FALSE"	"Windows 10"	"60.82"	"008"	n/a	n/a	n/a	n/a	n/a	n/a	"Trial"	n/a	n/a	n/a	"1399"	"arrowup"	n/a	"NULL"	"NULL"	"NULL"	"stimuli/MullerLyer_14.12857_0.23665.png"	n/a	"MullerLyer"	"arrowup"	"1092"	"TRUE"	"MullerLyer"	"14.128570000"	"0.2366500000"	"1"	"28"
n/a	"html-keyboard-response"	"73"	"323920"	"0.0-5.0-2.0-0.10"	"2bhdeq"	"600"	"1366"	"chrome"	"109.0.0"	"FALSE"	"Windows 10"	"60.82"	"008"	n/a	n/a	n/a	n/a	n/a	n/a	"fixation"	n/a	n/a	n/a	n/a	"NULL"	n/a	"NULL"	"NULL"	"NULL"	"<p style=\"color: black; font-size: 80px; padding-left: 26%; padding-right: 22%; padding-top: 32%; padding-bottom: 42%\">+</p>"	"1203"	n/a	n/a	n/a	n/a	n/a	n/a	n/a	n/a	n/a
n/a	"image-keyboard-response"	"74"	"324705"	"0.0-5.0-2.0-1.10"	"2bhdeq"	"600"	"1366"	"chrome"	"109.0.0"	"FALSE"	"Windows 10"	"60.82"	"008"	n/a	n/a	n/a	n/a	n/a	n/a	"Trial"	n/a	n/a	n/a	"784"	"arrowup"	n/a	"NULL"	"NULL"	"NULL"	"stimuli/MullerLyer_8.21429_0.35000.png"	n/a	"MullerLyer"	"arrowup"	"1209"	"TRUE"	"MullerLyer"	"8.2142900000"	"0.3500000000"	"1"	"29"
n/a	"html-keyboard-response"	"75"	"326138"	"0.0-5.0-2.0-0.11"	"2bhdeq"	"600"	"1366"	"chrome"	"109.0.0"	"FALSE"	"Windows 10"	"60.82"	"008"	n/a	n/a	n/a	n/a	n/a	n/a	"fixation"	n/a	n/a	n/a	n/a	"NULL"	n/a	"NULL"	"NULL"	"NULL"	"<p style=\"color: black; font-size: 80px; padding-left: 49%; padding-right: 19%; padding-top: 28%; padding-bottom: 33%\">+</p>"	"1420"	n/a	n/a	n/a	n/a	n/a	n/a	n/a	n/a	n/a
n/a	"image-keyboard-response"	"76"	"326681"	"0.0-5.0-2.0-1.11"	"2bhdeq"	"600"	"1366"	"chrome"	"109.0.0"	"FALSE"	"Windows 10"	"60.82"	"008"	n/a	n/a	n/a	n/a	n/a	n/a	"Trial"	n/a	n/a	n/a	"541"	"arrowup"	n/a	"NULL"	"NULL"	"NULL"	"stimuli/MullerLyer_8.21429_0.23665.png"	n/a	"MullerLyer"	"arrowup"	"1433"	"TRUE"	"MullerLyer"	"8.2142900000"	"0.2366500000"	"1"	"30"
n/a	"html-keyboard-response"	"77"	"327740"	"0.0-5.0-2.0-0.12"	"2bhdeq"	"600"	"1366"	"chrome"	"109.0.0"	"FALSE"	"Windows 10"	"60.82"	"008"	n/a	n/a	n/a	n/a	n/a	n/a	"fixation"	n/a	n/a	n/a	n/a	"NULL"	n/a	"NULL"	"NULL"	"NULL"	"<p style=\"color: black; font-size: 80px; padding-left: 46%; padding-right: 30%; padding-top: 47%; padding-bottom: 35%\">+</p>"	"1040"	n/a	n/a	n/a	n/a	n/a	n/a	n/a	n/a	n/a
n/a	"image-keyboard-response"	"78"	"328998"	"0.0-5.0-2.0-1.12"	"2bhdeq"	"600"	"1366"	"chrome"	"109.0.0"	"FALSE"	"Windows 10"	"60.82"	"008"	n/a	n/a	n/a	n/a	n/a	n/a	"Trial"	n/a	n/a	n/a	"1257"	"arrowup"	n/a	"NULL"	"NULL"	"NULL"	"stimuli/MullerLyer_-14.12857_0.23665.png"	n/a	"MullerLyer"	"arrowup"	"1059"	"TRUE"	"MullerLyer"	"-14.12857000"	"0.2366500000"	"1"	"31"
n/a	"html-keyboard-response"	"79"	"330423"	"0.0-5.0-2.0-0.13"	"2bhdeq"	"600"	"1366"	"chrome"	"109.0.0"	"FALSE"	"Windows 10"	"60.82"	"008"	n/a	n/a	n/a	n/a	n/a	n/a	"fixation"	n/a	n/a	n/a	n/a	"NULL"	n/a	"NULL"	"NULL"	"NULL"	"<p style=\"color: black; font-size: 80px; padding-left: 15%; padding-right: 2%; padding-top: 40%; padding-bottom: 50%\">+</p>"	"1417"	n/a	n/a	n/a	n/a	n/a	n/a	n/a	n/a	n/a
n/a	"image-keyboard-response"	"80"	"332777"	"0.0-5.0-2.0-1.13"	"2bhdeq"	"600"	"1366"	"chrome"	"109.0.0"	"FALSE"	"Windows 10"	"60.82"	"008"	n/a	n/a	n/a	n/a	n/a	n/a	"Trial"	n/a	n/a	n/a	"2353"	"arrowdown"	n/a	"NULL"	"NULL"	"NULL"	"stimuli/MullerLyer_-2.3000_0.07627.png"	n/a	"MullerLyer"	"arrowup"	"1425"	"FALSE"	"MullerLyer"	"-2.300000000"	"0.0762700000"	"1"	"32"
n/a	"html-keyboard-response"	"81"	"334086"	"0.0-5.0-2.0-0.14"	"2bhdeq"	"600"	"1366"	"chrome"	"109.0.0"	"FALSE"	"Windows 10"	"60.82"	"008"	n/a	n/a	n/a	n/a	n/a	n/a	"fixation"	n/a	n/a	n/a	n/a	"NULL"	n/a	"NULL"	"NULL"	"NULL"	"<p style=\"color: black; font-size: 80px; padding-left: 9%; padding-right: 17%; padding-top: 6%; padding-bottom: 5%\">+</p>"	"1296"	n/a	n/a	n/a	n/a	n/a	n/a	n/a	n/a	n/a
n/a	"image-keyboard-response"	"82"	"335526"	"0.0-5.0-2.0-1.14"	"2bhdeq"	"600"	"1366"	"chrome"	"109.0.0"	"FALSE"	"Windows 10"	"60.82"	"008"	n/a	n/a	n/a	n/a	n/a	n/a	"Trial"	n/a	n/a	n/a	"1439"	"arrowdown"	n/a	"NULL"	"NULL"	"NULL"	"stimuli/MullerLyer_2.30000_-0.14541.png"	n/a	"MullerLyer"	"arrowdown"	"1309"	"TRUE"	"MullerLyer"	"2.3000000000"	"-0.145410000"	"1"	"33"
n/a	"html-keyboard-response"	"83"	"336659"	"0.0-5.0-2.0-0.15"	"2bhdeq"	"600"	"1366"	"chrome"	"109.0.0"	"FALSE"	"Windows 10"	"60.82"	"008"	n/a	n/a	n/a	n/a	n/a	n/a	"fixation"	n/a	n/a	n/a	n/a	"NULL"	n/a	"NULL"	"NULL"	"NULL"	"<p style=\"color: black; font-size: 80px; padding-left: 6%; padding-right: 50%; padding-top: 30%; padding-bottom: 32%\">+</p>"	"1114"	n/a	n/a	n/a	n/a	n/a	n/a	n/a	n/a	n/a
n/a	"image-keyboard-response"	"84"	"337860"	"0.0-5.0-2.0-1.15"	"2bhdeq"	"600"	"1366"	"chrome"	"109.0.0"	"FALSE"	"Windows 10"	"60.82"	"008"	n/a	n/a	n/a	n/a	n/a	n/a	"Trial"	n/a	n/a	n/a	"1200"	"arrowdown"	n/a	"NULL"	"NULL"	"NULL"	"stimuli/MullerLyer_14.12857_-0.3500.png"	n/a	"MullerLyer"	"arrowdown"	"1133"	"TRUE"	"MullerLyer"	"14.128570000"	"-0.350000000"	"1"	"34"
n/a	"html-keyboard-response"	"85"	"339006"	"0.0-5.0-2.0-0.16"	"2bhdeq"	"600"	"1366"	"chrome"	"109.0.0"	"FALSE"	"Windows 10"	"60.82"	"008"	n/a	n/a	n/a	n/a	n/a	n/a	"fixation"	n/a	n/a	n/a	n/a	"NULL"	n/a	"NULL"	"NULL"	"NULL"	"<p style=\"color: black; font-size: 80px; padding-left: 46%; padding-right: 27%; padding-top: 40%; padding-bottom: 28%\">+</p>"	"1138"	n/a	n/a	n/a	n/a	n/a	n/a	n/a	n/a	n/a
n/a	"image-keyboard-response"	"86"	"340701"	"0.0-5.0-2.0-1.16"	"2bhdeq"	"600"	"1366"	"chrome"	"109.0.0"	"FALSE"	"Windows 10"	"60.82"	"008"	n/a	n/a	n/a	n/a	n/a	n/a	"Trial"	n/a	n/a	n/a	"1694"	"arrowup"	n/a	"NULL"	"NULL"	"NULL"	"stimuli/MullerLyer_14.12857_0.35000.png"	n/a	"MullerLyer"	"arrowup"	"1146"	"TRUE"	"MullerLyer"	"14.128570000"	"0.3500000000"	"1"	"35"
n/a	"html-keyboard-response"	"87"	"341865"	"0.0-5.0-2.0-0.17"	"2bhdeq"	"600"	"1366"	"chrome"	"109.0.0"	"FALSE"	"Windows 10"	"60.82"	"008"	n/a	n/a	n/a	n/a	n/a	n/a	"fixation"	n/a	n/a	n/a	n/a	"NULL"	n/a	"NULL"	"NULL"	"NULL"	"<p style=\"color: black; font-size: 80px; padding-left: 23%; padding-right: 12%; padding-top: 17%; padding-bottom: 35%\">+</p>"	"1155"	n/a	n/a	n/a	n/a	n/a	n/a	n/a	n/a	n/a
n/a	"image-keyboard-response"	"88"	"343146"	"0.0-5.0-2.0-1.17"	"2bhdeq"	"600"	"1366"	"chrome"	"109.0.0"	"FALSE"	"Windows 10"	"60.82"	"008"	n/a	n/a	n/a	n/a	n/a	n/a	"Trial"	n/a	n/a	n/a	"1279"	"arrowdown"	n/a	"NULL"	"NULL"	"NULL"	"stimuli/MullerLyer_8.21429_-0.14541.png"	n/a	"MullerLyer"	"arrowdown"	"1164"	"TRUE"	"MullerLyer"	"8.2142900000"	"-0.145410000"	"1"	"36"
n/a	"html-keyboard-response"	"89"	"344396"	"0.0-5.0-2.0-0.18"	"2bhdeq"	"600"	"1366"	"chrome"	"109.0.0"	"FALSE"	"Windows 10"	"60.82"	"008"	n/a	n/a	n/a	n/a	n/a	n/a	"fixation"	n/a	n/a	n/a	n/a	"NULL"	n/a	"NULL"	"NULL"	"NULL"	"<p style=\"color: black; font-size: 80px; padding-left: 48%; padding-right: 37%; padding-top: 38%; padding-bottom: 21%\">+</p>"	"1236"	n/a	n/a	n/a	n/a	n/a	n/a	n/a	n/a	n/a
n/a	"image-keyboard-response"	"90"	"345006"	"0.0-5.0-2.0-1.18"	"2bhdeq"	"600"	"1366"	"chrome"	"109.0.0"	"FALSE"	"Windows 10"	"60.82"	"008"	n/a	n/a	n/a	n/a	n/a	n/a	"Trial"	n/a	n/a	n/a	"609"	"arrowdown"	n/a	"NULL"	"NULL"	"NULL"	"stimuli/MullerLyer_-20.04286_-0.07627.png"	n/a	"MullerLyer"	"arrowdown"	"1250"	"TRUE"	"MullerLyer"	"-20.04286000"	"-0.076270000"	"1"	"37"
n/a	"html-keyboard-response"	"91"	"346174"	"0.0-5.0-2.0-0.19"	"2bhdeq"	"600"	"1366"	"chrome"	"109.0.0"	"FALSE"	"Windows 10"	"60.82"	"008"	n/a	n/a	n/a	n/a	n/a	n/a	"fixation"	n/a	n/a	n/a	n/a	"NULL"	n/a	"NULL"	"NULL"	"NULL"	"<p style=\"color: black; font-size: 80px; padding-left: 20%; padding-right: 23%; padding-top: 39%; padding-bottom: 4%\">+</p>"	"1153"	n/a	n/a	n/a	n/a	n/a	n/a	n/a	n/a	n/a
n/a	"image-keyboard-response"	"92"	"346694"	"0.0-5.0-2.0-1.19"	"2bhdeq"	"600"	"1366"	"chrome"	"109.0.0"	"FALSE"	"Windows 10"	"60.82"	"008"	n/a	n/a	n/a	n/a	n/a	n/a	"Trial"	n/a	n/a	n/a	"518"	"arrowup"	n/a	"NULL"	"NULL"	"NULL"	"stimuli/MullerLyer_-14.12857_0.14541.png"	n/a	"MullerLyer"	"arrowup"	"1168"	"TRUE"	"MullerLyer"	"-14.12857000"	"0.1454100000"	"1"	"38"
n/a	"html-keyboard-response"	"93"	"347962"	"0.0-5.0-2.0-0.20"	"2bhdeq"	"600"	"1366"	"chrome"	"109.0.0"	"FALSE"	"Windows 10"	"60.82"	"008"	n/a	n/a	n/a	n/a	n/a	n/a	"fixation"	n/a	n/a	n/a	n/a	"NULL"	n/a	"NULL"	"NULL"	"NULL"	"<p style=\"color: black; font-size: 80px; padding-left: 30%; padding-right: 37%; padding-top: 26%; padding-bottom: 38%\">+</p>"	"1252"	n/a	n/a	n/a	n/a	n/a	n/a	n/a	n/a	n/a
n/a	"image-keyboard-response"	"94"	"348808"	"0.0-5.0-2.0-1.20"	"2bhdeq"	"600"	"1366"	"chrome"	"109.0.0"	"FALSE"	"Windows 10"	"60.82"	"008"	n/a	n/a	n/a	n/a	n/a	n/a	"Trial"	n/a	n/a	n/a	"845"	"arrowdown"	n/a	"NULL"	"NULL"	"NULL"	"stimuli/MullerLyer_-2.3000_-0.14541.png"	n/a	"MullerLyer"	"arrowdown"	"1268"	"TRUE"	"MullerLyer"	"-2.300000000"	"-0.145410000"	"1"	"39"
n/a	"html-keyboard-response"	"95"	"349819"	"0.0-5.0-2.0-0.21"	"2bhdeq"	"600"	"1366"	"chrome"	"109.0.0"	"FALSE"	"Windows 10"	"60.82"	"008"	n/a	n/a	n/a	n/a	n/a	n/a	"fixation"	n/a	n/a	n/a	n/a	"NULL"	n/a	"NULL"	"NULL"	"NULL"	"<p style=\"color: black; font-size: 80px; padding-left: 2%; padding-right: 15%; padding-top: 27%; padding-bottom: 5%\">+</p>"	"1001"	n/a	n/a	n/a	n/a	n/a	n/a	n/a	n/a	n/a
n/a	"image-keyboard-response"	"96"	"350396"	"0.0-5.0-2.0-1.21"	"2bhdeq"	"600"	"1366"	"chrome"	"109.0.0"	"FALSE"	"Windows 10"	"60.82"	"008"	n/a	n/a	n/a	n/a	n/a	n/a	"Trial"	n/a	n/a	n/a	"575"	"arrowdown"	n/a	"NULL"	"NULL"	"NULL"	"stimuli/MullerLyer_-14.12857_-0.23665.png"	n/a	"MullerLyer"	"arrowdown"	"1011"	"TRUE"	"MullerLyer"	"-14.12857000"	"-0.236650000"	"1"	"40"
n/a	"html-keyboard-response"	"97"	"351496"	"0.0-5.0-2.0-0.22"	"2bhdeq"	"600"	"1366"	"chrome"	"109.0.0"	"FALSE"	"Windows 10"	"60.82"	"008"	n/a	n/a	n/a	n/a	n/a	n/a	"fixation"	n/a	n/a	n/a	n/a	"NULL"	n/a	"NULL"	"NULL"	"NULL"	"<p style=\"color: black; font-size: 80px; padding-left: 23%; padding-right: 25%; padding-top: 17%; padding-bottom: 38%\">+</p>"	"1089"	n/a	n/a	n/a	n/a	n/a	n/a	n/a	n/a	n/a
n/a	"image-keyboard-response"	"98"	"352034"	"0.0-5.0-2.0-1.22"	"2bhdeq"	"600"	"1366"	"chrome"	"109.0.0"	"FALSE"	"Windows 10"	"60.82"	"008"	n/a	n/a	n/a	n/a	n/a	n/a	"Trial"	n/a	n/a	n/a	"536"	"arrowdown"	n/a	"NULL"	"NULL"	"NULL"	"stimuli/MullerLyer_-14.12857_-0.14541.png"	n/a	"MullerLyer"	"arrowdown"	"1100"	"TRUE"	"MullerLyer"	"-14.12857000"	"-0.145410000"	"1"	"41"
n/a	"html-keyboard-response"	"99"	"353131"	"0.0-5.0-2.0-0.23"	"2bhdeq"	"600"	"1366"	"chrome"	"109.0.0"	"FALSE"	"Windows 10"	"60.82"	"008"	n/a	n/a	n/a	n/a	n/a	n/a	"fixation"	n/a	n/a	n/a	n/a	"NULL"	n/a	"NULL"	"NULL"	"NULL"	"<p style=\"color: black; font-size: 80px; padding-left: 28%; padding-right: 43%; padding-top: 16%; padding-bottom: 20%\">+</p>"	"1078"	n/a	n/a	n/a	n/a	n/a	n/a	n/a	n/a	n/a
n/a	"image-keyboard-response"	"100"	"353858"	"0.0-5.0-2.0-1.23"	"2bhdeq"	"600"	"1366"	"chrome"	"109.0.0"	"FALSE"	"Windows 10"	"60.82"	"008"	n/a	n/a	n/a	n/a	n/a	n/a	"Trial"	n/a	n/a	n/a	"725"	"arrowup"	n/a	"NULL"	"NULL"	"NULL"	"stimuli/MullerLyer_-20.04286_0.07627.png"	n/a	"MullerLyer"	"arrowup"	"1097"	"TRUE"	"MullerLyer"	"-20.04286000"	"0.0762700000"	"1"	"42"
n/a	"html-keyboard-response"	"101"	"355108"	"0.0-5.0-2.0-0.24"	"2bhdeq"	"600"	"1366"	"chrome"	"109.0.0"	"FALSE"	"Windows 10"	"60.82"	"008"	n/a	n/a	n/a	n/a	n/a	n/a	"fixation"	n/a	n/a	n/a	n/a	"NULL"	n/a	"NULL"	"NULL"	"NULL"	"<p style=\"color: black; font-size: 80px; padding-left: 6%; padding-right: 21%; padding-top: 35%; padding-bottom: 19%\">+</p>"	"1236"	n/a	n/a	n/a	n/a	n/a	n/a	n/a	n/a	n/a
n/a	"image-keyboard-response"	"102"	"356095"	"0.0-5.0-2.0-1.24"	"2bhdeq"	"600"	"1366"	"chrome"	"109.0.0"	"FALSE"	"Windows 10"	"60.82"	"008"	n/a	n/a	n/a	n/a	n/a	n/a	"Trial"	n/a	n/a	n/a	"986"	"arrowdown"	n/a	"NULL"	"NULL"	"NULL"	"stimuli/MullerLyer_-8.21429_-0.23665.png"	n/a	"MullerLyer"	"arrowdown"	"1250"	"TRUE"	"MullerLyer"	"-8.214290000"	"-0.236650000"	"1"	"43"
n/a	"html-keyboard-response"	"103"	"357162"	"0.0-5.0-2.0-0.25"	"2bhdeq"	"600"	"1366"	"chrome"	"109.0.0"	"FALSE"	"Windows 10"	"60.82"	"008"	n/a	n/a	n/a	n/a	n/a	n/a	"fixation"	n/a	n/a	n/a	n/a	"NULL"	n/a	"NULL"	"NULL"	"NULL"	"<p style=\"color: black; font-size: 80px; padding-left: 31%; padding-right: 29%; padding-top: 33%; padding-bottom: 31%\">+</p>"	"1048"	n/a	n/a	n/a	n/a	n/a	n/a	n/a	n/a	n/a
n/a	"image-keyboard-response"	"104"	"357743"	"0.0-5.0-2.0-1.25"	"2bhdeq"	"600"	"1366"	"chrome"	"109.0.0"	"FALSE"	"Windows 10"	"60.82"	"008"	n/a	n/a	n/a	n/a	n/a	n/a	"Trial"	n/a	n/a	n/a	"579"	"arrowup"	n/a	"NULL"	"NULL"	"NULL"	"stimuli/MullerLyer_2.30000_0.23665.png"	n/a	"MullerLyer"	"arrowup"	"1067"	"TRUE"	"MullerLyer"	"2.3000000000"	"0.2366500000"	"1"	"44"
n/a	"html-keyboard-response"	"105"	"358786"	"0.0-5.0-2.0-0.26"	"2bhdeq"	"600"	"1366"	"chrome"	"109.0.0"	"FALSE"	"Windows 10"	"60.82"	"008"	n/a	n/a	n/a	n/a	n/a	n/a	"fixation"	n/a	n/a	n/a	n/a	"NULL"	n/a	"NULL"	"NULL"	"NULL"	"<p style=\"color: black; font-size: 80px; padding-left: 38%; padding-right: 33%; padding-top: 9%; padding-bottom: 3%\">+</p>"	"1038"	n/a	n/a	n/a	n/a	n/a	n/a	n/a	n/a	n/a
n/a	"image-keyboard-response"	"106"	"359435"	"0.0-5.0-2.0-1.26"	"2bhdeq"	"600"	"1366"	"chrome"	"109.0.0"	"FALSE"	"Windows 10"	"60.82"	"008"	n/a	n/a	n/a	n/a	n/a	n/a	"Trial"	n/a	n/a	n/a	"648"	"arrowdown"	n/a	"NULL"	"NULL"	"NULL"	"stimuli/MullerLyer_2.30000_-0.3500.png"	n/a	"MullerLyer"	"arrowdown"	"1043"	"TRUE"	"MullerLyer"	"2.3000000000"	"-0.350000000"	"1"	"45"
n/a	"html-keyboard-response"	"107"	"360776"	"0.0-5.0-2.0-0.27"	"2bhdeq"	"600"	"1366"	"chrome"	"109.0.0"	"FALSE"	"Windows 10"	"60.82"	"008"	n/a	n/a	n/a	n/a	n/a	n/a	"fixation"	n/a	n/a	n/a	n/a	"NULL"	n/a	"NULL"	"NULL"	"NULL"	"<p style=\"color: black; font-size: 80px; padding-left: 10%; padding-right: 10%; padding-top: 30%; padding-bottom: 50%\">+</p>"	"1324"	n/a	n/a	n/a	n/a	n/a	n/a	n/a	n/a	n/a
n/a	"image-keyboard-response"	"108"	"362129"	"0.0-5.0-2.0-1.27"	"2bhdeq"	"600"	"1366"	"chrome"	"109.0.0"	"FALSE"	"Windows 10"	"60.82"	"008"	n/a	n/a	n/a	n/a	n/a	n/a	"Trial"	n/a	n/a	n/a	"1352"	"arrowup"	n/a	"NULL"	"NULL"	"NULL"	"stimuli/MullerLyer_14.12857_0.07627.png"	n/a	"MullerLyer"	"arrowup"	"1341"	"TRUE"	"MullerLyer"	"14.128570000"	"0.0762700000"	"1"	"46"
n/a	"html-keyboard-response"	"109"	"363375"	"0.0-5.0-2.0-0.28"	"2bhdeq"	"600"	"1366"	"chrome"	"109.0.0"	"FALSE"	"Windows 10"	"60.82"	"008"	n/a	n/a	n/a	n/a	n/a	n/a	"fixation"	n/a	n/a	n/a	n/a	"NULL"	n/a	"NULL"	"NULL"	"NULL"	"<p style=\"color: black; font-size: 80px; padding-left: 14%; padding-right: 2%; padding-top: 32%; padding-bottom: 11%\">+</p>"	"1227"	n/a	n/a	n/a	n/a	n/a	n/a	n/a	n/a	n/a
n/a	"image-keyboard-response"	"110"	"364336"	"0.0-5.0-2.0-1.28"	"2bhdeq"	"600"	"1366"	"chrome"	"109.0.0"	"FALSE"	"Windows 10"	"60.82"	"008"	n/a	n/a	n/a	n/a	n/a	n/a	"Trial"	n/a	n/a	n/a	"959"	"arrowup"	n/a	"NULL"	"NULL"	"NULL"	"stimuli/MullerLyer_20.04286_0.14541.png"	n/a	"MullerLyer"	"arrowup"	"1246"	"TRUE"	"MullerLyer"	"20.042860000"	"0.1454100000"	"1"	"47"
n/a	"html-keyboard-response"	"111"	"365444"	"0.0-5.0-2.0-0.29"	"2bhdeq"	"600"	"1366"	"chrome"	"109.0.0"	"FALSE"	"Windows 10"	"60.82"	"008"	n/a	n/a	n/a	n/a	n/a	n/a	"fixation"	n/a	n/a	n/a	n/a	"NULL"	n/a	"NULL"	"NULL"	"NULL"	"<p style=\"color: black; font-size: 80px; padding-left: 4%; padding-right: 34%; padding-top: 18%; padding-bottom: 36%\">+</p>"	"1090"	n/a	n/a	n/a	n/a	n/a	n/a	n/a	n/a	n/a
n/a	"image-keyboard-response"	"112"	"366563"	"0.0-5.0-2.0-1.29"	"2bhdeq"	"600"	"1366"	"chrome"	"109.0.0"	"FALSE"	"Windows 10"	"60.82"	"008"	n/a	n/a	n/a	n/a	n/a	n/a	"Trial"	n/a	n/a	n/a	"1118"	"arrowdown"	n/a	"NULL"	"NULL"	"NULL"	"stimuli/MullerLyer_8.21429_-0.07627.png"	n/a	"MullerLyer"	"arrowdown"	"1108"	"TRUE"	"MullerLyer"	"8.2142900000"	"-0.076270000"	"1"	"48"
n/a	"html-keyboard-response"	"113"	"367896"	"0.0-5.0-2.0-0.30"	"2bhdeq"	"600"	"1366"	"chrome"	"109.0.0"	"FALSE"	"Windows 10"	"60.82"	"008"	n/a	n/a	n/a	n/a	n/a	n/a	"fixation"	n/a	n/a	n/a	n/a	"NULL"	n/a	"NULL"	"NULL"	"NULL"	"<p style=\"color: black; font-size: 80px; padding-left: 2%; padding-right: 28%; padding-top: 35%; padding-bottom: 32%\">+</p>"	"1326"	n/a	n/a	n/a	n/a	n/a	n/a	n/a	n/a	n/a
n/a	"image-keyboard-response"	"114"	"368543"	"0.0-5.0-2.0-1.30"	"2bhdeq"	"600"	"1366"	"chrome"	"109.0.0"	"FALSE"	"Windows 10"	"60.82"	"008"	n/a	n/a	n/a	n/a	n/a	n/a	"Trial"	n/a	n/a	n/a	"646"	"arrowdown"	n/a	"NULL"	"NULL"	"NULL"	"stimuli/MullerLyer_-14.12857_-0.07627.png"	n/a	"MullerLyer"	"arrowdown"	"1333"	"TRUE"	"MullerLyer"	"-14.12857000"	"-0.076270000"	"1"	"49"
n/a	"html-keyboard-response"	"115"	"369924"	"0.0-5.0-2.0-0.31"	"2bhdeq"	"600"	"1366"	"chrome"	"109.0.0"	"FALSE"	"Windows 10"	"60.82"	"008"	n/a	n/a	n/a	n/a	n/a	n/a	"fixation"	n/a	n/a	n/a	n/a	"NULL"	n/a	"NULL"	"NULL"	"NULL"	"<p style=\"color: black; font-size: 80px; padding-left: 30%; padding-right: 30%; padding-top: 40%; padding-bottom: 19%\">+</p>"	"1369"	n/a	n/a	n/a	n/a	n/a	n/a	n/a	n/a	n/a
n/a	"image-keyboard-response"	"116"	"372031"	"0.0-5.0-2.0-1.31"	"2bhdeq"	"600"	"1366"	"chrome"	"109.0.0"	"FALSE"	"Windows 10"	"60.82"	"008"	n/a	n/a	n/a	n/a	n/a	n/a	"Trial"	n/a	n/a	n/a	"2105"	"arrowdown"	n/a	"NULL"	"NULL"	"NULL"	"stimuli/MullerLyer_20.04286_-0.23665.png"	n/a	"MullerLyer"	"arrowdown"	"1381"	"TRUE"	"MullerLyer"	"20.042860000"	"-0.236650000"	"1"	"50"
n/a	"html-keyboard-response"	"117"	"373526"	"0.0-5.0-2.0-0.32"	"2bhdeq"	"600"	"1366"	"chrome"	"109.0.0"	"FALSE"	"Windows 10"	"60.82"	"008"	n/a	n/a	n/a	n/a	n/a	n/a	"fixation"	n/a	n/a	n/a	n/a	"NULL"	n/a	"NULL"	"NULL"	"NULL"	"<p style=\"color: black; font-size: 80px; padding-left: 19%; padding-right: 1%; padding-top: 38%; padding-bottom: 47%\">+</p>"	"1492"	n/a	n/a	n/a	n/a	n/a	n/a	n/a	n/a	n/a
n/a	"image-keyboard-response"	"118"	"374397"	"0.0-5.0-2.0-1.32"	"2bhdeq"	"600"	"1366"	"chrome"	"109.0.0"	"FALSE"	"Windows 10"	"60.82"	"008"	n/a	n/a	n/a	n/a	n/a	n/a	"Trial"	n/a	n/a	n/a	"870"	"arrowup"	n/a	"NULL"	"NULL"	"NULL"	"stimuli/MullerLyer_-8.21429_0.14541.png"	n/a	"MullerLyer"	"arrowup"	"1495"	"TRUE"	"MullerLyer"	"-8.214290000"	"0.1454100000"	"1"	"51"
n/a	"html-keyboard-response"	"119"	"375609"	"0.0-5.0-2.0-0.33"	"2bhdeq"	"600"	"1366"	"chrome"	"109.0.0"	"FALSE"	"Windows 10"	"60.82"	"008"	n/a	n/a	n/a	n/a	n/a	n/a	"fixation"	n/a	n/a	n/a	n/a	"NULL"	n/a	"NULL"	"NULL"	"NULL"	"<p style=\"color: black; font-size: 80px; padding-left: 11%; padding-right: 4%; padding-top: 34%; padding-bottom: 18%\">+</p>"	"1201"	n/a	n/a	n/a	n/a	n/a	n/a	n/a	n/a	n/a
n/a	"image-keyboard-response"	"120"	"376602"	"0.0-5.0-2.0-1.33"	"2bhdeq"	"600"	"1366"	"chrome"	"109.0.0"	"FALSE"	"Windows 10"	"60.82"	"008"	n/a	n/a	n/a	n/a	n/a	n/a	"Trial"	n/a	n/a	n/a	"992"	"arrowup"	n/a	"NULL"	"NULL"	"NULL"	"stimuli/MullerLyer_-2.3000_0.14541.png"	n/a	"MullerLyer"	"arrowup"	"1212"	"TRUE"	"MullerLyer"	"-2.300000000"	"0.1454100000"	"1"	"52"
n/a	"html-keyboard-response"	"121"	"378117"	"0.0-5.0-2.0-0.34"	"2bhdeq"	"600"	"1366"	"chrome"	"109.0.0"	"FALSE"	"Windows 10"	"60.82"	"008"	n/a	n/a	n/a	n/a	n/a	n/a	"fixation"	n/a	n/a	n/a	n/a	"NULL"	n/a	"NULL"	"NULL"	"NULL"	"<p style=\"color: black; font-size: 80px; padding-left: 48%; padding-right: 36%; padding-top: 32%; padding-bottom: 29%\">+</p>"	"1494"	n/a	n/a	n/a	n/a	n/a	n/a	n/a	n/a	n/a
n/a	"image-keyboard-response"	"122"	"379637"	"0.0-5.0-2.0-1.34"	"2bhdeq"	"600"	"1366"	"chrome"	"109.0.0"	"FALSE"	"Windows 10"	"60.82"	"008"	n/a	n/a	n/a	n/a	n/a	n/a	"Trial"	n/a	n/a	n/a	"1520"	"arrowdown"	n/a	"NULL"	"NULL"	"NULL"	"stimuli/MullerLyer_14.12857_0.14541.png"	n/a	"MullerLyer"	"arrowup"	"1515"	"FALSE"	"MullerLyer"	"14.128570000"	"0.1454100000"	"1"	"53"
n/a	"html-keyboard-response"	"123"	"381044"	"0.0-5.0-2.0-0.35"	"2bhdeq"	"600"	"1366"	"chrome"	"109.0.0"	"FALSE"	"Windows 10"	"60.82"	"008"	n/a	n/a	n/a	n/a	n/a	n/a	"fixation"	n/a	n/a	n/a	n/a	"NULL"	n/a	"NULL"	"NULL"	"NULL"	"<p style=\"color: black; font-size: 80px; padding-left: 28%; padding-right: 43%; padding-top: 1%; padding-bottom: 21%\">+</p>"	"1397"	n/a	n/a	n/a	n/a	n/a	n/a	n/a	n/a	n/a
n/a	"image-keyboard-response"	"124"	"382026"	"0.0-5.0-2.0-1.35"	"2bhdeq"	"600"	"1366"	"chrome"	"109.0.0"	"FALSE"	"Windows 10"	"60.82"	"008"	n/a	n/a	n/a	n/a	n/a	n/a	"Trial"	n/a	n/a	n/a	"981"	"arrowup"	n/a	"NULL"	"NULL"	"NULL"	"stimuli/MullerLyer_-14.12857_0.07627.png"	n/a	"MullerLyer"	"arrowup"	"1407"	"TRUE"	"MullerLyer"	"-14.12857000"	"0.0762700000"	"1"	"54"
n/a	"html-keyboard-response"	"125"	"383528"	"0.0-5.0-2.0-0.36"	"2bhdeq"	"600"	"1366"	"chrome"	"109.0.0"	"FALSE"	"Windows 10"	"60.82"	"008"	n/a	n/a	n/a	n/a	n/a	n/a	"fixation"	n/a	n/a	n/a	n/a	"NULL"	n/a	"NULL"	"NULL"	"NULL"	"<p style=\"color: black; font-size: 80px; padding-left: 17%; padding-right: 24%; padding-top: 36%; padding-bottom: 47%\">+</p>"	"1484"	n/a	n/a	n/a	n/a	n/a	n/a	n/a	n/a	n/a
n/a	"image-keyboard-response"	"126"	"384165"	"0.0-5.0-2.0-1.36"	"2bhdeq"	"600"	"1366"	"chrome"	"109.0.0"	"FALSE"	"Windows 10"	"60.82"	"008"	n/a	n/a	n/a	n/a	n/a	n/a	"Trial"	n/a	n/a	n/a	"636"	"arrowup"	n/a	"NULL"	"NULL"	"NULL"	"stimuli/MullerLyer_-20.04286_0.35000.png"	n/a	"MullerLyer"	"arrowup"	"1502"	"TRUE"	"MullerLyer"	"-20.04286000"	"0.3500000000"	"1"	"55"
n/a	"html-keyboard-response"	"127"	"385569"	"0.0-5.0-2.0-0.37"	"2bhdeq"	"600"	"1366"	"chrome"	"109.0.0"	"FALSE"	"Windows 10"	"60.82"	"008"	n/a	n/a	n/a	n/a	n/a	n/a	"fixation"	n/a	n/a	n/a	n/a	"NULL"	n/a	"NULL"	"NULL"	"NULL"	"<p style=\"color: black; font-size: 80px; padding-left: 27%; padding-right: 1%; padding-top: 18%; padding-bottom: 31%\">+</p>"	"1401"	n/a	n/a	n/a	n/a	n/a	n/a	n/a	n/a	n/a
n/a	"image-keyboard-response"	"128"	"388040"	"0.0-5.0-2.0-1.37"	"2bhdeq"	"600"	"1366"	"chrome"	"109.0.0"	"FALSE"	"Windows 10"	"60.82"	"008"	n/a	n/a	n/a	n/a	n/a	n/a	"Trial"	n/a	n/a	n/a	"2470"	"arrowdown"	n/a	"NULL"	"NULL"	"NULL"	"stimuli/MullerLyer_20.04286_-0.3500.png"	n/a	"MullerLyer"	"arrowdown"	"1404"	"TRUE"	"MullerLyer"	"20.042860000"	"-0.350000000"	"1"	"56"
n/a	"html-keyboard-response"	"129"	"389224"	"0.0-5.0-2.0-0.38"	"2bhdeq"	"600"	"1366"	"chrome"	"109.0.0"	"FALSE"	"Windows 10"	"60.82"	"008"	n/a	n/a	n/a	n/a	n/a	n/a	"fixation"	n/a	n/a	n/a	n/a	"NULL"	n/a	"NULL"	"NULL"	"NULL"	"<p style=\"color: black; font-size: 80px; padding-left: 27%; padding-right: 33%; padding-top: 30%; padding-bottom: 31%\">+</p>"	"1180"	n/a	n/a	n/a	n/a	n/a	n/a	n/a	n/a	n/a
n/a	"image-keyboard-response"	"130"	"391931"	"0.0-5.0-2.0-1.38"	"2bhdeq"	"600"	"1366"	"chrome"	"109.0.0"	"FALSE"	"Windows 10"	"60.82"	"008"	n/a	n/a	n/a	n/a	n/a	n/a	"Trial"	n/a	n/a	n/a	"2704"	"arrowdown"	n/a	"NULL"	"NULL"	"NULL"	"stimuli/MullerLyer_20.04286_0.07627.png"	n/a	"MullerLyer"	"arrowup"	"1184"	"FALSE"	"MullerLyer"	"20.042860000"	"0.0762700000"	"1"	"57"
n/a	"html-keyboard-response"	"131"	"393036"	"0.0-5.0-2.0-0.39"	"2bhdeq"	"600"	"1366"	"chrome"	"109.0.0"	"FALSE"	"Windows 10"	"60.82"	"008"	n/a	n/a	n/a	n/a	n/a	n/a	"fixation"	n/a	n/a	n/a	n/a	"NULL"	n/a	"NULL"	"NULL"	"NULL"	"<p style=\"color: black; font-size: 80px; padding-left: 40%; padding-right: 39%; padding-top: 5%; padding-bottom: 20%\">+</p>"	"1094"	n/a	n/a	n/a	n/a	n/a	n/a	n/a	n/a	n/a
n/a	"image-keyboard-response"	"132"	"393730"	"0.0-5.0-2.0-1.39"	"2bhdeq"	"600"	"1366"	"chrome"	"109.0.0"	"FALSE"	"Windows 10"	"60.82"	"008"	n/a	n/a	n/a	n/a	n/a	n/a	"Trial"	n/a	n/a	n/a	"689"	"arrowdown"	n/a	"NULL"	"NULL"	"NULL"	"stimuli/MullerLyer_-14.12857_-0.3500.png"	n/a	"MullerLyer"	"arrowdown"	"1105"	"TRUE"	"MullerLyer"	"-14.12857000"	"-0.350000000"	"1"	"58"
n/a	"html-keyboard-response"	"133"	"395139"	"0.0-5.0-2.0-0.40"	"2bhdeq"	"600"	"1366"	"chrome"	"109.0.0"	"FALSE"	"Windows 10"	"60.82"	"008"	n/a	n/a	n/a	n/a	n/a	n/a	"fixation"	n/a	n/a	n/a	n/a	"NULL"	n/a	"NULL"	"NULL"	"NULL"	"<p style=\"color: black; font-size: 80px; padding-left: 10%; padding-right: 34%; padding-top: 5%; padding-bottom: 13%\">+</p>"	"1400"	n/a	n/a	n/a	n/a	n/a	n/a	n/a	n/a	n/a
n/a	"image-keyboard-response"	"134"	"395772"	"0.0-5.0-2.0-1.40"	"2bhdeq"	"600"	"1366"	"chrome"	"109.0.0"	"FALSE"	"Windows 10"	"60.82"	"008"	n/a	n/a	n/a	n/a	n/a	n/a	"Trial"	n/a	n/a	n/a	"633"	"arrowdown"	n/a	"NULL"	"NULL"	"NULL"	"stimuli/MullerLyer_-8.21429_-0.14541.png"	n/a	"MullerLyer"	"arrowdown"	"1409"	"TRUE"	"MullerLyer"	"-8.214290000"	"-0.145410000"	"1"	"59"
n/a	"html-keyboard-response"	"135"	"397084"	"0.0-5.0-2.0-0.41"	"2bhdeq"	"600"	"1366"	"chrome"	"109.0.0"	"FALSE"	"Windows 10"	"60.82"	"008"	n/a	n/a	n/a	n/a	n/a	n/a	"fixation"	n/a	n/a	n/a	n/a	"NULL"	n/a	"NULL"	"NULL"	"NULL"	"<p style=\"color: black; font-size: 80px; padding-left: 41%; padding-right: 21%; padding-top: 8%; padding-bottom: 28%\">+</p>"	"1302"	n/a	n/a	n/a	n/a	n/a	n/a	n/a	n/a	n/a
n/a	"image-keyboard-response"	"136"	"397661"	"0.0-5.0-2.0-1.41"	"2bhdeq"	"600"	"1366"	"chrome"	"109.0.0"	"FALSE"	"Windows 10"	"60.82"	"008"	n/a	n/a	n/a	n/a	n/a	n/a	"Trial"	n/a	n/a	n/a	"576"	"arrowdown"	n/a	"NULL"	"NULL"	"NULL"	"stimuli/MullerLyer_-8.21429_-0.07627.png"	n/a	"MullerLyer"	"arrowdown"	"1312"	"TRUE"	"MullerLyer"	"-8.214290000"	"-0.076270000"	"1"	"60"
n/a	"html-keyboard-response"	"137"	"399081"	"0.0-5.0-2.0-0.42"	"2bhdeq"	"600"	"1366"	"chrome"	"109.0.0"	"FALSE"	"Windows 10"	"60.82"	"008"	n/a	n/a	n/a	n/a	n/a	n/a	"fixation"	n/a	n/a	n/a	n/a	"NULL"	n/a	"NULL"	"NULL"	"NULL"	"<p style=\"color: black; font-size: 80px; padding-left: 19%; padding-right: 20%; padding-top: 42%; padding-bottom: 33%\">+</p>"	"1399"	n/a	n/a	n/a	n/a	n/a	n/a	n/a	n/a	n/a
n/a	"image-keyboard-response"	"138"	"399719"	"0.0-5.0-2.0-1.42"	"2bhdeq"	"600"	"1366"	"chrome"	"109.0.0"	"FALSE"	"Windows 10"	"60.82"	"008"	n/a	n/a	n/a	n/a	n/a	n/a	"Trial"	n/a	n/a	n/a	"637"	"arrowup"	n/a	"NULL"	"NULL"	"NULL"	"stimuli/MullerLyer_14.12857_-0.07627.png"	n/a	"MullerLyer"	"arrowdown"	"1420"	"FALSE"	"MullerLyer"	"14.128570000"	"-0.076270000"	"1"	"61"
n/a	"html-keyboard-response"	"139"	"401190"	"0.0-5.0-2.0-0.43"	"2bhdeq"	"600"	"1366"	"chrome"	"109.0.0"	"FALSE"	"Windows 10"	"60.82"	"008"	n/a	n/a	n/a	n/a	n/a	n/a	"fixation"	n/a	n/a	n/a	n/a	"NULL"	n/a	"NULL"	"NULL"	"NULL"	"<p style=\"color: black; font-size: 80px; padding-left: 31%; padding-right: 33%; padding-top: 35%; padding-bottom: 42%\">+</p>"	"1470"	n/a	n/a	n/a	n/a	n/a	n/a	n/a	n/a	n/a
n/a	"image-keyboard-response"	"140"	"402894"	"0.0-5.0-2.0-1.43"	"2bhdeq"	"600"	"1366"	"chrome"	"109.0.0"	"FALSE"	"Windows 10"	"60.82"	"008"	n/a	n/a	n/a	n/a	n/a	n/a	"Trial"	n/a	n/a	n/a	"1702"	"arrowup"	n/a	"NULL"	"NULL"	"NULL"	"stimuli/MullerLyer_8.21429_0.07627.png"	n/a	"MullerLyer"	"arrowup"	"1471"	"TRUE"	"MullerLyer"	"8.2142900000"	"0.0762700000"	"1"	"62"
n/a	"html-keyboard-response"	"141"	"404334"	"0.0-5.0-2.0-0.44"	"2bhdeq"	"600"	"1366"	"chrome"	"109.0.0"	"FALSE"	"Windows 10"	"60.82"	"008"	n/a	n/a	n/a	n/a	n/a	n/a	"fixation"	n/a	n/a	n/a	n/a	"NULL"	n/a	"NULL"	"NULL"	"NULL"	"<p style=\"color: black; font-size: 80px; padding-left: 32%; padding-right: 31%; padding-top: 43%; padding-bottom: 48%\">+</p>"	"1436"	n/a	n/a	n/a	n/a	n/a	n/a	n/a	n/a	n/a
n/a	"image-keyboard-response"	"142"	"404939"	"0.0-5.0-2.0-1.44"	"2bhdeq"	"600"	"1366"	"chrome"	"109.0.0"	"FALSE"	"Windows 10"	"60.82"	"008"	n/a	n/a	n/a	n/a	n/a	n/a	"Trial"	n/a	n/a	n/a	"604"	"arrowup"	n/a	"NULL"	"NULL"	"NULL"	"stimuli/MullerLyer_-14.12857_0.35000.png"	n/a	"MullerLyer"	"arrowup"	"1440"	"TRUE"	"MullerLyer"	"-14.12857000"	"0.3500000000"	"1"	"63"
n/a	"html-keyboard-response"	"143"	"406104"	"0.0-5.0-2.0-0.45"	"2bhdeq"	"600"	"1366"	"chrome"	"109.0.0"	"FALSE"	"Windows 10"	"60.82"	"008"	n/a	n/a	n/a	n/a	n/a	n/a	"fixation"	n/a	n/a	n/a	n/a	"NULL"	n/a	"NULL"	"NULL"	"NULL"	"<p style=\"color: black; font-size: 80px; padding-left: 11%; padding-right: 9%; padding-top: 15%; padding-bottom: 36%\">+</p>"	"1160"	n/a	n/a	n/a	n/a	n/a	n/a	n/a	n/a	n/a
n/a	"image-keyboard-response"	"144"	"406712"	"0.0-5.0-2.0-1.45"	"2bhdeq"	"600"	"1366"	"chrome"	"109.0.0"	"FALSE"	"Windows 10"	"60.82"	"008"	n/a	n/a	n/a	n/a	n/a	n/a	"Trial"	n/a	n/a	n/a	"607"	"arrowup"	n/a	"NULL"	"NULL"	"NULL"	"stimuli/MullerLyer_20.04286_-0.07627.png"	n/a	"MullerLyer"	"arrowdown"	"1165"	"FALSE"	"MullerLyer"	"20.042860000"	"-0.076270000"	"1"	"64"
n/a	"html-keyboard-response"	"145"	"408193"	"0.0-5.0-2.0-0.46"	"2bhdeq"	"600"	"1366"	"chrome"	"109.0.0"	"FALSE"	"Windows 10"	"60.82"	"008"	n/a	n/a	n/a	n/a	n/a	n/a	"fixation"	n/a	n/a	n/a	n/a	"NULL"	n/a	"NULL"	"NULL"	"NULL"	"<p style=\"color: black; font-size: 80px; padding-left: 9%; padding-right: 35%; padding-top: 7%; padding-bottom: 37%\">+</p>"	"1466"	n/a	n/a	n/a	n/a	n/a	n/a	n/a	n/a	n/a
n/a	"image-keyboard-response"	"146"	"408770"	"0.0-5.0-2.0-1.46"	"2bhdeq"	"600"	"1366"	"chrome"	"109.0.0"	"FALSE"	"Windows 10"	"60.82"	"008"	n/a	n/a	n/a	n/a	n/a	n/a	"Trial"	n/a	n/a	n/a	"577"	"arrowup"	n/a	"NULL"	"NULL"	"NULL"	"stimuli/MullerLyer_20.04286_-0.14541.png"	n/a	"MullerLyer"	"arrowdown"	"1481"	"FALSE"	"MullerLyer"	"20.042860000"	"-0.145410000"	"1"	"65"
n/a	"html-keyboard-response"	"147"	"410064"	"0.0-5.0-2.0-0.47"	"2bhdeq"	"600"	"1366"	"chrome"	"109.0.0"	"FALSE"	"Windows 10"	"60.82"	"008"	n/a	n/a	n/a	n/a	n/a	n/a	"fixation"	n/a	n/a	n/a	n/a	"NULL"	n/a	"NULL"	"NULL"	"NULL"	"<p style=\"color: black; font-size: 80px; padding-left: 23%; padding-right: 3%; padding-top: 23%; padding-bottom: 28%\">+</p>"	"1289"	n/a	n/a	n/a	n/a	n/a	n/a	n/a	n/a	n/a
n/a	"image-keyboard-response"	"148"	"410676"	"0.0-5.0-2.0-1.47"	"2bhdeq"	"600"	"1366"	"chrome"	"109.0.0"	"FALSE"	"Windows 10"	"60.82"	"008"	n/a	n/a	n/a	n/a	n/a	n/a	"Trial"	n/a	n/a	n/a	"611"	"arrowup"	n/a	"NULL"	"NULL"	"NULL"	"stimuli/MullerLyer_-8.21429_0.07627.png"	n/a	"MullerLyer"	"arrowup"	"1294"	"TRUE"	"MullerLyer"	"-8.214290000"	"0.0762700000"	"1"	"66"
n/a	"html-keyboard-response"	"149"	"412076"	"0.0-5.0-2.0-0.48"	"2bhdeq"	"600"	"1366"	"chrome"	"109.0.0"	"FALSE"	"Windows 10"	"60.82"	"008"	n/a	n/a	n/a	n/a	n/a	n/a	"fixation"	n/a	n/a	n/a	n/a	"NULL"	n/a	"NULL"	"NULL"	"NULL"	"<p style=\"color: black; font-size: 80px; padding-left: 14%; padding-right: 36%; padding-top: 31%; padding-bottom: 6%\">+</p>"	"1385"	n/a	n/a	n/a	n/a	n/a	n/a	n/a	n/a	n/a
n/a	"image-keyboard-response"	"150"	"412657"	"0.0-5.0-2.0-1.48"	"2bhdeq"	"600"	"1366"	"chrome"	"109.0.0"	"FALSE"	"Windows 10"	"60.82"	"008"	n/a	n/a	n/a	n/a	n/a	n/a	"Trial"	n/a	n/a	n/a	"578"	"arrowup"	n/a	"NULL"	"NULL"	"NULL"	"stimuli/MullerLyer_-8.21429_0.23665.png"	n/a	"MullerLyer"	"arrowup"	"1400"	"TRUE"	"MullerLyer"	"-8.214290000"	"0.2366500000"	"1"	"67"
n/a	"html-keyboard-response"	"151"	"414076"	"0.0-5.0-2.0-0.49"	"2bhdeq"	"600"	"1366"	"chrome"	"109.0.0"	"FALSE"	"Windows 10"	"60.82"	"008"	n/a	n/a	n/a	n/a	n/a	n/a	"fixation"	n/a	n/a	n/a	n/a	"NULL"	n/a	"NULL"	"NULL"	"NULL"	"<p style=\"color: black; font-size: 80px; padding-left: 1%; padding-right: 20%; padding-top: 47%; padding-bottom: 46%\">+</p>"	"1403"	n/a	n/a	n/a	n/a	n/a	n/a	n/a	n/a	n/a
n/a	"image-keyboard-response"	"152"	"414705"	"0.0-5.0-2.0-1.49"	"2bhdeq"	"600"	"1366"	"chrome"	"109.0.0"	"FALSE"	"Windows 10"	"60.82"	"008"	n/a	n/a	n/a	n/a	n/a	n/a	"Trial"	n/a	n/a	n/a	"628"	"arrowup"	n/a	"NULL"	"NULL"	"NULL"	"stimuli/MullerLyer_20.04286_0.35000.png"	n/a	"MullerLyer"	"arrowup"	"1419"	"TRUE"	"MullerLyer"	"20.042860000"	"0.3500000000"	"1"	"68"
n/a	"html-keyboard-response"	"153"	"415804"	"0.0-5.0-2.0-0.50"	"2bhdeq"	"600"	"1366"	"chrome"	"109.0.0"	"FALSE"	"Windows 10"	"60.82"	"008"	n/a	n/a	n/a	n/a	n/a	n/a	"fixation"	n/a	n/a	n/a	n/a	"NULL"	n/a	"NULL"	"NULL"	"NULL"	"<p style=\"color: black; font-size: 80px; padding-left: 19%; padding-right: 12%; padding-top: 35%; padding-bottom: 39%\">+</p>"	"1078"	n/a	n/a	n/a	n/a	n/a	n/a	n/a	n/a	n/a
n/a	"image-keyboard-response"	"154"	"417570"	"0.0-5.0-2.0-1.50"	"2bhdeq"	"600"	"1366"	"chrome"	"109.0.0"	"FALSE"	"Windows 10"	"60.82"	"008"	n/a	n/a	n/a	n/a	n/a	n/a	"Trial"	n/a	n/a	n/a	"1764"	"arrowdown"	n/a	"NULL"	"NULL"	"NULL"	"stimuli/MullerLyer_8.21429_-0.3500.png"	n/a	"MullerLyer"	"arrowdown"	"1099"	"TRUE"	"MullerLyer"	"8.2142900000"	"-0.350000000"	"1"	"69"
n/a	"html-keyboard-response"	"155"	"418962"	"0.0-5.0-2.0-0.51"	"2bhdeq"	"600"	"1366"	"chrome"	"109.0.0"	"FALSE"	"Windows 10"	"60.82"	"008"	n/a	n/a	n/a	n/a	n/a	n/a	"fixation"	n/a	n/a	n/a	n/a	"NULL"	n/a	"NULL"	"NULL"	"NULL"	"<p style=\"color: black; font-size: 80px; padding-left: 13%; padding-right: 16%; padding-top: 15%; padding-bottom: 26%\">+</p>"	"1382"	n/a	n/a	n/a	n/a	n/a	n/a	n/a	n/a	n/a
n/a	"image-keyboard-response"	"156"	"419502"	"0.0-5.0-2.0-1.51"	"2bhdeq"	"600"	"1366"	"chrome"	"109.0.0"	"FALSE"	"Windows 10"	"60.82"	"008"	n/a	n/a	n/a	n/a	n/a	n/a	"Trial"	n/a	n/a	n/a	"539"	"arrowup"	n/a	"NULL"	"NULL"	"NULL"	"stimuli/MullerLyer_-2.3000_0.35000.png"	n/a	"MullerLyer"	"arrowup"	"1392"	"TRUE"	"MullerLyer"	"-2.300000000"	"0.3500000000"	"1"	"70"
n/a	"html-keyboard-response"	"157"	"420693"	"0.0-5.0-2.0-0.52"	"2bhdeq"	"600"	"1366"	"chrome"	"109.0.0"	"FALSE"	"Windows 10"	"60.82"	"008"	n/a	n/a	n/a	n/a	n/a	n/a	"fixation"	n/a	n/a	n/a	n/a	"NULL"	n/a	"NULL"	"NULL"	"NULL"	"<p style=\"color: black; font-size: 80px; padding-left: 12%; padding-right: 31%; padding-top: 18%; padding-bottom: 23%\">+</p>"	"1176"	n/a	n/a	n/a	n/a	n/a	n/a	n/a	n/a	n/a
n/a	"image-keyboard-response"	"158"	"421263"	"0.0-5.0-2.0-1.52"	"2bhdeq"	"600"	"1366"	"chrome"	"109.0.0"	"FALSE"	"Windows 10"	"60.82"	"008"	n/a	n/a	n/a	n/a	n/a	n/a	"Trial"	n/a	n/a	n/a	"569"	"arrowdown"	n/a	"NULL"	"NULL"	"NULL"	"stimuli/MullerLyer_-20.04286_-0.14541.png"	n/a	"MullerLyer"	"arrowdown"	"1191"	"TRUE"	"MullerLyer"	"-20.04286000"	"-0.145410000"	"1"	"71"
n/a	"html-keyboard-response"	"159"	"422334"	"0.0-5.0-2.0-0.53"	"2bhdeq"	"600"	"1366"	"chrome"	"109.0.0"	"FALSE"	"Windows 10"	"60.82"	"008"	n/a	n/a	n/a	n/a	n/a	n/a	"fixation"	n/a	n/a	n/a	n/a	"NULL"	n/a	"NULL"	"NULL"	"NULL"	"<p style=\"color: black; font-size: 80px; padding-left: 8%; padding-right: 16%; padding-top: 27%; padding-bottom: 48%\">+</p>"	"1064"	n/a	n/a	n/a	n/a	n/a	n/a	n/a	n/a	n/a
n/a	"image-keyboard-response"	"160"	"422860"	"0.0-5.0-2.0-1.53"	"2bhdeq"	"600"	"1366"	"chrome"	"109.0.0"	"FALSE"	"Windows 10"	"60.82"	"008"	n/a	n/a	n/a	n/a	n/a	n/a	"Trial"	n/a	n/a	n/a	"525"	"arrowdown"	n/a	"NULL"	"NULL"	"NULL"	"stimuli/MullerLyer_-20.04286_-0.3500.png"	n/a	"MullerLyer"	"arrowdown"	"1071"	"TRUE"	"MullerLyer"	"-20.04286000"	"-0.350000000"	"1"	"72"
n/a	"html-keyboard-response"	"161"	"424092"	"0.0-5.0-2.0-0.54"	"2bhdeq"	"600"	"1366"	"chrome"	"109.0.0"	"FALSE"	"Windows 10"	"60.82"	"008"	n/a	n/a	n/a	n/a	n/a	n/a	"fixation"	n/a	n/a	n/a	n/a	"NULL"	n/a	"NULL"	"NULL"	"NULL"	"<p style=\"color: black; font-size: 80px; padding-left: 13%; padding-right: 11%; padding-top: 41%; padding-bottom: 27%\">+</p>"	"1216"	n/a	n/a	n/a	n/a	n/a	n/a	n/a	n/a	n/a
n/a	"image-keyboard-response"	"162"	"426037"	"0.0-5.0-2.0-1.54"	"2bhdeq"	"600"	"1366"	"chrome"	"109.0.0"	"FALSE"	"Windows 10"	"60.82"	"008"	n/a	n/a	n/a	n/a	n/a	n/a	"Trial"	n/a	n/a	n/a	"1944"	"arrowup"	n/a	"NULL"	"NULL"	"NULL"	"stimuli/MullerLyer_20.04286_0.23665.png"	n/a	"MullerLyer"	"arrowup"	"1232"	"TRUE"	"MullerLyer"	"20.042860000"	"0.2366500000"	"1"	"73"
n/a	"html-keyboard-response"	"163"	"427079"	"0.0-5.0-2.0-0.55"	"2bhdeq"	"600"	"1366"	"chrome"	"109.0.0"	"FALSE"	"Windows 10"	"60.82"	"008"	n/a	n/a	n/a	n/a	n/a	n/a	"fixation"	n/a	n/a	n/a	n/a	"NULL"	n/a	"NULL"	"NULL"	"NULL"	"<p style=\"color: black; font-size: 80px; padding-left: 10%; padding-right: 47%; padding-top: 10%; padding-bottom: 0%\">+</p>"	"1036"	n/a	n/a	n/a	n/a	n/a	n/a	n/a	n/a	n/a
n/a	"image-keyboard-response"	"164"	"427982"	"0.0-5.0-2.0-1.55"	"2bhdeq"	"600"	"1366"	"chrome"	"109.0.0"	"FALSE"	"Windows 10"	"60.82"	"008"	n/a	n/a	n/a	n/a	n/a	n/a	"Trial"	n/a	n/a	n/a	"902"	"arrowdown"	n/a	"NULL"	"NULL"	"NULL"	"stimuli/MullerLyer_2.30000_-0.23665.png"	n/a	"MullerLyer"	"arrowdown"	"1042"	"TRUE"	"MullerLyer"	"2.3000000000"	"-0.236650000"	"1"	"74"
n/a	"html-keyboard-response"	"165"	"429046"	"0.0-5.0-2.0-0.56"	"2bhdeq"	"600"	"1366"	"chrome"	"109.0.0"	"FALSE"	"Windows 10"	"60.82"	"008"	n/a	n/a	n/a	n/a	n/a	n/a	"fixation"	n/a	n/a	n/a	n/a	"NULL"	n/a	"NULL"	"NULL"	"NULL"	"<p style=\"color: black; font-size: 80px; padding-left: 45%; padding-right: 6%; padding-top: 21%; padding-bottom: 16%\">+</p>"	"1039"	n/a	n/a	n/a	n/a	n/a	n/a	n/a	n/a	n/a
n/a	"image-keyboard-response"	"166"	"429629"	"0.0-5.0-2.0-1.56"	"2bhdeq"	"600"	"1366"	"chrome"	"109.0.0"	"FALSE"	"Windows 10"	"60.82"	"008"	n/a	n/a	n/a	n/a	n/a	n/a	"Trial"	n/a	n/a	n/a	"582"	"arrowdown"	n/a	"NULL"	"NULL"	"NULL"	"stimuli/MullerLyer_-8.21429_-0.3500.png"	n/a	"MullerLyer"	"arrowdown"	"1064"	"TRUE"	"MullerLyer"	"-8.214290000"	"-0.350000000"	"1"	"75"
n/a	"html-keyboard-response"	"167"	"431059"	"0.0-5.0-2.0-0.57"	"2bhdeq"	"600"	"1366"	"chrome"	"109.0.0"	"FALSE"	"Windows 10"	"60.82"	"008"	n/a	n/a	n/a	n/a	n/a	n/a	"fixation"	n/a	n/a	n/a	n/a	"NULL"	n/a	"NULL"	"NULL"	"NULL"	"<p style=\"color: black; font-size: 80px; padding-left: 5%; padding-right: 24%; padding-top: 33%; padding-bottom: 45%\">+</p>"	"1417"	n/a	n/a	n/a	n/a	n/a	n/a	n/a	n/a	n/a
n/a	"image-keyboard-response"	"168"	"432521"	"0.0-5.0-2.0-1.57"	"2bhdeq"	"600"	"1366"	"chrome"	"109.0.0"	"FALSE"	"Windows 10"	"60.82"	"008"	n/a	n/a	n/a	n/a	n/a	n/a	"Trial"	n/a	n/a	n/a	"1460"	"arrowdown"	n/a	"NULL"	"NULL"	"NULL"	"stimuli/MullerLyer_14.12857_-0.23665.png"	n/a	"MullerLyer"	"arrowdown"	"1430"	"TRUE"	"MullerLyer"	"14.128570000"	"-0.236650000"	"1"	"76"
n/a	"html-keyboard-response"	"169"	"433990"	"0.0-5.0-2.0-0.58"	"2bhdeq"	"600"	"1366"	"chrome"	"109.0.0"	"FALSE"	"Windows 10"	"60.82"	"008"	n/a	n/a	n/a	n/a	n/a	n/a	"fixation"	n/a	n/a	n/a	n/a	"NULL"	n/a	"NULL"	"NULL"	"NULL"	"<p style=\"color: black; font-size: 80px; padding-left: 40%; padding-right: 44%; padding-top: 10%; padding-bottom: 8%\">+</p>"	"1461"	n/a	n/a	n/a	n/a	n/a	n/a	n/a	n/a	n/a
n/a	"image-keyboard-response"	"170"	"434619"	"0.0-5.0-2.0-1.58"	"2bhdeq"	"600"	"1366"	"chrome"	"109.0.0"	"FALSE"	"Windows 10"	"60.82"	"008"	n/a	n/a	n/a	n/a	n/a	n/a	"Trial"	n/a	n/a	n/a	"627"	"arrowdown"	n/a	"NULL"	"NULL"	"NULL"	"stimuli/MullerLyer_-2.3000_-0.3500.png"	n/a	"MullerLyer"	"arrowdown"	"1469"	"TRUE"	"MullerLyer"	"-2.300000000"	"-0.350000000"	"1"	"77"
n/a	"html-keyboard-response"	"171"	"435907"	"0.0-5.0-2.0-0.59"	"2bhdeq"	"600"	"1366"	"chrome"	"109.0.0"	"FALSE"	"Windows 10"	"60.82"	"008"	n/a	n/a	n/a	n/a	n/a	n/a	"fixation"	n/a	n/a	n/a	n/a	"NULL"	n/a	"NULL"	"NULL"	"NULL"	"<p style=\"color: black; font-size: 80px; padding-left: 14%; padding-right: 9%; padding-top: 30%; padding-bottom: 10%\">+</p>"	"1277"	n/a	n/a	n/a	n/a	n/a	n/a	n/a	n/a	n/a
n/a	"image-keyboard-response"	"172"	"437181"	"0.0-5.0-2.0-1.59"	"2bhdeq"	"600"	"1366"	"chrome"	"109.0.0"	"FALSE"	"Windows 10"	"60.82"	"008"	n/a	n/a	n/a	n/a	n/a	n/a	"Trial"	n/a	n/a	n/a	"1273"	"arrowdown"	n/a	"NULL"	"NULL"	"NULL"	"stimuli/MullerLyer_2.30000_-0.07627.png"	n/a	"MullerLyer"	"arrowdown"	"1288"	"TRUE"	"MullerLyer"	"2.3000000000"	"-0.076270000"	"1"	"78"
n/a	"html-keyboard-response"	"173"	"438487"	"0.0-5.0-2.0-0.60"	"2bhdeq"	"600"	"1366"	"chrome"	"109.0.0"	"FALSE"	"Windows 10"	"60.82"	"008"	n/a	n/a	n/a	n/a	n/a	n/a	"fixation"	n/a	n/a	n/a	n/a	"NULL"	n/a	"NULL"	"NULL"	"NULL"	"<p style=\"color: black; font-size: 80px; padding-left: 36%; padding-right: 34%; padding-top: 45%; padding-bottom: 32%\">+</p>"	"1297"	n/a	n/a	n/a	n/a	n/a	n/a	n/a	n/a	n/a
n/a	"image-keyboard-response"	"174"	"439469"	"0.0-5.0-2.0-1.60"	"2bhdeq"	"600"	"1366"	"chrome"	"109.0.0"	"FALSE"	"Windows 10"	"60.82"	"008"	n/a	n/a	n/a	n/a	n/a	n/a	"Trial"	n/a	n/a	n/a	"981"	"arrowdown"	n/a	"NULL"	"NULL"	"NULL"	"stimuli/MullerLyer_14.12857_-0.14541.png"	n/a	"MullerLyer"	"arrowdown"	"1306"	"TRUE"	"MullerLyer"	"14.128570000"	"-0.145410000"	"1"	"79"
n/a	"html-keyboard-response"	"175"	"440646"	"0.0-5.0-2.0-0.61"	"2bhdeq"	"600"	"1366"	"chrome"	"109.0.0"	"FALSE"	"Windows 10"	"60.82"	"008"	n/a	n/a	n/a	n/a	n/a	n/a	"fixation"	n/a	n/a	n/a	n/a	"NULL"	n/a	"NULL"	"NULL"	"NULL"	"<p style=\"color: black; font-size: 80px; padding-left: 40%; padding-right: 2%; padding-top: 32%; padding-bottom: 11%\">+</p>"	"1164"	n/a	n/a	n/a	n/a	n/a	n/a	n/a	n/a	n/a
n/a	"image-keyboard-response"	"176"	"441474"	"0.0-5.0-2.0-1.61"	"2bhdeq"	"600"	"1366"	"chrome"	"109.0.0"	"FALSE"	"Windows 10"	"60.82"	"008"	n/a	n/a	n/a	n/a	n/a	n/a	"Trial"	n/a	n/a	n/a	"827"	"arrowup"	n/a	"NULL"	"NULL"	"NULL"	"stimuli/MullerLyer_2.30000_0.35000.png"	n/a	"MullerLyer"	"arrowup"	"1177"	"TRUE"	"MullerLyer"	"2.3000000000"	"0.3500000000"	"1"	"80"
n/a	"html-keyboard-response"	"177"	"442787"	"0.0-5.0-2.0-0.62"	"2bhdeq"	"600"	"1366"	"chrome"	"109.0.0"	"FALSE"	"Windows 10"	"60.82"	"008"	n/a	n/a	n/a	n/a	n/a	n/a	"fixation"	n/a	n/a	n/a	n/a	"NULL"	n/a	"NULL"	"NULL"	"NULL"	"<p style=\"color: black; font-size: 80px; padding-left: 25%; padding-right: 42%; padding-top: 3%; padding-bottom: 42%\">+</p>"	"1297"	n/a	n/a	n/a	n/a	n/a	n/a	n/a	n/a	n/a
n/a	"image-keyboard-response"	"178"	"444388"	"0.0-5.0-2.0-1.62"	"2bhdeq"	"600"	"1366"	"chrome"	"109.0.0"	"FALSE"	"Windows 10"	"60.82"	"008"	n/a	n/a	n/a	n/a	n/a	n/a	"Trial"	n/a	n/a	n/a	"1600"	"arrowup"	n/a	"NULL"	"NULL"	"NULL"	"stimuli/MullerLyer_8.21429_0.14541.png"	n/a	"MullerLyer"	"arrowup"	"1313"	"TRUE"	"MullerLyer"	"8.2142900000"	"0.1454100000"	"1"	"81"
n/a	"html-keyboard-response"	"179"	"445648"	"0.0-5.0-2.0-0.63"	"2bhdeq"	"600"	"1366"	"chrome"	"109.0.0"	"FALSE"	"Windows 10"	"60.82"	"008"	n/a	n/a	n/a	n/a	n/a	n/a	"fixation"	n/a	n/a	n/a	n/a	"NULL"	n/a	"NULL"	"NULL"	"NULL"	"<p style=\"color: black; font-size: 80px; padding-left: 30%; padding-right: 36%; padding-top: 2%; padding-bottom: 46%\">+</p>"	"1250"	n/a	n/a	n/a	n/a	n/a	n/a	n/a	n/a	n/a
n/a	"image-keyboard-response"	"180"	"447409"	"0.0-5.0-2.0-1.63"	"2bhdeq"	"600"	"1366"	"chrome"	"109.0.0"	"FALSE"	"Windows 10"	"60.82"	"008"	n/a	n/a	n/a	n/a	n/a	n/a	"Trial"	n/a	n/a	n/a	"1759"	"arrowup"	n/a	"NULL"	"NULL"	"NULL"	"stimuli/MullerLyer_2.30000_0.07627.png"	n/a	"MullerLyer"	"arrowup"	"1260"	"TRUE"	"MullerLyer"	"2.3000000000"	"0.0762700000"	"1"	"82"
n/a	"html-button-response"	"181"	"461726"	"0.0-5.0-3.0"	"2bhdeq"	"600"	"1366"	"chrome"	"109.0.0"	"FALSE"	"Windows 10"	"60.82"	"008"	n/a	n/a	n/a	n/a	n/a	n/a	"block_results"	n/a	n/a	n/a	"14312"	"0"	n/a	"NULL"	"NULL"	"NULL"	"<p>Your score for this illusion is <p style=\"color: black; font-size: 48px; font-weight: bold;\">72.1 %</p><hr><p>Can you do better in the next illusion?</p>"	n/a	n/a	n/a	n/a	n/a	n/a	n/a	n/a	n/a	n/a
"TRUE"	"preload"	"182"	"461921"	"0.0-6.0-0.0"	"2bhdeq"	"600"	"1366"	"chrome"	"109.0.0"	"FALSE"	"Windows 10"	"60.82"	"008"	n/a	n/a	n/a	n/a	n/a	n/a	n/a	n/a	n/a	n/a	n/a	"NULL"	"FALSE"	"list()"	"list()"	"list()"	n/a	n/a	n/a	n/a	n/a	n/a	n/a	n/a	n/a	n/a	n/a
n/a	"html-keyboard-response"	"183"	"468826"	"0.0-6.0-1.0"	"2bhdeq"	"600"	"1366"	"chrome"	"109.0.0"	"FALSE"	"Windows 10"	"60.82"	"008"	n/a	n/a	n/a	n/a	n/a	n/a	n/a	n/a	n/a	n/a	"6905"	"enter"	n/a	"NULL"	"NULL"	"NULL"	"<p><b>Part 2/6</b></p><p>In this part, two red lines will appear side by side.</p><p>Your task is to tell <b>which line is longer</b> in length, regardless of their orientation, as fast as you can, and without making errors.</p><p>Don't get distracted by the orientation of the lines!</p><p>Press <b>the LEFT or the RIGHT arrow</b> to indicate which <b>line is the longer one.</b></p><div style='float: center'><img src='materials/instructions/VerticalHorizontal_Demo.png' height='300'></img><p><img src='utils/answer/answer_leftright_keyboard.PNG' height='150'></img></p><p class='small'>In this example, the correct answer is the <b>LEFT arrow</b>.</p></div><p>Are you ready? <b>Press ENTER to start</b></p>"	n/a	n/a	n/a	n/a	n/a	n/a	n/a	n/a	n/a	n/a
n/a	"html-keyboard-response"	"184"	"470507"	"0.0-6.0-2.0-0.0"	"2bhdeq"	"600"	"1366"	"chrome"	"109.0.0"	"FALSE"	"Windows 10"	"60.82"	"008"	n/a	n/a	n/a	n/a	n/a	n/a	"fixation"	n/a	n/a	n/a	n/a	"NULL"	n/a	"NULL"	"NULL"	"NULL"	"<p style=\"color: black; font-size: 80px; padding-left: 1%; padding-right: 30%; padding-top: 25%; padding-bottom: 6%\">+</p>"	"1139"	n/a	n/a	n/a	n/a	n/a	n/a	n/a	n/a	n/a
n/a	"image-keyboard-response"	"185"	"471059"	"0.0-6.0-2.0-1.0"	"2bhdeq"	"600"	"1366"	"chrome"	"109.0.0"	"FALSE"	"Windows 10"	"60.82"	"008"	n/a	n/a	n/a	n/a	n/a	n/a	"Trial"	n/a	n/a	n/a	"551"	"arrowleft"	n/a	"NULL"	"NULL"	"NULL"	"stimuli/VerticalHorizontal_-11.78571_0.22500.png"	n/a	"VerticalHorizontal"	"arrowleft"	"1681"	"TRUE"	"VerticalHorizontal"	"-11.78571000"	"0.2250000000"	"2"	"1"
n/a	"html-keyboard-response"	"186"	"472193"	"0.0-6.0-2.0-0.1"	"2bhdeq"	"600"	"1366"	"chrome"	"109.0.0"	"FALSE"	"Windows 10"	"60.82"	"008"	n/a	n/a	n/a	n/a	n/a	n/a	"fixation"	n/a	n/a	n/a	n/a	"NULL"	n/a	"NULL"	"NULL"	"NULL"	"<p style=\"color: black; font-size: 80px; padding-left: 9%; padding-right: 1%; padding-top: 43%; padding-bottom: 26%\">+</p>"	"1114"	n/a	n/a	n/a	n/a	n/a	n/a	n/a	n/a	n/a
n/a	"image-keyboard-response"	"187"	"472895"	"0.0-6.0-2.0-1.1"	"2bhdeq"	"600"	"1366"	"chrome"	"109.0.0"	"FALSE"	"Windows 10"	"60.82"	"008"	n/a	n/a	n/a	n/a	n/a	n/a	"Trial"	n/a	n/a	n/a	"701"	"arrowright"	n/a	"NULL"	"NULL"	"NULL"	"stimuli/VerticalHorizontal_-3.3000_-0.2250.png"	n/a	"VerticalHorizontal"	"arrowright"	"1134"	"TRUE"	"VerticalHorizontal"	"-3.300000000"	"-0.225000000"	"2"	"2"
n/a	"html-keyboard-response"	"188"	"473914"	"0.0-6.0-2.0-0.2"	"2bhdeq"	"600"	"1366"	"chrome"	"109.0.0"	"FALSE"	"Windows 10"	"60.82"	"008"	n/a	n/a	n/a	n/a	n/a	n/a	"fixation"	n/a	n/a	n/a	n/a	"NULL"	n/a	"NULL"	"NULL"	"NULL"	"<p style=\"color: black; font-size: 80px; padding-left: 49%; padding-right: 33%; padding-top: 24%; padding-bottom: 31%\">+</p>"	"1008"	n/a	n/a	n/a	n/a	n/a	n/a	n/a	n/a	n/a
n/a	"image-keyboard-response"	"189"	"475203"	"0.0-6.0-2.0-1.2"	"2bhdeq"	"600"	"1366"	"chrome"	"109.0.0"	"FALSE"	"Windows 10"	"60.82"	"008"	n/a	n/a	n/a	n/a	n/a	n/a	"Trial"	n/a	n/a	n/a	"1287"	"arrowleft"	n/a	"NULL"	"NULL"	"NULL"	"stimuli/VerticalHorizontal_28.75714_-0.0673.png"	n/a	"VerticalHorizontal"	"arrowright"	"1019"	"FALSE"	"VerticalHorizontal"	"28.757140000"	"-0.067300000"	"2"	"3"
n/a	"html-keyboard-response"	"190"	"476228"	"0.0-6.0-2.0-0.3"	"2bhdeq"	"600"	"1366"	"chrome"	"109.0.0"	"FALSE"	"Windows 10"	"60.82"	"008"	n/a	n/a	n/a	n/a	n/a	n/a	"fixation"	n/a	n/a	n/a	n/a	"NULL"	n/a	"NULL"	"NULL"	"NULL"	"<p style=\"color: black; font-size: 80px; padding-left: 6%; padding-right: 8%; padding-top: 43%; padding-bottom: 43%\">+</p>"	"1017"	n/a	n/a	n/a	n/a	n/a	n/a	n/a	n/a	n/a
n/a	"image-keyboard-response"	"191"	"478297"	"0.0-6.0-2.0-1.3"	"2bhdeq"	"600"	"1366"	"chrome"	"109.0.0"	"FALSE"	"Windows 10"	"60.82"	"008"	n/a	n/a	n/a	n/a	n/a	n/a	"Trial"	n/a	n/a	n/a	"2069"	"arrowleft"	n/a	"NULL"	"NULL"	"NULL"	"stimuli/VerticalHorizontal_20.27143_0.22500.png"	n/a	"VerticalHorizontal"	"arrowleft"	"1025"	"TRUE"	"VerticalHorizontal"	"20.271430000"	"0.2250000000"	"2"	"4"
n/a	"html-keyboard-response"	"192"	"479778"	"0.0-6.0-2.0-0.4"	"2bhdeq"	"600"	"1366"	"chrome"	"109.0.0"	"FALSE"	"Windows 10"	"60.82"	"008"	n/a	n/a	n/a	n/a	n/a	n/a	"fixation"	n/a	n/a	n/a	n/a	"NULL"	n/a	"NULL"	"NULL"	"NULL"	"<p style=\"color: black; font-size: 80px; padding-left: 3%; padding-right: 0%; padding-top: 32%; padding-bottom: 6%\">+</p>"	"1467"	n/a	n/a	n/a	n/a	n/a	n/a	n/a	n/a	n/a
n/a	"image-keyboard-response"	"193"	"480939"	"0.0-6.0-2.0-1.4"	"2bhdeq"	"600"	"1366"	"chrome"	"109.0.0"	"FALSE"	"Windows 10"	"60.82"	"008"	n/a	n/a	n/a	n/a	n/a	n/a	"Trial"	n/a	n/a	n/a	"1159"	"arrowleft"	n/a	"NULL"	"NULL"	"NULL"	"stimuli/VerticalHorizontal_-3.3000_0.10960.png"	n/a	"VerticalHorizontal"	"arrowleft"	"1481"	"TRUE"	"VerticalHorizontal"	"-3.300000000"	"0.1096000000"	"2"	"5"
n/a	"html-keyboard-response"	"194"	"482152"	"0.0-6.0-2.0-0.5"	"2bhdeq"	"600"	"1366"	"chrome"	"109.0.0"	"FALSE"	"Windows 10"	"60.82"	"008"	n/a	n/a	n/a	n/a	n/a	n/a	"fixation"	n/a	n/a	n/a	n/a	"NULL"	n/a	"NULL"	"NULL"	"NULL"	"<p style=\"color: black; font-size: 80px; padding-left: 3%; padding-right: 31%; padding-top: 15%; padding-bottom: 12%\">+</p>"	"1208"	n/a	n/a	n/a	n/a	n/a	n/a	n/a	n/a	n/a
n/a	"image-keyboard-response"	"195"	"483167"	"0.0-6.0-2.0-1.5"	"2bhdeq"	"600"	"1366"	"chrome"	"109.0.0"	"FALSE"	"Windows 10"	"60.82"	"008"	n/a	n/a	n/a	n/a	n/a	n/a	"Trial"	n/a	n/a	n/a	"1014"	"arrowright"	n/a	"NULL"	"NULL"	"NULL"	"stimuli/VerticalHorizontal_-28.75714_-0.0673.png"	n/a	"VerticalHorizontal"	"arrowright"	"1213"	"TRUE"	"VerticalHorizontal"	"-28.75714000"	"-0.067300000"	"2"	"6"
n/a	"html-keyboard-response"	"196"	"484488"	"0.0-6.0-2.0-0.6"	"2bhdeq"	"600"	"1366"	"chrome"	"109.0.0"	"FALSE"	"Windows 10"	"60.82"	"008"	n/a	n/a	n/a	n/a	n/a	n/a	"fixation"	n/a	n/a	n/a	n/a	"NULL"	n/a	"NULL"	"NULL"	"NULL"	"<p style=\"color: black; font-size: 80px; padding-left: 38%; padding-right: 43%; padding-top: 49%; padding-bottom: 27%\">+</p>"	"1307"	n/a	n/a	n/a	n/a	n/a	n/a	n/a	n/a	n/a
n/a	"image-keyboard-response"	"197"	"485899"	"0.0-6.0-2.0-1.6"	"2bhdeq"	"600"	"1366"	"chrome"	"109.0.0"	"FALSE"	"Windows 10"	"60.82"	"008"	n/a	n/a	n/a	n/a	n/a	n/a	"Trial"	n/a	n/a	n/a	"1410"	"arrowleft"	n/a	"NULL"	"NULL"	"NULL"	"stimuli/VerticalHorizontal_-28.75714_0.06730.png"	n/a	"VerticalHorizontal"	"arrowleft"	"1321"	"TRUE"	"VerticalHorizontal"	"-28.75714000"	"0.0673000000"	"2"	"7"
n/a	"html-keyboard-response"	"198"	"487297"	"0.0-6.0-2.0-0.7"	"2bhdeq"	"600"	"1366"	"chrome"	"109.0.0"	"FALSE"	"Windows 10"	"60.82"	"008"	n/a	n/a	n/a	n/a	n/a	n/a	"fixation"	n/a	n/a	n/a	n/a	"NULL"	n/a	"NULL"	"NULL"	"NULL"	"<p style=\"color: black; font-size: 80px; padding-left: 33%; padding-right: 24%; padding-top: 30%; padding-bottom: 47%\">+</p>"	"1378"	n/a	n/a	n/a	n/a	n/a	n/a	n/a	n/a	n/a
n/a	"image-keyboard-response"	"199"	"488654"	"0.0-6.0-2.0-1.7"	"2bhdeq"	"600"	"1366"	"chrome"	"109.0.0"	"FALSE"	"Windows 10"	"60.82"	"008"	n/a	n/a	n/a	n/a	n/a	n/a	"Trial"	n/a	n/a	n/a	"1353"	"arrowright"	n/a	"NULL"	"NULL"	"NULL"	"stimuli/VerticalHorizontal_11.78571_-0.16217.png"	n/a	"VerticalHorizontal"	"arrowright"	"1398"	"TRUE"	"VerticalHorizontal"	"11.785710000"	"-0.162170000"	"2"	"8"
n/a	"html-keyboard-response"	"200"	"490145"	"0.0-6.0-2.0-0.8"	"2bhdeq"	"600"	"1366"	"chrome"	"109.0.0"	"FALSE"	"Windows 10"	"60.82"	"008"	n/a	n/a	n/a	n/a	n/a	n/a	"fixation"	n/a	n/a	n/a	n/a	"NULL"	n/a	"NULL"	"NULL"	"NULL"	"<p style=\"color: black; font-size: 80px; padding-left: 28%; padding-right: 18%; padding-top: 29%; padding-bottom: 46%\">+</p>"	"1483"	n/a	n/a	n/a	n/a	n/a	n/a	n/a	n/a	n/a
n/a	"image-keyboard-response"	"201"	"491425"	"0.0-6.0-2.0-1.8"	"2bhdeq"	"600"	"1366"	"chrome"	"109.0.0"	"FALSE"	"Windows 10"	"60.82"	"008"	n/a	n/a	n/a	n/a	n/a	n/a	"Trial"	n/a	n/a	n/a	"1278"	"arrowleft"	n/a	"NULL"	"NULL"	"NULL"	"stimuli/VerticalHorizontal_3.30000_0.10960.png"	n/a	"VerticalHorizontal"	"arrowleft"	"1491"	"TRUE"	"VerticalHorizontal"	"3.3000000000"	"0.1096000000"	"2"	"9"
n/a	"html-keyboard-response"	"202"	"492498"	"0.0-6.0-2.0-0.9"	"2bhdeq"	"600"	"1366"	"chrome"	"109.0.0"	"FALSE"	"Windows 10"	"60.82"	"008"	n/a	n/a	n/a	n/a	n/a	n/a	"fixation"	n/a	n/a	n/a	n/a	"NULL"	n/a	"NULL"	"NULL"	"NULL"	"<p style=\"color: black; font-size: 80px; padding-left: 9%; padding-right: 42%; padding-top: 43%; padding-bottom: 22%\">+</p>"	"1066"	n/a	n/a	n/a	n/a	n/a	n/a	n/a	n/a	n/a
n/a	"image-keyboard-response"	"203"	"493149"	"0.0-6.0-2.0-1.9"	"2bhdeq"	"600"	"1366"	"chrome"	"109.0.0"	"FALSE"	"Windows 10"	"60.82"	"008"	n/a	n/a	n/a	n/a	n/a	n/a	"Trial"	n/a	n/a	n/a	"650"	"arrowright"	n/a	"NULL"	"NULL"	"NULL"	"stimuli/VerticalHorizontal_-20.27143_-0.16217.png"	n/a	"VerticalHorizontal"	"arrowright"	"1073"	"TRUE"	"VerticalHorizontal"	"-20.27143000"	"-0.162170000"	"2"	"10"
n/a	"html-keyboard-response"	"204"	"494490"	"0.0-6.0-2.0-0.10"	"2bhdeq"	"600"	"1366"	"chrome"	"109.0.0"	"FALSE"	"Windows 10"	"60.82"	"008"	n/a	n/a	n/a	n/a	n/a	n/a	"fixation"	n/a	n/a	n/a	n/a	"NULL"	n/a	"NULL"	"NULL"	"NULL"	"<p style=\"color: black; font-size: 80px; padding-left: 36%; padding-right: 32%; padding-top: 25%; padding-bottom: 18%\">+</p>"	"1332"	n/a	n/a	n/a	n/a	n/a	n/a	n/a	n/a	n/a
n/a	"image-keyboard-response"	"205"	"496970"	"0.0-6.0-2.0-1.10"	"2bhdeq"	"600"	"1366"	"chrome"	"109.0.0"	"FALSE"	"Windows 10"	"60.82"	"008"	n/a	n/a	n/a	n/a	n/a	n/a	"Trial"	n/a	n/a	n/a	"2479"	"arrowright"	n/a	"NULL"	"NULL"	"NULL"	"stimuli/VerticalHorizontal_28.75714_-0.1096.png"	n/a	"VerticalHorizontal"	"arrowright"	"1341"	"TRUE"	"VerticalHorizontal"	"28.757140000"	"-0.109600000"	"2"	"11"
n/a	"html-keyboard-response"	"206"	"498188"	"0.0-6.0-2.0-0.11"	"2bhdeq"	"600"	"1366"	"chrome"	"109.0.0"	"FALSE"	"Windows 10"	"60.82"	"008"	n/a	n/a	n/a	n/a	n/a	n/a	"fixation"	n/a	n/a	n/a	n/a	"NULL"	n/a	"NULL"	"NULL"	"NULL"	"<p style=\"color: black; font-size: 80px; padding-left: 37%; padding-right: 34%; padding-top: 14%; padding-bottom: 28%\">+</p>"	"1210"	n/a	n/a	n/a	n/a	n/a	n/a	n/a	n/a	n/a
n/a	"image-keyboard-response"	"207"	"502713"	"0.0-6.0-2.0-1.11"	"2bhdeq"	"600"	"1366"	"chrome"	"109.0.0"	"FALSE"	"Windows 10"	"60.82"	"008"	n/a	n/a	n/a	n/a	n/a	n/a	"Trial"	n/a	n/a	n/a	"4524"	"arrowleft"	n/a	"NULL"	"NULL"	"NULL"	"stimuli/VerticalHorizontal_28.75714_0.06730.png"	n/a	"VerticalHorizontal"	"arrowleft"	"1218"	"TRUE"	"VerticalHorizontal"	"28.757140000"	"0.0673000000"	"2"	"12"
n/a	"html-keyboard-response"	"208"	"503927"	"0.0-6.0-2.0-0.12"	"2bhdeq"	"600"	"1366"	"chrome"	"109.0.0"	"FALSE"	"Windows 10"	"60.82"	"008"	n/a	n/a	n/a	n/a	n/a	n/a	"fixation"	n/a	n/a	n/a	n/a	"NULL"	n/a	"NULL"	"NULL"	"NULL"	"<p style=\"color: black; font-size: 80px; padding-left: 5%; padding-right: 25%; padding-top: 40%; padding-bottom: 41%\">+</p>"	"1204"	n/a	n/a	n/a	n/a	n/a	n/a	n/a	n/a	n/a
n/a	"image-keyboard-response"	"209"	"507354"	"0.0-6.0-2.0-1.12"	"2bhdeq"	"600"	"1366"	"chrome"	"109.0.0"	"FALSE"	"Windows 10"	"60.82"	"008"	n/a	n/a	n/a	n/a	n/a	n/a	"Trial"	n/a	n/a	n/a	"3426"	"arrowright"	n/a	"NULL"	"NULL"	"NULL"	"stimuli/VerticalHorizontal_-11.78571_-0.0673.png"	n/a	"VerticalHorizontal"	"arrowright"	"1214"	"TRUE"	"VerticalHorizontal"	"-11.78571000"	"-0.067300000"	"2"	"13"
n/a	"html-keyboard-response"	"210"	"508770"	"0.0-6.0-2.0-0.13"	"2bhdeq"	"600"	"1366"	"chrome"	"109.0.0"	"FALSE"	"Windows 10"	"60.82"	"008"	n/a	n/a	n/a	n/a	n/a	n/a	"fixation"	n/a	n/a	n/a	n/a	"NULL"	n/a	"NULL"	"NULL"	"NULL"	"<p style=\"color: black; font-size: 80px; padding-left: 28%; padding-right: 10%; padding-top: 23%; padding-bottom: 49%\">+</p>"	"1403"	n/a	n/a	n/a	n/a	n/a	n/a	n/a	n/a	n/a
n/a	"image-keyboard-response"	"211"	"511628"	"0.0-6.0-2.0-1.13"	"2bhdeq"	"600"	"1366"	"chrome"	"109.0.0"	"FALSE"	"Windows 10"	"60.82"	"008"	n/a	n/a	n/a	n/a	n/a	n/a	"Trial"	n/a	n/a	n/a	"2856"	"arrowright"	n/a	"NULL"	"NULL"	"NULL"	"stimuli/VerticalHorizontal_-20.27143_-0.0673.png"	n/a	"VerticalHorizontal"	"arrowright"	"1416"	"TRUE"	"VerticalHorizontal"	"-20.27143000"	"-0.067300000"	"2"	"14"
n/a	"html-keyboard-response"	"212"	"512746"	"0.0-6.0-2.0-0.14"	"2bhdeq"	"600"	"1366"	"chrome"	"109.0.0"	"FALSE"	"Windows 10"	"60.82"	"008"	n/a	n/a	n/a	n/a	n/a	n/a	"fixation"	n/a	n/a	n/a	n/a	"NULL"	n/a	"NULL"	"NULL"	"NULL"	"<p style=\"color: black; font-size: 80px; padding-left: 24%; padding-right: 18%; padding-top: 29%; padding-bottom: 36%\">+</p>"	"1104"	n/a	n/a	n/a	n/a	n/a	n/a	n/a	n/a	n/a
n/a	"image-keyboard-response"	"213"	"513707"	"0.0-6.0-2.0-1.14"	"2bhdeq"	"600"	"1366"	"chrome"	"109.0.0"	"FALSE"	"Windows 10"	"60.82"	"008"	n/a	n/a	n/a	n/a	n/a	n/a	"Trial"	n/a	n/a	n/a	"960"	"arrowleft"	n/a	"NULL"	"NULL"	"NULL"	"stimuli/VerticalHorizontal_3.30000_0.22500.png"	n/a	"VerticalHorizontal"	"arrowleft"	"1118"	"TRUE"	"VerticalHorizontal"	"3.3000000000"	"0.2250000000"	"2"	"15"
n/a	"html-keyboard-response"	"214"	"514773"	"0.0-6.0-2.0-0.15"	"2bhdeq"	"600"	"1366"	"chrome"	"109.0.0"	"FALSE"	"Windows 10"	"60.82"	"008"	n/a	n/a	n/a	n/a	n/a	n/a	"fixation"	n/a	n/a	n/a	n/a	"NULL"	n/a	"NULL"	"NULL"	"NULL"	"<p style=\"color: black; font-size: 80px; padding-left: 34%; padding-right: 17%; padding-top: 0%; padding-bottom: 46%\">+</p>"	"1064"	n/a	n/a	n/a	n/a	n/a	n/a	n/a	n/a	n/a
n/a	"image-keyboard-response"	"215"	"515835"	"0.0-6.0-2.0-1.15"	"2bhdeq"	"600"	"1366"	"chrome"	"109.0.0"	"FALSE"	"Windows 10"	"60.82"	"008"	n/a	n/a	n/a	n/a	n/a	n/a	"Trial"	n/a	n/a	n/a	"1060"	"arrowleft"	n/a	"NULL"	"NULL"	"NULL"	"stimuli/VerticalHorizontal_-11.78571_0.06730.png"	n/a	"VerticalHorizontal"	"arrowleft"	"1066"	"TRUE"	"VerticalHorizontal"	"-11.78571000"	"0.0673000000"	"2"	"16"
n/a	"html-keyboard-response"	"216"	"517122"	"0.0-6.0-2.0-0.16"	"2bhdeq"	"600"	"1366"	"chrome"	"109.0.0"	"FALSE"	"Windows 10"	"60.82"	"008"	n/a	n/a	n/a	n/a	n/a	n/a	"fixation"	n/a	n/a	n/a	n/a	"NULL"	n/a	"NULL"	"NULL"	"NULL"	"<p style=\"color: black; font-size: 80px; padding-left: 2%; padding-right: 16%; padding-top: 43%; padding-bottom: 50%\">+</p>"	"1269"	n/a	n/a	n/a	n/a	n/a	n/a	n/a	n/a	n/a
n/a	"image-keyboard-response"	"217"	"517811"	"0.0-6.0-2.0-1.16"	"2bhdeq"	"600"	"1366"	"chrome"	"109.0.0"	"FALSE"	"Windows 10"	"60.82"	"008"	n/a	n/a	n/a	n/a	n/a	n/a	"Trial"	n/a	n/a	n/a	"688"	"arrowright"	n/a	"NULL"	"NULL"	"NULL"	"stimuli/VerticalHorizontal_3.30000_-0.16217.png"	n/a	"VerticalHorizontal"	"arrowright"	"1287"	"TRUE"	"VerticalHorizontal"	"3.3000000000"	"-0.162170000"	"2"	"17"
n/a	"html-keyboard-response"	"218"	"519302"	"0.0-6.0-2.0-0.17"	"2bhdeq"	"600"	"1366"	"chrome"	"109.0.0"	"FALSE"	"Windows 10"	"60.82"	"008"	n/a	n/a	n/a	n/a	n/a	n/a	"fixation"	n/a	n/a	n/a	n/a	"NULL"	n/a	"NULL"	"NULL"	"NULL"	"<p style=\"color: black; font-size: 80px; padding-left: 0%; padding-right: 15%; padding-top: 5%; padding-bottom: 29%\">+</p>"	"1482"	n/a	n/a	n/a	n/a	n/a	n/a	n/a	n/a	n/a
n/a	"image-keyboard-response"	"219"	"520421"	"0.0-6.0-2.0-1.17"	"2bhdeq"	"600"	"1366"	"chrome"	"109.0.0"	"FALSE"	"Windows 10"	"60.82"	"008"	n/a	n/a	n/a	n/a	n/a	n/a	"Trial"	n/a	n/a	n/a	"1119"	"arrowright"	n/a	"NULL"	"NULL"	"NULL"	"stimuli/VerticalHorizontal_-28.75714_-0.1096.png"	n/a	"VerticalHorizontal"	"arrowright"	"1491"	"TRUE"	"VerticalHorizontal"	"-28.75714000"	"-0.109600000"	"2"	"18"
n/a	"html-keyboard-response"	"220"	"521569"	"0.0-6.0-2.0-0.18"	"2bhdeq"	"600"	"1366"	"chrome"	"109.0.0"	"FALSE"	"Windows 10"	"60.82"	"008"	n/a	n/a	n/a	n/a	n/a	n/a	"fixation"	n/a	n/a	n/a	n/a	"NULL"	n/a	"NULL"	"NULL"	"NULL"	"<p style=\"color: black; font-size: 80px; padding-left: 39%; padding-right: 49%; padding-top: 1%; padding-bottom: 2%\">+</p>"	"1135"	n/a	n/a	n/a	n/a	n/a	n/a	n/a	n/a	n/a
n/a	"image-keyboard-response"	"221"	"522899"	"0.0-6.0-2.0-1.18"	"2bhdeq"	"600"	"1366"	"chrome"	"109.0.0"	"FALSE"	"Windows 10"	"60.82"	"008"	n/a	n/a	n/a	n/a	n/a	n/a	"Trial"	n/a	n/a	n/a	"1329"	"arrowright"	n/a	"NULL"	"NULL"	"NULL"	"stimuli/VerticalHorizontal_28.75714_-0.2250.png"	n/a	"VerticalHorizontal"	"arrowright"	"1148"	"TRUE"	"VerticalHorizontal"	"28.757140000"	"-0.225000000"	"2"	"19"
n/a	"html-keyboard-response"	"222"	"523928"	"0.0-6.0-2.0-0.19"	"2bhdeq"	"600"	"1366"	"chrome"	"109.0.0"	"FALSE"	"Windows 10"	"60.82"	"008"	n/a	n/a	n/a	n/a	n/a	n/a	"fixation"	n/a	n/a	n/a	n/a	"NULL"	n/a	"NULL"	"NULL"	"NULL"	"<p style=\"color: black; font-size: 80px; padding-left: 30%; padding-right: 26%; padding-top: 18%; padding-bottom: 47%\">+</p>"	"1022"	n/a	n/a	n/a	n/a	n/a	n/a	n/a	n/a	n/a
n/a	"image-keyboard-response"	"223"	"525176"	"0.0-6.0-2.0-1.19"	"2bhdeq"	"600"	"1366"	"chrome"	"109.0.0"	"FALSE"	"Windows 10"	"60.82"	"008"	n/a	n/a	n/a	n/a	n/a	n/a	"Trial"	n/a	n/a	n/a	"1247"	"arrowleft"	n/a	"NULL"	"NULL"	"NULL"	"stimuli/VerticalHorizontal_-20.27143_0.22500.png"	n/a	"VerticalHorizontal"	"arrowleft"	"1029"	"TRUE"	"VerticalHorizontal"	"-20.27143000"	"0.2250000000"	"2"	"20"
n/a	"html-keyboard-response"	"224"	"526685"	"0.0-6.0-2.0-0.20"	"2bhdeq"	"600"	"1366"	"chrome"	"109.0.0"	"FALSE"	"Windows 10"	"60.82"	"008"	n/a	n/a	n/a	n/a	n/a	n/a	"fixation"	n/a	n/a	n/a	n/a	"NULL"	n/a	"NULL"	"NULL"	"NULL"	"<p style=\"color: black; font-size: 80px; padding-left: 4%; padding-right: 1%; padding-top: 22%; padding-bottom: 6%\">+</p>"	"1491"	n/a	n/a	n/a	n/a	n/a	n/a	n/a	n/a	n/a
n/a	"image-keyboard-response"	"225"	"527850"	"0.0-6.0-2.0-1.20"	"2bhdeq"	"600"	"1366"	"chrome"	"109.0.0"	"FALSE"	"Windows 10"	"60.82"	"008"	n/a	n/a	n/a	n/a	n/a	n/a	"Trial"	n/a	n/a	n/a	"1164"	"arrowleft"	n/a	"NULL"	"NULL"	"NULL"	"stimuli/VerticalHorizontal_-20.27143_0.16217.png"	n/a	"VerticalHorizontal"	"arrowleft"	"1509"	"TRUE"	"VerticalHorizontal"	"-20.27143000"	"0.1621700000"	"2"	"21"
n/a	"html-keyboard-response"	"226"	"529084"	"0.0-6.0-2.0-0.21"	"2bhdeq"	"600"	"1366"	"chrome"	"109.0.0"	"FALSE"	"Windows 10"	"60.82"	"008"	n/a	n/a	n/a	n/a	n/a	n/a	"fixation"	n/a	n/a	n/a	n/a	"NULL"	n/a	"NULL"	"NULL"	"NULL"	"<p style=\"color: black; font-size: 80px; padding-left: 26%; padding-right: 46%; padding-top: 19%; padding-bottom: 48%\">+</p>"	"1212"	n/a	n/a	n/a	n/a	n/a	n/a	n/a	n/a	n/a
n/a	"image-keyboard-response"	"227"	"530157"	"0.0-6.0-2.0-1.21"	"2bhdeq"	"600"	"1366"	"chrome"	"109.0.0"	"FALSE"	"Windows 10"	"60.82"	"008"	n/a	n/a	n/a	n/a	n/a	n/a	"Trial"	n/a	n/a	n/a	"1071"	"arrowright"	n/a	"NULL"	"NULL"	"NULL"	"stimuli/VerticalHorizontal_20.27143_-0.2250.png"	n/a	"VerticalHorizontal"	"arrowright"	"1234"	"TRUE"	"VerticalHorizontal"	"20.271430000"	"-0.225000000"	"2"	"22"
n/a	"html-keyboard-response"	"228"	"531334"	"0.0-6.0-2.0-0.22"	"2bhdeq"	"600"	"1366"	"chrome"	"109.0.0"	"FALSE"	"Windows 10"	"60.82"	"008"	n/a	n/a	n/a	n/a	n/a	n/a	"fixation"	n/a	n/a	n/a	n/a	"NULL"	n/a	"NULL"	"NULL"	"NULL"	"<p style=\"color: black; font-size: 80px; padding-left: 0%; padding-right: 32%; padding-top: 36%; padding-bottom: 40%\">+</p>"	"1151"	n/a	n/a	n/a	n/a	n/a	n/a	n/a	n/a	n/a
n/a	"image-keyboard-response"	"229"	"532650"	"0.0-6.0-2.0-1.22"	"2bhdeq"	"600"	"1366"	"chrome"	"109.0.0"	"FALSE"	"Windows 10"	"60.82"	"008"	n/a	n/a	n/a	n/a	n/a	n/a	"Trial"	n/a	n/a	n/a	"1315"	"arrowleft"	n/a	"NULL"	"NULL"	"NULL"	"stimuli/VerticalHorizontal_-3.3000_0.16217.png"	n/a	"VerticalHorizontal"	"arrowleft"	"1177"	"TRUE"	"VerticalHorizontal"	"-3.300000000"	"0.1621700000"	"2"	"23"
n/a	"html-keyboard-response"	"230"	"534113"	"0.0-6.0-2.0-0.23"	"2bhdeq"	"600"	"1366"	"chrome"	"109.0.0"	"FALSE"	"Windows 10"	"60.82"	"008"	n/a	n/a	n/a	n/a	n/a	n/a	"fixation"	n/a	n/a	n/a	n/a	"NULL"	n/a	"NULL"	"NULL"	"NULL"	"<p style=\"color: black; font-size: 80px; padding-left: 40%; padding-right: 49%; padding-top: 22%; padding-bottom: 27%\">+</p>"	"1455"	n/a	n/a	n/a	n/a	n/a	n/a	n/a	n/a	n/a
n/a	"image-keyboard-response"	"231"	"535766"	"0.0-6.0-2.0-1.23"	"2bhdeq"	"600"	"1366"	"chrome"	"109.0.0"	"FALSE"	"Windows 10"	"60.82"	"008"	n/a	n/a	n/a	n/a	n/a	n/a	"Trial"	n/a	n/a	n/a	"1652"	"arrowright"	n/a	"NULL"	"NULL"	"NULL"	"stimuli/VerticalHorizontal_-11.78571_-0.1096.png"	n/a	"VerticalHorizontal"	"arrowright"	"1463"	"TRUE"	"VerticalHorizontal"	"-11.78571000"	"-0.109600000"	"2"	"24"
n/a	"html-keyboard-response"	"232"	"537014"	"0.0-6.0-2.0-0.24"	"2bhdeq"	"600"	"1366"	"chrome"	"109.0.0"	"FALSE"	"Windows 10"	"60.82"	"008"	n/a	n/a	n/a	n/a	n/a	n/a	"fixation"	n/a	n/a	n/a	n/a	"NULL"	n/a	"NULL"	"NULL"	"NULL"	"<p style=\"color: black; font-size: 80px; padding-left: 2%; padding-right: 1%; padding-top: 9%; padding-bottom: 9%\">+</p>"	"1234"	n/a	n/a	n/a	n/a	n/a	n/a	n/a	n/a	n/a
n/a	"image-keyboard-response"	"233"	"538589"	"0.0-6.0-2.0-1.24"	"2bhdeq"	"600"	"1366"	"chrome"	"109.0.0"	"FALSE"	"Windows 10"	"60.82"	"008"	n/a	n/a	n/a	n/a	n/a	n/a	"Trial"	n/a	n/a	n/a	"1574"	"arrowright"	n/a	"NULL"	"NULL"	"NULL"	"stimuli/VerticalHorizontal_3.30000_-0.0673.png"	n/a	"VerticalHorizontal"	"arrowright"	"1248"	"TRUE"	"VerticalHorizontal"	"3.3000000000"	"-0.067300000"	"2"	"25"
n/a	"html-keyboard-response"	"234"	"539732"	"0.0-6.0-2.0-0.25"	"2bhdeq"	"600"	"1366"	"chrome"	"109.0.0"	"FALSE"	"Windows 10"	"60.82"	"008"	n/a	n/a	n/a	n/a	n/a	n/a	"fixation"	n/a	n/a	n/a	n/a	"NULL"	n/a	"NULL"	"NULL"	"NULL"	"<p style=\"color: black; font-size: 80px; padding-left: 8%; padding-right: 3%; padding-top: 15%; padding-bottom: 14%\">+</p>"	"1120"	n/a	n/a	n/a	n/a	n/a	n/a	n/a	n/a	n/a
n/a	"image-keyboard-response"	"235"	"543696"	"0.0-6.0-2.0-1.25"	"2bhdeq"	"600"	"1366"	"chrome"	"109.0.0"	"FALSE"	"Windows 10"	"60.82"	"008"	n/a	n/a	n/a	n/a	n/a	n/a	"Trial"	n/a	n/a	n/a	"3963"	"arrowleft"	n/a	"NULL"	"NULL"	"NULL"	"stimuli/VerticalHorizontal_28.75714_0.10960.png"	n/a	"VerticalHorizontal"	"arrowleft"	"1143"	"TRUE"	"VerticalHorizontal"	"28.757140000"	"0.1096000000"	"2"	"26"
n/a	"html-keyboard-response"	"236"	"544850"	"0.0-6.0-2.0-0.26"	"2bhdeq"	"600"	"1366"	"chrome"	"109.0.0"	"FALSE"	"Windows 10"	"60.82"	"008"	n/a	n/a	n/a	n/a	n/a	n/a	"fixation"	n/a	n/a	n/a	n/a	"NULL"	n/a	"NULL"	"NULL"	"NULL"	"<p style=\"color: black; font-size: 80px; padding-left: 47%; padding-right: 31%; padding-top: 42%; padding-bottom: 17%\">+</p>"	"1139"	n/a	n/a	n/a	n/a	n/a	n/a	n/a	n/a	n/a
n/a	"image-keyboard-response"	"237"	"547751"	"0.0-6.0-2.0-1.26"	"2bhdeq"	"600"	"1366"	"chrome"	"109.0.0"	"FALSE"	"Windows 10"	"60.82"	"008"	n/a	n/a	n/a	n/a	n/a	n/a	"Trial"	n/a	n/a	n/a	"2900"	"arrowleft"	n/a	"NULL"	"NULL"	"NULL"	"stimuli/VerticalHorizontal_28.75714_0.16217.png"	n/a	"VerticalHorizontal"	"arrowleft"	"1154"	"TRUE"	"VerticalHorizontal"	"28.757140000"	"0.1621700000"	"2"	"27"
n/a	"html-keyboard-response"	"238"	"549238"	"0.0-6.0-2.0-0.27"	"2bhdeq"	"600"	"1366"	"chrome"	"109.0.0"	"FALSE"	"Windows 10"	"60.82"	"008"	n/a	n/a	n/a	n/a	n/a	n/a	"fixation"	n/a	n/a	n/a	n/a	"NULL"	n/a	"NULL"	"NULL"	"NULL"	"<p style=\"color: black; font-size: 80px; padding-left: 12%; padding-right: 6%; padding-top: 47%; padding-bottom: 11%\">+</p>"	"1474"	n/a	n/a	n/a	n/a	n/a	n/a	n/a	n/a	n/a
n/a	"image-keyboard-response"	"239"	"550015"	"0.0-6.0-2.0-1.27"	"2bhdeq"	"600"	"1366"	"chrome"	"109.0.0"	"FALSE"	"Windows 10"	"60.82"	"008"	n/a	n/a	n/a	n/a	n/a	n/a	"Trial"	n/a	n/a	n/a	"775"	"arrowright"	n/a	"NULL"	"NULL"	"NULL"	"stimuli/VerticalHorizontal_-20.27143_-0.2250.png"	n/a	"VerticalHorizontal"	"arrowright"	"1487"	"TRUE"	"VerticalHorizontal"	"-20.27143000"	"-0.225000000"	"2"	"28"
n/a	"html-keyboard-response"	"240"	"551186"	"0.0-6.0-2.0-0.28"	"2bhdeq"	"600"	"1366"	"chrome"	"109.0.0"	"FALSE"	"Windows 10"	"60.82"	"008"	n/a	n/a	n/a	n/a	n/a	n/a	"fixation"	n/a	n/a	n/a	n/a	"NULL"	n/a	"NULL"	"NULL"	"NULL"	"<p style=\"color: black; font-size: 80px; padding-left: 23%; padding-right: 16%; padding-top: 29%; padding-bottom: 23%\">+</p>"	"1153"	n/a	n/a	n/a	n/a	n/a	n/a	n/a	n/a	n/a
n/a	"image-keyboard-response"	"241"	"551986"	"0.0-6.0-2.0-1.28"	"2bhdeq"	"600"	"1366"	"chrome"	"109.0.0"	"FALSE"	"Windows 10"	"60.82"	"008"	n/a	n/a	n/a	n/a	n/a	n/a	"Trial"	n/a	n/a	n/a	"799"	"arrowright"	n/a	"NULL"	"NULL"	"NULL"	"stimuli/VerticalHorizontal_3.30000_-0.2250.png"	n/a	"VerticalHorizontal"	"arrowright"	"1171"	"TRUE"	"VerticalHorizontal"	"3.3000000000"	"-0.225000000"	"2"	"29"
n/a	"html-keyboard-response"	"242"	"553344"	"0.0-6.0-2.0-0.29"	"2bhdeq"	"600"	"1366"	"chrome"	"109.0.0"	"FALSE"	"Windows 10"	"60.82"	"008"	n/a	n/a	n/a	n/a	n/a	n/a	"fixation"	n/a	n/a	n/a	n/a	"NULL"	n/a	"NULL"	"NULL"	"NULL"	"<p style=\"color: black; font-size: 80px; padding-left: 8%; padding-right: 2%; padding-top: 46%; padding-bottom: 10%\">+</p>"	"1346"	n/a	n/a	n/a	n/a	n/a	n/a	n/a	n/a	n/a
n/a	"image-keyboard-response"	"243"	"554960"	"0.0-6.0-2.0-1.29"	"2bhdeq"	"600"	"1366"	"chrome"	"109.0.0"	"FALSE"	"Windows 10"	"60.82"	"008"	n/a	n/a	n/a	n/a	n/a	n/a	"Trial"	n/a	n/a	n/a	"1616"	"arrowleft"	n/a	"NULL"	"NULL"	"NULL"	"stimuli/VerticalHorizontal_11.78571_0.16217.png"	n/a	"VerticalHorizontal"	"arrowleft"	"1358"	"TRUE"	"VerticalHorizontal"	"11.785710000"	"0.1621700000"	"2"	"30"
n/a	"html-keyboard-response"	"244"	"556363"	"0.0-6.0-2.0-0.30"	"2bhdeq"	"600"	"1366"	"chrome"	"109.0.0"	"FALSE"	"Windows 10"	"60.82"	"008"	n/a	n/a	n/a	n/a	n/a	n/a	"fixation"	n/a	n/a	n/a	n/a	"NULL"	n/a	"NULL"	"NULL"	"NULL"	"<p style=\"color: black; font-size: 80px; padding-left: 20%; padding-right: 43%; padding-top: 24%; padding-bottom: 41%\">+</p>"	"1395"	n/a	n/a	n/a	n/a	n/a	n/a	n/a	n/a	n/a
n/a	"image-keyboard-response"	"245"	"558253"	"0.0-6.0-2.0-1.30"	"2bhdeq"	"600"	"1366"	"chrome"	"109.0.0"	"FALSE"	"Windows 10"	"60.82"	"008"	n/a	n/a	n/a	n/a	n/a	n/a	"Trial"	n/a	n/a	n/a	"1889"	"arrowright"	n/a	"NULL"	"NULL"	"NULL"	"stimuli/VerticalHorizontal_20.27143_-0.0673.png"	n/a	"VerticalHorizontal"	"arrowright"	"1403"	"TRUE"	"VerticalHorizontal"	"20.271430000"	"-0.067300000"	"2"	"31"
n/a	"html-keyboard-response"	"246"	"559387"	"0.0-6.0-2.0-0.31"	"2bhdeq"	"600"	"1366"	"chrome"	"109.0.0"	"FALSE"	"Windows 10"	"60.82"	"008"	n/a	n/a	n/a	n/a	n/a	n/a	"fixation"	n/a	n/a	n/a	n/a	"NULL"	n/a	"NULL"	"NULL"	"NULL"	"<p style=\"color: black; font-size: 80px; padding-left: 35%; padding-right: 44%; padding-top: 2%; padding-bottom: 1%\">+</p>"	"1115"	n/a	n/a	n/a	n/a	n/a	n/a	n/a	n/a	n/a
n/a	"image-keyboard-response"	"247"	"560266"	"0.0-6.0-2.0-1.31"	"2bhdeq"	"600"	"1366"	"chrome"	"109.0.0"	"FALSE"	"Windows 10"	"60.82"	"008"	n/a	n/a	n/a	n/a	n/a	n/a	"Trial"	n/a	n/a	n/a	"876"	"arrowleft"	n/a	"NULL"	"NULL"	"NULL"	"stimuli/VerticalHorizontal_11.78571_0.22500.png"	n/a	"VerticalHorizontal"	"arrowleft"	"1134"	"TRUE"	"VerticalHorizontal"	"11.785710000"	"0.2250000000"	"2"	"32"
n/a	"html-keyboard-response"	"248"	"561412"	"0.0-6.0-2.0-0.32"	"2bhdeq"	"600"	"1366"	"chrome"	"109.0.0"	"FALSE"	"Windows 10"	"60.82"	"008"	n/a	n/a	n/a	n/a	n/a	n/a	"fixation"	n/a	n/a	n/a	n/a	"NULL"	n/a	"NULL"	"NULL"	"NULL"	"<p style=\"color: black; font-size: 80px; padding-left: 49%; padding-right: 1%; padding-top: 37%; padding-bottom: 27%\">+</p>"	"1134"	n/a	n/a	n/a	n/a	n/a	n/a	n/a	n/a	n/a
n/a	"image-keyboard-response"	"249"	"563305"	"0.0-6.0-2.0-1.32"	"2bhdeq"	"600"	"1366"	"chrome"	"109.0.0"	"FALSE"	"Windows 10"	"60.82"	"008"	n/a	n/a	n/a	n/a	n/a	n/a	"Trial"	n/a	n/a	n/a	"1892"	"arrowleft"	n/a	"NULL"	"NULL"	"NULL"	"stimuli/VerticalHorizontal_11.78571_0.06730.png"	n/a	"VerticalHorizontal"	"arrowleft"	"1146"	"TRUE"	"VerticalHorizontal"	"11.785710000"	"0.0673000000"	"2"	"33"
n/a	"html-keyboard-response"	"250"	"564514"	"0.0-6.0-2.0-0.33"	"2bhdeq"	"600"	"1366"	"chrome"	"109.0.0"	"FALSE"	"Windows 10"	"60.82"	"008"	n/a	n/a	n/a	n/a	n/a	n/a	"fixation"	n/a	n/a	n/a	n/a	"NULL"	n/a	"NULL"	"NULL"	"NULL"	"<p style=\"color: black; font-size: 80px; padding-left: 22%; padding-right: 19%; padding-top: 27%; padding-bottom: 32%\">+</p>"	"1200"	n/a	n/a	n/a	n/a	n/a	n/a	n/a	n/a	n/a
n/a	"image-keyboard-response"	"251"	"565339"	"0.0-6.0-2.0-1.33"	"2bhdeq"	"600"	"1366"	"chrome"	"109.0.0"	"FALSE"	"Windows 10"	"60.82"	"008"	n/a	n/a	n/a	n/a	n/a	n/a	"Trial"	n/a	n/a	n/a	"824"	"arrowright"	n/a	"NULL"	"NULL"	"NULL"	"stimuli/VerticalHorizontal_-11.78571_-0.16217.png"	n/a	"VerticalHorizontal"	"arrowright"	"1209"	"TRUE"	"VerticalHorizontal"	"-11.78571000"	"-0.162170000"	"2"	"34"
