"success"	"trial_type"	"trial_index"	"time_elapsed"	"internal_node_id"	"participant_id"	"screen_height"	"screen_width"	"browser"	"browser_version"	"mobile"	"os"	"vsync_rate"	"subject_id"	"width"	"height"	"webaudio"	"fullscreen"	"webcam"	"microphone"	"screen"	"version"	"date"	"time"	"rt"	"response"	"timeout"	"failed_images"	"failed_audio"	"failed_video"	"stimulus"	"trial_duration"	"block"	"correct_response"	"prestimulus_duration"	"correct"	"type"	"illusion_strength"	"illusion_difference"	"block_number"	"trial_number"
"TRUE"	"fullscreen"	"0"	"1311"	"0.0-0.0"	"cq4hnm"	"600"	"1366"	"chrome"	"109.0.0"	"FALSE"	"Windows 10"	"60.72"	"013"	n/a	n/a	n/a	n/a	n/a	n/a	n/a	n/a	n/a	n/a	n/a	"NULL"	n/a	"NULL"	"NULL"	"NULL"	n/a	n/a	n/a	n/a	n/a	n/a	n/a	n/a	n/a	n/a	n/a
n/a	"browser-check"	"1"	"2326"	"0.0-1.0"	"cq4hnm"	"600"	"1366"	"chrome"	"109.0.0"	"FALSE"	"Windows 10"	"60.72"	"013"	"1366"	"600"	"TRUE"	"TRUE"	"TRUE"	"TRUE"	"browser_info"	"1.0"	"04/02/2023"	"14:04:32"	n/a	"NULL"	n/a	"NULL"	"NULL"	"NULL"	n/a	n/a	n/a	n/a	n/a	n/a	n/a	n/a	n/a	n/a	n/a
n/a	"survey-text"	"2"	"10196"	"0.0-2.0"	"cq4hnm"	"600"	"1366"	"chrome"	"109.0.0"	"FALSE"	"Windows 10"	"60.72"	"013"	n/a	n/a	n/a	n/a	n/a	n/a	"subject_id"	n/a	n/a	n/a	"7865"	"list(subject_id = \"013\")"	n/a	"NULL"	"NULL"	"NULL"	n/a	n/a	n/a	n/a	n/a	n/a	n/a	n/a	n/a	n/a	n/a
"TRUE"	"preload"	"3"	"10213"	"0.0-3.0"	"cq4hnm"	"600"	"1366"	"chrome"	"109.0.0"	"FALSE"	"Windows 10"	"60.72"	"013"	n/a	n/a	n/a	n/a	n/a	n/a	n/a	n/a	n/a	n/a	n/a	"NULL"	"FALSE"	"list()"	"list()"	"list()"	n/a	n/a	n/a	n/a	n/a	n/a	n/a	n/a	n/a	n/a	n/a
n/a	"html-button-response"	"4"	"35091"	"0.0-4.0-0.0"	"cq4hnm"	"600"	"1366"	"chrome"	"109.0.0"	"FALSE"	"Windows 10"	"60.72"	"013"	n/a	n/a	n/a	n/a	n/a	n/a	"illusion_instructions"	n/a	n/a	n/a	"24877"	"0"	n/a	"NULL"	"NULL"	"NULL"	"<p><b>Illusion Game</b></p><p>In this game of speed and reflex, you will need to make <b>visual judgments</b> (for instance, which circle is the biggest, or which line is the longest), as fast and as correctly as possible, while <b>resisting different visual illusions</b>.</p><p>We are going to start with some examples of all the illusions you will encounter in the game.</p>"	n/a	n/a	n/a	n/a	n/a	n/a	n/a	n/a	n/a	n/a
"TRUE"	"preload"	"5"	"35118"	"0.0-4.0-1.0-0.0"	"cq4hnm"	"600"	"1366"	"chrome"	"109.0.0"	"FALSE"	"Windows 10"	"60.72"	"013"	n/a	n/a	n/a	n/a	n/a	n/a	n/a	n/a	n/a	n/a	n/a	"NULL"	"FALSE"	"list()"	"list()"	"list()"	n/a	n/a	n/a	n/a	n/a	n/a	n/a	n/a	n/a	n/a	n/a
n/a	"html-keyboard-response"	"6"	"62990"	"0.0-4.0-1.0-1.0"	"cq4hnm"	"600"	"1366"	"chrome"	"109.0.0"	"FALSE"	"Windows 10"	"60.72"	"013"	n/a	n/a	n/a	n/a	n/a	n/a	n/a	n/a	n/a	n/a	"27869"	"enter"	n/a	"NULL"	"NULL"	"NULL"	"<p><b>Practice</b></p><p>In this part, two red circles will appear side by side on the screen.</p><p>Your task is to select which <b>red circle is bigger</b> in size as fast as you can, without making errors.</p><p>Don't get distracted by the surrounding black circles around the red circles!</p><p>Press <b>the LEFT or the RIGHT arrow</b> to indicate which is the bigger <b>red circle.</b></p><div style='float: center'><img src='materials/instructions/Ebbinghaus_Demo.png' height='300'></img><p><img src='utils/answer/answer_leftright_keyboard.PNG' height='150'></img></p><p class='small'>In this example, the correct answer is the <b>LEFT arrow</b>.</p></div><p>Are you ready? <b>Press ENTER to start</b></p>"	n/a	n/a	n/a	n/a	n/a	n/a	n/a	n/a	n/a	n/a
n/a	"html-keyboard-response"	"7"	"64647"	"0.0-4.0-1.0-2.0-0.0"	"cq4hnm"	"600"	"1366"	"chrome"	"109.0.0"	"FALSE"	"Windows 10"	"60.72"	"013"	n/a	n/a	n/a	n/a	n/a	n/a	"fixation"	n/a	n/a	n/a	n/a	"NULL"	n/a	"NULL"	"NULL"	"NULL"	"<p style=\"color: black; font-size: 80px; padding-left: 27%; padding-right: 50%; padding-top: 40%; padding-bottom: 4%\">+</p>"	"1134"	n/a	n/a	n/a	n/a	n/a	n/a	n/a	n/a	n/a
n/a	"image-keyboard-response"	"8"	"65769"	"0.0-4.0-1.0-2.0-1.0"	"cq4hnm"	"600"	"1366"	"chrome"	"109.0.0"	"FALSE"	"Windows 10"	"60.72"	"013"	n/a	n/a	n/a	n/a	n/a	n/a	"Trial"	n/a	n/a	n/a	"1098"	"arrowright"	n/a	"NULL"	"NULL"	"NULL"	"stimuli/Ebbinghaus_0000000_-1.4000.png"	n/a	"Ebbinghaus"	"arrowright"	"1657"	"TRUE"	"Ebbinghaus"	"000000000000"	"-1.400000000"	"1"	"1"
n/a	"html-keyboard-response"	"9"	"66812"	"0.0-4.0-1.0-2.0-0.1"	"cq4hnm"	"600"	"1366"	"chrome"	"109.0.0"	"FALSE"	"Windows 10"	"60.72"	"013"	n/a	n/a	n/a	n/a	n/a	n/a	"fixation"	n/a	n/a	n/a	n/a	"NULL"	n/a	"NULL"	"NULL"	"NULL"	"<p style=\"color: black; font-size: 80px; padding-left: 1%; padding-right: 28%; padding-top: 1%; padding-bottom: 15%\">+</p>"	"1023"	n/a	n/a	n/a	n/a	n/a	n/a	n/a	n/a	n/a
n/a	"image-keyboard-response"	"10"	"67574"	"0.0-4.0-1.0-2.0-1.1"	"cq4hnm"	"600"	"1366"	"chrome"	"109.0.0"	"FALSE"	"Windows 10"	"60.72"	"013"	n/a	n/a	n/a	n/a	n/a	n/a	"Trial"	n/a	n/a	n/a	"761"	"arrowright"	n/a	"NULL"	"NULL"	"NULL"	"stimuli/Ebbinghaus_1000000_-1.4000.png"	n/a	"Ebbinghaus"	"arrowright"	"1043"	"TRUE"	"Ebbinghaus"	"100000000000"	"-1.400000000"	"1"	"2"
n/a	"html-keyboard-response"	"11"	"68706"	"0.0-4.0-1.0-2.0-0.2"	"cq4hnm"	"600"	"1366"	"chrome"	"109.0.0"	"FALSE"	"Windows 10"	"60.72"	"013"	n/a	n/a	n/a	n/a	n/a	n/a	"fixation"	n/a	n/a	n/a	n/a	"NULL"	n/a	"NULL"	"NULL"	"NULL"	"<p style=\"color: black; font-size: 80px; padding-left: 41%; padding-right: 26%; padding-top: 34%; padding-bottom: 14%\">+</p>"	"1124"	n/a	n/a	n/a	n/a	n/a	n/a	n/a	n/a	n/a
n/a	"image-keyboard-response"	"12"	"69342"	"0.0-4.0-1.0-2.0-1.2"	"cq4hnm"	"600"	"1366"	"chrome"	"109.0.0"	"FALSE"	"Windows 10"	"60.72"	"013"	n/a	n/a	n/a	n/a	n/a	n/a	"Trial"	n/a	n/a	n/a	"636"	"arrowleft"	n/a	"NULL"	"NULL"	"NULL"	"stimuli/Ebbinghaus_0000000_1.40000.png"	n/a	"Ebbinghaus"	"arrowleft"	"1132"	"TRUE"	"Ebbinghaus"	"000000000000"	"1.4000000000"	"1"	"3"
n/a	"html-keyboard-response"	"13"	"70398"	"0.0-4.0-1.0-2.0-0.3"	"cq4hnm"	"600"	"1366"	"chrome"	"109.0.0"	"FALSE"	"Windows 10"	"60.72"	"013"	n/a	n/a	n/a	n/a	n/a	n/a	"fixation"	n/a	n/a	n/a	n/a	"NULL"	n/a	"NULL"	"NULL"	"NULL"	"<p style=\"color: black; font-size: 80px; padding-left: 1%; padding-right: 5%; padding-top: 47%; padding-bottom: 4%\">+</p>"	"1035"	n/a	n/a	n/a	n/a	n/a	n/a	n/a	n/a	n/a
n/a	"image-keyboard-response"	"14"	"71272"	"0.0-4.0-1.0-2.0-1.3"	"cq4hnm"	"600"	"1366"	"chrome"	"109.0.0"	"FALSE"	"Windows 10"	"60.72"	"013"	n/a	n/a	n/a	n/a	n/a	n/a	"Trial"	n/a	n/a	n/a	"872"	"arrowright"	n/a	"NULL"	"NULL"	"NULL"	"stimuli/Ebbinghaus_-100000_-1.4000.png"	n/a	"Ebbinghaus"	"arrowright"	"1056"	"TRUE"	"Ebbinghaus"	"-10000000000"	"-1.400000000"	"1"	"4"
n/a	"html-keyboard-response"	"15"	"72626"	"0.0-4.0-1.0-2.0-0.4"	"cq4hnm"	"600"	"1366"	"chrome"	"109.0.0"	"FALSE"	"Windows 10"	"60.72"	"013"	n/a	n/a	n/a	n/a	n/a	n/a	"fixation"	n/a	n/a	n/a	n/a	"NULL"	n/a	"NULL"	"NULL"	"NULL"	"<p style=\"color: black; font-size: 80px; padding-left: 48%; padding-right: 45%; padding-top: 44%; padding-bottom: 35%\">+</p>"	"1337"	n/a	n/a	n/a	n/a	n/a	n/a	n/a	n/a	n/a
n/a	"image-keyboard-response"	"16"	"73234"	"0.0-4.0-1.0-2.0-1.4"	"cq4hnm"	"600"	"1366"	"chrome"	"109.0.0"	"FALSE"	"Windows 10"	"60.72"	"013"	n/a	n/a	n/a	n/a	n/a	n/a	"Trial"	n/a	n/a	n/a	"605"	"arrowleft"	n/a	"NULL"	"NULL"	"NULL"	"stimuli/Ebbinghaus_1000000_1.40000.png"	n/a	"Ebbinghaus"	"arrowleft"	"1354"	"TRUE"	"Ebbinghaus"	"100000000000"	"1.4000000000"	"1"	"5"
n/a	"html-keyboard-response"	"17"	"74583"	"0.0-4.0-1.0-2.0-0.5"	"cq4hnm"	"600"	"1366"	"chrome"	"109.0.0"	"FALSE"	"Windows 10"	"60.72"	"013"	n/a	n/a	n/a	n/a	n/a	n/a	"fixation"	n/a	n/a	n/a	n/a	"NULL"	n/a	"NULL"	"NULL"	"NULL"	"<p style=\"color: black; font-size: 80px; padding-left: 9%; padding-right: 15%; padding-top: 16%; padding-bottom: 48%\">+</p>"	"1326"	n/a	n/a	n/a	n/a	n/a	n/a	n/a	n/a	n/a
n/a	"image-keyboard-response"	"18"	"75489"	"0.0-4.0-1.0-2.0-1.5"	"cq4hnm"	"600"	"1366"	"chrome"	"109.0.0"	"FALSE"	"Windows 10"	"60.72"	"013"	n/a	n/a	n/a	n/a	n/a	n/a	"Trial"	n/a	n/a	n/a	"904"	"arrowright"	n/a	"NULL"	"NULL"	"NULL"	"stimuli/Ebbinghaus_-100000_1.40000.png"	n/a	"Ebbinghaus"	"arrowleft"	"1349"	"FALSE"	"Ebbinghaus"	"-10000000000"	"1.4000000000"	"1"	"6"
n/a	"html-button-response"	"19"	"80881"	"0.0-4.0-1.0-3.0"	"cq4hnm"	"600"	"1366"	"chrome"	"109.0.0"	"FALSE"	"Windows 10"	"60.72"	"013"	n/a	n/a	n/a	n/a	n/a	n/a	"practice_block_results"	n/a	n/a	n/a	"5388"	"0"	n/a	"NULL"	"NULL"	"NULL"	"<p style='color:rgb(76,175,80);'> Correct Responses: <b>83.33%</b></p><hr><p style='color:rgb(233,30,99);'> Average Response Time: <b>812.67</b> ms.</p>"	n/a	n/a	n/a	n/a	n/a	n/a	n/a	n/a	n/a	n/a
"TRUE"	"preload"	"20"	"81444"	"0.0-4.0-2.0-0.0"	"cq4hnm"	"600"	"1366"	"chrome"	"109.0.0"	"FALSE"	"Windows 10"	"60.72"	"013"	n/a	n/a	n/a	n/a	n/a	n/a	n/a	n/a	n/a	n/a	n/a	"NULL"	"FALSE"	"list()"	"list()"	"list()"	n/a	n/a	n/a	n/a	n/a	n/a	n/a	n/a	n/a	n/a	n/a
n/a	"html-keyboard-response"	"21"	"89053"	"0.0-4.0-2.0-1.0"	"cq4hnm"	"600"	"1366"	"chrome"	"109.0.0"	"FALSE"	"Windows 10"	"60.72"	"013"	n/a	n/a	n/a	n/a	n/a	n/a	n/a	n/a	n/a	n/a	"7608"	"enter"	n/a	"NULL"	"NULL"	"NULL"	"<p><b>Practice</b></p><p>In this part, two horizontal red lines will appear one above the other.</p><p>Your task is to select which <b>line is longer</b> in length as fast as you can, without making errors.</p><p>Don't get distracted by the surrounding black arrows at the end of the red lines!</p><p>Press <b>the UP or the DOWN arrow</b> to indicate where is the longer <b>red line.</b></p><div style='float: center'><img src='materials/instructions/MullerLyer_Demo.png' height='300'></img><p><img src='utils/answer/answer_updown_keyboard.PNG' height='150'></img></p><p class='small'>In this example, the correct answer is the <b>UP arrow</b>.</p></div><p>Are you ready? <b>Press ENTER to start</b></p>"	n/a	n/a	n/a	n/a	n/a	n/a	n/a	n/a	n/a	n/a
n/a	"html-keyboard-response"	"22"	"90976"	"0.0-4.0-2.0-2.0-0.0"	"cq4hnm"	"600"	"1366"	"chrome"	"109.0.0"	"FALSE"	"Windows 10"	"60.72"	"013"	n/a	n/a	n/a	n/a	n/a	n/a	"fixation"	n/a	n/a	n/a	n/a	"NULL"	n/a	"NULL"	"NULL"	"NULL"	"<p style=\"color: black; font-size: 80px; padding-left: 11%; padding-right: 4%; padding-top: 17%; padding-bottom: 23%\">+</p>"	"1408"	n/a	n/a	n/a	n/a	n/a	n/a	n/a	n/a	n/a
n/a	"image-keyboard-response"	"23"	"91636"	"0.0-4.0-2.0-2.0-1.0"	"cq4hnm"	"600"	"1366"	"chrome"	"109.0.0"	"FALSE"	"Windows 10"	"60.72"	"013"	n/a	n/a	n/a	n/a	n/a	n/a	"Trial"	n/a	n/a	n/a	"658"	"arrowup"	n/a	"NULL"	"NULL"	"NULL"	"stimuli/MullerLyer_2300000_0.70000.png"	n/a	"MullerLyer"	"arrowup"	"1923"	"TRUE"	"MullerLyer"	"230000000000"	"0.7000000000"	"1"	"7"
n/a	"html-keyboard-response"	"24"	"93021"	"0.0-4.0-2.0-2.0-0.1"	"cq4hnm"	"600"	"1366"	"chrome"	"109.0.0"	"FALSE"	"Windows 10"	"60.72"	"013"	n/a	n/a	n/a	n/a	n/a	n/a	"fixation"	n/a	n/a	n/a	n/a	"NULL"	n/a	"NULL"	"NULL"	"NULL"	"<p style=\"color: black; font-size: 80px; padding-left: 42%; padding-right: 16%; padding-top: 18%; padding-bottom: 37%\">+</p>"	"1369"	n/a	n/a	n/a	n/a	n/a	n/a	n/a	n/a	n/a
n/a	"image-keyboard-response"	"25"	"93857"	"0.0-4.0-2.0-2.0-1.1"	"cq4hnm"	"600"	"1366"	"chrome"	"109.0.0"	"FALSE"	"Windows 10"	"60.72"	"013"	n/a	n/a	n/a	n/a	n/a	n/a	"Trial"	n/a	n/a	n/a	"835"	"arrowup"	n/a	"NULL"	"NULL"	"NULL"	"stimuli/MullerLyer_0000000_0.70000.png"	n/a	"MullerLyer"	"arrowup"	"1385"	"TRUE"	"MullerLyer"	"000000000000"	"0.7000000000"	"1"	"8"
n/a	"html-keyboard-response"	"26"	"94908"	"0.0-4.0-2.0-2.0-0.2"	"cq4hnm"	"600"	"1366"	"chrome"	"109.0.0"	"FALSE"	"Windows 10"	"60.72"	"013"	n/a	n/a	n/a	n/a	n/a	n/a	"fixation"	n/a	n/a	n/a	n/a	"NULL"	n/a	"NULL"	"NULL"	"NULL"	"<p style=\"color: black; font-size: 80px; padding-left: 5%; padding-right: 22%; padding-top: 13%; padding-bottom: 47%\">+</p>"	"1045"	n/a	n/a	n/a	n/a	n/a	n/a	n/a	n/a	n/a
n/a	"image-keyboard-response"	"27"	"95533"	"0.0-4.0-2.0-2.0-1.2"	"cq4hnm"	"600"	"1366"	"chrome"	"109.0.0"	"FALSE"	"Windows 10"	"60.72"	"013"	n/a	n/a	n/a	n/a	n/a	n/a	"Trial"	n/a	n/a	n/a	"623"	"arrowdown"	n/a	"NULL"	"NULL"	"NULL"	"stimuli/MullerLyer_0000000_-0.7000.png"	n/a	"MullerLyer"	"arrowdown"	"1051"	"TRUE"	"MullerLyer"	"000000000000"	"-0.700000000"	"1"	"9"
n/a	"html-keyboard-response"	"28"	"96921"	"0.0-4.0-2.0-2.0-0.3"	"cq4hnm"	"600"	"1366"	"chrome"	"109.0.0"	"FALSE"	"Windows 10"	"60.72"	"013"	n/a	n/a	n/a	n/a	n/a	n/a	"fixation"	n/a	n/a	n/a	n/a	"NULL"	n/a	"NULL"	"NULL"	"NULL"	"<p style=\"color: black; font-size: 80px; padding-left: 41%; padding-right: 12%; padding-top: 17%; padding-bottom: 19%\">+</p>"	"1378"	n/a	n/a	n/a	n/a	n/a	n/a	n/a	n/a	n/a
n/a	"image-keyboard-response"	"29"	"97658"	"0.0-4.0-2.0-2.0-1.3"	"cq4hnm"	"600"	"1366"	"chrome"	"109.0.0"	"FALSE"	"Windows 10"	"60.72"	"013"	n/a	n/a	n/a	n/a	n/a	n/a	"Trial"	n/a	n/a	n/a	"736"	"arrowdown"	n/a	"NULL"	"NULL"	"NULL"	"stimuli/MullerLyer_2300000_-0.7000.png"	n/a	"MullerLyer"	"arrowdown"	"1388"	"TRUE"	"MullerLyer"	"230000000000"	"-0.700000000"	"1"	"10"
n/a	"html-keyboard-response"	"30"	"99102"	"0.0-4.0-2.0-2.0-0.4"	"cq4hnm"	"600"	"1366"	"chrome"	"109.0.0"	"FALSE"	"Windows 10"	"60.72"	"013"	n/a	n/a	n/a	n/a	n/a	n/a	"fixation"	n/a	n/a	n/a	n/a	"NULL"	n/a	"NULL"	"NULL"	"NULL"	"<p style=\"color: black; font-size: 80px; padding-left: 39%; padding-right: 47%; padding-top: 19%; padding-bottom: 4%\">+</p>"	"1432"	n/a	n/a	n/a	n/a	n/a	n/a	n/a	n/a	n/a
n/a	"image-keyboard-response"	"31"	"99635"	"0.0-4.0-2.0-2.0-1.4"	"cq4hnm"	"600"	"1366"	"chrome"	"109.0.0"	"FALSE"	"Windows 10"	"60.72"	"013"	n/a	n/a	n/a	n/a	n/a	n/a	"Trial"	n/a	n/a	n/a	"532"	"arrowup"	n/a	"NULL"	"NULL"	"NULL"	"stimuli/MullerLyer_-230000_0.70000.png"	n/a	"MullerLyer"	"arrowup"	"1444"	"TRUE"	"MullerLyer"	"-23000000000"	"0.7000000000"	"1"	"11"
n/a	"html-keyboard-response"	"32"	"101091"	"0.0-4.0-2.0-2.0-0.5"	"cq4hnm"	"600"	"1366"	"chrome"	"109.0.0"	"FALSE"	"Windows 10"	"60.72"	"013"	n/a	n/a	n/a	n/a	n/a	n/a	"fixation"	n/a	n/a	n/a	n/a	"NULL"	n/a	"NULL"	"NULL"	"NULL"	"<p style=\"color: black; font-size: 80px; padding-left: 11%; padding-right: 50%; padding-top: 40%; padding-bottom: 33%\">+</p>"	"1441"	n/a	n/a	n/a	n/a	n/a	n/a	n/a	n/a	n/a
n/a	"image-keyboard-response"	"33"	"101676"	"0.0-4.0-2.0-2.0-1.5"	"cq4hnm"	"600"	"1366"	"chrome"	"109.0.0"	"FALSE"	"Windows 10"	"60.72"	"013"	n/a	n/a	n/a	n/a	n/a	n/a	"Trial"	n/a	n/a	n/a	"584"	"arrowdown"	n/a	"NULL"	"NULL"	"NULL"	"stimuli/MullerLyer_-230000_-0.7000.png"	n/a	"MullerLyer"	"arrowdown"	"1456"	"TRUE"	"MullerLyer"	"-23000000000"	"-0.700000000"	"1"	"12"
n/a	"html-button-response"	"34"	"106105"	"0.0-4.0-2.0-3.0"	"cq4hnm"	"600"	"1366"	"chrome"	"109.0.0"	"FALSE"	"Windows 10"	"60.72"	"013"	n/a	n/a	n/a	n/a	n/a	n/a	"practice_block_results"	n/a	n/a	n/a	"4427"	"0"	n/a	"NULL"	"NULL"	"NULL"	"<p style='color:rgb(76,175,80);'> Correct Responses: <b>100.00%</b></p><hr><p style='color:rgb(233,30,99);'> Average Response Time: <b>661.33</b> ms.</p>"	n/a	n/a	n/a	n/a	n/a	n/a	n/a	n/a	n/a	n/a
"TRUE"	"preload"	"35"	"106648"	"0.0-4.0-3.0-0.0"	"cq4hnm"	"600"	"1366"	"chrome"	"109.0.0"	"FALSE"	"Windows 10"	"60.72"	"013"	n/a	n/a	n/a	n/a	n/a	n/a	n/a	n/a	n/a	n/a	n/a	"NULL"	"FALSE"	"list()"	"list()"	"list()"	n/a	n/a	n/a	n/a	n/a	n/a	n/a	n/a	n/a	n/a	n/a
n/a	"html-keyboard-response"	"36"	"112629"	"0.0-4.0-3.0-1.0"	"cq4hnm"	"600"	"1366"	"chrome"	"109.0.0"	"FALSE"	"Windows 10"	"60.72"	"013"	n/a	n/a	n/a	n/a	n/a	n/a	n/a	n/a	n/a	n/a	"5980"	"enter"	n/a	"NULL"	"NULL"	"NULL"	"<p><b>Practice</b></p><p>In this part, two red lines will appear side by side.</p><p>Your task is to tell <b>which line is longer</b> in length, regardless of their orientation, as fast as you can, and without making errors.</p><p>Don't get distracted by the orientation of the lines!</p><p>Press <b>the LEFT or the RIGHT arrow</b> to indicate which <b>line is the longer one.</b></p><div style='float: center'><img src='materials/instructions/VerticalHorizontal_Demo.png' height='300'></img><p><img src='utils/answer/answer_leftright_keyboard.PNG' height='150'></img></p><p class='small'>In this example, the correct answer is the <b>LEFT arrow</b>.</p></div><p>Are you ready? <b>Press ENTER to start</b></p>"	n/a	n/a	n/a	n/a	n/a	n/a	n/a	n/a	n/a	n/a
n/a	"html-keyboard-response"	"37"	"114483"	"0.0-4.0-3.0-2.0-0.0"	"cq4hnm"	"600"	"1366"	"chrome"	"109.0.0"	"FALSE"	"Windows 10"	"60.72"	"013"	n/a	n/a	n/a	n/a	n/a	n/a	"fixation"	n/a	n/a	n/a	n/a	"NULL"	n/a	"NULL"	"NULL"	"NULL"	"<p style=\"color: black; font-size: 80px; padding-left: 12%; padding-right: 5%; padding-top: 32%; padding-bottom: 23%\">+</p>"	"1332"	n/a	n/a	n/a	n/a	n/a	n/a	n/a	n/a	n/a
n/a	"image-keyboard-response"	"38"	"114982"	"0.0-4.0-3.0-2.0-1.0"	"cq4hnm"	"600"	"1366"	"chrome"	"109.0.0"	"FALSE"	"Windows 10"	"60.72"	"013"	n/a	n/a	n/a	n/a	n/a	n/a	"Trial"	n/a	n/a	n/a	"498"	"arrowright"	n/a	"NULL"	"NULL"	"NULL"	"stimuli/VerticalHorizontal_0000000_-0.9000.png"	n/a	"VerticalHorizontal"	"arrowright"	"1854"	"TRUE"	"VerticalHorizontal"	"000000000000"	"-0.900000000"	"1"	"13"
n/a	"html-keyboard-response"	"39"	"116418"	"0.0-4.0-3.0-2.0-0.1"	"cq4hnm"	"600"	"1366"	"chrome"	"109.0.0"	"FALSE"	"Windows 10"	"60.72"	"013"	n/a	n/a	n/a	n/a	n/a	n/a	"fixation"	n/a	n/a	n/a	n/a	"NULL"	n/a	"NULL"	"NULL"	"NULL"	"<p style=\"color: black; font-size: 80px; padding-left: 34%; padding-right: 24%; padding-top: 5%; padding-bottom: 30%\">+</p>"	"1428"	n/a	n/a	n/a	n/a	n/a	n/a	n/a	n/a	n/a
n/a	"image-keyboard-response"	"40"	"116858"	"0.0-4.0-3.0-2.0-1.1"	"cq4hnm"	"600"	"1366"	"chrome"	"109.0.0"	"FALSE"	"Windows 10"	"60.72"	"013"	n/a	n/a	n/a	n/a	n/a	n/a	"Trial"	n/a	n/a	n/a	"439"	"arrowright"	n/a	"NULL"	"NULL"	"NULL"	"stimuli/VerticalHorizontal_3300000_-0.9000.png"	n/a	"VerticalHorizontal"	"arrowright"	"1436"	"TRUE"	"VerticalHorizontal"	"330000000000"	"-0.900000000"	"1"	"14"
n/a	"html-keyboard-response"	"41"	"118281"	"0.0-4.0-3.0-2.0-0.2"	"cq4hnm"	"600"	"1366"	"chrome"	"109.0.0"	"FALSE"	"Windows 10"	"60.72"	"013"	n/a	n/a	n/a	n/a	n/a	n/a	"fixation"	n/a	n/a	n/a	n/a	"NULL"	n/a	"NULL"	"NULL"	"NULL"	"<p style=\"color: black; font-size: 80px; padding-left: 22%; padding-right: 39%; padding-top: 27%; padding-bottom: 14%\">+</p>"	"1409"	n/a	n/a	n/a	n/a	n/a	n/a	n/a	n/a	n/a
n/a	"image-keyboard-response"	"42"	"118745"	"0.0-4.0-3.0-2.0-1.2"	"cq4hnm"	"600"	"1366"	"chrome"	"109.0.0"	"FALSE"	"Windows 10"	"60.72"	"013"	n/a	n/a	n/a	n/a	n/a	n/a	"Trial"	n/a	n/a	n/a	"463"	"arrowleft"	n/a	"NULL"	"NULL"	"NULL"	"stimuli/VerticalHorizontal_3300000_0.90000.png"	n/a	"VerticalHorizontal"	"arrowleft"	"1423"	"TRUE"	"VerticalHorizontal"	"330000000000"	"0.9000000000"	"1"	"15"
n/a	"html-keyboard-response"	"43"	"119819"	"0.0-4.0-3.0-2.0-0.3"	"cq4hnm"	"600"	"1366"	"chrome"	"109.0.0"	"FALSE"	"Windows 10"	"60.72"	"013"	n/a	n/a	n/a	n/a	n/a	n/a	"fixation"	n/a	n/a	n/a	n/a	"NULL"	n/a	"NULL"	"NULL"	"NULL"	"<p style=\"color: black; font-size: 80px; padding-left: 3%; padding-right: 43%; padding-top: 17%; padding-bottom: 33%\">+</p>"	"1060"	n/a	n/a	n/a	n/a	n/a	n/a	n/a	n/a	n/a
n/a	"image-keyboard-response"	"44"	"120239"	"0.0-4.0-3.0-2.0-1.3"	"cq4hnm"	"600"	"1366"	"chrome"	"109.0.0"	"FALSE"	"Windows 10"	"60.72"	"013"	n/a	n/a	n/a	n/a	n/a	n/a	"Trial"	n/a	n/a	n/a	"418"	"arrowright"	n/a	"NULL"	"NULL"	"NULL"	"stimuli/VerticalHorizontal_-330000_-0.9000.png"	n/a	"VerticalHorizontal"	"arrowright"	"1074"	"TRUE"	"VerticalHorizontal"	"-33000000000"	"-0.900000000"	"1"	"16"
n/a	"html-keyboard-response"	"45"	"121593"	"0.0-4.0-3.0-2.0-0.4"	"cq4hnm"	"600"	"1366"	"chrome"	"109.0.0"	"FALSE"	"Windows 10"	"60.72"	"013"	n/a	n/a	n/a	n/a	n/a	n/a	"fixation"	n/a	n/a	n/a	n/a	"NULL"	n/a	"NULL"	"NULL"	"NULL"	"<p style=\"color: black; font-size: 80px; padding-left: 2%; padding-right: 42%; padding-top: 7%; padding-bottom: 7%\">+</p>"	"1349"	n/a	n/a	n/a	n/a	n/a	n/a	n/a	n/a	n/a
n/a	"image-keyboard-response"	"46"	"122016"	"0.0-4.0-3.0-2.0-1.4"	"cq4hnm"	"600"	"1366"	"chrome"	"109.0.0"	"FALSE"	"Windows 10"	"60.72"	"013"	n/a	n/a	n/a	n/a	n/a	n/a	"Trial"	n/a	n/a	n/a	"422"	"arrowleft"	n/a	"NULL"	"NULL"	"NULL"	"stimuli/VerticalHorizontal_0000000_0.90000.png"	n/a	"VerticalHorizontal"	"arrowleft"	"1354"	"TRUE"	"VerticalHorizontal"	"000000000000"	"0.9000000000"	"1"	"17"
n/a	"html-keyboard-response"	"47"	"123289"	"0.0-4.0-3.0-2.0-0.5"	"cq4hnm"	"600"	"1366"	"chrome"	"109.0.0"	"FALSE"	"Windows 10"	"60.72"	"013"	n/a	n/a	n/a	n/a	n/a	n/a	"fixation"	n/a	n/a	n/a	n/a	"NULL"	n/a	"NULL"	"NULL"	"NULL"	"<p style=\"color: black; font-size: 80px; padding-left: 6%; padding-right: 31%; padding-top: 44%; padding-bottom: 28%\">+</p>"	"1259"	n/a	n/a	n/a	n/a	n/a	n/a	n/a	n/a	n/a
n/a	"image-keyboard-response"	"48"	"123763"	"0.0-4.0-3.0-2.0-1.5"	"cq4hnm"	"600"	"1366"	"chrome"	"109.0.0"	"FALSE"	"Windows 10"	"60.72"	"013"	n/a	n/a	n/a	n/a	n/a	n/a	"Trial"	n/a	n/a	n/a	"473"	"arrowleft"	n/a	"NULL"	"NULL"	"NULL"	"stimuli/VerticalHorizontal_-330000_0.90000.png"	n/a	"VerticalHorizontal"	"arrowleft"	"1273"	"TRUE"	"VerticalHorizontal"	"-33000000000"	"0.9000000000"	"1"	"18"
n/a	"html-button-response"	"49"	"126854"	"0.0-4.0-3.0-3.0"	"cq4hnm"	"600"	"1366"	"chrome"	"109.0.0"	"FALSE"	"Windows 10"	"60.72"	"013"	n/a	n/a	n/a	n/a	n/a	n/a	"practice_block_results"	n/a	n/a	n/a	"3089"	"0"	n/a	"NULL"	"NULL"	"NULL"	"<p style='color:rgb(76,175,80);'> Correct Responses: <b>100.00%</b></p><hr><p style='color:rgb(233,30,99);'> Average Response Time: <b>452.17</b> ms.</p>"	n/a	n/a	n/a	n/a	n/a	n/a	n/a	n/a	n/a	n/a
n/a	"html-button-response"	"50"	"244815"	"0.0-4.0-4.0"	"cq4hnm"	"600"	"1366"	"chrome"	"109.0.0"	"FALSE"	"Windows 10"	"60.72"	"013"	n/a	n/a	n/a	n/a	n/a	n/a	"practice_debrief"	n/a	n/a	n/a	"117449"	"0"	n/a	"NULL"	"NULL"	"NULL"	"<p><b>TRAINING COMPLETED</b></p><p>In the next phase, there will be more trials, and some might be harder too.<br> Moreover, after each illusion block, a <b>score</b> will be calculated based on speed (time you took to answer) and accuracy (number of errors).</p><p>Try to keep up a high score!</p><br><p>Note that it can be <i>really</i> challenging at times, so you will need to rely on your <b>intuition</b> and gut feeling to answer as fast as you can without making errors.</p><p>Each illusion block will be repeated two times (so that you have the opportunity to improve your score), but the order of the blocks is random.</p><p>Remember, your goal is to be as <b>fast</b> and <b>accurate</b> as possible. Good luck!</p><br>"	n/a	n/a	n/a	n/a	n/a	n/a	n/a	n/a	n/a	n/a
"TRUE"	"preload"	"51"	"245013"	"0.0-5.0-0.0"	"cq4hnm"	"600"	"1366"	"chrome"	"109.0.0"	"FALSE"	"Windows 10"	"60.72"	"013"	n/a	n/a	n/a	n/a	n/a	n/a	n/a	n/a	n/a	n/a	n/a	"NULL"	"FALSE"	"list()"	"list()"	"list()"	n/a	n/a	n/a	n/a	n/a	n/a	n/a	n/a	n/a	n/a	n/a
n/a	"html-keyboard-response"	"52"	"250384"	"0.0-5.0-1.0"	"cq4hnm"	"600"	"1366"	"chrome"	"109.0.0"	"FALSE"	"Windows 10"	"60.72"	"013"	n/a	n/a	n/a	n/a	n/a	n/a	n/a	n/a	n/a	n/a	"5370"	"enter"	n/a	"NULL"	"NULL"	"NULL"	"<p><b>Part 1/6</b></p><p>In this part, two red lines will appear side by side.</p><p>Your task is to tell <b>which line is longer</b> in length, regardless of their orientation, as fast as you can, and without making errors.</p><p>Don't get distracted by the orientation of the lines!</p><p>Press <b>the LEFT or the RIGHT arrow</b> to indicate which <b>line is the longer one.</b></p><div style='float: center'><img src='materials/instructions/VerticalHorizontal_Demo.png' height='300'></img><p><img src='utils/answer/answer_leftright_keyboard.PNG' height='150'></img></p><p class='small'>In this example, the correct answer is the <b>LEFT arrow</b>.</p></div><p>Are you ready? <b>Press ENTER to start</b></p>"	n/a	n/a	n/a	n/a	n/a	n/a	n/a	n/a	n/a	n/a
n/a	"html-keyboard-response"	"53"	"252342"	"0.0-5.0-2.0-0.0"	"cq4hnm"	"600"	"1366"	"chrome"	"109.0.0"	"FALSE"	"Windows 10"	"60.72"	"013"	n/a	n/a	n/a	n/a	n/a	n/a	"fixation"	n/a	n/a	n/a	n/a	"NULL"	n/a	"NULL"	"NULL"	"NULL"	"<p style=\"color: black; font-size: 80px; padding-left: 18%; padding-right: 24%; padding-top: 50%; padding-bottom: 7%\">+</p>"	"1441"	n/a	n/a	n/a	n/a	n/a	n/a	n/a	n/a	n/a
n/a	"image-keyboard-response"	"54"	"253175"	"0.0-5.0-2.0-1.0"	"cq4hnm"	"600"	"1366"	"chrome"	"109.0.0"	"FALSE"	"Windows 10"	"60.72"	"013"	n/a	n/a	n/a	n/a	n/a	n/a	"Trial"	n/a	n/a	n/a	"832"	"arrowleft"	n/a	"NULL"	"NULL"	"NULL"	"stimuli/VerticalHorizontal_-20.27143_0.10960.png"	n/a	"VerticalHorizontal"	"arrowleft"	"1958"	"TRUE"	"VerticalHorizontal"	"-20.27143000"	"0.1096000000"	"1"	"19"
n/a	"html-keyboard-response"	"55"	"254374"	"0.0-5.0-2.0-0.1"	"cq4hnm"	"600"	"1366"	"chrome"	"109.0.0"	"FALSE"	"Windows 10"	"60.72"	"013"	n/a	n/a	n/a	n/a	n/a	n/a	"fixation"	n/a	n/a	n/a	n/a	"NULL"	n/a	"NULL"	"NULL"	"NULL"	"<p style=\"color: black; font-size: 80px; padding-left: 2%; padding-right: 12%; padding-top: 32%; padding-bottom: 36%\">+</p>"	"1185"	n/a	n/a	n/a	n/a	n/a	n/a	n/a	n/a	n/a
n/a	"image-keyboard-response"	"56"	"254847"	"0.0-5.0-2.0-1.1"	"cq4hnm"	"600"	"1366"	"chrome"	"109.0.0"	"FALSE"	"Windows 10"	"60.72"	"013"	n/a	n/a	n/a	n/a	n/a	n/a	"Trial"	n/a	n/a	n/a	"471"	"arrowleft"	n/a	"NULL"	"NULL"	"NULL"	"stimuli/VerticalHorizontal_3.30000_0.16217.png"	n/a	"VerticalHorizontal"	"arrowleft"	"1199"	"TRUE"	"VerticalHorizontal"	"3.3000000000"	"0.1621700000"	"1"	"20"
n/a	"html-keyboard-response"	"57"	"255995"	"0.0-5.0-2.0-0.2"	"cq4hnm"	"600"	"1366"	"chrome"	"109.0.0"	"FALSE"	"Windows 10"	"60.72"	"013"	n/a	n/a	n/a	n/a	n/a	n/a	"fixation"	n/a	n/a	n/a	n/a	"NULL"	n/a	"NULL"	"NULL"	"NULL"	"<p style=\"color: black; font-size: 80px; padding-left: 23%; padding-right: 6%; padding-top: 30%; padding-bottom: 42%\">+</p>"	"1137"	n/a	n/a	n/a	n/a	n/a	n/a	n/a	n/a	n/a
n/a	"image-keyboard-response"	"58"	"256610"	"0.0-5.0-2.0-1.2"	"cq4hnm"	"600"	"1366"	"chrome"	"109.0.0"	"FALSE"	"Windows 10"	"60.72"	"013"	n/a	n/a	n/a	n/a	n/a	n/a	"Trial"	n/a	n/a	n/a	"615"	"arrowleft"	n/a	"NULL"	"NULL"	"NULL"	"stimuli/VerticalHorizontal_-11.78571_0.06730.png"	n/a	"VerticalHorizontal"	"arrowleft"	"1148"	"TRUE"	"VerticalHorizontal"	"-11.78571000"	"0.0673000000"	"1"	"21"
n/a	"html-keyboard-response"	"59"	"257918"	"0.0-5.0-2.0-0.3"	"cq4hnm"	"600"	"1366"	"chrome"	"109.0.0"	"FALSE"	"Windows 10"	"60.72"	"013"	n/a	n/a	n/a	n/a	n/a	n/a	"fixation"	n/a	n/a	n/a	n/a	"NULL"	n/a	"NULL"	"NULL"	"NULL"	"<p style=\"color: black; font-size: 80px; padding-left: 21%; padding-right: 10%; padding-top: 18%; padding-bottom: 8%\">+</p>"	"1299"	n/a	n/a	n/a	n/a	n/a	n/a	n/a	n/a	n/a
n/a	"image-keyboard-response"	"60"	"258577"	"0.0-5.0-2.0-1.3"	"cq4hnm"	"600"	"1366"	"chrome"	"109.0.0"	"FALSE"	"Windows 10"	"60.72"	"013"	n/a	n/a	n/a	n/a	n/a	n/a	"Trial"	n/a	n/a	n/a	"657"	"arrowright"	n/a	"NULL"	"NULL"	"NULL"	"stimuli/VerticalHorizontal_-3.3000_0.10960.png"	n/a	"VerticalHorizontal"	"arrowleft"	"1308"	"FALSE"	"VerticalHorizontal"	"-3.300000000"	"0.1096000000"	"1"	"22"
n/a	"html-keyboard-response"	"61"	"259847"	"0.0-5.0-2.0-0.4"	"cq4hnm"	"600"	"1366"	"chrome"	"109.0.0"	"FALSE"	"Windows 10"	"60.72"	"013"	n/a	n/a	n/a	n/a	n/a	n/a	"fixation"	n/a	n/a	n/a	n/a	"NULL"	n/a	"NULL"	"NULL"	"NULL"	"<p style=\"color: black; font-size: 80px; padding-left: 35%; padding-right: 48%; padding-top: 48%; padding-bottom: 8%\">+</p>"	"1254"	n/a	n/a	n/a	n/a	n/a	n/a	n/a	n/a	n/a
n/a	"image-keyboard-response"	"62"	"260468"	"0.0-5.0-2.0-1.4"	"cq4hnm"	"600"	"1366"	"chrome"	"109.0.0"	"FALSE"	"Windows 10"	"60.72"	"013"	n/a	n/a	n/a	n/a	n/a	n/a	"Trial"	n/a	n/a	n/a	"618"	"arrowright"	n/a	"NULL"	"NULL"	"NULL"	"stimuli/VerticalHorizontal_28.75714_0.16217.png"	n/a	"VerticalHorizontal"	"arrowleft"	"1270"	"FALSE"	"VerticalHorizontal"	"28.757140000"	"0.1621700000"	"1"	"23"
n/a	"html-keyboard-response"	"63"	"261515"	"0.0-5.0-2.0-0.5"	"cq4hnm"	"600"	"1366"	"chrome"	"109.0.0"	"FALSE"	"Windows 10"	"60.72"	"013"	n/a	n/a	n/a	n/a	n/a	n/a	"fixation"	n/a	n/a	n/a	n/a	"NULL"	n/a	"NULL"	"NULL"	"NULL"	"<p style=\"color: black; font-size: 80px; padding-left: 13%; padding-right: 17%; padding-top: 35%; padding-bottom: 7%\">+</p>"	"1034"	n/a	n/a	n/a	n/a	n/a	n/a	n/a	n/a	n/a
n/a	"image-keyboard-response"	"64"	"262074"	"0.0-5.0-2.0-1.5"	"cq4hnm"	"600"	"1366"	"chrome"	"109.0.0"	"FALSE"	"Windows 10"	"60.72"	"013"	n/a	n/a	n/a	n/a	n/a	n/a	"Trial"	n/a	n/a	n/a	"558"	"arrowright"	n/a	"NULL"	"NULL"	"NULL"	"stimuli/VerticalHorizontal_-28.75714_-0.0673.png"	n/a	"VerticalHorizontal"	"arrowright"	"1047"	"TRUE"	"VerticalHorizontal"	"-28.75714000"	"-0.067300000"	"1"	"24"
n/a	"html-keyboard-response"	"65"	"263219"	"0.0-5.0-2.0-0.6"	"cq4hnm"	"600"	"1366"	"chrome"	"109.0.0"	"FALSE"	"Windows 10"	"60.72"	"013"	n/a	n/a	n/a	n/a	n/a	n/a	"fixation"	n/a	n/a	n/a	n/a	"NULL"	n/a	"NULL"	"NULL"	"NULL"	"<p style=\"color: black; font-size: 80px; padding-left: 0%; padding-right: 39%; padding-top: 16%; padding-bottom: 7%\">+</p>"	"1139"	n/a	n/a	n/a	n/a	n/a	n/a	n/a	n/a	n/a
n/a	"image-keyboard-response"	"66"	"263810"	"0.0-5.0-2.0-1.6"	"cq4hnm"	"600"	"1366"	"chrome"	"109.0.0"	"FALSE"	"Windows 10"	"60.72"	"013"	n/a	n/a	n/a	n/a	n/a	n/a	"Trial"	n/a	n/a	n/a	"589"	"arrowright"	n/a	"NULL"	"NULL"	"NULL"	"stimuli/VerticalHorizontal_11.78571_-0.2250.png"	n/a	"VerticalHorizontal"	"arrowright"	"1145"	"TRUE"	"VerticalHorizontal"	"11.785710000"	"-0.225000000"	"1"	"25"
n/a	"html-keyboard-response"	"67"	"265140"	"0.0-5.0-2.0-0.7"	"cq4hnm"	"600"	"1366"	"chrome"	"109.0.0"	"FALSE"	"Windows 10"	"60.72"	"013"	n/a	n/a	n/a	n/a	n/a	n/a	"fixation"	n/a	n/a	n/a	n/a	"NULL"	n/a	"NULL"	"NULL"	"NULL"	"<p style=\"color: black; font-size: 80px; padding-left: 38%; padding-right: 11%; padding-top: 19%; padding-bottom: 22%\">+</p>"	"1318"	n/a	n/a	n/a	n/a	n/a	n/a	n/a	n/a	n/a
n/a	"image-keyboard-response"	"68"	"265741"	"0.0-5.0-2.0-1.7"	"cq4hnm"	"600"	"1366"	"chrome"	"109.0.0"	"FALSE"	"Windows 10"	"60.72"	"013"	n/a	n/a	n/a	n/a	n/a	n/a	"Trial"	n/a	n/a	n/a	"600"	"arrowright"	n/a	"NULL"	"NULL"	"NULL"	"stimuli/VerticalHorizontal_20.27143_-0.1096.png"	n/a	"VerticalHorizontal"	"arrowright"	"1330"	"TRUE"	"VerticalHorizontal"	"20.271430000"	"-0.109600000"	"1"	"26"
n/a	"html-keyboard-response"	"69"	"267121"	"0.0-5.0-2.0-0.8"	"cq4hnm"	"600"	"1366"	"chrome"	"109.0.0"	"FALSE"	"Windows 10"	"60.72"	"013"	n/a	n/a	n/a	n/a	n/a	n/a	"fixation"	n/a	n/a	n/a	n/a	"NULL"	n/a	"NULL"	"NULL"	"NULL"	"<p style=\"color: black; font-size: 80px; padding-left: 23%; padding-right: 17%; padding-top: 24%; padding-bottom: 48%\">+</p>"	"1364"	n/a	n/a	n/a	n/a	n/a	n/a	n/a	n/a	n/a
n/a	"image-keyboard-response"	"70"	"267637"	"0.0-5.0-2.0-1.8"	"cq4hnm"	"600"	"1366"	"chrome"	"109.0.0"	"FALSE"	"Windows 10"	"60.72"	"013"	n/a	n/a	n/a	n/a	n/a	n/a	"Trial"	n/a	n/a	n/a	"513"	"arrowright"	n/a	"NULL"	"NULL"	"NULL"	"stimuli/VerticalHorizontal_-11.78571_-0.0673.png"	n/a	"VerticalHorizontal"	"arrowright"	"1380"	"TRUE"	"VerticalHorizontal"	"-11.78571000"	"-0.067300000"	"1"	"27"
n/a	"html-keyboard-response"	"71"	"269092"	"0.0-5.0-2.0-0.9"	"cq4hnm"	"600"	"1366"	"chrome"	"109.0.0"	"FALSE"	"Windows 10"	"60.72"	"013"	n/a	n/a	n/a	n/a	n/a	n/a	"fixation"	n/a	n/a	n/a	n/a	"NULL"	n/a	"NULL"	"NULL"	"NULL"	"<p style=\"color: black; font-size: 80px; padding-left: 37%; padding-right: 8%; padding-top: 22%; padding-bottom: 0%\">+</p>"	"1437"	n/a	n/a	n/a	n/a	n/a	n/a	n/a	n/a	n/a
n/a	"image-keyboard-response"	"72"	"269798"	"0.0-5.0-2.0-1.9"	"cq4hnm"	"600"	"1366"	"chrome"	"109.0.0"	"FALSE"	"Windows 10"	"60.72"	"013"	n/a	n/a	n/a	n/a	n/a	n/a	"Trial"	n/a	n/a	n/a	"704"	"arrowleft"	n/a	"NULL"	"NULL"	"NULL"	"stimuli/VerticalHorizontal_11.78571_0.10960.png"	n/a	"VerticalHorizontal"	"arrowleft"	"1455"	"TRUE"	"VerticalHorizontal"	"11.785710000"	"0.1096000000"	"1"	"28"
n/a	"html-keyboard-response"	"73"	"271114"	"0.0-5.0-2.0-0.10"	"cq4hnm"	"600"	"1366"	"chrome"	"109.0.0"	"FALSE"	"Windows 10"	"60.72"	"013"	n/a	n/a	n/a	n/a	n/a	n/a	"fixation"	n/a	n/a	n/a	n/a	"NULL"	n/a	"NULL"	"NULL"	"NULL"	"<p style=\"color: black; font-size: 80px; padding-left: 41%; padding-right: 9%; padding-top: 48%; padding-bottom: 25%\">+</p>"	"1310"	n/a	n/a	n/a	n/a	n/a	n/a	n/a	n/a	n/a
n/a	"image-keyboard-response"	"74"	"271711"	"0.0-5.0-2.0-1.10"	"cq4hnm"	"600"	"1366"	"chrome"	"109.0.0"	"FALSE"	"Windows 10"	"60.72"	"013"	n/a	n/a	n/a	n/a	n/a	n/a	"Trial"	n/a	n/a	n/a	"596"	"arrowright"	n/a	"NULL"	"NULL"	"NULL"	"stimuli/VerticalHorizontal_20.27143_-0.2250.png"	n/a	"VerticalHorizontal"	"arrowright"	"1316"	"TRUE"	"VerticalHorizontal"	"20.271430000"	"-0.225000000"	"1"	"29"
n/a	"html-keyboard-response"	"75"	"272889"	"0.0-5.0-2.0-0.11"	"cq4hnm"	"600"	"1366"	"chrome"	"109.0.0"	"FALSE"	"Windows 10"	"60.72"	"013"	n/a	n/a	n/a	n/a	n/a	n/a	"fixation"	n/a	n/a	n/a	n/a	"NULL"	n/a	"NULL"	"NULL"	"NULL"	"<p style=\"color: black; font-size: 80px; padding-left: 8%; padding-right: 45%; padding-top: 6%; padding-bottom: 46%\">+</p>"	"1175"	n/a	n/a	n/a	n/a	n/a	n/a	n/a	n/a	n/a
n/a	"image-keyboard-response"	"76"	"273528"	"0.0-5.0-2.0-1.11"	"cq4hnm"	"600"	"1366"	"chrome"	"109.0.0"	"FALSE"	"Windows 10"	"60.72"	"013"	n/a	n/a	n/a	n/a	n/a	n/a	"Trial"	n/a	n/a	n/a	"638"	"arrowright"	n/a	"NULL"	"NULL"	"NULL"	"stimuli/VerticalHorizontal_-3.3000_-0.16217.png"	n/a	"VerticalHorizontal"	"arrowright"	"1178"	"TRUE"	"VerticalHorizontal"	"-3.300000000"	"-0.162170000"	"1"	"30"
n/a	"html-keyboard-response"	"77"	"274652"	"0.0-5.0-2.0-0.12"	"cq4hnm"	"600"	"1366"	"chrome"	"109.0.0"	"FALSE"	"Windows 10"	"60.72"	"013"	n/a	n/a	n/a	n/a	n/a	n/a	"fixation"	n/a	n/a	n/a	n/a	"NULL"	n/a	"NULL"	"NULL"	"NULL"	"<p style=\"color: black; font-size: 80px; padding-left: 37%; padding-right: 4%; padding-top: 27%; padding-bottom: 2%\">+</p>"	"1112"	n/a	n/a	n/a	n/a	n/a	n/a	n/a	n/a	n/a
n/a	"image-keyboard-response"	"78"	"275198"	"0.0-5.0-2.0-1.12"	"cq4hnm"	"600"	"1366"	"chrome"	"109.0.0"	"FALSE"	"Windows 10"	"60.72"	"013"	n/a	n/a	n/a	n/a	n/a	n/a	"Trial"	n/a	n/a	n/a	"545"	"arrowright"	n/a	"NULL"	"NULL"	"NULL"	"stimuli/VerticalHorizontal_-20.27143_-0.1096.png"	n/a	"VerticalHorizontal"	"arrowright"	"1124"	"TRUE"	"VerticalHorizontal"	"-20.27143000"	"-0.109600000"	"1"	"31"
n/a	"html-keyboard-response"	"79"	"276351"	"0.0-5.0-2.0-0.13"	"cq4hnm"	"600"	"1366"	"chrome"	"109.0.0"	"FALSE"	"Windows 10"	"60.72"	"013"	n/a	n/a	n/a	n/a	n/a	n/a	"fixation"	n/a	n/a	n/a	n/a	"NULL"	n/a	"NULL"	"NULL"	"NULL"	"<p style=\"color: black; font-size: 80px; padding-left: 10%; padding-right: 5%; padding-top: 10%; padding-bottom: 2%\">+</p>"	"1129"	n/a	n/a	n/a	n/a	n/a	n/a	n/a	n/a	n/a
n/a	"image-keyboard-response"	"80"	"276974"	"0.0-5.0-2.0-1.13"	"cq4hnm"	"600"	"1366"	"chrome"	"109.0.0"	"FALSE"	"Windows 10"	"60.72"	"013"	n/a	n/a	n/a	n/a	n/a	n/a	"Trial"	n/a	n/a	n/a	"622"	"arrowleft"	n/a	"NULL"	"NULL"	"NULL"	"stimuli/VerticalHorizontal_3.30000_-0.16217.png"	n/a	"VerticalHorizontal"	"arrowright"	"1153"	"FALSE"	"VerticalHorizontal"	"3.3000000000"	"-0.162170000"	"1"	"32"
n/a	"html-keyboard-response"	"81"	"278280"	"0.0-5.0-2.0-0.14"	"cq4hnm"	"600"	"1366"	"chrome"	"109.0.0"	"FALSE"	"Windows 10"	"60.72"	"013"	n/a	n/a	n/a	n/a	n/a	n/a	"fixation"	n/a	n/a	n/a	n/a	"NULL"	n/a	"NULL"	"NULL"	"NULL"	"<p style=\"color: black; font-size: 80px; padding-left: 16%; padding-right: 5%; padding-top: 24%; padding-bottom: 6%\">+</p>"	"1286"	n/a	n/a	n/a	n/a	n/a	n/a	n/a	n/a	n/a
n/a	"image-keyboard-response"	"82"	"278952"	"0.0-5.0-2.0-1.14"	"cq4hnm"	"600"	"1366"	"chrome"	"109.0.0"	"FALSE"	"Windows 10"	"60.72"	"013"	n/a	n/a	n/a	n/a	n/a	n/a	"Trial"	n/a	n/a	n/a	"671"	"arrowleft"	n/a	"NULL"	"NULL"	"NULL"	"stimuli/VerticalHorizontal_28.75714_0.22500.png"	n/a	"VerticalHorizontal"	"arrowleft"	"1306"	"TRUE"	"VerticalHorizontal"	"28.757140000"	"0.2250000000"	"1"	"33"
n/a	"html-keyboard-response"	"83"	"280421"	"0.0-5.0-2.0-0.15"	"cq4hnm"	"600"	"1366"	"chrome"	"109.0.0"	"FALSE"	"Windows 10"	"60.72"	"013"	n/a	n/a	n/a	n/a	n/a	n/a	"fixation"	n/a	n/a	n/a	n/a	"NULL"	n/a	"NULL"	"NULL"	"NULL"	"<p style=\"color: black; font-size: 80px; padding-left: 44%; padding-right: 36%; padding-top: 47%; padding-bottom: 2%\">+</p>"	"1448"	n/a	n/a	n/a	n/a	n/a	n/a	n/a	n/a	n/a
n/a	"image-keyboard-response"	"84"	"281008"	"0.0-5.0-2.0-1.15"	"cq4hnm"	"600"	"1366"	"chrome"	"109.0.0"	"FALSE"	"Windows 10"	"60.72"	"013"	n/a	n/a	n/a	n/a	n/a	n/a	"Trial"	n/a	n/a	n/a	"585"	"arrowright"	n/a	"NULL"	"NULL"	"NULL"	"stimuli/VerticalHorizontal_-20.27143_0.22500.png"	n/a	"VerticalHorizontal"	"arrowleft"	"1469"	"FALSE"	"VerticalHorizontal"	"-20.27143000"	"0.2250000000"	"1"	"34"
n/a	"html-keyboard-response"	"85"	"282452"	"0.0-5.0-2.0-0.16"	"cq4hnm"	"600"	"1366"	"chrome"	"109.0.0"	"FALSE"	"Windows 10"	"60.72"	"013"	n/a	n/a	n/a	n/a	n/a	n/a	"fixation"	n/a	n/a	n/a	n/a	"NULL"	n/a	"NULL"	"NULL"	"NULL"	"<p style=\"color: black; font-size: 80px; padding-left: 22%; padding-right: 46%; padding-top: 4%; padding-bottom: 34%\">+</p>"	"1431"	n/a	n/a	n/a	n/a	n/a	n/a	n/a	n/a	n/a
n/a	"image-keyboard-response"	"86"	"283010"	"0.0-5.0-2.0-1.16"	"cq4hnm"	"600"	"1366"	"chrome"	"109.0.0"	"FALSE"	"Windows 10"	"60.72"	"013"	n/a	n/a	n/a	n/a	n/a	n/a	"Trial"	n/a	n/a	n/a	"557"	"arrowleft"	n/a	"NULL"	"NULL"	"NULL"	"stimuli/VerticalHorizontal_-28.75714_0.06730.png"	n/a	"VerticalHorizontal"	"arrowleft"	"1444"	"TRUE"	"VerticalHorizontal"	"-28.75714000"	"0.0673000000"	"1"	"35"
n/a	"html-keyboard-response"	"87"	"284373"	"0.0-5.0-2.0-0.17"	"cq4hnm"	"600"	"1366"	"chrome"	"109.0.0"	"FALSE"	"Windows 10"	"60.72"	"013"	n/a	n/a	n/a	n/a	n/a	n/a	"fixation"	n/a	n/a	n/a	n/a	"NULL"	n/a	"NULL"	"NULL"	"NULL"	"<p style=\"color: black; font-size: 80px; padding-left: 17%; padding-right: 27%; padding-top: 14%; padding-bottom: 41%\">+</p>"	"1349"	n/a	n/a	n/a	n/a	n/a	n/a	n/a	n/a	n/a
n/a	"image-keyboard-response"	"88"	"284866"	"0.0-5.0-2.0-1.17"	"cq4hnm"	"600"	"1366"	"chrome"	"109.0.0"	"FALSE"	"Windows 10"	"60.72"	"013"	n/a	n/a	n/a	n/a	n/a	n/a	"Trial"	n/a	n/a	n/a	"487"	"arrowleft"	n/a	"NULL"	"NULL"	"NULL"	"stimuli/VerticalHorizontal_3.30000_0.22500.png"	n/a	"VerticalHorizontal"	"arrowleft"	"1363"	"TRUE"	"VerticalHorizontal"	"3.3000000000"	"0.2250000000"	"1"	"36"
n/a	"html-keyboard-response"	"89"	"286265"	"0.0-5.0-2.0-0.18"	"cq4hnm"	"600"	"1366"	"chrome"	"109.0.0"	"FALSE"	"Windows 10"	"60.72"	"013"	n/a	n/a	n/a	n/a	n/a	n/a	"fixation"	n/a	n/a	n/a	n/a	"NULL"	n/a	"NULL"	"NULL"	"NULL"	"<p style=\"color: black; font-size: 80px; padding-left: 34%; padding-right: 42%; padding-top: 10%; padding-bottom: 4%\">+</p>"	"1389"	n/a	n/a	n/a	n/a	n/a	n/a	n/a	n/a	n/a
n/a	"image-keyboard-response"	"90"	"286776"	"0.0-5.0-2.0-1.18"	"cq4hnm"	"600"	"1366"	"chrome"	"109.0.0"	"FALSE"	"Windows 10"	"60.72"	"013"	n/a	n/a	n/a	n/a	n/a	n/a	"Trial"	n/a	n/a	n/a	"507"	"arrowright"	n/a	"NULL"	"NULL"	"NULL"	"stimuli/VerticalHorizontal_11.78571_-0.0673.png"	n/a	"VerticalHorizontal"	"arrowright"	"1399"	"TRUE"	"VerticalHorizontal"	"11.785710000"	"-0.067300000"	"1"	"37"
n/a	"html-keyboard-response"	"91"	"288143"	"0.0-5.0-2.0-0.19"	"cq4hnm"	"600"	"1366"	"chrome"	"109.0.0"	"FALSE"	"Windows 10"	"60.72"	"013"	n/a	n/a	n/a	n/a	n/a	n/a	"fixation"	n/a	n/a	n/a	n/a	"NULL"	n/a	"NULL"	"NULL"	"NULL"	"<p style=\"color: black; font-size: 80px; padding-left: 15%; padding-right: 17%; padding-top: 22%; padding-bottom: 39%\">+</p>"	"1347"	n/a	n/a	n/a	n/a	n/a	n/a	n/a	n/a	n/a
n/a	"image-keyboard-response"	"92"	"288642"	"0.0-5.0-2.0-1.19"	"cq4hnm"	"600"	"1366"	"chrome"	"109.0.0"	"FALSE"	"Windows 10"	"60.72"	"013"	n/a	n/a	n/a	n/a	n/a	n/a	"Trial"	n/a	n/a	n/a	"498"	"arrowright"	n/a	"NULL"	"NULL"	"NULL"	"stimuli/VerticalHorizontal_3.30000_-0.1096.png"	n/a	"VerticalHorizontal"	"arrowright"	"1367"	"TRUE"	"VerticalHorizontal"	"3.3000000000"	"-0.109600000"	"1"	"38"
n/a	"html-keyboard-response"	"93"	"290027"	"0.0-5.0-2.0-0.20"	"cq4hnm"	"600"	"1366"	"chrome"	"109.0.0"	"FALSE"	"Windows 10"	"60.72"	"013"	n/a	n/a	n/a	n/a	n/a	n/a	"fixation"	n/a	n/a	n/a	n/a	"NULL"	n/a	"NULL"	"NULL"	"NULL"	"<p style=\"color: black; font-size: 80px; padding-left: 47%; padding-right: 2%; padding-top: 2%; padding-bottom: 2%\">+</p>"	"1371"	n/a	n/a	n/a	n/a	n/a	n/a	n/a	n/a	n/a
n/a	"image-keyboard-response"	"94"	"290486"	"0.0-5.0-2.0-1.20"	"cq4hnm"	"600"	"1366"	"chrome"	"109.0.0"	"FALSE"	"Windows 10"	"60.72"	"013"	n/a	n/a	n/a	n/a	n/a	n/a	"Trial"	n/a	n/a	n/a	"457"	"arrowright"	n/a	"NULL"	"NULL"	"NULL"	"stimuli/VerticalHorizontal_-11.78571_-0.2250.png"	n/a	"VerticalHorizontal"	"arrowright"	"1385"	"TRUE"	"VerticalHorizontal"	"-11.78571000"	"-0.225000000"	"1"	"39"
n/a	"html-keyboard-response"	"95"	"291942"	"0.0-5.0-2.0-0.21"	"cq4hnm"	"600"	"1366"	"chrome"	"109.0.0"	"FALSE"	"Windows 10"	"60.72"	"013"	n/a	n/a	n/a	n/a	n/a	n/a	"fixation"	n/a	n/a	n/a	n/a	"NULL"	n/a	"NULL"	"NULL"	"NULL"	"<p style=\"color: black; font-size: 80px; padding-left: 48%; padding-right: 25%; padding-top: 18%; padding-bottom: 43%\">+</p>"	"1445"	n/a	n/a	n/a	n/a	n/a	n/a	n/a	n/a	n/a
n/a	"image-keyboard-response"	"96"	"292441"	"0.0-5.0-2.0-1.21"	"cq4hnm"	"600"	"1366"	"chrome"	"109.0.0"	"FALSE"	"Windows 10"	"60.72"	"013"	n/a	n/a	n/a	n/a	n/a	n/a	"Trial"	n/a	n/a	n/a	"498"	"arrowleft"	n/a	"NULL"	"NULL"	"NULL"	"stimuli/VerticalHorizontal_-20.27143_0.16217.png"	n/a	"VerticalHorizontal"	"arrowleft"	"1456"	"TRUE"	"VerticalHorizontal"	"-20.27143000"	"0.1621700000"	"1"	"40"
n/a	"html-keyboard-response"	"97"	"293714"	"0.0-5.0-2.0-0.22"	"cq4hnm"	"600"	"1366"	"chrome"	"109.0.0"	"FALSE"	"Windows 10"	"60.72"	"013"	n/a	n/a	n/a	n/a	n/a	n/a	"fixation"	n/a	n/a	n/a	n/a	"NULL"	n/a	"NULL"	"NULL"	"NULL"	"<p style=\"color: black; font-size: 80px; padding-left: 23%; padding-right: 25%; padding-top: 40%; padding-bottom: 2%\">+</p>"	"1271"	n/a	n/a	n/a	n/a	n/a	n/a	n/a	n/a	n/a
n/a	"image-keyboard-response"	"98"	"294260"	"0.0-5.0-2.0-1.22"	"cq4hnm"	"600"	"1366"	"chrome"	"109.0.0"	"FALSE"	"Windows 10"	"60.72"	"013"	n/a	n/a	n/a	n/a	n/a	n/a	"Trial"	n/a	n/a	n/a	"545"	"arrowright"	n/a	"NULL"	"NULL"	"NULL"	"stimuli/VerticalHorizontal_-3.3000_-0.1096.png"	n/a	"VerticalHorizontal"	"arrowright"	"1273"	"TRUE"	"VerticalHorizontal"	"-3.300000000"	"-0.109600000"	"1"	"41"
n/a	"html-keyboard-response"	"99"	"295344"	"0.0-5.0-2.0-0.23"	"cq4hnm"	"600"	"1366"	"chrome"	"109.0.0"	"FALSE"	"Windows 10"	"60.72"	"013"	n/a	n/a	n/a	n/a	n/a	n/a	"fixation"	n/a	n/a	n/a	n/a	"NULL"	n/a	"NULL"	"NULL"	"NULL"	"<p style=\"color: black; font-size: 80px; padding-left: 38%; padding-right: 3%; padding-top: 17%; padding-bottom: 26%\">+</p>"	"1065"	n/a	n/a	n/a	n/a	n/a	n/a	n/a	n/a	n/a
n/a	"image-keyboard-response"	"100"	"295805"	"0.0-5.0-2.0-1.23"	"cq4hnm"	"600"	"1366"	"chrome"	"109.0.0"	"FALSE"	"Windows 10"	"60.72"	"013"	n/a	n/a	n/a	n/a	n/a	n/a	"Trial"	n/a	n/a	n/a	"460"	"arrowright"	n/a	"NULL"	"NULL"	"NULL"	"stimuli/VerticalHorizontal_-20.27143_-0.0673.png"	n/a	"VerticalHorizontal"	"arrowright"	"1084"	"TRUE"	"VerticalHorizontal"	"-20.27143000"	"-0.067300000"	"1"	"42"
n/a	"html-keyboard-response"	"101"	"297060"	"0.0-5.0-2.0-0.24"	"cq4hnm"	"600"	"1366"	"chrome"	"109.0.0"	"FALSE"	"Windows 10"	"60.72"	"013"	n/a	n/a	n/a	n/a	n/a	n/a	"fixation"	n/a	n/a	n/a	n/a	"NULL"	n/a	"NULL"	"NULL"	"NULL"	"<p style=\"color: black; font-size: 80px; padding-left: 4%; padding-right: 36%; padding-top: 20%; padding-bottom: 20%\">+</p>"	"1237"	n/a	n/a	n/a	n/a	n/a	n/a	n/a	n/a	n/a
n/a	"image-keyboard-response"	"102"	"297540"	"0.0-5.0-2.0-1.24"	"cq4hnm"	"600"	"1366"	"chrome"	"109.0.0"	"FALSE"	"Windows 10"	"60.72"	"013"	n/a	n/a	n/a	n/a	n/a	n/a	"Trial"	n/a	n/a	n/a	"479"	"arrowleft"	n/a	"NULL"	"NULL"	"NULL"	"stimuli/VerticalHorizontal_-28.75714_0.10960.png"	n/a	"VerticalHorizontal"	"arrowleft"	"1255"	"TRUE"	"VerticalHorizontal"	"-28.75714000"	"0.1096000000"	"1"	"43"
n/a	"html-keyboard-response"	"103"	"298737"	"0.0-5.0-2.0-0.25"	"cq4hnm"	"600"	"1366"	"chrome"	"109.0.0"	"FALSE"	"Windows 10"	"60.72"	"013"	n/a	n/a	n/a	n/a	n/a	n/a	"fixation"	n/a	n/a	n/a	n/a	"NULL"	n/a	"NULL"	"NULL"	"NULL"	"<p style=\"color: black; font-size: 80px; padding-left: 45%; padding-right: 37%; padding-top: 17%; padding-bottom: 10%\">+</p>"	"1194"	n/a	n/a	n/a	n/a	n/a	n/a	n/a	n/a	n/a
n/a	"image-keyboard-response"	"104"	"299163"	"0.0-5.0-2.0-1.25"	"cq4hnm"	"600"	"1366"	"chrome"	"109.0.0"	"FALSE"	"Windows 10"	"60.72"	"013"	n/a	n/a	n/a	n/a	n/a	n/a	"Trial"	n/a	n/a	n/a	"425"	"arrowright"	n/a	"NULL"	"NULL"	"NULL"	"stimuli/VerticalHorizontal_-3.3000_-0.2250.png"	n/a	"VerticalHorizontal"	"arrowright"	"1197"	"TRUE"	"VerticalHorizontal"	"-3.300000000"	"-0.225000000"	"1"	"44"
n/a	"html-keyboard-response"	"105"	"300528"	"0.0-5.0-2.0-0.26"	"cq4hnm"	"600"	"1366"	"chrome"	"109.0.0"	"FALSE"	"Windows 10"	"60.72"	"013"	n/a	n/a	n/a	n/a	n/a	n/a	"fixation"	n/a	n/a	n/a	n/a	"NULL"	n/a	"NULL"	"NULL"	"NULL"	"<p style=\"color: black; font-size: 80px; padding-left: 28%; padding-right: 32%; padding-top: 1%; padding-bottom: 9%\">+</p>"	"1353"	n/a	n/a	n/a	n/a	n/a	n/a	n/a	n/a	n/a
n/a	"image-keyboard-response"	"106"	"301138"	"0.0-5.0-2.0-1.26"	"cq4hnm"	"600"	"1366"	"chrome"	"109.0.0"	"FALSE"	"Windows 10"	"60.72"	"013"	n/a	n/a	n/a	n/a	n/a	n/a	"Trial"	n/a	n/a	n/a	"609"	"arrowright"	n/a	"NULL"	"NULL"	"NULL"	"stimuli/VerticalHorizontal_3.30000_0.10960.png"	n/a	"VerticalHorizontal"	"arrowleft"	"1365"	"FALSE"	"VerticalHorizontal"	"3.3000000000"	"0.1096000000"	"1"	"45"
n/a	"html-keyboard-response"	"107"	"302453"	"0.0-5.0-2.0-0.27"	"cq4hnm"	"600"	"1366"	"chrome"	"109.0.0"	"FALSE"	"Windows 10"	"60.72"	"013"	n/a	n/a	n/a	n/a	n/a	n/a	"fixation"	n/a	n/a	n/a	n/a	"NULL"	n/a	"NULL"	"NULL"	"NULL"	"<p style=\"color: black; font-size: 80px; padding-left: 27%; padding-right: 12%; padding-top: 30%; padding-bottom: 49%\">+</p>"	"1294"	n/a	n/a	n/a	n/a	n/a	n/a	n/a	n/a	n/a
n/a	"image-keyboard-response"	"108"	"302957"	"0.0-5.0-2.0-1.27"	"cq4hnm"	"600"	"1366"	"chrome"	"109.0.0"	"FALSE"	"Windows 10"	"60.72"	"013"	n/a	n/a	n/a	n/a	n/a	n/a	"Trial"	n/a	n/a	n/a	"503"	"arrowright"	n/a	"NULL"	"NULL"	"NULL"	"stimuli/VerticalHorizontal_-11.78571_-0.1096.png"	n/a	"VerticalHorizontal"	"arrowright"	"1315"	"TRUE"	"VerticalHorizontal"	"-11.78571000"	"-0.109600000"	"1"	"46"
n/a	"html-keyboard-response"	"109"	"304360"	"0.0-5.0-2.0-0.28"	"cq4hnm"	"600"	"1366"	"chrome"	"109.0.0"	"FALSE"	"Windows 10"	"60.72"	"013"	n/a	n/a	n/a	n/a	n/a	n/a	"fixation"	n/a	n/a	n/a	n/a	"NULL"	n/a	"NULL"	"NULL"	"NULL"	"<p style=\"color: black; font-size: 80px; padding-left: 30%; padding-right: 3%; padding-top: 31%; padding-bottom: 1%\">+</p>"	"1382"	n/a	n/a	n/a	n/a	n/a	n/a	n/a	n/a	n/a
n/a	"image-keyboard-response"	"110"	"304803"	"0.0-5.0-2.0-1.28"	"cq4hnm"	"600"	"1366"	"chrome"	"109.0.0"	"FALSE"	"Windows 10"	"60.72"	"013"	n/a	n/a	n/a	n/a	n/a	n/a	"Trial"	n/a	n/a	n/a	"440"	"arrowright"	n/a	"NULL"	"NULL"	"NULL"	"stimuli/VerticalHorizontal_11.78571_-0.16217.png"	n/a	"VerticalHorizontal"	"arrowright"	"1403"	"TRUE"	"VerticalHorizontal"	"11.785710000"	"-0.162170000"	"1"	"47"
n/a	"html-keyboard-response"	"111"	"305938"	"0.0-5.0-2.0-0.29"	"cq4hnm"	"600"	"1366"	"chrome"	"109.0.0"	"FALSE"	"Windows 10"	"60.72"	"013"	n/a	n/a	n/a	n/a	n/a	n/a	"fixation"	n/a	n/a	n/a	n/a	"NULL"	n/a	"NULL"	"NULL"	"NULL"	"<p style=\"color: black; font-size: 80px; padding-left: 14%; padding-right: 27%; padding-top: 4%; padding-bottom: 37%\">+</p>"	"1130"	n/a	n/a	n/a	n/a	n/a	n/a	n/a	n/a	n/a
n/a	"image-keyboard-response"	"112"	"306352"	"0.0-5.0-2.0-1.29"	"cq4hnm"	"600"	"1366"	"chrome"	"109.0.0"	"FALSE"	"Windows 10"	"60.72"	"013"	n/a	n/a	n/a	n/a	n/a	n/a	"Trial"	n/a	n/a	n/a	"413"	"arrowright"	n/a	"NULL"	"NULL"	"NULL"	"stimuli/VerticalHorizontal_-11.78571_-0.16217.png"	n/a	"VerticalHorizontal"	"arrowright"	"1135"	"TRUE"	"VerticalHorizontal"	"-11.78571000"	"-0.162170000"	"1"	"48"
n/a	"html-keyboard-response"	"113"	"307382"	"0.0-5.0-2.0-0.30"	"cq4hnm"	"600"	"1366"	"chrome"	"109.0.0"	"FALSE"	"Windows 10"	"60.72"	"013"	n/a	n/a	n/a	n/a	n/a	n/a	"fixation"	n/a	n/a	n/a	n/a	"NULL"	n/a	"NULL"	"NULL"	"NULL"	"<p style=\"color: black; font-size: 80px; padding-left: 47%; padding-right: 31%; padding-top: 49%; padding-bottom: 46%\">+</p>"	"1020"	n/a	n/a	n/a	n/a	n/a	n/a	n/a	n/a	n/a
n/a	"image-keyboard-response"	"114"	"307806"	"0.0-5.0-2.0-1.30"	"cq4hnm"	"600"	"1366"	"chrome"	"109.0.0"	"FALSE"	"Windows 10"	"60.72"	"013"	n/a	n/a	n/a	n/a	n/a	n/a	"Trial"	n/a	n/a	n/a	"424"	"arrowright"	n/a	"NULL"	"NULL"	"NULL"	"stimuli/VerticalHorizontal_3.30000_-0.2250.png"	n/a	"VerticalHorizontal"	"arrowright"	"1030"	"TRUE"	"VerticalHorizontal"	"3.3000000000"	"-0.225000000"	"1"	"49"
n/a	"html-keyboard-response"	"115"	"309285"	"0.0-5.0-2.0-0.31"	"cq4hnm"	"600"	"1366"	"chrome"	"109.0.0"	"FALSE"	"Windows 10"	"60.72"	"013"	n/a	n/a	n/a	n/a	n/a	n/a	"fixation"	n/a	n/a	n/a	n/a	"NULL"	n/a	"NULL"	"NULL"	"NULL"	"<p style=\"color: black; font-size: 80px; padding-left: 48%; padding-right: 21%; padding-top: 46%; padding-bottom: 43%\">+</p>"	"1465"	n/a	n/a	n/a	n/a	n/a	n/a	n/a	n/a	n/a
n/a	"image-keyboard-response"	"116"	"309671"	"0.0-5.0-2.0-1.31"	"cq4hnm"	"600"	"1366"	"chrome"	"109.0.0"	"FALSE"	"Windows 10"	"60.72"	"013"	n/a	n/a	n/a	n/a	n/a	n/a	"Trial"	n/a	n/a	n/a	"385"	"arrowright"	n/a	"NULL"	"NULL"	"NULL"	"stimuli/VerticalHorizontal_3.30000_0.06730.png"	n/a	"VerticalHorizontal"	"arrowleft"	"1479"	"FALSE"	"VerticalHorizontal"	"3.3000000000"	"0.0673000000"	"1"	"50"
n/a	"html-keyboard-response"	"117"	"311091"	"0.0-5.0-2.0-0.32"	"cq4hnm"	"600"	"1366"	"chrome"	"109.0.0"	"FALSE"	"Windows 10"	"60.72"	"013"	n/a	n/a	n/a	n/a	n/a	n/a	"fixation"	n/a	n/a	n/a	n/a	"NULL"	n/a	"NULL"	"NULL"	"NULL"	"<p style=\"color: black; font-size: 80px; padding-left: 40%; padding-right: 37%; padding-top: 9%; padding-bottom: 12%\">+</p>"	"1415"	n/a	n/a	n/a	n/a	n/a	n/a	n/a	n/a	n/a
n/a	"image-keyboard-response"	"118"	"311702"	"0.0-5.0-2.0-1.32"	"cq4hnm"	"600"	"1366"	"chrome"	"109.0.0"	"FALSE"	"Windows 10"	"60.72"	"013"	n/a	n/a	n/a	n/a	n/a	n/a	"Trial"	n/a	n/a	n/a	"609"	"arrowleft"	n/a	"NULL"	"NULL"	"NULL"	"stimuli/VerticalHorizontal_-11.78571_0.22500.png"	n/a	"VerticalHorizontal"	"arrowleft"	"1420"	"TRUE"	"VerticalHorizontal"	"-11.78571000"	"0.2250000000"	"1"	"51"
n/a	"html-keyboard-response"	"119"	"312763"	"0.0-5.0-2.0-0.33"	"cq4hnm"	"600"	"1366"	"chrome"	"109.0.0"	"FALSE"	"Windows 10"	"60.72"	"013"	n/a	n/a	n/a	n/a	n/a	n/a	"fixation"	n/a	n/a	n/a	n/a	"NULL"	n/a	"NULL"	"NULL"	"NULL"	"<p style=\"color: black; font-size: 80px; padding-left: 16%; padding-right: 30%; padding-top: 20%; padding-bottom: 34%\">+</p>"	"1053"	n/a	n/a	n/a	n/a	n/a	n/a	n/a	n/a	n/a
n/a	"image-keyboard-response"	"120"	"313209"	"0.0-5.0-2.0-1.33"	"cq4hnm"	"600"	"1366"	"chrome"	"109.0.0"	"FALSE"	"Windows 10"	"60.72"	"013"	n/a	n/a	n/a	n/a	n/a	n/a	"Trial"	n/a	n/a	n/a	"445"	"arrowleft"	n/a	"NULL"	"NULL"	"NULL"	"stimuli/VerticalHorizontal_-28.75714_0.16217.png"	n/a	"VerticalHorizontal"	"arrowleft"	"1061"	"TRUE"	"VerticalHorizontal"	"-28.75714000"	"0.1621700000"	"1"	"52"
n/a	"html-keyboard-response"	"121"	"314272"	"0.0-5.0-2.0-0.34"	"cq4hnm"	"600"	"1366"	"chrome"	"109.0.0"	"FALSE"	"Windows 10"	"60.72"	"013"	n/a	n/a	n/a	n/a	n/a	n/a	"fixation"	n/a	n/a	n/a	n/a	"NULL"	n/a	"NULL"	"NULL"	"NULL"	"<p style=\"color: black; font-size: 80px; padding-left: 45%; padding-right: 31%; padding-top: 23%; padding-bottom: 19%\">+</p>"	"1050"	n/a	n/a	n/a	n/a	n/a	n/a	n/a	n/a	n/a
n/a	"image-keyboard-response"	"122"	"314739"	"0.0-5.0-2.0-1.34"	"cq4hnm"	"600"	"1366"	"chrome"	"109.0.0"	"FALSE"	"Windows 10"	"60.72"	"013"	n/a	n/a	n/a	n/a	n/a	n/a	"Trial"	n/a	n/a	n/a	"466"	"arrowleft"	n/a	"NULL"	"NULL"	"NULL"	"stimuli/VerticalHorizontal_20.27143_-0.0673.png"	n/a	"VerticalHorizontal"	"arrowright"	"1063"	"FALSE"	"VerticalHorizontal"	"20.271430000"	"-0.067300000"	"1"	"53"
n/a	"html-keyboard-response"	"123"	"316185"	"0.0-5.0-2.0-0.35"	"cq4hnm"	"600"	"1366"	"chrome"	"109.0.0"	"FALSE"	"Windows 10"	"60.72"	"013"	n/a	n/a	n/a	n/a	n/a	n/a	"fixation"	n/a	n/a	n/a	n/a	"NULL"	n/a	"NULL"	"NULL"	"NULL"	"<p style=\"color: black; font-size: 80px; padding-left: 31%; padding-right: 41%; padding-top: 43%; padding-bottom: 31%\">+</p>"	"1441"	n/a	n/a	n/a	n/a	n/a	n/a	n/a	n/a	n/a
n/a	"image-keyboard-response"	"124"	"316712"	"0.0-5.0-2.0-1.35"	"cq4hnm"	"600"	"1366"	"chrome"	"109.0.0"	"FALSE"	"Windows 10"	"60.72"	"013"	n/a	n/a	n/a	n/a	n/a	n/a	"Trial"	n/a	n/a	n/a	"526"	"arrowleft"	n/a	"NULL"	"NULL"	"NULL"	"stimuli/VerticalHorizontal_-28.75714_0.22500.png"	n/a	"VerticalHorizontal"	"arrowleft"	"1446"	"TRUE"	"VerticalHorizontal"	"-28.75714000"	"0.2250000000"	"1"	"54"
n/a	"html-keyboard-response"	"125"	"317937"	"0.0-5.0-2.0-0.36"	"cq4hnm"	"600"	"1366"	"chrome"	"109.0.0"	"FALSE"	"Windows 10"	"60.72"	"013"	n/a	n/a	n/a	n/a	n/a	n/a	"fixation"	n/a	n/a	n/a	n/a	"NULL"	n/a	"NULL"	"NULL"	"NULL"	"<p style=\"color: black; font-size: 80px; padding-left: 36%; padding-right: 13%; padding-top: 31%; padding-bottom: 22%\">+</p>"	"1215"	n/a	n/a	n/a	n/a	n/a	n/a	n/a	n/a	n/a
n/a	"image-keyboard-response"	"126"	"318509"	"0.0-5.0-2.0-1.36"	"cq4hnm"	"600"	"1366"	"chrome"	"109.0.0"	"FALSE"	"Windows 10"	"60.72"	"013"	n/a	n/a	n/a	n/a	n/a	n/a	"Trial"	n/a	n/a	n/a	"571"	"arrowright"	n/a	"NULL"	"NULL"	"NULL"	"stimuli/VerticalHorizontal_28.75714_-0.1096.png"	n/a	"VerticalHorizontal"	"arrowright"	"1225"	"TRUE"	"VerticalHorizontal"	"28.757140000"	"-0.109600000"	"1"	"55"
n/a	"html-keyboard-response"	"127"	"319563"	"0.0-5.0-2.0-0.37"	"cq4hnm"	"600"	"1366"	"chrome"	"109.0.0"	"FALSE"	"Windows 10"	"60.72"	"013"	n/a	n/a	n/a	n/a	n/a	n/a	"fixation"	n/a	n/a	n/a	n/a	"NULL"	n/a	"NULL"	"NULL"	"NULL"	"<p style=\"color: black; font-size: 80px; padding-left: 14%; padding-right: 35%; padding-top: 39%; padding-bottom: 48%\">+</p>"	"1039"	n/a	n/a	n/a	n/a	n/a	n/a	n/a	n/a	n/a
n/a	"image-keyboard-response"	"128"	"320092"	"0.0-5.0-2.0-1.37"	"cq4hnm"	"600"	"1366"	"chrome"	"109.0.0"	"FALSE"	"Windows 10"	"60.72"	"013"	n/a	n/a	n/a	n/a	n/a	n/a	"Trial"	n/a	n/a	n/a	"528"	"arrowright"	n/a	"NULL"	"NULL"	"NULL"	"stimuli/VerticalHorizontal_20.27143_0.10960.png"	n/a	"VerticalHorizontal"	"arrowleft"	"1054"	"FALSE"	"VerticalHorizontal"	"20.271430000"	"0.1096000000"	"1"	"56"
n/a	"html-keyboard-response"	"129"	"321312"	"0.0-5.0-2.0-0.38"	"cq4hnm"	"600"	"1366"	"chrome"	"109.0.0"	"FALSE"	"Windows 10"	"60.72"	"013"	n/a	n/a	n/a	n/a	n/a	n/a	"fixation"	n/a	n/a	n/a	n/a	"NULL"	n/a	"NULL"	"NULL"	"NULL"	"<p style=\"color: black; font-size: 80px; padding-left: 18%; padding-right: 41%; padding-top: 48%; padding-bottom: 1%\">+</p>"	"1217"	n/a	n/a	n/a	n/a	n/a	n/a	n/a	n/a	n/a
n/a	"image-keyboard-response"	"130"	"321864"	"0.0-5.0-2.0-1.38"	"cq4hnm"	"600"	"1366"	"chrome"	"109.0.0"	"FALSE"	"Windows 10"	"60.72"	"013"	n/a	n/a	n/a	n/a	n/a	n/a	"Trial"	n/a	n/a	n/a	"550"	"arrowright"	n/a	"NULL"	"NULL"	"NULL"	"stimuli/VerticalHorizontal_-20.27143_-0.16217.png"	n/a	"VerticalHorizontal"	"arrowright"	"1220"	"TRUE"	"VerticalHorizontal"	"-20.27143000"	"-0.162170000"	"1"	"57"
n/a	"html-keyboard-response"	"131"	"323342"	"0.0-5.0-2.0-0.39"	"cq4hnm"	"600"	"1366"	"chrome"	"109.0.0"	"FALSE"	"Windows 10"	"60.72"	"013"	n/a	n/a	n/a	n/a	n/a	n/a	"fixation"	n/a	n/a	n/a	n/a	"NULL"	n/a	"NULL"	"NULL"	"NULL"	"<p style=\"color: black; font-size: 80px; padding-left: 33%; padding-right: 46%; padding-top: 35%; padding-bottom: 35%\">+</p>"	"1464"	n/a	n/a	n/a	n/a	n/a	n/a	n/a	n/a	n/a
n/a	"image-keyboard-response"	"132"	"323944"	"0.0-5.0-2.0-1.39"	"cq4hnm"	"600"	"1366"	"chrome"	"109.0.0"	"FALSE"	"Windows 10"	"60.72"	"013"	n/a	n/a	n/a	n/a	n/a	n/a	"Trial"	n/a	n/a	n/a	"601"	"arrowright"	n/a	"NULL"	"NULL"	"NULL"	"stimuli/VerticalHorizontal_3.30000_-0.0673.png"	n/a	"VerticalHorizontal"	"arrowright"	"1478"	"TRUE"	"VerticalHorizontal"	"3.3000000000"	"-0.067300000"	"1"	"58"
n/a	"html-keyboard-response"	"133"	"325009"	"0.0-5.0-2.0-0.40"	"cq4hnm"	"600"	"1366"	"chrome"	"109.0.0"	"FALSE"	"Windows 10"	"60.72"	"013"	n/a	n/a	n/a	n/a	n/a	n/a	"fixation"	n/a	n/a	n/a	n/a	"NULL"	n/a	"NULL"	"NULL"	"NULL"	"<p style=\"color: black; font-size: 80px; padding-left: 44%; padding-right: 33%; padding-top: 28%; padding-bottom: 7%\">+</p>"	"1044"	n/a	n/a	n/a	n/a	n/a	n/a	n/a	n/a	n/a
n/a	"image-keyboard-response"	"134"	"325641"	"0.0-5.0-2.0-1.40"	"cq4hnm"	"600"	"1366"	"chrome"	"109.0.0"	"FALSE"	"Windows 10"	"60.72"	"013"	n/a	n/a	n/a	n/a	n/a	n/a	"Trial"	n/a	n/a	n/a	"630"	"arrowright"	n/a	"NULL"	"NULL"	"NULL"	"stimuli/VerticalHorizontal_28.75714_0.10960.png"	n/a	"VerticalHorizontal"	"arrowleft"	"1065"	"FALSE"	"VerticalHorizontal"	"28.757140000"	"0.1096000000"	"1"	"59"
n/a	"html-keyboard-response"	"135"	"326877"	"0.0-5.0-2.0-0.41"	"cq4hnm"	"600"	"1366"	"chrome"	"109.0.0"	"FALSE"	"Windows 10"	"60.72"	"013"	n/a	n/a	n/a	n/a	n/a	n/a	"fixation"	n/a	n/a	n/a	n/a	"NULL"	n/a	"NULL"	"NULL"	"NULL"	"<p style=\"color: black; font-size: 80px; padding-left: 19%; padding-right: 45%; padding-top: 6%; padding-bottom: 35%\">+</p>"	"1223"	n/a	n/a	n/a	n/a	n/a	n/a	n/a	n/a	n/a
n/a	"image-keyboard-response"	"136"	"327566"	"0.0-5.0-2.0-1.41"	"cq4hnm"	"600"	"1366"	"chrome"	"109.0.0"	"FALSE"	"Windows 10"	"60.72"	"013"	n/a	n/a	n/a	n/a	n/a	n/a	"Trial"	n/a	n/a	n/a	"687"	"arrowright"	n/a	"NULL"	"NULL"	"NULL"	"stimuli/VerticalHorizontal_20.27143_0.22500.png"	n/a	"VerticalHorizontal"	"arrowleft"	"1236"	"FALSE"	"VerticalHorizontal"	"20.271430000"	"0.2250000000"	"1"	"60"
n/a	"html-keyboard-response"	"137"	"328820"	"0.0-5.0-2.0-0.42"	"cq4hnm"	"600"	"1366"	"chrome"	"109.0.0"	"FALSE"	"Windows 10"	"60.72"	"013"	n/a	n/a	n/a	n/a	n/a	n/a	"fixation"	n/a	n/a	n/a	n/a	"NULL"	n/a	"NULL"	"NULL"	"NULL"	"<p style=\"color: black; font-size: 80px; padding-left: 7%; padding-right: 12%; padding-top: 33%; padding-bottom: 6%\">+</p>"	"1237"	n/a	n/a	n/a	n/a	n/a	n/a	n/a	n/a	n/a
n/a	"image-keyboard-response"	"138"	"329432"	"0.0-5.0-2.0-1.42"	"cq4hnm"	"600"	"1366"	"chrome"	"109.0.0"	"FALSE"	"Windows 10"	"60.72"	"013"	n/a	n/a	n/a	n/a	n/a	n/a	"Trial"	n/a	n/a	n/a	"611"	"arrowright"	n/a	"NULL"	"NULL"	"NULL"	"stimuli/VerticalHorizontal_-20.27143_0.06730.png"	n/a	"VerticalHorizontal"	"arrowleft"	"1254"	"FALSE"	"VerticalHorizontal"	"-20.27143000"	"0.0673000000"	"1"	"61"
n/a	"html-keyboard-response"	"139"	"330484"	"0.0-5.0-2.0-0.43"	"cq4hnm"	"600"	"1366"	"chrome"	"109.0.0"	"FALSE"	"Windows 10"	"60.72"	"013"	n/a	n/a	n/a	n/a	n/a	n/a	"fixation"	n/a	n/a	n/a	n/a	"NULL"	n/a	"NULL"	"NULL"	"NULL"	"<p style=\"color: black; font-size: 80px; padding-left: 18%; padding-right: 20%; padding-top: 43%; padding-bottom: 47%\">+</p>"	"1036"	n/a	n/a	n/a	n/a	n/a	n/a	n/a	n/a	n/a
n/a	"image-keyboard-response"	"140"	"331046"	"0.0-5.0-2.0-1.43"	"cq4hnm"	"600"	"1366"	"chrome"	"109.0.0"	"FALSE"	"Windows 10"	"60.72"	"013"	n/a	n/a	n/a	n/a	n/a	n/a	"Trial"	n/a	n/a	n/a	"561"	"arrowleft"	n/a	"NULL"	"NULL"	"NULL"	"stimuli/VerticalHorizontal_28.75714_-0.0673.png"	n/a	"VerticalHorizontal"	"arrowright"	"1052"	"FALSE"	"VerticalHorizontal"	"28.757140000"	"-0.067300000"	"1"	"62"
n/a	"html-keyboard-response"	"141"	"332064"	"0.0-5.0-2.0-0.44"	"cq4hnm"	"600"	"1366"	"chrome"	"109.0.0"	"FALSE"	"Windows 10"	"60.72"	"013"	n/a	n/a	n/a	n/a	n/a	n/a	"fixation"	n/a	n/a	n/a	n/a	"NULL"	n/a	"NULL"	"NULL"	"NULL"	"<p style=\"color: black; font-size: 80px; padding-left: 29%; padding-right: 27%; padding-top: 19%; padding-bottom: 18%\">+</p>"	"1001"	n/a	n/a	n/a	n/a	n/a	n/a	n/a	n/a	n/a
n/a	"image-keyboard-response"	"142"	"332676"	"0.0-5.0-2.0-1.44"	"cq4hnm"	"600"	"1366"	"chrome"	"109.0.0"	"FALSE"	"Windows 10"	"60.72"	"013"	n/a	n/a	n/a	n/a	n/a	n/a	"Trial"	n/a	n/a	n/a	"609"	"arrowright"	n/a	"NULL"	"NULL"	"NULL"	"stimuli/VerticalHorizontal_28.75714_-0.16217.png"	n/a	"VerticalHorizontal"	"arrowright"	"1018"	"TRUE"	"VerticalHorizontal"	"28.757140000"	"-0.162170000"	"1"	"63"
n/a	"html-keyboard-response"	"143"	"334060"	"0.0-5.0-2.0-0.45"	"cq4hnm"	"600"	"1366"	"chrome"	"109.0.0"	"FALSE"	"Windows 10"	"60.72"	"013"	n/a	n/a	n/a	n/a	n/a	n/a	"fixation"	n/a	n/a	n/a	n/a	"NULL"	n/a	"NULL"	"NULL"	"NULL"	"<p style=\"color: black; font-size: 80px; padding-left: 30%; padding-right: 16%; padding-top: 44%; padding-bottom: 14%\">+</p>"	"1378"	n/a	n/a	n/a	n/a	n/a	n/a	n/a	n/a	n/a
n/a	"image-keyboard-response"	"144"	"334859"	"0.0-5.0-2.0-1.45"	"cq4hnm"	"600"	"1366"	"chrome"	"109.0.0"	"FALSE"	"Windows 10"	"60.72"	"013"	n/a	n/a	n/a	n/a	n/a	n/a	"Trial"	n/a	n/a	n/a	"798"	"arrowleft"	n/a	"NULL"	"NULL"	"NULL"	"stimuli/VerticalHorizontal_11.78571_0.16217.png"	n/a	"VerticalHorizontal"	"arrowleft"	"1384"	"TRUE"	"VerticalHorizontal"	"11.785710000"	"0.1621700000"	"1"	"64"
n/a	"html-keyboard-response"	"145"	"335943"	"0.0-5.0-2.0-0.46"	"cq4hnm"	"600"	"1366"	"chrome"	"109.0.0"	"FALSE"	"Windows 10"	"60.72"	"013"	n/a	n/a	n/a	n/a	n/a	n/a	"fixation"	n/a	n/a	n/a	n/a	"NULL"	n/a	"NULL"	"NULL"	"NULL"	"<p style=\"color: black; font-size: 80px; padding-left: 9%; padding-right: 20%; padding-top: 5%; padding-bottom: 9%\">+</p>"	"1076"	n/a	n/a	n/a	n/a	n/a	n/a	n/a	n/a	n/a
n/a	"image-keyboard-response"	"146"	"336670"	"0.0-5.0-2.0-1.46"	"cq4hnm"	"600"	"1366"	"chrome"	"109.0.0"	"FALSE"	"Windows 10"	"60.72"	"013"	n/a	n/a	n/a	n/a	n/a	n/a	"Trial"	n/a	n/a	n/a	"726"	"arrowright"	n/a	"NULL"	"NULL"	"NULL"	"stimuli/VerticalHorizontal_20.27143_0.16217.png"	n/a	"VerticalHorizontal"	"arrowleft"	"1084"	"FALSE"	"VerticalHorizontal"	"20.271430000"	"0.1621700000"	"1"	"65"
n/a	"html-keyboard-response"	"147"	"337982"	"0.0-5.0-2.0-0.47"	"cq4hnm"	"600"	"1366"	"chrome"	"109.0.0"	"FALSE"	"Windows 10"	"60.72"	"013"	n/a	n/a	n/a	n/a	n/a	n/a	"fixation"	n/a	n/a	n/a	n/a	"NULL"	n/a	"NULL"	"NULL"	"NULL"	"<p style=\"color: black; font-size: 80px; padding-left: 9%; padding-right: 33%; padding-top: 16%; padding-bottom: 20%\">+</p>"	"1298"	n/a	n/a	n/a	n/a	n/a	n/a	n/a	n/a	n/a
n/a	"image-keyboard-response"	"148"	"338537"	"0.0-5.0-2.0-1.47"	"cq4hnm"	"600"	"1366"	"chrome"	"109.0.0"	"FALSE"	"Windows 10"	"60.72"	"013"	n/a	n/a	n/a	n/a	n/a	n/a	"Trial"	n/a	n/a	n/a	"554"	"arrowright"	n/a	"NULL"	"NULL"	"NULL"	"stimuli/VerticalHorizontal_20.27143_-0.16217.png"	n/a	"VerticalHorizontal"	"arrowright"	"1312"	"TRUE"	"VerticalHorizontal"	"20.271430000"	"-0.162170000"	"1"	"66"
n/a	"html-keyboard-response"	"149"	"339607"	"0.0-5.0-2.0-0.48"	"cq4hnm"	"600"	"1366"	"chrome"	"109.0.0"	"FALSE"	"Windows 10"	"60.72"	"013"	n/a	n/a	n/a	n/a	n/a	n/a	"fixation"	n/a	n/a	n/a	n/a	"NULL"	n/a	"NULL"	"NULL"	"NULL"	"<p style=\"color: black; font-size: 80px; padding-left: 19%; padding-right: 10%; padding-top: 24%; padding-bottom: 34%\">+</p>"	"1050"	n/a	n/a	n/a	n/a	n/a	n/a	n/a	n/a	n/a
n/a	"image-keyboard-response"	"150"	"340258"	"0.0-5.0-2.0-1.48"	"cq4hnm"	"600"	"1366"	"chrome"	"109.0.0"	"FALSE"	"Windows 10"	"60.72"	"013"	n/a	n/a	n/a	n/a	n/a	n/a	"Trial"	n/a	n/a	n/a	"650"	"arrowleft"	n/a	"NULL"	"NULL"	"NULL"	"stimuli/VerticalHorizontal_-3.3000_0.06730.png"	n/a	"VerticalHorizontal"	"arrowleft"	"1070"	"TRUE"	"VerticalHorizontal"	"-3.300000000"	"0.0673000000"	"1"	"67"
n/a	"html-keyboard-response"	"151"	"341394"	"0.0-5.0-2.0-0.49"	"cq4hnm"	"600"	"1366"	"chrome"	"109.0.0"	"FALSE"	"Windows 10"	"60.72"	"013"	n/a	n/a	n/a	n/a	n/a	n/a	"fixation"	n/a	n/a	n/a	n/a	"NULL"	n/a	"NULL"	"NULL"	"NULL"	"<p style=\"color: black; font-size: 80px; padding-left: 49%; padding-right: 48%; padding-top: 47%; padding-bottom: 24%\">+</p>"	"1133"	n/a	n/a	n/a	n/a	n/a	n/a	n/a	n/a	n/a
n/a	"image-keyboard-response"	"152"	"341919"	"0.0-5.0-2.0-1.49"	"cq4hnm"	"600"	"1366"	"chrome"	"109.0.0"	"FALSE"	"Windows 10"	"60.72"	"013"	n/a	n/a	n/a	n/a	n/a	n/a	"Trial"	n/a	n/a	n/a	"524"	"arrowright"	n/a	"NULL"	"NULL"	"NULL"	"stimuli/VerticalHorizontal_-28.75714_-0.1096.png"	n/a	"VerticalHorizontal"	"arrowright"	"1136"	"TRUE"	"VerticalHorizontal"	"-28.75714000"	"-0.109600000"	"1"	"68"
n/a	"html-keyboard-response"	"153"	"343060"	"0.0-5.0-2.0-0.50"	"cq4hnm"	"600"	"1366"	"chrome"	"109.0.0"	"FALSE"	"Windows 10"	"60.72"	"013"	n/a	n/a	n/a	n/a	n/a	n/a	"fixation"	n/a	n/a	n/a	n/a	"NULL"	n/a	"NULL"	"NULL"	"NULL"	"<p style=\"color: black; font-size: 80px; padding-left: 2%; padding-right: 30%; padding-top: 46%; padding-bottom: 5%\">+</p>"	"1135"	n/a	n/a	n/a	n/a	n/a	n/a	n/a	n/a	n/a
n/a	"image-keyboard-response"	"154"	"343555"	"0.0-5.0-2.0-1.50"	"cq4hnm"	"600"	"1366"	"chrome"	"109.0.0"	"FALSE"	"Windows 10"	"60.72"	"013"	n/a	n/a	n/a	n/a	n/a	n/a	"Trial"	n/a	n/a	n/a	"494"	"arrowright"	n/a	"NULL"	"NULL"	"NULL"	"stimuli/VerticalHorizontal_-28.75714_-0.16217.png"	n/a	"VerticalHorizontal"	"arrowright"	"1141"	"TRUE"	"VerticalHorizontal"	"-28.75714000"	"-0.162170000"	"1"	"69"
n/a	"html-keyboard-response"	"155"	"344966"	"0.0-5.0-2.0-0.51"	"cq4hnm"	"600"	"1366"	"chrome"	"109.0.0"	"FALSE"	"Windows 10"	"60.72"	"013"	n/a	n/a	n/a	n/a	n/a	n/a	"fixation"	n/a	n/a	n/a	n/a	"NULL"	n/a	"NULL"	"NULL"	"NULL"	"<p style=\"color: black; font-size: 80px; padding-left: 5%; padding-right: 45%; padding-top: 45%; padding-bottom: 41%\">+</p>"	"1393"	n/a	n/a	n/a	n/a	n/a	n/a	n/a	n/a	n/a
n/a	"image-keyboard-response"	"156"	"345779"	"0.0-5.0-2.0-1.51"	"cq4hnm"	"600"	"1366"	"chrome"	"109.0.0"	"FALSE"	"Windows 10"	"60.72"	"013"	n/a	n/a	n/a	n/a	n/a	n/a	"Trial"	n/a	n/a	n/a	"811"	"arrowright"	n/a	"NULL"	"NULL"	"NULL"	"stimuli/VerticalHorizontal_-3.3000_-0.0673.png"	n/a	"VerticalHorizontal"	"arrowright"	"1411"	"TRUE"	"VerticalHorizontal"	"-3.300000000"	"-0.067300000"	"1"	"70"
n/a	"html-keyboard-response"	"157"	"347263"	"0.0-5.0-2.0-0.52"	"cq4hnm"	"600"	"1366"	"chrome"	"109.0.0"	"FALSE"	"Windows 10"	"60.72"	"013"	n/a	n/a	n/a	n/a	n/a	n/a	"fixation"	n/a	n/a	n/a	n/a	"NULL"	n/a	"NULL"	"NULL"	"NULL"	"<p style=\"color: black; font-size: 80px; padding-left: 30%; padding-right: 24%; padding-top: 17%; padding-bottom: 36%\">+</p>"	"1461"	n/a	n/a	n/a	n/a	n/a	n/a	n/a	n/a	n/a
n/a	"image-keyboard-response"	"158"	"347942"	"0.0-5.0-2.0-1.52"	"cq4hnm"	"600"	"1366"	"chrome"	"109.0.0"	"FALSE"	"Windows 10"	"60.72"	"013"	n/a	n/a	n/a	n/a	n/a	n/a	"Trial"	n/a	n/a	n/a	"678"	"arrowright"	n/a	"NULL"	"NULL"	"NULL"	"stimuli/VerticalHorizontal_11.78571_-0.1096.png"	n/a	"VerticalHorizontal"	"arrowright"	"1484"	"TRUE"	"VerticalHorizontal"	"11.785710000"	"-0.109600000"	"1"	"71"
n/a	"html-keyboard-response"	"159"	"349186"	"0.0-5.0-2.0-0.53"	"cq4hnm"	"600"	"1366"	"chrome"	"109.0.0"	"FALSE"	"Windows 10"	"60.72"	"013"	n/a	n/a	n/a	n/a	n/a	n/a	"fixation"	n/a	n/a	n/a	n/a	"NULL"	n/a	"NULL"	"NULL"	"NULL"	"<p style=\"color: black; font-size: 80px; padding-left: 47%; padding-right: 8%; padding-top: 43%; padding-bottom: 37%\">+</p>"	"1241"	n/a	n/a	n/a	n/a	n/a	n/a	n/a	n/a	n/a
n/a	"image-keyboard-response"	"160"	"349805"	"0.0-5.0-2.0-1.53"	"cq4hnm"	"600"	"1366"	"chrome"	"109.0.0"	"FALSE"	"Windows 10"	"60.72"	"013"	n/a	n/a	n/a	n/a	n/a	n/a	"Trial"	n/a	n/a	n/a	"617"	"arrowright"	n/a	"NULL"	"NULL"	"NULL"	"stimuli/VerticalHorizontal_-20.27143_-0.2250.png"	n/a	"VerticalHorizontal"	"arrowright"	"1244"	"TRUE"	"VerticalHorizontal"	"-20.27143000"	"-0.225000000"	"1"	"72"
n/a	"html-keyboard-response"	"161"	"351030"	"0.0-5.0-2.0-0.54"	"cq4hnm"	"600"	"1366"	"chrome"	"109.0.0"	"FALSE"	"Windows 10"	"60.72"	"013"	n/a	n/a	n/a	n/a	n/a	n/a	"fixation"	n/a	n/a	n/a	n/a	"NULL"	n/a	"NULL"	"NULL"	"NULL"	"<p style=\"color: black; font-size: 80px; padding-left: 12%; padding-right: 12%; padding-top: 35%; padding-bottom: 20%\">+</p>"	"1217"	n/a	n/a	n/a	n/a	n/a	n/a	n/a	n/a	n/a
n/a	"image-keyboard-response"	"162"	"351639"	"0.0-5.0-2.0-1.54"	"cq4hnm"	"600"	"1366"	"chrome"	"109.0.0"	"FALSE"	"Windows 10"	"60.72"	"013"	n/a	n/a	n/a	n/a	n/a	n/a	"Trial"	n/a	n/a	n/a	"608"	"arrowleft"	n/a	"NULL"	"NULL"	"NULL"	"stimuli/VerticalHorizontal_11.78571_0.22500.png"	n/a	"VerticalHorizontal"	"arrowleft"	"1225"	"TRUE"	"VerticalHorizontal"	"11.785710000"	"0.2250000000"	"1"	"73"
n/a	"html-keyboard-response"	"163"	"352798"	"0.0-5.0-2.0-0.55"	"cq4hnm"	"600"	"1366"	"chrome"	"109.0.0"	"FALSE"	"Windows 10"	"60.72"	"013"	n/a	n/a	n/a	n/a	n/a	n/a	"fixation"	n/a	n/a	n/a	n/a	"NULL"	n/a	"NULL"	"NULL"	"NULL"	"<p style=\"color: black; font-size: 80px; padding-left: 26%; padding-right: 6%; padding-top: 40%; padding-bottom: 35%\">+</p>"	"1144"	n/a	n/a	n/a	n/a	n/a	n/a	n/a	n/a	n/a
n/a	"image-keyboard-response"	"164"	"353304"	"0.0-5.0-2.0-1.55"	"cq4hnm"	"600"	"1366"	"chrome"	"109.0.0"	"FALSE"	"Windows 10"	"60.72"	"013"	n/a	n/a	n/a	n/a	n/a	n/a	"Trial"	n/a	n/a	n/a	"504"	"arrowright"	n/a	"NULL"	"NULL"	"NULL"	"stimuli/VerticalHorizontal_28.75714_0.06730.png"	n/a	"VerticalHorizontal"	"arrowleft"	"1159"	"FALSE"	"VerticalHorizontal"	"28.757140000"	"0.0673000000"	"1"	"74"
n/a	"html-keyboard-response"	"165"	"354326"	"0.0-5.0-2.0-0.56"	"cq4hnm"	"600"	"1366"	"chrome"	"109.0.0"	"FALSE"	"Windows 10"	"60.72"	"013"	n/a	n/a	n/a	n/a	n/a	n/a	"fixation"	n/a	n/a	n/a	n/a	"NULL"	n/a	"NULL"	"NULL"	"NULL"	"<p style=\"color: black; font-size: 80px; padding-left: 28%; padding-right: 31%; padding-top: 42%; padding-bottom: 22%\">+</p>"	"1015"	n/a	n/a	n/a	n/a	n/a	n/a	n/a	n/a	n/a
n/a	"image-keyboard-response"	"166"	"355070"	"0.0-5.0-2.0-1.56"	"cq4hnm"	"600"	"1366"	"chrome"	"109.0.0"	"FALSE"	"Windows 10"	"60.72"	"013"	n/a	n/a	n/a	n/a	n/a	n/a	"Trial"	n/a	n/a	n/a	"743"	"arrowleft"	n/a	"NULL"	"NULL"	"NULL"	"stimuli/VerticalHorizontal_-11.78571_0.16217.png"	n/a	"VerticalHorizontal"	"arrowleft"	"1022"	"TRUE"	"VerticalHorizontal"	"-11.78571000"	"0.1621700000"	"1"	"75"
n/a	"html-keyboard-response"	"167"	"356510"	"0.0-5.0-2.0-0.57"	"cq4hnm"	"600"	"1366"	"chrome"	"109.0.0"	"FALSE"	"Windows 10"	"60.72"	"013"	n/a	n/a	n/a	n/a	n/a	n/a	"fixation"	n/a	n/a	n/a	n/a	"NULL"	n/a	"NULL"	"NULL"	"NULL"	"<p style=\"color: black; font-size: 80px; padding-left: 15%; padding-right: 5%; padding-top: 14%; padding-bottom: 35%\">+</p>"	"1430"	n/a	n/a	n/a	n/a	n/a	n/a	n/a	n/a	n/a
n/a	"image-keyboard-response"	"168"	"357022"	"0.0-5.0-2.0-1.57"	"cq4hnm"	"600"	"1366"	"chrome"	"109.0.0"	"FALSE"	"Windows 10"	"60.72"	"013"	n/a	n/a	n/a	n/a	n/a	n/a	"Trial"	n/a	n/a	n/a	"511"	"arrowright"	n/a	"NULL"	"NULL"	"NULL"	"stimuli/VerticalHorizontal_-28.75714_-0.2250.png"	n/a	"VerticalHorizontal"	"arrowright"	"1440"	"TRUE"	"VerticalHorizontal"	"-28.75714000"	"-0.225000000"	"1"	"76"
n/a	"html-keyboard-response"	"169"	"358110"	"0.0-5.0-2.0-0.58"	"cq4hnm"	"600"	"1366"	"chrome"	"109.0.0"	"FALSE"	"Windows 10"	"60.72"	"013"	n/a	n/a	n/a	n/a	n/a	n/a	"fixation"	n/a	n/a	n/a	n/a	"NULL"	n/a	"NULL"	"NULL"	"NULL"	"<p style=\"color: black; font-size: 80px; padding-left: 41%; padding-right: 13%; padding-top: 14%; padding-bottom: 26%\">+</p>"	"1080"	n/a	n/a	n/a	n/a	n/a	n/a	n/a	n/a	n/a
n/a	"image-keyboard-response"	"170"	"358659"	"0.0-5.0-2.0-1.58"	"cq4hnm"	"600"	"1366"	"chrome"	"109.0.0"	"FALSE"	"Windows 10"	"60.72"	"013"	n/a	n/a	n/a	n/a	n/a	n/a	"Trial"	n/a	n/a	n/a	"547"	"arrowleft"	n/a	"NULL"	"NULL"	"NULL"	"stimuli/VerticalHorizontal_-3.3000_0.22500.png"	n/a	"VerticalHorizontal"	"arrowleft"	"1088"	"TRUE"	"VerticalHorizontal"	"-3.300000000"	"0.2250000000"	"1"	"77"
n/a	"html-keyboard-response"	"171"	"359885"	"0.0-5.0-2.0-0.59"	"cq4hnm"	"600"	"1366"	"chrome"	"109.0.0"	"FALSE"	"Windows 10"	"60.72"	"013"	n/a	n/a	n/a	n/a	n/a	n/a	"fixation"	n/a	n/a	n/a	n/a	"NULL"	n/a	"NULL"	"NULL"	"NULL"	"<p style=\"color: black; font-size: 80px; padding-left: 31%; padding-right: 28%; padding-top: 42%; padding-bottom: 42%\">+</p>"	"1212"	n/a	n/a	n/a	n/a	n/a	n/a	n/a	n/a	n/a
n/a	"image-keyboard-response"	"172"	"360546"	"0.0-5.0-2.0-1.59"	"cq4hnm"	"600"	"1366"	"chrome"	"109.0.0"	"FALSE"	"Windows 10"	"60.72"	"013"	n/a	n/a	n/a	n/a	n/a	n/a	"Trial"	n/a	n/a	n/a	"659"	"arrowright"	n/a	"NULL"	"NULL"	"NULL"	"stimuli/VerticalHorizontal_-11.78571_0.10960.png"	n/a	"VerticalHorizontal"	"arrowleft"	"1226"	"FALSE"	"VerticalHorizontal"	"-11.78571000"	"0.1096000000"	"1"	"78"
n/a	"html-keyboard-response"	"173"	"361686"	"0.0-5.0-2.0-0.60"	"cq4hnm"	"600"	"1366"	"chrome"	"109.0.0"	"FALSE"	"Windows 10"	"60.72"	"013"	n/a	n/a	n/a	n/a	n/a	n/a	"fixation"	n/a	n/a	n/a	n/a	"NULL"	n/a	"NULL"	"NULL"	"NULL"	"<p style=\"color: black; font-size: 80px; padding-left: 36%; padding-right: 16%; padding-top: 33%; padding-bottom: 38%\">+</p>"	"1118"	n/a	n/a	n/a	n/a	n/a	n/a	n/a	n/a	n/a
n/a	"image-keyboard-response"	"174"	"362258"	"0.0-5.0-2.0-1.60"	"cq4hnm"	"600"	"1366"	"chrome"	"109.0.0"	"FALSE"	"Windows 10"	"60.72"	"013"	n/a	n/a	n/a	n/a	n/a	n/a	"Trial"	n/a	n/a	n/a	"569"	"arrowright"	n/a	"NULL"	"NULL"	"NULL"	"stimuli/VerticalHorizontal_11.78571_0.06730.png"	n/a	"VerticalHorizontal"	"arrowleft"	"1140"	"FALSE"	"VerticalHorizontal"	"11.785710000"	"0.0673000000"	"1"	"79"
n/a	"html-keyboard-response"	"175"	"363267"	"0.0-5.0-2.0-0.61"	"cq4hnm"	"600"	"1366"	"chrome"	"109.0.0"	"FALSE"	"Windows 10"	"60.72"	"013"	n/a	n/a	n/a	n/a	n/a	n/a	"fixation"	n/a	n/a	n/a	n/a	"NULL"	n/a	"NULL"	"NULL"	"NULL"	"<p style=\"color: black; font-size: 80px; padding-left: 26%; padding-right: 18%; padding-top: 46%; padding-bottom: 45%\">+</p>"	"1003"	n/a	n/a	n/a	n/a	n/a	n/a	n/a	n/a	n/a
n/a	"image-keyboard-response"	"176"	"363766"	"0.0-5.0-2.0-1.61"	"cq4hnm"	"600"	"1366"	"chrome"	"109.0.0"	"FALSE"	"Windows 10"	"60.72"	"013"	n/a	n/a	n/a	n/a	n/a	n/a	"Trial"	n/a	n/a	n/a	"498"	"arrowleft"	n/a	"NULL"	"NULL"	"NULL"	"stimuli/VerticalHorizontal_-3.3000_0.16217.png"	n/a	"VerticalHorizontal"	"arrowleft"	"1009"	"TRUE"	"VerticalHorizontal"	"-3.300000000"	"0.1621700000"	"1"	"80"
n/a	"html-keyboard-response"	"177"	"364820"	"0.0-5.0-2.0-0.62"	"cq4hnm"	"600"	"1366"	"chrome"	"109.0.0"	"FALSE"	"Windows 10"	"60.72"	"013"	n/a	n/a	n/a	n/a	n/a	n/a	"fixation"	n/a	n/a	n/a	n/a	"NULL"	n/a	"NULL"	"NULL"	"NULL"	"<p style=\"color: black; font-size: 80px; padding-left: 42%; padding-right: 11%; padding-top: 49%; padding-bottom: 7%\">+</p>"	"1046"	n/a	n/a	n/a	n/a	n/a	n/a	n/a	n/a	n/a
n/a	"image-keyboard-response"	"178"	"365623"	"0.0-5.0-2.0-1.62"	"cq4hnm"	"600"	"1366"	"chrome"	"109.0.0"	"FALSE"	"Windows 10"	"60.72"	"013"	n/a	n/a	n/a	n/a	n/a	n/a	"Trial"	n/a	n/a	n/a	"800"	"arrowright"	n/a	"NULL"	"NULL"	"NULL"	"stimuli/VerticalHorizontal_28.75714_-0.2250.png"	n/a	"VerticalHorizontal"	"arrowright"	"1054"	"TRUE"	"VerticalHorizontal"	"28.757140000"	"-0.225000000"	"1"	"81"
n/a	"html-keyboard-response"	"179"	"367029"	"0.0-5.0-2.0-0.63"	"cq4hnm"	"600"	"1366"	"chrome"	"109.0.0"	"FALSE"	"Windows 10"	"60.72"	"013"	n/a	n/a	n/a	n/a	n/a	n/a	"fixation"	n/a	n/a	n/a	n/a	"NULL"	n/a	"NULL"	"NULL"	"NULL"	"<p style=\"color: black; font-size: 80px; padding-left: 8%; padding-right: 28%; padding-top: 15%; padding-bottom: 34%\">+</p>"	"1395"	n/a	n/a	n/a	n/a	n/a	n/a	n/a	n/a	n/a
n/a	"image-keyboard-response"	"180"	"367587"	"0.0-5.0-2.0-1.63"	"cq4hnm"	"600"	"1366"	"chrome"	"109.0.0"	"FALSE"	"Windows 10"	"60.72"	"013"	n/a	n/a	n/a	n/a	n/a	n/a	"Trial"	n/a	n/a	n/a	"557"	"arrowright"	n/a	"NULL"	"NULL"	"NULL"	"stimuli/VerticalHorizontal_20.27143_0.06730.png"	n/a	"VerticalHorizontal"	"arrowleft"	"1406"	"FALSE"	"VerticalHorizontal"	"20.271430000"	"0.0673000000"	"1"	"82"
n/a	"html-button-response"	"181"	"385171"	"0.0-5.0-3.0"	"cq4hnm"	"600"	"1366"	"chrome"	"109.0.0"	"FALSE"	"Windows 10"	"60.72"	"013"	n/a	n/a	n/a	n/a	n/a	n/a	"block_results"	n/a	n/a	n/a	"17581"	"0"	n/a	"NULL"	"NULL"	"NULL"	"<p>Your score for this illusion is <p style=\"color: black; font-size: 48px; font-weight: bold;\">79 %</p><hr><p>Can you do better in the next illusion?</p>"	n/a	n/a	n/a	n/a	n/a	n/a	n/a	n/a	n/a	n/a
"TRUE"	"preload"	"182"	"385392"	"0.0-6.0-0.0"	"cq4hnm"	"600"	"1366"	"chrome"	"109.0.0"	"FALSE"	"Windows 10"	"60.72"	"013"	n/a	n/a	n/a	n/a	n/a	n/a	n/a	n/a	n/a	n/a	n/a	"NULL"	"FALSE"	"list()"	"list()"	"list()"	n/a	n/a	n/a	n/a	n/a	n/a	n/a	n/a	n/a	n/a	n/a
n/a	"html-keyboard-response"	"183"	"389939"	"0.0-6.0-1.0"	"cq4hnm"	"600"	"1366"	"chrome"	"109.0.0"	"FALSE"	"Windows 10"	"60.72"	"013"	n/a	n/a	n/a	n/a	n/a	n/a	n/a	n/a	n/a	n/a	"4546"	"enter"	n/a	"NULL"	"NULL"	"NULL"	"<p><b>Part 2/6</b></p><p>In this part, two red circles will appear side by side on the screen.</p><p>Your task is to select which <b>red circle is bigger</b> in size as fast as you can, without making errors.</p><p>Don't get distracted by the surrounding black circles around the red circles!</p><p>Press <b>the LEFT or the RIGHT arrow</b> to indicate which is the bigger <b>red circle.</b></p><div style='float: center'><img src='materials/instructions/Ebbinghaus_Demo.png' height='300'></img><p><img src='utils/answer/answer_leftright_keyboard.PNG' height='150'></img></p><p class='small'>In this example, the correct answer is the <b>LEFT arrow</b>.</p></div><p>Are you ready? <b>Press ENTER to start</b></p>"	n/a	n/a	n/a	n/a	n/a	n/a	n/a	n/a	n/a	n/a
n/a	"html-keyboard-response"	"184"	"391799"	"0.0-6.0-2.0-0.0"	"cq4hnm"	"600"	"1366"	"chrome"	"109.0.0"	"FALSE"	"Windows 10"	"60.72"	"013"	n/a	n/a	n/a	n/a	n/a	n/a	"fixation"	n/a	n/a	n/a	n/a	"NULL"	n/a	"NULL"	"NULL"	"NULL"	"<p style=\"color: black; font-size: 80px; padding-left: 17%; padding-right: 39%; padding-top: 11%; padding-bottom: 6%\">+</p>"	"1336"	n/a	n/a	n/a	n/a	n/a	n/a	n/a	n/a	n/a
n/a	"image-keyboard-response"	"185"	"392370"	"0.0-6.0-2.0-1.0"	"cq4hnm"	"600"	"1366"	"chrome"	"109.0.0"	"FALSE"	"Windows 10"	"60.72"	"013"	n/a	n/a	n/a	n/a	n/a	n/a	"Trial"	n/a	n/a	n/a	"570"	"arrowright"	n/a	"NULL"	"NULL"	"NULL"	"stimuli/Ebbinghaus_0.61429_-0.15857.png"	n/a	"Ebbinghaus"	"arrowright"	"1860"	"TRUE"	"Ebbinghaus"	"0.6142900000"	"-0.158570000"	"2"	"1"
n/a	"html-keyboard-response"	"186"	"393730"	"0.0-6.0-2.0-0.1"	"cq4hnm"	"600"	"1366"	"chrome"	"109.0.0"	"FALSE"	"Windows 10"	"60.72"	"013"	n/a	n/a	n/a	n/a	n/a	n/a	"fixation"	n/a	n/a	n/a	n/a	"NULL"	n/a	"NULL"	"NULL"	"NULL"	"<p style=\"color: black; font-size: 80px; padding-left: 44%; padding-right: 31%; padding-top: 9%; padding-bottom: 50%\">+</p>"	"1357"	n/a	n/a	n/a	n/a	n/a	n/a	n/a	n/a	n/a
n/a	"image-keyboard-response"	"187"	"394296"	"0.0-6.0-2.0-1.1"	"cq4hnm"	"600"	"1366"	"chrome"	"109.0.0"	"FALSE"	"Windows 10"	"60.72"	"013"	n/a	n/a	n/a	n/a	n/a	n/a	"Trial"	n/a	n/a	n/a	"566"	"arrowleft"	n/a	"NULL"	"NULL"	"NULL"	"stimuli/Ebbinghaus_-0.35714_-0.15857.png"	n/a	"Ebbinghaus"	"arrowright"	"1360"	"FALSE"	"Ebbinghaus"	"-0.357140000"	"-0.158570000"	"2"	"2"
n/a	"html-keyboard-response"	"188"	"395626"	"0.0-6.0-2.0-0.2"	"cq4hnm"	"600"	"1366"	"chrome"	"109.0.0"	"FALSE"	"Windows 10"	"60.72"	"013"	n/a	n/a	n/a	n/a	n/a	n/a	"fixation"	n/a	n/a	n/a	n/a	"NULL"	n/a	"NULL"	"NULL"	"NULL"	"<p style=\"color: black; font-size: 80px; padding-left: 1%; padding-right: 26%; padding-top: 2%; padding-bottom: 46%\">+</p>"	"1322"	n/a	n/a	n/a	n/a	n/a	n/a	n/a	n/a	n/a
n/a	"image-keyboard-response"	"189"	"396166"	"0.0-6.0-2.0-1.2"	"cq4hnm"	"600"	"1366"	"chrome"	"109.0.0"	"FALSE"	"Windows 10"	"60.72"	"013"	n/a	n/a	n/a	n/a	n/a	n/a	"Trial"	n/a	n/a	n/a	"538"	"arrowright"	n/a	"NULL"	"NULL"	"NULL"	"stimuli/Ebbinghaus_0.87143_-0.11071.png"	n/a	"Ebbinghaus"	"arrowright"	"1330"	"TRUE"	"Ebbinghaus"	"0.8714300000"	"-0.110710000"	"2"	"3"
n/a	"html-keyboard-response"	"190"	"397355"	"0.0-6.0-2.0-0.3"	"cq4hnm"	"600"	"1366"	"chrome"	"109.0.0"	"FALSE"	"Windows 10"	"60.72"	"013"	n/a	n/a	n/a	n/a	n/a	n/a	"fixation"	n/a	n/a	n/a	n/a	"NULL"	n/a	"NULL"	"NULL"	"NULL"	"<p style=\"color: black; font-size: 80px; padding-left: 2%; padding-right: 13%; padding-top: 30%; padding-bottom: 38%\">+</p>"	"1170"	n/a	n/a	n/a	n/a	n/a	n/a	n/a	n/a	n/a
n/a	"image-keyboard-response"	"191"	"397886"	"0.0-6.0-2.0-1.3"	"cq4hnm"	"600"	"1366"	"chrome"	"109.0.0"	"FALSE"	"Windows 10"	"60.72"	"013"	n/a	n/a	n/a	n/a	n/a	n/a	"Trial"	n/a	n/a	n/a	"530"	"arrowleft"	n/a	"NULL"	"NULL"	"NULL"	"stimuli/Ebbinghaus_-0.1000_0.15857.png"	n/a	"Ebbinghaus"	"arrowleft"	"1189"	"TRUE"	"Ebbinghaus"	"-0.100000000"	"0.1585700000"	"2"	"4"
n/a	"html-keyboard-response"	"192"	"398906"	"0.0-6.0-2.0-0.4"	"cq4hnm"	"600"	"1366"	"chrome"	"109.0.0"	"FALSE"	"Windows 10"	"60.72"	"013"	n/a	n/a	n/a	n/a	n/a	n/a	"fixation"	n/a	n/a	n/a	n/a	"NULL"	n/a	"NULL"	"NULL"	"NULL"	"<p style=\"color: black; font-size: 80px; padding-left: 21%; padding-right: 42%; padding-top: 4%; padding-bottom: 4%\">+</p>"	"1014"	n/a	n/a	n/a	n/a	n/a	n/a	n/a	n/a	n/a
n/a	"image-keyboard-response"	"193"	"399769"	"0.0-6.0-2.0-1.4"	"cq4hnm"	"600"	"1366"	"chrome"	"109.0.0"	"FALSE"	"Windows 10"	"60.72"	"013"	n/a	n/a	n/a	n/a	n/a	n/a	"Trial"	n/a	n/a	n/a	"862"	"arrowright"	n/a	"NULL"	"NULL"	"NULL"	"stimuli/Ebbinghaus_-0.1000_0.11071.png"	n/a	"Ebbinghaus"	"arrowleft"	"1020"	"FALSE"	"Ebbinghaus"	"-0.100000000"	"0.1107100000"	"2"	"5"
n/a	"html-keyboard-response"	"194"	"400894"	"0.0-6.0-2.0-0.5"	"cq4hnm"	"600"	"1366"	"chrome"	"109.0.0"	"FALSE"	"Windows 10"	"60.72"	"013"	n/a	n/a	n/a	n/a	n/a	n/a	"fixation"	n/a	n/a	n/a	n/a	"NULL"	n/a	"NULL"	"NULL"	"NULL"	"<p style=\"color: black; font-size: 80px; padding-left: 29%; padding-right: 33%; padding-top: 28%; padding-bottom: 10%\">+</p>"	"1119"	n/a	n/a	n/a	n/a	n/a	n/a	n/a	n/a	n/a
n/a	"image-keyboard-response"	"195"	"401668"	"0.0-6.0-2.0-1.5"	"cq4hnm"	"600"	"1366"	"chrome"	"109.0.0"	"FALSE"	"Windows 10"	"60.72"	"013"	n/a	n/a	n/a	n/a	n/a	n/a	"Trial"	n/a	n/a	n/a	"773"	"arrowleft"	n/a	"NULL"	"NULL"	"NULL"	"stimuli/Ebbinghaus_0.10000_-0.2800.png"	n/a	"Ebbinghaus"	"arrowright"	"1125"	"FALSE"	"Ebbinghaus"	"0.1000000000"	"-0.280000000"	"2"	"6"
n/a	"html-keyboard-response"	"196"	"403077"	"0.0-6.0-2.0-0.6"	"cq4hnm"	"600"	"1366"	"chrome"	"109.0.0"	"FALSE"	"Windows 10"	"60.72"	"013"	n/a	n/a	n/a	n/a	n/a	n/a	"fixation"	n/a	n/a	n/a	n/a	"NULL"	n/a	"NULL"	"NULL"	"NULL"	"<p style=\"color: black; font-size: 80px; padding-left: 5%; padding-right: 29%; padding-top: 12%; padding-bottom: 16%\">+</p>"	"1398"	n/a	n/a	n/a	n/a	n/a	n/a	n/a	n/a	n/a
n/a	"image-keyboard-response"	"197"	"403751"	"0.0-6.0-2.0-1.6"	"cq4hnm"	"600"	"1366"	"chrome"	"109.0.0"	"FALSE"	"Windows 10"	"60.72"	"013"	n/a	n/a	n/a	n/a	n/a	n/a	"Trial"	n/a	n/a	n/a	"673"	"arrowright"	n/a	"NULL"	"NULL"	"NULL"	"stimuli/Ebbinghaus_-0.1000_-0.15857.png"	n/a	"Ebbinghaus"	"arrowright"	"1409"	"TRUE"	"Ebbinghaus"	"-0.100000000"	"-0.158570000"	"2"	"7"
n/a	"html-keyboard-response"	"198"	"404889"	"0.0-6.0-2.0-0.7"	"cq4hnm"	"600"	"1366"	"chrome"	"109.0.0"	"FALSE"	"Windows 10"	"60.72"	"013"	n/a	n/a	n/a	n/a	n/a	n/a	"fixation"	n/a	n/a	n/a	n/a	"NULL"	n/a	"NULL"	"NULL"	"NULL"	"<p style=\"color: black; font-size: 80px; padding-left: 38%; padding-right: 8%; padding-top: 16%; padding-bottom: 41%\">+</p>"	"1135"	n/a	n/a	n/a	n/a	n/a	n/a	n/a	n/a	n/a
n/a	"image-keyboard-response"	"199"	"405384"	"0.0-6.0-2.0-1.7"	"cq4hnm"	"600"	"1366"	"chrome"	"109.0.0"	"FALSE"	"Windows 10"	"60.72"	"013"	n/a	n/a	n/a	n/a	n/a	n/a	"Trial"	n/a	n/a	n/a	"494"	"arrowleft"	n/a	"NULL"	"NULL"	"NULL"	"stimuli/Ebbinghaus_0.61429_0.11071.png"	n/a	"Ebbinghaus"	"arrowleft"	"1138"	"TRUE"	"Ebbinghaus"	"0.6142900000"	"0.1107100000"	"2"	"8"
n/a	"html-keyboard-response"	"200"	"406762"	"0.0-6.0-2.0-0.8"	"cq4hnm"	"600"	"1366"	"chrome"	"109.0.0"	"FALSE"	"Windows 10"	"60.72"	"013"	n/a	n/a	n/a	n/a	n/a	n/a	"fixation"	n/a	n/a	n/a	n/a	"NULL"	n/a	"NULL"	"NULL"	"NULL"	"<p style=\"color: black; font-size: 80px; padding-left: 34%; padding-right: 44%; padding-top: 39%; padding-bottom: 7%\">+</p>"	"1371"	n/a	n/a	n/a	n/a	n/a	n/a	n/a	n/a	n/a
n/a	"image-keyboard-response"	"201"	"407416"	"0.0-6.0-2.0-1.8"	"cq4hnm"	"600"	"1366"	"chrome"	"109.0.0"	"FALSE"	"Windows 10"	"60.72"	"013"	n/a	n/a	n/a	n/a	n/a	n/a	"Trial"	n/a	n/a	n/a	"653"	"arrowright"	n/a	"NULL"	"NULL"	"NULL"	"stimuli/Ebbinghaus_0.10000_-0.11071.png"	n/a	"Ebbinghaus"	"arrowright"	"1378"	"TRUE"	"Ebbinghaus"	"0.1000000000"	"-0.110710000"	"2"	"9"
n/a	"html-keyboard-response"	"202"	"408642"	"0.0-6.0-2.0-0.9"	"cq4hnm"	"600"	"1366"	"chrome"	"109.0.0"	"FALSE"	"Windows 10"	"60.72"	"013"	n/a	n/a	n/a	n/a	n/a	n/a	"fixation"	n/a	n/a	n/a	n/a	"NULL"	n/a	"NULL"	"NULL"	"NULL"	"<p style=\"color: black; font-size: 80px; padding-left: 14%; padding-right: 30%; padding-top: 50%; padding-bottom: 47%\">+</p>"	"1223"	n/a	n/a	n/a	n/a	n/a	n/a	n/a	n/a	n/a
n/a	"image-keyboard-response"	"203"	"409227"	"0.0-6.0-2.0-1.9"	"cq4hnm"	"600"	"1366"	"chrome"	"109.0.0"	"FALSE"	"Windows 10"	"60.72"	"013"	n/a	n/a	n/a	n/a	n/a	n/a	"Trial"	n/a	n/a	n/a	"584"	"arrowleft"	n/a	"NULL"	"NULL"	"NULL"	"stimuli/Ebbinghaus_0.35714_0.15857.png"	n/a	"Ebbinghaus"	"arrowleft"	"1226"	"TRUE"	"Ebbinghaus"	"0.3571400000"	"0.1585700000"	"2"	"10"
n/a	"html-keyboard-response"	"204"	"410605"	"0.0-6.0-2.0-0.10"	"cq4hnm"	"600"	"1366"	"chrome"	"109.0.0"	"FALSE"	"Windows 10"	"60.72"	"013"	n/a	n/a	n/a	n/a	n/a	n/a	"fixation"	n/a	n/a	n/a	n/a	"NULL"	n/a	"NULL"	"NULL"	"NULL"	"<p style=\"color: black; font-size: 80px; padding-left: 1%; padding-right: 30%; padding-top: 32%; padding-bottom: 13%\">+</p>"	"1369"	n/a	n/a	n/a	n/a	n/a	n/a	n/a	n/a	n/a
n/a	"image-keyboard-response"	"205"	"411119"	"0.0-6.0-2.0-1.10"	"cq4hnm"	"600"	"1366"	"chrome"	"109.0.0"	"FALSE"	"Windows 10"	"60.72"	"013"	n/a	n/a	n/a	n/a	n/a	n/a	"Trial"	n/a	n/a	n/a	"513"	"arrowleft"	n/a	"NULL"	"NULL"	"NULL"	"stimuli/Ebbinghaus_-0.35714_-0.11071.png"	n/a	"Ebbinghaus"	"arrowright"	"1378"	"FALSE"	"Ebbinghaus"	"-0.357140000"	"-0.110710000"	"2"	"11"
n/a	"html-keyboard-response"	"206"	"412486"	"0.0-6.0-2.0-0.11"	"cq4hnm"	"600"	"1366"	"chrome"	"109.0.0"	"FALSE"	"Windows 10"	"60.72"	"013"	n/a	n/a	n/a	n/a	n/a	n/a	"fixation"	n/a	n/a	n/a	n/a	"NULL"	n/a	"NULL"	"NULL"	"NULL"	"<p style=\"color: black; font-size: 80px; padding-left: 21%; padding-right: 19%; padding-top: 43%; padding-bottom: 40%\">+</p>"	"1356"	n/a	n/a	n/a	n/a	n/a	n/a	n/a	n/a	n/a
n/a	"image-keyboard-response"	"207"	"413201"	"0.0-6.0-2.0-1.11"	"cq4hnm"	"600"	"1366"	"chrome"	"109.0.0"	"FALSE"	"Windows 10"	"60.72"	"013"	n/a	n/a	n/a	n/a	n/a	n/a	"Trial"	n/a	n/a	n/a	"713"	"arrowright"	n/a	"NULL"	"NULL"	"NULL"	"stimuli/Ebbinghaus_-0.1000_-0.2800.png"	n/a	"Ebbinghaus"	"arrowright"	"1367"	"TRUE"	"Ebbinghaus"	"-0.100000000"	"-0.280000000"	"2"	"12"
n/a	"html-keyboard-response"	"208"	"414326"	"0.0-6.0-2.0-0.12"	"cq4hnm"	"600"	"1366"	"chrome"	"109.0.0"	"FALSE"	"Windows 10"	"60.72"	"013"	n/a	n/a	n/a	n/a	n/a	n/a	"fixation"	n/a	n/a	n/a	n/a	"NULL"	n/a	"NULL"	"NULL"	"NULL"	"<p style=\"color: black; font-size: 80px; padding-left: 2%; padding-right: 8%; padding-top: 42%; padding-bottom: 6%\">+</p>"	"1105"	n/a	n/a	n/a	n/a	n/a	n/a	n/a	n/a	n/a
n/a	"image-keyboard-response"	"209"	"414969"	"0.0-6.0-2.0-1.12"	"cq4hnm"	"600"	"1366"	"chrome"	"109.0.0"	"FALSE"	"Windows 10"	"60.72"	"013"	n/a	n/a	n/a	n/a	n/a	n/a	"Trial"	n/a	n/a	n/a	"640"	"arrowleft"	n/a	"NULL"	"NULL"	"NULL"	"stimuli/Ebbinghaus_0.87143_0.11071.png"	n/a	"Ebbinghaus"	"arrowleft"	"1125"	"TRUE"	"Ebbinghaus"	"0.8714300000"	"0.1107100000"	"2"	"13"
n/a	"html-keyboard-response"	"210"	"416256"	"0.0-6.0-2.0-0.13"	"cq4hnm"	"600"	"1366"	"chrome"	"109.0.0"	"FALSE"	"Windows 10"	"60.72"	"013"	n/a	n/a	n/a	n/a	n/a	n/a	"fixation"	n/a	n/a	n/a	n/a	"NULL"	n/a	"NULL"	"NULL"	"NULL"	"<p style=\"color: black; font-size: 80px; padding-left: 31%; padding-right: 4%; padding-top: 48%; padding-bottom: 1%\">+</p>"	"1277"	n/a	n/a	n/a	n/a	n/a	n/a	n/a	n/a	n/a
n/a	"image-keyboard-response"	"211"	"416976"	"0.0-6.0-2.0-1.13"	"cq4hnm"	"600"	"1366"	"chrome"	"109.0.0"	"FALSE"	"Windows 10"	"60.72"	"013"	n/a	n/a	n/a	n/a	n/a	n/a	"Trial"	n/a	n/a	n/a	"718"	"arrowright"	n/a	"NULL"	"NULL"	"NULL"	"stimuli/Ebbinghaus_-0.1000_-0.11071.png"	n/a	"Ebbinghaus"	"arrowright"	"1287"	"TRUE"	"Ebbinghaus"	"-0.100000000"	"-0.110710000"	"2"	"14"
n/a	"html-keyboard-response"	"212"	"418232"	"0.0-6.0-2.0-0.14"	"cq4hnm"	"600"	"1366"	"chrome"	"109.0.0"	"FALSE"	"Windows 10"	"60.72"	"013"	n/a	n/a	n/a	n/a	n/a	n/a	"fixation"	n/a	n/a	n/a	n/a	"NULL"	n/a	"NULL"	"NULL"	"NULL"	"<p style=\"color: black; font-size: 80px; padding-left: 37%; padding-right: 42%; padding-top: 39%; padding-bottom: 20%\">+</p>"	"1242"	n/a	n/a	n/a	n/a	n/a	n/a	n/a	n/a	n/a
n/a	"image-keyboard-response"	"213"	"418763"	"0.0-6.0-2.0-1.14"	"cq4hnm"	"600"	"1366"	"chrome"	"109.0.0"	"FALSE"	"Windows 10"	"60.72"	"013"	n/a	n/a	n/a	n/a	n/a	n/a	"Trial"	n/a	n/a	n/a	"530"	"arrowleft"	n/a	"NULL"	"NULL"	"NULL"	"stimuli/Ebbinghaus_0.61429_0.21500.png"	n/a	"Ebbinghaus"	"arrowleft"	"1256"	"TRUE"	"Ebbinghaus"	"0.6142900000"	"0.2150000000"	"2"	"15"
n/a	"html-keyboard-response"	"214"	"420114"	"0.0-6.0-2.0-0.15"	"cq4hnm"	"600"	"1366"	"chrome"	"109.0.0"	"FALSE"	"Windows 10"	"60.72"	"013"	n/a	n/a	n/a	n/a	n/a	n/a	"fixation"	n/a	n/a	n/a	n/a	"NULL"	n/a	"NULL"	"NULL"	"NULL"	"<p style=\"color: black; font-size: 80px; padding-left: 48%; padding-right: 24%; padding-top: 48%; padding-bottom: 36%\">+</p>"	"1341"	n/a	n/a	n/a	n/a	n/a	n/a	n/a	n/a	n/a
n/a	"image-keyboard-response"	"215"	"420623"	"0.0-6.0-2.0-1.15"	"cq4hnm"	"600"	"1366"	"chrome"	"109.0.0"	"FALSE"	"Windows 10"	"60.72"	"013"	n/a	n/a	n/a	n/a	n/a	n/a	"Trial"	n/a	n/a	n/a	"508"	"arrowleft"	n/a	"NULL"	"NULL"	"NULL"	"stimuli/Ebbinghaus_-0.61429_-0.15857.png"	n/a	"Ebbinghaus"	"arrowright"	"1351"	"FALSE"	"Ebbinghaus"	"-0.614290000"	"-0.158570000"	"2"	"16"
n/a	"html-keyboard-response"	"216"	"421931"	"0.0-6.0-2.0-0.16"	"cq4hnm"	"600"	"1366"	"chrome"	"109.0.0"	"FALSE"	"Windows 10"	"60.72"	"013"	n/a	n/a	n/a	n/a	n/a	n/a	"fixation"	n/a	n/a	n/a	n/a	"NULL"	n/a	"NULL"	"NULL"	"NULL"	"<p style=\"color: black; font-size: 80px; padding-left: 45%; padding-right: 25%; padding-top: 50%; padding-bottom: 10%\">+</p>"	"1303"	n/a	n/a	n/a	n/a	n/a	n/a	n/a	n/a	n/a
n/a	"image-keyboard-response"	"217"	"422716"	"0.0-6.0-2.0-1.16"	"cq4hnm"	"600"	"1366"	"chrome"	"109.0.0"	"FALSE"	"Windows 10"	"60.72"	"013"	n/a	n/a	n/a	n/a	n/a	n/a	"Trial"	n/a	n/a	n/a	"784"	"arrowleft"	n/a	"NULL"	"NULL"	"NULL"	"stimuli/Ebbinghaus_-0.61429_-0.2800.png"	n/a	"Ebbinghaus"	"arrowright"	"1308"	"FALSE"	"Ebbinghaus"	"-0.614290000"	"-0.280000000"	"2"	"17"
n/a	"html-keyboard-response"	"218"	"423892"	"0.0-6.0-2.0-0.17"	"cq4hnm"	"600"	"1366"	"chrome"	"109.0.0"	"FALSE"	"Windows 10"	"60.72"	"013"	n/a	n/a	n/a	n/a	n/a	n/a	"fixation"	n/a	n/a	n/a	n/a	"NULL"	n/a	"NULL"	"NULL"	"NULL"	"<p style=\"color: black; font-size: 80px; padding-left: 24%; padding-right: 17%; padding-top: 26%; padding-bottom: 26%\">+</p>"	"1166"	n/a	n/a	n/a	n/a	n/a	n/a	n/a	n/a	n/a
n/a	"image-keyboard-response"	"219"	"424439"	"0.0-6.0-2.0-1.17"	"cq4hnm"	"600"	"1366"	"chrome"	"109.0.0"	"FALSE"	"Windows 10"	"60.72"	"013"	n/a	n/a	n/a	n/a	n/a	n/a	"Trial"	n/a	n/a	n/a	"546"	"arrowright"	n/a	"NULL"	"NULL"	"NULL"	"stimuli/Ebbinghaus_0.61429_-0.2800.png"	n/a	"Ebbinghaus"	"arrowright"	"1176"	"TRUE"	"Ebbinghaus"	"0.6142900000"	"-0.280000000"	"2"	"18"
n/a	"html-keyboard-response"	"220"	"425957"	"0.0-6.0-2.0-0.18"	"cq4hnm"	"600"	"1366"	"chrome"	"109.0.0"	"FALSE"	"Windows 10"	"60.72"	"013"	n/a	n/a	n/a	n/a	n/a	n/a	"fixation"	n/a	n/a	n/a	n/a	"NULL"	n/a	"NULL"	"NULL"	"NULL"	"<p style=\"color: black; font-size: 80px; padding-left: 43%; padding-right: 12%; padding-top: 15%; padding-bottom: 14%\">+</p>"	"1498"	n/a	n/a	n/a	n/a	n/a	n/a	n/a	n/a	n/a
n/a	"image-keyboard-response"	"221"	"426638"	"0.0-6.0-2.0-1.18"	"cq4hnm"	"600"	"1366"	"chrome"	"109.0.0"	"FALSE"	"Windows 10"	"60.72"	"013"	n/a	n/a	n/a	n/a	n/a	n/a	"Trial"	n/a	n/a	n/a	"681"	"arrowright"	n/a	"NULL"	"NULL"	"NULL"	"stimuli/Ebbinghaus_0.35714_-0.15857.png"	n/a	"Ebbinghaus"	"arrowright"	"1518"	"TRUE"	"Ebbinghaus"	"0.3571400000"	"-0.158570000"	"2"	"19"
n/a	"html-keyboard-response"	"222"	"428124"	"0.0-6.0-2.0-0.19"	"cq4hnm"	"600"	"1366"	"chrome"	"109.0.0"	"FALSE"	"Windows 10"	"60.72"	"013"	n/a	n/a	n/a	n/a	n/a	n/a	"fixation"	n/a	n/a	n/a	n/a	"NULL"	n/a	"NULL"	"NULL"	"NULL"	"<p style=\"color: black; font-size: 80px; padding-left: 44%; padding-right: 28%; padding-top: 5%; padding-bottom: 18%\">+</p>"	"1477"	n/a	n/a	n/a	n/a	n/a	n/a	n/a	n/a	n/a
n/a	"image-keyboard-response"	"223"	"428618"	"0.0-6.0-2.0-1.19"	"cq4hnm"	"600"	"1366"	"chrome"	"109.0.0"	"FALSE"	"Windows 10"	"60.72"	"013"	n/a	n/a	n/a	n/a	n/a	n/a	"Trial"	n/a	n/a	n/a	"493"	"arrowright"	n/a	"NULL"	"NULL"	"NULL"	"stimuli/Ebbinghaus_-0.87143_0.11071.png"	n/a	"Ebbinghaus"	"arrowleft"	"1486"	"FALSE"	"Ebbinghaus"	"-0.871430000"	"0.1107100000"	"2"	"20"
n/a	"html-keyboard-response"	"224"	"429803"	"0.0-6.0-2.0-0.20"	"cq4hnm"	"600"	"1366"	"chrome"	"109.0.0"	"FALSE"	"Windows 10"	"60.72"	"013"	n/a	n/a	n/a	n/a	n/a	n/a	"fixation"	n/a	n/a	n/a	n/a	"NULL"	n/a	"NULL"	"NULL"	"NULL"	"<p style=\"color: black; font-size: 80px; padding-left: 36%; padding-right: 48%; padding-top: 40%; padding-bottom: 32%\">+</p>"	"1174"	n/a	n/a	n/a	n/a	n/a	n/a	n/a	n/a	n/a
n/a	"image-keyboard-response"	"225"	"430519"	"0.0-6.0-2.0-1.20"	"cq4hnm"	"600"	"1366"	"chrome"	"109.0.0"	"FALSE"	"Windows 10"	"60.72"	"013"	n/a	n/a	n/a	n/a	n/a	n/a	"Trial"	n/a	n/a	n/a	"714"	"arrowright"	n/a	"NULL"	"NULL"	"NULL"	"stimuli/Ebbinghaus_0.35714_-0.11071.png"	n/a	"Ebbinghaus"	"arrowright"	"1185"	"TRUE"	"Ebbinghaus"	"0.3571400000"	"-0.110710000"	"2"	"21"
n/a	"html-keyboard-response"	"226"	"431571"	"0.0-6.0-2.0-0.21"	"cq4hnm"	"600"	"1366"	"chrome"	"109.0.0"	"FALSE"	"Windows 10"	"60.72"	"013"	n/a	n/a	n/a	n/a	n/a	n/a	"fixation"	n/a	n/a	n/a	n/a	"NULL"	n/a	"NULL"	"NULL"	"NULL"	"<p style=\"color: black; font-size: 80px; padding-left: 38%; padding-right: 24%; padding-top: 1%; padding-bottom: 12%\">+</p>"	"1036"	n/a	n/a	n/a	n/a	n/a	n/a	n/a	n/a	n/a
n/a	"image-keyboard-response"	"227"	"432239"	"0.0-6.0-2.0-1.21"	"cq4hnm"	"600"	"1366"	"chrome"	"109.0.0"	"FALSE"	"Windows 10"	"60.72"	"013"	n/a	n/a	n/a	n/a	n/a	n/a	"Trial"	n/a	n/a	n/a	"667"	"arrowleft"	n/a	"NULL"	"NULL"	"NULL"	"stimuli/Ebbinghaus_0.35714_0.11071.png"	n/a	"Ebbinghaus"	"arrowleft"	"1052"	"TRUE"	"Ebbinghaus"	"0.3571400000"	"0.1107100000"	"2"	"22"
n/a	"html-keyboard-response"	"228"	"433598"	"0.0-6.0-2.0-0.22"	"cq4hnm"	"600"	"1366"	"chrome"	"109.0.0"	"FALSE"	"Windows 10"	"60.72"	"013"	n/a	n/a	n/a	n/a	n/a	n/a	"fixation"	n/a	n/a	n/a	n/a	"NULL"	n/a	"NULL"	"NULL"	"NULL"	"<p style=\"color: black; font-size: 80px; padding-left: 4%; padding-right: 6%; padding-top: 4%; padding-bottom: 35%\">+</p>"	"1351"	n/a	n/a	n/a	n/a	n/a	n/a	n/a	n/a	n/a
n/a	"image-keyboard-response"	"229"	"434208"	"0.0-6.0-2.0-1.22"	"cq4hnm"	"600"	"1366"	"chrome"	"109.0.0"	"FALSE"	"Windows 10"	"60.72"	"013"	n/a	n/a	n/a	n/a	n/a	n/a	"Trial"	n/a	n/a	n/a	"608"	"arrowleft"	n/a	"NULL"	"NULL"	"NULL"	"stimuli/Ebbinghaus_-0.35714_-0.2800.png"	n/a	"Ebbinghaus"	"arrowright"	"1359"	"FALSE"	"Ebbinghaus"	"-0.357140000"	"-0.280000000"	"2"	"23"
n/a	"html-keyboard-response"	"230"	"435357"	"0.0-6.0-2.0-0.23"	"cq4hnm"	"600"	"1366"	"chrome"	"109.0.0"	"FALSE"	"Windows 10"	"60.72"	"013"	n/a	n/a	n/a	n/a	n/a	n/a	"fixation"	n/a	n/a	n/a	n/a	"NULL"	n/a	"NULL"	"NULL"	"NULL"	"<p style=\"color: black; font-size: 80px; padding-left: 49%; padding-right: 41%; padding-top: 23%; padding-bottom: 11%\">+</p>"	"1131"	n/a	n/a	n/a	n/a	n/a	n/a	n/a	n/a	n/a
n/a	"image-keyboard-response"	"231"	"435961"	"0.0-6.0-2.0-1.23"	"cq4hnm"	"600"	"1366"	"chrome"	"109.0.0"	"FALSE"	"Windows 10"	"60.72"	"013"	n/a	n/a	n/a	n/a	n/a	n/a	"Trial"	n/a	n/a	n/a	"601"	"arrowright"	n/a	"NULL"	"NULL"	"NULL"	"stimuli/Ebbinghaus_-0.87143_0.28000.png"	n/a	"Ebbinghaus"	"arrowleft"	"1149"	"FALSE"	"Ebbinghaus"	"-0.871430000"	"0.2800000000"	"2"	"24"
n/a	"html-keyboard-response"	"232"	"437358"	"0.0-6.0-2.0-0.24"	"cq4hnm"	"600"	"1366"	"chrome"	"109.0.0"	"FALSE"	"Windows 10"	"60.72"	"013"	n/a	n/a	n/a	n/a	n/a	n/a	"fixation"	n/a	n/a	n/a	n/a	"NULL"	n/a	"NULL"	"NULL"	"NULL"	"<p style=\"color: black; font-size: 80px; padding-left: 26%; padding-right: 3%; padding-top: 39%; padding-bottom: 24%\">+</p>"	"1381"	n/a	n/a	n/a	n/a	n/a	n/a	n/a	n/a	n/a
n/a	"image-keyboard-response"	"233"	"437874"	"0.0-6.0-2.0-1.24"	"cq4hnm"	"600"	"1366"	"chrome"	"109.0.0"	"FALSE"	"Windows 10"	"60.72"	"013"	n/a	n/a	n/a	n/a	n/a	n/a	"Trial"	n/a	n/a	n/a	"515"	"arrowleft"	n/a	"NULL"	"NULL"	"NULL"	"stimuli/Ebbinghaus_-0.87143_-0.15857.png"	n/a	"Ebbinghaus"	"arrowright"	"1397"	"FALSE"	"Ebbinghaus"	"-0.871430000"	"-0.158570000"	"2"	"25"
n/a	"html-keyboard-response"	"234"	"438892"	"0.0-6.0-2.0-0.25"	"cq4hnm"	"600"	"1366"	"chrome"	"109.0.0"	"FALSE"	"Windows 10"	"60.72"	"013"	n/a	n/a	n/a	n/a	n/a	n/a	"fixation"	n/a	n/a	n/a	n/a	"NULL"	n/a	"NULL"	"NULL"	"NULL"	"<p style=\"color: black; font-size: 80px; padding-left: 1%; padding-right: 2%; padding-top: 31%; padding-bottom: 32%\">+</p>"	"1012"	n/a	n/a	n/a	n/a	n/a	n/a	n/a	n/a	n/a
n/a	"image-keyboard-response"	"235"	"439681"	"0.0-6.0-2.0-1.25"	"cq4hnm"	"600"	"1366"	"chrome"	"109.0.0"	"FALSE"	"Windows 10"	"60.72"	"013"	n/a	n/a	n/a	n/a	n/a	n/a	"Trial"	n/a	n/a	n/a	"789"	"arrowright"	n/a	"NULL"	"NULL"	"NULL"	"stimuli/Ebbinghaus_-0.35714_-0.2150.png"	n/a	"Ebbinghaus"	"arrowright"	"1018"	"TRUE"	"Ebbinghaus"	"-0.357140000"	"-0.215000000"	"2"	"26"
n/a	"html-keyboard-response"	"236"	"440812"	"0.0-6.0-2.0-0.26"	"cq4hnm"	"600"	"1366"	"chrome"	"109.0.0"	"FALSE"	"Windows 10"	"60.72"	"013"	n/a	n/a	n/a	n/a	n/a	n/a	"fixation"	n/a	n/a	n/a	n/a	"NULL"	n/a	"NULL"	"NULL"	"NULL"	"<p style=\"color: black; font-size: 80px; padding-left: 11%; padding-right: 27%; padding-top: 42%; padding-bottom: 41%\">+</p>"	"1120"	n/a	n/a	n/a	n/a	n/a	n/a	n/a	n/a	n/a
n/a	"image-keyboard-response"	"237"	"441839"	"0.0-6.0-2.0-1.26"	"cq4hnm"	"600"	"1366"	"chrome"	"109.0.0"	"FALSE"	"Windows 10"	"60.72"	"013"	n/a	n/a	n/a	n/a	n/a	n/a	"Trial"	n/a	n/a	n/a	"1026"	"arrowleft"	n/a	"NULL"	"NULL"	"NULL"	"stimuli/Ebbinghaus_-0.87143_0.21500.png"	n/a	"Ebbinghaus"	"arrowleft"	"1131"	"TRUE"	"Ebbinghaus"	"-0.871430000"	"0.2150000000"	"2"	"27"
n/a	"html-keyboard-response"	"238"	"443138"	"0.0-6.0-2.0-0.27"	"cq4hnm"	"600"	"1366"	"chrome"	"109.0.0"	"FALSE"	"Windows 10"	"60.72"	"013"	n/a	n/a	n/a	n/a	n/a	n/a	"fixation"	n/a	n/a	n/a	n/a	"NULL"	n/a	"NULL"	"NULL"	"NULL"	"<p style=\"color: black; font-size: 80px; padding-left: 44%; padding-right: 31%; padding-top: 26%; padding-bottom: 35%\">+</p>"	"1294"	n/a	n/a	n/a	n/a	n/a	n/a	n/a	n/a	n/a
n/a	"image-keyboard-response"	"239"	"444163"	"0.0-6.0-2.0-1.27"	"cq4hnm"	"600"	"1366"	"chrome"	"109.0.0"	"FALSE"	"Windows 10"	"60.72"	"013"	n/a	n/a	n/a	n/a	n/a	n/a	"Trial"	n/a	n/a	n/a	"1024"	"arrowright"	n/a	"NULL"	"NULL"	"NULL"	"stimuli/Ebbinghaus_-0.87143_-0.2800.png"	n/a	"Ebbinghaus"	"arrowright"	"1299"	"TRUE"	"Ebbinghaus"	"-0.871430000"	"-0.280000000"	"2"	"28"
n/a	"html-keyboard-response"	"240"	"445431"	"0.0-6.0-2.0-0.28"	"cq4hnm"	"600"	"1366"	"chrome"	"109.0.0"	"FALSE"	"Windows 10"	"60.72"	"013"	n/a	n/a	n/a	n/a	n/a	n/a	"fixation"	n/a	n/a	n/a	n/a	"NULL"	n/a	"NULL"	"NULL"	"NULL"	"<p style=\"color: black; font-size: 80px; padding-left: 4%; padding-right: 13%; padding-top: 39%; padding-bottom: 21%\">+</p>"	"1248"	n/a	n/a	n/a	n/a	n/a	n/a	n/a	n/a	n/a
n/a	"image-keyboard-response"	"241"	"446258"	"0.0-6.0-2.0-1.28"	"cq4hnm"	"600"	"1366"	"chrome"	"109.0.0"	"FALSE"	"Windows 10"	"60.72"	"013"	n/a	n/a	n/a	n/a	n/a	n/a	"Trial"	n/a	n/a	n/a	"825"	"arrowright"	n/a	"NULL"	"NULL"	"NULL"	"stimuli/Ebbinghaus_-0.35714_0.21500.png"	n/a	"Ebbinghaus"	"arrowleft"	"1268"	"FALSE"	"Ebbinghaus"	"-0.357140000"	"0.2150000000"	"2"	"29"
n/a	"html-keyboard-response"	"242"	"447700"	"0.0-6.0-2.0-0.29"	"cq4hnm"	"600"	"1366"	"chrome"	"109.0.0"	"FALSE"	"Windows 10"	"60.72"	"013"	n/a	n/a	n/a	n/a	n/a	n/a	"fixation"	n/a	n/a	n/a	n/a	"NULL"	n/a	"NULL"	"NULL"	"NULL"	"<p style=\"color: black; font-size: 80px; padding-left: 4%; padding-right: 45%; padding-top: 2%; padding-bottom: 33%\">+</p>"	"1435"	n/a	n/a	n/a	n/a	n/a	n/a	n/a	n/a	n/a
n/a	"image-keyboard-response"	"243"	"448924"	"0.0-6.0-2.0-1.29"	"cq4hnm"	"600"	"1366"	"chrome"	"109.0.0"	"FALSE"	"Windows 10"	"60.72"	"013"	n/a	n/a	n/a	n/a	n/a	n/a	"Trial"	n/a	n/a	n/a	"1223"	"arrowleft"	n/a	"NULL"	"NULL"	"NULL"	"stimuli/Ebbinghaus_-0.35714_0.11071.png"	n/a	"Ebbinghaus"	"arrowleft"	"1442"	"TRUE"	"Ebbinghaus"	"-0.357140000"	"0.1107100000"	"2"	"30"
n/a	"html-keyboard-response"	"244"	"450276"	"0.0-6.0-2.0-0.30"	"cq4hnm"	"600"	"1366"	"chrome"	"109.0.0"	"FALSE"	"Windows 10"	"60.72"	"013"	n/a	n/a	n/a	n/a	n/a	n/a	"fixation"	n/a	n/a	n/a	n/a	"NULL"	n/a	"NULL"	"NULL"	"NULL"	"<p style=\"color: black; font-size: 80px; padding-left: 14%; padding-right: 27%; padding-top: 40%; padding-bottom: 14%\">+</p>"	"1334"	n/a	n/a	n/a	n/a	n/a	n/a	n/a	n/a	n/a
n/a	"image-keyboard-response"	"245"	"450870"	"0.0-6.0-2.0-1.30"	"cq4hnm"	"600"	"1366"	"chrome"	"109.0.0"	"FALSE"	"Windows 10"	"60.72"	"013"	n/a	n/a	n/a	n/a	n/a	n/a	"Trial"	n/a	n/a	n/a	"589"	"arrowright"	n/a	"NULL"	"NULL"	"NULL"	"stimuli/Ebbinghaus_-0.61429_0.21500.png"	n/a	"Ebbinghaus"	"arrowleft"	"1352"	"FALSE"	"Ebbinghaus"	"-0.614290000"	"0.2150000000"	"2"	"31"
n/a	"html-keyboard-response"	"246"	"452258"	"0.0-6.0-2.0-0.31"	"cq4hnm"	"600"	"1366"	"chrome"	"109.0.0"	"FALSE"	"Windows 10"	"60.72"	"013"	n/a	n/a	n/a	n/a	n/a	n/a	"fixation"	n/a	n/a	n/a	n/a	"NULL"	n/a	"NULL"	"NULL"	"NULL"	"<p style=\"color: black; font-size: 80px; padding-left: 37%; padding-right: 26%; padding-top: 18%; padding-bottom: 13%\">+</p>"	"1377"	n/a	n/a	n/a	n/a	n/a	n/a	n/a	n/a	n/a
n/a	"image-keyboard-response"	"247"	"452831"	"0.0-6.0-2.0-1.31"	"cq4hnm"	"600"	"1366"	"chrome"	"109.0.0"	"FALSE"	"Windows 10"	"60.72"	"013"	n/a	n/a	n/a	n/a	n/a	n/a	"Trial"	n/a	n/a	n/a	"572"	"arrowleft"	n/a	"NULL"	"NULL"	"NULL"	"stimuli/Ebbinghaus_0.61429_0.15857.png"	n/a	"Ebbinghaus"	"arrowleft"	"1388"	"TRUE"	"Ebbinghaus"	"0.6142900000"	"0.1585700000"	"2"	"32"
n/a	"html-keyboard-response"	"248"	"454089"	"0.0-6.0-2.0-0.32"	"cq4hnm"	"600"	"1366"	"chrome"	"109.0.0"	"FALSE"	"Windows 10"	"60.72"	"013"	n/a	n/a	n/a	n/a	n/a	n/a	"fixation"	n/a	n/a	n/a	n/a	"NULL"	n/a	"NULL"	"NULL"	"NULL"	"<p style=\"color: black; font-size: 80px; padding-left: 40%; padding-right: 25%; padding-top: 14%; padding-bottom: 32%\">+</p>"	"1246"	n/a	n/a	n/a	n/a	n/a	n/a	n/a	n/a	n/a
