"success"	"trial_type"	"trial_index"	"time_elapsed"	"internal_node_id"	"participant_id"	"screen_height"	"screen_width"	"browser"	"browser_version"	"mobile"	"os"	"vsync_rate"	"subject_id"	"width"	"height"	"webaudio"	"fullscreen"	"webcam"	"microphone"	"screen"	"version"	"date"	"time"	"rt"	"response"	"timeout"	"failed_images"	"failed_audio"	"failed_video"	"stimulus"	"trial_duration"	"block"	"correct_response"	"prestimulus_duration"	"correct"	"type"	"illusion_strength"	"illusion_difference"	"block_number"	"trial_number"
"TRUE"	"fullscreen"	"0"	"6525"	"0.0-0.0"	"5jrvtu"	"600"	"1366"	"chrome"	"109.0.0"	"FALSE"	"Windows 10"	"60.39"	"005"	n/a	n/a	n/a	n/a	n/a	n/a	n/a	n/a	n/a	n/a	n/a	"NULL"	n/a	"NULL"	"NULL"	"NULL"	n/a	n/a	n/a	n/a	n/a	n/a	n/a	n/a	n/a	n/a	n/a
n/a	"browser-check"	"1"	"7542"	"0.0-1.0"	"5jrvtu"	"600"	"1366"	"chrome"	"109.0.0"	"FALSE"	"Windows 10"	"60.39"	"005"	"1366"	"600"	"TRUE"	"TRUE"	"TRUE"	"TRUE"	"browser_info"	"1.0"	"25/01/2023"	"15:28:38"	n/a	"NULL"	n/a	"NULL"	"NULL"	"NULL"	n/a	n/a	n/a	n/a	n/a	n/a	n/a	n/a	n/a	n/a	n/a
n/a	"survey-text"	"2"	"9552"	"0.0-2.0"	"5jrvtu"	"600"	"1366"	"chrome"	"109.0.0"	"FALSE"	"Windows 10"	"60.39"	"005"	n/a	n/a	n/a	n/a	n/a	n/a	"subject_id"	n/a	n/a	n/a	"1998"	"list(subject_id = \"005\")"	n/a	"NULL"	"NULL"	"NULL"	n/a	n/a	n/a	n/a	n/a	n/a	n/a	n/a	n/a	n/a	n/a
"TRUE"	"preload"	"3"	"9565"	"0.0-3.0"	"5jrvtu"	"600"	"1366"	"chrome"	"109.0.0"	"FALSE"	"Windows 10"	"60.39"	"005"	n/a	n/a	n/a	n/a	n/a	n/a	n/a	n/a	n/a	n/a	n/a	"NULL"	"FALSE"	"list()"	"list()"	"list()"	n/a	n/a	n/a	n/a	n/a	n/a	n/a	n/a	n/a	n/a	n/a
n/a	"html-button-response"	"4"	"68165"	"0.0-4.0-0.0"	"5jrvtu"	"600"	"1366"	"chrome"	"109.0.0"	"FALSE"	"Windows 10"	"60.39"	"005"	n/a	n/a	n/a	n/a	n/a	n/a	"illusion_instructions"	n/a	n/a	n/a	"58598"	"0"	n/a	"NULL"	"NULL"	"NULL"	"<p><b>Illusion Game</b></p><p>In this game of speed and reflex, you will need to make <b>visual judgments</b> (for instance, which circle is the biggest, or which line is the longest), as fast and as correctly as possible, while <b>resisting different visual illusions</b>.</p><p>We are going to start with some examples of all the illusions you will encounter in the game.</p>"	n/a	n/a	n/a	n/a	n/a	n/a	n/a	n/a	n/a	n/a
"TRUE"	"preload"	"5"	"68188"	"0.0-4.0-1.0-0.0"	"5jrvtu"	"600"	"1366"	"chrome"	"109.0.0"	"FALSE"	"Windows 10"	"60.39"	"005"	n/a	n/a	n/a	n/a	n/a	n/a	n/a	n/a	n/a	n/a	n/a	"NULL"	"FALSE"	"list()"	"list()"	"list()"	n/a	n/a	n/a	n/a	n/a	n/a	n/a	n/a	n/a	n/a	n/a
n/a	"html-keyboard-response"	"6"	"104638"	"0.0-4.0-1.0-1.0"	"5jrvtu"	"600"	"1366"	"chrome"	"109.0.0"	"FALSE"	"Windows 10"	"60.39"	"005"	n/a	n/a	n/a	n/a	n/a	n/a	n/a	n/a	n/a	n/a	"36448"	"enter"	n/a	"NULL"	"NULL"	"NULL"	"<p><b>Practice</b></p><p>In this part, two red circles will appear side by side on the screen.</p><p>Your task is to select which <b>red circle is bigger</b> in size as fast as you can, without making errors.</p><p>Don't get distracted by the surrounding black circles around the red circles!</p><p>Press <b>the LEFT or the RIGHT arrow</b> to indicate which is the bigger <b>red circle.</b></p><div style='float: center'><img src='materials/instructions/Ebbinghaus_Demo.png' height='300'></img><p><img src='utils/answer/answer_leftright_keyboard.PNG' height='150'></img></p><p class='small'>In this example, the correct answer is the <b>LEFT arrow</b>.</p></div><p>Are you ready? <b>Press ENTER to start</b></p>"	n/a	n/a	n/a	n/a	n/a	n/a	n/a	n/a	n/a	n/a
n/a	"html-keyboard-response"	"7"	"106480"	"0.0-4.0-1.0-2.0-0.0"	"5jrvtu"	"600"	"1366"	"chrome"	"109.0.0"	"FALSE"	"Windows 10"	"60.39"	"005"	n/a	n/a	n/a	n/a	n/a	n/a	"fixation"	n/a	n/a	n/a	n/a	"NULL"	n/a	"NULL"	"NULL"	"NULL"	"<p style=\"color: black; font-size: 80px; padding-left: 22%; padding-right: 17%; padding-top: 3%; padding-bottom: 49%\">+</p>"	"1323"	n/a	n/a	n/a	n/a	n/a	n/a	n/a	n/a	n/a
n/a	"image-keyboard-response"	"8"	"107495"	"0.0-4.0-1.0-2.0-1.0"	"5jrvtu"	"600"	"1366"	"chrome"	"109.0.0"	"FALSE"	"Windows 10"	"60.39"	"005"	n/a	n/a	n/a	n/a	n/a	n/a	"Trial"	n/a	n/a	n/a	"1013"	"arrowright"	n/a	"NULL"	"NULL"	"NULL"	"stimuli/Ebbinghaus_-100000_-1.4000.png"	n/a	"Ebbinghaus"	"arrowright"	"1842"	"TRUE"	"Ebbinghaus"	"-10000000000"	"-1.400000000"	"1"	"1"
n/a	"html-keyboard-response"	"9"	"108506"	"0.0-4.0-1.0-2.0-0.1"	"5jrvtu"	"600"	"1366"	"chrome"	"109.0.0"	"FALSE"	"Windows 10"	"60.39"	"005"	n/a	n/a	n/a	n/a	n/a	n/a	"fixation"	n/a	n/a	n/a	n/a	"NULL"	n/a	"NULL"	"NULL"	"NULL"	"<p style=\"color: black; font-size: 80px; padding-left: 37%; padding-right: 31%; padding-top: 29%; padding-bottom: 30%\">+</p>"	"1003"	n/a	n/a	n/a	n/a	n/a	n/a	n/a	n/a	n/a
n/a	"image-keyboard-response"	"10"	"109001"	"0.0-4.0-1.0-2.0-1.1"	"5jrvtu"	"600"	"1366"	"chrome"	"109.0.0"	"FALSE"	"Windows 10"	"60.39"	"005"	n/a	n/a	n/a	n/a	n/a	n/a	"Trial"	n/a	n/a	n/a	"493"	"arrowright"	n/a	"NULL"	"NULL"	"NULL"	"stimuli/Ebbinghaus_0000000_-1.4000.png"	n/a	"Ebbinghaus"	"arrowright"	"1011"	"TRUE"	"Ebbinghaus"	"000000000000"	"-1.400000000"	"1"	"2"
n/a	"html-keyboard-response"	"11"	"110168"	"0.0-4.0-1.0-2.0-0.2"	"5jrvtu"	"600"	"1366"	"chrome"	"109.0.0"	"FALSE"	"Windows 10"	"60.39"	"005"	n/a	n/a	n/a	n/a	n/a	n/a	"fixation"	n/a	n/a	n/a	n/a	"NULL"	n/a	"NULL"	"NULL"	"NULL"	"<p style=\"color: black; font-size: 80px; padding-left: 2%; padding-right: 8%; padding-top: 29%; padding-bottom: 48%\">+</p>"	"1151"	n/a	n/a	n/a	n/a	n/a	n/a	n/a	n/a	n/a
n/a	"image-keyboard-response"	"12"	"110735"	"0.0-4.0-1.0-2.0-1.2"	"5jrvtu"	"600"	"1366"	"chrome"	"109.0.0"	"FALSE"	"Windows 10"	"60.39"	"005"	n/a	n/a	n/a	n/a	n/a	n/a	"Trial"	n/a	n/a	n/a	"566"	"arrowleft"	n/a	"NULL"	"NULL"	"NULL"	"stimuli/Ebbinghaus_1000000_1.40000.png"	n/a	"Ebbinghaus"	"arrowleft"	"1167"	"TRUE"	"Ebbinghaus"	"100000000000"	"1.4000000000"	"1"	"3"
n/a	"html-keyboard-response"	"13"	"112022"	"0.0-4.0-1.0-2.0-0.3"	"5jrvtu"	"600"	"1366"	"chrome"	"109.0.0"	"FALSE"	"Windows 10"	"60.39"	"005"	n/a	n/a	n/a	n/a	n/a	n/a	"fixation"	n/a	n/a	n/a	n/a	"NULL"	n/a	"NULL"	"NULL"	"NULL"	"<p style=\"color: black; font-size: 80px; padding-left: 14%; padding-right: 32%; padding-top: 23%; padding-bottom: 18%\">+</p>"	"1266"	n/a	n/a	n/a	n/a	n/a	n/a	n/a	n/a	n/a
n/a	"image-keyboard-response"	"14"	"112473"	"0.0-4.0-1.0-2.0-1.3"	"5jrvtu"	"600"	"1366"	"chrome"	"109.0.0"	"FALSE"	"Windows 10"	"60.39"	"005"	n/a	n/a	n/a	n/a	n/a	n/a	"Trial"	n/a	n/a	n/a	"449"	"arrowright"	n/a	"NULL"	"NULL"	"NULL"	"stimuli/Ebbinghaus_1000000_-1.4000.png"	n/a	"Ebbinghaus"	"arrowright"	"1287"	"TRUE"	"Ebbinghaus"	"100000000000"	"-1.400000000"	"1"	"4"
n/a	"html-keyboard-response"	"15"	"113900"	"0.0-4.0-1.0-2.0-0.4"	"5jrvtu"	"600"	"1366"	"chrome"	"109.0.0"	"FALSE"	"Windows 10"	"60.39"	"005"	n/a	n/a	n/a	n/a	n/a	n/a	"fixation"	n/a	n/a	n/a	n/a	"NULL"	n/a	"NULL"	"NULL"	"NULL"	"<p style=\"color: black; font-size: 80px; padding-left: 35%; padding-right: 32%; padding-top: 41%; padding-bottom: 8%\">+</p>"	"1418"	n/a	n/a	n/a	n/a	n/a	n/a	n/a	n/a	n/a
n/a	"image-keyboard-response"	"16"	"114420"	"0.0-4.0-1.0-2.0-1.4"	"5jrvtu"	"600"	"1366"	"chrome"	"109.0.0"	"FALSE"	"Windows 10"	"60.39"	"005"	n/a	n/a	n/a	n/a	n/a	n/a	"Trial"	n/a	n/a	n/a	"519"	"arrowleft"	n/a	"NULL"	"NULL"	"NULL"	"stimuli/Ebbinghaus_0000000_1.40000.png"	n/a	"Ebbinghaus"	"arrowleft"	"1427"	"TRUE"	"Ebbinghaus"	"000000000000"	"1.4000000000"	"1"	"5"
n/a	"html-keyboard-response"	"17"	"115577"	"0.0-4.0-1.0-2.0-0.5"	"5jrvtu"	"600"	"1366"	"chrome"	"109.0.0"	"FALSE"	"Windows 10"	"60.39"	"005"	n/a	n/a	n/a	n/a	n/a	n/a	"fixation"	n/a	n/a	n/a	n/a	"NULL"	n/a	"NULL"	"NULL"	"NULL"	"<p style=\"color: black; font-size: 80px; padding-left: 21%; padding-right: 32%; padding-top: 22%; padding-bottom: 33%\">+</p>"	"1147"	n/a	n/a	n/a	n/a	n/a	n/a	n/a	n/a	n/a
n/a	"image-keyboard-response"	"18"	"116120"	"0.0-4.0-1.0-2.0-1.5"	"5jrvtu"	"600"	"1366"	"chrome"	"109.0.0"	"FALSE"	"Windows 10"	"60.39"	"005"	n/a	n/a	n/a	n/a	n/a	n/a	"Trial"	n/a	n/a	n/a	"542"	"arrowleft"	n/a	"NULL"	"NULL"	"NULL"	"stimuli/Ebbinghaus_-100000_1.40000.png"	n/a	"Ebbinghaus"	"arrowleft"	"1157"	"TRUE"	"Ebbinghaus"	"-10000000000"	"1.4000000000"	"1"	"6"
n/a	"html-button-response"	"19"	"119499"	"0.0-4.0-1.0-3.0"	"5jrvtu"	"600"	"1366"	"chrome"	"109.0.0"	"FALSE"	"Windows 10"	"60.39"	"005"	n/a	n/a	n/a	n/a	n/a	n/a	"practice_block_results"	n/a	n/a	n/a	"3376"	"0"	n/a	"NULL"	"NULL"	"NULL"	"<p style='color:rgb(76,175,80);'> Correct Responses: <b>100.00%</b></p><hr><p style='color:rgb(233,30,99);'> Average Response Time: <b>597.00</b> ms.</p>"	n/a	n/a	n/a	n/a	n/a	n/a	n/a	n/a	n/a	n/a
"TRUE"	"preload"	"20"	"120050"	"0.0-4.0-2.0-0.0"	"5jrvtu"	"600"	"1366"	"chrome"	"109.0.0"	"FALSE"	"Windows 10"	"60.39"	"005"	n/a	n/a	n/a	n/a	n/a	n/a	n/a	n/a	n/a	n/a	n/a	"NULL"	"FALSE"	"list()"	"list()"	"list()"	n/a	n/a	n/a	n/a	n/a	n/a	n/a	n/a	n/a	n/a	n/a
n/a	"html-keyboard-response"	"21"	"127937"	"0.0-4.0-2.0-1.0"	"5jrvtu"	"600"	"1366"	"chrome"	"109.0.0"	"FALSE"	"Windows 10"	"60.39"	"005"	n/a	n/a	n/a	n/a	n/a	n/a	n/a	n/a	n/a	n/a	"7887"	"enter"	n/a	"NULL"	"NULL"	"NULL"	"<p><b>Practice</b></p><p>In this part, two horizontal red lines will appear one above the other.</p><p>Your task is to select which <b>line is longer</b> in length as fast as you can, without making errors.</p><p>Don't get distracted by the surrounding black arrows at the end of the red lines!</p><p>Press <b>the UP or the DOWN arrow</b> to indicate where is the longer <b>red line.</b></p><div style='float: center'><img src='materials/instructions/MullerLyer_Demo.png' height='300'></img><p><img src='utils/answer/answer_updown_keyboard.PNG' height='150'></img></p><p class='small'>In this example, the correct answer is the <b>UP arrow</b>.</p></div><p>Are you ready? <b>Press ENTER to start</b></p>"	n/a	n/a	n/a	n/a	n/a	n/a	n/a	n/a	n/a	n/a
n/a	"html-keyboard-response"	"22"	"129779"	"0.0-4.0-2.0-2.0-0.0"	"5jrvtu"	"600"	"1366"	"chrome"	"109.0.0"	"FALSE"	"Windows 10"	"60.39"	"005"	n/a	n/a	n/a	n/a	n/a	n/a	"fixation"	n/a	n/a	n/a	n/a	"NULL"	n/a	"NULL"	"NULL"	"NULL"	"<p style=\"color: black; font-size: 80px; padding-left: 6%; padding-right: 20%; padding-top: 16%; padding-bottom: 35%\">+</p>"	"1328"	n/a	n/a	n/a	n/a	n/a	n/a	n/a	n/a	n/a
n/a	"image-keyboard-response"	"23"	"130421"	"0.0-4.0-2.0-2.0-1.0"	"5jrvtu"	"600"	"1366"	"chrome"	"109.0.0"	"FALSE"	"Windows 10"	"60.39"	"005"	n/a	n/a	n/a	n/a	n/a	n/a	"Trial"	n/a	n/a	n/a	"640"	"arrowdown"	n/a	"NULL"	"NULL"	"NULL"	"stimuli/MullerLyer_-230000_-0.7000.png"	n/a	"MullerLyer"	"arrowdown"	"1842"	"TRUE"	"MullerLyer"	"-23000000000"	"-0.700000000"	"1"	"7"
n/a	"html-keyboard-response"	"24"	"131521"	"0.0-4.0-2.0-2.0-0.1"	"5jrvtu"	"600"	"1366"	"chrome"	"109.0.0"	"FALSE"	"Windows 10"	"60.39"	"005"	n/a	n/a	n/a	n/a	n/a	n/a	"fixation"	n/a	n/a	n/a	n/a	"NULL"	n/a	"NULL"	"NULL"	"NULL"	"<p style=\"color: black; font-size: 80px; padding-left: 17%; padding-right: 17%; padding-top: 47%; padding-bottom: 3%\">+</p>"	"1090"	n/a	n/a	n/a	n/a	n/a	n/a	n/a	n/a	n/a
n/a	"image-keyboard-response"	"25"	"132519"	"0.0-4.0-2.0-2.0-1.1"	"5jrvtu"	"600"	"1366"	"chrome"	"109.0.0"	"FALSE"	"Windows 10"	"60.39"	"005"	n/a	n/a	n/a	n/a	n/a	n/a	"Trial"	n/a	n/a	n/a	"996"	"arrowdown"	n/a	"NULL"	"NULL"	"NULL"	"stimuli/MullerLyer_2300000_-0.7000.png"	n/a	"MullerLyer"	"arrowdown"	"1100"	"TRUE"	"MullerLyer"	"230000000000"	"-0.700000000"	"1"	"8"
n/a	"html-keyboard-response"	"26"	"133983"	"0.0-4.0-2.0-2.0-0.2"	"5jrvtu"	"600"	"1366"	"chrome"	"109.0.0"	"FALSE"	"Windows 10"	"60.39"	"005"	n/a	n/a	n/a	n/a	n/a	n/a	"fixation"	n/a	n/a	n/a	n/a	"NULL"	n/a	"NULL"	"NULL"	"NULL"	"<p style=\"color: black; font-size: 80px; padding-left: 28%; padding-right: 39%; padding-top: 9%; padding-bottom: 8%\">+</p>"	"1450"	n/a	n/a	n/a	n/a	n/a	n/a	n/a	n/a	n/a
n/a	"image-keyboard-response"	"27"	"134545"	"0.0-4.0-2.0-2.0-1.2"	"5jrvtu"	"600"	"1366"	"chrome"	"109.0.0"	"FALSE"	"Windows 10"	"60.39"	"005"	n/a	n/a	n/a	n/a	n/a	n/a	"Trial"	n/a	n/a	n/a	"561"	"arrowup"	n/a	"NULL"	"NULL"	"NULL"	"stimuli/MullerLyer_2300000_0.70000.png"	n/a	"MullerLyer"	"arrowup"	"1464"	"TRUE"	"MullerLyer"	"230000000000"	"0.7000000000"	"1"	"9"
n/a	"html-keyboard-response"	"28"	"135567"	"0.0-4.0-2.0-2.0-0.3"	"5jrvtu"	"600"	"1366"	"chrome"	"109.0.0"	"FALSE"	"Windows 10"	"60.39"	"005"	n/a	n/a	n/a	n/a	n/a	n/a	"fixation"	n/a	n/a	n/a	n/a	"NULL"	n/a	"NULL"	"NULL"	"NULL"	"<p style=\"color: black; font-size: 80px; padding-left: 49%; padding-right: 32%; padding-top: 40%; padding-bottom: 0%\">+</p>"	"1009"	n/a	n/a	n/a	n/a	n/a	n/a	n/a	n/a	n/a
n/a	"image-keyboard-response"	"29"	"136040"	"0.0-4.0-2.0-2.0-1.3"	"5jrvtu"	"600"	"1366"	"chrome"	"109.0.0"	"FALSE"	"Windows 10"	"60.39"	"005"	n/a	n/a	n/a	n/a	n/a	n/a	"Trial"	n/a	n/a	n/a	"472"	"arrowdown"	n/a	"NULL"	"NULL"	"NULL"	"stimuli/MullerLyer_0000000_-0.7000.png"	n/a	"MullerLyer"	"arrowdown"	"1022"	"TRUE"	"MullerLyer"	"000000000000"	"-0.700000000"	"1"	"10"
n/a	"html-keyboard-response"	"30"	"137469"	"0.0-4.0-2.0-2.0-0.4"	"5jrvtu"	"600"	"1366"	"chrome"	"109.0.0"	"FALSE"	"Windows 10"	"60.39"	"005"	n/a	n/a	n/a	n/a	n/a	n/a	"fixation"	n/a	n/a	n/a	n/a	"NULL"	n/a	"NULL"	"NULL"	"NULL"	"<p style=\"color: black; font-size: 80px; padding-left: 29%; padding-right: 39%; padding-top: 21%; padding-bottom: 12%\">+</p>"	"1415"	n/a	n/a	n/a	n/a	n/a	n/a	n/a	n/a	n/a
n/a	"image-keyboard-response"	"31"	"137866"	"0.0-4.0-2.0-2.0-1.4"	"5jrvtu"	"600"	"1366"	"chrome"	"109.0.0"	"FALSE"	"Windows 10"	"60.39"	"005"	n/a	n/a	n/a	n/a	n/a	n/a	"Trial"	n/a	n/a	n/a	"396"	"arrowup"	n/a	"NULL"	"NULL"	"NULL"	"stimuli/MullerLyer_-230000_0.70000.png"	n/a	"MullerLyer"	"arrowup"	"1429"	"TRUE"	"MullerLyer"	"-23000000000"	"0.7000000000"	"1"	"11"
n/a	"html-keyboard-response"	"32"	"139288"	"0.0-4.0-2.0-2.0-0.5"	"5jrvtu"	"600"	"1366"	"chrome"	"109.0.0"	"FALSE"	"Windows 10"	"60.39"	"005"	n/a	n/a	n/a	n/a	n/a	n/a	"fixation"	n/a	n/a	n/a	n/a	"NULL"	n/a	"NULL"	"NULL"	"NULL"	"<p style=\"color: black; font-size: 80px; padding-left: 13%; padding-right: 24%; padding-top: 23%; padding-bottom: 42%\">+</p>"	"1411"	n/a	n/a	n/a	n/a	n/a	n/a	n/a	n/a	n/a
n/a	"image-keyboard-response"	"33"	"139713"	"0.0-4.0-2.0-2.0-1.5"	"5jrvtu"	"600"	"1366"	"chrome"	"109.0.0"	"FALSE"	"Windows 10"	"60.39"	"005"	n/a	n/a	n/a	n/a	n/a	n/a	"Trial"	n/a	n/a	n/a	"424"	"arrowup"	n/a	"NULL"	"NULL"	"NULL"	"stimuli/MullerLyer_0000000_0.70000.png"	n/a	"MullerLyer"	"arrowup"	"1422"	"TRUE"	"MullerLyer"	"000000000000"	"0.7000000000"	"1"	"12"
n/a	"html-button-response"	"34"	"142627"	"0.0-4.0-2.0-3.0"	"5jrvtu"	"600"	"1366"	"chrome"	"109.0.0"	"FALSE"	"Windows 10"	"60.39"	"005"	n/a	n/a	n/a	n/a	n/a	n/a	"practice_block_results"	n/a	n/a	n/a	"2913"	"0"	n/a	"NULL"	"NULL"	"NULL"	"<p style='color:rgb(76,175,80);'> Correct Responses: <b>100.00%</b></p><hr><p style='color:rgb(233,30,99);'> Average Response Time: <b>581.50</b> ms.</p>"	n/a	n/a	n/a	n/a	n/a	n/a	n/a	n/a	n/a	n/a
"TRUE"	"preload"	"35"	"143169"	"0.0-4.0-3.0-0.0"	"5jrvtu"	"600"	"1366"	"chrome"	"109.0.0"	"FALSE"	"Windows 10"	"60.39"	"005"	n/a	n/a	n/a	n/a	n/a	n/a	n/a	n/a	n/a	n/a	n/a	"NULL"	"FALSE"	"list()"	"list()"	"list()"	n/a	n/a	n/a	n/a	n/a	n/a	n/a	n/a	n/a	n/a	n/a
n/a	"html-keyboard-response"	"36"	"150362"	"0.0-4.0-3.0-1.0"	"5jrvtu"	"600"	"1366"	"chrome"	"109.0.0"	"FALSE"	"Windows 10"	"60.39"	"005"	n/a	n/a	n/a	n/a	n/a	n/a	n/a	n/a	n/a	n/a	"7193"	"enter"	n/a	"NULL"	"NULL"	"NULL"	"<p><b>Practice</b></p><p>In this part, two red lines will appear side by side.</p><p>Your task is to tell <b>which line is longer</b> in length, regardless of their orientation, as fast as you can, and without making errors.</p><p>Don't get distracted by the orientation of the lines!</p><p>Press <b>the LEFT or the RIGHT arrow</b> to indicate which <b>line is the longer one.</b></p><div style='float: center'><img src='materials/instructions/VerticalHorizontal_Demo.png' height='300'></img><p><img src='utils/answer/answer_leftright_keyboard.PNG' height='150'></img></p><p class='small'>In this example, the correct answer is the <b>LEFT arrow</b>.</p></div><p>Are you ready? <b>Press ENTER to start</b></p>"	n/a	n/a	n/a	n/a	n/a	n/a	n/a	n/a	n/a	n/a
n/a	"html-keyboard-response"	"37"	"152027"	"0.0-4.0-3.0-2.0-0.0"	"5jrvtu"	"600"	"1366"	"chrome"	"109.0.0"	"FALSE"	"Windows 10"	"60.39"	"005"	n/a	n/a	n/a	n/a	n/a	n/a	"fixation"	n/a	n/a	n/a	n/a	"NULL"	n/a	"NULL"	"NULL"	"NULL"	"<p style=\"color: black; font-size: 80px; padding-left: 17%; padding-right: 10%; padding-top: 2%; padding-bottom: 42%\">+</p>"	"1152"	n/a	n/a	n/a	n/a	n/a	n/a	n/a	n/a	n/a
n/a	"image-keyboard-response"	"38"	"152538"	"0.0-4.0-3.0-2.0-1.0"	"5jrvtu"	"600"	"1366"	"chrome"	"109.0.0"	"FALSE"	"Windows 10"	"60.39"	"005"	n/a	n/a	n/a	n/a	n/a	n/a	"Trial"	n/a	n/a	n/a	"510"	"arrowleft"	n/a	"NULL"	"NULL"	"NULL"	"stimuli/VerticalHorizontal_0000000_0.90000.png"	n/a	"VerticalHorizontal"	"arrowleft"	"1665"	"TRUE"	"VerticalHorizontal"	"000000000000"	"0.9000000000"	"1"	"13"
n/a	"html-keyboard-response"	"39"	"153634"	"0.0-4.0-3.0-2.0-0.1"	"5jrvtu"	"600"	"1366"	"chrome"	"109.0.0"	"FALSE"	"Windows 10"	"60.39"	"005"	n/a	n/a	n/a	n/a	n/a	n/a	"fixation"	n/a	n/a	n/a	n/a	"NULL"	n/a	"NULL"	"NULL"	"NULL"	"<p style=\"color: black; font-size: 80px; padding-left: 18%; padding-right: 10%; padding-top: 35%; padding-bottom: 47%\">+</p>"	"1082"	n/a	n/a	n/a	n/a	n/a	n/a	n/a	n/a	n/a
n/a	"image-keyboard-response"	"40"	"154003"	"0.0-4.0-3.0-2.0-1.1"	"5jrvtu"	"600"	"1366"	"chrome"	"109.0.0"	"FALSE"	"Windows 10"	"60.39"	"005"	n/a	n/a	n/a	n/a	n/a	n/a	"Trial"	n/a	n/a	n/a	"368"	"arrowright"	n/a	"NULL"	"NULL"	"NULL"	"stimuli/VerticalHorizontal_-330000_-0.9000.png"	n/a	"VerticalHorizontal"	"arrowright"	"1096"	"TRUE"	"VerticalHorizontal"	"-33000000000"	"-0.900000000"	"1"	"14"
n/a	"html-keyboard-response"	"41"	"155414"	"0.0-4.0-3.0-2.0-0.2"	"5jrvtu"	"600"	"1366"	"chrome"	"109.0.0"	"FALSE"	"Windows 10"	"60.39"	"005"	n/a	n/a	n/a	n/a	n/a	n/a	"fixation"	n/a	n/a	n/a	n/a	"NULL"	n/a	"NULL"	"NULL"	"NULL"	"<p style=\"color: black; font-size: 80px; padding-left: 24%; padding-right: 9%; padding-top: 24%; padding-bottom: 40%\">+</p>"	"1399"	n/a	n/a	n/a	n/a	n/a	n/a	n/a	n/a	n/a
n/a	"image-keyboard-response"	"42"	"155845"	"0.0-4.0-3.0-2.0-1.2"	"5jrvtu"	"600"	"1366"	"chrome"	"109.0.0"	"FALSE"	"Windows 10"	"60.39"	"005"	n/a	n/a	n/a	n/a	n/a	n/a	"Trial"	n/a	n/a	n/a	"429"	"arrowleft"	n/a	"NULL"	"NULL"	"NULL"	"stimuli/VerticalHorizontal_3300000_0.90000.png"	n/a	"VerticalHorizontal"	"arrowleft"	"1411"	"TRUE"	"VerticalHorizontal"	"330000000000"	"0.9000000000"	"1"	"15"
n/a	"html-keyboard-response"	"43"	"157023"	"0.0-4.0-3.0-2.0-0.3"	"5jrvtu"	"600"	"1366"	"chrome"	"109.0.0"	"FALSE"	"Windows 10"	"60.39"	"005"	n/a	n/a	n/a	n/a	n/a	n/a	"fixation"	n/a	n/a	n/a	n/a	"NULL"	n/a	"NULL"	"NULL"	"NULL"	"<p style=\"color: black; font-size: 80px; padding-left: 11%; padding-right: 15%; padding-top: 4%; padding-bottom: 4%\">+</p>"	"1161"	n/a	n/a	n/a	n/a	n/a	n/a	n/a	n/a	n/a
n/a	"image-keyboard-response"	"44"	"157388"	"0.0-4.0-3.0-2.0-1.3"	"5jrvtu"	"600"	"1366"	"chrome"	"109.0.0"	"FALSE"	"Windows 10"	"60.39"	"005"	n/a	n/a	n/a	n/a	n/a	n/a	"Trial"	n/a	n/a	n/a	"363"	"arrowright"	n/a	"NULL"	"NULL"	"NULL"	"stimuli/VerticalHorizontal_0000000_-0.9000.png"	n/a	"VerticalHorizontal"	"arrowright"	"1178"	"TRUE"	"VerticalHorizontal"	"000000000000"	"-0.900000000"	"1"	"16"
n/a	"html-keyboard-response"	"45"	"158582"	"0.0-4.0-3.0-2.0-0.4"	"5jrvtu"	"600"	"1366"	"chrome"	"109.0.0"	"FALSE"	"Windows 10"	"60.39"	"005"	n/a	n/a	n/a	n/a	n/a	n/a	"fixation"	n/a	n/a	n/a	n/a	"NULL"	n/a	"NULL"	"NULL"	"NULL"	"<p style=\"color: black; font-size: 80px; padding-left: 6%; padding-right: 42%; padding-top: 35%; padding-bottom: 17%\">+</p>"	"1186"	n/a	n/a	n/a	n/a	n/a	n/a	n/a	n/a	n/a
n/a	"image-keyboard-response"	"46"	"158877"	"0.0-4.0-3.0-2.0-1.4"	"5jrvtu"	"600"	"1366"	"chrome"	"109.0.0"	"FALSE"	"Windows 10"	"60.39"	"005"	n/a	n/a	n/a	n/a	n/a	n/a	"Trial"	n/a	n/a	n/a	"293"	"arrowleft"	n/a	"NULL"	"NULL"	"NULL"	"stimuli/VerticalHorizontal_-330000_0.90000.png"	n/a	"VerticalHorizontal"	"arrowleft"	"1194"	"TRUE"	"VerticalHorizontal"	"-33000000000"	"0.9000000000"	"1"	"17"
n/a	"html-keyboard-response"	"47"	"160140"	"0.0-4.0-3.0-2.0-0.5"	"5jrvtu"	"600"	"1366"	"chrome"	"109.0.0"	"FALSE"	"Windows 10"	"60.39"	"005"	n/a	n/a	n/a	n/a	n/a	n/a	"fixation"	n/a	n/a	n/a	n/a	"NULL"	n/a	"NULL"	"NULL"	"NULL"	"<p style=\"color: black; font-size: 80px; padding-left: 26%; padding-right: 24%; padding-top: 27%; padding-bottom: 24%\">+</p>"	"1247"	n/a	n/a	n/a	n/a	n/a	n/a	n/a	n/a	n/a
n/a	"image-keyboard-response"	"48"	"160507"	"0.0-4.0-3.0-2.0-1.5"	"5jrvtu"	"600"	"1366"	"chrome"	"109.0.0"	"FALSE"	"Windows 10"	"60.39"	"005"	n/a	n/a	n/a	n/a	n/a	n/a	"Trial"	n/a	n/a	n/a	"366"	"arrowright"	n/a	"NULL"	"NULL"	"NULL"	"stimuli/VerticalHorizontal_3300000_-0.9000.png"	n/a	"VerticalHorizontal"	"arrowright"	"1263"	"TRUE"	"VerticalHorizontal"	"330000000000"	"-0.900000000"	"1"	"18"
n/a	"html-button-response"	"49"	"166659"	"0.0-4.0-3.0-3.0"	"5jrvtu"	"600"	"1366"	"chrome"	"109.0.0"	"FALSE"	"Windows 10"	"60.39"	"005"	n/a	n/a	n/a	n/a	n/a	n/a	"practice_block_results"	n/a	n/a	n/a	"6148"	"0"	n/a	"NULL"	"NULL"	"NULL"	"<p style='color:rgb(76,175,80);'> Correct Responses: <b>100.00%</b></p><hr><p style='color:rgb(233,30,99);'> Average Response Time: <b>388.17</b> ms.</p>"	n/a	n/a	n/a	n/a	n/a	n/a	n/a	n/a	n/a	n/a
n/a	"html-button-response"	"50"	"249531"	"0.0-4.0-4.0"	"5jrvtu"	"600"	"1366"	"chrome"	"109.0.0"	"FALSE"	"Windows 10"	"60.39"	"005"	n/a	n/a	n/a	n/a	n/a	n/a	"practice_debrief"	n/a	n/a	n/a	"82367"	"0"	n/a	"NULL"	"NULL"	"NULL"	"<p><b>TRAINING COMPLETED</b></p><p>In the next phase, there will be more trials, and some might be harder too.<br> Moreover, after each illusion block, a <b>score</b> will be calculated based on speed (time you took to answer) and accuracy (number of errors).</p><p>Try to keep up a high score!</p><br><p>Note that it can be <i>really</i> challenging at times, so you will need to rely on your <b>intuition</b> and gut feeling to answer as fast as you can without making errors.</p><p>Each illusion block will be repeated two times (so that you have the opportunity to improve your score), but the order of the blocks is random.</p><p>Remember, your goal is to be as <b>fast</b> and <b>accurate</b> as possible. Good luck!</p><br>"	n/a	n/a	n/a	n/a	n/a	n/a	n/a	n/a	n/a	n/a
"TRUE"	"preload"	"51"	"249721"	"0.0-5.0-0.0"	"5jrvtu"	"600"	"1366"	"chrome"	"109.0.0"	"FALSE"	"Windows 10"	"60.39"	"005"	n/a	n/a	n/a	n/a	n/a	n/a	n/a	n/a	n/a	n/a	n/a	"NULL"	"FALSE"	"list()"	"list()"	"list()"	n/a	n/a	n/a	n/a	n/a	n/a	n/a	n/a	n/a	n/a	n/a
n/a	"html-keyboard-response"	"52"	"256427"	"0.0-5.0-1.0"	"5jrvtu"	"600"	"1366"	"chrome"	"109.0.0"	"FALSE"	"Windows 10"	"60.39"	"005"	n/a	n/a	n/a	n/a	n/a	n/a	n/a	n/a	n/a	n/a	"6705"	"enter"	n/a	"NULL"	"NULL"	"NULL"	"<p><b>Part 1/6</b></p><p>In this part, two horizontal red lines will appear one above the other.</p><p>Your task is to select which <b>line is longer</b> in length as fast as you can, without making errors.</p><p>Don't get distracted by the surrounding black arrows at the end of the red lines!</p><p>Press <b>the UP or the DOWN arrow</b> to indicate where is the longer <b>red line.</b></p><div style='float: center'><img src='materials/instructions/MullerLyer_Demo.png' height='300'></img><p><img src='utils/answer/answer_updown_keyboard.PNG' height='150'></img></p><p class='small'>In this example, the correct answer is the <b>UP arrow</b>.</p></div><p>Are you ready? <b>Press ENTER to start</b></p>"	n/a	n/a	n/a	n/a	n/a	n/a	n/a	n/a	n/a	n/a
n/a	"html-keyboard-response"	"53"	"258382"	"0.0-5.0-2.0-0.0"	"5jrvtu"	"600"	"1366"	"chrome"	"109.0.0"	"FALSE"	"Windows 10"	"60.39"	"005"	n/a	n/a	n/a	n/a	n/a	n/a	"fixation"	n/a	n/a	n/a	n/a	"NULL"	n/a	"NULL"	"NULL"	"NULL"	"<p style=\"color: black; font-size: 80px; padding-left: 36%; padding-right: 5%; padding-top: 44%; padding-bottom: 1%\">+</p>"	"1423"	n/a	n/a	n/a	n/a	n/a	n/a	n/a	n/a	n/a
n/a	"image-keyboard-response"	"54"	"259235"	"0.0-5.0-2.0-1.0"	"5jrvtu"	"600"	"1366"	"chrome"	"109.0.0"	"FALSE"	"Windows 10"	"60.39"	"005"	n/a	n/a	n/a	n/a	n/a	n/a	"Trial"	n/a	n/a	n/a	"852"	"arrowdown"	n/a	"NULL"	"NULL"	"NULL"	"stimuli/MullerLyer_2.30000_-0.3500.png"	n/a	"MullerLyer"	"arrowdown"	"1955"	"TRUE"	"MullerLyer"	"2.3000000000"	"-0.350000000"	"1"	"19"
n/a	"html-keyboard-response"	"55"	"260448"	"0.0-5.0-2.0-0.1"	"5jrvtu"	"600"	"1366"	"chrome"	"109.0.0"	"FALSE"	"Windows 10"	"60.39"	"005"	n/a	n/a	n/a	n/a	n/a	n/a	"fixation"	n/a	n/a	n/a	n/a	"NULL"	n/a	"NULL"	"NULL"	"NULL"	"<p style=\"color: black; font-size: 80px; padding-left: 2%; padding-right: 13%; padding-top: 5%; padding-bottom: 26%\">+</p>"	"1195"	n/a	n/a	n/a	n/a	n/a	n/a	n/a	n/a	n/a
n/a	"image-keyboard-response"	"56"	"260900"	"0.0-5.0-2.0-1.1"	"5jrvtu"	"600"	"1366"	"chrome"	"109.0.0"	"FALSE"	"Windows 10"	"60.39"	"005"	n/a	n/a	n/a	n/a	n/a	n/a	"Trial"	n/a	n/a	n/a	"451"	"arrowup"	n/a	"NULL"	"NULL"	"NULL"	"stimuli/MullerLyer_-14.12857_0.07627.png"	n/a	"MullerLyer"	"arrowup"	"1213"	"TRUE"	"MullerLyer"	"-14.12857000"	"0.0762700000"	"1"	"20"
n/a	"html-keyboard-response"	"57"	"262038"	"0.0-5.0-2.0-0.2"	"5jrvtu"	"600"	"1366"	"chrome"	"109.0.0"	"FALSE"	"Windows 10"	"60.39"	"005"	n/a	n/a	n/a	n/a	n/a	n/a	"fixation"	n/a	n/a	n/a	n/a	"NULL"	n/a	"NULL"	"NULL"	"NULL"	"<p style=\"color: black; font-size: 80px; padding-left: 8%; padding-right: 40%; padding-top: 4%; padding-bottom: 43%\">+</p>"	"1125"	n/a	n/a	n/a	n/a	n/a	n/a	n/a	n/a	n/a
n/a	"image-keyboard-response"	"58"	"263281"	"0.0-5.0-2.0-1.2"	"5jrvtu"	"600"	"1366"	"chrome"	"109.0.0"	"FALSE"	"Windows 10"	"60.39"	"005"	n/a	n/a	n/a	n/a	n/a	n/a	"Trial"	n/a	n/a	n/a	"1242"	"arrowup"	n/a	"NULL"	"NULL"	"NULL"	"stimuli/MullerLyer_2.30000_0.07627.png"	n/a	"MullerLyer"	"arrowup"	"1138"	"TRUE"	"MullerLyer"	"2.3000000000"	"0.0762700000"	"1"	"21"
n/a	"html-keyboard-response"	"59"	"264571"	"0.0-5.0-2.0-0.3"	"5jrvtu"	"600"	"1366"	"chrome"	"109.0.0"	"FALSE"	"Windows 10"	"60.39"	"005"	n/a	n/a	n/a	n/a	n/a	n/a	"fixation"	n/a	n/a	n/a	n/a	"NULL"	n/a	"NULL"	"NULL"	"NULL"	"<p style=\"color: black; font-size: 80px; padding-left: 38%; padding-right: 14%; padding-top: 16%; padding-bottom: 50%\">+</p>"	"1288"	n/a	n/a	n/a	n/a	n/a	n/a	n/a	n/a	n/a
n/a	"image-keyboard-response"	"60"	"265146"	"0.0-5.0-2.0-1.3"	"5jrvtu"	"600"	"1366"	"chrome"	"109.0.0"	"FALSE"	"Windows 10"	"60.39"	"005"	n/a	n/a	n/a	n/a	n/a	n/a	"Trial"	n/a	n/a	n/a	"573"	"arrowdown"	n/a	"NULL"	"NULL"	"NULL"	"stimuli/MullerLyer_-20.04286_-0.23665.png"	n/a	"MullerLyer"	"arrowdown"	"1290"	"TRUE"	"MullerLyer"	"-20.04286000"	"-0.236650000"	"1"	"22"
n/a	"html-keyboard-response"	"61"	"266608"	"0.0-5.0-2.0-0.4"	"5jrvtu"	"600"	"1366"	"chrome"	"109.0.0"	"FALSE"	"Windows 10"	"60.39"	"005"	n/a	n/a	n/a	n/a	n/a	n/a	"fixation"	n/a	n/a	n/a	n/a	"NULL"	n/a	"NULL"	"NULL"	"NULL"	"<p style=\"color: black; font-size: 80px; padding-left: 1%; padding-right: 1%; padding-top: 17%; padding-bottom: 35%\">+</p>"	"1458"	n/a	n/a	n/a	n/a	n/a	n/a	n/a	n/a	n/a
n/a	"image-keyboard-response"	"62"	"267085"	"0.0-5.0-2.0-1.4"	"5jrvtu"	"600"	"1366"	"chrome"	"109.0.0"	"FALSE"	"Windows 10"	"60.39"	"005"	n/a	n/a	n/a	n/a	n/a	n/a	"Trial"	n/a	n/a	n/a	"475"	"arrowup"	n/a	"NULL"	"NULL"	"NULL"	"stimuli/MullerLyer_14.12857_-0.07627.png"	n/a	"MullerLyer"	"arrowdown"	"1462"	"FALSE"	"MullerLyer"	"14.128570000"	"-0.076270000"	"1"	"23"
n/a	"html-keyboard-response"	"63"	"268431"	"0.0-5.0-2.0-0.5"	"5jrvtu"	"600"	"1366"	"chrome"	"109.0.0"	"FALSE"	"Windows 10"	"60.39"	"005"	n/a	n/a	n/a	n/a	n/a	n/a	"fixation"	n/a	n/a	n/a	n/a	"NULL"	n/a	"NULL"	"NULL"	"NULL"	"<p style=\"color: black; font-size: 80px; padding-left: 35%; padding-right: 0%; padding-top: 43%; padding-bottom: 43%\">+</p>"	"1332"	n/a	n/a	n/a	n/a	n/a	n/a	n/a	n/a	n/a
n/a	"image-keyboard-response"	"64"	"269512"	"0.0-5.0-2.0-1.5"	"5jrvtu"	"600"	"1366"	"chrome"	"109.0.0"	"FALSE"	"Windows 10"	"60.39"	"005"	n/a	n/a	n/a	n/a	n/a	n/a	"Trial"	n/a	n/a	n/a	"1080"	"arrowup"	n/a	"NULL"	"NULL"	"NULL"	"stimuli/MullerLyer_-2.3000_-0.07627.png"	n/a	"MullerLyer"	"arrowdown"	"1346"	"FALSE"	"MullerLyer"	"-2.300000000"	"-0.076270000"	"1"	"24"
n/a	"html-keyboard-response"	"65"	"271006"	"0.0-5.0-2.0-0.6"	"5jrvtu"	"600"	"1366"	"chrome"	"109.0.0"	"FALSE"	"Windows 10"	"60.39"	"005"	n/a	n/a	n/a	n/a	n/a	n/a	"fixation"	n/a	n/a	n/a	n/a	"NULL"	n/a	"NULL"	"NULL"	"NULL"	"<p style=\"color: black; font-size: 80px; padding-left: 41%; padding-right: 18%; padding-top: 30%; padding-bottom: 34%\">+</p>"	"1475"	n/a	n/a	n/a	n/a	n/a	n/a	n/a	n/a	n/a
n/a	"image-keyboard-response"	"66"	"271641"	"0.0-5.0-2.0-1.6"	"5jrvtu"	"600"	"1366"	"chrome"	"109.0.0"	"FALSE"	"Windows 10"	"60.39"	"005"	n/a	n/a	n/a	n/a	n/a	n/a	"Trial"	n/a	n/a	n/a	"633"	"arrowdown"	n/a	"NULL"	"NULL"	"NULL"	"stimuli/MullerLyer_-8.21429_-0.3500.png"	n/a	"MullerLyer"	"arrowdown"	"1494"	"TRUE"	"MullerLyer"	"-8.214290000"	"-0.350000000"	"1"	"25"
n/a	"html-keyboard-response"	"67"	"272901"	"0.0-5.0-2.0-0.7"	"5jrvtu"	"600"	"1366"	"chrome"	"109.0.0"	"FALSE"	"Windows 10"	"60.39"	"005"	n/a	n/a	n/a	n/a	n/a	n/a	"fixation"	n/a	n/a	n/a	n/a	"NULL"	n/a	"NULL"	"NULL"	"NULL"	"<p style=\"color: black; font-size: 80px; padding-left: 49%; padding-right: 13%; padding-top: 30%; padding-bottom: 29%\">+</p>"	"1237"	n/a	n/a	n/a	n/a	n/a	n/a	n/a	n/a	n/a
n/a	"image-keyboard-response"	"68"	"273581"	"0.0-5.0-2.0-1.7"	"5jrvtu"	"600"	"1366"	"chrome"	"109.0.0"	"FALSE"	"Windows 10"	"60.39"	"005"	n/a	n/a	n/a	n/a	n/a	n/a	"Trial"	n/a	n/a	n/a	"678"	"arrowup"	n/a	"NULL"	"NULL"	"NULL"	"stimuli/MullerLyer_20.04286_0.35000.png"	n/a	"MullerLyer"	"arrowup"	"1260"	"TRUE"	"MullerLyer"	"20.042860000"	"0.3500000000"	"1"	"26"
n/a	"html-keyboard-response"	"69"	"275043"	"0.0-5.0-2.0-0.8"	"5jrvtu"	"600"	"1366"	"chrome"	"109.0.0"	"FALSE"	"Windows 10"	"60.39"	"005"	n/a	n/a	n/a	n/a	n/a	n/a	"fixation"	n/a	n/a	n/a	n/a	"NULL"	n/a	"NULL"	"NULL"	"NULL"	"<p style=\"color: black; font-size: 80px; padding-left: 49%; padding-right: 5%; padding-top: 23%; padding-bottom: 49%\">+</p>"	"1449"	n/a	n/a	n/a	n/a	n/a	n/a	n/a	n/a	n/a
n/a	"image-keyboard-response"	"70"	"275564"	"0.0-5.0-2.0-1.8"	"5jrvtu"	"600"	"1366"	"chrome"	"109.0.0"	"FALSE"	"Windows 10"	"60.39"	"005"	n/a	n/a	n/a	n/a	n/a	n/a	"Trial"	n/a	n/a	n/a	"518"	"arrowdown"	n/a	"NULL"	"NULL"	"NULL"	"stimuli/MullerLyer_-14.12857_-0.07627.png"	n/a	"MullerLyer"	"arrowdown"	"1462"	"TRUE"	"MullerLyer"	"-14.12857000"	"-0.076270000"	"1"	"27"
n/a	"html-keyboard-response"	"71"	"276853"	"0.0-5.0-2.0-0.9"	"5jrvtu"	"600"	"1366"	"chrome"	"109.0.0"	"FALSE"	"Windows 10"	"60.39"	"005"	n/a	n/a	n/a	n/a	n/a	n/a	"fixation"	n/a	n/a	n/a	n/a	"NULL"	n/a	"NULL"	"NULL"	"NULL"	"<p style=\"color: black; font-size: 80px; padding-left: 44%; padding-right: 31%; padding-top: 43%; padding-bottom: 2%\">+</p>"	"1271"	n/a	n/a	n/a	n/a	n/a	n/a	n/a	n/a	n/a
n/a	"image-keyboard-response"	"72"	"277363"	"0.0-5.0-2.0-1.9"	"5jrvtu"	"600"	"1366"	"chrome"	"109.0.0"	"FALSE"	"Windows 10"	"60.39"	"005"	n/a	n/a	n/a	n/a	n/a	n/a	"Trial"	n/a	n/a	n/a	"509"	"arrowdown"	n/a	"NULL"	"NULL"	"NULL"	"stimuli/MullerLyer_2.30000_-0.23665.png"	n/a	"MullerLyer"	"arrowdown"	"1289"	"TRUE"	"MullerLyer"	"2.3000000000"	"-0.236650000"	"1"	"28"
n/a	"html-keyboard-response"	"73"	"278788"	"0.0-5.0-2.0-0.10"	"5jrvtu"	"600"	"1366"	"chrome"	"109.0.0"	"FALSE"	"Windows 10"	"60.39"	"005"	n/a	n/a	n/a	n/a	n/a	n/a	"fixation"	n/a	n/a	n/a	n/a	"NULL"	n/a	"NULL"	"NULL"	"NULL"	"<p style=\"color: black; font-size: 80px; padding-left: 10%; padding-right: 39%; padding-top: 19%; padding-bottom: 50%\">+</p>"	"1419"	n/a	n/a	n/a	n/a	n/a	n/a	n/a	n/a	n/a
n/a	"image-keyboard-response"	"74"	"279428"	"0.0-5.0-2.0-1.10"	"5jrvtu"	"600"	"1366"	"chrome"	"109.0.0"	"FALSE"	"Windows 10"	"60.39"	"005"	n/a	n/a	n/a	n/a	n/a	n/a	"Trial"	n/a	n/a	n/a	"639"	"arrowdown"	n/a	"NULL"	"NULL"	"NULL"	"stimuli/MullerLyer_-20.04286_-0.14541.png"	n/a	"MullerLyer"	"arrowdown"	"1425"	"TRUE"	"MullerLyer"	"-20.04286000"	"-0.145410000"	"1"	"29"
n/a	"html-keyboard-response"	"75"	"280863"	"0.0-5.0-2.0-0.11"	"5jrvtu"	"600"	"1366"	"chrome"	"109.0.0"	"FALSE"	"Windows 10"	"60.39"	"005"	n/a	n/a	n/a	n/a	n/a	n/a	"fixation"	n/a	n/a	n/a	n/a	"NULL"	n/a	"NULL"	"NULL"	"NULL"	"<p style=\"color: black; font-size: 80px; padding-left: 4%; padding-right: 40%; padding-top: 35%; padding-bottom: 47%\">+</p>"	"1423"	n/a	n/a	n/a	n/a	n/a	n/a	n/a	n/a	n/a
n/a	"image-keyboard-response"	"76"	"281388"	"0.0-5.0-2.0-1.11"	"5jrvtu"	"600"	"1366"	"chrome"	"109.0.0"	"FALSE"	"Windows 10"	"60.39"	"005"	n/a	n/a	n/a	n/a	n/a	n/a	"Trial"	n/a	n/a	n/a	"524"	"arrowup"	n/a	"NULL"	"NULL"	"NULL"	"stimuli/MullerLyer_20.04286_0.23665.png"	n/a	"MullerLyer"	"arrowup"	"1435"	"TRUE"	"MullerLyer"	"20.042860000"	"0.2366500000"	"1"	"30"
n/a	"html-keyboard-response"	"77"	"282874"	"0.0-5.0-2.0-0.12"	"5jrvtu"	"600"	"1366"	"chrome"	"109.0.0"	"FALSE"	"Windows 10"	"60.39"	"005"	n/a	n/a	n/a	n/a	n/a	n/a	"fixation"	n/a	n/a	n/a	n/a	"NULL"	n/a	"NULL"	"NULL"	"NULL"	"<p style=\"color: black; font-size: 80px; padding-left: 30%; padding-right: 1%; padding-top: 48%; padding-bottom: 46%\">+</p>"	"1477"	n/a	n/a	n/a	n/a	n/a	n/a	n/a	n/a	n/a
n/a	"image-keyboard-response"	"78"	"283398"	"0.0-5.0-2.0-1.12"	"5jrvtu"	"600"	"1366"	"chrome"	"109.0.0"	"FALSE"	"Windows 10"	"60.39"	"005"	n/a	n/a	n/a	n/a	n/a	n/a	"Trial"	n/a	n/a	n/a	"523"	"arrowup"	n/a	"NULL"	"NULL"	"NULL"	"stimuli/MullerLyer_-2.3000_0.23665.png"	n/a	"MullerLyer"	"arrowup"	"1486"	"TRUE"	"MullerLyer"	"-2.300000000"	"0.2366500000"	"1"	"31"
n/a	"html-keyboard-response"	"79"	"284601"	"0.0-5.0-2.0-0.13"	"5jrvtu"	"600"	"1366"	"chrome"	"109.0.0"	"FALSE"	"Windows 10"	"60.39"	"005"	n/a	n/a	n/a	n/a	n/a	n/a	"fixation"	n/a	n/a	n/a	n/a	"NULL"	n/a	"NULL"	"NULL"	"NULL"	"<p style=\"color: black; font-size: 80px; padding-left: 3%; padding-right: 27%; padding-top: 1%; padding-bottom: 33%\">+</p>"	"1185"	n/a	n/a	n/a	n/a	n/a	n/a	n/a	n/a	n/a
n/a	"image-keyboard-response"	"80"	"285493"	"0.0-5.0-2.0-1.13"	"5jrvtu"	"600"	"1366"	"chrome"	"109.0.0"	"FALSE"	"Windows 10"	"60.39"	"005"	n/a	n/a	n/a	n/a	n/a	n/a	"Trial"	n/a	n/a	n/a	"890"	"arrowdown"	n/a	"NULL"	"NULL"	"NULL"	"stimuli/MullerLyer_14.12857_-0.3500.png"	n/a	"MullerLyer"	"arrowdown"	"1203"	"TRUE"	"MullerLyer"	"14.128570000"	"-0.350000000"	"1"	"32"
n/a	"html-keyboard-response"	"81"	"286587"	"0.0-5.0-2.0-0.14"	"5jrvtu"	"600"	"1366"	"chrome"	"109.0.0"	"FALSE"	"Windows 10"	"60.39"	"005"	n/a	n/a	n/a	n/a	n/a	n/a	"fixation"	n/a	n/a	n/a	n/a	"NULL"	n/a	"NULL"	"NULL"	"NULL"	"<p style=\"color: black; font-size: 80px; padding-left: 10%; padding-right: 31%; padding-top: 3%; padding-bottom: 39%\">+</p>"	"1069"	n/a	n/a	n/a	n/a	n/a	n/a	n/a	n/a	n/a
n/a	"image-keyboard-response"	"82"	"287260"	"0.0-5.0-2.0-1.14"	"5jrvtu"	"600"	"1366"	"chrome"	"109.0.0"	"FALSE"	"Windows 10"	"60.39"	"005"	n/a	n/a	n/a	n/a	n/a	n/a	"Trial"	n/a	n/a	n/a	"671"	"arrowdown"	n/a	"NULL"	"NULL"	"NULL"	"stimuli/MullerLyer_-2.3000_-0.23665.png"	n/a	"MullerLyer"	"arrowdown"	"1094"	"TRUE"	"MullerLyer"	"-2.300000000"	"-0.236650000"	"1"	"33"
n/a	"html-keyboard-response"	"83"	"288319"	"0.0-5.0-2.0-0.15"	"5jrvtu"	"600"	"1366"	"chrome"	"109.0.0"	"FALSE"	"Windows 10"	"60.39"	"005"	n/a	n/a	n/a	n/a	n/a	n/a	"fixation"	n/a	n/a	n/a	n/a	"NULL"	n/a	"NULL"	"NULL"	"NULL"	"<p style=\"color: black; font-size: 80px; padding-left: 18%; padding-right: 3%; padding-top: 42%; padding-bottom: 7%\">+</p>"	"1048"	n/a	n/a	n/a	n/a	n/a	n/a	n/a	n/a	n/a
n/a	"image-keyboard-response"	"84"	"288793"	"0.0-5.0-2.0-1.15"	"5jrvtu"	"600"	"1366"	"chrome"	"109.0.0"	"FALSE"	"Windows 10"	"60.39"	"005"	n/a	n/a	n/a	n/a	n/a	n/a	"Trial"	n/a	n/a	n/a	"473"	"arrowup"	n/a	"NULL"	"NULL"	"NULL"	"stimuli/MullerLyer_-20.04286_0.35000.png"	n/a	"MullerLyer"	"arrowup"	"1059"	"TRUE"	"MullerLyer"	"-20.04286000"	"0.3500000000"	"1"	"34"
n/a	"html-keyboard-response"	"85"	"289852"	"0.0-5.0-2.0-0.16"	"5jrvtu"	"600"	"1366"	"chrome"	"109.0.0"	"FALSE"	"Windows 10"	"60.39"	"005"	n/a	n/a	n/a	n/a	n/a	n/a	"fixation"	n/a	n/a	n/a	n/a	"NULL"	n/a	"NULL"	"NULL"	"NULL"	"<p style=\"color: black; font-size: 80px; padding-left: 8%; padding-right: 4%; padding-top: 23%; padding-bottom: 26%\">+</p>"	"1048"	n/a	n/a	n/a	n/a	n/a	n/a	n/a	n/a	n/a
n/a	"image-keyboard-response"	"86"	"291110"	"0.0-5.0-2.0-1.16"	"5jrvtu"	"600"	"1366"	"chrome"	"109.0.0"	"FALSE"	"Windows 10"	"60.39"	"005"	n/a	n/a	n/a	n/a	n/a	n/a	"Trial"	n/a	n/a	n/a	"1256"	"arrowup"	n/a	"NULL"	"NULL"	"NULL"	"stimuli/MullerLyer_2.30000_-0.07627.png"	n/a	"MullerLyer"	"arrowdown"	"1059"	"FALSE"	"MullerLyer"	"2.3000000000"	"-0.076270000"	"1"	"35"
n/a	"html-keyboard-response"	"87"	"292414"	"0.0-5.0-2.0-0.17"	"5jrvtu"	"600"	"1366"	"chrome"	"109.0.0"	"FALSE"	"Windows 10"	"60.39"	"005"	n/a	n/a	n/a	n/a	n/a	n/a	"fixation"	n/a	n/a	n/a	n/a	"NULL"	n/a	"NULL"	"NULL"	"NULL"	"<p style=\"color: black; font-size: 80px; padding-left: 29%; padding-right: 19%; padding-top: 4%; padding-bottom: 38%\">+</p>"	"1288"	n/a	n/a	n/a	n/a	n/a	n/a	n/a	n/a	n/a
n/a	"image-keyboard-response"	"88"	"292927"	"0.0-5.0-2.0-1.17"	"5jrvtu"	"600"	"1366"	"chrome"	"109.0.0"	"FALSE"	"Windows 10"	"60.39"	"005"	n/a	n/a	n/a	n/a	n/a	n/a	"Trial"	n/a	n/a	n/a	"511"	"arrowup"	n/a	"NULL"	"NULL"	"NULL"	"stimuli/MullerLyer_2.30000_0.35000.png"	n/a	"MullerLyer"	"arrowup"	"1304"	"TRUE"	"MullerLyer"	"2.3000000000"	"0.3500000000"	"1"	"36"
n/a	"html-keyboard-response"	"89"	"294323"	"0.0-5.0-2.0-0.18"	"5jrvtu"	"600"	"1366"	"chrome"	"109.0.0"	"FALSE"	"Windows 10"	"60.39"	"005"	n/a	n/a	n/a	n/a	n/a	n/a	"fixation"	n/a	n/a	n/a	n/a	"NULL"	n/a	"NULL"	"NULL"	"NULL"	"<p style=\"color: black; font-size: 80px; padding-left: 46%; padding-right: 16%; padding-top: 5%; padding-bottom: 32%\">+</p>"	"1391"	n/a	n/a	n/a	n/a	n/a	n/a	n/a	n/a	n/a
n/a	"image-keyboard-response"	"90"	"296693"	"0.0-5.0-2.0-1.18"	"5jrvtu"	"600"	"1366"	"chrome"	"109.0.0"	"FALSE"	"Windows 10"	"60.39"	"005"	n/a	n/a	n/a	n/a	n/a	n/a	"Trial"	n/a	n/a	n/a	"2369"	"arrowdown"	n/a	"NULL"	"NULL"	"NULL"	"stimuli/MullerLyer_20.04286_-0.3500.png"	n/a	"MullerLyer"	"arrowdown"	"1396"	"TRUE"	"MullerLyer"	"20.042860000"	"-0.350000000"	"1"	"37"
n/a	"html-keyboard-response"	"91"	"297978"	"0.0-5.0-2.0-0.19"	"5jrvtu"	"600"	"1366"	"chrome"	"109.0.0"	"FALSE"	"Windows 10"	"60.39"	"005"	n/a	n/a	n/a	n/a	n/a	n/a	"fixation"	n/a	n/a	n/a	n/a	"NULL"	n/a	"NULL"	"NULL"	"NULL"	"<p style=\"color: black; font-size: 80px; padding-left: 8%; padding-right: 26%; padding-top: 23%; padding-bottom: 37%\">+</p>"	"1274"	n/a	n/a	n/a	n/a	n/a	n/a	n/a	n/a	n/a
n/a	"image-keyboard-response"	"92"	"298499"	"0.0-5.0-2.0-1.19"	"5jrvtu"	"600"	"1366"	"chrome"	"109.0.0"	"FALSE"	"Windows 10"	"60.39"	"005"	n/a	n/a	n/a	n/a	n/a	n/a	"Trial"	n/a	n/a	n/a	"520"	"arrowup"	n/a	"NULL"	"NULL"	"NULL"	"stimuli/MullerLyer_-2.3000_0.35000.png"	n/a	"MullerLyer"	"arrowup"	"1285"	"TRUE"	"MullerLyer"	"-2.300000000"	"0.3500000000"	"1"	"38"
n/a	"html-keyboard-response"	"93"	"299831"	"0.0-5.0-2.0-0.20"	"5jrvtu"	"600"	"1366"	"chrome"	"109.0.0"	"FALSE"	"Windows 10"	"60.39"	"005"	n/a	n/a	n/a	n/a	n/a	n/a	"fixation"	n/a	n/a	n/a	n/a	"NULL"	n/a	"NULL"	"NULL"	"NULL"	"<p style=\"color: black; font-size: 80px; padding-left: 25%; padding-right: 47%; padding-top: 14%; padding-bottom: 12%\">+</p>"	"1323"	n/a	n/a	n/a	n/a	n/a	n/a	n/a	n/a	n/a
n/a	"image-keyboard-response"	"94"	"300355"	"0.0-5.0-2.0-1.20"	"5jrvtu"	"600"	"1366"	"chrome"	"109.0.0"	"FALSE"	"Windows 10"	"60.39"	"005"	n/a	n/a	n/a	n/a	n/a	n/a	"Trial"	n/a	n/a	n/a	"523"	"arrowdown"	n/a	"NULL"	"NULL"	"NULL"	"stimuli/MullerLyer_-20.04286_-0.3500.png"	n/a	"MullerLyer"	"arrowdown"	"1332"	"TRUE"	"MullerLyer"	"-20.04286000"	"-0.350000000"	"1"	"39"
n/a	"html-keyboard-response"	"95"	"301445"	"0.0-5.0-2.0-0.21"	"5jrvtu"	"600"	"1366"	"chrome"	"109.0.0"	"FALSE"	"Windows 10"	"60.39"	"005"	n/a	n/a	n/a	n/a	n/a	n/a	"fixation"	n/a	n/a	n/a	n/a	"NULL"	n/a	"NULL"	"NULL"	"NULL"	"<p style=\"color: black; font-size: 80px; padding-left: 5%; padding-right: 45%; padding-top: 10%; padding-bottom: 20%\">+</p>"	"1086"	n/a	n/a	n/a	n/a	n/a	n/a	n/a	n/a	n/a
n/a	"image-keyboard-response"	"96"	"302153"	"0.0-5.0-2.0-1.21"	"5jrvtu"	"600"	"1366"	"chrome"	"109.0.0"	"FALSE"	"Windows 10"	"60.39"	"005"	n/a	n/a	n/a	n/a	n/a	n/a	"Trial"	n/a	n/a	n/a	"707"	"arrowdown"	n/a	"NULL"	"NULL"	"NULL"	"stimuli/MullerLyer_-8.21429_-0.23665.png"	n/a	"MullerLyer"	"arrowdown"	"1090"	"TRUE"	"MullerLyer"	"-8.214290000"	"-0.236650000"	"1"	"40"
n/a	"html-keyboard-response"	"97"	"303662"	"0.0-5.0-2.0-0.22"	"5jrvtu"	"600"	"1366"	"chrome"	"109.0.0"	"FALSE"	"Windows 10"	"60.39"	"005"	n/a	n/a	n/a	n/a	n/a	n/a	"fixation"	n/a	n/a	n/a	n/a	"NULL"	n/a	"NULL"	"NULL"	"NULL"	"<p style=\"color: black; font-size: 80px; padding-left: 35%; padding-right: 11%; padding-top: 15%; padding-bottom: 13%\">+</p>"	"1498"	n/a	n/a	n/a	n/a	n/a	n/a	n/a	n/a	n/a
n/a	"image-keyboard-response"	"98"	"304298"	"0.0-5.0-2.0-1.22"	"5jrvtu"	"600"	"1366"	"chrome"	"109.0.0"	"FALSE"	"Windows 10"	"60.39"	"005"	n/a	n/a	n/a	n/a	n/a	n/a	"Trial"	n/a	n/a	n/a	"636"	"arrowdown"	n/a	"NULL"	"NULL"	"NULL"	"stimuli/MullerLyer_8.21429_-0.3500.png"	n/a	"MullerLyer"	"arrowdown"	"1509"	"TRUE"	"MullerLyer"	"8.2142900000"	"-0.350000000"	"1"	"41"
n/a	"html-keyboard-response"	"99"	"305795"	"0.0-5.0-2.0-0.23"	"5jrvtu"	"600"	"1366"	"chrome"	"109.0.0"	"FALSE"	"Windows 10"	"60.39"	"005"	n/a	n/a	n/a	n/a	n/a	n/a	"fixation"	n/a	n/a	n/a	n/a	"NULL"	n/a	"NULL"	"NULL"	"NULL"	"<p style=\"color: black; font-size: 80px; padding-left: 46%; padding-right: 14%; padding-top: 34%; padding-bottom: 40%\">+</p>"	"1481"	n/a	n/a	n/a	n/a	n/a	n/a	n/a	n/a	n/a
n/a	"image-keyboard-response"	"100"	"306289"	"0.0-5.0-2.0-1.23"	"5jrvtu"	"600"	"1366"	"chrome"	"109.0.0"	"FALSE"	"Windows 10"	"60.39"	"005"	n/a	n/a	n/a	n/a	n/a	n/a	"Trial"	n/a	n/a	n/a	"493"	"arrowup"	n/a	"NULL"	"NULL"	"NULL"	"stimuli/MullerLyer_8.21429_-0.23665.png"	n/a	"MullerLyer"	"arrowdown"	"1497"	"FALSE"	"MullerLyer"	"8.2142900000"	"-0.236650000"	"1"	"42"
n/a	"html-keyboard-response"	"101"	"307755"	"0.0-5.0-2.0-0.24"	"5jrvtu"	"600"	"1366"	"chrome"	"109.0.0"	"FALSE"	"Windows 10"	"60.39"	"005"	n/a	n/a	n/a	n/a	n/a	n/a	"fixation"	n/a	n/a	n/a	n/a	"NULL"	n/a	"NULL"	"NULL"	"NULL"	"<p style=\"color: black; font-size: 80px; padding-left: 48%; padding-right: 42%; padding-top: 17%; padding-bottom: 10%\">+</p>"	"1454"	n/a	n/a	n/a	n/a	n/a	n/a	n/a	n/a	n/a
n/a	"image-keyboard-response"	"102"	"308367"	"0.0-5.0-2.0-1.24"	"5jrvtu"	"600"	"1366"	"chrome"	"109.0.0"	"FALSE"	"Windows 10"	"60.39"	"005"	n/a	n/a	n/a	n/a	n/a	n/a	"Trial"	n/a	n/a	n/a	"611"	"arrowup"	n/a	"NULL"	"NULL"	"NULL"	"stimuli/MullerLyer_8.21429_0.23665.png"	n/a	"MullerLyer"	"arrowup"	"1466"	"TRUE"	"MullerLyer"	"8.2142900000"	"0.2366500000"	"1"	"43"
n/a	"html-keyboard-response"	"103"	"309815"	"0.0-5.0-2.0-0.25"	"5jrvtu"	"600"	"1366"	"chrome"	"109.0.0"	"FALSE"	"Windows 10"	"60.39"	"005"	n/a	n/a	n/a	n/a	n/a	n/a	"fixation"	n/a	n/a	n/a	n/a	"NULL"	n/a	"NULL"	"NULL"	"NULL"	"<p style=\"color: black; font-size: 80px; padding-left: 34%; padding-right: 32%; padding-top: 12%; padding-bottom: 5%\">+</p>"	"1441"	n/a	n/a	n/a	n/a	n/a	n/a	n/a	n/a	n/a
n/a	"image-keyboard-response"	"104"	"310345"	"0.0-5.0-2.0-1.25"	"5jrvtu"	"600"	"1366"	"chrome"	"109.0.0"	"FALSE"	"Windows 10"	"60.39"	"005"	n/a	n/a	n/a	n/a	n/a	n/a	"Trial"	n/a	n/a	n/a	"528"	"arrowdown"	n/a	"NULL"	"NULL"	"NULL"	"stimuli/MullerLyer_-8.21429_-0.14541.png"	n/a	"MullerLyer"	"arrowdown"	"1448"	"TRUE"	"MullerLyer"	"-8.214290000"	"-0.145410000"	"1"	"44"
n/a	"html-keyboard-response"	"105"	"311635"	"0.0-5.0-2.0-0.26"	"5jrvtu"	"600"	"1366"	"chrome"	"109.0.0"	"FALSE"	"Windows 10"	"60.39"	"005"	n/a	n/a	n/a	n/a	n/a	n/a	"fixation"	n/a	n/a	n/a	n/a	"NULL"	n/a	"NULL"	"NULL"	"NULL"	"<p style=\"color: black; font-size: 80px; padding-left: 17%; padding-right: 23%; padding-top: 3%; padding-bottom: 31%\">+</p>"	"1288"	n/a	n/a	n/a	n/a	n/a	n/a	n/a	n/a	n/a
n/a	"image-keyboard-response"	"106"	"313095"	"0.0-5.0-2.0-1.26"	"5jrvtu"	"600"	"1366"	"chrome"	"109.0.0"	"FALSE"	"Windows 10"	"60.39"	"005"	n/a	n/a	n/a	n/a	n/a	n/a	"Trial"	n/a	n/a	n/a	"1455"	"arrowdown"	n/a	"NULL"	"NULL"	"NULL"	"stimuli/MullerLyer_2.30000_-0.14541.png"	n/a	"MullerLyer"	"arrowdown"	"1290"	"TRUE"	"MullerLyer"	"2.3000000000"	"-0.145410000"	"1"	"45"
n/a	"html-keyboard-response"	"107"	"314570"	"0.0-5.0-2.0-0.27"	"5jrvtu"	"600"	"1366"	"chrome"	"109.0.0"	"FALSE"	"Windows 10"	"60.39"	"005"	n/a	n/a	n/a	n/a	n/a	n/a	"fixation"	n/a	n/a	n/a	n/a	"NULL"	n/a	"NULL"	"NULL"	"NULL"	"<p style=\"color: black; font-size: 80px; padding-left: 49%; padding-right: 6%; padding-top: 33%; padding-bottom: 7%\">+</p>"	"1468"	n/a	n/a	n/a	n/a	n/a	n/a	n/a	n/a	n/a
n/a	"image-keyboard-response"	"108"	"315161"	"0.0-5.0-2.0-1.27"	"5jrvtu"	"600"	"1366"	"chrome"	"109.0.0"	"FALSE"	"Windows 10"	"60.39"	"005"	n/a	n/a	n/a	n/a	n/a	n/a	"Trial"	n/a	n/a	n/a	"590"	"arrowup"	n/a	"NULL"	"NULL"	"NULL"	"stimuli/MullerLyer_-8.21429_0.23665.png"	n/a	"MullerLyer"	"arrowup"	"1475"	"TRUE"	"MullerLyer"	"-8.214290000"	"0.2366500000"	"1"	"46"
n/a	"html-keyboard-response"	"109"	"316273"	"0.0-5.0-2.0-0.28"	"5jrvtu"	"600"	"1366"	"chrome"	"109.0.0"	"FALSE"	"Windows 10"	"60.39"	"005"	n/a	n/a	n/a	n/a	n/a	n/a	"fixation"	n/a	n/a	n/a	n/a	"NULL"	n/a	"NULL"	"NULL"	"NULL"	"<p style=\"color: black; font-size: 80px; padding-left: 6%; padding-right: 24%; padding-top: 14%; padding-bottom: 42%\">+</p>"	"1098"	n/a	n/a	n/a	n/a	n/a	n/a	n/a	n/a	n/a
n/a	"image-keyboard-response"	"110"	"316896"	"0.0-5.0-2.0-1.28"	"5jrvtu"	"600"	"1366"	"chrome"	"109.0.0"	"FALSE"	"Windows 10"	"60.39"	"005"	n/a	n/a	n/a	n/a	n/a	n/a	"Trial"	n/a	n/a	n/a	"622"	"arrowup"	n/a	"NULL"	"NULL"	"NULL"	"stimuli/MullerLyer_14.12857_0.35000.png"	n/a	"MullerLyer"	"arrowup"	"1112"	"TRUE"	"MullerLyer"	"14.128570000"	"0.3500000000"	"1"	"47"
n/a	"html-keyboard-response"	"111"	"317922"	"0.0-5.0-2.0-0.29"	"5jrvtu"	"600"	"1366"	"chrome"	"109.0.0"	"FALSE"	"Windows 10"	"60.39"	"005"	n/a	n/a	n/a	n/a	n/a	n/a	"fixation"	n/a	n/a	n/a	n/a	"NULL"	n/a	"NULL"	"NULL"	"NULL"	"<p style=\"color: black; font-size: 80px; padding-left: 26%; padding-right: 32%; padding-top: 48%; padding-bottom: 28%\">+</p>"	"1009"	n/a	n/a	n/a	n/a	n/a	n/a	n/a	n/a	n/a
n/a	"image-keyboard-response"	"112"	"318482"	"0.0-5.0-2.0-1.29"	"5jrvtu"	"600"	"1366"	"chrome"	"109.0.0"	"FALSE"	"Windows 10"	"60.39"	"005"	n/a	n/a	n/a	n/a	n/a	n/a	"Trial"	n/a	n/a	n/a	"559"	"arrowdown"	n/a	"NULL"	"NULL"	"NULL"	"stimuli/MullerLyer_-14.12857_-0.23665.png"	n/a	"MullerLyer"	"arrowdown"	"1026"	"TRUE"	"MullerLyer"	"-14.12857000"	"-0.236650000"	"1"	"48"
n/a	"html-keyboard-response"	"113"	"319993"	"0.0-5.0-2.0-0.30"	"5jrvtu"	"600"	"1366"	"chrome"	"109.0.0"	"FALSE"	"Windows 10"	"60.39"	"005"	n/a	n/a	n/a	n/a	n/a	n/a	"fixation"	n/a	n/a	n/a	n/a	"NULL"	n/a	"NULL"	"NULL"	"NULL"	"<p style=\"color: black; font-size: 80px; padding-left: 38%; padding-right: 14%; padding-top: 21%; padding-bottom: 14%\">+</p>"	"1496"	n/a	n/a	n/a	n/a	n/a	n/a	n/a	n/a	n/a
n/a	"image-keyboard-response"	"114"	"320973"	"0.0-5.0-2.0-1.30"	"5jrvtu"	"600"	"1366"	"chrome"	"109.0.0"	"FALSE"	"Windows 10"	"60.39"	"005"	n/a	n/a	n/a	n/a	n/a	n/a	"Trial"	n/a	n/a	n/a	"979"	"arrowup"	n/a	"NULL"	"NULL"	"NULL"	"stimuli/MullerLyer_-2.3000_0.07627.png"	n/a	"MullerLyer"	"arrowup"	"1511"	"TRUE"	"MullerLyer"	"-2.300000000"	"0.0762700000"	"1"	"49"
n/a	"html-keyboard-response"	"115"	"322072"	"0.0-5.0-2.0-0.31"	"5jrvtu"	"600"	"1366"	"chrome"	"109.0.0"	"FALSE"	"Windows 10"	"60.39"	"005"	n/a	n/a	n/a	n/a	n/a	n/a	"fixation"	n/a	n/a	n/a	n/a	"NULL"	n/a	"NULL"	"NULL"	"NULL"	"<p style=\"color: black; font-size: 80px; padding-left: 29%; padding-right: 39%; padding-top: 40%; padding-bottom: 49%\">+</p>"	"1080"	n/a	n/a	n/a	n/a	n/a	n/a	n/a	n/a	n/a
n/a	"image-keyboard-response"	"116"	"322609"	"0.0-5.0-2.0-1.31"	"5jrvtu"	"600"	"1366"	"chrome"	"109.0.0"	"FALSE"	"Windows 10"	"60.39"	"005"	n/a	n/a	n/a	n/a	n/a	n/a	"Trial"	n/a	n/a	n/a	"537"	"arrowup"	n/a	"NULL"	"NULL"	"NULL"	"stimuli/MullerLyer_20.04286_-0.07627.png"	n/a	"MullerLyer"	"arrowdown"	"1099"	"FALSE"	"MullerLyer"	"20.042860000"	"-0.076270000"	"1"	"50"
n/a	"html-keyboard-response"	"117"	"323785"	"0.0-5.0-2.0-0.32"	"5jrvtu"	"600"	"1366"	"chrome"	"109.0.0"	"FALSE"	"Windows 10"	"60.39"	"005"	n/a	n/a	n/a	n/a	n/a	n/a	"fixation"	n/a	n/a	n/a	n/a	"NULL"	n/a	"NULL"	"NULL"	"NULL"	"<p style=\"color: black; font-size: 80px; padding-left: 29%; padding-right: 36%; padding-top: 48%; padding-bottom: 3%\">+</p>"	"1166"	n/a	n/a	n/a	n/a	n/a	n/a	n/a	n/a	n/a
n/a	"image-keyboard-response"	"118"	"324897"	"0.0-5.0-2.0-1.32"	"5jrvtu"	"600"	"1366"	"chrome"	"109.0.0"	"FALSE"	"Windows 10"	"60.39"	"005"	n/a	n/a	n/a	n/a	n/a	n/a	"Trial"	n/a	n/a	n/a	"1112"	"arrowup"	n/a	"NULL"	"NULL"	"NULL"	"stimuli/MullerLyer_8.21429_0.07627.png"	n/a	"MullerLyer"	"arrowup"	"1176"	"TRUE"	"MullerLyer"	"8.2142900000"	"0.0762700000"	"1"	"51"
n/a	"html-keyboard-response"	"119"	"326057"	"0.0-5.0-2.0-0.33"	"5jrvtu"	"600"	"1366"	"chrome"	"109.0.0"	"FALSE"	"Windows 10"	"60.39"	"005"	n/a	n/a	n/a	n/a	n/a	n/a	"fixation"	n/a	n/a	n/a	n/a	"NULL"	n/a	"NULL"	"NULL"	"NULL"	"<p style=\"color: black; font-size: 80px; padding-left: 22%; padding-right: 2%; padding-top: 15%; padding-bottom: 27%\">+</p>"	"1140"	n/a	n/a	n/a	n/a	n/a	n/a	n/a	n/a	n/a
n/a	"image-keyboard-response"	"120"	"327015"	"0.0-5.0-2.0-1.33"	"5jrvtu"	"600"	"1366"	"chrome"	"109.0.0"	"FALSE"	"Windows 10"	"60.39"	"005"	n/a	n/a	n/a	n/a	n/a	n/a	"Trial"	n/a	n/a	n/a	"957"	"arrowup"	n/a	"NULL"	"NULL"	"NULL"	"stimuli/MullerLyer_14.12857_0.23665.png"	n/a	"MullerLyer"	"arrowup"	"1160"	"TRUE"	"MullerLyer"	"14.128570000"	"0.2366500000"	"1"	"52"
n/a	"html-keyboard-response"	"121"	"328407"	"0.0-5.0-2.0-0.34"	"5jrvtu"	"600"	"1366"	"chrome"	"109.0.0"	"FALSE"	"Windows 10"	"60.39"	"005"	n/a	n/a	n/a	n/a	n/a	n/a	"fixation"	n/a	n/a	n/a	n/a	"NULL"	n/a	"NULL"	"NULL"	"NULL"	"<p style=\"color: black; font-size: 80px; padding-left: 44%; padding-right: 5%; padding-top: 14%; padding-bottom: 32%\">+</p>"	"1387"	n/a	n/a	n/a	n/a	n/a	n/a	n/a	n/a	n/a
n/a	"image-keyboard-response"	"122"	"329021"	"0.0-5.0-2.0-1.34"	"5jrvtu"	"600"	"1366"	"chrome"	"109.0.0"	"FALSE"	"Windows 10"	"60.39"	"005"	n/a	n/a	n/a	n/a	n/a	n/a	"Trial"	n/a	n/a	n/a	"612"	"arrowdown"	n/a	"NULL"	"NULL"	"NULL"	"stimuli/MullerLyer_-20.04286_-0.07627.png"	n/a	"MullerLyer"	"arrowdown"	"1392"	"TRUE"	"MullerLyer"	"-20.04286000"	"-0.076270000"	"1"	"53"
n/a	"html-keyboard-response"	"123"	"330312"	"0.0-5.0-2.0-0.35"	"5jrvtu"	"600"	"1366"	"chrome"	"109.0.0"	"FALSE"	"Windows 10"	"60.39"	"005"	n/a	n/a	n/a	n/a	n/a	n/a	"fixation"	n/a	n/a	n/a	n/a	"NULL"	n/a	"NULL"	"NULL"	"NULL"	"<p style=\"color: black; font-size: 80px; padding-left: 21%; padding-right: 41%; padding-top: 37%; padding-bottom: 49%\">+</p>"	"1272"	n/a	n/a	n/a	n/a	n/a	n/a	n/a	n/a	n/a
n/a	"image-keyboard-response"	"124"	"331702"	"0.0-5.0-2.0-1.35"	"5jrvtu"	"600"	"1366"	"chrome"	"109.0.0"	"FALSE"	"Windows 10"	"60.39"	"005"	n/a	n/a	n/a	n/a	n/a	n/a	"Trial"	n/a	n/a	n/a	"1390"	"arrowdown"	n/a	"NULL"	"NULL"	"NULL"	"stimuli/MullerLyer_14.12857_0.07627.png"	n/a	"MullerLyer"	"arrowup"	"1291"	"FALSE"	"MullerLyer"	"14.128570000"	"0.0762700000"	"1"	"54"
n/a	"html-keyboard-response"	"125"	"332777"	"0.0-5.0-2.0-0.36"	"5jrvtu"	"600"	"1366"	"chrome"	"109.0.0"	"FALSE"	"Windows 10"	"60.39"	"005"	n/a	n/a	n/a	n/a	n/a	n/a	"fixation"	n/a	n/a	n/a	n/a	"NULL"	n/a	"NULL"	"NULL"	"NULL"	"<p style=\"color: black; font-size: 80px; padding-left: 19%; padding-right: 43%; padding-top: 36%; padding-bottom: 34%\">+</p>"	"1064"	n/a	n/a	n/a	n/a	n/a	n/a	n/a	n/a	n/a
n/a	"image-keyboard-response"	"126"	"333269"	"0.0-5.0-2.0-1.36"	"5jrvtu"	"600"	"1366"	"chrome"	"109.0.0"	"FALSE"	"Windows 10"	"60.39"	"005"	n/a	n/a	n/a	n/a	n/a	n/a	"Trial"	n/a	n/a	n/a	"490"	"arrowup"	n/a	"NULL"	"NULL"	"NULL"	"stimuli/MullerLyer_-14.12857_0.14541.png"	n/a	"MullerLyer"	"arrowup"	"1075"	"TRUE"	"MullerLyer"	"-14.12857000"	"0.1454100000"	"1"	"55"
n/a	"html-keyboard-response"	"127"	"334766"	"0.0-5.0-2.0-0.37"	"5jrvtu"	"600"	"1366"	"chrome"	"109.0.0"	"FALSE"	"Windows 10"	"60.39"	"005"	n/a	n/a	n/a	n/a	n/a	n/a	"fixation"	n/a	n/a	n/a	n/a	"NULL"	n/a	"NULL"	"NULL"	"NULL"	"<p style=\"color: black; font-size: 80px; padding-left: 11%; padding-right: 44%; padding-top: 24%; padding-bottom: 49%\">+</p>"	"1481"	n/a	n/a	n/a	n/a	n/a	n/a	n/a	n/a	n/a
n/a	"image-keyboard-response"	"128"	"336811"	"0.0-5.0-2.0-1.37"	"5jrvtu"	"600"	"1366"	"chrome"	"109.0.0"	"FALSE"	"Windows 10"	"60.39"	"005"	n/a	n/a	n/a	n/a	n/a	n/a	"Trial"	n/a	n/a	n/a	"2043"	"arrowdown"	n/a	"NULL"	"NULL"	"NULL"	"stimuli/MullerLyer_14.12857_0.14541.png"	n/a	"MullerLyer"	"arrowup"	"1497"	"FALSE"	"MullerLyer"	"14.128570000"	"0.1454100000"	"1"	"56"
n/a	"html-keyboard-response"	"129"	"337930"	"0.0-5.0-2.0-0.38"	"5jrvtu"	"600"	"1366"	"chrome"	"109.0.0"	"FALSE"	"Windows 10"	"60.39"	"005"	n/a	n/a	n/a	n/a	n/a	n/a	"fixation"	n/a	n/a	n/a	n/a	"NULL"	n/a	"NULL"	"NULL"	"NULL"	"<p style=\"color: black; font-size: 80px; padding-left: 36%; padding-right: 23%; padding-top: 17%; padding-bottom: 21%\">+</p>"	"1095"	n/a	n/a	n/a	n/a	n/a	n/a	n/a	n/a	n/a
n/a	"image-keyboard-response"	"130"	"338438"	"0.0-5.0-2.0-1.38"	"5jrvtu"	"600"	"1366"	"chrome"	"109.0.0"	"FALSE"	"Windows 10"	"60.39"	"005"	n/a	n/a	n/a	n/a	n/a	n/a	"Trial"	n/a	n/a	n/a	"507"	"arrowup"	n/a	"NULL"	"NULL"	"NULL"	"stimuli/MullerLyer_8.21429_0.35000.png"	n/a	"MullerLyer"	"arrowup"	"1119"	"TRUE"	"MullerLyer"	"8.2142900000"	"0.3500000000"	"1"	"57"
n/a	"html-keyboard-response"	"131"	"339899"	"0.0-5.0-2.0-0.39"	"5jrvtu"	"600"	"1366"	"chrome"	"109.0.0"	"FALSE"	"Windows 10"	"60.39"	"005"	n/a	n/a	n/a	n/a	n/a	n/a	"fixation"	n/a	n/a	n/a	n/a	"NULL"	n/a	"NULL"	"NULL"	"NULL"	"<p style=\"color: black; font-size: 80px; padding-left: 21%; padding-right: 37%; padding-top: 28%; padding-bottom: 39%\">+</p>"	"1449"	n/a	n/a	n/a	n/a	n/a	n/a	n/a	n/a	n/a
n/a	"image-keyboard-response"	"132"	"340466"	"0.0-5.0-2.0-1.39"	"5jrvtu"	"600"	"1366"	"chrome"	"109.0.0"	"FALSE"	"Windows 10"	"60.39"	"005"	n/a	n/a	n/a	n/a	n/a	n/a	"Trial"	n/a	n/a	n/a	"566"	"arrowup"	n/a	"NULL"	"NULL"	"NULL"	"stimuli/MullerLyer_-8.21429_0.14541.png"	n/a	"MullerLyer"	"arrowup"	"1461"	"TRUE"	"MullerLyer"	"-8.214290000"	"0.1454100000"	"1"	"58"
n/a	"html-keyboard-response"	"133"	"341619"	"0.0-5.0-2.0-0.40"	"5jrvtu"	"600"	"1366"	"chrome"	"109.0.0"	"FALSE"	"Windows 10"	"60.39"	"005"	n/a	n/a	n/a	n/a	n/a	n/a	"fixation"	n/a	n/a	n/a	n/a	"NULL"	n/a	"NULL"	"NULL"	"NULL"	"<p style=\"color: black; font-size: 80px; padding-left: 2%; padding-right: 8%; padding-top: 17%; padding-bottom: 6%\">+</p>"	"1138"	n/a	n/a	n/a	n/a	n/a	n/a	n/a	n/a	n/a
n/a	"image-keyboard-response"	"134"	"342131"	"0.0-5.0-2.0-1.40"	"5jrvtu"	"600"	"1366"	"chrome"	"109.0.0"	"FALSE"	"Windows 10"	"60.39"	"005"	n/a	n/a	n/a	n/a	n/a	n/a	"Trial"	n/a	n/a	n/a	"511"	"arrowup"	n/a	"NULL"	"NULL"	"NULL"	"stimuli/MullerLyer_-2.3000_0.14541.png"	n/a	"MullerLyer"	"arrowup"	"1153"	"TRUE"	"MullerLyer"	"-2.300000000"	"0.1454100000"	"1"	"59"
n/a	"html-keyboard-response"	"135"	"343604"	"0.0-5.0-2.0-0.41"	"5jrvtu"	"600"	"1366"	"chrome"	"109.0.0"	"FALSE"	"Windows 10"	"60.39"	"005"	n/a	n/a	n/a	n/a	n/a	n/a	"fixation"	n/a	n/a	n/a	n/a	"NULL"	n/a	"NULL"	"NULL"	"NULL"	"<p style=\"color: black; font-size: 80px; padding-left: 41%; padding-right: 1%; padding-top: 17%; padding-bottom: 33%\">+</p>"	"1462"	n/a	n/a	n/a	n/a	n/a	n/a	n/a	n/a	n/a
n/a	"image-keyboard-response"	"136"	"344172"	"0.0-5.0-2.0-1.41"	"5jrvtu"	"600"	"1366"	"chrome"	"109.0.0"	"FALSE"	"Windows 10"	"60.39"	"005"	n/a	n/a	n/a	n/a	n/a	n/a	"Trial"	n/a	n/a	n/a	"566"	"arrowdown"	n/a	"NULL"	"NULL"	"NULL"	"stimuli/MullerLyer_-2.3000_-0.14541.png"	n/a	"MullerLyer"	"arrowdown"	"1473"	"TRUE"	"MullerLyer"	"-2.300000000"	"-0.145410000"	"1"	"60"
n/a	"html-keyboard-response"	"137"	"345450"	"0.0-5.0-2.0-0.42"	"5jrvtu"	"600"	"1366"	"chrome"	"109.0.0"	"FALSE"	"Windows 10"	"60.39"	"005"	n/a	n/a	n/a	n/a	n/a	n/a	"fixation"	n/a	n/a	n/a	n/a	"NULL"	n/a	"NULL"	"NULL"	"NULL"	"<p style=\"color: black; font-size: 80px; padding-left: 50%; padding-right: 27%; padding-top: 31%; padding-bottom: 25%\">+</p>"	"1257"	n/a	n/a	n/a	n/a	n/a	n/a	n/a	n/a	n/a
n/a	"image-keyboard-response"	"138"	"345992"	"0.0-5.0-2.0-1.42"	"5jrvtu"	"600"	"1366"	"chrome"	"109.0.0"	"FALSE"	"Windows 10"	"60.39"	"005"	n/a	n/a	n/a	n/a	n/a	n/a	"Trial"	n/a	n/a	n/a	"541"	"arrowup"	n/a	"NULL"	"NULL"	"NULL"	"stimuli/MullerLyer_-8.21429_0.07627.png"	n/a	"MullerLyer"	"arrowup"	"1278"	"TRUE"	"MullerLyer"	"-8.214290000"	"0.0762700000"	"1"	"61"
n/a	"html-keyboard-response"	"139"	"347445"	"0.0-5.0-2.0-0.43"	"5jrvtu"	"600"	"1366"	"chrome"	"109.0.0"	"FALSE"	"Windows 10"	"60.39"	"005"	n/a	n/a	n/a	n/a	n/a	n/a	"fixation"	n/a	n/a	n/a	n/a	"NULL"	n/a	"NULL"	"NULL"	"NULL"	"<p style=\"color: black; font-size: 80px; padding-left: 39%; padding-right: 45%; padding-top: 4%; padding-bottom: 43%\">+</p>"	"1434"	n/a	n/a	n/a	n/a	n/a	n/a	n/a	n/a	n/a
n/a	"image-keyboard-response"	"140"	"347921"	"0.0-5.0-2.0-1.43"	"5jrvtu"	"600"	"1366"	"chrome"	"109.0.0"	"FALSE"	"Windows 10"	"60.39"	"005"	n/a	n/a	n/a	n/a	n/a	n/a	"Trial"	n/a	n/a	n/a	"475"	"arrowup"	n/a	"NULL"	"NULL"	"NULL"	"stimuli/MullerLyer_-20.04286_0.14541.png"	n/a	"MullerLyer"	"arrowup"	"1453"	"TRUE"	"MullerLyer"	"-20.04286000"	"0.1454100000"	"1"	"62"
n/a	"html-keyboard-response"	"141"	"349158"	"0.0-5.0-2.0-0.44"	"5jrvtu"	"600"	"1366"	"chrome"	"109.0.0"	"FALSE"	"Windows 10"	"60.39"	"005"	n/a	n/a	n/a	n/a	n/a	n/a	"fixation"	n/a	n/a	n/a	n/a	"NULL"	n/a	"NULL"	"NULL"	"NULL"	"<p style=\"color: black; font-size: 80px; padding-left: 29%; padding-right: 43%; padding-top: 32%; padding-bottom: 13%\">+</p>"	"1221"	n/a	n/a	n/a	n/a	n/a	n/a	n/a	n/a	n/a
n/a	"image-keyboard-response"	"142"	"349727"	"0.0-5.0-2.0-1.44"	"5jrvtu"	"600"	"1366"	"chrome"	"109.0.0"	"FALSE"	"Windows 10"	"60.39"	"005"	n/a	n/a	n/a	n/a	n/a	n/a	"Trial"	n/a	n/a	n/a	"568"	"arrowup"	n/a	"NULL"	"NULL"	"NULL"	"stimuli/MullerLyer_2.30000_0.23665.png"	n/a	"MullerLyer"	"arrowup"	"1237"	"TRUE"	"MullerLyer"	"2.3000000000"	"0.2366500000"	"1"	"63"
n/a	"html-keyboard-response"	"143"	"351203"	"0.0-5.0-2.0-0.45"	"5jrvtu"	"600"	"1366"	"chrome"	"109.0.0"	"FALSE"	"Windows 10"	"60.39"	"005"	n/a	n/a	n/a	n/a	n/a	n/a	"fixation"	n/a	n/a	n/a	n/a	"NULL"	n/a	"NULL"	"NULL"	"NULL"	"<p style=\"color: black; font-size: 80px; padding-left: 32%; padding-right: 43%; padding-top: 20%; padding-bottom: 31%\">+</p>"	"1470"	n/a	n/a	n/a	n/a	n/a	n/a	n/a	n/a	n/a
n/a	"image-keyboard-response"	"144"	"351676"	"0.0-5.0-2.0-1.45"	"5jrvtu"	"600"	"1366"	"chrome"	"109.0.0"	"FALSE"	"Windows 10"	"60.39"	"005"	n/a	n/a	n/a	n/a	n/a	n/a	"Trial"	n/a	n/a	n/a	"472"	"arrowup"	n/a	"NULL"	"NULL"	"NULL"	"stimuli/MullerLyer_14.12857_-0.14541.png"	n/a	"MullerLyer"	"arrowdown"	"1476"	"FALSE"	"MullerLyer"	"14.128570000"	"-0.145410000"	"1"	"64"
n/a	"html-keyboard-response"	"145"	"352770"	"0.0-5.0-2.0-0.46"	"5jrvtu"	"600"	"1366"	"chrome"	"109.0.0"	"FALSE"	"Windows 10"	"60.39"	"005"	n/a	n/a	n/a	n/a	n/a	n/a	"fixation"	n/a	n/a	n/a	n/a	"NULL"	n/a	"NULL"	"NULL"	"NULL"	"<p style=\"color: black; font-size: 80px; padding-left: 47%; padding-right: 35%; padding-top: 22%; padding-bottom: 26%\">+</p>"	"1081"	n/a	n/a	n/a	n/a	n/a	n/a	n/a	n/a	n/a
n/a	"image-keyboard-response"	"146"	"353311"	"0.0-5.0-2.0-1.46"	"5jrvtu"	"600"	"1366"	"chrome"	"109.0.0"	"FALSE"	"Windows 10"	"60.39"	"005"	n/a	n/a	n/a	n/a	n/a	n/a	"Trial"	n/a	n/a	n/a	"540"	"arrowup"	n/a	"NULL"	"NULL"	"NULL"	"stimuli/MullerLyer_20.04286_-0.23665.png"	n/a	"MullerLyer"	"arrowdown"	"1094"	"FALSE"	"MullerLyer"	"20.042860000"	"-0.236650000"	"1"	"65"
n/a	"html-keyboard-response"	"147"	"354694"	"0.0-5.0-2.0-0.47"	"5jrvtu"	"600"	"1366"	"chrome"	"109.0.0"	"FALSE"	"Windows 10"	"60.39"	"005"	n/a	n/a	n/a	n/a	n/a	n/a	"fixation"	n/a	n/a	n/a	n/a	"NULL"	n/a	"NULL"	"NULL"	"NULL"	"<p style=\"color: black; font-size: 80px; padding-left: 18%; padding-right: 23%; padding-top: 41%; padding-bottom: 30%\">+</p>"	"1364"	n/a	n/a	n/a	n/a	n/a	n/a	n/a	n/a	n/a
n/a	"image-keyboard-response"	"148"	"355274"	"0.0-5.0-2.0-1.47"	"5jrvtu"	"600"	"1366"	"chrome"	"109.0.0"	"FALSE"	"Windows 10"	"60.39"	"005"	n/a	n/a	n/a	n/a	n/a	n/a	"Trial"	n/a	n/a	n/a	"579"	"arrowdown"	n/a	"NULL"	"NULL"	"NULL"	"stimuli/MullerLyer_-14.12857_-0.3500.png"	n/a	"MullerLyer"	"arrowdown"	"1383"	"TRUE"	"MullerLyer"	"-14.12857000"	"-0.350000000"	"1"	"66"
n/a	"html-keyboard-response"	"149"	"356712"	"0.0-5.0-2.0-0.48"	"5jrvtu"	"600"	"1366"	"chrome"	"109.0.0"	"FALSE"	"Windows 10"	"60.39"	"005"	n/a	n/a	n/a	n/a	n/a	n/a	"fixation"	n/a	n/a	n/a	n/a	"NULL"	n/a	"NULL"	"NULL"	"NULL"	"<p style=\"color: black; font-size: 80px; padding-left: 38%; padding-right: 13%; padding-top: 47%; padding-bottom: 33%\">+</p>"	"1434"	n/a	n/a	n/a	n/a	n/a	n/a	n/a	n/a	n/a
n/a	"image-keyboard-response"	"150"	"357381"	"0.0-5.0-2.0-1.48"	"5jrvtu"	"600"	"1366"	"chrome"	"109.0.0"	"FALSE"	"Windows 10"	"60.39"	"005"	n/a	n/a	n/a	n/a	n/a	n/a	"Trial"	n/a	n/a	n/a	"668"	"arrowup"	n/a	"NULL"	"NULL"	"NULL"	"stimuli/MullerLyer_2.30000_0.14541.png"	n/a	"MullerLyer"	"arrowup"	"1438"	"TRUE"	"MullerLyer"	"2.3000000000"	"0.1454100000"	"1"	"67"
n/a	"html-keyboard-response"	"151"	"358631"	"0.0-5.0-2.0-0.49"	"5jrvtu"	"600"	"1366"	"chrome"	"109.0.0"	"FALSE"	"Windows 10"	"60.39"	"005"	n/a	n/a	n/a	n/a	n/a	n/a	"fixation"	n/a	n/a	n/a	n/a	"NULL"	n/a	"NULL"	"NULL"	"NULL"	"<p style=\"color: black; font-size: 80px; padding-left: 3%; padding-right: 13%; padding-top: 49%; padding-bottom: 48%\">+</p>"	"1238"	n/a	n/a	n/a	n/a	n/a	n/a	n/a	n/a	n/a
n/a	"image-keyboard-response"	"152"	"360493"	"0.0-5.0-2.0-1.49"	"5jrvtu"	"600"	"1366"	"chrome"	"109.0.0"	"FALSE"	"Windows 10"	"60.39"	"005"	n/a	n/a	n/a	n/a	n/a	n/a	"Trial"	n/a	n/a	n/a	"1860"	"arrowup"	n/a	"NULL"	"NULL"	"NULL"	"stimuli/MullerLyer_8.21429_0.14541.png"	n/a	"MullerLyer"	"arrowup"	"1250"	"TRUE"	"MullerLyer"	"8.2142900000"	"0.1454100000"	"1"	"68"
n/a	"html-keyboard-response"	"153"	"361895"	"0.0-5.0-2.0-0.50"	"5jrvtu"	"600"	"1366"	"chrome"	"109.0.0"	"FALSE"	"Windows 10"	"60.39"	"005"	n/a	n/a	n/a	n/a	n/a	n/a	"fixation"	n/a	n/a	n/a	n/a	"NULL"	n/a	"NULL"	"NULL"	"NULL"	"<p style=\"color: black; font-size: 80px; padding-left: 46%; padding-right: 6%; padding-top: 49%; padding-bottom: 28%\">+</p>"	"1383"	n/a	n/a	n/a	n/a	n/a	n/a	n/a	n/a	n/a
n/a	"image-keyboard-response"	"154"	"364336"	"0.0-5.0-2.0-1.50"	"5jrvtu"	"600"	"1366"	"chrome"	"109.0.0"	"FALSE"	"Windows 10"	"60.39"	"005"	n/a	n/a	n/a	n/a	n/a	n/a	"Trial"	n/a	n/a	n/a	"2439"	"arrowdown"	n/a	"NULL"	"NULL"	"NULL"	"stimuli/MullerLyer_14.12857_-0.23665.png"	n/a	"MullerLyer"	"arrowdown"	"1402"	"TRUE"	"MullerLyer"	"14.128570000"	"-0.236650000"	"1"	"69"
n/a	"html-keyboard-response"	"155"	"365443"	"0.0-5.0-2.0-0.51"	"5jrvtu"	"600"	"1366"	"chrome"	"109.0.0"	"FALSE"	"Windows 10"	"60.39"	"005"	n/a	n/a	n/a	n/a	n/a	n/a	"fixation"	n/a	n/a	n/a	n/a	"NULL"	n/a	"NULL"	"NULL"	"NULL"	"<p style=\"color: black; font-size: 80px; padding-left: 18%; padding-right: 17%; padding-top: 9%; padding-bottom: 42%\">+</p>"	"1095"	n/a	n/a	n/a	n/a	n/a	n/a	n/a	n/a	n/a
n/a	"image-keyboard-response"	"156"	"365963"	"0.0-5.0-2.0-1.51"	"5jrvtu"	"600"	"1366"	"chrome"	"109.0.0"	"FALSE"	"Windows 10"	"60.39"	"005"	n/a	n/a	n/a	n/a	n/a	n/a	"Trial"	n/a	n/a	n/a	"519"	"arrowup"	n/a	"NULL"	"NULL"	"NULL"	"stimuli/MullerLyer_-14.12857_0.23665.png"	n/a	"MullerLyer"	"arrowup"	"1107"	"TRUE"	"MullerLyer"	"-14.12857000"	"0.2366500000"	"1"	"70"
n/a	"html-keyboard-response"	"157"	"367087"	"0.0-5.0-2.0-0.52"	"5jrvtu"	"600"	"1366"	"chrome"	"109.0.0"	"FALSE"	"Windows 10"	"60.39"	"005"	n/a	n/a	n/a	n/a	n/a	n/a	"fixation"	n/a	n/a	n/a	n/a	"NULL"	n/a	"NULL"	"NULL"	"NULL"	"<p style=\"color: black; font-size: 80px; padding-left: 24%; padding-right: 6%; padding-top: 21%; padding-bottom: 19%\">+</p>"	"1106"	n/a	n/a	n/a	n/a	n/a	n/a	n/a	n/a	n/a
n/a	"image-keyboard-response"	"158"	"367643"	"0.0-5.0-2.0-1.52"	"5jrvtu"	"600"	"1366"	"chrome"	"109.0.0"	"FALSE"	"Windows 10"	"60.39"	"005"	n/a	n/a	n/a	n/a	n/a	n/a	"Trial"	n/a	n/a	n/a	"556"	"arrowdown"	n/a	"NULL"	"NULL"	"NULL"	"stimuli/MullerLyer_-2.3000_-0.3500.png"	n/a	"MullerLyer"	"arrowdown"	"1124"	"TRUE"	"MullerLyer"	"-2.300000000"	"-0.350000000"	"1"	"71"
n/a	"html-keyboard-response"	"159"	"368920"	"0.0-5.0-2.0-0.53"	"5jrvtu"	"600"	"1366"	"chrome"	"109.0.0"	"FALSE"	"Windows 10"	"60.39"	"005"	n/a	n/a	n/a	n/a	n/a	n/a	"fixation"	n/a	n/a	n/a	n/a	"NULL"	n/a	"NULL"	"NULL"	"NULL"	"<p style=\"color: black; font-size: 80px; padding-left: 50%; padding-right: 23%; padding-top: 41%; padding-bottom: 23%\">+</p>"	"1268"	n/a	n/a	n/a	n/a	n/a	n/a	n/a	n/a	n/a
n/a	"image-keyboard-response"	"160"	"369472"	"0.0-5.0-2.0-1.53"	"5jrvtu"	"600"	"1366"	"chrome"	"109.0.0"	"FALSE"	"Windows 10"	"60.39"	"005"	n/a	n/a	n/a	n/a	n/a	n/a	"Trial"	n/a	n/a	n/a	"551"	"arrowdown"	n/a	"NULL"	"NULL"	"NULL"	"stimuli/MullerLyer_-14.12857_-0.14541.png"	n/a	"MullerLyer"	"arrowdown"	"1277"	"TRUE"	"MullerLyer"	"-14.12857000"	"-0.145410000"	"1"	"72"
n/a	"html-keyboard-response"	"161"	"370562"	"0.0-5.0-2.0-0.54"	"5jrvtu"	"600"	"1366"	"chrome"	"109.0.0"	"FALSE"	"Windows 10"	"60.39"	"005"	n/a	n/a	n/a	n/a	n/a	n/a	"fixation"	n/a	n/a	n/a	n/a	"NULL"	n/a	"NULL"	"NULL"	"NULL"	"<p style=\"color: black; font-size: 80px; padding-left: 19%; padding-right: 14%; padding-top: 3%; padding-bottom: 34%\">+</p>"	"1080"	n/a	n/a	n/a	n/a	n/a	n/a	n/a	n/a	n/a
n/a	"image-keyboard-response"	"162"	"371099"	"0.0-5.0-2.0-1.54"	"5jrvtu"	"600"	"1366"	"chrome"	"109.0.0"	"FALSE"	"Windows 10"	"60.39"	"005"	n/a	n/a	n/a	n/a	n/a	n/a	"Trial"	n/a	n/a	n/a	"535"	"arrowup"	n/a	"NULL"	"NULL"	"NULL"	"stimuli/MullerLyer_-20.04286_0.07627.png"	n/a	"MullerLyer"	"arrowup"	"1090"	"TRUE"	"MullerLyer"	"-20.04286000"	"0.0762700000"	"1"	"73"
n/a	"html-keyboard-response"	"163"	"372180"	"0.0-5.0-2.0-0.55"	"5jrvtu"	"600"	"1366"	"chrome"	"109.0.0"	"FALSE"	"Windows 10"	"60.39"	"005"	n/a	n/a	n/a	n/a	n/a	n/a	"fixation"	n/a	n/a	n/a	n/a	"NULL"	n/a	"NULL"	"NULL"	"NULL"	"<p style=\"color: black; font-size: 80px; padding-left: 6%; padding-right: 47%; padding-top: 47%; padding-bottom: 40%\">+</p>"	"1069"	n/a	n/a	n/a	n/a	n/a	n/a	n/a	n/a	n/a
n/a	"image-keyboard-response"	"164"	"372735"	"0.0-5.0-2.0-1.55"	"5jrvtu"	"600"	"1366"	"chrome"	"109.0.0"	"FALSE"	"Windows 10"	"60.39"	"005"	n/a	n/a	n/a	n/a	n/a	n/a	"Trial"	n/a	n/a	n/a	"554"	"arrowup"	n/a	"NULL"	"NULL"	"NULL"	"stimuli/MullerLyer_20.04286_-0.14541.png"	n/a	"MullerLyer"	"arrowdown"	"1081"	"FALSE"	"MullerLyer"	"20.042860000"	"-0.145410000"	"1"	"74"
n/a	"html-keyboard-response"	"165"	"373790"	"0.0-5.0-2.0-0.56"	"5jrvtu"	"600"	"1366"	"chrome"	"109.0.0"	"FALSE"	"Windows 10"	"60.39"	"005"	n/a	n/a	n/a	n/a	n/a	n/a	"fixation"	n/a	n/a	n/a	n/a	"NULL"	n/a	"NULL"	"NULL"	"NULL"	"<p style=\"color: black; font-size: 80px; padding-left: 12%; padding-right: 23%; padding-top: 48%; padding-bottom: 19%\">+</p>"	"1043"	n/a	n/a	n/a	n/a	n/a	n/a	n/a	n/a	n/a
n/a	"image-keyboard-response"	"166"	"375592"	"0.0-5.0-2.0-1.56"	"5jrvtu"	"600"	"1366"	"chrome"	"109.0.0"	"FALSE"	"Windows 10"	"60.39"	"005"	n/a	n/a	n/a	n/a	n/a	n/a	"Trial"	n/a	n/a	n/a	"1801"	"arrowdown"	n/a	"NULL"	"NULL"	"NULL"	"stimuli/MullerLyer_8.21429_-0.14541.png"	n/a	"MullerLyer"	"arrowdown"	"1055"	"TRUE"	"MullerLyer"	"8.2142900000"	"-0.145410000"	"1"	"75"
n/a	"html-keyboard-response"	"167"	"376803"	"0.0-5.0-2.0-0.57"	"5jrvtu"	"600"	"1366"	"chrome"	"109.0.0"	"FALSE"	"Windows 10"	"60.39"	"005"	n/a	n/a	n/a	n/a	n/a	n/a	"fixation"	n/a	n/a	n/a	n/a	"NULL"	n/a	"NULL"	"NULL"	"NULL"	"<p style=\"color: black; font-size: 80px; padding-left: 38%; padding-right: 39%; padding-top: 11%; padding-bottom: 13%\">+</p>"	"1198"	n/a	n/a	n/a	n/a	n/a	n/a	n/a	n/a	n/a
n/a	"image-keyboard-response"	"168"	"377427"	"0.0-5.0-2.0-1.57"	"5jrvtu"	"600"	"1366"	"chrome"	"109.0.0"	"FALSE"	"Windows 10"	"60.39"	"005"	n/a	n/a	n/a	n/a	n/a	n/a	"Trial"	n/a	n/a	n/a	"623"	"arrowdown"	n/a	"NULL"	"NULL"	"NULL"	"stimuli/MullerLyer_-8.21429_-0.07627.png"	n/a	"MullerLyer"	"arrowdown"	"1211"	"TRUE"	"MullerLyer"	"-8.214290000"	"-0.076270000"	"1"	"76"
n/a	"html-keyboard-response"	"169"	"378681"	"0.0-5.0-2.0-0.58"	"5jrvtu"	"600"	"1366"	"chrome"	"109.0.0"	"FALSE"	"Windows 10"	"60.39"	"005"	n/a	n/a	n/a	n/a	n/a	n/a	"fixation"	n/a	n/a	n/a	n/a	"NULL"	n/a	"NULL"	"NULL"	"NULL"	"<p style=\"color: black; font-size: 80px; padding-left: 16%; padding-right: 0%; padding-top: 15%; padding-bottom: 21%\">+</p>"	"1230"	n/a	n/a	n/a	n/a	n/a	n/a	n/a	n/a	n/a
n/a	"image-keyboard-response"	"170"	"380204"	"0.0-5.0-2.0-1.58"	"5jrvtu"	"600"	"1366"	"chrome"	"109.0.0"	"FALSE"	"Windows 10"	"60.39"	"005"	n/a	n/a	n/a	n/a	n/a	n/a	"Trial"	n/a	n/a	n/a	"1521"	"arrowup"	n/a	"NULL"	"NULL"	"NULL"	"stimuli/MullerLyer_8.21429_-0.07627.png"	n/a	"MullerLyer"	"arrowdown"	"1254"	"FALSE"	"MullerLyer"	"8.2142900000"	"-0.076270000"	"1"	"77"
n/a	"html-keyboard-response"	"171"	"381524"	"0.0-5.0-2.0-0.59"	"5jrvtu"	"600"	"1366"	"chrome"	"109.0.0"	"FALSE"	"Windows 10"	"60.39"	"005"	n/a	n/a	n/a	n/a	n/a	n/a	"fixation"	n/a	n/a	n/a	n/a	"NULL"	n/a	"NULL"	"NULL"	"NULL"	"<p style=\"color: black; font-size: 80px; padding-left: 46%; padding-right: 17%; padding-top: 47%; padding-bottom: 45%\">+</p>"	"1298"	n/a	n/a	n/a	n/a	n/a	n/a	n/a	n/a	n/a
n/a	"image-keyboard-response"	"172"	"382077"	"0.0-5.0-2.0-1.59"	"5jrvtu"	"600"	"1366"	"chrome"	"109.0.0"	"FALSE"	"Windows 10"	"60.39"	"005"	n/a	n/a	n/a	n/a	n/a	n/a	"Trial"	n/a	n/a	n/a	"552"	"arrowdown"	n/a	"NULL"	"NULL"	"NULL"	"stimuli/MullerLyer_20.04286_0.07627.png"	n/a	"MullerLyer"	"arrowup"	"1320"	"FALSE"	"MullerLyer"	"20.042860000"	"0.0762700000"	"1"	"78"
n/a	"html-keyboard-response"	"173"	"383474"	"0.0-5.0-2.0-0.60"	"5jrvtu"	"600"	"1366"	"chrome"	"109.0.0"	"FALSE"	"Windows 10"	"60.39"	"005"	n/a	n/a	n/a	n/a	n/a	n/a	"fixation"	n/a	n/a	n/a	n/a	"NULL"	n/a	"NULL"	"NULL"	"NULL"	"<p style=\"color: black; font-size: 80px; padding-left: 31%; padding-right: 38%; padding-top: 13%; padding-bottom: 0%\">+</p>"	"1374"	n/a	n/a	n/a	n/a	n/a	n/a	n/a	n/a	n/a
n/a	"image-keyboard-response"	"174"	"384031"	"0.0-5.0-2.0-1.60"	"5jrvtu"	"600"	"1366"	"chrome"	"109.0.0"	"FALSE"	"Windows 10"	"60.39"	"005"	n/a	n/a	n/a	n/a	n/a	n/a	"Trial"	n/a	n/a	n/a	"557"	"arrowdown"	n/a	"NULL"	"NULL"	"NULL"	"stimuli/MullerLyer_20.04286_0.14541.png"	n/a	"MullerLyer"	"arrowup"	"1397"	"FALSE"	"MullerLyer"	"20.042860000"	"0.1454100000"	"1"	"79"
n/a	"html-keyboard-response"	"175"	"385351"	"0.0-5.0-2.0-0.61"	"5jrvtu"	"600"	"1366"	"chrome"	"109.0.0"	"FALSE"	"Windows 10"	"60.39"	"005"	n/a	n/a	n/a	n/a	n/a	n/a	"fixation"	n/a	n/a	n/a	n/a	"NULL"	n/a	"NULL"	"NULL"	"NULL"	"<p style=\"color: black; font-size: 80px; padding-left: 31%; padding-right: 28%; padding-top: 25%; padding-bottom: 48%\">+</p>"	"1306"	n/a	n/a	n/a	n/a	n/a	n/a	n/a	n/a	n/a
n/a	"image-keyboard-response"	"176"	"385901"	"0.0-5.0-2.0-1.61"	"5jrvtu"	"600"	"1366"	"chrome"	"109.0.0"	"FALSE"	"Windows 10"	"60.39"	"005"	n/a	n/a	n/a	n/a	n/a	n/a	"Trial"	n/a	n/a	n/a	"550"	"arrowup"	n/a	"NULL"	"NULL"	"NULL"	"stimuli/MullerLyer_-8.21429_0.35000.png"	n/a	"MullerLyer"	"arrowup"	"1320"	"TRUE"	"MullerLyer"	"-8.214290000"	"0.3500000000"	"1"	"80"
n/a	"html-keyboard-response"	"177"	"387183"	"0.0-5.0-2.0-0.62"	"5jrvtu"	"600"	"1366"	"chrome"	"109.0.0"	"FALSE"	"Windows 10"	"60.39"	"005"	n/a	n/a	n/a	n/a	n/a	n/a	"fixation"	n/a	n/a	n/a	n/a	"NULL"	n/a	"NULL"	"NULL"	"NULL"	"<p style=\"color: black; font-size: 80px; padding-left: 45%; padding-right: 32%; padding-top: 19%; padding-bottom: 6%\">+</p>"	"1272"	n/a	n/a	n/a	n/a	n/a	n/a	n/a	n/a	n/a
n/a	"image-keyboard-response"	"178"	"387673"	"0.0-5.0-2.0-1.62"	"5jrvtu"	"600"	"1366"	"chrome"	"109.0.0"	"FALSE"	"Windows 10"	"60.39"	"005"	n/a	n/a	n/a	n/a	n/a	n/a	"Trial"	n/a	n/a	n/a	"489"	"arrowup"	n/a	"NULL"	"NULL"	"NULL"	"stimuli/MullerLyer_-20.04286_0.23665.png"	n/a	"MullerLyer"	"arrowup"	"1282"	"TRUE"	"MullerLyer"	"-20.04286000"	"0.2366500000"	"1"	"81"
n/a	"html-keyboard-response"	"179"	"388801"	"0.0-5.0-2.0-0.63"	"5jrvtu"	"600"	"1366"	"chrome"	"109.0.0"	"FALSE"	"Windows 10"	"60.39"	"005"	n/a	n/a	n/a	n/a	n/a	n/a	"fixation"	n/a	n/a	n/a	n/a	"NULL"	n/a	"NULL"	"NULL"	"NULL"	"<p style=\"color: black; font-size: 80px; padding-left: 40%; padding-right: 28%; padding-top: 25%; padding-bottom: 22%\">+</p>"	"1119"	n/a	n/a	n/a	n/a	n/a	n/a	n/a	n/a	n/a
n/a	"image-keyboard-response"	"180"	"389296"	"0.0-5.0-2.0-1.63"	"5jrvtu"	"600"	"1366"	"chrome"	"109.0.0"	"FALSE"	"Windows 10"	"60.39"	"005"	n/a	n/a	n/a	n/a	n/a	n/a	"Trial"	n/a	n/a	n/a	"494"	"arrowup"	n/a	"NULL"	"NULL"	"NULL"	"stimuli/MullerLyer_-14.12857_0.35000.png"	n/a	"MullerLyer"	"arrowup"	"1128"	"TRUE"	"MullerLyer"	"-14.12857000"	"0.3500000000"	"1"	"82"
n/a	"html-button-response"	"181"	"409768"	"0.0-5.0-3.0"	"5jrvtu"	"600"	"1366"	"chrome"	"109.0.0"	"FALSE"	"Windows 10"	"60.39"	"005"	n/a	n/a	n/a	n/a	n/a	n/a	"block_results"	n/a	n/a	n/a	"20469"	"0"	n/a	"NULL"	"NULL"	"NULL"	"<p>Your score for this illusion is <p style=\"color: black; font-size: 48px; font-weight: bold;\">74.2 %</p><hr><p>Can you do better in the next illusion?</p>"	n/a	n/a	n/a	n/a	n/a	n/a	n/a	n/a	n/a	n/a
"TRUE"	"preload"	"182"	"409962"	"0.0-6.0-0.0"	"5jrvtu"	"600"	"1366"	"chrome"	"109.0.0"	"FALSE"	"Windows 10"	"60.39"	"005"	n/a	n/a	n/a	n/a	n/a	n/a	n/a	n/a	n/a	n/a	n/a	"NULL"	"FALSE"	"list()"	"list()"	"list()"	n/a	n/a	n/a	n/a	n/a	n/a	n/a	n/a	n/a	n/a	n/a
n/a	"html-keyboard-response"	"183"	"413667"	"0.0-6.0-1.0"	"5jrvtu"	"600"	"1366"	"chrome"	"109.0.0"	"FALSE"	"Windows 10"	"60.39"	"005"	n/a	n/a	n/a	n/a	n/a	n/a	n/a	n/a	n/a	n/a	"3704"	"enter"	n/a	"NULL"	"NULL"	"NULL"	"<p><b>Part 2/6</b></p><p>In this part, two red lines will appear side by side.</p><p>Your task is to tell <b>which line is longer</b> in length, regardless of their orientation, as fast as you can, and without making errors.</p><p>Don't get distracted by the orientation of the lines!</p><p>Press <b>the LEFT or the RIGHT arrow</b> to indicate which <b>line is the longer one.</b></p><div style='float: center'><img src='materials/instructions/VerticalHorizontal_Demo.png' height='300'></img><p><img src='utils/answer/answer_leftright_keyboard.PNG' height='150'></img></p><p class='small'>In this example, the correct answer is the <b>LEFT arrow</b>.</p></div><p>Are you ready? <b>Press ENTER to start</b></p>"	n/a	n/a	n/a	n/a	n/a	n/a	n/a	n/a	n/a	n/a
n/a	"html-keyboard-response"	"184"	"415364"	"0.0-6.0-2.0-0.0"	"5jrvtu"	"600"	"1366"	"chrome"	"109.0.0"	"FALSE"	"Windows 10"	"60.39"	"005"	n/a	n/a	n/a	n/a	n/a	n/a	"fixation"	n/a	n/a	n/a	n/a	"NULL"	n/a	"NULL"	"NULL"	"NULL"	"<p style=\"color: black; font-size: 80px; padding-left: 14%; padding-right: 7%; padding-top: 16%; padding-bottom: 13%\">+</p>"	"1187"	n/a	n/a	n/a	n/a	n/a	n/a	n/a	n/a	n/a
n/a	"image-keyboard-response"	"185"	"416393"	"0.0-6.0-2.0-1.0"	"5jrvtu"	"600"	"1366"	"chrome"	"109.0.0"	"FALSE"	"Windows 10"	"60.39"	"005"	n/a	n/a	n/a	n/a	n/a	n/a	"Trial"	n/a	n/a	n/a	"1029"	"arrowright"	n/a	"NULL"	"NULL"	"NULL"	"stimuli/VerticalHorizontal_3.30000_-0.16217.png"	n/a	"VerticalHorizontal"	"arrowright"	"1697"	"TRUE"	"VerticalHorizontal"	"3.3000000000"	"-0.162170000"	"2"	"1"
n/a	"html-keyboard-response"	"186"	"417471"	"0.0-6.0-2.0-0.1"	"5jrvtu"	"600"	"1366"	"chrome"	"109.0.0"	"FALSE"	"Windows 10"	"60.39"	"005"	n/a	n/a	n/a	n/a	n/a	n/a	"fixation"	n/a	n/a	n/a	n/a	"NULL"	n/a	"NULL"	"NULL"	"NULL"	"<p style=\"color: black; font-size: 80px; padding-left: 49%; padding-right: 49%; padding-top: 14%; padding-bottom: 35%\">+</p>"	"1064"	n/a	n/a	n/a	n/a	n/a	n/a	n/a	n/a	n/a
n/a	"image-keyboard-response"	"187"	"418094"	"0.0-6.0-2.0-1.1"	"5jrvtu"	"600"	"1366"	"chrome"	"109.0.0"	"FALSE"	"Windows 10"	"60.39"	"005"	n/a	n/a	n/a	n/a	n/a	n/a	"Trial"	n/a	n/a	n/a	"622"	"arrowleft"	n/a	"NULL"	"NULL"	"NULL"	"stimuli/VerticalHorizontal_11.78571_0.16217.png"	n/a	"VerticalHorizontal"	"arrowleft"	"1078"	"TRUE"	"VerticalHorizontal"	"11.785710000"	"0.1621700000"	"2"	"2"
n/a	"html-keyboard-response"	"188"	"419241"	"0.0-6.0-2.0-0.2"	"5jrvtu"	"600"	"1366"	"chrome"	"109.0.0"	"FALSE"	"Windows 10"	"60.39"	"005"	n/a	n/a	n/a	n/a	n/a	n/a	"fixation"	n/a	n/a	n/a	n/a	"NULL"	n/a	"NULL"	"NULL"	"NULL"	"<p style=\"color: black; font-size: 80px; padding-left: 13%; padding-right: 2%; padding-top: 38%; padding-bottom: 14%\">+</p>"	"1129"	n/a	n/a	n/a	n/a	n/a	n/a	n/a	n/a	n/a
n/a	"image-keyboard-response"	"189"	"419825"	"0.0-6.0-2.0-1.2"	"5jrvtu"	"600"	"1366"	"chrome"	"109.0.0"	"FALSE"	"Windows 10"	"60.39"	"005"	n/a	n/a	n/a	n/a	n/a	n/a	"Trial"	n/a	n/a	n/a	"583"	"arrowleft"	n/a	"NULL"	"NULL"	"NULL"	"stimuli/VerticalHorizontal_20.27143_0.10960.png"	n/a	"VerticalHorizontal"	"arrowleft"	"1147"	"TRUE"	"VerticalHorizontal"	"20.271430000"	"0.1096000000"	"2"	"3"
n/a	"html-keyboard-response"	"190"	"420929"	"0.0-6.0-2.0-0.3"	"5jrvtu"	"600"	"1366"	"chrome"	"109.0.0"	"FALSE"	"Windows 10"	"60.39"	"005"	n/a	n/a	n/a	n/a	n/a	n/a	"fixation"	n/a	n/a	n/a	n/a	"NULL"	n/a	"NULL"	"NULL"	"NULL"	"<p style=\"color: black; font-size: 80px; padding-left: 49%; padding-right: 1%; padding-top: 32%; padding-bottom: 48%\">+</p>"	"1088"	n/a	n/a	n/a	n/a	n/a	n/a	n/a	n/a	n/a
n/a	"image-keyboard-response"	"191"	"422494"	"0.0-6.0-2.0-1.3"	"5jrvtu"	"600"	"1366"	"chrome"	"109.0.0"	"FALSE"	"Windows 10"	"60.39"	"005"	n/a	n/a	n/a	n/a	n/a	n/a	"Trial"	n/a	n/a	n/a	"1563"	"arrowleft"	n/a	"NULL"	"NULL"	"NULL"	"stimuli/VerticalHorizontal_-11.78571_0.10960.png"	n/a	"VerticalHorizontal"	"arrowleft"	"1104"	"TRUE"	"VerticalHorizontal"	"-11.78571000"	"0.1096000000"	"2"	"4"
n/a	"html-keyboard-response"	"192"	"423751"	"0.0-6.0-2.0-0.4"	"5jrvtu"	"600"	"1366"	"chrome"	"109.0.0"	"FALSE"	"Windows 10"	"60.39"	"005"	n/a	n/a	n/a	n/a	n/a	n/a	"fixation"	n/a	n/a	n/a	n/a	"NULL"	n/a	"NULL"	"NULL"	"NULL"	"<p style=\"color: black; font-size: 80px; padding-left: 19%; padding-right: 0%; padding-top: 32%; padding-bottom: 7%\">+</p>"	"1249"	n/a	n/a	n/a	n/a	n/a	n/a	n/a	n/a	n/a
n/a	"image-keyboard-response"	"193"	"425755"	"0.0-6.0-2.0-1.4"	"5jrvtu"	"600"	"1366"	"chrome"	"109.0.0"	"FALSE"	"Windows 10"	"60.39"	"005"	n/a	n/a	n/a	n/a	n/a	n/a	"Trial"	n/a	n/a	n/a	"2003"	"arrowleft"	n/a	"NULL"	"NULL"	"NULL"	"stimuli/VerticalHorizontal_28.75714_0.22500.png"	n/a	"VerticalHorizontal"	"arrowleft"	"1257"	"TRUE"	"VerticalHorizontal"	"28.757140000"	"0.2250000000"	"2"	"5"
n/a	"html-keyboard-response"	"194"	"426783"	"0.0-6.0-2.0-0.5"	"5jrvtu"	"600"	"1366"	"chrome"	"109.0.0"	"FALSE"	"Windows 10"	"60.39"	"005"	n/a	n/a	n/a	n/a	n/a	n/a	"fixation"	n/a	n/a	n/a	n/a	"NULL"	n/a	"NULL"	"NULL"	"NULL"	"<p style=\"color: black; font-size: 80px; padding-left: 10%; padding-right: 14%; padding-top: 20%; padding-bottom: 9%\">+</p>"	"1015"	n/a	n/a	n/a	n/a	n/a	n/a	n/a	n/a	n/a
n/a	"image-keyboard-response"	"195"	"427787"	"0.0-6.0-2.0-1.5"	"5jrvtu"	"600"	"1366"	"chrome"	"109.0.0"	"FALSE"	"Windows 10"	"60.39"	"005"	n/a	n/a	n/a	n/a	n/a	n/a	"Trial"	n/a	n/a	n/a	"1002"	"arrowright"	n/a	"NULL"	"NULL"	"NULL"	"stimuli/VerticalHorizontal_-28.75714_-0.16217.png"	n/a	"VerticalHorizontal"	"arrowright"	"1028"	"TRUE"	"VerticalHorizontal"	"-28.75714000"	"-0.162170000"	"2"	"6"
n/a	"html-keyboard-response"	"196"	"429229"	"0.0-6.0-2.0-0.6"	"5jrvtu"	"600"	"1366"	"chrome"	"109.0.0"	"FALSE"	"Windows 10"	"60.39"	"005"	n/a	n/a	n/a	n/a	n/a	n/a	"fixation"	n/a	n/a	n/a	n/a	"NULL"	n/a	"NULL"	"NULL"	"NULL"	"<p style=\"color: black; font-size: 80px; padding-left: 37%; padding-right: 20%; padding-top: 7%; padding-bottom: 48%\">+</p>"	"1423"	n/a	n/a	n/a	n/a	n/a	n/a	n/a	n/a	n/a
n/a	"image-keyboard-response"	"197"	"430106"	"0.0-6.0-2.0-1.6"	"5jrvtu"	"600"	"1366"	"chrome"	"109.0.0"	"FALSE"	"Windows 10"	"60.39"	"005"	n/a	n/a	n/a	n/a	n/a	n/a	"Trial"	n/a	n/a	n/a	"875"	"arrowleft"	n/a	"NULL"	"NULL"	"NULL"	"stimuli/VerticalHorizontal_11.78571_0.22500.png"	n/a	"VerticalHorizontal"	"arrowleft"	"1442"	"TRUE"	"VerticalHorizontal"	"11.785710000"	"0.2250000000"	"2"	"7"
n/a	"html-keyboard-response"	"198"	"431128"	"0.0-6.0-2.0-0.7"	"5jrvtu"	"600"	"1366"	"chrome"	"109.0.0"	"FALSE"	"Windows 10"	"60.39"	"005"	n/a	n/a	n/a	n/a	n/a	n/a	"fixation"	n/a	n/a	n/a	n/a	"NULL"	n/a	"NULL"	"NULL"	"NULL"	"<p style=\"color: black; font-size: 80px; padding-left: 5%; padding-right: 34%; padding-top: 12%; padding-bottom: 29%\">+</p>"	"1008"	n/a	n/a	n/a	n/a	n/a	n/a	n/a	n/a	n/a
n/a	"image-keyboard-response"	"199"	"432484"	"0.0-6.0-2.0-1.7"	"5jrvtu"	"600"	"1366"	"chrome"	"109.0.0"	"FALSE"	"Windows 10"	"60.39"	"005"	n/a	n/a	n/a	n/a	n/a	n/a	"Trial"	n/a	n/a	n/a	"1354"	"arrowleft"	n/a	"NULL"	"NULL"	"NULL"	"stimuli/VerticalHorizontal_-11.78571_0.16217.png"	n/a	"VerticalHorizontal"	"arrowleft"	"1022"	"TRUE"	"VerticalHorizontal"	"-11.78571000"	"0.1621700000"	"2"	"8"
n/a	"html-keyboard-response"	"200"	"433952"	"0.0-6.0-2.0-0.8"	"5jrvtu"	"600"	"1366"	"chrome"	"109.0.0"	"FALSE"	"Windows 10"	"60.39"	"005"	n/a	n/a	n/a	n/a	n/a	n/a	"fixation"	n/a	n/a	n/a	n/a	"NULL"	n/a	"NULL"	"NULL"	"NULL"	"<p style=\"color: black; font-size: 80px; padding-left: 12%; padding-right: 49%; padding-top: 12%; padding-bottom: 16%\">+</p>"	"1446"	n/a	n/a	n/a	n/a	n/a	n/a	n/a	n/a	n/a
n/a	"image-keyboard-response"	"201"	"434800"	"0.0-6.0-2.0-1.8"	"5jrvtu"	"600"	"1366"	"chrome"	"109.0.0"	"FALSE"	"Windows 10"	"60.39"	"005"	n/a	n/a	n/a	n/a	n/a	n/a	"Trial"	n/a	n/a	n/a	"846"	"arrowright"	n/a	"NULL"	"NULL"	"NULL"	"stimuli/VerticalHorizontal_-3.3000_-0.1096.png"	n/a	"VerticalHorizontal"	"arrowright"	"1468"	"TRUE"	"VerticalHorizontal"	"-3.300000000"	"-0.109600000"	"2"	"9"
n/a	"html-keyboard-response"	"202"	"435976"	"0.0-6.0-2.0-0.9"	"5jrvtu"	"600"	"1366"	"chrome"	"109.0.0"	"FALSE"	"Windows 10"	"60.39"	"005"	n/a	n/a	n/a	n/a	n/a	n/a	"fixation"	n/a	n/a	n/a	n/a	"NULL"	n/a	"NULL"	"NULL"	"NULL"	"<p style=\"color: black; font-size: 80px; padding-left: 49%; padding-right: 11%; padding-top: 16%; padding-bottom: 26%\">+</p>"	"1164"	n/a	n/a	n/a	n/a	n/a	n/a	n/a	n/a	n/a
n/a	"image-keyboard-response"	"203"	"436745"	"0.0-6.0-2.0-1.9"	"5jrvtu"	"600"	"1366"	"chrome"	"109.0.0"	"FALSE"	"Windows 10"	"60.39"	"005"	n/a	n/a	n/a	n/a	n/a	n/a	"Trial"	n/a	n/a	n/a	"768"	"arrowright"	n/a	"NULL"	"NULL"	"NULL"	"stimuli/VerticalHorizontal_-11.78571_-0.1096.png"	n/a	"VerticalHorizontal"	"arrowright"	"1176"	"TRUE"	"VerticalHorizontal"	"-11.78571000"	"-0.109600000"	"2"	"10"
n/a	"html-keyboard-response"	"204"	"437955"	"0.0-6.0-2.0-0.10"	"5jrvtu"	"600"	"1366"	"chrome"	"109.0.0"	"FALSE"	"Windows 10"	"60.39"	"005"	n/a	n/a	n/a	n/a	n/a	n/a	"fixation"	n/a	n/a	n/a	n/a	"NULL"	n/a	"NULL"	"NULL"	"NULL"	"<p style=\"color: black; font-size: 80px; padding-left: 39%; padding-right: 21%; padding-top: 15%; padding-bottom: 28%\">+</p>"	"1206"	n/a	n/a	n/a	n/a	n/a	n/a	n/a	n/a	n/a
n/a	"image-keyboard-response"	"205"	"438523"	"0.0-6.0-2.0-1.10"	"5jrvtu"	"600"	"1366"	"chrome"	"109.0.0"	"FALSE"	"Windows 10"	"60.39"	"005"	n/a	n/a	n/a	n/a	n/a	n/a	"Trial"	n/a	n/a	n/a	"568"	"arrowleft"	n/a	"NULL"	"NULL"	"NULL"	"stimuli/VerticalHorizontal_-28.75714_0.10960.png"	n/a	"VerticalHorizontal"	"arrowleft"	"1210"	"TRUE"	"VerticalHorizontal"	"-28.75714000"	"0.1096000000"	"2"	"11"
n/a	"html-keyboard-response"	"206"	"439603"	"0.0-6.0-2.0-0.11"	"5jrvtu"	"600"	"1366"	"chrome"	"109.0.0"	"FALSE"	"Windows 10"	"60.39"	"005"	n/a	n/a	n/a	n/a	n/a	n/a	"fixation"	n/a	n/a	n/a	n/a	"NULL"	n/a	"NULL"	"NULL"	"NULL"	"<p style=\"color: black; font-size: 80px; padding-left: 25%; padding-right: 29%; padding-top: 43%; padding-bottom: 27%\">+</p>"	"1073"	n/a	n/a	n/a	n/a	n/a	n/a	n/a	n/a	n/a
n/a	"image-keyboard-response"	"207"	"440361"	"0.0-6.0-2.0-1.11"	"5jrvtu"	"600"	"1366"	"chrome"	"109.0.0"	"FALSE"	"Windows 10"	"60.39"	"005"	n/a	n/a	n/a	n/a	n/a	n/a	"Trial"	n/a	n/a	n/a	"754"	"arrowright"	n/a	"NULL"	"NULL"	"NULL"	"stimuli/VerticalHorizontal_28.75714_-0.16217.png"	n/a	"VerticalHorizontal"	"arrowright"	"1080"	"TRUE"	"VerticalHorizontal"	"28.757140000"	"-0.162170000"	"2"	"12"
n/a	"html-keyboard-response"	"208"	"441628"	"0.0-6.0-2.0-0.12"	"5jrvtu"	"600"	"1366"	"chrome"	"109.0.0"	"FALSE"	"Windows 10"	"60.39"	"005"	n/a	n/a	n/a	n/a	n/a	n/a	"fixation"	n/a	n/a	n/a	n/a	"NULL"	n/a	"NULL"	"NULL"	"NULL"	"<p style=\"color: black; font-size: 80px; padding-left: 1%; padding-right: 23%; padding-top: 43%; padding-bottom: 8%\">+</p>"	"1248"	n/a	n/a	n/a	n/a	n/a	n/a	n/a	n/a	n/a
n/a	"image-keyboard-response"	"209"	"442915"	"0.0-6.0-2.0-1.12"	"5jrvtu"	"600"	"1366"	"chrome"	"109.0.0"	"FALSE"	"Windows 10"	"60.39"	"005"	n/a	n/a	n/a	n/a	n/a	n/a	"Trial"	n/a	n/a	n/a	"1285"	"arrowleft"	n/a	"NULL"	"NULL"	"NULL"	"stimuli/VerticalHorizontal_20.27143_0.16217.png"	n/a	"VerticalHorizontal"	"arrowleft"	"1267"	"TRUE"	"VerticalHorizontal"	"20.271430000"	"0.1621700000"	"2"	"13"
n/a	"html-keyboard-response"	"210"	"444085"	"0.0-6.0-2.0-0.13"	"5jrvtu"	"600"	"1366"	"chrome"	"109.0.0"	"FALSE"	"Windows 10"	"60.39"	"005"	n/a	n/a	n/a	n/a	n/a	n/a	"fixation"	n/a	n/a	n/a	n/a	"NULL"	n/a	"NULL"	"NULL"	"NULL"	"<p style=\"color: black; font-size: 80px; padding-left: 13%; padding-right: 18%; padding-top: 41%; padding-bottom: 15%\">+</p>"	"1157"	n/a	n/a	n/a	n/a	n/a	n/a	n/a	n/a	n/a
n/a	"image-keyboard-response"	"211"	"445109"	"0.0-6.0-2.0-1.13"	"5jrvtu"	"600"	"1366"	"chrome"	"109.0.0"	"FALSE"	"Windows 10"	"60.39"	"005"	n/a	n/a	n/a	n/a	n/a	n/a	"Trial"	n/a	n/a	n/a	"1022"	"arrowleft"	n/a	"NULL"	"NULL"	"NULL"	"stimuli/VerticalHorizontal_-11.78571_0.22500.png"	n/a	"VerticalHorizontal"	"arrowleft"	"1170"	"TRUE"	"VerticalHorizontal"	"-11.78571000"	"0.2250000000"	"2"	"14"
n/a	"html-keyboard-response"	"212"	"446469"	"0.0-6.0-2.0-0.14"	"5jrvtu"	"600"	"1366"	"chrome"	"109.0.0"	"FALSE"	"Windows 10"	"60.39"	"005"	n/a	n/a	n/a	n/a	n/a	n/a	"fixation"	n/a	n/a	n/a	n/a	"NULL"	n/a	"NULL"	"NULL"	"NULL"	"<p style=\"color: black; font-size: 80px; padding-left: 45%; padding-right: 35%; padding-top: 41%; padding-bottom: 23%\">+</p>"	"1340"	n/a	n/a	n/a	n/a	n/a	n/a	n/a	n/a	n/a
n/a	"image-keyboard-response"	"213"	"446999"	"0.0-6.0-2.0-1.14"	"5jrvtu"	"600"	"1366"	"chrome"	"109.0.0"	"FALSE"	"Windows 10"	"60.39"	"005"	n/a	n/a	n/a	n/a	n/a	n/a	"Trial"	n/a	n/a	n/a	"529"	"arrowright"	n/a	"NULL"	"NULL"	"NULL"	"stimuli/VerticalHorizontal_-20.27143_-0.16217.png"	n/a	"VerticalHorizontal"	"arrowright"	"1360"	"TRUE"	"VerticalHorizontal"	"-20.27143000"	"-0.162170000"	"2"	"15"
n/a	"html-keyboard-response"	"214"	"448143"	"0.0-6.0-2.0-0.15"	"5jrvtu"	"600"	"1366"	"chrome"	"109.0.0"	"FALSE"	"Windows 10"	"60.39"	"005"	n/a	n/a	n/a	n/a	n/a	n/a	"fixation"	n/a	n/a	n/a	n/a	"NULL"	n/a	"NULL"	"NULL"	"NULL"	"<p style=\"color: black; font-size: 80px; padding-left: 24%; padding-right: 8%; padding-top: 42%; padding-bottom: 33%\">+</p>"	"1132"	n/a	n/a	n/a	n/a	n/a	n/a	n/a	n/a	n/a
n/a	"image-keyboard-response"	"215"	"448937"	"0.0-6.0-2.0-1.15"	"5jrvtu"	"600"	"1366"	"chrome"	"109.0.0"	"FALSE"	"Windows 10"	"60.39"	"005"	n/a	n/a	n/a	n/a	n/a	n/a	"Trial"	n/a	n/a	n/a	"792"	"arrowright"	n/a	"NULL"	"NULL"	"NULL"	"stimuli/VerticalHorizontal_3.30000_-0.0673.png"	n/a	"VerticalHorizontal"	"arrowright"	"1144"	"TRUE"	"VerticalHorizontal"	"3.3000000000"	"-0.067300000"	"2"	"16"
n/a	"html-keyboard-response"	"216"	"450201"	"0.0-6.0-2.0-0.16"	"5jrvtu"	"600"	"1366"	"chrome"	"109.0.0"	"FALSE"	"Windows 10"	"60.39"	"005"	n/a	n/a	n/a	n/a	n/a	n/a	"fixation"	n/a	n/a	n/a	n/a	"NULL"	n/a	"NULL"	"NULL"	"NULL"	"<p style=\"color: black; font-size: 80px; padding-left: 43%; padding-right: 8%; padding-top: 11%; padding-bottom: 15%\">+</p>"	"1241"	n/a	n/a	n/a	n/a	n/a	n/a	n/a	n/a	n/a
n/a	"image-keyboard-response"	"217"	"450758"	"0.0-6.0-2.0-1.16"	"5jrvtu"	"600"	"1366"	"chrome"	"109.0.0"	"FALSE"	"Windows 10"	"60.39"	"005"	n/a	n/a	n/a	n/a	n/a	n/a	"Trial"	n/a	n/a	n/a	"556"	"arrowright"	n/a	"NULL"	"NULL"	"NULL"	"stimuli/VerticalHorizontal_11.78571_-0.1096.png"	n/a	"VerticalHorizontal"	"arrowright"	"1264"	"TRUE"	"VerticalHorizontal"	"11.785710000"	"-0.109600000"	"2"	"17"
n/a	"html-keyboard-response"	"218"	"451890"	"0.0-6.0-2.0-0.17"	"5jrvtu"	"600"	"1366"	"chrome"	"109.0.0"	"FALSE"	"Windows 10"	"60.39"	"005"	n/a	n/a	n/a	n/a	n/a	n/a	"fixation"	n/a	n/a	n/a	n/a	"NULL"	n/a	"NULL"	"NULL"	"NULL"	"<p style=\"color: black; font-size: 80px; padding-left: 28%; padding-right: 41%; padding-top: 43%; padding-bottom: 36%\">+</p>"	"1121"	n/a	n/a	n/a	n/a	n/a	n/a	n/a	n/a	n/a
n/a	"image-keyboard-response"	"219"	"452365"	"0.0-6.0-2.0-1.17"	"5jrvtu"	"600"	"1366"	"chrome"	"109.0.0"	"FALSE"	"Windows 10"	"60.39"	"005"	n/a	n/a	n/a	n/a	n/a	n/a	"Trial"	n/a	n/a	n/a	"473"	"arrowright"	n/a	"NULL"	"NULL"	"NULL"	"stimuli/VerticalHorizontal_11.78571_-0.16217.png"	n/a	"VerticalHorizontal"	"arrowright"	"1132"	"TRUE"	"VerticalHorizontal"	"11.785710000"	"-0.162170000"	"2"	"18"
n/a	"html-keyboard-response"	"220"	"453492"	"0.0-6.0-2.0-0.18"	"5jrvtu"	"600"	"1366"	"chrome"	"109.0.0"	"FALSE"	"Windows 10"	"60.39"	"005"	n/a	n/a	n/a	n/a	n/a	n/a	"fixation"	n/a	n/a	n/a	n/a	"NULL"	n/a	"NULL"	"NULL"	"NULL"	"<p style=\"color: black; font-size: 80px; padding-left: 41%; padding-right: 24%; padding-top: 43%; padding-bottom: 0%\">+</p>"	"1112"	n/a	n/a	n/a	n/a	n/a	n/a	n/a	n/a	n/a
n/a	"image-keyboard-response"	"221"	"454146"	"0.0-6.0-2.0-1.18"	"5jrvtu"	"600"	"1366"	"chrome"	"109.0.0"	"FALSE"	"Windows 10"	"60.39"	"005"	n/a	n/a	n/a	n/a	n/a	n/a	"Trial"	n/a	n/a	n/a	"654"	"arrowleft"	n/a	"NULL"	"NULL"	"NULL"	"stimuli/VerticalHorizontal_3.30000_0.22500.png"	n/a	"VerticalHorizontal"	"arrowleft"	"1127"	"TRUE"	"VerticalHorizontal"	"3.3000000000"	"0.2250000000"	"2"	"19"
n/a	"html-keyboard-response"	"222"	"455274"	"0.0-6.0-2.0-0.19"	"5jrvtu"	"600"	"1366"	"chrome"	"109.0.0"	"FALSE"	"Windows 10"	"60.39"	"005"	n/a	n/a	n/a	n/a	n/a	n/a	"fixation"	n/a	n/a	n/a	n/a	"NULL"	n/a	"NULL"	"NULL"	"NULL"	"<p style=\"color: black; font-size: 80px; padding-left: 33%; padding-right: 39%; padding-top: 38%; padding-bottom: 38%\">+</p>"	"1116"	n/a	n/a	n/a	n/a	n/a	n/a	n/a	n/a	n/a
n/a	"image-keyboard-response"	"223"	"456058"	"0.0-6.0-2.0-1.19"	"5jrvtu"	"600"	"1366"	"chrome"	"109.0.0"	"FALSE"	"Windows 10"	"60.39"	"005"	n/a	n/a	n/a	n/a	n/a	n/a	"Trial"	n/a	n/a	n/a	"782"	"arrowleft"	n/a	"NULL"	"NULL"	"NULL"	"stimuli/VerticalHorizontal_-28.75714_0.16217.png"	n/a	"VerticalHorizontal"	"arrowleft"	"1128"	"TRUE"	"VerticalHorizontal"	"-28.75714000"	"0.1621700000"	"2"	"20"
n/a	"html-keyboard-response"	"224"	"457455"	"0.0-6.0-2.0-0.20"	"5jrvtu"	"600"	"1366"	"chrome"	"109.0.0"	"FALSE"	"Windows 10"	"60.39"	"005"	n/a	n/a	n/a	n/a	n/a	n/a	"fixation"	n/a	n/a	n/a	n/a	"NULL"	n/a	"NULL"	"NULL"	"NULL"	"<p style=\"color: black; font-size: 80px; padding-left: 47%; padding-right: 32%; padding-top: 38%; padding-bottom: 39%\">+</p>"	"1387"	n/a	n/a	n/a	n/a	n/a	n/a	n/a	n/a	n/a
n/a	"image-keyboard-response"	"225"	"458616"	"0.0-6.0-2.0-1.20"	"5jrvtu"	"600"	"1366"	"chrome"	"109.0.0"	"FALSE"	"Windows 10"	"60.39"	"005"	n/a	n/a	n/a	n/a	n/a	n/a	"Trial"	n/a	n/a	n/a	"1159"	"arrowleft"	n/a	"NULL"	"NULL"	"NULL"	"stimuli/VerticalHorizontal_3.30000_0.16217.png"	n/a	"VerticalHorizontal"	"arrowleft"	"1397"	"TRUE"	"VerticalHorizontal"	"3.3000000000"	"0.1621700000"	"2"	"21"
n/a	"html-keyboard-response"	"226"	"459885"	"0.0-6.0-2.0-0.21"	"5jrvtu"	"600"	"1366"	"chrome"	"109.0.0"	"FALSE"	"Windows 10"	"60.39"	"005"	n/a	n/a	n/a	n/a	n/a	n/a	"fixation"	n/a	n/a	n/a	n/a	"NULL"	n/a	"NULL"	"NULL"	"NULL"	"<p style=\"color: black; font-size: 80px; padding-left: 45%; padding-right: 17%; padding-top: 14%; padding-bottom: 24%\">+</p>"	"1255"	n/a	n/a	n/a	n/a	n/a	n/a	n/a	n/a	n/a
n/a	"image-keyboard-response"	"227"	"460394"	"0.0-6.0-2.0-1.21"	"5jrvtu"	"600"	"1366"	"chrome"	"109.0.0"	"FALSE"	"Windows 10"	"60.39"	"005"	n/a	n/a	n/a	n/a	n/a	n/a	"Trial"	n/a	n/a	n/a	"507"	"arrowright"	n/a	"NULL"	"NULL"	"NULL"	"stimuli/VerticalHorizontal_20.27143_-0.2250.png"	n/a	"VerticalHorizontal"	"arrowright"	"1269"	"TRUE"	"VerticalHorizontal"	"20.271430000"	"-0.225000000"	"2"	"22"
n/a	"html-keyboard-response"	"228"	"461460"	"0.0-6.0-2.0-0.22"	"5jrvtu"	"600"	"1366"	"chrome"	"109.0.0"	"FALSE"	"Windows 10"	"60.39"	"005"	n/a	n/a	n/a	n/a	n/a	n/a	"fixation"	n/a	n/a	n/a	n/a	"NULL"	n/a	"NULL"	"NULL"	"NULL"	"<p style=\"color: black; font-size: 80px; padding-left: 50%; padding-right: 48%; padding-top: 46%; padding-bottom: 18%\">+</p>"	"1061"	n/a	n/a	n/a	n/a	n/a	n/a	n/a	n/a	n/a
n/a	"image-keyboard-response"	"229"	"462347"	"0.0-6.0-2.0-1.22"	"5jrvtu"	"600"	"1366"	"chrome"	"109.0.0"	"FALSE"	"Windows 10"	"60.39"	"005"	n/a	n/a	n/a	n/a	n/a	n/a	"Trial"	n/a	n/a	n/a	"886"	"arrowleft"	n/a	"NULL"	"NULL"	"NULL"	"stimuli/VerticalHorizontal_-20.27143_0.10960.png"	n/a	"VerticalHorizontal"	"arrowleft"	"1066"	"TRUE"	"VerticalHorizontal"	"-20.27143000"	"0.1096000000"	"2"	"23"
n/a	"html-keyboard-response"	"230"	"463662"	"0.0-6.0-2.0-0.23"	"5jrvtu"	"600"	"1366"	"chrome"	"109.0.0"	"FALSE"	"Windows 10"	"60.39"	"005"	n/a	n/a	n/a	n/a	n/a	n/a	"fixation"	n/a	n/a	n/a	n/a	"NULL"	n/a	"NULL"	"NULL"	"NULL"	"<p style=\"color: black; font-size: 80px; padding-left: 29%; padding-right: 19%; padding-top: 5%; padding-bottom: 3%\">+</p>"	"1301"	n/a	n/a	n/a	n/a	n/a	n/a	n/a	n/a	n/a
n/a	"image-keyboard-response"	"231"	"465438"	"0.0-6.0-2.0-1.23"	"5jrvtu"	"600"	"1366"	"chrome"	"109.0.0"	"FALSE"	"Windows 10"	"60.39"	"005"	n/a	n/a	n/a	n/a	n/a	n/a	"Trial"	n/a	n/a	n/a	"1775"	"arrowright"	n/a	"NULL"	"NULL"	"NULL"	"stimuli/VerticalHorizontal_20.27143_-0.1096.png"	n/a	"VerticalHorizontal"	"arrowright"	"1315"	"TRUE"	"VerticalHorizontal"	"20.271430000"	"-0.109600000"	"2"	"24"
n/a	"html-keyboard-response"	"232"	"466628"	"0.0-6.0-2.0-0.24"	"5jrvtu"	"600"	"1366"	"chrome"	"109.0.0"	"FALSE"	"Windows 10"	"60.39"	"005"	n/a	n/a	n/a	n/a	n/a	n/a	"fixation"	n/a	n/a	n/a	n/a	"NULL"	n/a	"NULL"	"NULL"	"NULL"	"<p style=\"color: black; font-size: 80px; padding-left: 38%; padding-right: 42%; padding-top: 6%; padding-bottom: 36%\">+</p>"	"1174"	n/a	n/a	n/a	n/a	n/a	n/a	n/a	n/a	n/a
n/a	"image-keyboard-response"	"233"	"467487"	"0.0-6.0-2.0-1.24"	"5jrvtu"	"600"	"1366"	"chrome"	"109.0.0"	"FALSE"	"Windows 10"	"60.39"	"005"	n/a	n/a	n/a	n/a	n/a	n/a	"Trial"	n/a	n/a	n/a	"858"	"arrowright"	n/a	"NULL"	"NULL"	"NULL"	"stimuli/VerticalHorizontal_-3.3000_-0.16217.png"	n/a	"VerticalHorizontal"	"arrowright"	"1190"	"TRUE"	"VerticalHorizontal"	"-3.300000000"	"-0.162170000"	"2"	"25"
n/a	"html-keyboard-response"	"234"	"468979"	"0.0-6.0-2.0-0.25"	"5jrvtu"	"600"	"1366"	"chrome"	"109.0.0"	"FALSE"	"Windows 10"	"60.39"	"005"	n/a	n/a	n/a	n/a	n/a	n/a	"fixation"	n/a	n/a	n/a	n/a	"NULL"	n/a	"NULL"	"NULL"	"NULL"	"<p style=\"color: black; font-size: 80px; padding-left: 11%; padding-right: 29%; padding-top: 49%; padding-bottom: 17%\">+</p>"	"1486"	n/a	n/a	n/a	n/a	n/a	n/a	n/a	n/a	n/a
n/a	"image-keyboard-response"	"235"	"470129"	"0.0-6.0-2.0-1.25"	"5jrvtu"	"600"	"1366"	"chrome"	"109.0.0"	"FALSE"	"Windows 10"	"60.39"	"005"	n/a	n/a	n/a	n/a	n/a	n/a	"Trial"	n/a	n/a	n/a	"1150"	"arrowright"	n/a	"NULL"	"NULL"	"NULL"	"stimuli/VerticalHorizontal_3.30000_-0.1096.png"	n/a	"VerticalHorizontal"	"arrowright"	"1492"	"TRUE"	"VerticalHorizontal"	"3.3000000000"	"-0.109600000"	"2"	"26"
n/a	"html-keyboard-response"	"236"	"471461"	"0.0-6.0-2.0-0.26"	"5jrvtu"	"600"	"1366"	"chrome"	"109.0.0"	"FALSE"	"Windows 10"	"60.39"	"005"	n/a	n/a	n/a	n/a	n/a	n/a	"fixation"	n/a	n/a	n/a	n/a	"NULL"	n/a	"NULL"	"NULL"	"NULL"	"<p style=\"color: black; font-size: 80px; padding-left: 29%; padding-right: 30%; padding-top: 17%; padding-bottom: 29%\">+</p>"	"1323"	n/a	n/a	n/a	n/a	n/a	n/a	n/a	n/a	n/a
n/a	"image-keyboard-response"	"237"	"472048"	"0.0-6.0-2.0-1.26"	"5jrvtu"	"600"	"1366"	"chrome"	"109.0.0"	"FALSE"	"Windows 10"	"60.39"	"005"	n/a	n/a	n/a	n/a	n/a	n/a	"Trial"	n/a	n/a	n/a	"586"	"arrowleft"	n/a	"NULL"	"NULL"	"NULL"	"stimuli/VerticalHorizontal_-28.75714_0.22500.png"	n/a	"VerticalHorizontal"	"arrowleft"	"1332"	"TRUE"	"VerticalHorizontal"	"-28.75714000"	"0.2250000000"	"2"	"27"
n/a	"html-keyboard-response"	"238"	"473067"	"0.0-6.0-2.0-0.27"	"5jrvtu"	"600"	"1366"	"chrome"	"109.0.0"	"FALSE"	"Windows 10"	"60.39"	"005"	n/a	n/a	n/a	n/a	n/a	n/a	"fixation"	n/a	n/a	n/a	n/a	"NULL"	n/a	"NULL"	"NULL"	"NULL"	"<p style=\"color: black; font-size: 80px; padding-left: 37%; padding-right: 28%; padding-top: 5%; padding-bottom: 33%\">+</p>"	"1013"	n/a	n/a	n/a	n/a	n/a	n/a	n/a	n/a	n/a
n/a	"image-keyboard-response"	"239"	"473865"	"0.0-6.0-2.0-1.27"	"5jrvtu"	"600"	"1366"	"chrome"	"109.0.0"	"FALSE"	"Windows 10"	"60.39"	"005"	n/a	n/a	n/a	n/a	n/a	n/a	"Trial"	n/a	n/a	n/a	"797"	"arrowright"	n/a	"NULL"	"NULL"	"NULL"	"stimuli/VerticalHorizontal_28.75714_-0.2250.png"	n/a	"VerticalHorizontal"	"arrowright"	"1019"	"TRUE"	"VerticalHorizontal"	"28.757140000"	"-0.225000000"	"2"	"28"
n/a	"html-keyboard-response"	"240"	"475339"	"0.0-6.0-2.0-0.28"	"5jrvtu"	"600"	"1366"	"chrome"	"109.0.0"	"FALSE"	"Windows 10"	"60.39"	"005"	n/a	n/a	n/a	n/a	n/a	n/a	"fixation"	n/a	n/a	n/a	n/a	"NULL"	n/a	"NULL"	"NULL"	"NULL"	"<p style=\"color: black; font-size: 80px; padding-left: 8%; padding-right: 19%; padding-top: 45%; padding-bottom: 3%\">+</p>"	"1456"	n/a	n/a	n/a	n/a	n/a	n/a	n/a	n/a	n/a
n/a	"image-keyboard-response"	"241"	"477552"	"0.0-6.0-2.0-1.28"	"5jrvtu"	"600"	"1366"	"chrome"	"109.0.0"	"FALSE"	"Windows 10"	"60.39"	"005"	n/a	n/a	n/a	n/a	n/a	n/a	"Trial"	n/a	n/a	n/a	"2212"	"arrowright"	n/a	"NULL"	"NULL"	"NULL"	"stimuli/VerticalHorizontal_28.75714_0.10960.png"	n/a	"VerticalHorizontal"	"arrowleft"	"1474"	"FALSE"	"VerticalHorizontal"	"28.757140000"	"0.1096000000"	"2"	"29"
n/a	"html-keyboard-response"	"242"	"478850"	"0.0-6.0-2.0-0.29"	"5jrvtu"	"600"	"1366"	"chrome"	"109.0.0"	"FALSE"	"Windows 10"	"60.39"	"005"	n/a	n/a	n/a	n/a	n/a	n/a	"fixation"	n/a	n/a	n/a	n/a	"NULL"	n/a	"NULL"	"NULL"	"NULL"	"<p style=\"color: black; font-size: 80px; padding-left: 22%; padding-right: 14%; padding-top: 8%; padding-bottom: 6%\">+</p>"	"1287"	n/a	n/a	n/a	n/a	n/a	n/a	n/a	n/a	n/a
n/a	"image-keyboard-response"	"243"	"479463"	"0.0-6.0-2.0-1.29"	"5jrvtu"	"600"	"1366"	"chrome"	"109.0.0"	"FALSE"	"Windows 10"	"60.39"	"005"	n/a	n/a	n/a	n/a	n/a	n/a	"Trial"	n/a	n/a	n/a	"612"	"arrowright"	n/a	"NULL"	"NULL"	"NULL"	"stimuli/VerticalHorizontal_-28.75714_-0.2250.png"	n/a	"VerticalHorizontal"	"arrowright"	"1298"	"TRUE"	"VerticalHorizontal"	"-28.75714000"	"-0.225000000"	"2"	"30"
n/a	"html-keyboard-response"	"244"	"480891"	"0.0-6.0-2.0-0.30"	"5jrvtu"	"600"	"1366"	"chrome"	"109.0.0"	"FALSE"	"Windows 10"	"60.39"	"005"	n/a	n/a	n/a	n/a	n/a	n/a	"fixation"	n/a	n/a	n/a	n/a	"NULL"	n/a	"NULL"	"NULL"	"NULL"	"<p style=\"color: black; font-size: 80px; padding-left: 24%; padding-right: 4%; padding-top: 49%; padding-bottom: 5%\">+</p>"	"1414"	n/a	n/a	n/a	n/a	n/a	n/a	n/a	n/a	n/a
n/a	"image-keyboard-response"	"245"	"481764"	"0.0-6.0-2.0-1.30"	"5jrvtu"	"600"	"1366"	"chrome"	"109.0.0"	"FALSE"	"Windows 10"	"60.39"	"005"	n/a	n/a	n/a	n/a	n/a	n/a	"Trial"	n/a	n/a	n/a	"872"	"arrowleft"	n/a	"NULL"	"NULL"	"NULL"	"stimuli/VerticalHorizontal_11.78571_0.10960.png"	n/a	"VerticalHorizontal"	"arrowleft"	"1428"	"TRUE"	"VerticalHorizontal"	"11.785710000"	"0.1096000000"	"2"	"31"
n/a	"html-keyboard-response"	"246"	"483178"	"0.0-6.0-2.0-0.31"	"5jrvtu"	"600"	"1366"	"chrome"	"109.0.0"	"FALSE"	"Windows 10"	"60.39"	"005"	n/a	n/a	n/a	n/a	n/a	n/a	"fixation"	n/a	n/a	n/a	n/a	"NULL"	n/a	"NULL"	"NULL"	"NULL"	"<p style=\"color: black; font-size: 80px; padding-left: 19%; padding-right: 19%; padding-top: 47%; padding-bottom: 24%\">+</p>"	"1402"	n/a	n/a	n/a	n/a	n/a	n/a	n/a	n/a	n/a
n/a	"image-keyboard-response"	"247"	"483968"	"0.0-6.0-2.0-1.31"	"5jrvtu"	"600"	"1366"	"chrome"	"109.0.0"	"FALSE"	"Windows 10"	"60.39"	"005"	n/a	n/a	n/a	n/a	n/a	n/a	"Trial"	n/a	n/a	n/a	"788"	"arrowright"	n/a	"NULL"	"NULL"	"NULL"	"stimuli/VerticalHorizontal_-11.78571_-0.16217.png"	n/a	"VerticalHorizontal"	"arrowright"	"1414"	"TRUE"	"VerticalHorizontal"	"-11.78571000"	"-0.162170000"	"2"	"32"
n/a	"html-keyboard-response"	"248"	"485377"	"0.0-6.0-2.0-0.32"	"5jrvtu"	"600"	"1366"	"chrome"	"109.0.0"	"FALSE"	"Windows 10"	"60.39"	"005"	n/a	n/a	n/a	n/a	n/a	n/a	"fixation"	n/a	n/a	n/a	n/a	"NULL"	n/a	"NULL"	"NULL"	"NULL"	"<p style=\"color: black; font-size: 80px; padding-left: 40%; padding-right: 15%; padding-top: 34%; padding-bottom: 36%\">+</p>"	"1385"	n/a	n/a	n/a	n/a	n/a	n/a	n/a	n/a	n/a
n/a	"image-keyboard-response"	"249"	"485936"	"0.0-6.0-2.0-1.32"	"5jrvtu"	"600"	"1366"	"chrome"	"109.0.0"	"FALSE"	"Windows 10"	"60.39"	"005"	n/a	n/a	n/a	n/a	n/a	n/a	"Trial"	n/a	n/a	n/a	"557"	"arrowright"	n/a	"NULL"	"NULL"	"NULL"	"stimuli/VerticalHorizontal_-11.78571_-0.0673.png"	n/a	"VerticalHorizontal"	"arrowright"	"1409"	"TRUE"	"VerticalHorizontal"	"-11.78571000"	"-0.067300000"	"2"	"33"
n/a	"html-keyboard-response"	"250"	"487432"	"0.0-6.0-2.0-0.33"	"5jrvtu"	"600"	"1366"	"chrome"	"109.0.0"	"FALSE"	"Windows 10"	"60.39"	"005"	n/a	n/a	n/a	n/a	n/a	n/a	"fixation"	n/a	n/a	n/a	n/a	"NULL"	n/a	"NULL"	"NULL"	"NULL"	"<p style=\"color: black; font-size: 80px; padding-left: 39%; padding-right: 17%; padding-top: 2%; padding-bottom: 33%\">+</p>"	"1489"	n/a	n/a	n/a	n/a	n/a	n/a	n/a	n/a	n/a
n/a	"image-keyboard-response"	"251"	"488186"	"0.0-6.0-2.0-1.33"	"5jrvtu"	"600"	"1366"	"chrome"	"109.0.0"	"FALSE"	"Windows 10"	"60.39"	"005"	n/a	n/a	n/a	n/a	n/a	n/a	"Trial"	n/a	n/a	n/a	"752"	"arrowright"	n/a	"NULL"	"NULL"	"NULL"	"stimuli/VerticalHorizontal_20.27143_-0.16217.png"	n/a	"VerticalHorizontal"	"arrowright"	"1496"	"TRUE"	"VerticalHorizontal"	"20.271430000"	"-0.162170000"	"2"	"34"
