"success"	"trial_type"	"trial_index"	"time_elapsed"	"internal_node_id"	"participant_id"	"screen_height"	"screen_width"	"browser"	"browser_version"	"mobile"	"os"	"vsync_rate"	"subject_id"	"width"	"height"	"webaudio"	"fullscreen"	"webcam"	"microphone"	"screen"	"version"	"date"	"time"	"rt"	"response"	"timeout"	"failed_images"	"failed_audio"	"failed_video"	"stimulus"	"trial_duration"	"block"	"correct_response"	"prestimulus_duration"	"correct"	"type"	"illusion_strength"	"illusion_difference"	"block_number"	"trial_number"
"TRUE"	"fullscreen"	"0"	"9754308"	"0.0-0.0"	"zawvzg"	"600"	"1024"	"chrome"	"109.0.0"	"FALSE"	"Windows 10"	"60.86"	"020"	n/a	n/a	n/a	n/a	n/a	n/a	n/a	n/a	n/a	n/a	n/a	"NULL"	n/a	"NULL"	"NULL"	"NULL"	n/a	n/a	n/a	n/a	n/a	n/a	n/a	n/a	n/a	n/a	n/a
n/a	"browser-check"	"1"	"9755307"	"0.0-1.0"	"zawvzg"	"600"	"1024"	"chrome"	"109.0.0"	"FALSE"	"Windows 10"	"60.86"	"020"	"1024"	"600"	"TRUE"	"TRUE"	"TRUE"	"TRUE"	"browser_info"	"1.0"	"17/02/2023"	"08:38:09"	n/a	"NULL"	n/a	"NULL"	"NULL"	"NULL"	n/a	n/a	n/a	n/a	n/a	n/a	n/a	n/a	n/a	n/a	n/a
n/a	"survey-text"	"2"	"9758944"	"0.0-2.0"	"zawvzg"	"600"	"1024"	"chrome"	"109.0.0"	"FALSE"	"Windows 10"	"60.86"	"020"	n/a	n/a	n/a	n/a	n/a	n/a	"subject_id"	n/a	n/a	n/a	"3631"	"list(subject_id = \"020\")"	n/a	"NULL"	"NULL"	"NULL"	n/a	n/a	n/a	n/a	n/a	n/a	n/a	n/a	n/a	n/a	n/a
"TRUE"	"preload"	"3"	"9758964"	"0.0-3.0"	"zawvzg"	"600"	"1024"	"chrome"	"109.0.0"	"FALSE"	"Windows 10"	"60.86"	"020"	n/a	n/a	n/a	n/a	n/a	n/a	n/a	n/a	n/a	n/a	n/a	"NULL"	"FALSE"	"list()"	"list()"	"list()"	n/a	n/a	n/a	n/a	n/a	n/a	n/a	n/a	n/a	n/a	n/a
n/a	"html-button-response"	"4"	"9832225"	"0.0-4.0-0.0"	"zawvzg"	"600"	"1024"	"chrome"	"109.0.0"	"FALSE"	"Windows 10"	"60.86"	"020"	n/a	n/a	n/a	n/a	n/a	n/a	"illusion_instructions"	n/a	n/a	n/a	"73259"	"0"	n/a	"NULL"	"NULL"	"NULL"	"<p><b>Illusion Game</b></p><p>In this game of speed and reflex, you will need to make <b>visual judgments</b> (for instance, which circle is the biggest, or which line is the longest), as fast and as correctly as possible, while <b>resisting different visual illusions</b>.</p><p>We are going to start with some examples of all the illusions you will encounter in the game.</p>"	n/a	n/a	n/a	n/a	n/a	n/a	n/a	n/a	n/a	n/a
"TRUE"	"preload"	"5"	"9832253"	"0.0-4.0-1.0-0.0"	"zawvzg"	"600"	"1024"	"chrome"	"109.0.0"	"FALSE"	"Windows 10"	"60.86"	"020"	n/a	n/a	n/a	n/a	n/a	n/a	n/a	n/a	n/a	n/a	n/a	"NULL"	"FALSE"	"list()"	"list()"	"list()"	n/a	n/a	n/a	n/a	n/a	n/a	n/a	n/a	n/a	n/a	n/a
n/a	"html-keyboard-response"	"6"	"9857003"	"0.0-4.0-1.0-1.0"	"zawvzg"	"600"	"1024"	"chrome"	"109.0.0"	"FALSE"	"Windows 10"	"60.86"	"020"	n/a	n/a	n/a	n/a	n/a	n/a	n/a	n/a	n/a	n/a	"24747"	"enter"	n/a	"NULL"	"NULL"	"NULL"	"<p><b>Practice</b></p><p>In this part, two red circles will appear side by side on the screen.</p><p>Your task is to select which <b>red circle is bigger</b> in size as fast as you can, without making errors.</p><p>Don't get distracted by the surrounding black circles around the red circles!</p><p>Press <b>the LEFT or the RIGHT arrow</b> to indicate which is the bigger <b>red circle.</b></p><div style='float: center'><img src='materials/instructions/Ebbinghaus_Demo.png' height='300'></img><p><img src='utils/answer/answer_leftright_keyboard.PNG' height='150'></img></p><p class='small'>In this example, the correct answer is the <b>LEFT arrow</b>.</p></div><p>Are you ready? <b>Press ENTER to start</b></p>"	n/a	n/a	n/a	n/a	n/a	n/a	n/a	n/a	n/a	n/a
n/a	"html-keyboard-response"	"7"	"9858832"	"0.0-4.0-1.0-2.0-0.0"	"zawvzg"	"600"	"1024"	"chrome"	"109.0.0"	"FALSE"	"Windows 10"	"60.86"	"020"	n/a	n/a	n/a	n/a	n/a	n/a	"fixation"	n/a	n/a	n/a	n/a	"NULL"	n/a	"NULL"	"NULL"	"NULL"	"<p style=\"color: black; font-size: 80px; padding-left: 25%; padding-right: 32%; padding-top: 39%; padding-bottom: 31%\">+</p>"	"1304"	n/a	n/a	n/a	n/a	n/a	n/a	n/a	n/a	n/a
n/a	"image-keyboard-response"	"8"	"9860205"	"0.0-4.0-1.0-2.0-1.0"	"zawvzg"	"600"	"1024"	"chrome"	"109.0.0"	"FALSE"	"Windows 10"	"60.86"	"020"	n/a	n/a	n/a	n/a	n/a	n/a	"Trial"	n/a	n/a	n/a	"1362"	"arrowleft"	n/a	"NULL"	"NULL"	"NULL"	"stimuli/Ebbinghaus_0000000_1.40000.png"	n/a	"Ebbinghaus"	"arrowleft"	"1829"	"TRUE"	"Ebbinghaus"	"000000000000"	"1.4000000000"	"1"	"1"
n/a	"html-keyboard-response"	"9"	"9861709"	"0.0-4.0-1.0-2.0-0.1"	"zawvzg"	"600"	"1024"	"chrome"	"109.0.0"	"FALSE"	"Windows 10"	"60.86"	"020"	n/a	n/a	n/a	n/a	n/a	n/a	"fixation"	n/a	n/a	n/a	n/a	"NULL"	n/a	"NULL"	"NULL"	"NULL"	"<p style=\"color: black; font-size: 80px; padding-left: 40%; padding-right: 5%; padding-top: 38%; padding-bottom: 17%\">+</p>"	"1492"	n/a	n/a	n/a	n/a	n/a	n/a	n/a	n/a	n/a
n/a	"image-keyboard-response"	"10"	"9862637"	"0.0-4.0-1.0-2.0-1.1"	"zawvzg"	"600"	"1024"	"chrome"	"109.0.0"	"FALSE"	"Windows 10"	"60.86"	"020"	n/a	n/a	n/a	n/a	n/a	n/a	"Trial"	n/a	n/a	n/a	"927"	"arrowleft"	n/a	"NULL"	"NULL"	"NULL"	"stimuli/Ebbinghaus_-100000_1.40000.png"	n/a	"Ebbinghaus"	"arrowleft"	"1504"	"TRUE"	"Ebbinghaus"	"-10000000000"	"1.4000000000"	"1"	"2"
n/a	"html-keyboard-response"	"11"	"9863667"	"0.0-4.0-1.0-2.0-0.2"	"zawvzg"	"600"	"1024"	"chrome"	"109.0.0"	"FALSE"	"Windows 10"	"60.86"	"020"	n/a	n/a	n/a	n/a	n/a	n/a	"fixation"	n/a	n/a	n/a	n/a	"NULL"	n/a	"NULL"	"NULL"	"NULL"	"<p style=\"color: black; font-size: 80px; padding-left: 30%; padding-right: 27%; padding-top: 20%; padding-bottom: 7%\">+</p>"	"1022"	n/a	n/a	n/a	n/a	n/a	n/a	n/a	n/a	n/a
n/a	"image-keyboard-response"	"12"	"9864711"	"0.0-4.0-1.0-2.0-1.2"	"zawvzg"	"600"	"1024"	"chrome"	"109.0.0"	"FALSE"	"Windows 10"	"60.86"	"020"	n/a	n/a	n/a	n/a	n/a	n/a	"Trial"	n/a	n/a	n/a	"1043"	"arrowright"	n/a	"NULL"	"NULL"	"NULL"	"stimuli/Ebbinghaus_1000000_-1.4000.png"	n/a	"Ebbinghaus"	"arrowright"	"1030"	"TRUE"	"Ebbinghaus"	"100000000000"	"-1.400000000"	"1"	"3"
n/a	"html-keyboard-response"	"13"	"9865937"	"0.0-4.0-1.0-2.0-0.3"	"zawvzg"	"600"	"1024"	"chrome"	"109.0.0"	"FALSE"	"Windows 10"	"60.86"	"020"	n/a	n/a	n/a	n/a	n/a	n/a	"fixation"	n/a	n/a	n/a	n/a	"NULL"	n/a	"NULL"	"NULL"	"NULL"	"<p style=\"color: black; font-size: 80px; padding-left: 38%; padding-right: 48%; padding-top: 36%; padding-bottom: 18%\">+</p>"	"1213"	n/a	n/a	n/a	n/a	n/a	n/a	n/a	n/a	n/a
n/a	"image-keyboard-response"	"14"	"9866743"	"0.0-4.0-1.0-2.0-1.3"	"zawvzg"	"600"	"1024"	"chrome"	"109.0.0"	"FALSE"	"Windows 10"	"60.86"	"020"	n/a	n/a	n/a	n/a	n/a	n/a	"Trial"	n/a	n/a	n/a	"806"	"arrowright"	n/a	"NULL"	"NULL"	"NULL"	"stimuli/Ebbinghaus_-100000_-1.4000.png"	n/a	"Ebbinghaus"	"arrowright"	"1226"	"TRUE"	"Ebbinghaus"	"-10000000000"	"-1.400000000"	"1"	"4"
n/a	"html-keyboard-response"	"15"	"9867833"	"0.0-4.0-1.0-2.0-0.4"	"zawvzg"	"600"	"1024"	"chrome"	"109.0.0"	"FALSE"	"Windows 10"	"60.86"	"020"	n/a	n/a	n/a	n/a	n/a	n/a	"fixation"	n/a	n/a	n/a	n/a	"NULL"	n/a	"NULL"	"NULL"	"NULL"	"<p style=\"color: black; font-size: 80px; padding-left: 33%; padding-right: 22%; padding-top: 30%; padding-bottom: 2%\">+</p>"	"1076"	n/a	n/a	n/a	n/a	n/a	n/a	n/a	n/a	n/a
n/a	"image-keyboard-response"	"16"	"9868954"	"0.0-4.0-1.0-2.0-1.4"	"zawvzg"	"600"	"1024"	"chrome"	"109.0.0"	"FALSE"	"Windows 10"	"60.86"	"020"	n/a	n/a	n/a	n/a	n/a	n/a	"Trial"	n/a	n/a	n/a	"1120"	"arrowleft"	n/a	"NULL"	"NULL"	"NULL"	"stimuli/Ebbinghaus_1000000_1.40000.png"	n/a	"Ebbinghaus"	"arrowleft"	"1090"	"TRUE"	"Ebbinghaus"	"100000000000"	"1.4000000000"	"1"	"5"
n/a	"html-keyboard-response"	"17"	"9870056"	"0.0-4.0-1.0-2.0-0.5"	"zawvzg"	"600"	"1024"	"chrome"	"109.0.0"	"FALSE"	"Windows 10"	"60.86"	"020"	n/a	n/a	n/a	n/a	n/a	n/a	"fixation"	n/a	n/a	n/a	n/a	"NULL"	n/a	"NULL"	"NULL"	"NULL"	"<p style=\"color: black; font-size: 80px; padding-left: 25%; padding-right: 7%; padding-top: 4%; padding-bottom: 43%\">+</p>"	"1090"	n/a	n/a	n/a	n/a	n/a	n/a	n/a	n/a	n/a
n/a	"image-keyboard-response"	"18"	"9870799"	"0.0-4.0-1.0-2.0-1.5"	"zawvzg"	"600"	"1024"	"chrome"	"109.0.0"	"FALSE"	"Windows 10"	"60.86"	"020"	n/a	n/a	n/a	n/a	n/a	n/a	"Trial"	n/a	n/a	n/a	"742"	"arrowright"	n/a	"NULL"	"NULL"	"NULL"	"stimuli/Ebbinghaus_0000000_-1.4000.png"	n/a	"Ebbinghaus"	"arrowright"	"1102"	"TRUE"	"Ebbinghaus"	"000000000000"	"-1.400000000"	"1"	"6"
n/a	"html-button-response"	"19"	"9876504"	"0.0-4.0-1.0-3.0"	"zawvzg"	"600"	"1024"	"chrome"	"109.0.0"	"FALSE"	"Windows 10"	"60.86"	"020"	n/a	n/a	n/a	n/a	n/a	n/a	"practice_block_results"	n/a	n/a	n/a	"5701"	"0"	n/a	"NULL"	"NULL"	"NULL"	"<p style='color:rgb(76,175,80);'> Correct Responses: <b>100.00%</b></p><hr><p style='color:rgb(233,30,99);'> Average Response Time: <b>1000.00</b> ms.</p>"	n/a	n/a	n/a	n/a	n/a	n/a	n/a	n/a	n/a	n/a
"TRUE"	"preload"	"20"	"9877033"	"0.0-4.0-2.0-0.0"	"zawvzg"	"600"	"1024"	"chrome"	"109.0.0"	"FALSE"	"Windows 10"	"60.86"	"020"	n/a	n/a	n/a	n/a	n/a	n/a	n/a	n/a	n/a	n/a	n/a	"NULL"	"FALSE"	"list()"	"list()"	"list()"	n/a	n/a	n/a	n/a	n/a	n/a	n/a	n/a	n/a	n/a	n/a
n/a	"html-keyboard-response"	"21"	"9889549"	"0.0-4.0-2.0-1.0"	"zawvzg"	"600"	"1024"	"chrome"	"109.0.0"	"FALSE"	"Windows 10"	"60.86"	"020"	n/a	n/a	n/a	n/a	n/a	n/a	n/a	n/a	n/a	n/a	"12513"	"enter"	n/a	"NULL"	"NULL"	"NULL"	"<p><b>Practice</b></p><p>In this part, two horizontal red lines will appear one above the other.</p><p>Your task is to select which <b>line is longer</b> in length as fast as you can, without making errors.</p><p>Don't get distracted by the surrounding black arrows at the end of the red lines!</p><p>Press <b>the UP or the DOWN arrow</b> to indicate where is the longer <b>red line.</b></p><div style='float: center'><img src='materials/instructions/MullerLyer_Demo.png' height='300'></img><p><img src='utils/answer/answer_updown_keyboard.PNG' height='150'></img></p><p class='small'>In this example, the correct answer is the <b>UP arrow</b>.</p></div><p>Are you ready? <b>Press ENTER to start</b></p>"	n/a	n/a	n/a	n/a	n/a	n/a	n/a	n/a	n/a	n/a
n/a	"html-keyboard-response"	"22"	"9891536"	"0.0-4.0-2.0-2.0-0.0"	"zawvzg"	"600"	"1024"	"chrome"	"109.0.0"	"FALSE"	"Windows 10"	"60.86"	"020"	n/a	n/a	n/a	n/a	n/a	n/a	"fixation"	n/a	n/a	n/a	n/a	"NULL"	n/a	"NULL"	"NULL"	"NULL"	"<p style=\"color: black; font-size: 80px; padding-left: 12%; padding-right: 16%; padding-top: 45%; padding-bottom: 19%\">+</p>"	"1461"	n/a	n/a	n/a	n/a	n/a	n/a	n/a	n/a	n/a
n/a	"image-keyboard-response"	"23"	"9892570"	"0.0-4.0-2.0-2.0-1.0"	"zawvzg"	"600"	"1024"	"chrome"	"109.0.0"	"FALSE"	"Windows 10"	"60.86"	"020"	n/a	n/a	n/a	n/a	n/a	n/a	"Trial"	n/a	n/a	n/a	"1033"	"arrowdown"	n/a	"NULL"	"NULL"	"NULL"	"stimuli/MullerLyer_-230000_-0.7000.png"	n/a	"MullerLyer"	"arrowdown"	"1987"	"TRUE"	"MullerLyer"	"-23000000000"	"-0.700000000"	"1"	"7"
n/a	"html-keyboard-response"	"24"	"9893898"	"0.0-4.0-2.0-2.0-0.1"	"zawvzg"	"600"	"1024"	"chrome"	"109.0.0"	"FALSE"	"Windows 10"	"60.86"	"020"	n/a	n/a	n/a	n/a	n/a	n/a	"fixation"	n/a	n/a	n/a	n/a	"NULL"	n/a	"NULL"	"NULL"	"NULL"	"<p style=\"color: black; font-size: 80px; padding-left: 30%; padding-right: 38%; padding-top: 48%; padding-bottom: 49%\">+</p>"	"1315"	n/a	n/a	n/a	n/a	n/a	n/a	n/a	n/a	n/a
n/a	"image-keyboard-response"	"25"	"9895258"	"0.0-4.0-2.0-2.0-1.1"	"zawvzg"	"600"	"1024"	"chrome"	"109.0.0"	"FALSE"	"Windows 10"	"60.86"	"020"	n/a	n/a	n/a	n/a	n/a	n/a	"Trial"	n/a	n/a	n/a	"1359"	"arrowdown"	n/a	"NULL"	"NULL"	"NULL"	"stimuli/MullerLyer_2300000_-0.7000.png"	n/a	"MullerLyer"	"arrowdown"	"1328"	"TRUE"	"MullerLyer"	"230000000000"	"-0.700000000"	"1"	"8"
n/a	"html-keyboard-response"	"26"	"9896760"	"0.0-4.0-2.0-2.0-0.2"	"zawvzg"	"600"	"1024"	"chrome"	"109.0.0"	"FALSE"	"Windows 10"	"60.86"	"020"	n/a	n/a	n/a	n/a	n/a	n/a	"fixation"	n/a	n/a	n/a	n/a	"NULL"	n/a	"NULL"	"NULL"	"NULL"	"<p style=\"color: black; font-size: 80px; padding-left: 18%; padding-right: 28%; padding-top: 22%; padding-bottom: 17%\">+</p>"	"1488"	n/a	n/a	n/a	n/a	n/a	n/a	n/a	n/a	n/a
n/a	"image-keyboard-response"	"27"	"9897698"	"0.0-4.0-2.0-2.0-1.2"	"zawvzg"	"600"	"1024"	"chrome"	"109.0.0"	"FALSE"	"Windows 10"	"60.86"	"020"	n/a	n/a	n/a	n/a	n/a	n/a	"Trial"	n/a	n/a	n/a	"936"	"arrowup"	n/a	"NULL"	"NULL"	"NULL"	"stimuli/MullerLyer_0000000_0.70000.png"	n/a	"MullerLyer"	"arrowup"	"1502"	"TRUE"	"MullerLyer"	"000000000000"	"0.7000000000"	"1"	"9"
n/a	"html-keyboard-response"	"28"	"9898743"	"0.0-4.0-2.0-2.0-0.3"	"zawvzg"	"600"	"1024"	"chrome"	"109.0.0"	"FALSE"	"Windows 10"	"60.86"	"020"	n/a	n/a	n/a	n/a	n/a	n/a	"fixation"	n/a	n/a	n/a	n/a	"NULL"	n/a	"NULL"	"NULL"	"NULL"	"<p style=\"color: black; font-size: 80px; padding-left: 25%; padding-right: 5%; padding-top: 46%; padding-bottom: 27%\">+</p>"	"1036"	n/a	n/a	n/a	n/a	n/a	n/a	n/a	n/a	n/a
n/a	"image-keyboard-response"	"29"	"9899522"	"0.0-4.0-2.0-2.0-1.3"	"zawvzg"	"600"	"1024"	"chrome"	"109.0.0"	"FALSE"	"Windows 10"	"60.86"	"020"	n/a	n/a	n/a	n/a	n/a	n/a	"Trial"	n/a	n/a	n/a	"779"	"arrowdown"	n/a	"NULL"	"NULL"	"NULL"	"stimuli/MullerLyer_0000000_-0.7000.png"	n/a	"MullerLyer"	"arrowdown"	"1045"	"TRUE"	"MullerLyer"	"000000000000"	"-0.700000000"	"1"	"10"
n/a	"html-keyboard-response"	"30"	"9900712"	"0.0-4.0-2.0-2.0-0.4"	"zawvzg"	"600"	"1024"	"chrome"	"109.0.0"	"FALSE"	"Windows 10"	"60.86"	"020"	n/a	n/a	n/a	n/a	n/a	n/a	"fixation"	n/a	n/a	n/a	n/a	"NULL"	n/a	"NULL"	"NULL"	"NULL"	"<p style=\"color: black; font-size: 80px; padding-left: 22%; padding-right: 40%; padding-top: 12%; padding-bottom: 39%\">+</p>"	"1178"	n/a	n/a	n/a	n/a	n/a	n/a	n/a	n/a	n/a
n/a	"image-keyboard-response"	"31"	"9901278"	"0.0-4.0-2.0-2.0-1.4"	"zawvzg"	"600"	"1024"	"chrome"	"109.0.0"	"FALSE"	"Windows 10"	"60.86"	"020"	n/a	n/a	n/a	n/a	n/a	n/a	"Trial"	n/a	n/a	n/a	"565"	"arrowup"	n/a	"NULL"	"NULL"	"NULL"	"stimuli/MullerLyer_2300000_0.70000.png"	n/a	"MullerLyer"	"arrowup"	"1190"	"TRUE"	"MullerLyer"	"230000000000"	"0.7000000000"	"1"	"11"
n/a	"html-keyboard-response"	"32"	"9902319"	"0.0-4.0-2.0-2.0-0.5"	"zawvzg"	"600"	"1024"	"chrome"	"109.0.0"	"FALSE"	"Windows 10"	"60.86"	"020"	n/a	n/a	n/a	n/a	n/a	n/a	"fixation"	n/a	n/a	n/a	n/a	"NULL"	n/a	"NULL"	"NULL"	"NULL"	"<p style=\"color: black; font-size: 80px; padding-left: 43%; padding-right: 8%; padding-top: 15%; padding-bottom: 40%\">+</p>"	"1020"	n/a	n/a	n/a	n/a	n/a	n/a	n/a	n/a	n/a
n/a	"image-keyboard-response"	"33"	"9903057"	"0.0-4.0-2.0-2.0-1.5"	"zawvzg"	"600"	"1024"	"chrome"	"109.0.0"	"FALSE"	"Windows 10"	"60.86"	"020"	n/a	n/a	n/a	n/a	n/a	n/a	"Trial"	n/a	n/a	n/a	"737"	"arrowup"	n/a	"NULL"	"NULL"	"NULL"	"stimuli/MullerLyer_-230000_0.70000.png"	n/a	"MullerLyer"	"arrowup"	"1041"	"TRUE"	"MullerLyer"	"-23000000000"	"0.7000000000"	"1"	"12"
n/a	"html-button-response"	"34"	"9909755"	"0.0-4.0-2.0-3.0"	"zawvzg"	"600"	"1024"	"chrome"	"109.0.0"	"FALSE"	"Windows 10"	"60.86"	"020"	n/a	n/a	n/a	n/a	n/a	n/a	"practice_block_results"	n/a	n/a	n/a	"6697"	"0"	n/a	"NULL"	"NULL"	"NULL"	"<p style='color:rgb(76,175,80);'> Correct Responses: <b>100.00%</b></p><hr><p style='color:rgb(233,30,99);'> Average Response Time: <b>901.50</b> ms.</p>"	n/a	n/a	n/a	n/a	n/a	n/a	n/a	n/a	n/a	n/a
"TRUE"	"preload"	"35"	"9910288"	"0.0-4.0-3.0-0.0"	"zawvzg"	"600"	"1024"	"chrome"	"109.0.0"	"FALSE"	"Windows 10"	"60.86"	"020"	n/a	n/a	n/a	n/a	n/a	n/a	n/a	n/a	n/a	n/a	n/a	"NULL"	"FALSE"	"list()"	"list()"	"list()"	n/a	n/a	n/a	n/a	n/a	n/a	n/a	n/a	n/a	n/a	n/a
n/a	"html-keyboard-response"	"36"	"9922246"	"0.0-4.0-3.0-1.0"	"zawvzg"	"600"	"1024"	"chrome"	"109.0.0"	"FALSE"	"Windows 10"	"60.86"	"020"	n/a	n/a	n/a	n/a	n/a	n/a	n/a	n/a	n/a	n/a	"11957"	"enter"	n/a	"NULL"	"NULL"	"NULL"	"<p><b>Practice</b></p><p>In this part, two red lines will appear side by side.</p><p>Your task is to tell <b>which line is longer</b> in length, regardless of their orientation, as fast as you can, and without making errors.</p><p>Don't get distracted by the orientation of the lines!</p><p>Press <b>the LEFT or the RIGHT arrow</b> to indicate which <b>line is the longer one.</b></p><div style='float: center'><img src='materials/instructions/VerticalHorizontal_Demo.png' height='300'></img><p><img src='utils/answer/answer_leftright_keyboard.PNG' height='150'></img></p><p class='small'>In this example, the correct answer is the <b>LEFT arrow</b>.</p></div><p>Are you ready? <b>Press ENTER to start</b></p>"	n/a	n/a	n/a	n/a	n/a	n/a	n/a	n/a	n/a	n/a
n/a	"html-keyboard-response"	"37"	"9924226"	"0.0-4.0-3.0-2.0-0.0"	"zawvzg"	"600"	"1024"	"chrome"	"109.0.0"	"FALSE"	"Windows 10"	"60.86"	"020"	n/a	n/a	n/a	n/a	n/a	n/a	"fixation"	n/a	n/a	n/a	n/a	"NULL"	n/a	"NULL"	"NULL"	"NULL"	"<p style=\"color: black; font-size: 80px; padding-left: 10%; padding-right: 45%; padding-top: 4%; padding-bottom: 16%\">+</p>"	"1452"	n/a	n/a	n/a	n/a	n/a	n/a	n/a	n/a	n/a
n/a	"image-keyboard-response"	"38"	"9924808"	"0.0-4.0-3.0-2.0-1.0"	"zawvzg"	"600"	"1024"	"chrome"	"109.0.0"	"FALSE"	"Windows 10"	"60.86"	"020"	n/a	n/a	n/a	n/a	n/a	n/a	"Trial"	n/a	n/a	n/a	"581"	"arrowleft"	n/a	"NULL"	"NULL"	"NULL"	"stimuli/VerticalHorizontal_-330000_0.90000.png"	n/a	"VerticalHorizontal"	"arrowleft"	"1980"	"TRUE"	"VerticalHorizontal"	"-33000000000"	"0.9000000000"	"1"	"13"
n/a	"html-keyboard-response"	"39"	"9926144"	"0.0-4.0-3.0-2.0-0.1"	"zawvzg"	"600"	"1024"	"chrome"	"109.0.0"	"FALSE"	"Windows 10"	"60.86"	"020"	n/a	n/a	n/a	n/a	n/a	n/a	"fixation"	n/a	n/a	n/a	n/a	"NULL"	n/a	"NULL"	"NULL"	"NULL"	"<p style=\"color: black; font-size: 80px; padding-left: 33%; padding-right: 34%; padding-top: 47%; padding-bottom: 3%\">+</p>"	"1334"	n/a	n/a	n/a	n/a	n/a	n/a	n/a	n/a	n/a
n/a	"image-keyboard-response"	"40"	"9926808"	"0.0-4.0-3.0-2.0-1.1"	"zawvzg"	"600"	"1024"	"chrome"	"109.0.0"	"FALSE"	"Windows 10"	"60.86"	"020"	n/a	n/a	n/a	n/a	n/a	n/a	"Trial"	n/a	n/a	n/a	"662"	"arrowleft"	n/a	"NULL"	"NULL"	"NULL"	"stimuli/VerticalHorizontal_3300000_0.90000.png"	n/a	"VerticalHorizontal"	"arrowleft"	"1336"	"TRUE"	"VerticalHorizontal"	"330000000000"	"0.9000000000"	"1"	"14"
n/a	"html-keyboard-response"	"41"	"9927961"	"0.0-4.0-3.0-2.0-0.2"	"zawvzg"	"600"	"1024"	"chrome"	"109.0.0"	"FALSE"	"Windows 10"	"60.86"	"020"	n/a	n/a	n/a	n/a	n/a	n/a	"fixation"	n/a	n/a	n/a	n/a	"NULL"	n/a	"NULL"	"NULL"	"NULL"	"<p style=\"color: black; font-size: 80px; padding-left: 22%; padding-right: 48%; padding-top: 29%; padding-bottom: 23%\">+</p>"	"1151"	n/a	n/a	n/a	n/a	n/a	n/a	n/a	n/a	n/a
n/a	"image-keyboard-response"	"42"	"9928377"	"0.0-4.0-3.0-2.0-1.2"	"zawvzg"	"600"	"1024"	"chrome"	"109.0.0"	"FALSE"	"Windows 10"	"60.86"	"020"	n/a	n/a	n/a	n/a	n/a	n/a	"Trial"	n/a	n/a	n/a	"415"	"arrowleft"	n/a	"NULL"	"NULL"	"NULL"	"stimuli/VerticalHorizontal_0000000_0.90000.png"	n/a	"VerticalHorizontal"	"arrowleft"	"1153"	"TRUE"	"VerticalHorizontal"	"000000000000"	"0.9000000000"	"1"	"15"
n/a	"html-keyboard-response"	"43"	"9929607"	"0.0-4.0-3.0-2.0-0.3"	"zawvzg"	"600"	"1024"	"chrome"	"109.0.0"	"FALSE"	"Windows 10"	"60.86"	"020"	n/a	n/a	n/a	n/a	n/a	n/a	"fixation"	n/a	n/a	n/a	n/a	"NULL"	n/a	"NULL"	"NULL"	"NULL"	"<p style=\"color: black; font-size: 80px; padding-left: 12%; padding-right: 33%; padding-top: 36%; padding-bottom: 35%\">+</p>"	"1221"	n/a	n/a	n/a	n/a	n/a	n/a	n/a	n/a	n/a
n/a	"image-keyboard-response"	"44"	"9930186"	"0.0-4.0-3.0-2.0-1.3"	"zawvzg"	"600"	"1024"	"chrome"	"109.0.0"	"FALSE"	"Windows 10"	"60.86"	"020"	n/a	n/a	n/a	n/a	n/a	n/a	"Trial"	n/a	n/a	n/a	"577"	"arrowright"	n/a	"NULL"	"NULL"	"NULL"	"stimuli/VerticalHorizontal_0000000_-0.9000.png"	n/a	"VerticalHorizontal"	"arrowright"	"1230"	"TRUE"	"VerticalHorizontal"	"000000000000"	"-0.900000000"	"1"	"16"
n/a	"html-keyboard-response"	"45"	"9931443"	"0.0-4.0-3.0-2.0-0.4"	"zawvzg"	"600"	"1024"	"chrome"	"109.0.0"	"FALSE"	"Windows 10"	"60.86"	"020"	n/a	n/a	n/a	n/a	n/a	n/a	"fixation"	n/a	n/a	n/a	n/a	"NULL"	n/a	"NULL"	"NULL"	"NULL"	"<p style=\"color: black; font-size: 80px; padding-left: 2%; padding-right: 32%; padding-top: 30%; padding-bottom: 5%\">+</p>"	"1242"	n/a	n/a	n/a	n/a	n/a	n/a	n/a	n/a	n/a
n/a	"image-keyboard-response"	"46"	"9931871"	"0.0-4.0-3.0-2.0-1.4"	"zawvzg"	"600"	"1024"	"chrome"	"109.0.0"	"FALSE"	"Windows 10"	"60.86"	"020"	n/a	n/a	n/a	n/a	n/a	n/a	"Trial"	n/a	n/a	n/a	"428"	"arrowright"	n/a	"NULL"	"NULL"	"NULL"	"stimuli/VerticalHorizontal_3300000_-0.9000.png"	n/a	"VerticalHorizontal"	"arrowright"	"1257"	"TRUE"	"VerticalHorizontal"	"330000000000"	"-0.900000000"	"1"	"17"
n/a	"html-keyboard-response"	"47"	"9933312"	"0.0-4.0-3.0-2.0-0.5"	"zawvzg"	"600"	"1024"	"chrome"	"109.0.0"	"FALSE"	"Windows 10"	"60.86"	"020"	n/a	n/a	n/a	n/a	n/a	n/a	"fixation"	n/a	n/a	n/a	n/a	"NULL"	n/a	"NULL"	"NULL"	"NULL"	"<p style=\"color: black; font-size: 80px; padding-left: 38%; padding-right: 2%; padding-top: 6%; padding-bottom: 44%\">+</p>"	"1427"	n/a	n/a	n/a	n/a	n/a	n/a	n/a	n/a	n/a
n/a	"image-keyboard-response"	"48"	"9933926"	"0.0-4.0-3.0-2.0-1.5"	"zawvzg"	"600"	"1024"	"chrome"	"109.0.0"	"FALSE"	"Windows 10"	"60.86"	"020"	n/a	n/a	n/a	n/a	n/a	n/a	"Trial"	n/a	n/a	n/a	"613"	"arrowright"	n/a	"NULL"	"NULL"	"NULL"	"stimuli/VerticalHorizontal_-330000_-0.9000.png"	n/a	"VerticalHorizontal"	"arrowright"	"1441"	"TRUE"	"VerticalHorizontal"	"-33000000000"	"-0.900000000"	"1"	"18"
n/a	"html-button-response"	"49"	"9936539"	"0.0-4.0-3.0-3.0"	"zawvzg"	"600"	"1024"	"chrome"	"109.0.0"	"FALSE"	"Windows 10"	"60.86"	"020"	n/a	n/a	n/a	n/a	n/a	n/a	"practice_block_results"	n/a	n/a	n/a	"2612"	"0"	n/a	"NULL"	"NULL"	"NULL"	"<p style='color:rgb(76,175,80);'> Correct Responses: <b>100.00%</b></p><hr><p style='color:rgb(233,30,99);'> Average Response Time: <b>546.00</b> ms.</p>"	n/a	n/a	n/a	n/a	n/a	n/a	n/a	n/a	n/a	n/a
n/a	"html-button-response"	"50"	"10038358"	"0.0-4.0-4.0"	"zawvzg"	"600"	"1024"	"chrome"	"109.0.0"	"FALSE"	"Windows 10"	"60.86"	"020"	n/a	n/a	n/a	n/a	n/a	n/a	"practice_debrief"	n/a	n/a	n/a	"101290"	"0"	n/a	"NULL"	"NULL"	"NULL"	"<p><b>TRAINING COMPLETED</b></p><p>In the next phase, there will be more trials, and some might be harder too.<br> Moreover, after each illusion block, a <b>score</b> will be calculated based on speed (time you took to answer) and accuracy (number of errors).</p><p>Try to keep up a high score!</p><br><p>Note that it can be <i>really</i> challenging at times, so you will need to rely on your <b>intuition</b> and gut feeling to answer as fast as you can without making errors.</p><p>Each illusion block will be repeated two times (so that you have the opportunity to improve your score), but the order of the blocks is random.</p><p>Remember, your goal is to be as <b>fast</b> and <b>accurate</b> as possible. Good luck!</p><br>"	n/a	n/a	n/a	n/a	n/a	n/a	n/a	n/a	n/a	n/a
"TRUE"	"preload"	"51"	"10038576"	"0.0-5.0-0.0"	"zawvzg"	"600"	"1024"	"chrome"	"109.0.0"	"FALSE"	"Windows 10"	"60.86"	"020"	n/a	n/a	n/a	n/a	n/a	n/a	n/a	n/a	n/a	n/a	n/a	"NULL"	"FALSE"	"list()"	"list()"	"list()"	n/a	n/a	n/a	n/a	n/a	n/a	n/a	n/a	n/a	n/a	n/a
n/a	"html-keyboard-response"	"52"	"10043133"	"0.0-5.0-1.0"	"zawvzg"	"600"	"1024"	"chrome"	"109.0.0"	"FALSE"	"Windows 10"	"60.86"	"020"	n/a	n/a	n/a	n/a	n/a	n/a	n/a	n/a	n/a	n/a	"4557"	"enter"	n/a	"NULL"	"NULL"	"NULL"	"<p><b>Part 1/6</b></p><p>In this part, two red circles will appear side by side on the screen.</p><p>Your task is to select which <b>red circle is bigger</b> in size as fast as you can, without making errors.</p><p>Don't get distracted by the surrounding black circles around the red circles!</p><p>Press <b>the LEFT or the RIGHT arrow</b> to indicate which is the bigger <b>red circle.</b></p><div style='float: center'><img src='materials/instructions/Ebbinghaus_Demo.png' height='300'></img><p><img src='utils/answer/answer_leftright_keyboard.PNG' height='150'></img></p><p class='small'>In this example, the correct answer is the <b>LEFT arrow</b>.</p></div><p>Are you ready? <b>Press ENTER to start</b></p>"	n/a	n/a	n/a	n/a	n/a	n/a	n/a	n/a	n/a	n/a
n/a	"html-keyboard-response"	"53"	"10044716"	"0.0-5.0-2.0-0.0"	"zawvzg"	"600"	"1024"	"chrome"	"109.0.0"	"FALSE"	"Windows 10"	"60.86"	"020"	n/a	n/a	n/a	n/a	n/a	n/a	"fixation"	n/a	n/a	n/a	n/a	"NULL"	n/a	"NULL"	"NULL"	"NULL"	"<p style=\"color: black; font-size: 80px; padding-left: 24%; padding-right: 33%; padding-top: 45%; padding-bottom: 38%\">+</p>"	"1046"	n/a	n/a	n/a	n/a	n/a	n/a	n/a	n/a	n/a
n/a	"image-keyboard-response"	"54"	"10047480"	"0.0-5.0-2.0-1.0"	"zawvzg"	"600"	"1024"	"chrome"	"109.0.0"	"FALSE"	"Windows 10"	"60.86"	"020"	n/a	n/a	n/a	n/a	n/a	n/a	"Trial"	n/a	n/a	n/a	"2761"	"arrowleft"	n/a	"NULL"	"NULL"	"NULL"	"stimuli/Ebbinghaus_0.61429_-0.2150.png"	n/a	"Ebbinghaus"	"arrowright"	"1583"	"FALSE"	"Ebbinghaus"	"0.6142900000"	"-0.215000000"	"1"	"19"
n/a	"html-keyboard-response"	"55"	"10048896"	"0.0-5.0-2.0-0.1"	"zawvzg"	"600"	"1024"	"chrome"	"109.0.0"	"FALSE"	"Windows 10"	"60.86"	"020"	n/a	n/a	n/a	n/a	n/a	n/a	"fixation"	n/a	n/a	n/a	n/a	"NULL"	n/a	"NULL"	"NULL"	"NULL"	"<p style=\"color: black; font-size: 80px; padding-left: 26%; padding-right: 6%; padding-top: 5%; padding-bottom: 11%\">+</p>"	"1412"	n/a	n/a	n/a	n/a	n/a	n/a	n/a	n/a	n/a
n/a	"image-keyboard-response"	"56"	"10050043"	"0.0-5.0-2.0-1.1"	"zawvzg"	"600"	"1024"	"chrome"	"109.0.0"	"FALSE"	"Windows 10"	"60.86"	"020"	n/a	n/a	n/a	n/a	n/a	n/a	"Trial"	n/a	n/a	n/a	"1142"	"arrowleft"	n/a	"NULL"	"NULL"	"NULL"	"stimuli/Ebbinghaus_-0.1000_0.28000.png"	n/a	"Ebbinghaus"	"arrowleft"	"1416"	"TRUE"	"Ebbinghaus"	"-0.100000000"	"0.2800000000"	"1"	"20"
n/a	"html-keyboard-response"	"57"	"10051108"	"0.0-5.0-2.0-0.2"	"zawvzg"	"600"	"1024"	"chrome"	"109.0.0"	"FALSE"	"Windows 10"	"60.86"	"020"	n/a	n/a	n/a	n/a	n/a	n/a	"fixation"	n/a	n/a	n/a	n/a	"NULL"	n/a	"NULL"	"NULL"	"NULL"	"<p style=\"color: black; font-size: 80px; padding-left: 40%; padding-right: 21%; padding-top: 18%; padding-bottom: 11%\">+</p>"	"1045"	n/a	n/a	n/a	n/a	n/a	n/a	n/a	n/a	n/a
n/a	"image-keyboard-response"	"58"	"10051946"	"0.0-5.0-2.0-1.2"	"zawvzg"	"600"	"1024"	"chrome"	"109.0.0"	"FALSE"	"Windows 10"	"60.86"	"020"	n/a	n/a	n/a	n/a	n/a	n/a	"Trial"	n/a	n/a	n/a	"837"	"arrowright"	n/a	"NULL"	"NULL"	"NULL"	"stimuli/Ebbinghaus_0.87143_-0.15857.png"	n/a	"Ebbinghaus"	"arrowright"	"1065"	"TRUE"	"Ebbinghaus"	"0.8714300000"	"-0.158570000"	"1"	"21"
n/a	"html-keyboard-response"	"59"	"10053179"	"0.0-5.0-2.0-0.3"	"zawvzg"	"600"	"1024"	"chrome"	"109.0.0"	"FALSE"	"Windows 10"	"60.86"	"020"	n/a	n/a	n/a	n/a	n/a	n/a	"fixation"	n/a	n/a	n/a	n/a	"NULL"	n/a	"NULL"	"NULL"	"NULL"	"<p style=\"color: black; font-size: 80px; padding-left: 33%; padding-right: 44%; padding-top: 3%; padding-bottom: 28%\">+</p>"	"1223"	n/a	n/a	n/a	n/a	n/a	n/a	n/a	n/a	n/a
n/a	"image-keyboard-response"	"60"	"10054489"	"0.0-5.0-2.0-1.3"	"zawvzg"	"600"	"1024"	"chrome"	"109.0.0"	"FALSE"	"Windows 10"	"60.86"	"020"	n/a	n/a	n/a	n/a	n/a	n/a	"Trial"	n/a	n/a	n/a	"1309"	"arrowright"	n/a	"NULL"	"NULL"	"NULL"	"stimuli/Ebbinghaus_0.35714_-0.11071.png"	n/a	"Ebbinghaus"	"arrowright"	"1233"	"TRUE"	"Ebbinghaus"	"0.3571400000"	"-0.110710000"	"1"	"22"
n/a	"html-keyboard-response"	"61"	"10055754"	"0.0-5.0-2.0-0.4"	"zawvzg"	"600"	"1024"	"chrome"	"109.0.0"	"FALSE"	"Windows 10"	"60.86"	"020"	n/a	n/a	n/a	n/a	n/a	n/a	"fixation"	n/a	n/a	n/a	n/a	"NULL"	n/a	"NULL"	"NULL"	"NULL"	"<p style=\"color: black; font-size: 80px; padding-left: 46%; padding-right: 18%; padding-top: 27%; padding-bottom: 33%\">+</p>"	"1253"	n/a	n/a	n/a	n/a	n/a	n/a	n/a	n/a	n/a
n/a	"image-keyboard-response"	"62"	"10057543"	"0.0-5.0-2.0-1.4"	"zawvzg"	"600"	"1024"	"chrome"	"109.0.0"	"FALSE"	"Windows 10"	"60.86"	"020"	n/a	n/a	n/a	n/a	n/a	n/a	"Trial"	n/a	n/a	n/a	"1788"	"arrowright"	n/a	"NULL"	"NULL"	"NULL"	"stimuli/Ebbinghaus_-0.87143_0.21500.png"	n/a	"Ebbinghaus"	"arrowleft"	"1265"	"FALSE"	"Ebbinghaus"	"-0.871430000"	"0.2150000000"	"1"	"23"
n/a	"html-keyboard-response"	"63"	"10058746"	"0.0-5.0-2.0-0.5"	"zawvzg"	"600"	"1024"	"chrome"	"109.0.0"	"FALSE"	"Windows 10"	"60.86"	"020"	n/a	n/a	n/a	n/a	n/a	n/a	"fixation"	n/a	n/a	n/a	n/a	"NULL"	n/a	"NULL"	"NULL"	"NULL"	"<p style=\"color: black; font-size: 80px; padding-left: 47%; padding-right: 13%; padding-top: 42%; padding-bottom: 14%\">+</p>"	"1186"	n/a	n/a	n/a	n/a	n/a	n/a	n/a	n/a	n/a
n/a	"image-keyboard-response"	"64"	"10059826"	"0.0-5.0-2.0-1.5"	"zawvzg"	"600"	"1024"	"chrome"	"109.0.0"	"FALSE"	"Windows 10"	"60.86"	"020"	n/a	n/a	n/a	n/a	n/a	n/a	"Trial"	n/a	n/a	n/a	"1075"	"arrowleft"	n/a	"NULL"	"NULL"	"NULL"	"stimuli/Ebbinghaus_0.87143_-0.11071.png"	n/a	"Ebbinghaus"	"arrowright"	"1203"	"FALSE"	"Ebbinghaus"	"0.8714300000"	"-0.110710000"	"1"	"24"
n/a	"html-keyboard-response"	"65"	"10060993"	"0.0-5.0-2.0-0.6"	"zawvzg"	"600"	"1024"	"chrome"	"109.0.0"	"FALSE"	"Windows 10"	"60.86"	"020"	n/a	n/a	n/a	n/a	n/a	n/a	"fixation"	n/a	n/a	n/a	n/a	"NULL"	n/a	"NULL"	"NULL"	"NULL"	"<p style=\"color: black; font-size: 80px; padding-left: 21%; padding-right: 11%; padding-top: 36%; padding-bottom: 35%\">+</p>"	"1151"	n/a	n/a	n/a	n/a	n/a	n/a	n/a	n/a	n/a
n/a	"image-keyboard-response"	"66"	"10063250"	"0.0-5.0-2.0-1.6"	"zawvzg"	"600"	"1024"	"chrome"	"109.0.0"	"FALSE"	"Windows 10"	"60.86"	"020"	n/a	n/a	n/a	n/a	n/a	n/a	"Trial"	n/a	n/a	n/a	"2256"	"arrowleft"	n/a	"NULL"	"NULL"	"NULL"	"stimuli/Ebbinghaus_-0.35714_0.15857.png"	n/a	"Ebbinghaus"	"arrowleft"	"1167"	"TRUE"	"Ebbinghaus"	"-0.357140000"	"0.1585700000"	"1"	"25"
n/a	"html-keyboard-response"	"67"	"10064477"	"0.0-5.0-2.0-0.7"	"zawvzg"	"600"	"1024"	"chrome"	"109.0.0"	"FALSE"	"Windows 10"	"60.86"	"020"	n/a	n/a	n/a	n/a	n/a	n/a	"fixation"	n/a	n/a	n/a	n/a	"NULL"	n/a	"NULL"	"NULL"	"NULL"	"<p style=\"color: black; font-size: 80px; padding-left: 8%; padding-right: 50%; padding-top: 40%; padding-bottom: 31%\">+</p>"	"1216"	n/a	n/a	n/a	n/a	n/a	n/a	n/a	n/a	n/a
n/a	"image-keyboard-response"	"68"	"10066233"	"0.0-5.0-2.0-1.7"	"zawvzg"	"600"	"1024"	"chrome"	"109.0.0"	"FALSE"	"Windows 10"	"60.86"	"020"	n/a	n/a	n/a	n/a	n/a	n/a	"Trial"	n/a	n/a	n/a	"1755"	"arrowright"	n/a	"NULL"	"NULL"	"NULL"	"stimuli/Ebbinghaus_0.35714_0.15857.png"	n/a	"Ebbinghaus"	"arrowleft"	"1227"	"FALSE"	"Ebbinghaus"	"0.3571400000"	"0.1585700000"	"1"	"26"
n/a	"html-keyboard-response"	"69"	"10067400"	"0.0-5.0-2.0-0.8"	"zawvzg"	"600"	"1024"	"chrome"	"109.0.0"	"FALSE"	"Windows 10"	"60.86"	"020"	n/a	n/a	n/a	n/a	n/a	n/a	"fixation"	n/a	n/a	n/a	n/a	"NULL"	n/a	"NULL"	"NULL"	"NULL"	"<p style=\"color: black; font-size: 80px; padding-left: 3%; padding-right: 24%; padding-top: 42%; padding-bottom: 13%\">+</p>"	"1156"	n/a	n/a	n/a	n/a	n/a	n/a	n/a	n/a	n/a
n/a	"image-keyboard-response"	"70"	"10068642"	"0.0-5.0-2.0-1.8"	"zawvzg"	"600"	"1024"	"chrome"	"109.0.0"	"FALSE"	"Windows 10"	"60.86"	"020"	n/a	n/a	n/a	n/a	n/a	n/a	"Trial"	n/a	n/a	n/a	"1240"	"arrowleft"	n/a	"NULL"	"NULL"	"NULL"	"stimuli/Ebbinghaus_0.87143_0.15857.png"	n/a	"Ebbinghaus"	"arrowleft"	"1167"	"TRUE"	"Ebbinghaus"	"0.8714300000"	"0.1585700000"	"1"	"27"
n/a	"html-keyboard-response"	"71"	"10070031"	"0.0-5.0-2.0-0.9"	"zawvzg"	"600"	"1024"	"chrome"	"109.0.0"	"FALSE"	"Windows 10"	"60.86"	"020"	n/a	n/a	n/a	n/a	n/a	n/a	"fixation"	n/a	n/a	n/a	n/a	"NULL"	n/a	"NULL"	"NULL"	"NULL"	"<p style=\"color: black; font-size: 80px; padding-left: 15%; padding-right: 12%; padding-top: 32%; padding-bottom: 7%\">+</p>"	"1383"	n/a	n/a	n/a	n/a	n/a	n/a	n/a	n/a	n/a
n/a	"image-keyboard-response"	"72"	"10071347"	"0.0-5.0-2.0-1.9"	"zawvzg"	"600"	"1024"	"chrome"	"109.0.0"	"FALSE"	"Windows 10"	"60.86"	"020"	n/a	n/a	n/a	n/a	n/a	n/a	"Trial"	n/a	n/a	n/a	"1316"	"arrowleft"	n/a	"NULL"	"NULL"	"NULL"	"stimuli/Ebbinghaus_0.61429_0.11071.png"	n/a	"Ebbinghaus"	"arrowleft"	"1389"	"TRUE"	"Ebbinghaus"	"0.6142900000"	"0.1107100000"	"1"	"28"
n/a	"html-keyboard-response"	"73"	"10072381"	"0.0-5.0-2.0-0.10"	"zawvzg"	"600"	"1024"	"chrome"	"109.0.0"	"FALSE"	"Windows 10"	"60.86"	"020"	n/a	n/a	n/a	n/a	n/a	n/a	"fixation"	n/a	n/a	n/a	n/a	"NULL"	n/a	"NULL"	"NULL"	"NULL"	"<p style=\"color: black; font-size: 80px; padding-left: 8%; padding-right: 31%; padding-top: 40%; padding-bottom: 27%\">+</p>"	"1021"	n/a	n/a	n/a	n/a	n/a	n/a	n/a	n/a	n/a
n/a	"image-keyboard-response"	"74"	"10073636"	"0.0-5.0-2.0-1.10"	"zawvzg"	"600"	"1024"	"chrome"	"109.0.0"	"FALSE"	"Windows 10"	"60.86"	"020"	n/a	n/a	n/a	n/a	n/a	n/a	"Trial"	n/a	n/a	n/a	"1253"	"arrowright"	n/a	"NULL"	"NULL"	"NULL"	"stimuli/Ebbinghaus_0.61429_-0.2800.png"	n/a	"Ebbinghaus"	"arrowright"	"1034"	"TRUE"	"Ebbinghaus"	"0.6142900000"	"-0.280000000"	"1"	"29"
n/a	"html-keyboard-response"	"75"	"10075080"	"0.0-5.0-2.0-0.11"	"zawvzg"	"600"	"1024"	"chrome"	"109.0.0"	"FALSE"	"Windows 10"	"60.86"	"020"	n/a	n/a	n/a	n/a	n/a	n/a	"fixation"	n/a	n/a	n/a	n/a	"NULL"	n/a	"NULL"	"NULL"	"NULL"	"<p style=\"color: black; font-size: 80px; padding-left: 24%; padding-right: 7%; padding-top: 41%; padding-bottom: 23%\">+</p>"	"1432"	n/a	n/a	n/a	n/a	n/a	n/a	n/a	n/a	n/a
n/a	"image-keyboard-response"	"76"	"10075898"	"0.0-5.0-2.0-1.11"	"zawvzg"	"600"	"1024"	"chrome"	"109.0.0"	"FALSE"	"Windows 10"	"60.86"	"020"	n/a	n/a	n/a	n/a	n/a	n/a	"Trial"	n/a	n/a	n/a	"817"	"arrowleft"	n/a	"NULL"	"NULL"	"NULL"	"stimuli/Ebbinghaus_-0.87143_0.28000.png"	n/a	"Ebbinghaus"	"arrowleft"	"1444"	"TRUE"	"Ebbinghaus"	"-0.871430000"	"0.2800000000"	"1"	"30"
n/a	"html-keyboard-response"	"77"	"10077009"	"0.0-5.0-2.0-0.12"	"zawvzg"	"600"	"1024"	"chrome"	"109.0.0"	"FALSE"	"Windows 10"	"60.86"	"020"	n/a	n/a	n/a	n/a	n/a	n/a	"fixation"	n/a	n/a	n/a	n/a	"NULL"	n/a	"NULL"	"NULL"	"NULL"	"<p style=\"color: black; font-size: 80px; padding-left: 44%; padding-right: 21%; padding-top: 47%; padding-bottom: 10%\">+</p>"	"1103"	n/a	n/a	n/a	n/a	n/a	n/a	n/a	n/a	n/a
n/a	"image-keyboard-response"	"78"	"10077778"	"0.0-5.0-2.0-1.12"	"zawvzg"	"600"	"1024"	"chrome"	"109.0.0"	"FALSE"	"Windows 10"	"60.86"	"020"	n/a	n/a	n/a	n/a	n/a	n/a	"Trial"	n/a	n/a	n/a	"769"	"arrowleft"	n/a	"NULL"	"NULL"	"NULL"	"stimuli/Ebbinghaus_-0.1000_0.21500.png"	n/a	"Ebbinghaus"	"arrowleft"	"1111"	"TRUE"	"Ebbinghaus"	"-0.100000000"	"0.2150000000"	"1"	"31"
n/a	"html-keyboard-response"	"79"	"10078995"	"0.0-5.0-2.0-0.13"	"zawvzg"	"600"	"1024"	"chrome"	"109.0.0"	"FALSE"	"Windows 10"	"60.86"	"020"	n/a	n/a	n/a	n/a	n/a	n/a	"fixation"	n/a	n/a	n/a	n/a	"NULL"	n/a	"NULL"	"NULL"	"NULL"	"<p style=\"color: black; font-size: 80px; padding-left: 30%; padding-right: 26%; padding-top: 39%; padding-bottom: 10%\">+</p>"	"1202"	n/a	n/a	n/a	n/a	n/a	n/a	n/a	n/a	n/a
n/a	"image-keyboard-response"	"80"	"10079587"	"0.0-5.0-2.0-1.13"	"zawvzg"	"600"	"1024"	"chrome"	"109.0.0"	"FALSE"	"Windows 10"	"60.86"	"020"	n/a	n/a	n/a	n/a	n/a	n/a	"Trial"	n/a	n/a	n/a	"591"	"arrowright"	n/a	"NULL"	"NULL"	"NULL"	"stimuli/Ebbinghaus_-0.35714_-0.11071.png"	n/a	"Ebbinghaus"	"arrowright"	"1217"	"TRUE"	"Ebbinghaus"	"-0.357140000"	"-0.110710000"	"1"	"32"
n/a	"html-keyboard-response"	"81"	"10080883"	"0.0-5.0-2.0-0.14"	"zawvzg"	"600"	"1024"	"chrome"	"109.0.0"	"FALSE"	"Windows 10"	"60.86"	"020"	n/a	n/a	n/a	n/a	n/a	n/a	"fixation"	n/a	n/a	n/a	n/a	"NULL"	n/a	"NULL"	"NULL"	"NULL"	"<p style=\"color: black; font-size: 80px; padding-left: 40%; padding-right: 20%; padding-top: 12%; padding-bottom: 5%\">+</p>"	"1277"	n/a	n/a	n/a	n/a	n/a	n/a	n/a	n/a	n/a
n/a	"image-keyboard-response"	"82"	"10081398"	"0.0-5.0-2.0-1.14"	"zawvzg"	"600"	"1024"	"chrome"	"109.0.0"	"FALSE"	"Windows 10"	"60.86"	"020"	n/a	n/a	n/a	n/a	n/a	n/a	"Trial"	n/a	n/a	n/a	"513"	"arrowleft"	n/a	"NULL"	"NULL"	"NULL"	"stimuli/Ebbinghaus_0.10000_0.15857.png"	n/a	"Ebbinghaus"	"arrowleft"	"1296"	"TRUE"	"Ebbinghaus"	"0.1000000000"	"0.1585700000"	"1"	"33"
n/a	"html-keyboard-response"	"83"	"10082444"	"0.0-5.0-2.0-0.15"	"zawvzg"	"600"	"1024"	"chrome"	"109.0.0"	"FALSE"	"Windows 10"	"60.86"	"020"	n/a	n/a	n/a	n/a	n/a	n/a	"fixation"	n/a	n/a	n/a	n/a	"NULL"	n/a	"NULL"	"NULL"	"NULL"	"<p style=\"color: black; font-size: 80px; padding-left: 9%; padding-right: 15%; padding-top: 29%; padding-bottom: 11%\">+</p>"	"1036"	n/a	n/a	n/a	n/a	n/a	n/a	n/a	n/a	n/a
n/a	"image-keyboard-response"	"84"	"10083102"	"0.0-5.0-2.0-1.15"	"zawvzg"	"600"	"1024"	"chrome"	"109.0.0"	"FALSE"	"Windows 10"	"60.86"	"020"	n/a	n/a	n/a	n/a	n/a	n/a	"Trial"	n/a	n/a	n/a	"657"	"arrowright"	n/a	"NULL"	"NULL"	"NULL"	"stimuli/Ebbinghaus_-0.87143_-0.11071.png"	n/a	"Ebbinghaus"	"arrowright"	"1046"	"TRUE"	"Ebbinghaus"	"-0.871430000"	"-0.110710000"	"1"	"34"
n/a	"html-keyboard-response"	"85"	"10084283"	"0.0-5.0-2.0-0.16"	"zawvzg"	"600"	"1024"	"chrome"	"109.0.0"	"FALSE"	"Windows 10"	"60.86"	"020"	n/a	n/a	n/a	n/a	n/a	n/a	"fixation"	n/a	n/a	n/a	n/a	"NULL"	n/a	"NULL"	"NULL"	"NULL"	"<p style=\"color: black; font-size: 80px; padding-left: 50%; padding-right: 47%; padding-top: 49%; padding-bottom: 39%\">+</p>"	"1161"	n/a	n/a	n/a	n/a	n/a	n/a	n/a	n/a	n/a
n/a	"image-keyboard-response"	"86"	"10084859"	"0.0-5.0-2.0-1.16"	"zawvzg"	"600"	"1024"	"chrome"	"109.0.0"	"FALSE"	"Windows 10"	"60.86"	"020"	n/a	n/a	n/a	n/a	n/a	n/a	"Trial"	n/a	n/a	n/a	"576"	"arrowright"	n/a	"NULL"	"NULL"	"NULL"	"stimuli/Ebbinghaus_-0.87143_-0.2150.png"	n/a	"Ebbinghaus"	"arrowright"	"1181"	"TRUE"	"Ebbinghaus"	"-0.871430000"	"-0.215000000"	"1"	"35"
n/a	"html-keyboard-response"	"87"	"10086023"	"0.0-5.0-2.0-0.17"	"zawvzg"	"600"	"1024"	"chrome"	"109.0.0"	"FALSE"	"Windows 10"	"60.86"	"020"	n/a	n/a	n/a	n/a	n/a	n/a	"fixation"	n/a	n/a	n/a	n/a	"NULL"	n/a	"NULL"	"NULL"	"NULL"	"<p style=\"color: black; font-size: 80px; padding-left: 32%; padding-right: 5%; padding-top: 26%; padding-bottom: 36%\">+</p>"	"1149"	n/a	n/a	n/a	n/a	n/a	n/a	n/a	n/a	n/a
n/a	"image-keyboard-response"	"88"	"10086694"	"0.0-5.0-2.0-1.17"	"zawvzg"	"600"	"1024"	"chrome"	"109.0.0"	"FALSE"	"Windows 10"	"60.86"	"020"	n/a	n/a	n/a	n/a	n/a	n/a	"Trial"	n/a	n/a	n/a	"654"	"arrowleft"	n/a	"NULL"	"NULL"	"NULL"	"stimuli/Ebbinghaus_-0.61429_0.28000.png"	n/a	"Ebbinghaus"	"arrowleft"	"1164"	"TRUE"	"Ebbinghaus"	"-0.614290000"	"0.2800000000"	"1"	"36"
n/a	"html-keyboard-response"	"89"	"10087870"	"0.0-5.0-2.0-0.18"	"zawvzg"	"600"	"1024"	"chrome"	"109.0.0"	"FALSE"	"Windows 10"	"60.86"	"020"	n/a	n/a	n/a	n/a	n/a	n/a	"fixation"	n/a	n/a	n/a	n/a	"NULL"	n/a	"NULL"	"NULL"	"NULL"	"<p style=\"color: black; font-size: 80px; padding-left: 49%; padding-right: 31%; padding-top: 35%; padding-bottom: 16%\">+</p>"	"1161"	n/a	n/a	n/a	n/a	n/a	n/a	n/a	n/a	n/a
n/a	"image-keyboard-response"	"90"	"10088601"	"0.0-5.0-2.0-1.18"	"zawvzg"	"600"	"1024"	"chrome"	"109.0.0"	"FALSE"	"Windows 10"	"60.86"	"020"	n/a	n/a	n/a	n/a	n/a	n/a	"Trial"	n/a	n/a	n/a	"730"	"arrowleft"	n/a	"NULL"	"NULL"	"NULL"	"stimuli/Ebbinghaus_0.61429_0.28000.png"	n/a	"Ebbinghaus"	"arrowleft"	"1176"	"TRUE"	"Ebbinghaus"	"0.6142900000"	"0.2800000000"	"1"	"37"
n/a	"html-keyboard-response"	"91"	"10089723"	"0.0-5.0-2.0-0.19"	"zawvzg"	"600"	"1024"	"chrome"	"109.0.0"	"FALSE"	"Windows 10"	"60.86"	"020"	n/a	n/a	n/a	n/a	n/a	n/a	"fixation"	n/a	n/a	n/a	n/a	"NULL"	n/a	"NULL"	"NULL"	"NULL"	"<p style=\"color: black; font-size: 80px; padding-left: 39%; padding-right: 5%; padding-top: 11%; padding-bottom: 25%\">+</p>"	"1111"	n/a	n/a	n/a	n/a	n/a	n/a	n/a	n/a	n/a
n/a	"image-keyboard-response"	"92"	"10090130"	"0.0-5.0-2.0-1.19"	"zawvzg"	"600"	"1024"	"chrome"	"109.0.0"	"FALSE"	"Windows 10"	"60.86"	"020"	n/a	n/a	n/a	n/a	n/a	n/a	"Trial"	n/a	n/a	n/a	"406"	"arrowright"	n/a	"NULL"	"NULL"	"NULL"	"stimuli/Ebbinghaus_-0.87143_0.15857.png"	n/a	"Ebbinghaus"	"arrowleft"	"1122"	"FALSE"	"Ebbinghaus"	"-0.871430000"	"0.1585700000"	"1"	"38"
n/a	"html-keyboard-response"	"93"	"10091264"	"0.0-5.0-2.0-0.20"	"zawvzg"	"600"	"1024"	"chrome"	"109.0.0"	"FALSE"	"Windows 10"	"60.86"	"020"	n/a	n/a	n/a	n/a	n/a	n/a	"fixation"	n/a	n/a	n/a	n/a	"NULL"	n/a	"NULL"	"NULL"	"NULL"	"<p style=\"color: black; font-size: 80px; padding-left: 34%; padding-right: 14%; padding-top: 13%; padding-bottom: 34%\">+</p>"	"1118"	n/a	n/a	n/a	n/a	n/a	n/a	n/a	n/a	n/a
n/a	"image-keyboard-response"	"94"	"10091780"	"0.0-5.0-2.0-1.20"	"zawvzg"	"600"	"1024"	"chrome"	"109.0.0"	"FALSE"	"Windows 10"	"60.86"	"020"	n/a	n/a	n/a	n/a	n/a	n/a	"Trial"	n/a	n/a	n/a	"515"	"arrowright"	n/a	"NULL"	"NULL"	"NULL"	"stimuli/Ebbinghaus_0.10000_-0.2150.png"	n/a	"Ebbinghaus"	"arrowright"	"1134"	"TRUE"	"Ebbinghaus"	"0.1000000000"	"-0.215000000"	"1"	"39"
n/a	"html-keyboard-response"	"95"	"10093211"	"0.0-5.0-2.0-0.21"	"zawvzg"	"600"	"1024"	"chrome"	"109.0.0"	"FALSE"	"Windows 10"	"60.86"	"020"	n/a	n/a	n/a	n/a	n/a	n/a	"fixation"	n/a	n/a	n/a	n/a	"NULL"	n/a	"NULL"	"NULL"	"NULL"	"<p style=\"color: black; font-size: 80px; padding-left: 1%; padding-right: 12%; padding-top: 5%; padding-bottom: 48%\">+</p>"	"1423"	n/a	n/a	n/a	n/a	n/a	n/a	n/a	n/a	n/a
n/a	"image-keyboard-response"	"96"	"10093874"	"0.0-5.0-2.0-1.21"	"zawvzg"	"600"	"1024"	"chrome"	"109.0.0"	"FALSE"	"Windows 10"	"60.86"	"020"	n/a	n/a	n/a	n/a	n/a	n/a	"Trial"	n/a	n/a	n/a	"661"	"arrowright"	n/a	"NULL"	"NULL"	"NULL"	"stimuli/Ebbinghaus_-0.35714_-0.2800.png"	n/a	"Ebbinghaus"	"arrowright"	"1431"	"TRUE"	"Ebbinghaus"	"-0.357140000"	"-0.280000000"	"1"	"40"
n/a	"html-keyboard-response"	"97"	"10095194"	"0.0-5.0-2.0-0.22"	"zawvzg"	"600"	"1024"	"chrome"	"109.0.0"	"FALSE"	"Windows 10"	"60.86"	"020"	n/a	n/a	n/a	n/a	n/a	n/a	"fixation"	n/a	n/a	n/a	n/a	"NULL"	n/a	"NULL"	"NULL"	"NULL"	"<p style=\"color: black; font-size: 80px; padding-left: 22%; padding-right: 28%; padding-top: 39%; padding-bottom: 4%\">+</p>"	"1303"	n/a	n/a	n/a	n/a	n/a	n/a	n/a	n/a	n/a
n/a	"image-keyboard-response"	"98"	"10095710"	"0.0-5.0-2.0-1.22"	"zawvzg"	"600"	"1024"	"chrome"	"109.0.0"	"FALSE"	"Windows 10"	"60.86"	"020"	n/a	n/a	n/a	n/a	n/a	n/a	"Trial"	n/a	n/a	n/a	"513"	"arrowleft"	n/a	"NULL"	"NULL"	"NULL"	"stimuli/Ebbinghaus_0.35714_0.28000.png"	n/a	"Ebbinghaus"	"arrowleft"	"1320"	"TRUE"	"Ebbinghaus"	"0.3571400000"	"0.2800000000"	"1"	"41"
n/a	"html-keyboard-response"	"99"	"10097057"	"0.0-5.0-2.0-0.23"	"zawvzg"	"600"	"1024"	"chrome"	"109.0.0"	"FALSE"	"Windows 10"	"60.86"	"020"	n/a	n/a	n/a	n/a	n/a	n/a	"fixation"	n/a	n/a	n/a	n/a	"NULL"	n/a	"NULL"	"NULL"	"NULL"	"<p style=\"color: black; font-size: 80px; padding-left: 27%; padding-right: 10%; padding-top: 24%; padding-bottom: 2%\">+</p>"	"1333"	n/a	n/a	n/a	n/a	n/a	n/a	n/a	n/a	n/a
n/a	"image-keyboard-response"	"100"	"10097863"	"0.0-5.0-2.0-1.23"	"zawvzg"	"600"	"1024"	"chrome"	"109.0.0"	"FALSE"	"Windows 10"	"60.86"	"020"	n/a	n/a	n/a	n/a	n/a	n/a	"Trial"	n/a	n/a	n/a	"803"	"arrowright"	n/a	"NULL"	"NULL"	"NULL"	"stimuli/Ebbinghaus_-0.1000_-0.15857.png"	n/a	"Ebbinghaus"	"arrowright"	"1347"	"TRUE"	"Ebbinghaus"	"-0.100000000"	"-0.158570000"	"1"	"42"
n/a	"html-keyboard-response"	"101"	"10099022"	"0.0-5.0-2.0-0.24"	"zawvzg"	"600"	"1024"	"chrome"	"109.0.0"	"FALSE"	"Windows 10"	"60.86"	"020"	n/a	n/a	n/a	n/a	n/a	n/a	"fixation"	n/a	n/a	n/a	n/a	"NULL"	n/a	"NULL"	"NULL"	"NULL"	"<p style=\"color: black; font-size: 80px; padding-left: 9%; padding-right: 13%; padding-top: 1%; padding-bottom: 6%\">+</p>"	"1144"	n/a	n/a	n/a	n/a	n/a	n/a	n/a	n/a	n/a
n/a	"image-keyboard-response"	"102"	"10099618"	"0.0-5.0-2.0-1.24"	"zawvzg"	"600"	"1024"	"chrome"	"109.0.0"	"FALSE"	"Windows 10"	"60.86"	"020"	n/a	n/a	n/a	n/a	n/a	n/a	"Trial"	n/a	n/a	n/a	"590"	"arrowleft"	n/a	"NULL"	"NULL"	"NULL"	"stimuli/Ebbinghaus_-0.35714_-0.15857.png"	n/a	"Ebbinghaus"	"arrowright"	"1159"	"FALSE"	"Ebbinghaus"	"-0.357140000"	"-0.158570000"	"1"	"43"
n/a	"html-keyboard-response"	"103"	"10100733"	"0.0-5.0-2.0-0.25"	"zawvzg"	"600"	"1024"	"chrome"	"109.0.0"	"FALSE"	"Windows 10"	"60.86"	"020"	n/a	n/a	n/a	n/a	n/a	n/a	"fixation"	n/a	n/a	n/a	n/a	"NULL"	n/a	"NULL"	"NULL"	"NULL"	"<p style=\"color: black; font-size: 80px; padding-left: 6%; padding-right: 8%; padding-top: 3%; padding-bottom: 30%\">+</p>"	"1106"	n/a	n/a	n/a	n/a	n/a	n/a	n/a	n/a	n/a
n/a	"image-keyboard-response"	"104"	"10101283"	"0.0-5.0-2.0-1.25"	"zawvzg"	"600"	"1024"	"chrome"	"109.0.0"	"FALSE"	"Windows 10"	"60.86"	"020"	n/a	n/a	n/a	n/a	n/a	n/a	"Trial"	n/a	n/a	n/a	"549"	"arrowright"	n/a	"NULL"	"NULL"	"NULL"	"stimuli/Ebbinghaus_0.10000_0.21500.png"	n/a	"Ebbinghaus"	"arrowleft"	"1115"	"FALSE"	"Ebbinghaus"	"0.1000000000"	"0.2150000000"	"1"	"44"
n/a	"html-keyboard-response"	"105"	"10102454"	"0.0-5.0-2.0-0.26"	"zawvzg"	"600"	"1024"	"chrome"	"109.0.0"	"FALSE"	"Windows 10"	"60.86"	"020"	n/a	n/a	n/a	n/a	n/a	n/a	"fixation"	n/a	n/a	n/a	n/a	"NULL"	n/a	"NULL"	"NULL"	"NULL"	"<p style=\"color: black; font-size: 80px; padding-left: 35%; padding-right: 14%; padding-top: 19%; padding-bottom: 48%\">+</p>"	"1166"	n/a	n/a	n/a	n/a	n/a	n/a	n/a	n/a	n/a
n/a	"image-keyboard-response"	"106"	"10103495"	"0.0-5.0-2.0-1.26"	"zawvzg"	"600"	"1024"	"chrome"	"109.0.0"	"FALSE"	"Windows 10"	"60.86"	"020"	n/a	n/a	n/a	n/a	n/a	n/a	"Trial"	n/a	n/a	n/a	"1040"	"arrowright"	n/a	"NULL"	"NULL"	"NULL"	"stimuli/Ebbinghaus_0.35714_-0.2800.png"	n/a	"Ebbinghaus"	"arrowright"	"1171"	"TRUE"	"Ebbinghaus"	"0.3571400000"	"-0.280000000"	"1"	"45"
n/a	"html-keyboard-response"	"107"	"10104980"	"0.0-5.0-2.0-0.27"	"zawvzg"	"600"	"1024"	"chrome"	"109.0.0"	"FALSE"	"Windows 10"	"60.86"	"020"	n/a	n/a	n/a	n/a	n/a	n/a	"fixation"	n/a	n/a	n/a	n/a	"NULL"	n/a	"NULL"	"NULL"	"NULL"	"<p style=\"color: black; font-size: 80px; padding-left: 6%; padding-right: 16%; padding-top: 40%; padding-bottom: 18%\">+</p>"	"1463"	n/a	n/a	n/a	n/a	n/a	n/a	n/a	n/a	n/a
n/a	"image-keyboard-response"	"108"	"10106124"	"0.0-5.0-2.0-1.27"	"zawvzg"	"600"	"1024"	"chrome"	"109.0.0"	"FALSE"	"Windows 10"	"60.86"	"020"	n/a	n/a	n/a	n/a	n/a	n/a	"Trial"	n/a	n/a	n/a	"1143"	"arrowright"	n/a	"NULL"	"NULL"	"NULL"	"stimuli/Ebbinghaus_0.35714_-0.2150.png"	n/a	"Ebbinghaus"	"arrowright"	"1485"	"TRUE"	"Ebbinghaus"	"0.3571400000"	"-0.215000000"	"1"	"46"
n/a	"html-keyboard-response"	"109"	"10107219"	"0.0-5.0-2.0-0.28"	"zawvzg"	"600"	"1024"	"chrome"	"109.0.0"	"FALSE"	"Windows 10"	"60.86"	"020"	n/a	n/a	n/a	n/a	n/a	n/a	"fixation"	n/a	n/a	n/a	n/a	"NULL"	n/a	"NULL"	"NULL"	"NULL"	"<p style=\"color: black; font-size: 80px; padding-left: 41%; padding-right: 11%; padding-top: 21%; padding-bottom: 30%\">+</p>"	"1086"	n/a	n/a	n/a	n/a	n/a	n/a	n/a	n/a	n/a
n/a	"image-keyboard-response"	"110"	"10109135"	"0.0-5.0-2.0-1.28"	"zawvzg"	"600"	"1024"	"chrome"	"109.0.0"	"FALSE"	"Windows 10"	"60.86"	"020"	n/a	n/a	n/a	n/a	n/a	n/a	"Trial"	n/a	n/a	n/a	"1914"	"arrowleft"	n/a	"NULL"	"NULL"	"NULL"	"stimuli/Ebbinghaus_0.35714_0.11071.png"	n/a	"Ebbinghaus"	"arrowleft"	"1095"	"TRUE"	"Ebbinghaus"	"0.3571400000"	"0.1107100000"	"1"	"47"
n/a	"html-keyboard-response"	"111"	"10110566"	"0.0-5.0-2.0-0.29"	"zawvzg"	"600"	"1024"	"chrome"	"109.0.0"	"FALSE"	"Windows 10"	"60.86"	"020"	n/a	n/a	n/a	n/a	n/a	n/a	"fixation"	n/a	n/a	n/a	n/a	"NULL"	n/a	"NULL"	"NULL"	"NULL"	"<p style=\"color: black; font-size: 80px; padding-left: 30%; padding-right: 20%; padding-top: 24%; padding-bottom: 24%\">+</p>"	"1428"	n/a	n/a	n/a	n/a	n/a	n/a	n/a	n/a	n/a
n/a	"image-keyboard-response"	"112"	"10111613"	"0.0-5.0-2.0-1.29"	"zawvzg"	"600"	"1024"	"chrome"	"109.0.0"	"FALSE"	"Windows 10"	"60.86"	"020"	n/a	n/a	n/a	n/a	n/a	n/a	"Trial"	n/a	n/a	n/a	"1046"	"arrowright"	n/a	"NULL"	"NULL"	"NULL"	"stimuli/Ebbinghaus_-0.61429_-0.11071.png"	n/a	"Ebbinghaus"	"arrowright"	"1431"	"TRUE"	"Ebbinghaus"	"-0.614290000"	"-0.110710000"	"1"	"48"
n/a	"html-keyboard-response"	"113"	"10112761"	"0.0-5.0-2.0-0.30"	"zawvzg"	"600"	"1024"	"chrome"	"109.0.0"	"FALSE"	"Windows 10"	"60.86"	"020"	n/a	n/a	n/a	n/a	n/a	n/a	"fixation"	n/a	n/a	n/a	n/a	"NULL"	n/a	"NULL"	"NULL"	"NULL"	"<p style=\"color: black; font-size: 80px; padding-left: 43%; padding-right: 48%; padding-top: 7%; padding-bottom: 27%\">+</p>"	"1138"	n/a	n/a	n/a	n/a	n/a	n/a	n/a	n/a	n/a
n/a	"image-keyboard-response"	"114"	"10113876"	"0.0-5.0-2.0-1.30"	"zawvzg"	"600"	"1024"	"chrome"	"109.0.0"	"FALSE"	"Windows 10"	"60.86"	"020"	n/a	n/a	n/a	n/a	n/a	n/a	"Trial"	n/a	n/a	n/a	"1114"	"arrowright"	n/a	"NULL"	"NULL"	"NULL"	"stimuli/Ebbinghaus_0.87143_0.28000.png"	n/a	"Ebbinghaus"	"arrowleft"	"1148"	"FALSE"	"Ebbinghaus"	"0.8714300000"	"0.2800000000"	"1"	"49"
n/a	"html-keyboard-response"	"115"	"10115346"	"0.0-5.0-2.0-0.31"	"zawvzg"	"600"	"1024"	"chrome"	"109.0.0"	"FALSE"	"Windows 10"	"60.86"	"020"	n/a	n/a	n/a	n/a	n/a	n/a	"fixation"	n/a	n/a	n/a	n/a	"NULL"	n/a	"NULL"	"NULL"	"NULL"	"<p style=\"color: black; font-size: 80px; padding-left: 12%; padding-right: 48%; padding-top: 43%; padding-bottom: 26%\">+</p>"	"1463"	n/a	n/a	n/a	n/a	n/a	n/a	n/a	n/a	n/a
n/a	"image-keyboard-response"	"116"	"10117766"	"0.0-5.0-2.0-1.31"	"zawvzg"	"600"	"1024"	"chrome"	"109.0.0"	"FALSE"	"Windows 10"	"60.86"	"020"	n/a	n/a	n/a	n/a	n/a	n/a	"Trial"	n/a	n/a	n/a	"2419"	"arrowright"	n/a	"NULL"	"NULL"	"NULL"	"stimuli/Ebbinghaus_-0.1000_0.11071.png"	n/a	"Ebbinghaus"	"arrowleft"	"1470"	"FALSE"	"Ebbinghaus"	"-0.100000000"	"0.1107100000"	"1"	"50"
n/a	"html-keyboard-response"	"117"	"10119265"	"0.0-5.0-2.0-0.32"	"zawvzg"	"600"	"1024"	"chrome"	"109.0.0"	"FALSE"	"Windows 10"	"60.86"	"020"	n/a	n/a	n/a	n/a	n/a	n/a	"fixation"	n/a	n/a	n/a	n/a	"NULL"	n/a	"NULL"	"NULL"	"NULL"	"<p style=\"color: black; font-size: 80px; padding-left: 17%; padding-right: 38%; padding-top: 7%; padding-bottom: 8%\">+</p>"	"1492"	n/a	n/a	n/a	n/a	n/a	n/a	n/a	n/a	n/a
n/a	"image-keyboard-response"	"118"	"10120047"	"0.0-5.0-2.0-1.32"	"zawvzg"	"600"	"1024"	"chrome"	"109.0.0"	"FALSE"	"Windows 10"	"60.86"	"020"	n/a	n/a	n/a	n/a	n/a	n/a	"Trial"	n/a	n/a	n/a	"780"	"arrowright"	n/a	"NULL"	"NULL"	"NULL"	"stimuli/Ebbinghaus_-0.35714_-0.2150.png"	n/a	"Ebbinghaus"	"arrowright"	"1499"	"TRUE"	"Ebbinghaus"	"-0.357140000"	"-0.215000000"	"1"	"51"
n/a	"html-keyboard-response"	"119"	"10121541"	"0.0-5.0-2.0-0.33"	"zawvzg"	"600"	"1024"	"chrome"	"109.0.0"	"FALSE"	"Windows 10"	"60.86"	"020"	n/a	n/a	n/a	n/a	n/a	n/a	"fixation"	n/a	n/a	n/a	n/a	"NULL"	n/a	"NULL"	"NULL"	"NULL"	"<p style=\"color: black; font-size: 80px; padding-left: 9%; padding-right: 17%; padding-top: 32%; padding-bottom: 10%\">+</p>"	"1482"	n/a	n/a	n/a	n/a	n/a	n/a	n/a	n/a	n/a
n/a	"image-keyboard-response"	"120"	"10122476"	"0.0-5.0-2.0-1.33"	"zawvzg"	"600"	"1024"	"chrome"	"109.0.0"	"FALSE"	"Windows 10"	"60.86"	"020"	n/a	n/a	n/a	n/a	n/a	n/a	"Trial"	n/a	n/a	n/a	"929"	"arrowright"	n/a	"NULL"	"NULL"	"NULL"	"stimuli/Ebbinghaus_0.35714_0.21500.png"	n/a	"Ebbinghaus"	"arrowleft"	"1494"	"FALSE"	"Ebbinghaus"	"0.3571400000"	"0.2150000000"	"1"	"52"
n/a	"html-keyboard-response"	"121"	"10123565"	"0.0-5.0-2.0-0.34"	"zawvzg"	"600"	"1024"	"chrome"	"109.0.0"	"FALSE"	"Windows 10"	"60.86"	"020"	n/a	n/a	n/a	n/a	n/a	n/a	"fixation"	n/a	n/a	n/a	n/a	"NULL"	n/a	"NULL"	"NULL"	"NULL"	"<p style=\"color: black; font-size: 80px; padding-left: 16%; padding-right: 18%; padding-top: 9%; padding-bottom: 25%\">+</p>"	"1072"	n/a	n/a	n/a	n/a	n/a	n/a	n/a	n/a	n/a
n/a	"image-keyboard-response"	"122"	"10124294"	"0.0-5.0-2.0-1.34"	"zawvzg"	"600"	"1024"	"chrome"	"109.0.0"	"FALSE"	"Windows 10"	"60.86"	"020"	n/a	n/a	n/a	n/a	n/a	n/a	"Trial"	n/a	n/a	n/a	"728"	"arrowright"	n/a	"NULL"	"NULL"	"NULL"	"stimuli/Ebbinghaus_-0.1000_-0.2800.png"	n/a	"Ebbinghaus"	"arrowright"	"1089"	"TRUE"	"Ebbinghaus"	"-0.100000000"	"-0.280000000"	"1"	"53"
n/a	"html-keyboard-response"	"123"	"10125654"	"0.0-5.0-2.0-0.35"	"zawvzg"	"600"	"1024"	"chrome"	"109.0.0"	"FALSE"	"Windows 10"	"60.86"	"020"	n/a	n/a	n/a	n/a	n/a	n/a	"fixation"	n/a	n/a	n/a	n/a	"NULL"	n/a	"NULL"	"NULL"	"NULL"	"<p style=\"color: black; font-size: 80px; padding-left: 1%; padding-right: 40%; padding-top: 18%; padding-bottom: 43%\">+</p>"	"1344"	n/a	n/a	n/a	n/a	n/a	n/a	n/a	n/a	n/a
n/a	"image-keyboard-response"	"124"	"10126360"	"0.0-5.0-2.0-1.35"	"zawvzg"	"600"	"1024"	"chrome"	"109.0.0"	"FALSE"	"Windows 10"	"60.86"	"020"	n/a	n/a	n/a	n/a	n/a	n/a	"Trial"	n/a	n/a	n/a	"704"	"arrowleft"	n/a	"NULL"	"NULL"	"NULL"	"stimuli/Ebbinghaus_-0.35714_0.11071.png"	n/a	"Ebbinghaus"	"arrowleft"	"1360"	"TRUE"	"Ebbinghaus"	"-0.357140000"	"0.1107100000"	"1"	"54"
n/a	"html-keyboard-response"	"125"	"10127668"	"0.0-5.0-2.0-0.36"	"zawvzg"	"600"	"1024"	"chrome"	"109.0.0"	"FALSE"	"Windows 10"	"60.86"	"020"	n/a	n/a	n/a	n/a	n/a	n/a	"fixation"	n/a	n/a	n/a	n/a	"NULL"	n/a	"NULL"	"NULL"	"NULL"	"<p style=\"color: black; font-size: 80px; padding-left: 48%; padding-right: 44%; padding-top: 7%; padding-bottom: 15%\">+</p>"	"1292"	n/a	n/a	n/a	n/a	n/a	n/a	n/a	n/a	n/a
n/a	"image-keyboard-response"	"126"	"10128206"	"0.0-5.0-2.0-1.36"	"zawvzg"	"600"	"1024"	"chrome"	"109.0.0"	"FALSE"	"Windows 10"	"60.86"	"020"	n/a	n/a	n/a	n/a	n/a	n/a	"Trial"	n/a	n/a	n/a	"537"	"arrowright"	n/a	"NULL"	"NULL"	"NULL"	"stimuli/Ebbinghaus_0.87143_-0.2800.png"	n/a	"Ebbinghaus"	"arrowright"	"1308"	"TRUE"	"Ebbinghaus"	"0.8714300000"	"-0.280000000"	"1"	"55"
n/a	"html-keyboard-response"	"127"	"10129655"	"0.0-5.0-2.0-0.37"	"zawvzg"	"600"	"1024"	"chrome"	"109.0.0"	"FALSE"	"Windows 10"	"60.86"	"020"	n/a	n/a	n/a	n/a	n/a	n/a	"fixation"	n/a	n/a	n/a	n/a	"NULL"	n/a	"NULL"	"NULL"	"NULL"	"<p style=\"color: black; font-size: 80px; padding-left: 19%; padding-right: 0%; padding-top: 38%; padding-bottom: 50%\">+</p>"	"1443"	n/a	n/a	n/a	n/a	n/a	n/a	n/a	n/a	n/a
n/a	"image-keyboard-response"	"128"	"10130824"	"0.0-5.0-2.0-1.37"	"zawvzg"	"600"	"1024"	"chrome"	"109.0.0"	"FALSE"	"Windows 10"	"60.86"	"020"	n/a	n/a	n/a	n/a	n/a	n/a	"Trial"	n/a	n/a	n/a	"1168"	"arrowright"	n/a	"NULL"	"NULL"	"NULL"	"stimuli/Ebbinghaus_0.61429_-0.15857.png"	n/a	"Ebbinghaus"	"arrowright"	"1449"	"TRUE"	"Ebbinghaus"	"0.6142900000"	"-0.158570000"	"1"	"56"
n/a	"html-keyboard-response"	"129"	"10132235"	"0.0-5.0-2.0-0.38"	"zawvzg"	"600"	"1024"	"chrome"	"109.0.0"	"FALSE"	"Windows 10"	"60.86"	"020"	n/a	n/a	n/a	n/a	n/a	n/a	"fixation"	n/a	n/a	n/a	n/a	"NULL"	n/a	"NULL"	"NULL"	"NULL"	"<p style=\"color: black; font-size: 80px; padding-left: 39%; padding-right: 4%; padding-top: 36%; padding-bottom: 1%\">+</p>"	"1390"	n/a	n/a	n/a	n/a	n/a	n/a	n/a	n/a	n/a
n/a	"image-keyboard-response"	"130"	"10132861"	"0.0-5.0-2.0-1.38"	"zawvzg"	"600"	"1024"	"chrome"	"109.0.0"	"FALSE"	"Windows 10"	"60.86"	"020"	n/a	n/a	n/a	n/a	n/a	n/a	"Trial"	n/a	n/a	n/a	"623"	"arrowleft"	n/a	"NULL"	"NULL"	"NULL"	"stimuli/Ebbinghaus_0.87143_0.21500.png"	n/a	"Ebbinghaus"	"arrowleft"	"1411"	"TRUE"	"Ebbinghaus"	"0.8714300000"	"0.2150000000"	"1"	"57"
n/a	"html-keyboard-response"	"131"	"10134295"	"0.0-5.0-2.0-0.39"	"zawvzg"	"600"	"1024"	"chrome"	"109.0.0"	"FALSE"	"Windows 10"	"60.86"	"020"	n/a	n/a	n/a	n/a	n/a	n/a	"fixation"	n/a	n/a	n/a	n/a	"NULL"	n/a	"NULL"	"NULL"	"NULL"	"<p style=\"color: black; font-size: 80px; padding-left: 48%; padding-right: 5%; padding-top: 12%; padding-bottom: 29%\">+</p>"	"1425"	n/a	n/a	n/a	n/a	n/a	n/a	n/a	n/a	n/a
n/a	"image-keyboard-response"	"132"	"10134823"	"0.0-5.0-2.0-1.39"	"zawvzg"	"600"	"1024"	"chrome"	"109.0.0"	"FALSE"	"Windows 10"	"60.86"	"020"	n/a	n/a	n/a	n/a	n/a	n/a	"Trial"	n/a	n/a	n/a	"527"	"arrowright"	n/a	"NULL"	"NULL"	"NULL"	"stimuli/Ebbinghaus_0.35714_-0.15857.png"	n/a	"Ebbinghaus"	"arrowright"	"1434"	"TRUE"	"Ebbinghaus"	"0.3571400000"	"-0.158570000"	"1"	"58"
n/a	"html-keyboard-response"	"133"	"10136140"	"0.0-5.0-2.0-0.40"	"zawvzg"	"600"	"1024"	"chrome"	"109.0.0"	"FALSE"	"Windows 10"	"60.86"	"020"	n/a	n/a	n/a	n/a	n/a	n/a	"fixation"	n/a	n/a	n/a	n/a	"NULL"	n/a	"NULL"	"NULL"	"NULL"	"<p style=\"color: black; font-size: 80px; padding-left: 40%; padding-right: 40%; padding-top: 39%; padding-bottom: 31%\">+</p>"	"1302"	n/a	n/a	n/a	n/a	n/a	n/a	n/a	n/a	n/a
n/a	"image-keyboard-response"	"134"	"10137237"	"0.0-5.0-2.0-1.40"	"zawvzg"	"600"	"1024"	"chrome"	"109.0.0"	"FALSE"	"Windows 10"	"60.86"	"020"	n/a	n/a	n/a	n/a	n/a	n/a	"Trial"	n/a	n/a	n/a	"1096"	"arrowleft"	n/a	"NULL"	"NULL"	"NULL"	"stimuli/Ebbinghaus_-0.61429_0.15857.png"	n/a	"Ebbinghaus"	"arrowleft"	"1317"	"TRUE"	"Ebbinghaus"	"-0.614290000"	"0.1585700000"	"1"	"59"
n/a	"html-keyboard-response"	"135"	"10138722"	"0.0-5.0-2.0-0.41"	"zawvzg"	"600"	"1024"	"chrome"	"109.0.0"	"FALSE"	"Windows 10"	"60.86"	"020"	n/a	n/a	n/a	n/a	n/a	n/a	"fixation"	n/a	n/a	n/a	n/a	"NULL"	n/a	"NULL"	"NULL"	"NULL"	"<p style=\"color: black; font-size: 80px; padding-left: 2%; padding-right: 16%; padding-top: 24%; padding-bottom: 44%\">+</p>"	"1464"	n/a	n/a	n/a	n/a	n/a	n/a	n/a	n/a	n/a
n/a	"image-keyboard-response"	"136"	"10139631"	"0.0-5.0-2.0-1.41"	"zawvzg"	"600"	"1024"	"chrome"	"109.0.0"	"FALSE"	"Windows 10"	"60.86"	"020"	n/a	n/a	n/a	n/a	n/a	n/a	"Trial"	n/a	n/a	n/a	"908"	"arrowleft"	n/a	"NULL"	"NULL"	"NULL"	"stimuli/Ebbinghaus_-0.87143_0.11071.png"	n/a	"Ebbinghaus"	"arrowleft"	"1485"	"TRUE"	"Ebbinghaus"	"-0.871430000"	"0.1107100000"	"1"	"60"
n/a	"html-keyboard-response"	"137"	"10140776"	"0.0-5.0-2.0-0.42"	"zawvzg"	"600"	"1024"	"chrome"	"109.0.0"	"FALSE"	"Windows 10"	"60.86"	"020"	n/a	n/a	n/a	n/a	n/a	n/a	"fixation"	n/a	n/a	n/a	n/a	"NULL"	n/a	"NULL"	"NULL"	"NULL"	"<p style=\"color: black; font-size: 80px; padding-left: 17%; padding-right: 47%; padding-top: 6%; padding-bottom: 46%\">+</p>"	"1132"	n/a	n/a	n/a	n/a	n/a	n/a	n/a	n/a	n/a
n/a	"image-keyboard-response"	"138"	"10143795"	"0.0-5.0-2.0-1.42"	"zawvzg"	"600"	"1024"	"chrome"	"109.0.0"	"FALSE"	"Windows 10"	"60.86"	"020"	n/a	n/a	n/a	n/a	n/a	n/a	"Trial"	n/a	n/a	n/a	"3018"	"arrowleft"	n/a	"NULL"	"NULL"	"NULL"	"stimuli/Ebbinghaus_0.61429_0.21500.png"	n/a	"Ebbinghaus"	"arrowleft"	"1145"	"TRUE"	"Ebbinghaus"	"0.6142900000"	"0.2150000000"	"1"	"61"
n/a	"html-keyboard-response"	"139"	"10145176"	"0.0-5.0-2.0-0.43"	"zawvzg"	"600"	"1024"	"chrome"	"109.0.0"	"FALSE"	"Windows 10"	"60.86"	"020"	n/a	n/a	n/a	n/a	n/a	n/a	"fixation"	n/a	n/a	n/a	n/a	"NULL"	n/a	"NULL"	"NULL"	"NULL"	"<p style=\"color: black; font-size: 80px; padding-left: 27%; padding-right: 3%; padding-top: 24%; padding-bottom: 30%\">+</p>"	"1367"	n/a	n/a	n/a	n/a	n/a	n/a	n/a	n/a	n/a
n/a	"image-keyboard-response"	"140"	"10146283"	"0.0-5.0-2.0-1.43"	"zawvzg"	"600"	"1024"	"chrome"	"109.0.0"	"FALSE"	"Windows 10"	"60.86"	"020"	n/a	n/a	n/a	n/a	n/a	n/a	"Trial"	n/a	n/a	n/a	"1106"	"arrowleft"	n/a	"NULL"	"NULL"	"NULL"	"stimuli/Ebbinghaus_-0.61429_0.11071.png"	n/a	"Ebbinghaus"	"arrowleft"	"1381"	"TRUE"	"Ebbinghaus"	"-0.614290000"	"0.1107100000"	"1"	"62"
n/a	"html-keyboard-response"	"141"	"10147500"	"0.0-5.0-2.0-0.44"	"zawvzg"	"600"	"1024"	"chrome"	"109.0.0"	"FALSE"	"Windows 10"	"60.86"	"020"	n/a	n/a	n/a	n/a	n/a	n/a	"fixation"	n/a	n/a	n/a	n/a	"NULL"	n/a	"NULL"	"NULL"	"NULL"	"<p style=\"color: black; font-size: 80px; padding-left: 22%; padding-right: 36%; padding-top: 16%; padding-bottom: 18%\">+</p>"	"1199"	n/a	n/a	n/a	n/a	n/a	n/a	n/a	n/a	n/a
n/a	"image-keyboard-response"	"142"	"10148228"	"0.0-5.0-2.0-1.44"	"zawvzg"	"600"	"1024"	"chrome"	"109.0.0"	"FALSE"	"Windows 10"	"60.86"	"020"	n/a	n/a	n/a	n/a	n/a	n/a	"Trial"	n/a	n/a	n/a	"726"	"arrowright"	n/a	"NULL"	"NULL"	"NULL"	"stimuli/Ebbinghaus_-0.87143_-0.15857.png"	n/a	"Ebbinghaus"	"arrowright"	"1217"	"TRUE"	"Ebbinghaus"	"-0.871430000"	"-0.158570000"	"1"	"63"
n/a	"html-keyboard-response"	"143"	"10149437"	"0.0-5.0-2.0-0.45"	"zawvzg"	"600"	"1024"	"chrome"	"109.0.0"	"FALSE"	"Windows 10"	"60.86"	"020"	n/a	n/a	n/a	n/a	n/a	n/a	"fixation"	n/a	n/a	n/a	n/a	"NULL"	n/a	"NULL"	"NULL"	"NULL"	"<p style=\"color: black; font-size: 80px; padding-left: 17%; padding-right: 44%; padding-top: 21%; padding-bottom: 13%\">+</p>"	"1203"	n/a	n/a	n/a	n/a	n/a	n/a	n/a	n/a	n/a
n/a	"image-keyboard-response"	"144"	"10150928"	"0.0-5.0-2.0-1.45"	"zawvzg"	"600"	"1024"	"chrome"	"109.0.0"	"FALSE"	"Windows 10"	"60.86"	"020"	n/a	n/a	n/a	n/a	n/a	n/a	"Trial"	n/a	n/a	n/a	"1490"	"arrowleft"	n/a	"NULL"	"NULL"	"NULL"	"stimuli/Ebbinghaus_0.10000_0.11071.png"	n/a	"Ebbinghaus"	"arrowleft"	"1209"	"TRUE"	"Ebbinghaus"	"0.1000000000"	"0.1107100000"	"1"	"64"
n/a	"html-keyboard-response"	"145"	"10152110"	"0.0-5.0-2.0-0.46"	"zawvzg"	"600"	"1024"	"chrome"	"109.0.0"	"FALSE"	"Windows 10"	"60.86"	"020"	n/a	n/a	n/a	n/a	n/a	n/a	"fixation"	n/a	n/a	n/a	n/a	"NULL"	n/a	"NULL"	"NULL"	"NULL"	"<p style=\"color: black; font-size: 80px; padding-left: 31%; padding-right: 5%; padding-top: 49%; padding-bottom: 11%\">+</p>"	"1177"	n/a	n/a	n/a	n/a	n/a	n/a	n/a	n/a	n/a
n/a	"image-keyboard-response"	"146"	"10152762"	"0.0-5.0-2.0-1.46"	"zawvzg"	"600"	"1024"	"chrome"	"109.0.0"	"FALSE"	"Windows 10"	"60.86"	"020"	n/a	n/a	n/a	n/a	n/a	n/a	"Trial"	n/a	n/a	n/a	"651"	"arrowleft"	n/a	"NULL"	"NULL"	"NULL"	"stimuli/Ebbinghaus_0.10000_0.28000.png"	n/a	"Ebbinghaus"	"arrowleft"	"1182"	"TRUE"	"Ebbinghaus"	"0.1000000000"	"0.2800000000"	"1"	"65"
n/a	"html-keyboard-response"	"147"	"10154001"	"0.0-5.0-2.0-0.47"	"zawvzg"	"600"	"1024"	"chrome"	"109.0.0"	"FALSE"	"Windows 10"	"60.86"	"020"	n/a	n/a	n/a	n/a	n/a	n/a	"fixation"	n/a	n/a	n/a	n/a	"NULL"	n/a	"NULL"	"NULL"	"NULL"	"<p style=\"color: black; font-size: 80px; padding-left: 31%; padding-right: 16%; padding-top: 27%; padding-bottom: 27%\">+</p>"	"1222"	n/a	n/a	n/a	n/a	n/a	n/a	n/a	n/a	n/a
n/a	"image-keyboard-response"	"148"	"10154869"	"0.0-5.0-2.0-1.47"	"zawvzg"	"600"	"1024"	"chrome"	"109.0.0"	"FALSE"	"Windows 10"	"60.86"	"020"	n/a	n/a	n/a	n/a	n/a	n/a	"Trial"	n/a	n/a	n/a	"861"	"arrowright"	n/a	"NULL"	"NULL"	"NULL"	"stimuli/Ebbinghaus_-0.61429_-0.2150.png"	n/a	"Ebbinghaus"	"arrowright"	"1239"	"TRUE"	"Ebbinghaus"	"-0.614290000"	"-0.215000000"	"1"	"66"
n/a	"html-keyboard-response"	"149"	"10156168"	"0.0-5.0-2.0-0.48"	"zawvzg"	"600"	"1024"	"chrome"	"109.0.0"	"FALSE"	"Windows 10"	"60.86"	"020"	n/a	n/a	n/a	n/a	n/a	n/a	"fixation"	n/a	n/a	n/a	n/a	"NULL"	n/a	"NULL"	"NULL"	"NULL"	"<p style=\"color: black; font-size: 80px; padding-left: 8%; padding-right: 10%; padding-top: 23%; padding-bottom: 8%\">+</p>"	"1286"	n/a	n/a	n/a	n/a	n/a	n/a	n/a	n/a	n/a
n/a	"image-keyboard-response"	"150"	"10158021"	"0.0-5.0-2.0-1.48"	"zawvzg"	"600"	"1024"	"chrome"	"109.0.0"	"FALSE"	"Windows 10"	"60.86"	"020"	n/a	n/a	n/a	n/a	n/a	n/a	"Trial"	n/a	n/a	n/a	"1851"	"arrowright"	n/a	"NULL"	"NULL"	"NULL"	"stimuli/Ebbinghaus_0.87143_0.11071.png"	n/a	"Ebbinghaus"	"arrowleft"	"1299"	"FALSE"	"Ebbinghaus"	"0.8714300000"	"0.1107100000"	"1"	"67"
n/a	"html-keyboard-response"	"151"	"10159115"	"0.0-5.0-2.0-0.49"	"zawvzg"	"600"	"1024"	"chrome"	"109.0.0"	"FALSE"	"Windows 10"	"60.86"	"020"	n/a	n/a	n/a	n/a	n/a	n/a	"fixation"	n/a	n/a	n/a	n/a	"NULL"	n/a	"NULL"	"NULL"	"NULL"	"<p style=\"color: black; font-size: 80px; padding-left: 21%; padding-right: 37%; padding-top: 43%; padding-bottom: 43%\">+</p>"	"1074"	n/a	n/a	n/a	n/a	n/a	n/a	n/a	n/a	n/a
n/a	"image-keyboard-response"	"152"	"10160968"	"0.0-5.0-2.0-1.49"	"zawvzg"	"600"	"1024"	"chrome"	"109.0.0"	"FALSE"	"Windows 10"	"60.86"	"020"	n/a	n/a	n/a	n/a	n/a	n/a	"Trial"	n/a	n/a	n/a	"1852"	"arrowleft"	n/a	"NULL"	"NULL"	"NULL"	"stimuli/Ebbinghaus_-0.1000_0.15857.png"	n/a	"Ebbinghaus"	"arrowleft"	"1094"	"TRUE"	"Ebbinghaus"	"-0.100000000"	"0.1585700000"	"1"	"68"
n/a	"html-keyboard-response"	"153"	"10162261"	"0.0-5.0-2.0-0.50"	"zawvzg"	"600"	"1024"	"chrome"	"109.0.0"	"FALSE"	"Windows 10"	"60.86"	"020"	n/a	n/a	n/a	n/a	n/a	n/a	"fixation"	n/a	n/a	n/a	n/a	"NULL"	n/a	"NULL"	"NULL"	"NULL"	"<p style=\"color: black; font-size: 80px; padding-left: 4%; padding-right: 4%; padding-top: 36%; padding-bottom: 23%\">+</p>"	"1285"	n/a	n/a	n/a	n/a	n/a	n/a	n/a	n/a	n/a
n/a	"image-keyboard-response"	"154"	"10163271"	"0.0-5.0-2.0-1.50"	"zawvzg"	"600"	"1024"	"chrome"	"109.0.0"	"FALSE"	"Windows 10"	"60.86"	"020"	n/a	n/a	n/a	n/a	n/a	n/a	"Trial"	n/a	n/a	n/a	"1009"	"arrowleft"	n/a	"NULL"	"NULL"	"NULL"	"stimuli/Ebbinghaus_-0.35714_0.21500.png"	n/a	"Ebbinghaus"	"arrowleft"	"1293"	"TRUE"	"Ebbinghaus"	"-0.357140000"	"0.2150000000"	"1"	"69"
n/a	"html-keyboard-response"	"155"	"10164349"	"0.0-5.0-2.0-0.51"	"zawvzg"	"600"	"1024"	"chrome"	"109.0.0"	"FALSE"	"Windows 10"	"60.86"	"020"	n/a	n/a	n/a	n/a	n/a	n/a	"fixation"	n/a	n/a	n/a	n/a	"NULL"	n/a	"NULL"	"NULL"	"NULL"	"<p style=\"color: black; font-size: 80px; padding-left: 15%; padding-right: 8%; padding-top: 21%; padding-bottom: 27%\">+</p>"	"1068"	n/a	n/a	n/a	n/a	n/a	n/a	n/a	n/a	n/a
n/a	"image-keyboard-response"	"156"	"10165121"	"0.0-5.0-2.0-1.51"	"zawvzg"	"600"	"1024"	"chrome"	"109.0.0"	"FALSE"	"Windows 10"	"60.86"	"020"	n/a	n/a	n/a	n/a	n/a	n/a	"Trial"	n/a	n/a	n/a	"771"	"arrowleft"	n/a	"NULL"	"NULL"	"NULL"	"stimuli/Ebbinghaus_-0.61429_0.21500.png"	n/a	"Ebbinghaus"	"arrowleft"	"1078"	"TRUE"	"Ebbinghaus"	"-0.614290000"	"0.2150000000"	"1"	"70"
n/a	"html-keyboard-response"	"157"	"10166526"	"0.0-5.0-2.0-0.52"	"zawvzg"	"600"	"1024"	"chrome"	"109.0.0"	"FALSE"	"Windows 10"	"60.86"	"020"	n/a	n/a	n/a	n/a	n/a	n/a	"fixation"	n/a	n/a	n/a	n/a	"NULL"	n/a	"NULL"	"NULL"	"NULL"	"<p style=\"color: black; font-size: 80px; padding-left: 30%; padding-right: 27%; padding-top: 42%; padding-bottom: 11%\">+</p>"	"1397"	n/a	n/a	n/a	n/a	n/a	n/a	n/a	n/a	n/a
n/a	"image-keyboard-response"	"158"	"10167468"	"0.0-5.0-2.0-1.52"	"zawvzg"	"600"	"1024"	"chrome"	"109.0.0"	"FALSE"	"Windows 10"	"60.86"	"020"	n/a	n/a	n/a	n/a	n/a	n/a	"Trial"	n/a	n/a	n/a	"941"	"arrowright"	n/a	"NULL"	"NULL"	"NULL"	"stimuli/Ebbinghaus_-0.87143_-0.2800.png"	n/a	"Ebbinghaus"	"arrowright"	"1405"	"TRUE"	"Ebbinghaus"	"-0.871430000"	"-0.280000000"	"1"	"71"
n/a	"html-keyboard-response"	"159"	"10168481"	"0.0-5.0-2.0-0.53"	"zawvzg"	"600"	"1024"	"chrome"	"109.0.0"	"FALSE"	"Windows 10"	"60.86"	"020"	n/a	n/a	n/a	n/a	n/a	n/a	"fixation"	n/a	n/a	n/a	n/a	"NULL"	n/a	"NULL"	"NULL"	"NULL"	"<p style=\"color: black; font-size: 80px; padding-left: 22%; padding-right: 15%; padding-top: 49%; padding-bottom: 43%\">+</p>"	"1003"	n/a	n/a	n/a	n/a	n/a	n/a	n/a	n/a	n/a
n/a	"image-keyboard-response"	"160"	"10169463"	"0.0-5.0-2.0-1.53"	"zawvzg"	"600"	"1024"	"chrome"	"109.0.0"	"FALSE"	"Windows 10"	"60.86"	"020"	n/a	n/a	n/a	n/a	n/a	n/a	"Trial"	n/a	n/a	n/a	"981"	"arrowright"	n/a	"NULL"	"NULL"	"NULL"	"stimuli/Ebbinghaus_-0.61429_-0.15857.png"	n/a	"Ebbinghaus"	"arrowright"	"1013"	"TRUE"	"Ebbinghaus"	"-0.614290000"	"-0.158570000"	"1"	"72"
n/a	"html-keyboard-response"	"161"	"10170512"	"0.0-5.0-2.0-0.54"	"zawvzg"	"600"	"1024"	"chrome"	"109.0.0"	"FALSE"	"Windows 10"	"60.86"	"020"	n/a	n/a	n/a	n/a	n/a	n/a	"fixation"	n/a	n/a	n/a	n/a	"NULL"	n/a	"NULL"	"NULL"	"NULL"	"<p style=\"color: black; font-size: 80px; padding-left: 8%; padding-right: 42%; padding-top: 3%; padding-bottom: 24%\">+</p>"	"1035"	n/a	n/a	n/a	n/a	n/a	n/a	n/a	n/a	n/a
n/a	"image-keyboard-response"	"162"	"10171800"	"0.0-5.0-2.0-1.54"	"zawvzg"	"600"	"1024"	"chrome"	"109.0.0"	"FALSE"	"Windows 10"	"60.86"	"020"	n/a	n/a	n/a	n/a	n/a	n/a	"Trial"	n/a	n/a	n/a	"1286"	"arrowleft"	n/a	"NULL"	"NULL"	"NULL"	"stimuli/Ebbinghaus_0.87143_-0.2150.png"	n/a	"Ebbinghaus"	"arrowright"	"1049"	"FALSE"	"Ebbinghaus"	"0.8714300000"	"-0.215000000"	"1"	"73"
n/a	"html-keyboard-response"	"163"	"10173256"	"0.0-5.0-2.0-0.55"	"zawvzg"	"600"	"1024"	"chrome"	"109.0.0"	"FALSE"	"Windows 10"	"60.86"	"020"	n/a	n/a	n/a	n/a	n/a	n/a	"fixation"	n/a	n/a	n/a	n/a	"NULL"	n/a	"NULL"	"NULL"	"NULL"	"<p style=\"color: black; font-size: 80px; padding-left: 47%; padding-right: 26%; padding-top: 27%; padding-bottom: 22%\">+</p>"	"1429"	n/a	n/a	n/a	n/a	n/a	n/a	n/a	n/a	n/a
n/a	"image-keyboard-response"	"164"	"10174053"	"0.0-5.0-2.0-1.55"	"zawvzg"	"600"	"1024"	"chrome"	"109.0.0"	"FALSE"	"Windows 10"	"60.86"	"020"	n/a	n/a	n/a	n/a	n/a	n/a	"Trial"	n/a	n/a	n/a	"795"	"arrowleft"	n/a	"NULL"	"NULL"	"NULL"	"stimuli/Ebbinghaus_-0.35714_0.28000.png"	n/a	"Ebbinghaus"	"arrowleft"	"1456"	"TRUE"	"Ebbinghaus"	"-0.357140000"	"0.2800000000"	"1"	"74"
n/a	"html-keyboard-response"	"165"	"10175507"	"0.0-5.0-2.0-0.56"	"zawvzg"	"600"	"1024"	"chrome"	"109.0.0"	"FALSE"	"Windows 10"	"60.86"	"020"	n/a	n/a	n/a	n/a	n/a	n/a	"fixation"	n/a	n/a	n/a	n/a	"NULL"	n/a	"NULL"	"NULL"	"NULL"	"<p style=\"color: black; font-size: 80px; padding-left: 26%; padding-right: 16%; padding-top: 49%; padding-bottom: 40%\">+</p>"	"1440"	n/a	n/a	n/a	n/a	n/a	n/a	n/a	n/a	n/a
n/a	"image-keyboard-response"	"166"	"10177045"	"0.0-5.0-2.0-1.56"	"zawvzg"	"600"	"1024"	"chrome"	"109.0.0"	"FALSE"	"Windows 10"	"60.86"	"020"	n/a	n/a	n/a	n/a	n/a	n/a	"Trial"	n/a	n/a	n/a	"1537"	"arrowright"	n/a	"NULL"	"NULL"	"NULL"	"stimuli/Ebbinghaus_0.10000_-0.11071.png"	n/a	"Ebbinghaus"	"arrowright"	"1454"	"TRUE"	"Ebbinghaus"	"0.1000000000"	"-0.110710000"	"1"	"75"
n/a	"html-keyboard-response"	"167"	"10178084"	"0.0-5.0-2.0-0.57"	"zawvzg"	"600"	"1024"	"chrome"	"109.0.0"	"FALSE"	"Windows 10"	"60.86"	"020"	n/a	n/a	n/a	n/a	n/a	n/a	"fixation"	n/a	n/a	n/a	n/a	"NULL"	n/a	"NULL"	"NULL"	"NULL"	"<p style=\"color: black; font-size: 80px; padding-left: 13%; padding-right: 12%; padding-top: 27%; padding-bottom: 40%\">+</p>"	"1028"	n/a	n/a	n/a	n/a	n/a	n/a	n/a	n/a	n/a
n/a	"image-keyboard-response"	"168"	"10179159"	"0.0-5.0-2.0-1.57"	"zawvzg"	"600"	"1024"	"chrome"	"109.0.0"	"FALSE"	"Windows 10"	"60.86"	"020"	n/a	n/a	n/a	n/a	n/a	n/a	"Trial"	n/a	n/a	n/a	"1074"	"arrowright"	n/a	"NULL"	"NULL"	"NULL"	"stimuli/Ebbinghaus_-0.1000_-0.2150.png"	n/a	"Ebbinghaus"	"arrowright"	"1039"	"TRUE"	"Ebbinghaus"	"-0.100000000"	"-0.215000000"	"1"	"76"
n/a	"html-keyboard-response"	"169"	"10180205"	"0.0-5.0-2.0-0.58"	"zawvzg"	"600"	"1024"	"chrome"	"109.0.0"	"FALSE"	"Windows 10"	"60.86"	"020"	n/a	n/a	n/a	n/a	n/a	n/a	"fixation"	n/a	n/a	n/a	n/a	"NULL"	n/a	"NULL"	"NULL"	"NULL"	"<p style=\"color: black; font-size: 80px; padding-left: 43%; padding-right: 5%; padding-top: 42%; padding-bottom: 40%\">+</p>"	"1035"	n/a	n/a	n/a	n/a	n/a	n/a	n/a	n/a	n/a
n/a	"image-keyboard-response"	"170"	"10180830"	"0.0-5.0-2.0-1.58"	"zawvzg"	"600"	"1024"	"chrome"	"109.0.0"	"FALSE"	"Windows 10"	"60.86"	"020"	n/a	n/a	n/a	n/a	n/a	n/a	"Trial"	n/a	n/a	n/a	"625"	"arrowright"	n/a	"NULL"	"NULL"	"NULL"	"stimuli/Ebbinghaus_-0.61429_-0.2800.png"	n/a	"Ebbinghaus"	"arrowright"	"1046"	"TRUE"	"Ebbinghaus"	"-0.614290000"	"-0.280000000"	"1"	"77"
n/a	"html-keyboard-response"	"171"	"10182236"	"0.0-5.0-2.0-0.59"	"zawvzg"	"600"	"1024"	"chrome"	"109.0.0"	"FALSE"	"Windows 10"	"60.86"	"020"	n/a	n/a	n/a	n/a	n/a	n/a	"fixation"	n/a	n/a	n/a	n/a	"NULL"	n/a	"NULL"	"NULL"	"NULL"	"<p style=\"color: black; font-size: 80px; padding-left: 25%; padding-right: 8%; padding-top: 44%; padding-bottom: 47%\">+</p>"	"1391"	n/a	n/a	n/a	n/a	n/a	n/a	n/a	n/a	n/a
n/a	"image-keyboard-response"	"172"	"10183476"	"0.0-5.0-2.0-1.59"	"zawvzg"	"600"	"1024"	"chrome"	"109.0.0"	"FALSE"	"Windows 10"	"60.86"	"020"	n/a	n/a	n/a	n/a	n/a	n/a	"Trial"	n/a	n/a	n/a	"1239"	"arrowright"	n/a	"NULL"	"NULL"	"NULL"	"stimuli/Ebbinghaus_0.10000_-0.2800.png"	n/a	"Ebbinghaus"	"arrowright"	"1406"	"TRUE"	"Ebbinghaus"	"0.1000000000"	"-0.280000000"	"1"	"78"
n/a	"html-keyboard-response"	"173"	"10184543"	"0.0-5.0-2.0-0.60"	"zawvzg"	"600"	"1024"	"chrome"	"109.0.0"	"FALSE"	"Windows 10"	"60.86"	"020"	n/a	n/a	n/a	n/a	n/a	n/a	"fixation"	n/a	n/a	n/a	n/a	"NULL"	n/a	"NULL"	"NULL"	"NULL"	"<p style=\"color: black; font-size: 80px; padding-left: 14%; padding-right: 14%; padding-top: 32%; padding-bottom: 28%\">+</p>"	"1047"	n/a	n/a	n/a	n/a	n/a	n/a	n/a	n/a	n/a
n/a	"image-keyboard-response"	"174"	"10185103"	"0.0-5.0-2.0-1.60"	"zawvzg"	"600"	"1024"	"chrome"	"109.0.0"	"FALSE"	"Windows 10"	"60.86"	"020"	n/a	n/a	n/a	n/a	n/a	n/a	"Trial"	n/a	n/a	n/a	"559"	"arrowright"	n/a	"NULL"	"NULL"	"NULL"	"stimuli/Ebbinghaus_0.10000_-0.15857.png"	n/a	"Ebbinghaus"	"arrowright"	"1067"	"TRUE"	"Ebbinghaus"	"0.1000000000"	"-0.158570000"	"1"	"79"
n/a	"html-keyboard-response"	"175"	"10186619"	"0.0-5.0-2.0-0.61"	"zawvzg"	"600"	"1024"	"chrome"	"109.0.0"	"FALSE"	"Windows 10"	"60.86"	"020"	n/a	n/a	n/a	n/a	n/a	n/a	"fixation"	n/a	n/a	n/a	n/a	"NULL"	n/a	"NULL"	"NULL"	"NULL"	"<p style=\"color: black; font-size: 80px; padding-left: 9%; padding-right: 10%; padding-top: 32%; padding-bottom: 34%\">+</p>"	"1494"	n/a	n/a	n/a	n/a	n/a	n/a	n/a	n/a	n/a
n/a	"image-keyboard-response"	"176"	"10187200"	"0.0-5.0-2.0-1.61"	"zawvzg"	"600"	"1024"	"chrome"	"109.0.0"	"FALSE"	"Windows 10"	"60.86"	"020"	n/a	n/a	n/a	n/a	n/a	n/a	"Trial"	n/a	n/a	n/a	"578"	"arrowleft"	n/a	"NULL"	"NULL"	"NULL"	"stimuli/Ebbinghaus_0.61429_0.15857.png"	n/a	"Ebbinghaus"	"arrowleft"	"1516"	"TRUE"	"Ebbinghaus"	"0.6142900000"	"0.1585700000"	"1"	"80"
n/a	"html-keyboard-response"	"177"	"10188394"	"0.0-5.0-2.0-0.62"	"zawvzg"	"600"	"1024"	"chrome"	"109.0.0"	"FALSE"	"Windows 10"	"60.86"	"020"	n/a	n/a	n/a	n/a	n/a	n/a	"fixation"	n/a	n/a	n/a	n/a	"NULL"	n/a	"NULL"	"NULL"	"NULL"	"<p style=\"color: black; font-size: 80px; padding-left: 10%; padding-right: 39%; padding-top: 33%; padding-bottom: 2%\">+</p>"	"1181"	n/a	n/a	n/a	n/a	n/a	n/a	n/a	n/a	n/a
n/a	"image-keyboard-response"	"178"	"10189017"	"0.0-5.0-2.0-1.62"	"zawvzg"	"600"	"1024"	"chrome"	"109.0.0"	"FALSE"	"Windows 10"	"60.86"	"020"	n/a	n/a	n/a	n/a	n/a	n/a	"Trial"	n/a	n/a	n/a	"622"	"arrowright"	n/a	"NULL"	"NULL"	"NULL"	"stimuli/Ebbinghaus_0.61429_-0.11071.png"	n/a	"Ebbinghaus"	"arrowright"	"1194"	"TRUE"	"Ebbinghaus"	"0.6142900000"	"-0.110710000"	"1"	"81"
n/a	"html-keyboard-response"	"179"	"10190133"	"0.0-5.0-2.0-0.63"	"zawvzg"	"600"	"1024"	"chrome"	"109.0.0"	"FALSE"	"Windows 10"	"60.86"	"020"	n/a	n/a	n/a	n/a	n/a	n/a	"fixation"	n/a	n/a	n/a	n/a	"NULL"	n/a	"NULL"	"NULL"	"NULL"	"<p style=\"color: black; font-size: 80px; padding-left: 33%; padding-right: 2%; padding-top: 47%; padding-bottom: 24%\">+</p>"	"1111"	n/a	n/a	n/a	n/a	n/a	n/a	n/a	n/a	n/a
n/a	"image-keyboard-response"	"180"	"10190775"	"0.0-5.0-2.0-1.63"	"zawvzg"	"600"	"1024"	"chrome"	"109.0.0"	"FALSE"	"Windows 10"	"60.86"	"020"	n/a	n/a	n/a	n/a	n/a	n/a	"Trial"	n/a	n/a	n/a	"641"	"arrowleft"	n/a	"NULL"	"NULL"	"NULL"	"stimuli/Ebbinghaus_-0.1000_-0.11071.png"	n/a	"Ebbinghaus"	"arrowright"	"1116"	"FALSE"	"Ebbinghaus"	"-0.100000000"	"-0.110710000"	"1"	"82"
n/a	"html-button-response"	"181"	"10203864"	"0.0-5.0-3.0"	"zawvzg"	"600"	"1024"	"chrome"	"109.0.0"	"FALSE"	"Windows 10"	"60.86"	"020"	n/a	n/a	n/a	n/a	n/a	n/a	"block_results"	n/a	n/a	n/a	"13087"	"0"	n/a	"NULL"	"NULL"	"NULL"	"<p>Your score for this illusion is <p style=\"color: black; font-size: 48px; font-weight: bold;\">65.7 %</p><hr><p>Can you do better in the next illusion?</p>"	n/a	n/a	n/a	n/a	n/a	n/a	n/a	n/a	n/a	n/a
"TRUE"	"preload"	"182"	"10204048"	"0.0-6.0-0.0"	"zawvzg"	"600"	"1024"	"chrome"	"109.0.0"	"FALSE"	"Windows 10"	"60.86"	"020"	n/a	n/a	n/a	n/a	n/a	n/a	n/a	n/a	n/a	n/a	n/a	"NULL"	"FALSE"	"list()"	"list()"	"list()"	n/a	n/a	n/a	n/a	n/a	n/a	n/a	n/a	n/a	n/a	n/a
n/a	"html-keyboard-response"	"183"	"10207595"	"0.0-6.0-1.0"	"zawvzg"	"600"	"1024"	"chrome"	"109.0.0"	"FALSE"	"Windows 10"	"60.86"	"020"	n/a	n/a	n/a	n/a	n/a	n/a	n/a	n/a	n/a	n/a	"3546"	"enter"	n/a	"NULL"	"NULL"	"NULL"	"<p><b>Part 2/6</b></p><p>In this part, two red lines will appear side by side.</p><p>Your task is to tell <b>which line is longer</b> in length, regardless of their orientation, as fast as you can, and without making errors.</p><p>Don't get distracted by the orientation of the lines!</p><p>Press <b>the LEFT or the RIGHT arrow</b> to indicate which <b>line is the longer one.</b></p><div style='float: center'><img src='materials/instructions/VerticalHorizontal_Demo.png' height='300'></img><p><img src='utils/answer/answer_leftright_keyboard.PNG' height='150'></img></p><p class='small'>In this example, the correct answer is the <b>LEFT arrow</b>.</p></div><p>Are you ready? <b>Press ENTER to start</b></p>"	n/a	n/a	n/a	n/a	n/a	n/a	n/a	n/a	n/a	n/a
n/a	"html-keyboard-response"	"184"	"10209402"	"0.0-6.0-2.0-0.0"	"zawvzg"	"600"	"1024"	"chrome"	"109.0.0"	"FALSE"	"Windows 10"	"60.86"	"020"	n/a	n/a	n/a	n/a	n/a	n/a	"fixation"	n/a	n/a	n/a	n/a	"NULL"	n/a	"NULL"	"NULL"	"NULL"	"<p style=\"color: black; font-size: 80px; padding-left: 42%; padding-right: 20%; padding-top: 21%; padding-bottom: 22%\">+</p>"	"1291"	n/a	n/a	n/a	n/a	n/a	n/a	n/a	n/a	n/a
n/a	"image-keyboard-response"	"185"	"10210605"	"0.0-6.0-2.0-1.0"	"zawvzg"	"600"	"1024"	"chrome"	"109.0.0"	"FALSE"	"Windows 10"	"60.86"	"020"	n/a	n/a	n/a	n/a	n/a	n/a	"Trial"	n/a	n/a	n/a	"1202"	"arrowright"	n/a	"NULL"	"NULL"	"NULL"	"stimuli/VerticalHorizontal_3.30000_-0.16217.png"	n/a	"VerticalHorizontal"	"arrowright"	"1807"	"TRUE"	"VerticalHorizontal"	"3.3000000000"	"-0.162170000"	"2"	"1"
n/a	"html-keyboard-response"	"186"	"10212084"	"0.0-6.0-2.0-0.1"	"zawvzg"	"600"	"1024"	"chrome"	"109.0.0"	"FALSE"	"Windows 10"	"60.86"	"020"	n/a	n/a	n/a	n/a	n/a	n/a	"fixation"	n/a	n/a	n/a	n/a	"NULL"	n/a	"NULL"	"NULL"	"NULL"	"<p style=\"color: black; font-size: 80px; padding-left: 27%; padding-right: 22%; padding-top: 5%; padding-bottom: 18%\">+</p>"	"1466"	n/a	n/a	n/a	n/a	n/a	n/a	n/a	n/a	n/a
n/a	"image-keyboard-response"	"187"	"10213154"	"0.0-6.0-2.0-1.1"	"zawvzg"	"600"	"1024"	"chrome"	"109.0.0"	"FALSE"	"Windows 10"	"60.86"	"020"	n/a	n/a	n/a	n/a	n/a	n/a	"Trial"	n/a	n/a	n/a	"1070"	"arrowright"	n/a	"NULL"	"NULL"	"NULL"	"stimuli/VerticalHorizontal_3.30000_-0.1096.png"	n/a	"VerticalHorizontal"	"arrowright"	"1479"	"TRUE"	"VerticalHorizontal"	"3.3000000000"	"-0.109600000"	"2"	"2"
n/a	"html-keyboard-response"	"188"	"10214369"	"0.0-6.0-2.0-0.2"	"zawvzg"	"600"	"1024"	"chrome"	"109.0.0"	"FALSE"	"Windows 10"	"60.86"	"020"	n/a	n/a	n/a	n/a	n/a	n/a	"fixation"	n/a	n/a	n/a	n/a	"NULL"	n/a	"NULL"	"NULL"	"NULL"	"<p style=\"color: black; font-size: 80px; padding-left: 34%; padding-right: 48%; padding-top: 21%; padding-bottom: 20%\">+</p>"	"1196"	n/a	n/a	n/a	n/a	n/a	n/a	n/a	n/a	n/a
n/a	"image-keyboard-response"	"189"	"10215878"	"0.0-6.0-2.0-1.2"	"zawvzg"	"600"	"1024"	"chrome"	"109.0.0"	"FALSE"	"Windows 10"	"60.86"	"020"	n/a	n/a	n/a	n/a	n/a	n/a	"Trial"	n/a	n/a	n/a	"1508"	"arrowright"	n/a	"NULL"	"NULL"	"NULL"	"stimuli/VerticalHorizontal_20.27143_-0.2250.png"	n/a	"VerticalHorizontal"	"arrowright"	"1215"	"TRUE"	"VerticalHorizontal"	"20.271430000"	"-0.225000000"	"2"	"3"
n/a	"html-keyboard-response"	"190"	"10217379"	"0.0-6.0-2.0-0.3"	"zawvzg"	"600"	"1024"	"chrome"	"109.0.0"	"FALSE"	"Windows 10"	"60.86"	"020"	n/a	n/a	n/a	n/a	n/a	n/a	"fixation"	n/a	n/a	n/a	n/a	"NULL"	n/a	"NULL"	"NULL"	"NULL"	"<p style=\"color: black; font-size: 80px; padding-left: 24%; padding-right: 48%; padding-top: 4%; padding-bottom: 23%\">+</p>"	"1493"	n/a	n/a	n/a	n/a	n/a	n/a	n/a	n/a	n/a
n/a	"image-keyboard-response"	"191"	"10218312"	"0.0-6.0-2.0-1.3"	"zawvzg"	"600"	"1024"	"chrome"	"109.0.0"	"FALSE"	"Windows 10"	"60.86"	"020"	n/a	n/a	n/a	n/a	n/a	n/a	"Trial"	n/a	n/a	n/a	"932"	"arrowright"	n/a	"NULL"	"NULL"	"NULL"	"stimuli/VerticalHorizontal_11.78571_-0.2250.png"	n/a	"VerticalHorizontal"	"arrowright"	"1501"	"TRUE"	"VerticalHorizontal"	"11.785710000"	"-0.225000000"	"2"	"4"
n/a	"html-keyboard-response"	"192"	"10219659"	"0.0-6.0-2.0-0.4"	"zawvzg"	"600"	"1024"	"chrome"	"109.0.0"	"FALSE"	"Windows 10"	"60.86"	"020"	n/a	n/a	n/a	n/a	n/a	n/a	"fixation"	n/a	n/a	n/a	n/a	"NULL"	n/a	"NULL"	"NULL"	"NULL"	"<p style=\"color: black; font-size: 80px; padding-left: 31%; padding-right: 47%; padding-top: 12%; padding-bottom: 1%\">+</p>"	"1344"	n/a	n/a	n/a	n/a	n/a	n/a	n/a	n/a	n/a
n/a	"image-keyboard-response"	"193"	"10220919"	"0.0-6.0-2.0-1.4"	"zawvzg"	"600"	"1024"	"chrome"	"109.0.0"	"FALSE"	"Windows 10"	"60.86"	"020"	n/a	n/a	n/a	n/a	n/a	n/a	"Trial"	n/a	n/a	n/a	"1258"	"arrowleft"	n/a	"NULL"	"NULL"	"NULL"	"stimuli/VerticalHorizontal_3.30000_0.06730.png"	n/a	"VerticalHorizontal"	"arrowleft"	"1347"	"TRUE"	"VerticalHorizontal"	"3.3000000000"	"0.0673000000"	"2"	"5"
n/a	"html-keyboard-response"	"194"	"10222023"	"0.0-6.0-2.0-0.5"	"zawvzg"	"600"	"1024"	"chrome"	"109.0.0"	"FALSE"	"Windows 10"	"60.86"	"020"	n/a	n/a	n/a	n/a	n/a	n/a	"fixation"	n/a	n/a	n/a	n/a	"NULL"	n/a	"NULL"	"NULL"	"NULL"	"<p style=\"color: black; font-size: 80px; padding-left: 38%; padding-right: 48%; padding-top: 25%; padding-bottom: 47%\">+</p>"	"1093"	n/a	n/a	n/a	n/a	n/a	n/a	n/a	n/a	n/a
n/a	"image-keyboard-response"	"195"	"10224119"	"0.0-6.0-2.0-1.5"	"zawvzg"	"600"	"1024"	"chrome"	"109.0.0"	"FALSE"	"Windows 10"	"60.86"	"020"	n/a	n/a	n/a	n/a	n/a	n/a	"Trial"	n/a	n/a	n/a	"2095"	"arrowleft"	n/a	"NULL"	"NULL"	"NULL"	"stimuli/VerticalHorizontal_20.27143_0.06730.png"	n/a	"VerticalHorizontal"	"arrowleft"	"1104"	"TRUE"	"VerticalHorizontal"	"20.271430000"	"0.0673000000"	"2"	"6"
n/a	"html-keyboard-response"	"196"	"10225289"	"0.0-6.0-2.0-0.6"	"zawvzg"	"600"	"1024"	"chrome"	"109.0.0"	"FALSE"	"Windows 10"	"60.86"	"020"	n/a	n/a	n/a	n/a	n/a	n/a	"fixation"	n/a	n/a	n/a	n/a	"NULL"	n/a	"NULL"	"NULL"	"NULL"	"<p style=\"color: black; font-size: 80px; padding-left: 22%; padding-right: 37%; padding-top: 34%; padding-bottom: 31%\">+</p>"	"1153"	n/a	n/a	n/a	n/a	n/a	n/a	n/a	n/a	n/a
n/a	"image-keyboard-response"	"197"	"10226372"	"0.0-6.0-2.0-1.6"	"zawvzg"	"600"	"1024"	"chrome"	"109.0.0"	"FALSE"	"Windows 10"	"60.86"	"020"	n/a	n/a	n/a	n/a	n/a	n/a	"Trial"	n/a	n/a	n/a	"1083"	"arrowleft"	n/a	"NULL"	"NULL"	"NULL"	"stimuli/VerticalHorizontal_28.75714_-0.0673.png"	n/a	"VerticalHorizontal"	"arrowright"	"1170"	"FALSE"	"VerticalHorizontal"	"28.757140000"	"-0.067300000"	"2"	"7"
n/a	"html-keyboard-response"	"198"	"10227416"	"0.0-6.0-2.0-0.7"	"zawvzg"	"600"	"1024"	"chrome"	"109.0.0"	"FALSE"	"Windows 10"	"60.86"	"020"	n/a	n/a	n/a	n/a	n/a	n/a	"fixation"	n/a	n/a	n/a	n/a	"NULL"	n/a	"NULL"	"NULL"	"NULL"	"<p style=\"color: black; font-size: 80px; padding-left: 15%; padding-right: 15%; padding-top: 37%; padding-bottom: 6%\">+</p>"	"1032"	n/a	n/a	n/a	n/a	n/a	n/a	n/a	n/a	n/a
n/a	"image-keyboard-response"	"199"	"10228191"	"0.0-6.0-2.0-1.7"	"zawvzg"	"600"	"1024"	"chrome"	"109.0.0"	"FALSE"	"Windows 10"	"60.86"	"020"	n/a	n/a	n/a	n/a	n/a	n/a	"Trial"	n/a	n/a	n/a	"774"	"arrowright"	n/a	"NULL"	"NULL"	"NULL"	"stimuli/VerticalHorizontal_-11.78571_-0.2250.png"	n/a	"VerticalHorizontal"	"arrowright"	"1044"	"TRUE"	"VerticalHorizontal"	"-11.78571000"	"-0.225000000"	"2"	"8"
n/a	"html-keyboard-response"	"200"	"10229691"	"0.0-6.0-2.0-0.8"	"zawvzg"	"600"	"1024"	"chrome"	"109.0.0"	"FALSE"	"Windows 10"	"60.86"	"020"	n/a	n/a	n/a	n/a	n/a	n/a	"fixation"	n/a	n/a	n/a	n/a	"NULL"	n/a	"NULL"	"NULL"	"NULL"	"<p style=\"color: black; font-size: 80px; padding-left: 11%; padding-right: 24%; padding-top: 38%; padding-bottom: 2%\">+</p>"	"1478"	n/a	n/a	n/a	n/a	n/a	n/a	n/a	n/a	n/a
n/a	"image-keyboard-response"	"201"	"10231398"	"0.0-6.0-2.0-1.8"	"zawvzg"	"600"	"1024"	"chrome"	"109.0.0"	"FALSE"	"Windows 10"	"60.86"	"020"	n/a	n/a	n/a	n/a	n/a	n/a	"Trial"	n/a	n/a	n/a	"1705"	"arrowleft"	n/a	"NULL"	"NULL"	"NULL"	"stimuli/VerticalHorizontal_-3.3000_0.06730.png"	n/a	"VerticalHorizontal"	"arrowleft"	"1500"	"TRUE"	"VerticalHorizontal"	"-3.300000000"	"0.0673000000"	"2"	"9"
n/a	"html-keyboard-response"	"202"	"10232579"	"0.0-6.0-2.0-0.9"	"zawvzg"	"600"	"1024"	"chrome"	"109.0.0"	"FALSE"	"Windows 10"	"60.86"	"020"	n/a	n/a	n/a	n/a	n/a	n/a	"fixation"	n/a	n/a	n/a	n/a	"NULL"	n/a	"NULL"	"NULL"	"NULL"	"<p style=\"color: black; font-size: 80px; padding-left: 17%; padding-right: 45%; padding-top: 13%; padding-bottom: 22%\">+</p>"	"1169"	n/a	n/a	n/a	n/a	n/a	n/a	n/a	n/a	n/a
n/a	"image-keyboard-response"	"203"	"10233227"	"0.0-6.0-2.0-1.9"	"zawvzg"	"600"	"1024"	"chrome"	"109.0.0"	"FALSE"	"Windows 10"	"60.86"	"020"	n/a	n/a	n/a	n/a	n/a	n/a	"Trial"	n/a	n/a	n/a	"647"	"arrowleft"	n/a	"NULL"	"NULL"	"NULL"	"stimuli/VerticalHorizontal_-3.3000_0.16217.png"	n/a	"VerticalHorizontal"	"arrowleft"	"1181"	"TRUE"	"VerticalHorizontal"	"-3.300000000"	"0.1621700000"	"2"	"10"
n/a	"html-keyboard-response"	"204"	"10234615"	"0.0-6.0-2.0-0.10"	"zawvzg"	"600"	"1024"	"chrome"	"109.0.0"	"FALSE"	"Windows 10"	"60.86"	"020"	n/a	n/a	n/a	n/a	n/a	n/a	"fixation"	n/a	n/a	n/a	n/a	"NULL"	n/a	"NULL"	"NULL"	"NULL"	"<p style=\"color: black; font-size: 80px; padding-left: 43%; padding-right: 4%; padding-top: 20%; padding-bottom: 4%\">+</p>"	"1382"	n/a	n/a	n/a	n/a	n/a	n/a	n/a	n/a	n/a
n/a	"image-keyboard-response"	"205"	"10235436"	"0.0-6.0-2.0-1.10"	"zawvzg"	"600"	"1024"	"chrome"	"109.0.0"	"FALSE"	"Windows 10"	"60.86"	"020"	n/a	n/a	n/a	n/a	n/a	n/a	"Trial"	n/a	n/a	n/a	"821"	"arrowright"	n/a	"NULL"	"NULL"	"NULL"	"stimuli/VerticalHorizontal_-28.75714_-0.1096.png"	n/a	"VerticalHorizontal"	"arrowright"	"1388"	"TRUE"	"VerticalHorizontal"	"-28.75714000"	"-0.109600000"	"2"	"11"
n/a	"html-keyboard-response"	"206"	"10236474"	"0.0-6.0-2.0-0.11"	"zawvzg"	"600"	"1024"	"chrome"	"109.0.0"	"FALSE"	"Windows 10"	"60.86"	"020"	n/a	n/a	n/a	n/a	n/a	n/a	"fixation"	n/a	n/a	n/a	n/a	"NULL"	n/a	"NULL"	"NULL"	"NULL"	"<p style=\"color: black; font-size: 80px; padding-left: 43%; padding-right: 31%; padding-top: 1%; padding-bottom: 34%\">+</p>"	"1017"	n/a	n/a	n/a	n/a	n/a	n/a	n/a	n/a	n/a
n/a	"image-keyboard-response"	"207"	"10237018"	"0.0-6.0-2.0-1.11"	"zawvzg"	"600"	"1024"	"chrome"	"109.0.0"	"FALSE"	"Windows 10"	"60.86"	"020"	n/a	n/a	n/a	n/a	n/a	n/a	"Trial"	n/a	n/a	n/a	"543"	"arrowleft"	n/a	"NULL"	"NULL"	"NULL"	"stimuli/VerticalHorizontal_-28.75714_0.22500.png"	n/a	"VerticalHorizontal"	"arrowleft"	"1038"	"TRUE"	"VerticalHorizontal"	"-28.75714000"	"0.2250000000"	"2"	"12"
n/a	"html-keyboard-response"	"208"	"10238085"	"0.0-6.0-2.0-0.12"	"zawvzg"	"600"	"1024"	"chrome"	"109.0.0"	"FALSE"	"Windows 10"	"60.86"	"020"	n/a	n/a	n/a	n/a	n/a	n/a	"fixation"	n/a	n/a	n/a	n/a	"NULL"	n/a	"NULL"	"NULL"	"NULL"	"<p style=\"color: black; font-size: 80px; padding-left: 1%; padding-right: 43%; padding-top: 42%; padding-bottom: 19%\">+</p>"	"1049"	n/a	n/a	n/a	n/a	n/a	n/a	n/a	n/a	n/a
n/a	"image-keyboard-response"	"209"	"10238936"	"0.0-6.0-2.0-1.12"	"zawvzg"	"600"	"1024"	"chrome"	"109.0.0"	"FALSE"	"Windows 10"	"60.86"	"020"	n/a	n/a	n/a	n/a	n/a	n/a	"Trial"	n/a	n/a	n/a	"850"	"arrowright"	n/a	"NULL"	"NULL"	"NULL"	"stimuli/VerticalHorizontal_-20.27143_-0.2250.png"	n/a	"VerticalHorizontal"	"arrowright"	"1067"	"TRUE"	"VerticalHorizontal"	"-20.27143000"	"-0.225000000"	"2"	"13"
n/a	"html-keyboard-response"	"210"	"10240263"	"0.0-6.0-2.0-0.13"	"zawvzg"	"600"	"1024"	"chrome"	"109.0.0"	"FALSE"	"Windows 10"	"60.86"	"020"	n/a	n/a	n/a	n/a	n/a	n/a	"fixation"	n/a	n/a	n/a	n/a	"NULL"	n/a	"NULL"	"NULL"	"NULL"	"<p style=\"color: black; font-size: 80px; padding-left: 39%; padding-right: 45%; padding-top: 8%; padding-bottom: 23%\">+</p>"	"1316"	n/a	n/a	n/a	n/a	n/a	n/a	n/a	n/a	n/a
n/a	"image-keyboard-response"	"211"	"10240828"	"0.0-6.0-2.0-1.13"	"zawvzg"	"600"	"1024"	"chrome"	"109.0.0"	"FALSE"	"Windows 10"	"60.86"	"020"	n/a	n/a	n/a	n/a	n/a	n/a	"Trial"	n/a	n/a	n/a	"564"	"arrowright"	n/a	"NULL"	"NULL"	"NULL"	"stimuli/VerticalHorizontal_-28.75714_-0.2250.png"	n/a	"VerticalHorizontal"	"arrowright"	"1327"	"TRUE"	"VerticalHorizontal"	"-28.75714000"	"-0.225000000"	"2"	"14"
n/a	"html-keyboard-response"	"212"	"10242032"	"0.0-6.0-2.0-0.14"	"zawvzg"	"600"	"1024"	"chrome"	"109.0.0"	"FALSE"	"Windows 10"	"60.86"	"020"	n/a	n/a	n/a	n/a	n/a	n/a	"fixation"	n/a	n/a	n/a	n/a	"NULL"	n/a	"NULL"	"NULL"	"NULL"	"<p style=\"color: black; font-size: 80px; padding-left: 2%; padding-right: 42%; padding-top: 32%; padding-bottom: 37%\">+</p>"	"1195"	n/a	n/a	n/a	n/a	n/a	n/a	n/a	n/a	n/a
n/a	"image-keyboard-response"	"213"	"10243506"	"0.0-6.0-2.0-1.14"	"zawvzg"	"600"	"1024"	"chrome"	"109.0.0"	"FALSE"	"Windows 10"	"60.86"	"020"	n/a	n/a	n/a	n/a	n/a	n/a	"Trial"	n/a	n/a	n/a	"1473"	"arrowleft"	n/a	"NULL"	"NULL"	"NULL"	"stimuli/VerticalHorizontal_-20.27143_0.10960.png"	n/a	"VerticalHorizontal"	"arrowleft"	"1204"	"TRUE"	"VerticalHorizontal"	"-20.27143000"	"0.1096000000"	"2"	"15"
n/a	"html-keyboard-response"	"214"	"10244969"	"0.0-6.0-2.0-0.15"	"zawvzg"	"600"	"1024"	"chrome"	"109.0.0"	"FALSE"	"Windows 10"	"60.86"	"020"	n/a	n/a	n/a	n/a	n/a	n/a	"fixation"	n/a	n/a	n/a	n/a	"NULL"	n/a	"NULL"	"NULL"	"NULL"	"<p style=\"color: black; font-size: 80px; padding-left: 16%; padding-right: 2%; padding-top: 32%; padding-bottom: 32%\">+</p>"	"1448"	n/a	n/a	n/a	n/a	n/a	n/a	n/a	n/a	n/a
n/a	"image-keyboard-response"	"215"	"10246099"	"0.0-6.0-2.0-1.15"	"zawvzg"	"600"	"1024"	"chrome"	"109.0.0"	"FALSE"	"Windows 10"	"60.86"	"020"	n/a	n/a	n/a	n/a	n/a	n/a	"Trial"	n/a	n/a	n/a	"1129"	"arrowleft"	n/a	"NULL"	"NULL"	"NULL"	"stimuli/VerticalHorizontal_3.30000_0.16217.png"	n/a	"VerticalHorizontal"	"arrowleft"	"1463"	"TRUE"	"VerticalHorizontal"	"3.3000000000"	"0.1621700000"	"2"	"16"
n/a	"html-keyboard-response"	"216"	"10247457"	"0.0-6.0-2.0-0.16"	"zawvzg"	"600"	"1024"	"chrome"	"109.0.0"	"FALSE"	"Windows 10"	"60.86"	"020"	n/a	n/a	n/a	n/a	n/a	n/a	"fixation"	n/a	n/a	n/a	n/a	"NULL"	n/a	"NULL"	"NULL"	"NULL"	"<p style=\"color: black; font-size: 80px; padding-left: 44%; padding-right: 32%; padding-top: 33%; padding-bottom: 28%\">+</p>"	"1345"	n/a	n/a	n/a	n/a	n/a	n/a	n/a	n/a	n/a
n/a	"image-keyboard-response"	"217"	"10248498"	"0.0-6.0-2.0-1.16"	"zawvzg"	"600"	"1024"	"chrome"	"109.0.0"	"FALSE"	"Windows 10"	"60.86"	"020"	n/a	n/a	n/a	n/a	n/a	n/a	"Trial"	n/a	n/a	n/a	"1039"	"arrowleft"	n/a	"NULL"	"NULL"	"NULL"	"stimuli/VerticalHorizontal_-3.3000_0.10960.png"	n/a	"VerticalHorizontal"	"arrowleft"	"1358"	"TRUE"	"VerticalHorizontal"	"-3.300000000"	"0.1096000000"	"2"	"17"
n/a	"html-keyboard-response"	"218"	"10249928"	"0.0-6.0-2.0-0.17"	"zawvzg"	"600"	"1024"	"chrome"	"109.0.0"	"FALSE"	"Windows 10"	"60.86"	"020"	n/a	n/a	n/a	n/a	n/a	n/a	"fixation"	n/a	n/a	n/a	n/a	"NULL"	n/a	"NULL"	"NULL"	"NULL"	"<p style=\"color: black; font-size: 80px; padding-left: 47%; padding-right: 33%; padding-top: 11%; padding-bottom: 44%\">+</p>"	"1417"	n/a	n/a	n/a	n/a	n/a	n/a	n/a	n/a	n/a
n/a	"image-keyboard-response"	"219"	"10250478"	"0.0-6.0-2.0-1.17"	"zawvzg"	"600"	"1024"	"chrome"	"109.0.0"	"FALSE"	"Windows 10"	"60.86"	"020"	n/a	n/a	n/a	n/a	n/a	n/a	"Trial"	n/a	n/a	n/a	"549"	"arrowleft"	n/a	"NULL"	"NULL"	"NULL"	"stimuli/VerticalHorizontal_-20.27143_0.16217.png"	n/a	"VerticalHorizontal"	"arrowleft"	"1430"	"TRUE"	"VerticalHorizontal"	"-20.27143000"	"0.1621700000"	"2"	"18"
n/a	"html-keyboard-response"	"220"	"10251725"	"0.0-6.0-2.0-0.18"	"zawvzg"	"600"	"1024"	"chrome"	"109.0.0"	"FALSE"	"Windows 10"	"60.86"	"020"	n/a	n/a	n/a	n/a	n/a	n/a	"fixation"	n/a	n/a	n/a	n/a	"NULL"	n/a	"NULL"	"NULL"	"NULL"	"<p style=\"color: black; font-size: 80px; padding-left: 20%; padding-right: 16%; padding-top: 24%; padding-bottom: 28%\">+</p>"	"1239"	n/a	n/a	n/a	n/a	n/a	n/a	n/a	n/a	n/a
n/a	"image-keyboard-response"	"221"	"10253247"	"0.0-6.0-2.0-1.18"	"zawvzg"	"600"	"1024"	"chrome"	"109.0.0"	"FALSE"	"Windows 10"	"60.86"	"020"	n/a	n/a	n/a	n/a	n/a	n/a	"Trial"	n/a	n/a	n/a	"1521"	"arrowright"	n/a	"NULL"	"NULL"	"NULL"	"stimuli/VerticalHorizontal_-3.3000_-0.0673.png"	n/a	"VerticalHorizontal"	"arrowright"	"1247"	"TRUE"	"VerticalHorizontal"	"-3.300000000"	"-0.067300000"	"2"	"19"
n/a	"html-keyboard-response"	"222"	"10254693"	"0.0-6.0-2.0-0.19"	"zawvzg"	"600"	"1024"	"chrome"	"109.0.0"	"FALSE"	"Windows 10"	"60.86"	"020"	n/a	n/a	n/a	n/a	n/a	n/a	"fixation"	n/a	n/a	n/a	n/a	"NULL"	n/a	"NULL"	"NULL"	"NULL"	"<p style=\"color: black; font-size: 80px; padding-left: 39%; padding-right: 40%; padding-top: 23%; padding-bottom: 20%\">+</p>"	"1436"	n/a	n/a	n/a	n/a	n/a	n/a	n/a	n/a	n/a
n/a	"image-keyboard-response"	"223"	"10255937"	"0.0-6.0-2.0-1.19"	"zawvzg"	"600"	"1024"	"chrome"	"109.0.0"	"FALSE"	"Windows 10"	"60.86"	"020"	n/a	n/a	n/a	n/a	n/a	n/a	"Trial"	n/a	n/a	n/a	"1243"	"arrowright"	n/a	"NULL"	"NULL"	"NULL"	"stimuli/VerticalHorizontal_20.27143_-0.16217.png"	n/a	"VerticalHorizontal"	"arrowright"	"1446"	"TRUE"	"VerticalHorizontal"	"20.271430000"	"-0.162170000"	"2"	"20"
n/a	"html-keyboard-response"	"224"	"10257176"	"0.0-6.0-2.0-0.20"	"zawvzg"	"600"	"1024"	"chrome"	"109.0.0"	"FALSE"	"Windows 10"	"60.86"	"020"	n/a	n/a	n/a	n/a	n/a	n/a	"fixation"	n/a	n/a	n/a	n/a	"NULL"	n/a	"NULL"	"NULL"	"NULL"	"<p style=\"color: black; font-size: 80px; padding-left: 26%; padding-right: 41%; padding-top: 18%; padding-bottom: 9%\">+</p>"	"1212"	n/a	n/a	n/a	n/a	n/a	n/a	n/a	n/a	n/a
n/a	"image-keyboard-response"	"225"	"10257951"	"0.0-6.0-2.0-1.20"	"zawvzg"	"600"	"1024"	"chrome"	"109.0.0"	"FALSE"	"Windows 10"	"60.86"	"020"	n/a	n/a	n/a	n/a	n/a	n/a	"Trial"	n/a	n/a	n/a	"774"	"arrowright"	n/a	"NULL"	"NULL"	"NULL"	"stimuli/VerticalHorizontal_-11.78571_-0.1096.png"	n/a	"VerticalHorizontal"	"arrowright"	"1239"	"TRUE"	"VerticalHorizontal"	"-11.78571000"	"-0.109600000"	"2"	"21"
n/a	"html-keyboard-response"	"226"	"10259448"	"0.0-6.0-2.0-0.21"	"zawvzg"	"600"	"1024"	"chrome"	"109.0.0"	"FALSE"	"Windows 10"	"60.86"	"020"	n/a	n/a	n/a	n/a	n/a	n/a	"fixation"	n/a	n/a	n/a	n/a	"NULL"	n/a	"NULL"	"NULL"	"NULL"	"<p style=\"color: black; font-size: 80px; padding-left: 20%; padding-right: 21%; padding-top: 38%; padding-bottom: 40%\">+</p>"	"1481"	n/a	n/a	n/a	n/a	n/a	n/a	n/a	n/a	n/a
n/a	"image-keyboard-response"	"227"	"10260258"	"0.0-6.0-2.0-1.21"	"zawvzg"	"600"	"1024"	"chrome"	"109.0.0"	"FALSE"	"Windows 10"	"60.86"	"020"	n/a	n/a	n/a	n/a	n/a	n/a	"Trial"	n/a	n/a	n/a	"809"	"arrowright"	n/a	"NULL"	"NULL"	"NULL"	"stimuli/VerticalHorizontal_3.30000_-0.2250.png"	n/a	"VerticalHorizontal"	"arrowright"	"1497"	"TRUE"	"VerticalHorizontal"	"3.3000000000"	"-0.225000000"	"2"	"22"
n/a	"html-keyboard-response"	"228"	"10261520"	"0.0-6.0-2.0-0.22"	"zawvzg"	"600"	"1024"	"chrome"	"109.0.0"	"FALSE"	"Windows 10"	"60.86"	"020"	n/a	n/a	n/a	n/a	n/a	n/a	"fixation"	n/a	n/a	n/a	n/a	"NULL"	n/a	"NULL"	"NULL"	"NULL"	"<p style=\"color: black; font-size: 80px; padding-left: 14%; padding-right: 42%; padding-top: 9%; padding-bottom: 23%\">+</p>"	"1251"	n/a	n/a	n/a	n/a	n/a	n/a	n/a	n/a	n/a
n/a	"image-keyboard-response"	"229"	"10262131"	"0.0-6.0-2.0-1.22"	"zawvzg"	"600"	"1024"	"chrome"	"109.0.0"	"FALSE"	"Windows 10"	"60.86"	"020"	n/a	n/a	n/a	n/a	n/a	n/a	"Trial"	n/a	n/a	n/a	"610"	"arrowleft"	n/a	"NULL"	"NULL"	"NULL"	"stimuli/VerticalHorizontal_28.75714_0.22500.png"	n/a	"VerticalHorizontal"	"arrowleft"	"1262"	"TRUE"	"VerticalHorizontal"	"28.757140000"	"0.2250000000"	"2"	"23"
n/a	"html-keyboard-response"	"230"	"10263162"	"0.0-6.0-2.0-0.23"	"zawvzg"	"600"	"1024"	"chrome"	"109.0.0"	"FALSE"	"Windows 10"	"60.86"	"020"	n/a	n/a	n/a	n/a	n/a	n/a	"fixation"	n/a	n/a	n/a	n/a	"NULL"	n/a	"NULL"	"NULL"	"NULL"	"<p style=\"color: black; font-size: 80px; padding-left: 27%; padding-right: 2%; padding-top: 19%; padding-bottom: 29%\">+</p>"	"1012"	n/a	n/a	n/a	n/a	n/a	n/a	n/a	n/a	n/a
n/a	"image-keyboard-response"	"231"	"10264295"	"0.0-6.0-2.0-1.23"	"zawvzg"	"600"	"1024"	"chrome"	"109.0.0"	"FALSE"	"Windows 10"	"60.86"	"020"	n/a	n/a	n/a	n/a	n/a	n/a	"Trial"	n/a	n/a	n/a	"1130"	"arrowleft"	n/a	"NULL"	"NULL"	"NULL"	"stimuli/VerticalHorizontal_11.78571_0.10960.png"	n/a	"VerticalHorizontal"	"arrowleft"	"1031"	"TRUE"	"VerticalHorizontal"	"11.785710000"	"0.1096000000"	"2"	"24"
n/a	"html-keyboard-response"	"232"	"10265607"	"0.0-6.0-2.0-0.24"	"zawvzg"	"600"	"1024"	"chrome"	"109.0.0"	"FALSE"	"Windows 10"	"60.86"	"020"	n/a	n/a	n/a	n/a	n/a	n/a	"fixation"	n/a	n/a	n/a	n/a	"NULL"	n/a	"NULL"	"NULL"	"NULL"	"<p style=\"color: black; font-size: 80px; padding-left: 34%; padding-right: 41%; padding-top: 46%; padding-bottom: 30%\">+</p>"	"1292"	n/a	n/a	n/a	n/a	n/a	n/a	n/a	n/a	n/a
n/a	"image-keyboard-response"	"233"	"10266520"	"0.0-6.0-2.0-1.24"	"zawvzg"	"600"	"1024"	"chrome"	"109.0.0"	"FALSE"	"Windows 10"	"60.86"	"020"	n/a	n/a	n/a	n/a	n/a	n/a	"Trial"	n/a	n/a	n/a	"911"	"arrowleft"	n/a	"NULL"	"NULL"	"NULL"	"stimuli/VerticalHorizontal_-20.27143_0.22500.png"	n/a	"VerticalHorizontal"	"arrowleft"	"1312"	"TRUE"	"VerticalHorizontal"	"-20.27143000"	"0.2250000000"	"2"	"25"
n/a	"html-keyboard-response"	"234"	"10267924"	"0.0-6.0-2.0-0.25"	"zawvzg"	"600"	"1024"	"chrome"	"109.0.0"	"FALSE"	"Windows 10"	"60.86"	"020"	n/a	n/a	n/a	n/a	n/a	n/a	"fixation"	n/a	n/a	n/a	n/a	"NULL"	n/a	"NULL"	"NULL"	"NULL"	"<p style=\"color: black; font-size: 80px; padding-left: 19%; padding-right: 38%; padding-top: 36%; padding-bottom: 18%\">+</p>"	"1395"	n/a	n/a	n/a	n/a	n/a	n/a	n/a	n/a	n/a
n/a	"image-keyboard-response"	"235"	"10268689"	"0.0-6.0-2.0-1.25"	"zawvzg"	"600"	"1024"	"chrome"	"109.0.0"	"FALSE"	"Windows 10"	"60.86"	"020"	n/a	n/a	n/a	n/a	n/a	n/a	"Trial"	n/a	n/a	n/a	"763"	"arrowright"	n/a	"NULL"	"NULL"	"NULL"	"stimuli/VerticalHorizontal_-20.27143_-0.1096.png"	n/a	"VerticalHorizontal"	"arrowright"	"1404"	"TRUE"	"VerticalHorizontal"	"-20.27143000"	"-0.109600000"	"2"	"26"
n/a	"html-keyboard-response"	"236"	"10270100"	"0.0-6.0-2.0-0.26"	"zawvzg"	"600"	"1024"	"chrome"	"109.0.0"	"FALSE"	"Windows 10"	"60.86"	"020"	n/a	n/a	n/a	n/a	n/a	n/a	"fixation"	n/a	n/a	n/a	n/a	"NULL"	n/a	"NULL"	"NULL"	"NULL"	"<p style=\"color: black; font-size: 80px; padding-left: 29%; padding-right: 23%; padding-top: 28%; padding-bottom: 7%\">+</p>"	"1403"	n/a	n/a	n/a	n/a	n/a	n/a	n/a	n/a	n/a
n/a	"image-keyboard-response"	"237"	"10273207"	"0.0-6.0-2.0-1.26"	"zawvzg"	"600"	"1024"	"chrome"	"109.0.0"	"FALSE"	"Windows 10"	"60.86"	"020"	n/a	n/a	n/a	n/a	n/a	n/a	"Trial"	n/a	n/a	n/a	"3103"	"arrowright"	n/a	"NULL"	"NULL"	"NULL"	"stimuli/VerticalHorizontal_20.27143_-0.0673.png"	n/a	"VerticalHorizontal"	"arrowright"	"1411"	"TRUE"	"VerticalHorizontal"	"20.271430000"	"-0.067300000"	"2"	"27"
n/a	"html-keyboard-response"	"238"	"10274696"	"0.0-6.0-2.0-0.27"	"zawvzg"	"600"	"1024"	"chrome"	"109.0.0"	"FALSE"	"Windows 10"	"60.86"	"020"	n/a	n/a	n/a	n/a	n/a	n/a	"fixation"	n/a	n/a	n/a	n/a	"NULL"	n/a	"NULL"	"NULL"	"NULL"	"<p style=\"color: black; font-size: 80px; padding-left: 9%; padding-right: 14%; padding-top: 37%; padding-bottom: 9%\">+</p>"	"1474"	n/a	n/a	n/a	n/a	n/a	n/a	n/a	n/a	n/a
n/a	"image-keyboard-response"	"239"	"10276213"	"0.0-6.0-2.0-1.27"	"zawvzg"	"600"	"1024"	"chrome"	"109.0.0"	"FALSE"	"Windows 10"	"60.86"	"020"	n/a	n/a	n/a	n/a	n/a	n/a	"Trial"	n/a	n/a	n/a	"1516"	"arrowleft"	n/a	"NULL"	"NULL"	"NULL"	"stimuli/VerticalHorizontal_-28.75714_0.16217.png"	n/a	"VerticalHorizontal"	"arrowleft"	"1489"	"TRUE"	"VerticalHorizontal"	"-28.75714000"	"0.1621700000"	"2"	"28"
n/a	"html-keyboard-response"	"240"	"10277692"	"0.0-6.0-2.0-0.28"	"zawvzg"	"600"	"1024"	"chrome"	"109.0.0"	"FALSE"	"Windows 10"	"60.86"	"020"	n/a	n/a	n/a	n/a	n/a	n/a	"fixation"	n/a	n/a	n/a	n/a	"NULL"	n/a	"NULL"	"NULL"	"NULL"	"<p style=\"color: black; font-size: 80px; padding-left: 40%; padding-right: 19%; padding-top: 18%; padding-bottom: 19%\">+</p>"	"1468"	n/a	n/a	n/a	n/a	n/a	n/a	n/a	n/a	n/a
n/a	"image-keyboard-response"	"241"	"10279334"	"0.0-6.0-2.0-1.28"	"zawvzg"	"600"	"1024"	"chrome"	"109.0.0"	"FALSE"	"Windows 10"	"60.86"	"020"	n/a	n/a	n/a	n/a	n/a	n/a	"Trial"	n/a	n/a	n/a	"1641"	"arrowleft"	n/a	"NULL"	"NULL"	"NULL"	"stimuli/VerticalHorizontal_28.75714_0.10960.png"	n/a	"VerticalHorizontal"	"arrowleft"	"1479"	"TRUE"	"VerticalHorizontal"	"28.757140000"	"0.1096000000"	"2"	"29"
n/a	"html-keyboard-response"	"242"	"10280432"	"0.0-6.0-2.0-0.29"	"zawvzg"	"600"	"1024"	"chrome"	"109.0.0"	"FALSE"	"Windows 10"	"60.86"	"020"	n/a	n/a	n/a	n/a	n/a	n/a	"fixation"	n/a	n/a	n/a	n/a	"NULL"	n/a	"NULL"	"NULL"	"NULL"	"<p style=\"color: black; font-size: 80px; padding-left: 23%; padding-right: 5%; padding-top: 0%; padding-bottom: 33%\">+</p>"	"1090"	n/a	n/a	n/a	n/a	n/a	n/a	n/a	n/a	n/a
n/a	"image-keyboard-response"	"243"	"10281012"	"0.0-6.0-2.0-1.29"	"zawvzg"	"600"	"1024"	"chrome"	"109.0.0"	"FALSE"	"Windows 10"	"60.86"	"020"	n/a	n/a	n/a	n/a	n/a	n/a	"Trial"	n/a	n/a	n/a	"578"	"arrowleft"	n/a	"NULL"	"NULL"	"NULL"	"stimuli/VerticalHorizontal_-11.78571_0.16217.png"	n/a	"VerticalHorizontal"	"arrowleft"	"1098"	"TRUE"	"VerticalHorizontal"	"-11.78571000"	"0.1621700000"	"2"	"30"
n/a	"html-keyboard-response"	"244"	"10282243"	"0.0-6.0-2.0-0.30"	"zawvzg"	"600"	"1024"	"chrome"	"109.0.0"	"FALSE"	"Windows 10"	"60.86"	"020"	n/a	n/a	n/a	n/a	n/a	n/a	"fixation"	n/a	n/a	n/a	n/a	"NULL"	n/a	"NULL"	"NULL"	"NULL"	"<p style=\"color: black; font-size: 80px; padding-left: 42%; padding-right: 32%; padding-top: 21%; padding-bottom: 2%\">+</p>"	"1227"	n/a	n/a	n/a	n/a	n/a	n/a	n/a	n/a	n/a
n/a	"image-keyboard-response"	"245"	"10283204"	"0.0-6.0-2.0-1.30"	"zawvzg"	"600"	"1024"	"chrome"	"109.0.0"	"FALSE"	"Windows 10"	"60.86"	"020"	n/a	n/a	n/a	n/a	n/a	n/a	"Trial"	n/a	n/a	n/a	"960"	"arrowright"	n/a	"NULL"	"NULL"	"NULL"	"stimuli/VerticalHorizontal_20.27143_-0.1096.png"	n/a	"VerticalHorizontal"	"arrowright"	"1231"	"TRUE"	"VerticalHorizontal"	"20.271430000"	"-0.109600000"	"2"	"31"
n/a	"html-keyboard-response"	"246"	"10284362"	"0.0-6.0-2.0-0.31"	"zawvzg"	"600"	"1024"	"chrome"	"109.0.0"	"FALSE"	"Windows 10"	"60.86"	"020"	n/a	n/a	n/a	n/a	n/a	n/a	"fixation"	n/a	n/a	n/a	n/a	"NULL"	n/a	"NULL"	"NULL"	"NULL"	"<p style=\"color: black; font-size: 80px; padding-left: 43%; padding-right: 21%; padding-top: 7%; padding-bottom: 27%\">+</p>"	"1139"	n/a	n/a	n/a	n/a	n/a	n/a	n/a	n/a	n/a
n/a	"image-keyboard-response"	"247"	"10289817"	"0.0-6.0-2.0-1.31"	"zawvzg"	"600"	"1024"	"chrome"	"109.0.0"	"FALSE"	"Windows 10"	"60.86"	"020"	n/a	n/a	n/a	n/a	n/a	n/a	"Trial"	n/a	n/a	n/a	"5454"	"arrowleft"	n/a	"NULL"	"NULL"	"NULL"	"stimuli/VerticalHorizontal_3.30000_0.22500.png"	n/a	"VerticalHorizontal"	"arrowleft"	"1158"	"TRUE"	"VerticalHorizontal"	"3.3000000000"	"0.2250000000"	"2"	"32"
n/a	"html-keyboard-response"	"248"	"10291007"	"0.0-6.0-2.0-0.32"	"zawvzg"	"600"	"1024"	"chrome"	"109.0.0"	"FALSE"	"Windows 10"	"60.86"	"020"	n/a	n/a	n/a	n/a	n/a	n/a	"fixation"	n/a	n/a	n/a	n/a	"NULL"	n/a	"NULL"	"NULL"	"NULL"	"<p style=\"color: black; font-size: 80px; padding-left: 9%; padding-right: 29%; padding-top: 2%; padding-bottom: 10%\">+</p>"	"1176"	n/a	n/a	n/a	n/a	n/a	n/a	n/a	n/a	n/a
n/a	"image-keyboard-response"	"249"	"10292049"	"0.0-6.0-2.0-1.32"	"zawvzg"	"600"	"1024"	"chrome"	"109.0.0"	"FALSE"	"Windows 10"	"60.86"	"020"	n/a	n/a	n/a	n/a	n/a	n/a	"Trial"	n/a	n/a	n/a	"1042"	"arrowleft"	n/a	"NULL"	"NULL"	"NULL"	"stimuli/VerticalHorizontal_28.75714_0.06730.png"	n/a	"VerticalHorizontal"	"arrowleft"	"1190"	"TRUE"	"VerticalHorizontal"	"28.757140000"	"0.0673000000"	"2"	"33"
