"success"	"trial_type"	"trial_index"	"time_elapsed"	"internal_node_id"	"participant_id"	"screen_height"	"screen_width"	"browser"	"browser_version"	"mobile"	"os"	"vsync_rate"	"subject_id"	"width"	"height"	"webaudio"	"fullscreen"	"webcam"	"microphone"	"screen"	"version"	"date"	"time"	"rt"	"response"	"timeout"	"failed_images"	"failed_audio"	"failed_video"	"stimulus"	"trial_duration"	"block"	"correct_response"	"prestimulus_duration"	"correct"	"type"	"illusion_strength"	"illusion_difference"	"block_number"	"trial_number"
"TRUE"	"fullscreen"	"0"	"7671873"	"0.0-0.0"	"yhabs7"	"563"	"1034"	"chrome"	"111.0.0"	"FALSE"	"Windows 10"	"60.16"	"047"	n/a	n/a	n/a	n/a	n/a	n/a	n/a	n/a	n/a	n/a	n/a	"NULL"	n/a	"NULL"	"NULL"	"NULL"	n/a	n/a	n/a	n/a	n/a	n/a	n/a	n/a	n/a	n/a	n/a
n/a	"browser-check"	"1"	"7672885"	"0.0-1.0"	"yhabs7"	"563"	"1034"	"chrome"	"111.0.0"	"FALSE"	"Windows 10"	"60.16"	"047"	"1034"	"563"	"TRUE"	"TRUE"	"TRUE"	"TRUE"	"browser_info"	"1.0"	"16/03/2023"	"15:57:03"	n/a	"NULL"	n/a	"NULL"	"NULL"	"NULL"	n/a	n/a	n/a	n/a	n/a	n/a	n/a	n/a	n/a	n/a	n/a
n/a	"survey-text"	"2"	"7676886"	"0.0-2.0"	"yhabs7"	"563"	"1034"	"chrome"	"111.0.0"	"FALSE"	"Windows 10"	"60.16"	"047"	n/a	n/a	n/a	n/a	n/a	n/a	"subject_id"	n/a	n/a	n/a	"3999"	"list(subject_id = \"047\")"	n/a	"NULL"	"NULL"	"NULL"	n/a	n/a	n/a	n/a	n/a	n/a	n/a	n/a	n/a	n/a	n/a
"TRUE"	"preload"	"3"	"7676899"	"0.0-3.0"	"yhabs7"	"563"	"1034"	"chrome"	"111.0.0"	"FALSE"	"Windows 10"	"60.16"	"047"	n/a	n/a	n/a	n/a	n/a	n/a	n/a	n/a	n/a	n/a	n/a	"NULL"	"FALSE"	"list()"	"list()"	"list()"	n/a	n/a	n/a	n/a	n/a	n/a	n/a	n/a	n/a	n/a	n/a
n/a	"html-button-response"	"4"	"7722129"	"0.0-4.0-0.0"	"yhabs7"	"563"	"1034"	"chrome"	"111.0.0"	"FALSE"	"Windows 10"	"60.16"	"047"	n/a	n/a	n/a	n/a	n/a	n/a	"illusion_instructions"	n/a	n/a	n/a	"45229"	"0"	n/a	"NULL"	"NULL"	"NULL"	"<p><b>Illusion Game</b></p><p>In this game of speed and reflex, you will need to make <b>visual judgments</b> (for instance, which circle is the biggest, or which line is the longest), as fast and as correctly as possible, while <b>resisting different visual illusions</b>.</p><p>We are going to start with some examples of all the illusions you will encounter in the game.</p>"	n/a	n/a	n/a	n/a	n/a	n/a	n/a	n/a	n/a	n/a
"TRUE"	"preload"	"5"	"7722153"	"0.0-4.0-1.0-0.0"	"yhabs7"	"563"	"1034"	"chrome"	"111.0.0"	"FALSE"	"Windows 10"	"60.16"	"047"	n/a	n/a	n/a	n/a	n/a	n/a	n/a	n/a	n/a	n/a	n/a	"NULL"	"FALSE"	"list()"	"list()"	"list()"	n/a	n/a	n/a	n/a	n/a	n/a	n/a	n/a	n/a	n/a	n/a
n/a	"html-keyboard-response"	"6"	"7770953"	"0.0-4.0-1.0-1.0"	"yhabs7"	"563"	"1034"	"chrome"	"111.0.0"	"FALSE"	"Windows 10"	"60.16"	"047"	n/a	n/a	n/a	n/a	n/a	n/a	n/a	n/a	n/a	n/a	"48798"	"enter"	n/a	"NULL"	"NULL"	"NULL"	"<p><b>Practice</b></p><p>In this part, two red circles will appear side by side on the screen.</p><p>Your task is to select which <b>red circle is bigger</b> in size as fast as you can, without making errors.</p><p>Don't get distracted by the surrounding black circles around the red circles!</p><p>Press <b>the LEFT or the RIGHT arrow</b> to indicate which is the bigger <b>red circle.</b></p><div style='float: center'><img src='materials/instructions/Ebbinghaus_Demo.png' height='300'></img><p><img src='utils/answer/answer_leftright_keyboard.PNG' height='150'></img></p><p class='small'>In this example, the correct answer is the <b>LEFT arrow</b>.</p></div><p>Are you ready? <b>Press ENTER to start</b></p>"	n/a	n/a	n/a	n/a	n/a	n/a	n/a	n/a	n/a	n/a
n/a	"html-keyboard-response"	"7"	"7772963"	"0.0-4.0-1.0-2.0-0.0"	"yhabs7"	"563"	"1034"	"chrome"	"111.0.0"	"FALSE"	"Windows 10"	"60.16"	"047"	n/a	n/a	n/a	n/a	n/a	n/a	"fixation"	n/a	n/a	n/a	n/a	"NULL"	n/a	"NULL"	"NULL"	"NULL"	"<p style=\"color: black; font-size: 80px; padding-left: 29%; padding-right: 17%; padding-top: 22%; padding-bottom: 32%\">+</p>"	"1483"	n/a	n/a	n/a	n/a	n/a	n/a	n/a	n/a	n/a
n/a	"image-keyboard-response"	"8"	"7773844"	"0.0-4.0-1.0-2.0-1.0"	"yhabs7"	"563"	"1034"	"chrome"	"111.0.0"	"FALSE"	"Windows 10"	"60.16"	"047"	n/a	n/a	n/a	n/a	n/a	n/a	"Trial"	n/a	n/a	n/a	"880"	"arrowleft"	n/a	"NULL"	"NULL"	"NULL"	"stimuli/Ebbinghaus_1000000_1.40000.png"	n/a	"Ebbinghaus"	"arrowleft"	"2010"	"TRUE"	"Ebbinghaus"	"100000000000"	"1.4000000000"	"1"	"1"
n/a	"html-keyboard-response"	"9"	"7775059"	"0.0-4.0-1.0-2.0-0.1"	"yhabs7"	"563"	"1034"	"chrome"	"111.0.0"	"FALSE"	"Windows 10"	"60.16"	"047"	n/a	n/a	n/a	n/a	n/a	n/a	"fixation"	n/a	n/a	n/a	n/a	"NULL"	n/a	"NULL"	"NULL"	"NULL"	"<p style=\"color: black; font-size: 80px; padding-left: 22%; padding-right: 0%; padding-top: 20%; padding-bottom: 28%\">+</p>"	"1206"	n/a	n/a	n/a	n/a	n/a	n/a	n/a	n/a	n/a
n/a	"image-keyboard-response"	"10"	"7775459"	"0.0-4.0-1.0-2.0-1.1"	"yhabs7"	"563"	"1034"	"chrome"	"111.0.0"	"FALSE"	"Windows 10"	"60.16"	"047"	n/a	n/a	n/a	n/a	n/a	n/a	"Trial"	n/a	n/a	n/a	"398"	"arrowleft"	n/a	"NULL"	"NULL"	"NULL"	"stimuli/Ebbinghaus_0000000_1.40000.png"	n/a	"Ebbinghaus"	"arrowleft"	"1215"	"TRUE"	"Ebbinghaus"	"000000000000"	"1.4000000000"	"1"	"2"
n/a	"html-keyboard-response"	"11"	"7776749"	"0.0-4.0-1.0-2.0-0.2"	"yhabs7"	"563"	"1034"	"chrome"	"111.0.0"	"FALSE"	"Windows 10"	"60.16"	"047"	n/a	n/a	n/a	n/a	n/a	n/a	"fixation"	n/a	n/a	n/a	n/a	"NULL"	n/a	"NULL"	"NULL"	"NULL"	"<p style=\"color: black; font-size: 80px; padding-left: 15%; padding-right: 19%; padding-top: 48%; padding-bottom: 34%\">+</p>"	"1277"	n/a	n/a	n/a	n/a	n/a	n/a	n/a	n/a	n/a
n/a	"image-keyboard-response"	"12"	"7777240"	"0.0-4.0-1.0-2.0-1.2"	"yhabs7"	"563"	"1034"	"chrome"	"111.0.0"	"FALSE"	"Windows 10"	"60.16"	"047"	n/a	n/a	n/a	n/a	n/a	n/a	"Trial"	n/a	n/a	n/a	"491"	"arrowright"	n/a	"NULL"	"NULL"	"NULL"	"stimuli/Ebbinghaus_0000000_-1.4000.png"	n/a	"Ebbinghaus"	"arrowright"	"1290"	"TRUE"	"Ebbinghaus"	"000000000000"	"-1.400000000"	"1"	"3"
n/a	"html-keyboard-response"	"13"	"7778677"	"0.0-4.0-1.0-2.0-0.3"	"yhabs7"	"563"	"1034"	"chrome"	"111.0.0"	"FALSE"	"Windows 10"	"60.16"	"047"	n/a	n/a	n/a	n/a	n/a	n/a	"fixation"	n/a	n/a	n/a	n/a	"NULL"	n/a	"NULL"	"NULL"	"NULL"	"<p style=\"color: black; font-size: 80px; padding-left: 30%; padding-right: 26%; padding-top: 13%; padding-bottom: 38%\">+</p>"	"1423"	n/a	n/a	n/a	n/a	n/a	n/a	n/a	n/a	n/a
n/a	"image-keyboard-response"	"14"	"7779106"	"0.0-4.0-1.0-2.0-1.3"	"yhabs7"	"563"	"1034"	"chrome"	"111.0.0"	"FALSE"	"Windows 10"	"60.16"	"047"	n/a	n/a	n/a	n/a	n/a	n/a	"Trial"	n/a	n/a	n/a	"428"	"arrowright"	n/a	"NULL"	"NULL"	"NULL"	"stimuli/Ebbinghaus_-100000_-1.4000.png"	n/a	"Ebbinghaus"	"arrowright"	"1437"	"TRUE"	"Ebbinghaus"	"-10000000000"	"-1.400000000"	"1"	"4"
n/a	"html-keyboard-response"	"15"	"7780341"	"0.0-4.0-1.0-2.0-0.4"	"yhabs7"	"563"	"1034"	"chrome"	"111.0.0"	"FALSE"	"Windows 10"	"60.16"	"047"	n/a	n/a	n/a	n/a	n/a	n/a	"fixation"	n/a	n/a	n/a	n/a	"NULL"	n/a	"NULL"	"NULL"	"NULL"	"<p style=\"color: black; font-size: 80px; padding-left: 36%; padding-right: 45%; padding-top: 21%; padding-bottom: 9%\">+</p>"	"1224"	n/a	n/a	n/a	n/a	n/a	n/a	n/a	n/a	n/a
n/a	"image-keyboard-response"	"16"	"7780762"	"0.0-4.0-1.0-2.0-1.4"	"yhabs7"	"563"	"1034"	"chrome"	"111.0.0"	"FALSE"	"Windows 10"	"60.16"	"047"	n/a	n/a	n/a	n/a	n/a	n/a	"Trial"	n/a	n/a	n/a	"421"	"arrowright"	n/a	"NULL"	"NULL"	"NULL"	"stimuli/Ebbinghaus_1000000_-1.4000.png"	n/a	"Ebbinghaus"	"arrowright"	"1235"	"TRUE"	"Ebbinghaus"	"100000000000"	"-1.400000000"	"1"	"5"
n/a	"html-keyboard-response"	"17"	"7782010"	"0.0-4.0-1.0-2.0-0.5"	"yhabs7"	"563"	"1034"	"chrome"	"111.0.0"	"FALSE"	"Windows 10"	"60.16"	"047"	n/a	n/a	n/a	n/a	n/a	n/a	"fixation"	n/a	n/a	n/a	n/a	"NULL"	n/a	"NULL"	"NULL"	"NULL"	"<p style=\"color: black; font-size: 80px; padding-left: 45%; padding-right: 0%; padding-top: 7%; padding-bottom: 47%\">+</p>"	"1245"	n/a	n/a	n/a	n/a	n/a	n/a	n/a	n/a	n/a
n/a	"image-keyboard-response"	"18"	"7782509"	"0.0-4.0-1.0-2.0-1.5"	"yhabs7"	"563"	"1034"	"chrome"	"111.0.0"	"FALSE"	"Windows 10"	"60.16"	"047"	n/a	n/a	n/a	n/a	n/a	n/a	"Trial"	n/a	n/a	n/a	"498"	"arrowleft"	n/a	"NULL"	"NULL"	"NULL"	"stimuli/Ebbinghaus_-100000_1.40000.png"	n/a	"Ebbinghaus"	"arrowleft"	"1248"	"TRUE"	"Ebbinghaus"	"-10000000000"	"1.4000000000"	"1"	"6"
n/a	"html-button-response"	"19"	"7792954"	"0.0-4.0-1.0-3.0"	"yhabs7"	"563"	"1034"	"chrome"	"111.0.0"	"FALSE"	"Windows 10"	"60.16"	"047"	n/a	n/a	n/a	n/a	n/a	n/a	"practice_block_results"	n/a	n/a	n/a	"10443"	"0"	n/a	"NULL"	"NULL"	"NULL"	"<p style='color:rgb(76,175,80);'> Correct Responses: <b>100.00%</b></p><hr><p style='color:rgb(233,30,99);'> Average Response Time: <b>519.33</b> ms.</p>"	n/a	n/a	n/a	n/a	n/a	n/a	n/a	n/a	n/a	n/a
"TRUE"	"preload"	"20"	"7793484"	"0.0-4.0-2.0-0.0"	"yhabs7"	"563"	"1034"	"chrome"	"111.0.0"	"FALSE"	"Windows 10"	"60.16"	"047"	n/a	n/a	n/a	n/a	n/a	n/a	n/a	n/a	n/a	n/a	n/a	"NULL"	"FALSE"	"list()"	"list()"	"list()"	n/a	n/a	n/a	n/a	n/a	n/a	n/a	n/a	n/a	n/a	n/a
n/a	"html-keyboard-response"	"21"	"7803050"	"0.0-4.0-2.0-1.0"	"yhabs7"	"563"	"1034"	"chrome"	"111.0.0"	"FALSE"	"Windows 10"	"60.16"	"047"	n/a	n/a	n/a	n/a	n/a	n/a	n/a	n/a	n/a	n/a	"9566"	"enter"	n/a	"NULL"	"NULL"	"NULL"	"<p><b>Practice</b></p><p>In this part, two horizontal red lines will appear one above the other.</p><p>Your task is to select which <b>line is longer</b> in length as fast as you can, without making errors.</p><p>Don't get distracted by the surrounding black arrows at the end of the red lines!</p><p>Press <b>the UP or the DOWN arrow</b> to indicate where is the longer <b>red line.</b></p><div style='float: center'><img src='materials/instructions/MullerLyer_Demo.png' height='300'></img><p><img src='utils/answer/answer_updown_keyboard.PNG' height='150'></img></p><p class='small'>In this example, the correct answer is the <b>UP arrow</b>.</p></div><p>Are you ready? <b>Press ENTER to start</b></p>"	n/a	n/a	n/a	n/a	n/a	n/a	n/a	n/a	n/a	n/a
n/a	"html-keyboard-response"	"22"	"7805048"	"0.0-4.0-2.0-2.0-0.0"	"yhabs7"	"563"	"1034"	"chrome"	"111.0.0"	"FALSE"	"Windows 10"	"60.16"	"047"	n/a	n/a	n/a	n/a	n/a	n/a	"fixation"	n/a	n/a	n/a	n/a	"NULL"	n/a	"NULL"	"NULL"	"NULL"	"<p style=\"color: black; font-size: 80px; padding-left: 28%; padding-right: 1%; padding-top: 31%; padding-bottom: 8%\">+</p>"	"1480"	n/a	n/a	n/a	n/a	n/a	n/a	n/a	n/a	n/a
n/a	"image-keyboard-response"	"23"	"7805480"	"0.0-4.0-2.0-2.0-1.0"	"yhabs7"	"563"	"1034"	"chrome"	"111.0.0"	"FALSE"	"Windows 10"	"60.16"	"047"	n/a	n/a	n/a	n/a	n/a	n/a	"Trial"	n/a	n/a	n/a	"430"	"arrowup"	n/a	"NULL"	"NULL"	"NULL"	"stimuli/MullerLyer_0000000_0.70000.png"	n/a	"MullerLyer"	"arrowup"	"1998"	"TRUE"	"MullerLyer"	"000000000000"	"0.7000000000"	"1"	"7"
n/a	"html-keyboard-response"	"24"	"7806530"	"0.0-4.0-2.0-2.0-0.1"	"yhabs7"	"563"	"1034"	"chrome"	"111.0.0"	"FALSE"	"Windows 10"	"60.16"	"047"	n/a	n/a	n/a	n/a	n/a	n/a	"fixation"	n/a	n/a	n/a	n/a	"NULL"	n/a	"NULL"	"NULL"	"NULL"	"<p style=\"color: black; font-size: 80px; padding-left: 38%; padding-right: 23%; padding-top: 23%; padding-bottom: 2%\">+</p>"	"1039"	n/a	n/a	n/a	n/a	n/a	n/a	n/a	n/a	n/a
n/a	"image-keyboard-response"	"25"	"7806975"	"0.0-4.0-2.0-2.0-1.1"	"yhabs7"	"563"	"1034"	"chrome"	"111.0.0"	"FALSE"	"Windows 10"	"60.16"	"047"	n/a	n/a	n/a	n/a	n/a	n/a	"Trial"	n/a	n/a	n/a	"444"	"arrowup"	n/a	"NULL"	"NULL"	"NULL"	"stimuli/MullerLyer_2300000_0.70000.png"	n/a	"MullerLyer"	"arrowup"	"1050"	"TRUE"	"MullerLyer"	"230000000000"	"0.7000000000"	"1"	"8"
n/a	"html-keyboard-response"	"26"	"7808043"	"0.0-4.0-2.0-2.0-0.2"	"yhabs7"	"563"	"1034"	"chrome"	"111.0.0"	"FALSE"	"Windows 10"	"60.16"	"047"	n/a	n/a	n/a	n/a	n/a	n/a	"fixation"	n/a	n/a	n/a	n/a	"NULL"	n/a	"NULL"	"NULL"	"NULL"	"<p style=\"color: black; font-size: 80px; padding-left: 19%; padding-right: 33%; padding-top: 37%; padding-bottom: 15%\">+</p>"	"1053"	n/a	n/a	n/a	n/a	n/a	n/a	n/a	n/a	n/a
n/a	"image-keyboard-response"	"27"	"7808594"	"0.0-4.0-2.0-2.0-1.2"	"yhabs7"	"563"	"1034"	"chrome"	"111.0.0"	"FALSE"	"Windows 10"	"60.16"	"047"	n/a	n/a	n/a	n/a	n/a	n/a	"Trial"	n/a	n/a	n/a	"550"	"arrowdown"	n/a	"NULL"	"NULL"	"NULL"	"stimuli/MullerLyer_2300000_-0.7000.png"	n/a	"MullerLyer"	"arrowdown"	"1068"	"TRUE"	"MullerLyer"	"230000000000"	"-0.700000000"	"1"	"9"
n/a	"html-keyboard-response"	"28"	"7809638"	"0.0-4.0-2.0-2.0-0.3"	"yhabs7"	"563"	"1034"	"chrome"	"111.0.0"	"FALSE"	"Windows 10"	"60.16"	"047"	n/a	n/a	n/a	n/a	n/a	n/a	"fixation"	n/a	n/a	n/a	n/a	"NULL"	n/a	"NULL"	"NULL"	"NULL"	"<p style=\"color: black; font-size: 80px; padding-left: 10%; padding-right: 7%; padding-top: 19%; padding-bottom: 18%\">+</p>"	"1032"	n/a	n/a	n/a	n/a	n/a	n/a	n/a	n/a	n/a
n/a	"image-keyboard-response"	"29"	"7810093"	"0.0-4.0-2.0-2.0-1.3"	"yhabs7"	"563"	"1034"	"chrome"	"111.0.0"	"FALSE"	"Windows 10"	"60.16"	"047"	n/a	n/a	n/a	n/a	n/a	n/a	"Trial"	n/a	n/a	n/a	"455"	"arrowdown"	n/a	"NULL"	"NULL"	"NULL"	"stimuli/MullerLyer_0000000_-0.7000.png"	n/a	"MullerLyer"	"arrowdown"	"1044"	"TRUE"	"MullerLyer"	"000000000000"	"-0.700000000"	"1"	"10"
n/a	"html-keyboard-response"	"30"	"7811372"	"0.0-4.0-2.0-2.0-0.4"	"yhabs7"	"563"	"1034"	"chrome"	"111.0.0"	"FALSE"	"Windows 10"	"60.16"	"047"	n/a	n/a	n/a	n/a	n/a	n/a	"fixation"	n/a	n/a	n/a	n/a	"NULL"	n/a	"NULL"	"NULL"	"NULL"	"<p style=\"color: black; font-size: 80px; padding-left: 47%; padding-right: 47%; padding-top: 44%; padding-bottom: 9%\">+</p>"	"1266"	n/a	n/a	n/a	n/a	n/a	n/a	n/a	n/a	n/a
n/a	"image-keyboard-response"	"31"	"7811809"	"0.0-4.0-2.0-2.0-1.4"	"yhabs7"	"563"	"1034"	"chrome"	"111.0.0"	"FALSE"	"Windows 10"	"60.16"	"047"	n/a	n/a	n/a	n/a	n/a	n/a	"Trial"	n/a	n/a	n/a	"436"	"arrowdown"	n/a	"NULL"	"NULL"	"NULL"	"stimuli/MullerLyer_-230000_-0.7000.png"	n/a	"MullerLyer"	"arrowdown"	"1279"	"TRUE"	"MullerLyer"	"-23000000000"	"-0.700000000"	"1"	"11"
n/a	"html-keyboard-response"	"32"	"7813154"	"0.0-4.0-2.0-2.0-0.5"	"yhabs7"	"563"	"1034"	"chrome"	"111.0.0"	"FALSE"	"Windows 10"	"60.16"	"047"	n/a	n/a	n/a	n/a	n/a	n/a	"fixation"	n/a	n/a	n/a	n/a	"NULL"	n/a	"NULL"	"NULL"	"NULL"	"<p style=\"color: black; font-size: 80px; padding-left: 45%; padding-right: 10%; padding-top: 50%; padding-bottom: 27%\">+</p>"	"1340"	n/a	n/a	n/a	n/a	n/a	n/a	n/a	n/a	n/a
n/a	"image-keyboard-response"	"33"	"7813698"	"0.0-4.0-2.0-2.0-1.5"	"yhabs7"	"563"	"1034"	"chrome"	"111.0.0"	"FALSE"	"Windows 10"	"60.16"	"047"	n/a	n/a	n/a	n/a	n/a	n/a	"Trial"	n/a	n/a	n/a	"544"	"arrowup"	n/a	"NULL"	"NULL"	"NULL"	"stimuli/MullerLyer_-230000_0.70000.png"	n/a	"MullerLyer"	"arrowup"	"1345"	"TRUE"	"MullerLyer"	"-23000000000"	"0.7000000000"	"1"	"12"
n/a	"html-button-response"	"34"	"7817130"	"0.0-4.0-2.0-3.0"	"yhabs7"	"563"	"1034"	"chrome"	"111.0.0"	"FALSE"	"Windows 10"	"60.16"	"047"	n/a	n/a	n/a	n/a	n/a	n/a	"practice_block_results"	n/a	n/a	n/a	"3431"	"0"	n/a	"NULL"	"NULL"	"NULL"	"<p style='color:rgb(76,175,80);'> Correct Responses: <b>100.00%</b></p><hr><p style='color:rgb(233,30,99);'> Average Response Time: <b>476.50</b> ms.</p>"	n/a	n/a	n/a	n/a	n/a	n/a	n/a	n/a	n/a	n/a
"TRUE"	"preload"	"35"	"7817653"	"0.0-4.0-3.0-0.0"	"yhabs7"	"563"	"1034"	"chrome"	"111.0.0"	"FALSE"	"Windows 10"	"60.16"	"047"	n/a	n/a	n/a	n/a	n/a	n/a	n/a	n/a	n/a	n/a	n/a	"NULL"	"FALSE"	"list()"	"list()"	"list()"	n/a	n/a	n/a	n/a	n/a	n/a	n/a	n/a	n/a	n/a	n/a
n/a	"html-keyboard-response"	"36"	"7827044"	"0.0-4.0-3.0-1.0"	"yhabs7"	"563"	"1034"	"chrome"	"111.0.0"	"FALSE"	"Windows 10"	"60.16"	"047"	n/a	n/a	n/a	n/a	n/a	n/a	n/a	n/a	n/a	n/a	"9391"	"enter"	n/a	"NULL"	"NULL"	"NULL"	"<p><b>Practice</b></p><p>In this part, two red lines will appear side by side.</p><p>Your task is to tell <b>which line is longer</b> in length, regardless of their orientation, as fast as you can, and without making errors.</p><p>Don't get distracted by the orientation of the lines!</p><p>Press <b>the LEFT or the RIGHT arrow</b> to indicate which <b>line is the longer one.</b></p><div style='float: center'><img src='materials/instructions/VerticalHorizontal_Demo.png' height='300'></img><p><img src='utils/answer/answer_leftright_keyboard.PNG' height='150'></img></p><p class='small'>In this example, the correct answer is the <b>LEFT arrow</b>.</p></div><p>Are you ready? <b>Press ENTER to start</b></p>"	n/a	n/a	n/a	n/a	n/a	n/a	n/a	n/a	n/a	n/a
n/a	"html-keyboard-response"	"37"	"7828570"	"0.0-4.0-3.0-2.0-0.0"	"yhabs7"	"563"	"1034"	"chrome"	"111.0.0"	"FALSE"	"Windows 10"	"60.16"	"047"	n/a	n/a	n/a	n/a	n/a	n/a	"fixation"	n/a	n/a	n/a	n/a	"NULL"	n/a	"NULL"	"NULL"	"NULL"	"<p style=\"color: black; font-size: 80px; padding-left: 15%; padding-right: 2%; padding-top: 29%; padding-bottom: 28%\">+</p>"	"1023"	n/a	n/a	n/a	n/a	n/a	n/a	n/a	n/a	n/a
n/a	"image-keyboard-response"	"38"	"7829099"	"0.0-4.0-3.0-2.0-1.0"	"yhabs7"	"563"	"1034"	"chrome"	"111.0.0"	"FALSE"	"Windows 10"	"60.16"	"047"	n/a	n/a	n/a	n/a	n/a	n/a	"Trial"	n/a	n/a	n/a	"528"	"arrowright"	n/a	"NULL"	"NULL"	"NULL"	"stimuli/VerticalHorizontal_-330000_-0.9000.png"	n/a	"VerticalHorizontal"	"arrowright"	"1526"	"TRUE"	"VerticalHorizontal"	"-33000000000"	"-0.900000000"	"1"	"13"
n/a	"html-keyboard-response"	"39"	"7830529"	"0.0-4.0-3.0-2.0-0.1"	"yhabs7"	"563"	"1034"	"chrome"	"111.0.0"	"FALSE"	"Windows 10"	"60.16"	"047"	n/a	n/a	n/a	n/a	n/a	n/a	"fixation"	n/a	n/a	n/a	n/a	"NULL"	n/a	"NULL"	"NULL"	"NULL"	"<p style=\"color: black; font-size: 80px; padding-left: 39%; padding-right: 25%; padding-top: 41%; padding-bottom: 10%\">+</p>"	"1416"	n/a	n/a	n/a	n/a	n/a	n/a	n/a	n/a	n/a
n/a	"image-keyboard-response"	"40"	"7831157"	"0.0-4.0-3.0-2.0-1.1"	"yhabs7"	"563"	"1034"	"chrome"	"111.0.0"	"FALSE"	"Windows 10"	"60.16"	"047"	n/a	n/a	n/a	n/a	n/a	n/a	"Trial"	n/a	n/a	n/a	"627"	"arrowright"	n/a	"NULL"	"NULL"	"NULL"	"stimuli/VerticalHorizontal_0000000_-0.9000.png"	n/a	"VerticalHorizontal"	"arrowright"	"1430"	"TRUE"	"VerticalHorizontal"	"000000000000"	"-0.900000000"	"1"	"14"
n/a	"html-keyboard-response"	"41"	"7832495"	"0.0-4.0-3.0-2.0-0.2"	"yhabs7"	"563"	"1034"	"chrome"	"111.0.0"	"FALSE"	"Windows 10"	"60.16"	"047"	n/a	n/a	n/a	n/a	n/a	n/a	"fixation"	n/a	n/a	n/a	n/a	"NULL"	n/a	"NULL"	"NULL"	"NULL"	"<p style=\"color: black; font-size: 80px; padding-left: 37%; padding-right: 27%; padding-top: 45%; padding-bottom: 39%\">+</p>"	"1329"	n/a	n/a	n/a	n/a	n/a	n/a	n/a	n/a	n/a
n/a	"image-keyboard-response"	"42"	"7832904"	"0.0-4.0-3.0-2.0-1.2"	"yhabs7"	"563"	"1034"	"chrome"	"111.0.0"	"FALSE"	"Windows 10"	"60.16"	"047"	n/a	n/a	n/a	n/a	n/a	n/a	"Trial"	n/a	n/a	n/a	"408"	"arrowleft"	n/a	"NULL"	"NULL"	"NULL"	"stimuli/VerticalHorizontal_-330000_0.90000.png"	n/a	"VerticalHorizontal"	"arrowleft"	"1338"	"TRUE"	"VerticalHorizontal"	"-33000000000"	"0.9000000000"	"1"	"15"
n/a	"html-keyboard-response"	"43"	"7834020"	"0.0-4.0-3.0-2.0-0.3"	"yhabs7"	"563"	"1034"	"chrome"	"111.0.0"	"FALSE"	"Windows 10"	"60.16"	"047"	n/a	n/a	n/a	n/a	n/a	n/a	"fixation"	n/a	n/a	n/a	n/a	"NULL"	n/a	"NULL"	"NULL"	"NULL"	"<p style=\"color: black; font-size: 80px; padding-left: 46%; padding-right: 1%; padding-top: 3%; padding-bottom: 20%\">+</p>"	"1110"	n/a	n/a	n/a	n/a	n/a	n/a	n/a	n/a	n/a
n/a	"image-keyboard-response"	"44"	"7834496"	"0.0-4.0-3.0-2.0-1.3"	"yhabs7"	"563"	"1034"	"chrome"	"111.0.0"	"FALSE"	"Windows 10"	"60.16"	"047"	n/a	n/a	n/a	n/a	n/a	n/a	"Trial"	n/a	n/a	n/a	"475"	"arrowright"	n/a	"NULL"	"NULL"	"NULL"	"stimuli/VerticalHorizontal_3300000_-0.9000.png"	n/a	"VerticalHorizontal"	"arrowright"	"1116"	"TRUE"	"VerticalHorizontal"	"330000000000"	"-0.900000000"	"1"	"16"
n/a	"html-keyboard-response"	"45"	"7835530"	"0.0-4.0-3.0-2.0-0.4"	"yhabs7"	"563"	"1034"	"chrome"	"111.0.0"	"FALSE"	"Windows 10"	"60.16"	"047"	n/a	n/a	n/a	n/a	n/a	n/a	"fixation"	n/a	n/a	n/a	n/a	"NULL"	n/a	"NULL"	"NULL"	"NULL"	"<p style=\"color: black; font-size: 80px; padding-left: 26%; padding-right: 4%; padding-top: 13%; padding-bottom: 40%\">+</p>"	"1030"	n/a	n/a	n/a	n/a	n/a	n/a	n/a	n/a	n/a
n/a	"image-keyboard-response"	"46"	"7836050"	"0.0-4.0-3.0-2.0-1.4"	"yhabs7"	"563"	"1034"	"chrome"	"111.0.0"	"FALSE"	"Windows 10"	"60.16"	"047"	n/a	n/a	n/a	n/a	n/a	n/a	"Trial"	n/a	n/a	n/a	"518"	"arrowleft"	n/a	"NULL"	"NULL"	"NULL"	"stimuli/VerticalHorizontal_3300000_0.90000.png"	n/a	"VerticalHorizontal"	"arrowleft"	"1034"	"TRUE"	"VerticalHorizontal"	"330000000000"	"0.9000000000"	"1"	"17"
n/a	"html-keyboard-response"	"47"	"7837123"	"0.0-4.0-3.0-2.0-0.5"	"yhabs7"	"563"	"1034"	"chrome"	"111.0.0"	"FALSE"	"Windows 10"	"60.16"	"047"	n/a	n/a	n/a	n/a	n/a	n/a	"fixation"	n/a	n/a	n/a	n/a	"NULL"	n/a	"NULL"	"NULL"	"NULL"	"<p style=\"color: black; font-size: 80px; padding-left: 38%; padding-right: 33%; padding-top: 48%; padding-bottom: 13%\">+</p>"	"1070"	n/a	n/a	n/a	n/a	n/a	n/a	n/a	n/a	n/a
n/a	"image-keyboard-response"	"48"	"7837590"	"0.0-4.0-3.0-2.0-1.5"	"yhabs7"	"563"	"1034"	"chrome"	"111.0.0"	"FALSE"	"Windows 10"	"60.16"	"047"	n/a	n/a	n/a	n/a	n/a	n/a	"Trial"	n/a	n/a	n/a	"467"	"arrowleft"	n/a	"NULL"	"NULL"	"NULL"	"stimuli/VerticalHorizontal_0000000_0.90000.png"	n/a	"VerticalHorizontal"	"arrowleft"	"1073"	"TRUE"	"VerticalHorizontal"	"000000000000"	"0.9000000000"	"1"	"18"
n/a	"html-button-response"	"49"	"7841914"	"0.0-4.0-3.0-3.0"	"yhabs7"	"563"	"1034"	"chrome"	"111.0.0"	"FALSE"	"Windows 10"	"60.16"	"047"	n/a	n/a	n/a	n/a	n/a	n/a	"practice_block_results"	n/a	n/a	n/a	"4323"	"0"	n/a	"NULL"	"NULL"	"NULL"	"<p style='color:rgb(76,175,80);'> Correct Responses: <b>100.00%</b></p><hr><p style='color:rgb(233,30,99);'> Average Response Time: <b>503.83</b> ms.</p>"	n/a	n/a	n/a	n/a	n/a	n/a	n/a	n/a	n/a	n/a
n/a	"html-button-response"	"50"	"7889347"	"0.0-4.0-4.0"	"yhabs7"	"563"	"1034"	"chrome"	"111.0.0"	"FALSE"	"Windows 10"	"60.16"	"047"	n/a	n/a	n/a	n/a	n/a	n/a	"practice_debrief"	n/a	n/a	n/a	"46928"	"0"	n/a	"NULL"	"NULL"	"NULL"	"<p><b>TRAINING COMPLETED</b></p><p>In the next phase, there will be more trials, and some might be harder too.<br> Moreover, after each illusion block, a <b>score</b> will be calculated based on speed (time you took to answer) and accuracy (number of errors).</p><p>Try to keep up a high score!</p><br><p>Note that it can be <i>really</i> challenging at times, so you will need to rely on your <b>intuition</b> and gut feeling to answer as fast as you can without making errors.</p><p>Each illusion block will be repeated two times (so that you have the opportunity to improve your score), but the order of the blocks is random.</p><p>Remember, your goal is to be as <b>fast</b> and <b>accurate</b> as possible. Good luck!</p><br>"	n/a	n/a	n/a	n/a	n/a	n/a	n/a	n/a	n/a	n/a
"TRUE"	"preload"	"51"	"7889529"	"0.0-5.0-0.0"	"yhabs7"	"563"	"1034"	"chrome"	"111.0.0"	"FALSE"	"Windows 10"	"60.16"	"047"	n/a	n/a	n/a	n/a	n/a	n/a	n/a	n/a	n/a	n/a	n/a	"NULL"	"FALSE"	"list()"	"list()"	"list()"	n/a	n/a	n/a	n/a	n/a	n/a	n/a	n/a	n/a	n/a	n/a
n/a	"html-keyboard-response"	"52"	"7894296"	"0.0-5.0-1.0"	"yhabs7"	"563"	"1034"	"chrome"	"111.0.0"	"FALSE"	"Windows 10"	"60.16"	"047"	n/a	n/a	n/a	n/a	n/a	n/a	n/a	n/a	n/a	n/a	"4767"	"enter"	n/a	"NULL"	"NULL"	"NULL"	"<p><b>Part 1/6</b></p><p>In this part, two horizontal red lines will appear one above the other.</p><p>Your task is to select which <b>line is longer</b> in length as fast as you can, without making errors.</p><p>Don't get distracted by the surrounding black arrows at the end of the red lines!</p><p>Press <b>the UP or the DOWN arrow</b> to indicate where is the longer <b>red line.</b></p><div style='float: center'><img src='materials/instructions/MullerLyer_Demo.png' height='300'></img><p><img src='utils/answer/answer_updown_keyboard.PNG' height='150'></img></p><p class='small'>In this example, the correct answer is the <b>UP arrow</b>.</p></div><p>Are you ready? <b>Press ENTER to start</b></p>"	n/a	n/a	n/a	n/a	n/a	n/a	n/a	n/a	n/a	n/a
n/a	"html-keyboard-response"	"53"	"7895889"	"0.0-5.0-2.0-0.0"	"yhabs7"	"563"	"1034"	"chrome"	"111.0.0"	"FALSE"	"Windows 10"	"60.16"	"047"	n/a	n/a	n/a	n/a	n/a	n/a	"fixation"	n/a	n/a	n/a	n/a	"NULL"	n/a	"NULL"	"NULL"	"NULL"	"<p style=\"color: black; font-size: 80px; padding-left: 6%; padding-right: 11%; padding-top: 37%; padding-bottom: 40%\">+</p>"	"1077"	n/a	n/a	n/a	n/a	n/a	n/a	n/a	n/a	n/a
n/a	"image-keyboard-response"	"54"	"7896371"	"0.0-5.0-2.0-1.0"	"yhabs7"	"563"	"1034"	"chrome"	"111.0.0"	"FALSE"	"Windows 10"	"60.16"	"047"	n/a	n/a	n/a	n/a	n/a	n/a	"Trial"	n/a	n/a	n/a	"481"	"arrowup"	n/a	"NULL"	"NULL"	"NULL"	"stimuli/MullerLyer_-8.21429_0.23665.png"	n/a	"MullerLyer"	"arrowup"	"1593"	"TRUE"	"MullerLyer"	"-8.214290000"	"0.2366500000"	"1"	"19"
n/a	"html-keyboard-response"	"55"	"7897744"	"0.0-5.0-2.0-0.1"	"yhabs7"	"563"	"1034"	"chrome"	"111.0.0"	"FALSE"	"Windows 10"	"60.16"	"047"	n/a	n/a	n/a	n/a	n/a	n/a	"fixation"	n/a	n/a	n/a	n/a	"NULL"	n/a	"NULL"	"NULL"	"NULL"	"<p style=\"color: black; font-size: 80px; padding-left: 38%; padding-right: 33%; padding-top: 18%; padding-bottom: 12%\">+</p>"	"1368"	n/a	n/a	n/a	n/a	n/a	n/a	n/a	n/a	n/a
n/a	"image-keyboard-response"	"56"	"7898151"	"0.0-5.0-2.0-1.1"	"yhabs7"	"563"	"1034"	"chrome"	"111.0.0"	"FALSE"	"Windows 10"	"60.16"	"047"	n/a	n/a	n/a	n/a	n/a	n/a	"Trial"	n/a	n/a	n/a	"406"	"arrowup"	n/a	"NULL"	"NULL"	"NULL"	"stimuli/MullerLyer_-14.12857_0.07627.png"	n/a	"MullerLyer"	"arrowup"	"1373"	"TRUE"	"MullerLyer"	"-14.12857000"	"0.0762700000"	"1"	"20"
n/a	"html-keyboard-response"	"57"	"7899168"	"0.0-5.0-2.0-0.2"	"yhabs7"	"563"	"1034"	"chrome"	"111.0.0"	"FALSE"	"Windows 10"	"60.16"	"047"	n/a	n/a	n/a	n/a	n/a	n/a	"fixation"	n/a	n/a	n/a	n/a	"NULL"	n/a	"NULL"	"NULL"	"NULL"	"<p style=\"color: black; font-size: 80px; padding-left: 43%; padding-right: 4%; padding-top: 31%; padding-bottom: 40%\">+</p>"	"1012"	n/a	n/a	n/a	n/a	n/a	n/a	n/a	n/a	n/a
n/a	"image-keyboard-response"	"58"	"7899638"	"0.0-5.0-2.0-1.2"	"yhabs7"	"563"	"1034"	"chrome"	"111.0.0"	"FALSE"	"Windows 10"	"60.16"	"047"	n/a	n/a	n/a	n/a	n/a	n/a	"Trial"	n/a	n/a	n/a	"469"	"arrowup"	n/a	"NULL"	"NULL"	"NULL"	"stimuli/MullerLyer_14.12857_0.07627.png"	n/a	"MullerLyer"	"arrowup"	"1017"	"TRUE"	"MullerLyer"	"14.128570000"	"0.0762700000"	"1"	"21"
n/a	"html-keyboard-response"	"59"	"7901078"	"0.0-5.0-2.0-0.3"	"yhabs7"	"563"	"1034"	"chrome"	"111.0.0"	"FALSE"	"Windows 10"	"60.16"	"047"	n/a	n/a	n/a	n/a	n/a	n/a	"fixation"	n/a	n/a	n/a	n/a	"NULL"	n/a	"NULL"	"NULL"	"NULL"	"<p style=\"color: black; font-size: 80px; padding-left: 20%; padding-right: 29%; padding-top: 3%; padding-bottom: 8%\">+</p>"	"1436"	n/a	n/a	n/a	n/a	n/a	n/a	n/a	n/a	n/a
n/a	"image-keyboard-response"	"60"	"7901550"	"0.0-5.0-2.0-1.3"	"yhabs7"	"563"	"1034"	"chrome"	"111.0.0"	"FALSE"	"Windows 10"	"60.16"	"047"	n/a	n/a	n/a	n/a	n/a	n/a	"Trial"	n/a	n/a	n/a	"472"	"arrowup"	n/a	"NULL"	"NULL"	"NULL"	"stimuli/MullerLyer_-2.3000_0.35000.png"	n/a	"MullerLyer"	"arrowup"	"1440"	"TRUE"	"MullerLyer"	"-2.300000000"	"0.3500000000"	"1"	"22"
n/a	"html-keyboard-response"	"61"	"7902857"	"0.0-5.0-2.0-0.4"	"yhabs7"	"563"	"1034"	"chrome"	"111.0.0"	"FALSE"	"Windows 10"	"60.16"	"047"	n/a	n/a	n/a	n/a	n/a	n/a	"fixation"	n/a	n/a	n/a	n/a	"NULL"	n/a	"NULL"	"NULL"	"NULL"	"<p style=\"color: black; font-size: 80px; padding-left: 35%; padding-right: 44%; padding-top: 7%; padding-bottom: 4%\">+</p>"	"1291"	n/a	n/a	n/a	n/a	n/a	n/a	n/a	n/a	n/a
n/a	"image-keyboard-response"	"62"	"7903516"	"0.0-5.0-2.0-1.4"	"yhabs7"	"563"	"1034"	"chrome"	"111.0.0"	"FALSE"	"Windows 10"	"60.16"	"047"	n/a	n/a	n/a	n/a	n/a	n/a	"Trial"	n/a	n/a	n/a	"658"	"arrowdown"	n/a	"NULL"	"NULL"	"NULL"	"stimuli/MullerLyer_8.21429_0.07627.png"	n/a	"MullerLyer"	"arrowup"	"1307"	"FALSE"	"MullerLyer"	"8.2142900000"	"0.0762700000"	"1"	"23"
n/a	"html-keyboard-response"	"63"	"7904521"	"0.0-5.0-2.0-0.5"	"yhabs7"	"563"	"1034"	"chrome"	"111.0.0"	"FALSE"	"Windows 10"	"60.16"	"047"	n/a	n/a	n/a	n/a	n/a	n/a	"fixation"	n/a	n/a	n/a	n/a	"NULL"	n/a	"NULL"	"NULL"	"NULL"	"<p style=\"color: black; font-size: 80px; padding-left: 27%; padding-right: 46%; padding-top: 12%; padding-bottom: 17%\">+</p>"	"1002"	n/a	n/a	n/a	n/a	n/a	n/a	n/a	n/a	n/a
n/a	"image-keyboard-response"	"64"	"7905587"	"0.0-5.0-2.0-1.5"	"yhabs7"	"563"	"1034"	"chrome"	"111.0.0"	"FALSE"	"Windows 10"	"60.16"	"047"	n/a	n/a	n/a	n/a	n/a	n/a	"Trial"	n/a	n/a	n/a	"1066"	"arrowdown"	n/a	"NULL"	"NULL"	"NULL"	"stimuli/MullerLyer_14.12857_-0.3500.png"	n/a	"MullerLyer"	"arrowdown"	"1005"	"TRUE"	"MullerLyer"	"14.128570000"	"-0.350000000"	"1"	"24"
n/a	"html-keyboard-response"	"65"	"7907061"	"0.0-5.0-2.0-0.6"	"yhabs7"	"563"	"1034"	"chrome"	"111.0.0"	"FALSE"	"Windows 10"	"60.16"	"047"	n/a	n/a	n/a	n/a	n/a	n/a	"fixation"	n/a	n/a	n/a	n/a	"NULL"	n/a	"NULL"	"NULL"	"NULL"	"<p style=\"color: black; font-size: 80px; padding-left: 45%; padding-right: 12%; padding-top: 40%; padding-bottom: 26%\">+</p>"	"1460"	n/a	n/a	n/a	n/a	n/a	n/a	n/a	n/a	n/a
n/a	"image-keyboard-response"	"66"	"7907629"	"0.0-5.0-2.0-1.6"	"yhabs7"	"563"	"1034"	"chrome"	"111.0.0"	"FALSE"	"Windows 10"	"60.16"	"047"	n/a	n/a	n/a	n/a	n/a	n/a	"Trial"	n/a	n/a	n/a	"567"	"arrowup"	n/a	"NULL"	"NULL"	"NULL"	"stimuli/MullerLyer_-8.21429_0.14541.png"	n/a	"MullerLyer"	"arrowup"	"1474"	"TRUE"	"MullerLyer"	"-8.214290000"	"0.1454100000"	"1"	"25"
n/a	"html-keyboard-response"	"67"	"7908884"	"0.0-5.0-2.0-0.7"	"yhabs7"	"563"	"1034"	"chrome"	"111.0.0"	"FALSE"	"Windows 10"	"60.16"	"047"	n/a	n/a	n/a	n/a	n/a	n/a	"fixation"	n/a	n/a	n/a	n/a	"NULL"	n/a	"NULL"	"NULL"	"NULL"	"<p style=\"color: black; font-size: 80px; padding-left: 29%; padding-right: 6%; padding-top: 24%; padding-bottom: 22%\">+</p>"	"1253"	n/a	n/a	n/a	n/a	n/a	n/a	n/a	n/a	n/a
n/a	"image-keyboard-response"	"68"	"7909438"	"0.0-5.0-2.0-1.7"	"yhabs7"	"563"	"1034"	"chrome"	"111.0.0"	"FALSE"	"Windows 10"	"60.16"	"047"	n/a	n/a	n/a	n/a	n/a	n/a	"Trial"	n/a	n/a	n/a	"553"	"arrowdown"	n/a	"NULL"	"NULL"	"NULL"	"stimuli/MullerLyer_-14.12857_-0.3500.png"	n/a	"MullerLyer"	"arrowdown"	"1255"	"TRUE"	"MullerLyer"	"-14.12857000"	"-0.350000000"	"1"	"26"
n/a	"html-keyboard-response"	"69"	"7910682"	"0.0-5.0-2.0-0.8"	"yhabs7"	"563"	"1034"	"chrome"	"111.0.0"	"FALSE"	"Windows 10"	"60.16"	"047"	n/a	n/a	n/a	n/a	n/a	n/a	"fixation"	n/a	n/a	n/a	n/a	"NULL"	n/a	"NULL"	"NULL"	"NULL"	"<p style=\"color: black; font-size: 80px; padding-left: 11%; padding-right: 21%; padding-top: 2%; padding-bottom: 49%\">+</p>"	"1235"	n/a	n/a	n/a	n/a	n/a	n/a	n/a	n/a	n/a
n/a	"image-keyboard-response"	"70"	"7911522"	"0.0-5.0-2.0-1.8"	"yhabs7"	"563"	"1034"	"chrome"	"111.0.0"	"FALSE"	"Windows 10"	"60.16"	"047"	n/a	n/a	n/a	n/a	n/a	n/a	"Trial"	n/a	n/a	n/a	"839"	"arrowdown"	n/a	"NULL"	"NULL"	"NULL"	"stimuli/MullerLyer_-2.3000_-0.23665.png"	n/a	"MullerLyer"	"arrowdown"	"1244"	"TRUE"	"MullerLyer"	"-2.300000000"	"-0.236650000"	"1"	"27"
n/a	"html-keyboard-response"	"71"	"7912546"	"0.0-5.0-2.0-0.9"	"yhabs7"	"563"	"1034"	"chrome"	"111.0.0"	"FALSE"	"Windows 10"	"60.16"	"047"	n/a	n/a	n/a	n/a	n/a	n/a	"fixation"	n/a	n/a	n/a	n/a	"NULL"	n/a	"NULL"	"NULL"	"NULL"	"<p style=\"color: black; font-size: 80px; padding-left: 32%; padding-right: 12%; padding-top: 26%; padding-bottom: 17%\">+</p>"	"1019"	n/a	n/a	n/a	n/a	n/a	n/a	n/a	n/a	n/a
n/a	"image-keyboard-response"	"72"	"7913036"	"0.0-5.0-2.0-1.9"	"yhabs7"	"563"	"1034"	"chrome"	"111.0.0"	"FALSE"	"Windows 10"	"60.16"	"047"	n/a	n/a	n/a	n/a	n/a	n/a	"Trial"	n/a	n/a	n/a	"489"	"arrowup"	n/a	"NULL"	"NULL"	"NULL"	"stimuli/MullerLyer_-8.21429_0.07627.png"	n/a	"MullerLyer"	"arrowup"	"1024"	"TRUE"	"MullerLyer"	"-8.214290000"	"0.0762700000"	"1"	"28"
n/a	"html-keyboard-response"	"73"	"7914514"	"0.0-5.0-2.0-0.10"	"yhabs7"	"563"	"1034"	"chrome"	"111.0.0"	"FALSE"	"Windows 10"	"60.16"	"047"	n/a	n/a	n/a	n/a	n/a	n/a	"fixation"	n/a	n/a	n/a	n/a	"NULL"	n/a	"NULL"	"NULL"	"NULL"	"<p style=\"color: black; font-size: 80px; padding-left: 6%; padding-right: 37%; padding-top: 4%; padding-bottom: 11%\">+</p>"	"1477"	n/a	n/a	n/a	n/a	n/a	n/a	n/a	n/a	n/a
n/a	"image-keyboard-response"	"74"	"7915192"	"0.0-5.0-2.0-1.10"	"yhabs7"	"563"	"1034"	"chrome"	"111.0.0"	"FALSE"	"Windows 10"	"60.16"	"047"	n/a	n/a	n/a	n/a	n/a	n/a	"Trial"	n/a	n/a	n/a	"677"	"arrowdown"	n/a	"NULL"	"NULL"	"NULL"	"stimuli/MullerLyer_2.30000_-0.07627.png"	n/a	"MullerLyer"	"arrowdown"	"1478"	"TRUE"	"MullerLyer"	"2.3000000000"	"-0.076270000"	"1"	"29"
n/a	"html-keyboard-response"	"75"	"7916216"	"0.0-5.0-2.0-0.11"	"yhabs7"	"563"	"1034"	"chrome"	"111.0.0"	"FALSE"	"Windows 10"	"60.16"	"047"	n/a	n/a	n/a	n/a	n/a	n/a	"fixation"	n/a	n/a	n/a	n/a	"NULL"	n/a	"NULL"	"NULL"	"NULL"	"<p style=\"color: black; font-size: 80px; padding-left: 42%; padding-right: 7%; padding-top: 7%; padding-bottom: 5%\">+</p>"	"1010"	n/a	n/a	n/a	n/a	n/a	n/a	n/a	n/a	n/a
n/a	"image-keyboard-response"	"76"	"7916831"	"0.0-5.0-2.0-1.11"	"yhabs7"	"563"	"1034"	"chrome"	"111.0.0"	"FALSE"	"Windows 10"	"60.16"	"047"	n/a	n/a	n/a	n/a	n/a	n/a	"Trial"	n/a	n/a	n/a	"615"	"arrowdown"	n/a	"NULL"	"NULL"	"NULL"	"stimuli/MullerLyer_-14.12857_-0.07627.png"	n/a	"MullerLyer"	"arrowdown"	"1024"	"TRUE"	"MullerLyer"	"-14.12857000"	"-0.076270000"	"1"	"30"
n/a	"html-keyboard-response"	"77"	"7918128"	"0.0-5.0-2.0-0.12"	"yhabs7"	"563"	"1034"	"chrome"	"111.0.0"	"FALSE"	"Windows 10"	"60.16"	"047"	n/a	n/a	n/a	n/a	n/a	n/a	"fixation"	n/a	n/a	n/a	n/a	"NULL"	n/a	"NULL"	"NULL"	"NULL"	"<p style=\"color: black; font-size: 80px; padding-left: 23%; padding-right: 36%; padding-top: 23%; padding-bottom: 39%\">+</p>"	"1289"	n/a	n/a	n/a	n/a	n/a	n/a	n/a	n/a	n/a
n/a	"image-keyboard-response"	"78"	"7918739"	"0.0-5.0-2.0-1.12"	"yhabs7"	"563"	"1034"	"chrome"	"111.0.0"	"FALSE"	"Windows 10"	"60.16"	"047"	n/a	n/a	n/a	n/a	n/a	n/a	"Trial"	n/a	n/a	n/a	"611"	"arrowup"	n/a	"NULL"	"NULL"	"NULL"	"stimuli/MullerLyer_14.12857_0.23665.png"	n/a	"MullerLyer"	"arrowup"	"1297"	"TRUE"	"MullerLyer"	"14.128570000"	"0.2366500000"	"1"	"31"
n/a	"html-keyboard-response"	"79"	"7919825"	"0.0-5.0-2.0-0.13"	"yhabs7"	"563"	"1034"	"chrome"	"111.0.0"	"FALSE"	"Windows 10"	"60.16"	"047"	n/a	n/a	n/a	n/a	n/a	n/a	"fixation"	n/a	n/a	n/a	n/a	"NULL"	n/a	"NULL"	"NULL"	"NULL"	"<p style=\"color: black; font-size: 80px; padding-left: 10%; padding-right: 32%; padding-top: 42%; padding-bottom: 32%\">+</p>"	"1074"	n/a	n/a	n/a	n/a	n/a	n/a	n/a	n/a	n/a
n/a	"image-keyboard-response"	"80"	"7921222"	"0.0-5.0-2.0-1.13"	"yhabs7"	"563"	"1034"	"chrome"	"111.0.0"	"FALSE"	"Windows 10"	"60.16"	"047"	n/a	n/a	n/a	n/a	n/a	n/a	"Trial"	n/a	n/a	n/a	"1397"	"arrowup"	n/a	"NULL"	"NULL"	"NULL"	"stimuli/MullerLyer_14.12857_-0.23665.png"	n/a	"MullerLyer"	"arrowdown"	"1086"	"FALSE"	"MullerLyer"	"14.128570000"	"-0.236650000"	"1"	"32"
n/a	"html-keyboard-response"	"81"	"7922575"	"0.0-5.0-2.0-0.14"	"yhabs7"	"563"	"1034"	"chrome"	"111.0.0"	"FALSE"	"Windows 10"	"60.16"	"047"	n/a	n/a	n/a	n/a	n/a	n/a	"fixation"	n/a	n/a	n/a	n/a	"NULL"	n/a	"NULL"	"NULL"	"NULL"	"<p style=\"color: black; font-size: 80px; padding-left: 45%; padding-right: 12%; padding-top: 31%; padding-bottom: 19%\">+</p>"	"1345"	n/a	n/a	n/a	n/a	n/a	n/a	n/a	n/a	n/a
n/a	"image-keyboard-response"	"82"	"7923276"	"0.0-5.0-2.0-1.14"	"yhabs7"	"563"	"1034"	"chrome"	"111.0.0"	"FALSE"	"Windows 10"	"60.16"	"047"	n/a	n/a	n/a	n/a	n/a	n/a	"Trial"	n/a	n/a	n/a	"701"	"arrowup"	n/a	"NULL"	"NULL"	"NULL"	"stimuli/MullerLyer_14.12857_-0.14541.png"	n/a	"MullerLyer"	"arrowdown"	"1353"	"FALSE"	"MullerLyer"	"14.128570000"	"-0.145410000"	"1"	"33"
n/a	"html-keyboard-response"	"83"	"7924617"	"0.0-5.0-2.0-0.15"	"yhabs7"	"563"	"1034"	"chrome"	"111.0.0"	"FALSE"	"Windows 10"	"60.16"	"047"	n/a	n/a	n/a	n/a	n/a	n/a	"fixation"	n/a	n/a	n/a	n/a	"NULL"	n/a	"NULL"	"NULL"	"NULL"	"<p style=\"color: black; font-size: 80px; padding-left: 34%; padding-right: 45%; padding-top: 29%; padding-bottom: 20%\">+</p>"	"1326"	n/a	n/a	n/a	n/a	n/a	n/a	n/a	n/a	n/a
n/a	"image-keyboard-response"	"84"	"7925391"	"0.0-5.0-2.0-1.15"	"yhabs7"	"563"	"1034"	"chrome"	"111.0.0"	"FALSE"	"Windows 10"	"60.16"	"047"	n/a	n/a	n/a	n/a	n/a	n/a	"Trial"	n/a	n/a	n/a	"773"	"arrowdown"	n/a	"NULL"	"NULL"	"NULL"	"stimuli/MullerLyer_2.30000_-0.14541.png"	n/a	"MullerLyer"	"arrowdown"	"1341"	"TRUE"	"MullerLyer"	"2.3000000000"	"-0.145410000"	"1"	"34"
n/a	"html-keyboard-response"	"85"	"7926679"	"0.0-5.0-2.0-0.16"	"yhabs7"	"563"	"1034"	"chrome"	"111.0.0"	"FALSE"	"Windows 10"	"60.16"	"047"	n/a	n/a	n/a	n/a	n/a	n/a	"fixation"	n/a	n/a	n/a	n/a	"NULL"	n/a	"NULL"	"NULL"	"NULL"	"<p style=\"color: black; font-size: 80px; padding-left: 23%; padding-right: 43%; padding-top: 3%; padding-bottom: 10%\">+</p>"	"1282"	n/a	n/a	n/a	n/a	n/a	n/a	n/a	n/a	n/a
n/a	"image-keyboard-response"	"86"	"7927274"	"0.0-5.0-2.0-1.16"	"yhabs7"	"563"	"1034"	"chrome"	"111.0.0"	"FALSE"	"Windows 10"	"60.16"	"047"	n/a	n/a	n/a	n/a	n/a	n/a	"Trial"	n/a	n/a	n/a	"594"	"arrowdown"	n/a	"NULL"	"NULL"	"NULL"	"stimuli/MullerLyer_2.30000_-0.23665.png"	n/a	"MullerLyer"	"arrowdown"	"1288"	"TRUE"	"MullerLyer"	"2.3000000000"	"-0.236650000"	"1"	"35"
n/a	"html-keyboard-response"	"87"	"7928528"	"0.0-5.0-2.0-0.17"	"yhabs7"	"563"	"1034"	"chrome"	"111.0.0"	"FALSE"	"Windows 10"	"60.16"	"047"	n/a	n/a	n/a	n/a	n/a	n/a	"fixation"	n/a	n/a	n/a	n/a	"NULL"	n/a	"NULL"	"NULL"	"NULL"	"<p style=\"color: black; font-size: 80px; padding-left: 24%; padding-right: 18%; padding-top: 44%; padding-bottom: 28%\">+</p>"	"1239"	n/a	n/a	n/a	n/a	n/a	n/a	n/a	n/a	n/a
n/a	"image-keyboard-response"	"88"	"7929091"	"0.0-5.0-2.0-1.17"	"yhabs7"	"563"	"1034"	"chrome"	"111.0.0"	"FALSE"	"Windows 10"	"60.16"	"047"	n/a	n/a	n/a	n/a	n/a	n/a	"Trial"	n/a	n/a	n/a	"563"	"arrowup"	n/a	"NULL"	"NULL"	"NULL"	"stimuli/MullerLyer_14.12857_-0.07627.png"	n/a	"MullerLyer"	"arrowdown"	"1254"	"FALSE"	"MullerLyer"	"14.128570000"	"-0.076270000"	"1"	"36"
n/a	"html-keyboard-response"	"89"	"7930232"	"0.0-5.0-2.0-0.18"	"yhabs7"	"563"	"1034"	"chrome"	"111.0.0"	"FALSE"	"Windows 10"	"60.16"	"047"	n/a	n/a	n/a	n/a	n/a	n/a	"fixation"	n/a	n/a	n/a	n/a	"NULL"	n/a	"NULL"	"NULL"	"NULL"	"<p style=\"color: black; font-size: 80px; padding-left: 7%; padding-right: 46%; padding-top: 27%; padding-bottom: 37%\">+</p>"	"1135"	n/a	n/a	n/a	n/a	n/a	n/a	n/a	n/a	n/a
n/a	"image-keyboard-response"	"90"	"7930717"	"0.0-5.0-2.0-1.18"	"yhabs7"	"563"	"1034"	"chrome"	"111.0.0"	"FALSE"	"Windows 10"	"60.16"	"047"	n/a	n/a	n/a	n/a	n/a	n/a	"Trial"	n/a	n/a	n/a	"484"	"arrowup"	n/a	"NULL"	"NULL"	"NULL"	"stimuli/MullerLyer_-14.12857_0.14541.png"	n/a	"MullerLyer"	"arrowup"	"1141"	"TRUE"	"MullerLyer"	"-14.12857000"	"0.1454100000"	"1"	"37"
n/a	"html-keyboard-response"	"91"	"7931891"	"0.0-5.0-2.0-0.19"	"yhabs7"	"563"	"1034"	"chrome"	"111.0.0"	"FALSE"	"Windows 10"	"60.16"	"047"	n/a	n/a	n/a	n/a	n/a	n/a	"fixation"	n/a	n/a	n/a	n/a	"NULL"	n/a	"NULL"	"NULL"	"NULL"	"<p style=\"color: black; font-size: 80px; padding-left: 34%; padding-right: 12%; padding-top: 17%; padding-bottom: 30%\">+</p>"	"1160"	n/a	n/a	n/a	n/a	n/a	n/a	n/a	n/a	n/a
n/a	"image-keyboard-response"	"92"	"7932321"	"0.0-5.0-2.0-1.19"	"yhabs7"	"563"	"1034"	"chrome"	"111.0.0"	"FALSE"	"Windows 10"	"60.16"	"047"	n/a	n/a	n/a	n/a	n/a	n/a	"Trial"	n/a	n/a	n/a	"430"	"arrowup"	n/a	"NULL"	"NULL"	"NULL"	"stimuli/MullerLyer_-2.3000_0.23665.png"	n/a	"MullerLyer"	"arrowup"	"1174"	"TRUE"	"MullerLyer"	"-2.300000000"	"0.2366500000"	"1"	"38"
n/a	"html-keyboard-response"	"93"	"7933333"	"0.0-5.0-2.0-0.20"	"yhabs7"	"563"	"1034"	"chrome"	"111.0.0"	"FALSE"	"Windows 10"	"60.16"	"047"	n/a	n/a	n/a	n/a	n/a	n/a	"fixation"	n/a	n/a	n/a	n/a	"NULL"	n/a	"NULL"	"NULL"	"NULL"	"<p style=\"color: black; font-size: 80px; padding-left: 31%; padding-right: 42%; padding-top: 25%; padding-bottom: 29%\">+</p>"	"1007"	n/a	n/a	n/a	n/a	n/a	n/a	n/a	n/a	n/a
n/a	"image-keyboard-response"	"94"	"7933772"	"0.0-5.0-2.0-1.20"	"yhabs7"	"563"	"1034"	"chrome"	"111.0.0"	"FALSE"	"Windows 10"	"60.16"	"047"	n/a	n/a	n/a	n/a	n/a	n/a	"Trial"	n/a	n/a	n/a	"438"	"arrowup"	n/a	"NULL"	"NULL"	"NULL"	"stimuli/MullerLyer_2.30000_0.23665.png"	n/a	"MullerLyer"	"arrowup"	"1012"	"TRUE"	"MullerLyer"	"2.3000000000"	"0.2366500000"	"1"	"39"
n/a	"html-keyboard-response"	"95"	"7935259"	"0.0-5.0-2.0-0.21"	"yhabs7"	"563"	"1034"	"chrome"	"111.0.0"	"FALSE"	"Windows 10"	"60.16"	"047"	n/a	n/a	n/a	n/a	n/a	n/a	"fixation"	n/a	n/a	n/a	n/a	"NULL"	n/a	"NULL"	"NULL"	"NULL"	"<p style=\"color: black; font-size: 80px; padding-left: 35%; padding-right: 33%; padding-top: 41%; padding-bottom: 4%\">+</p>"	"1485"	n/a	n/a	n/a	n/a	n/a	n/a	n/a	n/a	n/a
n/a	"image-keyboard-response"	"96"	"7935737"	"0.0-5.0-2.0-1.21"	"yhabs7"	"563"	"1034"	"chrome"	"111.0.0"	"FALSE"	"Windows 10"	"60.16"	"047"	n/a	n/a	n/a	n/a	n/a	n/a	"Trial"	n/a	n/a	n/a	"476"	"arrowup"	n/a	"NULL"	"NULL"	"NULL"	"stimuli/MullerLyer_-14.12857_0.23665.png"	n/a	"MullerLyer"	"arrowup"	"1487"	"TRUE"	"MullerLyer"	"-14.12857000"	"0.2366500000"	"1"	"40"
n/a	"html-keyboard-response"	"97"	"7936841"	"0.0-5.0-2.0-0.22"	"yhabs7"	"563"	"1034"	"chrome"	"111.0.0"	"FALSE"	"Windows 10"	"60.16"	"047"	n/a	n/a	n/a	n/a	n/a	n/a	"fixation"	n/a	n/a	n/a	n/a	"NULL"	n/a	"NULL"	"NULL"	"NULL"	"<p style=\"color: black; font-size: 80px; padding-left: 18%; padding-right: 38%; padding-top: 28%; padding-bottom: 43%\">+</p>"	"1099"	n/a	n/a	n/a	n/a	n/a	n/a	n/a	n/a	n/a
n/a	"image-keyboard-response"	"98"	"7937438"	"0.0-5.0-2.0-1.22"	"yhabs7"	"563"	"1034"	"chrome"	"111.0.0"	"FALSE"	"Windows 10"	"60.16"	"047"	n/a	n/a	n/a	n/a	n/a	n/a	"Trial"	n/a	n/a	n/a	"596"	"arrowdown"	n/a	"NULL"	"NULL"	"NULL"	"stimuli/MullerLyer_-14.12857_-0.14541.png"	n/a	"MullerLyer"	"arrowdown"	"1104"	"TRUE"	"MullerLyer"	"-14.12857000"	"-0.145410000"	"1"	"41"
n/a	"html-keyboard-response"	"99"	"7938714"	"0.0-5.0-2.0-0.23"	"yhabs7"	"563"	"1034"	"chrome"	"111.0.0"	"FALSE"	"Windows 10"	"60.16"	"047"	n/a	n/a	n/a	n/a	n/a	n/a	"fixation"	n/a	n/a	n/a	n/a	"NULL"	n/a	"NULL"	"NULL"	"NULL"	"<p style=\"color: black; font-size: 80px; padding-left: 49%; padding-right: 24%; padding-top: 29%; padding-bottom: 1%\">+</p>"	"1263"	n/a	n/a	n/a	n/a	n/a	n/a	n/a	n/a	n/a
n/a	"image-keyboard-response"	"100"	"7939165"	"0.0-5.0-2.0-1.23"	"yhabs7"	"563"	"1034"	"chrome"	"111.0.0"	"FALSE"	"Windows 10"	"60.16"	"047"	n/a	n/a	n/a	n/a	n/a	n/a	"Trial"	n/a	n/a	n/a	"450"	"arrowdown"	n/a	"NULL"	"NULL"	"NULL"	"stimuli/MullerLyer_-20.04286_-0.23665.png"	n/a	"MullerLyer"	"arrowdown"	"1276"	"TRUE"	"MullerLyer"	"-20.04286000"	"-0.236650000"	"1"	"42"
n/a	"html-keyboard-response"	"101"	"7940262"	"0.0-5.0-2.0-0.24"	"yhabs7"	"563"	"1034"	"chrome"	"111.0.0"	"FALSE"	"Windows 10"	"60.16"	"047"	n/a	n/a	n/a	n/a	n/a	n/a	"fixation"	n/a	n/a	n/a	n/a	"NULL"	n/a	"NULL"	"NULL"	"NULL"	"<p style=\"color: black; font-size: 80px; padding-left: 21%; padding-right: 44%; padding-top: 0%; padding-bottom: 4%\">+</p>"	"1086"	n/a	n/a	n/a	n/a	n/a	n/a	n/a	n/a	n/a
n/a	"image-keyboard-response"	"102"	"7940817"	"0.0-5.0-2.0-1.24"	"yhabs7"	"563"	"1034"	"chrome"	"111.0.0"	"FALSE"	"Windows 10"	"60.16"	"047"	n/a	n/a	n/a	n/a	n/a	n/a	"Trial"	n/a	n/a	n/a	"554"	"arrowup"	n/a	"NULL"	"NULL"	"NULL"	"stimuli/MullerLyer_20.04286_-0.07627.png"	n/a	"MullerLyer"	"arrowdown"	"1097"	"FALSE"	"MullerLyer"	"20.042860000"	"-0.076270000"	"1"	"43"
n/a	"html-keyboard-response"	"103"	"7942137"	"0.0-5.0-2.0-0.25"	"yhabs7"	"563"	"1034"	"chrome"	"111.0.0"	"FALSE"	"Windows 10"	"60.16"	"047"	n/a	n/a	n/a	n/a	n/a	n/a	"fixation"	n/a	n/a	n/a	n/a	"NULL"	n/a	"NULL"	"NULL"	"NULL"	"<p style=\"color: black; font-size: 80px; padding-left: 31%; padding-right: 20%; padding-top: 20%; padding-bottom: 30%\">+</p>"	"1302"	n/a	n/a	n/a	n/a	n/a	n/a	n/a	n/a	n/a
n/a	"image-keyboard-response"	"104"	"7942704"	"0.0-5.0-2.0-1.25"	"yhabs7"	"563"	"1034"	"chrome"	"111.0.0"	"FALSE"	"Windows 10"	"60.16"	"047"	n/a	n/a	n/a	n/a	n/a	n/a	"Trial"	n/a	n/a	n/a	"566"	"arrowdown"	n/a	"NULL"	"NULL"	"NULL"	"stimuli/MullerLyer_-8.21429_-0.23665.png"	n/a	"MullerLyer"	"arrowdown"	"1320"	"TRUE"	"MullerLyer"	"-8.214290000"	"-0.236650000"	"1"	"44"
n/a	"html-keyboard-response"	"105"	"7944027"	"0.0-5.0-2.0-0.26"	"yhabs7"	"563"	"1034"	"chrome"	"111.0.0"	"FALSE"	"Windows 10"	"60.16"	"047"	n/a	n/a	n/a	n/a	n/a	n/a	"fixation"	n/a	n/a	n/a	n/a	"NULL"	n/a	"NULL"	"NULL"	"NULL"	"<p style=\"color: black; font-size: 80px; padding-left: 13%; padding-right: 39%; padding-top: 29%; padding-bottom: 13%\">+</p>"	"1311"	n/a	n/a	n/a	n/a	n/a	n/a	n/a	n/a	n/a
n/a	"image-keyboard-response"	"106"	"7944549"	"0.0-5.0-2.0-1.26"	"yhabs7"	"563"	"1034"	"chrome"	"111.0.0"	"FALSE"	"Windows 10"	"60.16"	"047"	n/a	n/a	n/a	n/a	n/a	n/a	"Trial"	n/a	n/a	n/a	"521"	"arrowup"	n/a	"NULL"	"NULL"	"NULL"	"stimuli/MullerLyer_-2.3000_-0.07627.png"	n/a	"MullerLyer"	"arrowdown"	"1323"	"FALSE"	"MullerLyer"	"-2.300000000"	"-0.076270000"	"1"	"45"
n/a	"html-keyboard-response"	"107"	"7945811"	"0.0-5.0-2.0-0.27"	"yhabs7"	"563"	"1034"	"chrome"	"111.0.0"	"FALSE"	"Windows 10"	"60.16"	"047"	n/a	n/a	n/a	n/a	n/a	n/a	"fixation"	n/a	n/a	n/a	n/a	"NULL"	n/a	"NULL"	"NULL"	"NULL"	"<p style=\"color: black; font-size: 80px; padding-left: 40%; padding-right: 32%; padding-top: 3%; padding-bottom: 33%\">+</p>"	"1247"	n/a	n/a	n/a	n/a	n/a	n/a	n/a	n/a	n/a
n/a	"image-keyboard-response"	"108"	"7946279"	"0.0-5.0-2.0-1.27"	"yhabs7"	"563"	"1034"	"chrome"	"111.0.0"	"FALSE"	"Windows 10"	"60.16"	"047"	n/a	n/a	n/a	n/a	n/a	n/a	"Trial"	n/a	n/a	n/a	"468"	"arrowup"	n/a	"NULL"	"NULL"	"NULL"	"stimuli/MullerLyer_20.04286_-0.23665.png"	n/a	"MullerLyer"	"arrowdown"	"1262"	"FALSE"	"MullerLyer"	"20.042860000"	"-0.236650000"	"1"	"46"
n/a	"html-keyboard-response"	"109"	"7947387"	"0.0-5.0-2.0-0.28"	"yhabs7"	"563"	"1034"	"chrome"	"111.0.0"	"FALSE"	"Windows 10"	"60.16"	"047"	n/a	n/a	n/a	n/a	n/a	n/a	"fixation"	n/a	n/a	n/a	n/a	"NULL"	n/a	"NULL"	"NULL"	"NULL"	"<p style=\"color: black; font-size: 80px; padding-left: 27%; padding-right: 47%; padding-top: 29%; padding-bottom: 46%\">+</p>"	"1097"	n/a	n/a	n/a	n/a	n/a	n/a	n/a	n/a	n/a
n/a	"image-keyboard-response"	"110"	"7948018"	"0.0-5.0-2.0-1.28"	"yhabs7"	"563"	"1034"	"chrome"	"111.0.0"	"FALSE"	"Windows 10"	"60.16"	"047"	n/a	n/a	n/a	n/a	n/a	n/a	"Trial"	n/a	n/a	n/a	"630"	"arrowup"	n/a	"NULL"	"NULL"	"NULL"	"stimuli/MullerLyer_-2.3000_0.07627.png"	n/a	"MullerLyer"	"arrowup"	"1108"	"TRUE"	"MullerLyer"	"-2.300000000"	"0.0762700000"	"1"	"47"
n/a	"html-keyboard-response"	"111"	"7949513"	"0.0-5.0-2.0-0.29"	"yhabs7"	"563"	"1034"	"chrome"	"111.0.0"	"FALSE"	"Windows 10"	"60.16"	"047"	n/a	n/a	n/a	n/a	n/a	n/a	"fixation"	n/a	n/a	n/a	n/a	"NULL"	n/a	"NULL"	"NULL"	"NULL"	"<p style=\"color: black; font-size: 80px; padding-left: 9%; padding-right: 33%; padding-top: 9%; padding-bottom: 38%\">+</p>"	"1489"	n/a	n/a	n/a	n/a	n/a	n/a	n/a	n/a	n/a
n/a	"image-keyboard-response"	"112"	"7949934"	"0.0-5.0-2.0-1.29"	"yhabs7"	"563"	"1034"	"chrome"	"111.0.0"	"FALSE"	"Windows 10"	"60.16"	"047"	n/a	n/a	n/a	n/a	n/a	n/a	"Trial"	n/a	n/a	n/a	"420"	"arrowup"	n/a	"NULL"	"NULL"	"NULL"	"stimuli/MullerLyer_-20.04286_0.14541.png"	n/a	"MullerLyer"	"arrowup"	"1495"	"TRUE"	"MullerLyer"	"-20.04286000"	"0.1454100000"	"1"	"48"
n/a	"html-keyboard-response"	"113"	"7951419"	"0.0-5.0-2.0-0.30"	"yhabs7"	"563"	"1034"	"chrome"	"111.0.0"	"FALSE"	"Windows 10"	"60.16"	"047"	n/a	n/a	n/a	n/a	n/a	n/a	"fixation"	n/a	n/a	n/a	n/a	"NULL"	n/a	"NULL"	"NULL"	"NULL"	"<p style=\"color: black; font-size: 80px; padding-left: 12%; padding-right: 16%; padding-top: 1%; padding-bottom: 5%\">+</p>"	"1470"	n/a	n/a	n/a	n/a	n/a	n/a	n/a	n/a	n/a
n/a	"image-keyboard-response"	"114"	"7951901"	"0.0-5.0-2.0-1.30"	"yhabs7"	"563"	"1034"	"chrome"	"111.0.0"	"FALSE"	"Windows 10"	"60.16"	"047"	n/a	n/a	n/a	n/a	n/a	n/a	"Trial"	n/a	n/a	n/a	"481"	"arrowdown"	n/a	"NULL"	"NULL"	"NULL"	"stimuli/MullerLyer_-8.21429_-0.07627.png"	n/a	"MullerLyer"	"arrowdown"	"1485"	"TRUE"	"MullerLyer"	"-8.214290000"	"-0.076270000"	"1"	"49"
n/a	"html-keyboard-response"	"115"	"7953090"	"0.0-5.0-2.0-0.31"	"yhabs7"	"563"	"1034"	"chrome"	"111.0.0"	"FALSE"	"Windows 10"	"60.16"	"047"	n/a	n/a	n/a	n/a	n/a	n/a	"fixation"	n/a	n/a	n/a	n/a	"NULL"	n/a	"NULL"	"NULL"	"NULL"	"<p style=\"color: black; font-size: 80px; padding-left: 35%; padding-right: 34%; padding-top: 34%; padding-bottom: 15%\">+</p>"	"1176"	n/a	n/a	n/a	n/a	n/a	n/a	n/a	n/a	n/a
n/a	"image-keyboard-response"	"116"	"7953564"	"0.0-5.0-2.0-1.31"	"yhabs7"	"563"	"1034"	"chrome"	"111.0.0"	"FALSE"	"Windows 10"	"60.16"	"047"	n/a	n/a	n/a	n/a	n/a	n/a	"Trial"	n/a	n/a	n/a	"474"	"arrowup"	n/a	"NULL"	"NULL"	"NULL"	"stimuli/MullerLyer_20.04286_0.35000.png"	n/a	"MullerLyer"	"arrowup"	"1189"	"TRUE"	"MullerLyer"	"20.042860000"	"0.3500000000"	"1"	"50"
n/a	"html-keyboard-response"	"117"	"7954577"	"0.0-5.0-2.0-0.32"	"yhabs7"	"563"	"1034"	"chrome"	"111.0.0"	"FALSE"	"Windows 10"	"60.16"	"047"	n/a	n/a	n/a	n/a	n/a	n/a	"fixation"	n/a	n/a	n/a	n/a	"NULL"	n/a	"NULL"	"NULL"	"NULL"	"<p style=\"color: black; font-size: 80px; padding-left: 31%; padding-right: 47%; padding-top: 17%; padding-bottom: 44%\">+</p>"	"1011"	n/a	n/a	n/a	n/a	n/a	n/a	n/a	n/a	n/a
n/a	"image-keyboard-response"	"118"	"7955081"	"0.0-5.0-2.0-1.32"	"yhabs7"	"563"	"1034"	"chrome"	"111.0.0"	"FALSE"	"Windows 10"	"60.16"	"047"	n/a	n/a	n/a	n/a	n/a	n/a	"Trial"	n/a	n/a	n/a	"503"	"arrowup"	n/a	"NULL"	"NULL"	"NULL"	"stimuli/MullerLyer_14.12857_0.35000.png"	n/a	"MullerLyer"	"arrowup"	"1013"	"TRUE"	"MullerLyer"	"14.128570000"	"0.3500000000"	"1"	"51"
n/a	"html-keyboard-response"	"119"	"7956451"	"0.0-5.0-2.0-0.33"	"yhabs7"	"563"	"1034"	"chrome"	"111.0.0"	"FALSE"	"Windows 10"	"60.16"	"047"	n/a	n/a	n/a	n/a	n/a	n/a	"fixation"	n/a	n/a	n/a	n/a	"NULL"	n/a	"NULL"	"NULL"	"NULL"	"<p style=\"color: black; font-size: 80px; padding-left: 2%; padding-right: 21%; padding-top: 48%; padding-bottom: 13%\">+</p>"	"1365"	n/a	n/a	n/a	n/a	n/a	n/a	n/a	n/a	n/a
n/a	"image-keyboard-response"	"120"	"7956972"	"0.0-5.0-2.0-1.33"	"yhabs7"	"563"	"1034"	"chrome"	"111.0.0"	"FALSE"	"Windows 10"	"60.16"	"047"	n/a	n/a	n/a	n/a	n/a	n/a	"Trial"	n/a	n/a	n/a	"520"	"arrowdown"	n/a	"NULL"	"NULL"	"NULL"	"stimuli/MullerLyer_-2.3000_-0.3500.png"	n/a	"MullerLyer"	"arrowdown"	"1370"	"TRUE"	"MullerLyer"	"-2.300000000"	"-0.350000000"	"1"	"52"
n/a	"html-keyboard-response"	"121"	"7958391"	"0.0-5.0-2.0-0.34"	"yhabs7"	"563"	"1034"	"chrome"	"111.0.0"	"FALSE"	"Windows 10"	"60.16"	"047"	n/a	n/a	n/a	n/a	n/a	n/a	"fixation"	n/a	n/a	n/a	n/a	"NULL"	n/a	"NULL"	"NULL"	"NULL"	"<p style=\"color: black; font-size: 80px; padding-left: 14%; padding-right: 17%; padding-top: 9%; padding-bottom: 28%\">+</p>"	"1411"	n/a	n/a	n/a	n/a	n/a	n/a	n/a	n/a	n/a
n/a	"image-keyboard-response"	"122"	"7958807"	"0.0-5.0-2.0-1.34"	"yhabs7"	"563"	"1034"	"chrome"	"111.0.0"	"FALSE"	"Windows 10"	"60.16"	"047"	n/a	n/a	n/a	n/a	n/a	n/a	"Trial"	n/a	n/a	n/a	"416"	"arrowup"	n/a	"NULL"	"NULL"	"NULL"	"stimuli/MullerLyer_-2.3000_0.14541.png"	n/a	"MullerLyer"	"arrowup"	"1419"	"TRUE"	"MullerLyer"	"-2.300000000"	"0.1454100000"	"1"	"53"
n/a	"html-keyboard-response"	"123"	"7960177"	"0.0-5.0-2.0-0.35"	"yhabs7"	"563"	"1034"	"chrome"	"111.0.0"	"FALSE"	"Windows 10"	"60.16"	"047"	n/a	n/a	n/a	n/a	n/a	n/a	"fixation"	n/a	n/a	n/a	n/a	"NULL"	n/a	"NULL"	"NULL"	"NULL"	"<p style=\"color: black; font-size: 80px; padding-left: 45%; padding-right: 48%; padding-top: 17%; padding-bottom: 17%\">+</p>"	"1356"	n/a	n/a	n/a	n/a	n/a	n/a	n/a	n/a	n/a
n/a	"image-keyboard-response"	"124"	"7960888"	"0.0-5.0-2.0-1.35"	"yhabs7"	"563"	"1034"	"chrome"	"111.0.0"	"FALSE"	"Windows 10"	"60.16"	"047"	n/a	n/a	n/a	n/a	n/a	n/a	"Trial"	n/a	n/a	n/a	"710"	"arrowup"	n/a	"NULL"	"NULL"	"NULL"	"stimuli/MullerLyer_14.12857_0.14541.png"	n/a	"MullerLyer"	"arrowup"	"1370"	"TRUE"	"MullerLyer"	"14.128570000"	"0.1454100000"	"1"	"54"
n/a	"html-keyboard-response"	"125"	"7962281"	"0.0-5.0-2.0-0.36"	"yhabs7"	"563"	"1034"	"chrome"	"111.0.0"	"FALSE"	"Windows 10"	"60.16"	"047"	n/a	n/a	n/a	n/a	n/a	n/a	"fixation"	n/a	n/a	n/a	n/a	"NULL"	n/a	"NULL"	"NULL"	"NULL"	"<p style=\"color: black; font-size: 80px; padding-left: 2%; padding-right: 32%; padding-top: 10%; padding-bottom: 20%\">+</p>"	"1383"	n/a	n/a	n/a	n/a	n/a	n/a	n/a	n/a	n/a
n/a	"image-keyboard-response"	"126"	"7962828"	"0.0-5.0-2.0-1.36"	"yhabs7"	"563"	"1034"	"chrome"	"111.0.0"	"FALSE"	"Windows 10"	"60.16"	"047"	n/a	n/a	n/a	n/a	n/a	n/a	"Trial"	n/a	n/a	n/a	"547"	"arrowdown"	n/a	"NULL"	"NULL"	"NULL"	"stimuli/MullerLyer_2.30000_0.14541.png"	n/a	"MullerLyer"	"arrowup"	"1393"	"FALSE"	"MullerLyer"	"2.3000000000"	"0.1454100000"	"1"	"55"
n/a	"html-keyboard-response"	"127"	"7964075"	"0.0-5.0-2.0-0.37"	"yhabs7"	"563"	"1034"	"chrome"	"111.0.0"	"FALSE"	"Windows 10"	"60.16"	"047"	n/a	n/a	n/a	n/a	n/a	n/a	"fixation"	n/a	n/a	n/a	n/a	"NULL"	n/a	"NULL"	"NULL"	"NULL"	"<p style=\"color: black; font-size: 80px; padding-left: 22%; padding-right: 27%; padding-top: 36%; padding-bottom: 6%\">+</p>"	"1233"	n/a	n/a	n/a	n/a	n/a	n/a	n/a	n/a	n/a
n/a	"image-keyboard-response"	"128"	"7964530"	"0.0-5.0-2.0-1.37"	"yhabs7"	"563"	"1034"	"chrome"	"111.0.0"	"FALSE"	"Windows 10"	"60.16"	"047"	n/a	n/a	n/a	n/a	n/a	n/a	"Trial"	n/a	n/a	n/a	"454"	"arrowup"	n/a	"NULL"	"NULL"	"NULL"	"stimuli/MullerLyer_2.30000_0.07627.png"	n/a	"MullerLyer"	"arrowup"	"1247"	"TRUE"	"MullerLyer"	"2.3000000000"	"0.0762700000"	"1"	"56"
n/a	"html-keyboard-response"	"129"	"7965670"	"0.0-5.0-2.0-0.38"	"yhabs7"	"563"	"1034"	"chrome"	"111.0.0"	"FALSE"	"Windows 10"	"60.16"	"047"	n/a	n/a	n/a	n/a	n/a	n/a	"fixation"	n/a	n/a	n/a	n/a	"NULL"	n/a	"NULL"	"NULL"	"NULL"	"<p style=\"color: black; font-size: 80px; padding-left: 47%; padding-right: 14%; padding-top: 44%; padding-bottom: 44%\">+</p>"	"1130"	n/a	n/a	n/a	n/a	n/a	n/a	n/a	n/a	n/a
n/a	"image-keyboard-response"	"130"	"7966318"	"0.0-5.0-2.0-1.38"	"yhabs7"	"563"	"1034"	"chrome"	"111.0.0"	"FALSE"	"Windows 10"	"60.16"	"047"	n/a	n/a	n/a	n/a	n/a	n/a	"Trial"	n/a	n/a	n/a	"647"	"arrowdown"	n/a	"NULL"	"NULL"	"NULL"	"stimuli/MullerLyer_20.04286_-0.3500.png"	n/a	"MullerLyer"	"arrowdown"	"1140"	"TRUE"	"MullerLyer"	"20.042860000"	"-0.350000000"	"1"	"57"
n/a	"html-keyboard-response"	"131"	"7967747"	"0.0-5.0-2.0-0.39"	"yhabs7"	"563"	"1034"	"chrome"	"111.0.0"	"FALSE"	"Windows 10"	"60.16"	"047"	n/a	n/a	n/a	n/a	n/a	n/a	"fixation"	n/a	n/a	n/a	n/a	"NULL"	n/a	"NULL"	"NULL"	"NULL"	"<p style=\"color: black; font-size: 80px; padding-left: 0%; padding-right: 3%; padding-top: 40%; padding-bottom: 12%\">+</p>"	"1418"	n/a	n/a	n/a	n/a	n/a	n/a	n/a	n/a	n/a
n/a	"image-keyboard-response"	"132"	"7968405"	"0.0-5.0-2.0-1.39"	"yhabs7"	"563"	"1034"	"chrome"	"111.0.0"	"FALSE"	"Windows 10"	"60.16"	"047"	n/a	n/a	n/a	n/a	n/a	n/a	"Trial"	n/a	n/a	n/a	"657"	"arrowdown"	n/a	"NULL"	"NULL"	"NULL"	"stimuli/MullerLyer_-8.21429_-0.14541.png"	n/a	"MullerLyer"	"arrowdown"	"1429"	"TRUE"	"MullerLyer"	"-8.214290000"	"-0.145410000"	"1"	"58"
n/a	"html-keyboard-response"	"133"	"7969545"	"0.0-5.0-2.0-0.40"	"yhabs7"	"563"	"1034"	"chrome"	"111.0.0"	"FALSE"	"Windows 10"	"60.16"	"047"	n/a	n/a	n/a	n/a	n/a	n/a	"fixation"	n/a	n/a	n/a	n/a	"NULL"	n/a	"NULL"	"NULL"	"NULL"	"<p style=\"color: black; font-size: 80px; padding-left: 42%; padding-right: 1%; padding-top: 7%; padding-bottom: 17%\">+</p>"	"1136"	n/a	n/a	n/a	n/a	n/a	n/a	n/a	n/a	n/a
n/a	"image-keyboard-response"	"134"	"7970281"	"0.0-5.0-2.0-1.40"	"yhabs7"	"563"	"1034"	"chrome"	"111.0.0"	"FALSE"	"Windows 10"	"60.16"	"047"	n/a	n/a	n/a	n/a	n/a	n/a	"Trial"	n/a	n/a	n/a	"736"	"arrowup"	n/a	"NULL"	"NULL"	"NULL"	"stimuli/MullerLyer_20.04286_-0.14541.png"	n/a	"MullerLyer"	"arrowdown"	"1140"	"FALSE"	"MullerLyer"	"20.042860000"	"-0.145410000"	"1"	"59"
n/a	"html-keyboard-response"	"135"	"7971779"	"0.0-5.0-2.0-0.41"	"yhabs7"	"563"	"1034"	"chrome"	"111.0.0"	"FALSE"	"Windows 10"	"60.16"	"047"	n/a	n/a	n/a	n/a	n/a	n/a	"fixation"	n/a	n/a	n/a	n/a	"NULL"	n/a	"NULL"	"NULL"	"NULL"	"<p style=\"color: black; font-size: 80px; padding-left: 5%; padding-right: 45%; padding-top: 29%; padding-bottom: 12%\">+</p>"	"1485"	n/a	n/a	n/a	n/a	n/a	n/a	n/a	n/a	n/a
n/a	"image-keyboard-response"	"136"	"7972532"	"0.0-5.0-2.0-1.41"	"yhabs7"	"563"	"1034"	"chrome"	"111.0.0"	"FALSE"	"Windows 10"	"60.16"	"047"	n/a	n/a	n/a	n/a	n/a	n/a	"Trial"	n/a	n/a	n/a	"752"	"arrowdown"	n/a	"NULL"	"NULL"	"NULL"	"stimuli/MullerLyer_-20.04286_-0.07627.png"	n/a	"MullerLyer"	"arrowdown"	"1498"	"TRUE"	"MullerLyer"	"-20.04286000"	"-0.076270000"	"1"	"60"
n/a	"html-keyboard-response"	"137"	"7973841"	"0.0-5.0-2.0-0.42"	"yhabs7"	"563"	"1034"	"chrome"	"111.0.0"	"FALSE"	"Windows 10"	"60.16"	"047"	n/a	n/a	n/a	n/a	n/a	n/a	"fixation"	n/a	n/a	n/a	n/a	"NULL"	n/a	"NULL"	"NULL"	"NULL"	"<p style=\"color: black; font-size: 80px; padding-left: 32%; padding-right: 24%; padding-top: 11%; padding-bottom: 6%\">+</p>"	"1297"	n/a	n/a	n/a	n/a	n/a	n/a	n/a	n/a	n/a
n/a	"image-keyboard-response"	"138"	"7974337"	"0.0-5.0-2.0-1.42"	"yhabs7"	"563"	"1034"	"chrome"	"111.0.0"	"FALSE"	"Windows 10"	"60.16"	"047"	n/a	n/a	n/a	n/a	n/a	n/a	"Trial"	n/a	n/a	n/a	"496"	"arrowdown"	n/a	"NULL"	"NULL"	"NULL"	"stimuli/MullerLyer_-2.3000_-0.14541.png"	n/a	"MullerLyer"	"arrowdown"	"1309"	"TRUE"	"MullerLyer"	"-2.300000000"	"-0.145410000"	"1"	"61"
n/a	"html-keyboard-response"	"139"	"7975707"	"0.0-5.0-2.0-0.43"	"yhabs7"	"563"	"1034"	"chrome"	"111.0.0"	"FALSE"	"Windows 10"	"60.16"	"047"	n/a	n/a	n/a	n/a	n/a	n/a	"fixation"	n/a	n/a	n/a	n/a	"NULL"	n/a	"NULL"	"NULL"	"NULL"	"<p style=\"color: black; font-size: 80px; padding-left: 3%; padding-right: 49%; padding-top: 6%; padding-bottom: 26%\">+</p>"	"1365"	n/a	n/a	n/a	n/a	n/a	n/a	n/a	n/a	n/a
n/a	"image-keyboard-response"	"140"	"7976380"	"0.0-5.0-2.0-1.43"	"yhabs7"	"563"	"1034"	"chrome"	"111.0.0"	"FALSE"	"Windows 10"	"60.16"	"047"	n/a	n/a	n/a	n/a	n/a	n/a	"Trial"	n/a	n/a	n/a	"672"	"arrowup"	n/a	"NULL"	"NULL"	"NULL"	"stimuli/MullerLyer_20.04286_0.23665.png"	n/a	"MullerLyer"	"arrowup"	"1370"	"TRUE"	"MullerLyer"	"20.042860000"	"0.2366500000"	"1"	"62"
n/a	"html-keyboard-response"	"141"	"7977545"	"0.0-5.0-2.0-0.44"	"yhabs7"	"563"	"1034"	"chrome"	"111.0.0"	"FALSE"	"Windows 10"	"60.16"	"047"	n/a	n/a	n/a	n/a	n/a	n/a	"fixation"	n/a	n/a	n/a	n/a	"NULL"	n/a	"NULL"	"NULL"	"NULL"	"<p style=\"color: black; font-size: 80px; padding-left: 30%; padding-right: 42%; padding-top: 24%; padding-bottom: 33%\">+</p>"	"1156"	n/a	n/a	n/a	n/a	n/a	n/a	n/a	n/a	n/a
n/a	"image-keyboard-response"	"142"	"7978107"	"0.0-5.0-2.0-1.44"	"yhabs7"	"563"	"1034"	"chrome"	"111.0.0"	"FALSE"	"Windows 10"	"60.16"	"047"	n/a	n/a	n/a	n/a	n/a	n/a	"Trial"	n/a	n/a	n/a	"561"	"arrowdown"	n/a	"NULL"	"NULL"	"NULL"	"stimuli/MullerLyer_-8.21429_-0.3500.png"	n/a	"MullerLyer"	"arrowdown"	"1165"	"TRUE"	"MullerLyer"	"-8.214290000"	"-0.350000000"	"1"	"63"
n/a	"html-keyboard-response"	"143"	"7979588"	"0.0-5.0-2.0-0.45"	"yhabs7"	"563"	"1034"	"chrome"	"111.0.0"	"FALSE"	"Windows 10"	"60.16"	"047"	n/a	n/a	n/a	n/a	n/a	n/a	"fixation"	n/a	n/a	n/a	n/a	"NULL"	n/a	"NULL"	"NULL"	"NULL"	"<p style=\"color: black; font-size: 80px; padding-left: 39%; padding-right: 1%; padding-top: 35%; padding-bottom: 5%\">+</p>"	"1472"	n/a	n/a	n/a	n/a	n/a	n/a	n/a	n/a	n/a
n/a	"image-keyboard-response"	"144"	"7980068"	"0.0-5.0-2.0-1.45"	"yhabs7"	"563"	"1034"	"chrome"	"111.0.0"	"FALSE"	"Windows 10"	"60.16"	"047"	n/a	n/a	n/a	n/a	n/a	n/a	"Trial"	n/a	n/a	n/a	"479"	"arrowup"	n/a	"NULL"	"NULL"	"NULL"	"stimuli/MullerLyer_-14.12857_0.35000.png"	n/a	"MullerLyer"	"arrowup"	"1481"	"TRUE"	"MullerLyer"	"-14.12857000"	"0.3500000000"	"1"	"64"
n/a	"html-keyboard-response"	"145"	"7981098"	"0.0-5.0-2.0-0.46"	"yhabs7"	"563"	"1034"	"chrome"	"111.0.0"	"FALSE"	"Windows 10"	"60.16"	"047"	n/a	n/a	n/a	n/a	n/a	n/a	"fixation"	n/a	n/a	n/a	n/a	"NULL"	n/a	"NULL"	"NULL"	"NULL"	"<p style=\"color: black; font-size: 80px; padding-left: 20%; padding-right: 26%; padding-top: 7%; padding-bottom: 40%\">+</p>"	"1028"	n/a	n/a	n/a	n/a	n/a	n/a	n/a	n/a	n/a
n/a	"image-keyboard-response"	"146"	"7981994"	"0.0-5.0-2.0-1.46"	"yhabs7"	"563"	"1034"	"chrome"	"111.0.0"	"FALSE"	"Windows 10"	"60.16"	"047"	n/a	n/a	n/a	n/a	n/a	n/a	"Trial"	n/a	n/a	n/a	"894"	"arrowup"	n/a	"NULL"	"NULL"	"NULL"	"stimuli/MullerLyer_8.21429_0.23665.png"	n/a	"MullerLyer"	"arrowup"	"1030"	"TRUE"	"MullerLyer"	"8.2142900000"	"0.2366500000"	"1"	"65"
n/a	"html-keyboard-response"	"147"	"7983076"	"0.0-5.0-2.0-0.47"	"yhabs7"	"563"	"1034"	"chrome"	"111.0.0"	"FALSE"	"Windows 10"	"60.16"	"047"	n/a	n/a	n/a	n/a	n/a	n/a	"fixation"	n/a	n/a	n/a	n/a	"NULL"	n/a	"NULL"	"NULL"	"NULL"	"<p style=\"color: black; font-size: 80px; padding-left: 4%; padding-right: 44%; padding-top: 10%; padding-bottom: 25%\">+</p>"	"1069"	n/a	n/a	n/a	n/a	n/a	n/a	n/a	n/a	n/a
n/a	"image-keyboard-response"	"148"	"7984645"	"0.0-5.0-2.0-1.47"	"yhabs7"	"563"	"1034"	"chrome"	"111.0.0"	"FALSE"	"Windows 10"	"60.16"	"047"	n/a	n/a	n/a	n/a	n/a	n/a	"Trial"	n/a	n/a	n/a	"1569"	"arrowdown"	n/a	"NULL"	"NULL"	"NULL"	"stimuli/MullerLyer_20.04286_0.07627.png"	n/a	"MullerLyer"	"arrowup"	"1082"	"FALSE"	"MullerLyer"	"20.042860000"	"0.0762700000"	"1"	"66"
n/a	"html-keyboard-response"	"149"	"7985731"	"0.0-5.0-2.0-0.48"	"yhabs7"	"563"	"1034"	"chrome"	"111.0.0"	"FALSE"	"Windows 10"	"60.16"	"047"	n/a	n/a	n/a	n/a	n/a	n/a	"fixation"	n/a	n/a	n/a	n/a	"NULL"	n/a	"NULL"	"NULL"	"NULL"	"<p style=\"color: black; font-size: 80px; padding-left: 38%; padding-right: 31%; padding-top: 44%; padding-bottom: 24%\">+</p>"	"1084"	n/a	n/a	n/a	n/a	n/a	n/a	n/a	n/a	n/a
n/a	"image-keyboard-response"	"150"	"7986348"	"0.0-5.0-2.0-1.48"	"yhabs7"	"563"	"1034"	"chrome"	"111.0.0"	"FALSE"	"Windows 10"	"60.16"	"047"	n/a	n/a	n/a	n/a	n/a	n/a	"Trial"	n/a	n/a	n/a	"616"	"arrowup"	n/a	"NULL"	"NULL"	"NULL"	"stimuli/MullerLyer_8.21429_0.14541.png"	n/a	"MullerLyer"	"arrowup"	"1086"	"TRUE"	"MullerLyer"	"8.2142900000"	"0.1454100000"	"1"	"67"
n/a	"html-keyboard-response"	"151"	"7987605"	"0.0-5.0-2.0-0.49"	"yhabs7"	"563"	"1034"	"chrome"	"111.0.0"	"FALSE"	"Windows 10"	"60.16"	"047"	n/a	n/a	n/a	n/a	n/a	n/a	"fixation"	n/a	n/a	n/a	n/a	"NULL"	n/a	"NULL"	"NULL"	"NULL"	"<p style=\"color: black; font-size: 80px; padding-left: 10%; padding-right: 40%; padding-top: 48%; padding-bottom: 26%\">+</p>"	"1253"	n/a	n/a	n/a	n/a	n/a	n/a	n/a	n/a	n/a
n/a	"image-keyboard-response"	"152"	"7988389"	"0.0-5.0-2.0-1.49"	"yhabs7"	"563"	"1034"	"chrome"	"111.0.0"	"FALSE"	"Windows 10"	"60.16"	"047"	n/a	n/a	n/a	n/a	n/a	n/a	"Trial"	n/a	n/a	n/a	"781"	"arrowdown"	n/a	"NULL"	"NULL"	"NULL"	"stimuli/MullerLyer_-20.04286_-0.3500.png"	n/a	"MullerLyer"	"arrowdown"	"1257"	"TRUE"	"MullerLyer"	"-20.04286000"	"-0.350000000"	"1"	"68"
n/a	"html-keyboard-response"	"153"	"7989589"	"0.0-5.0-2.0-0.50"	"yhabs7"	"563"	"1034"	"chrome"	"111.0.0"	"FALSE"	"Windows 10"	"60.16"	"047"	n/a	n/a	n/a	n/a	n/a	n/a	"fixation"	n/a	n/a	n/a	n/a	"NULL"	n/a	"NULL"	"NULL"	"NULL"	"<p style=\"color: black; font-size: 80px; padding-left: 13%; padding-right: 46%; padding-top: 23%; padding-bottom: 36%\">+</p>"	"1196"	n/a	n/a	n/a	n/a	n/a	n/a	n/a	n/a	n/a
n/a	"image-keyboard-response"	"154"	"7990204"	"0.0-5.0-2.0-1.50"	"yhabs7"	"563"	"1034"	"chrome"	"111.0.0"	"FALSE"	"Windows 10"	"60.16"	"047"	n/a	n/a	n/a	n/a	n/a	n/a	"Trial"	n/a	n/a	n/a	"614"	"arrowdown"	n/a	"NULL"	"NULL"	"NULL"	"stimuli/MullerLyer_-14.12857_-0.23665.png"	n/a	"MullerLyer"	"arrowdown"	"1200"	"TRUE"	"MullerLyer"	"-14.12857000"	"-0.236650000"	"1"	"69"
n/a	"html-keyboard-response"	"155"	"7991436"	"0.0-5.0-2.0-0.51"	"yhabs7"	"563"	"1034"	"chrome"	"111.0.0"	"FALSE"	"Windows 10"	"60.16"	"047"	n/a	n/a	n/a	n/a	n/a	n/a	"fixation"	n/a	n/a	n/a	n/a	"NULL"	n/a	"NULL"	"NULL"	"NULL"	"<p style=\"color: black; font-size: 80px; padding-left: 5%; padding-right: 28%; padding-top: 7%; padding-bottom: 4%\">+</p>"	"1222"	n/a	n/a	n/a	n/a	n/a	n/a	n/a	n/a	n/a
n/a	"image-keyboard-response"	"156"	"7992053"	"0.0-5.0-2.0-1.51"	"yhabs7"	"563"	"1034"	"chrome"	"111.0.0"	"FALSE"	"Windows 10"	"60.16"	"047"	n/a	n/a	n/a	n/a	n/a	n/a	"Trial"	n/a	n/a	n/a	"616"	"arrowdown"	n/a	"NULL"	"NULL"	"NULL"	"stimuli/MullerLyer_-20.04286_-0.14541.png"	n/a	"MullerLyer"	"arrowdown"	"1232"	"TRUE"	"MullerLyer"	"-20.04286000"	"-0.145410000"	"1"	"70"
n/a	"html-keyboard-response"	"157"	"7993093"	"0.0-5.0-2.0-0.52"	"yhabs7"	"563"	"1034"	"chrome"	"111.0.0"	"FALSE"	"Windows 10"	"60.16"	"047"	n/a	n/a	n/a	n/a	n/a	n/a	"fixation"	n/a	n/a	n/a	n/a	"NULL"	n/a	"NULL"	"NULL"	"NULL"	"<p style=\"color: black; font-size: 80px; padding-left: 14%; padding-right: 25%; padding-top: 14%; padding-bottom: 27%\">+</p>"	"1033"	n/a	n/a	n/a	n/a	n/a	n/a	n/a	n/a	n/a
n/a	"image-keyboard-response"	"158"	"7993647"	"0.0-5.0-2.0-1.52"	"yhabs7"	"563"	"1034"	"chrome"	"111.0.0"	"FALSE"	"Windows 10"	"60.16"	"047"	n/a	n/a	n/a	n/a	n/a	n/a	"Trial"	n/a	n/a	n/a	"553"	"arrowdown"	n/a	"NULL"	"NULL"	"NULL"	"stimuli/MullerLyer_8.21429_-0.3500.png"	n/a	"MullerLyer"	"arrowdown"	"1040"	"TRUE"	"MullerLyer"	"8.2142900000"	"-0.350000000"	"1"	"71"
n/a	"html-keyboard-response"	"159"	"7995122"	"0.0-5.0-2.0-0.53"	"yhabs7"	"563"	"1034"	"chrome"	"111.0.0"	"FALSE"	"Windows 10"	"60.16"	"047"	n/a	n/a	n/a	n/a	n/a	n/a	"fixation"	n/a	n/a	n/a	n/a	"NULL"	n/a	"NULL"	"NULL"	"NULL"	"<p style=\"color: black; font-size: 80px; padding-left: 20%; padding-right: 5%; padding-top: 22%; padding-bottom: 24%\">+</p>"	"1465"	n/a	n/a	n/a	n/a	n/a	n/a	n/a	n/a	n/a
n/a	"image-keyboard-response"	"160"	"7995707"	"0.0-5.0-2.0-1.53"	"yhabs7"	"563"	"1034"	"chrome"	"111.0.0"	"FALSE"	"Windows 10"	"60.16"	"047"	n/a	n/a	n/a	n/a	n/a	n/a	"Trial"	n/a	n/a	n/a	"584"	"arrowup"	n/a	"NULL"	"NULL"	"NULL"	"stimuli/MullerLyer_2.30000_0.35000.png"	n/a	"MullerLyer"	"arrowup"	"1475"	"TRUE"	"MullerLyer"	"2.3000000000"	"0.3500000000"	"1"	"72"
n/a	"html-keyboard-response"	"161"	"7996817"	"0.0-5.0-2.0-0.54"	"yhabs7"	"563"	"1034"	"chrome"	"111.0.0"	"FALSE"	"Windows 10"	"60.16"	"047"	n/a	n/a	n/a	n/a	n/a	n/a	"fixation"	n/a	n/a	n/a	n/a	"NULL"	n/a	"NULL"	"NULL"	"NULL"	"<p style=\"color: black; font-size: 80px; padding-left: 26%; padding-right: 17%; padding-top: 19%; padding-bottom: 41%\">+</p>"	"1105"	n/a	n/a	n/a	n/a	n/a	n/a	n/a	n/a	n/a
n/a	"image-keyboard-response"	"162"	"7997285"	"0.0-5.0-2.0-1.54"	"yhabs7"	"563"	"1034"	"chrome"	"111.0.0"	"FALSE"	"Windows 10"	"60.16"	"047"	n/a	n/a	n/a	n/a	n/a	n/a	"Trial"	n/a	n/a	n/a	"467"	"arrowup"	n/a	"NULL"	"NULL"	"NULL"	"stimuli/MullerLyer_-20.04286_0.23665.png"	n/a	"MullerLyer"	"arrowup"	"1110"	"TRUE"	"MullerLyer"	"-20.04286000"	"0.2366500000"	"1"	"73"
n/a	"html-keyboard-response"	"163"	"7998594"	"0.0-5.0-2.0-0.55"	"yhabs7"	"563"	"1034"	"chrome"	"111.0.0"	"FALSE"	"Windows 10"	"60.16"	"047"	n/a	n/a	n/a	n/a	n/a	n/a	"fixation"	n/a	n/a	n/a	n/a	"NULL"	n/a	"NULL"	"NULL"	"NULL"	"<p style=\"color: black; font-size: 80px; padding-left: 19%; padding-right: 35%; padding-top: 15%; padding-bottom: 4%\">+</p>"	"1306"	n/a	n/a	n/a	n/a	n/a	n/a	n/a	n/a	n/a
n/a	"image-keyboard-response"	"164"	"7999138"	"0.0-5.0-2.0-1.55"	"yhabs7"	"563"	"1034"	"chrome"	"111.0.0"	"FALSE"	"Windows 10"	"60.16"	"047"	n/a	n/a	n/a	n/a	n/a	n/a	"Trial"	n/a	n/a	n/a	"543"	"arrowdown"	n/a	"NULL"	"NULL"	"NULL"	"stimuli/MullerLyer_2.30000_-0.3500.png"	n/a	"MullerLyer"	"arrowdown"	"1309"	"TRUE"	"MullerLyer"	"2.3000000000"	"-0.350000000"	"1"	"74"
n/a	"html-keyboard-response"	"165"	"8000611"	"0.0-5.0-2.0-0.56"	"yhabs7"	"563"	"1034"	"chrome"	"111.0.0"	"FALSE"	"Windows 10"	"60.16"	"047"	n/a	n/a	n/a	n/a	n/a	n/a	"fixation"	n/a	n/a	n/a	n/a	"NULL"	n/a	"NULL"	"NULL"	"NULL"	"<p style=\"color: black; font-size: 80px; padding-left: 48%; padding-right: 5%; padding-top: 31%; padding-bottom: 36%\">+</p>"	"1461"	n/a	n/a	n/a	n/a	n/a	n/a	n/a	n/a	n/a
n/a	"image-keyboard-response"	"166"	"8002565"	"0.0-5.0-2.0-1.56"	"yhabs7"	"563"	"1034"	"chrome"	"111.0.0"	"FALSE"	"Windows 10"	"60.16"	"047"	n/a	n/a	n/a	n/a	n/a	n/a	"Trial"	n/a	n/a	n/a	"1953"	"arrowdown"	n/a	"NULL"	"NULL"	"NULL"	"stimuli/MullerLyer_8.21429_-0.14541.png"	n/a	"MullerLyer"	"arrowdown"	"1473"	"TRUE"	"MullerLyer"	"8.2142900000"	"-0.145410000"	"1"	"75"
n/a	"html-keyboard-response"	"167"	"8003749"	"0.0-5.0-2.0-0.57"	"yhabs7"	"563"	"1034"	"chrome"	"111.0.0"	"FALSE"	"Windows 10"	"60.16"	"047"	n/a	n/a	n/a	n/a	n/a	n/a	"fixation"	n/a	n/a	n/a	n/a	"NULL"	n/a	"NULL"	"NULL"	"NULL"	"<p style=\"color: black; font-size: 80px; padding-left: 3%; padding-right: 27%; padding-top: 47%; padding-bottom: 1%\">+</p>"	"1170"	n/a	n/a	n/a	n/a	n/a	n/a	n/a	n/a	n/a
n/a	"image-keyboard-response"	"168"	"8004217"	"0.0-5.0-2.0-1.57"	"yhabs7"	"563"	"1034"	"chrome"	"111.0.0"	"FALSE"	"Windows 10"	"60.16"	"047"	n/a	n/a	n/a	n/a	n/a	n/a	"Trial"	n/a	n/a	n/a	"467"	"arrowup"	n/a	"NULL"	"NULL"	"NULL"	"stimuli/MullerLyer_8.21429_0.35000.png"	n/a	"MullerLyer"	"arrowup"	"1184"	"TRUE"	"MullerLyer"	"8.2142900000"	"0.3500000000"	"1"	"76"
n/a	"html-keyboard-response"	"169"	"8005406"	"0.0-5.0-2.0-0.58"	"yhabs7"	"563"	"1034"	"chrome"	"111.0.0"	"FALSE"	"Windows 10"	"60.16"	"047"	n/a	n/a	n/a	n/a	n/a	n/a	"fixation"	n/a	n/a	n/a	n/a	"NULL"	n/a	"NULL"	"NULL"	"NULL"	"<p style=\"color: black; font-size: 80px; padding-left: 27%; padding-right: 8%; padding-top: 46%; padding-bottom: 28%\">+</p>"	"1185"	n/a	n/a	n/a	n/a	n/a	n/a	n/a	n/a	n/a
n/a	"image-keyboard-response"	"170"	"8006071"	"0.0-5.0-2.0-1.58"	"yhabs7"	"563"	"1034"	"chrome"	"111.0.0"	"FALSE"	"Windows 10"	"60.16"	"047"	n/a	n/a	n/a	n/a	n/a	n/a	"Trial"	n/a	n/a	n/a	"664"	"arrowup"	n/a	"NULL"	"NULL"	"NULL"	"stimuli/MullerLyer_-8.21429_0.35000.png"	n/a	"MullerLyer"	"arrowup"	"1189"	"TRUE"	"MullerLyer"	"-8.214290000"	"0.3500000000"	"1"	"77"
n/a	"html-keyboard-response"	"171"	"8007545"	"0.0-5.0-2.0-0.59"	"yhabs7"	"563"	"1034"	"chrome"	"111.0.0"	"FALSE"	"Windows 10"	"60.16"	"047"	n/a	n/a	n/a	n/a	n/a	n/a	"fixation"	n/a	n/a	n/a	n/a	"NULL"	n/a	"NULL"	"NULL"	"NULL"	"<p style=\"color: black; font-size: 80px; padding-left: 29%; padding-right: 45%; padding-top: 7%; padding-bottom: 42%\">+</p>"	"1457"	n/a	n/a	n/a	n/a	n/a	n/a	n/a	n/a	n/a
n/a	"image-keyboard-response"	"172"	"8009592"	"0.0-5.0-2.0-1.59"	"yhabs7"	"563"	"1034"	"chrome"	"111.0.0"	"FALSE"	"Windows 10"	"60.16"	"047"	n/a	n/a	n/a	n/a	n/a	n/a	"Trial"	n/a	n/a	n/a	"2046"	"arrowdown"	n/a	"NULL"	"NULL"	"NULL"	"stimuli/MullerLyer_20.04286_0.14541.png"	n/a	"MullerLyer"	"arrowup"	"1474"	"FALSE"	"MullerLyer"	"20.042860000"	"0.1454100000"	"1"	"78"
n/a	"html-keyboard-response"	"173"	"8010942"	"0.0-5.0-2.0-0.60"	"yhabs7"	"563"	"1034"	"chrome"	"111.0.0"	"FALSE"	"Windows 10"	"60.16"	"047"	n/a	n/a	n/a	n/a	n/a	n/a	"fixation"	n/a	n/a	n/a	n/a	"NULL"	n/a	"NULL"	"NULL"	"NULL"	"<p style=\"color: black; font-size: 80px; padding-left: 18%; padding-right: 7%; padding-top: 31%; padding-bottom: 29%\">+</p>"	"1348"	n/a	n/a	n/a	n/a	n/a	n/a	n/a	n/a	n/a
n/a	"image-keyboard-response"	"174"	"8011439"	"0.0-5.0-2.0-1.60"	"yhabs7"	"563"	"1034"	"chrome"	"111.0.0"	"FALSE"	"Windows 10"	"60.16"	"047"	n/a	n/a	n/a	n/a	n/a	n/a	"Trial"	n/a	n/a	n/a	"496"	"arrowup"	n/a	"NULL"	"NULL"	"NULL"	"stimuli/MullerLyer_-20.04286_0.35000.png"	n/a	"MullerLyer"	"arrowup"	"1350"	"TRUE"	"MullerLyer"	"-20.04286000"	"0.3500000000"	"1"	"79"
n/a	"html-keyboard-response"	"175"	"8012577"	"0.0-5.0-2.0-0.61"	"yhabs7"	"563"	"1034"	"chrome"	"111.0.0"	"FALSE"	"Windows 10"	"60.16"	"047"	n/a	n/a	n/a	n/a	n/a	n/a	"fixation"	n/a	n/a	n/a	n/a	"NULL"	n/a	"NULL"	"NULL"	"NULL"	"<p style=\"color: black; font-size: 80px; padding-left: 45%; padding-right: 32%; padding-top: 26%; padding-bottom: 47%\">+</p>"	"1126"	n/a	n/a	n/a	n/a	n/a	n/a	n/a	n/a	n/a
n/a	"image-keyboard-response"	"176"	"8013072"	"0.0-5.0-2.0-1.61"	"yhabs7"	"563"	"1034"	"chrome"	"111.0.0"	"FALSE"	"Windows 10"	"60.16"	"047"	n/a	n/a	n/a	n/a	n/a	n/a	"Trial"	n/a	n/a	n/a	"494"	"arrowup"	n/a	"NULL"	"NULL"	"NULL"	"stimuli/MullerLyer_-20.04286_0.07627.png"	n/a	"MullerLyer"	"arrowup"	"1138"	"TRUE"	"MullerLyer"	"-20.04286000"	"0.0762700000"	"1"	"80"
n/a	"html-keyboard-response"	"177"	"8014401"	"0.0-5.0-2.0-0.62"	"yhabs7"	"563"	"1034"	"chrome"	"111.0.0"	"FALSE"	"Windows 10"	"60.16"	"047"	n/a	n/a	n/a	n/a	n/a	n/a	"fixation"	n/a	n/a	n/a	n/a	"NULL"	n/a	"NULL"	"NULL"	"NULL"	"<p style=\"color: black; font-size: 80px; padding-left: 40%; padding-right: 39%; padding-top: 40%; padding-bottom: 44%\">+</p>"	"1314"	n/a	n/a	n/a	n/a	n/a	n/a	n/a	n/a	n/a
n/a	"image-keyboard-response"	"178"	"8015026"	"0.0-5.0-2.0-1.62"	"yhabs7"	"563"	"1034"	"chrome"	"111.0.0"	"FALSE"	"Windows 10"	"60.16"	"047"	n/a	n/a	n/a	n/a	n/a	n/a	"Trial"	n/a	n/a	n/a	"624"	"arrowdown"	n/a	"NULL"	"NULL"	"NULL"	"stimuli/MullerLyer_8.21429_-0.23665.png"	n/a	"MullerLyer"	"arrowdown"	"1329"	"TRUE"	"MullerLyer"	"8.2142900000"	"-0.236650000"	"1"	"81"
n/a	"html-keyboard-response"	"179"	"8016108"	"0.0-5.0-2.0-0.63"	"yhabs7"	"563"	"1034"	"chrome"	"111.0.0"	"FALSE"	"Windows 10"	"60.16"	"047"	n/a	n/a	n/a	n/a	n/a	n/a	"fixation"	n/a	n/a	n/a	n/a	"NULL"	n/a	"NULL"	"NULL"	"NULL"	"<p style=\"color: black; font-size: 80px; padding-left: 6%; padding-right: 48%; padding-top: 44%; padding-bottom: 40%\">+</p>"	"1070"	n/a	n/a	n/a	n/a	n/a	n/a	n/a	n/a	n/a
n/a	"image-keyboard-response"	"180"	"8016982"	"0.0-5.0-2.0-1.63"	"yhabs7"	"563"	"1034"	"chrome"	"111.0.0"	"FALSE"	"Windows 10"	"60.16"	"047"	n/a	n/a	n/a	n/a	n/a	n/a	"Trial"	n/a	n/a	n/a	"874"	"arrowup"	n/a	"NULL"	"NULL"	"NULL"	"stimuli/MullerLyer_8.21429_-0.07627.png"	n/a	"MullerLyer"	"arrowdown"	"1082"	"FALSE"	"MullerLyer"	"8.2142900000"	"-0.076270000"	"1"	"82"
n/a	"html-button-response"	"181"	"8033956"	"0.0-5.0-3.0"	"yhabs7"	"563"	"1034"	"chrome"	"111.0.0"	"FALSE"	"Windows 10"	"60.16"	"047"	n/a	n/a	n/a	n/a	n/a	n/a	"block_results"	n/a	n/a	n/a	"16971"	"0"	n/a	"NULL"	"NULL"	"NULL"	"<p>Your score for this illusion is <p style=\"color: black; font-size: 48px; font-weight: bold;\">79.7 %</p><hr><p>Can you do better in the next illusion?</p>"	n/a	n/a	n/a	n/a	n/a	n/a	n/a	n/a	n/a	n/a
"TRUE"	"preload"	"182"	"8034123"	"0.0-6.0-0.0"	"yhabs7"	"563"	"1034"	"chrome"	"111.0.0"	"FALSE"	"Windows 10"	"60.16"	"047"	n/a	n/a	n/a	n/a	n/a	n/a	n/a	n/a	n/a	n/a	n/a	"NULL"	"FALSE"	"list()"	"list()"	"list()"	n/a	n/a	n/a	n/a	n/a	n/a	n/a	n/a	n/a	n/a	n/a
n/a	"html-keyboard-response"	"183"	"8039462"	"0.0-6.0-1.0"	"yhabs7"	"563"	"1034"	"chrome"	"111.0.0"	"FALSE"	"Windows 10"	"60.16"	"047"	n/a	n/a	n/a	n/a	n/a	n/a	n/a	n/a	n/a	n/a	"5338"	"enter"	n/a	"NULL"	"NULL"	"NULL"	"<p><b>Part 2/6</b></p><p>In this part, two red lines will appear side by side.</p><p>Your task is to tell <b>which line is longer</b> in length, regardless of their orientation, as fast as you can, and without making errors.</p><p>Don't get distracted by the orientation of the lines!</p><p>Press <b>the LEFT or the RIGHT arrow</b> to indicate which <b>line is the longer one.</b></p><div style='float: center'><img src='materials/instructions/VerticalHorizontal_Demo.png' height='300'></img><p><img src='utils/answer/answer_leftright_keyboard.PNG' height='150'></img></p><p class='small'>In this example, the correct answer is the <b>LEFT arrow</b>.</p></div><p>Are you ready? <b>Press ENTER to start</b></p>"	n/a	n/a	n/a	n/a	n/a	n/a	n/a	n/a	n/a	n/a
n/a	"html-keyboard-response"	"184"	"8041244"	"0.0-6.0-2.0-0.0"	"yhabs7"	"563"	"1034"	"chrome"	"111.0.0"	"FALSE"	"Windows 10"	"60.16"	"047"	n/a	n/a	n/a	n/a	n/a	n/a	"fixation"	n/a	n/a	n/a	n/a	"NULL"	n/a	"NULL"	"NULL"	"NULL"	"<p style=\"color: black; font-size: 80px; padding-left: 5%; padding-right: 13%; padding-top: 7%; padding-bottom: 45%\">+</p>"	"1275"	n/a	n/a	n/a	n/a	n/a	n/a	n/a	n/a	n/a
n/a	"image-keyboard-response"	"185"	"8042077"	"0.0-6.0-2.0-1.0"	"yhabs7"	"563"	"1034"	"chrome"	"111.0.0"	"FALSE"	"Windows 10"	"60.16"	"047"	n/a	n/a	n/a	n/a	n/a	n/a	"Trial"	n/a	n/a	n/a	"832"	"arrowleft"	n/a	"NULL"	"NULL"	"NULL"	"stimuli/VerticalHorizontal_-20.27143_0.06730.png"	n/a	"VerticalHorizontal"	"arrowleft"	"1782"	"TRUE"	"VerticalHorizontal"	"-20.27143000"	"0.0673000000"	"2"	"1"
n/a	"html-keyboard-response"	"186"	"8043378"	"0.0-6.0-2.0-0.1"	"yhabs7"	"563"	"1034"	"chrome"	"111.0.0"	"FALSE"	"Windows 10"	"60.16"	"047"	n/a	n/a	n/a	n/a	n/a	n/a	"fixation"	n/a	n/a	n/a	n/a	"NULL"	n/a	"NULL"	"NULL"	"NULL"	"<p style=\"color: black; font-size: 80px; padding-left: 26%; padding-right: 36%; padding-top: 40%; padding-bottom: 4%\">+</p>"	"1290"	n/a	n/a	n/a	n/a	n/a	n/a	n/a	n/a	n/a
n/a	"image-keyboard-response"	"187"	"8043960"	"0.0-6.0-2.0-1.1"	"yhabs7"	"563"	"1034"	"chrome"	"111.0.0"	"FALSE"	"Windows 10"	"60.16"	"047"	n/a	n/a	n/a	n/a	n/a	n/a	"Trial"	n/a	n/a	n/a	"582"	"arrowright"	n/a	"NULL"	"NULL"	"NULL"	"stimuli/VerticalHorizontal_20.27143_-0.2250.png"	n/a	"VerticalHorizontal"	"arrowright"	"1301"	"TRUE"	"VerticalHorizontal"	"20.271430000"	"-0.225000000"	"2"	"2"
n/a	"html-keyboard-response"	"188"	"8045261"	"0.0-6.0-2.0-0.2"	"yhabs7"	"563"	"1034"	"chrome"	"111.0.0"	"FALSE"	"Windows 10"	"60.16"	"047"	n/a	n/a	n/a	n/a	n/a	n/a	"fixation"	n/a	n/a	n/a	n/a	"NULL"	n/a	"NULL"	"NULL"	"NULL"	"<p style=\"color: black; font-size: 80px; padding-left: 5%; padding-right: 21%; padding-top: 26%; padding-bottom: 17%\">+</p>"	"1299"	n/a	n/a	n/a	n/a	n/a	n/a	n/a	n/a	n/a
n/a	"image-keyboard-response"	"189"	"8045730"	"0.0-6.0-2.0-1.2"	"yhabs7"	"563"	"1034"	"chrome"	"111.0.0"	"FALSE"	"Windows 10"	"60.16"	"047"	n/a	n/a	n/a	n/a	n/a	n/a	"Trial"	n/a	n/a	n/a	"468"	"arrowleft"	n/a	"NULL"	"NULL"	"NULL"	"stimuli/VerticalHorizontal_-11.78571_0.16217.png"	n/a	"VerticalHorizontal"	"arrowleft"	"1301"	"TRUE"	"VerticalHorizontal"	"-11.78571000"	"0.1621700000"	"2"	"3"
n/a	"html-keyboard-response"	"190"	"8046998"	"0.0-6.0-2.0-0.3"	"yhabs7"	"563"	"1034"	"chrome"	"111.0.0"	"FALSE"	"Windows 10"	"60.16"	"047"	n/a	n/a	n/a	n/a	n/a	n/a	"fixation"	n/a	n/a	n/a	n/a	"NULL"	n/a	"NULL"	"NULL"	"NULL"	"<p style=\"color: black; font-size: 80px; padding-left: 48%; padding-right: 43%; padding-top: 18%; padding-bottom: 23%\">+</p>"	"1254"	n/a	n/a	n/a	n/a	n/a	n/a	n/a	n/a	n/a
n/a	"image-keyboard-response"	"191"	"8047442"	"0.0-6.0-2.0-1.3"	"yhabs7"	"563"	"1034"	"chrome"	"111.0.0"	"FALSE"	"Windows 10"	"60.16"	"047"	n/a	n/a	n/a	n/a	n/a	n/a	"Trial"	n/a	n/a	n/a	"443"	"arrowright"	n/a	"NULL"	"NULL"	"NULL"	"stimuli/VerticalHorizontal_-20.27143_-0.16217.png"	n/a	"VerticalHorizontal"	"arrowright"	"1268"	"TRUE"	"VerticalHorizontal"	"-20.27143000"	"-0.162170000"	"2"	"4"
n/a	"html-keyboard-response"	"192"	"8048792"	"0.0-6.0-2.0-0.4"	"yhabs7"	"563"	"1034"	"chrome"	"111.0.0"	"FALSE"	"Windows 10"	"60.16"	"047"	n/a	n/a	n/a	n/a	n/a	n/a	"fixation"	n/a	n/a	n/a	n/a	"NULL"	n/a	"NULL"	"NULL"	"NULL"	"<p style=\"color: black; font-size: 80px; padding-left: 41%; padding-right: 42%; padding-top: 34%; padding-bottom: 9%\">+</p>"	"1336"	n/a	n/a	n/a	n/a	n/a	n/a	n/a	n/a	n/a
n/a	"image-keyboard-response"	"193"	"8049177"	"0.0-6.0-2.0-1.4"	"yhabs7"	"563"	"1034"	"chrome"	"111.0.0"	"FALSE"	"Windows 10"	"60.16"	"047"	n/a	n/a	n/a	n/a	n/a	n/a	"Trial"	n/a	n/a	n/a	"384"	"arrowright"	n/a	"NULL"	"NULL"	"NULL"	"stimuli/VerticalHorizontal_-20.27143_-0.1096.png"	n/a	"VerticalHorizontal"	"arrowright"	"1350"	"TRUE"	"VerticalHorizontal"	"-20.27143000"	"-0.109600000"	"2"	"5"
n/a	"html-keyboard-response"	"194"	"8050387"	"0.0-6.0-2.0-0.5"	"yhabs7"	"563"	"1034"	"chrome"	"111.0.0"	"FALSE"	"Windows 10"	"60.16"	"047"	n/a	n/a	n/a	n/a	n/a	n/a	"fixation"	n/a	n/a	n/a	n/a	"NULL"	n/a	"NULL"	"NULL"	"NULL"	"<p style=\"color: black; font-size: 80px; padding-left: 13%; padding-right: 15%; padding-top: 24%; padding-bottom: 46%\">+</p>"	"1198"	n/a	n/a	n/a	n/a	n/a	n/a	n/a	n/a	n/a
n/a	"image-keyboard-response"	"195"	"8050898"	"0.0-6.0-2.0-1.5"	"yhabs7"	"563"	"1034"	"chrome"	"111.0.0"	"FALSE"	"Windows 10"	"60.16"	"047"	n/a	n/a	n/a	n/a	n/a	n/a	"Trial"	n/a	n/a	n/a	"510"	"arrowleft"	n/a	"NULL"	"NULL"	"NULL"	"stimuli/VerticalHorizontal_-3.3000_0.10960.png"	n/a	"VerticalHorizontal"	"arrowleft"	"1210"	"TRUE"	"VerticalHorizontal"	"-3.300000000"	"0.1096000000"	"2"	"6"
n/a	"html-keyboard-response"	"196"	"8052147"	"0.0-6.0-2.0-0.6"	"yhabs7"	"563"	"1034"	"chrome"	"111.0.0"	"FALSE"	"Windows 10"	"60.16"	"047"	n/a	n/a	n/a	n/a	n/a	n/a	"fixation"	n/a	n/a	n/a	n/a	"NULL"	n/a	"NULL"	"NULL"	"NULL"	"<p style=\"color: black; font-size: 80px; padding-left: 20%; padding-right: 27%; padding-top: 40%; padding-bottom: 1%\">+</p>"	"1241"	n/a	n/a	n/a	n/a	n/a	n/a	n/a	n/a	n/a
n/a	"image-keyboard-response"	"197"	"8052651"	"0.0-6.0-2.0-1.6"	"yhabs7"	"563"	"1034"	"chrome"	"111.0.0"	"FALSE"	"Windows 10"	"60.16"	"047"	n/a	n/a	n/a	n/a	n/a	n/a	"Trial"	n/a	n/a	n/a	"504"	"arrowleft"	n/a	"NULL"	"NULL"	"NULL"	"stimuli/VerticalHorizontal_-28.75714_0.10960.png"	n/a	"VerticalHorizontal"	"arrowleft"	"1249"	"TRUE"	"VerticalHorizontal"	"-28.75714000"	"0.1096000000"	"2"	"7"
n/a	"html-keyboard-response"	"198"	"8053695"	"0.0-6.0-2.0-0.7"	"yhabs7"	"563"	"1034"	"chrome"	"111.0.0"	"FALSE"	"Windows 10"	"60.16"	"047"	n/a	n/a	n/a	n/a	n/a	n/a	"fixation"	n/a	n/a	n/a	n/a	"NULL"	n/a	"NULL"	"NULL"	"NULL"	"<p style=\"color: black; font-size: 80px; padding-left: 22%; padding-right: 24%; padding-top: 35%; padding-bottom: 1%\">+</p>"	"1037"	n/a	n/a	n/a	n/a	n/a	n/a	n/a	n/a	n/a
n/a	"image-keyboard-response"	"199"	"8054197"	"0.0-6.0-2.0-1.7"	"yhabs7"	"563"	"1034"	"chrome"	"111.0.0"	"FALSE"	"Windows 10"	"60.16"	"047"	n/a	n/a	n/a	n/a	n/a	n/a	"Trial"	n/a	n/a	n/a	"501"	"arrowright"	n/a	"NULL"	"NULL"	"NULL"	"stimuli/VerticalHorizontal_-11.78571_-0.1096.png"	n/a	"VerticalHorizontal"	"arrowright"	"1044"	"TRUE"	"VerticalHorizontal"	"-11.78571000"	"-0.109600000"	"2"	"8"
n/a	"html-keyboard-response"	"200"	"8055621"	"0.0-6.0-2.0-0.8"	"yhabs7"	"563"	"1034"	"chrome"	"111.0.0"	"FALSE"	"Windows 10"	"60.16"	"047"	n/a	n/a	n/a	n/a	n/a	n/a	"fixation"	n/a	n/a	n/a	n/a	"NULL"	n/a	"NULL"	"NULL"	"NULL"	"<p style=\"color: black; font-size: 80px; padding-left: 2%; padding-right: 3%; padding-top: 13%; padding-bottom: 8%\">+</p>"	"1410"	n/a	n/a	n/a	n/a	n/a	n/a	n/a	n/a	n/a
n/a	"image-keyboard-response"	"201"	"8055995"	"0.0-6.0-2.0-1.8"	"yhabs7"	"563"	"1034"	"chrome"	"111.0.0"	"FALSE"	"Windows 10"	"60.16"	"047"	n/a	n/a	n/a	n/a	n/a	n/a	"Trial"	n/a	n/a	n/a	"373"	"arrowright"	n/a	"NULL"	"NULL"	"NULL"	"stimuli/VerticalHorizontal_28.75714_0.22500.png"	n/a	"VerticalHorizontal"	"arrowleft"	"1424"	"FALSE"	"VerticalHorizontal"	"28.757140000"	"0.2250000000"	"2"	"9"
n/a	"html-keyboard-response"	"202"	"8057108"	"0.0-6.0-2.0-0.9"	"yhabs7"	"563"	"1034"	"chrome"	"111.0.0"	"FALSE"	"Windows 10"	"60.16"	"047"	n/a	n/a	n/a	n/a	n/a	n/a	"fixation"	n/a	n/a	n/a	n/a	"NULL"	n/a	"NULL"	"NULL"	"NULL"	"<p style=\"color: black; font-size: 80px; padding-left: 29%; padding-right: 17%; padding-top: 24%; padding-bottom: 31%\">+</p>"	"1097"	n/a	n/a	n/a	n/a	n/a	n/a	n/a	n/a	n/a
n/a	"image-keyboard-response"	"203"	"8057670"	"0.0-6.0-2.0-1.9"	"yhabs7"	"563"	"1034"	"chrome"	"111.0.0"	"FALSE"	"Windows 10"	"60.16"	"047"	n/a	n/a	n/a	n/a	n/a	n/a	"Trial"	n/a	n/a	n/a	"560"	"arrowright"	n/a	"NULL"	"NULL"	"NULL"	"stimuli/VerticalHorizontal_-3.3000_-0.1096.png"	n/a	"VerticalHorizontal"	"arrowright"	"1113"	"TRUE"	"VerticalHorizontal"	"-3.300000000"	"-0.109600000"	"2"	"10"
n/a	"html-keyboard-response"	"204"	"8058714"	"0.0-6.0-2.0-0.10"	"yhabs7"	"563"	"1034"	"chrome"	"111.0.0"	"FALSE"	"Windows 10"	"60.16"	"047"	n/a	n/a	n/a	n/a	n/a	n/a	"fixation"	n/a	n/a	n/a	n/a	"NULL"	n/a	"NULL"	"NULL"	"NULL"	"<p style=\"color: black; font-size: 80px; padding-left: 44%; padding-right: 33%; padding-top: 31%; padding-bottom: 1%\">+</p>"	"1035"	n/a	n/a	n/a	n/a	n/a	n/a	n/a	n/a	n/a
n/a	"image-keyboard-response"	"205"	"8059179"	"0.0-6.0-2.0-1.10"	"yhabs7"	"563"	"1034"	"chrome"	"111.0.0"	"FALSE"	"Windows 10"	"60.16"	"047"	n/a	n/a	n/a	n/a	n/a	n/a	"Trial"	n/a	n/a	n/a	"464"	"arrowleft"	n/a	"NULL"	"NULL"	"NULL"	"stimuli/VerticalHorizontal_-28.75714_0.06730.png"	n/a	"VerticalHorizontal"	"arrowleft"	"1044"	"TRUE"	"VerticalHorizontal"	"-28.75714000"	"0.0673000000"	"2"	"11"
n/a	"html-keyboard-response"	"206"	"8060197"	"0.0-6.0-2.0-0.11"	"yhabs7"	"563"	"1034"	"chrome"	"111.0.0"	"FALSE"	"Windows 10"	"60.16"	"047"	n/a	n/a	n/a	n/a	n/a	n/a	"fixation"	n/a	n/a	n/a	n/a	"NULL"	n/a	"NULL"	"NULL"	"NULL"	"<p style=\"color: black; font-size: 80px; padding-left: 4%; padding-right: 46%; padding-top: 35%; padding-bottom: 26%\">+</p>"	"1016"	n/a	n/a	n/a	n/a	n/a	n/a	n/a	n/a	n/a
n/a	"image-keyboard-response"	"207"	"8060876"	"0.0-6.0-2.0-1.11"	"yhabs7"	"563"	"1034"	"chrome"	"111.0.0"	"FALSE"	"Windows 10"	"60.16"	"047"	n/a	n/a	n/a	n/a	n/a	n/a	"Trial"	n/a	n/a	n/a	"678"	"arrowleft"	n/a	"NULL"	"NULL"	"NULL"	"stimuli/VerticalHorizontal_3.30000_0.16217.png"	n/a	"VerticalHorizontal"	"arrowleft"	"1018"	"TRUE"	"VerticalHorizontal"	"3.3000000000"	"0.1621700000"	"2"	"12"
n/a	"html-keyboard-response"	"208"	"8062240"	"0.0-6.0-2.0-0.12"	"yhabs7"	"563"	"1034"	"chrome"	"111.0.0"	"FALSE"	"Windows 10"	"60.16"	"047"	n/a	n/a	n/a	n/a	n/a	n/a	"fixation"	n/a	n/a	n/a	n/a	"NULL"	n/a	"NULL"	"NULL"	"NULL"	"<p style=\"color: black; font-size: 80px; padding-left: 39%; padding-right: 47%; padding-top: 28%; padding-bottom: 43%\">+</p>"	"1362"	n/a	n/a	n/a	n/a	n/a	n/a	n/a	n/a	n/a
n/a	"image-keyboard-response"	"209"	"8062929"	"0.0-6.0-2.0-1.12"	"yhabs7"	"563"	"1034"	"chrome"	"111.0.0"	"FALSE"	"Windows 10"	"60.16"	"047"	n/a	n/a	n/a	n/a	n/a	n/a	"Trial"	n/a	n/a	n/a	"688"	"arrowleft"	n/a	"NULL"	"NULL"	"NULL"	"stimuli/VerticalHorizontal_11.78571_0.22500.png"	n/a	"VerticalHorizontal"	"arrowleft"	"1364"	"TRUE"	"VerticalHorizontal"	"11.785710000"	"0.2250000000"	"2"	"13"
n/a	"html-keyboard-response"	"210"	"8063992"	"0.0-6.0-2.0-0.13"	"yhabs7"	"563"	"1034"	"chrome"	"111.0.0"	"FALSE"	"Windows 10"	"60.16"	"047"	n/a	n/a	n/a	n/a	n/a	n/a	"fixation"	n/a	n/a	n/a	n/a	"NULL"	n/a	"NULL"	"NULL"	"NULL"	"<p style=\"color: black; font-size: 80px; padding-left: 39%; padding-right: 37%; padding-top: 39%; padding-bottom: 8%\">+</p>"	"1059"	n/a	n/a	n/a	n/a	n/a	n/a	n/a	n/a	n/a
n/a	"image-keyboard-response"	"211"	"8064812"	"0.0-6.0-2.0-1.13"	"yhabs7"	"563"	"1034"	"chrome"	"111.0.0"	"FALSE"	"Windows 10"	"60.16"	"047"	n/a	n/a	n/a	n/a	n/a	n/a	"Trial"	n/a	n/a	n/a	"820"	"arrowleft"	n/a	"NULL"	"NULL"	"NULL"	"stimuli/VerticalHorizontal_-11.78571_0.10960.png"	n/a	"VerticalHorizontal"	"arrowleft"	"1063"	"TRUE"	"VerticalHorizontal"	"-11.78571000"	"0.1096000000"	"2"	"14"
n/a	"html-keyboard-response"	"212"	"8065842"	"0.0-6.0-2.0-0.14"	"yhabs7"	"563"	"1034"	"chrome"	"111.0.0"	"FALSE"	"Windows 10"	"60.16"	"047"	n/a	n/a	n/a	n/a	n/a	n/a	"fixation"	n/a	n/a	n/a	n/a	"NULL"	n/a	"NULL"	"NULL"	"NULL"	"<p style=\"color: black; font-size: 80px; padding-left: 3%; padding-right: 10%; padding-top: 41%; padding-bottom: 19%\">+</p>"	"1017"	n/a	n/a	n/a	n/a	n/a	n/a	n/a	n/a	n/a
n/a	"image-keyboard-response"	"213"	"8066363"	"0.0-6.0-2.0-1.14"	"yhabs7"	"563"	"1034"	"chrome"	"111.0.0"	"FALSE"	"Windows 10"	"60.16"	"047"	n/a	n/a	n/a	n/a	n/a	n/a	"Trial"	n/a	n/a	n/a	"520"	"arrowleft"	n/a	"NULL"	"NULL"	"NULL"	"stimuli/VerticalHorizontal_-3.3000_0.22500.png"	n/a	"VerticalHorizontal"	"arrowleft"	"1030"	"TRUE"	"VerticalHorizontal"	"-3.300000000"	"0.2250000000"	"2"	"15"
n/a	"html-keyboard-response"	"214"	"8067747"	"0.0-6.0-2.0-0.15"	"yhabs7"	"563"	"1034"	"chrome"	"111.0.0"	"FALSE"	"Windows 10"	"60.16"	"047"	n/a	n/a	n/a	n/a	n/a	n/a	"fixation"	n/a	n/a	n/a	n/a	"NULL"	n/a	"NULL"	"NULL"	"NULL"	"<p style=\"color: black; font-size: 80px; padding-left: 44%; padding-right: 25%; padding-top: 32%; padding-bottom: 41%\">+</p>"	"1375"	n/a	n/a	n/a	n/a	n/a	n/a	n/a	n/a	n/a
n/a	"image-keyboard-response"	"215"	"8068270"	"0.0-6.0-2.0-1.15"	"yhabs7"	"563"	"1034"	"chrome"	"111.0.0"	"FALSE"	"Windows 10"	"60.16"	"047"	n/a	n/a	n/a	n/a	n/a	n/a	"Trial"	n/a	n/a	n/a	"522"	"arrowright"	n/a	"NULL"	"NULL"	"NULL"	"stimuli/VerticalHorizontal_-11.78571_-0.0673.png"	n/a	"VerticalHorizontal"	"arrowright"	"1384"	"TRUE"	"VerticalHorizontal"	"-11.78571000"	"-0.067300000"	"2"	"16"
n/a	"html-keyboard-response"	"216"	"8069697"	"0.0-6.0-2.0-0.16"	"yhabs7"	"563"	"1034"	"chrome"	"111.0.0"	"FALSE"	"Windows 10"	"60.16"	"047"	n/a	n/a	n/a	n/a	n/a	n/a	"fixation"	n/a	n/a	n/a	n/a	"NULL"	n/a	"NULL"	"NULL"	"NULL"	"<p style=\"color: black; font-size: 80px; padding-left: 31%; padding-right: 23%; padding-top: 35%; padding-bottom: 45%\">+</p>"	"1422"	n/a	n/a	n/a	n/a	n/a	n/a	n/a	n/a	n/a
n/a	"image-keyboard-response"	"217"	"8070191"	"0.0-6.0-2.0-1.16"	"yhabs7"	"563"	"1034"	"chrome"	"111.0.0"	"FALSE"	"Windows 10"	"60.16"	"047"	n/a	n/a	n/a	n/a	n/a	n/a	"Trial"	n/a	n/a	n/a	"490"	"arrowright"	n/a	"NULL"	"NULL"	"NULL"	"stimuli/VerticalHorizontal_-3.3000_-0.2250.png"	n/a	"VerticalHorizontal"	"arrowright"	"1427"	"TRUE"	"VerticalHorizontal"	"-3.300000000"	"-0.225000000"	"2"	"17"
n/a	"html-keyboard-response"	"218"	"8071292"	"0.0-6.0-2.0-0.17"	"yhabs7"	"563"	"1034"	"chrome"	"111.0.0"	"FALSE"	"Windows 10"	"60.16"	"047"	n/a	n/a	n/a	n/a	n/a	n/a	"fixation"	n/a	n/a	n/a	n/a	"NULL"	n/a	"NULL"	"NULL"	"NULL"	"<p style=\"color: black; font-size: 80px; padding-left: 35%; padding-right: 47%; padding-top: 27%; padding-bottom: 25%\">+</p>"	"1094"	n/a	n/a	n/a	n/a	n/a	n/a	n/a	n/a	n/a
n/a	"image-keyboard-response"	"219"	"8071780"	"0.0-6.0-2.0-1.17"	"yhabs7"	"563"	"1034"	"chrome"	"111.0.0"	"FALSE"	"Windows 10"	"60.16"	"047"	n/a	n/a	n/a	n/a	n/a	n/a	"Trial"	n/a	n/a	n/a	"487"	"arrowleft"	n/a	"NULL"	"NULL"	"NULL"	"stimuli/VerticalHorizontal_-20.27143_0.22500.png"	n/a	"VerticalHorizontal"	"arrowleft"	"1101"	"TRUE"	"VerticalHorizontal"	"-20.27143000"	"0.2250000000"	"2"	"18"
n/a	"html-keyboard-response"	"220"	"8073116"	"0.0-6.0-2.0-0.18"	"yhabs7"	"563"	"1034"	"chrome"	"111.0.0"	"FALSE"	"Windows 10"	"60.16"	"047"	n/a	n/a	n/a	n/a	n/a	n/a	"fixation"	n/a	n/a	n/a	n/a	"NULL"	n/a	"NULL"	"NULL"	"NULL"	"<p style=\"color: black; font-size: 80px; padding-left: 34%; padding-right: 14%; padding-top: 6%; padding-bottom: 42%\">+</p>"	"1329"	n/a	n/a	n/a	n/a	n/a	n/a	n/a	n/a	n/a
n/a	"image-keyboard-response"	"221"	"8073607"	"0.0-6.0-2.0-1.18"	"yhabs7"	"563"	"1034"	"chrome"	"111.0.0"	"FALSE"	"Windows 10"	"60.16"	"047"	n/a	n/a	n/a	n/a	n/a	n/a	"Trial"	n/a	n/a	n/a	"489"	"arrowright"	n/a	"NULL"	"NULL"	"NULL"	"stimuli/VerticalHorizontal_20.27143_0.16217.png"	n/a	"VerticalHorizontal"	"arrowleft"	"1336"	"FALSE"	"VerticalHorizontal"	"20.271430000"	"0.1621700000"	"2"	"19"
n/a	"html-keyboard-response"	"222"	"8074646"	"0.0-6.0-2.0-0.19"	"yhabs7"	"563"	"1034"	"chrome"	"111.0.0"	"FALSE"	"Windows 10"	"60.16"	"047"	n/a	n/a	n/a	n/a	n/a	n/a	"fixation"	n/a	n/a	n/a	n/a	"NULL"	n/a	"NULL"	"NULL"	"NULL"	"<p style=\"color: black; font-size: 80px; padding-left: 48%; padding-right: 50%; padding-top: 8%; padding-bottom: 19%\">+</p>"	"1036"	n/a	n/a	n/a	n/a	n/a	n/a	n/a	n/a	n/a
n/a	"image-keyboard-response"	"223"	"8075346"	"0.0-6.0-2.0-1.19"	"yhabs7"	"563"	"1034"	"chrome"	"111.0.0"	"FALSE"	"Windows 10"	"60.16"	"047"	n/a	n/a	n/a	n/a	n/a	n/a	"Trial"	n/a	n/a	n/a	"699"	"arrowright"	n/a	"NULL"	"NULL"	"NULL"	"stimuli/VerticalHorizontal_-3.3000_-0.16217.png"	n/a	"VerticalHorizontal"	"arrowright"	"1039"	"TRUE"	"VerticalHorizontal"	"-3.300000000"	"-0.162170000"	"2"	"20"
n/a	"html-keyboard-response"	"224"	"8076826"	"0.0-6.0-2.0-0.20"	"yhabs7"	"563"	"1034"	"chrome"	"111.0.0"	"FALSE"	"Windows 10"	"60.16"	"047"	n/a	n/a	n/a	n/a	n/a	n/a	"fixation"	n/a	n/a	n/a	n/a	"NULL"	n/a	"NULL"	"NULL"	"NULL"	"<p style=\"color: black; font-size: 80px; padding-left: 11%; padding-right: 18%; padding-top: 9%; padding-bottom: 10%\">+</p>"	"1471"	n/a	n/a	n/a	n/a	n/a	n/a	n/a	n/a	n/a
n/a	"image-keyboard-response"	"225"	"8077660"	"0.0-6.0-2.0-1.20"	"yhabs7"	"563"	"1034"	"chrome"	"111.0.0"	"FALSE"	"Windows 10"	"60.16"	"047"	n/a	n/a	n/a	n/a	n/a	n/a	"Trial"	n/a	n/a	n/a	"833"	"arrowright"	n/a	"NULL"	"NULL"	"NULL"	"stimuli/VerticalHorizontal_28.75714_0.06730.png"	n/a	"VerticalHorizontal"	"arrowleft"	"1480"	"FALSE"	"VerticalHorizontal"	"28.757140000"	"0.0673000000"	"2"	"21"
n/a	"html-keyboard-response"	"226"	"8079084"	"0.0-6.0-2.0-0.21"	"yhabs7"	"563"	"1034"	"chrome"	"111.0.0"	"FALSE"	"Windows 10"	"60.16"	"047"	n/a	n/a	n/a	n/a	n/a	n/a	"fixation"	n/a	n/a	n/a	n/a	"NULL"	n/a	"NULL"	"NULL"	"NULL"	"<p style=\"color: black; font-size: 80px; padding-left: 22%; padding-right: 40%; padding-top: 10%; padding-bottom: 20%\">+</p>"	"1416"	n/a	n/a	n/a	n/a	n/a	n/a	n/a	n/a	n/a
n/a	"image-keyboard-response"	"227"	"8080156"	"0.0-6.0-2.0-1.21"	"yhabs7"	"563"	"1034"	"chrome"	"111.0.0"	"FALSE"	"Windows 10"	"60.16"	"047"	n/a	n/a	n/a	n/a	n/a	n/a	"Trial"	n/a	n/a	n/a	"1071"	"arrowright"	n/a	"NULL"	"NULL"	"NULL"	"stimuli/VerticalHorizontal_20.27143_-0.16217.png"	n/a	"VerticalHorizontal"	"arrowright"	"1424"	"TRUE"	"VerticalHorizontal"	"20.271430000"	"-0.162170000"	"2"	"22"
n/a	"html-keyboard-response"	"228"	"8081502"	"0.0-6.0-2.0-0.22"	"yhabs7"	"563"	"1034"	"chrome"	"111.0.0"	"FALSE"	"Windows 10"	"60.16"	"047"	n/a	n/a	n/a	n/a	n/a	n/a	"fixation"	n/a	n/a	n/a	n/a	"NULL"	n/a	"NULL"	"NULL"	"NULL"	"<p style=\"color: black; font-size: 80px; padding-left: 48%; padding-right: 30%; padding-top: 46%; padding-bottom: 6%\">+</p>"	"1345"	n/a	n/a	n/a	n/a	n/a	n/a	n/a	n/a	n/a
n/a	"image-keyboard-response"	"229"	"8082102"	"0.0-6.0-2.0-1.22"	"yhabs7"	"563"	"1034"	"chrome"	"111.0.0"	"FALSE"	"Windows 10"	"60.16"	"047"	n/a	n/a	n/a	n/a	n/a	n/a	"Trial"	n/a	n/a	n/a	"600"	"arrowleft"	n/a	"NULL"	"NULL"	"NULL"	"stimuli/VerticalHorizontal_-11.78571_0.06730.png"	n/a	"VerticalHorizontal"	"arrowleft"	"1346"	"TRUE"	"VerticalHorizontal"	"-11.78571000"	"0.0673000000"	"2"	"23"
n/a	"html-keyboard-response"	"230"	"8083604"	"0.0-6.0-2.0-0.23"	"yhabs7"	"563"	"1034"	"chrome"	"111.0.0"	"FALSE"	"Windows 10"	"60.16"	"047"	n/a	n/a	n/a	n/a	n/a	n/a	"fixation"	n/a	n/a	n/a	n/a	"NULL"	n/a	"NULL"	"NULL"	"NULL"	"<p style=\"color: black; font-size: 80px; padding-left: 9%; padding-right: 16%; padding-top: 45%; padding-bottom: 24%\">+</p>"	"1494"	n/a	n/a	n/a	n/a	n/a	n/a	n/a	n/a	n/a
n/a	"image-keyboard-response"	"231"	"8084284"	"0.0-6.0-2.0-1.23"	"yhabs7"	"563"	"1034"	"chrome"	"111.0.0"	"FALSE"	"Windows 10"	"60.16"	"047"	n/a	n/a	n/a	n/a	n/a	n/a	"Trial"	n/a	n/a	n/a	"679"	"arrowleft"	n/a	"NULL"	"NULL"	"NULL"	"stimuli/VerticalHorizontal_11.78571_0.10960.png"	n/a	"VerticalHorizontal"	"arrowleft"	"1502"	"TRUE"	"VerticalHorizontal"	"11.785710000"	"0.1096000000"	"2"	"24"
n/a	"html-keyboard-response"	"232"	"8085402"	"0.0-6.0-2.0-0.24"	"yhabs7"	"563"	"1034"	"chrome"	"111.0.0"	"FALSE"	"Windows 10"	"60.16"	"047"	n/a	n/a	n/a	n/a	n/a	n/a	"fixation"	n/a	n/a	n/a	n/a	"NULL"	n/a	"NULL"	"NULL"	"NULL"	"<p style=\"color: black; font-size: 80px; padding-left: 2%; padding-right: 48%; padding-top: 47%; padding-bottom: 32%\">+</p>"	"1105"	n/a	n/a	n/a	n/a	n/a	n/a	n/a	n/a	n/a
n/a	"image-keyboard-response"	"233"	"8086139"	"0.0-6.0-2.0-1.24"	"yhabs7"	"563"	"1034"	"chrome"	"111.0.0"	"FALSE"	"Windows 10"	"60.16"	"047"	n/a	n/a	n/a	n/a	n/a	n/a	"Trial"	n/a	n/a	n/a	"736"	"arrowright"	n/a	"NULL"	"NULL"	"NULL"	"stimuli/VerticalHorizontal_28.75714_-0.2250.png"	n/a	"VerticalHorizontal"	"arrowright"	"1118"	"TRUE"	"VerticalHorizontal"	"28.757140000"	"-0.225000000"	"2"	"25"
n/a	"html-keyboard-response"	"234"	"8087445"	"0.0-6.0-2.0-0.25"	"yhabs7"	"563"	"1034"	"chrome"	"111.0.0"	"FALSE"	"Windows 10"	"60.16"	"047"	n/a	n/a	n/a	n/a	n/a	n/a	"fixation"	n/a	n/a	n/a	n/a	"NULL"	n/a	"NULL"	"NULL"	"NULL"	"<p style=\"color: black; font-size: 80px; padding-left: 6%; padding-right: 47%; padding-top: 11%; padding-bottom: 36%\">+</p>"	"1295"	n/a	n/a	n/a	n/a	n/a	n/a	n/a	n/a	n/a
n/a	"image-keyboard-response"	"235"	"8088047"	"0.0-6.0-2.0-1.25"	"yhabs7"	"563"	"1034"	"chrome"	"111.0.0"	"FALSE"	"Windows 10"	"60.16"	"047"	n/a	n/a	n/a	n/a	n/a	n/a	"Trial"	n/a	n/a	n/a	"601"	"arrowleft"	n/a	"NULL"	"NULL"	"NULL"	"stimuli/VerticalHorizontal_3.30000_0.10960.png"	n/a	"VerticalHorizontal"	"arrowleft"	"1306"	"TRUE"	"VerticalHorizontal"	"3.3000000000"	"0.1096000000"	"2"	"26"
n/a	"html-keyboard-response"	"236"	"8089492"	"0.0-6.0-2.0-0.26"	"yhabs7"	"563"	"1034"	"chrome"	"111.0.0"	"FALSE"	"Windows 10"	"60.16"	"047"	n/a	n/a	n/a	n/a	n/a	n/a	"fixation"	n/a	n/a	n/a	n/a	"NULL"	n/a	"NULL"	"NULL"	"NULL"	"<p style=\"color: black; font-size: 80px; padding-left: 32%; padding-right: 29%; padding-top: 29%; padding-bottom: 42%\">+</p>"	"1443"	n/a	n/a	n/a	n/a	n/a	n/a	n/a	n/a	n/a
n/a	"image-keyboard-response"	"237"	"8089987"	"0.0-6.0-2.0-1.26"	"yhabs7"	"563"	"1034"	"chrome"	"111.0.0"	"FALSE"	"Windows 10"	"60.16"	"047"	n/a	n/a	n/a	n/a	n/a	n/a	"Trial"	n/a	n/a	n/a	"494"	"arrowright"	n/a	"NULL"	"NULL"	"NULL"	"stimuli/VerticalHorizontal_-20.27143_-0.0673.png"	n/a	"VerticalHorizontal"	"arrowright"	"1445"	"TRUE"	"VerticalHorizontal"	"-20.27143000"	"-0.067300000"	"2"	"27"
n/a	"html-keyboard-response"	"238"	"8091024"	"0.0-6.0-2.0-0.27"	"yhabs7"	"563"	"1034"	"chrome"	"111.0.0"	"FALSE"	"Windows 10"	"60.16"	"047"	n/a	n/a	n/a	n/a	n/a	n/a	"fixation"	n/a	n/a	n/a	n/a	"NULL"	n/a	"NULL"	"NULL"	"NULL"	"<p style=\"color: black; font-size: 80px; padding-left: 4%; padding-right: 44%; padding-top: 0%; padding-bottom: 45%\">+</p>"	"1029"	n/a	n/a	n/a	n/a	n/a	n/a	n/a	n/a	n/a
n/a	"image-keyboard-response"	"239"	"8091898"	"0.0-6.0-2.0-1.27"	"yhabs7"	"563"	"1034"	"chrome"	"111.0.0"	"FALSE"	"Windows 10"	"60.16"	"047"	n/a	n/a	n/a	n/a	n/a	n/a	"Trial"	n/a	n/a	n/a	"873"	"arrowright"	n/a	"NULL"	"NULL"	"NULL"	"stimuli/VerticalHorizontal_20.27143_-0.1096.png"	n/a	"VerticalHorizontal"	"arrowright"	"1037"	"TRUE"	"VerticalHorizontal"	"20.271430000"	"-0.109600000"	"2"	"28"
n/a	"html-keyboard-response"	"240"	"8093020"	"0.0-6.0-2.0-0.28"	"yhabs7"	"563"	"1034"	"chrome"	"111.0.0"	"FALSE"	"Windows 10"	"60.16"	"047"	n/a	n/a	n/a	n/a	n/a	n/a	"fixation"	n/a	n/a	n/a	n/a	"NULL"	n/a	"NULL"	"NULL"	"NULL"	"<p style=\"color: black; font-size: 80px; padding-left: 5%; padding-right: 4%; padding-top: 33%; padding-bottom: 41%\">+</p>"	"1115"	n/a	n/a	n/a	n/a	n/a	n/a	n/a	n/a	n/a
n/a	"image-keyboard-response"	"241"	"8093796"	"0.0-6.0-2.0-1.28"	"yhabs7"	"563"	"1034"	"chrome"	"111.0.0"	"FALSE"	"Windows 10"	"60.16"	"047"	n/a	n/a	n/a	n/a	n/a	n/a	"Trial"	n/a	n/a	n/a	"773"	"arrowright"	n/a	"NULL"	"NULL"	"NULL"	"stimuli/VerticalHorizontal_28.75714_0.16217.png"	n/a	"VerticalHorizontal"	"arrowleft"	"1122"	"FALSE"	"VerticalHorizontal"	"28.757140000"	"0.1621700000"	"2"	"29"
n/a	"html-keyboard-response"	"242"	"8095135"	"0.0-6.0-2.0-0.29"	"yhabs7"	"563"	"1034"	"chrome"	"111.0.0"	"FALSE"	"Windows 10"	"60.16"	"047"	n/a	n/a	n/a	n/a	n/a	n/a	"fixation"	n/a	n/a	n/a	n/a	"NULL"	n/a	"NULL"	"NULL"	"NULL"	"<p style=\"color: black; font-size: 80px; padding-left: 38%; padding-right: 28%; padding-top: 26%; padding-bottom: 27%\">+</p>"	"1337"	n/a	n/a	n/a	n/a	n/a	n/a	n/a	n/a	n/a
n/a	"image-keyboard-response"	"243"	"8095896"	"0.0-6.0-2.0-1.29"	"yhabs7"	"563"	"1034"	"chrome"	"111.0.0"	"FALSE"	"Windows 10"	"60.16"	"047"	n/a	n/a	n/a	n/a	n/a	n/a	"Trial"	n/a	n/a	n/a	"761"	"arrowright"	n/a	"NULL"	"NULL"	"NULL"	"stimuli/VerticalHorizontal_11.78571_-0.1096.png"	n/a	"VerticalHorizontal"	"arrowright"	"1339"	"TRUE"	"VerticalHorizontal"	"11.785710000"	"-0.109600000"	"2"	"30"
n/a	"html-keyboard-response"	"244"	"8097061"	"0.0-6.0-2.0-0.30"	"yhabs7"	"563"	"1034"	"chrome"	"111.0.0"	"FALSE"	"Windows 10"	"60.16"	"047"	n/a	n/a	n/a	n/a	n/a	n/a	"fixation"	n/a	n/a	n/a	n/a	"NULL"	n/a	"NULL"	"NULL"	"NULL"	"<p style=\"color: black; font-size: 80px; padding-left: 48%; padding-right: 38%; padding-top: 3%; padding-bottom: 6%\">+</p>"	"1160"	n/a	n/a	n/a	n/a	n/a	n/a	n/a	n/a	n/a
n/a	"image-keyboard-response"	"245"	"8097700"	"0.0-6.0-2.0-1.30"	"yhabs7"	"563"	"1034"	"chrome"	"111.0.0"	"FALSE"	"Windows 10"	"60.16"	"047"	n/a	n/a	n/a	n/a	n/a	n/a	"Trial"	n/a	n/a	n/a	"638"	"arrowleft"	n/a	"NULL"	"NULL"	"NULL"	"stimuli/VerticalHorizontal_28.75714_-0.1096.png"	n/a	"VerticalHorizontal"	"arrowright"	"1165"	"FALSE"	"VerticalHorizontal"	"28.757140000"	"-0.109600000"	"2"	"31"
n/a	"html-keyboard-response"	"246"	"8099156"	"0.0-6.0-2.0-0.31"	"yhabs7"	"563"	"1034"	"chrome"	"111.0.0"	"FALSE"	"Windows 10"	"60.16"	"047"	n/a	n/a	n/a	n/a	n/a	n/a	"fixation"	n/a	n/a	n/a	n/a	"NULL"	n/a	"NULL"	"NULL"	"NULL"	"<p style=\"color: black; font-size: 80px; padding-left: 3%; padding-right: 15%; padding-top: 42%; padding-bottom: 8%\">+</p>"	"1447"	n/a	n/a	n/a	n/a	n/a	n/a	n/a	n/a	n/a
n/a	"image-keyboard-response"	"247"	"8099653"	"0.0-6.0-2.0-1.31"	"yhabs7"	"563"	"1034"	"chrome"	"111.0.0"	"FALSE"	"Windows 10"	"60.16"	"047"	n/a	n/a	n/a	n/a	n/a	n/a	"Trial"	n/a	n/a	n/a	"495"	"arrowright"	n/a	"NULL"	"NULL"	"NULL"	"stimuli/VerticalHorizontal_-28.75714_-0.16217.png"	n/a	"VerticalHorizontal"	"arrowright"	"1456"	"TRUE"	"VerticalHorizontal"	"-28.75714000"	"-0.162170000"	"2"	"32"
n/a	"html-keyboard-response"	"248"	"8100674"	"0.0-6.0-2.0-0.32"	"yhabs7"	"563"	"1034"	"chrome"	"111.0.0"	"FALSE"	"Windows 10"	"60.16"	"047"	n/a	n/a	n/a	n/a	n/a	n/a	"fixation"	n/a	n/a	n/a	n/a	"NULL"	n/a	"NULL"	"NULL"	"NULL"	"<p style=\"color: black; font-size: 80px; padding-left: 29%; padding-right: 29%; padding-top: 2%; padding-bottom: 3%\">+</p>"	"1006"	n/a	n/a	n/a	n/a	n/a	n/a	n/a	n/a	n/a
n/a	"image-keyboard-response"	"249"	"8101382"	"0.0-6.0-2.0-1.32"	"yhabs7"	"563"	"1034"	"chrome"	"111.0.0"	"FALSE"	"Windows 10"	"60.16"	"047"	n/a	n/a	n/a	n/a	n/a	n/a	"Trial"	n/a	n/a	n/a	"708"	"arrowleft"	n/a	"NULL"	"NULL"	"NULL"	"stimuli/VerticalHorizontal_28.75714_-0.0673.png"	n/a	"VerticalHorizontal"	"arrowright"	"1021"	"FALSE"	"VerticalHorizontal"	"28.757140000"	"-0.067300000"	"2"	"33"
n/a	"html-keyboard-response"	"250"	"8102783"	"0.0-6.0-2.0-0.33"	"yhabs7"	"563"	"1034"	"chrome"	"111.0.0"	"FALSE"	"Windows 10"	"60.16"	"047"	n/a	n/a	n/a	n/a	n/a	n/a	"fixation"	n/a	n/a	n/a	n/a	"NULL"	n/a	"NULL"	"NULL"	"NULL"	"<p style=\"color: black; font-size: 80px; padding-left: 8%; padding-right: 38%; padding-top: 47%; padding-bottom: 6%\">+</p>"	"1386"	n/a	n/a	n/a	n/a	n/a	n/a	n/a	n/a	n/a
