"success"	"trial_type"	"trial_index"	"time_elapsed"	"internal_node_id"	"participant_id"	"screen_height"	"screen_width"	"browser"	"browser_version"	"mobile"	"os"	"vsync_rate"	"width"	"height"	"webaudio"	"fullscreen"	"webcam"	"microphone"	"screen"	"version"	"date"	"time"	"timeout"	"failed_images"	"failed_audio"	"failed_video"	"rt"	"stimulus"	"response"	"trial_duration"	"block"	"correct_response"	"prestimulus_duration"	"correct"	"type"	"illusion_strength"	"illusion_difference"	"block_number"	"trial_number"
"TRUE"	"fullscreen"	"0"	"31470"	"0.0-0.0"	"yuqm8t"	"620"	"1022"	"chrome"	"108.0.0"	"FALSE"	"Windows 10"	"60.09"	n/a	n/a	n/a	n/a	n/a	n/a	n/a	n/a	n/a	n/a	n/a	"NULL"	"NULL"	"NULL"	n/a	n/a	n/a	n/a	n/a	n/a	n/a	n/a	n/a	n/a	n/a	n/a	n/a
n/a	"browser-check"	"1"	"32481"	"0.0-1.0"	"yuqm8t"	"620"	"1022"	"chrome"	"108.0.0"	"FALSE"	"Windows 10"	"60.09"	"1022"	"620"	"TRUE"	"TRUE"	"TRUE"	"TRUE"	"browser_info"	"1.0"	"24/12/2022"	"17:46:34"	n/a	"NULL"	"NULL"	"NULL"	n/a	n/a	n/a	n/a	n/a	n/a	n/a	n/a	n/a	n/a	n/a	n/a	n/a
"TRUE"	"preload"	"2"	"32491"	"0.0-2.0"	"yuqm8t"	"620"	"1022"	"chrome"	"108.0.0"	"FALSE"	"Windows 10"	"60.09"	n/a	n/a	n/a	n/a	n/a	n/a	n/a	n/a	n/a	n/a	"FALSE"	"list()"	"list()"	"list()"	n/a	n/a	n/a	n/a	n/a	n/a	n/a	n/a	n/a	n/a	n/a	n/a	n/a
n/a	"html-button-response"	"3"	"60555"	"0.0-3.0-0.0"	"yuqm8t"	"620"	"1022"	"chrome"	"108.0.0"	"FALSE"	"Windows 10"	"60.09"	n/a	n/a	n/a	n/a	n/a	n/a	"illusion_instructions"	n/a	n/a	n/a	n/a	"NULL"	"NULL"	"NULL"	"28062"	"<p><b>Illusion Game</b></p><p>In this game of speed and reflex, you will need to make <b>visual judgments</b> (for instance, which circle is the biggest, or which line is the longest), as fast and as correctly as possible, while <b>resisting different visual illusions</b>.</p><p>We are going to start with some examples of all the illusions you will encounter in the game.</p>"	"0"	n/a	n/a	n/a	n/a	n/a	n/a	n/a	n/a	n/a	n/a
"TRUE"	"preload"	"4"	"60873"	"0.0-3.0-1.0-0.0"	"yuqm8t"	"620"	"1022"	"chrome"	"108.0.0"	"FALSE"	"Windows 10"	"60.09"	n/a	n/a	n/a	n/a	n/a	n/a	n/a	n/a	n/a	n/a	"FALSE"	"list()"	"list()"	"list()"	n/a	n/a	n/a	n/a	n/a	n/a	n/a	n/a	n/a	n/a	n/a	n/a	n/a
n/a	"html-keyboard-response"	"5"	"73323"	"0.0-3.0-1.0-1.0"	"yuqm8t"	"620"	"1022"	"chrome"	"108.0.0"	"FALSE"	"Windows 10"	"60.09"	n/a	n/a	n/a	n/a	n/a	n/a	n/a	n/a	n/a	n/a	n/a	"NULL"	"NULL"	"NULL"	"12447"	"<p><b>Practice</b></p><p>In this part, two red circles will appear side by side on the screen.</p><p>Your task is to select which <b>red circle is bigger</b> in size as fast as you can, without making errors.</p><p>Don't get distracted by the surrounding black circles around the red circles!</p><p>Press <b>the LEFT or the RIGHT arrow</b> to indicate which is the bigger <b>red circle.</b></p><div style='float: center'><img src='materials/instructions/Ebbinghaus_Demo.png' height='300'></img><p><img src='utils/answer/answer_leftright_keyboard.PNG' height='150'></img></p><p class='small'>In this example, the correct answer is the <b>LEFT arrow</b>.</p></div><p>Are you ready? <b>Press ENTER to start</b></p>"	"enter"	n/a	n/a	n/a	n/a	n/a	n/a	n/a	n/a	n/a	n/a
n/a	"html-keyboard-response"	"6"	"75031"	"0.0-3.0-1.0-2.0-0.0"	"yuqm8t"	"620"	"1022"	"chrome"	"108.0.0"	"FALSE"	"Windows 10"	"60.09"	n/a	n/a	n/a	n/a	n/a	n/a	"fixation"	n/a	n/a	n/a	n/a	"NULL"	"NULL"	"NULL"	n/a	"<p style=\"color: black; font-size: 80px; padding-left: 31%; padding-right: 33%; padding-top: 24%; padding-bottom: 48%\">+</p>"	n/a	"1186"	n/a	n/a	n/a	n/a	n/a	n/a	n/a	n/a	n/a
n/a	"image-keyboard-response"	"7"	"77148"	"0.0-3.0-1.0-2.0-1.0"	"yuqm8t"	"620"	"1022"	"chrome"	"108.0.0"	"FALSE"	"Windows 10"	"60.09"	n/a	n/a	n/a	n/a	n/a	n/a	"Trial"	n/a	n/a	n/a	n/a	"NULL"	"NULL"	"NULL"	"2102"	"stimuli/Ebbinghaus_1000000_1.40000.png"	"arrowleft"	n/a	"Ebbinghaus"	"arrowleft"	"1708"	"TRUE"	"Ebbinghaus"	"100000000000"	"1.4000000000"	"1"	"1"
n/a	"html-keyboard-response"	"8"	"78263"	"0.0-3.0-1.0-2.0-0.1"	"yuqm8t"	"620"	"1022"	"chrome"	"108.0.0"	"FALSE"	"Windows 10"	"60.09"	n/a	n/a	n/a	n/a	n/a	n/a	"fixation"	n/a	n/a	n/a	n/a	"NULL"	"NULL"	"NULL"	n/a	"<p style=\"color: black; font-size: 80px; padding-left: 2%; padding-right: 28%; padding-top: 35%; padding-bottom: 33%\">+</p>"	n/a	"1096"	n/a	n/a	n/a	n/a	n/a	n/a	n/a	n/a	n/a
n/a	"image-keyboard-response"	"9"	"79240"	"0.0-3.0-1.0-2.0-1.1"	"yuqm8t"	"620"	"1022"	"chrome"	"108.0.0"	"FALSE"	"Windows 10"	"60.09"	n/a	n/a	n/a	n/a	n/a	n/a	"Trial"	n/a	n/a	n/a	n/a	"NULL"	"NULL"	"NULL"	"976"	"stimuli/Ebbinghaus_1000000_-1.4000.png"	"arrowright"	n/a	"Ebbinghaus"	"arrowright"	"1115"	"TRUE"	"Ebbinghaus"	"100000000000"	"-1.400000000"	"1"	"2"
n/a	"html-keyboard-response"	"10"	"80277"	"0.0-3.0-1.0-2.0-0.2"	"yuqm8t"	"620"	"1022"	"chrome"	"108.0.0"	"FALSE"	"Windows 10"	"60.09"	n/a	n/a	n/a	n/a	n/a	n/a	"fixation"	n/a	n/a	n/a	n/a	"NULL"	"NULL"	"NULL"	n/a	"<p style=\"color: black; font-size: 80px; padding-left: 14%; padding-right: 44%; padding-top: 32%; padding-bottom: 17%\">+</p>"	n/a	"1026"	n/a	n/a	n/a	n/a	n/a	n/a	n/a	n/a	n/a
n/a	"image-keyboard-response"	"11"	"81000"	"0.0-3.0-1.0-2.0-1.2"	"yuqm8t"	"620"	"1022"	"chrome"	"108.0.0"	"FALSE"	"Windows 10"	"60.09"	n/a	n/a	n/a	n/a	n/a	n/a	"Trial"	n/a	n/a	n/a	n/a	"NULL"	"NULL"	"NULL"	"722"	"stimuli/Ebbinghaus_0000000_1.40000.png"	"arrowleft"	n/a	"Ebbinghaus"	"arrowleft"	"1037"	"TRUE"	"Ebbinghaus"	"000000000000"	"1.4000000000"	"1"	"3"
n/a	"html-keyboard-response"	"12"	"82415"	"0.0-3.0-1.0-2.0-0.3"	"yuqm8t"	"620"	"1022"	"chrome"	"108.0.0"	"FALSE"	"Windows 10"	"60.09"	n/a	n/a	n/a	n/a	n/a	n/a	"fixation"	n/a	n/a	n/a	n/a	"NULL"	"NULL"	"NULL"	n/a	"<p style=\"color: black; font-size: 80px; padding-left: 48%; padding-right: 23%; padding-top: 26%; padding-bottom: 43%\">+</p>"	n/a	"1396"	n/a	n/a	n/a	n/a	n/a	n/a	n/a	n/a	n/a
n/a	"image-keyboard-response"	"13"	"83246"	"0.0-3.0-1.0-2.0-1.3"	"yuqm8t"	"620"	"1022"	"chrome"	"108.0.0"	"FALSE"	"Windows 10"	"60.09"	n/a	n/a	n/a	n/a	n/a	n/a	"Trial"	n/a	n/a	n/a	n/a	"NULL"	"NULL"	"NULL"	"830"	"stimuli/Ebbinghaus_0000000_-1.4000.png"	"arrowright"	n/a	"Ebbinghaus"	"arrowright"	"1415"	"TRUE"	"Ebbinghaus"	"000000000000"	"-1.400000000"	"1"	"4"
n/a	"html-keyboard-response"	"14"	"84740"	"0.0-3.0-1.0-2.0-0.4"	"yuqm8t"	"620"	"1022"	"chrome"	"108.0.0"	"FALSE"	"Windows 10"	"60.09"	n/a	n/a	n/a	n/a	n/a	n/a	"fixation"	n/a	n/a	n/a	n/a	"NULL"	"NULL"	"NULL"	n/a	"<p style=\"color: black; font-size: 80px; padding-left: 43%; padding-right: 27%; padding-top: 7%; padding-bottom: 31%\">+</p>"	n/a	"1481"	n/a	n/a	n/a	n/a	n/a	n/a	n/a	n/a	n/a
n/a	"image-keyboard-response"	"15"	"87950"	"0.0-3.0-1.0-2.0-1.4"	"yuqm8t"	"620"	"1022"	"chrome"	"108.0.0"	"FALSE"	"Windows 10"	"60.09"	n/a	n/a	n/a	n/a	n/a	n/a	"Trial"	n/a	n/a	n/a	n/a	"NULL"	"NULL"	"NULL"	"3210"	"stimuli/Ebbinghaus_-100000_-1.4000.png"	"arrowright"	n/a	"Ebbinghaus"	"arrowright"	"1494"	"TRUE"	"Ebbinghaus"	"-10000000000"	"-1.400000000"	"1"	"5"
n/a	"html-keyboard-response"	"16"	"89305"	"0.0-3.0-1.0-2.0-0.5"	"yuqm8t"	"620"	"1022"	"chrome"	"108.0.0"	"FALSE"	"Windows 10"	"60.09"	n/a	n/a	n/a	n/a	n/a	n/a	"fixation"	n/a	n/a	n/a	n/a	"NULL"	"NULL"	"NULL"	n/a	"<p style=\"color: black; font-size: 80px; padding-left: 46%; padding-right: 21%; padding-top: 32%; padding-bottom: 9%\">+</p>"	n/a	"1340"	n/a	n/a	n/a	n/a	n/a	n/a	n/a	n/a	n/a
n/a	"image-keyboard-response"	"17"	"91410"	"0.0-3.0-1.0-2.0-1.5"	"yuqm8t"	"620"	"1022"	"chrome"	"108.0.0"	"FALSE"	"Windows 10"	"60.09"	n/a	n/a	n/a	n/a	n/a	n/a	"Trial"	n/a	n/a	n/a	n/a	"NULL"	"NULL"	"NULL"	"2104"	"stimuli/Ebbinghaus_-100000_1.40000.png"	"arrowright"	n/a	"Ebbinghaus"	"arrowleft"	"1355"	"FALSE"	"Ebbinghaus"	"-10000000000"	"1.4000000000"	"1"	"6"
n/a	"html-button-response"	"18"	"104218"	"0.0-3.0-1.0-3.0"	"yuqm8t"	"620"	"1022"	"chrome"	"108.0.0"	"FALSE"	"Windows 10"	"60.09"	n/a	n/a	n/a	n/a	n/a	n/a	"practice_block_results"	n/a	n/a	n/a	n/a	"NULL"	"NULL"	"NULL"	"12804"	"<p style='color:rgb(76,175,80);'> Correct Responses: <b>83.33%</b></p><hr><p style='color:rgb(233,30,99);'> Average Response Time: <b>1657.33</b> ms.</p>"	"0"	n/a	n/a	n/a	n/a	n/a	n/a	n/a	n/a	n/a	n/a
"TRUE"	"preload"	"19"	"104740"	"0.0-3.0-2.0-0.0"	"yuqm8t"	"620"	"1022"	"chrome"	"108.0.0"	"FALSE"	"Windows 10"	"60.09"	n/a	n/a	n/a	n/a	n/a	n/a	n/a	n/a	n/a	n/a	"FALSE"	"list()"	"list()"	"list()"	n/a	n/a	n/a	n/a	n/a	n/a	n/a	n/a	n/a	n/a	n/a	n/a	n/a
n/a	"html-keyboard-response"	"20"	"123526"	"0.0-3.0-2.0-1.0"	"yuqm8t"	"620"	"1022"	"chrome"	"108.0.0"	"FALSE"	"Windows 10"	"60.09"	n/a	n/a	n/a	n/a	n/a	n/a	n/a	n/a	n/a	n/a	n/a	"NULL"	"NULL"	"NULL"	"18785"	"<p><b>Practice</b></p><p>In this part, two horizontal red lines will appear one above the other.</p><p>Your task is to select which <b>line is longer</b> in length as fast as you can, without making errors.</p><p>Don't get distracted by the surrounding black arrows at the end of the red lines!</p><p>Press <b>the UP or the DOWN arrow</b> to indicate where is the longer <b>red line.</b></p><div style='float: center'><img src='materials/instructions/MullerLyer_Demo.png' height='300'></img><p><img src='utils/answer/answer_updown_keyboard.PNG' height='150'></img></p><p class='small'>In this example, the correct answer is the <b>UP arrow</b>.</p></div><p>Are you ready? <b>Press ENTER to start</b></p>"	"enter"	n/a	n/a	n/a	n/a	n/a	n/a	n/a	n/a	n/a	n/a
n/a	"html-keyboard-response"	"21"	"125451"	"0.0-3.0-2.0-2.0-0.0"	"yuqm8t"	"620"	"1022"	"chrome"	"108.0.0"	"FALSE"	"Windows 10"	"60.09"	n/a	n/a	n/a	n/a	n/a	n/a	"fixation"	n/a	n/a	n/a	n/a	"NULL"	"NULL"	"NULL"	n/a	"<p style=\"color: black; font-size: 80px; padding-left: 38%; padding-right: 24%; padding-top: 41%; padding-bottom: 49%\">+</p>"	n/a	"1401"	n/a	n/a	n/a	n/a	n/a	n/a	n/a	n/a	n/a
n/a	"image-keyboard-response"	"22"	"126192"	"0.0-3.0-2.0-2.0-1.0"	"yuqm8t"	"620"	"1022"	"chrome"	"108.0.0"	"FALSE"	"Windows 10"	"60.09"	n/a	n/a	n/a	n/a	n/a	n/a	"Trial"	n/a	n/a	n/a	n/a	"NULL"	"NULL"	"NULL"	"739"	"stimuli/MullerLyer_2300000_-0.7000.png"	"arrowdown"	n/a	"MullerLyer"	"arrowdown"	"1925"	"TRUE"	"MullerLyer"	"230000000000"	"-0.700000000"	"1"	"7"
n/a	"html-keyboard-response"	"23"	"127588"	"0.0-3.0-2.0-2.0-0.1"	"yuqm8t"	"620"	"1022"	"chrome"	"108.0.0"	"FALSE"	"Windows 10"	"60.09"	n/a	n/a	n/a	n/a	n/a	n/a	"fixation"	n/a	n/a	n/a	n/a	"NULL"	"NULL"	"NULL"	n/a	"<p style=\"color: black; font-size: 80px; padding-left: 47%; padding-right: 44%; padding-top: 26%; padding-bottom: 36%\">+</p>"	n/a	"1382"	n/a	n/a	n/a	n/a	n/a	n/a	n/a	n/a	n/a
n/a	"image-keyboard-response"	"24"	"128235"	"0.0-3.0-2.0-2.0-1.1"	"yuqm8t"	"620"	"1022"	"chrome"	"108.0.0"	"FALSE"	"Windows 10"	"60.09"	n/a	n/a	n/a	n/a	n/a	n/a	"Trial"	n/a	n/a	n/a	n/a	"NULL"	"NULL"	"NULL"	"646"	"stimuli/MullerLyer_0000000_-0.7000.png"	"arrowdown"	n/a	"MullerLyer"	"arrowdown"	"1396"	"TRUE"	"MullerLyer"	"000000000000"	"-0.700000000"	"1"	"8"
n/a	"html-keyboard-response"	"25"	"129444"	"0.0-3.0-2.0-2.0-0.2"	"yuqm8t"	"620"	"1022"	"chrome"	"108.0.0"	"FALSE"	"Windows 10"	"60.09"	n/a	n/a	n/a	n/a	n/a	n/a	"fixation"	n/a	n/a	n/a	n/a	"NULL"	"NULL"	"NULL"	n/a	"<p style=\"color: black; font-size: 80px; padding-left: 11%; padding-right: 13%; padding-top: 47%; padding-bottom: 50%\">+</p>"	n/a	"1200"	n/a	n/a	n/a	n/a	n/a	n/a	n/a	n/a	n/a
n/a	"image-keyboard-response"	"26"	"130047"	"0.0-3.0-2.0-2.0-1.2"	"yuqm8t"	"620"	"1022"	"chrome"	"108.0.0"	"FALSE"	"Windows 10"	"60.09"	n/a	n/a	n/a	n/a	n/a	n/a	"Trial"	n/a	n/a	n/a	n/a	"NULL"	"NULL"	"NULL"	"601"	"stimuli/MullerLyer_0000000_0.70000.png"	"arrowup"	n/a	"MullerLyer"	"arrowup"	"1209"	"TRUE"	"MullerLyer"	"000000000000"	"0.7000000000"	"1"	"9"
n/a	"html-keyboard-response"	"27"	"131513"	"0.0-3.0-2.0-2.0-0.3"	"yuqm8t"	"620"	"1022"	"chrome"	"108.0.0"	"FALSE"	"Windows 10"	"60.09"	n/a	n/a	n/a	n/a	n/a	n/a	"fixation"	n/a	n/a	n/a	n/a	"NULL"	"NULL"	"NULL"	n/a	"<p style=\"color: black; font-size: 80px; padding-left: 8%; padding-right: 12%; padding-top: 22%; padding-bottom: 2%\">+</p>"	n/a	"1460"	n/a	n/a	n/a	n/a	n/a	n/a	n/a	n/a	n/a
n/a	"image-keyboard-response"	"28"	"132170"	"0.0-3.0-2.0-2.0-1.3"	"yuqm8t"	"620"	"1022"	"chrome"	"108.0.0"	"FALSE"	"Windows 10"	"60.09"	n/a	n/a	n/a	n/a	n/a	n/a	"Trial"	n/a	n/a	n/a	n/a	"NULL"	"NULL"	"NULL"	"655"	"stimuli/MullerLyer_2300000_0.70000.png"	"arrowup"	n/a	"MullerLyer"	"arrowup"	"1466"	"TRUE"	"MullerLyer"	"230000000000"	"0.7000000000"	"1"	"10"
n/a	"html-keyboard-response"	"29"	"133482"	"0.0-3.0-2.0-2.0-0.4"	"yuqm8t"	"620"	"1022"	"chrome"	"108.0.0"	"FALSE"	"Windows 10"	"60.09"	n/a	n/a	n/a	n/a	n/a	n/a	"fixation"	n/a	n/a	n/a	n/a	"NULL"	"NULL"	"NULL"	n/a	"<p style=\"color: black; font-size: 80px; padding-left: 48%; padding-right: 19%; padding-top: 30%; padding-bottom: 34%\">+</p>"	n/a	"1303"	n/a	n/a	n/a	n/a	n/a	n/a	n/a	n/a	n/a
n/a	"image-keyboard-response"	"30"	"134036"	"0.0-3.0-2.0-2.0-1.4"	"yuqm8t"	"620"	"1022"	"chrome"	"108.0.0"	"FALSE"	"Windows 10"	"60.09"	n/a	n/a	n/a	n/a	n/a	n/a	"Trial"	n/a	n/a	n/a	n/a	"NULL"	"NULL"	"NULL"	"553"	"stimuli/MullerLyer_-230000_0.70000.png"	"arrowup"	n/a	"MullerLyer"	"arrowup"	"1312"	"TRUE"	"MullerLyer"	"-23000000000"	"0.7000000000"	"1"	"11"
n/a	"html-keyboard-response"	"31"	"135189"	"0.0-3.0-2.0-2.0-0.5"	"yuqm8t"	"620"	"1022"	"chrome"	"108.0.0"	"FALSE"	"Windows 10"	"60.09"	n/a	n/a	n/a	n/a	n/a	n/a	"fixation"	n/a	n/a	n/a	n/a	"NULL"	"NULL"	"NULL"	n/a	"<p style=\"color: black; font-size: 80px; padding-left: 4%; padding-right: 48%; padding-top: 29%; padding-bottom: 30%\">+</p>"	n/a	"1143"	n/a	n/a	n/a	n/a	n/a	n/a	n/a	n/a	n/a
n/a	"image-keyboard-response"	"32"	"135655"	"0.0-3.0-2.0-2.0-1.5"	"yuqm8t"	"620"	"1022"	"chrome"	"108.0.0"	"FALSE"	"Windows 10"	"60.09"	n/a	n/a	n/a	n/a	n/a	n/a	"Trial"	n/a	n/a	n/a	n/a	"NULL"	"NULL"	"NULL"	"464"	"stimuli/MullerLyer_-230000_-0.7000.png"	"arrowdown"	n/a	"MullerLyer"	"arrowdown"	"1153"	"TRUE"	"MullerLyer"	"-23000000000"	"-0.700000000"	"1"	"12"
n/a	"html-button-response"	"33"	"138419"	"0.0-3.0-2.0-3.0"	"yuqm8t"	"620"	"1022"	"chrome"	"108.0.0"	"FALSE"	"Windows 10"	"60.09"	n/a	n/a	n/a	n/a	n/a	n/a	"practice_block_results"	n/a	n/a	n/a	n/a	"NULL"	"NULL"	"NULL"	"2763"	"<p style='color:rgb(76,175,80);'> Correct Responses: <b>100.00%</b></p><hr><p style='color:rgb(233,30,99);'> Average Response Time: <b>609.67</b> ms.</p>"	"0"	n/a	n/a	n/a	n/a	n/a	n/a	n/a	n/a	n/a	n/a
"TRUE"	"preload"	"34"	"138952"	"0.0-3.0-3.0-0.0"	"yuqm8t"	"620"	"1022"	"chrome"	"108.0.0"	"FALSE"	"Windows 10"	"60.09"	n/a	n/a	n/a	n/a	n/a	n/a	n/a	n/a	n/a	n/a	"FALSE"	"list()"	"list()"	"list()"	n/a	n/a	n/a	n/a	n/a	n/a	n/a	n/a	n/a	n/a	n/a	n/a	n/a
n/a	"html-keyboard-response"	"35"	"146464"	"0.0-3.0-3.0-1.0"	"yuqm8t"	"620"	"1022"	"chrome"	"108.0.0"	"FALSE"	"Windows 10"	"60.09"	n/a	n/a	n/a	n/a	n/a	n/a	n/a	n/a	n/a	n/a	n/a	"NULL"	"NULL"	"NULL"	"7512"	"<p><b>Practice</b></p><p>In this part, two red lines will appear side by side.</p><p>Your task is to tell <b>which line is longer</b> in length, regardless of their orientation, as fast as you can, and without making errors.</p><p>Don't get distracted by the orientation of the lines!</p><p>Press <b>the LEFT or the RIGHT arrow</b> to indicate which <b>line is the longer one.</b></p><div style='float: center'><img src='materials/instructions/VerticalHorizontal_Demo.png' height='300'></img><p><img src='utils/answer/answer_leftright_keyboard.PNG' height='150'></img></p><p class='small'>In this example, the correct answer is the <b>LEFT arrow</b>.</p></div><p>Are you ready? <b>Press ENTER to start</b></p>"	"enter"	n/a	n/a	n/a	n/a	n/a	n/a	n/a	n/a	n/a	n/a
n/a	"html-keyboard-response"	"36"	"148279"	"0.0-3.0-3.0-2.0-0.0"	"yuqm8t"	"620"	"1022"	"chrome"	"108.0.0"	"FALSE"	"Windows 10"	"60.09"	n/a	n/a	n/a	n/a	n/a	n/a	"fixation"	n/a	n/a	n/a	n/a	"NULL"	"NULL"	"NULL"	n/a	"<p style=\"color: black; font-size: 80px; padding-left: 31%; padding-right: 20%; padding-top: 15%; padding-bottom: 21%\">+</p>"	n/a	"1289"	n/a	n/a	n/a	n/a	n/a	n/a	n/a	n/a	n/a
n/a	"image-keyboard-response"	"37"	"149099"	"0.0-3.0-3.0-2.0-1.0"	"yuqm8t"	"620"	"1022"	"chrome"	"108.0.0"	"FALSE"	"Windows 10"	"60.09"	n/a	n/a	n/a	n/a	n/a	n/a	"Trial"	n/a	n/a	n/a	n/a	"NULL"	"NULL"	"NULL"	"818"	"stimuli/VerticalHorizontal_-330000_-0.9000.png"	"arrowright"	n/a	"VerticalHorizontal"	"arrowright"	"1815"	"TRUE"	"VerticalHorizontal"	"-33000000000"	"-0.900000000"	"1"	"13"
n/a	"html-keyboard-response"	"38"	"150553"	"0.0-3.0-3.0-2.0-0.1"	"yuqm8t"	"620"	"1022"	"chrome"	"108.0.0"	"FALSE"	"Windows 10"	"60.09"	n/a	n/a	n/a	n/a	n/a	n/a	"fixation"	n/a	n/a	n/a	n/a	"NULL"	"NULL"	"NULL"	n/a	"<p style=\"color: black; font-size: 80px; padding-left: 24%; padding-right: 8%; padding-top: 40%; padding-bottom: 1%\">+</p>"	n/a	"1452"	n/a	n/a	n/a	n/a	n/a	n/a	n/a	n/a	n/a
n/a	"image-keyboard-response"	"39"	"151174"	"0.0-3.0-3.0-2.0-1.1"	"yuqm8t"	"620"	"1022"	"chrome"	"108.0.0"	"FALSE"	"Windows 10"	"60.09"	n/a	n/a	n/a	n/a	n/a	n/a	"Trial"	n/a	n/a	n/a	n/a	"NULL"	"NULL"	"NULL"	"619"	"stimuli/VerticalHorizontal_0000000_0.90000.png"	"arrowleft"	n/a	"VerticalHorizontal"	"arrowleft"	"1454"	"TRUE"	"VerticalHorizontal"	"000000000000"	"0.9000000000"	"1"	"14"
n/a	"html-keyboard-response"	"40"	"152499"	"0.0-3.0-3.0-2.0-0.2"	"yuqm8t"	"620"	"1022"	"chrome"	"108.0.0"	"FALSE"	"Windows 10"	"60.09"	n/a	n/a	n/a	n/a	n/a	n/a	"fixation"	n/a	n/a	n/a	n/a	"NULL"	"NULL"	"NULL"	n/a	"<p style=\"color: black; font-size: 80px; padding-left: 48%; padding-right: 30%; padding-top: 8%; padding-bottom: 5%\">+</p>"	n/a	"1315"	n/a	n/a	n/a	n/a	n/a	n/a	n/a	n/a	n/a
n/a	"image-keyboard-response"	"41"	"153059"	"0.0-3.0-3.0-2.0-1.2"	"yuqm8t"	"620"	"1022"	"chrome"	"108.0.0"	"FALSE"	"Windows 10"	"60.09"	n/a	n/a	n/a	n/a	n/a	n/a	"Trial"	n/a	n/a	n/a	n/a	"NULL"	"NULL"	"NULL"	"558"	"stimuli/VerticalHorizontal_3300000_-0.9000.png"	"arrowright"	n/a	"VerticalHorizontal"	"arrowright"	"1325"	"TRUE"	"VerticalHorizontal"	"330000000000"	"-0.900000000"	"1"	"15"
n/a	"html-keyboard-response"	"42"	"154430"	"0.0-3.0-3.0-2.0-0.3"	"yuqm8t"	"620"	"1022"	"chrome"	"108.0.0"	"FALSE"	"Windows 10"	"60.09"	n/a	n/a	n/a	n/a	n/a	n/a	"fixation"	n/a	n/a	n/a	n/a	"NULL"	"NULL"	"NULL"	n/a	"<p style=\"color: black; font-size: 80px; padding-left: 14%; padding-right: 15%; padding-top: 48%; padding-bottom: 25%\">+</p>"	n/a	"1358"	n/a	n/a	n/a	n/a	n/a	n/a	n/a	n/a	n/a
n/a	"image-keyboard-response"	"43"	"154916"	"0.0-3.0-3.0-2.0-1.3"	"yuqm8t"	"620"	"1022"	"chrome"	"108.0.0"	"FALSE"	"Windows 10"	"60.09"	n/a	n/a	n/a	n/a	n/a	n/a	"Trial"	n/a	n/a	n/a	n/a	"NULL"	"NULL"	"NULL"	"485"	"stimuli/VerticalHorizontal_0000000_-0.9000.png"	"arrowright"	n/a	"VerticalHorizontal"	"arrowright"	"1371"	"TRUE"	"VerticalHorizontal"	"000000000000"	"-0.900000000"	"1"	"16"
n/a	"html-keyboard-response"	"44"	"156374"	"0.0-3.0-3.0-2.0-0.4"	"yuqm8t"	"620"	"1022"	"chrome"	"108.0.0"	"FALSE"	"Windows 10"	"60.09"	n/a	n/a	n/a	n/a	n/a	n/a	"fixation"	n/a	n/a	n/a	n/a	"NULL"	"NULL"	"NULL"	n/a	"<p style=\"color: black; font-size: 80px; padding-left: 8%; padding-right: 13%; padding-top: 37%; padding-bottom: 24%\">+</p>"	n/a	"1447"	n/a	n/a	n/a	n/a	n/a	n/a	n/a	n/a	n/a
n/a	"image-keyboard-response"	"45"	"156861"	"0.0-3.0-3.0-2.0-1.4"	"yuqm8t"	"620"	"1022"	"chrome"	"108.0.0"	"FALSE"	"Windows 10"	"60.09"	n/a	n/a	n/a	n/a	n/a	n/a	"Trial"	n/a	n/a	n/a	n/a	"NULL"	"NULL"	"NULL"	"486"	"stimuli/VerticalHorizontal_3300000_0.90000.png"	"arrowleft"	n/a	"VerticalHorizontal"	"arrowleft"	"1458"	"TRUE"	"VerticalHorizontal"	"330000000000"	"0.9000000000"	"1"	"17"
n/a	"html-keyboard-response"	"46"	"158321"	"0.0-3.0-3.0-2.0-0.5"	"yuqm8t"	"620"	"1022"	"chrome"	"108.0.0"	"FALSE"	"Windows 10"	"60.09"	n/a	n/a	n/a	n/a	n/a	n/a	"fixation"	n/a	n/a	n/a	n/a	"NULL"	"NULL"	"NULL"	n/a	"<p style=\"color: black; font-size: 80px; padding-left: 48%; padding-right: 30%; padding-top: 12%; padding-bottom: 30%\">+</p>"	n/a	"1446"	n/a	n/a	n/a	n/a	n/a	n/a	n/a	n/a	n/a
n/a	"image-keyboard-response"	"47"	"158788"	"0.0-3.0-3.0-2.0-1.5"	"yuqm8t"	"620"	"1022"	"chrome"	"108.0.0"	"FALSE"	"Windows 10"	"60.09"	n/a	n/a	n/a	n/a	n/a	n/a	"Trial"	n/a	n/a	n/a	n/a	"NULL"	"NULL"	"NULL"	"465"	"stimuli/VerticalHorizontal_-330000_0.90000.png"	"arrowleft"	n/a	"VerticalHorizontal"	"arrowleft"	"1460"	"TRUE"	"VerticalHorizontal"	"-33000000000"	"0.9000000000"	"1"	"18"
n/a	"html-button-response"	"48"	"161859"	"0.0-3.0-3.0-3.0"	"yuqm8t"	"620"	"1022"	"chrome"	"108.0.0"	"FALSE"	"Windows 10"	"60.09"	n/a	n/a	n/a	n/a	n/a	n/a	"practice_block_results"	n/a	n/a	n/a	n/a	"NULL"	"NULL"	"NULL"	"3070"	"<p style='color:rgb(76,175,80);'> Correct Responses: <b>100.00%</b></p><hr><p style='color:rgb(233,30,99);'> Average Response Time: <b>571.83</b> ms.</p>"	"0"	n/a	n/a	n/a	n/a	n/a	n/a	n/a	n/a	n/a	n/a
n/a	"html-button-response"	"49"	"246223"	"0.0-3.0-4.0"	"yuqm8t"	"620"	"1022"	"chrome"	"108.0.0"	"FALSE"	"Windows 10"	"60.09"	n/a	n/a	n/a	n/a	n/a	n/a	"practice_debrief"	n/a	n/a	n/a	n/a	"NULL"	"NULL"	"NULL"	"83850"	"<p><b>TRAINING COMPLETED</b></p><p>In the next phase, there will be more trials, and some might be harder too.<br> Moreover, after each illusion block, a <b>score</b> will be calculated based on speed (time you took to answer) and accuracy (number of errors).</p><p>Try to keep up a high score!</p><br><p>Note that it can be <i>really</i> challenging at times, so you will need to rely on your <b>intuition</b> and gut feeling to answer as fast as you can without making errors.</p><p>Each illusion block will be repeated two times (so that you have the opportunity to improve your score), but the order of the blocks is random.</p><p>Remember, your goal is to be as <b>fast</b> and <b>accurate</b> as possible. Good luck!</p><br>"	"0"	n/a	n/a	n/a	n/a	n/a	n/a	n/a	n/a	n/a	n/a
"TRUE"	"preload"	"50"	"246343"	"0.0-4.0-0.0"	"yuqm8t"	"620"	"1022"	"chrome"	"108.0.0"	"FALSE"	"Windows 10"	"60.09"	n/a	n/a	n/a	n/a	n/a	n/a	n/a	n/a	n/a	n/a	"FALSE"	"list()"	"list()"	"list()"	n/a	n/a	n/a	n/a	n/a	n/a	n/a	n/a	n/a	n/a	n/a	n/a	n/a
n/a	"html-keyboard-response"	"51"	"257229"	"0.0-4.0-1.0"	"yuqm8t"	"620"	"1022"	"chrome"	"108.0.0"	"FALSE"	"Windows 10"	"60.09"	n/a	n/a	n/a	n/a	n/a	n/a	n/a	n/a	n/a	n/a	n/a	"NULL"	"NULL"	"NULL"	"10885"	"<p><b>Part 1/6</b></p><p>In this part, two horizontal red lines will appear one above the other.</p><p>Your task is to select which <b>line is longer</b> in length as fast as you can, without making errors.</p><p>Don't get distracted by the surrounding black arrows at the end of the red lines!</p><p>Press <b>the UP or the DOWN arrow</b> to indicate where is the longer <b>red line.</b></p><div style='float: center'><img src='materials/instructions/MullerLyer_Demo.png' height='300'></img><p><img src='utils/answer/answer_updown_keyboard.PNG' height='150'></img></p><p class='small'>In this example, the correct answer is the <b>UP arrow</b>.</p></div><p>Are you ready? <b>Press ENTER to start</b></p>"	"enter"	n/a	n/a	n/a	n/a	n/a	n/a	n/a	n/a	n/a	n/a
n/a	"html-keyboard-response"	"52"	"259182"	"0.0-4.0-2.0-0.0"	"yuqm8t"	"620"	"1022"	"chrome"	"108.0.0"	"FALSE"	"Windows 10"	"60.09"	n/a	n/a	n/a	n/a	n/a	n/a	"fixation"	n/a	n/a	n/a	n/a	"NULL"	"NULL"	"NULL"	n/a	"<p style=\"color: black; font-size: 80px; padding-left: 30%; padding-right: 10%; padding-top: 44%; padding-bottom: 27%\">+</p>"	n/a	"1424"	n/a	n/a	n/a	n/a	n/a	n/a	n/a	n/a	n/a
n/a	"image-keyboard-response"	"53"	"260025"	"0.0-4.0-2.0-1.0"	"yuqm8t"	"620"	"1022"	"chrome"	"108.0.0"	"FALSE"	"Windows 10"	"60.09"	n/a	n/a	n/a	n/a	n/a	n/a	"Trial"	n/a	n/a	n/a	n/a	"NULL"	"NULL"	"NULL"	"841"	"stimuli/MullerLyer_-14.12857_0.23665.png"	"arrowup"	n/a	"MullerLyer"	"arrowup"	"1953"	"TRUE"	"MullerLyer"	"-14.12857000"	"0.2366500000"	"1"	"19"
n/a	"html-keyboard-response"	"54"	"261355"	"0.0-4.0-2.0-0.1"	"yuqm8t"	"620"	"1022"	"chrome"	"108.0.0"	"FALSE"	"Windows 10"	"60.09"	n/a	n/a	n/a	n/a	n/a	n/a	"fixation"	n/a	n/a	n/a	n/a	"NULL"	"NULL"	"NULL"	n/a	"<p style=\"color: black; font-size: 80px; padding-left: 37%; padding-right: 36%; padding-top: 18%; padding-bottom: 11%\">+</p>"	n/a	"1321"	n/a	n/a	n/a	n/a	n/a	n/a	n/a	n/a	n/a
n/a	"image-keyboard-response"	"55"	"262155"	"0.0-4.0-2.0-1.1"	"yuqm8t"	"620"	"1022"	"chrome"	"108.0.0"	"FALSE"	"Windows 10"	"60.09"	n/a	n/a	n/a	n/a	n/a	n/a	"Trial"	n/a	n/a	n/a	n/a	"NULL"	"NULL"	"NULL"	"799"	"stimuli/MullerLyer_-2.3000_0.07627.png"	"arrowup"	n/a	"MullerLyer"	"arrowup"	"1330"	"TRUE"	"MullerLyer"	"-2.300000000"	"0.0762700000"	"1"	"20"
n/a	"html-keyboard-response"	"56"	"263255"	"0.0-4.0-2.0-0.2"	"yuqm8t"	"620"	"1022"	"chrome"	"108.0.0"	"FALSE"	"Windows 10"	"60.09"	n/a	n/a	n/a	n/a	n/a	n/a	"fixation"	n/a	n/a	n/a	n/a	"NULL"	"NULL"	"NULL"	n/a	"<p style=\"color: black; font-size: 80px; padding-left: 15%; padding-right: 42%; padding-top: 8%; padding-bottom: 42%\">+</p>"	n/a	"1084"	n/a	n/a	n/a	n/a	n/a	n/a	n/a	n/a	n/a
n/a	"image-keyboard-response"	"57"	"264352"	"0.0-4.0-2.0-1.2"	"yuqm8t"	"620"	"1022"	"chrome"	"108.0.0"	"FALSE"	"Windows 10"	"60.09"	n/a	n/a	n/a	n/a	n/a	n/a	"Trial"	n/a	n/a	n/a	n/a	"NULL"	"NULL"	"NULL"	"1095"	"stimuli/MullerLyer_8.21429_-0.14541.png"	"arrowdown"	n/a	"MullerLyer"	"arrowdown"	"1100"	"TRUE"	"MullerLyer"	"8.2142900000"	"-0.145410000"	"1"	"21"
n/a	"html-keyboard-response"	"58"	"265632"	"0.0-4.0-2.0-0.3"	"yuqm8t"	"620"	"1022"	"chrome"	"108.0.0"	"FALSE"	"Windows 10"	"60.09"	n/a	n/a	n/a	n/a	n/a	n/a	"fixation"	n/a	n/a	n/a	n/a	"NULL"	"NULL"	"NULL"	n/a	"<p style=\"color: black; font-size: 80px; padding-left: 9%; padding-right: 23%; padding-top: 0%; padding-bottom: 42%\">+</p>"	n/a	"1259"	n/a	n/a	n/a	n/a	n/a	n/a	n/a	n/a	n/a
n/a	"image-keyboard-response"	"59"	"266207"	"0.0-4.0-2.0-1.3"	"yuqm8t"	"620"	"1022"	"chrome"	"108.0.0"	"FALSE"	"Windows 10"	"60.09"	n/a	n/a	n/a	n/a	n/a	n/a	"Trial"	n/a	n/a	n/a	n/a	"NULL"	"NULL"	"NULL"	"573"	"stimuli/MullerLyer_20.04286_0.14541.png"	"arrowdown"	n/a	"MullerLyer"	"arrowup"	"1280"	"FALSE"	"MullerLyer"	"20.042860000"	"0.1454100000"	"1"	"22"
n/a	"html-keyboard-response"	"60"	"267675"	"0.0-4.0-2.0-0.4"	"yuqm8t"	"620"	"1022"	"chrome"	"108.0.0"	"FALSE"	"Windows 10"	"60.09"	n/a	n/a	n/a	n/a	n/a	n/a	"fixation"	n/a	n/a	n/a	n/a	"NULL"	"NULL"	"NULL"	n/a	"<p style=\"color: black; font-size: 80px; padding-left: 1%; padding-right: 33%; padding-top: 8%; padding-bottom: 12%\">+</p>"	n/a	"1457"	n/a	n/a	n/a	n/a	n/a	n/a	n/a	n/a	n/a
n/a	"image-keyboard-response"	"61"	"268661"	"0.0-4.0-2.0-1.4"	"yuqm8t"	"620"	"1022"	"chrome"	"108.0.0"	"FALSE"	"Windows 10"	"60.09"	n/a	n/a	n/a	n/a	n/a	n/a	"Trial"	n/a	n/a	n/a	n/a	"NULL"	"NULL"	"NULL"	"984"	"stimuli/MullerLyer_20.04286_0.35000.png"	"arrowup"	n/a	"MullerLyer"	"arrowup"	"1468"	"TRUE"	"MullerLyer"	"20.042860000"	"0.3500000000"	"1"	"23"
n/a	"html-keyboard-response"	"62"	"270085"	"0.0-4.0-2.0-0.5"	"yuqm8t"	"620"	"1022"	"chrome"	"108.0.0"	"FALSE"	"Windows 10"	"60.09"	n/a	n/a	n/a	n/a	n/a	n/a	"fixation"	n/a	n/a	n/a	n/a	"NULL"	"NULL"	"NULL"	n/a	"<p style=\"color: black; font-size: 80px; padding-left: 11%; padding-right: 11%; padding-top: 28%; padding-bottom: 45%\">+</p>"	n/a	"1417"	n/a	n/a	n/a	n/a	n/a	n/a	n/a	n/a	n/a
n/a	"image-keyboard-response"	"63"	"270685"	"0.0-4.0-2.0-1.5"	"yuqm8t"	"620"	"1022"	"chrome"	"108.0.0"	"FALSE"	"Windows 10"	"60.09"	n/a	n/a	n/a	n/a	n/a	n/a	"Trial"	n/a	n/a	n/a	n/a	"NULL"	"NULL"	"NULL"	"599"	"stimuli/MullerLyer_-14.12857_-0.14541.png"	"arrowdown"	n/a	"MullerLyer"	"arrowdown"	"1424"	"TRUE"	"MullerLyer"	"-14.12857000"	"-0.145410000"	"1"	"24"
n/a	"html-keyboard-response"	"64"	"271727"	"0.0-4.0-2.0-0.6"	"yuqm8t"	"620"	"1022"	"chrome"	"108.0.0"	"FALSE"	"Windows 10"	"60.09"	n/a	n/a	n/a	n/a	n/a	n/a	"fixation"	n/a	n/a	n/a	n/a	"NULL"	"NULL"	"NULL"	n/a	"<p style=\"color: black; font-size: 80px; padding-left: 42%; padding-right: 5%; padding-top: 50%; padding-bottom: 19%\">+</p>"	n/a	"1031"	n/a	n/a	n/a	n/a	n/a	n/a	n/a	n/a	n/a
n/a	"image-keyboard-response"	"65"	"272386"	"0.0-4.0-2.0-1.6"	"yuqm8t"	"620"	"1022"	"chrome"	"108.0.0"	"FALSE"	"Windows 10"	"60.09"	n/a	n/a	n/a	n/a	n/a	n/a	"Trial"	n/a	n/a	n/a	n/a	"NULL"	"NULL"	"NULL"	"657"	"stimuli/MullerLyer_-14.12857_0.07627.png"	"arrowup"	n/a	"MullerLyer"	"arrowup"	"1042"	"TRUE"	"MullerLyer"	"-14.12857000"	"0.0762700000"	"1"	"25"
n/a	"html-keyboard-response"	"66"	"273800"	"0.0-4.0-2.0-0.7"	"yuqm8t"	"620"	"1022"	"chrome"	"108.0.0"	"FALSE"	"Windows 10"	"60.09"	n/a	n/a	n/a	n/a	n/a	n/a	"fixation"	n/a	n/a	n/a	n/a	"NULL"	"NULL"	"NULL"	n/a	"<p style=\"color: black; font-size: 80px; padding-left: 26%; padding-right: 6%; padding-top: 39%; padding-bottom: 8%\">+</p>"	n/a	"1394"	n/a	n/a	n/a	n/a	n/a	n/a	n/a	n/a	n/a
n/a	"image-keyboard-response"	"67"	"274346"	"0.0-4.0-2.0-1.7"	"yuqm8t"	"620"	"1022"	"chrome"	"108.0.0"	"FALSE"	"Windows 10"	"60.09"	n/a	n/a	n/a	n/a	n/a	n/a	"Trial"	n/a	n/a	n/a	n/a	"NULL"	"NULL"	"NULL"	"544"	"stimuli/MullerLyer_-8.21429_-0.14541.png"	"arrowdown"	n/a	"MullerLyer"	"arrowdown"	"1414"	"TRUE"	"MullerLyer"	"-8.214290000"	"-0.145410000"	"1"	"26"
n/a	"html-keyboard-response"	"68"	"275791"	"0.0-4.0-2.0-0.8"	"yuqm8t"	"620"	"1022"	"chrome"	"108.0.0"	"FALSE"	"Windows 10"	"60.09"	n/a	n/a	n/a	n/a	n/a	n/a	"fixation"	n/a	n/a	n/a	n/a	"NULL"	"NULL"	"NULL"	n/a	"<p style=\"color: black; font-size: 80px; padding-left: 40%; padding-right: 3%; padding-top: 11%; padding-bottom: 26%\">+</p>"	n/a	"1434"	n/a	n/a	n/a	n/a	n/a	n/a	n/a	n/a	n/a
n/a	"image-keyboard-response"	"69"	"276785"	"0.0-4.0-2.0-1.8"	"yuqm8t"	"620"	"1022"	"chrome"	"108.0.0"	"FALSE"	"Windows 10"	"60.09"	n/a	n/a	n/a	n/a	n/a	n/a	"Trial"	n/a	n/a	n/a	n/a	"NULL"	"NULL"	"NULL"	"992"	"stimuli/MullerLyer_14.12857_-0.23665.png"	"arrowup"	n/a	"MullerLyer"	"arrowdown"	"1445"	"FALSE"	"MullerLyer"	"14.128570000"	"-0.236650000"	"1"	"27"
n/a	"html-keyboard-response"	"70"	"277879"	"0.0-4.0-2.0-0.9"	"yuqm8t"	"620"	"1022"	"chrome"	"108.0.0"	"FALSE"	"Windows 10"	"60.09"	n/a	n/a	n/a	n/a	n/a	n/a	"fixation"	n/a	n/a	n/a	n/a	"NULL"	"NULL"	"NULL"	n/a	"<p style=\"color: black; font-size: 80px; padding-left: 8%; padding-right: 24%; padding-top: 32%; padding-bottom: 37%\">+</p>"	n/a	"1071"	n/a	n/a	n/a	n/a	n/a	n/a	n/a	n/a	n/a
n/a	"image-keyboard-response"	"71"	"278616"	"0.0-4.0-2.0-1.9"	"yuqm8t"	"620"	"1022"	"chrome"	"108.0.0"	"FALSE"	"Windows 10"	"60.09"	n/a	n/a	n/a	n/a	n/a	n/a	"Trial"	n/a	n/a	n/a	n/a	"NULL"	"NULL"	"NULL"	"735"	"stimuli/MullerLyer_14.12857_-0.07627.png"	"arrowup"	n/a	"MullerLyer"	"arrowdown"	"1094"	"FALSE"	"MullerLyer"	"14.128570000"	"-0.076270000"	"1"	"28"
n/a	"html-keyboard-response"	"72"	"279630"	"0.0-4.0-2.0-0.10"	"yuqm8t"	"620"	"1022"	"chrome"	"108.0.0"	"FALSE"	"Windows 10"	"60.09"	n/a	n/a	n/a	n/a	n/a	n/a	"fixation"	n/a	n/a	n/a	n/a	"NULL"	"NULL"	"NULL"	n/a	"<p style=\"color: black; font-size: 80px; padding-left: 39%; padding-right: 7%; padding-top: 1%; padding-bottom: 46%\">+</p>"	n/a	"1006"	n/a	n/a	n/a	n/a	n/a	n/a	n/a	n/a	n/a
n/a	"image-keyboard-response"	"73"	"280530"	"0.0-4.0-2.0-1.10"	"yuqm8t"	"620"	"1022"	"chrome"	"108.0.0"	"FALSE"	"Windows 10"	"60.09"	n/a	n/a	n/a	n/a	n/a	n/a	"Trial"	n/a	n/a	n/a	n/a	"NULL"	"NULL"	"NULL"	"899"	"stimuli/MullerLyer_-8.21429_0.14541.png"	"arrowup"	n/a	"MullerLyer"	"arrowup"	"1014"	"TRUE"	"MullerLyer"	"-8.214290000"	"0.1454100000"	"1"	"29"
n/a	"html-keyboard-response"	"74"	"281696"	"0.0-4.0-2.0-0.11"	"yuqm8t"	"620"	"1022"	"chrome"	"108.0.0"	"FALSE"	"Windows 10"	"60.09"	n/a	n/a	n/a	n/a	n/a	n/a	"fixation"	n/a	n/a	n/a	n/a	"NULL"	"NULL"	"NULL"	n/a	"<p style=\"color: black; font-size: 80px; padding-left: 3%; padding-right: 36%; padding-top: 29%; padding-bottom: 47%\">+</p>"	n/a	"1154"	n/a	n/a	n/a	n/a	n/a	n/a	n/a	n/a	n/a
n/a	"image-keyboard-response"	"75"	"282364"	"0.0-4.0-2.0-1.11"	"yuqm8t"	"620"	"1022"	"chrome"	"108.0.0"	"FALSE"	"Windows 10"	"60.09"	n/a	n/a	n/a	n/a	n/a	n/a	"Trial"	n/a	n/a	n/a	n/a	"NULL"	"NULL"	"NULL"	"666"	"stimuli/MullerLyer_-20.04286_-0.3500.png"	"arrowdown"	n/a	"MullerLyer"	"arrowdown"	"1166"	"TRUE"	"MullerLyer"	"-20.04286000"	"-0.350000000"	"1"	"30"
n/a	"html-keyboard-response"	"76"	"283399"	"0.0-4.0-2.0-0.12"	"yuqm8t"	"620"	"1022"	"chrome"	"108.0.0"	"FALSE"	"Windows 10"	"60.09"	n/a	n/a	n/a	n/a	n/a	n/a	"fixation"	n/a	n/a	n/a	n/a	"NULL"	"NULL"	"NULL"	n/a	"<p style=\"color: black; font-size: 80px; padding-left: 18%; padding-right: 13%; padding-top: 21%; padding-bottom: 9%\">+</p>"	n/a	"1015"	n/a	n/a	n/a	n/a	n/a	n/a	n/a	n/a	n/a
n/a	"image-keyboard-response"	"77"	"283883"	"0.0-4.0-2.0-1.12"	"yuqm8t"	"620"	"1022"	"chrome"	"108.0.0"	"FALSE"	"Windows 10"	"60.09"	n/a	n/a	n/a	n/a	n/a	n/a	"Trial"	n/a	n/a	n/a	n/a	"NULL"	"NULL"	"NULL"	"483"	"stimuli/MullerLyer_-14.12857_-0.3500.png"	"arrowdown"	n/a	"MullerLyer"	"arrowdown"	"1035"	"TRUE"	"MullerLyer"	"-14.12857000"	"-0.350000000"	"1"	"31"
n/a	"html-keyboard-response"	"78"	"284994"	"0.0-4.0-2.0-0.13"	"yuqm8t"	"620"	"1022"	"chrome"	"108.0.0"	"FALSE"	"Windows 10"	"60.09"	n/a	n/a	n/a	n/a	n/a	n/a	"fixation"	n/a	n/a	n/a	n/a	"NULL"	"NULL"	"NULL"	n/a	"<p style=\"color: black; font-size: 80px; padding-left: 22%; padding-right: 17%; padding-top: 7%; padding-bottom: 2%\">+</p>"	n/a	"1105"	n/a	n/a	n/a	n/a	n/a	n/a	n/a	n/a	n/a
n/a	"image-keyboard-response"	"79"	"285608"	"0.0-4.0-2.0-1.13"	"yuqm8t"	"620"	"1022"	"chrome"	"108.0.0"	"FALSE"	"Windows 10"	"60.09"	n/a	n/a	n/a	n/a	n/a	n/a	"Trial"	n/a	n/a	n/a	n/a	"NULL"	"NULL"	"NULL"	"613"	"stimuli/MullerLyer_2.30000_-0.23665.png"	"arrowdown"	n/a	"MullerLyer"	"arrowdown"	"1111"	"TRUE"	"MullerLyer"	"2.3000000000"	"-0.236650000"	"1"	"32"
n/a	"html-keyboard-response"	"80"	"287082"	"0.0-4.0-2.0-0.14"	"yuqm8t"	"620"	"1022"	"chrome"	"108.0.0"	"FALSE"	"Windows 10"	"60.09"	n/a	n/a	n/a	n/a	n/a	n/a	"fixation"	n/a	n/a	n/a	n/a	"NULL"	"NULL"	"NULL"	n/a	"<p style=\"color: black; font-size: 80px; padding-left: 5%; padding-right: 36%; padding-top: 6%; padding-bottom: 38%\">+</p>"	n/a	"1462"	n/a	n/a	n/a	n/a	n/a	n/a	n/a	n/a	n/a
n/a	"image-keyboard-response"	"81"	"287630"	"0.0-4.0-2.0-1.14"	"yuqm8t"	"620"	"1022"	"chrome"	"108.0.0"	"FALSE"	"Windows 10"	"60.09"	n/a	n/a	n/a	n/a	n/a	n/a	"Trial"	n/a	n/a	n/a	n/a	"NULL"	"NULL"	"NULL"	"547"	"stimuli/MullerLyer_2.30000_0.35000.png"	"arrowup"	n/a	"MullerLyer"	"arrowup"	"1474"	"TRUE"	"MullerLyer"	"2.3000000000"	"0.3500000000"	"1"	"33"
n/a	"html-keyboard-response"	"82"	"288920"	"0.0-4.0-2.0-0.15"	"yuqm8t"	"620"	"1022"	"chrome"	"108.0.0"	"FALSE"	"Windows 10"	"60.09"	n/a	n/a	n/a	n/a	n/a	n/a	"fixation"	n/a	n/a	n/a	n/a	"NULL"	"NULL"	"NULL"	n/a	"<p style=\"color: black; font-size: 80px; padding-left: 45%; padding-right: 30%; padding-top: 50%; padding-bottom: 39%\">+</p>"	n/a	"1281"	n/a	n/a	n/a	n/a	n/a	n/a	n/a	n/a	n/a
n/a	"image-keyboard-response"	"83"	"289340"	"0.0-4.0-2.0-1.15"	"yuqm8t"	"620"	"1022"	"chrome"	"108.0.0"	"FALSE"	"Windows 10"	"60.09"	n/a	n/a	n/a	n/a	n/a	n/a	"Trial"	n/a	n/a	n/a	n/a	"NULL"	"NULL"	"NULL"	"418"	"stimuli/MullerLyer_-20.04286_-0.23665.png"	"arrowdown"	n/a	"MullerLyer"	"arrowdown"	"1290"	"TRUE"	"MullerLyer"	"-20.04286000"	"-0.236650000"	"1"	"34"
n/a	"html-keyboard-response"	"84"	"290680"	"0.0-4.0-2.0-0.16"	"yuqm8t"	"620"	"1022"	"chrome"	"108.0.0"	"FALSE"	"Windows 10"	"60.09"	n/a	n/a	n/a	n/a	n/a	n/a	"fixation"	n/a	n/a	n/a	n/a	"NULL"	"NULL"	"NULL"	n/a	"<p style=\"color: black; font-size: 80px; padding-left: 47%; padding-right: 15%; padding-top: 43%; padding-bottom: 42%\">+</p>"	n/a	"1324"	n/a	n/a	n/a	n/a	n/a	n/a	n/a	n/a	n/a
n/a	"image-keyboard-response"	"85"	"291319"	"0.0-4.0-2.0-1.16"	"yuqm8t"	"620"	"1022"	"chrome"	"108.0.0"	"FALSE"	"Windows 10"	"60.09"	n/a	n/a	n/a	n/a	n/a	n/a	"Trial"	n/a	n/a	n/a	n/a	"NULL"	"NULL"	"NULL"	"637"	"stimuli/MullerLyer_14.12857_-0.3500.png"	"arrowdown"	n/a	"MullerLyer"	"arrowdown"	"1340"	"TRUE"	"MullerLyer"	"14.128570000"	"-0.350000000"	"1"	"35"
n/a	"html-keyboard-response"	"86"	"292628"	"0.0-4.0-2.0-0.17"	"yuqm8t"	"620"	"1022"	"chrome"	"108.0.0"	"FALSE"	"Windows 10"	"60.09"	n/a	n/a	n/a	n/a	n/a	n/a	"fixation"	n/a	n/a	n/a	n/a	"NULL"	"NULL"	"NULL"	n/a	"<p style=\"color: black; font-size: 80px; padding-left: 17%; padding-right: 35%; padding-top: 20%; padding-bottom: 10%\">+</p>"	n/a	"1296"	n/a	n/a	n/a	n/a	n/a	n/a	n/a	n/a	n/a
n/a	"image-keyboard-response"	"87"	"293845"	"0.0-4.0-2.0-1.17"	"yuqm8t"	"620"	"1022"	"chrome"	"108.0.0"	"FALSE"	"Windows 10"	"60.09"	n/a	n/a	n/a	n/a	n/a	n/a	"Trial"	n/a	n/a	n/a	n/a	"NULL"	"NULL"	"NULL"	"1214"	"stimuli/MullerLyer_8.21429_0.14541.png"	"arrowup"	n/a	"MullerLyer"	"arrowup"	"1309"	"TRUE"	"MullerLyer"	"8.2142900000"	"0.1454100000"	"1"	"36"
n/a	"html-keyboard-response"	"88"	"295225"	"0.0-4.0-2.0-0.18"	"yuqm8t"	"620"	"1022"	"chrome"	"108.0.0"	"FALSE"	"Windows 10"	"60.09"	n/a	n/a	n/a	n/a	n/a	n/a	"fixation"	n/a	n/a	n/a	n/a	"NULL"	"NULL"	"NULL"	n/a	"<p style=\"color: black; font-size: 80px; padding-left: 17%; padding-right: 16%; padding-top: 12%; padding-bottom: 32%\">+</p>"	n/a	"1366"	n/a	n/a	n/a	n/a	n/a	n/a	n/a	n/a	n/a
n/a	"image-keyboard-response"	"89"	"295987"	"0.0-4.0-2.0-1.18"	"yuqm8t"	"620"	"1022"	"chrome"	"108.0.0"	"FALSE"	"Windows 10"	"60.09"	n/a	n/a	n/a	n/a	n/a	n/a	"Trial"	n/a	n/a	n/a	n/a	"NULL"	"NULL"	"NULL"	"760"	"stimuli/MullerLyer_2.30000_-0.14541.png"	"arrowdown"	n/a	"MullerLyer"	"arrowdown"	"1380"	"TRUE"	"MullerLyer"	"2.3000000000"	"-0.145410000"	"1"	"37"
n/a	"html-keyboard-response"	"90"	"297324"	"0.0-4.0-2.0-0.19"	"yuqm8t"	"620"	"1022"	"chrome"	"108.0.0"	"FALSE"	"Windows 10"	"60.09"	n/a	n/a	n/a	n/a	n/a	n/a	"fixation"	n/a	n/a	n/a	n/a	"NULL"	"NULL"	"NULL"	n/a	"<p style=\"color: black; font-size: 80px; padding-left: 8%; padding-right: 9%; padding-top: 36%; padding-bottom: 11%\">+</p>"	n/a	"1320"	n/a	n/a	n/a	n/a	n/a	n/a	n/a	n/a	n/a
n/a	"image-keyboard-response"	"91"	"298020"	"0.0-4.0-2.0-1.19"	"yuqm8t"	"620"	"1022"	"chrome"	"108.0.0"	"FALSE"	"Windows 10"	"60.09"	n/a	n/a	n/a	n/a	n/a	n/a	"Trial"	n/a	n/a	n/a	n/a	"NULL"	"NULL"	"NULL"	"694"	"stimuli/MullerLyer_-2.3000_0.23665.png"	"arrowup"	n/a	"MullerLyer"	"arrowup"	"1337"	"TRUE"	"MullerLyer"	"-2.300000000"	"0.2366500000"	"1"	"38"
n/a	"html-keyboard-response"	"92"	"299114"	"0.0-4.0-2.0-0.20"	"yuqm8t"	"620"	"1022"	"chrome"	"108.0.0"	"FALSE"	"Windows 10"	"60.09"	n/a	n/a	n/a	n/a	n/a	n/a	"fixation"	n/a	n/a	n/a	n/a	"NULL"	"NULL"	"NULL"	n/a	"<p style=\"color: black; font-size: 80px; padding-left: 44%; padding-right: 42%; padding-top: 26%; padding-bottom: 19%\">+</p>"	n/a	"1077"	n/a	n/a	n/a	n/a	n/a	n/a	n/a	n/a	n/a
n/a	"image-keyboard-response"	"93"	"299731"	"0.0-4.0-2.0-1.20"	"yuqm8t"	"620"	"1022"	"chrome"	"108.0.0"	"FALSE"	"Windows 10"	"60.09"	n/a	n/a	n/a	n/a	n/a	n/a	"Trial"	n/a	n/a	n/a	n/a	"NULL"	"NULL"	"NULL"	"615"	"stimuli/MullerLyer_-20.04286_0.07627.png"	"arrowup"	n/a	"MullerLyer"	"arrowup"	"1094"	"TRUE"	"MullerLyer"	"-20.04286000"	"0.0762700000"	"1"	"39"
n/a	"html-keyboard-response"	"94"	"300903"	"0.0-4.0-2.0-0.21"	"yuqm8t"	"620"	"1022"	"chrome"	"108.0.0"	"FALSE"	"Windows 10"	"60.09"	n/a	n/a	n/a	n/a	n/a	n/a	"fixation"	n/a	n/a	n/a	n/a	"NULL"	"NULL"	"NULL"	n/a	"<p style=\"color: black; font-size: 80px; padding-left: 50%; padding-right: 36%; padding-top: 4%; padding-bottom: 45%\">+</p>"	n/a	"1155"	n/a	n/a	n/a	n/a	n/a	n/a	n/a	n/a	n/a
n/a	"image-keyboard-response"	"95"	"301632"	"0.0-4.0-2.0-1.21"	"yuqm8t"	"620"	"1022"	"chrome"	"108.0.0"	"FALSE"	"Windows 10"	"60.09"	n/a	n/a	n/a	n/a	n/a	n/a	"Trial"	n/a	n/a	n/a	n/a	"NULL"	"NULL"	"NULL"	"728"	"stimuli/MullerLyer_14.12857_-0.14541.png"	"arrowup"	n/a	"MullerLyer"	"arrowdown"	"1172"	"FALSE"	"MullerLyer"	"14.128570000"	"-0.145410000"	"1"	"40"
n/a	"html-keyboard-response"	"96"	"302961"	"0.0-4.0-2.0-0.22"	"yuqm8t"	"620"	"1022"	"chrome"	"108.0.0"	"FALSE"	"Windows 10"	"60.09"	n/a	n/a	n/a	n/a	n/a	n/a	"fixation"	n/a	n/a	n/a	n/a	"NULL"	"NULL"	"NULL"	n/a	"<p style=\"color: black; font-size: 80px; padding-left: 7%; padding-right: 2%; padding-top: 21%; padding-bottom: 11%\">+</p>"	n/a	"1314"	n/a	n/a	n/a	n/a	n/a	n/a	n/a	n/a	n/a
n/a	"image-keyboard-response"	"97"	"303463"	"0.0-4.0-2.0-1.22"	"yuqm8t"	"620"	"1022"	"chrome"	"108.0.0"	"FALSE"	"Windows 10"	"60.09"	n/a	n/a	n/a	n/a	n/a	n/a	"Trial"	n/a	n/a	n/a	n/a	"NULL"	"NULL"	"NULL"	"501"	"stimuli/MullerLyer_-2.3000_-0.14541.png"	"arrowdown"	n/a	"MullerLyer"	"arrowdown"	"1329"	"TRUE"	"MullerLyer"	"-2.300000000"	"-0.145410000"	"1"	"41"
n/a	"html-keyboard-response"	"98"	"304888"	"0.0-4.0-2.0-0.23"	"yuqm8t"	"620"	"1022"	"chrome"	"108.0.0"	"FALSE"	"Windows 10"	"60.09"	n/a	n/a	n/a	n/a	n/a	n/a	"fixation"	n/a	n/a	n/a	n/a	"NULL"	"NULL"	"NULL"	n/a	"<p style=\"color: black; font-size: 80px; padding-left: 11%; padding-right: 29%; padding-top: 36%; padding-bottom: 34%\">+</p>"	n/a	"1408"	n/a	n/a	n/a	n/a	n/a	n/a	n/a	n/a	n/a
n/a	"image-keyboard-response"	"99"	"305366"	"0.0-4.0-2.0-1.23"	"yuqm8t"	"620"	"1022"	"chrome"	"108.0.0"	"FALSE"	"Windows 10"	"60.09"	n/a	n/a	n/a	n/a	n/a	n/a	"Trial"	n/a	n/a	n/a	n/a	"NULL"	"NULL"	"NULL"	"476"	"stimuli/MullerLyer_8.21429_0.23665.png"	"arrowup"	n/a	"MullerLyer"	"arrowup"	"1425"	"TRUE"	"MullerLyer"	"8.2142900000"	"0.2366500000"	"1"	"42"
n/a	"html-keyboard-response"	"100"	"306464"	"0.0-4.0-2.0-0.24"	"yuqm8t"	"620"	"1022"	"chrome"	"108.0.0"	"FALSE"	"Windows 10"	"60.09"	n/a	n/a	n/a	n/a	n/a	n/a	"fixation"	n/a	n/a	n/a	n/a	"NULL"	"NULL"	"NULL"	n/a	"<p style=\"color: black; font-size: 80px; padding-left: 39%; padding-right: 49%; padding-top: 40%; padding-bottom: 44%\">+</p>"	n/a	"1084"	n/a	n/a	n/a	n/a	n/a	n/a	n/a	n/a	n/a
n/a	"image-keyboard-response"	"101"	"307120"	"0.0-4.0-2.0-1.24"	"yuqm8t"	"620"	"1022"	"chrome"	"108.0.0"	"FALSE"	"Windows 10"	"60.09"	n/a	n/a	n/a	n/a	n/a	n/a	"Trial"	n/a	n/a	n/a	n/a	"NULL"	"NULL"	"NULL"	"655"	"stimuli/MullerLyer_-2.3000_0.14541.png"	"arrowup"	n/a	"MullerLyer"	"arrowup"	"1098"	"TRUE"	"MullerLyer"	"-2.300000000"	"0.1454100000"	"1"	"43"
n/a	"html-keyboard-response"	"102"	"308350"	"0.0-4.0-2.0-0.25"	"yuqm8t"	"620"	"1022"	"chrome"	"108.0.0"	"FALSE"	"Windows 10"	"60.09"	n/a	n/a	n/a	n/a	n/a	n/a	"fixation"	n/a	n/a	n/a	n/a	"NULL"	"NULL"	"NULL"	n/a	"<p style=\"color: black; font-size: 80px; padding-left: 47%; padding-right: 19%; padding-top: 11%; padding-bottom: 4%\">+</p>"	n/a	"1211"	n/a	n/a	n/a	n/a	n/a	n/a	n/a	n/a	n/a
n/a	"image-keyboard-response"	"103"	"308992"	"0.0-4.0-2.0-1.25"	"yuqm8t"	"620"	"1022"	"chrome"	"108.0.0"	"FALSE"	"Windows 10"	"60.09"	n/a	n/a	n/a	n/a	n/a	n/a	"Trial"	n/a	n/a	n/a	n/a	"NULL"	"NULL"	"NULL"	"640"	"stimuli/MullerLyer_-8.21429_-0.07627.png"	"arrowdown"	n/a	"MullerLyer"	"arrowdown"	"1230"	"TRUE"	"MullerLyer"	"-8.214290000"	"-0.076270000"	"1"	"44"
n/a	"html-keyboard-response"	"104"	"310118"	"0.0-4.0-2.0-0.26"	"yuqm8t"	"620"	"1022"	"chrome"	"108.0.0"	"FALSE"	"Windows 10"	"60.09"	n/a	n/a	n/a	n/a	n/a	n/a	"fixation"	n/a	n/a	n/a	n/a	"NULL"	"NULL"	"NULL"	n/a	"<p style=\"color: black; font-size: 80px; padding-left: 49%; padding-right: 14%; padding-top: 49%; padding-bottom: 9%\">+</p>"	n/a	"1106"	n/a	n/a	n/a	n/a	n/a	n/a	n/a	n/a	n/a
n/a	"image-keyboard-response"	"105"	"310785"	"0.0-4.0-2.0-1.26"	"yuqm8t"	"620"	"1022"	"chrome"	"108.0.0"	"FALSE"	"Windows 10"	"60.09"	n/a	n/a	n/a	n/a	n/a	n/a	"Trial"	n/a	n/a	n/a	n/a	"NULL"	"NULL"	"NULL"	"665"	"stimuli/MullerLyer_2.30000_0.14541.png"	"arrowup"	n/a	"MullerLyer"	"arrowup"	"1126"	"TRUE"	"MullerLyer"	"2.3000000000"	"0.1454100000"	"1"	"45"
n/a	"html-keyboard-response"	"106"	"311975"	"0.0-4.0-2.0-0.27"	"yuqm8t"	"620"	"1022"	"chrome"	"108.0.0"	"FALSE"	"Windows 10"	"60.09"	n/a	n/a	n/a	n/a	n/a	n/a	"fixation"	n/a	n/a	n/a	n/a	"NULL"	"NULL"	"NULL"	n/a	"<p style=\"color: black; font-size: 80px; padding-left: 46%; padding-right: 27%; padding-top: 39%; padding-bottom: 33%\">+</p>"	n/a	"1181"	n/a	n/a	n/a	n/a	n/a	n/a	n/a	n/a	n/a
n/a	"image-keyboard-response"	"107"	"312441"	"0.0-4.0-2.0-1.27"	"yuqm8t"	"620"	"1022"	"chrome"	"108.0.0"	"FALSE"	"Windows 10"	"60.09"	n/a	n/a	n/a	n/a	n/a	n/a	"Trial"	n/a	n/a	n/a	n/a	"NULL"	"NULL"	"NULL"	"464"	"stimuli/MullerLyer_20.04286_0.07627.png"	"arrowdown"	n/a	"MullerLyer"	"arrowup"	"1190"	"FALSE"	"MullerLyer"	"20.042860000"	"0.0762700000"	"1"	"46"
n/a	"html-keyboard-response"	"108"	"313878"	"0.0-4.0-2.0-0.28"	"yuqm8t"	"620"	"1022"	"chrome"	"108.0.0"	"FALSE"	"Windows 10"	"60.09"	n/a	n/a	n/a	n/a	n/a	n/a	"fixation"	n/a	n/a	n/a	n/a	"NULL"	"NULL"	"NULL"	n/a	"<p style=\"color: black; font-size: 80px; padding-left: 4%; padding-right: 4%; padding-top: 33%; padding-bottom: 5%\">+</p>"	n/a	"1417"	n/a	n/a	n/a	n/a	n/a	n/a	n/a	n/a	n/a
n/a	"image-keyboard-response"	"109"	"314984"	"0.0-4.0-2.0-1.28"	"yuqm8t"	"620"	"1022"	"chrome"	"108.0.0"	"FALSE"	"Windows 10"	"60.09"	n/a	n/a	n/a	n/a	n/a	n/a	"Trial"	n/a	n/a	n/a	n/a	"NULL"	"NULL"	"NULL"	"1104"	"stimuli/MullerLyer_20.04286_0.23665.png"	"arrowup"	n/a	"MullerLyer"	"arrowup"	"1437"	"TRUE"	"MullerLyer"	"20.042860000"	"0.2366500000"	"1"	"47"
n/a	"html-keyboard-response"	"110"	"316177"	"0.0-4.0-2.0-0.29"	"yuqm8t"	"620"	"1022"	"chrome"	"108.0.0"	"FALSE"	"Windows 10"	"60.09"	n/a	n/a	n/a	n/a	n/a	n/a	"fixation"	n/a	n/a	n/a	n/a	"NULL"	"NULL"	"NULL"	n/a	"<p style=\"color: black; font-size: 80px; padding-left: 9%; padding-right: 10%; padding-top: 48%; padding-bottom: 45%\">+</p>"	n/a	"1182"	n/a	n/a	n/a	n/a	n/a	n/a	n/a	n/a	n/a
n/a	"image-keyboard-response"	"111"	"317302"	"0.0-4.0-2.0-1.29"	"yuqm8t"	"620"	"1022"	"chrome"	"108.0.0"	"FALSE"	"Windows 10"	"60.09"	n/a	n/a	n/a	n/a	n/a	n/a	"Trial"	n/a	n/a	n/a	n/a	"NULL"	"NULL"	"NULL"	"1123"	"stimuli/MullerLyer_14.12857_0.07627.png"	"arrowdown"	n/a	"MullerLyer"	"arrowup"	"1193"	"FALSE"	"MullerLyer"	"14.128570000"	"0.0762700000"	"1"	"48"
n/a	"html-keyboard-response"	"112"	"318632"	"0.0-4.0-2.0-0.30"	"yuqm8t"	"620"	"1022"	"chrome"	"108.0.0"	"FALSE"	"Windows 10"	"60.09"	n/a	n/a	n/a	n/a	n/a	n/a	"fixation"	n/a	n/a	n/a	n/a	"NULL"	"NULL"	"NULL"	n/a	"<p style=\"color: black; font-size: 80px; padding-left: 32%; padding-right: 22%; padding-top: 16%; padding-bottom: 12%\">+</p>"	n/a	"1317"	n/a	n/a	n/a	n/a	n/a	n/a	n/a	n/a	n/a
n/a	"image-keyboard-response"	"113"	"319172"	"0.0-4.0-2.0-1.30"	"yuqm8t"	"620"	"1022"	"chrome"	"108.0.0"	"FALSE"	"Windows 10"	"60.09"	n/a	n/a	n/a	n/a	n/a	n/a	"Trial"	n/a	n/a	n/a	n/a	"NULL"	"NULL"	"NULL"	"538"	"stimuli/MullerLyer_-2.3000_-0.23665.png"	"arrowdown"	n/a	"MullerLyer"	"arrowdown"	"1330"	"TRUE"	"MullerLyer"	"-2.300000000"	"-0.236650000"	"1"	"49"
n/a	"html-keyboard-response"	"114"	"320224"	"0.0-4.0-2.0-0.31"	"yuqm8t"	"620"	"1022"	"chrome"	"108.0.0"	"FALSE"	"Windows 10"	"60.09"	n/a	n/a	n/a	n/a	n/a	n/a	"fixation"	n/a	n/a	n/a	n/a	"NULL"	"NULL"	"NULL"	n/a	"<p style=\"color: black; font-size: 80px; padding-left: 38%; padding-right: 19%; padding-top: 23%; padding-bottom: 35%\">+</p>"	n/a	"1043"	n/a	n/a	n/a	n/a	n/a	n/a	n/a	n/a	n/a
n/a	"image-keyboard-response"	"115"	"320760"	"0.0-4.0-2.0-1.31"	"yuqm8t"	"620"	"1022"	"chrome"	"108.0.0"	"FALSE"	"Windows 10"	"60.09"	n/a	n/a	n/a	n/a	n/a	n/a	"Trial"	n/a	n/a	n/a	n/a	"NULL"	"NULL"	"NULL"	"535"	"stimuli/MullerLyer_-8.21429_-0.3500.png"	"arrowdown"	n/a	"MullerLyer"	"arrowdown"	"1052"	"TRUE"	"MullerLyer"	"-8.214290000"	"-0.350000000"	"1"	"50"
n/a	"html-keyboard-response"	"116"	"321939"	"0.0-4.0-2.0-0.32"	"yuqm8t"	"620"	"1022"	"chrome"	"108.0.0"	"FALSE"	"Windows 10"	"60.09"	n/a	n/a	n/a	n/a	n/a	n/a	"fixation"	n/a	n/a	n/a	n/a	"NULL"	"NULL"	"NULL"	n/a	"<p style=\"color: black; font-size: 80px; padding-left: 41%; padding-right: 45%; padding-top: 12%; padding-bottom: 3%\">+</p>"	n/a	"1169"	n/a	n/a	n/a	n/a	n/a	n/a	n/a	n/a	n/a
n/a	"image-keyboard-response"	"117"	"322789"	"0.0-4.0-2.0-1.32"	"yuqm8t"	"620"	"1022"	"chrome"	"108.0.0"	"FALSE"	"Windows 10"	"60.09"	n/a	n/a	n/a	n/a	n/a	n/a	"Trial"	n/a	n/a	n/a	n/a	"NULL"	"NULL"	"NULL"	"848"	"stimuli/MullerLyer_-14.12857_-0.07627.png"	"arrowdown"	n/a	"MullerLyer"	"arrowdown"	"1179"	"TRUE"	"MullerLyer"	"-14.12857000"	"-0.076270000"	"1"	"51"
n/a	"html-keyboard-response"	"118"	"324144"	"0.0-4.0-2.0-0.33"	"yuqm8t"	"620"	"1022"	"chrome"	"108.0.0"	"FALSE"	"Windows 10"	"60.09"	n/a	n/a	n/a	n/a	n/a	n/a	"fixation"	n/a	n/a	n/a	n/a	"NULL"	"NULL"	"NULL"	n/a	"<p style=\"color: black; font-size: 80px; padding-left: 16%; padding-right: 17%; padding-top: 21%; padding-bottom: 3%\">+</p>"	n/a	"1340"	n/a	n/a	n/a	n/a	n/a	n/a	n/a	n/a	n/a
n/a	"image-keyboard-response"	"119"	"324722"	"0.0-4.0-2.0-1.33"	"yuqm8t"	"620"	"1022"	"chrome"	"108.0.0"	"FALSE"	"Windows 10"	"60.09"	n/a	n/a	n/a	n/a	n/a	n/a	"Trial"	n/a	n/a	n/a	n/a	"NULL"	"NULL"	"NULL"	"577"	"stimuli/MullerLyer_8.21429_-0.23665.png"	"arrowdown"	n/a	"MullerLyer"	"arrowdown"	"1355"	"TRUE"	"MullerLyer"	"8.2142900000"	"-0.236650000"	"1"	"52"
n/a	"html-keyboard-response"	"120"	"326047"	"0.0-4.0-2.0-0.34"	"yuqm8t"	"620"	"1022"	"chrome"	"108.0.0"	"FALSE"	"Windows 10"	"60.09"	n/a	n/a	n/a	n/a	n/a	n/a	"fixation"	n/a	n/a	n/a	n/a	"NULL"	"NULL"	"NULL"	n/a	"<p style=\"color: black; font-size: 80px; padding-left: 40%; padding-right: 16%; padding-top: 29%; padding-bottom: 43%\">+</p>"	n/a	"1310"	n/a	n/a	n/a	n/a	n/a	n/a	n/a	n/a	n/a
n/a	"image-keyboard-response"	"121"	"326960"	"0.0-4.0-2.0-1.34"	"yuqm8t"	"620"	"1022"	"chrome"	"108.0.0"	"FALSE"	"Windows 10"	"60.09"	n/a	n/a	n/a	n/a	n/a	n/a	"Trial"	n/a	n/a	n/a	n/a	"NULL"	"NULL"	"NULL"	"912"	"stimuli/MullerLyer_-2.3000_-0.07627.png"	"arrowdown"	n/a	"MullerLyer"	"arrowdown"	"1325"	"TRUE"	"MullerLyer"	"-2.300000000"	"-0.076270000"	"1"	"53"
n/a	"html-keyboard-response"	"122"	"328138"	"0.0-4.0-2.0-0.35"	"yuqm8t"	"620"	"1022"	"chrome"	"108.0.0"	"FALSE"	"Windows 10"	"60.09"	n/a	n/a	n/a	n/a	n/a	n/a	"fixation"	n/a	n/a	n/a	n/a	"NULL"	"NULL"	"NULL"	n/a	"<p style=\"color: black; font-size: 80px; padding-left: 44%; padding-right: 27%; padding-top: 10%; padding-bottom: 8%\">+</p>"	n/a	"1175"	n/a	n/a	n/a	n/a	n/a	n/a	n/a	n/a	n/a
n/a	"image-keyboard-response"	"123"	"328794"	"0.0-4.0-2.0-1.35"	"yuqm8t"	"620"	"1022"	"chrome"	"108.0.0"	"FALSE"	"Windows 10"	"60.09"	n/a	n/a	n/a	n/a	n/a	n/a	"Trial"	n/a	n/a	n/a	n/a	"NULL"	"NULL"	"NULL"	"654"	"stimuli/MullerLyer_8.21429_0.35000.png"	"arrowup"	n/a	"MullerLyer"	"arrowup"	"1178"	"TRUE"	"MullerLyer"	"8.2142900000"	"0.3500000000"	"1"	"54"
n/a	"html-keyboard-response"	"124"	"330224"	"0.0-4.0-2.0-0.36"	"yuqm8t"	"620"	"1022"	"chrome"	"108.0.0"	"FALSE"	"Windows 10"	"60.09"	n/a	n/a	n/a	n/a	n/a	n/a	"fixation"	n/a	n/a	n/a	n/a	"NULL"	"NULL"	"NULL"	n/a	"<p style=\"color: black; font-size: 80px; padding-left: 5%; padding-right: 10%; padding-top: 3%; padding-bottom: 46%\">+</p>"	n/a	"1417"	n/a	n/a	n/a	n/a	n/a	n/a	n/a	n/a	n/a
n/a	"image-keyboard-response"	"125"	"330755"	"0.0-4.0-2.0-1.36"	"yuqm8t"	"620"	"1022"	"chrome"	"108.0.0"	"FALSE"	"Windows 10"	"60.09"	n/a	n/a	n/a	n/a	n/a	n/a	"Trial"	n/a	n/a	n/a	n/a	"NULL"	"NULL"	"NULL"	"529"	"stimuli/MullerLyer_-8.21429_-0.23665.png"	"arrowdown"	n/a	"MullerLyer"	"arrowdown"	"1430"	"TRUE"	"MullerLyer"	"-8.214290000"	"-0.236650000"	"1"	"55"
n/a	"html-keyboard-response"	"126"	"331826"	"0.0-4.0-2.0-0.37"	"yuqm8t"	"620"	"1022"	"chrome"	"108.0.0"	"FALSE"	"Windows 10"	"60.09"	n/a	n/a	n/a	n/a	n/a	n/a	"fixation"	n/a	n/a	n/a	n/a	"NULL"	"NULL"	"NULL"	n/a	"<p style=\"color: black; font-size: 80px; padding-left: 24%; padding-right: 3%; padding-top: 24%; padding-bottom: 36%\">+</p>"	n/a	"1067"	n/a	n/a	n/a	n/a	n/a	n/a	n/a	n/a	n/a
n/a	"image-keyboard-response"	"127"	"332445"	"0.0-4.0-2.0-1.37"	"yuqm8t"	"620"	"1022"	"chrome"	"108.0.0"	"FALSE"	"Windows 10"	"60.09"	n/a	n/a	n/a	n/a	n/a	n/a	"Trial"	n/a	n/a	n/a	n/a	"NULL"	"NULL"	"NULL"	"617"	"stimuli/MullerLyer_-8.21429_0.23665.png"	"arrowup"	n/a	"MullerLyer"	"arrowup"	"1071"	"TRUE"	"MullerLyer"	"-8.214290000"	"0.2366500000"	"1"	"56"
n/a	"html-keyboard-response"	"128"	"333951"	"0.0-4.0-2.0-0.38"	"yuqm8t"	"620"	"1022"	"chrome"	"108.0.0"	"FALSE"	"Windows 10"	"60.09"	n/a	n/a	n/a	n/a	n/a	n/a	"fixation"	n/a	n/a	n/a	n/a	"NULL"	"NULL"	"NULL"	n/a	"<p style=\"color: black; font-size: 80px; padding-left: 7%; padding-right: 9%; padding-top: 18%; padding-bottom: 35%\">+</p>"	n/a	"1494"	n/a	n/a	n/a	n/a	n/a	n/a	n/a	n/a	n/a
n/a	"image-keyboard-response"	"129"	"334801"	"0.0-4.0-2.0-1.38"	"yuqm8t"	"620"	"1022"	"chrome"	"108.0.0"	"FALSE"	"Windows 10"	"60.09"	n/a	n/a	n/a	n/a	n/a	n/a	"Trial"	n/a	n/a	n/a	n/a	"NULL"	"NULL"	"NULL"	"848"	"stimuli/MullerLyer_20.04286_-0.14541.png"	"arrowup"	n/a	"MullerLyer"	"arrowdown"	"1506"	"FALSE"	"MullerLyer"	"20.042860000"	"-0.145410000"	"1"	"57"
n/a	"html-keyboard-response"	"130"	"336173"	"0.0-4.0-2.0-0.39"	"yuqm8t"	"620"	"1022"	"chrome"	"108.0.0"	"FALSE"	"Windows 10"	"60.09"	n/a	n/a	n/a	n/a	n/a	n/a	"fixation"	n/a	n/a	n/a	n/a	"NULL"	"NULL"	"NULL"	n/a	"<p style=\"color: black; font-size: 80px; padding-left: 23%; padding-right: 25%; padding-top: 44%; padding-bottom: 23%\">+</p>"	n/a	"1359"	n/a	n/a	n/a	n/a	n/a	n/a	n/a	n/a	n/a
n/a	"image-keyboard-response"	"131"	"336720"	"0.0-4.0-2.0-1.39"	"yuqm8t"	"620"	"1022"	"chrome"	"108.0.0"	"FALSE"	"Windows 10"	"60.09"	n/a	n/a	n/a	n/a	n/a	n/a	"Trial"	n/a	n/a	n/a	n/a	"NULL"	"NULL"	"NULL"	"541"	"stimuli/MullerLyer_-2.3000_0.35000.png"	"arrowup"	n/a	"MullerLyer"	"arrowup"	"1372"	"TRUE"	"MullerLyer"	"-2.300000000"	"0.3500000000"	"1"	"58"
n/a	"html-keyboard-response"	"132"	"338172"	"0.0-4.0-2.0-0.40"	"yuqm8t"	"620"	"1022"	"chrome"	"108.0.0"	"FALSE"	"Windows 10"	"60.09"	n/a	n/a	n/a	n/a	n/a	n/a	"fixation"	n/a	n/a	n/a	n/a	"NULL"	"NULL"	"NULL"	n/a	"<p style=\"color: black; font-size: 80px; padding-left: 24%; padding-right: 4%; padding-top: 40%; padding-bottom: 38%\">+</p>"	n/a	"1446"	n/a	n/a	n/a	n/a	n/a	n/a	n/a	n/a	n/a
n/a	"image-keyboard-response"	"133"	"338743"	"0.0-4.0-2.0-1.40"	"yuqm8t"	"620"	"1022"	"chrome"	"108.0.0"	"FALSE"	"Windows 10"	"60.09"	n/a	n/a	n/a	n/a	n/a	n/a	"Trial"	n/a	n/a	n/a	n/a	"NULL"	"NULL"	"NULL"	"570"	"stimuli/MullerLyer_-14.12857_0.35000.png"	"arrowup"	n/a	"MullerLyer"	"arrowup"	"1452"	"TRUE"	"MullerLyer"	"-14.12857000"	"0.3500000000"	"1"	"59"
n/a	"html-keyboard-response"	"134"	"339799"	"0.0-4.0-2.0-0.41"	"yuqm8t"	"620"	"1022"	"chrome"	"108.0.0"	"FALSE"	"Windows 10"	"60.09"	n/a	n/a	n/a	n/a	n/a	n/a	"fixation"	n/a	n/a	n/a	n/a	"NULL"	"NULL"	"NULL"	n/a	"<p style=\"color: black; font-size: 80px; padding-left: 8%; padding-right: 12%; padding-top: 26%; padding-bottom: 44%\">+</p>"	n/a	"1037"	n/a	n/a	n/a	n/a	n/a	n/a	n/a	n/a	n/a
n/a	"image-keyboard-response"	"135"	"340435"	"0.0-4.0-2.0-1.41"	"yuqm8t"	"620"	"1022"	"chrome"	"108.0.0"	"FALSE"	"Windows 10"	"60.09"	n/a	n/a	n/a	n/a	n/a	n/a	"Trial"	n/a	n/a	n/a	n/a	"NULL"	"NULL"	"NULL"	"634"	"stimuli/MullerLyer_-8.21429_0.07627.png"	"arrowup"	n/a	"MullerLyer"	"arrowup"	"1056"	"TRUE"	"MullerLyer"	"-8.214290000"	"0.0762700000"	"1"	"60"
n/a	"html-keyboard-response"	"136"	"341736"	"0.0-4.0-2.0-0.42"	"yuqm8t"	"620"	"1022"	"chrome"	"108.0.0"	"FALSE"	"Windows 10"	"60.09"	n/a	n/a	n/a	n/a	n/a	n/a	"fixation"	n/a	n/a	n/a	n/a	"NULL"	"NULL"	"NULL"	n/a	"<p style=\"color: black; font-size: 80px; padding-left: 23%; padding-right: 24%; padding-top: 23%; padding-bottom: 10%\">+</p>"	n/a	"1283"	n/a	n/a	n/a	n/a	n/a	n/a	n/a	n/a	n/a
n/a	"image-keyboard-response"	"137"	"342219"	"0.0-4.0-2.0-1.42"	"yuqm8t"	"620"	"1022"	"chrome"	"108.0.0"	"FALSE"	"Windows 10"	"60.09"	n/a	n/a	n/a	n/a	n/a	n/a	"Trial"	n/a	n/a	n/a	n/a	"NULL"	"NULL"	"NULL"	"482"	"stimuli/MullerLyer_14.12857_0.35000.png"	"arrowup"	n/a	"MullerLyer"	"arrowup"	"1301"	"TRUE"	"MullerLyer"	"14.128570000"	"0.3500000000"	"1"	"61"
n/a	"html-keyboard-response"	"138"	"343272"	"0.0-4.0-2.0-0.43"	"yuqm8t"	"620"	"1022"	"chrome"	"108.0.0"	"FALSE"	"Windows 10"	"60.09"	n/a	n/a	n/a	n/a	n/a	n/a	"fixation"	n/a	n/a	n/a	n/a	"NULL"	"NULL"	"NULL"	n/a	"<p style=\"color: black; font-size: 80px; padding-left: 23%; padding-right: 37%; padding-top: 27%; padding-bottom: 3%\">+</p>"	n/a	"1051"	n/a	n/a	n/a	n/a	n/a	n/a	n/a	n/a	n/a
n/a	"image-keyboard-response"	"139"	"343983"	"0.0-4.0-2.0-1.43"	"yuqm8t"	"620"	"1022"	"chrome"	"108.0.0"	"FALSE"	"Windows 10"	"60.09"	n/a	n/a	n/a	n/a	n/a	n/a	"Trial"	n/a	n/a	n/a	n/a	"NULL"	"NULL"	"NULL"	"709"	"stimuli/MullerLyer_14.12857_0.14541.png"	"arrowup"	n/a	"MullerLyer"	"arrowup"	"1053"	"TRUE"	"MullerLyer"	"14.128570000"	"0.1454100000"	"1"	"62"
n/a	"html-keyboard-response"	"140"	"345076"	"0.0-4.0-2.0-0.44"	"yuqm8t"	"620"	"1022"	"chrome"	"108.0.0"	"FALSE"	"Windows 10"	"60.09"	n/a	n/a	n/a	n/a	n/a	n/a	"fixation"	n/a	n/a	n/a	n/a	"NULL"	"NULL"	"NULL"	n/a	"<p style=\"color: black; font-size: 80px; padding-left: 31%; padding-right: 19%; padding-top: 20%; padding-bottom: 28%\">+</p>"	n/a	"1081"	n/a	n/a	n/a	n/a	n/a	n/a	n/a	n/a	n/a
n/a	"image-keyboard-response"	"141"	"345593"	"0.0-4.0-2.0-1.44"	"yuqm8t"	"620"	"1022"	"chrome"	"108.0.0"	"FALSE"	"Windows 10"	"60.09"	n/a	n/a	n/a	n/a	n/a	n/a	"Trial"	n/a	n/a	n/a	n/a	"NULL"	"NULL"	"NULL"	"516"	"stimuli/MullerLyer_-20.04286_0.35000.png"	"arrowup"	n/a	"MullerLyer"	"arrowup"	"1093"	"TRUE"	"MullerLyer"	"-20.04286000"	"0.3500000000"	"1"	"63"
n/a	"html-keyboard-response"	"142"	"346814"	"0.0-4.0-2.0-0.45"	"yuqm8t"	"620"	"1022"	"chrome"	"108.0.0"	"FALSE"	"Windows 10"	"60.09"	n/a	n/a	n/a	n/a	n/a	n/a	"fixation"	n/a	n/a	n/a	n/a	"NULL"	"NULL"	"NULL"	n/a	"<p style=\"color: black; font-size: 80px; padding-left: 28%; padding-right: 5%; padding-top: 32%; padding-bottom: 19%\">+</p>"	n/a	"1202"	n/a	n/a	n/a	n/a	n/a	n/a	n/a	n/a	n/a
n/a	"image-keyboard-response"	"143"	"347210"	"0.0-4.0-2.0-1.45"	"yuqm8t"	"620"	"1022"	"chrome"	"108.0.0"	"FALSE"	"Windows 10"	"60.09"	n/a	n/a	n/a	n/a	n/a	n/a	"Trial"	n/a	n/a	n/a	n/a	"NULL"	"NULL"	"NULL"	"394"	"stimuli/MullerLyer_20.04286_-0.23665.png"	"arrowup"	n/a	"MullerLyer"	"arrowdown"	"1221"	"FALSE"	"MullerLyer"	"20.042860000"	"-0.236650000"	"1"	"64"
n/a	"html-keyboard-response"	"144"	"348521"	"0.0-4.0-2.0-0.46"	"yuqm8t"	"620"	"1022"	"chrome"	"108.0.0"	"FALSE"	"Windows 10"	"60.09"	n/a	n/a	n/a	n/a	n/a	n/a	"fixation"	n/a	n/a	n/a	n/a	"NULL"	"NULL"	"NULL"	n/a	"<p style=\"color: black; font-size: 80px; padding-left: 34%; padding-right: 5%; padding-top: 33%; padding-bottom: 43%\">+</p>"	n/a	"1292"	n/a	n/a	n/a	n/a	n/a	n/a	n/a	n/a	n/a
n/a	"image-keyboard-response"	"145"	"349141"	"0.0-4.0-2.0-1.46"	"yuqm8t"	"620"	"1022"	"chrome"	"108.0.0"	"FALSE"	"Windows 10"	"60.09"	n/a	n/a	n/a	n/a	n/a	n/a	"Trial"	n/a	n/a	n/a	n/a	"NULL"	"NULL"	"NULL"	"619"	"stimuli/MullerLyer_-20.04286_0.14541.png"	"arrowup"	n/a	"MullerLyer"	"arrowup"	"1311"	"TRUE"	"MullerLyer"	"-20.04286000"	"0.1454100000"	"1"	"65"
n/a	"html-keyboard-response"	"146"	"350201"	"0.0-4.0-2.0-0.47"	"yuqm8t"	"620"	"1022"	"chrome"	"108.0.0"	"FALSE"	"Windows 10"	"60.09"	n/a	n/a	n/a	n/a	n/a	n/a	"fixation"	n/a	n/a	n/a	n/a	"NULL"	"NULL"	"NULL"	n/a	"<p style=\"color: black; font-size: 80px; padding-left: 37%; padding-right: 3%; padding-top: 1%; padding-bottom: 10%\">+</p>"	n/a	"1056"	n/a	n/a	n/a	n/a	n/a	n/a	n/a	n/a	n/a
n/a	"image-keyboard-response"	"147"	"350811"	"0.0-4.0-2.0-1.47"	"yuqm8t"	"620"	"1022"	"chrome"	"108.0.0"	"FALSE"	"Windows 10"	"60.09"	n/a	n/a	n/a	n/a	n/a	n/a	"Trial"	n/a	n/a	n/a	n/a	"NULL"	"NULL"	"NULL"	"608"	"stimuli/MullerLyer_2.30000_0.23665.png"	"arrowup"	n/a	"MullerLyer"	"arrowup"	"1060"	"TRUE"	"MullerLyer"	"2.3000000000"	"0.2366500000"	"1"	"66"
n/a	"html-keyboard-response"	"148"	"351848"	"0.0-4.0-2.0-0.48"	"yuqm8t"	"620"	"1022"	"chrome"	"108.0.0"	"FALSE"	"Windows 10"	"60.09"	n/a	n/a	n/a	n/a	n/a	n/a	"fixation"	n/a	n/a	n/a	n/a	"NULL"	"NULL"	"NULL"	n/a	"<p style=\"color: black; font-size: 80px; padding-left: 29%; padding-right: 35%; padding-top: 31%; padding-bottom: 35%\">+</p>"	n/a	"1015"	n/a	n/a	n/a	n/a	n/a	n/a	n/a	n/a	n/a
n/a	"image-keyboard-response"	"149"	"354594"	"0.0-4.0-2.0-1.48"	"yuqm8t"	"620"	"1022"	"chrome"	"108.0.0"	"FALSE"	"Windows 10"	"60.09"	n/a	n/a	n/a	n/a	n/a	n/a	"Trial"	n/a	n/a	n/a	n/a	"NULL"	"NULL"	"NULL"	"2745"	"stimuli/MullerLyer_8.21429_0.07627.png"	"arrowdown"	n/a	"MullerLyer"	"arrowup"	"1037"	"FALSE"	"MullerLyer"	"8.2142900000"	"0.0762700000"	"1"	"67"
n/a	"html-keyboard-response"	"150"	"355906"	"0.0-4.0-2.0-0.49"	"yuqm8t"	"620"	"1022"	"chrome"	"108.0.0"	"FALSE"	"Windows 10"	"60.09"	n/a	n/a	n/a	n/a	n/a	n/a	"fixation"	n/a	n/a	n/a	n/a	"NULL"	"NULL"	"NULL"	n/a	"<p style=\"color: black; font-size: 80px; padding-left: 18%; padding-right: 32%; padding-top: 8%; padding-bottom: 48%\">+</p>"	n/a	"1299"	n/a	n/a	n/a	n/a	n/a	n/a	n/a	n/a	n/a
n/a	"image-keyboard-response"	"151"	"357145"	"0.0-4.0-2.0-1.49"	"yuqm8t"	"620"	"1022"	"chrome"	"108.0.0"	"FALSE"	"Windows 10"	"60.09"	n/a	n/a	n/a	n/a	n/a	n/a	"Trial"	n/a	n/a	n/a	n/a	"NULL"	"NULL"	"NULL"	"1238"	"stimuli/MullerLyer_2.30000_-0.07627.png"	"arrowdown"	n/a	"MullerLyer"	"arrowdown"	"1312"	"TRUE"	"MullerLyer"	"2.3000000000"	"-0.076270000"	"1"	"68"
n/a	"html-keyboard-response"	"152"	"358373"	"0.0-4.0-2.0-0.50"	"yuqm8t"	"620"	"1022"	"chrome"	"108.0.0"	"FALSE"	"Windows 10"	"60.09"	n/a	n/a	n/a	n/a	n/a	n/a	"fixation"	n/a	n/a	n/a	n/a	"NULL"	"NULL"	"NULL"	n/a	"<p style=\"color: black; font-size: 80px; padding-left: 40%; padding-right: 6%; padding-top: 29%; padding-bottom: 0%\">+</p>"	n/a	"1222"	n/a	n/a	n/a	n/a	n/a	n/a	n/a	n/a	n/a
n/a	"image-keyboard-response"	"153"	"358980"	"0.0-4.0-2.0-1.50"	"yuqm8t"	"620"	"1022"	"chrome"	"108.0.0"	"FALSE"	"Windows 10"	"60.09"	n/a	n/a	n/a	n/a	n/a	n/a	"Trial"	n/a	n/a	n/a	n/a	"NULL"	"NULL"	"NULL"	"605"	"stimuli/MullerLyer_-20.04286_0.23665.png"	"arrowup"	n/a	"MullerLyer"	"arrowup"	"1228"	"TRUE"	"MullerLyer"	"-20.04286000"	"0.2366500000"	"1"	"69"
n/a	"html-keyboard-response"	"154"	"360323"	"0.0-4.0-2.0-0.51"	"yuqm8t"	"620"	"1022"	"chrome"	"108.0.0"	"FALSE"	"Windows 10"	"60.09"	n/a	n/a	n/a	n/a	n/a	n/a	"fixation"	n/a	n/a	n/a	n/a	"NULL"	"NULL"	"NULL"	n/a	"<p style=\"color: black; font-size: 80px; padding-left: 46%; padding-right: 45%; padding-top: 23%; padding-bottom: 47%\">+</p>"	n/a	"1328"	n/a	n/a	n/a	n/a	n/a	n/a	n/a	n/a	n/a
n/a	"image-keyboard-response"	"155"	"360882"	"0.0-4.0-2.0-1.51"	"yuqm8t"	"620"	"1022"	"chrome"	"108.0.0"	"FALSE"	"Windows 10"	"60.09"	n/a	n/a	n/a	n/a	n/a	n/a	"Trial"	n/a	n/a	n/a	n/a	"NULL"	"NULL"	"NULL"	"557"	"stimuli/MullerLyer_-20.04286_-0.07627.png"	"arrowdown"	n/a	"MullerLyer"	"arrowdown"	"1343"	"TRUE"	"MullerLyer"	"-20.04286000"	"-0.076270000"	"1"	"70"
n/a	"html-keyboard-response"	"156"	"362130"	"0.0-4.0-2.0-0.52"	"yuqm8t"	"620"	"1022"	"chrome"	"108.0.0"	"FALSE"	"Windows 10"	"60.09"	n/a	n/a	n/a	n/a	n/a	n/a	"fixation"	n/a	n/a	n/a	n/a	"NULL"	"NULL"	"NULL"	n/a	"<p style=\"color: black; font-size: 80px; padding-left: 18%; padding-right: 12%; padding-top: 2%; padding-bottom: 49%\">+</p>"	n/a	"1234"	n/a	n/a	n/a	n/a	n/a	n/a	n/a	n/a	n/a
n/a	"image-keyboard-response"	"157"	"362709"	"0.0-4.0-2.0-1.52"	"yuqm8t"	"620"	"1022"	"chrome"	"108.0.0"	"FALSE"	"Windows 10"	"60.09"	n/a	n/a	n/a	n/a	n/a	n/a	"Trial"	n/a	n/a	n/a	n/a	"NULL"	"NULL"	"NULL"	"578"	"stimuli/MullerLyer_2.30000_-0.3500.png"	"arrowdown"	n/a	"MullerLyer"	"arrowdown"	"1248"	"TRUE"	"MullerLyer"	"2.3000000000"	"-0.350000000"	"1"	"71"
n/a	"html-keyboard-response"	"158"	"363849"	"0.0-4.0-2.0-0.53"	"yuqm8t"	"620"	"1022"	"chrome"	"108.0.0"	"FALSE"	"Windows 10"	"60.09"	n/a	n/a	n/a	n/a	n/a	n/a	"fixation"	n/a	n/a	n/a	n/a	"NULL"	"NULL"	"NULL"	n/a	"<p style=\"color: black; font-size: 80px; padding-left: 20%; padding-right: 2%; padding-top: 33%; padding-bottom: 19%\">+</p>"	n/a	"1123"	n/a	n/a	n/a	n/a	n/a	n/a	n/a	n/a	n/a
n/a	"image-keyboard-response"	"159"	"364357"	"0.0-4.0-2.0-1.53"	"yuqm8t"	"620"	"1022"	"chrome"	"108.0.0"	"FALSE"	"Windows 10"	"60.09"	n/a	n/a	n/a	n/a	n/a	n/a	"Trial"	n/a	n/a	n/a	n/a	"NULL"	"NULL"	"NULL"	"506"	"stimuli/MullerLyer_-14.12857_-0.23665.png"	"arrowdown"	n/a	"MullerLyer"	"arrowdown"	"1140"	"TRUE"	"MullerLyer"	"-14.12857000"	"-0.236650000"	"1"	"72"
n/a	"html-keyboard-response"	"160"	"365614"	"0.0-4.0-2.0-0.54"	"yuqm8t"	"620"	"1022"	"chrome"	"108.0.0"	"FALSE"	"Windows 10"	"60.09"	n/a	n/a	n/a	n/a	n/a	n/a	"fixation"	n/a	n/a	n/a	n/a	"NULL"	"NULL"	"NULL"	n/a	"<p style=\"color: black; font-size: 80px; padding-left: 1%; padding-right: 24%; padding-top: 11%; padding-bottom: 44%\">+</p>"	n/a	"1241"	n/a	n/a	n/a	n/a	n/a	n/a	n/a	n/a	n/a
n/a	"image-keyboard-response"	"161"	"366595"	"0.0-4.0-2.0-1.54"	"yuqm8t"	"620"	"1022"	"chrome"	"108.0.0"	"FALSE"	"Windows 10"	"60.09"	n/a	n/a	n/a	n/a	n/a	n/a	"Trial"	n/a	n/a	n/a	n/a	"NULL"	"NULL"	"NULL"	"979"	"stimuli/MullerLyer_14.12857_0.23665.png"	"arrowup"	n/a	"MullerLyer"	"arrowup"	"1257"	"TRUE"	"MullerLyer"	"14.128570000"	"0.2366500000"	"1"	"73"
n/a	"html-keyboard-response"	"162"	"367740"	"0.0-4.0-2.0-0.55"	"yuqm8t"	"620"	"1022"	"chrome"	"108.0.0"	"FALSE"	"Windows 10"	"60.09"	n/a	n/a	n/a	n/a	n/a	n/a	"fixation"	n/a	n/a	n/a	n/a	"NULL"	"NULL"	"NULL"	n/a	"<p style=\"color: black; font-size: 80px; padding-left: 9%; padding-right: 36%; padding-top: 37%; padding-bottom: 8%\">+</p>"	n/a	"1140"	n/a	n/a	n/a	n/a	n/a	n/a	n/a	n/a	n/a
n/a	"image-keyboard-response"	"163"	"368892"	"0.0-4.0-2.0-1.55"	"yuqm8t"	"620"	"1022"	"chrome"	"108.0.0"	"FALSE"	"Windows 10"	"60.09"	n/a	n/a	n/a	n/a	n/a	n/a	"Trial"	n/a	n/a	n/a	n/a	"NULL"	"NULL"	"NULL"	"1151"	"stimuli/MullerLyer_8.21429_-0.07627.png"	"arrowup"	n/a	"MullerLyer"	"arrowdown"	"1145"	"FALSE"	"MullerLyer"	"8.2142900000"	"-0.076270000"	"1"	"74"
n/a	"html-keyboard-response"	"164"	"370232"	"0.0-4.0-2.0-0.56"	"yuqm8t"	"620"	"1022"	"chrome"	"108.0.0"	"FALSE"	"Windows 10"	"60.09"	n/a	n/a	n/a	n/a	n/a	n/a	"fixation"	n/a	n/a	n/a	n/a	"NULL"	"NULL"	"NULL"	n/a	"<p style=\"color: black; font-size: 80px; padding-left: 6%; padding-right: 26%; padding-top: 26%; padding-bottom: 48%\">+</p>"	n/a	"1328"	n/a	n/a	n/a	n/a	n/a	n/a	n/a	n/a	n/a
n/a	"image-keyboard-response"	"165"	"370892"	"0.0-4.0-2.0-1.56"	"yuqm8t"	"620"	"1022"	"chrome"	"108.0.0"	"FALSE"	"Windows 10"	"60.09"	n/a	n/a	n/a	n/a	n/a	n/a	"Trial"	n/a	n/a	n/a	n/a	"NULL"	"NULL"	"NULL"	"658"	"stimuli/MullerLyer_20.04286_-0.3500.png"	"arrowdown"	n/a	"MullerLyer"	"arrowdown"	"1340"	"TRUE"	"MullerLyer"	"20.042860000"	"-0.350000000"	"1"	"75"
n/a	"html-keyboard-response"	"166"	"372250"	"0.0-4.0-2.0-0.57"	"yuqm8t"	"620"	"1022"	"chrome"	"108.0.0"	"FALSE"	"Windows 10"	"60.09"	n/a	n/a	n/a	n/a	n/a	n/a	"fixation"	n/a	n/a	n/a	n/a	"NULL"	"NULL"	"NULL"	n/a	"<p style=\"color: black; font-size: 80px; padding-left: 23%; padding-right: 0%; padding-top: 4%; padding-bottom: 1%\">+</p>"	n/a	"1343"	n/a	n/a	n/a	n/a	n/a	n/a	n/a	n/a	n/a
n/a	"image-keyboard-response"	"167"	"372999"	"0.0-4.0-2.0-1.57"	"yuqm8t"	"620"	"1022"	"chrome"	"108.0.0"	"FALSE"	"Windows 10"	"60.09"	n/a	n/a	n/a	n/a	n/a	n/a	"Trial"	n/a	n/a	n/a	n/a	"NULL"	"NULL"	"NULL"	"748"	"stimuli/MullerLyer_20.04286_-0.07627.png"	"arrowup"	n/a	"MullerLyer"	"arrowdown"	"1358"	"FALSE"	"MullerLyer"	"20.042860000"	"-0.076270000"	"1"	"76"
n/a	"html-keyboard-response"	"168"	"374027"	"0.0-4.0-2.0-0.58"	"yuqm8t"	"620"	"1022"	"chrome"	"108.0.0"	"FALSE"	"Windows 10"	"60.09"	n/a	n/a	n/a	n/a	n/a	n/a	"fixation"	n/a	n/a	n/a	n/a	"NULL"	"NULL"	"NULL"	n/a	"<p style=\"color: black; font-size: 80px; padding-left: 31%; padding-right: 49%; padding-top: 35%; padding-bottom: 32%\">+</p>"	n/a	"1024"	n/a	n/a	n/a	n/a	n/a	n/a	n/a	n/a	n/a
n/a	"image-keyboard-response"	"169"	"374633"	"0.0-4.0-2.0-1.58"	"yuqm8t"	"620"	"1022"	"chrome"	"108.0.0"	"FALSE"	"Windows 10"	"60.09"	n/a	n/a	n/a	n/a	n/a	n/a	"Trial"	n/a	n/a	n/a	n/a	"NULL"	"NULL"	"NULL"	"605"	"stimuli/MullerLyer_8.21429_-0.3500.png"	"arrowdown"	n/a	"MullerLyer"	"arrowdown"	"1028"	"TRUE"	"MullerLyer"	"8.2142900000"	"-0.350000000"	"1"	"77"
n/a	"html-keyboard-response"	"170"	"375679"	"0.0-4.0-2.0-0.59"	"yuqm8t"	"620"	"1022"	"chrome"	"108.0.0"	"FALSE"	"Windows 10"	"60.09"	n/a	n/a	n/a	n/a	n/a	n/a	"fixation"	n/a	n/a	n/a	n/a	"NULL"	"NULL"	"NULL"	n/a	"<p style=\"color: black; font-size: 80px; padding-left: 9%; padding-right: 38%; padding-top: 30%; padding-bottom: 45%\">+</p>"	n/a	"1038"	n/a	n/a	n/a	n/a	n/a	n/a	n/a	n/a	n/a
n/a	"image-keyboard-response"	"171"	"376327"	"0.0-4.0-2.0-1.59"	"yuqm8t"	"620"	"1022"	"chrome"	"108.0.0"	"FALSE"	"Windows 10"	"60.09"	n/a	n/a	n/a	n/a	n/a	n/a	"Trial"	n/a	n/a	n/a	n/a	"NULL"	"NULL"	"NULL"	"646"	"stimuli/MullerLyer_2.30000_0.07627.png"	"arrowup"	n/a	"MullerLyer"	"arrowup"	"1046"	"TRUE"	"MullerLyer"	"2.3000000000"	"0.0762700000"	"1"	"78"
n/a	"html-keyboard-response"	"172"	"377755"	"0.0-4.0-2.0-0.60"	"yuqm8t"	"620"	"1022"	"chrome"	"108.0.0"	"FALSE"	"Windows 10"	"60.09"	n/a	n/a	n/a	n/a	n/a	n/a	"fixation"	n/a	n/a	n/a	n/a	"NULL"	"NULL"	"NULL"	n/a	"<p style=\"color: black; font-size: 80px; padding-left: 39%; padding-right: 32%; padding-top: 5%; padding-bottom: 34%\">+</p>"	n/a	"1417"	n/a	n/a	n/a	n/a	n/a	n/a	n/a	n/a	n/a
n/a	"image-keyboard-response"	"173"	"378376"	"0.0-4.0-2.0-1.60"	"yuqm8t"	"620"	"1022"	"chrome"	"108.0.0"	"FALSE"	"Windows 10"	"60.09"	n/a	n/a	n/a	n/a	n/a	n/a	"Trial"	n/a	n/a	n/a	n/a	"NULL"	"NULL"	"NULL"	"620"	"stimuli/MullerLyer_-20.04286_-0.14541.png"	"arrowdown"	n/a	"MullerLyer"	"arrowdown"	"1428"	"TRUE"	"MullerLyer"	"-20.04286000"	"-0.145410000"	"1"	"79"
n/a	"html-keyboard-response"	"174"	"379552"	"0.0-4.0-2.0-0.61"	"yuqm8t"	"620"	"1022"	"chrome"	"108.0.0"	"FALSE"	"Windows 10"	"60.09"	n/a	n/a	n/a	n/a	n/a	n/a	"fixation"	n/a	n/a	n/a	n/a	"NULL"	"NULL"	"NULL"	n/a	"<p style=\"color: black; font-size: 80px; padding-left: 12%; padding-right: 4%; padding-top: 43%; padding-bottom: 21%\">+</p>"	n/a	"1154"	n/a	n/a	n/a	n/a	n/a	n/a	n/a	n/a	n/a
n/a	"image-keyboard-response"	"175"	"380096"	"0.0-4.0-2.0-1.61"	"yuqm8t"	"620"	"1022"	"chrome"	"108.0.0"	"FALSE"	"Windows 10"	"60.09"	n/a	n/a	n/a	n/a	n/a	n/a	"Trial"	n/a	n/a	n/a	n/a	"NULL"	"NULL"	"NULL"	"543"	"stimuli/MullerLyer_-14.12857_0.14541.png"	"arrowup"	n/a	"MullerLyer"	"arrowup"	"1176"	"TRUE"	"MullerLyer"	"-14.12857000"	"0.1454100000"	"1"	"80"
n/a	"html-keyboard-response"	"176"	"381269"	"0.0-4.0-2.0-0.62"	"yuqm8t"	"620"	"1022"	"chrome"	"108.0.0"	"FALSE"	"Windows 10"	"60.09"	n/a	n/a	n/a	n/a	n/a	n/a	"fixation"	n/a	n/a	n/a	n/a	"NULL"	"NULL"	"NULL"	n/a	"<p style=\"color: black; font-size: 80px; padding-left: 28%; padding-right: 41%; padding-top: 43%; padding-bottom: 26%\">+</p>"	n/a	"1154"	n/a	n/a	n/a	n/a	n/a	n/a	n/a	n/a	n/a
n/a	"image-keyboard-response"	"177"	"381739"	"0.0-4.0-2.0-1.62"	"yuqm8t"	"620"	"1022"	"chrome"	"108.0.0"	"FALSE"	"Windows 10"	"60.09"	n/a	n/a	n/a	n/a	n/a	n/a	"Trial"	n/a	n/a	n/a	n/a	"NULL"	"NULL"	"NULL"	"469"	"stimuli/MullerLyer_-2.3000_-0.3500.png"	"arrowdown"	n/a	"MullerLyer"	"arrowdown"	"1173"	"TRUE"	"MullerLyer"	"-2.300000000"	"-0.350000000"	"1"	"81"
n/a	"html-keyboard-response"	"178"	"383184"	"0.0-4.0-2.0-0.63"	"yuqm8t"	"620"	"1022"	"chrome"	"108.0.0"	"FALSE"	"Windows 10"	"60.09"	n/a	n/a	n/a	n/a	n/a	n/a	"fixation"	n/a	n/a	n/a	n/a	"NULL"	"NULL"	"NULL"	n/a	"<p style=\"color: black; font-size: 80px; padding-left: 19%; padding-right: 44%; padding-top: 21%; padding-bottom: 32%\">+</p>"	n/a	"1421"	n/a	n/a	n/a	n/a	n/a	n/a	n/a	n/a	n/a
n/a	"image-keyboard-response"	"179"	"383687"	"0.0-4.0-2.0-1.63"	"yuqm8t"	"620"	"1022"	"chrome"	"108.0.0"	"FALSE"	"Windows 10"	"60.09"	n/a	n/a	n/a	n/a	n/a	n/a	"Trial"	n/a	n/a	n/a	n/a	"NULL"	"NULL"	"NULL"	"501"	"stimuli/MullerLyer_-8.21429_0.35000.png"	"arrowup"	n/a	"MullerLyer"	"arrowup"	"1445"	"TRUE"	"MullerLyer"	"-8.214290000"	"0.3500000000"	"1"	"82"
n/a	"html-button-response"	"180"	"389919"	"0.0-4.0-3.0"	"yuqm8t"	"620"	"1022"	"chrome"	"108.0.0"	"FALSE"	"Windows 10"	"60.09"	n/a	n/a	n/a	n/a	n/a	n/a	"block_results"	n/a	n/a	n/a	n/a	"NULL"	"NULL"	"NULL"	"6227"	"<p>Your score for this illusion is <p style=\"color: black; font-size: 48px; font-weight: bold;\">77.5 %</p><hr><p>Can you do better in the next illusion?</p>"	"0"	n/a	n/a	n/a	n/a	n/a	n/a	n/a	n/a	n/a	n/a
"TRUE"	"preload"	"181"	"390039"	"0.0-5.0-0.0"	"yuqm8t"	"620"	"1022"	"chrome"	"108.0.0"	"FALSE"	"Windows 10"	"60.09"	n/a	n/a	n/a	n/a	n/a	n/a	n/a	n/a	n/a	n/a	"FALSE"	"list()"	"list()"	"list()"	n/a	n/a	n/a	n/a	n/a	n/a	n/a	n/a	n/a	n/a	n/a	n/a	n/a
n/a	"html-keyboard-response"	"182"	"399135"	"0.0-5.0-1.0"	"yuqm8t"	"620"	"1022"	"chrome"	"108.0.0"	"FALSE"	"Windows 10"	"60.09"	n/a	n/a	n/a	n/a	n/a	n/a	n/a	n/a	n/a	n/a	n/a	"NULL"	"NULL"	"NULL"	"9095"	"<p><b>Part 2/6</b></p><p>In this part, two red lines will appear side by side.</p><p>Your task is to tell <b>which line is longer</b> in length, regardless of their orientation, as fast as you can, and without making errors.</p><p>Don't get distracted by the orientation of the lines!</p><p>Press <b>the LEFT or the RIGHT arrow</b> to indicate which <b>line is the longer one.</b></p><div style='float: center'><img src='materials/instructions/VerticalHorizontal_Demo.png' height='300'></img><p><img src='utils/answer/answer_leftright_keyboard.PNG' height='150'></img></p><p class='small'>In this example, the correct answer is the <b>LEFT arrow</b>.</p></div><p>Are you ready? <b>Press ENTER to start</b></p>"	"enter"	n/a	n/a	n/a	n/a	n/a	n/a	n/a	n/a	n/a	n/a
n/a	"html-keyboard-response"	"183"	"400846"	"0.0-5.0-2.0-0.0"	"yuqm8t"	"620"	"1022"	"chrome"	"108.0.0"	"FALSE"	"Windows 10"	"60.09"	n/a	n/a	n/a	n/a	n/a	n/a	"fixation"	n/a	n/a	n/a	n/a	"NULL"	"NULL"	"NULL"	n/a	"<p style=\"color: black; font-size: 80px; padding-left: 14%; padding-right: 26%; padding-top: 34%; padding-bottom: 38%\">+</p>"	n/a	"1179"	n/a	n/a	n/a	n/a	n/a	n/a	n/a	n/a	n/a
n/a	"image-keyboard-response"	"184"	"401506"	"0.0-5.0-2.0-1.0"	"yuqm8t"	"620"	"1022"	"chrome"	"108.0.0"	"FALSE"	"Windows 10"	"60.09"	n/a	n/a	n/a	n/a	n/a	n/a	"Trial"	n/a	n/a	n/a	n/a	"NULL"	"NULL"	"NULL"	"658"	"stimuli/VerticalHorizontal_-3.3000_0.16217.png"	"arrowleft"	n/a	"VerticalHorizontal"	"arrowleft"	"1711"	"TRUE"	"VerticalHorizontal"	"-3.300000000"	"0.1621700000"	"2"	"1"
n/a	"html-keyboard-response"	"185"	"403015"	"0.0-5.0-2.0-0.1"	"yuqm8t"	"620"	"1022"	"chrome"	"108.0.0"	"FALSE"	"Windows 10"	"60.09"	n/a	n/a	n/a	n/a	n/a	n/a	"fixation"	n/a	n/a	n/a	n/a	"NULL"	"NULL"	"NULL"	n/a	"<p style=\"color: black; font-size: 80px; padding-left: 5%; padding-right: 3%; padding-top: 10%; padding-bottom: 21%\">+</p>"	n/a	"1496"	n/a	n/a	n/a	n/a	n/a	n/a	n/a	n/a	n/a
n/a	"image-keyboard-response"	"186"	"403580"	"0.0-5.0-2.0-1.1"	"yuqm8t"	"620"	"1022"	"chrome"	"108.0.0"	"FALSE"	"Windows 10"	"60.09"	n/a	n/a	n/a	n/a	n/a	n/a	"Trial"	n/a	n/a	n/a	n/a	"NULL"	"NULL"	"NULL"	"565"	"stimuli/VerticalHorizontal_-28.75714_0.16217.png"	"arrowleft"	n/a	"VerticalHorizontal"	"arrowleft"	"1509"	"TRUE"	"VerticalHorizontal"	"-28.75714000"	"0.1621700000"	"2"	"2"
n/a	"html-keyboard-response"	"187"	"404736"	"0.0-5.0-2.0-0.2"	"yuqm8t"	"620"	"1022"	"chrome"	"108.0.0"	"FALSE"	"Windows 10"	"60.09"	n/a	n/a	n/a	n/a	n/a	n/a	"fixation"	n/a	n/a	n/a	n/a	"NULL"	"NULL"	"NULL"	n/a	"<p style=\"color: black; font-size: 80px; padding-left: 4%; padding-right: 10%; padding-top: 29%; padding-bottom: 48%\">+</p>"	n/a	"1136"	n/a	n/a	n/a	n/a	n/a	n/a	n/a	n/a	n/a
n/a	"image-keyboard-response"	"188"	"405374"	"0.0-5.0-2.0-1.2"	"yuqm8t"	"620"	"1022"	"chrome"	"108.0.0"	"FALSE"	"Windows 10"	"60.09"	n/a	n/a	n/a	n/a	n/a	n/a	"Trial"	n/a	n/a	n/a	n/a	"NULL"	"NULL"	"NULL"	"636"	"stimuli/VerticalHorizontal_-28.75714_0.06730.png"	"arrowleft"	n/a	"VerticalHorizontal"	"arrowleft"	"1156"	"TRUE"	"VerticalHorizontal"	"-28.75714000"	"0.0673000000"	"2"	"3"
n/a	"html-keyboard-response"	"189"	"406442"	"0.0-5.0-2.0-0.3"	"yuqm8t"	"620"	"1022"	"chrome"	"108.0.0"	"FALSE"	"Windows 10"	"60.09"	n/a	n/a	n/a	n/a	n/a	n/a	"fixation"	n/a	n/a	n/a	n/a	"NULL"	"NULL"	"NULL"	n/a	"<p style=\"color: black; font-size: 80px; padding-left: 28%; padding-right: 12%; padding-top: 16%; padding-bottom: 30%\">+</p>"	n/a	"1062"	n/a	n/a	n/a	n/a	n/a	n/a	n/a	n/a	n/a
n/a	"image-keyboard-response"	"190"	"407043"	"0.0-5.0-2.0-1.3"	"yuqm8t"	"620"	"1022"	"chrome"	"108.0.0"	"FALSE"	"Windows 10"	"60.09"	n/a	n/a	n/a	n/a	n/a	n/a	"Trial"	n/a	n/a	n/a	n/a	"NULL"	"NULL"	"NULL"	"600"	"stimuli/VerticalHorizontal_-11.78571_-0.16217.png"	"arrowright"	n/a	"VerticalHorizontal"	"arrowright"	"1068"	"TRUE"	"VerticalHorizontal"	"-11.78571000"	"-0.162170000"	"2"	"4"
n/a	"html-keyboard-response"	"191"	"408269"	"0.0-5.0-2.0-0.4"	"yuqm8t"	"620"	"1022"	"chrome"	"108.0.0"	"FALSE"	"Windows 10"	"60.09"	n/a	n/a	n/a	n/a	n/a	n/a	"fixation"	n/a	n/a	n/a	n/a	"NULL"	"NULL"	"NULL"	n/a	"<p style=\"color: black; font-size: 80px; padding-left: 39%; padding-right: 21%; padding-top: 15%; padding-bottom: 9%\">+</p>"	n/a	"1208"	n/a	n/a	n/a	n/a	n/a	n/a	n/a	n/a	n/a
n/a	"image-keyboard-response"	"192"	"409130"	"0.0-5.0-2.0-1.4"	"yuqm8t"	"620"	"1022"	"chrome"	"108.0.0"	"FALSE"	"Windows 10"	"60.09"	n/a	n/a	n/a	n/a	n/a	n/a	"Trial"	n/a	n/a	n/a	n/a	"NULL"	"NULL"	"NULL"	"859"	"stimuli/VerticalHorizontal_28.75714_-0.2250.png"	"arrowright"	n/a	"VerticalHorizontal"	"arrowright"	"1226"	"TRUE"	"VerticalHorizontal"	"28.757140000"	"-0.225000000"	"2"	"5"
n/a	"html-keyboard-response"	"193"	"410398"	"0.0-5.0-2.0-0.5"	"yuqm8t"	"620"	"1022"	"chrome"	"108.0.0"	"FALSE"	"Windows 10"	"60.09"	n/a	n/a	n/a	n/a	n/a	n/a	"fixation"	n/a	n/a	n/a	n/a	"NULL"	"NULL"	"NULL"	n/a	"<p style=\"color: black; font-size: 80px; padding-left: 38%; padding-right: 19%; padding-top: 35%; padding-bottom: 43%\">+</p>"	n/a	"1260"	n/a	n/a	n/a	n/a	n/a	n/a	n/a	n/a	n/a
n/a	"image-keyboard-response"	"194"	"412007"	"0.0-5.0-2.0-1.5"	"yuqm8t"	"620"	"1022"	"chrome"	"108.0.0"	"FALSE"	"Windows 10"	"60.09"	n/a	n/a	n/a	n/a	n/a	n/a	"Trial"	n/a	n/a	n/a	n/a	"NULL"	"NULL"	"NULL"	"1607"	"stimuli/VerticalHorizontal_3.30000_0.06730.png"	"arrowleft"	n/a	"VerticalHorizontal"	"arrowleft"	"1268"	"TRUE"	"VerticalHorizontal"	"3.3000000000"	"0.0673000000"	"2"	"6"
n/a	"html-keyboard-response"	"195"	"413464"	"0.0-5.0-2.0-0.6"	"yuqm8t"	"620"	"1022"	"chrome"	"108.0.0"	"FALSE"	"Windows 10"	"60.09"	n/a	n/a	n/a	n/a	n/a	n/a	"fixation"	n/a	n/a	n/a	n/a	"NULL"	"NULL"	"NULL"	n/a	"<p style=\"color: black; font-size: 80px; padding-left: 0%; padding-right: 35%; padding-top: 39%; padding-bottom: 36%\">+</p>"	n/a	"1437"	n/a	n/a	n/a	n/a	n/a	n/a	n/a	n/a	n/a
n/a	"image-keyboard-response"	"196"	"414477"	"0.0-5.0-2.0-1.6"	"yuqm8t"	"620"	"1022"	"chrome"	"108.0.0"	"FALSE"	"Windows 10"	"60.09"	n/a	n/a	n/a	n/a	n/a	n/a	"Trial"	n/a	n/a	n/a	n/a	"NULL"	"NULL"	"NULL"	"1011"	"stimuli/VerticalHorizontal_-28.75714_0.22500.png"	"arrowleft"	n/a	"VerticalHorizontal"	"arrowleft"	"1457"	"TRUE"	"VerticalHorizontal"	"-28.75714000"	"0.2250000000"	"2"	"7"
n/a	"html-keyboard-response"	"197"	"415978"	"0.0-5.0-2.0-0.7"	"yuqm8t"	"620"	"1022"	"chrome"	"108.0.0"	"FALSE"	"Windows 10"	"60.09"	n/a	n/a	n/a	n/a	n/a	n/a	"fixation"	n/a	n/a	n/a	n/a	"NULL"	"NULL"	"NULL"	n/a	"<p style=\"color: black; font-size: 80px; padding-left: 12%; padding-right: 2%; padding-top: 36%; padding-bottom: 17%\">+</p>"	n/a	"1489"	n/a	n/a	n/a	n/a	n/a	n/a	n/a	n/a	n/a
n/a	"image-keyboard-response"	"198"	"417193"	"0.0-5.0-2.0-1.7"	"yuqm8t"	"620"	"1022"	"chrome"	"108.0.0"	"FALSE"	"Windows 10"	"60.09"	n/a	n/a	n/a	n/a	n/a	n/a	"Trial"	n/a	n/a	n/a	n/a	"NULL"	"NULL"	"NULL"	"1212"	"stimuli/VerticalHorizontal_28.75714_0.16217.png"	"arrowleft"	n/a	"VerticalHorizontal"	"arrowleft"	"1501"	"TRUE"	"VerticalHorizontal"	"28.757140000"	"0.1621700000"	"2"	"8"
n/a	"html-keyboard-response"	"199"	"418651"	"0.0-5.0-2.0-0.8"	"yuqm8t"	"620"	"1022"	"chrome"	"108.0.0"	"FALSE"	"Windows 10"	"60.09"	n/a	n/a	n/a	n/a	n/a	n/a	"fixation"	n/a	n/a	n/a	n/a	"NULL"	"NULL"	"NULL"	n/a	"<p style=\"color: black; font-size: 80px; padding-left: 33%; padding-right: 23%; padding-top: 1%; padding-bottom: 20%\">+</p>"	n/a	"1451"	n/a	n/a	n/a	n/a	n/a	n/a	n/a	n/a	n/a
n/a	"image-keyboard-response"	"200"	"419797"	"0.0-5.0-2.0-1.8"	"yuqm8t"	"620"	"1022"	"chrome"	"108.0.0"	"FALSE"	"Windows 10"	"60.09"	n/a	n/a	n/a	n/a	n/a	n/a	"Trial"	n/a	n/a	n/a	n/a	"NULL"	"NULL"	"NULL"	"1144"	"stimuli/VerticalHorizontal_28.75714_-0.0673.png"	"arrowright"	n/a	"VerticalHorizontal"	"arrowright"	"1458"	"TRUE"	"VerticalHorizontal"	"28.757140000"	"-0.067300000"	"2"	"9"
n/a	"html-keyboard-response"	"201"	"420824"	"0.0-5.0-2.0-0.9"	"yuqm8t"	"620"	"1022"	"chrome"	"108.0.0"	"FALSE"	"Windows 10"	"60.09"	n/a	n/a	n/a	n/a	n/a	n/a	"fixation"	n/a	n/a	n/a	n/a	"NULL"	"NULL"	"NULL"	n/a	"<p style=\"color: black; font-size: 80px; padding-left: 3%; padding-right: 3%; padding-top: 8%; padding-bottom: 32%\">+</p>"	n/a	"1020"	n/a	n/a	n/a	n/a	n/a	n/a	n/a	n/a	n/a
n/a	"image-keyboard-response"	"202"	"421549"	"0.0-5.0-2.0-1.9"	"yuqm8t"	"620"	"1022"	"chrome"	"108.0.0"	"FALSE"	"Windows 10"	"60.09"	n/a	n/a	n/a	n/a	n/a	n/a	"Trial"	n/a	n/a	n/a	n/a	"NULL"	"NULL"	"NULL"	"723"	"stimuli/VerticalHorizontal_-3.3000_-0.16217.png"	"arrowright"	n/a	"VerticalHorizontal"	"arrowright"	"1027"	"TRUE"	"VerticalHorizontal"	"-3.300000000"	"-0.162170000"	"2"	"10"
n/a	"html-keyboard-response"	"203"	"422736"	"0.0-5.0-2.0-0.10"	"yuqm8t"	"620"	"1022"	"chrome"	"108.0.0"	"FALSE"	"Windows 10"	"60.09"	n/a	n/a	n/a	n/a	n/a	n/a	"fixation"	n/a	n/a	n/a	n/a	"NULL"	"NULL"	"NULL"	n/a	"<p style=\"color: black; font-size: 80px; padding-left: 27%; padding-right: 9%; padding-top: 19%; padding-bottom: 2%\">+</p>"	n/a	"1170"	n/a	n/a	n/a	n/a	n/a	n/a	n/a	n/a	n/a
n/a	"image-keyboard-response"	"204"	"424079"	"0.0-5.0-2.0-1.10"	"yuqm8t"	"620"	"1022"	"chrome"	"108.0.0"	"FALSE"	"Windows 10"	"60.09"	n/a	n/a	n/a	n/a	n/a	n/a	"Trial"	n/a	n/a	n/a	n/a	"NULL"	"NULL"	"NULL"	"1342"	"stimuli/VerticalHorizontal_-28.75714_-0.0673.png"	"arrowright"	n/a	"VerticalHorizontal"	"arrowright"	"1187"	"TRUE"	"VerticalHorizontal"	"-28.75714000"	"-0.067300000"	"2"	"11"
n/a	"html-keyboard-response"	"205"	"425401"	"0.0-5.0-2.0-0.11"	"yuqm8t"	"620"	"1022"	"chrome"	"108.0.0"	"FALSE"	"Windows 10"	"60.09"	n/a	n/a	n/a	n/a	n/a	n/a	"fixation"	n/a	n/a	n/a	n/a	"NULL"	"NULL"	"NULL"	n/a	"<p style=\"color: black; font-size: 80px; padding-left: 6%; padding-right: 14%; padding-top: 42%; padding-bottom: 40%\">+</p>"	n/a	"1305"	n/a	n/a	n/a	n/a	n/a	n/a	n/a	n/a	n/a
n/a	"image-keyboard-response"	"206"	"426024"	"0.0-5.0-2.0-1.11"	"yuqm8t"	"620"	"1022"	"chrome"	"108.0.0"	"FALSE"	"Windows 10"	"60.09"	n/a	n/a	n/a	n/a	n/a	n/a	"Trial"	n/a	n/a	n/a	n/a	"NULL"	"NULL"	"NULL"	"622"	"stimuli/VerticalHorizontal_3.30000_0.10960.png"	"arrowleft"	n/a	"VerticalHorizontal"	"arrowleft"	"1322"	"TRUE"	"VerticalHorizontal"	"3.3000000000"	"0.1096000000"	"2"	"12"
n/a	"html-keyboard-response"	"207"	"427280"	"0.0-5.0-2.0-0.12"	"yuqm8t"	"620"	"1022"	"chrome"	"108.0.0"	"FALSE"	"Windows 10"	"60.09"	n/a	n/a	n/a	n/a	n/a	n/a	"fixation"	n/a	n/a	n/a	n/a	"NULL"	"NULL"	"NULL"	n/a	"<p style=\"color: black; font-size: 80px; padding-left: 42%; padding-right: 48%; padding-top: 42%; padding-bottom: 36%\">+</p>"	n/a	"1246"	n/a	n/a	n/a	n/a	n/a	n/a	n/a	n/a	n/a
n/a	"image-keyboard-response"	"208"	"429887"	"0.0-5.0-2.0-1.12"	"yuqm8t"	"620"	"1022"	"chrome"	"108.0.0"	"FALSE"	"Windows 10"	"60.09"	n/a	n/a	n/a	n/a	n/a	n/a	"Trial"	n/a	n/a	n/a	n/a	"NULL"	"NULL"	"NULL"	"2605"	"stimuli/VerticalHorizontal_28.75714_-0.1096.png"	"arrowright"	n/a	"VerticalHorizontal"	"arrowright"	"1256"	"TRUE"	"VerticalHorizontal"	"28.757140000"	"-0.109600000"	"2"	"13"
n/a	"html-keyboard-response"	"209"	"431243"	"0.0-5.0-2.0-0.13"	"yuqm8t"	"620"	"1022"	"chrome"	"108.0.0"	"FALSE"	"Windows 10"	"60.09"	n/a	n/a	n/a	n/a	n/a	n/a	"fixation"	n/a	n/a	n/a	n/a	"NULL"	"NULL"	"NULL"	n/a	"<p style=\"color: black; font-size: 80px; padding-left: 34%; padding-right: 47%; padding-top: 26%; padding-bottom: 50%\">+</p>"	n/a	"1350"	n/a	n/a	n/a	n/a	n/a	n/a	n/a	n/a	n/a
n/a	"image-keyboard-response"	"210"	"431887"	"0.0-5.0-2.0-1.13"	"yuqm8t"	"620"	"1022"	"chrome"	"108.0.0"	"FALSE"	"Windows 10"	"60.09"	n/a	n/a	n/a	n/a	n/a	n/a	"Trial"	n/a	n/a	n/a	n/a	"NULL"	"NULL"	"NULL"	"642"	"stimuli/VerticalHorizontal_3.30000_0.16217.png"	"arrowleft"	n/a	"VerticalHorizontal"	"arrowleft"	"1356"	"TRUE"	"VerticalHorizontal"	"3.3000000000"	"0.1621700000"	"2"	"14"
n/a	"html-keyboard-response"	"211"	"432940"	"0.0-5.0-2.0-0.14"	"yuqm8t"	"620"	"1022"	"chrome"	"108.0.0"	"FALSE"	"Windows 10"	"60.09"	n/a	n/a	n/a	n/a	n/a	n/a	"fixation"	n/a	n/a	n/a	n/a	"NULL"	"NULL"	"NULL"	n/a	"<p style=\"color: black; font-size: 80px; padding-left: 44%; padding-right: 39%; padding-top: 35%; padding-bottom: 2%\">+</p>"	n/a	"1044"	n/a	n/a	n/a	n/a	n/a	n/a	n/a	n/a	n/a
n/a	"image-keyboard-response"	"212"	"433578"	"0.0-5.0-2.0-1.14"	"yuqm8t"	"620"	"1022"	"chrome"	"108.0.0"	"FALSE"	"Windows 10"	"60.09"	n/a	n/a	n/a	n/a	n/a	n/a	"Trial"	n/a	n/a	n/a	n/a	"NULL"	"NULL"	"NULL"	"637"	"stimuli/VerticalHorizontal_-20.27143_-0.0673.png"	"arrowright"	n/a	"VerticalHorizontal"	"arrowright"	"1053"	"TRUE"	"VerticalHorizontal"	"-20.27143000"	"-0.067300000"	"2"	"15"
n/a	"html-keyboard-response"	"213"	"434934"	"0.0-5.0-2.0-0.15"	"yuqm8t"	"620"	"1022"	"chrome"	"108.0.0"	"FALSE"	"Windows 10"	"60.09"	n/a	n/a	n/a	n/a	n/a	n/a	"fixation"	n/a	n/a	n/a	n/a	"NULL"	"NULL"	"NULL"	n/a	"<p style=\"color: black; font-size: 80px; padding-left: 22%; padding-right: 41%; padding-top: 2%; padding-bottom: 20%\">+</p>"	n/a	"1335"	n/a	n/a	n/a	n/a	n/a	n/a	n/a	n/a	n/a
n/a	"image-keyboard-response"	"214"	"435579"	"0.0-5.0-2.0-1.15"	"yuqm8t"	"620"	"1022"	"chrome"	"108.0.0"	"FALSE"	"Windows 10"	"60.09"	n/a	n/a	n/a	n/a	n/a	n/a	"Trial"	n/a	n/a	n/a	n/a	"NULL"	"NULL"	"NULL"	"643"	"stimuli/VerticalHorizontal_-3.3000_-0.0673.png"	"arrowright"	n/a	"VerticalHorizontal"	"arrowright"	"1356"	"TRUE"	"VerticalHorizontal"	"-3.300000000"	"-0.067300000"	"2"	"16"
n/a	"html-keyboard-response"	"215"	"437078"	"0.0-5.0-2.0-0.16"	"yuqm8t"	"620"	"1022"	"chrome"	"108.0.0"	"FALSE"	"Windows 10"	"60.09"	n/a	n/a	n/a	n/a	n/a	n/a	"fixation"	n/a	n/a	n/a	n/a	"NULL"	"NULL"	"NULL"	n/a	"<p style=\"color: black; font-size: 80px; padding-left: 5%; padding-right: 6%; padding-top: 17%; padding-bottom: 15%\">+</p>"	n/a	"1483"	n/a	n/a	n/a	n/a	n/a	n/a	n/a	n/a	n/a
n/a	"image-keyboard-response"	"216"	"437618"	"0.0-5.0-2.0-1.16"	"yuqm8t"	"620"	"1022"	"chrome"	"108.0.0"	"FALSE"	"Windows 10"	"60.09"	n/a	n/a	n/a	n/a	n/a	n/a	"Trial"	n/a	n/a	n/a	n/a	"NULL"	"NULL"	"NULL"	"538"	"stimuli/VerticalHorizontal_-11.78571_0.22500.png"	"arrowleft"	n/a	"VerticalHorizontal"	"arrowleft"	"1499"	"TRUE"	"VerticalHorizontal"	"-11.78571000"	"0.2250000000"	"2"	"17"
n/a	"html-keyboard-response"	"217"	"438765"	"0.0-5.0-2.0-0.17"	"yuqm8t"	"620"	"1022"	"chrome"	"108.0.0"	"FALSE"	"Windows 10"	"60.09"	n/a	n/a	n/a	n/a	n/a	n/a	"fixation"	n/a	n/a	n/a	n/a	"NULL"	"NULL"	"NULL"	n/a	"<p style=\"color: black; font-size: 80px; padding-left: 37%; padding-right: 20%; padding-top: 34%; padding-bottom: 25%\">+</p>"	n/a	"1139"	n/a	n/a	n/a	n/a	n/a	n/a	n/a	n/a	n/a
n/a	"image-keyboard-response"	"218"	"440190"	"0.0-5.0-2.0-1.17"	"yuqm8t"	"620"	"1022"	"chrome"	"108.0.0"	"FALSE"	"Windows 10"	"60.09"	n/a	n/a	n/a	n/a	n/a	n/a	"Trial"	n/a	n/a	n/a	n/a	"NULL"	"NULL"	"NULL"	"1424"	"stimuli/VerticalHorizontal_28.75714_0.06730.png"	"arrowright"	n/a	"VerticalHorizontal"	"arrowleft"	"1147"	"FALSE"	"VerticalHorizontal"	"28.757140000"	"0.0673000000"	"2"	"18"
n/a	"html-keyboard-response"	"219"	"441339"	"0.0-5.0-2.0-0.18"	"yuqm8t"	"620"	"1022"	"chrome"	"108.0.0"	"FALSE"	"Windows 10"	"60.09"	n/a	n/a	n/a	n/a	n/a	n/a	"fixation"	n/a	n/a	n/a	n/a	"NULL"	"NULL"	"NULL"	n/a	"<p style=\"color: black; font-size: 80px; padding-left: 2%; padding-right: 19%; padding-top: 29%; padding-bottom: 6%\">+</p>"	n/a	"1140"	n/a	n/a	n/a	n/a	n/a	n/a	n/a	n/a	n/a
n/a	"image-keyboard-response"	"220"	"442054"	"0.0-5.0-2.0-1.18"	"yuqm8t"	"620"	"1022"	"chrome"	"108.0.0"	"FALSE"	"Windows 10"	"60.09"	n/a	n/a	n/a	n/a	n/a	n/a	"Trial"	n/a	n/a	n/a	n/a	"NULL"	"NULL"	"NULL"	"713"	"stimuli/VerticalHorizontal_20.27143_0.22500.png"	"arrowleft"	n/a	"VerticalHorizontal"	"arrowleft"	"1149"	"TRUE"	"VerticalHorizontal"	"20.271430000"	"0.2250000000"	"2"	"19"
n/a	"html-keyboard-response"	"221"	"443384"	"0.0-5.0-2.0-0.19"	"yuqm8t"	"620"	"1022"	"chrome"	"108.0.0"	"FALSE"	"Windows 10"	"60.09"	n/a	n/a	n/a	n/a	n/a	n/a	"fixation"	n/a	n/a	n/a	n/a	"NULL"	"NULL"	"NULL"	n/a	"<p style=\"color: black; font-size: 80px; padding-left: 11%; padding-right: 15%; padding-top: 42%; padding-bottom: 21%\">+</p>"	n/a	"1320"	n/a	n/a	n/a	n/a	n/a	n/a	n/a	n/a	n/a
n/a	"image-keyboard-response"	"222"	"444597"	"0.0-5.0-2.0-1.19"	"yuqm8t"	"620"	"1022"	"chrome"	"108.0.0"	"FALSE"	"Windows 10"	"60.09"	n/a	n/a	n/a	n/a	n/a	n/a	"Trial"	n/a	n/a	n/a	n/a	"NULL"	"NULL"	"NULL"	"1211"	"stimuli/VerticalHorizontal_20.27143_-0.0673.png"	"arrowright"	n/a	"VerticalHorizontal"	"arrowright"	"1330"	"TRUE"	"VerticalHorizontal"	"20.271430000"	"-0.067300000"	"2"	"20"
n/a	"html-keyboard-response"	"223"	"445640"	"0.0-5.0-2.0-0.20"	"yuqm8t"	"620"	"1022"	"chrome"	"108.0.0"	"FALSE"	"Windows 10"	"60.09"	n/a	n/a	n/a	n/a	n/a	n/a	"fixation"	n/a	n/a	n/a	n/a	"NULL"	"NULL"	"NULL"	n/a	"<p style=\"color: black; font-size: 80px; padding-left: 47%; padding-right: 25%; padding-top: 40%; padding-bottom: 38%\">+</p>"	n/a	"1030"	n/a	n/a	n/a	n/a	n/a	n/a	n/a	n/a	n/a
n/a	"image-keyboard-response"	"224"	"446382"	"0.0-5.0-2.0-1.20"	"yuqm8t"	"620"	"1022"	"chrome"	"108.0.0"	"FALSE"	"Windows 10"	"60.09"	n/a	n/a	n/a	n/a	n/a	n/a	"Trial"	n/a	n/a	n/a	n/a	"NULL"	"NULL"	"NULL"	"739"	"stimuli/VerticalHorizontal_3.30000_-0.2250.png"	"arrowright"	n/a	"VerticalHorizontal"	"arrowright"	"1043"	"TRUE"	"VerticalHorizontal"	"3.3000000000"	"-0.225000000"	"2"	"21"
n/a	"html-keyboard-response"	"225"	"447793"	"0.0-5.0-2.0-0.21"	"yuqm8t"	"620"	"1022"	"chrome"	"108.0.0"	"FALSE"	"Windows 10"	"60.09"	n/a	n/a	n/a	n/a	n/a	n/a	"fixation"	n/a	n/a	n/a	n/a	"NULL"	"NULL"	"NULL"	n/a	"<p style=\"color: black; font-size: 80px; padding-left: 1%; padding-right: 0%; padding-top: 11%; padding-bottom: 33%\">+</p>"	n/a	"1400"	n/a	n/a	n/a	n/a	n/a	n/a	n/a	n/a	n/a
n/a	"image-keyboard-response"	"226"	"450084"	"0.0-5.0-2.0-1.21"	"yuqm8t"	"620"	"1022"	"chrome"	"108.0.0"	"FALSE"	"Windows 10"	"60.09"	n/a	n/a	n/a	n/a	n/a	n/a	"Trial"	n/a	n/a	n/a	n/a	"NULL"	"NULL"	"NULL"	"2290"	"stimuli/VerticalHorizontal_20.27143_0.10960.png"	"arrowright"	n/a	"VerticalHorizontal"	"arrowleft"	"1411"	"FALSE"	"VerticalHorizontal"	"20.271430000"	"0.1096000000"	"2"	"22"
n/a	"html-keyboard-response"	"227"	"451416"	"0.0-5.0-2.0-0.22"	"yuqm8t"	"620"	"1022"	"chrome"	"108.0.0"	"FALSE"	"Windows 10"	"60.09"	n/a	n/a	n/a	n/a	n/a	n/a	"fixation"	n/a	n/a	n/a	n/a	"NULL"	"NULL"	"NULL"	n/a	"<p style=\"color: black; font-size: 80px; padding-left: 6%; padding-right: 10%; padding-top: 38%; padding-bottom: 18%\">+</p>"	n/a	"1308"	n/a	n/a	n/a	n/a	n/a	n/a	n/a	n/a	n/a
n/a	"image-keyboard-response"	"228"	"451936"	"0.0-5.0-2.0-1.22"	"yuqm8t"	"620"	"1022"	"chrome"	"108.0.0"	"FALSE"	"Windows 10"	"60.09"	n/a	n/a	n/a	n/a	n/a	n/a	"Trial"	n/a	n/a	n/a	n/a	"NULL"	"NULL"	"NULL"	"518"	"stimuli/VerticalHorizontal_-28.75714_0.10960.png"	"arrowleft"	n/a	"VerticalHorizontal"	"arrowleft"	"1332"	"TRUE"	"VerticalHorizontal"	"-28.75714000"	"0.1096000000"	"2"	"23"
n/a	"html-keyboard-response"	"229"	"453153"	"0.0-5.0-2.0-0.23"	"yuqm8t"	"620"	"1022"	"chrome"	"108.0.0"	"FALSE"	"Windows 10"	"60.09"	n/a	n/a	n/a	n/a	n/a	n/a	"fixation"	n/a	n/a	n/a	n/a	"NULL"	"NULL"	"NULL"	n/a	"<p style=\"color: black; font-size: 80px; padding-left: 31%; padding-right: 5%; padding-top: 25%; padding-bottom: 5%\">+</p>"	n/a	"1207"	n/a	n/a	n/a	n/a	n/a	n/a	n/a	n/a	n/a
n/a	"image-keyboard-response"	"230"	"453639"	"0.0-5.0-2.0-1.23"	"yuqm8t"	"620"	"1022"	"chrome"	"108.0.0"	"FALSE"	"Windows 10"	"60.09"	n/a	n/a	n/a	n/a	n/a	n/a	"Trial"	n/a	n/a	n/a	n/a	"NULL"	"NULL"	"NULL"	"484"	"stimuli/VerticalHorizontal_-20.27143_0.16217.png"	"arrowleft"	n/a	"VerticalHorizontal"	"arrowleft"	"1217"	"TRUE"	"VerticalHorizontal"	"-20.27143000"	"0.1621700000"	"2"	"24"
n/a	"html-keyboard-response"	"231"	"454866"	"0.0-5.0-2.0-0.24"	"yuqm8t"	"620"	"1022"	"chrome"	"108.0.0"	"FALSE"	"Windows 10"	"60.09"	n/a	n/a	n/a	n/a	n/a	n/a	"fixation"	n/a	n/a	n/a	n/a	"NULL"	"NULL"	"NULL"	n/a	"<p style=\"color: black; font-size: 80px; padding-left: 39%; padding-right: 17%; padding-top: 1%; padding-bottom: 23%\">+</p>"	n/a	"1210"	n/a	n/a	n/a	n/a	n/a	n/a	n/a	n/a	n/a
n/a	"image-keyboard-response"	"232"	"456036"	"0.0-5.0-2.0-1.24"	"yuqm8t"	"620"	"1022"	"chrome"	"108.0.0"	"FALSE"	"Windows 10"	"60.09"	n/a	n/a	n/a	n/a	n/a	n/a	"Trial"	n/a	n/a	n/a	n/a	"NULL"	"NULL"	"NULL"	"1169"	"stimuli/VerticalHorizontal_20.27143_0.06730.png"	"arrowleft"	n/a	"VerticalHorizontal"	"arrowleft"	"1227"	"TRUE"	"VerticalHorizontal"	"20.271430000"	"0.0673000000"	"2"	"25"
n/a	"html-keyboard-response"	"233"	"457150"	"0.0-5.0-2.0-0.25"	"yuqm8t"	"620"	"1022"	"chrome"	"108.0.0"	"FALSE"	"Windows 10"	"60.09"	n/a	n/a	n/a	n/a	n/a	n/a	"fixation"	n/a	n/a	n/a	n/a	"NULL"	"NULL"	"NULL"	n/a	"<p style=\"color: black; font-size: 80px; padding-left: 42%; padding-right: 14%; padding-top: 49%; padding-bottom: 15%\">+</p>"	n/a	"1105"	n/a	n/a	n/a	n/a	n/a	n/a	n/a	n/a	n/a
n/a	"image-keyboard-response"	"234"	"458534"	"0.0-5.0-2.0-1.25"	"yuqm8t"	"620"	"1022"	"chrome"	"108.0.0"	"FALSE"	"Windows 10"	"60.09"	n/a	n/a	n/a	n/a	n/a	n/a	"Trial"	n/a	n/a	n/a	n/a	"NULL"	"NULL"	"NULL"	"1376"	"stimuli/VerticalHorizontal_11.78571_0.22500.png"	"arrowright"	n/a	"VerticalHorizontal"	"arrowleft"	"1114"	"FALSE"	"VerticalHorizontal"	"11.785710000"	"0.2250000000"	"2"	"26"
n/a	"html-keyboard-response"	"235"	"459928"	"0.0-5.0-2.0-0.26"	"yuqm8t"	"620"	"1022"	"chrome"	"108.0.0"	"FALSE"	"Windows 10"	"60.09"	n/a	n/a	n/a	n/a	n/a	n/a	"fixation"	n/a	n/a	n/a	n/a	"NULL"	"NULL"	"NULL"	n/a	"<p style=\"color: black; font-size: 80px; padding-left: 39%; padding-right: 23%; padding-top: 7%; padding-bottom: 28%\">+</p>"	n/a	"1370"	n/a	n/a	n/a	n/a	n/a	n/a	n/a	n/a	n/a
n/a	"image-keyboard-response"	"236"	"461174"	"0.0-5.0-2.0-1.26"	"yuqm8t"	"620"	"1022"	"chrome"	"108.0.0"	"FALSE"	"Windows 10"	"60.09"	n/a	n/a	n/a	n/a	n/a	n/a	"Trial"	n/a	n/a	n/a	n/a	"NULL"	"NULL"	"NULL"	"1244"	"stimuli/VerticalHorizontal_-3.3000_0.06730.png"	"arrowright"	n/a	"VerticalHorizontal"	"arrowleft"	"1394"	"FALSE"	"VerticalHorizontal"	"-3.300000000"	"0.0673000000"	"2"	"27"
n/a	"html-keyboard-response"	"237"	"462372"	"0.0-5.0-2.0-0.27"	"yuqm8t"	"620"	"1022"	"chrome"	"108.0.0"	"FALSE"	"Windows 10"	"60.09"	n/a	n/a	n/a	n/a	n/a	n/a	"fixation"	n/a	n/a	n/a	n/a	"NULL"	"NULL"	"NULL"	n/a	"<p style=\"color: black; font-size: 80px; padding-left: 46%; padding-right: 7%; padding-top: 33%; padding-bottom: 29%\">+</p>"	n/a	"1185"	n/a	n/a	n/a	n/a	n/a	n/a	n/a	n/a	n/a
n/a	"image-keyboard-response"	"238"	"463015"	"0.0-5.0-2.0-1.27"	"yuqm8t"	"620"	"1022"	"chrome"	"108.0.0"	"FALSE"	"Windows 10"	"60.09"	n/a	n/a	n/a	n/a	n/a	n/a	"Trial"	n/a	n/a	n/a	n/a	"NULL"	"NULL"	"NULL"	"641"	"stimuli/VerticalHorizontal_-20.27143_0.22500.png"	"arrowleft"	n/a	"VerticalHorizontal"	"arrowleft"	"1198"	"TRUE"	"VerticalHorizontal"	"-20.27143000"	"0.2250000000"	"2"	"28"
n/a	"html-keyboard-response"	"239"	"464326"	"0.0-5.0-2.0-0.28"	"yuqm8t"	"620"	"1022"	"chrome"	"108.0.0"	"FALSE"	"Windows 10"	"60.09"	n/a	n/a	n/a	n/a	n/a	n/a	"fixation"	n/a	n/a	n/a	n/a	"NULL"	"NULL"	"NULL"	n/a	"<p style=\"color: black; font-size: 80px; padding-left: 10%; padding-right: 23%; padding-top: 27%; padding-bottom: 18%\">+</p>"	n/a	"1304"	n/a	n/a	n/a	n/a	n/a	n/a	n/a	n/a	n/a
n/a	"image-keyboard-response"	"240"	"465961"	"0.0-5.0-2.0-1.28"	"yuqm8t"	"620"	"1022"	"chrome"	"108.0.0"	"FALSE"	"Windows 10"	"60.09"	n/a	n/a	n/a	n/a	n/a	n/a	"Trial"	n/a	n/a	n/a	n/a	"NULL"	"NULL"	"NULL"	"1633"	"stimuli/VerticalHorizontal_-11.78571_0.06730.png"	"arrowleft"	n/a	"VerticalHorizontal"	"arrowleft"	"1311"	"TRUE"	"VerticalHorizontal"	"-11.78571000"	"0.0673000000"	"2"	"29"
n/a	"html-keyboard-response"	"241"	"467406"	"0.0-5.0-2.0-0.29"	"yuqm8t"	"620"	"1022"	"chrome"	"108.0.0"	"FALSE"	"Windows 10"	"60.09"	n/a	n/a	n/a	n/a	n/a	n/a	"fixation"	n/a	n/a	n/a	n/a	"NULL"	"NULL"	"NULL"	n/a	"<p style=\"color: black; font-size: 80px; padding-left: 7%; padding-right: 40%; padding-top: 39%; padding-bottom: 5%\">+</p>"	n/a	"1436"	n/a	n/a	n/a	n/a	n/a	n/a	n/a	n/a	n/a
n/a	"image-keyboard-response"	"242"	"468164"	"0.0-5.0-2.0-1.29"	"yuqm8t"	"620"	"1022"	"chrome"	"108.0.0"	"FALSE"	"Windows 10"	"60.09"	n/a	n/a	n/a	n/a	n/a	n/a	"Trial"	n/a	n/a	n/a	n/a	"NULL"	"NULL"	"NULL"	"756"	"stimuli/VerticalHorizontal_-11.78571_-0.1096.png"	"arrowright"	n/a	"VerticalHorizontal"	"arrowright"	"1445"	"TRUE"	"VerticalHorizontal"	"-11.78571000"	"-0.109600000"	"2"	"30"
n/a	"html-keyboard-response"	"243"	"469194"	"0.0-5.0-2.0-0.30"	"yuqm8t"	"620"	"1022"	"chrome"	"108.0.0"	"FALSE"	"Windows 10"	"60.09"	n/a	n/a	n/a	n/a	n/a	n/a	"fixation"	n/a	n/a	n/a	n/a	"NULL"	"NULL"	"NULL"	n/a	"<p style=\"color: black; font-size: 80px; padding-left: 17%; padding-right: 8%; padding-top: 2%; padding-bottom: 18%\">+</p>"	n/a	"1024"	n/a	n/a	n/a	n/a	n/a	n/a	n/a	n/a	n/a
n/a	"image-keyboard-response"	"244"	"469658"	"0.0-5.0-2.0-1.30"	"yuqm8t"	"620"	"1022"	"chrome"	"108.0.0"	"FALSE"	"Windows 10"	"60.09"	n/a	n/a	n/a	n/a	n/a	n/a	"Trial"	n/a	n/a	n/a	n/a	"NULL"	"NULL"	"NULL"	"463"	"stimuli/VerticalHorizontal_20.27143_-0.16217.png"	"arrowleft"	n/a	"VerticalHorizontal"	"arrowright"	"1030"	"FALSE"	"VerticalHorizontal"	"20.271430000"	"-0.162170000"	"2"	"31"
n/a	"html-keyboard-response"	"245"	"471119"	"0.0-5.0-2.0-0.31"	"yuqm8t"	"620"	"1022"	"chrome"	"108.0.0"	"FALSE"	"Windows 10"	"60.09"	n/a	n/a	n/a	n/a	n/a	n/a	"fixation"	n/a	n/a	n/a	n/a	"NULL"	"NULL"	"NULL"	n/a	"<p style=\"color: black; font-size: 80px; padding-left: 37%; padding-right: 21%; padding-top: 46%; padding-bottom: 11%\">+</p>"	n/a	"1443"	n/a	n/a	n/a	n/a	n/a	n/a	n/a	n/a	n/a
n/a	"image-keyboard-response"	"246"	"471891"	"0.0-5.0-2.0-1.31"	"yuqm8t"	"620"	"1022"	"chrome"	"108.0.0"	"FALSE"	"Windows 10"	"60.09"	n/a	n/a	n/a	n/a	n/a	n/a	"Trial"	n/a	n/a	n/a	n/a	"NULL"	"NULL"	"NULL"	"770"	"stimuli/VerticalHorizontal_3.30000_-0.0673.png"	"arrowright"	n/a	"VerticalHorizontal"	"arrowright"	"1461"	"TRUE"	"VerticalHorizontal"	"3.3000000000"	"-0.067300000"	"2"	"32"
n/a	"html-keyboard-response"	"247"	"473338"	"0.0-5.0-2.0-0.32"	"yuqm8t"	"620"	"1022"	"chrome"	"108.0.0"	"FALSE"	"Windows 10"	"60.09"	n/a	n/a	n/a	n/a	n/a	n/a	"fixation"	n/a	n/a	n/a	n/a	"NULL"	"NULL"	"NULL"	n/a	"<p style=\"color: black; font-size: 80px; padding-left: 22%; padding-right: 8%; padding-top: 16%; padding-bottom: 50%\">+</p>"	n/a	"1431"	n/a	n/a	n/a	n/a	n/a	n/a	n/a	n/a	n/a
n/a	"image-keyboard-response"	"248"	"474601"	"0.0-5.0-2.0-1.32"	"yuqm8t"	"620"	"1022"	"chrome"	"108.0.0"	"FALSE"	"Windows 10"	"60.09"	n/a	n/a	n/a	n/a	n/a	n/a	"Trial"	n/a	n/a	n/a	n/a	"NULL"	"NULL"	"NULL"	"1262"	"stimuli/VerticalHorizontal_28.75714_-0.16217.png"	"arrowright"	n/a	"VerticalHorizontal"	"arrowright"	"1447"	"TRUE"	"VerticalHorizontal"	"28.757140000"	"-0.162170000"	"2"	"33"
n/a	"html-keyboard-response"	"249"	"476041"	"0.0-5.0-2.0-0.33"	"yuqm8t"	"620"	"1022"	"chrome"	"108.0.0"	"FALSE"	"Windows 10"	"60.09"	n/a	n/a	n/a	n/a	n/a	n/a	"fixation"	n/a	n/a	n/a	n/a	"NULL"	"NULL"	"NULL"	n/a	"<p style=\"color: black; font-size: 80px; padding-left: 46%; padding-right: 5%; padding-top: 6%; padding-bottom: 13%\">+</p>"	n/a	"1429"	n/a	n/a	n/a	n/a	n/a	n/a	n/a	n/a	n/a
n/a	"image-keyboard-response"	"250"	"476818"	"0.0-5.0-2.0-1.33"	"yuqm8t"	"620"	"1022"	"chrome"	"108.0.0"	"FALSE"	"Windows 10"	"60.09"	n/a	n/a	n/a	n/a	n/a	n/a	"Trial"	n/a	n/a	n/a	n/a	"NULL"	"NULL"	"NULL"	"774"	"stimuli/VerticalHorizontal_20.27143_0.16217.png"	"arrowleft"	n/a	"VerticalHorizontal"	"arrowleft"	"1440"	"TRUE"	"VerticalHorizontal"	"20.271430000"	"0.1621700000"	"2"	"34"
n/a	"html-keyboard-response"	"251"	"477937"	"0.0-5.0-2.0-0.34"	"yuqm8t"	"620"	"1022"	"chrome"	"108.0.0"	"FALSE"	"Windows 10"	"60.09"	n/a	n/a	n/a	n/a	n/a	n/a	"fixation"	n/a	n/a	n/a	n/a	"NULL"	"NULL"	"NULL"	n/a	"<p style=\"color: black; font-size: 80px; padding-left: 8%; padding-right: 0%; padding-top: 33%; padding-bottom: 17%\">+</p>"	n/a	"1113"	n/a	n/a	n/a	n/a	n/a	n/a	n/a	n/a	n/a
n/a	"image-keyboard-response"	"252"	"478538"	"0.0-5.0-2.0-1.34"	"yuqm8t"	"620"	"1022"	"chrome"	"108.0.0"	"FALSE"	"Windows 10"	"60.09"	n/a	n/a	n/a	n/a	n/a	n/a	"Trial"	n/a	n/a	n/a	n/a	"NULL"	"NULL"	"NULL"	"600"	"stimuli/VerticalHorizontal_-20.27143_-0.2250.png"	"arrowright"	n/a	"VerticalHorizontal"	"arrowright"	"1119"	"TRUE"	"VerticalHorizontal"	"-20.27143000"	"-0.225000000"	"2"	"35"
n/a	"html-keyboard-response"	"253"	"479634"	"0.0-5.0-2.0-0.35"	"yuqm8t"	"620"	"1022"	"chrome"	"108.0.0"	"FALSE"	"Windows 10"	"60.09"	n/a	n/a	n/a	n/a	n/a	n/a	"fixation"	n/a	n/a	n/a	n/a	"NULL"	"NULL"	"NULL"	n/a	"<p style=\"color: black; font-size: 80px; padding-left: 7%; padding-right: 48%; padding-top: 16%; padding-bottom: 18%\">+</p>"	n/a	"1085"	n/a	n/a	n/a	n/a	n/a	n/a	n/a	n/a	n/a
n/a	"image-keyboard-response"	"254"	"480973"	"0.0-5.0-2.0-1.35"	"yuqm8t"	"620"	"1022"	"chrome"	"108.0.0"	"FALSE"	"Windows 10"	"60.09"	n/a	n/a	n/a	n/a	n/a	n/a	"Trial"	n/a	n/a	n/a	n/a	"NULL"	"NULL"	"NULL"	"1338"	"stimuli/VerticalHorizontal_11.78571_0.10960.png"	"arrowleft"	n/a	"VerticalHorizontal"	"arrowleft"	"1096"	"TRUE"	"VerticalHorizontal"	"11.785710000"	"0.1096000000"	"2"	"36"
n/a	"html-keyboard-response"	"255"	"482247"	"0.0-5.0-2.0-0.36"	"yuqm8t"	"620"	"1022"	"chrome"	"108.0.0"	"FALSE"	"Windows 10"	"60.09"	n/a	n/a	n/a	n/a	n/a	n/a	"fixation"	n/a	n/a	n/a	n/a	"NULL"	"NULL"	"NULL"	n/a	"<p style=\"color: black; font-size: 80px; padding-left: 40%; padding-right: 3%; padding-top: 27%; padding-bottom: 35%\">+</p>"	n/a	"1259"	n/a	n/a	n/a	n/a	n/a	n/a	n/a	n/a	n/a
