"success"	"trial_type"	"trial_index"	"time_elapsed"	"internal_node_id"	"participant_id"	"screen_height"	"screen_width"	"browser"	"browser_version"	"mobile"	"os"	"vsync_rate"	"subject_id"	"width"	"height"	"webaudio"	"fullscreen"	"webcam"	"microphone"	"screen"	"version"	"date"	"time"	"rt"	"response"	"timeout"	"failed_images"	"failed_audio"	"failed_video"	"stimulus"	"trial_duration"	"block"	"correct_response"	"prestimulus_duration"	"correct"	"type"	"illusion_strength"	"illusion_difference"	"block_number"	"trial_number"
"TRUE"	"fullscreen"	"0"	"1265"	"0.0-0.0"	"hkvkkz"	"600"	"1366"	"chrome"	"109.0.0"	"FALSE"	"Windows 10"	"60.58"	"147"	n/a	n/a	n/a	n/a	n/a	n/a	n/a	n/a	n/a	n/a	n/a	"NULL"	n/a	"NULL"	"NULL"	"NULL"	n/a	n/a	n/a	n/a	n/a	n/a	n/a	n/a	n/a	n/a	n/a
n/a	"browser-check"	"1"	"2269"	"0.0-1.0"	"hkvkkz"	"600"	"1366"	"chrome"	"109.0.0"	"FALSE"	"Windows 10"	"60.58"	"147"	"1366"	"600"	"TRUE"	"TRUE"	"TRUE"	"TRUE"	"browser_info"	"1.0"	"14/01/2023"	"10:21:40"	n/a	"NULL"	n/a	"NULL"	"NULL"	"NULL"	n/a	n/a	n/a	n/a	n/a	n/a	n/a	n/a	n/a	n/a	n/a
n/a	"survey-text"	"2"	"7168"	"0.0-2.0"	"hkvkkz"	"600"	"1366"	"chrome"	"109.0.0"	"FALSE"	"Windows 10"	"60.58"	"147"	n/a	n/a	n/a	n/a	n/a	n/a	"subject_id"	n/a	n/a	n/a	"4887"	"list(subject_id = \"147\")"	n/a	"NULL"	"NULL"	"NULL"	n/a	n/a	n/a	n/a	n/a	n/a	n/a	n/a	n/a	n/a	n/a
"TRUE"	"preload"	"3"	"7184"	"0.0-3.0"	"hkvkkz"	"600"	"1366"	"chrome"	"109.0.0"	"FALSE"	"Windows 10"	"60.58"	"147"	n/a	n/a	n/a	n/a	n/a	n/a	n/a	n/a	n/a	n/a	n/a	"NULL"	"FALSE"	"list()"	"list()"	"list()"	n/a	n/a	n/a	n/a	n/a	n/a	n/a	n/a	n/a	n/a	n/a
n/a	"html-button-response"	"4"	"21952"	"0.0-4.0-0.0"	"hkvkkz"	"600"	"1366"	"chrome"	"109.0.0"	"FALSE"	"Windows 10"	"60.58"	"147"	n/a	n/a	n/a	n/a	n/a	n/a	"illusion_instructions"	n/a	n/a	n/a	"14767"	"0"	n/a	"NULL"	"NULL"	"NULL"	"<p><b>Illusion Game</b></p><p>In this game of speed and reflex, you will need to make <b>visual judgments</b> (for instance, which circle is the biggest, or which line is the longest), as fast and as correctly as possible, while <b>resisting different visual illusions</b>.</p><p>We are going to start with some examples of all the illusions you will encounter in the game.</p>"	n/a	n/a	n/a	n/a	n/a	n/a	n/a	n/a	n/a	n/a
"TRUE"	"preload"	"5"	"21990"	"0.0-4.0-1.0-0.0"	"hkvkkz"	"600"	"1366"	"chrome"	"109.0.0"	"FALSE"	"Windows 10"	"60.58"	"147"	n/a	n/a	n/a	n/a	n/a	n/a	n/a	n/a	n/a	n/a	n/a	"NULL"	"FALSE"	"list()"	"list()"	"list()"	n/a	n/a	n/a	n/a	n/a	n/a	n/a	n/a	n/a	n/a	n/a
n/a	"html-keyboard-response"	"6"	"47283"	"0.0-4.0-1.0-1.0"	"hkvkkz"	"600"	"1366"	"chrome"	"109.0.0"	"FALSE"	"Windows 10"	"60.58"	"147"	n/a	n/a	n/a	n/a	n/a	n/a	n/a	n/a	n/a	n/a	"25292"	"enter"	n/a	"NULL"	"NULL"	"NULL"	"<p><b>Practice</b></p><p>In this part, two red circles will appear side by side on the screen.</p><p>Your task is to select which <b>red circle is bigger</b> in size as fast as you can, without making errors.</p><p>Don't get distracted by the surrounding black circles around the red circles!</p><p>Press <b>the LEFT or the RIGHT arrow</b> to indicate which is the bigger <b>red circle.</b></p><div style='float: center'><img src='materials/instructions/Ebbinghaus_Demo.png' height='300'></img><p><img src='utils/answer/answer_leftright_keyboard.PNG' height='150'></img></p><p class='small'>In this example, the correct answer is the <b>LEFT arrow</b>.</p></div><p>Are you ready? <b>Press ENTER to start</b></p>"	n/a	n/a	n/a	n/a	n/a	n/a	n/a	n/a	n/a	n/a
n/a	"html-keyboard-response"	"7"	"49073"	"0.0-4.0-1.0-2.0-0.0"	"hkvkkz"	"600"	"1366"	"chrome"	"109.0.0"	"FALSE"	"Windows 10"	"60.58"	"147"	n/a	n/a	n/a	n/a	n/a	n/a	"fixation"	n/a	n/a	n/a	n/a	"NULL"	n/a	"NULL"	"NULL"	"NULL"	"<p style=\"color: black; font-size: 80px; padding-left: 38%; padding-right: 21%; padding-top: 1%; padding-bottom: 29%\">+</p>"	"1273"	n/a	n/a	n/a	n/a	n/a	n/a	n/a	n/a	n/a
n/a	"image-keyboard-response"	"8"	"50280"	"0.0-4.0-1.0-2.0-1.0"	"hkvkkz"	"600"	"1366"	"chrome"	"109.0.0"	"FALSE"	"Windows 10"	"60.58"	"147"	n/a	n/a	n/a	n/a	n/a	n/a	"Trial"	n/a	n/a	n/a	"1181"	"arrowleft"	n/a	"NULL"	"NULL"	"NULL"	"stimuli/Ebbinghaus_0000000_1.40000.png"	n/a	"Ebbinghaus"	"arrowleft"	"1790"	"TRUE"	"Ebbinghaus"	"000000000000"	"1.4000000000"	"1"	"1"
n/a	"html-keyboard-response"	"9"	"51593"	"0.0-4.0-1.0-2.0-0.1"	"hkvkkz"	"600"	"1366"	"chrome"	"109.0.0"	"FALSE"	"Windows 10"	"60.58"	"147"	n/a	n/a	n/a	n/a	n/a	n/a	"fixation"	n/a	n/a	n/a	n/a	"NULL"	n/a	"NULL"	"NULL"	"NULL"	"<p style=\"color: black; font-size: 80px; padding-left: 4%; padding-right: 42%; padding-top: 19%; padding-bottom: 15%\">+</p>"	"1298"	n/a	n/a	n/a	n/a	n/a	n/a	n/a	n/a	n/a
n/a	"image-keyboard-response"	"10"	"52169"	"0.0-4.0-1.0-2.0-1.1"	"hkvkkz"	"600"	"1366"	"chrome"	"109.0.0"	"FALSE"	"Windows 10"	"60.58"	"147"	n/a	n/a	n/a	n/a	n/a	n/a	"Trial"	n/a	n/a	n/a	"575"	"arrowleft"	n/a	"NULL"	"NULL"	"NULL"	"stimuli/Ebbinghaus_1000000_1.40000.png"	n/a	"Ebbinghaus"	"arrowleft"	"1313"	"TRUE"	"Ebbinghaus"	"100000000000"	"1.4000000000"	"1"	"2"
n/a	"html-keyboard-response"	"11"	"53354"	"0.0-4.0-1.0-2.0-0.2"	"hkvkkz"	"600"	"1366"	"chrome"	"109.0.0"	"FALSE"	"Windows 10"	"60.58"	"147"	n/a	n/a	n/a	n/a	n/a	n/a	"fixation"	n/a	n/a	n/a	n/a	"NULL"	n/a	"NULL"	"NULL"	"NULL"	"<p style=\"color: black; font-size: 80px; padding-left: 12%; padding-right: 23%; padding-top: 37%; padding-bottom: 32%\">+</p>"	"1167"	n/a	n/a	n/a	n/a	n/a	n/a	n/a	n/a	n/a
n/a	"image-keyboard-response"	"12"	"53888"	"0.0-4.0-1.0-2.0-1.2"	"hkvkkz"	"600"	"1366"	"chrome"	"109.0.0"	"FALSE"	"Windows 10"	"60.58"	"147"	n/a	n/a	n/a	n/a	n/a	n/a	"Trial"	n/a	n/a	n/a	"531"	"arrowright"	n/a	"NULL"	"NULL"	"NULL"	"stimuli/Ebbinghaus_0000000_-1.4000.png"	n/a	"Ebbinghaus"	"arrowright"	"1185"	"TRUE"	"Ebbinghaus"	"000000000000"	"-1.400000000"	"1"	"3"
n/a	"html-keyboard-response"	"13"	"54964"	"0.0-4.0-1.0-2.0-0.3"	"hkvkkz"	"600"	"1366"	"chrome"	"109.0.0"	"FALSE"	"Windows 10"	"60.58"	"147"	n/a	n/a	n/a	n/a	n/a	n/a	"fixation"	n/a	n/a	n/a	n/a	"NULL"	n/a	"NULL"	"NULL"	"NULL"	"<p style=\"color: black; font-size: 80px; padding-left: 5%; padding-right: 14%; padding-top: 10%; padding-bottom: 30%\">+</p>"	"1071"	n/a	n/a	n/a	n/a	n/a	n/a	n/a	n/a	n/a
n/a	"image-keyboard-response"	"14"	"55430"	"0.0-4.0-1.0-2.0-1.3"	"hkvkkz"	"600"	"1366"	"chrome"	"109.0.0"	"FALSE"	"Windows 10"	"60.58"	"147"	n/a	n/a	n/a	n/a	n/a	n/a	"Trial"	n/a	n/a	n/a	"464"	"arrowright"	n/a	"NULL"	"NULL"	"NULL"	"stimuli/Ebbinghaus_-100000_-1.4000.png"	n/a	"Ebbinghaus"	"arrowright"	"1076"	"TRUE"	"Ebbinghaus"	"-10000000000"	"-1.400000000"	"1"	"4"
n/a	"html-keyboard-response"	"15"	"56863"	"0.0-4.0-1.0-2.0-0.4"	"hkvkkz"	"600"	"1366"	"chrome"	"109.0.0"	"FALSE"	"Windows 10"	"60.58"	"147"	n/a	n/a	n/a	n/a	n/a	n/a	"fixation"	n/a	n/a	n/a	n/a	"NULL"	n/a	"NULL"	"NULL"	"NULL"	"<p style=\"color: black; font-size: 80px; padding-left: 20%; padding-right: 33%; padding-top: 40%; padding-bottom: 3%\">+</p>"	"1412"	n/a	n/a	n/a	n/a	n/a	n/a	n/a	n/a	n/a
n/a	"image-keyboard-response"	"16"	"57431"	"0.0-4.0-1.0-2.0-1.4"	"hkvkkz"	"600"	"1366"	"chrome"	"109.0.0"	"FALSE"	"Windows 10"	"60.58"	"147"	n/a	n/a	n/a	n/a	n/a	n/a	"Trial"	n/a	n/a	n/a	"566"	"arrowleft"	n/a	"NULL"	"NULL"	"NULL"	"stimuli/Ebbinghaus_-100000_1.40000.png"	n/a	"Ebbinghaus"	"arrowleft"	"1433"	"TRUE"	"Ebbinghaus"	"-10000000000"	"1.4000000000"	"1"	"5"
n/a	"html-keyboard-response"	"17"	"58550"	"0.0-4.0-1.0-2.0-0.5"	"hkvkkz"	"600"	"1366"	"chrome"	"109.0.0"	"FALSE"	"Windows 10"	"60.58"	"147"	n/a	n/a	n/a	n/a	n/a	n/a	"fixation"	n/a	n/a	n/a	n/a	"NULL"	n/a	"NULL"	"NULL"	"NULL"	"<p style=\"color: black; font-size: 80px; padding-left: 44%; padding-right: 15%; padding-top: 32%; padding-bottom: 13%\">+</p>"	"1107"	n/a	n/a	n/a	n/a	n/a	n/a	n/a	n/a	n/a
n/a	"image-keyboard-response"	"18"	"58995"	"0.0-4.0-1.0-2.0-1.5"	"hkvkkz"	"600"	"1366"	"chrome"	"109.0.0"	"FALSE"	"Windows 10"	"60.58"	"147"	n/a	n/a	n/a	n/a	n/a	n/a	"Trial"	n/a	n/a	n/a	"442"	"arrowright"	n/a	"NULL"	"NULL"	"NULL"	"stimuli/Ebbinghaus_1000000_-1.4000.png"	n/a	"Ebbinghaus"	"arrowright"	"1119"	"TRUE"	"Ebbinghaus"	"100000000000"	"-1.400000000"	"1"	"6"
n/a	"html-button-response"	"19"	"66279"	"0.0-4.0-1.0-3.0"	"hkvkkz"	"600"	"1366"	"chrome"	"109.0.0"	"FALSE"	"Windows 10"	"60.58"	"147"	n/a	n/a	n/a	n/a	n/a	n/a	"practice_block_results"	n/a	n/a	n/a	"7282"	"0"	n/a	"NULL"	"NULL"	"NULL"	"<p style='color:rgb(76,175,80);'> Correct Responses: <b>100.00%</b></p><hr><p style='color:rgb(233,30,99);'> Average Response Time: <b>626.50</b> ms.</p>"	n/a	n/a	n/a	n/a	n/a	n/a	n/a	n/a	n/a	n/a
"TRUE"	"preload"	"20"	"66801"	"0.0-4.0-2.0-0.0"	"hkvkkz"	"600"	"1366"	"chrome"	"109.0.0"	"FALSE"	"Windows 10"	"60.58"	"147"	n/a	n/a	n/a	n/a	n/a	n/a	n/a	n/a	n/a	n/a	n/a	"NULL"	"FALSE"	"list()"	"list()"	"list()"	n/a	n/a	n/a	n/a	n/a	n/a	n/a	n/a	n/a	n/a	n/a
n/a	"html-keyboard-response"	"21"	"77178"	"0.0-4.0-2.0-1.0"	"hkvkkz"	"600"	"1366"	"chrome"	"109.0.0"	"FALSE"	"Windows 10"	"60.58"	"147"	n/a	n/a	n/a	n/a	n/a	n/a	n/a	n/a	n/a	n/a	"10376"	"enter"	n/a	"NULL"	"NULL"	"NULL"	"<p><b>Practice</b></p><p>In this part, two horizontal red lines will appear one above the other.</p><p>Your task is to select which <b>line is longer</b> in length as fast as you can, without making errors.</p><p>Don't get distracted by the surrounding black arrows at the end of the red lines!</p><p>Press <b>the UP or the DOWN arrow</b> to indicate where is the longer <b>red line.</b></p><div style='float: center'><img src='materials/instructions/MullerLyer_Demo.png' height='300'></img><p><img src='utils/answer/answer_updown_keyboard.PNG' height='150'></img></p><p class='small'>In this example, the correct answer is the <b>UP arrow</b>.</p></div><p>Are you ready? <b>Press ENTER to start</b></p>"	n/a	n/a	n/a	n/a	n/a	n/a	n/a	n/a	n/a	n/a
n/a	"html-keyboard-response"	"22"	"78744"	"0.0-4.0-2.0-2.0-0.0"	"hkvkkz"	"600"	"1366"	"chrome"	"109.0.0"	"FALSE"	"Windows 10"	"60.58"	"147"	n/a	n/a	n/a	n/a	n/a	n/a	"fixation"	n/a	n/a	n/a	n/a	"NULL"	n/a	"NULL"	"NULL"	"NULL"	"<p style=\"color: black; font-size: 80px; padding-left: 29%; padding-right: 14%; padding-top: 27%; padding-bottom: 21%\">+</p>"	"1031"	n/a	n/a	n/a	n/a	n/a	n/a	n/a	n/a	n/a
n/a	"image-keyboard-response"	"23"	"79452"	"0.0-4.0-2.0-2.0-1.0"	"hkvkkz"	"600"	"1366"	"chrome"	"109.0.0"	"FALSE"	"Windows 10"	"60.58"	"147"	n/a	n/a	n/a	n/a	n/a	n/a	"Trial"	n/a	n/a	n/a	"707"	"arrowdown"	n/a	"NULL"	"NULL"	"NULL"	"stimuli/MullerLyer_2300000_-0.7000.png"	n/a	"MullerLyer"	"arrowdown"	"1566"	"TRUE"	"MullerLyer"	"230000000000"	"-0.700000000"	"1"	"7"
n/a	"html-keyboard-response"	"24"	"80837"	"0.0-4.0-2.0-2.0-0.1"	"hkvkkz"	"600"	"1366"	"chrome"	"109.0.0"	"FALSE"	"Windows 10"	"60.58"	"147"	n/a	n/a	n/a	n/a	n/a	n/a	"fixation"	n/a	n/a	n/a	n/a	"NULL"	n/a	"NULL"	"NULL"	"NULL"	"<p style=\"color: black; font-size: 80px; padding-left: 32%; padding-right: 14%; padding-top: 34%; padding-bottom: 41%\">+</p>"	"1366"	n/a	n/a	n/a	n/a	n/a	n/a	n/a	n/a	n/a
n/a	"image-keyboard-response"	"25"	"81300"	"0.0-4.0-2.0-2.0-1.1"	"hkvkkz"	"600"	"1366"	"chrome"	"109.0.0"	"FALSE"	"Windows 10"	"60.58"	"147"	n/a	n/a	n/a	n/a	n/a	n/a	"Trial"	n/a	n/a	n/a	"461"	"arrowup"	n/a	"NULL"	"NULL"	"NULL"	"stimuli/MullerLyer_-230000_0.70000.png"	n/a	"MullerLyer"	"arrowup"	"1385"	"TRUE"	"MullerLyer"	"-23000000000"	"0.7000000000"	"1"	"8"
n/a	"html-keyboard-response"	"26"	"82661"	"0.0-4.0-2.0-2.0-0.2"	"hkvkkz"	"600"	"1366"	"chrome"	"109.0.0"	"FALSE"	"Windows 10"	"60.58"	"147"	n/a	n/a	n/a	n/a	n/a	n/a	"fixation"	n/a	n/a	n/a	n/a	"NULL"	n/a	"NULL"	"NULL"	"NULL"	"<p style=\"color: black; font-size: 80px; padding-left: 21%; padding-right: 29%; padding-top: 13%; padding-bottom: 10%\">+</p>"	"1348"	n/a	n/a	n/a	n/a	n/a	n/a	n/a	n/a	n/a
n/a	"image-keyboard-response"	"27"	"83173"	"0.0-4.0-2.0-2.0-1.2"	"hkvkkz"	"600"	"1366"	"chrome"	"109.0.0"	"FALSE"	"Windows 10"	"60.58"	"147"	n/a	n/a	n/a	n/a	n/a	n/a	"Trial"	n/a	n/a	n/a	"510"	"arrowdown"	n/a	"NULL"	"NULL"	"NULL"	"stimuli/MullerLyer_0000000_-0.7000.png"	n/a	"MullerLyer"	"arrowdown"	"1361"	"TRUE"	"MullerLyer"	"000000000000"	"-0.700000000"	"1"	"9"
n/a	"html-keyboard-response"	"28"	"84424"	"0.0-4.0-2.0-2.0-0.3"	"hkvkkz"	"600"	"1366"	"chrome"	"109.0.0"	"FALSE"	"Windows 10"	"60.58"	"147"	n/a	n/a	n/a	n/a	n/a	n/a	"fixation"	n/a	n/a	n/a	n/a	"NULL"	n/a	"NULL"	"NULL"	"NULL"	"<p style=\"color: black; font-size: 80px; padding-left: 32%; padding-right: 39%; padding-top: 8%; padding-bottom: 43%\">+</p>"	"1240"	n/a	n/a	n/a	n/a	n/a	n/a	n/a	n/a	n/a
n/a	"image-keyboard-response"	"29"	"84921"	"0.0-4.0-2.0-2.0-1.3"	"hkvkkz"	"600"	"1366"	"chrome"	"109.0.0"	"FALSE"	"Windows 10"	"60.58"	"147"	n/a	n/a	n/a	n/a	n/a	n/a	"Trial"	n/a	n/a	n/a	"496"	"arrowdown"	n/a	"NULL"	"NULL"	"NULL"	"stimuli/MullerLyer_-230000_-0.7000.png"	n/a	"MullerLyer"	"arrowdown"	"1251"	"TRUE"	"MullerLyer"	"-23000000000"	"-0.700000000"	"1"	"10"
n/a	"html-keyboard-response"	"30"	"86258"	"0.0-4.0-2.0-2.0-0.4"	"hkvkkz"	"600"	"1366"	"chrome"	"109.0.0"	"FALSE"	"Windows 10"	"60.58"	"147"	n/a	n/a	n/a	n/a	n/a	n/a	"fixation"	n/a	n/a	n/a	n/a	"NULL"	n/a	"NULL"	"NULL"	"NULL"	"<p style=\"color: black; font-size: 80px; padding-left: 22%; padding-right: 2%; padding-top: 1%; padding-bottom: 7%\">+</p>"	"1327"	n/a	n/a	n/a	n/a	n/a	n/a	n/a	n/a	n/a
n/a	"image-keyboard-response"	"31"	"86762"	"0.0-4.0-2.0-2.0-1.4"	"hkvkkz"	"600"	"1366"	"chrome"	"109.0.0"	"FALSE"	"Windows 10"	"60.58"	"147"	n/a	n/a	n/a	n/a	n/a	n/a	"Trial"	n/a	n/a	n/a	"503"	"arrowup"	n/a	"NULL"	"NULL"	"NULL"	"stimuli/MullerLyer_0000000_0.70000.png"	n/a	"MullerLyer"	"arrowup"	"1337"	"TRUE"	"MullerLyer"	"000000000000"	"0.7000000000"	"1"	"11"
n/a	"html-keyboard-response"	"32"	"87981"	"0.0-4.0-2.0-2.0-0.5"	"hkvkkz"	"600"	"1366"	"chrome"	"109.0.0"	"FALSE"	"Windows 10"	"60.58"	"147"	n/a	n/a	n/a	n/a	n/a	n/a	"fixation"	n/a	n/a	n/a	n/a	"NULL"	n/a	"NULL"	"NULL"	"NULL"	"<p style=\"color: black; font-size: 80px; padding-left: 6%; padding-right: 16%; padding-top: 32%; padding-bottom: 25%\">+</p>"	"1200"	n/a	n/a	n/a	n/a	n/a	n/a	n/a	n/a	n/a
n/a	"image-keyboard-response"	"33"	"88615"	"0.0-4.0-2.0-2.0-1.5"	"hkvkkz"	"600"	"1366"	"chrome"	"109.0.0"	"FALSE"	"Windows 10"	"60.58"	"147"	n/a	n/a	n/a	n/a	n/a	n/a	"Trial"	n/a	n/a	n/a	"633"	"arrowup"	n/a	"NULL"	"NULL"	"NULL"	"stimuli/MullerLyer_2300000_0.70000.png"	n/a	"MullerLyer"	"arrowup"	"1219"	"TRUE"	"MullerLyer"	"230000000000"	"0.7000000000"	"1"	"12"
n/a	"html-button-response"	"34"	"94232"	"0.0-4.0-2.0-3.0"	"hkvkkz"	"600"	"1366"	"chrome"	"109.0.0"	"FALSE"	"Windows 10"	"60.58"	"147"	n/a	n/a	n/a	n/a	n/a	n/a	"practice_block_results"	n/a	n/a	n/a	"5614"	"0"	n/a	"NULL"	"NULL"	"NULL"	"<p style='color:rgb(76,175,80);'> Correct Responses: <b>100.00%</b></p><hr><p style='color:rgb(233,30,99);'> Average Response Time: <b>551.67</b> ms.</p>"	n/a	n/a	n/a	n/a	n/a	n/a	n/a	n/a	n/a	n/a
"TRUE"	"preload"	"35"	"94785"	"0.0-4.0-3.0-0.0"	"hkvkkz"	"600"	"1366"	"chrome"	"109.0.0"	"FALSE"	"Windows 10"	"60.58"	"147"	n/a	n/a	n/a	n/a	n/a	n/a	n/a	n/a	n/a	n/a	n/a	"NULL"	"FALSE"	"list()"	"list()"	"list()"	n/a	n/a	n/a	n/a	n/a	n/a	n/a	n/a	n/a	n/a	n/a
n/a	"html-keyboard-response"	"36"	"101762"	"0.0-4.0-3.0-1.0"	"hkvkkz"	"600"	"1366"	"chrome"	"109.0.0"	"FALSE"	"Windows 10"	"60.58"	"147"	n/a	n/a	n/a	n/a	n/a	n/a	n/a	n/a	n/a	n/a	"6976"	"enter"	n/a	"NULL"	"NULL"	"NULL"	"<p><b>Practice</b></p><p>In this part, two red lines will appear side by side.</p><p>Your task is to tell <b>which line is longer</b> in length, regardless of their orientation, as fast as you can, and without making errors.</p><p>Don't get distracted by the orientation of the lines!</p><p>Press <b>the LEFT or the RIGHT arrow</b> to indicate which <b>line is the longer one.</b></p><div style='float: center'><img src='materials/instructions/VerticalHorizontal_Demo.png' height='300'></img><p><img src='utils/answer/answer_leftright_keyboard.PNG' height='150'></img></p><p class='small'>In this example, the correct answer is the <b>LEFT arrow</b>.</p></div><p>Are you ready? <b>Press ENTER to start</b></p>"	n/a	n/a	n/a	n/a	n/a	n/a	n/a	n/a	n/a	n/a
n/a	"html-keyboard-response"	"37"	"103496"	"0.0-4.0-3.0-2.0-0.0"	"hkvkkz"	"600"	"1366"	"chrome"	"109.0.0"	"FALSE"	"Windows 10"	"60.58"	"147"	n/a	n/a	n/a	n/a	n/a	n/a	"fixation"	n/a	n/a	n/a	n/a	"NULL"	n/a	"NULL"	"NULL"	"NULL"	"<p style=\"color: black; font-size: 80px; padding-left: 34%; padding-right: 17%; padding-top: 44%; padding-bottom: 19%\">+</p>"	"1212"	n/a	n/a	n/a	n/a	n/a	n/a	n/a	n/a	n/a
n/a	"image-keyboard-response"	"38"	"104158"	"0.0-4.0-3.0-2.0-1.0"	"hkvkkz"	"600"	"1366"	"chrome"	"109.0.0"	"FALSE"	"Windows 10"	"60.58"	"147"	n/a	n/a	n/a	n/a	n/a	n/a	"Trial"	n/a	n/a	n/a	"661"	"arrowleft"	n/a	"NULL"	"NULL"	"NULL"	"stimuli/VerticalHorizontal_-330000_0.90000.png"	n/a	"VerticalHorizontal"	"arrowleft"	"1734"	"TRUE"	"VerticalHorizontal"	"-33000000000"	"0.9000000000"	"1"	"13"
n/a	"html-keyboard-response"	"39"	"105450"	"0.0-4.0-3.0-2.0-0.1"	"hkvkkz"	"600"	"1366"	"chrome"	"109.0.0"	"FALSE"	"Windows 10"	"60.58"	"147"	n/a	n/a	n/a	n/a	n/a	n/a	"fixation"	n/a	n/a	n/a	n/a	"NULL"	n/a	"NULL"	"NULL"	"NULL"	"<p style=\"color: black; font-size: 80px; padding-left: 39%; padding-right: 6%; padding-top: 10%; padding-bottom: 0%\">+</p>"	"1278"	n/a	n/a	n/a	n/a	n/a	n/a	n/a	n/a	n/a
n/a	"image-keyboard-response"	"40"	"105909"	"0.0-4.0-3.0-2.0-1.1"	"hkvkkz"	"600"	"1366"	"chrome"	"109.0.0"	"FALSE"	"Windows 10"	"60.58"	"147"	n/a	n/a	n/a	n/a	n/a	n/a	"Trial"	n/a	n/a	n/a	"457"	"arrowright"	n/a	"NULL"	"NULL"	"NULL"	"stimuli/VerticalHorizontal_-330000_-0.9000.png"	n/a	"VerticalHorizontal"	"arrowright"	"1292"	"TRUE"	"VerticalHorizontal"	"-33000000000"	"-0.900000000"	"1"	"14"
n/a	"html-keyboard-response"	"41"	"107200"	"0.0-4.0-3.0-2.0-0.2"	"hkvkkz"	"600"	"1366"	"chrome"	"109.0.0"	"FALSE"	"Windows 10"	"60.58"	"147"	n/a	n/a	n/a	n/a	n/a	n/a	"fixation"	n/a	n/a	n/a	n/a	"NULL"	n/a	"NULL"	"NULL"	"NULL"	"<p style=\"color: black; font-size: 80px; padding-left: 18%; padding-right: 44%; padding-top: 33%; padding-bottom: 25%\">+</p>"	"1274"	n/a	n/a	n/a	n/a	n/a	n/a	n/a	n/a	n/a
n/a	"image-keyboard-response"	"42"	"107758"	"0.0-4.0-3.0-2.0-1.2"	"hkvkkz"	"600"	"1366"	"chrome"	"109.0.0"	"FALSE"	"Windows 10"	"60.58"	"147"	n/a	n/a	n/a	n/a	n/a	n/a	"Trial"	n/a	n/a	n/a	"556"	"arrowright"	n/a	"NULL"	"NULL"	"NULL"	"stimuli/VerticalHorizontal_0000000_-0.9000.png"	n/a	"VerticalHorizontal"	"arrowright"	"1291"	"TRUE"	"VerticalHorizontal"	"000000000000"	"-0.900000000"	"1"	"15"
n/a	"html-keyboard-response"	"43"	"109232"	"0.0-4.0-3.0-2.0-0.3"	"hkvkkz"	"600"	"1366"	"chrome"	"109.0.0"	"FALSE"	"Windows 10"	"60.58"	"147"	n/a	n/a	n/a	n/a	n/a	n/a	"fixation"	n/a	n/a	n/a	n/a	"NULL"	n/a	"NULL"	"NULL"	"NULL"	"<p style=\"color: black; font-size: 80px; padding-left: 40%; padding-right: 29%; padding-top: 45%; padding-bottom: 1%\">+</p>"	"1461"	n/a	n/a	n/a	n/a	n/a	n/a	n/a	n/a	n/a
n/a	"image-keyboard-response"	"44"	"109730"	"0.0-4.0-3.0-2.0-1.3"	"hkvkkz"	"600"	"1366"	"chrome"	"109.0.0"	"FALSE"	"Windows 10"	"60.58"	"147"	n/a	n/a	n/a	n/a	n/a	n/a	"Trial"	n/a	n/a	n/a	"497"	"arrowleft"	n/a	"NULL"	"NULL"	"NULL"	"stimuli/VerticalHorizontal_3300000_0.90000.png"	n/a	"VerticalHorizontal"	"arrowleft"	"1474"	"TRUE"	"VerticalHorizontal"	"330000000000"	"0.9000000000"	"1"	"16"
n/a	"html-keyboard-response"	"45"	"110843"	"0.0-4.0-3.0-2.0-0.4"	"hkvkkz"	"600"	"1366"	"chrome"	"109.0.0"	"FALSE"	"Windows 10"	"60.58"	"147"	n/a	n/a	n/a	n/a	n/a	n/a	"fixation"	n/a	n/a	n/a	n/a	"NULL"	n/a	"NULL"	"NULL"	"NULL"	"<p style=\"color: black; font-size: 80px; padding-left: 32%; padding-right: 17%; padding-top: 42%; padding-bottom: 27%\">+</p>"	"1097"	n/a	n/a	n/a	n/a	n/a	n/a	n/a	n/a	n/a
n/a	"image-keyboard-response"	"46"	"111283"	"0.0-4.0-3.0-2.0-1.4"	"hkvkkz"	"600"	"1366"	"chrome"	"109.0.0"	"FALSE"	"Windows 10"	"60.58"	"147"	n/a	n/a	n/a	n/a	n/a	n/a	"Trial"	n/a	n/a	n/a	"439"	"arrowleft"	n/a	"NULL"	"NULL"	"NULL"	"stimuli/VerticalHorizontal_0000000_0.90000.png"	n/a	"VerticalHorizontal"	"arrowleft"	"1113"	"TRUE"	"VerticalHorizontal"	"000000000000"	"0.9000000000"	"1"	"17"
n/a	"html-keyboard-response"	"47"	"112515"	"0.0-4.0-3.0-2.0-0.5"	"hkvkkz"	"600"	"1366"	"chrome"	"109.0.0"	"FALSE"	"Windows 10"	"60.58"	"147"	n/a	n/a	n/a	n/a	n/a	n/a	"fixation"	n/a	n/a	n/a	n/a	"NULL"	n/a	"NULL"	"NULL"	"NULL"	"<p style=\"color: black; font-size: 80px; padding-left: 8%; padding-right: 22%; padding-top: 26%; padding-bottom: 26%\">+</p>"	"1214"	n/a	n/a	n/a	n/a	n/a	n/a	n/a	n/a	n/a
n/a	"image-keyboard-response"	"48"	"112924"	"0.0-4.0-3.0-2.0-1.5"	"hkvkkz"	"600"	"1366"	"chrome"	"109.0.0"	"FALSE"	"Windows 10"	"60.58"	"147"	n/a	n/a	n/a	n/a	n/a	n/a	"Trial"	n/a	n/a	n/a	"407"	"arrowright"	n/a	"NULL"	"NULL"	"NULL"	"stimuli/VerticalHorizontal_3300000_-0.9000.png"	n/a	"VerticalHorizontal"	"arrowright"	"1232"	"TRUE"	"VerticalHorizontal"	"330000000000"	"-0.900000000"	"1"	"18"
n/a	"html-button-response"	"49"	"116815"	"0.0-4.0-3.0-3.0"	"hkvkkz"	"600"	"1366"	"chrome"	"109.0.0"	"FALSE"	"Windows 10"	"60.58"	"147"	n/a	n/a	n/a	n/a	n/a	n/a	"practice_block_results"	n/a	n/a	n/a	"3890"	"0"	n/a	"NULL"	"NULL"	"NULL"	"<p style='color:rgb(76,175,80);'> Correct Responses: <b>100.00%</b></p><hr><p style='color:rgb(233,30,99);'> Average Response Time: <b>502.83</b> ms.</p>"	n/a	n/a	n/a	n/a	n/a	n/a	n/a	n/a	n/a	n/a
n/a	"html-button-response"	"50"	"232032"	"0.0-4.0-4.0"	"hkvkkz"	"600"	"1366"	"chrome"	"109.0.0"	"FALSE"	"Windows 10"	"60.58"	"147"	n/a	n/a	n/a	n/a	n/a	n/a	"practice_debrief"	n/a	n/a	n/a	"114715"	"0"	n/a	"NULL"	"NULL"	"NULL"	"<p><b>TRAINING COMPLETED</b></p><p>In the next phase, there will be more trials, and some might be harder too.<br> Moreover, after each illusion block, a <b>score</b> will be calculated based on speed (time you took to answer) and accuracy (number of errors).</p><p>Try to keep up a high score!</p><br><p>Note that it can be <i>really</i> challenging at times, so you will need to rely on your <b>intuition</b> and gut feeling to answer as fast as you can without making errors.</p><p>Each illusion block will be repeated two times (so that you have the opportunity to improve your score), but the order of the blocks is random.</p><p>Remember, your goal is to be as <b>fast</b> and <b>accurate</b> as possible. Good luck!</p><br>"	n/a	n/a	n/a	n/a	n/a	n/a	n/a	n/a	n/a	n/a
"TRUE"	"preload"	"51"	"232235"	"0.0-5.0-0.0"	"hkvkkz"	"600"	"1366"	"chrome"	"109.0.0"	"FALSE"	"Windows 10"	"60.58"	"147"	n/a	n/a	n/a	n/a	n/a	n/a	n/a	n/a	n/a	n/a	n/a	"NULL"	"FALSE"	"list()"	"list()"	"list()"	n/a	n/a	n/a	n/a	n/a	n/a	n/a	n/a	n/a	n/a	n/a
n/a	"html-keyboard-response"	"52"	"235552"	"0.0-5.0-1.0"	"hkvkkz"	"600"	"1366"	"chrome"	"109.0.0"	"FALSE"	"Windows 10"	"60.58"	"147"	n/a	n/a	n/a	n/a	n/a	n/a	n/a	n/a	n/a	n/a	"3317"	"enter"	n/a	"NULL"	"NULL"	"NULL"	"<p><b>Part 1/6</b></p><p>In this part, two red circles will appear side by side on the screen.</p><p>Your task is to select which <b>red circle is bigger</b> in size as fast as you can, without making errors.</p><p>Don't get distracted by the surrounding black circles around the red circles!</p><p>Press <b>the LEFT or the RIGHT arrow</b> to indicate which is the bigger <b>red circle.</b></p><div style='float: center'><img src='materials/instructions/Ebbinghaus_Demo.png' height='300'></img><p><img src='utils/answer/answer_leftright_keyboard.PNG' height='150'></img></p><p class='small'>In this example, the correct answer is the <b>LEFT arrow</b>.</p></div><p>Are you ready? <b>Press ENTER to start</b></p>"	n/a	n/a	n/a	n/a	n/a	n/a	n/a	n/a	n/a	n/a
n/a	"html-keyboard-response"	"53"	"237556"	"0.0-5.0-2.0-0.0"	"hkvkkz"	"600"	"1366"	"chrome"	"109.0.0"	"FALSE"	"Windows 10"	"60.58"	"147"	n/a	n/a	n/a	n/a	n/a	n/a	"fixation"	n/a	n/a	n/a	n/a	"NULL"	n/a	"NULL"	"NULL"	"NULL"	"<p style=\"color: black; font-size: 80px; padding-left: 14%; padding-right: 37%; padding-top: 43%; padding-bottom: 41%\">+</p>"	"1481"	n/a	n/a	n/a	n/a	n/a	n/a	n/a	n/a	n/a
n/a	"image-keyboard-response"	"54"	"238246"	"0.0-5.0-2.0-1.0"	"hkvkkz"	"600"	"1366"	"chrome"	"109.0.0"	"FALSE"	"Windows 10"	"60.58"	"147"	n/a	n/a	n/a	n/a	n/a	n/a	"Trial"	n/a	n/a	n/a	"690"	"arrowleft"	n/a	"NULL"	"NULL"	"NULL"	"stimuli/Ebbinghaus_0.10000_0.28000.png"	n/a	"Ebbinghaus"	"arrowleft"	"2004"	"TRUE"	"Ebbinghaus"	"0.1000000000"	"0.2800000000"	"1"	"19"
n/a	"html-keyboard-response"	"55"	"239419"	"0.0-5.0-2.0-0.1"	"hkvkkz"	"600"	"1366"	"chrome"	"109.0.0"	"FALSE"	"Windows 10"	"60.58"	"147"	n/a	n/a	n/a	n/a	n/a	n/a	"fixation"	n/a	n/a	n/a	n/a	"NULL"	n/a	"NULL"	"NULL"	"NULL"	"<p style=\"color: black; font-size: 80px; padding-left: 49%; padding-right: 42%; padding-top: 7%; padding-bottom: 3%\">+</p>"	"1156"	n/a	n/a	n/a	n/a	n/a	n/a	n/a	n/a	n/a
n/a	"image-keyboard-response"	"56"	"239883"	"0.0-5.0-2.0-1.1"	"hkvkkz"	"600"	"1366"	"chrome"	"109.0.0"	"FALSE"	"Windows 10"	"60.58"	"147"	n/a	n/a	n/a	n/a	n/a	n/a	"Trial"	n/a	n/a	n/a	"463"	"arrowright"	n/a	"NULL"	"NULL"	"NULL"	"stimuli/Ebbinghaus_-0.87143_0.21500.png"	n/a	"Ebbinghaus"	"arrowleft"	"1173"	"FALSE"	"Ebbinghaus"	"-0.871430000"	"0.2150000000"	"1"	"20"
n/a	"html-keyboard-response"	"57"	"241230"	"0.0-5.0-2.0-0.2"	"hkvkkz"	"600"	"1366"	"chrome"	"109.0.0"	"FALSE"	"Windows 10"	"60.58"	"147"	n/a	n/a	n/a	n/a	n/a	n/a	"fixation"	n/a	n/a	n/a	n/a	"NULL"	n/a	"NULL"	"NULL"	"NULL"	"<p style=\"color: black; font-size: 80px; padding-left: 29%; padding-right: 27%; padding-top: 40%; padding-bottom: 16%\">+</p>"	"1341"	n/a	n/a	n/a	n/a	n/a	n/a	n/a	n/a	n/a
n/a	"image-keyboard-response"	"58"	"241960"	"0.0-5.0-2.0-1.2"	"hkvkkz"	"600"	"1366"	"chrome"	"109.0.0"	"FALSE"	"Windows 10"	"60.58"	"147"	n/a	n/a	n/a	n/a	n/a	n/a	"Trial"	n/a	n/a	n/a	"729"	"arrowleft"	n/a	"NULL"	"NULL"	"NULL"	"stimuli/Ebbinghaus_-0.1000_0.15857.png"	n/a	"Ebbinghaus"	"arrowleft"	"1347"	"TRUE"	"Ebbinghaus"	"-0.100000000"	"0.1585700000"	"1"	"21"
n/a	"html-keyboard-response"	"59"	"243416"	"0.0-5.0-2.0-0.3"	"hkvkkz"	"600"	"1366"	"chrome"	"109.0.0"	"FALSE"	"Windows 10"	"60.58"	"147"	n/a	n/a	n/a	n/a	n/a	n/a	"fixation"	n/a	n/a	n/a	n/a	"NULL"	n/a	"NULL"	"NULL"	"NULL"	"<p style=\"color: black; font-size: 80px; padding-left: 0%; padding-right: 35%; padding-top: 1%; padding-bottom: 19%\">+</p>"	"1450"	n/a	n/a	n/a	n/a	n/a	n/a	n/a	n/a	n/a
n/a	"image-keyboard-response"	"60"	"244017"	"0.0-5.0-2.0-1.3"	"hkvkkz"	"600"	"1366"	"chrome"	"109.0.0"	"FALSE"	"Windows 10"	"60.58"	"147"	n/a	n/a	n/a	n/a	n/a	n/a	"Trial"	n/a	n/a	n/a	"599"	"arrowleft"	n/a	"NULL"	"NULL"	"NULL"	"stimuli/Ebbinghaus_0.35714_0.11071.png"	n/a	"Ebbinghaus"	"arrowleft"	"1456"	"TRUE"	"Ebbinghaus"	"0.3571400000"	"0.1107100000"	"1"	"22"
n/a	"html-keyboard-response"	"61"	"245041"	"0.0-5.0-2.0-0.4"	"hkvkkz"	"600"	"1366"	"chrome"	"109.0.0"	"FALSE"	"Windows 10"	"60.58"	"147"	n/a	n/a	n/a	n/a	n/a	n/a	"fixation"	n/a	n/a	n/a	n/a	"NULL"	n/a	"NULL"	"NULL"	"NULL"	"<p style=\"color: black; font-size: 80px; padding-left: 24%; padding-right: 48%; padding-top: 33%; padding-bottom: 34%\">+</p>"	"1015"	n/a	n/a	n/a	n/a	n/a	n/a	n/a	n/a	n/a
n/a	"image-keyboard-response"	"62"	"246310"	"0.0-5.0-2.0-1.4"	"hkvkkz"	"600"	"1366"	"chrome"	"109.0.0"	"FALSE"	"Windows 10"	"60.58"	"147"	n/a	n/a	n/a	n/a	n/a	n/a	"Trial"	n/a	n/a	n/a	"1268"	"arrowleft"	n/a	"NULL"	"NULL"	"NULL"	"stimuli/Ebbinghaus_-0.1000_-0.11071.png"	n/a	"Ebbinghaus"	"arrowright"	"1024"	"FALSE"	"Ebbinghaus"	"-0.100000000"	"-0.110710000"	"1"	"23"
n/a	"html-keyboard-response"	"63"	"247339"	"0.0-5.0-2.0-0.5"	"hkvkkz"	"600"	"1366"	"chrome"	"109.0.0"	"FALSE"	"Windows 10"	"60.58"	"147"	n/a	n/a	n/a	n/a	n/a	n/a	"fixation"	n/a	n/a	n/a	n/a	"NULL"	n/a	"NULL"	"NULL"	"NULL"	"<p style=\"color: black; font-size: 80px; padding-left: 36%; padding-right: 22%; padding-top: 38%; padding-bottom: 26%\">+</p>"	"1007"	n/a	n/a	n/a	n/a	n/a	n/a	n/a	n/a	n/a
n/a	"image-keyboard-response"	"64"	"248174"	"0.0-5.0-2.0-1.5"	"hkvkkz"	"600"	"1366"	"chrome"	"109.0.0"	"FALSE"	"Windows 10"	"60.58"	"147"	n/a	n/a	n/a	n/a	n/a	n/a	"Trial"	n/a	n/a	n/a	"833"	"arrowleft"	n/a	"NULL"	"NULL"	"NULL"	"stimuli/Ebbinghaus_-0.1000_0.11071.png"	n/a	"Ebbinghaus"	"arrowleft"	"1029"	"TRUE"	"Ebbinghaus"	"-0.100000000"	"0.1107100000"	"1"	"24"
n/a	"html-keyboard-response"	"65"	"249402"	"0.0-5.0-2.0-0.6"	"hkvkkz"	"600"	"1366"	"chrome"	"109.0.0"	"FALSE"	"Windows 10"	"60.58"	"147"	n/a	n/a	n/a	n/a	n/a	n/a	"fixation"	n/a	n/a	n/a	n/a	"NULL"	n/a	"NULL"	"NULL"	"NULL"	"<p style=\"color: black; font-size: 80px; padding-left: 35%; padding-right: 24%; padding-top: 7%; padding-bottom: 35%\">+</p>"	"1215"	n/a	n/a	n/a	n/a	n/a	n/a	n/a	n/a	n/a
n/a	"image-keyboard-response"	"66"	"250201"	"0.0-5.0-2.0-1.6"	"hkvkkz"	"600"	"1366"	"chrome"	"109.0.0"	"FALSE"	"Windows 10"	"60.58"	"147"	n/a	n/a	n/a	n/a	n/a	n/a	"Trial"	n/a	n/a	n/a	"798"	"arrowleft"	n/a	"NULL"	"NULL"	"NULL"	"stimuli/Ebbinghaus_-0.35714_0.21500.png"	n/a	"Ebbinghaus"	"arrowleft"	"1228"	"TRUE"	"Ebbinghaus"	"-0.357140000"	"0.2150000000"	"1"	"25"
n/a	"html-keyboard-response"	"67"	"251714"	"0.0-5.0-2.0-0.7"	"hkvkkz"	"600"	"1366"	"chrome"	"109.0.0"	"FALSE"	"Windows 10"	"60.58"	"147"	n/a	n/a	n/a	n/a	n/a	n/a	"fixation"	n/a	n/a	n/a	n/a	"NULL"	n/a	"NULL"	"NULL"	"NULL"	"<p style=\"color: black; font-size: 80px; padding-left: 2%; padding-right: 6%; padding-top: 34%; padding-bottom: 9%\">+</p>"	"1495"	n/a	n/a	n/a	n/a	n/a	n/a	n/a	n/a	n/a
n/a	"image-keyboard-response"	"68"	"252588"	"0.0-5.0-2.0-1.7"	"hkvkkz"	"600"	"1366"	"chrome"	"109.0.0"	"FALSE"	"Windows 10"	"60.58"	"147"	n/a	n/a	n/a	n/a	n/a	n/a	"Trial"	n/a	n/a	n/a	"873"	"arrowleft"	n/a	"NULL"	"NULL"	"NULL"	"stimuli/Ebbinghaus_-0.87143_0.28000.png"	n/a	"Ebbinghaus"	"arrowleft"	"1513"	"TRUE"	"Ebbinghaus"	"-0.871430000"	"0.2800000000"	"1"	"26"
n/a	"html-keyboard-response"	"69"	"253926"	"0.0-5.0-2.0-0.8"	"hkvkkz"	"600"	"1366"	"chrome"	"109.0.0"	"FALSE"	"Windows 10"	"60.58"	"147"	n/a	n/a	n/a	n/a	n/a	n/a	"fixation"	n/a	n/a	n/a	n/a	"NULL"	n/a	"NULL"	"NULL"	"NULL"	"<p style=\"color: black; font-size: 80px; padding-left: 38%; padding-right: 3%; padding-top: 36%; padding-bottom: 5%\">+</p>"	"1332"	n/a	n/a	n/a	n/a	n/a	n/a	n/a	n/a	n/a
n/a	"image-keyboard-response"	"70"	"254653"	"0.0-5.0-2.0-1.8"	"hkvkkz"	"600"	"1366"	"chrome"	"109.0.0"	"FALSE"	"Windows 10"	"60.58"	"147"	n/a	n/a	n/a	n/a	n/a	n/a	"Trial"	n/a	n/a	n/a	"726"	"arrowleft"	n/a	"NULL"	"NULL"	"NULL"	"stimuli/Ebbinghaus_-0.87143_0.15857.png"	n/a	"Ebbinghaus"	"arrowleft"	"1338"	"TRUE"	"Ebbinghaus"	"-0.871430000"	"0.1585700000"	"1"	"27"
n/a	"html-keyboard-response"	"71"	"255714"	"0.0-5.0-2.0-0.9"	"hkvkkz"	"600"	"1366"	"chrome"	"109.0.0"	"FALSE"	"Windows 10"	"60.58"	"147"	n/a	n/a	n/a	n/a	n/a	n/a	"fixation"	n/a	n/a	n/a	n/a	"NULL"	n/a	"NULL"	"NULL"	"NULL"	"<p style=\"color: black; font-size: 80px; padding-left: 4%; padding-right: 48%; padding-top: 1%; padding-bottom: 30%\">+</p>"	"1041"	n/a	n/a	n/a	n/a	n/a	n/a	n/a	n/a	n/a
n/a	"image-keyboard-response"	"72"	"256404"	"0.0-5.0-2.0-1.9"	"hkvkkz"	"600"	"1366"	"chrome"	"109.0.0"	"FALSE"	"Windows 10"	"60.58"	"147"	n/a	n/a	n/a	n/a	n/a	n/a	"Trial"	n/a	n/a	n/a	"688"	"arrowright"	n/a	"NULL"	"NULL"	"NULL"	"stimuli/Ebbinghaus_-0.1000_-0.2800.png"	n/a	"Ebbinghaus"	"arrowright"	"1061"	"TRUE"	"Ebbinghaus"	"-0.100000000"	"-0.280000000"	"1"	"28"
n/a	"html-keyboard-response"	"73"	"257759"	"0.0-5.0-2.0-0.10"	"hkvkkz"	"600"	"1366"	"chrome"	"109.0.0"	"FALSE"	"Windows 10"	"60.58"	"147"	n/a	n/a	n/a	n/a	n/a	n/a	"fixation"	n/a	n/a	n/a	n/a	"NULL"	n/a	"NULL"	"NULL"	"NULL"	"<p style=\"color: black; font-size: 80px; padding-left: 43%; padding-right: 22%; padding-top: 49%; padding-bottom: 36%\">+</p>"	"1337"	n/a	n/a	n/a	n/a	n/a	n/a	n/a	n/a	n/a
n/a	"image-keyboard-response"	"74"	"258694"	"0.0-5.0-2.0-1.10"	"hkvkkz"	"600"	"1366"	"chrome"	"109.0.0"	"FALSE"	"Windows 10"	"60.58"	"147"	n/a	n/a	n/a	n/a	n/a	n/a	"Trial"	n/a	n/a	n/a	"934"	"arrowright"	n/a	"NULL"	"NULL"	"NULL"	"stimuli/Ebbinghaus_-0.1000_-0.15857.png"	n/a	"Ebbinghaus"	"arrowright"	"1355"	"TRUE"	"Ebbinghaus"	"-0.100000000"	"-0.158570000"	"1"	"29"
n/a	"html-keyboard-response"	"75"	"259976"	"0.0-5.0-2.0-0.11"	"hkvkkz"	"600"	"1366"	"chrome"	"109.0.0"	"FALSE"	"Windows 10"	"60.58"	"147"	n/a	n/a	n/a	n/a	n/a	n/a	"fixation"	n/a	n/a	n/a	n/a	"NULL"	n/a	"NULL"	"NULL"	"NULL"	"<p style=\"color: black; font-size: 80px; padding-left: 27%; padding-right: 43%; padding-top: 29%; padding-bottom: 21%\">+</p>"	"1270"	n/a	n/a	n/a	n/a	n/a	n/a	n/a	n/a	n/a
n/a	"image-keyboard-response"	"76"	"260707"	"0.0-5.0-2.0-1.11"	"hkvkkz"	"600"	"1366"	"chrome"	"109.0.0"	"FALSE"	"Windows 10"	"60.58"	"147"	n/a	n/a	n/a	n/a	n/a	n/a	"Trial"	n/a	n/a	n/a	"730"	"arrowright"	n/a	"NULL"	"NULL"	"NULL"	"stimuli/Ebbinghaus_-0.1000_-0.2150.png"	n/a	"Ebbinghaus"	"arrowright"	"1282"	"TRUE"	"Ebbinghaus"	"-0.100000000"	"-0.215000000"	"1"	"30"
n/a	"html-keyboard-response"	"77"	"261982"	"0.0-5.0-2.0-0.12"	"hkvkkz"	"600"	"1366"	"chrome"	"109.0.0"	"FALSE"	"Windows 10"	"60.58"	"147"	n/a	n/a	n/a	n/a	n/a	n/a	"fixation"	n/a	n/a	n/a	n/a	"NULL"	n/a	"NULL"	"NULL"	"NULL"	"<p style=\"color: black; font-size: 80px; padding-left: 33%; padding-right: 4%; padding-top: 22%; padding-bottom: 22%\">+</p>"	"1265"	n/a	n/a	n/a	n/a	n/a	n/a	n/a	n/a	n/a
n/a	"image-keyboard-response"	"78"	"262727"	"0.0-5.0-2.0-1.12"	"hkvkkz"	"600"	"1366"	"chrome"	"109.0.0"	"FALSE"	"Windows 10"	"60.58"	"147"	n/a	n/a	n/a	n/a	n/a	n/a	"Trial"	n/a	n/a	n/a	"743"	"arrowright"	n/a	"NULL"	"NULL"	"NULL"	"stimuli/Ebbinghaus_0.61429_-0.2800.png"	n/a	"Ebbinghaus"	"arrowright"	"1275"	"TRUE"	"Ebbinghaus"	"0.6142900000"	"-0.280000000"	"1"	"31"
n/a	"html-keyboard-response"	"79"	"263764"	"0.0-5.0-2.0-0.13"	"hkvkkz"	"600"	"1366"	"chrome"	"109.0.0"	"FALSE"	"Windows 10"	"60.58"	"147"	n/a	n/a	n/a	n/a	n/a	n/a	"fixation"	n/a	n/a	n/a	n/a	"NULL"	n/a	"NULL"	"NULL"	"NULL"	"<p style=\"color: black; font-size: 80px; padding-left: 23%; padding-right: 49%; padding-top: 16%; padding-bottom: 36%\">+</p>"	"1013"	n/a	n/a	n/a	n/a	n/a	n/a	n/a	n/a	n/a
n/a	"image-keyboard-response"	"80"	"264355"	"0.0-5.0-2.0-1.13"	"hkvkkz"	"600"	"1366"	"chrome"	"109.0.0"	"FALSE"	"Windows 10"	"60.58"	"147"	n/a	n/a	n/a	n/a	n/a	n/a	"Trial"	n/a	n/a	n/a	"591"	"arrowleft"	n/a	"NULL"	"NULL"	"NULL"	"stimuli/Ebbinghaus_-0.61429_-0.11071.png"	n/a	"Ebbinghaus"	"arrowright"	"1037"	"FALSE"	"Ebbinghaus"	"-0.614290000"	"-0.110710000"	"1"	"32"
n/a	"html-keyboard-response"	"81"	"265383"	"0.0-5.0-2.0-0.14"	"hkvkkz"	"600"	"1366"	"chrome"	"109.0.0"	"FALSE"	"Windows 10"	"60.58"	"147"	n/a	n/a	n/a	n/a	n/a	n/a	"fixation"	n/a	n/a	n/a	n/a	"NULL"	n/a	"NULL"	"NULL"	"NULL"	"<p style=\"color: black; font-size: 80px; padding-left: 10%; padding-right: 5%; padding-top: 41%; padding-bottom: 28%\">+</p>"	"1013"	n/a	n/a	n/a	n/a	n/a	n/a	n/a	n/a	n/a
n/a	"image-keyboard-response"	"82"	"266050"	"0.0-5.0-2.0-1.14"	"hkvkkz"	"600"	"1366"	"chrome"	"109.0.0"	"FALSE"	"Windows 10"	"60.58"	"147"	n/a	n/a	n/a	n/a	n/a	n/a	"Trial"	n/a	n/a	n/a	"666"	"arrowleft"	n/a	"NULL"	"NULL"	"NULL"	"stimuli/Ebbinghaus_-0.61429_0.21500.png"	n/a	"Ebbinghaus"	"arrowleft"	"1028"	"TRUE"	"Ebbinghaus"	"-0.614290000"	"0.2150000000"	"1"	"33"
n/a	"html-keyboard-response"	"83"	"267437"	"0.0-5.0-2.0-0.15"	"hkvkkz"	"600"	"1366"	"chrome"	"109.0.0"	"FALSE"	"Windows 10"	"60.58"	"147"	n/a	n/a	n/a	n/a	n/a	n/a	"fixation"	n/a	n/a	n/a	n/a	"NULL"	n/a	"NULL"	"NULL"	"NULL"	"<p style=\"color: black; font-size: 80px; padding-left: 3%; padding-right: 22%; padding-top: 5%; padding-bottom: 28%\">+</p>"	"1379"	n/a	n/a	n/a	n/a	n/a	n/a	n/a	n/a	n/a
n/a	"image-keyboard-response"	"84"	"268430"	"0.0-5.0-2.0-1.15"	"hkvkkz"	"600"	"1366"	"chrome"	"109.0.0"	"FALSE"	"Windows 10"	"60.58"	"147"	n/a	n/a	n/a	n/a	n/a	n/a	"Trial"	n/a	n/a	n/a	"992"	"arrowleft"	n/a	"NULL"	"NULL"	"NULL"	"stimuli/Ebbinghaus_-0.61429_0.15857.png"	n/a	"Ebbinghaus"	"arrowleft"	"1387"	"TRUE"	"Ebbinghaus"	"-0.614290000"	"0.1585700000"	"1"	"34"
n/a	"html-keyboard-response"	"85"	"269627"	"0.0-5.0-2.0-0.16"	"hkvkkz"	"600"	"1366"	"chrome"	"109.0.0"	"FALSE"	"Windows 10"	"60.58"	"147"	n/a	n/a	n/a	n/a	n/a	n/a	"fixation"	n/a	n/a	n/a	n/a	"NULL"	n/a	"NULL"	"NULL"	"NULL"	"<p style=\"color: black; font-size: 80px; padding-left: 35%; padding-right: 3%; padding-top: 10%; padding-bottom: 27%\">+</p>"	"1175"	n/a	n/a	n/a	n/a	n/a	n/a	n/a	n/a	n/a
n/a	"image-keyboard-response"	"86"	"270520"	"0.0-5.0-2.0-1.16"	"hkvkkz"	"600"	"1366"	"chrome"	"109.0.0"	"FALSE"	"Windows 10"	"60.58"	"147"	n/a	n/a	n/a	n/a	n/a	n/a	"Trial"	n/a	n/a	n/a	"892"	"arrowright"	n/a	"NULL"	"NULL"	"NULL"	"stimuli/Ebbinghaus_0.87143_0.15857.png"	n/a	"Ebbinghaus"	"arrowleft"	"1197"	"FALSE"	"Ebbinghaus"	"0.8714300000"	"0.1585700000"	"1"	"35"
n/a	"html-keyboard-response"	"87"	"271616"	"0.0-5.0-2.0-0.17"	"hkvkkz"	"600"	"1366"	"chrome"	"109.0.0"	"FALSE"	"Windows 10"	"60.58"	"147"	n/a	n/a	n/a	n/a	n/a	n/a	"fixation"	n/a	n/a	n/a	n/a	"NULL"	n/a	"NULL"	"NULL"	"NULL"	"<p style=\"color: black; font-size: 80px; padding-left: 42%; padding-right: 19%; padding-top: 48%; padding-bottom: 35%\">+</p>"	"1089"	n/a	n/a	n/a	n/a	n/a	n/a	n/a	n/a	n/a
n/a	"image-keyboard-response"	"88"	"272281"	"0.0-5.0-2.0-1.17"	"hkvkkz"	"600"	"1366"	"chrome"	"109.0.0"	"FALSE"	"Windows 10"	"60.58"	"147"	n/a	n/a	n/a	n/a	n/a	n/a	"Trial"	n/a	n/a	n/a	"663"	"arrowright"	n/a	"NULL"	"NULL"	"NULL"	"stimuli/Ebbinghaus_-0.35714_-0.15857.png"	n/a	"Ebbinghaus"	"arrowright"	"1096"	"TRUE"	"Ebbinghaus"	"-0.357140000"	"-0.158570000"	"1"	"36"
n/a	"html-keyboard-response"	"89"	"273653"	"0.0-5.0-2.0-0.18"	"hkvkkz"	"600"	"1366"	"chrome"	"109.0.0"	"FALSE"	"Windows 10"	"60.58"	"147"	n/a	n/a	n/a	n/a	n/a	n/a	"fixation"	n/a	n/a	n/a	n/a	"NULL"	n/a	"NULL"	"NULL"	"NULL"	"<p style=\"color: black; font-size: 80px; padding-left: 1%; padding-right: 8%; padding-top: 3%; padding-bottom: 14%\">+</p>"	"1354"	n/a	n/a	n/a	n/a	n/a	n/a	n/a	n/a	n/a
n/a	"image-keyboard-response"	"90"	"274837"	"0.0-5.0-2.0-1.18"	"hkvkkz"	"600"	"1366"	"chrome"	"109.0.0"	"FALSE"	"Windows 10"	"60.58"	"147"	n/a	n/a	n/a	n/a	n/a	n/a	"Trial"	n/a	n/a	n/a	"1183"	"arrowleft"	n/a	"NULL"	"NULL"	"NULL"	"stimuli/Ebbinghaus_0.35714_-0.15857.png"	n/a	"Ebbinghaus"	"arrowright"	"1372"	"FALSE"	"Ebbinghaus"	"0.3571400000"	"-0.158570000"	"1"	"37"
n/a	"html-keyboard-response"	"91"	"275935"	"0.0-5.0-2.0-0.19"	"hkvkkz"	"600"	"1366"	"chrome"	"109.0.0"	"FALSE"	"Windows 10"	"60.58"	"147"	n/a	n/a	n/a	n/a	n/a	n/a	"fixation"	n/a	n/a	n/a	n/a	"NULL"	n/a	"NULL"	"NULL"	"NULL"	"<p style=\"color: black; font-size: 80px; padding-left: 2%; padding-right: 37%; padding-top: 1%; padding-bottom: 17%\">+</p>"	"1082"	n/a	n/a	n/a	n/a	n/a	n/a	n/a	n/a	n/a
n/a	"image-keyboard-response"	"92"	"276622"	"0.0-5.0-2.0-1.19"	"hkvkkz"	"600"	"1366"	"chrome"	"109.0.0"	"FALSE"	"Windows 10"	"60.58"	"147"	n/a	n/a	n/a	n/a	n/a	n/a	"Trial"	n/a	n/a	n/a	"686"	"arrowleft"	n/a	"NULL"	"NULL"	"NULL"	"stimuli/Ebbinghaus_-0.1000_0.21500.png"	n/a	"Ebbinghaus"	"arrowleft"	"1098"	"TRUE"	"Ebbinghaus"	"-0.100000000"	"0.2150000000"	"1"	"38"
n/a	"html-keyboard-response"	"93"	"277804"	"0.0-5.0-2.0-0.20"	"hkvkkz"	"600"	"1366"	"chrome"	"109.0.0"	"FALSE"	"Windows 10"	"60.58"	"147"	n/a	n/a	n/a	n/a	n/a	n/a	"fixation"	n/a	n/a	n/a	n/a	"NULL"	n/a	"NULL"	"NULL"	"NULL"	"<p style=\"color: black; font-size: 80px; padding-left: 36%; padding-right: 13%; padding-top: 44%; padding-bottom: 9%\">+</p>"	"1170"	n/a	n/a	n/a	n/a	n/a	n/a	n/a	n/a	n/a
n/a	"image-keyboard-response"	"94"	"279351"	"0.0-5.0-2.0-1.20"	"hkvkkz"	"600"	"1366"	"chrome"	"109.0.0"	"FALSE"	"Windows 10"	"60.58"	"147"	n/a	n/a	n/a	n/a	n/a	n/a	"Trial"	n/a	n/a	n/a	"1546"	"arrowleft"	n/a	"NULL"	"NULL"	"NULL"	"stimuli/Ebbinghaus_0.61429_0.21500.png"	n/a	"Ebbinghaus"	"arrowleft"	"1182"	"TRUE"	"Ebbinghaus"	"0.6142900000"	"0.2150000000"	"1"	"39"
n/a	"html-keyboard-response"	"95"	"280392"	"0.0-5.0-2.0-0.21"	"hkvkkz"	"600"	"1366"	"chrome"	"109.0.0"	"FALSE"	"Windows 10"	"60.58"	"147"	n/a	n/a	n/a	n/a	n/a	n/a	"fixation"	n/a	n/a	n/a	n/a	"NULL"	n/a	"NULL"	"NULL"	"NULL"	"<p style=\"color: black; font-size: 80px; padding-left: 12%; padding-right: 33%; padding-top: 21%; padding-bottom: 1%\">+</p>"	"1026"	n/a	n/a	n/a	n/a	n/a	n/a	n/a	n/a	n/a
n/a	"image-keyboard-response"	"96"	"281429"	"0.0-5.0-2.0-1.21"	"hkvkkz"	"600"	"1366"	"chrome"	"109.0.0"	"FALSE"	"Windows 10"	"60.58"	"147"	n/a	n/a	n/a	n/a	n/a	n/a	"Trial"	n/a	n/a	n/a	"1036"	"arrowright"	n/a	"NULL"	"NULL"	"NULL"	"stimuli/Ebbinghaus_0.87143_0.11071.png"	n/a	"Ebbinghaus"	"arrowleft"	"1041"	"FALSE"	"Ebbinghaus"	"0.8714300000"	"0.1107100000"	"1"	"40"
n/a	"html-keyboard-response"	"97"	"282616"	"0.0-5.0-2.0-0.22"	"hkvkkz"	"600"	"1366"	"chrome"	"109.0.0"	"FALSE"	"Windows 10"	"60.58"	"147"	n/a	n/a	n/a	n/a	n/a	n/a	"fixation"	n/a	n/a	n/a	n/a	"NULL"	n/a	"NULL"	"NULL"	"NULL"	"<p style=\"color: black; font-size: 80px; padding-left: 8%; padding-right: 21%; padding-top: 28%; padding-bottom: 47%\">+</p>"	"1174"	n/a	n/a	n/a	n/a	n/a	n/a	n/a	n/a	n/a
n/a	"image-keyboard-response"	"98"	"283432"	"0.0-5.0-2.0-1.22"	"hkvkkz"	"600"	"1366"	"chrome"	"109.0.0"	"FALSE"	"Windows 10"	"60.58"	"147"	n/a	n/a	n/a	n/a	n/a	n/a	"Trial"	n/a	n/a	n/a	"804"	"arrowright"	n/a	"NULL"	"NULL"	"NULL"	"stimuli/Ebbinghaus_0.35714_-0.11071.png"	n/a	"Ebbinghaus"	"arrowright"	"1187"	"TRUE"	"Ebbinghaus"	"0.3571400000"	"-0.110710000"	"1"	"41"
n/a	"html-keyboard-response"	"99"	"284642"	"0.0-5.0-2.0-0.23"	"hkvkkz"	"600"	"1366"	"chrome"	"109.0.0"	"FALSE"	"Windows 10"	"60.58"	"147"	n/a	n/a	n/a	n/a	n/a	n/a	"fixation"	n/a	n/a	n/a	n/a	"NULL"	n/a	"NULL"	"NULL"	"NULL"	"<p style=\"color: black; font-size: 80px; padding-left: 7%; padding-right: 17%; padding-top: 8%; padding-bottom: 23%\">+</p>"	"1194"	n/a	n/a	n/a	n/a	n/a	n/a	n/a	n/a	n/a
n/a	"image-keyboard-response"	"100"	"285363"	"0.0-5.0-2.0-1.23"	"hkvkkz"	"600"	"1366"	"chrome"	"109.0.0"	"FALSE"	"Windows 10"	"60.58"	"147"	n/a	n/a	n/a	n/a	n/a	n/a	"Trial"	n/a	n/a	n/a	"719"	"arrowright"	n/a	"NULL"	"NULL"	"NULL"	"stimuli/Ebbinghaus_-0.87143_-0.2800.png"	n/a	"Ebbinghaus"	"arrowright"	"1210"	"TRUE"	"Ebbinghaus"	"-0.871430000"	"-0.280000000"	"1"	"42"
n/a	"html-keyboard-response"	"101"	"286496"	"0.0-5.0-2.0-0.24"	"hkvkkz"	"600"	"1366"	"chrome"	"109.0.0"	"FALSE"	"Windows 10"	"60.58"	"147"	n/a	n/a	n/a	n/a	n/a	n/a	"fixation"	n/a	n/a	n/a	n/a	"NULL"	n/a	"NULL"	"NULL"	"NULL"	"<p style=\"color: black; font-size: 80px; padding-left: 1%; padding-right: 36%; padding-top: 19%; padding-bottom: 50%\">+</p>"	"1124"	n/a	n/a	n/a	n/a	n/a	n/a	n/a	n/a	n/a
n/a	"image-keyboard-response"	"102"	"287432"	"0.0-5.0-2.0-1.24"	"hkvkkz"	"600"	"1366"	"chrome"	"109.0.0"	"FALSE"	"Windows 10"	"60.58"	"147"	n/a	n/a	n/a	n/a	n/a	n/a	"Trial"	n/a	n/a	n/a	"935"	"arrowright"	n/a	"NULL"	"NULL"	"NULL"	"stimuli/Ebbinghaus_0.61429_0.15857.png"	n/a	"Ebbinghaus"	"arrowleft"	"1133"	"FALSE"	"Ebbinghaus"	"0.6142900000"	"0.1585700000"	"1"	"43"
n/a	"html-keyboard-response"	"103"	"288914"	"0.0-5.0-2.0-0.25"	"hkvkkz"	"600"	"1366"	"chrome"	"109.0.0"	"FALSE"	"Windows 10"	"60.58"	"147"	n/a	n/a	n/a	n/a	n/a	n/a	"fixation"	n/a	n/a	n/a	n/a	"NULL"	n/a	"NULL"	"NULL"	"NULL"	"<p style=\"color: black; font-size: 80px; padding-left: 41%; padding-right: 13%; padding-top: 6%; padding-bottom: 15%\">+</p>"	"1469"	n/a	n/a	n/a	n/a	n/a	n/a	n/a	n/a	n/a
n/a	"image-keyboard-response"	"104"	"289978"	"0.0-5.0-2.0-1.25"	"hkvkkz"	"600"	"1366"	"chrome"	"109.0.0"	"FALSE"	"Windows 10"	"60.58"	"147"	n/a	n/a	n/a	n/a	n/a	n/a	"Trial"	n/a	n/a	n/a	"1063"	"arrowleft"	n/a	"NULL"	"NULL"	"NULL"	"stimuli/Ebbinghaus_0.10000_0.21500.png"	n/a	"Ebbinghaus"	"arrowleft"	"1482"	"TRUE"	"Ebbinghaus"	"0.1000000000"	"0.2150000000"	"1"	"44"
n/a	"html-keyboard-response"	"105"	"291380"	"0.0-5.0-2.0-0.26"	"hkvkkz"	"600"	"1366"	"chrome"	"109.0.0"	"FALSE"	"Windows 10"	"60.58"	"147"	n/a	n/a	n/a	n/a	n/a	n/a	"fixation"	n/a	n/a	n/a	n/a	"NULL"	n/a	"NULL"	"NULL"	"NULL"	"<p style=\"color: black; font-size: 80px; padding-left: 2%; padding-right: 2%; padding-top: 38%; padding-bottom: 26%\">+</p>"	"1393"	n/a	n/a	n/a	n/a	n/a	n/a	n/a	n/a	n/a
n/a	"image-keyboard-response"	"106"	"292147"	"0.0-5.0-2.0-1.26"	"hkvkkz"	"600"	"1366"	"chrome"	"109.0.0"	"FALSE"	"Windows 10"	"60.58"	"147"	n/a	n/a	n/a	n/a	n/a	n/a	"Trial"	n/a	n/a	n/a	"765"	"arrowright"	n/a	"NULL"	"NULL"	"NULL"	"stimuli/Ebbinghaus_-0.87143_-0.11071.png"	n/a	"Ebbinghaus"	"arrowright"	"1402"	"TRUE"	"Ebbinghaus"	"-0.871430000"	"-0.110710000"	"1"	"45"
n/a	"html-keyboard-response"	"107"	"293296"	"0.0-5.0-2.0-0.27"	"hkvkkz"	"600"	"1366"	"chrome"	"109.0.0"	"FALSE"	"Windows 10"	"60.58"	"147"	n/a	n/a	n/a	n/a	n/a	n/a	"fixation"	n/a	n/a	n/a	n/a	"NULL"	n/a	"NULL"	"NULL"	"NULL"	"<p style=\"color: black; font-size: 80px; padding-left: 46%; padding-right: 1%; padding-top: 7%; padding-bottom: 5%\">+</p>"	"1133"	n/a	n/a	n/a	n/a	n/a	n/a	n/a	n/a	n/a
n/a	"image-keyboard-response"	"108"	"294050"	"0.0-5.0-2.0-1.27"	"hkvkkz"	"600"	"1366"	"chrome"	"109.0.0"	"FALSE"	"Windows 10"	"60.58"	"147"	n/a	n/a	n/a	n/a	n/a	n/a	"Trial"	n/a	n/a	n/a	"753"	"arrowright"	n/a	"NULL"	"NULL"	"NULL"	"stimuli/Ebbinghaus_0.35714_-0.2800.png"	n/a	"Ebbinghaus"	"arrowright"	"1149"	"TRUE"	"Ebbinghaus"	"0.3571400000"	"-0.280000000"	"1"	"46"
n/a	"html-keyboard-response"	"109"	"295264"	"0.0-5.0-2.0-0.28"	"hkvkkz"	"600"	"1366"	"chrome"	"109.0.0"	"FALSE"	"Windows 10"	"60.58"	"147"	n/a	n/a	n/a	n/a	n/a	n/a	"fixation"	n/a	n/a	n/a	n/a	"NULL"	n/a	"NULL"	"NULL"	"NULL"	"<p style=\"color: black; font-size: 80px; padding-left: 35%; padding-right: 36%; padding-top: 14%; padding-bottom: 49%\">+</p>"	"1197"	n/a	n/a	n/a	n/a	n/a	n/a	n/a	n/a	n/a
n/a	"image-keyboard-response"	"110"	"295998"	"0.0-5.0-2.0-1.28"	"hkvkkz"	"600"	"1366"	"chrome"	"109.0.0"	"FALSE"	"Windows 10"	"60.58"	"147"	n/a	n/a	n/a	n/a	n/a	n/a	"Trial"	n/a	n/a	n/a	"732"	"arrowright"	n/a	"NULL"	"NULL"	"NULL"	"stimuli/Ebbinghaus_-0.87143_-0.2150.png"	n/a	"Ebbinghaus"	"arrowright"	"1214"	"TRUE"	"Ebbinghaus"	"-0.871430000"	"-0.215000000"	"1"	"47"
n/a	"html-keyboard-response"	"111"	"297013"	"0.0-5.0-2.0-0.29"	"hkvkkz"	"600"	"1366"	"chrome"	"109.0.0"	"FALSE"	"Windows 10"	"60.58"	"147"	n/a	n/a	n/a	n/a	n/a	n/a	"fixation"	n/a	n/a	n/a	n/a	"NULL"	n/a	"NULL"	"NULL"	"NULL"	"<p style=\"color: black; font-size: 80px; padding-left: 19%; padding-right: 22%; padding-top: 21%; padding-bottom: 12%\">+</p>"	"1008"	n/a	n/a	n/a	n/a	n/a	n/a	n/a	n/a	n/a
n/a	"image-keyboard-response"	"112"	"298326"	"0.0-5.0-2.0-1.29"	"hkvkkz"	"600"	"1366"	"chrome"	"109.0.0"	"FALSE"	"Windows 10"	"60.58"	"147"	n/a	n/a	n/a	n/a	n/a	n/a	"Trial"	n/a	n/a	n/a	"1310"	"arrowleft"	n/a	"NULL"	"NULL"	"NULL"	"stimuli/Ebbinghaus_-0.61429_0.11071.png"	n/a	"Ebbinghaus"	"arrowleft"	"1015"	"TRUE"	"Ebbinghaus"	"-0.614290000"	"0.1107100000"	"1"	"48"
n/a	"html-keyboard-response"	"113"	"299511"	"0.0-5.0-2.0-0.30"	"hkvkkz"	"600"	"1366"	"chrome"	"109.0.0"	"FALSE"	"Windows 10"	"60.58"	"147"	n/a	n/a	n/a	n/a	n/a	n/a	"fixation"	n/a	n/a	n/a	n/a	"NULL"	n/a	"NULL"	"NULL"	"NULL"	"<p style=\"color: black; font-size: 80px; padding-left: 28%; padding-right: 5%; padding-top: 15%; padding-bottom: 21%\">+</p>"	"1177"	n/a	n/a	n/a	n/a	n/a	n/a	n/a	n/a	n/a
n/a	"image-keyboard-response"	"114"	"300286"	"0.0-5.0-2.0-1.30"	"hkvkkz"	"600"	"1366"	"chrome"	"109.0.0"	"FALSE"	"Windows 10"	"60.58"	"147"	n/a	n/a	n/a	n/a	n/a	n/a	"Trial"	n/a	n/a	n/a	"773"	"arrowleft"	n/a	"NULL"	"NULL"	"NULL"	"stimuli/Ebbinghaus_-0.1000_0.28000.png"	n/a	"Ebbinghaus"	"arrowleft"	"1185"	"TRUE"	"Ebbinghaus"	"-0.100000000"	"0.2800000000"	"1"	"49"
n/a	"html-keyboard-response"	"115"	"301448"	"0.0-5.0-2.0-0.31"	"hkvkkz"	"600"	"1366"	"chrome"	"109.0.0"	"FALSE"	"Windows 10"	"60.58"	"147"	n/a	n/a	n/a	n/a	n/a	n/a	"fixation"	n/a	n/a	n/a	n/a	"NULL"	n/a	"NULL"	"NULL"	"NULL"	"<p style=\"color: black; font-size: 80px; padding-left: 36%; padding-right: 5%; padding-top: 1%; padding-bottom: 33%\">+</p>"	"1148"	n/a	n/a	n/a	n/a	n/a	n/a	n/a	n/a	n/a
n/a	"image-keyboard-response"	"116"	"302213"	"0.0-5.0-2.0-1.31"	"hkvkkz"	"600"	"1366"	"chrome"	"109.0.0"	"FALSE"	"Windows 10"	"60.58"	"147"	n/a	n/a	n/a	n/a	n/a	n/a	"Trial"	n/a	n/a	n/a	"764"	"arrowright"	n/a	"NULL"	"NULL"	"NULL"	"stimuli/Ebbinghaus_0.61429_0.11071.png"	n/a	"Ebbinghaus"	"arrowleft"	"1162"	"FALSE"	"Ebbinghaus"	"0.6142900000"	"0.1107100000"	"1"	"50"
n/a	"html-keyboard-response"	"117"	"303576"	"0.0-5.0-2.0-0.32"	"hkvkkz"	"600"	"1366"	"chrome"	"109.0.0"	"FALSE"	"Windows 10"	"60.58"	"147"	n/a	n/a	n/a	n/a	n/a	n/a	"fixation"	n/a	n/a	n/a	n/a	"NULL"	n/a	"NULL"	"NULL"	"NULL"	"<p style=\"color: black; font-size: 80px; padding-left: 44%; padding-right: 37%; padding-top: 5%; padding-bottom: 17%\">+</p>"	"1341"	n/a	n/a	n/a	n/a	n/a	n/a	n/a	n/a	n/a
n/a	"image-keyboard-response"	"118"	"304169"	"0.0-5.0-2.0-1.32"	"hkvkkz"	"600"	"1366"	"chrome"	"109.0.0"	"FALSE"	"Windows 10"	"60.58"	"147"	n/a	n/a	n/a	n/a	n/a	n/a	"Trial"	n/a	n/a	n/a	"592"	"arrowright"	n/a	"NULL"	"NULL"	"NULL"	"stimuli/Ebbinghaus_0.87143_-0.15857.png"	n/a	"Ebbinghaus"	"arrowright"	"1363"	"TRUE"	"Ebbinghaus"	"0.8714300000"	"-0.158570000"	"1"	"51"
n/a	"html-keyboard-response"	"119"	"305231"	"0.0-5.0-2.0-0.33"	"hkvkkz"	"600"	"1366"	"chrome"	"109.0.0"	"FALSE"	"Windows 10"	"60.58"	"147"	n/a	n/a	n/a	n/a	n/a	n/a	"fixation"	n/a	n/a	n/a	n/a	"NULL"	n/a	"NULL"	"NULL"	"NULL"	"<p style=\"color: black; font-size: 80px; padding-left: 35%; padding-right: 39%; padding-top: 23%; padding-bottom: 36%\">+</p>"	"1051"	n/a	n/a	n/a	n/a	n/a	n/a	n/a	n/a	n/a
n/a	"image-keyboard-response"	"120"	"306362"	"0.0-5.0-2.0-1.33"	"hkvkkz"	"600"	"1366"	"chrome"	"109.0.0"	"FALSE"	"Windows 10"	"60.58"	"147"	n/a	n/a	n/a	n/a	n/a	n/a	"Trial"	n/a	n/a	n/a	"1129"	"arrowleft"	n/a	"NULL"	"NULL"	"NULL"	"stimuli/Ebbinghaus_0.35714_0.28000.png"	n/a	"Ebbinghaus"	"arrowleft"	"1062"	"TRUE"	"Ebbinghaus"	"0.3571400000"	"0.2800000000"	"1"	"52"
n/a	"html-keyboard-response"	"121"	"307845"	"0.0-5.0-2.0-0.34"	"hkvkkz"	"600"	"1366"	"chrome"	"109.0.0"	"FALSE"	"Windows 10"	"60.58"	"147"	n/a	n/a	n/a	n/a	n/a	n/a	"fixation"	n/a	n/a	n/a	n/a	"NULL"	n/a	"NULL"	"NULL"	"NULL"	"<p style=\"color: black; font-size: 80px; padding-left: 1%; padding-right: 6%; padding-top: 28%; padding-bottom: 27%\">+</p>"	"1469"	n/a	n/a	n/a	n/a	n/a	n/a	n/a	n/a	n/a
n/a	"image-keyboard-response"	"122"	"308393"	"0.0-5.0-2.0-1.34"	"hkvkkz"	"600"	"1366"	"chrome"	"109.0.0"	"FALSE"	"Windows 10"	"60.58"	"147"	n/a	n/a	n/a	n/a	n/a	n/a	"Trial"	n/a	n/a	n/a	"546"	"arrowright"	n/a	"NULL"	"NULL"	"NULL"	"stimuli/Ebbinghaus_0.61429_-0.2150.png"	n/a	"Ebbinghaus"	"arrowright"	"1483"	"TRUE"	"Ebbinghaus"	"0.6142900000"	"-0.215000000"	"1"	"53"
n/a	"html-keyboard-response"	"123"	"309512"	"0.0-5.0-2.0-0.35"	"hkvkkz"	"600"	"1366"	"chrome"	"109.0.0"	"FALSE"	"Windows 10"	"60.58"	"147"	n/a	n/a	n/a	n/a	n/a	n/a	"fixation"	n/a	n/a	n/a	n/a	"NULL"	n/a	"NULL"	"NULL"	"NULL"	"<p style=\"color: black; font-size: 80px; padding-left: 30%; padding-right: 24%; padding-top: 23%; padding-bottom: 16%\">+</p>"	"1100"	n/a	n/a	n/a	n/a	n/a	n/a	n/a	n/a	n/a
n/a	"image-keyboard-response"	"124"	"310709"	"0.0-5.0-2.0-1.35"	"hkvkkz"	"600"	"1366"	"chrome"	"109.0.0"	"FALSE"	"Windows 10"	"60.58"	"147"	n/a	n/a	n/a	n/a	n/a	n/a	"Trial"	n/a	n/a	n/a	"1195"	"arrowleft"	n/a	"NULL"	"NULL"	"NULL"	"stimuli/Ebbinghaus_0.87143_-0.11071.png"	n/a	"Ebbinghaus"	"arrowright"	"1119"	"FALSE"	"Ebbinghaus"	"0.8714300000"	"-0.110710000"	"1"	"54"
n/a	"html-keyboard-response"	"125"	"311869"	"0.0-5.0-2.0-0.36"	"hkvkkz"	"600"	"1366"	"chrome"	"109.0.0"	"FALSE"	"Windows 10"	"60.58"	"147"	n/a	n/a	n/a	n/a	n/a	n/a	"fixation"	n/a	n/a	n/a	n/a	"NULL"	n/a	"NULL"	"NULL"	"NULL"	"<p style=\"color: black; font-size: 80px; padding-left: 5%; padding-right: 35%; padding-top: 32%; padding-bottom: 47%\">+</p>"	"1149"	n/a	n/a	n/a	n/a	n/a	n/a	n/a	n/a	n/a
n/a	"image-keyboard-response"	"126"	"312515"	"0.0-5.0-2.0-1.36"	"hkvkkz"	"600"	"1366"	"chrome"	"109.0.0"	"FALSE"	"Windows 10"	"60.58"	"147"	n/a	n/a	n/a	n/a	n/a	n/a	"Trial"	n/a	n/a	n/a	"644"	"arrowright"	n/a	"NULL"	"NULL"	"NULL"	"stimuli/Ebbinghaus_-0.61429_-0.2800.png"	n/a	"Ebbinghaus"	"arrowright"	"1160"	"TRUE"	"Ebbinghaus"	"-0.614290000"	"-0.280000000"	"1"	"55"
n/a	"html-keyboard-response"	"127"	"313715"	"0.0-5.0-2.0-0.37"	"hkvkkz"	"600"	"1366"	"chrome"	"109.0.0"	"FALSE"	"Windows 10"	"60.58"	"147"	n/a	n/a	n/a	n/a	n/a	n/a	"fixation"	n/a	n/a	n/a	n/a	"NULL"	n/a	"NULL"	"NULL"	"NULL"	"<p style=\"color: black; font-size: 80px; padding-left: 48%; padding-right: 8%; padding-top: 3%; padding-bottom: 37%\">+</p>"	"1187"	n/a	n/a	n/a	n/a	n/a	n/a	n/a	n/a	n/a
n/a	"image-keyboard-response"	"128"	"314383"	"0.0-5.0-2.0-1.37"	"hkvkkz"	"600"	"1366"	"chrome"	"109.0.0"	"FALSE"	"Windows 10"	"60.58"	"147"	n/a	n/a	n/a	n/a	n/a	n/a	"Trial"	n/a	n/a	n/a	"665"	"arrowright"	n/a	"NULL"	"NULL"	"NULL"	"stimuli/Ebbinghaus_-0.61429_-0.15857.png"	n/a	"Ebbinghaus"	"arrowright"	"1200"	"TRUE"	"Ebbinghaus"	"-0.614290000"	"-0.158570000"	"1"	"56"
n/a	"html-keyboard-response"	"129"	"315505"	"0.0-5.0-2.0-0.38"	"hkvkkz"	"600"	"1366"	"chrome"	"109.0.0"	"FALSE"	"Windows 10"	"60.58"	"147"	n/a	n/a	n/a	n/a	n/a	n/a	"fixation"	n/a	n/a	n/a	n/a	"NULL"	n/a	"NULL"	"NULL"	"NULL"	"<p style=\"color: black; font-size: 80px; padding-left: 2%; padding-right: 24%; padding-top: 2%; padding-bottom: 38%\">+</p>"	"1109"	n/a	n/a	n/a	n/a	n/a	n/a	n/a	n/a	n/a
n/a	"image-keyboard-response"	"130"	"316577"	"0.0-5.0-2.0-1.38"	"hkvkkz"	"600"	"1366"	"chrome"	"109.0.0"	"FALSE"	"Windows 10"	"60.58"	"147"	n/a	n/a	n/a	n/a	n/a	n/a	"Trial"	n/a	n/a	n/a	"1068"	"arrowright"	n/a	"NULL"	"NULL"	"NULL"	"stimuli/Ebbinghaus_0.87143_-0.2150.png"	n/a	"Ebbinghaus"	"arrowright"	"1122"	"TRUE"	"Ebbinghaus"	"0.8714300000"	"-0.215000000"	"1"	"57"
n/a	"html-keyboard-response"	"131"	"317930"	"0.0-5.0-2.0-0.39"	"hkvkkz"	"600"	"1366"	"chrome"	"109.0.0"	"FALSE"	"Windows 10"	"60.58"	"147"	n/a	n/a	n/a	n/a	n/a	n/a	"fixation"	n/a	n/a	n/a	n/a	"NULL"	n/a	"NULL"	"NULL"	"NULL"	"<p style=\"color: black; font-size: 80px; padding-left: 15%; padding-right: 35%; padding-top: 25%; padding-bottom: 17%\">+</p>"	"1341"	n/a	n/a	n/a	n/a	n/a	n/a	n/a	n/a	n/a
n/a	"image-keyboard-response"	"132"	"318497"	"0.0-5.0-2.0-1.39"	"hkvkkz"	"600"	"1366"	"chrome"	"109.0.0"	"FALSE"	"Windows 10"	"60.58"	"147"	n/a	n/a	n/a	n/a	n/a	n/a	"Trial"	n/a	n/a	n/a	"565"	"arrowright"	n/a	"NULL"	"NULL"	"NULL"	"stimuli/Ebbinghaus_0.35714_-0.2150.png"	n/a	"Ebbinghaus"	"arrowright"	"1353"	"TRUE"	"Ebbinghaus"	"0.3571400000"	"-0.215000000"	"1"	"58"
n/a	"html-keyboard-response"	"133"	"319538"	"0.0-5.0-2.0-0.40"	"hkvkkz"	"600"	"1366"	"chrome"	"109.0.0"	"FALSE"	"Windows 10"	"60.58"	"147"	n/a	n/a	n/a	n/a	n/a	n/a	"fixation"	n/a	n/a	n/a	n/a	"NULL"	n/a	"NULL"	"NULL"	"NULL"	"<p style=\"color: black; font-size: 80px; padding-left: 22%; padding-right: 17%; padding-top: 15%; padding-bottom: 6%\">+</p>"	"1025"	n/a	n/a	n/a	n/a	n/a	n/a	n/a	n/a	n/a
n/a	"image-keyboard-response"	"134"	"320230"	"0.0-5.0-2.0-1.40"	"hkvkkz"	"600"	"1366"	"chrome"	"109.0.0"	"FALSE"	"Windows 10"	"60.58"	"147"	n/a	n/a	n/a	n/a	n/a	n/a	"Trial"	n/a	n/a	n/a	"689"	"arrowright"	n/a	"NULL"	"NULL"	"NULL"	"stimuli/Ebbinghaus_-0.35714_-0.2150.png"	n/a	"Ebbinghaus"	"arrowright"	"1041"	"TRUE"	"Ebbinghaus"	"-0.357140000"	"-0.215000000"	"1"	"59"
n/a	"html-keyboard-response"	"135"	"321670"	"0.0-5.0-2.0-0.41"	"hkvkkz"	"600"	"1366"	"chrome"	"109.0.0"	"FALSE"	"Windows 10"	"60.58"	"147"	n/a	n/a	n/a	n/a	n/a	n/a	"fixation"	n/a	n/a	n/a	n/a	"NULL"	n/a	"NULL"	"NULL"	"NULL"	"<p style=\"color: black; font-size: 80px; padding-left: 14%; padding-right: 36%; padding-top: 44%; padding-bottom: 29%\">+</p>"	"1424"	n/a	n/a	n/a	n/a	n/a	n/a	n/a	n/a	n/a
n/a	"image-keyboard-response"	"136"	"322403"	"0.0-5.0-2.0-1.41"	"hkvkkz"	"600"	"1366"	"chrome"	"109.0.0"	"FALSE"	"Windows 10"	"60.58"	"147"	n/a	n/a	n/a	n/a	n/a	n/a	"Trial"	n/a	n/a	n/a	"732"	"arrowright"	n/a	"NULL"	"NULL"	"NULL"	"stimuli/Ebbinghaus_-0.35714_-0.2800.png"	n/a	"Ebbinghaus"	"arrowright"	"1440"	"TRUE"	"Ebbinghaus"	"-0.357140000"	"-0.280000000"	"1"	"60"
n/a	"html-keyboard-response"	"137"	"323464"	"0.0-5.0-2.0-0.42"	"hkvkkz"	"600"	"1366"	"chrome"	"109.0.0"	"FALSE"	"Windows 10"	"60.58"	"147"	n/a	n/a	n/a	n/a	n/a	n/a	"fixation"	n/a	n/a	n/a	n/a	"NULL"	n/a	"NULL"	"NULL"	"NULL"	"<p style=\"color: black; font-size: 80px; padding-left: 15%; padding-right: 19%; padding-top: 45%; padding-bottom: 5%\">+</p>"	"1041"	n/a	n/a	n/a	n/a	n/a	n/a	n/a	n/a	n/a
n/a	"image-keyboard-response"	"138"	"324422"	"0.0-5.0-2.0-1.42"	"hkvkkz"	"600"	"1366"	"chrome"	"109.0.0"	"FALSE"	"Windows 10"	"60.58"	"147"	n/a	n/a	n/a	n/a	n/a	n/a	"Trial"	n/a	n/a	n/a	"952"	"arrowleft"	n/a	"NULL"	"NULL"	"NULL"	"stimuli/Ebbinghaus_-0.35714_0.15857.png"	n/a	"Ebbinghaus"	"arrowleft"	"1061"	"TRUE"	"Ebbinghaus"	"-0.357140000"	"0.1585700000"	"1"	"61"
n/a	"html-keyboard-response"	"139"	"325808"	"0.0-5.0-2.0-0.43"	"hkvkkz"	"600"	"1366"	"chrome"	"109.0.0"	"FALSE"	"Windows 10"	"60.58"	"147"	n/a	n/a	n/a	n/a	n/a	n/a	"fixation"	n/a	n/a	n/a	n/a	"NULL"	n/a	"NULL"	"NULL"	"NULL"	"<p style=\"color: black; font-size: 80px; padding-left: 1%; padding-right: 28%; padding-top: 23%; padding-bottom: 32%\">+</p>"	"1371"	n/a	n/a	n/a	n/a	n/a	n/a	n/a	n/a	n/a
n/a	"image-keyboard-response"	"140"	"326517"	"0.0-5.0-2.0-1.43"	"hkvkkz"	"600"	"1366"	"chrome"	"109.0.0"	"FALSE"	"Windows 10"	"60.58"	"147"	n/a	n/a	n/a	n/a	n/a	n/a	"Trial"	n/a	n/a	n/a	"707"	"arrowleft"	n/a	"NULL"	"NULL"	"NULL"	"stimuli/Ebbinghaus_-0.35714_0.28000.png"	n/a	"Ebbinghaus"	"arrowleft"	"1386"	"TRUE"	"Ebbinghaus"	"-0.357140000"	"0.2800000000"	"1"	"62"
n/a	"html-keyboard-response"	"141"	"327992"	"0.0-5.0-2.0-0.44"	"hkvkkz"	"600"	"1366"	"chrome"	"109.0.0"	"FALSE"	"Windows 10"	"60.58"	"147"	n/a	n/a	n/a	n/a	n/a	n/a	"fixation"	n/a	n/a	n/a	n/a	"NULL"	n/a	"NULL"	"NULL"	"NULL"	"<p style=\"color: black; font-size: 80px; padding-left: 17%; padding-right: 2%; padding-top: 25%; padding-bottom: 22%\">+</p>"	"1460"	n/a	n/a	n/a	n/a	n/a	n/a	n/a	n/a	n/a
n/a	"image-keyboard-response"	"142"	"328678"	"0.0-5.0-2.0-1.44"	"hkvkkz"	"600"	"1366"	"chrome"	"109.0.0"	"FALSE"	"Windows 10"	"60.58"	"147"	n/a	n/a	n/a	n/a	n/a	n/a	"Trial"	n/a	n/a	n/a	"684"	"arrowright"	n/a	"NULL"	"NULL"	"NULL"	"stimuli/Ebbinghaus_-0.61429_-0.2150.png"	n/a	"Ebbinghaus"	"arrowright"	"1475"	"TRUE"	"Ebbinghaus"	"-0.614290000"	"-0.215000000"	"1"	"63"
n/a	"html-keyboard-response"	"143"	"330181"	"0.0-5.0-2.0-0.45"	"hkvkkz"	"600"	"1366"	"chrome"	"109.0.0"	"FALSE"	"Windows 10"	"60.58"	"147"	n/a	n/a	n/a	n/a	n/a	n/a	"fixation"	n/a	n/a	n/a	n/a	"NULL"	n/a	"NULL"	"NULL"	"NULL"	"<p style=\"color: black; font-size: 80px; padding-left: 20%; padding-right: 16%; padding-top: 14%; padding-bottom: 1%\">+</p>"	"1492"	n/a	n/a	n/a	n/a	n/a	n/a	n/a	n/a	n/a
n/a	"image-keyboard-response"	"144"	"331509"	"0.0-5.0-2.0-1.45"	"hkvkkz"	"600"	"1366"	"chrome"	"109.0.0"	"FALSE"	"Windows 10"	"60.58"	"147"	n/a	n/a	n/a	n/a	n/a	n/a	"Trial"	n/a	n/a	n/a	"1325"	"arrowright"	n/a	"NULL"	"NULL"	"NULL"	"stimuli/Ebbinghaus_0.61429_0.28000.png"	n/a	"Ebbinghaus"	"arrowleft"	"1503"	"FALSE"	"Ebbinghaus"	"0.6142900000"	"0.2800000000"	"1"	"64"
n/a	"html-keyboard-response"	"145"	"332747"	"0.0-5.0-2.0-0.46"	"hkvkkz"	"600"	"1366"	"chrome"	"109.0.0"	"FALSE"	"Windows 10"	"60.58"	"147"	n/a	n/a	n/a	n/a	n/a	n/a	"fixation"	n/a	n/a	n/a	n/a	"NULL"	n/a	"NULL"	"NULL"	"NULL"	"<p style=\"color: black; font-size: 80px; padding-left: 30%; padding-right: 17%; padding-top: 38%; padding-bottom: 14%\">+</p>"	"1222"	n/a	n/a	n/a	n/a	n/a	n/a	n/a	n/a	n/a
n/a	"image-keyboard-response"	"146"	"334109"	"0.0-5.0-2.0-1.46"	"hkvkkz"	"600"	"1366"	"chrome"	"109.0.0"	"FALSE"	"Windows 10"	"60.58"	"147"	n/a	n/a	n/a	n/a	n/a	n/a	"Trial"	n/a	n/a	n/a	"1360"	"arrowright"	n/a	"NULL"	"NULL"	"NULL"	"stimuli/Ebbinghaus_0.87143_-0.2800.png"	n/a	"Ebbinghaus"	"arrowright"	"1238"	"TRUE"	"Ebbinghaus"	"0.8714300000"	"-0.280000000"	"1"	"65"
n/a	"html-keyboard-response"	"147"	"335527"	"0.0-5.0-2.0-0.47"	"hkvkkz"	"600"	"1366"	"chrome"	"109.0.0"	"FALSE"	"Windows 10"	"60.58"	"147"	n/a	n/a	n/a	n/a	n/a	n/a	"fixation"	n/a	n/a	n/a	n/a	"NULL"	n/a	"NULL"	"NULL"	"NULL"	"<p style=\"color: black; font-size: 80px; padding-left: 36%; padding-right: 8%; padding-top: 33%; padding-bottom: 17%\">+</p>"	"1407"	n/a	n/a	n/a	n/a	n/a	n/a	n/a	n/a	n/a
n/a	"image-keyboard-response"	"148"	"336401"	"0.0-5.0-2.0-1.47"	"hkvkkz"	"600"	"1366"	"chrome"	"109.0.0"	"FALSE"	"Windows 10"	"60.58"	"147"	n/a	n/a	n/a	n/a	n/a	n/a	"Trial"	n/a	n/a	n/a	"871"	"arrowright"	n/a	"NULL"	"NULL"	"NULL"	"stimuli/Ebbinghaus_0.10000_-0.2150.png"	n/a	"Ebbinghaus"	"arrowright"	"1418"	"TRUE"	"Ebbinghaus"	"0.1000000000"	"-0.215000000"	"1"	"66"
n/a	"html-keyboard-response"	"149"	"337654"	"0.0-5.0-2.0-0.48"	"hkvkkz"	"600"	"1366"	"chrome"	"109.0.0"	"FALSE"	"Windows 10"	"60.58"	"147"	n/a	n/a	n/a	n/a	n/a	n/a	"fixation"	n/a	n/a	n/a	n/a	"NULL"	n/a	"NULL"	"NULL"	"NULL"	"<p style=\"color: black; font-size: 80px; padding-left: 24%; padding-right: 6%; padding-top: 3%; padding-bottom: 13%\">+</p>"	"1238"	n/a	n/a	n/a	n/a	n/a	n/a	n/a	n/a	n/a
n/a	"image-keyboard-response"	"150"	"338417"	"0.0-5.0-2.0-1.48"	"hkvkkz"	"600"	"1366"	"chrome"	"109.0.0"	"FALSE"	"Windows 10"	"60.58"	"147"	n/a	n/a	n/a	n/a	n/a	n/a	"Trial"	n/a	n/a	n/a	"761"	"arrowleft"	n/a	"NULL"	"NULL"	"NULL"	"stimuli/Ebbinghaus_-0.35714_0.11071.png"	n/a	"Ebbinghaus"	"arrowleft"	"1253"	"TRUE"	"Ebbinghaus"	"-0.357140000"	"0.1107100000"	"1"	"67"
n/a	"html-keyboard-response"	"151"	"339929"	"0.0-5.0-2.0-0.49"	"hkvkkz"	"600"	"1366"	"chrome"	"109.0.0"	"FALSE"	"Windows 10"	"60.58"	"147"	n/a	n/a	n/a	n/a	n/a	n/a	"fixation"	n/a	n/a	n/a	n/a	"NULL"	n/a	"NULL"	"NULL"	"NULL"	"<p style=\"color: black; font-size: 80px; padding-left: 4%; padding-right: 41%; padding-top: 11%; padding-bottom: 43%\">+</p>"	"1499"	n/a	n/a	n/a	n/a	n/a	n/a	n/a	n/a	n/a
n/a	"image-keyboard-response"	"152"	"340818"	"0.0-5.0-2.0-1.49"	"hkvkkz"	"600"	"1366"	"chrome"	"109.0.0"	"FALSE"	"Windows 10"	"60.58"	"147"	n/a	n/a	n/a	n/a	n/a	n/a	"Trial"	n/a	n/a	n/a	"888"	"arrowleft"	n/a	"NULL"	"NULL"	"NULL"	"stimuli/Ebbinghaus_-0.35714_-0.11071.png"	n/a	"Ebbinghaus"	"arrowright"	"1512"	"FALSE"	"Ebbinghaus"	"-0.357140000"	"-0.110710000"	"1"	"68"
n/a	"html-keyboard-response"	"153"	"341900"	"0.0-5.0-2.0-0.50"	"hkvkkz"	"600"	"1366"	"chrome"	"109.0.0"	"FALSE"	"Windows 10"	"60.58"	"147"	n/a	n/a	n/a	n/a	n/a	n/a	"fixation"	n/a	n/a	n/a	n/a	"NULL"	n/a	"NULL"	"NULL"	"NULL"	"<p style=\"color: black; font-size: 80px; padding-left: 33%; padding-right: 31%; padding-top: 18%; padding-bottom: 28%\">+</p>"	"1066"	n/a	n/a	n/a	n/a	n/a	n/a	n/a	n/a	n/a
n/a	"image-keyboard-response"	"154"	"343045"	"0.0-5.0-2.0-1.50"	"hkvkkz"	"600"	"1366"	"chrome"	"109.0.0"	"FALSE"	"Windows 10"	"60.58"	"147"	n/a	n/a	n/a	n/a	n/a	n/a	"Trial"	n/a	n/a	n/a	"1143"	"arrowleft"	n/a	"NULL"	"NULL"	"NULL"	"stimuli/Ebbinghaus_-0.87143_0.11071.png"	n/a	"Ebbinghaus"	"arrowleft"	"1082"	"TRUE"	"Ebbinghaus"	"-0.871430000"	"0.1107100000"	"1"	"69"
n/a	"html-keyboard-response"	"155"	"344451"	"0.0-5.0-2.0-0.51"	"hkvkkz"	"600"	"1366"	"chrome"	"109.0.0"	"FALSE"	"Windows 10"	"60.58"	"147"	n/a	n/a	n/a	n/a	n/a	n/a	"fixation"	n/a	n/a	n/a	n/a	"NULL"	n/a	"NULL"	"NULL"	"NULL"	"<p style=\"color: black; font-size: 80px; padding-left: 33%; padding-right: 42%; padding-top: 17%; padding-bottom: 25%\">+</p>"	"1387"	n/a	n/a	n/a	n/a	n/a	n/a	n/a	n/a	n/a
n/a	"image-keyboard-response"	"156"	"346492"	"0.0-5.0-2.0-1.51"	"hkvkkz"	"600"	"1366"	"chrome"	"109.0.0"	"FALSE"	"Windows 10"	"60.58"	"147"	n/a	n/a	n/a	n/a	n/a	n/a	"Trial"	n/a	n/a	n/a	"2040"	"arrowleft"	n/a	"NULL"	"NULL"	"NULL"	"stimuli/Ebbinghaus_0.61429_-0.15857.png"	n/a	"Ebbinghaus"	"arrowright"	"1406"	"FALSE"	"Ebbinghaus"	"0.6142900000"	"-0.158570000"	"1"	"70"
n/a	"html-keyboard-response"	"157"	"347885"	"0.0-5.0-2.0-0.52"	"hkvkkz"	"600"	"1366"	"chrome"	"109.0.0"	"FALSE"	"Windows 10"	"60.58"	"147"	n/a	n/a	n/a	n/a	n/a	n/a	"fixation"	n/a	n/a	n/a	n/a	"NULL"	n/a	"NULL"	"NULL"	"NULL"	"<p style=\"color: black; font-size: 80px; padding-left: 35%; padding-right: 35%; padding-top: 37%; padding-bottom: 47%\">+</p>"	"1386"	n/a	n/a	n/a	n/a	n/a	n/a	n/a	n/a	n/a
n/a	"image-keyboard-response"	"158"	"348550"	"0.0-5.0-2.0-1.52"	"hkvkkz"	"600"	"1366"	"chrome"	"109.0.0"	"FALSE"	"Windows 10"	"60.58"	"147"	n/a	n/a	n/a	n/a	n/a	n/a	"Trial"	n/a	n/a	n/a	"663"	"arrowright"	n/a	"NULL"	"NULL"	"NULL"	"stimuli/Ebbinghaus_0.10000_-0.2800.png"	n/a	"Ebbinghaus"	"arrowright"	"1393"	"TRUE"	"Ebbinghaus"	"0.1000000000"	"-0.280000000"	"1"	"71"
n/a	"html-keyboard-response"	"159"	"350054"	"0.0-5.0-2.0-0.53"	"hkvkkz"	"600"	"1366"	"chrome"	"109.0.0"	"FALSE"	"Windows 10"	"60.58"	"147"	n/a	n/a	n/a	n/a	n/a	n/a	"fixation"	n/a	n/a	n/a	n/a	"NULL"	n/a	"NULL"	"NULL"	"NULL"	"<p style=\"color: black; font-size: 80px; padding-left: 29%; padding-right: 14%; padding-top: 10%; padding-bottom: 3%\">+</p>"	"1489"	n/a	n/a	n/a	n/a	n/a	n/a	n/a	n/a	n/a
n/a	"image-keyboard-response"	"160"	"351340"	"0.0-5.0-2.0-1.53"	"hkvkkz"	"600"	"1366"	"chrome"	"109.0.0"	"FALSE"	"Windows 10"	"60.58"	"147"	n/a	n/a	n/a	n/a	n/a	n/a	"Trial"	n/a	n/a	n/a	"1284"	"arrowleft"	n/a	"NULL"	"NULL"	"NULL"	"stimuli/Ebbinghaus_0.87143_0.28000.png"	n/a	"Ebbinghaus"	"arrowleft"	"1504"	"TRUE"	"Ebbinghaus"	"0.8714300000"	"0.2800000000"	"1"	"72"
n/a	"html-keyboard-response"	"161"	"352498"	"0.0-5.0-2.0-0.54"	"hkvkkz"	"600"	"1366"	"chrome"	"109.0.0"	"FALSE"	"Windows 10"	"60.58"	"147"	n/a	n/a	n/a	n/a	n/a	n/a	"fixation"	n/a	n/a	n/a	n/a	"NULL"	n/a	"NULL"	"NULL"	"NULL"	"<p style=\"color: black; font-size: 80px; padding-left: 33%; padding-right: 18%; padding-top: 8%; padding-bottom: 40%\">+</p>"	"1149"	n/a	n/a	n/a	n/a	n/a	n/a	n/a	n/a	n/a
n/a	"image-keyboard-response"	"162"	"353320"	"0.0-5.0-2.0-1.54"	"hkvkkz"	"600"	"1366"	"chrome"	"109.0.0"	"FALSE"	"Windows 10"	"60.58"	"147"	n/a	n/a	n/a	n/a	n/a	n/a	"Trial"	n/a	n/a	n/a	"820"	"arrowleft"	n/a	"NULL"	"NULL"	"NULL"	"stimuli/Ebbinghaus_0.87143_0.21500.png"	n/a	"Ebbinghaus"	"arrowleft"	"1158"	"TRUE"	"Ebbinghaus"	"0.8714300000"	"0.2150000000"	"1"	"73"
n/a	"html-keyboard-response"	"163"	"354699"	"0.0-5.0-2.0-0.55"	"hkvkkz"	"600"	"1366"	"chrome"	"109.0.0"	"FALSE"	"Windows 10"	"60.58"	"147"	n/a	n/a	n/a	n/a	n/a	n/a	"fixation"	n/a	n/a	n/a	n/a	"NULL"	n/a	"NULL"	"NULL"	"NULL"	"<p style=\"color: black; font-size: 80px; padding-left: 12%; padding-right: 24%; padding-top: 34%; padding-bottom: 9%\">+</p>"	"1361"	n/a	n/a	n/a	n/a	n/a	n/a	n/a	n/a	n/a
n/a	"image-keyboard-response"	"164"	"356002"	"0.0-5.0-2.0-1.55"	"hkvkkz"	"600"	"1366"	"chrome"	"109.0.0"	"FALSE"	"Windows 10"	"60.58"	"147"	n/a	n/a	n/a	n/a	n/a	n/a	"Trial"	n/a	n/a	n/a	"1301"	"arrowleft"	n/a	"NULL"	"NULL"	"NULL"	"stimuli/Ebbinghaus_0.35714_0.21500.png"	n/a	"Ebbinghaus"	"arrowleft"	"1379"	"TRUE"	"Ebbinghaus"	"0.3571400000"	"0.2150000000"	"1"	"74"
n/a	"html-keyboard-response"	"165"	"357396"	"0.0-5.0-2.0-0.56"	"hkvkkz"	"600"	"1366"	"chrome"	"109.0.0"	"FALSE"	"Windows 10"	"60.58"	"147"	n/a	n/a	n/a	n/a	n/a	n/a	"fixation"	n/a	n/a	n/a	n/a	"NULL"	n/a	"NULL"	"NULL"	"NULL"	"<p style=\"color: black; font-size: 80px; padding-left: 24%; padding-right: 17%; padding-top: 43%; padding-bottom: 42%\">+</p>"	"1380"	n/a	n/a	n/a	n/a	n/a	n/a	n/a	n/a	n/a
n/a	"image-keyboard-response"	"166"	"358081"	"0.0-5.0-2.0-1.56"	"hkvkkz"	"600"	"1366"	"chrome"	"109.0.0"	"FALSE"	"Windows 10"	"60.58"	"147"	n/a	n/a	n/a	n/a	n/a	n/a	"Trial"	n/a	n/a	n/a	"683"	"arrowright"	n/a	"NULL"	"NULL"	"NULL"	"stimuli/Ebbinghaus_0.61429_-0.11071.png"	n/a	"Ebbinghaus"	"arrowright"	"1394"	"TRUE"	"Ebbinghaus"	"0.6142900000"	"-0.110710000"	"1"	"75"
n/a	"html-keyboard-response"	"167"	"359462"	"0.0-5.0-2.0-0.57"	"hkvkkz"	"600"	"1366"	"chrome"	"109.0.0"	"FALSE"	"Windows 10"	"60.58"	"147"	n/a	n/a	n/a	n/a	n/a	n/a	"fixation"	n/a	n/a	n/a	n/a	"NULL"	n/a	"NULL"	"NULL"	"NULL"	"<p style=\"color: black; font-size: 80px; padding-left: 20%; padding-right: 31%; padding-top: 9%; padding-bottom: 25%\">+</p>"	"1357"	n/a	n/a	n/a	n/a	n/a	n/a	n/a	n/a	n/a
n/a	"image-keyboard-response"	"168"	"360082"	"0.0-5.0-2.0-1.57"	"hkvkkz"	"600"	"1366"	"chrome"	"109.0.0"	"FALSE"	"Windows 10"	"60.58"	"147"	n/a	n/a	n/a	n/a	n/a	n/a	"Trial"	n/a	n/a	n/a	"619"	"arrowleft"	n/a	"NULL"	"NULL"	"NULL"	"stimuli/Ebbinghaus_-0.61429_0.28000.png"	n/a	"Ebbinghaus"	"arrowleft"	"1381"	"TRUE"	"Ebbinghaus"	"-0.614290000"	"0.2800000000"	"1"	"76"
n/a	"html-keyboard-response"	"169"	"361297"	"0.0-5.0-2.0-0.58"	"hkvkkz"	"600"	"1366"	"chrome"	"109.0.0"	"FALSE"	"Windows 10"	"60.58"	"147"	n/a	n/a	n/a	n/a	n/a	n/a	"fixation"	n/a	n/a	n/a	n/a	"NULL"	n/a	"NULL"	"NULL"	"NULL"	"<p style=\"color: black; font-size: 80px; padding-left: 4%; padding-right: 37%; padding-top: 31%; padding-bottom: 10%\">+</p>"	"1205"	n/a	n/a	n/a	n/a	n/a	n/a	n/a	n/a	n/a
n/a	"image-keyboard-response"	"170"	"362950"	"0.0-5.0-2.0-1.58"	"hkvkkz"	"600"	"1366"	"chrome"	"109.0.0"	"FALSE"	"Windows 10"	"60.58"	"147"	n/a	n/a	n/a	n/a	n/a	n/a	"Trial"	n/a	n/a	n/a	"1652"	"arrowleft"	n/a	"NULL"	"NULL"	"NULL"	"stimuli/Ebbinghaus_0.35714_0.15857.png"	n/a	"Ebbinghaus"	"arrowleft"	"1215"	"TRUE"	"Ebbinghaus"	"0.3571400000"	"0.1585700000"	"1"	"77"
n/a	"html-keyboard-response"	"171"	"364447"	"0.0-5.0-2.0-0.59"	"hkvkkz"	"600"	"1366"	"chrome"	"109.0.0"	"FALSE"	"Windows 10"	"60.58"	"147"	n/a	n/a	n/a	n/a	n/a	n/a	"fixation"	n/a	n/a	n/a	n/a	"NULL"	n/a	"NULL"	"NULL"	"NULL"	"<p style=\"color: black; font-size: 80px; padding-left: 43%; padding-right: 29%; padding-top: 48%; padding-bottom: 41%\">+</p>"	"1487"	n/a	n/a	n/a	n/a	n/a	n/a	n/a	n/a	n/a
n/a	"image-keyboard-response"	"172"	"365134"	"0.0-5.0-2.0-1.59"	"hkvkkz"	"600"	"1366"	"chrome"	"109.0.0"	"FALSE"	"Windows 10"	"60.58"	"147"	n/a	n/a	n/a	n/a	n/a	n/a	"Trial"	n/a	n/a	n/a	"686"	"arrowright"	n/a	"NULL"	"NULL"	"NULL"	"stimuli/Ebbinghaus_0.10000_-0.15857.png"	n/a	"Ebbinghaus"	"arrowright"	"1497"	"TRUE"	"Ebbinghaus"	"0.1000000000"	"-0.158570000"	"1"	"78"
n/a	"html-keyboard-response"	"173"	"366402"	"0.0-5.0-2.0-0.60"	"hkvkkz"	"600"	"1366"	"chrome"	"109.0.0"	"FALSE"	"Windows 10"	"60.58"	"147"	n/a	n/a	n/a	n/a	n/a	n/a	"fixation"	n/a	n/a	n/a	n/a	"NULL"	n/a	"NULL"	"NULL"	"NULL"	"<p style=\"color: black; font-size: 80px; padding-left: 24%; padding-right: 23%; padding-top: 8%; padding-bottom: 48%\">+</p>"	"1244"	n/a	n/a	n/a	n/a	n/a	n/a	n/a	n/a	n/a
n/a	"image-keyboard-response"	"174"	"367124"	"0.0-5.0-2.0-1.60"	"hkvkkz"	"600"	"1366"	"chrome"	"109.0.0"	"FALSE"	"Windows 10"	"60.58"	"147"	n/a	n/a	n/a	n/a	n/a	n/a	"Trial"	n/a	n/a	n/a	"720"	"arrowleft"	n/a	"NULL"	"NULL"	"NULL"	"stimuli/Ebbinghaus_0.10000_0.15857.png"	n/a	"Ebbinghaus"	"arrowleft"	"1268"	"TRUE"	"Ebbinghaus"	"0.1000000000"	"0.1585700000"	"1"	"79"
n/a	"html-keyboard-response"	"175"	"368293"	"0.0-5.0-2.0-0.61"	"hkvkkz"	"600"	"1366"	"chrome"	"109.0.0"	"FALSE"	"Windows 10"	"60.58"	"147"	n/a	n/a	n/a	n/a	n/a	n/a	"fixation"	n/a	n/a	n/a	n/a	"NULL"	n/a	"NULL"	"NULL"	"NULL"	"<p style=\"color: black; font-size: 80px; padding-left: 13%; padding-right: 16%; padding-top: 2%; padding-bottom: 28%\">+</p>"	"1159"	n/a	n/a	n/a	n/a	n/a	n/a	n/a	n/a	n/a
n/a	"image-keyboard-response"	"176"	"368949"	"0.0-5.0-2.0-1.61"	"hkvkkz"	"600"	"1366"	"chrome"	"109.0.0"	"FALSE"	"Windows 10"	"60.58"	"147"	n/a	n/a	n/a	n/a	n/a	n/a	"Trial"	n/a	n/a	n/a	"655"	"arrowright"	n/a	"NULL"	"NULL"	"NULL"	"stimuli/Ebbinghaus_0.10000_-0.11071.png"	n/a	"Ebbinghaus"	"arrowright"	"1169"	"TRUE"	"Ebbinghaus"	"0.1000000000"	"-0.110710000"	"1"	"80"
n/a	"html-keyboard-response"	"177"	"370322"	"0.0-5.0-2.0-0.62"	"hkvkkz"	"600"	"1366"	"chrome"	"109.0.0"	"FALSE"	"Windows 10"	"60.58"	"147"	n/a	n/a	n/a	n/a	n/a	n/a	"fixation"	n/a	n/a	n/a	n/a	"NULL"	n/a	"NULL"	"NULL"	"NULL"	"<p style=\"color: black; font-size: 80px; padding-left: 21%; padding-right: 3%; padding-top: 16%; padding-bottom: 33%\">+</p>"	"1350"	n/a	n/a	n/a	n/a	n/a	n/a	n/a	n/a	n/a
n/a	"image-keyboard-response"	"178"	"370979"	"0.0-5.0-2.0-1.62"	"hkvkkz"	"600"	"1366"	"chrome"	"109.0.0"	"FALSE"	"Windows 10"	"60.58"	"147"	n/a	n/a	n/a	n/a	n/a	n/a	"Trial"	n/a	n/a	n/a	"655"	"arrowright"	n/a	"NULL"	"NULL"	"NULL"	"stimuli/Ebbinghaus_-0.87143_-0.15857.png"	n/a	"Ebbinghaus"	"arrowright"	"1373"	"TRUE"	"Ebbinghaus"	"-0.871430000"	"-0.158570000"	"1"	"81"
n/a	"html-keyboard-response"	"179"	"372065"	"0.0-5.0-2.0-0.63"	"hkvkkz"	"600"	"1366"	"chrome"	"109.0.0"	"FALSE"	"Windows 10"	"60.58"	"147"	n/a	n/a	n/a	n/a	n/a	n/a	"fixation"	n/a	n/a	n/a	n/a	"NULL"	n/a	"NULL"	"NULL"	"NULL"	"<p style=\"color: black; font-size: 80px; padding-left: 44%; padding-right: 33%; padding-top: 23%; padding-bottom: 41%\">+</p>"	"1067"	n/a	n/a	n/a	n/a	n/a	n/a	n/a	n/a	n/a
n/a	"image-keyboard-response"	"180"	"372728"	"0.0-5.0-2.0-1.63"	"hkvkkz"	"600"	"1366"	"chrome"	"109.0.0"	"FALSE"	"Windows 10"	"60.58"	"147"	n/a	n/a	n/a	n/a	n/a	n/a	"Trial"	n/a	n/a	n/a	"662"	"arrowleft"	n/a	"NULL"	"NULL"	"NULL"	"stimuli/Ebbinghaus_0.10000_0.11071.png"	n/a	"Ebbinghaus"	"arrowleft"	"1086"	"TRUE"	"Ebbinghaus"	"0.1000000000"	"0.1107100000"	"1"	"82"
n/a	"html-button-response"	"181"	"398292"	"0.0-5.0-3.0"	"hkvkkz"	"600"	"1366"	"chrome"	"109.0.0"	"FALSE"	"Windows 10"	"60.58"	"147"	n/a	n/a	n/a	n/a	n/a	n/a	"block_results"	n/a	n/a	n/a	"25559"	"0"	n/a	"NULL"	"NULL"	"NULL"	"<p>Your score for this illusion is <p style=\"color: black; font-size: 48px; font-weight: bold;\">72 %</p><hr><p>Can you do better in the next illusion?</p>"	n/a	n/a	n/a	n/a	n/a	n/a	n/a	n/a	n/a	n/a
"TRUE"	"preload"	"182"	"398507"	"0.0-6.0-0.0"	"hkvkkz"	"600"	"1366"	"chrome"	"109.0.0"	"FALSE"	"Windows 10"	"60.58"	"147"	n/a	n/a	n/a	n/a	n/a	n/a	n/a	n/a	n/a	n/a	n/a	"NULL"	"FALSE"	"list()"	"list()"	"list()"	n/a	n/a	n/a	n/a	n/a	n/a	n/a	n/a	n/a	n/a	n/a
n/a	"html-keyboard-response"	"183"	"400556"	"0.0-6.0-1.0"	"hkvkkz"	"600"	"1366"	"chrome"	"109.0.0"	"FALSE"	"Windows 10"	"60.58"	"147"	n/a	n/a	n/a	n/a	n/a	n/a	n/a	n/a	n/a	n/a	"2049"	"enter"	n/a	"NULL"	"NULL"	"NULL"	"<p><b>Part 2/6</b></p><p>In this part, two horizontal red lines will appear one above the other.</p><p>Your task is to select which <b>line is longer</b> in length as fast as you can, without making errors.</p><p>Don't get distracted by the surrounding black arrows at the end of the red lines!</p><p>Press <b>the UP or the DOWN arrow</b> to indicate where is the longer <b>red line.</b></p><div style='float: center'><img src='materials/instructions/MullerLyer_Demo.png' height='300'></img><p><img src='utils/answer/answer_updown_keyboard.PNG' height='150'></img></p><p class='small'>In this example, the correct answer is the <b>UP arrow</b>.</p></div><p>Are you ready? <b>Press ENTER to start</b></p>"	n/a	n/a	n/a	n/a	n/a	n/a	n/a	n/a	n/a	n/a
n/a	"html-keyboard-response"	"184"	"402575"	"0.0-6.0-2.0-0.0"	"hkvkkz"	"600"	"1366"	"chrome"	"109.0.0"	"FALSE"	"Windows 10"	"60.58"	"147"	n/a	n/a	n/a	n/a	n/a	n/a	"fixation"	n/a	n/a	n/a	n/a	"NULL"	n/a	"NULL"	"NULL"	"NULL"	"<p style=\"color: black; font-size: 80px; padding-left: 34%; padding-right: 31%; padding-top: 10%; padding-bottom: 23%\">+</p>"	"1498"	n/a	n/a	n/a	n/a	n/a	n/a	n/a	n/a	n/a
n/a	"image-keyboard-response"	"185"	"403224"	"0.0-6.0-2.0-1.0"	"hkvkkz"	"600"	"1366"	"chrome"	"109.0.0"	"FALSE"	"Windows 10"	"60.58"	"147"	n/a	n/a	n/a	n/a	n/a	n/a	"Trial"	n/a	n/a	n/a	"646"	"arrowup"	n/a	"NULL"	"NULL"	"NULL"	"stimuli/MullerLyer_-2.3000_0.23665.png"	n/a	"MullerLyer"	"arrowup"	"2019"	"TRUE"	"MullerLyer"	"-2.300000000"	"0.2366500000"	"2"	"1"
n/a	"html-keyboard-response"	"186"	"404457"	"0.0-6.0-2.0-0.1"	"hkvkkz"	"600"	"1366"	"chrome"	"109.0.0"	"FALSE"	"Windows 10"	"60.58"	"147"	n/a	n/a	n/a	n/a	n/a	n/a	"fixation"	n/a	n/a	n/a	n/a	"NULL"	n/a	"NULL"	"NULL"	"NULL"	"<p style=\"color: black; font-size: 80px; padding-left: 26%; padding-right: 11%; padding-top: 20%; padding-bottom: 28%\">+</p>"	"1220"	n/a	n/a	n/a	n/a	n/a	n/a	n/a	n/a	n/a
n/a	"image-keyboard-response"	"187"	"405049"	"0.0-6.0-2.0-1.1"	"hkvkkz"	"600"	"1366"	"chrome"	"109.0.0"	"FALSE"	"Windows 10"	"60.58"	"147"	n/a	n/a	n/a	n/a	n/a	n/a	"Trial"	n/a	n/a	n/a	"590"	"arrowup"	n/a	"NULL"	"NULL"	"NULL"	"stimuli/MullerLyer_-20.04286_0.14541.png"	n/a	"MullerLyer"	"arrowup"	"1233"	"TRUE"	"MullerLyer"	"-20.04286000"	"0.1454100000"	"2"	"2"
n/a	"html-keyboard-response"	"188"	"406408"	"0.0-6.0-2.0-0.2"	"hkvkkz"	"600"	"1366"	"chrome"	"109.0.0"	"FALSE"	"Windows 10"	"60.58"	"147"	n/a	n/a	n/a	n/a	n/a	n/a	"fixation"	n/a	n/a	n/a	n/a	"NULL"	n/a	"NULL"	"NULL"	"NULL"	"<p style=\"color: black; font-size: 80px; padding-left: 46%; padding-right: 21%; padding-top: 19%; padding-bottom: 3%\">+</p>"	"1344"	n/a	n/a	n/a	n/a	n/a	n/a	n/a	n/a	n/a
n/a	"image-keyboard-response"	"189"	"406992"	"0.0-6.0-2.0-1.2"	"hkvkkz"	"600"	"1366"	"chrome"	"109.0.0"	"FALSE"	"Windows 10"	"60.58"	"147"	n/a	n/a	n/a	n/a	n/a	n/a	"Trial"	n/a	n/a	n/a	"582"	"arrowdown"	n/a	"NULL"	"NULL"	"NULL"	"stimuli/MullerLyer_2.30000_-0.14541.png"	n/a	"MullerLyer"	"arrowdown"	"1359"	"TRUE"	"MullerLyer"	"2.3000000000"	"-0.145410000"	"2"	"3"
n/a	"html-keyboard-response"	"190"	"408196"	"0.0-6.0-2.0-0.3"	"hkvkkz"	"600"	"1366"	"chrome"	"109.0.0"	"FALSE"	"Windows 10"	"60.58"	"147"	n/a	n/a	n/a	n/a	n/a	n/a	"fixation"	n/a	n/a	n/a	n/a	"NULL"	n/a	"NULL"	"NULL"	"NULL"	"<p style=\"color: black; font-size: 80px; padding-left: 34%; padding-right: 36%; padding-top: 32%; padding-bottom: 17%\">+</p>"	"1182"	n/a	n/a	n/a	n/a	n/a	n/a	n/a	n/a	n/a
n/a	"image-keyboard-response"	"191"	"408730"	"0.0-6.0-2.0-1.3"	"hkvkkz"	"600"	"1366"	"chrome"	"109.0.0"	"FALSE"	"Windows 10"	"60.58"	"147"	n/a	n/a	n/a	n/a	n/a	n/a	"Trial"	n/a	n/a	n/a	"529"	"arrowdown"	n/a	"NULL"	"NULL"	"NULL"	"stimuli/MullerLyer_-14.12857_-0.23665.png"	n/a	"MullerLyer"	"arrowdown"	"1204"	"TRUE"	"MullerLyer"	"-14.12857000"	"-0.236650000"	"2"	"4"
n/a	"html-keyboard-response"	"192"	"410234"	"0.0-6.0-2.0-0.4"	"hkvkkz"	"600"	"1366"	"chrome"	"109.0.0"	"FALSE"	"Windows 10"	"60.58"	"147"	n/a	n/a	n/a	n/a	n/a	n/a	"fixation"	n/a	n/a	n/a	n/a	"NULL"	n/a	"NULL"	"NULL"	"NULL"	"<p style=\"color: black; font-size: 80px; padding-left: 38%; padding-right: 13%; padding-top: 8%; padding-bottom: 19%\">+</p>"	"1494"	n/a	n/a	n/a	n/a	n/a	n/a	n/a	n/a	n/a
n/a	"image-keyboard-response"	"193"	"410781"	"0.0-6.0-2.0-1.4"	"hkvkkz"	"600"	"1366"	"chrome"	"109.0.0"	"FALSE"	"Windows 10"	"60.58"	"147"	n/a	n/a	n/a	n/a	n/a	n/a	"Trial"	n/a	n/a	n/a	"545"	"arrowdown"	n/a	"NULL"	"NULL"	"NULL"	"stimuli/MullerLyer_-2.3000_-0.3500.png"	n/a	"MullerLyer"	"arrowdown"	"1504"	"TRUE"	"MullerLyer"	"-2.300000000"	"-0.350000000"	"2"	"5"
n/a	"html-keyboard-response"	"194"	"411878"	"0.0-6.0-2.0-0.5"	"hkvkkz"	"600"	"1366"	"chrome"	"109.0.0"	"FALSE"	"Windows 10"	"60.58"	"147"	n/a	n/a	n/a	n/a	n/a	n/a	"fixation"	n/a	n/a	n/a	n/a	"NULL"	n/a	"NULL"	"NULL"	"NULL"	"<p style=\"color: black; font-size: 80px; padding-left: 4%; padding-right: 49%; padding-top: 39%; padding-bottom: 2%\">+</p>"	"1081"	n/a	n/a	n/a	n/a	n/a	n/a	n/a	n/a	n/a
n/a	"image-keyboard-response"	"195"	"412775"	"0.0-6.0-2.0-1.5"	"hkvkkz"	"600"	"1366"	"chrome"	"109.0.0"	"FALSE"	"Windows 10"	"60.58"	"147"	n/a	n/a	n/a	n/a	n/a	n/a	"Trial"	n/a	n/a	n/a	"897"	"arrowup"	n/a	"NULL"	"NULL"	"NULL"	"stimuli/MullerLyer_8.21429_0.14541.png"	n/a	"MullerLyer"	"arrowup"	"1097"	"TRUE"	"MullerLyer"	"8.2142900000"	"0.1454100000"	"2"	"6"
n/a	"html-keyboard-response"	"196"	"413823"	"0.0-6.0-2.0-0.6"	"hkvkkz"	"600"	"1366"	"chrome"	"109.0.0"	"FALSE"	"Windows 10"	"60.58"	"147"	n/a	n/a	n/a	n/a	n/a	n/a	"fixation"	n/a	n/a	n/a	n/a	"NULL"	n/a	"NULL"	"NULL"	"NULL"	"<p style=\"color: black; font-size: 80px; padding-left: 43%; padding-right: 33%; padding-top: 7%; padding-bottom: 48%\">+</p>"	"1041"	n/a	n/a	n/a	n/a	n/a	n/a	n/a	n/a	n/a
n/a	"image-keyboard-response"	"197"	"414455"	"0.0-6.0-2.0-1.6"	"hkvkkz"	"600"	"1366"	"chrome"	"109.0.0"	"FALSE"	"Windows 10"	"60.58"	"147"	n/a	n/a	n/a	n/a	n/a	n/a	"Trial"	n/a	n/a	n/a	"630"	"arrowup"	n/a	"NULL"	"NULL"	"NULL"	"stimuli/MullerLyer_-20.04286_0.35000.png"	n/a	"MullerLyer"	"arrowup"	"1048"	"TRUE"	"MullerLyer"	"-20.04286000"	"0.3500000000"	"2"	"7"
n/a	"html-keyboard-response"	"198"	"415640"	"0.0-6.0-2.0-0.7"	"hkvkkz"	"600"	"1366"	"chrome"	"109.0.0"	"FALSE"	"Windows 10"	"60.58"	"147"	n/a	n/a	n/a	n/a	n/a	n/a	"fixation"	n/a	n/a	n/a	n/a	"NULL"	n/a	"NULL"	"NULL"	"NULL"	"<p style=\"color: black; font-size: 80px; padding-left: 42%; padding-right: 36%; padding-top: 21%; padding-bottom: 44%\">+</p>"	"1172"	n/a	n/a	n/a	n/a	n/a	n/a	n/a	n/a	n/a
n/a	"image-keyboard-response"	"199"	"416271"	"0.0-6.0-2.0-1.7"	"hkvkkz"	"600"	"1366"	"chrome"	"109.0.0"	"FALSE"	"Windows 10"	"60.58"	"147"	n/a	n/a	n/a	n/a	n/a	n/a	"Trial"	n/a	n/a	n/a	"630"	"arrowdown"	n/a	"NULL"	"NULL"	"NULL"	"stimuli/MullerLyer_2.30000_-0.07627.png"	n/a	"MullerLyer"	"arrowdown"	"1185"	"TRUE"	"MullerLyer"	"2.3000000000"	"-0.076270000"	"2"	"8"
n/a	"html-keyboard-response"	"200"	"417457"	"0.0-6.0-2.0-0.8"	"hkvkkz"	"600"	"1366"	"chrome"	"109.0.0"	"FALSE"	"Windows 10"	"60.58"	"147"	n/a	n/a	n/a	n/a	n/a	n/a	"fixation"	n/a	n/a	n/a	n/a	"NULL"	n/a	"NULL"	"NULL"	"NULL"	"<p style=\"color: black; font-size: 80px; padding-left: 32%; padding-right: 17%; padding-top: 46%; padding-bottom: 13%\">+</p>"	"1175"	n/a	n/a	n/a	n/a	n/a	n/a	n/a	n/a	n/a
n/a	"image-keyboard-response"	"201"	"418080"	"0.0-6.0-2.0-1.8"	"hkvkkz"	"600"	"1366"	"chrome"	"109.0.0"	"FALSE"	"Windows 10"	"60.58"	"147"	n/a	n/a	n/a	n/a	n/a	n/a	"Trial"	n/a	n/a	n/a	"621"	"arrowup"	n/a	"NULL"	"NULL"	"NULL"	"stimuli/MullerLyer_2.30000_0.35000.png"	n/a	"MullerLyer"	"arrowup"	"1186"	"TRUE"	"MullerLyer"	"2.3000000000"	"0.3500000000"	"2"	"9"
n/a	"html-keyboard-response"	"202"	"419459"	"0.0-6.0-2.0-0.9"	"hkvkkz"	"600"	"1366"	"chrome"	"109.0.0"	"FALSE"	"Windows 10"	"60.58"	"147"	n/a	n/a	n/a	n/a	n/a	n/a	"fixation"	n/a	n/a	n/a	n/a	"NULL"	n/a	"NULL"	"NULL"	"NULL"	"<p style=\"color: black; font-size: 80px; padding-left: 19%; padding-right: 7%; padding-top: 27%; padding-bottom: 35%\">+</p>"	"1359"	n/a	n/a	n/a	n/a	n/a	n/a	n/a	n/a	n/a
n/a	"image-keyboard-response"	"203"	"419983"	"0.0-6.0-2.0-1.9"	"hkvkkz"	"600"	"1366"	"chrome"	"109.0.0"	"FALSE"	"Windows 10"	"60.58"	"147"	n/a	n/a	n/a	n/a	n/a	n/a	"Trial"	n/a	n/a	n/a	"522"	"arrowdown"	n/a	"NULL"	"NULL"	"NULL"	"stimuli/MullerLyer_2.30000_-0.3500.png"	n/a	"MullerLyer"	"arrowdown"	"1379"	"TRUE"	"MullerLyer"	"2.3000000000"	"-0.350000000"	"2"	"10"
n/a	"html-keyboard-response"	"204"	"421031"	"0.0-6.0-2.0-0.10"	"hkvkkz"	"600"	"1366"	"chrome"	"109.0.0"	"FALSE"	"Windows 10"	"60.58"	"147"	n/a	n/a	n/a	n/a	n/a	n/a	"fixation"	n/a	n/a	n/a	n/a	"NULL"	n/a	"NULL"	"NULL"	"NULL"	"<p style=\"color: black; font-size: 80px; padding-left: 24%; padding-right: 14%; padding-top: 25%; padding-bottom: 39%\">+</p>"	"1033"	n/a	n/a	n/a	n/a	n/a	n/a	n/a	n/a	n/a
n/a	"image-keyboard-response"	"205"	"421538"	"0.0-6.0-2.0-1.10"	"hkvkkz"	"600"	"1366"	"chrome"	"109.0.0"	"FALSE"	"Windows 10"	"60.58"	"147"	n/a	n/a	n/a	n/a	n/a	n/a	"Trial"	n/a	n/a	n/a	"503"	"arrowdown"	n/a	"NULL"	"NULL"	"NULL"	"stimuli/MullerLyer_-14.12857_-0.3500.png"	n/a	"MullerLyer"	"arrowdown"	"1048"	"TRUE"	"MullerLyer"	"-14.12857000"	"-0.350000000"	"2"	"11"
n/a	"html-keyboard-response"	"206"	"422885"	"0.0-6.0-2.0-0.11"	"hkvkkz"	"600"	"1366"	"chrome"	"109.0.0"	"FALSE"	"Windows 10"	"60.58"	"147"	n/a	n/a	n/a	n/a	n/a	n/a	"fixation"	n/a	n/a	n/a	n/a	"NULL"	n/a	"NULL"	"NULL"	"NULL"	"<p style=\"color: black; font-size: 80px; padding-left: 22%; padding-right: 12%; padding-top: 38%; padding-bottom: 21%\">+</p>"	"1334"	n/a	n/a	n/a	n/a	n/a	n/a	n/a	n/a	n/a
n/a	"image-keyboard-response"	"207"	"423459"	"0.0-6.0-2.0-1.11"	"hkvkkz"	"600"	"1366"	"chrome"	"109.0.0"	"FALSE"	"Windows 10"	"60.58"	"147"	n/a	n/a	n/a	n/a	n/a	n/a	"Trial"	n/a	n/a	n/a	"570"	"arrowdown"	n/a	"NULL"	"NULL"	"NULL"	"stimuli/MullerLyer_-8.21429_-0.14541.png"	n/a	"MullerLyer"	"arrowdown"	"1347"	"TRUE"	"MullerLyer"	"-8.214290000"	"-0.145410000"	"2"	"12"
n/a	"html-keyboard-response"	"208"	"424902"	"0.0-6.0-2.0-0.12"	"hkvkkz"	"600"	"1366"	"chrome"	"109.0.0"	"FALSE"	"Windows 10"	"60.58"	"147"	n/a	n/a	n/a	n/a	n/a	n/a	"fixation"	n/a	n/a	n/a	n/a	"NULL"	n/a	"NULL"	"NULL"	"NULL"	"<p style=\"color: black; font-size: 80px; padding-left: 34%; padding-right: 0%; padding-top: 19%; padding-bottom: 3%\">+</p>"	"1433"	n/a	n/a	n/a	n/a	n/a	n/a	n/a	n/a	n/a
n/a	"image-keyboard-response"	"209"	"425475"	"0.0-6.0-2.0-1.12"	"hkvkkz"	"600"	"1366"	"chrome"	"109.0.0"	"FALSE"	"Windows 10"	"60.58"	"147"	n/a	n/a	n/a	n/a	n/a	n/a	"Trial"	n/a	n/a	n/a	"570"	"arrowdown"	n/a	"NULL"	"NULL"	"NULL"	"stimuli/MullerLyer_-2.3000_-0.23665.png"	n/a	"MullerLyer"	"arrowdown"	"1443"	"TRUE"	"MullerLyer"	"-2.300000000"	"-0.236650000"	"2"	"13"
n/a	"html-keyboard-response"	"210"	"426727"	"0.0-6.0-2.0-0.13"	"hkvkkz"	"600"	"1366"	"chrome"	"109.0.0"	"FALSE"	"Windows 10"	"60.58"	"147"	n/a	n/a	n/a	n/a	n/a	n/a	"fixation"	n/a	n/a	n/a	n/a	"NULL"	n/a	"NULL"	"NULL"	"NULL"	"<p style=\"color: black; font-size: 80px; padding-left: 40%; padding-right: 45%; padding-top: 21%; padding-bottom: 36%\">+</p>"	"1232"	n/a	n/a	n/a	n/a	n/a	n/a	n/a	n/a	n/a
n/a	"image-keyboard-response"	"211"	"427271"	"0.0-6.0-2.0-1.13"	"hkvkkz"	"600"	"1366"	"chrome"	"109.0.0"	"FALSE"	"Windows 10"	"60.58"	"147"	n/a	n/a	n/a	n/a	n/a	n/a	"Trial"	n/a	n/a	n/a	"541"	"arrowdown"	n/a	"NULL"	"NULL"	"NULL"	"stimuli/MullerLyer_20.04286_0.23665.png"	n/a	"MullerLyer"	"arrowup"	"1252"	"FALSE"	"MullerLyer"	"20.042860000"	"0.2366500000"	"2"	"14"
n/a	"html-keyboard-response"	"212"	"428680"	"0.0-6.0-2.0-0.14"	"hkvkkz"	"600"	"1366"	"chrome"	"109.0.0"	"FALSE"	"Windows 10"	"60.58"	"147"	n/a	n/a	n/a	n/a	n/a	n/a	"fixation"	n/a	n/a	n/a	n/a	"NULL"	n/a	"NULL"	"NULL"	"NULL"	"<p style=\"color: black; font-size: 80px; padding-left: 41%; padding-right: 45%; padding-top: 15%; padding-bottom: 37%\">+</p>"	"1402"	n/a	n/a	n/a	n/a	n/a	n/a	n/a	n/a	n/a
n/a	"image-keyboard-response"	"213"	"429197"	"0.0-6.0-2.0-1.14"	"hkvkkz"	"600"	"1366"	"chrome"	"109.0.0"	"FALSE"	"Windows 10"	"60.58"	"147"	n/a	n/a	n/a	n/a	n/a	n/a	"Trial"	n/a	n/a	n/a	"515"	"arrowdown"	n/a	"NULL"	"NULL"	"NULL"	"stimuli/MullerLyer_-20.04286_-0.14541.png"	n/a	"MullerLyer"	"arrowdown"	"1409"	"TRUE"	"MullerLyer"	"-20.04286000"	"-0.145410000"	"2"	"15"
n/a	"html-keyboard-response"	"214"	"430526"	"0.0-6.0-2.0-0.15"	"hkvkkz"	"600"	"1366"	"chrome"	"109.0.0"	"FALSE"	"Windows 10"	"60.58"	"147"	n/a	n/a	n/a	n/a	n/a	n/a	"fixation"	n/a	n/a	n/a	n/a	"NULL"	n/a	"NULL"	"NULL"	"NULL"	"<p style=\"color: black; font-size: 80px; padding-left: 49%; padding-right: 46%; padding-top: 15%; padding-bottom: 9%\">+</p>"	"1322"	n/a	n/a	n/a	n/a	n/a	n/a	n/a	n/a	n/a
n/a	"image-keyboard-response"	"215"	"431160"	"0.0-6.0-2.0-1.15"	"hkvkkz"	"600"	"1366"	"chrome"	"109.0.0"	"FALSE"	"Windows 10"	"60.58"	"147"	n/a	n/a	n/a	n/a	n/a	n/a	"Trial"	n/a	n/a	n/a	"633"	"arrowup"	n/a	"NULL"	"NULL"	"NULL"	"stimuli/MullerLyer_2.30000_0.14541.png"	n/a	"MullerLyer"	"arrowup"	"1329"	"TRUE"	"MullerLyer"	"2.3000000000"	"0.1454100000"	"2"	"16"
n/a	"html-keyboard-response"	"216"	"432443"	"0.0-6.0-2.0-0.16"	"hkvkkz"	"600"	"1366"	"chrome"	"109.0.0"	"FALSE"	"Windows 10"	"60.58"	"147"	n/a	n/a	n/a	n/a	n/a	n/a	"fixation"	n/a	n/a	n/a	n/a	"NULL"	n/a	"NULL"	"NULL"	"NULL"	"<p style=\"color: black; font-size: 80px; padding-left: 39%; padding-right: 44%; padding-top: 50%; padding-bottom: 31%\">+</p>"	"1275"	n/a	n/a	n/a	n/a	n/a	n/a	n/a	n/a	n/a
n/a	"image-keyboard-response"	"217"	"433099"	"0.0-6.0-2.0-1.16"	"hkvkkz"	"600"	"1366"	"chrome"	"109.0.0"	"FALSE"	"Windows 10"	"60.58"	"147"	n/a	n/a	n/a	n/a	n/a	n/a	"Trial"	n/a	n/a	n/a	"654"	"arrowup"	n/a	"NULL"	"NULL"	"NULL"	"stimuli/MullerLyer_20.04286_-0.14541.png"	n/a	"MullerLyer"	"arrowdown"	"1283"	"FALSE"	"MullerLyer"	"20.042860000"	"-0.145410000"	"2"	"17"
n/a	"html-keyboard-response"	"218"	"434280"	"0.0-6.0-2.0-0.17"	"hkvkkz"	"600"	"1366"	"chrome"	"109.0.0"	"FALSE"	"Windows 10"	"60.58"	"147"	n/a	n/a	n/a	n/a	n/a	n/a	"fixation"	n/a	n/a	n/a	n/a	"NULL"	n/a	"NULL"	"NULL"	"NULL"	"<p style=\"color: black; font-size: 80px; padding-left: 3%; padding-right: 7%; padding-top: 11%; padding-bottom: 35%\">+</p>"	"1172"	n/a	n/a	n/a	n/a	n/a	n/a	n/a	n/a	n/a
n/a	"image-keyboard-response"	"219"	"434952"	"0.0-6.0-2.0-1.17"	"hkvkkz"	"600"	"1366"	"chrome"	"109.0.0"	"FALSE"	"Windows 10"	"60.58"	"147"	n/a	n/a	n/a	n/a	n/a	n/a	"Trial"	n/a	n/a	n/a	"671"	"arrowup"	n/a	"NULL"	"NULL"	"NULL"	"stimuli/MullerLyer_14.12857_0.35000.png"	n/a	"MullerLyer"	"arrowup"	"1181"	"TRUE"	"MullerLyer"	"14.128570000"	"0.3500000000"	"2"	"18"
n/a	"html-keyboard-response"	"220"	"436198"	"0.0-6.0-2.0-0.18"	"hkvkkz"	"600"	"1366"	"chrome"	"109.0.0"	"FALSE"	"Windows 10"	"60.58"	"147"	n/a	n/a	n/a	n/a	n/a	n/a	"fixation"	n/a	n/a	n/a	n/a	"NULL"	n/a	"NULL"	"NULL"	"NULL"	"<p style=\"color: black; font-size: 80px; padding-left: 4%; padding-right: 50%; padding-top: 5%; padding-bottom: 36%\">+</p>"	"1238"	n/a	n/a	n/a	n/a	n/a	n/a	n/a	n/a	n/a
n/a	"image-keyboard-response"	"221"	"436810"	"0.0-6.0-2.0-1.18"	"hkvkkz"	"600"	"1366"	"chrome"	"109.0.0"	"FALSE"	"Windows 10"	"60.58"	"147"	n/a	n/a	n/a	n/a	n/a	n/a	"Trial"	n/a	n/a	n/a	"611"	"arrowdown"	n/a	"NULL"	"NULL"	"NULL"	"stimuli/MullerLyer_20.04286_0.07627.png"	n/a	"MullerLyer"	"arrowup"	"1246"	"FALSE"	"MullerLyer"	"20.042860000"	"0.0762700000"	"2"	"19"
n/a	"html-keyboard-response"	"222"	"438151"	"0.0-6.0-2.0-0.19"	"hkvkkz"	"600"	"1366"	"chrome"	"109.0.0"	"FALSE"	"Windows 10"	"60.58"	"147"	n/a	n/a	n/a	n/a	n/a	n/a	"fixation"	n/a	n/a	n/a	n/a	"NULL"	n/a	"NULL"	"NULL"	"NULL"	"<p style=\"color: black; font-size: 80px; padding-left: 40%; padding-right: 34%; padding-top: 47%; padding-bottom: 14%\">+</p>"	"1334"	n/a	n/a	n/a	n/a	n/a	n/a	n/a	n/a	n/a
n/a	"image-keyboard-response"	"223"	"439750"	"0.0-6.0-2.0-1.19"	"hkvkkz"	"600"	"1366"	"chrome"	"109.0.0"	"FALSE"	"Windows 10"	"60.58"	"147"	n/a	n/a	n/a	n/a	n/a	n/a	"Trial"	n/a	n/a	n/a	"1597"	"arrowup"	n/a	"NULL"	"NULL"	"NULL"	"stimuli/MullerLyer_2.30000_0.07627.png"	n/a	"MullerLyer"	"arrowup"	"1341"	"TRUE"	"MullerLyer"	"2.3000000000"	"0.0762700000"	"2"	"20"
n/a	"html-keyboard-response"	"224"	"441121"	"0.0-6.0-2.0-0.20"	"hkvkkz"	"600"	"1366"	"chrome"	"109.0.0"	"FALSE"	"Windows 10"	"60.58"	"147"	n/a	n/a	n/a	n/a	n/a	n/a	"fixation"	n/a	n/a	n/a	n/a	"NULL"	n/a	"NULL"	"NULL"	"NULL"	"<p style=\"color: black; font-size: 80px; padding-left: 14%; padding-right: 28%; padding-top: 3%; padding-bottom: 17%\">+</p>"	"1348"	n/a	n/a	n/a	n/a	n/a	n/a	n/a	n/a	n/a
n/a	"image-keyboard-response"	"225"	"441782"	"0.0-6.0-2.0-1.20"	"hkvkkz"	"600"	"1366"	"chrome"	"109.0.0"	"FALSE"	"Windows 10"	"60.58"	"147"	n/a	n/a	n/a	n/a	n/a	n/a	"Trial"	n/a	n/a	n/a	"660"	"arrowup"	n/a	"NULL"	"NULL"	"NULL"	"stimuli/MullerLyer_2.30000_0.23665.png"	n/a	"MullerLyer"	"arrowup"	"1371"	"TRUE"	"MullerLyer"	"2.3000000000"	"0.2366500000"	"2"	"21"
n/a	"html-keyboard-response"	"226"	"442855"	"0.0-6.0-2.0-0.21"	"hkvkkz"	"600"	"1366"	"chrome"	"109.0.0"	"FALSE"	"Windows 10"	"60.58"	"147"	n/a	n/a	n/a	n/a	n/a	n/a	"fixation"	n/a	n/a	n/a	n/a	"NULL"	n/a	"NULL"	"NULL"	"NULL"	"<p style=\"color: black; font-size: 80px; padding-left: 1%; padding-right: 40%; padding-top: 5%; padding-bottom: 13%\">+</p>"	"1053"	n/a	n/a	n/a	n/a	n/a	n/a	n/a	n/a	n/a
n/a	"image-keyboard-response"	"227"	"443458"	"0.0-6.0-2.0-1.21"	"hkvkkz"	"600"	"1366"	"chrome"	"109.0.0"	"FALSE"	"Windows 10"	"60.58"	"147"	n/a	n/a	n/a	n/a	n/a	n/a	"Trial"	n/a	n/a	n/a	"602"	"arrowup"	n/a	"NULL"	"NULL"	"NULL"	"stimuli/MullerLyer_-20.04286_0.07627.png"	n/a	"MullerLyer"	"arrowup"	"1073"	"TRUE"	"MullerLyer"	"-20.04286000"	"0.0762700000"	"2"	"22"
n/a	"html-keyboard-response"	"228"	"444600"	"0.0-6.0-2.0-0.22"	"hkvkkz"	"600"	"1366"	"chrome"	"109.0.0"	"FALSE"	"Windows 10"	"60.58"	"147"	n/a	n/a	n/a	n/a	n/a	n/a	"fixation"	n/a	n/a	n/a	n/a	"NULL"	n/a	"NULL"	"NULL"	"NULL"	"<p style=\"color: black; font-size: 80px; padding-left: 13%; padding-right: 24%; padding-top: 47%; padding-bottom: 34%\">+</p>"	"1128"	n/a	n/a	n/a	n/a	n/a	n/a	n/a	n/a	n/a
n/a	"image-keyboard-response"	"229"	"445209"	"0.0-6.0-2.0-1.22"	"hkvkkz"	"600"	"1366"	"chrome"	"109.0.0"	"FALSE"	"Windows 10"	"60.58"	"147"	n/a	n/a	n/a	n/a	n/a	n/a	"Trial"	n/a	n/a	n/a	"607"	"arrowdown"	n/a	"NULL"	"NULL"	"NULL"	"stimuli/MullerLyer_-8.21429_-0.23665.png"	n/a	"MullerLyer"	"arrowdown"	"1142"	"TRUE"	"MullerLyer"	"-8.214290000"	"-0.236650000"	"2"	"23"
n/a	"html-keyboard-response"	"230"	"446509"	"0.0-6.0-2.0-0.23"	"hkvkkz"	"600"	"1366"	"chrome"	"109.0.0"	"FALSE"	"Windows 10"	"60.58"	"147"	n/a	n/a	n/a	n/a	n/a	n/a	"fixation"	n/a	n/a	n/a	n/a	"NULL"	n/a	"NULL"	"NULL"	"NULL"	"<p style=\"color: black; font-size: 80px; padding-left: 35%; padding-right: 4%; padding-top: 40%; padding-bottom: 32%\">+</p>"	"1293"	n/a	n/a	n/a	n/a	n/a	n/a	n/a	n/a	n/a
n/a	"image-keyboard-response"	"231"	"447152"	"0.0-6.0-2.0-1.23"	"hkvkkz"	"600"	"1366"	"chrome"	"109.0.0"	"FALSE"	"Windows 10"	"60.58"	"147"	n/a	n/a	n/a	n/a	n/a	n/a	"Trial"	n/a	n/a	n/a	"641"	"arrowup"	n/a	"NULL"	"NULL"	"NULL"	"stimuli/MullerLyer_-8.21429_0.14541.png"	n/a	"MullerLyer"	"arrowup"	"1300"	"TRUE"	"MullerLyer"	"-8.214290000"	"0.1454100000"	"2"	"24"
n/a	"html-keyboard-response"	"232"	"448243"	"0.0-6.0-2.0-0.24"	"hkvkkz"	"600"	"1366"	"chrome"	"109.0.0"	"FALSE"	"Windows 10"	"60.58"	"147"	n/a	n/a	n/a	n/a	n/a	n/a	"fixation"	n/a	n/a	n/a	n/a	"NULL"	n/a	"NULL"	"NULL"	"NULL"	"<p style=\"color: black; font-size: 80px; padding-left: 41%; padding-right: 44%; padding-top: 40%; padding-bottom: 32%\">+</p>"	"1076"	n/a	n/a	n/a	n/a	n/a	n/a	n/a	n/a	n/a
n/a	"image-keyboard-response"	"233"	"448798"	"0.0-6.0-2.0-1.24"	"hkvkkz"	"600"	"1366"	"chrome"	"109.0.0"	"FALSE"	"Windows 10"	"60.58"	"147"	n/a	n/a	n/a	n/a	n/a	n/a	"Trial"	n/a	n/a	n/a	"553"	"arrowdown"	n/a	"NULL"	"NULL"	"NULL"	"stimuli/MullerLyer_-2.3000_-0.14541.png"	n/a	"MullerLyer"	"arrowdown"	"1091"	"TRUE"	"MullerLyer"	"-2.300000000"	"-0.145410000"	"2"	"25"
n/a	"html-keyboard-response"	"234"	"450031"	"0.0-6.0-2.0-0.25"	"hkvkkz"	"600"	"1366"	"chrome"	"109.0.0"	"FALSE"	"Windows 10"	"60.58"	"147"	n/a	n/a	n/a	n/a	n/a	n/a	"fixation"	n/a	n/a	n/a	n/a	"NULL"	n/a	"NULL"	"NULL"	"NULL"	"<p style=\"color: black; font-size: 80px; padding-left: 28%; padding-right: 28%; padding-top: 35%; padding-bottom: 0%\">+</p>"	"1224"	n/a	n/a	n/a	n/a	n/a	n/a	n/a	n/a	n/a
n/a	"image-keyboard-response"	"235"	"450966"	"0.0-6.0-2.0-1.25"	"hkvkkz"	"600"	"1366"	"chrome"	"109.0.0"	"FALSE"	"Windows 10"	"60.58"	"147"	n/a	n/a	n/a	n/a	n/a	n/a	"Trial"	n/a	n/a	n/a	"934"	"arrowdown"	n/a	"NULL"	"NULL"	"NULL"	"stimuli/MullerLyer_20.04286_-0.23665.png"	n/a	"MullerLyer"	"arrowdown"	"1233"	"TRUE"	"MullerLyer"	"20.042860000"	"-0.236650000"	"2"	"26"
n/a	"html-keyboard-response"	"236"	"452339"	"0.0-6.0-2.0-0.26"	"hkvkkz"	"600"	"1366"	"chrome"	"109.0.0"	"FALSE"	"Windows 10"	"60.58"	"147"	n/a	n/a	n/a	n/a	n/a	n/a	"fixation"	n/a	n/a	n/a	n/a	"NULL"	n/a	"NULL"	"NULL"	"NULL"	"<p style=\"color: black; font-size: 80px; padding-left: 1%; padding-right: 29%; padding-top: 43%; padding-bottom: 17%\">+</p>"	"1358"	n/a	n/a	n/a	n/a	n/a	n/a	n/a	n/a	n/a
n/a	"image-keyboard-response"	"237"	"452935"	"0.0-6.0-2.0-1.26"	"hkvkkz"	"600"	"1366"	"chrome"	"109.0.0"	"FALSE"	"Windows 10"	"60.58"	"147"	n/a	n/a	n/a	n/a	n/a	n/a	"Trial"	n/a	n/a	n/a	"595"	"arrowup"	n/a	"NULL"	"NULL"	"NULL"	"stimuli/MullerLyer_-20.04286_0.23665.png"	n/a	"MullerLyer"	"arrowup"	"1373"	"TRUE"	"MullerLyer"	"-20.04286000"	"0.2366500000"	"2"	"27"
n/a	"html-keyboard-response"	"238"	"453999"	"0.0-6.0-2.0-0.27"	"hkvkkz"	"600"	"1366"	"chrome"	"109.0.0"	"FALSE"	"Windows 10"	"60.58"	"147"	n/a	n/a	n/a	n/a	n/a	n/a	"fixation"	n/a	n/a	n/a	n/a	"NULL"	n/a	"NULL"	"NULL"	"NULL"	"<p style=\"color: black; font-size: 80px; padding-left: 33%; padding-right: 20%; padding-top: 30%; padding-bottom: 36%\">+</p>"	"1055"	n/a	n/a	n/a	n/a	n/a	n/a	n/a	n/a	n/a
n/a	"image-keyboard-response"	"239"	"454539"	"0.0-6.0-2.0-1.27"	"hkvkkz"	"600"	"1366"	"chrome"	"109.0.0"	"FALSE"	"Windows 10"	"60.58"	"147"	n/a	n/a	n/a	n/a	n/a	n/a	"Trial"	n/a	n/a	n/a	"540"	"arrowdown"	n/a	"NULL"	"NULL"	"NULL"	"stimuli/MullerLyer_8.21429_-0.23665.png"	n/a	"MullerLyer"	"arrowdown"	"1064"	"TRUE"	"MullerLyer"	"8.2142900000"	"-0.236650000"	"2"	"28"
n/a	"html-keyboard-response"	"240"	"455777"	"0.0-6.0-2.0-0.28"	"hkvkkz"	"600"	"1366"	"chrome"	"109.0.0"	"FALSE"	"Windows 10"	"60.58"	"147"	n/a	n/a	n/a	n/a	n/a	n/a	"fixation"	n/a	n/a	n/a	n/a	"NULL"	n/a	"NULL"	"NULL"	"NULL"	"<p style=\"color: black; font-size: 80px; padding-left: 42%; padding-right: 14%; padding-top: 36%; padding-bottom: 11%\">+</p>"	"1219"	n/a	n/a	n/a	n/a	n/a	n/a	n/a	n/a	n/a
n/a	"image-keyboard-response"	"241"	"456423"	"0.0-6.0-2.0-1.28"	"hkvkkz"	"600"	"1366"	"chrome"	"109.0.0"	"FALSE"	"Windows 10"	"60.58"	"147"	n/a	n/a	n/a	n/a	n/a	n/a	"Trial"	n/a	n/a	n/a	"644"	"arrowdown"	n/a	"NULL"	"NULL"	"NULL"	"stimuli/MullerLyer_-8.21429_-0.07627.png"	n/a	"MullerLyer"	"arrowdown"	"1238"	"TRUE"	"MullerLyer"	"-8.214290000"	"-0.076270000"	"2"	"29"
n/a	"html-keyboard-response"	"242"	"457872"	"0.0-6.0-2.0-0.29"	"hkvkkz"	"600"	"1366"	"chrome"	"109.0.0"	"FALSE"	"Windows 10"	"60.58"	"147"	n/a	n/a	n/a	n/a	n/a	n/a	"fixation"	n/a	n/a	n/a	n/a	"NULL"	n/a	"NULL"	"NULL"	"NULL"	"<p style=\"color: black; font-size: 80px; padding-left: 46%; padding-right: 18%; padding-top: 17%; padding-bottom: 7%\">+</p>"	"1440"	n/a	n/a	n/a	n/a	n/a	n/a	n/a	n/a	n/a
n/a	"image-keyboard-response"	"243"	"458396"	"0.0-6.0-2.0-1.29"	"hkvkkz"	"600"	"1366"	"chrome"	"109.0.0"	"FALSE"	"Windows 10"	"60.58"	"147"	n/a	n/a	n/a	n/a	n/a	n/a	"Trial"	n/a	n/a	n/a	"523"	"arrowdown"	n/a	"NULL"	"NULL"	"NULL"	"stimuli/MullerLyer_-20.04286_-0.3500.png"	n/a	"MullerLyer"	"arrowdown"	"1449"	"TRUE"	"MullerLyer"	"-20.04286000"	"-0.350000000"	"2"	"30"
n/a	"html-keyboard-response"	"244"	"459462"	"0.0-6.0-2.0-0.30"	"hkvkkz"	"600"	"1366"	"chrome"	"109.0.0"	"FALSE"	"Windows 10"	"60.58"	"147"	n/a	n/a	n/a	n/a	n/a	n/a	"fixation"	n/a	n/a	n/a	n/a	"NULL"	n/a	"NULL"	"NULL"	"NULL"	"<p style=\"color: black; font-size: 80px; padding-left: 22%; padding-right: 30%; padding-top: 29%; padding-bottom: 41%\">+</p>"	"1059"	n/a	n/a	n/a	n/a	n/a	n/a	n/a	n/a	n/a
n/a	"image-keyboard-response"	"245"	"461189"	"0.0-6.0-2.0-1.30"	"hkvkkz"	"600"	"1366"	"chrome"	"109.0.0"	"FALSE"	"Windows 10"	"60.58"	"147"	n/a	n/a	n/a	n/a	n/a	n/a	"Trial"	n/a	n/a	n/a	"1726"	"arrowup"	n/a	"NULL"	"NULL"	"NULL"	"stimuli/MullerLyer_14.12857_-0.14541.png"	n/a	"MullerLyer"	"arrowdown"	"1066"	"FALSE"	"MullerLyer"	"14.128570000"	"-0.145410000"	"2"	"31"
n/a	"html-keyboard-response"	"246"	"462388"	"0.0-6.0-2.0-0.31"	"hkvkkz"	"600"	"1366"	"chrome"	"109.0.0"	"FALSE"	"Windows 10"	"60.58"	"147"	n/a	n/a	n/a	n/a	n/a	n/a	"fixation"	n/a	n/a	n/a	n/a	"NULL"	n/a	"NULL"	"NULL"	"NULL"	"<p style=\"color: black; font-size: 80px; padding-left: 12%; padding-right: 31%; padding-top: 14%; padding-bottom: 19%\">+</p>"	"1184"	n/a	n/a	n/a	n/a	n/a	n/a	n/a	n/a	n/a
n/a	"image-keyboard-response"	"247"	"462911"	"0.0-6.0-2.0-1.31"	"hkvkkz"	"600"	"1366"	"chrome"	"109.0.0"	"FALSE"	"Windows 10"	"60.58"	"147"	n/a	n/a	n/a	n/a	n/a	n/a	"Trial"	n/a	n/a	n/a	"523"	"arrowdown"	n/a	"NULL"	"NULL"	"NULL"	"stimuli/MullerLyer_8.21429_0.07627.png"	n/a	"MullerLyer"	"arrowup"	"1199"	"FALSE"	"MullerLyer"	"8.2142900000"	"0.0762700000"	"2"	"32"
n/a	"html-keyboard-response"	"248"	"464198"	"0.0-6.0-2.0-0.32"	"hkvkkz"	"600"	"1366"	"chrome"	"109.0.0"	"FALSE"	"Windows 10"	"60.58"	"147"	n/a	n/a	n/a	n/a	n/a	n/a	"fixation"	n/a	n/a	n/a	n/a	"NULL"	n/a	"NULL"	"NULL"	"NULL"	"<p style=\"color: black; font-size: 80px; padding-left: 25%; padding-right: 7%; padding-top: 23%; padding-bottom: 12%\">+</p>"	"1278"	n/a	n/a	n/a	n/a	n/a	n/a	n/a	n/a	n/a
n/a	"image-keyboard-response"	"249"	"465653"	"0.0-6.0-2.0-1.32"	"hkvkkz"	"600"	"1366"	"chrome"	"109.0.0"	"FALSE"	"Windows 10"	"60.58"	"147"	n/a	n/a	n/a	n/a	n/a	n/a	"Trial"	n/a	n/a	n/a	"1453"	"arrowdown"	n/a	"NULL"	"NULL"	"NULL"	"stimuli/MullerLyer_-2.3000_-0.07627.png"	n/a	"MullerLyer"	"arrowdown"	"1287"	"TRUE"	"MullerLyer"	"-2.300000000"	"-0.076270000"	"2"	"33"
n/a	"html-keyboard-response"	"250"	"467120"	"0.0-6.0-2.0-0.33"	"hkvkkz"	"600"	"1366"	"chrome"	"109.0.0"	"FALSE"	"Windows 10"	"60.58"	"147"	n/a	n/a	n/a	n/a	n/a	n/a	"fixation"	n/a	n/a	n/a	n/a	"NULL"	n/a	"NULL"	"NULL"	"NULL"	"<p style=\"color: black; font-size: 80px; padding-left: 33%; padding-right: 10%; padding-top: 12%; padding-bottom: 42%\">+</p>"	"1459"	n/a	n/a	n/a	n/a	n/a	n/a	n/a	n/a	n/a
n/a	"image-keyboard-response"	"251"	"468263"	"0.0-6.0-2.0-1.33"	"hkvkkz"	"600"	"1366"	"chrome"	"109.0.0"	"FALSE"	"Windows 10"	"60.58"	"147"	n/a	n/a	n/a	n/a	n/a	n/a	"Trial"	n/a	n/a	n/a	"1137"	"arrowdown"	n/a	"NULL"	"NULL"	"NULL"	"stimuli/MullerLyer_20.04286_-0.3500.png"	n/a	"MullerLyer"	"arrowdown"	"1467"	"TRUE"	"MullerLyer"	"20.042860000"	"-0.350000000"	"2"	"34"
n/a	"html-keyboard-response"	"252"	"469478"	"0.0-6.0-2.0-0.34"	"hkvkkz"	"600"	"1366"	"chrome"	"109.0.0"	"FALSE"	"Windows 10"	"60.58"	"147"	n/a	n/a	n/a	n/a	n/a	n/a	"fixation"	n/a	n/a	n/a	n/a	"NULL"	n/a	"NULL"	"NULL"	"NULL"	"<p style=\"color: black; font-size: 80px; padding-left: 23%; padding-right: 20%; padding-top: 48%; padding-bottom: 17%\">+</p>"	"1211"	n/a	n/a	n/a	n/a	n/a	n/a	n/a	n/a	n/a
n/a	"image-keyboard-response"	"253"	"470440"	"0.0-6.0-2.0-1.34"	"hkvkkz"	"600"	"1366"	"chrome"	"109.0.0"	"FALSE"	"Windows 10"	"60.58"	"147"	n/a	n/a	n/a	n/a	n/a	n/a	"Trial"	n/a	n/a	n/a	"959"	"arrowdown"	n/a	"NULL"	"NULL"	"NULL"	"stimuli/MullerLyer_14.12857_-0.07627.png"	n/a	"MullerLyer"	"arrowdown"	"1215"	"TRUE"	"MullerLyer"	"14.128570000"	"-0.076270000"	"2"	"35"
