"success"	"trial_type"	"trial_index"	"time_elapsed"	"internal_node_id"	"participant_id"	"screen_height"	"screen_width"	"browser"	"browser_version"	"mobile"	"os"	"vsync_rate"	"subject_id"	"width"	"height"	"webaudio"	"fullscreen"	"webcam"	"microphone"	"screen"	"version"	"date"	"time"	"rt"	"response"	"timeout"	"failed_images"	"failed_audio"	"failed_video"	"stimulus"	"trial_duration"	"block"	"correct_response"	"prestimulus_duration"	"correct"	"type"	"illusion_strength"	"illusion_difference"	"block_number"	"trial_number"
"TRUE"	"fullscreen"	"0"	"1984"	"0.0-0.0"	"gmxfm2"	"600"	"1366"	"chrome"	"108.0.0"	"FALSE"	"Windows 10"	"60.57"	"115"	n/a	n/a	n/a	n/a	n/a	n/a	n/a	n/a	n/a	n/a	n/a	"NULL"	n/a	"NULL"	"NULL"	"NULL"	n/a	n/a	n/a	n/a	n/a	n/a	n/a	n/a	n/a	n/a	n/a
n/a	"browser-check"	"1"	"2992"	"0.0-1.0"	"gmxfm2"	"600"	"1366"	"chrome"	"108.0.0"	"FALSE"	"Windows 10"	"60.57"	"115"	"1366"	"600"	"TRUE"	"TRUE"	"TRUE"	"TRUE"	"browser_info"	"1.0"	"28/12/2022"	"18:05:12"	n/a	"NULL"	n/a	"NULL"	"NULL"	"NULL"	n/a	n/a	n/a	n/a	n/a	n/a	n/a	n/a	n/a	n/a	n/a
n/a	"survey-text"	"2"	"8952"	"0.0-2.0"	"gmxfm2"	"600"	"1366"	"chrome"	"108.0.0"	"FALSE"	"Windows 10"	"60.57"	"115"	n/a	n/a	n/a	n/a	n/a	n/a	"subject_id"	n/a	n/a	n/a	"5957"	"list(subject_id = \"115\")"	n/a	"NULL"	"NULL"	"NULL"	n/a	n/a	n/a	n/a	n/a	n/a	n/a	n/a	n/a	n/a	n/a
"TRUE"	"preload"	"3"	"8962"	"0.0-3.0"	"gmxfm2"	"600"	"1366"	"chrome"	"108.0.0"	"FALSE"	"Windows 10"	"60.57"	"115"	n/a	n/a	n/a	n/a	n/a	n/a	n/a	n/a	n/a	n/a	n/a	"NULL"	"FALSE"	"list()"	"list()"	"list()"	n/a	n/a	n/a	n/a	n/a	n/a	n/a	n/a	n/a	n/a	n/a
n/a	"html-button-response"	"4"	"54632"	"0.0-4.0-0.0"	"gmxfm2"	"600"	"1366"	"chrome"	"108.0.0"	"FALSE"	"Windows 10"	"60.57"	"115"	n/a	n/a	n/a	n/a	n/a	n/a	"illusion_instructions"	n/a	n/a	n/a	"45668"	"0"	n/a	"NULL"	"NULL"	"NULL"	"<p><b>Illusion Game</b></p><p>In this game of speed and reflex, you will need to make <b>visual judgments</b> (for instance, which circle is the biggest, or which line is the longest), as fast and as correctly as possible, while <b>resisting different visual illusions</b>.</p><p>We are going to start with some examples of all the illusions you will encounter in the game.</p>"	n/a	n/a	n/a	n/a	n/a	n/a	n/a	n/a	n/a	n/a
"TRUE"	"preload"	"5"	"54650"	"0.0-4.0-1.0-0.0"	"gmxfm2"	"600"	"1366"	"chrome"	"108.0.0"	"FALSE"	"Windows 10"	"60.57"	"115"	n/a	n/a	n/a	n/a	n/a	n/a	n/a	n/a	n/a	n/a	n/a	"NULL"	"FALSE"	"list()"	"list()"	"list()"	n/a	n/a	n/a	n/a	n/a	n/a	n/a	n/a	n/a	n/a	n/a
n/a	"html-keyboard-response"	"6"	"79361"	"0.0-4.0-1.0-1.0"	"gmxfm2"	"600"	"1366"	"chrome"	"108.0.0"	"FALSE"	"Windows 10"	"60.57"	"115"	n/a	n/a	n/a	n/a	n/a	n/a	n/a	n/a	n/a	n/a	"24708"	"enter"	n/a	"NULL"	"NULL"	"NULL"	"<p><b>Practice</b></p><p>In this part, two red circles will appear side by side on the screen.</p><p>Your task is to select which <b>red circle is bigger</b> in size as fast as you can, without making errors.</p><p>Don't get distracted by the surrounding black circles around the red circles!</p><p>Press <b>the LEFT or the RIGHT arrow</b> to indicate which is the bigger <b>red circle.</b></p><div style='float: center'><img src='materials/instructions/Ebbinghaus_Demo.png' height='300'></img><p><img src='utils/answer/answer_leftright_keyboard.PNG' height='150'></img></p><p class='small'>In this example, the correct answer is the <b>LEFT arrow</b>.</p></div><p>Are you ready? <b>Press ENTER to start</b></p>"	n/a	n/a	n/a	n/a	n/a	n/a	n/a	n/a	n/a	n/a
n/a	"html-keyboard-response"	"7"	"81317"	"0.0-4.0-1.0-2.0-0.0"	"gmxfm2"	"600"	"1366"	"chrome"	"108.0.0"	"FALSE"	"Windows 10"	"60.57"	"115"	n/a	n/a	n/a	n/a	n/a	n/a	"fixation"	n/a	n/a	n/a	n/a	"NULL"	n/a	"NULL"	"NULL"	"NULL"	"<p style=\"color: black; font-size: 80px; padding-left: 39%; padding-right: 24%; padding-top: 11%; padding-bottom: 11%\">+</p>"	"1424"	n/a	n/a	n/a	n/a	n/a	n/a	n/a	n/a	n/a
n/a	"image-keyboard-response"	"8"	"82823"	"0.0-4.0-1.0-2.0-1.0"	"gmxfm2"	"600"	"1366"	"chrome"	"108.0.0"	"FALSE"	"Windows 10"	"60.57"	"115"	n/a	n/a	n/a	n/a	n/a	n/a	"Trial"	n/a	n/a	n/a	"1493"	"arrowleft"	n/a	"NULL"	"NULL"	"NULL"	"stimuli/Ebbinghaus_0000000_1.40000.png"	n/a	"Ebbinghaus"	"arrowleft"	"1956"	"TRUE"	"Ebbinghaus"	"000000000000"	"1.4000000000"	"1"	"1"
n/a	"html-keyboard-response"	"9"	"84177"	"0.0-4.0-1.0-2.0-0.1"	"gmxfm2"	"600"	"1366"	"chrome"	"108.0.0"	"FALSE"	"Windows 10"	"60.57"	"115"	n/a	n/a	n/a	n/a	n/a	n/a	"fixation"	n/a	n/a	n/a	n/a	"NULL"	n/a	"NULL"	"NULL"	"NULL"	"<p style=\"color: black; font-size: 80px; padding-left: 19%; padding-right: 28%; padding-top: 12%; padding-bottom: 17%\">+</p>"	"1350"	n/a	n/a	n/a	n/a	n/a	n/a	n/a	n/a	n/a
n/a	"image-keyboard-response"	"10"	"84741"	"0.0-4.0-1.0-2.0-1.1"	"gmxfm2"	"600"	"1366"	"chrome"	"108.0.0"	"FALSE"	"Windows 10"	"60.57"	"115"	n/a	n/a	n/a	n/a	n/a	n/a	"Trial"	n/a	n/a	n/a	"563"	"arrowleft"	n/a	"NULL"	"NULL"	"NULL"	"stimuli/Ebbinghaus_1000000_1.40000.png"	n/a	"Ebbinghaus"	"arrowleft"	"1354"	"TRUE"	"Ebbinghaus"	"100000000000"	"1.4000000000"	"1"	"2"
n/a	"html-keyboard-response"	"11"	"86206"	"0.0-4.0-1.0-2.0-0.2"	"gmxfm2"	"600"	"1366"	"chrome"	"108.0.0"	"FALSE"	"Windows 10"	"60.57"	"115"	n/a	n/a	n/a	n/a	n/a	n/a	"fixation"	n/a	n/a	n/a	n/a	"NULL"	n/a	"NULL"	"NULL"	"NULL"	"<p style=\"color: black; font-size: 80px; padding-left: 11%; padding-right: 14%; padding-top: 17%; padding-bottom: 16%\">+</p>"	"1447"	n/a	n/a	n/a	n/a	n/a	n/a	n/a	n/a	n/a
n/a	"image-keyboard-response"	"12"	"87026"	"0.0-4.0-1.0-2.0-1.2"	"gmxfm2"	"600"	"1366"	"chrome"	"108.0.0"	"FALSE"	"Windows 10"	"60.57"	"115"	n/a	n/a	n/a	n/a	n/a	n/a	"Trial"	n/a	n/a	n/a	"819"	"arrowleft"	n/a	"NULL"	"NULL"	"NULL"	"stimuli/Ebbinghaus_-100000_1.40000.png"	n/a	"Ebbinghaus"	"arrowleft"	"1465"	"TRUE"	"Ebbinghaus"	"-10000000000"	"1.4000000000"	"1"	"3"
n/a	"html-keyboard-response"	"13"	"88394"	"0.0-4.0-1.0-2.0-0.3"	"gmxfm2"	"600"	"1366"	"chrome"	"108.0.0"	"FALSE"	"Windows 10"	"60.57"	"115"	n/a	n/a	n/a	n/a	n/a	n/a	"fixation"	n/a	n/a	n/a	n/a	"NULL"	n/a	"NULL"	"NULL"	"NULL"	"<p style=\"color: black; font-size: 80px; padding-left: 16%; padding-right: 6%; padding-top: 13%; padding-bottom: 35%\">+</p>"	"1349"	n/a	n/a	n/a	n/a	n/a	n/a	n/a	n/a	n/a
n/a	"image-keyboard-response"	"14"	"89001"	"0.0-4.0-1.0-2.0-1.3"	"gmxfm2"	"600"	"1366"	"chrome"	"108.0.0"	"FALSE"	"Windows 10"	"60.57"	"115"	n/a	n/a	n/a	n/a	n/a	n/a	"Trial"	n/a	n/a	n/a	"606"	"arrowright"	n/a	"NULL"	"NULL"	"NULL"	"stimuli/Ebbinghaus_-100000_-1.4000.png"	n/a	"Ebbinghaus"	"arrowright"	"1368"	"TRUE"	"Ebbinghaus"	"-10000000000"	"-1.400000000"	"1"	"4"
n/a	"html-keyboard-response"	"15"	"90341"	"0.0-4.0-1.0-2.0-0.4"	"gmxfm2"	"600"	"1366"	"chrome"	"108.0.0"	"FALSE"	"Windows 10"	"60.57"	"115"	n/a	n/a	n/a	n/a	n/a	n/a	"fixation"	n/a	n/a	n/a	n/a	"NULL"	n/a	"NULL"	"NULL"	"NULL"	"<p style=\"color: black; font-size: 80px; padding-left: 8%; padding-right: 49%; padding-top: 4%; padding-bottom: 12%\">+</p>"	"1328"	n/a	n/a	n/a	n/a	n/a	n/a	n/a	n/a	n/a
n/a	"image-keyboard-response"	"16"	"90914"	"0.0-4.0-1.0-2.0-1.4"	"gmxfm2"	"600"	"1366"	"chrome"	"108.0.0"	"FALSE"	"Windows 10"	"60.57"	"115"	n/a	n/a	n/a	n/a	n/a	n/a	"Trial"	n/a	n/a	n/a	"572"	"arrowright"	n/a	"NULL"	"NULL"	"NULL"	"stimuli/Ebbinghaus_0000000_-1.4000.png"	n/a	"Ebbinghaus"	"arrowright"	"1340"	"TRUE"	"Ebbinghaus"	"000000000000"	"-1.400000000"	"1"	"5"
n/a	"html-keyboard-response"	"17"	"92224"	"0.0-4.0-1.0-2.0-0.5"	"gmxfm2"	"600"	"1366"	"chrome"	"108.0.0"	"FALSE"	"Windows 10"	"60.57"	"115"	n/a	n/a	n/a	n/a	n/a	n/a	"fixation"	n/a	n/a	n/a	n/a	"NULL"	n/a	"NULL"	"NULL"	"NULL"	"<p style=\"color: black; font-size: 80px; padding-left: 22%; padding-right: 38%; padding-top: 43%; padding-bottom: 45%\">+</p>"	"1293"	n/a	n/a	n/a	n/a	n/a	n/a	n/a	n/a	n/a
n/a	"image-keyboard-response"	"18"	"92674"	"0.0-4.0-1.0-2.0-1.5"	"gmxfm2"	"600"	"1366"	"chrome"	"108.0.0"	"FALSE"	"Windows 10"	"60.57"	"115"	n/a	n/a	n/a	n/a	n/a	n/a	"Trial"	n/a	n/a	n/a	"450"	"arrowright"	n/a	"NULL"	"NULL"	"NULL"	"stimuli/Ebbinghaus_1000000_-1.4000.png"	n/a	"Ebbinghaus"	"arrowright"	"1310"	"TRUE"	"Ebbinghaus"	"100000000000"	"-1.400000000"	"1"	"6"
n/a	"html-button-response"	"19"	"145984"	"0.0-4.0-1.0-3.0"	"gmxfm2"	"600"	"1366"	"chrome"	"108.0.0"	"FALSE"	"Windows 10"	"60.57"	"115"	n/a	n/a	n/a	n/a	n/a	n/a	"practice_block_results"	n/a	n/a	n/a	"53306"	"0"	n/a	"NULL"	"NULL"	"NULL"	"<p style='color:rgb(76,175,80);'> Correct Responses: <b>100.00%</b></p><hr><p style='color:rgb(233,30,99);'> Average Response Time: <b>750.50</b> ms.</p>"	n/a	n/a	n/a	n/a	n/a	n/a	n/a	n/a	n/a	n/a
"TRUE"	"preload"	"20"	"146522"	"0.0-4.0-2.0-0.0"	"gmxfm2"	"600"	"1366"	"chrome"	"108.0.0"	"FALSE"	"Windows 10"	"60.57"	"115"	n/a	n/a	n/a	n/a	n/a	n/a	n/a	n/a	n/a	n/a	n/a	"NULL"	"FALSE"	"list()"	"list()"	"list()"	n/a	n/a	n/a	n/a	n/a	n/a	n/a	n/a	n/a	n/a	n/a
n/a	"html-keyboard-response"	"21"	"163585"	"0.0-4.0-2.0-1.0"	"gmxfm2"	"600"	"1366"	"chrome"	"108.0.0"	"FALSE"	"Windows 10"	"60.57"	"115"	n/a	n/a	n/a	n/a	n/a	n/a	n/a	n/a	n/a	n/a	"17062"	"enter"	n/a	"NULL"	"NULL"	"NULL"	"<p><b>Practice</b></p><p>In this part, two horizontal red lines will appear one above the other.</p><p>Your task is to select which <b>line is longer</b> in length as fast as you can, without making errors.</p><p>Don't get distracted by the surrounding black arrows at the end of the red lines!</p><p>Press <b>the UP or the DOWN arrow</b> to indicate where is the longer <b>red line.</b></p><div style='float: center'><img src='materials/instructions/MullerLyer_Demo.png' height='300'></img><p><img src='utils/answer/answer_updown_keyboard.PNG' height='150'></img></p><p class='small'>In this example, the correct answer is the <b>UP arrow</b>.</p></div><p>Are you ready? <b>Press ENTER to start</b></p>"	n/a	n/a	n/a	n/a	n/a	n/a	n/a	n/a	n/a	n/a
n/a	"html-keyboard-response"	"22"	"165511"	"0.0-4.0-2.0-2.0-0.0"	"gmxfm2"	"600"	"1366"	"chrome"	"108.0.0"	"FALSE"	"Windows 10"	"60.57"	"115"	n/a	n/a	n/a	n/a	n/a	n/a	"fixation"	n/a	n/a	n/a	n/a	"NULL"	n/a	"NULL"	"NULL"	"NULL"	"<p style=\"color: black; font-size: 80px; padding-left: 8%; padding-right: 4%; padding-top: 47%; padding-bottom: 26%\">+</p>"	"1403"	n/a	n/a	n/a	n/a	n/a	n/a	n/a	n/a	n/a
n/a	"image-keyboard-response"	"23"	"165913"	"0.0-4.0-2.0-2.0-1.0"	"gmxfm2"	"600"	"1366"	"chrome"	"108.0.0"	"FALSE"	"Windows 10"	"60.57"	"115"	n/a	n/a	n/a	n/a	n/a	n/a	"Trial"	n/a	n/a	n/a	"401"	"arrowup"	n/a	"NULL"	"NULL"	"NULL"	"stimuli/MullerLyer_-230000_0.70000.png"	n/a	"MullerLyer"	"arrowup"	"1926"	"TRUE"	"MullerLyer"	"-23000000000"	"0.7000000000"	"1"	"7"
n/a	"html-keyboard-response"	"24"	"167222"	"0.0-4.0-2.0-2.0-0.1"	"gmxfm2"	"600"	"1366"	"chrome"	"108.0.0"	"FALSE"	"Windows 10"	"60.57"	"115"	n/a	n/a	n/a	n/a	n/a	n/a	"fixation"	n/a	n/a	n/a	n/a	"NULL"	n/a	"NULL"	"NULL"	"NULL"	"<p style=\"color: black; font-size: 80px; padding-left: 45%; padding-right: 44%; padding-top: 22%; padding-bottom: 10%\">+</p>"	"1290"	n/a	n/a	n/a	n/a	n/a	n/a	n/a	n/a	n/a
n/a	"image-keyboard-response"	"25"	"167822"	"0.0-4.0-2.0-2.0-1.1"	"gmxfm2"	"600"	"1366"	"chrome"	"108.0.0"	"FALSE"	"Windows 10"	"60.57"	"115"	n/a	n/a	n/a	n/a	n/a	n/a	"Trial"	n/a	n/a	n/a	"599"	"arrowdown"	n/a	"NULL"	"NULL"	"NULL"	"stimuli/MullerLyer_2300000_-0.7000.png"	n/a	"MullerLyer"	"arrowdown"	"1309"	"TRUE"	"MullerLyer"	"230000000000"	"-0.700000000"	"1"	"8"
n/a	"html-keyboard-response"	"26"	"168983"	"0.0-4.0-2.0-2.0-0.2"	"gmxfm2"	"600"	"1366"	"chrome"	"108.0.0"	"FALSE"	"Windows 10"	"60.57"	"115"	n/a	n/a	n/a	n/a	n/a	n/a	"fixation"	n/a	n/a	n/a	n/a	"NULL"	n/a	"NULL"	"NULL"	"NULL"	"<p style=\"color: black; font-size: 80px; padding-left: 27%; padding-right: 8%; padding-top: 10%; padding-bottom: 11%\">+</p>"	"1145"	n/a	n/a	n/a	n/a	n/a	n/a	n/a	n/a	n/a
n/a	"image-keyboard-response"	"27"	"169431"	"0.0-4.0-2.0-2.0-1.2"	"gmxfm2"	"600"	"1366"	"chrome"	"108.0.0"	"FALSE"	"Windows 10"	"60.57"	"115"	n/a	n/a	n/a	n/a	n/a	n/a	"Trial"	n/a	n/a	n/a	"448"	"arrowdown"	n/a	"NULL"	"NULL"	"NULL"	"stimuli/MullerLyer_0000000_-0.7000.png"	n/a	"MullerLyer"	"arrowdown"	"1161"	"TRUE"	"MullerLyer"	"000000000000"	"-0.700000000"	"1"	"9"
n/a	"html-keyboard-response"	"28"	"170465"	"0.0-4.0-2.0-2.0-0.3"	"gmxfm2"	"600"	"1366"	"chrome"	"108.0.0"	"FALSE"	"Windows 10"	"60.57"	"115"	n/a	n/a	n/a	n/a	n/a	n/a	"fixation"	n/a	n/a	n/a	n/a	"NULL"	n/a	"NULL"	"NULL"	"NULL"	"<p style=\"color: black; font-size: 80px; padding-left: 33%; padding-right: 7%; padding-top: 38%; padding-bottom: 2%\">+</p>"	"1023"	n/a	n/a	n/a	n/a	n/a	n/a	n/a	n/a	n/a
n/a	"image-keyboard-response"	"29"	"170885"	"0.0-4.0-2.0-2.0-1.3"	"gmxfm2"	"600"	"1366"	"chrome"	"108.0.0"	"FALSE"	"Windows 10"	"60.57"	"115"	n/a	n/a	n/a	n/a	n/a	n/a	"Trial"	n/a	n/a	n/a	"419"	"arrowup"	n/a	"NULL"	"NULL"	"NULL"	"stimuli/MullerLyer_0000000_0.70000.png"	n/a	"MullerLyer"	"arrowup"	"1034"	"TRUE"	"MullerLyer"	"000000000000"	"0.7000000000"	"1"	"10"
n/a	"html-keyboard-response"	"30"	"172349"	"0.0-4.0-2.0-2.0-0.4"	"gmxfm2"	"600"	"1366"	"chrome"	"108.0.0"	"FALSE"	"Windows 10"	"60.57"	"115"	n/a	n/a	n/a	n/a	n/a	n/a	"fixation"	n/a	n/a	n/a	n/a	"NULL"	n/a	"NULL"	"NULL"	"NULL"	"<p style=\"color: black; font-size: 80px; padding-left: 14%; padding-right: 28%; padding-top: 47%; padding-bottom: 4%\">+</p>"	"1452"	n/a	n/a	n/a	n/a	n/a	n/a	n/a	n/a	n/a
n/a	"image-keyboard-response"	"31"	"172910"	"0.0-4.0-2.0-2.0-1.4"	"gmxfm2"	"600"	"1366"	"chrome"	"108.0.0"	"FALSE"	"Windows 10"	"60.57"	"115"	n/a	n/a	n/a	n/a	n/a	n/a	"Trial"	n/a	n/a	n/a	"561"	"arrowup"	n/a	"NULL"	"NULL"	"NULL"	"stimuli/MullerLyer_2300000_0.70000.png"	n/a	"MullerLyer"	"arrowup"	"1464"	"TRUE"	"MullerLyer"	"230000000000"	"0.7000000000"	"1"	"11"
n/a	"html-keyboard-response"	"32"	"174038"	"0.0-4.0-2.0-2.0-0.5"	"gmxfm2"	"600"	"1366"	"chrome"	"108.0.0"	"FALSE"	"Windows 10"	"60.57"	"115"	n/a	n/a	n/a	n/a	n/a	n/a	"fixation"	n/a	n/a	n/a	n/a	"NULL"	n/a	"NULL"	"NULL"	"NULL"	"<p style=\"color: black; font-size: 80px; padding-left: 20%; padding-right: 49%; padding-top: 3%; padding-bottom: 41%\">+</p>"	"1122"	n/a	n/a	n/a	n/a	n/a	n/a	n/a	n/a	n/a
n/a	"image-keyboard-response"	"33"	"174509"	"0.0-4.0-2.0-2.0-1.5"	"gmxfm2"	"600"	"1366"	"chrome"	"108.0.0"	"FALSE"	"Windows 10"	"60.57"	"115"	n/a	n/a	n/a	n/a	n/a	n/a	"Trial"	n/a	n/a	n/a	"470"	"arrowdown"	n/a	"NULL"	"NULL"	"NULL"	"stimuli/MullerLyer_-230000_-0.7000.png"	n/a	"MullerLyer"	"arrowdown"	"1128"	"TRUE"	"MullerLyer"	"-23000000000"	"-0.700000000"	"1"	"12"
n/a	"html-button-response"	"34"	"184384"	"0.0-4.0-2.0-3.0"	"gmxfm2"	"600"	"1366"	"chrome"	"108.0.0"	"FALSE"	"Windows 10"	"60.57"	"115"	n/a	n/a	n/a	n/a	n/a	n/a	"practice_block_results"	n/a	n/a	n/a	"9873"	"0"	n/a	"NULL"	"NULL"	"NULL"	"<p style='color:rgb(76,175,80);'> Correct Responses: <b>100.00%</b></p><hr><p style='color:rgb(233,30,99);'> Average Response Time: <b>483.00</b> ms.</p>"	n/a	n/a	n/a	n/a	n/a	n/a	n/a	n/a	n/a	n/a
"TRUE"	"preload"	"35"	"184906"	"0.0-4.0-3.0-0.0"	"gmxfm2"	"600"	"1366"	"chrome"	"108.0.0"	"FALSE"	"Windows 10"	"60.57"	"115"	n/a	n/a	n/a	n/a	n/a	n/a	n/a	n/a	n/a	n/a	n/a	"NULL"	"FALSE"	"list()"	"list()"	"list()"	n/a	n/a	n/a	n/a	n/a	n/a	n/a	n/a	n/a	n/a	n/a
n/a	"html-keyboard-response"	"36"	"202448"	"0.0-4.0-3.0-1.0"	"gmxfm2"	"600"	"1366"	"chrome"	"108.0.0"	"FALSE"	"Windows 10"	"60.57"	"115"	n/a	n/a	n/a	n/a	n/a	n/a	n/a	n/a	n/a	n/a	"17540"	"enter"	n/a	"NULL"	"NULL"	"NULL"	"<p><b>Practice</b></p><p>In this part, two red lines will appear side by side.</p><p>Your task is to tell <b>which line is longer</b> in length, regardless of their orientation, as fast as you can, and without making errors.</p><p>Don't get distracted by the orientation of the lines!</p><p>Press <b>the LEFT or the RIGHT arrow</b> to indicate which <b>line is the longer one.</b></p><div style='float: center'><img src='materials/instructions/VerticalHorizontal_Demo.png' height='300'></img><p><img src='utils/answer/answer_leftright_keyboard.PNG' height='150'></img></p><p class='small'>In this example, the correct answer is the <b>LEFT arrow</b>.</p></div><p>Are you ready? <b>Press ENTER to start</b></p>"	n/a	n/a	n/a	n/a	n/a	n/a	n/a	n/a	n/a	n/a
n/a	"html-keyboard-response"	"37"	"204286"	"0.0-4.0-3.0-2.0-0.0"	"gmxfm2"	"600"	"1366"	"chrome"	"108.0.0"	"FALSE"	"Windows 10"	"60.57"	"115"	n/a	n/a	n/a	n/a	n/a	n/a	"fixation"	n/a	n/a	n/a	n/a	"NULL"	n/a	"NULL"	"NULL"	"NULL"	"<p style=\"color: black; font-size: 80px; padding-left: 36%; padding-right: 20%; padding-top: 12%; padding-bottom: 44%\">+</p>"	"1300"	n/a	n/a	n/a	n/a	n/a	n/a	n/a	n/a	n/a
n/a	"image-keyboard-response"	"38"	"205584"	"0.0-4.0-3.0-2.0-1.0"	"gmxfm2"	"600"	"1366"	"chrome"	"108.0.0"	"FALSE"	"Windows 10"	"60.57"	"115"	n/a	n/a	n/a	n/a	n/a	n/a	"Trial"	n/a	n/a	n/a	"1297"	"arrowleft"	n/a	"NULL"	"NULL"	"NULL"	"stimuli/VerticalHorizontal_3300000_0.90000.png"	n/a	"VerticalHorizontal"	"arrowleft"	"1838"	"TRUE"	"VerticalHorizontal"	"330000000000"	"0.9000000000"	"1"	"13"
n/a	"html-keyboard-response"	"39"	"206758"	"0.0-4.0-3.0-2.0-0.1"	"gmxfm2"	"600"	"1366"	"chrome"	"108.0.0"	"FALSE"	"Windows 10"	"60.57"	"115"	n/a	n/a	n/a	n/a	n/a	n/a	"fixation"	n/a	n/a	n/a	n/a	"NULL"	n/a	"NULL"	"NULL"	"NULL"	"<p style=\"color: black; font-size: 80px; padding-left: 5%; padding-right: 25%; padding-top: 24%; padding-bottom: 17%\">+</p>"	"1157"	n/a	n/a	n/a	n/a	n/a	n/a	n/a	n/a	n/a
n/a	"image-keyboard-response"	"40"	"207190"	"0.0-4.0-3.0-2.0-1.1"	"gmxfm2"	"600"	"1366"	"chrome"	"108.0.0"	"FALSE"	"Windows 10"	"60.57"	"115"	n/a	n/a	n/a	n/a	n/a	n/a	"Trial"	n/a	n/a	n/a	"431"	"arrowright"	n/a	"NULL"	"NULL"	"NULL"	"stimuli/VerticalHorizontal_3300000_-0.9000.png"	n/a	"VerticalHorizontal"	"arrowright"	"1174"	"TRUE"	"VerticalHorizontal"	"330000000000"	"-0.900000000"	"1"	"14"
n/a	"html-keyboard-response"	"41"	"208564"	"0.0-4.0-3.0-2.0-0.2"	"gmxfm2"	"600"	"1366"	"chrome"	"108.0.0"	"FALSE"	"Windows 10"	"60.57"	"115"	n/a	n/a	n/a	n/a	n/a	n/a	"fixation"	n/a	n/a	n/a	n/a	"NULL"	n/a	"NULL"	"NULL"	"NULL"	"<p style=\"color: black; font-size: 80px; padding-left: 28%; padding-right: 43%; padding-top: 18%; padding-bottom: 2%\">+</p>"	"1368"	n/a	n/a	n/a	n/a	n/a	n/a	n/a	n/a	n/a
n/a	"image-keyboard-response"	"42"	"208966"	"0.0-4.0-3.0-2.0-1.2"	"gmxfm2"	"600"	"1366"	"chrome"	"108.0.0"	"FALSE"	"Windows 10"	"60.57"	"115"	n/a	n/a	n/a	n/a	n/a	n/a	"Trial"	n/a	n/a	n/a	"401"	"arrowleft"	n/a	"NULL"	"NULL"	"NULL"	"stimuli/VerticalHorizontal_-330000_0.90000.png"	n/a	"VerticalHorizontal"	"arrowleft"	"1374"	"TRUE"	"VerticalHorizontal"	"-33000000000"	"0.9000000000"	"1"	"15"
n/a	"html-keyboard-response"	"43"	"209985"	"0.0-4.0-3.0-2.0-0.3"	"gmxfm2"	"600"	"1366"	"chrome"	"108.0.0"	"FALSE"	"Windows 10"	"60.57"	"115"	n/a	n/a	n/a	n/a	n/a	n/a	"fixation"	n/a	n/a	n/a	n/a	"NULL"	n/a	"NULL"	"NULL"	"NULL"	"<p style=\"color: black; font-size: 80px; padding-left: 40%; padding-right: 8%; padding-top: 40%; padding-bottom: 35%\">+</p>"	"1010"	n/a	n/a	n/a	n/a	n/a	n/a	n/a	n/a	n/a
n/a	"image-keyboard-response"	"44"	"210385"	"0.0-4.0-3.0-2.0-1.3"	"gmxfm2"	"600"	"1366"	"chrome"	"108.0.0"	"FALSE"	"Windows 10"	"60.57"	"115"	n/a	n/a	n/a	n/a	n/a	n/a	"Trial"	n/a	n/a	n/a	"400"	"arrowright"	n/a	"NULL"	"NULL"	"NULL"	"stimuli/VerticalHorizontal_-330000_-0.9000.png"	n/a	"VerticalHorizontal"	"arrowright"	"1019"	"TRUE"	"VerticalHorizontal"	"-33000000000"	"-0.900000000"	"1"	"16"
n/a	"html-keyboard-response"	"45"	"211675"	"0.0-4.0-3.0-2.0-0.4"	"gmxfm2"	"600"	"1366"	"chrome"	"108.0.0"	"FALSE"	"Windows 10"	"60.57"	"115"	n/a	n/a	n/a	n/a	n/a	n/a	"fixation"	n/a	n/a	n/a	n/a	"NULL"	n/a	"NULL"	"NULL"	"NULL"	"<p style=\"color: black; font-size: 80px; padding-left: 45%; padding-right: 16%; padding-top: 38%; padding-bottom: 10%\">+</p>"	"1273"	n/a	n/a	n/a	n/a	n/a	n/a	n/a	n/a	n/a
n/a	"image-keyboard-response"	"46"	"212168"	"0.0-4.0-3.0-2.0-1.4"	"gmxfm2"	"600"	"1366"	"chrome"	"108.0.0"	"FALSE"	"Windows 10"	"60.57"	"115"	n/a	n/a	n/a	n/a	n/a	n/a	"Trial"	n/a	n/a	n/a	"492"	"arrowright"	n/a	"NULL"	"NULL"	"NULL"	"stimuli/VerticalHorizontal_0000000_-0.9000.png"	n/a	"VerticalHorizontal"	"arrowright"	"1290"	"TRUE"	"VerticalHorizontal"	"000000000000"	"-0.900000000"	"1"	"17"
n/a	"html-keyboard-response"	"47"	"213271"	"0.0-4.0-3.0-2.0-0.5"	"gmxfm2"	"600"	"1366"	"chrome"	"108.0.0"	"FALSE"	"Windows 10"	"60.57"	"115"	n/a	n/a	n/a	n/a	n/a	n/a	"fixation"	n/a	n/a	n/a	n/a	"NULL"	n/a	"NULL"	"NULL"	"NULL"	"<p style=\"color: black; font-size: 80px; padding-left: 33%; padding-right: 31%; padding-top: 17%; padding-bottom: 5%\">+</p>"	"1088"	n/a	n/a	n/a	n/a	n/a	n/a	n/a	n/a	n/a
n/a	"image-keyboard-response"	"48"	"213726"	"0.0-4.0-3.0-2.0-1.5"	"gmxfm2"	"600"	"1366"	"chrome"	"108.0.0"	"FALSE"	"Windows 10"	"60.57"	"115"	n/a	n/a	n/a	n/a	n/a	n/a	"Trial"	n/a	n/a	n/a	"454"	"arrowleft"	n/a	"NULL"	"NULL"	"NULL"	"stimuli/VerticalHorizontal_0000000_0.90000.png"	n/a	"VerticalHorizontal"	"arrowleft"	"1103"	"TRUE"	"VerticalHorizontal"	"000000000000"	"0.9000000000"	"1"	"18"
n/a	"html-button-response"	"49"	"219544"	"0.0-4.0-3.0-3.0"	"gmxfm2"	"600"	"1366"	"chrome"	"108.0.0"	"FALSE"	"Windows 10"	"60.57"	"115"	n/a	n/a	n/a	n/a	n/a	n/a	"practice_block_results"	n/a	n/a	n/a	"5817"	"0"	n/a	"NULL"	"NULL"	"NULL"	"<p style='color:rgb(76,175,80);'> Correct Responses: <b>100.00%</b></p><hr><p style='color:rgb(233,30,99);'> Average Response Time: <b>579.17</b> ms.</p>"	n/a	n/a	n/a	n/a	n/a	n/a	n/a	n/a	n/a	n/a
n/a	"html-button-response"	"50"	"271016"	"0.0-4.0-4.0"	"gmxfm2"	"600"	"1366"	"chrome"	"108.0.0"	"FALSE"	"Windows 10"	"60.57"	"115"	n/a	n/a	n/a	n/a	n/a	n/a	"practice_debrief"	n/a	n/a	n/a	"50966"	"0"	n/a	"NULL"	"NULL"	"NULL"	"<p><b>TRAINING COMPLETED</b></p><p>In the next phase, there will be more trials, and some might be harder too.<br> Moreover, after each illusion block, a <b>score</b> will be calculated based on speed (time you took to answer) and accuracy (number of errors).</p><p>Try to keep up a high score!</p><br><p>Note that it can be <i>really</i> challenging at times, so you will need to rely on your <b>intuition</b> and gut feeling to answer as fast as you can without making errors.</p><p>Each illusion block will be repeated two times (so that you have the opportunity to improve your score), but the order of the blocks is random.</p><p>Remember, your goal is to be as <b>fast</b> and <b>accurate</b> as possible. Good luck!</p><br>"	n/a	n/a	n/a	n/a	n/a	n/a	n/a	n/a	n/a	n/a
"TRUE"	"preload"	"51"	"271179"	"0.0-5.0-0.0"	"gmxfm2"	"600"	"1366"	"chrome"	"108.0.0"	"FALSE"	"Windows 10"	"60.57"	"115"	n/a	n/a	n/a	n/a	n/a	n/a	n/a	n/a	n/a	n/a	n/a	"NULL"	"FALSE"	"list()"	"list()"	"list()"	n/a	n/a	n/a	n/a	n/a	n/a	n/a	n/a	n/a	n/a	n/a
n/a	"html-keyboard-response"	"52"	"284225"	"0.0-5.0-1.0"	"gmxfm2"	"600"	"1366"	"chrome"	"108.0.0"	"FALSE"	"Windows 10"	"60.57"	"115"	n/a	n/a	n/a	n/a	n/a	n/a	n/a	n/a	n/a	n/a	"13046"	"enter"	n/a	"NULL"	"NULL"	"NULL"	"<p><b>Part 1/6</b></p><p>In this part, two red circles will appear side by side on the screen.</p><p>Your task is to select which <b>red circle is bigger</b> in size as fast as you can, without making errors.</p><p>Don't get distracted by the surrounding black circles around the red circles!</p><p>Press <b>the LEFT or the RIGHT arrow</b> to indicate which is the bigger <b>red circle.</b></p><div style='float: center'><img src='materials/instructions/Ebbinghaus_Demo.png' height='300'></img><p><img src='utils/answer/answer_leftright_keyboard.PNG' height='150'></img></p><p class='small'>In this example, the correct answer is the <b>LEFT arrow</b>.</p></div><p>Are you ready? <b>Press ENTER to start</b></p>"	n/a	n/a	n/a	n/a	n/a	n/a	n/a	n/a	n/a	n/a
n/a	"html-keyboard-response"	"53"	"286048"	"0.0-5.0-2.0-0.0"	"gmxfm2"	"600"	"1366"	"chrome"	"108.0.0"	"FALSE"	"Windows 10"	"60.57"	"115"	n/a	n/a	n/a	n/a	n/a	n/a	"fixation"	n/a	n/a	n/a	n/a	"NULL"	n/a	"NULL"	"NULL"	"NULL"	"<p style=\"color: black; font-size: 80px; padding-left: 47%; padding-right: 49%; padding-top: 46%; padding-bottom: 36%\">+</p>"	"1298"	n/a	n/a	n/a	n/a	n/a	n/a	n/a	n/a	n/a
n/a	"image-keyboard-response"	"54"	"287061"	"0.0-5.0-2.0-1.0"	"gmxfm2"	"600"	"1366"	"chrome"	"108.0.0"	"FALSE"	"Windows 10"	"60.57"	"115"	n/a	n/a	n/a	n/a	n/a	n/a	"Trial"	n/a	n/a	n/a	"1012"	"arrowleft"	n/a	"NULL"	"NULL"	"NULL"	"stimuli/Ebbinghaus_-0.87143_0.15857.png"	n/a	"Ebbinghaus"	"arrowleft"	"1823"	"TRUE"	"Ebbinghaus"	"-0.871430000"	"0.1585700000"	"1"	"19"
n/a	"html-keyboard-response"	"55"	"288486"	"0.0-5.0-2.0-0.1"	"gmxfm2"	"600"	"1366"	"chrome"	"108.0.0"	"FALSE"	"Windows 10"	"60.57"	"115"	n/a	n/a	n/a	n/a	n/a	n/a	"fixation"	n/a	n/a	n/a	n/a	"NULL"	n/a	"NULL"	"NULL"	"NULL"	"<p style=\"color: black; font-size: 80px; padding-left: 17%; padding-right: 22%; padding-top: 34%; padding-bottom: 45%\">+</p>"	"1416"	n/a	n/a	n/a	n/a	n/a	n/a	n/a	n/a	n/a
n/a	"image-keyboard-response"	"56"	"289337"	"0.0-5.0-2.0-1.1"	"gmxfm2"	"600"	"1366"	"chrome"	"108.0.0"	"FALSE"	"Windows 10"	"60.57"	"115"	n/a	n/a	n/a	n/a	n/a	n/a	"Trial"	n/a	n/a	n/a	"850"	"arrowright"	n/a	"NULL"	"NULL"	"NULL"	"stimuli/Ebbinghaus_-0.35714_-0.2150.png"	n/a	"Ebbinghaus"	"arrowright"	"1425"	"TRUE"	"Ebbinghaus"	"-0.357140000"	"-0.215000000"	"1"	"20"
n/a	"html-keyboard-response"	"57"	"290380"	"0.0-5.0-2.0-0.2"	"gmxfm2"	"600"	"1366"	"chrome"	"108.0.0"	"FALSE"	"Windows 10"	"60.57"	"115"	n/a	n/a	n/a	n/a	n/a	n/a	"fixation"	n/a	n/a	n/a	n/a	"NULL"	n/a	"NULL"	"NULL"	"NULL"	"<p style=\"color: black; font-size: 80px; padding-left: 6%; padding-right: 37%; padding-top: 13%; padding-bottom: 50%\">+</p>"	"1026"	n/a	n/a	n/a	n/a	n/a	n/a	n/a	n/a	n/a
n/a	"image-keyboard-response"	"58"	"290938"	"0.0-5.0-2.0-1.2"	"gmxfm2"	"600"	"1366"	"chrome"	"108.0.0"	"FALSE"	"Windows 10"	"60.57"	"115"	n/a	n/a	n/a	n/a	n/a	n/a	"Trial"	n/a	n/a	n/a	"557"	"arrowleft"	n/a	"NULL"	"NULL"	"NULL"	"stimuli/Ebbinghaus_0.87143_0.28000.png"	n/a	"Ebbinghaus"	"arrowleft"	"1043"	"TRUE"	"Ebbinghaus"	"0.8714300000"	"0.2800000000"	"1"	"21"
n/a	"html-keyboard-response"	"59"	"292160"	"0.0-5.0-2.0-0.3"	"gmxfm2"	"600"	"1366"	"chrome"	"108.0.0"	"FALSE"	"Windows 10"	"60.57"	"115"	n/a	n/a	n/a	n/a	n/a	n/a	"fixation"	n/a	n/a	n/a	n/a	"NULL"	n/a	"NULL"	"NULL"	"NULL"	"<p style=\"color: black; font-size: 80px; padding-left: 12%; padding-right: 10%; padding-top: 10%; padding-bottom: 36%\">+</p>"	"1207"	n/a	n/a	n/a	n/a	n/a	n/a	n/a	n/a	n/a
n/a	"image-keyboard-response"	"60"	"293114"	"0.0-5.0-2.0-1.3"	"gmxfm2"	"600"	"1366"	"chrome"	"108.0.0"	"FALSE"	"Windows 10"	"60.57"	"115"	n/a	n/a	n/a	n/a	n/a	n/a	"Trial"	n/a	n/a	n/a	"952"	"arrowright"	n/a	"NULL"	"NULL"	"NULL"	"stimuli/Ebbinghaus_0.87143_0.15857.png"	n/a	"Ebbinghaus"	"arrowleft"	"1222"	"FALSE"	"Ebbinghaus"	"0.8714300000"	"0.1585700000"	"1"	"22"
n/a	"html-keyboard-response"	"61"	"294191"	"0.0-5.0-2.0-0.4"	"gmxfm2"	"600"	"1366"	"chrome"	"108.0.0"	"FALSE"	"Windows 10"	"60.57"	"115"	n/a	n/a	n/a	n/a	n/a	n/a	"fixation"	n/a	n/a	n/a	n/a	"NULL"	n/a	"NULL"	"NULL"	"NULL"	"<p style=\"color: black; font-size: 80px; padding-left: 24%; padding-right: 9%; padding-top: 28%; padding-bottom: 13%\">+</p>"	"1064"	n/a	n/a	n/a	n/a	n/a	n/a	n/a	n/a	n/a
n/a	"image-keyboard-response"	"62"	"294800"	"0.0-5.0-2.0-1.4"	"gmxfm2"	"600"	"1366"	"chrome"	"108.0.0"	"FALSE"	"Windows 10"	"60.57"	"115"	n/a	n/a	n/a	n/a	n/a	n/a	"Trial"	n/a	n/a	n/a	"607"	"arrowright"	n/a	"NULL"	"NULL"	"NULL"	"stimuli/Ebbinghaus_0.87143_-0.11071.png"	n/a	"Ebbinghaus"	"arrowright"	"1077"	"TRUE"	"Ebbinghaus"	"0.8714300000"	"-0.110710000"	"1"	"23"
n/a	"html-keyboard-response"	"63"	"295818"	"0.0-5.0-2.0-0.5"	"gmxfm2"	"600"	"1366"	"chrome"	"108.0.0"	"FALSE"	"Windows 10"	"60.57"	"115"	n/a	n/a	n/a	n/a	n/a	n/a	"fixation"	n/a	n/a	n/a	n/a	"NULL"	n/a	"NULL"	"NULL"	"NULL"	"<p style=\"color: black; font-size: 80px; padding-left: 29%; padding-right: 0%; padding-top: 39%; padding-bottom: 12%\">+</p>"	"1011"	n/a	n/a	n/a	n/a	n/a	n/a	n/a	n/a	n/a
n/a	"image-keyboard-response"	"64"	"296434"	"0.0-5.0-2.0-1.5"	"gmxfm2"	"600"	"1366"	"chrome"	"108.0.0"	"FALSE"	"Windows 10"	"60.57"	"115"	n/a	n/a	n/a	n/a	n/a	n/a	"Trial"	n/a	n/a	n/a	"615"	"arrowright"	n/a	"NULL"	"NULL"	"NULL"	"stimuli/Ebbinghaus_-0.1000_-0.2800.png"	n/a	"Ebbinghaus"	"arrowright"	"1018"	"TRUE"	"Ebbinghaus"	"-0.100000000"	"-0.280000000"	"1"	"24"
n/a	"html-keyboard-response"	"65"	"297943"	"0.0-5.0-2.0-0.6"	"gmxfm2"	"600"	"1366"	"chrome"	"108.0.0"	"FALSE"	"Windows 10"	"60.57"	"115"	n/a	n/a	n/a	n/a	n/a	n/a	"fixation"	n/a	n/a	n/a	n/a	"NULL"	n/a	"NULL"	"NULL"	"NULL"	"<p style=\"color: black; font-size: 80px; padding-left: 24%; padding-right: 21%; padding-top: 6%; padding-bottom: 36%\">+</p>"	"1494"	n/a	n/a	n/a	n/a	n/a	n/a	n/a	n/a	n/a
n/a	"image-keyboard-response"	"66"	"298801"	"0.0-5.0-2.0-1.6"	"gmxfm2"	"600"	"1366"	"chrome"	"108.0.0"	"FALSE"	"Windows 10"	"60.57"	"115"	n/a	n/a	n/a	n/a	n/a	n/a	"Trial"	n/a	n/a	n/a	"854"	"arrowleft"	n/a	"NULL"	"NULL"	"NULL"	"stimuli/Ebbinghaus_0.61429_0.11071.png"	n/a	"Ebbinghaus"	"arrowleft"	"1509"	"TRUE"	"Ebbinghaus"	"0.6142900000"	"0.1107100000"	"1"	"25"
n/a	"html-keyboard-response"	"67"	"300178"	"0.0-5.0-2.0-0.7"	"gmxfm2"	"600"	"1366"	"chrome"	"108.0.0"	"FALSE"	"Windows 10"	"60.57"	"115"	n/a	n/a	n/a	n/a	n/a	n/a	"fixation"	n/a	n/a	n/a	n/a	"NULL"	n/a	"NULL"	"NULL"	"NULL"	"<p style=\"color: black; font-size: 80px; padding-left: 41%; padding-right: 8%; padding-top: 6%; padding-bottom: 7%\">+</p>"	"1365"	n/a	n/a	n/a	n/a	n/a	n/a	n/a	n/a	n/a
n/a	"image-keyboard-response"	"68"	"300720"	"0.0-5.0-2.0-1.7"	"gmxfm2"	"600"	"1366"	"chrome"	"108.0.0"	"FALSE"	"Windows 10"	"60.57"	"115"	n/a	n/a	n/a	n/a	n/a	n/a	"Trial"	n/a	n/a	n/a	"541"	"arrowright"	n/a	"NULL"	"NULL"	"NULL"	"stimuli/Ebbinghaus_-0.87143_-0.15857.png"	n/a	"Ebbinghaus"	"arrowright"	"1377"	"TRUE"	"Ebbinghaus"	"-0.871430000"	"-0.158570000"	"1"	"26"
n/a	"html-keyboard-response"	"69"	"302083"	"0.0-5.0-2.0-0.8"	"gmxfm2"	"600"	"1366"	"chrome"	"108.0.0"	"FALSE"	"Windows 10"	"60.57"	"115"	n/a	n/a	n/a	n/a	n/a	n/a	"fixation"	n/a	n/a	n/a	n/a	"NULL"	n/a	"NULL"	"NULL"	"NULL"	"<p style=\"color: black; font-size: 80px; padding-left: 33%; padding-right: 38%; padding-top: 40%; padding-bottom: 30%\">+</p>"	"1357"	n/a	n/a	n/a	n/a	n/a	n/a	n/a	n/a	n/a
n/a	"image-keyboard-response"	"70"	"302655"	"0.0-5.0-2.0-1.8"	"gmxfm2"	"600"	"1366"	"chrome"	"108.0.0"	"FALSE"	"Windows 10"	"60.57"	"115"	n/a	n/a	n/a	n/a	n/a	n/a	"Trial"	n/a	n/a	n/a	"571"	"arrowright"	n/a	"NULL"	"NULL"	"NULL"	"stimuli/Ebbinghaus_0.61429_-0.2800.png"	n/a	"Ebbinghaus"	"arrowright"	"1363"	"TRUE"	"Ebbinghaus"	"0.6142900000"	"-0.280000000"	"1"	"27"
n/a	"html-keyboard-response"	"71"	"304174"	"0.0-5.0-2.0-0.9"	"gmxfm2"	"600"	"1366"	"chrome"	"108.0.0"	"FALSE"	"Windows 10"	"60.57"	"115"	n/a	n/a	n/a	n/a	n/a	n/a	"fixation"	n/a	n/a	n/a	n/a	"NULL"	n/a	"NULL"	"NULL"	"NULL"	"<p style=\"color: black; font-size: 80px; padding-left: 35%; padding-right: 22%; padding-top: 20%; padding-bottom: 46%\">+</p>"	"1496"	n/a	n/a	n/a	n/a	n/a	n/a	n/a	n/a	n/a
n/a	"image-keyboard-response"	"72"	"304867"	"0.0-5.0-2.0-1.9"	"gmxfm2"	"600"	"1366"	"chrome"	"108.0.0"	"FALSE"	"Windows 10"	"60.57"	"115"	n/a	n/a	n/a	n/a	n/a	n/a	"Trial"	n/a	n/a	n/a	"691"	"arrowleft"	n/a	"NULL"	"NULL"	"NULL"	"stimuli/Ebbinghaus_0.35714_0.15857.png"	n/a	"Ebbinghaus"	"arrowleft"	"1519"	"TRUE"	"Ebbinghaus"	"0.3571400000"	"0.1585700000"	"1"	"28"
n/a	"html-keyboard-response"	"73"	"305971"	"0.0-5.0-2.0-0.10"	"gmxfm2"	"600"	"1366"	"chrome"	"108.0.0"	"FALSE"	"Windows 10"	"60.57"	"115"	n/a	n/a	n/a	n/a	n/a	n/a	"fixation"	n/a	n/a	n/a	n/a	"NULL"	n/a	"NULL"	"NULL"	"NULL"	"<p style=\"color: black; font-size: 80px; padding-left: 41%; padding-right: 35%; padding-top: 37%; padding-bottom: 35%\">+</p>"	"1088"	n/a	n/a	n/a	n/a	n/a	n/a	n/a	n/a	n/a
n/a	"image-keyboard-response"	"74"	"306571"	"0.0-5.0-2.0-1.10"	"gmxfm2"	"600"	"1366"	"chrome"	"108.0.0"	"FALSE"	"Windows 10"	"60.57"	"115"	n/a	n/a	n/a	n/a	n/a	n/a	"Trial"	n/a	n/a	n/a	"598"	"arrowleft"	n/a	"NULL"	"NULL"	"NULL"	"stimuli/Ebbinghaus_0.87143_0.21500.png"	n/a	"Ebbinghaus"	"arrowleft"	"1104"	"TRUE"	"Ebbinghaus"	"0.8714300000"	"0.2150000000"	"1"	"29"
n/a	"html-keyboard-response"	"75"	"307833"	"0.0-5.0-2.0-0.11"	"gmxfm2"	"600"	"1366"	"chrome"	"108.0.0"	"FALSE"	"Windows 10"	"60.57"	"115"	n/a	n/a	n/a	n/a	n/a	n/a	"fixation"	n/a	n/a	n/a	n/a	"NULL"	n/a	"NULL"	"NULL"	"NULL"	"<p style=\"color: black; font-size: 80px; padding-left: 5%; padding-right: 46%; padding-top: 38%; padding-bottom: 7%\">+</p>"	"1259"	n/a	n/a	n/a	n/a	n/a	n/a	n/a	n/a	n/a
n/a	"image-keyboard-response"	"76"	"308392"	"0.0-5.0-2.0-1.11"	"gmxfm2"	"600"	"1366"	"chrome"	"108.0.0"	"FALSE"	"Windows 10"	"60.57"	"115"	n/a	n/a	n/a	n/a	n/a	n/a	"Trial"	n/a	n/a	n/a	"558"	"arrowright"	n/a	"NULL"	"NULL"	"NULL"	"stimuli/Ebbinghaus_-0.87143_-0.11071.png"	n/a	"Ebbinghaus"	"arrowright"	"1262"	"TRUE"	"Ebbinghaus"	"-0.871430000"	"-0.110710000"	"1"	"30"
n/a	"html-keyboard-response"	"77"	"309551"	"0.0-5.0-2.0-0.12"	"gmxfm2"	"600"	"1366"	"chrome"	"108.0.0"	"FALSE"	"Windows 10"	"60.57"	"115"	n/a	n/a	n/a	n/a	n/a	n/a	"fixation"	n/a	n/a	n/a	n/a	"NULL"	n/a	"NULL"	"NULL"	"NULL"	"<p style=\"color: black; font-size: 80px; padding-left: 28%; padding-right: 10%; padding-top: 33%; padding-bottom: 11%\">+</p>"	"1148"	n/a	n/a	n/a	n/a	n/a	n/a	n/a	n/a	n/a
n/a	"image-keyboard-response"	"78"	"310296"	"0.0-5.0-2.0-1.12"	"gmxfm2"	"600"	"1366"	"chrome"	"108.0.0"	"FALSE"	"Windows 10"	"60.57"	"115"	n/a	n/a	n/a	n/a	n/a	n/a	"Trial"	n/a	n/a	n/a	"745"	"arrowleft"	n/a	"NULL"	"NULL"	"NULL"	"stimuli/Ebbinghaus_0.35714_0.28000.png"	n/a	"Ebbinghaus"	"arrowleft"	"1159"	"TRUE"	"Ebbinghaus"	"0.3571400000"	"0.2800000000"	"1"	"31"
n/a	"html-keyboard-response"	"79"	"311489"	"0.0-5.0-2.0-0.13"	"gmxfm2"	"600"	"1366"	"chrome"	"108.0.0"	"FALSE"	"Windows 10"	"60.57"	"115"	n/a	n/a	n/a	n/a	n/a	n/a	"fixation"	n/a	n/a	n/a	n/a	"NULL"	n/a	"NULL"	"NULL"	"NULL"	"<p style=\"color: black; font-size: 80px; padding-left: 26%; padding-right: 12%; padding-top: 2%; padding-bottom: 41%\">+</p>"	"1189"	n/a	n/a	n/a	n/a	n/a	n/a	n/a	n/a	n/a
n/a	"image-keyboard-response"	"80"	"312023"	"0.0-5.0-2.0-1.13"	"gmxfm2"	"600"	"1366"	"chrome"	"108.0.0"	"FALSE"	"Windows 10"	"60.57"	"115"	n/a	n/a	n/a	n/a	n/a	n/a	"Trial"	n/a	n/a	n/a	"533"	"arrowright"	n/a	"NULL"	"NULL"	"NULL"	"stimuli/Ebbinghaus_-0.87143_-0.2150.png"	n/a	"Ebbinghaus"	"arrowright"	"1193"	"TRUE"	"Ebbinghaus"	"-0.871430000"	"-0.215000000"	"1"	"32"
n/a	"html-keyboard-response"	"81"	"313252"	"0.0-5.0-2.0-0.14"	"gmxfm2"	"600"	"1366"	"chrome"	"108.0.0"	"FALSE"	"Windows 10"	"60.57"	"115"	n/a	n/a	n/a	n/a	n/a	n/a	"fixation"	n/a	n/a	n/a	n/a	"NULL"	n/a	"NULL"	"NULL"	"NULL"	"<p style=\"color: black; font-size: 80px; padding-left: 26%; padding-right: 9%; padding-top: 8%; padding-bottom: 31%\">+</p>"	"1214"	n/a	n/a	n/a	n/a	n/a	n/a	n/a	n/a	n/a
n/a	"image-keyboard-response"	"82"	"313785"	"0.0-5.0-2.0-1.14"	"gmxfm2"	"600"	"1366"	"chrome"	"108.0.0"	"FALSE"	"Windows 10"	"60.57"	"115"	n/a	n/a	n/a	n/a	n/a	n/a	"Trial"	n/a	n/a	n/a	"532"	"arrowright"	n/a	"NULL"	"NULL"	"NULL"	"stimuli/Ebbinghaus_-0.1000_-0.2150.png"	n/a	"Ebbinghaus"	"arrowright"	"1229"	"TRUE"	"Ebbinghaus"	"-0.100000000"	"-0.215000000"	"1"	"33"
n/a	"html-keyboard-response"	"83"	"314963"	"0.0-5.0-2.0-0.15"	"gmxfm2"	"600"	"1366"	"chrome"	"108.0.0"	"FALSE"	"Windows 10"	"60.57"	"115"	n/a	n/a	n/a	n/a	n/a	n/a	"fixation"	n/a	n/a	n/a	n/a	"NULL"	n/a	"NULL"	"NULL"	"NULL"	"<p style=\"color: black; font-size: 80px; padding-left: 8%; padding-right: 23%; padding-top: 43%; padding-bottom: 3%\">+</p>"	"1165"	n/a	n/a	n/a	n/a	n/a	n/a	n/a	n/a	n/a
n/a	"image-keyboard-response"	"84"	"315404"	"0.0-5.0-2.0-1.15"	"gmxfm2"	"600"	"1366"	"chrome"	"108.0.0"	"FALSE"	"Windows 10"	"60.57"	"115"	n/a	n/a	n/a	n/a	n/a	n/a	"Trial"	n/a	n/a	n/a	"440"	"arrowright"	n/a	"NULL"	"NULL"	"NULL"	"stimuli/Ebbinghaus_0.35714_-0.2150.png"	n/a	"Ebbinghaus"	"arrowright"	"1178"	"TRUE"	"Ebbinghaus"	"0.3571400000"	"-0.215000000"	"1"	"34"
n/a	"html-keyboard-response"	"85"	"316714"	"0.0-5.0-2.0-0.16"	"gmxfm2"	"600"	"1366"	"chrome"	"108.0.0"	"FALSE"	"Windows 10"	"60.57"	"115"	n/a	n/a	n/a	n/a	n/a	n/a	"fixation"	n/a	n/a	n/a	n/a	"NULL"	n/a	"NULL"	"NULL"	"NULL"	"<p style=\"color: black; font-size: 80px; padding-left: 37%; padding-right: 24%; padding-top: 18%; padding-bottom: 30%\">+</p>"	"1302"	n/a	n/a	n/a	n/a	n/a	n/a	n/a	n/a	n/a
n/a	"image-keyboard-response"	"86"	"317308"	"0.0-5.0-2.0-1.16"	"gmxfm2"	"600"	"1366"	"chrome"	"108.0.0"	"FALSE"	"Windows 10"	"60.57"	"115"	n/a	n/a	n/a	n/a	n/a	n/a	"Trial"	n/a	n/a	n/a	"592"	"arrowright"	n/a	"NULL"	"NULL"	"NULL"	"stimuli/Ebbinghaus_0.10000_-0.11071.png"	n/a	"Ebbinghaus"	"arrowright"	"1310"	"TRUE"	"Ebbinghaus"	"0.1000000000"	"-0.110710000"	"1"	"35"
n/a	"html-keyboard-response"	"87"	"318515"	"0.0-5.0-2.0-0.17"	"gmxfm2"	"600"	"1366"	"chrome"	"108.0.0"	"FALSE"	"Windows 10"	"60.57"	"115"	n/a	n/a	n/a	n/a	n/a	n/a	"fixation"	n/a	n/a	n/a	n/a	"NULL"	n/a	"NULL"	"NULL"	"NULL"	"<p style=\"color: black; font-size: 80px; padding-left: 32%; padding-right: 34%; padding-top: 23%; padding-bottom: 43%\">+</p>"	"1201"	n/a	n/a	n/a	n/a	n/a	n/a	n/a	n/a	n/a
n/a	"image-keyboard-response"	"88"	"318960"	"0.0-5.0-2.0-1.17"	"gmxfm2"	"600"	"1366"	"chrome"	"108.0.0"	"FALSE"	"Windows 10"	"60.57"	"115"	n/a	n/a	n/a	n/a	n/a	n/a	"Trial"	n/a	n/a	n/a	"444"	"arrowright"	n/a	"NULL"	"NULL"	"NULL"	"stimuli/Ebbinghaus_-0.1000_-0.15857.png"	n/a	"Ebbinghaus"	"arrowright"	"1207"	"TRUE"	"Ebbinghaus"	"-0.100000000"	"-0.158570000"	"1"	"36"
n/a	"html-keyboard-response"	"89"	"320424"	"0.0-5.0-2.0-0.18"	"gmxfm2"	"600"	"1366"	"chrome"	"108.0.0"	"FALSE"	"Windows 10"	"60.57"	"115"	n/a	n/a	n/a	n/a	n/a	n/a	"fixation"	n/a	n/a	n/a	n/a	"NULL"	n/a	"NULL"	"NULL"	"NULL"	"<p style=\"color: black; font-size: 80px; padding-left: 13%; padding-right: 30%; padding-top: 30%; padding-bottom: 16%\">+</p>"	"1457"	n/a	n/a	n/a	n/a	n/a	n/a	n/a	n/a	n/a
n/a	"image-keyboard-response"	"90"	"320924"	"0.0-5.0-2.0-1.18"	"gmxfm2"	"600"	"1366"	"chrome"	"108.0.0"	"FALSE"	"Windows 10"	"60.57"	"115"	n/a	n/a	n/a	n/a	n/a	n/a	"Trial"	n/a	n/a	n/a	"499"	"arrowright"	n/a	"NULL"	"NULL"	"NULL"	"stimuli/Ebbinghaus_-0.1000_0.11071.png"	n/a	"Ebbinghaus"	"arrowleft"	"1464"	"FALSE"	"Ebbinghaus"	"-0.100000000"	"0.1107100000"	"1"	"37"
n/a	"html-keyboard-response"	"91"	"322276"	"0.0-5.0-2.0-0.19"	"gmxfm2"	"600"	"1366"	"chrome"	"108.0.0"	"FALSE"	"Windows 10"	"60.57"	"115"	n/a	n/a	n/a	n/a	n/a	n/a	"fixation"	n/a	n/a	n/a	n/a	"NULL"	n/a	"NULL"	"NULL"	"NULL"	"<p style=\"color: black; font-size: 80px; padding-left: 18%; padding-right: 42%; padding-top: 5%; padding-bottom: 12%\">+</p>"	"1337"	n/a	n/a	n/a	n/a	n/a	n/a	n/a	n/a	n/a
n/a	"image-keyboard-response"	"92"	"322852"	"0.0-5.0-2.0-1.19"	"gmxfm2"	"600"	"1366"	"chrome"	"108.0.0"	"FALSE"	"Windows 10"	"60.57"	"115"	n/a	n/a	n/a	n/a	n/a	n/a	"Trial"	n/a	n/a	n/a	"575"	"arrowleft"	n/a	"NULL"	"NULL"	"NULL"	"stimuli/Ebbinghaus_0.61429_0.28000.png"	n/a	"Ebbinghaus"	"arrowleft"	"1352"	"TRUE"	"Ebbinghaus"	"0.6142900000"	"0.2800000000"	"1"	"38"
n/a	"html-keyboard-response"	"93"	"324259"	"0.0-5.0-2.0-0.20"	"gmxfm2"	"600"	"1366"	"chrome"	"108.0.0"	"FALSE"	"Windows 10"	"60.57"	"115"	n/a	n/a	n/a	n/a	n/a	n/a	"fixation"	n/a	n/a	n/a	n/a	"NULL"	n/a	"NULL"	"NULL"	"NULL"	"<p style=\"color: black; font-size: 80px; padding-left: 7%; padding-right: 31%; padding-top: 32%; padding-bottom: 29%\">+</p>"	"1392"	n/a	n/a	n/a	n/a	n/a	n/a	n/a	n/a	n/a
n/a	"image-keyboard-response"	"94"	"325009"	"0.0-5.0-2.0-1.20"	"gmxfm2"	"600"	"1366"	"chrome"	"108.0.0"	"FALSE"	"Windows 10"	"60.57"	"115"	n/a	n/a	n/a	n/a	n/a	n/a	"Trial"	n/a	n/a	n/a	"749"	"arrowleft"	n/a	"NULL"	"NULL"	"NULL"	"stimuli/Ebbinghaus_0.61429_0.15857.png"	n/a	"Ebbinghaus"	"arrowleft"	"1407"	"TRUE"	"Ebbinghaus"	"0.6142900000"	"0.1585700000"	"1"	"39"
n/a	"html-keyboard-response"	"95"	"326508"	"0.0-5.0-2.0-0.21"	"gmxfm2"	"600"	"1366"	"chrome"	"108.0.0"	"FALSE"	"Windows 10"	"60.57"	"115"	n/a	n/a	n/a	n/a	n/a	n/a	"fixation"	n/a	n/a	n/a	n/a	"NULL"	n/a	"NULL"	"NULL"	"NULL"	"<p style=\"color: black; font-size: 80px; padding-left: 20%; padding-right: 21%; padding-top: 29%; padding-bottom: 19%\">+</p>"	"1480"	n/a	n/a	n/a	n/a	n/a	n/a	n/a	n/a	n/a
n/a	"image-keyboard-response"	"96"	"327267"	"0.0-5.0-2.0-1.21"	"gmxfm2"	"600"	"1366"	"chrome"	"108.0.0"	"FALSE"	"Windows 10"	"60.57"	"115"	n/a	n/a	n/a	n/a	n/a	n/a	"Trial"	n/a	n/a	n/a	"758"	"arrowleft"	n/a	"NULL"	"NULL"	"NULL"	"stimuli/Ebbinghaus_0.87143_-0.2800.png"	n/a	"Ebbinghaus"	"arrowright"	"1499"	"FALSE"	"Ebbinghaus"	"0.8714300000"	"-0.280000000"	"1"	"40"
n/a	"html-keyboard-response"	"97"	"328741"	"0.0-5.0-2.0-0.22"	"gmxfm2"	"600"	"1366"	"chrome"	"108.0.0"	"FALSE"	"Windows 10"	"60.57"	"115"	n/a	n/a	n/a	n/a	n/a	n/a	"fixation"	n/a	n/a	n/a	n/a	"NULL"	n/a	"NULL"	"NULL"	"NULL"	"<p style=\"color: black; font-size: 80px; padding-left: 19%; padding-right: 49%; padding-top: 43%; padding-bottom: 49%\">+</p>"	"1465"	n/a	n/a	n/a	n/a	n/a	n/a	n/a	n/a	n/a
n/a	"image-keyboard-response"	"98"	"329405"	"0.0-5.0-2.0-1.22"	"gmxfm2"	"600"	"1366"	"chrome"	"108.0.0"	"FALSE"	"Windows 10"	"60.57"	"115"	n/a	n/a	n/a	n/a	n/a	n/a	"Trial"	n/a	n/a	n/a	"664"	"arrowleft"	n/a	"NULL"	"NULL"	"NULL"	"stimuli/Ebbinghaus_0.35714_0.21500.png"	n/a	"Ebbinghaus"	"arrowleft"	"1474"	"TRUE"	"Ebbinghaus"	"0.3571400000"	"0.2150000000"	"1"	"41"
n/a	"html-keyboard-response"	"99"	"330459"	"0.0-5.0-2.0-0.23"	"gmxfm2"	"600"	"1366"	"chrome"	"108.0.0"	"FALSE"	"Windows 10"	"60.57"	"115"	n/a	n/a	n/a	n/a	n/a	n/a	"fixation"	n/a	n/a	n/a	n/a	"NULL"	n/a	"NULL"	"NULL"	"NULL"	"<p style=\"color: black; font-size: 80px; padding-left: 21%; padding-right: 48%; padding-top: 21%; padding-bottom: 50%\">+</p>"	"1048"	n/a	n/a	n/a	n/a	n/a	n/a	n/a	n/a	n/a
n/a	"image-keyboard-response"	"100"	"331377"	"0.0-5.0-2.0-1.23"	"gmxfm2"	"600"	"1366"	"chrome"	"108.0.0"	"FALSE"	"Windows 10"	"60.57"	"115"	n/a	n/a	n/a	n/a	n/a	n/a	"Trial"	n/a	n/a	n/a	"914"	"arrowright"	n/a	"NULL"	"NULL"	"NULL"	"stimuli/Ebbinghaus_-0.87143_-0.2800.png"	n/a	"Ebbinghaus"	"arrowright"	"1054"	"TRUE"	"Ebbinghaus"	"-0.871430000"	"-0.280000000"	"1"	"42"
n/a	"html-keyboard-response"	"101"	"332491"	"0.0-5.0-2.0-0.24"	"gmxfm2"	"600"	"1366"	"chrome"	"108.0.0"	"FALSE"	"Windows 10"	"60.57"	"115"	n/a	n/a	n/a	n/a	n/a	n/a	"fixation"	n/a	n/a	n/a	n/a	"NULL"	n/a	"NULL"	"NULL"	"NULL"	"<p style=\"color: black; font-size: 80px; padding-left: 20%; padding-right: 8%; padding-top: 9%; padding-bottom: 26%\">+</p>"	"1108"	n/a	n/a	n/a	n/a	n/a	n/a	n/a	n/a	n/a
n/a	"image-keyboard-response"	"102"	"333604"	"0.0-5.0-2.0-1.24"	"gmxfm2"	"600"	"1366"	"chrome"	"108.0.0"	"FALSE"	"Windows 10"	"60.57"	"115"	n/a	n/a	n/a	n/a	n/a	n/a	"Trial"	n/a	n/a	n/a	"1112"	"arrowleft"	n/a	"NULL"	"NULL"	"NULL"	"stimuli/Ebbinghaus_0.10000_-0.2150.png"	n/a	"Ebbinghaus"	"arrowright"	"1114"	"FALSE"	"Ebbinghaus"	"0.1000000000"	"-0.215000000"	"1"	"43"
n/a	"html-keyboard-response"	"103"	"334728"	"0.0-5.0-2.0-0.25"	"gmxfm2"	"600"	"1366"	"chrome"	"108.0.0"	"FALSE"	"Windows 10"	"60.57"	"115"	n/a	n/a	n/a	n/a	n/a	n/a	"fixation"	n/a	n/a	n/a	n/a	"NULL"	n/a	"NULL"	"NULL"	"NULL"	"<p style=\"color: black; font-size: 80px; padding-left: 42%; padding-right: 5%; padding-top: 8%; padding-bottom: 0%\">+</p>"	"1105"	n/a	n/a	n/a	n/a	n/a	n/a	n/a	n/a	n/a
n/a	"image-keyboard-response"	"104"	"335729"	"0.0-5.0-2.0-1.25"	"gmxfm2"	"600"	"1366"	"chrome"	"108.0.0"	"FALSE"	"Windows 10"	"60.57"	"115"	n/a	n/a	n/a	n/a	n/a	n/a	"Trial"	n/a	n/a	n/a	"1000"	"arrowright"	n/a	"NULL"	"NULL"	"NULL"	"stimuli/Ebbinghaus_-0.35714_-0.11071.png"	n/a	"Ebbinghaus"	"arrowright"	"1124"	"TRUE"	"Ebbinghaus"	"-0.357140000"	"-0.110710000"	"1"	"44"
n/a	"html-keyboard-response"	"105"	"337148"	"0.0-5.0-2.0-0.26"	"gmxfm2"	"600"	"1366"	"chrome"	"108.0.0"	"FALSE"	"Windows 10"	"60.57"	"115"	n/a	n/a	n/a	n/a	n/a	n/a	"fixation"	n/a	n/a	n/a	n/a	"NULL"	n/a	"NULL"	"NULL"	"NULL"	"<p style=\"color: black; font-size: 80px; padding-left: 38%; padding-right: 25%; padding-top: 17%; padding-bottom: 18%\">+</p>"	"1416"	n/a	n/a	n/a	n/a	n/a	n/a	n/a	n/a	n/a
n/a	"image-keyboard-response"	"106"	"338271"	"0.0-5.0-2.0-1.26"	"gmxfm2"	"600"	"1366"	"chrome"	"108.0.0"	"FALSE"	"Windows 10"	"60.57"	"115"	n/a	n/a	n/a	n/a	n/a	n/a	"Trial"	n/a	n/a	n/a	"1118"	"arrowleft"	n/a	"NULL"	"NULL"	"NULL"	"stimuli/Ebbinghaus_-0.35714_0.11071.png"	n/a	"Ebbinghaus"	"arrowleft"	"1419"	"TRUE"	"Ebbinghaus"	"-0.357140000"	"0.1107100000"	"1"	"45"
n/a	"html-keyboard-response"	"107"	"339517"	"0.0-5.0-2.0-0.27"	"gmxfm2"	"600"	"1366"	"chrome"	"108.0.0"	"FALSE"	"Windows 10"	"60.57"	"115"	n/a	n/a	n/a	n/a	n/a	n/a	"fixation"	n/a	n/a	n/a	n/a	"NULL"	n/a	"NULL"	"NULL"	"NULL"	"<p style=\"color: black; font-size: 80px; padding-left: 8%; padding-right: 30%; padding-top: 26%; padding-bottom: 36%\">+</p>"	"1242"	n/a	n/a	n/a	n/a	n/a	n/a	n/a	n/a	n/a
n/a	"image-keyboard-response"	"108"	"340558"	"0.0-5.0-2.0-1.27"	"gmxfm2"	"600"	"1366"	"chrome"	"108.0.0"	"FALSE"	"Windows 10"	"60.57"	"115"	n/a	n/a	n/a	n/a	n/a	n/a	"Trial"	n/a	n/a	n/a	"1041"	"arrowleft"	n/a	"NULL"	"NULL"	"NULL"	"stimuli/Ebbinghaus_-0.87143_0.21500.png"	n/a	"Ebbinghaus"	"arrowleft"	"1246"	"TRUE"	"Ebbinghaus"	"-0.871430000"	"0.2150000000"	"1"	"46"
n/a	"html-keyboard-response"	"109"	"342062"	"0.0-5.0-2.0-0.28"	"gmxfm2"	"600"	"1366"	"chrome"	"108.0.0"	"FALSE"	"Windows 10"	"60.57"	"115"	n/a	n/a	n/a	n/a	n/a	n/a	"fixation"	n/a	n/a	n/a	n/a	"NULL"	n/a	"NULL"	"NULL"	"NULL"	"<p style=\"color: black; font-size: 80px; padding-left: 15%; padding-right: 43%; padding-top: 4%; padding-bottom: 48%\">+</p>"	"1498"	n/a	n/a	n/a	n/a	n/a	n/a	n/a	n/a	n/a
n/a	"image-keyboard-response"	"110"	"343075"	"0.0-5.0-2.0-1.28"	"gmxfm2"	"600"	"1366"	"chrome"	"108.0.0"	"FALSE"	"Windows 10"	"60.57"	"115"	n/a	n/a	n/a	n/a	n/a	n/a	"Trial"	n/a	n/a	n/a	"1012"	"arrowright"	n/a	"NULL"	"NULL"	"NULL"	"stimuli/Ebbinghaus_-0.35714_-0.2800.png"	n/a	"Ebbinghaus"	"arrowright"	"1504"	"TRUE"	"Ebbinghaus"	"-0.357140000"	"-0.280000000"	"1"	"47"
n/a	"html-keyboard-response"	"111"	"344363"	"0.0-5.0-2.0-0.29"	"gmxfm2"	"600"	"1366"	"chrome"	"108.0.0"	"FALSE"	"Windows 10"	"60.57"	"115"	n/a	n/a	n/a	n/a	n/a	n/a	"fixation"	n/a	n/a	n/a	n/a	"NULL"	n/a	"NULL"	"NULL"	"NULL"	"<p style=\"color: black; font-size: 80px; padding-left: 23%; padding-right: 38%; padding-top: 21%; padding-bottom: 6%\">+</p>"	"1275"	n/a	n/a	n/a	n/a	n/a	n/a	n/a	n/a	n/a
n/a	"image-keyboard-response"	"112"	"346139"	"0.0-5.0-2.0-1.29"	"gmxfm2"	"600"	"1366"	"chrome"	"108.0.0"	"FALSE"	"Windows 10"	"60.57"	"115"	n/a	n/a	n/a	n/a	n/a	n/a	"Trial"	n/a	n/a	n/a	"1774"	"arrowright"	n/a	"NULL"	"NULL"	"NULL"	"stimuli/Ebbinghaus_0.87143_-0.2150.png"	n/a	"Ebbinghaus"	"arrowright"	"1288"	"TRUE"	"Ebbinghaus"	"0.8714300000"	"-0.215000000"	"1"	"48"
n/a	"html-keyboard-response"	"113"	"347349"	"0.0-5.0-2.0-0.30"	"gmxfm2"	"600"	"1366"	"chrome"	"108.0.0"	"FALSE"	"Windows 10"	"60.57"	"115"	n/a	n/a	n/a	n/a	n/a	n/a	"fixation"	n/a	n/a	n/a	n/a	"NULL"	n/a	"NULL"	"NULL"	"NULL"	"<p style=\"color: black; font-size: 80px; padding-left: 33%; padding-right: 44%; padding-top: 10%; padding-bottom: 49%\">+</p>"	"1196"	n/a	n/a	n/a	n/a	n/a	n/a	n/a	n/a	n/a
n/a	"image-keyboard-response"	"114"	"348404"	"0.0-5.0-2.0-1.30"	"gmxfm2"	"600"	"1366"	"chrome"	"108.0.0"	"FALSE"	"Windows 10"	"60.57"	"115"	n/a	n/a	n/a	n/a	n/a	n/a	"Trial"	n/a	n/a	n/a	"1054"	"arrowleft"	n/a	"NULL"	"NULL"	"NULL"	"stimuli/Ebbinghaus_0.10000_0.28000.png"	n/a	"Ebbinghaus"	"arrowleft"	"1210"	"TRUE"	"Ebbinghaus"	"0.1000000000"	"0.2800000000"	"1"	"49"
n/a	"html-keyboard-response"	"115"	"349445"	"0.0-5.0-2.0-0.31"	"gmxfm2"	"600"	"1366"	"chrome"	"108.0.0"	"FALSE"	"Windows 10"	"60.57"	"115"	n/a	n/a	n/a	n/a	n/a	n/a	"fixation"	n/a	n/a	n/a	n/a	"NULL"	n/a	"NULL"	"NULL"	"NULL"	"<p style=\"color: black; font-size: 80px; padding-left: 12%; padding-right: 35%; padding-top: 13%; padding-bottom: 41%\">+</p>"	"1022"	n/a	n/a	n/a	n/a	n/a	n/a	n/a	n/a	n/a
n/a	"image-keyboard-response"	"116"	"350584"	"0.0-5.0-2.0-1.31"	"gmxfm2"	"600"	"1366"	"chrome"	"108.0.0"	"FALSE"	"Windows 10"	"60.57"	"115"	n/a	n/a	n/a	n/a	n/a	n/a	"Trial"	n/a	n/a	n/a	"1139"	"arrowleft"	n/a	"NULL"	"NULL"	"NULL"	"stimuli/Ebbinghaus_-0.61429_0.21500.png"	n/a	"Ebbinghaus"	"arrowleft"	"1041"	"TRUE"	"Ebbinghaus"	"-0.614290000"	"0.2150000000"	"1"	"50"
n/a	"html-keyboard-response"	"117"	"351706"	"0.0-5.0-2.0-0.32"	"gmxfm2"	"600"	"1366"	"chrome"	"108.0.0"	"FALSE"	"Windows 10"	"60.57"	"115"	n/a	n/a	n/a	n/a	n/a	n/a	"fixation"	n/a	n/a	n/a	n/a	"NULL"	n/a	"NULL"	"NULL"	"NULL"	"<p style=\"color: black; font-size: 80px; padding-left: 33%; padding-right: 6%; padding-top: 36%; padding-bottom: 46%\">+</p>"	"1109"	n/a	n/a	n/a	n/a	n/a	n/a	n/a	n/a	n/a
n/a	"image-keyboard-response"	"118"	"352755"	"0.0-5.0-2.0-1.32"	"gmxfm2"	"600"	"1366"	"chrome"	"108.0.0"	"FALSE"	"Windows 10"	"60.57"	"115"	n/a	n/a	n/a	n/a	n/a	n/a	"Trial"	n/a	n/a	n/a	"1048"	"arrowleft"	n/a	"NULL"	"NULL"	"NULL"	"stimuli/Ebbinghaus_0.10000_0.21500.png"	n/a	"Ebbinghaus"	"arrowleft"	"1122"	"TRUE"	"Ebbinghaus"	"0.1000000000"	"0.2150000000"	"1"	"51"
n/a	"html-keyboard-response"	"119"	"354114"	"0.0-5.0-2.0-0.33"	"gmxfm2"	"600"	"1366"	"chrome"	"108.0.0"	"FALSE"	"Windows 10"	"60.57"	"115"	n/a	n/a	n/a	n/a	n/a	n/a	"fixation"	n/a	n/a	n/a	n/a	"NULL"	n/a	"NULL"	"NULL"	"NULL"	"<p style=\"color: black; font-size: 80px; padding-left: 0%; padding-right: 15%; padding-top: 39%; padding-bottom: 43%\">+</p>"	"1353"	n/a	n/a	n/a	n/a	n/a	n/a	n/a	n/a	n/a
n/a	"image-keyboard-response"	"120"	"354944"	"0.0-5.0-2.0-1.33"	"gmxfm2"	"600"	"1366"	"chrome"	"108.0.0"	"FALSE"	"Windows 10"	"60.57"	"115"	n/a	n/a	n/a	n/a	n/a	n/a	"Trial"	n/a	n/a	n/a	"829"	"arrowright"	n/a	"NULL"	"NULL"	"NULL"	"stimuli/Ebbinghaus_0.61429_-0.2150.png"	n/a	"Ebbinghaus"	"arrowright"	"1359"	"TRUE"	"Ebbinghaus"	"0.6142900000"	"-0.215000000"	"1"	"52"
n/a	"html-keyboard-response"	"121"	"356005"	"0.0-5.0-2.0-0.34"	"gmxfm2"	"600"	"1366"	"chrome"	"108.0.0"	"FALSE"	"Windows 10"	"60.57"	"115"	n/a	n/a	n/a	n/a	n/a	n/a	"fixation"	n/a	n/a	n/a	n/a	"NULL"	n/a	"NULL"	"NULL"	"NULL"	"<p style=\"color: black; font-size: 80px; padding-left: 24%; padding-right: 13%; padding-top: 5%; padding-bottom: 46%\">+</p>"	"1052"	n/a	n/a	n/a	n/a	n/a	n/a	n/a	n/a	n/a
n/a	"image-keyboard-response"	"122"	"357066"	"0.0-5.0-2.0-1.34"	"gmxfm2"	"600"	"1366"	"chrome"	"108.0.0"	"FALSE"	"Windows 10"	"60.57"	"115"	n/a	n/a	n/a	n/a	n/a	n/a	"Trial"	n/a	n/a	n/a	"1060"	"arrowleft"	n/a	"NULL"	"NULL"	"NULL"	"stimuli/Ebbinghaus_-0.61429_0.11071.png"	n/a	"Ebbinghaus"	"arrowleft"	"1061"	"TRUE"	"Ebbinghaus"	"-0.614290000"	"0.1107100000"	"1"	"53"
n/a	"html-keyboard-response"	"123"	"358459"	"0.0-5.0-2.0-0.35"	"gmxfm2"	"600"	"1366"	"chrome"	"108.0.0"	"FALSE"	"Windows 10"	"60.57"	"115"	n/a	n/a	n/a	n/a	n/a	n/a	"fixation"	n/a	n/a	n/a	n/a	"NULL"	n/a	"NULL"	"NULL"	"NULL"	"<p style=\"color: black; font-size: 80px; padding-left: 49%; padding-right: 41%; padding-top: 21%; padding-bottom: 45%\">+</p>"	"1377"	n/a	n/a	n/a	n/a	n/a	n/a	n/a	n/a	n/a
n/a	"image-keyboard-response"	"124"	"359512"	"0.0-5.0-2.0-1.35"	"gmxfm2"	"600"	"1366"	"chrome"	"108.0.0"	"FALSE"	"Windows 10"	"60.57"	"115"	n/a	n/a	n/a	n/a	n/a	n/a	"Trial"	n/a	n/a	n/a	"1052"	"arrowleft"	n/a	"NULL"	"NULL"	"NULL"	"stimuli/Ebbinghaus_0.10000_0.11071.png"	n/a	"Ebbinghaus"	"arrowleft"	"1393"	"TRUE"	"Ebbinghaus"	"0.1000000000"	"0.1107100000"	"1"	"54"
n/a	"html-keyboard-response"	"125"	"360696"	"0.0-5.0-2.0-0.36"	"gmxfm2"	"600"	"1366"	"chrome"	"108.0.0"	"FALSE"	"Windows 10"	"60.57"	"115"	n/a	n/a	n/a	n/a	n/a	n/a	"fixation"	n/a	n/a	n/a	n/a	"NULL"	n/a	"NULL"	"NULL"	"NULL"	"<p style=\"color: black; font-size: 80px; padding-left: 50%; padding-right: 20%; padding-top: 3%; padding-bottom: 2%\">+</p>"	"1172"	n/a	n/a	n/a	n/a	n/a	n/a	n/a	n/a	n/a
n/a	"image-keyboard-response"	"126"	"361743"	"0.0-5.0-2.0-1.36"	"gmxfm2"	"600"	"1366"	"chrome"	"108.0.0"	"FALSE"	"Windows 10"	"60.57"	"115"	n/a	n/a	n/a	n/a	n/a	n/a	"Trial"	n/a	n/a	n/a	"1046"	"arrowleft"	n/a	"NULL"	"NULL"	"NULL"	"stimuli/Ebbinghaus_-0.87143_0.11071.png"	n/a	"Ebbinghaus"	"arrowleft"	"1184"	"TRUE"	"Ebbinghaus"	"-0.871430000"	"0.1107100000"	"1"	"55"
n/a	"html-keyboard-response"	"127"	"363023"	"0.0-5.0-2.0-0.37"	"gmxfm2"	"600"	"1366"	"chrome"	"108.0.0"	"FALSE"	"Windows 10"	"60.57"	"115"	n/a	n/a	n/a	n/a	n/a	n/a	"fixation"	n/a	n/a	n/a	n/a	"NULL"	n/a	"NULL"	"NULL"	"NULL"	"<p style=\"color: black; font-size: 80px; padding-left: 47%; padding-right: 12%; padding-top: 20%; padding-bottom: 36%\">+</p>"	"1266"	n/a	n/a	n/a	n/a	n/a	n/a	n/a	n/a	n/a
n/a	"image-keyboard-response"	"128"	"364096"	"0.0-5.0-2.0-1.37"	"gmxfm2"	"600"	"1366"	"chrome"	"108.0.0"	"FALSE"	"Windows 10"	"60.57"	"115"	n/a	n/a	n/a	n/a	n/a	n/a	"Trial"	n/a	n/a	n/a	"1072"	"arrowright"	n/a	"NULL"	"NULL"	"NULL"	"stimuli/Ebbinghaus_0.10000_-0.15857.png"	n/a	"Ebbinghaus"	"arrowright"	"1280"	"TRUE"	"Ebbinghaus"	"0.1000000000"	"-0.158570000"	"1"	"56"
n/a	"html-keyboard-response"	"129"	"365258"	"0.0-5.0-2.0-0.38"	"gmxfm2"	"600"	"1366"	"chrome"	"108.0.0"	"FALSE"	"Windows 10"	"60.57"	"115"	n/a	n/a	n/a	n/a	n/a	n/a	"fixation"	n/a	n/a	n/a	n/a	"NULL"	n/a	"NULL"	"NULL"	"NULL"	"<p style=\"color: black; font-size: 80px; padding-left: 2%; padding-right: 13%; padding-top: 19%; padding-bottom: 44%\">+</p>"	"1145"	n/a	n/a	n/a	n/a	n/a	n/a	n/a	n/a	n/a
n/a	"image-keyboard-response"	"130"	"366338"	"0.0-5.0-2.0-1.38"	"gmxfm2"	"600"	"1366"	"chrome"	"108.0.0"	"FALSE"	"Windows 10"	"60.57"	"115"	n/a	n/a	n/a	n/a	n/a	n/a	"Trial"	n/a	n/a	n/a	"1077"	"arrowleft"	n/a	"NULL"	"NULL"	"NULL"	"stimuli/Ebbinghaus_-0.1000_0.21500.png"	n/a	"Ebbinghaus"	"arrowleft"	"1162"	"TRUE"	"Ebbinghaus"	"-0.100000000"	"0.2150000000"	"1"	"57"
n/a	"html-keyboard-response"	"131"	"367461"	"0.0-5.0-2.0-0.39"	"gmxfm2"	"600"	"1366"	"chrome"	"108.0.0"	"FALSE"	"Windows 10"	"60.57"	"115"	n/a	n/a	n/a	n/a	n/a	n/a	"fixation"	n/a	n/a	n/a	n/a	"NULL"	n/a	"NULL"	"NULL"	"NULL"	"<p style=\"color: black; font-size: 80px; padding-left: 8%; padding-right: 4%; padding-top: 30%; padding-bottom: 15%\">+</p>"	"1104"	n/a	n/a	n/a	n/a	n/a	n/a	n/a	n/a	n/a
n/a	"image-keyboard-response"	"132"	"368997"	"0.0-5.0-2.0-1.39"	"gmxfm2"	"600"	"1366"	"chrome"	"108.0.0"	"FALSE"	"Windows 10"	"60.57"	"115"	n/a	n/a	n/a	n/a	n/a	n/a	"Trial"	n/a	n/a	n/a	"1535"	"arrowright"	n/a	"NULL"	"NULL"	"NULL"	"stimuli/Ebbinghaus_0.87143_-0.15857.png"	n/a	"Ebbinghaus"	"arrowright"	"1123"	"TRUE"	"Ebbinghaus"	"0.8714300000"	"-0.158570000"	"1"	"58"
n/a	"html-keyboard-response"	"133"	"370179"	"0.0-5.0-2.0-0.40"	"gmxfm2"	"600"	"1366"	"chrome"	"108.0.0"	"FALSE"	"Windows 10"	"60.57"	"115"	n/a	n/a	n/a	n/a	n/a	n/a	"fixation"	n/a	n/a	n/a	n/a	"NULL"	n/a	"NULL"	"NULL"	"NULL"	"<p style=\"color: black; font-size: 80px; padding-left: 47%; padding-right: 47%; padding-top: 13%; padding-bottom: 50%\">+</p>"	"1170"	n/a	n/a	n/a	n/a	n/a	n/a	n/a	n/a	n/a
n/a	"image-keyboard-response"	"134"	"372381"	"0.0-5.0-2.0-1.40"	"gmxfm2"	"600"	"1366"	"chrome"	"108.0.0"	"FALSE"	"Windows 10"	"60.57"	"115"	n/a	n/a	n/a	n/a	n/a	n/a	"Trial"	n/a	n/a	n/a	"2201"	"arrowright"	n/a	"NULL"	"NULL"	"NULL"	"stimuli/Ebbinghaus_0.87143_0.11071.png"	n/a	"Ebbinghaus"	"arrowleft"	"1182"	"FALSE"	"Ebbinghaus"	"0.8714300000"	"0.1107100000"	"1"	"59"
n/a	"html-keyboard-response"	"135"	"373493"	"0.0-5.0-2.0-0.41"	"gmxfm2"	"600"	"1366"	"chrome"	"108.0.0"	"FALSE"	"Windows 10"	"60.57"	"115"	n/a	n/a	n/a	n/a	n/a	n/a	"fixation"	n/a	n/a	n/a	n/a	"NULL"	n/a	"NULL"	"NULL"	"NULL"	"<p style=\"color: black; font-size: 80px; padding-left: 21%; padding-right: 14%; padding-top: 0%; padding-bottom: 40%\">+</p>"	"1107"	n/a	n/a	n/a	n/a	n/a	n/a	n/a	n/a	n/a
n/a	"image-keyboard-response"	"136"	"374706"	"0.0-5.0-2.0-1.41"	"gmxfm2"	"600"	"1366"	"chrome"	"108.0.0"	"FALSE"	"Windows 10"	"60.57"	"115"	n/a	n/a	n/a	n/a	n/a	n/a	"Trial"	n/a	n/a	n/a	"1212"	"arrowleft"	n/a	"NULL"	"NULL"	"NULL"	"stimuli/Ebbinghaus_-0.35714_0.15857.png"	n/a	"Ebbinghaus"	"arrowleft"	"1112"	"TRUE"	"Ebbinghaus"	"-0.357140000"	"0.1585700000"	"1"	"60"
n/a	"html-keyboard-response"	"137"	"375778"	"0.0-5.0-2.0-0.42"	"gmxfm2"	"600"	"1366"	"chrome"	"108.0.0"	"FALSE"	"Windows 10"	"60.57"	"115"	n/a	n/a	n/a	n/a	n/a	n/a	"fixation"	n/a	n/a	n/a	n/a	"NULL"	n/a	"NULL"	"NULL"	"NULL"	"<p style=\"color: black; font-size: 80px; padding-left: 11%; padding-right: 4%; padding-top: 0%; padding-bottom: 7%\">+</p>"	"1058"	n/a	n/a	n/a	n/a	n/a	n/a	n/a	n/a	n/a
n/a	"image-keyboard-response"	"138"	"376667"	"0.0-5.0-2.0-1.42"	"gmxfm2"	"600"	"1366"	"chrome"	"108.0.0"	"FALSE"	"Windows 10"	"60.57"	"115"	n/a	n/a	n/a	n/a	n/a	n/a	"Trial"	n/a	n/a	n/a	"888"	"arrowleft"	n/a	"NULL"	"NULL"	"NULL"	"stimuli/Ebbinghaus_-0.61429_0.15857.png"	n/a	"Ebbinghaus"	"arrowleft"	"1072"	"TRUE"	"Ebbinghaus"	"-0.614290000"	"0.1585700000"	"1"	"61"
n/a	"html-keyboard-response"	"139"	"377876"	"0.0-5.0-2.0-0.43"	"gmxfm2"	"600"	"1366"	"chrome"	"108.0.0"	"FALSE"	"Windows 10"	"60.57"	"115"	n/a	n/a	n/a	n/a	n/a	n/a	"fixation"	n/a	n/a	n/a	n/a	"NULL"	n/a	"NULL"	"NULL"	"NULL"	"<p style=\"color: black; font-size: 80px; padding-left: 30%; padding-right: 41%; padding-top: 5%; padding-bottom: 47%\">+</p>"	"1197"	n/a	n/a	n/a	n/a	n/a	n/a	n/a	n/a	n/a
n/a	"image-keyboard-response"	"140"	"378653"	"0.0-5.0-2.0-1.43"	"gmxfm2"	"600"	"1366"	"chrome"	"108.0.0"	"FALSE"	"Windows 10"	"60.57"	"115"	n/a	n/a	n/a	n/a	n/a	n/a	"Trial"	n/a	n/a	n/a	"777"	"arrowleft"	n/a	"NULL"	"NULL"	"NULL"	"stimuli/Ebbinghaus_-0.61429_0.28000.png"	n/a	"Ebbinghaus"	"arrowleft"	"1209"	"TRUE"	"Ebbinghaus"	"-0.614290000"	"0.2800000000"	"1"	"62"
n/a	"html-keyboard-response"	"141"	"379929"	"0.0-5.0-2.0-0.44"	"gmxfm2"	"600"	"1366"	"chrome"	"108.0.0"	"FALSE"	"Windows 10"	"60.57"	"115"	n/a	n/a	n/a	n/a	n/a	n/a	"fixation"	n/a	n/a	n/a	n/a	"NULL"	n/a	"NULL"	"NULL"	"NULL"	"<p style=\"color: black; font-size: 80px; padding-left: 13%; padding-right: 6%; padding-top: 32%; padding-bottom: 16%\">+</p>"	"1260"	n/a	n/a	n/a	n/a	n/a	n/a	n/a	n/a	n/a
n/a	"image-keyboard-response"	"142"	"380447"	"0.0-5.0-2.0-1.44"	"gmxfm2"	"600"	"1366"	"chrome"	"108.0.0"	"FALSE"	"Windows 10"	"60.57"	"115"	n/a	n/a	n/a	n/a	n/a	n/a	"Trial"	n/a	n/a	n/a	"514"	"arrowleft"	n/a	"NULL"	"NULL"	"NULL"	"stimuli/Ebbinghaus_0.35714_0.11071.png"	n/a	"Ebbinghaus"	"arrowleft"	"1276"	"TRUE"	"Ebbinghaus"	"0.3571400000"	"0.1107100000"	"1"	"63"
n/a	"html-keyboard-response"	"143"	"381663"	"0.0-5.0-2.0-0.45"	"gmxfm2"	"600"	"1366"	"chrome"	"108.0.0"	"FALSE"	"Windows 10"	"60.57"	"115"	n/a	n/a	n/a	n/a	n/a	n/a	"fixation"	n/a	n/a	n/a	n/a	"NULL"	n/a	"NULL"	"NULL"	"NULL"	"<p style=\"color: black; font-size: 80px; padding-left: 9%; padding-right: 24%; padding-top: 8%; padding-bottom: 18%\">+</p>"	"1208"	n/a	n/a	n/a	n/a	n/a	n/a	n/a	n/a	n/a
n/a	"image-keyboard-response"	"144"	"382564"	"0.0-5.0-2.0-1.45"	"gmxfm2"	"600"	"1366"	"chrome"	"108.0.0"	"FALSE"	"Windows 10"	"60.57"	"115"	n/a	n/a	n/a	n/a	n/a	n/a	"Trial"	n/a	n/a	n/a	"900"	"arrowright"	n/a	"NULL"	"NULL"	"NULL"	"stimuli/Ebbinghaus_-0.61429_-0.15857.png"	n/a	"Ebbinghaus"	"arrowright"	"1216"	"TRUE"	"Ebbinghaus"	"-0.614290000"	"-0.158570000"	"1"	"64"
n/a	"html-keyboard-response"	"145"	"383635"	"0.0-5.0-2.0-0.46"	"gmxfm2"	"600"	"1366"	"chrome"	"108.0.0"	"FALSE"	"Windows 10"	"60.57"	"115"	n/a	n/a	n/a	n/a	n/a	n/a	"fixation"	n/a	n/a	n/a	n/a	"NULL"	n/a	"NULL"	"NULL"	"NULL"	"<p style=\"color: black; font-size: 80px; padding-left: 36%; padding-right: 13%; padding-top: 28%; padding-bottom: 16%\">+</p>"	"1055"	n/a	n/a	n/a	n/a	n/a	n/a	n/a	n/a	n/a
n/a	"image-keyboard-response"	"146"	"384239"	"0.0-5.0-2.0-1.46"	"gmxfm2"	"600"	"1366"	"chrome"	"108.0.0"	"FALSE"	"Windows 10"	"60.57"	"115"	n/a	n/a	n/a	n/a	n/a	n/a	"Trial"	n/a	n/a	n/a	"603"	"arrowleft"	n/a	"NULL"	"NULL"	"NULL"	"stimuli/Ebbinghaus_-0.61429_-0.11071.png"	n/a	"Ebbinghaus"	"arrowright"	"1071"	"FALSE"	"Ebbinghaus"	"-0.614290000"	"-0.110710000"	"1"	"65"
n/a	"html-keyboard-response"	"147"	"385406"	"0.0-5.0-2.0-0.47"	"gmxfm2"	"600"	"1366"	"chrome"	"108.0.0"	"FALSE"	"Windows 10"	"60.57"	"115"	n/a	n/a	n/a	n/a	n/a	n/a	"fixation"	n/a	n/a	n/a	n/a	"NULL"	n/a	"NULL"	"NULL"	"NULL"	"<p style=\"color: black; font-size: 80px; padding-left: 4%; padding-right: 5%; padding-top: 11%; padding-bottom: 44%\">+</p>"	"1146"	n/a	n/a	n/a	n/a	n/a	n/a	n/a	n/a	n/a
n/a	"image-keyboard-response"	"148"	"386404"	"0.0-5.0-2.0-1.47"	"gmxfm2"	"600"	"1366"	"chrome"	"108.0.0"	"FALSE"	"Windows 10"	"60.57"	"115"	n/a	n/a	n/a	n/a	n/a	n/a	"Trial"	n/a	n/a	n/a	"997"	"arrowleft"	n/a	"NULL"	"NULL"	"NULL"	"stimuli/Ebbinghaus_-0.1000_0.28000.png"	n/a	"Ebbinghaus"	"arrowleft"	"1167"	"TRUE"	"Ebbinghaus"	"-0.100000000"	"0.2800000000"	"1"	"66"
n/a	"html-keyboard-response"	"149"	"387705"	"0.0-5.0-2.0-0.48"	"gmxfm2"	"600"	"1366"	"chrome"	"108.0.0"	"FALSE"	"Windows 10"	"60.57"	"115"	n/a	n/a	n/a	n/a	n/a	n/a	"fixation"	n/a	n/a	n/a	n/a	"NULL"	n/a	"NULL"	"NULL"	"NULL"	"<p style=\"color: black; font-size: 80px; padding-left: 33%; padding-right: 34%; padding-top: 42%; padding-bottom: 5%\">+</p>"	"1285"	n/a	n/a	n/a	n/a	n/a	n/a	n/a	n/a	n/a
n/a	"image-keyboard-response"	"150"	"388534"	"0.0-5.0-2.0-1.48"	"gmxfm2"	"600"	"1366"	"chrome"	"108.0.0"	"FALSE"	"Windows 10"	"60.57"	"115"	n/a	n/a	n/a	n/a	n/a	n/a	"Trial"	n/a	n/a	n/a	"828"	"arrowright"	n/a	"NULL"	"NULL"	"NULL"	"stimuli/Ebbinghaus_0.61429_-0.11071.png"	n/a	"Ebbinghaus"	"arrowright"	"1301"	"TRUE"	"Ebbinghaus"	"0.6142900000"	"-0.110710000"	"1"	"67"
n/a	"html-keyboard-response"	"151"	"389851"	"0.0-5.0-2.0-0.49"	"gmxfm2"	"600"	"1366"	"chrome"	"108.0.0"	"FALSE"	"Windows 10"	"60.57"	"115"	n/a	n/a	n/a	n/a	n/a	n/a	"fixation"	n/a	n/a	n/a	n/a	"NULL"	n/a	"NULL"	"NULL"	"NULL"	"<p style=\"color: black; font-size: 80px; padding-left: 6%; padding-right: 37%; padding-top: 43%; padding-bottom: 29%\">+</p>"	"1310"	n/a	n/a	n/a	n/a	n/a	n/a	n/a	n/a	n/a
n/a	"image-keyboard-response"	"152"	"390483"	"0.0-5.0-2.0-1.49"	"gmxfm2"	"600"	"1366"	"chrome"	"108.0.0"	"FALSE"	"Windows 10"	"60.57"	"115"	n/a	n/a	n/a	n/a	n/a	n/a	"Trial"	n/a	n/a	n/a	"631"	"arrowright"	n/a	"NULL"	"NULL"	"NULL"	"stimuli/Ebbinghaus_0.10000_-0.2800.png"	n/a	"Ebbinghaus"	"arrowright"	"1317"	"TRUE"	"Ebbinghaus"	"0.1000000000"	"-0.280000000"	"1"	"68"
n/a	"html-keyboard-response"	"153"	"391934"	"0.0-5.0-2.0-0.50"	"gmxfm2"	"600"	"1366"	"chrome"	"108.0.0"	"FALSE"	"Windows 10"	"60.57"	"115"	n/a	n/a	n/a	n/a	n/a	n/a	"fixation"	n/a	n/a	n/a	n/a	"NULL"	n/a	"NULL"	"NULL"	"NULL"	"<p style=\"color: black; font-size: 80px; padding-left: 10%; padding-right: 16%; padding-top: 18%; padding-bottom: 47%\">+</p>"	"1439"	n/a	n/a	n/a	n/a	n/a	n/a	n/a	n/a	n/a
n/a	"image-keyboard-response"	"154"	"392584"	"0.0-5.0-2.0-1.50"	"gmxfm2"	"600"	"1366"	"chrome"	"108.0.0"	"FALSE"	"Windows 10"	"60.57"	"115"	n/a	n/a	n/a	n/a	n/a	n/a	"Trial"	n/a	n/a	n/a	"649"	"arrowleft"	n/a	"NULL"	"NULL"	"NULL"	"stimuli/Ebbinghaus_-0.87143_0.28000.png"	n/a	"Ebbinghaus"	"arrowleft"	"1451"	"TRUE"	"Ebbinghaus"	"-0.871430000"	"0.2800000000"	"1"	"69"
n/a	"html-keyboard-response"	"155"	"393796"	"0.0-5.0-2.0-0.51"	"gmxfm2"	"600"	"1366"	"chrome"	"108.0.0"	"FALSE"	"Windows 10"	"60.57"	"115"	n/a	n/a	n/a	n/a	n/a	n/a	"fixation"	n/a	n/a	n/a	n/a	"NULL"	n/a	"NULL"	"NULL"	"NULL"	"<p style=\"color: black; font-size: 80px; padding-left: 9%; padding-right: 39%; padding-top: 45%; padding-bottom: 41%\">+</p>"	"1202"	n/a	n/a	n/a	n/a	n/a	n/a	n/a	n/a	n/a
n/a	"image-keyboard-response"	"156"	"394612"	"0.0-5.0-2.0-1.51"	"gmxfm2"	"600"	"1366"	"chrome"	"108.0.0"	"FALSE"	"Windows 10"	"60.57"	"115"	n/a	n/a	n/a	n/a	n/a	n/a	"Trial"	n/a	n/a	n/a	"815"	"arrowright"	n/a	"NULL"	"NULL"	"NULL"	"stimuli/Ebbinghaus_-0.35714_-0.15857.png"	n/a	"Ebbinghaus"	"arrowright"	"1212"	"TRUE"	"Ebbinghaus"	"-0.357140000"	"-0.158570000"	"1"	"70"
n/a	"html-keyboard-response"	"157"	"395682"	"0.0-5.0-2.0-0.52"	"gmxfm2"	"600"	"1366"	"chrome"	"108.0.0"	"FALSE"	"Windows 10"	"60.57"	"115"	n/a	n/a	n/a	n/a	n/a	n/a	"fixation"	n/a	n/a	n/a	n/a	"NULL"	n/a	"NULL"	"NULL"	"NULL"	"<p style=\"color: black; font-size: 80px; padding-left: 13%; padding-right: 24%; padding-top: 11%; padding-bottom: 39%\">+</p>"	"1056"	n/a	n/a	n/a	n/a	n/a	n/a	n/a	n/a	n/a
n/a	"image-keyboard-response"	"158"	"396858"	"0.0-5.0-2.0-1.52"	"gmxfm2"	"600"	"1366"	"chrome"	"108.0.0"	"FALSE"	"Windows 10"	"60.57"	"115"	n/a	n/a	n/a	n/a	n/a	n/a	"Trial"	n/a	n/a	n/a	"1175"	"arrowright"	n/a	"NULL"	"NULL"	"NULL"	"stimuli/Ebbinghaus_-0.1000_-0.11071.png"	n/a	"Ebbinghaus"	"arrowright"	"1070"	"TRUE"	"Ebbinghaus"	"-0.100000000"	"-0.110710000"	"1"	"71"
n/a	"html-keyboard-response"	"159"	"397964"	"0.0-5.0-2.0-0.53"	"gmxfm2"	"600"	"1366"	"chrome"	"108.0.0"	"FALSE"	"Windows 10"	"60.57"	"115"	n/a	n/a	n/a	n/a	n/a	n/a	"fixation"	n/a	n/a	n/a	n/a	"NULL"	n/a	"NULL"	"NULL"	"NULL"	"<p style=\"color: black; font-size: 80px; padding-left: 6%; padding-right: 48%; padding-top: 26%; padding-bottom: 34%\">+</p>"	"1086"	n/a	n/a	n/a	n/a	n/a	n/a	n/a	n/a	n/a
n/a	"image-keyboard-response"	"160"	"398785"	"0.0-5.0-2.0-1.53"	"gmxfm2"	"600"	"1366"	"chrome"	"108.0.0"	"FALSE"	"Windows 10"	"60.57"	"115"	n/a	n/a	n/a	n/a	n/a	n/a	"Trial"	n/a	n/a	n/a	"821"	"arrowright"	n/a	"NULL"	"NULL"	"NULL"	"stimuli/Ebbinghaus_-0.61429_-0.2800.png"	n/a	"Ebbinghaus"	"arrowright"	"1106"	"TRUE"	"Ebbinghaus"	"-0.614290000"	"-0.280000000"	"1"	"72"
n/a	"html-keyboard-response"	"161"	"399808"	"0.0-5.0-2.0-0.54"	"gmxfm2"	"600"	"1366"	"chrome"	"108.0.0"	"FALSE"	"Windows 10"	"60.57"	"115"	n/a	n/a	n/a	n/a	n/a	n/a	"fixation"	n/a	n/a	n/a	n/a	"NULL"	n/a	"NULL"	"NULL"	"NULL"	"<p style=\"color: black; font-size: 80px; padding-left: 9%; padding-right: 32%; padding-top: 43%; padding-bottom: 11%\">+</p>"	"1012"	n/a	n/a	n/a	n/a	n/a	n/a	n/a	n/a	n/a
n/a	"image-keyboard-response"	"162"	"400474"	"0.0-5.0-2.0-1.54"	"gmxfm2"	"600"	"1366"	"chrome"	"108.0.0"	"FALSE"	"Windows 10"	"60.57"	"115"	n/a	n/a	n/a	n/a	n/a	n/a	"Trial"	n/a	n/a	n/a	"665"	"arrowleft"	n/a	"NULL"	"NULL"	"NULL"	"stimuli/Ebbinghaus_-0.35714_0.28000.png"	n/a	"Ebbinghaus"	"arrowleft"	"1023"	"TRUE"	"Ebbinghaus"	"-0.357140000"	"0.2800000000"	"1"	"73"
n/a	"html-keyboard-response"	"163"	"401594"	"0.0-5.0-2.0-0.55"	"gmxfm2"	"600"	"1366"	"chrome"	"108.0.0"	"FALSE"	"Windows 10"	"60.57"	"115"	n/a	n/a	n/a	n/a	n/a	n/a	"fixation"	n/a	n/a	n/a	n/a	"NULL"	n/a	"NULL"	"NULL"	"NULL"	"<p style=\"color: black; font-size: 80px; padding-left: 15%; padding-right: 41%; padding-top: 45%; padding-bottom: 15%\">+</p>"	"1107"	n/a	n/a	n/a	n/a	n/a	n/a	n/a	n/a	n/a
n/a	"image-keyboard-response"	"164"	"402445"	"0.0-5.0-2.0-1.55"	"gmxfm2"	"600"	"1366"	"chrome"	"108.0.0"	"FALSE"	"Windows 10"	"60.57"	"115"	n/a	n/a	n/a	n/a	n/a	n/a	"Trial"	n/a	n/a	n/a	"851"	"arrowright"	n/a	"NULL"	"NULL"	"NULL"	"stimuli/Ebbinghaus_-0.61429_-0.2150.png"	n/a	"Ebbinghaus"	"arrowright"	"1120"	"TRUE"	"Ebbinghaus"	"-0.614290000"	"-0.215000000"	"1"	"74"
n/a	"html-keyboard-response"	"165"	"403527"	"0.0-5.0-2.0-0.56"	"gmxfm2"	"600"	"1366"	"chrome"	"108.0.0"	"FALSE"	"Windows 10"	"60.57"	"115"	n/a	n/a	n/a	n/a	n/a	n/a	"fixation"	n/a	n/a	n/a	n/a	"NULL"	n/a	"NULL"	"NULL"	"NULL"	"<p style=\"color: black; font-size: 80px; padding-left: 23%; padding-right: 43%; padding-top: 34%; padding-bottom: 32%\">+</p>"	"1066"	n/a	n/a	n/a	n/a	n/a	n/a	n/a	n/a	n/a
n/a	"image-keyboard-response"	"166"	"404562"	"0.0-5.0-2.0-1.56"	"gmxfm2"	"600"	"1366"	"chrome"	"108.0.0"	"FALSE"	"Windows 10"	"60.57"	"115"	n/a	n/a	n/a	n/a	n/a	n/a	"Trial"	n/a	n/a	n/a	"1034"	"arrowright"	n/a	"NULL"	"NULL"	"NULL"	"stimuli/Ebbinghaus_0.35714_-0.11071.png"	n/a	"Ebbinghaus"	"arrowright"	"1082"	"TRUE"	"Ebbinghaus"	"0.3571400000"	"-0.110710000"	"1"	"75"
n/a	"html-keyboard-response"	"167"	"405981"	"0.0-5.0-2.0-0.57"	"gmxfm2"	"600"	"1366"	"chrome"	"108.0.0"	"FALSE"	"Windows 10"	"60.57"	"115"	n/a	n/a	n/a	n/a	n/a	n/a	"fixation"	n/a	n/a	n/a	n/a	"NULL"	n/a	"NULL"	"NULL"	"NULL"	"<p style=\"color: black; font-size: 80px; padding-left: 29%; padding-right: 22%; padding-top: 11%; padding-bottom: 36%\">+</p>"	"1401"	n/a	n/a	n/a	n/a	n/a	n/a	n/a	n/a	n/a
n/a	"image-keyboard-response"	"168"	"406912"	"0.0-5.0-2.0-1.57"	"gmxfm2"	"600"	"1366"	"chrome"	"108.0.0"	"FALSE"	"Windows 10"	"60.57"	"115"	n/a	n/a	n/a	n/a	n/a	n/a	"Trial"	n/a	n/a	n/a	"930"	"arrowleft"	n/a	"NULL"	"NULL"	"NULL"	"stimuli/Ebbinghaus_0.10000_0.15857.png"	n/a	"Ebbinghaus"	"arrowleft"	"1419"	"TRUE"	"Ebbinghaus"	"0.1000000000"	"0.1585700000"	"1"	"76"
n/a	"html-keyboard-response"	"169"	"408211"	"0.0-5.0-2.0-0.58"	"gmxfm2"	"600"	"1366"	"chrome"	"108.0.0"	"FALSE"	"Windows 10"	"60.57"	"115"	n/a	n/a	n/a	n/a	n/a	n/a	"fixation"	n/a	n/a	n/a	n/a	"NULL"	n/a	"NULL"	"NULL"	"NULL"	"<p style=\"color: black; font-size: 80px; padding-left: 47%; padding-right: 19%; padding-top: 34%; padding-bottom: 36%\">+</p>"	"1287"	n/a	n/a	n/a	n/a	n/a	n/a	n/a	n/a	n/a
n/a	"image-keyboard-response"	"170"	"409208"	"0.0-5.0-2.0-1.58"	"gmxfm2"	"600"	"1366"	"chrome"	"108.0.0"	"FALSE"	"Windows 10"	"60.57"	"115"	n/a	n/a	n/a	n/a	n/a	n/a	"Trial"	n/a	n/a	n/a	"994"	"arrowleft"	n/a	"NULL"	"NULL"	"NULL"	"stimuli/Ebbinghaus_-0.1000_0.15857.png"	n/a	"Ebbinghaus"	"arrowleft"	"1299"	"TRUE"	"Ebbinghaus"	"-0.100000000"	"0.1585700000"	"1"	"77"
n/a	"html-keyboard-response"	"171"	"410418"	"0.0-5.0-2.0-0.59"	"gmxfm2"	"600"	"1366"	"chrome"	"108.0.0"	"FALSE"	"Windows 10"	"60.57"	"115"	n/a	n/a	n/a	n/a	n/a	n/a	"fixation"	n/a	n/a	n/a	n/a	"NULL"	n/a	"NULL"	"NULL"	"NULL"	"<p style=\"color: black; font-size: 80px; padding-left: 39%; padding-right: 4%; padding-top: 26%; padding-bottom: 28%\">+</p>"	"1193"	n/a	n/a	n/a	n/a	n/a	n/a	n/a	n/a	n/a
n/a	"image-keyboard-response"	"172"	"410950"	"0.0-5.0-2.0-1.59"	"gmxfm2"	"600"	"1366"	"chrome"	"108.0.0"	"FALSE"	"Windows 10"	"60.57"	"115"	n/a	n/a	n/a	n/a	n/a	n/a	"Trial"	n/a	n/a	n/a	"531"	"arrowleft"	n/a	"NULL"	"NULL"	"NULL"	"stimuli/Ebbinghaus_0.61429_0.21500.png"	n/a	"Ebbinghaus"	"arrowleft"	"1210"	"TRUE"	"Ebbinghaus"	"0.6142900000"	"0.2150000000"	"1"	"78"
n/a	"html-keyboard-response"	"173"	"411983"	"0.0-5.0-2.0-0.60"	"gmxfm2"	"600"	"1366"	"chrome"	"108.0.0"	"FALSE"	"Windows 10"	"60.57"	"115"	n/a	n/a	n/a	n/a	n/a	n/a	"fixation"	n/a	n/a	n/a	n/a	"NULL"	n/a	"NULL"	"NULL"	"NULL"	"<p style=\"color: black; font-size: 80px; padding-left: 40%; padding-right: 8%; padding-top: 22%; padding-bottom: 42%\">+</p>"	"1027"	n/a	n/a	n/a	n/a	n/a	n/a	n/a	n/a	n/a
n/a	"image-keyboard-response"	"174"	"412539"	"0.0-5.0-2.0-1.60"	"gmxfm2"	"600"	"1366"	"chrome"	"108.0.0"	"FALSE"	"Windows 10"	"60.57"	"115"	n/a	n/a	n/a	n/a	n/a	n/a	"Trial"	n/a	n/a	n/a	"555"	"arrowright"	n/a	"NULL"	"NULL"	"NULL"	"stimuli/Ebbinghaus_0.35714_-0.2800.png"	n/a	"Ebbinghaus"	"arrowright"	"1033"	"TRUE"	"Ebbinghaus"	"0.3571400000"	"-0.280000000"	"1"	"79"
n/a	"html-keyboard-response"	"175"	"413727"	"0.0-5.0-2.0-0.61"	"gmxfm2"	"600"	"1366"	"chrome"	"108.0.0"	"FALSE"	"Windows 10"	"60.57"	"115"	n/a	n/a	n/a	n/a	n/a	n/a	"fixation"	n/a	n/a	n/a	n/a	"NULL"	n/a	"NULL"	"NULL"	"NULL"	"<p style=\"color: black; font-size: 80px; padding-left: 25%; padding-right: 18%; padding-top: 46%; padding-bottom: 29%\">+</p>"	"1179"	n/a	n/a	n/a	n/a	n/a	n/a	n/a	n/a	n/a
n/a	"image-keyboard-response"	"176"	"415555"	"0.0-5.0-2.0-1.61"	"gmxfm2"	"600"	"1366"	"chrome"	"108.0.0"	"FALSE"	"Windows 10"	"60.57"	"115"	n/a	n/a	n/a	n/a	n/a	n/a	"Trial"	n/a	n/a	n/a	"1828"	"arrowright"	n/a	"NULL"	"NULL"	"NULL"	"stimuli/Ebbinghaus_0.61429_-0.15857.png"	n/a	"Ebbinghaus"	"arrowright"	"1188"	"TRUE"	"Ebbinghaus"	"0.6142900000"	"-0.158570000"	"1"	"80"
n/a	"html-keyboard-response"	"177"	"416662"	"0.0-5.0-2.0-0.62"	"gmxfm2"	"600"	"1366"	"chrome"	"108.0.0"	"FALSE"	"Windows 10"	"60.57"	"115"	n/a	n/a	n/a	n/a	n/a	n/a	"fixation"	n/a	n/a	n/a	n/a	"NULL"	n/a	"NULL"	"NULL"	"NULL"	"<p style=\"color: black; font-size: 80px; padding-left: 30%; padding-right: 26%; padding-top: 26%; padding-bottom: 41%\">+</p>"	"1092"	n/a	n/a	n/a	n/a	n/a	n/a	n/a	n/a	n/a
n/a	"image-keyboard-response"	"178"	"417647"	"0.0-5.0-2.0-1.62"	"gmxfm2"	"600"	"1366"	"chrome"	"108.0.0"	"FALSE"	"Windows 10"	"60.57"	"115"	n/a	n/a	n/a	n/a	n/a	n/a	"Trial"	n/a	n/a	n/a	"984"	"arrowleft"	n/a	"NULL"	"NULL"	"NULL"	"stimuli/Ebbinghaus_-0.35714_0.21500.png"	n/a	"Ebbinghaus"	"arrowleft"	"1107"	"TRUE"	"Ebbinghaus"	"-0.357140000"	"0.2150000000"	"1"	"81"
n/a	"html-keyboard-response"	"179"	"419042"	"0.0-5.0-2.0-0.63"	"gmxfm2"	"600"	"1366"	"chrome"	"108.0.0"	"FALSE"	"Windows 10"	"60.57"	"115"	n/a	n/a	n/a	n/a	n/a	n/a	"fixation"	n/a	n/a	n/a	n/a	"NULL"	n/a	"NULL"	"NULL"	"NULL"	"<p style=\"color: black; font-size: 80px; padding-left: 24%; padding-right: 45%; padding-top: 37%; padding-bottom: 5%\">+</p>"	"1379"	n/a	n/a	n/a	n/a	n/a	n/a	n/a	n/a	n/a
n/a	"image-keyboard-response"	"180"	"420737"	"0.0-5.0-2.0-1.63"	"gmxfm2"	"600"	"1366"	"chrome"	"108.0.0"	"FALSE"	"Windows 10"	"60.57"	"115"	n/a	n/a	n/a	n/a	n/a	n/a	"Trial"	n/a	n/a	n/a	"1693"	"arrowright"	n/a	"NULL"	"NULL"	"NULL"	"stimuli/Ebbinghaus_0.35714_-0.15857.png"	n/a	"Ebbinghaus"	"arrowright"	"1395"	"TRUE"	"Ebbinghaus"	"0.3571400000"	"-0.158570000"	"1"	"82"
n/a	"html-button-response"	"181"	"468489"	"0.0-5.0-3.0"	"gmxfm2"	"600"	"1366"	"chrome"	"108.0.0"	"FALSE"	"Windows 10"	"60.57"	"115"	n/a	n/a	n/a	n/a	n/a	n/a	"block_results"	n/a	n/a	n/a	"47745"	"0"	n/a	"NULL"	"NULL"	"NULL"	"<p>Your score for this illusion is <p style=\"color: black; font-size: 48px; font-weight: bold;\">73 %</p><hr><p>Can you do better in the next illusion?</p>"	n/a	n/a	n/a	n/a	n/a	n/a	n/a	n/a	n/a	n/a
"TRUE"	"preload"	"182"	"468643"	"0.0-6.0-0.0"	"gmxfm2"	"600"	"1366"	"chrome"	"108.0.0"	"FALSE"	"Windows 10"	"60.57"	"115"	n/a	n/a	n/a	n/a	n/a	n/a	n/a	n/a	n/a	n/a	n/a	"NULL"	"FALSE"	"list()"	"list()"	"list()"	n/a	n/a	n/a	n/a	n/a	n/a	n/a	n/a	n/a	n/a	n/a
n/a	"html-keyboard-response"	"183"	"479884"	"0.0-6.0-1.0"	"gmxfm2"	"600"	"1366"	"chrome"	"108.0.0"	"FALSE"	"Windows 10"	"60.57"	"115"	n/a	n/a	n/a	n/a	n/a	n/a	n/a	n/a	n/a	n/a	"11240"	"enter"	n/a	"NULL"	"NULL"	"NULL"	"<p><b>Part 2/6</b></p><p>In this part, two red lines will appear side by side.</p><p>Your task is to tell <b>which line is longer</b> in length, regardless of their orientation, as fast as you can, and without making errors.</p><p>Don't get distracted by the orientation of the lines!</p><p>Press <b>the LEFT or the RIGHT arrow</b> to indicate which <b>line is the longer one.</b></p><div style='float: center'><img src='materials/instructions/VerticalHorizontal_Demo.png' height='300'></img><p><img src='utils/answer/answer_leftright_keyboard.PNG' height='150'></img></p><p class='small'>In this example, the correct answer is the <b>LEFT arrow</b>.</p></div><p>Are you ready? <b>Press ENTER to start</b></p>"	n/a	n/a	n/a	n/a	n/a	n/a	n/a	n/a	n/a	n/a
n/a	"html-keyboard-response"	"184"	"481809"	"0.0-6.0-2.0-0.0"	"gmxfm2"	"600"	"1366"	"chrome"	"108.0.0"	"FALSE"	"Windows 10"	"60.57"	"115"	n/a	n/a	n/a	n/a	n/a	n/a	"fixation"	n/a	n/a	n/a	n/a	"NULL"	n/a	"NULL"	"NULL"	"NULL"	"<p style=\"color: black; font-size: 80px; padding-left: 13%; padding-right: 9%; padding-top: 6%; padding-bottom: 23%\">+</p>"	"1401"	n/a	n/a	n/a	n/a	n/a	n/a	n/a	n/a	n/a
n/a	"image-keyboard-response"	"185"	"483004"	"0.0-6.0-2.0-1.0"	"gmxfm2"	"600"	"1366"	"chrome"	"108.0.0"	"FALSE"	"Windows 10"	"60.57"	"115"	n/a	n/a	n/a	n/a	n/a	n/a	"Trial"	n/a	n/a	n/a	"1194"	"arrowright"	n/a	"NULL"	"NULL"	"NULL"	"stimuli/VerticalHorizontal_20.27143_-0.0673.png"	n/a	"VerticalHorizontal"	"arrowright"	"1925"	"TRUE"	"VerticalHorizontal"	"20.271430000"	"-0.067300000"	"2"	"1"
n/a	"html-keyboard-response"	"186"	"484384"	"0.0-6.0-2.0-0.1"	"gmxfm2"	"600"	"1366"	"chrome"	"108.0.0"	"FALSE"	"Windows 10"	"60.57"	"115"	n/a	n/a	n/a	n/a	n/a	n/a	"fixation"	n/a	n/a	n/a	n/a	"NULL"	n/a	"NULL"	"NULL"	"NULL"	"<p style=\"color: black; font-size: 80px; padding-left: 43%; padding-right: 30%; padding-top: 22%; padding-bottom: 37%\">+</p>"	"1357"	n/a	n/a	n/a	n/a	n/a	n/a	n/a	n/a	n/a
n/a	"image-keyboard-response"	"187"	"484972"	"0.0-6.0-2.0-1.1"	"gmxfm2"	"600"	"1366"	"chrome"	"108.0.0"	"FALSE"	"Windows 10"	"60.57"	"115"	n/a	n/a	n/a	n/a	n/a	n/a	"Trial"	n/a	n/a	n/a	"586"	"arrowright"	n/a	"NULL"	"NULL"	"NULL"	"stimuli/VerticalHorizontal_20.27143_-0.2250.png"	n/a	"VerticalHorizontal"	"arrowright"	"1380"	"TRUE"	"VerticalHorizontal"	"20.271430000"	"-0.225000000"	"2"	"2"
n/a	"html-keyboard-response"	"188"	"486136"	"0.0-6.0-2.0-0.2"	"gmxfm2"	"600"	"1366"	"chrome"	"108.0.0"	"FALSE"	"Windows 10"	"60.57"	"115"	n/a	n/a	n/a	n/a	n/a	n/a	"fixation"	n/a	n/a	n/a	n/a	"NULL"	n/a	"NULL"	"NULL"	"NULL"	"<p style=\"color: black; font-size: 80px; padding-left: 10%; padding-right: 39%; padding-top: 16%; padding-bottom: 49%\">+</p>"	"1145"	n/a	n/a	n/a	n/a	n/a	n/a	n/a	n/a	n/a
n/a	"image-keyboard-response"	"189"	"487167"	"0.0-6.0-2.0-1.2"	"gmxfm2"	"600"	"1366"	"chrome"	"108.0.0"	"FALSE"	"Windows 10"	"60.57"	"115"	n/a	n/a	n/a	n/a	n/a	n/a	"Trial"	n/a	n/a	n/a	"1030"	"arrowright"	n/a	"NULL"	"NULL"	"NULL"	"stimuli/VerticalHorizontal_-3.3000_-0.1096.png"	n/a	"VerticalHorizontal"	"arrowright"	"1164"	"TRUE"	"VerticalHorizontal"	"-3.300000000"	"-0.109600000"	"2"	"3"
n/a	"html-keyboard-response"	"190"	"488447"	"0.0-6.0-2.0-0.3"	"gmxfm2"	"600"	"1366"	"chrome"	"108.0.0"	"FALSE"	"Windows 10"	"60.57"	"115"	n/a	n/a	n/a	n/a	n/a	n/a	"fixation"	n/a	n/a	n/a	n/a	"NULL"	n/a	"NULL"	"NULL"	"NULL"	"<p style=\"color: black; font-size: 80px; padding-left: 45%; padding-right: 40%; padding-top: 42%; padding-bottom: 8%\">+</p>"	"1263"	n/a	n/a	n/a	n/a	n/a	n/a	n/a	n/a	n/a
n/a	"image-keyboard-response"	"191"	"489448"	"0.0-6.0-2.0-1.3"	"gmxfm2"	"600"	"1366"	"chrome"	"108.0.0"	"FALSE"	"Windows 10"	"60.57"	"115"	n/a	n/a	n/a	n/a	n/a	n/a	"Trial"	n/a	n/a	n/a	"1000"	"arrowright"	n/a	"NULL"	"NULL"	"NULL"	"stimuli/VerticalHorizontal_-20.27143_-0.0673.png"	n/a	"VerticalHorizontal"	"arrowright"	"1280"	"TRUE"	"VerticalHorizontal"	"-20.27143000"	"-0.067300000"	"2"	"4"
n/a	"html-keyboard-response"	"192"	"490709"	"0.0-6.0-2.0-0.4"	"gmxfm2"	"600"	"1366"	"chrome"	"108.0.0"	"FALSE"	"Windows 10"	"60.57"	"115"	n/a	n/a	n/a	n/a	n/a	n/a	"fixation"	n/a	n/a	n/a	n/a	"NULL"	n/a	"NULL"	"NULL"	"NULL"	"<p style=\"color: black; font-size: 80px; padding-left: 29%; padding-right: 40%; padding-top: 33%; padding-bottom: 27%\">+</p>"	"1255"	n/a	n/a	n/a	n/a	n/a	n/a	n/a	n/a	n/a
n/a	"image-keyboard-response"	"193"	"491711"	"0.0-6.0-2.0-1.4"	"gmxfm2"	"600"	"1366"	"chrome"	"108.0.0"	"FALSE"	"Windows 10"	"60.57"	"115"	n/a	n/a	n/a	n/a	n/a	n/a	"Trial"	n/a	n/a	n/a	"1001"	"arrowright"	n/a	"NULL"	"NULL"	"NULL"	"stimuli/VerticalHorizontal_-3.3000_-0.0673.png"	n/a	"VerticalHorizontal"	"arrowright"	"1261"	"TRUE"	"VerticalHorizontal"	"-3.300000000"	"-0.067300000"	"2"	"5"
n/a	"html-keyboard-response"	"194"	"493014"	"0.0-6.0-2.0-0.5"	"gmxfm2"	"600"	"1366"	"chrome"	"108.0.0"	"FALSE"	"Windows 10"	"60.57"	"115"	n/a	n/a	n/a	n/a	n/a	n/a	"fixation"	n/a	n/a	n/a	n/a	"NULL"	n/a	"NULL"	"NULL"	"NULL"	"<p style=\"color: black; font-size: 80px; padding-left: 10%; padding-right: 35%; padding-top: 24%; padding-bottom: 47%\">+</p>"	"1290"	n/a	n/a	n/a	n/a	n/a	n/a	n/a	n/a	n/a
n/a	"image-keyboard-response"	"195"	"493460"	"0.0-6.0-2.0-1.5"	"gmxfm2"	"600"	"1366"	"chrome"	"108.0.0"	"FALSE"	"Windows 10"	"60.57"	"115"	n/a	n/a	n/a	n/a	n/a	n/a	"Trial"	n/a	n/a	n/a	"445"	"arrowright"	n/a	"NULL"	"NULL"	"NULL"	"stimuli/VerticalHorizontal_-28.75714_-0.1096.png"	n/a	"VerticalHorizontal"	"arrowright"	"1303"	"TRUE"	"VerticalHorizontal"	"-28.75714000"	"-0.109600000"	"2"	"6"
n/a	"html-keyboard-response"	"196"	"494702"	"0.0-6.0-2.0-0.6"	"gmxfm2"	"600"	"1366"	"chrome"	"108.0.0"	"FALSE"	"Windows 10"	"60.57"	"115"	n/a	n/a	n/a	n/a	n/a	n/a	"fixation"	n/a	n/a	n/a	n/a	"NULL"	n/a	"NULL"	"NULL"	"NULL"	"<p style=\"color: black; font-size: 80px; padding-left: 9%; padding-right: 19%; padding-top: 11%; padding-bottom: 45%\">+</p>"	"1233"	n/a	n/a	n/a	n/a	n/a	n/a	n/a	n/a	n/a
n/a	"image-keyboard-response"	"197"	"495827"	"0.0-6.0-2.0-1.6"	"gmxfm2"	"600"	"1366"	"chrome"	"108.0.0"	"FALSE"	"Windows 10"	"60.57"	"115"	n/a	n/a	n/a	n/a	n/a	n/a	"Trial"	n/a	n/a	n/a	"1123"	"arrowleft"	n/a	"NULL"	"NULL"	"NULL"	"stimuli/VerticalHorizontal_28.75714_0.16217.png"	n/a	"VerticalHorizontal"	"arrowleft"	"1242"	"TRUE"	"VerticalHorizontal"	"28.757140000"	"0.1621700000"	"2"	"7"
n/a	"html-keyboard-response"	"198"	"497308"	"0.0-6.0-2.0-0.7"	"gmxfm2"	"600"	"1366"	"chrome"	"108.0.0"	"FALSE"	"Windows 10"	"60.57"	"115"	n/a	n/a	n/a	n/a	n/a	n/a	"fixation"	n/a	n/a	n/a	n/a	"NULL"	n/a	"NULL"	"NULL"	"NULL"	"<p style=\"color: black; font-size: 80px; padding-left: 33%; padding-right: 48%; padding-top: 24%; padding-bottom: 45%\">+</p>"	"1462"	n/a	n/a	n/a	n/a	n/a	n/a	n/a	n/a	n/a
n/a	"image-keyboard-response"	"199"	"498417"	"0.0-6.0-2.0-1.7"	"gmxfm2"	"600"	"1366"	"chrome"	"108.0.0"	"FALSE"	"Windows 10"	"60.57"	"115"	n/a	n/a	n/a	n/a	n/a	n/a	"Trial"	n/a	n/a	n/a	"1107"	"arrowleft"	n/a	"NULL"	"NULL"	"NULL"	"stimuli/VerticalHorizontal_-11.78571_0.06730.png"	n/a	"VerticalHorizontal"	"arrowleft"	"1481"	"TRUE"	"VerticalHorizontal"	"-11.78571000"	"0.0673000000"	"2"	"8"
n/a	"html-keyboard-response"	"200"	"499624"	"0.0-6.0-2.0-0.8"	"gmxfm2"	"600"	"1366"	"chrome"	"108.0.0"	"FALSE"	"Windows 10"	"60.57"	"115"	n/a	n/a	n/a	n/a	n/a	n/a	"fixation"	n/a	n/a	n/a	n/a	"NULL"	n/a	"NULL"	"NULL"	"NULL"	"<p style=\"color: black; font-size: 80px; padding-left: 43%; padding-right: 13%; padding-top: 8%; padding-bottom: 45%\">+</p>"	"1186"	n/a	n/a	n/a	n/a	n/a	n/a	n/a	n/a	n/a
n/a	"image-keyboard-response"	"201"	"500491"	"0.0-6.0-2.0-1.8"	"gmxfm2"	"600"	"1366"	"chrome"	"108.0.0"	"FALSE"	"Windows 10"	"60.57"	"115"	n/a	n/a	n/a	n/a	n/a	n/a	"Trial"	n/a	n/a	n/a	"866"	"arrowleft"	n/a	"NULL"	"NULL"	"NULL"	"stimuli/VerticalHorizontal_3.30000_0.16217.png"	n/a	"VerticalHorizontal"	"arrowleft"	"1207"	"TRUE"	"VerticalHorizontal"	"3.3000000000"	"0.1621700000"	"2"	"9"
n/a	"html-keyboard-response"	"202"	"501920"	"0.0-6.0-2.0-0.9"	"gmxfm2"	"600"	"1366"	"chrome"	"108.0.0"	"FALSE"	"Windows 10"	"60.57"	"115"	n/a	n/a	n/a	n/a	n/a	n/a	"fixation"	n/a	n/a	n/a	n/a	"NULL"	n/a	"NULL"	"NULL"	"NULL"	"<p style=\"color: black; font-size: 80px; padding-left: 35%; padding-right: 42%; padding-top: 15%; padding-bottom: 31%\">+</p>"	"1413"	n/a	n/a	n/a	n/a	n/a	n/a	n/a	n/a	n/a
n/a	"image-keyboard-response"	"203"	"502654"	"0.0-6.0-2.0-1.9"	"gmxfm2"	"600"	"1366"	"chrome"	"108.0.0"	"FALSE"	"Windows 10"	"60.57"	"115"	n/a	n/a	n/a	n/a	n/a	n/a	"Trial"	n/a	n/a	n/a	"733"	"arrowleft"	n/a	"NULL"	"NULL"	"NULL"	"stimuli/VerticalHorizontal_-3.3000_0.16217.png"	n/a	"VerticalHorizontal"	"arrowleft"	"1429"	"TRUE"	"VerticalHorizontal"	"-3.300000000"	"0.1621700000"	"2"	"10"
n/a	"html-keyboard-response"	"204"	"503857"	"0.0-6.0-2.0-0.10"	"gmxfm2"	"600"	"1366"	"chrome"	"108.0.0"	"FALSE"	"Windows 10"	"60.57"	"115"	n/a	n/a	n/a	n/a	n/a	n/a	"fixation"	n/a	n/a	n/a	n/a	"NULL"	n/a	"NULL"	"NULL"	"NULL"	"<p style=\"color: black; font-size: 80px; padding-left: 35%; padding-right: 35%; padding-top: 34%; padding-bottom: 36%\">+</p>"	"1183"	n/a	n/a	n/a	n/a	n/a	n/a	n/a	n/a	n/a
n/a	"image-keyboard-response"	"205"	"504388"	"0.0-6.0-2.0-1.10"	"gmxfm2"	"600"	"1366"	"chrome"	"108.0.0"	"FALSE"	"Windows 10"	"60.57"	"115"	n/a	n/a	n/a	n/a	n/a	n/a	"Trial"	n/a	n/a	n/a	"530"	"arrowright"	n/a	"NULL"	"NULL"	"NULL"	"stimuli/VerticalHorizontal_-20.27143_-0.16217.png"	n/a	"VerticalHorizontal"	"arrowright"	"1203"	"TRUE"	"VerticalHorizontal"	"-20.27143000"	"-0.162170000"	"2"	"11"
n/a	"html-keyboard-response"	"206"	"505596"	"0.0-6.0-2.0-0.11"	"gmxfm2"	"600"	"1366"	"chrome"	"108.0.0"	"FALSE"	"Windows 10"	"60.57"	"115"	n/a	n/a	n/a	n/a	n/a	n/a	"fixation"	n/a	n/a	n/a	n/a	"NULL"	n/a	"NULL"	"NULL"	"NULL"	"<p style=\"color: black; font-size: 80px; padding-left: 18%; padding-right: 5%; padding-top: 12%; padding-bottom: 45%\">+</p>"	"1201"	n/a	n/a	n/a	n/a	n/a	n/a	n/a	n/a	n/a
n/a	"image-keyboard-response"	"207"	"506275"	"0.0-6.0-2.0-1.11"	"gmxfm2"	"600"	"1366"	"chrome"	"108.0.0"	"FALSE"	"Windows 10"	"60.57"	"115"	n/a	n/a	n/a	n/a	n/a	n/a	"Trial"	n/a	n/a	n/a	"678"	"arrowleft"	n/a	"NULL"	"NULL"	"NULL"	"stimuli/VerticalHorizontal_-20.27143_0.06730.png"	n/a	"VerticalHorizontal"	"arrowleft"	"1208"	"TRUE"	"VerticalHorizontal"	"-20.27143000"	"0.0673000000"	"2"	"12"
n/a	"html-keyboard-response"	"208"	"507616"	"0.0-6.0-2.0-0.12"	"gmxfm2"	"600"	"1366"	"chrome"	"108.0.0"	"FALSE"	"Windows 10"	"60.57"	"115"	n/a	n/a	n/a	n/a	n/a	n/a	"fixation"	n/a	n/a	n/a	n/a	"NULL"	n/a	"NULL"	"NULL"	"NULL"	"<p style=\"color: black; font-size: 80px; padding-left: 14%; padding-right: 26%; padding-top: 19%; padding-bottom: 29%\">+</p>"	"1320"	n/a	n/a	n/a	n/a	n/a	n/a	n/a	n/a	n/a
n/a	"image-keyboard-response"	"209"	"508203"	"0.0-6.0-2.0-1.12"	"gmxfm2"	"600"	"1366"	"chrome"	"108.0.0"	"FALSE"	"Windows 10"	"60.57"	"115"	n/a	n/a	n/a	n/a	n/a	n/a	"Trial"	n/a	n/a	n/a	"585"	"arrowright"	n/a	"NULL"	"NULL"	"NULL"	"stimuli/VerticalHorizontal_-3.3000_-0.16217.png"	n/a	"VerticalHorizontal"	"arrowright"	"1341"	"TRUE"	"VerticalHorizontal"	"-3.300000000"	"-0.162170000"	"2"	"13"
n/a	"html-keyboard-response"	"210"	"509357"	"0.0-6.0-2.0-0.13"	"gmxfm2"	"600"	"1366"	"chrome"	"108.0.0"	"FALSE"	"Windows 10"	"60.57"	"115"	n/a	n/a	n/a	n/a	n/a	n/a	"fixation"	n/a	n/a	n/a	n/a	"NULL"	n/a	"NULL"	"NULL"	"NULL"	"<p style=\"color: black; font-size: 80px; padding-left: 28%; padding-right: 26%; padding-top: 49%; padding-bottom: 20%\">+</p>"	"1143"	n/a	n/a	n/a	n/a	n/a	n/a	n/a	n/a	n/a
n/a	"image-keyboard-response"	"211"	"510132"	"0.0-6.0-2.0-1.13"	"gmxfm2"	"600"	"1366"	"chrome"	"108.0.0"	"FALSE"	"Windows 10"	"60.57"	"115"	n/a	n/a	n/a	n/a	n/a	n/a	"Trial"	n/a	n/a	n/a	"775"	"arrowright"	n/a	"NULL"	"NULL"	"NULL"	"stimuli/VerticalHorizontal_11.78571_-0.2250.png"	n/a	"VerticalHorizontal"	"arrowright"	"1154"	"TRUE"	"VerticalHorizontal"	"11.785710000"	"-0.225000000"	"2"	"14"
n/a	"html-keyboard-response"	"212"	"511169"	"0.0-6.0-2.0-0.14"	"gmxfm2"	"600"	"1366"	"chrome"	"108.0.0"	"FALSE"	"Windows 10"	"60.57"	"115"	n/a	n/a	n/a	n/a	n/a	n/a	"fixation"	n/a	n/a	n/a	n/a	"NULL"	n/a	"NULL"	"NULL"	"NULL"	"<p style=\"color: black; font-size: 80px; padding-left: 41%; padding-right: 12%; padding-top: 22%; padding-bottom: 32%\">+</p>"	"1026"	n/a	n/a	n/a	n/a	n/a	n/a	n/a	n/a	n/a
n/a	"image-keyboard-response"	"213"	"513627"	"0.0-6.0-2.0-1.14"	"gmxfm2"	"600"	"1366"	"chrome"	"108.0.0"	"FALSE"	"Windows 10"	"60.57"	"115"	n/a	n/a	n/a	n/a	n/a	n/a	"Trial"	n/a	n/a	n/a	"2457"	"arrowleft"	n/a	"NULL"	"NULL"	"NULL"	"stimuli/VerticalHorizontal_28.75714_-0.0673.png"	n/a	"VerticalHorizontal"	"arrowright"	"1037"	"FALSE"	"VerticalHorizontal"	"28.757140000"	"-0.067300000"	"2"	"15"
n/a	"html-keyboard-response"	"214"	"514746"	"0.0-6.0-2.0-0.15"	"gmxfm2"	"600"	"1366"	"chrome"	"108.0.0"	"FALSE"	"Windows 10"	"60.57"	"115"	n/a	n/a	n/a	n/a	n/a	n/a	"fixation"	n/a	n/a	n/a	n/a	"NULL"	n/a	"NULL"	"NULL"	"NULL"	"<p style=\"color: black; font-size: 80px; padding-left: 38%; padding-right: 31%; padding-top: 49%; padding-bottom: 5%\">+</p>"	"1116"	n/a	n/a	n/a	n/a	n/a	n/a	n/a	n/a	n/a
n/a	"image-keyboard-response"	"215"	"515662"	"0.0-6.0-2.0-1.15"	"gmxfm2"	"600"	"1366"	"chrome"	"108.0.0"	"FALSE"	"Windows 10"	"60.57"	"115"	n/a	n/a	n/a	n/a	n/a	n/a	"Trial"	n/a	n/a	n/a	"915"	"arrowleft"	n/a	"NULL"	"NULL"	"NULL"	"stimuli/VerticalHorizontal_11.78571_0.22500.png"	n/a	"VerticalHorizontal"	"arrowleft"	"1119"	"TRUE"	"VerticalHorizontal"	"11.785710000"	"0.2250000000"	"2"	"16"
n/a	"html-keyboard-response"	"216"	"516828"	"0.0-6.0-2.0-0.16"	"gmxfm2"	"600"	"1366"	"chrome"	"108.0.0"	"FALSE"	"Windows 10"	"60.57"	"115"	n/a	n/a	n/a	n/a	n/a	n/a	"fixation"	n/a	n/a	n/a	n/a	"NULL"	n/a	"NULL"	"NULL"	"NULL"	"<p style=\"color: black; font-size: 80px; padding-left: 17%; padding-right: 4%; padding-top: 48%; padding-bottom: 10%\">+</p>"	"1146"	n/a	n/a	n/a	n/a	n/a	n/a	n/a	n/a	n/a
n/a	"image-keyboard-response"	"217"	"518062"	"0.0-6.0-2.0-1.16"	"gmxfm2"	"600"	"1366"	"chrome"	"108.0.0"	"FALSE"	"Windows 10"	"60.57"	"115"	n/a	n/a	n/a	n/a	n/a	n/a	"Trial"	n/a	n/a	n/a	"1234"	"arrowright"	n/a	"NULL"	"NULL"	"NULL"	"stimuli/VerticalHorizontal_3.30000_-0.16217.png"	n/a	"VerticalHorizontal"	"arrowright"	"1166"	"TRUE"	"VerticalHorizontal"	"3.3000000000"	"-0.162170000"	"2"	"17"
n/a	"html-keyboard-response"	"218"	"519325"	"0.0-6.0-2.0-0.17"	"gmxfm2"	"600"	"1366"	"chrome"	"108.0.0"	"FALSE"	"Windows 10"	"60.57"	"115"	n/a	n/a	n/a	n/a	n/a	n/a	"fixation"	n/a	n/a	n/a	n/a	"NULL"	n/a	"NULL"	"NULL"	"NULL"	"<p style=\"color: black; font-size: 80px; padding-left: 8%; padding-right: 14%; padding-top: 29%; padding-bottom: 37%\">+</p>"	"1244"	n/a	n/a	n/a	n/a	n/a	n/a	n/a	n/a	n/a
n/a	"image-keyboard-response"	"219"	"520415"	"0.0-6.0-2.0-1.17"	"gmxfm2"	"600"	"1366"	"chrome"	"108.0.0"	"FALSE"	"Windows 10"	"60.57"	"115"	n/a	n/a	n/a	n/a	n/a	n/a	"Trial"	n/a	n/a	n/a	"1089"	"arrowleft"	n/a	"NULL"	"NULL"	"NULL"	"stimuli/VerticalHorizontal_20.27143_0.16217.png"	n/a	"VerticalHorizontal"	"arrowleft"	"1263"	"TRUE"	"VerticalHorizontal"	"20.271430000"	"0.1621700000"	"2"	"18"
n/a	"html-keyboard-response"	"220"	"521882"	"0.0-6.0-2.0-0.18"	"gmxfm2"	"600"	"1366"	"chrome"	"108.0.0"	"FALSE"	"Windows 10"	"60.57"	"115"	n/a	n/a	n/a	n/a	n/a	n/a	"fixation"	n/a	n/a	n/a	n/a	"NULL"	n/a	"NULL"	"NULL"	"NULL"	"<p style=\"color: black; font-size: 80px; padding-left: 3%; padding-right: 35%; padding-top: 4%; padding-bottom: 5%\">+</p>"	"1452"	n/a	n/a	n/a	n/a	n/a	n/a	n/a	n/a	n/a
n/a	"image-keyboard-response"	"221"	"522529"	"0.0-6.0-2.0-1.18"	"gmxfm2"	"600"	"1366"	"chrome"	"108.0.0"	"FALSE"	"Windows 10"	"60.57"	"115"	n/a	n/a	n/a	n/a	n/a	n/a	"Trial"	n/a	n/a	n/a	"646"	"arrowright"	n/a	"NULL"	"NULL"	"NULL"	"stimuli/VerticalHorizontal_-28.75714_-0.0673.png"	n/a	"VerticalHorizontal"	"arrowright"	"1467"	"TRUE"	"VerticalHorizontal"	"-28.75714000"	"-0.067300000"	"2"	"19"
n/a	"html-keyboard-response"	"222"	"523871"	"0.0-6.0-2.0-0.19"	"gmxfm2"	"600"	"1366"	"chrome"	"108.0.0"	"FALSE"	"Windows 10"	"60.57"	"115"	n/a	n/a	n/a	n/a	n/a	n/a	"fixation"	n/a	n/a	n/a	n/a	"NULL"	n/a	"NULL"	"NULL"	"NULL"	"<p style=\"color: black; font-size: 80px; padding-left: 7%; padding-right: 16%; padding-top: 27%; padding-bottom: 23%\">+</p>"	"1324"	n/a	n/a	n/a	n/a	n/a	n/a	n/a	n/a	n/a
n/a	"image-keyboard-response"	"223"	"524607"	"0.0-6.0-2.0-1.19"	"gmxfm2"	"600"	"1366"	"chrome"	"108.0.0"	"FALSE"	"Windows 10"	"60.57"	"115"	n/a	n/a	n/a	n/a	n/a	n/a	"Trial"	n/a	n/a	n/a	"736"	"arrowleft"	n/a	"NULL"	"NULL"	"NULL"	"stimuli/VerticalHorizontal_-20.27143_0.16217.png"	n/a	"VerticalHorizontal"	"arrowleft"	"1342"	"TRUE"	"VerticalHorizontal"	"-20.27143000"	"0.1621700000"	"2"	"20"
n/a	"html-keyboard-response"	"224"	"526126"	"0.0-6.0-2.0-0.20"	"gmxfm2"	"600"	"1366"	"chrome"	"108.0.0"	"FALSE"	"Windows 10"	"60.57"	"115"	n/a	n/a	n/a	n/a	n/a	n/a	"fixation"	n/a	n/a	n/a	n/a	"NULL"	n/a	"NULL"	"NULL"	"NULL"	"<p style=\"color: black; font-size: 80px; padding-left: 19%; padding-right: 13%; padding-top: 6%; padding-bottom: 2%\">+</p>"	"1499"	n/a	n/a	n/a	n/a	n/a	n/a	n/a	n/a	n/a
n/a	"image-keyboard-response"	"225"	"526951"	"0.0-6.0-2.0-1.20"	"gmxfm2"	"600"	"1366"	"chrome"	"108.0.0"	"FALSE"	"Windows 10"	"60.57"	"115"	n/a	n/a	n/a	n/a	n/a	n/a	"Trial"	n/a	n/a	n/a	"824"	"arrowleft"	n/a	"NULL"	"NULL"	"NULL"	"stimuli/VerticalHorizontal_-11.78571_0.16217.png"	n/a	"VerticalHorizontal"	"arrowleft"	"1519"	"TRUE"	"VerticalHorizontal"	"-11.78571000"	"0.1621700000"	"2"	"21"
n/a	"html-keyboard-response"	"226"	"528127"	"0.0-6.0-2.0-0.21"	"gmxfm2"	"600"	"1366"	"chrome"	"108.0.0"	"FALSE"	"Windows 10"	"60.57"	"115"	n/a	n/a	n/a	n/a	n/a	n/a	"fixation"	n/a	n/a	n/a	n/a	"NULL"	n/a	"NULL"	"NULL"	"NULL"	"<p style=\"color: black; font-size: 80px; padding-left: 5%; padding-right: 24%; padding-top: 36%; padding-bottom: 18%\">+</p>"	"1172"	n/a	n/a	n/a	n/a	n/a	n/a	n/a	n/a	n/a
n/a	"image-keyboard-response"	"227"	"528634"	"0.0-6.0-2.0-1.21"	"gmxfm2"	"600"	"1366"	"chrome"	"108.0.0"	"FALSE"	"Windows 10"	"60.57"	"115"	n/a	n/a	n/a	n/a	n/a	n/a	"Trial"	n/a	n/a	n/a	"507"	"arrowleft"	n/a	"NULL"	"NULL"	"NULL"	"stimuli/VerticalHorizontal_-11.78571_0.22500.png"	n/a	"VerticalHorizontal"	"arrowleft"	"1176"	"TRUE"	"VerticalHorizontal"	"-11.78571000"	"0.2250000000"	"2"	"22"
n/a	"html-keyboard-response"	"228"	"530097"	"0.0-6.0-2.0-0.22"	"gmxfm2"	"600"	"1366"	"chrome"	"108.0.0"	"FALSE"	"Windows 10"	"60.57"	"115"	n/a	n/a	n/a	n/a	n/a	n/a	"fixation"	n/a	n/a	n/a	n/a	"NULL"	n/a	"NULL"	"NULL"	"NULL"	"<p style=\"color: black; font-size: 80px; padding-left: 18%; padding-right: 5%; padding-top: 7%; padding-bottom: 21%\">+</p>"	"1449"	n/a	n/a	n/a	n/a	n/a	n/a	n/a	n/a	n/a
n/a	"image-keyboard-response"	"229"	"530885"	"0.0-6.0-2.0-1.22"	"gmxfm2"	"600"	"1366"	"chrome"	"108.0.0"	"FALSE"	"Windows 10"	"60.57"	"115"	n/a	n/a	n/a	n/a	n/a	n/a	"Trial"	n/a	n/a	n/a	"787"	"arrowleft"	n/a	"NULL"	"NULL"	"NULL"	"stimuli/VerticalHorizontal_-28.75714_0.06730.png"	n/a	"VerticalHorizontal"	"arrowleft"	"1463"	"TRUE"	"VerticalHorizontal"	"-28.75714000"	"0.0673000000"	"2"	"23"
n/a	"html-keyboard-response"	"230"	"531905"	"0.0-6.0-2.0-0.23"	"gmxfm2"	"600"	"1366"	"chrome"	"108.0.0"	"FALSE"	"Windows 10"	"60.57"	"115"	n/a	n/a	n/a	n/a	n/a	n/a	"fixation"	n/a	n/a	n/a	n/a	"NULL"	n/a	"NULL"	"NULL"	"NULL"	"<p style=\"color: black; font-size: 80px; padding-left: 36%; padding-right: 49%; padding-top: 36%; padding-bottom: 28%\">+</p>"	"1003"	n/a	n/a	n/a	n/a	n/a	n/a	n/a	n/a	n/a
n/a	"image-keyboard-response"	"231"	"532460"	"0.0-6.0-2.0-1.23"	"gmxfm2"	"600"	"1366"	"chrome"	"108.0.0"	"FALSE"	"Windows 10"	"60.57"	"115"	n/a	n/a	n/a	n/a	n/a	n/a	"Trial"	n/a	n/a	n/a	"554"	"arrowright"	n/a	"NULL"	"NULL"	"NULL"	"stimuli/VerticalHorizontal_-11.78571_-0.0673.png"	n/a	"VerticalHorizontal"	"arrowright"	"1020"	"TRUE"	"VerticalHorizontal"	"-11.78571000"	"-0.067300000"	"2"	"24"
n/a	"html-keyboard-response"	"232"	"533832"	"0.0-6.0-2.0-0.24"	"gmxfm2"	"600"	"1366"	"chrome"	"108.0.0"	"FALSE"	"Windows 10"	"60.57"	"115"	n/a	n/a	n/a	n/a	n/a	n/a	"fixation"	n/a	n/a	n/a	n/a	"NULL"	n/a	"NULL"	"NULL"	"NULL"	"<p style=\"color: black; font-size: 80px; padding-left: 21%; padding-right: 45%; padding-top: 15%; padding-bottom: 7%\">+</p>"	"1359"	n/a	n/a	n/a	n/a	n/a	n/a	n/a	n/a	n/a
n/a	"image-keyboard-response"	"233"	"534298"	"0.0-6.0-2.0-1.24"	"gmxfm2"	"600"	"1366"	"chrome"	"108.0.0"	"FALSE"	"Windows 10"	"60.57"	"115"	n/a	n/a	n/a	n/a	n/a	n/a	"Trial"	n/a	n/a	n/a	"460"	"arrowleft"	n/a	"NULL"	"NULL"	"NULL"	"stimuli/VerticalHorizontal_-20.27143_0.22500.png"	n/a	"VerticalHorizontal"	"arrowleft"	"1372"	"TRUE"	"VerticalHorizontal"	"-20.27143000"	"0.2250000000"	"2"	"25"
n/a	"html-keyboard-response"	"234"	"535518"	"0.0-6.0-2.0-0.25"	"gmxfm2"	"600"	"1366"	"chrome"	"108.0.0"	"FALSE"	"Windows 10"	"60.57"	"115"	n/a	n/a	n/a	n/a	n/a	n/a	"fixation"	n/a	n/a	n/a	n/a	"NULL"	n/a	"NULL"	"NULL"	"NULL"	"<p style=\"color: black; font-size: 80px; padding-left: 17%; padding-right: 10%; padding-top: 16%; padding-bottom: 35%\">+</p>"	"1212"	n/a	n/a	n/a	n/a	n/a	n/a	n/a	n/a	n/a
n/a	"image-keyboard-response"	"235"	"536572"	"0.0-6.0-2.0-1.25"	"gmxfm2"	"600"	"1366"	"chrome"	"108.0.0"	"FALSE"	"Windows 10"	"60.57"	"115"	n/a	n/a	n/a	n/a	n/a	n/a	"Trial"	n/a	n/a	n/a	"1053"	"arrowleft"	n/a	"NULL"	"NULL"	"NULL"	"stimuli/VerticalHorizontal_3.30000_0.06730.png"	n/a	"VerticalHorizontal"	"arrowleft"	"1220"	"TRUE"	"VerticalHorizontal"	"3.3000000000"	"0.0673000000"	"2"	"26"
n/a	"html-keyboard-response"	"236"	"537611"	"0.0-6.0-2.0-0.26"	"gmxfm2"	"600"	"1366"	"chrome"	"108.0.0"	"FALSE"	"Windows 10"	"60.57"	"115"	n/a	n/a	n/a	n/a	n/a	n/a	"fixation"	n/a	n/a	n/a	n/a	"NULL"	n/a	"NULL"	"NULL"	"NULL"	"<p style=\"color: black; font-size: 80px; padding-left: 11%; padding-right: 24%; padding-top: 6%; padding-bottom: 4%\">+</p>"	"1018"	n/a	n/a	n/a	n/a	n/a	n/a	n/a	n/a	n/a
n/a	"image-keyboard-response"	"237"	"538158"	"0.0-6.0-2.0-1.26"	"gmxfm2"	"600"	"1366"	"chrome"	"108.0.0"	"FALSE"	"Windows 10"	"60.57"	"115"	n/a	n/a	n/a	n/a	n/a	n/a	"Trial"	n/a	n/a	n/a	"547"	"arrowright"	n/a	"NULL"	"NULL"	"NULL"	"stimuli/VerticalHorizontal_28.75714_0.22500.png"	n/a	"VerticalHorizontal"	"arrowleft"	"1039"	"FALSE"	"VerticalHorizontal"	"28.757140000"	"0.2250000000"	"2"	"27"
n/a	"html-keyboard-response"	"238"	"539486"	"0.0-6.0-2.0-0.27"	"gmxfm2"	"600"	"1366"	"chrome"	"108.0.0"	"FALSE"	"Windows 10"	"60.57"	"115"	n/a	n/a	n/a	n/a	n/a	n/a	"fixation"	n/a	n/a	n/a	n/a	"NULL"	n/a	"NULL"	"NULL"	"NULL"	"<p style=\"color: black; font-size: 80px; padding-left: 14%; padding-right: 5%; padding-top: 7%; padding-bottom: 22%\">+</p>"	"1325"	n/a	n/a	n/a	n/a	n/a	n/a	n/a	n/a	n/a
n/a	"image-keyboard-response"	"239"	"540952"	"0.0-6.0-2.0-1.27"	"gmxfm2"	"600"	"1366"	"chrome"	"108.0.0"	"FALSE"	"Windows 10"	"60.57"	"115"	n/a	n/a	n/a	n/a	n/a	n/a	"Trial"	n/a	n/a	n/a	"1465"	"arrowleft"	n/a	"NULL"	"NULL"	"NULL"	"stimuli/VerticalHorizontal_20.27143_0.10960.png"	n/a	"VerticalHorizontal"	"arrowleft"	"1328"	"TRUE"	"VerticalHorizontal"	"20.271430000"	"0.1096000000"	"2"	"28"
n/a	"html-keyboard-response"	"240"	"542377"	"0.0-6.0-2.0-0.28"	"gmxfm2"	"600"	"1366"	"chrome"	"108.0.0"	"FALSE"	"Windows 10"	"60.57"	"115"	n/a	n/a	n/a	n/a	n/a	n/a	"fixation"	n/a	n/a	n/a	n/a	"NULL"	n/a	"NULL"	"NULL"	"NULL"	"<p style=\"color: black; font-size: 80px; padding-left: 44%; padding-right: 38%; padding-top: 21%; padding-bottom: 36%\">+</p>"	"1416"	n/a	n/a	n/a	n/a	n/a	n/a	n/a	n/a	n/a
n/a	"image-keyboard-response"	"241"	"543637"	"0.0-6.0-2.0-1.28"	"gmxfm2"	"600"	"1366"	"chrome"	"108.0.0"	"FALSE"	"Windows 10"	"60.57"	"115"	n/a	n/a	n/a	n/a	n/a	n/a	"Trial"	n/a	n/a	n/a	"1259"	"arrowright"	n/a	"NULL"	"NULL"	"NULL"	"stimuli/VerticalHorizontal_11.78571_-0.1096.png"	n/a	"VerticalHorizontal"	"arrowright"	"1425"	"TRUE"	"VerticalHorizontal"	"11.785710000"	"-0.109600000"	"2"	"29"
n/a	"html-keyboard-response"	"242"	"544797"	"0.0-6.0-2.0-0.29"	"gmxfm2"	"600"	"1366"	"chrome"	"108.0.0"	"FALSE"	"Windows 10"	"60.57"	"115"	n/a	n/a	n/a	n/a	n/a	n/a	"fixation"	n/a	n/a	n/a	n/a	"NULL"	n/a	"NULL"	"NULL"	"NULL"	"<p style=\"color: black; font-size: 80px; padding-left: 27%; padding-right: 27%; padding-top: 50%; padding-bottom: 33%\">+</p>"	"1148"	n/a	n/a	n/a	n/a	n/a	n/a	n/a	n/a	n/a
n/a	"image-keyboard-response"	"243"	"546777"	"0.0-6.0-2.0-1.29"	"gmxfm2"	"600"	"1366"	"chrome"	"108.0.0"	"FALSE"	"Windows 10"	"60.57"	"115"	n/a	n/a	n/a	n/a	n/a	n/a	"Trial"	n/a	n/a	n/a	"1979"	"arrowleft"	n/a	"NULL"	"NULL"	"NULL"	"stimuli/VerticalHorizontal_11.78571_0.10960.png"	n/a	"VerticalHorizontal"	"arrowleft"	"1160"	"TRUE"	"VerticalHorizontal"	"11.785710000"	"0.1096000000"	"2"	"30"
n/a	"html-keyboard-response"	"244"	"547955"	"0.0-6.0-2.0-0.30"	"gmxfm2"	"600"	"1366"	"chrome"	"108.0.0"	"FALSE"	"Windows 10"	"60.57"	"115"	n/a	n/a	n/a	n/a	n/a	n/a	"fixation"	n/a	n/a	n/a	n/a	"NULL"	n/a	"NULL"	"NULL"	"NULL"	"<p style=\"color: black; font-size: 80px; padding-left: 27%; padding-right: 2%; padding-top: 1%; padding-bottom: 4%\">+</p>"	"1158"	n/a	n/a	n/a	n/a	n/a	n/a	n/a	n/a	n/a
n/a	"image-keyboard-response"	"245"	"549006"	"0.0-6.0-2.0-1.30"	"gmxfm2"	"600"	"1366"	"chrome"	"108.0.0"	"FALSE"	"Windows 10"	"60.57"	"115"	n/a	n/a	n/a	n/a	n/a	n/a	"Trial"	n/a	n/a	n/a	"1051"	"arrowright"	n/a	"NULL"	"NULL"	"NULL"	"stimuli/VerticalHorizontal_28.75714_-0.2250.png"	n/a	"VerticalHorizontal"	"arrowright"	"1178"	"TRUE"	"VerticalHorizontal"	"28.757140000"	"-0.225000000"	"2"	"31"
n/a	"html-keyboard-response"	"246"	"550426"	"0.0-6.0-2.0-0.31"	"gmxfm2"	"600"	"1366"	"chrome"	"108.0.0"	"FALSE"	"Windows 10"	"60.57"	"115"	n/a	n/a	n/a	n/a	n/a	n/a	"fixation"	n/a	n/a	n/a	n/a	"NULL"	n/a	"NULL"	"NULL"	"NULL"	"<p style=\"color: black; font-size: 80px; padding-left: 29%; padding-right: 35%; padding-top: 3%; padding-bottom: 17%\">+</p>"	"1405"	n/a	n/a	n/a	n/a	n/a	n/a	n/a	n/a	n/a
n/a	"image-keyboard-response"	"247"	"552082"	"0.0-6.0-2.0-1.31"	"gmxfm2"	"600"	"1366"	"chrome"	"108.0.0"	"FALSE"	"Windows 10"	"60.57"	"115"	n/a	n/a	n/a	n/a	n/a	n/a	"Trial"	n/a	n/a	n/a	"1655"	"arrowleft"	n/a	"NULL"	"NULL"	"NULL"	"stimuli/VerticalHorizontal_28.75714_-0.16217.png"	n/a	"VerticalHorizontal"	"arrowright"	"1420"	"FALSE"	"VerticalHorizontal"	"28.757140000"	"-0.162170000"	"2"	"32"
n/a	"html-keyboard-response"	"248"	"553438"	"0.0-6.0-2.0-0.32"	"gmxfm2"	"600"	"1366"	"chrome"	"108.0.0"	"FALSE"	"Windows 10"	"60.57"	"115"	n/a	n/a	n/a	n/a	n/a	n/a	"fixation"	n/a	n/a	n/a	n/a	"NULL"	n/a	"NULL"	"NULL"	"NULL"	"<p style=\"color: black; font-size: 80px; padding-left: 20%; padding-right: 45%; padding-top: 0%; padding-bottom: 30%\">+</p>"	"1344"	n/a	n/a	n/a	n/a	n/a	n/a	n/a	n/a	n/a
n/a	"image-keyboard-response"	"249"	"556153"	"0.0-6.0-2.0-1.32"	"gmxfm2"	"600"	"1366"	"chrome"	"108.0.0"	"FALSE"	"Windows 10"	"60.57"	"115"	n/a	n/a	n/a	n/a	n/a	n/a	"Trial"	n/a	n/a	n/a	"2714"	"arrowleft"	n/a	"NULL"	"NULL"	"NULL"	"stimuli/VerticalHorizontal_11.78571_-0.0673.png"	n/a	"VerticalHorizontal"	"arrowright"	"1356"	"FALSE"	"VerticalHorizontal"	"11.785710000"	"-0.067300000"	"2"	"33"
n/a	"html-keyboard-response"	"250"	"557477"	"0.0-6.0-2.0-0.33"	"gmxfm2"	"600"	"1366"	"chrome"	"108.0.0"	"FALSE"	"Windows 10"	"60.57"	"115"	n/a	n/a	n/a	n/a	n/a	n/a	"fixation"	n/a	n/a	n/a	n/a	"NULL"	n/a	"NULL"	"NULL"	"NULL"	"<p style=\"color: black; font-size: 80px; padding-left: 10%; padding-right: 17%; padding-top: 28%; padding-bottom: 0%\">+</p>"	"1309"	n/a	n/a	n/a	n/a	n/a	n/a	n/a	n/a	n/a
