"success"	"trial_type"	"trial_index"	"time_elapsed"	"internal_node_id"	"participant_id"	"screen_height"	"screen_width"	"browser"	"browser_version"	"mobile"	"os"	"vsync_rate"	"subject_id"	"width"	"height"	"webaudio"	"fullscreen"	"webcam"	"microphone"	"screen"	"version"	"date"	"time"	"rt"	"response"	"timeout"	"failed_images"	"failed_audio"	"failed_video"	"stimulus"	"trial_duration"	"block"	"correct_response"	"prestimulus_duration"	"correct"	"type"	"illusion_strength"	"illusion_difference"	"block_number"	"trial_number"
"TRUE"	"fullscreen"	"0"	"12050771"	"0.0-0.0"	"5uffzu"	"563"	"1199"	"chrome"	"110.0.0"	"FALSE"	"Windows 10"	"60.86"	"033"	n/a	n/a	n/a	n/a	n/a	n/a	n/a	n/a	n/a	n/a	n/a	"NULL"	n/a	"NULL"	"NULL"	"NULL"	n/a	n/a	n/a	n/a	n/a	n/a	n/a	n/a	n/a	n/a	n/a
n/a	"browser-check"	"1"	"12051780"	"0.0-1.0"	"5uffzu"	"563"	"1199"	"chrome"	"110.0.0"	"FALSE"	"Windows 10"	"60.86"	"033"	"1199"	"563"	"TRUE"	"TRUE"	"TRUE"	"TRUE"	"browser_info"	"1.0"	"03/03/2023"	"10:00:23"	n/a	"NULL"	n/a	"NULL"	"NULL"	"NULL"	n/a	n/a	n/a	n/a	n/a	n/a	n/a	n/a	n/a	n/a	n/a
n/a	"survey-text"	"2"	"12055939"	"0.0-2.0"	"5uffzu"	"563"	"1199"	"chrome"	"110.0.0"	"FALSE"	"Windows 10"	"60.86"	"033"	n/a	n/a	n/a	n/a	n/a	n/a	"subject_id"	n/a	n/a	n/a	"4155"	"list(subject_id = \"033\")"	n/a	"NULL"	"NULL"	"NULL"	n/a	n/a	n/a	n/a	n/a	n/a	n/a	n/a	n/a	n/a	n/a
"TRUE"	"preload"	"3"	"12055952"	"0.0-3.0"	"5uffzu"	"563"	"1199"	"chrome"	"110.0.0"	"FALSE"	"Windows 10"	"60.86"	"033"	n/a	n/a	n/a	n/a	n/a	n/a	n/a	n/a	n/a	n/a	n/a	"NULL"	"FALSE"	"list()"	"list()"	"list()"	n/a	n/a	n/a	n/a	n/a	n/a	n/a	n/a	n/a	n/a	n/a
n/a	"html-button-response"	"4"	"12069913"	"0.0-4.0-0.0"	"5uffzu"	"563"	"1199"	"chrome"	"110.0.0"	"FALSE"	"Windows 10"	"60.86"	"033"	n/a	n/a	n/a	n/a	n/a	n/a	"illusion_instructions"	n/a	n/a	n/a	"13959"	"0"	n/a	"NULL"	"NULL"	"NULL"	"<p><b>Illusion Game</b></p><p>In this game of speed and reflex, you will need to make <b>visual judgments</b> (for instance, which circle is the biggest, or which line is the longest), as fast and as correctly as possible, while <b>resisting different visual illusions</b>.</p><p>We are going to start with some examples of all the illusions you will encounter in the game.</p>"	n/a	n/a	n/a	n/a	n/a	n/a	n/a	n/a	n/a	n/a
"TRUE"	"preload"	"5"	"12069932"	"0.0-4.0-1.0-0.0"	"5uffzu"	"563"	"1199"	"chrome"	"110.0.0"	"FALSE"	"Windows 10"	"60.86"	"033"	n/a	n/a	n/a	n/a	n/a	n/a	n/a	n/a	n/a	n/a	n/a	"NULL"	"FALSE"	"list()"	"list()"	"list()"	n/a	n/a	n/a	n/a	n/a	n/a	n/a	n/a	n/a	n/a	n/a
n/a	"html-keyboard-response"	"6"	"12085151"	"0.0-4.0-1.0-1.0"	"5uffzu"	"563"	"1199"	"chrome"	"110.0.0"	"FALSE"	"Windows 10"	"60.86"	"033"	n/a	n/a	n/a	n/a	n/a	n/a	n/a	n/a	n/a	n/a	"15217"	"enter"	n/a	"NULL"	"NULL"	"NULL"	"<p><b>Practice</b></p><p>In this part, two red circles will appear side by side on the screen.</p><p>Your task is to select which <b>red circle is bigger</b> in size as fast as you can, without making errors.</p><p>Don't get distracted by the surrounding black circles around the red circles!</p><p>Press <b>the LEFT or the RIGHT arrow</b> to indicate which is the bigger <b>red circle.</b></p><div style='float: center'><img src='materials/instructions/Ebbinghaus_Demo.png' height='300'></img><p><img src='utils/answer/answer_leftright_keyboard.PNG' height='150'></img></p><p class='small'>In this example, the correct answer is the <b>LEFT arrow</b>.</p></div><p>Are you ready? <b>Press ENTER to start</b></p>"	n/a	n/a	n/a	n/a	n/a	n/a	n/a	n/a	n/a	n/a
n/a	"html-keyboard-response"	"7"	"12087064"	"0.0-4.0-1.0-2.0-0.0"	"5uffzu"	"563"	"1199"	"chrome"	"110.0.0"	"FALSE"	"Windows 10"	"60.86"	"033"	n/a	n/a	n/a	n/a	n/a	n/a	"fixation"	n/a	n/a	n/a	n/a	"NULL"	n/a	"NULL"	"NULL"	"NULL"	"<p style=\"color: black; font-size: 80px; padding-left: 22%; padding-right: 46%; padding-top: 28%; padding-bottom: 31%\">+</p>"	"1399"	n/a	n/a	n/a	n/a	n/a	n/a	n/a	n/a	n/a
n/a	"image-keyboard-response"	"8"	"12087900"	"0.0-4.0-1.0-2.0-1.0"	"5uffzu"	"563"	"1199"	"chrome"	"110.0.0"	"FALSE"	"Windows 10"	"60.86"	"033"	n/a	n/a	n/a	n/a	n/a	n/a	"Trial"	n/a	n/a	n/a	"829"	"arrowright"	n/a	"NULL"	"NULL"	"NULL"	"stimuli/Ebbinghaus_-100000_-1.4000.png"	n/a	"Ebbinghaus"	"arrowright"	"1913"	"TRUE"	"Ebbinghaus"	"-10000000000"	"-1.400000000"	"1"	"1"
n/a	"html-keyboard-response"	"9"	"12089050"	"0.0-4.0-1.0-2.0-0.1"	"5uffzu"	"563"	"1199"	"chrome"	"110.0.0"	"FALSE"	"Windows 10"	"60.86"	"033"	n/a	n/a	n/a	n/a	n/a	n/a	"fixation"	n/a	n/a	n/a	n/a	"NULL"	n/a	"NULL"	"NULL"	"NULL"	"<p style=\"color: black; font-size: 80px; padding-left: 10%; padding-right: 13%; padding-top: 48%; padding-bottom: 14%\">+</p>"	"1147"	n/a	n/a	n/a	n/a	n/a	n/a	n/a	n/a	n/a
n/a	"image-keyboard-response"	"10"	"12090544"	"0.0-4.0-1.0-2.0-1.1"	"5uffzu"	"563"	"1199"	"chrome"	"110.0.0"	"FALSE"	"Windows 10"	"60.86"	"033"	n/a	n/a	n/a	n/a	n/a	n/a	"Trial"	n/a	n/a	n/a	"1494"	"arrowright"	n/a	"NULL"	"NULL"	"NULL"	"stimuli/Ebbinghaus_1000000_-1.4000.png"	n/a	"Ebbinghaus"	"arrowright"	"1150"	"TRUE"	"Ebbinghaus"	"100000000000"	"-1.400000000"	"1"	"2"
n/a	"html-keyboard-response"	"11"	"12091722"	"0.0-4.0-1.0-2.0-0.2"	"5uffzu"	"563"	"1199"	"chrome"	"110.0.0"	"FALSE"	"Windows 10"	"60.86"	"033"	n/a	n/a	n/a	n/a	n/a	n/a	"fixation"	n/a	n/a	n/a	n/a	"NULL"	n/a	"NULL"	"NULL"	"NULL"	"<p style=\"color: black; font-size: 80px; padding-left: 16%; padding-right: 22%; padding-top: 21%; padding-bottom: 8%\">+</p>"	"1166"	n/a	n/a	n/a	n/a	n/a	n/a	n/a	n/a	n/a
n/a	"image-keyboard-response"	"12"	"12092601"	"0.0-4.0-1.0-2.0-1.2"	"5uffzu"	"563"	"1199"	"chrome"	"110.0.0"	"FALSE"	"Windows 10"	"60.86"	"033"	n/a	n/a	n/a	n/a	n/a	n/a	"Trial"	n/a	n/a	n/a	"878"	"arrowleft"	n/a	"NULL"	"NULL"	"NULL"	"stimuli/Ebbinghaus_0000000_1.40000.png"	n/a	"Ebbinghaus"	"arrowleft"	"1178"	"TRUE"	"Ebbinghaus"	"000000000000"	"1.4000000000"	"1"	"3"
n/a	"html-keyboard-response"	"13"	"12093895"	"0.0-4.0-1.0-2.0-0.3"	"5uffzu"	"563"	"1199"	"chrome"	"110.0.0"	"FALSE"	"Windows 10"	"60.86"	"033"	n/a	n/a	n/a	n/a	n/a	n/a	"fixation"	n/a	n/a	n/a	n/a	"NULL"	n/a	"NULL"	"NULL"	"NULL"	"<p style=\"color: black; font-size: 80px; padding-left: 3%; padding-right: 17%; padding-top: 37%; padding-bottom: 10%\">+</p>"	"1283"	n/a	n/a	n/a	n/a	n/a	n/a	n/a	n/a	n/a
n/a	"image-keyboard-response"	"14"	"12094852"	"0.0-4.0-1.0-2.0-1.3"	"5uffzu"	"563"	"1199"	"chrome"	"110.0.0"	"FALSE"	"Windows 10"	"60.86"	"033"	n/a	n/a	n/a	n/a	n/a	n/a	"Trial"	n/a	n/a	n/a	"957"	"arrowleft"	n/a	"NULL"	"NULL"	"NULL"	"stimuli/Ebbinghaus_-100000_1.40000.png"	n/a	"Ebbinghaus"	"arrowleft"	"1294"	"TRUE"	"Ebbinghaus"	"-10000000000"	"1.4000000000"	"1"	"4"
n/a	"html-keyboard-response"	"15"	"12096190"	"0.0-4.0-1.0-2.0-0.4"	"5uffzu"	"563"	"1199"	"chrome"	"110.0.0"	"FALSE"	"Windows 10"	"60.86"	"033"	n/a	n/a	n/a	n/a	n/a	n/a	"fixation"	n/a	n/a	n/a	n/a	"NULL"	n/a	"NULL"	"NULL"	"NULL"	"<p style=\"color: black; font-size: 80px; padding-left: 10%; padding-right: 25%; padding-top: 30%; padding-bottom: 18%\">+</p>"	"1324"	n/a	n/a	n/a	n/a	n/a	n/a	n/a	n/a	n/a
n/a	"image-keyboard-response"	"16"	"12097106"	"0.0-4.0-1.0-2.0-1.4"	"5uffzu"	"563"	"1199"	"chrome"	"110.0.0"	"FALSE"	"Windows 10"	"60.86"	"033"	n/a	n/a	n/a	n/a	n/a	n/a	"Trial"	n/a	n/a	n/a	"916"	"arrowleft"	n/a	"NULL"	"NULL"	"NULL"	"stimuli/Ebbinghaus_1000000_1.40000.png"	n/a	"Ebbinghaus"	"arrowleft"	"1338"	"TRUE"	"Ebbinghaus"	"100000000000"	"1.4000000000"	"1"	"5"
n/a	"html-keyboard-response"	"17"	"12098587"	"0.0-4.0-1.0-2.0-0.5"	"5uffzu"	"563"	"1199"	"chrome"	"110.0.0"	"FALSE"	"Windows 10"	"60.86"	"033"	n/a	n/a	n/a	n/a	n/a	n/a	"fixation"	n/a	n/a	n/a	n/a	"NULL"	n/a	"NULL"	"NULL"	"NULL"	"<p style=\"color: black; font-size: 80px; padding-left: 11%; padding-right: 16%; padding-top: 28%; padding-bottom: 42%\">+</p>"	"1478"	n/a	n/a	n/a	n/a	n/a	n/a	n/a	n/a	n/a
n/a	"image-keyboard-response"	"18"	"12099216"	"0.0-4.0-1.0-2.0-1.5"	"5uffzu"	"563"	"1199"	"chrome"	"110.0.0"	"FALSE"	"Windows 10"	"60.86"	"033"	n/a	n/a	n/a	n/a	n/a	n/a	"Trial"	n/a	n/a	n/a	"628"	"arrowright"	n/a	"NULL"	"NULL"	"NULL"	"stimuli/Ebbinghaus_0000000_-1.4000.png"	n/a	"Ebbinghaus"	"arrowright"	"1481"	"TRUE"	"Ebbinghaus"	"000000000000"	"-1.400000000"	"1"	"6"
n/a	"html-button-response"	"19"	"12106025"	"0.0-4.0-1.0-3.0"	"5uffzu"	"563"	"1199"	"chrome"	"110.0.0"	"FALSE"	"Windows 10"	"60.86"	"033"	n/a	n/a	n/a	n/a	n/a	n/a	"practice_block_results"	n/a	n/a	n/a	"6807"	"0"	n/a	"NULL"	"NULL"	"NULL"	"<p style='color:rgb(76,175,80);'> Correct Responses: <b>100.00%</b></p><hr><p style='color:rgb(233,30,99);'> Average Response Time: <b>950.33</b> ms.</p>"	n/a	n/a	n/a	n/a	n/a	n/a	n/a	n/a	n/a	n/a
"TRUE"	"preload"	"20"	"12106548"	"0.0-4.0-2.0-0.0"	"5uffzu"	"563"	"1199"	"chrome"	"110.0.0"	"FALSE"	"Windows 10"	"60.86"	"033"	n/a	n/a	n/a	n/a	n/a	n/a	n/a	n/a	n/a	n/a	n/a	"NULL"	"FALSE"	"list()"	"list()"	"list()"	n/a	n/a	n/a	n/a	n/a	n/a	n/a	n/a	n/a	n/a	n/a
n/a	"html-keyboard-response"	"21"	"12111538"	"0.0-4.0-2.0-1.0"	"5uffzu"	"563"	"1199"	"chrome"	"110.0.0"	"FALSE"	"Windows 10"	"60.86"	"033"	n/a	n/a	n/a	n/a	n/a	n/a	n/a	n/a	n/a	n/a	"4989"	"enter"	n/a	"NULL"	"NULL"	"NULL"	"<p><b>Practice</b></p><p>In this part, two horizontal red lines will appear one above the other.</p><p>Your task is to select which <b>line is longer</b> in length as fast as you can, without making errors.</p><p>Don't get distracted by the surrounding black arrows at the end of the red lines!</p><p>Press <b>the UP or the DOWN arrow</b> to indicate where is the longer <b>red line.</b></p><div style='float: center'><img src='materials/instructions/MullerLyer_Demo.png' height='300'></img><p><img src='utils/answer/answer_updown_keyboard.PNG' height='150'></img></p><p class='small'>In this example, the correct answer is the <b>UP arrow</b>.</p></div><p>Are you ready? <b>Press ENTER to start</b></p>"	n/a	n/a	n/a	n/a	n/a	n/a	n/a	n/a	n/a	n/a
n/a	"html-keyboard-response"	"22"	"12113159"	"0.0-4.0-2.0-2.0-0.0"	"5uffzu"	"563"	"1199"	"chrome"	"110.0.0"	"FALSE"	"Windows 10"	"60.86"	"033"	n/a	n/a	n/a	n/a	n/a	n/a	"fixation"	n/a	n/a	n/a	n/a	"NULL"	n/a	"NULL"	"NULL"	"NULL"	"<p style=\"color: black; font-size: 80px; padding-left: 10%; padding-right: 32%; padding-top: 20%; padding-bottom: 31%\">+</p>"	"1107"	n/a	n/a	n/a	n/a	n/a	n/a	n/a	n/a	n/a
n/a	"image-keyboard-response"	"23"	"12115694"	"0.0-4.0-2.0-2.0-1.0"	"5uffzu"	"563"	"1199"	"chrome"	"110.0.0"	"FALSE"	"Windows 10"	"60.86"	"033"	n/a	n/a	n/a	n/a	n/a	n/a	"Trial"	n/a	n/a	n/a	"2534"	"arrowdown"	n/a	"NULL"	"NULL"	"NULL"	"stimuli/MullerLyer_0000000_-0.7000.png"	n/a	"MullerLyer"	"arrowdown"	"1621"	"TRUE"	"MullerLyer"	"000000000000"	"-0.700000000"	"1"	"7"
n/a	"html-keyboard-response"	"24"	"12116942"	"0.0-4.0-2.0-2.0-0.1"	"5uffzu"	"563"	"1199"	"chrome"	"110.0.0"	"FALSE"	"Windows 10"	"60.86"	"033"	n/a	n/a	n/a	n/a	n/a	n/a	"fixation"	n/a	n/a	n/a	n/a	"NULL"	n/a	"NULL"	"NULL"	"NULL"	"<p style=\"color: black; font-size: 80px; padding-left: 43%; padding-right: 35%; padding-top: 38%; padding-bottom: 36%\">+</p>"	"1245"	n/a	n/a	n/a	n/a	n/a	n/a	n/a	n/a	n/a
n/a	"image-keyboard-response"	"25"	"12117763"	"0.0-4.0-2.0-2.0-1.1"	"5uffzu"	"563"	"1199"	"chrome"	"110.0.0"	"FALSE"	"Windows 10"	"60.86"	"033"	n/a	n/a	n/a	n/a	n/a	n/a	"Trial"	n/a	n/a	n/a	"821"	"arrowup"	n/a	"NULL"	"NULL"	"NULL"	"stimuli/MullerLyer_0000000_0.70000.png"	n/a	"MullerLyer"	"arrowup"	"1248"	"TRUE"	"MullerLyer"	"000000000000"	"0.7000000000"	"1"	"8"
n/a	"html-keyboard-response"	"26"	"12119112"	"0.0-4.0-2.0-2.0-0.2"	"5uffzu"	"563"	"1199"	"chrome"	"110.0.0"	"FALSE"	"Windows 10"	"60.86"	"033"	n/a	n/a	n/a	n/a	n/a	n/a	"fixation"	n/a	n/a	n/a	n/a	"NULL"	n/a	"NULL"	"NULL"	"NULL"	"<p style=\"color: black; font-size: 80px; padding-left: 21%; padding-right: 47%; padding-top: 35%; padding-bottom: 24%\">+</p>"	"1340"	n/a	n/a	n/a	n/a	n/a	n/a	n/a	n/a	n/a
n/a	"image-keyboard-response"	"27"	"12120119"	"0.0-4.0-2.0-2.0-1.2"	"5uffzu"	"563"	"1199"	"chrome"	"110.0.0"	"FALSE"	"Windows 10"	"60.86"	"033"	n/a	n/a	n/a	n/a	n/a	n/a	"Trial"	n/a	n/a	n/a	"1006"	"arrowup"	n/a	"NULL"	"NULL"	"NULL"	"stimuli/MullerLyer_-230000_0.70000.png"	n/a	"MullerLyer"	"arrowup"	"1349"	"TRUE"	"MullerLyer"	"-23000000000"	"0.7000000000"	"1"	"9"
n/a	"html-keyboard-response"	"28"	"12121135"	"0.0-4.0-2.0-2.0-0.3"	"5uffzu"	"563"	"1199"	"chrome"	"110.0.0"	"FALSE"	"Windows 10"	"60.86"	"033"	n/a	n/a	n/a	n/a	n/a	n/a	"fixation"	n/a	n/a	n/a	n/a	"NULL"	n/a	"NULL"	"NULL"	"NULL"	"<p style=\"color: black; font-size: 80px; padding-left: 6%; padding-right: 16%; padding-top: 46%; padding-bottom: 7%\">+</p>"	"1010"	n/a	n/a	n/a	n/a	n/a	n/a	n/a	n/a	n/a
n/a	"image-keyboard-response"	"29"	"12121707"	"0.0-4.0-2.0-2.0-1.3"	"5uffzu"	"563"	"1199"	"chrome"	"110.0.0"	"FALSE"	"Windows 10"	"60.86"	"033"	n/a	n/a	n/a	n/a	n/a	n/a	"Trial"	n/a	n/a	n/a	"571"	"arrowdown"	n/a	"NULL"	"NULL"	"NULL"	"stimuli/MullerLyer_2300000_-0.7000.png"	n/a	"MullerLyer"	"arrowdown"	"1016"	"TRUE"	"MullerLyer"	"230000000000"	"-0.700000000"	"1"	"10"
n/a	"html-keyboard-response"	"30"	"12122893"	"0.0-4.0-2.0-2.0-0.4"	"5uffzu"	"563"	"1199"	"chrome"	"110.0.0"	"FALSE"	"Windows 10"	"60.86"	"033"	n/a	n/a	n/a	n/a	n/a	n/a	"fixation"	n/a	n/a	n/a	n/a	"NULL"	n/a	"NULL"	"NULL"	"NULL"	"<p style=\"color: black; font-size: 80px; padding-left: 14%; padding-right: 45%; padding-top: 7%; padding-bottom: 38%\">+</p>"	"1178"	n/a	n/a	n/a	n/a	n/a	n/a	n/a	n/a	n/a
n/a	"image-keyboard-response"	"31"	"12123549"	"0.0-4.0-2.0-2.0-1.4"	"5uffzu"	"563"	"1199"	"chrome"	"110.0.0"	"FALSE"	"Windows 10"	"60.86"	"033"	n/a	n/a	n/a	n/a	n/a	n/a	"Trial"	n/a	n/a	n/a	"655"	"arrowdown"	n/a	"NULL"	"NULL"	"NULL"	"stimuli/MullerLyer_-230000_-0.7000.png"	n/a	"MullerLyer"	"arrowdown"	"1186"	"TRUE"	"MullerLyer"	"-23000000000"	"-0.700000000"	"1"	"11"
n/a	"html-keyboard-response"	"32"	"12124665"	"0.0-4.0-2.0-2.0-0.5"	"5uffzu"	"563"	"1199"	"chrome"	"110.0.0"	"FALSE"	"Windows 10"	"60.86"	"033"	n/a	n/a	n/a	n/a	n/a	n/a	"fixation"	n/a	n/a	n/a	n/a	"NULL"	n/a	"NULL"	"NULL"	"NULL"	"<p style=\"color: black; font-size: 80px; padding-left: 45%; padding-right: 8%; padding-top: 22%; padding-bottom: 21%\">+</p>"	"1106"	n/a	n/a	n/a	n/a	n/a	n/a	n/a	n/a	n/a
n/a	"image-keyboard-response"	"33"	"12125347"	"0.0-4.0-2.0-2.0-1.5"	"5uffzu"	"563"	"1199"	"chrome"	"110.0.0"	"FALSE"	"Windows 10"	"60.86"	"033"	n/a	n/a	n/a	n/a	n/a	n/a	"Trial"	n/a	n/a	n/a	"682"	"arrowup"	n/a	"NULL"	"NULL"	"NULL"	"stimuli/MullerLyer_2300000_0.70000.png"	n/a	"MullerLyer"	"arrowup"	"1116"	"TRUE"	"MullerLyer"	"230000000000"	"0.7000000000"	"1"	"12"
n/a	"html-button-response"	"34"	"12127977"	"0.0-4.0-2.0-3.0"	"5uffzu"	"563"	"1199"	"chrome"	"110.0.0"	"FALSE"	"Windows 10"	"60.86"	"033"	n/a	n/a	n/a	n/a	n/a	n/a	"practice_block_results"	n/a	n/a	n/a	"2628"	"0"	n/a	"NULL"	"NULL"	"NULL"	"<p style='color:rgb(76,175,80);'> Correct Responses: <b>100.00%</b></p><hr><p style='color:rgb(233,30,99);'> Average Response Time: <b>1044.83</b> ms.</p>"	n/a	n/a	n/a	n/a	n/a	n/a	n/a	n/a	n/a	n/a
"TRUE"	"preload"	"35"	"12128506"	"0.0-4.0-3.0-0.0"	"5uffzu"	"563"	"1199"	"chrome"	"110.0.0"	"FALSE"	"Windows 10"	"60.86"	"033"	n/a	n/a	n/a	n/a	n/a	n/a	n/a	n/a	n/a	n/a	n/a	"NULL"	"FALSE"	"list()"	"list()"	"list()"	n/a	n/a	n/a	n/a	n/a	n/a	n/a	n/a	n/a	n/a	n/a
n/a	"html-keyboard-response"	"36"	"12135260"	"0.0-4.0-3.0-1.0"	"5uffzu"	"563"	"1199"	"chrome"	"110.0.0"	"FALSE"	"Windows 10"	"60.86"	"033"	n/a	n/a	n/a	n/a	n/a	n/a	n/a	n/a	n/a	n/a	"6753"	"enter"	n/a	"NULL"	"NULL"	"NULL"	"<p><b>Practice</b></p><p>In this part, two red lines will appear side by side.</p><p>Your task is to tell <b>which line is longer</b> in length, regardless of their orientation, as fast as you can, and without making errors.</p><p>Don't get distracted by the orientation of the lines!</p><p>Press <b>the LEFT or the RIGHT arrow</b> to indicate which <b>line is the longer one.</b></p><div style='float: center'><img src='materials/instructions/VerticalHorizontal_Demo.png' height='300'></img><p><img src='utils/answer/answer_leftright_keyboard.PNG' height='150'></img></p><p class='small'>In this example, the correct answer is the <b>LEFT arrow</b>.</p></div><p>Are you ready? <b>Press ENTER to start</b></p>"	n/a	n/a	n/a	n/a	n/a	n/a	n/a	n/a	n/a	n/a
n/a	"html-keyboard-response"	"37"	"12137265"	"0.0-4.0-3.0-2.0-0.0"	"5uffzu"	"563"	"1199"	"chrome"	"110.0.0"	"FALSE"	"Windows 10"	"60.86"	"033"	n/a	n/a	n/a	n/a	n/a	n/a	"fixation"	n/a	n/a	n/a	n/a	"NULL"	n/a	"NULL"	"NULL"	"NULL"	"<p style=\"color: black; font-size: 80px; padding-left: 38%; padding-right: 17%; padding-top: 41%; padding-bottom: 43%\">+</p>"	"1490"	n/a	n/a	n/a	n/a	n/a	n/a	n/a	n/a	n/a
n/a	"image-keyboard-response"	"38"	"12137792"	"0.0-4.0-3.0-2.0-1.0"	"5uffzu"	"563"	"1199"	"chrome"	"110.0.0"	"FALSE"	"Windows 10"	"60.86"	"033"	n/a	n/a	n/a	n/a	n/a	n/a	"Trial"	n/a	n/a	n/a	"526"	"arrowright"	n/a	"NULL"	"NULL"	"NULL"	"stimuli/VerticalHorizontal_0000000_-0.9000.png"	n/a	"VerticalHorizontal"	"arrowright"	"2005"	"TRUE"	"VerticalHorizontal"	"000000000000"	"-0.900000000"	"1"	"13"
n/a	"html-keyboard-response"	"39"	"12138988"	"0.0-4.0-3.0-2.0-0.1"	"5uffzu"	"563"	"1199"	"chrome"	"110.0.0"	"FALSE"	"Windows 10"	"60.86"	"033"	n/a	n/a	n/a	n/a	n/a	n/a	"fixation"	n/a	n/a	n/a	n/a	"NULL"	n/a	"NULL"	"NULL"	"NULL"	"<p style=\"color: black; font-size: 80px; padding-left: 22%; padding-right: 27%; padding-top: 12%; padding-bottom: 35%\">+</p>"	"1194"	n/a	n/a	n/a	n/a	n/a	n/a	n/a	n/a	n/a
n/a	"image-keyboard-response"	"40"	"12139513"	"0.0-4.0-3.0-2.0-1.1"	"5uffzu"	"563"	"1199"	"chrome"	"110.0.0"	"FALSE"	"Windows 10"	"60.86"	"033"	n/a	n/a	n/a	n/a	n/a	n/a	"Trial"	n/a	n/a	n/a	"524"	"arrowleft"	n/a	"NULL"	"NULL"	"NULL"	"stimuli/VerticalHorizontal_0000000_0.90000.png"	n/a	"VerticalHorizontal"	"arrowleft"	"1196"	"TRUE"	"VerticalHorizontal"	"000000000000"	"0.9000000000"	"1"	"14"
n/a	"html-keyboard-response"	"41"	"12140710"	"0.0-4.0-3.0-2.0-0.2"	"5uffzu"	"563"	"1199"	"chrome"	"110.0.0"	"FALSE"	"Windows 10"	"60.86"	"033"	n/a	n/a	n/a	n/a	n/a	n/a	"fixation"	n/a	n/a	n/a	n/a	"NULL"	n/a	"NULL"	"NULL"	"NULL"	"<p style=\"color: black; font-size: 80px; padding-left: 33%; padding-right: 45%; padding-top: 46%; padding-bottom: 14%\">+</p>"	"1196"	n/a	n/a	n/a	n/a	n/a	n/a	n/a	n/a	n/a
n/a	"image-keyboard-response"	"42"	"12141265"	"0.0-4.0-3.0-2.0-1.2"	"5uffzu"	"563"	"1199"	"chrome"	"110.0.0"	"FALSE"	"Windows 10"	"60.86"	"033"	n/a	n/a	n/a	n/a	n/a	n/a	"Trial"	n/a	n/a	n/a	"554"	"arrowright"	n/a	"NULL"	"NULL"	"NULL"	"stimuli/VerticalHorizontal_3300000_-0.9000.png"	n/a	"VerticalHorizontal"	"arrowright"	"1197"	"TRUE"	"VerticalHorizontal"	"330000000000"	"-0.900000000"	"1"	"15"
n/a	"html-keyboard-response"	"43"	"12142378"	"0.0-4.0-3.0-2.0-0.3"	"5uffzu"	"563"	"1199"	"chrome"	"110.0.0"	"FALSE"	"Windows 10"	"60.86"	"033"	n/a	n/a	n/a	n/a	n/a	n/a	"fixation"	n/a	n/a	n/a	n/a	"NULL"	n/a	"NULL"	"NULL"	"NULL"	"<p style=\"color: black; font-size: 80px; padding-left: 21%; padding-right: 50%; padding-top: 31%; padding-bottom: 7%\">+</p>"	"1106"	n/a	n/a	n/a	n/a	n/a	n/a	n/a	n/a	n/a
n/a	"image-keyboard-response"	"44"	"12142833"	"0.0-4.0-3.0-2.0-1.3"	"5uffzu"	"563"	"1199"	"chrome"	"110.0.0"	"FALSE"	"Windows 10"	"60.86"	"033"	n/a	n/a	n/a	n/a	n/a	n/a	"Trial"	n/a	n/a	n/a	"455"	"arrowleft"	n/a	"NULL"	"NULL"	"NULL"	"stimuli/VerticalHorizontal_3300000_0.90000.png"	n/a	"VerticalHorizontal"	"arrowleft"	"1113"	"TRUE"	"VerticalHorizontal"	"330000000000"	"0.9000000000"	"1"	"16"
n/a	"html-keyboard-response"	"45"	"12144224"	"0.0-4.0-3.0-2.0-0.4"	"5uffzu"	"563"	"1199"	"chrome"	"110.0.0"	"FALSE"	"Windows 10"	"60.86"	"033"	n/a	n/a	n/a	n/a	n/a	n/a	"fixation"	n/a	n/a	n/a	n/a	"NULL"	n/a	"NULL"	"NULL"	"NULL"	"<p style=\"color: black; font-size: 80px; padding-left: 12%; padding-right: 7%; padding-top: 39%; padding-bottom: 32%\">+</p>"	"1376"	n/a	n/a	n/a	n/a	n/a	n/a	n/a	n/a	n/a
n/a	"image-keyboard-response"	"46"	"12144742"	"0.0-4.0-3.0-2.0-1.4"	"5uffzu"	"563"	"1199"	"chrome"	"110.0.0"	"FALSE"	"Windows 10"	"60.86"	"033"	n/a	n/a	n/a	n/a	n/a	n/a	"Trial"	n/a	n/a	n/a	"517"	"arrowleft"	n/a	"NULL"	"NULL"	"NULL"	"stimuli/VerticalHorizontal_-330000_0.90000.png"	n/a	"VerticalHorizontal"	"arrowleft"	"1391"	"TRUE"	"VerticalHorizontal"	"-33000000000"	"0.9000000000"	"1"	"17"
n/a	"html-keyboard-response"	"47"	"12145815"	"0.0-4.0-3.0-2.0-0.5"	"5uffzu"	"563"	"1199"	"chrome"	"110.0.0"	"FALSE"	"Windows 10"	"60.86"	"033"	n/a	n/a	n/a	n/a	n/a	n/a	"fixation"	n/a	n/a	n/a	n/a	"NULL"	n/a	"NULL"	"NULL"	"NULL"	"<p style=\"color: black; font-size: 80px; padding-left: 22%; padding-right: 4%; padding-top: 24%; padding-bottom: 31%\">+</p>"	"1060"	n/a	n/a	n/a	n/a	n/a	n/a	n/a	n/a	n/a
n/a	"image-keyboard-response"	"48"	"12146253"	"0.0-4.0-3.0-2.0-1.5"	"5uffzu"	"563"	"1199"	"chrome"	"110.0.0"	"FALSE"	"Windows 10"	"60.86"	"033"	n/a	n/a	n/a	n/a	n/a	n/a	"Trial"	n/a	n/a	n/a	"437"	"arrowright"	n/a	"NULL"	"NULL"	"NULL"	"stimuli/VerticalHorizontal_-330000_-0.9000.png"	n/a	"VerticalHorizontal"	"arrowright"	"1073"	"TRUE"	"VerticalHorizontal"	"-33000000000"	"-0.900000000"	"1"	"18"
n/a	"html-button-response"	"49"	"12148817"	"0.0-4.0-3.0-3.0"	"5uffzu"	"563"	"1199"	"chrome"	"110.0.0"	"FALSE"	"Windows 10"	"60.86"	"033"	n/a	n/a	n/a	n/a	n/a	n/a	"practice_block_results"	n/a	n/a	n/a	"2562"	"0"	n/a	"NULL"	"NULL"	"NULL"	"<p style='color:rgb(76,175,80);'> Correct Responses: <b>100.00%</b></p><hr><p style='color:rgb(233,30,99);'> Average Response Time: <b>502.17</b> ms.</p>"	n/a	n/a	n/a	n/a	n/a	n/a	n/a	n/a	n/a	n/a
n/a	"html-button-response"	"50"	"12165281"	"0.0-4.0-4.0"	"5uffzu"	"563"	"1199"	"chrome"	"110.0.0"	"FALSE"	"Windows 10"	"60.86"	"033"	n/a	n/a	n/a	n/a	n/a	n/a	"practice_debrief"	n/a	n/a	n/a	"15954"	"0"	n/a	"NULL"	"NULL"	"NULL"	"<p><b>TRAINING COMPLETED</b></p><p>In the next phase, there will be more trials, and some might be harder too.<br> Moreover, after each illusion block, a <b>score</b> will be calculated based on speed (time you took to answer) and accuracy (number of errors).</p><p>Try to keep up a high score!</p><br><p>Note that it can be <i>really</i> challenging at times, so you will need to rely on your <b>intuition</b> and gut feeling to answer as fast as you can without making errors.</p><p>Each illusion block will be repeated two times (so that you have the opportunity to improve your score), but the order of the blocks is random.</p><p>Remember, your goal is to be as <b>fast</b> and <b>accurate</b> as possible. Good luck!</p><br>"	n/a	n/a	n/a	n/a	n/a	n/a	n/a	n/a	n/a	n/a
"TRUE"	"preload"	"51"	"12165433"	"0.0-5.0-0.0"	"5uffzu"	"563"	"1199"	"chrome"	"110.0.0"	"FALSE"	"Windows 10"	"60.86"	"033"	n/a	n/a	n/a	n/a	n/a	n/a	n/a	n/a	n/a	n/a	n/a	"NULL"	"FALSE"	"list()"	"list()"	"list()"	n/a	n/a	n/a	n/a	n/a	n/a	n/a	n/a	n/a	n/a	n/a
n/a	"html-keyboard-response"	"52"	"12221858"	"0.0-5.0-1.0"	"5uffzu"	"563"	"1199"	"chrome"	"110.0.0"	"FALSE"	"Windows 10"	"60.86"	"033"	n/a	n/a	n/a	n/a	n/a	n/a	n/a	n/a	n/a	n/a	"56415"	"enter"	n/a	"NULL"	"NULL"	"NULL"	"<p><b>Part 1/6</b></p><p>In this part, two red circles will appear side by side on the screen.</p><p>Your task is to select which <b>red circle is bigger</b> in size as fast as you can, without making errors.</p><p>Don't get distracted by the surrounding black circles around the red circles!</p><p>Press <b>the LEFT or the RIGHT arrow</b> to indicate which is the bigger <b>red circle.</b></p><div style='float: center'><img src='materials/instructions/Ebbinghaus_Demo.png' height='300'></img><p><img src='utils/answer/answer_leftright_keyboard.PNG' height='150'></img></p><p class='small'>In this example, the correct answer is the <b>LEFT arrow</b>.</p></div><p>Are you ready? <b>Press ENTER to start</b></p>"	n/a	n/a	n/a	n/a	n/a	n/a	n/a	n/a	n/a	n/a
n/a	"html-keyboard-response"	"53"	"12223809"	"0.0-5.0-2.0-0.0"	"5uffzu"	"563"	"1199"	"chrome"	"110.0.0"	"FALSE"	"Windows 10"	"60.86"	"033"	n/a	n/a	n/a	n/a	n/a	n/a	"fixation"	n/a	n/a	n/a	n/a	"NULL"	n/a	"NULL"	"NULL"	"NULL"	"<p style=\"color: black; font-size: 80px; padding-left: 36%; padding-right: 23%; padding-top: 38%; padding-bottom: 41%\">+</p>"	"1442"	n/a	n/a	n/a	n/a	n/a	n/a	n/a	n/a	n/a
n/a	"image-keyboard-response"	"54"	"12224550"	"0.0-5.0-2.0-1.0"	"5uffzu"	"563"	"1199"	"chrome"	"110.0.0"	"FALSE"	"Windows 10"	"60.86"	"033"	n/a	n/a	n/a	n/a	n/a	n/a	"Trial"	n/a	n/a	n/a	"740"	"arrowleft"	n/a	"NULL"	"NULL"	"NULL"	"stimuli/Ebbinghaus_0.61429_0.28000.png"	n/a	"Ebbinghaus"	"arrowleft"	"1951"	"TRUE"	"Ebbinghaus"	"0.6142900000"	"0.2800000000"	"1"	"19"
n/a	"html-keyboard-response"	"55"	"12225903"	"0.0-5.0-2.0-0.1"	"5uffzu"	"563"	"1199"	"chrome"	"110.0.0"	"FALSE"	"Windows 10"	"60.86"	"033"	n/a	n/a	n/a	n/a	n/a	n/a	"fixation"	n/a	n/a	n/a	n/a	"NULL"	n/a	"NULL"	"NULL"	"NULL"	"<p style=\"color: black; font-size: 80px; padding-left: 35%; padding-right: 37%; padding-top: 21%; padding-bottom: 20%\">+</p>"	"1342"	n/a	n/a	n/a	n/a	n/a	n/a	n/a	n/a	n/a
n/a	"image-keyboard-response"	"56"	"12226812"	"0.0-5.0-2.0-1.1"	"5uffzu"	"563"	"1199"	"chrome"	"110.0.0"	"FALSE"	"Windows 10"	"60.86"	"033"	n/a	n/a	n/a	n/a	n/a	n/a	"Trial"	n/a	n/a	n/a	"909"	"arrowright"	n/a	"NULL"	"NULL"	"NULL"	"stimuli/Ebbinghaus_0.35714_-0.2150.png"	n/a	"Ebbinghaus"	"arrowright"	"1353"	"TRUE"	"Ebbinghaus"	"0.3571400000"	"-0.215000000"	"1"	"20"
n/a	"html-keyboard-response"	"57"	"12228246"	"0.0-5.0-2.0-0.2"	"5uffzu"	"563"	"1199"	"chrome"	"110.0.0"	"FALSE"	"Windows 10"	"60.86"	"033"	n/a	n/a	n/a	n/a	n/a	n/a	"fixation"	n/a	n/a	n/a	n/a	"NULL"	n/a	"NULL"	"NULL"	"NULL"	"<p style=\"color: black; font-size: 80px; padding-left: 32%; padding-right: 0%; padding-top: 4%; padding-bottom: 11%\">+</p>"	"1427"	n/a	n/a	n/a	n/a	n/a	n/a	n/a	n/a	n/a
n/a	"image-keyboard-response"	"58"	"12231079"	"0.0-5.0-2.0-1.2"	"5uffzu"	"563"	"1199"	"chrome"	"110.0.0"	"FALSE"	"Windows 10"	"60.86"	"033"	n/a	n/a	n/a	n/a	n/a	n/a	"Trial"	n/a	n/a	n/a	"2833"	"arrowright"	n/a	"NULL"	"NULL"	"NULL"	"stimuli/Ebbinghaus_0.61429_-0.2150.png"	n/a	"Ebbinghaus"	"arrowright"	"1434"	"TRUE"	"Ebbinghaus"	"0.6142900000"	"-0.215000000"	"1"	"21"
n/a	"html-keyboard-response"	"59"	"12232275"	"0.0-5.0-2.0-0.3"	"5uffzu"	"563"	"1199"	"chrome"	"110.0.0"	"FALSE"	"Windows 10"	"60.86"	"033"	n/a	n/a	n/a	n/a	n/a	n/a	"fixation"	n/a	n/a	n/a	n/a	"NULL"	n/a	"NULL"	"NULL"	"NULL"	"<p style=\"color: black; font-size: 80px; padding-left: 17%; padding-right: 30%; padding-top: 13%; padding-bottom: 31%\">+</p>"	"1192"	n/a	n/a	n/a	n/a	n/a	n/a	n/a	n/a	n/a
n/a	"image-keyboard-response"	"60"	"12234236"	"0.0-5.0-2.0-1.3"	"5uffzu"	"563"	"1199"	"chrome"	"110.0.0"	"FALSE"	"Windows 10"	"60.86"	"033"	n/a	n/a	n/a	n/a	n/a	n/a	"Trial"	n/a	n/a	n/a	"1960"	"arrowleft"	n/a	"NULL"	"NULL"	"NULL"	"stimuli/Ebbinghaus_0.61429_0.15857.png"	n/a	"Ebbinghaus"	"arrowleft"	"1196"	"TRUE"	"Ebbinghaus"	"0.6142900000"	"0.1585700000"	"1"	"22"
n/a	"html-keyboard-response"	"61"	"12235264"	"0.0-5.0-2.0-0.4"	"5uffzu"	"563"	"1199"	"chrome"	"110.0.0"	"FALSE"	"Windows 10"	"60.86"	"033"	n/a	n/a	n/a	n/a	n/a	n/a	"fixation"	n/a	n/a	n/a	n/a	"NULL"	n/a	"NULL"	"NULL"	"NULL"	"<p style=\"color: black; font-size: 80px; padding-left: 17%; padding-right: 44%; padding-top: 23%; padding-bottom: 9%\">+</p>"	"1014"	n/a	n/a	n/a	n/a	n/a	n/a	n/a	n/a	n/a
n/a	"image-keyboard-response"	"62"	"12236876"	"0.0-5.0-2.0-1.4"	"5uffzu"	"563"	"1199"	"chrome"	"110.0.0"	"FALSE"	"Windows 10"	"60.86"	"033"	n/a	n/a	n/a	n/a	n/a	n/a	"Trial"	n/a	n/a	n/a	"1611"	"arrowleft"	n/a	"NULL"	"NULL"	"NULL"	"stimuli/Ebbinghaus_-0.87143_0.15857.png"	n/a	"Ebbinghaus"	"arrowleft"	"1028"	"TRUE"	"Ebbinghaus"	"-0.871430000"	"0.1585700000"	"1"	"23"
n/a	"html-keyboard-response"	"63"	"12238012"	"0.0-5.0-2.0-0.5"	"5uffzu"	"563"	"1199"	"chrome"	"110.0.0"	"FALSE"	"Windows 10"	"60.86"	"033"	n/a	n/a	n/a	n/a	n/a	n/a	"fixation"	n/a	n/a	n/a	n/a	"NULL"	n/a	"NULL"	"NULL"	"NULL"	"<p style=\"color: black; font-size: 80px; padding-left: 26%; padding-right: 50%; padding-top: 47%; padding-bottom: 27%\">+</p>"	"1121"	n/a	n/a	n/a	n/a	n/a	n/a	n/a	n/a	n/a
n/a	"image-keyboard-response"	"64"	"12239490"	"0.0-5.0-2.0-1.5"	"5uffzu"	"563"	"1199"	"chrome"	"110.0.0"	"FALSE"	"Windows 10"	"60.86"	"033"	n/a	n/a	n/a	n/a	n/a	n/a	"Trial"	n/a	n/a	n/a	"1478"	"arrowleft"	n/a	"NULL"	"NULL"	"NULL"	"stimuli/Ebbinghaus_-0.61429_0.11071.png"	n/a	"Ebbinghaus"	"arrowleft"	"1136"	"TRUE"	"Ebbinghaus"	"-0.614290000"	"0.1107100000"	"1"	"24"
n/a	"html-keyboard-response"	"65"	"12240721"	"0.0-5.0-2.0-0.6"	"5uffzu"	"563"	"1199"	"chrome"	"110.0.0"	"FALSE"	"Windows 10"	"60.86"	"033"	n/a	n/a	n/a	n/a	n/a	n/a	"fixation"	n/a	n/a	n/a	n/a	"NULL"	n/a	"NULL"	"NULL"	"NULL"	"<p style=\"color: black; font-size: 80px; padding-left: 25%; padding-right: 2%; padding-top: 8%; padding-bottom: 40%\">+</p>"	"1215"	n/a	n/a	n/a	n/a	n/a	n/a	n/a	n/a	n/a
n/a	"image-keyboard-response"	"66"	"12242902"	"0.0-5.0-2.0-1.6"	"5uffzu"	"563"	"1199"	"chrome"	"110.0.0"	"FALSE"	"Windows 10"	"60.86"	"033"	n/a	n/a	n/a	n/a	n/a	n/a	"Trial"	n/a	n/a	n/a	"2181"	"arrowright"	n/a	"NULL"	"NULL"	"NULL"	"stimuli/Ebbinghaus_0.10000_-0.15857.png"	n/a	"Ebbinghaus"	"arrowright"	"1231"	"TRUE"	"Ebbinghaus"	"0.1000000000"	"-0.158570000"	"1"	"25"
n/a	"html-keyboard-response"	"67"	"12244387"	"0.0-5.0-2.0-0.7"	"5uffzu"	"563"	"1199"	"chrome"	"110.0.0"	"FALSE"	"Windows 10"	"60.86"	"033"	n/a	n/a	n/a	n/a	n/a	n/a	"fixation"	n/a	n/a	n/a	n/a	"NULL"	n/a	"NULL"	"NULL"	"NULL"	"<p style=\"color: black; font-size: 80px; padding-left: 18%; padding-right: 37%; padding-top: 14%; padding-bottom: 1%\">+</p>"	"1473"	n/a	n/a	n/a	n/a	n/a	n/a	n/a	n/a	n/a
n/a	"image-keyboard-response"	"68"	"12245953"	"0.0-5.0-2.0-1.7"	"5uffzu"	"563"	"1199"	"chrome"	"110.0.0"	"FALSE"	"Windows 10"	"60.86"	"033"	n/a	n/a	n/a	n/a	n/a	n/a	"Trial"	n/a	n/a	n/a	"1566"	"arrowleft"	n/a	"NULL"	"NULL"	"NULL"	"stimuli/Ebbinghaus_0.61429_-0.2800.png"	n/a	"Ebbinghaus"	"arrowright"	"1485"	"FALSE"	"Ebbinghaus"	"0.6142900000"	"-0.280000000"	"1"	"26"
n/a	"html-keyboard-response"	"69"	"12247387"	"0.0-5.0-2.0-0.8"	"5uffzu"	"563"	"1199"	"chrome"	"110.0.0"	"FALSE"	"Windows 10"	"60.86"	"033"	n/a	n/a	n/a	n/a	n/a	n/a	"fixation"	n/a	n/a	n/a	n/a	"NULL"	n/a	"NULL"	"NULL"	"NULL"	"<p style=\"color: black; font-size: 80px; padding-left: 31%; padding-right: 28%; padding-top: 36%; padding-bottom: 37%\">+</p>"	"1421"	n/a	n/a	n/a	n/a	n/a	n/a	n/a	n/a	n/a
n/a	"image-keyboard-response"	"70"	"12248037"	"0.0-5.0-2.0-1.8"	"5uffzu"	"563"	"1199"	"chrome"	"110.0.0"	"FALSE"	"Windows 10"	"60.86"	"033"	n/a	n/a	n/a	n/a	n/a	n/a	"Trial"	n/a	n/a	n/a	"647"	"arrowleft"	n/a	"NULL"	"NULL"	"NULL"	"stimuli/Ebbinghaus_0.87143_0.11071.png"	n/a	"Ebbinghaus"	"arrowleft"	"1434"	"TRUE"	"Ebbinghaus"	"0.8714300000"	"0.1107100000"	"1"	"27"
n/a	"html-keyboard-response"	"71"	"12249292"	"0.0-5.0-2.0-0.9"	"5uffzu"	"563"	"1199"	"chrome"	"110.0.0"	"FALSE"	"Windows 10"	"60.86"	"033"	n/a	n/a	n/a	n/a	n/a	n/a	"fixation"	n/a	n/a	n/a	n/a	"NULL"	n/a	"NULL"	"NULL"	"NULL"	"<p style=\"color: black; font-size: 80px; padding-left: 18%; padding-right: 29%; padding-top: 13%; padding-bottom: 39%\">+</p>"	"1247"	n/a	n/a	n/a	n/a	n/a	n/a	n/a	n/a	n/a
n/a	"image-keyboard-response"	"72"	"12250546"	"0.0-5.0-2.0-1.9"	"5uffzu"	"563"	"1199"	"chrome"	"110.0.0"	"FALSE"	"Windows 10"	"60.86"	"033"	n/a	n/a	n/a	n/a	n/a	n/a	"Trial"	n/a	n/a	n/a	"1253"	"arrowleft"	n/a	"NULL"	"NULL"	"NULL"	"stimuli/Ebbinghaus_-0.35714_0.11071.png"	n/a	"Ebbinghaus"	"arrowleft"	"1255"	"TRUE"	"Ebbinghaus"	"-0.357140000"	"0.1107100000"	"1"	"28"
n/a	"html-keyboard-response"	"73"	"12251585"	"0.0-5.0-2.0-0.10"	"5uffzu"	"563"	"1199"	"chrome"	"110.0.0"	"FALSE"	"Windows 10"	"60.86"	"033"	n/a	n/a	n/a	n/a	n/a	n/a	"fixation"	n/a	n/a	n/a	n/a	"NULL"	n/a	"NULL"	"NULL"	"NULL"	"<p style=\"color: black; font-size: 80px; padding-left: 48%; padding-right: 47%; padding-top: 44%; padding-bottom: 11%\">+</p>"	"1029"	n/a	n/a	n/a	n/a	n/a	n/a	n/a	n/a	n/a
n/a	"image-keyboard-response"	"74"	"12252527"	"0.0-5.0-2.0-1.10"	"5uffzu"	"563"	"1199"	"chrome"	"110.0.0"	"FALSE"	"Windows 10"	"60.86"	"033"	n/a	n/a	n/a	n/a	n/a	n/a	"Trial"	n/a	n/a	n/a	"942"	"arrowright"	n/a	"NULL"	"NULL"	"NULL"	"stimuli/Ebbinghaus_-0.87143_-0.11071.png"	n/a	"Ebbinghaus"	"arrowright"	"1039"	"TRUE"	"Ebbinghaus"	"-0.871430000"	"-0.110710000"	"1"	"29"
n/a	"html-keyboard-response"	"75"	"12253551"	"0.0-5.0-2.0-0.11"	"5uffzu"	"563"	"1199"	"chrome"	"110.0.0"	"FALSE"	"Windows 10"	"60.86"	"033"	n/a	n/a	n/a	n/a	n/a	n/a	"fixation"	n/a	n/a	n/a	n/a	"NULL"	n/a	"NULL"	"NULL"	"NULL"	"<p style=\"color: black; font-size: 80px; padding-left: 43%; padding-right: 43%; padding-top: 47%; padding-bottom: 46%\">+</p>"	"1014"	n/a	n/a	n/a	n/a	n/a	n/a	n/a	n/a	n/a
n/a	"image-keyboard-response"	"76"	"12256550"	"0.0-5.0-2.0-1.11"	"5uffzu"	"563"	"1199"	"chrome"	"110.0.0"	"FALSE"	"Windows 10"	"60.86"	"033"	n/a	n/a	n/a	n/a	n/a	n/a	"Trial"	n/a	n/a	n/a	"2998"	"arrowright"	n/a	"NULL"	"NULL"	"NULL"	"stimuli/Ebbinghaus_0.10000_-0.11071.png"	n/a	"Ebbinghaus"	"arrowright"	"1024"	"TRUE"	"Ebbinghaus"	"0.1000000000"	"-0.110710000"	"1"	"30"
n/a	"html-keyboard-response"	"77"	"12257792"	"0.0-5.0-2.0-0.12"	"5uffzu"	"563"	"1199"	"chrome"	"110.0.0"	"FALSE"	"Windows 10"	"60.86"	"033"	n/a	n/a	n/a	n/a	n/a	n/a	"fixation"	n/a	n/a	n/a	n/a	"NULL"	n/a	"NULL"	"NULL"	"NULL"	"<p style=\"color: black; font-size: 80px; padding-left: 16%; padding-right: 46%; padding-top: 17%; padding-bottom: 6%\">+</p>"	"1233"	n/a	n/a	n/a	n/a	n/a	n/a	n/a	n/a	n/a
n/a	"image-keyboard-response"	"78"	"12258699"	"0.0-5.0-2.0-1.12"	"5uffzu"	"563"	"1199"	"chrome"	"110.0.0"	"FALSE"	"Windows 10"	"60.86"	"033"	n/a	n/a	n/a	n/a	n/a	n/a	"Trial"	n/a	n/a	n/a	"907"	"arrowleft"	n/a	"NULL"	"NULL"	"NULL"	"stimuli/Ebbinghaus_-0.61429_0.21500.png"	n/a	"Ebbinghaus"	"arrowleft"	"1242"	"TRUE"	"Ebbinghaus"	"-0.614290000"	"0.2150000000"	"1"	"31"
n/a	"html-keyboard-response"	"79"	"12260137"	"0.0-5.0-2.0-0.13"	"5uffzu"	"563"	"1199"	"chrome"	"110.0.0"	"FALSE"	"Windows 10"	"60.86"	"033"	n/a	n/a	n/a	n/a	n/a	n/a	"fixation"	n/a	n/a	n/a	n/a	"NULL"	n/a	"NULL"	"NULL"	"NULL"	"<p style=\"color: black; font-size: 80px; padding-left: 4%; padding-right: 6%; padding-top: 22%; padding-bottom: 1%\">+</p>"	"1431"	n/a	n/a	n/a	n/a	n/a	n/a	n/a	n/a	n/a
n/a	"image-keyboard-response"	"80"	"12261140"	"0.0-5.0-2.0-1.13"	"5uffzu"	"563"	"1199"	"chrome"	"110.0.0"	"FALSE"	"Windows 10"	"60.86"	"033"	n/a	n/a	n/a	n/a	n/a	n/a	"Trial"	n/a	n/a	n/a	"1003"	"arrowleft"	n/a	"NULL"	"NULL"	"NULL"	"stimuli/Ebbinghaus_-0.1000_0.21500.png"	n/a	"Ebbinghaus"	"arrowleft"	"1438"	"TRUE"	"Ebbinghaus"	"-0.100000000"	"0.2150000000"	"1"	"32"
n/a	"html-keyboard-response"	"81"	"12262262"	"0.0-5.0-2.0-0.14"	"5uffzu"	"563"	"1199"	"chrome"	"110.0.0"	"FALSE"	"Windows 10"	"60.86"	"033"	n/a	n/a	n/a	n/a	n/a	n/a	"fixation"	n/a	n/a	n/a	n/a	"NULL"	n/a	"NULL"	"NULL"	"NULL"	"<p style=\"color: black; font-size: 80px; padding-left: 47%; padding-right: 50%; padding-top: 11%; padding-bottom: 9%\">+</p>"	"1121"	n/a	n/a	n/a	n/a	n/a	n/a	n/a	n/a	n/a
n/a	"image-keyboard-response"	"82"	"12263116"	"0.0-5.0-2.0-1.14"	"5uffzu"	"563"	"1199"	"chrome"	"110.0.0"	"FALSE"	"Windows 10"	"60.86"	"033"	n/a	n/a	n/a	n/a	n/a	n/a	"Trial"	n/a	n/a	n/a	"853"	"arrowright"	n/a	"NULL"	"NULL"	"NULL"	"stimuli/Ebbinghaus_-0.1000_-0.2800.png"	n/a	"Ebbinghaus"	"arrowright"	"1122"	"TRUE"	"Ebbinghaus"	"-0.100000000"	"-0.280000000"	"1"	"33"
n/a	"html-keyboard-response"	"83"	"12264240"	"0.0-5.0-2.0-0.15"	"5uffzu"	"563"	"1199"	"chrome"	"110.0.0"	"FALSE"	"Windows 10"	"60.86"	"033"	n/a	n/a	n/a	n/a	n/a	n/a	"fixation"	n/a	n/a	n/a	n/a	"NULL"	n/a	"NULL"	"NULL"	"NULL"	"<p style=\"color: black; font-size: 80px; padding-left: 23%; padding-right: 33%; padding-top: 16%; padding-bottom: 15%\">+</p>"	"1112"	n/a	n/a	n/a	n/a	n/a	n/a	n/a	n/a	n/a
n/a	"image-keyboard-response"	"84"	"12265045"	"0.0-5.0-2.0-1.15"	"5uffzu"	"563"	"1199"	"chrome"	"110.0.0"	"FALSE"	"Windows 10"	"60.86"	"033"	n/a	n/a	n/a	n/a	n/a	n/a	"Trial"	n/a	n/a	n/a	"805"	"arrowleft"	n/a	"NULL"	"NULL"	"NULL"	"stimuli/Ebbinghaus_0.35714_0.28000.png"	n/a	"Ebbinghaus"	"arrowleft"	"1124"	"TRUE"	"Ebbinghaus"	"0.3571400000"	"0.2800000000"	"1"	"34"
n/a	"html-keyboard-response"	"85"	"12266470"	"0.0-5.0-2.0-0.16"	"5uffzu"	"563"	"1199"	"chrome"	"110.0.0"	"FALSE"	"Windows 10"	"60.86"	"033"	n/a	n/a	n/a	n/a	n/a	n/a	"fixation"	n/a	n/a	n/a	n/a	"NULL"	n/a	"NULL"	"NULL"	"NULL"	"<p style=\"color: black; font-size: 80px; padding-left: 3%; padding-right: 27%; padding-top: 43%; padding-bottom: 41%\">+</p>"	"1421"	n/a	n/a	n/a	n/a	n/a	n/a	n/a	n/a	n/a
n/a	"image-keyboard-response"	"86"	"12267481"	"0.0-5.0-2.0-1.16"	"5uffzu"	"563"	"1199"	"chrome"	"110.0.0"	"FALSE"	"Windows 10"	"60.86"	"033"	n/a	n/a	n/a	n/a	n/a	n/a	"Trial"	n/a	n/a	n/a	"1010"	"arrowleft"	n/a	"NULL"	"NULL"	"NULL"	"stimuli/Ebbinghaus_0.35714_0.11071.png"	n/a	"Ebbinghaus"	"arrowleft"	"1425"	"TRUE"	"Ebbinghaus"	"0.3571400000"	"0.1107100000"	"1"	"35"
n/a	"html-keyboard-response"	"87"	"12268755"	"0.0-5.0-2.0-0.17"	"5uffzu"	"563"	"1199"	"chrome"	"110.0.0"	"FALSE"	"Windows 10"	"60.86"	"033"	n/a	n/a	n/a	n/a	n/a	n/a	"fixation"	n/a	n/a	n/a	n/a	"NULL"	n/a	"NULL"	"NULL"	"NULL"	"<p style=\"color: black; font-size: 80px; padding-left: 26%; padding-right: 11%; padding-top: 23%; padding-bottom: 39%\">+</p>"	"1260"	n/a	n/a	n/a	n/a	n/a	n/a	n/a	n/a	n/a
n/a	"image-keyboard-response"	"88"	"12269670"	"0.0-5.0-2.0-1.17"	"5uffzu"	"563"	"1199"	"chrome"	"110.0.0"	"FALSE"	"Windows 10"	"60.86"	"033"	n/a	n/a	n/a	n/a	n/a	n/a	"Trial"	n/a	n/a	n/a	"913"	"arrowleft"	n/a	"NULL"	"NULL"	"NULL"	"stimuli/Ebbinghaus_0.10000_0.21500.png"	n/a	"Ebbinghaus"	"arrowleft"	"1274"	"TRUE"	"Ebbinghaus"	"0.1000000000"	"0.2150000000"	"1"	"36"
n/a	"html-keyboard-response"	"89"	"12270967"	"0.0-5.0-2.0-0.18"	"5uffzu"	"563"	"1199"	"chrome"	"110.0.0"	"FALSE"	"Windows 10"	"60.86"	"033"	n/a	n/a	n/a	n/a	n/a	n/a	"fixation"	n/a	n/a	n/a	n/a	"NULL"	n/a	"NULL"	"NULL"	"NULL"	"<p style=\"color: black; font-size: 80px; padding-left: 48%; padding-right: 1%; padding-top: 26%; padding-bottom: 13%\">+</p>"	"1287"	n/a	n/a	n/a	n/a	n/a	n/a	n/a	n/a	n/a
n/a	"image-keyboard-response"	"90"	"12275788"	"0.0-5.0-2.0-1.18"	"5uffzu"	"563"	"1199"	"chrome"	"110.0.0"	"FALSE"	"Windows 10"	"60.86"	"033"	n/a	n/a	n/a	n/a	n/a	n/a	"Trial"	n/a	n/a	n/a	"4820"	"arrowleft"	n/a	"NULL"	"NULL"	"NULL"	"stimuli/Ebbinghaus_0.35714_-0.15857.png"	n/a	"Ebbinghaus"	"arrowright"	"1297"	"FALSE"	"Ebbinghaus"	"0.3571400000"	"-0.158570000"	"1"	"37"
n/a	"html-keyboard-response"	"91"	"12276873"	"0.0-5.0-2.0-0.19"	"5uffzu"	"563"	"1199"	"chrome"	"110.0.0"	"FALSE"	"Windows 10"	"60.86"	"033"	n/a	n/a	n/a	n/a	n/a	n/a	"fixation"	n/a	n/a	n/a	n/a	"NULL"	n/a	"NULL"	"NULL"	"NULL"	"<p style=\"color: black; font-size: 80px; padding-left: 23%; padding-right: 19%; padding-top: 33%; padding-bottom: 36%\">+</p>"	"1083"	n/a	n/a	n/a	n/a	n/a	n/a	n/a	n/a	n/a
n/a	"image-keyboard-response"	"92"	"12277876"	"0.0-5.0-2.0-1.19"	"5uffzu"	"563"	"1199"	"chrome"	"110.0.0"	"FALSE"	"Windows 10"	"60.86"	"033"	n/a	n/a	n/a	n/a	n/a	n/a	"Trial"	n/a	n/a	n/a	"1002"	"arrowright"	n/a	"NULL"	"NULL"	"NULL"	"stimuli/Ebbinghaus_-0.35714_-0.11071.png"	n/a	"Ebbinghaus"	"arrowright"	"1085"	"TRUE"	"Ebbinghaus"	"-0.357140000"	"-0.110710000"	"1"	"38"
n/a	"html-keyboard-response"	"93"	"12279293"	"0.0-5.0-2.0-0.20"	"5uffzu"	"563"	"1199"	"chrome"	"110.0.0"	"FALSE"	"Windows 10"	"60.86"	"033"	n/a	n/a	n/a	n/a	n/a	n/a	"fixation"	n/a	n/a	n/a	n/a	"NULL"	n/a	"NULL"	"NULL"	"NULL"	"<p style=\"color: black; font-size: 80px; padding-left: 3%; padding-right: 2%; padding-top: 49%; padding-bottom: 14%\">+</p>"	"1402"	n/a	n/a	n/a	n/a	n/a	n/a	n/a	n/a	n/a
n/a	"image-keyboard-response"	"94"	"12281590"	"0.0-5.0-2.0-1.20"	"5uffzu"	"563"	"1199"	"chrome"	"110.0.0"	"FALSE"	"Windows 10"	"60.86"	"033"	n/a	n/a	n/a	n/a	n/a	n/a	"Trial"	n/a	n/a	n/a	"2290"	"arrowright"	n/a	"NULL"	"NULL"	"NULL"	"stimuli/Ebbinghaus_0.61429_0.11071.png"	n/a	"Ebbinghaus"	"arrowleft"	"1417"	"FALSE"	"Ebbinghaus"	"0.6142900000"	"0.1107100000"	"1"	"39"
n/a	"html-keyboard-response"	"95"	"12283067"	"0.0-5.0-2.0-0.21"	"5uffzu"	"563"	"1199"	"chrome"	"110.0.0"	"FALSE"	"Windows 10"	"60.86"	"033"	n/a	n/a	n/a	n/a	n/a	n/a	"fixation"	n/a	n/a	n/a	n/a	"NULL"	n/a	"NULL"	"NULL"	"NULL"	"<p style=\"color: black; font-size: 80px; padding-left: 8%; padding-right: 14%; padding-top: 24%; padding-bottom: 10%\">+</p>"	"1462"	n/a	n/a	n/a	n/a	n/a	n/a	n/a	n/a	n/a
n/a	"image-keyboard-response"	"96"	"12283967"	"0.0-5.0-2.0-1.21"	"5uffzu"	"563"	"1199"	"chrome"	"110.0.0"	"FALSE"	"Windows 10"	"60.86"	"033"	n/a	n/a	n/a	n/a	n/a	n/a	"Trial"	n/a	n/a	n/a	"899"	"arrowleft"	n/a	"NULL"	"NULL"	"NULL"	"stimuli/Ebbinghaus_0.35714_0.21500.png"	n/a	"Ebbinghaus"	"arrowleft"	"1477"	"TRUE"	"Ebbinghaus"	"0.3571400000"	"0.2150000000"	"1"	"40"
n/a	"html-keyboard-response"	"97"	"12285237"	"0.0-5.0-2.0-0.22"	"5uffzu"	"563"	"1199"	"chrome"	"110.0.0"	"FALSE"	"Windows 10"	"60.86"	"033"	n/a	n/a	n/a	n/a	n/a	n/a	"fixation"	n/a	n/a	n/a	n/a	"NULL"	n/a	"NULL"	"NULL"	"NULL"	"<p style=\"color: black; font-size: 80px; padding-left: 11%; padding-right: 16%; padding-top: 16%; padding-bottom: 21%\">+</p>"	"1265"	n/a	n/a	n/a	n/a	n/a	n/a	n/a	n/a	n/a
n/a	"image-keyboard-response"	"98"	"12286768"	"0.0-5.0-2.0-1.22"	"5uffzu"	"563"	"1199"	"chrome"	"110.0.0"	"FALSE"	"Windows 10"	"60.86"	"033"	n/a	n/a	n/a	n/a	n/a	n/a	"Trial"	n/a	n/a	n/a	"1531"	"arrowleft"	n/a	"NULL"	"NULL"	"NULL"	"stimuli/Ebbinghaus_0.87143_-0.15857.png"	n/a	"Ebbinghaus"	"arrowright"	"1270"	"FALSE"	"Ebbinghaus"	"0.8714300000"	"-0.158570000"	"1"	"41"
n/a	"html-keyboard-response"	"99"	"12287879"	"0.0-5.0-2.0-0.23"	"5uffzu"	"563"	"1199"	"chrome"	"110.0.0"	"FALSE"	"Windows 10"	"60.86"	"033"	n/a	n/a	n/a	n/a	n/a	n/a	"fixation"	n/a	n/a	n/a	n/a	"NULL"	n/a	"NULL"	"NULL"	"NULL"	"<p style=\"color: black; font-size: 80px; padding-left: 47%; padding-right: 42%; padding-top: 25%; padding-bottom: 46%\">+</p>"	"1094"	n/a	n/a	n/a	n/a	n/a	n/a	n/a	n/a	n/a
n/a	"image-keyboard-response"	"100"	"12288847"	"0.0-5.0-2.0-1.23"	"5uffzu"	"563"	"1199"	"chrome"	"110.0.0"	"FALSE"	"Windows 10"	"60.86"	"033"	n/a	n/a	n/a	n/a	n/a	n/a	"Trial"	n/a	n/a	n/a	"968"	"arrowright"	n/a	"NULL"	"NULL"	"NULL"	"stimuli/Ebbinghaus_0.10000_-0.2800.png"	n/a	"Ebbinghaus"	"arrowright"	"1111"	"TRUE"	"Ebbinghaus"	"0.1000000000"	"-0.280000000"	"1"	"42"
n/a	"html-keyboard-response"	"101"	"12289887"	"0.0-5.0-2.0-0.24"	"5uffzu"	"563"	"1199"	"chrome"	"110.0.0"	"FALSE"	"Windows 10"	"60.86"	"033"	n/a	n/a	n/a	n/a	n/a	n/a	"fixation"	n/a	n/a	n/a	n/a	"NULL"	n/a	"NULL"	"NULL"	"NULL"	"<p style=\"color: black; font-size: 80px; padding-left: 16%; padding-right: 22%; padding-top: 17%; padding-bottom: 21%\">+</p>"	"1023"	n/a	n/a	n/a	n/a	n/a	n/a	n/a	n/a	n/a
n/a	"image-keyboard-response"	"102"	"12290769"	"0.0-5.0-2.0-1.24"	"5uffzu"	"563"	"1199"	"chrome"	"110.0.0"	"FALSE"	"Windows 10"	"60.86"	"033"	n/a	n/a	n/a	n/a	n/a	n/a	"Trial"	n/a	n/a	n/a	"882"	"arrowleft"	n/a	"NULL"	"NULL"	"NULL"	"stimuli/Ebbinghaus_0.35714_0.15857.png"	n/a	"Ebbinghaus"	"arrowleft"	"1040"	"TRUE"	"Ebbinghaus"	"0.3571400000"	"0.1585700000"	"1"	"43"
n/a	"html-keyboard-response"	"103"	"12291941"	"0.0-5.0-2.0-0.25"	"5uffzu"	"563"	"1199"	"chrome"	"110.0.0"	"FALSE"	"Windows 10"	"60.86"	"033"	n/a	n/a	n/a	n/a	n/a	n/a	"fixation"	n/a	n/a	n/a	n/a	"NULL"	n/a	"NULL"	"NULL"	"NULL"	"<p style=\"color: black; font-size: 80px; padding-left: 19%; padding-right: 36%; padding-top: 20%; padding-bottom: 37%\">+</p>"	"1167"	n/a	n/a	n/a	n/a	n/a	n/a	n/a	n/a	n/a
n/a	"image-keyboard-response"	"104"	"12292766"	"0.0-5.0-2.0-1.25"	"5uffzu"	"563"	"1199"	"chrome"	"110.0.0"	"FALSE"	"Windows 10"	"60.86"	"033"	n/a	n/a	n/a	n/a	n/a	n/a	"Trial"	n/a	n/a	n/a	"824"	"arrowleft"	n/a	"NULL"	"NULL"	"NULL"	"stimuli/Ebbinghaus_0.87143_-0.2150.png"	n/a	"Ebbinghaus"	"arrowright"	"1172"	"FALSE"	"Ebbinghaus"	"0.8714300000"	"-0.215000000"	"1"	"44"
n/a	"html-keyboard-response"	"105"	"12293778"	"0.0-5.0-2.0-0.26"	"5uffzu"	"563"	"1199"	"chrome"	"110.0.0"	"FALSE"	"Windows 10"	"60.86"	"033"	n/a	n/a	n/a	n/a	n/a	n/a	"fixation"	n/a	n/a	n/a	n/a	"NULL"	n/a	"NULL"	"NULL"	"NULL"	"<p style=\"color: black; font-size: 80px; padding-left: 20%; padding-right: 45%; padding-top: 42%; padding-bottom: 29%\">+</p>"	"1010"	n/a	n/a	n/a	n/a	n/a	n/a	n/a	n/a	n/a
n/a	"image-keyboard-response"	"106"	"12294627"	"0.0-5.0-2.0-1.26"	"5uffzu"	"563"	"1199"	"chrome"	"110.0.0"	"FALSE"	"Windows 10"	"60.86"	"033"	n/a	n/a	n/a	n/a	n/a	n/a	"Trial"	n/a	n/a	n/a	"848"	"arrowright"	n/a	"NULL"	"NULL"	"NULL"	"stimuli/Ebbinghaus_-0.61429_-0.2150.png"	n/a	"Ebbinghaus"	"arrowright"	"1012"	"TRUE"	"Ebbinghaus"	"-0.614290000"	"-0.215000000"	"1"	"45"
n/a	"html-keyboard-response"	"107"	"12295841"	"0.0-5.0-2.0-0.27"	"5uffzu"	"563"	"1199"	"chrome"	"110.0.0"	"FALSE"	"Windows 10"	"60.86"	"033"	n/a	n/a	n/a	n/a	n/a	n/a	"fixation"	n/a	n/a	n/a	n/a	"NULL"	n/a	"NULL"	"NULL"	"NULL"	"<p style=\"color: black; font-size: 80px; padding-left: 36%; padding-right: 14%; padding-top: 28%; padding-bottom: 44%\">+</p>"	"1211"	n/a	n/a	n/a	n/a	n/a	n/a	n/a	n/a	n/a
n/a	"image-keyboard-response"	"108"	"12296456"	"0.0-5.0-2.0-1.27"	"5uffzu"	"563"	"1199"	"chrome"	"110.0.0"	"FALSE"	"Windows 10"	"60.86"	"033"	n/a	n/a	n/a	n/a	n/a	n/a	"Trial"	n/a	n/a	n/a	"614"	"arrowleft"	n/a	"NULL"	"NULL"	"NULL"	"stimuli/Ebbinghaus_-0.87143_0.21500.png"	n/a	"Ebbinghaus"	"arrowleft"	"1214"	"TRUE"	"Ebbinghaus"	"-0.871430000"	"0.2150000000"	"1"	"46"
n/a	"html-keyboard-response"	"109"	"12297894"	"0.0-5.0-2.0-0.28"	"5uffzu"	"563"	"1199"	"chrome"	"110.0.0"	"FALSE"	"Windows 10"	"60.86"	"033"	n/a	n/a	n/a	n/a	n/a	n/a	"fixation"	n/a	n/a	n/a	n/a	"NULL"	n/a	"NULL"	"NULL"	"NULL"	"<p style=\"color: black; font-size: 80px; padding-left: 39%; padding-right: 35%; padding-top: 28%; padding-bottom: 41%\">+</p>"	"1426"	n/a	n/a	n/a	n/a	n/a	n/a	n/a	n/a	n/a
n/a	"image-keyboard-response"	"110"	"12299351"	"0.0-5.0-2.0-1.28"	"5uffzu"	"563"	"1199"	"chrome"	"110.0.0"	"FALSE"	"Windows 10"	"60.86"	"033"	n/a	n/a	n/a	n/a	n/a	n/a	"Trial"	n/a	n/a	n/a	"1457"	"arrowright"	n/a	"NULL"	"NULL"	"NULL"	"stimuli/Ebbinghaus_-0.1000_-0.15857.png"	n/a	"Ebbinghaus"	"arrowright"	"1438"	"TRUE"	"Ebbinghaus"	"-0.100000000"	"-0.158570000"	"1"	"47"
n/a	"html-keyboard-response"	"111"	"12300487"	"0.0-5.0-2.0-0.29"	"5uffzu"	"563"	"1199"	"chrome"	"110.0.0"	"FALSE"	"Windows 10"	"60.86"	"033"	n/a	n/a	n/a	n/a	n/a	n/a	"fixation"	n/a	n/a	n/a	n/a	"NULL"	n/a	"NULL"	"NULL"	"NULL"	"<p style=\"color: black; font-size: 80px; padding-left: 1%; padding-right: 23%; padding-top: 43%; padding-bottom: 33%\">+</p>"	"1133"	n/a	n/a	n/a	n/a	n/a	n/a	n/a	n/a	n/a
n/a	"image-keyboard-response"	"112"	"12301134"	"0.0-5.0-2.0-1.29"	"5uffzu"	"563"	"1199"	"chrome"	"110.0.0"	"FALSE"	"Windows 10"	"60.86"	"033"	n/a	n/a	n/a	n/a	n/a	n/a	"Trial"	n/a	n/a	n/a	"646"	"arrowleft"	n/a	"NULL"	"NULL"	"NULL"	"stimuli/Ebbinghaus_0.87143_0.28000.png"	n/a	"Ebbinghaus"	"arrowleft"	"1136"	"TRUE"	"Ebbinghaus"	"0.8714300000"	"0.2800000000"	"1"	"48"
n/a	"html-keyboard-response"	"113"	"12302285"	"0.0-5.0-2.0-0.30"	"5uffzu"	"563"	"1199"	"chrome"	"110.0.0"	"FALSE"	"Windows 10"	"60.86"	"033"	n/a	n/a	n/a	n/a	n/a	n/a	"fixation"	n/a	n/a	n/a	n/a	"NULL"	n/a	"NULL"	"NULL"	"NULL"	"<p style=\"color: black; font-size: 80px; padding-left: 11%; padding-right: 50%; padding-top: 7%; padding-bottom: 3%\">+</p>"	"1140"	n/a	n/a	n/a	n/a	n/a	n/a	n/a	n/a	n/a
n/a	"image-keyboard-response"	"114"	"12303488"	"0.0-5.0-2.0-1.30"	"5uffzu"	"563"	"1199"	"chrome"	"110.0.0"	"FALSE"	"Windows 10"	"60.86"	"033"	n/a	n/a	n/a	n/a	n/a	n/a	"Trial"	n/a	n/a	n/a	"1202"	"arrowleft"	n/a	"NULL"	"NULL"	"NULL"	"stimuli/Ebbinghaus_-0.1000_0.11071.png"	n/a	"Ebbinghaus"	"arrowleft"	"1151"	"TRUE"	"Ebbinghaus"	"-0.100000000"	"0.1107100000"	"1"	"49"
n/a	"html-keyboard-response"	"115"	"12304793"	"0.0-5.0-2.0-0.31"	"5uffzu"	"563"	"1199"	"chrome"	"110.0.0"	"FALSE"	"Windows 10"	"60.86"	"033"	n/a	n/a	n/a	n/a	n/a	n/a	"fixation"	n/a	n/a	n/a	n/a	"NULL"	n/a	"NULL"	"NULL"	"NULL"	"<p style=\"color: black; font-size: 80px; padding-left: 28%; padding-right: 13%; padding-top: 15%; padding-bottom: 20%\">+</p>"	"1295"	n/a	n/a	n/a	n/a	n/a	n/a	n/a	n/a	n/a
n/a	"image-keyboard-response"	"116"	"12305625"	"0.0-5.0-2.0-1.31"	"5uffzu"	"563"	"1199"	"chrome"	"110.0.0"	"FALSE"	"Windows 10"	"60.86"	"033"	n/a	n/a	n/a	n/a	n/a	n/a	"Trial"	n/a	n/a	n/a	"832"	"arrowleft"	n/a	"NULL"	"NULL"	"NULL"	"stimuli/Ebbinghaus_0.10000_0.15857.png"	n/a	"Ebbinghaus"	"arrowleft"	"1305"	"TRUE"	"Ebbinghaus"	"0.1000000000"	"0.1585700000"	"1"	"50"
n/a	"html-keyboard-response"	"117"	"12307044"	"0.0-5.0-2.0-0.32"	"5uffzu"	"563"	"1199"	"chrome"	"110.0.0"	"FALSE"	"Windows 10"	"60.86"	"033"	n/a	n/a	n/a	n/a	n/a	n/a	"fixation"	n/a	n/a	n/a	n/a	"NULL"	n/a	"NULL"	"NULL"	"NULL"	"<p style=\"color: black; font-size: 80px; padding-left: 20%; padding-right: 29%; padding-top: 47%; padding-bottom: 46%\">+</p>"	"1405"	n/a	n/a	n/a	n/a	n/a	n/a	n/a	n/a	n/a
n/a	"image-keyboard-response"	"118"	"12307721"	"0.0-5.0-2.0-1.32"	"5uffzu"	"563"	"1199"	"chrome"	"110.0.0"	"FALSE"	"Windows 10"	"60.86"	"033"	n/a	n/a	n/a	n/a	n/a	n/a	"Trial"	n/a	n/a	n/a	"676"	"arrowright"	n/a	"NULL"	"NULL"	"NULL"	"stimuli/Ebbinghaus_-0.61429_-0.15857.png"	n/a	"Ebbinghaus"	"arrowright"	"1419"	"TRUE"	"Ebbinghaus"	"-0.614290000"	"-0.158570000"	"1"	"51"
n/a	"html-keyboard-response"	"119"	"12308821"	"0.0-5.0-2.0-0.33"	"5uffzu"	"563"	"1199"	"chrome"	"110.0.0"	"FALSE"	"Windows 10"	"60.86"	"033"	n/a	n/a	n/a	n/a	n/a	n/a	"fixation"	n/a	n/a	n/a	n/a	"NULL"	n/a	"NULL"	"NULL"	"NULL"	"<p style=\"color: black; font-size: 80px; padding-left: 41%; padding-right: 26%; padding-top: 48%; padding-bottom: 30%\">+</p>"	"1099"	n/a	n/a	n/a	n/a	n/a	n/a	n/a	n/a	n/a
n/a	"image-keyboard-response"	"120"	"12309412"	"0.0-5.0-2.0-1.33"	"5uffzu"	"563"	"1199"	"chrome"	"110.0.0"	"FALSE"	"Windows 10"	"60.86"	"033"	n/a	n/a	n/a	n/a	n/a	n/a	"Trial"	n/a	n/a	n/a	"590"	"arrowleft"	n/a	"NULL"	"NULL"	"NULL"	"stimuli/Ebbinghaus_-0.1000_0.28000.png"	n/a	"Ebbinghaus"	"arrowleft"	"1100"	"TRUE"	"Ebbinghaus"	"-0.100000000"	"0.2800000000"	"1"	"52"
n/a	"html-keyboard-response"	"121"	"12310665"	"0.0-5.0-2.0-0.34"	"5uffzu"	"563"	"1199"	"chrome"	"110.0.0"	"FALSE"	"Windows 10"	"60.86"	"033"	n/a	n/a	n/a	n/a	n/a	n/a	"fixation"	n/a	n/a	n/a	n/a	"NULL"	n/a	"NULL"	"NULL"	"NULL"	"<p style=\"color: black; font-size: 80px; padding-left: 26%; padding-right: 30%; padding-top: 18%; padding-bottom: 19%\">+</p>"	"1248"	n/a	n/a	n/a	n/a	n/a	n/a	n/a	n/a	n/a
n/a	"image-keyboard-response"	"122"	"12311436"	"0.0-5.0-2.0-1.34"	"5uffzu"	"563"	"1199"	"chrome"	"110.0.0"	"FALSE"	"Windows 10"	"60.86"	"033"	n/a	n/a	n/a	n/a	n/a	n/a	"Trial"	n/a	n/a	n/a	"771"	"arrowleft"	n/a	"NULL"	"NULL"	"NULL"	"stimuli/Ebbinghaus_0.10000_0.11071.png"	n/a	"Ebbinghaus"	"arrowleft"	"1253"	"TRUE"	"Ebbinghaus"	"0.1000000000"	"0.1107100000"	"1"	"53"
n/a	"html-keyboard-response"	"123"	"12312645"	"0.0-5.0-2.0-0.35"	"5uffzu"	"563"	"1199"	"chrome"	"110.0.0"	"FALSE"	"Windows 10"	"60.86"	"033"	n/a	n/a	n/a	n/a	n/a	n/a	"fixation"	n/a	n/a	n/a	n/a	"NULL"	n/a	"NULL"	"NULL"	"NULL"	"<p style=\"color: black; font-size: 80px; padding-left: 37%; padding-right: 7%; padding-top: 28%; padding-bottom: 49%\">+</p>"	"1198"	n/a	n/a	n/a	n/a	n/a	n/a	n/a	n/a	n/a
n/a	"image-keyboard-response"	"124"	"12313400"	"0.0-5.0-2.0-1.35"	"5uffzu"	"563"	"1199"	"chrome"	"110.0.0"	"FALSE"	"Windows 10"	"60.86"	"033"	n/a	n/a	n/a	n/a	n/a	n/a	"Trial"	n/a	n/a	n/a	"754"	"arrowleft"	n/a	"NULL"	"NULL"	"NULL"	"stimuli/Ebbinghaus_-0.1000_0.15857.png"	n/a	"Ebbinghaus"	"arrowleft"	"1209"	"TRUE"	"Ebbinghaus"	"-0.100000000"	"0.1585700000"	"1"	"54"
n/a	"html-keyboard-response"	"125"	"12314896"	"0.0-5.0-2.0-0.36"	"5uffzu"	"563"	"1199"	"chrome"	"110.0.0"	"FALSE"	"Windows 10"	"60.86"	"033"	n/a	n/a	n/a	n/a	n/a	n/a	"fixation"	n/a	n/a	n/a	n/a	"NULL"	n/a	"NULL"	"NULL"	"NULL"	"<p style=\"color: black; font-size: 80px; padding-left: 19%; padding-right: 37%; padding-top: 24%; padding-bottom: 1%\">+</p>"	"1495"	n/a	n/a	n/a	n/a	n/a	n/a	n/a	n/a	n/a
n/a	"image-keyboard-response"	"126"	"12315604"	"0.0-5.0-2.0-1.36"	"5uffzu"	"563"	"1199"	"chrome"	"110.0.0"	"FALSE"	"Windows 10"	"60.86"	"033"	n/a	n/a	n/a	n/a	n/a	n/a	"Trial"	n/a	n/a	n/a	"708"	"arrowright"	n/a	"NULL"	"NULL"	"NULL"	"stimuli/Ebbinghaus_-0.87143_-0.2150.png"	n/a	"Ebbinghaus"	"arrowright"	"1496"	"TRUE"	"Ebbinghaus"	"-0.871430000"	"-0.215000000"	"1"	"55"
n/a	"html-keyboard-response"	"127"	"12316773"	"0.0-5.0-2.0-0.37"	"5uffzu"	"563"	"1199"	"chrome"	"110.0.0"	"FALSE"	"Windows 10"	"60.86"	"033"	n/a	n/a	n/a	n/a	n/a	n/a	"fixation"	n/a	n/a	n/a	n/a	"NULL"	n/a	"NULL"	"NULL"	"NULL"	"<p style=\"color: black; font-size: 80px; padding-left: 28%; padding-right: 32%; padding-top: 43%; padding-bottom: 7%\">+</p>"	"1166"	n/a	n/a	n/a	n/a	n/a	n/a	n/a	n/a	n/a
n/a	"image-keyboard-response"	"128"	"12317499"	"0.0-5.0-2.0-1.37"	"5uffzu"	"563"	"1199"	"chrome"	"110.0.0"	"FALSE"	"Windows 10"	"60.86"	"033"	n/a	n/a	n/a	n/a	n/a	n/a	"Trial"	n/a	n/a	n/a	"724"	"arrowleft"	n/a	"NULL"	"NULL"	"NULL"	"stimuli/Ebbinghaus_-0.61429_0.15857.png"	n/a	"Ebbinghaus"	"arrowleft"	"1169"	"TRUE"	"Ebbinghaus"	"-0.614290000"	"0.1585700000"	"1"	"56"
n/a	"html-keyboard-response"	"129"	"12318879"	"0.0-5.0-2.0-0.38"	"5uffzu"	"563"	"1199"	"chrome"	"110.0.0"	"FALSE"	"Windows 10"	"60.86"	"033"	n/a	n/a	n/a	n/a	n/a	n/a	"fixation"	n/a	n/a	n/a	n/a	"NULL"	n/a	"NULL"	"NULL"	"NULL"	"<p style=\"color: black; font-size: 80px; padding-left: 9%; padding-right: 24%; padding-top: 4%; padding-bottom: 21%\">+</p>"	"1375"	n/a	n/a	n/a	n/a	n/a	n/a	n/a	n/a	n/a
n/a	"image-keyboard-response"	"130"	"12319831"	"0.0-5.0-2.0-1.38"	"5uffzu"	"563"	"1199"	"chrome"	"110.0.0"	"FALSE"	"Windows 10"	"60.86"	"033"	n/a	n/a	n/a	n/a	n/a	n/a	"Trial"	n/a	n/a	n/a	"951"	"arrowleft"	n/a	"NULL"	"NULL"	"NULL"	"stimuli/Ebbinghaus_0.87143_-0.2800.png"	n/a	"Ebbinghaus"	"arrowright"	"1380"	"FALSE"	"Ebbinghaus"	"0.8714300000"	"-0.280000000"	"1"	"57"
n/a	"html-keyboard-response"	"131"	"12320932"	"0.0-5.0-2.0-0.39"	"5uffzu"	"563"	"1199"	"chrome"	"110.0.0"	"FALSE"	"Windows 10"	"60.86"	"033"	n/a	n/a	n/a	n/a	n/a	n/a	"fixation"	n/a	n/a	n/a	n/a	"NULL"	n/a	"NULL"	"NULL"	"NULL"	"<p style=\"color: black; font-size: 80px; padding-left: 45%; padding-right: 5%; padding-top: 6%; padding-bottom: 35%\">+</p>"	"1088"	n/a	n/a	n/a	n/a	n/a	n/a	n/a	n/a	n/a
n/a	"image-keyboard-response"	"132"	"12322183"	"0.0-5.0-2.0-1.39"	"5uffzu"	"563"	"1199"	"chrome"	"110.0.0"	"FALSE"	"Windows 10"	"60.86"	"033"	n/a	n/a	n/a	n/a	n/a	n/a	"Trial"	n/a	n/a	n/a	"1251"	"arrowleft"	n/a	"NULL"	"NULL"	"NULL"	"stimuli/Ebbinghaus_0.35714_-0.2800.png"	n/a	"Ebbinghaus"	"arrowright"	"1101"	"FALSE"	"Ebbinghaus"	"0.3571400000"	"-0.280000000"	"1"	"58"
n/a	"html-keyboard-response"	"133"	"12323231"	"0.0-5.0-2.0-0.40"	"5uffzu"	"563"	"1199"	"chrome"	"110.0.0"	"FALSE"	"Windows 10"	"60.86"	"033"	n/a	n/a	n/a	n/a	n/a	n/a	"fixation"	n/a	n/a	n/a	n/a	"NULL"	n/a	"NULL"	"NULL"	"NULL"	"<p style=\"color: black; font-size: 80px; padding-left: 23%; padding-right: 2%; padding-top: 45%; padding-bottom: 44%\">+</p>"	"1042"	n/a	n/a	n/a	n/a	n/a	n/a	n/a	n/a	n/a
n/a	"image-keyboard-response"	"134"	"12325350"	"0.0-5.0-2.0-1.40"	"5uffzu"	"563"	"1199"	"chrome"	"110.0.0"	"FALSE"	"Windows 10"	"60.86"	"033"	n/a	n/a	n/a	n/a	n/a	n/a	"Trial"	n/a	n/a	n/a	"2118"	"arrowright"	n/a	"NULL"	"NULL"	"NULL"	"stimuli/Ebbinghaus_-0.1000_-0.11071.png"	n/a	"Ebbinghaus"	"arrowright"	"1048"	"TRUE"	"Ebbinghaus"	"-0.100000000"	"-0.110710000"	"1"	"59"
n/a	"html-keyboard-response"	"135"	"12326437"	"0.0-5.0-2.0-0.41"	"5uffzu"	"563"	"1199"	"chrome"	"110.0.0"	"FALSE"	"Windows 10"	"60.86"	"033"	n/a	n/a	n/a	n/a	n/a	n/a	"fixation"	n/a	n/a	n/a	n/a	"NULL"	n/a	"NULL"	"NULL"	"NULL"	"<p style=\"color: black; font-size: 80px; padding-left: 2%; padding-right: 1%; padding-top: 45%; padding-bottom: 7%\">+</p>"	"1072"	n/a	n/a	n/a	n/a	n/a	n/a	n/a	n/a	n/a
n/a	"image-keyboard-response"	"136"	"12327198"	"0.0-5.0-2.0-1.41"	"5uffzu"	"563"	"1199"	"chrome"	"110.0.0"	"FALSE"	"Windows 10"	"60.86"	"033"	n/a	n/a	n/a	n/a	n/a	n/a	"Trial"	n/a	n/a	n/a	"760"	"arrowright"	n/a	"NULL"	"NULL"	"NULL"	"stimuli/Ebbinghaus_-0.87143_-0.2800.png"	n/a	"Ebbinghaus"	"arrowright"	"1087"	"TRUE"	"Ebbinghaus"	"-0.871430000"	"-0.280000000"	"1"	"60"
n/a	"html-keyboard-response"	"137"	"12328621"	"0.0-5.0-2.0-0.42"	"5uffzu"	"563"	"1199"	"chrome"	"110.0.0"	"FALSE"	"Windows 10"	"60.86"	"033"	n/a	n/a	n/a	n/a	n/a	n/a	"fixation"	n/a	n/a	n/a	n/a	"NULL"	n/a	"NULL"	"NULL"	"NULL"	"<p style=\"color: black; font-size: 80px; padding-left: 33%; padding-right: 1%; padding-top: 34%; padding-bottom: 18%\">+</p>"	"1420"	n/a	n/a	n/a	n/a	n/a	n/a	n/a	n/a	n/a
n/a	"image-keyboard-response"	"138"	"12329405"	"0.0-5.0-2.0-1.42"	"5uffzu"	"563"	"1199"	"chrome"	"110.0.0"	"FALSE"	"Windows 10"	"60.86"	"033"	n/a	n/a	n/a	n/a	n/a	n/a	"Trial"	n/a	n/a	n/a	"783"	"arrowright"	n/a	"NULL"	"NULL"	"NULL"	"stimuli/Ebbinghaus_-0.35714_-0.15857.png"	n/a	"Ebbinghaus"	"arrowright"	"1423"	"TRUE"	"Ebbinghaus"	"-0.357140000"	"-0.158570000"	"1"	"61"
n/a	"html-keyboard-response"	"139"	"12330422"	"0.0-5.0-2.0-0.43"	"5uffzu"	"563"	"1199"	"chrome"	"110.0.0"	"FALSE"	"Windows 10"	"60.86"	"033"	n/a	n/a	n/a	n/a	n/a	n/a	"fixation"	n/a	n/a	n/a	n/a	"NULL"	n/a	"NULL"	"NULL"	"NULL"	"<p style=\"color: black; font-size: 80px; padding-left: 10%; padding-right: 12%; padding-top: 28%; padding-bottom: 32%\">+</p>"	"1006"	n/a	n/a	n/a	n/a	n/a	n/a	n/a	n/a	n/a
n/a	"image-keyboard-response"	"140"	"12331026"	"0.0-5.0-2.0-1.43"	"5uffzu"	"563"	"1199"	"chrome"	"110.0.0"	"FALSE"	"Windows 10"	"60.86"	"033"	n/a	n/a	n/a	n/a	n/a	n/a	"Trial"	n/a	n/a	n/a	"603"	"arrowright"	n/a	"NULL"	"NULL"	"NULL"	"stimuli/Ebbinghaus_-0.87143_-0.15857.png"	n/a	"Ebbinghaus"	"arrowright"	"1017"	"TRUE"	"Ebbinghaus"	"-0.871430000"	"-0.158570000"	"1"	"62"
n/a	"html-keyboard-response"	"141"	"12332066"	"0.0-5.0-2.0-0.44"	"5uffzu"	"563"	"1199"	"chrome"	"110.0.0"	"FALSE"	"Windows 10"	"60.86"	"033"	n/a	n/a	n/a	n/a	n/a	n/a	"fixation"	n/a	n/a	n/a	n/a	"NULL"	n/a	"NULL"	"NULL"	"NULL"	"<p style=\"color: black; font-size: 80px; padding-left: 27%; padding-right: 12%; padding-top: 32%; padding-bottom: 19%\">+</p>"	"1025"	n/a	n/a	n/a	n/a	n/a	n/a	n/a	n/a	n/a
n/a	"image-keyboard-response"	"142"	"12332939"	"0.0-5.0-2.0-1.44"	"5uffzu"	"563"	"1199"	"chrome"	"110.0.0"	"FALSE"	"Windows 10"	"60.86"	"033"	n/a	n/a	n/a	n/a	n/a	n/a	"Trial"	n/a	n/a	n/a	"871"	"arrowleft"	n/a	"NULL"	"NULL"	"NULL"	"stimuli/Ebbinghaus_-0.87143_0.11071.png"	n/a	"Ebbinghaus"	"arrowleft"	"1040"	"TRUE"	"Ebbinghaus"	"-0.871430000"	"0.1107100000"	"1"	"63"
n/a	"html-keyboard-response"	"143"	"12334402"	"0.0-5.0-2.0-0.45"	"5uffzu"	"563"	"1199"	"chrome"	"110.0.0"	"FALSE"	"Windows 10"	"60.86"	"033"	n/a	n/a	n/a	n/a	n/a	n/a	"fixation"	n/a	n/a	n/a	n/a	"NULL"	n/a	"NULL"	"NULL"	"NULL"	"<p style=\"color: black; font-size: 80px; padding-left: 39%; padding-right: 8%; padding-top: 12%; padding-bottom: 33%\">+</p>"	"1458"	n/a	n/a	n/a	n/a	n/a	n/a	n/a	n/a	n/a
n/a	"image-keyboard-response"	"144"	"12334992"	"0.0-5.0-2.0-1.45"	"5uffzu"	"563"	"1199"	"chrome"	"110.0.0"	"FALSE"	"Windows 10"	"60.86"	"033"	n/a	n/a	n/a	n/a	n/a	n/a	"Trial"	n/a	n/a	n/a	"589"	"arrowleft"	n/a	"NULL"	"NULL"	"NULL"	"stimuli/Ebbinghaus_0.87143_0.21500.png"	n/a	"Ebbinghaus"	"arrowleft"	"1463"	"TRUE"	"Ebbinghaus"	"0.8714300000"	"0.2150000000"	"1"	"64"
n/a	"html-keyboard-response"	"145"	"12336235"	"0.0-5.0-2.0-0.46"	"5uffzu"	"563"	"1199"	"chrome"	"110.0.0"	"FALSE"	"Windows 10"	"60.86"	"033"	n/a	n/a	n/a	n/a	n/a	n/a	"fixation"	n/a	n/a	n/a	n/a	"NULL"	n/a	"NULL"	"NULL"	"NULL"	"<p style=\"color: black; font-size: 80px; padding-left: 38%; padding-right: 28%; padding-top: 16%; padding-bottom: 29%\">+</p>"	"1228"	n/a	n/a	n/a	n/a	n/a	n/a	n/a	n/a	n/a
n/a	"image-keyboard-response"	"146"	"12337233"	"0.0-5.0-2.0-1.46"	"5uffzu"	"563"	"1199"	"chrome"	"110.0.0"	"FALSE"	"Windows 10"	"60.86"	"033"	n/a	n/a	n/a	n/a	n/a	n/a	"Trial"	n/a	n/a	n/a	"997"	"arrowright"	n/a	"NULL"	"NULL"	"NULL"	"stimuli/Ebbinghaus_0.87143_0.15857.png"	n/a	"Ebbinghaus"	"arrowleft"	"1243"	"FALSE"	"Ebbinghaus"	"0.8714300000"	"0.1585700000"	"1"	"65"
n/a	"html-keyboard-response"	"147"	"12338423"	"0.0-5.0-2.0-0.47"	"5uffzu"	"563"	"1199"	"chrome"	"110.0.0"	"FALSE"	"Windows 10"	"60.86"	"033"	n/a	n/a	n/a	n/a	n/a	n/a	"fixation"	n/a	n/a	n/a	n/a	"NULL"	n/a	"NULL"	"NULL"	"NULL"	"<p style=\"color: black; font-size: 80px; padding-left: 44%; padding-right: 33%; padding-top: 25%; padding-bottom: 26%\">+</p>"	"1183"	n/a	n/a	n/a	n/a	n/a	n/a	n/a	n/a	n/a
n/a	"image-keyboard-response"	"148"	"12343801"	"0.0-5.0-2.0-1.47"	"5uffzu"	"563"	"1199"	"chrome"	"110.0.0"	"FALSE"	"Windows 10"	"60.86"	"033"	n/a	n/a	n/a	n/a	n/a	n/a	"Trial"	n/a	n/a	n/a	"5371"	"arrowleft"	n/a	"NULL"	"NULL"	"NULL"	"stimuli/Ebbinghaus_0.35714_-0.11071.png"	n/a	"Ebbinghaus"	"arrowright"	"1190"	"FALSE"	"Ebbinghaus"	"0.3571400000"	"-0.110710000"	"1"	"66"
n/a	"html-keyboard-response"	"149"	"12344936"	"0.0-5.0-2.0-0.48"	"5uffzu"	"563"	"1199"	"chrome"	"110.0.0"	"FALSE"	"Windows 10"	"60.86"	"033"	n/a	n/a	n/a	n/a	n/a	n/a	"fixation"	n/a	n/a	n/a	n/a	"NULL"	n/a	"NULL"	"NULL"	"NULL"	"<p style=\"color: black; font-size: 80px; padding-left: 45%; padding-right: 43%; padding-top: 18%; padding-bottom: 33%\">+</p>"	"1126"	n/a	n/a	n/a	n/a	n/a	n/a	n/a	n/a	n/a
n/a	"image-keyboard-response"	"150"	"12346746"	"0.0-5.0-2.0-1.48"	"5uffzu"	"563"	"1199"	"chrome"	"110.0.0"	"FALSE"	"Windows 10"	"60.86"	"033"	n/a	n/a	n/a	n/a	n/a	n/a	"Trial"	n/a	n/a	n/a	"1810"	"arrowleft"	n/a	"NULL"	"NULL"	"NULL"	"stimuli/Ebbinghaus_0.10000_0.28000.png"	n/a	"Ebbinghaus"	"arrowleft"	"1135"	"TRUE"	"Ebbinghaus"	"0.1000000000"	"0.2800000000"	"1"	"67"
n/a	"html-keyboard-response"	"151"	"12348238"	"0.0-5.0-2.0-0.49"	"5uffzu"	"563"	"1199"	"chrome"	"110.0.0"	"FALSE"	"Windows 10"	"60.86"	"033"	n/a	n/a	n/a	n/a	n/a	n/a	"fixation"	n/a	n/a	n/a	n/a	"NULL"	n/a	"NULL"	"NULL"	"NULL"	"<p style=\"color: black; font-size: 80px; padding-left: 46%; padding-right: 16%; padding-top: 15%; padding-bottom: 29%\">+</p>"	"1489"	n/a	n/a	n/a	n/a	n/a	n/a	n/a	n/a	n/a
n/a	"image-keyboard-response"	"152"	"12350067"	"0.0-5.0-2.0-1.49"	"5uffzu"	"563"	"1199"	"chrome"	"110.0.0"	"FALSE"	"Windows 10"	"60.86"	"033"	n/a	n/a	n/a	n/a	n/a	n/a	"Trial"	n/a	n/a	n/a	"1828"	"arrowleft"	n/a	"NULL"	"NULL"	"NULL"	"stimuli/Ebbinghaus_0.61429_-0.15857.png"	n/a	"Ebbinghaus"	"arrowright"	"1492"	"FALSE"	"Ebbinghaus"	"0.6142900000"	"-0.158570000"	"1"	"68"
n/a	"html-keyboard-response"	"153"	"12351152"	"0.0-5.0-2.0-0.50"	"5uffzu"	"563"	"1199"	"chrome"	"110.0.0"	"FALSE"	"Windows 10"	"60.86"	"033"	n/a	n/a	n/a	n/a	n/a	n/a	"fixation"	n/a	n/a	n/a	n/a	"NULL"	n/a	"NULL"	"NULL"	"NULL"	"<p style=\"color: black; font-size: 80px; padding-left: 32%; padding-right: 29%; padding-top: 5%; padding-bottom: 6%\">+</p>"	"1070"	n/a	n/a	n/a	n/a	n/a	n/a	n/a	n/a	n/a
n/a	"image-keyboard-response"	"154"	"12351879"	"0.0-5.0-2.0-1.50"	"5uffzu"	"563"	"1199"	"chrome"	"110.0.0"	"FALSE"	"Windows 10"	"60.86"	"033"	n/a	n/a	n/a	n/a	n/a	n/a	"Trial"	n/a	n/a	n/a	"726"	"arrowright"	n/a	"NULL"	"NULL"	"NULL"	"stimuli/Ebbinghaus_-0.1000_-0.2150.png"	n/a	"Ebbinghaus"	"arrowright"	"1085"	"TRUE"	"Ebbinghaus"	"-0.100000000"	"-0.215000000"	"1"	"69"
n/a	"html-keyboard-response"	"155"	"12352977"	"0.0-5.0-2.0-0.51"	"5uffzu"	"563"	"1199"	"chrome"	"110.0.0"	"FALSE"	"Windows 10"	"60.86"	"033"	n/a	n/a	n/a	n/a	n/a	n/a	"fixation"	n/a	n/a	n/a	n/a	"NULL"	n/a	"NULL"	"NULL"	"NULL"	"<p style=\"color: black; font-size: 80px; padding-left: 34%; padding-right: 11%; padding-top: 9%; padding-bottom: 24%\">+</p>"	"1095"	n/a	n/a	n/a	n/a	n/a	n/a	n/a	n/a	n/a
n/a	"image-keyboard-response"	"156"	"12353711"	"0.0-5.0-2.0-1.51"	"5uffzu"	"563"	"1199"	"chrome"	"110.0.0"	"FALSE"	"Windows 10"	"60.86"	"033"	n/a	n/a	n/a	n/a	n/a	n/a	"Trial"	n/a	n/a	n/a	"733"	"arrowright"	n/a	"NULL"	"NULL"	"NULL"	"stimuli/Ebbinghaus_-0.61429_-0.2800.png"	n/a	"Ebbinghaus"	"arrowright"	"1098"	"TRUE"	"Ebbinghaus"	"-0.614290000"	"-0.280000000"	"1"	"70"
n/a	"html-keyboard-response"	"157"	"12355113"	"0.0-5.0-2.0-0.52"	"5uffzu"	"563"	"1199"	"chrome"	"110.0.0"	"FALSE"	"Windows 10"	"60.86"	"033"	n/a	n/a	n/a	n/a	n/a	n/a	"fixation"	n/a	n/a	n/a	n/a	"NULL"	n/a	"NULL"	"NULL"	"NULL"	"<p style=\"color: black; font-size: 80px; padding-left: 18%; padding-right: 46%; padding-top: 18%; padding-bottom: 39%\">+</p>"	"1392"	n/a	n/a	n/a	n/a	n/a	n/a	n/a	n/a	n/a
n/a	"image-keyboard-response"	"158"	"12356002"	"0.0-5.0-2.0-1.52"	"5uffzu"	"563"	"1199"	"chrome"	"110.0.0"	"FALSE"	"Windows 10"	"60.86"	"033"	n/a	n/a	n/a	n/a	n/a	n/a	"Trial"	n/a	n/a	n/a	"888"	"arrowleft"	n/a	"NULL"	"NULL"	"NULL"	"stimuli/Ebbinghaus_0.61429_-0.11071.png"	n/a	"Ebbinghaus"	"arrowright"	"1402"	"FALSE"	"Ebbinghaus"	"0.6142900000"	"-0.110710000"	"1"	"71"
n/a	"html-keyboard-response"	"159"	"12357373"	"0.0-5.0-2.0-0.53"	"5uffzu"	"563"	"1199"	"chrome"	"110.0.0"	"FALSE"	"Windows 10"	"60.86"	"033"	n/a	n/a	n/a	n/a	n/a	n/a	"fixation"	n/a	n/a	n/a	n/a	"NULL"	n/a	"NULL"	"NULL"	"NULL"	"<p style=\"color: black; font-size: 80px; padding-left: 14%; padding-right: 24%; padding-top: 32%; padding-bottom: 25%\">+</p>"	"1362"	n/a	n/a	n/a	n/a	n/a	n/a	n/a	n/a	n/a
n/a	"image-keyboard-response"	"160"	"12358034"	"0.0-5.0-2.0-1.53"	"5uffzu"	"563"	"1199"	"chrome"	"110.0.0"	"FALSE"	"Windows 10"	"60.86"	"033"	n/a	n/a	n/a	n/a	n/a	n/a	"Trial"	n/a	n/a	n/a	"660"	"arrowleft"	n/a	"NULL"	"NULL"	"NULL"	"stimuli/Ebbinghaus_-0.35714_0.28000.png"	n/a	"Ebbinghaus"	"arrowleft"	"1371"	"TRUE"	"Ebbinghaus"	"-0.357140000"	"0.2800000000"	"1"	"72"
n/a	"html-keyboard-response"	"161"	"12359232"	"0.0-5.0-2.0-0.54"	"5uffzu"	"563"	"1199"	"chrome"	"110.0.0"	"FALSE"	"Windows 10"	"60.86"	"033"	n/a	n/a	n/a	n/a	n/a	n/a	"fixation"	n/a	n/a	n/a	n/a	"NULL"	n/a	"NULL"	"NULL"	"NULL"	"<p style=\"color: black; font-size: 80px; padding-left: 11%; padding-right: 41%; padding-top: 44%; padding-bottom: 43%\">+</p>"	"1182"	n/a	n/a	n/a	n/a	n/a	n/a	n/a	n/a	n/a
n/a	"image-keyboard-response"	"162"	"12359857"	"0.0-5.0-2.0-1.54"	"5uffzu"	"563"	"1199"	"chrome"	"110.0.0"	"FALSE"	"Windows 10"	"60.86"	"033"	n/a	n/a	n/a	n/a	n/a	n/a	"Trial"	n/a	n/a	n/a	"625"	"arrowright"	n/a	"NULL"	"NULL"	"NULL"	"stimuli/Ebbinghaus_-0.35714_-0.2800.png"	n/a	"Ebbinghaus"	"arrowright"	"1198"	"TRUE"	"Ebbinghaus"	"-0.357140000"	"-0.280000000"	"1"	"73"
n/a	"html-keyboard-response"	"163"	"12361353"	"0.0-5.0-2.0-0.55"	"5uffzu"	"563"	"1199"	"chrome"	"110.0.0"	"FALSE"	"Windows 10"	"60.86"	"033"	n/a	n/a	n/a	n/a	n/a	n/a	"fixation"	n/a	n/a	n/a	n/a	"NULL"	n/a	"NULL"	"NULL"	"NULL"	"<p style=\"color: black; font-size: 80px; padding-left: 45%; padding-right: 10%; padding-top: 46%; padding-bottom: 33%\">+</p>"	"1494"	n/a	n/a	n/a	n/a	n/a	n/a	n/a	n/a	n/a
n/a	"image-keyboard-response"	"164"	"12362059"	"0.0-5.0-2.0-1.55"	"5uffzu"	"563"	"1199"	"chrome"	"110.0.0"	"FALSE"	"Windows 10"	"60.86"	"033"	n/a	n/a	n/a	n/a	n/a	n/a	"Trial"	n/a	n/a	n/a	"706"	"arrowleft"	n/a	"NULL"	"NULL"	"NULL"	"stimuli/Ebbinghaus_-0.35714_0.15857.png"	n/a	"Ebbinghaus"	"arrowleft"	"1496"	"TRUE"	"Ebbinghaus"	"-0.357140000"	"0.1585700000"	"1"	"74"
n/a	"html-keyboard-response"	"165"	"12363474"	"0.0-5.0-2.0-0.56"	"5uffzu"	"563"	"1199"	"chrome"	"110.0.0"	"FALSE"	"Windows 10"	"60.86"	"033"	n/a	n/a	n/a	n/a	n/a	n/a	"fixation"	n/a	n/a	n/a	n/a	"NULL"	n/a	"NULL"	"NULL"	"NULL"	"<p style=\"color: black; font-size: 80px; padding-left: 37%; padding-right: 44%; padding-top: 44%; padding-bottom: 39%\">+</p>"	"1412"	n/a	n/a	n/a	n/a	n/a	n/a	n/a	n/a	n/a
n/a	"image-keyboard-response"	"166"	"12364063"	"0.0-5.0-2.0-1.56"	"5uffzu"	"563"	"1199"	"chrome"	"110.0.0"	"FALSE"	"Windows 10"	"60.86"	"033"	n/a	n/a	n/a	n/a	n/a	n/a	"Trial"	n/a	n/a	n/a	"589"	"arrowleft"	n/a	"NULL"	"NULL"	"NULL"	"stimuli/Ebbinghaus_-0.87143_0.28000.png"	n/a	"Ebbinghaus"	"arrowleft"	"1415"	"TRUE"	"Ebbinghaus"	"-0.871430000"	"0.2800000000"	"1"	"75"
n/a	"html-keyboard-response"	"167"	"12365461"	"0.0-5.0-2.0-0.57"	"5uffzu"	"563"	"1199"	"chrome"	"110.0.0"	"FALSE"	"Windows 10"	"60.86"	"033"	n/a	n/a	n/a	n/a	n/a	n/a	"fixation"	n/a	n/a	n/a	n/a	"NULL"	n/a	"NULL"	"NULL"	"NULL"	"<p style=\"color: black; font-size: 80px; padding-left: 17%; padding-right: 41%; padding-top: 1%; padding-bottom: 23%\">+</p>"	"1390"	n/a	n/a	n/a	n/a	n/a	n/a	n/a	n/a	n/a
n/a	"image-keyboard-response"	"168"	"12366202"	"0.0-5.0-2.0-1.57"	"5uffzu"	"563"	"1199"	"chrome"	"110.0.0"	"FALSE"	"Windows 10"	"60.86"	"033"	n/a	n/a	n/a	n/a	n/a	n/a	"Trial"	n/a	n/a	n/a	"741"	"arrowright"	n/a	"NULL"	"NULL"	"NULL"	"stimuli/Ebbinghaus_0.10000_-0.2150.png"	n/a	"Ebbinghaus"	"arrowright"	"1398"	"TRUE"	"Ebbinghaus"	"0.1000000000"	"-0.215000000"	"1"	"76"
n/a	"html-keyboard-response"	"169"	"12367405"	"0.0-5.0-2.0-0.58"	"5uffzu"	"563"	"1199"	"chrome"	"110.0.0"	"FALSE"	"Windows 10"	"60.86"	"033"	n/a	n/a	n/a	n/a	n/a	n/a	"fixation"	n/a	n/a	n/a	n/a	"NULL"	n/a	"NULL"	"NULL"	"NULL"	"<p style=\"color: black; font-size: 80px; padding-left: 24%; padding-right: 39%; padding-top: 11%; padding-bottom: 15%\">+</p>"	"1190"	n/a	n/a	n/a	n/a	n/a	n/a	n/a	n/a	n/a
n/a	"image-keyboard-response"	"170"	"12368111"	"0.0-5.0-2.0-1.58"	"5uffzu"	"563"	"1199"	"chrome"	"110.0.0"	"FALSE"	"Windows 10"	"60.86"	"033"	n/a	n/a	n/a	n/a	n/a	n/a	"Trial"	n/a	n/a	n/a	"705"	"arrowleft"	n/a	"NULL"	"NULL"	"NULL"	"stimuli/Ebbinghaus_-0.61429_0.28000.png"	n/a	"Ebbinghaus"	"arrowleft"	"1203"	"TRUE"	"Ebbinghaus"	"-0.614290000"	"0.2800000000"	"1"	"77"
n/a	"html-keyboard-response"	"171"	"12369506"	"0.0-5.0-2.0-0.59"	"5uffzu"	"563"	"1199"	"chrome"	"110.0.0"	"FALSE"	"Windows 10"	"60.86"	"033"	n/a	n/a	n/a	n/a	n/a	n/a	"fixation"	n/a	n/a	n/a	n/a	"NULL"	n/a	"NULL"	"NULL"	"NULL"	"<p style=\"color: black; font-size: 80px; padding-left: 2%; padding-right: 23%; padding-top: 25%; padding-bottom: 48%\">+</p>"	"1384"	n/a	n/a	n/a	n/a	n/a	n/a	n/a	n/a	n/a
n/a	"image-keyboard-response"	"172"	"12371540"	"0.0-5.0-2.0-1.59"	"5uffzu"	"563"	"1199"	"chrome"	"110.0.0"	"FALSE"	"Windows 10"	"60.86"	"033"	n/a	n/a	n/a	n/a	n/a	n/a	"Trial"	n/a	n/a	n/a	"2033"	"arrowright"	n/a	"NULL"	"NULL"	"NULL"	"stimuli/Ebbinghaus_0.61429_0.21500.png"	n/a	"Ebbinghaus"	"arrowleft"	"1395"	"FALSE"	"Ebbinghaus"	"0.6142900000"	"0.2150000000"	"1"	"78"
n/a	"html-keyboard-response"	"173"	"12372661"	"0.0-5.0-2.0-0.60"	"5uffzu"	"563"	"1199"	"chrome"	"110.0.0"	"FALSE"	"Windows 10"	"60.86"	"033"	n/a	n/a	n/a	n/a	n/a	n/a	"fixation"	n/a	n/a	n/a	n/a	"NULL"	n/a	"NULL"	"NULL"	"NULL"	"<p style=\"color: black; font-size: 80px; padding-left: 2%; padding-right: 5%; padding-top: 29%; padding-bottom: 23%\">+</p>"	"1118"	n/a	n/a	n/a	n/a	n/a	n/a	n/a	n/a	n/a
n/a	"image-keyboard-response"	"174"	"12374419"	"0.0-5.0-2.0-1.60"	"5uffzu"	"563"	"1199"	"chrome"	"110.0.0"	"FALSE"	"Windows 10"	"60.86"	"033"	n/a	n/a	n/a	n/a	n/a	n/a	"Trial"	n/a	n/a	n/a	"1757"	"arrowleft"	n/a	"NULL"	"NULL"	"NULL"	"stimuli/Ebbinghaus_0.87143_-0.11071.png"	n/a	"Ebbinghaus"	"arrowright"	"1121"	"FALSE"	"Ebbinghaus"	"0.8714300000"	"-0.110710000"	"1"	"79"
n/a	"html-keyboard-response"	"175"	"12375503"	"0.0-5.0-2.0-0.61"	"5uffzu"	"563"	"1199"	"chrome"	"110.0.0"	"FALSE"	"Windows 10"	"60.86"	"033"	n/a	n/a	n/a	n/a	n/a	n/a	"fixation"	n/a	n/a	n/a	n/a	"NULL"	n/a	"NULL"	"NULL"	"NULL"	"<p style=\"color: black; font-size: 80px; padding-left: 2%; padding-right: 9%; padding-top: 44%; padding-bottom: 35%\">+</p>"	"1077"	n/a	n/a	n/a	n/a	n/a	n/a	n/a	n/a	n/a
n/a	"image-keyboard-response"	"176"	"12376430"	"0.0-5.0-2.0-1.61"	"5uffzu"	"563"	"1199"	"chrome"	"110.0.0"	"FALSE"	"Windows 10"	"60.86"	"033"	n/a	n/a	n/a	n/a	n/a	n/a	"Trial"	n/a	n/a	n/a	"927"	"arrowleft"	n/a	"NULL"	"NULL"	"NULL"	"stimuli/Ebbinghaus_-0.35714_0.21500.png"	n/a	"Ebbinghaus"	"arrowleft"	"1084"	"TRUE"	"Ebbinghaus"	"-0.357140000"	"0.2150000000"	"1"	"80"
n/a	"html-keyboard-response"	"177"	"12377684"	"0.0-5.0-2.0-0.62"	"5uffzu"	"563"	"1199"	"chrome"	"110.0.0"	"FALSE"	"Windows 10"	"60.86"	"033"	n/a	n/a	n/a	n/a	n/a	n/a	"fixation"	n/a	n/a	n/a	n/a	"NULL"	n/a	"NULL"	"NULL"	"NULL"	"<p style=\"color: black; font-size: 80px; padding-left: 5%; padding-right: 33%; padding-top: 49%; padding-bottom: 3%\">+</p>"	"1253"	n/a	n/a	n/a	n/a	n/a	n/a	n/a	n/a	n/a
n/a	"image-keyboard-response"	"178"	"12378535"	"0.0-5.0-2.0-1.62"	"5uffzu"	"563"	"1199"	"chrome"	"110.0.0"	"FALSE"	"Windows 10"	"60.86"	"033"	n/a	n/a	n/a	n/a	n/a	n/a	"Trial"	n/a	n/a	n/a	"850"	"arrowright"	n/a	"NULL"	"NULL"	"NULL"	"stimuli/Ebbinghaus_-0.35714_-0.2150.png"	n/a	"Ebbinghaus"	"arrowright"	"1254"	"TRUE"	"Ebbinghaus"	"-0.357140000"	"-0.215000000"	"1"	"81"
n/a	"html-keyboard-response"	"179"	"12379687"	"0.0-5.0-2.0-0.63"	"5uffzu"	"563"	"1199"	"chrome"	"110.0.0"	"FALSE"	"Windows 10"	"60.86"	"033"	n/a	n/a	n/a	n/a	n/a	n/a	"fixation"	n/a	n/a	n/a	n/a	"NULL"	n/a	"NULL"	"NULL"	"NULL"	"<p style=\"color: black; font-size: 80px; padding-left: 32%; padding-right: 17%; padding-top: 17%; padding-bottom: 21%\">+</p>"	"1146"	n/a	n/a	n/a	n/a	n/a	n/a	n/a	n/a	n/a
n/a	"image-keyboard-response"	"180"	"12380344"	"0.0-5.0-2.0-1.63"	"5uffzu"	"563"	"1199"	"chrome"	"110.0.0"	"FALSE"	"Windows 10"	"60.86"	"033"	n/a	n/a	n/a	n/a	n/a	n/a	"Trial"	n/a	n/a	n/a	"656"	"arrowright"	n/a	"NULL"	"NULL"	"NULL"	"stimuli/Ebbinghaus_-0.61429_-0.11071.png"	n/a	"Ebbinghaus"	"arrowright"	"1152"	"TRUE"	"Ebbinghaus"	"-0.614290000"	"-0.110710000"	"1"	"82"
n/a	"html-button-response"	"181"	"12396750"	"0.0-5.0-3.0"	"5uffzu"	"563"	"1199"	"chrome"	"110.0.0"	"FALSE"	"Windows 10"	"60.86"	"033"	n/a	n/a	n/a	n/a	n/a	n/a	"block_results"	n/a	n/a	n/a	"16405"	"0"	n/a	"NULL"	"NULL"	"NULL"	"<p>Your score for this illusion is <p style=\"color: black; font-size: 48px; font-weight: bold;\">64.4 %</p><hr><p>Can you do better in the next illusion?</p>"	n/a	n/a	n/a	n/a	n/a	n/a	n/a	n/a	n/a	n/a
"TRUE"	"preload"	"182"	"12397180"	"0.0-6.0-0.0"	"5uffzu"	"563"	"1199"	"chrome"	"110.0.0"	"FALSE"	"Windows 10"	"60.86"	"033"	n/a	n/a	n/a	n/a	n/a	n/a	n/a	n/a	n/a	n/a	n/a	"NULL"	"FALSE"	"list()"	"list()"	"list()"	n/a	n/a	n/a	n/a	n/a	n/a	n/a	n/a	n/a	n/a	n/a
n/a	"html-keyboard-response"	"183"	"12404406"	"0.0-6.0-1.0"	"5uffzu"	"563"	"1199"	"chrome"	"110.0.0"	"FALSE"	"Windows 10"	"60.86"	"033"	n/a	n/a	n/a	n/a	n/a	n/a	n/a	n/a	n/a	n/a	"7219"	"enter"	n/a	"NULL"	"NULL"	"NULL"	"<p><b>Part 2/6</b></p><p>In this part, two red lines will appear side by side.</p><p>Your task is to tell <b>which line is longer</b> in length, regardless of their orientation, as fast as you can, and without making errors.</p><p>Don't get distracted by the orientation of the lines!</p><p>Press <b>the LEFT or the RIGHT arrow</b> to indicate which <b>line is the longer one.</b></p><div style='float: center'><img src='materials/instructions/VerticalHorizontal_Demo.png' height='300'></img><p><img src='utils/answer/answer_leftright_keyboard.PNG' height='150'></img></p><p class='small'>In this example, the correct answer is the <b>LEFT arrow</b>.</p></div><p>Are you ready? <b>Press ENTER to start</b></p>"	n/a	n/a	n/a	n/a	n/a	n/a	n/a	n/a	n/a	n/a
n/a	"html-keyboard-response"	"184"	"12406275"	"0.0-6.0-2.0-0.0"	"5uffzu"	"563"	"1199"	"chrome"	"110.0.0"	"FALSE"	"Windows 10"	"60.86"	"033"	n/a	n/a	n/a	n/a	n/a	n/a	"fixation"	n/a	n/a	n/a	n/a	"NULL"	n/a	"NULL"	"NULL"	"NULL"	"<p style=\"color: black; font-size: 80px; padding-left: 5%; padding-right: 47%; padding-top: 1%; padding-bottom: 20%\">+</p>"	"1367"	n/a	n/a	n/a	n/a	n/a	n/a	n/a	n/a	n/a
n/a	"image-keyboard-response"	"185"	"12407058"	"0.0-6.0-2.0-1.0"	"5uffzu"	"563"	"1199"	"chrome"	"110.0.0"	"FALSE"	"Windows 10"	"60.86"	"033"	n/a	n/a	n/a	n/a	n/a	n/a	"Trial"	n/a	n/a	n/a	"782"	"arrowright"	n/a	"NULL"	"NULL"	"NULL"	"stimuli/VerticalHorizontal_-11.78571_-0.1096.png"	n/a	"VerticalHorizontal"	"arrowright"	"1869"	"TRUE"	"VerticalHorizontal"	"-11.78571000"	"-0.109600000"	"2"	"1"
n/a	"html-keyboard-response"	"186"	"12408555"	"0.0-6.0-2.0-0.1"	"5uffzu"	"563"	"1199"	"chrome"	"110.0.0"	"FALSE"	"Windows 10"	"60.86"	"033"	n/a	n/a	n/a	n/a	n/a	n/a	"fixation"	n/a	n/a	n/a	n/a	"NULL"	n/a	"NULL"	"NULL"	"NULL"	"<p style=\"color: black; font-size: 80px; padding-left: 17%; padding-right: 7%; padding-top: 49%; padding-bottom: 14%\">+</p>"	"1495"	n/a	n/a	n/a	n/a	n/a	n/a	n/a	n/a	n/a
n/a	"image-keyboard-response"	"187"	"12409110"	"0.0-6.0-2.0-1.1"	"5uffzu"	"563"	"1199"	"chrome"	"110.0.0"	"FALSE"	"Windows 10"	"60.86"	"033"	n/a	n/a	n/a	n/a	n/a	n/a	"Trial"	n/a	n/a	n/a	"554"	"arrowleft"	n/a	"NULL"	"NULL"	"NULL"	"stimuli/VerticalHorizontal_-28.75714_0.10960.png"	n/a	"VerticalHorizontal"	"arrowleft"	"1497"	"TRUE"	"VerticalHorizontal"	"-28.75714000"	"0.1096000000"	"2"	"2"
n/a	"html-keyboard-response"	"188"	"12410214"	"0.0-6.0-2.0-0.2"	"5uffzu"	"563"	"1199"	"chrome"	"110.0.0"	"FALSE"	"Windows 10"	"60.86"	"033"	n/a	n/a	n/a	n/a	n/a	n/a	"fixation"	n/a	n/a	n/a	n/a	"NULL"	n/a	"NULL"	"NULL"	"NULL"	"<p style=\"color: black; font-size: 80px; padding-left: 35%; padding-right: 13%; padding-top: 39%; padding-bottom: 16%\">+</p>"	"1088"	n/a	n/a	n/a	n/a	n/a	n/a	n/a	n/a	n/a
n/a	"image-keyboard-response"	"189"	"12411517"	"0.0-6.0-2.0-1.2"	"5uffzu"	"563"	"1199"	"chrome"	"110.0.0"	"FALSE"	"Windows 10"	"60.86"	"033"	n/a	n/a	n/a	n/a	n/a	n/a	"Trial"	n/a	n/a	n/a	"1302"	"arrowleft"	n/a	"NULL"	"NULL"	"NULL"	"stimuli/VerticalHorizontal_20.27143_-0.0673.png"	n/a	"VerticalHorizontal"	"arrowright"	"1104"	"FALSE"	"VerticalHorizontal"	"20.271430000"	"-0.067300000"	"2"	"3"
n/a	"html-keyboard-response"	"190"	"12412921"	"0.0-6.0-2.0-0.3"	"5uffzu"	"563"	"1199"	"chrome"	"110.0.0"	"FALSE"	"Windows 10"	"60.86"	"033"	n/a	n/a	n/a	n/a	n/a	n/a	"fixation"	n/a	n/a	n/a	n/a	"NULL"	n/a	"NULL"	"NULL"	"NULL"	"<p style=\"color: black; font-size: 80px; padding-left: 43%; padding-right: 40%; padding-top: 10%; padding-bottom: 26%\">+</p>"	"1400"	n/a	n/a	n/a	n/a	n/a	n/a	n/a	n/a	n/a
n/a	"image-keyboard-response"	"191"	"12414675"	"0.0-6.0-2.0-1.3"	"5uffzu"	"563"	"1199"	"chrome"	"110.0.0"	"FALSE"	"Windows 10"	"60.86"	"033"	n/a	n/a	n/a	n/a	n/a	n/a	"Trial"	n/a	n/a	n/a	"1754"	"arrowleft"	n/a	"NULL"	"NULL"	"NULL"	"stimuli/VerticalHorizontal_-28.75714_0.06730.png"	n/a	"VerticalHorizontal"	"arrowleft"	"1404"	"TRUE"	"VerticalHorizontal"	"-28.75714000"	"0.0673000000"	"2"	"4"
n/a	"html-keyboard-response"	"192"	"12416019"	"0.0-6.0-2.0-0.4"	"5uffzu"	"563"	"1199"	"chrome"	"110.0.0"	"FALSE"	"Windows 10"	"60.86"	"033"	n/a	n/a	n/a	n/a	n/a	n/a	"fixation"	n/a	n/a	n/a	n/a	"NULL"	n/a	"NULL"	"NULL"	"NULL"	"<p style=\"color: black; font-size: 80px; padding-left: 38%; padding-right: 46%; padding-top: 41%; padding-bottom: 29%\">+</p>"	"1336"	n/a	n/a	n/a	n/a	n/a	n/a	n/a	n/a	n/a
n/a	"image-keyboard-response"	"193"	"12417148"	"0.0-6.0-2.0-1.4"	"5uffzu"	"563"	"1199"	"chrome"	"110.0.0"	"FALSE"	"Windows 10"	"60.86"	"033"	n/a	n/a	n/a	n/a	n/a	n/a	"Trial"	n/a	n/a	n/a	"1128"	"arrowleft"	n/a	"NULL"	"NULL"	"NULL"	"stimuli/VerticalHorizontal_28.75714_0.22500.png"	n/a	"VerticalHorizontal"	"arrowleft"	"1344"	"TRUE"	"VerticalHorizontal"	"28.757140000"	"0.2250000000"	"2"	"5"
n/a	"html-keyboard-response"	"194"	"12418512"	"0.0-6.0-2.0-0.5"	"5uffzu"	"563"	"1199"	"chrome"	"110.0.0"	"FALSE"	"Windows 10"	"60.86"	"033"	n/a	n/a	n/a	n/a	n/a	n/a	"fixation"	n/a	n/a	n/a	n/a	"NULL"	n/a	"NULL"	"NULL"	"NULL"	"<p style=\"color: black; font-size: 80px; padding-left: 6%; padding-right: 37%; padding-top: 11%; padding-bottom: 18%\">+</p>"	"1350"	n/a	n/a	n/a	n/a	n/a	n/a	n/a	n/a	n/a
n/a	"image-keyboard-response"	"195"	"12419351"	"0.0-6.0-2.0-1.5"	"5uffzu"	"563"	"1199"	"chrome"	"110.0.0"	"FALSE"	"Windows 10"	"60.86"	"033"	n/a	n/a	n/a	n/a	n/a	n/a	"Trial"	n/a	n/a	n/a	"838"	"arrowleft"	n/a	"NULL"	"NULL"	"NULL"	"stimuli/VerticalHorizontal_-11.78571_0.10960.png"	n/a	"VerticalHorizontal"	"arrowleft"	"1364"	"TRUE"	"VerticalHorizontal"	"-11.78571000"	"0.1096000000"	"2"	"6"
n/a	"html-keyboard-response"	"196"	"12420804"	"0.0-6.0-2.0-0.6"	"5uffzu"	"563"	"1199"	"chrome"	"110.0.0"	"FALSE"	"Windows 10"	"60.86"	"033"	n/a	n/a	n/a	n/a	n/a	n/a	"fixation"	n/a	n/a	n/a	n/a	"NULL"	n/a	"NULL"	"NULL"	"NULL"	"<p style=\"color: black; font-size: 80px; padding-left: 1%; padding-right: 10%; padding-top: 7%; padding-bottom: 5%\">+</p>"	"1442"	n/a	n/a	n/a	n/a	n/a	n/a	n/a	n/a	n/a
n/a	"image-keyboard-response"	"197"	"12421750"	"0.0-6.0-2.0-1.6"	"5uffzu"	"563"	"1199"	"chrome"	"110.0.0"	"FALSE"	"Windows 10"	"60.86"	"033"	n/a	n/a	n/a	n/a	n/a	n/a	"Trial"	n/a	n/a	n/a	"945"	"arrowright"	n/a	"NULL"	"NULL"	"NULL"	"stimuli/VerticalHorizontal_-3.3000_-0.16217.png"	n/a	"VerticalHorizontal"	"arrowright"	"1453"	"TRUE"	"VerticalHorizontal"	"-3.300000000"	"-0.162170000"	"2"	"7"
n/a	"html-keyboard-response"	"198"	"12422856"	"0.0-6.0-2.0-0.7"	"5uffzu"	"563"	"1199"	"chrome"	"110.0.0"	"FALSE"	"Windows 10"	"60.86"	"033"	n/a	n/a	n/a	n/a	n/a	n/a	"fixation"	n/a	n/a	n/a	n/a	"NULL"	n/a	"NULL"	"NULL"	"NULL"	"<p style=\"color: black; font-size: 80px; padding-left: 0%; padding-right: 15%; padding-top: 48%; padding-bottom: 39%\">+</p>"	"1101"	n/a	n/a	n/a	n/a	n/a	n/a	n/a	n/a	n/a
n/a	"image-keyboard-response"	"199"	"12424085"	"0.0-6.0-2.0-1.7"	"5uffzu"	"563"	"1199"	"chrome"	"110.0.0"	"FALSE"	"Windows 10"	"60.86"	"033"	n/a	n/a	n/a	n/a	n/a	n/a	"Trial"	n/a	n/a	n/a	"1228"	"arrowright"	n/a	"NULL"	"NULL"	"NULL"	"stimuli/VerticalHorizontal_-11.78571_-0.16217.png"	n/a	"VerticalHorizontal"	"arrowright"	"1106"	"TRUE"	"VerticalHorizontal"	"-11.78571000"	"-0.162170000"	"2"	"8"
n/a	"html-keyboard-response"	"200"	"12425388"	"0.0-6.0-2.0-0.8"	"5uffzu"	"563"	"1199"	"chrome"	"110.0.0"	"FALSE"	"Windows 10"	"60.86"	"033"	n/a	n/a	n/a	n/a	n/a	n/a	"fixation"	n/a	n/a	n/a	n/a	"NULL"	n/a	"NULL"	"NULL"	"NULL"	"<p style=\"color: black; font-size: 80px; padding-left: 47%; padding-right: 13%; padding-top: 32%; padding-bottom: 5%\">+</p>"	"1292"	n/a	n/a	n/a	n/a	n/a	n/a	n/a	n/a	n/a
n/a	"image-keyboard-response"	"201"	"12427052"	"0.0-6.0-2.0-1.8"	"5uffzu"	"563"	"1199"	"chrome"	"110.0.0"	"FALSE"	"Windows 10"	"60.86"	"033"	n/a	n/a	n/a	n/a	n/a	n/a	"Trial"	n/a	n/a	n/a	"1663"	"arrowright"	n/a	"NULL"	"NULL"	"NULL"	"stimuli/VerticalHorizontal_11.78571_-0.2250.png"	n/a	"VerticalHorizontal"	"arrowright"	"1303"	"TRUE"	"VerticalHorizontal"	"11.785710000"	"-0.225000000"	"2"	"9"
n/a	"html-keyboard-response"	"202"	"12428251"	"0.0-6.0-2.0-0.9"	"5uffzu"	"563"	"1199"	"chrome"	"110.0.0"	"FALSE"	"Windows 10"	"60.86"	"033"	n/a	n/a	n/a	n/a	n/a	n/a	"fixation"	n/a	n/a	n/a	n/a	"NULL"	n/a	"NULL"	"NULL"	"NULL"	"<p style=\"color: black; font-size: 80px; padding-left: 25%; padding-right: 7%; padding-top: 8%; padding-bottom: 42%\">+</p>"	"1194"	n/a	n/a	n/a	n/a	n/a	n/a	n/a	n/a	n/a
n/a	"image-keyboard-response"	"203"	"12429013"	"0.0-6.0-2.0-1.9"	"5uffzu"	"563"	"1199"	"chrome"	"110.0.0"	"FALSE"	"Windows 10"	"60.86"	"033"	n/a	n/a	n/a	n/a	n/a	n/a	"Trial"	n/a	n/a	n/a	"761"	"arrowleft"	n/a	"NULL"	"NULL"	"NULL"	"stimuli/VerticalHorizontal_28.75714_0.16217.png"	n/a	"VerticalHorizontal"	"arrowleft"	"1199"	"TRUE"	"VerticalHorizontal"	"28.757140000"	"0.1621700000"	"2"	"10"
n/a	"html-keyboard-response"	"204"	"12430256"	"0.0-6.0-2.0-0.10"	"5uffzu"	"563"	"1199"	"chrome"	"110.0.0"	"FALSE"	"Windows 10"	"60.86"	"033"	n/a	n/a	n/a	n/a	n/a	n/a	"fixation"	n/a	n/a	n/a	n/a	"NULL"	n/a	"NULL"	"NULL"	"NULL"	"<p style=\"color: black; font-size: 80px; padding-left: 10%; padding-right: 2%; padding-top: 24%; padding-bottom: 13%\">+</p>"	"1231"	n/a	n/a	n/a	n/a	n/a	n/a	n/a	n/a	n/a
n/a	"image-keyboard-response"	"205"	"12431332"	"0.0-6.0-2.0-1.10"	"5uffzu"	"563"	"1199"	"chrome"	"110.0.0"	"FALSE"	"Windows 10"	"60.86"	"033"	n/a	n/a	n/a	n/a	n/a	n/a	"Trial"	n/a	n/a	n/a	"1076"	"arrowright"	n/a	"NULL"	"NULL"	"NULL"	"stimuli/VerticalHorizontal_-20.27143_-0.0673.png"	n/a	"VerticalHorizontal"	"arrowright"	"1243"	"TRUE"	"VerticalHorizontal"	"-20.27143000"	"-0.067300000"	"2"	"11"
n/a	"html-keyboard-response"	"206"	"12432402"	"0.0-6.0-2.0-0.11"	"5uffzu"	"563"	"1199"	"chrome"	"110.0.0"	"FALSE"	"Windows 10"	"60.86"	"033"	n/a	n/a	n/a	n/a	n/a	n/a	"fixation"	n/a	n/a	n/a	n/a	"NULL"	n/a	"NULL"	"NULL"	"NULL"	"<p style=\"color: black; font-size: 80px; padding-left: 19%; padding-right: 16%; padding-top: 49%; padding-bottom: 30%\">+</p>"	"1058"	n/a	n/a	n/a	n/a	n/a	n/a	n/a	n/a	n/a
n/a	"image-keyboard-response"	"207"	"12433592"	"0.0-6.0-2.0-1.11"	"5uffzu"	"563"	"1199"	"chrome"	"110.0.0"	"FALSE"	"Windows 10"	"60.86"	"033"	n/a	n/a	n/a	n/a	n/a	n/a	"Trial"	n/a	n/a	n/a	"1189"	"arrowright"	n/a	"NULL"	"NULL"	"NULL"	"stimuli/VerticalHorizontal_-28.75714_-0.1096.png"	n/a	"VerticalHorizontal"	"arrowright"	"1070"	"TRUE"	"VerticalHorizontal"	"-28.75714000"	"-0.109600000"	"2"	"12"
n/a	"html-keyboard-response"	"208"	"12434605"	"0.0-6.0-2.0-0.12"	"5uffzu"	"563"	"1199"	"chrome"	"110.0.0"	"FALSE"	"Windows 10"	"60.86"	"033"	n/a	n/a	n/a	n/a	n/a	n/a	"fixation"	n/a	n/a	n/a	n/a	"NULL"	n/a	"NULL"	"NULL"	"NULL"	"<p style=\"color: black; font-size: 80px; padding-left: 25%; padding-right: 8%; padding-top: 37%; padding-bottom: 17%\">+</p>"	"1000"	n/a	n/a	n/a	n/a	n/a	n/a	n/a	n/a	n/a
n/a	"image-keyboard-response"	"209"	"12435341"	"0.0-6.0-2.0-1.12"	"5uffzu"	"563"	"1199"	"chrome"	"110.0.0"	"FALSE"	"Windows 10"	"60.86"	"033"	n/a	n/a	n/a	n/a	n/a	n/a	"Trial"	n/a	n/a	n/a	"735"	"arrowleft"	n/a	"NULL"	"NULL"	"NULL"	"stimuli/VerticalHorizontal_-11.78571_0.16217.png"	n/a	"VerticalHorizontal"	"arrowleft"	"1013"	"TRUE"	"VerticalHorizontal"	"-11.78571000"	"0.1621700000"	"2"	"13"
n/a	"html-keyboard-response"	"210"	"12436612"	"0.0-6.0-2.0-0.13"	"5uffzu"	"563"	"1199"	"chrome"	"110.0.0"	"FALSE"	"Windows 10"	"60.86"	"033"	n/a	n/a	n/a	n/a	n/a	n/a	"fixation"	n/a	n/a	n/a	n/a	"NULL"	n/a	"NULL"	"NULL"	"NULL"	"<p style=\"color: black; font-size: 80px; padding-left: 22%; padding-right: 48%; padding-top: 30%; padding-bottom: 45%\">+</p>"	"1264"	n/a	n/a	n/a	n/a	n/a	n/a	n/a	n/a	n/a
n/a	"image-keyboard-response"	"211"	"12437888"	"0.0-6.0-2.0-1.13"	"5uffzu"	"563"	"1199"	"chrome"	"110.0.0"	"FALSE"	"Windows 10"	"60.86"	"033"	n/a	n/a	n/a	n/a	n/a	n/a	"Trial"	n/a	n/a	n/a	"1275"	"arrowright"	n/a	"NULL"	"NULL"	"NULL"	"stimuli/VerticalHorizontal_11.78571_-0.0673.png"	n/a	"VerticalHorizontal"	"arrowright"	"1271"	"TRUE"	"VerticalHorizontal"	"11.785710000"	"-0.067300000"	"2"	"14"
n/a	"html-keyboard-response"	"212"	"12439059"	"0.0-6.0-2.0-0.14"	"5uffzu"	"563"	"1199"	"chrome"	"110.0.0"	"FALSE"	"Windows 10"	"60.86"	"033"	n/a	n/a	n/a	n/a	n/a	n/a	"fixation"	n/a	n/a	n/a	n/a	"NULL"	n/a	"NULL"	"NULL"	"NULL"	"<p style=\"color: black; font-size: 80px; padding-left: 27%; padding-right: 50%; padding-top: 38%; padding-bottom: 24%\">+</p>"	"1167"	n/a	n/a	n/a	n/a	n/a	n/a	n/a	n/a	n/a
n/a	"image-keyboard-response"	"213"	"12440428"	"0.0-6.0-2.0-1.14"	"5uffzu"	"563"	"1199"	"chrome"	"110.0.0"	"FALSE"	"Windows 10"	"60.86"	"033"	n/a	n/a	n/a	n/a	n/a	n/a	"Trial"	n/a	n/a	n/a	"1367"	"arrowright"	n/a	"NULL"	"NULL"	"NULL"	"stimuli/VerticalHorizontal_-20.27143_-0.1096.png"	n/a	"VerticalHorizontal"	"arrowright"	"1171"	"TRUE"	"VerticalHorizontal"	"-20.27143000"	"-0.109600000"	"2"	"15"
n/a	"html-keyboard-response"	"214"	"12441610"	"0.0-6.0-2.0-0.15"	"5uffzu"	"563"	"1199"	"chrome"	"110.0.0"	"FALSE"	"Windows 10"	"60.86"	"033"	n/a	n/a	n/a	n/a	n/a	n/a	"fixation"	n/a	n/a	n/a	n/a	"NULL"	n/a	"NULL"	"NULL"	"NULL"	"<p style=\"color: black; font-size: 80px; padding-left: 14%; padding-right: 26%; padding-top: 47%; padding-bottom: 44%\">+</p>"	"1177"	n/a	n/a	n/a	n/a	n/a	n/a	n/a	n/a	n/a
n/a	"image-keyboard-response"	"215"	"12443477"	"0.0-6.0-2.0-1.15"	"5uffzu"	"563"	"1199"	"chrome"	"110.0.0"	"FALSE"	"Windows 10"	"60.86"	"033"	n/a	n/a	n/a	n/a	n/a	n/a	"Trial"	n/a	n/a	n/a	"1867"	"arrowleft"	n/a	"NULL"	"NULL"	"NULL"	"stimuli/VerticalHorizontal_28.75714_-0.16217.png"	n/a	"VerticalHorizontal"	"arrowright"	"1182"	"FALSE"	"VerticalHorizontal"	"28.757140000"	"-0.162170000"	"2"	"16"
n/a	"html-keyboard-response"	"216"	"12444505"	"0.0-6.0-2.0-0.16"	"5uffzu"	"563"	"1199"	"chrome"	"110.0.0"	"FALSE"	"Windows 10"	"60.86"	"033"	n/a	n/a	n/a	n/a	n/a	n/a	"fixation"	n/a	n/a	n/a	n/a	"NULL"	n/a	"NULL"	"NULL"	"NULL"	"<p style=\"color: black; font-size: 80px; padding-left: 45%; padding-right: 22%; padding-top: 25%; padding-bottom: 9%\">+</p>"	"1027"	n/a	n/a	n/a	n/a	n/a	n/a	n/a	n/a	n/a
n/a	"image-keyboard-response"	"217"	"12446429"	"0.0-6.0-2.0-1.16"	"5uffzu"	"563"	"1199"	"chrome"	"110.0.0"	"FALSE"	"Windows 10"	"60.86"	"033"	n/a	n/a	n/a	n/a	n/a	n/a	"Trial"	n/a	n/a	n/a	"1923"	"arrowleft"	n/a	"NULL"	"NULL"	"NULL"	"stimuli/VerticalHorizontal_28.75714_-0.1096.png"	n/a	"VerticalHorizontal"	"arrowright"	"1028"	"FALSE"	"VerticalHorizontal"	"28.757140000"	"-0.109600000"	"2"	"17"
n/a	"html-keyboard-response"	"218"	"12447817"	"0.0-6.0-2.0-0.17"	"5uffzu"	"563"	"1199"	"chrome"	"110.0.0"	"FALSE"	"Windows 10"	"60.86"	"033"	n/a	n/a	n/a	n/a	n/a	n/a	"fixation"	n/a	n/a	n/a	n/a	"NULL"	n/a	"NULL"	"NULL"	"NULL"	"<p style=\"color: black; font-size: 80px; padding-left: 43%; padding-right: 16%; padding-top: 11%; padding-bottom: 31%\">+</p>"	"1387"	n/a	n/a	n/a	n/a	n/a	n/a	n/a	n/a	n/a
n/a	"image-keyboard-response"	"219"	"12450320"	"0.0-6.0-2.0-1.17"	"5uffzu"	"563"	"1199"	"chrome"	"110.0.0"	"FALSE"	"Windows 10"	"60.86"	"033"	n/a	n/a	n/a	n/a	n/a	n/a	"Trial"	n/a	n/a	n/a	"2503"	"arrowleft"	n/a	"NULL"	"NULL"	"NULL"	"stimuli/VerticalHorizontal_28.75714_0.10960.png"	n/a	"VerticalHorizontal"	"arrowleft"	"1388"	"TRUE"	"VerticalHorizontal"	"28.757140000"	"0.1096000000"	"2"	"18"
n/a	"html-keyboard-response"	"220"	"12451372"	"0.0-6.0-2.0-0.18"	"5uffzu"	"563"	"1199"	"chrome"	"110.0.0"	"FALSE"	"Windows 10"	"60.86"	"033"	n/a	n/a	n/a	n/a	n/a	n/a	"fixation"	n/a	n/a	n/a	n/a	"NULL"	n/a	"NULL"	"NULL"	"NULL"	"<p style=\"color: black; font-size: 80px; padding-left: 40%; padding-right: 20%; padding-top: 1%; padding-bottom: 28%\">+</p>"	"1050"	n/a	n/a	n/a	n/a	n/a	n/a	n/a	n/a	n/a
n/a	"image-keyboard-response"	"221"	"12452166"	"0.0-6.0-2.0-1.18"	"5uffzu"	"563"	"1199"	"chrome"	"110.0.0"	"FALSE"	"Windows 10"	"60.86"	"033"	n/a	n/a	n/a	n/a	n/a	n/a	"Trial"	n/a	n/a	n/a	"793"	"arrowleft"	n/a	"NULL"	"NULL"	"NULL"	"stimuli/VerticalHorizontal_-20.27143_0.22500.png"	n/a	"VerticalHorizontal"	"arrowleft"	"1052"	"TRUE"	"VerticalHorizontal"	"-20.27143000"	"0.2250000000"	"2"	"19"
n/a	"html-keyboard-response"	"222"	"12453217"	"0.0-6.0-2.0-0.19"	"5uffzu"	"563"	"1199"	"chrome"	"110.0.0"	"FALSE"	"Windows 10"	"60.86"	"033"	n/a	n/a	n/a	n/a	n/a	n/a	"fixation"	n/a	n/a	n/a	n/a	"NULL"	n/a	"NULL"	"NULL"	"NULL"	"<p style=\"color: black; font-size: 80px; padding-left: 12%; padding-right: 27%; padding-top: 44%; padding-bottom: 34%\">+</p>"	"1035"	n/a	n/a	n/a	n/a	n/a	n/a	n/a	n/a	n/a
n/a	"image-keyboard-response"	"223"	"12454723"	"0.0-6.0-2.0-1.19"	"5uffzu"	"563"	"1199"	"chrome"	"110.0.0"	"FALSE"	"Windows 10"	"60.86"	"033"	n/a	n/a	n/a	n/a	n/a	n/a	"Trial"	n/a	n/a	n/a	"1506"	"arrowright"	n/a	"NULL"	"NULL"	"NULL"	"stimuli/VerticalHorizontal_20.27143_0.06730.png"	n/a	"VerticalHorizontal"	"arrowleft"	"1051"	"FALSE"	"VerticalHorizontal"	"20.271430000"	"0.0673000000"	"2"	"20"
n/a	"html-keyboard-response"	"224"	"12455938"	"0.0-6.0-2.0-0.20"	"5uffzu"	"563"	"1199"	"chrome"	"110.0.0"	"FALSE"	"Windows 10"	"60.86"	"033"	n/a	n/a	n/a	n/a	n/a	n/a	"fixation"	n/a	n/a	n/a	n/a	"NULL"	n/a	"NULL"	"NULL"	"NULL"	"<p style=\"color: black; font-size: 80px; padding-left: 35%; padding-right: 43%; padding-top: 45%; padding-bottom: 6%\">+</p>"	"1200"	n/a	n/a	n/a	n/a	n/a	n/a	n/a	n/a	n/a
n/a	"image-keyboard-response"	"225"	"12456547"	"0.0-6.0-2.0-1.20"	"5uffzu"	"563"	"1199"	"chrome"	"110.0.0"	"FALSE"	"Windows 10"	"60.86"	"033"	n/a	n/a	n/a	n/a	n/a	n/a	"Trial"	n/a	n/a	n/a	"609"	"arrowleft"	n/a	"NULL"	"NULL"	"NULL"	"stimuli/VerticalHorizontal_-20.27143_0.10960.png"	n/a	"VerticalHorizontal"	"arrowleft"	"1215"	"TRUE"	"VerticalHorizontal"	"-20.27143000"	"0.1096000000"	"2"	"21"
n/a	"html-keyboard-response"	"226"	"12457717"	"0.0-6.0-2.0-0.21"	"5uffzu"	"563"	"1199"	"chrome"	"110.0.0"	"FALSE"	"Windows 10"	"60.86"	"033"	n/a	n/a	n/a	n/a	n/a	n/a	"fixation"	n/a	n/a	n/a	n/a	"NULL"	n/a	"NULL"	"NULL"	"NULL"	"<p style=\"color: black; font-size: 80px; padding-left: 6%; padding-right: 6%; padding-top: 20%; padding-bottom: 27%\">+</p>"	"1165"	n/a	n/a	n/a	n/a	n/a	n/a	n/a	n/a	n/a
n/a	"image-keyboard-response"	"227"	"12458425"	"0.0-6.0-2.0-1.21"	"5uffzu"	"563"	"1199"	"chrome"	"110.0.0"	"FALSE"	"Windows 10"	"60.86"	"033"	n/a	n/a	n/a	n/a	n/a	n/a	"Trial"	n/a	n/a	n/a	"708"	"arrowright"	n/a	"NULL"	"NULL"	"NULL"	"stimuli/VerticalHorizontal_-20.27143_-0.16217.png"	n/a	"VerticalHorizontal"	"arrowright"	"1170"	"TRUE"	"VerticalHorizontal"	"-20.27143000"	"-0.162170000"	"2"	"22"
n/a	"html-keyboard-response"	"228"	"12459537"	"0.0-6.0-2.0-0.22"	"5uffzu"	"563"	"1199"	"chrome"	"110.0.0"	"FALSE"	"Windows 10"	"60.86"	"033"	n/a	n/a	n/a	n/a	n/a	n/a	"fixation"	n/a	n/a	n/a	n/a	"NULL"	n/a	"NULL"	"NULL"	"NULL"	"<p style=\"color: black; font-size: 80px; padding-left: 23%; padding-right: 8%; padding-top: 26%; padding-bottom: 42%\">+</p>"	"1106"	n/a	n/a	n/a	n/a	n/a	n/a	n/a	n/a	n/a
n/a	"image-keyboard-response"	"229"	"12460242"	"0.0-6.0-2.0-1.22"	"5uffzu"	"563"	"1199"	"chrome"	"110.0.0"	"FALSE"	"Windows 10"	"60.86"	"033"	n/a	n/a	n/a	n/a	n/a	n/a	"Trial"	n/a	n/a	n/a	"705"	"arrowright"	n/a	"NULL"	"NULL"	"NULL"	"stimuli/VerticalHorizontal_-11.78571_-0.2250.png"	n/a	"VerticalHorizontal"	"arrowright"	"1112"	"TRUE"	"VerticalHorizontal"	"-11.78571000"	"-0.225000000"	"2"	"23"
n/a	"html-keyboard-response"	"230"	"12461608"	"0.0-6.0-2.0-0.23"	"5uffzu"	"563"	"1199"	"chrome"	"110.0.0"	"FALSE"	"Windows 10"	"60.86"	"033"	n/a	n/a	n/a	n/a	n/a	n/a	"fixation"	n/a	n/a	n/a	n/a	"NULL"	n/a	"NULL"	"NULL"	"NULL"	"<p style=\"color: black; font-size: 80px; padding-left: 15%; padding-right: 29%; padding-top: 7%; padding-bottom: 27%\">+</p>"	"1366"	n/a	n/a	n/a	n/a	n/a	n/a	n/a	n/a	n/a
n/a	"image-keyboard-response"	"231"	"12462359"	"0.0-6.0-2.0-1.23"	"5uffzu"	"563"	"1199"	"chrome"	"110.0.0"	"FALSE"	"Windows 10"	"60.86"	"033"	n/a	n/a	n/a	n/a	n/a	n/a	"Trial"	n/a	n/a	n/a	"750"	"arrowleft"	n/a	"NULL"	"NULL"	"NULL"	"stimuli/VerticalHorizontal_28.75714_-0.0673.png"	n/a	"VerticalHorizontal"	"arrowright"	"1366"	"FALSE"	"VerticalHorizontal"	"28.757140000"	"-0.067300000"	"2"	"24"
n/a	"html-keyboard-response"	"232"	"12463857"	"0.0-6.0-2.0-0.24"	"5uffzu"	"563"	"1199"	"chrome"	"110.0.0"	"FALSE"	"Windows 10"	"60.86"	"033"	n/a	n/a	n/a	n/a	n/a	n/a	"fixation"	n/a	n/a	n/a	n/a	"NULL"	n/a	"NULL"	"NULL"	"NULL"	"<p style=\"color: black; font-size: 80px; padding-left: 48%; padding-right: 46%; padding-top: 14%; padding-bottom: 37%\">+</p>"	"1490"	n/a	n/a	n/a	n/a	n/a	n/a	n/a	n/a	n/a
n/a	"image-keyboard-response"	"233"	"12464964"	"0.0-6.0-2.0-1.24"	"5uffzu"	"563"	"1199"	"chrome"	"110.0.0"	"FALSE"	"Windows 10"	"60.86"	"033"	n/a	n/a	n/a	n/a	n/a	n/a	"Trial"	n/a	n/a	n/a	"1106"	"arrowright"	n/a	"NULL"	"NULL"	"NULL"	"stimuli/VerticalHorizontal_11.78571_-0.1096.png"	n/a	"VerticalHorizontal"	"arrowright"	"1498"	"TRUE"	"VerticalHorizontal"	"11.785710000"	"-0.109600000"	"2"	"25"
n/a	"html-keyboard-response"	"234"	"12466259"	"0.0-6.0-2.0-0.25"	"5uffzu"	"563"	"1199"	"chrome"	"110.0.0"	"FALSE"	"Windows 10"	"60.86"	"033"	n/a	n/a	n/a	n/a	n/a	n/a	"fixation"	n/a	n/a	n/a	n/a	"NULL"	n/a	"NULL"	"NULL"	"NULL"	"<p style=\"color: black; font-size: 80px; padding-left: 4%; padding-right: 40%; padding-top: 7%; padding-bottom: 33%\">+</p>"	"1286"	n/a	n/a	n/a	n/a	n/a	n/a	n/a	n/a	n/a
n/a	"image-keyboard-response"	"235"	"12467072"	"0.0-6.0-2.0-1.25"	"5uffzu"	"563"	"1199"	"chrome"	"110.0.0"	"FALSE"	"Windows 10"	"60.86"	"033"	n/a	n/a	n/a	n/a	n/a	n/a	"Trial"	n/a	n/a	n/a	"813"	"arrowleft"	n/a	"NULL"	"NULL"	"NULL"	"stimuli/VerticalHorizontal_-3.3000_0.06730.png"	n/a	"VerticalHorizontal"	"arrowleft"	"1295"	"TRUE"	"VerticalHorizontal"	"-3.300000000"	"0.0673000000"	"2"	"26"
n/a	"html-keyboard-response"	"236"	"12468344"	"0.0-6.0-2.0-0.26"	"5uffzu"	"563"	"1199"	"chrome"	"110.0.0"	"FALSE"	"Windows 10"	"60.86"	"033"	n/a	n/a	n/a	n/a	n/a	n/a	"fixation"	n/a	n/a	n/a	n/a	"NULL"	n/a	"NULL"	"NULL"	"NULL"	"<p style=\"color: black; font-size: 80px; padding-left: 14%; padding-right: 18%; padding-top: 10%; padding-bottom: 35%\">+</p>"	"1270"	n/a	n/a	n/a	n/a	n/a	n/a	n/a	n/a	n/a
n/a	"image-keyboard-response"	"237"	"12468841"	"0.0-6.0-2.0-1.26"	"5uffzu"	"563"	"1199"	"chrome"	"110.0.0"	"FALSE"	"Windows 10"	"60.86"	"033"	n/a	n/a	n/a	n/a	n/a	n/a	"Trial"	n/a	n/a	n/a	"496"	"arrowleft"	n/a	"NULL"	"NULL"	"NULL"	"stimuli/VerticalHorizontal_3.30000_0.22500.png"	n/a	"VerticalHorizontal"	"arrowleft"	"1272"	"TRUE"	"VerticalHorizontal"	"3.3000000000"	"0.2250000000"	"2"	"27"
n/a	"html-keyboard-response"	"238"	"12469938"	"0.0-6.0-2.0-0.27"	"5uffzu"	"563"	"1199"	"chrome"	"110.0.0"	"FALSE"	"Windows 10"	"60.86"	"033"	n/a	n/a	n/a	n/a	n/a	n/a	"fixation"	n/a	n/a	n/a	n/a	"NULL"	n/a	"NULL"	"NULL"	"NULL"	"<p style=\"color: black; font-size: 80px; padding-left: 36%; padding-right: 34%; padding-top: 17%; padding-bottom: 11%\">+</p>"	"1086"	n/a	n/a	n/a	n/a	n/a	n/a	n/a	n/a	n/a
n/a	"image-keyboard-response"	"239"	"12470541"	"0.0-6.0-2.0-1.27"	"5uffzu"	"563"	"1199"	"chrome"	"110.0.0"	"FALSE"	"Windows 10"	"60.86"	"033"	n/a	n/a	n/a	n/a	n/a	n/a	"Trial"	n/a	n/a	n/a	"602"	"arrowleft"	n/a	"NULL"	"NULL"	"NULL"	"stimuli/VerticalHorizontal_-3.3000_0.16217.png"	n/a	"VerticalHorizontal"	"arrowleft"	"1097"	"TRUE"	"VerticalHorizontal"	"-3.300000000"	"0.1621700000"	"2"	"28"
n/a	"html-keyboard-response"	"240"	"12471889"	"0.0-6.0-2.0-0.28"	"5uffzu"	"563"	"1199"	"chrome"	"110.0.0"	"FALSE"	"Windows 10"	"60.86"	"033"	n/a	n/a	n/a	n/a	n/a	n/a	"fixation"	n/a	n/a	n/a	n/a	"NULL"	n/a	"NULL"	"NULL"	"NULL"	"<p style=\"color: black; font-size: 80px; padding-left: 4%; padding-right: 10%; padding-top: 16%; padding-bottom: 30%\">+</p>"	"1337"	n/a	n/a	n/a	n/a	n/a	n/a	n/a	n/a	n/a
n/a	"image-keyboard-response"	"241"	"12472450"	"0.0-6.0-2.0-1.28"	"5uffzu"	"563"	"1199"	"chrome"	"110.0.0"	"FALSE"	"Windows 10"	"60.86"	"033"	n/a	n/a	n/a	n/a	n/a	n/a	"Trial"	n/a	n/a	n/a	"560"	"arrowleft"	n/a	"NULL"	"NULL"	"NULL"	"stimuli/VerticalHorizontal_20.27143_0.22500.png"	n/a	"VerticalHorizontal"	"arrowleft"	"1348"	"TRUE"	"VerticalHorizontal"	"20.271430000"	"0.2250000000"	"2"	"29"
n/a	"html-keyboard-response"	"242"	"12473631"	"0.0-6.0-2.0-0.29"	"5uffzu"	"563"	"1199"	"chrome"	"110.0.0"	"FALSE"	"Windows 10"	"60.86"	"033"	n/a	n/a	n/a	n/a	n/a	n/a	"fixation"	n/a	n/a	n/a	n/a	"NULL"	n/a	"NULL"	"NULL"	"NULL"	"<p style=\"color: black; font-size: 80px; padding-left: 37%; padding-right: 3%; padding-top: 19%; padding-bottom: 1%\">+</p>"	"1175"	n/a	n/a	n/a	n/a	n/a	n/a	n/a	n/a	n/a
n/a	"image-keyboard-response"	"243"	"12474191"	"0.0-6.0-2.0-1.29"	"5uffzu"	"563"	"1199"	"chrome"	"110.0.0"	"FALSE"	"Windows 10"	"60.86"	"033"	n/a	n/a	n/a	n/a	n/a	n/a	"Trial"	n/a	n/a	n/a	"557"	"arrowleft"	n/a	"NULL"	"NULL"	"NULL"	"stimuli/VerticalHorizontal_11.78571_0.22500.png"	n/a	"VerticalHorizontal"	"arrowleft"	"1181"	"TRUE"	"VerticalHorizontal"	"11.785710000"	"0.2250000000"	"2"	"30"
n/a	"html-keyboard-response"	"244"	"12475379"	"0.0-6.0-2.0-0.30"	"5uffzu"	"563"	"1199"	"chrome"	"110.0.0"	"FALSE"	"Windows 10"	"60.86"	"033"	n/a	n/a	n/a	n/a	n/a	n/a	"fixation"	n/a	n/a	n/a	n/a	"NULL"	n/a	"NULL"	"NULL"	"NULL"	"<p style=\"color: black; font-size: 80px; padding-left: 34%; padding-right: 37%; padding-top: 2%; padding-bottom: 41%\">+</p>"	"1184"	n/a	n/a	n/a	n/a	n/a	n/a	n/a	n/a	n/a
n/a	"image-keyboard-response"	"245"	"12476183"	"0.0-6.0-2.0-1.30"	"5uffzu"	"563"	"1199"	"chrome"	"110.0.0"	"FALSE"	"Windows 10"	"60.86"	"033"	n/a	n/a	n/a	n/a	n/a	n/a	"Trial"	n/a	n/a	n/a	"803"	"arrowright"	n/a	"NULL"	"NULL"	"NULL"	"stimuli/VerticalHorizontal_-11.78571_-0.0673.png"	n/a	"VerticalHorizontal"	"arrowright"	"1188"	"TRUE"	"VerticalHorizontal"	"-11.78571000"	"-0.067300000"	"2"	"31"
n/a	"html-keyboard-response"	"246"	"12477390"	"0.0-6.0-2.0-0.31"	"5uffzu"	"563"	"1199"	"chrome"	"110.0.0"	"FALSE"	"Windows 10"	"60.86"	"033"	n/a	n/a	n/a	n/a	n/a	n/a	"fixation"	n/a	n/a	n/a	n/a	"NULL"	n/a	"NULL"	"NULL"	"NULL"	"<p style=\"color: black; font-size: 80px; padding-left: 13%; padding-right: 27%; padding-top: 3%; padding-bottom: 6%\">+</p>"	"1204"	n/a	n/a	n/a	n/a	n/a	n/a	n/a	n/a	n/a
n/a	"image-keyboard-response"	"247"	"12477937"	"0.0-6.0-2.0-1.31"	"5uffzu"	"563"	"1199"	"chrome"	"110.0.0"	"FALSE"	"Windows 10"	"60.86"	"033"	n/a	n/a	n/a	n/a	n/a	n/a	"Trial"	n/a	n/a	n/a	"547"	"arrowleft"	n/a	"NULL"	"NULL"	"NULL"	"stimuli/VerticalHorizontal_-3.3000_0.10960.png"	n/a	"VerticalHorizontal"	"arrowleft"	"1207"	"TRUE"	"VerticalHorizontal"	"-3.300000000"	"0.1096000000"	"2"	"32"
n/a	"html-keyboard-response"	"248"	"12479342"	"0.0-6.0-2.0-0.32"	"5uffzu"	"563"	"1199"	"chrome"	"110.0.0"	"FALSE"	"Windows 10"	"60.86"	"033"	n/a	n/a	n/a	n/a	n/a	n/a	"fixation"	n/a	n/a	n/a	n/a	"NULL"	n/a	"NULL"	"NULL"	"NULL"	"<p style=\"color: black; font-size: 80px; padding-left: 4%; padding-right: 34%; padding-top: 32%; padding-bottom: 16%\">+</p>"	"1397"	n/a	n/a	n/a	n/a	n/a	n/a	n/a	n/a	n/a
n/a	"image-keyboard-response"	"249"	"12479862"	"0.0-6.0-2.0-1.32"	"5uffzu"	"563"	"1199"	"chrome"	"110.0.0"	"FALSE"	"Windows 10"	"60.86"	"033"	n/a	n/a	n/a	n/a	n/a	n/a	"Trial"	n/a	n/a	n/a	"519"	"arrowleft"	n/a	"NULL"	"NULL"	"NULL"	"stimuli/VerticalHorizontal_11.78571_0.16217.png"	n/a	"VerticalHorizontal"	"arrowleft"	"1405"	"TRUE"	"VerticalHorizontal"	"11.785710000"	"0.1621700000"	"2"	"33"
