"success"	"trial_type"	"trial_index"	"time_elapsed"	"internal_node_id"	"participant_id"	"screen_height"	"screen_width"	"browser"	"browser_version"	"mobile"	"os"	"vsync_rate"	"width"	"height"	"webaudio"	"fullscreen"	"webcam"	"microphone"	"screen"	"version"	"date"	"time"	"timeout"	"failed_images"	"failed_audio"	"failed_video"	"rt"	"stimulus"	"response"	"trial_duration"	"block"	"correct_response"	"prestimulus_duration"	"correct"	"type"	"illusion_strength"	"illusion_difference"	"block_number"	"trial_number"
"TRUE"	"fullscreen"	"0"	"107452"	"0.0-0.0"	"ld8429"	"600"	"1366"	"chrome"	"108.0.0"	"FALSE"	"Windows 10"	"61.04"	n/a	n/a	n/a	n/a	n/a	n/a	n/a	n/a	n/a	n/a	n/a	"NULL"	"NULL"	"NULL"	n/a	n/a	n/a	n/a	n/a	n/a	n/a	n/a	n/a	n/a	n/a	n/a	n/a
n/a	"browser-check"	"1"	"108454"	"0.0-1.0"	"ld8429"	"600"	"1366"	"chrome"	"108.0.0"	"FALSE"	"Windows 10"	"61.04"	"1366"	"600"	"TRUE"	"TRUE"	"TRUE"	"TRUE"	"browser_info"	"1.0"	"21/12/2022"	"14:38:51"	n/a	"NULL"	"NULL"	"NULL"	n/a	n/a	n/a	n/a	n/a	n/a	n/a	n/a	n/a	n/a	n/a	n/a	n/a
"TRUE"	"preload"	"2"	"108468"	"0.0-2.0"	"ld8429"	"600"	"1366"	"chrome"	"108.0.0"	"FALSE"	"Windows 10"	"61.04"	n/a	n/a	n/a	n/a	n/a	n/a	n/a	n/a	n/a	n/a	"FALSE"	"list()"	"list()"	"list()"	n/a	n/a	n/a	n/a	n/a	n/a	n/a	n/a	n/a	n/a	n/a	n/a	n/a
n/a	"html-button-response"	"3"	"115630"	"0.0-3.0-0.0"	"ld8429"	"600"	"1366"	"chrome"	"108.0.0"	"FALSE"	"Windows 10"	"61.04"	n/a	n/a	n/a	n/a	n/a	n/a	"illusion_instructions"	n/a	n/a	n/a	n/a	"NULL"	"NULL"	"NULL"	"7161"	"<p><b>Illusion Game</b></p><p>In this game of speed and reflex, you will need to make <b>visual judgments</b> (for instance, which circle is the biggest, or which line is the longest), as fast and as correctly as possible, while <b>resisting different visual illusions</b>.</p><p>We are going to start with some examples of all the illusions you will encounter in the game.</p>"	"0"	n/a	n/a	n/a	n/a	n/a	n/a	n/a	n/a	n/a	n/a
"TRUE"	"preload"	"4"	"115655"	"0.0-3.0-1.0-0.0"	"ld8429"	"600"	"1366"	"chrome"	"108.0.0"	"FALSE"	"Windows 10"	"61.04"	n/a	n/a	n/a	n/a	n/a	n/a	n/a	n/a	n/a	n/a	"FALSE"	"list()"	"list()"	"list()"	n/a	n/a	n/a	n/a	n/a	n/a	n/a	n/a	n/a	n/a	n/a	n/a	n/a
n/a	"html-keyboard-response"	"5"	"140405"	"0.0-3.0-1.0-1.0"	"ld8429"	"600"	"1366"	"chrome"	"108.0.0"	"FALSE"	"Windows 10"	"61.04"	n/a	n/a	n/a	n/a	n/a	n/a	n/a	n/a	n/a	n/a	n/a	"NULL"	"NULL"	"NULL"	"24749"	"<p><b>Practice</b></p><p>In this part, two red circles will appear side by side on the screen.</p><p>Your task is to select which <b>red circle is bigger</b> in size as fast as you can, without making errors.</p><p>Don't get distracted by the surrounding black circles around the red circles!</p><p>Press <b>the LEFT or the RIGHT arrow</b> to indicate which is the bigger <b>red circle.</b></p><div style='float: center'><img src='materials/instructions/Ebbinghaus_Demo.png' height='300'></img><p><img src='utils/answer/answer_leftright_keyboard.PNG' height='150'></img></p><p class='small'>In this example, the correct answer is the <b>LEFT arrow</b>.</p></div><p>Are you ready? <b>Press ENTER to start</b></p>"	"enter"	n/a	n/a	n/a	n/a	n/a	n/a	n/a	n/a	n/a	n/a
n/a	"html-keyboard-response"	"6"	"142371"	"0.0-3.0-1.0-2.0-0.0"	"ld8429"	"600"	"1366"	"chrome"	"108.0.0"	"FALSE"	"Windows 10"	"61.04"	n/a	n/a	n/a	n/a	n/a	n/a	"fixation"	n/a	n/a	n/a	n/a	"NULL"	"NULL"	"NULL"	n/a	"<p style=\"color: black; font-size: 80px; padding-left: 38%; padding-right: 17%; padding-top: 27%; padding-bottom: 12%\">+</p>"	n/a	"1452"	n/a	n/a	n/a	n/a	n/a	n/a	n/a	n/a	n/a
n/a	"image-keyboard-response"	"7"	"143242"	"0.0-3.0-1.0-2.0-1.0"	"ld8429"	"600"	"1366"	"chrome"	"108.0.0"	"FALSE"	"Windows 10"	"61.04"	n/a	n/a	n/a	n/a	n/a	n/a	"Trial"	n/a	n/a	n/a	n/a	"NULL"	"NULL"	"NULL"	"854"	"stimuli/Ebbinghaus_0000000_1.40000.png"	"arrowleft"	n/a	"Ebbinghaus"	"arrowleft"	"1966"	"TRUE"	"Ebbinghaus"	"000000000000"	"1.4000000000"	"1"	"1"
n/a	"html-keyboard-response"	"8"	"144486"	"0.0-3.0-1.0-2.0-0.1"	"ld8429"	"600"	"1366"	"chrome"	"108.0.0"	"FALSE"	"Windows 10"	"61.04"	n/a	n/a	n/a	n/a	n/a	n/a	"fixation"	n/a	n/a	n/a	n/a	"NULL"	"NULL"	"NULL"	n/a	"<p style=\"color: black; font-size: 80px; padding-left: 33%; padding-right: 8%; padding-top: 25%; padding-bottom: 45%\">+</p>"	n/a	"1233"	n/a	n/a	n/a	n/a	n/a	n/a	n/a	n/a	n/a
n/a	"image-keyboard-response"	"9"	"145033"	"0.0-3.0-1.0-2.0-1.1"	"ld8429"	"600"	"1366"	"chrome"	"108.0.0"	"FALSE"	"Windows 10"	"61.04"	n/a	n/a	n/a	n/a	n/a	n/a	"Trial"	n/a	n/a	n/a	n/a	"NULL"	"NULL"	"NULL"	"546"	"stimuli/Ebbinghaus_0000000_-1.4000.png"	"arrowright"	n/a	"Ebbinghaus"	"arrowright"	"1244"	"TRUE"	"Ebbinghaus"	"000000000000"	"-1.400000000"	"1"	"2"
n/a	"html-keyboard-response"	"10"	"146171"	"0.0-3.0-1.0-2.0-0.2"	"ld8429"	"600"	"1366"	"chrome"	"108.0.0"	"FALSE"	"Windows 10"	"61.04"	n/a	n/a	n/a	n/a	n/a	n/a	"fixation"	n/a	n/a	n/a	n/a	"NULL"	"NULL"	"NULL"	n/a	"<p style=\"color: black; font-size: 80px; padding-left: 10%; padding-right: 23%; padding-top: 16%; padding-bottom: 24%\">+</p>"	n/a	"1122"	n/a	n/a	n/a	n/a	n/a	n/a	n/a	n/a	n/a
n/a	"image-keyboard-response"	"11"	"146655"	"0.0-3.0-1.0-2.0-1.2"	"ld8429"	"600"	"1366"	"chrome"	"108.0.0"	"FALSE"	"Windows 10"	"61.04"	n/a	n/a	n/a	n/a	n/a	n/a	"Trial"	n/a	n/a	n/a	n/a	"NULL"	"NULL"	"NULL"	"483"	"stimuli/Ebbinghaus_-100000_1.40000.png"	"arrowleft"	n/a	"Ebbinghaus"	"arrowleft"	"1138"	"TRUE"	"Ebbinghaus"	"-10000000000"	"1.4000000000"	"1"	"3"
n/a	"html-keyboard-response"	"12"	"147794"	"0.0-3.0-1.0-2.0-0.3"	"ld8429"	"600"	"1366"	"chrome"	"108.0.0"	"FALSE"	"Windows 10"	"61.04"	n/a	n/a	n/a	n/a	n/a	n/a	"fixation"	n/a	n/a	n/a	n/a	"NULL"	"NULL"	"NULL"	n/a	"<p style=\"color: black; font-size: 80px; padding-left: 11%; padding-right: 21%; padding-top: 28%; padding-bottom: 28%\">+</p>"	n/a	"1117"	n/a	n/a	n/a	n/a	n/a	n/a	n/a	n/a	n/a
n/a	"image-keyboard-response"	"13"	"148354"	"0.0-3.0-1.0-2.0-1.3"	"ld8429"	"600"	"1366"	"chrome"	"108.0.0"	"FALSE"	"Windows 10"	"61.04"	n/a	n/a	n/a	n/a	n/a	n/a	"Trial"	n/a	n/a	n/a	n/a	"NULL"	"NULL"	"NULL"	"559"	"stimuli/Ebbinghaus_-100000_-1.4000.png"	"arrowright"	n/a	"Ebbinghaus"	"arrowright"	"1139"	"TRUE"	"Ebbinghaus"	"-10000000000"	"-1.400000000"	"1"	"4"
n/a	"html-keyboard-response"	"14"	"149684"	"0.0-3.0-1.0-2.0-0.4"	"ld8429"	"600"	"1366"	"chrome"	"108.0.0"	"FALSE"	"Windows 10"	"61.04"	n/a	n/a	n/a	n/a	n/a	n/a	"fixation"	n/a	n/a	n/a	n/a	"NULL"	"NULL"	"NULL"	n/a	"<p style=\"color: black; font-size: 80px; padding-left: 25%; padding-right: 34%; padding-top: 12%; padding-bottom: 3%\">+</p>"	n/a	"1317"	n/a	n/a	n/a	n/a	n/a	n/a	n/a	n/a	n/a
n/a	"image-keyboard-response"	"15"	"150145"	"0.0-3.0-1.0-2.0-1.4"	"ld8429"	"600"	"1366"	"chrome"	"108.0.0"	"FALSE"	"Windows 10"	"61.04"	n/a	n/a	n/a	n/a	n/a	n/a	"Trial"	n/a	n/a	n/a	n/a	"NULL"	"NULL"	"NULL"	"460"	"stimuli/Ebbinghaus_1000000_1.40000.png"	"arrowleft"	n/a	"Ebbinghaus"	"arrowleft"	"1330"	"TRUE"	"Ebbinghaus"	"100000000000"	"1.4000000000"	"1"	"5"
n/a	"html-keyboard-response"	"16"	"151489"	"0.0-3.0-1.0-2.0-0.5"	"ld8429"	"600"	"1366"	"chrome"	"108.0.0"	"FALSE"	"Windows 10"	"61.04"	n/a	n/a	n/a	n/a	n/a	n/a	"fixation"	n/a	n/a	n/a	n/a	"NULL"	"NULL"	"NULL"	n/a	"<p style=\"color: black; font-size: 80px; padding-left: 24%; padding-right: 27%; padding-top: 34%; padding-bottom: 28%\">+</p>"	n/a	"1322"	n/a	n/a	n/a	n/a	n/a	n/a	n/a	n/a	n/a
n/a	"image-keyboard-response"	"17"	"151979"	"0.0-3.0-1.0-2.0-1.5"	"ld8429"	"600"	"1366"	"chrome"	"108.0.0"	"FALSE"	"Windows 10"	"61.04"	n/a	n/a	n/a	n/a	n/a	n/a	"Trial"	n/a	n/a	n/a	n/a	"NULL"	"NULL"	"NULL"	"488"	"stimuli/Ebbinghaus_1000000_-1.4000.png"	"arrowright"	n/a	"Ebbinghaus"	"arrowright"	"1344"	"TRUE"	"Ebbinghaus"	"100000000000"	"-1.400000000"	"1"	"6"
n/a	"html-button-response"	"18"	"154888"	"0.0-3.0-1.0-3.0"	"ld8429"	"600"	"1366"	"chrome"	"108.0.0"	"FALSE"	"Windows 10"	"61.04"	n/a	n/a	n/a	n/a	n/a	n/a	"practice_block_results"	n/a	n/a	n/a	n/a	"NULL"	"NULL"	"NULL"	"2903"	"<p style='color:rgb(76,175,80);'> Correct Responses: <b>100.00%</b></p><hr><p style='color:rgb(233,30,99);'> Average Response Time: <b>565.00</b> ms.</p>"	"0"	n/a	n/a	n/a	n/a	n/a	n/a	n/a	n/a	n/a	n/a
"TRUE"	"preload"	"19"	"155429"	"0.0-3.0-2.0-0.0"	"ld8429"	"600"	"1366"	"chrome"	"108.0.0"	"FALSE"	"Windows 10"	"61.04"	n/a	n/a	n/a	n/a	n/a	n/a	n/a	n/a	n/a	n/a	"FALSE"	"list()"	"list()"	"list()"	n/a	n/a	n/a	n/a	n/a	n/a	n/a	n/a	n/a	n/a	n/a	n/a	n/a
n/a	"html-keyboard-response"	"20"	"165021"	"0.0-3.0-2.0-1.0"	"ld8429"	"600"	"1366"	"chrome"	"108.0.0"	"FALSE"	"Windows 10"	"61.04"	n/a	n/a	n/a	n/a	n/a	n/a	n/a	n/a	n/a	n/a	n/a	"NULL"	"NULL"	"NULL"	"9591"	"<p><b>Practice</b></p><p>In this part, two horizontal red lines will appear one above the other.</p><p>Your task is to select which <b>line is longer</b> in length as fast as you can, without making errors.</p><p>Don't get distracted by the surrounding black arrows at the end of the red lines!</p><p>Press <b>the UP or the DOWN arrow</b> to indicate where is the longer <b>red line.</b></p><div style='float: center'><img src='materials/instructions/MullerLyer_Demo.png' height='300'></img><p><img src='utils/answer/answer_updown_keyboard.PNG' height='150'></img></p><p class='small'>In this example, the correct answer is the <b>UP arrow</b>.</p></div><p>Are you ready? <b>Press ENTER to start</b></p>"	"enter"	n/a	n/a	n/a	n/a	n/a	n/a	n/a	n/a	n/a	n/a
n/a	"html-keyboard-response"	"21"	"166842"	"0.0-3.0-2.0-2.0-0.0"	"ld8429"	"600"	"1366"	"chrome"	"108.0.0"	"FALSE"	"Windows 10"	"61.04"	n/a	n/a	n/a	n/a	n/a	n/a	"fixation"	n/a	n/a	n/a	n/a	"NULL"	"NULL"	"NULL"	n/a	"<p style=\"color: black; font-size: 80px; padding-left: 24%; padding-right: 9%; padding-top: 32%; padding-bottom: 6%\">+</p>"	n/a	"1283"	n/a	n/a	n/a	n/a	n/a	n/a	n/a	n/a	n/a
n/a	"image-keyboard-response"	"22"	"167589"	"0.0-3.0-2.0-2.0-1.0"	"ld8429"	"600"	"1366"	"chrome"	"108.0.0"	"FALSE"	"Windows 10"	"61.04"	n/a	n/a	n/a	n/a	n/a	n/a	"Trial"	n/a	n/a	n/a	n/a	"NULL"	"NULL"	"NULL"	"746"	"stimuli/MullerLyer_-230000_-0.7000.png"	"arrowdown"	n/a	"MullerLyer"	"arrowdown"	"1821"	"TRUE"	"MullerLyer"	"-23000000000"	"-0.700000000"	"1"	"7"
n/a	"html-keyboard-response"	"23"	"168796"	"0.0-3.0-2.0-2.0-0.1"	"ld8429"	"600"	"1366"	"chrome"	"108.0.0"	"FALSE"	"Windows 10"	"61.04"	n/a	n/a	n/a	n/a	n/a	n/a	"fixation"	n/a	n/a	n/a	n/a	"NULL"	"NULL"	"NULL"	n/a	"<p style=\"color: black; font-size: 80px; padding-left: 48%; padding-right: 12%; padding-top: 8%; padding-bottom: 32%\">+</p>"	n/a	"1194"	n/a	n/a	n/a	n/a	n/a	n/a	n/a	n/a	n/a
n/a	"image-keyboard-response"	"24"	"169851"	"0.0-3.0-2.0-2.0-1.1"	"ld8429"	"600"	"1366"	"chrome"	"108.0.0"	"FALSE"	"Windows 10"	"61.04"	n/a	n/a	n/a	n/a	n/a	n/a	"Trial"	n/a	n/a	n/a	n/a	"NULL"	"NULL"	"NULL"	"1052"	"stimuli/MullerLyer_2300000_-0.7000.png"	"arrowdown"	n/a	"MullerLyer"	"arrowdown"	"1207"	"TRUE"	"MullerLyer"	"230000000000"	"-0.700000000"	"1"	"8"
n/a	"html-keyboard-response"	"25"	"171311"	"0.0-3.0-2.0-2.0-0.2"	"ld8429"	"600"	"1366"	"chrome"	"108.0.0"	"FALSE"	"Windows 10"	"61.04"	n/a	n/a	n/a	n/a	n/a	n/a	"fixation"	n/a	n/a	n/a	n/a	"NULL"	"NULL"	"NULL"	n/a	"<p style=\"color: black; font-size: 80px; padding-left: 42%; padding-right: 21%; padding-top: 35%; padding-bottom: 12%\">+</p>"	n/a	"1444"	n/a	n/a	n/a	n/a	n/a	n/a	n/a	n/a	n/a
n/a	"image-keyboard-response"	"26"	"171835"	"0.0-3.0-2.0-2.0-1.2"	"ld8429"	"600"	"1366"	"chrome"	"108.0.0"	"FALSE"	"Windows 10"	"61.04"	n/a	n/a	n/a	n/a	n/a	n/a	"Trial"	n/a	n/a	n/a	n/a	"NULL"	"NULL"	"NULL"	"523"	"stimuli/MullerLyer_0000000_-0.7000.png"	"arrowdown"	n/a	"MullerLyer"	"arrowdown"	"1460"	"TRUE"	"MullerLyer"	"000000000000"	"-0.700000000"	"1"	"9"
n/a	"html-keyboard-response"	"27"	"173217"	"0.0-3.0-2.0-2.0-0.3"	"ld8429"	"600"	"1366"	"chrome"	"108.0.0"	"FALSE"	"Windows 10"	"61.04"	n/a	n/a	n/a	n/a	n/a	n/a	"fixation"	n/a	n/a	n/a	n/a	"NULL"	"NULL"	"NULL"	n/a	"<p style=\"color: black; font-size: 80px; padding-left: 9%; padding-right: 17%; padding-top: 6%; padding-bottom: 5%\">+</p>"	n/a	"1373"	n/a	n/a	n/a	n/a	n/a	n/a	n/a	n/a	n/a
n/a	"image-keyboard-response"	"28"	"173645"	"0.0-3.0-2.0-2.0-1.3"	"ld8429"	"600"	"1366"	"chrome"	"108.0.0"	"FALSE"	"Windows 10"	"61.04"	n/a	n/a	n/a	n/a	n/a	n/a	"Trial"	n/a	n/a	n/a	n/a	"NULL"	"NULL"	"NULL"	"426"	"stimuli/MullerLyer_-230000_0.70000.png"	"arrowup"	n/a	"MullerLyer"	"arrowup"	"1382"	"TRUE"	"MullerLyer"	"-23000000000"	"0.7000000000"	"1"	"10"
n/a	"html-keyboard-response"	"29"	"175017"	"0.0-3.0-2.0-2.0-0.4"	"ld8429"	"600"	"1366"	"chrome"	"108.0.0"	"FALSE"	"Windows 10"	"61.04"	n/a	n/a	n/a	n/a	n/a	n/a	"fixation"	n/a	n/a	n/a	n/a	"NULL"	"NULL"	"NULL"	n/a	"<p style=\"color: black; font-size: 80px; padding-left: 40%; padding-right: 6%; padding-top: 18%; padding-bottom: 10%\">+</p>"	n/a	"1356"	n/a	n/a	n/a	n/a	n/a	n/a	n/a	n/a	n/a
n/a	"image-keyboard-response"	"30"	"175467"	"0.0-3.0-2.0-2.0-1.4"	"ld8429"	"600"	"1366"	"chrome"	"108.0.0"	"FALSE"	"Windows 10"	"61.04"	n/a	n/a	n/a	n/a	n/a	n/a	"Trial"	n/a	n/a	n/a	n/a	"NULL"	"NULL"	"NULL"	"450"	"stimuli/MullerLyer_0000000_0.70000.png"	"arrowup"	n/a	"MullerLyer"	"arrowup"	"1372"	"TRUE"	"MullerLyer"	"000000000000"	"0.7000000000"	"1"	"11"
n/a	"html-keyboard-response"	"31"	"176912"	"0.0-3.0-2.0-2.0-0.5"	"ld8429"	"600"	"1366"	"chrome"	"108.0.0"	"FALSE"	"Windows 10"	"61.04"	n/a	n/a	n/a	n/a	n/a	n/a	"fixation"	n/a	n/a	n/a	n/a	"NULL"	"NULL"	"NULL"	n/a	"<p style=\"color: black; font-size: 80px; padding-left: 33%; padding-right: 9%; padding-top: 16%; padding-bottom: 36%\">+</p>"	n/a	"1427"	n/a	n/a	n/a	n/a	n/a	n/a	n/a	n/a	n/a
n/a	"image-keyboard-response"	"32"	"177528"	"0.0-3.0-2.0-2.0-1.5"	"ld8429"	"600"	"1366"	"chrome"	"108.0.0"	"FALSE"	"Windows 10"	"61.04"	n/a	n/a	n/a	n/a	n/a	n/a	"Trial"	n/a	n/a	n/a	n/a	"NULL"	"NULL"	"NULL"	"615"	"stimuli/MullerLyer_2300000_0.70000.png"	"arrowup"	n/a	"MullerLyer"	"arrowup"	"1445"	"TRUE"	"MullerLyer"	"230000000000"	"0.7000000000"	"1"	"12"
n/a	"html-button-response"	"33"	"179740"	"0.0-3.0-2.0-3.0"	"ld8429"	"600"	"1366"	"chrome"	"108.0.0"	"FALSE"	"Windows 10"	"61.04"	n/a	n/a	n/a	n/a	n/a	n/a	"practice_block_results"	n/a	n/a	n/a	n/a	"NULL"	"NULL"	"NULL"	"2207"	"<p style='color:rgb(76,175,80);'> Correct Responses: <b>100.00%</b></p><hr><p style='color:rgb(233,30,99);'> Average Response Time: <b>635.33</b> ms.</p>"	"0"	n/a	n/a	n/a	n/a	n/a	n/a	n/a	n/a	n/a	n/a
"TRUE"	"preload"	"34"	"180275"	"0.0-3.0-3.0-0.0"	"ld8429"	"600"	"1366"	"chrome"	"108.0.0"	"FALSE"	"Windows 10"	"61.04"	n/a	n/a	n/a	n/a	n/a	n/a	n/a	n/a	n/a	n/a	"FALSE"	"list()"	"list()"	"list()"	n/a	n/a	n/a	n/a	n/a	n/a	n/a	n/a	n/a	n/a	n/a	n/a	n/a
n/a	"html-keyboard-response"	"35"	"193035"	"0.0-3.0-3.0-1.0"	"ld8429"	"600"	"1366"	"chrome"	"108.0.0"	"FALSE"	"Windows 10"	"61.04"	n/a	n/a	n/a	n/a	n/a	n/a	n/a	n/a	n/a	n/a	n/a	"NULL"	"NULL"	"NULL"	"12759"	"<p><b>Practice</b></p><p>In this part, two red lines will appear side by side.</p><p>Your task is to tell <b>which line is longer</b> in length, regardless of their orientation, as fast as you can, and without making errors.</p><p>Don't get distracted by the orientation of the lines!</p><p>Press <b>the LEFT or the RIGHT arrow</b> to indicate which <b>line is the longer one.</b></p><div style='float: center'><img src='materials/instructions/VerticalHorizontal_Demo.png' height='300'></img><p><img src='utils/answer/answer_leftright_keyboard.PNG' height='150'></img></p><p class='small'>In this example, the correct answer is the <b>LEFT arrow</b>.</p></div><p>Are you ready? <b>Press ENTER to start</b></p>"	"enter"	n/a	n/a	n/a	n/a	n/a	n/a	n/a	n/a	n/a	n/a
n/a	"html-keyboard-response"	"36"	"194618"	"0.0-3.0-3.0-2.0-0.0"	"ld8429"	"600"	"1366"	"chrome"	"108.0.0"	"FALSE"	"Windows 10"	"61.04"	n/a	n/a	n/a	n/a	n/a	n/a	"fixation"	n/a	n/a	n/a	n/a	"NULL"	"NULL"	"NULL"	n/a	"<p style=\"color: black; font-size: 80px; padding-left: 35%; padding-right: 42%; padding-top: 25%; padding-bottom: 38%\">+</p>"	n/a	"1060"	n/a	n/a	n/a	n/a	n/a	n/a	n/a	n/a	n/a
n/a	"image-keyboard-response"	"37"	"195028"	"0.0-3.0-3.0-2.0-1.0"	"ld8429"	"600"	"1366"	"chrome"	"108.0.0"	"FALSE"	"Windows 10"	"61.04"	n/a	n/a	n/a	n/a	n/a	n/a	"Trial"	n/a	n/a	n/a	n/a	"NULL"	"NULL"	"NULL"	"409"	"stimuli/VerticalHorizontal_0000000_0.90000.png"	"arrowleft"	n/a	"VerticalHorizontal"	"arrowleft"	"1583"	"TRUE"	"VerticalHorizontal"	"000000000000"	"0.9000000000"	"1"	"13"
n/a	"html-keyboard-response"	"38"	"196143"	"0.0-3.0-3.0-2.0-0.1"	"ld8429"	"600"	"1366"	"chrome"	"108.0.0"	"FALSE"	"Windows 10"	"61.04"	n/a	n/a	n/a	n/a	n/a	n/a	"fixation"	n/a	n/a	n/a	n/a	"NULL"	"NULL"	"NULL"	n/a	"<p style=\"color: black; font-size: 80px; padding-left: 45%; padding-right: 41%; padding-top: 36%; padding-bottom: 18%\">+</p>"	n/a	"1105"	n/a	n/a	n/a	n/a	n/a	n/a	n/a	n/a	n/a
n/a	"image-keyboard-response"	"39"	"196563"	"0.0-3.0-3.0-2.0-1.1"	"ld8429"	"600"	"1366"	"chrome"	"108.0.0"	"FALSE"	"Windows 10"	"61.04"	n/a	n/a	n/a	n/a	n/a	n/a	"Trial"	n/a	n/a	n/a	n/a	"NULL"	"NULL"	"NULL"	"419"	"stimuli/VerticalHorizontal_3300000_0.90000.png"	"arrowleft"	n/a	"VerticalHorizontal"	"arrowleft"	"1115"	"TRUE"	"VerticalHorizontal"	"330000000000"	"0.9000000000"	"1"	"14"
n/a	"html-keyboard-response"	"40"	"197830"	"0.0-3.0-3.0-2.0-0.2"	"ld8429"	"600"	"1366"	"chrome"	"108.0.0"	"FALSE"	"Windows 10"	"61.04"	n/a	n/a	n/a	n/a	n/a	n/a	"fixation"	n/a	n/a	n/a	n/a	"NULL"	"NULL"	"NULL"	n/a	"<p style=\"color: black; font-size: 80px; padding-left: 45%; padding-right: 33%; padding-top: 39%; padding-bottom: 2%\">+</p>"	n/a	"1257"	n/a	n/a	n/a	n/a	n/a	n/a	n/a	n/a	n/a
n/a	"image-keyboard-response"	"41"	"198153"	"0.0-3.0-3.0-2.0-1.2"	"ld8429"	"600"	"1366"	"chrome"	"108.0.0"	"FALSE"	"Windows 10"	"61.04"	n/a	n/a	n/a	n/a	n/a	n/a	"Trial"	n/a	n/a	n/a	n/a	"NULL"	"NULL"	"NULL"	"322"	"stimuli/VerticalHorizontal_0000000_-0.9000.png"	"arrowright"	n/a	"VerticalHorizontal"	"arrowright"	"1267"	"TRUE"	"VerticalHorizontal"	"000000000000"	"-0.900000000"	"1"	"15"
n/a	"html-keyboard-response"	"42"	"199179"	"0.0-3.0-3.0-2.0-0.3"	"ld8429"	"600"	"1366"	"chrome"	"108.0.0"	"FALSE"	"Windows 10"	"61.04"	n/a	n/a	n/a	n/a	n/a	n/a	"fixation"	n/a	n/a	n/a	n/a	"NULL"	"NULL"	"NULL"	n/a	"<p style=\"color: black; font-size: 80px; padding-left: 45%; padding-right: 25%; padding-top: 4%; padding-bottom: 25%\">+</p>"	n/a	"1023"	n/a	n/a	n/a	n/a	n/a	n/a	n/a	n/a	n/a
n/a	"image-keyboard-response"	"43"	"199503"	"0.0-3.0-3.0-2.0-1.3"	"ld8429"	"600"	"1366"	"chrome"	"108.0.0"	"FALSE"	"Windows 10"	"61.04"	n/a	n/a	n/a	n/a	n/a	n/a	"Trial"	n/a	n/a	n/a	n/a	"NULL"	"NULL"	"NULL"	"323"	"stimuli/VerticalHorizontal_3300000_-0.9000.png"	"arrowright"	n/a	"VerticalHorizontal"	"arrowright"	"1026"	"TRUE"	"VerticalHorizontal"	"330000000000"	"-0.900000000"	"1"	"16"
n/a	"html-keyboard-response"	"44"	"200874"	"0.0-3.0-3.0-2.0-0.4"	"ld8429"	"600"	"1366"	"chrome"	"108.0.0"	"FALSE"	"Windows 10"	"61.04"	n/a	n/a	n/a	n/a	n/a	n/a	"fixation"	n/a	n/a	n/a	n/a	"NULL"	"NULL"	"NULL"	n/a	"<p style=\"color: black; font-size: 80px; padding-left: 16%; padding-right: 32%; padding-top: 33%; padding-bottom: 42%\">+</p>"	n/a	"1358"	n/a	n/a	n/a	n/a	n/a	n/a	n/a	n/a	n/a
n/a	"image-keyboard-response"	"45"	"201208"	"0.0-3.0-3.0-2.0-1.4"	"ld8429"	"600"	"1366"	"chrome"	"108.0.0"	"FALSE"	"Windows 10"	"61.04"	n/a	n/a	n/a	n/a	n/a	n/a	"Trial"	n/a	n/a	n/a	n/a	"NULL"	"NULL"	"NULL"	"332"	"stimuli/VerticalHorizontal_-330000_0.90000.png"	"arrowleft"	n/a	"VerticalHorizontal"	"arrowleft"	"1371"	"TRUE"	"VerticalHorizontal"	"-33000000000"	"0.9000000000"	"1"	"17"
n/a	"html-keyboard-response"	"46"	"202469"	"0.0-3.0-3.0-2.0-0.5"	"ld8429"	"600"	"1366"	"chrome"	"108.0.0"	"FALSE"	"Windows 10"	"61.04"	n/a	n/a	n/a	n/a	n/a	n/a	"fixation"	n/a	n/a	n/a	n/a	"NULL"	"NULL"	"NULL"	n/a	"<p style=\"color: black; font-size: 80px; padding-left: 2%; padding-right: 33%; padding-top: 39%; padding-bottom: 29%\">+</p>"	n/a	"1256"	n/a	n/a	n/a	n/a	n/a	n/a	n/a	n/a	n/a
n/a	"image-keyboard-response"	"47"	"202788"	"0.0-3.0-3.0-2.0-1.5"	"ld8429"	"600"	"1366"	"chrome"	"108.0.0"	"FALSE"	"Windows 10"	"61.04"	n/a	n/a	n/a	n/a	n/a	n/a	"Trial"	n/a	n/a	n/a	n/a	"NULL"	"NULL"	"NULL"	"318"	"stimuli/VerticalHorizontal_-330000_-0.9000.png"	"arrowright"	n/a	"VerticalHorizontal"	"arrowright"	"1261"	"TRUE"	"VerticalHorizontal"	"-33000000000"	"-0.900000000"	"1"	"18"
n/a	"html-button-response"	"48"	"204544"	"0.0-3.0-3.0-3.0"	"ld8429"	"600"	"1366"	"chrome"	"108.0.0"	"FALSE"	"Windows 10"	"61.04"	n/a	n/a	n/a	n/a	n/a	n/a	"practice_block_results"	n/a	n/a	n/a	n/a	"NULL"	"NULL"	"NULL"	"1755"	"<p style='color:rgb(76,175,80);'> Correct Responses: <b>100.00%</b></p><hr><p style='color:rgb(233,30,99);'> Average Response Time: <b>353.83</b> ms.</p>"	"0"	n/a	n/a	n/a	n/a	n/a	n/a	n/a	n/a	n/a	n/a
n/a	"html-button-response"	"49"	"267607"	"0.0-3.0-4.0"	"ld8429"	"600"	"1366"	"chrome"	"108.0.0"	"FALSE"	"Windows 10"	"61.04"	n/a	n/a	n/a	n/a	n/a	n/a	"practice_debrief"	n/a	n/a	n/a	n/a	"NULL"	"NULL"	"NULL"	"62548"	"<p><b>TRAINING COMPLETED</b></p><p>In the next phase, there will be more trials, and some might be harder too.<br> Moreover, after each illusion block, a <b>score</b> will be calculated based on speed (time you took to answer) and accuracy (number of errors).</p><p>Try to keep up a high score!</p><br><p>Note that it can be <i>really</i> challenging at times, so you will need to rely on your <b>intuition</b> and gut feeling to answer as fast as you can without making errors.</p><p>Each illusion block will be repeated two times (so that you have the opportunity to improve your score), but the order of the blocks is random.</p><p>Remember, your goal is to be as <b>fast</b> and <b>accurate</b> as possible. Good luck!</p><br>"	"0"	n/a	n/a	n/a	n/a	n/a	n/a	n/a	n/a	n/a	n/a
"TRUE"	"preload"	"50"	"267802"	"0.0-4.0-0.0"	"ld8429"	"600"	"1366"	"chrome"	"108.0.0"	"FALSE"	"Windows 10"	"61.04"	n/a	n/a	n/a	n/a	n/a	n/a	n/a	n/a	n/a	n/a	"FALSE"	"list()"	"list()"	"list()"	n/a	n/a	n/a	n/a	n/a	n/a	n/a	n/a	n/a	n/a	n/a	n/a	n/a
n/a	"html-keyboard-response"	"51"	"273203"	"0.0-4.0-1.0"	"ld8429"	"600"	"1366"	"chrome"	"108.0.0"	"FALSE"	"Windows 10"	"61.04"	n/a	n/a	n/a	n/a	n/a	n/a	n/a	n/a	n/a	n/a	n/a	"NULL"	"NULL"	"NULL"	"5400"	"<p><b>Part 1/6</b></p><p>In this part, two red circles will appear side by side on the screen.</p><p>Your task is to select which <b>red circle is bigger</b> in size as fast as you can, without making errors.</p><p>Don't get distracted by the surrounding black circles around the red circles!</p><p>Press <b>the LEFT or the RIGHT arrow</b> to indicate which is the bigger <b>red circle.</b></p><div style='float: center'><img src='materials/instructions/Ebbinghaus_Demo.png' height='300'></img><p><img src='utils/answer/answer_leftright_keyboard.PNG' height='150'></img></p><p class='small'>In this example, the correct answer is the <b>LEFT arrow</b>.</p></div><p>Are you ready? <b>Press ENTER to start</b></p>"	"enter"	n/a	n/a	n/a	n/a	n/a	n/a	n/a	n/a	n/a	n/a
n/a	"html-keyboard-response"	"52"	"274827"	"0.0-4.0-2.0-0.0"	"ld8429"	"600"	"1366"	"chrome"	"108.0.0"	"FALSE"	"Windows 10"	"61.04"	n/a	n/a	n/a	n/a	n/a	n/a	"fixation"	n/a	n/a	n/a	n/a	"NULL"	"NULL"	"NULL"	n/a	"<p style=\"color: black; font-size: 80px; padding-left: 15%; padding-right: 5%; padding-top: 8%; padding-bottom: 41%\">+</p>"	n/a	"1118"	n/a	n/a	n/a	n/a	n/a	n/a	n/a	n/a	n/a
n/a	"image-keyboard-response"	"53"	"275320"	"0.0-4.0-2.0-1.0"	"ld8429"	"600"	"1366"	"chrome"	"108.0.0"	"FALSE"	"Windows 10"	"61.04"	n/a	n/a	n/a	n/a	n/a	n/a	"Trial"	n/a	n/a	n/a	n/a	"NULL"	"NULL"	"NULL"	"492"	"stimuli/Ebbinghaus_0.10000_0.11071.png"	"arrowleft"	n/a	"Ebbinghaus"	"arrowleft"	"1624"	"TRUE"	"Ebbinghaus"	"0.1000000000"	"0.1107100000"	"1"	"19"
n/a	"html-keyboard-response"	"54"	"276736"	"0.0-4.0-2.0-0.1"	"ld8429"	"600"	"1366"	"chrome"	"108.0.0"	"FALSE"	"Windows 10"	"61.04"	n/a	n/a	n/a	n/a	n/a	n/a	"fixation"	n/a	n/a	n/a	n/a	"NULL"	"NULL"	"NULL"	n/a	"<p style=\"color: black; font-size: 80px; padding-left: 29%; padding-right: 7%; padding-top: 25%; padding-bottom: 1%\">+</p>"	n/a	"1399"	n/a	n/a	n/a	n/a	n/a	n/a	n/a	n/a	n/a
n/a	"image-keyboard-response"	"55"	"277195"	"0.0-4.0-2.0-1.1"	"ld8429"	"600"	"1366"	"chrome"	"108.0.0"	"FALSE"	"Windows 10"	"61.04"	n/a	n/a	n/a	n/a	n/a	n/a	"Trial"	n/a	n/a	n/a	n/a	"NULL"	"NULL"	"NULL"	"459"	"stimuli/Ebbinghaus_-0.61429_-0.2800.png"	"arrowright"	n/a	"Ebbinghaus"	"arrowright"	"1416"	"TRUE"	"Ebbinghaus"	"-0.614290000"	"-0.280000000"	"1"	"20"
n/a	"html-keyboard-response"	"56"	"278263"	"0.0-4.0-2.0-0.2"	"ld8429"	"600"	"1366"	"chrome"	"108.0.0"	"FALSE"	"Windows 10"	"61.04"	n/a	n/a	n/a	n/a	n/a	n/a	"fixation"	n/a	n/a	n/a	n/a	"NULL"	"NULL"	"NULL"	n/a	"<p style=\"color: black; font-size: 80px; padding-left: 21%; padding-right: 14%; padding-top: 36%; padding-bottom: 25%\">+</p>"	n/a	"1051"	n/a	n/a	n/a	n/a	n/a	n/a	n/a	n/a	n/a
n/a	"image-keyboard-response"	"57"	"278741"	"0.0-4.0-2.0-1.2"	"ld8429"	"600"	"1366"	"chrome"	"108.0.0"	"FALSE"	"Windows 10"	"61.04"	n/a	n/a	n/a	n/a	n/a	n/a	"Trial"	n/a	n/a	n/a	n/a	"NULL"	"NULL"	"NULL"	"477"	"stimuli/Ebbinghaus_-0.35714_-0.2150.png"	"arrowright"	n/a	"Ebbinghaus"	"arrowright"	"1068"	"TRUE"	"Ebbinghaus"	"-0.357140000"	"-0.215000000"	"1"	"21"
n/a	"html-keyboard-response"	"58"	"279905"	"0.0-4.0-2.0-0.3"	"ld8429"	"600"	"1366"	"chrome"	"108.0.0"	"FALSE"	"Windows 10"	"61.04"	n/a	n/a	n/a	n/a	n/a	n/a	"fixation"	n/a	n/a	n/a	n/a	"NULL"	"NULL"	"NULL"	n/a	"<p style=\"color: black; font-size: 80px; padding-left: 20%; padding-right: 12%; padding-top: 20%; padding-bottom: 28%\">+</p>"	n/a	"1156"	n/a	n/a	n/a	n/a	n/a	n/a	n/a	n/a	n/a
n/a	"image-keyboard-response"	"59"	"280302"	"0.0-4.0-2.0-1.3"	"ld8429"	"600"	"1366"	"chrome"	"108.0.0"	"FALSE"	"Windows 10"	"61.04"	n/a	n/a	n/a	n/a	n/a	n/a	"Trial"	n/a	n/a	n/a	n/a	"NULL"	"NULL"	"NULL"	"396"	"stimuli/Ebbinghaus_0.10000_0.28000.png"	"arrowleft"	n/a	"Ebbinghaus"	"arrowleft"	"1164"	"TRUE"	"Ebbinghaus"	"0.1000000000"	"0.2800000000"	"1"	"22"
n/a	"html-keyboard-response"	"60"	"281387"	"0.0-4.0-2.0-0.4"	"ld8429"	"600"	"1366"	"chrome"	"108.0.0"	"FALSE"	"Windows 10"	"61.04"	n/a	n/a	n/a	n/a	n/a	n/a	"fixation"	n/a	n/a	n/a	n/a	"NULL"	"NULL"	"NULL"	n/a	"<p style=\"color: black; font-size: 80px; padding-left: 32%; padding-right: 7%; padding-top: 50%; padding-bottom: 23%\">+</p>"	n/a	"1072"	n/a	n/a	n/a	n/a	n/a	n/a	n/a	n/a	n/a
n/a	"image-keyboard-response"	"61"	"281850"	"0.0-4.0-2.0-1.4"	"ld8429"	"600"	"1366"	"chrome"	"108.0.0"	"FALSE"	"Windows 10"	"61.04"	n/a	n/a	n/a	n/a	n/a	n/a	"Trial"	n/a	n/a	n/a	n/a	"NULL"	"NULL"	"NULL"	"462"	"stimuli/Ebbinghaus_-0.87143_-0.2150.png"	"arrowright"	n/a	"Ebbinghaus"	"arrowright"	"1085"	"TRUE"	"Ebbinghaus"	"-0.871430000"	"-0.215000000"	"1"	"23"
n/a	"html-keyboard-response"	"62"	"283311"	"0.0-4.0-2.0-0.5"	"ld8429"	"600"	"1366"	"chrome"	"108.0.0"	"FALSE"	"Windows 10"	"61.04"	n/a	n/a	n/a	n/a	n/a	n/a	"fixation"	n/a	n/a	n/a	n/a	"NULL"	"NULL"	"NULL"	n/a	"<p style=\"color: black; font-size: 80px; padding-left: 13%; padding-right: 31%; padding-top: 10%; padding-bottom: 2%\">+</p>"	n/a	"1452"	n/a	n/a	n/a	n/a	n/a	n/a	n/a	n/a	n/a
n/a	"image-keyboard-response"	"63"	"283804"	"0.0-4.0-2.0-1.5"	"ld8429"	"600"	"1366"	"chrome"	"108.0.0"	"FALSE"	"Windows 10"	"61.04"	n/a	n/a	n/a	n/a	n/a	n/a	"Trial"	n/a	n/a	n/a	n/a	"NULL"	"NULL"	"NULL"	"492"	"stimuli/Ebbinghaus_-0.1000_0.15857.png"	"arrowleft"	n/a	"Ebbinghaus"	"arrowleft"	"1461"	"TRUE"	"Ebbinghaus"	"-0.100000000"	"0.1585700000"	"1"	"24"
n/a	"html-keyboard-response"	"64"	"285229"	"0.0-4.0-2.0-0.6"	"ld8429"	"600"	"1366"	"chrome"	"108.0.0"	"FALSE"	"Windows 10"	"61.04"	n/a	n/a	n/a	n/a	n/a	n/a	"fixation"	n/a	n/a	n/a	n/a	"NULL"	"NULL"	"NULL"	n/a	"<p style=\"color: black; font-size: 80px; padding-left: 35%; padding-right: 10%; padding-top: 12%; padding-bottom: 49%\">+</p>"	n/a	"1416"	n/a	n/a	n/a	n/a	n/a	n/a	n/a	n/a	n/a
n/a	"image-keyboard-response"	"65"	"285688"	"0.0-4.0-2.0-1.6"	"ld8429"	"600"	"1366"	"chrome"	"108.0.0"	"FALSE"	"Windows 10"	"61.04"	n/a	n/a	n/a	n/a	n/a	n/a	"Trial"	n/a	n/a	n/a	n/a	"NULL"	"NULL"	"NULL"	"458"	"stimuli/Ebbinghaus_0.35714_0.21500.png"	"arrowleft"	n/a	"Ebbinghaus"	"arrowleft"	"1425"	"TRUE"	"Ebbinghaus"	"0.3571400000"	"0.2150000000"	"1"	"25"
n/a	"html-keyboard-response"	"66"	"287109"	"0.0-4.0-2.0-0.7"	"ld8429"	"600"	"1366"	"chrome"	"108.0.0"	"FALSE"	"Windows 10"	"61.04"	n/a	n/a	n/a	n/a	n/a	n/a	"fixation"	n/a	n/a	n/a	n/a	"NULL"	"NULL"	"NULL"	n/a	"<p style=\"color: black; font-size: 80px; padding-left: 35%; padding-right: 42%; padding-top: 37%; padding-bottom: 49%\">+</p>"	n/a	"1415"	n/a	n/a	n/a	n/a	n/a	n/a	n/a	n/a	n/a
n/a	"image-keyboard-response"	"67"	"287552"	"0.0-4.0-2.0-1.7"	"ld8429"	"600"	"1366"	"chrome"	"108.0.0"	"FALSE"	"Windows 10"	"61.04"	n/a	n/a	n/a	n/a	n/a	n/a	"Trial"	n/a	n/a	n/a	n/a	"NULL"	"NULL"	"NULL"	"443"	"stimuli/Ebbinghaus_-0.35714_0.11071.png"	"arrowright"	n/a	"Ebbinghaus"	"arrowleft"	"1421"	"FALSE"	"Ebbinghaus"	"-0.357140000"	"0.1107100000"	"1"	"26"
n/a	"html-keyboard-response"	"68"	"288689"	"0.0-4.0-2.0-0.8"	"ld8429"	"600"	"1366"	"chrome"	"108.0.0"	"FALSE"	"Windows 10"	"61.04"	n/a	n/a	n/a	n/a	n/a	n/a	"fixation"	n/a	n/a	n/a	n/a	"NULL"	"NULL"	"NULL"	n/a	"<p style=\"color: black; font-size: 80px; padding-left: 43%; padding-right: 7%; padding-top: 9%; padding-bottom: 18%\">+</p>"	n/a	"1127"	n/a	n/a	n/a	n/a	n/a	n/a	n/a	n/a	n/a
n/a	"image-keyboard-response"	"69"	"289148"	"0.0-4.0-2.0-1.8"	"ld8429"	"600"	"1366"	"chrome"	"108.0.0"	"FALSE"	"Windows 10"	"61.04"	n/a	n/a	n/a	n/a	n/a	n/a	"Trial"	n/a	n/a	n/a	n/a	"NULL"	"NULL"	"NULL"	"458"	"stimuli/Ebbinghaus_0.87143_-0.11071.png"	"arrowright"	n/a	"Ebbinghaus"	"arrowright"	"1137"	"TRUE"	"Ebbinghaus"	"0.8714300000"	"-0.110710000"	"1"	"27"
n/a	"html-keyboard-response"	"70"	"290232"	"0.0-4.0-2.0-0.9"	"ld8429"	"600"	"1366"	"chrome"	"108.0.0"	"FALSE"	"Windows 10"	"61.04"	n/a	n/a	n/a	n/a	n/a	n/a	"fixation"	n/a	n/a	n/a	n/a	"NULL"	"NULL"	"NULL"	n/a	"<p style=\"color: black; font-size: 80px; padding-left: 42%; padding-right: 17%; padding-top: 17%; padding-bottom: 25%\">+</p>"	n/a	"1076"	n/a	n/a	n/a	n/a	n/a	n/a	n/a	n/a	n/a
n/a	"image-keyboard-response"	"71"	"290771"	"0.0-4.0-2.0-1.9"	"ld8429"	"600"	"1366"	"chrome"	"108.0.0"	"FALSE"	"Windows 10"	"61.04"	n/a	n/a	n/a	n/a	n/a	n/a	"Trial"	n/a	n/a	n/a	n/a	"NULL"	"NULL"	"NULL"	"536"	"stimuli/Ebbinghaus_-0.87143_0.21500.png"	"arrowleft"	n/a	"Ebbinghaus"	"arrowleft"	"1084"	"TRUE"	"Ebbinghaus"	"-0.871430000"	"0.2150000000"	"1"	"28"
n/a	"html-keyboard-response"	"72"	"291888"	"0.0-4.0-2.0-0.10"	"ld8429"	"600"	"1366"	"chrome"	"108.0.0"	"FALSE"	"Windows 10"	"61.04"	n/a	n/a	n/a	n/a	n/a	n/a	"fixation"	n/a	n/a	n/a	n/a	"NULL"	"NULL"	"NULL"	n/a	"<p style=\"color: black; font-size: 80px; padding-left: 27%; padding-right: 44%; padding-top: 5%; padding-bottom: 46%\">+</p>"	n/a	"1108"	n/a	n/a	n/a	n/a	n/a	n/a	n/a	n/a	n/a
n/a	"image-keyboard-response"	"73"	"292276"	"0.0-4.0-2.0-1.10"	"ld8429"	"600"	"1366"	"chrome"	"108.0.0"	"FALSE"	"Windows 10"	"61.04"	n/a	n/a	n/a	n/a	n/a	n/a	"Trial"	n/a	n/a	n/a	n/a	"NULL"	"NULL"	"NULL"	"386"	"stimuli/Ebbinghaus_0.61429_0.21500.png"	"arrowleft"	n/a	"Ebbinghaus"	"arrowleft"	"1117"	"TRUE"	"Ebbinghaus"	"0.6142900000"	"0.2150000000"	"1"	"29"
n/a	"html-keyboard-response"	"74"	"293476"	"0.0-4.0-2.0-0.11"	"ld8429"	"600"	"1366"	"chrome"	"108.0.0"	"FALSE"	"Windows 10"	"61.04"	n/a	n/a	n/a	n/a	n/a	n/a	"fixation"	n/a	n/a	n/a	n/a	"NULL"	"NULL"	"NULL"	n/a	"<p style=\"color: black; font-size: 80px; padding-left: 46%; padding-right: 17%; padding-top: 1%; padding-bottom: 10%\">+</p>"	n/a	"1190"	n/a	n/a	n/a	n/a	n/a	n/a	n/a	n/a	n/a
n/a	"image-keyboard-response"	"75"	"293981"	"0.0-4.0-2.0-1.11"	"ld8429"	"600"	"1366"	"chrome"	"108.0.0"	"FALSE"	"Windows 10"	"61.04"	n/a	n/a	n/a	n/a	n/a	n/a	"Trial"	n/a	n/a	n/a	n/a	"NULL"	"NULL"	"NULL"	"504"	"stimuli/Ebbinghaus_0.87143_0.15857.png"	"arrowright"	n/a	"Ebbinghaus"	"arrowleft"	"1200"	"FALSE"	"Ebbinghaus"	"0.8714300000"	"0.1585700000"	"1"	"30"
n/a	"html-keyboard-response"	"76"	"295146"	"0.0-4.0-2.0-0.12"	"ld8429"	"600"	"1366"	"chrome"	"108.0.0"	"FALSE"	"Windows 10"	"61.04"	n/a	n/a	n/a	n/a	n/a	n/a	"fixation"	n/a	n/a	n/a	n/a	"NULL"	"NULL"	"NULL"	n/a	"<p style=\"color: black; font-size: 80px; padding-left: 46%; padding-right: 3%; padding-top: 34%; padding-bottom: 41%\">+</p>"	n/a	"1156"	n/a	n/a	n/a	n/a	n/a	n/a	n/a	n/a	n/a
n/a	"image-keyboard-response"	"77"	"295764"	"0.0-4.0-2.0-1.12"	"ld8429"	"600"	"1366"	"chrome"	"108.0.0"	"FALSE"	"Windows 10"	"61.04"	n/a	n/a	n/a	n/a	n/a	n/a	"Trial"	n/a	n/a	n/a	n/a	"NULL"	"NULL"	"NULL"	"616"	"stimuli/Ebbinghaus_-0.87143_0.11071.png"	"arrowleft"	n/a	"Ebbinghaus"	"arrowleft"	"1165"	"TRUE"	"Ebbinghaus"	"-0.871430000"	"0.1107100000"	"1"	"31"
n/a	"html-keyboard-response"	"78"	"296922"	"0.0-4.0-2.0-0.13"	"ld8429"	"600"	"1366"	"chrome"	"108.0.0"	"FALSE"	"Windows 10"	"61.04"	n/a	n/a	n/a	n/a	n/a	n/a	"fixation"	n/a	n/a	n/a	n/a	"NULL"	"NULL"	"NULL"	n/a	"<p style=\"color: black; font-size: 80px; padding-left: 30%; padding-right: 14%; padding-top: 11%; padding-bottom: 30%\">+</p>"	n/a	"1146"	n/a	n/a	n/a	n/a	n/a	n/a	n/a	n/a	n/a
n/a	"image-keyboard-response"	"79"	"297348"	"0.0-4.0-2.0-1.13"	"ld8429"	"600"	"1366"	"chrome"	"108.0.0"	"FALSE"	"Windows 10"	"61.04"	n/a	n/a	n/a	n/a	n/a	n/a	"Trial"	n/a	n/a	n/a	n/a	"NULL"	"NULL"	"NULL"	"425"	"stimuli/Ebbinghaus_0.61429_-0.2800.png"	"arrowright"	n/a	"Ebbinghaus"	"arrowright"	"1158"	"TRUE"	"Ebbinghaus"	"0.6142900000"	"-0.280000000"	"1"	"32"
n/a	"html-keyboard-response"	"80"	"298764"	"0.0-4.0-2.0-0.14"	"ld8429"	"600"	"1366"	"chrome"	"108.0.0"	"FALSE"	"Windows 10"	"61.04"	n/a	n/a	n/a	n/a	n/a	n/a	"fixation"	n/a	n/a	n/a	n/a	"NULL"	"NULL"	"NULL"	n/a	"<p style=\"color: black; font-size: 80px; padding-left: 24%; padding-right: 33%; padding-top: 20%; padding-bottom: 11%\">+</p>"	n/a	"1411"	n/a	n/a	n/a	n/a	n/a	n/a	n/a	n/a	n/a
n/a	"image-keyboard-response"	"81"	"299467"	"0.0-4.0-2.0-1.14"	"ld8429"	"600"	"1366"	"chrome"	"108.0.0"	"FALSE"	"Windows 10"	"61.04"	n/a	n/a	n/a	n/a	n/a	n/a	"Trial"	n/a	n/a	n/a	n/a	"NULL"	"NULL"	"NULL"	"702"	"stimuli/Ebbinghaus_-0.1000_-0.2800.png"	"arrowright"	n/a	"Ebbinghaus"	"arrowright"	"1416"	"TRUE"	"Ebbinghaus"	"-0.100000000"	"-0.280000000"	"1"	"33"
n/a	"html-keyboard-response"	"82"	"300529"	"0.0-4.0-2.0-0.15"	"ld8429"	"600"	"1366"	"chrome"	"108.0.0"	"FALSE"	"Windows 10"	"61.04"	n/a	n/a	n/a	n/a	n/a	n/a	"fixation"	n/a	n/a	n/a	n/a	"NULL"	"NULL"	"NULL"	n/a	"<p style=\"color: black; font-size: 80px; padding-left: 11%; padding-right: 49%; padding-top: 22%; padding-bottom: 27%\">+</p>"	n/a	"1042"	n/a	n/a	n/a	n/a	n/a	n/a	n/a	n/a	n/a
n/a	"image-keyboard-response"	"83"	"301035"	"0.0-4.0-2.0-1.15"	"ld8429"	"600"	"1366"	"chrome"	"108.0.0"	"FALSE"	"Windows 10"	"61.04"	n/a	n/a	n/a	n/a	n/a	n/a	"Trial"	n/a	n/a	n/a	n/a	"NULL"	"NULL"	"NULL"	"505"	"stimuli/Ebbinghaus_-0.87143_-0.2800.png"	"arrowleft"	n/a	"Ebbinghaus"	"arrowright"	"1062"	"FALSE"	"Ebbinghaus"	"-0.871430000"	"-0.280000000"	"1"	"34"
n/a	"html-keyboard-response"	"84"	"302450"	"0.0-4.0-2.0-0.16"	"ld8429"	"600"	"1366"	"chrome"	"108.0.0"	"FALSE"	"Windows 10"	"61.04"	n/a	n/a	n/a	n/a	n/a	n/a	"fixation"	n/a	n/a	n/a	n/a	"NULL"	"NULL"	"NULL"	n/a	"<p style=\"color: black; font-size: 80px; padding-left: 43%; padding-right: 39%; padding-top: 20%; padding-bottom: 35%\">+</p>"	n/a	"1394"	n/a	n/a	n/a	n/a	n/a	n/a	n/a	n/a	n/a
n/a	"image-keyboard-response"	"85"	"303282"	"0.0-4.0-2.0-1.16"	"ld8429"	"600"	"1366"	"chrome"	"108.0.0"	"FALSE"	"Windows 10"	"61.04"	n/a	n/a	n/a	n/a	n/a	n/a	"Trial"	n/a	n/a	n/a	n/a	"NULL"	"NULL"	"NULL"	"831"	"stimuli/Ebbinghaus_0.10000_-0.15857.png"	"arrowright"	n/a	"Ebbinghaus"	"arrowright"	"1415"	"TRUE"	"Ebbinghaus"	"0.1000000000"	"-0.158570000"	"1"	"35"
n/a	"html-keyboard-response"	"86"	"304568"	"0.0-4.0-2.0-0.17"	"ld8429"	"600"	"1366"	"chrome"	"108.0.0"	"FALSE"	"Windows 10"	"61.04"	n/a	n/a	n/a	n/a	n/a	n/a	"fixation"	n/a	n/a	n/a	n/a	"NULL"	"NULL"	"NULL"	n/a	"<p style=\"color: black; font-size: 80px; padding-left: 6%; padding-right: 46%; padding-top: 23%; padding-bottom: 45%\">+</p>"	n/a	"1279"	n/a	n/a	n/a	n/a	n/a	n/a	n/a	n/a	n/a
n/a	"image-keyboard-response"	"87"	"305032"	"0.0-4.0-2.0-1.17"	"ld8429"	"600"	"1366"	"chrome"	"108.0.0"	"FALSE"	"Windows 10"	"61.04"	n/a	n/a	n/a	n/a	n/a	n/a	"Trial"	n/a	n/a	n/a	n/a	"NULL"	"NULL"	"NULL"	"462"	"stimuli/Ebbinghaus_-0.35714_0.15857.png"	"arrowleft"	n/a	"Ebbinghaus"	"arrowleft"	"1286"	"TRUE"	"Ebbinghaus"	"-0.357140000"	"0.1585700000"	"1"	"36"
n/a	"html-keyboard-response"	"88"	"306284"	"0.0-4.0-2.0-0.18"	"ld8429"	"600"	"1366"	"chrome"	"108.0.0"	"FALSE"	"Windows 10"	"61.04"	n/a	n/a	n/a	n/a	n/a	n/a	"fixation"	n/a	n/a	n/a	n/a	"NULL"	"NULL"	"NULL"	n/a	"<p style=\"color: black; font-size: 80px; padding-left: 33%; padding-right: 1%; padding-top: 45%; padding-bottom: 1%\">+</p>"	n/a	"1247"	n/a	n/a	n/a	n/a	n/a	n/a	n/a	n/a	n/a
n/a	"image-keyboard-response"	"89"	"306831"	"0.0-4.0-2.0-1.18"	"ld8429"	"600"	"1366"	"chrome"	"108.0.0"	"FALSE"	"Windows 10"	"61.04"	n/a	n/a	n/a	n/a	n/a	n/a	"Trial"	n/a	n/a	n/a	n/a	"NULL"	"NULL"	"NULL"	"547"	"stimuli/Ebbinghaus_-0.87143_0.15857.png"	"arrowleft"	n/a	"Ebbinghaus"	"arrowleft"	"1252"	"TRUE"	"Ebbinghaus"	"-0.871430000"	"0.1585700000"	"1"	"37"
n/a	"html-keyboard-response"	"90"	"307904"	"0.0-4.0-2.0-0.19"	"ld8429"	"600"	"1366"	"chrome"	"108.0.0"	"FALSE"	"Windows 10"	"61.04"	n/a	n/a	n/a	n/a	n/a	n/a	"fixation"	n/a	n/a	n/a	n/a	"NULL"	"NULL"	"NULL"	n/a	"<p style=\"color: black; font-size: 80px; padding-left: 45%; padding-right: 19%; padding-top: 14%; padding-bottom: 23%\">+</p>"	n/a	"1066"	n/a	n/a	n/a	n/a	n/a	n/a	n/a	n/a	n/a
n/a	"image-keyboard-response"	"91"	"308564"	"0.0-4.0-2.0-1.19"	"ld8429"	"600"	"1366"	"chrome"	"108.0.0"	"FALSE"	"Windows 10"	"61.04"	n/a	n/a	n/a	n/a	n/a	n/a	"Trial"	n/a	n/a	n/a	n/a	"NULL"	"NULL"	"NULL"	"659"	"stimuli/Ebbinghaus_0.35714_0.15857.png"	"arrowleft"	n/a	"Ebbinghaus"	"arrowleft"	"1073"	"TRUE"	"Ebbinghaus"	"0.3571400000"	"0.1585700000"	"1"	"38"
n/a	"html-keyboard-response"	"92"	"309701"	"0.0-4.0-2.0-0.20"	"ld8429"	"600"	"1366"	"chrome"	"108.0.0"	"FALSE"	"Windows 10"	"61.04"	n/a	n/a	n/a	n/a	n/a	n/a	"fixation"	n/a	n/a	n/a	n/a	"NULL"	"NULL"	"NULL"	n/a	"<p style=\"color: black; font-size: 80px; padding-left: 8%; padding-right: 26%; padding-top: 28%; padding-bottom: 5%\">+</p>"	n/a	"1127"	n/a	n/a	n/a	n/a	n/a	n/a	n/a	n/a	n/a
n/a	"image-keyboard-response"	"93"	"310144"	"0.0-4.0-2.0-1.20"	"ld8429"	"600"	"1366"	"chrome"	"108.0.0"	"FALSE"	"Windows 10"	"61.04"	n/a	n/a	n/a	n/a	n/a	n/a	"Trial"	n/a	n/a	n/a	n/a	"NULL"	"NULL"	"NULL"	"442"	"stimuli/Ebbinghaus_-0.1000_-0.15857.png"	"arrowright"	n/a	"Ebbinghaus"	"arrowright"	"1137"	"TRUE"	"Ebbinghaus"	"-0.100000000"	"-0.158570000"	"1"	"39"
n/a	"html-keyboard-response"	"94"	"311323"	"0.0-4.0-2.0-0.21"	"ld8429"	"600"	"1366"	"chrome"	"108.0.0"	"FALSE"	"Windows 10"	"61.04"	n/a	n/a	n/a	n/a	n/a	n/a	"fixation"	n/a	n/a	n/a	n/a	"NULL"	"NULL"	"NULL"	n/a	"<p style=\"color: black; font-size: 80px; padding-left: 36%; padding-right: 10%; padding-top: 3%; padding-bottom: 32%\">+</p>"	n/a	"1170"	n/a	n/a	n/a	n/a	n/a	n/a	n/a	n/a	n/a
n/a	"image-keyboard-response"	"95"	"311750"	"0.0-4.0-2.0-1.21"	"ld8429"	"600"	"1366"	"chrome"	"108.0.0"	"FALSE"	"Windows 10"	"61.04"	n/a	n/a	n/a	n/a	n/a	n/a	"Trial"	n/a	n/a	n/a	n/a	"NULL"	"NULL"	"NULL"	"426"	"stimuli/Ebbinghaus_0.35714_0.28000.png"	"arrowleft"	n/a	"Ebbinghaus"	"arrowleft"	"1179"	"TRUE"	"Ebbinghaus"	"0.3571400000"	"0.2800000000"	"1"	"40"
n/a	"html-keyboard-response"	"96"	"312959"	"0.0-4.0-2.0-0.22"	"ld8429"	"600"	"1366"	"chrome"	"108.0.0"	"FALSE"	"Windows 10"	"61.04"	n/a	n/a	n/a	n/a	n/a	n/a	"fixation"	n/a	n/a	n/a	n/a	"NULL"	"NULL"	"NULL"	n/a	"<p style=\"color: black; font-size: 80px; padding-left: 12%; padding-right: 17%; padding-top: 23%; padding-bottom: 48%\">+</p>"	n/a	"1196"	n/a	n/a	n/a	n/a	n/a	n/a	n/a	n/a	n/a
n/a	"image-keyboard-response"	"97"	"313331"	"0.0-4.0-2.0-1.22"	"ld8429"	"600"	"1366"	"chrome"	"108.0.0"	"FALSE"	"Windows 10"	"61.04"	n/a	n/a	n/a	n/a	n/a	n/a	"Trial"	n/a	n/a	n/a	n/a	"NULL"	"NULL"	"NULL"	"370"	"stimuli/Ebbinghaus_0.61429_-0.2150.png"	"arrowright"	n/a	"Ebbinghaus"	"arrowright"	"1209"	"TRUE"	"Ebbinghaus"	"0.6142900000"	"-0.215000000"	"1"	"41"
n/a	"html-keyboard-response"	"98"	"314653"	"0.0-4.0-2.0-0.23"	"ld8429"	"600"	"1366"	"chrome"	"108.0.0"	"FALSE"	"Windows 10"	"61.04"	n/a	n/a	n/a	n/a	n/a	n/a	"fixation"	n/a	n/a	n/a	n/a	"NULL"	"NULL"	"NULL"	n/a	"<p style=\"color: black; font-size: 80px; padding-left: 20%; padding-right: 1%; padding-top: 19%; padding-bottom: 35%\">+</p>"	n/a	"1319"	n/a	n/a	n/a	n/a	n/a	n/a	n/a	n/a	n/a
n/a	"image-keyboard-response"	"99"	"315209"	"0.0-4.0-2.0-1.23"	"ld8429"	"600"	"1366"	"chrome"	"108.0.0"	"FALSE"	"Windows 10"	"61.04"	n/a	n/a	n/a	n/a	n/a	n/a	"Trial"	n/a	n/a	n/a	n/a	"NULL"	"NULL"	"NULL"	"554"	"stimuli/Ebbinghaus_-0.1000_0.11071.png"	"arrowleft"	n/a	"Ebbinghaus"	"arrowleft"	"1322"	"TRUE"	"Ebbinghaus"	"-0.100000000"	"0.1107100000"	"1"	"42"
n/a	"html-keyboard-response"	"100"	"316308"	"0.0-4.0-2.0-0.24"	"ld8429"	"600"	"1366"	"chrome"	"108.0.0"	"FALSE"	"Windows 10"	"61.04"	n/a	n/a	n/a	n/a	n/a	n/a	"fixation"	n/a	n/a	n/a	n/a	"NULL"	"NULL"	"NULL"	n/a	"<p style=\"color: black; font-size: 80px; padding-left: 46%; padding-right: 47%; padding-top: 16%; padding-bottom: 7%\">+</p>"	n/a	"1084"	n/a	n/a	n/a	n/a	n/a	n/a	n/a	n/a	n/a
n/a	"image-keyboard-response"	"101"	"316781"	"0.0-4.0-2.0-1.24"	"ld8429"	"600"	"1366"	"chrome"	"108.0.0"	"FALSE"	"Windows 10"	"61.04"	n/a	n/a	n/a	n/a	n/a	n/a	"Trial"	n/a	n/a	n/a	n/a	"NULL"	"NULL"	"NULL"	"472"	"stimuli/Ebbinghaus_-0.87143_0.28000.png"	"arrowleft"	n/a	"Ebbinghaus"	"arrowleft"	"1099"	"TRUE"	"Ebbinghaus"	"-0.871430000"	"0.2800000000"	"1"	"43"
n/a	"html-keyboard-response"	"102"	"317983"	"0.0-4.0-2.0-0.25"	"ld8429"	"600"	"1366"	"chrome"	"108.0.0"	"FALSE"	"Windows 10"	"61.04"	n/a	n/a	n/a	n/a	n/a	n/a	"fixation"	n/a	n/a	n/a	n/a	"NULL"	"NULL"	"NULL"	n/a	"<p style=\"color: black; font-size: 80px; padding-left: 12%; padding-right: 0%; padding-top: 39%; padding-bottom: 27%\">+</p>"	n/a	"1190"	n/a	n/a	n/a	n/a	n/a	n/a	n/a	n/a	n/a
n/a	"image-keyboard-response"	"103"	"318402"	"0.0-4.0-2.0-1.25"	"ld8429"	"600"	"1366"	"chrome"	"108.0.0"	"FALSE"	"Windows 10"	"61.04"	n/a	n/a	n/a	n/a	n/a	n/a	"Trial"	n/a	n/a	n/a	n/a	"NULL"	"NULL"	"NULL"	"418"	"stimuli/Ebbinghaus_0.10000_0.21500.png"	"arrowleft"	n/a	"Ebbinghaus"	"arrowleft"	"1202"	"TRUE"	"Ebbinghaus"	"0.1000000000"	"0.2150000000"	"1"	"44"
n/a	"html-keyboard-response"	"104"	"319438"	"0.0-4.0-2.0-0.26"	"ld8429"	"600"	"1366"	"chrome"	"108.0.0"	"FALSE"	"Windows 10"	"61.04"	n/a	n/a	n/a	n/a	n/a	n/a	"fixation"	n/a	n/a	n/a	n/a	"NULL"	"NULL"	"NULL"	n/a	"<p style=\"color: black; font-size: 80px; padding-left: 12%; padding-right: 43%; padding-top: 13%; padding-bottom: 30%\">+</p>"	n/a	"1023"	n/a	n/a	n/a	n/a	n/a	n/a	n/a	n/a	n/a
n/a	"image-keyboard-response"	"105"	"319878"	"0.0-4.0-2.0-1.26"	"ld8429"	"600"	"1366"	"chrome"	"108.0.0"	"FALSE"	"Windows 10"	"61.04"	n/a	n/a	n/a	n/a	n/a	n/a	"Trial"	n/a	n/a	n/a	n/a	"NULL"	"NULL"	"NULL"	"438"	"stimuli/Ebbinghaus_-0.87143_-0.11071.png"	"arrowright"	n/a	"Ebbinghaus"	"arrowright"	"1036"	"TRUE"	"Ebbinghaus"	"-0.871430000"	"-0.110710000"	"1"	"45"
n/a	"html-keyboard-response"	"106"	"321297"	"0.0-4.0-2.0-0.27"	"ld8429"	"600"	"1366"	"chrome"	"108.0.0"	"FALSE"	"Windows 10"	"61.04"	n/a	n/a	n/a	n/a	n/a	n/a	"fixation"	n/a	n/a	n/a	n/a	"NULL"	"NULL"	"NULL"	n/a	"<p style=\"color: black; font-size: 80px; padding-left: 40%; padding-right: 16%; padding-top: 21%; padding-bottom: 6%\">+</p>"	n/a	"1406"	n/a	n/a	n/a	n/a	n/a	n/a	n/a	n/a	n/a
n/a	"image-keyboard-response"	"107"	"322296"	"0.0-4.0-2.0-1.27"	"ld8429"	"600"	"1366"	"chrome"	"108.0.0"	"FALSE"	"Windows 10"	"61.04"	n/a	n/a	n/a	n/a	n/a	n/a	"Trial"	n/a	n/a	n/a	n/a	"NULL"	"NULL"	"NULL"	"998"	"stimuli/Ebbinghaus_0.87143_-0.2150.png"	"arrowleft"	n/a	"Ebbinghaus"	"arrowright"	"1419"	"FALSE"	"Ebbinghaus"	"0.8714300000"	"-0.215000000"	"1"	"46"
n/a	"html-keyboard-response"	"108"	"323605"	"0.0-4.0-2.0-0.28"	"ld8429"	"600"	"1366"	"chrome"	"108.0.0"	"FALSE"	"Windows 10"	"61.04"	n/a	n/a	n/a	n/a	n/a	n/a	"fixation"	n/a	n/a	n/a	n/a	"NULL"	"NULL"	"NULL"	n/a	"<p style=\"color: black; font-size: 80px; padding-left: 18%; padding-right: 38%; padding-top: 2%; padding-bottom: 24%\">+</p>"	n/a	"1290"	n/a	n/a	n/a	n/a	n/a	n/a	n/a	n/a	n/a
n/a	"image-keyboard-response"	"109"	"324221"	"0.0-4.0-2.0-1.28"	"ld8429"	"600"	"1366"	"chrome"	"108.0.0"	"FALSE"	"Windows 10"	"61.04"	n/a	n/a	n/a	n/a	n/a	n/a	"Trial"	n/a	n/a	n/a	n/a	"NULL"	"NULL"	"NULL"	"613"	"stimuli/Ebbinghaus_0.87143_-0.2800.png"	"arrowleft"	n/a	"Ebbinghaus"	"arrowright"	"1309"	"FALSE"	"Ebbinghaus"	"0.8714300000"	"-0.280000000"	"1"	"47"
n/a	"html-keyboard-response"	"110"	"325316"	"0.0-4.0-2.0-0.29"	"ld8429"	"600"	"1366"	"chrome"	"108.0.0"	"FALSE"	"Windows 10"	"61.04"	n/a	n/a	n/a	n/a	n/a	n/a	"fixation"	n/a	n/a	n/a	n/a	"NULL"	"NULL"	"NULL"	n/a	"<p style=\"color: black; font-size: 80px; padding-left: 32%; padding-right: 14%; padding-top: 18%; padding-bottom: 46%\">+</p>"	n/a	"1090"	n/a	n/a	n/a	n/a	n/a	n/a	n/a	n/a	n/a
n/a	"image-keyboard-response"	"111"	"326003"	"0.0-4.0-2.0-1.29"	"ld8429"	"600"	"1366"	"chrome"	"108.0.0"	"FALSE"	"Windows 10"	"61.04"	n/a	n/a	n/a	n/a	n/a	n/a	"Trial"	n/a	n/a	n/a	n/a	"NULL"	"NULL"	"NULL"	"687"	"stimuli/Ebbinghaus_0.87143_-0.15857.png"	"arrowleft"	n/a	"Ebbinghaus"	"arrowright"	"1095"	"FALSE"	"Ebbinghaus"	"0.8714300000"	"-0.158570000"	"1"	"48"
n/a	"html-keyboard-response"	"112"	"327094"	"0.0-4.0-2.0-0.30"	"ld8429"	"600"	"1366"	"chrome"	"108.0.0"	"FALSE"	"Windows 10"	"61.04"	n/a	n/a	n/a	n/a	n/a	n/a	"fixation"	n/a	n/a	n/a	n/a	"NULL"	"NULL"	"NULL"	n/a	"<p style=\"color: black; font-size: 80px; padding-left: 40%; padding-right: 45%; padding-top: 35%; padding-bottom: 10%\">+</p>"	n/a	"1081"	n/a	n/a	n/a	n/a	n/a	n/a	n/a	n/a	n/a
n/a	"image-keyboard-response"	"113"	"327697"	"0.0-4.0-2.0-1.30"	"ld8429"	"600"	"1366"	"chrome"	"108.0.0"	"FALSE"	"Windows 10"	"61.04"	n/a	n/a	n/a	n/a	n/a	n/a	"Trial"	n/a	n/a	n/a	n/a	"NULL"	"NULL"	"NULL"	"602"	"stimuli/Ebbinghaus_-0.1000_0.21500.png"	"arrowleft"	n/a	"Ebbinghaus"	"arrowleft"	"1091"	"TRUE"	"Ebbinghaus"	"-0.100000000"	"0.2150000000"	"1"	"49"
n/a	"html-keyboard-response"	"114"	"328918"	"0.0-4.0-2.0-0.31"	"ld8429"	"600"	"1366"	"chrome"	"108.0.0"	"FALSE"	"Windows 10"	"61.04"	n/a	n/a	n/a	n/a	n/a	n/a	"fixation"	n/a	n/a	n/a	n/a	"NULL"	"NULL"	"NULL"	n/a	"<p style=\"color: black; font-size: 80px; padding-left: 5%; padding-right: 5%; padding-top: 36%; padding-bottom: 14%\">+</p>"	n/a	"1206"	n/a	n/a	n/a	n/a	n/a	n/a	n/a	n/a	n/a
n/a	"image-keyboard-response"	"115"	"329489"	"0.0-4.0-2.0-1.31"	"ld8429"	"600"	"1366"	"chrome"	"108.0.0"	"FALSE"	"Windows 10"	"61.04"	n/a	n/a	n/a	n/a	n/a	n/a	"Trial"	n/a	n/a	n/a	n/a	"NULL"	"NULL"	"NULL"	"570"	"stimuli/Ebbinghaus_0.10000_0.15857.png"	"arrowleft"	n/a	"Ebbinghaus"	"arrowleft"	"1221"	"TRUE"	"Ebbinghaus"	"0.1000000000"	"0.1585700000"	"1"	"50"
n/a	"html-keyboard-response"	"116"	"330729"	"0.0-4.0-2.0-0.32"	"ld8429"	"600"	"1366"	"chrome"	"108.0.0"	"FALSE"	"Windows 10"	"61.04"	n/a	n/a	n/a	n/a	n/a	n/a	"fixation"	n/a	n/a	n/a	n/a	"NULL"	"NULL"	"NULL"	n/a	"<p style=\"color: black; font-size: 80px; padding-left: 43%; padding-right: 11%; padding-top: 47%; padding-bottom: 11%\">+</p>"	n/a	"1221"	n/a	n/a	n/a	n/a	n/a	n/a	n/a	n/a	n/a
n/a	"image-keyboard-response"	"117"	"331241"	"0.0-4.0-2.0-1.32"	"ld8429"	"600"	"1366"	"chrome"	"108.0.0"	"FALSE"	"Windows 10"	"61.04"	n/a	n/a	n/a	n/a	n/a	n/a	"Trial"	n/a	n/a	n/a	n/a	"NULL"	"NULL"	"NULL"	"511"	"stimuli/Ebbinghaus_-0.61429_0.28000.png"	"arrowleft"	n/a	"Ebbinghaus"	"arrowleft"	"1240"	"TRUE"	"Ebbinghaus"	"-0.614290000"	"0.2800000000"	"1"	"51"
n/a	"html-keyboard-response"	"118"	"332640"	"0.0-4.0-2.0-0.33"	"ld8429"	"600"	"1366"	"chrome"	"108.0.0"	"FALSE"	"Windows 10"	"61.04"	n/a	n/a	n/a	n/a	n/a	n/a	"fixation"	n/a	n/a	n/a	n/a	"NULL"	"NULL"	"NULL"	n/a	"<p style=\"color: black; font-size: 80px; padding-left: 3%; padding-right: 12%; padding-top: 46%; padding-bottom: 18%\">+</p>"	n/a	"1379"	n/a	n/a	n/a	n/a	n/a	n/a	n/a	n/a	n/a
n/a	"image-keyboard-response"	"119"	"333124"	"0.0-4.0-2.0-1.33"	"ld8429"	"600"	"1366"	"chrome"	"108.0.0"	"FALSE"	"Windows 10"	"61.04"	n/a	n/a	n/a	n/a	n/a	n/a	"Trial"	n/a	n/a	n/a	n/a	"NULL"	"NULL"	"NULL"	"483"	"stimuli/Ebbinghaus_-0.35714_-0.2800.png"	"arrowright"	n/a	"Ebbinghaus"	"arrowright"	"1399"	"TRUE"	"Ebbinghaus"	"-0.357140000"	"-0.280000000"	"1"	"52"
n/a	"html-keyboard-response"	"120"	"334358"	"0.0-4.0-2.0-0.34"	"ld8429"	"600"	"1366"	"chrome"	"108.0.0"	"FALSE"	"Windows 10"	"61.04"	n/a	n/a	n/a	n/a	n/a	n/a	"fixation"	n/a	n/a	n/a	n/a	"NULL"	"NULL"	"NULL"	n/a	"<p style=\"color: black; font-size: 80px; padding-left: 24%; padding-right: 33%; padding-top: 20%; padding-bottom: 49%\">+</p>"	n/a	"1225"	n/a	n/a	n/a	n/a	n/a	n/a	n/a	n/a	n/a
n/a	"image-keyboard-response"	"121"	"335133"	"0.0-4.0-2.0-1.34"	"ld8429"	"600"	"1366"	"chrome"	"108.0.0"	"FALSE"	"Windows 10"	"61.04"	n/a	n/a	n/a	n/a	n/a	n/a	"Trial"	n/a	n/a	n/a	n/a	"NULL"	"NULL"	"NULL"	"775"	"stimuli/Ebbinghaus_0.61429_0.15857.png"	"arrowleft"	n/a	"Ebbinghaus"	"arrowleft"	"1234"	"TRUE"	"Ebbinghaus"	"0.6142900000"	"0.1585700000"	"1"	"53"
n/a	"html-keyboard-response"	"122"	"336386"	"0.0-4.0-2.0-0.35"	"ld8429"	"600"	"1366"	"chrome"	"108.0.0"	"FALSE"	"Windows 10"	"61.04"	n/a	n/a	n/a	n/a	n/a	n/a	"fixation"	n/a	n/a	n/a	n/a	"NULL"	"NULL"	"NULL"	n/a	"<p style=\"color: black; font-size: 80px; padding-left: 6%; padding-right: 37%; padding-top: 26%; padding-bottom: 39%\">+</p>"	n/a	"1232"	n/a	n/a	n/a	n/a	n/a	n/a	n/a	n/a	n/a
n/a	"image-keyboard-response"	"123"	"336879"	"0.0-4.0-2.0-1.35"	"ld8429"	"600"	"1366"	"chrome"	"108.0.0"	"FALSE"	"Windows 10"	"61.04"	n/a	n/a	n/a	n/a	n/a	n/a	"Trial"	n/a	n/a	n/a	n/a	"NULL"	"NULL"	"NULL"	"487"	"stimuli/Ebbinghaus_-0.35714_-0.11071.png"	"arrowright"	n/a	"Ebbinghaus"	"arrowright"	"1253"	"TRUE"	"Ebbinghaus"	"-0.357140000"	"-0.110710000"	"1"	"54"
n/a	"html-keyboard-response"	"124"	"337967"	"0.0-4.0-2.0-0.36"	"ld8429"	"600"	"1366"	"chrome"	"108.0.0"	"FALSE"	"Windows 10"	"61.04"	n/a	n/a	n/a	n/a	n/a	n/a	"fixation"	n/a	n/a	n/a	n/a	"NULL"	"NULL"	"NULL"	n/a	"<p style=\"color: black; font-size: 80px; padding-left: 14%; padding-right: 41%; padding-top: 27%; padding-bottom: 9%\">+</p>"	n/a	"1069"	n/a	n/a	n/a	n/a	n/a	n/a	n/a	n/a	n/a
n/a	"image-keyboard-response"	"125"	"338528"	"0.0-4.0-2.0-1.36"	"ld8429"	"600"	"1366"	"chrome"	"108.0.0"	"FALSE"	"Windows 10"	"61.04"	n/a	n/a	n/a	n/a	n/a	n/a	"Trial"	n/a	n/a	n/a	n/a	"NULL"	"NULL"	"NULL"	"559"	"stimuli/Ebbinghaus_-0.61429_-0.2150.png"	"arrowright"	n/a	"Ebbinghaus"	"arrowright"	"1088"	"TRUE"	"Ebbinghaus"	"-0.614290000"	"-0.215000000"	"1"	"55"
n/a	"html-keyboard-response"	"126"	"339979"	"0.0-4.0-2.0-0.37"	"ld8429"	"600"	"1366"	"chrome"	"108.0.0"	"FALSE"	"Windows 10"	"61.04"	n/a	n/a	n/a	n/a	n/a	n/a	"fixation"	n/a	n/a	n/a	n/a	"NULL"	"NULL"	"NULL"	n/a	"<p style=\"color: black; font-size: 80px; padding-left: 46%; padding-right: 27%; padding-top: 1%; padding-bottom: 35%\">+</p>"	n/a	"1427"	n/a	n/a	n/a	n/a	n/a	n/a	n/a	n/a	n/a
n/a	"image-keyboard-response"	"127"	"340774"	"0.0-4.0-2.0-1.37"	"ld8429"	"600"	"1366"	"chrome"	"108.0.0"	"FALSE"	"Windows 10"	"61.04"	n/a	n/a	n/a	n/a	n/a	n/a	"Trial"	n/a	n/a	n/a	n/a	"NULL"	"NULL"	"NULL"	"792"	"stimuli/Ebbinghaus_-0.35714_-0.15857.png"	"arrowright"	n/a	"Ebbinghaus"	"arrowright"	"1451"	"TRUE"	"Ebbinghaus"	"-0.357140000"	"-0.158570000"	"1"	"56"
n/a	"html-keyboard-response"	"128"	"342068"	"0.0-4.0-2.0-0.38"	"ld8429"	"600"	"1366"	"chrome"	"108.0.0"	"FALSE"	"Windows 10"	"61.04"	n/a	n/a	n/a	n/a	n/a	n/a	"fixation"	n/a	n/a	n/a	n/a	"NULL"	"NULL"	"NULL"	n/a	"<p style=\"color: black; font-size: 80px; padding-left: 14%; padding-right: 50%; padding-top: 7%; padding-bottom: 7%\">+</p>"	n/a	"1290"	n/a	n/a	n/a	n/a	n/a	n/a	n/a	n/a	n/a
n/a	"image-keyboard-response"	"129"	"342703"	"0.0-4.0-2.0-1.38"	"ld8429"	"600"	"1366"	"chrome"	"108.0.0"	"FALSE"	"Windows 10"	"61.04"	n/a	n/a	n/a	n/a	n/a	n/a	"Trial"	n/a	n/a	n/a	n/a	"NULL"	"NULL"	"NULL"	"634"	"stimuli/Ebbinghaus_0.10000_-0.2800.png"	"arrowright"	n/a	"Ebbinghaus"	"arrowright"	"1294"	"TRUE"	"Ebbinghaus"	"0.1000000000"	"-0.280000000"	"1"	"57"
n/a	"html-keyboard-response"	"130"	"343813"	"0.0-4.0-2.0-0.39"	"ld8429"	"600"	"1366"	"chrome"	"108.0.0"	"FALSE"	"Windows 10"	"61.04"	n/a	n/a	n/a	n/a	n/a	n/a	"fixation"	n/a	n/a	n/a	n/a	"NULL"	"NULL"	"NULL"	n/a	"<p style=\"color: black; font-size: 80px; padding-left: 13%; padding-right: 6%; padding-top: 10%; padding-bottom: 15%\">+</p>"	n/a	"1096"	n/a	n/a	n/a	n/a	n/a	n/a	n/a	n/a	n/a
n/a	"image-keyboard-response"	"131"	"344627"	"0.0-4.0-2.0-1.39"	"ld8429"	"600"	"1366"	"chrome"	"108.0.0"	"FALSE"	"Windows 10"	"61.04"	n/a	n/a	n/a	n/a	n/a	n/a	"Trial"	n/a	n/a	n/a	n/a	"NULL"	"NULL"	"NULL"	"813"	"stimuli/Ebbinghaus_-0.1000_-0.11071.png"	"arrowright"	n/a	"Ebbinghaus"	"arrowright"	"1110"	"TRUE"	"Ebbinghaus"	"-0.100000000"	"-0.110710000"	"1"	"58"
n/a	"html-keyboard-response"	"132"	"345732"	"0.0-4.0-2.0-0.40"	"ld8429"	"600"	"1366"	"chrome"	"108.0.0"	"FALSE"	"Windows 10"	"61.04"	n/a	n/a	n/a	n/a	n/a	n/a	"fixation"	n/a	n/a	n/a	n/a	"NULL"	"NULL"	"NULL"	n/a	"<p style=\"color: black; font-size: 80px; padding-left: 7%; padding-right: 36%; padding-top: 5%; padding-bottom: 31%\">+</p>"	n/a	"1096"	n/a	n/a	n/a	n/a	n/a	n/a	n/a	n/a	n/a
n/a	"image-keyboard-response"	"133"	"346759"	"0.0-4.0-2.0-1.40"	"ld8429"	"600"	"1366"	"chrome"	"108.0.0"	"FALSE"	"Windows 10"	"61.04"	n/a	n/a	n/a	n/a	n/a	n/a	"Trial"	n/a	n/a	n/a	n/a	"NULL"	"NULL"	"NULL"	"1026"	"stimuli/Ebbinghaus_0.61429_-0.15857.png"	"arrowleft"	n/a	"Ebbinghaus"	"arrowright"	"1105"	"FALSE"	"Ebbinghaus"	"0.6142900000"	"-0.158570000"	"1"	"59"
n/a	"html-keyboard-response"	"134"	"347875"	"0.0-4.0-2.0-0.41"	"ld8429"	"600"	"1366"	"chrome"	"108.0.0"	"FALSE"	"Windows 10"	"61.04"	n/a	n/a	n/a	n/a	n/a	n/a	"fixation"	n/a	n/a	n/a	n/a	"NULL"	"NULL"	"NULL"	n/a	"<p style=\"color: black; font-size: 80px; padding-left: 13%; padding-right: 6%; padding-top: 15%; padding-bottom: 9%\">+</p>"	n/a	"1103"	n/a	n/a	n/a	n/a	n/a	n/a	n/a	n/a	n/a
n/a	"image-keyboard-response"	"135"	"348982"	"0.0-4.0-2.0-1.41"	"ld8429"	"600"	"1366"	"chrome"	"108.0.0"	"FALSE"	"Windows 10"	"61.04"	n/a	n/a	n/a	n/a	n/a	n/a	"Trial"	n/a	n/a	n/a	n/a	"NULL"	"NULL"	"NULL"	"1105"	"stimuli/Ebbinghaus_0.10000_-0.11071.png"	"arrowright"	n/a	"Ebbinghaus"	"arrowright"	"1116"	"TRUE"	"Ebbinghaus"	"0.1000000000"	"-0.110710000"	"1"	"60"
n/a	"html-keyboard-response"	"136"	"350066"	"0.0-4.0-2.0-0.42"	"ld8429"	"600"	"1366"	"chrome"	"108.0.0"	"FALSE"	"Windows 10"	"61.04"	n/a	n/a	n/a	n/a	n/a	n/a	"fixation"	n/a	n/a	n/a	n/a	"NULL"	"NULL"	"NULL"	n/a	"<p style=\"color: black; font-size: 80px; padding-left: 29%; padding-right: 10%; padding-top: 12%; padding-bottom: 14%\">+</p>"	n/a	"1073"	n/a	n/a	n/a	n/a	n/a	n/a	n/a	n/a	n/a
n/a	"image-keyboard-response"	"137"	"350589"	"0.0-4.0-2.0-1.42"	"ld8429"	"600"	"1366"	"chrome"	"108.0.0"	"FALSE"	"Windows 10"	"61.04"	n/a	n/a	n/a	n/a	n/a	n/a	"Trial"	n/a	n/a	n/a	n/a	"NULL"	"NULL"	"NULL"	"523"	"stimuli/Ebbinghaus_0.35714_-0.11071.png"	"arrowright"	n/a	"Ebbinghaus"	"arrowright"	"1084"	"TRUE"	"Ebbinghaus"	"0.3571400000"	"-0.110710000"	"1"	"61"
n/a	"html-keyboard-response"	"138"	"352047"	"0.0-4.0-2.0-0.43"	"ld8429"	"600"	"1366"	"chrome"	"108.0.0"	"FALSE"	"Windows 10"	"61.04"	n/a	n/a	n/a	n/a	n/a	n/a	"fixation"	n/a	n/a	n/a	n/a	"NULL"	"NULL"	"NULL"	n/a	"<p style=\"color: black; font-size: 80px; padding-left: 35%; padding-right: 2%; padding-top: 6%; padding-bottom: 29%\">+</p>"	n/a	"1448"	n/a	n/a	n/a	n/a	n/a	n/a	n/a	n/a	n/a
n/a	"image-keyboard-response"	"139"	"352603"	"0.0-4.0-2.0-1.43"	"ld8429"	"600"	"1366"	"chrome"	"108.0.0"	"FALSE"	"Windows 10"	"61.04"	n/a	n/a	n/a	n/a	n/a	n/a	"Trial"	n/a	n/a	n/a	n/a	"NULL"	"NULL"	"NULL"	"553"	"stimuli/Ebbinghaus_0.35714_0.11071.png"	"arrowleft"	n/a	"Ebbinghaus"	"arrowleft"	"1458"	"TRUE"	"Ebbinghaus"	"0.3571400000"	"0.1107100000"	"1"	"62"
n/a	"html-keyboard-response"	"140"	"353669"	"0.0-4.0-2.0-0.44"	"ld8429"	"600"	"1366"	"chrome"	"108.0.0"	"FALSE"	"Windows 10"	"61.04"	n/a	n/a	n/a	n/a	n/a	n/a	"fixation"	n/a	n/a	n/a	n/a	"NULL"	"NULL"	"NULL"	n/a	"<p style=\"color: black; font-size: 80px; padding-left: 16%; padding-right: 5%; padding-top: 41%; padding-bottom: 22%\">+</p>"	n/a	"1059"	n/a	n/a	n/a	n/a	n/a	n/a	n/a	n/a	n/a
n/a	"image-keyboard-response"	"141"	"354194"	"0.0-4.0-2.0-1.44"	"ld8429"	"600"	"1366"	"chrome"	"108.0.0"	"FALSE"	"Windows 10"	"61.04"	n/a	n/a	n/a	n/a	n/a	n/a	"Trial"	n/a	n/a	n/a	n/a	"NULL"	"NULL"	"NULL"	"523"	"stimuli/Ebbinghaus_-0.35714_0.28000.png"	"arrowleft"	n/a	"Ebbinghaus"	"arrowleft"	"1066"	"TRUE"	"Ebbinghaus"	"-0.357140000"	"0.2800000000"	"1"	"63"
n/a	"html-keyboard-response"	"142"	"355514"	"0.0-4.0-2.0-0.45"	"ld8429"	"600"	"1366"	"chrome"	"108.0.0"	"FALSE"	"Windows 10"	"61.04"	n/a	n/a	n/a	n/a	n/a	n/a	"fixation"	n/a	n/a	n/a	n/a	"NULL"	"NULL"	"NULL"	n/a	"<p style=\"color: black; font-size: 80px; padding-left: 8%; padding-right: 41%; padding-top: 4%; padding-bottom: 46%\">+</p>"	n/a	"1312"	n/a	n/a	n/a	n/a	n/a	n/a	n/a	n/a	n/a
n/a	"image-keyboard-response"	"143"	"356222"	"0.0-4.0-2.0-1.45"	"ld8429"	"600"	"1366"	"chrome"	"108.0.0"	"FALSE"	"Windows 10"	"61.04"	n/a	n/a	n/a	n/a	n/a	n/a	"Trial"	n/a	n/a	n/a	n/a	"NULL"	"NULL"	"NULL"	"708"	"stimuli/Ebbinghaus_-0.61429_0.11071.png"	"arrowleft"	n/a	"Ebbinghaus"	"arrowleft"	"1320"	"TRUE"	"Ebbinghaus"	"-0.614290000"	"0.1107100000"	"1"	"64"
n/a	"html-keyboard-response"	"144"	"357483"	"0.0-4.0-2.0-0.46"	"ld8429"	"600"	"1366"	"chrome"	"108.0.0"	"FALSE"	"Windows 10"	"61.04"	n/a	n/a	n/a	n/a	n/a	n/a	"fixation"	n/a	n/a	n/a	n/a	"NULL"	"NULL"	"NULL"	n/a	"<p style=\"color: black; font-size: 80px; padding-left: 30%; padding-right: 26%; padding-top: 32%; padding-bottom: 22%\">+</p>"	n/a	"1239"	n/a	n/a	n/a	n/a	n/a	n/a	n/a	n/a	n/a
n/a	"image-keyboard-response"	"145"	"357935"	"0.0-4.0-2.0-1.46"	"ld8429"	"600"	"1366"	"chrome"	"108.0.0"	"FALSE"	"Windows 10"	"61.04"	n/a	n/a	n/a	n/a	n/a	n/a	"Trial"	n/a	n/a	n/a	n/a	"NULL"	"NULL"	"NULL"	"451"	"stimuli/Ebbinghaus_-0.1000_0.28000.png"	"arrowleft"	n/a	"Ebbinghaus"	"arrowleft"	"1261"	"TRUE"	"Ebbinghaus"	"-0.100000000"	"0.2800000000"	"1"	"65"
n/a	"html-keyboard-response"	"146"	"359354"	"0.0-4.0-2.0-0.47"	"ld8429"	"600"	"1366"	"chrome"	"108.0.0"	"FALSE"	"Windows 10"	"61.04"	n/a	n/a	n/a	n/a	n/a	n/a	"fixation"	n/a	n/a	n/a	n/a	"NULL"	"NULL"	"NULL"	n/a	"<p style=\"color: black; font-size: 80px; padding-left: 40%; padding-right: 50%; padding-top: 1%; padding-bottom: 41%\">+</p>"	n/a	"1399"	n/a	n/a	n/a	n/a	n/a	n/a	n/a	n/a	n/a
n/a	"image-keyboard-response"	"147"	"359892"	"0.0-4.0-2.0-1.47"	"ld8429"	"600"	"1366"	"chrome"	"108.0.0"	"FALSE"	"Windows 10"	"61.04"	n/a	n/a	n/a	n/a	n/a	n/a	"Trial"	n/a	n/a	n/a	n/a	"NULL"	"NULL"	"NULL"	"536"	"stimuli/Ebbinghaus_-0.61429_-0.11071.png"	"arrowright"	n/a	"Ebbinghaus"	"arrowright"	"1419"	"TRUE"	"Ebbinghaus"	"-0.614290000"	"-0.110710000"	"1"	"66"
n/a	"html-keyboard-response"	"148"	"360937"	"0.0-4.0-2.0-0.48"	"ld8429"	"600"	"1366"	"chrome"	"108.0.0"	"FALSE"	"Windows 10"	"61.04"	n/a	n/a	n/a	n/a	n/a	n/a	"fixation"	n/a	n/a	n/a	n/a	"NULL"	"NULL"	"NULL"	n/a	"<p style=\"color: black; font-size: 80px; padding-left: 8%; padding-right: 17%; padding-top: 27%; padding-bottom: 19%\">+</p>"	n/a	"1033"	n/a	n/a	n/a	n/a	n/a	n/a	n/a	n/a	n/a
n/a	"image-keyboard-response"	"149"	"361494"	"0.0-4.0-2.0-1.48"	"ld8429"	"600"	"1366"	"chrome"	"108.0.0"	"FALSE"	"Windows 10"	"61.04"	n/a	n/a	n/a	n/a	n/a	n/a	"Trial"	n/a	n/a	n/a	n/a	"NULL"	"NULL"	"NULL"	"556"	"stimuli/Ebbinghaus_-0.61429_-0.15857.png"	"arrowright"	n/a	"Ebbinghaus"	"arrowright"	"1045"	"TRUE"	"Ebbinghaus"	"-0.614290000"	"-0.158570000"	"1"	"67"
n/a	"html-keyboard-response"	"150"	"362549"	"0.0-4.0-2.0-0.49"	"ld8429"	"600"	"1366"	"chrome"	"108.0.0"	"FALSE"	"Windows 10"	"61.04"	n/a	n/a	n/a	n/a	n/a	n/a	"fixation"	n/a	n/a	n/a	n/a	"NULL"	"NULL"	"NULL"	n/a	"<p style=\"color: black; font-size: 80px; padding-left: 46%; padding-right: 29%; padding-top: 29%; padding-bottom: 35%\">+</p>"	n/a	"1044"	n/a	n/a	n/a	n/a	n/a	n/a	n/a	n/a	n/a
n/a	"image-keyboard-response"	"151"	"363032"	"0.0-4.0-2.0-1.49"	"ld8429"	"600"	"1366"	"chrome"	"108.0.0"	"FALSE"	"Windows 10"	"61.04"	n/a	n/a	n/a	n/a	n/a	n/a	"Trial"	n/a	n/a	n/a	n/a	"NULL"	"NULL"	"NULL"	"481"	"stimuli/Ebbinghaus_0.87143_0.28000.png"	"arrowleft"	n/a	"Ebbinghaus"	"arrowleft"	"1055"	"TRUE"	"Ebbinghaus"	"0.8714300000"	"0.2800000000"	"1"	"68"
n/a	"html-keyboard-response"	"152"	"364249"	"0.0-4.0-2.0-0.50"	"ld8429"	"600"	"1366"	"chrome"	"108.0.0"	"FALSE"	"Windows 10"	"61.04"	n/a	n/a	n/a	n/a	n/a	n/a	"fixation"	n/a	n/a	n/a	n/a	"NULL"	"NULL"	"NULL"	n/a	"<p style=\"color: black; font-size: 80px; padding-left: 30%; padding-right: 3%; padding-top: 22%; padding-bottom: 10%\">+</p>"	n/a	"1209"	n/a	n/a	n/a	n/a	n/a	n/a	n/a	n/a	n/a
n/a	"image-keyboard-response"	"153"	"364988"	"0.0-4.0-2.0-1.50"	"ld8429"	"600"	"1366"	"chrome"	"108.0.0"	"FALSE"	"Windows 10"	"61.04"	n/a	n/a	n/a	n/a	n/a	n/a	"Trial"	n/a	n/a	n/a	n/a	"NULL"	"NULL"	"NULL"	"737"	"stimuli/Ebbinghaus_0.87143_0.11071.png"	"arrowleft"	n/a	"Ebbinghaus"	"arrowleft"	"1217"	"TRUE"	"Ebbinghaus"	"0.8714300000"	"0.1107100000"	"1"	"69"
n/a	"html-keyboard-response"	"154"	"366466"	"0.0-4.0-2.0-0.51"	"ld8429"	"600"	"1366"	"chrome"	"108.0.0"	"FALSE"	"Windows 10"	"61.04"	n/a	n/a	n/a	n/a	n/a	n/a	"fixation"	n/a	n/a	n/a	n/a	"NULL"	"NULL"	"NULL"	n/a	"<p style=\"color: black; font-size: 80px; padding-left: 12%; padding-right: 11%; padding-top: 19%; padding-bottom: 4%\">+</p>"	n/a	"1457"	n/a	n/a	n/a	n/a	n/a	n/a	n/a	n/a	n/a
n/a	"image-keyboard-response"	"155"	"367012"	"0.0-4.0-2.0-1.51"	"ld8429"	"600"	"1366"	"chrome"	"108.0.0"	"FALSE"	"Windows 10"	"61.04"	n/a	n/a	n/a	n/a	n/a	n/a	"Trial"	n/a	n/a	n/a	n/a	"NULL"	"NULL"	"NULL"	"545"	"stimuli/Ebbinghaus_-0.35714_0.21500.png"	"arrowleft"	n/a	"Ebbinghaus"	"arrowleft"	"1478"	"TRUE"	"Ebbinghaus"	"-0.357140000"	"0.2150000000"	"1"	"70"
n/a	"html-keyboard-response"	"156"	"368156"	"0.0-4.0-2.0-0.52"	"ld8429"	"600"	"1366"	"chrome"	"108.0.0"	"FALSE"	"Windows 10"	"61.04"	n/a	n/a	n/a	n/a	n/a	n/a	"fixation"	n/a	n/a	n/a	n/a	"NULL"	"NULL"	"NULL"	n/a	"<p style=\"color: black; font-size: 80px; padding-left: 19%; padding-right: 48%; padding-top: 49%; padding-bottom: 3%\">+</p>"	n/a	"1135"	n/a	n/a	n/a	n/a	n/a	n/a	n/a	n/a	n/a
n/a	"image-keyboard-response"	"157"	"368653"	"0.0-4.0-2.0-1.52"	"ld8429"	"600"	"1366"	"chrome"	"108.0.0"	"FALSE"	"Windows 10"	"61.04"	n/a	n/a	n/a	n/a	n/a	n/a	"Trial"	n/a	n/a	n/a	n/a	"NULL"	"NULL"	"NULL"	"495"	"stimuli/Ebbinghaus_0.35714_-0.2800.png"	"arrowright"	n/a	"Ebbinghaus"	"arrowright"	"1144"	"TRUE"	"Ebbinghaus"	"0.3571400000"	"-0.280000000"	"1"	"71"
n/a	"html-keyboard-response"	"158"	"370008"	"0.0-4.0-2.0-0.53"	"ld8429"	"600"	"1366"	"chrome"	"108.0.0"	"FALSE"	"Windows 10"	"61.04"	n/a	n/a	n/a	n/a	n/a	n/a	"fixation"	n/a	n/a	n/a	n/a	"NULL"	"NULL"	"NULL"	n/a	"<p style=\"color: black; font-size: 80px; padding-left: 43%; padding-right: 1%; padding-top: 4%; padding-bottom: 21%\">+</p>"	n/a	"1338"	n/a	n/a	n/a	n/a	n/a	n/a	n/a	n/a	n/a
n/a	"image-keyboard-response"	"159"	"370457"	"0.0-4.0-2.0-1.53"	"ld8429"	"600"	"1366"	"chrome"	"108.0.0"	"FALSE"	"Windows 10"	"61.04"	n/a	n/a	n/a	n/a	n/a	n/a	"Trial"	n/a	n/a	n/a	n/a	"NULL"	"NULL"	"NULL"	"448"	"stimuli/Ebbinghaus_0.61429_0.28000.png"	"arrowleft"	n/a	"Ebbinghaus"	"arrowleft"	"1355"	"TRUE"	"Ebbinghaus"	"0.6142900000"	"0.2800000000"	"1"	"72"
n/a	"html-keyboard-response"	"160"	"371609"	"0.0-4.0-2.0-0.54"	"ld8429"	"600"	"1366"	"chrome"	"108.0.0"	"FALSE"	"Windows 10"	"61.04"	n/a	n/a	n/a	n/a	n/a	n/a	"fixation"	n/a	n/a	n/a	n/a	"NULL"	"NULL"	"NULL"	n/a	"<p style=\"color: black; font-size: 80px; padding-left: 40%; padding-right: 7%; padding-top: 27%; padding-bottom: 28%\">+</p>"	n/a	"1140"	n/a	n/a	n/a	n/a	n/a	n/a	n/a	n/a	n/a
n/a	"image-keyboard-response"	"161"	"372282"	"0.0-4.0-2.0-1.54"	"ld8429"	"600"	"1366"	"chrome"	"108.0.0"	"FALSE"	"Windows 10"	"61.04"	n/a	n/a	n/a	n/a	n/a	n/a	"Trial"	n/a	n/a	n/a	n/a	"NULL"	"NULL"	"NULL"	"672"	"stimuli/Ebbinghaus_0.87143_0.21500.png"	"arrowright"	n/a	"Ebbinghaus"	"arrowleft"	"1152"	"FALSE"	"Ebbinghaus"	"0.8714300000"	"0.2150000000"	"1"	"73"
n/a	"html-keyboard-response"	"162"	"373492"	"0.0-4.0-2.0-0.55"	"ld8429"	"600"	"1366"	"chrome"	"108.0.0"	"FALSE"	"Windows 10"	"61.04"	n/a	n/a	n/a	n/a	n/a	n/a	"fixation"	n/a	n/a	n/a	n/a	"NULL"	"NULL"	"NULL"	n/a	"<p style=\"color: black; font-size: 80px; padding-left: 16%; padding-right: 22%; padding-top: 23%; padding-bottom: 24%\">+</p>"	n/a	"1203"	n/a	n/a	n/a	n/a	n/a	n/a	n/a	n/a	n/a
n/a	"image-keyboard-response"	"163"	"374251"	"0.0-4.0-2.0-1.55"	"ld8429"	"600"	"1366"	"chrome"	"108.0.0"	"FALSE"	"Windows 10"	"61.04"	n/a	n/a	n/a	n/a	n/a	n/a	"Trial"	n/a	n/a	n/a	n/a	"NULL"	"NULL"	"NULL"	"758"	"stimuli/Ebbinghaus_-0.1000_-0.2150.png"	"arrowright"	n/a	"Ebbinghaus"	"arrowright"	"1210"	"TRUE"	"Ebbinghaus"	"-0.100000000"	"-0.215000000"	"1"	"74"
n/a	"html-keyboard-response"	"164"	"375554"	"0.0-4.0-2.0-0.56"	"ld8429"	"600"	"1366"	"chrome"	"108.0.0"	"FALSE"	"Windows 10"	"61.04"	n/a	n/a	n/a	n/a	n/a	n/a	"fixation"	n/a	n/a	n/a	n/a	"NULL"	"NULL"	"NULL"	n/a	"<p style=\"color: black; font-size: 80px; padding-left: 4%; padding-right: 45%; padding-top: 37%; padding-bottom: 34%\">+</p>"	n/a	"1281"	n/a	n/a	n/a	n/a	n/a	n/a	n/a	n/a	n/a
n/a	"image-keyboard-response"	"165"	"376234"	"0.0-4.0-2.0-1.56"	"ld8429"	"600"	"1366"	"chrome"	"108.0.0"	"FALSE"	"Windows 10"	"61.04"	n/a	n/a	n/a	n/a	n/a	n/a	"Trial"	n/a	n/a	n/a	n/a	"NULL"	"NULL"	"NULL"	"679"	"stimuli/Ebbinghaus_0.61429_-0.11071.png"	"arrowright"	n/a	"Ebbinghaus"	"arrowright"	"1303"	"TRUE"	"Ebbinghaus"	"0.6142900000"	"-0.110710000"	"1"	"75"
n/a	"html-keyboard-response"	"166"	"377683"	"0.0-4.0-2.0-0.57"	"ld8429"	"600"	"1366"	"chrome"	"108.0.0"	"FALSE"	"Windows 10"	"61.04"	n/a	n/a	n/a	n/a	n/a	n/a	"fixation"	n/a	n/a	n/a	n/a	"NULL"	"NULL"	"NULL"	n/a	"<p style=\"color: black; font-size: 80px; padding-left: 25%; padding-right: 34%; padding-top: 48%; padding-bottom: 5%\">+</p>"	n/a	"1438"	n/a	n/a	n/a	n/a	n/a	n/a	n/a	n/a	n/a
n/a	"image-keyboard-response"	"167"	"378804"	"0.0-4.0-2.0-1.57"	"ld8429"	"600"	"1366"	"chrome"	"108.0.0"	"FALSE"	"Windows 10"	"61.04"	n/a	n/a	n/a	n/a	n/a	n/a	"Trial"	n/a	n/a	n/a	n/a	"NULL"	"NULL"	"NULL"	"1120"	"stimuli/Ebbinghaus_0.35714_-0.15857.png"	"arrowleft"	n/a	"Ebbinghaus"	"arrowright"	"1449"	"FALSE"	"Ebbinghaus"	"0.3571400000"	"-0.158570000"	"1"	"76"
n/a	"html-keyboard-response"	"168"	"379980"	"0.0-4.0-2.0-0.58"	"ld8429"	"600"	"1366"	"chrome"	"108.0.0"	"FALSE"	"Windows 10"	"61.04"	n/a	n/a	n/a	n/a	n/a	n/a	"fixation"	n/a	n/a	n/a	n/a	"NULL"	"NULL"	"NULL"	n/a	"<p style=\"color: black; font-size: 80px; padding-left: 46%; padding-right: 8%; padding-top: 15%; padding-bottom: 33%\">+</p>"	n/a	"1162"	n/a	n/a	n/a	n/a	n/a	n/a	n/a	n/a	n/a
n/a	"image-keyboard-response"	"169"	"380469"	"0.0-4.0-2.0-1.58"	"ld8429"	"600"	"1366"	"chrome"	"108.0.0"	"FALSE"	"Windows 10"	"61.04"	n/a	n/a	n/a	n/a	n/a	n/a	"Trial"	n/a	n/a	n/a	n/a	"NULL"	"NULL"	"NULL"	"487"	"stimuli/Ebbinghaus_-0.87143_-0.15857.png"	"arrowright"	n/a	"Ebbinghaus"	"arrowright"	"1176"	"TRUE"	"Ebbinghaus"	"-0.871430000"	"-0.158570000"	"1"	"77"
n/a	"html-keyboard-response"	"170"	"381498"	"0.0-4.0-2.0-0.59"	"ld8429"	"600"	"1366"	"chrome"	"108.0.0"	"FALSE"	"Windows 10"	"61.04"	n/a	n/a	n/a	n/a	n/a	n/a	"fixation"	n/a	n/a	n/a	n/a	"NULL"	"NULL"	"NULL"	n/a	"<p style=\"color: black; font-size: 80px; padding-left: 28%; padding-right: 3%; padding-top: 4%; padding-bottom: 31%\">+</p>"	n/a	"1009"	n/a	n/a	n/a	n/a	n/a	n/a	n/a	n/a	n/a
n/a	"image-keyboard-response"	"171"	"382005"	"0.0-4.0-2.0-1.59"	"ld8429"	"600"	"1366"	"chrome"	"108.0.0"	"FALSE"	"Windows 10"	"61.04"	n/a	n/a	n/a	n/a	n/a	n/a	"Trial"	n/a	n/a	n/a	n/a	"NULL"	"NULL"	"NULL"	"506"	"stimuli/Ebbinghaus_-0.61429_0.21500.png"	"arrowleft"	n/a	"Ebbinghaus"	"arrowleft"	"1029"	"TRUE"	"Ebbinghaus"	"-0.614290000"	"0.2150000000"	"1"	"78"
n/a	"html-keyboard-response"	"172"	"383498"	"0.0-4.0-2.0-0.60"	"ld8429"	"600"	"1366"	"chrome"	"108.0.0"	"FALSE"	"Windows 10"	"61.04"	n/a	n/a	n/a	n/a	n/a	n/a	"fixation"	n/a	n/a	n/a	n/a	"NULL"	"NULL"	"NULL"	n/a	"<p style=\"color: black; font-size: 80px; padding-left: 10%; padding-right: 25%; padding-top: 3%; padding-bottom: 36%\">+</p>"	n/a	"1478"	n/a	n/a	n/a	n/a	n/a	n/a	n/a	n/a	n/a
n/a	"image-keyboard-response"	"173"	"383989"	"0.0-4.0-2.0-1.60"	"ld8429"	"600"	"1366"	"chrome"	"108.0.0"	"FALSE"	"Windows 10"	"61.04"	n/a	n/a	n/a	n/a	n/a	n/a	"Trial"	n/a	n/a	n/a	n/a	"NULL"	"NULL"	"NULL"	"491"	"stimuli/Ebbinghaus_0.10000_-0.2150.png"	"arrowright"	n/a	"Ebbinghaus"	"arrowright"	"1493"	"TRUE"	"Ebbinghaus"	"0.1000000000"	"-0.215000000"	"1"	"79"
n/a	"html-keyboard-response"	"174"	"385152"	"0.0-4.0-2.0-0.61"	"ld8429"	"600"	"1366"	"chrome"	"108.0.0"	"FALSE"	"Windows 10"	"61.04"	n/a	n/a	n/a	n/a	n/a	n/a	"fixation"	n/a	n/a	n/a	n/a	"NULL"	"NULL"	"NULL"	n/a	"<p style=\"color: black; font-size: 80px; padding-left: 42%; padding-right: 26%; padding-top: 8%; padding-bottom: 11%\">+</p>"	n/a	"1156"	n/a	n/a	n/a	n/a	n/a	n/a	n/a	n/a	n/a
n/a	"image-keyboard-response"	"175"	"385603"	"0.0-4.0-2.0-1.61"	"ld8429"	"600"	"1366"	"chrome"	"108.0.0"	"FALSE"	"Windows 10"	"61.04"	n/a	n/a	n/a	n/a	n/a	n/a	"Trial"	n/a	n/a	n/a	n/a	"NULL"	"NULL"	"NULL"	"449"	"stimuli/Ebbinghaus_0.61429_0.11071.png"	"arrowleft"	n/a	"Ebbinghaus"	"arrowleft"	"1163"	"TRUE"	"Ebbinghaus"	"0.6142900000"	"0.1107100000"	"1"	"80"
n/a	"html-keyboard-response"	"176"	"386639"	"0.0-4.0-2.0-0.62"	"ld8429"	"600"	"1366"	"chrome"	"108.0.0"	"FALSE"	"Windows 10"	"61.04"	n/a	n/a	n/a	n/a	n/a	n/a	"fixation"	n/a	n/a	n/a	n/a	"NULL"	"NULL"	"NULL"	n/a	"<p style=\"color: black; font-size: 80px; padding-left: 13%; padding-right: 48%; padding-top: 40%; padding-bottom: 30%\">+</p>"	n/a	"1023"	n/a	n/a	n/a	n/a	n/a	n/a	n/a	n/a	n/a
n/a	"image-keyboard-response"	"177"	"387266"	"0.0-4.0-2.0-1.62"	"ld8429"	"600"	"1366"	"chrome"	"108.0.0"	"FALSE"	"Windows 10"	"61.04"	n/a	n/a	n/a	n/a	n/a	n/a	"Trial"	n/a	n/a	n/a	n/a	"NULL"	"NULL"	"NULL"	"626"	"stimuli/Ebbinghaus_-0.61429_0.15857.png"	"arrowleft"	n/a	"Ebbinghaus"	"arrowleft"	"1036"	"TRUE"	"Ebbinghaus"	"-0.614290000"	"0.1585700000"	"1"	"81"
n/a	"html-keyboard-response"	"178"	"388624"	"0.0-4.0-2.0-0.63"	"ld8429"	"600"	"1366"	"chrome"	"108.0.0"	"FALSE"	"Windows 10"	"61.04"	n/a	n/a	n/a	n/a	n/a	n/a	"fixation"	n/a	n/a	n/a	n/a	"NULL"	"NULL"	"NULL"	n/a	"<p style=\"color: black; font-size: 80px; padding-left: 36%; padding-right: 47%; padding-top: 50%; padding-bottom: 2%\">+</p>"	n/a	"1339"	n/a	n/a	n/a	n/a	n/a	n/a	n/a	n/a	n/a
n/a	"image-keyboard-response"	"179"	"389364"	"0.0-4.0-2.0-1.63"	"ld8429"	"600"	"1366"	"chrome"	"108.0.0"	"FALSE"	"Windows 10"	"61.04"	n/a	n/a	n/a	n/a	n/a	n/a	"Trial"	n/a	n/a	n/a	n/a	"NULL"	"NULL"	"NULL"	"738"	"stimuli/Ebbinghaus_0.35714_-0.2150.png"	"arrowright"	n/a	"Ebbinghaus"	"arrowright"	"1358"	"TRUE"	"Ebbinghaus"	"0.3571400000"	"-0.215000000"	"1"	"82"
n/a	"html-button-response"	"180"	"415518"	"0.0-4.0-3.0"	"ld8429"	"600"	"1366"	"chrome"	"108.0.0"	"FALSE"	"Windows 10"	"61.04"	n/a	n/a	n/a	n/a	n/a	n/a	"block_results"	n/a	n/a	n/a	n/a	"NULL"	"NULL"	"NULL"	"26151"	"<p>Your score for this illusion is <p style=\"color: black; font-size: 48px; font-weight: bold;\">81.7 %</p><hr><p>Can you do better in the next illusion?</p>"	"0"	n/a	n/a	n/a	n/a	n/a	n/a	n/a	n/a	n/a	n/a
"TRUE"	"preload"	"181"	"415700"	"0.0-5.0-0.0"	"ld8429"	"600"	"1366"	"chrome"	"108.0.0"	"FALSE"	"Windows 10"	"61.04"	n/a	n/a	n/a	n/a	n/a	n/a	n/a	n/a	n/a	n/a	"FALSE"	"list()"	"list()"	"list()"	n/a	n/a	n/a	n/a	n/a	n/a	n/a	n/a	n/a	n/a	n/a	n/a	n/a
n/a	"html-keyboard-response"	"182"	"478215"	"0.0-5.0-1.0"	"ld8429"	"600"	"1366"	"chrome"	"108.0.0"	"FALSE"	"Windows 10"	"61.04"	n/a	n/a	n/a	n/a	n/a	n/a	n/a	n/a	n/a	n/a	n/a	"NULL"	"NULL"	"NULL"	"62514"	"<p><b>Part 2/6</b></p><p>In this part, two horizontal red lines will appear one above the other.</p><p>Your task is to select which <b>line is longer</b> in length as fast as you can, without making errors.</p><p>Don't get distracted by the surrounding black arrows at the end of the red lines!</p><p>Press <b>the UP or the DOWN arrow</b> to indicate where is the longer <b>red line.</b></p><div style='float: center'><img src='materials/instructions/MullerLyer_Demo.png' height='300'></img><p><img src='utils/answer/answer_updown_keyboard.PNG' height='150'></img></p><p class='small'>In this example, the correct answer is the <b>UP arrow</b>.</p></div><p>Are you ready? <b>Press ENTER to start</b></p>"	"enter"	n/a	n/a	n/a	n/a	n/a	n/a	n/a	n/a	n/a	n/a
n/a	"html-keyboard-response"	"183"	"479858"	"0.0-5.0-2.0-0.0"	"ld8429"	"600"	"1366"	"chrome"	"108.0.0"	"FALSE"	"Windows 10"	"61.04"	n/a	n/a	n/a	n/a	n/a	n/a	"fixation"	n/a	n/a	n/a	n/a	"NULL"	"NULL"	"NULL"	n/a	"<p style=\"color: black; font-size: 80px; padding-left: 44%; padding-right: 39%; padding-top: 46%; padding-bottom: 14%\">+</p>"	n/a	"1121"	n/a	n/a	n/a	n/a	n/a	n/a	n/a	n/a	n/a
n/a	"image-keyboard-response"	"184"	"480601"	"0.0-5.0-2.0-1.0"	"ld8429"	"600"	"1366"	"chrome"	"108.0.0"	"FALSE"	"Windows 10"	"61.04"	n/a	n/a	n/a	n/a	n/a	n/a	"Trial"	n/a	n/a	n/a	n/a	"NULL"	"NULL"	"NULL"	"741"	"stimuli/MullerLyer_2.30000_0.23665.png"	"arrowup"	n/a	"MullerLyer"	"arrowup"	"1643"	"TRUE"	"MullerLyer"	"2.3000000000"	"0.2366500000"	"2"	"1"
n/a	"html-keyboard-response"	"185"	"482092"	"0.0-5.0-2.0-0.1"	"ld8429"	"600"	"1366"	"chrome"	"108.0.0"	"FALSE"	"Windows 10"	"61.04"	n/a	n/a	n/a	n/a	n/a	n/a	"fixation"	n/a	n/a	n/a	n/a	"NULL"	"NULL"	"NULL"	n/a	"<p style=\"color: black; font-size: 80px; padding-left: 33%; padding-right: 35%; padding-top: 46%; padding-bottom: 26%\">+</p>"	n/a	"1479"	n/a	n/a	n/a	n/a	n/a	n/a	n/a	n/a	n/a
n/a	"image-keyboard-response"	"186"	"482594"	"0.0-5.0-2.0-1.1"	"ld8429"	"600"	"1366"	"chrome"	"108.0.0"	"FALSE"	"Windows 10"	"61.04"	n/a	n/a	n/a	n/a	n/a	n/a	"Trial"	n/a	n/a	n/a	n/a	"NULL"	"NULL"	"NULL"	"500"	"stimuli/MullerLyer_-20.04286_-0.07627.png"	"arrowdown"	n/a	"MullerLyer"	"arrowdown"	"1491"	"TRUE"	"MullerLyer"	"-20.04286000"	"-0.076270000"	"2"	"2"
n/a	"html-keyboard-response"	"187"	"483708"	"0.0-5.0-2.0-0.2"	"ld8429"	"600"	"1366"	"chrome"	"108.0.0"	"FALSE"	"Windows 10"	"61.04"	n/a	n/a	n/a	n/a	n/a	n/a	"fixation"	n/a	n/a	n/a	n/a	"NULL"	"NULL"	"NULL"	n/a	"<p style=\"color: black; font-size: 80px; padding-left: 8%; padding-right: 12%; padding-top: 18%; padding-bottom: 22%\">+</p>"	n/a	"1098"	n/a	n/a	n/a	n/a	n/a	n/a	n/a	n/a	n/a
n/a	"image-keyboard-response"	"188"	"484245"	"0.0-5.0-2.0-1.2"	"ld8429"	"600"	"1366"	"chrome"	"108.0.0"	"FALSE"	"Windows 10"	"61.04"	n/a	n/a	n/a	n/a	n/a	n/a	"Trial"	n/a	n/a	n/a	n/a	"NULL"	"NULL"	"NULL"	"537"	"stimuli/MullerLyer_2.30000_0.14541.png"	"arrowup"	n/a	"MullerLyer"	"arrowup"	"1114"	"TRUE"	"MullerLyer"	"2.3000000000"	"0.1454100000"	"2"	"3"
n/a	"html-keyboard-response"	"189"	"485265"	"0.0-5.0-2.0-0.3"	"ld8429"	"600"	"1366"	"chrome"	"108.0.0"	"FALSE"	"Windows 10"	"61.04"	n/a	n/a	n/a	n/a	n/a	n/a	"fixation"	n/a	n/a	n/a	n/a	"NULL"	"NULL"	"NULL"	n/a	"<p style=\"color: black; font-size: 80px; padding-left: 25%; padding-right: 8%; padding-top: 30%; padding-bottom: 46%\">+</p>"	n/a	"1005"	n/a	n/a	n/a	n/a	n/a	n/a	n/a	n/a	n/a
n/a	"image-keyboard-response"	"190"	"485739"	"0.0-5.0-2.0-1.3"	"ld8429"	"600"	"1366"	"chrome"	"108.0.0"	"FALSE"	"Windows 10"	"61.04"	n/a	n/a	n/a	n/a	n/a	n/a	"Trial"	n/a	n/a	n/a	n/a	"NULL"	"NULL"	"NULL"	"473"	"stimuli/MullerLyer_-2.3000_0.23665.png"	"arrowup"	n/a	"MullerLyer"	"arrowup"	"1020"	"TRUE"	"MullerLyer"	"-2.300000000"	"0.2366500000"	"2"	"4"
n/a	"html-keyboard-response"	"191"	"487169"	"0.0-5.0-2.0-0.4"	"ld8429"	"600"	"1366"	"chrome"	"108.0.0"	"FALSE"	"Windows 10"	"61.04"	n/a	n/a	n/a	n/a	n/a	n/a	"fixation"	n/a	n/a	n/a	n/a	"NULL"	"NULL"	"NULL"	n/a	"<p style=\"color: black; font-size: 80px; padding-left: 48%; padding-right: 19%; padding-top: 48%; padding-bottom: 33%\">+</p>"	n/a	"1409"	n/a	n/a	n/a	n/a	n/a	n/a	n/a	n/a	n/a
n/a	"image-keyboard-response"	"192"	"487632"	"0.0-5.0-2.0-1.4"	"ld8429"	"600"	"1366"	"chrome"	"108.0.0"	"FALSE"	"Windows 10"	"61.04"	n/a	n/a	n/a	n/a	n/a	n/a	"Trial"	n/a	n/a	n/a	n/a	"NULL"	"NULL"	"NULL"	"462"	"stimuli/MullerLyer_-14.12857_-0.23665.png"	"arrowdown"	n/a	"MullerLyer"	"arrowdown"	"1430"	"TRUE"	"MullerLyer"	"-14.12857000"	"-0.236650000"	"2"	"5"
n/a	"html-keyboard-response"	"193"	"488936"	"0.0-5.0-2.0-0.5"	"ld8429"	"600"	"1366"	"chrome"	"108.0.0"	"FALSE"	"Windows 10"	"61.04"	n/a	n/a	n/a	n/a	n/a	n/a	"fixation"	n/a	n/a	n/a	n/a	"NULL"	"NULL"	"NULL"	n/a	"<p style=\"color: black; font-size: 80px; padding-left: 35%; padding-right: 43%; padding-top: 41%; padding-bottom: 29%\">+</p>"	n/a	"1297"	n/a	n/a	n/a	n/a	n/a	n/a	n/a	n/a	n/a
n/a	"image-keyboard-response"	"194"	"489409"	"0.0-5.0-2.0-1.5"	"ld8429"	"600"	"1366"	"chrome"	"108.0.0"	"FALSE"	"Windows 10"	"61.04"	n/a	n/a	n/a	n/a	n/a	n/a	"Trial"	n/a	n/a	n/a	n/a	"NULL"	"NULL"	"NULL"	"471"	"stimuli/MullerLyer_14.12857_0.23665.png"	"arrowup"	n/a	"MullerLyer"	"arrowup"	"1304"	"TRUE"	"MullerLyer"	"14.128570000"	"0.2366500000"	"2"	"6"
n/a	"html-keyboard-response"	"195"	"490748"	"0.0-5.0-2.0-0.6"	"ld8429"	"600"	"1366"	"chrome"	"108.0.0"	"FALSE"	"Windows 10"	"61.04"	n/a	n/a	n/a	n/a	n/a	n/a	"fixation"	n/a	n/a	n/a	n/a	"NULL"	"NULL"	"NULL"	n/a	"<p style=\"color: black; font-size: 80px; padding-left: 3%; padding-right: 35%; padding-top: 24%; padding-bottom: 38%\">+</p>"	n/a	"1329"	n/a	n/a	n/a	n/a	n/a	n/a	n/a	n/a	n/a
n/a	"image-keyboard-response"	"196"	"491230"	"0.0-5.0-2.0-1.6"	"ld8429"	"600"	"1366"	"chrome"	"108.0.0"	"FALSE"	"Windows 10"	"61.04"	n/a	n/a	n/a	n/a	n/a	n/a	"Trial"	n/a	n/a	n/a	n/a	"NULL"	"NULL"	"NULL"	"481"	"stimuli/MullerLyer_14.12857_-0.3500.png"	"arrowdown"	n/a	"MullerLyer"	"arrowdown"	"1339"	"TRUE"	"MullerLyer"	"14.128570000"	"-0.350000000"	"2"	"7"
n/a	"html-keyboard-response"	"197"	"492546"	"0.0-5.0-2.0-0.7"	"ld8429"	"600"	"1366"	"chrome"	"108.0.0"	"FALSE"	"Windows 10"	"61.04"	n/a	n/a	n/a	n/a	n/a	n/a	"fixation"	n/a	n/a	n/a	n/a	"NULL"	"NULL"	"NULL"	n/a	"<p style=\"color: black; font-size: 80px; padding-left: 14%; padding-right: 43%; padding-top: 38%; padding-bottom: 38%\">+</p>"	n/a	"1296"	n/a	n/a	n/a	n/a	n/a	n/a	n/a	n/a	n/a
n/a	"image-keyboard-response"	"198"	"493263"	"0.0-5.0-2.0-1.7"	"ld8429"	"600"	"1366"	"chrome"	"108.0.0"	"FALSE"	"Windows 10"	"61.04"	n/a	n/a	n/a	n/a	n/a	n/a	"Trial"	n/a	n/a	n/a	n/a	"NULL"	"NULL"	"NULL"	"716"	"stimuli/MullerLyer_-20.04286_-0.14541.png"	"arrowdown"	n/a	"MullerLyer"	"arrowdown"	"1316"	"TRUE"	"MullerLyer"	"-20.04286000"	"-0.145410000"	"2"	"8"
n/a	"html-keyboard-response"	"199"	"494425"	"0.0-5.0-2.0-0.8"	"ld8429"	"600"	"1366"	"chrome"	"108.0.0"	"FALSE"	"Windows 10"	"61.04"	n/a	n/a	n/a	n/a	n/a	n/a	"fixation"	n/a	n/a	n/a	n/a	"NULL"	"NULL"	"NULL"	n/a	"<p style=\"color: black; font-size: 80px; padding-left: 34%; padding-right: 47%; padding-top: 26%; padding-bottom: 22%\">+</p>"	n/a	"1154"	n/a	n/a	n/a	n/a	n/a	n/a	n/a	n/a	n/a
n/a	"image-keyboard-response"	"200"	"494905"	"0.0-5.0-2.0-1.8"	"ld8429"	"600"	"1366"	"chrome"	"108.0.0"	"FALSE"	"Windows 10"	"61.04"	n/a	n/a	n/a	n/a	n/a	n/a	"Trial"	n/a	n/a	n/a	n/a	"NULL"	"NULL"	"NULL"	"479"	"stimuli/MullerLyer_8.21429_-0.07627.png"	"arrowup"	n/a	"MullerLyer"	"arrowdown"	"1162"	"FALSE"	"MullerLyer"	"8.2142900000"	"-0.076270000"	"2"	"9"
n/a	"html-keyboard-response"	"201"	"496166"	"0.0-5.0-2.0-0.9"	"ld8429"	"600"	"1366"	"chrome"	"108.0.0"	"FALSE"	"Windows 10"	"61.04"	n/a	n/a	n/a	n/a	n/a	n/a	"fixation"	n/a	n/a	n/a	n/a	"NULL"	"NULL"	"NULL"	n/a	"<p style=\"color: black; font-size: 80px; padding-left: 34%; padding-right: 22%; padding-top: 7%; padding-bottom: 17%\">+</p>"	n/a	"1249"	n/a	n/a	n/a	n/a	n/a	n/a	n/a	n/a	n/a
n/a	"image-keyboard-response"	"202"	"496559"	"0.0-5.0-2.0-1.9"	"ld8429"	"600"	"1366"	"chrome"	"108.0.0"	"FALSE"	"Windows 10"	"61.04"	n/a	n/a	n/a	n/a	n/a	n/a	"Trial"	n/a	n/a	n/a	n/a	"NULL"	"NULL"	"NULL"	"392"	"stimuli/MullerLyer_-20.04286_0.35000.png"	"arrowup"	n/a	"MullerLyer"	"arrowup"	"1261"	"TRUE"	"MullerLyer"	"-20.04286000"	"0.3500000000"	"2"	"10"
n/a	"html-keyboard-response"	"203"	"497743"	"0.0-5.0-2.0-0.10"	"ld8429"	"600"	"1366"	"chrome"	"108.0.0"	"FALSE"	"Windows 10"	"61.04"	n/a	n/a	n/a	n/a	n/a	n/a	"fixation"	n/a	n/a	n/a	n/a	"NULL"	"NULL"	"NULL"	n/a	"<p style=\"color: black; font-size: 80px; padding-left: 31%; padding-right: 15%; padding-top: 33%; padding-bottom: 16%\">+</p>"	n/a	"1169"	n/a	n/a	n/a	n/a	n/a	n/a	n/a	n/a	n/a
n/a	"image-keyboard-response"	"204"	"498349"	"0.0-5.0-2.0-1.10"	"ld8429"	"600"	"1366"	"chrome"	"108.0.0"	"FALSE"	"Windows 10"	"61.04"	n/a	n/a	n/a	n/a	n/a	n/a	"Trial"	n/a	n/a	n/a	n/a	"NULL"	"NULL"	"NULL"	"605"	"stimuli/MullerLyer_2.30000_-0.14541.png"	"arrowdown"	n/a	"MullerLyer"	"arrowdown"	"1184"	"TRUE"	"MullerLyer"	"2.3000000000"	"-0.145410000"	"2"	"11"
n/a	"html-keyboard-response"	"205"	"499858"	"0.0-5.0-2.0-0.11"	"ld8429"	"600"	"1366"	"chrome"	"108.0.0"	"FALSE"	"Windows 10"	"61.04"	n/a	n/a	n/a	n/a	n/a	n/a	"fixation"	n/a	n/a	n/a	n/a	"NULL"	"NULL"	"NULL"	n/a	"<p style=\"color: black; font-size: 80px; padding-left: 4%; padding-right: 21%; padding-top: 13%; padding-bottom: 44%\">+</p>"	n/a	"1499"	n/a	n/a	n/a	n/a	n/a	n/a	n/a	n/a	n/a
n/a	"image-keyboard-response"	"206"	"500380"	"0.0-5.0-2.0-1.11"	"ld8429"	"600"	"1366"	"chrome"	"108.0.0"	"FALSE"	"Windows 10"	"61.04"	n/a	n/a	n/a	n/a	n/a	n/a	"Trial"	n/a	n/a	n/a	n/a	"NULL"	"NULL"	"NULL"	"521"	"stimuli/MullerLyer_-8.21429_-0.14541.png"	"arrowdown"	n/a	"MullerLyer"	"arrowdown"	"1509"	"TRUE"	"MullerLyer"	"-8.214290000"	"-0.145410000"	"2"	"12"
n/a	"html-keyboard-response"	"207"	"501848"	"0.0-5.0-2.0-0.12"	"ld8429"	"600"	"1366"	"chrome"	"108.0.0"	"FALSE"	"Windows 10"	"61.04"	n/a	n/a	n/a	n/a	n/a	n/a	"fixation"	n/a	n/a	n/a	n/a	"NULL"	"NULL"	"NULL"	n/a	"<p style=\"color: black; font-size: 80px; padding-left: 48%; padding-right: 10%; padding-top: 2%; padding-bottom: 30%\">+</p>"	n/a	"1449"	n/a	n/a	n/a	n/a	n/a	n/a	n/a	n/a	n/a
n/a	"image-keyboard-response"	"208"	"502274"	"0.0-5.0-2.0-1.12"	"ld8429"	"600"	"1366"	"chrome"	"108.0.0"	"FALSE"	"Windows 10"	"61.04"	n/a	n/a	n/a	n/a	n/a	n/a	"Trial"	n/a	n/a	n/a	n/a	"NULL"	"NULL"	"NULL"	"425"	"stimuli/MullerLyer_8.21429_-0.23665.png"	"arrowdown"	n/a	"MullerLyer"	"arrowdown"	"1468"	"TRUE"	"MullerLyer"	"8.2142900000"	"-0.236650000"	"2"	"13"
n/a	"html-keyboard-response"	"209"	"503489"	"0.0-5.0-2.0-0.13"	"ld8429"	"600"	"1366"	"chrome"	"108.0.0"	"FALSE"	"Windows 10"	"61.04"	n/a	n/a	n/a	n/a	n/a	n/a	"fixation"	n/a	n/a	n/a	n/a	"NULL"	"NULL"	"NULL"	n/a	"<p style=\"color: black; font-size: 80px; padding-left: 27%; padding-right: 43%; padding-top: 27%; padding-bottom: 33%\">+</p>"	n/a	"1201"	n/a	n/a	n/a	n/a	n/a	n/a	n/a	n/a	n/a
n/a	"image-keyboard-response"	"210"	"503899"	"0.0-5.0-2.0-1.13"	"ld8429"	"600"	"1366"	"chrome"	"108.0.0"	"FALSE"	"Windows 10"	"61.04"	n/a	n/a	n/a	n/a	n/a	n/a	"Trial"	n/a	n/a	n/a	n/a	"NULL"	"NULL"	"NULL"	"410"	"stimuli/MullerLyer_-20.04286_0.07627.png"	"arrowup"	n/a	"MullerLyer"	"arrowup"	"1215"	"TRUE"	"MullerLyer"	"-20.04286000"	"0.0762700000"	"2"	"14"
n/a	"html-keyboard-response"	"211"	"504967"	"0.0-5.0-2.0-0.14"	"ld8429"	"600"	"1366"	"chrome"	"108.0.0"	"FALSE"	"Windows 10"	"61.04"	n/a	n/a	n/a	n/a	n/a	n/a	"fixation"	n/a	n/a	n/a	n/a	"NULL"	"NULL"	"NULL"	n/a	"<p style=\"color: black; font-size: 80px; padding-left: 36%; padding-right: 2%; padding-top: 13%; padding-bottom: 33%\">+</p>"	n/a	"1061"	n/a	n/a	n/a	n/a	n/a	n/a	n/a	n/a	n/a
n/a	"image-keyboard-response"	"212"	"505368"	"0.0-5.0-2.0-1.14"	"ld8429"	"600"	"1366"	"chrome"	"108.0.0"	"FALSE"	"Windows 10"	"61.04"	n/a	n/a	n/a	n/a	n/a	n/a	"Trial"	n/a	n/a	n/a	n/a	"NULL"	"NULL"	"NULL"	"400"	"stimuli/MullerLyer_20.04286_0.35000.png"	"arrowup"	n/a	"MullerLyer"	"arrowup"	"1068"	"TRUE"	"MullerLyer"	"20.042860000"	"0.3500000000"	"2"	"15"
n/a	"html-keyboard-response"	"213"	"506452"	"0.0-5.0-2.0-0.15"	"ld8429"	"600"	"1366"	"chrome"	"108.0.0"	"FALSE"	"Windows 10"	"61.04"	n/a	n/a	n/a	n/a	n/a	n/a	"fixation"	n/a	n/a	n/a	n/a	"NULL"	"NULL"	"NULL"	n/a	"<p style=\"color: black; font-size: 80px; padding-left: 16%; padding-right: 35%; padding-top: 27%; padding-bottom: 46%\">+</p>"	n/a	"1079"	n/a	n/a	n/a	n/a	n/a	n/a	n/a	n/a	n/a
n/a	"image-keyboard-response"	"214"	"506946"	"0.0-5.0-2.0-1.15"	"ld8429"	"600"	"1366"	"chrome"	"108.0.0"	"FALSE"	"Windows 10"	"61.04"	n/a	n/a	n/a	n/a	n/a	n/a	"Trial"	n/a	n/a	n/a	n/a	"NULL"	"NULL"	"NULL"	"492"	"stimuli/MullerLyer_-14.12857_-0.3500.png"	"arrowdown"	n/a	"MullerLyer"	"arrowdown"	"1084"	"TRUE"	"MullerLyer"	"-14.12857000"	"-0.350000000"	"2"	"16"
n/a	"html-keyboard-response"	"215"	"508005"	"0.0-5.0-2.0-0.16"	"ld8429"	"600"	"1366"	"chrome"	"108.0.0"	"FALSE"	"Windows 10"	"61.04"	n/a	n/a	n/a	n/a	n/a	n/a	"fixation"	n/a	n/a	n/a	n/a	"NULL"	"NULL"	"NULL"	n/a	"<p style=\"color: black; font-size: 80px; padding-left: 2%; padding-right: 37%; padding-top: 10%; padding-bottom: 40%\">+</p>"	n/a	"1052"	n/a	n/a	n/a	n/a	n/a	n/a	n/a	n/a	n/a
n/a	"image-keyboard-response"	"216"	"508490"	"0.0-5.0-2.0-1.16"	"ld8429"	"600"	"1366"	"chrome"	"108.0.0"	"FALSE"	"Windows 10"	"61.04"	n/a	n/a	n/a	n/a	n/a	n/a	"Trial"	n/a	n/a	n/a	n/a	"NULL"	"NULL"	"NULL"	"483"	"stimuli/MullerLyer_-8.21429_0.14541.png"	"arrowup"	n/a	"MullerLyer"	"arrowup"	"1059"	"TRUE"	"MullerLyer"	"-8.214290000"	"0.1454100000"	"2"	"17"
n/a	"html-keyboard-response"	"217"	"509906"	"0.0-5.0-2.0-0.17"	"ld8429"	"600"	"1366"	"chrome"	"108.0.0"	"FALSE"	"Windows 10"	"61.04"	n/a	n/a	n/a	n/a	n/a	n/a	"fixation"	n/a	n/a	n/a	n/a	"NULL"	"NULL"	"NULL"	n/a	"<p style=\"color: black; font-size: 80px; padding-left: 50%; padding-right: 32%; padding-top: 40%; padding-bottom: 13%\">+</p>"	n/a	"1392"	n/a	n/a	n/a	n/a	n/a	n/a	n/a	n/a	n/a
n/a	"image-keyboard-response"	"218"	"510604"	"0.0-5.0-2.0-1.17"	"ld8429"	"600"	"1366"	"chrome"	"108.0.0"	"FALSE"	"Windows 10"	"61.04"	n/a	n/a	n/a	n/a	n/a	n/a	"Trial"	n/a	n/a	n/a	n/a	"NULL"	"NULL"	"NULL"	"697"	"stimuli/MullerLyer_-20.04286_0.14541.png"	"arrowup"	n/a	"MullerLyer"	"arrowup"	"1416"	"TRUE"	"MullerLyer"	"-20.04286000"	"0.1454100000"	"2"	"18"
n/a	"html-keyboard-response"	"219"	"511826"	"0.0-5.0-2.0-0.18"	"ld8429"	"600"	"1366"	"chrome"	"108.0.0"	"FALSE"	"Windows 10"	"61.04"	n/a	n/a	n/a	n/a	n/a	n/a	"fixation"	n/a	n/a	n/a	n/a	"NULL"	"NULL"	"NULL"	n/a	"<p style=\"color: black; font-size: 80px; padding-left: 12%; padding-right: 14%; padding-top: 19%; padding-bottom: 26%\">+</p>"	n/a	"1212"	n/a	n/a	n/a	n/a	n/a	n/a	n/a	n/a	n/a
n/a	"image-keyboard-response"	"220"	"512318"	"0.0-5.0-2.0-1.18"	"ld8429"	"600"	"1366"	"chrome"	"108.0.0"	"FALSE"	"Windows 10"	"61.04"	n/a	n/a	n/a	n/a	n/a	n/a	"Trial"	n/a	n/a	n/a	n/a	"NULL"	"NULL"	"NULL"	"490"	"stimuli/MullerLyer_-2.3000_-0.3500.png"	"arrowdown"	n/a	"MullerLyer"	"arrowdown"	"1222"	"TRUE"	"MullerLyer"	"-2.300000000"	"-0.350000000"	"2"	"19"
n/a	"html-keyboard-response"	"221"	"513549"	"0.0-5.0-2.0-0.19"	"ld8429"	"600"	"1366"	"chrome"	"108.0.0"	"FALSE"	"Windows 10"	"61.04"	n/a	n/a	n/a	n/a	n/a	n/a	"fixation"	n/a	n/a	n/a	n/a	"NULL"	"NULL"	"NULL"	n/a	"<p style=\"color: black; font-size: 80px; padding-left: 3%; padding-right: 4%; padding-top: 13%; padding-bottom: 8%\">+</p>"	n/a	"1226"	n/a	n/a	n/a	n/a	n/a	n/a	n/a	n/a	n/a
n/a	"image-keyboard-response"	"222"	"514062"	"0.0-5.0-2.0-1.19"	"ld8429"	"600"	"1366"	"chrome"	"108.0.0"	"FALSE"	"Windows 10"	"61.04"	n/a	n/a	n/a	n/a	n/a	n/a	"Trial"	n/a	n/a	n/a	n/a	"NULL"	"NULL"	"NULL"	"512"	"stimuli/MullerLyer_14.12857_-0.14541.png"	"arrowup"	n/a	"MullerLyer"	"arrowdown"	"1231"	"FALSE"	"MullerLyer"	"14.128570000"	"-0.145410000"	"2"	"20"
n/a	"html-keyboard-response"	"223"	"515185"	"0.0-5.0-2.0-0.20"	"ld8429"	"600"	"1366"	"chrome"	"108.0.0"	"FALSE"	"Windows 10"	"61.04"	n/a	n/a	n/a	n/a	n/a	n/a	"fixation"	n/a	n/a	n/a	n/a	"NULL"	"NULL"	"NULL"	n/a	"<p style=\"color: black; font-size: 80px; padding-left: 1%; padding-right: 22%; padding-top: 31%; padding-bottom: 40%\">+</p>"	n/a	"1111"	n/a	n/a	n/a	n/a	n/a	n/a	n/a	n/a	n/a
n/a	"image-keyboard-response"	"224"	"515622"	"0.0-5.0-2.0-1.20"	"ld8429"	"600"	"1366"	"chrome"	"108.0.0"	"FALSE"	"Windows 10"	"61.04"	n/a	n/a	n/a	n/a	n/a	n/a	"Trial"	n/a	n/a	n/a	n/a	"NULL"	"NULL"	"NULL"	"436"	"stimuli/MullerLyer_-8.21429_0.07627.png"	"arrowup"	n/a	"MullerLyer"	"arrowup"	"1123"	"TRUE"	"MullerLyer"	"-8.214290000"	"0.0762700000"	"2"	"21"
n/a	"html-keyboard-response"	"225"	"516669"	"0.0-5.0-2.0-0.21"	"ld8429"	"600"	"1366"	"chrome"	"108.0.0"	"FALSE"	"Windows 10"	"61.04"	n/a	n/a	n/a	n/a	n/a	n/a	"fixation"	n/a	n/a	n/a	n/a	"NULL"	"NULL"	"NULL"	n/a	"<p style=\"color: black; font-size: 80px; padding-left: 12%; padding-right: 3%; padding-top: 35%; padding-bottom: 11%\">+</p>"	n/a	"1040"	n/a	n/a	n/a	n/a	n/a	n/a	n/a	n/a	n/a
n/a	"image-keyboard-response"	"226"	"517120"	"0.0-5.0-2.0-1.21"	"ld8429"	"600"	"1366"	"chrome"	"108.0.0"	"FALSE"	"Windows 10"	"61.04"	n/a	n/a	n/a	n/a	n/a	n/a	"Trial"	n/a	n/a	n/a	n/a	"NULL"	"NULL"	"NULL"	"450"	"stimuli/MullerLyer_-14.12857_0.14541.png"	"arrowup"	n/a	"MullerLyer"	"arrowup"	"1047"	"TRUE"	"MullerLyer"	"-14.12857000"	"0.1454100000"	"2"	"22"
n/a	"html-keyboard-response"	"227"	"518208"	"0.0-5.0-2.0-0.22"	"ld8429"	"600"	"1366"	"chrome"	"108.0.0"	"FALSE"	"Windows 10"	"61.04"	n/a	n/a	n/a	n/a	n/a	n/a	"fixation"	n/a	n/a	n/a	n/a	"NULL"	"NULL"	"NULL"	n/a	"<p style=\"color: black; font-size: 80px; padding-left: 46%; padding-right: 10%; padding-top: 32%; padding-bottom: 6%\">+</p>"	n/a	"1066"	n/a	n/a	n/a	n/a	n/a	n/a	n/a	n/a	n/a
n/a	"image-keyboard-response"	"228"	"518573"	"0.0-5.0-2.0-1.22"	"ld8429"	"600"	"1366"	"chrome"	"108.0.0"	"FALSE"	"Windows 10"	"61.04"	n/a	n/a	n/a	n/a	n/a	n/a	"Trial"	n/a	n/a	n/a	n/a	"NULL"	"NULL"	"NULL"	"364"	"stimuli/MullerLyer_-2.3000_0.35000.png"	"arrowup"	n/a	"MullerLyer"	"arrowup"	"1088"	"TRUE"	"MullerLyer"	"-2.300000000"	"0.3500000000"	"2"	"23"
n/a	"html-keyboard-response"	"229"	"519984"	"0.0-5.0-2.0-0.23"	"ld8429"	"600"	"1366"	"chrome"	"108.0.0"	"FALSE"	"Windows 10"	"61.04"	n/a	n/a	n/a	n/a	n/a	n/a	"fixation"	n/a	n/a	n/a	n/a	"NULL"	"NULL"	"NULL"	n/a	"<p style=\"color: black; font-size: 80px; padding-left: 48%; padding-right: 22%; padding-top: 39%; padding-bottom: 41%\">+</p>"	n/a	"1399"	n/a	n/a	n/a	n/a	n/a	n/a	n/a	n/a	n/a
n/a	"image-keyboard-response"	"230"	"520514"	"0.0-5.0-2.0-1.23"	"ld8429"	"600"	"1366"	"chrome"	"108.0.0"	"FALSE"	"Windows 10"	"61.04"	n/a	n/a	n/a	n/a	n/a	n/a	"Trial"	n/a	n/a	n/a	n/a	"NULL"	"NULL"	"NULL"	"523"	"stimuli/MullerLyer_2.30000_-0.07627.png"	"arrowdown"	n/a	"MullerLyer"	"arrowdown"	"1411"	"TRUE"	"MullerLyer"	"2.3000000000"	"-0.076270000"	"2"	"24"
n/a	"html-keyboard-response"	"231"	"521540"	"0.0-5.0-2.0-0.24"	"ld8429"	"600"	"1366"	"chrome"	"108.0.0"	"FALSE"	"Windows 10"	"61.04"	n/a	n/a	n/a	n/a	n/a	n/a	"fixation"	n/a	n/a	n/a	n/a	"NULL"	"NULL"	"NULL"	n/a	"<p style=\"color: black; font-size: 80px; padding-left: 15%; padding-right: 50%; padding-top: 39%; padding-bottom: 29%\">+</p>"	n/a	"1017"	n/a	n/a	n/a	n/a	n/a	n/a	n/a	n/a	n/a
n/a	"image-keyboard-response"	"232"	"522328"	"0.0-5.0-2.0-1.24"	"ld8429"	"600"	"1366"	"chrome"	"108.0.0"	"FALSE"	"Windows 10"	"61.04"	n/a	n/a	n/a	n/a	n/a	n/a	"Trial"	n/a	n/a	n/a	n/a	"NULL"	"NULL"	"NULL"	"787"	"stimuli/MullerLyer_-2.3000_0.07627.png"	"arrowup"	n/a	"MullerLyer"	"arrowup"	"1026"	"TRUE"	"MullerLyer"	"-2.300000000"	"0.0762700000"	"2"	"25"
n/a	"html-keyboard-response"	"233"	"523740"	"0.0-5.0-2.0-0.25"	"ld8429"	"600"	"1366"	"chrome"	"108.0.0"	"FALSE"	"Windows 10"	"61.04"	n/a	n/a	n/a	n/a	n/a	n/a	"fixation"	n/a	n/a	n/a	n/a	"NULL"	"NULL"	"NULL"	n/a	"<p style=\"color: black; font-size: 80px; padding-left: 32%; padding-right: 38%; padding-top: 50%; padding-bottom: 2%\">+</p>"	n/a	"1407"	n/a	n/a	n/a	n/a	n/a	n/a	n/a	n/a	n/a
n/a	"image-keyboard-response"	"234"	"524171"	"0.0-5.0-2.0-1.25"	"ld8429"	"600"	"1366"	"chrome"	"108.0.0"	"FALSE"	"Windows 10"	"61.04"	n/a	n/a	n/a	n/a	n/a	n/a	"Trial"	n/a	n/a	n/a	n/a	"NULL"	"NULL"	"NULL"	"430"	"stimuli/MullerLyer_-20.04286_0.23665.png"	"arrowup"	n/a	"MullerLyer"	"arrowup"	"1412"	"TRUE"	"MullerLyer"	"-20.04286000"	"0.2366500000"	"2"	"26"
n/a	"html-keyboard-response"	"235"	"525246"	"0.0-5.0-2.0-0.26"	"ld8429"	"600"	"1366"	"chrome"	"108.0.0"	"FALSE"	"Windows 10"	"61.04"	n/a	n/a	n/a	n/a	n/a	n/a	"fixation"	n/a	n/a	n/a	n/a	"NULL"	"NULL"	"NULL"	n/a	"<p style=\"color: black; font-size: 80px; padding-left: 9%; padding-right: 3%; padding-top: 38%; padding-bottom: 10%\">+</p>"	n/a	"1062"	n/a	n/a	n/a	n/a	n/a	n/a	n/a	n/a	n/a
n/a	"image-keyboard-response"	"236"	"525923"	"0.0-5.0-2.0-1.26"	"ld8429"	"600"	"1366"	"chrome"	"108.0.0"	"FALSE"	"Windows 10"	"61.04"	n/a	n/a	n/a	n/a	n/a	n/a	"Trial"	n/a	n/a	n/a	n/a	"NULL"	"NULL"	"NULL"	"675"	"stimuli/MullerLyer_20.04286_-0.07627.png"	"arrowup"	n/a	"MullerLyer"	"arrowdown"	"1075"	"FALSE"	"MullerLyer"	"20.042860000"	"-0.076270000"	"2"	"27"
n/a	"html-keyboard-response"	"237"	"527249"	"0.0-5.0-2.0-0.27"	"ld8429"	"600"	"1366"	"chrome"	"108.0.0"	"FALSE"	"Windows 10"	"61.04"	n/a	n/a	n/a	n/a	n/a	n/a	"fixation"	n/a	n/a	n/a	n/a	"NULL"	"NULL"	"NULL"	n/a	"<p style=\"color: black; font-size: 80px; padding-left: 15%; padding-right: 26%; padding-top: 17%; padding-bottom: 29%\">+</p>"	n/a	"1315"	n/a	n/a	n/a	n/a	n/a	n/a	n/a	n/a	n/a
n/a	"image-keyboard-response"	"238"	"527728"	"0.0-5.0-2.0-1.27"	"ld8429"	"600"	"1366"	"chrome"	"108.0.0"	"FALSE"	"Windows 10"	"61.04"	n/a	n/a	n/a	n/a	n/a	n/a	"Trial"	n/a	n/a	n/a	n/a	"NULL"	"NULL"	"NULL"	"478"	"stimuli/MullerLyer_8.21429_-0.3500.png"	"arrowdown"	n/a	"MullerLyer"	"arrowdown"	"1326"	"TRUE"	"MullerLyer"	"8.2142900000"	"-0.350000000"	"2"	"28"
n/a	"html-keyboard-response"	"239"	"529217"	"0.0-5.0-2.0-0.28"	"ld8429"	"600"	"1366"	"chrome"	"108.0.0"	"FALSE"	"Windows 10"	"61.04"	n/a	n/a	n/a	n/a	n/a	n/a	"fixation"	n/a	n/a	n/a	n/a	"NULL"	"NULL"	"NULL"	n/a	"<p style=\"color: black; font-size: 80px; padding-left: 18%; padding-right: 35%; padding-top: 39%; padding-bottom: 1%\">+</p>"	n/a	"1468"	n/a	n/a	n/a	n/a	n/a	n/a	n/a	n/a	n/a
n/a	"image-keyboard-response"	"240"	"529633"	"0.0-5.0-2.0-1.28"	"ld8429"	"600"	"1366"	"chrome"	"108.0.0"	"FALSE"	"Windows 10"	"61.04"	n/a	n/a	n/a	n/a	n/a	n/a	"Trial"	n/a	n/a	n/a	n/a	"NULL"	"NULL"	"NULL"	"415"	"stimuli/MullerLyer_-20.04286_-0.23665.png"	"arrowdown"	n/a	"MullerLyer"	"arrowdown"	"1489"	"TRUE"	"MullerLyer"	"-20.04286000"	"-0.236650000"	"2"	"29"
n/a	"html-keyboard-response"	"241"	"530859"	"0.0-5.0-2.0-0.29"	"ld8429"	"600"	"1366"	"chrome"	"108.0.0"	"FALSE"	"Windows 10"	"61.04"	n/a	n/a	n/a	n/a	n/a	n/a	"fixation"	n/a	n/a	n/a	n/a	"NULL"	"NULL"	"NULL"	n/a	"<p style=\"color: black; font-size: 80px; padding-left: 10%; padding-right: 9%; padding-top: 23%; padding-bottom: 30%\">+</p>"	n/a	"1216"	n/a	n/a	n/a	n/a	n/a	n/a	n/a	n/a	n/a
n/a	"image-keyboard-response"	"242"	"531373"	"0.0-5.0-2.0-1.29"	"ld8429"	"600"	"1366"	"chrome"	"108.0.0"	"FALSE"	"Windows 10"	"61.04"	n/a	n/a	n/a	n/a	n/a	n/a	"Trial"	n/a	n/a	n/a	n/a	"NULL"	"NULL"	"NULL"	"512"	"stimuli/MullerLyer_20.04286_-0.14541.png"	"arrowup"	n/a	"MullerLyer"	"arrowdown"	"1226"	"FALSE"	"MullerLyer"	"20.042860000"	"-0.145410000"	"2"	"30"
n/a	"html-keyboard-response"	"243"	"532596"	"0.0-5.0-2.0-0.30"	"ld8429"	"600"	"1366"	"chrome"	"108.0.0"	"FALSE"	"Windows 10"	"61.04"	n/a	n/a	n/a	n/a	n/a	n/a	"fixation"	n/a	n/a	n/a	n/a	"NULL"	"NULL"	"NULL"	n/a	"<p style=\"color: black; font-size: 80px; padding-left: 14%; padding-right: 28%; padding-top: 2%; padding-bottom: 5%\">+</p>"	n/a	"1220"	n/a	n/a	n/a	n/a	n/a	n/a	n/a	n/a	n/a
n/a	"image-keyboard-response"	"244"	"533000"	"0.0-5.0-2.0-1.30"	"ld8429"	"600"	"1366"	"chrome"	"108.0.0"	"FALSE"	"Windows 10"	"61.04"	n/a	n/a	n/a	n/a	n/a	n/a	"Trial"	n/a	n/a	n/a	n/a	"NULL"	"NULL"	"NULL"	"403"	"stimuli/MullerLyer_-14.12857_0.23665.png"	"arrowup"	n/a	"MullerLyer"	"arrowup"	"1223"	"TRUE"	"MullerLyer"	"-14.12857000"	"0.2366500000"	"2"	"31"
n/a	"html-keyboard-response"	"245"	"534384"	"0.0-5.0-2.0-0.31"	"ld8429"	"600"	"1366"	"chrome"	"108.0.0"	"FALSE"	"Windows 10"	"61.04"	n/a	n/a	n/a	n/a	n/a	n/a	"fixation"	n/a	n/a	n/a	n/a	"NULL"	"NULL"	"NULL"	n/a	"<p style=\"color: black; font-size: 80px; padding-left: 9%; padding-right: 13%; padding-top: 30%; padding-bottom: 23%\">+</p>"	n/a	"1369"	n/a	n/a	n/a	n/a	n/a	n/a	n/a	n/a	n/a
n/a	"image-keyboard-response"	"246"	"534829"	"0.0-5.0-2.0-1.31"	"ld8429"	"600"	"1366"	"chrome"	"108.0.0"	"FALSE"	"Windows 10"	"61.04"	n/a	n/a	n/a	n/a	n/a	n/a	"Trial"	n/a	n/a	n/a	n/a	"NULL"	"NULL"	"NULL"	"444"	"stimuli/MullerLyer_-8.21429_0.23665.png"	"arrowup"	n/a	"MullerLyer"	"arrowup"	"1384"	"TRUE"	"MullerLyer"	"-8.214290000"	"0.2366500000"	"2"	"32"
n/a	"html-keyboard-response"	"247"	"535909"	"0.0-5.0-2.0-0.32"	"ld8429"	"600"	"1366"	"chrome"	"108.0.0"	"FALSE"	"Windows 10"	"61.04"	n/a	n/a	n/a	n/a	n/a	n/a	"fixation"	n/a	n/a	n/a	n/a	"NULL"	"NULL"	"NULL"	n/a	"<p style=\"color: black; font-size: 80px; padding-left: 43%; padding-right: 0%; padding-top: 12%; padding-bottom: 36%\">+</p>"	n/a	"1073"	n/a	n/a	n/a	n/a	n/a	n/a	n/a	n/a	n/a
n/a	"image-keyboard-response"	"248"	"536346"	"0.0-5.0-2.0-1.32"	"ld8429"	"600"	"1366"	"chrome"	"108.0.0"	"FALSE"	"Windows 10"	"61.04"	n/a	n/a	n/a	n/a	n/a	n/a	"Trial"	n/a	n/a	n/a	n/a	"NULL"	"NULL"	"NULL"	"426"	"stimuli/MullerLyer_2.30000_-0.3500.png"	"arrowdown"	n/a	"MullerLyer"	"arrowdown"	"1080"	"TRUE"	"MullerLyer"	"2.3000000000"	"-0.350000000"	"2"	"33"
n/a	"html-keyboard-response"	"249"	"537477"	"0.0-5.0-2.0-0.33"	"ld8429"	"600"	"1366"	"chrome"	"108.0.0"	"FALSE"	"Windows 10"	"61.04"	n/a	n/a	n/a	n/a	n/a	n/a	"fixation"	n/a	n/a	n/a	n/a	"NULL"	"NULL"	"NULL"	n/a	"<p style=\"color: black; font-size: 80px; padding-left: 25%; padding-right: 46%; padding-top: 43%; padding-bottom: 25%\">+</p>"	n/a	"1122"	n/a	n/a	n/a	n/a	n/a	n/a	n/a	n/a	n/a
n/a	"image-keyboard-response"	"250"	"537888"	"0.0-5.0-2.0-1.33"	"ld8429"	"600"	"1366"	"chrome"	"108.0.0"	"FALSE"	"Windows 10"	"61.04"	n/a	n/a	n/a	n/a	n/a	n/a	"Trial"	n/a	n/a	n/a	n/a	"NULL"	"NULL"	"NULL"	"410"	"stimuli/MullerLyer_-14.12857_-0.07627.png"	"arrowdown"	n/a	"MullerLyer"	"arrowdown"	"1131"	"TRUE"	"MullerLyer"	"-14.12857000"	"-0.076270000"	"2"	"34"
n/a	"html-keyboard-response"	"251"	"539217"	"0.0-5.0-2.0-0.34"	"ld8429"	"600"	"1366"	"chrome"	"108.0.0"	"FALSE"	"Windows 10"	"61.04"	n/a	n/a	n/a	n/a	n/a	n/a	"fixation"	n/a	n/a	n/a	n/a	"NULL"	"NULL"	"NULL"	n/a	"<p style=\"color: black; font-size: 80px; padding-left: 23%; padding-right: 9%; padding-top: 20%; padding-bottom: 46%\">+</p>"	n/a	"1309"	n/a	n/a	n/a	n/a	n/a	n/a	n/a	n/a	n/a
n/a	"image-keyboard-response"	"252"	"539766"	"0.0-5.0-2.0-1.34"	"ld8429"	"600"	"1366"	"chrome"	"108.0.0"	"FALSE"	"Windows 10"	"61.04"	n/a	n/a	n/a	n/a	n/a	n/a	"Trial"	n/a	n/a	n/a	n/a	"NULL"	"NULL"	"NULL"	"547"	"stimuli/MullerLyer_14.12857_-0.23665.png"	"arrowup"	n/a	"MullerLyer"	"arrowdown"	"1329"	"FALSE"	"MullerLyer"	"14.128570000"	"-0.236650000"	"2"	"35"
n/a	"html-keyboard-response"	"253"	"541250"	"0.0-5.0-2.0-0.35"	"ld8429"	"600"	"1366"	"chrome"	"108.0.0"	"FALSE"	"Windows 10"	"61.04"	n/a	n/a	n/a	n/a	n/a	n/a	"fixation"	n/a	n/a	n/a	n/a	"NULL"	"NULL"	"NULL"	n/a	"<p style=\"color: black; font-size: 80px; padding-left: 19%; padding-right: 18%; padding-top: 45%; padding-bottom: 12%\">+</p>"	n/a	"1469"	n/a	n/a	n/a	n/a	n/a	n/a	n/a	n/a	n/a
n/a	"image-keyboard-response"	"254"	"541669"	"0.0-5.0-2.0-1.35"	"ld8429"	"600"	"1366"	"chrome"	"108.0.0"	"FALSE"	"Windows 10"	"61.04"	n/a	n/a	n/a	n/a	n/a	n/a	"Trial"	n/a	n/a	n/a	n/a	"NULL"	"NULL"	"NULL"	"418"	"stimuli/MullerLyer_2.30000_0.35000.png"	"arrowup"	n/a	"MullerLyer"	"arrowup"	"1484"	"TRUE"	"MullerLyer"	"2.3000000000"	"0.3500000000"	"2"	"36"
n/a	"html-keyboard-response"	"255"	"542716"	"0.0-5.0-2.0-0.36"	"ld8429"	"600"	"1366"	"chrome"	"108.0.0"	"FALSE"	"Windows 10"	"61.04"	n/a	n/a	n/a	n/a	n/a	n/a	"fixation"	n/a	n/a	n/a	n/a	"NULL"	"NULL"	"NULL"	n/a	"<p style=\"color: black; font-size: 80px; padding-left: 6%; padding-right: 42%; padding-top: 43%; padding-bottom: 42%\">+</p>"	n/a	"1034"	n/a	n/a	n/a	n/a	n/a	n/a	n/a	n/a	n/a
n/a	"image-keyboard-response"	"256"	"543502"	"0.0-5.0-2.0-1.36"	"ld8429"	"600"	"1366"	"chrome"	"108.0.0"	"FALSE"	"Windows 10"	"61.04"	n/a	n/a	n/a	n/a	n/a	n/a	"Trial"	n/a	n/a	n/a	n/a	"NULL"	"NULL"	"NULL"	"784"	"stimuli/MullerLyer_2.30000_0.07627.png"	"arrowup"	n/a	"MullerLyer"	"arrowup"	"1047"	"TRUE"	"MullerLyer"	"2.3000000000"	"0.0762700000"	"2"	"37"
n/a	"html-keyboard-response"	"257"	"544690"	"0.0-5.0-2.0-0.37"	"ld8429"	"600"	"1366"	"chrome"	"108.0.0"	"FALSE"	"Windows 10"	"61.04"	n/a	n/a	n/a	n/a	n/a	n/a	"fixation"	n/a	n/a	n/a	n/a	"NULL"	"NULL"	"NULL"	n/a	"<p style=\"color: black; font-size: 80px; padding-left: 14%; padding-right: 40%; padding-top: 17%; padding-bottom: 30%\">+</p>"	n/a	"1170"	n/a	n/a	n/a	n/a	n/a	n/a	n/a	n/a	n/a
n/a	"image-keyboard-response"	"258"	"545455"	"0.0-5.0-2.0-1.37"	"ld8429"	"600"	"1366"	"chrome"	"108.0.0"	"FALSE"	"Windows 10"	"61.04"	n/a	n/a	n/a	n/a	n/a	n/a	"Trial"	n/a	n/a	n/a	n/a	"NULL"	"NULL"	"NULL"	"764"	"stimuli/MullerLyer_8.21429_-0.14541.png"	"arrowup"	n/a	"MullerLyer"	"arrowdown"	"1188"	"FALSE"	"MullerLyer"	"8.2142900000"	"-0.145410000"	"2"	"38"
