"success"	"trial_type"	"trial_index"	"time_elapsed"	"internal_node_id"	"participant_id"	"screen_height"	"screen_width"	"browser"	"browser_version"	"mobile"	"os"	"vsync_rate"	"subject_id"	"width"	"height"	"webaudio"	"fullscreen"	"webcam"	"microphone"	"screen"	"version"	"date"	"time"	"rt"	"response"	"timeout"	"failed_images"	"failed_audio"	"failed_video"	"stimulus"	"trial_duration"	"block"	"correct_response"	"prestimulus_duration"	"correct"	"type"	"illusion_strength"	"illusion_difference"	"block_number"	"trial_number"
"TRUE"	"fullscreen"	"0"	"1354"	"0.0-0.0"	"m48wjj"	"600"	"1366"	"chrome"	"109.0.0"	"FALSE"	"Windows 10"	"60.62"	"002"	n/a	n/a	n/a	n/a	n/a	n/a	n/a	n/a	n/a	n/a	n/a	"NULL"	n/a	"NULL"	"NULL"	"NULL"	n/a	n/a	n/a	n/a	n/a	n/a	n/a	n/a	n/a	n/a	n/a
n/a	"browser-check"	"1"	"2358"	"0.0-1.0"	"m48wjj"	"600"	"1366"	"chrome"	"109.0.0"	"FALSE"	"Windows 10"	"60.62"	"002"	"1366"	"600"	"TRUE"	"TRUE"	"TRUE"	"TRUE"	"browser_info"	"1.0"	"19/01/2023"	"11:03:19"	n/a	"NULL"	n/a	"NULL"	"NULL"	"NULL"	n/a	n/a	n/a	n/a	n/a	n/a	n/a	n/a	n/a	n/a	n/a
n/a	"survey-text"	"2"	"6072"	"0.0-2.0"	"m48wjj"	"600"	"1366"	"chrome"	"109.0.0"	"FALSE"	"Windows 10"	"60.62"	"002"	n/a	n/a	n/a	n/a	n/a	n/a	"subject_id"	n/a	n/a	n/a	"3710"	"list(subject_id = \"002\")"	n/a	"NULL"	"NULL"	"NULL"	n/a	n/a	n/a	n/a	n/a	n/a	n/a	n/a	n/a	n/a	n/a
"TRUE"	"preload"	"3"	"6088"	"0.0-3.0"	"m48wjj"	"600"	"1366"	"chrome"	"109.0.0"	"FALSE"	"Windows 10"	"60.62"	"002"	n/a	n/a	n/a	n/a	n/a	n/a	n/a	n/a	n/a	n/a	n/a	"NULL"	"FALSE"	"list()"	"list()"	"list()"	n/a	n/a	n/a	n/a	n/a	n/a	n/a	n/a	n/a	n/a	n/a
n/a	"html-button-response"	"4"	"101528"	"0.0-4.0-0.0"	"m48wjj"	"600"	"1366"	"chrome"	"109.0.0"	"FALSE"	"Windows 10"	"60.62"	"002"	n/a	n/a	n/a	n/a	n/a	n/a	"illusion_instructions"	n/a	n/a	n/a	"95438"	"0"	n/a	"NULL"	"NULL"	"NULL"	"<p><b>Illusion Game</b></p><p>In this game of speed and reflex, you will need to make <b>visual judgments</b> (for instance, which circle is the biggest, or which line is the longest), as fast and as correctly as possible, while <b>resisting different visual illusions</b>.</p><p>We are going to start with some examples of all the illusions you will encounter in the game.</p>"	n/a	n/a	n/a	n/a	n/a	n/a	n/a	n/a	n/a	n/a
"TRUE"	"preload"	"5"	"101874"	"0.0-4.0-1.0-0.0"	"m48wjj"	"600"	"1366"	"chrome"	"109.0.0"	"FALSE"	"Windows 10"	"60.62"	"002"	n/a	n/a	n/a	n/a	n/a	n/a	n/a	n/a	n/a	n/a	n/a	"NULL"	"FALSE"	"list()"	"list()"	"list()"	n/a	n/a	n/a	n/a	n/a	n/a	n/a	n/a	n/a	n/a	n/a
n/a	"html-keyboard-response"	"6"	"125817"	"0.0-4.0-1.0-1.0"	"m48wjj"	"600"	"1366"	"chrome"	"109.0.0"	"FALSE"	"Windows 10"	"60.62"	"002"	n/a	n/a	n/a	n/a	n/a	n/a	n/a	n/a	n/a	n/a	"23941"	"enter"	n/a	"NULL"	"NULL"	"NULL"	"<p><b>Practice</b></p><p>In this part, two red circles will appear side by side on the screen.</p><p>Your task is to select which <b>red circle is bigger</b> in size as fast as you can, without making errors.</p><p>Don't get distracted by the surrounding black circles around the red circles!</p><p>Press <b>the LEFT or the RIGHT arrow</b> to indicate which is the bigger <b>red circle.</b></p><div style='float: center'><img src='materials/instructions/Ebbinghaus_Demo.png' height='300'></img><p><img src='utils/answer/answer_leftright_keyboard.PNG' height='150'></img></p><p class='small'>In this example, the correct answer is the <b>LEFT arrow</b>.</p></div><p>Are you ready? <b>Press ENTER to start</b></p>"	n/a	n/a	n/a	n/a	n/a	n/a	n/a	n/a	n/a	n/a
n/a	"html-keyboard-response"	"7"	"127589"	"0.0-4.0-1.0-2.0-0.0"	"m48wjj"	"600"	"1366"	"chrome"	"109.0.0"	"FALSE"	"Windows 10"	"60.62"	"002"	n/a	n/a	n/a	n/a	n/a	n/a	"fixation"	n/a	n/a	n/a	n/a	"NULL"	n/a	"NULL"	"NULL"	"NULL"	"<p style=\"color: black; font-size: 80px; padding-left: 30%; padding-right: 38%; padding-top: 31%; padding-bottom: 3%\">+</p>"	"1250"	n/a	n/a	n/a	n/a	n/a	n/a	n/a	n/a	n/a
n/a	"image-keyboard-response"	"8"	"130034"	"0.0-4.0-1.0-2.0-1.0"	"m48wjj"	"600"	"1366"	"chrome"	"109.0.0"	"FALSE"	"Windows 10"	"60.62"	"002"	n/a	n/a	n/a	n/a	n/a	n/a	"Trial"	n/a	n/a	n/a	"2401"	"arrowleft"	n/a	"NULL"	"NULL"	"NULL"	"stimuli/Ebbinghaus_0000000_1.40000.png"	n/a	"Ebbinghaus"	"arrowleft"	"1772"	"TRUE"	"Ebbinghaus"	"000000000000"	"1.4000000000"	"1"	"1"
n/a	"html-keyboard-response"	"9"	"131062"	"0.0-4.0-1.0-2.0-0.1"	"m48wjj"	"600"	"1366"	"chrome"	"109.0.0"	"FALSE"	"Windows 10"	"60.62"	"002"	n/a	n/a	n/a	n/a	n/a	n/a	"fixation"	n/a	n/a	n/a	n/a	"NULL"	n/a	"NULL"	"NULL"	"NULL"	"<p style=\"color: black; font-size: 80px; padding-left: 25%; padding-right: 33%; padding-top: 1%; padding-bottom: 43%\">+</p>"	"1014"	n/a	n/a	n/a	n/a	n/a	n/a	n/a	n/a	n/a
n/a	"image-keyboard-response"	"10"	"132128"	"0.0-4.0-1.0-2.0-1.1"	"m48wjj"	"600"	"1366"	"chrome"	"109.0.0"	"FALSE"	"Windows 10"	"60.62"	"002"	n/a	n/a	n/a	n/a	n/a	n/a	"Trial"	n/a	n/a	n/a	"1063"	"arrowleft"	n/a	"NULL"	"NULL"	"NULL"	"stimuli/Ebbinghaus_1000000_1.40000.png"	n/a	"Ebbinghaus"	"arrowleft"	"1028"	"TRUE"	"Ebbinghaus"	"100000000000"	"1.4000000000"	"1"	"2"
n/a	"html-keyboard-response"	"11"	"133468"	"0.0-4.0-1.0-2.0-0.2"	"m48wjj"	"600"	"1366"	"chrome"	"109.0.0"	"FALSE"	"Windows 10"	"60.62"	"002"	n/a	n/a	n/a	n/a	n/a	n/a	"fixation"	n/a	n/a	n/a	n/a	"NULL"	n/a	"NULL"	"NULL"	"NULL"	"<p style=\"color: black; font-size: 80px; padding-left: 38%; padding-right: 14%; padding-top: 47%; padding-bottom: 34%\">+</p>"	"1317"	n/a	n/a	n/a	n/a	n/a	n/a	n/a	n/a	n/a
n/a	"image-keyboard-response"	"12"	"137065"	"0.0-4.0-1.0-2.0-1.2"	"m48wjj"	"600"	"1366"	"chrome"	"109.0.0"	"FALSE"	"Windows 10"	"60.62"	"002"	n/a	n/a	n/a	n/a	n/a	n/a	"Trial"	n/a	n/a	n/a	"3595"	"arrowright"	n/a	"NULL"	"NULL"	"NULL"	"stimuli/Ebbinghaus_1000000_-1.4000.png"	n/a	"Ebbinghaus"	"arrowright"	"1340"	"TRUE"	"Ebbinghaus"	"100000000000"	"-1.400000000"	"1"	"3"
n/a	"html-keyboard-response"	"13"	"138558"	"0.0-4.0-1.0-2.0-0.3"	"m48wjj"	"600"	"1366"	"chrome"	"109.0.0"	"FALSE"	"Windows 10"	"60.62"	"002"	n/a	n/a	n/a	n/a	n/a	n/a	"fixation"	n/a	n/a	n/a	n/a	"NULL"	n/a	"NULL"	"NULL"	"NULL"	"<p style=\"color: black; font-size: 80px; padding-left: 16%; padding-right: 40%; padding-top: 24%; padding-bottom: 3%\">+</p>"	"1489"	n/a	n/a	n/a	n/a	n/a	n/a	n/a	n/a	n/a
n/a	"image-keyboard-response"	"14"	"139935"	"0.0-4.0-1.0-2.0-1.3"	"m48wjj"	"600"	"1366"	"chrome"	"109.0.0"	"FALSE"	"Windows 10"	"60.62"	"002"	n/a	n/a	n/a	n/a	n/a	n/a	"Trial"	n/a	n/a	n/a	"1375"	"arrowright"	n/a	"NULL"	"NULL"	"NULL"	"stimuli/Ebbinghaus_-100000_-1.4000.png"	n/a	"Ebbinghaus"	"arrowright"	"1493"	"TRUE"	"Ebbinghaus"	"-10000000000"	"-1.400000000"	"1"	"4"
n/a	"html-keyboard-response"	"15"	"141412"	"0.0-4.0-1.0-2.0-0.4"	"m48wjj"	"600"	"1366"	"chrome"	"109.0.0"	"FALSE"	"Windows 10"	"60.62"	"002"	n/a	n/a	n/a	n/a	n/a	n/a	"fixation"	n/a	n/a	n/a	n/a	"NULL"	n/a	"NULL"	"NULL"	"NULL"	"<p style=\"color: black; font-size: 80px; padding-left: 46%; padding-right: 4%; padding-top: 10%; padding-bottom: 49%\">+</p>"	"1468"	n/a	n/a	n/a	n/a	n/a	n/a	n/a	n/a	n/a
n/a	"image-keyboard-response"	"16"	"142698"	"0.0-4.0-1.0-2.0-1.4"	"m48wjj"	"600"	"1366"	"chrome"	"109.0.0"	"FALSE"	"Windows 10"	"60.62"	"002"	n/a	n/a	n/a	n/a	n/a	n/a	"Trial"	n/a	n/a	n/a	"1284"	"arrowright"	n/a	"NULL"	"NULL"	"NULL"	"stimuli/Ebbinghaus_0000000_-1.4000.png"	n/a	"Ebbinghaus"	"arrowright"	"1477"	"TRUE"	"Ebbinghaus"	"000000000000"	"-1.400000000"	"1"	"5"
n/a	"html-keyboard-response"	"17"	"144095"	"0.0-4.0-1.0-2.0-0.5"	"m48wjj"	"600"	"1366"	"chrome"	"109.0.0"	"FALSE"	"Windows 10"	"60.62"	"002"	n/a	n/a	n/a	n/a	n/a	n/a	"fixation"	n/a	n/a	n/a	n/a	"NULL"	n/a	"NULL"	"NULL"	"NULL"	"<p style=\"color: black; font-size: 80px; padding-left: 21%; padding-right: 48%; padding-top: 28%; padding-bottom: 25%\">+</p>"	"1378"	n/a	n/a	n/a	n/a	n/a	n/a	n/a	n/a	n/a
n/a	"image-keyboard-response"	"18"	"144962"	"0.0-4.0-1.0-2.0-1.5"	"m48wjj"	"600"	"1366"	"chrome"	"109.0.0"	"FALSE"	"Windows 10"	"60.62"	"002"	n/a	n/a	n/a	n/a	n/a	n/a	"Trial"	n/a	n/a	n/a	"866"	"arrowleft"	n/a	"NULL"	"NULL"	"NULL"	"stimuli/Ebbinghaus_-100000_1.40000.png"	n/a	"Ebbinghaus"	"arrowleft"	"1397"	"TRUE"	"Ebbinghaus"	"-10000000000"	"1.4000000000"	"1"	"6"
n/a	"html-button-response"	"19"	"148961"	"0.0-4.0-1.0-3.0"	"m48wjj"	"600"	"1366"	"chrome"	"109.0.0"	"FALSE"	"Windows 10"	"60.62"	"002"	n/a	n/a	n/a	n/a	n/a	n/a	"practice_block_results"	n/a	n/a	n/a	"3990"	"0"	n/a	"NULL"	"NULL"	"NULL"	"<p style='color:rgb(76,175,80);'> Correct Responses: <b>100.00%</b></p><hr><p style='color:rgb(233,30,99);'> Average Response Time: <b>1764.00</b> ms.</p>"	n/a	n/a	n/a	n/a	n/a	n/a	n/a	n/a	n/a	n/a
"TRUE"	"preload"	"20"	"149497"	"0.0-4.0-2.0-0.0"	"m48wjj"	"600"	"1366"	"chrome"	"109.0.0"	"FALSE"	"Windows 10"	"60.62"	"002"	n/a	n/a	n/a	n/a	n/a	n/a	n/a	n/a	n/a	n/a	n/a	"NULL"	"FALSE"	"list()"	"list()"	"list()"	n/a	n/a	n/a	n/a	n/a	n/a	n/a	n/a	n/a	n/a	n/a
n/a	"html-keyboard-response"	"21"	"159691"	"0.0-4.0-2.0-1.0"	"m48wjj"	"600"	"1366"	"chrome"	"109.0.0"	"FALSE"	"Windows 10"	"60.62"	"002"	n/a	n/a	n/a	n/a	n/a	n/a	n/a	n/a	n/a	n/a	"10193"	"enter"	n/a	"NULL"	"NULL"	"NULL"	"<p><b>Practice</b></p><p>In this part, two horizontal red lines will appear one above the other.</p><p>Your task is to select which <b>line is longer</b> in length as fast as you can, without making errors.</p><p>Don't get distracted by the surrounding black arrows at the end of the red lines!</p><p>Press <b>the UP or the DOWN arrow</b> to indicate where is the longer <b>red line.</b></p><div style='float: center'><img src='materials/instructions/MullerLyer_Demo.png' height='300'></img><p><img src='utils/answer/answer_updown_keyboard.PNG' height='150'></img></p><p class='small'>In this example, the correct answer is the <b>UP arrow</b>.</p></div><p>Are you ready? <b>Press ENTER to start</b></p>"	n/a	n/a	n/a	n/a	n/a	n/a	n/a	n/a	n/a	n/a
n/a	"html-keyboard-response"	"22"	"161308"	"0.0-4.0-2.0-2.0-0.0"	"m48wjj"	"600"	"1366"	"chrome"	"109.0.0"	"FALSE"	"Windows 10"	"60.62"	"002"	n/a	n/a	n/a	n/a	n/a	n/a	"fixation"	n/a	n/a	n/a	n/a	"NULL"	n/a	"NULL"	"NULL"	"NULL"	"<p style=\"color: black; font-size: 80px; padding-left: 35%; padding-right: 1%; padding-top: 48%; padding-bottom: 48%\">+</p>"	"1091"	n/a	n/a	n/a	n/a	n/a	n/a	n/a	n/a	n/a
n/a	"image-keyboard-response"	"23"	"163411"	"0.0-4.0-2.0-2.0-1.0"	"m48wjj"	"600"	"1366"	"chrome"	"109.0.0"	"FALSE"	"Windows 10"	"60.62"	"002"	n/a	n/a	n/a	n/a	n/a	n/a	"Trial"	n/a	n/a	n/a	"2101"	"arrowup"	n/a	"NULL"	"NULL"	"NULL"	"stimuli/MullerLyer_-230000_0.70000.png"	n/a	"MullerLyer"	"arrowup"	"1617"	"TRUE"	"MullerLyer"	"-23000000000"	"0.7000000000"	"1"	"7"
n/a	"html-keyboard-response"	"24"	"164709"	"0.0-4.0-2.0-2.0-0.1"	"m48wjj"	"600"	"1366"	"chrome"	"109.0.0"	"FALSE"	"Windows 10"	"60.62"	"002"	n/a	n/a	n/a	n/a	n/a	n/a	"fixation"	n/a	n/a	n/a	n/a	"NULL"	n/a	"NULL"	"NULL"	"NULL"	"<p style=\"color: black; font-size: 80px; padding-left: 17%; padding-right: 3%; padding-top: 18%; padding-bottom: 16%\">+</p>"	"1279"	n/a	n/a	n/a	n/a	n/a	n/a	n/a	n/a	n/a
n/a	"image-keyboard-response"	"25"	"165425"	"0.0-4.0-2.0-2.0-1.1"	"m48wjj"	"600"	"1366"	"chrome"	"109.0.0"	"FALSE"	"Windows 10"	"60.62"	"002"	n/a	n/a	n/a	n/a	n/a	n/a	"Trial"	n/a	n/a	n/a	"715"	"arrowdown"	n/a	"NULL"	"NULL"	"NULL"	"stimuli/MullerLyer_0000000_-0.7000.png"	n/a	"MullerLyer"	"arrowdown"	"1298"	"TRUE"	"MullerLyer"	"000000000000"	"-0.700000000"	"1"	"8"
n/a	"html-keyboard-response"	"26"	"166698"	"0.0-4.0-2.0-2.0-0.2"	"m48wjj"	"600"	"1366"	"chrome"	"109.0.0"	"FALSE"	"Windows 10"	"60.62"	"002"	n/a	n/a	n/a	n/a	n/a	n/a	"fixation"	n/a	n/a	n/a	n/a	"NULL"	n/a	"NULL"	"NULL"	"NULL"	"<p style=\"color: black; font-size: 80px; padding-left: 10%; padding-right: 40%; padding-top: 47%; padding-bottom: 16%\">+</p>"	"1257"	n/a	n/a	n/a	n/a	n/a	n/a	n/a	n/a	n/a
n/a	"image-keyboard-response"	"27"	"168336"	"0.0-4.0-2.0-2.0-1.2"	"m48wjj"	"600"	"1366"	"chrome"	"109.0.0"	"FALSE"	"Windows 10"	"60.62"	"002"	n/a	n/a	n/a	n/a	n/a	n/a	"Trial"	n/a	n/a	n/a	"1637"	"arrowdown"	n/a	"NULL"	"NULL"	"NULL"	"stimuli/MullerLyer_2300000_-0.7000.png"	n/a	"MullerLyer"	"arrowdown"	"1273"	"TRUE"	"MullerLyer"	"230000000000"	"-0.700000000"	"1"	"9"
n/a	"html-keyboard-response"	"28"	"169788"	"0.0-4.0-2.0-2.0-0.3"	"m48wjj"	"600"	"1366"	"chrome"	"109.0.0"	"FALSE"	"Windows 10"	"60.62"	"002"	n/a	n/a	n/a	n/a	n/a	n/a	"fixation"	n/a	n/a	n/a	n/a	"NULL"	n/a	"NULL"	"NULL"	"NULL"	"<p style=\"color: black; font-size: 80px; padding-left: 35%; padding-right: 2%; padding-top: 2%; padding-bottom: 47%\">+</p>"	"1429"	n/a	n/a	n/a	n/a	n/a	n/a	n/a	n/a	n/a
n/a	"image-keyboard-response"	"29"	"170416"	"0.0-4.0-2.0-2.0-1.3"	"m48wjj"	"600"	"1366"	"chrome"	"109.0.0"	"FALSE"	"Windows 10"	"60.62"	"002"	n/a	n/a	n/a	n/a	n/a	n/a	"Trial"	n/a	n/a	n/a	"627"	"arrowdown"	n/a	"NULL"	"NULL"	"NULL"	"stimuli/MullerLyer_-230000_-0.7000.png"	n/a	"MullerLyer"	"arrowdown"	"1452"	"TRUE"	"MullerLyer"	"-23000000000"	"-0.700000000"	"1"	"10"
n/a	"html-keyboard-response"	"30"	"171583"	"0.0-4.0-2.0-2.0-0.4"	"m48wjj"	"600"	"1366"	"chrome"	"109.0.0"	"FALSE"	"Windows 10"	"60.62"	"002"	n/a	n/a	n/a	n/a	n/a	n/a	"fixation"	n/a	n/a	n/a	n/a	"NULL"	n/a	"NULL"	"NULL"	"NULL"	"<p style=\"color: black; font-size: 80px; padding-left: 43%; padding-right: 18%; padding-top: 27%; padding-bottom: 33%\">+</p>"	"1155"	n/a	n/a	n/a	n/a	n/a	n/a	n/a	n/a	n/a
n/a	"image-keyboard-response"	"31"	"173118"	"0.0-4.0-2.0-2.0-1.4"	"m48wjj"	"600"	"1366"	"chrome"	"109.0.0"	"FALSE"	"Windows 10"	"60.62"	"002"	n/a	n/a	n/a	n/a	n/a	n/a	"Trial"	n/a	n/a	n/a	"1533"	"arrowup"	n/a	"NULL"	"NULL"	"NULL"	"stimuli/MullerLyer_0000000_0.70000.png"	n/a	"MullerLyer"	"arrowup"	"1167"	"TRUE"	"MullerLyer"	"000000000000"	"0.7000000000"	"1"	"11"
n/a	"html-keyboard-response"	"32"	"174421"	"0.0-4.0-2.0-2.0-0.5"	"m48wjj"	"600"	"1366"	"chrome"	"109.0.0"	"FALSE"	"Windows 10"	"60.62"	"002"	n/a	n/a	n/a	n/a	n/a	n/a	"fixation"	n/a	n/a	n/a	n/a	"NULL"	n/a	"NULL"	"NULL"	"NULL"	"<p style=\"color: black; font-size: 80px; padding-left: 49%; padding-right: 30%; padding-top: 15%; padding-bottom: 19%\">+</p>"	"1287"	n/a	n/a	n/a	n/a	n/a	n/a	n/a	n/a	n/a
n/a	"image-keyboard-response"	"33"	"175925"	"0.0-4.0-2.0-2.0-1.5"	"m48wjj"	"600"	"1366"	"chrome"	"109.0.0"	"FALSE"	"Windows 10"	"60.62"	"002"	n/a	n/a	n/a	n/a	n/a	n/a	"Trial"	n/a	n/a	n/a	"1503"	"arrowup"	n/a	"NULL"	"NULL"	"NULL"	"stimuli/MullerLyer_2300000_0.70000.png"	n/a	"MullerLyer"	"arrowup"	"1303"	"TRUE"	"MullerLyer"	"230000000000"	"0.7000000000"	"1"	"12"
n/a	"html-button-response"	"34"	"179152"	"0.0-4.0-2.0-3.0"	"m48wjj"	"600"	"1366"	"chrome"	"109.0.0"	"FALSE"	"Windows 10"	"60.62"	"002"	n/a	n/a	n/a	n/a	n/a	n/a	"practice_block_results"	n/a	n/a	n/a	"3225"	"0"	n/a	"NULL"	"NULL"	"NULL"	"<p style='color:rgb(76,175,80);'> Correct Responses: <b>100.00%</b></p><hr><p style='color:rgb(233,30,99);'> Average Response Time: <b>1352.67</b> ms.</p>"	n/a	n/a	n/a	n/a	n/a	n/a	n/a	n/a	n/a	n/a
"TRUE"	"preload"	"35"	"179685"	"0.0-4.0-3.0-0.0"	"m48wjj"	"600"	"1366"	"chrome"	"109.0.0"	"FALSE"	"Windows 10"	"60.62"	"002"	n/a	n/a	n/a	n/a	n/a	n/a	n/a	n/a	n/a	n/a	n/a	"NULL"	"FALSE"	"list()"	"list()"	"list()"	n/a	n/a	n/a	n/a	n/a	n/a	n/a	n/a	n/a	n/a	n/a
n/a	"html-keyboard-response"	"36"	"186887"	"0.0-4.0-3.0-1.0"	"m48wjj"	"600"	"1366"	"chrome"	"109.0.0"	"FALSE"	"Windows 10"	"60.62"	"002"	n/a	n/a	n/a	n/a	n/a	n/a	n/a	n/a	n/a	n/a	"7201"	"enter"	n/a	"NULL"	"NULL"	"NULL"	"<p><b>Practice</b></p><p>In this part, two red lines will appear side by side.</p><p>Your task is to tell <b>which line is longer</b> in length, regardless of their orientation, as fast as you can, and without making errors.</p><p>Don't get distracted by the orientation of the lines!</p><p>Press <b>the LEFT or the RIGHT arrow</b> to indicate which <b>line is the longer one.</b></p><div style='float: center'><img src='materials/instructions/VerticalHorizontal_Demo.png' height='300'></img><p><img src='utils/answer/answer_leftright_keyboard.PNG' height='150'></img></p><p class='small'>In this example, the correct answer is the <b>LEFT arrow</b>.</p></div><p>Are you ready? <b>Press ENTER to start</b></p>"	n/a	n/a	n/a	n/a	n/a	n/a	n/a	n/a	n/a	n/a
n/a	"html-keyboard-response"	"37"	"188837"	"0.0-4.0-3.0-2.0-0.0"	"m48wjj"	"600"	"1366"	"chrome"	"109.0.0"	"FALSE"	"Windows 10"	"60.62"	"002"	n/a	n/a	n/a	n/a	n/a	n/a	"fixation"	n/a	n/a	n/a	n/a	"NULL"	n/a	"NULL"	"NULL"	"NULL"	"<p style=\"color: black; font-size: 80px; padding-left: 6%; padding-right: 15%; padding-top: 11%; padding-bottom: 18%\">+</p>"	"1428"	n/a	n/a	n/a	n/a	n/a	n/a	n/a	n/a	n/a
n/a	"image-keyboard-response"	"38"	"190197"	"0.0-4.0-3.0-2.0-1.0"	"m48wjj"	"600"	"1366"	"chrome"	"109.0.0"	"FALSE"	"Windows 10"	"60.62"	"002"	n/a	n/a	n/a	n/a	n/a	n/a	"Trial"	n/a	n/a	n/a	"1359"	"arrowright"	n/a	"NULL"	"NULL"	"NULL"	"stimuli/VerticalHorizontal_-330000_-0.9000.png"	n/a	"VerticalHorizontal"	"arrowright"	"1950"	"TRUE"	"VerticalHorizontal"	"-33000000000"	"-0.900000000"	"1"	"13"
n/a	"html-keyboard-response"	"39"	"191429"	"0.0-4.0-3.0-2.0-0.1"	"m48wjj"	"600"	"1366"	"chrome"	"109.0.0"	"FALSE"	"Windows 10"	"60.62"	"002"	n/a	n/a	n/a	n/a	n/a	n/a	"fixation"	n/a	n/a	n/a	n/a	"NULL"	n/a	"NULL"	"NULL"	"NULL"	"<p style=\"color: black; font-size: 80px; padding-left: 9%; padding-right: 40%; padding-top: 48%; padding-bottom: 49%\">+</p>"	"1216"	n/a	n/a	n/a	n/a	n/a	n/a	n/a	n/a	n/a
n/a	"image-keyboard-response"	"40"	"192013"	"0.0-4.0-3.0-2.0-1.1"	"m48wjj"	"600"	"1366"	"chrome"	"109.0.0"	"FALSE"	"Windows 10"	"60.62"	"002"	n/a	n/a	n/a	n/a	n/a	n/a	"Trial"	n/a	n/a	n/a	"583"	"arrowleft"	n/a	"NULL"	"NULL"	"NULL"	"stimuli/VerticalHorizontal_-330000_0.90000.png"	n/a	"VerticalHorizontal"	"arrowleft"	"1232"	"TRUE"	"VerticalHorizontal"	"-33000000000"	"0.9000000000"	"1"	"14"
n/a	"html-keyboard-response"	"41"	"193270"	"0.0-4.0-3.0-2.0-0.2"	"m48wjj"	"600"	"1366"	"chrome"	"109.0.0"	"FALSE"	"Windows 10"	"60.62"	"002"	n/a	n/a	n/a	n/a	n/a	n/a	"fixation"	n/a	n/a	n/a	n/a	"NULL"	n/a	"NULL"	"NULL"	"NULL"	"<p style=\"color: black; font-size: 80px; padding-left: 31%; padding-right: 48%; padding-top: 24%; padding-bottom: 29%\">+</p>"	"1247"	n/a	n/a	n/a	n/a	n/a	n/a	n/a	n/a	n/a
n/a	"image-keyboard-response"	"42"	"193912"	"0.0-4.0-3.0-2.0-1.2"	"m48wjj"	"600"	"1366"	"chrome"	"109.0.0"	"FALSE"	"Windows 10"	"60.62"	"002"	n/a	n/a	n/a	n/a	n/a	n/a	"Trial"	n/a	n/a	n/a	"640"	"arrowleft"	n/a	"NULL"	"NULL"	"NULL"	"stimuli/VerticalHorizontal_0000000_0.90000.png"	n/a	"VerticalHorizontal"	"arrowleft"	"1257"	"TRUE"	"VerticalHorizontal"	"000000000000"	"0.9000000000"	"1"	"15"
n/a	"html-keyboard-response"	"43"	"195326"	"0.0-4.0-3.0-2.0-0.3"	"m48wjj"	"600"	"1366"	"chrome"	"109.0.0"	"FALSE"	"Windows 10"	"60.62"	"002"	n/a	n/a	n/a	n/a	n/a	n/a	"fixation"	n/a	n/a	n/a	n/a	"NULL"	n/a	"NULL"	"NULL"	"NULL"	"<p style=\"color: black; font-size: 80px; padding-left: 34%; padding-right: 43%; padding-top: 38%; padding-bottom: 18%\">+</p>"	"1411"	n/a	n/a	n/a	n/a	n/a	n/a	n/a	n/a	n/a
n/a	"image-keyboard-response"	"44"	"196231"	"0.0-4.0-3.0-2.0-1.3"	"m48wjj"	"600"	"1366"	"chrome"	"109.0.0"	"FALSE"	"Windows 10"	"60.62"	"002"	n/a	n/a	n/a	n/a	n/a	n/a	"Trial"	n/a	n/a	n/a	"904"	"arrowright"	n/a	"NULL"	"NULL"	"NULL"	"stimuli/VerticalHorizontal_0000000_-0.9000.png"	n/a	"VerticalHorizontal"	"arrowright"	"1414"	"TRUE"	"VerticalHorizontal"	"000000000000"	"-0.900000000"	"1"	"16"
n/a	"html-keyboard-response"	"45"	"197635"	"0.0-4.0-3.0-2.0-0.4"	"m48wjj"	"600"	"1366"	"chrome"	"109.0.0"	"FALSE"	"Windows 10"	"60.62"	"002"	n/a	n/a	n/a	n/a	n/a	n/a	"fixation"	n/a	n/a	n/a	n/a	"NULL"	n/a	"NULL"	"NULL"	"NULL"	"<p style=\"color: black; font-size: 80px; padding-left: 7%; padding-right: 41%; padding-top: 0%; padding-bottom: 6%\">+</p>"	"1397"	n/a	n/a	n/a	n/a	n/a	n/a	n/a	n/a	n/a
n/a	"image-keyboard-response"	"46"	"198244"	"0.0-4.0-3.0-2.0-1.4"	"m48wjj"	"600"	"1366"	"chrome"	"109.0.0"	"FALSE"	"Windows 10"	"60.62"	"002"	n/a	n/a	n/a	n/a	n/a	n/a	"Trial"	n/a	n/a	n/a	"607"	"arrowleft"	n/a	"NULL"	"NULL"	"NULL"	"stimuli/VerticalHorizontal_3300000_0.90000.png"	n/a	"VerticalHorizontal"	"arrowleft"	"1404"	"TRUE"	"VerticalHorizontal"	"330000000000"	"0.9000000000"	"1"	"17"
n/a	"html-keyboard-response"	"47"	"199666"	"0.0-4.0-3.0-2.0-0.5"	"m48wjj"	"600"	"1366"	"chrome"	"109.0.0"	"FALSE"	"Windows 10"	"60.62"	"002"	n/a	n/a	n/a	n/a	n/a	n/a	"fixation"	n/a	n/a	n/a	n/a	"NULL"	n/a	"NULL"	"NULL"	"NULL"	"<p style=\"color: black; font-size: 80px; padding-left: 9%; padding-right: 46%; padding-top: 48%; padding-bottom: 41%\">+</p>"	"1411"	n/a	n/a	n/a	n/a	n/a	n/a	n/a	n/a	n/a
n/a	"image-keyboard-response"	"48"	"200088"	"0.0-4.0-3.0-2.0-1.5"	"m48wjj"	"600"	"1366"	"chrome"	"109.0.0"	"FALSE"	"Windows 10"	"60.62"	"002"	n/a	n/a	n/a	n/a	n/a	n/a	"Trial"	n/a	n/a	n/a	"420"	"arrowright"	n/a	"NULL"	"NULL"	"NULL"	"stimuli/VerticalHorizontal_3300000_-0.9000.png"	n/a	"VerticalHorizontal"	"arrowright"	"1422"	"TRUE"	"VerticalHorizontal"	"330000000000"	"-0.900000000"	"1"	"18"
n/a	"html-button-response"	"49"	"203953"	"0.0-4.0-3.0-3.0"	"m48wjj"	"600"	"1366"	"chrome"	"109.0.0"	"FALSE"	"Windows 10"	"60.62"	"002"	n/a	n/a	n/a	n/a	n/a	n/a	"practice_block_results"	n/a	n/a	n/a	"3863"	"0"	n/a	"NULL"	"NULL"	"NULL"	"<p style='color:rgb(76,175,80);'> Correct Responses: <b>100.00%</b></p><hr><p style='color:rgb(233,30,99);'> Average Response Time: <b>752.17</b> ms.</p>"	n/a	n/a	n/a	n/a	n/a	n/a	n/a	n/a	n/a	n/a
n/a	"html-button-response"	"50"	"311152"	"0.0-4.0-4.0"	"m48wjj"	"600"	"1366"	"chrome"	"109.0.0"	"FALSE"	"Windows 10"	"60.62"	"002"	n/a	n/a	n/a	n/a	n/a	n/a	"practice_debrief"	n/a	n/a	n/a	"106697"	"0"	n/a	"NULL"	"NULL"	"NULL"	"<p><b>TRAINING COMPLETED</b></p><p>In the next phase, there will be more trials, and some might be harder too.<br> Moreover, after each illusion block, a <b>score</b> will be calculated based on speed (time you took to answer) and accuracy (number of errors).</p><p>Try to keep up a high score!</p><br><p>Note that it can be <i>really</i> challenging at times, so you will need to rely on your <b>intuition</b> and gut feeling to answer as fast as you can without making errors.</p><p>Each illusion block will be repeated two times (so that you have the opportunity to improve your score), but the order of the blocks is random.</p><p>Remember, your goal is to be as <b>fast</b> and <b>accurate</b> as possible. Good luck!</p><br>"	n/a	n/a	n/a	n/a	n/a	n/a	n/a	n/a	n/a	n/a
"TRUE"	"preload"	"51"	"311337"	"0.0-5.0-0.0"	"m48wjj"	"600"	"1366"	"chrome"	"109.0.0"	"FALSE"	"Windows 10"	"60.62"	"002"	n/a	n/a	n/a	n/a	n/a	n/a	n/a	n/a	n/a	n/a	n/a	"NULL"	"FALSE"	"list()"	"list()"	"list()"	n/a	n/a	n/a	n/a	n/a	n/a	n/a	n/a	n/a	n/a	n/a
n/a	"html-keyboard-response"	"52"	"315343"	"0.0-5.0-1.0"	"m48wjj"	"600"	"1366"	"chrome"	"109.0.0"	"FALSE"	"Windows 10"	"60.62"	"002"	n/a	n/a	n/a	n/a	n/a	n/a	n/a	n/a	n/a	n/a	"4005"	"enter"	n/a	"NULL"	"NULL"	"NULL"	"<p><b>Part 1/6</b></p><p>In this part, two red lines will appear side by side.</p><p>Your task is to tell <b>which line is longer</b> in length, regardless of their orientation, as fast as you can, and without making errors.</p><p>Don't get distracted by the orientation of the lines!</p><p>Press <b>the LEFT or the RIGHT arrow</b> to indicate which <b>line is the longer one.</b></p><div style='float: center'><img src='materials/instructions/VerticalHorizontal_Demo.png' height='300'></img><p><img src='utils/answer/answer_leftright_keyboard.PNG' height='150'></img></p><p class='small'>In this example, the correct answer is the <b>LEFT arrow</b>.</p></div><p>Are you ready? <b>Press ENTER to start</b></p>"	n/a	n/a	n/a	n/a	n/a	n/a	n/a	n/a	n/a	n/a
n/a	"html-keyboard-response"	"53"	"316909"	"0.0-5.0-2.0-0.0"	"m48wjj"	"600"	"1366"	"chrome"	"109.0.0"	"FALSE"	"Windows 10"	"60.62"	"002"	n/a	n/a	n/a	n/a	n/a	n/a	"fixation"	n/a	n/a	n/a	n/a	"NULL"	n/a	"NULL"	"NULL"	"NULL"	"<p style=\"color: black; font-size: 80px; padding-left: 43%; padding-right: 24%; padding-top: 26%; padding-bottom: 16%\">+</p>"	"1046"	n/a	n/a	n/a	n/a	n/a	n/a	n/a	n/a	n/a
n/a	"image-keyboard-response"	"54"	"318988"	"0.0-5.0-2.0-1.0"	"m48wjj"	"600"	"1366"	"chrome"	"109.0.0"	"FALSE"	"Windows 10"	"60.62"	"002"	n/a	n/a	n/a	n/a	n/a	n/a	"Trial"	n/a	n/a	n/a	"2078"	"arrowleft"	n/a	"NULL"	"NULL"	"NULL"	"stimuli/VerticalHorizontal_11.78571_0.22500.png"	n/a	"VerticalHorizontal"	"arrowleft"	"1566"	"TRUE"	"VerticalHorizontal"	"11.785710000"	"0.2250000000"	"1"	"19"
n/a	"html-keyboard-response"	"55"	"320002"	"0.0-5.0-2.0-0.1"	"m48wjj"	"600"	"1366"	"chrome"	"109.0.0"	"FALSE"	"Windows 10"	"60.62"	"002"	n/a	n/a	n/a	n/a	n/a	n/a	"fixation"	n/a	n/a	n/a	n/a	"NULL"	n/a	"NULL"	"NULL"	"NULL"	"<p style=\"color: black; font-size: 80px; padding-left: 12%; padding-right: 23%; padding-top: 45%; padding-bottom: 30%\">+</p>"	"1012"	n/a	n/a	n/a	n/a	n/a	n/a	n/a	n/a	n/a
n/a	"image-keyboard-response"	"56"	"320837"	"0.0-5.0-2.0-1.1"	"m48wjj"	"600"	"1366"	"chrome"	"109.0.0"	"FALSE"	"Windows 10"	"60.62"	"002"	n/a	n/a	n/a	n/a	n/a	n/a	"Trial"	n/a	n/a	n/a	"834"	"arrowleft"	n/a	"NULL"	"NULL"	"NULL"	"stimuli/VerticalHorizontal_-3.3000_0.22500.png"	n/a	"VerticalHorizontal"	"arrowleft"	"1014"	"TRUE"	"VerticalHorizontal"	"-3.300000000"	"0.2250000000"	"1"	"20"
n/a	"html-keyboard-response"	"57"	"322143"	"0.0-5.0-2.0-0.2"	"m48wjj"	"600"	"1366"	"chrome"	"109.0.0"	"FALSE"	"Windows 10"	"60.62"	"002"	n/a	n/a	n/a	n/a	n/a	n/a	"fixation"	n/a	n/a	n/a	n/a	"NULL"	n/a	"NULL"	"NULL"	"NULL"	"<p style=\"color: black; font-size: 80px; padding-left: 21%; padding-right: 37%; padding-top: 18%; padding-bottom: 43%\">+</p>"	"1300"	n/a	n/a	n/a	n/a	n/a	n/a	n/a	n/a	n/a
n/a	"image-keyboard-response"	"58"	"322902"	"0.0-5.0-2.0-1.2"	"m48wjj"	"600"	"1366"	"chrome"	"109.0.0"	"FALSE"	"Windows 10"	"60.62"	"002"	n/a	n/a	n/a	n/a	n/a	n/a	"Trial"	n/a	n/a	n/a	"758"	"arrowright"	n/a	"NULL"	"NULL"	"NULL"	"stimuli/VerticalHorizontal_-20.27143_-0.1096.png"	n/a	"VerticalHorizontal"	"arrowright"	"1306"	"TRUE"	"VerticalHorizontal"	"-20.27143000"	"-0.109600000"	"1"	"21"
n/a	"html-keyboard-response"	"59"	"323915"	"0.0-5.0-2.0-0.3"	"m48wjj"	"600"	"1366"	"chrome"	"109.0.0"	"FALSE"	"Windows 10"	"60.62"	"002"	n/a	n/a	n/a	n/a	n/a	n/a	"fixation"	n/a	n/a	n/a	n/a	"NULL"	n/a	"NULL"	"NULL"	"NULL"	"<p style=\"color: black; font-size: 80px; padding-left: 5%; padding-right: 17%; padding-top: 5%; padding-bottom: 28%\">+</p>"	"1005"	n/a	n/a	n/a	n/a	n/a	n/a	n/a	n/a	n/a
n/a	"image-keyboard-response"	"60"	"324420"	"0.0-5.0-2.0-1.3"	"m48wjj"	"600"	"1366"	"chrome"	"109.0.0"	"FALSE"	"Windows 10"	"60.62"	"002"	n/a	n/a	n/a	n/a	n/a	n/a	"Trial"	n/a	n/a	n/a	"504"	"arrowleft"	n/a	"NULL"	"NULL"	"NULL"	"stimuli/VerticalHorizontal_-20.27143_0.16217.png"	n/a	"VerticalHorizontal"	"arrowleft"	"1013"	"TRUE"	"VerticalHorizontal"	"-20.27143000"	"0.1621700000"	"1"	"22"
n/a	"html-keyboard-response"	"61"	"325826"	"0.0-5.0-2.0-0.4"	"m48wjj"	"600"	"1366"	"chrome"	"109.0.0"	"FALSE"	"Windows 10"	"60.62"	"002"	n/a	n/a	n/a	n/a	n/a	n/a	"fixation"	n/a	n/a	n/a	n/a	"NULL"	n/a	"NULL"	"NULL"	"NULL"	"<p style=\"color: black; font-size: 80px; padding-left: 8%; padding-right: 23%; padding-top: 12%; padding-bottom: 49%\">+</p>"	"1394"	n/a	n/a	n/a	n/a	n/a	n/a	n/a	n/a	n/a
n/a	"image-keyboard-response"	"62"	"326686"	"0.0-5.0-2.0-1.4"	"m48wjj"	"600"	"1366"	"chrome"	"109.0.0"	"FALSE"	"Windows 10"	"60.62"	"002"	n/a	n/a	n/a	n/a	n/a	n/a	"Trial"	n/a	n/a	n/a	"860"	"arrowleft"	n/a	"NULL"	"NULL"	"NULL"	"stimuli/VerticalHorizontal_28.75714_0.22500.png"	n/a	"VerticalHorizontal"	"arrowleft"	"1406"	"TRUE"	"VerticalHorizontal"	"28.757140000"	"0.2250000000"	"1"	"23"
n/a	"html-keyboard-response"	"63"	"327784"	"0.0-5.0-2.0-0.5"	"m48wjj"	"600"	"1366"	"chrome"	"109.0.0"	"FALSE"	"Windows 10"	"60.62"	"002"	n/a	n/a	n/a	n/a	n/a	n/a	"fixation"	n/a	n/a	n/a	n/a	"NULL"	n/a	"NULL"	"NULL"	"NULL"	"<p style=\"color: black; font-size: 80px; padding-left: 46%; padding-right: 16%; padding-top: 33%; padding-bottom: 9%\">+</p>"	"1089"	n/a	n/a	n/a	n/a	n/a	n/a	n/a	n/a	n/a
n/a	"image-keyboard-response"	"64"	"329146"	"0.0-5.0-2.0-1.5"	"m48wjj"	"600"	"1366"	"chrome"	"109.0.0"	"FALSE"	"Windows 10"	"60.62"	"002"	n/a	n/a	n/a	n/a	n/a	n/a	"Trial"	n/a	n/a	n/a	"1360"	"arrowright"	n/a	"NULL"	"NULL"	"NULL"	"stimuli/VerticalHorizontal_20.27143_-0.2250.png"	n/a	"VerticalHorizontal"	"arrowright"	"1098"	"TRUE"	"VerticalHorizontal"	"20.271430000"	"-0.225000000"	"1"	"24"
n/a	"html-keyboard-response"	"65"	"330257"	"0.0-5.0-2.0-0.6"	"m48wjj"	"600"	"1366"	"chrome"	"109.0.0"	"FALSE"	"Windows 10"	"60.62"	"002"	n/a	n/a	n/a	n/a	n/a	n/a	"fixation"	n/a	n/a	n/a	n/a	"NULL"	n/a	"NULL"	"NULL"	"NULL"	"<p style=\"color: black; font-size: 80px; padding-left: 25%; padding-right: 18%; padding-top: 47%; padding-bottom: 49%\">+</p>"	"1096"	n/a	n/a	n/a	n/a	n/a	n/a	n/a	n/a	n/a
n/a	"image-keyboard-response"	"66"	"331208"	"0.0-5.0-2.0-1.6"	"m48wjj"	"600"	"1366"	"chrome"	"109.0.0"	"FALSE"	"Windows 10"	"60.62"	"002"	n/a	n/a	n/a	n/a	n/a	n/a	"Trial"	n/a	n/a	n/a	"949"	"arrowright"	n/a	"NULL"	"NULL"	"NULL"	"stimuli/VerticalHorizontal_-3.3000_-0.1096.png"	n/a	"VerticalHorizontal"	"arrowright"	"1111"	"TRUE"	"VerticalHorizontal"	"-3.300000000"	"-0.109600000"	"1"	"25"
n/a	"html-keyboard-response"	"67"	"332250"	"0.0-5.0-2.0-0.7"	"m48wjj"	"600"	"1366"	"chrome"	"109.0.0"	"FALSE"	"Windows 10"	"60.62"	"002"	n/a	n/a	n/a	n/a	n/a	n/a	"fixation"	n/a	n/a	n/a	n/a	"NULL"	n/a	"NULL"	"NULL"	"NULL"	"<p style=\"color: black; font-size: 80px; padding-left: 35%; padding-right: 6%; padding-top: 43%; padding-bottom: 15%\">+</p>"	"1035"	n/a	n/a	n/a	n/a	n/a	n/a	n/a	n/a	n/a
n/a	"image-keyboard-response"	"68"	"333714"	"0.0-5.0-2.0-1.7"	"m48wjj"	"600"	"1366"	"chrome"	"109.0.0"	"FALSE"	"Windows 10"	"60.62"	"002"	n/a	n/a	n/a	n/a	n/a	n/a	"Trial"	n/a	n/a	n/a	"1463"	"arrowleft"	n/a	"NULL"	"NULL"	"NULL"	"stimuli/VerticalHorizontal_3.30000_0.06730.png"	n/a	"VerticalHorizontal"	"arrowleft"	"1042"	"TRUE"	"VerticalHorizontal"	"3.3000000000"	"0.0673000000"	"1"	"26"
n/a	"html-keyboard-response"	"69"	"335085"	"0.0-5.0-2.0-0.8"	"m48wjj"	"600"	"1366"	"chrome"	"109.0.0"	"FALSE"	"Windows 10"	"60.62"	"002"	n/a	n/a	n/a	n/a	n/a	n/a	"fixation"	n/a	n/a	n/a	n/a	"NULL"	n/a	"NULL"	"NULL"	"NULL"	"<p style=\"color: black; font-size: 80px; padding-left: 6%; padding-right: 16%; padding-top: 13%; padding-bottom: 25%\">+</p>"	"1357"	n/a	n/a	n/a	n/a	n/a	n/a	n/a	n/a	n/a
n/a	"image-keyboard-response"	"70"	"335934"	"0.0-5.0-2.0-1.8"	"m48wjj"	"600"	"1366"	"chrome"	"109.0.0"	"FALSE"	"Windows 10"	"60.62"	"002"	n/a	n/a	n/a	n/a	n/a	n/a	"Trial"	n/a	n/a	n/a	"847"	"arrowleft"	n/a	"NULL"	"NULL"	"NULL"	"stimuli/VerticalHorizontal_3.30000_0.22500.png"	n/a	"VerticalHorizontal"	"arrowleft"	"1371"	"TRUE"	"VerticalHorizontal"	"3.3000000000"	"0.2250000000"	"1"	"27"
n/a	"html-keyboard-response"	"71"	"337047"	"0.0-5.0-2.0-0.9"	"m48wjj"	"600"	"1366"	"chrome"	"109.0.0"	"FALSE"	"Windows 10"	"60.62"	"002"	n/a	n/a	n/a	n/a	n/a	n/a	"fixation"	n/a	n/a	n/a	n/a	"NULL"	n/a	"NULL"	"NULL"	"NULL"	"<p style=\"color: black; font-size: 80px; padding-left: 28%; padding-right: 42%; padding-top: 11%; padding-bottom: 25%\">+</p>"	"1099"	n/a	n/a	n/a	n/a	n/a	n/a	n/a	n/a	n/a
n/a	"image-keyboard-response"	"72"	"338328"	"0.0-5.0-2.0-1.9"	"m48wjj"	"600"	"1366"	"chrome"	"109.0.0"	"FALSE"	"Windows 10"	"60.62"	"002"	n/a	n/a	n/a	n/a	n/a	n/a	"Trial"	n/a	n/a	n/a	"1278"	"arrowleft"	n/a	"NULL"	"NULL"	"NULL"	"stimuli/VerticalHorizontal_-3.3000_0.10960.png"	n/a	"VerticalHorizontal"	"arrowleft"	"1113"	"TRUE"	"VerticalHorizontal"	"-3.300000000"	"0.1096000000"	"1"	"28"
n/a	"html-keyboard-response"	"73"	"339777"	"0.0-5.0-2.0-0.10"	"m48wjj"	"600"	"1366"	"chrome"	"109.0.0"	"FALSE"	"Windows 10"	"60.62"	"002"	n/a	n/a	n/a	n/a	n/a	n/a	"fixation"	n/a	n/a	n/a	n/a	"NULL"	n/a	"NULL"	"NULL"	"NULL"	"<p style=\"color: black; font-size: 80px; padding-left: 49%; padding-right: 30%; padding-top: 47%; padding-bottom: 12%\">+</p>"	"1435"	n/a	n/a	n/a	n/a	n/a	n/a	n/a	n/a	n/a
n/a	"image-keyboard-response"	"74"	"340857"	"0.0-5.0-2.0-1.10"	"m48wjj"	"600"	"1366"	"chrome"	"109.0.0"	"FALSE"	"Windows 10"	"60.62"	"002"	n/a	n/a	n/a	n/a	n/a	n/a	"Trial"	n/a	n/a	n/a	"1079"	"arrowright"	n/a	"NULL"	"NULL"	"NULL"	"stimuli/VerticalHorizontal_28.75714_-0.16217.png"	n/a	"VerticalHorizontal"	"arrowright"	"1449"	"TRUE"	"VerticalHorizontal"	"28.757140000"	"-0.162170000"	"1"	"29"
n/a	"html-keyboard-response"	"75"	"342020"	"0.0-5.0-2.0-0.11"	"m48wjj"	"600"	"1366"	"chrome"	"109.0.0"	"FALSE"	"Windows 10"	"60.62"	"002"	n/a	n/a	n/a	n/a	n/a	n/a	"fixation"	n/a	n/a	n/a	n/a	"NULL"	n/a	"NULL"	"NULL"	"NULL"	"<p style=\"color: black; font-size: 80px; padding-left: 48%; padding-right: 4%; padding-top: 27%; padding-bottom: 34%\">+</p>"	"1155"	n/a	n/a	n/a	n/a	n/a	n/a	n/a	n/a	n/a
n/a	"image-keyboard-response"	"76"	"343213"	"0.0-5.0-2.0-1.11"	"m48wjj"	"600"	"1366"	"chrome"	"109.0.0"	"FALSE"	"Windows 10"	"60.62"	"002"	n/a	n/a	n/a	n/a	n/a	n/a	"Trial"	n/a	n/a	n/a	"1191"	"arrowleft"	n/a	"NULL"	"NULL"	"NULL"	"stimuli/VerticalHorizontal_3.30000_0.16217.png"	n/a	"VerticalHorizontal"	"arrowleft"	"1163"	"TRUE"	"VerticalHorizontal"	"3.3000000000"	"0.1621700000"	"1"	"30"
n/a	"html-keyboard-response"	"77"	"344390"	"0.0-5.0-2.0-0.12"	"m48wjj"	"600"	"1366"	"chrome"	"109.0.0"	"FALSE"	"Windows 10"	"60.62"	"002"	n/a	n/a	n/a	n/a	n/a	n/a	"fixation"	n/a	n/a	n/a	n/a	"NULL"	n/a	"NULL"	"NULL"	"NULL"	"<p style=\"color: black; font-size: 80px; padding-left: 48%; padding-right: 44%; padding-top: 30%; padding-bottom: 47%\">+</p>"	"1173"	n/a	n/a	n/a	n/a	n/a	n/a	n/a	n/a	n/a
n/a	"image-keyboard-response"	"78"	"344960"	"0.0-5.0-2.0-1.12"	"m48wjj"	"600"	"1366"	"chrome"	"109.0.0"	"FALSE"	"Windows 10"	"60.62"	"002"	n/a	n/a	n/a	n/a	n/a	n/a	"Trial"	n/a	n/a	n/a	"569"	"arrowright"	n/a	"NULL"	"NULL"	"NULL"	"stimuli/VerticalHorizontal_-28.75714_-0.2250.png"	n/a	"VerticalHorizontal"	"arrowright"	"1177"	"TRUE"	"VerticalHorizontal"	"-28.75714000"	"-0.225000000"	"1"	"31"
n/a	"html-keyboard-response"	"79"	"345990"	"0.0-5.0-2.0-0.13"	"m48wjj"	"600"	"1366"	"chrome"	"109.0.0"	"FALSE"	"Windows 10"	"60.62"	"002"	n/a	n/a	n/a	n/a	n/a	n/a	"fixation"	n/a	n/a	n/a	n/a	"NULL"	n/a	"NULL"	"NULL"	"NULL"	"<p style=\"color: black; font-size: 80px; padding-left: 39%; padding-right: 50%; padding-top: 48%; padding-bottom: 20%\">+</p>"	"1019"	n/a	n/a	n/a	n/a	n/a	n/a	n/a	n/a	n/a
n/a	"image-keyboard-response"	"80"	"347190"	"0.0-5.0-2.0-1.13"	"m48wjj"	"600"	"1366"	"chrome"	"109.0.0"	"FALSE"	"Windows 10"	"60.62"	"002"	n/a	n/a	n/a	n/a	n/a	n/a	"Trial"	n/a	n/a	n/a	"1198"	"arrowleft"	n/a	"NULL"	"NULL"	"NULL"	"stimuli/VerticalHorizontal_11.78571_0.10960.png"	n/a	"VerticalHorizontal"	"arrowleft"	"1030"	"TRUE"	"VerticalHorizontal"	"11.785710000"	"0.1096000000"	"1"	"32"
n/a	"html-keyboard-response"	"81"	"348579"	"0.0-5.0-2.0-0.14"	"m48wjj"	"600"	"1366"	"chrome"	"109.0.0"	"FALSE"	"Windows 10"	"60.62"	"002"	n/a	n/a	n/a	n/a	n/a	n/a	"fixation"	n/a	n/a	n/a	n/a	"NULL"	n/a	"NULL"	"NULL"	"NULL"	"<p style=\"color: black; font-size: 80px; padding-left: 6%; padding-right: 3%; padding-top: 6%; padding-bottom: 0%\">+</p>"	"1373"	n/a	n/a	n/a	n/a	n/a	n/a	n/a	n/a	n/a
n/a	"image-keyboard-response"	"82"	"349427"	"0.0-5.0-2.0-1.14"	"m48wjj"	"600"	"1366"	"chrome"	"109.0.0"	"FALSE"	"Windows 10"	"60.62"	"002"	n/a	n/a	n/a	n/a	n/a	n/a	"Trial"	n/a	n/a	n/a	"847"	"arrowleft"	n/a	"NULL"	"NULL"	"NULL"	"stimuli/VerticalHorizontal_3.30000_0.10960.png"	n/a	"VerticalHorizontal"	"arrowleft"	"1389"	"TRUE"	"VerticalHorizontal"	"3.3000000000"	"0.1096000000"	"1"	"33"
n/a	"html-keyboard-response"	"83"	"350608"	"0.0-5.0-2.0-0.15"	"m48wjj"	"600"	"1366"	"chrome"	"109.0.0"	"FALSE"	"Windows 10"	"60.62"	"002"	n/a	n/a	n/a	n/a	n/a	n/a	"fixation"	n/a	n/a	n/a	n/a	"NULL"	n/a	"NULL"	"NULL"	"NULL"	"<p style=\"color: black; font-size: 80px; padding-left: 23%; padding-right: 21%; padding-top: 21%; padding-bottom: 28%\">+</p>"	"1175"	n/a	n/a	n/a	n/a	n/a	n/a	n/a	n/a	n/a
n/a	"image-keyboard-response"	"84"	"351364"	"0.0-5.0-2.0-1.15"	"m48wjj"	"600"	"1366"	"chrome"	"109.0.0"	"FALSE"	"Windows 10"	"60.62"	"002"	n/a	n/a	n/a	n/a	n/a	n/a	"Trial"	n/a	n/a	n/a	"755"	"arrowleft"	n/a	"NULL"	"NULL"	"NULL"	"stimuli/VerticalHorizontal_-28.75714_0.10960.png"	n/a	"VerticalHorizontal"	"arrowleft"	"1181"	"TRUE"	"VerticalHorizontal"	"-28.75714000"	"0.1096000000"	"1"	"34"
n/a	"html-keyboard-response"	"85"	"352412"	"0.0-5.0-2.0-0.16"	"m48wjj"	"600"	"1366"	"chrome"	"109.0.0"	"FALSE"	"Windows 10"	"60.62"	"002"	n/a	n/a	n/a	n/a	n/a	n/a	"fixation"	n/a	n/a	n/a	n/a	"NULL"	n/a	"NULL"	"NULL"	"NULL"	"<p style=\"color: black; font-size: 80px; padding-left: 45%; padding-right: 27%; padding-top: 22%; padding-bottom: 48%\">+</p>"	"1038"	n/a	n/a	n/a	n/a	n/a	n/a	n/a	n/a	n/a
n/a	"image-keyboard-response"	"86"	"353660"	"0.0-5.0-2.0-1.16"	"m48wjj"	"600"	"1366"	"chrome"	"109.0.0"	"FALSE"	"Windows 10"	"60.62"	"002"	n/a	n/a	n/a	n/a	n/a	n/a	"Trial"	n/a	n/a	n/a	"1247"	"arrowleft"	n/a	"NULL"	"NULL"	"NULL"	"stimuli/VerticalHorizontal_28.75714_0.10960.png"	n/a	"VerticalHorizontal"	"arrowleft"	"1048"	"TRUE"	"VerticalHorizontal"	"28.757140000"	"0.1096000000"	"1"	"35"
n/a	"html-keyboard-response"	"87"	"354794"	"0.0-5.0-2.0-0.17"	"m48wjj"	"600"	"1366"	"chrome"	"109.0.0"	"FALSE"	"Windows 10"	"60.62"	"002"	n/a	n/a	n/a	n/a	n/a	n/a	"fixation"	n/a	n/a	n/a	n/a	"NULL"	n/a	"NULL"	"NULL"	"NULL"	"<p style=\"color: black; font-size: 80px; padding-left: 44%; padding-right: 38%; padding-top: 5%; padding-bottom: 49%\">+</p>"	"1124"	n/a	n/a	n/a	n/a	n/a	n/a	n/a	n/a	n/a
n/a	"image-keyboard-response"	"88"	"355952"	"0.0-5.0-2.0-1.17"	"m48wjj"	"600"	"1366"	"chrome"	"109.0.0"	"FALSE"	"Windows 10"	"60.62"	"002"	n/a	n/a	n/a	n/a	n/a	n/a	"Trial"	n/a	n/a	n/a	"1150"	"arrowleft"	n/a	"NULL"	"NULL"	"NULL"	"stimuli/VerticalHorizontal_20.27143_0.06730.png"	n/a	"VerticalHorizontal"	"arrowleft"	"1134"	"TRUE"	"VerticalHorizontal"	"20.271430000"	"0.0673000000"	"1"	"36"
n/a	"html-keyboard-response"	"89"	"357184"	"0.0-5.0-2.0-0.18"	"m48wjj"	"600"	"1366"	"chrome"	"109.0.0"	"FALSE"	"Windows 10"	"60.62"	"002"	n/a	n/a	n/a	n/a	n/a	n/a	"fixation"	n/a	n/a	n/a	n/a	"NULL"	n/a	"NULL"	"NULL"	"NULL"	"<p style=\"color: black; font-size: 80px; padding-left: 16%; padding-right: 3%; padding-top: 28%; padding-bottom: 27%\">+</p>"	"1214"	n/a	n/a	n/a	n/a	n/a	n/a	n/a	n/a	n/a
n/a	"image-keyboard-response"	"90"	"358854"	"0.0-5.0-2.0-1.18"	"m48wjj"	"600"	"1366"	"chrome"	"109.0.0"	"FALSE"	"Windows 10"	"60.62"	"002"	n/a	n/a	n/a	n/a	n/a	n/a	"Trial"	n/a	n/a	n/a	"1669"	"arrowright"	n/a	"NULL"	"NULL"	"NULL"	"stimuli/VerticalHorizontal_-11.78571_-0.1096.png"	n/a	"VerticalHorizontal"	"arrowright"	"1232"	"TRUE"	"VerticalHorizontal"	"-11.78571000"	"-0.109600000"	"1"	"37"
n/a	"html-keyboard-response"	"91"	"360342"	"0.0-5.0-2.0-0.19"	"m48wjj"	"600"	"1366"	"chrome"	"109.0.0"	"FALSE"	"Windows 10"	"60.62"	"002"	n/a	n/a	n/a	n/a	n/a	n/a	"fixation"	n/a	n/a	n/a	n/a	"NULL"	n/a	"NULL"	"NULL"	"NULL"	"<p style=\"color: black; font-size: 80px; padding-left: 4%; padding-right: 30%; padding-top: 38%; padding-bottom: 19%\">+</p>"	"1483"	n/a	n/a	n/a	n/a	n/a	n/a	n/a	n/a	n/a
n/a	"image-keyboard-response"	"92"	"360975"	"0.0-5.0-2.0-1.19"	"m48wjj"	"600"	"1366"	"chrome"	"109.0.0"	"FALSE"	"Windows 10"	"60.62"	"002"	n/a	n/a	n/a	n/a	n/a	n/a	"Trial"	n/a	n/a	n/a	"630"	"arrowright"	n/a	"NULL"	"NULL"	"NULL"	"stimuli/VerticalHorizontal_-11.78571_-0.0673.png"	n/a	"VerticalHorizontal"	"arrowright"	"1488"	"TRUE"	"VerticalHorizontal"	"-11.78571000"	"-0.067300000"	"1"	"38"
n/a	"html-keyboard-response"	"93"	"362087"	"0.0-5.0-2.0-0.20"	"m48wjj"	"600"	"1366"	"chrome"	"109.0.0"	"FALSE"	"Windows 10"	"60.62"	"002"	n/a	n/a	n/a	n/a	n/a	n/a	"fixation"	n/a	n/a	n/a	n/a	"NULL"	n/a	"NULL"	"NULL"	"NULL"	"<p style=\"color: black; font-size: 80px; padding-left: 46%; padding-right: 17%; padding-top: 29%; padding-bottom: 19%\">+</p>"	"1108"	n/a	n/a	n/a	n/a	n/a	n/a	n/a	n/a	n/a
n/a	"image-keyboard-response"	"94"	"362624"	"0.0-5.0-2.0-1.20"	"m48wjj"	"600"	"1366"	"chrome"	"109.0.0"	"FALSE"	"Windows 10"	"60.62"	"002"	n/a	n/a	n/a	n/a	n/a	n/a	"Trial"	n/a	n/a	n/a	"535"	"arrowright"	n/a	"NULL"	"NULL"	"NULL"	"stimuli/VerticalHorizontal_-28.75714_-0.16217.png"	n/a	"VerticalHorizontal"	"arrowright"	"1112"	"TRUE"	"VerticalHorizontal"	"-28.75714000"	"-0.162170000"	"1"	"39"
n/a	"html-keyboard-response"	"95"	"363774"	"0.0-5.0-2.0-0.21"	"m48wjj"	"600"	"1366"	"chrome"	"109.0.0"	"FALSE"	"Windows 10"	"60.62"	"002"	n/a	n/a	n/a	n/a	n/a	n/a	"fixation"	n/a	n/a	n/a	n/a	"NULL"	n/a	"NULL"	"NULL"	"NULL"	"<p style=\"color: black; font-size: 80px; padding-left: 29%; padding-right: 42%; padding-top: 21%; padding-bottom: 17%\">+</p>"	"1135"	n/a	n/a	n/a	n/a	n/a	n/a	n/a	n/a	n/a
n/a	"image-keyboard-response"	"96"	"365171"	"0.0-5.0-2.0-1.21"	"m48wjj"	"600"	"1366"	"chrome"	"109.0.0"	"FALSE"	"Windows 10"	"60.62"	"002"	n/a	n/a	n/a	n/a	n/a	n/a	"Trial"	n/a	n/a	n/a	"1390"	"arrowright"	n/a	"NULL"	"NULL"	"NULL"	"stimuli/VerticalHorizontal_28.75714_-0.2250.png"	n/a	"VerticalHorizontal"	"arrowright"	"1150"	"TRUE"	"VerticalHorizontal"	"28.757140000"	"-0.225000000"	"1"	"40"
n/a	"html-keyboard-response"	"97"	"366645"	"0.0-5.0-2.0-0.22"	"m48wjj"	"600"	"1366"	"chrome"	"109.0.0"	"FALSE"	"Windows 10"	"60.62"	"002"	n/a	n/a	n/a	n/a	n/a	n/a	"fixation"	n/a	n/a	n/a	n/a	"NULL"	n/a	"NULL"	"NULL"	"NULL"	"<p style=\"color: black; font-size: 80px; padding-left: 18%; padding-right: 35%; padding-top: 23%; padding-bottom: 26%\">+</p>"	"1466"	n/a	n/a	n/a	n/a	n/a	n/a	n/a	n/a	n/a
n/a	"image-keyboard-response"	"98"	"367177"	"0.0-5.0-2.0-1.22"	"m48wjj"	"600"	"1366"	"chrome"	"109.0.0"	"FALSE"	"Windows 10"	"60.62"	"002"	n/a	n/a	n/a	n/a	n/a	n/a	"Trial"	n/a	n/a	n/a	"531"	"arrowleft"	n/a	"NULL"	"NULL"	"NULL"	"stimuli/VerticalHorizontal_-11.78571_0.10960.png"	n/a	"VerticalHorizontal"	"arrowleft"	"1474"	"TRUE"	"VerticalHorizontal"	"-11.78571000"	"0.1096000000"	"1"	"41"
n/a	"html-keyboard-response"	"99"	"368475"	"0.0-5.0-2.0-0.23"	"m48wjj"	"600"	"1366"	"chrome"	"109.0.0"	"FALSE"	"Windows 10"	"60.62"	"002"	n/a	n/a	n/a	n/a	n/a	n/a	"fixation"	n/a	n/a	n/a	n/a	"NULL"	n/a	"NULL"	"NULL"	"NULL"	"<p style=\"color: black; font-size: 80px; padding-left: 36%; padding-right: 22%; padding-top: 20%; padding-bottom: 46%\">+</p>"	"1289"	n/a	n/a	n/a	n/a	n/a	n/a	n/a	n/a	n/a
n/a	"image-keyboard-response"	"100"	"369038"	"0.0-5.0-2.0-1.23"	"m48wjj"	"600"	"1366"	"chrome"	"109.0.0"	"FALSE"	"Windows 10"	"60.62"	"002"	n/a	n/a	n/a	n/a	n/a	n/a	"Trial"	n/a	n/a	n/a	"562"	"arrowleft"	n/a	"NULL"	"NULL"	"NULL"	"stimuli/VerticalHorizontal_-28.75714_0.06730.png"	n/a	"VerticalHorizontal"	"arrowleft"	"1298"	"TRUE"	"VerticalHorizontal"	"-28.75714000"	"0.0673000000"	"1"	"42"
n/a	"html-keyboard-response"	"101"	"370277"	"0.0-5.0-2.0-0.24"	"m48wjj"	"600"	"1366"	"chrome"	"109.0.0"	"FALSE"	"Windows 10"	"60.62"	"002"	n/a	n/a	n/a	n/a	n/a	n/a	"fixation"	n/a	n/a	n/a	n/a	"NULL"	n/a	"NULL"	"NULL"	"NULL"	"<p style=\"color: black; font-size: 80px; padding-left: 10%; padding-right: 42%; padding-top: 14%; padding-bottom: 3%\">+</p>"	"1235"	n/a	n/a	n/a	n/a	n/a	n/a	n/a	n/a	n/a
n/a	"image-keyboard-response"	"102"	"370736"	"0.0-5.0-2.0-1.24"	"m48wjj"	"600"	"1366"	"chrome"	"109.0.0"	"FALSE"	"Windows 10"	"60.62"	"002"	n/a	n/a	n/a	n/a	n/a	n/a	"Trial"	n/a	n/a	n/a	"458"	"arrowleft"	n/a	"NULL"	"NULL"	"NULL"	"stimuli/VerticalHorizontal_-20.27143_0.10960.png"	n/a	"VerticalHorizontal"	"arrowleft"	"1239"	"TRUE"	"VerticalHorizontal"	"-20.27143000"	"0.1096000000"	"1"	"43"
n/a	"html-keyboard-response"	"103"	"371889"	"0.0-5.0-2.0-0.25"	"m48wjj"	"600"	"1366"	"chrome"	"109.0.0"	"FALSE"	"Windows 10"	"60.62"	"002"	n/a	n/a	n/a	n/a	n/a	n/a	"fixation"	n/a	n/a	n/a	n/a	"NULL"	n/a	"NULL"	"NULL"	"NULL"	"<p style=\"color: black; font-size: 80px; padding-left: 18%; padding-right: 22%; padding-top: 9%; padding-bottom: 23%\">+</p>"	"1133"	n/a	n/a	n/a	n/a	n/a	n/a	n/a	n/a	n/a
n/a	"image-keyboard-response"	"104"	"372441"	"0.0-5.0-2.0-1.25"	"m48wjj"	"600"	"1366"	"chrome"	"109.0.0"	"FALSE"	"Windows 10"	"60.62"	"002"	n/a	n/a	n/a	n/a	n/a	n/a	"Trial"	n/a	n/a	n/a	"551"	"arrowleft"	n/a	"NULL"	"NULL"	"NULL"	"stimuli/VerticalHorizontal_20.27143_-0.1096.png"	n/a	"VerticalHorizontal"	"arrowright"	"1153"	"FALSE"	"VerticalHorizontal"	"20.271430000"	"-0.109600000"	"1"	"44"
n/a	"html-keyboard-response"	"105"	"373547"	"0.0-5.0-2.0-0.26"	"m48wjj"	"600"	"1366"	"chrome"	"109.0.0"	"FALSE"	"Windows 10"	"60.62"	"002"	n/a	n/a	n/a	n/a	n/a	n/a	"fixation"	n/a	n/a	n/a	n/a	"NULL"	n/a	"NULL"	"NULL"	"NULL"	"<p style=\"color: black; font-size: 80px; padding-left: 1%; padding-right: 37%; padding-top: 8%; padding-bottom: 32%\">+</p>"	"1088"	n/a	n/a	n/a	n/a	n/a	n/a	n/a	n/a	n/a
n/a	"image-keyboard-response"	"106"	"374562"	"0.0-5.0-2.0-1.26"	"m48wjj"	"600"	"1366"	"chrome"	"109.0.0"	"FALSE"	"Windows 10"	"60.62"	"002"	n/a	n/a	n/a	n/a	n/a	n/a	"Trial"	n/a	n/a	n/a	"1014"	"arrowright"	n/a	"NULL"	"NULL"	"NULL"	"stimuli/VerticalHorizontal_3.30000_-0.0673.png"	n/a	"VerticalHorizontal"	"arrowright"	"1106"	"TRUE"	"VerticalHorizontal"	"3.3000000000"	"-0.067300000"	"1"	"45"
n/a	"html-keyboard-response"	"107"	"375655"	"0.0-5.0-2.0-0.27"	"m48wjj"	"600"	"1366"	"chrome"	"109.0.0"	"FALSE"	"Windows 10"	"60.62"	"002"	n/a	n/a	n/a	n/a	n/a	n/a	"fixation"	n/a	n/a	n/a	n/a	"NULL"	n/a	"NULL"	"NULL"	"NULL"	"<p style=\"color: black; font-size: 80px; padding-left: 12%; padding-right: 4%; padding-top: 49%; padding-bottom: 47%\">+</p>"	"1075"	n/a	n/a	n/a	n/a	n/a	n/a	n/a	n/a	n/a
n/a	"image-keyboard-response"	"108"	"376783"	"0.0-5.0-2.0-1.27"	"m48wjj"	"600"	"1366"	"chrome"	"109.0.0"	"FALSE"	"Windows 10"	"60.62"	"002"	n/a	n/a	n/a	n/a	n/a	n/a	"Trial"	n/a	n/a	n/a	"1127"	"arrowleft"	n/a	"NULL"	"NULL"	"NULL"	"stimuli/VerticalHorizontal_-11.78571_0.06730.png"	n/a	"VerticalHorizontal"	"arrowleft"	"1093"	"TRUE"	"VerticalHorizontal"	"-11.78571000"	"0.0673000000"	"1"	"46"
n/a	"html-keyboard-response"	"109"	"377983"	"0.0-5.0-2.0-0.28"	"m48wjj"	"600"	"1366"	"chrome"	"109.0.0"	"FALSE"	"Windows 10"	"60.62"	"002"	n/a	n/a	n/a	n/a	n/a	n/a	"fixation"	n/a	n/a	n/a	n/a	"NULL"	n/a	"NULL"	"NULL"	"NULL"	"<p style=\"color: black; font-size: 80px; padding-left: 40%; padding-right: 12%; padding-top: 37%; padding-bottom: 7%\">+</p>"	"1183"	n/a	n/a	n/a	n/a	n/a	n/a	n/a	n/a	n/a
n/a	"image-keyboard-response"	"110"	"378751"	"0.0-5.0-2.0-1.28"	"m48wjj"	"600"	"1366"	"chrome"	"109.0.0"	"FALSE"	"Windows 10"	"60.62"	"002"	n/a	n/a	n/a	n/a	n/a	n/a	"Trial"	n/a	n/a	n/a	"766"	"arrowright"	n/a	"NULL"	"NULL"	"NULL"	"stimuli/VerticalHorizontal_20.27143_0.22500.png"	n/a	"VerticalHorizontal"	"arrowleft"	"1200"	"FALSE"	"VerticalHorizontal"	"20.271430000"	"0.2250000000"	"1"	"47"
n/a	"html-keyboard-response"	"111"	"379813"	"0.0-5.0-2.0-0.29"	"m48wjj"	"600"	"1366"	"chrome"	"109.0.0"	"FALSE"	"Windows 10"	"60.62"	"002"	n/a	n/a	n/a	n/a	n/a	n/a	"fixation"	n/a	n/a	n/a	n/a	"NULL"	n/a	"NULL"	"NULL"	"NULL"	"<p style=\"color: black; font-size: 80px; padding-left: 17%; padding-right: 12%; padding-top: 24%; padding-bottom: 20%\">+</p>"	"1058"	n/a	n/a	n/a	n/a	n/a	n/a	n/a	n/a	n/a
n/a	"image-keyboard-response"	"112"	"380392"	"0.0-5.0-2.0-1.29"	"m48wjj"	"600"	"1366"	"chrome"	"109.0.0"	"FALSE"	"Windows 10"	"60.62"	"002"	n/a	n/a	n/a	n/a	n/a	n/a	"Trial"	n/a	n/a	n/a	"578"	"arrowright"	n/a	"NULL"	"NULL"	"NULL"	"stimuli/VerticalHorizontal_11.78571_-0.2250.png"	n/a	"VerticalHorizontal"	"arrowright"	"1062"	"TRUE"	"VerticalHorizontal"	"11.785710000"	"-0.225000000"	"1"	"48"
n/a	"html-keyboard-response"	"113"	"381515"	"0.0-5.0-2.0-0.30"	"m48wjj"	"600"	"1366"	"chrome"	"109.0.0"	"FALSE"	"Windows 10"	"60.62"	"002"	n/a	n/a	n/a	n/a	n/a	n/a	"fixation"	n/a	n/a	n/a	n/a	"NULL"	n/a	"NULL"	"NULL"	"NULL"	"<p style=\"color: black; font-size: 80px; padding-left: 28%; padding-right: 39%; padding-top: 26%; padding-bottom: 29%\">+</p>"	"1109"	n/a	n/a	n/a	n/a	n/a	n/a	n/a	n/a	n/a
n/a	"image-keyboard-response"	"114"	"383220"	"0.0-5.0-2.0-1.30"	"m48wjj"	"600"	"1366"	"chrome"	"109.0.0"	"FALSE"	"Windows 10"	"60.62"	"002"	n/a	n/a	n/a	n/a	n/a	n/a	"Trial"	n/a	n/a	n/a	"1704"	"arrowright"	n/a	"NULL"	"NULL"	"NULL"	"stimuli/VerticalHorizontal_28.75714_-0.1096.png"	n/a	"VerticalHorizontal"	"arrowright"	"1123"	"TRUE"	"VerticalHorizontal"	"28.757140000"	"-0.109600000"	"1"	"49"
n/a	"html-keyboard-response"	"115"	"384359"	"0.0-5.0-2.0-0.31"	"m48wjj"	"600"	"1366"	"chrome"	"109.0.0"	"FALSE"	"Windows 10"	"60.62"	"002"	n/a	n/a	n/a	n/a	n/a	n/a	"fixation"	n/a	n/a	n/a	n/a	"NULL"	n/a	"NULL"	"NULL"	"NULL"	"<p style=\"color: black; font-size: 80px; padding-left: 3%; padding-right: 28%; padding-top: 41%; padding-bottom: 30%\">+</p>"	"1128"	n/a	n/a	n/a	n/a	n/a	n/a	n/a	n/a	n/a
n/a	"image-keyboard-response"	"116"	"385187"	"0.0-5.0-2.0-1.31"	"m48wjj"	"600"	"1366"	"chrome"	"109.0.0"	"FALSE"	"Windows 10"	"60.62"	"002"	n/a	n/a	n/a	n/a	n/a	n/a	"Trial"	n/a	n/a	n/a	"826"	"arrowright"	n/a	"NULL"	"NULL"	"NULL"	"stimuli/VerticalHorizontal_11.78571_-0.0673.png"	n/a	"VerticalHorizontal"	"arrowright"	"1139"	"TRUE"	"VerticalHorizontal"	"11.785710000"	"-0.067300000"	"1"	"50"
n/a	"html-keyboard-response"	"117"	"386538"	"0.0-5.0-2.0-0.32"	"m48wjj"	"600"	"1366"	"chrome"	"109.0.0"	"FALSE"	"Windows 10"	"60.62"	"002"	n/a	n/a	n/a	n/a	n/a	n/a	"fixation"	n/a	n/a	n/a	n/a	"NULL"	n/a	"NULL"	"NULL"	"NULL"	"<p style=\"color: black; font-size: 80px; padding-left: 22%; padding-right: 46%; padding-top: 38%; padding-bottom: 34%\">+</p>"	"1329"	n/a	n/a	n/a	n/a	n/a	n/a	n/a	n/a	n/a
n/a	"image-keyboard-response"	"118"	"387442"	"0.0-5.0-2.0-1.32"	"m48wjj"	"600"	"1366"	"chrome"	"109.0.0"	"FALSE"	"Windows 10"	"60.62"	"002"	n/a	n/a	n/a	n/a	n/a	n/a	"Trial"	n/a	n/a	n/a	"903"	"arrowleft"	n/a	"NULL"	"NULL"	"NULL"	"stimuli/VerticalHorizontal_28.75714_-0.0673.png"	n/a	"VerticalHorizontal"	"arrowright"	"1351"	"FALSE"	"VerticalHorizontal"	"28.757140000"	"-0.067300000"	"1"	"51"
n/a	"html-keyboard-response"	"119"	"388942"	"0.0-5.0-2.0-0.33"	"m48wjj"	"600"	"1366"	"chrome"	"109.0.0"	"FALSE"	"Windows 10"	"60.62"	"002"	n/a	n/a	n/a	n/a	n/a	n/a	"fixation"	n/a	n/a	n/a	n/a	"NULL"	n/a	"NULL"	"NULL"	"NULL"	"<p style=\"color: black; font-size: 80px; padding-left: 3%; padding-right: 24%; padding-top: 8%; padding-bottom: 18%\">+</p>"	"1493"	n/a	n/a	n/a	n/a	n/a	n/a	n/a	n/a	n/a
n/a	"image-keyboard-response"	"120"	"390083"	"0.0-5.0-2.0-1.33"	"m48wjj"	"600"	"1366"	"chrome"	"109.0.0"	"FALSE"	"Windows 10"	"60.62"	"002"	n/a	n/a	n/a	n/a	n/a	n/a	"Trial"	n/a	n/a	n/a	"1140"	"arrowleft"	n/a	"NULL"	"NULL"	"NULL"	"stimuli/VerticalHorizontal_11.78571_0.06730.png"	n/a	"VerticalHorizontal"	"arrowleft"	"1500"	"TRUE"	"VerticalHorizontal"	"11.785710000"	"0.0673000000"	"1"	"52"
n/a	"html-keyboard-response"	"121"	"391441"	"0.0-5.0-2.0-0.34"	"m48wjj"	"600"	"1366"	"chrome"	"109.0.0"	"FALSE"	"Windows 10"	"60.62"	"002"	n/a	n/a	n/a	n/a	n/a	n/a	"fixation"	n/a	n/a	n/a	n/a	"NULL"	n/a	"NULL"	"NULL"	"NULL"	"<p style=\"color: black; font-size: 80px; padding-left: 17%; padding-right: 14%; padding-top: 2%; padding-bottom: 15%\">+</p>"	"1348"	n/a	n/a	n/a	n/a	n/a	n/a	n/a	n/a	n/a
n/a	"image-keyboard-response"	"122"	"392161"	"0.0-5.0-2.0-1.34"	"m48wjj"	"600"	"1366"	"chrome"	"109.0.0"	"FALSE"	"Windows 10"	"60.62"	"002"	n/a	n/a	n/a	n/a	n/a	n/a	"Trial"	n/a	n/a	n/a	"717"	"arrowright"	n/a	"NULL"	"NULL"	"NULL"	"stimuli/VerticalHorizontal_-20.27143_-0.0673.png"	n/a	"VerticalHorizontal"	"arrowright"	"1358"	"TRUE"	"VerticalHorizontal"	"-20.27143000"	"-0.067300000"	"1"	"53"
n/a	"html-keyboard-response"	"123"	"393512"	"0.0-5.0-2.0-0.35"	"m48wjj"	"600"	"1366"	"chrome"	"109.0.0"	"FALSE"	"Windows 10"	"60.62"	"002"	n/a	n/a	n/a	n/a	n/a	n/a	"fixation"	n/a	n/a	n/a	n/a	"NULL"	n/a	"NULL"	"NULL"	"NULL"	"<p style=\"color: black; font-size: 80px; padding-left: 16%; padding-right: 3%; padding-top: 46%; padding-bottom: 13%\">+</p>"	"1335"	n/a	n/a	n/a	n/a	n/a	n/a	n/a	n/a	n/a
n/a	"image-keyboard-response"	"124"	"394302"	"0.0-5.0-2.0-1.35"	"m48wjj"	"600"	"1366"	"chrome"	"109.0.0"	"FALSE"	"Windows 10"	"60.62"	"002"	n/a	n/a	n/a	n/a	n/a	n/a	"Trial"	n/a	n/a	n/a	"787"	"arrowright"	n/a	"NULL"	"NULL"	"NULL"	"stimuli/VerticalHorizontal_3.30000_-0.2250.png"	n/a	"VerticalHorizontal"	"arrowright"	"1351"	"TRUE"	"VerticalHorizontal"	"3.3000000000"	"-0.225000000"	"1"	"54"
n/a	"html-keyboard-response"	"125"	"395747"	"0.0-5.0-2.0-0.36"	"m48wjj"	"600"	"1366"	"chrome"	"109.0.0"	"FALSE"	"Windows 10"	"60.62"	"002"	n/a	n/a	n/a	n/a	n/a	n/a	"fixation"	n/a	n/a	n/a	n/a	"NULL"	n/a	"NULL"	"NULL"	"NULL"	"<p style=\"color: black; font-size: 80px; padding-left: 7%; padding-right: 23%; padding-top: 19%; padding-bottom: 44%\">+</p>"	"1433"	n/a	n/a	n/a	n/a	n/a	n/a	n/a	n/a	n/a
n/a	"image-keyboard-response"	"126"	"396331"	"0.0-5.0-2.0-1.36"	"m48wjj"	"600"	"1366"	"chrome"	"109.0.0"	"FALSE"	"Windows 10"	"60.62"	"002"	n/a	n/a	n/a	n/a	n/a	n/a	"Trial"	n/a	n/a	n/a	"583"	"arrowleft"	n/a	"NULL"	"NULL"	"NULL"	"stimuli/VerticalHorizontal_-11.78571_0.16217.png"	n/a	"VerticalHorizontal"	"arrowleft"	"1445"	"TRUE"	"VerticalHorizontal"	"-11.78571000"	"0.1621700000"	"1"	"55"
n/a	"html-keyboard-response"	"127"	"397537"	"0.0-5.0-2.0-0.37"	"m48wjj"	"600"	"1366"	"chrome"	"109.0.0"	"FALSE"	"Windows 10"	"60.62"	"002"	n/a	n/a	n/a	n/a	n/a	n/a	"fixation"	n/a	n/a	n/a	n/a	"NULL"	n/a	"NULL"	"NULL"	"NULL"	"<p style=\"color: black; font-size: 80px; padding-left: 27%; padding-right: 36%; padding-top: 14%; padding-bottom: 34%\">+</p>"	"1197"	n/a	n/a	n/a	n/a	n/a	n/a	n/a	n/a	n/a
n/a	"image-keyboard-response"	"128"	"398183"	"0.0-5.0-2.0-1.37"	"m48wjj"	"600"	"1366"	"chrome"	"109.0.0"	"FALSE"	"Windows 10"	"60.62"	"002"	n/a	n/a	n/a	n/a	n/a	n/a	"Trial"	n/a	n/a	n/a	"642"	"arrowleft"	n/a	"NULL"	"NULL"	"NULL"	"stimuli/VerticalHorizontal_-3.3000_-0.0673.png"	n/a	"VerticalHorizontal"	"arrowright"	"1206"	"FALSE"	"VerticalHorizontal"	"-3.300000000"	"-0.067300000"	"1"	"56"
n/a	"html-keyboard-response"	"129"	"399388"	"0.0-5.0-2.0-0.38"	"m48wjj"	"600"	"1366"	"chrome"	"109.0.0"	"FALSE"	"Windows 10"	"60.62"	"002"	n/a	n/a	n/a	n/a	n/a	n/a	"fixation"	n/a	n/a	n/a	n/a	"NULL"	n/a	"NULL"	"NULL"	"NULL"	"<p style=\"color: black; font-size: 80px; padding-left: 39%; padding-right: 14%; padding-top: 36%; padding-bottom: 13%\">+</p>"	"1194"	n/a	n/a	n/a	n/a	n/a	n/a	n/a	n/a	n/a
n/a	"image-keyboard-response"	"130"	"399973"	"0.0-5.0-2.0-1.38"	"m48wjj"	"600"	"1366"	"chrome"	"109.0.0"	"FALSE"	"Windows 10"	"60.62"	"002"	n/a	n/a	n/a	n/a	n/a	n/a	"Trial"	n/a	n/a	n/a	"583"	"arrowright"	n/a	"NULL"	"NULL"	"NULL"	"stimuli/VerticalHorizontal_-28.75714_-0.0673.png"	n/a	"VerticalHorizontal"	"arrowright"	"1205"	"TRUE"	"VerticalHorizontal"	"-28.75714000"	"-0.067300000"	"1"	"57"
n/a	"html-keyboard-response"	"131"	"401194"	"0.0-5.0-2.0-0.39"	"m48wjj"	"600"	"1366"	"chrome"	"109.0.0"	"FALSE"	"Windows 10"	"60.62"	"002"	n/a	n/a	n/a	n/a	n/a	n/a	"fixation"	n/a	n/a	n/a	n/a	"NULL"	n/a	"NULL"	"NULL"	"NULL"	"<p style=\"color: black; font-size: 80px; padding-left: 48%; padding-right: 35%; padding-top: 38%; padding-bottom: 5%\">+</p>"	"1200"	n/a	n/a	n/a	n/a	n/a	n/a	n/a	n/a	n/a
n/a	"image-keyboard-response"	"132"	"401803"	"0.0-5.0-2.0-1.39"	"m48wjj"	"600"	"1366"	"chrome"	"109.0.0"	"FALSE"	"Windows 10"	"60.62"	"002"	n/a	n/a	n/a	n/a	n/a	n/a	"Trial"	n/a	n/a	n/a	"607"	"arrowleft"	n/a	"NULL"	"NULL"	"NULL"	"stimuli/VerticalHorizontal_-20.27143_0.22500.png"	n/a	"VerticalHorizontal"	"arrowleft"	"1221"	"TRUE"	"VerticalHorizontal"	"-20.27143000"	"0.2250000000"	"1"	"58"
n/a	"html-keyboard-response"	"133"	"402856"	"0.0-5.0-2.0-0.40"	"m48wjj"	"600"	"1366"	"chrome"	"109.0.0"	"FALSE"	"Windows 10"	"60.62"	"002"	n/a	n/a	n/a	n/a	n/a	n/a	"fixation"	n/a	n/a	n/a	n/a	"NULL"	n/a	"NULL"	"NULL"	"NULL"	"<p style=\"color: black; font-size: 80px; padding-left: 15%; padding-right: 29%; padding-top: 21%; padding-bottom: 12%\">+</p>"	"1047"	n/a	n/a	n/a	n/a	n/a	n/a	n/a	n/a	n/a
n/a	"image-keyboard-response"	"134"	"403322"	"0.0-5.0-2.0-1.40"	"m48wjj"	"600"	"1366"	"chrome"	"109.0.0"	"FALSE"	"Windows 10"	"60.62"	"002"	n/a	n/a	n/a	n/a	n/a	n/a	"Trial"	n/a	n/a	n/a	"465"	"arrowright"	n/a	"NULL"	"NULL"	"NULL"	"stimuli/VerticalHorizontal_-3.3000_-0.16217.png"	n/a	"VerticalHorizontal"	"arrowright"	"1053"	"TRUE"	"VerticalHorizontal"	"-3.300000000"	"-0.162170000"	"1"	"59"
n/a	"html-keyboard-response"	"135"	"404828"	"0.0-5.0-2.0-0.41"	"m48wjj"	"600"	"1366"	"chrome"	"109.0.0"	"FALSE"	"Windows 10"	"60.62"	"002"	n/a	n/a	n/a	n/a	n/a	n/a	"fixation"	n/a	n/a	n/a	n/a	"NULL"	n/a	"NULL"	"NULL"	"NULL"	"<p style=\"color: black; font-size: 80px; padding-left: 4%; padding-right: 7%; padding-top: 49%; padding-bottom: 23%\">+</p>"	"1487"	n/a	n/a	n/a	n/a	n/a	n/a	n/a	n/a	n/a
n/a	"image-keyboard-response"	"136"	"405370"	"0.0-5.0-2.0-1.41"	"m48wjj"	"600"	"1366"	"chrome"	"109.0.0"	"FALSE"	"Windows 10"	"60.62"	"002"	n/a	n/a	n/a	n/a	n/a	n/a	"Trial"	n/a	n/a	n/a	"532"	"arrowleft"	n/a	"NULL"	"NULL"	"NULL"	"stimuli/VerticalHorizontal_11.78571_0.16217.png"	n/a	"VerticalHorizontal"	"arrowleft"	"1506"	"TRUE"	"VerticalHorizontal"	"11.785710000"	"0.1621700000"	"1"	"60"
n/a	"html-keyboard-response"	"137"	"406749"	"0.0-5.0-2.0-0.42"	"m48wjj"	"600"	"1366"	"chrome"	"109.0.0"	"FALSE"	"Windows 10"	"60.62"	"002"	n/a	n/a	n/a	n/a	n/a	n/a	"fixation"	n/a	n/a	n/a	n/a	"NULL"	n/a	"NULL"	"NULL"	"NULL"	"<p style=\"color: black; font-size: 80px; padding-left: 23%; padding-right: 3%; padding-top: 31%; padding-bottom: 13%\">+</p>"	"1366"	n/a	n/a	n/a	n/a	n/a	n/a	n/a	n/a	n/a
n/a	"image-keyboard-response"	"138"	"407224"	"0.0-5.0-2.0-1.42"	"m48wjj"	"600"	"1366"	"chrome"	"109.0.0"	"FALSE"	"Windows 10"	"60.62"	"002"	n/a	n/a	n/a	n/a	n/a	n/a	"Trial"	n/a	n/a	n/a	"473"	"arrowright"	n/a	"NULL"	"NULL"	"NULL"	"stimuli/VerticalHorizontal_-3.3000_-0.2250.png"	n/a	"VerticalHorizontal"	"arrowright"	"1379"	"TRUE"	"VerticalHorizontal"	"-3.300000000"	"-0.225000000"	"1"	"61"
n/a	"html-keyboard-response"	"139"	"408484"	"0.0-5.0-2.0-0.43"	"m48wjj"	"600"	"1366"	"chrome"	"109.0.0"	"FALSE"	"Windows 10"	"60.62"	"002"	n/a	n/a	n/a	n/a	n/a	n/a	"fixation"	n/a	n/a	n/a	n/a	"NULL"	n/a	"NULL"	"NULL"	"NULL"	"<p style=\"color: black; font-size: 80px; padding-left: 25%; padding-right: 20%; padding-top: 0%; padding-bottom: 10%\">+</p>"	"1249"	n/a	n/a	n/a	n/a	n/a	n/a	n/a	n/a	n/a
n/a	"image-keyboard-response"	"140"	"409389"	"0.0-5.0-2.0-1.43"	"m48wjj"	"600"	"1366"	"chrome"	"109.0.0"	"FALSE"	"Windows 10"	"60.62"	"002"	n/a	n/a	n/a	n/a	n/a	n/a	"Trial"	n/a	n/a	n/a	"903"	"arrowright"	n/a	"NULL"	"NULL"	"NULL"	"stimuli/VerticalHorizontal_3.30000_-0.1096.png"	n/a	"VerticalHorizontal"	"arrowright"	"1260"	"TRUE"	"VerticalHorizontal"	"3.3000000000"	"-0.109600000"	"1"	"62"
n/a	"html-keyboard-response"	"141"	"410452"	"0.0-5.0-2.0-0.44"	"m48wjj"	"600"	"1366"	"chrome"	"109.0.0"	"FALSE"	"Windows 10"	"60.62"	"002"	n/a	n/a	n/a	n/a	n/a	n/a	"fixation"	n/a	n/a	n/a	n/a	"NULL"	n/a	"NULL"	"NULL"	"NULL"	"<p style=\"color: black; font-size: 80px; padding-left: 31%; padding-right: 29%; padding-top: 34%; padding-bottom: 27%\">+</p>"	"1040"	n/a	n/a	n/a	n/a	n/a	n/a	n/a	n/a	n/a
n/a	"image-keyboard-response"	"142"	"411015"	"0.0-5.0-2.0-1.44"	"m48wjj"	"600"	"1366"	"chrome"	"109.0.0"	"FALSE"	"Windows 10"	"60.62"	"002"	n/a	n/a	n/a	n/a	n/a	n/a	"Trial"	n/a	n/a	n/a	"562"	"arrowleft"	n/a	"NULL"	"NULL"	"NULL"	"stimuli/VerticalHorizontal_-28.75714_0.22500.png"	n/a	"VerticalHorizontal"	"arrowleft"	"1063"	"TRUE"	"VerticalHorizontal"	"-28.75714000"	"0.2250000000"	"1"	"63"
n/a	"html-keyboard-response"	"143"	"412217"	"0.0-5.0-2.0-0.45"	"m48wjj"	"600"	"1366"	"chrome"	"109.0.0"	"FALSE"	"Windows 10"	"60.62"	"002"	n/a	n/a	n/a	n/a	n/a	n/a	"fixation"	n/a	n/a	n/a	n/a	"NULL"	n/a	"NULL"	"NULL"	"NULL"	"<p style=\"color: black; font-size: 80px; padding-left: 43%; padding-right: 23%; padding-top: 47%; padding-bottom: 3%\">+</p>"	"1185"	n/a	n/a	n/a	n/a	n/a	n/a	n/a	n/a	n/a
n/a	"image-keyboard-response"	"144"	"413089"	"0.0-5.0-2.0-1.45"	"m48wjj"	"600"	"1366"	"chrome"	"109.0.0"	"FALSE"	"Windows 10"	"60.62"	"002"	n/a	n/a	n/a	n/a	n/a	n/a	"Trial"	n/a	n/a	n/a	"870"	"arrowleft"	n/a	"NULL"	"NULL"	"NULL"	"stimuli/VerticalHorizontal_20.27143_0.16217.png"	n/a	"VerticalHorizontal"	"arrowleft"	"1202"	"TRUE"	"VerticalHorizontal"	"20.271430000"	"0.1621700000"	"1"	"64"
n/a	"html-keyboard-response"	"145"	"414318"	"0.0-5.0-2.0-0.46"	"m48wjj"	"600"	"1366"	"chrome"	"109.0.0"	"FALSE"	"Windows 10"	"60.62"	"002"	n/a	n/a	n/a	n/a	n/a	n/a	"fixation"	n/a	n/a	n/a	n/a	"NULL"	n/a	"NULL"	"NULL"	"NULL"	"<p style=\"color: black; font-size: 80px; padding-left: 2%; padding-right: 40%; padding-top: 32%; padding-bottom: 17%\">+</p>"	"1224"	n/a	n/a	n/a	n/a	n/a	n/a	n/a	n/a	n/a
n/a	"image-keyboard-response"	"146"	"414757"	"0.0-5.0-2.0-1.46"	"m48wjj"	"600"	"1366"	"chrome"	"109.0.0"	"FALSE"	"Windows 10"	"60.62"	"002"	n/a	n/a	n/a	n/a	n/a	n/a	"Trial"	n/a	n/a	n/a	"438"	"arrowleft"	n/a	"NULL"	"NULL"	"NULL"	"stimuli/VerticalHorizontal_-11.78571_0.22500.png"	n/a	"VerticalHorizontal"	"arrowleft"	"1229"	"TRUE"	"VerticalHorizontal"	"-11.78571000"	"0.2250000000"	"1"	"65"
n/a	"html-keyboard-response"	"147"	"415793"	"0.0-5.0-2.0-0.47"	"m48wjj"	"600"	"1366"	"chrome"	"109.0.0"	"FALSE"	"Windows 10"	"60.62"	"002"	n/a	n/a	n/a	n/a	n/a	n/a	"fixation"	n/a	n/a	n/a	n/a	"NULL"	n/a	"NULL"	"NULL"	"NULL"	"<p style=\"color: black; font-size: 80px; padding-left: 1%; padding-right: 22%; padding-top: 44%; padding-bottom: 23%\">+</p>"	"1018"	n/a	n/a	n/a	n/a	n/a	n/a	n/a	n/a	n/a
n/a	"image-keyboard-response"	"148"	"416395"	"0.0-5.0-2.0-1.47"	"m48wjj"	"600"	"1366"	"chrome"	"109.0.0"	"FALSE"	"Windows 10"	"60.62"	"002"	n/a	n/a	n/a	n/a	n/a	n/a	"Trial"	n/a	n/a	n/a	"601"	"arrowleft"	n/a	"NULL"	"NULL"	"NULL"	"stimuli/VerticalHorizontal_11.78571_-0.16217.png"	n/a	"VerticalHorizontal"	"arrowright"	"1036"	"FALSE"	"VerticalHorizontal"	"11.785710000"	"-0.162170000"	"1"	"66"
n/a	"html-keyboard-response"	"149"	"417406"	"0.0-5.0-2.0-0.48"	"m48wjj"	"600"	"1366"	"chrome"	"109.0.0"	"FALSE"	"Windows 10"	"60.62"	"002"	n/a	n/a	n/a	n/a	n/a	n/a	"fixation"	n/a	n/a	n/a	n/a	"NULL"	n/a	"NULL"	"NULL"	"NULL"	"<p style=\"color: black; font-size: 80px; padding-left: 25%; padding-right: 25%; padding-top: 38%; padding-bottom: 5%\">+</p>"	"1007"	n/a	n/a	n/a	n/a	n/a	n/a	n/a	n/a	n/a
n/a	"image-keyboard-response"	"150"	"418111"	"0.0-5.0-2.0-1.48"	"m48wjj"	"600"	"1366"	"chrome"	"109.0.0"	"FALSE"	"Windows 10"	"60.62"	"002"	n/a	n/a	n/a	n/a	n/a	n/a	"Trial"	n/a	n/a	n/a	"703"	"arrowleft"	n/a	"NULL"	"NULL"	"NULL"	"stimuli/VerticalHorizontal_28.75714_0.16217.png"	n/a	"VerticalHorizontal"	"arrowleft"	"1011"	"TRUE"	"VerticalHorizontal"	"28.757140000"	"0.1621700000"	"1"	"67"
n/a	"html-keyboard-response"	"151"	"419431"	"0.0-5.0-2.0-0.49"	"m48wjj"	"600"	"1366"	"chrome"	"109.0.0"	"FALSE"	"Windows 10"	"60.62"	"002"	n/a	n/a	n/a	n/a	n/a	n/a	"fixation"	n/a	n/a	n/a	n/a	"NULL"	n/a	"NULL"	"NULL"	"NULL"	"<p style=\"color: black; font-size: 80px; padding-left: 21%; padding-right: 12%; padding-top: 8%; padding-bottom: 42%\">+</p>"	"1306"	n/a	n/a	n/a	n/a	n/a	n/a	n/a	n/a	n/a
n/a	"image-keyboard-response"	"152"	"420498"	"0.0-5.0-2.0-1.49"	"m48wjj"	"600"	"1366"	"chrome"	"109.0.0"	"FALSE"	"Windows 10"	"60.62"	"002"	n/a	n/a	n/a	n/a	n/a	n/a	"Trial"	n/a	n/a	n/a	"1064"	"arrowleft"	n/a	"NULL"	"NULL"	"NULL"	"stimuli/VerticalHorizontal_11.78571_-0.1096.png"	n/a	"VerticalHorizontal"	"arrowright"	"1320"	"FALSE"	"VerticalHorizontal"	"11.785710000"	"-0.109600000"	"1"	"68"
n/a	"html-keyboard-response"	"153"	"421768"	"0.0-5.0-2.0-0.50"	"m48wjj"	"600"	"1366"	"chrome"	"109.0.0"	"FALSE"	"Windows 10"	"60.62"	"002"	n/a	n/a	n/a	n/a	n/a	n/a	"fixation"	n/a	n/a	n/a	n/a	"NULL"	n/a	"NULL"	"NULL"	"NULL"	"<p style=\"color: black; font-size: 80px; padding-left: 22%; padding-right: 12%; padding-top: 23%; padding-bottom: 28%\">+</p>"	"1237"	n/a	n/a	n/a	n/a	n/a	n/a	n/a	n/a	n/a
n/a	"image-keyboard-response"	"154"	"422221"	"0.0-5.0-2.0-1.50"	"m48wjj"	"600"	"1366"	"chrome"	"109.0.0"	"FALSE"	"Windows 10"	"60.62"	"002"	n/a	n/a	n/a	n/a	n/a	n/a	"Trial"	n/a	n/a	n/a	"452"	"arrowleft"	n/a	"NULL"	"NULL"	"NULL"	"stimuli/VerticalHorizontal_-28.75714_0.16217.png"	n/a	"VerticalHorizontal"	"arrowleft"	"1270"	"TRUE"	"VerticalHorizontal"	"-28.75714000"	"0.1621700000"	"1"	"69"
n/a	"html-keyboard-response"	"155"	"423685"	"0.0-5.0-2.0-0.51"	"m48wjj"	"600"	"1366"	"chrome"	"109.0.0"	"FALSE"	"Windows 10"	"60.62"	"002"	n/a	n/a	n/a	n/a	n/a	n/a	"fixation"	n/a	n/a	n/a	n/a	"NULL"	n/a	"NULL"	"NULL"	"NULL"	"<p style=\"color: black; font-size: 80px; padding-left: 38%; padding-right: 12%; padding-top: 12%; padding-bottom: 27%\">+</p>"	"1459"	n/a	n/a	n/a	n/a	n/a	n/a	n/a	n/a	n/a
n/a	"image-keyboard-response"	"156"	"424356"	"0.0-5.0-2.0-1.51"	"m48wjj"	"600"	"1366"	"chrome"	"109.0.0"	"FALSE"	"Windows 10"	"60.62"	"002"	n/a	n/a	n/a	n/a	n/a	n/a	"Trial"	n/a	n/a	n/a	"669"	"arrowright"	n/a	"NULL"	"NULL"	"NULL"	"stimuli/VerticalHorizontal_28.75714_0.06730.png"	n/a	"VerticalHorizontal"	"arrowleft"	"1464"	"FALSE"	"VerticalHorizontal"	"28.757140000"	"0.0673000000"	"1"	"70"
n/a	"html-keyboard-response"	"157"	"425718"	"0.0-5.0-2.0-0.52"	"m48wjj"	"600"	"1366"	"chrome"	"109.0.0"	"FALSE"	"Windows 10"	"60.62"	"002"	n/a	n/a	n/a	n/a	n/a	n/a	"fixation"	n/a	n/a	n/a	n/a	"NULL"	n/a	"NULL"	"NULL"	"NULL"	"<p style=\"color: black; font-size: 80px; padding-left: 29%; padding-right: 9%; padding-top: 18%; padding-bottom: 34%\">+</p>"	"1351"	n/a	n/a	n/a	n/a	n/a	n/a	n/a	n/a	n/a
n/a	"image-keyboard-response"	"158"	"426202"	"0.0-5.0-2.0-1.52"	"m48wjj"	"600"	"1366"	"chrome"	"109.0.0"	"FALSE"	"Windows 10"	"60.62"	"002"	n/a	n/a	n/a	n/a	n/a	n/a	"Trial"	n/a	n/a	n/a	"483"	"arrowright"	n/a	"NULL"	"NULL"	"NULL"	"stimuli/VerticalHorizontal_-11.78571_-0.2250.png"	n/a	"VerticalHorizontal"	"arrowright"	"1362"	"TRUE"	"VerticalHorizontal"	"-11.78571000"	"-0.225000000"	"1"	"71"
n/a	"html-keyboard-response"	"159"	"427297"	"0.0-5.0-2.0-0.53"	"m48wjj"	"600"	"1366"	"chrome"	"109.0.0"	"FALSE"	"Windows 10"	"60.62"	"002"	n/a	n/a	n/a	n/a	n/a	n/a	"fixation"	n/a	n/a	n/a	n/a	"NULL"	n/a	"NULL"	"NULL"	"NULL"	"<p style=\"color: black; font-size: 80px; padding-left: 47%; padding-right: 7%; padding-top: 5%; padding-bottom: 17%\">+</p>"	"1076"	n/a	n/a	n/a	n/a	n/a	n/a	n/a	n/a	n/a
n/a	"image-keyboard-response"	"160"	"427963"	"0.0-5.0-2.0-1.53"	"m48wjj"	"600"	"1366"	"chrome"	"109.0.0"	"FALSE"	"Windows 10"	"60.62"	"002"	n/a	n/a	n/a	n/a	n/a	n/a	"Trial"	n/a	n/a	n/a	"665"	"arrowleft"	n/a	"NULL"	"NULL"	"NULL"	"stimuli/VerticalHorizontal_-20.27143_0.06730.png"	n/a	"VerticalHorizontal"	"arrowleft"	"1095"	"TRUE"	"VerticalHorizontal"	"-20.27143000"	"0.0673000000"	"1"	"72"
n/a	"html-keyboard-response"	"161"	"429378"	"0.0-5.0-2.0-0.54"	"m48wjj"	"600"	"1366"	"chrome"	"109.0.0"	"FALSE"	"Windows 10"	"60.62"	"002"	n/a	n/a	n/a	n/a	n/a	n/a	"fixation"	n/a	n/a	n/a	n/a	"NULL"	n/a	"NULL"	"NULL"	"NULL"	"<p style=\"color: black; font-size: 80px; padding-left: 3%; padding-right: 41%; padding-top: 8%; padding-bottom: 31%\">+</p>"	"1392"	n/a	n/a	n/a	n/a	n/a	n/a	n/a	n/a	n/a
n/a	"image-keyboard-response"	"162"	"429919"	"0.0-5.0-2.0-1.54"	"m48wjj"	"600"	"1366"	"chrome"	"109.0.0"	"FALSE"	"Windows 10"	"60.62"	"002"	n/a	n/a	n/a	n/a	n/a	n/a	"Trial"	n/a	n/a	n/a	"540"	"arrowleft"	n/a	"NULL"	"NULL"	"NULL"	"stimuli/VerticalHorizontal_20.27143_-0.0673.png"	n/a	"VerticalHorizontal"	"arrowright"	"1415"	"FALSE"	"VerticalHorizontal"	"20.271430000"	"-0.067300000"	"1"	"73"
n/a	"html-keyboard-response"	"163"	"431394"	"0.0-5.0-2.0-0.55"	"m48wjj"	"600"	"1366"	"chrome"	"109.0.0"	"FALSE"	"Windows 10"	"60.62"	"002"	n/a	n/a	n/a	n/a	n/a	n/a	"fixation"	n/a	n/a	n/a	n/a	"NULL"	n/a	"NULL"	"NULL"	"NULL"	"<p style=\"color: black; font-size: 80px; padding-left: 1%; padding-right: 9%; padding-top: 6%; padding-bottom: 41%\">+</p>"	"1462"	n/a	n/a	n/a	n/a	n/a	n/a	n/a	n/a	n/a
n/a	"image-keyboard-response"	"164"	"432002"	"0.0-5.0-2.0-1.55"	"m48wjj"	"600"	"1366"	"chrome"	"109.0.0"	"FALSE"	"Windows 10"	"60.62"	"002"	n/a	n/a	n/a	n/a	n/a	n/a	"Trial"	n/a	n/a	n/a	"607"	"arrowright"	n/a	"NULL"	"NULL"	"NULL"	"stimuli/VerticalHorizontal_3.30000_-0.16217.png"	n/a	"VerticalHorizontal"	"arrowright"	"1475"	"TRUE"	"VerticalHorizontal"	"3.3000000000"	"-0.162170000"	"1"	"74"
n/a	"html-keyboard-response"	"165"	"433309"	"0.0-5.0-2.0-0.56"	"m48wjj"	"600"	"1366"	"chrome"	"109.0.0"	"FALSE"	"Windows 10"	"60.62"	"002"	n/a	n/a	n/a	n/a	n/a	n/a	"fixation"	n/a	n/a	n/a	n/a	"NULL"	n/a	"NULL"	"NULL"	"NULL"	"<p style=\"color: black; font-size: 80px; padding-left: 27%; padding-right: 44%; padding-top: 26%; padding-bottom: 16%\">+</p>"	"1285"	n/a	n/a	n/a	n/a	n/a	n/a	n/a	n/a	n/a
n/a	"image-keyboard-response"	"166"	"434444"	"0.0-5.0-2.0-1.56"	"m48wjj"	"600"	"1366"	"chrome"	"109.0.0"	"FALSE"	"Windows 10"	"60.62"	"002"	n/a	n/a	n/a	n/a	n/a	n/a	"Trial"	n/a	n/a	n/a	"1132"	"arrowright"	n/a	"NULL"	"NULL"	"NULL"	"stimuli/VerticalHorizontal_20.27143_-0.16217.png"	n/a	"VerticalHorizontal"	"arrowright"	"1307"	"TRUE"	"VerticalHorizontal"	"20.271430000"	"-0.162170000"	"1"	"75"
n/a	"html-keyboard-response"	"167"	"435732"	"0.0-5.0-2.0-0.57"	"m48wjj"	"600"	"1366"	"chrome"	"109.0.0"	"FALSE"	"Windows 10"	"60.62"	"002"	n/a	n/a	n/a	n/a	n/a	n/a	"fixation"	n/a	n/a	n/a	n/a	"NULL"	n/a	"NULL"	"NULL"	"NULL"	"<p style=\"color: black; font-size: 80px; padding-left: 0%; padding-right: 25%; padding-top: 11%; padding-bottom: 47%\">+</p>"	"1272"	n/a	n/a	n/a	n/a	n/a	n/a	n/a	n/a	n/a
n/a	"image-keyboard-response"	"168"	"436351"	"0.0-5.0-2.0-1.57"	"m48wjj"	"600"	"1366"	"chrome"	"109.0.0"	"FALSE"	"Windows 10"	"60.62"	"002"	n/a	n/a	n/a	n/a	n/a	n/a	"Trial"	n/a	n/a	n/a	"615"	"arrowright"	n/a	"NULL"	"NULL"	"NULL"	"stimuli/VerticalHorizontal_-20.27143_-0.2250.png"	n/a	"VerticalHorizontal"	"arrowright"	"1288"	"TRUE"	"VerticalHorizontal"	"-20.27143000"	"-0.225000000"	"1"	"76"
n/a	"html-keyboard-response"	"169"	"437663"	"0.0-5.0-2.0-0.58"	"m48wjj"	"600"	"1366"	"chrome"	"109.0.0"	"FALSE"	"Windows 10"	"60.62"	"002"	n/a	n/a	n/a	n/a	n/a	n/a	"fixation"	n/a	n/a	n/a	n/a	"NULL"	n/a	"NULL"	"NULL"	"NULL"	"<p style=\"color: black; font-size: 80px; padding-left: 40%; padding-right: 0%; padding-top: 43%; padding-bottom: 44%\">+</p>"	"1301"	n/a	n/a	n/a	n/a	n/a	n/a	n/a	n/a	n/a
n/a	"image-keyboard-response"	"170"	"438055"	"0.0-5.0-2.0-1.58"	"m48wjj"	"600"	"1366"	"chrome"	"109.0.0"	"FALSE"	"Windows 10"	"60.62"	"002"	n/a	n/a	n/a	n/a	n/a	n/a	"Trial"	n/a	n/a	n/a	"391"	"arrowright"	n/a	"NULL"	"NULL"	"NULL"	"stimuli/VerticalHorizontal_-20.27143_-0.16217.png"	n/a	"VerticalHorizontal"	"arrowright"	"1312"	"TRUE"	"VerticalHorizontal"	"-20.27143000"	"-0.162170000"	"1"	"77"
n/a	"html-keyboard-response"	"171"	"439309"	"0.0-5.0-2.0-0.59"	"m48wjj"	"600"	"1366"	"chrome"	"109.0.0"	"FALSE"	"Windows 10"	"60.62"	"002"	n/a	n/a	n/a	n/a	n/a	n/a	"fixation"	n/a	n/a	n/a	n/a	"NULL"	n/a	"NULL"	"NULL"	"NULL"	"<p style=\"color: black; font-size: 80px; padding-left: 5%; padding-right: 11%; padding-top: 17%; padding-bottom: 30%\">+</p>"	"1244"	n/a	n/a	n/a	n/a	n/a	n/a	n/a	n/a	n/a
n/a	"image-keyboard-response"	"172"	"440299"	"0.0-5.0-2.0-1.59"	"m48wjj"	"600"	"1366"	"chrome"	"109.0.0"	"FALSE"	"Windows 10"	"60.62"	"002"	n/a	n/a	n/a	n/a	n/a	n/a	"Trial"	n/a	n/a	n/a	"984"	"arrowleft"	n/a	"NULL"	"NULL"	"NULL"	"stimuli/VerticalHorizontal_20.27143_0.10960.png"	n/a	"VerticalHorizontal"	"arrowleft"	"1254"	"TRUE"	"VerticalHorizontal"	"20.271430000"	"0.1096000000"	"1"	"78"
n/a	"html-keyboard-response"	"173"	"441500"	"0.0-5.0-2.0-0.60"	"m48wjj"	"600"	"1366"	"chrome"	"109.0.0"	"FALSE"	"Windows 10"	"60.62"	"002"	n/a	n/a	n/a	n/a	n/a	n/a	"fixation"	n/a	n/a	n/a	n/a	"NULL"	n/a	"NULL"	"NULL"	"NULL"	"<p style=\"color: black; font-size: 80px; padding-left: 47%; padding-right: 26%; padding-top: 4%; padding-bottom: 4%\">+</p>"	"1181"	n/a	n/a	n/a	n/a	n/a	n/a	n/a	n/a	n/a
n/a	"image-keyboard-response"	"174"	"442094"	"0.0-5.0-2.0-1.60"	"m48wjj"	"600"	"1366"	"chrome"	"109.0.0"	"FALSE"	"Windows 10"	"60.62"	"002"	n/a	n/a	n/a	n/a	n/a	n/a	"Trial"	n/a	n/a	n/a	"592"	"arrowright"	n/a	"NULL"	"NULL"	"NULL"	"stimuli/VerticalHorizontal_-28.75714_-0.1096.png"	n/a	"VerticalHorizontal"	"arrowright"	"1201"	"TRUE"	"VerticalHorizontal"	"-28.75714000"	"-0.109600000"	"1"	"79"
n/a	"html-keyboard-response"	"175"	"443493"	"0.0-5.0-2.0-0.61"	"m48wjj"	"600"	"1366"	"chrome"	"109.0.0"	"FALSE"	"Windows 10"	"60.62"	"002"	n/a	n/a	n/a	n/a	n/a	n/a	"fixation"	n/a	n/a	n/a	n/a	"NULL"	n/a	"NULL"	"NULL"	"NULL"	"<p style=\"color: black; font-size: 80px; padding-left: 21%; padding-right: 24%; padding-top: 29%; padding-bottom: 44%\">+</p>"	"1389"	n/a	n/a	n/a	n/a	n/a	n/a	n/a	n/a	n/a
n/a	"image-keyboard-response"	"176"	"444103"	"0.0-5.0-2.0-1.61"	"m48wjj"	"600"	"1366"	"chrome"	"109.0.0"	"FALSE"	"Windows 10"	"60.62"	"002"	n/a	n/a	n/a	n/a	n/a	n/a	"Trial"	n/a	n/a	n/a	"609"	"arrowleft"	n/a	"NULL"	"NULL"	"NULL"	"stimuli/VerticalHorizontal_-3.3000_0.06730.png"	n/a	"VerticalHorizontal"	"arrowleft"	"1399"	"TRUE"	"VerticalHorizontal"	"-3.300000000"	"0.0673000000"	"1"	"80"
n/a	"html-keyboard-response"	"177"	"445246"	"0.0-5.0-2.0-0.62"	"m48wjj"	"600"	"1366"	"chrome"	"109.0.0"	"FALSE"	"Windows 10"	"60.62"	"002"	n/a	n/a	n/a	n/a	n/a	n/a	"fixation"	n/a	n/a	n/a	n/a	"NULL"	n/a	"NULL"	"NULL"	"NULL"	"<p style=\"color: black; font-size: 80px; padding-left: 45%; padding-right: 25%; padding-top: 12%; padding-bottom: 17%\">+</p>"	"1127"	n/a	n/a	n/a	n/a	n/a	n/a	n/a	n/a	n/a
n/a	"image-keyboard-response"	"178"	"445876"	"0.0-5.0-2.0-1.62"	"m48wjj"	"600"	"1366"	"chrome"	"109.0.0"	"FALSE"	"Windows 10"	"60.62"	"002"	n/a	n/a	n/a	n/a	n/a	n/a	"Trial"	n/a	n/a	n/a	"629"	"arrowright"	n/a	"NULL"	"NULL"	"NULL"	"stimuli/VerticalHorizontal_-11.78571_-0.16217.png"	n/a	"VerticalHorizontal"	"arrowright"	"1143"	"TRUE"	"VerticalHorizontal"	"-11.78571000"	"-0.162170000"	"1"	"81"
n/a	"html-keyboard-response"	"179"	"447290"	"0.0-5.0-2.0-0.63"	"m48wjj"	"600"	"1366"	"chrome"	"109.0.0"	"FALSE"	"Windows 10"	"60.62"	"002"	n/a	n/a	n/a	n/a	n/a	n/a	"fixation"	n/a	n/a	n/a	n/a	"NULL"	n/a	"NULL"	"NULL"	"NULL"	"<p style=\"color: black; font-size: 80px; padding-left: 15%; padding-right: 47%; padding-top: 48%; padding-bottom: 32%\">+</p>"	"1398"	n/a	n/a	n/a	n/a	n/a	n/a	n/a	n/a	n/a
n/a	"image-keyboard-response"	"180"	"447857"	"0.0-5.0-2.0-1.63"	"m48wjj"	"600"	"1366"	"chrome"	"109.0.0"	"FALSE"	"Windows 10"	"60.62"	"002"	n/a	n/a	n/a	n/a	n/a	n/a	"Trial"	n/a	n/a	n/a	"565"	"arrowleft"	n/a	"NULL"	"NULL"	"NULL"	"stimuli/VerticalHorizontal_-3.3000_0.16217.png"	n/a	"VerticalHorizontal"	"arrowleft"	"1414"	"TRUE"	"VerticalHorizontal"	"-3.300000000"	"0.1621700000"	"1"	"82"
n/a	"html-button-response"	"181"	"452416"	"0.0-5.0-3.0"	"m48wjj"	"600"	"1366"	"chrome"	"109.0.0"	"FALSE"	"Windows 10"	"60.62"	"002"	n/a	n/a	n/a	n/a	n/a	n/a	"block_results"	n/a	n/a	n/a	"4553"	"0"	n/a	"NULL"	"NULL"	"NULL"	"<p>Your score for this illusion is <p style=\"color: black; font-size: 48px; font-weight: bold;\">73.2 %</p><hr><p>Can you do better in the next illusion?</p>"	n/a	n/a	n/a	n/a	n/a	n/a	n/a	n/a	n/a	n/a
"TRUE"	"preload"	"182"	"452606"	"0.0-6.0-0.0"	"m48wjj"	"600"	"1366"	"chrome"	"109.0.0"	"FALSE"	"Windows 10"	"60.62"	"002"	n/a	n/a	n/a	n/a	n/a	n/a	n/a	n/a	n/a	n/a	n/a	"NULL"	"FALSE"	"list()"	"list()"	"list()"	n/a	n/a	n/a	n/a	n/a	n/a	n/a	n/a	n/a	n/a	n/a
n/a	"html-keyboard-response"	"183"	"457736"	"0.0-6.0-1.0"	"m48wjj"	"600"	"1366"	"chrome"	"109.0.0"	"FALSE"	"Windows 10"	"60.62"	"002"	n/a	n/a	n/a	n/a	n/a	n/a	n/a	n/a	n/a	n/a	"5129"	"enter"	n/a	"NULL"	"NULL"	"NULL"	"<p><b>Part 2/6</b></p><p>In this part, two horizontal red lines will appear one above the other.</p><p>Your task is to select which <b>line is longer</b> in length as fast as you can, without making errors.</p><p>Don't get distracted by the surrounding black arrows at the end of the red lines!</p><p>Press <b>the UP or the DOWN arrow</b> to indicate where is the longer <b>red line.</b></p><div style='float: center'><img src='materials/instructions/MullerLyer_Demo.png' height='300'></img><p><img src='utils/answer/answer_updown_keyboard.PNG' height='150'></img></p><p class='small'>In this example, the correct answer is the <b>UP arrow</b>.</p></div><p>Are you ready? <b>Press ENTER to start</b></p>"	n/a	n/a	n/a	n/a	n/a	n/a	n/a	n/a	n/a	n/a
n/a	"html-keyboard-response"	"184"	"459303"	"0.0-6.0-2.0-0.0"	"m48wjj"	"600"	"1366"	"chrome"	"109.0.0"	"FALSE"	"Windows 10"	"60.62"	"002"	n/a	n/a	n/a	n/a	n/a	n/a	"fixation"	n/a	n/a	n/a	n/a	"NULL"	n/a	"NULL"	"NULL"	"NULL"	"<p style=\"color: black; font-size: 80px; padding-left: 14%; padding-right: 36%; padding-top: 17%; padding-bottom: 33%\">+</p>"	"1046"	n/a	n/a	n/a	n/a	n/a	n/a	n/a	n/a	n/a
n/a	"image-keyboard-response"	"185"	"461313"	"0.0-6.0-2.0-1.0"	"m48wjj"	"600"	"1366"	"chrome"	"109.0.0"	"FALSE"	"Windows 10"	"60.62"	"002"	n/a	n/a	n/a	n/a	n/a	n/a	"Trial"	n/a	n/a	n/a	"2008"	"arrowup"	n/a	"NULL"	"NULL"	"NULL"	"stimuli/MullerLyer_8.21429_0.35000.png"	n/a	"MullerLyer"	"arrowup"	"1567"	"TRUE"	"MullerLyer"	"8.2142900000"	"0.3500000000"	"2"	"1"
n/a	"html-keyboard-response"	"186"	"462447"	"0.0-6.0-2.0-0.1"	"m48wjj"	"600"	"1366"	"chrome"	"109.0.0"	"FALSE"	"Windows 10"	"60.62"	"002"	n/a	n/a	n/a	n/a	n/a	n/a	"fixation"	n/a	n/a	n/a	n/a	"NULL"	n/a	"NULL"	"NULL"	"NULL"	"<p style=\"color: black; font-size: 80px; padding-left: 44%; padding-right: 2%; padding-top: 15%; padding-bottom: 15%\">+</p>"	"1122"	n/a	n/a	n/a	n/a	n/a	n/a	n/a	n/a	n/a
n/a	"image-keyboard-response"	"187"	"463680"	"0.0-6.0-2.0-1.1"	"m48wjj"	"600"	"1366"	"chrome"	"109.0.0"	"FALSE"	"Windows 10"	"60.62"	"002"	n/a	n/a	n/a	n/a	n/a	n/a	"Trial"	n/a	n/a	n/a	"1230"	"arrowup"	n/a	"NULL"	"NULL"	"NULL"	"stimuli/MullerLyer_8.21429_0.23665.png"	n/a	"MullerLyer"	"arrowup"	"1134"	"TRUE"	"MullerLyer"	"8.2142900000"	"0.2366500000"	"2"	"2"
n/a	"html-keyboard-response"	"188"	"465140"	"0.0-6.0-2.0-0.2"	"m48wjj"	"600"	"1366"	"chrome"	"109.0.0"	"FALSE"	"Windows 10"	"60.62"	"002"	n/a	n/a	n/a	n/a	n/a	n/a	"fixation"	n/a	n/a	n/a	n/a	"NULL"	n/a	"NULL"	"NULL"	"NULL"	"<p style=\"color: black; font-size: 80px; padding-left: 3%; padding-right: 45%; padding-top: 49%; padding-bottom: 49%\">+</p>"	"1449"	n/a	n/a	n/a	n/a	n/a	n/a	n/a	n/a	n/a
n/a	"image-keyboard-response"	"189"	"465980"	"0.0-6.0-2.0-1.2"	"m48wjj"	"600"	"1366"	"chrome"	"109.0.0"	"FALSE"	"Windows 10"	"60.62"	"002"	n/a	n/a	n/a	n/a	n/a	n/a	"Trial"	n/a	n/a	n/a	"838"	"arrowup"	n/a	"NULL"	"NULL"	"NULL"	"stimuli/MullerLyer_-14.12857_0.14541.png"	n/a	"MullerLyer"	"arrowup"	"1460"	"TRUE"	"MullerLyer"	"-14.12857000"	"0.1454100000"	"2"	"3"
n/a	"html-keyboard-response"	"190"	"467457"	"0.0-6.0-2.0-0.3"	"m48wjj"	"600"	"1366"	"chrome"	"109.0.0"	"FALSE"	"Windows 10"	"60.62"	"002"	n/a	n/a	n/a	n/a	n/a	n/a	"fixation"	n/a	n/a	n/a	n/a	"NULL"	n/a	"NULL"	"NULL"	"NULL"	"<p style=\"color: black; font-size: 80px; padding-left: 16%; padding-right: 34%; padding-top: 33%; padding-bottom: 46%\">+</p>"	"1464"	n/a	n/a	n/a	n/a	n/a	n/a	n/a	n/a	n/a
n/a	"image-keyboard-response"	"191"	"469224"	"0.0-6.0-2.0-1.3"	"m48wjj"	"600"	"1366"	"chrome"	"109.0.0"	"FALSE"	"Windows 10"	"60.62"	"002"	n/a	n/a	n/a	n/a	n/a	n/a	"Trial"	n/a	n/a	n/a	"1767"	"arrowdown"	n/a	"NULL"	"NULL"	"NULL"	"stimuli/MullerLyer_8.21429_-0.23665.png"	n/a	"MullerLyer"	"arrowdown"	"1477"	"TRUE"	"MullerLyer"	"8.2142900000"	"-0.236650000"	"2"	"4"
n/a	"html-keyboard-response"	"192"	"470730"	"0.0-6.0-2.0-0.4"	"m48wjj"	"600"	"1366"	"chrome"	"109.0.0"	"FALSE"	"Windows 10"	"60.62"	"002"	n/a	n/a	n/a	n/a	n/a	n/a	"fixation"	n/a	n/a	n/a	n/a	"NULL"	n/a	"NULL"	"NULL"	"NULL"	"<p style=\"color: black; font-size: 80px; padding-left: 45%; padding-right: 34%; padding-top: 25%; padding-bottom: 26%\">+</p>"	"1484"	n/a	n/a	n/a	n/a	n/a	n/a	n/a	n/a	n/a
n/a	"image-keyboard-response"	"193"	"471329"	"0.0-6.0-2.0-1.4"	"m48wjj"	"600"	"1366"	"chrome"	"109.0.0"	"FALSE"	"Windows 10"	"60.62"	"002"	n/a	n/a	n/a	n/a	n/a	n/a	"Trial"	n/a	n/a	n/a	"598"	"arrowdown"	n/a	"NULL"	"NULL"	"NULL"	"stimuli/MullerLyer_-14.12857_-0.3500.png"	n/a	"MullerLyer"	"arrowdown"	"1506"	"TRUE"	"MullerLyer"	"-14.12857000"	"-0.350000000"	"2"	"5"
n/a	"html-keyboard-response"	"194"	"472842"	"0.0-6.0-2.0-0.5"	"m48wjj"	"600"	"1366"	"chrome"	"109.0.0"	"FALSE"	"Windows 10"	"60.62"	"002"	n/a	n/a	n/a	n/a	n/a	n/a	"fixation"	n/a	n/a	n/a	n/a	"NULL"	n/a	"NULL"	"NULL"	"NULL"	"<p style=\"color: black; font-size: 80px; padding-left: 41%; padding-right: 39%; padding-top: 49%; padding-bottom: 45%\">+</p>"	"1500"	n/a	n/a	n/a	n/a	n/a	n/a	n/a	n/a	n/a
n/a	"image-keyboard-response"	"195"	"473462"	"0.0-6.0-2.0-1.5"	"m48wjj"	"600"	"1366"	"chrome"	"109.0.0"	"FALSE"	"Windows 10"	"60.62"	"002"	n/a	n/a	n/a	n/a	n/a	n/a	"Trial"	n/a	n/a	n/a	"620"	"arrowup"	n/a	"NULL"	"NULL"	"NULL"	"stimuli/MullerLyer_8.21429_0.14541.png"	n/a	"MullerLyer"	"arrowup"	"1513"	"TRUE"	"MullerLyer"	"8.2142900000"	"0.1454100000"	"2"	"6"
n/a	"html-keyboard-response"	"196"	"474622"	"0.0-6.0-2.0-0.6"	"m48wjj"	"600"	"1366"	"chrome"	"109.0.0"	"FALSE"	"Windows 10"	"60.62"	"002"	n/a	n/a	n/a	n/a	n/a	n/a	"fixation"	n/a	n/a	n/a	n/a	"NULL"	n/a	"NULL"	"NULL"	"NULL"	"<p style=\"color: black; font-size: 80px; padding-left: 35%; padding-right: 3%; padding-top: 11%; padding-bottom: 18%\">+</p>"	"1146"	n/a	n/a	n/a	n/a	n/a	n/a	n/a	n/a	n/a
n/a	"image-keyboard-response"	"197"	"475408"	"0.0-6.0-2.0-1.6"	"m48wjj"	"600"	"1366"	"chrome"	"109.0.0"	"FALSE"	"Windows 10"	"60.62"	"002"	n/a	n/a	n/a	n/a	n/a	n/a	"Trial"	n/a	n/a	n/a	"785"	"arrowup"	n/a	"NULL"	"NULL"	"NULL"	"stimuli/MullerLyer_-8.21429_0.14541.png"	n/a	"MullerLyer"	"arrowup"	"1160"	"TRUE"	"MullerLyer"	"-8.214290000"	"0.1454100000"	"2"	"7"
n/a	"html-keyboard-response"	"198"	"476920"	"0.0-6.0-2.0-0.7"	"m48wjj"	"600"	"1366"	"chrome"	"109.0.0"	"FALSE"	"Windows 10"	"60.62"	"002"	n/a	n/a	n/a	n/a	n/a	n/a	"fixation"	n/a	n/a	n/a	n/a	"NULL"	n/a	"NULL"	"NULL"	"NULL"	"<p style=\"color: black; font-size: 80px; padding-left: 17%; padding-right: 26%; padding-top: 7%; padding-bottom: 8%\">+</p>"	"1496"	n/a	n/a	n/a	n/a	n/a	n/a	n/a	n/a	n/a
n/a	"image-keyboard-response"	"199"	"478945"	"0.0-6.0-2.0-1.7"	"m48wjj"	"600"	"1366"	"chrome"	"109.0.0"	"FALSE"	"Windows 10"	"60.62"	"002"	n/a	n/a	n/a	n/a	n/a	n/a	"Trial"	n/a	n/a	n/a	"2023"	"arrowup"	n/a	"NULL"	"NULL"	"NULL"	"stimuli/MullerLyer_20.04286_0.23665.png"	n/a	"MullerLyer"	"arrowup"	"1512"	"TRUE"	"MullerLyer"	"20.042860000"	"0.2366500000"	"2"	"8"
n/a	"html-keyboard-response"	"200"	"480036"	"0.0-6.0-2.0-0.8"	"m48wjj"	"600"	"1366"	"chrome"	"109.0.0"	"FALSE"	"Windows 10"	"60.62"	"002"	n/a	n/a	n/a	n/a	n/a	n/a	"fixation"	n/a	n/a	n/a	n/a	"NULL"	n/a	"NULL"	"NULL"	"NULL"	"<p style=\"color: black; font-size: 80px; padding-left: 29%; padding-right: 39%; padding-top: 44%; padding-bottom: 14%\">+</p>"	"1075"	n/a	n/a	n/a	n/a	n/a	n/a	n/a	n/a	n/a
n/a	"image-keyboard-response"	"201"	"480818"	"0.0-6.0-2.0-1.8"	"m48wjj"	"600"	"1366"	"chrome"	"109.0.0"	"FALSE"	"Windows 10"	"60.62"	"002"	n/a	n/a	n/a	n/a	n/a	n/a	"Trial"	n/a	n/a	n/a	"780"	"arrowup"	n/a	"NULL"	"NULL"	"NULL"	"stimuli/MullerLyer_-8.21429_0.07627.png"	n/a	"MullerLyer"	"arrowup"	"1091"	"TRUE"	"MullerLyer"	"-8.214290000"	"0.0762700000"	"2"	"9"
n/a	"html-keyboard-response"	"202"	"482249"	"0.0-6.0-2.0-0.9"	"m48wjj"	"600"	"1366"	"chrome"	"109.0.0"	"FALSE"	"Windows 10"	"60.62"	"002"	n/a	n/a	n/a	n/a	n/a	n/a	"fixation"	n/a	n/a	n/a	n/a	"NULL"	n/a	"NULL"	"NULL"	"NULL"	"<p style=\"color: black; font-size: 80px; padding-left: 38%; padding-right: 14%; padding-top: 47%; padding-bottom: 18%\">+</p>"	"1412"	n/a	n/a	n/a	n/a	n/a	n/a	n/a	n/a	n/a
n/a	"image-keyboard-response"	"203"	"482998"	"0.0-6.0-2.0-1.9"	"m48wjj"	"600"	"1366"	"chrome"	"109.0.0"	"FALSE"	"Windows 10"	"60.62"	"002"	n/a	n/a	n/a	n/a	n/a	n/a	"Trial"	n/a	n/a	n/a	"748"	"arrowdown"	n/a	"NULL"	"NULL"	"NULL"	"stimuli/MullerLyer_-14.12857_-0.23665.png"	n/a	"MullerLyer"	"arrowdown"	"1431"	"TRUE"	"MullerLyer"	"-14.12857000"	"-0.236650000"	"2"	"10"
n/a	"html-keyboard-response"	"204"	"484165"	"0.0-6.0-2.0-0.10"	"m48wjj"	"600"	"1366"	"chrome"	"109.0.0"	"FALSE"	"Windows 10"	"60.62"	"002"	n/a	n/a	n/a	n/a	n/a	n/a	"fixation"	n/a	n/a	n/a	n/a	"NULL"	n/a	"NULL"	"NULL"	"NULL"	"<p style=\"color: black; font-size: 80px; padding-left: 1%; padding-right: 37%; padding-top: 40%; padding-bottom: 16%\">+</p>"	"1148"	n/a	n/a	n/a	n/a	n/a	n/a	n/a	n/a	n/a
n/a	"image-keyboard-response"	"205"	"484806"	"0.0-6.0-2.0-1.10"	"m48wjj"	"600"	"1366"	"chrome"	"109.0.0"	"FALSE"	"Windows 10"	"60.62"	"002"	n/a	n/a	n/a	n/a	n/a	n/a	"Trial"	n/a	n/a	n/a	"639"	"arrowup"	n/a	"NULL"	"NULL"	"NULL"	"stimuli/MullerLyer_-14.12857_0.23665.png"	n/a	"MullerLyer"	"arrowup"	"1167"	"TRUE"	"MullerLyer"	"-14.12857000"	"0.2366500000"	"2"	"11"
n/a	"html-keyboard-response"	"206"	"486083"	"0.0-6.0-2.0-0.11"	"m48wjj"	"600"	"1366"	"chrome"	"109.0.0"	"FALSE"	"Windows 10"	"60.62"	"002"	n/a	n/a	n/a	n/a	n/a	n/a	"fixation"	n/a	n/a	n/a	n/a	"NULL"	n/a	"NULL"	"NULL"	"NULL"	"<p style=\"color: black; font-size: 80px; padding-left: 7%; padding-right: 34%; padding-top: 20%; padding-bottom: 23%\">+</p>"	"1263"	n/a	n/a	n/a	n/a	n/a	n/a	n/a	n/a	n/a
n/a	"image-keyboard-response"	"207"	"486970"	"0.0-6.0-2.0-1.11"	"m48wjj"	"600"	"1366"	"chrome"	"109.0.0"	"FALSE"	"Windows 10"	"60.62"	"002"	n/a	n/a	n/a	n/a	n/a	n/a	"Trial"	n/a	n/a	n/a	"884"	"arrowup"	n/a	"NULL"	"NULL"	"NULL"	"stimuli/MullerLyer_14.12857_-0.07627.png"	n/a	"MullerLyer"	"arrowdown"	"1277"	"FALSE"	"MullerLyer"	"14.128570000"	"-0.076270000"	"2"	"12"
n/a	"html-keyboard-response"	"208"	"488359"	"0.0-6.0-2.0-0.12"	"m48wjj"	"600"	"1366"	"chrome"	"109.0.0"	"FALSE"	"Windows 10"	"60.62"	"002"	n/a	n/a	n/a	n/a	n/a	n/a	"fixation"	n/a	n/a	n/a	n/a	"NULL"	n/a	"NULL"	"NULL"	"NULL"	"<p style=\"color: black; font-size: 80px; padding-left: 14%; padding-right: 14%; padding-top: 0%; padding-bottom: 47%\">+</p>"	"1382"	n/a	n/a	n/a	n/a	n/a	n/a	n/a	n/a	n/a
n/a	"image-keyboard-response"	"209"	"491054"	"0.0-6.0-2.0-1.12"	"m48wjj"	"600"	"1366"	"chrome"	"109.0.0"	"FALSE"	"Windows 10"	"60.62"	"002"	n/a	n/a	n/a	n/a	n/a	n/a	"Trial"	n/a	n/a	n/a	"2694"	"arrowup"	n/a	"NULL"	"NULL"	"NULL"	"stimuli/MullerLyer_20.04286_-0.14541.png"	n/a	"MullerLyer"	"arrowdown"	"1389"	"FALSE"	"MullerLyer"	"20.042860000"	"-0.145410000"	"2"	"13"
n/a	"html-keyboard-response"	"210"	"492292"	"0.0-6.0-2.0-0.13"	"m48wjj"	"600"	"1366"	"chrome"	"109.0.0"	"FALSE"	"Windows 10"	"60.62"	"002"	n/a	n/a	n/a	n/a	n/a	n/a	"fixation"	n/a	n/a	n/a	n/a	"NULL"	n/a	"NULL"	"NULL"	"NULL"	"<p style=\"color: black; font-size: 80px; padding-left: 44%; padding-right: 10%; padding-top: 40%; padding-bottom: 20%\">+</p>"	"1224"	n/a	n/a	n/a	n/a	n/a	n/a	n/a	n/a	n/a
n/a	"image-keyboard-response"	"211"	"493106"	"0.0-6.0-2.0-1.13"	"m48wjj"	"600"	"1366"	"chrome"	"109.0.0"	"FALSE"	"Windows 10"	"60.62"	"002"	n/a	n/a	n/a	n/a	n/a	n/a	"Trial"	n/a	n/a	n/a	"813"	"arrowdown"	n/a	"NULL"	"NULL"	"NULL"	"stimuli/MullerLyer_-20.04286_0.14541.png"	n/a	"MullerLyer"	"arrowup"	"1238"	"FALSE"	"MullerLyer"	"-20.04286000"	"0.1454100000"	"2"	"14"
n/a	"html-keyboard-response"	"212"	"494564"	"0.0-6.0-2.0-0.14"	"m48wjj"	"600"	"1366"	"chrome"	"109.0.0"	"FALSE"	"Windows 10"	"60.62"	"002"	n/a	n/a	n/a	n/a	n/a	n/a	"fixation"	n/a	n/a	n/a	n/a	"NULL"	n/a	"NULL"	"NULL"	"NULL"	"<p style=\"color: black; font-size: 80px; padding-left: 1%; padding-right: 29%; padding-top: 26%; padding-bottom: 29%\">+</p>"	"1439"	n/a	n/a	n/a	n/a	n/a	n/a	n/a	n/a	n/a
n/a	"image-keyboard-response"	"213"	"496043"	"0.0-6.0-2.0-1.14"	"m48wjj"	"600"	"1366"	"chrome"	"109.0.0"	"FALSE"	"Windows 10"	"60.62"	"002"	n/a	n/a	n/a	n/a	n/a	n/a	"Trial"	n/a	n/a	n/a	"1475"	"arrowup"	n/a	"NULL"	"NULL"	"NULL"	"stimuli/MullerLyer_8.21429_-0.07627.png"	n/a	"MullerLyer"	"arrowdown"	"1458"	"FALSE"	"MullerLyer"	"8.2142900000"	"-0.076270000"	"2"	"15"
n/a	"html-keyboard-response"	"214"	"497171"	"0.0-6.0-2.0-0.15"	"m48wjj"	"600"	"1366"	"chrome"	"109.0.0"	"FALSE"	"Windows 10"	"60.62"	"002"	n/a	n/a	n/a	n/a	n/a	n/a	"fixation"	n/a	n/a	n/a	n/a	"NULL"	n/a	"NULL"	"NULL"	"NULL"	"<p style=\"color: black; font-size: 80px; padding-left: 32%; padding-right: 29%; padding-top: 19%; padding-bottom: 17%\">+</p>"	"1109"	n/a	n/a	n/a	n/a	n/a	n/a	n/a	n/a	n/a
n/a	"image-keyboard-response"	"215"	"498109"	"0.0-6.0-2.0-1.15"	"m48wjj"	"600"	"1366"	"chrome"	"109.0.0"	"FALSE"	"Windows 10"	"60.62"	"002"	n/a	n/a	n/a	n/a	n/a	n/a	"Trial"	n/a	n/a	n/a	"935"	"arrowdown"	n/a	"NULL"	"NULL"	"NULL"	"stimuli/MullerLyer_20.04286_0.14541.png"	n/a	"MullerLyer"	"arrowup"	"1128"	"FALSE"	"MullerLyer"	"20.042860000"	"0.1454100000"	"2"	"16"
n/a	"html-keyboard-response"	"216"	"499504"	"0.0-6.0-2.0-0.16"	"m48wjj"	"600"	"1366"	"chrome"	"109.0.0"	"FALSE"	"Windows 10"	"60.62"	"002"	n/a	n/a	n/a	n/a	n/a	n/a	"fixation"	n/a	n/a	n/a	n/a	"NULL"	n/a	"NULL"	"NULL"	"NULL"	"<p style=\"color: black; font-size: 80px; padding-left: 10%; padding-right: 21%; padding-top: 39%; padding-bottom: 5%\">+</p>"	"1381"	n/a	n/a	n/a	n/a	n/a	n/a	n/a	n/a	n/a
n/a	"image-keyboard-response"	"217"	"502351"	"0.0-6.0-2.0-1.16"	"m48wjj"	"600"	"1366"	"chrome"	"109.0.0"	"FALSE"	"Windows 10"	"60.62"	"002"	n/a	n/a	n/a	n/a	n/a	n/a	"Trial"	n/a	n/a	n/a	"2846"	"arrowup"	n/a	"NULL"	"NULL"	"NULL"	"stimuli/MullerLyer_2.30000_0.07627.png"	n/a	"MullerLyer"	"arrowup"	"1395"	"TRUE"	"MullerLyer"	"2.3000000000"	"0.0762700000"	"2"	"17"
n/a	"html-keyboard-response"	"218"	"503423"	"0.0-6.0-2.0-0.17"	"m48wjj"	"600"	"1366"	"chrome"	"109.0.0"	"FALSE"	"Windows 10"	"60.62"	"002"	n/a	n/a	n/a	n/a	n/a	n/a	"fixation"	n/a	n/a	n/a	n/a	"NULL"	n/a	"NULL"	"NULL"	"NULL"	"<p style=\"color: black; font-size: 80px; padding-left: 26%; padding-right: 8%; padding-top: 48%; padding-bottom: 36%\">+</p>"	"1058"	n/a	n/a	n/a	n/a	n/a	n/a	n/a	n/a	n/a
n/a	"image-keyboard-response"	"219"	"504225"	"0.0-6.0-2.0-1.17"	"m48wjj"	"600"	"1366"	"chrome"	"109.0.0"	"FALSE"	"Windows 10"	"60.62"	"002"	n/a	n/a	n/a	n/a	n/a	n/a	"Trial"	n/a	n/a	n/a	"800"	"arrowdown"	n/a	"NULL"	"NULL"	"NULL"	"stimuli/MullerLyer_-20.04286_-0.07627.png"	n/a	"MullerLyer"	"arrowdown"	"1072"	"TRUE"	"MullerLyer"	"-20.04286000"	"-0.076270000"	"2"	"18"
n/a	"html-keyboard-response"	"220"	"505472"	"0.0-6.0-2.0-0.18"	"m48wjj"	"600"	"1366"	"chrome"	"109.0.0"	"FALSE"	"Windows 10"	"60.62"	"002"	n/a	n/a	n/a	n/a	n/a	n/a	"fixation"	n/a	n/a	n/a	n/a	"NULL"	n/a	"NULL"	"NULL"	"NULL"	"<p style=\"color: black; font-size: 80px; padding-left: 33%; padding-right: 16%; padding-top: 46%; padding-bottom: 34%\">+</p>"	"1240"	n/a	n/a	n/a	n/a	n/a	n/a	n/a	n/a	n/a
n/a	"image-keyboard-response"	"221"	"506053"	"0.0-6.0-2.0-1.18"	"m48wjj"	"600"	"1366"	"chrome"	"109.0.0"	"FALSE"	"Windows 10"	"60.62"	"002"	n/a	n/a	n/a	n/a	n/a	n/a	"Trial"	n/a	n/a	n/a	"577"	"arrowup"	n/a	"NULL"	"NULL"	"NULL"	"stimuli/MullerLyer_-8.21429_0.35000.png"	n/a	"MullerLyer"	"arrowup"	"1247"	"TRUE"	"MullerLyer"	"-8.214290000"	"0.3500000000"	"2"	"19"
n/a	"html-keyboard-response"	"222"	"507465"	"0.0-6.0-2.0-0.19"	"m48wjj"	"600"	"1366"	"chrome"	"109.0.0"	"FALSE"	"Windows 10"	"60.62"	"002"	n/a	n/a	n/a	n/a	n/a	n/a	"fixation"	n/a	n/a	n/a	n/a	"NULL"	n/a	"NULL"	"NULL"	"NULL"	"<p style=\"color: black; font-size: 80px; padding-left: 2%; padding-right: 29%; padding-top: 5%; padding-bottom: 46%\">+</p>"	"1397"	n/a	n/a	n/a	n/a	n/a	n/a	n/a	n/a	n/a
n/a	"image-keyboard-response"	"223"	"508045"	"0.0-6.0-2.0-1.19"	"m48wjj"	"600"	"1366"	"chrome"	"109.0.0"	"FALSE"	"Windows 10"	"60.62"	"002"	n/a	n/a	n/a	n/a	n/a	n/a	"Trial"	n/a	n/a	n/a	"577"	"arrowup"	n/a	"NULL"	"NULL"	"NULL"	"stimuli/MullerLyer_-14.12857_0.07627.png"	n/a	"MullerLyer"	"arrowup"	"1412"	"TRUE"	"MullerLyer"	"-14.12857000"	"0.0762700000"	"2"	"20"
n/a	"html-keyboard-response"	"224"	"509082"	"0.0-6.0-2.0-0.20"	"m48wjj"	"600"	"1366"	"chrome"	"109.0.0"	"FALSE"	"Windows 10"	"60.62"	"002"	n/a	n/a	n/a	n/a	n/a	n/a	"fixation"	n/a	n/a	n/a	n/a	"NULL"	n/a	"NULL"	"NULL"	"NULL"	"<p style=\"color: black; font-size: 80px; padding-left: 10%; padding-right: 30%; padding-top: 37%; padding-bottom: 48%\">+</p>"	"1021"	n/a	n/a	n/a	n/a	n/a	n/a	n/a	n/a	n/a
n/a	"image-keyboard-response"	"225"	"509781"	"0.0-6.0-2.0-1.20"	"m48wjj"	"600"	"1366"	"chrome"	"109.0.0"	"FALSE"	"Windows 10"	"60.62"	"002"	n/a	n/a	n/a	n/a	n/a	n/a	"Trial"	n/a	n/a	n/a	"695"	"arrowdown"	n/a	"NULL"	"NULL"	"NULL"	"stimuli/MullerLyer_2.30000_-0.23665.png"	n/a	"MullerLyer"	"arrowdown"	"1037"	"TRUE"	"MullerLyer"	"2.3000000000"	"-0.236650000"	"2"	"21"
n/a	"html-keyboard-response"	"226"	"511227"	"0.0-6.0-2.0-0.21"	"m48wjj"	"600"	"1366"	"chrome"	"109.0.0"	"FALSE"	"Windows 10"	"60.62"	"002"	n/a	n/a	n/a	n/a	n/a	n/a	"fixation"	n/a	n/a	n/a	n/a	"NULL"	n/a	"NULL"	"NULL"	"NULL"	"<p style=\"color: black; font-size: 80px; padding-left: 8%; padding-right: 17%; padding-top: 22%; padding-bottom: 47%\">+</p>"	"1427"	n/a	n/a	n/a	n/a	n/a	n/a	n/a	n/a	n/a
n/a	"image-keyboard-response"	"227"	"511740"	"0.0-6.0-2.0-1.21"	"m48wjj"	"600"	"1366"	"chrome"	"109.0.0"	"FALSE"	"Windows 10"	"60.62"	"002"	n/a	n/a	n/a	n/a	n/a	n/a	"Trial"	n/a	n/a	n/a	"512"	"arrowdown"	n/a	"NULL"	"NULL"	"NULL"	"stimuli/MullerLyer_2.30000_-0.14541.png"	n/a	"MullerLyer"	"arrowdown"	"1446"	"TRUE"	"MullerLyer"	"2.3000000000"	"-0.145410000"	"2"	"22"
n/a	"html-keyboard-response"	"228"	"512798"	"0.0-6.0-2.0-0.22"	"m48wjj"	"600"	"1366"	"chrome"	"109.0.0"	"FALSE"	"Windows 10"	"60.62"	"002"	n/a	n/a	n/a	n/a	n/a	n/a	"fixation"	n/a	n/a	n/a	n/a	"NULL"	n/a	"NULL"	"NULL"	"NULL"	"<p style=\"color: black; font-size: 80px; padding-left: 45%; padding-right: 19%; padding-top: 46%; padding-bottom: 29%\">+</p>"	"1040"	n/a	n/a	n/a	n/a	n/a	n/a	n/a	n/a	n/a
n/a	"image-keyboard-response"	"229"	"513308"	"0.0-6.0-2.0-1.22"	"m48wjj"	"600"	"1366"	"chrome"	"109.0.0"	"FALSE"	"Windows 10"	"60.62"	"002"	n/a	n/a	n/a	n/a	n/a	n/a	"Trial"	n/a	n/a	n/a	"509"	"arrowup"	n/a	"NULL"	"NULL"	"NULL"	"stimuli/MullerLyer_-8.21429_0.23665.png"	n/a	"MullerLyer"	"arrowup"	"1058"	"TRUE"	"MullerLyer"	"-8.214290000"	"0.2366500000"	"2"	"23"
n/a	"html-keyboard-response"	"230"	"514406"	"0.0-6.0-2.0-0.23"	"m48wjj"	"600"	"1366"	"chrome"	"109.0.0"	"FALSE"	"Windows 10"	"60.62"	"002"	n/a	n/a	n/a	n/a	n/a	n/a	"fixation"	n/a	n/a	n/a	n/a	"NULL"	n/a	"NULL"	"NULL"	"NULL"	"<p style=\"color: black; font-size: 80px; padding-left: 8%; padding-right: 32%; padding-top: 10%; padding-bottom: 24%\">+</p>"	"1087"	n/a	n/a	n/a	n/a	n/a	n/a	n/a	n/a	n/a
n/a	"image-keyboard-response"	"231"	"514855"	"0.0-6.0-2.0-1.23"	"m48wjj"	"600"	"1366"	"chrome"	"109.0.0"	"FALSE"	"Windows 10"	"60.62"	"002"	n/a	n/a	n/a	n/a	n/a	n/a	"Trial"	n/a	n/a	n/a	"449"	"arrowup"	n/a	"NULL"	"NULL"	"NULL"	"stimuli/MullerLyer_2.30000_0.14541.png"	n/a	"MullerLyer"	"arrowup"	"1098"	"TRUE"	"MullerLyer"	"2.3000000000"	"0.1454100000"	"2"	"24"
n/a	"html-keyboard-response"	"232"	"516258"	"0.0-6.0-2.0-0.24"	"m48wjj"	"600"	"1366"	"chrome"	"109.0.0"	"FALSE"	"Windows 10"	"60.62"	"002"	n/a	n/a	n/a	n/a	n/a	n/a	"fixation"	n/a	n/a	n/a	n/a	"NULL"	n/a	"NULL"	"NULL"	"NULL"	"<p style=\"color: black; font-size: 80px; padding-left: 29%; padding-right: 39%; padding-top: 24%; padding-bottom: 21%\">+</p>"	"1388"	n/a	n/a	n/a	n/a	n/a	n/a	n/a	n/a	n/a
n/a	"image-keyboard-response"	"233"	"517070"	"0.0-6.0-2.0-1.24"	"m48wjj"	"600"	"1366"	"chrome"	"109.0.0"	"FALSE"	"Windows 10"	"60.62"	"002"	n/a	n/a	n/a	n/a	n/a	n/a	"Trial"	n/a	n/a	n/a	"811"	"arrowdown"	n/a	"NULL"	"NULL"	"NULL"	"stimuli/MullerLyer_14.12857_-0.23665.png"	n/a	"MullerLyer"	"arrowdown"	"1403"	"TRUE"	"MullerLyer"	"14.128570000"	"-0.236650000"	"2"	"25"
n/a	"html-keyboard-response"	"234"	"518404"	"0.0-6.0-2.0-0.25"	"m48wjj"	"600"	"1366"	"chrome"	"109.0.0"	"FALSE"	"Windows 10"	"60.62"	"002"	n/a	n/a	n/a	n/a	n/a	n/a	"fixation"	n/a	n/a	n/a	n/a	"NULL"	n/a	"NULL"	"NULL"	"NULL"	"<p style=\"color: black; font-size: 80px; padding-left: 8%; padding-right: 44%; padding-top: 1%; padding-bottom: 37%\">+</p>"	"1322"	n/a	n/a	n/a	n/a	n/a	n/a	n/a	n/a	n/a
n/a	"image-keyboard-response"	"235"	"518931"	"0.0-6.0-2.0-1.25"	"m48wjj"	"600"	"1366"	"chrome"	"109.0.0"	"FALSE"	"Windows 10"	"60.62"	"002"	n/a	n/a	n/a	n/a	n/a	n/a	"Trial"	n/a	n/a	n/a	"526"	"arrowup"	n/a	"NULL"	"NULL"	"NULL"	"stimuli/MullerLyer_20.04286_0.35000.png"	n/a	"MullerLyer"	"arrowup"	"1334"	"TRUE"	"MullerLyer"	"20.042860000"	"0.3500000000"	"2"	"26"
n/a	"html-keyboard-response"	"236"	"520011"	"0.0-6.0-2.0-0.26"	"m48wjj"	"600"	"1366"	"chrome"	"109.0.0"	"FALSE"	"Windows 10"	"60.62"	"002"	n/a	n/a	n/a	n/a	n/a	n/a	"fixation"	n/a	n/a	n/a	n/a	"NULL"	n/a	"NULL"	"NULL"	"NULL"	"<p style=\"color: black; font-size: 80px; padding-left: 28%; padding-right: 14%; padding-top: 49%; padding-bottom: 6%\">+</p>"	"1066"	n/a	n/a	n/a	n/a	n/a	n/a	n/a	n/a	n/a
n/a	"image-keyboard-response"	"237"	"520698"	"0.0-6.0-2.0-1.26"	"m48wjj"	"600"	"1366"	"chrome"	"109.0.0"	"FALSE"	"Windows 10"	"60.62"	"002"	n/a	n/a	n/a	n/a	n/a	n/a	"Trial"	n/a	n/a	n/a	"685"	"arrowup"	n/a	"NULL"	"NULL"	"NULL"	"stimuli/MullerLyer_-14.12857_0.35000.png"	n/a	"MullerLyer"	"arrowup"	"1080"	"TRUE"	"MullerLyer"	"-14.12857000"	"0.3500000000"	"2"	"27"
n/a	"html-keyboard-response"	"238"	"522192"	"0.0-6.0-2.0-0.27"	"m48wjj"	"600"	"1366"	"chrome"	"109.0.0"	"FALSE"	"Windows 10"	"60.62"	"002"	n/a	n/a	n/a	n/a	n/a	n/a	"fixation"	n/a	n/a	n/a	n/a	"NULL"	n/a	"NULL"	"NULL"	"NULL"	"<p style=\"color: black; font-size: 80px; padding-left: 26%; padding-right: 35%; padding-top: 31%; padding-bottom: 22%\">+</p>"	"1483"	n/a	n/a	n/a	n/a	n/a	n/a	n/a	n/a	n/a
n/a	"image-keyboard-response"	"239"	"522874"	"0.0-6.0-2.0-1.27"	"m48wjj"	"600"	"1366"	"chrome"	"109.0.0"	"FALSE"	"Windows 10"	"60.62"	"002"	n/a	n/a	n/a	n/a	n/a	n/a	"Trial"	n/a	n/a	n/a	"681"	"arrowdown"	n/a	"NULL"	"NULL"	"NULL"	"stimuli/MullerLyer_-8.21429_-0.3500.png"	n/a	"MullerLyer"	"arrowdown"	"1494"	"TRUE"	"MullerLyer"	"-8.214290000"	"-0.350000000"	"2"	"28"
n/a	"html-keyboard-response"	"240"	"524153"	"0.0-6.0-2.0-0.28"	"m48wjj"	"600"	"1366"	"chrome"	"109.0.0"	"FALSE"	"Windows 10"	"60.62"	"002"	n/a	n/a	n/a	n/a	n/a	n/a	"fixation"	n/a	n/a	n/a	n/a	"NULL"	n/a	"NULL"	"NULL"	"NULL"	"<p style=\"color: black; font-size: 80px; padding-left: 29%; padding-right: 14%; padding-top: 16%; padding-bottom: 36%\">+</p>"	"1262"	n/a	n/a	n/a	n/a	n/a	n/a	n/a	n/a	n/a
n/a	"image-keyboard-response"	"241"	"524649"	"0.0-6.0-2.0-1.28"	"m48wjj"	"600"	"1366"	"chrome"	"109.0.0"	"FALSE"	"Windows 10"	"60.62"	"002"	n/a	n/a	n/a	n/a	n/a	n/a	"Trial"	n/a	n/a	n/a	"495"	"arrowdown"	n/a	"NULL"	"NULL"	"NULL"	"stimuli/MullerLyer_-20.04286_-0.23665.png"	n/a	"MullerLyer"	"arrowdown"	"1279"	"TRUE"	"MullerLyer"	"-20.04286000"	"-0.236650000"	"2"	"29"
n/a	"html-keyboard-response"	"242"	"526095"	"0.0-6.0-2.0-0.29"	"m48wjj"	"600"	"1366"	"chrome"	"109.0.0"	"FALSE"	"Windows 10"	"60.62"	"002"	n/a	n/a	n/a	n/a	n/a	n/a	"fixation"	n/a	n/a	n/a	n/a	"NULL"	n/a	"NULL"	"NULL"	"NULL"	"<p style=\"color: black; font-size: 80px; padding-left: 16%; padding-right: 1%; padding-top: 37%; padding-bottom: 29%\">+</p>"	"1435"	n/a	n/a	n/a	n/a	n/a	n/a	n/a	n/a	n/a
n/a	"image-keyboard-response"	"243"	"527247"	"0.0-6.0-2.0-1.29"	"m48wjj"	"600"	"1366"	"chrome"	"109.0.0"	"FALSE"	"Windows 10"	"60.62"	"002"	n/a	n/a	n/a	n/a	n/a	n/a	"Trial"	n/a	n/a	n/a	"1151"	"arrowdown"	n/a	"NULL"	"NULL"	"NULL"	"stimuli/MullerLyer_-2.3000_-0.07627.png"	n/a	"MullerLyer"	"arrowdown"	"1446"	"TRUE"	"MullerLyer"	"-2.300000000"	"-0.076270000"	"2"	"30"
n/a	"html-keyboard-response"	"244"	"528744"	"0.0-6.0-2.0-0.30"	"m48wjj"	"600"	"1366"	"chrome"	"109.0.0"	"FALSE"	"Windows 10"	"60.62"	"002"	n/a	n/a	n/a	n/a	n/a	n/a	"fixation"	n/a	n/a	n/a	n/a	"NULL"	n/a	"NULL"	"NULL"	"NULL"	"<p style=\"color: black; font-size: 80px; padding-left: 46%; padding-right: 27%; padding-top: 41%; padding-bottom: 8%\">+</p>"	"1480"	n/a	n/a	n/a	n/a	n/a	n/a	n/a	n/a	n/a
n/a	"image-keyboard-response"	"245"	"530091"	"0.0-6.0-2.0-1.30"	"m48wjj"	"600"	"1366"	"chrome"	"109.0.0"	"FALSE"	"Windows 10"	"60.62"	"002"	n/a	n/a	n/a	n/a	n/a	n/a	"Trial"	n/a	n/a	n/a	"1346"	"arrowup"	n/a	"NULL"	"NULL"	"NULL"	"stimuli/MullerLyer_14.12857_0.23665.png"	n/a	"MullerLyer"	"arrowup"	"1497"	"TRUE"	"MullerLyer"	"14.128570000"	"0.2366500000"	"2"	"31"
n/a	"html-keyboard-response"	"246"	"531504"	"0.0-6.0-2.0-0.31"	"m48wjj"	"600"	"1366"	"chrome"	"109.0.0"	"FALSE"	"Windows 10"	"60.62"	"002"	n/a	n/a	n/a	n/a	n/a	n/a	"fixation"	n/a	n/a	n/a	n/a	"NULL"	n/a	"NULL"	"NULL"	"NULL"	"<p style=\"color: black; font-size: 80px; padding-left: 33%; padding-right: 13%; padding-top: 3%; padding-bottom: 13%\">+</p>"	"1395"	n/a	n/a	n/a	n/a	n/a	n/a	n/a	n/a	n/a
n/a	"image-keyboard-response"	"247"	"532043"	"0.0-6.0-2.0-1.31"	"m48wjj"	"600"	"1366"	"chrome"	"109.0.0"	"FALSE"	"Windows 10"	"60.62"	"002"	n/a	n/a	n/a	n/a	n/a	n/a	"Trial"	n/a	n/a	n/a	"538"	"arrowup"	n/a	"NULL"	"NULL"	"NULL"	"stimuli/MullerLyer_-2.3000_0.35000.png"	n/a	"MullerLyer"	"arrowup"	"1413"	"TRUE"	"MullerLyer"	"-2.300000000"	"0.3500000000"	"2"	"32"
n/a	"html-keyboard-response"	"248"	"533210"	"0.0-6.0-2.0-0.32"	"m48wjj"	"600"	"1366"	"chrome"	"109.0.0"	"FALSE"	"Windows 10"	"60.62"	"002"	n/a	n/a	n/a	n/a	n/a	n/a	"fixation"	n/a	n/a	n/a	n/a	"NULL"	n/a	"NULL"	"NULL"	"NULL"	"<p style=\"color: black; font-size: 80px; padding-left: 44%; padding-right: 19%; padding-top: 41%; padding-bottom: 20%\">+</p>"	"1154"	n/a	n/a	n/a	n/a	n/a	n/a	n/a	n/a	n/a
