"success"	"trial_type"	"trial_index"	"time_elapsed"	"internal_node_id"	"participant_id"	"screen_height"	"screen_width"	"browser"	"browser_version"	"mobile"	"os"	"vsync_rate"	"subject_id"	"width"	"height"	"webaudio"	"fullscreen"	"webcam"	"microphone"	"screen"	"version"	"date"	"time"	"rt"	"response"	"timeout"	"failed_images"	"failed_audio"	"failed_video"	"stimulus"	"trial_duration"	"block"	"correct_response"	"prestimulus_duration"	"correct"	"type"	"illusion_strength"	"illusion_difference"	"block_number"	"trial_number"
"TRUE"	"fullscreen"	"0"	"8709637"	"0.0-0.0"	"40clyh"	"600"	"1024"	"chrome"	"109.0.0"	"FALSE"	"Windows 10"	"60.4"	"018"	n/a	n/a	n/a	n/a	n/a	n/a	n/a	n/a	n/a	n/a	n/a	"NULL"	n/a	"NULL"	"NULL"	"NULL"	n/a	n/a	n/a	n/a	n/a	n/a	n/a	n/a	n/a	n/a	n/a
n/a	"browser-check"	"1"	"8710650"	"0.0-1.0"	"40clyh"	"600"	"1024"	"chrome"	"109.0.0"	"FALSE"	"Windows 10"	"60.4"	"018"	"1024"	"600"	"TRUE"	"TRUE"	"TRUE"	"TRUE"	"browser_info"	"1.0"	"16/02/2023"	"08:43:42"	n/a	"NULL"	n/a	"NULL"	"NULL"	"NULL"	n/a	n/a	n/a	n/a	n/a	n/a	n/a	n/a	n/a	n/a	n/a
n/a	"survey-text"	"2"	"8716121"	"0.0-2.0"	"40clyh"	"600"	"1024"	"chrome"	"109.0.0"	"FALSE"	"Windows 10"	"60.4"	"018"	n/a	n/a	n/a	n/a	n/a	n/a	"subject_id"	n/a	n/a	n/a	"5460"	"list(subject_id = \"018\")"	n/a	"NULL"	"NULL"	"NULL"	n/a	n/a	n/a	n/a	n/a	n/a	n/a	n/a	n/a	n/a	n/a
"TRUE"	"preload"	"3"	"8716142"	"0.0-3.0"	"40clyh"	"600"	"1024"	"chrome"	"109.0.0"	"FALSE"	"Windows 10"	"60.4"	"018"	n/a	n/a	n/a	n/a	n/a	n/a	n/a	n/a	n/a	n/a	n/a	"NULL"	"FALSE"	"list()"	"list()"	"list()"	n/a	n/a	n/a	n/a	n/a	n/a	n/a	n/a	n/a	n/a	n/a
n/a	"html-button-response"	"4"	"8782197"	"0.0-4.0-0.0"	"40clyh"	"600"	"1024"	"chrome"	"109.0.0"	"FALSE"	"Windows 10"	"60.4"	"018"	n/a	n/a	n/a	n/a	n/a	n/a	"illusion_instructions"	n/a	n/a	n/a	"66053"	"0"	n/a	"NULL"	"NULL"	"NULL"	"<p><b>Illusion Game</b></p><p>In this game of speed and reflex, you will need to make <b>visual judgments</b> (for instance, which circle is the biggest, or which line is the longest), as fast and as correctly as possible, while <b>resisting different visual illusions</b>.</p><p>We are going to start with some examples of all the illusions you will encounter in the game.</p>"	n/a	n/a	n/a	n/a	n/a	n/a	n/a	n/a	n/a	n/a
"TRUE"	"preload"	"5"	"8782223"	"0.0-4.0-1.0-0.0"	"40clyh"	"600"	"1024"	"chrome"	"109.0.0"	"FALSE"	"Windows 10"	"60.4"	"018"	n/a	n/a	n/a	n/a	n/a	n/a	n/a	n/a	n/a	n/a	n/a	"NULL"	"FALSE"	"list()"	"list()"	"list()"	n/a	n/a	n/a	n/a	n/a	n/a	n/a	n/a	n/a	n/a	n/a
n/a	"html-keyboard-response"	"6"	"8793074"	"0.0-4.0-1.0-1.0"	"40clyh"	"600"	"1024"	"chrome"	"109.0.0"	"FALSE"	"Windows 10"	"60.4"	"018"	n/a	n/a	n/a	n/a	n/a	n/a	n/a	n/a	n/a	n/a	"10849"	"enter"	n/a	"NULL"	"NULL"	"NULL"	"<p><b>Practice</b></p><p>In this part, two red circles will appear side by side on the screen.</p><p>Your task is to select which <b>red circle is bigger</b> in size as fast as you can, without making errors.</p><p>Don't get distracted by the surrounding black circles around the red circles!</p><p>Press <b>the LEFT or the RIGHT arrow</b> to indicate which is the bigger <b>red circle.</b></p><div style='float: center'><img src='materials/instructions/Ebbinghaus_Demo.png' height='300'></img><p><img src='utils/answer/answer_leftright_keyboard.PNG' height='150'></img></p><p class='small'>In this example, the correct answer is the <b>LEFT arrow</b>.</p></div><p>Are you ready? <b>Press ENTER to start</b></p>"	n/a	n/a	n/a	n/a	n/a	n/a	n/a	n/a	n/a	n/a
n/a	"html-keyboard-response"	"7"	"8794932"	"0.0-4.0-1.0-2.0-0.0"	"40clyh"	"600"	"1024"	"chrome"	"109.0.0"	"FALSE"	"Windows 10"	"60.4"	"018"	n/a	n/a	n/a	n/a	n/a	n/a	"fixation"	n/a	n/a	n/a	n/a	"NULL"	n/a	"NULL"	"NULL"	"NULL"	"<p style=\"color: black; font-size: 80px; padding-left: 0%; padding-right: 44%; padding-top: 43%; padding-bottom: 31%\">+</p>"	"1322"	n/a	n/a	n/a	n/a	n/a	n/a	n/a	n/a	n/a
n/a	"image-keyboard-response"	"8"	"8795596"	"0.0-4.0-1.0-2.0-1.0"	"40clyh"	"600"	"1024"	"chrome"	"109.0.0"	"FALSE"	"Windows 10"	"60.4"	"018"	n/a	n/a	n/a	n/a	n/a	n/a	"Trial"	n/a	n/a	n/a	"661"	"arrowright"	n/a	"NULL"	"NULL"	"NULL"	"stimuli/Ebbinghaus_-100000_-1.4000.png"	n/a	"Ebbinghaus"	"arrowright"	"1858"	"TRUE"	"Ebbinghaus"	"-10000000000"	"-1.400000000"	"1"	"1"
n/a	"html-keyboard-response"	"9"	"8796681"	"0.0-4.0-1.0-2.0-0.1"	"40clyh"	"600"	"1024"	"chrome"	"109.0.0"	"FALSE"	"Windows 10"	"60.4"	"018"	n/a	n/a	n/a	n/a	n/a	n/a	"fixation"	n/a	n/a	n/a	n/a	"NULL"	n/a	"NULL"	"NULL"	"NULL"	"<p style=\"color: black; font-size: 80px; padding-left: 27%; padding-right: 7%; padding-top: 16%; padding-bottom: 2%\">+</p>"	"1079"	n/a	n/a	n/a	n/a	n/a	n/a	n/a	n/a	n/a
n/a	"image-keyboard-response"	"10"	"8797144"	"0.0-4.0-1.0-2.0-1.1"	"40clyh"	"600"	"1024"	"chrome"	"109.0.0"	"FALSE"	"Windows 10"	"60.4"	"018"	n/a	n/a	n/a	n/a	n/a	n/a	"Trial"	n/a	n/a	n/a	"462"	"arrowleft"	n/a	"NULL"	"NULL"	"NULL"	"stimuli/Ebbinghaus_1000000_1.40000.png"	n/a	"Ebbinghaus"	"arrowleft"	"1085"	"TRUE"	"Ebbinghaus"	"100000000000"	"1.4000000000"	"1"	"2"
n/a	"html-keyboard-response"	"11"	"8798302"	"0.0-4.0-1.0-2.0-0.2"	"40clyh"	"600"	"1024"	"chrome"	"109.0.0"	"FALSE"	"Windows 10"	"60.4"	"018"	n/a	n/a	n/a	n/a	n/a	n/a	"fixation"	n/a	n/a	n/a	n/a	"NULL"	n/a	"NULL"	"NULL"	"NULL"	"<p style=\"color: black; font-size: 80px; padding-left: 46%; padding-right: 18%; padding-top: 8%; padding-bottom: 40%\">+</p>"	"1153"	n/a	n/a	n/a	n/a	n/a	n/a	n/a	n/a	n/a
n/a	"image-keyboard-response"	"12"	"8798757"	"0.0-4.0-1.0-2.0-1.2"	"40clyh"	"600"	"1024"	"chrome"	"109.0.0"	"FALSE"	"Windows 10"	"60.4"	"018"	n/a	n/a	n/a	n/a	n/a	n/a	"Trial"	n/a	n/a	n/a	"453"	"arrowleft"	n/a	"NULL"	"NULL"	"NULL"	"stimuli/Ebbinghaus_-100000_1.40000.png"	n/a	"Ebbinghaus"	"arrowleft"	"1158"	"TRUE"	"Ebbinghaus"	"-10000000000"	"1.4000000000"	"1"	"3"
n/a	"html-keyboard-response"	"13"	"8799893"	"0.0-4.0-1.0-2.0-0.3"	"40clyh"	"600"	"1024"	"chrome"	"109.0.0"	"FALSE"	"Windows 10"	"60.4"	"018"	n/a	n/a	n/a	n/a	n/a	n/a	"fixation"	n/a	n/a	n/a	n/a	"NULL"	n/a	"NULL"	"NULL"	"NULL"	"<p style=\"color: black; font-size: 80px; padding-left: 39%; padding-right: 14%; padding-top: 10%; padding-bottom: 25%\">+</p>"	"1123"	n/a	n/a	n/a	n/a	n/a	n/a	n/a	n/a	n/a
n/a	"image-keyboard-response"	"14"	"8800333"	"0.0-4.0-1.0-2.0-1.3"	"40clyh"	"600"	"1024"	"chrome"	"109.0.0"	"FALSE"	"Windows 10"	"60.4"	"018"	n/a	n/a	n/a	n/a	n/a	n/a	"Trial"	n/a	n/a	n/a	"439"	"arrowright"	n/a	"NULL"	"NULL"	"NULL"	"stimuli/Ebbinghaus_1000000_-1.4000.png"	n/a	"Ebbinghaus"	"arrowright"	"1136"	"TRUE"	"Ebbinghaus"	"100000000000"	"-1.400000000"	"1"	"4"
n/a	"html-keyboard-response"	"15"	"8801666"	"0.0-4.0-1.0-2.0-0.4"	"40clyh"	"600"	"1024"	"chrome"	"109.0.0"	"FALSE"	"Windows 10"	"60.4"	"018"	n/a	n/a	n/a	n/a	n/a	n/a	"fixation"	n/a	n/a	n/a	n/a	"NULL"	n/a	"NULL"	"NULL"	"NULL"	"<p style=\"color: black; font-size: 80px; padding-left: 15%; padding-right: 44%; padding-top: 3%; padding-bottom: 47%\">+</p>"	"1314"	n/a	n/a	n/a	n/a	n/a	n/a	n/a	n/a	n/a
n/a	"image-keyboard-response"	"16"	"8802198"	"0.0-4.0-1.0-2.0-1.4"	"40clyh"	"600"	"1024"	"chrome"	"109.0.0"	"FALSE"	"Windows 10"	"60.4"	"018"	n/a	n/a	n/a	n/a	n/a	n/a	"Trial"	n/a	n/a	n/a	"530"	"arrowright"	n/a	"NULL"	"NULL"	"NULL"	"stimuli/Ebbinghaus_0000000_-1.4000.png"	n/a	"Ebbinghaus"	"arrowright"	"1333"	"TRUE"	"Ebbinghaus"	"000000000000"	"-1.400000000"	"1"	"5"
n/a	"html-keyboard-response"	"17"	"8803638"	"0.0-4.0-1.0-2.0-0.5"	"40clyh"	"600"	"1024"	"chrome"	"109.0.0"	"FALSE"	"Windows 10"	"60.4"	"018"	n/a	n/a	n/a	n/a	n/a	n/a	"fixation"	n/a	n/a	n/a	n/a	"NULL"	n/a	"NULL"	"NULL"	"NULL"	"<p style=\"color: black; font-size: 80px; padding-left: 33%; padding-right: 6%; padding-top: 40%; padding-bottom: 3%\">+</p>"	"1430"	n/a	n/a	n/a	n/a	n/a	n/a	n/a	n/a	n/a
n/a	"image-keyboard-response"	"18"	"8804101"	"0.0-4.0-1.0-2.0-1.5"	"40clyh"	"600"	"1024"	"chrome"	"109.0.0"	"FALSE"	"Windows 10"	"60.4"	"018"	n/a	n/a	n/a	n/a	n/a	n/a	"Trial"	n/a	n/a	n/a	"461"	"arrowleft"	n/a	"NULL"	"NULL"	"NULL"	"stimuli/Ebbinghaus_0000000_1.40000.png"	n/a	"Ebbinghaus"	"arrowleft"	"1440"	"TRUE"	"Ebbinghaus"	"000000000000"	"1.4000000000"	"1"	"6"
n/a	"html-button-response"	"19"	"8809372"	"0.0-4.0-1.0-3.0"	"40clyh"	"600"	"1024"	"chrome"	"109.0.0"	"FALSE"	"Windows 10"	"60.4"	"018"	n/a	n/a	n/a	n/a	n/a	n/a	"practice_block_results"	n/a	n/a	n/a	"5260"	"0"	n/a	"NULL"	"NULL"	"NULL"	"<p style='color:rgb(76,175,80);'> Correct Responses: <b>100.00%</b></p><hr><p style='color:rgb(233,30,99);'> Average Response Time: <b>501.00</b> ms.</p>"	n/a	n/a	n/a	n/a	n/a	n/a	n/a	n/a	n/a	n/a
"TRUE"	"preload"	"20"	"8809924"	"0.0-4.0-2.0-0.0"	"40clyh"	"600"	"1024"	"chrome"	"109.0.0"	"FALSE"	"Windows 10"	"60.4"	"018"	n/a	n/a	n/a	n/a	n/a	n/a	n/a	n/a	n/a	n/a	n/a	"NULL"	"FALSE"	"list()"	"list()"	"list()"	n/a	n/a	n/a	n/a	n/a	n/a	n/a	n/a	n/a	n/a	n/a
n/a	"html-keyboard-response"	"21"	"8813656"	"0.0-4.0-2.0-1.0"	"40clyh"	"600"	"1024"	"chrome"	"109.0.0"	"FALSE"	"Windows 10"	"60.4"	"018"	n/a	n/a	n/a	n/a	n/a	n/a	n/a	n/a	n/a	n/a	"3731"	"enter"	n/a	"NULL"	"NULL"	"NULL"	"<p><b>Practice</b></p><p>In this part, two horizontal red lines will appear one above the other.</p><p>Your task is to select which <b>line is longer</b> in length as fast as you can, without making errors.</p><p>Don't get distracted by the surrounding black arrows at the end of the red lines!</p><p>Press <b>the UP or the DOWN arrow</b> to indicate where is the longer <b>red line.</b></p><div style='float: center'><img src='materials/instructions/MullerLyer_Demo.png' height='300'></img><p><img src='utils/answer/answer_updown_keyboard.PNG' height='150'></img></p><p class='small'>In this example, the correct answer is the <b>UP arrow</b>.</p></div><p>Are you ready? <b>Press ENTER to start</b></p>"	n/a	n/a	n/a	n/a	n/a	n/a	n/a	n/a	n/a	n/a
n/a	"html-keyboard-response"	"22"	"8815380"	"0.0-4.0-2.0-2.0-0.0"	"40clyh"	"600"	"1024"	"chrome"	"109.0.0"	"FALSE"	"Windows 10"	"60.4"	"018"	n/a	n/a	n/a	n/a	n/a	n/a	"fixation"	n/a	n/a	n/a	n/a	"NULL"	n/a	"NULL"	"NULL"	"NULL"	"<p style=\"color: black; font-size: 80px; padding-left: 33%; padding-right: 23%; padding-top: 35%; padding-bottom: 22%\">+</p>"	"1202"	n/a	n/a	n/a	n/a	n/a	n/a	n/a	n/a	n/a
n/a	"image-keyboard-response"	"23"	"8815829"	"0.0-4.0-2.0-2.0-1.0"	"40clyh"	"600"	"1024"	"chrome"	"109.0.0"	"FALSE"	"Windows 10"	"60.4"	"018"	n/a	n/a	n/a	n/a	n/a	n/a	"Trial"	n/a	n/a	n/a	"447"	"arrowup"	n/a	"NULL"	"NULL"	"NULL"	"stimuli/MullerLyer_-230000_0.70000.png"	n/a	"MullerLyer"	"arrowup"	"1724"	"TRUE"	"MullerLyer"	"-23000000000"	"0.7000000000"	"1"	"7"
n/a	"html-keyboard-response"	"24"	"8816932"	"0.0-4.0-2.0-2.0-0.1"	"40clyh"	"600"	"1024"	"chrome"	"109.0.0"	"FALSE"	"Windows 10"	"60.4"	"018"	n/a	n/a	n/a	n/a	n/a	n/a	"fixation"	n/a	n/a	n/a	n/a	"NULL"	n/a	"NULL"	"NULL"	"NULL"	"<p style=\"color: black; font-size: 80px; padding-left: 45%; padding-right: 3%; padding-top: 47%; padding-bottom: 34%\">+</p>"	"1092"	n/a	n/a	n/a	n/a	n/a	n/a	n/a	n/a	n/a
n/a	"image-keyboard-response"	"25"	"8817514"	"0.0-4.0-2.0-2.0-1.1"	"40clyh"	"600"	"1024"	"chrome"	"109.0.0"	"FALSE"	"Windows 10"	"60.4"	"018"	n/a	n/a	n/a	n/a	n/a	n/a	"Trial"	n/a	n/a	n/a	"582"	"arrowdown"	n/a	"NULL"	"NULL"	"NULL"	"stimuli/MullerLyer_2300000_-0.7000.png"	n/a	"MullerLyer"	"arrowdown"	"1103"	"TRUE"	"MullerLyer"	"230000000000"	"-0.700000000"	"1"	"8"
n/a	"html-keyboard-response"	"26"	"8818872"	"0.0-4.0-2.0-2.0-0.2"	"40clyh"	"600"	"1024"	"chrome"	"109.0.0"	"FALSE"	"Windows 10"	"60.4"	"018"	n/a	n/a	n/a	n/a	n/a	n/a	"fixation"	n/a	n/a	n/a	n/a	"NULL"	n/a	"NULL"	"NULL"	"NULL"	"<p style=\"color: black; font-size: 80px; padding-left: 24%; padding-right: 47%; padding-top: 49%; padding-bottom: 22%\">+</p>"	"1341"	n/a	n/a	n/a	n/a	n/a	n/a	n/a	n/a	n/a
n/a	"image-keyboard-response"	"27"	"8819362"	"0.0-4.0-2.0-2.0-1.2"	"40clyh"	"600"	"1024"	"chrome"	"109.0.0"	"FALSE"	"Windows 10"	"60.4"	"018"	n/a	n/a	n/a	n/a	n/a	n/a	"Trial"	n/a	n/a	n/a	"489"	"arrowup"	n/a	"NULL"	"NULL"	"NULL"	"stimuli/MullerLyer_0000000_0.70000.png"	n/a	"MullerLyer"	"arrowup"	"1358"	"TRUE"	"MullerLyer"	"000000000000"	"0.7000000000"	"1"	"9"
n/a	"html-keyboard-response"	"28"	"8820535"	"0.0-4.0-2.0-2.0-0.3"	"40clyh"	"600"	"1024"	"chrome"	"109.0.0"	"FALSE"	"Windows 10"	"60.4"	"018"	n/a	n/a	n/a	n/a	n/a	n/a	"fixation"	n/a	n/a	n/a	n/a	"NULL"	n/a	"NULL"	"NULL"	"NULL"	"<p style=\"color: black; font-size: 80px; padding-left: 5%; padding-right: 33%; padding-top: 2%; padding-bottom: 48%\">+</p>"	"1163"	n/a	n/a	n/a	n/a	n/a	n/a	n/a	n/a	n/a
n/a	"image-keyboard-response"	"29"	"8821062"	"0.0-4.0-2.0-2.0-1.3"	"40clyh"	"600"	"1024"	"chrome"	"109.0.0"	"FALSE"	"Windows 10"	"60.4"	"018"	n/a	n/a	n/a	n/a	n/a	n/a	"Trial"	n/a	n/a	n/a	"525"	"arrowdown"	n/a	"NULL"	"NULL"	"NULL"	"stimuli/MullerLyer_-230000_-0.7000.png"	n/a	"MullerLyer"	"arrowdown"	"1173"	"TRUE"	"MullerLyer"	"-23000000000"	"-0.700000000"	"1"	"10"
n/a	"html-keyboard-response"	"30"	"8822101"	"0.0-4.0-2.0-2.0-0.4"	"40clyh"	"600"	"1024"	"chrome"	"109.0.0"	"FALSE"	"Windows 10"	"60.4"	"018"	n/a	n/a	n/a	n/a	n/a	n/a	"fixation"	n/a	n/a	n/a	n/a	"NULL"	n/a	"NULL"	"NULL"	"NULL"	"<p style=\"color: black; font-size: 80px; padding-left: 15%; padding-right: 29%; padding-top: 32%; padding-bottom: 40%\">+</p>"	"1027"	n/a	n/a	n/a	n/a	n/a	n/a	n/a	n/a	n/a
n/a	"image-keyboard-response"	"31"	"8822570"	"0.0-4.0-2.0-2.0-1.4"	"40clyh"	"600"	"1024"	"chrome"	"109.0.0"	"FALSE"	"Windows 10"	"60.4"	"018"	n/a	n/a	n/a	n/a	n/a	n/a	"Trial"	n/a	n/a	n/a	"467"	"arrowup"	n/a	"NULL"	"NULL"	"NULL"	"stimuli/MullerLyer_2300000_0.70000.png"	n/a	"MullerLyer"	"arrowup"	"1039"	"TRUE"	"MullerLyer"	"230000000000"	"0.7000000000"	"1"	"11"
n/a	"html-keyboard-response"	"32"	"8823605"	"0.0-4.0-2.0-2.0-0.5"	"40clyh"	"600"	"1024"	"chrome"	"109.0.0"	"FALSE"	"Windows 10"	"60.4"	"018"	n/a	n/a	n/a	n/a	n/a	n/a	"fixation"	n/a	n/a	n/a	n/a	"NULL"	n/a	"NULL"	"NULL"	"NULL"	"<p style=\"color: black; font-size: 80px; padding-left: 45%; padding-right: 41%; padding-top: 43%; padding-bottom: 3%\">+</p>"	"1019"	n/a	n/a	n/a	n/a	n/a	n/a	n/a	n/a	n/a
n/a	"image-keyboard-response"	"33"	"8824239"	"0.0-4.0-2.0-2.0-1.5"	"40clyh"	"600"	"1024"	"chrome"	"109.0.0"	"FALSE"	"Windows 10"	"60.4"	"018"	n/a	n/a	n/a	n/a	n/a	n/a	"Trial"	n/a	n/a	n/a	"633"	"arrowdown"	n/a	"NULL"	"NULL"	"NULL"	"stimuli/MullerLyer_0000000_-0.7000.png"	n/a	"MullerLyer"	"arrowdown"	"1035"	"TRUE"	"MullerLyer"	"000000000000"	"-0.700000000"	"1"	"12"
n/a	"html-button-response"	"34"	"8827412"	"0.0-4.0-2.0-3.0"	"40clyh"	"600"	"1024"	"chrome"	"109.0.0"	"FALSE"	"Windows 10"	"60.4"	"018"	n/a	n/a	n/a	n/a	n/a	n/a	"practice_block_results"	n/a	n/a	n/a	"3171"	"0"	n/a	"NULL"	"NULL"	"NULL"	"<p style='color:rgb(76,175,80);'> Correct Responses: <b>100.00%</b></p><hr><p style='color:rgb(233,30,99);'> Average Response Time: <b>523.83</b> ms.</p>"	n/a	n/a	n/a	n/a	n/a	n/a	n/a	n/a	n/a	n/a
"TRUE"	"preload"	"35"	"8827975"	"0.0-4.0-3.0-0.0"	"40clyh"	"600"	"1024"	"chrome"	"109.0.0"	"FALSE"	"Windows 10"	"60.4"	"018"	n/a	n/a	n/a	n/a	n/a	n/a	n/a	n/a	n/a	n/a	n/a	"NULL"	"FALSE"	"list()"	"list()"	"list()"	n/a	n/a	n/a	n/a	n/a	n/a	n/a	n/a	n/a	n/a	n/a
n/a	"html-keyboard-response"	"36"	"8831594"	"0.0-4.0-3.0-1.0"	"40clyh"	"600"	"1024"	"chrome"	"109.0.0"	"FALSE"	"Windows 10"	"60.4"	"018"	n/a	n/a	n/a	n/a	n/a	n/a	n/a	n/a	n/a	n/a	"3618"	"enter"	n/a	"NULL"	"NULL"	"NULL"	"<p><b>Practice</b></p><p>In this part, two red lines will appear side by side.</p><p>Your task is to tell <b>which line is longer</b> in length, regardless of their orientation, as fast as you can, and without making errors.</p><p>Don't get distracted by the orientation of the lines!</p><p>Press <b>the LEFT or the RIGHT arrow</b> to indicate which <b>line is the longer one.</b></p><div style='float: center'><img src='materials/instructions/VerticalHorizontal_Demo.png' height='300'></img><p><img src='utils/answer/answer_leftright_keyboard.PNG' height='150'></img></p><p class='small'>In this example, the correct answer is the <b>LEFT arrow</b>.</p></div><p>Are you ready? <b>Press ENTER to start</b></p>"	n/a	n/a	n/a	n/a	n/a	n/a	n/a	n/a	n/a	n/a
n/a	"html-keyboard-response"	"37"	"8833426"	"0.0-4.0-3.0-2.0-0.0"	"40clyh"	"600"	"1024"	"chrome"	"109.0.0"	"FALSE"	"Windows 10"	"60.4"	"018"	n/a	n/a	n/a	n/a	n/a	n/a	"fixation"	n/a	n/a	n/a	n/a	"NULL"	n/a	"NULL"	"NULL"	"NULL"	"<p style=\"color: black; font-size: 80px; padding-left: 29%; padding-right: 11%; padding-top: 12%; padding-bottom: 7%\">+</p>"	"1299"	n/a	n/a	n/a	n/a	n/a	n/a	n/a	n/a	n/a
n/a	"image-keyboard-response"	"38"	"8833981"	"0.0-4.0-3.0-2.0-1.0"	"40clyh"	"600"	"1024"	"chrome"	"109.0.0"	"FALSE"	"Windows 10"	"60.4"	"018"	n/a	n/a	n/a	n/a	n/a	n/a	"Trial"	n/a	n/a	n/a	"552"	"arrowright"	n/a	"NULL"	"NULL"	"NULL"	"stimuli/VerticalHorizontal_0000000_-0.9000.png"	n/a	"VerticalHorizontal"	"arrowright"	"1832"	"TRUE"	"VerticalHorizontal"	"000000000000"	"-0.900000000"	"1"	"13"
n/a	"html-keyboard-response"	"39"	"8835011"	"0.0-4.0-3.0-2.0-0.1"	"40clyh"	"600"	"1024"	"chrome"	"109.0.0"	"FALSE"	"Windows 10"	"60.4"	"018"	n/a	n/a	n/a	n/a	n/a	n/a	"fixation"	n/a	n/a	n/a	n/a	"NULL"	n/a	"NULL"	"NULL"	"NULL"	"<p style=\"color: black; font-size: 80px; padding-left: 42%; padding-right: 8%; padding-top: 37%; padding-bottom: 29%\">+</p>"	"1017"	n/a	n/a	n/a	n/a	n/a	n/a	n/a	n/a	n/a
n/a	"image-keyboard-response"	"40"	"8835482"	"0.0-4.0-3.0-2.0-1.1"	"40clyh"	"600"	"1024"	"chrome"	"109.0.0"	"FALSE"	"Windows 10"	"60.4"	"018"	n/a	n/a	n/a	n/a	n/a	n/a	"Trial"	n/a	n/a	n/a	"469"	"arrowleft"	n/a	"NULL"	"NULL"	"NULL"	"stimuli/VerticalHorizontal_-330000_0.90000.png"	n/a	"VerticalHorizontal"	"arrowleft"	"1030"	"TRUE"	"VerticalHorizontal"	"-33000000000"	"0.9000000000"	"1"	"14"
n/a	"html-keyboard-response"	"41"	"8836647"	"0.0-4.0-3.0-2.0-0.2"	"40clyh"	"600"	"1024"	"chrome"	"109.0.0"	"FALSE"	"Windows 10"	"60.4"	"018"	n/a	n/a	n/a	n/a	n/a	n/a	"fixation"	n/a	n/a	n/a	n/a	"NULL"	n/a	"NULL"	"NULL"	"NULL"	"<p style=\"color: black; font-size: 80px; padding-left: 27%; padding-right: 25%; padding-top: 36%; padding-bottom: 8%\">+</p>"	"1156"	n/a	n/a	n/a	n/a	n/a	n/a	n/a	n/a	n/a
n/a	"image-keyboard-response"	"42"	"8837070"	"0.0-4.0-3.0-2.0-1.2"	"40clyh"	"600"	"1024"	"chrome"	"109.0.0"	"FALSE"	"Windows 10"	"60.4"	"018"	n/a	n/a	n/a	n/a	n/a	n/a	"Trial"	n/a	n/a	n/a	"421"	"arrowright"	n/a	"NULL"	"NULL"	"NULL"	"stimuli/VerticalHorizontal_-330000_-0.9000.png"	n/a	"VerticalHorizontal"	"arrowright"	"1165"	"TRUE"	"VerticalHorizontal"	"-33000000000"	"-0.900000000"	"1"	"15"
n/a	"html-keyboard-response"	"43"	"8838148"	"0.0-4.0-3.0-2.0-0.3"	"40clyh"	"600"	"1024"	"chrome"	"109.0.0"	"FALSE"	"Windows 10"	"60.4"	"018"	n/a	n/a	n/a	n/a	n/a	n/a	"fixation"	n/a	n/a	n/a	n/a	"NULL"	n/a	"NULL"	"NULL"	"NULL"	"<p style=\"color: black; font-size: 80px; padding-left: 19%; padding-right: 3%; padding-top: 37%; padding-bottom: 11%\">+</p>"	"1056"	n/a	n/a	n/a	n/a	n/a	n/a	n/a	n/a	n/a
n/a	"image-keyboard-response"	"44"	"8838645"	"0.0-4.0-3.0-2.0-1.3"	"40clyh"	"600"	"1024"	"chrome"	"109.0.0"	"FALSE"	"Windows 10"	"60.4"	"018"	n/a	n/a	n/a	n/a	n/a	n/a	"Trial"	n/a	n/a	n/a	"496"	"arrowleft"	n/a	"NULL"	"NULL"	"NULL"	"stimuli/VerticalHorizontal_3300000_0.90000.png"	n/a	"VerticalHorizontal"	"arrowleft"	"1078"	"TRUE"	"VerticalHorizontal"	"330000000000"	"0.9000000000"	"1"	"16"
n/a	"html-keyboard-response"	"45"	"8840037"	"0.0-4.0-3.0-2.0-0.4"	"40clyh"	"600"	"1024"	"chrome"	"109.0.0"	"FALSE"	"Windows 10"	"60.4"	"018"	n/a	n/a	n/a	n/a	n/a	n/a	"fixation"	n/a	n/a	n/a	n/a	"NULL"	n/a	"NULL"	"NULL"	"NULL"	"<p style=\"color: black; font-size: 80px; padding-left: 24%; padding-right: 50%; padding-top: 40%; padding-bottom: 7%\">+</p>"	"1375"	n/a	n/a	n/a	n/a	n/a	n/a	n/a	n/a	n/a
n/a	"image-keyboard-response"	"46"	"8840472"	"0.0-4.0-3.0-2.0-1.4"	"40clyh"	"600"	"1024"	"chrome"	"109.0.0"	"FALSE"	"Windows 10"	"60.4"	"018"	n/a	n/a	n/a	n/a	n/a	n/a	"Trial"	n/a	n/a	n/a	"433"	"arrowleft"	n/a	"NULL"	"NULL"	"NULL"	"stimuli/VerticalHorizontal_0000000_0.90000.png"	n/a	"VerticalHorizontal"	"arrowleft"	"1392"	"TRUE"	"VerticalHorizontal"	"000000000000"	"0.9000000000"	"1"	"17"
n/a	"html-keyboard-response"	"47"	"8841724"	"0.0-4.0-3.0-2.0-0.5"	"40clyh"	"600"	"1024"	"chrome"	"109.0.0"	"FALSE"	"Windows 10"	"60.4"	"018"	n/a	n/a	n/a	n/a	n/a	n/a	"fixation"	n/a	n/a	n/a	n/a	"NULL"	n/a	"NULL"	"NULL"	"NULL"	"<p style=\"color: black; font-size: 80px; padding-left: 29%; padding-right: 11%; padding-top: 6%; padding-bottom: 47%\">+</p>"	"1241"	n/a	n/a	n/a	n/a	n/a	n/a	n/a	n/a	n/a
n/a	"image-keyboard-response"	"48"	"8842214"	"0.0-4.0-3.0-2.0-1.5"	"40clyh"	"600"	"1024"	"chrome"	"109.0.0"	"FALSE"	"Windows 10"	"60.4"	"018"	n/a	n/a	n/a	n/a	n/a	n/a	"Trial"	n/a	n/a	n/a	"488"	"arrowright"	n/a	"NULL"	"NULL"	"NULL"	"stimuli/VerticalHorizontal_3300000_-0.9000.png"	n/a	"VerticalHorizontal"	"arrowright"	"1252"	"TRUE"	"VerticalHorizontal"	"330000000000"	"-0.900000000"	"1"	"18"
n/a	"html-button-response"	"49"	"8844644"	"0.0-4.0-3.0-3.0"	"40clyh"	"600"	"1024"	"chrome"	"109.0.0"	"FALSE"	"Windows 10"	"60.4"	"018"	n/a	n/a	n/a	n/a	n/a	n/a	"practice_block_results"	n/a	n/a	n/a	"2428"	"0"	n/a	"NULL"	"NULL"	"NULL"	"<p style='color:rgb(76,175,80);'> Correct Responses: <b>100.00%</b></p><hr><p style='color:rgb(233,30,99);'> Average Response Time: <b>476.50</b> ms.</p>"	n/a	n/a	n/a	n/a	n/a	n/a	n/a	n/a	n/a	n/a
n/a	"html-button-response"	"50"	"8915912"	"0.0-4.0-4.0"	"40clyh"	"600"	"1024"	"chrome"	"109.0.0"	"FALSE"	"Windows 10"	"60.4"	"018"	n/a	n/a	n/a	n/a	n/a	n/a	"practice_debrief"	n/a	n/a	n/a	"70748"	"0"	n/a	"NULL"	"NULL"	"NULL"	"<p><b>TRAINING COMPLETED</b></p><p>In the next phase, there will be more trials, and some might be harder too.<br> Moreover, after each illusion block, a <b>score</b> will be calculated based on speed (time you took to answer) and accuracy (number of errors).</p><p>Try to keep up a high score!</p><br><p>Note that it can be <i>really</i> challenging at times, so you will need to rely on your <b>intuition</b> and gut feeling to answer as fast as you can without making errors.</p><p>Each illusion block will be repeated two times (so that you have the opportunity to improve your score), but the order of the blocks is random.</p><p>Remember, your goal is to be as <b>fast</b> and <b>accurate</b> as possible. Good luck!</p><br>"	n/a	n/a	n/a	n/a	n/a	n/a	n/a	n/a	n/a	n/a
"TRUE"	"preload"	"51"	"8916105"	"0.0-5.0-0.0"	"40clyh"	"600"	"1024"	"chrome"	"109.0.0"	"FALSE"	"Windows 10"	"60.4"	"018"	n/a	n/a	n/a	n/a	n/a	n/a	n/a	n/a	n/a	n/a	n/a	"NULL"	"FALSE"	"list()"	"list()"	"list()"	n/a	n/a	n/a	n/a	n/a	n/a	n/a	n/a	n/a	n/a	n/a
n/a	"html-keyboard-response"	"52"	"8919141"	"0.0-5.0-1.0"	"40clyh"	"600"	"1024"	"chrome"	"109.0.0"	"FALSE"	"Windows 10"	"60.4"	"018"	n/a	n/a	n/a	n/a	n/a	n/a	n/a	n/a	n/a	n/a	"3036"	"enter"	n/a	"NULL"	"NULL"	"NULL"	"<p><b>Part 1/6</b></p><p>In this part, two red lines will appear side by side.</p><p>Your task is to tell <b>which line is longer</b> in length, regardless of their orientation, as fast as you can, and without making errors.</p><p>Don't get distracted by the orientation of the lines!</p><p>Press <b>the LEFT or the RIGHT arrow</b> to indicate which <b>line is the longer one.</b></p><div style='float: center'><img src='materials/instructions/VerticalHorizontal_Demo.png' height='300'></img><p><img src='utils/answer/answer_leftright_keyboard.PNG' height='150'></img></p><p class='small'>In this example, the correct answer is the <b>LEFT arrow</b>.</p></div><p>Are you ready? <b>Press ENTER to start</b></p>"	n/a	n/a	n/a	n/a	n/a	n/a	n/a	n/a	n/a	n/a
n/a	"html-keyboard-response"	"53"	"8921041"	"0.0-5.0-2.0-0.0"	"40clyh"	"600"	"1024"	"chrome"	"109.0.0"	"FALSE"	"Windows 10"	"60.4"	"018"	n/a	n/a	n/a	n/a	n/a	n/a	"fixation"	n/a	n/a	n/a	n/a	"NULL"	n/a	"NULL"	"NULL"	"NULL"	"<p style=\"color: black; font-size: 80px; padding-left: 46%; padding-right: 2%; padding-top: 36%; padding-bottom: 0%\">+</p>"	"1370"	n/a	n/a	n/a	n/a	n/a	n/a	n/a	n/a	n/a
n/a	"image-keyboard-response"	"54"	"8921513"	"0.0-5.0-2.0-1.0"	"40clyh"	"600"	"1024"	"chrome"	"109.0.0"	"FALSE"	"Windows 10"	"60.4"	"018"	n/a	n/a	n/a	n/a	n/a	n/a	"Trial"	n/a	n/a	n/a	"469"	"arrowright"	n/a	"NULL"	"NULL"	"NULL"	"stimuli/VerticalHorizontal_-28.75714_-0.0673.png"	n/a	"VerticalHorizontal"	"arrowright"	"1900"	"TRUE"	"VerticalHorizontal"	"-28.75714000"	"-0.067300000"	"1"	"19"
n/a	"html-keyboard-response"	"55"	"8922672"	"0.0-5.0-2.0-0.1"	"40clyh"	"600"	"1024"	"chrome"	"109.0.0"	"FALSE"	"Windows 10"	"60.4"	"018"	n/a	n/a	n/a	n/a	n/a	n/a	"fixation"	n/a	n/a	n/a	n/a	"NULL"	n/a	"NULL"	"NULL"	"NULL"	"<p style=\"color: black; font-size: 80px; padding-left: 14%; padding-right: 47%; padding-top: 43%; padding-bottom: 21%\">+</p>"	"1141"	n/a	n/a	n/a	n/a	n/a	n/a	n/a	n/a	n/a
n/a	"image-keyboard-response"	"56"	"8923100"	"0.0-5.0-2.0-1.1"	"40clyh"	"600"	"1024"	"chrome"	"109.0.0"	"FALSE"	"Windows 10"	"60.4"	"018"	n/a	n/a	n/a	n/a	n/a	n/a	"Trial"	n/a	n/a	n/a	"426"	"arrowleft"	n/a	"NULL"	"NULL"	"NULL"	"stimuli/VerticalHorizontal_-11.78571_0.16217.png"	n/a	"VerticalHorizontal"	"arrowleft"	"1159"	"TRUE"	"VerticalHorizontal"	"-11.78571000"	"0.1621700000"	"1"	"20"
n/a	"html-keyboard-response"	"57"	"8924331"	"0.0-5.0-2.0-0.2"	"40clyh"	"600"	"1024"	"chrome"	"109.0.0"	"FALSE"	"Windows 10"	"60.4"	"018"	n/a	n/a	n/a	n/a	n/a	n/a	"fixation"	n/a	n/a	n/a	n/a	"NULL"	n/a	"NULL"	"NULL"	"NULL"	"<p style=\"color: black; font-size: 80px; padding-left: 15%; padding-right: 25%; padding-top: 24%; padding-bottom: 10%\">+</p>"	"1217"	n/a	n/a	n/a	n/a	n/a	n/a	n/a	n/a	n/a
n/a	"image-keyboard-response"	"58"	"8925168"	"0.0-5.0-2.0-1.2"	"40clyh"	"600"	"1024"	"chrome"	"109.0.0"	"FALSE"	"Windows 10"	"60.4"	"018"	n/a	n/a	n/a	n/a	n/a	n/a	"Trial"	n/a	n/a	n/a	"836"	"arrowright"	n/a	"NULL"	"NULL"	"NULL"	"stimuli/VerticalHorizontal_11.78571_-0.16217.png"	n/a	"VerticalHorizontal"	"arrowright"	"1231"	"TRUE"	"VerticalHorizontal"	"11.785710000"	"-0.162170000"	"1"	"21"
n/a	"html-keyboard-response"	"59"	"8926506"	"0.0-5.0-2.0-0.3"	"40clyh"	"600"	"1024"	"chrome"	"109.0.0"	"FALSE"	"Windows 10"	"60.4"	"018"	n/a	n/a	n/a	n/a	n/a	n/a	"fixation"	n/a	n/a	n/a	n/a	"NULL"	n/a	"NULL"	"NULL"	"NULL"	"<p style=\"color: black; font-size: 80px; padding-left: 24%; padding-right: 36%; padding-top: 22%; padding-bottom: 11%\">+</p>"	"1319"	n/a	n/a	n/a	n/a	n/a	n/a	n/a	n/a	n/a
n/a	"image-keyboard-response"	"60"	"8927054"	"0.0-5.0-2.0-1.3"	"40clyh"	"600"	"1024"	"chrome"	"109.0.0"	"FALSE"	"Windows 10"	"60.4"	"018"	n/a	n/a	n/a	n/a	n/a	n/a	"Trial"	n/a	n/a	n/a	"547"	"arrowleft"	n/a	"NULL"	"NULL"	"NULL"	"stimuli/VerticalHorizontal_-11.78571_0.06730.png"	n/a	"VerticalHorizontal"	"arrowleft"	"1338"	"TRUE"	"VerticalHorizontal"	"-11.78571000"	"0.0673000000"	"1"	"22"
n/a	"html-keyboard-response"	"61"	"8928350"	"0.0-5.0-2.0-0.4"	"40clyh"	"600"	"1024"	"chrome"	"109.0.0"	"FALSE"	"Windows 10"	"60.4"	"018"	n/a	n/a	n/a	n/a	n/a	n/a	"fixation"	n/a	n/a	n/a	n/a	"NULL"	n/a	"NULL"	"NULL"	"NULL"	"<p style=\"color: black; font-size: 80px; padding-left: 24%; padding-right: 2%; padding-top: 50%; padding-bottom: 23%\">+</p>"	"1290"	n/a	n/a	n/a	n/a	n/a	n/a	n/a	n/a	n/a
n/a	"image-keyboard-response"	"62"	"8929034"	"0.0-5.0-2.0-1.4"	"40clyh"	"600"	"1024"	"chrome"	"109.0.0"	"FALSE"	"Windows 10"	"60.4"	"018"	n/a	n/a	n/a	n/a	n/a	n/a	"Trial"	n/a	n/a	n/a	"683"	"arrowright"	n/a	"NULL"	"NULL"	"NULL"	"stimuli/VerticalHorizontal_28.75714_0.06730.png"	n/a	"VerticalHorizontal"	"arrowleft"	"1296"	"FALSE"	"VerticalHorizontal"	"28.757140000"	"0.0673000000"	"1"	"23"
n/a	"html-keyboard-response"	"63"	"8930053"	"0.0-5.0-2.0-0.5"	"40clyh"	"600"	"1024"	"chrome"	"109.0.0"	"FALSE"	"Windows 10"	"60.4"	"018"	n/a	n/a	n/a	n/a	n/a	n/a	"fixation"	n/a	n/a	n/a	n/a	"NULL"	n/a	"NULL"	"NULL"	"NULL"	"<p style=\"color: black; font-size: 80px; padding-left: 46%; padding-right: 16%; padding-top: 7%; padding-bottom: 36%\">+</p>"	"1005"	n/a	n/a	n/a	n/a	n/a	n/a	n/a	n/a	n/a
n/a	"image-keyboard-response"	"64"	"8930547"	"0.0-5.0-2.0-1.5"	"40clyh"	"600"	"1024"	"chrome"	"109.0.0"	"FALSE"	"Windows 10"	"60.4"	"018"	n/a	n/a	n/a	n/a	n/a	n/a	"Trial"	n/a	n/a	n/a	"494"	"arrowleft"	n/a	"NULL"	"NULL"	"NULL"	"stimuli/VerticalHorizontal_-28.75714_0.06730.png"	n/a	"VerticalHorizontal"	"arrowleft"	"1019"	"TRUE"	"VerticalHorizontal"	"-28.75714000"	"0.0673000000"	"1"	"24"
n/a	"html-keyboard-response"	"65"	"8931644"	"0.0-5.0-2.0-0.6"	"40clyh"	"600"	"1024"	"chrome"	"109.0.0"	"FALSE"	"Windows 10"	"60.4"	"018"	n/a	n/a	n/a	n/a	n/a	n/a	"fixation"	n/a	n/a	n/a	n/a	"NULL"	n/a	"NULL"	"NULL"	"NULL"	"<p style=\"color: black; font-size: 80px; padding-left: 27%; padding-right: 3%; padding-top: 47%; padding-bottom: 39%\">+</p>"	"1081"	n/a	n/a	n/a	n/a	n/a	n/a	n/a	n/a	n/a
n/a	"image-keyboard-response"	"66"	"8932392"	"0.0-5.0-2.0-1.6"	"40clyh"	"600"	"1024"	"chrome"	"109.0.0"	"FALSE"	"Windows 10"	"60.4"	"018"	n/a	n/a	n/a	n/a	n/a	n/a	"Trial"	n/a	n/a	n/a	"747"	"arrowleft"	n/a	"NULL"	"NULL"	"NULL"	"stimuli/VerticalHorizontal_-28.75714_0.10960.png"	n/a	"VerticalHorizontal"	"arrowleft"	"1097"	"TRUE"	"VerticalHorizontal"	"-28.75714000"	"0.1096000000"	"1"	"25"
n/a	"html-keyboard-response"	"67"	"8933431"	"0.0-5.0-2.0-0.7"	"40clyh"	"600"	"1024"	"chrome"	"109.0.0"	"FALSE"	"Windows 10"	"60.4"	"018"	n/a	n/a	n/a	n/a	n/a	n/a	"fixation"	n/a	n/a	n/a	n/a	"NULL"	n/a	"NULL"	"NULL"	"NULL"	"<p style=\"color: black; font-size: 80px; padding-left: 16%; padding-right: 31%; padding-top: 1%; padding-bottom: 41%\">+</p>"	"1021"	n/a	n/a	n/a	n/a	n/a	n/a	n/a	n/a	n/a
n/a	"image-keyboard-response"	"68"	"8934319"	"0.0-5.0-2.0-1.7"	"40clyh"	"600"	"1024"	"chrome"	"109.0.0"	"FALSE"	"Windows 10"	"60.4"	"018"	n/a	n/a	n/a	n/a	n/a	n/a	"Trial"	n/a	n/a	n/a	"887"	"arrowright"	n/a	"NULL"	"NULL"	"NULL"	"stimuli/VerticalHorizontal_3.30000_-0.0673.png"	n/a	"VerticalHorizontal"	"arrowright"	"1039"	"TRUE"	"VerticalHorizontal"	"3.3000000000"	"-0.067300000"	"1"	"26"
n/a	"html-keyboard-response"	"69"	"8935705"	"0.0-5.0-2.0-0.8"	"40clyh"	"600"	"1024"	"chrome"	"109.0.0"	"FALSE"	"Windows 10"	"60.4"	"018"	n/a	n/a	n/a	n/a	n/a	n/a	"fixation"	n/a	n/a	n/a	n/a	"NULL"	n/a	"NULL"	"NULL"	"NULL"	"<p style=\"color: black; font-size: 80px; padding-left: 20%; padding-right: 31%; padding-top: 33%; padding-bottom: 48%\">+</p>"	"1373"	n/a	n/a	n/a	n/a	n/a	n/a	n/a	n/a	n/a
n/a	"image-keyboard-response"	"70"	"8936301"	"0.0-5.0-2.0-1.8"	"40clyh"	"600"	"1024"	"chrome"	"109.0.0"	"FALSE"	"Windows 10"	"60.4"	"018"	n/a	n/a	n/a	n/a	n/a	n/a	"Trial"	n/a	n/a	n/a	"593"	"arrowright"	n/a	"NULL"	"NULL"	"NULL"	"stimuli/VerticalHorizontal_3.30000_-0.2250.png"	n/a	"VerticalHorizontal"	"arrowright"	"1386"	"TRUE"	"VerticalHorizontal"	"3.3000000000"	"-0.225000000"	"1"	"27"
n/a	"html-keyboard-response"	"71"	"8937566"	"0.0-5.0-2.0-0.9"	"40clyh"	"600"	"1024"	"chrome"	"109.0.0"	"FALSE"	"Windows 10"	"60.4"	"018"	n/a	n/a	n/a	n/a	n/a	n/a	"fixation"	n/a	n/a	n/a	n/a	"NULL"	n/a	"NULL"	"NULL"	"NULL"	"<p style=\"color: black; font-size: 80px; padding-left: 30%; padding-right: 35%; padding-top: 16%; padding-bottom: 28%\">+</p>"	"1262"	n/a	n/a	n/a	n/a	n/a	n/a	n/a	n/a	n/a
n/a	"image-keyboard-response"	"72"	"8938059"	"0.0-5.0-2.0-1.9"	"40clyh"	"600"	"1024"	"chrome"	"109.0.0"	"FALSE"	"Windows 10"	"60.4"	"018"	n/a	n/a	n/a	n/a	n/a	n/a	"Trial"	n/a	n/a	n/a	"492"	"arrowleft"	n/a	"NULL"	"NULL"	"NULL"	"stimuli/VerticalHorizontal_-28.75714_0.16217.png"	n/a	"VerticalHorizontal"	"arrowleft"	"1265"	"TRUE"	"VerticalHorizontal"	"-28.75714000"	"0.1621700000"	"1"	"28"
n/a	"html-keyboard-response"	"73"	"8939235"	"0.0-5.0-2.0-0.10"	"40clyh"	"600"	"1024"	"chrome"	"109.0.0"	"FALSE"	"Windows 10"	"60.4"	"018"	n/a	n/a	n/a	n/a	n/a	n/a	"fixation"	n/a	n/a	n/a	n/a	"NULL"	n/a	"NULL"	"NULL"	"NULL"	"<p style=\"color: black; font-size: 80px; padding-left: 10%; padding-right: 39%; padding-top: 6%; padding-bottom: 11%\">+</p>"	"1163"	n/a	n/a	n/a	n/a	n/a	n/a	n/a	n/a	n/a
n/a	"image-keyboard-response"	"74"	"8939698"	"0.0-5.0-2.0-1.10"	"40clyh"	"600"	"1024"	"chrome"	"109.0.0"	"FALSE"	"Windows 10"	"60.4"	"018"	n/a	n/a	n/a	n/a	n/a	n/a	"Trial"	n/a	n/a	n/a	"461"	"arrowright"	n/a	"NULL"	"NULL"	"NULL"	"stimuli/VerticalHorizontal_-20.27143_-0.16217.png"	n/a	"VerticalHorizontal"	"arrowright"	"1176"	"TRUE"	"VerticalHorizontal"	"-20.27143000"	"-0.162170000"	"1"	"29"
n/a	"html-keyboard-response"	"75"	"8940795"	"0.0-5.0-2.0-0.11"	"40clyh"	"600"	"1024"	"chrome"	"109.0.0"	"FALSE"	"Windows 10"	"60.4"	"018"	n/a	n/a	n/a	n/a	n/a	n/a	"fixation"	n/a	n/a	n/a	n/a	"NULL"	n/a	"NULL"	"NULL"	"NULL"	"<p style=\"color: black; font-size: 80px; padding-left: 8%; padding-right: 13%; padding-top: 5%; padding-bottom: 7%\">+</p>"	"1091"	n/a	n/a	n/a	n/a	n/a	n/a	n/a	n/a	n/a
n/a	"image-keyboard-response"	"76"	"8941234"	"0.0-5.0-2.0-1.11"	"40clyh"	"600"	"1024"	"chrome"	"109.0.0"	"FALSE"	"Windows 10"	"60.4"	"018"	n/a	n/a	n/a	n/a	n/a	n/a	"Trial"	n/a	n/a	n/a	"438"	"arrowright"	n/a	"NULL"	"NULL"	"NULL"	"stimuli/VerticalHorizontal_-28.75714_-0.2250.png"	n/a	"VerticalHorizontal"	"arrowright"	"1097"	"TRUE"	"VerticalHorizontal"	"-28.75714000"	"-0.225000000"	"1"	"30"
n/a	"html-keyboard-response"	"77"	"8942379"	"0.0-5.0-2.0-0.12"	"40clyh"	"600"	"1024"	"chrome"	"109.0.0"	"FALSE"	"Windows 10"	"60.4"	"018"	n/a	n/a	n/a	n/a	n/a	n/a	"fixation"	n/a	n/a	n/a	n/a	"NULL"	n/a	"NULL"	"NULL"	"NULL"	"<p style=\"color: black; font-size: 80px; padding-left: 31%; padding-right: 46%; padding-top: 47%; padding-bottom: 40%\">+</p>"	"1127"	n/a	n/a	n/a	n/a	n/a	n/a	n/a	n/a	n/a
n/a	"image-keyboard-response"	"78"	"8942912"	"0.0-5.0-2.0-1.12"	"40clyh"	"600"	"1024"	"chrome"	"109.0.0"	"FALSE"	"Windows 10"	"60.4"	"018"	n/a	n/a	n/a	n/a	n/a	n/a	"Trial"	n/a	n/a	n/a	"529"	"arrowright"	n/a	"NULL"	"NULL"	"NULL"	"stimuli/VerticalHorizontal_-20.27143_-0.1096.png"	n/a	"VerticalHorizontal"	"arrowright"	"1145"	"TRUE"	"VerticalHorizontal"	"-20.27143000"	"-0.109600000"	"1"	"31"
n/a	"html-keyboard-response"	"79"	"8944178"	"0.0-5.0-2.0-0.13"	"40clyh"	"600"	"1024"	"chrome"	"109.0.0"	"FALSE"	"Windows 10"	"60.4"	"018"	n/a	n/a	n/a	n/a	n/a	n/a	"fixation"	n/a	n/a	n/a	n/a	"NULL"	n/a	"NULL"	"NULL"	"NULL"	"<p style=\"color: black; font-size: 80px; padding-left: 4%; padding-right: 43%; padding-top: 15%; padding-bottom: 14%\">+</p>"	"1251"	n/a	n/a	n/a	n/a	n/a	n/a	n/a	n/a	n/a
n/a	"image-keyboard-response"	"80"	"8944640"	"0.0-5.0-2.0-1.13"	"40clyh"	"600"	"1024"	"chrome"	"109.0.0"	"FALSE"	"Windows 10"	"60.4"	"018"	n/a	n/a	n/a	n/a	n/a	n/a	"Trial"	n/a	n/a	n/a	"460"	"arrowleft"	n/a	"NULL"	"NULL"	"NULL"	"stimuli/VerticalHorizontal_11.78571_-0.0673.png"	n/a	"VerticalHorizontal"	"arrowright"	"1266"	"FALSE"	"VerticalHorizontal"	"11.785710000"	"-0.067300000"	"1"	"32"
n/a	"html-keyboard-response"	"81"	"8945680"	"0.0-5.0-2.0-0.14"	"40clyh"	"600"	"1024"	"chrome"	"109.0.0"	"FALSE"	"Windows 10"	"60.4"	"018"	n/a	n/a	n/a	n/a	n/a	n/a	"fixation"	n/a	n/a	n/a	n/a	"NULL"	n/a	"NULL"	"NULL"	"NULL"	"<p style=\"color: black; font-size: 80px; padding-left: 10%; padding-right: 10%; padding-top: 31%; padding-bottom: 19%\">+</p>"	"1021"	n/a	n/a	n/a	n/a	n/a	n/a	n/a	n/a	n/a
n/a	"image-keyboard-response"	"82"	"8946193"	"0.0-5.0-2.0-1.14"	"40clyh"	"600"	"1024"	"chrome"	"109.0.0"	"FALSE"	"Windows 10"	"60.4"	"018"	n/a	n/a	n/a	n/a	n/a	n/a	"Trial"	n/a	n/a	n/a	"511"	"arrowleft"	n/a	"NULL"	"NULL"	"NULL"	"stimuli/VerticalHorizontal_28.75714_-0.0673.png"	n/a	"VerticalHorizontal"	"arrowright"	"1040"	"FALSE"	"VerticalHorizontal"	"28.757140000"	"-0.067300000"	"1"	"33"
n/a	"html-keyboard-response"	"83"	"8947225"	"0.0-5.0-2.0-0.15"	"40clyh"	"600"	"1024"	"chrome"	"109.0.0"	"FALSE"	"Windows 10"	"60.4"	"018"	n/a	n/a	n/a	n/a	n/a	n/a	"fixation"	n/a	n/a	n/a	n/a	"NULL"	n/a	"NULL"	"NULL"	"NULL"	"<p style=\"color: black; font-size: 80px; padding-left: 47%; padding-right: 40%; padding-top: 3%; padding-bottom: 22%\">+</p>"	"1017"	n/a	n/a	n/a	n/a	n/a	n/a	n/a	n/a	n/a
n/a	"image-keyboard-response"	"84"	"8948076"	"0.0-5.0-2.0-1.15"	"40clyh"	"600"	"1024"	"chrome"	"109.0.0"	"FALSE"	"Windows 10"	"60.4"	"018"	n/a	n/a	n/a	n/a	n/a	n/a	"Trial"	n/a	n/a	n/a	"850"	"arrowright"	n/a	"NULL"	"NULL"	"NULL"	"stimuli/VerticalHorizontal_3.30000_0.22500.png"	n/a	"VerticalHorizontal"	"arrowleft"	"1032"	"FALSE"	"VerticalHorizontal"	"3.3000000000"	"0.2250000000"	"1"	"34"
n/a	"html-keyboard-response"	"85"	"8949555"	"0.0-5.0-2.0-0.16"	"40clyh"	"600"	"1024"	"chrome"	"109.0.0"	"FALSE"	"Windows 10"	"60.4"	"018"	n/a	n/a	n/a	n/a	n/a	n/a	"fixation"	n/a	n/a	n/a	n/a	"NULL"	n/a	"NULL"	"NULL"	"NULL"	"<p style=\"color: black; font-size: 80px; padding-left: 24%; padding-right: 2%; padding-top: 21%; padding-bottom: 9%\">+</p>"	"1467"	n/a	n/a	n/a	n/a	n/a	n/a	n/a	n/a	n/a
n/a	"image-keyboard-response"	"86"	"8950306"	"0.0-5.0-2.0-1.16"	"40clyh"	"600"	"1024"	"chrome"	"109.0.0"	"FALSE"	"Windows 10"	"60.4"	"018"	n/a	n/a	n/a	n/a	n/a	n/a	"Trial"	n/a	n/a	n/a	"751"	"arrowleft"	n/a	"NULL"	"NULL"	"NULL"	"stimuli/VerticalHorizontal_-20.27143_0.22500.png"	n/a	"VerticalHorizontal"	"arrowleft"	"1479"	"TRUE"	"VerticalHorizontal"	"-20.27143000"	"0.2250000000"	"1"	"35"
n/a	"html-keyboard-response"	"87"	"8951692"	"0.0-5.0-2.0-0.17"	"40clyh"	"600"	"1024"	"chrome"	"109.0.0"	"FALSE"	"Windows 10"	"60.4"	"018"	n/a	n/a	n/a	n/a	n/a	n/a	"fixation"	n/a	n/a	n/a	n/a	"NULL"	n/a	"NULL"	"NULL"	"NULL"	"<p style=\"color: black; font-size: 80px; padding-left: 36%; padding-right: 5%; padding-top: 29%; padding-bottom: 4%\">+</p>"	"1377"	n/a	n/a	n/a	n/a	n/a	n/a	n/a	n/a	n/a
n/a	"image-keyboard-response"	"88"	"8953524"	"0.0-5.0-2.0-1.17"	"40clyh"	"600"	"1024"	"chrome"	"109.0.0"	"FALSE"	"Windows 10"	"60.4"	"018"	n/a	n/a	n/a	n/a	n/a	n/a	"Trial"	n/a	n/a	n/a	"1829"	"arrowright"	n/a	"NULL"	"NULL"	"NULL"	"stimuli/VerticalHorizontal_-3.3000_0.10960.png"	n/a	"VerticalHorizontal"	"arrowleft"	"1386"	"FALSE"	"VerticalHorizontal"	"-3.300000000"	"0.1096000000"	"1"	"36"
n/a	"html-keyboard-response"	"89"	"8954923"	"0.0-5.0-2.0-0.18"	"40clyh"	"600"	"1024"	"chrome"	"109.0.0"	"FALSE"	"Windows 10"	"60.4"	"018"	n/a	n/a	n/a	n/a	n/a	n/a	"fixation"	n/a	n/a	n/a	n/a	"NULL"	n/a	"NULL"	"NULL"	"NULL"	"<p style=\"color: black; font-size: 80px; padding-left: 18%; padding-right: 27%; padding-top: 48%; padding-bottom: 41%\">+</p>"	"1377"	n/a	n/a	n/a	n/a	n/a	n/a	n/a	n/a	n/a
n/a	"image-keyboard-response"	"90"	"8956022"	"0.0-5.0-2.0-1.18"	"40clyh"	"600"	"1024"	"chrome"	"109.0.0"	"FALSE"	"Windows 10"	"60.4"	"018"	n/a	n/a	n/a	n/a	n/a	n/a	"Trial"	n/a	n/a	n/a	"1099"	"arrowright"	n/a	"NULL"	"NULL"	"NULL"	"stimuli/VerticalHorizontal_-28.75714_-0.16217.png"	n/a	"VerticalHorizontal"	"arrowright"	"1399"	"TRUE"	"VerticalHorizontal"	"-28.75714000"	"-0.162170000"	"1"	"37"
n/a	"html-keyboard-response"	"91"	"8957146"	"0.0-5.0-2.0-0.19"	"40clyh"	"600"	"1024"	"chrome"	"109.0.0"	"FALSE"	"Windows 10"	"60.4"	"018"	n/a	n/a	n/a	n/a	n/a	n/a	"fixation"	n/a	n/a	n/a	n/a	"NULL"	n/a	"NULL"	"NULL"	"NULL"	"<p style=\"color: black; font-size: 80px; padding-left: 16%; padding-right: 45%; padding-top: 49%; padding-bottom: 0%\">+</p>"	"1103"	n/a	n/a	n/a	n/a	n/a	n/a	n/a	n/a	n/a
n/a	"image-keyboard-response"	"92"	"8958496"	"0.0-5.0-2.0-1.19"	"40clyh"	"600"	"1024"	"chrome"	"109.0.0"	"FALSE"	"Windows 10"	"60.4"	"018"	n/a	n/a	n/a	n/a	n/a	n/a	"Trial"	n/a	n/a	n/a	"1349"	"arrowright"	n/a	"NULL"	"NULL"	"NULL"	"stimuli/VerticalHorizontal_11.78571_0.10960.png"	n/a	"VerticalHorizontal"	"arrowleft"	"1124"	"FALSE"	"VerticalHorizontal"	"11.785710000"	"0.1096000000"	"1"	"38"
n/a	"html-keyboard-response"	"93"	"8959601"	"0.0-5.0-2.0-0.20"	"40clyh"	"600"	"1024"	"chrome"	"109.0.0"	"FALSE"	"Windows 10"	"60.4"	"018"	n/a	n/a	n/a	n/a	n/a	n/a	"fixation"	n/a	n/a	n/a	n/a	"NULL"	n/a	"NULL"	"NULL"	"NULL"	"<p style=\"color: black; font-size: 80px; padding-left: 45%; padding-right: 34%; padding-top: 36%; padding-bottom: 0%\">+</p>"	"1093"	n/a	n/a	n/a	n/a	n/a	n/a	n/a	n/a	n/a
n/a	"image-keyboard-response"	"94"	"8960839"	"0.0-5.0-2.0-1.20"	"40clyh"	"600"	"1024"	"chrome"	"109.0.0"	"FALSE"	"Windows 10"	"60.4"	"018"	n/a	n/a	n/a	n/a	n/a	n/a	"Trial"	n/a	n/a	n/a	"1236"	"arrowright"	n/a	"NULL"	"NULL"	"NULL"	"stimuli/VerticalHorizontal_20.27143_-0.1096.png"	n/a	"VerticalHorizontal"	"arrowright"	"1105"	"TRUE"	"VerticalHorizontal"	"20.271430000"	"-0.109600000"	"1"	"39"
n/a	"html-keyboard-response"	"95"	"8962210"	"0.0-5.0-2.0-0.21"	"40clyh"	"600"	"1024"	"chrome"	"109.0.0"	"FALSE"	"Windows 10"	"60.4"	"018"	n/a	n/a	n/a	n/a	n/a	n/a	"fixation"	n/a	n/a	n/a	n/a	"NULL"	n/a	"NULL"	"NULL"	"NULL"	"<p style=\"color: black; font-size: 80px; padding-left: 33%; padding-right: 43%; padding-top: 21%; padding-bottom: 3%\">+</p>"	"1357"	n/a	n/a	n/a	n/a	n/a	n/a	n/a	n/a	n/a
n/a	"image-keyboard-response"	"96"	"8962991"	"0.0-5.0-2.0-1.21"	"40clyh"	"600"	"1024"	"chrome"	"109.0.0"	"FALSE"	"Windows 10"	"60.4"	"018"	n/a	n/a	n/a	n/a	n/a	n/a	"Trial"	n/a	n/a	n/a	"780"	"arrowright"	n/a	"NULL"	"NULL"	"NULL"	"stimuli/VerticalHorizontal_20.27143_-0.16217.png"	n/a	"VerticalHorizontal"	"arrowright"	"1371"	"TRUE"	"VerticalHorizontal"	"20.271430000"	"-0.162170000"	"1"	"40"
n/a	"html-keyboard-response"	"97"	"8964391"	"0.0-5.0-2.0-0.22"	"40clyh"	"600"	"1024"	"chrome"	"109.0.0"	"FALSE"	"Windows 10"	"60.4"	"018"	n/a	n/a	n/a	n/a	n/a	n/a	"fixation"	n/a	n/a	n/a	n/a	"NULL"	n/a	"NULL"	"NULL"	"NULL"	"<p style=\"color: black; font-size: 80px; padding-left: 29%; padding-right: 8%; padding-top: 31%; padding-bottom: 28%\">+</p>"	"1378"	n/a	n/a	n/a	n/a	n/a	n/a	n/a	n/a	n/a
n/a	"image-keyboard-response"	"98"	"8966104"	"0.0-5.0-2.0-1.22"	"40clyh"	"600"	"1024"	"chrome"	"109.0.0"	"FALSE"	"Windows 10"	"60.4"	"018"	n/a	n/a	n/a	n/a	n/a	n/a	"Trial"	n/a	n/a	n/a	"1710"	"arrowleft"	n/a	"NULL"	"NULL"	"NULL"	"stimuli/VerticalHorizontal_3.30000_0.06730.png"	n/a	"VerticalHorizontal"	"arrowleft"	"1400"	"TRUE"	"VerticalHorizontal"	"3.3000000000"	"0.0673000000"	"1"	"41"
n/a	"html-keyboard-response"	"99"	"8967315"	"0.0-5.0-2.0-0.23"	"40clyh"	"600"	"1024"	"chrome"	"109.0.0"	"FALSE"	"Windows 10"	"60.4"	"018"	n/a	n/a	n/a	n/a	n/a	n/a	"fixation"	n/a	n/a	n/a	n/a	"NULL"	n/a	"NULL"	"NULL"	"NULL"	"<p style=\"color: black; font-size: 80px; padding-left: 26%; padding-right: 7%; padding-top: 42%; padding-bottom: 50%\">+</p>"	"1199"	n/a	n/a	n/a	n/a	n/a	n/a	n/a	n/a	n/a
n/a	"image-keyboard-response"	"100"	"8968181"	"0.0-5.0-2.0-1.23"	"40clyh"	"600"	"1024"	"chrome"	"109.0.0"	"FALSE"	"Windows 10"	"60.4"	"018"	n/a	n/a	n/a	n/a	n/a	n/a	"Trial"	n/a	n/a	n/a	"866"	"arrowleft"	n/a	"NULL"	"NULL"	"NULL"	"stimuli/VerticalHorizontal_-20.27143_0.16217.png"	n/a	"VerticalHorizontal"	"arrowleft"	"1211"	"TRUE"	"VerticalHorizontal"	"-20.27143000"	"0.1621700000"	"1"	"42"
n/a	"html-keyboard-response"	"101"	"8969509"	"0.0-5.0-2.0-0.24"	"40clyh"	"600"	"1024"	"chrome"	"109.0.0"	"FALSE"	"Windows 10"	"60.4"	"018"	n/a	n/a	n/a	n/a	n/a	n/a	"fixation"	n/a	n/a	n/a	n/a	"NULL"	n/a	"NULL"	"NULL"	"NULL"	"<p style=\"color: black; font-size: 80px; padding-left: 31%; padding-right: 39%; padding-top: 38%; padding-bottom: 31%\">+</p>"	"1316"	n/a	n/a	n/a	n/a	n/a	n/a	n/a	n/a	n/a
n/a	"image-keyboard-response"	"102"	"8971446"	"0.0-5.0-2.0-1.24"	"40clyh"	"600"	"1024"	"chrome"	"109.0.0"	"FALSE"	"Windows 10"	"60.4"	"018"	n/a	n/a	n/a	n/a	n/a	n/a	"Trial"	n/a	n/a	n/a	"1936"	"arrowright"	n/a	"NULL"	"NULL"	"NULL"	"stimuli/VerticalHorizontal_-20.27143_-0.2250.png"	n/a	"VerticalHorizontal"	"arrowright"	"1328"	"TRUE"	"VerticalHorizontal"	"-20.27143000"	"-0.225000000"	"1"	"43"
n/a	"html-keyboard-response"	"103"	"8972737"	"0.0-5.0-2.0-0.25"	"40clyh"	"600"	"1024"	"chrome"	"109.0.0"	"FALSE"	"Windows 10"	"60.4"	"018"	n/a	n/a	n/a	n/a	n/a	n/a	"fixation"	n/a	n/a	n/a	n/a	"NULL"	n/a	"NULL"	"NULL"	"NULL"	"<p style=\"color: black; font-size: 80px; padding-left: 6%; padding-right: 47%; padding-top: 18%; padding-bottom: 41%\">+</p>"	"1273"	n/a	n/a	n/a	n/a	n/a	n/a	n/a	n/a	n/a
n/a	"image-keyboard-response"	"104"	"8973726"	"0.0-5.0-2.0-1.25"	"40clyh"	"600"	"1024"	"chrome"	"109.0.0"	"FALSE"	"Windows 10"	"60.4"	"018"	n/a	n/a	n/a	n/a	n/a	n/a	"Trial"	n/a	n/a	n/a	"988"	"arrowleft"	n/a	"NULL"	"NULL"	"NULL"	"stimuli/VerticalHorizontal_-20.27143_0.06730.png"	n/a	"VerticalHorizontal"	"arrowleft"	"1291"	"TRUE"	"VerticalHorizontal"	"-20.27143000"	"0.0673000000"	"1"	"44"
n/a	"html-keyboard-response"	"105"	"8975065"	"0.0-5.0-2.0-0.26"	"40clyh"	"600"	"1024"	"chrome"	"109.0.0"	"FALSE"	"Windows 10"	"60.4"	"018"	n/a	n/a	n/a	n/a	n/a	n/a	"fixation"	n/a	n/a	n/a	n/a	"NULL"	n/a	"NULL"	"NULL"	"NULL"	"<p style=\"color: black; font-size: 80px; padding-left: 43%; padding-right: 3%; padding-top: 25%; padding-bottom: 20%\">+</p>"	"1322"	n/a	n/a	n/a	n/a	n/a	n/a	n/a	n/a	n/a
n/a	"image-keyboard-response"	"106"	"8976509"	"0.0-5.0-2.0-1.26"	"40clyh"	"600"	"1024"	"chrome"	"109.0.0"	"FALSE"	"Windows 10"	"60.4"	"018"	n/a	n/a	n/a	n/a	n/a	n/a	"Trial"	n/a	n/a	n/a	"1442"	"arrowright"	n/a	"NULL"	"NULL"	"NULL"	"stimuli/VerticalHorizontal_11.78571_-0.2250.png"	n/a	"VerticalHorizontal"	"arrowright"	"1339"	"TRUE"	"VerticalHorizontal"	"11.785710000"	"-0.225000000"	"1"	"45"
n/a	"html-keyboard-response"	"107"	"8977832"	"0.0-5.0-2.0-0.27"	"40clyh"	"600"	"1024"	"chrome"	"109.0.0"	"FALSE"	"Windows 10"	"60.4"	"018"	n/a	n/a	n/a	n/a	n/a	n/a	"fixation"	n/a	n/a	n/a	n/a	"NULL"	n/a	"NULL"	"NULL"	"NULL"	"<p style=\"color: black; font-size: 80px; padding-left: 47%; padding-right: 48%; padding-top: 21%; padding-bottom: 29%\">+</p>"	"1318"	n/a	n/a	n/a	n/a	n/a	n/a	n/a	n/a	n/a
n/a	"image-keyboard-response"	"108"	"8981088"	"0.0-5.0-2.0-1.27"	"40clyh"	"600"	"1024"	"chrome"	"109.0.0"	"FALSE"	"Windows 10"	"60.4"	"018"	n/a	n/a	n/a	n/a	n/a	n/a	"Trial"	n/a	n/a	n/a	"3256"	"arrowright"	n/a	"NULL"	"NULL"	"NULL"	"stimuli/VerticalHorizontal_28.75714_0.16217.png"	n/a	"VerticalHorizontal"	"arrowleft"	"1323"	"FALSE"	"VerticalHorizontal"	"28.757140000"	"0.1621700000"	"1"	"46"
n/a	"html-keyboard-response"	"109"	"8982380"	"0.0-5.0-2.0-0.28"	"40clyh"	"600"	"1024"	"chrome"	"109.0.0"	"FALSE"	"Windows 10"	"60.4"	"018"	n/a	n/a	n/a	n/a	n/a	n/a	"fixation"	n/a	n/a	n/a	n/a	"NULL"	n/a	"NULL"	"NULL"	"NULL"	"<p style=\"color: black; font-size: 80px; padding-left: 11%; padding-right: 47%; padding-top: 5%; padding-bottom: 20%\">+</p>"	"1271"	n/a	n/a	n/a	n/a	n/a	n/a	n/a	n/a	n/a
n/a	"image-keyboard-response"	"110"	"8982983"	"0.0-5.0-2.0-1.28"	"40clyh"	"600"	"1024"	"chrome"	"109.0.0"	"FALSE"	"Windows 10"	"60.4"	"018"	n/a	n/a	n/a	n/a	n/a	n/a	"Trial"	n/a	n/a	n/a	"602"	"arrowleft"	n/a	"NULL"	"NULL"	"NULL"	"stimuli/VerticalHorizontal_28.75714_-0.1096.png"	n/a	"VerticalHorizontal"	"arrowright"	"1292"	"FALSE"	"VerticalHorizontal"	"28.757140000"	"-0.109600000"	"1"	"47"
n/a	"html-keyboard-response"	"111"	"8984271"	"0.0-5.0-2.0-0.29"	"40clyh"	"600"	"1024"	"chrome"	"109.0.0"	"FALSE"	"Windows 10"	"60.4"	"018"	n/a	n/a	n/a	n/a	n/a	n/a	"fixation"	n/a	n/a	n/a	n/a	"NULL"	n/a	"NULL"	"NULL"	"NULL"	"<p style=\"color: black; font-size: 80px; padding-left: 28%; padding-right: 35%; padding-top: 40%; padding-bottom: 20%\">+</p>"	"1270"	n/a	n/a	n/a	n/a	n/a	n/a	n/a	n/a	n/a
n/a	"image-keyboard-response"	"112"	"8984851"	"0.0-5.0-2.0-1.29"	"40clyh"	"600"	"1024"	"chrome"	"109.0.0"	"FALSE"	"Windows 10"	"60.4"	"018"	n/a	n/a	n/a	n/a	n/a	n/a	"Trial"	n/a	n/a	n/a	"579"	"arrowright"	n/a	"NULL"	"NULL"	"NULL"	"stimuli/VerticalHorizontal_-11.78571_-0.16217.png"	n/a	"VerticalHorizontal"	"arrowright"	"1288"	"TRUE"	"VerticalHorizontal"	"-11.78571000"	"-0.162170000"	"1"	"48"
n/a	"html-keyboard-response"	"113"	"8985935"	"0.0-5.0-2.0-0.30"	"40clyh"	"600"	"1024"	"chrome"	"109.0.0"	"FALSE"	"Windows 10"	"60.4"	"018"	n/a	n/a	n/a	n/a	n/a	n/a	"fixation"	n/a	n/a	n/a	n/a	"NULL"	n/a	"NULL"	"NULL"	"NULL"	"<p style=\"color: black; font-size: 80px; padding-left: 36%; padding-right: 40%; padding-top: 37%; padding-bottom: 38%\">+</p>"	"1077"	n/a	n/a	n/a	n/a	n/a	n/a	n/a	n/a	n/a
n/a	"image-keyboard-response"	"114"	"8986618"	"0.0-5.0-2.0-1.30"	"40clyh"	"600"	"1024"	"chrome"	"109.0.0"	"FALSE"	"Windows 10"	"60.4"	"018"	n/a	n/a	n/a	n/a	n/a	n/a	"Trial"	n/a	n/a	n/a	"681"	"arrowright"	n/a	"NULL"	"NULL"	"NULL"	"stimuli/VerticalHorizontal_11.78571_0.16217.png"	n/a	"VerticalHorizontal"	"arrowleft"	"1084"	"FALSE"	"VerticalHorizontal"	"11.785710000"	"0.1621700000"	"1"	"49"
n/a	"html-keyboard-response"	"115"	"8987938"	"0.0-5.0-2.0-0.31"	"40clyh"	"600"	"1024"	"chrome"	"109.0.0"	"FALSE"	"Windows 10"	"60.4"	"018"	n/a	n/a	n/a	n/a	n/a	n/a	"fixation"	n/a	n/a	n/a	n/a	"NULL"	n/a	"NULL"	"NULL"	"NULL"	"<p style=\"color: black; font-size: 80px; padding-left: 47%; padding-right: 40%; padding-top: 18%; padding-bottom: 42%\">+</p>"	"1299"	n/a	n/a	n/a	n/a	n/a	n/a	n/a	n/a	n/a
n/a	"image-keyboard-response"	"116"	"8988564"	"0.0-5.0-2.0-1.31"	"40clyh"	"600"	"1024"	"chrome"	"109.0.0"	"FALSE"	"Windows 10"	"60.4"	"018"	n/a	n/a	n/a	n/a	n/a	n/a	"Trial"	n/a	n/a	n/a	"625"	"arrowright"	n/a	"NULL"	"NULL"	"NULL"	"stimuli/VerticalHorizontal_28.75714_0.10960.png"	n/a	"VerticalHorizontal"	"arrowleft"	"1320"	"FALSE"	"VerticalHorizontal"	"28.757140000"	"0.1096000000"	"1"	"50"
n/a	"html-keyboard-response"	"117"	"8989974"	"0.0-5.0-2.0-0.32"	"40clyh"	"600"	"1024"	"chrome"	"109.0.0"	"FALSE"	"Windows 10"	"60.4"	"018"	n/a	n/a	n/a	n/a	n/a	n/a	"fixation"	n/a	n/a	n/a	n/a	"NULL"	n/a	"NULL"	"NULL"	"NULL"	"<p style=\"color: black; font-size: 80px; padding-left: 4%; padding-right: 11%; padding-top: 2%; padding-bottom: 21%\">+</p>"	"1403"	n/a	n/a	n/a	n/a	n/a	n/a	n/a	n/a	n/a
n/a	"image-keyboard-response"	"118"	"8990857"	"0.0-5.0-2.0-1.32"	"40clyh"	"600"	"1024"	"chrome"	"109.0.0"	"FALSE"	"Windows 10"	"60.4"	"018"	n/a	n/a	n/a	n/a	n/a	n/a	"Trial"	n/a	n/a	n/a	"882"	"arrowright"	n/a	"NULL"	"NULL"	"NULL"	"stimuli/VerticalHorizontal_20.27143_-0.2250.png"	n/a	"VerticalHorizontal"	"arrowright"	"1410"	"TRUE"	"VerticalHorizontal"	"20.271430000"	"-0.225000000"	"1"	"51"
n/a	"html-keyboard-response"	"119"	"8992035"	"0.0-5.0-2.0-0.33"	"40clyh"	"600"	"1024"	"chrome"	"109.0.0"	"FALSE"	"Windows 10"	"60.4"	"018"	n/a	n/a	n/a	n/a	n/a	n/a	"fixation"	n/a	n/a	n/a	n/a	"NULL"	n/a	"NULL"	"NULL"	"NULL"	"<p style=\"color: black; font-size: 80px; padding-left: 22%; padding-right: 41%; padding-top: 24%; padding-bottom: 47%\">+</p>"	"1169"	n/a	n/a	n/a	n/a	n/a	n/a	n/a	n/a	n/a
n/a	"image-keyboard-response"	"120"	"8992618"	"0.0-5.0-2.0-1.33"	"40clyh"	"600"	"1024"	"chrome"	"109.0.0"	"FALSE"	"Windows 10"	"60.4"	"018"	n/a	n/a	n/a	n/a	n/a	n/a	"Trial"	n/a	n/a	n/a	"582"	"arrowright"	n/a	"NULL"	"NULL"	"NULL"	"stimuli/VerticalHorizontal_-20.27143_-0.0673.png"	n/a	"VerticalHorizontal"	"arrowright"	"1178"	"TRUE"	"VerticalHorizontal"	"-20.27143000"	"-0.067300000"	"1"	"52"
n/a	"html-keyboard-response"	"121"	"8993914"	"0.0-5.0-2.0-0.34"	"40clyh"	"600"	"1024"	"chrome"	"109.0.0"	"FALSE"	"Windows 10"	"60.4"	"018"	n/a	n/a	n/a	n/a	n/a	n/a	"fixation"	n/a	n/a	n/a	n/a	"NULL"	n/a	"NULL"	"NULL"	"NULL"	"<p style=\"color: black; font-size: 80px; padding-left: 19%; padding-right: 3%; padding-top: 31%; padding-bottom: 32%\">+</p>"	"1277"	n/a	n/a	n/a	n/a	n/a	n/a	n/a	n/a	n/a
n/a	"image-keyboard-response"	"122"	"8994497"	"0.0-5.0-2.0-1.34"	"40clyh"	"600"	"1024"	"chrome"	"109.0.0"	"FALSE"	"Windows 10"	"60.4"	"018"	n/a	n/a	n/a	n/a	n/a	n/a	"Trial"	n/a	n/a	n/a	"582"	"arrowright"	n/a	"NULL"	"NULL"	"NULL"	"stimuli/VerticalHorizontal_-28.75714_-0.1096.png"	n/a	"VerticalHorizontal"	"arrowright"	"1296"	"TRUE"	"VerticalHorizontal"	"-28.75714000"	"-0.109600000"	"1"	"53"
n/a	"html-keyboard-response"	"123"	"8995699"	"0.0-5.0-2.0-0.35"	"40clyh"	"600"	"1024"	"chrome"	"109.0.0"	"FALSE"	"Windows 10"	"60.4"	"018"	n/a	n/a	n/a	n/a	n/a	n/a	"fixation"	n/a	n/a	n/a	n/a	"NULL"	n/a	"NULL"	"NULL"	"NULL"	"<p style=\"color: black; font-size: 80px; padding-left: 7%; padding-right: 10%; padding-top: 33%; padding-bottom: 2%\">+</p>"	"1182"	n/a	n/a	n/a	n/a	n/a	n/a	n/a	n/a	n/a
n/a	"image-keyboard-response"	"124"	"8996492"	"0.0-5.0-2.0-1.35"	"40clyh"	"600"	"1024"	"chrome"	"109.0.0"	"FALSE"	"Windows 10"	"60.4"	"018"	n/a	n/a	n/a	n/a	n/a	n/a	"Trial"	n/a	n/a	n/a	"791"	"arrowright"	n/a	"NULL"	"NULL"	"NULL"	"stimuli/VerticalHorizontal_-3.3000_-0.0673.png"	n/a	"VerticalHorizontal"	"arrowright"	"1202"	"TRUE"	"VerticalHorizontal"	"-3.300000000"	"-0.067300000"	"1"	"54"
n/a	"html-keyboard-response"	"125"	"8997532"	"0.0-5.0-2.0-0.36"	"40clyh"	"600"	"1024"	"chrome"	"109.0.0"	"FALSE"	"Windows 10"	"60.4"	"018"	n/a	n/a	n/a	n/a	n/a	n/a	"fixation"	n/a	n/a	n/a	n/a	"NULL"	n/a	"NULL"	"NULL"	"NULL"	"<p style=\"color: black; font-size: 80px; padding-left: 10%; padding-right: 40%; padding-top: 19%; padding-bottom: 5%\">+</p>"	"1022"	n/a	n/a	n/a	n/a	n/a	n/a	n/a	n/a	n/a
n/a	"image-keyboard-response"	"126"	"8998504"	"0.0-5.0-2.0-1.36"	"40clyh"	"600"	"1024"	"chrome"	"109.0.0"	"FALSE"	"Windows 10"	"60.4"	"018"	n/a	n/a	n/a	n/a	n/a	n/a	"Trial"	n/a	n/a	n/a	"972"	"arrowright"	n/a	"NULL"	"NULL"	"NULL"	"stimuli/VerticalHorizontal_3.30000_0.10960.png"	n/a	"VerticalHorizontal"	"arrowleft"	"1040"	"FALSE"	"VerticalHorizontal"	"3.3000000000"	"0.1096000000"	"1"	"55"
n/a	"html-keyboard-response"	"127"	"8999674"	"0.0-5.0-2.0-0.37"	"40clyh"	"600"	"1024"	"chrome"	"109.0.0"	"FALSE"	"Windows 10"	"60.4"	"018"	n/a	n/a	n/a	n/a	n/a	n/a	"fixation"	n/a	n/a	n/a	n/a	"NULL"	n/a	"NULL"	"NULL"	"NULL"	"<p style=\"color: black; font-size: 80px; padding-left: 33%; padding-right: 24%; padding-top: 48%; padding-bottom: 3%\">+</p>"	"1154"	n/a	n/a	n/a	n/a	n/a	n/a	n/a	n/a	n/a
n/a	"image-keyboard-response"	"128"	"9001264"	"0.0-5.0-2.0-1.37"	"40clyh"	"600"	"1024"	"chrome"	"109.0.0"	"FALSE"	"Windows 10"	"60.4"	"018"	n/a	n/a	n/a	n/a	n/a	n/a	"Trial"	n/a	n/a	n/a	"1589"	"arrowright"	n/a	"NULL"	"NULL"	"NULL"	"stimuli/VerticalHorizontal_3.30000_-0.1096.png"	n/a	"VerticalHorizontal"	"arrowright"	"1170"	"TRUE"	"VerticalHorizontal"	"3.3000000000"	"-0.109600000"	"1"	"56"
n/a	"html-keyboard-response"	"129"	"9002315"	"0.0-5.0-2.0-0.38"	"40clyh"	"600"	"1024"	"chrome"	"109.0.0"	"FALSE"	"Windows 10"	"60.4"	"018"	n/a	n/a	n/a	n/a	n/a	n/a	"fixation"	n/a	n/a	n/a	n/a	"NULL"	n/a	"NULL"	"NULL"	"NULL"	"<p style=\"color: black; font-size: 80px; padding-left: 37%; padding-right: 33%; padding-top: 14%; padding-bottom: 30%\">+</p>"	"1033"	n/a	n/a	n/a	n/a	n/a	n/a	n/a	n/a	n/a
n/a	"image-keyboard-response"	"130"	"9003265"	"0.0-5.0-2.0-1.38"	"40clyh"	"600"	"1024"	"chrome"	"109.0.0"	"FALSE"	"Windows 10"	"60.4"	"018"	n/a	n/a	n/a	n/a	n/a	n/a	"Trial"	n/a	n/a	n/a	"949"	"arrowright"	n/a	"NULL"	"NULL"	"NULL"	"stimuli/VerticalHorizontal_-11.78571_-0.1096.png"	n/a	"VerticalHorizontal"	"arrowright"	"1051"	"TRUE"	"VerticalHorizontal"	"-11.78571000"	"-0.109600000"	"1"	"57"
n/a	"html-keyboard-response"	"131"	"9004742"	"0.0-5.0-2.0-0.39"	"40clyh"	"600"	"1024"	"chrome"	"109.0.0"	"FALSE"	"Windows 10"	"60.4"	"018"	n/a	n/a	n/a	n/a	n/a	n/a	"fixation"	n/a	n/a	n/a	n/a	"NULL"	n/a	"NULL"	"NULL"	"NULL"	"<p style=\"color: black; font-size: 80px; padding-left: 9%; padding-right: 28%; padding-top: 2%; padding-bottom: 13%\">+</p>"	"1461"	n/a	n/a	n/a	n/a	n/a	n/a	n/a	n/a	n/a
n/a	"image-keyboard-response"	"132"	"9006101"	"0.0-5.0-2.0-1.39"	"40clyh"	"600"	"1024"	"chrome"	"109.0.0"	"FALSE"	"Windows 10"	"60.4"	"018"	n/a	n/a	n/a	n/a	n/a	n/a	"Trial"	n/a	n/a	n/a	"1357"	"arrowright"	n/a	"NULL"	"NULL"	"NULL"	"stimuli/VerticalHorizontal_20.27143_0.22500.png"	n/a	"VerticalHorizontal"	"arrowleft"	"1477"	"FALSE"	"VerticalHorizontal"	"20.271430000"	"0.2250000000"	"1"	"58"
n/a	"html-keyboard-response"	"133"	"9007523"	"0.0-5.0-2.0-0.40"	"40clyh"	"600"	"1024"	"chrome"	"109.0.0"	"FALSE"	"Windows 10"	"60.4"	"018"	n/a	n/a	n/a	n/a	n/a	n/a	"fixation"	n/a	n/a	n/a	n/a	"NULL"	n/a	"NULL"	"NULL"	"NULL"	"<p style=\"color: black; font-size: 80px; padding-left: 32%; padding-right: 26%; padding-top: 33%; padding-bottom: 35%\">+</p>"	"1403"	n/a	n/a	n/a	n/a	n/a	n/a	n/a	n/a	n/a
n/a	"image-keyboard-response"	"134"	"9008318"	"0.0-5.0-2.0-1.40"	"40clyh"	"600"	"1024"	"chrome"	"109.0.0"	"FALSE"	"Windows 10"	"60.4"	"018"	n/a	n/a	n/a	n/a	n/a	n/a	"Trial"	n/a	n/a	n/a	"795"	"arrowleft"	n/a	"NULL"	"NULL"	"NULL"	"stimuli/VerticalHorizontal_-11.78571_0.10960.png"	n/a	"VerticalHorizontal"	"arrowleft"	"1422"	"TRUE"	"VerticalHorizontal"	"-11.78571000"	"0.1096000000"	"1"	"59"
n/a	"html-keyboard-response"	"135"	"9009816"	"0.0-5.0-2.0-0.41"	"40clyh"	"600"	"1024"	"chrome"	"109.0.0"	"FALSE"	"Windows 10"	"60.4"	"018"	n/a	n/a	n/a	n/a	n/a	n/a	"fixation"	n/a	n/a	n/a	n/a	"NULL"	n/a	"NULL"	"NULL"	"NULL"	"<p style=\"color: black; font-size: 80px; padding-left: 7%; padding-right: 16%; padding-top: 36%; padding-bottom: 16%\">+</p>"	"1481"	n/a	n/a	n/a	n/a	n/a	n/a	n/a	n/a	n/a
n/a	"image-keyboard-response"	"136"	"9010348"	"0.0-5.0-2.0-1.41"	"40clyh"	"600"	"1024"	"chrome"	"109.0.0"	"FALSE"	"Windows 10"	"60.4"	"018"	n/a	n/a	n/a	n/a	n/a	n/a	"Trial"	n/a	n/a	n/a	"531"	"arrowright"	n/a	"NULL"	"NULL"	"NULL"	"stimuli/VerticalHorizontal_-11.78571_-0.0673.png"	n/a	"VerticalHorizontal"	"arrowright"	"1498"	"TRUE"	"VerticalHorizontal"	"-11.78571000"	"-0.067300000"	"1"	"60"
n/a	"html-keyboard-response"	"137"	"9011621"	"0.0-5.0-2.0-0.42"	"40clyh"	"600"	"1024"	"chrome"	"109.0.0"	"FALSE"	"Windows 10"	"60.4"	"018"	n/a	n/a	n/a	n/a	n/a	n/a	"fixation"	n/a	n/a	n/a	n/a	"NULL"	n/a	"NULL"	"NULL"	"NULL"	"<p style=\"color: black; font-size: 80px; padding-left: 23%; padding-right: 3%; padding-top: 48%; padding-bottom: 39%\">+</p>"	"1255"	n/a	n/a	n/a	n/a	n/a	n/a	n/a	n/a	n/a
n/a	"image-keyboard-response"	"138"	"9012369"	"0.0-5.0-2.0-1.42"	"40clyh"	"600"	"1024"	"chrome"	"109.0.0"	"FALSE"	"Windows 10"	"60.4"	"018"	n/a	n/a	n/a	n/a	n/a	n/a	"Trial"	n/a	n/a	n/a	"745"	"arrowleft"	n/a	"NULL"	"NULL"	"NULL"	"stimuli/VerticalHorizontal_-3.3000_0.16217.png"	n/a	"VerticalHorizontal"	"arrowleft"	"1273"	"TRUE"	"VerticalHorizontal"	"-3.300000000"	"0.1621700000"	"1"	"61"
n/a	"html-keyboard-response"	"139"	"9013570"	"0.0-5.0-2.0-0.43"	"40clyh"	"600"	"1024"	"chrome"	"109.0.0"	"FALSE"	"Windows 10"	"60.4"	"018"	n/a	n/a	n/a	n/a	n/a	n/a	"fixation"	n/a	n/a	n/a	n/a	"NULL"	n/a	"NULL"	"NULL"	"NULL"	"<p style=\"color: black; font-size: 80px; padding-left: 19%; padding-right: 31%; padding-top: 23%; padding-bottom: 9%\">+</p>"	"1179"	n/a	n/a	n/a	n/a	n/a	n/a	n/a	n/a	n/a
n/a	"image-keyboard-response"	"140"	"9014141"	"0.0-5.0-2.0-1.43"	"40clyh"	"600"	"1024"	"chrome"	"109.0.0"	"FALSE"	"Windows 10"	"60.4"	"018"	n/a	n/a	n/a	n/a	n/a	n/a	"Trial"	n/a	n/a	n/a	"569"	"arrowleft"	n/a	"NULL"	"NULL"	"NULL"	"stimuli/VerticalHorizontal_-28.75714_0.22500.png"	n/a	"VerticalHorizontal"	"arrowleft"	"1201"	"TRUE"	"VerticalHorizontal"	"-28.75714000"	"0.2250000000"	"1"	"62"
n/a	"html-keyboard-response"	"141"	"9015564"	"0.0-5.0-2.0-0.44"	"40clyh"	"600"	"1024"	"chrome"	"109.0.0"	"FALSE"	"Windows 10"	"60.4"	"018"	n/a	n/a	n/a	n/a	n/a	n/a	"fixation"	n/a	n/a	n/a	n/a	"NULL"	n/a	"NULL"	"NULL"	"NULL"	"<p style=\"color: black; font-size: 80px; padding-left: 28%; padding-right: 48%; padding-top: 13%; padding-bottom: 45%\">+</p>"	"1405"	n/a	n/a	n/a	n/a	n/a	n/a	n/a	n/a	n/a
n/a	"image-keyboard-response"	"142"	"9016628"	"0.0-5.0-2.0-1.44"	"40clyh"	"600"	"1024"	"chrome"	"109.0.0"	"FALSE"	"Windows 10"	"60.4"	"018"	n/a	n/a	n/a	n/a	n/a	n/a	"Trial"	n/a	n/a	n/a	"1063"	"arrowleft"	n/a	"NULL"	"NULL"	"NULL"	"stimuli/VerticalHorizontal_20.27143_0.10960.png"	n/a	"VerticalHorizontal"	"arrowleft"	"1423"	"TRUE"	"VerticalHorizontal"	"20.271430000"	"0.1096000000"	"1"	"63"
n/a	"html-keyboard-response"	"143"	"9018011"	"0.0-5.0-2.0-0.45"	"40clyh"	"600"	"1024"	"chrome"	"109.0.0"	"FALSE"	"Windows 10"	"60.4"	"018"	n/a	n/a	n/a	n/a	n/a	n/a	"fixation"	n/a	n/a	n/a	n/a	"NULL"	n/a	"NULL"	"NULL"	"NULL"	"<p style=\"color: black; font-size: 80px; padding-left: 35%; padding-right: 47%; padding-top: 7%; padding-bottom: 24%\">+</p>"	"1368"	n/a	n/a	n/a	n/a	n/a	n/a	n/a	n/a	n/a
n/a	"image-keyboard-response"	"144"	"9019123"	"0.0-5.0-2.0-1.45"	"40clyh"	"600"	"1024"	"chrome"	"109.0.0"	"FALSE"	"Windows 10"	"60.4"	"018"	n/a	n/a	n/a	n/a	n/a	n/a	"Trial"	n/a	n/a	n/a	"1111"	"arrowleft"	n/a	"NULL"	"NULL"	"NULL"	"stimuli/VerticalHorizontal_11.78571_0.22500.png"	n/a	"VerticalHorizontal"	"arrowleft"	"1383"	"TRUE"	"VerticalHorizontal"	"11.785710000"	"0.2250000000"	"1"	"64"
n/a	"html-keyboard-response"	"145"	"9020379"	"0.0-5.0-2.0-0.46"	"40clyh"	"600"	"1024"	"chrome"	"109.0.0"	"FALSE"	"Windows 10"	"60.4"	"018"	n/a	n/a	n/a	n/a	n/a	n/a	"fixation"	n/a	n/a	n/a	n/a	"NULL"	n/a	"NULL"	"NULL"	"NULL"	"<p style=\"color: black; font-size: 80px; padding-left: 23%; padding-right: 13%; padding-top: 21%; padding-bottom: 18%\">+</p>"	"1244"	n/a	n/a	n/a	n/a	n/a	n/a	n/a	n/a	n/a
n/a	"image-keyboard-response"	"146"	"9021001"	"0.0-5.0-2.0-1.46"	"40clyh"	"600"	"1024"	"chrome"	"109.0.0"	"FALSE"	"Windows 10"	"60.4"	"018"	n/a	n/a	n/a	n/a	n/a	n/a	"Trial"	n/a	n/a	n/a	"621"	"arrowright"	n/a	"NULL"	"NULL"	"NULL"	"stimuli/VerticalHorizontal_-3.3000_-0.2250.png"	n/a	"VerticalHorizontal"	"arrowright"	"1256"	"TRUE"	"VerticalHorizontal"	"-3.300000000"	"-0.225000000"	"1"	"65"
n/a	"html-keyboard-response"	"147"	"9022368"	"0.0-5.0-2.0-0.47"	"40clyh"	"600"	"1024"	"chrome"	"109.0.0"	"FALSE"	"Windows 10"	"60.4"	"018"	n/a	n/a	n/a	n/a	n/a	n/a	"fixation"	n/a	n/a	n/a	n/a	"NULL"	n/a	"NULL"	"NULL"	"NULL"	"<p style=\"color: black; font-size: 80px; padding-left: 14%; padding-right: 46%; padding-top: 41%; padding-bottom: 38%\">+</p>"	"1349"	n/a	n/a	n/a	n/a	n/a	n/a	n/a	n/a	n/a
n/a	"image-keyboard-response"	"148"	"9022947"	"0.0-5.0-2.0-1.47"	"40clyh"	"600"	"1024"	"chrome"	"109.0.0"	"FALSE"	"Windows 10"	"60.4"	"018"	n/a	n/a	n/a	n/a	n/a	n/a	"Trial"	n/a	n/a	n/a	"578"	"arrowright"	n/a	"NULL"	"NULL"	"NULL"	"stimuli/VerticalHorizontal_3.30000_-0.16217.png"	n/a	"VerticalHorizontal"	"arrowright"	"1367"	"TRUE"	"VerticalHorizontal"	"3.3000000000"	"-0.162170000"	"1"	"66"
n/a	"html-keyboard-response"	"149"	"9024262"	"0.0-5.0-2.0-0.48"	"40clyh"	"600"	"1024"	"chrome"	"109.0.0"	"FALSE"	"Windows 10"	"60.4"	"018"	n/a	n/a	n/a	n/a	n/a	n/a	"fixation"	n/a	n/a	n/a	n/a	"NULL"	n/a	"NULL"	"NULL"	"NULL"	"<p style=\"color: black; font-size: 80px; padding-left: 36%; padding-right: 43%; padding-top: 4%; padding-bottom: 42%\">+</p>"	"1299"	n/a	n/a	n/a	n/a	n/a	n/a	n/a	n/a	n/a
n/a	"image-keyboard-response"	"150"	"9025279"	"0.0-5.0-2.0-1.48"	"40clyh"	"600"	"1024"	"chrome"	"109.0.0"	"FALSE"	"Windows 10"	"60.4"	"018"	n/a	n/a	n/a	n/a	n/a	n/a	"Trial"	n/a	n/a	n/a	"1016"	"arrowleft"	n/a	"NULL"	"NULL"	"NULL"	"stimuli/VerticalHorizontal_-20.27143_0.10960.png"	n/a	"VerticalHorizontal"	"arrowleft"	"1315"	"TRUE"	"VerticalHorizontal"	"-20.27143000"	"0.1096000000"	"1"	"67"
n/a	"html-keyboard-response"	"151"	"9026643"	"0.0-5.0-2.0-0.49"	"40clyh"	"600"	"1024"	"chrome"	"109.0.0"	"FALSE"	"Windows 10"	"60.4"	"018"	n/a	n/a	n/a	n/a	n/a	n/a	"fixation"	n/a	n/a	n/a	n/a	"NULL"	n/a	"NULL"	"NULL"	"NULL"	"<p style=\"color: black; font-size: 80px; padding-left: 11%; padding-right: 13%; padding-top: 15%; padding-bottom: 19%\">+</p>"	"1343"	n/a	n/a	n/a	n/a	n/a	n/a	n/a	n/a	n/a
n/a	"image-keyboard-response"	"152"	"9027345"	"0.0-5.0-2.0-1.49"	"40clyh"	"600"	"1024"	"chrome"	"109.0.0"	"FALSE"	"Windows 10"	"60.4"	"018"	n/a	n/a	n/a	n/a	n/a	n/a	"Trial"	n/a	n/a	n/a	"700"	"arrowleft"	n/a	"NULL"	"NULL"	"NULL"	"stimuli/VerticalHorizontal_20.27143_0.16217.png"	n/a	"VerticalHorizontal"	"arrowleft"	"1364"	"TRUE"	"VerticalHorizontal"	"20.271430000"	"0.1621700000"	"1"	"68"
n/a	"html-keyboard-response"	"153"	"9028566"	"0.0-5.0-2.0-0.50"	"40clyh"	"600"	"1024"	"chrome"	"109.0.0"	"FALSE"	"Windows 10"	"60.4"	"018"	n/a	n/a	n/a	n/a	n/a	n/a	"fixation"	n/a	n/a	n/a	n/a	"NULL"	n/a	"NULL"	"NULL"	"NULL"	"<p style=\"color: black; font-size: 80px; padding-left: 9%; padding-right: 4%; padding-top: 28%; padding-bottom: 29%\">+</p>"	"1205"	n/a	n/a	n/a	n/a	n/a	n/a	n/a	n/a	n/a
n/a	"image-keyboard-response"	"154"	"9029802"	"0.0-5.0-2.0-1.50"	"40clyh"	"600"	"1024"	"chrome"	"109.0.0"	"FALSE"	"Windows 10"	"60.4"	"018"	n/a	n/a	n/a	n/a	n/a	n/a	"Trial"	n/a	n/a	n/a	"1235"	"arrowleft"	n/a	"NULL"	"NULL"	"NULL"	"stimuli/VerticalHorizontal_20.27143_-0.0673.png"	n/a	"VerticalHorizontal"	"arrowright"	"1221"	"FALSE"	"VerticalHorizontal"	"20.271430000"	"-0.067300000"	"1"	"69"
n/a	"html-keyboard-response"	"155"	"9030837"	"0.0-5.0-2.0-0.51"	"40clyh"	"600"	"1024"	"chrome"	"109.0.0"	"FALSE"	"Windows 10"	"60.4"	"018"	n/a	n/a	n/a	n/a	n/a	n/a	"fixation"	n/a	n/a	n/a	n/a	"NULL"	n/a	"NULL"	"NULL"	"NULL"	"<p style=\"color: black; font-size: 80px; padding-left: 34%; padding-right: 49%; padding-top: 24%; padding-bottom: 13%\">+</p>"	"1019"	n/a	n/a	n/a	n/a	n/a	n/a	n/a	n/a	n/a
n/a	"image-keyboard-response"	"156"	"9031435"	"0.0-5.0-2.0-1.51"	"40clyh"	"600"	"1024"	"chrome"	"109.0.0"	"FALSE"	"Windows 10"	"60.4"	"018"	n/a	n/a	n/a	n/a	n/a	n/a	"Trial"	n/a	n/a	n/a	"595"	"arrowright"	n/a	"NULL"	"NULL"	"NULL"	"stimuli/VerticalHorizontal_-3.3000_-0.1096.png"	n/a	"VerticalHorizontal"	"arrowright"	"1035"	"TRUE"	"VerticalHorizontal"	"-3.300000000"	"-0.109600000"	"1"	"70"
n/a	"html-keyboard-response"	"157"	"9032866"	"0.0-5.0-2.0-0.52"	"40clyh"	"600"	"1024"	"chrome"	"109.0.0"	"FALSE"	"Windows 10"	"60.4"	"018"	n/a	n/a	n/a	n/a	n/a	n/a	"fixation"	n/a	n/a	n/a	n/a	"NULL"	n/a	"NULL"	"NULL"	"NULL"	"<p style=\"color: black; font-size: 80px; padding-left: 3%; padding-right: 16%; padding-top: 29%; padding-bottom: 8%\">+</p>"	"1415"	n/a	n/a	n/a	n/a	n/a	n/a	n/a	n/a	n/a
n/a	"image-keyboard-response"	"158"	"9033451"	"0.0-5.0-2.0-1.52"	"40clyh"	"600"	"1024"	"chrome"	"109.0.0"	"FALSE"	"Windows 10"	"60.4"	"018"	n/a	n/a	n/a	n/a	n/a	n/a	"Trial"	n/a	n/a	n/a	"584"	"arrowleft"	n/a	"NULL"	"NULL"	"NULL"	"stimuli/VerticalHorizontal_-3.3000_0.22500.png"	n/a	"VerticalHorizontal"	"arrowleft"	"1431"	"TRUE"	"VerticalHorizontal"	"-3.300000000"	"0.2250000000"	"1"	"71"
n/a	"html-keyboard-response"	"159"	"9034821"	"0.0-5.0-2.0-0.53"	"40clyh"	"600"	"1024"	"chrome"	"109.0.0"	"FALSE"	"Windows 10"	"60.4"	"018"	n/a	n/a	n/a	n/a	n/a	n/a	"fixation"	n/a	n/a	n/a	n/a	"NULL"	n/a	"NULL"	"NULL"	"NULL"	"<p style=\"color: black; font-size: 80px; padding-left: 8%; padding-right: 44%; padding-top: 34%; padding-bottom: 39%\">+</p>"	"1350"	n/a	n/a	n/a	n/a	n/a	n/a	n/a	n/a	n/a
n/a	"image-keyboard-response"	"160"	"9035487"	"0.0-5.0-2.0-1.53"	"40clyh"	"600"	"1024"	"chrome"	"109.0.0"	"FALSE"	"Windows 10"	"60.4"	"018"	n/a	n/a	n/a	n/a	n/a	n/a	"Trial"	n/a	n/a	n/a	"665"	"arrowright"	n/a	"NULL"	"NULL"	"NULL"	"stimuli/VerticalHorizontal_11.78571_0.06730.png"	n/a	"VerticalHorizontal"	"arrowleft"	"1370"	"FALSE"	"VerticalHorizontal"	"11.785710000"	"0.0673000000"	"1"	"72"
n/a	"html-keyboard-response"	"161"	"9036616"	"0.0-5.0-2.0-0.54"	"40clyh"	"600"	"1024"	"chrome"	"109.0.0"	"FALSE"	"Windows 10"	"60.4"	"018"	n/a	n/a	n/a	n/a	n/a	n/a	"fixation"	n/a	n/a	n/a	n/a	"NULL"	n/a	"NULL"	"NULL"	"NULL"	"<p style=\"color: black; font-size: 80px; padding-left: 48%; padding-right: 23%; padding-top: 35%; padding-bottom: 8%\">+</p>"	"1116"	n/a	n/a	n/a	n/a	n/a	n/a	n/a	n/a	n/a
n/a	"image-keyboard-response"	"162"	"9037224"	"0.0-5.0-2.0-1.54"	"40clyh"	"600"	"1024"	"chrome"	"109.0.0"	"FALSE"	"Windows 10"	"60.4"	"018"	n/a	n/a	n/a	n/a	n/a	n/a	"Trial"	n/a	n/a	n/a	"607"	"arrowright"	n/a	"NULL"	"NULL"	"NULL"	"stimuli/VerticalHorizontal_20.27143_0.06730.png"	n/a	"VerticalHorizontal"	"arrowleft"	"1129"	"FALSE"	"VerticalHorizontal"	"20.271430000"	"0.0673000000"	"1"	"73"
n/a	"html-keyboard-response"	"163"	"9038631"	"0.0-5.0-2.0-0.55"	"40clyh"	"600"	"1024"	"chrome"	"109.0.0"	"FALSE"	"Windows 10"	"60.4"	"018"	n/a	n/a	n/a	n/a	n/a	n/a	"fixation"	n/a	n/a	n/a	n/a	"NULL"	n/a	"NULL"	"NULL"	"NULL"	"<p style=\"color: black; font-size: 80px; padding-left: 21%; padding-right: 46%; padding-top: 8%; padding-bottom: 1%\">+</p>"	"1395"	n/a	n/a	n/a	n/a	n/a	n/a	n/a	n/a	n/a
n/a	"image-keyboard-response"	"164"	"9039932"	"0.0-5.0-2.0-1.55"	"40clyh"	"600"	"1024"	"chrome"	"109.0.0"	"FALSE"	"Windows 10"	"60.4"	"018"	n/a	n/a	n/a	n/a	n/a	n/a	"Trial"	n/a	n/a	n/a	"1300"	"arrowleft"	n/a	"NULL"	"NULL"	"NULL"	"stimuli/VerticalHorizontal_28.75714_0.22500.png"	n/a	"VerticalHorizontal"	"arrowleft"	"1407"	"TRUE"	"VerticalHorizontal"	"28.757140000"	"0.2250000000"	"1"	"74"
n/a	"html-keyboard-response"	"165"	"9041395"	"0.0-5.0-2.0-0.56"	"40clyh"	"600"	"1024"	"chrome"	"109.0.0"	"FALSE"	"Windows 10"	"60.4"	"018"	n/a	n/a	n/a	n/a	n/a	n/a	"fixation"	n/a	n/a	n/a	n/a	"NULL"	n/a	"NULL"	"NULL"	"NULL"	"<p style=\"color: black; font-size: 80px; padding-left: 0%; padding-right: 14%; padding-top: 8%; padding-bottom: 29%\">+</p>"	"1441"	n/a	n/a	n/a	n/a	n/a	n/a	n/a	n/a	n/a
n/a	"image-keyboard-response"	"166"	"9044452"	"0.0-5.0-2.0-1.56"	"40clyh"	"600"	"1024"	"chrome"	"109.0.0"	"FALSE"	"Windows 10"	"60.4"	"018"	n/a	n/a	n/a	n/a	n/a	n/a	"Trial"	n/a	n/a	n/a	"3055"	"arrowleft"	n/a	"NULL"	"NULL"	"NULL"	"stimuli/VerticalHorizontal_28.75714_-0.2250.png"	n/a	"VerticalHorizontal"	"arrowright"	"1463"	"FALSE"	"VerticalHorizontal"	"28.757140000"	"-0.225000000"	"1"	"75"
n/a	"html-keyboard-response"	"167"	"9045538"	"0.0-5.0-2.0-0.57"	"40clyh"	"600"	"1024"	"chrome"	"109.0.0"	"FALSE"	"Windows 10"	"60.4"	"018"	n/a	n/a	n/a	n/a	n/a	n/a	"fixation"	n/a	n/a	n/a	n/a	"NULL"	n/a	"NULL"	"NULL"	"NULL"	"<p style=\"color: black; font-size: 80px; padding-left: 13%; padding-right: 46%; padding-top: 49%; padding-bottom: 35%\">+</p>"	"1075"	n/a	n/a	n/a	n/a	n/a	n/a	n/a	n/a	n/a
n/a	"image-keyboard-response"	"168"	"9046504"	"0.0-5.0-2.0-1.57"	"40clyh"	"600"	"1024"	"chrome"	"109.0.0"	"FALSE"	"Windows 10"	"60.4"	"018"	n/a	n/a	n/a	n/a	n/a	n/a	"Trial"	n/a	n/a	n/a	"964"	"arrowleft"	n/a	"NULL"	"NULL"	"NULL"	"stimuli/VerticalHorizontal_11.78571_-0.1096.png"	n/a	"VerticalHorizontal"	"arrowright"	"1086"	"FALSE"	"VerticalHorizontal"	"11.785710000"	"-0.109600000"	"1"	"76"
n/a	"html-keyboard-response"	"169"	"9047860"	"0.0-5.0-2.0-0.58"	"40clyh"	"600"	"1024"	"chrome"	"109.0.0"	"FALSE"	"Windows 10"	"60.4"	"018"	n/a	n/a	n/a	n/a	n/a	n/a	"fixation"	n/a	n/a	n/a	n/a	"NULL"	n/a	"NULL"	"NULL"	"NULL"	"<p style=\"color: black; font-size: 80px; padding-left: 8%; padding-right: 14%; padding-top: 41%; padding-bottom: 30%\">+</p>"	"1340"	n/a	n/a	n/a	n/a	n/a	n/a	n/a	n/a	n/a
n/a	"image-keyboard-response"	"170"	"9049511"	"0.0-5.0-2.0-1.58"	"40clyh"	"600"	"1024"	"chrome"	"109.0.0"	"FALSE"	"Windows 10"	"60.4"	"018"	n/a	n/a	n/a	n/a	n/a	n/a	"Trial"	n/a	n/a	n/a	"1650"	"arrowright"	n/a	"NULL"	"NULL"	"NULL"	"stimuli/VerticalHorizontal_-11.78571_-0.2250.png"	n/a	"VerticalHorizontal"	"arrowright"	"1356"	"TRUE"	"VerticalHorizontal"	"-11.78571000"	"-0.225000000"	"1"	"77"
n/a	"html-keyboard-response"	"171"	"9050521"	"0.0-5.0-2.0-0.59"	"40clyh"	"600"	"1024"	"chrome"	"109.0.0"	"FALSE"	"Windows 10"	"60.4"	"018"	n/a	n/a	n/a	n/a	n/a	n/a	"fixation"	n/a	n/a	n/a	n/a	"NULL"	n/a	"NULL"	"NULL"	"NULL"	"<p style=\"color: black; font-size: 80px; padding-left: 42%; padding-right: 38%; padding-top: 29%; padding-bottom: 29%\">+</p>"	"1001"	n/a	n/a	n/a	n/a	n/a	n/a	n/a	n/a	n/a
n/a	"image-keyboard-response"	"172"	"9051259"	"0.0-5.0-2.0-1.59"	"40clyh"	"600"	"1024"	"chrome"	"109.0.0"	"FALSE"	"Windows 10"	"60.4"	"018"	n/a	n/a	n/a	n/a	n/a	n/a	"Trial"	n/a	n/a	n/a	"737"	"arrowleft"	n/a	"NULL"	"NULL"	"NULL"	"stimuli/VerticalHorizontal_-11.78571_0.22500.png"	n/a	"VerticalHorizontal"	"arrowleft"	"1010"	"TRUE"	"VerticalHorizontal"	"-11.78571000"	"0.2250000000"	"1"	"78"
n/a	"html-keyboard-response"	"173"	"9052633"	"0.0-5.0-2.0-0.60"	"40clyh"	"600"	"1024"	"chrome"	"109.0.0"	"FALSE"	"Windows 10"	"60.4"	"018"	n/a	n/a	n/a	n/a	n/a	n/a	"fixation"	n/a	n/a	n/a	n/a	"NULL"	n/a	"NULL"	"NULL"	"NULL"	"<p style=\"color: black; font-size: 80px; padding-left: 2%; padding-right: 39%; padding-top: 24%; padding-bottom: 20%\">+</p>"	"1353"	n/a	n/a	n/a	n/a	n/a	n/a	n/a	n/a	n/a
n/a	"image-keyboard-response"	"174"	"9054192"	"0.0-5.0-2.0-1.60"	"40clyh"	"600"	"1024"	"chrome"	"109.0.0"	"FALSE"	"Windows 10"	"60.4"	"018"	n/a	n/a	n/a	n/a	n/a	n/a	"Trial"	n/a	n/a	n/a	"1557"	"arrowright"	n/a	"NULL"	"NULL"	"NULL"	"stimuli/VerticalHorizontal_28.75714_-0.16217.png"	n/a	"VerticalHorizontal"	"arrowright"	"1374"	"TRUE"	"VerticalHorizontal"	"28.757140000"	"-0.162170000"	"1"	"79"
n/a	"html-keyboard-response"	"175"	"9055293"	"0.0-5.0-2.0-0.61"	"40clyh"	"600"	"1024"	"chrome"	"109.0.0"	"FALSE"	"Windows 10"	"60.4"	"018"	n/a	n/a	n/a	n/a	n/a	n/a	"fixation"	n/a	n/a	n/a	n/a	"NULL"	n/a	"NULL"	"NULL"	"NULL"	"<p style=\"color: black; font-size: 80px; padding-left: 36%; padding-right: 11%; padding-top: 33%; padding-bottom: 13%\">+</p>"	"1087"	n/a	n/a	n/a	n/a	n/a	n/a	n/a	n/a	n/a
n/a	"image-keyboard-response"	"176"	"9063860"	"0.0-5.0-2.0-1.61"	"40clyh"	"600"	"1024"	"chrome"	"109.0.0"	"FALSE"	"Windows 10"	"60.4"	"018"	n/a	n/a	n/a	n/a	n/a	n/a	"Trial"	n/a	n/a	n/a	"8564"	"arrowleft"	n/a	"NULL"	"NULL"	"NULL"	"stimuli/VerticalHorizontal_-3.3000_0.06730.png"	n/a	"VerticalHorizontal"	"arrowleft"	"1101"	"TRUE"	"VerticalHorizontal"	"-3.300000000"	"0.0673000000"	"1"	"80"
n/a	"html-keyboard-response"	"177"	"9065022"	"0.0-5.0-2.0-0.62"	"40clyh"	"600"	"1024"	"chrome"	"109.0.0"	"FALSE"	"Windows 10"	"60.4"	"018"	n/a	n/a	n/a	n/a	n/a	n/a	"fixation"	n/a	n/a	n/a	n/a	"NULL"	n/a	"NULL"	"NULL"	"NULL"	"<p style=\"color: black; font-size: 80px; padding-left: 34%; padding-right: 34%; padding-top: 38%; padding-bottom: 27%\">+</p>"	"1137"	n/a	n/a	n/a	n/a	n/a	n/a	n/a	n/a	n/a
n/a	"image-keyboard-response"	"178"	"9065917"	"0.0-5.0-2.0-1.62"	"40clyh"	"600"	"1024"	"chrome"	"109.0.0"	"FALSE"	"Windows 10"	"60.4"	"018"	n/a	n/a	n/a	n/a	n/a	n/a	"Trial"	n/a	n/a	n/a	"894"	"arrowleft"	n/a	"NULL"	"NULL"	"NULL"	"stimuli/VerticalHorizontal_3.30000_0.16217.png"	n/a	"VerticalHorizontal"	"arrowleft"	"1162"	"TRUE"	"VerticalHorizontal"	"3.3000000000"	"0.1621700000"	"1"	"81"
n/a	"html-keyboard-response"	"179"	"9066993"	"0.0-5.0-2.0-0.63"	"40clyh"	"600"	"1024"	"chrome"	"109.0.0"	"FALSE"	"Windows 10"	"60.4"	"018"	n/a	n/a	n/a	n/a	n/a	n/a	"fixation"	n/a	n/a	n/a	n/a	"NULL"	n/a	"NULL"	"NULL"	"NULL"	"<p style=\"color: black; font-size: 80px; padding-left: 23%; padding-right: 5%; padding-top: 43%; padding-bottom: 28%\">+</p>"	"1064"	n/a	n/a	n/a	n/a	n/a	n/a	n/a	n/a	n/a
n/a	"image-keyboard-response"	"180"	"9067534"	"0.0-5.0-2.0-1.63"	"40clyh"	"600"	"1024"	"chrome"	"109.0.0"	"FALSE"	"Windows 10"	"60.4"	"018"	n/a	n/a	n/a	n/a	n/a	n/a	"Trial"	n/a	n/a	n/a	"536"	"arrowright"	n/a	"NULL"	"NULL"	"NULL"	"stimuli/VerticalHorizontal_-3.3000_-0.16217.png"	n/a	"VerticalHorizontal"	"arrowright"	"1076"	"TRUE"	"VerticalHorizontal"	"-3.300000000"	"-0.162170000"	"1"	"82"
n/a	"html-button-response"	"181"	"9091892"	"0.0-5.0-3.0"	"40clyh"	"600"	"1024"	"chrome"	"109.0.0"	"FALSE"	"Windows 10"	"60.4"	"018"	n/a	n/a	n/a	n/a	n/a	n/a	"block_results"	n/a	n/a	n/a	"24351"	"0"	n/a	"NULL"	"NULL"	"NULL"	"<p>Your score for this illusion is <p style=\"color: black; font-size: 48px; font-weight: bold;\">63.9 %</p><hr><p>Can you do better in the next illusion?</p>"	n/a	n/a	n/a	n/a	n/a	n/a	n/a	n/a	n/a	n/a
"TRUE"	"preload"	"182"	"9092096"	"0.0-6.0-0.0"	"40clyh"	"600"	"1024"	"chrome"	"109.0.0"	"FALSE"	"Windows 10"	"60.4"	"018"	n/a	n/a	n/a	n/a	n/a	n/a	n/a	n/a	n/a	n/a	n/a	"NULL"	"FALSE"	"list()"	"list()"	"list()"	n/a	n/a	n/a	n/a	n/a	n/a	n/a	n/a	n/a	n/a	n/a
n/a	"html-keyboard-response"	"183"	"9095769"	"0.0-6.0-1.0"	"40clyh"	"600"	"1024"	"chrome"	"109.0.0"	"FALSE"	"Windows 10"	"60.4"	"018"	n/a	n/a	n/a	n/a	n/a	n/a	n/a	n/a	n/a	n/a	"3672"	"enter"	n/a	"NULL"	"NULL"	"NULL"	"<p><b>Part 2/6</b></p><p>In this part, two red circles will appear side by side on the screen.</p><p>Your task is to select which <b>red circle is bigger</b> in size as fast as you can, without making errors.</p><p>Don't get distracted by the surrounding black circles around the red circles!</p><p>Press <b>the LEFT or the RIGHT arrow</b> to indicate which is the bigger <b>red circle.</b></p><div style='float: center'><img src='materials/instructions/Ebbinghaus_Demo.png' height='300'></img><p><img src='utils/answer/answer_leftright_keyboard.PNG' height='150'></img></p><p class='small'>In this example, the correct answer is the <b>LEFT arrow</b>.</p></div><p>Are you ready? <b>Press ENTER to start</b></p>"	n/a	n/a	n/a	n/a	n/a	n/a	n/a	n/a	n/a	n/a
n/a	"html-keyboard-response"	"184"	"9097404"	"0.0-6.0-2.0-0.0"	"40clyh"	"600"	"1024"	"chrome"	"109.0.0"	"FALSE"	"Windows 10"	"60.4"	"018"	n/a	n/a	n/a	n/a	n/a	n/a	"fixation"	n/a	n/a	n/a	n/a	"NULL"	n/a	"NULL"	"NULL"	"NULL"	"<p style=\"color: black; font-size: 80px; padding-left: 8%; padding-right: 16%; padding-top: 49%; padding-bottom: 40%\">+</p>"	"1109"	n/a	n/a	n/a	n/a	n/a	n/a	n/a	n/a	n/a
n/a	"image-keyboard-response"	"185"	"9098491"	"0.0-6.0-2.0-1.0"	"40clyh"	"600"	"1024"	"chrome"	"109.0.0"	"FALSE"	"Windows 10"	"60.4"	"018"	n/a	n/a	n/a	n/a	n/a	n/a	"Trial"	n/a	n/a	n/a	"1086"	"arrowright"	n/a	"NULL"	"NULL"	"NULL"	"stimuli/Ebbinghaus_0.87143_0.15857.png"	n/a	"Ebbinghaus"	"arrowleft"	"1635"	"FALSE"	"Ebbinghaus"	"0.8714300000"	"0.1585700000"	"2"	"1"
n/a	"html-keyboard-response"	"186"	"9099782"	"0.0-6.0-2.0-0.1"	"40clyh"	"600"	"1024"	"chrome"	"109.0.0"	"FALSE"	"Windows 10"	"60.4"	"018"	n/a	n/a	n/a	n/a	n/a	n/a	"fixation"	n/a	n/a	n/a	n/a	"NULL"	n/a	"NULL"	"NULL"	"NULL"	"<p style=\"color: black; font-size: 80px; padding-left: 39%; padding-right: 24%; padding-top: 45%; padding-bottom: 19%\">+</p>"	"1283"	n/a	n/a	n/a	n/a	n/a	n/a	n/a	n/a	n/a
n/a	"image-keyboard-response"	"187"	"9100519"	"0.0-6.0-2.0-1.1"	"40clyh"	"600"	"1024"	"chrome"	"109.0.0"	"FALSE"	"Windows 10"	"60.4"	"018"	n/a	n/a	n/a	n/a	n/a	n/a	"Trial"	n/a	n/a	n/a	"736"	"arrowright"	n/a	"NULL"	"NULL"	"NULL"	"stimuli/Ebbinghaus_-0.87143_-0.2150.png"	n/a	"Ebbinghaus"	"arrowright"	"1291"	"TRUE"	"Ebbinghaus"	"-0.871430000"	"-0.215000000"	"2"	"2"
n/a	"html-keyboard-response"	"188"	"9101658"	"0.0-6.0-2.0-0.2"	"40clyh"	"600"	"1024"	"chrome"	"109.0.0"	"FALSE"	"Windows 10"	"60.4"	"018"	n/a	n/a	n/a	n/a	n/a	n/a	"fixation"	n/a	n/a	n/a	n/a	"NULL"	n/a	"NULL"	"NULL"	"NULL"	"<p style=\"color: black; font-size: 80px; padding-left: 39%; padding-right: 14%; padding-top: 13%; padding-bottom: 36%\">+</p>"	"1127"	n/a	n/a	n/a	n/a	n/a	n/a	n/a	n/a	n/a
n/a	"image-keyboard-response"	"189"	"9103692"	"0.0-6.0-2.0-1.2"	"40clyh"	"600"	"1024"	"chrome"	"109.0.0"	"FALSE"	"Windows 10"	"60.4"	"018"	n/a	n/a	n/a	n/a	n/a	n/a	"Trial"	n/a	n/a	n/a	"2033"	"arrowleft"	n/a	"NULL"	"NULL"	"NULL"	"stimuli/Ebbinghaus_-0.1000_0.11071.png"	n/a	"Ebbinghaus"	"arrowleft"	"1139"	"TRUE"	"Ebbinghaus"	"-0.100000000"	"0.1107100000"	"2"	"3"
n/a	"html-keyboard-response"	"190"	"9104895"	"0.0-6.0-2.0-0.3"	"40clyh"	"600"	"1024"	"chrome"	"109.0.0"	"FALSE"	"Windows 10"	"60.4"	"018"	n/a	n/a	n/a	n/a	n/a	n/a	"fixation"	n/a	n/a	n/a	n/a	"NULL"	n/a	"NULL"	"NULL"	"NULL"	"<p style=\"color: black; font-size: 80px; padding-left: 37%; padding-right: 48%; padding-top: 9%; padding-bottom: 2%\">+</p>"	"1188"	n/a	n/a	n/a	n/a	n/a	n/a	n/a	n/a	n/a
n/a	"image-keyboard-response"	"191"	"9106043"	"0.0-6.0-2.0-1.3"	"40clyh"	"600"	"1024"	"chrome"	"109.0.0"	"FALSE"	"Windows 10"	"60.4"	"018"	n/a	n/a	n/a	n/a	n/a	n/a	"Trial"	n/a	n/a	n/a	"1146"	"arrowleft"	n/a	"NULL"	"NULL"	"NULL"	"stimuli/Ebbinghaus_0.87143_0.21500.png"	n/a	"Ebbinghaus"	"arrowleft"	"1203"	"TRUE"	"Ebbinghaus"	"0.8714300000"	"0.2150000000"	"2"	"4"
n/a	"html-keyboard-response"	"192"	"9107545"	"0.0-6.0-2.0-0.4"	"40clyh"	"600"	"1024"	"chrome"	"109.0.0"	"FALSE"	"Windows 10"	"60.4"	"018"	n/a	n/a	n/a	n/a	n/a	n/a	"fixation"	n/a	n/a	n/a	n/a	"NULL"	n/a	"NULL"	"NULL"	"NULL"	"<p style=\"color: black; font-size: 80px; padding-left: 33%; padding-right: 49%; padding-top: 30%; padding-bottom: 38%\">+</p>"	"1486"	n/a	n/a	n/a	n/a	n/a	n/a	n/a	n/a	n/a
n/a	"image-keyboard-response"	"193"	"9108327"	"0.0-6.0-2.0-1.4"	"40clyh"	"600"	"1024"	"chrome"	"109.0.0"	"FALSE"	"Windows 10"	"60.4"	"018"	n/a	n/a	n/a	n/a	n/a	n/a	"Trial"	n/a	n/a	n/a	"782"	"arrowleft"	n/a	"NULL"	"NULL"	"NULL"	"stimuli/Ebbinghaus_0.61429_0.28000.png"	n/a	"Ebbinghaus"	"arrowleft"	"1502"	"TRUE"	"Ebbinghaus"	"0.6142900000"	"0.2800000000"	"2"	"5"
n/a	"html-keyboard-response"	"194"	"9109524"	"0.0-6.0-2.0-0.5"	"40clyh"	"600"	"1024"	"chrome"	"109.0.0"	"FALSE"	"Windows 10"	"60.4"	"018"	n/a	n/a	n/a	n/a	n/a	n/a	"fixation"	n/a	n/a	n/a	n/a	"NULL"	n/a	"NULL"	"NULL"	"NULL"	"<p style=\"color: black; font-size: 80px; padding-left: 33%; padding-right: 22%; padding-top: 47%; padding-bottom: 12%\">+</p>"	"1179"	n/a	n/a	n/a	n/a	n/a	n/a	n/a	n/a	n/a
n/a	"image-keyboard-response"	"195"	"9110161"	"0.0-6.0-2.0-1.5"	"40clyh"	"600"	"1024"	"chrome"	"109.0.0"	"FALSE"	"Windows 10"	"60.4"	"018"	n/a	n/a	n/a	n/a	n/a	n/a	"Trial"	n/a	n/a	n/a	"636"	"arrowright"	n/a	"NULL"	"NULL"	"NULL"	"stimuli/Ebbinghaus_0.87143_-0.15857.png"	n/a	"Ebbinghaus"	"arrowright"	"1197"	"TRUE"	"Ebbinghaus"	"0.8714300000"	"-0.158570000"	"2"	"6"
n/a	"html-keyboard-response"	"196"	"9111476"	"0.0-6.0-2.0-0.6"	"40clyh"	"600"	"1024"	"chrome"	"109.0.0"	"FALSE"	"Windows 10"	"60.4"	"018"	n/a	n/a	n/a	n/a	n/a	n/a	"fixation"	n/a	n/a	n/a	n/a	"NULL"	n/a	"NULL"	"NULL"	"NULL"	"<p style=\"color: black; font-size: 80px; padding-left: 15%; padding-right: 27%; padding-top: 6%; padding-bottom: 4%\">+</p>"	"1302"	n/a	n/a	n/a	n/a	n/a	n/a	n/a	n/a	n/a
n/a	"image-keyboard-response"	"197"	"9112523"	"0.0-6.0-2.0-1.6"	"40clyh"	"600"	"1024"	"chrome"	"109.0.0"	"FALSE"	"Windows 10"	"60.4"	"018"	n/a	n/a	n/a	n/a	n/a	n/a	"Trial"	n/a	n/a	n/a	"1046"	"arrowright"	n/a	"NULL"	"NULL"	"NULL"	"stimuli/Ebbinghaus_0.87143_0.11071.png"	n/a	"Ebbinghaus"	"arrowleft"	"1315"	"FALSE"	"Ebbinghaus"	"0.8714300000"	"0.1107100000"	"2"	"7"
n/a	"html-keyboard-response"	"198"	"9113564"	"0.0-6.0-2.0-0.7"	"40clyh"	"600"	"1024"	"chrome"	"109.0.0"	"FALSE"	"Windows 10"	"60.4"	"018"	n/a	n/a	n/a	n/a	n/a	n/a	"fixation"	n/a	n/a	n/a	n/a	"NULL"	n/a	"NULL"	"NULL"	"NULL"	"<p style=\"color: black; font-size: 80px; padding-left: 23%; padding-right: 45%; padding-top: 13%; padding-bottom: 32%\">+</p>"	"1020"	n/a	n/a	n/a	n/a	n/a	n/a	n/a	n/a	n/a
n/a	"image-keyboard-response"	"199"	"9114734"	"0.0-6.0-2.0-1.7"	"40clyh"	"600"	"1024"	"chrome"	"109.0.0"	"FALSE"	"Windows 10"	"60.4"	"018"	n/a	n/a	n/a	n/a	n/a	n/a	"Trial"	n/a	n/a	n/a	"1169"	"arrowleft"	n/a	"NULL"	"NULL"	"NULL"	"stimuli/Ebbinghaus_0.61429_0.15857.png"	n/a	"Ebbinghaus"	"arrowleft"	"1041"	"TRUE"	"Ebbinghaus"	"0.6142900000"	"0.1585700000"	"2"	"8"
n/a	"html-keyboard-response"	"200"	"9115985"	"0.0-6.0-2.0-0.8"	"40clyh"	"600"	"1024"	"chrome"	"109.0.0"	"FALSE"	"Windows 10"	"60.4"	"018"	n/a	n/a	n/a	n/a	n/a	n/a	"fixation"	n/a	n/a	n/a	n/a	"NULL"	n/a	"NULL"	"NULL"	"NULL"	"<p style=\"color: black; font-size: 80px; padding-left: 11%; padding-right: 3%; padding-top: 25%; padding-bottom: 29%\">+</p>"	"1236"	n/a	n/a	n/a	n/a	n/a	n/a	n/a	n/a	n/a
n/a	"image-keyboard-response"	"201"	"9116683"	"0.0-6.0-2.0-1.8"	"40clyh"	"600"	"1024"	"chrome"	"109.0.0"	"FALSE"	"Windows 10"	"60.4"	"018"	n/a	n/a	n/a	n/a	n/a	n/a	"Trial"	n/a	n/a	n/a	"687"	"arrowright"	n/a	"NULL"	"NULL"	"NULL"	"stimuli/Ebbinghaus_0.35714_-0.2800.png"	n/a	"Ebbinghaus"	"arrowright"	"1251"	"TRUE"	"Ebbinghaus"	"0.3571400000"	"-0.280000000"	"2"	"9"
n/a	"html-keyboard-response"	"202"	"9118049"	"0.0-6.0-2.0-0.9"	"40clyh"	"600"	"1024"	"chrome"	"109.0.0"	"FALSE"	"Windows 10"	"60.4"	"018"	n/a	n/a	n/a	n/a	n/a	n/a	"fixation"	n/a	n/a	n/a	n/a	"NULL"	n/a	"NULL"	"NULL"	"NULL"	"<p style=\"color: black; font-size: 80px; padding-left: 6%; padding-right: 42%; padding-top: 22%; padding-bottom: 43%\">+</p>"	"1351"	n/a	n/a	n/a	n/a	n/a	n/a	n/a	n/a	n/a
n/a	"image-keyboard-response"	"203"	"9118662"	"0.0-6.0-2.0-1.9"	"40clyh"	"600"	"1024"	"chrome"	"109.0.0"	"FALSE"	"Windows 10"	"60.4"	"018"	n/a	n/a	n/a	n/a	n/a	n/a	"Trial"	n/a	n/a	n/a	"611"	"arrowleft"	n/a	"NULL"	"NULL"	"NULL"	"stimuli/Ebbinghaus_0.35714_0.21500.png"	n/a	"Ebbinghaus"	"arrowleft"	"1366"	"TRUE"	"Ebbinghaus"	"0.3571400000"	"0.2150000000"	"2"	"10"
n/a	"html-keyboard-response"	"204"	"9119882"	"0.0-6.0-2.0-0.10"	"40clyh"	"600"	"1024"	"chrome"	"109.0.0"	"FALSE"	"Windows 10"	"60.4"	"018"	n/a	n/a	n/a	n/a	n/a	n/a	"fixation"	n/a	n/a	n/a	n/a	"NULL"	n/a	"NULL"	"NULL"	"NULL"	"<p style=\"color: black; font-size: 80px; padding-left: 12%; padding-right: 17%; padding-top: 18%; padding-bottom: 25%\">+</p>"	"1209"	n/a	n/a	n/a	n/a	n/a	n/a	n/a	n/a	n/a
n/a	"image-keyboard-response"	"205"	"9120743"	"0.0-6.0-2.0-1.10"	"40clyh"	"600"	"1024"	"chrome"	"109.0.0"	"FALSE"	"Windows 10"	"60.4"	"018"	n/a	n/a	n/a	n/a	n/a	n/a	"Trial"	n/a	n/a	n/a	"859"	"arrowright"	n/a	"NULL"	"NULL"	"NULL"	"stimuli/Ebbinghaus_-0.1000_-0.2800.png"	n/a	"Ebbinghaus"	"arrowright"	"1220"	"TRUE"	"Ebbinghaus"	"-0.100000000"	"-0.280000000"	"2"	"11"
n/a	"html-keyboard-response"	"206"	"9121818"	"0.0-6.0-2.0-0.11"	"40clyh"	"600"	"1024"	"chrome"	"109.0.0"	"FALSE"	"Windows 10"	"60.4"	"018"	n/a	n/a	n/a	n/a	n/a	n/a	"fixation"	n/a	n/a	n/a	n/a	"NULL"	n/a	"NULL"	"NULL"	"NULL"	"<p style=\"color: black; font-size: 80px; padding-left: 38%; padding-right: 26%; padding-top: 14%; padding-bottom: 45%\">+</p>"	"1069"	n/a	n/a	n/a	n/a	n/a	n/a	n/a	n/a	n/a
n/a	"image-keyboard-response"	"207"	"9122452"	"0.0-6.0-2.0-1.11"	"40clyh"	"600"	"1024"	"chrome"	"109.0.0"	"FALSE"	"Windows 10"	"60.4"	"018"	n/a	n/a	n/a	n/a	n/a	n/a	"Trial"	n/a	n/a	n/a	"633"	"arrowright"	n/a	"NULL"	"NULL"	"NULL"	"stimuli/Ebbinghaus_0.35714_-0.11071.png"	n/a	"Ebbinghaus"	"arrowright"	"1075"	"TRUE"	"Ebbinghaus"	"0.3571400000"	"-0.110710000"	"2"	"12"
n/a	"html-keyboard-response"	"208"	"9123735"	"0.0-6.0-2.0-0.12"	"40clyh"	"600"	"1024"	"chrome"	"109.0.0"	"FALSE"	"Windows 10"	"60.4"	"018"	n/a	n/a	n/a	n/a	n/a	n/a	"fixation"	n/a	n/a	n/a	n/a	"NULL"	n/a	"NULL"	"NULL"	"NULL"	"<p style=\"color: black; font-size: 80px; padding-left: 45%; padding-right: 37%; padding-top: 18%; padding-bottom: 39%\">+</p>"	"1268"	n/a	n/a	n/a	n/a	n/a	n/a	n/a	n/a	n/a
n/a	"image-keyboard-response"	"209"	"9124340"	"0.0-6.0-2.0-1.12"	"40clyh"	"600"	"1024"	"chrome"	"109.0.0"	"FALSE"	"Windows 10"	"60.4"	"018"	n/a	n/a	n/a	n/a	n/a	n/a	"Trial"	n/a	n/a	n/a	"604"	"arrowleft"	n/a	"NULL"	"NULL"	"NULL"	"stimuli/Ebbinghaus_-0.61429_0.28000.png"	n/a	"Ebbinghaus"	"arrowleft"	"1283"	"TRUE"	"Ebbinghaus"	"-0.614290000"	"0.2800000000"	"2"	"13"
n/a	"html-keyboard-response"	"210"	"9125800"	"0.0-6.0-2.0-0.13"	"40clyh"	"600"	"1024"	"chrome"	"109.0.0"	"FALSE"	"Windows 10"	"60.4"	"018"	n/a	n/a	n/a	n/a	n/a	n/a	"fixation"	n/a	n/a	n/a	n/a	"NULL"	n/a	"NULL"	"NULL"	"NULL"	"<p style=\"color: black; font-size: 80px; padding-left: 40%; padding-right: 4%; padding-top: 37%; padding-bottom: 35%\">+</p>"	"1449"	n/a	n/a	n/a	n/a	n/a	n/a	n/a	n/a	n/a
n/a	"image-keyboard-response"	"211"	"9126681"	"0.0-6.0-2.0-1.13"	"40clyh"	"600"	"1024"	"chrome"	"109.0.0"	"FALSE"	"Windows 10"	"60.4"	"018"	n/a	n/a	n/a	n/a	n/a	n/a	"Trial"	n/a	n/a	n/a	"880"	"arrowright"	n/a	"NULL"	"NULL"	"NULL"	"stimuli/Ebbinghaus_-0.35714_-0.2800.png"	n/a	"Ebbinghaus"	"arrowright"	"1460"	"TRUE"	"Ebbinghaus"	"-0.357140000"	"-0.280000000"	"2"	"14"
n/a	"html-keyboard-response"	"212"	"9127944"	"0.0-6.0-2.0-0.14"	"40clyh"	"600"	"1024"	"chrome"	"109.0.0"	"FALSE"	"Windows 10"	"60.4"	"018"	n/a	n/a	n/a	n/a	n/a	n/a	"fixation"	n/a	n/a	n/a	n/a	"NULL"	n/a	"NULL"	"NULL"	"NULL"	"<p style=\"color: black; font-size: 80px; padding-left: 27%; padding-right: 18%; padding-top: 6%; padding-bottom: 12%\">+</p>"	"1248"	n/a	n/a	n/a	n/a	n/a	n/a	n/a	n/a	n/a
n/a	"image-keyboard-response"	"213"	"9128852"	"0.0-6.0-2.0-1.14"	"40clyh"	"600"	"1024"	"chrome"	"109.0.0"	"FALSE"	"Windows 10"	"60.4"	"018"	n/a	n/a	n/a	n/a	n/a	n/a	"Trial"	n/a	n/a	n/a	"906"	"arrowleft"	n/a	"NULL"	"NULL"	"NULL"	"stimuli/Ebbinghaus_-0.1000_0.21500.png"	n/a	"Ebbinghaus"	"arrowleft"	"1263"	"TRUE"	"Ebbinghaus"	"-0.100000000"	"0.2150000000"	"2"	"15"
n/a	"html-keyboard-response"	"214"	"9129910"	"0.0-6.0-2.0-0.15"	"40clyh"	"600"	"1024"	"chrome"	"109.0.0"	"FALSE"	"Windows 10"	"60.4"	"018"	n/a	n/a	n/a	n/a	n/a	n/a	"fixation"	n/a	n/a	n/a	n/a	"NULL"	n/a	"NULL"	"NULL"	"NULL"	"<p style=\"color: black; font-size: 80px; padding-left: 28%; padding-right: 26%; padding-top: 45%; padding-bottom: 17%\">+</p>"	"1042"	n/a	n/a	n/a	n/a	n/a	n/a	n/a	n/a	n/a
n/a	"image-keyboard-response"	"215"	"9131127"	"0.0-6.0-2.0-1.15"	"40clyh"	"600"	"1024"	"chrome"	"109.0.0"	"FALSE"	"Windows 10"	"60.4"	"018"	n/a	n/a	n/a	n/a	n/a	n/a	"Trial"	n/a	n/a	n/a	"1216"	"arrowleft"	n/a	"NULL"	"NULL"	"NULL"	"stimuli/Ebbinghaus_-0.1000_0.15857.png"	n/a	"Ebbinghaus"	"arrowleft"	"1058"	"TRUE"	"Ebbinghaus"	"-0.100000000"	"0.1585700000"	"2"	"16"
n/a	"html-keyboard-response"	"216"	"9132553"	"0.0-6.0-2.0-0.16"	"40clyh"	"600"	"1024"	"chrome"	"109.0.0"	"FALSE"	"Windows 10"	"60.4"	"018"	n/a	n/a	n/a	n/a	n/a	n/a	"fixation"	n/a	n/a	n/a	n/a	"NULL"	n/a	"NULL"	"NULL"	"NULL"	"<p style=\"color: black; font-size: 80px; padding-left: 16%; padding-right: 14%; padding-top: 14%; padding-bottom: 35%\">+</p>"	"1411"	n/a	n/a	n/a	n/a	n/a	n/a	n/a	n/a	n/a
n/a	"image-keyboard-response"	"217"	"9133551"	"0.0-6.0-2.0-1.16"	"40clyh"	"600"	"1024"	"chrome"	"109.0.0"	"FALSE"	"Windows 10"	"60.4"	"018"	n/a	n/a	n/a	n/a	n/a	n/a	"Trial"	n/a	n/a	n/a	"996"	"arrowright"	n/a	"NULL"	"NULL"	"NULL"	"stimuli/Ebbinghaus_-0.61429_-0.11071.png"	n/a	"Ebbinghaus"	"arrowright"	"1426"	"TRUE"	"Ebbinghaus"	"-0.614290000"	"-0.110710000"	"2"	"17"
n/a	"html-keyboard-response"	"218"	"9134907"	"0.0-6.0-2.0-0.17"	"40clyh"	"600"	"1024"	"chrome"	"109.0.0"	"FALSE"	"Windows 10"	"60.4"	"018"	n/a	n/a	n/a	n/a	n/a	n/a	"fixation"	n/a	n/a	n/a	n/a	"NULL"	n/a	"NULL"	"NULL"	"NULL"	"<p style=\"color: black; font-size: 80px; padding-left: 18%; padding-right: 9%; padding-top: 11%; padding-bottom: 36%\">+</p>"	"1342"	n/a	n/a	n/a	n/a	n/a	n/a	n/a	n/a	n/a
n/a	"image-keyboard-response"	"219"	"9135574"	"0.0-6.0-2.0-1.17"	"40clyh"	"600"	"1024"	"chrome"	"109.0.0"	"FALSE"	"Windows 10"	"60.4"	"018"	n/a	n/a	n/a	n/a	n/a	n/a	"Trial"	n/a	n/a	n/a	"665"	"arrowright"	n/a	"NULL"	"NULL"	"NULL"	"stimuli/Ebbinghaus_-0.1000_-0.2150.png"	n/a	"Ebbinghaus"	"arrowright"	"1356"	"TRUE"	"Ebbinghaus"	"-0.100000000"	"-0.215000000"	"2"	"18"
n/a	"html-keyboard-response"	"220"	"9136833"	"0.0-6.0-2.0-0.18"	"40clyh"	"600"	"1024"	"chrome"	"109.0.0"	"FALSE"	"Windows 10"	"60.4"	"018"	n/a	n/a	n/a	n/a	n/a	n/a	"fixation"	n/a	n/a	n/a	n/a	"NULL"	n/a	"NULL"	"NULL"	"NULL"	"<p style=\"color: black; font-size: 80px; padding-left: 33%; padding-right: 35%; padding-top: 32%; padding-bottom: 25%\">+</p>"	"1253"	n/a	n/a	n/a	n/a	n/a	n/a	n/a	n/a	n/a
n/a	"image-keyboard-response"	"221"	"9137541"	"0.0-6.0-2.0-1.18"	"40clyh"	"600"	"1024"	"chrome"	"109.0.0"	"FALSE"	"Windows 10"	"60.4"	"018"	n/a	n/a	n/a	n/a	n/a	n/a	"Trial"	n/a	n/a	n/a	"707"	"arrowleft"	n/a	"NULL"	"NULL"	"NULL"	"stimuli/Ebbinghaus_0.87143_-0.11071.png"	n/a	"Ebbinghaus"	"arrowright"	"1259"	"FALSE"	"Ebbinghaus"	"0.8714300000"	"-0.110710000"	"2"	"19"
n/a	"html-keyboard-response"	"222"	"9138755"	"0.0-6.0-2.0-0.19"	"40clyh"	"600"	"1024"	"chrome"	"109.0.0"	"FALSE"	"Windows 10"	"60.4"	"018"	n/a	n/a	n/a	n/a	n/a	n/a	"fixation"	n/a	n/a	n/a	n/a	"NULL"	n/a	"NULL"	"NULL"	"NULL"	"<p style=\"color: black; font-size: 80px; padding-left: 3%; padding-right: 21%; padding-top: 9%; padding-bottom: 41%\">+</p>"	"1206"	n/a	n/a	n/a	n/a	n/a	n/a	n/a	n/a	n/a
n/a	"image-keyboard-response"	"223"	"9139863"	"0.0-6.0-2.0-1.19"	"40clyh"	"600"	"1024"	"chrome"	"109.0.0"	"FALSE"	"Windows 10"	"60.4"	"018"	n/a	n/a	n/a	n/a	n/a	n/a	"Trial"	n/a	n/a	n/a	"1106"	"arrowleft"	n/a	"NULL"	"NULL"	"NULL"	"stimuli/Ebbinghaus_-0.35714_0.11071.png"	n/a	"Ebbinghaus"	"arrowleft"	"1214"	"TRUE"	"Ebbinghaus"	"-0.357140000"	"0.1107100000"	"2"	"20"
n/a	"html-keyboard-response"	"224"	"9141236"	"0.0-6.0-2.0-0.20"	"40clyh"	"600"	"1024"	"chrome"	"109.0.0"	"FALSE"	"Windows 10"	"60.4"	"018"	n/a	n/a	n/a	n/a	n/a	n/a	"fixation"	n/a	n/a	n/a	n/a	"NULL"	n/a	"NULL"	"NULL"	"NULL"	"<p style=\"color: black; font-size: 80px; padding-left: 12%; padding-right: 44%; padding-top: 15%; padding-bottom: 1%\">+</p>"	"1352"	n/a	n/a	n/a	n/a	n/a	n/a	n/a	n/a	n/a
n/a	"image-keyboard-response"	"225"	"9142557"	"0.0-6.0-2.0-1.20"	"40clyh"	"600"	"1024"	"chrome"	"109.0.0"	"FALSE"	"Windows 10"	"60.4"	"018"	n/a	n/a	n/a	n/a	n/a	n/a	"Trial"	n/a	n/a	n/a	"1320"	"arrowleft"	n/a	"NULL"	"NULL"	"NULL"	"stimuli/Ebbinghaus_0.87143_-0.2150.png"	n/a	"Ebbinghaus"	"arrowright"	"1373"	"FALSE"	"Ebbinghaus"	"0.8714300000"	"-0.215000000"	"2"	"21"
n/a	"html-keyboard-response"	"226"	"9143644"	"0.0-6.0-2.0-0.21"	"40clyh"	"600"	"1024"	"chrome"	"109.0.0"	"FALSE"	"Windows 10"	"60.4"	"018"	n/a	n/a	n/a	n/a	n/a	n/a	"fixation"	n/a	n/a	n/a	n/a	"NULL"	n/a	"NULL"	"NULL"	"NULL"	"<p style=\"color: black; font-size: 80px; padding-left: 49%; padding-right: 28%; padding-top: 14%; padding-bottom: 45%\">+</p>"	"1067"	n/a	n/a	n/a	n/a	n/a	n/a	n/a	n/a	n/a
n/a	"image-keyboard-response"	"227"	"9144624"	"0.0-6.0-2.0-1.21"	"40clyh"	"600"	"1024"	"chrome"	"109.0.0"	"FALSE"	"Windows 10"	"60.4"	"018"	n/a	n/a	n/a	n/a	n/a	n/a	"Trial"	n/a	n/a	n/a	"979"	"arrowleft"	n/a	"NULL"	"NULL"	"NULL"	"stimuli/Ebbinghaus_0.35714_0.15857.png"	n/a	"Ebbinghaus"	"arrowleft"	"1087"	"TRUE"	"Ebbinghaus"	"0.3571400000"	"0.1585700000"	"2"	"22"
n/a	"html-keyboard-response"	"228"	"9145736"	"0.0-6.0-2.0-0.22"	"40clyh"	"600"	"1024"	"chrome"	"109.0.0"	"FALSE"	"Windows 10"	"60.4"	"018"	n/a	n/a	n/a	n/a	n/a	n/a	"fixation"	n/a	n/a	n/a	n/a	"NULL"	n/a	"NULL"	"NULL"	"NULL"	"<p style=\"color: black; font-size: 80px; padding-left: 19%; padding-right: 42%; padding-top: 4%; padding-bottom: 0%\">+</p>"	"1100"	n/a	n/a	n/a	n/a	n/a	n/a	n/a	n/a	n/a
n/a	"image-keyboard-response"	"229"	"9146702"	"0.0-6.0-2.0-1.22"	"40clyh"	"600"	"1024"	"chrome"	"109.0.0"	"FALSE"	"Windows 10"	"60.4"	"018"	n/a	n/a	n/a	n/a	n/a	n/a	"Trial"	n/a	n/a	n/a	"965"	"arrowright"	n/a	"NULL"	"NULL"	"NULL"	"stimuli/Ebbinghaus_-0.35714_-0.11071.png"	n/a	"Ebbinghaus"	"arrowright"	"1112"	"TRUE"	"Ebbinghaus"	"-0.357140000"	"-0.110710000"	"2"	"23"
n/a	"html-keyboard-response"	"230"	"9148059"	"0.0-6.0-2.0-0.23"	"40clyh"	"600"	"1024"	"chrome"	"109.0.0"	"FALSE"	"Windows 10"	"60.4"	"018"	n/a	n/a	n/a	n/a	n/a	n/a	"fixation"	n/a	n/a	n/a	n/a	"NULL"	n/a	"NULL"	"NULL"	"NULL"	"<p style=\"color: black; font-size: 80px; padding-left: 43%; padding-right: 9%; padding-top: 48%; padding-bottom: 42%\">+</p>"	"1339"	n/a	n/a	n/a	n/a	n/a	n/a	n/a	n/a	n/a
n/a	"image-keyboard-response"	"231"	"9148871"	"0.0-6.0-2.0-1.23"	"40clyh"	"600"	"1024"	"chrome"	"109.0.0"	"FALSE"	"Windows 10"	"60.4"	"018"	n/a	n/a	n/a	n/a	n/a	n/a	"Trial"	n/a	n/a	n/a	"808"	"arrowleft"	n/a	"NULL"	"NULL"	"NULL"	"stimuli/Ebbinghaus_-0.87143_0.28000.png"	n/a	"Ebbinghaus"	"arrowleft"	"1357"	"TRUE"	"Ebbinghaus"	"-0.871430000"	"0.2800000000"	"2"	"24"
n/a	"html-keyboard-response"	"232"	"9150216"	"0.0-6.0-2.0-0.24"	"40clyh"	"600"	"1024"	"chrome"	"109.0.0"	"FALSE"	"Windows 10"	"60.4"	"018"	n/a	n/a	n/a	n/a	n/a	n/a	"fixation"	n/a	n/a	n/a	n/a	"NULL"	n/a	"NULL"	"NULL"	"NULL"	"<p style=\"color: black; font-size: 80px; padding-left: 49%; padding-right: 36%; padding-top: 32%; padding-bottom: 25%\">+</p>"	"1332"	n/a	n/a	n/a	n/a	n/a	n/a	n/a	n/a	n/a
n/a	"image-keyboard-response"	"233"	"9151001"	"0.0-6.0-2.0-1.24"	"40clyh"	"600"	"1024"	"chrome"	"109.0.0"	"FALSE"	"Windows 10"	"60.4"	"018"	n/a	n/a	n/a	n/a	n/a	n/a	"Trial"	n/a	n/a	n/a	"784"	"arrowleft"	n/a	"NULL"	"NULL"	"NULL"	"stimuli/Ebbinghaus_0.10000_0.21500.png"	n/a	"Ebbinghaus"	"arrowleft"	"1345"	"TRUE"	"Ebbinghaus"	"0.1000000000"	"0.2150000000"	"2"	"25"
n/a	"html-keyboard-response"	"234"	"9152147"	"0.0-6.0-2.0-0.25"	"40clyh"	"600"	"1024"	"chrome"	"109.0.0"	"FALSE"	"Windows 10"	"60.4"	"018"	n/a	n/a	n/a	n/a	n/a	n/a	"fixation"	n/a	n/a	n/a	n/a	"NULL"	n/a	"NULL"	"NULL"	"NULL"	"<p style=\"color: black; font-size: 80px; padding-left: 48%; padding-right: 32%; padding-top: 41%; padding-bottom: 13%\">+</p>"	"1124"	n/a	n/a	n/a	n/a	n/a	n/a	n/a	n/a	n/a
n/a	"image-keyboard-response"	"235"	"9153228"	"0.0-6.0-2.0-1.25"	"40clyh"	"600"	"1024"	"chrome"	"109.0.0"	"FALSE"	"Windows 10"	"60.4"	"018"	n/a	n/a	n/a	n/a	n/a	n/a	"Trial"	n/a	n/a	n/a	"1080"	"arrowleft"	n/a	"NULL"	"NULL"	"NULL"	"stimuli/Ebbinghaus_-0.61429_0.21500.png"	n/a	"Ebbinghaus"	"arrowleft"	"1146"	"TRUE"	"Ebbinghaus"	"-0.614290000"	"0.2150000000"	"2"	"26"
n/a	"html-keyboard-response"	"236"	"9154639"	"0.0-6.0-2.0-0.26"	"40clyh"	"600"	"1024"	"chrome"	"109.0.0"	"FALSE"	"Windows 10"	"60.4"	"018"	n/a	n/a	n/a	n/a	n/a	n/a	"fixation"	n/a	n/a	n/a	n/a	"NULL"	n/a	"NULL"	"NULL"	"NULL"	"<p style=\"color: black; font-size: 80px; padding-left: 33%; padding-right: 46%; padding-top: 9%; padding-bottom: 44%\">+</p>"	"1401"	n/a	n/a	n/a	n/a	n/a	n/a	n/a	n/a	n/a
n/a	"image-keyboard-response"	"237"	"9156338"	"0.0-6.0-2.0-1.26"	"40clyh"	"600"	"1024"	"chrome"	"109.0.0"	"FALSE"	"Windows 10"	"60.4"	"018"	n/a	n/a	n/a	n/a	n/a	n/a	"Trial"	n/a	n/a	n/a	"1697"	"arrowleft"	n/a	"NULL"	"NULL"	"NULL"	"stimuli/Ebbinghaus_0.35714_0.11071.png"	n/a	"Ebbinghaus"	"arrowleft"	"1411"	"TRUE"	"Ebbinghaus"	"0.3571400000"	"0.1107100000"	"2"	"27"
n/a	"html-keyboard-response"	"238"	"9157826"	"0.0-6.0-2.0-0.27"	"40clyh"	"600"	"1024"	"chrome"	"109.0.0"	"FALSE"	"Windows 10"	"60.4"	"018"	n/a	n/a	n/a	n/a	n/a	n/a	"fixation"	n/a	n/a	n/a	n/a	"NULL"	n/a	"NULL"	"NULL"	"NULL"	"<p style=\"color: black; font-size: 80px; padding-left: 30%; padding-right: 29%; padding-top: 35%; padding-bottom: 48%\">+</p>"	"1479"	n/a	n/a	n/a	n/a	n/a	n/a	n/a	n/a	n/a
n/a	"image-keyboard-response"	"239"	"9158474"	"0.0-6.0-2.0-1.27"	"40clyh"	"600"	"1024"	"chrome"	"109.0.0"	"FALSE"	"Windows 10"	"60.4"	"018"	n/a	n/a	n/a	n/a	n/a	n/a	"Trial"	n/a	n/a	n/a	"647"	"arrowleft"	n/a	"NULL"	"NULL"	"NULL"	"stimuli/Ebbinghaus_0.10000_0.11071.png"	n/a	"Ebbinghaus"	"arrowleft"	"1488"	"TRUE"	"Ebbinghaus"	"0.1000000000"	"0.1107100000"	"2"	"28"
n/a	"html-keyboard-response"	"240"	"9159941"	"0.0-6.0-2.0-0.28"	"40clyh"	"600"	"1024"	"chrome"	"109.0.0"	"FALSE"	"Windows 10"	"60.4"	"018"	n/a	n/a	n/a	n/a	n/a	n/a	"fixation"	n/a	n/a	n/a	n/a	"NULL"	n/a	"NULL"	"NULL"	"NULL"	"<p style=\"color: black; font-size: 80px; padding-left: 3%; padding-right: 30%; padding-top: 27%; padding-bottom: 31%\">+</p>"	"1447"	n/a	n/a	n/a	n/a	n/a	n/a	n/a	n/a	n/a
n/a	"image-keyboard-response"	"241"	"9160723"	"0.0-6.0-2.0-1.28"	"40clyh"	"600"	"1024"	"chrome"	"109.0.0"	"FALSE"	"Windows 10"	"60.4"	"018"	n/a	n/a	n/a	n/a	n/a	n/a	"Trial"	n/a	n/a	n/a	"781"	"arrowright"	n/a	"NULL"	"NULL"	"NULL"	"stimuli/Ebbinghaus_-0.61429_-0.2150.png"	n/a	"Ebbinghaus"	"arrowright"	"1467"	"TRUE"	"Ebbinghaus"	"-0.614290000"	"-0.215000000"	"2"	"29"
n/a	"html-keyboard-response"	"242"	"9161834"	"0.0-6.0-2.0-0.29"	"40clyh"	"600"	"1024"	"chrome"	"109.0.0"	"FALSE"	"Windows 10"	"60.4"	"018"	n/a	n/a	n/a	n/a	n/a	n/a	"fixation"	n/a	n/a	n/a	n/a	"NULL"	n/a	"NULL"	"NULL"	"NULL"	"<p style=\"color: black; font-size: 80px; padding-left: 1%; padding-right: 25%; padding-top: 44%; padding-bottom: 20%\">+</p>"	"1099"	n/a	n/a	n/a	n/a	n/a	n/a	n/a	n/a	n/a
n/a	"image-keyboard-response"	"243"	"9162673"	"0.0-6.0-2.0-1.29"	"40clyh"	"600"	"1024"	"chrome"	"109.0.0"	"FALSE"	"Windows 10"	"60.4"	"018"	n/a	n/a	n/a	n/a	n/a	n/a	"Trial"	n/a	n/a	n/a	"838"	"arrowright"	n/a	"NULL"	"NULL"	"NULL"	"stimuli/Ebbinghaus_0.61429_-0.2150.png"	n/a	"Ebbinghaus"	"arrowright"	"1111"	"TRUE"	"Ebbinghaus"	"0.6142900000"	"-0.215000000"	"2"	"30"
n/a	"html-keyboard-response"	"244"	"9164151"	"0.0-6.0-2.0-0.30"	"40clyh"	"600"	"1024"	"chrome"	"109.0.0"	"FALSE"	"Windows 10"	"60.4"	"018"	n/a	n/a	n/a	n/a	n/a	n/a	"fixation"	n/a	n/a	n/a	n/a	"NULL"	n/a	"NULL"	"NULL"	"NULL"	"<p style=\"color: black; font-size: 80px; padding-left: 14%; padding-right: 17%; padding-top: 43%; padding-bottom: 40%\">+</p>"	"1473"	n/a	n/a	n/a	n/a	n/a	n/a	n/a	n/a	n/a
n/a	"image-keyboard-response"	"245"	"9165138"	"0.0-6.0-2.0-1.30"	"40clyh"	"600"	"1024"	"chrome"	"109.0.0"	"FALSE"	"Windows 10"	"60.4"	"018"	n/a	n/a	n/a	n/a	n/a	n/a	"Trial"	n/a	n/a	n/a	"986"	"arrowright"	n/a	"NULL"	"NULL"	"NULL"	"stimuli/Ebbinghaus_0.10000_-0.2800.png"	n/a	"Ebbinghaus"	"arrowright"	"1478"	"TRUE"	"Ebbinghaus"	"0.1000000000"	"-0.280000000"	"2"	"31"
n/a	"html-keyboard-response"	"246"	"9166647"	"0.0-6.0-2.0-0.31"	"40clyh"	"600"	"1024"	"chrome"	"109.0.0"	"FALSE"	"Windows 10"	"60.4"	"018"	n/a	n/a	n/a	n/a	n/a	n/a	"fixation"	n/a	n/a	n/a	n/a	"NULL"	n/a	"NULL"	"NULL"	"NULL"	"<p style=\"color: black; font-size: 80px; padding-left: 26%; padding-right: 24%; padding-top: 16%; padding-bottom: 25%\">+</p>"	"1492"	n/a	n/a	n/a	n/a	n/a	n/a	n/a	n/a	n/a
n/a	"image-keyboard-response"	"247"	"9167391"	"0.0-6.0-2.0-1.31"	"40clyh"	"600"	"1024"	"chrome"	"109.0.0"	"FALSE"	"Windows 10"	"60.4"	"018"	n/a	n/a	n/a	n/a	n/a	n/a	"Trial"	n/a	n/a	n/a	"743"	"arrowright"	n/a	"NULL"	"NULL"	"NULL"	"stimuli/Ebbinghaus_-0.87143_-0.2800.png"	n/a	"Ebbinghaus"	"arrowright"	"1509"	"TRUE"	"Ebbinghaus"	"-0.871430000"	"-0.280000000"	"2"	"32"
n/a	"html-keyboard-response"	"248"	"9168448"	"0.0-6.0-2.0-0.32"	"40clyh"	"600"	"1024"	"chrome"	"109.0.0"	"FALSE"	"Windows 10"	"60.4"	"018"	n/a	n/a	n/a	n/a	n/a	n/a	"fixation"	n/a	n/a	n/a	n/a	"NULL"	n/a	"NULL"	"NULL"	"NULL"	"<p style=\"color: black; font-size: 80px; padding-left: 44%; padding-right: 46%; padding-top: 34%; padding-bottom: 5%\">+</p>"	"1049"	n/a	n/a	n/a	n/a	n/a	n/a	n/a	n/a	n/a
