"success"	"trial_type"	"trial_index"	"time_elapsed"	"internal_node_id"	"participant_id"	"screen_height"	"screen_width"	"browser"	"browser_version"	"mobile"	"os"	"vsync_rate"	"subject_id"	"width"	"height"	"webaudio"	"fullscreen"	"webcam"	"microphone"	"screen"	"version"	"date"	"time"	"rt"	"response"	"timeout"	"failed_images"	"failed_audio"	"failed_video"	"stimulus"	"trial_duration"	"block"	"correct_response"	"prestimulus_duration"	"correct"	"type"	"illusion_strength"	"illusion_difference"	"block_number"	"trial_number"
"TRUE"	"fullscreen"	"0"	"4914"	"0.0-0.0"	"zq5ezl"	"600"	"1366"	"chrome"	"108.0.0"	"FALSE"	"Windows 10"	"60.32"	"149"	n/a	n/a	n/a	n/a	n/a	n/a	n/a	n/a	n/a	n/a	n/a	"NULL"	n/a	"NULL"	"NULL"	"NULL"	n/a	n/a	n/a	n/a	n/a	n/a	n/a	n/a	n/a	n/a	n/a
n/a	"browser-check"	"1"	"5923"	"0.0-1.0"	"zq5ezl"	"600"	"1366"	"chrome"	"108.0.0"	"FALSE"	"Windows 10"	"60.32"	"149"	"1366"	"600"	"TRUE"	"TRUE"	"TRUE"	"TRUE"	"browser_info"	"1.0"	"09/01/2023"	"17:43:53"	n/a	"NULL"	n/a	"NULL"	"NULL"	"NULL"	n/a	n/a	n/a	n/a	n/a	n/a	n/a	n/a	n/a	n/a	n/a
n/a	"survey-text"	"2"	"10088"	"0.0-2.0"	"zq5ezl"	"600"	"1366"	"chrome"	"108.0.0"	"FALSE"	"Windows 10"	"60.32"	"149"	n/a	n/a	n/a	n/a	n/a	n/a	"subject_id"	n/a	n/a	n/a	"4160"	"list(subject_id = \"149\")"	n/a	"NULL"	"NULL"	"NULL"	n/a	n/a	n/a	n/a	n/a	n/a	n/a	n/a	n/a	n/a	n/a
"TRUE"	"preload"	"3"	"10109"	"0.0-3.0"	"zq5ezl"	"600"	"1366"	"chrome"	"108.0.0"	"FALSE"	"Windows 10"	"60.32"	"149"	n/a	n/a	n/a	n/a	n/a	n/a	n/a	n/a	n/a	n/a	n/a	"NULL"	"FALSE"	"list()"	"list()"	"list()"	n/a	n/a	n/a	n/a	n/a	n/a	n/a	n/a	n/a	n/a	n/a
n/a	"html-button-response"	"4"	"13841"	"0.0-4.0-0.0"	"zq5ezl"	"600"	"1366"	"chrome"	"108.0.0"	"FALSE"	"Windows 10"	"60.32"	"149"	n/a	n/a	n/a	n/a	n/a	n/a	"illusion_instructions"	n/a	n/a	n/a	"3732"	"0"	n/a	"NULL"	"NULL"	"NULL"	"<p><b>Illusion Game</b></p><p>In this game of speed and reflex, you will need to make <b>visual judgments</b> (for instance, which circle is the biggest, or which line is the longest), as fast and as correctly as possible, while <b>resisting different visual illusions</b>.</p><p>We are going to start with some examples of all the illusions you will encounter in the game.</p>"	n/a	n/a	n/a	n/a	n/a	n/a	n/a	n/a	n/a	n/a
"TRUE"	"preload"	"5"	"13865"	"0.0-4.0-1.0-0.0"	"zq5ezl"	"600"	"1366"	"chrome"	"108.0.0"	"FALSE"	"Windows 10"	"60.32"	"149"	n/a	n/a	n/a	n/a	n/a	n/a	n/a	n/a	n/a	n/a	n/a	"NULL"	"FALSE"	"list()"	"list()"	"list()"	n/a	n/a	n/a	n/a	n/a	n/a	n/a	n/a	n/a	n/a	n/a
n/a	"html-keyboard-response"	"6"	"41816"	"0.0-4.0-1.0-1.0"	"zq5ezl"	"600"	"1366"	"chrome"	"108.0.0"	"FALSE"	"Windows 10"	"60.32"	"149"	n/a	n/a	n/a	n/a	n/a	n/a	n/a	n/a	n/a	n/a	"27949"	"enter"	n/a	"NULL"	"NULL"	"NULL"	"<p><b>Practice</b></p><p>In this part, two red circles will appear side by side on the screen.</p><p>Your task is to select which <b>red circle is bigger</b> in size as fast as you can, without making errors.</p><p>Don't get distracted by the surrounding black circles around the red circles!</p><p>Press <b>the LEFT or the RIGHT arrow</b> to indicate which is the bigger <b>red circle.</b></p><div style='float: center'><img src='materials/instructions/Ebbinghaus_Demo.png' height='300'></img><p><img src='utils/answer/answer_leftright_keyboard.PNG' height='150'></img></p><p class='small'>In this example, the correct answer is the <b>LEFT arrow</b>.</p></div><p>Are you ready? <b>Press ENTER to start</b></p>"	n/a	n/a	n/a	n/a	n/a	n/a	n/a	n/a	n/a	n/a
n/a	"html-keyboard-response"	"7"	"43526"	"0.0-4.0-1.0-2.0-0.0"	"zq5ezl"	"600"	"1366"	"chrome"	"108.0.0"	"FALSE"	"Windows 10"	"60.32"	"149"	n/a	n/a	n/a	n/a	n/a	n/a	"fixation"	n/a	n/a	n/a	n/a	"NULL"	n/a	"NULL"	"NULL"	"NULL"	"<p style=\"color: black; font-size: 80px; padding-left: 46%; padding-right: 4%; padding-top: 31%; padding-bottom: 8%\">+</p>"	"1169"	n/a	n/a	n/a	n/a	n/a	n/a	n/a	n/a	n/a
n/a	"image-keyboard-response"	"8"	"45083"	"0.0-4.0-1.0-2.0-1.0"	"zq5ezl"	"600"	"1366"	"chrome"	"108.0.0"	"FALSE"	"Windows 10"	"60.32"	"149"	n/a	n/a	n/a	n/a	n/a	n/a	"Trial"	n/a	n/a	n/a	"1543"	"arrowleft"	n/a	"NULL"	"NULL"	"NULL"	"stimuli/Ebbinghaus_0000000_1.40000.png"	n/a	"Ebbinghaus"	"arrowleft"	"1710"	"TRUE"	"Ebbinghaus"	"000000000000"	"1.4000000000"	"1"	"1"
n/a	"html-keyboard-response"	"9"	"46580"	"0.0-4.0-1.0-2.0-0.1"	"zq5ezl"	"600"	"1366"	"chrome"	"108.0.0"	"FALSE"	"Windows 10"	"60.32"	"149"	n/a	n/a	n/a	n/a	n/a	n/a	"fixation"	n/a	n/a	n/a	n/a	"NULL"	n/a	"NULL"	"NULL"	"NULL"	"<p style=\"color: black; font-size: 80px; padding-left: 0%; padding-right: 43%; padding-top: 24%; padding-bottom: 37%\">+</p>"	"1488"	n/a	n/a	n/a	n/a	n/a	n/a	n/a	n/a	n/a
n/a	"image-keyboard-response"	"10"	"47366"	"0.0-4.0-1.0-2.0-1.1"	"zq5ezl"	"600"	"1366"	"chrome"	"108.0.0"	"FALSE"	"Windows 10"	"60.32"	"149"	n/a	n/a	n/a	n/a	n/a	n/a	"Trial"	n/a	n/a	n/a	"785"	"arrowleft"	n/a	"NULL"	"NULL"	"NULL"	"stimuli/Ebbinghaus_1000000_1.40000.png"	n/a	"Ebbinghaus"	"arrowleft"	"1497"	"TRUE"	"Ebbinghaus"	"100000000000"	"1.4000000000"	"1"	"2"
n/a	"html-keyboard-response"	"11"	"48605"	"0.0-4.0-1.0-2.0-0.2"	"zq5ezl"	"600"	"1366"	"chrome"	"108.0.0"	"FALSE"	"Windows 10"	"60.32"	"149"	n/a	n/a	n/a	n/a	n/a	n/a	"fixation"	n/a	n/a	n/a	n/a	"NULL"	n/a	"NULL"	"NULL"	"NULL"	"<p style=\"color: black; font-size: 80px; padding-left: 11%; padding-right: 27%; padding-top: 32%; padding-bottom: 43%\">+</p>"	"1224"	n/a	n/a	n/a	n/a	n/a	n/a	n/a	n/a	n/a
n/a	"image-keyboard-response"	"12"	"49105"	"0.0-4.0-1.0-2.0-1.2"	"zq5ezl"	"600"	"1366"	"chrome"	"108.0.0"	"FALSE"	"Windows 10"	"60.32"	"149"	n/a	n/a	n/a	n/a	n/a	n/a	"Trial"	n/a	n/a	n/a	"498"	"arrowright"	n/a	"NULL"	"NULL"	"NULL"	"stimuli/Ebbinghaus_-100000_-1.4000.png"	n/a	"Ebbinghaus"	"arrowright"	"1239"	"TRUE"	"Ebbinghaus"	"-10000000000"	"-1.400000000"	"1"	"3"
n/a	"html-keyboard-response"	"13"	"50466"	"0.0-4.0-1.0-2.0-0.3"	"zq5ezl"	"600"	"1366"	"chrome"	"108.0.0"	"FALSE"	"Windows 10"	"60.32"	"149"	n/a	n/a	n/a	n/a	n/a	n/a	"fixation"	n/a	n/a	n/a	n/a	"NULL"	n/a	"NULL"	"NULL"	"NULL"	"<p style=\"color: black; font-size: 80px; padding-left: 11%; padding-right: 43%; padding-top: 23%; padding-bottom: 28%\">+</p>"	"1345"	n/a	n/a	n/a	n/a	n/a	n/a	n/a	n/a	n/a
n/a	"image-keyboard-response"	"14"	"50974"	"0.0-4.0-1.0-2.0-1.3"	"zq5ezl"	"600"	"1366"	"chrome"	"108.0.0"	"FALSE"	"Windows 10"	"60.32"	"149"	n/a	n/a	n/a	n/a	n/a	n/a	"Trial"	n/a	n/a	n/a	"504"	"arrowright"	n/a	"NULL"	"NULL"	"NULL"	"stimuli/Ebbinghaus_0000000_-1.4000.png"	n/a	"Ebbinghaus"	"arrowright"	"1361"	"TRUE"	"Ebbinghaus"	"000000000000"	"-1.400000000"	"1"	"4"
n/a	"html-keyboard-response"	"15"	"52416"	"0.0-4.0-1.0-2.0-0.4"	"zq5ezl"	"600"	"1366"	"chrome"	"108.0.0"	"FALSE"	"Windows 10"	"60.32"	"149"	n/a	n/a	n/a	n/a	n/a	n/a	"fixation"	n/a	n/a	n/a	n/a	"NULL"	n/a	"NULL"	"NULL"	"NULL"	"<p style=\"color: black; font-size: 80px; padding-left: 5%; padding-right: 19%; padding-top: 19%; padding-bottom: 12%\">+</p>"	"1430"	n/a	n/a	n/a	n/a	n/a	n/a	n/a	n/a	n/a
n/a	"image-keyboard-response"	"16"	"52917"	"0.0-4.0-1.0-2.0-1.4"	"zq5ezl"	"600"	"1366"	"chrome"	"108.0.0"	"FALSE"	"Windows 10"	"60.32"	"149"	n/a	n/a	n/a	n/a	n/a	n/a	"Trial"	n/a	n/a	n/a	"499"	"arrowleft"	n/a	"NULL"	"NULL"	"NULL"	"stimuli/Ebbinghaus_-100000_1.40000.png"	n/a	"Ebbinghaus"	"arrowleft"	"1442"	"TRUE"	"Ebbinghaus"	"-10000000000"	"1.4000000000"	"1"	"5"
n/a	"html-keyboard-response"	"17"	"54386"	"0.0-4.0-1.0-2.0-0.5"	"zq5ezl"	"600"	"1366"	"chrome"	"108.0.0"	"FALSE"	"Windows 10"	"60.32"	"149"	n/a	n/a	n/a	n/a	n/a	n/a	"fixation"	n/a	n/a	n/a	n/a	"NULL"	n/a	"NULL"	"NULL"	"NULL"	"<p style=\"color: black; font-size: 80px; padding-left: 30%; padding-right: 18%; padding-top: 40%; padding-bottom: 24%\">+</p>"	"1449"	n/a	n/a	n/a	n/a	n/a	n/a	n/a	n/a	n/a
n/a	"image-keyboard-response"	"18"	"54820"	"0.0-4.0-1.0-2.0-1.5"	"zq5ezl"	"600"	"1366"	"chrome"	"108.0.0"	"FALSE"	"Windows 10"	"60.32"	"149"	n/a	n/a	n/a	n/a	n/a	n/a	"Trial"	n/a	n/a	n/a	"432"	"arrowright"	n/a	"NULL"	"NULL"	"NULL"	"stimuli/Ebbinghaus_1000000_-1.4000.png"	n/a	"Ebbinghaus"	"arrowright"	"1469"	"TRUE"	"Ebbinghaus"	"100000000000"	"-1.400000000"	"1"	"6"
n/a	"html-button-response"	"19"	"61087"	"0.0-4.0-1.0-3.0"	"zq5ezl"	"600"	"1366"	"chrome"	"108.0.0"	"FALSE"	"Windows 10"	"60.32"	"149"	n/a	n/a	n/a	n/a	n/a	n/a	"practice_block_results"	n/a	n/a	n/a	"6265"	"0"	n/a	"NULL"	"NULL"	"NULL"	"<p style='color:rgb(76,175,80);'> Correct Responses: <b>100.00%</b></p><hr><p style='color:rgb(233,30,99);'> Average Response Time: <b>710.17</b> ms.</p>"	n/a	n/a	n/a	n/a	n/a	n/a	n/a	n/a	n/a	n/a
"TRUE"	"preload"	"20"	"61618"	"0.0-4.0-2.0-0.0"	"zq5ezl"	"600"	"1366"	"chrome"	"108.0.0"	"FALSE"	"Windows 10"	"60.32"	"149"	n/a	n/a	n/a	n/a	n/a	n/a	n/a	n/a	n/a	n/a	n/a	"NULL"	"FALSE"	"list()"	"list()"	"list()"	n/a	n/a	n/a	n/a	n/a	n/a	n/a	n/a	n/a	n/a	n/a
n/a	"html-keyboard-response"	"21"	"67746"	"0.0-4.0-2.0-1.0"	"zq5ezl"	"600"	"1366"	"chrome"	"108.0.0"	"FALSE"	"Windows 10"	"60.32"	"149"	n/a	n/a	n/a	n/a	n/a	n/a	n/a	n/a	n/a	n/a	"6126"	"enter"	n/a	"NULL"	"NULL"	"NULL"	"<p><b>Practice</b></p><p>In this part, two horizontal red lines will appear one above the other.</p><p>Your task is to select which <b>line is longer</b> in length as fast as you can, without making errors.</p><p>Don't get distracted by the surrounding black arrows at the end of the red lines!</p><p>Press <b>the UP or the DOWN arrow</b> to indicate where is the longer <b>red line.</b></p><div style='float: center'><img src='materials/instructions/MullerLyer_Demo.png' height='300'></img><p><img src='utils/answer/answer_updown_keyboard.PNG' height='150'></img></p><p class='small'>In this example, the correct answer is the <b>UP arrow</b>.</p></div><p>Are you ready? <b>Press ENTER to start</b></p>"	n/a	n/a	n/a	n/a	n/a	n/a	n/a	n/a	n/a	n/a
n/a	"html-keyboard-response"	"22"	"69685"	"0.0-4.0-2.0-2.0-0.0"	"zq5ezl"	"600"	"1366"	"chrome"	"108.0.0"	"FALSE"	"Windows 10"	"60.32"	"149"	n/a	n/a	n/a	n/a	n/a	n/a	"fixation"	n/a	n/a	n/a	n/a	"NULL"	n/a	"NULL"	"NULL"	"NULL"	"<p style=\"color: black; font-size: 80px; padding-left: 3%; padding-right: 48%; padding-top: 49%; padding-bottom: 29%\">+</p>"	"1404"	n/a	n/a	n/a	n/a	n/a	n/a	n/a	n/a	n/a
n/a	"image-keyboard-response"	"23"	"70432"	"0.0-4.0-2.0-2.0-1.0"	"zq5ezl"	"600"	"1366"	"chrome"	"108.0.0"	"FALSE"	"Windows 10"	"60.32"	"149"	n/a	n/a	n/a	n/a	n/a	n/a	"Trial"	n/a	n/a	n/a	"743"	"arrowup"	n/a	"NULL"	"NULL"	"NULL"	"stimuli/MullerLyer_-230000_0.70000.png"	n/a	"MullerLyer"	"arrowup"	"1939"	"TRUE"	"MullerLyer"	"-23000000000"	"0.7000000000"	"1"	"7"
n/a	"html-keyboard-response"	"24"	"71943"	"0.0-4.0-2.0-2.0-0.1"	"zq5ezl"	"600"	"1366"	"chrome"	"108.0.0"	"FALSE"	"Windows 10"	"60.32"	"149"	n/a	n/a	n/a	n/a	n/a	n/a	"fixation"	n/a	n/a	n/a	n/a	"NULL"	n/a	"NULL"	"NULL"	"NULL"	"<p style=\"color: black; font-size: 80px; padding-left: 2%; padding-right: 34%; padding-top: 43%; padding-bottom: 12%\">+</p>"	"1495"	n/a	n/a	n/a	n/a	n/a	n/a	n/a	n/a	n/a
n/a	"image-keyboard-response"	"25"	"72705"	"0.0-4.0-2.0-2.0-1.1"	"zq5ezl"	"600"	"1366"	"chrome"	"108.0.0"	"FALSE"	"Windows 10"	"60.32"	"149"	n/a	n/a	n/a	n/a	n/a	n/a	"Trial"	n/a	n/a	n/a	"761"	"arrowup"	n/a	"NULL"	"NULL"	"NULL"	"stimuli/MullerLyer_0000000_0.70000.png"	n/a	"MullerLyer"	"arrowup"	"1511"	"TRUE"	"MullerLyer"	"000000000000"	"0.7000000000"	"1"	"8"
n/a	"html-keyboard-response"	"26"	"74182"	"0.0-4.0-2.0-2.0-0.2"	"zq5ezl"	"600"	"1366"	"chrome"	"108.0.0"	"FALSE"	"Windows 10"	"60.32"	"149"	n/a	n/a	n/a	n/a	n/a	n/a	"fixation"	n/a	n/a	n/a	n/a	"NULL"	n/a	"NULL"	"NULL"	"NULL"	"<p style=\"color: black; font-size: 80px; padding-left: 43%; padding-right: 1%; padding-top: 4%; padding-bottom: 23%\">+</p>"	"1465"	n/a	n/a	n/a	n/a	n/a	n/a	n/a	n/a	n/a
n/a	"image-keyboard-response"	"27"	"74765"	"0.0-4.0-2.0-2.0-1.2"	"zq5ezl"	"600"	"1366"	"chrome"	"108.0.0"	"FALSE"	"Windows 10"	"60.32"	"149"	n/a	n/a	n/a	n/a	n/a	n/a	"Trial"	n/a	n/a	n/a	"582"	"arrowdown"	n/a	"NULL"	"NULL"	"NULL"	"stimuli/MullerLyer_0000000_-0.7000.png"	n/a	"MullerLyer"	"arrowdown"	"1477"	"TRUE"	"MullerLyer"	"000000000000"	"-0.700000000"	"1"	"9"
n/a	"html-keyboard-response"	"28"	"75802"	"0.0-4.0-2.0-2.0-0.3"	"zq5ezl"	"600"	"1366"	"chrome"	"108.0.0"	"FALSE"	"Windows 10"	"60.32"	"149"	n/a	n/a	n/a	n/a	n/a	n/a	"fixation"	n/a	n/a	n/a	n/a	"NULL"	n/a	"NULL"	"NULL"	"NULL"	"<p style=\"color: black; font-size: 80px; padding-left: 26%; padding-right: 35%; padding-top: 15%; padding-bottom: 43%\">+</p>"	"1025"	n/a	n/a	n/a	n/a	n/a	n/a	n/a	n/a	n/a
n/a	"image-keyboard-response"	"29"	"76493"	"0.0-4.0-2.0-2.0-1.3"	"zq5ezl"	"600"	"1366"	"chrome"	"108.0.0"	"FALSE"	"Windows 10"	"60.32"	"149"	n/a	n/a	n/a	n/a	n/a	n/a	"Trial"	n/a	n/a	n/a	"689"	"arrowdown"	n/a	"NULL"	"NULL"	"NULL"	"stimuli/MullerLyer_2300000_-0.7000.png"	n/a	"MullerLyer"	"arrowdown"	"1037"	"TRUE"	"MullerLyer"	"230000000000"	"-0.700000000"	"1"	"10"
n/a	"html-keyboard-response"	"30"	"77856"	"0.0-4.0-2.0-2.0-0.4"	"zq5ezl"	"600"	"1366"	"chrome"	"108.0.0"	"FALSE"	"Windows 10"	"60.32"	"149"	n/a	n/a	n/a	n/a	n/a	n/a	"fixation"	n/a	n/a	n/a	n/a	"NULL"	n/a	"NULL"	"NULL"	"NULL"	"<p style=\"color: black; font-size: 80px; padding-left: 15%; padding-right: 26%; padding-top: 21%; padding-bottom: 45%\">+</p>"	"1356"	n/a	n/a	n/a	n/a	n/a	n/a	n/a	n/a	n/a
n/a	"image-keyboard-response"	"31"	"78373"	"0.0-4.0-2.0-2.0-1.4"	"zq5ezl"	"600"	"1366"	"chrome"	"108.0.0"	"FALSE"	"Windows 10"	"60.32"	"149"	n/a	n/a	n/a	n/a	n/a	n/a	"Trial"	n/a	n/a	n/a	"516"	"arrowup"	n/a	"NULL"	"NULL"	"NULL"	"stimuli/MullerLyer_2300000_0.70000.png"	n/a	"MullerLyer"	"arrowup"	"1363"	"TRUE"	"MullerLyer"	"230000000000"	"0.7000000000"	"1"	"11"
n/a	"html-keyboard-response"	"32"	"79745"	"0.0-4.0-2.0-2.0-0.5"	"zq5ezl"	"600"	"1366"	"chrome"	"108.0.0"	"FALSE"	"Windows 10"	"60.32"	"149"	n/a	n/a	n/a	n/a	n/a	n/a	"fixation"	n/a	n/a	n/a	n/a	"NULL"	n/a	"NULL"	"NULL"	"NULL"	"<p style=\"color: black; font-size: 80px; padding-left: 10%; padding-right: 10%; padding-top: 5%; padding-bottom: 49%\">+</p>"	"1357"	n/a	n/a	n/a	n/a	n/a	n/a	n/a	n/a	n/a
n/a	"image-keyboard-response"	"33"	"80255"	"0.0-4.0-2.0-2.0-1.5"	"zq5ezl"	"600"	"1366"	"chrome"	"108.0.0"	"FALSE"	"Windows 10"	"60.32"	"149"	n/a	n/a	n/a	n/a	n/a	n/a	"Trial"	n/a	n/a	n/a	"508"	"arrowdown"	n/a	"NULL"	"NULL"	"NULL"	"stimuli/MullerLyer_-230000_-0.7000.png"	n/a	"MullerLyer"	"arrowdown"	"1372"	"TRUE"	"MullerLyer"	"-23000000000"	"-0.700000000"	"1"	"12"
n/a	"html-button-response"	"34"	"83112"	"0.0-4.0-2.0-3.0"	"zq5ezl"	"600"	"1366"	"chrome"	"108.0.0"	"FALSE"	"Windows 10"	"60.32"	"149"	n/a	n/a	n/a	n/a	n/a	n/a	"practice_block_results"	n/a	n/a	n/a	"2854"	"0"	n/a	"NULL"	"NULL"	"NULL"	"<p style='color:rgb(76,175,80);'> Correct Responses: <b>100.00%</b></p><hr><p style='color:rgb(233,30,99);'> Average Response Time: <b>633.17</b> ms.</p>"	n/a	n/a	n/a	n/a	n/a	n/a	n/a	n/a	n/a	n/a
"TRUE"	"preload"	"35"	"83652"	"0.0-4.0-3.0-0.0"	"zq5ezl"	"600"	"1366"	"chrome"	"108.0.0"	"FALSE"	"Windows 10"	"60.32"	"149"	n/a	n/a	n/a	n/a	n/a	n/a	n/a	n/a	n/a	n/a	n/a	"NULL"	"FALSE"	"list()"	"list()"	"list()"	n/a	n/a	n/a	n/a	n/a	n/a	n/a	n/a	n/a	n/a	n/a
n/a	"html-keyboard-response"	"36"	"90253"	"0.0-4.0-3.0-1.0"	"zq5ezl"	"600"	"1366"	"chrome"	"108.0.0"	"FALSE"	"Windows 10"	"60.32"	"149"	n/a	n/a	n/a	n/a	n/a	n/a	n/a	n/a	n/a	n/a	"6600"	"enter"	n/a	"NULL"	"NULL"	"NULL"	"<p><b>Practice</b></p><p>In this part, two red lines will appear side by side.</p><p>Your task is to tell <b>which line is longer</b> in length, regardless of their orientation, as fast as you can, and without making errors.</p><p>Don't get distracted by the orientation of the lines!</p><p>Press <b>the LEFT or the RIGHT arrow</b> to indicate which <b>line is the longer one.</b></p><div style='float: center'><img src='materials/instructions/VerticalHorizontal_Demo.png' height='300'></img><p><img src='utils/answer/answer_leftright_keyboard.PNG' height='150'></img></p><p class='small'>In this example, the correct answer is the <b>LEFT arrow</b>.</p></div><p>Are you ready? <b>Press ENTER to start</b></p>"	n/a	n/a	n/a	n/a	n/a	n/a	n/a	n/a	n/a	n/a
n/a	"html-keyboard-response"	"37"	"92059"	"0.0-4.0-3.0-2.0-0.0"	"zq5ezl"	"600"	"1366"	"chrome"	"108.0.0"	"FALSE"	"Windows 10"	"60.32"	"149"	n/a	n/a	n/a	n/a	n/a	n/a	"fixation"	n/a	n/a	n/a	n/a	"NULL"	n/a	"NULL"	"NULL"	"NULL"	"<p style=\"color: black; font-size: 80px; padding-left: 47%; padding-right: 16%; padding-top: 49%; padding-bottom: 15%\">+</p>"	"1281"	n/a	n/a	n/a	n/a	n/a	n/a	n/a	n/a	n/a
n/a	"image-keyboard-response"	"38"	"92656"	"0.0-4.0-3.0-2.0-1.0"	"zq5ezl"	"600"	"1366"	"chrome"	"108.0.0"	"FALSE"	"Windows 10"	"60.32"	"149"	n/a	n/a	n/a	n/a	n/a	n/a	"Trial"	n/a	n/a	n/a	"594"	"arrowright"	n/a	"NULL"	"NULL"	"NULL"	"stimuli/VerticalHorizontal_3300000_-0.9000.png"	n/a	"VerticalHorizontal"	"arrowright"	"1806"	"TRUE"	"VerticalHorizontal"	"330000000000"	"-0.900000000"	"1"	"13"
n/a	"html-keyboard-response"	"39"	"93698"	"0.0-4.0-3.0-2.0-0.1"	"zq5ezl"	"600"	"1366"	"chrome"	"108.0.0"	"FALSE"	"Windows 10"	"60.32"	"149"	n/a	n/a	n/a	n/a	n/a	n/a	"fixation"	n/a	n/a	n/a	n/a	"NULL"	n/a	"NULL"	"NULL"	"NULL"	"<p style=\"color: black; font-size: 80px; padding-left: 9%; padding-right: 20%; padding-top: 20%; padding-bottom: 36%\">+</p>"	"1018"	n/a	n/a	n/a	n/a	n/a	n/a	n/a	n/a	n/a
n/a	"image-keyboard-response"	"40"	"94125"	"0.0-4.0-3.0-2.0-1.1"	"zq5ezl"	"600"	"1366"	"chrome"	"108.0.0"	"FALSE"	"Windows 10"	"60.32"	"149"	n/a	n/a	n/a	n/a	n/a	n/a	"Trial"	n/a	n/a	n/a	"426"	"arrowleft"	n/a	"NULL"	"NULL"	"NULL"	"stimuli/VerticalHorizontal_3300000_0.90000.png"	n/a	"VerticalHorizontal"	"arrowleft"	"1042"	"TRUE"	"VerticalHorizontal"	"330000000000"	"0.9000000000"	"1"	"14"
n/a	"html-keyboard-response"	"41"	"95624"	"0.0-4.0-3.0-2.0-0.2"	"zq5ezl"	"600"	"1366"	"chrome"	"108.0.0"	"FALSE"	"Windows 10"	"60.32"	"149"	n/a	n/a	n/a	n/a	n/a	n/a	"fixation"	n/a	n/a	n/a	n/a	"NULL"	n/a	"NULL"	"NULL"	"NULL"	"<p style=\"color: black; font-size: 80px; padding-left: 48%; padding-right: 12%; padding-top: 31%; padding-bottom: 40%\">+</p>"	"1483"	n/a	n/a	n/a	n/a	n/a	n/a	n/a	n/a	n/a
n/a	"image-keyboard-response"	"42"	"96070"	"0.0-4.0-3.0-2.0-1.2"	"zq5ezl"	"600"	"1366"	"chrome"	"108.0.0"	"FALSE"	"Windows 10"	"60.32"	"149"	n/a	n/a	n/a	n/a	n/a	n/a	"Trial"	n/a	n/a	n/a	"446"	"arrowleft"	n/a	"NULL"	"NULL"	"NULL"	"stimuli/VerticalHorizontal_0000000_0.90000.png"	n/a	"VerticalHorizontal"	"arrowleft"	"1499"	"TRUE"	"VerticalHorizontal"	"000000000000"	"0.9000000000"	"1"	"15"
n/a	"html-keyboard-response"	"43"	"97432"	"0.0-4.0-3.0-2.0-0.3"	"zq5ezl"	"600"	"1366"	"chrome"	"108.0.0"	"FALSE"	"Windows 10"	"60.32"	"149"	n/a	n/a	n/a	n/a	n/a	n/a	"fixation"	n/a	n/a	n/a	n/a	"NULL"	n/a	"NULL"	"NULL"	"NULL"	"<p style=\"color: black; font-size: 80px; padding-left: 40%; padding-right: 27%; padding-top: 8%; padding-bottom: 46%\">+</p>"	"1346"	n/a	n/a	n/a	n/a	n/a	n/a	n/a	n/a	n/a
n/a	"image-keyboard-response"	"44"	"97829"	"0.0-4.0-3.0-2.0-1.3"	"zq5ezl"	"600"	"1366"	"chrome"	"108.0.0"	"FALSE"	"Windows 10"	"60.32"	"149"	n/a	n/a	n/a	n/a	n/a	n/a	"Trial"	n/a	n/a	n/a	"397"	"arrowright"	n/a	"NULL"	"NULL"	"NULL"	"stimuli/VerticalHorizontal_-330000_-0.9000.png"	n/a	"VerticalHorizontal"	"arrowright"	"1362"	"TRUE"	"VerticalHorizontal"	"-33000000000"	"-0.900000000"	"1"	"16"
n/a	"html-keyboard-response"	"45"	"99332"	"0.0-4.0-3.0-2.0-0.4"	"zq5ezl"	"600"	"1366"	"chrome"	"108.0.0"	"FALSE"	"Windows 10"	"60.32"	"149"	n/a	n/a	n/a	n/a	n/a	n/a	"fixation"	n/a	n/a	n/a	n/a	"NULL"	n/a	"NULL"	"NULL"	"NULL"	"<p style=\"color: black; font-size: 80px; padding-left: 35%; padding-right: 4%; padding-top: 45%; padding-bottom: 10%\">+</p>"	"1499"	n/a	n/a	n/a	n/a	n/a	n/a	n/a	n/a	n/a
n/a	"image-keyboard-response"	"46"	"99719"	"0.0-4.0-3.0-2.0-1.4"	"zq5ezl"	"600"	"1366"	"chrome"	"108.0.0"	"FALSE"	"Windows 10"	"60.32"	"149"	n/a	n/a	n/a	n/a	n/a	n/a	"Trial"	n/a	n/a	n/a	"386"	"arrowright"	n/a	"NULL"	"NULL"	"NULL"	"stimuli/VerticalHorizontal_0000000_-0.9000.png"	n/a	"VerticalHorizontal"	"arrowright"	"1503"	"TRUE"	"VerticalHorizontal"	"000000000000"	"-0.900000000"	"1"	"17"
n/a	"html-keyboard-response"	"47"	"101071"	"0.0-4.0-3.0-2.0-0.5"	"zq5ezl"	"600"	"1366"	"chrome"	"108.0.0"	"FALSE"	"Windows 10"	"60.32"	"149"	n/a	n/a	n/a	n/a	n/a	n/a	"fixation"	n/a	n/a	n/a	n/a	"NULL"	n/a	"NULL"	"NULL"	"NULL"	"<p style=\"color: black; font-size: 80px; padding-left: 30%; padding-right: 3%; padding-top: 14%; padding-bottom: 8%\">+</p>"	"1334"	n/a	n/a	n/a	n/a	n/a	n/a	n/a	n/a	n/a
n/a	"image-keyboard-response"	"48"	"101455"	"0.0-4.0-3.0-2.0-1.5"	"zq5ezl"	"600"	"1366"	"chrome"	"108.0.0"	"FALSE"	"Windows 10"	"60.32"	"149"	n/a	n/a	n/a	n/a	n/a	n/a	"Trial"	n/a	n/a	n/a	"384"	"arrowleft"	n/a	"NULL"	"NULL"	"NULL"	"stimuli/VerticalHorizontal_-330000_0.90000.png"	n/a	"VerticalHorizontal"	"arrowleft"	"1352"	"TRUE"	"VerticalHorizontal"	"-33000000000"	"0.9000000000"	"1"	"18"
n/a	"html-button-response"	"49"	"105793"	"0.0-4.0-3.0-3.0"	"zq5ezl"	"600"	"1366"	"chrome"	"108.0.0"	"FALSE"	"Windows 10"	"60.32"	"149"	n/a	n/a	n/a	n/a	n/a	n/a	"practice_block_results"	n/a	n/a	n/a	"4337"	"0"	n/a	"NULL"	"NULL"	"NULL"	"<p style='color:rgb(76,175,80);'> Correct Responses: <b>100.00%</b></p><hr><p style='color:rgb(233,30,99);'> Average Response Time: <b>438.83</b> ms.</p>"	n/a	n/a	n/a	n/a	n/a	n/a	n/a	n/a	n/a	n/a
n/a	"html-button-response"	"50"	"185884"	"0.0-4.0-4.0"	"zq5ezl"	"600"	"1366"	"chrome"	"108.0.0"	"FALSE"	"Windows 10"	"60.32"	"149"	n/a	n/a	n/a	n/a	n/a	n/a	"practice_debrief"	n/a	n/a	n/a	"79569"	"0"	n/a	"NULL"	"NULL"	"NULL"	"<p><b>TRAINING COMPLETED</b></p><p>In the next phase, there will be more trials, and some might be harder too.<br> Moreover, after each illusion block, a <b>score</b> will be calculated based on speed (time you took to answer) and accuracy (number of errors).</p><p>Try to keep up a high score!</p><br><p>Note that it can be <i>really</i> challenging at times, so you will need to rely on your <b>intuition</b> and gut feeling to answer as fast as you can without making errors.</p><p>Each illusion block will be repeated two times (so that you have the opportunity to improve your score), but the order of the blocks is random.</p><p>Remember, your goal is to be as <b>fast</b> and <b>accurate</b> as possible. Good luck!</p><br>"	n/a	n/a	n/a	n/a	n/a	n/a	n/a	n/a	n/a	n/a
"TRUE"	"preload"	"51"	"186065"	"0.0-5.0-0.0"	"zq5ezl"	"600"	"1366"	"chrome"	"108.0.0"	"FALSE"	"Windows 10"	"60.32"	"149"	n/a	n/a	n/a	n/a	n/a	n/a	n/a	n/a	n/a	n/a	n/a	"NULL"	"FALSE"	"list()"	"list()"	"list()"	n/a	n/a	n/a	n/a	n/a	n/a	n/a	n/a	n/a	n/a	n/a
n/a	"html-keyboard-response"	"52"	"189224"	"0.0-5.0-1.0"	"zq5ezl"	"600"	"1366"	"chrome"	"108.0.0"	"FALSE"	"Windows 10"	"60.32"	"149"	n/a	n/a	n/a	n/a	n/a	n/a	n/a	n/a	n/a	n/a	"3158"	"enter"	n/a	"NULL"	"NULL"	"NULL"	"<p><b>Part 1/6</b></p><p>In this part, two red lines will appear side by side.</p><p>Your task is to tell <b>which line is longer</b> in length, regardless of their orientation, as fast as you can, and without making errors.</p><p>Don't get distracted by the orientation of the lines!</p><p>Press <b>the LEFT or the RIGHT arrow</b> to indicate which <b>line is the longer one.</b></p><div style='float: center'><img src='materials/instructions/VerticalHorizontal_Demo.png' height='300'></img><p><img src='utils/answer/answer_leftright_keyboard.PNG' height='150'></img></p><p class='small'>In this example, the correct answer is the <b>LEFT arrow</b>.</p></div><p>Are you ready? <b>Press ENTER to start</b></p>"	n/a	n/a	n/a	n/a	n/a	n/a	n/a	n/a	n/a	n/a
n/a	"html-keyboard-response"	"53"	"191045"	"0.0-5.0-2.0-0.0"	"zq5ezl"	"600"	"1366"	"chrome"	"108.0.0"	"FALSE"	"Windows 10"	"60.32"	"149"	n/a	n/a	n/a	n/a	n/a	n/a	"fixation"	n/a	n/a	n/a	n/a	"NULL"	n/a	"NULL"	"NULL"	"NULL"	"<p style=\"color: black; font-size: 80px; padding-left: 47%; padding-right: 0%; padding-top: 19%; padding-bottom: 48%\">+</p>"	"1292"	n/a	n/a	n/a	n/a	n/a	n/a	n/a	n/a	n/a
n/a	"image-keyboard-response"	"54"	"192038"	"0.0-5.0-2.0-1.0"	"zq5ezl"	"600"	"1366"	"chrome"	"108.0.0"	"FALSE"	"Windows 10"	"60.32"	"149"	n/a	n/a	n/a	n/a	n/a	n/a	"Trial"	n/a	n/a	n/a	"991"	"arrowright"	n/a	"NULL"	"NULL"	"NULL"	"stimuli/VerticalHorizontal_-20.27143_-0.16217.png"	n/a	"VerticalHorizontal"	"arrowright"	"1821"	"TRUE"	"VerticalHorizontal"	"-20.27143000"	"-0.162170000"	"1"	"19"
n/a	"html-keyboard-response"	"55"	"193366"	"0.0-5.0-2.0-0.1"	"zq5ezl"	"600"	"1366"	"chrome"	"108.0.0"	"FALSE"	"Windows 10"	"60.32"	"149"	n/a	n/a	n/a	n/a	n/a	n/a	"fixation"	n/a	n/a	n/a	n/a	"NULL"	n/a	"NULL"	"NULL"	"NULL"	"<p style=\"color: black; font-size: 80px; padding-left: 20%; padding-right: 40%; padding-top: 25%; padding-bottom: 40%\">+</p>"	"1315"	n/a	n/a	n/a	n/a	n/a	n/a	n/a	n/a	n/a
n/a	"image-keyboard-response"	"56"	"193955"	"0.0-5.0-2.0-1.1"	"zq5ezl"	"600"	"1366"	"chrome"	"108.0.0"	"FALSE"	"Windows 10"	"60.32"	"149"	n/a	n/a	n/a	n/a	n/a	n/a	"Trial"	n/a	n/a	n/a	"588"	"arrowleft"	n/a	"NULL"	"NULL"	"NULL"	"stimuli/VerticalHorizontal_-11.78571_0.16217.png"	n/a	"VerticalHorizontal"	"arrowleft"	"1328"	"TRUE"	"VerticalHorizontal"	"-11.78571000"	"0.1621700000"	"1"	"20"
n/a	"html-keyboard-response"	"57"	"194989"	"0.0-5.0-2.0-0.2"	"zq5ezl"	"600"	"1366"	"chrome"	"108.0.0"	"FALSE"	"Windows 10"	"60.32"	"149"	n/a	n/a	n/a	n/a	n/a	n/a	"fixation"	n/a	n/a	n/a	n/a	"NULL"	n/a	"NULL"	"NULL"	"NULL"	"<p style=\"color: black; font-size: 80px; padding-left: 24%; padding-right: 40%; padding-top: 35%; padding-bottom: 0%\">+</p>"	"1015"	n/a	n/a	n/a	n/a	n/a	n/a	n/a	n/a	n/a
n/a	"image-keyboard-response"	"58"	"195452"	"0.0-5.0-2.0-1.2"	"zq5ezl"	"600"	"1366"	"chrome"	"108.0.0"	"FALSE"	"Windows 10"	"60.32"	"149"	n/a	n/a	n/a	n/a	n/a	n/a	"Trial"	n/a	n/a	n/a	"462"	"arrowleft"	n/a	"NULL"	"NULL"	"NULL"	"stimuli/VerticalHorizontal_-11.78571_0.22500.png"	n/a	"VerticalHorizontal"	"arrowleft"	"1034"	"TRUE"	"VerticalHorizontal"	"-11.78571000"	"0.2250000000"	"1"	"21"
n/a	"html-keyboard-response"	"59"	"196665"	"0.0-5.0-2.0-0.3"	"zq5ezl"	"600"	"1366"	"chrome"	"108.0.0"	"FALSE"	"Windows 10"	"60.32"	"149"	n/a	n/a	n/a	n/a	n/a	n/a	"fixation"	n/a	n/a	n/a	n/a	"NULL"	n/a	"NULL"	"NULL"	"NULL"	"<p style=\"color: black; font-size: 80px; padding-left: 9%; padding-right: 27%; padding-top: 46%; padding-bottom: 3%\">+</p>"	"1205"	n/a	n/a	n/a	n/a	n/a	n/a	n/a	n/a	n/a
n/a	"image-keyboard-response"	"60"	"197538"	"0.0-5.0-2.0-1.3"	"zq5ezl"	"600"	"1366"	"chrome"	"108.0.0"	"FALSE"	"Windows 10"	"60.32"	"149"	n/a	n/a	n/a	n/a	n/a	n/a	"Trial"	n/a	n/a	n/a	"871"	"arrowleft"	n/a	"NULL"	"NULL"	"NULL"	"stimuli/VerticalHorizontal_-11.78571_0.06730.png"	n/a	"VerticalHorizontal"	"arrowleft"	"1213"	"TRUE"	"VerticalHorizontal"	"-11.78571000"	"0.0673000000"	"1"	"22"
n/a	"html-keyboard-response"	"61"	"199019"	"0.0-5.0-2.0-0.4"	"zq5ezl"	"600"	"1366"	"chrome"	"108.0.0"	"FALSE"	"Windows 10"	"60.32"	"149"	n/a	n/a	n/a	n/a	n/a	n/a	"fixation"	n/a	n/a	n/a	n/a	"NULL"	n/a	"NULL"	"NULL"	"NULL"	"<p style=\"color: black; font-size: 80px; padding-left: 6%; padding-right: 29%; padding-top: 19%; padding-bottom: 27%\">+</p>"	"1462"	n/a	n/a	n/a	n/a	n/a	n/a	n/a	n/a	n/a
n/a	"image-keyboard-response"	"62"	"199905"	"0.0-5.0-2.0-1.4"	"zq5ezl"	"600"	"1366"	"chrome"	"108.0.0"	"FALSE"	"Windows 10"	"60.32"	"149"	n/a	n/a	n/a	n/a	n/a	n/a	"Trial"	n/a	n/a	n/a	"885"	"arrowright"	n/a	"NULL"	"NULL"	"NULL"	"stimuli/VerticalHorizontal_20.27143_-0.16217.png"	n/a	"VerticalHorizontal"	"arrowright"	"1481"	"TRUE"	"VerticalHorizontal"	"20.271430000"	"-0.162170000"	"1"	"23"
n/a	"html-keyboard-response"	"63"	"201274"	"0.0-5.0-2.0-0.5"	"zq5ezl"	"600"	"1366"	"chrome"	"108.0.0"	"FALSE"	"Windows 10"	"60.32"	"149"	n/a	n/a	n/a	n/a	n/a	n/a	"fixation"	n/a	n/a	n/a	n/a	"NULL"	n/a	"NULL"	"NULL"	"NULL"	"<p style=\"color: black; font-size: 80px; padding-left: 31%; padding-right: 8%; padding-top: 32%; padding-bottom: 28%\">+</p>"	"1346"	n/a	n/a	n/a	n/a	n/a	n/a	n/a	n/a	n/a
n/a	"image-keyboard-response"	"64"	"202140"	"0.0-5.0-2.0-1.5"	"zq5ezl"	"600"	"1366"	"chrome"	"108.0.0"	"FALSE"	"Windows 10"	"60.32"	"149"	n/a	n/a	n/a	n/a	n/a	n/a	"Trial"	n/a	n/a	n/a	"863"	"arrowright"	n/a	"NULL"	"NULL"	"NULL"	"stimuli/VerticalHorizontal_-3.3000_-0.1096.png"	n/a	"VerticalHorizontal"	"arrowright"	"1369"	"TRUE"	"VerticalHorizontal"	"-3.300000000"	"-0.109600000"	"1"	"24"
n/a	"html-keyboard-response"	"65"	"203493"	"0.0-5.0-2.0-0.6"	"zq5ezl"	"600"	"1366"	"chrome"	"108.0.0"	"FALSE"	"Windows 10"	"60.32"	"149"	n/a	n/a	n/a	n/a	n/a	n/a	"fixation"	n/a	n/a	n/a	n/a	"NULL"	n/a	"NULL"	"NULL"	"NULL"	"<p style=\"color: black; font-size: 80px; padding-left: 36%; padding-right: 22%; padding-top: 1%; padding-bottom: 16%\">+</p>"	"1335"	n/a	n/a	n/a	n/a	n/a	n/a	n/a	n/a	n/a
n/a	"image-keyboard-response"	"66"	"204384"	"0.0-5.0-2.0-1.6"	"zq5ezl"	"600"	"1366"	"chrome"	"108.0.0"	"FALSE"	"Windows 10"	"60.32"	"149"	n/a	n/a	n/a	n/a	n/a	n/a	"Trial"	n/a	n/a	n/a	"890"	"arrowright"	n/a	"NULL"	"NULL"	"NULL"	"stimuli/VerticalHorizontal_28.75714_0.06730.png"	n/a	"VerticalHorizontal"	"arrowleft"	"1353"	"FALSE"	"VerticalHorizontal"	"28.757140000"	"0.0673000000"	"1"	"25"
n/a	"html-keyboard-response"	"67"	"205417"	"0.0-5.0-2.0-0.7"	"zq5ezl"	"600"	"1366"	"chrome"	"108.0.0"	"FALSE"	"Windows 10"	"60.32"	"149"	n/a	n/a	n/a	n/a	n/a	n/a	"fixation"	n/a	n/a	n/a	n/a	"NULL"	n/a	"NULL"	"NULL"	"NULL"	"<p style=\"color: black; font-size: 80px; padding-left: 42%; padding-right: 0%; padding-top: 31%; padding-bottom: 43%\">+</p>"	"1011"	n/a	n/a	n/a	n/a	n/a	n/a	n/a	n/a	n/a
n/a	"image-keyboard-response"	"68"	"205975"	"0.0-5.0-2.0-1.7"	"zq5ezl"	"600"	"1366"	"chrome"	"108.0.0"	"FALSE"	"Windows 10"	"60.32"	"149"	n/a	n/a	n/a	n/a	n/a	n/a	"Trial"	n/a	n/a	n/a	"557"	"arrowright"	n/a	"NULL"	"NULL"	"NULL"	"stimuli/VerticalHorizontal_-28.75714_-0.16217.png"	n/a	"VerticalHorizontal"	"arrowright"	"1033"	"TRUE"	"VerticalHorizontal"	"-28.75714000"	"-0.162170000"	"1"	"26"
n/a	"html-keyboard-response"	"69"	"207268"	"0.0-5.0-2.0-0.8"	"zq5ezl"	"600"	"1366"	"chrome"	"108.0.0"	"FALSE"	"Windows 10"	"60.32"	"149"	n/a	n/a	n/a	n/a	n/a	n/a	"fixation"	n/a	n/a	n/a	n/a	"NULL"	n/a	"NULL"	"NULL"	"NULL"	"<p style=\"color: black; font-size: 80px; padding-left: 20%; padding-right: 7%; padding-top: 13%; padding-bottom: 31%\">+</p>"	"1282"	n/a	n/a	n/a	n/a	n/a	n/a	n/a	n/a	n/a
n/a	"image-keyboard-response"	"70"	"207830"	"0.0-5.0-2.0-1.8"	"zq5ezl"	"600"	"1366"	"chrome"	"108.0.0"	"FALSE"	"Windows 10"	"60.32"	"149"	n/a	n/a	n/a	n/a	n/a	n/a	"Trial"	n/a	n/a	n/a	"562"	"arrowleft"	n/a	"NULL"	"NULL"	"NULL"	"stimuli/VerticalHorizontal_-3.3000_0.10960.png"	n/a	"VerticalHorizontal"	"arrowleft"	"1293"	"TRUE"	"VerticalHorizontal"	"-3.300000000"	"0.1096000000"	"1"	"27"
n/a	"html-keyboard-response"	"71"	"209266"	"0.0-5.0-2.0-0.9"	"zq5ezl"	"600"	"1366"	"chrome"	"108.0.0"	"FALSE"	"Windows 10"	"60.32"	"149"	n/a	n/a	n/a	n/a	n/a	n/a	"fixation"	n/a	n/a	n/a	n/a	"NULL"	n/a	"NULL"	"NULL"	"NULL"	"<p style=\"color: black; font-size: 80px; padding-left: 37%; padding-right: 31%; padding-top: 46%; padding-bottom: 25%\">+</p>"	"1413"	n/a	n/a	n/a	n/a	n/a	n/a	n/a	n/a	n/a
n/a	"image-keyboard-response"	"72"	"209806"	"0.0-5.0-2.0-1.9"	"zq5ezl"	"600"	"1366"	"chrome"	"108.0.0"	"FALSE"	"Windows 10"	"60.32"	"149"	n/a	n/a	n/a	n/a	n/a	n/a	"Trial"	n/a	n/a	n/a	"538"	"arrowright"	n/a	"NULL"	"NULL"	"NULL"	"stimuli/VerticalHorizontal_-28.75714_-0.0673.png"	n/a	"VerticalHorizontal"	"arrowright"	"1436"	"TRUE"	"VerticalHorizontal"	"-28.75714000"	"-0.067300000"	"1"	"28"
n/a	"html-keyboard-response"	"73"	"210959"	"0.0-5.0-2.0-0.10"	"zq5ezl"	"600"	"1366"	"chrome"	"108.0.0"	"FALSE"	"Windows 10"	"60.32"	"149"	n/a	n/a	n/a	n/a	n/a	n/a	"fixation"	n/a	n/a	n/a	n/a	"NULL"	n/a	"NULL"	"NULL"	"NULL"	"<p style=\"color: black; font-size: 80px; padding-left: 37%; padding-right: 5%; padding-top: 23%; padding-bottom: 46%\">+</p>"	"1138"	n/a	n/a	n/a	n/a	n/a	n/a	n/a	n/a	n/a
n/a	"image-keyboard-response"	"74"	"211586"	"0.0-5.0-2.0-1.10"	"zq5ezl"	"600"	"1366"	"chrome"	"108.0.0"	"FALSE"	"Windows 10"	"60.32"	"149"	n/a	n/a	n/a	n/a	n/a	n/a	"Trial"	n/a	n/a	n/a	"626"	"arrowleft"	n/a	"NULL"	"NULL"	"NULL"	"stimuli/VerticalHorizontal_3.30000_0.16217.png"	n/a	"VerticalHorizontal"	"arrowleft"	"1153"	"TRUE"	"VerticalHorizontal"	"3.3000000000"	"0.1621700000"	"1"	"29"
n/a	"html-keyboard-response"	"75"	"212944"	"0.0-5.0-2.0-0.11"	"zq5ezl"	"600"	"1366"	"chrome"	"108.0.0"	"FALSE"	"Windows 10"	"60.32"	"149"	n/a	n/a	n/a	n/a	n/a	n/a	"fixation"	n/a	n/a	n/a	n/a	"NULL"	n/a	"NULL"	"NULL"	"NULL"	"<p style=\"color: black; font-size: 80px; padding-left: 24%; padding-right: 10%; padding-top: 42%; padding-bottom: 14%\">+</p>"	"1337"	n/a	n/a	n/a	n/a	n/a	n/a	n/a	n/a	n/a
n/a	"image-keyboard-response"	"76"	"213412"	"0.0-5.0-2.0-1.11"	"zq5ezl"	"600"	"1366"	"chrome"	"108.0.0"	"FALSE"	"Windows 10"	"60.32"	"149"	n/a	n/a	n/a	n/a	n/a	n/a	"Trial"	n/a	n/a	n/a	"466"	"arrowright"	n/a	"NULL"	"NULL"	"NULL"	"stimuli/VerticalHorizontal_-11.78571_-0.2250.png"	n/a	"VerticalHorizontal"	"arrowright"	"1358"	"TRUE"	"VerticalHorizontal"	"-11.78571000"	"-0.225000000"	"1"	"30"
n/a	"html-keyboard-response"	"77"	"214866"	"0.0-5.0-2.0-0.12"	"zq5ezl"	"600"	"1366"	"chrome"	"108.0.0"	"FALSE"	"Windows 10"	"60.32"	"149"	n/a	n/a	n/a	n/a	n/a	n/a	"fixation"	n/a	n/a	n/a	n/a	"NULL"	n/a	"NULL"	"NULL"	"NULL"	"<p style=\"color: black; font-size: 80px; padding-left: 29%; padding-right: 26%; padding-top: 27%; padding-bottom: 23%\">+</p>"	"1437"	n/a	n/a	n/a	n/a	n/a	n/a	n/a	n/a	n/a
n/a	"image-keyboard-response"	"78"	"215353"	"0.0-5.0-2.0-1.12"	"zq5ezl"	"600"	"1366"	"chrome"	"108.0.0"	"FALSE"	"Windows 10"	"60.32"	"149"	n/a	n/a	n/a	n/a	n/a	n/a	"Trial"	n/a	n/a	n/a	"486"	"arrowleft"	n/a	"NULL"	"NULL"	"NULL"	"stimuli/VerticalHorizontal_-20.27143_0.06730.png"	n/a	"VerticalHorizontal"	"arrowleft"	"1454"	"TRUE"	"VerticalHorizontal"	"-20.27143000"	"0.0673000000"	"1"	"31"
n/a	"html-keyboard-response"	"79"	"216470"	"0.0-5.0-2.0-0.13"	"zq5ezl"	"600"	"1366"	"chrome"	"108.0.0"	"FALSE"	"Windows 10"	"60.32"	"149"	n/a	n/a	n/a	n/a	n/a	n/a	"fixation"	n/a	n/a	n/a	n/a	"NULL"	n/a	"NULL"	"NULL"	"NULL"	"<p style=\"color: black; font-size: 80px; padding-left: 10%; padding-right: 12%; padding-top: 35%; padding-bottom: 28%\">+</p>"	"1098"	n/a	n/a	n/a	n/a	n/a	n/a	n/a	n/a	n/a
n/a	"image-keyboard-response"	"80"	"217330"	"0.0-5.0-2.0-1.13"	"zq5ezl"	"600"	"1366"	"chrome"	"108.0.0"	"FALSE"	"Windows 10"	"60.32"	"149"	n/a	n/a	n/a	n/a	n/a	n/a	"Trial"	n/a	n/a	n/a	"859"	"arrowleft"	n/a	"NULL"	"NULL"	"NULL"	"stimuli/VerticalHorizontal_3.30000_0.06730.png"	n/a	"VerticalHorizontal"	"arrowleft"	"1117"	"TRUE"	"VerticalHorizontal"	"3.3000000000"	"0.0673000000"	"1"	"32"
n/a	"html-keyboard-response"	"81"	"218642"	"0.0-5.0-2.0-0.14"	"zq5ezl"	"600"	"1366"	"chrome"	"108.0.0"	"FALSE"	"Windows 10"	"60.32"	"149"	n/a	n/a	n/a	n/a	n/a	n/a	"fixation"	n/a	n/a	n/a	n/a	"NULL"	n/a	"NULL"	"NULL"	"NULL"	"<p style=\"color: black; font-size: 80px; padding-left: 22%; padding-right: 41%; padding-top: 41%; padding-bottom: 24%\">+</p>"	"1292"	n/a	n/a	n/a	n/a	n/a	n/a	n/a	n/a	n/a
n/a	"image-keyboard-response"	"82"	"219244"	"0.0-5.0-2.0-1.14"	"zq5ezl"	"600"	"1366"	"chrome"	"108.0.0"	"FALSE"	"Windows 10"	"60.32"	"149"	n/a	n/a	n/a	n/a	n/a	n/a	"Trial"	n/a	n/a	n/a	"598"	"arrowright"	n/a	"NULL"	"NULL"	"NULL"	"stimuli/VerticalHorizontal_11.78571_-0.16217.png"	n/a	"VerticalHorizontal"	"arrowright"	"1312"	"TRUE"	"VerticalHorizontal"	"11.785710000"	"-0.162170000"	"1"	"33"
n/a	"html-keyboard-response"	"83"	"220586"	"0.0-5.0-2.0-0.15"	"zq5ezl"	"600"	"1366"	"chrome"	"108.0.0"	"FALSE"	"Windows 10"	"60.32"	"149"	n/a	n/a	n/a	n/a	n/a	n/a	"fixation"	n/a	n/a	n/a	n/a	"NULL"	n/a	"NULL"	"NULL"	"NULL"	"<p style=\"color: black; font-size: 80px; padding-left: 15%; padding-right: 0%; padding-top: 2%; padding-bottom: 18%\">+</p>"	"1329"	n/a	n/a	n/a	n/a	n/a	n/a	n/a	n/a	n/a
n/a	"image-keyboard-response"	"84"	"221209"	"0.0-5.0-2.0-1.15"	"zq5ezl"	"600"	"1366"	"chrome"	"108.0.0"	"FALSE"	"Windows 10"	"60.32"	"149"	n/a	n/a	n/a	n/a	n/a	n/a	"Trial"	n/a	n/a	n/a	"622"	"arrowright"	n/a	"NULL"	"NULL"	"NULL"	"stimuli/VerticalHorizontal_11.78571_-0.2250.png"	n/a	"VerticalHorizontal"	"arrowright"	"1342"	"TRUE"	"VerticalHorizontal"	"11.785710000"	"-0.225000000"	"1"	"34"
n/a	"html-keyboard-response"	"85"	"222228"	"0.0-5.0-2.0-0.16"	"zq5ezl"	"600"	"1366"	"chrome"	"108.0.0"	"FALSE"	"Windows 10"	"60.32"	"149"	n/a	n/a	n/a	n/a	n/a	n/a	"fixation"	n/a	n/a	n/a	n/a	"NULL"	n/a	"NULL"	"NULL"	"NULL"	"<p style=\"color: black; font-size: 80px; padding-left: 2%; padding-right: 0%; padding-top: 4%; padding-bottom: 9%\">+</p>"	"1013"	n/a	n/a	n/a	n/a	n/a	n/a	n/a	n/a	n/a
n/a	"image-keyboard-response"	"86"	"222697"	"0.0-5.0-2.0-1.16"	"zq5ezl"	"600"	"1366"	"chrome"	"108.0.0"	"FALSE"	"Windows 10"	"60.32"	"149"	n/a	n/a	n/a	n/a	n/a	n/a	"Trial"	n/a	n/a	n/a	"468"	"arrowleft"	n/a	"NULL"	"NULL"	"NULL"	"stimuli/VerticalHorizontal_-28.75714_0.06730.png"	n/a	"VerticalHorizontal"	"arrowleft"	"1019"	"TRUE"	"VerticalHorizontal"	"-28.75714000"	"0.0673000000"	"1"	"35"
n/a	"html-keyboard-response"	"87"	"223769"	"0.0-5.0-2.0-0.17"	"zq5ezl"	"600"	"1366"	"chrome"	"108.0.0"	"FALSE"	"Windows 10"	"60.32"	"149"	n/a	n/a	n/a	n/a	n/a	n/a	"fixation"	n/a	n/a	n/a	n/a	"NULL"	n/a	"NULL"	"NULL"	"NULL"	"<p style=\"color: black; font-size: 80px; padding-left: 16%; padding-right: 17%; padding-top: 13%; padding-bottom: 11%\">+</p>"	"1064"	n/a	n/a	n/a	n/a	n/a	n/a	n/a	n/a	n/a
n/a	"image-keyboard-response"	"88"	"224253"	"0.0-5.0-2.0-1.17"	"zq5ezl"	"600"	"1366"	"chrome"	"108.0.0"	"FALSE"	"Windows 10"	"60.32"	"149"	n/a	n/a	n/a	n/a	n/a	n/a	"Trial"	n/a	n/a	n/a	"482"	"arrowleft"	n/a	"NULL"	"NULL"	"NULL"	"stimuli/VerticalHorizontal_-3.3000_0.22500.png"	n/a	"VerticalHorizontal"	"arrowleft"	"1072"	"TRUE"	"VerticalHorizontal"	"-3.300000000"	"0.2250000000"	"1"	"36"
n/a	"html-keyboard-response"	"89"	"225431"	"0.0-5.0-2.0-0.18"	"zq5ezl"	"600"	"1366"	"chrome"	"108.0.0"	"FALSE"	"Windows 10"	"60.32"	"149"	n/a	n/a	n/a	n/a	n/a	n/a	"fixation"	n/a	n/a	n/a	n/a	"NULL"	n/a	"NULL"	"NULL"	"NULL"	"<p style=\"color: black; font-size: 80px; padding-left: 21%; padding-right: 7%; padding-top: 43%; padding-bottom: 37%\">+</p>"	"1165"	n/a	n/a	n/a	n/a	n/a	n/a	n/a	n/a	n/a
n/a	"image-keyboard-response"	"90"	"225905"	"0.0-5.0-2.0-1.18"	"zq5ezl"	"600"	"1366"	"chrome"	"108.0.0"	"FALSE"	"Windows 10"	"60.32"	"149"	n/a	n/a	n/a	n/a	n/a	n/a	"Trial"	n/a	n/a	n/a	"474"	"arrowleft"	n/a	"NULL"	"NULL"	"NULL"	"stimuli/VerticalHorizontal_20.27143_-0.1096.png"	n/a	"VerticalHorizontal"	"arrowright"	"1178"	"FALSE"	"VerticalHorizontal"	"20.271430000"	"-0.109600000"	"1"	"37"
n/a	"html-keyboard-response"	"91"	"227137"	"0.0-5.0-2.0-0.19"	"zq5ezl"	"600"	"1366"	"chrome"	"108.0.0"	"FALSE"	"Windows 10"	"60.32"	"149"	n/a	n/a	n/a	n/a	n/a	n/a	"fixation"	n/a	n/a	n/a	n/a	"NULL"	n/a	"NULL"	"NULL"	"NULL"	"<p style=\"color: black; font-size: 80px; padding-left: 11%; padding-right: 39%; padding-top: 46%; padding-bottom: 6%\">+</p>"	"1226"	n/a	n/a	n/a	n/a	n/a	n/a	n/a	n/a	n/a
n/a	"image-keyboard-response"	"92"	"227647"	"0.0-5.0-2.0-1.19"	"zq5ezl"	"600"	"1366"	"chrome"	"108.0.0"	"FALSE"	"Windows 10"	"60.32"	"149"	n/a	n/a	n/a	n/a	n/a	n/a	"Trial"	n/a	n/a	n/a	"508"	"arrowleft"	n/a	"NULL"	"NULL"	"NULL"	"stimuli/VerticalHorizontal_-20.27143_0.10960.png"	n/a	"VerticalHorizontal"	"arrowleft"	"1232"	"TRUE"	"VerticalHorizontal"	"-20.27143000"	"0.1096000000"	"1"	"38"
n/a	"html-keyboard-response"	"93"	"228856"	"0.0-5.0-2.0-0.20"	"zq5ezl"	"600"	"1366"	"chrome"	"108.0.0"	"FALSE"	"Windows 10"	"60.32"	"149"	n/a	n/a	n/a	n/a	n/a	n/a	"fixation"	n/a	n/a	n/a	n/a	"NULL"	n/a	"NULL"	"NULL"	"NULL"	"<p style=\"color: black; font-size: 80px; padding-left: 10%; padding-right: 38%; padding-top: 45%; padding-bottom: 36%\">+</p>"	"1190"	n/a	n/a	n/a	n/a	n/a	n/a	n/a	n/a	n/a
n/a	"image-keyboard-response"	"94"	"229560"	"0.0-5.0-2.0-1.20"	"zq5ezl"	"600"	"1366"	"chrome"	"108.0.0"	"FALSE"	"Windows 10"	"60.32"	"149"	n/a	n/a	n/a	n/a	n/a	n/a	"Trial"	n/a	n/a	n/a	"704"	"arrowleft"	n/a	"NULL"	"NULL"	"NULL"	"stimuli/VerticalHorizontal_11.78571_0.06730.png"	n/a	"VerticalHorizontal"	"arrowleft"	"1209"	"TRUE"	"VerticalHorizontal"	"11.785710000"	"0.0673000000"	"1"	"39"
n/a	"html-keyboard-response"	"95"	"230710"	"0.0-5.0-2.0-0.21"	"zq5ezl"	"600"	"1366"	"chrome"	"108.0.0"	"FALSE"	"Windows 10"	"60.32"	"149"	n/a	n/a	n/a	n/a	n/a	n/a	"fixation"	n/a	n/a	n/a	n/a	"NULL"	n/a	"NULL"	"NULL"	"NULL"	"<p style=\"color: black; font-size: 80px; padding-left: 17%; padding-right: 12%; padding-top: 28%; padding-bottom: 1%\">+</p>"	"1138"	n/a	n/a	n/a	n/a	n/a	n/a	n/a	n/a	n/a
n/a	"image-keyboard-response"	"96"	"231204"	"0.0-5.0-2.0-1.21"	"zq5ezl"	"600"	"1366"	"chrome"	"108.0.0"	"FALSE"	"Windows 10"	"60.32"	"149"	n/a	n/a	n/a	n/a	n/a	n/a	"Trial"	n/a	n/a	n/a	"493"	"arrowright"	n/a	"NULL"	"NULL"	"NULL"	"stimuli/VerticalHorizontal_28.75714_0.22500.png"	n/a	"VerticalHorizontal"	"arrowleft"	"1150"	"FALSE"	"VerticalHorizontal"	"28.757140000"	"0.2250000000"	"1"	"40"
n/a	"html-keyboard-response"	"97"	"232294"	"0.0-5.0-2.0-0.22"	"zq5ezl"	"600"	"1366"	"chrome"	"108.0.0"	"FALSE"	"Windows 10"	"60.32"	"149"	n/a	n/a	n/a	n/a	n/a	n/a	"fixation"	n/a	n/a	n/a	n/a	"NULL"	n/a	"NULL"	"NULL"	"NULL"	"<p style=\"color: black; font-size: 80px; padding-left: 33%; padding-right: 42%; padding-top: 2%; padding-bottom: 13%\">+</p>"	"1083"	n/a	n/a	n/a	n/a	n/a	n/a	n/a	n/a	n/a
n/a	"image-keyboard-response"	"98"	"232981"	"0.0-5.0-2.0-1.22"	"zq5ezl"	"600"	"1366"	"chrome"	"108.0.0"	"FALSE"	"Windows 10"	"60.32"	"149"	n/a	n/a	n/a	n/a	n/a	n/a	"Trial"	n/a	n/a	n/a	"686"	"arrowright"	n/a	"NULL"	"NULL"	"NULL"	"stimuli/VerticalHorizontal_11.78571_-0.1096.png"	n/a	"VerticalHorizontal"	"arrowright"	"1090"	"TRUE"	"VerticalHorizontal"	"11.785710000"	"-0.109600000"	"1"	"41"
n/a	"html-keyboard-response"	"99"	"234319"	"0.0-5.0-2.0-0.23"	"zq5ezl"	"600"	"1366"	"chrome"	"108.0.0"	"FALSE"	"Windows 10"	"60.32"	"149"	n/a	n/a	n/a	n/a	n/a	n/a	"fixation"	n/a	n/a	n/a	n/a	"NULL"	n/a	"NULL"	"NULL"	"NULL"	"<p style=\"color: black; font-size: 80px; padding-left: 46%; padding-right: 44%; padding-top: 12%; padding-bottom: 33%\">+</p>"	"1330"	n/a	n/a	n/a	n/a	n/a	n/a	n/a	n/a	n/a
n/a	"image-keyboard-response"	"100"	"235010"	"0.0-5.0-2.0-1.23"	"zq5ezl"	"600"	"1366"	"chrome"	"108.0.0"	"FALSE"	"Windows 10"	"60.32"	"149"	n/a	n/a	n/a	n/a	n/a	n/a	"Trial"	n/a	n/a	n/a	"688"	"arrowright"	n/a	"NULL"	"NULL"	"NULL"	"stimuli/VerticalHorizontal_28.75714_-0.16217.png"	n/a	"VerticalHorizontal"	"arrowright"	"1338"	"TRUE"	"VerticalHorizontal"	"28.757140000"	"-0.162170000"	"1"	"42"
n/a	"html-keyboard-response"	"101"	"236420"	"0.0-5.0-2.0-0.24"	"zq5ezl"	"600"	"1366"	"chrome"	"108.0.0"	"FALSE"	"Windows 10"	"60.32"	"149"	n/a	n/a	n/a	n/a	n/a	n/a	"fixation"	n/a	n/a	n/a	n/a	"NULL"	n/a	"NULL"	"NULL"	"NULL"	"<p style=\"color: black; font-size: 80px; padding-left: 25%; padding-right: 1%; padding-top: 17%; padding-bottom: 14%\">+</p>"	"1402"	n/a	n/a	n/a	n/a	n/a	n/a	n/a	n/a	n/a
n/a	"image-keyboard-response"	"102"	"236963"	"0.0-5.0-2.0-1.24"	"zq5ezl"	"600"	"1366"	"chrome"	"108.0.0"	"FALSE"	"Windows 10"	"60.32"	"149"	n/a	n/a	n/a	n/a	n/a	n/a	"Trial"	n/a	n/a	n/a	"543"	"arrowright"	n/a	"NULL"	"NULL"	"NULL"	"stimuli/VerticalHorizontal_3.30000_-0.2250.png"	n/a	"VerticalHorizontal"	"arrowright"	"1410"	"TRUE"	"VerticalHorizontal"	"3.3000000000"	"-0.225000000"	"1"	"43"
n/a	"html-keyboard-response"	"103"	"238165"	"0.0-5.0-2.0-0.25"	"zq5ezl"	"600"	"1366"	"chrome"	"108.0.0"	"FALSE"	"Windows 10"	"60.32"	"149"	n/a	n/a	n/a	n/a	n/a	n/a	"fixation"	n/a	n/a	n/a	n/a	"NULL"	n/a	"NULL"	"NULL"	"NULL"	"<p style=\"color: black; font-size: 80px; padding-left: 38%; padding-right: 28%; padding-top: 46%; padding-bottom: 0%\">+</p>"	"1190"	n/a	n/a	n/a	n/a	n/a	n/a	n/a	n/a	n/a
n/a	"image-keyboard-response"	"104"	"238801"	"0.0-5.0-2.0-1.25"	"zq5ezl"	"600"	"1366"	"chrome"	"108.0.0"	"FALSE"	"Windows 10"	"60.32"	"149"	n/a	n/a	n/a	n/a	n/a	n/a	"Trial"	n/a	n/a	n/a	"635"	"arrowleft"	n/a	"NULL"	"NULL"	"NULL"	"stimuli/VerticalHorizontal_20.27143_0.16217.png"	n/a	"VerticalHorizontal"	"arrowleft"	"1202"	"TRUE"	"VerticalHorizontal"	"20.271430000"	"0.1621700000"	"1"	"44"
n/a	"html-keyboard-response"	"105"	"239981"	"0.0-5.0-2.0-0.26"	"zq5ezl"	"600"	"1366"	"chrome"	"108.0.0"	"FALSE"	"Windows 10"	"60.32"	"149"	n/a	n/a	n/a	n/a	n/a	n/a	"fixation"	n/a	n/a	n/a	n/a	"NULL"	n/a	"NULL"	"NULL"	"NULL"	"<p style=\"color: black; font-size: 80px; padding-left: 5%; padding-right: 7%; padding-top: 29%; padding-bottom: 14%\">+</p>"	"1177"	n/a	n/a	n/a	n/a	n/a	n/a	n/a	n/a	n/a
n/a	"image-keyboard-response"	"106"	"241058"	"0.0-5.0-2.0-1.26"	"zq5ezl"	"600"	"1366"	"chrome"	"108.0.0"	"FALSE"	"Windows 10"	"60.32"	"149"	n/a	n/a	n/a	n/a	n/a	n/a	"Trial"	n/a	n/a	n/a	"1074"	"arrowright"	n/a	"NULL"	"NULL"	"NULL"	"stimuli/VerticalHorizontal_20.27143_0.06730.png"	n/a	"VerticalHorizontal"	"arrowleft"	"1180"	"FALSE"	"VerticalHorizontal"	"20.271430000"	"0.0673000000"	"1"	"45"
n/a	"html-keyboard-response"	"107"	"242350"	"0.0-5.0-2.0-0.27"	"zq5ezl"	"600"	"1366"	"chrome"	"108.0.0"	"FALSE"	"Windows 10"	"60.32"	"149"	n/a	n/a	n/a	n/a	n/a	n/a	"fixation"	n/a	n/a	n/a	n/a	"NULL"	n/a	"NULL"	"NULL"	"NULL"	"<p style=\"color: black; font-size: 80px; padding-left: 41%; padding-right: 27%; padding-top: 50%; padding-bottom: 33%\">+</p>"	"1277"	n/a	n/a	n/a	n/a	n/a	n/a	n/a	n/a	n/a
n/a	"image-keyboard-response"	"108"	"242911"	"0.0-5.0-2.0-1.27"	"zq5ezl"	"600"	"1366"	"chrome"	"108.0.0"	"FALSE"	"Windows 10"	"60.32"	"149"	n/a	n/a	n/a	n/a	n/a	n/a	"Trial"	n/a	n/a	n/a	"560"	"arrowright"	n/a	"NULL"	"NULL"	"NULL"	"stimuli/VerticalHorizontal_-28.75714_-0.2250.png"	n/a	"VerticalHorizontal"	"arrowright"	"1292"	"TRUE"	"VerticalHorizontal"	"-28.75714000"	"-0.225000000"	"1"	"46"
n/a	"html-keyboard-response"	"109"	"244347"	"0.0-5.0-2.0-0.28"	"zq5ezl"	"600"	"1366"	"chrome"	"108.0.0"	"FALSE"	"Windows 10"	"60.32"	"149"	n/a	n/a	n/a	n/a	n/a	n/a	"fixation"	n/a	n/a	n/a	n/a	"NULL"	n/a	"NULL"	"NULL"	"NULL"	"<p style=\"color: black; font-size: 80px; padding-left: 29%; padding-right: 17%; padding-top: 2%; padding-bottom: 0%\">+</p>"	"1401"	n/a	n/a	n/a	n/a	n/a	n/a	n/a	n/a	n/a
n/a	"image-keyboard-response"	"110"	"244842"	"0.0-5.0-2.0-1.28"	"zq5ezl"	"600"	"1366"	"chrome"	"108.0.0"	"FALSE"	"Windows 10"	"60.32"	"149"	n/a	n/a	n/a	n/a	n/a	n/a	"Trial"	n/a	n/a	n/a	"487"	"arrowleft"	n/a	"NULL"	"NULL"	"NULL"	"stimuli/VerticalHorizontal_-28.75714_0.10960.png"	n/a	"VerticalHorizontal"	"arrowleft"	"1436"	"TRUE"	"VerticalHorizontal"	"-28.75714000"	"0.1096000000"	"1"	"47"
n/a	"html-keyboard-response"	"111"	"246293"	"0.0-5.0-2.0-0.29"	"zq5ezl"	"600"	"1366"	"chrome"	"108.0.0"	"FALSE"	"Windows 10"	"60.32"	"149"	n/a	n/a	n/a	n/a	n/a	n/a	"fixation"	n/a	n/a	n/a	n/a	"NULL"	n/a	"NULL"	"NULL"	"NULL"	"<p style=\"color: black; font-size: 80px; padding-left: 22%; padding-right: 15%; padding-top: 35%; padding-bottom: 35%\">+</p>"	"1437"	n/a	n/a	n/a	n/a	n/a	n/a	n/a	n/a	n/a
n/a	"image-keyboard-response"	"112"	"247012"	"0.0-5.0-2.0-1.29"	"zq5ezl"	"600"	"1366"	"chrome"	"108.0.0"	"FALSE"	"Windows 10"	"60.32"	"149"	n/a	n/a	n/a	n/a	n/a	n/a	"Trial"	n/a	n/a	n/a	"717"	"arrowright"	n/a	"NULL"	"NULL"	"NULL"	"stimuli/VerticalHorizontal_28.75714_0.10960.png"	n/a	"VerticalHorizontal"	"arrowleft"	"1451"	"FALSE"	"VerticalHorizontal"	"28.757140000"	"0.1096000000"	"1"	"48"
n/a	"html-keyboard-response"	"113"	"248074"	"0.0-5.0-2.0-0.30"	"zq5ezl"	"600"	"1366"	"chrome"	"108.0.0"	"FALSE"	"Windows 10"	"60.32"	"149"	n/a	n/a	n/a	n/a	n/a	n/a	"fixation"	n/a	n/a	n/a	n/a	"NULL"	n/a	"NULL"	"NULL"	"NULL"	"<p style=\"color: black; font-size: 80px; padding-left: 18%; padding-right: 28%; padding-top: 19%; padding-bottom: 7%\">+</p>"	"1049"	n/a	n/a	n/a	n/a	n/a	n/a	n/a	n/a	n/a
n/a	"image-keyboard-response"	"114"	"248819"	"0.0-5.0-2.0-1.30"	"zq5ezl"	"600"	"1366"	"chrome"	"108.0.0"	"FALSE"	"Windows 10"	"60.32"	"149"	n/a	n/a	n/a	n/a	n/a	n/a	"Trial"	n/a	n/a	n/a	"742"	"arrowright"	n/a	"NULL"	"NULL"	"NULL"	"stimuli/VerticalHorizontal_20.27143_-0.0673.png"	n/a	"VerticalHorizontal"	"arrowright"	"1062"	"TRUE"	"VerticalHorizontal"	"20.271430000"	"-0.067300000"	"1"	"49"
n/a	"html-keyboard-response"	"115"	"249935"	"0.0-5.0-2.0-0.31"	"zq5ezl"	"600"	"1366"	"chrome"	"108.0.0"	"FALSE"	"Windows 10"	"60.32"	"149"	n/a	n/a	n/a	n/a	n/a	n/a	"fixation"	n/a	n/a	n/a	n/a	"NULL"	n/a	"NULL"	"NULL"	"NULL"	"<p style=\"color: black; font-size: 80px; padding-left: 48%; padding-right: 29%; padding-top: 20%; padding-bottom: 3%\">+</p>"	"1106"	n/a	n/a	n/a	n/a	n/a	n/a	n/a	n/a	n/a
n/a	"image-keyboard-response"	"116"	"250458"	"0.0-5.0-2.0-1.31"	"zq5ezl"	"600"	"1366"	"chrome"	"108.0.0"	"FALSE"	"Windows 10"	"60.32"	"149"	n/a	n/a	n/a	n/a	n/a	n/a	"Trial"	n/a	n/a	n/a	"518"	"arrowleft"	n/a	"NULL"	"NULL"	"NULL"	"stimuli/VerticalHorizontal_-20.27143_0.22500.png"	n/a	"VerticalHorizontal"	"arrowleft"	"1116"	"TRUE"	"VerticalHorizontal"	"-20.27143000"	"0.2250000000"	"1"	"50"
n/a	"html-keyboard-response"	"117"	"251887"	"0.0-5.0-2.0-0.32"	"zq5ezl"	"600"	"1366"	"chrome"	"108.0.0"	"FALSE"	"Windows 10"	"60.32"	"149"	n/a	n/a	n/a	n/a	n/a	n/a	"fixation"	n/a	n/a	n/a	n/a	"NULL"	n/a	"NULL"	"NULL"	"NULL"	"<p style=\"color: black; font-size: 80px; padding-left: 41%; padding-right: 42%; padding-top: 25%; padding-bottom: 11%\">+</p>"	"1412"	n/a	n/a	n/a	n/a	n/a	n/a	n/a	n/a	n/a
n/a	"image-keyboard-response"	"118"	"252358"	"0.0-5.0-2.0-1.32"	"zq5ezl"	"600"	"1366"	"chrome"	"108.0.0"	"FALSE"	"Windows 10"	"60.32"	"149"	n/a	n/a	n/a	n/a	n/a	n/a	"Trial"	n/a	n/a	n/a	"470"	"arrowright"	n/a	"NULL"	"NULL"	"NULL"	"stimuli/VerticalHorizontal_-11.78571_-0.16217.png"	n/a	"VerticalHorizontal"	"arrowright"	"1429"	"TRUE"	"VerticalHorizontal"	"-11.78571000"	"-0.162170000"	"1"	"51"
n/a	"html-keyboard-response"	"119"	"253608"	"0.0-5.0-2.0-0.33"	"zq5ezl"	"600"	"1366"	"chrome"	"108.0.0"	"FALSE"	"Windows 10"	"60.32"	"149"	n/a	n/a	n/a	n/a	n/a	n/a	"fixation"	n/a	n/a	n/a	n/a	"NULL"	n/a	"NULL"	"NULL"	"NULL"	"<p style=\"color: black; font-size: 80px; padding-left: 21%; padding-right: 38%; padding-top: 15%; padding-bottom: 42%\">+</p>"	"1235"	n/a	n/a	n/a	n/a	n/a	n/a	n/a	n/a	n/a
n/a	"image-keyboard-response"	"120"	"254191"	"0.0-5.0-2.0-1.33"	"zq5ezl"	"600"	"1366"	"chrome"	"108.0.0"	"FALSE"	"Windows 10"	"60.32"	"149"	n/a	n/a	n/a	n/a	n/a	n/a	"Trial"	n/a	n/a	n/a	"582"	"arrowleft"	n/a	"NULL"	"NULL"	"NULL"	"stimuli/VerticalHorizontal_20.27143_0.22500.png"	n/a	"VerticalHorizontal"	"arrowleft"	"1250"	"TRUE"	"VerticalHorizontal"	"20.271430000"	"0.2250000000"	"1"	"52"
n/a	"html-keyboard-response"	"121"	"255623"	"0.0-5.0-2.0-0.34"	"zq5ezl"	"600"	"1366"	"chrome"	"108.0.0"	"FALSE"	"Windows 10"	"60.32"	"149"	n/a	n/a	n/a	n/a	n/a	n/a	"fixation"	n/a	n/a	n/a	n/a	"NULL"	n/a	"NULL"	"NULL"	"NULL"	"<p style=\"color: black; font-size: 80px; padding-left: 7%; padding-right: 11%; padding-top: 45%; padding-bottom: 27%\">+</p>"	"1421"	n/a	n/a	n/a	n/a	n/a	n/a	n/a	n/a	n/a
n/a	"image-keyboard-response"	"122"	"256143"	"0.0-5.0-2.0-1.34"	"zq5ezl"	"600"	"1366"	"chrome"	"108.0.0"	"FALSE"	"Windows 10"	"60.32"	"149"	n/a	n/a	n/a	n/a	n/a	n/a	"Trial"	n/a	n/a	n/a	"519"	"arrowleft"	n/a	"NULL"	"NULL"	"NULL"	"stimuli/VerticalHorizontal_-11.78571_0.10960.png"	n/a	"VerticalHorizontal"	"arrowleft"	"1432"	"TRUE"	"VerticalHorizontal"	"-11.78571000"	"0.1096000000"	"1"	"53"
n/a	"html-keyboard-response"	"123"	"257291"	"0.0-5.0-2.0-0.35"	"zq5ezl"	"600"	"1366"	"chrome"	"108.0.0"	"FALSE"	"Windows 10"	"60.32"	"149"	n/a	n/a	n/a	n/a	n/a	n/a	"fixation"	n/a	n/a	n/a	n/a	"NULL"	n/a	"NULL"	"NULL"	"NULL"	"<p style=\"color: black; font-size: 80px; padding-left: 6%; padding-right: 22%; padding-top: 35%; padding-bottom: 35%\">+</p>"	"1136"	n/a	n/a	n/a	n/a	n/a	n/a	n/a	n/a	n/a
n/a	"image-keyboard-response"	"124"	"257745"	"0.0-5.0-2.0-1.35"	"zq5ezl"	"600"	"1366"	"chrome"	"108.0.0"	"FALSE"	"Windows 10"	"60.32"	"149"	n/a	n/a	n/a	n/a	n/a	n/a	"Trial"	n/a	n/a	n/a	"452"	"arrowright"	n/a	"NULL"	"NULL"	"NULL"	"stimuli/VerticalHorizontal_-20.27143_-0.2250.png"	n/a	"VerticalHorizontal"	"arrowright"	"1148"	"TRUE"	"VerticalHorizontal"	"-20.27143000"	"-0.225000000"	"1"	"54"
n/a	"html-keyboard-response"	"125"	"259116"	"0.0-5.0-2.0-0.36"	"zq5ezl"	"600"	"1366"	"chrome"	"108.0.0"	"FALSE"	"Windows 10"	"60.32"	"149"	n/a	n/a	n/a	n/a	n/a	n/a	"fixation"	n/a	n/a	n/a	n/a	"NULL"	n/a	"NULL"	"NULL"	"NULL"	"<p style=\"color: black; font-size: 80px; padding-left: 36%; padding-right: 17%; padding-top: 8%; padding-bottom: 49%\">+</p>"	"1356"	n/a	n/a	n/a	n/a	n/a	n/a	n/a	n/a	n/a
n/a	"image-keyboard-response"	"126"	"259663"	"0.0-5.0-2.0-1.36"	"zq5ezl"	"600"	"1366"	"chrome"	"108.0.0"	"FALSE"	"Windows 10"	"60.32"	"149"	n/a	n/a	n/a	n/a	n/a	n/a	"Trial"	n/a	n/a	n/a	"546"	"arrowright"	n/a	"NULL"	"NULL"	"NULL"	"stimuli/VerticalHorizontal_-20.27143_-0.0673.png"	n/a	"VerticalHorizontal"	"arrowright"	"1371"	"TRUE"	"VerticalHorizontal"	"-20.27143000"	"-0.067300000"	"1"	"55"
n/a	"html-keyboard-response"	"127"	"260783"	"0.0-5.0-2.0-0.37"	"zq5ezl"	"600"	"1366"	"chrome"	"108.0.0"	"FALSE"	"Windows 10"	"60.32"	"149"	n/a	n/a	n/a	n/a	n/a	n/a	"fixation"	n/a	n/a	n/a	n/a	"NULL"	n/a	"NULL"	"NULL"	"NULL"	"<p style=\"color: black; font-size: 80px; padding-left: 6%; padding-right: 34%; padding-top: 37%; padding-bottom: 28%\">+</p>"	"1100"	n/a	n/a	n/a	n/a	n/a	n/a	n/a	n/a	n/a
n/a	"image-keyboard-response"	"128"	"261329"	"0.0-5.0-2.0-1.37"	"zq5ezl"	"600"	"1366"	"chrome"	"108.0.0"	"FALSE"	"Windows 10"	"60.32"	"149"	n/a	n/a	n/a	n/a	n/a	n/a	"Trial"	n/a	n/a	n/a	"545"	"arrowleft"	n/a	"NULL"	"NULL"	"NULL"	"stimuli/VerticalHorizontal_28.75714_-0.1096.png"	n/a	"VerticalHorizontal"	"arrowright"	"1120"	"FALSE"	"VerticalHorizontal"	"28.757140000"	"-0.109600000"	"1"	"56"
n/a	"html-keyboard-response"	"129"	"262666"	"0.0-5.0-2.0-0.38"	"zq5ezl"	"600"	"1366"	"chrome"	"108.0.0"	"FALSE"	"Windows 10"	"60.32"	"149"	n/a	n/a	n/a	n/a	n/a	n/a	"fixation"	n/a	n/a	n/a	n/a	"NULL"	n/a	"NULL"	"NULL"	"NULL"	"<p style=\"color: black; font-size: 80px; padding-left: 22%; padding-right: 39%; padding-top: 5%; padding-bottom: 42%\">+</p>"	"1322"	n/a	n/a	n/a	n/a	n/a	n/a	n/a	n/a	n/a
n/a	"image-keyboard-response"	"130"	"263319"	"0.0-5.0-2.0-1.38"	"zq5ezl"	"600"	"1366"	"chrome"	"108.0.0"	"FALSE"	"Windows 10"	"60.32"	"149"	n/a	n/a	n/a	n/a	n/a	n/a	"Trial"	n/a	n/a	n/a	"653"	"arrowleft"	n/a	"NULL"	"NULL"	"NULL"	"stimuli/VerticalHorizontal_28.75714_0.16217.png"	n/a	"VerticalHorizontal"	"arrowleft"	"1337"	"TRUE"	"VerticalHorizontal"	"28.757140000"	"0.1621700000"	"1"	"57"
n/a	"html-keyboard-response"	"131"	"264359"	"0.0-5.0-2.0-0.39"	"zq5ezl"	"600"	"1366"	"chrome"	"108.0.0"	"FALSE"	"Windows 10"	"60.32"	"149"	n/a	n/a	n/a	n/a	n/a	n/a	"fixation"	n/a	n/a	n/a	n/a	"NULL"	n/a	"NULL"	"NULL"	"NULL"	"<p style=\"color: black; font-size: 80px; padding-left: 36%; padding-right: 3%; padding-top: 36%; padding-bottom: 12%\">+</p>"	"1020"	n/a	n/a	n/a	n/a	n/a	n/a	n/a	n/a	n/a
n/a	"image-keyboard-response"	"132"	"265037"	"0.0-5.0-2.0-1.39"	"zq5ezl"	"600"	"1366"	"chrome"	"108.0.0"	"FALSE"	"Windows 10"	"60.32"	"149"	n/a	n/a	n/a	n/a	n/a	n/a	"Trial"	n/a	n/a	n/a	"677"	"arrowleft"	n/a	"NULL"	"NULL"	"NULL"	"stimuli/VerticalHorizontal_20.27143_0.10960.png"	n/a	"VerticalHorizontal"	"arrowleft"	"1040"	"TRUE"	"VerticalHorizontal"	"20.271430000"	"0.1096000000"	"1"	"58"
n/a	"html-keyboard-response"	"133"	"266402"	"0.0-5.0-2.0-0.40"	"zq5ezl"	"600"	"1366"	"chrome"	"108.0.0"	"FALSE"	"Windows 10"	"60.32"	"149"	n/a	n/a	n/a	n/a	n/a	n/a	"fixation"	n/a	n/a	n/a	n/a	"NULL"	n/a	"NULL"	"NULL"	"NULL"	"<p style=\"color: black; font-size: 80px; padding-left: 48%; padding-right: 3%; padding-top: 46%; padding-bottom: 5%\">+</p>"	"1349"	n/a	n/a	n/a	n/a	n/a	n/a	n/a	n/a	n/a
n/a	"image-keyboard-response"	"134"	"266983"	"0.0-5.0-2.0-1.40"	"zq5ezl"	"600"	"1366"	"chrome"	"108.0.0"	"FALSE"	"Windows 10"	"60.32"	"149"	n/a	n/a	n/a	n/a	n/a	n/a	"Trial"	n/a	n/a	n/a	"580"	"arrowleft"	n/a	"NULL"	"NULL"	"NULL"	"stimuli/VerticalHorizontal_3.30000_0.10960.png"	n/a	"VerticalHorizontal"	"arrowleft"	"1365"	"TRUE"	"VerticalHorizontal"	"3.3000000000"	"0.1096000000"	"1"	"59"
n/a	"html-keyboard-response"	"135"	"268404"	"0.0-5.0-2.0-0.41"	"zq5ezl"	"600"	"1366"	"chrome"	"108.0.0"	"FALSE"	"Windows 10"	"60.32"	"149"	n/a	n/a	n/a	n/a	n/a	n/a	"fixation"	n/a	n/a	n/a	n/a	"NULL"	n/a	"NULL"	"NULL"	"NULL"	"<p style=\"color: black; font-size: 80px; padding-left: 45%; padding-right: 29%; padding-top: 26%; padding-bottom: 14%\">+</p>"	"1407"	n/a	n/a	n/a	n/a	n/a	n/a	n/a	n/a	n/a
n/a	"image-keyboard-response"	"136"	"268911"	"0.0-5.0-2.0-1.41"	"zq5ezl"	"600"	"1366"	"chrome"	"108.0.0"	"FALSE"	"Windows 10"	"60.32"	"149"	n/a	n/a	n/a	n/a	n/a	n/a	"Trial"	n/a	n/a	n/a	"505"	"arrowright"	n/a	"NULL"	"NULL"	"NULL"	"stimuli/VerticalHorizontal_-20.27143_-0.1096.png"	n/a	"VerticalHorizontal"	"arrowright"	"1421"	"TRUE"	"VerticalHorizontal"	"-20.27143000"	"-0.109600000"	"1"	"60"
n/a	"html-keyboard-response"	"137"	"270351"	"0.0-5.0-2.0-0.42"	"zq5ezl"	"600"	"1366"	"chrome"	"108.0.0"	"FALSE"	"Windows 10"	"60.32"	"149"	n/a	n/a	n/a	n/a	n/a	n/a	"fixation"	n/a	n/a	n/a	n/a	"NULL"	n/a	"NULL"	"NULL"	"NULL"	"<p style=\"color: black; font-size: 80px; padding-left: 11%; padding-right: 44%; padding-top: 36%; padding-bottom: 38%\">+</p>"	"1422"	n/a	n/a	n/a	n/a	n/a	n/a	n/a	n/a	n/a
n/a	"image-keyboard-response"	"138"	"270989"	"0.0-5.0-2.0-1.42"	"zq5ezl"	"600"	"1366"	"chrome"	"108.0.0"	"FALSE"	"Windows 10"	"60.32"	"149"	n/a	n/a	n/a	n/a	n/a	n/a	"Trial"	n/a	n/a	n/a	"631"	"arrowright"	n/a	"NULL"	"NULL"	"NULL"	"stimuli/VerticalHorizontal_3.30000_-0.16217.png"	n/a	"VerticalHorizontal"	"arrowright"	"1440"	"TRUE"	"VerticalHorizontal"	"3.3000000000"	"-0.162170000"	"1"	"61"
n/a	"html-keyboard-response"	"139"	"272073"	"0.0-5.0-2.0-0.43"	"zq5ezl"	"600"	"1366"	"chrome"	"108.0.0"	"FALSE"	"Windows 10"	"60.32"	"149"	n/a	n/a	n/a	n/a	n/a	n/a	"fixation"	n/a	n/a	n/a	n/a	"NULL"	n/a	"NULL"	"NULL"	"NULL"	"<p style=\"color: black; font-size: 80px; padding-left: 10%; padding-right: 14%; padding-top: 40%; padding-bottom: 13%\">+</p>"	"1072"	n/a	n/a	n/a	n/a	n/a	n/a	n/a	n/a	n/a
n/a	"image-keyboard-response"	"140"	"273130"	"0.0-5.0-2.0-1.43"	"zq5ezl"	"600"	"1366"	"chrome"	"108.0.0"	"FALSE"	"Windows 10"	"60.32"	"149"	n/a	n/a	n/a	n/a	n/a	n/a	"Trial"	n/a	n/a	n/a	"1055"	"arrowleft"	n/a	"NULL"	"NULL"	"NULL"	"stimuli/VerticalHorizontal_11.78571_-0.0673.png"	n/a	"VerticalHorizontal"	"arrowright"	"1084"	"FALSE"	"VerticalHorizontal"	"11.785710000"	"-0.067300000"	"1"	"62"
n/a	"html-keyboard-response"	"141"	"274466"	"0.0-5.0-2.0-0.44"	"zq5ezl"	"600"	"1366"	"chrome"	"108.0.0"	"FALSE"	"Windows 10"	"60.32"	"149"	n/a	n/a	n/a	n/a	n/a	n/a	"fixation"	n/a	n/a	n/a	n/a	"NULL"	n/a	"NULL"	"NULL"	"NULL"	"<p style=\"color: black; font-size: 80px; padding-left: 37%; padding-right: 16%; padding-top: 47%; padding-bottom: 23%\">+</p>"	"1327"	n/a	n/a	n/a	n/a	n/a	n/a	n/a	n/a	n/a
n/a	"image-keyboard-response"	"142"	"275032"	"0.0-5.0-2.0-1.44"	"zq5ezl"	"600"	"1366"	"chrome"	"108.0.0"	"FALSE"	"Windows 10"	"60.32"	"149"	n/a	n/a	n/a	n/a	n/a	n/a	"Trial"	n/a	n/a	n/a	"565"	"arrowright"	n/a	"NULL"	"NULL"	"NULL"	"stimuli/VerticalHorizontal_-3.3000_-0.16217.png"	n/a	"VerticalHorizontal"	"arrowright"	"1336"	"TRUE"	"VerticalHorizontal"	"-3.300000000"	"-0.162170000"	"1"	"63"
n/a	"html-keyboard-response"	"143"	"276474"	"0.0-5.0-2.0-0.45"	"zq5ezl"	"600"	"1366"	"chrome"	"108.0.0"	"FALSE"	"Windows 10"	"60.32"	"149"	n/a	n/a	n/a	n/a	n/a	n/a	"fixation"	n/a	n/a	n/a	n/a	"NULL"	n/a	"NULL"	"NULL"	"NULL"	"<p style=\"color: black; font-size: 80px; padding-left: 35%; padding-right: 41%; padding-top: 30%; padding-bottom: 45%\">+</p>"	"1423"	n/a	n/a	n/a	n/a	n/a	n/a	n/a	n/a	n/a
n/a	"image-keyboard-response"	"144"	"277109"	"0.0-5.0-2.0-1.45"	"zq5ezl"	"600"	"1366"	"chrome"	"108.0.0"	"FALSE"	"Windows 10"	"60.32"	"149"	n/a	n/a	n/a	n/a	n/a	n/a	"Trial"	n/a	n/a	n/a	"634"	"arrowleft"	n/a	"NULL"	"NULL"	"NULL"	"stimuli/VerticalHorizontal_11.78571_0.16217.png"	n/a	"VerticalHorizontal"	"arrowleft"	"1442"	"TRUE"	"VerticalHorizontal"	"11.785710000"	"0.1621700000"	"1"	"64"
n/a	"html-keyboard-response"	"145"	"278441"	"0.0-5.0-2.0-0.46"	"zq5ezl"	"600"	"1366"	"chrome"	"108.0.0"	"FALSE"	"Windows 10"	"60.32"	"149"	n/a	n/a	n/a	n/a	n/a	n/a	"fixation"	n/a	n/a	n/a	n/a	"NULL"	n/a	"NULL"	"NULL"	"NULL"	"<p style=\"color: black; font-size: 80px; padding-left: 3%; padding-right: 37%; padding-top: 35%; padding-bottom: 47%\">+</p>"	"1320"	n/a	n/a	n/a	n/a	n/a	n/a	n/a	n/a	n/a
n/a	"image-keyboard-response"	"146"	"278951"	"0.0-5.0-2.0-1.46"	"zq5ezl"	"600"	"1366"	"chrome"	"108.0.0"	"FALSE"	"Windows 10"	"60.32"	"149"	n/a	n/a	n/a	n/a	n/a	n/a	"Trial"	n/a	n/a	n/a	"509"	"arrowleft"	n/a	"NULL"	"NULL"	"NULL"	"stimuli/VerticalHorizontal_-3.3000_0.16217.png"	n/a	"VerticalHorizontal"	"arrowleft"	"1332"	"TRUE"	"VerticalHorizontal"	"-3.300000000"	"0.1621700000"	"1"	"65"
n/a	"html-keyboard-response"	"147"	"280243"	"0.0-5.0-2.0-0.47"	"zq5ezl"	"600"	"1366"	"chrome"	"108.0.0"	"FALSE"	"Windows 10"	"60.32"	"149"	n/a	n/a	n/a	n/a	n/a	n/a	"fixation"	n/a	n/a	n/a	n/a	"NULL"	n/a	"NULL"	"NULL"	"NULL"	"<p style=\"color: black; font-size: 80px; padding-left: 46%; padding-right: 44%; padding-top: 4%; padding-bottom: 44%\">+</p>"	"1282"	n/a	n/a	n/a	n/a	n/a	n/a	n/a	n/a	n/a
n/a	"image-keyboard-response"	"148"	"280840"	"0.0-5.0-2.0-1.47"	"zq5ezl"	"600"	"1366"	"chrome"	"108.0.0"	"FALSE"	"Windows 10"	"60.32"	"149"	n/a	n/a	n/a	n/a	n/a	n/a	"Trial"	n/a	n/a	n/a	"595"	"arrowright"	n/a	"NULL"	"NULL"	"NULL"	"stimuli/VerticalHorizontal_-3.3000_-0.0673.png"	n/a	"VerticalHorizontal"	"arrowright"	"1292"	"TRUE"	"VerticalHorizontal"	"-3.300000000"	"-0.067300000"	"1"	"66"
n/a	"html-keyboard-response"	"149"	"282123"	"0.0-5.0-2.0-0.48"	"zq5ezl"	"600"	"1366"	"chrome"	"108.0.0"	"FALSE"	"Windows 10"	"60.32"	"149"	n/a	n/a	n/a	n/a	n/a	n/a	"fixation"	n/a	n/a	n/a	n/a	"NULL"	n/a	"NULL"	"NULL"	"NULL"	"<p style=\"color: black; font-size: 80px; padding-left: 47%; padding-right: 34%; padding-top: 6%; padding-bottom: 40%\">+</p>"	"1260"	n/a	n/a	n/a	n/a	n/a	n/a	n/a	n/a	n/a
n/a	"image-keyboard-response"	"150"	"282703"	"0.0-5.0-2.0-1.48"	"zq5ezl"	"600"	"1366"	"chrome"	"108.0.0"	"FALSE"	"Windows 10"	"60.32"	"149"	n/a	n/a	n/a	n/a	n/a	n/a	"Trial"	n/a	n/a	n/a	"578"	"arrowleft"	n/a	"NULL"	"NULL"	"NULL"	"stimuli/VerticalHorizontal_11.78571_0.22500.png"	n/a	"VerticalHorizontal"	"arrowleft"	"1283"	"TRUE"	"VerticalHorizontal"	"11.785710000"	"0.2250000000"	"1"	"67"
n/a	"html-keyboard-response"	"151"	"284108"	"0.0-5.0-2.0-0.49"	"zq5ezl"	"600"	"1366"	"chrome"	"108.0.0"	"FALSE"	"Windows 10"	"60.32"	"149"	n/a	n/a	n/a	n/a	n/a	n/a	"fixation"	n/a	n/a	n/a	n/a	"NULL"	n/a	"NULL"	"NULL"	"NULL"	"<p style=\"color: black; font-size: 80px; padding-left: 43%; padding-right: 15%; padding-top: 30%; padding-bottom: 30%\">+</p>"	"1402"	n/a	n/a	n/a	n/a	n/a	n/a	n/a	n/a	n/a
n/a	"image-keyboard-response"	"152"	"284650"	"0.0-5.0-2.0-1.49"	"zq5ezl"	"600"	"1366"	"chrome"	"108.0.0"	"FALSE"	"Windows 10"	"60.32"	"149"	n/a	n/a	n/a	n/a	n/a	n/a	"Trial"	n/a	n/a	n/a	"541"	"arrowleft"	n/a	"NULL"	"NULL"	"NULL"	"stimuli/VerticalHorizontal_-20.27143_0.16217.png"	n/a	"VerticalHorizontal"	"arrowleft"	"1405"	"TRUE"	"VerticalHorizontal"	"-20.27143000"	"0.1621700000"	"1"	"68"
n/a	"html-keyboard-response"	"153"	"286030"	"0.0-5.0-2.0-0.50"	"zq5ezl"	"600"	"1366"	"chrome"	"108.0.0"	"FALSE"	"Windows 10"	"60.32"	"149"	n/a	n/a	n/a	n/a	n/a	n/a	"fixation"	n/a	n/a	n/a	n/a	"NULL"	n/a	"NULL"	"NULL"	"NULL"	"<p style=\"color: black; font-size: 80px; padding-left: 39%; padding-right: 37%; padding-top: 26%; padding-bottom: 23%\">+</p>"	"1373"	n/a	n/a	n/a	n/a	n/a	n/a	n/a	n/a	n/a
n/a	"image-keyboard-response"	"154"	"286779"	"0.0-5.0-2.0-1.50"	"zq5ezl"	"600"	"1366"	"chrome"	"108.0.0"	"FALSE"	"Windows 10"	"60.32"	"149"	n/a	n/a	n/a	n/a	n/a	n/a	"Trial"	n/a	n/a	n/a	"747"	"arrowright"	n/a	"NULL"	"NULL"	"NULL"	"stimuli/VerticalHorizontal_3.30000_-0.1096.png"	n/a	"VerticalHorizontal"	"arrowright"	"1380"	"TRUE"	"VerticalHorizontal"	"3.3000000000"	"-0.109600000"	"1"	"69"
n/a	"html-keyboard-response"	"155"	"288181"	"0.0-5.0-2.0-0.51"	"zq5ezl"	"600"	"1366"	"chrome"	"108.0.0"	"FALSE"	"Windows 10"	"60.32"	"149"	n/a	n/a	n/a	n/a	n/a	n/a	"fixation"	n/a	n/a	n/a	n/a	"NULL"	n/a	"NULL"	"NULL"	"NULL"	"<p style=\"color: black; font-size: 80px; padding-left: 44%; padding-right: 8%; padding-top: 9%; padding-bottom: 33%\">+</p>"	"1399"	n/a	n/a	n/a	n/a	n/a	n/a	n/a	n/a	n/a
n/a	"image-keyboard-response"	"156"	"288821"	"0.0-5.0-2.0-1.51"	"zq5ezl"	"600"	"1366"	"chrome"	"108.0.0"	"FALSE"	"Windows 10"	"60.32"	"149"	n/a	n/a	n/a	n/a	n/a	n/a	"Trial"	n/a	n/a	n/a	"636"	"arrowleft"	n/a	"NULL"	"NULL"	"NULL"	"stimuli/VerticalHorizontal_11.78571_0.10960.png"	n/a	"VerticalHorizontal"	"arrowleft"	"1402"	"TRUE"	"VerticalHorizontal"	"11.785710000"	"0.1096000000"	"1"	"70"
n/a	"html-keyboard-response"	"157"	"290329"	"0.0-5.0-2.0-0.52"	"zq5ezl"	"600"	"1366"	"chrome"	"108.0.0"	"FALSE"	"Windows 10"	"60.32"	"149"	n/a	n/a	n/a	n/a	n/a	n/a	"fixation"	n/a	n/a	n/a	n/a	"NULL"	n/a	"NULL"	"NULL"	"NULL"	"<p style=\"color: black; font-size: 80px; padding-left: 8%; padding-right: 23%; padding-top: 0%; padding-bottom: 34%\">+</p>"	"1496"	n/a	n/a	n/a	n/a	n/a	n/a	n/a	n/a	n/a
n/a	"image-keyboard-response"	"158"	"290825"	"0.0-5.0-2.0-1.52"	"zq5ezl"	"600"	"1366"	"chrome"	"108.0.0"	"FALSE"	"Windows 10"	"60.32"	"149"	n/a	n/a	n/a	n/a	n/a	n/a	"Trial"	n/a	n/a	n/a	"489"	"arrowright"	n/a	"NULL"	"NULL"	"NULL"	"stimuli/VerticalHorizontal_-11.78571_-0.1096.png"	n/a	"VerticalHorizontal"	"arrowright"	"1508"	"TRUE"	"VerticalHorizontal"	"-11.78571000"	"-0.109600000"	"1"	"71"
n/a	"html-keyboard-response"	"159"	"291917"	"0.0-5.0-2.0-0.53"	"zq5ezl"	"600"	"1366"	"chrome"	"108.0.0"	"FALSE"	"Windows 10"	"60.32"	"149"	n/a	n/a	n/a	n/a	n/a	n/a	"fixation"	n/a	n/a	n/a	n/a	"NULL"	n/a	"NULL"	"NULL"	"NULL"	"<p style=\"color: black; font-size: 80px; padding-left: 32%; padding-right: 9%; padding-top: 5%; padding-bottom: 6%\">+</p>"	"1085"	n/a	n/a	n/a	n/a	n/a	n/a	n/a	n/a	n/a
n/a	"image-keyboard-response"	"160"	"292454"	"0.0-5.0-2.0-1.53"	"zq5ezl"	"600"	"1366"	"chrome"	"108.0.0"	"FALSE"	"Windows 10"	"60.32"	"149"	n/a	n/a	n/a	n/a	n/a	n/a	"Trial"	n/a	n/a	n/a	"534"	"arrowright"	n/a	"NULL"	"NULL"	"NULL"	"stimuli/VerticalHorizontal_-3.3000_-0.2250.png"	n/a	"VerticalHorizontal"	"arrowright"	"1092"	"TRUE"	"VerticalHorizontal"	"-3.300000000"	"-0.225000000"	"1"	"72"
n/a	"html-keyboard-response"	"161"	"293553"	"0.0-5.0-2.0-0.54"	"zq5ezl"	"600"	"1366"	"chrome"	"108.0.0"	"FALSE"	"Windows 10"	"60.32"	"149"	n/a	n/a	n/a	n/a	n/a	n/a	"fixation"	n/a	n/a	n/a	n/a	"NULL"	n/a	"NULL"	"NULL"	"NULL"	"<p style=\"color: black; font-size: 80px; padding-left: 13%; padding-right: 34%; padding-top: 25%; padding-bottom: 11%\">+</p>"	"1079"	n/a	n/a	n/a	n/a	n/a	n/a	n/a	n/a	n/a
n/a	"image-keyboard-response"	"162"	"294176"	"0.0-5.0-2.0-1.54"	"zq5ezl"	"600"	"1366"	"chrome"	"108.0.0"	"FALSE"	"Windows 10"	"60.32"	"149"	n/a	n/a	n/a	n/a	n/a	n/a	"Trial"	n/a	n/a	n/a	"622"	"arrowright"	n/a	"NULL"	"NULL"	"NULL"	"stimuli/VerticalHorizontal_28.75714_-0.2250.png"	n/a	"VerticalHorizontal"	"arrowright"	"1099"	"TRUE"	"VerticalHorizontal"	"28.757140000"	"-0.225000000"	"1"	"73"
n/a	"html-keyboard-response"	"163"	"295355"	"0.0-5.0-2.0-0.55"	"zq5ezl"	"600"	"1366"	"chrome"	"108.0.0"	"FALSE"	"Windows 10"	"60.32"	"149"	n/a	n/a	n/a	n/a	n/a	n/a	"fixation"	n/a	n/a	n/a	n/a	"NULL"	n/a	"NULL"	"NULL"	"NULL"	"<p style=\"color: black; font-size: 80px; padding-left: 48%; padding-right: 42%; padding-top: 16%; padding-bottom: 19%\">+</p>"	"1157"	n/a	n/a	n/a	n/a	n/a	n/a	n/a	n/a	n/a
n/a	"image-keyboard-response"	"164"	"295827"	"0.0-5.0-2.0-1.55"	"zq5ezl"	"600"	"1366"	"chrome"	"108.0.0"	"FALSE"	"Windows 10"	"60.32"	"149"	n/a	n/a	n/a	n/a	n/a	n/a	"Trial"	n/a	n/a	n/a	"468"	"arrowleft"	n/a	"NULL"	"NULL"	"NULL"	"stimuli/VerticalHorizontal_-28.75714_0.16217.png"	n/a	"VerticalHorizontal"	"arrowleft"	"1179"	"TRUE"	"VerticalHorizontal"	"-28.75714000"	"0.1621700000"	"1"	"74"
n/a	"html-keyboard-response"	"165"	"297253"	"0.0-5.0-2.0-0.56"	"zq5ezl"	"600"	"1366"	"chrome"	"108.0.0"	"FALSE"	"Windows 10"	"60.32"	"149"	n/a	n/a	n/a	n/a	n/a	n/a	"fixation"	n/a	n/a	n/a	n/a	"NULL"	n/a	"NULL"	"NULL"	"NULL"	"<p style=\"color: black; font-size: 80px; padding-left: 28%; padding-right: 20%; padding-top: 36%; padding-bottom: 26%\">+</p>"	"1416"	n/a	n/a	n/a	n/a	n/a	n/a	n/a	n/a	n/a
n/a	"image-keyboard-response"	"166"	"297714"	"0.0-5.0-2.0-1.56"	"zq5ezl"	"600"	"1366"	"chrome"	"108.0.0"	"FALSE"	"Windows 10"	"60.32"	"149"	n/a	n/a	n/a	n/a	n/a	n/a	"Trial"	n/a	n/a	n/a	"460"	"arrowleft"	n/a	"NULL"	"NULL"	"NULL"	"stimuli/VerticalHorizontal_28.75714_-0.0673.png"	n/a	"VerticalHorizontal"	"arrowright"	"1426"	"FALSE"	"VerticalHorizontal"	"28.757140000"	"-0.067300000"	"1"	"75"
n/a	"html-keyboard-response"	"167"	"299166"	"0.0-5.0-2.0-0.57"	"zq5ezl"	"600"	"1366"	"chrome"	"108.0.0"	"FALSE"	"Windows 10"	"60.32"	"149"	n/a	n/a	n/a	n/a	n/a	n/a	"fixation"	n/a	n/a	n/a	n/a	"NULL"	n/a	"NULL"	"NULL"	"NULL"	"<p style=\"color: black; font-size: 80px; padding-left: 18%; padding-right: 49%; padding-top: 10%; padding-bottom: 43%\">+</p>"	"1443"	n/a	n/a	n/a	n/a	n/a	n/a	n/a	n/a	n/a
n/a	"image-keyboard-response"	"168"	"299731"	"0.0-5.0-2.0-1.57"	"zq5ezl"	"600"	"1366"	"chrome"	"108.0.0"	"FALSE"	"Windows 10"	"60.32"	"149"	n/a	n/a	n/a	n/a	n/a	n/a	"Trial"	n/a	n/a	n/a	"564"	"arrowleft"	n/a	"NULL"	"NULL"	"NULL"	"stimuli/VerticalHorizontal_-28.75714_0.22500.png"	n/a	"VerticalHorizontal"	"arrowleft"	"1452"	"TRUE"	"VerticalHorizontal"	"-28.75714000"	"0.2250000000"	"1"	"76"
n/a	"html-keyboard-response"	"169"	"300748"	"0.0-5.0-2.0-0.58"	"zq5ezl"	"600"	"1366"	"chrome"	"108.0.0"	"FALSE"	"Windows 10"	"60.32"	"149"	n/a	n/a	n/a	n/a	n/a	n/a	"fixation"	n/a	n/a	n/a	n/a	"NULL"	n/a	"NULL"	"NULL"	"NULL"	"<p style=\"color: black; font-size: 80px; padding-left: 15%; padding-right: 25%; padding-top: 18%; padding-bottom: 11%\">+</p>"	"1003"	n/a	n/a	n/a	n/a	n/a	n/a	n/a	n/a	n/a
n/a	"image-keyboard-response"	"170"	"301294"	"0.0-5.0-2.0-1.58"	"zq5ezl"	"600"	"1366"	"chrome"	"108.0.0"	"FALSE"	"Windows 10"	"60.32"	"149"	n/a	n/a	n/a	n/a	n/a	n/a	"Trial"	n/a	n/a	n/a	"543"	"arrowright"	n/a	"NULL"	"NULL"	"NULL"	"stimuli/VerticalHorizontal_-11.78571_-0.0673.png"	n/a	"VerticalHorizontal"	"arrowright"	"1017"	"TRUE"	"VerticalHorizontal"	"-11.78571000"	"-0.067300000"	"1"	"77"
n/a	"html-keyboard-response"	"171"	"302489"	"0.0-5.0-2.0-0.59"	"zq5ezl"	"600"	"1366"	"chrome"	"108.0.0"	"FALSE"	"Windows 10"	"60.32"	"149"	n/a	n/a	n/a	n/a	n/a	n/a	"fixation"	n/a	n/a	n/a	n/a	"NULL"	n/a	"NULL"	"NULL"	"NULL"	"<p style=\"color: black; font-size: 80px; padding-left: 25%; padding-right: 25%; padding-top: 14%; padding-bottom: 23%\">+</p>"	"1180"	n/a	n/a	n/a	n/a	n/a	n/a	n/a	n/a	n/a
n/a	"image-keyboard-response"	"172"	"303033"	"0.0-5.0-2.0-1.59"	"zq5ezl"	"600"	"1366"	"chrome"	"108.0.0"	"FALSE"	"Windows 10"	"60.32"	"149"	n/a	n/a	n/a	n/a	n/a	n/a	"Trial"	n/a	n/a	n/a	"543"	"arrowleft"	n/a	"NULL"	"NULL"	"NULL"	"stimuli/VerticalHorizontal_-3.3000_0.06730.png"	n/a	"VerticalHorizontal"	"arrowleft"	"1195"	"TRUE"	"VerticalHorizontal"	"-3.300000000"	"0.0673000000"	"1"	"78"
n/a	"html-keyboard-response"	"173"	"304385"	"0.0-5.0-2.0-0.60"	"zq5ezl"	"600"	"1366"	"chrome"	"108.0.0"	"FALSE"	"Windows 10"	"60.32"	"149"	n/a	n/a	n/a	n/a	n/a	n/a	"fixation"	n/a	n/a	n/a	n/a	"NULL"	n/a	"NULL"	"NULL"	"NULL"	"<p style=\"color: black; font-size: 80px; padding-left: 34%; padding-right: 43%; padding-top: 14%; padding-bottom: 46%\">+</p>"	"1332"	n/a	n/a	n/a	n/a	n/a	n/a	n/a	n/a	n/a
n/a	"image-keyboard-response"	"174"	"304913"	"0.0-5.0-2.0-1.60"	"zq5ezl"	"600"	"1366"	"chrome"	"108.0.0"	"FALSE"	"Windows 10"	"60.32"	"149"	n/a	n/a	n/a	n/a	n/a	n/a	"Trial"	n/a	n/a	n/a	"527"	"arrowright"	n/a	"NULL"	"NULL"	"NULL"	"stimuli/VerticalHorizontal_-28.75714_-0.1096.png"	n/a	"VerticalHorizontal"	"arrowright"	"1352"	"TRUE"	"VerticalHorizontal"	"-28.75714000"	"-0.109600000"	"1"	"79"
n/a	"html-keyboard-response"	"175"	"305949"	"0.0-5.0-2.0-0.61"	"zq5ezl"	"600"	"1366"	"chrome"	"108.0.0"	"FALSE"	"Windows 10"	"60.32"	"149"	n/a	n/a	n/a	n/a	n/a	n/a	"fixation"	n/a	n/a	n/a	n/a	"NULL"	n/a	"NULL"	"NULL"	"NULL"	"<p style=\"color: black; font-size: 80px; padding-left: 37%; padding-right: 44%; padding-top: 44%; padding-bottom: 36%\">+</p>"	"1026"	n/a	n/a	n/a	n/a	n/a	n/a	n/a	n/a	n/a
n/a	"image-keyboard-response"	"176"	"306535"	"0.0-5.0-2.0-1.61"	"zq5ezl"	"600"	"1366"	"chrome"	"108.0.0"	"FALSE"	"Windows 10"	"60.32"	"149"	n/a	n/a	n/a	n/a	n/a	n/a	"Trial"	n/a	n/a	n/a	"582"	"arrowleft"	n/a	"NULL"	"NULL"	"NULL"	"stimuli/VerticalHorizontal_3.30000_0.22500.png"	n/a	"VerticalHorizontal"	"arrowleft"	"1036"	"TRUE"	"VerticalHorizontal"	"3.3000000000"	"0.2250000000"	"1"	"80"
n/a	"html-keyboard-response"	"177"	"307739"	"0.0-5.0-2.0-0.62"	"zq5ezl"	"600"	"1366"	"chrome"	"108.0.0"	"FALSE"	"Windows 10"	"60.32"	"149"	n/a	n/a	n/a	n/a	n/a	n/a	"fixation"	n/a	n/a	n/a	n/a	"NULL"	n/a	"NULL"	"NULL"	"NULL"	"<p style=\"color: black; font-size: 80px; padding-left: 23%; padding-right: 22%; padding-top: 34%; padding-bottom: 24%\">+</p>"	"1182"	n/a	n/a	n/a	n/a	n/a	n/a	n/a	n/a	n/a
n/a	"image-keyboard-response"	"178"	"308255"	"0.0-5.0-2.0-1.62"	"zq5ezl"	"600"	"1366"	"chrome"	"108.0.0"	"FALSE"	"Windows 10"	"60.32"	"149"	n/a	n/a	n/a	n/a	n/a	n/a	"Trial"	n/a	n/a	n/a	"515"	"arrowright"	n/a	"NULL"	"NULL"	"NULL"	"stimuli/VerticalHorizontal_20.27143_-0.2250.png"	n/a	"VerticalHorizontal"	"arrowright"	"1204"	"TRUE"	"VerticalHorizontal"	"20.271430000"	"-0.225000000"	"1"	"81"
n/a	"html-keyboard-response"	"179"	"309562"	"0.0-5.0-2.0-0.63"	"zq5ezl"	"600"	"1366"	"chrome"	"108.0.0"	"FALSE"	"Windows 10"	"60.32"	"149"	n/a	n/a	n/a	n/a	n/a	n/a	"fixation"	n/a	n/a	n/a	n/a	"NULL"	n/a	"NULL"	"NULL"	"NULL"	"<p style=\"color: black; font-size: 80px; padding-left: 3%; padding-right: 6%; padding-top: 28%; padding-bottom: 34%\">+</p>"	"1285"	n/a	n/a	n/a	n/a	n/a	n/a	n/a	n/a	n/a
n/a	"image-keyboard-response"	"180"	"310519"	"0.0-5.0-2.0-1.63"	"zq5ezl"	"600"	"1366"	"chrome"	"108.0.0"	"FALSE"	"Windows 10"	"60.32"	"149"	n/a	n/a	n/a	n/a	n/a	n/a	"Trial"	n/a	n/a	n/a	"955"	"arrowright"	n/a	"NULL"	"NULL"	"NULL"	"stimuli/VerticalHorizontal_3.30000_-0.0673.png"	n/a	"VerticalHorizontal"	"arrowright"	"1307"	"TRUE"	"VerticalHorizontal"	"3.3000000000"	"-0.067300000"	"1"	"82"
n/a	"html-button-response"	"181"	"334326"	"0.0-5.0-3.0"	"zq5ezl"	"600"	"1366"	"chrome"	"108.0.0"	"FALSE"	"Windows 10"	"60.32"	"149"	n/a	n/a	n/a	n/a	n/a	n/a	"block_results"	n/a	n/a	n/a	"23805"	"0"	n/a	"NULL"	"NULL"	"NULL"	"<p>Your score for this illusion is <p style=\"color: black; font-size: 48px; font-weight: bold;\">81.1 %</p><hr><p>Can you do better in the next illusion?</p>"	n/a	n/a	n/a	n/a	n/a	n/a	n/a	n/a	n/a	n/a
"TRUE"	"preload"	"182"	"334516"	"0.0-6.0-0.0"	"zq5ezl"	"600"	"1366"	"chrome"	"108.0.0"	"FALSE"	"Windows 10"	"60.32"	"149"	n/a	n/a	n/a	n/a	n/a	n/a	n/a	n/a	n/a	n/a	n/a	"NULL"	"FALSE"	"list()"	"list()"	"list()"	n/a	n/a	n/a	n/a	n/a	n/a	n/a	n/a	n/a	n/a	n/a
n/a	"html-keyboard-response"	"183"	"337446"	"0.0-6.0-1.0"	"zq5ezl"	"600"	"1366"	"chrome"	"108.0.0"	"FALSE"	"Windows 10"	"60.32"	"149"	n/a	n/a	n/a	n/a	n/a	n/a	n/a	n/a	n/a	n/a	"2929"	"enter"	n/a	"NULL"	"NULL"	"NULL"	"<p><b>Part 2/6</b></p><p>In this part, two horizontal red lines will appear one above the other.</p><p>Your task is to select which <b>line is longer</b> in length as fast as you can, without making errors.</p><p>Don't get distracted by the surrounding black arrows at the end of the red lines!</p><p>Press <b>the UP or the DOWN arrow</b> to indicate where is the longer <b>red line.</b></p><div style='float: center'><img src='materials/instructions/MullerLyer_Demo.png' height='300'></img><p><img src='utils/answer/answer_updown_keyboard.PNG' height='150'></img></p><p class='small'>In this example, the correct answer is the <b>UP arrow</b>.</p></div><p>Are you ready? <b>Press ENTER to start</b></p>"	n/a	n/a	n/a	n/a	n/a	n/a	n/a	n/a	n/a	n/a
n/a	"html-keyboard-response"	"184"	"338974"	"0.0-6.0-2.0-0.0"	"zq5ezl"	"600"	"1366"	"chrome"	"108.0.0"	"FALSE"	"Windows 10"	"60.32"	"149"	n/a	n/a	n/a	n/a	n/a	n/a	"fixation"	n/a	n/a	n/a	n/a	"NULL"	n/a	"NULL"	"NULL"	"NULL"	"<p style=\"color: black; font-size: 80px; padding-left: 18%; padding-right: 33%; padding-top: 38%; padding-bottom: 36%\">+</p>"	"1004"	n/a	n/a	n/a	n/a	n/a	n/a	n/a	n/a	n/a
n/a	"image-keyboard-response"	"185"	"339909"	"0.0-6.0-2.0-1.0"	"zq5ezl"	"600"	"1366"	"chrome"	"108.0.0"	"FALSE"	"Windows 10"	"60.32"	"149"	n/a	n/a	n/a	n/a	n/a	n/a	"Trial"	n/a	n/a	n/a	"935"	"arrowup"	n/a	"NULL"	"NULL"	"NULL"	"stimuli/MullerLyer_20.04286_0.35000.png"	n/a	"MullerLyer"	"arrowup"	"1528"	"TRUE"	"MullerLyer"	"20.042860000"	"0.3500000000"	"2"	"1"
n/a	"html-keyboard-response"	"186"	"341112"	"0.0-6.0-2.0-0.1"	"zq5ezl"	"600"	"1366"	"chrome"	"108.0.0"	"FALSE"	"Windows 10"	"60.32"	"149"	n/a	n/a	n/a	n/a	n/a	n/a	"fixation"	n/a	n/a	n/a	n/a	"NULL"	n/a	"NULL"	"NULL"	"NULL"	"<p style=\"color: black; font-size: 80px; padding-left: 35%; padding-right: 41%; padding-top: 5%; padding-bottom: 16%\">+</p>"	"1185"	n/a	n/a	n/a	n/a	n/a	n/a	n/a	n/a	n/a
n/a	"image-keyboard-response"	"187"	"341763"	"0.0-6.0-2.0-1.1"	"zq5ezl"	"600"	"1366"	"chrome"	"108.0.0"	"FALSE"	"Windows 10"	"60.32"	"149"	n/a	n/a	n/a	n/a	n/a	n/a	"Trial"	n/a	n/a	n/a	"650"	"arrowdown"	n/a	"NULL"	"NULL"	"NULL"	"stimuli/MullerLyer_-14.12857_-0.23665.png"	n/a	"MullerLyer"	"arrowdown"	"1203"	"TRUE"	"MullerLyer"	"-14.12857000"	"-0.236650000"	"2"	"2"
n/a	"html-keyboard-response"	"188"	"342819"	"0.0-6.0-2.0-0.2"	"zq5ezl"	"600"	"1366"	"chrome"	"108.0.0"	"FALSE"	"Windows 10"	"60.32"	"149"	n/a	n/a	n/a	n/a	n/a	n/a	"fixation"	n/a	n/a	n/a	n/a	"NULL"	n/a	"NULL"	"NULL"	"NULL"	"<p style=\"color: black; font-size: 80px; padding-left: 34%; padding-right: 46%; padding-top: 15%; padding-bottom: 2%\">+</p>"	"1041"	n/a	n/a	n/a	n/a	n/a	n/a	n/a	n/a	n/a
n/a	"image-keyboard-response"	"189"	"343388"	"0.0-6.0-2.0-1.2"	"zq5ezl"	"600"	"1366"	"chrome"	"108.0.0"	"FALSE"	"Windows 10"	"60.32"	"149"	n/a	n/a	n/a	n/a	n/a	n/a	"Trial"	n/a	n/a	n/a	"568"	"arrowup"	n/a	"NULL"	"NULL"	"NULL"	"stimuli/MullerLyer_-2.3000_0.23665.png"	n/a	"MullerLyer"	"arrowup"	"1056"	"TRUE"	"MullerLyer"	"-2.300000000"	"0.2366500000"	"2"	"3"
n/a	"html-keyboard-response"	"190"	"344869"	"0.0-6.0-2.0-0.3"	"zq5ezl"	"600"	"1366"	"chrome"	"108.0.0"	"FALSE"	"Windows 10"	"60.32"	"149"	n/a	n/a	n/a	n/a	n/a	n/a	"fixation"	n/a	n/a	n/a	n/a	"NULL"	n/a	"NULL"	"NULL"	"NULL"	"<p style=\"color: black; font-size: 80px; padding-left: 31%; padding-right: 15%; padding-top: 44%; padding-bottom: 27%\">+</p>"	"1466"	n/a	n/a	n/a	n/a	n/a	n/a	n/a	n/a	n/a
n/a	"image-keyboard-response"	"191"	"345424"	"0.0-6.0-2.0-1.3"	"zq5ezl"	"600"	"1366"	"chrome"	"108.0.0"	"FALSE"	"Windows 10"	"60.32"	"149"	n/a	n/a	n/a	n/a	n/a	n/a	"Trial"	n/a	n/a	n/a	"554"	"arrowup"	n/a	"NULL"	"NULL"	"NULL"	"stimuli/MullerLyer_-14.12857_0.35000.png"	n/a	"MullerLyer"	"arrowup"	"1481"	"TRUE"	"MullerLyer"	"-14.12857000"	"0.3500000000"	"2"	"4"
n/a	"html-keyboard-response"	"192"	"346535"	"0.0-6.0-2.0-0.4"	"zq5ezl"	"600"	"1366"	"chrome"	"108.0.0"	"FALSE"	"Windows 10"	"60.32"	"149"	n/a	n/a	n/a	n/a	n/a	n/a	"fixation"	n/a	n/a	n/a	n/a	"NULL"	n/a	"NULL"	"NULL"	"NULL"	"<p style=\"color: black; font-size: 80px; padding-left: 20%; padding-right: 1%; padding-top: 5%; padding-bottom: 41%\">+</p>"	"1093"	n/a	n/a	n/a	n/a	n/a	n/a	n/a	n/a	n/a
n/a	"image-keyboard-response"	"193"	"347761"	"0.0-6.0-2.0-1.4"	"zq5ezl"	"600"	"1366"	"chrome"	"108.0.0"	"FALSE"	"Windows 10"	"60.32"	"149"	n/a	n/a	n/a	n/a	n/a	n/a	"Trial"	n/a	n/a	n/a	"1225"	"arrowdown"	n/a	"NULL"	"NULL"	"NULL"	"stimuli/MullerLyer_14.12857_-0.23665.png"	n/a	"MullerLyer"	"arrowdown"	"1111"	"TRUE"	"MullerLyer"	"14.128570000"	"-0.236650000"	"2"	"5"
n/a	"html-keyboard-response"	"194"	"348808"	"0.0-6.0-2.0-0.5"	"zq5ezl"	"600"	"1366"	"chrome"	"108.0.0"	"FALSE"	"Windows 10"	"60.32"	"149"	n/a	n/a	n/a	n/a	n/a	n/a	"fixation"	n/a	n/a	n/a	n/a	"NULL"	n/a	"NULL"	"NULL"	"NULL"	"<p style=\"color: black; font-size: 80px; padding-left: 7%; padding-right: 43%; padding-top: 2%; padding-bottom: 13%\">+</p>"	"1035"	n/a	n/a	n/a	n/a	n/a	n/a	n/a	n/a	n/a
n/a	"image-keyboard-response"	"195"	"349701"	"0.0-6.0-2.0-1.5"	"zq5ezl"	"600"	"1366"	"chrome"	"108.0.0"	"FALSE"	"Windows 10"	"60.32"	"149"	n/a	n/a	n/a	n/a	n/a	n/a	"Trial"	n/a	n/a	n/a	"892"	"arrowdown"	n/a	"NULL"	"NULL"	"NULL"	"stimuli/MullerLyer_2.30000_-0.14541.png"	n/a	"MullerLyer"	"arrowdown"	"1047"	"TRUE"	"MullerLyer"	"2.3000000000"	"-0.145410000"	"2"	"6"
n/a	"html-keyboard-response"	"196"	"351201"	"0.0-6.0-2.0-0.6"	"zq5ezl"	"600"	"1366"	"chrome"	"108.0.0"	"FALSE"	"Windows 10"	"60.32"	"149"	n/a	n/a	n/a	n/a	n/a	n/a	"fixation"	n/a	n/a	n/a	n/a	"NULL"	n/a	"NULL"	"NULL"	"NULL"	"<p style=\"color: black; font-size: 80px; padding-left: 26%; padding-right: 1%; padding-top: 16%; padding-bottom: 3%\">+</p>"	"1491"	n/a	n/a	n/a	n/a	n/a	n/a	n/a	n/a	n/a
n/a	"image-keyboard-response"	"197"	"352064"	"0.0-6.0-2.0-1.6"	"zq5ezl"	"600"	"1366"	"chrome"	"108.0.0"	"FALSE"	"Windows 10"	"60.32"	"149"	n/a	n/a	n/a	n/a	n/a	n/a	"Trial"	n/a	n/a	n/a	"862"	"arrowup"	n/a	"NULL"	"NULL"	"NULL"	"stimuli/MullerLyer_20.04286_0.23665.png"	n/a	"MullerLyer"	"arrowup"	"1500"	"TRUE"	"MullerLyer"	"20.042860000"	"0.2366500000"	"2"	"7"
n/a	"html-keyboard-response"	"198"	"353523"	"0.0-6.0-2.0-0.7"	"zq5ezl"	"600"	"1366"	"chrome"	"108.0.0"	"FALSE"	"Windows 10"	"60.32"	"149"	n/a	n/a	n/a	n/a	n/a	n/a	"fixation"	n/a	n/a	n/a	n/a	"NULL"	n/a	"NULL"	"NULL"	"NULL"	"<p style=\"color: black; font-size: 80px; padding-left: 22%; padding-right: 48%; padding-top: 7%; padding-bottom: 24%\">+</p>"	"1434"	n/a	n/a	n/a	n/a	n/a	n/a	n/a	n/a	n/a
n/a	"image-keyboard-response"	"199"	"354343"	"0.0-6.0-2.0-1.7"	"zq5ezl"	"600"	"1366"	"chrome"	"108.0.0"	"FALSE"	"Windows 10"	"60.32"	"149"	n/a	n/a	n/a	n/a	n/a	n/a	"Trial"	n/a	n/a	n/a	"818"	"arrowdown"	n/a	"NULL"	"NULL"	"NULL"	"stimuli/MullerLyer_14.12857_-0.3500.png"	n/a	"MullerLyer"	"arrowdown"	"1459"	"TRUE"	"MullerLyer"	"14.128570000"	"-0.350000000"	"2"	"8"
n/a	"html-keyboard-response"	"200"	"355396"	"0.0-6.0-2.0-0.8"	"zq5ezl"	"600"	"1366"	"chrome"	"108.0.0"	"FALSE"	"Windows 10"	"60.32"	"149"	n/a	n/a	n/a	n/a	n/a	n/a	"fixation"	n/a	n/a	n/a	n/a	"NULL"	n/a	"NULL"	"NULL"	"NULL"	"<p style=\"color: black; font-size: 80px; padding-left: 31%; padding-right: 28%; padding-top: 20%; padding-bottom: 31%\">+</p>"	"1042"	n/a	n/a	n/a	n/a	n/a	n/a	n/a	n/a	n/a
n/a	"image-keyboard-response"	"201"	"355975"	"0.0-6.0-2.0-1.8"	"zq5ezl"	"600"	"1366"	"chrome"	"108.0.0"	"FALSE"	"Windows 10"	"60.32"	"149"	n/a	n/a	n/a	n/a	n/a	n/a	"Trial"	n/a	n/a	n/a	"577"	"arrowup"	n/a	"NULL"	"NULL"	"NULL"	"stimuli/MullerLyer_-8.21429_0.35000.png"	n/a	"MullerLyer"	"arrowup"	"1053"	"TRUE"	"MullerLyer"	"-8.214290000"	"0.3500000000"	"2"	"9"
n/a	"html-keyboard-response"	"202"	"357306"	"0.0-6.0-2.0-0.9"	"zq5ezl"	"600"	"1366"	"chrome"	"108.0.0"	"FALSE"	"Windows 10"	"60.32"	"149"	n/a	n/a	n/a	n/a	n/a	n/a	"fixation"	n/a	n/a	n/a	n/a	"NULL"	n/a	"NULL"	"NULL"	"NULL"	"<p style=\"color: black; font-size: 80px; padding-left: 1%; padding-right: 34%; padding-top: 2%; padding-bottom: 30%\">+</p>"	"1317"	n/a	n/a	n/a	n/a	n/a	n/a	n/a	n/a	n/a
n/a	"image-keyboard-response"	"203"	"357829"	"0.0-6.0-2.0-1.9"	"zq5ezl"	"600"	"1366"	"chrome"	"108.0.0"	"FALSE"	"Windows 10"	"60.32"	"149"	n/a	n/a	n/a	n/a	n/a	n/a	"Trial"	n/a	n/a	n/a	"521"	"arrowdown"	n/a	"NULL"	"NULL"	"NULL"	"stimuli/MullerLyer_-20.04286_-0.07627.png"	n/a	"MullerLyer"	"arrowdown"	"1331"	"TRUE"	"MullerLyer"	"-20.04286000"	"-0.076270000"	"2"	"10"
n/a	"html-keyboard-response"	"204"	"359173"	"0.0-6.0-2.0-0.10"	"zq5ezl"	"600"	"1366"	"chrome"	"108.0.0"	"FALSE"	"Windows 10"	"60.32"	"149"	n/a	n/a	n/a	n/a	n/a	n/a	"fixation"	n/a	n/a	n/a	n/a	"NULL"	n/a	"NULL"	"NULL"	"NULL"	"<p style=\"color: black; font-size: 80px; padding-left: 25%; padding-right: 32%; padding-top: 2%; padding-bottom: 44%\">+</p>"	"1329"	n/a	n/a	n/a	n/a	n/a	n/a	n/a	n/a	n/a
n/a	"image-keyboard-response"	"205"	"359661"	"0.0-6.0-2.0-1.10"	"zq5ezl"	"600"	"1366"	"chrome"	"108.0.0"	"FALSE"	"Windows 10"	"60.32"	"149"	n/a	n/a	n/a	n/a	n/a	n/a	"Trial"	n/a	n/a	n/a	"486"	"arrowup"	n/a	"NULL"	"NULL"	"NULL"	"stimuli/MullerLyer_14.12857_-0.07627.png"	n/a	"MullerLyer"	"arrowdown"	"1344"	"FALSE"	"MullerLyer"	"14.128570000"	"-0.076270000"	"2"	"11"
n/a	"html-keyboard-response"	"206"	"360994"	"0.0-6.0-2.0-0.11"	"zq5ezl"	"600"	"1366"	"chrome"	"108.0.0"	"FALSE"	"Windows 10"	"60.32"	"149"	n/a	n/a	n/a	n/a	n/a	n/a	"fixation"	n/a	n/a	n/a	n/a	"NULL"	n/a	"NULL"	"NULL"	"NULL"	"<p style=\"color: black; font-size: 80px; padding-left: 6%; padding-right: 24%; padding-top: 13%; padding-bottom: 28%\">+</p>"	"1321"	n/a	n/a	n/a	n/a	n/a	n/a	n/a	n/a	n/a
n/a	"image-keyboard-response"	"207"	"361590"	"0.0-6.0-2.0-1.11"	"zq5ezl"	"600"	"1366"	"chrome"	"108.0.0"	"FALSE"	"Windows 10"	"60.32"	"149"	n/a	n/a	n/a	n/a	n/a	n/a	"Trial"	n/a	n/a	n/a	"594"	"arrowdown"	n/a	"NULL"	"NULL"	"NULL"	"stimuli/MullerLyer_20.04286_0.07627.png"	n/a	"MullerLyer"	"arrowup"	"1333"	"FALSE"	"MullerLyer"	"20.042860000"	"0.0762700000"	"2"	"12"
n/a	"html-keyboard-response"	"208"	"362809"	"0.0-6.0-2.0-0.12"	"zq5ezl"	"600"	"1366"	"chrome"	"108.0.0"	"FALSE"	"Windows 10"	"60.32"	"149"	n/a	n/a	n/a	n/a	n/a	n/a	"fixation"	n/a	n/a	n/a	n/a	"NULL"	n/a	"NULL"	"NULL"	"NULL"	"<p style=\"color: black; font-size: 80px; padding-left: 16%; padding-right: 25%; padding-top: 45%; padding-bottom: 1%\">+</p>"	"1204"	n/a	n/a	n/a	n/a	n/a	n/a	n/a	n/a	n/a
n/a	"image-keyboard-response"	"209"	"363330"	"0.0-6.0-2.0-1.12"	"zq5ezl"	"600"	"1366"	"chrome"	"108.0.0"	"FALSE"	"Windows 10"	"60.32"	"149"	n/a	n/a	n/a	n/a	n/a	n/a	"Trial"	n/a	n/a	n/a	"520"	"arrowdown"	n/a	"NULL"	"NULL"	"NULL"	"stimuli/MullerLyer_-20.04286_-0.14541.png"	n/a	"MullerLyer"	"arrowdown"	"1219"	"TRUE"	"MullerLyer"	"-20.04286000"	"-0.145410000"	"2"	"13"
n/a	"html-keyboard-response"	"210"	"364513"	"0.0-6.0-2.0-0.13"	"zq5ezl"	"600"	"1366"	"chrome"	"108.0.0"	"FALSE"	"Windows 10"	"60.32"	"149"	n/a	n/a	n/a	n/a	n/a	n/a	"fixation"	n/a	n/a	n/a	n/a	"NULL"	n/a	"NULL"	"NULL"	"NULL"	"<p style=\"color: black; font-size: 80px; padding-left: 50%; padding-right: 4%; padding-top: 16%; padding-bottom: 15%\">+</p>"	"1164"	n/a	n/a	n/a	n/a	n/a	n/a	n/a	n/a	n/a
n/a	"image-keyboard-response"	"211"	"365052"	"0.0-6.0-2.0-1.13"	"zq5ezl"	"600"	"1366"	"chrome"	"108.0.0"	"FALSE"	"Windows 10"	"60.32"	"149"	n/a	n/a	n/a	n/a	n/a	n/a	"Trial"	n/a	n/a	n/a	"538"	"arrowup"	n/a	"NULL"	"NULL"	"NULL"	"stimuli/MullerLyer_14.12857_-0.14541.png"	n/a	"MullerLyer"	"arrowdown"	"1183"	"FALSE"	"MullerLyer"	"14.128570000"	"-0.145410000"	"2"	"14"
n/a	"html-keyboard-response"	"212"	"366366"	"0.0-6.0-2.0-0.14"	"zq5ezl"	"600"	"1366"	"chrome"	"108.0.0"	"FALSE"	"Windows 10"	"60.32"	"149"	n/a	n/a	n/a	n/a	n/a	n/a	"fixation"	n/a	n/a	n/a	n/a	"NULL"	n/a	"NULL"	"NULL"	"NULL"	"<p style=\"color: black; font-size: 80px; padding-left: 10%; padding-right: 36%; padding-top: 29%; padding-bottom: 3%\">+</p>"	"1295"	n/a	n/a	n/a	n/a	n/a	n/a	n/a	n/a	n/a
n/a	"image-keyboard-response"	"213"	"367071"	"0.0-6.0-2.0-1.14"	"zq5ezl"	"600"	"1366"	"chrome"	"108.0.0"	"FALSE"	"Windows 10"	"60.32"	"149"	n/a	n/a	n/a	n/a	n/a	n/a	"Trial"	n/a	n/a	n/a	"700"	"arrowdown"	n/a	"NULL"	"NULL"	"NULL"	"stimuli/MullerLyer_-2.3000_-0.23665.png"	n/a	"MullerLyer"	"arrowdown"	"1314"	"TRUE"	"MullerLyer"	"-2.300000000"	"-0.236650000"	"2"	"15"
n/a	"html-keyboard-response"	"214"	"368200"	"0.0-6.0-2.0-0.15"	"zq5ezl"	"600"	"1366"	"chrome"	"108.0.0"	"FALSE"	"Windows 10"	"60.32"	"149"	n/a	n/a	n/a	n/a	n/a	n/a	"fixation"	n/a	n/a	n/a	n/a	"NULL"	n/a	"NULL"	"NULL"	"NULL"	"<p style=\"color: black; font-size: 80px; padding-left: 36%; padding-right: 10%; padding-top: 27%; padding-bottom: 36%\">+</p>"	"1123"	n/a	n/a	n/a	n/a	n/a	n/a	n/a	n/a	n/a
n/a	"image-keyboard-response"	"215"	"368738"	"0.0-6.0-2.0-1.15"	"zq5ezl"	"600"	"1366"	"chrome"	"108.0.0"	"FALSE"	"Windows 10"	"60.32"	"149"	n/a	n/a	n/a	n/a	n/a	n/a	"Trial"	n/a	n/a	n/a	"538"	"arrowup"	n/a	"NULL"	"NULL"	"NULL"	"stimuli/MullerLyer_-20.04286_0.14541.png"	n/a	"MullerLyer"	"arrowup"	"1129"	"TRUE"	"MullerLyer"	"-20.04286000"	"0.1454100000"	"2"	"16"
n/a	"html-keyboard-response"	"216"	"370118"	"0.0-6.0-2.0-0.16"	"zq5ezl"	"600"	"1366"	"chrome"	"108.0.0"	"FALSE"	"Windows 10"	"60.32"	"149"	n/a	n/a	n/a	n/a	n/a	n/a	"fixation"	n/a	n/a	n/a	n/a	"NULL"	n/a	"NULL"	"NULL"	"NULL"	"<p style=\"color: black; font-size: 80px; padding-left: 4%; padding-right: 41%; padding-top: 20%; padding-bottom: 6%\">+</p>"	"1370"	n/a	n/a	n/a	n/a	n/a	n/a	n/a	n/a	n/a
n/a	"image-keyboard-response"	"217"	"370733"	"0.0-6.0-2.0-1.16"	"zq5ezl"	"600"	"1366"	"chrome"	"108.0.0"	"FALSE"	"Windows 10"	"60.32"	"149"	n/a	n/a	n/a	n/a	n/a	n/a	"Trial"	n/a	n/a	n/a	"614"	"arrowdown"	n/a	"NULL"	"NULL"	"NULL"	"stimuli/MullerLyer_2.30000_-0.23665.png"	n/a	"MullerLyer"	"arrowdown"	"1380"	"TRUE"	"MullerLyer"	"2.3000000000"	"-0.236650000"	"2"	"17"
n/a	"html-keyboard-response"	"218"	"371919"	"0.0-6.0-2.0-0.17"	"zq5ezl"	"600"	"1366"	"chrome"	"108.0.0"	"FALSE"	"Windows 10"	"60.32"	"149"	n/a	n/a	n/a	n/a	n/a	n/a	"fixation"	n/a	n/a	n/a	n/a	"NULL"	n/a	"NULL"	"NULL"	"NULL"	"<p style=\"color: black; font-size: 80px; padding-left: 38%; padding-right: 16%; padding-top: 38%; padding-bottom: 11%\">+</p>"	"1173"	n/a	n/a	n/a	n/a	n/a	n/a	n/a	n/a	n/a
n/a	"image-keyboard-response"	"219"	"372470"	"0.0-6.0-2.0-1.17"	"zq5ezl"	"600"	"1366"	"chrome"	"108.0.0"	"FALSE"	"Windows 10"	"60.32"	"149"	n/a	n/a	n/a	n/a	n/a	n/a	"Trial"	n/a	n/a	n/a	"550"	"arrowup"	n/a	"NULL"	"NULL"	"NULL"	"stimuli/MullerLyer_-20.04286_0.23665.png"	n/a	"MullerLyer"	"arrowup"	"1186"	"TRUE"	"MullerLyer"	"-20.04286000"	"0.2366500000"	"2"	"18"
n/a	"html-keyboard-response"	"220"	"373617"	"0.0-6.0-2.0-0.18"	"zq5ezl"	"600"	"1366"	"chrome"	"108.0.0"	"FALSE"	"Windows 10"	"60.32"	"149"	n/a	n/a	n/a	n/a	n/a	n/a	"fixation"	n/a	n/a	n/a	n/a	"NULL"	n/a	"NULL"	"NULL"	"NULL"	"<p style=\"color: black; font-size: 80px; padding-left: 30%; padding-right: 8%; padding-top: 30%; padding-bottom: 17%\">+</p>"	"1126"	n/a	n/a	n/a	n/a	n/a	n/a	n/a	n/a	n/a
n/a	"image-keyboard-response"	"221"	"374294"	"0.0-6.0-2.0-1.18"	"zq5ezl"	"600"	"1366"	"chrome"	"108.0.0"	"FALSE"	"Windows 10"	"60.32"	"149"	n/a	n/a	n/a	n/a	n/a	n/a	"Trial"	n/a	n/a	n/a	"676"	"arrowdown"	n/a	"NULL"	"NULL"	"NULL"	"stimuli/MullerLyer_-8.21429_-0.14541.png"	n/a	"MullerLyer"	"arrowdown"	"1147"	"TRUE"	"MullerLyer"	"-8.214290000"	"-0.145410000"	"2"	"19"
n/a	"html-keyboard-response"	"222"	"375585"	"0.0-6.0-2.0-0.19"	"zq5ezl"	"600"	"1366"	"chrome"	"108.0.0"	"FALSE"	"Windows 10"	"60.32"	"149"	n/a	n/a	n/a	n/a	n/a	n/a	"fixation"	n/a	n/a	n/a	n/a	"NULL"	n/a	"NULL"	"NULL"	"NULL"	"<p style=\"color: black; font-size: 80px; padding-left: 34%; padding-right: 12%; padding-top: 13%; padding-bottom: 44%\">+</p>"	"1275"	n/a	n/a	n/a	n/a	n/a	n/a	n/a	n/a	n/a
n/a	"image-keyboard-response"	"223"	"376106"	"0.0-6.0-2.0-1.19"	"zq5ezl"	"600"	"1366"	"chrome"	"108.0.0"	"FALSE"	"Windows 10"	"60.32"	"149"	n/a	n/a	n/a	n/a	n/a	n/a	"Trial"	n/a	n/a	n/a	"520"	"arrowdown"	n/a	"NULL"	"NULL"	"NULL"	"stimuli/MullerLyer_-14.12857_-0.3500.png"	n/a	"MullerLyer"	"arrowdown"	"1291"	"TRUE"	"MullerLyer"	"-14.12857000"	"-0.350000000"	"2"	"20"
n/a	"html-keyboard-response"	"224"	"377455"	"0.0-6.0-2.0-0.20"	"zq5ezl"	"600"	"1366"	"chrome"	"108.0.0"	"FALSE"	"Windows 10"	"60.32"	"149"	n/a	n/a	n/a	n/a	n/a	n/a	"fixation"	n/a	n/a	n/a	n/a	"NULL"	n/a	"NULL"	"NULL"	"NULL"	"<p style=\"color: black; font-size: 80px; padding-left: 27%; padding-right: 34%; padding-top: 16%; padding-bottom: 34%\">+</p>"	"1337"	n/a	n/a	n/a	n/a	n/a	n/a	n/a	n/a	n/a
n/a	"image-keyboard-response"	"225"	"378412"	"0.0-6.0-2.0-1.20"	"zq5ezl"	"600"	"1366"	"chrome"	"108.0.0"	"FALSE"	"Windows 10"	"60.32"	"149"	n/a	n/a	n/a	n/a	n/a	n/a	"Trial"	n/a	n/a	n/a	"956"	"arrowdown"	n/a	"NULL"	"NULL"	"NULL"	"stimuli/MullerLyer_8.21429_-0.23665.png"	n/a	"MullerLyer"	"arrowdown"	"1349"	"TRUE"	"MullerLyer"	"8.2142900000"	"-0.236650000"	"2"	"21"
n/a	"html-keyboard-response"	"226"	"379671"	"0.0-6.0-2.0-0.21"	"zq5ezl"	"600"	"1366"	"chrome"	"108.0.0"	"FALSE"	"Windows 10"	"60.32"	"149"	n/a	n/a	n/a	n/a	n/a	n/a	"fixation"	n/a	n/a	n/a	n/a	"NULL"	n/a	"NULL"	"NULL"	"NULL"	"<p style=\"color: black; font-size: 80px; padding-left: 20%; padding-right: 17%; padding-top: 47%; padding-bottom: 16%\">+</p>"	"1241"	n/a	n/a	n/a	n/a	n/a	n/a	n/a	n/a	n/a
n/a	"image-keyboard-response"	"227"	"380212"	"0.0-6.0-2.0-1.21"	"zq5ezl"	"600"	"1366"	"chrome"	"108.0.0"	"FALSE"	"Windows 10"	"60.32"	"149"	n/a	n/a	n/a	n/a	n/a	n/a	"Trial"	n/a	n/a	n/a	"539"	"arrowup"	n/a	"NULL"	"NULL"	"NULL"	"stimuli/MullerLyer_-20.04286_0.07627.png"	n/a	"MullerLyer"	"arrowup"	"1259"	"TRUE"	"MullerLyer"	"-20.04286000"	"0.0762700000"	"2"	"22"
n/a	"html-keyboard-response"	"228"	"381285"	"0.0-6.0-2.0-0.22"	"zq5ezl"	"600"	"1366"	"chrome"	"108.0.0"	"FALSE"	"Windows 10"	"60.32"	"149"	n/a	n/a	n/a	n/a	n/a	n/a	"fixation"	n/a	n/a	n/a	n/a	"NULL"	n/a	"NULL"	"NULL"	"NULL"	"<p style=\"color: black; font-size: 80px; padding-left: 1%; padding-right: 33%; padding-top: 42%; padding-bottom: 48%\">+</p>"	"1064"	n/a	n/a	n/a	n/a	n/a	n/a	n/a	n/a	n/a
n/a	"image-keyboard-response"	"229"	"382364"	"0.0-6.0-2.0-1.22"	"zq5ezl"	"600"	"1366"	"chrome"	"108.0.0"	"FALSE"	"Windows 10"	"60.32"	"149"	n/a	n/a	n/a	n/a	n/a	n/a	"Trial"	n/a	n/a	n/a	"1077"	"arrowup"	n/a	"NULL"	"NULL"	"NULL"	"stimuli/MullerLyer_14.12857_0.14541.png"	n/a	"MullerLyer"	"arrowup"	"1073"	"TRUE"	"MullerLyer"	"14.128570000"	"0.1454100000"	"2"	"23"
n/a	"html-keyboard-response"	"230"	"383813"	"0.0-6.0-2.0-0.23"	"zq5ezl"	"600"	"1366"	"chrome"	"108.0.0"	"FALSE"	"Windows 10"	"60.32"	"149"	n/a	n/a	n/a	n/a	n/a	n/a	"fixation"	n/a	n/a	n/a	n/a	"NULL"	n/a	"NULL"	"NULL"	"NULL"	"<p style=\"color: black; font-size: 80px; padding-left: 43%; padding-right: 48%; padding-top: 36%; padding-bottom: 38%\">+</p>"	"1440"	n/a	n/a	n/a	n/a	n/a	n/a	n/a	n/a	n/a
n/a	"image-keyboard-response"	"231"	"384337"	"0.0-6.0-2.0-1.23"	"zq5ezl"	"600"	"1366"	"chrome"	"108.0.0"	"FALSE"	"Windows 10"	"60.32"	"149"	n/a	n/a	n/a	n/a	n/a	n/a	"Trial"	n/a	n/a	n/a	"518"	"arrowup"	n/a	"NULL"	"NULL"	"NULL"	"stimuli/MullerLyer_-14.12857_0.23665.png"	n/a	"MullerLyer"	"arrowup"	"1449"	"TRUE"	"MullerLyer"	"-14.12857000"	"0.2366500000"	"2"	"24"
n/a	"html-keyboard-response"	"232"	"385840"	"0.0-6.0-2.0-0.24"	"zq5ezl"	"600"	"1366"	"chrome"	"108.0.0"	"FALSE"	"Windows 10"	"60.32"	"149"	n/a	n/a	n/a	n/a	n/a	n/a	"fixation"	n/a	n/a	n/a	n/a	"NULL"	n/a	"NULL"	"NULL"	"NULL"	"<p style=\"color: black; font-size: 80px; padding-left: 28%; padding-right: 48%; padding-top: 21%; padding-bottom: 16%\">+</p>"	"1483"	n/a	n/a	n/a	n/a	n/a	n/a	n/a	n/a	n/a
n/a	"image-keyboard-response"	"233"	"386271"	"0.0-6.0-2.0-1.24"	"zq5ezl"	"600"	"1366"	"chrome"	"108.0.0"	"FALSE"	"Windows 10"	"60.32"	"149"	n/a	n/a	n/a	n/a	n/a	n/a	"Trial"	n/a	n/a	n/a	"431"	"arrowup"	n/a	"NULL"	"NULL"	"NULL"	"stimuli/MullerLyer_2.30000_0.35000.png"	n/a	"MullerLyer"	"arrowup"	"1503"	"TRUE"	"MullerLyer"	"2.3000000000"	"0.3500000000"	"2"	"25"
n/a	"html-keyboard-response"	"234"	"387565"	"0.0-6.0-2.0-0.25"	"zq5ezl"	"600"	"1366"	"chrome"	"108.0.0"	"FALSE"	"Windows 10"	"60.32"	"149"	n/a	n/a	n/a	n/a	n/a	n/a	"fixation"	n/a	n/a	n/a	n/a	"NULL"	n/a	"NULL"	"NULL"	"NULL"	"<p style=\"color: black; font-size: 80px; padding-left: 3%; padding-right: 16%; padding-top: 36%; padding-bottom: 31%\">+</p>"	"1284"	n/a	n/a	n/a	n/a	n/a	n/a	n/a	n/a	n/a
n/a	"image-keyboard-response"	"235"	"388045"	"0.0-6.0-2.0-1.25"	"zq5ezl"	"600"	"1366"	"chrome"	"108.0.0"	"FALSE"	"Windows 10"	"60.32"	"149"	n/a	n/a	n/a	n/a	n/a	n/a	"Trial"	n/a	n/a	n/a	"479"	"arrowup"	n/a	"NULL"	"NULL"	"NULL"	"stimuli/MullerLyer_-14.12857_0.14541.png"	n/a	"MullerLyer"	"arrowup"	"1294"	"TRUE"	"MullerLyer"	"-14.12857000"	"0.1454100000"	"2"	"26"
n/a	"html-keyboard-response"	"236"	"389149"	"0.0-6.0-2.0-0.26"	"zq5ezl"	"600"	"1366"	"chrome"	"108.0.0"	"FALSE"	"Windows 10"	"60.32"	"149"	n/a	n/a	n/a	n/a	n/a	n/a	"fixation"	n/a	n/a	n/a	n/a	"NULL"	n/a	"NULL"	"NULL"	"NULL"	"<p style=\"color: black; font-size: 80px; padding-left: 15%; padding-right: 30%; padding-top: 21%; padding-bottom: 11%\">+</p>"	"1092"	n/a	n/a	n/a	n/a	n/a	n/a	n/a	n/a	n/a
n/a	"image-keyboard-response"	"237"	"389759"	"0.0-6.0-2.0-1.26"	"zq5ezl"	"600"	"1366"	"chrome"	"108.0.0"	"FALSE"	"Windows 10"	"60.32"	"149"	n/a	n/a	n/a	n/a	n/a	n/a	"Trial"	n/a	n/a	n/a	"608"	"arrowup"	n/a	"NULL"	"NULL"	"NULL"	"stimuli/MullerLyer_-8.21429_0.07627.png"	n/a	"MullerLyer"	"arrowup"	"1104"	"TRUE"	"MullerLyer"	"-8.214290000"	"0.0762700000"	"2"	"27"
n/a	"html-keyboard-response"	"238"	"390795"	"0.0-6.0-2.0-0.27"	"zq5ezl"	"600"	"1366"	"chrome"	"108.0.0"	"FALSE"	"Windows 10"	"60.32"	"149"	n/a	n/a	n/a	n/a	n/a	n/a	"fixation"	n/a	n/a	n/a	n/a	"NULL"	n/a	"NULL"	"NULL"	"NULL"	"<p style=\"color: black; font-size: 80px; padding-left: 3%; padding-right: 22%; padding-top: 3%; padding-bottom: 38%\">+</p>"	"1020"	n/a	n/a	n/a	n/a	n/a	n/a	n/a	n/a	n/a
n/a	"image-keyboard-response"	"239"	"391667"	"0.0-6.0-2.0-1.27"	"zq5ezl"	"600"	"1366"	"chrome"	"108.0.0"	"FALSE"	"Windows 10"	"60.32"	"149"	n/a	n/a	n/a	n/a	n/a	n/a	"Trial"	n/a	n/a	n/a	"871"	"arrowup"	n/a	"NULL"	"NULL"	"NULL"	"stimuli/MullerLyer_2.30000_0.14541.png"	n/a	"MullerLyer"	"arrowup"	"1036"	"TRUE"	"MullerLyer"	"2.3000000000"	"0.1454100000"	"2"	"28"
n/a	"html-keyboard-response"	"240"	"392914"	"0.0-6.0-2.0-0.28"	"zq5ezl"	"600"	"1366"	"chrome"	"108.0.0"	"FALSE"	"Windows 10"	"60.32"	"149"	n/a	n/a	n/a	n/a	n/a	n/a	"fixation"	n/a	n/a	n/a	n/a	"NULL"	n/a	"NULL"	"NULL"	"NULL"	"<p style=\"color: black; font-size: 80px; padding-left: 5%; padding-right: 9%; padding-top: 35%; padding-bottom: 40%\">+</p>"	"1239"	n/a	n/a	n/a	n/a	n/a	n/a	n/a	n/a	n/a
n/a	"image-keyboard-response"	"241"	"393508"	"0.0-6.0-2.0-1.28"	"zq5ezl"	"600"	"1366"	"chrome"	"108.0.0"	"FALSE"	"Windows 10"	"60.32"	"149"	n/a	n/a	n/a	n/a	n/a	n/a	"Trial"	n/a	n/a	n/a	"593"	"arrowup"	n/a	"NULL"	"NULL"	"NULL"	"stimuli/MullerLyer_20.04286_-0.07627.png"	n/a	"MullerLyer"	"arrowdown"	"1247"	"FALSE"	"MullerLyer"	"20.042860000"	"-0.076270000"	"2"	"29"
n/a	"html-keyboard-response"	"242"	"394549"	"0.0-6.0-2.0-0.29"	"zq5ezl"	"600"	"1366"	"chrome"	"108.0.0"	"FALSE"	"Windows 10"	"60.32"	"149"	n/a	n/a	n/a	n/a	n/a	n/a	"fixation"	n/a	n/a	n/a	n/a	"NULL"	n/a	"NULL"	"NULL"	"NULL"	"<p style=\"color: black; font-size: 80px; padding-left: 47%; padding-right: 30%; padding-top: 42%; padding-bottom: 27%\">+</p>"	"1030"	n/a	n/a	n/a	n/a	n/a	n/a	n/a	n/a	n/a
n/a	"image-keyboard-response"	"243"	"395277"	"0.0-6.0-2.0-1.29"	"zq5ezl"	"600"	"1366"	"chrome"	"108.0.0"	"FALSE"	"Windows 10"	"60.32"	"149"	n/a	n/a	n/a	n/a	n/a	n/a	"Trial"	n/a	n/a	n/a	"727"	"arrowup"	n/a	"NULL"	"NULL"	"NULL"	"stimuli/MullerLyer_8.21429_-0.07627.png"	n/a	"MullerLyer"	"arrowdown"	"1041"	"FALSE"	"MullerLyer"	"8.2142900000"	"-0.076270000"	"2"	"30"
n/a	"html-keyboard-response"	"244"	"396575"	"0.0-6.0-2.0-0.30"	"zq5ezl"	"600"	"1366"	"chrome"	"108.0.0"	"FALSE"	"Windows 10"	"60.32"	"149"	n/a	n/a	n/a	n/a	n/a	n/a	"fixation"	n/a	n/a	n/a	n/a	"NULL"	n/a	"NULL"	"NULL"	"NULL"	"<p style=\"color: black; font-size: 80px; padding-left: 10%; padding-right: 23%; padding-top: 43%; padding-bottom: 14%\">+</p>"	"1278"	n/a	n/a	n/a	n/a	n/a	n/a	n/a	n/a	n/a
n/a	"image-keyboard-response"	"245"	"397575"	"0.0-6.0-2.0-1.30"	"zq5ezl"	"600"	"1366"	"chrome"	"108.0.0"	"FALSE"	"Windows 10"	"60.32"	"149"	n/a	n/a	n/a	n/a	n/a	n/a	"Trial"	n/a	n/a	n/a	"978"	"arrowup"	n/a	"NULL"	"NULL"	"NULL"	"stimuli/MullerLyer_-2.3000_0.07627.png"	n/a	"MullerLyer"	"arrowup"	"1298"	"TRUE"	"MullerLyer"	"-2.300000000"	"0.0762700000"	"2"	"31"
n/a	"html-keyboard-response"	"246"	"398716"	"0.0-6.0-2.0-0.31"	"zq5ezl"	"600"	"1366"	"chrome"	"108.0.0"	"FALSE"	"Windows 10"	"60.32"	"149"	n/a	n/a	n/a	n/a	n/a	n/a	"fixation"	n/a	n/a	n/a	n/a	"NULL"	n/a	"NULL"	"NULL"	"NULL"	"<p style=\"color: black; font-size: 80px; padding-left: 5%; padding-right: 36%; padding-top: 26%; padding-bottom: 19%\">+</p>"	"1122"	n/a	n/a	n/a	n/a	n/a	n/a	n/a	n/a	n/a
n/a	"image-keyboard-response"	"247"	"399388"	"0.0-6.0-2.0-1.31"	"zq5ezl"	"600"	"1366"	"chrome"	"108.0.0"	"FALSE"	"Windows 10"	"60.32"	"149"	n/a	n/a	n/a	n/a	n/a	n/a	"Trial"	n/a	n/a	n/a	"670"	"arrowup"	n/a	"NULL"	"NULL"	"NULL"	"stimuli/MullerLyer_8.21429_0.35000.png"	n/a	"MullerLyer"	"arrowup"	"1141"	"TRUE"	"MullerLyer"	"8.2142900000"	"0.3500000000"	"2"	"32"
n/a	"html-keyboard-response"	"248"	"400616"	"0.0-6.0-2.0-0.32"	"zq5ezl"	"600"	"1366"	"chrome"	"108.0.0"	"FALSE"	"Windows 10"	"60.32"	"149"	n/a	n/a	n/a	n/a	n/a	n/a	"fixation"	n/a	n/a	n/a	n/a	"NULL"	n/a	"NULL"	"NULL"	"NULL"	"<p style=\"color: black; font-size: 80px; padding-left: 46%; padding-right: 14%; padding-top: 5%; padding-bottom: 19%\">+</p>"	"1213"	n/a	n/a	n/a	n/a	n/a	n/a	n/a	n/a	n/a
n/a	"image-keyboard-response"	"249"	"401238"	"0.0-6.0-2.0-1.32"	"zq5ezl"	"600"	"1366"	"chrome"	"108.0.0"	"FALSE"	"Windows 10"	"60.32"	"149"	n/a	n/a	n/a	n/a	n/a	n/a	"Trial"	n/a	n/a	n/a	"621"	"arrowup"	n/a	"NULL"	"NULL"	"NULL"	"stimuli/MullerLyer_-2.3000_0.14541.png"	n/a	"MullerLyer"	"arrowup"	"1228"	"TRUE"	"MullerLyer"	"-2.300000000"	"0.1454100000"	"2"	"33"
