"success"	"trial_type"	"trial_index"	"time_elapsed"	"internal_node_id"	"participant_id"	"screen_height"	"screen_width"	"browser"	"browser_version"	"mobile"	"os"	"vsync_rate"	"subject_id"	"width"	"height"	"webaudio"	"fullscreen"	"webcam"	"microphone"	"screen"	"version"	"date"	"time"	"rt"	"response"	"timeout"	"failed_images"	"failed_audio"	"failed_video"	"stimulus"	"trial_duration"	"block"	"correct_response"	"prestimulus_duration"	"correct"	"type"	"illusion_strength"	"illusion_difference"	"block_number"	"trial_number"
"TRUE"	"fullscreen"	"0"	"1004"	"0.0-0.0"	"s5lh8e"	"600"	"1366"	"chrome"	"109.0.0"	"FALSE"	"Windows 10"	"60.71"	"137"	n/a	n/a	n/a	n/a	n/a	n/a	n/a	n/a	n/a	n/a	n/a	"NULL"	n/a	"NULL"	"NULL"	"NULL"	n/a	n/a	n/a	n/a	n/a	n/a	n/a	n/a	n/a	n/a	n/a
n/a	"browser-check"	"1"	"2010"	"0.0-1.0"	"s5lh8e"	"600"	"1366"	"chrome"	"109.0.0"	"FALSE"	"Windows 10"	"60.71"	"137"	"1366"	"600"	"TRUE"	"TRUE"	"TRUE"	"TRUE"	"browser_info"	"1.0"	"14/01/2023"	"16:43:52"	n/a	"NULL"	n/a	"NULL"	"NULL"	"NULL"	n/a	n/a	n/a	n/a	n/a	n/a	n/a	n/a	n/a	n/a	n/a
n/a	"survey-text"	"2"	"5810"	"0.0-2.0"	"s5lh8e"	"600"	"1366"	"chrome"	"109.0.0"	"FALSE"	"Windows 10"	"60.71"	"137"	n/a	n/a	n/a	n/a	n/a	n/a	"subject_id"	n/a	n/a	n/a	"3794"	"list(subject_id = \"137\")"	n/a	"NULL"	"NULL"	"NULL"	n/a	n/a	n/a	n/a	n/a	n/a	n/a	n/a	n/a	n/a	n/a
"TRUE"	"preload"	"3"	"5825"	"0.0-3.0"	"s5lh8e"	"600"	"1366"	"chrome"	"109.0.0"	"FALSE"	"Windows 10"	"60.71"	"137"	n/a	n/a	n/a	n/a	n/a	n/a	n/a	n/a	n/a	n/a	n/a	"NULL"	"FALSE"	"list()"	"list()"	"list()"	n/a	n/a	n/a	n/a	n/a	n/a	n/a	n/a	n/a	n/a	n/a
n/a	"html-button-response"	"4"	"14770"	"0.0-4.0-0.0"	"s5lh8e"	"600"	"1366"	"chrome"	"109.0.0"	"FALSE"	"Windows 10"	"60.71"	"137"	n/a	n/a	n/a	n/a	n/a	n/a	"illusion_instructions"	n/a	n/a	n/a	"8943"	"0"	n/a	"NULL"	"NULL"	"NULL"	"<p><b>Illusion Game</b></p><p>In this game of speed and reflex, you will need to make <b>visual judgments</b> (for instance, which circle is the biggest, or which line is the longest), as fast and as correctly as possible, while <b>resisting different visual illusions</b>.</p><p>We are going to start with some examples of all the illusions you will encounter in the game.</p>"	n/a	n/a	n/a	n/a	n/a	n/a	n/a	n/a	n/a	n/a
"TRUE"	"preload"	"5"	"14799"	"0.0-4.0-1.0-0.0"	"s5lh8e"	"600"	"1366"	"chrome"	"109.0.0"	"FALSE"	"Windows 10"	"60.71"	"137"	n/a	n/a	n/a	n/a	n/a	n/a	n/a	n/a	n/a	n/a	n/a	"NULL"	"FALSE"	"list()"	"list()"	"list()"	n/a	n/a	n/a	n/a	n/a	n/a	n/a	n/a	n/a	n/a	n/a
n/a	"html-keyboard-response"	"6"	"32581"	"0.0-4.0-1.0-1.0"	"s5lh8e"	"600"	"1366"	"chrome"	"109.0.0"	"FALSE"	"Windows 10"	"60.71"	"137"	n/a	n/a	n/a	n/a	n/a	n/a	n/a	n/a	n/a	n/a	"17781"	"enter"	n/a	"NULL"	"NULL"	"NULL"	"<p><b>Practice</b></p><p>In this part, two red circles will appear side by side on the screen.</p><p>Your task is to select which <b>red circle is bigger</b> in size as fast as you can, without making errors.</p><p>Don't get distracted by the surrounding black circles around the red circles!</p><p>Press <b>the LEFT or the RIGHT arrow</b> to indicate which is the bigger <b>red circle.</b></p><div style='float: center'><img src='materials/instructions/Ebbinghaus_Demo.png' height='300'></img><p><img src='utils/answer/answer_leftright_keyboard.PNG' height='150'></img></p><p class='small'>In this example, the correct answer is the <b>LEFT arrow</b>.</p></div><p>Are you ready? <b>Press ENTER to start</b></p>"	n/a	n/a	n/a	n/a	n/a	n/a	n/a	n/a	n/a	n/a
n/a	"html-keyboard-response"	"7"	"34421"	"0.0-4.0-1.0-2.0-0.0"	"s5lh8e"	"600"	"1366"	"chrome"	"109.0.0"	"FALSE"	"Windows 10"	"60.71"	"137"	n/a	n/a	n/a	n/a	n/a	n/a	"fixation"	n/a	n/a	n/a	n/a	"NULL"	n/a	"NULL"	"NULL"	"NULL"	"<p style=\"color: black; font-size: 80px; padding-left: 10%; padding-right: 41%; padding-top: 10%; padding-bottom: 43%\">+</p>"	"1314"	n/a	n/a	n/a	n/a	n/a	n/a	n/a	n/a	n/a
n/a	"image-keyboard-response"	"8"	"35049"	"0.0-4.0-1.0-2.0-1.0"	"s5lh8e"	"600"	"1366"	"chrome"	"109.0.0"	"FALSE"	"Windows 10"	"60.71"	"137"	n/a	n/a	n/a	n/a	n/a	n/a	"Trial"	n/a	n/a	n/a	"615"	"arrowright"	n/a	"NULL"	"NULL"	"NULL"	"stimuli/Ebbinghaus_-100000_-1.4000.png"	n/a	"Ebbinghaus"	"arrowright"	"1840"	"TRUE"	"Ebbinghaus"	"-10000000000"	"-1.400000000"	"1"	"1"
n/a	"html-keyboard-response"	"9"	"36265"	"0.0-4.0-1.0-2.0-0.1"	"s5lh8e"	"600"	"1366"	"chrome"	"109.0.0"	"FALSE"	"Windows 10"	"60.71"	"137"	n/a	n/a	n/a	n/a	n/a	n/a	"fixation"	n/a	n/a	n/a	n/a	"NULL"	n/a	"NULL"	"NULL"	"NULL"	"<p style=\"color: black; font-size: 80px; padding-left: 36%; padding-right: 20%; padding-top: 39%; padding-bottom: 15%\">+</p>"	"1198"	n/a	n/a	n/a	n/a	n/a	n/a	n/a	n/a	n/a
n/a	"image-keyboard-response"	"10"	"37027"	"0.0-4.0-1.0-2.0-1.1"	"s5lh8e"	"600"	"1366"	"chrome"	"109.0.0"	"FALSE"	"Windows 10"	"60.71"	"137"	n/a	n/a	n/a	n/a	n/a	n/a	"Trial"	n/a	n/a	n/a	"761"	"arrowleft"	n/a	"NULL"	"NULL"	"NULL"	"stimuli/Ebbinghaus_-100000_1.40000.png"	n/a	"Ebbinghaus"	"arrowleft"	"1216"	"TRUE"	"Ebbinghaus"	"-10000000000"	"1.4000000000"	"1"	"2"
n/a	"html-keyboard-response"	"11"	"38124"	"0.0-4.0-1.0-2.0-0.2"	"s5lh8e"	"600"	"1366"	"chrome"	"109.0.0"	"FALSE"	"Windows 10"	"60.71"	"137"	n/a	n/a	n/a	n/a	n/a	n/a	"fixation"	n/a	n/a	n/a	n/a	"NULL"	n/a	"NULL"	"NULL"	"NULL"	"<p style=\"color: black; font-size: 80px; padding-left: 23%; padding-right: 9%; padding-top: 23%; padding-bottom: 49%\">+</p>"	"1080"	n/a	n/a	n/a	n/a	n/a	n/a	n/a	n/a	n/a
n/a	"image-keyboard-response"	"12"	"38598"	"0.0-4.0-1.0-2.0-1.2"	"s5lh8e"	"600"	"1366"	"chrome"	"109.0.0"	"FALSE"	"Windows 10"	"60.71"	"137"	n/a	n/a	n/a	n/a	n/a	n/a	"Trial"	n/a	n/a	n/a	"473"	"arrowleft"	n/a	"NULL"	"NULL"	"NULL"	"stimuli/Ebbinghaus_1000000_1.40000.png"	n/a	"Ebbinghaus"	"arrowleft"	"1097"	"TRUE"	"Ebbinghaus"	"100000000000"	"1.4000000000"	"1"	"3"
n/a	"html-keyboard-response"	"13"	"40027"	"0.0-4.0-1.0-2.0-0.3"	"s5lh8e"	"600"	"1366"	"chrome"	"109.0.0"	"FALSE"	"Windows 10"	"60.71"	"137"	n/a	n/a	n/a	n/a	n/a	n/a	"fixation"	n/a	n/a	n/a	n/a	"NULL"	n/a	"NULL"	"NULL"	"NULL"	"<p style=\"color: black; font-size: 80px; padding-left: 42%; padding-right: 9%; padding-top: 48%; padding-bottom: 17%\">+</p>"	"1422"	n/a	n/a	n/a	n/a	n/a	n/a	n/a	n/a	n/a
n/a	"image-keyboard-response"	"14"	"40589"	"0.0-4.0-1.0-2.0-1.3"	"s5lh8e"	"600"	"1366"	"chrome"	"109.0.0"	"FALSE"	"Windows 10"	"60.71"	"137"	n/a	n/a	n/a	n/a	n/a	n/a	"Trial"	n/a	n/a	n/a	"562"	"arrowright"	n/a	"NULL"	"NULL"	"NULL"	"stimuli/Ebbinghaus_0000000_-1.4000.png"	n/a	"Ebbinghaus"	"arrowright"	"1429"	"TRUE"	"Ebbinghaus"	"000000000000"	"-1.400000000"	"1"	"4"
n/a	"html-keyboard-response"	"15"	"41674"	"0.0-4.0-1.0-2.0-0.4"	"s5lh8e"	"600"	"1366"	"chrome"	"109.0.0"	"FALSE"	"Windows 10"	"60.71"	"137"	n/a	n/a	n/a	n/a	n/a	n/a	"fixation"	n/a	n/a	n/a	n/a	"NULL"	n/a	"NULL"	"NULL"	"NULL"	"<p style=\"color: black; font-size: 80px; padding-left: 7%; padding-right: 28%; padding-top: 19%; padding-bottom: 16%\">+</p>"	"1066"	n/a	n/a	n/a	n/a	n/a	n/a	n/a	n/a	n/a
n/a	"image-keyboard-response"	"16"	"42725"	"0.0-4.0-1.0-2.0-1.4"	"s5lh8e"	"600"	"1366"	"chrome"	"109.0.0"	"FALSE"	"Windows 10"	"60.71"	"137"	n/a	n/a	n/a	n/a	n/a	n/a	"Trial"	n/a	n/a	n/a	"1048"	"arrowright"	n/a	"NULL"	"NULL"	"NULL"	"stimuli/Ebbinghaus_1000000_-1.4000.png"	n/a	"Ebbinghaus"	"arrowright"	"1085"	"TRUE"	"Ebbinghaus"	"100000000000"	"-1.400000000"	"1"	"5"
n/a	"html-keyboard-response"	"17"	"44003"	"0.0-4.0-1.0-2.0-0.5"	"s5lh8e"	"600"	"1366"	"chrome"	"109.0.0"	"FALSE"	"Windows 10"	"60.71"	"137"	n/a	n/a	n/a	n/a	n/a	n/a	"fixation"	n/a	n/a	n/a	n/a	"NULL"	n/a	"NULL"	"NULL"	"NULL"	"<p style=\"color: black; font-size: 80px; padding-left: 32%; padding-right: 29%; padding-top: 5%; padding-bottom: 40%\">+</p>"	"1269"	n/a	n/a	n/a	n/a	n/a	n/a	n/a	n/a	n/a
n/a	"image-keyboard-response"	"18"	"44778"	"0.0-4.0-1.0-2.0-1.5"	"s5lh8e"	"600"	"1366"	"chrome"	"109.0.0"	"FALSE"	"Windows 10"	"60.71"	"137"	n/a	n/a	n/a	n/a	n/a	n/a	"Trial"	n/a	n/a	n/a	"774"	"arrowleft"	n/a	"NULL"	"NULL"	"NULL"	"stimuli/Ebbinghaus_0000000_1.40000.png"	n/a	"Ebbinghaus"	"arrowleft"	"1278"	"TRUE"	"Ebbinghaus"	"000000000000"	"1.4000000000"	"1"	"6"
n/a	"html-button-response"	"19"	"49050"	"0.0-4.0-1.0-3.0"	"s5lh8e"	"600"	"1366"	"chrome"	"109.0.0"	"FALSE"	"Windows 10"	"60.71"	"137"	n/a	n/a	n/a	n/a	n/a	n/a	"practice_block_results"	n/a	n/a	n/a	"4268"	"0"	n/a	"NULL"	"NULL"	"NULL"	"<p style='color:rgb(76,175,80);'> Correct Responses: <b>100.00%</b></p><hr><p style='color:rgb(233,30,99);'> Average Response Time: <b>705.50</b> ms.</p>"	n/a	n/a	n/a	n/a	n/a	n/a	n/a	n/a	n/a	n/a
"TRUE"	"preload"	"20"	"49598"	"0.0-4.0-2.0-0.0"	"s5lh8e"	"600"	"1366"	"chrome"	"109.0.0"	"FALSE"	"Windows 10"	"60.71"	"137"	n/a	n/a	n/a	n/a	n/a	n/a	n/a	n/a	n/a	n/a	n/a	"NULL"	"FALSE"	"list()"	"list()"	"list()"	n/a	n/a	n/a	n/a	n/a	n/a	n/a	n/a	n/a	n/a	n/a
n/a	"html-keyboard-response"	"21"	"61621"	"0.0-4.0-2.0-1.0"	"s5lh8e"	"600"	"1366"	"chrome"	"109.0.0"	"FALSE"	"Windows 10"	"60.71"	"137"	n/a	n/a	n/a	n/a	n/a	n/a	n/a	n/a	n/a	n/a	"12021"	"enter"	n/a	"NULL"	"NULL"	"NULL"	"<p><b>Practice</b></p><p>In this part, two horizontal red lines will appear one above the other.</p><p>Your task is to select which <b>line is longer</b> in length as fast as you can, without making errors.</p><p>Don't get distracted by the surrounding black arrows at the end of the red lines!</p><p>Press <b>the UP or the DOWN arrow</b> to indicate where is the longer <b>red line.</b></p><div style='float: center'><img src='materials/instructions/MullerLyer_Demo.png' height='300'></img><p><img src='utils/answer/answer_updown_keyboard.PNG' height='150'></img></p><p class='small'>In this example, the correct answer is the <b>UP arrow</b>.</p></div><p>Are you ready? <b>Press ENTER to start</b></p>"	n/a	n/a	n/a	n/a	n/a	n/a	n/a	n/a	n/a	n/a
n/a	"html-keyboard-response"	"22"	"63284"	"0.0-4.0-2.0-2.0-0.0"	"s5lh8e"	"600"	"1366"	"chrome"	"109.0.0"	"FALSE"	"Windows 10"	"60.71"	"137"	n/a	n/a	n/a	n/a	n/a	n/a	"fixation"	n/a	n/a	n/a	n/a	"NULL"	n/a	"NULL"	"NULL"	"NULL"	"<p style=\"color: black; font-size: 80px; padding-left: 27%; padding-right: 36%; padding-top: 43%; padding-bottom: 48%\">+</p>"	"1147"	n/a	n/a	n/a	n/a	n/a	n/a	n/a	n/a	n/a
n/a	"image-keyboard-response"	"23"	"63840"	"0.0-4.0-2.0-2.0-1.0"	"s5lh8e"	"600"	"1366"	"chrome"	"109.0.0"	"FALSE"	"Windows 10"	"60.71"	"137"	n/a	n/a	n/a	n/a	n/a	n/a	"Trial"	n/a	n/a	n/a	"555"	"arrowup"	n/a	"NULL"	"NULL"	"NULL"	"stimuli/MullerLyer_-230000_0.70000.png"	n/a	"MullerLyer"	"arrowup"	"1663"	"TRUE"	"MullerLyer"	"-23000000000"	"0.7000000000"	"1"	"7"
n/a	"html-keyboard-response"	"24"	"65176"	"0.0-4.0-2.0-2.0-0.1"	"s5lh8e"	"600"	"1366"	"chrome"	"109.0.0"	"FALSE"	"Windows 10"	"60.71"	"137"	n/a	n/a	n/a	n/a	n/a	n/a	"fixation"	n/a	n/a	n/a	n/a	"NULL"	n/a	"NULL"	"NULL"	"NULL"	"<p style=\"color: black; font-size: 80px; padding-left: 46%; padding-right: 45%; padding-top: 20%; padding-bottom: 47%\">+</p>"	"1317"	n/a	n/a	n/a	n/a	n/a	n/a	n/a	n/a	n/a
n/a	"image-keyboard-response"	"25"	"66088"	"0.0-4.0-2.0-2.0-1.1"	"s5lh8e"	"600"	"1366"	"chrome"	"109.0.0"	"FALSE"	"Windows 10"	"60.71"	"137"	n/a	n/a	n/a	n/a	n/a	n/a	"Trial"	n/a	n/a	n/a	"911"	"arrowup"	n/a	"NULL"	"NULL"	"NULL"	"stimuli/MullerLyer_0000000_0.70000.png"	n/a	"MullerLyer"	"arrowup"	"1336"	"TRUE"	"MullerLyer"	"000000000000"	"0.7000000000"	"1"	"8"
n/a	"html-keyboard-response"	"26"	"67458"	"0.0-4.0-2.0-2.0-0.2"	"s5lh8e"	"600"	"1366"	"chrome"	"109.0.0"	"FALSE"	"Windows 10"	"60.71"	"137"	n/a	n/a	n/a	n/a	n/a	n/a	"fixation"	n/a	n/a	n/a	n/a	"NULL"	n/a	"NULL"	"NULL"	"NULL"	"<p style=\"color: black; font-size: 80px; padding-left: 40%; padding-right: 39%; padding-top: 36%; padding-bottom: 35%\">+</p>"	"1363"	n/a	n/a	n/a	n/a	n/a	n/a	n/a	n/a	n/a
n/a	"image-keyboard-response"	"27"	"68591"	"0.0-4.0-2.0-2.0-1.2"	"s5lh8e"	"600"	"1366"	"chrome"	"109.0.0"	"FALSE"	"Windows 10"	"60.71"	"137"	n/a	n/a	n/a	n/a	n/a	n/a	"Trial"	n/a	n/a	n/a	"1133"	"arrowup"	n/a	"NULL"	"NULL"	"NULL"	"stimuli/MullerLyer_2300000_0.70000.png"	n/a	"MullerLyer"	"arrowup"	"1370"	"TRUE"	"MullerLyer"	"230000000000"	"0.7000000000"	"1"	"9"
n/a	"html-keyboard-response"	"28"	"69785"	"0.0-4.0-2.0-2.0-0.3"	"s5lh8e"	"600"	"1366"	"chrome"	"109.0.0"	"FALSE"	"Windows 10"	"60.71"	"137"	n/a	n/a	n/a	n/a	n/a	n/a	"fixation"	n/a	n/a	n/a	n/a	"NULL"	n/a	"NULL"	"NULL"	"NULL"	"<p style=\"color: black; font-size: 80px; padding-left: 30%; padding-right: 2%; padding-top: 23%; padding-bottom: 17%\">+</p>"	"1184"	n/a	n/a	n/a	n/a	n/a	n/a	n/a	n/a	n/a
n/a	"image-keyboard-response"	"29"	"70352"	"0.0-4.0-2.0-2.0-1.3"	"s5lh8e"	"600"	"1366"	"chrome"	"109.0.0"	"FALSE"	"Windows 10"	"60.71"	"137"	n/a	n/a	n/a	n/a	n/a	n/a	"Trial"	n/a	n/a	n/a	"565"	"arrowdown"	n/a	"NULL"	"NULL"	"NULL"	"stimuli/MullerLyer_-230000_-0.7000.png"	n/a	"MullerLyer"	"arrowdown"	"1194"	"TRUE"	"MullerLyer"	"-23000000000"	"-0.700000000"	"1"	"10"
n/a	"html-keyboard-response"	"30"	"71772"	"0.0-4.0-2.0-2.0-0.4"	"s5lh8e"	"600"	"1366"	"chrome"	"109.0.0"	"FALSE"	"Windows 10"	"60.71"	"137"	n/a	n/a	n/a	n/a	n/a	n/a	"fixation"	n/a	n/a	n/a	n/a	"NULL"	n/a	"NULL"	"NULL"	"NULL"	"<p style=\"color: black; font-size: 80px; padding-left: 32%; padding-right: 26%; padding-top: 33%; padding-bottom: 13%\">+</p>"	"1410"	n/a	n/a	n/a	n/a	n/a	n/a	n/a	n/a	n/a
n/a	"image-keyboard-response"	"31"	"72479"	"0.0-4.0-2.0-2.0-1.4"	"s5lh8e"	"600"	"1366"	"chrome"	"109.0.0"	"FALSE"	"Windows 10"	"60.71"	"137"	n/a	n/a	n/a	n/a	n/a	n/a	"Trial"	n/a	n/a	n/a	"704"	"arrowdown"	n/a	"NULL"	"NULL"	"NULL"	"stimuli/MullerLyer_2300000_-0.7000.png"	n/a	"MullerLyer"	"arrowdown"	"1420"	"TRUE"	"MullerLyer"	"230000000000"	"-0.700000000"	"1"	"11"
n/a	"html-keyboard-response"	"32"	"73489"	"0.0-4.0-2.0-2.0-0.5"	"s5lh8e"	"600"	"1366"	"chrome"	"109.0.0"	"FALSE"	"Windows 10"	"60.71"	"137"	n/a	n/a	n/a	n/a	n/a	n/a	"fixation"	n/a	n/a	n/a	n/a	"NULL"	n/a	"NULL"	"NULL"	"NULL"	"<p style=\"color: black; font-size: 80px; padding-left: 26%; padding-right: 47%; padding-top: 32%; padding-bottom: 27%\">+</p>"	"1004"	n/a	n/a	n/a	n/a	n/a	n/a	n/a	n/a	n/a
n/a	"image-keyboard-response"	"33"	"74118"	"0.0-4.0-2.0-2.0-1.5"	"s5lh8e"	"600"	"1366"	"chrome"	"109.0.0"	"FALSE"	"Windows 10"	"60.71"	"137"	n/a	n/a	n/a	n/a	n/a	n/a	"Trial"	n/a	n/a	n/a	"627"	"arrowdown"	n/a	"NULL"	"NULL"	"NULL"	"stimuli/MullerLyer_0000000_-0.7000.png"	n/a	"MullerLyer"	"arrowdown"	"1010"	"TRUE"	"MullerLyer"	"000000000000"	"-0.700000000"	"1"	"12"
n/a	"html-button-response"	"34"	"77379"	"0.0-4.0-2.0-3.0"	"s5lh8e"	"600"	"1366"	"chrome"	"109.0.0"	"FALSE"	"Windows 10"	"60.71"	"137"	n/a	n/a	n/a	n/a	n/a	n/a	"practice_block_results"	n/a	n/a	n/a	"3255"	"0"	n/a	"NULL"	"NULL"	"NULL"	"<p style='color:rgb(76,175,80);'> Correct Responses: <b>100.00%</b></p><hr><p style='color:rgb(233,30,99);'> Average Response Time: <b>749.17</b> ms.</p>"	n/a	n/a	n/a	n/a	n/a	n/a	n/a	n/a	n/a	n/a
"TRUE"	"preload"	"35"	"77912"	"0.0-4.0-3.0-0.0"	"s5lh8e"	"600"	"1366"	"chrome"	"109.0.0"	"FALSE"	"Windows 10"	"60.71"	"137"	n/a	n/a	n/a	n/a	n/a	n/a	n/a	n/a	n/a	n/a	n/a	"NULL"	"FALSE"	"list()"	"list()"	"list()"	n/a	n/a	n/a	n/a	n/a	n/a	n/a	n/a	n/a	n/a	n/a
n/a	"html-keyboard-response"	"36"	"89359"	"0.0-4.0-3.0-1.0"	"s5lh8e"	"600"	"1366"	"chrome"	"109.0.0"	"FALSE"	"Windows 10"	"60.71"	"137"	n/a	n/a	n/a	n/a	n/a	n/a	n/a	n/a	n/a	n/a	"11445"	"enter"	n/a	"NULL"	"NULL"	"NULL"	"<p><b>Practice</b></p><p>In this part, two red lines will appear side by side.</p><p>Your task is to tell <b>which line is longer</b> in length, regardless of their orientation, as fast as you can, and without making errors.</p><p>Don't get distracted by the orientation of the lines!</p><p>Press <b>the LEFT or the RIGHT arrow</b> to indicate which <b>line is the longer one.</b></p><div style='float: center'><img src='materials/instructions/VerticalHorizontal_Demo.png' height='300'></img><p><img src='utils/answer/answer_leftright_keyboard.PNG' height='150'></img></p><p class='small'>In this example, the correct answer is the <b>LEFT arrow</b>.</p></div><p>Are you ready? <b>Press ENTER to start</b></p>"	n/a	n/a	n/a	n/a	n/a	n/a	n/a	n/a	n/a	n/a
n/a	"html-keyboard-response"	"37"	"91219"	"0.0-4.0-3.0-2.0-0.0"	"s5lh8e"	"600"	"1366"	"chrome"	"109.0.0"	"FALSE"	"Windows 10"	"60.71"	"137"	n/a	n/a	n/a	n/a	n/a	n/a	"fixation"	n/a	n/a	n/a	n/a	"NULL"	n/a	"NULL"	"NULL"	"NULL"	"<p style=\"color: black; font-size: 80px; padding-left: 39%; padding-right: 44%; padding-top: 45%; padding-bottom: 21%\">+</p>"	"1342"	n/a	n/a	n/a	n/a	n/a	n/a	n/a	n/a	n/a
n/a	"image-keyboard-response"	"38"	"91935"	"0.0-4.0-3.0-2.0-1.0"	"s5lh8e"	"600"	"1366"	"chrome"	"109.0.0"	"FALSE"	"Windows 10"	"60.71"	"137"	n/a	n/a	n/a	n/a	n/a	n/a	"Trial"	n/a	n/a	n/a	"716"	"arrowright"	n/a	"NULL"	"NULL"	"NULL"	"stimuli/VerticalHorizontal_3300000_-0.9000.png"	n/a	"VerticalHorizontal"	"arrowright"	"1860"	"TRUE"	"VerticalHorizontal"	"330000000000"	"-0.900000000"	"1"	"13"
n/a	"html-keyboard-response"	"39"	"93027"	"0.0-4.0-3.0-2.0-0.1"	"s5lh8e"	"600"	"1366"	"chrome"	"109.0.0"	"FALSE"	"Windows 10"	"60.71"	"137"	n/a	n/a	n/a	n/a	n/a	n/a	"fixation"	n/a	n/a	n/a	n/a	"NULL"	n/a	"NULL"	"NULL"	"NULL"	"<p style=\"color: black; font-size: 80px; padding-left: 39%; padding-right: 43%; padding-top: 33%; padding-bottom: 29%\">+</p>"	"1086"	n/a	n/a	n/a	n/a	n/a	n/a	n/a	n/a	n/a
n/a	"image-keyboard-response"	"40"	"93676"	"0.0-4.0-3.0-2.0-1.1"	"s5lh8e"	"600"	"1366"	"chrome"	"109.0.0"	"FALSE"	"Windows 10"	"60.71"	"137"	n/a	n/a	n/a	n/a	n/a	n/a	"Trial"	n/a	n/a	n/a	"648"	"arrowleft"	n/a	"NULL"	"NULL"	"NULL"	"stimuli/VerticalHorizontal_0000000_0.90000.png"	n/a	"VerticalHorizontal"	"arrowleft"	"1092"	"TRUE"	"VerticalHorizontal"	"000000000000"	"0.9000000000"	"1"	"14"
n/a	"html-keyboard-response"	"41"	"94999"	"0.0-4.0-3.0-2.0-0.2"	"s5lh8e"	"600"	"1366"	"chrome"	"109.0.0"	"FALSE"	"Windows 10"	"60.71"	"137"	n/a	n/a	n/a	n/a	n/a	n/a	"fixation"	n/a	n/a	n/a	n/a	"NULL"	n/a	"NULL"	"NULL"	"NULL"	"<p style=\"color: black; font-size: 80px; padding-left: 25%; padding-right: 13%; padding-top: 35%; padding-bottom: 25%\">+</p>"	"1304"	n/a	n/a	n/a	n/a	n/a	n/a	n/a	n/a	n/a
n/a	"image-keyboard-response"	"42"	"95631"	"0.0-4.0-3.0-2.0-1.2"	"s5lh8e"	"600"	"1366"	"chrome"	"109.0.0"	"FALSE"	"Windows 10"	"60.71"	"137"	n/a	n/a	n/a	n/a	n/a	n/a	"Trial"	n/a	n/a	n/a	"632"	"arrowleft"	n/a	"NULL"	"NULL"	"NULL"	"stimuli/VerticalHorizontal_-330000_0.90000.png"	n/a	"VerticalHorizontal"	"arrowleft"	"1323"	"TRUE"	"VerticalHorizontal"	"-33000000000"	"0.9000000000"	"1"	"15"
n/a	"html-keyboard-response"	"43"	"96910"	"0.0-4.0-3.0-2.0-0.3"	"s5lh8e"	"600"	"1366"	"chrome"	"109.0.0"	"FALSE"	"Windows 10"	"60.71"	"137"	n/a	n/a	n/a	n/a	n/a	n/a	"fixation"	n/a	n/a	n/a	n/a	"NULL"	n/a	"NULL"	"NULL"	"NULL"	"<p style=\"color: black; font-size: 80px; padding-left: 5%; padding-right: 23%; padding-top: 22%; padding-bottom: 22%\">+</p>"	"1273"	n/a	n/a	n/a	n/a	n/a	n/a	n/a	n/a	n/a
n/a	"image-keyboard-response"	"44"	"97364"	"0.0-4.0-3.0-2.0-1.3"	"s5lh8e"	"600"	"1366"	"chrome"	"109.0.0"	"FALSE"	"Windows 10"	"60.71"	"137"	n/a	n/a	n/a	n/a	n/a	n/a	"Trial"	n/a	n/a	n/a	"453"	"arrowright"	n/a	"NULL"	"NULL"	"NULL"	"stimuli/VerticalHorizontal_0000000_-0.9000.png"	n/a	"VerticalHorizontal"	"arrowright"	"1279"	"TRUE"	"VerticalHorizontal"	"000000000000"	"-0.900000000"	"1"	"16"
n/a	"html-keyboard-response"	"45"	"98598"	"0.0-4.0-3.0-2.0-0.4"	"s5lh8e"	"600"	"1366"	"chrome"	"109.0.0"	"FALSE"	"Windows 10"	"60.71"	"137"	n/a	n/a	n/a	n/a	n/a	n/a	"fixation"	n/a	n/a	n/a	n/a	"NULL"	n/a	"NULL"	"NULL"	"NULL"	"<p style=\"color: black; font-size: 80px; padding-left: 16%; padding-right: 0%; padding-top: 1%; padding-bottom: 13%\">+</p>"	"1215"	n/a	n/a	n/a	n/a	n/a	n/a	n/a	n/a	n/a
n/a	"image-keyboard-response"	"46"	"99117"	"0.0-4.0-3.0-2.0-1.4"	"s5lh8e"	"600"	"1366"	"chrome"	"109.0.0"	"FALSE"	"Windows 10"	"60.71"	"137"	n/a	n/a	n/a	n/a	n/a	n/a	"Trial"	n/a	n/a	n/a	"518"	"arrowright"	n/a	"NULL"	"NULL"	"NULL"	"stimuli/VerticalHorizontal_-330000_-0.9000.png"	n/a	"VerticalHorizontal"	"arrowright"	"1234"	"TRUE"	"VerticalHorizontal"	"-33000000000"	"-0.900000000"	"1"	"17"
n/a	"html-keyboard-response"	"47"	"100197"	"0.0-4.0-3.0-2.0-0.5"	"s5lh8e"	"600"	"1366"	"chrome"	"109.0.0"	"FALSE"	"Windows 10"	"60.71"	"137"	n/a	n/a	n/a	n/a	n/a	n/a	"fixation"	n/a	n/a	n/a	n/a	"NULL"	n/a	"NULL"	"NULL"	"NULL"	"<p style=\"color: black; font-size: 80px; padding-left: 30%; padding-right: 38%; padding-top: 45%; padding-bottom: 16%\">+</p>"	"1072"	n/a	n/a	n/a	n/a	n/a	n/a	n/a	n/a	n/a
n/a	"image-keyboard-response"	"48"	"100953"	"0.0-4.0-3.0-2.0-1.5"	"s5lh8e"	"600"	"1366"	"chrome"	"109.0.0"	"FALSE"	"Windows 10"	"60.71"	"137"	n/a	n/a	n/a	n/a	n/a	n/a	"Trial"	n/a	n/a	n/a	"756"	"arrowleft"	n/a	"NULL"	"NULL"	"NULL"	"stimuli/VerticalHorizontal_3300000_0.90000.png"	n/a	"VerticalHorizontal"	"arrowleft"	"1080"	"TRUE"	"VerticalHorizontal"	"330000000000"	"0.9000000000"	"1"	"18"
n/a	"html-button-response"	"49"	"103946"	"0.0-4.0-3.0-3.0"	"s5lh8e"	"600"	"1366"	"chrome"	"109.0.0"	"FALSE"	"Windows 10"	"60.71"	"137"	n/a	n/a	n/a	n/a	n/a	n/a	"practice_block_results"	n/a	n/a	n/a	"2991"	"0"	n/a	"NULL"	"NULL"	"NULL"	"<p style='color:rgb(76,175,80);'> Correct Responses: <b>100.00%</b></p><hr><p style='color:rgb(233,30,99);'> Average Response Time: <b>620.50</b> ms.</p>"	n/a	n/a	n/a	n/a	n/a	n/a	n/a	n/a	n/a	n/a
n/a	"html-button-response"	"50"	"188090"	"0.0-4.0-4.0"	"s5lh8e"	"600"	"1366"	"chrome"	"109.0.0"	"FALSE"	"Windows 10"	"60.71"	"137"	n/a	n/a	n/a	n/a	n/a	n/a	"practice_debrief"	n/a	n/a	n/a	"83641"	"0"	n/a	"NULL"	"NULL"	"NULL"	"<p><b>TRAINING COMPLETED</b></p><p>In the next phase, there will be more trials, and some might be harder too.<br> Moreover, after each illusion block, a <b>score</b> will be calculated based on speed (time you took to answer) and accuracy (number of errors).</p><p>Try to keep up a high score!</p><br><p>Note that it can be <i>really</i> challenging at times, so you will need to rely on your <b>intuition</b> and gut feeling to answer as fast as you can without making errors.</p><p>Each illusion block will be repeated two times (so that you have the opportunity to improve your score), but the order of the blocks is random.</p><p>Remember, your goal is to be as <b>fast</b> and <b>accurate</b> as possible. Good luck!</p><br>"	n/a	n/a	n/a	n/a	n/a	n/a	n/a	n/a	n/a	n/a
"TRUE"	"preload"	"51"	"188242"	"0.0-5.0-0.0"	"s5lh8e"	"600"	"1366"	"chrome"	"109.0.0"	"FALSE"	"Windows 10"	"60.71"	"137"	n/a	n/a	n/a	n/a	n/a	n/a	n/a	n/a	n/a	n/a	n/a	"NULL"	"FALSE"	"list()"	"list()"	"list()"	n/a	n/a	n/a	n/a	n/a	n/a	n/a	n/a	n/a	n/a	n/a
n/a	"html-keyboard-response"	"52"	"192993"	"0.0-5.0-1.0"	"s5lh8e"	"600"	"1366"	"chrome"	"109.0.0"	"FALSE"	"Windows 10"	"60.71"	"137"	n/a	n/a	n/a	n/a	n/a	n/a	n/a	n/a	n/a	n/a	"4750"	"enter"	n/a	"NULL"	"NULL"	"NULL"	"<p><b>Part 1/6</b></p><p>In this part, two red lines will appear side by side.</p><p>Your task is to tell <b>which line is longer</b> in length, regardless of their orientation, as fast as you can, and without making errors.</p><p>Don't get distracted by the orientation of the lines!</p><p>Press <b>the LEFT or the RIGHT arrow</b> to indicate which <b>line is the longer one.</b></p><div style='float: center'><img src='materials/instructions/VerticalHorizontal_Demo.png' height='300'></img><p><img src='utils/answer/answer_leftright_keyboard.PNG' height='150'></img></p><p class='small'>In this example, the correct answer is the <b>LEFT arrow</b>.</p></div><p>Are you ready? <b>Press ENTER to start</b></p>"	n/a	n/a	n/a	n/a	n/a	n/a	n/a	n/a	n/a	n/a
n/a	"html-keyboard-response"	"53"	"194957"	"0.0-5.0-2.0-0.0"	"s5lh8e"	"600"	"1366"	"chrome"	"109.0.0"	"FALSE"	"Windows 10"	"60.71"	"137"	n/a	n/a	n/a	n/a	n/a	n/a	"fixation"	n/a	n/a	n/a	n/a	"NULL"	n/a	"NULL"	"NULL"	"NULL"	"<p style=\"color: black; font-size: 80px; padding-left: 22%; padding-right: 15%; padding-top: 3%; padding-bottom: 26%\">+</p>"	"1448"	n/a	n/a	n/a	n/a	n/a	n/a	n/a	n/a	n/a
n/a	"image-keyboard-response"	"54"	"196034"	"0.0-5.0-2.0-1.0"	"s5lh8e"	"600"	"1366"	"chrome"	"109.0.0"	"FALSE"	"Windows 10"	"60.71"	"137"	n/a	n/a	n/a	n/a	n/a	n/a	"Trial"	n/a	n/a	n/a	"1072"	"arrowleft"	n/a	"NULL"	"NULL"	"NULL"	"stimuli/VerticalHorizontal_3.30000_0.10960.png"	n/a	"VerticalHorizontal"	"arrowleft"	"1964"	"TRUE"	"VerticalHorizontal"	"3.3000000000"	"0.1096000000"	"1"	"19"
n/a	"html-keyboard-response"	"55"	"197224"	"0.0-5.0-2.0-0.1"	"s5lh8e"	"600"	"1366"	"chrome"	"109.0.0"	"FALSE"	"Windows 10"	"60.71"	"137"	n/a	n/a	n/a	n/a	n/a	n/a	"fixation"	n/a	n/a	n/a	n/a	"NULL"	n/a	"NULL"	"NULL"	"NULL"	"<p style=\"color: black; font-size: 80px; padding-left: 6%; padding-right: 15%; padding-top: 23%; padding-bottom: 18%\">+</p>"	"1179"	n/a	n/a	n/a	n/a	n/a	n/a	n/a	n/a	n/a
n/a	"image-keyboard-response"	"56"	"198262"	"0.0-5.0-2.0-1.1"	"s5lh8e"	"600"	"1366"	"chrome"	"109.0.0"	"FALSE"	"Windows 10"	"60.71"	"137"	n/a	n/a	n/a	n/a	n/a	n/a	"Trial"	n/a	n/a	n/a	"1038"	"arrowright"	n/a	"NULL"	"NULL"	"NULL"	"stimuli/VerticalHorizontal_3.30000_-0.0673.png"	n/a	"VerticalHorizontal"	"arrowright"	"1190"	"TRUE"	"VerticalHorizontal"	"3.3000000000"	"-0.067300000"	"1"	"20"
n/a	"html-keyboard-response"	"57"	"199668"	"0.0-5.0-2.0-0.2"	"s5lh8e"	"600"	"1366"	"chrome"	"109.0.0"	"FALSE"	"Windows 10"	"60.71"	"137"	n/a	n/a	n/a	n/a	n/a	n/a	"fixation"	n/a	n/a	n/a	n/a	"NULL"	n/a	"NULL"	"NULL"	"NULL"	"<p style=\"color: black; font-size: 80px; padding-left: 41%; padding-right: 36%; padding-top: 32%; padding-bottom: 15%\">+</p>"	"1398"	n/a	n/a	n/a	n/a	n/a	n/a	n/a	n/a	n/a
n/a	"image-keyboard-response"	"58"	"200463"	"0.0-5.0-2.0-1.2"	"s5lh8e"	"600"	"1366"	"chrome"	"109.0.0"	"FALSE"	"Windows 10"	"60.71"	"137"	n/a	n/a	n/a	n/a	n/a	n/a	"Trial"	n/a	n/a	n/a	"794"	"arrowright"	n/a	"NULL"	"NULL"	"NULL"	"stimuli/VerticalHorizontal_3.30000_-0.1096.png"	n/a	"VerticalHorizontal"	"arrowright"	"1406"	"TRUE"	"VerticalHorizontal"	"3.3000000000"	"-0.109600000"	"1"	"21"
n/a	"html-keyboard-response"	"59"	"201838"	"0.0-5.0-2.0-0.3"	"s5lh8e"	"600"	"1366"	"chrome"	"109.0.0"	"FALSE"	"Windows 10"	"60.71"	"137"	n/a	n/a	n/a	n/a	n/a	n/a	"fixation"	n/a	n/a	n/a	n/a	"NULL"	n/a	"NULL"	"NULL"	"NULL"	"<p style=\"color: black; font-size: 80px; padding-left: 47%; padding-right: 10%; padding-top: 39%; padding-bottom: 7%\">+</p>"	"1362"	n/a	n/a	n/a	n/a	n/a	n/a	n/a	n/a	n/a
n/a	"image-keyboard-response"	"60"	"202938"	"0.0-5.0-2.0-1.3"	"s5lh8e"	"600"	"1366"	"chrome"	"109.0.0"	"FALSE"	"Windows 10"	"60.71"	"137"	n/a	n/a	n/a	n/a	n/a	n/a	"Trial"	n/a	n/a	n/a	"1099"	"arrowleft"	n/a	"NULL"	"NULL"	"NULL"	"stimuli/VerticalHorizontal_28.75714_0.22500.png"	n/a	"VerticalHorizontal"	"arrowleft"	"1375"	"TRUE"	"VerticalHorizontal"	"28.757140000"	"0.2250000000"	"1"	"22"
n/a	"html-keyboard-response"	"61"	"204359"	"0.0-5.0-2.0-0.4"	"s5lh8e"	"600"	"1366"	"chrome"	"109.0.0"	"FALSE"	"Windows 10"	"60.71"	"137"	n/a	n/a	n/a	n/a	n/a	n/a	"fixation"	n/a	n/a	n/a	n/a	"NULL"	n/a	"NULL"	"NULL"	"NULL"	"<p style=\"color: black; font-size: 80px; padding-left: 15%; padding-right: 5%; padding-top: 17%; padding-bottom: 35%\">+</p>"	"1408"	n/a	n/a	n/a	n/a	n/a	n/a	n/a	n/a	n/a
n/a	"image-keyboard-response"	"62"	"205450"	"0.0-5.0-2.0-1.4"	"s5lh8e"	"600"	"1366"	"chrome"	"109.0.0"	"FALSE"	"Windows 10"	"60.71"	"137"	n/a	n/a	n/a	n/a	n/a	n/a	"Trial"	n/a	n/a	n/a	"1090"	"arrowright"	n/a	"NULL"	"NULL"	"NULL"	"stimuli/VerticalHorizontal_3.30000_-0.16217.png"	n/a	"VerticalHorizontal"	"arrowright"	"1421"	"TRUE"	"VerticalHorizontal"	"3.3000000000"	"-0.162170000"	"1"	"23"
n/a	"html-keyboard-response"	"63"	"206818"	"0.0-5.0-2.0-0.5"	"s5lh8e"	"600"	"1366"	"chrome"	"109.0.0"	"FALSE"	"Windows 10"	"60.71"	"137"	n/a	n/a	n/a	n/a	n/a	n/a	"fixation"	n/a	n/a	n/a	n/a	"NULL"	n/a	"NULL"	"NULL"	"NULL"	"<p style=\"color: black; font-size: 80px; padding-left: 10%; padding-right: 36%; padding-top: 22%; padding-bottom: 11%\">+</p>"	"1364"	n/a	n/a	n/a	n/a	n/a	n/a	n/a	n/a	n/a
n/a	"image-keyboard-response"	"64"	"207357"	"0.0-5.0-2.0-1.5"	"s5lh8e"	"600"	"1366"	"chrome"	"109.0.0"	"FALSE"	"Windows 10"	"60.71"	"137"	n/a	n/a	n/a	n/a	n/a	n/a	"Trial"	n/a	n/a	n/a	"539"	"arrowright"	n/a	"NULL"	"NULL"	"NULL"	"stimuli/VerticalHorizontal_-20.27143_-0.16217.png"	n/a	"VerticalHorizontal"	"arrowright"	"1368"	"TRUE"	"VerticalHorizontal"	"-20.27143000"	"-0.162170000"	"1"	"24"
n/a	"html-keyboard-response"	"65"	"208770"	"0.0-5.0-2.0-0.6"	"s5lh8e"	"600"	"1366"	"chrome"	"109.0.0"	"FALSE"	"Windows 10"	"60.71"	"137"	n/a	n/a	n/a	n/a	n/a	n/a	"fixation"	n/a	n/a	n/a	n/a	"NULL"	n/a	"NULL"	"NULL"	"NULL"	"<p style=\"color: black; font-size: 80px; padding-left: 46%; padding-right: 17%; padding-top: 8%; padding-bottom: 30%\">+</p>"	"1399"	n/a	n/a	n/a	n/a	n/a	n/a	n/a	n/a	n/a
n/a	"image-keyboard-response"	"66"	"209784"	"0.0-5.0-2.0-1.6"	"s5lh8e"	"600"	"1366"	"chrome"	"109.0.0"	"FALSE"	"Windows 10"	"60.71"	"137"	n/a	n/a	n/a	n/a	n/a	n/a	"Trial"	n/a	n/a	n/a	"1011"	"arrowright"	n/a	"NULL"	"NULL"	"NULL"	"stimuli/VerticalHorizontal_28.75714_-0.16217.png"	n/a	"VerticalHorizontal"	"arrowright"	"1413"	"TRUE"	"VerticalHorizontal"	"28.757140000"	"-0.162170000"	"1"	"25"
n/a	"html-keyboard-response"	"67"	"211060"	"0.0-5.0-2.0-0.7"	"s5lh8e"	"600"	"1366"	"chrome"	"109.0.0"	"FALSE"	"Windows 10"	"60.71"	"137"	n/a	n/a	n/a	n/a	n/a	n/a	"fixation"	n/a	n/a	n/a	n/a	"NULL"	n/a	"NULL"	"NULL"	"NULL"	"<p style=\"color: black; font-size: 80px; padding-left: 27%; padding-right: 9%; padding-top: 3%; padding-bottom: 47%\">+</p>"	"1255"	n/a	n/a	n/a	n/a	n/a	n/a	n/a	n/a	n/a
n/a	"image-keyboard-response"	"68"	"212328"	"0.0-5.0-2.0-1.7"	"s5lh8e"	"600"	"1366"	"chrome"	"109.0.0"	"FALSE"	"Windows 10"	"60.71"	"137"	n/a	n/a	n/a	n/a	n/a	n/a	"Trial"	n/a	n/a	n/a	"1264"	"arrowright"	n/a	"NULL"	"NULL"	"NULL"	"stimuli/VerticalHorizontal_28.75714_-0.1096.png"	n/a	"VerticalHorizontal"	"arrowright"	"1276"	"TRUE"	"VerticalHorizontal"	"28.757140000"	"-0.109600000"	"1"	"26"
n/a	"html-keyboard-response"	"69"	"213434"	"0.0-5.0-2.0-0.8"	"s5lh8e"	"600"	"1366"	"chrome"	"109.0.0"	"FALSE"	"Windows 10"	"60.71"	"137"	n/a	n/a	n/a	n/a	n/a	n/a	"fixation"	n/a	n/a	n/a	n/a	"NULL"	n/a	"NULL"	"NULL"	"NULL"	"<p style=\"color: black; font-size: 80px; padding-left: 10%; padding-right: 43%; padding-top: 39%; padding-bottom: 4%\">+</p>"	"1100"	n/a	n/a	n/a	n/a	n/a	n/a	n/a	n/a	n/a
n/a	"image-keyboard-response"	"70"	"214777"	"0.0-5.0-2.0-1.8"	"s5lh8e"	"600"	"1366"	"chrome"	"109.0.0"	"FALSE"	"Windows 10"	"60.71"	"137"	n/a	n/a	n/a	n/a	n/a	n/a	"Trial"	n/a	n/a	n/a	"1342"	"arrowleft"	n/a	"NULL"	"NULL"	"NULL"	"stimuli/VerticalHorizontal_11.78571_0.06730.png"	n/a	"VerticalHorizontal"	"arrowleft"	"1106"	"TRUE"	"VerticalHorizontal"	"11.785710000"	"0.0673000000"	"1"	"27"
n/a	"html-keyboard-response"	"71"	"216260"	"0.0-5.0-2.0-0.9"	"s5lh8e"	"600"	"1366"	"chrome"	"109.0.0"	"FALSE"	"Windows 10"	"60.71"	"137"	n/a	n/a	n/a	n/a	n/a	n/a	"fixation"	n/a	n/a	n/a	n/a	"NULL"	n/a	"NULL"	"NULL"	"NULL"	"<p style=\"color: black; font-size: 80px; padding-left: 35%; padding-right: 42%; padding-top: 27%; padding-bottom: 46%\">+</p>"	"1475"	n/a	n/a	n/a	n/a	n/a	n/a	n/a	n/a	n/a
n/a	"image-keyboard-response"	"72"	"217014"	"0.0-5.0-2.0-1.9"	"s5lh8e"	"600"	"1366"	"chrome"	"109.0.0"	"FALSE"	"Windows 10"	"60.71"	"137"	n/a	n/a	n/a	n/a	n/a	n/a	"Trial"	n/a	n/a	n/a	"753"	"arrowright"	n/a	"NULL"	"NULL"	"NULL"	"stimuli/VerticalHorizontal_20.27143_-0.16217.png"	n/a	"VerticalHorizontal"	"arrowright"	"1483"	"TRUE"	"VerticalHorizontal"	"20.271430000"	"-0.162170000"	"1"	"28"
n/a	"html-keyboard-response"	"73"	"218129"	"0.0-5.0-2.0-0.10"	"s5lh8e"	"600"	"1366"	"chrome"	"109.0.0"	"FALSE"	"Windows 10"	"60.71"	"137"	n/a	n/a	n/a	n/a	n/a	n/a	"fixation"	n/a	n/a	n/a	n/a	"NULL"	n/a	"NULL"	"NULL"	"NULL"	"<p style=\"color: black; font-size: 80px; padding-left: 47%; padding-right: 39%; padding-top: 36%; padding-bottom: 9%\">+</p>"	"1102"	n/a	n/a	n/a	n/a	n/a	n/a	n/a	n/a	n/a
n/a	"image-keyboard-response"	"74"	"219351"	"0.0-5.0-2.0-1.10"	"s5lh8e"	"600"	"1366"	"chrome"	"109.0.0"	"FALSE"	"Windows 10"	"60.71"	"137"	n/a	n/a	n/a	n/a	n/a	n/a	"Trial"	n/a	n/a	n/a	"1220"	"arrowleft"	n/a	"NULL"	"NULL"	"NULL"	"stimuli/VerticalHorizontal_-11.78571_0.10960.png"	n/a	"VerticalHorizontal"	"arrowleft"	"1115"	"TRUE"	"VerticalHorizontal"	"-11.78571000"	"0.1096000000"	"1"	"29"
n/a	"html-keyboard-response"	"75"	"220775"	"0.0-5.0-2.0-0.11"	"s5lh8e"	"600"	"1366"	"chrome"	"109.0.0"	"FALSE"	"Windows 10"	"60.71"	"137"	n/a	n/a	n/a	n/a	n/a	n/a	"fixation"	n/a	n/a	n/a	n/a	"NULL"	n/a	"NULL"	"NULL"	"NULL"	"<p style=\"color: black; font-size: 80px; padding-left: 13%; padding-right: 13%; padding-top: 24%; padding-bottom: 35%\">+</p>"	"1401"	n/a	n/a	n/a	n/a	n/a	n/a	n/a	n/a	n/a
n/a	"image-keyboard-response"	"76"	"221891"	"0.0-5.0-2.0-1.11"	"s5lh8e"	"600"	"1366"	"chrome"	"109.0.0"	"FALSE"	"Windows 10"	"60.71"	"137"	n/a	n/a	n/a	n/a	n/a	n/a	"Trial"	n/a	n/a	n/a	"1115"	"arrowleft"	n/a	"NULL"	"NULL"	"NULL"	"stimuli/VerticalHorizontal_28.75714_0.16217.png"	n/a	"VerticalHorizontal"	"arrowleft"	"1424"	"TRUE"	"VerticalHorizontal"	"28.757140000"	"0.1621700000"	"1"	"30"
n/a	"html-keyboard-response"	"77"	"222987"	"0.0-5.0-2.0-0.12"	"s5lh8e"	"600"	"1366"	"chrome"	"109.0.0"	"FALSE"	"Windows 10"	"60.71"	"137"	n/a	n/a	n/a	n/a	n/a	n/a	"fixation"	n/a	n/a	n/a	n/a	"NULL"	n/a	"NULL"	"NULL"	"NULL"	"<p style=\"color: black; font-size: 80px; padding-left: 8%; padding-right: 50%; padding-top: 20%; padding-bottom: 14%\">+</p>"	"1080"	n/a	n/a	n/a	n/a	n/a	n/a	n/a	n/a	n/a
n/a	"image-keyboard-response"	"78"	"223771"	"0.0-5.0-2.0-1.12"	"s5lh8e"	"600"	"1366"	"chrome"	"109.0.0"	"FALSE"	"Windows 10"	"60.71"	"137"	n/a	n/a	n/a	n/a	n/a	n/a	"Trial"	n/a	n/a	n/a	"783"	"arrowright"	n/a	"NULL"	"NULL"	"NULL"	"stimuli/VerticalHorizontal_20.27143_-0.2250.png"	n/a	"VerticalHorizontal"	"arrowright"	"1096"	"TRUE"	"VerticalHorizontal"	"20.271430000"	"-0.225000000"	"1"	"31"
n/a	"html-keyboard-response"	"79"	"225018"	"0.0-5.0-2.0-0.13"	"s5lh8e"	"600"	"1366"	"chrome"	"109.0.0"	"FALSE"	"Windows 10"	"60.71"	"137"	n/a	n/a	n/a	n/a	n/a	n/a	"fixation"	n/a	n/a	n/a	n/a	"NULL"	n/a	"NULL"	"NULL"	"NULL"	"<p style=\"color: black; font-size: 80px; padding-left: 25%; padding-right: 18%; padding-top: 20%; padding-bottom: 1%\">+</p>"	"1233"	n/a	n/a	n/a	n/a	n/a	n/a	n/a	n/a	n/a
n/a	"image-keyboard-response"	"80"	"225784"	"0.0-5.0-2.0-1.13"	"s5lh8e"	"600"	"1366"	"chrome"	"109.0.0"	"FALSE"	"Windows 10"	"60.71"	"137"	n/a	n/a	n/a	n/a	n/a	n/a	"Trial"	n/a	n/a	n/a	"763"	"arrowleft"	n/a	"NULL"	"NULL"	"NULL"	"stimuli/VerticalHorizontal_3.30000_0.06730.png"	n/a	"VerticalHorizontal"	"arrowleft"	"1247"	"TRUE"	"VerticalHorizontal"	"3.3000000000"	"0.0673000000"	"1"	"32"
n/a	"html-keyboard-response"	"81"	"227004"	"0.0-5.0-2.0-0.14"	"s5lh8e"	"600"	"1366"	"chrome"	"109.0.0"	"FALSE"	"Windows 10"	"60.71"	"137"	n/a	n/a	n/a	n/a	n/a	n/a	"fixation"	n/a	n/a	n/a	n/a	"NULL"	n/a	"NULL"	"NULL"	"NULL"	"<p style=\"color: black; font-size: 80px; padding-left: 29%; padding-right: 14%; padding-top: 44%; padding-bottom: 11%\">+</p>"	"1207"	n/a	n/a	n/a	n/a	n/a	n/a	n/a	n/a	n/a
n/a	"image-keyboard-response"	"82"	"227740"	"0.0-5.0-2.0-1.14"	"s5lh8e"	"600"	"1366"	"chrome"	"109.0.0"	"FALSE"	"Windows 10"	"60.71"	"137"	n/a	n/a	n/a	n/a	n/a	n/a	"Trial"	n/a	n/a	n/a	"730"	"arrowleft"	n/a	"NULL"	"NULL"	"NULL"	"stimuli/VerticalHorizontal_11.78571_0.10960.png"	n/a	"VerticalHorizontal"	"arrowleft"	"1220"	"TRUE"	"VerticalHorizontal"	"11.785710000"	"0.1096000000"	"1"	"33"
n/a	"html-keyboard-response"	"83"	"228846"	"0.0-5.0-2.0-0.15"	"s5lh8e"	"600"	"1366"	"chrome"	"109.0.0"	"FALSE"	"Windows 10"	"60.71"	"137"	n/a	n/a	n/a	n/a	n/a	n/a	"fixation"	n/a	n/a	n/a	n/a	"NULL"	n/a	"NULL"	"NULL"	"NULL"	"<p style=\"color: black; font-size: 80px; padding-left: 43%; padding-right: 21%; padding-top: 29%; padding-bottom: 24%\">+</p>"	"1099"	n/a	n/a	n/a	n/a	n/a	n/a	n/a	n/a	n/a
n/a	"image-keyboard-response"	"84"	"229704"	"0.0-5.0-2.0-1.15"	"s5lh8e"	"600"	"1366"	"chrome"	"109.0.0"	"FALSE"	"Windows 10"	"60.71"	"137"	n/a	n/a	n/a	n/a	n/a	n/a	"Trial"	n/a	n/a	n/a	"857"	"arrowleft"	n/a	"NULL"	"NULL"	"NULL"	"stimuli/VerticalHorizontal_11.78571_0.22500.png"	n/a	"VerticalHorizontal"	"arrowleft"	"1106"	"TRUE"	"VerticalHorizontal"	"11.785710000"	"0.2250000000"	"1"	"34"
n/a	"html-keyboard-response"	"85"	"230737"	"0.0-5.0-2.0-0.16"	"s5lh8e"	"600"	"1366"	"chrome"	"109.0.0"	"FALSE"	"Windows 10"	"60.71"	"137"	n/a	n/a	n/a	n/a	n/a	n/a	"fixation"	n/a	n/a	n/a	n/a	"NULL"	n/a	"NULL"	"NULL"	"NULL"	"<p style=\"color: black; font-size: 80px; padding-left: 16%; padding-right: 45%; padding-top: 49%; padding-bottom: 15%\">+</p>"	"1029"	n/a	n/a	n/a	n/a	n/a	n/a	n/a	n/a	n/a
n/a	"image-keyboard-response"	"86"	"231723"	"0.0-5.0-2.0-1.16"	"s5lh8e"	"600"	"1366"	"chrome"	"109.0.0"	"FALSE"	"Windows 10"	"60.71"	"137"	n/a	n/a	n/a	n/a	n/a	n/a	"Trial"	n/a	n/a	n/a	"985"	"arrowright"	n/a	"NULL"	"NULL"	"NULL"	"stimuli/VerticalHorizontal_28.75714_0.06730.png"	n/a	"VerticalHorizontal"	"arrowleft"	"1033"	"FALSE"	"VerticalHorizontal"	"28.757140000"	"0.0673000000"	"1"	"35"
n/a	"html-keyboard-response"	"87"	"232958"	"0.0-5.0-2.0-0.17"	"s5lh8e"	"600"	"1366"	"chrome"	"109.0.0"	"FALSE"	"Windows 10"	"60.71"	"137"	n/a	n/a	n/a	n/a	n/a	n/a	"fixation"	n/a	n/a	n/a	n/a	"NULL"	n/a	"NULL"	"NULL"	"NULL"	"<p style=\"color: black; font-size: 80px; padding-left: 48%; padding-right: 26%; padding-top: 27%; padding-bottom: 19%\">+</p>"	"1223"	n/a	n/a	n/a	n/a	n/a	n/a	n/a	n/a	n/a
n/a	"image-keyboard-response"	"88"	"233655"	"0.0-5.0-2.0-1.17"	"s5lh8e"	"600"	"1366"	"chrome"	"109.0.0"	"FALSE"	"Windows 10"	"60.71"	"137"	n/a	n/a	n/a	n/a	n/a	n/a	"Trial"	n/a	n/a	n/a	"695"	"arrowleft"	n/a	"NULL"	"NULL"	"NULL"	"stimuli/VerticalHorizontal_-28.75714_0.06730.png"	n/a	"VerticalHorizontal"	"arrowleft"	"1235"	"TRUE"	"VerticalHorizontal"	"-28.75714000"	"0.0673000000"	"1"	"36"
n/a	"html-keyboard-response"	"89"	"234845"	"0.0-5.0-2.0-0.18"	"s5lh8e"	"600"	"1366"	"chrome"	"109.0.0"	"FALSE"	"Windows 10"	"60.71"	"137"	n/a	n/a	n/a	n/a	n/a	n/a	"fixation"	n/a	n/a	n/a	n/a	"NULL"	n/a	"NULL"	"NULL"	"NULL"	"<p style=\"color: black; font-size: 80px; padding-left: 25%; padding-right: 7%; padding-top: 32%; padding-bottom: 16%\">+</p>"	"1177"	n/a	n/a	n/a	n/a	n/a	n/a	n/a	n/a	n/a
n/a	"image-keyboard-response"	"90"	"235476"	"0.0-5.0-2.0-1.18"	"s5lh8e"	"600"	"1366"	"chrome"	"109.0.0"	"FALSE"	"Windows 10"	"60.71"	"137"	n/a	n/a	n/a	n/a	n/a	n/a	"Trial"	n/a	n/a	n/a	"631"	"arrowleft"	n/a	"NULL"	"NULL"	"NULL"	"stimuli/VerticalHorizontal_-11.78571_0.16217.png"	n/a	"VerticalHorizontal"	"arrowleft"	"1190"	"TRUE"	"VerticalHorizontal"	"-11.78571000"	"0.1621700000"	"1"	"37"
n/a	"html-keyboard-response"	"91"	"236582"	"0.0-5.0-2.0-0.19"	"s5lh8e"	"600"	"1366"	"chrome"	"109.0.0"	"FALSE"	"Windows 10"	"60.71"	"137"	n/a	n/a	n/a	n/a	n/a	n/a	"fixation"	n/a	n/a	n/a	n/a	"NULL"	n/a	"NULL"	"NULL"	"NULL"	"<p style=\"color: black; font-size: 80px; padding-left: 50%; padding-right: 35%; padding-top: 43%; padding-bottom: 4%\">+</p>"	"1091"	n/a	n/a	n/a	n/a	n/a	n/a	n/a	n/a	n/a
n/a	"image-keyboard-response"	"92"	"237757"	"0.0-5.0-2.0-1.19"	"s5lh8e"	"600"	"1366"	"chrome"	"109.0.0"	"FALSE"	"Windows 10"	"60.71"	"137"	n/a	n/a	n/a	n/a	n/a	n/a	"Trial"	n/a	n/a	n/a	"1174"	"arrowright"	n/a	"NULL"	"NULL"	"NULL"	"stimuli/VerticalHorizontal_-28.75714_-0.2250.png"	n/a	"VerticalHorizontal"	"arrowright"	"1106"	"TRUE"	"VerticalHorizontal"	"-28.75714000"	"-0.225000000"	"1"	"38"
n/a	"html-keyboard-response"	"93"	"239071"	"0.0-5.0-2.0-0.20"	"s5lh8e"	"600"	"1366"	"chrome"	"109.0.0"	"FALSE"	"Windows 10"	"60.71"	"137"	n/a	n/a	n/a	n/a	n/a	n/a	"fixation"	n/a	n/a	n/a	n/a	"NULL"	n/a	"NULL"	"NULL"	"NULL"	"<p style=\"color: black; font-size: 80px; padding-left: 18%; padding-right: 42%; padding-top: 43%; padding-bottom: 11%\">+</p>"	"1303"	n/a	n/a	n/a	n/a	n/a	n/a	n/a	n/a	n/a
n/a	"image-keyboard-response"	"94"	"239920"	"0.0-5.0-2.0-1.20"	"s5lh8e"	"600"	"1366"	"chrome"	"109.0.0"	"FALSE"	"Windows 10"	"60.71"	"137"	n/a	n/a	n/a	n/a	n/a	n/a	"Trial"	n/a	n/a	n/a	"848"	"arrowright"	n/a	"NULL"	"NULL"	"NULL"	"stimuli/VerticalHorizontal_-11.78571_-0.16217.png"	n/a	"VerticalHorizontal"	"arrowright"	"1314"	"TRUE"	"VerticalHorizontal"	"-11.78571000"	"-0.162170000"	"1"	"39"
n/a	"html-keyboard-response"	"95"	"241228"	"0.0-5.0-2.0-0.21"	"s5lh8e"	"600"	"1366"	"chrome"	"109.0.0"	"FALSE"	"Windows 10"	"60.71"	"137"	n/a	n/a	n/a	n/a	n/a	n/a	"fixation"	n/a	n/a	n/a	n/a	"NULL"	n/a	"NULL"	"NULL"	"NULL"	"<p style=\"color: black; font-size: 80px; padding-left: 21%; padding-right: 36%; padding-top: 30%; padding-bottom: 22%\">+</p>"	"1303"	n/a	n/a	n/a	n/a	n/a	n/a	n/a	n/a	n/a
n/a	"image-keyboard-response"	"96"	"242339"	"0.0-5.0-2.0-1.21"	"s5lh8e"	"600"	"1366"	"chrome"	"109.0.0"	"FALSE"	"Windows 10"	"60.71"	"137"	n/a	n/a	n/a	n/a	n/a	n/a	"Trial"	n/a	n/a	n/a	"1106"	"arrowright"	n/a	"NULL"	"NULL"	"NULL"	"stimuli/VerticalHorizontal_-11.78571_-0.0673.png"	n/a	"VerticalHorizontal"	"arrowright"	"1308"	"TRUE"	"VerticalHorizontal"	"-11.78571000"	"-0.067300000"	"1"	"40"
n/a	"html-keyboard-response"	"97"	"243632"	"0.0-5.0-2.0-0.22"	"s5lh8e"	"600"	"1366"	"chrome"	"109.0.0"	"FALSE"	"Windows 10"	"60.71"	"137"	n/a	n/a	n/a	n/a	n/a	n/a	"fixation"	n/a	n/a	n/a	n/a	"NULL"	n/a	"NULL"	"NULL"	"NULL"	"<p style=\"color: black; font-size: 80px; padding-left: 22%; padding-right: 12%; padding-top: 11%; padding-bottom: 39%\">+</p>"	"1276"	n/a	n/a	n/a	n/a	n/a	n/a	n/a	n/a	n/a
n/a	"image-keyboard-response"	"98"	"244789"	"0.0-5.0-2.0-1.22"	"s5lh8e"	"600"	"1366"	"chrome"	"109.0.0"	"FALSE"	"Windows 10"	"60.71"	"137"	n/a	n/a	n/a	n/a	n/a	n/a	"Trial"	n/a	n/a	n/a	"1156"	"arrowleft"	n/a	"NULL"	"NULL"	"NULL"	"stimuli/VerticalHorizontal_-28.75714_0.16217.png"	n/a	"VerticalHorizontal"	"arrowleft"	"1293"	"TRUE"	"VerticalHorizontal"	"-28.75714000"	"0.1621700000"	"1"	"41"
n/a	"html-keyboard-response"	"99"	"246208"	"0.0-5.0-2.0-0.23"	"s5lh8e"	"600"	"1366"	"chrome"	"109.0.0"	"FALSE"	"Windows 10"	"60.71"	"137"	n/a	n/a	n/a	n/a	n/a	n/a	"fixation"	n/a	n/a	n/a	n/a	"NULL"	n/a	"NULL"	"NULL"	"NULL"	"<p style=\"color: black; font-size: 80px; padding-left: 33%; padding-right: 47%; padding-top: 35%; padding-bottom: 46%\">+</p>"	"1401"	n/a	n/a	n/a	n/a	n/a	n/a	n/a	n/a	n/a
n/a	"image-keyboard-response"	"100"	"247834"	"0.0-5.0-2.0-1.23"	"s5lh8e"	"600"	"1366"	"chrome"	"109.0.0"	"FALSE"	"Windows 10"	"60.71"	"137"	n/a	n/a	n/a	n/a	n/a	n/a	"Trial"	n/a	n/a	n/a	"1625"	"arrowright"	n/a	"NULL"	"NULL"	"NULL"	"stimuli/VerticalHorizontal_20.27143_-0.1096.png"	n/a	"VerticalHorizontal"	"arrowright"	"1419"	"TRUE"	"VerticalHorizontal"	"20.271430000"	"-0.109600000"	"1"	"42"
n/a	"html-keyboard-response"	"101"	"248938"	"0.0-5.0-2.0-0.24"	"s5lh8e"	"600"	"1366"	"chrome"	"109.0.0"	"FALSE"	"Windows 10"	"60.71"	"137"	n/a	n/a	n/a	n/a	n/a	n/a	"fixation"	n/a	n/a	n/a	n/a	"NULL"	n/a	"NULL"	"NULL"	"NULL"	"<p style=\"color: black; font-size: 80px; padding-left: 8%; padding-right: 9%; padding-top: 19%; padding-bottom: 42%\">+</p>"	"1091"	n/a	n/a	n/a	n/a	n/a	n/a	n/a	n/a	n/a
n/a	"image-keyboard-response"	"102"	"249790"	"0.0-5.0-2.0-1.24"	"s5lh8e"	"600"	"1366"	"chrome"	"109.0.0"	"FALSE"	"Windows 10"	"60.71"	"137"	n/a	n/a	n/a	n/a	n/a	n/a	"Trial"	n/a	n/a	n/a	"848"	"arrowright"	n/a	"NULL"	"NULL"	"NULL"	"stimuli/VerticalHorizontal_-20.27143_-0.2250.png"	n/a	"VerticalHorizontal"	"arrowright"	"1104"	"TRUE"	"VerticalHorizontal"	"-20.27143000"	"-0.225000000"	"1"	"43"
n/a	"html-keyboard-response"	"103"	"250963"	"0.0-5.0-2.0-0.25"	"s5lh8e"	"600"	"1366"	"chrome"	"109.0.0"	"FALSE"	"Windows 10"	"60.71"	"137"	n/a	n/a	n/a	n/a	n/a	n/a	"fixation"	n/a	n/a	n/a	n/a	"NULL"	n/a	"NULL"	"NULL"	"NULL"	"<p style=\"color: black; font-size: 80px; padding-left: 15%; padding-right: 20%; padding-top: 17%; padding-bottom: 38%\">+</p>"	"1158"	n/a	n/a	n/a	n/a	n/a	n/a	n/a	n/a	n/a
n/a	"image-keyboard-response"	"104"	"251570"	"0.0-5.0-2.0-1.25"	"s5lh8e"	"600"	"1366"	"chrome"	"109.0.0"	"FALSE"	"Windows 10"	"60.71"	"137"	n/a	n/a	n/a	n/a	n/a	n/a	"Trial"	n/a	n/a	n/a	"606"	"arrowleft"	n/a	"NULL"	"NULL"	"NULL"	"stimuli/VerticalHorizontal_20.27143_0.22500.png"	n/a	"VerticalHorizontal"	"arrowleft"	"1173"	"TRUE"	"VerticalHorizontal"	"20.271430000"	"0.2250000000"	"1"	"44"
n/a	"html-keyboard-response"	"105"	"252582"	"0.0-5.0-2.0-0.26"	"s5lh8e"	"600"	"1366"	"chrome"	"109.0.0"	"FALSE"	"Windows 10"	"60.71"	"137"	n/a	n/a	n/a	n/a	n/a	n/a	"fixation"	n/a	n/a	n/a	n/a	"NULL"	n/a	"NULL"	"NULL"	"NULL"	"<p style=\"color: black; font-size: 80px; padding-left: 23%; padding-right: 24%; padding-top: 49%; padding-bottom: 15%\">+</p>"	"1005"	n/a	n/a	n/a	n/a	n/a	n/a	n/a	n/a	n/a
n/a	"image-keyboard-response"	"106"	"253313"	"0.0-5.0-2.0-1.26"	"s5lh8e"	"600"	"1366"	"chrome"	"109.0.0"	"FALSE"	"Windows 10"	"60.71"	"137"	n/a	n/a	n/a	n/a	n/a	n/a	"Trial"	n/a	n/a	n/a	"730"	"arrowleft"	n/a	"NULL"	"NULL"	"NULL"	"stimuli/VerticalHorizontal_-3.3000_0.06730.png"	n/a	"VerticalHorizontal"	"arrowleft"	"1012"	"TRUE"	"VerticalHorizontal"	"-3.300000000"	"0.0673000000"	"1"	"45"
n/a	"html-keyboard-response"	"107"	"254395"	"0.0-5.0-2.0-0.27"	"s5lh8e"	"600"	"1366"	"chrome"	"109.0.0"	"FALSE"	"Windows 10"	"60.71"	"137"	n/a	n/a	n/a	n/a	n/a	n/a	"fixation"	n/a	n/a	n/a	n/a	"NULL"	n/a	"NULL"	"NULL"	"NULL"	"<p style=\"color: black; font-size: 80px; padding-left: 5%; padding-right: 31%; padding-top: 41%; padding-bottom: 33%\">+</p>"	"1069"	n/a	n/a	n/a	n/a	n/a	n/a	n/a	n/a	n/a
n/a	"image-keyboard-response"	"108"	"255141"	"0.0-5.0-2.0-1.27"	"s5lh8e"	"600"	"1366"	"chrome"	"109.0.0"	"FALSE"	"Windows 10"	"60.71"	"137"	n/a	n/a	n/a	n/a	n/a	n/a	"Trial"	n/a	n/a	n/a	"745"	"arrowright"	n/a	"NULL"	"NULL"	"NULL"	"stimuli/VerticalHorizontal_-28.75714_-0.1096.png"	n/a	"VerticalHorizontal"	"arrowright"	"1082"	"TRUE"	"VerticalHorizontal"	"-28.75714000"	"-0.109600000"	"1"	"46"
n/a	"html-keyboard-response"	"109"	"256644"	"0.0-5.0-2.0-0.28"	"s5lh8e"	"600"	"1366"	"chrome"	"109.0.0"	"FALSE"	"Windows 10"	"60.71"	"137"	n/a	n/a	n/a	n/a	n/a	n/a	"fixation"	n/a	n/a	n/a	n/a	"NULL"	n/a	"NULL"	"NULL"	"NULL"	"<p style=\"color: black; font-size: 80px; padding-left: 36%; padding-right: 0%; padding-top: 48%; padding-bottom: 18%\">+</p>"	"1488"	n/a	n/a	n/a	n/a	n/a	n/a	n/a	n/a	n/a
n/a	"image-keyboard-response"	"110"	"257295"	"0.0-5.0-2.0-1.28"	"s5lh8e"	"600"	"1366"	"chrome"	"109.0.0"	"FALSE"	"Windows 10"	"60.71"	"137"	n/a	n/a	n/a	n/a	n/a	n/a	"Trial"	n/a	n/a	n/a	"650"	"arrowright"	n/a	"NULL"	"NULL"	"NULL"	"stimuli/VerticalHorizontal_3.30000_-0.2250.png"	n/a	"VerticalHorizontal"	"arrowright"	"1503"	"TRUE"	"VerticalHorizontal"	"3.3000000000"	"-0.225000000"	"1"	"47"
n/a	"html-keyboard-response"	"111"	"258716"	"0.0-5.0-2.0-0.29"	"s5lh8e"	"600"	"1366"	"chrome"	"109.0.0"	"FALSE"	"Windows 10"	"60.71"	"137"	n/a	n/a	n/a	n/a	n/a	n/a	"fixation"	n/a	n/a	n/a	n/a	"NULL"	n/a	"NULL"	"NULL"	"NULL"	"<p style=\"color: black; font-size: 80px; padding-left: 27%; padding-right: 24%; padding-top: 45%; padding-bottom: 23%\">+</p>"	"1414"	n/a	n/a	n/a	n/a	n/a	n/a	n/a	n/a	n/a
n/a	"image-keyboard-response"	"112"	"259560"	"0.0-5.0-2.0-1.29"	"s5lh8e"	"600"	"1366"	"chrome"	"109.0.0"	"FALSE"	"Windows 10"	"60.71"	"137"	n/a	n/a	n/a	n/a	n/a	n/a	"Trial"	n/a	n/a	n/a	"843"	"arrowright"	n/a	"NULL"	"NULL"	"NULL"	"stimuli/VerticalHorizontal_-3.3000_-0.0673.png"	n/a	"VerticalHorizontal"	"arrowright"	"1421"	"TRUE"	"VerticalHorizontal"	"-3.300000000"	"-0.067300000"	"1"	"48"
n/a	"html-keyboard-response"	"113"	"260721"	"0.0-5.0-2.0-0.30"	"s5lh8e"	"600"	"1366"	"chrome"	"109.0.0"	"FALSE"	"Windows 10"	"60.71"	"137"	n/a	n/a	n/a	n/a	n/a	n/a	"fixation"	n/a	n/a	n/a	n/a	"NULL"	n/a	"NULL"	"NULL"	"NULL"	"<p style=\"color: black; font-size: 80px; padding-left: 47%; padding-right: 5%; padding-top: 39%; padding-bottom: 4%\">+</p>"	"1147"	n/a	n/a	n/a	n/a	n/a	n/a	n/a	n/a	n/a
n/a	"image-keyboard-response"	"114"	"261973"	"0.0-5.0-2.0-1.30"	"s5lh8e"	"600"	"1366"	"chrome"	"109.0.0"	"FALSE"	"Windows 10"	"60.71"	"137"	n/a	n/a	n/a	n/a	n/a	n/a	"Trial"	n/a	n/a	n/a	"1251"	"arrowright"	n/a	"NULL"	"NULL"	"NULL"	"stimuli/VerticalHorizontal_28.75714_-0.2250.png"	n/a	"VerticalHorizontal"	"arrowright"	"1161"	"TRUE"	"VerticalHorizontal"	"28.757140000"	"-0.225000000"	"1"	"49"
n/a	"html-keyboard-response"	"115"	"263280"	"0.0-5.0-2.0-0.31"	"s5lh8e"	"600"	"1366"	"chrome"	"109.0.0"	"FALSE"	"Windows 10"	"60.71"	"137"	n/a	n/a	n/a	n/a	n/a	n/a	"fixation"	n/a	n/a	n/a	n/a	"NULL"	n/a	"NULL"	"NULL"	"NULL"	"<p style=\"color: black; font-size: 80px; padding-left: 16%; padding-right: 22%; padding-top: 33%; padding-bottom: 27%\">+</p>"	"1287"	n/a	n/a	n/a	n/a	n/a	n/a	n/a	n/a	n/a
n/a	"image-keyboard-response"	"116"	"263941"	"0.0-5.0-2.0-1.31"	"s5lh8e"	"600"	"1366"	"chrome"	"109.0.0"	"FALSE"	"Windows 10"	"60.71"	"137"	n/a	n/a	n/a	n/a	n/a	n/a	"Trial"	n/a	n/a	n/a	"660"	"arrowright"	n/a	"NULL"	"NULL"	"NULL"	"stimuli/VerticalHorizontal_-3.3000_-0.16217.png"	n/a	"VerticalHorizontal"	"arrowright"	"1307"	"TRUE"	"VerticalHorizontal"	"-3.300000000"	"-0.162170000"	"1"	"50"
n/a	"html-keyboard-response"	"117"	"265107"	"0.0-5.0-2.0-0.32"	"s5lh8e"	"600"	"1366"	"chrome"	"109.0.0"	"FALSE"	"Windows 10"	"60.71"	"137"	n/a	n/a	n/a	n/a	n/a	n/a	"fixation"	n/a	n/a	n/a	n/a	"NULL"	n/a	"NULL"	"NULL"	"NULL"	"<p style=\"color: black; font-size: 80px; padding-left: 47%; padding-right: 23%; padding-top: 41%; padding-bottom: 12%\">+</p>"	"1151"	n/a	n/a	n/a	n/a	n/a	n/a	n/a	n/a	n/a
n/a	"image-keyboard-response"	"118"	"265755"	"0.0-5.0-2.0-1.32"	"s5lh8e"	"600"	"1366"	"chrome"	"109.0.0"	"FALSE"	"Windows 10"	"60.71"	"137"	n/a	n/a	n/a	n/a	n/a	n/a	"Trial"	n/a	n/a	n/a	"647"	"arrowleft"	n/a	"NULL"	"NULL"	"NULL"	"stimuli/VerticalHorizontal_3.30000_0.16217.png"	n/a	"VerticalHorizontal"	"arrowleft"	"1166"	"TRUE"	"VerticalHorizontal"	"3.3000000000"	"0.1621700000"	"1"	"51"
n/a	"html-keyboard-response"	"119"	"267219"	"0.0-5.0-2.0-0.33"	"s5lh8e"	"600"	"1366"	"chrome"	"109.0.0"	"FALSE"	"Windows 10"	"60.71"	"137"	n/a	n/a	n/a	n/a	n/a	n/a	"fixation"	n/a	n/a	n/a	n/a	"NULL"	n/a	"NULL"	"NULL"	"NULL"	"<p style=\"color: black; font-size: 80px; padding-left: 28%; padding-right: 23%; padding-top: 38%; padding-bottom: 30%\">+</p>"	"1457"	n/a	n/a	n/a	n/a	n/a	n/a	n/a	n/a	n/a
n/a	"image-keyboard-response"	"120"	"268176"	"0.0-5.0-2.0-1.33"	"s5lh8e"	"600"	"1366"	"chrome"	"109.0.0"	"FALSE"	"Windows 10"	"60.71"	"137"	n/a	n/a	n/a	n/a	n/a	n/a	"Trial"	n/a	n/a	n/a	"955"	"arrowleft"	n/a	"NULL"	"NULL"	"NULL"	"stimuli/VerticalHorizontal_-3.3000_0.10960.png"	n/a	"VerticalHorizontal"	"arrowleft"	"1464"	"TRUE"	"VerticalHorizontal"	"-3.300000000"	"0.1096000000"	"1"	"52"
n/a	"html-keyboard-response"	"121"	"269659"	"0.0-5.0-2.0-0.34"	"s5lh8e"	"600"	"1366"	"chrome"	"109.0.0"	"FALSE"	"Windows 10"	"60.71"	"137"	n/a	n/a	n/a	n/a	n/a	n/a	"fixation"	n/a	n/a	n/a	n/a	"NULL"	n/a	"NULL"	"NULL"	"NULL"	"<p style=\"color: black; font-size: 80px; padding-left: 28%; padding-right: 4%; padding-top: 21%; padding-bottom: 48%\">+</p>"	"1472"	n/a	n/a	n/a	n/a	n/a	n/a	n/a	n/a	n/a
n/a	"image-keyboard-response"	"122"	"270355"	"0.0-5.0-2.0-1.34"	"s5lh8e"	"600"	"1366"	"chrome"	"109.0.0"	"FALSE"	"Windows 10"	"60.71"	"137"	n/a	n/a	n/a	n/a	n/a	n/a	"Trial"	n/a	n/a	n/a	"695"	"arrowright"	n/a	"NULL"	"NULL"	"NULL"	"stimuli/VerticalHorizontal_-20.27143_-0.0673.png"	n/a	"VerticalHorizontal"	"arrowright"	"1483"	"TRUE"	"VerticalHorizontal"	"-20.27143000"	"-0.067300000"	"1"	"53"
n/a	"html-keyboard-response"	"123"	"271861"	"0.0-5.0-2.0-0.35"	"s5lh8e"	"600"	"1366"	"chrome"	"109.0.0"	"FALSE"	"Windows 10"	"60.71"	"137"	n/a	n/a	n/a	n/a	n/a	n/a	"fixation"	n/a	n/a	n/a	n/a	"NULL"	n/a	"NULL"	"NULL"	"NULL"	"<p style=\"color: black; font-size: 80px; padding-left: 47%; padding-right: 7%; padding-top: 12%; padding-bottom: 25%\">+</p>"	"1489"	n/a	n/a	n/a	n/a	n/a	n/a	n/a	n/a	n/a
n/a	"image-keyboard-response"	"124"	"272429"	"0.0-5.0-2.0-1.35"	"s5lh8e"	"600"	"1366"	"chrome"	"109.0.0"	"FALSE"	"Windows 10"	"60.71"	"137"	n/a	n/a	n/a	n/a	n/a	n/a	"Trial"	n/a	n/a	n/a	"567"	"arrowright"	n/a	"NULL"	"NULL"	"NULL"	"stimuli/VerticalHorizontal_-11.78571_-0.2250.png"	n/a	"VerticalHorizontal"	"arrowright"	"1506"	"TRUE"	"VerticalHorizontal"	"-11.78571000"	"-0.225000000"	"1"	"54"
n/a	"html-keyboard-response"	"125"	"273647"	"0.0-5.0-2.0-0.36"	"s5lh8e"	"600"	"1366"	"chrome"	"109.0.0"	"FALSE"	"Windows 10"	"60.71"	"137"	n/a	n/a	n/a	n/a	n/a	n/a	"fixation"	n/a	n/a	n/a	n/a	"NULL"	n/a	"NULL"	"NULL"	"NULL"	"<p style=\"color: black; font-size: 80px; padding-left: 31%; padding-right: 50%; padding-top: 49%; padding-bottom: 9%\">+</p>"	"1203"	n/a	n/a	n/a	n/a	n/a	n/a	n/a	n/a	n/a
n/a	"image-keyboard-response"	"126"	"274271"	"0.0-5.0-2.0-1.36"	"s5lh8e"	"600"	"1366"	"chrome"	"109.0.0"	"FALSE"	"Windows 10"	"60.71"	"137"	n/a	n/a	n/a	n/a	n/a	n/a	"Trial"	n/a	n/a	n/a	"623"	"arrowleft"	n/a	"NULL"	"NULL"	"NULL"	"stimuli/VerticalHorizontal_-11.78571_0.22500.png"	n/a	"VerticalHorizontal"	"arrowleft"	"1218"	"TRUE"	"VerticalHorizontal"	"-11.78571000"	"0.2250000000"	"1"	"55"
n/a	"html-keyboard-response"	"127"	"275410"	"0.0-5.0-2.0-0.37"	"s5lh8e"	"600"	"1366"	"chrome"	"109.0.0"	"FALSE"	"Windows 10"	"60.71"	"137"	n/a	n/a	n/a	n/a	n/a	n/a	"fixation"	n/a	n/a	n/a	n/a	"NULL"	n/a	"NULL"	"NULL"	"NULL"	"<p style=\"color: black; font-size: 80px; padding-left: 9%; padding-right: 15%; padding-top: 8%; padding-bottom: 44%\">+</p>"	"1132"	n/a	n/a	n/a	n/a	n/a	n/a	n/a	n/a	n/a
n/a	"image-keyboard-response"	"128"	"275945"	"0.0-5.0-2.0-1.37"	"s5lh8e"	"600"	"1366"	"chrome"	"109.0.0"	"FALSE"	"Windows 10"	"60.71"	"137"	n/a	n/a	n/a	n/a	n/a	n/a	"Trial"	n/a	n/a	n/a	"534"	"arrowright"	n/a	"NULL"	"NULL"	"NULL"	"stimuli/VerticalHorizontal_-3.3000_-0.2250.png"	n/a	"VerticalHorizontal"	"arrowright"	"1139"	"TRUE"	"VerticalHorizontal"	"-3.300000000"	"-0.225000000"	"1"	"56"
n/a	"html-keyboard-response"	"129"	"277364"	"0.0-5.0-2.0-0.38"	"s5lh8e"	"600"	"1366"	"chrome"	"109.0.0"	"FALSE"	"Windows 10"	"60.71"	"137"	n/a	n/a	n/a	n/a	n/a	n/a	"fixation"	n/a	n/a	n/a	n/a	"NULL"	n/a	"NULL"	"NULL"	"NULL"	"<p style=\"color: black; font-size: 80px; padding-left: 39%; padding-right: 9%; padding-top: 32%; padding-bottom: 15%\">+</p>"	"1404"	n/a	n/a	n/a	n/a	n/a	n/a	n/a	n/a	n/a
n/a	"image-keyboard-response"	"130"	"277948"	"0.0-5.0-2.0-1.38"	"s5lh8e"	"600"	"1366"	"chrome"	"109.0.0"	"FALSE"	"Windows 10"	"60.71"	"137"	n/a	n/a	n/a	n/a	n/a	n/a	"Trial"	n/a	n/a	n/a	"583"	"arrowleft"	n/a	"NULL"	"NULL"	"NULL"	"stimuli/VerticalHorizontal_-28.75714_0.22500.png"	n/a	"VerticalHorizontal"	"arrowleft"	"1419"	"TRUE"	"VerticalHorizontal"	"-28.75714000"	"0.2250000000"	"1"	"57"
n/a	"html-keyboard-response"	"131"	"279312"	"0.0-5.0-2.0-0.39"	"s5lh8e"	"600"	"1366"	"chrome"	"109.0.0"	"FALSE"	"Windows 10"	"60.71"	"137"	n/a	n/a	n/a	n/a	n/a	n/a	"fixation"	n/a	n/a	n/a	n/a	"NULL"	n/a	"NULL"	"NULL"	"NULL"	"<p style=\"color: black; font-size: 80px; padding-left: 5%; padding-right: 13%; padding-top: 23%; padding-bottom: 14%\">+</p>"	"1354"	n/a	n/a	n/a	n/a	n/a	n/a	n/a	n/a	n/a
n/a	"image-keyboard-response"	"132"	"280109"	"0.0-5.0-2.0-1.39"	"s5lh8e"	"600"	"1366"	"chrome"	"109.0.0"	"FALSE"	"Windows 10"	"60.71"	"137"	n/a	n/a	n/a	n/a	n/a	n/a	"Trial"	n/a	n/a	n/a	"797"	"arrowright"	n/a	"NULL"	"NULL"	"NULL"	"stimuli/VerticalHorizontal_20.27143_0.06730.png"	n/a	"VerticalHorizontal"	"arrowleft"	"1364"	"FALSE"	"VerticalHorizontal"	"20.271430000"	"0.0673000000"	"1"	"58"
n/a	"html-keyboard-response"	"133"	"281178"	"0.0-5.0-2.0-0.40"	"s5lh8e"	"600"	"1366"	"chrome"	"109.0.0"	"FALSE"	"Windows 10"	"60.71"	"137"	n/a	n/a	n/a	n/a	n/a	n/a	"fixation"	n/a	n/a	n/a	n/a	"NULL"	n/a	"NULL"	"NULL"	"NULL"	"<p style=\"color: black; font-size: 80px; padding-left: 25%; padding-right: 13%; padding-top: 4%; padding-bottom: 28%\">+</p>"	"1051"	n/a	n/a	n/a	n/a	n/a	n/a	n/a	n/a	n/a
n/a	"image-keyboard-response"	"134"	"282283"	"0.0-5.0-2.0-1.40"	"s5lh8e"	"600"	"1366"	"chrome"	"109.0.0"	"FALSE"	"Windows 10"	"60.71"	"137"	n/a	n/a	n/a	n/a	n/a	n/a	"Trial"	n/a	n/a	n/a	"1104"	"arrowright"	n/a	"NULL"	"NULL"	"NULL"	"stimuli/VerticalHorizontal_28.75714_-0.0673.png"	n/a	"VerticalHorizontal"	"arrowright"	"1069"	"TRUE"	"VerticalHorizontal"	"28.757140000"	"-0.067300000"	"1"	"59"
n/a	"html-keyboard-response"	"135"	"283735"	"0.0-5.0-2.0-0.41"	"s5lh8e"	"600"	"1366"	"chrome"	"109.0.0"	"FALSE"	"Windows 10"	"60.71"	"137"	n/a	n/a	n/a	n/a	n/a	n/a	"fixation"	n/a	n/a	n/a	n/a	"NULL"	n/a	"NULL"	"NULL"	"NULL"	"<p style=\"color: black; font-size: 80px; padding-left: 22%; padding-right: 1%; padding-top: 27%; padding-bottom: 32%\">+</p>"	"1437"	n/a	n/a	n/a	n/a	n/a	n/a	n/a	n/a	n/a
n/a	"image-keyboard-response"	"136"	"284342"	"0.0-5.0-2.0-1.41"	"s5lh8e"	"600"	"1366"	"chrome"	"109.0.0"	"FALSE"	"Windows 10"	"60.71"	"137"	n/a	n/a	n/a	n/a	n/a	n/a	"Trial"	n/a	n/a	n/a	"606"	"arrowright"	n/a	"NULL"	"NULL"	"NULL"	"stimuli/VerticalHorizontal_-11.78571_-0.1096.png"	n/a	"VerticalHorizontal"	"arrowright"	"1452"	"TRUE"	"VerticalHorizontal"	"-11.78571000"	"-0.109600000"	"1"	"60"
n/a	"html-keyboard-response"	"137"	"285368"	"0.0-5.0-2.0-0.42"	"s5lh8e"	"600"	"1366"	"chrome"	"109.0.0"	"FALSE"	"Windows 10"	"60.71"	"137"	n/a	n/a	n/a	n/a	n/a	n/a	"fixation"	n/a	n/a	n/a	n/a	"NULL"	n/a	"NULL"	"NULL"	"NULL"	"<p style=\"color: black; font-size: 80px; padding-left: 21%; padding-right: 22%; padding-top: 14%; padding-bottom: 43%\">+</p>"	"1012"	n/a	n/a	n/a	n/a	n/a	n/a	n/a	n/a	n/a
n/a	"image-keyboard-response"	"138"	"286023"	"0.0-5.0-2.0-1.42"	"s5lh8e"	"600"	"1366"	"chrome"	"109.0.0"	"FALSE"	"Windows 10"	"60.71"	"137"	n/a	n/a	n/a	n/a	n/a	n/a	"Trial"	n/a	n/a	n/a	"654"	"arrowright"	n/a	"NULL"	"NULL"	"NULL"	"stimuli/VerticalHorizontal_11.78571_-0.16217.png"	n/a	"VerticalHorizontal"	"arrowright"	"1026"	"TRUE"	"VerticalHorizontal"	"11.785710000"	"-0.162170000"	"1"	"61"
n/a	"html-keyboard-response"	"139"	"287099"	"0.0-5.0-2.0-0.43"	"s5lh8e"	"600"	"1366"	"chrome"	"109.0.0"	"FALSE"	"Windows 10"	"60.71"	"137"	n/a	n/a	n/a	n/a	n/a	n/a	"fixation"	n/a	n/a	n/a	n/a	"NULL"	n/a	"NULL"	"NULL"	"NULL"	"<p style=\"color: black; font-size: 80px; padding-left: 7%; padding-right: 18%; padding-top: 22%; padding-bottom: 19%\">+</p>"	"1063"	n/a	n/a	n/a	n/a	n/a	n/a	n/a	n/a	n/a
n/a	"image-keyboard-response"	"140"	"287736"	"0.0-5.0-2.0-1.43"	"s5lh8e"	"600"	"1366"	"chrome"	"109.0.0"	"FALSE"	"Windows 10"	"60.71"	"137"	n/a	n/a	n/a	n/a	n/a	n/a	"Trial"	n/a	n/a	n/a	"636"	"arrowleft"	n/a	"NULL"	"NULL"	"NULL"	"stimuli/VerticalHorizontal_-20.27143_0.22500.png"	n/a	"VerticalHorizontal"	"arrowleft"	"1076"	"TRUE"	"VerticalHorizontal"	"-20.27143000"	"0.2250000000"	"1"	"62"
n/a	"html-keyboard-response"	"141"	"288786"	"0.0-5.0-2.0-0.44"	"s5lh8e"	"600"	"1366"	"chrome"	"109.0.0"	"FALSE"	"Windows 10"	"60.71"	"137"	n/a	n/a	n/a	n/a	n/a	n/a	"fixation"	n/a	n/a	n/a	n/a	"NULL"	n/a	"NULL"	"NULL"	"NULL"	"<p style=\"color: black; font-size: 80px; padding-left: 35%; padding-right: 6%; padding-top: 22%; padding-bottom: 3%\">+</p>"	"1036"	n/a	n/a	n/a	n/a	n/a	n/a	n/a	n/a	n/a
n/a	"image-keyboard-response"	"142"	"289794"	"0.0-5.0-2.0-1.44"	"s5lh8e"	"600"	"1366"	"chrome"	"109.0.0"	"FALSE"	"Windows 10"	"60.71"	"137"	n/a	n/a	n/a	n/a	n/a	n/a	"Trial"	n/a	n/a	n/a	"1006"	"arrowright"	n/a	"NULL"	"NULL"	"NULL"	"stimuli/VerticalHorizontal_11.78571_0.16217.png"	n/a	"VerticalHorizontal"	"arrowleft"	"1050"	"FALSE"	"VerticalHorizontal"	"11.785710000"	"0.1621700000"	"1"	"63"
n/a	"html-keyboard-response"	"143"	"291285"	"0.0-5.0-2.0-0.45"	"s5lh8e"	"600"	"1366"	"chrome"	"109.0.0"	"FALSE"	"Windows 10"	"60.71"	"137"	n/a	n/a	n/a	n/a	n/a	n/a	"fixation"	n/a	n/a	n/a	n/a	"NULL"	n/a	"NULL"	"NULL"	"NULL"	"<p style=\"color: black; font-size: 80px; padding-left: 18%; padding-right: 17%; padding-top: 4%; padding-bottom: 38%\">+</p>"	"1472"	n/a	n/a	n/a	n/a	n/a	n/a	n/a	n/a	n/a
n/a	"image-keyboard-response"	"144"	"292074"	"0.0-5.0-2.0-1.45"	"s5lh8e"	"600"	"1366"	"chrome"	"109.0.0"	"FALSE"	"Windows 10"	"60.71"	"137"	n/a	n/a	n/a	n/a	n/a	n/a	"Trial"	n/a	n/a	n/a	"789"	"arrowright"	n/a	"NULL"	"NULL"	"NULL"	"stimuli/VerticalHorizontal_11.78571_-0.1096.png"	n/a	"VerticalHorizontal"	"arrowright"	"1491"	"TRUE"	"VerticalHorizontal"	"11.785710000"	"-0.109600000"	"1"	"64"
n/a	"html-keyboard-response"	"145"	"293565"	"0.0-5.0-2.0-0.46"	"s5lh8e"	"600"	"1366"	"chrome"	"109.0.0"	"FALSE"	"Windows 10"	"60.71"	"137"	n/a	n/a	n/a	n/a	n/a	n/a	"fixation"	n/a	n/a	n/a	n/a	"NULL"	n/a	"NULL"	"NULL"	"NULL"	"<p style=\"color: black; font-size: 80px; padding-left: 45%; padding-right: 24%; padding-top: 46%; padding-bottom: 11%\">+</p>"	"1481"	n/a	n/a	n/a	n/a	n/a	n/a	n/a	n/a	n/a
n/a	"image-keyboard-response"	"146"	"294146"	"0.0-5.0-2.0-1.46"	"s5lh8e"	"600"	"1366"	"chrome"	"109.0.0"	"FALSE"	"Windows 10"	"60.71"	"137"	n/a	n/a	n/a	n/a	n/a	n/a	"Trial"	n/a	n/a	n/a	"579"	"arrowright"	n/a	"NULL"	"NULL"	"NULL"	"stimuli/VerticalHorizontal_11.78571_-0.2250.png"	n/a	"VerticalHorizontal"	"arrowright"	"1491"	"TRUE"	"VerticalHorizontal"	"11.785710000"	"-0.225000000"	"1"	"65"
n/a	"html-keyboard-response"	"147"	"295467"	"0.0-5.0-2.0-0.47"	"s5lh8e"	"600"	"1366"	"chrome"	"109.0.0"	"FALSE"	"Windows 10"	"60.71"	"137"	n/a	n/a	n/a	n/a	n/a	n/a	"fixation"	n/a	n/a	n/a	n/a	"NULL"	n/a	"NULL"	"NULL"	"NULL"	"<p style=\"color: black; font-size: 80px; padding-left: 17%; padding-right: 42%; padding-top: 18%; padding-bottom: 36%\">+</p>"	"1305"	n/a	n/a	n/a	n/a	n/a	n/a	n/a	n/a	n/a
n/a	"image-keyboard-response"	"148"	"296328"	"0.0-5.0-2.0-1.47"	"s5lh8e"	"600"	"1366"	"chrome"	"109.0.0"	"FALSE"	"Windows 10"	"60.71"	"137"	n/a	n/a	n/a	n/a	n/a	n/a	"Trial"	n/a	n/a	n/a	"860"	"arrowleft"	n/a	"NULL"	"NULL"	"NULL"	"stimuli/VerticalHorizontal_-20.27143_0.10960.png"	n/a	"VerticalHorizontal"	"arrowleft"	"1321"	"TRUE"	"VerticalHorizontal"	"-20.27143000"	"0.1096000000"	"1"	"66"
n/a	"html-keyboard-response"	"149"	"297419"	"0.0-5.0-2.0-0.48"	"s5lh8e"	"600"	"1366"	"chrome"	"109.0.0"	"FALSE"	"Windows 10"	"60.71"	"137"	n/a	n/a	n/a	n/a	n/a	n/a	"fixation"	n/a	n/a	n/a	n/a	"NULL"	n/a	"NULL"	"NULL"	"NULL"	"<p style=\"color: black; font-size: 80px; padding-left: 18%; padding-right: 36%; padding-top: 31%; padding-bottom: 2%\">+</p>"	"1081"	n/a	n/a	n/a	n/a	n/a	n/a	n/a	n/a	n/a
n/a	"image-keyboard-response"	"150"	"298108"	"0.0-5.0-2.0-1.48"	"s5lh8e"	"600"	"1366"	"chrome"	"109.0.0"	"FALSE"	"Windows 10"	"60.71"	"137"	n/a	n/a	n/a	n/a	n/a	n/a	"Trial"	n/a	n/a	n/a	"688"	"arrowright"	n/a	"NULL"	"NULL"	"NULL"	"stimuli/VerticalHorizontal_11.78571_-0.0673.png"	n/a	"VerticalHorizontal"	"arrowright"	"1091"	"TRUE"	"VerticalHorizontal"	"11.785710000"	"-0.067300000"	"1"	"67"
n/a	"html-keyboard-response"	"151"	"299161"	"0.0-5.0-2.0-0.49"	"s5lh8e"	"600"	"1366"	"chrome"	"109.0.0"	"FALSE"	"Windows 10"	"60.71"	"137"	n/a	n/a	n/a	n/a	n/a	n/a	"fixation"	n/a	n/a	n/a	n/a	"NULL"	n/a	"NULL"	"NULL"	"NULL"	"<p style=\"color: black; font-size: 80px; padding-left: 28%; padding-right: 35%; padding-top: 46%; padding-bottom: 6%\">+</p>"	"1039"	n/a	n/a	n/a	n/a	n/a	n/a	n/a	n/a	n/a
n/a	"image-keyboard-response"	"152"	"299870"	"0.0-5.0-2.0-1.49"	"s5lh8e"	"600"	"1366"	"chrome"	"109.0.0"	"FALSE"	"Windows 10"	"60.71"	"137"	n/a	n/a	n/a	n/a	n/a	n/a	"Trial"	n/a	n/a	n/a	"708"	"arrowright"	n/a	"NULL"	"NULL"	"NULL"	"stimuli/VerticalHorizontal_-20.27143_-0.1096.png"	n/a	"VerticalHorizontal"	"arrowright"	"1053"	"TRUE"	"VerticalHorizontal"	"-20.27143000"	"-0.109600000"	"1"	"68"
n/a	"html-keyboard-response"	"153"	"300959"	"0.0-5.0-2.0-0.50"	"s5lh8e"	"600"	"1366"	"chrome"	"109.0.0"	"FALSE"	"Windows 10"	"60.71"	"137"	n/a	n/a	n/a	n/a	n/a	n/a	"fixation"	n/a	n/a	n/a	n/a	"NULL"	n/a	"NULL"	"NULL"	"NULL"	"<p style=\"color: black; font-size: 80px; padding-left: 38%; padding-right: 37%; padding-top: 42%; padding-bottom: 9%\">+</p>"	"1071"	n/a	n/a	n/a	n/a	n/a	n/a	n/a	n/a	n/a
n/a	"image-keyboard-response"	"154"	"301650"	"0.0-5.0-2.0-1.50"	"s5lh8e"	"600"	"1366"	"chrome"	"109.0.0"	"FALSE"	"Windows 10"	"60.71"	"137"	n/a	n/a	n/a	n/a	n/a	n/a	"Trial"	n/a	n/a	n/a	"688"	"arrowleft"	n/a	"NULL"	"NULL"	"NULL"	"stimuli/VerticalHorizontal_20.27143_0.16217.png"	n/a	"VerticalHorizontal"	"arrowleft"	"1089"	"TRUE"	"VerticalHorizontal"	"20.271430000"	"0.1621700000"	"1"	"69"
n/a	"html-keyboard-response"	"155"	"302905"	"0.0-5.0-2.0-0.51"	"s5lh8e"	"600"	"1366"	"chrome"	"109.0.0"	"FALSE"	"Windows 10"	"60.71"	"137"	n/a	n/a	n/a	n/a	n/a	n/a	"fixation"	n/a	n/a	n/a	n/a	"NULL"	n/a	"NULL"	"NULL"	"NULL"	"<p style=\"color: black; font-size: 80px; padding-left: 38%; padding-right: 27%; padding-top: 2%; padding-bottom: 28%\">+</p>"	"1240"	n/a	n/a	n/a	n/a	n/a	n/a	n/a	n/a	n/a
n/a	"image-keyboard-response"	"156"	"303369"	"0.0-5.0-2.0-1.51"	"s5lh8e"	"600"	"1366"	"chrome"	"109.0.0"	"FALSE"	"Windows 10"	"60.71"	"137"	n/a	n/a	n/a	n/a	n/a	n/a	"Trial"	n/a	n/a	n/a	"462"	"arrowright"	n/a	"NULL"	"NULL"	"NULL"	"stimuli/VerticalHorizontal_-28.75714_-0.0673.png"	n/a	"VerticalHorizontal"	"arrowright"	"1255"	"TRUE"	"VerticalHorizontal"	"-28.75714000"	"-0.067300000"	"1"	"70"
n/a	"html-keyboard-response"	"157"	"304628"	"0.0-5.0-2.0-0.52"	"s5lh8e"	"600"	"1366"	"chrome"	"109.0.0"	"FALSE"	"Windows 10"	"60.71"	"137"	n/a	n/a	n/a	n/a	n/a	n/a	"fixation"	n/a	n/a	n/a	n/a	"NULL"	n/a	"NULL"	"NULL"	"NULL"	"<p style=\"color: black; font-size: 80px; padding-left: 16%; padding-right: 10%; padding-top: 25%; padding-bottom: 39%\">+</p>"	"1244"	n/a	n/a	n/a	n/a	n/a	n/a	n/a	n/a	n/a
n/a	"image-keyboard-response"	"158"	"305219"	"0.0-5.0-2.0-1.52"	"s5lh8e"	"600"	"1366"	"chrome"	"109.0.0"	"FALSE"	"Windows 10"	"60.71"	"137"	n/a	n/a	n/a	n/a	n/a	n/a	"Trial"	n/a	n/a	n/a	"591"	"arrowleft"	n/a	"NULL"	"NULL"	"NULL"	"stimuli/VerticalHorizontal_-20.27143_0.16217.png"	n/a	"VerticalHorizontal"	"arrowleft"	"1259"	"TRUE"	"VerticalHorizontal"	"-20.27143000"	"0.1621700000"	"1"	"71"
n/a	"html-keyboard-response"	"159"	"306301"	"0.0-5.0-2.0-0.53"	"s5lh8e"	"600"	"1366"	"chrome"	"109.0.0"	"FALSE"	"Windows 10"	"60.71"	"137"	n/a	n/a	n/a	n/a	n/a	n/a	"fixation"	n/a	n/a	n/a	n/a	"NULL"	n/a	"NULL"	"NULL"	"NULL"	"<p style=\"color: black; font-size: 80px; padding-left: 42%; padding-right: 16%; padding-top: 49%; padding-bottom: 18%\">+</p>"	"1069"	n/a	n/a	n/a	n/a	n/a	n/a	n/a	n/a	n/a
n/a	"image-keyboard-response"	"160"	"307194"	"0.0-5.0-2.0-1.53"	"s5lh8e"	"600"	"1366"	"chrome"	"109.0.0"	"FALSE"	"Windows 10"	"60.71"	"137"	n/a	n/a	n/a	n/a	n/a	n/a	"Trial"	n/a	n/a	n/a	"892"	"arrowleft"	n/a	"NULL"	"NULL"	"NULL"	"stimuli/VerticalHorizontal_-3.3000_0.16217.png"	n/a	"VerticalHorizontal"	"arrowleft"	"1082"	"TRUE"	"VerticalHorizontal"	"-3.300000000"	"0.1621700000"	"1"	"72"
n/a	"html-keyboard-response"	"161"	"308567"	"0.0-5.0-2.0-0.54"	"s5lh8e"	"600"	"1366"	"chrome"	"109.0.0"	"FALSE"	"Windows 10"	"60.71"	"137"	n/a	n/a	n/a	n/a	n/a	n/a	"fixation"	n/a	n/a	n/a	n/a	"NULL"	n/a	"NULL"	"NULL"	"NULL"	"<p style=\"color: black; font-size: 80px; padding-left: 40%; padding-right: 35%; padding-top: 34%; padding-bottom: 25%\">+</p>"	"1364"	n/a	n/a	n/a	n/a	n/a	n/a	n/a	n/a	n/a
n/a	"image-keyboard-response"	"162"	"309470"	"0.0-5.0-2.0-1.54"	"s5lh8e"	"600"	"1366"	"chrome"	"109.0.0"	"FALSE"	"Windows 10"	"60.71"	"137"	n/a	n/a	n/a	n/a	n/a	n/a	"Trial"	n/a	n/a	n/a	"902"	"arrowright"	n/a	"NULL"	"NULL"	"NULL"	"stimuli/VerticalHorizontal_-11.78571_0.06730.png"	n/a	"VerticalHorizontal"	"arrowleft"	"1373"	"FALSE"	"VerticalHorizontal"	"-11.78571000"	"0.0673000000"	"1"	"73"
n/a	"html-keyboard-response"	"163"	"310596"	"0.0-5.0-2.0-0.55"	"s5lh8e"	"600"	"1366"	"chrome"	"109.0.0"	"FALSE"	"Windows 10"	"60.71"	"137"	n/a	n/a	n/a	n/a	n/a	n/a	"fixation"	n/a	n/a	n/a	n/a	"NULL"	n/a	"NULL"	"NULL"	"NULL"	"<p style=\"color: black; font-size: 80px; padding-left: 19%; padding-right: 42%; padding-top: 47%; padding-bottom: 5%\">+</p>"	"1121"	n/a	n/a	n/a	n/a	n/a	n/a	n/a	n/a	n/a
n/a	"image-keyboard-response"	"164"	"311265"	"0.0-5.0-2.0-1.55"	"s5lh8e"	"600"	"1366"	"chrome"	"109.0.0"	"FALSE"	"Windows 10"	"60.71"	"137"	n/a	n/a	n/a	n/a	n/a	n/a	"Trial"	n/a	n/a	n/a	"667"	"arrowleft"	n/a	"NULL"	"NULL"	"NULL"	"stimuli/VerticalHorizontal_-20.27143_0.06730.png"	n/a	"VerticalHorizontal"	"arrowleft"	"1126"	"TRUE"	"VerticalHorizontal"	"-20.27143000"	"0.0673000000"	"1"	"74"
n/a	"html-keyboard-response"	"165"	"312740"	"0.0-5.0-2.0-0.56"	"s5lh8e"	"600"	"1366"	"chrome"	"109.0.0"	"FALSE"	"Windows 10"	"60.71"	"137"	n/a	n/a	n/a	n/a	n/a	n/a	"fixation"	n/a	n/a	n/a	n/a	"NULL"	n/a	"NULL"	"NULL"	"NULL"	"<p style=\"color: black; font-size: 80px; padding-left: 12%; padding-right: 8%; padding-top: 10%; padding-bottom: 0%\">+</p>"	"1464"	n/a	n/a	n/a	n/a	n/a	n/a	n/a	n/a	n/a
n/a	"image-keyboard-response"	"166"	"313310"	"0.0-5.0-2.0-1.56"	"s5lh8e"	"600"	"1366"	"chrome"	"109.0.0"	"FALSE"	"Windows 10"	"60.71"	"137"	n/a	n/a	n/a	n/a	n/a	n/a	"Trial"	n/a	n/a	n/a	"568"	"arrowleft"	n/a	"NULL"	"NULL"	"NULL"	"stimuli/VerticalHorizontal_3.30000_0.22500.png"	n/a	"VerticalHorizontal"	"arrowleft"	"1475"	"TRUE"	"VerticalHorizontal"	"3.3000000000"	"0.2250000000"	"1"	"75"
n/a	"html-keyboard-response"	"167"	"314772"	"0.0-5.0-2.0-0.57"	"s5lh8e"	"600"	"1366"	"chrome"	"109.0.0"	"FALSE"	"Windows 10"	"60.71"	"137"	n/a	n/a	n/a	n/a	n/a	n/a	"fixation"	n/a	n/a	n/a	n/a	"NULL"	n/a	"NULL"	"NULL"	"NULL"	"<p style=\"color: black; font-size: 80px; padding-left: 2%; padding-right: 2%; padding-top: 22%; padding-bottom: 19%\">+</p>"	"1443"	n/a	n/a	n/a	n/a	n/a	n/a	n/a	n/a	n/a
n/a	"image-keyboard-response"	"168"	"315408"	"0.0-5.0-2.0-1.57"	"s5lh8e"	"600"	"1366"	"chrome"	"109.0.0"	"FALSE"	"Windows 10"	"60.71"	"137"	n/a	n/a	n/a	n/a	n/a	n/a	"Trial"	n/a	n/a	n/a	"635"	"arrowleft"	n/a	"NULL"	"NULL"	"NULL"	"stimuli/VerticalHorizontal_-3.3000_0.22500.png"	n/a	"VerticalHorizontal"	"arrowleft"	"1462"	"TRUE"	"VerticalHorizontal"	"-3.300000000"	"0.2250000000"	"1"	"76"
n/a	"html-keyboard-response"	"169"	"316764"	"0.0-5.0-2.0-0.58"	"s5lh8e"	"600"	"1366"	"chrome"	"109.0.0"	"FALSE"	"Windows 10"	"60.71"	"137"	n/a	n/a	n/a	n/a	n/a	n/a	"fixation"	n/a	n/a	n/a	n/a	"NULL"	n/a	"NULL"	"NULL"	"NULL"	"<p style=\"color: black; font-size: 80px; padding-left: 1%; padding-right: 39%; padding-top: 50%; padding-bottom: 42%\">+</p>"	"1338"	n/a	n/a	n/a	n/a	n/a	n/a	n/a	n/a	n/a
n/a	"image-keyboard-response"	"170"	"317452"	"0.0-5.0-2.0-1.58"	"s5lh8e"	"600"	"1366"	"chrome"	"109.0.0"	"FALSE"	"Windows 10"	"60.71"	"137"	n/a	n/a	n/a	n/a	n/a	n/a	"Trial"	n/a	n/a	n/a	"687"	"arrowright"	n/a	"NULL"	"NULL"	"NULL"	"stimuli/VerticalHorizontal_-3.3000_-0.1096.png"	n/a	"VerticalHorizontal"	"arrowright"	"1356"	"TRUE"	"VerticalHorizontal"	"-3.300000000"	"-0.109600000"	"1"	"77"
n/a	"html-keyboard-response"	"171"	"318923"	"0.0-5.0-2.0-0.59"	"s5lh8e"	"600"	"1366"	"chrome"	"109.0.0"	"FALSE"	"Windows 10"	"60.71"	"137"	n/a	n/a	n/a	n/a	n/a	n/a	"fixation"	n/a	n/a	n/a	n/a	"NULL"	n/a	"NULL"	"NULL"	"NULL"	"<p style=\"color: black; font-size: 80px; padding-left: 5%; padding-right: 14%; padding-top: 45%; padding-bottom: 26%\">+</p>"	"1464"	n/a	n/a	n/a	n/a	n/a	n/a	n/a	n/a	n/a
n/a	"image-keyboard-response"	"172"	"319815"	"0.0-5.0-2.0-1.59"	"s5lh8e"	"600"	"1366"	"chrome"	"109.0.0"	"FALSE"	"Windows 10"	"60.71"	"137"	n/a	n/a	n/a	n/a	n/a	n/a	"Trial"	n/a	n/a	n/a	"891"	"arrowright"	n/a	"NULL"	"NULL"	"NULL"	"stimuli/VerticalHorizontal_20.27143_-0.0673.png"	n/a	"VerticalHorizontal"	"arrowright"	"1471"	"TRUE"	"VerticalHorizontal"	"20.271430000"	"-0.067300000"	"1"	"78"
n/a	"html-keyboard-response"	"173"	"320864"	"0.0-5.0-2.0-0.60"	"s5lh8e"	"600"	"1366"	"chrome"	"109.0.0"	"FALSE"	"Windows 10"	"60.71"	"137"	n/a	n/a	n/a	n/a	n/a	n/a	"fixation"	n/a	n/a	n/a	n/a	"NULL"	n/a	"NULL"	"NULL"	"NULL"	"<p style=\"color: black; font-size: 80px; padding-left: 38%; padding-right: 48%; padding-top: 36%; padding-bottom: 12%\">+</p>"	"1039"	n/a	n/a	n/a	n/a	n/a	n/a	n/a	n/a	n/a
n/a	"image-keyboard-response"	"174"	"321411"	"0.0-5.0-2.0-1.60"	"s5lh8e"	"600"	"1366"	"chrome"	"109.0.0"	"FALSE"	"Windows 10"	"60.71"	"137"	n/a	n/a	n/a	n/a	n/a	n/a	"Trial"	n/a	n/a	n/a	"547"	"arrowleft"	n/a	"NULL"	"NULL"	"NULL"	"stimuli/VerticalHorizontal_-28.75714_0.10960.png"	n/a	"VerticalHorizontal"	"arrowleft"	"1049"	"TRUE"	"VerticalHorizontal"	"-28.75714000"	"0.1096000000"	"1"	"79"
n/a	"html-keyboard-response"	"175"	"322898"	"0.0-5.0-2.0-0.61"	"s5lh8e"	"600"	"1366"	"chrome"	"109.0.0"	"FALSE"	"Windows 10"	"60.71"	"137"	n/a	n/a	n/a	n/a	n/a	n/a	"fixation"	n/a	n/a	n/a	n/a	"NULL"	n/a	"NULL"	"NULL"	"NULL"	"<p style=\"color: black; font-size: 80px; padding-left: 28%; padding-right: 15%; padding-top: 47%; padding-bottom: 33%\">+</p>"	"1473"	n/a	n/a	n/a	n/a	n/a	n/a	n/a	n/a	n/a
n/a	"image-keyboard-response"	"176"	"324057"	"0.0-5.0-2.0-1.61"	"s5lh8e"	"600"	"1366"	"chrome"	"109.0.0"	"FALSE"	"Windows 10"	"60.71"	"137"	n/a	n/a	n/a	n/a	n/a	n/a	"Trial"	n/a	n/a	n/a	"1159"	"arrowleft"	n/a	"NULL"	"NULL"	"NULL"	"stimuli/VerticalHorizontal_20.27143_0.10960.png"	n/a	"VerticalHorizontal"	"arrowleft"	"1487"	"TRUE"	"VerticalHorizontal"	"20.271430000"	"0.1096000000"	"1"	"80"
n/a	"html-keyboard-response"	"177"	"325272"	"0.0-5.0-2.0-0.62"	"s5lh8e"	"600"	"1366"	"chrome"	"109.0.0"	"FALSE"	"Windows 10"	"60.71"	"137"	n/a	n/a	n/a	n/a	n/a	n/a	"fixation"	n/a	n/a	n/a	n/a	"NULL"	n/a	"NULL"	"NULL"	"NULL"	"<p style=\"color: black; font-size: 80px; padding-left: 4%; padding-right: 19%; padding-top: 5%; padding-bottom: 4%\">+</p>"	"1206"	n/a	n/a	n/a	n/a	n/a	n/a	n/a	n/a	n/a
n/a	"image-keyboard-response"	"178"	"325832"	"0.0-5.0-2.0-1.62"	"s5lh8e"	"600"	"1366"	"chrome"	"109.0.0"	"FALSE"	"Windows 10"	"60.71"	"137"	n/a	n/a	n/a	n/a	n/a	n/a	"Trial"	n/a	n/a	n/a	"555"	"arrowright"	n/a	"NULL"	"NULL"	"NULL"	"stimuli/VerticalHorizontal_-28.75714_-0.16217.png"	n/a	"VerticalHorizontal"	"arrowright"	"1215"	"TRUE"	"VerticalHorizontal"	"-28.75714000"	"-0.162170000"	"1"	"81"
n/a	"html-keyboard-response"	"179"	"327006"	"0.0-5.0-2.0-0.63"	"s5lh8e"	"600"	"1366"	"chrome"	"109.0.0"	"FALSE"	"Windows 10"	"60.71"	"137"	n/a	n/a	n/a	n/a	n/a	n/a	"fixation"	n/a	n/a	n/a	n/a	"NULL"	n/a	"NULL"	"NULL"	"NULL"	"<p style=\"color: black; font-size: 80px; padding-left: 46%; padding-right: 47%; padding-top: 45%; padding-bottom: 7%\">+</p>"	"1160"	n/a	n/a	n/a	n/a	n/a	n/a	n/a	n/a	n/a
n/a	"image-keyboard-response"	"180"	"327995"	"0.0-5.0-2.0-1.63"	"s5lh8e"	"600"	"1366"	"chrome"	"109.0.0"	"FALSE"	"Windows 10"	"60.71"	"137"	n/a	n/a	n/a	n/a	n/a	n/a	"Trial"	n/a	n/a	n/a	"988"	"arrowright"	n/a	"NULL"	"NULL"	"NULL"	"stimuli/VerticalHorizontal_28.75714_0.10960.png"	n/a	"VerticalHorizontal"	"arrowleft"	"1174"	"FALSE"	"VerticalHorizontal"	"28.757140000"	"0.1096000000"	"1"	"82"
n/a	"html-button-response"	"181"	"380772"	"0.0-5.0-3.0"	"s5lh8e"	"600"	"1366"	"chrome"	"109.0.0"	"FALSE"	"Windows 10"	"60.71"	"137"	n/a	n/a	n/a	n/a	n/a	n/a	"block_results"	n/a	n/a	n/a	"52774"	"0"	n/a	"NULL"	"NULL"	"NULL"	"<p>Your score for this illusion is <p style=\"color: black; font-size: 48px; font-weight: bold;\">75.2 %</p><hr><p>Can you do better in the next illusion?</p>"	n/a	n/a	n/a	n/a	n/a	n/a	n/a	n/a	n/a	n/a
"TRUE"	"preload"	"182"	"380933"	"0.0-6.0-0.0"	"s5lh8e"	"600"	"1366"	"chrome"	"109.0.0"	"FALSE"	"Windows 10"	"60.71"	"137"	n/a	n/a	n/a	n/a	n/a	n/a	n/a	n/a	n/a	n/a	n/a	"NULL"	"FALSE"	"list()"	"list()"	"list()"	n/a	n/a	n/a	n/a	n/a	n/a	n/a	n/a	n/a	n/a	n/a
n/a	"html-keyboard-response"	"183"	"383366"	"0.0-6.0-1.0"	"s5lh8e"	"600"	"1366"	"chrome"	"109.0.0"	"FALSE"	"Windows 10"	"60.71"	"137"	n/a	n/a	n/a	n/a	n/a	n/a	n/a	n/a	n/a	n/a	"2432"	"enter"	n/a	"NULL"	"NULL"	"NULL"	"<p><b>Part 2/6</b></p><p>In this part, two red circles will appear side by side on the screen.</p><p>Your task is to select which <b>red circle is bigger</b> in size as fast as you can, without making errors.</p><p>Don't get distracted by the surrounding black circles around the red circles!</p><p>Press <b>the LEFT or the RIGHT arrow</b> to indicate which is the bigger <b>red circle.</b></p><div style='float: center'><img src='materials/instructions/Ebbinghaus_Demo.png' height='300'></img><p><img src='utils/answer/answer_leftright_keyboard.PNG' height='150'></img></p><p class='small'>In this example, the correct answer is the <b>LEFT arrow</b>.</p></div><p>Are you ready? <b>Press ENTER to start</b></p>"	n/a	n/a	n/a	n/a	n/a	n/a	n/a	n/a	n/a	n/a
n/a	"html-keyboard-response"	"184"	"385018"	"0.0-6.0-2.0-0.0"	"s5lh8e"	"600"	"1366"	"chrome"	"109.0.0"	"FALSE"	"Windows 10"	"60.71"	"137"	n/a	n/a	n/a	n/a	n/a	n/a	"fixation"	n/a	n/a	n/a	n/a	"NULL"	n/a	"NULL"	"NULL"	"NULL"	"<p style=\"color: black; font-size: 80px; padding-left: 5%; padding-right: 5%; padding-top: 47%; padding-bottom: 50%\">+</p>"	"1118"	n/a	n/a	n/a	n/a	n/a	n/a	n/a	n/a	n/a
n/a	"image-keyboard-response"	"185"	"387229"	"0.0-6.0-2.0-1.0"	"s5lh8e"	"600"	"1366"	"chrome"	"109.0.0"	"FALSE"	"Windows 10"	"60.71"	"137"	n/a	n/a	n/a	n/a	n/a	n/a	"Trial"	n/a	n/a	n/a	"2210"	"arrowright"	n/a	"NULL"	"NULL"	"NULL"	"stimuli/Ebbinghaus_-0.61429_-0.11071.png"	n/a	"Ebbinghaus"	"arrowright"	"1652"	"TRUE"	"Ebbinghaus"	"-0.614290000"	"-0.110710000"	"2"	"1"
n/a	"html-keyboard-response"	"186"	"388569"	"0.0-6.0-2.0-0.1"	"s5lh8e"	"600"	"1366"	"chrome"	"109.0.0"	"FALSE"	"Windows 10"	"60.71"	"137"	n/a	n/a	n/a	n/a	n/a	n/a	"fixation"	n/a	n/a	n/a	n/a	"NULL"	n/a	"NULL"	"NULL"	"NULL"	"<p style=\"color: black; font-size: 80px; padding-left: 34%; padding-right: 1%; padding-top: 25%; padding-bottom: 25%\">+</p>"	"1320"	n/a	n/a	n/a	n/a	n/a	n/a	n/a	n/a	n/a
n/a	"image-keyboard-response"	"187"	"390175"	"0.0-6.0-2.0-1.1"	"s5lh8e"	"600"	"1366"	"chrome"	"109.0.0"	"FALSE"	"Windows 10"	"60.71"	"137"	n/a	n/a	n/a	n/a	n/a	n/a	"Trial"	n/a	n/a	n/a	"1602"	"arrowleft"	n/a	"NULL"	"NULL"	"NULL"	"stimuli/Ebbinghaus_0.35714_0.11071.png"	n/a	"Ebbinghaus"	"arrowleft"	"1340"	"TRUE"	"Ebbinghaus"	"0.3571400000"	"0.1107100000"	"2"	"2"
n/a	"html-keyboard-response"	"188"	"391639"	"0.0-6.0-2.0-0.2"	"s5lh8e"	"600"	"1366"	"chrome"	"109.0.0"	"FALSE"	"Windows 10"	"60.71"	"137"	n/a	n/a	n/a	n/a	n/a	n/a	"fixation"	n/a	n/a	n/a	n/a	"NULL"	n/a	"NULL"	"NULL"	"NULL"	"<p style=\"color: black; font-size: 80px; padding-left: 4%; padding-right: 4%; padding-top: 21%; padding-bottom: 9%\">+</p>"	"1451"	n/a	n/a	n/a	n/a	n/a	n/a	n/a	n/a	n/a
n/a	"image-keyboard-response"	"189"	"392566"	"0.0-6.0-2.0-1.2"	"s5lh8e"	"600"	"1366"	"chrome"	"109.0.0"	"FALSE"	"Windows 10"	"60.71"	"137"	n/a	n/a	n/a	n/a	n/a	n/a	"Trial"	n/a	n/a	n/a	"926"	"arrowright"	n/a	"NULL"	"NULL"	"NULL"	"stimuli/Ebbinghaus_-0.35714_-0.15857.png"	n/a	"Ebbinghaus"	"arrowright"	"1464"	"TRUE"	"Ebbinghaus"	"-0.357140000"	"-0.158570000"	"2"	"3"
n/a	"html-keyboard-response"	"190"	"393891"	"0.0-6.0-2.0-0.3"	"s5lh8e"	"600"	"1366"	"chrome"	"109.0.0"	"FALSE"	"Windows 10"	"60.71"	"137"	n/a	n/a	n/a	n/a	n/a	n/a	"fixation"	n/a	n/a	n/a	n/a	"NULL"	n/a	"NULL"	"NULL"	"NULL"	"<p style=\"color: black; font-size: 80px; padding-left: 24%; padding-right: 15%; padding-top: 27%; padding-bottom: 44%\">+</p>"	"1311"	n/a	n/a	n/a	n/a	n/a	n/a	n/a	n/a	n/a
n/a	"image-keyboard-response"	"191"	"394716"	"0.0-6.0-2.0-1.3"	"s5lh8e"	"600"	"1366"	"chrome"	"109.0.0"	"FALSE"	"Windows 10"	"60.71"	"137"	n/a	n/a	n/a	n/a	n/a	n/a	"Trial"	n/a	n/a	n/a	"825"	"arrowright"	n/a	"NULL"	"NULL"	"NULL"	"stimuli/Ebbinghaus_-0.87143_-0.15857.png"	n/a	"Ebbinghaus"	"arrowright"	"1325"	"TRUE"	"Ebbinghaus"	"-0.871430000"	"-0.158570000"	"2"	"4"
n/a	"html-keyboard-response"	"192"	"395908"	"0.0-6.0-2.0-0.4"	"s5lh8e"	"600"	"1366"	"chrome"	"109.0.0"	"FALSE"	"Windows 10"	"60.71"	"137"	n/a	n/a	n/a	n/a	n/a	n/a	"fixation"	n/a	n/a	n/a	n/a	"NULL"	n/a	"NULL"	"NULL"	"NULL"	"<p style=\"color: black; font-size: 80px; padding-left: 1%; padding-right: 41%; padding-top: 24%; padding-bottom: 21%\">+</p>"	"1175"	n/a	n/a	n/a	n/a	n/a	n/a	n/a	n/a	n/a
n/a	"image-keyboard-response"	"193"	"398066"	"0.0-6.0-2.0-1.4"	"s5lh8e"	"600"	"1366"	"chrome"	"109.0.0"	"FALSE"	"Windows 10"	"60.71"	"137"	n/a	n/a	n/a	n/a	n/a	n/a	"Trial"	n/a	n/a	n/a	"2156"	"arrowright"	n/a	"NULL"	"NULL"	"NULL"	"stimuli/Ebbinghaus_0.10000_0.11071.png"	n/a	"Ebbinghaus"	"arrowleft"	"1192"	"FALSE"	"Ebbinghaus"	"0.1000000000"	"0.1107100000"	"2"	"5"
n/a	"html-keyboard-response"	"194"	"399534"	"0.0-6.0-2.0-0.5"	"s5lh8e"	"600"	"1366"	"chrome"	"109.0.0"	"FALSE"	"Windows 10"	"60.71"	"137"	n/a	n/a	n/a	n/a	n/a	n/a	"fixation"	n/a	n/a	n/a	n/a	"NULL"	n/a	"NULL"	"NULL"	"NULL"	"<p style=\"color: black; font-size: 80px; padding-left: 38%; padding-right: 33%; padding-top: 36%; padding-bottom: 20%\">+</p>"	"1451"	n/a	n/a	n/a	n/a	n/a	n/a	n/a	n/a	n/a
n/a	"image-keyboard-response"	"195"	"400194"	"0.0-6.0-2.0-1.5"	"s5lh8e"	"600"	"1366"	"chrome"	"109.0.0"	"FALSE"	"Windows 10"	"60.71"	"137"	n/a	n/a	n/a	n/a	n/a	n/a	"Trial"	n/a	n/a	n/a	"659"	"arrowleft"	n/a	"NULL"	"NULL"	"NULL"	"stimuli/Ebbinghaus_0.87143_0.21500.png"	n/a	"Ebbinghaus"	"arrowleft"	"1468"	"TRUE"	"Ebbinghaus"	"0.8714300000"	"0.2150000000"	"2"	"6"
n/a	"html-keyboard-response"	"196"	"401379"	"0.0-6.0-2.0-0.6"	"s5lh8e"	"600"	"1366"	"chrome"	"109.0.0"	"FALSE"	"Windows 10"	"60.71"	"137"	n/a	n/a	n/a	n/a	n/a	n/a	"fixation"	n/a	n/a	n/a	n/a	"NULL"	n/a	"NULL"	"NULL"	"NULL"	"<p style=\"color: black; font-size: 80px; padding-left: 31%; padding-right: 20%; padding-top: 23%; padding-bottom: 24%\">+</p>"	"1176"	n/a	n/a	n/a	n/a	n/a	n/a	n/a	n/a	n/a
n/a	"image-keyboard-response"	"197"	"402170"	"0.0-6.0-2.0-1.6"	"s5lh8e"	"600"	"1366"	"chrome"	"109.0.0"	"FALSE"	"Windows 10"	"60.71"	"137"	n/a	n/a	n/a	n/a	n/a	n/a	"Trial"	n/a	n/a	n/a	"790"	"arrowright"	n/a	"NULL"	"NULL"	"NULL"	"stimuli/Ebbinghaus_0.10000_-0.2150.png"	n/a	"Ebbinghaus"	"arrowright"	"1185"	"TRUE"	"Ebbinghaus"	"0.1000000000"	"-0.215000000"	"2"	"7"
n/a	"html-keyboard-response"	"198"	"403645"	"0.0-6.0-2.0-0.7"	"s5lh8e"	"600"	"1366"	"chrome"	"109.0.0"	"FALSE"	"Windows 10"	"60.71"	"137"	n/a	n/a	n/a	n/a	n/a	n/a	"fixation"	n/a	n/a	n/a	n/a	"NULL"	n/a	"NULL"	"NULL"	"NULL"	"<p style=\"color: black; font-size: 80px; padding-left: 39%; padding-right: 23%; padding-top: 11%; padding-bottom: 18%\">+</p>"	"1459"	n/a	n/a	n/a	n/a	n/a	n/a	n/a	n/a	n/a
n/a	"image-keyboard-response"	"199"	"404781"	"0.0-6.0-2.0-1.7"	"s5lh8e"	"600"	"1366"	"chrome"	"109.0.0"	"FALSE"	"Windows 10"	"60.71"	"137"	n/a	n/a	n/a	n/a	n/a	n/a	"Trial"	n/a	n/a	n/a	"1135"	"arrowright"	n/a	"NULL"	"NULL"	"NULL"	"stimuli/Ebbinghaus_0.61429_0.11071.png"	n/a	"Ebbinghaus"	"arrowleft"	"1475"	"FALSE"	"Ebbinghaus"	"0.6142900000"	"0.1107100000"	"2"	"8"
n/a	"html-keyboard-response"	"200"	"405897"	"0.0-6.0-2.0-0.8"	"s5lh8e"	"600"	"1366"	"chrome"	"109.0.0"	"FALSE"	"Windows 10"	"60.71"	"137"	n/a	n/a	n/a	n/a	n/a	n/a	"fixation"	n/a	n/a	n/a	n/a	"NULL"	n/a	"NULL"	"NULL"	"NULL"	"<p style=\"color: black; font-size: 80px; padding-left: 40%; padding-right: 15%; padding-top: 1%; padding-bottom: 28%\">+</p>"	"1094"	n/a	n/a	n/a	n/a	n/a	n/a	n/a	n/a	n/a
n/a	"image-keyboard-response"	"201"	"406692"	"0.0-6.0-2.0-1.8"	"s5lh8e"	"600"	"1366"	"chrome"	"109.0.0"	"FALSE"	"Windows 10"	"60.71"	"137"	n/a	n/a	n/a	n/a	n/a	n/a	"Trial"	n/a	n/a	n/a	"794"	"arrowright"	n/a	"NULL"	"NULL"	"NULL"	"stimuli/Ebbinghaus_-0.1000_-0.2800.png"	n/a	"Ebbinghaus"	"arrowright"	"1116"	"TRUE"	"Ebbinghaus"	"-0.100000000"	"-0.280000000"	"2"	"9"
n/a	"html-keyboard-response"	"202"	"407789"	"0.0-6.0-2.0-0.9"	"s5lh8e"	"600"	"1366"	"chrome"	"109.0.0"	"FALSE"	"Windows 10"	"60.71"	"137"	n/a	n/a	n/a	n/a	n/a	n/a	"fixation"	n/a	n/a	n/a	n/a	"NULL"	n/a	"NULL"	"NULL"	"NULL"	"<p style=\"color: black; font-size: 80px; padding-left: 44%; padding-right: 7%; padding-top: 31%; padding-bottom: 50%\">+</p>"	"1080"	n/a	n/a	n/a	n/a	n/a	n/a	n/a	n/a	n/a
n/a	"image-keyboard-response"	"203"	"408558"	"0.0-6.0-2.0-1.9"	"s5lh8e"	"600"	"1366"	"chrome"	"109.0.0"	"FALSE"	"Windows 10"	"60.71"	"137"	n/a	n/a	n/a	n/a	n/a	n/a	"Trial"	n/a	n/a	n/a	"769"	"arrowleft"	n/a	"NULL"	"NULL"	"NULL"	"stimuli/Ebbinghaus_-0.87143_0.15857.png"	n/a	"Ebbinghaus"	"arrowleft"	"1097"	"TRUE"	"Ebbinghaus"	"-0.871430000"	"0.1585700000"	"2"	"10"
n/a	"html-keyboard-response"	"204"	"409675"	"0.0-6.0-2.0-0.10"	"s5lh8e"	"600"	"1366"	"chrome"	"109.0.0"	"FALSE"	"Windows 10"	"60.71"	"137"	n/a	n/a	n/a	n/a	n/a	n/a	"fixation"	n/a	n/a	n/a	n/a	"NULL"	n/a	"NULL"	"NULL"	"NULL"	"<p style=\"color: black; font-size: 80px; padding-left: 33%; padding-right: 31%; padding-top: 25%; padding-bottom: 27%\">+</p>"	"1092"	n/a	n/a	n/a	n/a	n/a	n/a	n/a	n/a	n/a
n/a	"image-keyboard-response"	"205"	"410421"	"0.0-6.0-2.0-1.10"	"s5lh8e"	"600"	"1366"	"chrome"	"109.0.0"	"FALSE"	"Windows 10"	"60.71"	"137"	n/a	n/a	n/a	n/a	n/a	n/a	"Trial"	n/a	n/a	n/a	"744"	"arrowleft"	n/a	"NULL"	"NULL"	"NULL"	"stimuli/Ebbinghaus_-0.61429_0.28000.png"	n/a	"Ebbinghaus"	"arrowleft"	"1117"	"TRUE"	"Ebbinghaus"	"-0.614290000"	"0.2800000000"	"2"	"11"
n/a	"html-keyboard-response"	"206"	"411709"	"0.0-6.0-2.0-0.11"	"s5lh8e"	"600"	"1366"	"chrome"	"109.0.0"	"FALSE"	"Windows 10"	"60.71"	"137"	n/a	n/a	n/a	n/a	n/a	n/a	"fixation"	n/a	n/a	n/a	n/a	"NULL"	n/a	"NULL"	"NULL"	"NULL"	"<p style=\"color: black; font-size: 80px; padding-left: 45%; padding-right: 10%; padding-top: 36%; padding-bottom: 46%\">+</p>"	"1273"	n/a	n/a	n/a	n/a	n/a	n/a	n/a	n/a	n/a
n/a	"image-keyboard-response"	"207"	"412295"	"0.0-6.0-2.0-1.11"	"s5lh8e"	"600"	"1366"	"chrome"	"109.0.0"	"FALSE"	"Windows 10"	"60.71"	"137"	n/a	n/a	n/a	n/a	n/a	n/a	"Trial"	n/a	n/a	n/a	"584"	"arrowright"	n/a	"NULL"	"NULL"	"NULL"	"stimuli/Ebbinghaus_0.61429_-0.2800.png"	n/a	"Ebbinghaus"	"arrowright"	"1288"	"TRUE"	"Ebbinghaus"	"0.6142900000"	"-0.280000000"	"2"	"12"
n/a	"html-keyboard-response"	"208"	"413601"	"0.0-6.0-2.0-0.12"	"s5lh8e"	"600"	"1366"	"chrome"	"109.0.0"	"FALSE"	"Windows 10"	"60.71"	"137"	n/a	n/a	n/a	n/a	n/a	n/a	"fixation"	n/a	n/a	n/a	n/a	"NULL"	n/a	"NULL"	"NULL"	"NULL"	"<p style=\"color: black; font-size: 80px; padding-left: 34%; padding-right: 28%; padding-top: 28%; padding-bottom: 10%\">+</p>"	"1291"	n/a	n/a	n/a	n/a	n/a	n/a	n/a	n/a	n/a
n/a	"image-keyboard-response"	"209"	"414821"	"0.0-6.0-2.0-1.12"	"s5lh8e"	"600"	"1366"	"chrome"	"109.0.0"	"FALSE"	"Windows 10"	"60.71"	"137"	n/a	n/a	n/a	n/a	n/a	n/a	"Trial"	n/a	n/a	n/a	"1219"	"arrowright"	n/a	"NULL"	"NULL"	"NULL"	"stimuli/Ebbinghaus_-0.1000_-0.15857.png"	n/a	"Ebbinghaus"	"arrowright"	"1306"	"TRUE"	"Ebbinghaus"	"-0.100000000"	"-0.158570000"	"2"	"13"
n/a	"html-keyboard-response"	"210"	"415953"	"0.0-6.0-2.0-0.13"	"s5lh8e"	"600"	"1366"	"chrome"	"109.0.0"	"FALSE"	"Windows 10"	"60.71"	"137"	n/a	n/a	n/a	n/a	n/a	n/a	"fixation"	n/a	n/a	n/a	n/a	"NULL"	n/a	"NULL"	"NULL"	"NULL"	"<p style=\"color: black; font-size: 80px; padding-left: 31%; padding-right: 36%; padding-top: 35%; padding-bottom: 21%\">+</p>"	"1122"	n/a	n/a	n/a	n/a	n/a	n/a	n/a	n/a	n/a
n/a	"image-keyboard-response"	"211"	"417297"	"0.0-6.0-2.0-1.13"	"s5lh8e"	"600"	"1366"	"chrome"	"109.0.0"	"FALSE"	"Windows 10"	"60.71"	"137"	n/a	n/a	n/a	n/a	n/a	n/a	"Trial"	n/a	n/a	n/a	"1341"	"arrowleft"	n/a	"NULL"	"NULL"	"NULL"	"stimuli/Ebbinghaus_0.61429_-0.11071.png"	n/a	"Ebbinghaus"	"arrowright"	"1132"	"FALSE"	"Ebbinghaus"	"0.6142900000"	"-0.110710000"	"2"	"14"
n/a	"html-keyboard-response"	"212"	"418659"	"0.0-6.0-2.0-0.14"	"s5lh8e"	"600"	"1366"	"chrome"	"109.0.0"	"FALSE"	"Windows 10"	"60.71"	"137"	n/a	n/a	n/a	n/a	n/a	n/a	"fixation"	n/a	n/a	n/a	n/a	"NULL"	n/a	"NULL"	"NULL"	"NULL"	"<p style=\"color: black; font-size: 80px; padding-left: 20%; padding-right: 22%; padding-top: 34%; padding-bottom: 33%\">+</p>"	"1347"	n/a	n/a	n/a	n/a	n/a	n/a	n/a	n/a	n/a
n/a	"image-keyboard-response"	"213"	"419274"	"0.0-6.0-2.0-1.14"	"s5lh8e"	"600"	"1366"	"chrome"	"109.0.0"	"FALSE"	"Windows 10"	"60.71"	"137"	n/a	n/a	n/a	n/a	n/a	n/a	"Trial"	n/a	n/a	n/a	"613"	"arrowleft"	n/a	"NULL"	"NULL"	"NULL"	"stimuli/Ebbinghaus_-0.87143_0.11071.png"	n/a	"Ebbinghaus"	"arrowleft"	"1362"	"TRUE"	"Ebbinghaus"	"-0.871430000"	"0.1107100000"	"2"	"15"
n/a	"html-keyboard-response"	"214"	"420345"	"0.0-6.0-2.0-0.15"	"s5lh8e"	"600"	"1366"	"chrome"	"109.0.0"	"FALSE"	"Windows 10"	"60.71"	"137"	n/a	n/a	n/a	n/a	n/a	n/a	"fixation"	n/a	n/a	n/a	n/a	"NULL"	n/a	"NULL"	"NULL"	"NULL"	"<p style=\"color: black; font-size: 80px; padding-left: 18%; padding-right: 34%; padding-top: 3%; padding-bottom: 22%\">+</p>"	"1060"	n/a	n/a	n/a	n/a	n/a	n/a	n/a	n/a	n/a
n/a	"image-keyboard-response"	"215"	"420915"	"0.0-6.0-2.0-1.15"	"s5lh8e"	"600"	"1366"	"chrome"	"109.0.0"	"FALSE"	"Windows 10"	"60.71"	"137"	n/a	n/a	n/a	n/a	n/a	n/a	"Trial"	n/a	n/a	n/a	"568"	"arrowright"	n/a	"NULL"	"NULL"	"NULL"	"stimuli/Ebbinghaus_-0.35714_-0.2150.png"	n/a	"Ebbinghaus"	"arrowright"	"1071"	"TRUE"	"Ebbinghaus"	"-0.357140000"	"-0.215000000"	"2"	"16"
n/a	"html-keyboard-response"	"216"	"422201"	"0.0-6.0-2.0-0.16"	"s5lh8e"	"600"	"1366"	"chrome"	"109.0.0"	"FALSE"	"Windows 10"	"60.71"	"137"	n/a	n/a	n/a	n/a	n/a	n/a	"fixation"	n/a	n/a	n/a	n/a	"NULL"	n/a	"NULL"	"NULL"	"NULL"	"<p style=\"color: black; font-size: 80px; padding-left: 12%; padding-right: 8%; padding-top: 16%; padding-bottom: 28%\">+</p>"	"1267"	n/a	n/a	n/a	n/a	n/a	n/a	n/a	n/a	n/a
n/a	"image-keyboard-response"	"217"	"422761"	"0.0-6.0-2.0-1.16"	"s5lh8e"	"600"	"1366"	"chrome"	"109.0.0"	"FALSE"	"Windows 10"	"60.71"	"137"	n/a	n/a	n/a	n/a	n/a	n/a	"Trial"	n/a	n/a	n/a	"558"	"arrowright"	n/a	"NULL"	"NULL"	"NULL"	"stimuli/Ebbinghaus_0.35714_-0.15857.png"	n/a	"Ebbinghaus"	"arrowright"	"1286"	"TRUE"	"Ebbinghaus"	"0.3571400000"	"-0.158570000"	"2"	"17"
n/a	"html-keyboard-response"	"218"	"424169"	"0.0-6.0-2.0-0.17"	"s5lh8e"	"600"	"1366"	"chrome"	"109.0.0"	"FALSE"	"Windows 10"	"60.71"	"137"	n/a	n/a	n/a	n/a	n/a	n/a	"fixation"	n/a	n/a	n/a	n/a	"NULL"	n/a	"NULL"	"NULL"	"NULL"	"<p style=\"color: black; font-size: 80px; padding-left: 38%; padding-right: 10%; padding-top: 10%; padding-bottom: 35%\">+</p>"	"1390"	n/a	n/a	n/a	n/a	n/a	n/a	n/a	n/a	n/a
n/a	"image-keyboard-response"	"219"	"424855"	"0.0-6.0-2.0-1.17"	"s5lh8e"	"600"	"1366"	"chrome"	"109.0.0"	"FALSE"	"Windows 10"	"60.71"	"137"	n/a	n/a	n/a	n/a	n/a	n/a	"Trial"	n/a	n/a	n/a	"685"	"arrowleft"	n/a	"NULL"	"NULL"	"NULL"	"stimuli/Ebbinghaus_0.61429_0.15857.png"	n/a	"Ebbinghaus"	"arrowleft"	"1408"	"TRUE"	"Ebbinghaus"	"0.6142900000"	"0.1585700000"	"2"	"18"
n/a	"html-keyboard-response"	"220"	"425949"	"0.0-6.0-2.0-0.18"	"s5lh8e"	"600"	"1366"	"chrome"	"109.0.0"	"FALSE"	"Windows 10"	"60.71"	"137"	n/a	n/a	n/a	n/a	n/a	n/a	"fixation"	n/a	n/a	n/a	n/a	"NULL"	n/a	"NULL"	"NULL"	"NULL"	"<p style=\"color: black; font-size: 80px; padding-left: 32%; padding-right: 6%; padding-top: 28%; padding-bottom: 22%\">+</p>"	"1079"	n/a	n/a	n/a	n/a	n/a	n/a	n/a	n/a	n/a
n/a	"image-keyboard-response"	"221"	"426568"	"0.0-6.0-2.0-1.18"	"s5lh8e"	"600"	"1366"	"chrome"	"109.0.0"	"FALSE"	"Windows 10"	"60.71"	"137"	n/a	n/a	n/a	n/a	n/a	n/a	"Trial"	n/a	n/a	n/a	"617"	"arrowright"	n/a	"NULL"	"NULL"	"NULL"	"stimuli/Ebbinghaus_0.10000_-0.2800.png"	n/a	"Ebbinghaus"	"arrowright"	"1094"	"TRUE"	"Ebbinghaus"	"0.1000000000"	"-0.280000000"	"2"	"19"
n/a	"html-keyboard-response"	"222"	"427800"	"0.0-6.0-2.0-0.19"	"s5lh8e"	"600"	"1366"	"chrome"	"109.0.0"	"FALSE"	"Windows 10"	"60.71"	"137"	n/a	n/a	n/a	n/a	n/a	n/a	"fixation"	n/a	n/a	n/a	n/a	"NULL"	n/a	"NULL"	"NULL"	"NULL"	"<p style=\"color: black; font-size: 80px; padding-left: 1%; padding-right: 13%; padding-top: 31%; padding-bottom: 48%\">+</p>"	"1229"	n/a	n/a	n/a	n/a	n/a	n/a	n/a	n/a	n/a
n/a	"image-keyboard-response"	"223"	"428583"	"0.0-6.0-2.0-1.19"	"s5lh8e"	"600"	"1366"	"chrome"	"109.0.0"	"FALSE"	"Windows 10"	"60.71"	"137"	n/a	n/a	n/a	n/a	n/a	n/a	"Trial"	n/a	n/a	n/a	"782"	"arrowleft"	n/a	"NULL"	"NULL"	"NULL"	"stimuli/Ebbinghaus_-0.87143_0.21500.png"	n/a	"Ebbinghaus"	"arrowleft"	"1232"	"TRUE"	"Ebbinghaus"	"-0.871430000"	"0.2150000000"	"2"	"20"
n/a	"html-keyboard-response"	"224"	"429907"	"0.0-6.0-2.0-0.20"	"s5lh8e"	"600"	"1366"	"chrome"	"109.0.0"	"FALSE"	"Windows 10"	"60.71"	"137"	n/a	n/a	n/a	n/a	n/a	n/a	"fixation"	n/a	n/a	n/a	n/a	"NULL"	n/a	"NULL"	"NULL"	"NULL"	"<p style=\"color: black; font-size: 80px; padding-left: 6%; padding-right: 16%; padding-top: 13%; padding-bottom: 4%\">+</p>"	"1313"	n/a	n/a	n/a	n/a	n/a	n/a	n/a	n/a	n/a
n/a	"image-keyboard-response"	"225"	"431169"	"0.0-6.0-2.0-1.20"	"s5lh8e"	"600"	"1366"	"chrome"	"109.0.0"	"FALSE"	"Windows 10"	"60.71"	"137"	n/a	n/a	n/a	n/a	n/a	n/a	"Trial"	n/a	n/a	n/a	"1261"	"arrowleft"	n/a	"NULL"	"NULL"	"NULL"	"stimuli/Ebbinghaus_-0.35714_0.11071.png"	n/a	"Ebbinghaus"	"arrowleft"	"1324"	"TRUE"	"Ebbinghaus"	"-0.357140000"	"0.1107100000"	"2"	"21"
n/a	"html-keyboard-response"	"226"	"432672"	"0.0-6.0-2.0-0.21"	"s5lh8e"	"600"	"1366"	"chrome"	"109.0.0"	"FALSE"	"Windows 10"	"60.71"	"137"	n/a	n/a	n/a	n/a	n/a	n/a	"fixation"	n/a	n/a	n/a	n/a	"NULL"	n/a	"NULL"	"NULL"	"NULL"	"<p style=\"color: black; font-size: 80px; padding-left: 7%; padding-right: 30%; padding-top: 31%; padding-bottom: 26%\">+</p>"	"1484"	n/a	n/a	n/a	n/a	n/a	n/a	n/a	n/a	n/a
n/a	"image-keyboard-response"	"227"	"434174"	"0.0-6.0-2.0-1.21"	"s5lh8e"	"600"	"1366"	"chrome"	"109.0.0"	"FALSE"	"Windows 10"	"60.71"	"137"	n/a	n/a	n/a	n/a	n/a	n/a	"Trial"	n/a	n/a	n/a	"1501"	"arrowright"	n/a	"NULL"	"NULL"	"NULL"	"stimuli/Ebbinghaus_0.87143_0.15857.png"	n/a	"Ebbinghaus"	"arrowleft"	"1503"	"FALSE"	"Ebbinghaus"	"0.8714300000"	"0.1585700000"	"2"	"22"
n/a	"html-keyboard-response"	"228"	"435599"	"0.0-6.0-2.0-0.22"	"s5lh8e"	"600"	"1366"	"chrome"	"109.0.0"	"FALSE"	"Windows 10"	"60.71"	"137"	n/a	n/a	n/a	n/a	n/a	n/a	"fixation"	n/a	n/a	n/a	n/a	"NULL"	n/a	"NULL"	"NULL"	"NULL"	"<p style=\"color: black; font-size: 80px; padding-left: 39%; padding-right: 12%; padding-top: 34%; padding-bottom: 14%\">+</p>"	"1416"	n/a	n/a	n/a	n/a	n/a	n/a	n/a	n/a	n/a
n/a	"image-keyboard-response"	"229"	"436905"	"0.0-6.0-2.0-1.22"	"s5lh8e"	"600"	"1366"	"chrome"	"109.0.0"	"FALSE"	"Windows 10"	"60.71"	"137"	n/a	n/a	n/a	n/a	n/a	n/a	"Trial"	n/a	n/a	n/a	"1304"	"arrowleft"	n/a	"NULL"	"NULL"	"NULL"	"stimuli/Ebbinghaus_-0.61429_0.11071.png"	n/a	"Ebbinghaus"	"arrowleft"	"1425"	"TRUE"	"Ebbinghaus"	"-0.614290000"	"0.1107100000"	"2"	"23"
n/a	"html-keyboard-response"	"230"	"438052"	"0.0-6.0-2.0-0.23"	"s5lh8e"	"600"	"1366"	"chrome"	"109.0.0"	"FALSE"	"Windows 10"	"60.71"	"137"	n/a	n/a	n/a	n/a	n/a	n/a	"fixation"	n/a	n/a	n/a	n/a	"NULL"	n/a	"NULL"	"NULL"	"NULL"	"<p style=\"color: black; font-size: 80px; padding-left: 43%; padding-right: 3%; padding-top: 21%; padding-bottom: 37%\">+</p>"	"1141"	n/a	n/a	n/a	n/a	n/a	n/a	n/a	n/a	n/a
n/a	"image-keyboard-response"	"231"	"439347"	"0.0-6.0-2.0-1.23"	"s5lh8e"	"600"	"1366"	"chrome"	"109.0.0"	"FALSE"	"Windows 10"	"60.71"	"137"	n/a	n/a	n/a	n/a	n/a	n/a	"Trial"	n/a	n/a	n/a	"1294"	"arrowleft"	n/a	"NULL"	"NULL"	"NULL"	"stimuli/Ebbinghaus_0.10000_0.21500.png"	n/a	"Ebbinghaus"	"arrowleft"	"1147"	"TRUE"	"Ebbinghaus"	"0.1000000000"	"0.2150000000"	"2"	"24"
n/a	"html-keyboard-response"	"232"	"440550"	"0.0-6.0-2.0-0.24"	"s5lh8e"	"600"	"1366"	"chrome"	"109.0.0"	"FALSE"	"Windows 10"	"60.71"	"137"	n/a	n/a	n/a	n/a	n/a	n/a	"fixation"	n/a	n/a	n/a	n/a	"NULL"	n/a	"NULL"	"NULL"	"NULL"	"<p style=\"color: black; font-size: 80px; padding-left: 49%; padding-right: 3%; padding-top: 13%; padding-bottom: 35%\">+</p>"	"1190"	n/a	n/a	n/a	n/a	n/a	n/a	n/a	n/a	n/a
n/a	"image-keyboard-response"	"233"	"441547"	"0.0-6.0-2.0-1.24"	"s5lh8e"	"600"	"1366"	"chrome"	"109.0.0"	"FALSE"	"Windows 10"	"60.71"	"137"	n/a	n/a	n/a	n/a	n/a	n/a	"Trial"	n/a	n/a	n/a	"996"	"arrowright"	n/a	"NULL"	"NULL"	"NULL"	"stimuli/Ebbinghaus_0.87143_0.28000.png"	n/a	"Ebbinghaus"	"arrowleft"	"1203"	"FALSE"	"Ebbinghaus"	"0.8714300000"	"0.2800000000"	"2"	"25"
n/a	"html-keyboard-response"	"234"	"442768"	"0.0-6.0-2.0-0.25"	"s5lh8e"	"600"	"1366"	"chrome"	"109.0.0"	"FALSE"	"Windows 10"	"60.71"	"137"	n/a	n/a	n/a	n/a	n/a	n/a	"fixation"	n/a	n/a	n/a	n/a	"NULL"	n/a	"NULL"	"NULL"	"NULL"	"<p style=\"color: black; font-size: 80px; padding-left: 43%; padding-right: 5%; padding-top: 22%; padding-bottom: 7%\">+</p>"	"1202"	n/a	n/a	n/a	n/a	n/a	n/a	n/a	n/a	n/a
n/a	"image-keyboard-response"	"235"	"443420"	"0.0-6.0-2.0-1.25"	"s5lh8e"	"600"	"1366"	"chrome"	"109.0.0"	"FALSE"	"Windows 10"	"60.71"	"137"	n/a	n/a	n/a	n/a	n/a	n/a	"Trial"	n/a	n/a	n/a	"651"	"arrowright"	n/a	"NULL"	"NULL"	"NULL"	"stimuli/Ebbinghaus_-0.87143_-0.2800.png"	n/a	"Ebbinghaus"	"arrowright"	"1221"	"TRUE"	"Ebbinghaus"	"-0.871430000"	"-0.280000000"	"2"	"26"
n/a	"html-keyboard-response"	"236"	"444628"	"0.0-6.0-2.0-0.26"	"s5lh8e"	"600"	"1366"	"chrome"	"109.0.0"	"FALSE"	"Windows 10"	"60.71"	"137"	n/a	n/a	n/a	n/a	n/a	n/a	"fixation"	n/a	n/a	n/a	n/a	"NULL"	n/a	"NULL"	"NULL"	"NULL"	"<p style=\"color: black; font-size: 80px; padding-left: 20%; padding-right: 23%; padding-top: 42%; padding-bottom: 21%\">+</p>"	"1193"	n/a	n/a	n/a	n/a	n/a	n/a	n/a	n/a	n/a
n/a	"image-keyboard-response"	"237"	"445450"	"0.0-6.0-2.0-1.26"	"s5lh8e"	"600"	"1366"	"chrome"	"109.0.0"	"FALSE"	"Windows 10"	"60.71"	"137"	n/a	n/a	n/a	n/a	n/a	n/a	"Trial"	n/a	n/a	n/a	"820"	"arrowleft"	n/a	"NULL"	"NULL"	"NULL"	"stimuli/Ebbinghaus_-0.35714_0.15857.png"	n/a	"Ebbinghaus"	"arrowleft"	"1208"	"TRUE"	"Ebbinghaus"	"-0.357140000"	"0.1585700000"	"2"	"27"
n/a	"html-keyboard-response"	"238"	"446822"	"0.0-6.0-2.0-0.27"	"s5lh8e"	"600"	"1366"	"chrome"	"109.0.0"	"FALSE"	"Windows 10"	"60.71"	"137"	n/a	n/a	n/a	n/a	n/a	n/a	"fixation"	n/a	n/a	n/a	n/a	"NULL"	n/a	"NULL"	"NULL"	"NULL"	"<p style=\"color: black; font-size: 80px; padding-left: 35%; padding-right: 14%; padding-top: 42%; padding-bottom: 15%\">+</p>"	"1370"	n/a	n/a	n/a	n/a	n/a	n/a	n/a	n/a	n/a
n/a	"image-keyboard-response"	"239"	"447455"	"0.0-6.0-2.0-1.27"	"s5lh8e"	"600"	"1366"	"chrome"	"109.0.0"	"FALSE"	"Windows 10"	"60.71"	"137"	n/a	n/a	n/a	n/a	n/a	n/a	"Trial"	n/a	n/a	n/a	"632"	"arrowright"	n/a	"NULL"	"NULL"	"NULL"	"stimuli/Ebbinghaus_0.61429_-0.2150.png"	n/a	"Ebbinghaus"	"arrowright"	"1372"	"TRUE"	"Ebbinghaus"	"0.6142900000"	"-0.215000000"	"2"	"28"
n/a	"html-keyboard-response"	"240"	"448793"	"0.0-6.0-2.0-0.28"	"s5lh8e"	"600"	"1366"	"chrome"	"109.0.0"	"FALSE"	"Windows 10"	"60.71"	"137"	n/a	n/a	n/a	n/a	n/a	n/a	"fixation"	n/a	n/a	n/a	n/a	"NULL"	n/a	"NULL"	"NULL"	"NULL"	"<p style=\"color: black; font-size: 80px; padding-left: 31%; padding-right: 37%; padding-top: 30%; padding-bottom: 6%\">+</p>"	"1314"	n/a	n/a	n/a	n/a	n/a	n/a	n/a	n/a	n/a
n/a	"image-keyboard-response"	"241"	"449952"	"0.0-6.0-2.0-1.28"	"s5lh8e"	"600"	"1366"	"chrome"	"109.0.0"	"FALSE"	"Windows 10"	"60.71"	"137"	n/a	n/a	n/a	n/a	n/a	n/a	"Trial"	n/a	n/a	n/a	"1158"	"arrowleft"	n/a	"NULL"	"NULL"	"NULL"	"stimuli/Ebbinghaus_0.10000_0.15857.png"	n/a	"Ebbinghaus"	"arrowleft"	"1338"	"TRUE"	"Ebbinghaus"	"0.1000000000"	"0.1585700000"	"2"	"29"
n/a	"html-keyboard-response"	"242"	"451413"	"0.0-6.0-2.0-0.29"	"s5lh8e"	"600"	"1366"	"chrome"	"109.0.0"	"FALSE"	"Windows 10"	"60.71"	"137"	n/a	n/a	n/a	n/a	n/a	n/a	"fixation"	n/a	n/a	n/a	n/a	"NULL"	n/a	"NULL"	"NULL"	"NULL"	"<p style=\"color: black; font-size: 80px; padding-left: 29%; padding-right: 11%; padding-top: 18%; padding-bottom: 15%\">+</p>"	"1453"	n/a	n/a	n/a	n/a	n/a	n/a	n/a	n/a	n/a
n/a	"image-keyboard-response"	"243"	"452535"	"0.0-6.0-2.0-1.29"	"s5lh8e"	"600"	"1366"	"chrome"	"109.0.0"	"FALSE"	"Windows 10"	"60.71"	"137"	n/a	n/a	n/a	n/a	n/a	n/a	"Trial"	n/a	n/a	n/a	"1121"	"arrowleft"	n/a	"NULL"	"NULL"	"NULL"	"stimuli/Ebbinghaus_-0.1000_0.11071.png"	n/a	"Ebbinghaus"	"arrowleft"	"1461"	"TRUE"	"Ebbinghaus"	"-0.100000000"	"0.1107100000"	"2"	"30"
n/a	"html-keyboard-response"	"244"	"453646"	"0.0-6.0-2.0-0.30"	"s5lh8e"	"600"	"1366"	"chrome"	"109.0.0"	"FALSE"	"Windows 10"	"60.71"	"137"	n/a	n/a	n/a	n/a	n/a	n/a	"fixation"	n/a	n/a	n/a	n/a	"NULL"	n/a	"NULL"	"NULL"	"NULL"	"<p style=\"color: black; font-size: 80px; padding-left: 27%; padding-right: 28%; padding-top: 45%; padding-bottom: 5%\">+</p>"	"1093"	n/a	n/a	n/a	n/a	n/a	n/a	n/a	n/a	n/a
n/a	"image-keyboard-response"	"245"	"454476"	"0.0-6.0-2.0-1.30"	"s5lh8e"	"600"	"1366"	"chrome"	"109.0.0"	"FALSE"	"Windows 10"	"60.71"	"137"	n/a	n/a	n/a	n/a	n/a	n/a	"Trial"	n/a	n/a	n/a	"828"	"arrowleft"	n/a	"NULL"	"NULL"	"NULL"	"stimuli/Ebbinghaus_-0.61429_0.21500.png"	n/a	"Ebbinghaus"	"arrowleft"	"1111"	"TRUE"	"Ebbinghaus"	"-0.614290000"	"0.2150000000"	"2"	"31"
n/a	"html-keyboard-response"	"246"	"455524"	"0.0-6.0-2.0-0.31"	"s5lh8e"	"600"	"1366"	"chrome"	"109.0.0"	"FALSE"	"Windows 10"	"60.71"	"137"	n/a	n/a	n/a	n/a	n/a	n/a	"fixation"	n/a	n/a	n/a	n/a	"NULL"	n/a	"NULL"	"NULL"	"NULL"	"<p style=\"color: black; font-size: 80px; padding-left: 1%; padding-right: 48%; padding-top: 49%; padding-bottom: 6%\">+</p>"	"1044"	n/a	n/a	n/a	n/a	n/a	n/a	n/a	n/a	n/a
n/a	"image-keyboard-response"	"247"	"456490"	"0.0-6.0-2.0-1.31"	"s5lh8e"	"600"	"1366"	"chrome"	"109.0.0"	"FALSE"	"Windows 10"	"60.71"	"137"	n/a	n/a	n/a	n/a	n/a	n/a	"Trial"	n/a	n/a	n/a	"965"	"arrowleft"	n/a	"NULL"	"NULL"	"NULL"	"stimuli/Ebbinghaus_-0.61429_0.15857.png"	n/a	"Ebbinghaus"	"arrowleft"	"1048"	"TRUE"	"Ebbinghaus"	"-0.614290000"	"0.1585700000"	"2"	"32"
n/a	"html-keyboard-response"	"248"	"457954"	"0.0-6.0-2.0-0.32"	"s5lh8e"	"600"	"1366"	"chrome"	"109.0.0"	"FALSE"	"Windows 10"	"60.71"	"137"	n/a	n/a	n/a	n/a	n/a	n/a	"fixation"	n/a	n/a	n/a	n/a	"NULL"	n/a	"NULL"	"NULL"	"NULL"	"<p style=\"color: black; font-size: 80px; padding-left: 29%; padding-right: 22%; padding-top: 29%; padding-bottom: 43%\">+</p>"	"1448"	n/a	n/a	n/a	n/a	n/a	n/a	n/a	n/a	n/a
