"success"	"trial_type"	"trial_index"	"time_elapsed"	"internal_node_id"	"participant_id"	"screen_height"	"screen_width"	"browser"	"browser_version"	"mobile"	"os"	"vsync_rate"	"subject_id"	"width"	"height"	"webaudio"	"fullscreen"	"webcam"	"microphone"	"screen"	"version"	"date"	"time"	"rt"	"response"	"timeout"	"failed_images"	"failed_audio"	"failed_video"	"stimulus"	"trial_duration"	"block"	"correct_response"	"prestimulus_duration"	"correct"	"type"	"illusion_strength"	"illusion_difference"	"block_number"	"trial_number"
"TRUE"	"fullscreen"	"0"	"1988"	"0.0-0.0"	"34wwc5"	"600"	"1366"	"chrome"	"108.0.0"	"FALSE"	"Windows 10"	"60.43"	"132"	n/a	n/a	n/a	n/a	n/a	n/a	n/a	n/a	n/a	n/a	n/a	"NULL"	n/a	"NULL"	"NULL"	"NULL"	n/a	n/a	n/a	n/a	n/a	n/a	n/a	n/a	n/a	n/a	n/a
n/a	"browser-check"	"1"	"2995"	"0.0-1.0"	"34wwc5"	"600"	"1366"	"chrome"	"108.0.0"	"FALSE"	"Windows 10"	"60.43"	"132"	"1366"	"600"	"TRUE"	"TRUE"	"TRUE"	"TRUE"	"browser_info"	"1.0"	"12/01/2023"	"17:15:28"	n/a	"NULL"	n/a	"NULL"	"NULL"	"NULL"	n/a	n/a	n/a	n/a	n/a	n/a	n/a	n/a	n/a	n/a	n/a
n/a	"survey-text"	"2"	"6971"	"0.0-2.0"	"34wwc5"	"600"	"1366"	"chrome"	"108.0.0"	"FALSE"	"Windows 10"	"60.43"	"132"	n/a	n/a	n/a	n/a	n/a	n/a	"subject_id"	n/a	n/a	n/a	"3972"	"list(subject_id = \"132\")"	n/a	"NULL"	"NULL"	"NULL"	n/a	n/a	n/a	n/a	n/a	n/a	n/a	n/a	n/a	n/a	n/a
"TRUE"	"preload"	"3"	"6989"	"0.0-3.0"	"34wwc5"	"600"	"1366"	"chrome"	"108.0.0"	"FALSE"	"Windows 10"	"60.43"	"132"	n/a	n/a	n/a	n/a	n/a	n/a	n/a	n/a	n/a	n/a	n/a	"NULL"	"FALSE"	"list()"	"list()"	"list()"	n/a	n/a	n/a	n/a	n/a	n/a	n/a	n/a	n/a	n/a	n/a
n/a	"html-button-response"	"4"	"185082"	"0.0-4.0-0.0"	"34wwc5"	"600"	"1366"	"chrome"	"108.0.0"	"FALSE"	"Windows 10"	"60.43"	"132"	n/a	n/a	n/a	n/a	n/a	n/a	"illusion_instructions"	n/a	n/a	n/a	"178092"	"0"	n/a	"NULL"	"NULL"	"NULL"	"<p><b>Illusion Game</b></p><p>In this game of speed and reflex, you will need to make <b>visual judgments</b> (for instance, which circle is the biggest, or which line is the longest), as fast and as correctly as possible, while <b>resisting different visual illusions</b>.</p><p>We are going to start with some examples of all the illusions you will encounter in the game.</p>"	n/a	n/a	n/a	n/a	n/a	n/a	n/a	n/a	n/a	n/a
"TRUE"	"preload"	"5"	"185107"	"0.0-4.0-1.0-0.0"	"34wwc5"	"600"	"1366"	"chrome"	"108.0.0"	"FALSE"	"Windows 10"	"60.43"	"132"	n/a	n/a	n/a	n/a	n/a	n/a	n/a	n/a	n/a	n/a	n/a	"NULL"	"FALSE"	"list()"	"list()"	"list()"	n/a	n/a	n/a	n/a	n/a	n/a	n/a	n/a	n/a	n/a	n/a
n/a	"html-keyboard-response"	"6"	"235345"	"0.0-4.0-1.0-1.0"	"34wwc5"	"600"	"1366"	"chrome"	"108.0.0"	"FALSE"	"Windows 10"	"60.43"	"132"	n/a	n/a	n/a	n/a	n/a	n/a	n/a	n/a	n/a	n/a	"50236"	"enter"	n/a	"NULL"	"NULL"	"NULL"	"<p><b>Practice</b></p><p>In this part, two red circles will appear side by side on the screen.</p><p>Your task is to select which <b>red circle is bigger</b> in size as fast as you can, without making errors.</p><p>Don't get distracted by the surrounding black circles around the red circles!</p><p>Press <b>the LEFT or the RIGHT arrow</b> to indicate which is the bigger <b>red circle.</b></p><div style='float: center'><img src='materials/instructions/Ebbinghaus_Demo.png' height='300'></img><p><img src='utils/answer/answer_leftright_keyboard.PNG' height='150'></img></p><p class='small'>In this example, the correct answer is the <b>LEFT arrow</b>.</p></div><p>Are you ready? <b>Press ENTER to start</b></p>"	n/a	n/a	n/a	n/a	n/a	n/a	n/a	n/a	n/a	n/a
n/a	"html-keyboard-response"	"7"	"237058"	"0.0-4.0-1.0-2.0-0.0"	"34wwc5"	"600"	"1366"	"chrome"	"108.0.0"	"FALSE"	"Windows 10"	"60.43"	"132"	n/a	n/a	n/a	n/a	n/a	n/a	"fixation"	n/a	n/a	n/a	n/a	"NULL"	n/a	"NULL"	"NULL"	"NULL"	"<p style=\"color: black; font-size: 80px; padding-left: 18%; padding-right: 30%; padding-top: 49%; padding-bottom: 46%\">+</p>"	"1194"	n/a	n/a	n/a	n/a	n/a	n/a	n/a	n/a	n/a
n/a	"image-keyboard-response"	"8"	"237746"	"0.0-4.0-1.0-2.0-1.0"	"34wwc5"	"600"	"1366"	"chrome"	"108.0.0"	"FALSE"	"Windows 10"	"60.43"	"132"	n/a	n/a	n/a	n/a	n/a	n/a	"Trial"	n/a	n/a	n/a	"673"	"arrowleft"	n/a	"NULL"	"NULL"	"NULL"	"stimuli/Ebbinghaus_0000000_1.40000.png"	n/a	"Ebbinghaus"	"arrowleft"	"1713"	"TRUE"	"Ebbinghaus"	"000000000000"	"1.4000000000"	"1"	"1"
n/a	"html-keyboard-response"	"9"	"238981"	"0.0-4.0-1.0-2.0-0.1"	"34wwc5"	"600"	"1366"	"chrome"	"108.0.0"	"FALSE"	"Windows 10"	"60.43"	"132"	n/a	n/a	n/a	n/a	n/a	n/a	"fixation"	n/a	n/a	n/a	n/a	"NULL"	n/a	"NULL"	"NULL"	"NULL"	"<p style=\"color: black; font-size: 80px; padding-left: 19%; padding-right: 26%; padding-top: 4%; padding-bottom: 41%\">+</p>"	"1214"	n/a	n/a	n/a	n/a	n/a	n/a	n/a	n/a	n/a
n/a	"image-keyboard-response"	"10"	"239485"	"0.0-4.0-1.0-2.0-1.1"	"34wwc5"	"600"	"1366"	"chrome"	"108.0.0"	"FALSE"	"Windows 10"	"60.43"	"132"	n/a	n/a	n/a	n/a	n/a	n/a	"Trial"	n/a	n/a	n/a	"503"	"arrowright"	n/a	"NULL"	"NULL"	"NULL"	"stimuli/Ebbinghaus_1000000_-1.4000.png"	n/a	"Ebbinghaus"	"arrowright"	"1235"	"TRUE"	"Ebbinghaus"	"100000000000"	"-1.400000000"	"1"	"2"
n/a	"html-keyboard-response"	"11"	"240524"	"0.0-4.0-1.0-2.0-0.2"	"34wwc5"	"600"	"1366"	"chrome"	"108.0.0"	"FALSE"	"Windows 10"	"60.43"	"132"	n/a	n/a	n/a	n/a	n/a	n/a	"fixation"	n/a	n/a	n/a	n/a	"NULL"	n/a	"NULL"	"NULL"	"NULL"	"<p style=\"color: black; font-size: 80px; padding-left: 32%; padding-right: 28%; padding-top: 9%; padding-bottom: 38%\">+</p>"	"1029"	n/a	n/a	n/a	n/a	n/a	n/a	n/a	n/a	n/a
n/a	"image-keyboard-response"	"12"	"240967"	"0.0-4.0-1.0-2.0-1.2"	"34wwc5"	"600"	"1366"	"chrome"	"108.0.0"	"FALSE"	"Windows 10"	"60.43"	"132"	n/a	n/a	n/a	n/a	n/a	n/a	"Trial"	n/a	n/a	n/a	"441"	"arrowright"	n/a	"NULL"	"NULL"	"NULL"	"stimuli/Ebbinghaus_-100000_-1.4000.png"	n/a	"Ebbinghaus"	"arrowright"	"1039"	"TRUE"	"Ebbinghaus"	"-10000000000"	"-1.400000000"	"1"	"3"
n/a	"html-keyboard-response"	"13"	"242365"	"0.0-4.0-1.0-2.0-0.3"	"34wwc5"	"600"	"1366"	"chrome"	"108.0.0"	"FALSE"	"Windows 10"	"60.43"	"132"	n/a	n/a	n/a	n/a	n/a	n/a	"fixation"	n/a	n/a	n/a	n/a	"NULL"	n/a	"NULL"	"NULL"	"NULL"	"<p style=\"color: black; font-size: 80px; padding-left: 2%; padding-right: 7%; padding-top: 25%; padding-bottom: 7%\">+</p>"	"1380"	n/a	n/a	n/a	n/a	n/a	n/a	n/a	n/a	n/a
n/a	"image-keyboard-response"	"14"	"242828"	"0.0-4.0-1.0-2.0-1.3"	"34wwc5"	"600"	"1366"	"chrome"	"108.0.0"	"FALSE"	"Windows 10"	"60.43"	"132"	n/a	n/a	n/a	n/a	n/a	n/a	"Trial"	n/a	n/a	n/a	"461"	"arrowright"	n/a	"NULL"	"NULL"	"NULL"	"stimuli/Ebbinghaus_0000000_-1.4000.png"	n/a	"Ebbinghaus"	"arrowright"	"1398"	"TRUE"	"Ebbinghaus"	"000000000000"	"-1.400000000"	"1"	"4"
n/a	"html-keyboard-response"	"15"	"243877"	"0.0-4.0-1.0-2.0-0.4"	"34wwc5"	"600"	"1366"	"chrome"	"108.0.0"	"FALSE"	"Windows 10"	"60.43"	"132"	n/a	n/a	n/a	n/a	n/a	n/a	"fixation"	n/a	n/a	n/a	n/a	"NULL"	n/a	"NULL"	"NULL"	"NULL"	"<p style=\"color: black; font-size: 80px; padding-left: 37%; padding-right: 40%; padding-top: 34%; padding-bottom: 36%\">+</p>"	"1033"	n/a	n/a	n/a	n/a	n/a	n/a	n/a	n/a	n/a
n/a	"image-keyboard-response"	"16"	"244268"	"0.0-4.0-1.0-2.0-1.4"	"34wwc5"	"600"	"1366"	"chrome"	"108.0.0"	"FALSE"	"Windows 10"	"60.43"	"132"	n/a	n/a	n/a	n/a	n/a	n/a	"Trial"	n/a	n/a	n/a	"390"	"arrowleft"	n/a	"NULL"	"NULL"	"NULL"	"stimuli/Ebbinghaus_1000000_1.40000.png"	n/a	"Ebbinghaus"	"arrowleft"	"1049"	"TRUE"	"Ebbinghaus"	"100000000000"	"1.4000000000"	"1"	"5"
n/a	"html-keyboard-response"	"17"	"245523"	"0.0-4.0-1.0-2.0-0.5"	"34wwc5"	"600"	"1366"	"chrome"	"108.0.0"	"FALSE"	"Windows 10"	"60.43"	"132"	n/a	n/a	n/a	n/a	n/a	n/a	"fixation"	n/a	n/a	n/a	n/a	"NULL"	n/a	"NULL"	"NULL"	"NULL"	"<p style=\"color: black; font-size: 80px; padding-left: 29%; padding-right: 21%; padding-top: 48%; padding-bottom: 39%\">+</p>"	"1247"	n/a	n/a	n/a	n/a	n/a	n/a	n/a	n/a	n/a
n/a	"image-keyboard-response"	"18"	"246149"	"0.0-4.0-1.0-2.0-1.5"	"34wwc5"	"600"	"1366"	"chrome"	"108.0.0"	"FALSE"	"Windows 10"	"60.43"	"132"	n/a	n/a	n/a	n/a	n/a	n/a	"Trial"	n/a	n/a	n/a	"624"	"arrowleft"	n/a	"NULL"	"NULL"	"NULL"	"stimuli/Ebbinghaus_-100000_1.40000.png"	n/a	"Ebbinghaus"	"arrowleft"	"1255"	"TRUE"	"Ebbinghaus"	"-10000000000"	"1.4000000000"	"1"	"6"
n/a	"html-button-response"	"19"	"251350"	"0.0-4.0-1.0-3.0"	"34wwc5"	"600"	"1366"	"chrome"	"108.0.0"	"FALSE"	"Windows 10"	"60.43"	"132"	n/a	n/a	n/a	n/a	n/a	n/a	"practice_block_results"	n/a	n/a	n/a	"5199"	"0"	n/a	"NULL"	"NULL"	"NULL"	"<p style='color:rgb(76,175,80);'> Correct Responses: <b>100.00%</b></p><hr><p style='color:rgb(233,30,99);'> Average Response Time: <b>515.33</b> ms.</p>"	n/a	n/a	n/a	n/a	n/a	n/a	n/a	n/a	n/a	n/a
"TRUE"	"preload"	"20"	"251882"	"0.0-4.0-2.0-0.0"	"34wwc5"	"600"	"1366"	"chrome"	"108.0.0"	"FALSE"	"Windows 10"	"60.43"	"132"	n/a	n/a	n/a	n/a	n/a	n/a	n/a	n/a	n/a	n/a	n/a	"NULL"	"FALSE"	"list()"	"list()"	"list()"	n/a	n/a	n/a	n/a	n/a	n/a	n/a	n/a	n/a	n/a	n/a
n/a	"html-keyboard-response"	"21"	"268351"	"0.0-4.0-2.0-1.0"	"34wwc5"	"600"	"1366"	"chrome"	"108.0.0"	"FALSE"	"Windows 10"	"60.43"	"132"	n/a	n/a	n/a	n/a	n/a	n/a	n/a	n/a	n/a	n/a	"16467"	"enter"	n/a	"NULL"	"NULL"	"NULL"	"<p><b>Practice</b></p><p>In this part, two horizontal red lines will appear one above the other.</p><p>Your task is to select which <b>line is longer</b> in length as fast as you can, without making errors.</p><p>Don't get distracted by the surrounding black arrows at the end of the red lines!</p><p>Press <b>the UP or the DOWN arrow</b> to indicate where is the longer <b>red line.</b></p><div style='float: center'><img src='materials/instructions/MullerLyer_Demo.png' height='300'></img><p><img src='utils/answer/answer_updown_keyboard.PNG' height='150'></img></p><p class='small'>In this example, the correct answer is the <b>UP arrow</b>.</p></div><p>Are you ready? <b>Press ENTER to start</b></p>"	n/a	n/a	n/a	n/a	n/a	n/a	n/a	n/a	n/a	n/a
n/a	"html-keyboard-response"	"22"	"270054"	"0.0-4.0-2.0-2.0-0.0"	"34wwc5"	"600"	"1366"	"chrome"	"108.0.0"	"FALSE"	"Windows 10"	"60.43"	"132"	n/a	n/a	n/a	n/a	n/a	n/a	"fixation"	n/a	n/a	n/a	n/a	"NULL"	n/a	"NULL"	"NULL"	"NULL"	"<p style=\"color: black; font-size: 80px; padding-left: 30%; padding-right: 45%; padding-top: 1%; padding-bottom: 40%\">+</p>"	"1168"	n/a	n/a	n/a	n/a	n/a	n/a	n/a	n/a	n/a
n/a	"image-keyboard-response"	"23"	"270557"	"0.0-4.0-2.0-2.0-1.0"	"34wwc5"	"600"	"1366"	"chrome"	"108.0.0"	"FALSE"	"Windows 10"	"60.43"	"132"	n/a	n/a	n/a	n/a	n/a	n/a	"Trial"	n/a	n/a	n/a	"500"	"arrowup"	n/a	"NULL"	"NULL"	"NULL"	"stimuli/MullerLyer_0000000_0.70000.png"	n/a	"MullerLyer"	"arrowup"	"1703"	"TRUE"	"MullerLyer"	"000000000000"	"0.7000000000"	"1"	"7"
n/a	"html-keyboard-response"	"24"	"271730"	"0.0-4.0-2.0-2.0-0.1"	"34wwc5"	"600"	"1366"	"chrome"	"108.0.0"	"FALSE"	"Windows 10"	"60.43"	"132"	n/a	n/a	n/a	n/a	n/a	n/a	"fixation"	n/a	n/a	n/a	n/a	"NULL"	n/a	"NULL"	"NULL"	"NULL"	"<p style=\"color: black; font-size: 80px; padding-left: 20%; padding-right: 29%; padding-top: 50%; padding-bottom: 25%\">+</p>"	"1155"	n/a	n/a	n/a	n/a	n/a	n/a	n/a	n/a	n/a
n/a	"image-keyboard-response"	"25"	"272291"	"0.0-4.0-2.0-2.0-1.1"	"34wwc5"	"600"	"1366"	"chrome"	"108.0.0"	"FALSE"	"Windows 10"	"60.43"	"132"	n/a	n/a	n/a	n/a	n/a	n/a	"Trial"	n/a	n/a	n/a	"560"	"arrowdown"	n/a	"NULL"	"NULL"	"NULL"	"stimuli/MullerLyer_2300000_-0.7000.png"	n/a	"MullerLyer"	"arrowdown"	"1173"	"TRUE"	"MullerLyer"	"230000000000"	"-0.700000000"	"1"	"8"
n/a	"html-keyboard-response"	"26"	"273504"	"0.0-4.0-2.0-2.0-0.2"	"34wwc5"	"600"	"1366"	"chrome"	"108.0.0"	"FALSE"	"Windows 10"	"60.43"	"132"	n/a	n/a	n/a	n/a	n/a	n/a	"fixation"	n/a	n/a	n/a	n/a	"NULL"	n/a	"NULL"	"NULL"	"NULL"	"<p style=\"color: black; font-size: 80px; padding-left: 30%; padding-right: 34%; padding-top: 41%; padding-bottom: 30%\">+</p>"	"1201"	n/a	n/a	n/a	n/a	n/a	n/a	n/a	n/a	n/a
n/a	"image-keyboard-response"	"27"	"273853"	"0.0-4.0-2.0-2.0-1.2"	"34wwc5"	"600"	"1366"	"chrome"	"108.0.0"	"FALSE"	"Windows 10"	"60.43"	"132"	n/a	n/a	n/a	n/a	n/a	n/a	"Trial"	n/a	n/a	n/a	"347"	"arrowup"	n/a	"NULL"	"NULL"	"NULL"	"stimuli/MullerLyer_-230000_0.70000.png"	n/a	"MullerLyer"	"arrowup"	"1213"	"TRUE"	"MullerLyer"	"-23000000000"	"0.7000000000"	"1"	"9"
n/a	"html-keyboard-response"	"28"	"275193"	"0.0-4.0-2.0-2.0-0.3"	"34wwc5"	"600"	"1366"	"chrome"	"108.0.0"	"FALSE"	"Windows 10"	"60.43"	"132"	n/a	n/a	n/a	n/a	n/a	n/a	"fixation"	n/a	n/a	n/a	n/a	"NULL"	n/a	"NULL"	"NULL"	"NULL"	"<p style=\"color: black; font-size: 80px; padding-left: 28%; padding-right: 7%; padding-top: 3%; padding-bottom: 18%\">+</p>"	"1335"	n/a	n/a	n/a	n/a	n/a	n/a	n/a	n/a	n/a
n/a	"image-keyboard-response"	"29"	"275580"	"0.0-4.0-2.0-2.0-1.3"	"34wwc5"	"600"	"1366"	"chrome"	"108.0.0"	"FALSE"	"Windows 10"	"60.43"	"132"	n/a	n/a	n/a	n/a	n/a	n/a	"Trial"	n/a	n/a	n/a	"386"	"arrowdown"	n/a	"NULL"	"NULL"	"NULL"	"stimuli/MullerLyer_-230000_-0.7000.png"	n/a	"MullerLyer"	"arrowdown"	"1340"	"TRUE"	"MullerLyer"	"-23000000000"	"-0.700000000"	"1"	"10"
n/a	"html-keyboard-response"	"30"	"276758"	"0.0-4.0-2.0-2.0-0.4"	"34wwc5"	"600"	"1366"	"chrome"	"108.0.0"	"FALSE"	"Windows 10"	"60.43"	"132"	n/a	n/a	n/a	n/a	n/a	n/a	"fixation"	n/a	n/a	n/a	n/a	"NULL"	n/a	"NULL"	"NULL"	"NULL"	"<p style=\"color: black; font-size: 80px; padding-left: 19%; padding-right: 24%; padding-top: 37%; padding-bottom: 23%\">+</p>"	"1156"	n/a	n/a	n/a	n/a	n/a	n/a	n/a	n/a	n/a
n/a	"image-keyboard-response"	"31"	"277245"	"0.0-4.0-2.0-2.0-1.4"	"34wwc5"	"600"	"1366"	"chrome"	"108.0.0"	"FALSE"	"Windows 10"	"60.43"	"132"	n/a	n/a	n/a	n/a	n/a	n/a	"Trial"	n/a	n/a	n/a	"486"	"arrowdown"	n/a	"NULL"	"NULL"	"NULL"	"stimuli/MullerLyer_0000000_-0.7000.png"	n/a	"MullerLyer"	"arrowdown"	"1178"	"TRUE"	"MullerLyer"	"000000000000"	"-0.700000000"	"1"	"11"
n/a	"html-keyboard-response"	"32"	"278368"	"0.0-4.0-2.0-2.0-0.5"	"34wwc5"	"600"	"1366"	"chrome"	"108.0.0"	"FALSE"	"Windows 10"	"60.43"	"132"	n/a	n/a	n/a	n/a	n/a	n/a	"fixation"	n/a	n/a	n/a	n/a	"NULL"	n/a	"NULL"	"NULL"	"NULL"	"<p style=\"color: black; font-size: 80px; padding-left: 28%; padding-right: 20%; padding-top: 29%; padding-bottom: 29%\">+</p>"	"1110"	n/a	n/a	n/a	n/a	n/a	n/a	n/a	n/a	n/a
n/a	"image-keyboard-response"	"33"	"278806"	"0.0-4.0-2.0-2.0-1.5"	"34wwc5"	"600"	"1366"	"chrome"	"108.0.0"	"FALSE"	"Windows 10"	"60.43"	"132"	n/a	n/a	n/a	n/a	n/a	n/a	"Trial"	n/a	n/a	n/a	"437"	"arrowup"	n/a	"NULL"	"NULL"	"NULL"	"stimuli/MullerLyer_2300000_0.70000.png"	n/a	"MullerLyer"	"arrowup"	"1123"	"TRUE"	"MullerLyer"	"230000000000"	"0.7000000000"	"1"	"12"
n/a	"html-button-response"	"34"	"281938"	"0.0-4.0-2.0-3.0"	"34wwc5"	"600"	"1366"	"chrome"	"108.0.0"	"FALSE"	"Windows 10"	"60.43"	"132"	n/a	n/a	n/a	n/a	n/a	n/a	"practice_block_results"	n/a	n/a	n/a	"3124"	"0"	n/a	"NULL"	"NULL"	"NULL"	"<p style='color:rgb(76,175,80);'> Correct Responses: <b>100.00%</b></p><hr><p style='color:rgb(233,30,99);'> Average Response Time: <b>452.67</b> ms.</p>"	n/a	n/a	n/a	n/a	n/a	n/a	n/a	n/a	n/a	n/a
"TRUE"	"preload"	"35"	"282469"	"0.0-4.0-3.0-0.0"	"34wwc5"	"600"	"1366"	"chrome"	"108.0.0"	"FALSE"	"Windows 10"	"60.43"	"132"	n/a	n/a	n/a	n/a	n/a	n/a	n/a	n/a	n/a	n/a	n/a	"NULL"	"FALSE"	"list()"	"list()"	"list()"	n/a	n/a	n/a	n/a	n/a	n/a	n/a	n/a	n/a	n/a	n/a
n/a	"html-keyboard-response"	"36"	"294810"	"0.0-4.0-3.0-1.0"	"34wwc5"	"600"	"1366"	"chrome"	"108.0.0"	"FALSE"	"Windows 10"	"60.43"	"132"	n/a	n/a	n/a	n/a	n/a	n/a	n/a	n/a	n/a	n/a	"12341"	"enter"	n/a	"NULL"	"NULL"	"NULL"	"<p><b>Practice</b></p><p>In this part, two red lines will appear side by side.</p><p>Your task is to tell <b>which line is longer</b> in length, regardless of their orientation, as fast as you can, and without making errors.</p><p>Don't get distracted by the orientation of the lines!</p><p>Press <b>the LEFT or the RIGHT arrow</b> to indicate which <b>line is the longer one.</b></p><div style='float: center'><img src='materials/instructions/VerticalHorizontal_Demo.png' height='300'></img><p><img src='utils/answer/answer_leftright_keyboard.PNG' height='150'></img></p><p class='small'>In this example, the correct answer is the <b>LEFT arrow</b>.</p></div><p>Are you ready? <b>Press ENTER to start</b></p>"	n/a	n/a	n/a	n/a	n/a	n/a	n/a	n/a	n/a	n/a
n/a	"html-keyboard-response"	"37"	"296835"	"0.0-4.0-3.0-2.0-0.0"	"34wwc5"	"600"	"1366"	"chrome"	"108.0.0"	"FALSE"	"Windows 10"	"60.43"	"132"	n/a	n/a	n/a	n/a	n/a	n/a	"fixation"	n/a	n/a	n/a	n/a	"NULL"	n/a	"NULL"	"NULL"	"NULL"	"<p style=\"color: black; font-size: 80px; padding-left: 11%; padding-right: 49%; padding-top: 11%; padding-bottom: 28%\">+</p>"	"1500"	n/a	n/a	n/a	n/a	n/a	n/a	n/a	n/a	n/a
n/a	"image-keyboard-response"	"38"	"297198"	"0.0-4.0-3.0-2.0-1.0"	"34wwc5"	"600"	"1366"	"chrome"	"108.0.0"	"FALSE"	"Windows 10"	"60.43"	"132"	n/a	n/a	n/a	n/a	n/a	n/a	"Trial"	n/a	n/a	n/a	"362"	"arrowright"	n/a	"NULL"	"NULL"	"NULL"	"stimuli/VerticalHorizontal_-330000_-0.9000.png"	n/a	"VerticalHorizontal"	"arrowright"	"2025"	"TRUE"	"VerticalHorizontal"	"-33000000000"	"-0.900000000"	"1"	"13"
n/a	"html-keyboard-response"	"39"	"298572"	"0.0-4.0-3.0-2.0-0.1"	"34wwc5"	"600"	"1366"	"chrome"	"108.0.0"	"FALSE"	"Windows 10"	"60.43"	"132"	n/a	n/a	n/a	n/a	n/a	n/a	"fixation"	n/a	n/a	n/a	n/a	"NULL"	n/a	"NULL"	"NULL"	"NULL"	"<p style=\"color: black; font-size: 80px; padding-left: 13%; padding-right: 18%; padding-top: 17%; padding-bottom: 46%\">+</p>"	"1362"	n/a	n/a	n/a	n/a	n/a	n/a	n/a	n/a	n/a
n/a	"image-keyboard-response"	"40"	"298964"	"0.0-4.0-3.0-2.0-1.1"	"34wwc5"	"600"	"1366"	"chrome"	"108.0.0"	"FALSE"	"Windows 10"	"60.43"	"132"	n/a	n/a	n/a	n/a	n/a	n/a	"Trial"	n/a	n/a	n/a	"389"	"arrowright"	n/a	"NULL"	"NULL"	"NULL"	"stimuli/VerticalHorizontal_0000000_-0.9000.png"	n/a	"VerticalHorizontal"	"arrowright"	"1374"	"TRUE"	"VerticalHorizontal"	"000000000000"	"-0.900000000"	"1"	"14"
n/a	"html-keyboard-response"	"41"	"299977"	"0.0-4.0-3.0-2.0-0.2"	"34wwc5"	"600"	"1366"	"chrome"	"108.0.0"	"FALSE"	"Windows 10"	"60.43"	"132"	n/a	n/a	n/a	n/a	n/a	n/a	"fixation"	n/a	n/a	n/a	n/a	"NULL"	n/a	"NULL"	"NULL"	"NULL"	"<p style=\"color: black; font-size: 80px; padding-left: 26%; padding-right: 12%; padding-top: 1%; padding-bottom: 32%\">+</p>"	"1005"	n/a	n/a	n/a	n/a	n/a	n/a	n/a	n/a	n/a
n/a	"image-keyboard-response"	"42"	"300365"	"0.0-4.0-3.0-2.0-1.2"	"34wwc5"	"600"	"1366"	"chrome"	"108.0.0"	"FALSE"	"Windows 10"	"60.43"	"132"	n/a	n/a	n/a	n/a	n/a	n/a	"Trial"	n/a	n/a	n/a	"386"	"arrowleft"	n/a	"NULL"	"NULL"	"NULL"	"stimuli/VerticalHorizontal_0000000_0.90000.png"	n/a	"VerticalHorizontal"	"arrowleft"	"1013"	"TRUE"	"VerticalHorizontal"	"000000000000"	"0.9000000000"	"1"	"15"
n/a	"html-keyboard-response"	"43"	"301732"	"0.0-4.0-3.0-2.0-0.3"	"34wwc5"	"600"	"1366"	"chrome"	"108.0.0"	"FALSE"	"Windows 10"	"60.43"	"132"	n/a	n/a	n/a	n/a	n/a	n/a	"fixation"	n/a	n/a	n/a	n/a	"NULL"	n/a	"NULL"	"NULL"	"NULL"	"<p style=\"color: black; font-size: 80px; padding-left: 14%; padding-right: 44%; padding-top: 16%; padding-bottom: 1%\">+</p>"	"1360"	n/a	n/a	n/a	n/a	n/a	n/a	n/a	n/a	n/a
n/a	"image-keyboard-response"	"44"	"302156"	"0.0-4.0-3.0-2.0-1.3"	"34wwc5"	"600"	"1366"	"chrome"	"108.0.0"	"FALSE"	"Windows 10"	"60.43"	"132"	n/a	n/a	n/a	n/a	n/a	n/a	"Trial"	n/a	n/a	n/a	"423"	"arrowleft"	n/a	"NULL"	"NULL"	"NULL"	"stimuli/VerticalHorizontal_-330000_0.90000.png"	n/a	"VerticalHorizontal"	"arrowleft"	"1367"	"TRUE"	"VerticalHorizontal"	"-33000000000"	"0.9000000000"	"1"	"16"
n/a	"html-keyboard-response"	"45"	"303425"	"0.0-4.0-3.0-2.0-0.4"	"34wwc5"	"600"	"1366"	"chrome"	"108.0.0"	"FALSE"	"Windows 10"	"60.43"	"132"	n/a	n/a	n/a	n/a	n/a	n/a	"fixation"	n/a	n/a	n/a	n/a	"NULL"	n/a	"NULL"	"NULL"	"NULL"	"<p style=\"color: black; font-size: 80px; padding-left: 23%; padding-right: 8%; padding-top: 20%; padding-bottom: 40%\">+</p>"	"1252"	n/a	n/a	n/a	n/a	n/a	n/a	n/a	n/a	n/a
n/a	"image-keyboard-response"	"46"	"303859"	"0.0-4.0-3.0-2.0-1.4"	"34wwc5"	"600"	"1366"	"chrome"	"108.0.0"	"FALSE"	"Windows 10"	"60.43"	"132"	n/a	n/a	n/a	n/a	n/a	n/a	"Trial"	n/a	n/a	n/a	"433"	"arrowright"	n/a	"NULL"	"NULL"	"NULL"	"stimuli/VerticalHorizontal_3300000_-0.9000.png"	n/a	"VerticalHorizontal"	"arrowright"	"1269"	"TRUE"	"VerticalHorizontal"	"330000000000"	"-0.900000000"	"1"	"17"
n/a	"html-keyboard-response"	"47"	"305360"	"0.0-4.0-3.0-2.0-0.5"	"34wwc5"	"600"	"1366"	"chrome"	"108.0.0"	"FALSE"	"Windows 10"	"60.43"	"132"	n/a	n/a	n/a	n/a	n/a	n/a	"fixation"	n/a	n/a	n/a	n/a	"NULL"	n/a	"NULL"	"NULL"	"NULL"	"<p style=\"color: black; font-size: 80px; padding-left: 31%; padding-right: 36%; padding-top: 0%; padding-bottom: 44%\">+</p>"	"1492"	n/a	n/a	n/a	n/a	n/a	n/a	n/a	n/a	n/a
n/a	"image-keyboard-response"	"48"	"305694"	"0.0-4.0-3.0-2.0-1.5"	"34wwc5"	"600"	"1366"	"chrome"	"108.0.0"	"FALSE"	"Windows 10"	"60.43"	"132"	n/a	n/a	n/a	n/a	n/a	n/a	"Trial"	n/a	n/a	n/a	"333"	"arrowleft"	n/a	"NULL"	"NULL"	"NULL"	"stimuli/VerticalHorizontal_3300000_0.90000.png"	n/a	"VerticalHorizontal"	"arrowleft"	"1501"	"TRUE"	"VerticalHorizontal"	"330000000000"	"0.9000000000"	"1"	"18"
n/a	"html-button-response"	"49"	"308946"	"0.0-4.0-3.0-3.0"	"34wwc5"	"600"	"1366"	"chrome"	"108.0.0"	"FALSE"	"Windows 10"	"60.43"	"132"	n/a	n/a	n/a	n/a	n/a	n/a	"practice_block_results"	n/a	n/a	n/a	"3251"	"0"	n/a	"NULL"	"NULL"	"NULL"	"<p style='color:rgb(76,175,80);'> Correct Responses: <b>100.00%</b></p><hr><p style='color:rgb(233,30,99);'> Average Response Time: <b>387.67</b> ms.</p>"	n/a	n/a	n/a	n/a	n/a	n/a	n/a	n/a	n/a	n/a
n/a	"html-button-response"	"50"	"378991"	"0.0-4.0-4.0"	"34wwc5"	"600"	"1366"	"chrome"	"108.0.0"	"FALSE"	"Windows 10"	"60.43"	"132"	n/a	n/a	n/a	n/a	n/a	n/a	"practice_debrief"	n/a	n/a	n/a	"69534"	"0"	n/a	"NULL"	"NULL"	"NULL"	"<p><b>TRAINING COMPLETED</b></p><p>In the next phase, there will be more trials, and some might be harder too.<br> Moreover, after each illusion block, a <b>score</b> will be calculated based on speed (time you took to answer) and accuracy (number of errors).</p><p>Try to keep up a high score!</p><br><p>Note that it can be <i>really</i> challenging at times, so you will need to rely on your <b>intuition</b> and gut feeling to answer as fast as you can without making errors.</p><p>Each illusion block will be repeated two times (so that you have the opportunity to improve your score), but the order of the blocks is random.</p><p>Remember, your goal is to be as <b>fast</b> and <b>accurate</b> as possible. Good luck!</p><br>"	n/a	n/a	n/a	n/a	n/a	n/a	n/a	n/a	n/a	n/a
"TRUE"	"preload"	"51"	"379170"	"0.0-5.0-0.0"	"34wwc5"	"600"	"1366"	"chrome"	"108.0.0"	"FALSE"	"Windows 10"	"60.43"	"132"	n/a	n/a	n/a	n/a	n/a	n/a	n/a	n/a	n/a	n/a	n/a	"NULL"	"FALSE"	"list()"	"list()"	"list()"	n/a	n/a	n/a	n/a	n/a	n/a	n/a	n/a	n/a	n/a	n/a
n/a	"html-keyboard-response"	"52"	"384645"	"0.0-5.0-1.0"	"34wwc5"	"600"	"1366"	"chrome"	"108.0.0"	"FALSE"	"Windows 10"	"60.43"	"132"	n/a	n/a	n/a	n/a	n/a	n/a	n/a	n/a	n/a	n/a	"5474"	"enter"	n/a	"NULL"	"NULL"	"NULL"	"<p><b>Part 1/6</b></p><p>In this part, two horizontal red lines will appear one above the other.</p><p>Your task is to select which <b>line is longer</b> in length as fast as you can, without making errors.</p><p>Don't get distracted by the surrounding black arrows at the end of the red lines!</p><p>Press <b>the UP or the DOWN arrow</b> to indicate where is the longer <b>red line.</b></p><div style='float: center'><img src='materials/instructions/MullerLyer_Demo.png' height='300'></img><p><img src='utils/answer/answer_updown_keyboard.PNG' height='150'></img></p><p class='small'>In this example, the correct answer is the <b>UP arrow</b>.</p></div><p>Are you ready? <b>Press ENTER to start</b></p>"	n/a	n/a	n/a	n/a	n/a	n/a	n/a	n/a	n/a	n/a
n/a	"html-keyboard-response"	"53"	"386462"	"0.0-5.0-2.0-0.0"	"34wwc5"	"600"	"1366"	"chrome"	"108.0.0"	"FALSE"	"Windows 10"	"60.43"	"132"	n/a	n/a	n/a	n/a	n/a	n/a	"fixation"	n/a	n/a	n/a	n/a	"NULL"	n/a	"NULL"	"NULL"	"NULL"	"<p style=\"color: black; font-size: 80px; padding-left: 22%; padding-right: 22%; padding-top: 44%; padding-bottom: 39%\">+</p>"	"1282"	n/a	n/a	n/a	n/a	n/a	n/a	n/a	n/a	n/a
n/a	"image-keyboard-response"	"54"	"386910"	"0.0-5.0-2.0-1.0"	"34wwc5"	"600"	"1366"	"chrome"	"108.0.0"	"FALSE"	"Windows 10"	"60.43"	"132"	n/a	n/a	n/a	n/a	n/a	n/a	"Trial"	n/a	n/a	n/a	"447"	"arrowup"	n/a	"NULL"	"NULL"	"NULL"	"stimuli/MullerLyer_-8.21429_0.23665.png"	n/a	"MullerLyer"	"arrowup"	"1817"	"TRUE"	"MullerLyer"	"-8.214290000"	"0.2366500000"	"1"	"19"
n/a	"html-keyboard-response"	"55"	"388176"	"0.0-5.0-2.0-0.1"	"34wwc5"	"600"	"1366"	"chrome"	"108.0.0"	"FALSE"	"Windows 10"	"60.43"	"132"	n/a	n/a	n/a	n/a	n/a	n/a	"fixation"	n/a	n/a	n/a	n/a	"NULL"	n/a	"NULL"	"NULL"	"NULL"	"<p style=\"color: black; font-size: 80px; padding-left: 8%; padding-right: 22%; padding-top: 2%; padding-bottom: 23%\">+</p>"	"1250"	n/a	n/a	n/a	n/a	n/a	n/a	n/a	n/a	n/a
n/a	"image-keyboard-response"	"56"	"388587"	"0.0-5.0-2.0-1.1"	"34wwc5"	"600"	"1366"	"chrome"	"108.0.0"	"FALSE"	"Windows 10"	"60.43"	"132"	n/a	n/a	n/a	n/a	n/a	n/a	"Trial"	n/a	n/a	n/a	"409"	"arrowup"	n/a	"NULL"	"NULL"	"NULL"	"stimuli/MullerLyer_-20.04286_0.14541.png"	n/a	"MullerLyer"	"arrowup"	"1266"	"TRUE"	"MullerLyer"	"-20.04286000"	"0.1454100000"	"1"	"20"
n/a	"html-keyboard-response"	"57"	"389841"	"0.0-5.0-2.0-0.2"	"34wwc5"	"600"	"1366"	"chrome"	"108.0.0"	"FALSE"	"Windows 10"	"60.43"	"132"	n/a	n/a	n/a	n/a	n/a	n/a	"fixation"	n/a	n/a	n/a	n/a	"NULL"	n/a	"NULL"	"NULL"	"NULL"	"<p style=\"color: black; font-size: 80px; padding-left: 41%; padding-right: 28%; padding-top: 2%; padding-bottom: 15%\">+</p>"	"1240"	n/a	n/a	n/a	n/a	n/a	n/a	n/a	n/a	n/a
n/a	"image-keyboard-response"	"58"	"390269"	"0.0-5.0-2.0-1.2"	"34wwc5"	"600"	"1366"	"chrome"	"108.0.0"	"FALSE"	"Windows 10"	"60.43"	"132"	n/a	n/a	n/a	n/a	n/a	n/a	"Trial"	n/a	n/a	n/a	"427"	"arrowup"	n/a	"NULL"	"NULL"	"NULL"	"stimuli/MullerLyer_-20.04286_0.35000.png"	n/a	"MullerLyer"	"arrowup"	"1254"	"TRUE"	"MullerLyer"	"-20.04286000"	"0.3500000000"	"1"	"21"
n/a	"html-keyboard-response"	"59"	"391564"	"0.0-5.0-2.0-0.3"	"34wwc5"	"600"	"1366"	"chrome"	"108.0.0"	"FALSE"	"Windows 10"	"60.43"	"132"	n/a	n/a	n/a	n/a	n/a	n/a	"fixation"	n/a	n/a	n/a	n/a	"NULL"	n/a	"NULL"	"NULL"	"NULL"	"<p style=\"color: black; font-size: 80px; padding-left: 16%; padding-right: 19%; padding-top: 40%; padding-bottom: 37%\">+</p>"	"1277"	n/a	n/a	n/a	n/a	n/a	n/a	n/a	n/a	n/a
n/a	"image-keyboard-response"	"60"	"392018"	"0.0-5.0-2.0-1.3"	"34wwc5"	"600"	"1366"	"chrome"	"108.0.0"	"FALSE"	"Windows 10"	"60.43"	"132"	n/a	n/a	n/a	n/a	n/a	n/a	"Trial"	n/a	n/a	n/a	"453"	"arrowdown"	n/a	"NULL"	"NULL"	"NULL"	"stimuli/MullerLyer_-8.21429_-0.3500.png"	n/a	"MullerLyer"	"arrowdown"	"1295"	"TRUE"	"MullerLyer"	"-8.214290000"	"-0.350000000"	"1"	"22"
n/a	"html-keyboard-response"	"61"	"393462"	"0.0-5.0-2.0-0.4"	"34wwc5"	"600"	"1366"	"chrome"	"108.0.0"	"FALSE"	"Windows 10"	"60.43"	"132"	n/a	n/a	n/a	n/a	n/a	n/a	"fixation"	n/a	n/a	n/a	n/a	"NULL"	n/a	"NULL"	"NULL"	"NULL"	"<p style=\"color: black; font-size: 80px; padding-left: 30%; padding-right: 40%; padding-top: 11%; padding-bottom: 31%\">+</p>"	"1421"	n/a	n/a	n/a	n/a	n/a	n/a	n/a	n/a	n/a
n/a	"image-keyboard-response"	"62"	"393848"	"0.0-5.0-2.0-1.4"	"34wwc5"	"600"	"1366"	"chrome"	"108.0.0"	"FALSE"	"Windows 10"	"60.43"	"132"	n/a	n/a	n/a	n/a	n/a	n/a	"Trial"	n/a	n/a	n/a	"382"	"arrowup"	n/a	"NULL"	"NULL"	"NULL"	"stimuli/MullerLyer_-2.3000_0.23665.png"	n/a	"MullerLyer"	"arrowup"	"1444"	"TRUE"	"MullerLyer"	"-2.300000000"	"0.2366500000"	"1"	"23"
n/a	"html-keyboard-response"	"63"	"394945"	"0.0-5.0-2.0-0.5"	"34wwc5"	"600"	"1366"	"chrome"	"108.0.0"	"FALSE"	"Windows 10"	"60.43"	"132"	n/a	n/a	n/a	n/a	n/a	n/a	"fixation"	n/a	n/a	n/a	n/a	"NULL"	n/a	"NULL"	"NULL"	"NULL"	"<p style=\"color: black; font-size: 80px; padding-left: 7%; padding-right: 26%; padding-top: 13%; padding-bottom: 44%\">+</p>"	"1093"	n/a	n/a	n/a	n/a	n/a	n/a	n/a	n/a	n/a
n/a	"image-keyboard-response"	"64"	"395755"	"0.0-5.0-2.0-1.5"	"34wwc5"	"600"	"1366"	"chrome"	"108.0.0"	"FALSE"	"Windows 10"	"60.43"	"132"	n/a	n/a	n/a	n/a	n/a	n/a	"Trial"	n/a	n/a	n/a	"809"	"arrowdown"	n/a	"NULL"	"NULL"	"NULL"	"stimuli/MullerLyer_-2.3000_0.07627.png"	n/a	"MullerLyer"	"arrowup"	"1097"	"FALSE"	"MullerLyer"	"-2.300000000"	"0.0762700000"	"1"	"24"
n/a	"html-keyboard-response"	"65"	"396976"	"0.0-5.0-2.0-0.6"	"34wwc5"	"600"	"1366"	"chrome"	"108.0.0"	"FALSE"	"Windows 10"	"60.43"	"132"	n/a	n/a	n/a	n/a	n/a	n/a	"fixation"	n/a	n/a	n/a	n/a	"NULL"	n/a	"NULL"	"NULL"	"NULL"	"<p style=\"color: black; font-size: 80px; padding-left: 7%; padding-right: 43%; padding-top: 47%; padding-bottom: 21%\">+</p>"	"1218"	n/a	n/a	n/a	n/a	n/a	n/a	n/a	n/a	n/a
n/a	"image-keyboard-response"	"66"	"397503"	"0.0-5.0-2.0-1.6"	"34wwc5"	"600"	"1366"	"chrome"	"108.0.0"	"FALSE"	"Windows 10"	"60.43"	"132"	n/a	n/a	n/a	n/a	n/a	n/a	"Trial"	n/a	n/a	n/a	"525"	"arrowdown"	n/a	"NULL"	"NULL"	"NULL"	"stimuli/MullerLyer_20.04286_0.14541.png"	n/a	"MullerLyer"	"arrowup"	"1221"	"FALSE"	"MullerLyer"	"20.042860000"	"0.1454100000"	"1"	"25"
n/a	"html-keyboard-response"	"67"	"398959"	"0.0-5.0-2.0-0.7"	"34wwc5"	"600"	"1366"	"chrome"	"108.0.0"	"FALSE"	"Windows 10"	"60.43"	"132"	n/a	n/a	n/a	n/a	n/a	n/a	"fixation"	n/a	n/a	n/a	n/a	"NULL"	n/a	"NULL"	"NULL"	"NULL"	"<p style=\"color: black; font-size: 80px; padding-left: 19%; padding-right: 16%; padding-top: 29%; padding-bottom: 22%\">+</p>"	"1445"	n/a	n/a	n/a	n/a	n/a	n/a	n/a	n/a	n/a
n/a	"image-keyboard-response"	"68"	"399419"	"0.0-5.0-2.0-1.7"	"34wwc5"	"600"	"1366"	"chrome"	"108.0.0"	"FALSE"	"Windows 10"	"60.43"	"132"	n/a	n/a	n/a	n/a	n/a	n/a	"Trial"	n/a	n/a	n/a	"459"	"arrowdown"	n/a	"NULL"	"NULL"	"NULL"	"stimuli/MullerLyer_-20.04286_-0.07627.png"	n/a	"MullerLyer"	"arrowdown"	"1456"	"TRUE"	"MullerLyer"	"-20.04286000"	"-0.076270000"	"1"	"26"
n/a	"html-keyboard-response"	"69"	"400762"	"0.0-5.0-2.0-0.8"	"34wwc5"	"600"	"1366"	"chrome"	"108.0.0"	"FALSE"	"Windows 10"	"60.43"	"132"	n/a	n/a	n/a	n/a	n/a	n/a	"fixation"	n/a	n/a	n/a	n/a	"NULL"	n/a	"NULL"	"NULL"	"NULL"	"<p style=\"color: black; font-size: 80px; padding-left: 24%; padding-right: 12%; padding-top: 30%; padding-bottom: 31%\">+</p>"	"1330"	n/a	n/a	n/a	n/a	n/a	n/a	n/a	n/a	n/a
n/a	"image-keyboard-response"	"70"	"401225"	"0.0-5.0-2.0-1.8"	"34wwc5"	"600"	"1366"	"chrome"	"108.0.0"	"FALSE"	"Windows 10"	"60.43"	"132"	n/a	n/a	n/a	n/a	n/a	n/a	"Trial"	n/a	n/a	n/a	"462"	"arrowdown"	n/a	"NULL"	"NULL"	"NULL"	"stimuli/MullerLyer_-2.3000_-0.23665.png"	n/a	"MullerLyer"	"arrowdown"	"1343"	"TRUE"	"MullerLyer"	"-2.300000000"	"-0.236650000"	"1"	"27"
n/a	"html-keyboard-response"	"71"	"402508"	"0.0-5.0-2.0-0.9"	"34wwc5"	"600"	"1366"	"chrome"	"108.0.0"	"FALSE"	"Windows 10"	"60.43"	"132"	n/a	n/a	n/a	n/a	n/a	n/a	"fixation"	n/a	n/a	n/a	n/a	"NULL"	n/a	"NULL"	"NULL"	"NULL"	"<p style=\"color: black; font-size: 80px; padding-left: 43%; padding-right: 25%; padding-top: 7%; padding-bottom: 20%\">+</p>"	"1269"	n/a	n/a	n/a	n/a	n/a	n/a	n/a	n/a	n/a
n/a	"image-keyboard-response"	"72"	"402972"	"0.0-5.0-2.0-1.9"	"34wwc5"	"600"	"1366"	"chrome"	"108.0.0"	"FALSE"	"Windows 10"	"60.43"	"132"	n/a	n/a	n/a	n/a	n/a	n/a	"Trial"	n/a	n/a	n/a	"463"	"arrowup"	n/a	"NULL"	"NULL"	"NULL"	"stimuli/MullerLyer_-20.04286_0.23665.png"	n/a	"MullerLyer"	"arrowup"	"1283"	"TRUE"	"MullerLyer"	"-20.04286000"	"0.2366500000"	"1"	"28"
n/a	"html-keyboard-response"	"73"	"404100"	"0.0-5.0-2.0-0.10"	"34wwc5"	"600"	"1366"	"chrome"	"108.0.0"	"FALSE"	"Windows 10"	"60.43"	"132"	n/a	n/a	n/a	n/a	n/a	n/a	"fixation"	n/a	n/a	n/a	n/a	"NULL"	n/a	"NULL"	"NULL"	"NULL"	"<p style=\"color: black; font-size: 80px; padding-left: 43%; padding-right: 43%; padding-top: 27%; padding-bottom: 31%\">+</p>"	"1114"	n/a	n/a	n/a	n/a	n/a	n/a	n/a	n/a	n/a
n/a	"image-keyboard-response"	"74"	"404479"	"0.0-5.0-2.0-1.10"	"34wwc5"	"600"	"1366"	"chrome"	"108.0.0"	"FALSE"	"Windows 10"	"60.43"	"132"	n/a	n/a	n/a	n/a	n/a	n/a	"Trial"	n/a	n/a	n/a	"377"	"arrowup"	n/a	"NULL"	"NULL"	"NULL"	"stimuli/MullerLyer_20.04286_-0.14541.png"	n/a	"MullerLyer"	"arrowdown"	"1128"	"FALSE"	"MullerLyer"	"20.042860000"	"-0.145410000"	"1"	"29"
n/a	"html-keyboard-response"	"75"	"405652"	"0.0-5.0-2.0-0.11"	"34wwc5"	"600"	"1366"	"chrome"	"108.0.0"	"FALSE"	"Windows 10"	"60.43"	"132"	n/a	n/a	n/a	n/a	n/a	n/a	"fixation"	n/a	n/a	n/a	n/a	"NULL"	n/a	"NULL"	"NULL"	"NULL"	"<p style=\"color: black; font-size: 80px; padding-left: 19%; padding-right: 34%; padding-top: 47%; padding-bottom: 35%\">+</p>"	"1169"	n/a	n/a	n/a	n/a	n/a	n/a	n/a	n/a	n/a
n/a	"image-keyboard-response"	"76"	"406274"	"0.0-5.0-2.0-1.11"	"34wwc5"	"600"	"1366"	"chrome"	"108.0.0"	"FALSE"	"Windows 10"	"60.43"	"132"	n/a	n/a	n/a	n/a	n/a	n/a	"Trial"	n/a	n/a	n/a	"621"	"arrowup"	n/a	"NULL"	"NULL"	"NULL"	"stimuli/MullerLyer_8.21429_0.23665.png"	n/a	"MullerLyer"	"arrowup"	"1173"	"TRUE"	"MullerLyer"	"8.2142900000"	"0.2366500000"	"1"	"30"
n/a	"html-keyboard-response"	"77"	"407374"	"0.0-5.0-2.0-0.12"	"34wwc5"	"600"	"1366"	"chrome"	"108.0.0"	"FALSE"	"Windows 10"	"60.43"	"132"	n/a	n/a	n/a	n/a	n/a	n/a	"fixation"	n/a	n/a	n/a	n/a	"NULL"	n/a	"NULL"	"NULL"	"NULL"	"<p style=\"color: black; font-size: 80px; padding-left: 32%; padding-right: 36%; padding-top: 44%; padding-bottom: 32%\">+</p>"	"1080"	n/a	n/a	n/a	n/a	n/a	n/a	n/a	n/a	n/a
n/a	"image-keyboard-response"	"78"	"407951"	"0.0-5.0-2.0-1.12"	"34wwc5"	"600"	"1366"	"chrome"	"108.0.0"	"FALSE"	"Windows 10"	"60.43"	"132"	n/a	n/a	n/a	n/a	n/a	n/a	"Trial"	n/a	n/a	n/a	"576"	"arrowdown"	n/a	"NULL"	"NULL"	"NULL"	"stimuli/MullerLyer_-14.12857_-0.14541.png"	n/a	"MullerLyer"	"arrowdown"	"1100"	"TRUE"	"MullerLyer"	"-14.12857000"	"-0.145410000"	"1"	"31"
n/a	"html-keyboard-response"	"79"	"409402"	"0.0-5.0-2.0-0.13"	"34wwc5"	"600"	"1366"	"chrome"	"108.0.0"	"FALSE"	"Windows 10"	"60.43"	"132"	n/a	n/a	n/a	n/a	n/a	n/a	"fixation"	n/a	n/a	n/a	n/a	"NULL"	n/a	"NULL"	"NULL"	"NULL"	"<p style=\"color: black; font-size: 80px; padding-left: 23%; padding-right: 31%; padding-top: 41%; padding-bottom: 20%\">+</p>"	"1439"	n/a	n/a	n/a	n/a	n/a	n/a	n/a	n/a	n/a
n/a	"image-keyboard-response"	"80"	"409919"	"0.0-5.0-2.0-1.13"	"34wwc5"	"600"	"1366"	"chrome"	"108.0.0"	"FALSE"	"Windows 10"	"60.43"	"132"	n/a	n/a	n/a	n/a	n/a	n/a	"Trial"	n/a	n/a	n/a	"516"	"arrowdown"	n/a	"NULL"	"NULL"	"NULL"	"stimuli/MullerLyer_20.04286_0.23665.png"	n/a	"MullerLyer"	"arrowup"	"1451"	"FALSE"	"MullerLyer"	"20.042860000"	"0.2366500000"	"1"	"32"
n/a	"html-keyboard-response"	"81"	"411002"	"0.0-5.0-2.0-0.14"	"34wwc5"	"600"	"1366"	"chrome"	"108.0.0"	"FALSE"	"Windows 10"	"60.43"	"132"	n/a	n/a	n/a	n/a	n/a	n/a	"fixation"	n/a	n/a	n/a	n/a	"NULL"	n/a	"NULL"	"NULL"	"NULL"	"<p style=\"color: black; font-size: 80px; padding-left: 47%; padding-right: 13%; padding-top: 2%; padding-bottom: 9%\">+</p>"	"1069"	n/a	n/a	n/a	n/a	n/a	n/a	n/a	n/a	n/a
n/a	"image-keyboard-response"	"82"	"411434"	"0.0-5.0-2.0-1.14"	"34wwc5"	"600"	"1366"	"chrome"	"108.0.0"	"FALSE"	"Windows 10"	"60.43"	"132"	n/a	n/a	n/a	n/a	n/a	n/a	"Trial"	n/a	n/a	n/a	"430"	"arrowdown"	n/a	"NULL"	"NULL"	"NULL"	"stimuli/MullerLyer_-14.12857_-0.23665.png"	n/a	"MullerLyer"	"arrowdown"	"1083"	"TRUE"	"MullerLyer"	"-14.12857000"	"-0.236650000"	"1"	"33"
n/a	"html-keyboard-response"	"83"	"412615"	"0.0-5.0-2.0-0.15"	"34wwc5"	"600"	"1366"	"chrome"	"108.0.0"	"FALSE"	"Windows 10"	"60.43"	"132"	n/a	n/a	n/a	n/a	n/a	n/a	"fixation"	n/a	n/a	n/a	n/a	"NULL"	n/a	"NULL"	"NULL"	"NULL"	"<p style=\"color: black; font-size: 80px; padding-left: 41%; padding-right: 22%; padding-top: 3%; padding-bottom: 7%\">+</p>"	"1169"	n/a	n/a	n/a	n/a	n/a	n/a	n/a	n/a	n/a
n/a	"image-keyboard-response"	"84"	"413117"	"0.0-5.0-2.0-1.15"	"34wwc5"	"600"	"1366"	"chrome"	"108.0.0"	"FALSE"	"Windows 10"	"60.43"	"132"	n/a	n/a	n/a	n/a	n/a	n/a	"Trial"	n/a	n/a	n/a	"499"	"arrowup"	n/a	"NULL"	"NULL"	"NULL"	"stimuli/MullerLyer_2.30000_0.14541.png"	n/a	"MullerLyer"	"arrowup"	"1181"	"TRUE"	"MullerLyer"	"2.3000000000"	"0.1454100000"	"1"	"34"
n/a	"html-keyboard-response"	"85"	"414154"	"0.0-5.0-2.0-0.16"	"34wwc5"	"600"	"1366"	"chrome"	"108.0.0"	"FALSE"	"Windows 10"	"60.43"	"132"	n/a	n/a	n/a	n/a	n/a	n/a	"fixation"	n/a	n/a	n/a	n/a	"NULL"	n/a	"NULL"	"NULL"	"NULL"	"<p style=\"color: black; font-size: 80px; padding-left: 21%; padding-right: 46%; padding-top: 19%; padding-bottom: 38%\">+</p>"	"1026"	n/a	n/a	n/a	n/a	n/a	n/a	n/a	n/a	n/a
n/a	"image-keyboard-response"	"86"	"414606"	"0.0-5.0-2.0-1.16"	"34wwc5"	"600"	"1366"	"chrome"	"108.0.0"	"FALSE"	"Windows 10"	"60.43"	"132"	n/a	n/a	n/a	n/a	n/a	n/a	"Trial"	n/a	n/a	n/a	"451"	"arrowup"	n/a	"NULL"	"NULL"	"NULL"	"stimuli/MullerLyer_-8.21429_0.35000.png"	n/a	"MullerLyer"	"arrowup"	"1037"	"TRUE"	"MullerLyer"	"-8.214290000"	"0.3500000000"	"1"	"35"
n/a	"html-keyboard-response"	"87"	"415929"	"0.0-5.0-2.0-0.17"	"34wwc5"	"600"	"1366"	"chrome"	"108.0.0"	"FALSE"	"Windows 10"	"60.43"	"132"	n/a	n/a	n/a	n/a	n/a	n/a	"fixation"	n/a	n/a	n/a	n/a	"NULL"	n/a	"NULL"	"NULL"	"NULL"	"<p style=\"color: black; font-size: 80px; padding-left: 38%; padding-right: 39%; padding-top: 28%; padding-bottom: 12%\">+</p>"	"1300"	n/a	n/a	n/a	n/a	n/a	n/a	n/a	n/a	n/a
n/a	"image-keyboard-response"	"88"	"416395"	"0.0-5.0-2.0-1.17"	"34wwc5"	"600"	"1366"	"chrome"	"108.0.0"	"FALSE"	"Windows 10"	"60.43"	"132"	n/a	n/a	n/a	n/a	n/a	n/a	"Trial"	n/a	n/a	n/a	"465"	"arrowdown"	n/a	"NULL"	"NULL"	"NULL"	"stimuli/MullerLyer_-2.3000_-0.14541.png"	n/a	"MullerLyer"	"arrowdown"	"1323"	"TRUE"	"MullerLyer"	"-2.300000000"	"-0.145410000"	"1"	"36"
n/a	"html-keyboard-response"	"89"	"417687"	"0.0-5.0-2.0-0.18"	"34wwc5"	"600"	"1366"	"chrome"	"108.0.0"	"FALSE"	"Windows 10"	"60.43"	"132"	n/a	n/a	n/a	n/a	n/a	n/a	"fixation"	n/a	n/a	n/a	n/a	"NULL"	n/a	"NULL"	"NULL"	"NULL"	"<p style=\"color: black; font-size: 80px; padding-left: 40%; padding-right: 31%; padding-top: 34%; padding-bottom: 18%\">+</p>"	"1271"	n/a	n/a	n/a	n/a	n/a	n/a	n/a	n/a	n/a
n/a	"image-keyboard-response"	"90"	"418072"	"0.0-5.0-2.0-1.18"	"34wwc5"	"600"	"1366"	"chrome"	"108.0.0"	"FALSE"	"Windows 10"	"60.43"	"132"	n/a	n/a	n/a	n/a	n/a	n/a	"Trial"	n/a	n/a	n/a	"383"	"arrowdown"	n/a	"NULL"	"NULL"	"NULL"	"stimuli/MullerLyer_20.04286_-0.23665.png"	n/a	"MullerLyer"	"arrowdown"	"1292"	"TRUE"	"MullerLyer"	"20.042860000"	"-0.236650000"	"1"	"37"
n/a	"html-keyboard-response"	"91"	"419272"	"0.0-5.0-2.0-0.19"	"34wwc5"	"600"	"1366"	"chrome"	"108.0.0"	"FALSE"	"Windows 10"	"60.43"	"132"	n/a	n/a	n/a	n/a	n/a	n/a	"fixation"	n/a	n/a	n/a	n/a	"NULL"	n/a	"NULL"	"NULL"	"NULL"	"<p style=\"color: black; font-size: 80px; padding-left: 42%; padding-right: 23%; padding-top: 18%; padding-bottom: 49%\">+</p>"	"1182"	n/a	n/a	n/a	n/a	n/a	n/a	n/a	n/a	n/a
n/a	"image-keyboard-response"	"92"	"419682"	"0.0-5.0-2.0-1.19"	"34wwc5"	"600"	"1366"	"chrome"	"108.0.0"	"FALSE"	"Windows 10"	"60.43"	"132"	n/a	n/a	n/a	n/a	n/a	n/a	"Trial"	n/a	n/a	n/a	"408"	"arrowup"	n/a	"NULL"	"NULL"	"NULL"	"stimuli/MullerLyer_20.04286_-0.07627.png"	n/a	"MullerLyer"	"arrowdown"	"1200"	"FALSE"	"MullerLyer"	"20.042860000"	"-0.076270000"	"1"	"38"
n/a	"html-keyboard-response"	"93"	"421177"	"0.0-5.0-2.0-0.20"	"34wwc5"	"600"	"1366"	"chrome"	"108.0.0"	"FALSE"	"Windows 10"	"60.43"	"132"	n/a	n/a	n/a	n/a	n/a	n/a	"fixation"	n/a	n/a	n/a	n/a	"NULL"	n/a	"NULL"	"NULL"	"NULL"	"<p style=\"color: black; font-size: 80px; padding-left: 22%; padding-right: 45%; padding-top: 14%; padding-bottom: 3%\">+</p>"	"1484"	n/a	n/a	n/a	n/a	n/a	n/a	n/a	n/a	n/a
n/a	"image-keyboard-response"	"94"	"421579"	"0.0-5.0-2.0-1.20"	"34wwc5"	"600"	"1366"	"chrome"	"108.0.0"	"FALSE"	"Windows 10"	"60.43"	"132"	n/a	n/a	n/a	n/a	n/a	n/a	"Trial"	n/a	n/a	n/a	"399"	"arrowup"	n/a	"NULL"	"NULL"	"NULL"	"stimuli/MullerLyer_-14.12857_0.23665.png"	n/a	"MullerLyer"	"arrowup"	"1495"	"TRUE"	"MullerLyer"	"-14.12857000"	"0.2366500000"	"1"	"39"
n/a	"html-keyboard-response"	"95"	"423009"	"0.0-5.0-2.0-0.21"	"34wwc5"	"600"	"1366"	"chrome"	"108.0.0"	"FALSE"	"Windows 10"	"60.43"	"132"	n/a	n/a	n/a	n/a	n/a	n/a	"fixation"	n/a	n/a	n/a	n/a	"NULL"	n/a	"NULL"	"NULL"	"NULL"	"<p style=\"color: black; font-size: 80px; padding-left: 46%; padding-right: 27%; padding-top: 43%; padding-bottom: 8%\">+</p>"	"1418"	n/a	n/a	n/a	n/a	n/a	n/a	n/a	n/a	n/a
n/a	"image-keyboard-response"	"96"	"423466"	"0.0-5.0-2.0-1.21"	"34wwc5"	"600"	"1366"	"chrome"	"108.0.0"	"FALSE"	"Windows 10"	"60.43"	"132"	n/a	n/a	n/a	n/a	n/a	n/a	"Trial"	n/a	n/a	n/a	"456"	"arrowdown"	n/a	"NULL"	"NULL"	"NULL"	"stimuli/MullerLyer_2.30000_-0.3500.png"	n/a	"MullerLyer"	"arrowdown"	"1430"	"TRUE"	"MullerLyer"	"2.3000000000"	"-0.350000000"	"1"	"40"
n/a	"html-keyboard-response"	"97"	"424681"	"0.0-5.0-2.0-0.22"	"34wwc5"	"600"	"1366"	"chrome"	"108.0.0"	"FALSE"	"Windows 10"	"60.43"	"132"	n/a	n/a	n/a	n/a	n/a	n/a	"fixation"	n/a	n/a	n/a	n/a	"NULL"	n/a	"NULL"	"NULL"	"NULL"	"<p style=\"color: black; font-size: 80px; padding-left: 5%; padding-right: 3%; padding-top: 31%; padding-bottom: 14%\">+</p>"	"1199"	n/a	n/a	n/a	n/a	n/a	n/a	n/a	n/a	n/a
n/a	"image-keyboard-response"	"98"	"425190"	"0.0-5.0-2.0-1.22"	"34wwc5"	"600"	"1366"	"chrome"	"108.0.0"	"FALSE"	"Windows 10"	"60.43"	"132"	n/a	n/a	n/a	n/a	n/a	n/a	"Trial"	n/a	n/a	n/a	"508"	"arrowup"	n/a	"NULL"	"NULL"	"NULL"	"stimuli/MullerLyer_-2.3000_0.14541.png"	n/a	"MullerLyer"	"arrowup"	"1215"	"TRUE"	"MullerLyer"	"-2.300000000"	"0.1454100000"	"1"	"41"
n/a	"html-keyboard-response"	"99"	"426396"	"0.0-5.0-2.0-0.23"	"34wwc5"	"600"	"1366"	"chrome"	"108.0.0"	"FALSE"	"Windows 10"	"60.43"	"132"	n/a	n/a	n/a	n/a	n/a	n/a	"fixation"	n/a	n/a	n/a	n/a	"NULL"	n/a	"NULL"	"NULL"	"NULL"	"<p style=\"color: black; font-size: 80px; padding-left: 44%; padding-right: 8%; padding-top: 26%; padding-bottom: 5%\">+</p>"	"1196"	n/a	n/a	n/a	n/a	n/a	n/a	n/a	n/a	n/a
n/a	"image-keyboard-response"	"100"	"426787"	"0.0-5.0-2.0-1.23"	"34wwc5"	"600"	"1366"	"chrome"	"108.0.0"	"FALSE"	"Windows 10"	"60.43"	"132"	n/a	n/a	n/a	n/a	n/a	n/a	"Trial"	n/a	n/a	n/a	"390"	"arrowup"	n/a	"NULL"	"NULL"	"NULL"	"stimuli/MullerLyer_-14.12857_0.07627.png"	n/a	"MullerLyer"	"arrowup"	"1206"	"TRUE"	"MullerLyer"	"-14.12857000"	"0.0762700000"	"1"	"42"
n/a	"html-keyboard-response"	"101"	"428285"	"0.0-5.0-2.0-0.24"	"34wwc5"	"600"	"1366"	"chrome"	"108.0.0"	"FALSE"	"Windows 10"	"60.43"	"132"	n/a	n/a	n/a	n/a	n/a	n/a	"fixation"	n/a	n/a	n/a	n/a	"NULL"	n/a	"NULL"	"NULL"	"NULL"	"<p style=\"color: black; font-size: 80px; padding-left: 38%; padding-right: 18%; padding-top: 3%; padding-bottom: 42%\">+</p>"	"1488"	n/a	n/a	n/a	n/a	n/a	n/a	n/a	n/a	n/a
n/a	"image-keyboard-response"	"102"	"428730"	"0.0-5.0-2.0-1.24"	"34wwc5"	"600"	"1366"	"chrome"	"108.0.0"	"FALSE"	"Windows 10"	"60.43"	"132"	n/a	n/a	n/a	n/a	n/a	n/a	"Trial"	n/a	n/a	n/a	"442"	"arrowup"	n/a	"NULL"	"NULL"	"NULL"	"stimuli/MullerLyer_-8.21429_0.14541.png"	n/a	"MullerLyer"	"arrowup"	"1498"	"TRUE"	"MullerLyer"	"-8.214290000"	"0.1454100000"	"1"	"43"
n/a	"html-keyboard-response"	"103"	"430148"	"0.0-5.0-2.0-0.25"	"34wwc5"	"600"	"1366"	"chrome"	"108.0.0"	"FALSE"	"Windows 10"	"60.43"	"132"	n/a	n/a	n/a	n/a	n/a	n/a	"fixation"	n/a	n/a	n/a	n/a	"NULL"	n/a	"NULL"	"NULL"	"NULL"	"<p style=\"color: black; font-size: 80px; padding-left: 48%; padding-right: 42%; padding-top: 19%; padding-bottom: 4%\">+</p>"	"1403"	n/a	n/a	n/a	n/a	n/a	n/a	n/a	n/a	n/a
n/a	"image-keyboard-response"	"104"	"430647"	"0.0-5.0-2.0-1.25"	"34wwc5"	"600"	"1366"	"chrome"	"108.0.0"	"FALSE"	"Windows 10"	"60.43"	"132"	n/a	n/a	n/a	n/a	n/a	n/a	"Trial"	n/a	n/a	n/a	"499"	"arrowdown"	n/a	"NULL"	"NULL"	"NULL"	"stimuli/MullerLyer_8.21429_0.07627.png"	n/a	"MullerLyer"	"arrowup"	"1418"	"FALSE"	"MullerLyer"	"8.2142900000"	"0.0762700000"	"1"	"44"
n/a	"html-keyboard-response"	"105"	"432060"	"0.0-5.0-2.0-0.26"	"34wwc5"	"600"	"1366"	"chrome"	"108.0.0"	"FALSE"	"Windows 10"	"60.43"	"132"	n/a	n/a	n/a	n/a	n/a	n/a	"fixation"	n/a	n/a	n/a	n/a	"NULL"	n/a	"NULL"	"NULL"	"NULL"	"<p style=\"color: black; font-size: 80px; padding-left: 9%; padding-right: 45%; padding-top: 26%; padding-bottom: 18%\">+</p>"	"1405"	n/a	n/a	n/a	n/a	n/a	n/a	n/a	n/a	n/a
n/a	"image-keyboard-response"	"106"	"432558"	"0.0-5.0-2.0-1.26"	"34wwc5"	"600"	"1366"	"chrome"	"108.0.0"	"FALSE"	"Windows 10"	"60.43"	"132"	n/a	n/a	n/a	n/a	n/a	n/a	"Trial"	n/a	n/a	n/a	"496"	"arrowdown"	n/a	"NULL"	"NULL"	"NULL"	"stimuli/MullerLyer_-20.04286_-0.14541.png"	n/a	"MullerLyer"	"arrowdown"	"1413"	"TRUE"	"MullerLyer"	"-20.04286000"	"-0.145410000"	"1"	"45"
n/a	"html-keyboard-response"	"107"	"433798"	"0.0-5.0-2.0-0.27"	"34wwc5"	"600"	"1366"	"chrome"	"108.0.0"	"FALSE"	"Windows 10"	"60.43"	"132"	n/a	n/a	n/a	n/a	n/a	n/a	"fixation"	n/a	n/a	n/a	n/a	"NULL"	n/a	"NULL"	"NULL"	"NULL"	"<p style=\"color: black; font-size: 80px; padding-left: 19%; padding-right: 15%; padding-top: 22%; padding-bottom: 19%\">+</p>"	"1222"	n/a	n/a	n/a	n/a	n/a	n/a	n/a	n/a	n/a
n/a	"image-keyboard-response"	"108"	"434240"	"0.0-5.0-2.0-1.27"	"34wwc5"	"600"	"1366"	"chrome"	"108.0.0"	"FALSE"	"Windows 10"	"60.43"	"132"	n/a	n/a	n/a	n/a	n/a	n/a	"Trial"	n/a	n/a	n/a	"442"	"arrowup"	n/a	"NULL"	"NULL"	"NULL"	"stimuli/MullerLyer_-8.21429_0.07627.png"	n/a	"MullerLyer"	"arrowup"	"1240"	"TRUE"	"MullerLyer"	"-8.214290000"	"0.0762700000"	"1"	"46"
n/a	"html-keyboard-response"	"109"	"435631"	"0.0-5.0-2.0-0.28"	"34wwc5"	"600"	"1366"	"chrome"	"108.0.0"	"FALSE"	"Windows 10"	"60.43"	"132"	n/a	n/a	n/a	n/a	n/a	n/a	"fixation"	n/a	n/a	n/a	n/a	"NULL"	n/a	"NULL"	"NULL"	"NULL"	"<p style=\"color: black; font-size: 80px; padding-left: 16%; padding-right: 32%; padding-top: 14%; padding-bottom: 15%\">+</p>"	"1380"	n/a	n/a	n/a	n/a	n/a	n/a	n/a	n/a	n/a
n/a	"image-keyboard-response"	"110"	"436099"	"0.0-5.0-2.0-1.28"	"34wwc5"	"600"	"1366"	"chrome"	"108.0.0"	"FALSE"	"Windows 10"	"60.43"	"132"	n/a	n/a	n/a	n/a	n/a	n/a	"Trial"	n/a	n/a	n/a	"467"	"arrowup"	n/a	"NULL"	"NULL"	"NULL"	"stimuli/MullerLyer_14.12857_-0.14541.png"	n/a	"MullerLyer"	"arrowdown"	"1391"	"FALSE"	"MullerLyer"	"14.128570000"	"-0.145410000"	"1"	"47"
n/a	"html-keyboard-response"	"111"	"437616"	"0.0-5.0-2.0-0.29"	"34wwc5"	"600"	"1366"	"chrome"	"108.0.0"	"FALSE"	"Windows 10"	"60.43"	"132"	n/a	n/a	n/a	n/a	n/a	n/a	"fixation"	n/a	n/a	n/a	n/a	"NULL"	n/a	"NULL"	"NULL"	"NULL"	"<p style=\"color: black; font-size: 80px; padding-left: 46%; padding-right: 30%; padding-top: 47%; padding-bottom: 32%\">+</p>"	"1500"	n/a	n/a	n/a	n/a	n/a	n/a	n/a	n/a	n/a
n/a	"image-keyboard-response"	"112"	"438186"	"0.0-5.0-2.0-1.29"	"34wwc5"	"600"	"1366"	"chrome"	"108.0.0"	"FALSE"	"Windows 10"	"60.43"	"132"	n/a	n/a	n/a	n/a	n/a	n/a	"Trial"	n/a	n/a	n/a	"569"	"arrowdown"	n/a	"NULL"	"NULL"	"NULL"	"stimuli/MullerLyer_-2.3000_-0.07627.png"	n/a	"MullerLyer"	"arrowdown"	"1517"	"TRUE"	"MullerLyer"	"-2.300000000"	"-0.076270000"	"1"	"48"
n/a	"html-keyboard-response"	"113"	"439323"	"0.0-5.0-2.0-0.30"	"34wwc5"	"600"	"1366"	"chrome"	"108.0.0"	"FALSE"	"Windows 10"	"60.43"	"132"	n/a	n/a	n/a	n/a	n/a	n/a	"fixation"	n/a	n/a	n/a	n/a	"NULL"	n/a	"NULL"	"NULL"	"NULL"	"<p style=\"color: black; font-size: 80px; padding-left: 11%; padding-right: 32%; padding-top: 31%; padding-bottom: 25%\">+</p>"	"1131"	n/a	n/a	n/a	n/a	n/a	n/a	n/a	n/a	n/a
n/a	"image-keyboard-response"	"114"	"439900"	"0.0-5.0-2.0-1.30"	"34wwc5"	"600"	"1366"	"chrome"	"108.0.0"	"FALSE"	"Windows 10"	"60.43"	"132"	n/a	n/a	n/a	n/a	n/a	n/a	"Trial"	n/a	n/a	n/a	"577"	"arrowdown"	n/a	"NULL"	"NULL"	"NULL"	"stimuli/MullerLyer_2.30000_-0.14541.png"	n/a	"MullerLyer"	"arrowdown"	"1137"	"TRUE"	"MullerLyer"	"2.3000000000"	"-0.145410000"	"1"	"49"
n/a	"html-keyboard-response"	"115"	"440960"	"0.0-5.0-2.0-0.31"	"34wwc5"	"600"	"1366"	"chrome"	"108.0.0"	"FALSE"	"Windows 10"	"60.43"	"132"	n/a	n/a	n/a	n/a	n/a	n/a	"fixation"	n/a	n/a	n/a	n/a	"NULL"	n/a	"NULL"	"NULL"	"NULL"	"<p style=\"color: black; font-size: 80px; padding-left: 49%; padding-right: 24%; padding-top: 7%; padding-bottom: 6%\">+</p>"	"1052"	n/a	n/a	n/a	n/a	n/a	n/a	n/a	n/a	n/a
n/a	"image-keyboard-response"	"116"	"441392"	"0.0-5.0-2.0-1.31"	"34wwc5"	"600"	"1366"	"chrome"	"108.0.0"	"FALSE"	"Windows 10"	"60.43"	"132"	n/a	n/a	n/a	n/a	n/a	n/a	"Trial"	n/a	n/a	n/a	"430"	"arrowdown"	n/a	"NULL"	"NULL"	"NULL"	"stimuli/MullerLyer_-20.04286_-0.3500.png"	n/a	"MullerLyer"	"arrowdown"	"1060"	"TRUE"	"MullerLyer"	"-20.04286000"	"-0.350000000"	"1"	"50"
n/a	"html-keyboard-response"	"117"	"442658"	"0.0-5.0-2.0-0.32"	"34wwc5"	"600"	"1366"	"chrome"	"108.0.0"	"FALSE"	"Windows 10"	"60.43"	"132"	n/a	n/a	n/a	n/a	n/a	n/a	"fixation"	n/a	n/a	n/a	n/a	"NULL"	n/a	"NULL"	"NULL"	"NULL"	"<p style=\"color: black; font-size: 80px; padding-left: 39%; padding-right: 34%; padding-top: 25%; padding-bottom: 46%\">+</p>"	"1250"	n/a	n/a	n/a	n/a	n/a	n/a	n/a	n/a	n/a
n/a	"image-keyboard-response"	"118"	"443138"	"0.0-5.0-2.0-1.32"	"34wwc5"	"600"	"1366"	"chrome"	"108.0.0"	"FALSE"	"Windows 10"	"60.43"	"132"	n/a	n/a	n/a	n/a	n/a	n/a	"Trial"	n/a	n/a	n/a	"475"	"arrowup"	n/a	"NULL"	"NULL"	"NULL"	"stimuli/MullerLyer_14.12857_0.23665.png"	n/a	"MullerLyer"	"arrowup"	"1266"	"TRUE"	"MullerLyer"	"14.128570000"	"0.2366500000"	"1"	"51"
n/a	"html-keyboard-response"	"119"	"444632"	"0.0-5.0-2.0-0.33"	"34wwc5"	"600"	"1366"	"chrome"	"108.0.0"	"FALSE"	"Windows 10"	"60.43"	"132"	n/a	n/a	n/a	n/a	n/a	n/a	"fixation"	n/a	n/a	n/a	n/a	"NULL"	n/a	"NULL"	"NULL"	"NULL"	"<p style=\"color: black; font-size: 80px; padding-left: 6%; padding-right: 30%; padding-top: 25%; padding-bottom: 50%\">+</p>"	"1480"	n/a	n/a	n/a	n/a	n/a	n/a	n/a	n/a	n/a
n/a	"image-keyboard-response"	"120"	"445167"	"0.0-5.0-2.0-1.33"	"34wwc5"	"600"	"1366"	"chrome"	"108.0.0"	"FALSE"	"Windows 10"	"60.43"	"132"	n/a	n/a	n/a	n/a	n/a	n/a	"Trial"	n/a	n/a	n/a	"534"	"arrowdown"	n/a	"NULL"	"NULL"	"NULL"	"stimuli/MullerLyer_2.30000_-0.23665.png"	n/a	"MullerLyer"	"arrowdown"	"1494"	"TRUE"	"MullerLyer"	"2.3000000000"	"-0.236650000"	"1"	"52"
n/a	"html-keyboard-response"	"121"	"446506"	"0.0-5.0-2.0-0.34"	"34wwc5"	"600"	"1366"	"chrome"	"108.0.0"	"FALSE"	"Windows 10"	"60.43"	"132"	n/a	n/a	n/a	n/a	n/a	n/a	"fixation"	n/a	n/a	n/a	n/a	"NULL"	n/a	"NULL"	"NULL"	"NULL"	"<p style=\"color: black; font-size: 80px; padding-left: 26%; padding-right: 31%; padding-top: 25%; padding-bottom: 16%\">+</p>"	"1324"	n/a	n/a	n/a	n/a	n/a	n/a	n/a	n/a	n/a
n/a	"image-keyboard-response"	"122"	"446970"	"0.0-5.0-2.0-1.34"	"34wwc5"	"600"	"1366"	"chrome"	"108.0.0"	"FALSE"	"Windows 10"	"60.43"	"132"	n/a	n/a	n/a	n/a	n/a	n/a	"Trial"	n/a	n/a	n/a	"463"	"arrowup"	n/a	"NULL"	"NULL"	"NULL"	"stimuli/MullerLyer_2.30000_0.23665.png"	n/a	"MullerLyer"	"arrowup"	"1339"	"TRUE"	"MullerLyer"	"2.3000000000"	"0.2366500000"	"1"	"53"
n/a	"html-keyboard-response"	"123"	"448086"	"0.0-5.0-2.0-0.35"	"34wwc5"	"600"	"1366"	"chrome"	"108.0.0"	"FALSE"	"Windows 10"	"60.43"	"132"	n/a	n/a	n/a	n/a	n/a	n/a	"fixation"	n/a	n/a	n/a	n/a	"NULL"	n/a	"NULL"	"NULL"	"NULL"	"<p style=\"color: black; font-size: 80px; padding-left: 49%; padding-right: 6%; padding-top: 15%; padding-bottom: 42%\">+</p>"	"1097"	n/a	n/a	n/a	n/a	n/a	n/a	n/a	n/a	n/a
n/a	"image-keyboard-response"	"124"	"448554"	"0.0-5.0-2.0-1.35"	"34wwc5"	"600"	"1366"	"chrome"	"108.0.0"	"FALSE"	"Windows 10"	"60.43"	"132"	n/a	n/a	n/a	n/a	n/a	n/a	"Trial"	n/a	n/a	n/a	"467"	"arrowdown"	n/a	"NULL"	"NULL"	"NULL"	"stimuli/MullerLyer_-14.12857_-0.07627.png"	n/a	"MullerLyer"	"arrowdown"	"1116"	"TRUE"	"MullerLyer"	"-14.12857000"	"-0.076270000"	"1"	"54"
n/a	"html-keyboard-response"	"125"	"449884"	"0.0-5.0-2.0-0.36"	"34wwc5"	"600"	"1366"	"chrome"	"108.0.0"	"FALSE"	"Windows 10"	"60.43"	"132"	n/a	n/a	n/a	n/a	n/a	n/a	"fixation"	n/a	n/a	n/a	n/a	"NULL"	n/a	"NULL"	"NULL"	"NULL"	"<p style=\"color: black; font-size: 80px; padding-left: 36%; padding-right: 25%; padding-top: 30%; padding-bottom: 10%\">+</p>"	"1321"	n/a	n/a	n/a	n/a	n/a	n/a	n/a	n/a	n/a
n/a	"image-keyboard-response"	"126"	"450272"	"0.0-5.0-2.0-1.36"	"34wwc5"	"600"	"1366"	"chrome"	"108.0.0"	"FALSE"	"Windows 10"	"60.43"	"132"	n/a	n/a	n/a	n/a	n/a	n/a	"Trial"	n/a	n/a	n/a	"386"	"arrowup"	n/a	"NULL"	"NULL"	"NULL"	"stimuli/MullerLyer_-14.12857_0.14541.png"	n/a	"MullerLyer"	"arrowup"	"1330"	"TRUE"	"MullerLyer"	"-14.12857000"	"0.1454100000"	"1"	"55"
n/a	"html-keyboard-response"	"127"	"451334"	"0.0-5.0-2.0-0.37"	"34wwc5"	"600"	"1366"	"chrome"	"108.0.0"	"FALSE"	"Windows 10"	"60.43"	"132"	n/a	n/a	n/a	n/a	n/a	n/a	"fixation"	n/a	n/a	n/a	n/a	"NULL"	n/a	"NULL"	"NULL"	"NULL"	"<p style=\"color: black; font-size: 80px; padding-left: 45%; padding-right: 29%; padding-top: 1%; padding-bottom: 20%\">+</p>"	"1045"	n/a	n/a	n/a	n/a	n/a	n/a	n/a	n/a	n/a
n/a	"image-keyboard-response"	"128"	"451786"	"0.0-5.0-2.0-1.37"	"34wwc5"	"600"	"1366"	"chrome"	"108.0.0"	"FALSE"	"Windows 10"	"60.43"	"132"	n/a	n/a	n/a	n/a	n/a	n/a	"Trial"	n/a	n/a	n/a	"451"	"arrowdown"	n/a	"NULL"	"NULL"	"NULL"	"stimuli/MullerLyer_8.21429_-0.07627.png"	n/a	"MullerLyer"	"arrowdown"	"1062"	"TRUE"	"MullerLyer"	"8.2142900000"	"-0.076270000"	"1"	"56"
n/a	"html-keyboard-response"	"129"	"453264"	"0.0-5.0-2.0-0.38"	"34wwc5"	"600"	"1366"	"chrome"	"108.0.0"	"FALSE"	"Windows 10"	"60.43"	"132"	n/a	n/a	n/a	n/a	n/a	n/a	"fixation"	n/a	n/a	n/a	n/a	"NULL"	n/a	"NULL"	"NULL"	"NULL"	"<p style=\"color: black; font-size: 80px; padding-left: 39%; padding-right: 42%; padding-top: 14%; padding-bottom: 28%\">+</p>"	"1461"	n/a	n/a	n/a	n/a	n/a	n/a	n/a	n/a	n/a
n/a	"image-keyboard-response"	"130"	"453830"	"0.0-5.0-2.0-1.38"	"34wwc5"	"600"	"1366"	"chrome"	"108.0.0"	"FALSE"	"Windows 10"	"60.43"	"132"	n/a	n/a	n/a	n/a	n/a	n/a	"Trial"	n/a	n/a	n/a	"566"	"arrowup"	n/a	"NULL"	"NULL"	"NULL"	"stimuli/MullerLyer_14.12857_0.35000.png"	n/a	"MullerLyer"	"arrowup"	"1478"	"TRUE"	"MullerLyer"	"14.128570000"	"0.3500000000"	"1"	"57"
n/a	"html-keyboard-response"	"131"	"455210"	"0.0-5.0-2.0-0.39"	"34wwc5"	"600"	"1366"	"chrome"	"108.0.0"	"FALSE"	"Windows 10"	"60.43"	"132"	n/a	n/a	n/a	n/a	n/a	n/a	"fixation"	n/a	n/a	n/a	n/a	"NULL"	n/a	"NULL"	"NULL"	"NULL"	"<p style=\"color: black; font-size: 80px; padding-left: 45%; padding-right: 34%; padding-top: 6%; padding-bottom: 14%\">+</p>"	"1376"	n/a	n/a	n/a	n/a	n/a	n/a	n/a	n/a	n/a
n/a	"image-keyboard-response"	"132"	"455734"	"0.0-5.0-2.0-1.39"	"34wwc5"	"600"	"1366"	"chrome"	"108.0.0"	"FALSE"	"Windows 10"	"60.43"	"132"	n/a	n/a	n/a	n/a	n/a	n/a	"Trial"	n/a	n/a	n/a	"522"	"arrowup"	n/a	"NULL"	"NULL"	"NULL"	"stimuli/MullerLyer_-2.3000_0.35000.png"	n/a	"MullerLyer"	"arrowup"	"1380"	"TRUE"	"MullerLyer"	"-2.300000000"	"0.3500000000"	"1"	"58"
n/a	"html-keyboard-response"	"133"	"457069"	"0.0-5.0-2.0-0.40"	"34wwc5"	"600"	"1366"	"chrome"	"108.0.0"	"FALSE"	"Windows 10"	"60.43"	"132"	n/a	n/a	n/a	n/a	n/a	n/a	"fixation"	n/a	n/a	n/a	n/a	"NULL"	n/a	"NULL"	"NULL"	"NULL"	"<p style=\"color: black; font-size: 80px; padding-left: 22%; padding-right: 3%; padding-top: 14%; padding-bottom: 5%\">+</p>"	"1316"	n/a	n/a	n/a	n/a	n/a	n/a	n/a	n/a	n/a
n/a	"image-keyboard-response"	"134"	"457564"	"0.0-5.0-2.0-1.40"	"34wwc5"	"600"	"1366"	"chrome"	"108.0.0"	"FALSE"	"Windows 10"	"60.43"	"132"	n/a	n/a	n/a	n/a	n/a	n/a	"Trial"	n/a	n/a	n/a	"495"	"arrowdown"	n/a	"NULL"	"NULL"	"NULL"	"stimuli/MullerLyer_-8.21429_-0.14541.png"	n/a	"MullerLyer"	"arrowdown"	"1335"	"TRUE"	"MullerLyer"	"-8.214290000"	"-0.145410000"	"1"	"59"
n/a	"html-keyboard-response"	"135"	"458821"	"0.0-5.0-2.0-0.41"	"34wwc5"	"600"	"1366"	"chrome"	"108.0.0"	"FALSE"	"Windows 10"	"60.43"	"132"	n/a	n/a	n/a	n/a	n/a	n/a	"fixation"	n/a	n/a	n/a	n/a	"NULL"	n/a	"NULL"	"NULL"	"NULL"	"<p style=\"color: black; font-size: 80px; padding-left: 11%; padding-right: 13%; padding-top: 42%; padding-bottom: 23%\">+</p>"	"1250"	n/a	n/a	n/a	n/a	n/a	n/a	n/a	n/a	n/a
n/a	"image-keyboard-response"	"136"	"459299"	"0.0-5.0-2.0-1.41"	"34wwc5"	"600"	"1366"	"chrome"	"108.0.0"	"FALSE"	"Windows 10"	"60.43"	"132"	n/a	n/a	n/a	n/a	n/a	n/a	"Trial"	n/a	n/a	n/a	"475"	"arrowdown"	n/a	"NULL"	"NULL"	"NULL"	"stimuli/MullerLyer_-2.3000_-0.3500.png"	n/a	"MullerLyer"	"arrowdown"	"1257"	"TRUE"	"MullerLyer"	"-2.300000000"	"-0.350000000"	"1"	"60"
n/a	"html-keyboard-response"	"137"	"460744"	"0.0-5.0-2.0-0.42"	"34wwc5"	"600"	"1366"	"chrome"	"108.0.0"	"FALSE"	"Windows 10"	"60.43"	"132"	n/a	n/a	n/a	n/a	n/a	n/a	"fixation"	n/a	n/a	n/a	n/a	"NULL"	n/a	"NULL"	"NULL"	"NULL"	"<p style=\"color: black; font-size: 80px; padding-left: 24%; padding-right: 42%; padding-top: 28%; padding-bottom: 24%\">+</p>"	"1438"	n/a	n/a	n/a	n/a	n/a	n/a	n/a	n/a	n/a
n/a	"image-keyboard-response"	"138"	"461486"	"0.0-5.0-2.0-1.42"	"34wwc5"	"600"	"1366"	"chrome"	"108.0.0"	"FALSE"	"Windows 10"	"60.43"	"132"	n/a	n/a	n/a	n/a	n/a	n/a	"Trial"	n/a	n/a	n/a	"741"	"arrowdown"	n/a	"NULL"	"NULL"	"NULL"	"stimuli/MullerLyer_14.12857_0.14541.png"	n/a	"MullerLyer"	"arrowup"	"1445"	"FALSE"	"MullerLyer"	"14.128570000"	"0.1454100000"	"1"	"61"
n/a	"html-keyboard-response"	"139"	"462678"	"0.0-5.0-2.0-0.43"	"34wwc5"	"600"	"1366"	"chrome"	"108.0.0"	"FALSE"	"Windows 10"	"60.43"	"132"	n/a	n/a	n/a	n/a	n/a	n/a	"fixation"	n/a	n/a	n/a	n/a	"NULL"	n/a	"NULL"	"NULL"	"NULL"	"<p style=\"color: black; font-size: 80px; padding-left: 47%; padding-right: 48%; padding-top: 21%; padding-bottom: 29%\">+</p>"	"1170"	n/a	n/a	n/a	n/a	n/a	n/a	n/a	n/a	n/a
n/a	"image-keyboard-response"	"140"	"463531"	"0.0-5.0-2.0-1.43"	"34wwc5"	"600"	"1366"	"chrome"	"108.0.0"	"FALSE"	"Windows 10"	"60.43"	"132"	n/a	n/a	n/a	n/a	n/a	n/a	"Trial"	n/a	n/a	n/a	"852"	"arrowup"	n/a	"NULL"	"NULL"	"NULL"	"stimuli/MullerLyer_2.30000_-0.07627.png"	n/a	"MullerLyer"	"arrowdown"	"1192"	"FALSE"	"MullerLyer"	"2.3000000000"	"-0.076270000"	"1"	"62"
n/a	"html-keyboard-response"	"141"	"464665"	"0.0-5.0-2.0-0.44"	"34wwc5"	"600"	"1366"	"chrome"	"108.0.0"	"FALSE"	"Windows 10"	"60.43"	"132"	n/a	n/a	n/a	n/a	n/a	n/a	"fixation"	n/a	n/a	n/a	n/a	"NULL"	n/a	"NULL"	"NULL"	"NULL"	"<p style=\"color: black; font-size: 80px; padding-left: 46%; padding-right: 5%; padding-top: 41%; padding-bottom: 36%\">+</p>"	"1127"	n/a	n/a	n/a	n/a	n/a	n/a	n/a	n/a	n/a
n/a	"image-keyboard-response"	"142"	"465200"	"0.0-5.0-2.0-1.44"	"34wwc5"	"600"	"1366"	"chrome"	"108.0.0"	"FALSE"	"Windows 10"	"60.43"	"132"	n/a	n/a	n/a	n/a	n/a	n/a	"Trial"	n/a	n/a	n/a	"533"	"arrowup"	n/a	"NULL"	"NULL"	"NULL"	"stimuli/MullerLyer_-20.04286_0.07627.png"	n/a	"MullerLyer"	"arrowup"	"1134"	"TRUE"	"MullerLyer"	"-20.04286000"	"0.0762700000"	"1"	"63"
n/a	"html-keyboard-response"	"143"	"466274"	"0.0-5.0-2.0-0.45"	"34wwc5"	"600"	"1366"	"chrome"	"108.0.0"	"FALSE"	"Windows 10"	"60.43"	"132"	n/a	n/a	n/a	n/a	n/a	n/a	"fixation"	n/a	n/a	n/a	n/a	"NULL"	n/a	"NULL"	"NULL"	"NULL"	"<p style=\"color: black; font-size: 80px; padding-left: 3%; padding-right: 28%; padding-top: 2%; padding-bottom: 32%\">+</p>"	"1056"	n/a	n/a	n/a	n/a	n/a	n/a	n/a	n/a	n/a
n/a	"image-keyboard-response"	"144"	"466906"	"0.0-5.0-2.0-1.45"	"34wwc5"	"600"	"1366"	"chrome"	"108.0.0"	"FALSE"	"Windows 10"	"60.43"	"132"	n/a	n/a	n/a	n/a	n/a	n/a	"Trial"	n/a	n/a	n/a	"630"	"arrowup"	n/a	"NULL"	"NULL"	"NULL"	"stimuli/MullerLyer_2.30000_0.35000.png"	n/a	"MullerLyer"	"arrowup"	"1074"	"TRUE"	"MullerLyer"	"2.3000000000"	"0.3500000000"	"1"	"64"
n/a	"html-keyboard-response"	"145"	"468300"	"0.0-5.0-2.0-0.46"	"34wwc5"	"600"	"1366"	"chrome"	"108.0.0"	"FALSE"	"Windows 10"	"60.43"	"132"	n/a	n/a	n/a	n/a	n/a	n/a	"fixation"	n/a	n/a	n/a	n/a	"NULL"	n/a	"NULL"	"NULL"	"NULL"	"<p style=\"color: black; font-size: 80px; padding-left: 33%; padding-right: 37%; padding-top: 35%; padding-bottom: 2%\">+</p>"	"1386"	n/a	n/a	n/a	n/a	n/a	n/a	n/a	n/a	n/a
n/a	"image-keyboard-response"	"146"	"468854"	"0.0-5.0-2.0-1.46"	"34wwc5"	"600"	"1366"	"chrome"	"108.0.0"	"FALSE"	"Windows 10"	"60.43"	"132"	n/a	n/a	n/a	n/a	n/a	n/a	"Trial"	n/a	n/a	n/a	"552"	"arrowdown"	n/a	"NULL"	"NULL"	"NULL"	"stimuli/MullerLyer_20.04286_-0.3500.png"	n/a	"MullerLyer"	"arrowdown"	"1394"	"TRUE"	"MullerLyer"	"20.042860000"	"-0.350000000"	"1"	"65"
n/a	"html-keyboard-response"	"147"	"470069"	"0.0-5.0-2.0-0.47"	"34wwc5"	"600"	"1366"	"chrome"	"108.0.0"	"FALSE"	"Windows 10"	"60.43"	"132"	n/a	n/a	n/a	n/a	n/a	n/a	"fixation"	n/a	n/a	n/a	n/a	"NULL"	n/a	"NULL"	"NULL"	"NULL"	"<p style=\"color: black; font-size: 80px; padding-left: 42%; padding-right: 19%; padding-top: 44%; padding-bottom: 36%\">+</p>"	"1207"	n/a	n/a	n/a	n/a	n/a	n/a	n/a	n/a	n/a
n/a	"image-keyboard-response"	"148"	"470726"	"0.0-5.0-2.0-1.47"	"34wwc5"	"600"	"1366"	"chrome"	"108.0.0"	"FALSE"	"Windows 10"	"60.43"	"132"	n/a	n/a	n/a	n/a	n/a	n/a	"Trial"	n/a	n/a	n/a	"656"	"arrowdown"	n/a	"NULL"	"NULL"	"NULL"	"stimuli/MullerLyer_-14.12857_-0.3500.png"	n/a	"MullerLyer"	"arrowdown"	"1215"	"TRUE"	"MullerLyer"	"-14.12857000"	"-0.350000000"	"1"	"66"
n/a	"html-keyboard-response"	"149"	"471831"	"0.0-5.0-2.0-0.48"	"34wwc5"	"600"	"1366"	"chrome"	"108.0.0"	"FALSE"	"Windows 10"	"60.43"	"132"	n/a	n/a	n/a	n/a	n/a	n/a	"fixation"	n/a	n/a	n/a	n/a	"NULL"	n/a	"NULL"	"NULL"	"NULL"	"<p style=\"color: black; font-size: 80px; padding-left: 27%; padding-right: 37%; padding-top: 32%; padding-bottom: 17%\">+</p>"	"1093"	n/a	n/a	n/a	n/a	n/a	n/a	n/a	n/a	n/a
n/a	"image-keyboard-response"	"150"	"472362"	"0.0-5.0-2.0-1.48"	"34wwc5"	"600"	"1366"	"chrome"	"108.0.0"	"FALSE"	"Windows 10"	"60.43"	"132"	n/a	n/a	n/a	n/a	n/a	n/a	"Trial"	n/a	n/a	n/a	"526"	"arrowdown"	n/a	"NULL"	"NULL"	"NULL"	"stimuli/MullerLyer_-8.21429_-0.07627.png"	n/a	"MullerLyer"	"arrowdown"	"1105"	"TRUE"	"MullerLyer"	"-8.214290000"	"-0.076270000"	"1"	"67"
n/a	"html-keyboard-response"	"151"	"473807"	"0.0-5.0-2.0-0.49"	"34wwc5"	"600"	"1366"	"chrome"	"108.0.0"	"FALSE"	"Windows 10"	"60.43"	"132"	n/a	n/a	n/a	n/a	n/a	n/a	"fixation"	n/a	n/a	n/a	n/a	"NULL"	n/a	"NULL"	"NULL"	"NULL"	"<p style=\"color: black; font-size: 80px; padding-left: 47%; padding-right: 42%; padding-top: 8%; padding-bottom: 6%\">+</p>"	"1430"	n/a	n/a	n/a	n/a	n/a	n/a	n/a	n/a	n/a
n/a	"image-keyboard-response"	"152"	"474489"	"0.0-5.0-2.0-1.49"	"34wwc5"	"600"	"1366"	"chrome"	"108.0.0"	"FALSE"	"Windows 10"	"60.43"	"132"	n/a	n/a	n/a	n/a	n/a	n/a	"Trial"	n/a	n/a	n/a	"682"	"arrowdown"	n/a	"NULL"	"NULL"	"NULL"	"stimuli/MullerLyer_8.21429_-0.3500.png"	n/a	"MullerLyer"	"arrowdown"	"1445"	"TRUE"	"MullerLyer"	"8.2142900000"	"-0.350000000"	"1"	"68"
n/a	"html-keyboard-response"	"153"	"475691"	"0.0-5.0-2.0-0.50"	"34wwc5"	"600"	"1366"	"chrome"	"108.0.0"	"FALSE"	"Windows 10"	"60.43"	"132"	n/a	n/a	n/a	n/a	n/a	n/a	"fixation"	n/a	n/a	n/a	n/a	"NULL"	n/a	"NULL"	"NULL"	"NULL"	"<p style=\"color: black; font-size: 80px; padding-left: 34%; padding-right: 30%; padding-top: 1%; padding-bottom: 27%\">+</p>"	"1182"	n/a	n/a	n/a	n/a	n/a	n/a	n/a	n/a	n/a
n/a	"image-keyboard-response"	"154"	"476188"	"0.0-5.0-2.0-1.50"	"34wwc5"	"600"	"1366"	"chrome"	"108.0.0"	"FALSE"	"Windows 10"	"60.43"	"132"	n/a	n/a	n/a	n/a	n/a	n/a	"Trial"	n/a	n/a	n/a	"497"	"arrowup"	n/a	"NULL"	"NULL"	"NULL"	"stimuli/MullerLyer_20.04286_0.35000.png"	n/a	"MullerLyer"	"arrowup"	"1202"	"TRUE"	"MullerLyer"	"20.042860000"	"0.3500000000"	"1"	"69"
n/a	"html-keyboard-response"	"155"	"477247"	"0.0-5.0-2.0-0.51"	"34wwc5"	"600"	"1366"	"chrome"	"108.0.0"	"FALSE"	"Windows 10"	"60.43"	"132"	n/a	n/a	n/a	n/a	n/a	n/a	"fixation"	n/a	n/a	n/a	n/a	"NULL"	n/a	"NULL"	"NULL"	"NULL"	"<p style=\"color: black; font-size: 80px; padding-left: 13%; padding-right: 39%; padding-top: 17%; padding-bottom: 40%\">+</p>"	"1043"	n/a	n/a	n/a	n/a	n/a	n/a	n/a	n/a	n/a
n/a	"image-keyboard-response"	"156"	"478624"	"0.0-5.0-2.0-1.51"	"34wwc5"	"600"	"1366"	"chrome"	"108.0.0"	"FALSE"	"Windows 10"	"60.43"	"132"	n/a	n/a	n/a	n/a	n/a	n/a	"Trial"	n/a	n/a	n/a	"1376"	"arrowup"	n/a	"NULL"	"NULL"	"NULL"	"stimuli/MullerLyer_8.21429_-0.14541.png"	n/a	"MullerLyer"	"arrowdown"	"1059"	"FALSE"	"MullerLyer"	"8.2142900000"	"-0.145410000"	"1"	"70"
n/a	"html-keyboard-response"	"157"	"479663"	"0.0-5.0-2.0-0.52"	"34wwc5"	"600"	"1366"	"chrome"	"108.0.0"	"FALSE"	"Windows 10"	"60.43"	"132"	n/a	n/a	n/a	n/a	n/a	n/a	"fixation"	n/a	n/a	n/a	n/a	"NULL"	n/a	"NULL"	"NULL"	"NULL"	"<p style=\"color: black; font-size: 80px; padding-left: 3%; padding-right: 34%; padding-top: 26%; padding-bottom: 29%\">+</p>"	"1028"	n/a	n/a	n/a	n/a	n/a	n/a	n/a	n/a	n/a
n/a	"image-keyboard-response"	"158"	"480610"	"0.0-5.0-2.0-1.52"	"34wwc5"	"600"	"1366"	"chrome"	"108.0.0"	"FALSE"	"Windows 10"	"60.43"	"132"	n/a	n/a	n/a	n/a	n/a	n/a	"Trial"	n/a	n/a	n/a	"945"	"arrowup"	n/a	"NULL"	"NULL"	"NULL"	"stimuli/MullerLyer_14.12857_-0.07627.png"	n/a	"MullerLyer"	"arrowdown"	"1039"	"FALSE"	"MullerLyer"	"14.128570000"	"-0.076270000"	"1"	"71"
n/a	"html-keyboard-response"	"159"	"482055"	"0.0-5.0-2.0-0.53"	"34wwc5"	"600"	"1366"	"chrome"	"108.0.0"	"FALSE"	"Windows 10"	"60.43"	"132"	n/a	n/a	n/a	n/a	n/a	n/a	"fixation"	n/a	n/a	n/a	n/a	"NULL"	n/a	"NULL"	"NULL"	"NULL"	"<p style=\"color: black; font-size: 80px; padding-left: 49%; padding-right: 39%; padding-top: 16%; padding-bottom: 15%\">+</p>"	"1433"	n/a	n/a	n/a	n/a	n/a	n/a	n/a	n/a	n/a
n/a	"image-keyboard-response"	"160"	"482548"	"0.0-5.0-2.0-1.53"	"34wwc5"	"600"	"1366"	"chrome"	"108.0.0"	"FALSE"	"Windows 10"	"60.43"	"132"	n/a	n/a	n/a	n/a	n/a	n/a	"Trial"	n/a	n/a	n/a	"491"	"arrowdown"	n/a	"NULL"	"NULL"	"NULL"	"stimuli/MullerLyer_-8.21429_-0.23665.png"	n/a	"MullerLyer"	"arrowdown"	"1445"	"TRUE"	"MullerLyer"	"-8.214290000"	"-0.236650000"	"1"	"72"
n/a	"html-keyboard-response"	"161"	"483600"	"0.0-5.0-2.0-0.54"	"34wwc5"	"600"	"1366"	"chrome"	"108.0.0"	"FALSE"	"Windows 10"	"60.43"	"132"	n/a	n/a	n/a	n/a	n/a	n/a	"fixation"	n/a	n/a	n/a	n/a	"NULL"	n/a	"NULL"	"NULL"	"NULL"	"<p style=\"color: black; font-size: 80px; padding-left: 10%; padding-right: 12%; padding-top: 6%; padding-bottom: 27%\">+</p>"	"1050"	n/a	n/a	n/a	n/a	n/a	n/a	n/a	n/a	n/a
n/a	"image-keyboard-response"	"162"	"484046"	"0.0-5.0-2.0-1.54"	"34wwc5"	"600"	"1366"	"chrome"	"108.0.0"	"FALSE"	"Windows 10"	"60.43"	"132"	n/a	n/a	n/a	n/a	n/a	n/a	"Trial"	n/a	n/a	n/a	"444"	"arrowup"	n/a	"NULL"	"NULL"	"NULL"	"stimuli/MullerLyer_-14.12857_0.35000.png"	n/a	"MullerLyer"	"arrowup"	"1052"	"TRUE"	"MullerLyer"	"-14.12857000"	"0.3500000000"	"1"	"73"
n/a	"html-keyboard-response"	"163"	"485145"	"0.0-5.0-2.0-0.55"	"34wwc5"	"600"	"1366"	"chrome"	"108.0.0"	"FALSE"	"Windows 10"	"60.43"	"132"	n/a	n/a	n/a	n/a	n/a	n/a	"fixation"	n/a	n/a	n/a	n/a	"NULL"	n/a	"NULL"	"NULL"	"NULL"	"<p style=\"color: black; font-size: 80px; padding-left: 49%; padding-right: 16%; padding-top: 17%; padding-bottom: 14%\">+</p>"	"1081"	n/a	n/a	n/a	n/a	n/a	n/a	n/a	n/a	n/a
n/a	"image-keyboard-response"	"164"	"485786"	"0.0-5.0-2.0-1.55"	"34wwc5"	"600"	"1366"	"chrome"	"108.0.0"	"FALSE"	"Windows 10"	"60.43"	"132"	n/a	n/a	n/a	n/a	n/a	n/a	"Trial"	n/a	n/a	n/a	"640"	"arrowdown"	n/a	"NULL"	"NULL"	"NULL"	"stimuli/MullerLyer_14.12857_-0.23665.png"	n/a	"MullerLyer"	"arrowdown"	"1099"	"TRUE"	"MullerLyer"	"14.128570000"	"-0.236650000"	"1"	"74"
n/a	"html-keyboard-response"	"165"	"486959"	"0.0-5.0-2.0-0.56"	"34wwc5"	"600"	"1366"	"chrome"	"108.0.0"	"FALSE"	"Windows 10"	"60.43"	"132"	n/a	n/a	n/a	n/a	n/a	n/a	"fixation"	n/a	n/a	n/a	n/a	"NULL"	n/a	"NULL"	"NULL"	"NULL"	"<p style=\"color: black; font-size: 80px; padding-left: 40%; padding-right: 4%; padding-top: 49%; padding-bottom: 28%\">+</p>"	"1153"	n/a	n/a	n/a	n/a	n/a	n/a	n/a	n/a	n/a
n/a	"image-keyboard-response"	"166"	"487512"	"0.0-5.0-2.0-1.56"	"34wwc5"	"600"	"1366"	"chrome"	"108.0.0"	"FALSE"	"Windows 10"	"60.43"	"132"	n/a	n/a	n/a	n/a	n/a	n/a	"Trial"	n/a	n/a	n/a	"545"	"arrowdown"	n/a	"NULL"	"NULL"	"NULL"	"stimuli/MullerLyer_-20.04286_-0.23665.png"	n/a	"MullerLyer"	"arrowdown"	"1173"	"TRUE"	"MullerLyer"	"-20.04286000"	"-0.236650000"	"1"	"75"
n/a	"html-keyboard-response"	"167"	"488793"	"0.0-5.0-2.0-0.57"	"34wwc5"	"600"	"1366"	"chrome"	"108.0.0"	"FALSE"	"Windows 10"	"60.43"	"132"	n/a	n/a	n/a	n/a	n/a	n/a	"fixation"	n/a	n/a	n/a	n/a	"NULL"	n/a	"NULL"	"NULL"	"NULL"	"<p style=\"color: black; font-size: 80px; padding-left: 19%; padding-right: 4%; padding-top: 7%; padding-bottom: 2%\">+</p>"	"1270"	n/a	n/a	n/a	n/a	n/a	n/a	n/a	n/a	n/a
n/a	"image-keyboard-response"	"168"	"489852"	"0.0-5.0-2.0-1.57"	"34wwc5"	"600"	"1366"	"chrome"	"108.0.0"	"FALSE"	"Windows 10"	"60.43"	"132"	n/a	n/a	n/a	n/a	n/a	n/a	"Trial"	n/a	n/a	n/a	"1057"	"arrowdown"	n/a	"NULL"	"NULL"	"NULL"	"stimuli/MullerLyer_14.12857_-0.3500.png"	n/a	"MullerLyer"	"arrowdown"	"1281"	"TRUE"	"MullerLyer"	"14.128570000"	"-0.350000000"	"1"	"76"
n/a	"html-keyboard-response"	"169"	"491194"	"0.0-5.0-2.0-0.58"	"34wwc5"	"600"	"1366"	"chrome"	"108.0.0"	"FALSE"	"Windows 10"	"60.43"	"132"	n/a	n/a	n/a	n/a	n/a	n/a	"fixation"	n/a	n/a	n/a	n/a	"NULL"	n/a	"NULL"	"NULL"	"NULL"	"<p style=\"color: black; font-size: 80px; padding-left: 22%; padding-right: 46%; padding-top: 2%; padding-bottom: 38%\">+</p>"	"1334"	n/a	n/a	n/a	n/a	n/a	n/a	n/a	n/a	n/a
n/a	"image-keyboard-response"	"170"	"491844"	"0.0-5.0-2.0-1.58"	"34wwc5"	"600"	"1366"	"chrome"	"108.0.0"	"FALSE"	"Windows 10"	"60.43"	"132"	n/a	n/a	n/a	n/a	n/a	n/a	"Trial"	n/a	n/a	n/a	"649"	"arrowup"	n/a	"NULL"	"NULL"	"NULL"	"stimuli/MullerLyer_8.21429_0.14541.png"	n/a	"MullerLyer"	"arrowup"	"1342"	"TRUE"	"MullerLyer"	"8.2142900000"	"0.1454100000"	"1"	"77"
n/a	"html-keyboard-response"	"171"	"493335"	"0.0-5.0-2.0-0.59"	"34wwc5"	"600"	"1366"	"chrome"	"108.0.0"	"FALSE"	"Windows 10"	"60.43"	"132"	n/a	n/a	n/a	n/a	n/a	n/a	"fixation"	n/a	n/a	n/a	n/a	"NULL"	n/a	"NULL"	"NULL"	"NULL"	"<p style=\"color: black; font-size: 80px; padding-left: 10%; padding-right: 2%; padding-top: 36%; padding-bottom: 13%\">+</p>"	"1470"	n/a	n/a	n/a	n/a	n/a	n/a	n/a	n/a	n/a
n/a	"image-keyboard-response"	"172"	"493810"	"0.0-5.0-2.0-1.59"	"34wwc5"	"600"	"1366"	"chrome"	"108.0.0"	"FALSE"	"Windows 10"	"60.43"	"132"	n/a	n/a	n/a	n/a	n/a	n/a	"Trial"	n/a	n/a	n/a	"475"	"arrowdown"	n/a	"NULL"	"NULL"	"NULL"	"stimuli/MullerLyer_14.12857_0.07627.png"	n/a	"MullerLyer"	"arrowup"	"1491"	"FALSE"	"MullerLyer"	"14.128570000"	"0.0762700000"	"1"	"78"
n/a	"html-keyboard-response"	"173"	"494882"	"0.0-5.0-2.0-0.60"	"34wwc5"	"600"	"1366"	"chrome"	"108.0.0"	"FALSE"	"Windows 10"	"60.43"	"132"	n/a	n/a	n/a	n/a	n/a	n/a	"fixation"	n/a	n/a	n/a	n/a	"NULL"	n/a	"NULL"	"NULL"	"NULL"	"<p style=\"color: black; font-size: 80px; padding-left: 37%; padding-right: 28%; padding-top: 8%; padding-bottom: 32%\">+</p>"	"1061"	n/a	n/a	n/a	n/a	n/a	n/a	n/a	n/a	n/a
n/a	"image-keyboard-response"	"174"	"495829"	"0.0-5.0-2.0-1.60"	"34wwc5"	"600"	"1366"	"chrome"	"108.0.0"	"FALSE"	"Windows 10"	"60.43"	"132"	n/a	n/a	n/a	n/a	n/a	n/a	"Trial"	n/a	n/a	n/a	"946"	"arrowup"	n/a	"NULL"	"NULL"	"NULL"	"stimuli/MullerLyer_2.30000_0.07627.png"	n/a	"MullerLyer"	"arrowup"	"1072"	"TRUE"	"MullerLyer"	"2.3000000000"	"0.0762700000"	"1"	"79"
n/a	"html-keyboard-response"	"175"	"497324"	"0.0-5.0-2.0-0.61"	"34wwc5"	"600"	"1366"	"chrome"	"108.0.0"	"FALSE"	"Windows 10"	"60.43"	"132"	n/a	n/a	n/a	n/a	n/a	n/a	"fixation"	n/a	n/a	n/a	n/a	"NULL"	n/a	"NULL"	"NULL"	"NULL"	"<p style=\"color: black; font-size: 80px; padding-left: 38%; padding-right: 16%; padding-top: 24%; padding-bottom: 21%\">+</p>"	"1486"	n/a	n/a	n/a	n/a	n/a	n/a	n/a	n/a	n/a
n/a	"image-keyboard-response"	"176"	"497950"	"0.0-5.0-2.0-1.61"	"34wwc5"	"600"	"1366"	"chrome"	"108.0.0"	"FALSE"	"Windows 10"	"60.43"	"132"	n/a	n/a	n/a	n/a	n/a	n/a	"Trial"	n/a	n/a	n/a	"625"	"arrowdown"	n/a	"NULL"	"NULL"	"NULL"	"stimuli/MullerLyer_20.04286_0.07627.png"	n/a	"MullerLyer"	"arrowup"	"1495"	"FALSE"	"MullerLyer"	"20.042860000"	"0.0762700000"	"1"	"80"
n/a	"html-keyboard-response"	"177"	"499366"	"0.0-5.0-2.0-0.62"	"34wwc5"	"600"	"1366"	"chrome"	"108.0.0"	"FALSE"	"Windows 10"	"60.43"	"132"	n/a	n/a	n/a	n/a	n/a	n/a	"fixation"	n/a	n/a	n/a	n/a	"NULL"	n/a	"NULL"	"NULL"	"NULL"	"<p style=\"color: black; font-size: 80px; padding-left: 23%; padding-right: 19%; padding-top: 19%; padding-bottom: 37%\">+</p>"	"1399"	n/a	n/a	n/a	n/a	n/a	n/a	n/a	n/a	n/a
n/a	"image-keyboard-response"	"178"	"500284"	"0.0-5.0-2.0-1.62"	"34wwc5"	"600"	"1366"	"chrome"	"108.0.0"	"FALSE"	"Windows 10"	"60.43"	"132"	n/a	n/a	n/a	n/a	n/a	n/a	"Trial"	n/a	n/a	n/a	"917"	"arrowdown"	n/a	"NULL"	"NULL"	"NULL"	"stimuli/MullerLyer_8.21429_-0.23665.png"	n/a	"MullerLyer"	"arrowdown"	"1416"	"TRUE"	"MullerLyer"	"8.2142900000"	"-0.236650000"	"1"	"81"
n/a	"html-keyboard-response"	"179"	"501475"	"0.0-5.0-2.0-0.63"	"34wwc5"	"600"	"1366"	"chrome"	"108.0.0"	"FALSE"	"Windows 10"	"60.43"	"132"	n/a	n/a	n/a	n/a	n/a	n/a	"fixation"	n/a	n/a	n/a	n/a	"NULL"	n/a	"NULL"	"NULL"	"NULL"	"<p style=\"color: black; font-size: 80px; padding-left: 19%; padding-right: 46%; padding-top: 22%; padding-bottom: 49%\">+</p>"	"1183"	n/a	n/a	n/a	n/a	n/a	n/a	n/a	n/a	n/a
n/a	"image-keyboard-response"	"180"	"501958"	"0.0-5.0-2.0-1.63"	"34wwc5"	"600"	"1366"	"chrome"	"108.0.0"	"FALSE"	"Windows 10"	"60.43"	"132"	n/a	n/a	n/a	n/a	n/a	n/a	"Trial"	n/a	n/a	n/a	"483"	"arrowup"	n/a	"NULL"	"NULL"	"NULL"	"stimuli/MullerLyer_8.21429_0.35000.png"	n/a	"MullerLyer"	"arrowup"	"1191"	"TRUE"	"MullerLyer"	"8.2142900000"	"0.3500000000"	"1"	"82"
n/a	"html-button-response"	"181"	"521103"	"0.0-5.0-3.0"	"34wwc5"	"600"	"1366"	"chrome"	"108.0.0"	"FALSE"	"Windows 10"	"60.43"	"132"	n/a	n/a	n/a	n/a	n/a	n/a	"block_results"	n/a	n/a	n/a	"19137"	"0"	n/a	"NULL"	"NULL"	"NULL"	"<p>Your score for this illusion is <p style=\"color: black; font-size: 48px; font-weight: bold;\">81.9 %</p><hr><p>Can you do better in the next illusion?</p>"	n/a	n/a	n/a	n/a	n/a	n/a	n/a	n/a	n/a	n/a
"TRUE"	"preload"	"182"	"521266"	"0.0-6.0-0.0"	"34wwc5"	"600"	"1366"	"chrome"	"108.0.0"	"FALSE"	"Windows 10"	"60.43"	"132"	n/a	n/a	n/a	n/a	n/a	n/a	n/a	n/a	n/a	n/a	n/a	"NULL"	"FALSE"	"list()"	"list()"	"list()"	n/a	n/a	n/a	n/a	n/a	n/a	n/a	n/a	n/a	n/a	n/a
n/a	"html-keyboard-response"	"183"	"525290"	"0.0-6.0-1.0"	"34wwc5"	"600"	"1366"	"chrome"	"108.0.0"	"FALSE"	"Windows 10"	"60.43"	"132"	n/a	n/a	n/a	n/a	n/a	n/a	n/a	n/a	n/a	n/a	"4023"	"enter"	n/a	"NULL"	"NULL"	"NULL"	"<p><b>Part 2/6</b></p><p>In this part, two red lines will appear side by side.</p><p>Your task is to tell <b>which line is longer</b> in length, regardless of their orientation, as fast as you can, and without making errors.</p><p>Don't get distracted by the orientation of the lines!</p><p>Press <b>the LEFT or the RIGHT arrow</b> to indicate which <b>line is the longer one.</b></p><div style='float: center'><img src='materials/instructions/VerticalHorizontal_Demo.png' height='300'></img><p><img src='utils/answer/answer_leftright_keyboard.PNG' height='150'></img></p><p class='small'>In this example, the correct answer is the <b>LEFT arrow</b>.</p></div><p>Are you ready? <b>Press ENTER to start</b></p>"	n/a	n/a	n/a	n/a	n/a	n/a	n/a	n/a	n/a	n/a
n/a	"html-keyboard-response"	"184"	"526961"	"0.0-6.0-2.0-0.0"	"34wwc5"	"600"	"1366"	"chrome"	"108.0.0"	"FALSE"	"Windows 10"	"60.43"	"132"	n/a	n/a	n/a	n/a	n/a	n/a	"fixation"	n/a	n/a	n/a	n/a	"NULL"	n/a	"NULL"	"NULL"	"NULL"	"<p style=\"color: black; font-size: 80px; padding-left: 13%; padding-right: 41%; padding-top: 31%; padding-bottom: 39%\">+</p>"	"1147"	n/a	n/a	n/a	n/a	n/a	n/a	n/a	n/a	n/a
n/a	"image-keyboard-response"	"185"	"527322"	"0.0-6.0-2.0-1.0"	"34wwc5"	"600"	"1366"	"chrome"	"108.0.0"	"FALSE"	"Windows 10"	"60.43"	"132"	n/a	n/a	n/a	n/a	n/a	n/a	"Trial"	n/a	n/a	n/a	"360"	"arrowleft"	n/a	"NULL"	"NULL"	"NULL"	"stimuli/VerticalHorizontal_20.27143_-0.2250.png"	n/a	"VerticalHorizontal"	"arrowright"	"1671"	"FALSE"	"VerticalHorizontal"	"20.271430000"	"-0.225000000"	"2"	"1"
n/a	"html-keyboard-response"	"186"	"528440"	"0.0-6.0-2.0-0.1"	"34wwc5"	"600"	"1366"	"chrome"	"108.0.0"	"FALSE"	"Windows 10"	"60.43"	"132"	n/a	n/a	n/a	n/a	n/a	n/a	"fixation"	n/a	n/a	n/a	n/a	"NULL"	n/a	"NULL"	"NULL"	"NULL"	"<p style=\"color: black; font-size: 80px; padding-left: 32%; padding-right: 19%; padding-top: 44%; padding-bottom: 40%\">+</p>"	"1111"	n/a	n/a	n/a	n/a	n/a	n/a	n/a	n/a	n/a
n/a	"image-keyboard-response"	"187"	"528979"	"0.0-6.0-2.0-1.1"	"34wwc5"	"600"	"1366"	"chrome"	"108.0.0"	"FALSE"	"Windows 10"	"60.43"	"132"	n/a	n/a	n/a	n/a	n/a	n/a	"Trial"	n/a	n/a	n/a	"537"	"arrowleft"	n/a	"NULL"	"NULL"	"NULL"	"stimuli/VerticalHorizontal_20.27143_-0.0673.png"	n/a	"VerticalHorizontal"	"arrowright"	"1118"	"FALSE"	"VerticalHorizontal"	"20.271430000"	"-0.067300000"	"2"	"2"
n/a	"html-keyboard-response"	"188"	"530266"	"0.0-6.0-2.0-0.2"	"34wwc5"	"600"	"1366"	"chrome"	"108.0.0"	"FALSE"	"Windows 10"	"60.43"	"132"	n/a	n/a	n/a	n/a	n/a	n/a	"fixation"	n/a	n/a	n/a	n/a	"NULL"	n/a	"NULL"	"NULL"	"NULL"	"<p style=\"color: black; font-size: 80px; padding-left: 48%; padding-right: 37%; padding-top: 40%; padding-bottom: 16%\">+</p>"	"1272"	n/a	n/a	n/a	n/a	n/a	n/a	n/a	n/a	n/a
n/a	"image-keyboard-response"	"189"	"530714"	"0.0-6.0-2.0-1.2"	"34wwc5"	"600"	"1366"	"chrome"	"108.0.0"	"FALSE"	"Windows 10"	"60.43"	"132"	n/a	n/a	n/a	n/a	n/a	n/a	"Trial"	n/a	n/a	n/a	"447"	"arrowleft"	n/a	"NULL"	"NULL"	"NULL"	"stimuli/VerticalHorizontal_-20.27143_0.06730.png"	n/a	"VerticalHorizontal"	"arrowleft"	"1287"	"TRUE"	"VerticalHorizontal"	"-20.27143000"	"0.0673000000"	"2"	"3"
n/a	"html-keyboard-response"	"190"	"532022"	"0.0-6.0-2.0-0.3"	"34wwc5"	"600"	"1366"	"chrome"	"108.0.0"	"FALSE"	"Windows 10"	"60.43"	"132"	n/a	n/a	n/a	n/a	n/a	n/a	"fixation"	n/a	n/a	n/a	n/a	"NULL"	n/a	"NULL"	"NULL"	"NULL"	"<p style=\"color: black; font-size: 80px; padding-left: 27%; padding-right: 19%; padding-top: 43%; padding-bottom: 41%\">+</p>"	"1291"	n/a	n/a	n/a	n/a	n/a	n/a	n/a	n/a	n/a
n/a	"image-keyboard-response"	"191"	"532500"	"0.0-6.0-2.0-1.3"	"34wwc5"	"600"	"1366"	"chrome"	"108.0.0"	"FALSE"	"Windows 10"	"60.43"	"132"	n/a	n/a	n/a	n/a	n/a	n/a	"Trial"	n/a	n/a	n/a	"477"	"arrowright"	n/a	"NULL"	"NULL"	"NULL"	"stimuli/VerticalHorizontal_-28.75714_-0.1096.png"	n/a	"VerticalHorizontal"	"arrowright"	"1308"	"TRUE"	"VerticalHorizontal"	"-28.75714000"	"-0.109600000"	"2"	"4"
n/a	"html-keyboard-response"	"192"	"533964"	"0.0-6.0-2.0-0.4"	"34wwc5"	"600"	"1366"	"chrome"	"108.0.0"	"FALSE"	"Windows 10"	"60.43"	"132"	n/a	n/a	n/a	n/a	n/a	n/a	"fixation"	n/a	n/a	n/a	n/a	"NULL"	n/a	"NULL"	"NULL"	"NULL"	"<p style=\"color: black; font-size: 80px; padding-left: 48%; padding-right: 20%; padding-top: 39%; padding-bottom: 28%\">+</p>"	"1461"	n/a	n/a	n/a	n/a	n/a	n/a	n/a	n/a	n/a
n/a	"image-keyboard-response"	"193"	"534879"	"0.0-6.0-2.0-1.4"	"34wwc5"	"600"	"1366"	"chrome"	"108.0.0"	"FALSE"	"Windows 10"	"60.43"	"132"	n/a	n/a	n/a	n/a	n/a	n/a	"Trial"	n/a	n/a	n/a	"914"	"arrowleft"	n/a	"NULL"	"NULL"	"NULL"	"stimuli/VerticalHorizontal_11.78571_0.10960.png"	n/a	"VerticalHorizontal"	"arrowleft"	"1464"	"TRUE"	"VerticalHorizontal"	"11.785710000"	"0.1096000000"	"2"	"5"
n/a	"html-keyboard-response"	"194"	"536382"	"0.0-6.0-2.0-0.5"	"34wwc5"	"600"	"1366"	"chrome"	"108.0.0"	"FALSE"	"Windows 10"	"60.43"	"132"	n/a	n/a	n/a	n/a	n/a	n/a	"fixation"	n/a	n/a	n/a	n/a	"NULL"	n/a	"NULL"	"NULL"	"NULL"	"<p style=\"color: black; font-size: 80px; padding-left: 2%; padding-right: 5%; padding-top: 18%; padding-bottom: 39%\">+</p>"	"1495"	n/a	n/a	n/a	n/a	n/a	n/a	n/a	n/a	n/a
n/a	"image-keyboard-response"	"195"	"536880"	"0.0-6.0-2.0-1.5"	"34wwc5"	"600"	"1366"	"chrome"	"108.0.0"	"FALSE"	"Windows 10"	"60.43"	"132"	n/a	n/a	n/a	n/a	n/a	n/a	"Trial"	n/a	n/a	n/a	"496"	"arrowright"	n/a	"NULL"	"NULL"	"NULL"	"stimuli/VerticalHorizontal_-11.78571_-0.16217.png"	n/a	"VerticalHorizontal"	"arrowright"	"1503"	"TRUE"	"VerticalHorizontal"	"-11.78571000"	"-0.162170000"	"2"	"6"
n/a	"html-keyboard-response"	"196"	"538071"	"0.0-6.0-2.0-0.6"	"34wwc5"	"600"	"1366"	"chrome"	"108.0.0"	"FALSE"	"Windows 10"	"60.43"	"132"	n/a	n/a	n/a	n/a	n/a	n/a	"fixation"	n/a	n/a	n/a	n/a	"NULL"	n/a	"NULL"	"NULL"	"NULL"	"<p style=\"color: black; font-size: 80px; padding-left: 2%; padding-right: 15%; padding-top: 22%; padding-bottom: 43%\">+</p>"	"1182"	n/a	n/a	n/a	n/a	n/a	n/a	n/a	n/a	n/a
n/a	"image-keyboard-response"	"197"	"538584"	"0.0-6.0-2.0-1.6"	"34wwc5"	"600"	"1366"	"chrome"	"108.0.0"	"FALSE"	"Windows 10"	"60.43"	"132"	n/a	n/a	n/a	n/a	n/a	n/a	"Trial"	n/a	n/a	n/a	"511"	"arrowright"	n/a	"NULL"	"NULL"	"NULL"	"stimuli/VerticalHorizontal_-28.75714_-0.16217.png"	n/a	"VerticalHorizontal"	"arrowright"	"1191"	"TRUE"	"VerticalHorizontal"	"-28.75714000"	"-0.162170000"	"2"	"7"
n/a	"html-keyboard-response"	"198"	"539941"	"0.0-6.0-2.0-0.7"	"34wwc5"	"600"	"1366"	"chrome"	"108.0.0"	"FALSE"	"Windows 10"	"60.43"	"132"	n/a	n/a	n/a	n/a	n/a	n/a	"fixation"	n/a	n/a	n/a	n/a	"NULL"	n/a	"NULL"	"NULL"	"NULL"	"<p style=\"color: black; font-size: 80px; padding-left: 21%; padding-right: 27%; padding-top: 27%; padding-bottom: 21%\">+</p>"	"1349"	n/a	n/a	n/a	n/a	n/a	n/a	n/a	n/a	n/a
n/a	"image-keyboard-response"	"199"	"540307"	"0.0-6.0-2.0-1.7"	"34wwc5"	"600"	"1366"	"chrome"	"108.0.0"	"FALSE"	"Windows 10"	"60.43"	"132"	n/a	n/a	n/a	n/a	n/a	n/a	"Trial"	n/a	n/a	n/a	"364"	"arrowright"	n/a	"NULL"	"NULL"	"NULL"	"stimuli/VerticalHorizontal_28.75714_0.10960.png"	n/a	"VerticalHorizontal"	"arrowleft"	"1357"	"FALSE"	"VerticalHorizontal"	"28.757140000"	"0.1096000000"	"2"	"8"
n/a	"html-keyboard-response"	"200"	"541320"	"0.0-6.0-2.0-0.8"	"34wwc5"	"600"	"1366"	"chrome"	"108.0.0"	"FALSE"	"Windows 10"	"60.43"	"132"	n/a	n/a	n/a	n/a	n/a	n/a	"fixation"	n/a	n/a	n/a	n/a	"NULL"	n/a	"NULL"	"NULL"	"NULL"	"<p style=\"color: black; font-size: 80px; padding-left: 20%; padding-right: 26%; padding-top: 49%; padding-bottom: 10%\">+</p>"	"1000"	n/a	n/a	n/a	n/a	n/a	n/a	n/a	n/a	n/a
n/a	"image-keyboard-response"	"201"	"541853"	"0.0-6.0-2.0-1.8"	"34wwc5"	"600"	"1366"	"chrome"	"108.0.0"	"FALSE"	"Windows 10"	"60.43"	"132"	n/a	n/a	n/a	n/a	n/a	n/a	"Trial"	n/a	n/a	n/a	"532"	"arrowright"	n/a	"NULL"	"NULL"	"NULL"	"stimuli/VerticalHorizontal_-20.27143_-0.1096.png"	n/a	"VerticalHorizontal"	"arrowright"	"1013"	"TRUE"	"VerticalHorizontal"	"-20.27143000"	"-0.109600000"	"2"	"9"
n/a	"html-keyboard-response"	"202"	"542890"	"0.0-6.0-2.0-0.9"	"34wwc5"	"600"	"1366"	"chrome"	"108.0.0"	"FALSE"	"Windows 10"	"60.43"	"132"	n/a	n/a	n/a	n/a	n/a	n/a	"fixation"	n/a	n/a	n/a	n/a	"NULL"	n/a	"NULL"	"NULL"	"NULL"	"<p style=\"color: black; font-size: 80px; padding-left: 33%; padding-right: 27%; padding-top: 19%; padding-bottom: 50%\">+</p>"	"1029"	n/a	n/a	n/a	n/a	n/a	n/a	n/a	n/a	n/a
n/a	"image-keyboard-response"	"203"	"543370"	"0.0-6.0-2.0-1.9"	"34wwc5"	"600"	"1366"	"chrome"	"108.0.0"	"FALSE"	"Windows 10"	"60.43"	"132"	n/a	n/a	n/a	n/a	n/a	n/a	"Trial"	n/a	n/a	n/a	"478"	"arrowright"	n/a	"NULL"	"NULL"	"NULL"	"stimuli/VerticalHorizontal_-28.75714_-0.2250.png"	n/a	"VerticalHorizontal"	"arrowright"	"1037"	"TRUE"	"VerticalHorizontal"	"-28.75714000"	"-0.225000000"	"2"	"10"
n/a	"html-keyboard-response"	"204"	"544413"	"0.0-6.0-2.0-0.10"	"34wwc5"	"600"	"1366"	"chrome"	"108.0.0"	"FALSE"	"Windows 10"	"60.43"	"132"	n/a	n/a	n/a	n/a	n/a	n/a	"fixation"	n/a	n/a	n/a	n/a	"NULL"	n/a	"NULL"	"NULL"	"NULL"	"<p style=\"color: black; font-size: 80px; padding-left: 31%; padding-right: 9%; padding-top: 15%; padding-bottom: 32%\">+</p>"	"1025"	n/a	n/a	n/a	n/a	n/a	n/a	n/a	n/a	n/a
n/a	"image-keyboard-response"	"205"	"544831"	"0.0-6.0-2.0-1.10"	"34wwc5"	"600"	"1366"	"chrome"	"108.0.0"	"FALSE"	"Windows 10"	"60.43"	"132"	n/a	n/a	n/a	n/a	n/a	n/a	"Trial"	n/a	n/a	n/a	"416"	"arrowleft"	n/a	"NULL"	"NULL"	"NULL"	"stimuli/VerticalHorizontal_-28.75714_0.16217.png"	n/a	"VerticalHorizontal"	"arrowleft"	"1043"	"TRUE"	"VerticalHorizontal"	"-28.75714000"	"0.1621700000"	"2"	"11"
n/a	"html-keyboard-response"	"206"	"546179"	"0.0-6.0-2.0-0.11"	"34wwc5"	"600"	"1366"	"chrome"	"108.0.0"	"FALSE"	"Windows 10"	"60.43"	"132"	n/a	n/a	n/a	n/a	n/a	n/a	"fixation"	n/a	n/a	n/a	n/a	"NULL"	n/a	"NULL"	"NULL"	"NULL"	"<p style=\"color: black; font-size: 80px; padding-left: 26%; padding-right: 12%; padding-top: 17%; padding-bottom: 49%\">+</p>"	"1334"	n/a	n/a	n/a	n/a	n/a	n/a	n/a	n/a	n/a
n/a	"image-keyboard-response"	"207"	"546785"	"0.0-6.0-2.0-1.11"	"34wwc5"	"600"	"1366"	"chrome"	"108.0.0"	"FALSE"	"Windows 10"	"60.43"	"132"	n/a	n/a	n/a	n/a	n/a	n/a	"Trial"	n/a	n/a	n/a	"606"	"arrowright"	n/a	"NULL"	"NULL"	"NULL"	"stimuli/VerticalHorizontal_3.30000_0.10960.png"	n/a	"VerticalHorizontal"	"arrowleft"	"1348"	"FALSE"	"VerticalHorizontal"	"3.3000000000"	"0.1096000000"	"2"	"12"
n/a	"html-keyboard-response"	"208"	"547920"	"0.0-6.0-2.0-0.12"	"34wwc5"	"600"	"1366"	"chrome"	"108.0.0"	"FALSE"	"Windows 10"	"60.43"	"132"	n/a	n/a	n/a	n/a	n/a	n/a	"fixation"	n/a	n/a	n/a	n/a	"NULL"	n/a	"NULL"	"NULL"	"NULL"	"<p style=\"color: black; font-size: 80px; padding-left: 13%; padding-right: 19%; padding-top: 32%; padding-bottom: 42%\">+</p>"	"1123"	n/a	n/a	n/a	n/a	n/a	n/a	n/a	n/a	n/a
n/a	"image-keyboard-response"	"209"	"548727"	"0.0-6.0-2.0-1.12"	"34wwc5"	"600"	"1366"	"chrome"	"108.0.0"	"FALSE"	"Windows 10"	"60.43"	"132"	n/a	n/a	n/a	n/a	n/a	n/a	"Trial"	n/a	n/a	n/a	"806"	"arrowright"	n/a	"NULL"	"NULL"	"NULL"	"stimuli/VerticalHorizontal_11.78571_-0.1096.png"	n/a	"VerticalHorizontal"	"arrowright"	"1135"	"TRUE"	"VerticalHorizontal"	"11.785710000"	"-0.109600000"	"2"	"13"
n/a	"html-keyboard-response"	"210"	"549823"	"0.0-6.0-2.0-0.13"	"34wwc5"	"600"	"1366"	"chrome"	"108.0.0"	"FALSE"	"Windows 10"	"60.43"	"132"	n/a	n/a	n/a	n/a	n/a	n/a	"fixation"	n/a	n/a	n/a	n/a	"NULL"	n/a	"NULL"	"NULL"	"NULL"	"<p style=\"color: black; font-size: 80px; padding-left: 39%; padding-right: 30%; padding-top: 45%; padding-bottom: 17%\">+</p>"	"1085"	n/a	n/a	n/a	n/a	n/a	n/a	n/a	n/a	n/a
n/a	"image-keyboard-response"	"211"	"551221"	"0.0-6.0-2.0-1.13"	"34wwc5"	"600"	"1366"	"chrome"	"108.0.0"	"FALSE"	"Windows 10"	"60.43"	"132"	n/a	n/a	n/a	n/a	n/a	n/a	"Trial"	n/a	n/a	n/a	"1397"	"arrowright"	n/a	"NULL"	"NULL"	"NULL"	"stimuli/VerticalHorizontal_-3.3000_-0.0673.png"	n/a	"VerticalHorizontal"	"arrowright"	"1096"	"TRUE"	"VerticalHorizontal"	"-3.300000000"	"-0.067300000"	"2"	"14"
n/a	"html-keyboard-response"	"212"	"552535"	"0.0-6.0-2.0-0.14"	"34wwc5"	"600"	"1366"	"chrome"	"108.0.0"	"FALSE"	"Windows 10"	"60.43"	"132"	n/a	n/a	n/a	n/a	n/a	n/a	"fixation"	n/a	n/a	n/a	n/a	"NULL"	n/a	"NULL"	"NULL"	"NULL"	"<p style=\"color: black; font-size: 80px; padding-left: 39%; padding-right: 28%; padding-top: 45%; padding-bottom: 15%\">+</p>"	"1291"	n/a	n/a	n/a	n/a	n/a	n/a	n/a	n/a	n/a
n/a	"image-keyboard-response"	"213"	"553036"	"0.0-6.0-2.0-1.14"	"34wwc5"	"600"	"1366"	"chrome"	"108.0.0"	"FALSE"	"Windows 10"	"60.43"	"132"	n/a	n/a	n/a	n/a	n/a	n/a	"Trial"	n/a	n/a	n/a	"499"	"arrowright"	n/a	"NULL"	"NULL"	"NULL"	"stimuli/VerticalHorizontal_-3.3000_-0.2250.png"	n/a	"VerticalHorizontal"	"arrowright"	"1314"	"TRUE"	"VerticalHorizontal"	"-3.300000000"	"-0.225000000"	"2"	"15"
n/a	"html-keyboard-response"	"214"	"554336"	"0.0-6.0-2.0-0.15"	"34wwc5"	"600"	"1366"	"chrome"	"108.0.0"	"FALSE"	"Windows 10"	"60.43"	"132"	n/a	n/a	n/a	n/a	n/a	n/a	"fixation"	n/a	n/a	n/a	n/a	"NULL"	n/a	"NULL"	"NULL"	"NULL"	"<p style=\"color: black; font-size: 80px; padding-left: 18%; padding-right: 33%; padding-top: 15%; padding-bottom: 44%\">+</p>"	"1287"	n/a	n/a	n/a	n/a	n/a	n/a	n/a	n/a	n/a
n/a	"image-keyboard-response"	"215"	"555019"	"0.0-6.0-2.0-1.15"	"34wwc5"	"600"	"1366"	"chrome"	"108.0.0"	"FALSE"	"Windows 10"	"60.43"	"132"	n/a	n/a	n/a	n/a	n/a	n/a	"Trial"	n/a	n/a	n/a	"682"	"arrowright"	n/a	"NULL"	"NULL"	"NULL"	"stimuli/VerticalHorizontal_3.30000_-0.1096.png"	n/a	"VerticalHorizontal"	"arrowright"	"1300"	"TRUE"	"VerticalHorizontal"	"3.3000000000"	"-0.109600000"	"2"	"16"
n/a	"html-keyboard-response"	"216"	"556208"	"0.0-6.0-2.0-0.16"	"34wwc5"	"600"	"1366"	"chrome"	"108.0.0"	"FALSE"	"Windows 10"	"60.43"	"132"	n/a	n/a	n/a	n/a	n/a	n/a	"fixation"	n/a	n/a	n/a	n/a	"NULL"	n/a	"NULL"	"NULL"	"NULL"	"<p style=\"color: black; font-size: 80px; padding-left: 31%; padding-right: 19%; padding-top: 32%; padding-bottom: 17%\">+</p>"	"1179"	n/a	n/a	n/a	n/a	n/a	n/a	n/a	n/a	n/a
n/a	"image-keyboard-response"	"217"	"557035"	"0.0-6.0-2.0-1.16"	"34wwc5"	"600"	"1366"	"chrome"	"108.0.0"	"FALSE"	"Windows 10"	"60.43"	"132"	n/a	n/a	n/a	n/a	n/a	n/a	"Trial"	n/a	n/a	n/a	"826"	"arrowleft"	n/a	"NULL"	"NULL"	"NULL"	"stimuli/VerticalHorizontal_-3.3000_-0.1096.png"	n/a	"VerticalHorizontal"	"arrowright"	"1189"	"FALSE"	"VerticalHorizontal"	"-3.300000000"	"-0.109600000"	"2"	"17"
n/a	"html-keyboard-response"	"218"	"558109"	"0.0-6.0-2.0-0.17"	"34wwc5"	"600"	"1366"	"chrome"	"108.0.0"	"FALSE"	"Windows 10"	"60.43"	"132"	n/a	n/a	n/a	n/a	n/a	n/a	"fixation"	n/a	n/a	n/a	n/a	"NULL"	n/a	"NULL"	"NULL"	"NULL"	"<p style=\"color: black; font-size: 80px; padding-left: 4%; padding-right: 10%; padding-top: 46%; padding-bottom: 35%\">+</p>"	"1065"	n/a	n/a	n/a	n/a	n/a	n/a	n/a	n/a	n/a
n/a	"image-keyboard-response"	"219"	"559424"	"0.0-6.0-2.0-1.17"	"34wwc5"	"600"	"1366"	"chrome"	"108.0.0"	"FALSE"	"Windows 10"	"60.43"	"132"	n/a	n/a	n/a	n/a	n/a	n/a	"Trial"	n/a	n/a	n/a	"1313"	"arrowright"	n/a	"NULL"	"NULL"	"NULL"	"stimuli/VerticalHorizontal_-20.27143_-0.0673.png"	n/a	"VerticalHorizontal"	"arrowright"	"1074"	"TRUE"	"VerticalHorizontal"	"-20.27143000"	"-0.067300000"	"2"	"18"
n/a	"html-keyboard-response"	"220"	"560508"	"0.0-6.0-2.0-0.18"	"34wwc5"	"600"	"1366"	"chrome"	"108.0.0"	"FALSE"	"Windows 10"	"60.43"	"132"	n/a	n/a	n/a	n/a	n/a	n/a	"fixation"	n/a	n/a	n/a	n/a	"NULL"	n/a	"NULL"	"NULL"	"NULL"	"<p style=\"color: black; font-size: 80px; padding-left: 3%; padding-right: 1%; padding-top: 33%; padding-bottom: 31%\">+</p>"	"1070"	n/a	n/a	n/a	n/a	n/a	n/a	n/a	n/a	n/a
n/a	"image-keyboard-response"	"221"	"561482"	"0.0-6.0-2.0-1.18"	"34wwc5"	"600"	"1366"	"chrome"	"108.0.0"	"FALSE"	"Windows 10"	"60.43"	"132"	n/a	n/a	n/a	n/a	n/a	n/a	"Trial"	n/a	n/a	n/a	"972"	"arrowleft"	n/a	"NULL"	"NULL"	"NULL"	"stimuli/VerticalHorizontal_28.75714_0.16217.png"	n/a	"VerticalHorizontal"	"arrowleft"	"1084"	"TRUE"	"VerticalHorizontal"	"28.757140000"	"0.1621700000"	"2"	"19"
n/a	"html-keyboard-response"	"222"	"562964"	"0.0-6.0-2.0-0.19"	"34wwc5"	"600"	"1366"	"chrome"	"108.0.0"	"FALSE"	"Windows 10"	"60.43"	"132"	n/a	n/a	n/a	n/a	n/a	n/a	"fixation"	n/a	n/a	n/a	n/a	"NULL"	n/a	"NULL"	"NULL"	"NULL"	"<p style=\"color: black; font-size: 80px; padding-left: 18%; padding-right: 50%; padding-top: 6%; padding-bottom: 44%\">+</p>"	"1469"	n/a	n/a	n/a	n/a	n/a	n/a	n/a	n/a	n/a
n/a	"image-keyboard-response"	"223"	"564305"	"0.0-6.0-2.0-1.19"	"34wwc5"	"600"	"1366"	"chrome"	"108.0.0"	"FALSE"	"Windows 10"	"60.43"	"132"	n/a	n/a	n/a	n/a	n/a	n/a	"Trial"	n/a	n/a	n/a	"1341"	"arrowright"	n/a	"NULL"	"NULL"	"NULL"	"stimuli/VerticalHorizontal_-11.78571_-0.0673.png"	n/a	"VerticalHorizontal"	"arrowright"	"1482"	"TRUE"	"VerticalHorizontal"	"-11.78571000"	"-0.067300000"	"2"	"20"
n/a	"html-keyboard-response"	"224"	"565814"	"0.0-6.0-2.0-0.20"	"34wwc5"	"600"	"1366"	"chrome"	"108.0.0"	"FALSE"	"Windows 10"	"60.43"	"132"	n/a	n/a	n/a	n/a	n/a	n/a	"fixation"	n/a	n/a	n/a	n/a	"NULL"	n/a	"NULL"	"NULL"	"NULL"	"<p style=\"color: black; font-size: 80px; padding-left: 33%; padding-right: 20%; padding-top: 3%; padding-bottom: 31%\">+</p>"	"1496"	n/a	n/a	n/a	n/a	n/a	n/a	n/a	n/a	n/a
n/a	"image-keyboard-response"	"225"	"566322"	"0.0-6.0-2.0-1.20"	"34wwc5"	"600"	"1366"	"chrome"	"108.0.0"	"FALSE"	"Windows 10"	"60.43"	"132"	n/a	n/a	n/a	n/a	n/a	n/a	"Trial"	n/a	n/a	n/a	"507"	"arrowleft"	n/a	"NULL"	"NULL"	"NULL"	"stimuli/VerticalHorizontal_20.27143_-0.16217.png"	n/a	"VerticalHorizontal"	"arrowright"	"1509"	"FALSE"	"VerticalHorizontal"	"20.271430000"	"-0.162170000"	"2"	"21"
n/a	"html-keyboard-response"	"226"	"567630"	"0.0-6.0-2.0-0.21"	"34wwc5"	"600"	"1366"	"chrome"	"108.0.0"	"FALSE"	"Windows 10"	"60.43"	"132"	n/a	n/a	n/a	n/a	n/a	n/a	"fixation"	n/a	n/a	n/a	n/a	"NULL"	n/a	"NULL"	"NULL"	"NULL"	"<p style=\"color: black; font-size: 80px; padding-left: 35%; padding-right: 15%; padding-top: 36%; padding-bottom: 15%\">+</p>"	"1287"	n/a	n/a	n/a	n/a	n/a	n/a	n/a	n/a	n/a
n/a	"image-keyboard-response"	"227"	"568435"	"0.0-6.0-2.0-1.21"	"34wwc5"	"600"	"1366"	"chrome"	"108.0.0"	"FALSE"	"Windows 10"	"60.43"	"132"	n/a	n/a	n/a	n/a	n/a	n/a	"Trial"	n/a	n/a	n/a	"803"	"arrowleft"	n/a	"NULL"	"NULL"	"NULL"	"stimuli/VerticalHorizontal_28.75714_0.22500.png"	n/a	"VerticalHorizontal"	"arrowleft"	"1308"	"TRUE"	"VerticalHorizontal"	"28.757140000"	"0.2250000000"	"2"	"22"
n/a	"html-keyboard-response"	"228"	"569491"	"0.0-6.0-2.0-0.22"	"34wwc5"	"600"	"1366"	"chrome"	"108.0.0"	"FALSE"	"Windows 10"	"60.43"	"132"	n/a	n/a	n/a	n/a	n/a	n/a	"fixation"	n/a	n/a	n/a	n/a	"NULL"	n/a	"NULL"	"NULL"	"NULL"	"<p style=\"color: black; font-size: 80px; padding-left: 23%; padding-right: 32%; padding-top: 30%; padding-bottom: 18%\">+</p>"	"1046"	n/a	n/a	n/a	n/a	n/a	n/a	n/a	n/a	n/a
n/a	"image-keyboard-response"	"229"	"570107"	"0.0-6.0-2.0-1.22"	"34wwc5"	"600"	"1366"	"chrome"	"108.0.0"	"FALSE"	"Windows 10"	"60.43"	"132"	n/a	n/a	n/a	n/a	n/a	n/a	"Trial"	n/a	n/a	n/a	"610"	"arrowleft"	n/a	"NULL"	"NULL"	"NULL"	"stimuli/VerticalHorizontal_-20.27143_0.16217.png"	n/a	"VerticalHorizontal"	"arrowleft"	"1056"	"TRUE"	"VerticalHorizontal"	"-20.27143000"	"0.1621700000"	"2"	"23"
n/a	"html-keyboard-response"	"230"	"571201"	"0.0-6.0-2.0-0.23"	"34wwc5"	"600"	"1366"	"chrome"	"108.0.0"	"FALSE"	"Windows 10"	"60.43"	"132"	n/a	n/a	n/a	n/a	n/a	n/a	"fixation"	n/a	n/a	n/a	n/a	"NULL"	n/a	"NULL"	"NULL"	"NULL"	"<p style=\"color: black; font-size: 80px; padding-left: 38%; padding-right: 40%; padding-top: 7%; padding-bottom: 5%\">+</p>"	"1070"	n/a	n/a	n/a	n/a	n/a	n/a	n/a	n/a	n/a
n/a	"image-keyboard-response"	"231"	"571948"	"0.0-6.0-2.0-1.23"	"34wwc5"	"600"	"1366"	"chrome"	"108.0.0"	"FALSE"	"Windows 10"	"60.43"	"132"	n/a	n/a	n/a	n/a	n/a	n/a	"Trial"	n/a	n/a	n/a	"746"	"arrowleft"	n/a	"NULL"	"NULL"	"NULL"	"stimuli/VerticalHorizontal_3.30000_0.16217.png"	n/a	"VerticalHorizontal"	"arrowleft"	"1094"	"TRUE"	"VerticalHorizontal"	"3.3000000000"	"0.1621700000"	"2"	"24"
n/a	"html-keyboard-response"	"232"	"573006"	"0.0-6.0-2.0-0.24"	"34wwc5"	"600"	"1366"	"chrome"	"108.0.0"	"FALSE"	"Windows 10"	"60.43"	"132"	n/a	n/a	n/a	n/a	n/a	n/a	"fixation"	n/a	n/a	n/a	n/a	"NULL"	n/a	"NULL"	"NULL"	"NULL"	"<p style=\"color: black; font-size: 80px; padding-left: 9%; padding-right: 22%; padding-top: 1%; padding-bottom: 11%\">+</p>"	"1040"	n/a	n/a	n/a	n/a	n/a	n/a	n/a	n/a	n/a
n/a	"image-keyboard-response"	"233"	"573632"	"0.0-6.0-2.0-1.24"	"34wwc5"	"600"	"1366"	"chrome"	"108.0.0"	"FALSE"	"Windows 10"	"60.43"	"132"	n/a	n/a	n/a	n/a	n/a	n/a	"Trial"	n/a	n/a	n/a	"624"	"arrowright"	n/a	"NULL"	"NULL"	"NULL"	"stimuli/VerticalHorizontal_11.78571_-0.2250.png"	n/a	"VerticalHorizontal"	"arrowright"	"1058"	"TRUE"	"VerticalHorizontal"	"11.785710000"	"-0.225000000"	"2"	"25"
n/a	"html-keyboard-response"	"234"	"574881"	"0.0-6.0-2.0-0.25"	"34wwc5"	"600"	"1366"	"chrome"	"108.0.0"	"FALSE"	"Windows 10"	"60.43"	"132"	n/a	n/a	n/a	n/a	n/a	n/a	"fixation"	n/a	n/a	n/a	n/a	"NULL"	n/a	"NULL"	"NULL"	"NULL"	"<p style=\"color: black; font-size: 80px; padding-left: 36%; padding-right: 4%; padding-top: 16%; padding-bottom: 44%\">+</p>"	"1245"	n/a	n/a	n/a	n/a	n/a	n/a	n/a	n/a	n/a
n/a	"image-keyboard-response"	"235"	"575447"	"0.0-6.0-2.0-1.25"	"34wwc5"	"600"	"1366"	"chrome"	"108.0.0"	"FALSE"	"Windows 10"	"60.43"	"132"	n/a	n/a	n/a	n/a	n/a	n/a	"Trial"	n/a	n/a	n/a	"565"	"arrowleft"	n/a	"NULL"	"NULL"	"NULL"	"stimuli/VerticalHorizontal_-3.3000_0.16217.png"	n/a	"VerticalHorizontal"	"arrowleft"	"1249"	"TRUE"	"VerticalHorizontal"	"-3.300000000"	"0.1621700000"	"2"	"26"
n/a	"html-keyboard-response"	"236"	"576476"	"0.0-6.0-2.0-0.26"	"34wwc5"	"600"	"1366"	"chrome"	"108.0.0"	"FALSE"	"Windows 10"	"60.43"	"132"	n/a	n/a	n/a	n/a	n/a	n/a	"fixation"	n/a	n/a	n/a	n/a	"NULL"	n/a	"NULL"	"NULL"	"NULL"	"<p style=\"color: black; font-size: 80px; padding-left: 30%; padding-right: 2%; padding-top: 1%; padding-bottom: 21%\">+</p>"	"1013"	n/a	n/a	n/a	n/a	n/a	n/a	n/a	n/a	n/a
n/a	"image-keyboard-response"	"237"	"577365"	"0.0-6.0-2.0-1.26"	"34wwc5"	"600"	"1366"	"chrome"	"108.0.0"	"FALSE"	"Windows 10"	"60.43"	"132"	n/a	n/a	n/a	n/a	n/a	n/a	"Trial"	n/a	n/a	n/a	"888"	"arrowleft"	n/a	"NULL"	"NULL"	"NULL"	"stimuli/VerticalHorizontal_-3.3000_0.06730.png"	n/a	"VerticalHorizontal"	"arrowleft"	"1029"	"TRUE"	"VerticalHorizontal"	"-3.300000000"	"0.0673000000"	"2"	"27"
n/a	"html-keyboard-response"	"238"	"578524"	"0.0-6.0-2.0-0.27"	"34wwc5"	"600"	"1366"	"chrome"	"108.0.0"	"FALSE"	"Windows 10"	"60.43"	"132"	n/a	n/a	n/a	n/a	n/a	n/a	"fixation"	n/a	n/a	n/a	n/a	"NULL"	n/a	"NULL"	"NULL"	"NULL"	"<p style=\"color: black; font-size: 80px; padding-left: 33%; padding-right: 47%; padding-top: 43%; padding-bottom: 32%\">+</p>"	"1146"	n/a	n/a	n/a	n/a	n/a	n/a	n/a	n/a	n/a
n/a	"image-keyboard-response"	"239"	"579408"	"0.0-6.0-2.0-1.27"	"34wwc5"	"600"	"1366"	"chrome"	"108.0.0"	"FALSE"	"Windows 10"	"60.43"	"132"	n/a	n/a	n/a	n/a	n/a	n/a	"Trial"	n/a	n/a	n/a	"883"	"arrowright"	n/a	"NULL"	"NULL"	"NULL"	"stimuli/VerticalHorizontal_28.75714_-0.16217.png"	n/a	"VerticalHorizontal"	"arrowright"	"1159"	"TRUE"	"VerticalHorizontal"	"28.757140000"	"-0.162170000"	"2"	"28"
n/a	"html-keyboard-response"	"240"	"580752"	"0.0-6.0-2.0-0.28"	"34wwc5"	"600"	"1366"	"chrome"	"108.0.0"	"FALSE"	"Windows 10"	"60.43"	"132"	n/a	n/a	n/a	n/a	n/a	n/a	"fixation"	n/a	n/a	n/a	n/a	"NULL"	n/a	"NULL"	"NULL"	"NULL"	"<p style=\"color: black; font-size: 80px; padding-left: 13%; padding-right: 39%; padding-top: 9%; padding-bottom: 8%\">+</p>"	"1339"	n/a	n/a	n/a	n/a	n/a	n/a	n/a	n/a	n/a
n/a	"image-keyboard-response"	"241"	"581837"	"0.0-6.0-2.0-1.28"	"34wwc5"	"600"	"1366"	"chrome"	"108.0.0"	"FALSE"	"Windows 10"	"60.43"	"132"	n/a	n/a	n/a	n/a	n/a	n/a	"Trial"	n/a	n/a	n/a	"1084"	"arrowright"	n/a	"NULL"	"NULL"	"NULL"	"stimuli/VerticalHorizontal_20.27143_0.06730.png"	n/a	"VerticalHorizontal"	"arrowleft"	"1344"	"FALSE"	"VerticalHorizontal"	"20.271430000"	"0.0673000000"	"2"	"29"
n/a	"html-keyboard-response"	"242"	"582958"	"0.0-6.0-2.0-0.29"	"34wwc5"	"600"	"1366"	"chrome"	"108.0.0"	"FALSE"	"Windows 10"	"60.43"	"132"	n/a	n/a	n/a	n/a	n/a	n/a	"fixation"	n/a	n/a	n/a	n/a	"NULL"	n/a	"NULL"	"NULL"	"NULL"	"<p style=\"color: black; font-size: 80px; padding-left: 30%; padding-right: 33%; padding-top: 14%; padding-bottom: 44%\">+</p>"	"1107"	n/a	n/a	n/a	n/a	n/a	n/a	n/a	n/a	n/a
n/a	"image-keyboard-response"	"243"	"583562"	"0.0-6.0-2.0-1.29"	"34wwc5"	"600"	"1366"	"chrome"	"108.0.0"	"FALSE"	"Windows 10"	"60.43"	"132"	n/a	n/a	n/a	n/a	n/a	n/a	"Trial"	n/a	n/a	n/a	"603"	"arrowleft"	n/a	"NULL"	"NULL"	"NULL"	"stimuli/VerticalHorizontal_-28.75714_0.06730.png"	n/a	"VerticalHorizontal"	"arrowleft"	"1121"	"TRUE"	"VerticalHorizontal"	"-28.75714000"	"0.0673000000"	"2"	"30"
n/a	"html-keyboard-response"	"244"	"584919"	"0.0-6.0-2.0-0.30"	"34wwc5"	"600"	"1366"	"chrome"	"108.0.0"	"FALSE"	"Windows 10"	"60.43"	"132"	n/a	n/a	n/a	n/a	n/a	n/a	"fixation"	n/a	n/a	n/a	n/a	"NULL"	n/a	"NULL"	"NULL"	"NULL"	"<p style=\"color: black; font-size: 80px; padding-left: 21%; padding-right: 2%; padding-top: 3%; padding-bottom: 49%\">+</p>"	"1342"	n/a	n/a	n/a	n/a	n/a	n/a	n/a	n/a	n/a
n/a	"image-keyboard-response"	"245"	"586370"	"0.0-6.0-2.0-1.30"	"34wwc5"	"600"	"1366"	"chrome"	"108.0.0"	"FALSE"	"Windows 10"	"60.43"	"132"	n/a	n/a	n/a	n/a	n/a	n/a	"Trial"	n/a	n/a	n/a	"1450"	"arrowleft"	n/a	"NULL"	"NULL"	"NULL"	"stimuli/VerticalHorizontal_28.75714_0.06730.png"	n/a	"VerticalHorizontal"	"arrowleft"	"1357"	"TRUE"	"VerticalHorizontal"	"28.757140000"	"0.0673000000"	"2"	"31"
n/a	"html-keyboard-response"	"246"	"587849"	"0.0-6.0-2.0-0.31"	"34wwc5"	"600"	"1366"	"chrome"	"108.0.0"	"FALSE"	"Windows 10"	"60.43"	"132"	n/a	n/a	n/a	n/a	n/a	n/a	"fixation"	n/a	n/a	n/a	n/a	"NULL"	n/a	"NULL"	"NULL"	"NULL"	"<p style=\"color: black; font-size: 80px; padding-left: 37%; padding-right: 10%; padding-top: 15%; padding-bottom: 22%\">+</p>"	"1470"	n/a	n/a	n/a	n/a	n/a	n/a	n/a	n/a	n/a
n/a	"image-keyboard-response"	"247"	"588482"	"0.0-6.0-2.0-1.31"	"34wwc5"	"600"	"1366"	"chrome"	"108.0.0"	"FALSE"	"Windows 10"	"60.43"	"132"	n/a	n/a	n/a	n/a	n/a	n/a	"Trial"	n/a	n/a	n/a	"632"	"arrowleft"	n/a	"NULL"	"NULL"	"NULL"	"stimuli/VerticalHorizontal_-11.78571_0.16217.png"	n/a	"VerticalHorizontal"	"arrowleft"	"1479"	"TRUE"	"VerticalHorizontal"	"-11.78571000"	"0.1621700000"	"2"	"32"
n/a	"html-keyboard-response"	"248"	"589873"	"0.0-6.0-2.0-0.32"	"34wwc5"	"600"	"1366"	"chrome"	"108.0.0"	"FALSE"	"Windows 10"	"60.43"	"132"	n/a	n/a	n/a	n/a	n/a	n/a	"fixation"	n/a	n/a	n/a	n/a	"NULL"	n/a	"NULL"	"NULL"	"NULL"	"<p style=\"color: black; font-size: 80px; padding-left: 43%; padding-right: 38%; padding-top: 7%; padding-bottom: 27%\">+</p>"	"1372"	n/a	n/a	n/a	n/a	n/a	n/a	n/a	n/a	n/a
n/a	"image-keyboard-response"	"249"	"590444"	"0.0-6.0-2.0-1.32"	"34wwc5"	"600"	"1366"	"chrome"	"108.0.0"	"FALSE"	"Windows 10"	"60.43"	"132"	n/a	n/a	n/a	n/a	n/a	n/a	"Trial"	n/a	n/a	n/a	"571"	"arrowright"	n/a	"NULL"	"NULL"	"NULL"	"stimuli/VerticalHorizontal_-3.3000_-0.16217.png"	n/a	"VerticalHorizontal"	"arrowright"	"1391"	"TRUE"	"VerticalHorizontal"	"-3.300000000"	"-0.162170000"	"2"	"33"
n/a	"html-keyboard-response"	"250"	"591600"	"0.0-6.0-2.0-0.33"	"34wwc5"	"600"	"1366"	"chrome"	"108.0.0"	"FALSE"	"Windows 10"	"60.43"	"132"	n/a	n/a	n/a	n/a	n/a	n/a	"fixation"	n/a	n/a	n/a	n/a	"NULL"	n/a	"NULL"	"NULL"	"NULL"	"<p style=\"color: black; font-size: 80px; padding-left: 29%; padding-right: 25%; padding-top: 15%; padding-bottom: 26%\">+</p>"	"1143"	n/a	n/a	n/a	n/a	n/a	n/a	n/a	n/a	n/a
n/a	"image-keyboard-response"	"251"	"592076"	"0.0-6.0-2.0-1.33"	"34wwc5"	"600"	"1366"	"chrome"	"108.0.0"	"FALSE"	"Windows 10"	"60.43"	"132"	n/a	n/a	n/a	n/a	n/a	n/a	"Trial"	n/a	n/a	n/a	"472"	"arrowleft"	n/a	"NULL"	"NULL"	"NULL"	"stimuli/VerticalHorizontal_-28.75714_0.10960.png"	n/a	"VerticalHorizontal"	"arrowleft"	"1156"	"TRUE"	"VerticalHorizontal"	"-28.75714000"	"0.1096000000"	"2"	"34"
