"success"	"trial_type"	"trial_index"	"time_elapsed"	"internal_node_id"	"participant_id"	"screen_height"	"screen_width"	"browser"	"browser_version"	"mobile"	"os"	"vsync_rate"	"subject_id"	"width"	"height"	"webaudio"	"fullscreen"	"webcam"	"microphone"	"screen"	"version"	"date"	"time"	"rt"	"response"	"timeout"	"failed_images"	"failed_audio"	"failed_video"	"stimulus"	"trial_duration"	"block"	"correct_response"	"prestimulus_duration"	"correct"	"type"	"illusion_strength"	"illusion_difference"	"block_number"	"trial_number"
"TRUE"	"fullscreen"	"0"	"1763"	"0.0-0.0"	"e1bgku"	"600"	"1366"	"chrome"	"110.0.0"	"FALSE"	"Windows 10"	"60.1"	"028"	n/a	n/a	n/a	n/a	n/a	n/a	n/a	n/a	n/a	n/a	n/a	"NULL"	n/a	"NULL"	"NULL"	"NULL"	n/a	n/a	n/a	n/a	n/a	n/a	n/a	n/a	n/a	n/a	n/a
n/a	"browser-check"	"1"	"2776"	"0.0-1.0"	"e1bgku"	"600"	"1366"	"chrome"	"110.0.0"	"FALSE"	"Windows 10"	"60.1"	"028"	"1366"	"600"	"TRUE"	"TRUE"	"TRUE"	"TRUE"	"browser_info"	"1.0"	"28/02/2023"	"11:05:38"	n/a	"NULL"	n/a	"NULL"	"NULL"	"NULL"	n/a	n/a	n/a	n/a	n/a	n/a	n/a	n/a	n/a	n/a	n/a
n/a	"survey-text"	"2"	"5815"	"0.0-2.0"	"e1bgku"	"600"	"1366"	"chrome"	"110.0.0"	"FALSE"	"Windows 10"	"60.1"	"028"	n/a	n/a	n/a	n/a	n/a	n/a	"subject_id"	n/a	n/a	n/a	"3036"	"list(subject_id = \"028\")"	n/a	"NULL"	"NULL"	"NULL"	n/a	n/a	n/a	n/a	n/a	n/a	n/a	n/a	n/a	n/a	n/a
"TRUE"	"preload"	"3"	"5830"	"0.0-3.0"	"e1bgku"	"600"	"1366"	"chrome"	"110.0.0"	"FALSE"	"Windows 10"	"60.1"	"028"	n/a	n/a	n/a	n/a	n/a	n/a	n/a	n/a	n/a	n/a	n/a	"NULL"	"FALSE"	"list()"	"list()"	"list()"	n/a	n/a	n/a	n/a	n/a	n/a	n/a	n/a	n/a	n/a	n/a
n/a	"html-button-response"	"4"	"76554"	"0.0-4.0-0.0"	"e1bgku"	"600"	"1366"	"chrome"	"110.0.0"	"FALSE"	"Windows 10"	"60.1"	"028"	n/a	n/a	n/a	n/a	n/a	n/a	"illusion_instructions"	n/a	n/a	n/a	"70722"	"0"	n/a	"NULL"	"NULL"	"NULL"	"<p><b>Illusion Game</b></p><p>In this game of speed and reflex, you will need to make <b>visual judgments</b> (for instance, which circle is the biggest, or which line is the longest), as fast and as correctly as possible, while <b>resisting different visual illusions</b>.</p><p>We are going to start with some examples of all the illusions you will encounter in the game.</p>"	n/a	n/a	n/a	n/a	n/a	n/a	n/a	n/a	n/a	n/a
"TRUE"	"preload"	"5"	"76577"	"0.0-4.0-1.0-0.0"	"e1bgku"	"600"	"1366"	"chrome"	"110.0.0"	"FALSE"	"Windows 10"	"60.1"	"028"	n/a	n/a	n/a	n/a	n/a	n/a	n/a	n/a	n/a	n/a	n/a	"NULL"	"FALSE"	"list()"	"list()"	"list()"	n/a	n/a	n/a	n/a	n/a	n/a	n/a	n/a	n/a	n/a	n/a
n/a	"html-keyboard-response"	"6"	"103146"	"0.0-4.0-1.0-1.0"	"e1bgku"	"600"	"1366"	"chrome"	"110.0.0"	"FALSE"	"Windows 10"	"60.1"	"028"	n/a	n/a	n/a	n/a	n/a	n/a	n/a	n/a	n/a	n/a	"26566"	"enter"	n/a	"NULL"	"NULL"	"NULL"	"<p><b>Practice</b></p><p>In this part, two red circles will appear side by side on the screen.</p><p>Your task is to select which <b>red circle is bigger</b> in size as fast as you can, without making errors.</p><p>Don't get distracted by the surrounding black circles around the red circles!</p><p>Press <b>the LEFT or the RIGHT arrow</b> to indicate which is the bigger <b>red circle.</b></p><div style='float: center'><img src='materials/instructions/Ebbinghaus_Demo.png' height='300'></img><p><img src='utils/answer/answer_leftright_keyboard.PNG' height='150'></img></p><p class='small'>In this example, the correct answer is the <b>LEFT arrow</b>.</p></div><p>Are you ready? <b>Press ENTER to start</b></p>"	n/a	n/a	n/a	n/a	n/a	n/a	n/a	n/a	n/a	n/a
n/a	"html-keyboard-response"	"7"	"105066"	"0.0-4.0-1.0-2.0-0.0"	"e1bgku"	"600"	"1366"	"chrome"	"110.0.0"	"FALSE"	"Windows 10"	"60.1"	"028"	n/a	n/a	n/a	n/a	n/a	n/a	"fixation"	n/a	n/a	n/a	n/a	"NULL"	n/a	"NULL"	"NULL"	"NULL"	"<p style=\"color: black; font-size: 80px; padding-left: 17%; padding-right: 36%; padding-top: 31%; padding-bottom: 20%\">+</p>"	"1394"	n/a	n/a	n/a	n/a	n/a	n/a	n/a	n/a	n/a
n/a	"image-keyboard-response"	"8"	"105857"	"0.0-4.0-1.0-2.0-1.0"	"e1bgku"	"600"	"1366"	"chrome"	"110.0.0"	"FALSE"	"Windows 10"	"60.1"	"028"	n/a	n/a	n/a	n/a	n/a	n/a	"Trial"	n/a	n/a	n/a	"783"	"arrowright"	n/a	"NULL"	"NULL"	"NULL"	"stimuli/Ebbinghaus_-100000_-1.4000.png"	n/a	"Ebbinghaus"	"arrowright"	"1920"	"TRUE"	"Ebbinghaus"	"-10000000000"	"-1.400000000"	"1"	"1"
n/a	"html-keyboard-response"	"9"	"107299"	"0.0-4.0-1.0-2.0-0.1"	"e1bgku"	"600"	"1366"	"chrome"	"110.0.0"	"FALSE"	"Windows 10"	"60.1"	"028"	n/a	n/a	n/a	n/a	n/a	n/a	"fixation"	n/a	n/a	n/a	n/a	"NULL"	n/a	"NULL"	"NULL"	"NULL"	"<p style=\"color: black; font-size: 80px; padding-left: 6%; padding-right: 41%; padding-top: 27%; padding-bottom: 7%\">+</p>"	"1434"	n/a	n/a	n/a	n/a	n/a	n/a	n/a	n/a	n/a
n/a	"image-keyboard-response"	"10"	"107773"	"0.0-4.0-1.0-2.0-1.1"	"e1bgku"	"600"	"1366"	"chrome"	"110.0.0"	"FALSE"	"Windows 10"	"60.1"	"028"	n/a	n/a	n/a	n/a	n/a	n/a	"Trial"	n/a	n/a	n/a	"473"	"arrowright"	n/a	"NULL"	"NULL"	"NULL"	"stimuli/Ebbinghaus_0000000_-1.4000.png"	n/a	"Ebbinghaus"	"arrowright"	"1442"	"TRUE"	"Ebbinghaus"	"000000000000"	"-1.400000000"	"1"	"2"
n/a	"html-keyboard-response"	"11"	"109269"	"0.0-4.0-1.0-2.0-0.2"	"e1bgku"	"600"	"1366"	"chrome"	"110.0.0"	"FALSE"	"Windows 10"	"60.1"	"028"	n/a	n/a	n/a	n/a	n/a	n/a	"fixation"	n/a	n/a	n/a	n/a	"NULL"	n/a	"NULL"	"NULL"	"NULL"	"<p style=\"color: black; font-size: 80px; padding-left: 48%; padding-right: 6%; padding-top: 45%; padding-bottom: 23%\">+</p>"	"1493"	n/a	n/a	n/a	n/a	n/a	n/a	n/a	n/a	n/a
n/a	"image-keyboard-response"	"12"	"109683"	"0.0-4.0-1.0-2.0-1.2"	"e1bgku"	"600"	"1366"	"chrome"	"110.0.0"	"FALSE"	"Windows 10"	"60.1"	"028"	n/a	n/a	n/a	n/a	n/a	n/a	"Trial"	n/a	n/a	n/a	"408"	"arrowright"	n/a	"NULL"	"NULL"	"NULL"	"stimuli/Ebbinghaus_1000000_-1.4000.png"	n/a	"Ebbinghaus"	"arrowright"	"1496"	"TRUE"	"Ebbinghaus"	"100000000000"	"-1.400000000"	"1"	"3"
n/a	"html-keyboard-response"	"13"	"110917"	"0.0-4.0-1.0-2.0-0.3"	"e1bgku"	"600"	"1366"	"chrome"	"110.0.0"	"FALSE"	"Windows 10"	"60.1"	"028"	n/a	n/a	n/a	n/a	n/a	n/a	"fixation"	n/a	n/a	n/a	n/a	"NULL"	n/a	"NULL"	"NULL"	"NULL"	"<p style=\"color: black; font-size: 80px; padding-left: 17%; padding-right: 4%; padding-top: 29%; padding-bottom: 11%\">+</p>"	"1221"	n/a	n/a	n/a	n/a	n/a	n/a	n/a	n/a	n/a
n/a	"image-keyboard-response"	"14"	"111450"	"0.0-4.0-1.0-2.0-1.3"	"e1bgku"	"600"	"1366"	"chrome"	"110.0.0"	"FALSE"	"Windows 10"	"60.1"	"028"	n/a	n/a	n/a	n/a	n/a	n/a	"Trial"	n/a	n/a	n/a	"532"	"arrowleft"	n/a	"NULL"	"NULL"	"NULL"	"stimuli/Ebbinghaus_0000000_1.40000.png"	n/a	"Ebbinghaus"	"arrowleft"	"1234"	"TRUE"	"Ebbinghaus"	"000000000000"	"1.4000000000"	"1"	"4"
n/a	"html-keyboard-response"	"15"	"112724"	"0.0-4.0-1.0-2.0-0.4"	"e1bgku"	"600"	"1366"	"chrome"	"110.0.0"	"FALSE"	"Windows 10"	"60.1"	"028"	n/a	n/a	n/a	n/a	n/a	n/a	"fixation"	n/a	n/a	n/a	n/a	"NULL"	n/a	"NULL"	"NULL"	"NULL"	"<p style=\"color: black; font-size: 80px; padding-left: 46%; padding-right: 43%; padding-top: 43%; padding-bottom: 27%\">+</p>"	"1260"	n/a	n/a	n/a	n/a	n/a	n/a	n/a	n/a	n/a
n/a	"image-keyboard-response"	"16"	"113210"	"0.0-4.0-1.0-2.0-1.4"	"e1bgku"	"600"	"1366"	"chrome"	"110.0.0"	"FALSE"	"Windows 10"	"60.1"	"028"	n/a	n/a	n/a	n/a	n/a	n/a	"Trial"	n/a	n/a	n/a	"486"	"arrowleft"	n/a	"NULL"	"NULL"	"NULL"	"stimuli/Ebbinghaus_-100000_1.40000.png"	n/a	"Ebbinghaus"	"arrowleft"	"1274"	"TRUE"	"Ebbinghaus"	"-10000000000"	"1.4000000000"	"1"	"5"
n/a	"html-keyboard-response"	"17"	"114504"	"0.0-4.0-1.0-2.0-0.5"	"e1bgku"	"600"	"1366"	"chrome"	"110.0.0"	"FALSE"	"Windows 10"	"60.1"	"028"	n/a	n/a	n/a	n/a	n/a	n/a	"fixation"	n/a	n/a	n/a	n/a	"NULL"	n/a	"NULL"	"NULL"	"NULL"	"<p style=\"color: black; font-size: 80px; padding-left: 8%; padding-right: 44%; padding-top: 28%; padding-bottom: 9%\">+</p>"	"1284"	n/a	n/a	n/a	n/a	n/a	n/a	n/a	n/a	n/a
n/a	"image-keyboard-response"	"18"	"114956"	"0.0-4.0-1.0-2.0-1.5"	"e1bgku"	"600"	"1366"	"chrome"	"110.0.0"	"FALSE"	"Windows 10"	"60.1"	"028"	n/a	n/a	n/a	n/a	n/a	n/a	"Trial"	n/a	n/a	n/a	"452"	"arrowleft"	n/a	"NULL"	"NULL"	"NULL"	"stimuli/Ebbinghaus_1000000_1.40000.png"	n/a	"Ebbinghaus"	"arrowleft"	"1294"	"TRUE"	"Ebbinghaus"	"100000000000"	"1.4000000000"	"1"	"6"
n/a	"html-button-response"	"19"	"119434"	"0.0-4.0-1.0-3.0"	"e1bgku"	"600"	"1366"	"chrome"	"110.0.0"	"FALSE"	"Windows 10"	"60.1"	"028"	n/a	n/a	n/a	n/a	n/a	n/a	"practice_block_results"	n/a	n/a	n/a	"4475"	"0"	n/a	"NULL"	"NULL"	"NULL"	"<p style='color:rgb(76,175,80);'> Correct Responses: <b>100.00%</b></p><hr><p style='color:rgb(233,30,99);'> Average Response Time: <b>522.33</b> ms.</p>"	n/a	n/a	n/a	n/a	n/a	n/a	n/a	n/a	n/a	n/a
"TRUE"	"preload"	"20"	"120268"	"0.0-4.0-2.0-0.0"	"e1bgku"	"600"	"1366"	"chrome"	"110.0.0"	"FALSE"	"Windows 10"	"60.1"	"028"	n/a	n/a	n/a	n/a	n/a	n/a	n/a	n/a	n/a	n/a	n/a	"NULL"	"FALSE"	"list()"	"list()"	"list()"	n/a	n/a	n/a	n/a	n/a	n/a	n/a	n/a	n/a	n/a	n/a
n/a	"html-keyboard-response"	"21"	"126171"	"0.0-4.0-2.0-1.0"	"e1bgku"	"600"	"1366"	"chrome"	"110.0.0"	"FALSE"	"Windows 10"	"60.1"	"028"	n/a	n/a	n/a	n/a	n/a	n/a	n/a	n/a	n/a	n/a	"5902"	"enter"	n/a	"NULL"	"NULL"	"NULL"	"<p><b>Practice</b></p><p>In this part, two horizontal red lines will appear one above the other.</p><p>Your task is to select which <b>line is longer</b> in length as fast as you can, without making errors.</p><p>Don't get distracted by the surrounding black arrows at the end of the red lines!</p><p>Press <b>the UP or the DOWN arrow</b> to indicate where is the longer <b>red line.</b></p><div style='float: center'><img src='materials/instructions/MullerLyer_Demo.png' height='300'></img><p><img src='utils/answer/answer_updown_keyboard.PNG' height='150'></img></p><p class='small'>In this example, the correct answer is the <b>UP arrow</b>.</p></div><p>Are you ready? <b>Press ENTER to start</b></p>"	n/a	n/a	n/a	n/a	n/a	n/a	n/a	n/a	n/a	n/a
n/a	"html-keyboard-response"	"22"	"127974"	"0.0-4.0-2.0-2.0-0.0"	"e1bgku"	"600"	"1366"	"chrome"	"110.0.0"	"FALSE"	"Windows 10"	"60.1"	"028"	n/a	n/a	n/a	n/a	n/a	n/a	"fixation"	n/a	n/a	n/a	n/a	"NULL"	n/a	"NULL"	"NULL"	"NULL"	"<p style=\"color: black; font-size: 80px; padding-left: 18%; padding-right: 20%; padding-top: 48%; padding-bottom: 38%\">+</p>"	"1273"	n/a	n/a	n/a	n/a	n/a	n/a	n/a	n/a	n/a
n/a	"image-keyboard-response"	"23"	"128959"	"0.0-4.0-2.0-2.0-1.0"	"e1bgku"	"600"	"1366"	"chrome"	"110.0.0"	"FALSE"	"Windows 10"	"60.1"	"028"	n/a	n/a	n/a	n/a	n/a	n/a	"Trial"	n/a	n/a	n/a	"984"	"arrowup"	n/a	"NULL"	"NULL"	"NULL"	"stimuli/MullerLyer_-230000_0.70000.png"	n/a	"MullerLyer"	"arrowup"	"1803"	"TRUE"	"MullerLyer"	"-23000000000"	"0.7000000000"	"1"	"7"
n/a	"html-keyboard-response"	"24"	"129965"	"0.0-4.0-2.0-2.0-0.1"	"e1bgku"	"600"	"1366"	"chrome"	"110.0.0"	"FALSE"	"Windows 10"	"60.1"	"028"	n/a	n/a	n/a	n/a	n/a	n/a	"fixation"	n/a	n/a	n/a	n/a	"NULL"	n/a	"NULL"	"NULL"	"NULL"	"<p style=\"color: black; font-size: 80px; padding-left: 29%; padding-right: 10%; padding-top: 33%; padding-bottom: 2%\">+</p>"	"1002"	n/a	n/a	n/a	n/a	n/a	n/a	n/a	n/a	n/a
n/a	"image-keyboard-response"	"25"	"130608"	"0.0-4.0-2.0-2.0-1.1"	"e1bgku"	"600"	"1366"	"chrome"	"110.0.0"	"FALSE"	"Windows 10"	"60.1"	"028"	n/a	n/a	n/a	n/a	n/a	n/a	"Trial"	n/a	n/a	n/a	"643"	"arrowup"	n/a	"NULL"	"NULL"	"NULL"	"stimuli/MullerLyer_0000000_0.70000.png"	n/a	"MullerLyer"	"arrowup"	"1006"	"TRUE"	"MullerLyer"	"000000000000"	"0.7000000000"	"1"	"8"
n/a	"html-keyboard-response"	"26"	"131635"	"0.0-4.0-2.0-2.0-0.2"	"e1bgku"	"600"	"1366"	"chrome"	"110.0.0"	"FALSE"	"Windows 10"	"60.1"	"028"	n/a	n/a	n/a	n/a	n/a	n/a	"fixation"	n/a	n/a	n/a	n/a	"NULL"	n/a	"NULL"	"NULL"	"NULL"	"<p style=\"color: black; font-size: 80px; padding-left: 15%; padding-right: 31%; padding-top: 45%; padding-bottom: 17%\">+</p>"	"1019"	n/a	n/a	n/a	n/a	n/a	n/a	n/a	n/a	n/a
n/a	"image-keyboard-response"	"27"	"132280"	"0.0-4.0-2.0-2.0-1.2"	"e1bgku"	"600"	"1366"	"chrome"	"110.0.0"	"FALSE"	"Windows 10"	"60.1"	"028"	n/a	n/a	n/a	n/a	n/a	n/a	"Trial"	n/a	n/a	n/a	"643"	"arrowdown"	n/a	"NULL"	"NULL"	"NULL"	"stimuli/MullerLyer_-230000_-0.7000.png"	n/a	"MullerLyer"	"arrowdown"	"1027"	"TRUE"	"MullerLyer"	"-23000000000"	"-0.700000000"	"1"	"9"
n/a	"html-keyboard-response"	"28"	"133441"	"0.0-4.0-2.0-2.0-0.3"	"e1bgku"	"600"	"1366"	"chrome"	"110.0.0"	"FALSE"	"Windows 10"	"60.1"	"028"	n/a	n/a	n/a	n/a	n/a	n/a	"fixation"	n/a	n/a	n/a	n/a	"NULL"	n/a	"NULL"	"NULL"	"NULL"	"<p style=\"color: black; font-size: 80px; padding-left: 32%; padding-right: 12%; padding-top: 2%; padding-bottom: 46%\">+</p>"	"1158"	n/a	n/a	n/a	n/a	n/a	n/a	n/a	n/a	n/a
n/a	"image-keyboard-response"	"29"	"133923"	"0.0-4.0-2.0-2.0-1.3"	"e1bgku"	"600"	"1366"	"chrome"	"110.0.0"	"FALSE"	"Windows 10"	"60.1"	"028"	n/a	n/a	n/a	n/a	n/a	n/a	"Trial"	n/a	n/a	n/a	"482"	"arrowup"	n/a	"NULL"	"NULL"	"NULL"	"stimuli/MullerLyer_2300000_0.70000.png"	n/a	"MullerLyer"	"arrowup"	"1161"	"TRUE"	"MullerLyer"	"230000000000"	"0.7000000000"	"1"	"10"
n/a	"html-keyboard-response"	"30"	"135052"	"0.0-4.0-2.0-2.0-0.4"	"e1bgku"	"600"	"1366"	"chrome"	"110.0.0"	"FALSE"	"Windows 10"	"60.1"	"028"	n/a	n/a	n/a	n/a	n/a	n/a	"fixation"	n/a	n/a	n/a	n/a	"NULL"	n/a	"NULL"	"NULL"	"NULL"	"<p style=\"color: black; font-size: 80px; padding-left: 27%; padding-right: 40%; padding-top: 19%; padding-bottom: 46%\">+</p>"	"1123"	n/a	n/a	n/a	n/a	n/a	n/a	n/a	n/a	n/a
n/a	"image-keyboard-response"	"31"	"135518"	"0.0-4.0-2.0-2.0-1.4"	"e1bgku"	"600"	"1366"	"chrome"	"110.0.0"	"FALSE"	"Windows 10"	"60.1"	"028"	n/a	n/a	n/a	n/a	n/a	n/a	"Trial"	n/a	n/a	n/a	"466"	"arrowdown"	n/a	"NULL"	"NULL"	"NULL"	"stimuli/MullerLyer_0000000_-0.7000.png"	n/a	"MullerLyer"	"arrowdown"	"1129"	"TRUE"	"MullerLyer"	"000000000000"	"-0.700000000"	"1"	"11"
n/a	"html-keyboard-response"	"32"	"136614"	"0.0-4.0-2.0-2.0-0.5"	"e1bgku"	"600"	"1366"	"chrome"	"110.0.0"	"FALSE"	"Windows 10"	"60.1"	"028"	n/a	n/a	n/a	n/a	n/a	n/a	"fixation"	n/a	n/a	n/a	n/a	"NULL"	n/a	"NULL"	"NULL"	"NULL"	"<p style=\"color: black; font-size: 80px; padding-left: 10%; padding-right: 10%; padding-top: 40%; padding-bottom: 44%\">+</p>"	"1094"	n/a	n/a	n/a	n/a	n/a	n/a	n/a	n/a	n/a
n/a	"image-keyboard-response"	"33"	"137418"	"0.0-4.0-2.0-2.0-1.5"	"e1bgku"	"600"	"1366"	"chrome"	"110.0.0"	"FALSE"	"Windows 10"	"60.1"	"028"	n/a	n/a	n/a	n/a	n/a	n/a	"Trial"	n/a	n/a	n/a	"803"	"arrowdown"	n/a	"NULL"	"NULL"	"NULL"	"stimuli/MullerLyer_2300000_-0.7000.png"	n/a	"MullerLyer"	"arrowdown"	"1096"	"TRUE"	"MullerLyer"	"230000000000"	"-0.700000000"	"1"	"12"
n/a	"html-button-response"	"34"	"139898"	"0.0-4.0-2.0-3.0"	"e1bgku"	"600"	"1366"	"chrome"	"110.0.0"	"FALSE"	"Windows 10"	"60.1"	"028"	n/a	n/a	n/a	n/a	n/a	n/a	"practice_block_results"	n/a	n/a	n/a	"2479"	"0"	n/a	"NULL"	"NULL"	"NULL"	"<p style='color:rgb(76,175,80);'> Correct Responses: <b>100.00%</b></p><hr><p style='color:rgb(233,30,99);'> Average Response Time: <b>670.17</b> ms.</p>"	n/a	n/a	n/a	n/a	n/a	n/a	n/a	n/a	n/a	n/a
"TRUE"	"preload"	"35"	"140423"	"0.0-4.0-3.0-0.0"	"e1bgku"	"600"	"1366"	"chrome"	"110.0.0"	"FALSE"	"Windows 10"	"60.1"	"028"	n/a	n/a	n/a	n/a	n/a	n/a	n/a	n/a	n/a	n/a	n/a	"NULL"	"FALSE"	"list()"	"list()"	"list()"	n/a	n/a	n/a	n/a	n/a	n/a	n/a	n/a	n/a	n/a	n/a
n/a	"html-keyboard-response"	"36"	"146338"	"0.0-4.0-3.0-1.0"	"e1bgku"	"600"	"1366"	"chrome"	"110.0.0"	"FALSE"	"Windows 10"	"60.1"	"028"	n/a	n/a	n/a	n/a	n/a	n/a	n/a	n/a	n/a	n/a	"5914"	"enter"	n/a	"NULL"	"NULL"	"NULL"	"<p><b>Practice</b></p><p>In this part, two red lines will appear side by side.</p><p>Your task is to tell <b>which line is longer</b> in length, regardless of their orientation, as fast as you can, and without making errors.</p><p>Don't get distracted by the orientation of the lines!</p><p>Press <b>the LEFT or the RIGHT arrow</b> to indicate which <b>line is the longer one.</b></p><div style='float: center'><img src='materials/instructions/VerticalHorizontal_Demo.png' height='300'></img><p><img src='utils/answer/answer_leftright_keyboard.PNG' height='150'></img></p><p class='small'>In this example, the correct answer is the <b>LEFT arrow</b>.</p></div><p>Are you ready? <b>Press ENTER to start</b></p>"	n/a	n/a	n/a	n/a	n/a	n/a	n/a	n/a	n/a	n/a
n/a	"html-keyboard-response"	"37"	"148004"	"0.0-4.0-3.0-2.0-0.0"	"e1bgku"	"600"	"1366"	"chrome"	"110.0.0"	"FALSE"	"Windows 10"	"60.1"	"028"	n/a	n/a	n/a	n/a	n/a	n/a	"fixation"	n/a	n/a	n/a	n/a	"NULL"	n/a	"NULL"	"NULL"	"NULL"	"<p style=\"color: black; font-size: 80px; padding-left: 15%; padding-right: 24%; padding-top: 33%; padding-bottom: 49%\">+</p>"	"1158"	n/a	n/a	n/a	n/a	n/a	n/a	n/a	n/a	n/a
n/a	"image-keyboard-response"	"38"	"148479"	"0.0-4.0-3.0-2.0-1.0"	"e1bgku"	"600"	"1366"	"chrome"	"110.0.0"	"FALSE"	"Windows 10"	"60.1"	"028"	n/a	n/a	n/a	n/a	n/a	n/a	"Trial"	n/a	n/a	n/a	"474"	"arrowleft"	n/a	"NULL"	"NULL"	"NULL"	"stimuli/VerticalHorizontal_0000000_0.90000.png"	n/a	"VerticalHorizontal"	"arrowleft"	"1666"	"TRUE"	"VerticalHorizontal"	"000000000000"	"0.9000000000"	"1"	"13"
n/a	"html-keyboard-response"	"39"	"149566"	"0.0-4.0-3.0-2.0-0.1"	"e1bgku"	"600"	"1366"	"chrome"	"110.0.0"	"FALSE"	"Windows 10"	"60.1"	"028"	n/a	n/a	n/a	n/a	n/a	n/a	"fixation"	n/a	n/a	n/a	n/a	"NULL"	n/a	"NULL"	"NULL"	"NULL"	"<p style=\"color: black; font-size: 80px; padding-left: 26%; padding-right: 23%; padding-top: 25%; padding-bottom: 41%\">+</p>"	"1074"	n/a	n/a	n/a	n/a	n/a	n/a	n/a	n/a	n/a
n/a	"image-keyboard-response"	"40"	"149974"	"0.0-4.0-3.0-2.0-1.1"	"e1bgku"	"600"	"1366"	"chrome"	"110.0.0"	"FALSE"	"Windows 10"	"60.1"	"028"	n/a	n/a	n/a	n/a	n/a	n/a	"Trial"	n/a	n/a	n/a	"407"	"arrowleft"	n/a	"NULL"	"NULL"	"NULL"	"stimuli/VerticalHorizontal_-330000_0.90000.png"	n/a	"VerticalHorizontal"	"arrowleft"	"1087"	"TRUE"	"VerticalHorizontal"	"-33000000000"	"0.9000000000"	"1"	"14"
n/a	"html-keyboard-response"	"41"	"151109"	"0.0-4.0-3.0-2.0-0.2"	"e1bgku"	"600"	"1366"	"chrome"	"110.0.0"	"FALSE"	"Windows 10"	"60.1"	"028"	n/a	n/a	n/a	n/a	n/a	n/a	"fixation"	n/a	n/a	n/a	n/a	"NULL"	n/a	"NULL"	"NULL"	"NULL"	"<p style=\"color: black; font-size: 80px; padding-left: 22%; padding-right: 4%; padding-top: 17%; padding-bottom: 15%\">+</p>"	"1131"	n/a	n/a	n/a	n/a	n/a	n/a	n/a	n/a	n/a
n/a	"image-keyboard-response"	"42"	"151540"	"0.0-4.0-3.0-2.0-1.2"	"e1bgku"	"600"	"1366"	"chrome"	"110.0.0"	"FALSE"	"Windows 10"	"60.1"	"028"	n/a	n/a	n/a	n/a	n/a	n/a	"Trial"	n/a	n/a	n/a	"430"	"arrowright"	n/a	"NULL"	"NULL"	"NULL"	"stimuli/VerticalHorizontal_-330000_-0.9000.png"	n/a	"VerticalHorizontal"	"arrowright"	"1135"	"TRUE"	"VerticalHorizontal"	"-33000000000"	"-0.900000000"	"1"	"15"
n/a	"html-keyboard-response"	"43"	"152863"	"0.0-4.0-3.0-2.0-0.3"	"e1bgku"	"600"	"1366"	"chrome"	"110.0.0"	"FALSE"	"Windows 10"	"60.1"	"028"	n/a	n/a	n/a	n/a	n/a	n/a	"fixation"	n/a	n/a	n/a	n/a	"NULL"	n/a	"NULL"	"NULL"	"NULL"	"<p style=\"color: black; font-size: 80px; padding-left: 8%; padding-right: 30%; padding-top: 48%; padding-bottom: 31%\">+</p>"	"1314"	n/a	n/a	n/a	n/a	n/a	n/a	n/a	n/a	n/a
n/a	"image-keyboard-response"	"44"	"153344"	"0.0-4.0-3.0-2.0-1.3"	"e1bgku"	"600"	"1366"	"chrome"	"110.0.0"	"FALSE"	"Windows 10"	"60.1"	"028"	n/a	n/a	n/a	n/a	n/a	n/a	"Trial"	n/a	n/a	n/a	"480"	"arrowright"	n/a	"NULL"	"NULL"	"NULL"	"stimuli/VerticalHorizontal_0000000_-0.9000.png"	n/a	"VerticalHorizontal"	"arrowright"	"1323"	"TRUE"	"VerticalHorizontal"	"000000000000"	"-0.900000000"	"1"	"16"
n/a	"html-keyboard-response"	"45"	"154509"	"0.0-4.0-3.0-2.0-0.4"	"e1bgku"	"600"	"1366"	"chrome"	"110.0.0"	"FALSE"	"Windows 10"	"60.1"	"028"	n/a	n/a	n/a	n/a	n/a	n/a	"fixation"	n/a	n/a	n/a	n/a	"NULL"	n/a	"NULL"	"NULL"	"NULL"	"<p style=\"color: black; font-size: 80px; padding-left: 43%; padding-right: 11%; padding-top: 9%; padding-bottom: 19%\">+</p>"	"1151"	n/a	n/a	n/a	n/a	n/a	n/a	n/a	n/a	n/a
n/a	"image-keyboard-response"	"46"	"155093"	"0.0-4.0-3.0-2.0-1.4"	"e1bgku"	"600"	"1366"	"chrome"	"110.0.0"	"FALSE"	"Windows 10"	"60.1"	"028"	n/a	n/a	n/a	n/a	n/a	n/a	"Trial"	n/a	n/a	n/a	"583"	"arrowright"	n/a	"NULL"	"NULL"	"NULL"	"stimuli/VerticalHorizontal_3300000_-0.9000.png"	n/a	"VerticalHorizontal"	"arrowright"	"1165"	"TRUE"	"VerticalHorizontal"	"330000000000"	"-0.900000000"	"1"	"17"
n/a	"html-keyboard-response"	"47"	"156395"	"0.0-4.0-3.0-2.0-0.5"	"e1bgku"	"600"	"1366"	"chrome"	"110.0.0"	"FALSE"	"Windows 10"	"60.1"	"028"	n/a	n/a	n/a	n/a	n/a	n/a	"fixation"	n/a	n/a	n/a	n/a	"NULL"	n/a	"NULL"	"NULL"	"NULL"	"<p style=\"color: black; font-size: 80px; padding-left: 22%; padding-right: 38%; padding-top: 19%; padding-bottom: 48%\">+</p>"	"1287"	n/a	n/a	n/a	n/a	n/a	n/a	n/a	n/a	n/a
n/a	"image-keyboard-response"	"48"	"156866"	"0.0-4.0-3.0-2.0-1.5"	"e1bgku"	"600"	"1366"	"chrome"	"110.0.0"	"FALSE"	"Windows 10"	"60.1"	"028"	n/a	n/a	n/a	n/a	n/a	n/a	"Trial"	n/a	n/a	n/a	"471"	"arrowleft"	n/a	"NULL"	"NULL"	"NULL"	"stimuli/VerticalHorizontal_3300000_0.90000.png"	n/a	"VerticalHorizontal"	"arrowleft"	"1302"	"TRUE"	"VerticalHorizontal"	"330000000000"	"0.9000000000"	"1"	"18"
n/a	"html-button-response"	"49"	"158634"	"0.0-4.0-3.0-3.0"	"e1bgku"	"600"	"1366"	"chrome"	"110.0.0"	"FALSE"	"Windows 10"	"60.1"	"028"	n/a	n/a	n/a	n/a	n/a	n/a	"practice_block_results"	n/a	n/a	n/a	"1767"	"0"	n/a	"NULL"	"NULL"	"NULL"	"<p style='color:rgb(76,175,80);'> Correct Responses: <b>100.00%</b></p><hr><p style='color:rgb(233,30,99);'> Average Response Time: <b>474.17</b> ms.</p>"	n/a	n/a	n/a	n/a	n/a	n/a	n/a	n/a	n/a	n/a
n/a	"html-button-response"	"50"	"228401"	"0.0-4.0-4.0"	"e1bgku"	"600"	"1366"	"chrome"	"110.0.0"	"FALSE"	"Windows 10"	"60.1"	"028"	n/a	n/a	n/a	n/a	n/a	n/a	"practice_debrief"	n/a	n/a	n/a	"69266"	"0"	n/a	"NULL"	"NULL"	"NULL"	"<p><b>TRAINING COMPLETED</b></p><p>In the next phase, there will be more trials, and some might be harder too.<br> Moreover, after each illusion block, a <b>score</b> will be calculated based on speed (time you took to answer) and accuracy (number of errors).</p><p>Try to keep up a high score!</p><br><p>Note that it can be <i>really</i> challenging at times, so you will need to rely on your <b>intuition</b> and gut feeling to answer as fast as you can without making errors.</p><p>Each illusion block will be repeated two times (so that you have the opportunity to improve your score), but the order of the blocks is random.</p><p>Remember, your goal is to be as <b>fast</b> and <b>accurate</b> as possible. Good luck!</p><br>"	n/a	n/a	n/a	n/a	n/a	n/a	n/a	n/a	n/a	n/a
"TRUE"	"preload"	"51"	"228580"	"0.0-5.0-0.0"	"e1bgku"	"600"	"1366"	"chrome"	"110.0.0"	"FALSE"	"Windows 10"	"60.1"	"028"	n/a	n/a	n/a	n/a	n/a	n/a	n/a	n/a	n/a	n/a	n/a	"NULL"	"FALSE"	"list()"	"list()"	"list()"	n/a	n/a	n/a	n/a	n/a	n/a	n/a	n/a	n/a	n/a	n/a
n/a	"html-keyboard-response"	"52"	"233652"	"0.0-5.0-1.0"	"e1bgku"	"600"	"1366"	"chrome"	"110.0.0"	"FALSE"	"Windows 10"	"60.1"	"028"	n/a	n/a	n/a	n/a	n/a	n/a	n/a	n/a	n/a	n/a	"5070"	"enter"	n/a	"NULL"	"NULL"	"NULL"	"<p><b>Part 1/6</b></p><p>In this part, two horizontal red lines will appear one above the other.</p><p>Your task is to select which <b>line is longer</b> in length as fast as you can, without making errors.</p><p>Don't get distracted by the surrounding black arrows at the end of the red lines!</p><p>Press <b>the UP or the DOWN arrow</b> to indicate where is the longer <b>red line.</b></p><div style='float: center'><img src='materials/instructions/MullerLyer_Demo.png' height='300'></img><p><img src='utils/answer/answer_updown_keyboard.PNG' height='150'></img></p><p class='small'>In this example, the correct answer is the <b>UP arrow</b>.</p></div><p>Are you ready? <b>Press ENTER to start</b></p>"	n/a	n/a	n/a	n/a	n/a	n/a	n/a	n/a	n/a	n/a
n/a	"html-keyboard-response"	"53"	"235424"	"0.0-5.0-2.0-0.0"	"e1bgku"	"600"	"1366"	"chrome"	"110.0.0"	"FALSE"	"Windows 10"	"60.1"	"028"	n/a	n/a	n/a	n/a	n/a	n/a	"fixation"	n/a	n/a	n/a	n/a	"NULL"	n/a	"NULL"	"NULL"	"NULL"	"<p style=\"color: black; font-size: 80px; padding-left: 30%; padding-right: 3%; padding-top: 39%; padding-bottom: 8%\">+</p>"	"1257"	n/a	n/a	n/a	n/a	n/a	n/a	n/a	n/a	n/a
n/a	"image-keyboard-response"	"54"	"236465"	"0.0-5.0-2.0-1.0"	"e1bgku"	"600"	"1366"	"chrome"	"110.0.0"	"FALSE"	"Windows 10"	"60.1"	"028"	n/a	n/a	n/a	n/a	n/a	n/a	"Trial"	n/a	n/a	n/a	"1040"	"arrowdown"	n/a	"NULL"	"NULL"	"NULL"	"stimuli/MullerLyer_-20.04286_-0.23665.png"	n/a	"MullerLyer"	"arrowdown"	"1772"	"TRUE"	"MullerLyer"	"-20.04286000"	"-0.236650000"	"1"	"19"
n/a	"html-keyboard-response"	"55"	"237763"	"0.0-5.0-2.0-0.1"	"e1bgku"	"600"	"1366"	"chrome"	"110.0.0"	"FALSE"	"Windows 10"	"60.1"	"028"	n/a	n/a	n/a	n/a	n/a	n/a	"fixation"	n/a	n/a	n/a	n/a	"NULL"	n/a	"NULL"	"NULL"	"NULL"	"<p style=\"color: black; font-size: 80px; padding-left: 23%; padding-right: 35%; padding-top: 16%; padding-bottom: 6%\">+</p>"	"1291"	n/a	n/a	n/a	n/a	n/a	n/a	n/a	n/a	n/a
n/a	"image-keyboard-response"	"56"	"238360"	"0.0-5.0-2.0-1.1"	"e1bgku"	"600"	"1366"	"chrome"	"110.0.0"	"FALSE"	"Windows 10"	"60.1"	"028"	n/a	n/a	n/a	n/a	n/a	n/a	"Trial"	n/a	n/a	n/a	"596"	"arrowdown"	n/a	"NULL"	"NULL"	"NULL"	"stimuli/MullerLyer_-20.04286_-0.3500.png"	n/a	"MullerLyer"	"arrowdown"	"1298"	"TRUE"	"MullerLyer"	"-20.04286000"	"-0.350000000"	"1"	"20"
n/a	"html-keyboard-response"	"57"	"239676"	"0.0-5.0-2.0-0.2"	"e1bgku"	"600"	"1366"	"chrome"	"110.0.0"	"FALSE"	"Windows 10"	"60.1"	"028"	n/a	n/a	n/a	n/a	n/a	n/a	"fixation"	n/a	n/a	n/a	n/a	"NULL"	n/a	"NULL"	"NULL"	"NULL"	"<p style=\"color: black; font-size: 80px; padding-left: 42%; padding-right: 37%; padding-top: 40%; padding-bottom: 35%\">+</p>"	"1306"	n/a	n/a	n/a	n/a	n/a	n/a	n/a	n/a	n/a
n/a	"image-keyboard-response"	"58"	"241011"	"0.0-5.0-2.0-1.2"	"e1bgku"	"600"	"1366"	"chrome"	"110.0.0"	"FALSE"	"Windows 10"	"60.1"	"028"	n/a	n/a	n/a	n/a	n/a	n/a	"Trial"	n/a	n/a	n/a	"1335"	"arrowdown"	n/a	"NULL"	"NULL"	"NULL"	"stimuli/MullerLyer_20.04286_0.07627.png"	n/a	"MullerLyer"	"arrowup"	"1316"	"FALSE"	"MullerLyer"	"20.042860000"	"0.0762700000"	"1"	"21"
n/a	"html-keyboard-response"	"59"	"242494"	"0.0-5.0-2.0-0.3"	"e1bgku"	"600"	"1366"	"chrome"	"110.0.0"	"FALSE"	"Windows 10"	"60.1"	"028"	n/a	n/a	n/a	n/a	n/a	n/a	"fixation"	n/a	n/a	n/a	n/a	"NULL"	n/a	"NULL"	"NULL"	"NULL"	"<p style=\"color: black; font-size: 80px; padding-left: 18%; padding-right: 40%; padding-top: 47%; padding-bottom: 41%\">+</p>"	"1477"	n/a	n/a	n/a	n/a	n/a	n/a	n/a	n/a	n/a
n/a	"image-keyboard-response"	"60"	"243186"	"0.0-5.0-2.0-1.3"	"e1bgku"	"600"	"1366"	"chrome"	"110.0.0"	"FALSE"	"Windows 10"	"60.1"	"028"	n/a	n/a	n/a	n/a	n/a	n/a	"Trial"	n/a	n/a	n/a	"692"	"arrowup"	n/a	"NULL"	"NULL"	"NULL"	"stimuli/MullerLyer_-2.3000_0.07627.png"	n/a	"MullerLyer"	"arrowup"	"1483"	"TRUE"	"MullerLyer"	"-2.300000000"	"0.0762700000"	"1"	"22"
n/a	"html-keyboard-response"	"61"	"244692"	"0.0-5.0-2.0-0.4"	"e1bgku"	"600"	"1366"	"chrome"	"110.0.0"	"FALSE"	"Windows 10"	"60.1"	"028"	n/a	n/a	n/a	n/a	n/a	n/a	"fixation"	n/a	n/a	n/a	n/a	"NULL"	n/a	"NULL"	"NULL"	"NULL"	"<p style=\"color: black; font-size: 80px; padding-left: 43%; padding-right: 20%; padding-top: 19%; padding-bottom: 41%\">+</p>"	"1492"	n/a	n/a	n/a	n/a	n/a	n/a	n/a	n/a	n/a
n/a	"image-keyboard-response"	"62"	"245744"	"0.0-5.0-2.0-1.4"	"e1bgku"	"600"	"1366"	"chrome"	"110.0.0"	"FALSE"	"Windows 10"	"60.1"	"028"	n/a	n/a	n/a	n/a	n/a	n/a	"Trial"	n/a	n/a	n/a	"1051"	"arrowup"	n/a	"NULL"	"NULL"	"NULL"	"stimuli/MullerLyer_8.21429_-0.14541.png"	n/a	"MullerLyer"	"arrowdown"	"1506"	"FALSE"	"MullerLyer"	"8.2142900000"	"-0.145410000"	"1"	"23"
n/a	"html-keyboard-response"	"63"	"247173"	"0.0-5.0-2.0-0.5"	"e1bgku"	"600"	"1366"	"chrome"	"110.0.0"	"FALSE"	"Windows 10"	"60.1"	"028"	n/a	n/a	n/a	n/a	n/a	n/a	"fixation"	n/a	n/a	n/a	n/a	"NULL"	n/a	"NULL"	"NULL"	"NULL"	"<p style=\"color: black; font-size: 80px; padding-left: 24%; padding-right: 37%; padding-top: 44%; padding-bottom: 21%\">+</p>"	"1419"	n/a	n/a	n/a	n/a	n/a	n/a	n/a	n/a	n/a
n/a	"image-keyboard-response"	"64"	"248404"	"0.0-5.0-2.0-1.5"	"e1bgku"	"600"	"1366"	"chrome"	"110.0.0"	"FALSE"	"Windows 10"	"60.1"	"028"	n/a	n/a	n/a	n/a	n/a	n/a	"Trial"	n/a	n/a	n/a	"1230"	"arrowup"	n/a	"NULL"	"NULL"	"NULL"	"stimuli/MullerLyer_8.21429_0.07627.png"	n/a	"MullerLyer"	"arrowup"	"1429"	"TRUE"	"MullerLyer"	"8.2142900000"	"0.0762700000"	"1"	"24"
n/a	"html-keyboard-response"	"65"	"249863"	"0.0-5.0-2.0-0.6"	"e1bgku"	"600"	"1366"	"chrome"	"110.0.0"	"FALSE"	"Windows 10"	"60.1"	"028"	n/a	n/a	n/a	n/a	n/a	n/a	"fixation"	n/a	n/a	n/a	n/a	"NULL"	n/a	"NULL"	"NULL"	"NULL"	"<p style=\"color: black; font-size: 80px; padding-left: 7%; padding-right: 32%; padding-top: 14%; padding-bottom: 27%\">+</p>"	"1458"	n/a	n/a	n/a	n/a	n/a	n/a	n/a	n/a	n/a
n/a	"image-keyboard-response"	"66"	"250951"	"0.0-5.0-2.0-1.6"	"e1bgku"	"600"	"1366"	"chrome"	"110.0.0"	"FALSE"	"Windows 10"	"60.1"	"028"	n/a	n/a	n/a	n/a	n/a	n/a	"Trial"	n/a	n/a	n/a	"1084"	"arrowdown"	n/a	"NULL"	"NULL"	"NULL"	"stimuli/MullerLyer_14.12857_0.07627.png"	n/a	"MullerLyer"	"arrowup"	"1459"	"FALSE"	"MullerLyer"	"14.128570000"	"0.0762700000"	"1"	"25"
n/a	"html-keyboard-response"	"67"	"252457"	"0.0-5.0-2.0-0.7"	"e1bgku"	"600"	"1366"	"chrome"	"110.0.0"	"FALSE"	"Windows 10"	"60.1"	"028"	n/a	n/a	n/a	n/a	n/a	n/a	"fixation"	n/a	n/a	n/a	n/a	"NULL"	n/a	"NULL"	"NULL"	"NULL"	"<p style=\"color: black; font-size: 80px; padding-left: 49%; padding-right: 28%; padding-top: 30%; padding-bottom: 49%\">+</p>"	"1491"	n/a	n/a	n/a	n/a	n/a	n/a	n/a	n/a	n/a
n/a	"image-keyboard-response"	"68"	"253653"	"0.0-5.0-2.0-1.7"	"e1bgku"	"600"	"1366"	"chrome"	"110.0.0"	"FALSE"	"Windows 10"	"60.1"	"028"	n/a	n/a	n/a	n/a	n/a	n/a	"Trial"	n/a	n/a	n/a	"1196"	"arrowdown"	n/a	"NULL"	"NULL"	"NULL"	"stimuli/MullerLyer_8.21429_-0.23665.png"	n/a	"MullerLyer"	"arrowdown"	"1506"	"TRUE"	"MullerLyer"	"8.2142900000"	"-0.236650000"	"1"	"26"
n/a	"html-keyboard-response"	"69"	"255129"	"0.0-5.0-2.0-0.8"	"e1bgku"	"600"	"1366"	"chrome"	"110.0.0"	"FALSE"	"Windows 10"	"60.1"	"028"	n/a	n/a	n/a	n/a	n/a	n/a	"fixation"	n/a	n/a	n/a	n/a	"NULL"	n/a	"NULL"	"NULL"	"NULL"	"<p style=\"color: black; font-size: 80px; padding-left: 1%; padding-right: 24%; padding-top: 44%; padding-bottom: 33%\">+</p>"	"1460"	n/a	n/a	n/a	n/a	n/a	n/a	n/a	n/a	n/a
n/a	"image-keyboard-response"	"70"	"257036"	"0.0-5.0-2.0-1.8"	"e1bgku"	"600"	"1366"	"chrome"	"110.0.0"	"FALSE"	"Windows 10"	"60.1"	"028"	n/a	n/a	n/a	n/a	n/a	n/a	"Trial"	n/a	n/a	n/a	"1906"	"arrowdown"	n/a	"NULL"	"NULL"	"NULL"	"stimuli/MullerLyer_-8.21429_-0.07627.png"	n/a	"MullerLyer"	"arrowdown"	"1476"	"TRUE"	"MullerLyer"	"-8.214290000"	"-0.076270000"	"1"	"27"
n/a	"html-keyboard-response"	"71"	"258127"	"0.0-5.0-2.0-0.9"	"e1bgku"	"600"	"1366"	"chrome"	"110.0.0"	"FALSE"	"Windows 10"	"60.1"	"028"	n/a	n/a	n/a	n/a	n/a	n/a	"fixation"	n/a	n/a	n/a	n/a	"NULL"	n/a	"NULL"	"NULL"	"NULL"	"<p style=\"color: black; font-size: 80px; padding-left: 15%; padding-right: 24%; padding-top: 5%; padding-bottom: 38%\">+</p>"	"1083"	n/a	n/a	n/a	n/a	n/a	n/a	n/a	n/a	n/a
n/a	"image-keyboard-response"	"72"	"259244"	"0.0-5.0-2.0-1.9"	"e1bgku"	"600"	"1366"	"chrome"	"110.0.0"	"FALSE"	"Windows 10"	"60.1"	"028"	n/a	n/a	n/a	n/a	n/a	n/a	"Trial"	n/a	n/a	n/a	"1116"	"arrowdown"	n/a	"NULL"	"NULL"	"NULL"	"stimuli/MullerLyer_-2.3000_-0.07627.png"	n/a	"MullerLyer"	"arrowdown"	"1091"	"TRUE"	"MullerLyer"	"-2.300000000"	"-0.076270000"	"1"	"28"
n/a	"html-keyboard-response"	"73"	"260300"	"0.0-5.0-2.0-0.10"	"e1bgku"	"600"	"1366"	"chrome"	"110.0.0"	"FALSE"	"Windows 10"	"60.1"	"028"	n/a	n/a	n/a	n/a	n/a	n/a	"fixation"	n/a	n/a	n/a	n/a	"NULL"	n/a	"NULL"	"NULL"	"NULL"	"<p style=\"color: black; font-size: 80px; padding-left: 8%; padding-right: 30%; padding-top: 34%; padding-bottom: 16%\">+</p>"	"1041"	n/a	n/a	n/a	n/a	n/a	n/a	n/a	n/a	n/a
n/a	"image-keyboard-response"	"74"	"261083"	"0.0-5.0-2.0-1.10"	"e1bgku"	"600"	"1366"	"chrome"	"110.0.0"	"FALSE"	"Windows 10"	"60.1"	"028"	n/a	n/a	n/a	n/a	n/a	n/a	"Trial"	n/a	n/a	n/a	"783"	"arrowdown"	n/a	"NULL"	"NULL"	"NULL"	"stimuli/MullerLyer_-14.12857_-0.14541.png"	n/a	"MullerLyer"	"arrowdown"	"1056"	"TRUE"	"MullerLyer"	"-14.12857000"	"-0.145410000"	"1"	"29"
n/a	"html-keyboard-response"	"75"	"262332"	"0.0-5.0-2.0-0.11"	"e1bgku"	"600"	"1366"	"chrome"	"110.0.0"	"FALSE"	"Windows 10"	"60.1"	"028"	n/a	n/a	n/a	n/a	n/a	n/a	"fixation"	n/a	n/a	n/a	n/a	"NULL"	n/a	"NULL"	"NULL"	"NULL"	"<p style=\"color: black; font-size: 80px; padding-left: 20%; padding-right: 10%; padding-top: 39%; padding-bottom: 38%\">+</p>"	"1241"	n/a	n/a	n/a	n/a	n/a	n/a	n/a	n/a	n/a
n/a	"image-keyboard-response"	"76"	"263073"	"0.0-5.0-2.0-1.11"	"e1bgku"	"600"	"1366"	"chrome"	"110.0.0"	"FALSE"	"Windows 10"	"60.1"	"028"	n/a	n/a	n/a	n/a	n/a	n/a	"Trial"	n/a	n/a	n/a	"740"	"arrowdown"	n/a	"NULL"	"NULL"	"NULL"	"stimuli/MullerLyer_-14.12857_-0.07627.png"	n/a	"MullerLyer"	"arrowdown"	"1249"	"TRUE"	"MullerLyer"	"-14.12857000"	"-0.076270000"	"1"	"30"
n/a	"html-keyboard-response"	"77"	"264252"	"0.0-5.0-2.0-0.12"	"e1bgku"	"600"	"1366"	"chrome"	"110.0.0"	"FALSE"	"Windows 10"	"60.1"	"028"	n/a	n/a	n/a	n/a	n/a	n/a	"fixation"	n/a	n/a	n/a	n/a	"NULL"	n/a	"NULL"	"NULL"	"NULL"	"<p style=\"color: black; font-size: 80px; padding-left: 12%; padding-right: 41%; padding-top: 36%; padding-bottom: 15%\">+</p>"	"1169"	n/a	n/a	n/a	n/a	n/a	n/a	n/a	n/a	n/a
n/a	"image-keyboard-response"	"78"	"265572"	"0.0-5.0-2.0-1.12"	"e1bgku"	"600"	"1366"	"chrome"	"110.0.0"	"FALSE"	"Windows 10"	"60.1"	"028"	n/a	n/a	n/a	n/a	n/a	n/a	"Trial"	n/a	n/a	n/a	"1319"	"arrowdown"	n/a	"NULL"	"NULL"	"NULL"	"stimuli/MullerLyer_14.12857_-0.3500.png"	n/a	"MullerLyer"	"arrowdown"	"1179"	"TRUE"	"MullerLyer"	"14.128570000"	"-0.350000000"	"1"	"31"
n/a	"html-keyboard-response"	"79"	"266988"	"0.0-5.0-2.0-0.13"	"e1bgku"	"600"	"1366"	"chrome"	"110.0.0"	"FALSE"	"Windows 10"	"60.1"	"028"	n/a	n/a	n/a	n/a	n/a	n/a	"fixation"	n/a	n/a	n/a	n/a	"NULL"	n/a	"NULL"	"NULL"	"NULL"	"<p style=\"color: black; font-size: 80px; padding-left: 36%; padding-right: 23%; padding-top: 6%; padding-bottom: 6%\">+</p>"	"1404"	n/a	n/a	n/a	n/a	n/a	n/a	n/a	n/a	n/a
n/a	"image-keyboard-response"	"80"	"267911"	"0.0-5.0-2.0-1.13"	"e1bgku"	"600"	"1366"	"chrome"	"110.0.0"	"FALSE"	"Windows 10"	"60.1"	"028"	n/a	n/a	n/a	n/a	n/a	n/a	"Trial"	n/a	n/a	n/a	"922"	"arrowup"	n/a	"NULL"	"NULL"	"NULL"	"stimuli/MullerLyer_20.04286_-0.14541.png"	n/a	"MullerLyer"	"arrowdown"	"1416"	"FALSE"	"MullerLyer"	"20.042860000"	"-0.145410000"	"1"	"32"
n/a	"html-keyboard-response"	"81"	"269283"	"0.0-5.0-2.0-0.14"	"e1bgku"	"600"	"1366"	"chrome"	"110.0.0"	"FALSE"	"Windows 10"	"60.1"	"028"	n/a	n/a	n/a	n/a	n/a	n/a	"fixation"	n/a	n/a	n/a	n/a	"NULL"	n/a	"NULL"	"NULL"	"NULL"	"<p style=\"color: black; font-size: 80px; padding-left: 38%; padding-right: 4%; padding-top: 33%; padding-bottom: 26%\">+</p>"	"1367"	n/a	n/a	n/a	n/a	n/a	n/a	n/a	n/a	n/a
n/a	"image-keyboard-response"	"82"	"269939"	"0.0-5.0-2.0-1.14"	"e1bgku"	"600"	"1366"	"chrome"	"110.0.0"	"FALSE"	"Windows 10"	"60.1"	"028"	n/a	n/a	n/a	n/a	n/a	n/a	"Trial"	n/a	n/a	n/a	"656"	"arrowup"	n/a	"NULL"	"NULL"	"NULL"	"stimuli/MullerLyer_2.30000_0.35000.png"	n/a	"MullerLyer"	"arrowup"	"1372"	"TRUE"	"MullerLyer"	"2.3000000000"	"0.3500000000"	"1"	"33"
n/a	"html-keyboard-response"	"83"	"271134"	"0.0-5.0-2.0-0.15"	"e1bgku"	"600"	"1366"	"chrome"	"110.0.0"	"FALSE"	"Windows 10"	"60.1"	"028"	n/a	n/a	n/a	n/a	n/a	n/a	"fixation"	n/a	n/a	n/a	n/a	"NULL"	n/a	"NULL"	"NULL"	"NULL"	"<p style=\"color: black; font-size: 80px; padding-left: 37%; padding-right: 24%; padding-top: 19%; padding-bottom: 42%\">+</p>"	"1188"	n/a	n/a	n/a	n/a	n/a	n/a	n/a	n/a	n/a
n/a	"image-keyboard-response"	"84"	"271759"	"0.0-5.0-2.0-1.15"	"e1bgku"	"600"	"1366"	"chrome"	"110.0.0"	"FALSE"	"Windows 10"	"60.1"	"028"	n/a	n/a	n/a	n/a	n/a	n/a	"Trial"	n/a	n/a	n/a	"623"	"arrowup"	n/a	"NULL"	"NULL"	"NULL"	"stimuli/MullerLyer_-20.04286_0.35000.png"	n/a	"MullerLyer"	"arrowup"	"1195"	"TRUE"	"MullerLyer"	"-20.04286000"	"0.3500000000"	"1"	"34"
n/a	"html-keyboard-response"	"85"	"272909"	"0.0-5.0-2.0-0.16"	"e1bgku"	"600"	"1366"	"chrome"	"110.0.0"	"FALSE"	"Windows 10"	"60.1"	"028"	n/a	n/a	n/a	n/a	n/a	n/a	"fixation"	n/a	n/a	n/a	n/a	"NULL"	n/a	"NULL"	"NULL"	"NULL"	"<p style=\"color: black; font-size: 80px; padding-left: 45%; padding-right: 27%; padding-top: 3%; padding-bottom: 37%\">+</p>"	"1146"	n/a	n/a	n/a	n/a	n/a	n/a	n/a	n/a	n/a
n/a	"image-keyboard-response"	"86"	"273775"	"0.0-5.0-2.0-1.16"	"e1bgku"	"600"	"1366"	"chrome"	"110.0.0"	"FALSE"	"Windows 10"	"60.1"	"028"	n/a	n/a	n/a	n/a	n/a	n/a	"Trial"	n/a	n/a	n/a	"865"	"arrowup"	n/a	"NULL"	"NULL"	"NULL"	"stimuli/MullerLyer_2.30000_0.14541.png"	n/a	"MullerLyer"	"arrowup"	"1150"	"TRUE"	"MullerLyer"	"2.3000000000"	"0.1454100000"	"1"	"35"
n/a	"html-keyboard-response"	"87"	"275039"	"0.0-5.0-2.0-0.17"	"e1bgku"	"600"	"1366"	"chrome"	"110.0.0"	"FALSE"	"Windows 10"	"60.1"	"028"	n/a	n/a	n/a	n/a	n/a	n/a	"fixation"	n/a	n/a	n/a	n/a	"NULL"	n/a	"NULL"	"NULL"	"NULL"	"<p style=\"color: black; font-size: 80px; padding-left: 3%; padding-right: 44%; padding-top: 32%; padding-bottom: 23%\">+</p>"	"1258"	n/a	n/a	n/a	n/a	n/a	n/a	n/a	n/a	n/a
n/a	"image-keyboard-response"	"88"	"275644"	"0.0-5.0-2.0-1.17"	"e1bgku"	"600"	"1366"	"chrome"	"110.0.0"	"FALSE"	"Windows 10"	"60.1"	"028"	n/a	n/a	n/a	n/a	n/a	n/a	"Trial"	n/a	n/a	n/a	"604"	"arrowup"	n/a	"NULL"	"NULL"	"NULL"	"stimuli/MullerLyer_-14.12857_0.23665.png"	n/a	"MullerLyer"	"arrowup"	"1264"	"TRUE"	"MullerLyer"	"-14.12857000"	"0.2366500000"	"1"	"36"
n/a	"html-keyboard-response"	"89"	"277142"	"0.0-5.0-2.0-0.18"	"e1bgku"	"600"	"1366"	"chrome"	"110.0.0"	"FALSE"	"Windows 10"	"60.1"	"028"	n/a	n/a	n/a	n/a	n/a	n/a	"fixation"	n/a	n/a	n/a	n/a	"NULL"	n/a	"NULL"	"NULL"	"NULL"	"<p style=\"color: black; font-size: 80px; padding-left: 17%; padding-right: 28%; padding-top: 14%; padding-bottom: 5%\">+</p>"	"1492"	n/a	n/a	n/a	n/a	n/a	n/a	n/a	n/a	n/a
n/a	"image-keyboard-response"	"90"	"278003"	"0.0-5.0-2.0-1.18"	"e1bgku"	"600"	"1366"	"chrome"	"110.0.0"	"FALSE"	"Windows 10"	"60.1"	"028"	n/a	n/a	n/a	n/a	n/a	n/a	"Trial"	n/a	n/a	n/a	"860"	"arrowdown"	n/a	"NULL"	"NULL"	"NULL"	"stimuli/MullerLyer_20.04286_-0.3500.png"	n/a	"MullerLyer"	"arrowdown"	"1498"	"TRUE"	"MullerLyer"	"20.042860000"	"-0.350000000"	"1"	"37"
n/a	"html-keyboard-response"	"91"	"279409"	"0.0-5.0-2.0-0.19"	"e1bgku"	"600"	"1366"	"chrome"	"110.0.0"	"FALSE"	"Windows 10"	"60.1"	"028"	n/a	n/a	n/a	n/a	n/a	n/a	"fixation"	n/a	n/a	n/a	n/a	"NULL"	n/a	"NULL"	"NULL"	"NULL"	"<p style=\"color: black; font-size: 80px; padding-left: 20%; padding-right: 40%; padding-top: 30%; padding-bottom: 5%\">+</p>"	"1404"	n/a	n/a	n/a	n/a	n/a	n/a	n/a	n/a	n/a
n/a	"image-keyboard-response"	"92"	"280065"	"0.0-5.0-2.0-1.19"	"e1bgku"	"600"	"1366"	"chrome"	"110.0.0"	"FALSE"	"Windows 10"	"60.1"	"028"	n/a	n/a	n/a	n/a	n/a	n/a	"Trial"	n/a	n/a	n/a	"655"	"arrowdown"	n/a	"NULL"	"NULL"	"NULL"	"stimuli/MullerLyer_-2.3000_-0.3500.png"	n/a	"MullerLyer"	"arrowdown"	"1406"	"TRUE"	"MullerLyer"	"-2.300000000"	"-0.350000000"	"1"	"38"
n/a	"html-keyboard-response"	"93"	"281253"	"0.0-5.0-2.0-0.20"	"e1bgku"	"600"	"1366"	"chrome"	"110.0.0"	"FALSE"	"Windows 10"	"60.1"	"028"	n/a	n/a	n/a	n/a	n/a	n/a	"fixation"	n/a	n/a	n/a	n/a	"NULL"	n/a	"NULL"	"NULL"	"NULL"	"<p style=\"color: black; font-size: 80px; padding-left: 23%; padding-right: 42%; padding-top: 33%; padding-bottom: 39%\">+</p>"	"1187"	n/a	n/a	n/a	n/a	n/a	n/a	n/a	n/a	n/a
n/a	"image-keyboard-response"	"94"	"282038"	"0.0-5.0-2.0-1.20"	"e1bgku"	"600"	"1366"	"chrome"	"110.0.0"	"FALSE"	"Windows 10"	"60.1"	"028"	n/a	n/a	n/a	n/a	n/a	n/a	"Trial"	n/a	n/a	n/a	"784"	"arrowup"	n/a	"NULL"	"NULL"	"NULL"	"stimuli/MullerLyer_14.12857_0.14541.png"	n/a	"MullerLyer"	"arrowup"	"1188"	"TRUE"	"MullerLyer"	"14.128570000"	"0.1454100000"	"1"	"39"
n/a	"html-keyboard-response"	"95"	"283111"	"0.0-5.0-2.0-0.21"	"e1bgku"	"600"	"1366"	"chrome"	"110.0.0"	"FALSE"	"Windows 10"	"60.1"	"028"	n/a	n/a	n/a	n/a	n/a	n/a	"fixation"	n/a	n/a	n/a	n/a	"NULL"	n/a	"NULL"	"NULL"	"NULL"	"<p style=\"color: black; font-size: 80px; padding-left: 2%; padding-right: 0%; padding-top: 47%; padding-bottom: 47%\">+</p>"	"1060"	n/a	n/a	n/a	n/a	n/a	n/a	n/a	n/a	n/a
n/a	"image-keyboard-response"	"96"	"283684"	"0.0-5.0-2.0-1.21"	"e1bgku"	"600"	"1366"	"chrome"	"110.0.0"	"FALSE"	"Windows 10"	"60.1"	"028"	n/a	n/a	n/a	n/a	n/a	n/a	"Trial"	n/a	n/a	n/a	"572"	"arrowdown"	n/a	"NULL"	"NULL"	"NULL"	"stimuli/MullerLyer_-2.3000_-0.23665.png"	n/a	"MullerLyer"	"arrowdown"	"1073"	"TRUE"	"MullerLyer"	"-2.300000000"	"-0.236650000"	"1"	"40"
n/a	"html-keyboard-response"	"97"	"285174"	"0.0-5.0-2.0-0.22"	"e1bgku"	"600"	"1366"	"chrome"	"110.0.0"	"FALSE"	"Windows 10"	"60.1"	"028"	n/a	n/a	n/a	n/a	n/a	n/a	"fixation"	n/a	n/a	n/a	n/a	"NULL"	n/a	"NULL"	"NULL"	"NULL"	"<p style=\"color: black; font-size: 80px; padding-left: 30%; padding-right: 32%; padding-top: 35%; padding-bottom: 8%\">+</p>"	"1481"	n/a	n/a	n/a	n/a	n/a	n/a	n/a	n/a	n/a
n/a	"image-keyboard-response"	"98"	"285844"	"0.0-5.0-2.0-1.22"	"e1bgku"	"600"	"1366"	"chrome"	"110.0.0"	"FALSE"	"Windows 10"	"60.1"	"028"	n/a	n/a	n/a	n/a	n/a	n/a	"Trial"	n/a	n/a	n/a	"669"	"arrowup"	n/a	"NULL"	"NULL"	"NULL"	"stimuli/MullerLyer_-14.12857_0.14541.png"	n/a	"MullerLyer"	"arrowup"	"1490"	"TRUE"	"MullerLyer"	"-14.12857000"	"0.1454100000"	"1"	"41"
n/a	"html-keyboard-response"	"99"	"286971"	"0.0-5.0-2.0-0.23"	"e1bgku"	"600"	"1366"	"chrome"	"110.0.0"	"FALSE"	"Windows 10"	"60.1"	"028"	n/a	n/a	n/a	n/a	n/a	n/a	"fixation"	n/a	n/a	n/a	n/a	"NULL"	n/a	"NULL"	"NULL"	"NULL"	"<p style=\"color: black; font-size: 80px; padding-left: 30%; padding-right: 36%; padding-top: 5%; padding-bottom: 5%\">+</p>"	"1122"	n/a	n/a	n/a	n/a	n/a	n/a	n/a	n/a	n/a
n/a	"image-keyboard-response"	"100"	"287997"	"0.0-5.0-2.0-1.23"	"e1bgku"	"600"	"1366"	"chrome"	"110.0.0"	"FALSE"	"Windows 10"	"60.1"	"028"	n/a	n/a	n/a	n/a	n/a	n/a	"Trial"	n/a	n/a	n/a	"1025"	"arrowup"	n/a	"NULL"	"NULL"	"NULL"	"stimuli/MullerLyer_2.30000_-0.07627.png"	n/a	"MullerLyer"	"arrowdown"	"1127"	"FALSE"	"MullerLyer"	"2.3000000000"	"-0.076270000"	"1"	"42"
n/a	"html-keyboard-response"	"101"	"289488"	"0.0-5.0-2.0-0.24"	"e1bgku"	"600"	"1366"	"chrome"	"110.0.0"	"FALSE"	"Windows 10"	"60.1"	"028"	n/a	n/a	n/a	n/a	n/a	n/a	"fixation"	n/a	n/a	n/a	n/a	"NULL"	n/a	"NULL"	"NULL"	"NULL"	"<p style=\"color: black; font-size: 80px; padding-left: 7%; padding-right: 8%; padding-top: 32%; padding-bottom: 42%\">+</p>"	"1487"	n/a	n/a	n/a	n/a	n/a	n/a	n/a	n/a	n/a
n/a	"image-keyboard-response"	"102"	"290431"	"0.0-5.0-2.0-1.24"	"e1bgku"	"600"	"1366"	"chrome"	"110.0.0"	"FALSE"	"Windows 10"	"60.1"	"028"	n/a	n/a	n/a	n/a	n/a	n/a	"Trial"	n/a	n/a	n/a	"942"	"arrowup"	n/a	"NULL"	"NULL"	"NULL"	"stimuli/MullerLyer_2.30000_0.07627.png"	n/a	"MullerLyer"	"arrowup"	"1491"	"TRUE"	"MullerLyer"	"2.3000000000"	"0.0762700000"	"1"	"43"
n/a	"html-keyboard-response"	"103"	"291790"	"0.0-5.0-2.0-0.25"	"e1bgku"	"600"	"1366"	"chrome"	"110.0.0"	"FALSE"	"Windows 10"	"60.1"	"028"	n/a	n/a	n/a	n/a	n/a	n/a	"fixation"	n/a	n/a	n/a	n/a	"NULL"	n/a	"NULL"	"NULL"	"NULL"	"<p style=\"color: black; font-size: 80px; padding-left: 14%; padding-right: 49%; padding-top: 2%; padding-bottom: 33%\">+</p>"	"1358"	n/a	n/a	n/a	n/a	n/a	n/a	n/a	n/a	n/a
n/a	"image-keyboard-response"	"104"	"292588"	"0.0-5.0-2.0-1.25"	"e1bgku"	"600"	"1366"	"chrome"	"110.0.0"	"FALSE"	"Windows 10"	"60.1"	"028"	n/a	n/a	n/a	n/a	n/a	n/a	"Trial"	n/a	n/a	n/a	"797"	"arrowdown"	n/a	"NULL"	"NULL"	"NULL"	"stimuli/MullerLyer_-8.21429_-0.14541.png"	n/a	"MullerLyer"	"arrowdown"	"1359"	"TRUE"	"MullerLyer"	"-8.214290000"	"-0.145410000"	"1"	"44"
n/a	"html-keyboard-response"	"105"	"293972"	"0.0-5.0-2.0-0.26"	"e1bgku"	"600"	"1366"	"chrome"	"110.0.0"	"FALSE"	"Windows 10"	"60.1"	"028"	n/a	n/a	n/a	n/a	n/a	n/a	"fixation"	n/a	n/a	n/a	n/a	"NULL"	n/a	"NULL"	"NULL"	"NULL"	"<p style=\"color: black; font-size: 80px; padding-left: 16%; padding-right: 40%; padding-top: 25%; padding-bottom: 3%\">+</p>"	"1374"	n/a	n/a	n/a	n/a	n/a	n/a	n/a	n/a	n/a
n/a	"image-keyboard-response"	"106"	"294603"	"0.0-5.0-2.0-1.26"	"e1bgku"	"600"	"1366"	"chrome"	"110.0.0"	"FALSE"	"Windows 10"	"60.1"	"028"	n/a	n/a	n/a	n/a	n/a	n/a	"Trial"	n/a	n/a	n/a	"631"	"arrowup"	n/a	"NULL"	"NULL"	"NULL"	"stimuli/MullerLyer_20.04286_0.23665.png"	n/a	"MullerLyer"	"arrowup"	"1384"	"TRUE"	"MullerLyer"	"20.042860000"	"0.2366500000"	"1"	"45"
n/a	"html-keyboard-response"	"107"	"295863"	"0.0-5.0-2.0-0.27"	"e1bgku"	"600"	"1366"	"chrome"	"110.0.0"	"FALSE"	"Windows 10"	"60.1"	"028"	n/a	n/a	n/a	n/a	n/a	n/a	"fixation"	n/a	n/a	n/a	n/a	"NULL"	n/a	"NULL"	"NULL"	"NULL"	"<p style=\"color: black; font-size: 80px; padding-left: 11%; padding-right: 49%; padding-top: 21%; padding-bottom: 8%\">+</p>"	"1245"	n/a	n/a	n/a	n/a	n/a	n/a	n/a	n/a	n/a
n/a	"image-keyboard-response"	"108"	"296424"	"0.0-5.0-2.0-1.27"	"e1bgku"	"600"	"1366"	"chrome"	"110.0.0"	"FALSE"	"Windows 10"	"60.1"	"028"	n/a	n/a	n/a	n/a	n/a	n/a	"Trial"	n/a	n/a	n/a	"560"	"arrowup"	n/a	"NULL"	"NULL"	"NULL"	"stimuli/MullerLyer_-8.21429_0.23665.png"	n/a	"MullerLyer"	"arrowup"	"1260"	"TRUE"	"MullerLyer"	"-8.214290000"	"0.2366500000"	"1"	"46"
n/a	"html-keyboard-response"	"109"	"297569"	"0.0-5.0-2.0-0.28"	"e1bgku"	"600"	"1366"	"chrome"	"110.0.0"	"FALSE"	"Windows 10"	"60.1"	"028"	n/a	n/a	n/a	n/a	n/a	n/a	"fixation"	n/a	n/a	n/a	n/a	"NULL"	n/a	"NULL"	"NULL"	"NULL"	"<p style=\"color: black; font-size: 80px; padding-left: 31%; padding-right: 32%; padding-top: 31%; padding-bottom: 9%\">+</p>"	"1140"	n/a	n/a	n/a	n/a	n/a	n/a	n/a	n/a	n/a
n/a	"image-keyboard-response"	"110"	"298718"	"0.0-5.0-2.0-1.28"	"e1bgku"	"600"	"1366"	"chrome"	"110.0.0"	"FALSE"	"Windows 10"	"60.1"	"028"	n/a	n/a	n/a	n/a	n/a	n/a	"Trial"	n/a	n/a	n/a	"1148"	"arrowup"	n/a	"NULL"	"NULL"	"NULL"	"stimuli/MullerLyer_8.21429_-0.07627.png"	n/a	"MullerLyer"	"arrowdown"	"1145"	"FALSE"	"MullerLyer"	"8.2142900000"	"-0.076270000"	"1"	"47"
n/a	"html-keyboard-response"	"111"	"300222"	"0.0-5.0-2.0-0.29"	"e1bgku"	"600"	"1366"	"chrome"	"110.0.0"	"FALSE"	"Windows 10"	"60.1"	"028"	n/a	n/a	n/a	n/a	n/a	n/a	"fixation"	n/a	n/a	n/a	n/a	"NULL"	n/a	"NULL"	"NULL"	"NULL"	"<p style=\"color: black; font-size: 80px; padding-left: 33%; padding-right: 20%; padding-top: 6%; padding-bottom: 4%\">+</p>"	"1488"	n/a	n/a	n/a	n/a	n/a	n/a	n/a	n/a	n/a
n/a	"image-keyboard-response"	"112"	"301045"	"0.0-5.0-2.0-1.29"	"e1bgku"	"600"	"1366"	"chrome"	"110.0.0"	"FALSE"	"Windows 10"	"60.1"	"028"	n/a	n/a	n/a	n/a	n/a	n/a	"Trial"	n/a	n/a	n/a	"822"	"arrowdown"	n/a	"NULL"	"NULL"	"NULL"	"stimuli/MullerLyer_2.30000_-0.14541.png"	n/a	"MullerLyer"	"arrowdown"	"1504"	"TRUE"	"MullerLyer"	"2.3000000000"	"-0.145410000"	"1"	"48"
n/a	"html-keyboard-response"	"113"	"302544"	"0.0-5.0-2.0-0.30"	"e1bgku"	"600"	"1366"	"chrome"	"110.0.0"	"FALSE"	"Windows 10"	"60.1"	"028"	n/a	n/a	n/a	n/a	n/a	n/a	"fixation"	n/a	n/a	n/a	n/a	"NULL"	n/a	"NULL"	"NULL"	"NULL"	"<p style=\"color: black; font-size: 80px; padding-left: 48%; padding-right: 22%; padding-top: 49%; padding-bottom: 43%\">+</p>"	"1491"	n/a	n/a	n/a	n/a	n/a	n/a	n/a	n/a	n/a
n/a	"image-keyboard-response"	"114"	"303128"	"0.0-5.0-2.0-1.30"	"e1bgku"	"600"	"1366"	"chrome"	"110.0.0"	"FALSE"	"Windows 10"	"60.1"	"028"	n/a	n/a	n/a	n/a	n/a	n/a	"Trial"	n/a	n/a	n/a	"584"	"arrowup"	n/a	"NULL"	"NULL"	"NULL"	"stimuli/MullerLyer_-20.04286_0.23665.png"	n/a	"MullerLyer"	"arrowup"	"1499"	"TRUE"	"MullerLyer"	"-20.04286000"	"0.2366500000"	"1"	"49"
n/a	"html-keyboard-response"	"115"	"304144"	"0.0-5.0-2.0-0.31"	"e1bgku"	"600"	"1366"	"chrome"	"110.0.0"	"FALSE"	"Windows 10"	"60.1"	"028"	n/a	n/a	n/a	n/a	n/a	n/a	"fixation"	n/a	n/a	n/a	n/a	"NULL"	n/a	"NULL"	"NULL"	"NULL"	"<p style=\"color: black; font-size: 80px; padding-left: 35%; padding-right: 38%; padding-top: 20%; padding-bottom: 9%\">+</p>"	"1009"	n/a	n/a	n/a	n/a	n/a	n/a	n/a	n/a	n/a
n/a	"image-keyboard-response"	"116"	"304737"	"0.0-5.0-2.0-1.31"	"e1bgku"	"600"	"1366"	"chrome"	"110.0.0"	"FALSE"	"Windows 10"	"60.1"	"028"	n/a	n/a	n/a	n/a	n/a	n/a	"Trial"	n/a	n/a	n/a	"593"	"arrowdown"	n/a	"NULL"	"NULL"	"NULL"	"stimuli/MullerLyer_2.30000_-0.3500.png"	n/a	"MullerLyer"	"arrowdown"	"1016"	"TRUE"	"MullerLyer"	"2.3000000000"	"-0.350000000"	"1"	"50"
n/a	"html-keyboard-response"	"117"	"305817"	"0.0-5.0-2.0-0.32"	"e1bgku"	"600"	"1366"	"chrome"	"110.0.0"	"FALSE"	"Windows 10"	"60.1"	"028"	n/a	n/a	n/a	n/a	n/a	n/a	"fixation"	n/a	n/a	n/a	n/a	"NULL"	n/a	"NULL"	"NULL"	"NULL"	"<p style=\"color: black; font-size: 80px; padding-left: 29%; padding-right: 29%; padding-top: 13%; padding-bottom: 15%\">+</p>"	"1067"	n/a	n/a	n/a	n/a	n/a	n/a	n/a	n/a	n/a
n/a	"image-keyboard-response"	"118"	"306322"	"0.0-5.0-2.0-1.32"	"e1bgku"	"600"	"1366"	"chrome"	"110.0.0"	"FALSE"	"Windows 10"	"60.1"	"028"	n/a	n/a	n/a	n/a	n/a	n/a	"Trial"	n/a	n/a	n/a	"505"	"arrowup"	n/a	"NULL"	"NULL"	"NULL"	"stimuli/MullerLyer_2.30000_0.23665.png"	n/a	"MullerLyer"	"arrowup"	"1080"	"TRUE"	"MullerLyer"	"2.3000000000"	"0.2366500000"	"1"	"51"
n/a	"html-keyboard-response"	"119"	"307401"	"0.0-5.0-2.0-0.33"	"e1bgku"	"600"	"1366"	"chrome"	"110.0.0"	"FALSE"	"Windows 10"	"60.1"	"028"	n/a	n/a	n/a	n/a	n/a	n/a	"fixation"	n/a	n/a	n/a	n/a	"NULL"	n/a	"NULL"	"NULL"	"NULL"	"<p style=\"color: black; font-size: 80px; padding-left: 33%; padding-right: 41%; padding-top: 19%; padding-bottom: 38%\">+</p>"	"1064"	n/a	n/a	n/a	n/a	n/a	n/a	n/a	n/a	n/a
n/a	"image-keyboard-response"	"120"	"307938"	"0.0-5.0-2.0-1.33"	"e1bgku"	"600"	"1366"	"chrome"	"110.0.0"	"FALSE"	"Windows 10"	"60.1"	"028"	n/a	n/a	n/a	n/a	n/a	n/a	"Trial"	n/a	n/a	n/a	"536"	"arrowup"	n/a	"NULL"	"NULL"	"NULL"	"stimuli/MullerLyer_-2.3000_0.35000.png"	n/a	"MullerLyer"	"arrowup"	"1079"	"TRUE"	"MullerLyer"	"-2.300000000"	"0.3500000000"	"1"	"52"
n/a	"html-keyboard-response"	"121"	"309003"	"0.0-5.0-2.0-0.34"	"e1bgku"	"600"	"1366"	"chrome"	"110.0.0"	"FALSE"	"Windows 10"	"60.1"	"028"	n/a	n/a	n/a	n/a	n/a	n/a	"fixation"	n/a	n/a	n/a	n/a	"NULL"	n/a	"NULL"	"NULL"	"NULL"	"<p style=\"color: black; font-size: 80px; padding-left: 47%; padding-right: 26%; padding-top: 28%; padding-bottom: 6%\">+</p>"	"1064"	n/a	n/a	n/a	n/a	n/a	n/a	n/a	n/a	n/a
n/a	"image-keyboard-response"	"122"	"310995"	"0.0-5.0-2.0-1.34"	"e1bgku"	"600"	"1366"	"chrome"	"110.0.0"	"FALSE"	"Windows 10"	"60.1"	"028"	n/a	n/a	n/a	n/a	n/a	n/a	"Trial"	n/a	n/a	n/a	"1991"	"arrowdown"	n/a	"NULL"	"NULL"	"NULL"	"stimuli/MullerLyer_20.04286_-0.23665.png"	n/a	"MullerLyer"	"arrowdown"	"1065"	"TRUE"	"MullerLyer"	"20.042860000"	"-0.236650000"	"1"	"53"
n/a	"html-keyboard-response"	"123"	"312269"	"0.0-5.0-2.0-0.35"	"e1bgku"	"600"	"1366"	"chrome"	"110.0.0"	"FALSE"	"Windows 10"	"60.1"	"028"	n/a	n/a	n/a	n/a	n/a	n/a	"fixation"	n/a	n/a	n/a	n/a	"NULL"	n/a	"NULL"	"NULL"	"NULL"	"<p style=\"color: black; font-size: 80px; padding-left: 21%; padding-right: 32%; padding-top: 20%; padding-bottom: 39%\">+</p>"	"1258"	n/a	n/a	n/a	n/a	n/a	n/a	n/a	n/a	n/a
n/a	"image-keyboard-response"	"124"	"312831"	"0.0-5.0-2.0-1.35"	"e1bgku"	"600"	"1366"	"chrome"	"110.0.0"	"FALSE"	"Windows 10"	"60.1"	"028"	n/a	n/a	n/a	n/a	n/a	n/a	"Trial"	n/a	n/a	n/a	"561"	"arrowup"	n/a	"NULL"	"NULL"	"NULL"	"stimuli/MullerLyer_-8.21429_0.35000.png"	n/a	"MullerLyer"	"arrowup"	"1274"	"TRUE"	"MullerLyer"	"-8.214290000"	"0.3500000000"	"1"	"54"
n/a	"html-keyboard-response"	"125"	"314104"	"0.0-5.0-2.0-0.36"	"e1bgku"	"600"	"1366"	"chrome"	"110.0.0"	"FALSE"	"Windows 10"	"60.1"	"028"	n/a	n/a	n/a	n/a	n/a	n/a	"fixation"	n/a	n/a	n/a	n/a	"NULL"	n/a	"NULL"	"NULL"	"NULL"	"<p style=\"color: black; font-size: 80px; padding-left: 48%; padding-right: 9%; padding-top: 22%; padding-bottom: 1%\">+</p>"	"1272"	n/a	n/a	n/a	n/a	n/a	n/a	n/a	n/a	n/a
n/a	"image-keyboard-response"	"126"	"314647"	"0.0-5.0-2.0-1.36"	"e1bgku"	"600"	"1366"	"chrome"	"110.0.0"	"FALSE"	"Windows 10"	"60.1"	"028"	n/a	n/a	n/a	n/a	n/a	n/a	"Trial"	n/a	n/a	n/a	"543"	"arrowup"	n/a	"NULL"	"NULL"	"NULL"	"stimuli/MullerLyer_-8.21429_0.14541.png"	n/a	"MullerLyer"	"arrowup"	"1273"	"TRUE"	"MullerLyer"	"-8.214290000"	"0.1454100000"	"1"	"55"
n/a	"html-keyboard-response"	"127"	"315738"	"0.0-5.0-2.0-0.37"	"e1bgku"	"600"	"1366"	"chrome"	"110.0.0"	"FALSE"	"Windows 10"	"60.1"	"028"	n/a	n/a	n/a	n/a	n/a	n/a	"fixation"	n/a	n/a	n/a	n/a	"NULL"	n/a	"NULL"	"NULL"	"NULL"	"<p style=\"color: black; font-size: 80px; padding-left: 44%; padding-right: 11%; padding-top: 33%; padding-bottom: 40%\">+</p>"	"1076"	n/a	n/a	n/a	n/a	n/a	n/a	n/a	n/a	n/a
n/a	"image-keyboard-response"	"128"	"316370"	"0.0-5.0-2.0-1.37"	"e1bgku"	"600"	"1366"	"chrome"	"110.0.0"	"FALSE"	"Windows 10"	"60.1"	"028"	n/a	n/a	n/a	n/a	n/a	n/a	"Trial"	n/a	n/a	n/a	"631"	"arrowdown"	n/a	"NULL"	"NULL"	"NULL"	"stimuli/MullerLyer_2.30000_-0.23665.png"	n/a	"MullerLyer"	"arrowdown"	"1091"	"TRUE"	"MullerLyer"	"2.3000000000"	"-0.236650000"	"1"	"56"
n/a	"html-keyboard-response"	"129"	"317831"	"0.0-5.0-2.0-0.38"	"e1bgku"	"600"	"1366"	"chrome"	"110.0.0"	"FALSE"	"Windows 10"	"60.1"	"028"	n/a	n/a	n/a	n/a	n/a	n/a	"fixation"	n/a	n/a	n/a	n/a	"NULL"	n/a	"NULL"	"NULL"	"NULL"	"<p style=\"color: black; font-size: 80px; padding-left: 36%; padding-right: 1%; padding-top: 36%; padding-bottom: 37%\">+</p>"	"1459"	n/a	n/a	n/a	n/a	n/a	n/a	n/a	n/a	n/a
n/a	"image-keyboard-response"	"130"	"318323"	"0.0-5.0-2.0-1.38"	"e1bgku"	"600"	"1366"	"chrome"	"110.0.0"	"FALSE"	"Windows 10"	"60.1"	"028"	n/a	n/a	n/a	n/a	n/a	n/a	"Trial"	n/a	n/a	n/a	"491"	"arrowup"	n/a	"NULL"	"NULL"	"NULL"	"stimuli/MullerLyer_-8.21429_0.07627.png"	n/a	"MullerLyer"	"arrowup"	"1461"	"TRUE"	"MullerLyer"	"-8.214290000"	"0.0762700000"	"1"	"57"
n/a	"html-keyboard-response"	"131"	"319423"	"0.0-5.0-2.0-0.39"	"e1bgku"	"600"	"1366"	"chrome"	"110.0.0"	"FALSE"	"Windows 10"	"60.1"	"028"	n/a	n/a	n/a	n/a	n/a	n/a	"fixation"	n/a	n/a	n/a	n/a	"NULL"	n/a	"NULL"	"NULL"	"NULL"	"<p style=\"color: black; font-size: 80px; padding-left: 37%; padding-right: 17%; padding-top: 46%; padding-bottom: 14%\">+</p>"	"1098"	n/a	n/a	n/a	n/a	n/a	n/a	n/a	n/a	n/a
n/a	"image-keyboard-response"	"132"	"320108"	"0.0-5.0-2.0-1.39"	"e1bgku"	"600"	"1366"	"chrome"	"110.0.0"	"FALSE"	"Windows 10"	"60.1"	"028"	n/a	n/a	n/a	n/a	n/a	n/a	"Trial"	n/a	n/a	n/a	"684"	"arrowup"	n/a	"NULL"	"NULL"	"NULL"	"stimuli/MullerLyer_14.12857_0.23665.png"	n/a	"MullerLyer"	"arrowup"	"1100"	"TRUE"	"MullerLyer"	"14.128570000"	"0.2366500000"	"1"	"58"
n/a	"html-keyboard-response"	"133"	"321439"	"0.0-5.0-2.0-0.40"	"e1bgku"	"600"	"1366"	"chrome"	"110.0.0"	"FALSE"	"Windows 10"	"60.1"	"028"	n/a	n/a	n/a	n/a	n/a	n/a	"fixation"	n/a	n/a	n/a	n/a	"NULL"	n/a	"NULL"	"NULL"	"NULL"	"<p style=\"color: black; font-size: 80px; padding-left: 15%; padding-right: 31%; padding-top: 18%; padding-bottom: 19%\">+</p>"	"1327"	n/a	n/a	n/a	n/a	n/a	n/a	n/a	n/a	n/a
n/a	"image-keyboard-response"	"134"	"322010"	"0.0-5.0-2.0-1.40"	"e1bgku"	"600"	"1366"	"chrome"	"110.0.0"	"FALSE"	"Windows 10"	"60.1"	"028"	n/a	n/a	n/a	n/a	n/a	n/a	"Trial"	n/a	n/a	n/a	"570"	"arrowup"	n/a	"NULL"	"NULL"	"NULL"	"stimuli/MullerLyer_20.04286_0.35000.png"	n/a	"MullerLyer"	"arrowup"	"1331"	"TRUE"	"MullerLyer"	"20.042860000"	"0.3500000000"	"1"	"59"
n/a	"html-keyboard-response"	"135"	"323447"	"0.0-5.0-2.0-0.41"	"e1bgku"	"600"	"1366"	"chrome"	"110.0.0"	"FALSE"	"Windows 10"	"60.1"	"028"	n/a	n/a	n/a	n/a	n/a	n/a	"fixation"	n/a	n/a	n/a	n/a	"NULL"	n/a	"NULL"	"NULL"	"NULL"	"<p style=\"color: black; font-size: 80px; padding-left: 4%; padding-right: 47%; padding-top: 32%; padding-bottom: 7%\">+</p>"	"1432"	n/a	n/a	n/a	n/a	n/a	n/a	n/a	n/a	n/a
n/a	"image-keyboard-response"	"136"	"324052"	"0.0-5.0-2.0-1.41"	"e1bgku"	"600"	"1366"	"chrome"	"110.0.0"	"FALSE"	"Windows 10"	"60.1"	"028"	n/a	n/a	n/a	n/a	n/a	n/a	"Trial"	n/a	n/a	n/a	"605"	"arrowdown"	n/a	"NULL"	"NULL"	"NULL"	"stimuli/MullerLyer_-8.21429_-0.3500.png"	n/a	"MullerLyer"	"arrowdown"	"1437"	"TRUE"	"MullerLyer"	"-8.214290000"	"-0.350000000"	"1"	"60"
n/a	"html-keyboard-response"	"137"	"325065"	"0.0-5.0-2.0-0.42"	"e1bgku"	"600"	"1366"	"chrome"	"110.0.0"	"FALSE"	"Windows 10"	"60.1"	"028"	n/a	n/a	n/a	n/a	n/a	n/a	"fixation"	n/a	n/a	n/a	n/a	"NULL"	n/a	"NULL"	"NULL"	"NULL"	"<p style=\"color: black; font-size: 80px; padding-left: 11%; padding-right: 39%; padding-top: 13%; padding-bottom: 11%\">+</p>"	"1008"	n/a	n/a	n/a	n/a	n/a	n/a	n/a	n/a	n/a
n/a	"image-keyboard-response"	"138"	"325532"	"0.0-5.0-2.0-1.42"	"e1bgku"	"600"	"1366"	"chrome"	"110.0.0"	"FALSE"	"Windows 10"	"60.1"	"028"	n/a	n/a	n/a	n/a	n/a	n/a	"Trial"	n/a	n/a	n/a	"465"	"arrowdown"	n/a	"NULL"	"NULL"	"NULL"	"stimuli/MullerLyer_-14.12857_-0.23665.png"	n/a	"MullerLyer"	"arrowdown"	"1013"	"TRUE"	"MullerLyer"	"-14.12857000"	"-0.236650000"	"1"	"61"
n/a	"html-keyboard-response"	"139"	"326675"	"0.0-5.0-2.0-0.43"	"e1bgku"	"600"	"1366"	"chrome"	"110.0.0"	"FALSE"	"Windows 10"	"60.1"	"028"	n/a	n/a	n/a	n/a	n/a	n/a	"fixation"	n/a	n/a	n/a	n/a	"NULL"	n/a	"NULL"	"NULL"	"NULL"	"<p style=\"color: black; font-size: 80px; padding-left: 8%; padding-right: 1%; padding-top: 26%; padding-bottom: 30%\">+</p>"	"1141"	n/a	n/a	n/a	n/a	n/a	n/a	n/a	n/a	n/a
n/a	"image-keyboard-response"	"140"	"327224"	"0.0-5.0-2.0-1.43"	"e1bgku"	"600"	"1366"	"chrome"	"110.0.0"	"FALSE"	"Windows 10"	"60.1"	"028"	n/a	n/a	n/a	n/a	n/a	n/a	"Trial"	n/a	n/a	n/a	"549"	"arrowup"	n/a	"NULL"	"NULL"	"NULL"	"stimuli/MullerLyer_-14.12857_0.35000.png"	n/a	"MullerLyer"	"arrowup"	"1143"	"TRUE"	"MullerLyer"	"-14.12857000"	"0.3500000000"	"1"	"62"
n/a	"html-keyboard-response"	"141"	"328723"	"0.0-5.0-2.0-0.44"	"e1bgku"	"600"	"1366"	"chrome"	"110.0.0"	"FALSE"	"Windows 10"	"60.1"	"028"	n/a	n/a	n/a	n/a	n/a	n/a	"fixation"	n/a	n/a	n/a	n/a	"NULL"	n/a	"NULL"	"NULL"	"NULL"	"<p style=\"color: black; font-size: 80px; padding-left: 43%; padding-right: 10%; padding-top: 31%; padding-bottom: 8%\">+</p>"	"1489"	n/a	n/a	n/a	n/a	n/a	n/a	n/a	n/a	n/a
n/a	"image-keyboard-response"	"142"	"329362"	"0.0-5.0-2.0-1.44"	"e1bgku"	"600"	"1366"	"chrome"	"110.0.0"	"FALSE"	"Windows 10"	"60.1"	"028"	n/a	n/a	n/a	n/a	n/a	n/a	"Trial"	n/a	n/a	n/a	"637"	"arrowdown"	n/a	"NULL"	"NULL"	"NULL"	"stimuli/MullerLyer_-20.04286_-0.14541.png"	n/a	"MullerLyer"	"arrowdown"	"1499"	"TRUE"	"MullerLyer"	"-20.04286000"	"-0.145410000"	"1"	"63"
n/a	"html-keyboard-response"	"143"	"330648"	"0.0-5.0-2.0-0.45"	"e1bgku"	"600"	"1366"	"chrome"	"110.0.0"	"FALSE"	"Windows 10"	"60.1"	"028"	n/a	n/a	n/a	n/a	n/a	n/a	"fixation"	n/a	n/a	n/a	n/a	"NULL"	n/a	"NULL"	"NULL"	"NULL"	"<p style=\"color: black; font-size: 80px; padding-left: 40%; padding-right: 30%; padding-top: 36%; padding-bottom: 16%\">+</p>"	"1281"	n/a	n/a	n/a	n/a	n/a	n/a	n/a	n/a	n/a
n/a	"image-keyboard-response"	"144"	"331332"	"0.0-5.0-2.0-1.45"	"e1bgku"	"600"	"1366"	"chrome"	"110.0.0"	"FALSE"	"Windows 10"	"60.1"	"028"	n/a	n/a	n/a	n/a	n/a	n/a	"Trial"	n/a	n/a	n/a	"684"	"arrowdown"	n/a	"NULL"	"NULL"	"NULL"	"stimuli/MullerLyer_-20.04286_-0.07627.png"	n/a	"MullerLyer"	"arrowdown"	"1286"	"TRUE"	"MullerLyer"	"-20.04286000"	"-0.076270000"	"1"	"64"
n/a	"html-keyboard-response"	"145"	"332691"	"0.0-5.0-2.0-0.46"	"e1bgku"	"600"	"1366"	"chrome"	"110.0.0"	"FALSE"	"Windows 10"	"60.1"	"028"	n/a	n/a	n/a	n/a	n/a	n/a	"fixation"	n/a	n/a	n/a	n/a	"NULL"	n/a	"NULL"	"NULL"	"NULL"	"<p style=\"color: black; font-size: 80px; padding-left: 9%; padding-right: 37%; padding-top: 32%; padding-bottom: 22%\">+</p>"	"1344"	n/a	n/a	n/a	n/a	n/a	n/a	n/a	n/a	n/a
n/a	"image-keyboard-response"	"146"	"333249"	"0.0-5.0-2.0-1.46"	"e1bgku"	"600"	"1366"	"chrome"	"110.0.0"	"FALSE"	"Windows 10"	"60.1"	"028"	n/a	n/a	n/a	n/a	n/a	n/a	"Trial"	n/a	n/a	n/a	"557"	"arrowup"	n/a	"NULL"	"NULL"	"NULL"	"stimuli/MullerLyer_-2.3000_0.14541.png"	n/a	"MullerLyer"	"arrowup"	"1359"	"TRUE"	"MullerLyer"	"-2.300000000"	"0.1454100000"	"1"	"65"
n/a	"html-keyboard-response"	"147"	"334662"	"0.0-5.0-2.0-0.47"	"e1bgku"	"600"	"1366"	"chrome"	"110.0.0"	"FALSE"	"Windows 10"	"60.1"	"028"	n/a	n/a	n/a	n/a	n/a	n/a	"fixation"	n/a	n/a	n/a	n/a	"NULL"	n/a	"NULL"	"NULL"	"NULL"	"<p style=\"color: black; font-size: 80px; padding-left: 21%; padding-right: 18%; padding-top: 13%; padding-bottom: 20%\">+</p>"	"1409"	n/a	n/a	n/a	n/a	n/a	n/a	n/a	n/a	n/a
n/a	"image-keyboard-response"	"148"	"335138"	"0.0-5.0-2.0-1.47"	"e1bgku"	"600"	"1366"	"chrome"	"110.0.0"	"FALSE"	"Windows 10"	"60.1"	"028"	n/a	n/a	n/a	n/a	n/a	n/a	"Trial"	n/a	n/a	n/a	"476"	"arrowup"	n/a	"NULL"	"NULL"	"NULL"	"stimuli/MullerLyer_14.12857_-0.07627.png"	n/a	"MullerLyer"	"arrowdown"	"1413"	"FALSE"	"MullerLyer"	"14.128570000"	"-0.076270000"	"1"	"66"
n/a	"html-keyboard-response"	"149"	"336550"	"0.0-5.0-2.0-0.48"	"e1bgku"	"600"	"1366"	"chrome"	"110.0.0"	"FALSE"	"Windows 10"	"60.1"	"028"	n/a	n/a	n/a	n/a	n/a	n/a	"fixation"	n/a	n/a	n/a	n/a	"NULL"	n/a	"NULL"	"NULL"	"NULL"	"<p style=\"color: black; font-size: 80px; padding-left: 29%; padding-right: 7%; padding-top: 26%; padding-bottom: 27%\">+</p>"	"1401"	n/a	n/a	n/a	n/a	n/a	n/a	n/a	n/a	n/a
n/a	"image-keyboard-response"	"150"	"337345"	"0.0-5.0-2.0-1.48"	"e1bgku"	"600"	"1366"	"chrome"	"110.0.0"	"FALSE"	"Windows 10"	"60.1"	"028"	n/a	n/a	n/a	n/a	n/a	n/a	"Trial"	n/a	n/a	n/a	"794"	"arrowup"	n/a	"NULL"	"NULL"	"NULL"	"stimuli/MullerLyer_8.21429_0.14541.png"	n/a	"MullerLyer"	"arrowup"	"1412"	"TRUE"	"MullerLyer"	"8.2142900000"	"0.1454100000"	"1"	"67"
n/a	"html-keyboard-response"	"151"	"338624"	"0.0-5.0-2.0-0.49"	"e1bgku"	"600"	"1366"	"chrome"	"110.0.0"	"FALSE"	"Windows 10"	"60.1"	"028"	n/a	n/a	n/a	n/a	n/a	n/a	"fixation"	n/a	n/a	n/a	n/a	"NULL"	n/a	"NULL"	"NULL"	"NULL"	"<p style=\"color: black; font-size: 80px; padding-left: 23%; padding-right: 36%; padding-top: 17%; padding-bottom: 25%\">+</p>"	"1277"	n/a	n/a	n/a	n/a	n/a	n/a	n/a	n/a	n/a
n/a	"image-keyboard-response"	"152"	"339186"	"0.0-5.0-2.0-1.49"	"e1bgku"	"600"	"1366"	"chrome"	"110.0.0"	"FALSE"	"Windows 10"	"60.1"	"028"	n/a	n/a	n/a	n/a	n/a	n/a	"Trial"	n/a	n/a	n/a	"562"	"arrowup"	n/a	"NULL"	"NULL"	"NULL"	"stimuli/MullerLyer_8.21429_0.35000.png"	n/a	"MullerLyer"	"arrowup"	"1279"	"TRUE"	"MullerLyer"	"8.2142900000"	"0.3500000000"	"1"	"68"
n/a	"html-keyboard-response"	"153"	"340489"	"0.0-5.0-2.0-0.50"	"e1bgku"	"600"	"1366"	"chrome"	"110.0.0"	"FALSE"	"Windows 10"	"60.1"	"028"	n/a	n/a	n/a	n/a	n/a	n/a	"fixation"	n/a	n/a	n/a	n/a	"NULL"	n/a	"NULL"	"NULL"	"NULL"	"<p style=\"color: black; font-size: 80px; padding-left: 24%; padding-right: 48%; padding-top: 1%; padding-bottom: 9%\">+</p>"	"1297"	n/a	n/a	n/a	n/a	n/a	n/a	n/a	n/a	n/a
n/a	"image-keyboard-response"	"154"	"341120"	"0.0-5.0-2.0-1.50"	"e1bgku"	"600"	"1366"	"chrome"	"110.0.0"	"FALSE"	"Windows 10"	"60.1"	"028"	n/a	n/a	n/a	n/a	n/a	n/a	"Trial"	n/a	n/a	n/a	"630"	"arrowdown"	n/a	"NULL"	"NULL"	"NULL"	"stimuli/MullerLyer_8.21429_-0.3500.png"	n/a	"MullerLyer"	"arrowdown"	"1303"	"TRUE"	"MullerLyer"	"8.2142900000"	"-0.350000000"	"1"	"69"
n/a	"html-keyboard-response"	"155"	"342144"	"0.0-5.0-2.0-0.51"	"e1bgku"	"600"	"1366"	"chrome"	"110.0.0"	"FALSE"	"Windows 10"	"60.1"	"028"	n/a	n/a	n/a	n/a	n/a	n/a	"fixation"	n/a	n/a	n/a	n/a	"NULL"	n/a	"NULL"	"NULL"	"NULL"	"<p style=\"color: black; font-size: 80px; padding-left: 17%; padding-right: 11%; padding-top: 17%; padding-bottom: 43%\">+</p>"	"1020"	n/a	n/a	n/a	n/a	n/a	n/a	n/a	n/a	n/a
n/a	"image-keyboard-response"	"156"	"342828"	"0.0-5.0-2.0-1.51"	"e1bgku"	"600"	"1366"	"chrome"	"110.0.0"	"FALSE"	"Windows 10"	"60.1"	"028"	n/a	n/a	n/a	n/a	n/a	n/a	"Trial"	n/a	n/a	n/a	"683"	"arrowdown"	n/a	"NULL"	"NULL"	"NULL"	"stimuli/MullerLyer_-2.3000_-0.14541.png"	n/a	"MullerLyer"	"arrowdown"	"1024"	"TRUE"	"MullerLyer"	"-2.300000000"	"-0.145410000"	"1"	"70"
n/a	"html-keyboard-response"	"157"	"343912"	"0.0-5.0-2.0-0.52"	"e1bgku"	"600"	"1366"	"chrome"	"110.0.0"	"FALSE"	"Windows 10"	"60.1"	"028"	n/a	n/a	n/a	n/a	n/a	n/a	"fixation"	n/a	n/a	n/a	n/a	"NULL"	n/a	"NULL"	"NULL"	"NULL"	"<p style=\"color: black; font-size: 80px; padding-left: 36%; padding-right: 48%; padding-top: 5%; padding-bottom: 26%\">+</p>"	"1072"	n/a	n/a	n/a	n/a	n/a	n/a	n/a	n/a	n/a
n/a	"image-keyboard-response"	"158"	"344465"	"0.0-5.0-2.0-1.52"	"e1bgku"	"600"	"1366"	"chrome"	"110.0.0"	"FALSE"	"Windows 10"	"60.1"	"028"	n/a	n/a	n/a	n/a	n/a	n/a	"Trial"	n/a	n/a	n/a	"552"	"arrowup"	n/a	"NULL"	"NULL"	"NULL"	"stimuli/MullerLyer_14.12857_-0.14541.png"	n/a	"MullerLyer"	"arrowdown"	"1084"	"FALSE"	"MullerLyer"	"14.128570000"	"-0.145410000"	"1"	"71"
n/a	"html-keyboard-response"	"159"	"345693"	"0.0-5.0-2.0-0.53"	"e1bgku"	"600"	"1366"	"chrome"	"110.0.0"	"FALSE"	"Windows 10"	"60.1"	"028"	n/a	n/a	n/a	n/a	n/a	n/a	"fixation"	n/a	n/a	n/a	n/a	"NULL"	n/a	"NULL"	"NULL"	"NULL"	"<p style=\"color: black; font-size: 80px; padding-left: 15%; padding-right: 13%; padding-top: 40%; padding-bottom: 35%\">+</p>"	"1227"	n/a	n/a	n/a	n/a	n/a	n/a	n/a	n/a	n/a
n/a	"image-keyboard-response"	"160"	"346300"	"0.0-5.0-2.0-1.53"	"e1bgku"	"600"	"1366"	"chrome"	"110.0.0"	"FALSE"	"Windows 10"	"60.1"	"028"	n/a	n/a	n/a	n/a	n/a	n/a	"Trial"	n/a	n/a	n/a	"606"	"arrowup"	n/a	"NULL"	"NULL"	"NULL"	"stimuli/MullerLyer_-2.3000_0.23665.png"	n/a	"MullerLyer"	"arrowup"	"1228"	"TRUE"	"MullerLyer"	"-2.300000000"	"0.2366500000"	"1"	"72"
n/a	"html-keyboard-response"	"161"	"347735"	"0.0-5.0-2.0-0.54"	"e1bgku"	"600"	"1366"	"chrome"	"110.0.0"	"FALSE"	"Windows 10"	"60.1"	"028"	n/a	n/a	n/a	n/a	n/a	n/a	"fixation"	n/a	n/a	n/a	n/a	"NULL"	n/a	"NULL"	"NULL"	"NULL"	"<p style=\"color: black; font-size: 80px; padding-left: 30%; padding-right: 43%; padding-top: 40%; padding-bottom: 47%\">+</p>"	"1422"	n/a	n/a	n/a	n/a	n/a	n/a	n/a	n/a	n/a
n/a	"image-keyboard-response"	"162"	"348225"	"0.0-5.0-2.0-1.54"	"e1bgku"	"600"	"1366"	"chrome"	"110.0.0"	"FALSE"	"Windows 10"	"60.1"	"028"	n/a	n/a	n/a	n/a	n/a	n/a	"Trial"	n/a	n/a	n/a	"489"	"arrowup"	n/a	"NULL"	"NULL"	"NULL"	"stimuli/MullerLyer_-20.04286_0.14541.png"	n/a	"MullerLyer"	"arrowup"	"1435"	"TRUE"	"MullerLyer"	"-20.04286000"	"0.1454100000"	"1"	"73"
n/a	"html-keyboard-response"	"163"	"349726"	"0.0-5.0-2.0-0.55"	"e1bgku"	"600"	"1366"	"chrome"	"110.0.0"	"FALSE"	"Windows 10"	"60.1"	"028"	n/a	n/a	n/a	n/a	n/a	n/a	"fixation"	n/a	n/a	n/a	n/a	"NULL"	n/a	"NULL"	"NULL"	"NULL"	"<p style=\"color: black; font-size: 80px; padding-left: 39%; padding-right: 19%; padding-top: 26%; padding-bottom: 39%\">+</p>"	"1495"	n/a	n/a	n/a	n/a	n/a	n/a	n/a	n/a	n/a
n/a	"image-keyboard-response"	"164"	"350260"	"0.0-5.0-2.0-1.55"	"e1bgku"	"600"	"1366"	"chrome"	"110.0.0"	"FALSE"	"Windows 10"	"60.1"	"028"	n/a	n/a	n/a	n/a	n/a	n/a	"Trial"	n/a	n/a	n/a	"534"	"arrowup"	n/a	"NULL"	"NULL"	"NULL"	"stimuli/MullerLyer_8.21429_0.23665.png"	n/a	"MullerLyer"	"arrowup"	"1501"	"TRUE"	"MullerLyer"	"8.2142900000"	"0.2366500000"	"1"	"74"
n/a	"html-keyboard-response"	"165"	"351598"	"0.0-5.0-2.0-0.56"	"e1bgku"	"600"	"1366"	"chrome"	"110.0.0"	"FALSE"	"Windows 10"	"60.1"	"028"	n/a	n/a	n/a	n/a	n/a	n/a	"fixation"	n/a	n/a	n/a	n/a	"NULL"	n/a	"NULL"	"NULL"	"NULL"	"<p style=\"color: black; font-size: 80px; padding-left: 34%; padding-right: 20%; padding-top: 12%; padding-bottom: 35%\">+</p>"	"1337"	n/a	n/a	n/a	n/a	n/a	n/a	n/a	n/a	n/a
n/a	"image-keyboard-response"	"166"	"352139"	"0.0-5.0-2.0-1.56"	"e1bgku"	"600"	"1366"	"chrome"	"110.0.0"	"FALSE"	"Windows 10"	"60.1"	"028"	n/a	n/a	n/a	n/a	n/a	n/a	"Trial"	n/a	n/a	n/a	"537"	"arrowdown"	n/a	"NULL"	"NULL"	"NULL"	"stimuli/MullerLyer_-8.21429_-0.23665.png"	n/a	"MullerLyer"	"arrowdown"	"1338"	"TRUE"	"MullerLyer"	"-8.214290000"	"-0.236650000"	"1"	"75"
n/a	"html-keyboard-response"	"167"	"353255"	"0.0-5.0-2.0-0.57"	"e1bgku"	"600"	"1366"	"chrome"	"110.0.0"	"FALSE"	"Windows 10"	"60.1"	"028"	n/a	n/a	n/a	n/a	n/a	n/a	"fixation"	n/a	n/a	n/a	n/a	"NULL"	n/a	"NULL"	"NULL"	"NULL"	"<p style=\"color: black; font-size: 80px; padding-left: 19%; padding-right: 13%; padding-top: 21%; padding-bottom: 10%\">+</p>"	"1103"	n/a	n/a	n/a	n/a	n/a	n/a	n/a	n/a	n/a
n/a	"image-keyboard-response"	"168"	"355120"	"0.0-5.0-2.0-1.57"	"e1bgku"	"600"	"1366"	"chrome"	"110.0.0"	"FALSE"	"Windows 10"	"60.1"	"028"	n/a	n/a	n/a	n/a	n/a	n/a	"Trial"	n/a	n/a	n/a	"1865"	"arrowdown"	n/a	"NULL"	"NULL"	"NULL"	"stimuli/MullerLyer_20.04286_0.14541.png"	n/a	"MullerLyer"	"arrowup"	"1116"	"FALSE"	"MullerLyer"	"20.042860000"	"0.1454100000"	"1"	"76"
n/a	"html-keyboard-response"	"169"	"356281"	"0.0-5.0-2.0-0.58"	"e1bgku"	"600"	"1366"	"chrome"	"110.0.0"	"FALSE"	"Windows 10"	"60.1"	"028"	n/a	n/a	n/a	n/a	n/a	n/a	"fixation"	n/a	n/a	n/a	n/a	"NULL"	n/a	"NULL"	"NULL"	"NULL"	"<p style=\"color: black; font-size: 80px; padding-left: 26%; padding-right: 29%; padding-top: 35%; padding-bottom: 42%\">+</p>"	"1155"	n/a	n/a	n/a	n/a	n/a	n/a	n/a	n/a	n/a
n/a	"image-keyboard-response"	"170"	"356871"	"0.0-5.0-2.0-1.58"	"e1bgku"	"600"	"1366"	"chrome"	"110.0.0"	"FALSE"	"Windows 10"	"60.1"	"028"	n/a	n/a	n/a	n/a	n/a	n/a	"Trial"	n/a	n/a	n/a	"589"	"arrowup"	n/a	"NULL"	"NULL"	"NULL"	"stimuli/MullerLyer_20.04286_-0.07627.png"	n/a	"MullerLyer"	"arrowdown"	"1161"	"FALSE"	"MullerLyer"	"20.042860000"	"-0.076270000"	"1"	"77"
n/a	"html-keyboard-response"	"171"	"358347"	"0.0-5.0-2.0-0.59"	"e1bgku"	"600"	"1366"	"chrome"	"110.0.0"	"FALSE"	"Windows 10"	"60.1"	"028"	n/a	n/a	n/a	n/a	n/a	n/a	"fixation"	n/a	n/a	n/a	n/a	"NULL"	n/a	"NULL"	"NULL"	"NULL"	"<p style=\"color: black; font-size: 80px; padding-left: 2%; padding-right: 46%; padding-top: 29%; padding-bottom: 48%\">+</p>"	"1468"	n/a	n/a	n/a	n/a	n/a	n/a	n/a	n/a	n/a
n/a	"image-keyboard-response"	"172"	"358968"	"0.0-5.0-2.0-1.59"	"e1bgku"	"600"	"1366"	"chrome"	"110.0.0"	"FALSE"	"Windows 10"	"60.1"	"028"	n/a	n/a	n/a	n/a	n/a	n/a	"Trial"	n/a	n/a	n/a	"621"	"arrowup"	n/a	"NULL"	"NULL"	"NULL"	"stimuli/MullerLyer_-20.04286_0.07627.png"	n/a	"MullerLyer"	"arrowup"	"1476"	"TRUE"	"MullerLyer"	"-20.04286000"	"0.0762700000"	"1"	"78"
n/a	"html-keyboard-response"	"173"	"360333"	"0.0-5.0-2.0-0.60"	"e1bgku"	"600"	"1366"	"chrome"	"110.0.0"	"FALSE"	"Windows 10"	"60.1"	"028"	n/a	n/a	n/a	n/a	n/a	n/a	"fixation"	n/a	n/a	n/a	n/a	"NULL"	n/a	"NULL"	"NULL"	"NULL"	"<p style=\"color: black; font-size: 80px; padding-left: 35%; padding-right: 18%; padding-top: 32%; padding-bottom: 41%\">+</p>"	"1354"	n/a	n/a	n/a	n/a	n/a	n/a	n/a	n/a	n/a
n/a	"image-keyboard-response"	"174"	"361129"	"0.0-5.0-2.0-1.60"	"e1bgku"	"600"	"1366"	"chrome"	"110.0.0"	"FALSE"	"Windows 10"	"60.1"	"028"	n/a	n/a	n/a	n/a	n/a	n/a	"Trial"	n/a	n/a	n/a	"795"	"arrowup"	n/a	"NULL"	"NULL"	"NULL"	"stimuli/MullerLyer_-14.12857_0.07627.png"	n/a	"MullerLyer"	"arrowup"	"1365"	"TRUE"	"MullerLyer"	"-14.12857000"	"0.0762700000"	"1"	"79"
n/a	"html-keyboard-response"	"175"	"362609"	"0.0-5.0-2.0-0.61"	"e1bgku"	"600"	"1366"	"chrome"	"110.0.0"	"FALSE"	"Windows 10"	"60.1"	"028"	n/a	n/a	n/a	n/a	n/a	n/a	"fixation"	n/a	n/a	n/a	n/a	"NULL"	n/a	"NULL"	"NULL"	"NULL"	"<p style=\"color: black; font-size: 80px; padding-left: 9%; padding-right: 21%; padding-top: 6%; padding-bottom: 47%\">+</p>"	"1478"	n/a	n/a	n/a	n/a	n/a	n/a	n/a	n/a	n/a
n/a	"image-keyboard-response"	"176"	"364782"	"0.0-5.0-2.0-1.61"	"e1bgku"	"600"	"1366"	"chrome"	"110.0.0"	"FALSE"	"Windows 10"	"60.1"	"028"	n/a	n/a	n/a	n/a	n/a	n/a	"Trial"	n/a	n/a	n/a	"2172"	"arrowdown"	n/a	"NULL"	"NULL"	"NULL"	"stimuli/MullerLyer_14.12857_-0.23665.png"	n/a	"MullerLyer"	"arrowdown"	"1480"	"TRUE"	"MullerLyer"	"14.128570000"	"-0.236650000"	"1"	"80"
n/a	"html-keyboard-response"	"177"	"365880"	"0.0-5.0-2.0-0.62"	"e1bgku"	"600"	"1366"	"chrome"	"110.0.0"	"FALSE"	"Windows 10"	"60.1"	"028"	n/a	n/a	n/a	n/a	n/a	n/a	"fixation"	n/a	n/a	n/a	n/a	"NULL"	n/a	"NULL"	"NULL"	"NULL"	"<p style=\"color: black; font-size: 80px; padding-left: 29%; padding-right: 12%; padding-top: 46%; padding-bottom: 24%\">+</p>"	"1084"	n/a	n/a	n/a	n/a	n/a	n/a	n/a	n/a	n/a
n/a	"image-keyboard-response"	"178"	"366534"	"0.0-5.0-2.0-1.62"	"e1bgku"	"600"	"1366"	"chrome"	"110.0.0"	"FALSE"	"Windows 10"	"60.1"	"028"	n/a	n/a	n/a	n/a	n/a	n/a	"Trial"	n/a	n/a	n/a	"653"	"arrowdown"	n/a	"NULL"	"NULL"	"NULL"	"stimuli/MullerLyer_-14.12857_-0.3500.png"	n/a	"MullerLyer"	"arrowdown"	"1098"	"TRUE"	"MullerLyer"	"-14.12857000"	"-0.350000000"	"1"	"81"
n/a	"html-keyboard-response"	"179"	"367660"	"0.0-5.0-2.0-0.63"	"e1bgku"	"600"	"1366"	"chrome"	"110.0.0"	"FALSE"	"Windows 10"	"60.1"	"028"	n/a	n/a	n/a	n/a	n/a	n/a	"fixation"	n/a	n/a	n/a	n/a	"NULL"	n/a	"NULL"	"NULL"	"NULL"	"<p style=\"color: black; font-size: 80px; padding-left: 46%; padding-right: 50%; padding-top: 39%; padding-bottom: 3%\">+</p>"	"1121"	n/a	n/a	n/a	n/a	n/a	n/a	n/a	n/a	n/a
n/a	"image-keyboard-response"	"180"	"368159"	"0.0-5.0-2.0-1.63"	"e1bgku"	"600"	"1366"	"chrome"	"110.0.0"	"FALSE"	"Windows 10"	"60.1"	"028"	n/a	n/a	n/a	n/a	n/a	n/a	"Trial"	n/a	n/a	n/a	"498"	"arrowup"	n/a	"NULL"	"NULL"	"NULL"	"stimuli/MullerLyer_14.12857_0.35000.png"	n/a	"MullerLyer"	"arrowup"	"1126"	"TRUE"	"MullerLyer"	"14.128570000"	"0.3500000000"	"1"	"82"
n/a	"html-button-response"	"181"	"387625"	"0.0-5.0-3.0"	"e1bgku"	"600"	"1366"	"chrome"	"110.0.0"	"FALSE"	"Windows 10"	"60.1"	"028"	n/a	n/a	n/a	n/a	n/a	n/a	"block_results"	n/a	n/a	n/a	"19465"	"0"	n/a	"NULL"	"NULL"	"NULL"	"<p>Your score for this illusion is <p style=\"color: black; font-size: 48px; font-weight: bold;\">74.8 %</p><hr><p>Can you do better in the next illusion?</p>"	n/a	n/a	n/a	n/a	n/a	n/a	n/a	n/a	n/a	n/a
"TRUE"	"preload"	"182"	"387848"	"0.0-6.0-0.0"	"e1bgku"	"600"	"1366"	"chrome"	"110.0.0"	"FALSE"	"Windows 10"	"60.1"	"028"	n/a	n/a	n/a	n/a	n/a	n/a	n/a	n/a	n/a	n/a	n/a	"NULL"	"FALSE"	"list()"	"list()"	"list()"	n/a	n/a	n/a	n/a	n/a	n/a	n/a	n/a	n/a	n/a	n/a
n/a	"html-keyboard-response"	"183"	"391277"	"0.0-6.0-1.0"	"e1bgku"	"600"	"1366"	"chrome"	"110.0.0"	"FALSE"	"Windows 10"	"60.1"	"028"	n/a	n/a	n/a	n/a	n/a	n/a	n/a	n/a	n/a	n/a	"3428"	"enter"	n/a	"NULL"	"NULL"	"NULL"	"<p><b>Part 2/6</b></p><p>In this part, two red circles will appear side by side on the screen.</p><p>Your task is to select which <b>red circle is bigger</b> in size as fast as you can, without making errors.</p><p>Don't get distracted by the surrounding black circles around the red circles!</p><p>Press <b>the LEFT or the RIGHT arrow</b> to indicate which is the bigger <b>red circle.</b></p><div style='float: center'><img src='materials/instructions/Ebbinghaus_Demo.png' height='300'></img><p><img src='utils/answer/answer_leftright_keyboard.PNG' height='150'></img></p><p class='small'>In this example, the correct answer is the <b>LEFT arrow</b>.</p></div><p>Are you ready? <b>Press ENTER to start</b></p>"	n/a	n/a	n/a	n/a	n/a	n/a	n/a	n/a	n/a	n/a
n/a	"html-keyboard-response"	"184"	"393037"	"0.0-6.0-2.0-0.0"	"e1bgku"	"600"	"1366"	"chrome"	"110.0.0"	"FALSE"	"Windows 10"	"60.1"	"028"	n/a	n/a	n/a	n/a	n/a	n/a	"fixation"	n/a	n/a	n/a	n/a	"NULL"	n/a	"NULL"	"NULL"	"NULL"	"<p style=\"color: black; font-size: 80px; padding-left: 41%; padding-right: 17%; padding-top: 46%; padding-bottom: 21%\">+</p>"	"1247"	n/a	n/a	n/a	n/a	n/a	n/a	n/a	n/a	n/a
n/a	"image-keyboard-response"	"185"	"394804"	"0.0-6.0-2.0-1.0"	"e1bgku"	"600"	"1366"	"chrome"	"110.0.0"	"FALSE"	"Windows 10"	"60.1"	"028"	n/a	n/a	n/a	n/a	n/a	n/a	"Trial"	n/a	n/a	n/a	"1766"	"arrowleft"	n/a	"NULL"	"NULL"	"NULL"	"stimuli/Ebbinghaus_0.87143_0.15857.png"	n/a	"Ebbinghaus"	"arrowleft"	"1760"	"TRUE"	"Ebbinghaus"	"0.8714300000"	"0.1585700000"	"2"	"1"
n/a	"html-keyboard-response"	"186"	"396098"	"0.0-6.0-2.0-0.1"	"e1bgku"	"600"	"1366"	"chrome"	"110.0.0"	"FALSE"	"Windows 10"	"60.1"	"028"	n/a	n/a	n/a	n/a	n/a	n/a	"fixation"	n/a	n/a	n/a	n/a	"NULL"	n/a	"NULL"	"NULL"	"NULL"	"<p style=\"color: black; font-size: 80px; padding-left: 43%; padding-right: 15%; padding-top: 12%; padding-bottom: 27%\">+</p>"	"1281"	n/a	n/a	n/a	n/a	n/a	n/a	n/a	n/a	n/a
n/a	"image-keyboard-response"	"187"	"396934"	"0.0-6.0-2.0-1.1"	"e1bgku"	"600"	"1366"	"chrome"	"110.0.0"	"FALSE"	"Windows 10"	"60.1"	"028"	n/a	n/a	n/a	n/a	n/a	n/a	"Trial"	n/a	n/a	n/a	"835"	"arrowright"	n/a	"NULL"	"NULL"	"NULL"	"stimuli/Ebbinghaus_-0.35714_-0.11071.png"	n/a	"Ebbinghaus"	"arrowright"	"1294"	"TRUE"	"Ebbinghaus"	"-0.357140000"	"-0.110710000"	"2"	"2"
n/a	"html-keyboard-response"	"188"	"398300"	"0.0-6.0-2.0-0.2"	"e1bgku"	"600"	"1366"	"chrome"	"110.0.0"	"FALSE"	"Windows 10"	"60.1"	"028"	n/a	n/a	n/a	n/a	n/a	n/a	"fixation"	n/a	n/a	n/a	n/a	"NULL"	n/a	"NULL"	"NULL"	"NULL"	"<p style=\"color: black; font-size: 80px; padding-left: 33%; padding-right: 39%; padding-top: 4%; padding-bottom: 23%\">+</p>"	"1351"	n/a	n/a	n/a	n/a	n/a	n/a	n/a	n/a	n/a
n/a	"image-keyboard-response"	"189"	"398934"	"0.0-6.0-2.0-1.2"	"e1bgku"	"600"	"1366"	"chrome"	"110.0.0"	"FALSE"	"Windows 10"	"60.1"	"028"	n/a	n/a	n/a	n/a	n/a	n/a	"Trial"	n/a	n/a	n/a	"633"	"arrowright"	n/a	"NULL"	"NULL"	"NULL"	"stimuli/Ebbinghaus_0.35714_-0.2800.png"	n/a	"Ebbinghaus"	"arrowright"	"1366"	"TRUE"	"Ebbinghaus"	"0.3571400000"	"-0.280000000"	"2"	"3"
n/a	"html-keyboard-response"	"190"	"400374"	"0.0-6.0-2.0-0.3"	"e1bgku"	"600"	"1366"	"chrome"	"110.0.0"	"FALSE"	"Windows 10"	"60.1"	"028"	n/a	n/a	n/a	n/a	n/a	n/a	"fixation"	n/a	n/a	n/a	n/a	"NULL"	n/a	"NULL"	"NULL"	"NULL"	"<p style=\"color: black; font-size: 80px; padding-left: 47%; padding-right: 37%; padding-top: 4%; padding-bottom: 45%\">+</p>"	"1436"	n/a	n/a	n/a	n/a	n/a	n/a	n/a	n/a	n/a
n/a	"image-keyboard-response"	"191"	"401049"	"0.0-6.0-2.0-1.3"	"e1bgku"	"600"	"1366"	"chrome"	"110.0.0"	"FALSE"	"Windows 10"	"60.1"	"028"	n/a	n/a	n/a	n/a	n/a	n/a	"Trial"	n/a	n/a	n/a	"674"	"arrowleft"	n/a	"NULL"	"NULL"	"NULL"	"stimuli/Ebbinghaus_-0.35714_0.15857.png"	n/a	"Ebbinghaus"	"arrowleft"	"1440"	"TRUE"	"Ebbinghaus"	"-0.357140000"	"0.1585700000"	"2"	"4"
n/a	"html-keyboard-response"	"192"	"402162"	"0.0-6.0-2.0-0.4"	"e1bgku"	"600"	"1366"	"chrome"	"110.0.0"	"FALSE"	"Windows 10"	"60.1"	"028"	n/a	n/a	n/a	n/a	n/a	n/a	"fixation"	n/a	n/a	n/a	n/a	"NULL"	n/a	"NULL"	"NULL"	"NULL"	"<p style=\"color: black; font-size: 80px; padding-left: 17%; padding-right: 9%; padding-top: 49%; padding-bottom: 26%\">+</p>"	"1106"	n/a	n/a	n/a	n/a	n/a	n/a	n/a	n/a	n/a
n/a	"image-keyboard-response"	"193"	"402732"	"0.0-6.0-2.0-1.4"	"e1bgku"	"600"	"1366"	"chrome"	"110.0.0"	"FALSE"	"Windows 10"	"60.1"	"028"	n/a	n/a	n/a	n/a	n/a	n/a	"Trial"	n/a	n/a	n/a	"569"	"arrowright"	n/a	"NULL"	"NULL"	"NULL"	"stimuli/Ebbinghaus_-0.87143_-0.11071.png"	n/a	"Ebbinghaus"	"arrowright"	"1113"	"TRUE"	"Ebbinghaus"	"-0.871430000"	"-0.110710000"	"2"	"5"
n/a	"html-keyboard-response"	"194"	"403755"	"0.0-6.0-2.0-0.5"	"e1bgku"	"600"	"1366"	"chrome"	"110.0.0"	"FALSE"	"Windows 10"	"60.1"	"028"	n/a	n/a	n/a	n/a	n/a	n/a	"fixation"	n/a	n/a	n/a	n/a	"NULL"	n/a	"NULL"	"NULL"	"NULL"	"<p style=\"color: black; font-size: 80px; padding-left: 32%; padding-right: 37%; padding-top: 27%; padding-bottom: 15%\">+</p>"	"1013"	n/a	n/a	n/a	n/a	n/a	n/a	n/a	n/a	n/a
n/a	"image-keyboard-response"	"195"	"404299"	"0.0-6.0-2.0-1.5"	"e1bgku"	"600"	"1366"	"chrome"	"110.0.0"	"FALSE"	"Windows 10"	"60.1"	"028"	n/a	n/a	n/a	n/a	n/a	n/a	"Trial"	n/a	n/a	n/a	"543"	"arrowleft"	n/a	"NULL"	"NULL"	"NULL"	"stimuli/Ebbinghaus_0.35714_0.28000.png"	n/a	"Ebbinghaus"	"arrowleft"	"1023"	"TRUE"	"Ebbinghaus"	"0.3571400000"	"0.2800000000"	"2"	"6"
n/a	"html-keyboard-response"	"196"	"405654"	"0.0-6.0-2.0-0.6"	"e1bgku"	"600"	"1366"	"chrome"	"110.0.0"	"FALSE"	"Windows 10"	"60.1"	"028"	n/a	n/a	n/a	n/a	n/a	n/a	"fixation"	n/a	n/a	n/a	n/a	"NULL"	n/a	"NULL"	"NULL"	"NULL"	"<p style=\"color: black; font-size: 80px; padding-left: 48%; padding-right: 44%; padding-top: 8%; padding-bottom: 13%\">+</p>"	"1346"	n/a	n/a	n/a	n/a	n/a	n/a	n/a	n/a	n/a
n/a	"image-keyboard-response"	"197"	"407178"	"0.0-6.0-2.0-1.6"	"e1bgku"	"600"	"1366"	"chrome"	"110.0.0"	"FALSE"	"Windows 10"	"60.1"	"028"	n/a	n/a	n/a	n/a	n/a	n/a	"Trial"	n/a	n/a	n/a	"1523"	"arrowleft"	n/a	"NULL"	"NULL"	"NULL"	"stimuli/Ebbinghaus_0.35714_0.15857.png"	n/a	"Ebbinghaus"	"arrowleft"	"1355"	"TRUE"	"Ebbinghaus"	"0.3571400000"	"0.1585700000"	"2"	"7"
n/a	"html-keyboard-response"	"198"	"408329"	"0.0-6.0-2.0-0.7"	"e1bgku"	"600"	"1366"	"chrome"	"110.0.0"	"FALSE"	"Windows 10"	"60.1"	"028"	n/a	n/a	n/a	n/a	n/a	n/a	"fixation"	n/a	n/a	n/a	n/a	"NULL"	n/a	"NULL"	"NULL"	"NULL"	"<p style=\"color: black; font-size: 80px; padding-left: 37%; padding-right: 9%; padding-top: 7%; padding-bottom: 12%\">+</p>"	"1144"	n/a	n/a	n/a	n/a	n/a	n/a	n/a	n/a	n/a
n/a	"image-keyboard-response"	"199"	"409209"	"0.0-6.0-2.0-1.7"	"e1bgku"	"600"	"1366"	"chrome"	"110.0.0"	"FALSE"	"Windows 10"	"60.1"	"028"	n/a	n/a	n/a	n/a	n/a	n/a	"Trial"	n/a	n/a	n/a	"880"	"arrowleft"	n/a	"NULL"	"NULL"	"NULL"	"stimuli/Ebbinghaus_0.61429_0.28000.png"	n/a	"Ebbinghaus"	"arrowleft"	"1151"	"TRUE"	"Ebbinghaus"	"0.6142900000"	"0.2800000000"	"2"	"8"
n/a	"html-keyboard-response"	"200"	"410551"	"0.0-6.0-2.0-0.8"	"e1bgku"	"600"	"1366"	"chrome"	"110.0.0"	"FALSE"	"Windows 10"	"60.1"	"028"	n/a	n/a	n/a	n/a	n/a	n/a	"fixation"	n/a	n/a	n/a	n/a	"NULL"	n/a	"NULL"	"NULL"	"NULL"	"<p style=\"color: black; font-size: 80px; padding-left: 48%; padding-right: 19%; padding-top: 35%; padding-bottom: 32%\">+</p>"	"1330"	n/a	n/a	n/a	n/a	n/a	n/a	n/a	n/a	n/a
n/a	"image-keyboard-response"	"201"	"413259"	"0.0-6.0-2.0-1.8"	"e1bgku"	"600"	"1366"	"chrome"	"110.0.0"	"FALSE"	"Windows 10"	"60.1"	"028"	n/a	n/a	n/a	n/a	n/a	n/a	"Trial"	n/a	n/a	n/a	"2707"	"arrowleft"	n/a	"NULL"	"NULL"	"NULL"	"stimuli/Ebbinghaus_0.87143_0.11071.png"	n/a	"Ebbinghaus"	"arrowleft"	"1342"	"TRUE"	"Ebbinghaus"	"0.8714300000"	"0.1107100000"	"2"	"9"
n/a	"html-keyboard-response"	"202"	"414678"	"0.0-6.0-2.0-0.9"	"e1bgku"	"600"	"1366"	"chrome"	"110.0.0"	"FALSE"	"Windows 10"	"60.1"	"028"	n/a	n/a	n/a	n/a	n/a	n/a	"fixation"	n/a	n/a	n/a	n/a	"NULL"	n/a	"NULL"	"NULL"	"NULL"	"<p style=\"color: black; font-size: 80px; padding-left: 47%; padding-right: 33%; padding-top: 43%; padding-bottom: 39%\">+</p>"	"1418"	n/a	n/a	n/a	n/a	n/a	n/a	n/a	n/a	n/a
n/a	"image-keyboard-response"	"203"	"415701"	"0.0-6.0-2.0-1.9"	"e1bgku"	"600"	"1366"	"chrome"	"110.0.0"	"FALSE"	"Windows 10"	"60.1"	"028"	n/a	n/a	n/a	n/a	n/a	n/a	"Trial"	n/a	n/a	n/a	"1022"	"arrowleft"	n/a	"NULL"	"NULL"	"NULL"	"stimuli/Ebbinghaus_0.35714_0.21500.png"	n/a	"Ebbinghaus"	"arrowleft"	"1419"	"TRUE"	"Ebbinghaus"	"0.3571400000"	"0.2150000000"	"2"	"10"
n/a	"html-keyboard-response"	"204"	"416890"	"0.0-6.0-2.0-0.10"	"e1bgku"	"600"	"1366"	"chrome"	"110.0.0"	"FALSE"	"Windows 10"	"60.1"	"028"	n/a	n/a	n/a	n/a	n/a	n/a	"fixation"	n/a	n/a	n/a	n/a	"NULL"	n/a	"NULL"	"NULL"	"NULL"	"<p style=\"color: black; font-size: 80px; padding-left: 19%; padding-right: 6%; padding-top: 42%; padding-bottom: 33%\">+</p>"	"1179"	n/a	n/a	n/a	n/a	n/a	n/a	n/a	n/a	n/a
n/a	"image-keyboard-response"	"205"	"420305"	"0.0-6.0-2.0-1.10"	"e1bgku"	"600"	"1366"	"chrome"	"110.0.0"	"FALSE"	"Windows 10"	"60.1"	"028"	n/a	n/a	n/a	n/a	n/a	n/a	"Trial"	n/a	n/a	n/a	"3415"	"arrowleft"	n/a	"NULL"	"NULL"	"NULL"	"stimuli/Ebbinghaus_-0.1000_0.11071.png"	n/a	"Ebbinghaus"	"arrowleft"	"1189"	"TRUE"	"Ebbinghaus"	"-0.100000000"	"0.1107100000"	"2"	"11"
n/a	"html-keyboard-response"	"206"	"421518"	"0.0-6.0-2.0-0.11"	"e1bgku"	"600"	"1366"	"chrome"	"110.0.0"	"FALSE"	"Windows 10"	"60.1"	"028"	n/a	n/a	n/a	n/a	n/a	n/a	"fixation"	n/a	n/a	n/a	n/a	"NULL"	n/a	"NULL"	"NULL"	"NULL"	"<p style=\"color: black; font-size: 80px; padding-left: 8%; padding-right: 43%; padding-top: 45%; padding-bottom: 16%\">+</p>"	"1212"	n/a	n/a	n/a	n/a	n/a	n/a	n/a	n/a	n/a
n/a	"image-keyboard-response"	"207"	"423593"	"0.0-6.0-2.0-1.11"	"e1bgku"	"600"	"1366"	"chrome"	"110.0.0"	"FALSE"	"Windows 10"	"60.1"	"028"	n/a	n/a	n/a	n/a	n/a	n/a	"Trial"	n/a	n/a	n/a	"2074"	"arrowleft"	n/a	"NULL"	"NULL"	"NULL"	"stimuli/Ebbinghaus_0.87143_-0.15857.png"	n/a	"Ebbinghaus"	"arrowright"	"1213"	"FALSE"	"Ebbinghaus"	"0.8714300000"	"-0.158570000"	"2"	"12"
n/a	"html-keyboard-response"	"208"	"424895"	"0.0-6.0-2.0-0.12"	"e1bgku"	"600"	"1366"	"chrome"	"110.0.0"	"FALSE"	"Windows 10"	"60.1"	"028"	n/a	n/a	n/a	n/a	n/a	n/a	"fixation"	n/a	n/a	n/a	n/a	"NULL"	n/a	"NULL"	"NULL"	"NULL"	"<p style=\"color: black; font-size: 80px; padding-left: 41%; padding-right: 47%; padding-top: 41%; padding-bottom: 19%\">+</p>"	"1288"	n/a	n/a	n/a	n/a	n/a	n/a	n/a	n/a	n/a
n/a	"image-keyboard-response"	"209"	"425529"	"0.0-6.0-2.0-1.12"	"e1bgku"	"600"	"1366"	"chrome"	"110.0.0"	"FALSE"	"Windows 10"	"60.1"	"028"	n/a	n/a	n/a	n/a	n/a	n/a	"Trial"	n/a	n/a	n/a	"633"	"arrowright"	n/a	"NULL"	"NULL"	"NULL"	"stimuli/Ebbinghaus_-0.1000_-0.2800.png"	n/a	"Ebbinghaus"	"arrowright"	"1302"	"TRUE"	"Ebbinghaus"	"-0.100000000"	"-0.280000000"	"2"	"13"
n/a	"html-keyboard-response"	"210"	"426951"	"0.0-6.0-2.0-0.13"	"e1bgku"	"600"	"1366"	"chrome"	"110.0.0"	"FALSE"	"Windows 10"	"60.1"	"028"	n/a	n/a	n/a	n/a	n/a	n/a	"fixation"	n/a	n/a	n/a	n/a	"NULL"	n/a	"NULL"	"NULL"	"NULL"	"<p style=\"color: black; font-size: 80px; padding-left: 26%; padding-right: 22%; padding-top: 14%; padding-bottom: 2%\">+</p>"	"1414"	n/a	n/a	n/a	n/a	n/a	n/a	n/a	n/a	n/a
n/a	"image-keyboard-response"	"211"	"428644"	"0.0-6.0-2.0-1.13"	"e1bgku"	"600"	"1366"	"chrome"	"110.0.0"	"FALSE"	"Windows 10"	"60.1"	"028"	n/a	n/a	n/a	n/a	n/a	n/a	"Trial"	n/a	n/a	n/a	"1692"	"arrowleft"	n/a	"NULL"	"NULL"	"NULL"	"stimuli/Ebbinghaus_0.10000_0.15857.png"	n/a	"Ebbinghaus"	"arrowleft"	"1422"	"TRUE"	"Ebbinghaus"	"0.1000000000"	"0.1585700000"	"2"	"14"
n/a	"html-keyboard-response"	"212"	"429941"	"0.0-6.0-2.0-0.14"	"e1bgku"	"600"	"1366"	"chrome"	"110.0.0"	"FALSE"	"Windows 10"	"60.1"	"028"	n/a	n/a	n/a	n/a	n/a	n/a	"fixation"	n/a	n/a	n/a	n/a	"NULL"	n/a	"NULL"	"NULL"	"NULL"	"<p style=\"color: black; font-size: 80px; padding-left: 33%; padding-right: 20%; padding-top: 50%; padding-bottom: 4%\">+</p>"	"1281"	n/a	n/a	n/a	n/a	n/a	n/a	n/a	n/a	n/a
n/a	"image-keyboard-response"	"213"	"430632"	"0.0-6.0-2.0-1.14"	"e1bgku"	"600"	"1366"	"chrome"	"110.0.0"	"FALSE"	"Windows 10"	"60.1"	"028"	n/a	n/a	n/a	n/a	n/a	n/a	"Trial"	n/a	n/a	n/a	"691"	"arrowright"	n/a	"NULL"	"NULL"	"NULL"	"stimuli/Ebbinghaus_-0.1000_-0.15857.png"	n/a	"Ebbinghaus"	"arrowright"	"1297"	"TRUE"	"Ebbinghaus"	"-0.100000000"	"-0.158570000"	"2"	"15"
n/a	"html-keyboard-response"	"214"	"432113"	"0.0-6.0-2.0-0.15"	"e1bgku"	"600"	"1366"	"chrome"	"110.0.0"	"FALSE"	"Windows 10"	"60.1"	"028"	n/a	n/a	n/a	n/a	n/a	n/a	"fixation"	n/a	n/a	n/a	n/a	"NULL"	n/a	"NULL"	"NULL"	"NULL"	"<p style=\"color: black; font-size: 80px; padding-left: 19%; padding-right: 40%; padding-top: 48%; padding-bottom: 3%\">+</p>"	"1474"	n/a	n/a	n/a	n/a	n/a	n/a	n/a	n/a	n/a
n/a	"image-keyboard-response"	"215"	"432864"	"0.0-6.0-2.0-1.15"	"e1bgku"	"600"	"1366"	"chrome"	"110.0.0"	"FALSE"	"Windows 10"	"60.1"	"028"	n/a	n/a	n/a	n/a	n/a	n/a	"Trial"	n/a	n/a	n/a	"750"	"arrowleft"	n/a	"NULL"	"NULL"	"NULL"	"stimuli/Ebbinghaus_-0.87143_0.28000.png"	n/a	"Ebbinghaus"	"arrowleft"	"1481"	"TRUE"	"Ebbinghaus"	"-0.871430000"	"0.2800000000"	"2"	"16"
n/a	"html-keyboard-response"	"216"	"434191"	"0.0-6.0-2.0-0.16"	"e1bgku"	"600"	"1366"	"chrome"	"110.0.0"	"FALSE"	"Windows 10"	"60.1"	"028"	n/a	n/a	n/a	n/a	n/a	n/a	"fixation"	n/a	n/a	n/a	n/a	"NULL"	n/a	"NULL"	"NULL"	"NULL"	"<p style=\"color: black; font-size: 80px; padding-left: 23%; padding-right: 8%; padding-top: 24%; padding-bottom: 10%\">+</p>"	"1323"	n/a	n/a	n/a	n/a	n/a	n/a	n/a	n/a	n/a
n/a	"image-keyboard-response"	"217"	"434743"	"0.0-6.0-2.0-1.16"	"e1bgku"	"600"	"1366"	"chrome"	"110.0.0"	"FALSE"	"Windows 10"	"60.1"	"028"	n/a	n/a	n/a	n/a	n/a	n/a	"Trial"	n/a	n/a	n/a	"550"	"arrowright"	n/a	"NULL"	"NULL"	"NULL"	"stimuli/Ebbinghaus_0.61429_-0.15857.png"	n/a	"Ebbinghaus"	"arrowright"	"1327"	"TRUE"	"Ebbinghaus"	"0.6142900000"	"-0.158570000"	"2"	"17"
n/a	"html-keyboard-response"	"218"	"436223"	"0.0-6.0-2.0-0.17"	"e1bgku"	"600"	"1366"	"chrome"	"110.0.0"	"FALSE"	"Windows 10"	"60.1"	"028"	n/a	n/a	n/a	n/a	n/a	n/a	"fixation"	n/a	n/a	n/a	n/a	"NULL"	n/a	"NULL"	"NULL"	"NULL"	"<p style=\"color: black; font-size: 80px; padding-left: 28%; padding-right: 12%; padding-top: 43%; padding-bottom: 7%\">+</p>"	"1468"	n/a	n/a	n/a	n/a	n/a	n/a	n/a	n/a	n/a
n/a	"image-keyboard-response"	"219"	"438065"	"0.0-6.0-2.0-1.17"	"e1bgku"	"600"	"1366"	"chrome"	"110.0.0"	"FALSE"	"Windows 10"	"60.1"	"028"	n/a	n/a	n/a	n/a	n/a	n/a	"Trial"	n/a	n/a	n/a	"1841"	"arrowleft"	n/a	"NULL"	"NULL"	"NULL"	"stimuli/Ebbinghaus_0.10000_0.11071.png"	n/a	"Ebbinghaus"	"arrowleft"	"1480"	"TRUE"	"Ebbinghaus"	"0.1000000000"	"0.1107100000"	"2"	"18"
n/a	"html-keyboard-response"	"220"	"439472"	"0.0-6.0-2.0-0.18"	"e1bgku"	"600"	"1366"	"chrome"	"110.0.0"	"FALSE"	"Windows 10"	"60.1"	"028"	n/a	n/a	n/a	n/a	n/a	n/a	"fixation"	n/a	n/a	n/a	n/a	"NULL"	n/a	"NULL"	"NULL"	"NULL"	"<p style=\"color: black; font-size: 80px; padding-left: 44%; padding-right: 26%; padding-top: 31%; padding-bottom: 24%\">+</p>"	"1399"	n/a	n/a	n/a	n/a	n/a	n/a	n/a	n/a	n/a
n/a	"image-keyboard-response"	"221"	"440163"	"0.0-6.0-2.0-1.18"	"e1bgku"	"600"	"1366"	"chrome"	"110.0.0"	"FALSE"	"Windows 10"	"60.1"	"028"	n/a	n/a	n/a	n/a	n/a	n/a	"Trial"	n/a	n/a	n/a	"690"	"arrowright"	n/a	"NULL"	"NULL"	"NULL"	"stimuli/Ebbinghaus_-0.87143_-0.2800.png"	n/a	"Ebbinghaus"	"arrowright"	"1407"	"TRUE"	"Ebbinghaus"	"-0.871430000"	"-0.280000000"	"2"	"19"
n/a	"html-keyboard-response"	"222"	"441535"	"0.0-6.0-2.0-0.19"	"e1bgku"	"600"	"1366"	"chrome"	"110.0.0"	"FALSE"	"Windows 10"	"60.1"	"028"	n/a	n/a	n/a	n/a	n/a	n/a	"fixation"	n/a	n/a	n/a	n/a	"NULL"	n/a	"NULL"	"NULL"	"NULL"	"<p style=\"color: black; font-size: 80px; padding-left: 19%; padding-right: 1%; padding-top: 41%; padding-bottom: 24%\">+</p>"	"1362"	n/a	n/a	n/a	n/a	n/a	n/a	n/a	n/a	n/a
n/a	"image-keyboard-response"	"223"	"442196"	"0.0-6.0-2.0-1.19"	"e1bgku"	"600"	"1366"	"chrome"	"110.0.0"	"FALSE"	"Windows 10"	"60.1"	"028"	n/a	n/a	n/a	n/a	n/a	n/a	"Trial"	n/a	n/a	n/a	"661"	"arrowright"	n/a	"NULL"	"NULL"	"NULL"	"stimuli/Ebbinghaus_0.35714_-0.11071.png"	n/a	"Ebbinghaus"	"arrowright"	"1372"	"TRUE"	"Ebbinghaus"	"0.3571400000"	"-0.110710000"	"2"	"20"
n/a	"html-keyboard-response"	"224"	"443566"	"0.0-6.0-2.0-0.20"	"e1bgku"	"600"	"1366"	"chrome"	"110.0.0"	"FALSE"	"Windows 10"	"60.1"	"028"	n/a	n/a	n/a	n/a	n/a	n/a	"fixation"	n/a	n/a	n/a	n/a	"NULL"	n/a	"NULL"	"NULL"	"NULL"	"<p style=\"color: black; font-size: 80px; padding-left: 43%; padding-right: 23%; padding-top: 7%; padding-bottom: 42%\">+</p>"	"1360"	n/a	n/a	n/a	n/a	n/a	n/a	n/a	n/a	n/a
n/a	"image-keyboard-response"	"225"	"444671"	"0.0-6.0-2.0-1.20"	"e1bgku"	"600"	"1366"	"chrome"	"110.0.0"	"FALSE"	"Windows 10"	"60.1"	"028"	n/a	n/a	n/a	n/a	n/a	n/a	"Trial"	n/a	n/a	n/a	"1104"	"arrowright"	n/a	"NULL"	"NULL"	"NULL"	"stimuli/Ebbinghaus_0.87143_-0.2800.png"	n/a	"Ebbinghaus"	"arrowright"	"1370"	"TRUE"	"Ebbinghaus"	"0.8714300000"	"-0.280000000"	"2"	"21"
n/a	"html-keyboard-response"	"226"	"445877"	"0.0-6.0-2.0-0.21"	"e1bgku"	"600"	"1366"	"chrome"	"110.0.0"	"FALSE"	"Windows 10"	"60.1"	"028"	n/a	n/a	n/a	n/a	n/a	n/a	"fixation"	n/a	n/a	n/a	n/a	"NULL"	n/a	"NULL"	"NULL"	"NULL"	"<p style=\"color: black; font-size: 80px; padding-left: 24%; padding-right: 18%; padding-top: 41%; padding-bottom: 29%\">+</p>"	"1203"	n/a	n/a	n/a	n/a	n/a	n/a	n/a	n/a	n/a
n/a	"image-keyboard-response"	"227"	"446760"	"0.0-6.0-2.0-1.21"	"e1bgku"	"600"	"1366"	"chrome"	"110.0.0"	"FALSE"	"Windows 10"	"60.1"	"028"	n/a	n/a	n/a	n/a	n/a	n/a	"Trial"	n/a	n/a	n/a	"882"	"arrowleft"	n/a	"NULL"	"NULL"	"NULL"	"stimuli/Ebbinghaus_-0.35714_0.21500.png"	n/a	"Ebbinghaus"	"arrowleft"	"1206"	"TRUE"	"Ebbinghaus"	"-0.357140000"	"0.2150000000"	"2"	"22"
n/a	"html-keyboard-response"	"228"	"448145"	"0.0-6.0-2.0-0.22"	"e1bgku"	"600"	"1366"	"chrome"	"110.0.0"	"FALSE"	"Windows 10"	"60.1"	"028"	n/a	n/a	n/a	n/a	n/a	n/a	"fixation"	n/a	n/a	n/a	n/a	"NULL"	n/a	"NULL"	"NULL"	"NULL"	"<p style=\"color: black; font-size: 80px; padding-left: 13%; padding-right: 1%; padding-top: 16%; padding-bottom: 25%\">+</p>"	"1372"	n/a	n/a	n/a	n/a	n/a	n/a	n/a	n/a	n/a
n/a	"image-keyboard-response"	"229"	"448838"	"0.0-6.0-2.0-1.22"	"e1bgku"	"600"	"1366"	"chrome"	"110.0.0"	"FALSE"	"Windows 10"	"60.1"	"028"	n/a	n/a	n/a	n/a	n/a	n/a	"Trial"	n/a	n/a	n/a	"692"	"arrowleft"	n/a	"NULL"	"NULL"	"NULL"	"stimuli/Ebbinghaus_-0.61429_0.28000.png"	n/a	"Ebbinghaus"	"arrowleft"	"1385"	"TRUE"	"Ebbinghaus"	"-0.614290000"	"0.2800000000"	"2"	"23"
n/a	"html-keyboard-response"	"230"	"450175"	"0.0-6.0-2.0-0.23"	"e1bgku"	"600"	"1366"	"chrome"	"110.0.0"	"FALSE"	"Windows 10"	"60.1"	"028"	n/a	n/a	n/a	n/a	n/a	n/a	"fixation"	n/a	n/a	n/a	n/a	"NULL"	n/a	"NULL"	"NULL"	"NULL"	"<p style=\"color: black; font-size: 80px; padding-left: 42%; padding-right: 36%; padding-top: 21%; padding-bottom: 35%\">+</p>"	"1334"	n/a	n/a	n/a	n/a	n/a	n/a	n/a	n/a	n/a
n/a	"image-keyboard-response"	"231"	"450910"	"0.0-6.0-2.0-1.23"	"e1bgku"	"600"	"1366"	"chrome"	"110.0.0"	"FALSE"	"Windows 10"	"60.1"	"028"	n/a	n/a	n/a	n/a	n/a	n/a	"Trial"	n/a	n/a	n/a	"732"	"arrowright"	n/a	"NULL"	"NULL"	"NULL"	"stimuli/Ebbinghaus_0.61429_-0.2150.png"	n/a	"Ebbinghaus"	"arrowright"	"1337"	"TRUE"	"Ebbinghaus"	"0.6142900000"	"-0.215000000"	"2"	"24"
n/a	"html-keyboard-response"	"232"	"452144"	"0.0-6.0-2.0-0.24"	"e1bgku"	"600"	"1366"	"chrome"	"110.0.0"	"FALSE"	"Windows 10"	"60.1"	"028"	n/a	n/a	n/a	n/a	n/a	n/a	"fixation"	n/a	n/a	n/a	n/a	"NULL"	n/a	"NULL"	"NULL"	"NULL"	"<p style=\"color: black; font-size: 80px; padding-left: 26%; padding-right: 12%; padding-top: 21%; padding-bottom: 9%\">+</p>"	"1221"	n/a	n/a	n/a	n/a	n/a	n/a	n/a	n/a	n/a
n/a	"image-keyboard-response"	"233"	"452772"	"0.0-6.0-2.0-1.24"	"e1bgku"	"600"	"1366"	"chrome"	"110.0.0"	"FALSE"	"Windows 10"	"60.1"	"028"	n/a	n/a	n/a	n/a	n/a	n/a	"Trial"	n/a	n/a	n/a	"627"	"arrowleft"	n/a	"NULL"	"NULL"	"NULL"	"stimuli/Ebbinghaus_-0.61429_0.21500.png"	n/a	"Ebbinghaus"	"arrowleft"	"1234"	"TRUE"	"Ebbinghaus"	"-0.614290000"	"0.2150000000"	"2"	"25"
n/a	"html-keyboard-response"	"234"	"453940"	"0.0-6.0-2.0-0.25"	"e1bgku"	"600"	"1366"	"chrome"	"110.0.0"	"FALSE"	"Windows 10"	"60.1"	"028"	n/a	n/a	n/a	n/a	n/a	n/a	"fixation"	n/a	n/a	n/a	n/a	"NULL"	n/a	"NULL"	"NULL"	"NULL"	"<p style=\"color: black; font-size: 80px; padding-left: 6%; padding-right: 35%; padding-top: 44%; padding-bottom: 49%\">+</p>"	"1156"	n/a	n/a	n/a	n/a	n/a	n/a	n/a	n/a	n/a
n/a	"image-keyboard-response"	"235"	"454943"	"0.0-6.0-2.0-1.25"	"e1bgku"	"600"	"1366"	"chrome"	"110.0.0"	"FALSE"	"Windows 10"	"60.1"	"028"	n/a	n/a	n/a	n/a	n/a	n/a	"Trial"	n/a	n/a	n/a	"1003"	"arrowleft"	n/a	"NULL"	"NULL"	"NULL"	"stimuli/Ebbinghaus_-0.1000_0.15857.png"	n/a	"Ebbinghaus"	"arrowleft"	"1168"	"TRUE"	"Ebbinghaus"	"-0.100000000"	"0.1585700000"	"2"	"26"
n/a	"html-keyboard-response"	"236"	"456114"	"0.0-6.0-2.0-0.26"	"e1bgku"	"600"	"1366"	"chrome"	"110.0.0"	"FALSE"	"Windows 10"	"60.1"	"028"	n/a	n/a	n/a	n/a	n/a	n/a	"fixation"	n/a	n/a	n/a	n/a	"NULL"	n/a	"NULL"	"NULL"	"NULL"	"<p style=\"color: black; font-size: 80px; padding-left: 46%; padding-right: 48%; padding-top: 5%; padding-bottom: 19%\">+</p>"	"1156"	n/a	n/a	n/a	n/a	n/a	n/a	n/a	n/a	n/a
n/a	"image-keyboard-response"	"237"	"456878"	"0.0-6.0-2.0-1.26"	"e1bgku"	"600"	"1366"	"chrome"	"110.0.0"	"FALSE"	"Windows 10"	"60.1"	"028"	n/a	n/a	n/a	n/a	n/a	n/a	"Trial"	n/a	n/a	n/a	"763"	"arrowright"	n/a	"NULL"	"NULL"	"NULL"	"stimuli/Ebbinghaus_-0.61429_-0.11071.png"	n/a	"Ebbinghaus"	"arrowright"	"1171"	"TRUE"	"Ebbinghaus"	"-0.614290000"	"-0.110710000"	"2"	"27"
n/a	"html-keyboard-response"	"238"	"458306"	"0.0-6.0-2.0-0.27"	"e1bgku"	"600"	"1366"	"chrome"	"110.0.0"	"FALSE"	"Windows 10"	"60.1"	"028"	n/a	n/a	n/a	n/a	n/a	n/a	"fixation"	n/a	n/a	n/a	n/a	"NULL"	n/a	"NULL"	"NULL"	"NULL"	"<p style=\"color: black; font-size: 80px; padding-left: 2%; padding-right: 44%; padding-top: 16%; padding-bottom: 37%\">+</p>"	"1415"	n/a	n/a	n/a	n/a	n/a	n/a	n/a	n/a	n/a
n/a	"image-keyboard-response"	"239"	"459100"	"0.0-6.0-2.0-1.27"	"e1bgku"	"600"	"1366"	"chrome"	"110.0.0"	"FALSE"	"Windows 10"	"60.1"	"028"	n/a	n/a	n/a	n/a	n/a	n/a	"Trial"	n/a	n/a	n/a	"793"	"arrowright"	n/a	"NULL"	"NULL"	"NULL"	"stimuli/Ebbinghaus_-0.35714_-0.15857.png"	n/a	"Ebbinghaus"	"arrowright"	"1428"	"TRUE"	"Ebbinghaus"	"-0.357140000"	"-0.158570000"	"2"	"28"
n/a	"html-keyboard-response"	"240"	"460529"	"0.0-6.0-2.0-0.28"	"e1bgku"	"600"	"1366"	"chrome"	"110.0.0"	"FALSE"	"Windows 10"	"60.1"	"028"	n/a	n/a	n/a	n/a	n/a	n/a	"fixation"	n/a	n/a	n/a	n/a	"NULL"	n/a	"NULL"	"NULL"	"NULL"	"<p style=\"color: black; font-size: 80px; padding-left: 41%; padding-right: 49%; padding-top: 12%; padding-bottom: 32%\">+</p>"	"1419"	n/a	n/a	n/a	n/a	n/a	n/a	n/a	n/a	n/a
n/a	"image-keyboard-response"	"241"	"461176"	"0.0-6.0-2.0-1.28"	"e1bgku"	"600"	"1366"	"chrome"	"110.0.0"	"FALSE"	"Windows 10"	"60.1"	"028"	n/a	n/a	n/a	n/a	n/a	n/a	"Trial"	n/a	n/a	n/a	"647"	"arrowleft"	n/a	"NULL"	"NULL"	"NULL"	"stimuli/Ebbinghaus_0.35714_0.11071.png"	n/a	"Ebbinghaus"	"arrowleft"	"1429"	"TRUE"	"Ebbinghaus"	"0.3571400000"	"0.1107100000"	"2"	"29"
n/a	"html-keyboard-response"	"242"	"462674"	"0.0-6.0-2.0-0.29"	"e1bgku"	"600"	"1366"	"chrome"	"110.0.0"	"FALSE"	"Windows 10"	"60.1"	"028"	n/a	n/a	n/a	n/a	n/a	n/a	"fixation"	n/a	n/a	n/a	n/a	"NULL"	n/a	"NULL"	"NULL"	"NULL"	"<p style=\"color: black; font-size: 80px; padding-left: 14%; padding-right: 45%; padding-top: 14%; padding-bottom: 2%\">+</p>"	"1484"	n/a	n/a	n/a	n/a	n/a	n/a	n/a	n/a	n/a
n/a	"image-keyboard-response"	"243"	"463251"	"0.0-6.0-2.0-1.29"	"e1bgku"	"600"	"1366"	"chrome"	"110.0.0"	"FALSE"	"Windows 10"	"60.1"	"028"	n/a	n/a	n/a	n/a	n/a	n/a	"Trial"	n/a	n/a	n/a	"576"	"arrowleft"	n/a	"NULL"	"NULL"	"NULL"	"stimuli/Ebbinghaus_-0.87143_0.21500.png"	n/a	"Ebbinghaus"	"arrowleft"	"1498"	"TRUE"	"Ebbinghaus"	"-0.871430000"	"0.2150000000"	"2"	"30"
n/a	"html-keyboard-response"	"244"	"464286"	"0.0-6.0-2.0-0.30"	"e1bgku"	"600"	"1366"	"chrome"	"110.0.0"	"FALSE"	"Windows 10"	"60.1"	"028"	n/a	n/a	n/a	n/a	n/a	n/a	"fixation"	n/a	n/a	n/a	n/a	"NULL"	n/a	"NULL"	"NULL"	"NULL"	"<p style=\"color: black; font-size: 80px; padding-left: 31%; padding-right: 47%; padding-top: 48%; padding-bottom: 6%\">+</p>"	"1024"	n/a	n/a	n/a	n/a	n/a	n/a	n/a	n/a	n/a
n/a	"image-keyboard-response"	"245"	"464896"	"0.0-6.0-2.0-1.30"	"e1bgku"	"600"	"1366"	"chrome"	"110.0.0"	"FALSE"	"Windows 10"	"60.1"	"028"	n/a	n/a	n/a	n/a	n/a	n/a	"Trial"	n/a	n/a	n/a	"609"	"arrowleft"	n/a	"NULL"	"NULL"	"NULL"	"stimuli/Ebbinghaus_-0.35714_0.28000.png"	n/a	"Ebbinghaus"	"arrowleft"	"1035"	"TRUE"	"Ebbinghaus"	"-0.357140000"	"0.2800000000"	"2"	"31"
n/a	"html-keyboard-response"	"246"	"465964"	"0.0-6.0-2.0-0.31"	"e1bgku"	"600"	"1366"	"chrome"	"110.0.0"	"FALSE"	"Windows 10"	"60.1"	"028"	n/a	n/a	n/a	n/a	n/a	n/a	"fixation"	n/a	n/a	n/a	n/a	"NULL"	n/a	"NULL"	"NULL"	"NULL"	"<p style=\"color: black; font-size: 80px; padding-left: 21%; padding-right: 44%; padding-top: 7%; padding-bottom: 28%\">+</p>"	"1054"	n/a	n/a	n/a	n/a	n/a	n/a	n/a	n/a	n/a
n/a	"image-keyboard-response"	"247"	"466520"	"0.0-6.0-2.0-1.31"	"e1bgku"	"600"	"1366"	"chrome"	"110.0.0"	"FALSE"	"Windows 10"	"60.1"	"028"	n/a	n/a	n/a	n/a	n/a	n/a	"Trial"	n/a	n/a	n/a	"555"	"arrowright"	n/a	"NULL"	"NULL"	"NULL"	"stimuli/Ebbinghaus_0.61429_-0.2800.png"	n/a	"Ebbinghaus"	"arrowright"	"1068"	"TRUE"	"Ebbinghaus"	"0.6142900000"	"-0.280000000"	"2"	"32"
n/a	"html-keyboard-response"	"248"	"467972"	"0.0-6.0-2.0-0.32"	"e1bgku"	"600"	"1366"	"chrome"	"110.0.0"	"FALSE"	"Windows 10"	"60.1"	"028"	n/a	n/a	n/a	n/a	n/a	n/a	"fixation"	n/a	n/a	n/a	n/a	"NULL"	n/a	"NULL"	"NULL"	"NULL"	"<p style=\"color: black; font-size: 80px; padding-left: 45%; padding-right: 35%; padding-top: 6%; padding-bottom: 12%\">+</p>"	"1443"	n/a	n/a	n/a	n/a	n/a	n/a	n/a	n/a	n/a
n/a	"image-keyboard-response"	"249"	"468685"	"0.0-6.0-2.0-1.32"	"e1bgku"	"600"	"1366"	"chrome"	"110.0.0"	"FALSE"	"Windows 10"	"60.1"	"028"	n/a	n/a	n/a	n/a	n/a	n/a	"Trial"	n/a	n/a	n/a	"712"	"arrowright"	n/a	"NULL"	"NULL"	"NULL"	"stimuli/Ebbinghaus_0.87143_-0.2150.png"	n/a	"Ebbinghaus"	"arrowright"	"1452"	"TRUE"	"Ebbinghaus"	"0.8714300000"	"-0.215000000"	"2"	"33"
n/a	"html-keyboard-response"	"250"	"470020"	"0.0-6.0-2.0-0.33"	"e1bgku"	"600"	"1366"	"chrome"	"110.0.0"	"FALSE"	"Windows 10"	"60.1"	"028"	n/a	n/a	n/a	n/a	n/a	n/a	"fixation"	n/a	n/a	n/a	n/a	"NULL"	n/a	"NULL"	"NULL"	"NULL"	"<p style=\"color: black; font-size: 80px; padding-left: 46%; padding-right: 23%; padding-top: 15%; padding-bottom: 14%\">+</p>"	"1330"	n/a	n/a	n/a	n/a	n/a	n/a	n/a	n/a	n/a
n/a	"image-keyboard-response"	"251"	"471452"	"0.0-6.0-2.0-1.33"	"e1bgku"	"600"	"1366"	"chrome"	"110.0.0"	"FALSE"	"Windows 10"	"60.1"	"028"	n/a	n/a	n/a	n/a	n/a	n/a	"Trial"	n/a	n/a	n/a	"1431"	"arrowleft"	n/a	"NULL"	"NULL"	"NULL"	"stimuli/Ebbinghaus_0.61429_0.15857.png"	n/a	"Ebbinghaus"	"arrowleft"	"1335"	"TRUE"	"Ebbinghaus"	"0.6142900000"	"0.1585700000"	"2"	"34"
n/a	"html-keyboard-response"	"252"	"472704"	"0.0-6.0-2.0-0.34"	"e1bgku"	"600"	"1366"	"chrome"	"110.0.0"	"FALSE"	"Windows 10"	"60.1"	"028"	n/a	n/a	n/a	n/a	n/a	n/a	"fixation"	n/a	n/a	n/a	n/a	"NULL"	n/a	"NULL"	"NULL"	"NULL"	"<p style=\"color: black; font-size: 80px; padding-left: 44%; padding-right: 34%; padding-top: 26%; padding-bottom: 35%\">+</p>"	"1239"	n/a	n/a	n/a	n/a	n/a	n/a	n/a	n/a	n/a
n/a	"image-keyboard-response"	"253"	"473327"	"0.0-6.0-2.0-1.34"	"e1bgku"	"600"	"1366"	"chrome"	"110.0.0"	"FALSE"	"Windows 10"	"60.1"	"028"	n/a	n/a	n/a	n/a	n/a	n/a	"Trial"	n/a	n/a	n/a	"622"	"arrowright"	n/a	"NULL"	"NULL"	"NULL"	"stimuli/Ebbinghaus_-0.35714_-0.2150.png"	n/a	"Ebbinghaus"	"arrowright"	"1252"	"TRUE"	"Ebbinghaus"	"-0.357140000"	"-0.215000000"	"2"	"35"
