"success"	"trial_type"	"trial_index"	"time_elapsed"	"internal_node_id"	"participant_id"	"screen_height"	"screen_width"	"browser"	"browser_version"	"mobile"	"os"	"vsync_rate"	"subject_id"	"width"	"height"	"webaudio"	"fullscreen"	"webcam"	"microphone"	"screen"	"version"	"date"	"time"	"rt"	"response"	"timeout"	"failed_images"	"failed_audio"	"failed_video"	"stimulus"	"trial_duration"	"block"	"correct_response"	"prestimulus_duration"	"correct"	"type"	"illusion_strength"	"illusion_difference"	"block_number"	"trial_number"
"TRUE"	"fullscreen"	"0"	"2455"	"0.0-0.0"	"c3dpjq"	"600"	"1366"	"chrome"	"108.0.0"	"FALSE"	"Windows 10"	"60.74"	"144"	n/a	n/a	n/a	n/a	n/a	n/a	n/a	n/a	n/a	n/a	n/a	"NULL"	n/a	"NULL"	"NULL"	"NULL"	n/a	n/a	n/a	n/a	n/a	n/a	n/a	n/a	n/a	n/a	n/a
n/a	"browser-check"	"1"	"3466"	"0.0-1.0"	"c3dpjq"	"600"	"1366"	"chrome"	"108.0.0"	"FALSE"	"Windows 10"	"60.74"	"144"	"1366"	"600"	"TRUE"	"TRUE"	"TRUE"	"TRUE"	"browser_info"	"1.0"	"11/01/2023"	"16:43:15"	n/a	"NULL"	n/a	"NULL"	"NULL"	"NULL"	n/a	n/a	n/a	n/a	n/a	n/a	n/a	n/a	n/a	n/a	n/a
n/a	"survey-text"	"2"	"5564"	"0.0-2.0"	"c3dpjq"	"600"	"1366"	"chrome"	"108.0.0"	"FALSE"	"Windows 10"	"60.74"	"144"	n/a	n/a	n/a	n/a	n/a	n/a	"subject_id"	n/a	n/a	n/a	"2094"	"list(subject_id = \"144\")"	n/a	"NULL"	"NULL"	"NULL"	n/a	n/a	n/a	n/a	n/a	n/a	n/a	n/a	n/a	n/a	n/a
"TRUE"	"preload"	"3"	"5578"	"0.0-3.0"	"c3dpjq"	"600"	"1366"	"chrome"	"108.0.0"	"FALSE"	"Windows 10"	"60.74"	"144"	n/a	n/a	n/a	n/a	n/a	n/a	n/a	n/a	n/a	n/a	n/a	"NULL"	"FALSE"	"list()"	"list()"	"list()"	n/a	n/a	n/a	n/a	n/a	n/a	n/a	n/a	n/a	n/a	n/a
n/a	"html-button-response"	"4"	"20908"	"0.0-4.0-0.0"	"c3dpjq"	"600"	"1366"	"chrome"	"108.0.0"	"FALSE"	"Windows 10"	"60.74"	"144"	n/a	n/a	n/a	n/a	n/a	n/a	"illusion_instructions"	n/a	n/a	n/a	"15329"	"0"	n/a	"NULL"	"NULL"	"NULL"	"<p><b>Illusion Game</b></p><p>In this game of speed and reflex, you will need to make <b>visual judgments</b> (for instance, which circle is the biggest, or which line is the longest), as fast and as correctly as possible, while <b>resisting different visual illusions</b>.</p><p>We are going to start with some examples of all the illusions you will encounter in the game.</p>"	n/a	n/a	n/a	n/a	n/a	n/a	n/a	n/a	n/a	n/a
"TRUE"	"preload"	"5"	"20931"	"0.0-4.0-1.0-0.0"	"c3dpjq"	"600"	"1366"	"chrome"	"108.0.0"	"FALSE"	"Windows 10"	"60.74"	"144"	n/a	n/a	n/a	n/a	n/a	n/a	n/a	n/a	n/a	n/a	n/a	"NULL"	"FALSE"	"list()"	"list()"	"list()"	n/a	n/a	n/a	n/a	n/a	n/a	n/a	n/a	n/a	n/a	n/a
n/a	"html-keyboard-response"	"6"	"44800"	"0.0-4.0-1.0-1.0"	"c3dpjq"	"600"	"1366"	"chrome"	"108.0.0"	"FALSE"	"Windows 10"	"60.74"	"144"	n/a	n/a	n/a	n/a	n/a	n/a	n/a	n/a	n/a	n/a	"23868"	"enter"	n/a	"NULL"	"NULL"	"NULL"	"<p><b>Practice</b></p><p>In this part, two red circles will appear side by side on the screen.</p><p>Your task is to select which <b>red circle is bigger</b> in size as fast as you can, without making errors.</p><p>Don't get distracted by the surrounding black circles around the red circles!</p><p>Press <b>the LEFT or the RIGHT arrow</b> to indicate which is the bigger <b>red circle.</b></p><div style='float: center'><img src='materials/instructions/Ebbinghaus_Demo.png' height='300'></img><p><img src='utils/answer/answer_leftright_keyboard.PNG' height='150'></img></p><p class='small'>In this example, the correct answer is the <b>LEFT arrow</b>.</p></div><p>Are you ready? <b>Press ENTER to start</b></p>"	n/a	n/a	n/a	n/a	n/a	n/a	n/a	n/a	n/a	n/a
n/a	"html-keyboard-response"	"7"	"46524"	"0.0-4.0-1.0-2.0-0.0"	"c3dpjq"	"600"	"1366"	"chrome"	"108.0.0"	"FALSE"	"Windows 10"	"60.74"	"144"	n/a	n/a	n/a	n/a	n/a	n/a	"fixation"	n/a	n/a	n/a	n/a	"NULL"	n/a	"NULL"	"NULL"	"NULL"	"<p style=\"color: black; font-size: 80px; padding-left: 49%; padding-right: 25%; padding-top: 26%; padding-bottom: 2%\">+</p>"	"1207"	n/a	n/a	n/a	n/a	n/a	n/a	n/a	n/a	n/a
n/a	"image-keyboard-response"	"8"	"47332"	"0.0-4.0-1.0-2.0-1.0"	"c3dpjq"	"600"	"1366"	"chrome"	"108.0.0"	"FALSE"	"Windows 10"	"60.74"	"144"	n/a	n/a	n/a	n/a	n/a	n/a	"Trial"	n/a	n/a	n/a	"797"	"arrowleft"	n/a	"NULL"	"NULL"	"NULL"	"stimuli/Ebbinghaus_1000000_1.40000.png"	n/a	"Ebbinghaus"	"arrowleft"	"1724"	"TRUE"	"Ebbinghaus"	"100000000000"	"1.4000000000"	"1"	"1"
n/a	"html-keyboard-response"	"9"	"48380"	"0.0-4.0-1.0-2.0-0.1"	"c3dpjq"	"600"	"1366"	"chrome"	"108.0.0"	"FALSE"	"Windows 10"	"60.74"	"144"	n/a	n/a	n/a	n/a	n/a	n/a	"fixation"	n/a	n/a	n/a	n/a	"NULL"	n/a	"NULL"	"NULL"	"NULL"	"<p style=\"color: black; font-size: 80px; padding-left: 32%; padding-right: 41%; padding-top: 13%; padding-bottom: 9%\">+</p>"	"1032"	n/a	n/a	n/a	n/a	n/a	n/a	n/a	n/a	n/a
n/a	"image-keyboard-response"	"10"	"48933"	"0.0-4.0-1.0-2.0-1.1"	"c3dpjq"	"600"	"1366"	"chrome"	"108.0.0"	"FALSE"	"Windows 10"	"60.74"	"144"	n/a	n/a	n/a	n/a	n/a	n/a	"Trial"	n/a	n/a	n/a	"552"	"arrowleft"	n/a	"NULL"	"NULL"	"NULL"	"stimuli/Ebbinghaus_0000000_1.40000.png"	n/a	"Ebbinghaus"	"arrowleft"	"1048"	"TRUE"	"Ebbinghaus"	"000000000000"	"1.4000000000"	"1"	"2"
n/a	"html-keyboard-response"	"11"	"50408"	"0.0-4.0-1.0-2.0-0.2"	"c3dpjq"	"600"	"1366"	"chrome"	"108.0.0"	"FALSE"	"Windows 10"	"60.74"	"144"	n/a	n/a	n/a	n/a	n/a	n/a	"fixation"	n/a	n/a	n/a	n/a	"NULL"	n/a	"NULL"	"NULL"	"NULL"	"<p style=\"color: black; font-size: 80px; padding-left: 12%; padding-right: 13%; padding-top: 6%; padding-bottom: 41%\">+</p>"	"1467"	n/a	n/a	n/a	n/a	n/a	n/a	n/a	n/a	n/a
n/a	"image-keyboard-response"	"12"	"51463"	"0.0-4.0-1.0-2.0-1.2"	"c3dpjq"	"600"	"1366"	"chrome"	"108.0.0"	"FALSE"	"Windows 10"	"60.74"	"144"	n/a	n/a	n/a	n/a	n/a	n/a	"Trial"	n/a	n/a	n/a	"1052"	"arrowleft"	n/a	"NULL"	"NULL"	"NULL"	"stimuli/Ebbinghaus_-100000_1.40000.png"	n/a	"Ebbinghaus"	"arrowleft"	"1475"	"TRUE"	"Ebbinghaus"	"-10000000000"	"1.4000000000"	"1"	"3"
n/a	"html-keyboard-response"	"13"	"52905"	"0.0-4.0-1.0-2.0-0.3"	"c3dpjq"	"600"	"1366"	"chrome"	"108.0.0"	"FALSE"	"Windows 10"	"60.74"	"144"	n/a	n/a	n/a	n/a	n/a	n/a	"fixation"	n/a	n/a	n/a	n/a	"NULL"	n/a	"NULL"	"NULL"	"NULL"	"<p style=\"color: black; font-size: 80px; padding-left: 17%; padding-right: 4%; padding-top: 22%; padding-bottom: 13%\">+</p>"	"1428"	n/a	n/a	n/a	n/a	n/a	n/a	n/a	n/a	n/a
n/a	"image-keyboard-response"	"14"	"53528"	"0.0-4.0-1.0-2.0-1.3"	"c3dpjq"	"600"	"1366"	"chrome"	"108.0.0"	"FALSE"	"Windows 10"	"60.74"	"144"	n/a	n/a	n/a	n/a	n/a	n/a	"Trial"	n/a	n/a	n/a	"623"	"arrowright"	n/a	"NULL"	"NULL"	"NULL"	"stimuli/Ebbinghaus_-100000_-1.4000.png"	n/a	"Ebbinghaus"	"arrowright"	"1442"	"TRUE"	"Ebbinghaus"	"-10000000000"	"-1.400000000"	"1"	"4"
n/a	"html-keyboard-response"	"15"	"54873"	"0.0-4.0-1.0-2.0-0.4"	"c3dpjq"	"600"	"1366"	"chrome"	"108.0.0"	"FALSE"	"Windows 10"	"60.74"	"144"	n/a	n/a	n/a	n/a	n/a	n/a	"fixation"	n/a	n/a	n/a	n/a	"NULL"	n/a	"NULL"	"NULL"	"NULL"	"<p style=\"color: black; font-size: 80px; padding-left: 43%; padding-right: 26%; padding-top: 49%; padding-bottom: 36%\">+</p>"	"1339"	n/a	n/a	n/a	n/a	n/a	n/a	n/a	n/a	n/a
n/a	"image-keyboard-response"	"16"	"55528"	"0.0-4.0-1.0-2.0-1.4"	"c3dpjq"	"600"	"1366"	"chrome"	"108.0.0"	"FALSE"	"Windows 10"	"60.74"	"144"	n/a	n/a	n/a	n/a	n/a	n/a	"Trial"	n/a	n/a	n/a	"654"	"arrowright"	n/a	"NULL"	"NULL"	"NULL"	"stimuli/Ebbinghaus_0000000_-1.4000.png"	n/a	"Ebbinghaus"	"arrowright"	"1345"	"TRUE"	"Ebbinghaus"	"000000000000"	"-1.400000000"	"1"	"5"
n/a	"html-keyboard-response"	"17"	"56926"	"0.0-4.0-1.0-2.0-0.5"	"c3dpjq"	"600"	"1366"	"chrome"	"108.0.0"	"FALSE"	"Windows 10"	"60.74"	"144"	n/a	n/a	n/a	n/a	n/a	n/a	"fixation"	n/a	n/a	n/a	n/a	"NULL"	n/a	"NULL"	"NULL"	"NULL"	"<p style=\"color: black; font-size: 80px; padding-left: 18%; padding-right: 7%; padding-top: 29%; padding-bottom: 21%\">+</p>"	"1387"	n/a	n/a	n/a	n/a	n/a	n/a	n/a	n/a	n/a
n/a	"image-keyboard-response"	"18"	"57341"	"0.0-4.0-1.0-2.0-1.5"	"c3dpjq"	"600"	"1366"	"chrome"	"108.0.0"	"FALSE"	"Windows 10"	"60.74"	"144"	n/a	n/a	n/a	n/a	n/a	n/a	"Trial"	n/a	n/a	n/a	"415"	"arrowright"	n/a	"NULL"	"NULL"	"NULL"	"stimuli/Ebbinghaus_1000000_-1.4000.png"	n/a	"Ebbinghaus"	"arrowright"	"1398"	"TRUE"	"Ebbinghaus"	"100000000000"	"-1.400000000"	"1"	"6"
n/a	"html-button-response"	"19"	"74061"	"0.0-4.0-1.0-3.0"	"c3dpjq"	"600"	"1366"	"chrome"	"108.0.0"	"FALSE"	"Windows 10"	"60.74"	"144"	n/a	n/a	n/a	n/a	n/a	n/a	"practice_block_results"	n/a	n/a	n/a	"16717"	"0"	n/a	"NULL"	"NULL"	"NULL"	"<p style='color:rgb(76,175,80);'> Correct Responses: <b>100.00%</b></p><hr><p style='color:rgb(233,30,99);'> Average Response Time: <b>682.17</b> ms.</p>"	n/a	n/a	n/a	n/a	n/a	n/a	n/a	n/a	n/a	n/a
"TRUE"	"preload"	"20"	"74587"	"0.0-4.0-2.0-0.0"	"c3dpjq"	"600"	"1366"	"chrome"	"108.0.0"	"FALSE"	"Windows 10"	"60.74"	"144"	n/a	n/a	n/a	n/a	n/a	n/a	n/a	n/a	n/a	n/a	n/a	"NULL"	"FALSE"	"list()"	"list()"	"list()"	n/a	n/a	n/a	n/a	n/a	n/a	n/a	n/a	n/a	n/a	n/a
n/a	"html-keyboard-response"	"21"	"81040"	"0.0-4.0-2.0-1.0"	"c3dpjq"	"600"	"1366"	"chrome"	"108.0.0"	"FALSE"	"Windows 10"	"60.74"	"144"	n/a	n/a	n/a	n/a	n/a	n/a	n/a	n/a	n/a	n/a	"6452"	"enter"	n/a	"NULL"	"NULL"	"NULL"	"<p><b>Practice</b></p><p>In this part, two horizontal red lines will appear one above the other.</p><p>Your task is to select which <b>line is longer</b> in length as fast as you can, without making errors.</p><p>Don't get distracted by the surrounding black arrows at the end of the red lines!</p><p>Press <b>the UP or the DOWN arrow</b> to indicate where is the longer <b>red line.</b></p><div style='float: center'><img src='materials/instructions/MullerLyer_Demo.png' height='300'></img><p><img src='utils/answer/answer_updown_keyboard.PNG' height='150'></img></p><p class='small'>In this example, the correct answer is the <b>UP arrow</b>.</p></div><p>Are you ready? <b>Press ENTER to start</b></p>"	n/a	n/a	n/a	n/a	n/a	n/a	n/a	n/a	n/a	n/a
n/a	"html-keyboard-response"	"22"	"82940"	"0.0-4.0-2.0-2.0-0.0"	"c3dpjq"	"600"	"1366"	"chrome"	"108.0.0"	"FALSE"	"Windows 10"	"60.74"	"144"	n/a	n/a	n/a	n/a	n/a	n/a	"fixation"	n/a	n/a	n/a	n/a	"NULL"	n/a	"NULL"	"NULL"	"NULL"	"<p style=\"color: black; font-size: 80px; padding-left: 41%; padding-right: 36%; padding-top: 34%; padding-bottom: 36%\">+</p>"	"1379"	n/a	n/a	n/a	n/a	n/a	n/a	n/a	n/a	n/a
n/a	"image-keyboard-response"	"23"	"83461"	"0.0-4.0-2.0-2.0-1.0"	"c3dpjq"	"600"	"1366"	"chrome"	"108.0.0"	"FALSE"	"Windows 10"	"60.74"	"144"	n/a	n/a	n/a	n/a	n/a	n/a	"Trial"	n/a	n/a	n/a	"520"	"arrowup"	n/a	"NULL"	"NULL"	"NULL"	"stimuli/MullerLyer_0000000_0.70000.png"	n/a	"MullerLyer"	"arrowup"	"1900"	"TRUE"	"MullerLyer"	"000000000000"	"0.7000000000"	"1"	"7"
n/a	"html-keyboard-response"	"24"	"84771"	"0.0-4.0-2.0-2.0-0.1"	"c3dpjq"	"600"	"1366"	"chrome"	"108.0.0"	"FALSE"	"Windows 10"	"60.74"	"144"	n/a	n/a	n/a	n/a	n/a	n/a	"fixation"	n/a	n/a	n/a	n/a	"NULL"	n/a	"NULL"	"NULL"	"NULL"	"<p style=\"color: black; font-size: 80px; padding-left: 27%; padding-right: 14%; padding-top: 43%; padding-bottom: 38%\">+</p>"	"1287"	n/a	n/a	n/a	n/a	n/a	n/a	n/a	n/a	n/a
n/a	"image-keyboard-response"	"25"	"85276"	"0.0-4.0-2.0-2.0-1.1"	"c3dpjq"	"600"	"1366"	"chrome"	"108.0.0"	"FALSE"	"Windows 10"	"60.74"	"144"	n/a	n/a	n/a	n/a	n/a	n/a	"Trial"	n/a	n/a	n/a	"503"	"arrowdown"	n/a	"NULL"	"NULL"	"NULL"	"stimuli/MullerLyer_-230000_-0.7000.png"	n/a	"MullerLyer"	"arrowdown"	"1310"	"TRUE"	"MullerLyer"	"-23000000000"	"-0.700000000"	"1"	"8"
n/a	"html-keyboard-response"	"26"	"86741"	"0.0-4.0-2.0-2.0-0.2"	"c3dpjq"	"600"	"1366"	"chrome"	"108.0.0"	"FALSE"	"Windows 10"	"60.74"	"144"	n/a	n/a	n/a	n/a	n/a	n/a	"fixation"	n/a	n/a	n/a	n/a	"NULL"	n/a	"NULL"	"NULL"	"NULL"	"<p style=\"color: black; font-size: 80px; padding-left: 48%; padding-right: 19%; padding-top: 41%; padding-bottom: 14%\">+</p>"	"1458"	n/a	n/a	n/a	n/a	n/a	n/a	n/a	n/a	n/a
n/a	"image-keyboard-response"	"27"	"87182"	"0.0-4.0-2.0-2.0-1.2"	"c3dpjq"	"600"	"1366"	"chrome"	"108.0.0"	"FALSE"	"Windows 10"	"60.74"	"144"	n/a	n/a	n/a	n/a	n/a	n/a	"Trial"	n/a	n/a	n/a	"440"	"arrowdown"	n/a	"NULL"	"NULL"	"NULL"	"stimuli/MullerLyer_0000000_-0.7000.png"	n/a	"MullerLyer"	"arrowdown"	"1465"	"TRUE"	"MullerLyer"	"000000000000"	"-0.700000000"	"1"	"9"
n/a	"html-keyboard-response"	"28"	"88348"	"0.0-4.0-2.0-2.0-0.3"	"c3dpjq"	"600"	"1366"	"chrome"	"108.0.0"	"FALSE"	"Windows 10"	"60.74"	"144"	n/a	n/a	n/a	n/a	n/a	n/a	"fixation"	n/a	n/a	n/a	n/a	"NULL"	n/a	"NULL"	"NULL"	"NULL"	"<p style=\"color: black; font-size: 80px; padding-left: 44%; padding-right: 0%; padding-top: 31%; padding-bottom: 40%\">+</p>"	"1150"	n/a	n/a	n/a	n/a	n/a	n/a	n/a	n/a	n/a
n/a	"image-keyboard-response"	"29"	"88847"	"0.0-4.0-2.0-2.0-1.3"	"c3dpjq"	"600"	"1366"	"chrome"	"108.0.0"	"FALSE"	"Windows 10"	"60.74"	"144"	n/a	n/a	n/a	n/a	n/a	n/a	"Trial"	n/a	n/a	n/a	"497"	"arrowup"	n/a	"NULL"	"NULL"	"NULL"	"stimuli/MullerLyer_-230000_0.70000.png"	n/a	"MullerLyer"	"arrowup"	"1166"	"TRUE"	"MullerLyer"	"-23000000000"	"0.7000000000"	"1"	"10"
n/a	"html-keyboard-response"	"30"	"90162"	"0.0-4.0-2.0-2.0-0.4"	"c3dpjq"	"600"	"1366"	"chrome"	"108.0.0"	"FALSE"	"Windows 10"	"60.74"	"144"	n/a	n/a	n/a	n/a	n/a	n/a	"fixation"	n/a	n/a	n/a	n/a	"NULL"	n/a	"NULL"	"NULL"	"NULL"	"<p style=\"color: black; font-size: 80px; padding-left: 2%; padding-right: 37%; padding-top: 20%; padding-bottom: 11%\">+</p>"	"1303"	n/a	n/a	n/a	n/a	n/a	n/a	n/a	n/a	n/a
n/a	"image-keyboard-response"	"31"	"90652"	"0.0-4.0-2.0-2.0-1.4"	"c3dpjq"	"600"	"1366"	"chrome"	"108.0.0"	"FALSE"	"Windows 10"	"60.74"	"144"	n/a	n/a	n/a	n/a	n/a	n/a	"Trial"	n/a	n/a	n/a	"489"	"arrowup"	n/a	"NULL"	"NULL"	"NULL"	"stimuli/MullerLyer_2300000_0.70000.png"	n/a	"MullerLyer"	"arrowup"	"1315"	"TRUE"	"MullerLyer"	"230000000000"	"0.7000000000"	"1"	"11"
n/a	"html-keyboard-response"	"32"	"92111"	"0.0-4.0-2.0-2.0-0.5"	"c3dpjq"	"600"	"1366"	"chrome"	"108.0.0"	"FALSE"	"Windows 10"	"60.74"	"144"	n/a	n/a	n/a	n/a	n/a	n/a	"fixation"	n/a	n/a	n/a	n/a	"NULL"	n/a	"NULL"	"NULL"	"NULL"	"<p style=\"color: black; font-size: 80px; padding-left: 6%; padding-right: 43%; padding-top: 2%; padding-bottom: 4%\">+</p>"	"1445"	n/a	n/a	n/a	n/a	n/a	n/a	n/a	n/a	n/a
n/a	"image-keyboard-response"	"33"	"92580"	"0.0-4.0-2.0-2.0-1.5"	"c3dpjq"	"600"	"1366"	"chrome"	"108.0.0"	"FALSE"	"Windows 10"	"60.74"	"144"	n/a	n/a	n/a	n/a	n/a	n/a	"Trial"	n/a	n/a	n/a	"468"	"arrowdown"	n/a	"NULL"	"NULL"	"NULL"	"stimuli/MullerLyer_2300000_-0.7000.png"	n/a	"MullerLyer"	"arrowdown"	"1459"	"TRUE"	"MullerLyer"	"230000000000"	"-0.700000000"	"1"	"12"
n/a	"html-button-response"	"34"	"95641"	"0.0-4.0-2.0-3.0"	"c3dpjq"	"600"	"1366"	"chrome"	"108.0.0"	"FALSE"	"Windows 10"	"60.74"	"144"	n/a	n/a	n/a	n/a	n/a	n/a	"practice_block_results"	n/a	n/a	n/a	"3060"	"0"	n/a	"NULL"	"NULL"	"NULL"	"<p style='color:rgb(76,175,80);'> Correct Responses: <b>100.00%</b></p><hr><p style='color:rgb(233,30,99);'> Average Response Time: <b>486.17</b> ms.</p>"	n/a	n/a	n/a	n/a	n/a	n/a	n/a	n/a	n/a	n/a
"TRUE"	"preload"	"35"	"96170"	"0.0-4.0-3.0-0.0"	"c3dpjq"	"600"	"1366"	"chrome"	"108.0.0"	"FALSE"	"Windows 10"	"60.74"	"144"	n/a	n/a	n/a	n/a	n/a	n/a	n/a	n/a	n/a	n/a	n/a	"NULL"	"FALSE"	"list()"	"list()"	"list()"	n/a	n/a	n/a	n/a	n/a	n/a	n/a	n/a	n/a	n/a	n/a
n/a	"html-keyboard-response"	"36"	"102756"	"0.0-4.0-3.0-1.0"	"c3dpjq"	"600"	"1366"	"chrome"	"108.0.0"	"FALSE"	"Windows 10"	"60.74"	"144"	n/a	n/a	n/a	n/a	n/a	n/a	n/a	n/a	n/a	n/a	"6585"	"enter"	n/a	"NULL"	"NULL"	"NULL"	"<p><b>Practice</b></p><p>In this part, two red lines will appear side by side.</p><p>Your task is to tell <b>which line is longer</b> in length, regardless of their orientation, as fast as you can, and without making errors.</p><p>Don't get distracted by the orientation of the lines!</p><p>Press <b>the LEFT or the RIGHT arrow</b> to indicate which <b>line is the longer one.</b></p><div style='float: center'><img src='materials/instructions/VerticalHorizontal_Demo.png' height='300'></img><p><img src='utils/answer/answer_leftright_keyboard.PNG' height='150'></img></p><p class='small'>In this example, the correct answer is the <b>LEFT arrow</b>.</p></div><p>Are you ready? <b>Press ENTER to start</b></p>"	n/a	n/a	n/a	n/a	n/a	n/a	n/a	n/a	n/a	n/a
n/a	"html-keyboard-response"	"37"	"104557"	"0.0-4.0-3.0-2.0-0.0"	"c3dpjq"	"600"	"1366"	"chrome"	"108.0.0"	"FALSE"	"Windows 10"	"60.74"	"144"	n/a	n/a	n/a	n/a	n/a	n/a	"fixation"	n/a	n/a	n/a	n/a	"NULL"	n/a	"NULL"	"NULL"	"NULL"	"<p style=\"color: black; font-size: 80px; padding-left: 12%; padding-right: 18%; padding-top: 34%; padding-bottom: 32%\">+</p>"	"1280"	n/a	n/a	n/a	n/a	n/a	n/a	n/a	n/a	n/a
n/a	"image-keyboard-response"	"38"	"105086"	"0.0-4.0-3.0-2.0-1.0"	"c3dpjq"	"600"	"1366"	"chrome"	"108.0.0"	"FALSE"	"Windows 10"	"60.74"	"144"	n/a	n/a	n/a	n/a	n/a	n/a	"Trial"	n/a	n/a	n/a	"527"	"arrowleft"	n/a	"NULL"	"NULL"	"NULL"	"stimuli/VerticalHorizontal_-330000_0.90000.png"	n/a	"VerticalHorizontal"	"arrowleft"	"1801"	"TRUE"	"VerticalHorizontal"	"-33000000000"	"0.9000000000"	"1"	"13"
n/a	"html-keyboard-response"	"39"	"106142"	"0.0-4.0-3.0-2.0-0.1"	"c3dpjq"	"600"	"1366"	"chrome"	"108.0.0"	"FALSE"	"Windows 10"	"60.74"	"144"	n/a	n/a	n/a	n/a	n/a	n/a	"fixation"	n/a	n/a	n/a	n/a	"NULL"	n/a	"NULL"	"NULL"	"NULL"	"<p style=\"color: black; font-size: 80px; padding-left: 3%; padding-right: 24%; padding-top: 30%; padding-bottom: 16%\">+</p>"	"1040"	n/a	n/a	n/a	n/a	n/a	n/a	n/a	n/a	n/a
n/a	"image-keyboard-response"	"40"	"106681"	"0.0-4.0-3.0-2.0-1.1"	"c3dpjq"	"600"	"1366"	"chrome"	"108.0.0"	"FALSE"	"Windows 10"	"60.74"	"144"	n/a	n/a	n/a	n/a	n/a	n/a	"Trial"	n/a	n/a	n/a	"538"	"arrowright"	n/a	"NULL"	"NULL"	"NULL"	"stimuli/VerticalHorizontal_3300000_-0.9000.png"	n/a	"VerticalHorizontal"	"arrowright"	"1056"	"TRUE"	"VerticalHorizontal"	"330000000000"	"-0.900000000"	"1"	"14"
n/a	"html-keyboard-response"	"41"	"107800"	"0.0-4.0-3.0-2.0-0.2"	"c3dpjq"	"600"	"1366"	"chrome"	"108.0.0"	"FALSE"	"Windows 10"	"60.74"	"144"	n/a	n/a	n/a	n/a	n/a	n/a	"fixation"	n/a	n/a	n/a	n/a	"NULL"	n/a	"NULL"	"NULL"	"NULL"	"<p style=\"color: black; font-size: 80px; padding-left: 9%; padding-right: 9%; padding-top: 33%; padding-bottom: 2%\">+</p>"	"1113"	n/a	n/a	n/a	n/a	n/a	n/a	n/a	n/a	n/a
n/a	"image-keyboard-response"	"42"	"108230"	"0.0-4.0-3.0-2.0-1.2"	"c3dpjq"	"600"	"1366"	"chrome"	"108.0.0"	"FALSE"	"Windows 10"	"60.74"	"144"	n/a	n/a	n/a	n/a	n/a	n/a	"Trial"	n/a	n/a	n/a	"429"	"arrowright"	n/a	"NULL"	"NULL"	"NULL"	"stimuli/VerticalHorizontal_0000000_-0.9000.png"	n/a	"VerticalHorizontal"	"arrowright"	"1119"	"TRUE"	"VerticalHorizontal"	"000000000000"	"-0.900000000"	"1"	"15"
n/a	"html-keyboard-response"	"43"	"109557"	"0.0-4.0-3.0-2.0-0.3"	"c3dpjq"	"600"	"1366"	"chrome"	"108.0.0"	"FALSE"	"Windows 10"	"60.74"	"144"	n/a	n/a	n/a	n/a	n/a	n/a	"fixation"	n/a	n/a	n/a	n/a	"NULL"	n/a	"NULL"	"NULL"	"NULL"	"<p style=\"color: black; font-size: 80px; padding-left: 3%; padding-right: 31%; padding-top: 25%; padding-bottom: 50%\">+</p>"	"1313"	n/a	n/a	n/a	n/a	n/a	n/a	n/a	n/a	n/a
n/a	"image-keyboard-response"	"44"	"110047"	"0.0-4.0-3.0-2.0-1.3"	"c3dpjq"	"600"	"1366"	"chrome"	"108.0.0"	"FALSE"	"Windows 10"	"60.74"	"144"	n/a	n/a	n/a	n/a	n/a	n/a	"Trial"	n/a	n/a	n/a	"489"	"arrowleft"	n/a	"NULL"	"NULL"	"NULL"	"stimuli/VerticalHorizontal_3300000_0.90000.png"	n/a	"VerticalHorizontal"	"arrowleft"	"1327"	"TRUE"	"VerticalHorizontal"	"330000000000"	"0.9000000000"	"1"	"16"
n/a	"html-keyboard-response"	"45"	"111300"	"0.0-4.0-3.0-2.0-0.4"	"c3dpjq"	"600"	"1366"	"chrome"	"108.0.0"	"FALSE"	"Windows 10"	"60.74"	"144"	n/a	n/a	n/a	n/a	n/a	n/a	"fixation"	n/a	n/a	n/a	n/a	"NULL"	n/a	"NULL"	"NULL"	"NULL"	"<p style=\"color: black; font-size: 80px; padding-left: 28%; padding-right: 5%; padding-top: 19%; padding-bottom: 21%\">+</p>"	"1242"	n/a	n/a	n/a	n/a	n/a	n/a	n/a	n/a	n/a
n/a	"image-keyboard-response"	"46"	"111661"	"0.0-4.0-3.0-2.0-1.4"	"c3dpjq"	"600"	"1366"	"chrome"	"108.0.0"	"FALSE"	"Windows 10"	"60.74"	"144"	n/a	n/a	n/a	n/a	n/a	n/a	"Trial"	n/a	n/a	n/a	"360"	"arrowright"	n/a	"NULL"	"NULL"	"NULL"	"stimuli/VerticalHorizontal_-330000_-0.9000.png"	n/a	"VerticalHorizontal"	"arrowright"	"1253"	"TRUE"	"VerticalHorizontal"	"-33000000000"	"-0.900000000"	"1"	"17"
n/a	"html-keyboard-response"	"47"	"112815"	"0.0-4.0-3.0-2.0-0.5"	"c3dpjq"	"600"	"1366"	"chrome"	"108.0.0"	"FALSE"	"Windows 10"	"60.74"	"144"	n/a	n/a	n/a	n/a	n/a	n/a	"fixation"	n/a	n/a	n/a	n/a	"NULL"	n/a	"NULL"	"NULL"	"NULL"	"<p style=\"color: black; font-size: 80px; padding-left: 3%; padding-right: 30%; padding-top: 5%; padding-bottom: 28%\">+</p>"	"1146"	n/a	n/a	n/a	n/a	n/a	n/a	n/a	n/a	n/a
n/a	"image-keyboard-response"	"48"	"113211"	"0.0-4.0-3.0-2.0-1.5"	"c3dpjq"	"600"	"1366"	"chrome"	"108.0.0"	"FALSE"	"Windows 10"	"60.74"	"144"	n/a	n/a	n/a	n/a	n/a	n/a	"Trial"	n/a	n/a	n/a	"394"	"arrowleft"	n/a	"NULL"	"NULL"	"NULL"	"stimuli/VerticalHorizontal_0000000_0.90000.png"	n/a	"VerticalHorizontal"	"arrowleft"	"1154"	"TRUE"	"VerticalHorizontal"	"000000000000"	"0.9000000000"	"1"	"18"
n/a	"html-button-response"	"49"	"115685"	"0.0-4.0-3.0-3.0"	"c3dpjq"	"600"	"1366"	"chrome"	"108.0.0"	"FALSE"	"Windows 10"	"60.74"	"144"	n/a	n/a	n/a	n/a	n/a	n/a	"practice_block_results"	n/a	n/a	n/a	"2473"	"0"	n/a	"NULL"	"NULL"	"NULL"	"<p style='color:rgb(76,175,80);'> Correct Responses: <b>100.00%</b></p><hr><p style='color:rgb(233,30,99);'> Average Response Time: <b>456.17</b> ms.</p>"	n/a	n/a	n/a	n/a	n/a	n/a	n/a	n/a	n/a	n/a
n/a	"html-button-response"	"50"	"281749"	"0.0-4.0-4.0"	"c3dpjq"	"600"	"1366"	"chrome"	"108.0.0"	"FALSE"	"Windows 10"	"60.74"	"144"	n/a	n/a	n/a	n/a	n/a	n/a	"practice_debrief"	n/a	n/a	n/a	"165558"	"0"	n/a	"NULL"	"NULL"	"NULL"	"<p><b>TRAINING COMPLETED</b></p><p>In the next phase, there will be more trials, and some might be harder too.<br> Moreover, after each illusion block, a <b>score</b> will be calculated based on speed (time you took to answer) and accuracy (number of errors).</p><p>Try to keep up a high score!</p><br><p>Note that it can be <i>really</i> challenging at times, so you will need to rely on your <b>intuition</b> and gut feeling to answer as fast as you can without making errors.</p><p>Each illusion block will be repeated two times (so that you have the opportunity to improve your score), but the order of the blocks is random.</p><p>Remember, your goal is to be as <b>fast</b> and <b>accurate</b> as possible. Good luck!</p><br>"	n/a	n/a	n/a	n/a	n/a	n/a	n/a	n/a	n/a	n/a
"TRUE"	"preload"	"51"	"281965"	"0.0-5.0-0.0"	"c3dpjq"	"600"	"1366"	"chrome"	"108.0.0"	"FALSE"	"Windows 10"	"60.74"	"144"	n/a	n/a	n/a	n/a	n/a	n/a	n/a	n/a	n/a	n/a	n/a	"NULL"	"FALSE"	"list()"	"list()"	"list()"	n/a	n/a	n/a	n/a	n/a	n/a	n/a	n/a	n/a	n/a	n/a
n/a	"html-keyboard-response"	"52"	"287270"	"0.0-5.0-1.0"	"c3dpjq"	"600"	"1366"	"chrome"	"108.0.0"	"FALSE"	"Windows 10"	"60.74"	"144"	n/a	n/a	n/a	n/a	n/a	n/a	n/a	n/a	n/a	n/a	"5304"	"enter"	n/a	"NULL"	"NULL"	"NULL"	"<p><b>Part 1/6</b></p><p>In this part, two red circles will appear side by side on the screen.</p><p>Your task is to select which <b>red circle is bigger</b> in size as fast as you can, without making errors.</p><p>Don't get distracted by the surrounding black circles around the red circles!</p><p>Press <b>the LEFT or the RIGHT arrow</b> to indicate which is the bigger <b>red circle.</b></p><div style='float: center'><img src='materials/instructions/Ebbinghaus_Demo.png' height='300'></img><p><img src='utils/answer/answer_leftright_keyboard.PNG' height='150'></img></p><p class='small'>In this example, the correct answer is the <b>LEFT arrow</b>.</p></div><p>Are you ready? <b>Press ENTER to start</b></p>"	n/a	n/a	n/a	n/a	n/a	n/a	n/a	n/a	n/a	n/a
n/a	"html-keyboard-response"	"53"	"289152"	"0.0-5.0-2.0-0.0"	"c3dpjq"	"600"	"1366"	"chrome"	"108.0.0"	"FALSE"	"Windows 10"	"60.74"	"144"	n/a	n/a	n/a	n/a	n/a	n/a	"fixation"	n/a	n/a	n/a	n/a	"NULL"	n/a	"NULL"	"NULL"	"NULL"	"<p style=\"color: black; font-size: 80px; padding-left: 36%; padding-right: 5%; padding-top: 25%; padding-bottom: 38%\">+</p>"	"1370"	n/a	n/a	n/a	n/a	n/a	n/a	n/a	n/a	n/a
n/a	"image-keyboard-response"	"54"	"289835"	"0.0-5.0-2.0-1.0"	"c3dpjq"	"600"	"1366"	"chrome"	"108.0.0"	"FALSE"	"Windows 10"	"60.74"	"144"	n/a	n/a	n/a	n/a	n/a	n/a	"Trial"	n/a	n/a	n/a	"682"	"arrowright"	n/a	"NULL"	"NULL"	"NULL"	"stimuli/Ebbinghaus_-0.35714_-0.11071.png"	n/a	"Ebbinghaus"	"arrowright"	"1882"	"TRUE"	"Ebbinghaus"	"-0.357140000"	"-0.110710000"	"1"	"19"
n/a	"html-keyboard-response"	"55"	"290846"	"0.0-5.0-2.0-0.1"	"c3dpjq"	"600"	"1366"	"chrome"	"108.0.0"	"FALSE"	"Windows 10"	"60.74"	"144"	n/a	n/a	n/a	n/a	n/a	n/a	"fixation"	n/a	n/a	n/a	n/a	"NULL"	n/a	"NULL"	"NULL"	"NULL"	"<p style=\"color: black; font-size: 80px; padding-left: 24%; padding-right: 31%; padding-top: 29%; padding-bottom: 0%\">+</p>"	"1007"	n/a	n/a	n/a	n/a	n/a	n/a	n/a	n/a	n/a
n/a	"image-keyboard-response"	"56"	"291469"	"0.0-5.0-2.0-1.1"	"c3dpjq"	"600"	"1366"	"chrome"	"108.0.0"	"FALSE"	"Windows 10"	"60.74"	"144"	n/a	n/a	n/a	n/a	n/a	n/a	"Trial"	n/a	n/a	n/a	"622"	"arrowright"	n/a	"NULL"	"NULL"	"NULL"	"stimuli/Ebbinghaus_-0.87143_-0.15857.png"	n/a	"Ebbinghaus"	"arrowright"	"1011"	"TRUE"	"Ebbinghaus"	"-0.871430000"	"-0.158570000"	"1"	"20"
n/a	"html-keyboard-response"	"57"	"292550"	"0.0-5.0-2.0-0.2"	"c3dpjq"	"600"	"1366"	"chrome"	"108.0.0"	"FALSE"	"Windows 10"	"60.74"	"144"	n/a	n/a	n/a	n/a	n/a	n/a	"fixation"	n/a	n/a	n/a	n/a	"NULL"	n/a	"NULL"	"NULL"	"NULL"	"<p style=\"color: black; font-size: 80px; padding-left: 12%; padding-right: 45%; padding-top: 42%; padding-bottom: 40%\">+</p>"	"1074"	n/a	n/a	n/a	n/a	n/a	n/a	n/a	n/a	n/a
n/a	"image-keyboard-response"	"58"	"293100"	"0.0-5.0-2.0-1.2"	"c3dpjq"	"600"	"1366"	"chrome"	"108.0.0"	"FALSE"	"Windows 10"	"60.74"	"144"	n/a	n/a	n/a	n/a	n/a	n/a	"Trial"	n/a	n/a	n/a	"550"	"arrowleft"	n/a	"NULL"	"NULL"	"NULL"	"stimuli/Ebbinghaus_-0.87143_0.15857.png"	n/a	"Ebbinghaus"	"arrowleft"	"1081"	"TRUE"	"Ebbinghaus"	"-0.871430000"	"0.1585700000"	"1"	"21"
n/a	"html-keyboard-response"	"59"	"294410"	"0.0-5.0-2.0-0.3"	"c3dpjq"	"600"	"1366"	"chrome"	"108.0.0"	"FALSE"	"Windows 10"	"60.74"	"144"	n/a	n/a	n/a	n/a	n/a	n/a	"fixation"	n/a	n/a	n/a	n/a	"NULL"	n/a	"NULL"	"NULL"	"NULL"	"<p style=\"color: black; font-size: 80px; padding-left: 21%; padding-right: 47%; padding-top: 28%; padding-bottom: 45%\">+</p>"	"1300"	n/a	n/a	n/a	n/a	n/a	n/a	n/a	n/a	n/a
n/a	"image-keyboard-response"	"60"	"294926"	"0.0-5.0-2.0-1.3"	"c3dpjq"	"600"	"1366"	"chrome"	"108.0.0"	"FALSE"	"Windows 10"	"60.74"	"144"	n/a	n/a	n/a	n/a	n/a	n/a	"Trial"	n/a	n/a	n/a	"514"	"arrowleft"	n/a	"NULL"	"NULL"	"NULL"	"stimuli/Ebbinghaus_-0.1000_0.21500.png"	n/a	"Ebbinghaus"	"arrowleft"	"1310"	"TRUE"	"Ebbinghaus"	"-0.100000000"	"0.2150000000"	"1"	"22"
n/a	"html-keyboard-response"	"61"	"296310"	"0.0-5.0-2.0-0.4"	"c3dpjq"	"600"	"1366"	"chrome"	"108.0.0"	"FALSE"	"Windows 10"	"60.74"	"144"	n/a	n/a	n/a	n/a	n/a	n/a	"fixation"	n/a	n/a	n/a	n/a	"NULL"	n/a	"NULL"	"NULL"	"NULL"	"<p style=\"color: black; font-size: 80px; padding-left: 36%; padding-right: 38%; padding-top: 29%; padding-bottom: 34%\">+</p>"	"1377"	n/a	n/a	n/a	n/a	n/a	n/a	n/a	n/a	n/a
n/a	"image-keyboard-response"	"62"	"296824"	"0.0-5.0-2.0-1.4"	"c3dpjq"	"600"	"1366"	"chrome"	"108.0.0"	"FALSE"	"Windows 10"	"60.74"	"144"	n/a	n/a	n/a	n/a	n/a	n/a	"Trial"	n/a	n/a	n/a	"513"	"arrowleft"	n/a	"NULL"	"NULL"	"NULL"	"stimuli/Ebbinghaus_-0.35714_0.21500.png"	n/a	"Ebbinghaus"	"arrowleft"	"1384"	"TRUE"	"Ebbinghaus"	"-0.357140000"	"0.2150000000"	"1"	"23"
n/a	"html-keyboard-response"	"63"	"298083"	"0.0-5.0-2.0-0.5"	"c3dpjq"	"600"	"1366"	"chrome"	"108.0.0"	"FALSE"	"Windows 10"	"60.74"	"144"	n/a	n/a	n/a	n/a	n/a	n/a	"fixation"	n/a	n/a	n/a	n/a	"NULL"	n/a	"NULL"	"NULL"	"NULL"	"<p style=\"color: black; font-size: 80px; padding-left: 35%; padding-right: 49%; padding-top: 46%; padding-bottom: 44%\">+</p>"	"1238"	n/a	n/a	n/a	n/a	n/a	n/a	n/a	n/a	n/a
n/a	"image-keyboard-response"	"64"	"298651"	"0.0-5.0-2.0-1.5"	"c3dpjq"	"600"	"1366"	"chrome"	"108.0.0"	"FALSE"	"Windows 10"	"60.74"	"144"	n/a	n/a	n/a	n/a	n/a	n/a	"Trial"	n/a	n/a	n/a	"567"	"arrowleft"	n/a	"NULL"	"NULL"	"NULL"	"stimuli/Ebbinghaus_-0.87143_0.11071.png"	n/a	"Ebbinghaus"	"arrowleft"	"1259"	"TRUE"	"Ebbinghaus"	"-0.871430000"	"0.1107100000"	"1"	"24"
n/a	"html-keyboard-response"	"65"	"299873"	"0.0-5.0-2.0-0.6"	"c3dpjq"	"600"	"1366"	"chrome"	"108.0.0"	"FALSE"	"Windows 10"	"60.74"	"144"	n/a	n/a	n/a	n/a	n/a	n/a	"fixation"	n/a	n/a	n/a	n/a	"NULL"	n/a	"NULL"	"NULL"	"NULL"	"<p style=\"color: black; font-size: 80px; padding-left: 25%; padding-right: 12%; padding-top: 25%; padding-bottom: 13%\">+</p>"	"1208"	n/a	n/a	n/a	n/a	n/a	n/a	n/a	n/a	n/a
n/a	"image-keyboard-response"	"66"	"300576"	"0.0-5.0-2.0-1.6"	"c3dpjq"	"600"	"1366"	"chrome"	"108.0.0"	"FALSE"	"Windows 10"	"60.74"	"144"	n/a	n/a	n/a	n/a	n/a	n/a	"Trial"	n/a	n/a	n/a	"702"	"arrowright"	n/a	"NULL"	"NULL"	"NULL"	"stimuli/Ebbinghaus_-0.1000_-0.15857.png"	n/a	"Ebbinghaus"	"arrowright"	"1222"	"TRUE"	"Ebbinghaus"	"-0.100000000"	"-0.158570000"	"1"	"25"
n/a	"html-keyboard-response"	"67"	"301691"	"0.0-5.0-2.0-0.7"	"c3dpjq"	"600"	"1366"	"chrome"	"108.0.0"	"FALSE"	"Windows 10"	"60.74"	"144"	n/a	n/a	n/a	n/a	n/a	n/a	"fixation"	n/a	n/a	n/a	n/a	"NULL"	n/a	"NULL"	"NULL"	"NULL"	"<p style=\"color: black; font-size: 80px; padding-left: 14%; padding-right: 21%; padding-top: 4%; padding-bottom: 18%\">+</p>"	"1088"	n/a	n/a	n/a	n/a	n/a	n/a	n/a	n/a	n/a
n/a	"image-keyboard-response"	"68"	"302578"	"0.0-5.0-2.0-1.7"	"c3dpjq"	"600"	"1366"	"chrome"	"108.0.0"	"FALSE"	"Windows 10"	"60.74"	"144"	n/a	n/a	n/a	n/a	n/a	n/a	"Trial"	n/a	n/a	n/a	"886"	"arrowleft"	n/a	"NULL"	"NULL"	"NULL"	"stimuli/Ebbinghaus_0.87143_-0.2150.png"	n/a	"Ebbinghaus"	"arrowright"	"1115"	"FALSE"	"Ebbinghaus"	"0.8714300000"	"-0.215000000"	"1"	"26"
n/a	"html-keyboard-response"	"69"	"303627"	"0.0-5.0-2.0-0.8"	"c3dpjq"	"600"	"1366"	"chrome"	"108.0.0"	"FALSE"	"Windows 10"	"60.74"	"144"	n/a	n/a	n/a	n/a	n/a	n/a	"fixation"	n/a	n/a	n/a	n/a	"NULL"	n/a	"NULL"	"NULL"	"NULL"	"<p style=\"color: black; font-size: 80px; padding-left: 3%; padding-right: 21%; padding-top: 11%; padding-bottom: 5%\">+</p>"	"1027"	n/a	n/a	n/a	n/a	n/a	n/a	n/a	n/a	n/a
n/a	"image-keyboard-response"	"70"	"304202"	"0.0-5.0-2.0-1.8"	"c3dpjq"	"600"	"1366"	"chrome"	"108.0.0"	"FALSE"	"Windows 10"	"60.74"	"144"	n/a	n/a	n/a	n/a	n/a	n/a	"Trial"	n/a	n/a	n/a	"574"	"arrowleft"	n/a	"NULL"	"NULL"	"NULL"	"stimuli/Ebbinghaus_-0.61429_0.21500.png"	n/a	"Ebbinghaus"	"arrowleft"	"1049"	"TRUE"	"Ebbinghaus"	"-0.614290000"	"0.2150000000"	"1"	"27"
n/a	"html-keyboard-response"	"71"	"305371"	"0.0-5.0-2.0-0.9"	"c3dpjq"	"600"	"1366"	"chrome"	"108.0.0"	"FALSE"	"Windows 10"	"60.74"	"144"	n/a	n/a	n/a	n/a	n/a	n/a	"fixation"	n/a	n/a	n/a	n/a	"NULL"	n/a	"NULL"	"NULL"	"NULL"	"<p style=\"color: black; font-size: 80px; padding-left: 41%; padding-right: 17%; padding-top: 10%; padding-bottom: 43%\">+</p>"	"1150"	n/a	n/a	n/a	n/a	n/a	n/a	n/a	n/a	n/a
n/a	"image-keyboard-response"	"72"	"305879"	"0.0-5.0-2.0-1.9"	"c3dpjq"	"600"	"1366"	"chrome"	"108.0.0"	"FALSE"	"Windows 10"	"60.74"	"144"	n/a	n/a	n/a	n/a	n/a	n/a	"Trial"	n/a	n/a	n/a	"507"	"arrowleft"	n/a	"NULL"	"NULL"	"NULL"	"stimuli/Ebbinghaus_0.61429_0.11071.png"	n/a	"Ebbinghaus"	"arrowleft"	"1169"	"TRUE"	"Ebbinghaus"	"0.6142900000"	"0.1107100000"	"1"	"28"
n/a	"html-keyboard-response"	"73"	"307198"	"0.0-5.0-2.0-0.10"	"c3dpjq"	"600"	"1366"	"chrome"	"108.0.0"	"FALSE"	"Windows 10"	"60.74"	"144"	n/a	n/a	n/a	n/a	n/a	n/a	"fixation"	n/a	n/a	n/a	n/a	"NULL"	n/a	"NULL"	"NULL"	"NULL"	"<p style=\"color: black; font-size: 80px; padding-left: 45%; padding-right: 27%; padding-top: 27%; padding-bottom: 28%\">+</p>"	"1316"	n/a	n/a	n/a	n/a	n/a	n/a	n/a	n/a	n/a
n/a	"image-keyboard-response"	"74"	"307936"	"0.0-5.0-2.0-1.10"	"c3dpjq"	"600"	"1366"	"chrome"	"108.0.0"	"FALSE"	"Windows 10"	"60.74"	"144"	n/a	n/a	n/a	n/a	n/a	n/a	"Trial"	n/a	n/a	n/a	"737"	"arrowleft"	n/a	"NULL"	"NULL"	"NULL"	"stimuli/Ebbinghaus_0.10000_0.11071.png"	n/a	"Ebbinghaus"	"arrowleft"	"1319"	"TRUE"	"Ebbinghaus"	"0.1000000000"	"0.1107100000"	"1"	"29"
n/a	"html-keyboard-response"	"75"	"309408"	"0.0-5.0-2.0-0.11"	"c3dpjq"	"600"	"1366"	"chrome"	"108.0.0"	"FALSE"	"Windows 10"	"60.74"	"144"	n/a	n/a	n/a	n/a	n/a	n/a	"fixation"	n/a	n/a	n/a	n/a	"NULL"	n/a	"NULL"	"NULL"	"NULL"	"<p style=\"color: black; font-size: 80px; padding-left: 2%; padding-right: 10%; padding-top: 5%; padding-bottom: 0%\">+</p>"	"1455"	n/a	n/a	n/a	n/a	n/a	n/a	n/a	n/a	n/a
n/a	"image-keyboard-response"	"76"	"310056"	"0.0-5.0-2.0-1.11"	"c3dpjq"	"600"	"1366"	"chrome"	"108.0.0"	"FALSE"	"Windows 10"	"60.74"	"144"	n/a	n/a	n/a	n/a	n/a	n/a	"Trial"	n/a	n/a	n/a	"648"	"arrowleft"	n/a	"NULL"	"NULL"	"NULL"	"stimuli/Ebbinghaus_0.61429_0.28000.png"	n/a	"Ebbinghaus"	"arrowleft"	"1472"	"TRUE"	"Ebbinghaus"	"0.6142900000"	"0.2800000000"	"1"	"30"
n/a	"html-keyboard-response"	"77"	"311509"	"0.0-5.0-2.0-0.12"	"c3dpjq"	"600"	"1366"	"chrome"	"108.0.0"	"FALSE"	"Windows 10"	"60.74"	"144"	n/a	n/a	n/a	n/a	n/a	n/a	"fixation"	n/a	n/a	n/a	n/a	"NULL"	n/a	"NULL"	"NULL"	"NULL"	"<p style=\"color: black; font-size: 80px; padding-left: 18%; padding-right: 1%; padding-top: 48%; padding-bottom: 12%\">+</p>"	"1445"	n/a	n/a	n/a	n/a	n/a	n/a	n/a	n/a	n/a
n/a	"image-keyboard-response"	"78"	"311998"	"0.0-5.0-2.0-1.12"	"c3dpjq"	"600"	"1366"	"chrome"	"108.0.0"	"FALSE"	"Windows 10"	"60.74"	"144"	n/a	n/a	n/a	n/a	n/a	n/a	"Trial"	n/a	n/a	n/a	"488"	"arrowright"	n/a	"NULL"	"NULL"	"NULL"	"stimuli/Ebbinghaus_0.35714_-0.2800.png"	n/a	"Ebbinghaus"	"arrowright"	"1453"	"TRUE"	"Ebbinghaus"	"0.3571400000"	"-0.280000000"	"1"	"31"
n/a	"html-keyboard-response"	"79"	"313122"	"0.0-5.0-2.0-0.13"	"c3dpjq"	"600"	"1366"	"chrome"	"108.0.0"	"FALSE"	"Windows 10"	"60.74"	"144"	n/a	n/a	n/a	n/a	n/a	n/a	"fixation"	n/a	n/a	n/a	n/a	"NULL"	n/a	"NULL"	"NULL"	"NULL"	"<p style=\"color: black; font-size: 80px; padding-left: 29%; padding-right: 42%; padding-top: 23%; padding-bottom: 22%\">+</p>"	"1104"	n/a	n/a	n/a	n/a	n/a	n/a	n/a	n/a	n/a
n/a	"image-keyboard-response"	"80"	"313718"	"0.0-5.0-2.0-1.13"	"c3dpjq"	"600"	"1366"	"chrome"	"108.0.0"	"FALSE"	"Windows 10"	"60.74"	"144"	n/a	n/a	n/a	n/a	n/a	n/a	"Trial"	n/a	n/a	n/a	"595"	"arrowleft"	n/a	"NULL"	"NULL"	"NULL"	"stimuli/Ebbinghaus_-0.35714_0.11071.png"	n/a	"Ebbinghaus"	"arrowleft"	"1124"	"TRUE"	"Ebbinghaus"	"-0.357140000"	"0.1107100000"	"1"	"32"
n/a	"html-keyboard-response"	"81"	"315169"	"0.0-5.0-2.0-0.14"	"c3dpjq"	"600"	"1366"	"chrome"	"108.0.0"	"FALSE"	"Windows 10"	"60.74"	"144"	n/a	n/a	n/a	n/a	n/a	n/a	"fixation"	n/a	n/a	n/a	n/a	"NULL"	n/a	"NULL"	"NULL"	"NULL"	"<p style=\"color: black; font-size: 80px; padding-left: 45%; padding-right: 48%; padding-top: 36%; padding-bottom: 31%\">+</p>"	"1433"	n/a	n/a	n/a	n/a	n/a	n/a	n/a	n/a	n/a
n/a	"image-keyboard-response"	"82"	"315688"	"0.0-5.0-2.0-1.14"	"c3dpjq"	"600"	"1366"	"chrome"	"108.0.0"	"FALSE"	"Windows 10"	"60.74"	"144"	n/a	n/a	n/a	n/a	n/a	n/a	"Trial"	n/a	n/a	n/a	"517"	"arrowright"	n/a	"NULL"	"NULL"	"NULL"	"stimuli/Ebbinghaus_-0.87143_-0.11071.png"	n/a	"Ebbinghaus"	"arrowright"	"1451"	"TRUE"	"Ebbinghaus"	"-0.871430000"	"-0.110710000"	"1"	"33"
n/a	"html-keyboard-response"	"83"	"317042"	"0.0-5.0-2.0-0.15"	"c3dpjq"	"600"	"1366"	"chrome"	"108.0.0"	"FALSE"	"Windows 10"	"60.74"	"144"	n/a	n/a	n/a	n/a	n/a	n/a	"fixation"	n/a	n/a	n/a	n/a	"NULL"	n/a	"NULL"	"NULL"	"NULL"	"<p style=\"color: black; font-size: 80px; padding-left: 44%; padding-right: 24%; padding-top: 31%; padding-bottom: 35%\">+</p>"	"1335"	n/a	n/a	n/a	n/a	n/a	n/a	n/a	n/a	n/a
n/a	"image-keyboard-response"	"84"	"317585"	"0.0-5.0-2.0-1.15"	"c3dpjq"	"600"	"1366"	"chrome"	"108.0.0"	"FALSE"	"Windows 10"	"60.74"	"144"	n/a	n/a	n/a	n/a	n/a	n/a	"Trial"	n/a	n/a	n/a	"542"	"arrowright"	n/a	"NULL"	"NULL"	"NULL"	"stimuli/Ebbinghaus_-0.35714_-0.2800.png"	n/a	"Ebbinghaus"	"arrowright"	"1354"	"TRUE"	"Ebbinghaus"	"-0.357140000"	"-0.280000000"	"1"	"34"
n/a	"html-keyboard-response"	"85"	"319010"	"0.0-5.0-2.0-0.16"	"c3dpjq"	"600"	"1366"	"chrome"	"108.0.0"	"FALSE"	"Windows 10"	"60.74"	"144"	n/a	n/a	n/a	n/a	n/a	n/a	"fixation"	n/a	n/a	n/a	n/a	"NULL"	n/a	"NULL"	"NULL"	"NULL"	"<p style=\"color: black; font-size: 80px; padding-left: 28%; padding-right: 26%; padding-top: 45%; padding-bottom: 47%\">+</p>"	"1409"	n/a	n/a	n/a	n/a	n/a	n/a	n/a	n/a	n/a
n/a	"image-keyboard-response"	"86"	"319738"	"0.0-5.0-2.0-1.16"	"c3dpjq"	"600"	"1366"	"chrome"	"108.0.0"	"FALSE"	"Windows 10"	"60.74"	"144"	n/a	n/a	n/a	n/a	n/a	n/a	"Trial"	n/a	n/a	n/a	"727"	"arrowright"	n/a	"NULL"	"NULL"	"NULL"	"stimuli/Ebbinghaus_0.10000_-0.11071.png"	n/a	"Ebbinghaus"	"arrowright"	"1425"	"TRUE"	"Ebbinghaus"	"0.1000000000"	"-0.110710000"	"1"	"35"
n/a	"html-keyboard-response"	"87"	"320946"	"0.0-5.0-2.0-0.17"	"c3dpjq"	"600"	"1366"	"chrome"	"108.0.0"	"FALSE"	"Windows 10"	"60.74"	"144"	n/a	n/a	n/a	n/a	n/a	n/a	"fixation"	n/a	n/a	n/a	n/a	"NULL"	n/a	"NULL"	"NULL"	"NULL"	"<p style=\"color: black; font-size: 80px; padding-left: 41%; padding-right: 25%; padding-top: 9%; padding-bottom: 43%\">+</p>"	"1200"	n/a	n/a	n/a	n/a	n/a	n/a	n/a	n/a	n/a
n/a	"image-keyboard-response"	"88"	"321495"	"0.0-5.0-2.0-1.17"	"c3dpjq"	"600"	"1366"	"chrome"	"108.0.0"	"FALSE"	"Windows 10"	"60.74"	"144"	n/a	n/a	n/a	n/a	n/a	n/a	"Trial"	n/a	n/a	n/a	"547"	"arrowleft"	n/a	"NULL"	"NULL"	"NULL"	"stimuli/Ebbinghaus_-0.35714_0.15857.png"	n/a	"Ebbinghaus"	"arrowleft"	"1208"	"TRUE"	"Ebbinghaus"	"-0.357140000"	"0.1585700000"	"1"	"36"
n/a	"html-keyboard-response"	"89"	"322989"	"0.0-5.0-2.0-0.18"	"c3dpjq"	"600"	"1366"	"chrome"	"108.0.0"	"FALSE"	"Windows 10"	"60.74"	"144"	n/a	n/a	n/a	n/a	n/a	n/a	"fixation"	n/a	n/a	n/a	n/a	"NULL"	n/a	"NULL"	"NULL"	"NULL"	"<p style=\"color: black; font-size: 80px; padding-left: 12%; padding-right: 7%; padding-top: 14%; padding-bottom: 27%\">+</p>"	"1482"	n/a	n/a	n/a	n/a	n/a	n/a	n/a	n/a	n/a
n/a	"image-keyboard-response"	"90"	"323615"	"0.0-5.0-2.0-1.18"	"c3dpjq"	"600"	"1366"	"chrome"	"108.0.0"	"FALSE"	"Windows 10"	"60.74"	"144"	n/a	n/a	n/a	n/a	n/a	n/a	"Trial"	n/a	n/a	n/a	"625"	"arrowright"	n/a	"NULL"	"NULL"	"NULL"	"stimuli/Ebbinghaus_0.87143_0.11071.png"	n/a	"Ebbinghaus"	"arrowleft"	"1494"	"FALSE"	"Ebbinghaus"	"0.8714300000"	"0.1107100000"	"1"	"37"
n/a	"html-keyboard-response"	"91"	"324694"	"0.0-5.0-2.0-0.19"	"c3dpjq"	"600"	"1366"	"chrome"	"108.0.0"	"FALSE"	"Windows 10"	"60.74"	"144"	n/a	n/a	n/a	n/a	n/a	n/a	"fixation"	n/a	n/a	n/a	n/a	"NULL"	n/a	"NULL"	"NULL"	"NULL"	"<p style=\"color: black; font-size: 80px; padding-left: 16%; padding-right: 27%; padding-top: 35%; padding-bottom: 18%\">+</p>"	"1065"	n/a	n/a	n/a	n/a	n/a	n/a	n/a	n/a	n/a
n/a	"image-keyboard-response"	"92"	"325195"	"0.0-5.0-2.0-1.19"	"c3dpjq"	"600"	"1366"	"chrome"	"108.0.0"	"FALSE"	"Windows 10"	"60.74"	"144"	n/a	n/a	n/a	n/a	n/a	n/a	"Trial"	n/a	n/a	n/a	"500"	"arrowright"	n/a	"NULL"	"NULL"	"NULL"	"stimuli/Ebbinghaus_-0.1000_-0.2150.png"	n/a	"Ebbinghaus"	"arrowright"	"1079"	"TRUE"	"Ebbinghaus"	"-0.100000000"	"-0.215000000"	"1"	"38"
n/a	"html-keyboard-response"	"93"	"326232"	"0.0-5.0-2.0-0.20"	"c3dpjq"	"600"	"1366"	"chrome"	"108.0.0"	"FALSE"	"Windows 10"	"60.74"	"144"	n/a	n/a	n/a	n/a	n/a	n/a	"fixation"	n/a	n/a	n/a	n/a	"NULL"	n/a	"NULL"	"NULL"	"NULL"	"<p style=\"color: black; font-size: 80px; padding-left: 6%; padding-right: 48%; padding-top: 26%; padding-bottom: 33%\">+</p>"	"1025"	n/a	n/a	n/a	n/a	n/a	n/a	n/a	n/a	n/a
n/a	"image-keyboard-response"	"94"	"326790"	"0.0-5.0-2.0-1.20"	"c3dpjq"	"600"	"1366"	"chrome"	"108.0.0"	"FALSE"	"Windows 10"	"60.74"	"144"	n/a	n/a	n/a	n/a	n/a	n/a	"Trial"	n/a	n/a	n/a	"557"	"arrowleft"	n/a	"NULL"	"NULL"	"NULL"	"stimuli/Ebbinghaus_-0.61429_0.11071.png"	n/a	"Ebbinghaus"	"arrowleft"	"1037"	"TRUE"	"Ebbinghaus"	"-0.614290000"	"0.1107100000"	"1"	"39"
n/a	"html-keyboard-response"	"95"	"328140"	"0.0-5.0-2.0-0.21"	"c3dpjq"	"600"	"1366"	"chrome"	"108.0.0"	"FALSE"	"Windows 10"	"60.74"	"144"	n/a	n/a	n/a	n/a	n/a	n/a	"fixation"	n/a	n/a	n/a	n/a	"NULL"	n/a	"NULL"	"NULL"	"NULL"	"<p style=\"color: black; font-size: 80px; padding-left: 6%; padding-right: 20%; padding-top: 27%; padding-bottom: 23%\">+</p>"	"1338"	n/a	n/a	n/a	n/a	n/a	n/a	n/a	n/a	n/a
n/a	"image-keyboard-response"	"96"	"328825"	"0.0-5.0-2.0-1.21"	"c3dpjq"	"600"	"1366"	"chrome"	"108.0.0"	"FALSE"	"Windows 10"	"60.74"	"144"	n/a	n/a	n/a	n/a	n/a	n/a	"Trial"	n/a	n/a	n/a	"684"	"arrowright"	n/a	"NULL"	"NULL"	"NULL"	"stimuli/Ebbinghaus_0.87143_-0.11071.png"	n/a	"Ebbinghaus"	"arrowright"	"1350"	"TRUE"	"Ebbinghaus"	"0.8714300000"	"-0.110710000"	"1"	"40"
n/a	"html-keyboard-response"	"97"	"330316"	"0.0-5.0-2.0-0.22"	"c3dpjq"	"600"	"1366"	"chrome"	"108.0.0"	"FALSE"	"Windows 10"	"60.74"	"144"	n/a	n/a	n/a	n/a	n/a	n/a	"fixation"	n/a	n/a	n/a	n/a	"NULL"	n/a	"NULL"	"NULL"	"NULL"	"<p style=\"color: black; font-size: 80px; padding-left: 41%; padding-right: 48%; padding-top: 17%; padding-bottom: 34%\">+</p>"	"1478"	n/a	n/a	n/a	n/a	n/a	n/a	n/a	n/a	n/a
n/a	"image-keyboard-response"	"98"	"330908"	"0.0-5.0-2.0-1.22"	"c3dpjq"	"600"	"1366"	"chrome"	"108.0.0"	"FALSE"	"Windows 10"	"60.74"	"144"	n/a	n/a	n/a	n/a	n/a	n/a	"Trial"	n/a	n/a	n/a	"591"	"arrowright"	n/a	"NULL"	"NULL"	"NULL"	"stimuli/Ebbinghaus_-0.87143_-0.2800.png"	n/a	"Ebbinghaus"	"arrowright"	"1491"	"TRUE"	"Ebbinghaus"	"-0.871430000"	"-0.280000000"	"1"	"41"
n/a	"html-keyboard-response"	"99"	"332285"	"0.0-5.0-2.0-0.23"	"c3dpjq"	"600"	"1366"	"chrome"	"108.0.0"	"FALSE"	"Windows 10"	"60.74"	"144"	n/a	n/a	n/a	n/a	n/a	n/a	"fixation"	n/a	n/a	n/a	n/a	"NULL"	n/a	"NULL"	"NULL"	"NULL"	"<p style=\"color: black; font-size: 80px; padding-left: 45%; padding-right: 2%; padding-top: 32%; padding-bottom: 30%\">+</p>"	"1361"	n/a	n/a	n/a	n/a	n/a	n/a	n/a	n/a	n/a
n/a	"image-keyboard-response"	"100"	"332805"	"0.0-5.0-2.0-1.23"	"c3dpjq"	"600"	"1366"	"chrome"	"108.0.0"	"FALSE"	"Windows 10"	"60.74"	"144"	n/a	n/a	n/a	n/a	n/a	n/a	"Trial"	n/a	n/a	n/a	"519"	"arrowleft"	n/a	"NULL"	"NULL"	"NULL"	"stimuli/Ebbinghaus_0.35714_0.15857.png"	n/a	"Ebbinghaus"	"arrowleft"	"1377"	"TRUE"	"Ebbinghaus"	"0.3571400000"	"0.1585700000"	"1"	"42"
n/a	"html-keyboard-response"	"101"	"334158"	"0.0-5.0-2.0-0.24"	"c3dpjq"	"600"	"1366"	"chrome"	"108.0.0"	"FALSE"	"Windows 10"	"60.74"	"144"	n/a	n/a	n/a	n/a	n/a	n/a	"fixation"	n/a	n/a	n/a	n/a	"NULL"	n/a	"NULL"	"NULL"	"NULL"	"<p style=\"color: black; font-size: 80px; padding-left: 38%; padding-right: 19%; padding-top: 49%; padding-bottom: 39%\">+</p>"	"1339"	n/a	n/a	n/a	n/a	n/a	n/a	n/a	n/a	n/a
n/a	"image-keyboard-response"	"102"	"334917"	"0.0-5.0-2.0-1.24"	"c3dpjq"	"600"	"1366"	"chrome"	"108.0.0"	"FALSE"	"Windows 10"	"60.74"	"144"	n/a	n/a	n/a	n/a	n/a	n/a	"Trial"	n/a	n/a	n/a	"757"	"arrowleft"	n/a	"NULL"	"NULL"	"NULL"	"stimuli/Ebbinghaus_0.61429_0.21500.png"	n/a	"Ebbinghaus"	"arrowleft"	"1353"	"TRUE"	"Ebbinghaus"	"0.6142900000"	"0.2150000000"	"1"	"43"
n/a	"html-keyboard-response"	"103"	"335987"	"0.0-5.0-2.0-0.25"	"c3dpjq"	"600"	"1366"	"chrome"	"108.0.0"	"FALSE"	"Windows 10"	"60.74"	"144"	n/a	n/a	n/a	n/a	n/a	n/a	"fixation"	n/a	n/a	n/a	n/a	"NULL"	n/a	"NULL"	"NULL"	"NULL"	"<p style=\"color: black; font-size: 80px; padding-left: 6%; padding-right: 47%; padding-top: 5%; padding-bottom: 29%\">+</p>"	"1053"	n/a	n/a	n/a	n/a	n/a	n/a	n/a	n/a	n/a
n/a	"image-keyboard-response"	"104"	"336437"	"0.0-5.0-2.0-1.25"	"c3dpjq"	"600"	"1366"	"chrome"	"108.0.0"	"FALSE"	"Windows 10"	"60.74"	"144"	n/a	n/a	n/a	n/a	n/a	n/a	"Trial"	n/a	n/a	n/a	"449"	"arrowright"	n/a	"NULL"	"NULL"	"NULL"	"stimuli/Ebbinghaus_0.35714_-0.2150.png"	n/a	"Ebbinghaus"	"arrowright"	"1070"	"TRUE"	"Ebbinghaus"	"0.3571400000"	"-0.215000000"	"1"	"44"
n/a	"html-keyboard-response"	"105"	"337548"	"0.0-5.0-2.0-0.26"	"c3dpjq"	"600"	"1366"	"chrome"	"108.0.0"	"FALSE"	"Windows 10"	"60.74"	"144"	n/a	n/a	n/a	n/a	n/a	n/a	"fixation"	n/a	n/a	n/a	n/a	"NULL"	n/a	"NULL"	"NULL"	"NULL"	"<p style=\"color: black; font-size: 80px; padding-left: 19%; padding-right: 43%; padding-top: 20%; padding-bottom: 14%\">+</p>"	"1102"	n/a	n/a	n/a	n/a	n/a	n/a	n/a	n/a	n/a
n/a	"image-keyboard-response"	"106"	"338012"	"0.0-5.0-2.0-1.26"	"c3dpjq"	"600"	"1366"	"chrome"	"108.0.0"	"FALSE"	"Windows 10"	"60.74"	"144"	n/a	n/a	n/a	n/a	n/a	n/a	"Trial"	n/a	n/a	n/a	"463"	"arrowright"	n/a	"NULL"	"NULL"	"NULL"	"stimuli/Ebbinghaus_-0.87143_-0.2150.png"	n/a	"Ebbinghaus"	"arrowright"	"1111"	"TRUE"	"Ebbinghaus"	"-0.871430000"	"-0.215000000"	"1"	"45"
n/a	"html-keyboard-response"	"107"	"339269"	"0.0-5.0-2.0-0.27"	"c3dpjq"	"600"	"1366"	"chrome"	"108.0.0"	"FALSE"	"Windows 10"	"60.74"	"144"	n/a	n/a	n/a	n/a	n/a	n/a	"fixation"	n/a	n/a	n/a	n/a	"NULL"	n/a	"NULL"	"NULL"	"NULL"	"<p style=\"color: black; font-size: 80px; padding-left: 19%; padding-right: 0%; padding-top: 35%; padding-bottom: 6%\">+</p>"	"1242"	n/a	n/a	n/a	n/a	n/a	n/a	n/a	n/a	n/a
n/a	"image-keyboard-response"	"108"	"339774"	"0.0-5.0-2.0-1.27"	"c3dpjq"	"600"	"1366"	"chrome"	"108.0.0"	"FALSE"	"Windows 10"	"60.74"	"144"	n/a	n/a	n/a	n/a	n/a	n/a	"Trial"	n/a	n/a	n/a	"504"	"arrowright"	n/a	"NULL"	"NULL"	"NULL"	"stimuli/Ebbinghaus_0.87143_-0.2800.png"	n/a	"Ebbinghaus"	"arrowright"	"1257"	"TRUE"	"Ebbinghaus"	"0.8714300000"	"-0.280000000"	"1"	"46"
n/a	"html-keyboard-response"	"109"	"340962"	"0.0-5.0-2.0-0.28"	"c3dpjq"	"600"	"1366"	"chrome"	"108.0.0"	"FALSE"	"Windows 10"	"60.74"	"144"	n/a	n/a	n/a	n/a	n/a	n/a	"fixation"	n/a	n/a	n/a	n/a	"NULL"	n/a	"NULL"	"NULL"	"NULL"	"<p style=\"color: black; font-size: 80px; padding-left: 12%; padding-right: 7%; padding-top: 43%; padding-bottom: 16%\">+</p>"	"1181"	n/a	n/a	n/a	n/a	n/a	n/a	n/a	n/a	n/a
n/a	"image-keyboard-response"	"110"	"341649"	"0.0-5.0-2.0-1.28"	"c3dpjq"	"600"	"1366"	"chrome"	"108.0.0"	"FALSE"	"Windows 10"	"60.74"	"144"	n/a	n/a	n/a	n/a	n/a	n/a	"Trial"	n/a	n/a	n/a	"683"	"arrowleft"	n/a	"NULL"	"NULL"	"NULL"	"stimuli/Ebbinghaus_0.35714_-0.11071.png"	n/a	"Ebbinghaus"	"arrowright"	"1188"	"FALSE"	"Ebbinghaus"	"0.3571400000"	"-0.110710000"	"1"	"47"
n/a	"html-keyboard-response"	"111"	"342729"	"0.0-5.0-2.0-0.29"	"c3dpjq"	"600"	"1366"	"chrome"	"108.0.0"	"FALSE"	"Windows 10"	"60.74"	"144"	n/a	n/a	n/a	n/a	n/a	n/a	"fixation"	n/a	n/a	n/a	n/a	"NULL"	n/a	"NULL"	"NULL"	"NULL"	"<p style=\"color: black; font-size: 80px; padding-left: 4%; padding-right: 25%; padding-top: 2%; padding-bottom: 24%\">+</p>"	"1062"	n/a	n/a	n/a	n/a	n/a	n/a	n/a	n/a	n/a
n/a	"image-keyboard-response"	"112"	"343252"	"0.0-5.0-2.0-1.29"	"c3dpjq"	"600"	"1366"	"chrome"	"108.0.0"	"FALSE"	"Windows 10"	"60.74"	"144"	n/a	n/a	n/a	n/a	n/a	n/a	"Trial"	n/a	n/a	n/a	"522"	"arrowright"	n/a	"NULL"	"NULL"	"NULL"	"stimuli/Ebbinghaus_-0.61429_-0.11071.png"	n/a	"Ebbinghaus"	"arrowright"	"1080"	"TRUE"	"Ebbinghaus"	"-0.614290000"	"-0.110710000"	"1"	"48"
n/a	"html-keyboard-response"	"113"	"344667"	"0.0-5.0-2.0-0.30"	"c3dpjq"	"600"	"1366"	"chrome"	"108.0.0"	"FALSE"	"Windows 10"	"60.74"	"144"	n/a	n/a	n/a	n/a	n/a	n/a	"fixation"	n/a	n/a	n/a	n/a	"NULL"	n/a	"NULL"	"NULL"	"NULL"	"<p style=\"color: black; font-size: 80px; padding-left: 3%; padding-right: 21%; padding-top: 49%; padding-bottom: 17%\">+</p>"	"1400"	n/a	n/a	n/a	n/a	n/a	n/a	n/a	n/a	n/a
n/a	"image-keyboard-response"	"114"	"345204"	"0.0-5.0-2.0-1.30"	"c3dpjq"	"600"	"1366"	"chrome"	"108.0.0"	"FALSE"	"Windows 10"	"60.74"	"144"	n/a	n/a	n/a	n/a	n/a	n/a	"Trial"	n/a	n/a	n/a	"536"	"arrowright"	n/a	"NULL"	"NULL"	"NULL"	"stimuli/Ebbinghaus_0.10000_-0.15857.png"	n/a	"Ebbinghaus"	"arrowright"	"1415"	"TRUE"	"Ebbinghaus"	"0.1000000000"	"-0.158570000"	"1"	"49"
n/a	"html-keyboard-response"	"115"	"346696"	"0.0-5.0-2.0-0.31"	"c3dpjq"	"600"	"1366"	"chrome"	"108.0.0"	"FALSE"	"Windows 10"	"60.74"	"144"	n/a	n/a	n/a	n/a	n/a	n/a	"fixation"	n/a	n/a	n/a	n/a	"NULL"	n/a	"NULL"	"NULL"	"NULL"	"<p style=\"color: black; font-size: 80px; padding-left: 28%; padding-right: 43%; padding-top: 40%; padding-bottom: 23%\">+</p>"	"1488"	n/a	n/a	n/a	n/a	n/a	n/a	n/a	n/a	n/a
n/a	"image-keyboard-response"	"116"	"347226"	"0.0-5.0-2.0-1.31"	"c3dpjq"	"600"	"1366"	"chrome"	"108.0.0"	"FALSE"	"Windows 10"	"60.74"	"144"	n/a	n/a	n/a	n/a	n/a	n/a	"Trial"	n/a	n/a	n/a	"529"	"arrowleft"	n/a	"NULL"	"NULL"	"NULL"	"stimuli/Ebbinghaus_-0.87143_0.28000.png"	n/a	"Ebbinghaus"	"arrowleft"	"1492"	"TRUE"	"Ebbinghaus"	"-0.871430000"	"0.2800000000"	"1"	"50"
n/a	"html-keyboard-response"	"117"	"348486"	"0.0-5.0-2.0-0.32"	"c3dpjq"	"600"	"1366"	"chrome"	"108.0.0"	"FALSE"	"Windows 10"	"60.74"	"144"	n/a	n/a	n/a	n/a	n/a	n/a	"fixation"	n/a	n/a	n/a	n/a	"NULL"	n/a	"NULL"	"NULL"	"NULL"	"<p style=\"color: black; font-size: 80px; padding-left: 10%; padding-right: 16%; padding-top: 47%; padding-bottom: 7%\">+</p>"	"1255"	n/a	n/a	n/a	n/a	n/a	n/a	n/a	n/a	n/a
n/a	"image-keyboard-response"	"118"	"349025"	"0.0-5.0-2.0-1.32"	"c3dpjq"	"600"	"1366"	"chrome"	"108.0.0"	"FALSE"	"Windows 10"	"60.74"	"144"	n/a	n/a	n/a	n/a	n/a	n/a	"Trial"	n/a	n/a	n/a	"538"	"arrowright"	n/a	"NULL"	"NULL"	"NULL"	"stimuli/Ebbinghaus_-0.61429_-0.2150.png"	n/a	"Ebbinghaus"	"arrowright"	"1260"	"TRUE"	"Ebbinghaus"	"-0.614290000"	"-0.215000000"	"1"	"51"
n/a	"html-keyboard-response"	"119"	"350207"	"0.0-5.0-2.0-0.33"	"c3dpjq"	"600"	"1366"	"chrome"	"108.0.0"	"FALSE"	"Windows 10"	"60.74"	"144"	n/a	n/a	n/a	n/a	n/a	n/a	"fixation"	n/a	n/a	n/a	n/a	"NULL"	n/a	"NULL"	"NULL"	"NULL"	"<p style=\"color: black; font-size: 80px; padding-left: 48%; padding-right: 48%; padding-top: 41%; padding-bottom: 35%\">+</p>"	"1170"	n/a	n/a	n/a	n/a	n/a	n/a	n/a	n/a	n/a
n/a	"image-keyboard-response"	"120"	"350941"	"0.0-5.0-2.0-1.33"	"c3dpjq"	"600"	"1366"	"chrome"	"108.0.0"	"FALSE"	"Windows 10"	"60.74"	"144"	n/a	n/a	n/a	n/a	n/a	n/a	"Trial"	n/a	n/a	n/a	"728"	"arrowright"	n/a	"NULL"	"NULL"	"NULL"	"stimuli/Ebbinghaus_0.61429_-0.15857.png"	n/a	"Ebbinghaus"	"arrowright"	"1182"	"TRUE"	"Ebbinghaus"	"0.6142900000"	"-0.158570000"	"1"	"52"
n/a	"html-keyboard-response"	"121"	"352272"	"0.0-5.0-2.0-0.34"	"c3dpjq"	"600"	"1366"	"chrome"	"108.0.0"	"FALSE"	"Windows 10"	"60.74"	"144"	n/a	n/a	n/a	n/a	n/a	n/a	"fixation"	n/a	n/a	n/a	n/a	"NULL"	n/a	"NULL"	"NULL"	"NULL"	"<p style=\"color: black; font-size: 80px; padding-left: 37%; padding-right: 10%; padding-top: 38%; padding-bottom: 11%\">+</p>"	"1323"	n/a	n/a	n/a	n/a	n/a	n/a	n/a	n/a	n/a
n/a	"image-keyboard-response"	"122"	"353039"	"0.0-5.0-2.0-1.34"	"c3dpjq"	"600"	"1366"	"chrome"	"108.0.0"	"FALSE"	"Windows 10"	"60.74"	"144"	n/a	n/a	n/a	n/a	n/a	n/a	"Trial"	n/a	n/a	n/a	"765"	"arrowright"	n/a	"NULL"	"NULL"	"NULL"	"stimuli/Ebbinghaus_0.87143_-0.15857.png"	n/a	"Ebbinghaus"	"arrowright"	"1331"	"TRUE"	"Ebbinghaus"	"0.8714300000"	"-0.158570000"	"1"	"53"
n/a	"html-keyboard-response"	"123"	"354050"	"0.0-5.0-2.0-0.35"	"c3dpjq"	"600"	"1366"	"chrome"	"108.0.0"	"FALSE"	"Windows 10"	"60.74"	"144"	n/a	n/a	n/a	n/a	n/a	n/a	"fixation"	n/a	n/a	n/a	n/a	"NULL"	n/a	"NULL"	"NULL"	"NULL"	"<p style=\"color: black; font-size: 80px; padding-left: 14%; padding-right: 6%; padding-top: 15%; padding-bottom: 11%\">+</p>"	"1003"	n/a	n/a	n/a	n/a	n/a	n/a	n/a	n/a	n/a
n/a	"image-keyboard-response"	"124"	"354599"	"0.0-5.0-2.0-1.35"	"c3dpjq"	"600"	"1366"	"chrome"	"108.0.0"	"FALSE"	"Windows 10"	"60.74"	"144"	n/a	n/a	n/a	n/a	n/a	n/a	"Trial"	n/a	n/a	n/a	"548"	"arrowright"	n/a	"NULL"	"NULL"	"NULL"	"stimuli/Ebbinghaus_-0.1000_-0.2800.png"	n/a	"Ebbinghaus"	"arrowright"	"1011"	"TRUE"	"Ebbinghaus"	"-0.100000000"	"-0.280000000"	"1"	"54"
n/a	"html-keyboard-response"	"125"	"356050"	"0.0-5.0-2.0-0.36"	"c3dpjq"	"600"	"1366"	"chrome"	"108.0.0"	"FALSE"	"Windows 10"	"60.74"	"144"	n/a	n/a	n/a	n/a	n/a	n/a	"fixation"	n/a	n/a	n/a	n/a	"NULL"	n/a	"NULL"	"NULL"	"NULL"	"<p style=\"color: black; font-size: 80px; padding-left: 20%; padding-right: 10%; padding-top: 50%; padding-bottom: 24%\">+</p>"	"1445"	n/a	n/a	n/a	n/a	n/a	n/a	n/a	n/a	n/a
n/a	"image-keyboard-response"	"126"	"357109"	"0.0-5.0-2.0-1.36"	"c3dpjq"	"600"	"1366"	"chrome"	"108.0.0"	"FALSE"	"Windows 10"	"60.74"	"144"	n/a	n/a	n/a	n/a	n/a	n/a	"Trial"	n/a	n/a	n/a	"1058"	"arrowleft"	n/a	"NULL"	"NULL"	"NULL"	"stimuli/Ebbinghaus_0.10000_0.15857.png"	n/a	"Ebbinghaus"	"arrowleft"	"1451"	"TRUE"	"Ebbinghaus"	"0.1000000000"	"0.1585700000"	"1"	"55"
n/a	"html-keyboard-response"	"127"	"358175"	"0.0-5.0-2.0-0.37"	"c3dpjq"	"600"	"1366"	"chrome"	"108.0.0"	"FALSE"	"Windows 10"	"60.74"	"144"	n/a	n/a	n/a	n/a	n/a	n/a	"fixation"	n/a	n/a	n/a	n/a	"NULL"	n/a	"NULL"	"NULL"	"NULL"	"<p style=\"color: black; font-size: 80px; padding-left: 7%; padding-right: 35%; padding-top: 26%; padding-bottom: 6%\">+</p>"	"1053"	n/a	n/a	n/a	n/a	n/a	n/a	n/a	n/a	n/a
n/a	"image-keyboard-response"	"128"	"358829"	"0.0-5.0-2.0-1.37"	"c3dpjq"	"600"	"1366"	"chrome"	"108.0.0"	"FALSE"	"Windows 10"	"60.74"	"144"	n/a	n/a	n/a	n/a	n/a	n/a	"Trial"	n/a	n/a	n/a	"653"	"arrowleft"	n/a	"NULL"	"NULL"	"NULL"	"stimuli/Ebbinghaus_0.87143_0.21500.png"	n/a	"Ebbinghaus"	"arrowleft"	"1066"	"TRUE"	"Ebbinghaus"	"0.8714300000"	"0.2150000000"	"1"	"56"
n/a	"html-keyboard-response"	"129"	"360124"	"0.0-5.0-2.0-0.38"	"c3dpjq"	"600"	"1366"	"chrome"	"108.0.0"	"FALSE"	"Windows 10"	"60.74"	"144"	n/a	n/a	n/a	n/a	n/a	n/a	"fixation"	n/a	n/a	n/a	n/a	"NULL"	n/a	"NULL"	"NULL"	"NULL"	"<p style=\"color: black; font-size: 80px; padding-left: 19%; padding-right: 37%; padding-top: 50%; padding-bottom: 29%\">+</p>"	"1276"	n/a	n/a	n/a	n/a	n/a	n/a	n/a	n/a	n/a
n/a	"image-keyboard-response"	"130"	"360691"	"0.0-5.0-2.0-1.38"	"c3dpjq"	"600"	"1366"	"chrome"	"108.0.0"	"FALSE"	"Windows 10"	"60.74"	"144"	n/a	n/a	n/a	n/a	n/a	n/a	"Trial"	n/a	n/a	n/a	"565"	"arrowleft"	n/a	"NULL"	"NULL"	"NULL"	"stimuli/Ebbinghaus_-0.35714_0.28000.png"	n/a	"Ebbinghaus"	"arrowleft"	"1295"	"TRUE"	"Ebbinghaus"	"-0.357140000"	"0.2800000000"	"1"	"57"
n/a	"html-keyboard-response"	"131"	"361864"	"0.0-5.0-2.0-0.39"	"c3dpjq"	"600"	"1366"	"chrome"	"108.0.0"	"FALSE"	"Windows 10"	"60.74"	"144"	n/a	n/a	n/a	n/a	n/a	n/a	"fixation"	n/a	n/a	n/a	n/a	"NULL"	n/a	"NULL"	"NULL"	"NULL"	"<p style=\"color: black; font-size: 80px; padding-left: 27%; padding-right: 49%; padding-top: 10%; padding-bottom: 22%\">+</p>"	"1168"	n/a	n/a	n/a	n/a	n/a	n/a	n/a	n/a	n/a
n/a	"image-keyboard-response"	"132"	"362432"	"0.0-5.0-2.0-1.39"	"c3dpjq"	"600"	"1366"	"chrome"	"108.0.0"	"FALSE"	"Windows 10"	"60.74"	"144"	n/a	n/a	n/a	n/a	n/a	n/a	"Trial"	n/a	n/a	n/a	"568"	"arrowright"	n/a	"NULL"	"NULL"	"NULL"	"stimuli/Ebbinghaus_-0.61429_-0.2800.png"	n/a	"Ebbinghaus"	"arrowright"	"1173"	"TRUE"	"Ebbinghaus"	"-0.614290000"	"-0.280000000"	"1"	"58"
n/a	"html-keyboard-response"	"133"	"363886"	"0.0-5.0-2.0-0.40"	"c3dpjq"	"600"	"1366"	"chrome"	"108.0.0"	"FALSE"	"Windows 10"	"60.74"	"144"	n/a	n/a	n/a	n/a	n/a	n/a	"fixation"	n/a	n/a	n/a	n/a	"NULL"	n/a	"NULL"	"NULL"	"NULL"	"<p style=\"color: black; font-size: 80px; padding-left: 32%; padding-right: 29%; padding-top: 42%; padding-bottom: 7%\">+</p>"	"1440"	n/a	n/a	n/a	n/a	n/a	n/a	n/a	n/a	n/a
n/a	"image-keyboard-response"	"134"	"364427"	"0.0-5.0-2.0-1.40"	"c3dpjq"	"600"	"1366"	"chrome"	"108.0.0"	"FALSE"	"Windows 10"	"60.74"	"144"	n/a	n/a	n/a	n/a	n/a	n/a	"Trial"	n/a	n/a	n/a	"540"	"arrowright"	n/a	"NULL"	"NULL"	"NULL"	"stimuli/Ebbinghaus_0.61429_-0.2800.png"	n/a	"Ebbinghaus"	"arrowright"	"1454"	"TRUE"	"Ebbinghaus"	"0.6142900000"	"-0.280000000"	"1"	"59"
n/a	"html-keyboard-response"	"135"	"365774"	"0.0-5.0-2.0-0.41"	"c3dpjq"	"600"	"1366"	"chrome"	"108.0.0"	"FALSE"	"Windows 10"	"60.74"	"144"	n/a	n/a	n/a	n/a	n/a	n/a	"fixation"	n/a	n/a	n/a	n/a	"NULL"	n/a	"NULL"	"NULL"	"NULL"	"<p style=\"color: black; font-size: 80px; padding-left: 33%; padding-right: 9%; padding-top: 50%; padding-bottom: 18%\">+</p>"	"1330"	n/a	n/a	n/a	n/a	n/a	n/a	n/a	n/a	n/a
n/a	"image-keyboard-response"	"136"	"366575"	"0.0-5.0-2.0-1.41"	"c3dpjq"	"600"	"1366"	"chrome"	"108.0.0"	"FALSE"	"Windows 10"	"60.74"	"144"	n/a	n/a	n/a	n/a	n/a	n/a	"Trial"	n/a	n/a	n/a	"798"	"arrowright"	n/a	"NULL"	"NULL"	"NULL"	"stimuli/Ebbinghaus_0.61429_-0.2150.png"	n/a	"Ebbinghaus"	"arrowright"	"1347"	"TRUE"	"Ebbinghaus"	"0.6142900000"	"-0.215000000"	"1"	"60"
n/a	"html-keyboard-response"	"137"	"367597"	"0.0-5.0-2.0-0.42"	"c3dpjq"	"600"	"1366"	"chrome"	"108.0.0"	"FALSE"	"Windows 10"	"60.74"	"144"	n/a	n/a	n/a	n/a	n/a	n/a	"fixation"	n/a	n/a	n/a	n/a	"NULL"	n/a	"NULL"	"NULL"	"NULL"	"<p style=\"color: black; font-size: 80px; padding-left: 5%; padding-right: 36%; padding-top: 49%; padding-bottom: 41%\">+</p>"	"1006"	n/a	n/a	n/a	n/a	n/a	n/a	n/a	n/a	n/a
n/a	"image-keyboard-response"	"138"	"368087"	"0.0-5.0-2.0-1.42"	"c3dpjq"	"600"	"1366"	"chrome"	"108.0.0"	"FALSE"	"Windows 10"	"60.74"	"144"	n/a	n/a	n/a	n/a	n/a	n/a	"Trial"	n/a	n/a	n/a	"488"	"arrowleft"	n/a	"NULL"	"NULL"	"NULL"	"stimuli/Ebbinghaus_-0.87143_0.21500.png"	n/a	"Ebbinghaus"	"arrowleft"	"1022"	"TRUE"	"Ebbinghaus"	"-0.871430000"	"0.2150000000"	"1"	"61"
n/a	"html-keyboard-response"	"139"	"369478"	"0.0-5.0-2.0-0.43"	"c3dpjq"	"600"	"1366"	"chrome"	"108.0.0"	"FALSE"	"Windows 10"	"60.74"	"144"	n/a	n/a	n/a	n/a	n/a	n/a	"fixation"	n/a	n/a	n/a	n/a	"NULL"	n/a	"NULL"	"NULL"	"NULL"	"<p style=\"color: black; font-size: 80px; padding-left: 38%; padding-right: 1%; padding-top: 20%; padding-bottom: 1%\">+</p>"	"1378"	n/a	n/a	n/a	n/a	n/a	n/a	n/a	n/a	n/a
n/a	"image-keyboard-response"	"140"	"370116"	"0.0-5.0-2.0-1.43"	"c3dpjq"	"600"	"1366"	"chrome"	"108.0.0"	"FALSE"	"Windows 10"	"60.74"	"144"	n/a	n/a	n/a	n/a	n/a	n/a	"Trial"	n/a	n/a	n/a	"637"	"arrowleft"	n/a	"NULL"	"NULL"	"NULL"	"stimuli/Ebbinghaus_0.35714_0.28000.png"	n/a	"Ebbinghaus"	"arrowleft"	"1391"	"TRUE"	"Ebbinghaus"	"0.3571400000"	"0.2800000000"	"1"	"62"
n/a	"html-keyboard-response"	"141"	"371488"	"0.0-5.0-2.0-0.44"	"c3dpjq"	"600"	"1366"	"chrome"	"108.0.0"	"FALSE"	"Windows 10"	"60.74"	"144"	n/a	n/a	n/a	n/a	n/a	n/a	"fixation"	n/a	n/a	n/a	n/a	"NULL"	n/a	"NULL"	"NULL"	"NULL"	"<p style=\"color: black; font-size: 80px; padding-left: 37%; padding-right: 24%; padding-top: 17%; padding-bottom: 12%\">+</p>"	"1358"	n/a	n/a	n/a	n/a	n/a	n/a	n/a	n/a	n/a
n/a	"image-keyboard-response"	"142"	"372381"	"0.0-5.0-2.0-1.44"	"c3dpjq"	"600"	"1366"	"chrome"	"108.0.0"	"FALSE"	"Windows 10"	"60.74"	"144"	n/a	n/a	n/a	n/a	n/a	n/a	"Trial"	n/a	n/a	n/a	"891"	"arrowleft"	n/a	"NULL"	"NULL"	"NULL"	"stimuli/Ebbinghaus_0.35714_0.11071.png"	n/a	"Ebbinghaus"	"arrowleft"	"1372"	"TRUE"	"Ebbinghaus"	"0.3571400000"	"0.1107100000"	"1"	"63"
n/a	"html-keyboard-response"	"143"	"373707"	"0.0-5.0-2.0-0.45"	"c3dpjq"	"600"	"1366"	"chrome"	"108.0.0"	"FALSE"	"Windows 10"	"60.74"	"144"	n/a	n/a	n/a	n/a	n/a	n/a	"fixation"	n/a	n/a	n/a	n/a	"NULL"	n/a	"NULL"	"NULL"	"NULL"	"<p style=\"color: black; font-size: 80px; padding-left: 14%; padding-right: 36%; padding-top: 48%; padding-bottom: 31%\">+</p>"	"1305"	n/a	n/a	n/a	n/a	n/a	n/a	n/a	n/a	n/a
n/a	"image-keyboard-response"	"144"	"374267"	"0.0-5.0-2.0-1.45"	"c3dpjq"	"600"	"1366"	"chrome"	"108.0.0"	"FALSE"	"Windows 10"	"60.74"	"144"	n/a	n/a	n/a	n/a	n/a	n/a	"Trial"	n/a	n/a	n/a	"558"	"arrowleft"	n/a	"NULL"	"NULL"	"NULL"	"stimuli/Ebbinghaus_0.10000_0.21500.png"	n/a	"Ebbinghaus"	"arrowleft"	"1326"	"TRUE"	"Ebbinghaus"	"0.1000000000"	"0.2150000000"	"1"	"64"
n/a	"html-keyboard-response"	"145"	"375506"	"0.0-5.0-2.0-0.46"	"c3dpjq"	"600"	"1366"	"chrome"	"108.0.0"	"FALSE"	"Windows 10"	"60.74"	"144"	n/a	n/a	n/a	n/a	n/a	n/a	"fixation"	n/a	n/a	n/a	n/a	"NULL"	n/a	"NULL"	"NULL"	"NULL"	"<p style=\"color: black; font-size: 80px; padding-left: 9%; padding-right: 35%; padding-top: 46%; padding-bottom: 34%\">+</p>"	"1231"	n/a	n/a	n/a	n/a	n/a	n/a	n/a	n/a	n/a
n/a	"image-keyboard-response"	"146"	"376036"	"0.0-5.0-2.0-1.46"	"c3dpjq"	"600"	"1366"	"chrome"	"108.0.0"	"FALSE"	"Windows 10"	"60.74"	"144"	n/a	n/a	n/a	n/a	n/a	n/a	"Trial"	n/a	n/a	n/a	"529"	"arrowleft"	n/a	"NULL"	"NULL"	"NULL"	"stimuli/Ebbinghaus_-0.1000_0.11071.png"	n/a	"Ebbinghaus"	"arrowleft"	"1239"	"TRUE"	"Ebbinghaus"	"-0.100000000"	"0.1107100000"	"1"	"65"
n/a	"html-keyboard-response"	"147"	"377394"	"0.0-5.0-2.0-0.47"	"c3dpjq"	"600"	"1366"	"chrome"	"108.0.0"	"FALSE"	"Windows 10"	"60.74"	"144"	n/a	n/a	n/a	n/a	n/a	n/a	"fixation"	n/a	n/a	n/a	n/a	"NULL"	n/a	"NULL"	"NULL"	"NULL"	"<p style=\"color: black; font-size: 80px; padding-left: 42%; padding-right: 9%; padding-top: 18%; padding-bottom: 40%\">+</p>"	"1340"	n/a	n/a	n/a	n/a	n/a	n/a	n/a	n/a	n/a
n/a	"image-keyboard-response"	"148"	"377963"	"0.0-5.0-2.0-1.47"	"c3dpjq"	"600"	"1366"	"chrome"	"108.0.0"	"FALSE"	"Windows 10"	"60.74"	"144"	n/a	n/a	n/a	n/a	n/a	n/a	"Trial"	n/a	n/a	n/a	"568"	"arrowleft"	n/a	"NULL"	"NULL"	"NULL"	"stimuli/Ebbinghaus_-0.61429_0.28000.png"	n/a	"Ebbinghaus"	"arrowleft"	"1358"	"TRUE"	"Ebbinghaus"	"-0.614290000"	"0.2800000000"	"1"	"66"
n/a	"html-keyboard-response"	"149"	"379251"	"0.0-5.0-2.0-0.48"	"c3dpjq"	"600"	"1366"	"chrome"	"108.0.0"	"FALSE"	"Windows 10"	"60.74"	"144"	n/a	n/a	n/a	n/a	n/a	n/a	"fixation"	n/a	n/a	n/a	n/a	"NULL"	n/a	"NULL"	"NULL"	"NULL"	"<p style=\"color: black; font-size: 80px; padding-left: 15%; padding-right: 14%; padding-top: 45%; padding-bottom: 47%\">+</p>"	"1266"	n/a	n/a	n/a	n/a	n/a	n/a	n/a	n/a	n/a
n/a	"image-keyboard-response"	"150"	"379987"	"0.0-5.0-2.0-1.48"	"c3dpjq"	"600"	"1366"	"chrome"	"108.0.0"	"FALSE"	"Windows 10"	"60.74"	"144"	n/a	n/a	n/a	n/a	n/a	n/a	"Trial"	n/a	n/a	n/a	"735"	"arrowright"	n/a	"NULL"	"NULL"	"NULL"	"stimuli/Ebbinghaus_0.35714_-0.15857.png"	n/a	"Ebbinghaus"	"arrowright"	"1288"	"TRUE"	"Ebbinghaus"	"0.3571400000"	"-0.158570000"	"1"	"67"
n/a	"html-keyboard-response"	"151"	"381114"	"0.0-5.0-2.0-0.49"	"c3dpjq"	"600"	"1366"	"chrome"	"108.0.0"	"FALSE"	"Windows 10"	"60.74"	"144"	n/a	n/a	n/a	n/a	n/a	n/a	"fixation"	n/a	n/a	n/a	n/a	"NULL"	n/a	"NULL"	"NULL"	"NULL"	"<p style=\"color: black; font-size: 80px; padding-left: 20%; padding-right: 40%; padding-top: 45%; padding-bottom: 40%\">+</p>"	"1108"	n/a	n/a	n/a	n/a	n/a	n/a	n/a	n/a	n/a
n/a	"image-keyboard-response"	"152"	"381763"	"0.0-5.0-2.0-1.49"	"c3dpjq"	"600"	"1366"	"chrome"	"108.0.0"	"FALSE"	"Windows 10"	"60.74"	"144"	n/a	n/a	n/a	n/a	n/a	n/a	"Trial"	n/a	n/a	n/a	"648"	"arrowleft"	n/a	"NULL"	"NULL"	"NULL"	"stimuli/Ebbinghaus_0.35714_0.21500.png"	n/a	"Ebbinghaus"	"arrowleft"	"1127"	"TRUE"	"Ebbinghaus"	"0.3571400000"	"0.2150000000"	"1"	"68"
n/a	"html-keyboard-response"	"153"	"383239"	"0.0-5.0-2.0-0.50"	"c3dpjq"	"600"	"1366"	"chrome"	"108.0.0"	"FALSE"	"Windows 10"	"60.74"	"144"	n/a	n/a	n/a	n/a	n/a	n/a	"fixation"	n/a	n/a	n/a	n/a	"NULL"	n/a	"NULL"	"NULL"	"NULL"	"<p style=\"color: black; font-size: 80px; padding-left: 0%; padding-right: 16%; padding-top: 33%; padding-bottom: 7%\">+</p>"	"1468"	n/a	n/a	n/a	n/a	n/a	n/a	n/a	n/a	n/a
n/a	"image-keyboard-response"	"154"	"383805"	"0.0-5.0-2.0-1.50"	"c3dpjq"	"600"	"1366"	"chrome"	"108.0.0"	"FALSE"	"Windows 10"	"60.74"	"144"	n/a	n/a	n/a	n/a	n/a	n/a	"Trial"	n/a	n/a	n/a	"565"	"arrowright"	n/a	"NULL"	"NULL"	"NULL"	"stimuli/Ebbinghaus_-0.61429_-0.15857.png"	n/a	"Ebbinghaus"	"arrowright"	"1476"	"TRUE"	"Ebbinghaus"	"-0.614290000"	"-0.158570000"	"1"	"69"
n/a	"html-keyboard-response"	"155"	"385220"	"0.0-5.0-2.0-0.51"	"c3dpjq"	"600"	"1366"	"chrome"	"108.0.0"	"FALSE"	"Windows 10"	"60.74"	"144"	n/a	n/a	n/a	n/a	n/a	n/a	"fixation"	n/a	n/a	n/a	n/a	"NULL"	n/a	"NULL"	"NULL"	"NULL"	"<p style=\"color: black; font-size: 80px; padding-left: 34%; padding-right: 23%; padding-top: 9%; padding-bottom: 11%\">+</p>"	"1393"	n/a	n/a	n/a	n/a	n/a	n/a	n/a	n/a	n/a
n/a	"image-keyboard-response"	"156"	"385837"	"0.0-5.0-2.0-1.51"	"c3dpjq"	"600"	"1366"	"chrome"	"108.0.0"	"FALSE"	"Windows 10"	"60.74"	"144"	n/a	n/a	n/a	n/a	n/a	n/a	"Trial"	n/a	n/a	n/a	"616"	"arrowright"	n/a	"NULL"	"NULL"	"NULL"	"stimuli/Ebbinghaus_0.61429_-0.11071.png"	n/a	"Ebbinghaus"	"arrowright"	"1415"	"TRUE"	"Ebbinghaus"	"0.6142900000"	"-0.110710000"	"1"	"70"
n/a	"html-keyboard-response"	"157"	"387263"	"0.0-5.0-2.0-0.52"	"c3dpjq"	"600"	"1366"	"chrome"	"108.0.0"	"FALSE"	"Windows 10"	"60.74"	"144"	n/a	n/a	n/a	n/a	n/a	n/a	"fixation"	n/a	n/a	n/a	n/a	"NULL"	n/a	"NULL"	"NULL"	"NULL"	"<p style=\"color: black; font-size: 80px; padding-left: 26%; padding-right: 0%; padding-top: 15%; padding-bottom: 4%\">+</p>"	"1409"	n/a	n/a	n/a	n/a	n/a	n/a	n/a	n/a	n/a
n/a	"image-keyboard-response"	"158"	"387780"	"0.0-5.0-2.0-1.52"	"c3dpjq"	"600"	"1366"	"chrome"	"108.0.0"	"FALSE"	"Windows 10"	"60.74"	"144"	n/a	n/a	n/a	n/a	n/a	n/a	"Trial"	n/a	n/a	n/a	"517"	"arrowright"	n/a	"NULL"	"NULL"	"NULL"	"stimuli/Ebbinghaus_-0.35714_-0.15857.png"	n/a	"Ebbinghaus"	"arrowright"	"1426"	"TRUE"	"Ebbinghaus"	"-0.357140000"	"-0.158570000"	"1"	"71"
n/a	"html-keyboard-response"	"159"	"388862"	"0.0-5.0-2.0-0.53"	"c3dpjq"	"600"	"1366"	"chrome"	"108.0.0"	"FALSE"	"Windows 10"	"60.74"	"144"	n/a	n/a	n/a	n/a	n/a	n/a	"fixation"	n/a	n/a	n/a	n/a	"NULL"	n/a	"NULL"	"NULL"	"NULL"	"<p style=\"color: black; font-size: 80px; padding-left: 24%; padding-right: 46%; padding-top: 15%; padding-bottom: 1%\">+</p>"	"1066"	n/a	n/a	n/a	n/a	n/a	n/a	n/a	n/a	n/a
n/a	"image-keyboard-response"	"160"	"389434"	"0.0-5.0-2.0-1.53"	"c3dpjq"	"600"	"1366"	"chrome"	"108.0.0"	"FALSE"	"Windows 10"	"60.74"	"144"	n/a	n/a	n/a	n/a	n/a	n/a	"Trial"	n/a	n/a	n/a	"572"	"arrowright"	n/a	"NULL"	"NULL"	"NULL"	"stimuli/Ebbinghaus_-0.1000_-0.11071.png"	n/a	"Ebbinghaus"	"arrowright"	"1082"	"TRUE"	"Ebbinghaus"	"-0.100000000"	"-0.110710000"	"1"	"72"
n/a	"html-keyboard-response"	"161"	"390760"	"0.0-5.0-2.0-0.54"	"c3dpjq"	"600"	"1366"	"chrome"	"108.0.0"	"FALSE"	"Windows 10"	"60.74"	"144"	n/a	n/a	n/a	n/a	n/a	n/a	"fixation"	n/a	n/a	n/a	n/a	"NULL"	n/a	"NULL"	"NULL"	"NULL"	"<p style=\"color: black; font-size: 80px; padding-left: 28%; padding-right: 47%; padding-top: 3%; padding-bottom: 22%\">+</p>"	"1313"	n/a	n/a	n/a	n/a	n/a	n/a	n/a	n/a	n/a
n/a	"image-keyboard-response"	"162"	"391255"	"0.0-5.0-2.0-1.54"	"c3dpjq"	"600"	"1366"	"chrome"	"108.0.0"	"FALSE"	"Windows 10"	"60.74"	"144"	n/a	n/a	n/a	n/a	n/a	n/a	"Trial"	n/a	n/a	n/a	"494"	"arrowleft"	n/a	"NULL"	"NULL"	"NULL"	"stimuli/Ebbinghaus_-0.1000_0.28000.png"	n/a	"Ebbinghaus"	"arrowleft"	"1326"	"TRUE"	"Ebbinghaus"	"-0.100000000"	"0.2800000000"	"1"	"73"
n/a	"html-keyboard-response"	"163"	"392285"	"0.0-5.0-2.0-0.55"	"c3dpjq"	"600"	"1366"	"chrome"	"108.0.0"	"FALSE"	"Windows 10"	"60.74"	"144"	n/a	n/a	n/a	n/a	n/a	n/a	"fixation"	n/a	n/a	n/a	n/a	"NULL"	n/a	"NULL"	"NULL"	"NULL"	"<p style=\"color: black; font-size: 80px; padding-left: 3%; padding-right: 4%; padding-top: 32%; padding-bottom: 44%\">+</p>"	"1013"	n/a	n/a	n/a	n/a	n/a	n/a	n/a	n/a	n/a
n/a	"image-keyboard-response"	"164"	"393136"	"0.0-5.0-2.0-1.55"	"c3dpjq"	"600"	"1366"	"chrome"	"108.0.0"	"FALSE"	"Windows 10"	"60.74"	"144"	n/a	n/a	n/a	n/a	n/a	n/a	"Trial"	n/a	n/a	n/a	"850"	"arrowleft"	n/a	"NULL"	"NULL"	"NULL"	"stimuli/Ebbinghaus_-0.1000_0.15857.png"	n/a	"Ebbinghaus"	"arrowleft"	"1030"	"TRUE"	"Ebbinghaus"	"-0.100000000"	"0.1585700000"	"1"	"74"
n/a	"html-keyboard-response"	"165"	"394224"	"0.0-5.0-2.0-0.56"	"c3dpjq"	"600"	"1366"	"chrome"	"108.0.0"	"FALSE"	"Windows 10"	"60.74"	"144"	n/a	n/a	n/a	n/a	n/a	n/a	"fixation"	n/a	n/a	n/a	n/a	"NULL"	n/a	"NULL"	"NULL"	"NULL"	"<p style=\"color: black; font-size: 80px; padding-left: 22%; padding-right: 44%; padding-top: 24%; padding-bottom: 33%\">+</p>"	"1079"	n/a	n/a	n/a	n/a	n/a	n/a	n/a	n/a	n/a
n/a	"image-keyboard-response"	"166"	"394702"	"0.0-5.0-2.0-1.56"	"c3dpjq"	"600"	"1366"	"chrome"	"108.0.0"	"FALSE"	"Windows 10"	"60.74"	"144"	n/a	n/a	n/a	n/a	n/a	n/a	"Trial"	n/a	n/a	n/a	"477"	"arrowright"	n/a	"NULL"	"NULL"	"NULL"	"stimuli/Ebbinghaus_-0.35714_-0.2150.png"	n/a	"Ebbinghaus"	"arrowright"	"1088"	"TRUE"	"Ebbinghaus"	"-0.357140000"	"-0.215000000"	"1"	"75"
n/a	"html-keyboard-response"	"167"	"396195"	"0.0-5.0-2.0-0.57"	"c3dpjq"	"600"	"1366"	"chrome"	"108.0.0"	"FALSE"	"Windows 10"	"60.74"	"144"	n/a	n/a	n/a	n/a	n/a	n/a	"fixation"	n/a	n/a	n/a	n/a	"NULL"	n/a	"NULL"	"NULL"	"NULL"	"<p style=\"color: black; font-size: 80px; padding-left: 29%; padding-right: 10%; padding-top: 29%; padding-bottom: 12%\">+</p>"	"1473"	n/a	n/a	n/a	n/a	n/a	n/a	n/a	n/a	n/a
n/a	"image-keyboard-response"	"168"	"397087"	"0.0-5.0-2.0-1.57"	"c3dpjq"	"600"	"1366"	"chrome"	"108.0.0"	"FALSE"	"Windows 10"	"60.74"	"144"	n/a	n/a	n/a	n/a	n/a	n/a	"Trial"	n/a	n/a	n/a	"892"	"arrowleft"	n/a	"NULL"	"NULL"	"NULL"	"stimuli/Ebbinghaus_0.61429_0.15857.png"	n/a	"Ebbinghaus"	"arrowleft"	"1493"	"TRUE"	"Ebbinghaus"	"0.6142900000"	"0.1585700000"	"1"	"76"
n/a	"html-keyboard-response"	"169"	"398343"	"0.0-5.0-2.0-0.58"	"c3dpjq"	"600"	"1366"	"chrome"	"108.0.0"	"FALSE"	"Windows 10"	"60.74"	"144"	n/a	n/a	n/a	n/a	n/a	n/a	"fixation"	n/a	n/a	n/a	n/a	"NULL"	n/a	"NULL"	"NULL"	"NULL"	"<p style=\"color: black; font-size: 80px; padding-left: 11%; padding-right: 13%; padding-top: 32%; padding-bottom: 15%\">+</p>"	"1246"	n/a	n/a	n/a	n/a	n/a	n/a	n/a	n/a	n/a
n/a	"image-keyboard-response"	"170"	"398855"	"0.0-5.0-2.0-1.58"	"c3dpjq"	"600"	"1366"	"chrome"	"108.0.0"	"FALSE"	"Windows 10"	"60.74"	"144"	n/a	n/a	n/a	n/a	n/a	n/a	"Trial"	n/a	n/a	n/a	"512"	"arrowleft"	n/a	"NULL"	"NULL"	"NULL"	"stimuli/Ebbinghaus_0.10000_0.28000.png"	n/a	"Ebbinghaus"	"arrowleft"	"1256"	"TRUE"	"Ebbinghaus"	"0.1000000000"	"0.2800000000"	"1"	"77"
n/a	"html-keyboard-response"	"171"	"400144"	"0.0-5.0-2.0-0.59"	"c3dpjq"	"600"	"1366"	"chrome"	"108.0.0"	"FALSE"	"Windows 10"	"60.74"	"144"	n/a	n/a	n/a	n/a	n/a	n/a	"fixation"	n/a	n/a	n/a	n/a	"NULL"	n/a	"NULL"	"NULL"	"NULL"	"<p style=\"color: black; font-size: 80px; padding-left: 46%; padding-right: 33%; padding-top: 37%; padding-bottom: 30%\">+</p>"	"1277"	n/a	n/a	n/a	n/a	n/a	n/a	n/a	n/a	n/a
n/a	"image-keyboard-response"	"172"	"400656"	"0.0-5.0-2.0-1.59"	"c3dpjq"	"600"	"1366"	"chrome"	"108.0.0"	"FALSE"	"Windows 10"	"60.74"	"144"	n/a	n/a	n/a	n/a	n/a	n/a	"Trial"	n/a	n/a	n/a	"511"	"arrowright"	n/a	"NULL"	"NULL"	"NULL"	"stimuli/Ebbinghaus_0.10000_-0.2800.png"	n/a	"Ebbinghaus"	"arrowright"	"1289"	"TRUE"	"Ebbinghaus"	"0.1000000000"	"-0.280000000"	"1"	"78"
n/a	"html-keyboard-response"	"173"	"401804"	"0.0-5.0-2.0-0.60"	"c3dpjq"	"600"	"1366"	"chrome"	"108.0.0"	"FALSE"	"Windows 10"	"60.74"	"144"	n/a	n/a	n/a	n/a	n/a	n/a	"fixation"	n/a	n/a	n/a	n/a	"NULL"	n/a	"NULL"	"NULL"	"NULL"	"<p style=\"color: black; font-size: 80px; padding-left: 48%; padding-right: 15%; padding-top: 48%; padding-bottom: 45%\">+</p>"	"1128"	n/a	n/a	n/a	n/a	n/a	n/a	n/a	n/a	n/a
n/a	"image-keyboard-response"	"174"	"402598"	"0.0-5.0-2.0-1.60"	"c3dpjq"	"600"	"1366"	"chrome"	"108.0.0"	"FALSE"	"Windows 10"	"60.74"	"144"	n/a	n/a	n/a	n/a	n/a	n/a	"Trial"	n/a	n/a	n/a	"793"	"arrowleft"	n/a	"NULL"	"NULL"	"NULL"	"stimuli/Ebbinghaus_0.87143_0.15857.png"	n/a	"Ebbinghaus"	"arrowleft"	"1148"	"TRUE"	"Ebbinghaus"	"0.8714300000"	"0.1585700000"	"1"	"79"
n/a	"html-keyboard-response"	"175"	"403673"	"0.0-5.0-2.0-0.61"	"c3dpjq"	"600"	"1366"	"chrome"	"108.0.0"	"FALSE"	"Windows 10"	"60.74"	"144"	n/a	n/a	n/a	n/a	n/a	n/a	"fixation"	n/a	n/a	n/a	n/a	"NULL"	n/a	"NULL"	"NULL"	"NULL"	"<p style=\"color: black; font-size: 80px; padding-left: 9%; padding-right: 16%; padding-top: 30%; padding-bottom: 14%\">+</p>"	"1064"	n/a	n/a	n/a	n/a	n/a	n/a	n/a	n/a	n/a
n/a	"image-keyboard-response"	"176"	"404123"	"0.0-5.0-2.0-1.61"	"c3dpjq"	"600"	"1366"	"chrome"	"108.0.0"	"FALSE"	"Windows 10"	"60.74"	"144"	n/a	n/a	n/a	n/a	n/a	n/a	"Trial"	n/a	n/a	n/a	"449"	"arrowleft"	n/a	"NULL"	"NULL"	"NULL"	"stimuli/Ebbinghaus_0.87143_0.28000.png"	n/a	"Ebbinghaus"	"arrowleft"	"1075"	"TRUE"	"Ebbinghaus"	"0.8714300000"	"0.2800000000"	"1"	"80"
n/a	"html-keyboard-response"	"177"	"405597"	"0.0-5.0-2.0-0.62"	"c3dpjq"	"600"	"1366"	"chrome"	"108.0.0"	"FALSE"	"Windows 10"	"60.74"	"144"	n/a	n/a	n/a	n/a	n/a	n/a	"fixation"	n/a	n/a	n/a	n/a	"NULL"	n/a	"NULL"	"NULL"	"NULL"	"<p style=\"color: black; font-size: 80px; padding-left: 35%; padding-right: 12%; padding-top: 15%; padding-bottom: 49%\">+</p>"	"1470"	n/a	n/a	n/a	n/a	n/a	n/a	n/a	n/a	n/a
n/a	"image-keyboard-response"	"178"	"406088"	"0.0-5.0-2.0-1.62"	"c3dpjq"	"600"	"1366"	"chrome"	"108.0.0"	"FALSE"	"Windows 10"	"60.74"	"144"	n/a	n/a	n/a	n/a	n/a	n/a	"Trial"	n/a	n/a	n/a	"491"	"arrowleft"	n/a	"NULL"	"NULL"	"NULL"	"stimuli/Ebbinghaus_-0.61429_0.15857.png"	n/a	"Ebbinghaus"	"arrowleft"	"1474"	"TRUE"	"Ebbinghaus"	"-0.614290000"	"0.1585700000"	"1"	"81"
n/a	"html-keyboard-response"	"179"	"407346"	"0.0-5.0-2.0-0.63"	"c3dpjq"	"600"	"1366"	"chrome"	"108.0.0"	"FALSE"	"Windows 10"	"60.74"	"144"	n/a	n/a	n/a	n/a	n/a	n/a	"fixation"	n/a	n/a	n/a	n/a	"NULL"	n/a	"NULL"	"NULL"	"NULL"	"<p style=\"color: black; font-size: 80px; padding-left: 11%; padding-right: 0%; padding-top: 41%; padding-bottom: 12%\">+</p>"	"1241"	n/a	n/a	n/a	n/a	n/a	n/a	n/a	n/a	n/a
n/a	"image-keyboard-response"	"180"	"407888"	"0.0-5.0-2.0-1.63"	"c3dpjq"	"600"	"1366"	"chrome"	"108.0.0"	"FALSE"	"Windows 10"	"60.74"	"144"	n/a	n/a	n/a	n/a	n/a	n/a	"Trial"	n/a	n/a	n/a	"542"	"arrowright"	n/a	"NULL"	"NULL"	"NULL"	"stimuli/Ebbinghaus_0.10000_-0.2150.png"	n/a	"Ebbinghaus"	"arrowright"	"1258"	"TRUE"	"Ebbinghaus"	"0.1000000000"	"-0.215000000"	"1"	"82"
n/a	"html-button-response"	"181"	"425654"	"0.0-5.0-3.0"	"c3dpjq"	"600"	"1366"	"chrome"	"108.0.0"	"FALSE"	"Windows 10"	"60.74"	"144"	n/a	n/a	n/a	n/a	n/a	n/a	"block_results"	n/a	n/a	n/a	"17762"	"0"	n/a	"NULL"	"NULL"	"NULL"	"<p>Your score for this illusion is <p style=\"color: black; font-size: 48px; font-weight: bold;\">81.8 %</p><hr><p>Can you do better in the next illusion?</p>"	n/a	n/a	n/a	n/a	n/a	n/a	n/a	n/a	n/a	n/a
"TRUE"	"preload"	"182"	"425843"	"0.0-6.0-0.0"	"c3dpjq"	"600"	"1366"	"chrome"	"108.0.0"	"FALSE"	"Windows 10"	"60.74"	"144"	n/a	n/a	n/a	n/a	n/a	n/a	n/a	n/a	n/a	n/a	n/a	"NULL"	"FALSE"	"list()"	"list()"	"list()"	n/a	n/a	n/a	n/a	n/a	n/a	n/a	n/a	n/a	n/a	n/a
n/a	"html-keyboard-response"	"183"	"430193"	"0.0-6.0-1.0"	"c3dpjq"	"600"	"1366"	"chrome"	"108.0.0"	"FALSE"	"Windows 10"	"60.74"	"144"	n/a	n/a	n/a	n/a	n/a	n/a	n/a	n/a	n/a	n/a	"4350"	"enter"	n/a	"NULL"	"NULL"	"NULL"	"<p><b>Part 2/6</b></p><p>In this part, two red lines will appear side by side.</p><p>Your task is to tell <b>which line is longer</b> in length, regardless of their orientation, as fast as you can, and without making errors.</p><p>Don't get distracted by the orientation of the lines!</p><p>Press <b>the LEFT or the RIGHT arrow</b> to indicate which <b>line is the longer one.</b></p><div style='float: center'><img src='materials/instructions/VerticalHorizontal_Demo.png' height='300'></img><p><img src='utils/answer/answer_leftright_keyboard.PNG' height='150'></img></p><p class='small'>In this example, the correct answer is the <b>LEFT arrow</b>.</p></div><p>Are you ready? <b>Press ENTER to start</b></p>"	n/a	n/a	n/a	n/a	n/a	n/a	n/a	n/a	n/a	n/a
n/a	"html-keyboard-response"	"184"	"431871"	"0.0-6.0-2.0-0.0"	"c3dpjq"	"600"	"1366"	"chrome"	"108.0.0"	"FALSE"	"Windows 10"	"60.74"	"144"	n/a	n/a	n/a	n/a	n/a	n/a	"fixation"	n/a	n/a	n/a	n/a	"NULL"	n/a	"NULL"	"NULL"	"NULL"	"<p style=\"color: black; font-size: 80px; padding-left: 3%; padding-right: 40%; padding-top: 41%; padding-bottom: 23%\">+</p>"	"1149"	n/a	n/a	n/a	n/a	n/a	n/a	n/a	n/a	n/a
n/a	"image-keyboard-response"	"185"	"432346"	"0.0-6.0-2.0-1.0"	"c3dpjq"	"600"	"1366"	"chrome"	"108.0.0"	"FALSE"	"Windows 10"	"60.74"	"144"	n/a	n/a	n/a	n/a	n/a	n/a	"Trial"	n/a	n/a	n/a	"474"	"arrowright"	n/a	"NULL"	"NULL"	"NULL"	"stimuli/VerticalHorizontal_11.78571_-0.2250.png"	n/a	"VerticalHorizontal"	"arrowright"	"1678"	"TRUE"	"VerticalHorizontal"	"11.785710000"	"-0.225000000"	"2"	"1"
n/a	"html-keyboard-response"	"186"	"433681"	"0.0-6.0-2.0-0.1"	"c3dpjq"	"600"	"1366"	"chrome"	"108.0.0"	"FALSE"	"Windows 10"	"60.74"	"144"	n/a	n/a	n/a	n/a	n/a	n/a	"fixation"	n/a	n/a	n/a	n/a	"NULL"	n/a	"NULL"	"NULL"	"NULL"	"<p style=\"color: black; font-size: 80px; padding-left: 18%; padding-right: 21%; padding-top: 16%; padding-bottom: 47%\">+</p>"	"1327"	n/a	n/a	n/a	n/a	n/a	n/a	n/a	n/a	n/a
n/a	"image-keyboard-response"	"187"	"434701"	"0.0-6.0-2.0-1.1"	"c3dpjq"	"600"	"1366"	"chrome"	"108.0.0"	"FALSE"	"Windows 10"	"60.74"	"144"	n/a	n/a	n/a	n/a	n/a	n/a	"Trial"	n/a	n/a	n/a	"1019"	"arrowleft"	n/a	"NULL"	"NULL"	"NULL"	"stimuli/VerticalHorizontal_-28.75714_0.10960.png"	n/a	"VerticalHorizontal"	"arrowleft"	"1335"	"TRUE"	"VerticalHorizontal"	"-28.75714000"	"0.1096000000"	"2"	"2"
n/a	"html-keyboard-response"	"188"	"436024"	"0.0-6.0-2.0-0.2"	"c3dpjq"	"600"	"1366"	"chrome"	"108.0.0"	"FALSE"	"Windows 10"	"60.74"	"144"	n/a	n/a	n/a	n/a	n/a	n/a	"fixation"	n/a	n/a	n/a	n/a	"NULL"	n/a	"NULL"	"NULL"	"NULL"	"<p style=\"color: black; font-size: 80px; padding-left: 36%; padding-right: 36%; padding-top: 16%; padding-bottom: 31%\">+</p>"	"1307"	n/a	n/a	n/a	n/a	n/a	n/a	n/a	n/a	n/a
n/a	"image-keyboard-response"	"189"	"436915"	"0.0-6.0-2.0-1.2"	"c3dpjq"	"600"	"1366"	"chrome"	"108.0.0"	"FALSE"	"Windows 10"	"60.74"	"144"	n/a	n/a	n/a	n/a	n/a	n/a	"Trial"	n/a	n/a	n/a	"890"	"arrowleft"	n/a	"NULL"	"NULL"	"NULL"	"stimuli/VerticalHorizontal_-11.78571_0.16217.png"	n/a	"VerticalHorizontal"	"arrowleft"	"1323"	"TRUE"	"VerticalHorizontal"	"-11.78571000"	"0.1621700000"	"2"	"3"
n/a	"html-keyboard-response"	"190"	"438228"	"0.0-6.0-2.0-0.3"	"c3dpjq"	"600"	"1366"	"chrome"	"108.0.0"	"FALSE"	"Windows 10"	"60.74"	"144"	n/a	n/a	n/a	n/a	n/a	n/a	"fixation"	n/a	n/a	n/a	n/a	"NULL"	n/a	"NULL"	"NULL"	"NULL"	"<p style=\"color: black; font-size: 80px; padding-left: 18%; padding-right: 38%; padding-top: 26%; padding-bottom: 20%\">+</p>"	"1296"	n/a	n/a	n/a	n/a	n/a	n/a	n/a	n/a	n/a
n/a	"image-keyboard-response"	"191"	"439567"	"0.0-6.0-2.0-1.3"	"c3dpjq"	"600"	"1366"	"chrome"	"108.0.0"	"FALSE"	"Windows 10"	"60.74"	"144"	n/a	n/a	n/a	n/a	n/a	n/a	"Trial"	n/a	n/a	n/a	"1338"	"arrowleft"	n/a	"NULL"	"NULL"	"NULL"	"stimuli/VerticalHorizontal_28.75714_0.10960.png"	n/a	"VerticalHorizontal"	"arrowleft"	"1313"	"TRUE"	"VerticalHorizontal"	"28.757140000"	"0.1096000000"	"2"	"4"
n/a	"html-keyboard-response"	"192"	"440740"	"0.0-6.0-2.0-0.4"	"c3dpjq"	"600"	"1366"	"chrome"	"108.0.0"	"FALSE"	"Windows 10"	"60.74"	"144"	n/a	n/a	n/a	n/a	n/a	n/a	"fixation"	n/a	n/a	n/a	n/a	"NULL"	n/a	"NULL"	"NULL"	"NULL"	"<p style=\"color: black; font-size: 80px; padding-left: 35%; padding-right: 29%; padding-top: 26%; padding-bottom: 12%\">+</p>"	"1164"	n/a	n/a	n/a	n/a	n/a	n/a	n/a	n/a	n/a
n/a	"image-keyboard-response"	"193"	"441322"	"0.0-6.0-2.0-1.4"	"c3dpjq"	"600"	"1366"	"chrome"	"108.0.0"	"FALSE"	"Windows 10"	"60.74"	"144"	n/a	n/a	n/a	n/a	n/a	n/a	"Trial"	n/a	n/a	n/a	"582"	"arrowright"	n/a	"NULL"	"NULL"	"NULL"	"stimuli/VerticalHorizontal_28.75714_-0.16217.png"	n/a	"VerticalHorizontal"	"arrowright"	"1173"	"TRUE"	"VerticalHorizontal"	"28.757140000"	"-0.162170000"	"2"	"5"
n/a	"html-keyboard-response"	"194"	"442579"	"0.0-6.0-2.0-0.5"	"c3dpjq"	"600"	"1366"	"chrome"	"108.0.0"	"FALSE"	"Windows 10"	"60.74"	"144"	n/a	n/a	n/a	n/a	n/a	n/a	"fixation"	n/a	n/a	n/a	n/a	"NULL"	n/a	"NULL"	"NULL"	"NULL"	"<p style=\"color: black; font-size: 80px; padding-left: 35%; padding-right: 32%; padding-top: 42%; padding-bottom: 21%\">+</p>"	"1248"	n/a	n/a	n/a	n/a	n/a	n/a	n/a	n/a	n/a
n/a	"image-keyboard-response"	"195"	"443135"	"0.0-6.0-2.0-1.5"	"c3dpjq"	"600"	"1366"	"chrome"	"108.0.0"	"FALSE"	"Windows 10"	"60.74"	"144"	n/a	n/a	n/a	n/a	n/a	n/a	"Trial"	n/a	n/a	n/a	"556"	"arrowleft"	n/a	"NULL"	"NULL"	"NULL"	"stimuli/VerticalHorizontal_-20.27143_0.10960.png"	n/a	"VerticalHorizontal"	"arrowleft"	"1257"	"TRUE"	"VerticalHorizontal"	"-20.27143000"	"0.1096000000"	"2"	"6"
n/a	"html-keyboard-response"	"196"	"444238"	"0.0-6.0-2.0-0.6"	"c3dpjq"	"600"	"1366"	"chrome"	"108.0.0"	"FALSE"	"Windows 10"	"60.74"	"144"	n/a	n/a	n/a	n/a	n/a	n/a	"fixation"	n/a	n/a	n/a	n/a	"NULL"	n/a	"NULL"	"NULL"	"NULL"	"<p style=\"color: black; font-size: 80px; padding-left: 5%; padding-right: 10%; padding-top: 16%; padding-bottom: 24%\">+</p>"	"1100"	n/a	n/a	n/a	n/a	n/a	n/a	n/a	n/a	n/a
n/a	"image-keyboard-response"	"197"	"444713"	"0.0-6.0-2.0-1.6"	"c3dpjq"	"600"	"1366"	"chrome"	"108.0.0"	"FALSE"	"Windows 10"	"60.74"	"144"	n/a	n/a	n/a	n/a	n/a	n/a	"Trial"	n/a	n/a	n/a	"474"	"arrowright"	n/a	"NULL"	"NULL"	"NULL"	"stimuli/VerticalHorizontal_-20.27143_-0.1096.png"	n/a	"VerticalHorizontal"	"arrowright"	"1103"	"TRUE"	"VerticalHorizontal"	"-20.27143000"	"-0.109600000"	"2"	"7"
n/a	"html-keyboard-response"	"198"	"446143"	"0.0-6.0-2.0-0.7"	"c3dpjq"	"600"	"1366"	"chrome"	"108.0.0"	"FALSE"	"Windows 10"	"60.74"	"144"	n/a	n/a	n/a	n/a	n/a	n/a	"fixation"	n/a	n/a	n/a	n/a	"NULL"	n/a	"NULL"	"NULL"	"NULL"	"<p style=\"color: black; font-size: 80px; padding-left: 43%; padding-right: 29%; padding-top: 2%; padding-bottom: 15%\">+</p>"	"1426"	n/a	n/a	n/a	n/a	n/a	n/a	n/a	n/a	n/a
n/a	"image-keyboard-response"	"199"	"446658"	"0.0-6.0-2.0-1.7"	"c3dpjq"	"600"	"1366"	"chrome"	"108.0.0"	"FALSE"	"Windows 10"	"60.74"	"144"	n/a	n/a	n/a	n/a	n/a	n/a	"Trial"	n/a	n/a	n/a	"515"	"arrowright"	n/a	"NULL"	"NULL"	"NULL"	"stimuli/VerticalHorizontal_3.30000_-0.1096.png"	n/a	"VerticalHorizontal"	"arrowright"	"1430"	"TRUE"	"VerticalHorizontal"	"3.3000000000"	"-0.109600000"	"2"	"8"
n/a	"html-keyboard-response"	"200"	"448123"	"0.0-6.0-2.0-0.8"	"c3dpjq"	"600"	"1366"	"chrome"	"108.0.0"	"FALSE"	"Windows 10"	"60.74"	"144"	n/a	n/a	n/a	n/a	n/a	n/a	"fixation"	n/a	n/a	n/a	n/a	"NULL"	n/a	"NULL"	"NULL"	"NULL"	"<p style=\"color: black; font-size: 80px; padding-left: 49%; padding-right: 40%; padding-top: 44%; padding-bottom: 48%\">+</p>"	"1444"	n/a	n/a	n/a	n/a	n/a	n/a	n/a	n/a	n/a
n/a	"image-keyboard-response"	"201"	"449506"	"0.0-6.0-2.0-1.8"	"c3dpjq"	"600"	"1366"	"chrome"	"108.0.0"	"FALSE"	"Windows 10"	"60.74"	"144"	n/a	n/a	n/a	n/a	n/a	n/a	"Trial"	n/a	n/a	n/a	"1376"	"arrowright"	n/a	"NULL"	"NULL"	"NULL"	"stimuli/VerticalHorizontal_3.30000_-0.0673.png"	n/a	"VerticalHorizontal"	"arrowright"	"1465"	"TRUE"	"VerticalHorizontal"	"3.3000000000"	"-0.067300000"	"2"	"9"
n/a	"html-keyboard-response"	"202"	"450665"	"0.0-6.0-2.0-0.9"	"c3dpjq"	"600"	"1366"	"chrome"	"108.0.0"	"FALSE"	"Windows 10"	"60.74"	"144"	n/a	n/a	n/a	n/a	n/a	n/a	"fixation"	n/a	n/a	n/a	n/a	"NULL"	n/a	"NULL"	"NULL"	"NULL"	"<p style=\"color: black; font-size: 80px; padding-left: 14%; padding-right: 48%; padding-top: 39%; padding-bottom: 11%\">+</p>"	"1140"	n/a	n/a	n/a	n/a	n/a	n/a	n/a	n/a	n/a
n/a	"image-keyboard-response"	"203"	"451161"	"0.0-6.0-2.0-1.9"	"c3dpjq"	"600"	"1366"	"chrome"	"108.0.0"	"FALSE"	"Windows 10"	"60.74"	"144"	n/a	n/a	n/a	n/a	n/a	n/a	"Trial"	n/a	n/a	n/a	"495"	"arrowright"	n/a	"NULL"	"NULL"	"NULL"	"stimuli/VerticalHorizontal_-11.78571_-0.0673.png"	n/a	"VerticalHorizontal"	"arrowright"	"1159"	"TRUE"	"VerticalHorizontal"	"-11.78571000"	"-0.067300000"	"2"	"10"
n/a	"html-keyboard-response"	"204"	"452193"	"0.0-6.0-2.0-0.10"	"c3dpjq"	"600"	"1366"	"chrome"	"108.0.0"	"FALSE"	"Windows 10"	"60.74"	"144"	n/a	n/a	n/a	n/a	n/a	n/a	"fixation"	n/a	n/a	n/a	n/a	"NULL"	n/a	"NULL"	"NULL"	"NULL"	"<p style=\"color: black; font-size: 80px; padding-left: 3%; padding-right: 48%; padding-top: 33%; padding-bottom: 20%\">+</p>"	"1017"	n/a	n/a	n/a	n/a	n/a	n/a	n/a	n/a	n/a
n/a	"image-keyboard-response"	"205"	"453092"	"0.0-6.0-2.0-1.10"	"c3dpjq"	"600"	"1366"	"chrome"	"108.0.0"	"FALSE"	"Windows 10"	"60.74"	"144"	n/a	n/a	n/a	n/a	n/a	n/a	"Trial"	n/a	n/a	n/a	"898"	"arrowleft"	n/a	"NULL"	"NULL"	"NULL"	"stimuli/VerticalHorizontal_-11.78571_0.10960.png"	n/a	"VerticalHorizontal"	"arrowleft"	"1032"	"TRUE"	"VerticalHorizontal"	"-11.78571000"	"0.1096000000"	"2"	"11"
n/a	"html-keyboard-response"	"206"	"454179"	"0.0-6.0-2.0-0.11"	"c3dpjq"	"600"	"1366"	"chrome"	"108.0.0"	"FALSE"	"Windows 10"	"60.74"	"144"	n/a	n/a	n/a	n/a	n/a	n/a	"fixation"	n/a	n/a	n/a	n/a	"NULL"	n/a	"NULL"	"NULL"	"NULL"	"<p style=\"color: black; font-size: 80px; padding-left: 7%; padding-right: 30%; padding-top: 35%; padding-bottom: 2%\">+</p>"	"1067"	n/a	n/a	n/a	n/a	n/a	n/a	n/a	n/a	n/a
n/a	"image-keyboard-response"	"207"	"454948"	"0.0-6.0-2.0-1.11"	"c3dpjq"	"600"	"1366"	"chrome"	"108.0.0"	"FALSE"	"Windows 10"	"60.74"	"144"	n/a	n/a	n/a	n/a	n/a	n/a	"Trial"	n/a	n/a	n/a	"768"	"arrowleft"	n/a	"NULL"	"NULL"	"NULL"	"stimuli/VerticalHorizontal_20.27143_0.22500.png"	n/a	"VerticalHorizontal"	"arrowleft"	"1087"	"TRUE"	"VerticalHorizontal"	"20.271430000"	"0.2250000000"	"2"	"12"
n/a	"html-keyboard-response"	"208"	"456275"	"0.0-6.0-2.0-0.12"	"c3dpjq"	"600"	"1366"	"chrome"	"108.0.0"	"FALSE"	"Windows 10"	"60.74"	"144"	n/a	n/a	n/a	n/a	n/a	n/a	"fixation"	n/a	n/a	n/a	n/a	"NULL"	n/a	"NULL"	"NULL"	"NULL"	"<p style=\"color: black; font-size: 80px; padding-left: 27%; padding-right: 15%; padding-top: 20%; padding-bottom: 8%\">+</p>"	"1304"	n/a	n/a	n/a	n/a	n/a	n/a	n/a	n/a	n/a
n/a	"image-keyboard-response"	"209"	"457668"	"0.0-6.0-2.0-1.12"	"c3dpjq"	"600"	"1366"	"chrome"	"108.0.0"	"FALSE"	"Windows 10"	"60.74"	"144"	n/a	n/a	n/a	n/a	n/a	n/a	"Trial"	n/a	n/a	n/a	"1392"	"arrowright"	n/a	"NULL"	"NULL"	"NULL"	"stimuli/VerticalHorizontal_28.75714_0.06730.png"	n/a	"VerticalHorizontal"	"arrowleft"	"1327"	"FALSE"	"VerticalHorizontal"	"28.757140000"	"0.0673000000"	"2"	"13"
n/a	"html-keyboard-response"	"210"	"458803"	"0.0-6.0-2.0-0.13"	"c3dpjq"	"600"	"1366"	"chrome"	"108.0.0"	"FALSE"	"Windows 10"	"60.74"	"144"	n/a	n/a	n/a	n/a	n/a	n/a	"fixation"	n/a	n/a	n/a	n/a	"NULL"	n/a	"NULL"	"NULL"	"NULL"	"<p style=\"color: black; font-size: 80px; padding-left: 30%; padding-right: 22%; padding-top: 8%; padding-bottom: 40%\">+</p>"	"1120"	n/a	n/a	n/a	n/a	n/a	n/a	n/a	n/a	n/a
n/a	"image-keyboard-response"	"211"	"459242"	"0.0-6.0-2.0-1.13"	"c3dpjq"	"600"	"1366"	"chrome"	"108.0.0"	"FALSE"	"Windows 10"	"60.74"	"144"	n/a	n/a	n/a	n/a	n/a	n/a	"Trial"	n/a	n/a	n/a	"439"	"arrowright"	n/a	"NULL"	"NULL"	"NULL"	"stimuli/VerticalHorizontal_-28.75714_-0.2250.png"	n/a	"VerticalHorizontal"	"arrowright"	"1135"	"TRUE"	"VerticalHorizontal"	"-28.75714000"	"-0.225000000"	"2"	"14"
n/a	"html-keyboard-response"	"212"	"460460"	"0.0-6.0-2.0-0.14"	"c3dpjq"	"600"	"1366"	"chrome"	"108.0.0"	"FALSE"	"Windows 10"	"60.74"	"144"	n/a	n/a	n/a	n/a	n/a	n/a	"fixation"	n/a	n/a	n/a	n/a	"NULL"	n/a	"NULL"	"NULL"	"NULL"	"<p style=\"color: black; font-size: 80px; padding-left: 23%; padding-right: 30%; padding-top: 11%; padding-bottom: 28%\">+</p>"	"1196"	n/a	n/a	n/a	n/a	n/a	n/a	n/a	n/a	n/a
n/a	"image-keyboard-response"	"213"	"461574"	"0.0-6.0-2.0-1.14"	"c3dpjq"	"600"	"1366"	"chrome"	"108.0.0"	"FALSE"	"Windows 10"	"60.74"	"144"	n/a	n/a	n/a	n/a	n/a	n/a	"Trial"	n/a	n/a	n/a	"1113"	"arrowleft"	n/a	"NULL"	"NULL"	"NULL"	"stimuli/VerticalHorizontal_-11.78571_0.06730.png"	n/a	"VerticalHorizontal"	"arrowleft"	"1218"	"TRUE"	"VerticalHorizontal"	"-11.78571000"	"0.0673000000"	"2"	"15"
n/a	"html-keyboard-response"	"214"	"462787"	"0.0-6.0-2.0-0.15"	"c3dpjq"	"600"	"1366"	"chrome"	"108.0.0"	"FALSE"	"Windows 10"	"60.74"	"144"	n/a	n/a	n/a	n/a	n/a	n/a	"fixation"	n/a	n/a	n/a	n/a	"NULL"	n/a	"NULL"	"NULL"	"NULL"	"<p style=\"color: black; font-size: 80px; padding-left: 45%; padding-right: 20%; padding-top: 2%; padding-bottom: 49%\">+</p>"	"1191"	n/a	n/a	n/a	n/a	n/a	n/a	n/a	n/a	n/a
n/a	"image-keyboard-response"	"215"	"463520"	"0.0-6.0-2.0-1.15"	"c3dpjq"	"600"	"1366"	"chrome"	"108.0.0"	"FALSE"	"Windows 10"	"60.74"	"144"	n/a	n/a	n/a	n/a	n/a	n/a	"Trial"	n/a	n/a	n/a	"733"	"arrowright"	n/a	"NULL"	"NULL"	"NULL"	"stimuli/VerticalHorizontal_28.75714_-0.1096.png"	n/a	"VerticalHorizontal"	"arrowright"	"1213"	"TRUE"	"VerticalHorizontal"	"28.757140000"	"-0.109600000"	"2"	"16"
n/a	"html-keyboard-response"	"216"	"464740"	"0.0-6.0-2.0-0.16"	"c3dpjq"	"600"	"1366"	"chrome"	"108.0.0"	"FALSE"	"Windows 10"	"60.74"	"144"	n/a	n/a	n/a	n/a	n/a	n/a	"fixation"	n/a	n/a	n/a	n/a	"NULL"	n/a	"NULL"	"NULL"	"NULL"	"<p style=\"color: black; font-size: 80px; padding-left: 41%; padding-right: 16%; padding-top: 4%; padding-bottom: 12%\">+</p>"	"1206"	n/a	n/a	n/a	n/a	n/a	n/a	n/a	n/a	n/a
n/a	"image-keyboard-response"	"217"	"465279"	"0.0-6.0-2.0-1.16"	"c3dpjq"	"600"	"1366"	"chrome"	"108.0.0"	"FALSE"	"Windows 10"	"60.74"	"144"	n/a	n/a	n/a	n/a	n/a	n/a	"Trial"	n/a	n/a	n/a	"538"	"arrowleft"	n/a	"NULL"	"NULL"	"NULL"	"stimuli/VerticalHorizontal_-3.3000_0.22500.png"	n/a	"VerticalHorizontal"	"arrowleft"	"1220"	"TRUE"	"VerticalHorizontal"	"-3.300000000"	"0.2250000000"	"2"	"17"
n/a	"html-keyboard-response"	"218"	"466468"	"0.0-6.0-2.0-0.17"	"c3dpjq"	"600"	"1366"	"chrome"	"108.0.0"	"FALSE"	"Windows 10"	"60.74"	"144"	n/a	n/a	n/a	n/a	n/a	n/a	"fixation"	n/a	n/a	n/a	n/a	"NULL"	n/a	"NULL"	"NULL"	"NULL"	"<p style=\"color: black; font-size: 80px; padding-left: 46%; padding-right: 14%; padding-top: 20%; padding-bottom: 17%\">+</p>"	"1170"	n/a	n/a	n/a	n/a	n/a	n/a	n/a	n/a	n/a
n/a	"image-keyboard-response"	"219"	"467379"	"0.0-6.0-2.0-1.17"	"c3dpjq"	"600"	"1366"	"chrome"	"108.0.0"	"FALSE"	"Windows 10"	"60.74"	"144"	n/a	n/a	n/a	n/a	n/a	n/a	"Trial"	n/a	n/a	n/a	"910"	"arrowright"	n/a	"NULL"	"NULL"	"NULL"	"stimuli/VerticalHorizontal_20.27143_-0.16217.png"	n/a	"VerticalHorizontal"	"arrowright"	"1189"	"TRUE"	"VerticalHorizontal"	"20.271430000"	"-0.162170000"	"2"	"18"
n/a	"html-keyboard-response"	"220"	"468800"	"0.0-6.0-2.0-0.18"	"c3dpjq"	"600"	"1366"	"chrome"	"108.0.0"	"FALSE"	"Windows 10"	"60.74"	"144"	n/a	n/a	n/a	n/a	n/a	n/a	"fixation"	n/a	n/a	n/a	n/a	"NULL"	n/a	"NULL"	"NULL"	"NULL"	"<p style=\"color: black; font-size: 80px; padding-left: 3%; padding-right: 13%; padding-top: 48%; padding-bottom: 14%\">+</p>"	"1415"	n/a	n/a	n/a	n/a	n/a	n/a	n/a	n/a	n/a
n/a	"image-keyboard-response"	"221"	"469323"	"0.0-6.0-2.0-1.18"	"c3dpjq"	"600"	"1366"	"chrome"	"108.0.0"	"FALSE"	"Windows 10"	"60.74"	"144"	n/a	n/a	n/a	n/a	n/a	n/a	"Trial"	n/a	n/a	n/a	"522"	"arrowleft"	n/a	"NULL"	"NULL"	"NULL"	"stimuli/VerticalHorizontal_-28.75714_0.06730.png"	n/a	"VerticalHorizontal"	"arrowleft"	"1421"	"TRUE"	"VerticalHorizontal"	"-28.75714000"	"0.0673000000"	"2"	"19"
n/a	"html-keyboard-response"	"222"	"470604"	"0.0-6.0-2.0-0.19"	"c3dpjq"	"600"	"1366"	"chrome"	"108.0.0"	"FALSE"	"Windows 10"	"60.74"	"144"	n/a	n/a	n/a	n/a	n/a	n/a	"fixation"	n/a	n/a	n/a	n/a	"NULL"	n/a	"NULL"	"NULL"	"NULL"	"<p style=\"color: black; font-size: 80px; padding-left: 13%; padding-right: 21%; padding-top: 9%; padding-bottom: 46%\">+</p>"	"1271"	n/a	n/a	n/a	n/a	n/a	n/a	n/a	n/a	n/a
n/a	"image-keyboard-response"	"223"	"471236"	"0.0-6.0-2.0-1.19"	"c3dpjq"	"600"	"1366"	"chrome"	"108.0.0"	"FALSE"	"Windows 10"	"60.74"	"144"	n/a	n/a	n/a	n/a	n/a	n/a	"Trial"	n/a	n/a	n/a	"625"	"arrowright"	n/a	"NULL"	"NULL"	"NULL"	"stimuli/VerticalHorizontal_-11.78571_-0.2250.png"	n/a	"VerticalHorizontal"	"arrowright"	"1281"	"TRUE"	"VerticalHorizontal"	"-11.78571000"	"-0.225000000"	"2"	"20"
n/a	"html-keyboard-response"	"224"	"472612"	"0.0-6.0-2.0-0.20"	"c3dpjq"	"600"	"1366"	"chrome"	"108.0.0"	"FALSE"	"Windows 10"	"60.74"	"144"	n/a	n/a	n/a	n/a	n/a	n/a	"fixation"	n/a	n/a	n/a	n/a	"NULL"	n/a	"NULL"	"NULL"	"NULL"	"<p style=\"color: black; font-size: 80px; padding-left: 33%; padding-right: 16%; padding-top: 43%; padding-bottom: 36%\">+</p>"	"1364"	n/a	n/a	n/a	n/a	n/a	n/a	n/a	n/a	n/a
n/a	"image-keyboard-response"	"225"	"473099"	"0.0-6.0-2.0-1.20"	"c3dpjq"	"600"	"1366"	"chrome"	"108.0.0"	"FALSE"	"Windows 10"	"60.74"	"144"	n/a	n/a	n/a	n/a	n/a	n/a	"Trial"	n/a	n/a	n/a	"486"	"arrowright"	n/a	"NULL"	"NULL"	"NULL"	"stimuli/VerticalHorizontal_-28.75714_-0.16217.png"	n/a	"VerticalHorizontal"	"arrowright"	"1376"	"TRUE"	"VerticalHorizontal"	"-28.75714000"	"-0.162170000"	"2"	"21"
n/a	"html-keyboard-response"	"226"	"474470"	"0.0-6.0-2.0-0.21"	"c3dpjq"	"600"	"1366"	"chrome"	"108.0.0"	"FALSE"	"Windows 10"	"60.74"	"144"	n/a	n/a	n/a	n/a	n/a	n/a	"fixation"	n/a	n/a	n/a	n/a	"NULL"	n/a	"NULL"	"NULL"	"NULL"	"<p style=\"color: black; font-size: 80px; padding-left: 26%; padding-right: 6%; padding-top: 42%; padding-bottom: 22%\">+</p>"	"1368"	n/a	n/a	n/a	n/a	n/a	n/a	n/a	n/a	n/a
n/a	"image-keyboard-response"	"227"	"475152"	"0.0-6.0-2.0-1.21"	"c3dpjq"	"600"	"1366"	"chrome"	"108.0.0"	"FALSE"	"Windows 10"	"60.74"	"144"	n/a	n/a	n/a	n/a	n/a	n/a	"Trial"	n/a	n/a	n/a	"681"	"arrowright"	n/a	"NULL"	"NULL"	"NULL"	"stimuli/VerticalHorizontal_-28.75714_-0.1096.png"	n/a	"VerticalHorizontal"	"arrowright"	"1371"	"TRUE"	"VerticalHorizontal"	"-28.75714000"	"-0.109600000"	"2"	"22"
n/a	"html-keyboard-response"	"228"	"476380"	"0.0-6.0-2.0-0.22"	"c3dpjq"	"600"	"1366"	"chrome"	"108.0.0"	"FALSE"	"Windows 10"	"60.74"	"144"	n/a	n/a	n/a	n/a	n/a	n/a	"fixation"	n/a	n/a	n/a	n/a	"NULL"	n/a	"NULL"	"NULL"	"NULL"	"<p style=\"color: black; font-size: 80px; padding-left: 36%; padding-right: 43%; padding-top: 44%; padding-bottom: 49%\">+</p>"	"1217"	n/a	n/a	n/a	n/a	n/a	n/a	n/a	n/a	n/a
n/a	"image-keyboard-response"	"229"	"476966"	"0.0-6.0-2.0-1.22"	"c3dpjq"	"600"	"1366"	"chrome"	"108.0.0"	"FALSE"	"Windows 10"	"60.74"	"144"	n/a	n/a	n/a	n/a	n/a	n/a	"Trial"	n/a	n/a	n/a	"585"	"arrowleft"	n/a	"NULL"	"NULL"	"NULL"	"stimuli/VerticalHorizontal_3.30000_0.16217.png"	n/a	"VerticalHorizontal"	"arrowleft"	"1228"	"TRUE"	"VerticalHorizontal"	"3.3000000000"	"0.1621700000"	"2"	"23"
n/a	"html-keyboard-response"	"230"	"478329"	"0.0-6.0-2.0-0.23"	"c3dpjq"	"600"	"1366"	"chrome"	"108.0.0"	"FALSE"	"Windows 10"	"60.74"	"144"	n/a	n/a	n/a	n/a	n/a	n/a	"fixation"	n/a	n/a	n/a	n/a	"NULL"	n/a	"NULL"	"NULL"	"NULL"	"<p style=\"color: black; font-size: 80px; padding-left: 46%; padding-right: 10%; padding-top: 38%; padding-bottom: 31%\">+</p>"	"1346"	n/a	n/a	n/a	n/a	n/a	n/a	n/a	n/a	n/a
n/a	"image-keyboard-response"	"231"	"478811"	"0.0-6.0-2.0-1.23"	"c3dpjq"	"600"	"1366"	"chrome"	"108.0.0"	"FALSE"	"Windows 10"	"60.74"	"144"	n/a	n/a	n/a	n/a	n/a	n/a	"Trial"	n/a	n/a	n/a	"481"	"arrowleft"	n/a	"NULL"	"NULL"	"NULL"	"stimuli/VerticalHorizontal_-20.27143_0.22500.png"	n/a	"VerticalHorizontal"	"arrowleft"	"1363"	"TRUE"	"VerticalHorizontal"	"-20.27143000"	"0.2250000000"	"2"	"24"
n/a	"html-keyboard-response"	"232"	"480003"	"0.0-6.0-2.0-0.24"	"c3dpjq"	"600"	"1366"	"chrome"	"108.0.0"	"FALSE"	"Windows 10"	"60.74"	"144"	n/a	n/a	n/a	n/a	n/a	n/a	"fixation"	n/a	n/a	n/a	n/a	"NULL"	n/a	"NULL"	"NULL"	"NULL"	"<p style=\"color: black; font-size: 80px; padding-left: 47%; padding-right: 46%; padding-top: 14%; padding-bottom: 13%\">+</p>"	"1183"	n/a	n/a	n/a	n/a	n/a	n/a	n/a	n/a	n/a
n/a	"image-keyboard-response"	"233"	"480463"	"0.0-6.0-2.0-1.24"	"c3dpjq"	"600"	"1366"	"chrome"	"108.0.0"	"FALSE"	"Windows 10"	"60.74"	"144"	n/a	n/a	n/a	n/a	n/a	n/a	"Trial"	n/a	n/a	n/a	"459"	"arrowright"	n/a	"NULL"	"NULL"	"NULL"	"stimuli/VerticalHorizontal_3.30000_0.06730.png"	n/a	"VerticalHorizontal"	"arrowleft"	"1192"	"FALSE"	"VerticalHorizontal"	"3.3000000000"	"0.0673000000"	"2"	"25"
n/a	"html-keyboard-response"	"234"	"481547"	"0.0-6.0-2.0-0.25"	"c3dpjq"	"600"	"1366"	"chrome"	"108.0.0"	"FALSE"	"Windows 10"	"60.74"	"144"	n/a	n/a	n/a	n/a	n/a	n/a	"fixation"	n/a	n/a	n/a	n/a	"NULL"	n/a	"NULL"	"NULL"	"NULL"	"<p style=\"color: black; font-size: 80px; padding-left: 47%; padding-right: 25%; padding-top: 1%; padding-bottom: 45%\">+</p>"	"1070"	n/a	n/a	n/a	n/a	n/a	n/a	n/a	n/a	n/a
n/a	"image-keyboard-response"	"235"	"482365"	"0.0-6.0-2.0-1.25"	"c3dpjq"	"600"	"1366"	"chrome"	"108.0.0"	"FALSE"	"Windows 10"	"60.74"	"144"	n/a	n/a	n/a	n/a	n/a	n/a	"Trial"	n/a	n/a	n/a	"817"	"arrowright"	n/a	"NULL"	"NULL"	"NULL"	"stimuli/VerticalHorizontal_11.78571_-0.16217.png"	n/a	"VerticalHorizontal"	"arrowright"	"1084"	"TRUE"	"VerticalHorizontal"	"11.785710000"	"-0.162170000"	"2"	"26"
n/a	"html-keyboard-response"	"236"	"483798"	"0.0-6.0-2.0-0.26"	"c3dpjq"	"600"	"1366"	"chrome"	"108.0.0"	"FALSE"	"Windows 10"	"60.74"	"144"	n/a	n/a	n/a	n/a	n/a	n/a	"fixation"	n/a	n/a	n/a	n/a	"NULL"	n/a	"NULL"	"NULL"	"NULL"	"<p style=\"color: black; font-size: 80px; padding-left: 17%; padding-right: 29%; padding-top: 8%; padding-bottom: 38%\">+</p>"	"1417"	n/a	n/a	n/a	n/a	n/a	n/a	n/a	n/a	n/a
n/a	"image-keyboard-response"	"237"	"484701"	"0.0-6.0-2.0-1.26"	"c3dpjq"	"600"	"1366"	"chrome"	"108.0.0"	"FALSE"	"Windows 10"	"60.74"	"144"	n/a	n/a	n/a	n/a	n/a	n/a	"Trial"	n/a	n/a	n/a	"902"	"arrowleft"	n/a	"NULL"	"NULL"	"NULL"	"stimuli/VerticalHorizontal_28.75714_0.16217.png"	n/a	"VerticalHorizontal"	"arrowleft"	"1433"	"TRUE"	"VerticalHorizontal"	"28.757140000"	"0.1621700000"	"2"	"27"
n/a	"html-keyboard-response"	"238"	"485817"	"0.0-6.0-2.0-0.27"	"c3dpjq"	"600"	"1366"	"chrome"	"108.0.0"	"FALSE"	"Windows 10"	"60.74"	"144"	n/a	n/a	n/a	n/a	n/a	n/a	"fixation"	n/a	n/a	n/a	n/a	"NULL"	n/a	"NULL"	"NULL"	"NULL"	"<p style=\"color: black; font-size: 80px; padding-left: 0%; padding-right: 15%; padding-top: 29%; padding-bottom: 28%\">+</p>"	"1110"	n/a	n/a	n/a	n/a	n/a	n/a	n/a	n/a	n/a
n/a	"image-keyboard-response"	"239"	"486457"	"0.0-6.0-2.0-1.27"	"c3dpjq"	"600"	"1366"	"chrome"	"108.0.0"	"FALSE"	"Windows 10"	"60.74"	"144"	n/a	n/a	n/a	n/a	n/a	n/a	"Trial"	n/a	n/a	n/a	"638"	"arrowright"	n/a	"NULL"	"NULL"	"NULL"	"stimuli/VerticalHorizontal_20.27143_-0.1096.png"	n/a	"VerticalHorizontal"	"arrowright"	"1116"	"TRUE"	"VerticalHorizontal"	"20.271430000"	"-0.109600000"	"2"	"28"
n/a	"html-keyboard-response"	"240"	"487828"	"0.0-6.0-2.0-0.28"	"c3dpjq"	"600"	"1366"	"chrome"	"108.0.0"	"FALSE"	"Windows 10"	"60.74"	"144"	n/a	n/a	n/a	n/a	n/a	n/a	"fixation"	n/a	n/a	n/a	n/a	"NULL"	n/a	"NULL"	"NULL"	"NULL"	"<p style=\"color: black; font-size: 80px; padding-left: 39%; padding-right: 50%; padding-top: 28%; padding-bottom: 38%\">+</p>"	"1358"	n/a	n/a	n/a	n/a	n/a	n/a	n/a	n/a	n/a
n/a	"image-keyboard-response"	"241"	"488868"	"0.0-6.0-2.0-1.28"	"c3dpjq"	"600"	"1366"	"chrome"	"108.0.0"	"FALSE"	"Windows 10"	"60.74"	"144"	n/a	n/a	n/a	n/a	n/a	n/a	"Trial"	n/a	n/a	n/a	"1039"	"arrowright"	n/a	"NULL"	"NULL"	"NULL"	"stimuli/VerticalHorizontal_-3.3000_-0.16217.png"	n/a	"VerticalHorizontal"	"arrowright"	"1371"	"TRUE"	"VerticalHorizontal"	"-3.300000000"	"-0.162170000"	"2"	"29"
n/a	"html-keyboard-response"	"242"	"489963"	"0.0-6.0-2.0-0.29"	"c3dpjq"	"600"	"1366"	"chrome"	"108.0.0"	"FALSE"	"Windows 10"	"60.74"	"144"	n/a	n/a	n/a	n/a	n/a	n/a	"fixation"	n/a	n/a	n/a	n/a	"NULL"	n/a	"NULL"	"NULL"	"NULL"	"<p style=\"color: black; font-size: 80px; padding-left: 47%; padding-right: 17%; padding-top: 4%; padding-bottom: 19%\">+</p>"	"1079"	n/a	n/a	n/a	n/a	n/a	n/a	n/a	n/a	n/a
n/a	"image-keyboard-response"	"243"	"490811"	"0.0-6.0-2.0-1.29"	"c3dpjq"	"600"	"1366"	"chrome"	"108.0.0"	"FALSE"	"Windows 10"	"60.74"	"144"	n/a	n/a	n/a	n/a	n/a	n/a	"Trial"	n/a	n/a	n/a	"844"	"arrowleft"	n/a	"NULL"	"NULL"	"NULL"	"stimuli/VerticalHorizontal_20.27143_0.06730.png"	n/a	"VerticalHorizontal"	"arrowleft"	"1095"	"TRUE"	"VerticalHorizontal"	"20.271430000"	"0.0673000000"	"2"	"30"
n/a	"html-keyboard-response"	"244"	"492190"	"0.0-6.0-2.0-0.30"	"c3dpjq"	"600"	"1366"	"chrome"	"108.0.0"	"FALSE"	"Windows 10"	"60.74"	"144"	n/a	n/a	n/a	n/a	n/a	n/a	"fixation"	n/a	n/a	n/a	n/a	"NULL"	n/a	"NULL"	"NULL"	"NULL"	"<p style=\"color: black; font-size: 80px; padding-left: 24%; padding-right: 2%; padding-top: 26%; padding-bottom: 25%\">+</p>"	"1371"	n/a	n/a	n/a	n/a	n/a	n/a	n/a	n/a	n/a
n/a	"image-keyboard-response"	"245"	"492747"	"0.0-6.0-2.0-1.30"	"c3dpjq"	"600"	"1366"	"chrome"	"108.0.0"	"FALSE"	"Windows 10"	"60.74"	"144"	n/a	n/a	n/a	n/a	n/a	n/a	"Trial"	n/a	n/a	n/a	"556"	"arrowright"	n/a	"NULL"	"NULL"	"NULL"	"stimuli/VerticalHorizontal_-3.3000_-0.2250.png"	n/a	"VerticalHorizontal"	"arrowright"	"1379"	"TRUE"	"VerticalHorizontal"	"-3.300000000"	"-0.225000000"	"2"	"31"
n/a	"html-keyboard-response"	"246"	"493986"	"0.0-6.0-2.0-0.31"	"c3dpjq"	"600"	"1366"	"chrome"	"108.0.0"	"FALSE"	"Windows 10"	"60.74"	"144"	n/a	n/a	n/a	n/a	n/a	n/a	"fixation"	n/a	n/a	n/a	n/a	"NULL"	n/a	"NULL"	"NULL"	"NULL"	"<p style=\"color: black; font-size: 80px; padding-left: 28%; padding-right: 34%; padding-top: 30%; padding-bottom: 23%\">+</p>"	"1233"	n/a	n/a	n/a	n/a	n/a	n/a	n/a	n/a	n/a
n/a	"image-keyboard-response"	"247"	"494957"	"0.0-6.0-2.0-1.31"	"c3dpjq"	"600"	"1366"	"chrome"	"108.0.0"	"FALSE"	"Windows 10"	"60.74"	"144"	n/a	n/a	n/a	n/a	n/a	n/a	"Trial"	n/a	n/a	n/a	"970"	"arrowright"	n/a	"NULL"	"NULL"	"NULL"	"stimuli/VerticalHorizontal_20.27143_-0.0673.png"	n/a	"VerticalHorizontal"	"arrowright"	"1239"	"TRUE"	"VerticalHorizontal"	"20.271430000"	"-0.067300000"	"2"	"32"
n/a	"html-keyboard-response"	"248"	"496442"	"0.0-6.0-2.0-0.32"	"c3dpjq"	"600"	"1366"	"chrome"	"108.0.0"	"FALSE"	"Windows 10"	"60.74"	"144"	n/a	n/a	n/a	n/a	n/a	n/a	"fixation"	n/a	n/a	n/a	n/a	"NULL"	n/a	"NULL"	"NULL"	"NULL"	"<p style=\"color: black; font-size: 80px; padding-left: 28%; padding-right: 26%; padding-top: 49%; padding-bottom: 7%\">+</p>"	"1465"	n/a	n/a	n/a	n/a	n/a	n/a	n/a	n/a	n/a
n/a	"image-keyboard-response"	"249"	"496963"	"0.0-6.0-2.0-1.32"	"c3dpjq"	"600"	"1366"	"chrome"	"108.0.0"	"FALSE"	"Windows 10"	"60.74"	"144"	n/a	n/a	n/a	n/a	n/a	n/a	"Trial"	n/a	n/a	n/a	"520"	"arrowright"	n/a	"NULL"	"NULL"	"NULL"	"stimuli/VerticalHorizontal_-20.27143_-0.2250.png"	n/a	"VerticalHorizontal"	"arrowright"	"1485"	"TRUE"	"VerticalHorizontal"	"-20.27143000"	"-0.225000000"	"2"	"33"
n/a	"html-keyboard-response"	"250"	"498257"	"0.0-6.0-2.0-0.33"	"c3dpjq"	"600"	"1366"	"chrome"	"108.0.0"	"FALSE"	"Windows 10"	"60.74"	"144"	n/a	n/a	n/a	n/a	n/a	n/a	"fixation"	n/a	n/a	n/a	n/a	"NULL"	n/a	"NULL"	"NULL"	"NULL"	"<p style=\"color: black; font-size: 80px; padding-left: 10%; padding-right: 22%; padding-top: 2%; padding-bottom: 47%\">+</p>"	"1286"	n/a	n/a	n/a	n/a	n/a	n/a	n/a	n/a	n/a
