"success"	"trial_type"	"trial_index"	"time_elapsed"	"internal_node_id"	"participant_id"	"screen_height"	"screen_width"	"browser"	"browser_version"	"mobile"	"os"	"vsync_rate"	"subject_id"	"width"	"height"	"webaudio"	"fullscreen"	"webcam"	"microphone"	"screen"	"version"	"date"	"time"	"rt"	"response"	"timeout"	"failed_images"	"failed_audio"	"failed_video"	"stimulus"	"trial_duration"	"block"	"correct_response"	"prestimulus_duration"	"correct"	"type"	"illusion_strength"	"illusion_difference"	"block_number"	"trial_number"
"TRUE"	"fullscreen"	"0"	"513832902"	"0.0-0.0"	"y3hbu8"	"563"	"952"	"chrome"	"109.0.0"	"FALSE"	"Windows 10"	"61.54"	"006"	n/a	n/a	n/a	n/a	n/a	n/a	n/a	n/a	n/a	n/a	n/a	"NULL"	n/a	"NULL"	"NULL"	"NULL"	n/a	n/a	n/a	n/a	n/a	n/a	n/a	n/a	n/a	n/a	n/a
n/a	"browser-check"	"1"	"513833903"	"0.0-1.0"	"y3hbu8"	"563"	"952"	"chrome"	"109.0.0"	"FALSE"	"Windows 10"	"61.54"	"006"	"952"	"563"	"TRUE"	"TRUE"	"TRUE"	"TRUE"	"browser_info"	"1.0"	"20/01/2023"	"11:13:49"	n/a	"NULL"	n/a	"NULL"	"NULL"	"NULL"	n/a	n/a	n/a	n/a	n/a	n/a	n/a	n/a	n/a	n/a	n/a
n/a	"survey-text"	"2"	"521283164"	"0.0-2.0"	"y3hbu8"	"563"	"952"	"chrome"	"109.0.0"	"FALSE"	"Windows 10"	"61.54"	"006"	n/a	n/a	n/a	n/a	n/a	n/a	"subject_id"	n/a	n/a	n/a	"7450858"	"list(subject_id = \"006\")"	n/a	"NULL"	"NULL"	"NULL"	n/a	n/a	n/a	n/a	n/a	n/a	n/a	n/a	n/a	n/a	n/a
"TRUE"	"preload"	"3"	"521283181"	"0.0-3.0"	"y3hbu8"	"563"	"952"	"chrome"	"109.0.0"	"FALSE"	"Windows 10"	"61.54"	"006"	n/a	n/a	n/a	n/a	n/a	n/a	n/a	n/a	n/a	n/a	n/a	"NULL"	"FALSE"	"list()"	"list()"	"list()"	n/a	n/a	n/a	n/a	n/a	n/a	n/a	n/a	n/a	n/a	n/a
n/a	"html-button-response"	"4"	"521376395"	"0.0-4.0-0.0"	"y3hbu8"	"563"	"952"	"chrome"	"109.0.0"	"FALSE"	"Windows 10"	"61.54"	"006"	n/a	n/a	n/a	n/a	n/a	n/a	"illusion_instructions"	n/a	n/a	n/a	"93212"	"0"	n/a	"NULL"	"NULL"	"NULL"	"<p><b>Illusion Game</b></p><p>In this game of speed and reflex, you will need to make <b>visual judgments</b> (for instance, which circle is the biggest, or which line is the longest), as fast and as correctly as possible, while <b>resisting different visual illusions</b>.</p><p>We are going to start with some examples of all the illusions you will encounter in the game.</p>"	n/a	n/a	n/a	n/a	n/a	n/a	n/a	n/a	n/a	n/a
"TRUE"	"preload"	"5"	"521376420"	"0.0-4.0-1.0-0.0"	"y3hbu8"	"563"	"952"	"chrome"	"109.0.0"	"FALSE"	"Windows 10"	"61.54"	"006"	n/a	n/a	n/a	n/a	n/a	n/a	n/a	n/a	n/a	n/a	n/a	"NULL"	"FALSE"	"list()"	"list()"	"list()"	n/a	n/a	n/a	n/a	n/a	n/a	n/a	n/a	n/a	n/a	n/a
n/a	"html-keyboard-response"	"6"	"521397668"	"0.0-4.0-1.0-1.0"	"y3hbu8"	"563"	"952"	"chrome"	"109.0.0"	"FALSE"	"Windows 10"	"61.54"	"006"	n/a	n/a	n/a	n/a	n/a	n/a	n/a	n/a	n/a	n/a	"21245"	"enter"	n/a	"NULL"	"NULL"	"NULL"	"<p><b>Practice</b></p><p>In this part, two red circles will appear side by side on the screen.</p><p>Your task is to select which <b>red circle is bigger</b> in size as fast as you can, without making errors.</p><p>Don't get distracted by the surrounding black circles around the red circles!</p><p>Press <b>the LEFT or the RIGHT arrow</b> to indicate which is the bigger <b>red circle.</b></p><div style='float: center'><img src='materials/instructions/Ebbinghaus_Demo.png' height='300'></img><p><img src='utils/answer/answer_leftright_keyboard.PNG' height='150'></img></p><p class='small'>In this example, the correct answer is the <b>LEFT arrow</b>.</p></div><p>Are you ready? <b>Press ENTER to start</b></p>"	n/a	n/a	n/a	n/a	n/a	n/a	n/a	n/a	n/a	n/a
n/a	"html-keyboard-response"	"7"	"521399665"	"0.0-4.0-1.0-2.0-0.0"	"y3hbu8"	"563"	"952"	"chrome"	"109.0.0"	"FALSE"	"Windows 10"	"61.54"	"006"	n/a	n/a	n/a	n/a	n/a	n/a	"fixation"	n/a	n/a	n/a	n/a	"NULL"	n/a	"NULL"	"NULL"	"NULL"	"<p style=\"color: black; font-size: 80px; padding-left: 19%; padding-right: 20%; padding-top: 4%; padding-bottom: 35%\">+</p>"	"1475"	n/a	n/a	n/a	n/a	n/a	n/a	n/a	n/a	n/a
n/a	"image-keyboard-response"	"8"	"521401111"	"0.0-4.0-1.0-2.0-1.0"	"y3hbu8"	"563"	"952"	"chrome"	"109.0.0"	"FALSE"	"Windows 10"	"61.54"	"006"	n/a	n/a	n/a	n/a	n/a	n/a	"Trial"	n/a	n/a	n/a	"1430"	"arrowright"	n/a	"NULL"	"NULL"	"NULL"	"stimuli/Ebbinghaus_0000000_-1.4000.png"	n/a	"Ebbinghaus"	"arrowright"	"1997"	"TRUE"	"Ebbinghaus"	"000000000000"	"-1.400000000"	"1"	"1"
n/a	"html-keyboard-response"	"9"	"521402294"	"0.0-4.0-1.0-2.0-0.1"	"y3hbu8"	"563"	"952"	"chrome"	"109.0.0"	"FALSE"	"Windows 10"	"61.54"	"006"	n/a	n/a	n/a	n/a	n/a	n/a	"fixation"	n/a	n/a	n/a	n/a	"NULL"	n/a	"NULL"	"NULL"	"NULL"	"<p style=\"color: black; font-size: 80px; padding-left: 28%; padding-right: 23%; padding-top: 19%; padding-bottom: 7%\">+</p>"	"1171"	n/a	n/a	n/a	n/a	n/a	n/a	n/a	n/a	n/a
n/a	"image-keyboard-response"	"10"	"521402892"	"0.0-4.0-1.0-2.0-1.1"	"y3hbu8"	"563"	"952"	"chrome"	"109.0.0"	"FALSE"	"Windows 10"	"61.54"	"006"	n/a	n/a	n/a	n/a	n/a	n/a	"Trial"	n/a	n/a	n/a	"597"	"arrowleft"	n/a	"NULL"	"NULL"	"NULL"	"stimuli/Ebbinghaus_-100000_1.40000.png"	n/a	"Ebbinghaus"	"arrowleft"	"1183"	"TRUE"	"Ebbinghaus"	"-10000000000"	"1.4000000000"	"1"	"2"
n/a	"html-keyboard-response"	"11"	"521403955"	"0.0-4.0-1.0-2.0-0.2"	"y3hbu8"	"563"	"952"	"chrome"	"109.0.0"	"FALSE"	"Windows 10"	"61.54"	"006"	n/a	n/a	n/a	n/a	n/a	n/a	"fixation"	n/a	n/a	n/a	n/a	"NULL"	n/a	"NULL"	"NULL"	"NULL"	"<p style=\"color: black; font-size: 80px; padding-left: 10%; padding-right: 29%; padding-top: 25%; padding-bottom: 2%\">+</p>"	"1044"	n/a	n/a	n/a	n/a	n/a	n/a	n/a	n/a	n/a
n/a	"image-keyboard-response"	"12"	"521404663"	"0.0-4.0-1.0-2.0-1.2"	"y3hbu8"	"563"	"952"	"chrome"	"109.0.0"	"FALSE"	"Windows 10"	"61.54"	"006"	n/a	n/a	n/a	n/a	n/a	n/a	"Trial"	n/a	n/a	n/a	"707"	"arrowleft"	n/a	"NULL"	"NULL"	"NULL"	"stimuli/Ebbinghaus_1000000_1.40000.png"	n/a	"Ebbinghaus"	"arrowleft"	"1063"	"TRUE"	"Ebbinghaus"	"100000000000"	"1.4000000000"	"1"	"3"
n/a	"html-keyboard-response"	"13"	"521405901"	"0.0-4.0-1.0-2.0-0.3"	"y3hbu8"	"563"	"952"	"chrome"	"109.0.0"	"FALSE"	"Windows 10"	"61.54"	"006"	n/a	n/a	n/a	n/a	n/a	n/a	"fixation"	n/a	n/a	n/a	n/a	"NULL"	n/a	"NULL"	"NULL"	"NULL"	"<p style=\"color: black; font-size: 80px; padding-left: 44%; padding-right: 46%; padding-top: 39%; padding-bottom: 25%\">+</p>"	"1229"	n/a	n/a	n/a	n/a	n/a	n/a	n/a	n/a	n/a
n/a	"image-keyboard-response"	"14"	"521406430"	"0.0-4.0-1.0-2.0-1.3"	"y3hbu8"	"563"	"952"	"chrome"	"109.0.0"	"FALSE"	"Windows 10"	"61.54"	"006"	n/a	n/a	n/a	n/a	n/a	n/a	"Trial"	n/a	n/a	n/a	"528"	"arrowright"	n/a	"NULL"	"NULL"	"NULL"	"stimuli/Ebbinghaus_1000000_-1.4000.png"	n/a	"Ebbinghaus"	"arrowright"	"1238"	"TRUE"	"Ebbinghaus"	"100000000000"	"-1.400000000"	"1"	"4"
n/a	"html-keyboard-response"	"15"	"521407509"	"0.0-4.0-1.0-2.0-0.4"	"y3hbu8"	"563"	"952"	"chrome"	"109.0.0"	"FALSE"	"Windows 10"	"61.54"	"006"	n/a	n/a	n/a	n/a	n/a	n/a	"fixation"	n/a	n/a	n/a	n/a	"NULL"	n/a	"NULL"	"NULL"	"NULL"	"<p style=\"color: black; font-size: 80px; padding-left: 33%; padding-right: 1%; padding-top: 45%; padding-bottom: 9%\">+</p>"	"1063"	n/a	n/a	n/a	n/a	n/a	n/a	n/a	n/a	n/a
n/a	"image-keyboard-response"	"16"	"521407957"	"0.0-4.0-1.0-2.0-1.4"	"y3hbu8"	"563"	"952"	"chrome"	"109.0.0"	"FALSE"	"Windows 10"	"61.54"	"006"	n/a	n/a	n/a	n/a	n/a	n/a	"Trial"	n/a	n/a	n/a	"447"	"arrowleft"	n/a	"NULL"	"NULL"	"NULL"	"stimuli/Ebbinghaus_0000000_1.40000.png"	n/a	"Ebbinghaus"	"arrowleft"	"1079"	"TRUE"	"Ebbinghaus"	"000000000000"	"1.4000000000"	"1"	"5"
n/a	"html-keyboard-response"	"17"	"521409139"	"0.0-4.0-1.0-2.0-0.5"	"y3hbu8"	"563"	"952"	"chrome"	"109.0.0"	"FALSE"	"Windows 10"	"61.54"	"006"	n/a	n/a	n/a	n/a	n/a	n/a	"fixation"	n/a	n/a	n/a	n/a	"NULL"	n/a	"NULL"	"NULL"	"NULL"	"<p style=\"color: black; font-size: 80px; padding-left: 22%; padding-right: 13%; padding-top: 36%; padding-bottom: 44%\">+</p>"	"1170"	n/a	n/a	n/a	n/a	n/a	n/a	n/a	n/a	n/a
n/a	"image-keyboard-response"	"18"	"521409654"	"0.0-4.0-1.0-2.0-1.5"	"y3hbu8"	"563"	"952"	"chrome"	"109.0.0"	"FALSE"	"Windows 10"	"61.54"	"006"	n/a	n/a	n/a	n/a	n/a	n/a	"Trial"	n/a	n/a	n/a	"513"	"arrowright"	n/a	"NULL"	"NULL"	"NULL"	"stimuli/Ebbinghaus_-100000_-1.4000.png"	n/a	"Ebbinghaus"	"arrowright"	"1182"	"TRUE"	"Ebbinghaus"	"-10000000000"	"-1.400000000"	"1"	"6"
n/a	"html-button-response"	"19"	"521415014"	"0.0-4.0-1.0-3.0"	"y3hbu8"	"563"	"952"	"chrome"	"109.0.0"	"FALSE"	"Windows 10"	"61.54"	"006"	n/a	n/a	n/a	n/a	n/a	n/a	"practice_block_results"	n/a	n/a	n/a	"5355"	"0"	n/a	"NULL"	"NULL"	"NULL"	"<p style='color:rgb(76,175,80);'> Correct Responses: <b>100.00%</b></p><hr><p style='color:rgb(233,30,99);'> Average Response Time: <b>703.67</b> ms.</p>"	n/a	n/a	n/a	n/a	n/a	n/a	n/a	n/a	n/a	n/a
"TRUE"	"preload"	"20"	"521415681"	"0.0-4.0-2.0-0.0"	"y3hbu8"	"563"	"952"	"chrome"	"109.0.0"	"FALSE"	"Windows 10"	"61.54"	"006"	n/a	n/a	n/a	n/a	n/a	n/a	n/a	n/a	n/a	n/a	n/a	"NULL"	"FALSE"	"list()"	"list()"	"list()"	n/a	n/a	n/a	n/a	n/a	n/a	n/a	n/a	n/a	n/a	n/a
n/a	"html-keyboard-response"	"21"	"521423541"	"0.0-4.0-2.0-1.0"	"y3hbu8"	"563"	"952"	"chrome"	"109.0.0"	"FALSE"	"Windows 10"	"61.54"	"006"	n/a	n/a	n/a	n/a	n/a	n/a	n/a	n/a	n/a	n/a	"7859"	"enter"	n/a	"NULL"	"NULL"	"NULL"	"<p><b>Practice</b></p><p>In this part, two horizontal red lines will appear one above the other.</p><p>Your task is to select which <b>line is longer</b> in length as fast as you can, without making errors.</p><p>Don't get distracted by the surrounding black arrows at the end of the red lines!</p><p>Press <b>the UP or the DOWN arrow</b> to indicate where is the longer <b>red line.</b></p><div style='float: center'><img src='materials/instructions/MullerLyer_Demo.png' height='300'></img><p><img src='utils/answer/answer_updown_keyboard.PNG' height='150'></img></p><p class='small'>In this example, the correct answer is the <b>UP arrow</b>.</p></div><p>Are you ready? <b>Press ENTER to start</b></p>"	n/a	n/a	n/a	n/a	n/a	n/a	n/a	n/a	n/a	n/a
n/a	"html-keyboard-response"	"22"	"521425116"	"0.0-4.0-2.0-2.0-0.0"	"y3hbu8"	"563"	"952"	"chrome"	"109.0.0"	"FALSE"	"Windows 10"	"61.54"	"006"	n/a	n/a	n/a	n/a	n/a	n/a	"fixation"	n/a	n/a	n/a	n/a	"NULL"	n/a	"NULL"	"NULL"	"NULL"	"<p style=\"color: black; font-size: 80px; padding-left: 33%; padding-right: 1%; padding-top: 7%; padding-bottom: 16%\">+</p>"	"1043"	n/a	n/a	n/a	n/a	n/a	n/a	n/a	n/a	n/a
n/a	"image-keyboard-response"	"23"	"521425639"	"0.0-4.0-2.0-2.0-1.0"	"y3hbu8"	"563"	"952"	"chrome"	"109.0.0"	"FALSE"	"Windows 10"	"61.54"	"006"	n/a	n/a	n/a	n/a	n/a	n/a	"Trial"	n/a	n/a	n/a	"521"	"arrowdown"	n/a	"NULL"	"NULL"	"NULL"	"stimuli/MullerLyer_0000000_-0.7000.png"	n/a	"MullerLyer"	"arrowdown"	"1575"	"TRUE"	"MullerLyer"	"000000000000"	"-0.700000000"	"1"	"7"
n/a	"html-keyboard-response"	"24"	"521427149"	"0.0-4.0-2.0-2.0-0.1"	"y3hbu8"	"563"	"952"	"chrome"	"109.0.0"	"FALSE"	"Windows 10"	"61.54"	"006"	n/a	n/a	n/a	n/a	n/a	n/a	"fixation"	n/a	n/a	n/a	n/a	"NULL"	n/a	"NULL"	"NULL"	"NULL"	"<p style=\"color: black; font-size: 80px; padding-left: 7%; padding-right: 32%; padding-top: 40%; padding-bottom: 33%\">+</p>"	"1499"	n/a	n/a	n/a	n/a	n/a	n/a	n/a	n/a	n/a
n/a	"image-keyboard-response"	"25"	"521427592"	"0.0-4.0-2.0-2.0-1.1"	"y3hbu8"	"563"	"952"	"chrome"	"109.0.0"	"FALSE"	"Windows 10"	"61.54"	"006"	n/a	n/a	n/a	n/a	n/a	n/a	"Trial"	n/a	n/a	n/a	"442"	"arrowdown"	n/a	"NULL"	"NULL"	"NULL"	"stimuli/MullerLyer_-230000_-0.7000.png"	n/a	"MullerLyer"	"arrowdown"	"1510"	"TRUE"	"MullerLyer"	"-23000000000"	"-0.700000000"	"1"	"8"
n/a	"html-keyboard-response"	"26"	"521428718"	"0.0-4.0-2.0-2.0-0.2"	"y3hbu8"	"563"	"952"	"chrome"	"109.0.0"	"FALSE"	"Windows 10"	"61.54"	"006"	n/a	n/a	n/a	n/a	n/a	n/a	"fixation"	n/a	n/a	n/a	n/a	"NULL"	n/a	"NULL"	"NULL"	"NULL"	"<p style=\"color: black; font-size: 80px; padding-left: 28%; padding-right: 46%; padding-top: 36%; padding-bottom: 30%\">+</p>"	"1107"	n/a	n/a	n/a	n/a	n/a	n/a	n/a	n/a	n/a
n/a	"image-keyboard-response"	"27"	"521429148"	"0.0-4.0-2.0-2.0-1.2"	"y3hbu8"	"563"	"952"	"chrome"	"109.0.0"	"FALSE"	"Windows 10"	"61.54"	"006"	n/a	n/a	n/a	n/a	n/a	n/a	"Trial"	n/a	n/a	n/a	"428"	"arrowup"	n/a	"NULL"	"NULL"	"NULL"	"stimuli/MullerLyer_-230000_0.70000.png"	n/a	"MullerLyer"	"arrowup"	"1126"	"TRUE"	"MullerLyer"	"-23000000000"	"0.7000000000"	"1"	"9"
n/a	"html-keyboard-response"	"28"	"521430576"	"0.0-4.0-2.0-2.0-0.3"	"y3hbu8"	"563"	"952"	"chrome"	"109.0.0"	"FALSE"	"Windows 10"	"61.54"	"006"	n/a	n/a	n/a	n/a	n/a	n/a	"fixation"	n/a	n/a	n/a	n/a	"NULL"	n/a	"NULL"	"NULL"	"NULL"	"<p style=\"color: black; font-size: 80px; padding-left: 28%; padding-right: 8%; padding-top: 5%; padding-bottom: 42%\">+</p>"	"1416"	n/a	n/a	n/a	n/a	n/a	n/a	n/a	n/a	n/a
n/a	"image-keyboard-response"	"29"	"521430959"	"0.0-4.0-2.0-2.0-1.3"	"y3hbu8"	"563"	"952"	"chrome"	"109.0.0"	"FALSE"	"Windows 10"	"61.54"	"006"	n/a	n/a	n/a	n/a	n/a	n/a	"Trial"	n/a	n/a	n/a	"383"	"arrowup"	n/a	"NULL"	"NULL"	"NULL"	"stimuli/MullerLyer_0000000_0.70000.png"	n/a	"MullerLyer"	"arrowup"	"1428"	"TRUE"	"MullerLyer"	"000000000000"	"0.7000000000"	"1"	"10"
n/a	"html-keyboard-response"	"30"	"521431991"	"0.0-4.0-2.0-2.0-0.4"	"y3hbu8"	"563"	"952"	"chrome"	"109.0.0"	"FALSE"	"Windows 10"	"61.54"	"006"	n/a	n/a	n/a	n/a	n/a	n/a	"fixation"	n/a	n/a	n/a	n/a	"NULL"	n/a	"NULL"	"NULL"	"NULL"	"<p style=\"color: black; font-size: 80px; padding-left: 40%; padding-right: 50%; padding-top: 11%; padding-bottom: 50%\">+</p>"	"1010"	n/a	n/a	n/a	n/a	n/a	n/a	n/a	n/a	n/a
n/a	"image-keyboard-response"	"31"	"521432482"	"0.0-4.0-2.0-2.0-1.4"	"y3hbu8"	"563"	"952"	"chrome"	"109.0.0"	"FALSE"	"Windows 10"	"61.54"	"006"	n/a	n/a	n/a	n/a	n/a	n/a	"Trial"	n/a	n/a	n/a	"490"	"arrowdown"	n/a	"NULL"	"NULL"	"NULL"	"stimuli/MullerLyer_2300000_-0.7000.png"	n/a	"MullerLyer"	"arrowdown"	"1032"	"TRUE"	"MullerLyer"	"230000000000"	"-0.700000000"	"1"	"11"
n/a	"html-keyboard-response"	"32"	"521433524"	"0.0-4.0-2.0-2.0-0.5"	"y3hbu8"	"563"	"952"	"chrome"	"109.0.0"	"FALSE"	"Windows 10"	"61.54"	"006"	n/a	n/a	n/a	n/a	n/a	n/a	"fixation"	n/a	n/a	n/a	n/a	"NULL"	n/a	"NULL"	"NULL"	"NULL"	"<p style=\"color: black; font-size: 80px; padding-left: 15%; padding-right: 43%; padding-top: 40%; padding-bottom: 1%\">+</p>"	"1036"	n/a	n/a	n/a	n/a	n/a	n/a	n/a	n/a	n/a
n/a	"image-keyboard-response"	"33"	"521433989"	"0.0-4.0-2.0-2.0-1.5"	"y3hbu8"	"563"	"952"	"chrome"	"109.0.0"	"FALSE"	"Windows 10"	"61.54"	"006"	n/a	n/a	n/a	n/a	n/a	n/a	"Trial"	n/a	n/a	n/a	"462"	"arrowup"	n/a	"NULL"	"NULL"	"NULL"	"stimuli/MullerLyer_2300000_0.70000.png"	n/a	"MullerLyer"	"arrowup"	"1042"	"TRUE"	"MullerLyer"	"230000000000"	"0.7000000000"	"1"	"12"
n/a	"html-button-response"	"34"	"521436970"	"0.0-4.0-2.0-3.0"	"y3hbu8"	"563"	"952"	"chrome"	"109.0.0"	"FALSE"	"Windows 10"	"61.54"	"006"	n/a	n/a	n/a	n/a	n/a	n/a	"practice_block_results"	n/a	n/a	n/a	"2979"	"0"	n/a	"NULL"	"NULL"	"NULL"	"<p style='color:rgb(76,175,80);'> Correct Responses: <b>100.00%</b></p><hr><p style='color:rgb(233,30,99);'> Average Response Time: <b>454.33</b> ms.</p>"	n/a	n/a	n/a	n/a	n/a	n/a	n/a	n/a	n/a	n/a
"TRUE"	"preload"	"35"	"521437508"	"0.0-4.0-3.0-0.0"	"y3hbu8"	"563"	"952"	"chrome"	"109.0.0"	"FALSE"	"Windows 10"	"61.54"	"006"	n/a	n/a	n/a	n/a	n/a	n/a	n/a	n/a	n/a	n/a	n/a	"NULL"	"FALSE"	"list()"	"list()"	"list()"	n/a	n/a	n/a	n/a	n/a	n/a	n/a	n/a	n/a	n/a	n/a
n/a	"html-keyboard-response"	"36"	"521444016"	"0.0-4.0-3.0-1.0"	"y3hbu8"	"563"	"952"	"chrome"	"109.0.0"	"FALSE"	"Windows 10"	"61.54"	"006"	n/a	n/a	n/a	n/a	n/a	n/a	n/a	n/a	n/a	n/a	"6507"	"enter"	n/a	"NULL"	"NULL"	"NULL"	"<p><b>Practice</b></p><p>In this part, two red lines will appear side by side.</p><p>Your task is to tell <b>which line is longer</b> in length, regardless of their orientation, as fast as you can, and without making errors.</p><p>Don't get distracted by the orientation of the lines!</p><p>Press <b>the LEFT or the RIGHT arrow</b> to indicate which <b>line is the longer one.</b></p><div style='float: center'><img src='materials/instructions/VerticalHorizontal_Demo.png' height='300'></img><p><img src='utils/answer/answer_leftright_keyboard.PNG' height='150'></img></p><p class='small'>In this example, the correct answer is the <b>LEFT arrow</b>.</p></div><p>Are you ready? <b>Press ENTER to start</b></p>"	n/a	n/a	n/a	n/a	n/a	n/a	n/a	n/a	n/a	n/a
n/a	"html-keyboard-response"	"37"	"521445791"	"0.0-4.0-3.0-2.0-0.0"	"y3hbu8"	"563"	"952"	"chrome"	"109.0.0"	"FALSE"	"Windows 10"	"61.54"	"006"	n/a	n/a	n/a	n/a	n/a	n/a	"fixation"	n/a	n/a	n/a	n/a	"NULL"	n/a	"NULL"	"NULL"	"NULL"	"<p style=\"color: black; font-size: 80px; padding-left: 31%; padding-right: 25%; padding-top: 21%; padding-bottom: 22%\">+</p>"	"1250"	n/a	n/a	n/a	n/a	n/a	n/a	n/a	n/a	n/a
n/a	"image-keyboard-response"	"38"	"521446238"	"0.0-4.0-3.0-2.0-1.0"	"y3hbu8"	"563"	"952"	"chrome"	"109.0.0"	"FALSE"	"Windows 10"	"61.54"	"006"	n/a	n/a	n/a	n/a	n/a	n/a	"Trial"	n/a	n/a	n/a	"446"	"arrowleft"	n/a	"NULL"	"NULL"	"NULL"	"stimuli/VerticalHorizontal_-330000_0.90000.png"	n/a	"VerticalHorizontal"	"arrowleft"	"1775"	"TRUE"	"VerticalHorizontal"	"-33000000000"	"0.9000000000"	"1"	"13"
n/a	"html-keyboard-response"	"39"	"521447649"	"0.0-4.0-3.0-2.0-0.1"	"y3hbu8"	"563"	"952"	"chrome"	"109.0.0"	"FALSE"	"Windows 10"	"61.54"	"006"	n/a	n/a	n/a	n/a	n/a	n/a	"fixation"	n/a	n/a	n/a	n/a	"NULL"	n/a	"NULL"	"NULL"	"NULL"	"<p style=\"color: black; font-size: 80px; padding-left: 29%; padding-right: 30%; padding-top: 21%; padding-bottom: 42%\">+</p>"	"1393"	n/a	n/a	n/a	n/a	n/a	n/a	n/a	n/a	n/a
n/a	"image-keyboard-response"	"40"	"521447947"	"0.0-4.0-3.0-2.0-1.1"	"y3hbu8"	"563"	"952"	"chrome"	"109.0.0"	"FALSE"	"Windows 10"	"61.54"	"006"	n/a	n/a	n/a	n/a	n/a	n/a	"Trial"	n/a	n/a	n/a	"297"	"arrowright"	n/a	"NULL"	"NULL"	"NULL"	"stimuli/VerticalHorizontal_-330000_-0.9000.png"	n/a	"VerticalHorizontal"	"arrowright"	"1411"	"TRUE"	"VerticalHorizontal"	"-33000000000"	"-0.900000000"	"1"	"14"
n/a	"html-keyboard-response"	"41"	"521449022"	"0.0-4.0-3.0-2.0-0.2"	"y3hbu8"	"563"	"952"	"chrome"	"109.0.0"	"FALSE"	"Windows 10"	"61.54"	"006"	n/a	n/a	n/a	n/a	n/a	n/a	"fixation"	n/a	n/a	n/a	n/a	"NULL"	n/a	"NULL"	"NULL"	"NULL"	"<p style=\"color: black; font-size: 80px; padding-left: 23%; padding-right: 24%; padding-top: 32%; padding-bottom: 7%\">+</p>"	"1059"	n/a	n/a	n/a	n/a	n/a	n/a	n/a	n/a	n/a
n/a	"image-keyboard-response"	"42"	"521449472"	"0.0-4.0-3.0-2.0-1.2"	"y3hbu8"	"563"	"952"	"chrome"	"109.0.0"	"FALSE"	"Windows 10"	"61.54"	"006"	n/a	n/a	n/a	n/a	n/a	n/a	"Trial"	n/a	n/a	n/a	"449"	"arrowright"	n/a	"NULL"	"NULL"	"NULL"	"stimuli/VerticalHorizontal_0000000_-0.9000.png"	n/a	"VerticalHorizontal"	"arrowright"	"1075"	"TRUE"	"VerticalHorizontal"	"000000000000"	"-0.900000000"	"1"	"15"
n/a	"html-keyboard-response"	"43"	"521450633"	"0.0-4.0-3.0-2.0-0.3"	"y3hbu8"	"563"	"952"	"chrome"	"109.0.0"	"FALSE"	"Windows 10"	"61.54"	"006"	n/a	n/a	n/a	n/a	n/a	n/a	"fixation"	n/a	n/a	n/a	n/a	"NULL"	n/a	"NULL"	"NULL"	"NULL"	"<p style=\"color: black; font-size: 80px; padding-left: 39%; padding-right: 5%; padding-top: 41%; padding-bottom: 5%\">+</p>"	"1148"	n/a	n/a	n/a	n/a	n/a	n/a	n/a	n/a	n/a
n/a	"image-keyboard-response"	"44"	"521451088"	"0.0-4.0-3.0-2.0-1.3"	"y3hbu8"	"563"	"952"	"chrome"	"109.0.0"	"FALSE"	"Windows 10"	"61.54"	"006"	n/a	n/a	n/a	n/a	n/a	n/a	"Trial"	n/a	n/a	n/a	"454"	"arrowleft"	n/a	"NULL"	"NULL"	"NULL"	"stimuli/VerticalHorizontal_3300000_0.90000.png"	n/a	"VerticalHorizontal"	"arrowleft"	"1161"	"TRUE"	"VerticalHorizontal"	"330000000000"	"0.9000000000"	"1"	"16"
n/a	"html-keyboard-response"	"45"	"521452274"	"0.0-4.0-3.0-2.0-0.4"	"y3hbu8"	"563"	"952"	"chrome"	"109.0.0"	"FALSE"	"Windows 10"	"61.54"	"006"	n/a	n/a	n/a	n/a	n/a	n/a	"fixation"	n/a	n/a	n/a	n/a	"NULL"	n/a	"NULL"	"NULL"	"NULL"	"<p style=\"color: black; font-size: 80px; padding-left: 0%; padding-right: 32%; padding-top: 25%; padding-bottom: 5%\">+</p>"	"1180"	n/a	n/a	n/a	n/a	n/a	n/a	n/a	n/a	n/a
n/a	"image-keyboard-response"	"46"	"521452689"	"0.0-4.0-3.0-2.0-1.4"	"y3hbu8"	"563"	"952"	"chrome"	"109.0.0"	"FALSE"	"Windows 10"	"61.54"	"006"	n/a	n/a	n/a	n/a	n/a	n/a	"Trial"	n/a	n/a	n/a	"412"	"arrowright"	n/a	"NULL"	"NULL"	"NULL"	"stimuli/VerticalHorizontal_3300000_-0.9000.png"	n/a	"VerticalHorizontal"	"arrowright"	"1186"	"TRUE"	"VerticalHorizontal"	"330000000000"	"-0.900000000"	"1"	"17"
n/a	"html-keyboard-response"	"47"	"521454039"	"0.0-4.0-3.0-2.0-0.5"	"y3hbu8"	"563"	"952"	"chrome"	"109.0.0"	"FALSE"	"Windows 10"	"61.54"	"006"	n/a	n/a	n/a	n/a	n/a	n/a	"fixation"	n/a	n/a	n/a	n/a	"NULL"	n/a	"NULL"	"NULL"	"NULL"	"<p style=\"color: black; font-size: 80px; padding-left: 35%; padding-right: 8%; padding-top: 24%; padding-bottom: 4%\">+</p>"	"1335"	n/a	n/a	n/a	n/a	n/a	n/a	n/a	n/a	n/a
n/a	"image-keyboard-response"	"48"	"521454399"	"0.0-4.0-3.0-2.0-1.5"	"y3hbu8"	"563"	"952"	"chrome"	"109.0.0"	"FALSE"	"Windows 10"	"61.54"	"006"	n/a	n/a	n/a	n/a	n/a	n/a	"Trial"	n/a	n/a	n/a	"359"	"arrowleft"	n/a	"NULL"	"NULL"	"NULL"	"stimuli/VerticalHorizontal_0000000_0.90000.png"	n/a	"VerticalHorizontal"	"arrowleft"	"1350"	"TRUE"	"VerticalHorizontal"	"000000000000"	"0.9000000000"	"1"	"18"
n/a	"html-button-response"	"49"	"521456089"	"0.0-4.0-3.0-3.0"	"y3hbu8"	"563"	"952"	"chrome"	"109.0.0"	"FALSE"	"Windows 10"	"61.54"	"006"	n/a	n/a	n/a	n/a	n/a	n/a	"practice_block_results"	n/a	n/a	n/a	"1689"	"0"	n/a	"NULL"	"NULL"	"NULL"	"<p style='color:rgb(76,175,80);'> Correct Responses: <b>100.00%</b></p><hr><p style='color:rgb(233,30,99);'> Average Response Time: <b>402.83</b> ms.</p>"	n/a	n/a	n/a	n/a	n/a	n/a	n/a	n/a	n/a	n/a
n/a	"html-button-response"	"50"	"521529871"	"0.0-4.0-4.0"	"y3hbu8"	"563"	"952"	"chrome"	"109.0.0"	"FALSE"	"Windows 10"	"61.54"	"006"	n/a	n/a	n/a	n/a	n/a	n/a	"practice_debrief"	n/a	n/a	n/a	"73269"	"0"	n/a	"NULL"	"NULL"	"NULL"	"<p><b>TRAINING COMPLETED</b></p><p>In the next phase, there will be more trials, and some might be harder too.<br> Moreover, after each illusion block, a <b>score</b> will be calculated based on speed (time you took to answer) and accuracy (number of errors).</p><p>Try to keep up a high score!</p><br><p>Note that it can be <i>really</i> challenging at times, so you will need to rely on your <b>intuition</b> and gut feeling to answer as fast as you can without making errors.</p><p>Each illusion block will be repeated two times (so that you have the opportunity to improve your score), but the order of the blocks is random.</p><p>Remember, your goal is to be as <b>fast</b> and <b>accurate</b> as possible. Good luck!</p><br>"	n/a	n/a	n/a	n/a	n/a	n/a	n/a	n/a	n/a	n/a
"TRUE"	"preload"	"51"	"521530076"	"0.0-5.0-0.0"	"y3hbu8"	"563"	"952"	"chrome"	"109.0.0"	"FALSE"	"Windows 10"	"61.54"	"006"	n/a	n/a	n/a	n/a	n/a	n/a	n/a	n/a	n/a	n/a	n/a	"NULL"	"FALSE"	"list()"	"list()"	"list()"	n/a	n/a	n/a	n/a	n/a	n/a	n/a	n/a	n/a	n/a	n/a
n/a	"html-keyboard-response"	"52"	"521535641"	"0.0-5.0-1.0"	"y3hbu8"	"563"	"952"	"chrome"	"109.0.0"	"FALSE"	"Windows 10"	"61.54"	"006"	n/a	n/a	n/a	n/a	n/a	n/a	n/a	n/a	n/a	n/a	"5565"	"enter"	n/a	"NULL"	"NULL"	"NULL"	"<p><b>Part 1/6</b></p><p>In this part, two red circles will appear side by side on the screen.</p><p>Your task is to select which <b>red circle is bigger</b> in size as fast as you can, without making errors.</p><p>Don't get distracted by the surrounding black circles around the red circles!</p><p>Press <b>the LEFT or the RIGHT arrow</b> to indicate which is the bigger <b>red circle.</b></p><div style='float: center'><img src='materials/instructions/Ebbinghaus_Demo.png' height='300'></img><p><img src='utils/answer/answer_leftright_keyboard.PNG' height='150'></img></p><p class='small'>In this example, the correct answer is the <b>LEFT arrow</b>.</p></div><p>Are you ready? <b>Press ENTER to start</b></p>"	n/a	n/a	n/a	n/a	n/a	n/a	n/a	n/a	n/a	n/a
n/a	"html-keyboard-response"	"53"	"521537256"	"0.0-5.0-2.0-0.0"	"y3hbu8"	"563"	"952"	"chrome"	"109.0.0"	"FALSE"	"Windows 10"	"61.54"	"006"	n/a	n/a	n/a	n/a	n/a	n/a	"fixation"	n/a	n/a	n/a	n/a	"NULL"	n/a	"NULL"	"NULL"	"NULL"	"<p style=\"color: black; font-size: 80px; padding-left: 15%; padding-right: 15%; padding-top: 31%; padding-bottom: 33%\">+</p>"	"1095"	n/a	n/a	n/a	n/a	n/a	n/a	n/a	n/a	n/a
n/a	"image-keyboard-response"	"54"	"521537993"	"0.0-5.0-2.0-1.0"	"y3hbu8"	"563"	"952"	"chrome"	"109.0.0"	"FALSE"	"Windows 10"	"61.54"	"006"	n/a	n/a	n/a	n/a	n/a	n/a	"Trial"	n/a	n/a	n/a	"736"	"arrowright"	n/a	"NULL"	"NULL"	"NULL"	"stimuli/Ebbinghaus_0.35714_-0.2800.png"	n/a	"Ebbinghaus"	"arrowright"	"1615"	"TRUE"	"Ebbinghaus"	"0.3571400000"	"-0.280000000"	"1"	"19"
n/a	"html-keyboard-response"	"55"	"521539148"	"0.0-5.0-2.0-0.1"	"y3hbu8"	"563"	"952"	"chrome"	"109.0.0"	"FALSE"	"Windows 10"	"61.54"	"006"	n/a	n/a	n/a	n/a	n/a	n/a	"fixation"	n/a	n/a	n/a	n/a	"NULL"	n/a	"NULL"	"NULL"	"NULL"	"<p style=\"color: black; font-size: 80px; padding-left: 50%; padding-right: 8%; padding-top: 10%; padding-bottom: 33%\">+</p>"	"1134"	n/a	n/a	n/a	n/a	n/a	n/a	n/a	n/a	n/a
n/a	"image-keyboard-response"	"56"	"521539648"	"0.0-5.0-2.0-1.1"	"y3hbu8"	"563"	"952"	"chrome"	"109.0.0"	"FALSE"	"Windows 10"	"61.54"	"006"	n/a	n/a	n/a	n/a	n/a	n/a	"Trial"	n/a	n/a	n/a	"498"	"arrowleft"	n/a	"NULL"	"NULL"	"NULL"	"stimuli/Ebbinghaus_0.61429_0.11071.png"	n/a	"Ebbinghaus"	"arrowleft"	"1155"	"TRUE"	"Ebbinghaus"	"0.6142900000"	"0.1107100000"	"1"	"20"
n/a	"html-keyboard-response"	"57"	"521540878"	"0.0-5.0-2.0-0.2"	"y3hbu8"	"563"	"952"	"chrome"	"109.0.0"	"FALSE"	"Windows 10"	"61.54"	"006"	n/a	n/a	n/a	n/a	n/a	n/a	"fixation"	n/a	n/a	n/a	n/a	"NULL"	n/a	"NULL"	"NULL"	"NULL"	"<p style=\"color: black; font-size: 80px; padding-left: 42%; padding-right: 33%; padding-top: 4%; padding-bottom: 14%\">+</p>"	"1218"	n/a	n/a	n/a	n/a	n/a	n/a	n/a	n/a	n/a
n/a	"image-keyboard-response"	"58"	"521541675"	"0.0-5.0-2.0-1.2"	"y3hbu8"	"563"	"952"	"chrome"	"109.0.0"	"FALSE"	"Windows 10"	"61.54"	"006"	n/a	n/a	n/a	n/a	n/a	n/a	"Trial"	n/a	n/a	n/a	"796"	"arrowleft"	n/a	"NULL"	"NULL"	"NULL"	"stimuli/Ebbinghaus_-0.87143_0.15857.png"	n/a	"Ebbinghaus"	"arrowleft"	"1230"	"TRUE"	"Ebbinghaus"	"-0.871430000"	"0.1585700000"	"1"	"21"
n/a	"html-keyboard-response"	"59"	"521542732"	"0.0-5.0-2.0-0.3"	"y3hbu8"	"563"	"952"	"chrome"	"109.0.0"	"FALSE"	"Windows 10"	"61.54"	"006"	n/a	n/a	n/a	n/a	n/a	n/a	"fixation"	n/a	n/a	n/a	n/a	"NULL"	n/a	"NULL"	"NULL"	"NULL"	"<p style=\"color: black; font-size: 80px; padding-left: 26%; padding-right: 42%; padding-top: 22%; padding-bottom: 41%\">+</p>"	"1041"	n/a	n/a	n/a	n/a	n/a	n/a	n/a	n/a	n/a
n/a	"image-keyboard-response"	"60"	"521543367"	"0.0-5.0-2.0-1.3"	"y3hbu8"	"563"	"952"	"chrome"	"109.0.0"	"FALSE"	"Windows 10"	"61.54"	"006"	n/a	n/a	n/a	n/a	n/a	n/a	"Trial"	n/a	n/a	n/a	"634"	"arrowleft"	n/a	"NULL"	"NULL"	"NULL"	"stimuli/Ebbinghaus_0.35714_0.28000.png"	n/a	"Ebbinghaus"	"arrowleft"	"1057"	"TRUE"	"Ebbinghaus"	"0.3571400000"	"0.2800000000"	"1"	"22"
n/a	"html-keyboard-response"	"61"	"521544503"	"0.0-5.0-2.0-0.4"	"y3hbu8"	"563"	"952"	"chrome"	"109.0.0"	"FALSE"	"Windows 10"	"61.54"	"006"	n/a	n/a	n/a	n/a	n/a	n/a	"fixation"	n/a	n/a	n/a	n/a	"NULL"	n/a	"NULL"	"NULL"	"NULL"	"<p style=\"color: black; font-size: 80px; padding-left: 39%; padding-right: 40%; padding-top: 23%; padding-bottom: 10%\">+</p>"	"1130"	n/a	n/a	n/a	n/a	n/a	n/a	n/a	n/a	n/a
n/a	"image-keyboard-response"	"62"	"521545087"	"0.0-5.0-2.0-1.4"	"y3hbu8"	"563"	"952"	"chrome"	"109.0.0"	"FALSE"	"Windows 10"	"61.54"	"006"	n/a	n/a	n/a	n/a	n/a	n/a	"Trial"	n/a	n/a	n/a	"582"	"arrowright"	n/a	"NULL"	"NULL"	"NULL"	"stimuli/Ebbinghaus_-0.1000_-0.11071.png"	n/a	"Ebbinghaus"	"arrowright"	"1136"	"TRUE"	"Ebbinghaus"	"-0.100000000"	"-0.110710000"	"1"	"23"
n/a	"html-keyboard-response"	"63"	"521546270"	"0.0-5.0-2.0-0.5"	"y3hbu8"	"563"	"952"	"chrome"	"109.0.0"	"FALSE"	"Windows 10"	"61.54"	"006"	n/a	n/a	n/a	n/a	n/a	n/a	"fixation"	n/a	n/a	n/a	n/a	"NULL"	n/a	"NULL"	"NULL"	"NULL"	"<p style=\"color: black; font-size: 80px; padding-left: 35%; padding-right: 43%; padding-top: 9%; padding-bottom: 7%\">+</p>"	"1173"	n/a	n/a	n/a	n/a	n/a	n/a	n/a	n/a	n/a
n/a	"image-keyboard-response"	"64"	"521546795"	"0.0-5.0-2.0-1.5"	"y3hbu8"	"563"	"952"	"chrome"	"109.0.0"	"FALSE"	"Windows 10"	"61.54"	"006"	n/a	n/a	n/a	n/a	n/a	n/a	"Trial"	n/a	n/a	n/a	"523"	"arrowright"	n/a	"NULL"	"NULL"	"NULL"	"stimuli/Ebbinghaus_-0.1000_0.15857.png"	n/a	"Ebbinghaus"	"arrowleft"	"1183"	"FALSE"	"Ebbinghaus"	"-0.100000000"	"0.1585700000"	"1"	"24"
n/a	"html-keyboard-response"	"65"	"521547961"	"0.0-5.0-2.0-0.6"	"y3hbu8"	"563"	"952"	"chrome"	"109.0.0"	"FALSE"	"Windows 10"	"61.54"	"006"	n/a	n/a	n/a	n/a	n/a	n/a	"fixation"	n/a	n/a	n/a	n/a	"NULL"	n/a	"NULL"	"NULL"	"NULL"	"<p style=\"color: black; font-size: 80px; padding-left: 35%; padding-right: 24%; padding-top: 36%; padding-bottom: 20%\">+</p>"	"1162"	n/a	n/a	n/a	n/a	n/a	n/a	n/a	n/a	n/a
n/a	"image-keyboard-response"	"66"	"521548360"	"0.0-5.0-2.0-1.6"	"y3hbu8"	"563"	"952"	"chrome"	"109.0.0"	"FALSE"	"Windows 10"	"61.54"	"006"	n/a	n/a	n/a	n/a	n/a	n/a	"Trial"	n/a	n/a	n/a	"398"	"arrowleft"	n/a	"NULL"	"NULL"	"NULL"	"stimuli/Ebbinghaus_0.10000_-0.2800.png"	n/a	"Ebbinghaus"	"arrowright"	"1166"	"FALSE"	"Ebbinghaus"	"0.1000000000"	"-0.280000000"	"1"	"25"
n/a	"html-keyboard-response"	"67"	"521549384"	"0.0-5.0-2.0-0.7"	"y3hbu8"	"563"	"952"	"chrome"	"109.0.0"	"FALSE"	"Windows 10"	"61.54"	"006"	n/a	n/a	n/a	n/a	n/a	n/a	"fixation"	n/a	n/a	n/a	n/a	"NULL"	n/a	"NULL"	"NULL"	"NULL"	"<p style=\"color: black; font-size: 80px; padding-left: 13%; padding-right: 17%; padding-top: 27%; padding-bottom: 48%\">+</p>"	"1018"	n/a	n/a	n/a	n/a	n/a	n/a	n/a	n/a	n/a
n/a	"image-keyboard-response"	"68"	"521549910"	"0.0-5.0-2.0-1.7"	"y3hbu8"	"563"	"952"	"chrome"	"109.0.0"	"FALSE"	"Windows 10"	"61.54"	"006"	n/a	n/a	n/a	n/a	n/a	n/a	"Trial"	n/a	n/a	n/a	"524"	"arrowright"	n/a	"NULL"	"NULL"	"NULL"	"stimuli/Ebbinghaus_-0.61429_-0.11071.png"	n/a	"Ebbinghaus"	"arrowright"	"1024"	"TRUE"	"Ebbinghaus"	"-0.614290000"	"-0.110710000"	"1"	"26"
n/a	"html-keyboard-response"	"69"	"521551114"	"0.0-5.0-2.0-0.8"	"y3hbu8"	"563"	"952"	"chrome"	"109.0.0"	"FALSE"	"Windows 10"	"61.54"	"006"	n/a	n/a	n/a	n/a	n/a	n/a	"fixation"	n/a	n/a	n/a	n/a	"NULL"	n/a	"NULL"	"NULL"	"NULL"	"<p style=\"color: black; font-size: 80px; padding-left: 28%; padding-right: 32%; padding-top: 37%; padding-bottom: 15%\">+</p>"	"1195"	n/a	n/a	n/a	n/a	n/a	n/a	n/a	n/a	n/a
n/a	"image-keyboard-response"	"70"	"521551577"	"0.0-5.0-2.0-1.8"	"y3hbu8"	"563"	"952"	"chrome"	"109.0.0"	"FALSE"	"Windows 10"	"61.54"	"006"	n/a	n/a	n/a	n/a	n/a	n/a	"Trial"	n/a	n/a	n/a	"455"	"arrowleft"	n/a	"NULL"	"NULL"	"NULL"	"stimuli/Ebbinghaus_-0.35714_0.11071.png"	n/a	"Ebbinghaus"	"arrowleft"	"1204"	"TRUE"	"Ebbinghaus"	"-0.357140000"	"0.1107100000"	"1"	"27"
n/a	"html-keyboard-response"	"71"	"521552595"	"0.0-5.0-2.0-0.9"	"y3hbu8"	"563"	"952"	"chrome"	"109.0.0"	"FALSE"	"Windows 10"	"61.54"	"006"	n/a	n/a	n/a	n/a	n/a	n/a	"fixation"	n/a	n/a	n/a	n/a	"NULL"	n/a	"NULL"	"NULL"	"NULL"	"<p style=\"color: black; font-size: 80px; padding-left: 48%; padding-right: 38%; padding-top: 22%; padding-bottom: 32%\">+</p>"	"1004"	n/a	n/a	n/a	n/a	n/a	n/a	n/a	n/a	n/a
n/a	"image-keyboard-response"	"72"	"521553081"	"0.0-5.0-2.0-1.9"	"y3hbu8"	"563"	"952"	"chrome"	"109.0.0"	"FALSE"	"Windows 10"	"61.54"	"006"	n/a	n/a	n/a	n/a	n/a	n/a	"Trial"	n/a	n/a	n/a	"485"	"arrowright"	n/a	"NULL"	"NULL"	"NULL"	"stimuli/Ebbinghaus_0.35714_-0.15857.png"	n/a	"Ebbinghaus"	"arrowright"	"1018"	"TRUE"	"Ebbinghaus"	"0.3571400000"	"-0.158570000"	"1"	"28"
n/a	"html-keyboard-response"	"73"	"521554483"	"0.0-5.0-2.0-0.10"	"y3hbu8"	"563"	"952"	"chrome"	"109.0.0"	"FALSE"	"Windows 10"	"61.54"	"006"	n/a	n/a	n/a	n/a	n/a	n/a	"fixation"	n/a	n/a	n/a	n/a	"NULL"	n/a	"NULL"	"NULL"	"NULL"	"<p style=\"color: black; font-size: 80px; padding-left: 28%; padding-right: 30%; padding-top: 29%; padding-bottom: 44%\">+</p>"	"1382"	n/a	n/a	n/a	n/a	n/a	n/a	n/a	n/a	n/a
n/a	"image-keyboard-response"	"74"	"521555300"	"0.0-5.0-2.0-1.10"	"y3hbu8"	"563"	"952"	"chrome"	"109.0.0"	"FALSE"	"Windows 10"	"61.54"	"006"	n/a	n/a	n/a	n/a	n/a	n/a	"Trial"	n/a	n/a	n/a	"816"	"arrowleft"	n/a	"NULL"	"NULL"	"NULL"	"stimuli/Ebbinghaus_-0.35714_0.15857.png"	n/a	"Ebbinghaus"	"arrowleft"	"1402"	"TRUE"	"Ebbinghaus"	"-0.357140000"	"0.1585700000"	"1"	"29"
n/a	"html-keyboard-response"	"75"	"521556583"	"0.0-5.0-2.0-0.11"	"y3hbu8"	"563"	"952"	"chrome"	"109.0.0"	"FALSE"	"Windows 10"	"61.54"	"006"	n/a	n/a	n/a	n/a	n/a	n/a	"fixation"	n/a	n/a	n/a	n/a	"NULL"	n/a	"NULL"	"NULL"	"NULL"	"<p style=\"color: black; font-size: 80px; padding-left: 49%; padding-right: 32%; padding-top: 18%; padding-bottom: 9%\">+</p>"	"1275"	n/a	n/a	n/a	n/a	n/a	n/a	n/a	n/a	n/a
n/a	"image-keyboard-response"	"76"	"521557067"	"0.0-5.0-2.0-1.11"	"y3hbu8"	"563"	"952"	"chrome"	"109.0.0"	"FALSE"	"Windows 10"	"61.54"	"006"	n/a	n/a	n/a	n/a	n/a	n/a	"Trial"	n/a	n/a	n/a	"483"	"arrowleft"	n/a	"NULL"	"NULL"	"NULL"	"stimuli/Ebbinghaus_-0.61429_0.15857.png"	n/a	"Ebbinghaus"	"arrowleft"	"1283"	"TRUE"	"Ebbinghaus"	"-0.614290000"	"0.1585700000"	"1"	"30"
n/a	"html-keyboard-response"	"77"	"521558465"	"0.0-5.0-2.0-0.12"	"y3hbu8"	"563"	"952"	"chrome"	"109.0.0"	"FALSE"	"Windows 10"	"61.54"	"006"	n/a	n/a	n/a	n/a	n/a	n/a	"fixation"	n/a	n/a	n/a	n/a	"NULL"	n/a	"NULL"	"NULL"	"NULL"	"<p style=\"color: black; font-size: 80px; padding-left: 40%; padding-right: 6%; padding-top: 34%; padding-bottom: 22%\">+</p>"	"1383"	n/a	n/a	n/a	n/a	n/a	n/a	n/a	n/a	n/a
n/a	"image-keyboard-response"	"78"	"521559112"	"0.0-5.0-2.0-1.12"	"y3hbu8"	"563"	"952"	"chrome"	"109.0.0"	"FALSE"	"Windows 10"	"61.54"	"006"	n/a	n/a	n/a	n/a	n/a	n/a	"Trial"	n/a	n/a	n/a	"646"	"arrowright"	n/a	"NULL"	"NULL"	"NULL"	"stimuli/Ebbinghaus_0.87143_0.11071.png"	n/a	"Ebbinghaus"	"arrowleft"	"1398"	"FALSE"	"Ebbinghaus"	"0.8714300000"	"0.1107100000"	"1"	"31"
n/a	"html-keyboard-response"	"79"	"521560321"	"0.0-5.0-2.0-0.13"	"y3hbu8"	"563"	"952"	"chrome"	"109.0.0"	"FALSE"	"Windows 10"	"61.54"	"006"	n/a	n/a	n/a	n/a	n/a	n/a	"fixation"	n/a	n/a	n/a	n/a	"NULL"	n/a	"NULL"	"NULL"	"NULL"	"<p style=\"color: black; font-size: 80px; padding-left: 23%; padding-right: 10%; padding-top: 30%; padding-bottom: 25%\">+</p>"	"1198"	n/a	n/a	n/a	n/a	n/a	n/a	n/a	n/a	n/a
n/a	"image-keyboard-response"	"80"	"521560836"	"0.0-5.0-2.0-1.13"	"y3hbu8"	"563"	"952"	"chrome"	"109.0.0"	"FALSE"	"Windows 10"	"61.54"	"006"	n/a	n/a	n/a	n/a	n/a	n/a	"Trial"	n/a	n/a	n/a	"513"	"arrowleft"	n/a	"NULL"	"NULL"	"NULL"	"stimuli/Ebbinghaus_0.61429_-0.15857.png"	n/a	"Ebbinghaus"	"arrowright"	"1209"	"FALSE"	"Ebbinghaus"	"0.6142900000"	"-0.158570000"	"1"	"32"
n/a	"html-keyboard-response"	"81"	"521562053"	"0.0-5.0-2.0-0.14"	"y3hbu8"	"563"	"952"	"chrome"	"109.0.0"	"FALSE"	"Windows 10"	"61.54"	"006"	n/a	n/a	n/a	n/a	n/a	n/a	"fixation"	n/a	n/a	n/a	n/a	"NULL"	n/a	"NULL"	"NULL"	"NULL"	"<p style=\"color: black; font-size: 80px; padding-left: 7%; padding-right: 36%; padding-top: 29%; padding-bottom: 48%\">+</p>"	"1204"	n/a	n/a	n/a	n/a	n/a	n/a	n/a	n/a	n/a
n/a	"image-keyboard-response"	"82"	"521562637"	"0.0-5.0-2.0-1.14"	"y3hbu8"	"563"	"952"	"chrome"	"109.0.0"	"FALSE"	"Windows 10"	"61.54"	"006"	n/a	n/a	n/a	n/a	n/a	n/a	"Trial"	n/a	n/a	n/a	"583"	"arrowleft"	n/a	"NULL"	"NULL"	"NULL"	"stimuli/Ebbinghaus_0.10000_0.11071.png"	n/a	"Ebbinghaus"	"arrowleft"	"1217"	"TRUE"	"Ebbinghaus"	"0.1000000000"	"0.1107100000"	"1"	"33"
n/a	"html-keyboard-response"	"83"	"521564054"	"0.0-5.0-2.0-0.15"	"y3hbu8"	"563"	"952"	"chrome"	"109.0.0"	"FALSE"	"Windows 10"	"61.54"	"006"	n/a	n/a	n/a	n/a	n/a	n/a	"fixation"	n/a	n/a	n/a	n/a	"NULL"	n/a	"NULL"	"NULL"	"NULL"	"<p style=\"color: black; font-size: 80px; padding-left: 50%; padding-right: 34%; padding-top: 2%; padding-bottom: 20%\">+</p>"	"1401"	n/a	n/a	n/a	n/a	n/a	n/a	n/a	n/a	n/a
n/a	"image-keyboard-response"	"84"	"521564812"	"0.0-5.0-2.0-1.15"	"y3hbu8"	"563"	"952"	"chrome"	"109.0.0"	"FALSE"	"Windows 10"	"61.54"	"006"	n/a	n/a	n/a	n/a	n/a	n/a	"Trial"	n/a	n/a	n/a	"757"	"arrowleft"	n/a	"NULL"	"NULL"	"NULL"	"stimuli/Ebbinghaus_-0.61429_0.21500.png"	n/a	"Ebbinghaus"	"arrowleft"	"1417"	"TRUE"	"Ebbinghaus"	"-0.614290000"	"0.2150000000"	"1"	"34"
n/a	"html-keyboard-response"	"85"	"521565946"	"0.0-5.0-2.0-0.16"	"y3hbu8"	"563"	"952"	"chrome"	"109.0.0"	"FALSE"	"Windows 10"	"61.54"	"006"	n/a	n/a	n/a	n/a	n/a	n/a	"fixation"	n/a	n/a	n/a	n/a	"NULL"	n/a	"NULL"	"NULL"	"NULL"	"<p style=\"color: black; font-size: 80px; padding-left: 5%; padding-right: 42%; padding-top: 39%; padding-bottom: 7%\">+</p>"	"1129"	n/a	n/a	n/a	n/a	n/a	n/a	n/a	n/a	n/a
n/a	"image-keyboard-response"	"86"	"521566493"	"0.0-5.0-2.0-1.16"	"y3hbu8"	"563"	"952"	"chrome"	"109.0.0"	"FALSE"	"Windows 10"	"61.54"	"006"	n/a	n/a	n/a	n/a	n/a	n/a	"Trial"	n/a	n/a	n/a	"546"	"arrowleft"	n/a	"NULL"	"NULL"	"NULL"	"stimuli/Ebbinghaus_-0.35714_-0.2800.png"	n/a	"Ebbinghaus"	"arrowright"	"1134"	"FALSE"	"Ebbinghaus"	"-0.357140000"	"-0.280000000"	"1"	"35"
n/a	"html-keyboard-response"	"87"	"521567711"	"0.0-5.0-2.0-0.17"	"y3hbu8"	"563"	"952"	"chrome"	"109.0.0"	"FALSE"	"Windows 10"	"61.54"	"006"	n/a	n/a	n/a	n/a	n/a	n/a	"fixation"	n/a	n/a	n/a	n/a	"NULL"	n/a	"NULL"	"NULL"	"NULL"	"<p style=\"color: black; font-size: 80px; padding-left: 39%; padding-right: 13%; padding-top: 31%; padding-bottom: 38%\">+</p>"	"1207"	n/a	n/a	n/a	n/a	n/a	n/a	n/a	n/a	n/a
n/a	"image-keyboard-response"	"88"	"521568350"	"0.0-5.0-2.0-1.17"	"y3hbu8"	"563"	"952"	"chrome"	"109.0.0"	"FALSE"	"Windows 10"	"61.54"	"006"	n/a	n/a	n/a	n/a	n/a	n/a	"Trial"	n/a	n/a	n/a	"637"	"arrowright"	n/a	"NULL"	"NULL"	"NULL"	"stimuli/Ebbinghaus_0.10000_-0.11071.png"	n/a	"Ebbinghaus"	"arrowright"	"1218"	"TRUE"	"Ebbinghaus"	"0.1000000000"	"-0.110710000"	"1"	"36"
n/a	"html-keyboard-response"	"89"	"521569552"	"0.0-5.0-2.0-0.18"	"y3hbu8"	"563"	"952"	"chrome"	"109.0.0"	"FALSE"	"Windows 10"	"61.54"	"006"	n/a	n/a	n/a	n/a	n/a	n/a	"fixation"	n/a	n/a	n/a	n/a	"NULL"	n/a	"NULL"	"NULL"	"NULL"	"<p style=\"color: black; font-size: 80px; padding-left: 35%; padding-right: 47%; padding-top: 12%; padding-bottom: 23%\">+</p>"	"1194"	n/a	n/a	n/a	n/a	n/a	n/a	n/a	n/a	n/a
n/a	"image-keyboard-response"	"90"	"521570296"	"0.0-5.0-2.0-1.18"	"y3hbu8"	"563"	"952"	"chrome"	"109.0.0"	"FALSE"	"Windows 10"	"61.54"	"006"	n/a	n/a	n/a	n/a	n/a	n/a	"Trial"	n/a	n/a	n/a	"743"	"arrowright"	n/a	"NULL"	"NULL"	"NULL"	"stimuli/Ebbinghaus_-0.61429_-0.2150.png"	n/a	"Ebbinghaus"	"arrowright"	"1202"	"TRUE"	"Ebbinghaus"	"-0.614290000"	"-0.215000000"	"1"	"37"
n/a	"html-keyboard-response"	"91"	"521571584"	"0.0-5.0-2.0-0.19"	"y3hbu8"	"563"	"952"	"chrome"	"109.0.0"	"FALSE"	"Windows 10"	"61.54"	"006"	n/a	n/a	n/a	n/a	n/a	n/a	"fixation"	n/a	n/a	n/a	n/a	"NULL"	n/a	"NULL"	"NULL"	"NULL"	"<p style=\"color: black; font-size: 80px; padding-left: 36%; padding-right: 47%; padding-top: 27%; padding-bottom: 39%\">+</p>"	"1278"	n/a	n/a	n/a	n/a	n/a	n/a	n/a	n/a	n/a
n/a	"image-keyboard-response"	"92"	"521572439"	"0.0-5.0-2.0-1.19"	"y3hbu8"	"563"	"952"	"chrome"	"109.0.0"	"FALSE"	"Windows 10"	"61.54"	"006"	n/a	n/a	n/a	n/a	n/a	n/a	"Trial"	n/a	n/a	n/a	"852"	"arrowleft"	n/a	"NULL"	"NULL"	"NULL"	"stimuli/Ebbinghaus_-0.87143_0.11071.png"	n/a	"Ebbinghaus"	"arrowleft"	"1288"	"TRUE"	"Ebbinghaus"	"-0.871430000"	"0.1107100000"	"1"	"38"
n/a	"html-keyboard-response"	"93"	"521573872"	"0.0-5.0-2.0-0.20"	"y3hbu8"	"563"	"952"	"chrome"	"109.0.0"	"FALSE"	"Windows 10"	"61.54"	"006"	n/a	n/a	n/a	n/a	n/a	n/a	"fixation"	n/a	n/a	n/a	n/a	"NULL"	n/a	"NULL"	"NULL"	"NULL"	"<p style=\"color: black; font-size: 80px; padding-left: 0%; padding-right: 12%; padding-top: 0%; padding-bottom: 50%\">+</p>"	"1417"	n/a	n/a	n/a	n/a	n/a	n/a	n/a	n/a	n/a
n/a	"image-keyboard-response"	"94"	"521574346"	"0.0-5.0-2.0-1.20"	"y3hbu8"	"563"	"952"	"chrome"	"109.0.0"	"FALSE"	"Windows 10"	"61.54"	"006"	n/a	n/a	n/a	n/a	n/a	n/a	"Trial"	n/a	n/a	n/a	"474"	"arrowleft"	n/a	"NULL"	"NULL"	"NULL"	"stimuli/Ebbinghaus_0.61429_0.28000.png"	n/a	"Ebbinghaus"	"arrowleft"	"1433"	"TRUE"	"Ebbinghaus"	"0.6142900000"	"0.2800000000"	"1"	"39"
n/a	"html-keyboard-response"	"95"	"521575492"	"0.0-5.0-2.0-0.21"	"y3hbu8"	"563"	"952"	"chrome"	"109.0.0"	"FALSE"	"Windows 10"	"61.54"	"006"	n/a	n/a	n/a	n/a	n/a	n/a	"fixation"	n/a	n/a	n/a	n/a	"NULL"	n/a	"NULL"	"NULL"	"NULL"	"<p style=\"color: black; font-size: 80px; padding-left: 28%; padding-right: 32%; padding-top: 27%; padding-bottom: 7%\">+</p>"	"1135"	n/a	n/a	n/a	n/a	n/a	n/a	n/a	n/a	n/a
n/a	"image-keyboard-response"	"96"	"521576085"	"0.0-5.0-2.0-1.21"	"y3hbu8"	"563"	"952"	"chrome"	"109.0.0"	"FALSE"	"Windows 10"	"61.54"	"006"	n/a	n/a	n/a	n/a	n/a	n/a	"Trial"	n/a	n/a	n/a	"592"	"arrowright"	n/a	"NULL"	"NULL"	"NULL"	"stimuli/Ebbinghaus_-0.1000_-0.15857.png"	n/a	"Ebbinghaus"	"arrowright"	"1146"	"TRUE"	"Ebbinghaus"	"-0.100000000"	"-0.158570000"	"1"	"40"
n/a	"html-keyboard-response"	"97"	"521577456"	"0.0-5.0-2.0-0.22"	"y3hbu8"	"563"	"952"	"chrome"	"109.0.0"	"FALSE"	"Windows 10"	"61.54"	"006"	n/a	n/a	n/a	n/a	n/a	n/a	"fixation"	n/a	n/a	n/a	n/a	"NULL"	n/a	"NULL"	"NULL"	"NULL"	"<p style=\"color: black; font-size: 80px; padding-left: 28%; padding-right: 20%; padding-top: 7%; padding-bottom: 49%\">+</p>"	"1368"	n/a	n/a	n/a	n/a	n/a	n/a	n/a	n/a	n/a
n/a	"image-keyboard-response"	"98"	"521578250"	"0.0-5.0-2.0-1.22"	"y3hbu8"	"563"	"952"	"chrome"	"109.0.0"	"FALSE"	"Windows 10"	"61.54"	"006"	n/a	n/a	n/a	n/a	n/a	n/a	"Trial"	n/a	n/a	n/a	"794"	"arrowright"	n/a	"NULL"	"NULL"	"NULL"	"stimuli/Ebbinghaus_0.61429_-0.2150.png"	n/a	"Ebbinghaus"	"arrowright"	"1371"	"TRUE"	"Ebbinghaus"	"0.6142900000"	"-0.215000000"	"1"	"41"
n/a	"html-keyboard-response"	"99"	"521579320"	"0.0-5.0-2.0-0.23"	"y3hbu8"	"563"	"952"	"chrome"	"109.0.0"	"FALSE"	"Windows 10"	"61.54"	"006"	n/a	n/a	n/a	n/a	n/a	n/a	"fixation"	n/a	n/a	n/a	n/a	"NULL"	n/a	"NULL"	"NULL"	"NULL"	"<p style=\"color: black; font-size: 80px; padding-left: 12%; padding-right: 17%; padding-top: 5%; padding-bottom: 19%\">+</p>"	"1065"	n/a	n/a	n/a	n/a	n/a	n/a	n/a	n/a	n/a
n/a	"image-keyboard-response"	"100"	"521579962"	"0.0-5.0-2.0-1.23"	"y3hbu8"	"563"	"952"	"chrome"	"109.0.0"	"FALSE"	"Windows 10"	"61.54"	"006"	n/a	n/a	n/a	n/a	n/a	n/a	"Trial"	n/a	n/a	n/a	"640"	"arrowright"	n/a	"NULL"	"NULL"	"NULL"	"stimuli/Ebbinghaus_-0.87143_-0.2150.png"	n/a	"Ebbinghaus"	"arrowright"	"1070"	"TRUE"	"Ebbinghaus"	"-0.871430000"	"-0.215000000"	"1"	"42"
n/a	"html-keyboard-response"	"101"	"521581375"	"0.0-5.0-2.0-0.24"	"y3hbu8"	"563"	"952"	"chrome"	"109.0.0"	"FALSE"	"Windows 10"	"61.54"	"006"	n/a	n/a	n/a	n/a	n/a	n/a	"fixation"	n/a	n/a	n/a	n/a	"NULL"	n/a	"NULL"	"NULL"	"NULL"	"<p style=\"color: black; font-size: 80px; padding-left: 40%; padding-right: 18%; padding-top: 8%; padding-bottom: 7%\">+</p>"	"1390"	n/a	n/a	n/a	n/a	n/a	n/a	n/a	n/a	n/a
n/a	"image-keyboard-response"	"102"	"521582019"	"0.0-5.0-2.0-1.24"	"y3hbu8"	"563"	"952"	"chrome"	"109.0.0"	"FALSE"	"Windows 10"	"61.54"	"006"	n/a	n/a	n/a	n/a	n/a	n/a	"Trial"	n/a	n/a	n/a	"643"	"arrowright"	n/a	"NULL"	"NULL"	"NULL"	"stimuli/Ebbinghaus_0.87143_-0.2800.png"	n/a	"Ebbinghaus"	"arrowright"	"1413"	"TRUE"	"Ebbinghaus"	"0.8714300000"	"-0.280000000"	"1"	"43"
n/a	"html-keyboard-response"	"103"	"521583491"	"0.0-5.0-2.0-0.25"	"y3hbu8"	"563"	"952"	"chrome"	"109.0.0"	"FALSE"	"Windows 10"	"61.54"	"006"	n/a	n/a	n/a	n/a	n/a	n/a	"fixation"	n/a	n/a	n/a	n/a	"NULL"	n/a	"NULL"	"NULL"	"NULL"	"<p style=\"color: black; font-size: 80px; padding-left: 23%; padding-right: 32%; padding-top: 45%; padding-bottom: 3%\">+</p>"	"1463"	n/a	n/a	n/a	n/a	n/a	n/a	n/a	n/a	n/a
n/a	"image-keyboard-response"	"104"	"521584167"	"0.0-5.0-2.0-1.25"	"y3hbu8"	"563"	"952"	"chrome"	"109.0.0"	"FALSE"	"Windows 10"	"61.54"	"006"	n/a	n/a	n/a	n/a	n/a	n/a	"Trial"	n/a	n/a	n/a	"674"	"arrowright"	n/a	"NULL"	"NULL"	"NULL"	"stimuli/Ebbinghaus_0.61429_-0.11071.png"	n/a	"Ebbinghaus"	"arrowright"	"1472"	"TRUE"	"Ebbinghaus"	"0.6142900000"	"-0.110710000"	"1"	"44"
n/a	"html-keyboard-response"	"105"	"521585344"	"0.0-5.0-2.0-0.26"	"y3hbu8"	"563"	"952"	"chrome"	"109.0.0"	"FALSE"	"Windows 10"	"61.54"	"006"	n/a	n/a	n/a	n/a	n/a	n/a	"fixation"	n/a	n/a	n/a	n/a	"NULL"	n/a	"NULL"	"NULL"	"NULL"	"<p style=\"color: black; font-size: 80px; padding-left: 9%; padding-right: 3%; padding-top: 20%; padding-bottom: 6%\">+</p>"	"1167"	n/a	n/a	n/a	n/a	n/a	n/a	n/a	n/a	n/a
n/a	"image-keyboard-response"	"106"	"521585926"	"0.0-5.0-2.0-1.26"	"y3hbu8"	"563"	"952"	"chrome"	"109.0.0"	"FALSE"	"Windows 10"	"61.54"	"006"	n/a	n/a	n/a	n/a	n/a	n/a	"Trial"	n/a	n/a	n/a	"577"	"arrowright"	n/a	"NULL"	"NULL"	"NULL"	"stimuli/Ebbinghaus_0.61429_-0.2800.png"	n/a	"Ebbinghaus"	"arrowright"	"1177"	"TRUE"	"Ebbinghaus"	"0.6142900000"	"-0.280000000"	"1"	"45"
n/a	"html-keyboard-response"	"107"	"521587381"	"0.0-5.0-2.0-0.27"	"y3hbu8"	"563"	"952"	"chrome"	"109.0.0"	"FALSE"	"Windows 10"	"61.54"	"006"	n/a	n/a	n/a	n/a	n/a	n/a	"fixation"	n/a	n/a	n/a	n/a	"NULL"	n/a	"NULL"	"NULL"	"NULL"	"<p style=\"color: black; font-size: 80px; padding-left: 2%; padding-right: 48%; padding-top: 38%; padding-bottom: 3%\">+</p>"	"1436"	n/a	n/a	n/a	n/a	n/a	n/a	n/a	n/a	n/a
n/a	"image-keyboard-response"	"108"	"521587842"	"0.0-5.0-2.0-1.27"	"y3hbu8"	"563"	"952"	"chrome"	"109.0.0"	"FALSE"	"Windows 10"	"61.54"	"006"	n/a	n/a	n/a	n/a	n/a	n/a	"Trial"	n/a	n/a	n/a	"459"	"arrowright"	n/a	"NULL"	"NULL"	"NULL"	"stimuli/Ebbinghaus_-0.61429_-0.2800.png"	n/a	"Ebbinghaus"	"arrowright"	"1455"	"TRUE"	"Ebbinghaus"	"-0.614290000"	"-0.280000000"	"1"	"46"
n/a	"html-keyboard-response"	"109"	"521589337"	"0.0-5.0-2.0-0.28"	"y3hbu8"	"563"	"952"	"chrome"	"109.0.0"	"FALSE"	"Windows 10"	"61.54"	"006"	n/a	n/a	n/a	n/a	n/a	n/a	"fixation"	n/a	n/a	n/a	n/a	"NULL"	n/a	"NULL"	"NULL"	"NULL"	"<p style=\"color: black; font-size: 80px; padding-left: 21%; padding-right: 23%; padding-top: 8%; padding-bottom: 14%\">+</p>"	"1479"	n/a	n/a	n/a	n/a	n/a	n/a	n/a	n/a	n/a
n/a	"image-keyboard-response"	"110"	"521589856"	"0.0-5.0-2.0-1.28"	"y3hbu8"	"563"	"952"	"chrome"	"109.0.0"	"FALSE"	"Windows 10"	"61.54"	"006"	n/a	n/a	n/a	n/a	n/a	n/a	"Trial"	n/a	n/a	n/a	"518"	"arrowleft"	n/a	"NULL"	"NULL"	"NULL"	"stimuli/Ebbinghaus_0.10000_0.15857.png"	n/a	"Ebbinghaus"	"arrowleft"	"1495"	"TRUE"	"Ebbinghaus"	"0.1000000000"	"0.1585700000"	"1"	"47"
n/a	"html-keyboard-response"	"111"	"521591242"	"0.0-5.0-2.0-0.29"	"y3hbu8"	"563"	"952"	"chrome"	"109.0.0"	"FALSE"	"Windows 10"	"61.54"	"006"	n/a	n/a	n/a	n/a	n/a	n/a	"fixation"	n/a	n/a	n/a	n/a	"NULL"	n/a	"NULL"	"NULL"	"NULL"	"<p style=\"color: black; font-size: 80px; padding-left: 27%; padding-right: 16%; padding-top: 29%; padding-bottom: 24%\">+</p>"	"1379"	n/a	n/a	n/a	n/a	n/a	n/a	n/a	n/a	n/a
n/a	"image-keyboard-response"	"112"	"521591828"	"0.0-5.0-2.0-1.29"	"y3hbu8"	"563"	"952"	"chrome"	"109.0.0"	"FALSE"	"Windows 10"	"61.54"	"006"	n/a	n/a	n/a	n/a	n/a	n/a	"Trial"	n/a	n/a	n/a	"584"	"arrowleft"	n/a	"NULL"	"NULL"	"NULL"	"stimuli/Ebbinghaus_-0.61429_0.11071.png"	n/a	"Ebbinghaus"	"arrowleft"	"1386"	"TRUE"	"Ebbinghaus"	"-0.614290000"	"0.1107100000"	"1"	"48"
n/a	"html-keyboard-response"	"113"	"521593149"	"0.0-5.0-2.0-0.30"	"y3hbu8"	"563"	"952"	"chrome"	"109.0.0"	"FALSE"	"Windows 10"	"61.54"	"006"	n/a	n/a	n/a	n/a	n/a	n/a	"fixation"	n/a	n/a	n/a	n/a	"NULL"	n/a	"NULL"	"NULL"	"NULL"	"<p style=\"color: black; font-size: 80px; padding-left: 15%; padding-right: 45%; padding-top: 46%; padding-bottom: 37%\">+</p>"	"1308"	n/a	n/a	n/a	n/a	n/a	n/a	n/a	n/a	n/a
n/a	"image-keyboard-response"	"114"	"521593833"	"0.0-5.0-2.0-1.30"	"y3hbu8"	"563"	"952"	"chrome"	"109.0.0"	"FALSE"	"Windows 10"	"61.54"	"006"	n/a	n/a	n/a	n/a	n/a	n/a	"Trial"	n/a	n/a	n/a	"683"	"arrowright"	n/a	"NULL"	"NULL"	"NULL"	"stimuli/Ebbinghaus_-0.1000_-0.2150.png"	n/a	"Ebbinghaus"	"arrowright"	"1321"	"TRUE"	"Ebbinghaus"	"-0.100000000"	"-0.215000000"	"1"	"49"
n/a	"html-keyboard-response"	"115"	"521595298"	"0.0-5.0-2.0-0.31"	"y3hbu8"	"563"	"952"	"chrome"	"109.0.0"	"FALSE"	"Windows 10"	"61.54"	"006"	n/a	n/a	n/a	n/a	n/a	n/a	"fixation"	n/a	n/a	n/a	n/a	"NULL"	n/a	"NULL"	"NULL"	"NULL"	"<p style=\"color: black; font-size: 80px; padding-left: 8%; padding-right: 41%; padding-top: 43%; padding-bottom: 48%\">+</p>"	"1453"	n/a	n/a	n/a	n/a	n/a	n/a	n/a	n/a	n/a
n/a	"image-keyboard-response"	"116"	"521595780"	"0.0-5.0-2.0-1.31"	"y3hbu8"	"563"	"952"	"chrome"	"109.0.0"	"FALSE"	"Windows 10"	"61.54"	"006"	n/a	n/a	n/a	n/a	n/a	n/a	"Trial"	n/a	n/a	n/a	"480"	"arrowleft"	n/a	"NULL"	"NULL"	"NULL"	"stimuli/Ebbinghaus_0.10000_0.21500.png"	n/a	"Ebbinghaus"	"arrowleft"	"1465"	"TRUE"	"Ebbinghaus"	"0.1000000000"	"0.2150000000"	"1"	"50"
n/a	"html-keyboard-response"	"117"	"521596999"	"0.0-5.0-2.0-0.32"	"y3hbu8"	"563"	"952"	"chrome"	"109.0.0"	"FALSE"	"Windows 10"	"61.54"	"006"	n/a	n/a	n/a	n/a	n/a	n/a	"fixation"	n/a	n/a	n/a	n/a	"NULL"	n/a	"NULL"	"NULL"	"NULL"	"<p style=\"color: black; font-size: 80px; padding-left: 2%; padding-right: 45%; padding-top: 4%; padding-bottom: 39%\">+</p>"	"1207"	n/a	n/a	n/a	n/a	n/a	n/a	n/a	n/a	n/a
n/a	"image-keyboard-response"	"118"	"521597487"	"0.0-5.0-2.0-1.32"	"y3hbu8"	"563"	"952"	"chrome"	"109.0.0"	"FALSE"	"Windows 10"	"61.54"	"006"	n/a	n/a	n/a	n/a	n/a	n/a	"Trial"	n/a	n/a	n/a	"487"	"arrowleft"	n/a	"NULL"	"NULL"	"NULL"	"stimuli/Ebbinghaus_0.61429_0.21500.png"	n/a	"Ebbinghaus"	"arrowleft"	"1219"	"TRUE"	"Ebbinghaus"	"0.6142900000"	"0.2150000000"	"1"	"51"
n/a	"html-keyboard-response"	"119"	"521598758"	"0.0-5.0-2.0-0.33"	"y3hbu8"	"563"	"952"	"chrome"	"109.0.0"	"FALSE"	"Windows 10"	"61.54"	"006"	n/a	n/a	n/a	n/a	n/a	n/a	"fixation"	n/a	n/a	n/a	n/a	"NULL"	n/a	"NULL"	"NULL"	"NULL"	"<p style=\"color: black; font-size: 80px; padding-left: 8%; padding-right: 35%; padding-top: 3%; padding-bottom: 13%\">+</p>"	"1254"	n/a	n/a	n/a	n/a	n/a	n/a	n/a	n/a	n/a
n/a	"image-keyboard-response"	"120"	"521599266"	"0.0-5.0-2.0-1.33"	"y3hbu8"	"563"	"952"	"chrome"	"109.0.0"	"FALSE"	"Windows 10"	"61.54"	"006"	n/a	n/a	n/a	n/a	n/a	n/a	"Trial"	n/a	n/a	n/a	"507"	"arrowleft"	n/a	"NULL"	"NULL"	"NULL"	"stimuli/Ebbinghaus_-0.61429_0.28000.png"	n/a	"Ebbinghaus"	"arrowleft"	"1271"	"TRUE"	"Ebbinghaus"	"-0.614290000"	"0.2800000000"	"1"	"52"
n/a	"html-keyboard-response"	"121"	"521600542"	"0.0-5.0-2.0-0.34"	"y3hbu8"	"563"	"952"	"chrome"	"109.0.0"	"FALSE"	"Windows 10"	"61.54"	"006"	n/a	n/a	n/a	n/a	n/a	n/a	"fixation"	n/a	n/a	n/a	n/a	"NULL"	n/a	"NULL"	"NULL"	"NULL"	"<p style=\"color: black; font-size: 80px; padding-left: 0%; padding-right: 38%; padding-top: 37%; padding-bottom: 49%\">+</p>"	"1253"	n/a	n/a	n/a	n/a	n/a	n/a	n/a	n/a	n/a
n/a	"image-keyboard-response"	"122"	"521601137"	"0.0-5.0-2.0-1.34"	"y3hbu8"	"563"	"952"	"chrome"	"109.0.0"	"FALSE"	"Windows 10"	"61.54"	"006"	n/a	n/a	n/a	n/a	n/a	n/a	"Trial"	n/a	n/a	n/a	"594"	"arrowleft"	n/a	"NULL"	"NULL"	"NULL"	"stimuli/Ebbinghaus_-0.87143_0.28000.png"	n/a	"Ebbinghaus"	"arrowleft"	"1276"	"TRUE"	"Ebbinghaus"	"-0.871430000"	"0.2800000000"	"1"	"53"
n/a	"html-keyboard-response"	"123"	"521602508"	"0.0-5.0-2.0-0.35"	"y3hbu8"	"563"	"952"	"chrome"	"109.0.0"	"FALSE"	"Windows 10"	"61.54"	"006"	n/a	n/a	n/a	n/a	n/a	n/a	"fixation"	n/a	n/a	n/a	n/a	"NULL"	n/a	"NULL"	"NULL"	"NULL"	"<p style=\"color: black; font-size: 80px; padding-left: 35%; padding-right: 17%; padding-top: 5%; padding-bottom: 43%\">+</p>"	"1355"	n/a	n/a	n/a	n/a	n/a	n/a	n/a	n/a	n/a
n/a	"image-keyboard-response"	"124"	"521603128"	"0.0-5.0-2.0-1.35"	"y3hbu8"	"563"	"952"	"chrome"	"109.0.0"	"FALSE"	"Windows 10"	"61.54"	"006"	n/a	n/a	n/a	n/a	n/a	n/a	"Trial"	n/a	n/a	n/a	"618"	"arrowleft"	n/a	"NULL"	"NULL"	"NULL"	"stimuli/Ebbinghaus_0.35714_-0.2150.png"	n/a	"Ebbinghaus"	"arrowright"	"1371"	"FALSE"	"Ebbinghaus"	"0.3571400000"	"-0.215000000"	"1"	"54"
n/a	"html-keyboard-response"	"125"	"521604370"	"0.0-5.0-2.0-0.36"	"y3hbu8"	"563"	"952"	"chrome"	"109.0.0"	"FALSE"	"Windows 10"	"61.54"	"006"	n/a	n/a	n/a	n/a	n/a	n/a	"fixation"	n/a	n/a	n/a	n/a	"NULL"	n/a	"NULL"	"NULL"	"NULL"	"<p style=\"color: black; font-size: 80px; padding-left: 9%; padding-right: 19%; padding-top: 48%; padding-bottom: 37%\">+</p>"	"1228"	n/a	n/a	n/a	n/a	n/a	n/a	n/a	n/a	n/a
n/a	"image-keyboard-response"	"126"	"521604868"	"0.0-5.0-2.0-1.36"	"y3hbu8"	"563"	"952"	"chrome"	"109.0.0"	"FALSE"	"Windows 10"	"61.54"	"006"	n/a	n/a	n/a	n/a	n/a	n/a	"Trial"	n/a	n/a	n/a	"497"	"arrowleft"	n/a	"NULL"	"NULL"	"NULL"	"stimuli/Ebbinghaus_-0.1000_0.28000.png"	n/a	"Ebbinghaus"	"arrowleft"	"1242"	"TRUE"	"Ebbinghaus"	"-0.100000000"	"0.2800000000"	"1"	"55"
n/a	"html-keyboard-response"	"127"	"521605955"	"0.0-5.0-2.0-0.37"	"y3hbu8"	"563"	"952"	"chrome"	"109.0.0"	"FALSE"	"Windows 10"	"61.54"	"006"	n/a	n/a	n/a	n/a	n/a	n/a	"fixation"	n/a	n/a	n/a	n/a	"NULL"	n/a	"NULL"	"NULL"	"NULL"	"<p style=\"color: black; font-size: 80px; padding-left: 19%; padding-right: 4%; padding-top: 4%; padding-bottom: 41%\">+</p>"	"1076"	n/a	n/a	n/a	n/a	n/a	n/a	n/a	n/a	n/a
n/a	"image-keyboard-response"	"128"	"521606650"	"0.0-5.0-2.0-1.37"	"y3hbu8"	"563"	"952"	"chrome"	"109.0.0"	"FALSE"	"Windows 10"	"61.54"	"006"	n/a	n/a	n/a	n/a	n/a	n/a	"Trial"	n/a	n/a	n/a	"693"	"arrowright"	n/a	"NULL"	"NULL"	"NULL"	"stimuli/Ebbinghaus_-0.35714_-0.15857.png"	n/a	"Ebbinghaus"	"arrowright"	"1087"	"TRUE"	"Ebbinghaus"	"-0.357140000"	"-0.158570000"	"1"	"56"
n/a	"html-keyboard-response"	"129"	"521607714"	"0.0-5.0-2.0-0.38"	"y3hbu8"	"563"	"952"	"chrome"	"109.0.0"	"FALSE"	"Windows 10"	"61.54"	"006"	n/a	n/a	n/a	n/a	n/a	n/a	"fixation"	n/a	n/a	n/a	n/a	"NULL"	n/a	"NULL"	"NULL"	"NULL"	"<p style=\"color: black; font-size: 80px; padding-left: 44%; padding-right: 20%; padding-top: 36%; padding-bottom: 41%\">+</p>"	"1057"	n/a	n/a	n/a	n/a	n/a	n/a	n/a	n/a	n/a
n/a	"image-keyboard-response"	"130"	"521608299"	"0.0-5.0-2.0-1.38"	"y3hbu8"	"563"	"952"	"chrome"	"109.0.0"	"FALSE"	"Windows 10"	"61.54"	"006"	n/a	n/a	n/a	n/a	n/a	n/a	"Trial"	n/a	n/a	n/a	"584"	"arrowleft"	n/a	"NULL"	"NULL"	"NULL"	"stimuli/Ebbinghaus_-0.87143_-0.15857.png"	n/a	"Ebbinghaus"	"arrowright"	"1064"	"FALSE"	"Ebbinghaus"	"-0.871430000"	"-0.158570000"	"1"	"57"
n/a	"html-keyboard-response"	"131"	"521609547"	"0.0-5.0-2.0-0.39"	"y3hbu8"	"563"	"952"	"chrome"	"109.0.0"	"FALSE"	"Windows 10"	"61.54"	"006"	n/a	n/a	n/a	n/a	n/a	n/a	"fixation"	n/a	n/a	n/a	n/a	"NULL"	n/a	"NULL"	"NULL"	"NULL"	"<p style=\"color: black; font-size: 80px; padding-left: 9%; padding-right: 35%; padding-top: 17%; padding-bottom: 6%\">+</p>"	"1237"	n/a	n/a	n/a	n/a	n/a	n/a	n/a	n/a	n/a
n/a	"image-keyboard-response"	"132"	"521610465"	"0.0-5.0-2.0-1.39"	"y3hbu8"	"563"	"952"	"chrome"	"109.0.0"	"FALSE"	"Windows 10"	"61.54"	"006"	n/a	n/a	n/a	n/a	n/a	n/a	"Trial"	n/a	n/a	n/a	"917"	"arrowleft"	n/a	"NULL"	"NULL"	"NULL"	"stimuli/Ebbinghaus_0.35714_0.11071.png"	n/a	"Ebbinghaus"	"arrowleft"	"1248"	"TRUE"	"Ebbinghaus"	"0.3571400000"	"0.1107100000"	"1"	"58"
n/a	"html-keyboard-response"	"133"	"521611607"	"0.0-5.0-2.0-0.40"	"y3hbu8"	"563"	"952"	"chrome"	"109.0.0"	"FALSE"	"Windows 10"	"61.54"	"006"	n/a	n/a	n/a	n/a	n/a	n/a	"fixation"	n/a	n/a	n/a	n/a	"NULL"	n/a	"NULL"	"NULL"	"NULL"	"<p style=\"color: black; font-size: 80px; padding-left: 9%; padding-right: 41%; padding-top: 42%; padding-bottom: 32%\">+</p>"	"1125"	n/a	n/a	n/a	n/a	n/a	n/a	n/a	n/a	n/a
n/a	"image-keyboard-response"	"134"	"521612128"	"0.0-5.0-2.0-1.40"	"y3hbu8"	"563"	"952"	"chrome"	"109.0.0"	"FALSE"	"Windows 10"	"61.54"	"006"	n/a	n/a	n/a	n/a	n/a	n/a	"Trial"	n/a	n/a	n/a	"519"	"arrowleft"	n/a	"NULL"	"NULL"	"NULL"	"stimuli/Ebbinghaus_-0.35714_0.28000.png"	n/a	"Ebbinghaus"	"arrowleft"	"1142"	"TRUE"	"Ebbinghaus"	"-0.357140000"	"0.2800000000"	"1"	"59"
n/a	"html-keyboard-response"	"135"	"521613507"	"0.0-5.0-2.0-0.41"	"y3hbu8"	"563"	"952"	"chrome"	"109.0.0"	"FALSE"	"Windows 10"	"61.54"	"006"	n/a	n/a	n/a	n/a	n/a	n/a	"fixation"	n/a	n/a	n/a	n/a	"NULL"	n/a	"NULL"	"NULL"	"NULL"	"<p style=\"color: black; font-size: 80px; padding-left: 14%; padding-right: 21%; padding-top: 20%; padding-bottom: 45%\">+</p>"	"1359"	n/a	n/a	n/a	n/a	n/a	n/a	n/a	n/a	n/a
n/a	"image-keyboard-response"	"136"	"521614528"	"0.0-5.0-2.0-1.41"	"y3hbu8"	"563"	"952"	"chrome"	"109.0.0"	"FALSE"	"Windows 10"	"61.54"	"006"	n/a	n/a	n/a	n/a	n/a	n/a	"Trial"	n/a	n/a	n/a	"1019"	"arrowleft"	n/a	"NULL"	"NULL"	"NULL"	"stimuli/Ebbinghaus_0.61429_0.15857.png"	n/a	"Ebbinghaus"	"arrowleft"	"1379"	"TRUE"	"Ebbinghaus"	"0.6142900000"	"0.1585700000"	"1"	"60"
n/a	"html-keyboard-response"	"137"	"521615619"	"0.0-5.0-2.0-0.42"	"y3hbu8"	"563"	"952"	"chrome"	"109.0.0"	"FALSE"	"Windows 10"	"61.54"	"006"	n/a	n/a	n/a	n/a	n/a	n/a	"fixation"	n/a	n/a	n/a	n/a	"NULL"	n/a	"NULL"	"NULL"	"NULL"	"<p style=\"color: black; font-size: 80px; padding-left: 38%; padding-right: 31%; padding-top: 43%; padding-bottom: 22%\">+</p>"	"1072"	n/a	n/a	n/a	n/a	n/a	n/a	n/a	n/a	n/a
n/a	"image-keyboard-response"	"138"	"521616899"	"0.0-5.0-2.0-1.42"	"y3hbu8"	"563"	"952"	"chrome"	"109.0.0"	"FALSE"	"Windows 10"	"61.54"	"006"	n/a	n/a	n/a	n/a	n/a	n/a	"Trial"	n/a	n/a	n/a	"1279"	"arrowleft"	n/a	"NULL"	"NULL"	"NULL"	"stimuli/Ebbinghaus_-0.1000_0.11071.png"	n/a	"Ebbinghaus"	"arrowleft"	"1091"	"TRUE"	"Ebbinghaus"	"-0.100000000"	"0.1107100000"	"1"	"61"
n/a	"html-keyboard-response"	"139"	"521618210"	"0.0-5.0-2.0-0.43"	"y3hbu8"	"563"	"952"	"chrome"	"109.0.0"	"FALSE"	"Windows 10"	"61.54"	"006"	n/a	n/a	n/a	n/a	n/a	n/a	"fixation"	n/a	n/a	n/a	n/a	"NULL"	n/a	"NULL"	"NULL"	"NULL"	"<p style=\"color: black; font-size: 80px; padding-left: 31%; padding-right: 18%; padding-top: 18%; padding-bottom: 30%\">+</p>"	"1297"	n/a	n/a	n/a	n/a	n/a	n/a	n/a	n/a	n/a
n/a	"image-keyboard-response"	"140"	"521618834"	"0.0-5.0-2.0-1.43"	"y3hbu8"	"563"	"952"	"chrome"	"109.0.0"	"FALSE"	"Windows 10"	"61.54"	"006"	n/a	n/a	n/a	n/a	n/a	n/a	"Trial"	n/a	n/a	n/a	"619"	"arrowright"	n/a	"NULL"	"NULL"	"NULL"	"stimuli/Ebbinghaus_0.10000_-0.15857.png"	n/a	"Ebbinghaus"	"arrowright"	"1311"	"TRUE"	"Ebbinghaus"	"0.1000000000"	"-0.158570000"	"1"	"62"
n/a	"html-keyboard-response"	"141"	"521620241"	"0.0-5.0-2.0-0.44"	"y3hbu8"	"563"	"952"	"chrome"	"109.0.0"	"FALSE"	"Windows 10"	"61.54"	"006"	n/a	n/a	n/a	n/a	n/a	n/a	"fixation"	n/a	n/a	n/a	n/a	"NULL"	n/a	"NULL"	"NULL"	"NULL"	"<p style=\"color: black; font-size: 80px; padding-left: 43%; padding-right: 11%; padding-top: 22%; padding-bottom: 4%\">+</p>"	"1392"	n/a	n/a	n/a	n/a	n/a	n/a	n/a	n/a	n/a
n/a	"image-keyboard-response"	"142"	"521620729"	"0.0-5.0-2.0-1.44"	"y3hbu8"	"563"	"952"	"chrome"	"109.0.0"	"FALSE"	"Windows 10"	"61.54"	"006"	n/a	n/a	n/a	n/a	n/a	n/a	"Trial"	n/a	n/a	n/a	"487"	"arrowright"	n/a	"NULL"	"NULL"	"NULL"	"stimuli/Ebbinghaus_-0.1000_-0.2800.png"	n/a	"Ebbinghaus"	"arrowright"	"1407"	"TRUE"	"Ebbinghaus"	"-0.100000000"	"-0.280000000"	"1"	"63"
n/a	"html-keyboard-response"	"143"	"521622041"	"0.0-5.0-2.0-0.45"	"y3hbu8"	"563"	"952"	"chrome"	"109.0.0"	"FALSE"	"Windows 10"	"61.54"	"006"	n/a	n/a	n/a	n/a	n/a	n/a	"fixation"	n/a	n/a	n/a	n/a	"NULL"	n/a	"NULL"	"NULL"	"NULL"	"<p style=\"color: black; font-size: 80px; padding-left: 47%; padding-right: 5%; padding-top: 15%; padding-bottom: 45%\">+</p>"	"1300"	n/a	n/a	n/a	n/a	n/a	n/a	n/a	n/a	n/a
n/a	"image-keyboard-response"	"144"	"521622537"	"0.0-5.0-2.0-1.45"	"y3hbu8"	"563"	"952"	"chrome"	"109.0.0"	"FALSE"	"Windows 10"	"61.54"	"006"	n/a	n/a	n/a	n/a	n/a	n/a	"Trial"	n/a	n/a	n/a	"495"	"arrowleft"	n/a	"NULL"	"NULL"	"NULL"	"stimuli/Ebbinghaus_0.87143_0.28000.png"	n/a	"Ebbinghaus"	"arrowleft"	"1312"	"TRUE"	"Ebbinghaus"	"0.8714300000"	"0.2800000000"	"1"	"64"
n/a	"html-keyboard-response"	"145"	"521623663"	"0.0-5.0-2.0-0.46"	"y3hbu8"	"563"	"952"	"chrome"	"109.0.0"	"FALSE"	"Windows 10"	"61.54"	"006"	n/a	n/a	n/a	n/a	n/a	n/a	"fixation"	n/a	n/a	n/a	n/a	"NULL"	n/a	"NULL"	"NULL"	"NULL"	"<p style=\"color: black; font-size: 80px; padding-left: 3%; padding-right: 4%; padding-top: 17%; padding-bottom: 19%\">+</p>"	"1102"	n/a	n/a	n/a	n/a	n/a	n/a	n/a	n/a	n/a
n/a	"image-keyboard-response"	"146"	"521624287"	"0.0-5.0-2.0-1.46"	"y3hbu8"	"563"	"952"	"chrome"	"109.0.0"	"FALSE"	"Windows 10"	"61.54"	"006"	n/a	n/a	n/a	n/a	n/a	n/a	"Trial"	n/a	n/a	n/a	"623"	"arrowleft"	n/a	"NULL"	"NULL"	"NULL"	"stimuli/Ebbinghaus_0.87143_0.15857.png"	n/a	"Ebbinghaus"	"arrowleft"	"1126"	"TRUE"	"Ebbinghaus"	"0.8714300000"	"0.1585700000"	"1"	"65"
n/a	"html-keyboard-response"	"147"	"521625619"	"0.0-5.0-2.0-0.47"	"y3hbu8"	"563"	"952"	"chrome"	"109.0.0"	"FALSE"	"Windows 10"	"61.54"	"006"	n/a	n/a	n/a	n/a	n/a	n/a	"fixation"	n/a	n/a	n/a	n/a	"NULL"	n/a	"NULL"	"NULL"	"NULL"	"<p style=\"color: black; font-size: 80px; padding-left: 28%; padding-right: 11%; padding-top: 15%; padding-bottom: 29%\">+</p>"	"1318"	n/a	n/a	n/a	n/a	n/a	n/a	n/a	n/a	n/a
n/a	"image-keyboard-response"	"148"	"521626212"	"0.0-5.0-2.0-1.47"	"y3hbu8"	"563"	"952"	"chrome"	"109.0.0"	"FALSE"	"Windows 10"	"61.54"	"006"	n/a	n/a	n/a	n/a	n/a	n/a	"Trial"	n/a	n/a	n/a	"592"	"arrowright"	n/a	"NULL"	"NULL"	"NULL"	"stimuli/Ebbinghaus_0.35714_-0.11071.png"	n/a	"Ebbinghaus"	"arrowright"	"1332"	"TRUE"	"Ebbinghaus"	"0.3571400000"	"-0.110710000"	"1"	"66"
n/a	"html-keyboard-response"	"149"	"521627475"	"0.0-5.0-2.0-0.48"	"y3hbu8"	"563"	"952"	"chrome"	"109.0.0"	"FALSE"	"Windows 10"	"61.54"	"006"	n/a	n/a	n/a	n/a	n/a	n/a	"fixation"	n/a	n/a	n/a	n/a	"NULL"	n/a	"NULL"	"NULL"	"NULL"	"<p style=\"color: black; font-size: 80px; padding-left: 16%; padding-right: 48%; padding-top: 25%; padding-bottom: 40%\">+</p>"	"1250"	n/a	n/a	n/a	n/a	n/a	n/a	n/a	n/a	n/a
n/a	"image-keyboard-response"	"150"	"521628127"	"0.0-5.0-2.0-1.48"	"y3hbu8"	"563"	"952"	"chrome"	"109.0.0"	"FALSE"	"Windows 10"	"61.54"	"006"	n/a	n/a	n/a	n/a	n/a	n/a	"Trial"	n/a	n/a	n/a	"651"	"arrowright"	n/a	"NULL"	"NULL"	"NULL"	"stimuli/Ebbinghaus_-0.35714_-0.2150.png"	n/a	"Ebbinghaus"	"arrowright"	"1263"	"TRUE"	"Ebbinghaus"	"-0.357140000"	"-0.215000000"	"1"	"67"
n/a	"html-keyboard-response"	"151"	"521629304"	"0.0-5.0-2.0-0.49"	"y3hbu8"	"563"	"952"	"chrome"	"109.0.0"	"FALSE"	"Windows 10"	"61.54"	"006"	n/a	n/a	n/a	n/a	n/a	n/a	"fixation"	n/a	n/a	n/a	n/a	"NULL"	n/a	"NULL"	"NULL"	"NULL"	"<p style=\"color: black; font-size: 80px; padding-left: 23%; padding-right: 19%; padding-top: 12%; padding-bottom: 18%\">+</p>"	"1173"	n/a	n/a	n/a	n/a	n/a	n/a	n/a	n/a	n/a
n/a	"image-keyboard-response"	"152"	"521629811"	"0.0-5.0-2.0-1.49"	"y3hbu8"	"563"	"952"	"chrome"	"109.0.0"	"FALSE"	"Windows 10"	"61.54"	"006"	n/a	n/a	n/a	n/a	n/a	n/a	"Trial"	n/a	n/a	n/a	"506"	"arrowleft"	n/a	"NULL"	"NULL"	"NULL"	"stimuli/Ebbinghaus_-0.87143_0.21500.png"	n/a	"Ebbinghaus"	"arrowleft"	"1177"	"TRUE"	"Ebbinghaus"	"-0.871430000"	"0.2150000000"	"1"	"68"
n/a	"html-keyboard-response"	"153"	"521631041"	"0.0-5.0-2.0-0.50"	"y3hbu8"	"563"	"952"	"chrome"	"109.0.0"	"FALSE"	"Windows 10"	"61.54"	"006"	n/a	n/a	n/a	n/a	n/a	n/a	"fixation"	n/a	n/a	n/a	n/a	"NULL"	n/a	"NULL"	"NULL"	"NULL"	"<p style=\"color: black; font-size: 80px; padding-left: 18%; padding-right: 5%; padding-top: 44%; padding-bottom: 17%\">+</p>"	"1213"	n/a	n/a	n/a	n/a	n/a	n/a	n/a	n/a	n/a
n/a	"image-keyboard-response"	"154"	"521631553"	"0.0-5.0-2.0-1.50"	"y3hbu8"	"563"	"952"	"chrome"	"109.0.0"	"FALSE"	"Windows 10"	"61.54"	"006"	n/a	n/a	n/a	n/a	n/a	n/a	"Trial"	n/a	n/a	n/a	"510"	"arrowleft"	n/a	"NULL"	"NULL"	"NULL"	"stimuli/Ebbinghaus_0.35714_0.15857.png"	n/a	"Ebbinghaus"	"arrowleft"	"1230"	"TRUE"	"Ebbinghaus"	"0.3571400000"	"0.1585700000"	"1"	"69"
n/a	"html-keyboard-response"	"155"	"521633031"	"0.0-5.0-2.0-0.51"	"y3hbu8"	"563"	"952"	"chrome"	"109.0.0"	"FALSE"	"Windows 10"	"61.54"	"006"	n/a	n/a	n/a	n/a	n/a	n/a	"fixation"	n/a	n/a	n/a	n/a	"NULL"	n/a	"NULL"	"NULL"	"NULL"	"<p style=\"color: black; font-size: 80px; padding-left: 23%; padding-right: 41%; padding-top: 41%; padding-bottom: 0%\">+</p>"	"1469"	n/a	n/a	n/a	n/a	n/a	n/a	n/a	n/a	n/a
n/a	"image-keyboard-response"	"156"	"521633745"	"0.0-5.0-2.0-1.51"	"y3hbu8"	"563"	"952"	"chrome"	"109.0.0"	"FALSE"	"Windows 10"	"61.54"	"006"	n/a	n/a	n/a	n/a	n/a	n/a	"Trial"	n/a	n/a	n/a	"713"	"arrowleft"	n/a	"NULL"	"NULL"	"NULL"	"stimuli/Ebbinghaus_0.87143_-0.11071.png"	n/a	"Ebbinghaus"	"arrowright"	"1478"	"FALSE"	"Ebbinghaus"	"0.8714300000"	"-0.110710000"	"1"	"70"
n/a	"html-keyboard-response"	"157"	"521635022"	"0.0-5.0-2.0-0.52"	"y3hbu8"	"563"	"952"	"chrome"	"109.0.0"	"FALSE"	"Windows 10"	"61.54"	"006"	n/a	n/a	n/a	n/a	n/a	n/a	"fixation"	n/a	n/a	n/a	n/a	"NULL"	n/a	"NULL"	"NULL"	"NULL"	"<p style=\"color: black; font-size: 80px; padding-left: 27%; padding-right: 13%; padding-top: 34%; padding-bottom: 24%\">+</p>"	"1267"	n/a	n/a	n/a	n/a	n/a	n/a	n/a	n/a	n/a
n/a	"image-keyboard-response"	"158"	"521635763"	"0.0-5.0-2.0-1.52"	"y3hbu8"	"563"	"952"	"chrome"	"109.0.0"	"FALSE"	"Windows 10"	"61.54"	"006"	n/a	n/a	n/a	n/a	n/a	n/a	"Trial"	n/a	n/a	n/a	"740"	"arrowleft"	n/a	"NULL"	"NULL"	"NULL"	"stimuli/Ebbinghaus_0.35714_0.21500.png"	n/a	"Ebbinghaus"	"arrowleft"	"1277"	"TRUE"	"Ebbinghaus"	"0.3571400000"	"0.2150000000"	"1"	"71"
n/a	"html-keyboard-response"	"159"	"521637213"	"0.0-5.0-2.0-0.53"	"y3hbu8"	"563"	"952"	"chrome"	"109.0.0"	"FALSE"	"Windows 10"	"61.54"	"006"	n/a	n/a	n/a	n/a	n/a	n/a	"fixation"	n/a	n/a	n/a	n/a	"NULL"	n/a	"NULL"	"NULL"	"NULL"	"<p style=\"color: black; font-size: 80px; padding-left: 34%; padding-right: 39%; padding-top: 39%; padding-bottom: 17%\">+</p>"	"1436"	n/a	n/a	n/a	n/a	n/a	n/a	n/a	n/a	n/a
n/a	"image-keyboard-response"	"160"	"521637863"	"0.0-5.0-2.0-1.53"	"y3hbu8"	"563"	"952"	"chrome"	"109.0.0"	"FALSE"	"Windows 10"	"61.54"	"006"	n/a	n/a	n/a	n/a	n/a	n/a	"Trial"	n/a	n/a	n/a	"649"	"arrowright"	n/a	"NULL"	"NULL"	"NULL"	"stimuli/Ebbinghaus_-0.87143_-0.11071.png"	n/a	"Ebbinghaus"	"arrowright"	"1450"	"TRUE"	"Ebbinghaus"	"-0.871430000"	"-0.110710000"	"1"	"72"
n/a	"html-keyboard-response"	"161"	"521638935"	"0.0-5.0-2.0-0.54"	"y3hbu8"	"563"	"952"	"chrome"	"109.0.0"	"FALSE"	"Windows 10"	"61.54"	"006"	n/a	n/a	n/a	n/a	n/a	n/a	"fixation"	n/a	n/a	n/a	n/a	"NULL"	n/a	"NULL"	"NULL"	"NULL"	"<p style=\"color: black; font-size: 80px; padding-left: 8%; padding-right: 10%; padding-top: 26%; padding-bottom: 9%\">+</p>"	"1061"	n/a	n/a	n/a	n/a	n/a	n/a	n/a	n/a	n/a
n/a	"image-keyboard-response"	"162"	"521639423"	"0.0-5.0-2.0-1.54"	"y3hbu8"	"563"	"952"	"chrome"	"109.0.0"	"FALSE"	"Windows 10"	"61.54"	"006"	n/a	n/a	n/a	n/a	n/a	n/a	"Trial"	n/a	n/a	n/a	"486"	"arrowright"	n/a	"NULL"	"NULL"	"NULL"	"stimuli/Ebbinghaus_0.10000_-0.2150.png"	n/a	"Ebbinghaus"	"arrowright"	"1072"	"TRUE"	"Ebbinghaus"	"0.1000000000"	"-0.215000000"	"1"	"73"
n/a	"html-keyboard-response"	"163"	"521640577"	"0.0-5.0-2.0-0.55"	"y3hbu8"	"563"	"952"	"chrome"	"109.0.0"	"FALSE"	"Windows 10"	"61.54"	"006"	n/a	n/a	n/a	n/a	n/a	n/a	"fixation"	n/a	n/a	n/a	n/a	"NULL"	n/a	"NULL"	"NULL"	"NULL"	"<p style=\"color: black; font-size: 80px; padding-left: 24%; padding-right: 21%; padding-top: 47%; padding-bottom: 37%\">+</p>"	"1143"	n/a	n/a	n/a	n/a	n/a	n/a	n/a	n/a	n/a
n/a	"image-keyboard-response"	"164"	"521641502"	"0.0-5.0-2.0-1.55"	"y3hbu8"	"563"	"952"	"chrome"	"109.0.0"	"FALSE"	"Windows 10"	"61.54"	"006"	n/a	n/a	n/a	n/a	n/a	n/a	"Trial"	n/a	n/a	n/a	"925"	"arrowright"	n/a	"NULL"	"NULL"	"NULL"	"stimuli/Ebbinghaus_0.87143_-0.2150.png"	n/a	"Ebbinghaus"	"arrowright"	"1154"	"TRUE"	"Ebbinghaus"	"0.8714300000"	"-0.215000000"	"1"	"74"
n/a	"html-keyboard-response"	"165"	"521642803"	"0.0-5.0-2.0-0.56"	"y3hbu8"	"563"	"952"	"chrome"	"109.0.0"	"FALSE"	"Windows 10"	"61.54"	"006"	n/a	n/a	n/a	n/a	n/a	n/a	"fixation"	n/a	n/a	n/a	n/a	"NULL"	n/a	"NULL"	"NULL"	"NULL"	"<p style=\"color: black; font-size: 80px; padding-left: 12%; padding-right: 49%; padding-top: 19%; padding-bottom: 9%\">+</p>"	"1289"	n/a	n/a	n/a	n/a	n/a	n/a	n/a	n/a	n/a
n/a	"image-keyboard-response"	"166"	"521643394"	"0.0-5.0-2.0-1.56"	"y3hbu8"	"563"	"952"	"chrome"	"109.0.0"	"FALSE"	"Windows 10"	"61.54"	"006"	n/a	n/a	n/a	n/a	n/a	n/a	"Trial"	n/a	n/a	n/a	"590"	"arrowright"	n/a	"NULL"	"NULL"	"NULL"	"stimuli/Ebbinghaus_-0.87143_-0.2800.png"	n/a	"Ebbinghaus"	"arrowright"	"1301"	"TRUE"	"Ebbinghaus"	"-0.871430000"	"-0.280000000"	"1"	"75"
n/a	"html-keyboard-response"	"167"	"521644758"	"0.0-5.0-2.0-0.57"	"y3hbu8"	"563"	"952"	"chrome"	"109.0.0"	"FALSE"	"Windows 10"	"61.54"	"006"	n/a	n/a	n/a	n/a	n/a	n/a	"fixation"	n/a	n/a	n/a	n/a	"NULL"	n/a	"NULL"	"NULL"	"NULL"	"<p style=\"color: black; font-size: 80px; padding-left: 21%; padding-right: 32%; padding-top: 27%; padding-bottom: 30%\">+</p>"	"1348"	n/a	n/a	n/a	n/a	n/a	n/a	n/a	n/a	n/a
n/a	"image-keyboard-response"	"168"	"521645357"	"0.0-5.0-2.0-1.57"	"y3hbu8"	"563"	"952"	"chrome"	"109.0.0"	"FALSE"	"Windows 10"	"61.54"	"006"	n/a	n/a	n/a	n/a	n/a	n/a	"Trial"	n/a	n/a	n/a	"597"	"arrowleft"	n/a	"NULL"	"NULL"	"NULL"	"stimuli/Ebbinghaus_0.10000_0.28000.png"	n/a	"Ebbinghaus"	"arrowleft"	"1364"	"TRUE"	"Ebbinghaus"	"0.1000000000"	"0.2800000000"	"1"	"76"
n/a	"html-keyboard-response"	"169"	"521646443"	"0.0-5.0-2.0-0.58"	"y3hbu8"	"563"	"952"	"chrome"	"109.0.0"	"FALSE"	"Windows 10"	"61.54"	"006"	n/a	n/a	n/a	n/a	n/a	n/a	"fixation"	n/a	n/a	n/a	n/a	"NULL"	n/a	"NULL"	"NULL"	"NULL"	"<p style=\"color: black; font-size: 80px; padding-left: 14%; padding-right: 11%; padding-top: 31%; padding-bottom: 8%\">+</p>"	"1076"	n/a	n/a	n/a	n/a	n/a	n/a	n/a	n/a	n/a
n/a	"image-keyboard-response"	"170"	"521647188"	"0.0-5.0-2.0-1.58"	"y3hbu8"	"563"	"952"	"chrome"	"109.0.0"	"FALSE"	"Windows 10"	"61.54"	"006"	n/a	n/a	n/a	n/a	n/a	n/a	"Trial"	n/a	n/a	n/a	"744"	"arrowleft"	n/a	"NULL"	"NULL"	"NULL"	"stimuli/Ebbinghaus_-0.1000_0.21500.png"	n/a	"Ebbinghaus"	"arrowleft"	"1086"	"TRUE"	"Ebbinghaus"	"-0.100000000"	"0.2150000000"	"1"	"77"
n/a	"html-keyboard-response"	"171"	"521648214"	"0.0-5.0-2.0-0.59"	"y3hbu8"	"563"	"952"	"chrome"	"109.0.0"	"FALSE"	"Windows 10"	"61.54"	"006"	n/a	n/a	n/a	n/a	n/a	n/a	"fixation"	n/a	n/a	n/a	n/a	"NULL"	n/a	"NULL"	"NULL"	"NULL"	"<p style=\"color: black; font-size: 80px; padding-left: 1%; padding-right: 28%; padding-top: 9%; padding-bottom: 33%\">+</p>"	"1015"	n/a	n/a	n/a	n/a	n/a	n/a	n/a	n/a	n/a
n/a	"image-keyboard-response"	"172"	"521648726"	"0.0-5.0-2.0-1.59"	"y3hbu8"	"563"	"952"	"chrome"	"109.0.0"	"FALSE"	"Windows 10"	"61.54"	"006"	n/a	n/a	n/a	n/a	n/a	n/a	"Trial"	n/a	n/a	n/a	"511"	"arrowright"	n/a	"NULL"	"NULL"	"NULL"	"stimuli/Ebbinghaus_-0.35714_0.21500.png"	n/a	"Ebbinghaus"	"arrowleft"	"1026"	"FALSE"	"Ebbinghaus"	"-0.357140000"	"0.2150000000"	"1"	"78"
n/a	"html-keyboard-response"	"173"	"521650069"	"0.0-5.0-2.0-0.60"	"y3hbu8"	"563"	"952"	"chrome"	"109.0.0"	"FALSE"	"Windows 10"	"61.54"	"006"	n/a	n/a	n/a	n/a	n/a	n/a	"fixation"	n/a	n/a	n/a	n/a	"NULL"	n/a	"NULL"	"NULL"	"NULL"	"<p style=\"color: black; font-size: 80px; padding-left: 20%; padding-right: 2%; padding-top: 20%; padding-bottom: 29%\">+</p>"	"1322"	n/a	n/a	n/a	n/a	n/a	n/a	n/a	n/a	n/a
n/a	"image-keyboard-response"	"174"	"521650568"	"0.0-5.0-2.0-1.60"	"y3hbu8"	"563"	"952"	"chrome"	"109.0.0"	"FALSE"	"Windows 10"	"61.54"	"006"	n/a	n/a	n/a	n/a	n/a	n/a	"Trial"	n/a	n/a	n/a	"498"	"arrowright"	n/a	"NULL"	"NULL"	"NULL"	"stimuli/Ebbinghaus_0.87143_-0.15857.png"	n/a	"Ebbinghaus"	"arrowright"	"1343"	"TRUE"	"Ebbinghaus"	"0.8714300000"	"-0.158570000"	"1"	"79"
n/a	"html-keyboard-response"	"175"	"521652054"	"0.0-5.0-2.0-0.61"	"y3hbu8"	"563"	"952"	"chrome"	"109.0.0"	"FALSE"	"Windows 10"	"61.54"	"006"	n/a	n/a	n/a	n/a	n/a	n/a	"fixation"	n/a	n/a	n/a	n/a	"NULL"	n/a	"NULL"	"NULL"	"NULL"	"<p style=\"color: black; font-size: 80px; padding-left: 41%; padding-right: 12%; padding-top: 12%; padding-bottom: 33%\">+</p>"	"1467"	n/a	n/a	n/a	n/a	n/a	n/a	n/a	n/a	n/a
n/a	"image-keyboard-response"	"176"	"521652675"	"0.0-5.0-2.0-1.61"	"y3hbu8"	"563"	"952"	"chrome"	"109.0.0"	"FALSE"	"Windows 10"	"61.54"	"006"	n/a	n/a	n/a	n/a	n/a	n/a	"Trial"	n/a	n/a	n/a	"619"	"arrowright"	n/a	"NULL"	"NULL"	"NULL"	"stimuli/Ebbinghaus_-0.61429_-0.15857.png"	n/a	"Ebbinghaus"	"arrowright"	"1486"	"TRUE"	"Ebbinghaus"	"-0.614290000"	"-0.158570000"	"1"	"80"
n/a	"html-keyboard-response"	"177"	"521653773"	"0.0-5.0-2.0-0.62"	"y3hbu8"	"563"	"952"	"chrome"	"109.0.0"	"FALSE"	"Windows 10"	"61.54"	"006"	n/a	n/a	n/a	n/a	n/a	n/a	"fixation"	n/a	n/a	n/a	n/a	"NULL"	n/a	"NULL"	"NULL"	"NULL"	"<p style=\"color: black; font-size: 80px; padding-left: 40%; padding-right: 11%; padding-top: 3%; padding-bottom: 14%\">+</p>"	"1087"	n/a	n/a	n/a	n/a	n/a	n/a	n/a	n/a	n/a
n/a	"image-keyboard-response"	"178"	"521654401"	"0.0-5.0-2.0-1.62"	"y3hbu8"	"563"	"952"	"chrome"	"109.0.0"	"FALSE"	"Windows 10"	"61.54"	"006"	n/a	n/a	n/a	n/a	n/a	n/a	"Trial"	n/a	n/a	n/a	"627"	"arrowright"	n/a	"NULL"	"NULL"	"NULL"	"stimuli/Ebbinghaus_-0.35714_-0.11071.png"	n/a	"Ebbinghaus"	"arrowright"	"1098"	"TRUE"	"Ebbinghaus"	"-0.357140000"	"-0.110710000"	"1"	"81"
n/a	"html-keyboard-response"	"179"	"521655509"	"0.0-5.0-2.0-0.63"	"y3hbu8"	"563"	"952"	"chrome"	"109.0.0"	"FALSE"	"Windows 10"	"61.54"	"006"	n/a	n/a	n/a	n/a	n/a	n/a	"fixation"	n/a	n/a	n/a	n/a	"NULL"	n/a	"NULL"	"NULL"	"NULL"	"<p style=\"color: black; font-size: 80px; padding-left: 45%; padding-right: 19%; padding-top: 9%; padding-bottom: 36%\">+</p>"	"1090"	n/a	n/a	n/a	n/a	n/a	n/a	n/a	n/a	n/a
n/a	"image-keyboard-response"	"180"	"521655988"	"0.0-5.0-2.0-1.63"	"y3hbu8"	"563"	"952"	"chrome"	"109.0.0"	"FALSE"	"Windows 10"	"61.54"	"006"	n/a	n/a	n/a	n/a	n/a	n/a	"Trial"	n/a	n/a	n/a	"477"	"arrowleft"	n/a	"NULL"	"NULL"	"NULL"	"stimuli/Ebbinghaus_0.87143_0.21500.png"	n/a	"Ebbinghaus"	"arrowleft"	"1108"	"TRUE"	"Ebbinghaus"	"0.8714300000"	"0.2150000000"	"1"	"82"
n/a	"html-button-response"	"181"	"521714351"	"0.0-5.0-3.0"	"y3hbu8"	"563"	"952"	"chrome"	"109.0.0"	"FALSE"	"Windows 10"	"61.54"	"006"	n/a	n/a	n/a	n/a	n/a	n/a	"block_results"	n/a	n/a	n/a	"58358"	"0"	n/a	"NULL"	"NULL"	"NULL"	"<p>Your score for this illusion is <p style=\"color: black; font-size: 48px; font-weight: bold;\">79.1 %</p><hr><p>Can you do better in the next illusion?</p>"	n/a	n/a	n/a	n/a	n/a	n/a	n/a	n/a	n/a	n/a
"TRUE"	"preload"	"182"	"521714538"	"0.0-6.0-0.0"	"y3hbu8"	"563"	"952"	"chrome"	"109.0.0"	"FALSE"	"Windows 10"	"61.54"	"006"	n/a	n/a	n/a	n/a	n/a	n/a	n/a	n/a	n/a	n/a	n/a	"NULL"	"FALSE"	"list()"	"list()"	"list()"	n/a	n/a	n/a	n/a	n/a	n/a	n/a	n/a	n/a	n/a	n/a
n/a	"html-keyboard-response"	"183"	"521717920"	"0.0-6.0-1.0"	"y3hbu8"	"563"	"952"	"chrome"	"109.0.0"	"FALSE"	"Windows 10"	"61.54"	"006"	n/a	n/a	n/a	n/a	n/a	n/a	n/a	n/a	n/a	n/a	"3381"	"enter"	n/a	"NULL"	"NULL"	"NULL"	"<p><b>Part 2/6</b></p><p>In this part, two horizontal red lines will appear one above the other.</p><p>Your task is to select which <b>line is longer</b> in length as fast as you can, without making errors.</p><p>Don't get distracted by the surrounding black arrows at the end of the red lines!</p><p>Press <b>the UP or the DOWN arrow</b> to indicate where is the longer <b>red line.</b></p><div style='float: center'><img src='materials/instructions/MullerLyer_Demo.png' height='300'></img><p><img src='utils/answer/answer_updown_keyboard.PNG' height='150'></img></p><p class='small'>In this example, the correct answer is the <b>UP arrow</b>.</p></div><p>Are you ready? <b>Press ENTER to start</b></p>"	n/a	n/a	n/a	n/a	n/a	n/a	n/a	n/a	n/a	n/a
n/a	"html-keyboard-response"	"184"	"521719926"	"0.0-6.0-2.0-0.0"	"y3hbu8"	"563"	"952"	"chrome"	"109.0.0"	"FALSE"	"Windows 10"	"61.54"	"006"	n/a	n/a	n/a	n/a	n/a	n/a	"fixation"	n/a	n/a	n/a	n/a	"NULL"	n/a	"NULL"	"NULL"	"NULL"	"<p style=\"color: black; font-size: 80px; padding-left: 46%; padding-right: 13%; padding-top: 38%; padding-bottom: 15%\">+</p>"	"1488"	n/a	n/a	n/a	n/a	n/a	n/a	n/a	n/a	n/a
n/a	"image-keyboard-response"	"185"	"521721102"	"0.0-6.0-2.0-1.0"	"y3hbu8"	"563"	"952"	"chrome"	"109.0.0"	"FALSE"	"Windows 10"	"61.54"	"006"	n/a	n/a	n/a	n/a	n/a	n/a	"Trial"	n/a	n/a	n/a	"1175"	"arrowup"	n/a	"NULL"	"NULL"	"NULL"	"stimuli/MullerLyer_20.04286_0.23665.png"	n/a	"MullerLyer"	"arrowup"	"2006"	"TRUE"	"MullerLyer"	"20.042860000"	"0.2366500000"	"2"	"1"
n/a	"html-keyboard-response"	"186"	"521722526"	"0.0-6.0-2.0-0.1"	"y3hbu8"	"563"	"952"	"chrome"	"109.0.0"	"FALSE"	"Windows 10"	"61.54"	"006"	n/a	n/a	n/a	n/a	n/a	n/a	"fixation"	n/a	n/a	n/a	n/a	"NULL"	n/a	"NULL"	"NULL"	"NULL"	"<p style=\"color: black; font-size: 80px; padding-left: 9%; padding-right: 21%; padding-top: 1%; padding-bottom: 17%\">+</p>"	"1409"	n/a	n/a	n/a	n/a	n/a	n/a	n/a	n/a	n/a
n/a	"image-keyboard-response"	"187"	"521723029"	"0.0-6.0-2.0-1.1"	"y3hbu8"	"563"	"952"	"chrome"	"109.0.0"	"FALSE"	"Windows 10"	"61.54"	"006"	n/a	n/a	n/a	n/a	n/a	n/a	"Trial"	n/a	n/a	n/a	"502"	"arrowup"	n/a	"NULL"	"NULL"	"NULL"	"stimuli/MullerLyer_-14.12857_0.14541.png"	n/a	"MullerLyer"	"arrowup"	"1424"	"TRUE"	"MullerLyer"	"-14.12857000"	"0.1454100000"	"2"	"2"
n/a	"html-keyboard-response"	"188"	"521724383"	"0.0-6.0-2.0-0.2"	"y3hbu8"	"563"	"952"	"chrome"	"109.0.0"	"FALSE"	"Windows 10"	"61.54"	"006"	n/a	n/a	n/a	n/a	n/a	n/a	"fixation"	n/a	n/a	n/a	n/a	"NULL"	n/a	"NULL"	"NULL"	"NULL"	"<p style=\"color: black; font-size: 80px; padding-left: 3%; padding-right: 19%; padding-top: 10%; padding-bottom: 2%\">+</p>"	"1340"	n/a	n/a	n/a	n/a	n/a	n/a	n/a	n/a	n/a
n/a	"image-keyboard-response"	"189"	"521724882"	"0.0-6.0-2.0-1.2"	"y3hbu8"	"563"	"952"	"chrome"	"109.0.0"	"FALSE"	"Windows 10"	"61.54"	"006"	n/a	n/a	n/a	n/a	n/a	n/a	"Trial"	n/a	n/a	n/a	"498"	"arrowup"	n/a	"NULL"	"NULL"	"NULL"	"stimuli/MullerLyer_14.12857_0.35000.png"	n/a	"MullerLyer"	"arrowup"	"1354"	"TRUE"	"MullerLyer"	"14.128570000"	"0.3500000000"	"2"	"3"
n/a	"html-keyboard-response"	"190"	"521726210"	"0.0-6.0-2.0-0.3"	"y3hbu8"	"563"	"952"	"chrome"	"109.0.0"	"FALSE"	"Windows 10"	"61.54"	"006"	n/a	n/a	n/a	n/a	n/a	n/a	"fixation"	n/a	n/a	n/a	n/a	"NULL"	n/a	"NULL"	"NULL"	"NULL"	"<p style=\"color: black; font-size: 80px; padding-left: 26%; padding-right: 48%; padding-top: 40%; padding-bottom: 15%\">+</p>"	"1310"	n/a	n/a	n/a	n/a	n/a	n/a	n/a	n/a	n/a
n/a	"image-keyboard-response"	"191"	"521726659"	"0.0-6.0-2.0-1.3"	"y3hbu8"	"563"	"952"	"chrome"	"109.0.0"	"FALSE"	"Windows 10"	"61.54"	"006"	n/a	n/a	n/a	n/a	n/a	n/a	"Trial"	n/a	n/a	n/a	"448"	"arrowup"	n/a	"NULL"	"NULL"	"NULL"	"stimuli/MullerLyer_-8.21429_0.23665.png"	n/a	"MullerLyer"	"arrowup"	"1328"	"TRUE"	"MullerLyer"	"-8.214290000"	"0.2366500000"	"2"	"4"
n/a	"html-keyboard-response"	"192"	"521728061"	"0.0-6.0-2.0-0.4"	"y3hbu8"	"563"	"952"	"chrome"	"109.0.0"	"FALSE"	"Windows 10"	"61.54"	"006"	n/a	n/a	n/a	n/a	n/a	n/a	"fixation"	n/a	n/a	n/a	n/a	"NULL"	n/a	"NULL"	"NULL"	"NULL"	"<p style=\"color: black; font-size: 80px; padding-left: 46%; padding-right: 41%; padding-top: 2%; padding-bottom: 10%\">+</p>"	"1392"	n/a	n/a	n/a	n/a	n/a	n/a	n/a	n/a	n/a
n/a	"image-keyboard-response"	"193"	"521728470"	"0.0-6.0-2.0-1.4"	"y3hbu8"	"563"	"952"	"chrome"	"109.0.0"	"FALSE"	"Windows 10"	"61.54"	"006"	n/a	n/a	n/a	n/a	n/a	n/a	"Trial"	n/a	n/a	n/a	"407"	"arrowdown"	n/a	"NULL"	"NULL"	"NULL"	"stimuli/MullerLyer_-20.04286_-0.14541.png"	n/a	"MullerLyer"	"arrowdown"	"1402"	"TRUE"	"MullerLyer"	"-20.04286000"	"-0.145410000"	"2"	"5"
n/a	"html-keyboard-response"	"194"	"521729570"	"0.0-6.0-2.0-0.5"	"y3hbu8"	"563"	"952"	"chrome"	"109.0.0"	"FALSE"	"Windows 10"	"61.54"	"006"	n/a	n/a	n/a	n/a	n/a	n/a	"fixation"	n/a	n/a	n/a	n/a	"NULL"	n/a	"NULL"	"NULL"	"NULL"	"<p style=\"color: black; font-size: 80px; padding-left: 3%; padding-right: 19%; padding-top: 41%; padding-bottom: 42%\">+</p>"	"1085"	n/a	n/a	n/a	n/a	n/a	n/a	n/a	n/a	n/a
n/a	"image-keyboard-response"	"195"	"521730552"	"0.0-6.0-2.0-1.5"	"y3hbu8"	"563"	"952"	"chrome"	"109.0.0"	"FALSE"	"Windows 10"	"61.54"	"006"	n/a	n/a	n/a	n/a	n/a	n/a	"Trial"	n/a	n/a	n/a	"982"	"arrowup"	n/a	"NULL"	"NULL"	"NULL"	"stimuli/MullerLyer_2.30000_0.07627.png"	n/a	"MullerLyer"	"arrowup"	"1100"	"TRUE"	"MullerLyer"	"2.3000000000"	"0.0762700000"	"2"	"6"
n/a	"html-keyboard-response"	"196"	"521732056"	"0.0-6.0-2.0-0.6"	"y3hbu8"	"563"	"952"	"chrome"	"109.0.0"	"FALSE"	"Windows 10"	"61.54"	"006"	n/a	n/a	n/a	n/a	n/a	n/a	"fixation"	n/a	n/a	n/a	n/a	"NULL"	n/a	"NULL"	"NULL"	"NULL"	"<p style=\"color: black; font-size: 80px; padding-left: 45%; padding-right: 48%; padding-top: 32%; padding-bottom: 9%\">+</p>"	"1488"	n/a	n/a	n/a	n/a	n/a	n/a	n/a	n/a	n/a
n/a	"image-keyboard-response"	"197"	"521732497"	"0.0-6.0-2.0-1.6"	"y3hbu8"	"563"	"952"	"chrome"	"109.0.0"	"FALSE"	"Windows 10"	"61.54"	"006"	n/a	n/a	n/a	n/a	n/a	n/a	"Trial"	n/a	n/a	n/a	"441"	"arrowdown"	n/a	"NULL"	"NULL"	"NULL"	"stimuli/MullerLyer_-8.21429_-0.3500.png"	n/a	"MullerLyer"	"arrowdown"	"1504"	"TRUE"	"MullerLyer"	"-8.214290000"	"-0.350000000"	"2"	"7"
n/a	"html-keyboard-response"	"198"	"521733982"	"0.0-6.0-2.0-0.7"	"y3hbu8"	"563"	"952"	"chrome"	"109.0.0"	"FALSE"	"Windows 10"	"61.54"	"006"	n/a	n/a	n/a	n/a	n/a	n/a	"fixation"	n/a	n/a	n/a	n/a	"NULL"	n/a	"NULL"	"NULL"	"NULL"	"<p style=\"color: black; font-size: 80px; padding-left: 27%; padding-right: 49%; padding-top: 25%; padding-bottom: 13%\">+</p>"	"1464"	n/a	n/a	n/a	n/a	n/a	n/a	n/a	n/a	n/a
n/a	"image-keyboard-response"	"199"	"521734459"	"0.0-6.0-2.0-1.7"	"y3hbu8"	"563"	"952"	"chrome"	"109.0.0"	"FALSE"	"Windows 10"	"61.54"	"006"	n/a	n/a	n/a	n/a	n/a	n/a	"Trial"	n/a	n/a	n/a	"475"	"arrowdown"	n/a	"NULL"	"NULL"	"NULL"	"stimuli/MullerLyer_8.21429_-0.3500.png"	n/a	"MullerLyer"	"arrowdown"	"1485"	"TRUE"	"MullerLyer"	"8.2142900000"	"-0.350000000"	"2"	"8"
n/a	"html-keyboard-response"	"200"	"521735766"	"0.0-6.0-2.0-0.8"	"y3hbu8"	"563"	"952"	"chrome"	"109.0.0"	"FALSE"	"Windows 10"	"61.54"	"006"	n/a	n/a	n/a	n/a	n/a	n/a	"fixation"	n/a	n/a	n/a	n/a	"NULL"	n/a	"NULL"	"NULL"	"NULL"	"<p style=\"color: black; font-size: 80px; padding-left: 4%; padding-right: 18%; padding-top: 6%; padding-bottom: 14%\">+</p>"	"1296"	n/a	n/a	n/a	n/a	n/a	n/a	n/a	n/a	n/a
n/a	"image-keyboard-response"	"201"	"521736254"	"0.0-6.0-2.0-1.8"	"y3hbu8"	"563"	"952"	"chrome"	"109.0.0"	"FALSE"	"Windows 10"	"61.54"	"006"	n/a	n/a	n/a	n/a	n/a	n/a	"Trial"	n/a	n/a	n/a	"486"	"arrowup"	n/a	"NULL"	"NULL"	"NULL"	"stimuli/MullerLyer_20.04286_-0.23665.png"	n/a	"MullerLyer"	"arrowdown"	"1307"	"FALSE"	"MullerLyer"	"20.042860000"	"-0.236650000"	"2"	"9"
n/a	"html-keyboard-response"	"202"	"521737761"	"0.0-6.0-2.0-0.9"	"y3hbu8"	"563"	"952"	"chrome"	"109.0.0"	"FALSE"	"Windows 10"	"61.54"	"006"	n/a	n/a	n/a	n/a	n/a	n/a	"fixation"	n/a	n/a	n/a	n/a	"NULL"	n/a	"NULL"	"NULL"	"NULL"	"<p style=\"color: black; font-size: 80px; padding-left: 24%; padding-right: 36%; padding-top: 37%; padding-bottom: 40%\">+</p>"	"1498"	n/a	n/a	n/a	n/a	n/a	n/a	n/a	n/a	n/a
n/a	"image-keyboard-response"	"203"	"521738164"	"0.0-6.0-2.0-1.9"	"y3hbu8"	"563"	"952"	"chrome"	"109.0.0"	"FALSE"	"Windows 10"	"61.54"	"006"	n/a	n/a	n/a	n/a	n/a	n/a	"Trial"	n/a	n/a	n/a	"401"	"arrowdown"	n/a	"NULL"	"NULL"	"NULL"	"stimuli/MullerLyer_-14.12857_-0.3500.png"	n/a	"MullerLyer"	"arrowdown"	"1507"	"TRUE"	"MullerLyer"	"-14.12857000"	"-0.350000000"	"2"	"10"
n/a	"html-keyboard-response"	"204"	"521739588"	"0.0-6.0-2.0-0.10"	"y3hbu8"	"563"	"952"	"chrome"	"109.0.0"	"FALSE"	"Windows 10"	"61.54"	"006"	n/a	n/a	n/a	n/a	n/a	n/a	"fixation"	n/a	n/a	n/a	n/a	"NULL"	n/a	"NULL"	"NULL"	"NULL"	"<p style=\"color: black; font-size: 80px; padding-left: 30%; padding-right: 39%; padding-top: 29%; padding-bottom: 39%\">+</p>"	"1412"	n/a	n/a	n/a	n/a	n/a	n/a	n/a	n/a	n/a
n/a	"image-keyboard-response"	"205"	"521739969"	"0.0-6.0-2.0-1.10"	"y3hbu8"	"563"	"952"	"chrome"	"109.0.0"	"FALSE"	"Windows 10"	"61.54"	"006"	n/a	n/a	n/a	n/a	n/a	n/a	"Trial"	n/a	n/a	n/a	"380"	"arrowdown"	n/a	"NULL"	"NULL"	"NULL"	"stimuli/MullerLyer_2.30000_-0.23665.png"	n/a	"MullerLyer"	"arrowdown"	"1424"	"TRUE"	"MullerLyer"	"2.3000000000"	"-0.236650000"	"2"	"11"
n/a	"html-keyboard-response"	"206"	"521741034"	"0.0-6.0-2.0-0.11"	"y3hbu8"	"563"	"952"	"chrome"	"109.0.0"	"FALSE"	"Windows 10"	"61.54"	"006"	n/a	n/a	n/a	n/a	n/a	n/a	"fixation"	n/a	n/a	n/a	n/a	"NULL"	n/a	"NULL"	"NULL"	"NULL"	"<p style=\"color: black; font-size: 80px; padding-left: 8%; padding-right: 36%; padding-top: 36%; padding-bottom: 43%\">+</p>"	"1055"	n/a	n/a	n/a	n/a	n/a	n/a	n/a	n/a	n/a
n/a	"image-keyboard-response"	"207"	"521741560"	"0.0-6.0-2.0-1.11"	"y3hbu8"	"563"	"952"	"chrome"	"109.0.0"	"FALSE"	"Windows 10"	"61.54"	"006"	n/a	n/a	n/a	n/a	n/a	n/a	"Trial"	n/a	n/a	n/a	"522"	"arrowdown"	n/a	"NULL"	"NULL"	"NULL"	"stimuli/MullerLyer_2.30000_-0.3500.png"	n/a	"MullerLyer"	"arrowdown"	"1065"	"TRUE"	"MullerLyer"	"2.3000000000"	"-0.350000000"	"2"	"12"
n/a	"html-keyboard-response"	"208"	"521742834"	"0.0-6.0-2.0-0.12"	"y3hbu8"	"563"	"952"	"chrome"	"109.0.0"	"FALSE"	"Windows 10"	"61.54"	"006"	n/a	n/a	n/a	n/a	n/a	n/a	"fixation"	n/a	n/a	n/a	n/a	"NULL"	n/a	"NULL"	"NULL"	"NULL"	"<p style=\"color: black; font-size: 80px; padding-left: 26%; padding-right: 3%; padding-top: 13%; padding-bottom: 16%\">+</p>"	"1255"	n/a	n/a	n/a	n/a	n/a	n/a	n/a	n/a	n/a
n/a	"image-keyboard-response"	"209"	"521743187"	"0.0-6.0-2.0-1.12"	"y3hbu8"	"563"	"952"	"chrome"	"109.0.0"	"FALSE"	"Windows 10"	"61.54"	"006"	n/a	n/a	n/a	n/a	n/a	n/a	"Trial"	n/a	n/a	n/a	"352"	"arrowdown"	n/a	"NULL"	"NULL"	"NULL"	"stimuli/MullerLyer_-8.21429_-0.23665.png"	n/a	"MullerLyer"	"arrowdown"	"1274"	"TRUE"	"MullerLyer"	"-8.214290000"	"-0.236650000"	"2"	"13"
n/a	"html-keyboard-response"	"210"	"521744587"	"0.0-6.0-2.0-0.13"	"y3hbu8"	"563"	"952"	"chrome"	"109.0.0"	"FALSE"	"Windows 10"	"61.54"	"006"	n/a	n/a	n/a	n/a	n/a	n/a	"fixation"	n/a	n/a	n/a	n/a	"NULL"	n/a	"NULL"	"NULL"	"NULL"	"<p style=\"color: black; font-size: 80px; padding-left: 16%; padding-right: 45%; padding-top: 28%; padding-bottom: 40%\">+</p>"	"1388"	n/a	n/a	n/a	n/a	n/a	n/a	n/a	n/a	n/a
n/a	"image-keyboard-response"	"211"	"521745013"	"0.0-6.0-2.0-1.13"	"y3hbu8"	"563"	"952"	"chrome"	"109.0.0"	"FALSE"	"Windows 10"	"61.54"	"006"	n/a	n/a	n/a	n/a	n/a	n/a	"Trial"	n/a	n/a	n/a	"425"	"arrowup"	n/a	"NULL"	"NULL"	"NULL"	"stimuli/MullerLyer_-2.3000_0.14541.png"	n/a	"MullerLyer"	"arrowup"	"1400"	"TRUE"	"MullerLyer"	"-2.300000000"	"0.1454100000"	"2"	"14"
n/a	"html-keyboard-response"	"212"	"521746325"	"0.0-6.0-2.0-0.14"	"y3hbu8"	"563"	"952"	"chrome"	"109.0.0"	"FALSE"	"Windows 10"	"61.54"	"006"	n/a	n/a	n/a	n/a	n/a	n/a	"fixation"	n/a	n/a	n/a	n/a	"NULL"	n/a	"NULL"	"NULL"	"NULL"	"<p style=\"color: black; font-size: 80px; padding-left: 10%; padding-right: 45%; padding-top: 28%; padding-bottom: 4%\">+</p>"	"1300"	n/a	n/a	n/a	n/a	n/a	n/a	n/a	n/a	n/a
n/a	"image-keyboard-response"	"213"	"521746715"	"0.0-6.0-2.0-1.14"	"y3hbu8"	"563"	"952"	"chrome"	"109.0.0"	"FALSE"	"Windows 10"	"61.54"	"006"	n/a	n/a	n/a	n/a	n/a	n/a	"Trial"	n/a	n/a	n/a	"385"	"arrowup"	n/a	"NULL"	"NULL"	"NULL"	"stimuli/MullerLyer_2.30000_0.23665.png"	n/a	"MullerLyer"	"arrowup"	"1312"	"TRUE"	"MullerLyer"	"2.3000000000"	"0.2366500000"	"2"	"15"
n/a	"html-keyboard-response"	"214"	"521747997"	"0.0-6.0-2.0-0.15"	"y3hbu8"	"563"	"952"	"chrome"	"109.0.0"	"FALSE"	"Windows 10"	"61.54"	"006"	n/a	n/a	n/a	n/a	n/a	n/a	"fixation"	n/a	n/a	n/a	n/a	"NULL"	n/a	"NULL"	"NULL"	"NULL"	"<p style=\"color: black; font-size: 80px; padding-left: 47%; padding-right: 34%; padding-top: 48%; padding-bottom: 20%\">+</p>"	"1262"	n/a	n/a	n/a	n/a	n/a	n/a	n/a	n/a	n/a
n/a	"image-keyboard-response"	"215"	"521748407"	"0.0-6.0-2.0-1.15"	"y3hbu8"	"563"	"952"	"chrome"	"109.0.0"	"FALSE"	"Windows 10"	"61.54"	"006"	n/a	n/a	n/a	n/a	n/a	n/a	"Trial"	n/a	n/a	n/a	"409"	"arrowup"	n/a	"NULL"	"NULL"	"NULL"	"stimuli/MullerLyer_-8.21429_0.07627.png"	n/a	"MullerLyer"	"arrowup"	"1282"	"TRUE"	"MullerLyer"	"-8.214290000"	"0.0762700000"	"2"	"16"
n/a	"html-keyboard-response"	"216"	"521749664"	"0.0-6.0-2.0-0.16"	"y3hbu8"	"563"	"952"	"chrome"	"109.0.0"	"FALSE"	"Windows 10"	"61.54"	"006"	n/a	n/a	n/a	n/a	n/a	n/a	"fixation"	n/a	n/a	n/a	n/a	"NULL"	n/a	"NULL"	"NULL"	"NULL"	"<p style=\"color: black; font-size: 80px; padding-left: 32%; padding-right: 2%; padding-top: 38%; padding-bottom: 44%\">+</p>"	"1236"	n/a	n/a	n/a	n/a	n/a	n/a	n/a	n/a	n/a
n/a	"image-keyboard-response"	"217"	"521750018"	"0.0-6.0-2.0-1.16"	"y3hbu8"	"563"	"952"	"chrome"	"109.0.0"	"FALSE"	"Windows 10"	"61.54"	"006"	n/a	n/a	n/a	n/a	n/a	n/a	"Trial"	n/a	n/a	n/a	"352"	"arrowup"	n/a	"NULL"	"NULL"	"NULL"	"stimuli/MullerLyer_-20.04286_0.23665.png"	n/a	"MullerLyer"	"arrowup"	"1257"	"TRUE"	"MullerLyer"	"-20.04286000"	"0.2366500000"	"2"	"17"
n/a	"html-keyboard-response"	"218"	"521751393"	"0.0-6.0-2.0-0.17"	"y3hbu8"	"563"	"952"	"chrome"	"109.0.0"	"FALSE"	"Windows 10"	"61.54"	"006"	n/a	n/a	n/a	n/a	n/a	n/a	"fixation"	n/a	n/a	n/a	n/a	"NULL"	n/a	"NULL"	"NULL"	"NULL"	"<p style=\"color: black; font-size: 80px; padding-left: 19%; padding-right: 29%; padding-top: 4%; padding-bottom: 27%\">+</p>"	"1372"	n/a	n/a	n/a	n/a	n/a	n/a	n/a	n/a	n/a
n/a	"image-keyboard-response"	"219"	"521751781"	"0.0-6.0-2.0-1.17"	"y3hbu8"	"563"	"952"	"chrome"	"109.0.0"	"FALSE"	"Windows 10"	"61.54"	"006"	n/a	n/a	n/a	n/a	n/a	n/a	"Trial"	n/a	n/a	n/a	"387"	"arrowdown"	n/a	"NULL"	"NULL"	"NULL"	"stimuli/MullerLyer_-14.12857_-0.07627.png"	n/a	"MullerLyer"	"arrowdown"	"1375"	"TRUE"	"MullerLyer"	"-14.12857000"	"-0.076270000"	"2"	"18"
n/a	"html-keyboard-response"	"220"	"521752901"	"0.0-6.0-2.0-0.18"	"y3hbu8"	"563"	"952"	"chrome"	"109.0.0"	"FALSE"	"Windows 10"	"61.54"	"006"	n/a	n/a	n/a	n/a	n/a	n/a	"fixation"	n/a	n/a	n/a	n/a	"NULL"	n/a	"NULL"	"NULL"	"NULL"	"<p style=\"color: black; font-size: 80px; padding-left: 25%; padding-right: 40%; padding-top: 10%; padding-bottom: 40%\">+</p>"	"1110"	n/a	n/a	n/a	n/a	n/a	n/a	n/a	n/a	n/a
n/a	"image-keyboard-response"	"221"	"521753273"	"0.0-6.0-2.0-1.18"	"y3hbu8"	"563"	"952"	"chrome"	"109.0.0"	"FALSE"	"Windows 10"	"61.54"	"006"	n/a	n/a	n/a	n/a	n/a	n/a	"Trial"	n/a	n/a	n/a	"371"	"arrowup"	n/a	"NULL"	"NULL"	"NULL"	"stimuli/MullerLyer_8.21429_0.14541.png"	n/a	"MullerLyer"	"arrowup"	"1120"	"TRUE"	"MullerLyer"	"8.2142900000"	"0.1454100000"	"2"	"19"
n/a	"html-keyboard-response"	"222"	"521754502"	"0.0-6.0-2.0-0.19"	"y3hbu8"	"563"	"952"	"chrome"	"109.0.0"	"FALSE"	"Windows 10"	"61.54"	"006"	n/a	n/a	n/a	n/a	n/a	n/a	"fixation"	n/a	n/a	n/a	n/a	"NULL"	n/a	"NULL"	"NULL"	"NULL"	"<p style=\"color: black; font-size: 80px; padding-left: 31%; padding-right: 45%; padding-top: 36%; padding-bottom: 22%\">+</p>"	"1214"	n/a	n/a	n/a	n/a	n/a	n/a	n/a	n/a	n/a
n/a	"image-keyboard-response"	"223"	"521754926"	"0.0-6.0-2.0-1.19"	"y3hbu8"	"563"	"952"	"chrome"	"109.0.0"	"FALSE"	"Windows 10"	"61.54"	"006"	n/a	n/a	n/a	n/a	n/a	n/a	"Trial"	n/a	n/a	n/a	"423"	"arrowdown"	n/a	"NULL"	"NULL"	"NULL"	"stimuli/MullerLyer_20.04286_-0.3500.png"	n/a	"MullerLyer"	"arrowdown"	"1229"	"TRUE"	"MullerLyer"	"20.042860000"	"-0.350000000"	"2"	"20"
n/a	"html-keyboard-response"	"224"	"521756212"	"0.0-6.0-2.0-0.20"	"y3hbu8"	"563"	"952"	"chrome"	"109.0.0"	"FALSE"	"Windows 10"	"61.54"	"006"	n/a	n/a	n/a	n/a	n/a	n/a	"fixation"	n/a	n/a	n/a	n/a	"NULL"	n/a	"NULL"	"NULL"	"NULL"	"<p style=\"color: black; font-size: 80px; padding-left: 8%; padding-right: 39%; padding-top: 36%; padding-bottom: 8%\">+</p>"	"1269"	n/a	n/a	n/a	n/a	n/a	n/a	n/a	n/a	n/a
n/a	"image-keyboard-response"	"225"	"521756670"	"0.0-6.0-2.0-1.20"	"y3hbu8"	"563"	"952"	"chrome"	"109.0.0"	"FALSE"	"Windows 10"	"61.54"	"006"	n/a	n/a	n/a	n/a	n/a	n/a	"Trial"	n/a	n/a	n/a	"455"	"arrowdown"	n/a	"NULL"	"NULL"	"NULL"	"stimuli/MullerLyer_-20.04286_-0.07627.png"	n/a	"MullerLyer"	"arrowdown"	"1286"	"TRUE"	"MullerLyer"	"-20.04286000"	"-0.076270000"	"2"	"21"
n/a	"html-keyboard-response"	"226"	"521757863"	"0.0-6.0-2.0-0.21"	"y3hbu8"	"563"	"952"	"chrome"	"109.0.0"	"FALSE"	"Windows 10"	"61.54"	"006"	n/a	n/a	n/a	n/a	n/a	n/a	"fixation"	n/a	n/a	n/a	n/a	"NULL"	n/a	"NULL"	"NULL"	"NULL"	"<p style=\"color: black; font-size: 80px; padding-left: 5%; padding-right: 36%; padding-top: 31%; padding-bottom: 6%\">+</p>"	"1177"	n/a	n/a	n/a	n/a	n/a	n/a	n/a	n/a	n/a
n/a	"image-keyboard-response"	"227"	"521758263"	"0.0-6.0-2.0-1.21"	"y3hbu8"	"563"	"952"	"chrome"	"109.0.0"	"FALSE"	"Windows 10"	"61.54"	"006"	n/a	n/a	n/a	n/a	n/a	n/a	"Trial"	n/a	n/a	n/a	"400"	"arrowup"	n/a	"NULL"	"NULL"	"NULL"	"stimuli/MullerLyer_20.04286_-0.07627.png"	n/a	"MullerLyer"	"arrowdown"	"1193"	"FALSE"	"MullerLyer"	"20.042860000"	"-0.076270000"	"2"	"22"
n/a	"html-keyboard-response"	"228"	"521759691"	"0.0-6.0-2.0-0.22"	"y3hbu8"	"563"	"952"	"chrome"	"109.0.0"	"FALSE"	"Windows 10"	"61.54"	"006"	n/a	n/a	n/a	n/a	n/a	n/a	"fixation"	n/a	n/a	n/a	n/a	"NULL"	n/a	"NULL"	"NULL"	"NULL"	"<p style=\"color: black; font-size: 80px; padding-left: 9%; padding-right: 26%; padding-top: 5%; padding-bottom: 19%\">+</p>"	"1409"	n/a	n/a	n/a	n/a	n/a	n/a	n/a	n/a	n/a
n/a	"image-keyboard-response"	"229"	"521760094"	"0.0-6.0-2.0-1.22"	"y3hbu8"	"563"	"952"	"chrome"	"109.0.0"	"FALSE"	"Windows 10"	"61.54"	"006"	n/a	n/a	n/a	n/a	n/a	n/a	"Trial"	n/a	n/a	n/a	"401"	"arrowup"	n/a	"NULL"	"NULL"	"NULL"	"stimuli/MullerLyer_14.12857_0.23665.png"	n/a	"MullerLyer"	"arrowup"	"1428"	"TRUE"	"MullerLyer"	"14.128570000"	"0.2366500000"	"2"	"23"
n/a	"html-keyboard-response"	"230"	"521761321"	"0.0-6.0-2.0-0.23"	"y3hbu8"	"563"	"952"	"chrome"	"109.0.0"	"FALSE"	"Windows 10"	"61.54"	"006"	n/a	n/a	n/a	n/a	n/a	n/a	"fixation"	n/a	n/a	n/a	n/a	"NULL"	n/a	"NULL"	"NULL"	"NULL"	"<p style=\"color: black; font-size: 80px; padding-left: 45%; padding-right: 28%; padding-top: 23%; padding-bottom: 9%\">+</p>"	"1217"	n/a	n/a	n/a	n/a	n/a	n/a	n/a	n/a	n/a
n/a	"image-keyboard-response"	"231"	"521761761"	"0.0-6.0-2.0-1.23"	"y3hbu8"	"563"	"952"	"chrome"	"109.0.0"	"FALSE"	"Windows 10"	"61.54"	"006"	n/a	n/a	n/a	n/a	n/a	n/a	"Trial"	n/a	n/a	n/a	"439"	"arrowup"	n/a	"NULL"	"NULL"	"NULL"	"stimuli/MullerLyer_-8.21429_0.14541.png"	n/a	"MullerLyer"	"arrowup"	"1227"	"TRUE"	"MullerLyer"	"-8.214290000"	"0.1454100000"	"2"	"24"
n/a	"html-keyboard-response"	"232"	"521763083"	"0.0-6.0-2.0-0.24"	"y3hbu8"	"563"	"952"	"chrome"	"109.0.0"	"FALSE"	"Windows 10"	"61.54"	"006"	n/a	n/a	n/a	n/a	n/a	n/a	"fixation"	n/a	n/a	n/a	n/a	"NULL"	n/a	"NULL"	"NULL"	"NULL"	"<p style=\"color: black; font-size: 80px; padding-left: 1%; padding-right: 7%; padding-top: 37%; padding-bottom: 37%\">+</p>"	"1305"	n/a	n/a	n/a	n/a	n/a	n/a	n/a	n/a	n/a
n/a	"image-keyboard-response"	"233"	"521763497"	"0.0-6.0-2.0-1.24"	"y3hbu8"	"563"	"952"	"chrome"	"109.0.0"	"FALSE"	"Windows 10"	"61.54"	"006"	n/a	n/a	n/a	n/a	n/a	n/a	"Trial"	n/a	n/a	n/a	"413"	"arrowup"	n/a	"NULL"	"NULL"	"NULL"	"stimuli/MullerLyer_-20.04286_0.14541.png"	n/a	"MullerLyer"	"arrowup"	"1322"	"TRUE"	"MullerLyer"	"-20.04286000"	"0.1454100000"	"2"	"25"
n/a	"html-keyboard-response"	"234"	"521764977"	"0.0-6.0-2.0-0.25"	"y3hbu8"	"563"	"952"	"chrome"	"109.0.0"	"FALSE"	"Windows 10"	"61.54"	"006"	n/a	n/a	n/a	n/a	n/a	n/a	"fixation"	n/a	n/a	n/a	n/a	"NULL"	n/a	"NULL"	"NULL"	"NULL"	"<p style=\"color: black; font-size: 80px; padding-left: 48%; padding-right: 32%; padding-top: 26%; padding-bottom: 37%\">+</p>"	"1472"	n/a	n/a	n/a	n/a	n/a	n/a	n/a	n/a	n/a
n/a	"image-keyboard-response"	"235"	"521765380"	"0.0-6.0-2.0-1.25"	"y3hbu8"	"563"	"952"	"chrome"	"109.0.0"	"FALSE"	"Windows 10"	"61.54"	"006"	n/a	n/a	n/a	n/a	n/a	n/a	"Trial"	n/a	n/a	n/a	"402"	"arrowdown"	n/a	"NULL"	"NULL"	"NULL"	"stimuli/MullerLyer_20.04286_0.14541.png"	n/a	"MullerLyer"	"arrowup"	"1480"	"FALSE"	"MullerLyer"	"20.042860000"	"0.1454100000"	"2"	"26"
n/a	"html-keyboard-response"	"236"	"521766683"	"0.0-6.0-2.0-0.26"	"y3hbu8"	"563"	"952"	"chrome"	"109.0.0"	"FALSE"	"Windows 10"	"61.54"	"006"	n/a	n/a	n/a	n/a	n/a	n/a	"fixation"	n/a	n/a	n/a	n/a	"NULL"	n/a	"NULL"	"NULL"	"NULL"	"<p style=\"color: black; font-size: 80px; padding-left: 11%; padding-right: 13%; padding-top: 13%; padding-bottom: 29%\">+</p>"	"1292"	n/a	n/a	n/a	n/a	n/a	n/a	n/a	n/a	n/a
n/a	"image-keyboard-response"	"237"	"521767081"	"0.0-6.0-2.0-1.26"	"y3hbu8"	"563"	"952"	"chrome"	"109.0.0"	"FALSE"	"Windows 10"	"61.54"	"006"	n/a	n/a	n/a	n/a	n/a	n/a	"Trial"	n/a	n/a	n/a	"396"	"arrowdown"	n/a	"NULL"	"NULL"	"NULL"	"stimuli/MullerLyer_-20.04286_-0.23665.png"	n/a	"MullerLyer"	"arrowdown"	"1303"	"TRUE"	"MullerLyer"	"-20.04286000"	"-0.236650000"	"2"	"27"
n/a	"html-keyboard-response"	"238"	"521768188"	"0.0-6.0-2.0-0.27"	"y3hbu8"	"563"	"952"	"chrome"	"109.0.0"	"FALSE"	"Windows 10"	"61.54"	"006"	n/a	n/a	n/a	n/a	n/a	n/a	"fixation"	n/a	n/a	n/a	n/a	"NULL"	n/a	"NULL"	"NULL"	"NULL"	"<p style=\"color: black; font-size: 80px; padding-left: 32%; padding-right: 45%; padding-top: 1%; padding-bottom: 24%\">+</p>"	"1086"	n/a	n/a	n/a	n/a	n/a	n/a	n/a	n/a	n/a
n/a	"image-keyboard-response"	"239"	"521768548"	"0.0-6.0-2.0-1.27"	"y3hbu8"	"563"	"952"	"chrome"	"109.0.0"	"FALSE"	"Windows 10"	"61.54"	"006"	n/a	n/a	n/a	n/a	n/a	n/a	"Trial"	n/a	n/a	n/a	"358"	"arrowup"	n/a	"NULL"	"NULL"	"NULL"	"stimuli/MullerLyer_14.12857_-0.14541.png"	n/a	"MullerLyer"	"arrowdown"	"1107"	"FALSE"	"MullerLyer"	"14.128570000"	"-0.145410000"	"2"	"28"
n/a	"html-keyboard-response"	"240"	"521769587"	"0.0-6.0-2.0-0.28"	"y3hbu8"	"563"	"952"	"chrome"	"109.0.0"	"FALSE"	"Windows 10"	"61.54"	"006"	n/a	n/a	n/a	n/a	n/a	n/a	"fixation"	n/a	n/a	n/a	n/a	"NULL"	n/a	"NULL"	"NULL"	"NULL"	"<p style=\"color: black; font-size: 80px; padding-left: 39%; padding-right: 43%; padding-top: 42%; padding-bottom: 30%\">+</p>"	"1033"	n/a	n/a	n/a	n/a	n/a	n/a	n/a	n/a	n/a
n/a	"image-keyboard-response"	"241"	"521770001"	"0.0-6.0-2.0-1.28"	"y3hbu8"	"563"	"952"	"chrome"	"109.0.0"	"FALSE"	"Windows 10"	"61.54"	"006"	n/a	n/a	n/a	n/a	n/a	n/a	"Trial"	n/a	n/a	n/a	"413"	"arrowdown"	n/a	"NULL"	"NULL"	"NULL"	"stimuli/MullerLyer_8.21429_-0.23665.png"	n/a	"MullerLyer"	"arrowdown"	"1039"	"TRUE"	"MullerLyer"	"8.2142900000"	"-0.236650000"	"2"	"29"
n/a	"html-keyboard-response"	"242"	"521771197"	"0.0-6.0-2.0-0.29"	"y3hbu8"	"563"	"952"	"chrome"	"109.0.0"	"FALSE"	"Windows 10"	"61.54"	"006"	n/a	n/a	n/a	n/a	n/a	n/a	"fixation"	n/a	n/a	n/a	n/a	"NULL"	n/a	"NULL"	"NULL"	"NULL"	"<p style=\"color: black; font-size: 80px; padding-left: 8%; padding-right: 40%; padding-top: 40%; padding-bottom: 28%\">+</p>"	"1176"	n/a	n/a	n/a	n/a	n/a	n/a	n/a	n/a	n/a
n/a	"image-keyboard-response"	"243"	"521771707"	"0.0-6.0-2.0-1.29"	"y3hbu8"	"563"	"952"	"chrome"	"109.0.0"	"FALSE"	"Windows 10"	"61.54"	"006"	n/a	n/a	n/a	n/a	n/a	n/a	"Trial"	n/a	n/a	n/a	"509"	"arrowup"	n/a	"NULL"	"NULL"	"NULL"	"stimuli/MullerLyer_2.30000_-0.07627.png"	n/a	"MullerLyer"	"arrowdown"	"1196"	"FALSE"	"MullerLyer"	"2.3000000000"	"-0.076270000"	"2"	"30"
n/a	"html-keyboard-response"	"244"	"521772834"	"0.0-6.0-2.0-0.30"	"y3hbu8"	"563"	"952"	"chrome"	"109.0.0"	"FALSE"	"Windows 10"	"61.54"	"006"	n/a	n/a	n/a	n/a	n/a	n/a	"fixation"	n/a	n/a	n/a	n/a	"NULL"	n/a	"NULL"	"NULL"	"NULL"	"<p style=\"color: black; font-size: 80px; padding-left: 30%; padding-right: 36%; padding-top: 35%; padding-bottom: 12%\">+</p>"	"1114"	n/a	n/a	n/a	n/a	n/a	n/a	n/a	n/a	n/a
n/a	"image-keyboard-response"	"245"	"521773234"	"0.0-6.0-2.0-1.30"	"y3hbu8"	"563"	"952"	"chrome"	"109.0.0"	"FALSE"	"Windows 10"	"61.54"	"006"	n/a	n/a	n/a	n/a	n/a	n/a	"Trial"	n/a	n/a	n/a	"398"	"arrowdown"	n/a	"NULL"	"NULL"	"NULL"	"stimuli/MullerLyer_-14.12857_-0.23665.png"	n/a	"MullerLyer"	"arrowdown"	"1127"	"TRUE"	"MullerLyer"	"-14.12857000"	"-0.236650000"	"2"	"31"
n/a	"html-keyboard-response"	"246"	"521774739"	"0.0-6.0-2.0-0.31"	"y3hbu8"	"563"	"952"	"chrome"	"109.0.0"	"FALSE"	"Windows 10"	"61.54"	"006"	n/a	n/a	n/a	n/a	n/a	n/a	"fixation"	n/a	n/a	n/a	n/a	"NULL"	n/a	"NULL"	"NULL"	"NULL"	"<p style=\"color: black; font-size: 80px; padding-left: 40%; padding-right: 39%; padding-top: 4%; padding-bottom: 20%\">+</p>"	"1485"	n/a	n/a	n/a	n/a	n/a	n/a	n/a	n/a	n/a
n/a	"image-keyboard-response"	"247"	"521775199"	"0.0-6.0-2.0-1.31"	"y3hbu8"	"563"	"952"	"chrome"	"109.0.0"	"FALSE"	"Windows 10"	"61.54"	"006"	n/a	n/a	n/a	n/a	n/a	n/a	"Trial"	n/a	n/a	n/a	"455"	"arrowup"	n/a	"NULL"	"NULL"	"NULL"	"stimuli/MullerLyer_14.12857_-0.3500.png"	n/a	"MullerLyer"	"arrowdown"	"1505"	"FALSE"	"MullerLyer"	"14.128570000"	"-0.350000000"	"2"	"32"
n/a	"html-keyboard-response"	"248"	"521776318"	"0.0-6.0-2.0-0.32"	"y3hbu8"	"563"	"952"	"chrome"	"109.0.0"	"FALSE"	"Windows 10"	"61.54"	"006"	n/a	n/a	n/a	n/a	n/a	n/a	"fixation"	n/a	n/a	n/a	n/a	"NULL"	n/a	"NULL"	"NULL"	"NULL"	"<p style=\"color: black; font-size: 80px; padding-left: 6%; padding-right: 22%; padding-top: 46%; padding-bottom: 40%\">+</p>"	"1103"	n/a	n/a	n/a	n/a	n/a	n/a	n/a	n/a	n/a
n/a	"image-keyboard-response"	"249"	"521776817"	"0.0-6.0-2.0-1.32"	"y3hbu8"	"563"	"952"	"chrome"	"109.0.0"	"FALSE"	"Windows 10"	"61.54"	"006"	n/a	n/a	n/a	n/a	n/a	n/a	"Trial"	n/a	n/a	n/a	"498"	"arrowup"	n/a	"NULL"	"NULL"	"NULL"	"stimuli/MullerLyer_14.12857_-0.23665.png"	n/a	"MullerLyer"	"arrowdown"	"1119"	"FALSE"	"MullerLyer"	"14.128570000"	"-0.236650000"	"2"	"33"
n/a	"html-keyboard-response"	"250"	"521778053"	"0.0-6.0-2.0-0.33"	"y3hbu8"	"563"	"952"	"chrome"	"109.0.0"	"FALSE"	"Windows 10"	"61.54"	"006"	n/a	n/a	n/a	n/a	n/a	n/a	"fixation"	n/a	n/a	n/a	n/a	"NULL"	n/a	"NULL"	"NULL"	"NULL"	"<p style=\"color: black; font-size: 80px; padding-left: 29%; padding-right: 46%; padding-top: 34%; padding-bottom: 48%\">+</p>"	"1222"	n/a	n/a	n/a	n/a	n/a	n/a	n/a	n/a	n/a
n/a	"image-keyboard-response"	"251"	"521778529"	"0.0-6.0-2.0-1.33"	"y3hbu8"	"563"	"952"	"chrome"	"109.0.0"	"FALSE"	"Windows 10"	"61.54"	"006"	n/a	n/a	n/a	n/a	n/a	n/a	"Trial"	n/a	n/a	n/a	"475"	"arrowup"	n/a	"NULL"	"NULL"	"NULL"	"stimuli/MullerLyer_-2.3000_0.35000.png"	n/a	"MullerLyer"	"arrowup"	"1236"	"TRUE"	"MullerLyer"	"-2.300000000"	"0.3500000000"	"2"	"34"
