"success"	"trial_type"	"trial_index"	"time_elapsed"	"internal_node_id"	"participant_id"	"screen_height"	"screen_width"	"browser"	"browser_version"	"mobile"	"os"	"vsync_rate"	"width"	"height"	"webaudio"	"fullscreen"	"webcam"	"microphone"	"screen"	"version"	"date"	"time"	"timeout"	"failed_images"	"failed_audio"	"failed_video"	"rt"	"stimulus"	"response"	"trial_duration"	"block"	"correct_response"	"prestimulus_duration"	"correct"	"type"	"illusion_strength"	"illusion_difference"	"block_number"	"trial_number"
"TRUE"	"fullscreen"	"0"	"1606"	"0.0-0.0"	"wo5rw2"	"600"	"1366"	"chrome"	"108.0.0"	"FALSE"	"Windows 10"	"60.51"	n/a	n/a	n/a	n/a	n/a	n/a	n/a	n/a	n/a	n/a	n/a	"NULL"	"NULL"	"NULL"	n/a	n/a	n/a	n/a	n/a	n/a	n/a	n/a	n/a	n/a	n/a	n/a	n/a
n/a	"browser-check"	"1"	"2611"	"0.0-1.0"	"wo5rw2"	"600"	"1366"	"chrome"	"108.0.0"	"FALSE"	"Windows 10"	"60.51"	"1366"	"600"	"TRUE"	"TRUE"	"TRUE"	"TRUE"	"browser_info"	"1.0"	"27/12/2022"	"10:17:18"	n/a	"NULL"	"NULL"	"NULL"	n/a	n/a	n/a	n/a	n/a	n/a	n/a	n/a	n/a	n/a	n/a	n/a	n/a
"TRUE"	"preload"	"2"	"2623"	"0.0-2.0"	"wo5rw2"	"600"	"1366"	"chrome"	"108.0.0"	"FALSE"	"Windows 10"	"60.51"	n/a	n/a	n/a	n/a	n/a	n/a	n/a	n/a	n/a	n/a	"FALSE"	"list()"	"list()"	"list()"	n/a	n/a	n/a	n/a	n/a	n/a	n/a	n/a	n/a	n/a	n/a	n/a	n/a
n/a	"html-button-response"	"3"	"56580"	"0.0-3.0-0.0"	"wo5rw2"	"600"	"1366"	"chrome"	"108.0.0"	"FALSE"	"Windows 10"	"60.51"	n/a	n/a	n/a	n/a	n/a	n/a	"illusion_instructions"	n/a	n/a	n/a	n/a	"NULL"	"NULL"	"NULL"	"53956"	"<p><b>Illusion Game</b></p><p>In this game of speed and reflex, you will need to make <b>visual judgments</b> (for instance, which circle is the biggest, or which line is the longest), as fast and as correctly as possible, while <b>resisting different visual illusions</b>.</p><p>We are going to start with some examples of all the illusions you will encounter in the game.</p>"	"0"	n/a	n/a	n/a	n/a	n/a	n/a	n/a	n/a	n/a	n/a
"TRUE"	"preload"	"4"	"56598"	"0.0-3.0-1.0-0.0"	"wo5rw2"	"600"	"1366"	"chrome"	"108.0.0"	"FALSE"	"Windows 10"	"60.51"	n/a	n/a	n/a	n/a	n/a	n/a	n/a	n/a	n/a	n/a	"FALSE"	"list()"	"list()"	"list()"	n/a	n/a	n/a	n/a	n/a	n/a	n/a	n/a	n/a	n/a	n/a	n/a	n/a
n/a	"html-keyboard-response"	"5"	"78619"	"0.0-3.0-1.0-1.0"	"wo5rw2"	"600"	"1366"	"chrome"	"108.0.0"	"FALSE"	"Windows 10"	"60.51"	n/a	n/a	n/a	n/a	n/a	n/a	n/a	n/a	n/a	n/a	n/a	"NULL"	"NULL"	"NULL"	"22020"	"<p><b>Practice</b></p><p>In this part, two red circles will appear side by side on the screen.</p><p>Your task is to select which <b>red circle is bigger</b> in size as fast as you can, without making errors.</p><p>Don't get distracted by the surrounding black circles around the red circles!</p><p>Press <b>the LEFT or the RIGHT arrow</b> to indicate which is the bigger <b>red circle.</b></p><div style='float: center'><img src='materials/instructions/Ebbinghaus_Demo.png' height='300'></img><p><img src='utils/answer/answer_leftright_keyboard.PNG' height='150'></img></p><p class='small'>In this example, the correct answer is the <b>LEFT arrow</b>.</p></div><p>Are you ready? <b>Press ENTER to start</b></p>"	"enter"	n/a	n/a	n/a	n/a	n/a	n/a	n/a	n/a	n/a	n/a
n/a	"html-keyboard-response"	"6"	"80336"	"0.0-3.0-1.0-2.0-0.0"	"wo5rw2"	"600"	"1366"	"chrome"	"108.0.0"	"FALSE"	"Windows 10"	"60.51"	n/a	n/a	n/a	n/a	n/a	n/a	"fixation"	n/a	n/a	n/a	n/a	"NULL"	"NULL"	"NULL"	n/a	"<p style=\"color: black; font-size: 80px; padding-left: 31%; padding-right: 42%; padding-top: 3%; padding-bottom: 45%\">+</p>"	n/a	"1196"	n/a	n/a	n/a	n/a	n/a	n/a	n/a	n/a	n/a
n/a	"image-keyboard-response"	"7"	"81471"	"0.0-3.0-1.0-2.0-1.0"	"wo5rw2"	"600"	"1366"	"chrome"	"108.0.0"	"FALSE"	"Windows 10"	"60.51"	n/a	n/a	n/a	n/a	n/a	n/a	"Trial"	n/a	n/a	n/a	n/a	"NULL"	"NULL"	"NULL"	"1124"	"stimuli/Ebbinghaus_1000000_-1.4000.png"	"arrowright"	n/a	"Ebbinghaus"	"arrowright"	"1717"	"TRUE"	"Ebbinghaus"	"100000000000"	"-1.400000000"	"1"	"1"
n/a	"html-keyboard-response"	"8"	"82849"	"0.0-3.0-1.0-2.0-0.1"	"wo5rw2"	"600"	"1366"	"chrome"	"108.0.0"	"FALSE"	"Windows 10"	"60.51"	n/a	n/a	n/a	n/a	n/a	n/a	"fixation"	n/a	n/a	n/a	n/a	"NULL"	"NULL"	"NULL"	n/a	"<p style=\"color: black; font-size: 80px; padding-left: 0%; padding-right: 25%; padding-top: 50%; padding-bottom: 46%\">+</p>"	n/a	"1356"	n/a	n/a	n/a	n/a	n/a	n/a	n/a	n/a	n/a
n/a	"image-keyboard-response"	"9"	"83707"	"0.0-3.0-1.0-2.0-1.1"	"wo5rw2"	"600"	"1366"	"chrome"	"108.0.0"	"FALSE"	"Windows 10"	"60.51"	n/a	n/a	n/a	n/a	n/a	n/a	"Trial"	n/a	n/a	n/a	n/a	"NULL"	"NULL"	"NULL"	"857"	"stimuli/Ebbinghaus_-100000_1.40000.png"	"arrowleft"	n/a	"Ebbinghaus"	"arrowleft"	"1378"	"TRUE"	"Ebbinghaus"	"-10000000000"	"1.4000000000"	"1"	"2"
n/a	"html-keyboard-response"	"10"	"84896"	"0.0-3.0-1.0-2.0-0.2"	"wo5rw2"	"600"	"1366"	"chrome"	"108.0.0"	"FALSE"	"Windows 10"	"60.51"	n/a	n/a	n/a	n/a	n/a	n/a	"fixation"	n/a	n/a	n/a	n/a	"NULL"	"NULL"	"NULL"	n/a	"<p style=\"color: black; font-size: 80px; padding-left: 20%; padding-right: 22%; padding-top: 37%; padding-bottom: 7%\">+</p>"	n/a	"1183"	n/a	n/a	n/a	n/a	n/a	n/a	n/a	n/a	n/a
n/a	"image-keyboard-response"	"11"	"85892"	"0.0-3.0-1.0-2.0-1.2"	"wo5rw2"	"600"	"1366"	"chrome"	"108.0.0"	"FALSE"	"Windows 10"	"60.51"	n/a	n/a	n/a	n/a	n/a	n/a	"Trial"	n/a	n/a	n/a	n/a	"NULL"	"NULL"	"NULL"	"995"	"stimuli/Ebbinghaus_-100000_-1.4000.png"	"arrowright"	n/a	"Ebbinghaus"	"arrowright"	"1189"	"TRUE"	"Ebbinghaus"	"-10000000000"	"-1.400000000"	"1"	"3"
n/a	"html-keyboard-response"	"12"	"87255"	"0.0-3.0-1.0-2.0-0.3"	"wo5rw2"	"600"	"1366"	"chrome"	"108.0.0"	"FALSE"	"Windows 10"	"60.51"	n/a	n/a	n/a	n/a	n/a	n/a	"fixation"	n/a	n/a	n/a	n/a	"NULL"	"NULL"	"NULL"	n/a	"<p style=\"color: black; font-size: 80px; padding-left: 15%; padding-right: 40%; padding-top: 20%; padding-bottom: 4%\">+</p>"	n/a	"1349"	n/a	n/a	n/a	n/a	n/a	n/a	n/a	n/a	n/a
n/a	"image-keyboard-response"	"13"	"88238"	"0.0-3.0-1.0-2.0-1.3"	"wo5rw2"	"600"	"1366"	"chrome"	"108.0.0"	"FALSE"	"Windows 10"	"60.51"	n/a	n/a	n/a	n/a	n/a	n/a	"Trial"	n/a	n/a	n/a	n/a	"NULL"	"NULL"	"NULL"	"982"	"stimuli/Ebbinghaus_0000000_1.40000.png"	"arrowleft"	n/a	"Ebbinghaus"	"arrowleft"	"1363"	"TRUE"	"Ebbinghaus"	"000000000000"	"1.4000000000"	"1"	"4"
n/a	"html-keyboard-response"	"14"	"89719"	"0.0-3.0-1.0-2.0-0.4"	"wo5rw2"	"600"	"1366"	"chrome"	"108.0.0"	"FALSE"	"Windows 10"	"60.51"	n/a	n/a	n/a	n/a	n/a	n/a	"fixation"	n/a	n/a	n/a	n/a	"NULL"	"NULL"	"NULL"	n/a	"<p style=\"color: black; font-size: 80px; padding-left: 26%; padding-right: 22%; padding-top: 25%; padding-bottom: 1%\">+</p>"	n/a	"1461"	n/a	n/a	n/a	n/a	n/a	n/a	n/a	n/a	n/a
n/a	"image-keyboard-response"	"15"	"90322"	"0.0-3.0-1.0-2.0-1.4"	"wo5rw2"	"600"	"1366"	"chrome"	"108.0.0"	"FALSE"	"Windows 10"	"60.51"	n/a	n/a	n/a	n/a	n/a	n/a	"Trial"	n/a	n/a	n/a	n/a	"NULL"	"NULL"	"NULL"	"601"	"stimuli/Ebbinghaus_1000000_1.40000.png"	"arrowleft"	n/a	"Ebbinghaus"	"arrowleft"	"1481"	"TRUE"	"Ebbinghaus"	"100000000000"	"1.4000000000"	"1"	"5"
n/a	"html-keyboard-response"	"16"	"91504"	"0.0-3.0-1.0-2.0-0.5"	"wo5rw2"	"600"	"1366"	"chrome"	"108.0.0"	"FALSE"	"Windows 10"	"60.51"	n/a	n/a	n/a	n/a	n/a	n/a	"fixation"	n/a	n/a	n/a	n/a	"NULL"	"NULL"	"NULL"	n/a	"<p style=\"color: black; font-size: 80px; padding-left: 38%; padding-right: 38%; padding-top: 44%; padding-bottom: 34%\">+</p>"	n/a	"1163"	n/a	n/a	n/a	n/a	n/a	n/a	n/a	n/a	n/a
n/a	"image-keyboard-response"	"17"	"92348"	"0.0-3.0-1.0-2.0-1.5"	"wo5rw2"	"600"	"1366"	"chrome"	"108.0.0"	"FALSE"	"Windows 10"	"60.51"	n/a	n/a	n/a	n/a	n/a	n/a	"Trial"	n/a	n/a	n/a	n/a	"NULL"	"NULL"	"NULL"	"842"	"stimuli/Ebbinghaus_0000000_-1.4000.png"	"arrowright"	n/a	"Ebbinghaus"	"arrowright"	"1182"	"TRUE"	"Ebbinghaus"	"000000000000"	"-1.400000000"	"1"	"6"
n/a	"html-button-response"	"18"	"98276"	"0.0-3.0-1.0-3.0"	"wo5rw2"	"600"	"1366"	"chrome"	"108.0.0"	"FALSE"	"Windows 10"	"60.51"	n/a	n/a	n/a	n/a	n/a	n/a	"practice_block_results"	n/a	n/a	n/a	n/a	"NULL"	"NULL"	"NULL"	"5924"	"<p style='color:rgb(76,175,80);'> Correct Responses: <b>100.00%</b></p><hr><p style='color:rgb(233,30,99);'> Average Response Time: <b>900.17</b> ms.</p>"	"0"	n/a	n/a	n/a	n/a	n/a	n/a	n/a	n/a	n/a	n/a
"TRUE"	"preload"	"19"	"98808"	"0.0-3.0-2.0-0.0"	"wo5rw2"	"600"	"1366"	"chrome"	"108.0.0"	"FALSE"	"Windows 10"	"60.51"	n/a	n/a	n/a	n/a	n/a	n/a	n/a	n/a	n/a	n/a	"FALSE"	"list()"	"list()"	"list()"	n/a	n/a	n/a	n/a	n/a	n/a	n/a	n/a	n/a	n/a	n/a	n/a	n/a
n/a	"html-keyboard-response"	"20"	"111079"	"0.0-3.0-2.0-1.0"	"wo5rw2"	"600"	"1366"	"chrome"	"108.0.0"	"FALSE"	"Windows 10"	"60.51"	n/a	n/a	n/a	n/a	n/a	n/a	n/a	n/a	n/a	n/a	n/a	"NULL"	"NULL"	"NULL"	"12271"	"<p><b>Practice</b></p><p>In this part, two horizontal red lines will appear one above the other.</p><p>Your task is to select which <b>line is longer</b> in length as fast as you can, without making errors.</p><p>Don't get distracted by the surrounding black arrows at the end of the red lines!</p><p>Press <b>the UP or the DOWN arrow</b> to indicate where is the longer <b>red line.</b></p><div style='float: center'><img src='materials/instructions/MullerLyer_Demo.png' height='300'></img><p><img src='utils/answer/answer_updown_keyboard.PNG' height='150'></img></p><p class='small'>In this example, the correct answer is the <b>UP arrow</b>.</p></div><p>Are you ready? <b>Press ENTER to start</b></p>"	"enter"	n/a	n/a	n/a	n/a	n/a	n/a	n/a	n/a	n/a	n/a
n/a	"html-keyboard-response"	"21"	"112771"	"0.0-3.0-2.0-2.0-0.0"	"wo5rw2"	"600"	"1366"	"chrome"	"108.0.0"	"FALSE"	"Windows 10"	"60.51"	n/a	n/a	n/a	n/a	n/a	n/a	"fixation"	n/a	n/a	n/a	n/a	"NULL"	"NULL"	"NULL"	n/a	"<p style=\"color: black; font-size: 80px; padding-left: 2%; padding-right: 19%; padding-top: 24%; padding-bottom: 22%\">+</p>"	n/a	"1150"	n/a	n/a	n/a	n/a	n/a	n/a	n/a	n/a	n/a
n/a	"image-keyboard-response"	"22"	"113546"	"0.0-3.0-2.0-2.0-1.0"	"wo5rw2"	"600"	"1366"	"chrome"	"108.0.0"	"FALSE"	"Windows 10"	"60.51"	n/a	n/a	n/a	n/a	n/a	n/a	"Trial"	n/a	n/a	n/a	n/a	"NULL"	"NULL"	"NULL"	"773"	"stimuli/MullerLyer_-230000_-0.7000.png"	"arrowdown"	n/a	"MullerLyer"	"arrowdown"	"1692"	"TRUE"	"MullerLyer"	"-23000000000"	"-0.700000000"	"1"	"7"
n/a	"html-keyboard-response"	"23"	"114847"	"0.0-3.0-2.0-2.0-0.1"	"wo5rw2"	"600"	"1366"	"chrome"	"108.0.0"	"FALSE"	"Windows 10"	"60.51"	n/a	n/a	n/a	n/a	n/a	n/a	"fixation"	n/a	n/a	n/a	n/a	"NULL"	"NULL"	"NULL"	n/a	"<p style=\"color: black; font-size: 80px; padding-left: 35%; padding-right: 13%; padding-top: 30%; padding-bottom: 27%\">+</p>"	n/a	"1289"	n/a	n/a	n/a	n/a	n/a	n/a	n/a	n/a	n/a
n/a	"image-keyboard-response"	"24"	"115770"	"0.0-3.0-2.0-2.0-1.1"	"wo5rw2"	"600"	"1366"	"chrome"	"108.0.0"	"FALSE"	"Windows 10"	"60.51"	n/a	n/a	n/a	n/a	n/a	n/a	"Trial"	n/a	n/a	n/a	n/a	"NULL"	"NULL"	"NULL"	"922"	"stimuli/MullerLyer_-230000_0.70000.png"	"arrowup"	n/a	"MullerLyer"	"arrowup"	"1301"	"TRUE"	"MullerLyer"	"-23000000000"	"0.7000000000"	"1"	"8"
n/a	"html-keyboard-response"	"25"	"116948"	"0.0-3.0-2.0-2.0-0.2"	"wo5rw2"	"600"	"1366"	"chrome"	"108.0.0"	"FALSE"	"Windows 10"	"60.51"	n/a	n/a	n/a	n/a	n/a	n/a	"fixation"	n/a	n/a	n/a	n/a	"NULL"	"NULL"	"NULL"	n/a	"<p style=\"color: black; font-size: 80px; padding-left: 10%; padding-right: 16%; padding-top: 24%; padding-bottom: 25%\">+</p>"	n/a	"1171"	n/a	n/a	n/a	n/a	n/a	n/a	n/a	n/a	n/a
n/a	"image-keyboard-response"	"26"	"117403"	"0.0-3.0-2.0-2.0-1.2"	"wo5rw2"	"600"	"1366"	"chrome"	"108.0.0"	"FALSE"	"Windows 10"	"60.51"	n/a	n/a	n/a	n/a	n/a	n/a	"Trial"	n/a	n/a	n/a	n/a	"NULL"	"NULL"	"NULL"	"454"	"stimuli/MullerLyer_2300000_0.70000.png"	"arrowup"	n/a	"MullerLyer"	"arrowup"	"1178"	"TRUE"	"MullerLyer"	"230000000000"	"0.7000000000"	"1"	"9"
n/a	"html-keyboard-response"	"27"	"118699"	"0.0-3.0-2.0-2.0-0.3"	"wo5rw2"	"600"	"1366"	"chrome"	"108.0.0"	"FALSE"	"Windows 10"	"60.51"	n/a	n/a	n/a	n/a	n/a	n/a	"fixation"	n/a	n/a	n/a	n/a	"NULL"	"NULL"	"NULL"	n/a	"<p style=\"color: black; font-size: 80px; padding-left: 21%; padding-right: 2%; padding-top: 37%; padding-bottom: 14%\">+</p>"	n/a	"1292"	n/a	n/a	n/a	n/a	n/a	n/a	n/a	n/a	n/a
n/a	"image-keyboard-response"	"28"	"119333"	"0.0-3.0-2.0-2.0-1.3"	"wo5rw2"	"600"	"1366"	"chrome"	"108.0.0"	"FALSE"	"Windows 10"	"60.51"	n/a	n/a	n/a	n/a	n/a	n/a	"Trial"	n/a	n/a	n/a	n/a	"NULL"	"NULL"	"NULL"	"633"	"stimuli/MullerLyer_0000000_0.70000.png"	"arrowup"	n/a	"MullerLyer"	"arrowup"	"1296"	"TRUE"	"MullerLyer"	"000000000000"	"0.7000000000"	"1"	"10"
n/a	"html-keyboard-response"	"29"	"120844"	"0.0-3.0-2.0-2.0-0.4"	"wo5rw2"	"600"	"1366"	"chrome"	"108.0.0"	"FALSE"	"Windows 10"	"60.51"	n/a	n/a	n/a	n/a	n/a	n/a	"fixation"	n/a	n/a	n/a	n/a	"NULL"	"NULL"	"NULL"	n/a	"<p style=\"color: black; font-size: 80px; padding-left: 6%; padding-right: 26%; padding-top: 2%; padding-bottom: 15%\">+</p>"	n/a	"1495"	n/a	n/a	n/a	n/a	n/a	n/a	n/a	n/a	n/a
n/a	"image-keyboard-response"	"30"	"121627"	"0.0-3.0-2.0-2.0-1.4"	"wo5rw2"	"600"	"1366"	"chrome"	"108.0.0"	"FALSE"	"Windows 10"	"60.51"	n/a	n/a	n/a	n/a	n/a	n/a	"Trial"	n/a	n/a	n/a	n/a	"NULL"	"NULL"	"NULL"	"782"	"stimuli/MullerLyer_0000000_-0.7000.png"	"arrowdown"	n/a	"MullerLyer"	"arrowdown"	"1511"	"TRUE"	"MullerLyer"	"000000000000"	"-0.700000000"	"1"	"11"
n/a	"html-keyboard-response"	"31"	"122912"	"0.0-3.0-2.0-2.0-0.5"	"wo5rw2"	"600"	"1366"	"chrome"	"108.0.0"	"FALSE"	"Windows 10"	"60.51"	n/a	n/a	n/a	n/a	n/a	n/a	"fixation"	n/a	n/a	n/a	n/a	"NULL"	"NULL"	"NULL"	n/a	"<p style=\"color: black; font-size: 80px; padding-left: 14%; padding-right: 12%; padding-top: 29%; padding-bottom: 24%\">+</p>"	n/a	"1267"	n/a	n/a	n/a	n/a	n/a	n/a	n/a	n/a	n/a
n/a	"image-keyboard-response"	"32"	"124311"	"0.0-3.0-2.0-2.0-1.5"	"wo5rw2"	"600"	"1366"	"chrome"	"108.0.0"	"FALSE"	"Windows 10"	"60.51"	n/a	n/a	n/a	n/a	n/a	n/a	"Trial"	n/a	n/a	n/a	n/a	"NULL"	"NULL"	"NULL"	"1398"	"stimuli/MullerLyer_2300000_-0.7000.png"	"arrowdown"	n/a	"MullerLyer"	"arrowdown"	"1285"	"TRUE"	"MullerLyer"	"230000000000"	"-0.700000000"	"1"	"12"
n/a	"html-button-response"	"33"	"128699"	"0.0-3.0-2.0-3.0"	"wo5rw2"	"600"	"1366"	"chrome"	"108.0.0"	"FALSE"	"Windows 10"	"60.51"	n/a	n/a	n/a	n/a	n/a	n/a	"practice_block_results"	n/a	n/a	n/a	n/a	"NULL"	"NULL"	"NULL"	"4387"	"<p style='color:rgb(76,175,80);'> Correct Responses: <b>100.00%</b></p><hr><p style='color:rgb(233,30,99);'> Average Response Time: <b>827.00</b> ms.</p>"	"0"	n/a	n/a	n/a	n/a	n/a	n/a	n/a	n/a	n/a	n/a
"TRUE"	"preload"	"34"	"129235"	"0.0-3.0-3.0-0.0"	"wo5rw2"	"600"	"1366"	"chrome"	"108.0.0"	"FALSE"	"Windows 10"	"60.51"	n/a	n/a	n/a	n/a	n/a	n/a	n/a	n/a	n/a	n/a	"FALSE"	"list()"	"list()"	"list()"	n/a	n/a	n/a	n/a	n/a	n/a	n/a	n/a	n/a	n/a	n/a	n/a	n/a
n/a	"html-keyboard-response"	"35"	"137831"	"0.0-3.0-3.0-1.0"	"wo5rw2"	"600"	"1366"	"chrome"	"108.0.0"	"FALSE"	"Windows 10"	"60.51"	n/a	n/a	n/a	n/a	n/a	n/a	n/a	n/a	n/a	n/a	n/a	"NULL"	"NULL"	"NULL"	"8595"	"<p><b>Practice</b></p><p>In this part, two red lines will appear side by side.</p><p>Your task is to tell <b>which line is longer</b> in length, regardless of their orientation, as fast as you can, and without making errors.</p><p>Don't get distracted by the orientation of the lines!</p><p>Press <b>the LEFT or the RIGHT arrow</b> to indicate which <b>line is the longer one.</b></p><div style='float: center'><img src='materials/instructions/VerticalHorizontal_Demo.png' height='300'></img><p><img src='utils/answer/answer_leftright_keyboard.PNG' height='150'></img></p><p class='small'>In this example, the correct answer is the <b>LEFT arrow</b>.</p></div><p>Are you ready? <b>Press ENTER to start</b></p>"	"enter"	n/a	n/a	n/a	n/a	n/a	n/a	n/a	n/a	n/a	n/a
n/a	"html-keyboard-response"	"36"	"139701"	"0.0-3.0-3.0-2.0-0.0"	"wo5rw2"	"600"	"1366"	"chrome"	"108.0.0"	"FALSE"	"Windows 10"	"60.51"	n/a	n/a	n/a	n/a	n/a	n/a	"fixation"	n/a	n/a	n/a	n/a	"NULL"	"NULL"	"NULL"	n/a	"<p style=\"color: black; font-size: 80px; padding-left: 16%; padding-right: 9%; padding-top: 2%; padding-bottom: 2%\">+</p>"	n/a	"1357"	n/a	n/a	n/a	n/a	n/a	n/a	n/a	n/a	n/a
n/a	"image-keyboard-response"	"37"	"140262"	"0.0-3.0-3.0-2.0-1.0"	"wo5rw2"	"600"	"1366"	"chrome"	"108.0.0"	"FALSE"	"Windows 10"	"60.51"	n/a	n/a	n/a	n/a	n/a	n/a	"Trial"	n/a	n/a	n/a	n/a	"NULL"	"NULL"	"NULL"	"559"	"stimuli/VerticalHorizontal_0000000_0.90000.png"	"arrowleft"	n/a	"VerticalHorizontal"	"arrowleft"	"1870"	"TRUE"	"VerticalHorizontal"	"000000000000"	"0.9000000000"	"1"	"13"
n/a	"html-keyboard-response"	"38"	"141676"	"0.0-3.0-3.0-2.0-0.1"	"wo5rw2"	"600"	"1366"	"chrome"	"108.0.0"	"FALSE"	"Windows 10"	"60.51"	n/a	n/a	n/a	n/a	n/a	n/a	"fixation"	n/a	n/a	n/a	n/a	"NULL"	"NULL"	"NULL"	n/a	"<p style=\"color: black; font-size: 80px; padding-left: 19%; padding-right: 0%; padding-top: 29%; padding-bottom: 32%\">+</p>"	n/a	"1398"	n/a	n/a	n/a	n/a	n/a	n/a	n/a	n/a	n/a
n/a	"image-keyboard-response"	"39"	"142087"	"0.0-3.0-3.0-2.0-1.1"	"wo5rw2"	"600"	"1366"	"chrome"	"108.0.0"	"FALSE"	"Windows 10"	"60.51"	n/a	n/a	n/a	n/a	n/a	n/a	"Trial"	n/a	n/a	n/a	n/a	"NULL"	"NULL"	"NULL"	"409"	"stimuli/VerticalHorizontal_-330000_-0.9000.png"	"arrowright"	n/a	"VerticalHorizontal"	"arrowright"	"1414"	"TRUE"	"VerticalHorizontal"	"-33000000000"	"-0.900000000"	"1"	"14"
n/a	"html-keyboard-response"	"40"	"143524"	"0.0-3.0-3.0-2.0-0.2"	"wo5rw2"	"600"	"1366"	"chrome"	"108.0.0"	"FALSE"	"Windows 10"	"60.51"	n/a	n/a	n/a	n/a	n/a	n/a	"fixation"	n/a	n/a	n/a	n/a	"NULL"	"NULL"	"NULL"	n/a	"<p style=\"color: black; font-size: 80px; padding-left: 11%; padding-right: 30%; padding-top: 33%; padding-bottom: 49%\">+</p>"	n/a	"1427"	n/a	n/a	n/a	n/a	n/a	n/a	n/a	n/a	n/a
n/a	"image-keyboard-response"	"41"	"144018"	"0.0-3.0-3.0-2.0-1.2"	"wo5rw2"	"600"	"1366"	"chrome"	"108.0.0"	"FALSE"	"Windows 10"	"60.51"	n/a	n/a	n/a	n/a	n/a	n/a	"Trial"	n/a	n/a	n/a	n/a	"NULL"	"NULL"	"NULL"	"493"	"stimuli/VerticalHorizontal_0000000_-0.9000.png"	"arrowright"	n/a	"VerticalHorizontal"	"arrowright"	"1437"	"TRUE"	"VerticalHorizontal"	"000000000000"	"-0.900000000"	"1"	"15"
n/a	"html-keyboard-response"	"42"	"145239"	"0.0-3.0-3.0-2.0-0.3"	"wo5rw2"	"600"	"1366"	"chrome"	"108.0.0"	"FALSE"	"Windows 10"	"60.51"	n/a	n/a	n/a	n/a	n/a	n/a	"fixation"	n/a	n/a	n/a	n/a	"NULL"	"NULL"	"NULL"	n/a	"<p style=\"color: black; font-size: 80px; padding-left: 6%; padding-right: 10%; padding-top: 44%; padding-bottom: 36%\">+</p>"	n/a	"1206"	n/a	n/a	n/a	n/a	n/a	n/a	n/a	n/a	n/a
n/a	"image-keyboard-response"	"43"	"145559"	"0.0-3.0-3.0-2.0-1.3"	"wo5rw2"	"600"	"1366"	"chrome"	"108.0.0"	"FALSE"	"Windows 10"	"60.51"	n/a	n/a	n/a	n/a	n/a	n/a	"Trial"	n/a	n/a	n/a	n/a	"NULL"	"NULL"	"NULL"	"319"	"stimuli/VerticalHorizontal_-330000_0.90000.png"	"arrowleft"	n/a	"VerticalHorizontal"	"arrowleft"	"1221"	"TRUE"	"VerticalHorizontal"	"-33000000000"	"0.9000000000"	"1"	"16"
n/a	"html-keyboard-response"	"44"	"146983"	"0.0-3.0-3.0-2.0-0.4"	"wo5rw2"	"600"	"1366"	"chrome"	"108.0.0"	"FALSE"	"Windows 10"	"60.51"	n/a	n/a	n/a	n/a	n/a	n/a	"fixation"	n/a	n/a	n/a	n/a	"NULL"	"NULL"	"NULL"	n/a	"<p style=\"color: black; font-size: 80px; padding-left: 30%; padding-right: 36%; padding-top: 10%; padding-bottom: 32%\">+</p>"	n/a	"1407"	n/a	n/a	n/a	n/a	n/a	n/a	n/a	n/a	n/a
n/a	"image-keyboard-response"	"45"	"147410"	"0.0-3.0-3.0-2.0-1.4"	"wo5rw2"	"600"	"1366"	"chrome"	"108.0.0"	"FALSE"	"Windows 10"	"60.51"	n/a	n/a	n/a	n/a	n/a	n/a	"Trial"	n/a	n/a	n/a	n/a	"NULL"	"NULL"	"NULL"	"426"	"stimuli/VerticalHorizontal_3300000_0.90000.png"	"arrowright"	n/a	"VerticalHorizontal"	"arrowleft"	"1424"	"FALSE"	"VerticalHorizontal"	"330000000000"	"0.9000000000"	"1"	"17"
n/a	"html-keyboard-response"	"46"	"148736"	"0.0-3.0-3.0-2.0-0.5"	"wo5rw2"	"600"	"1366"	"chrome"	"108.0.0"	"FALSE"	"Windows 10"	"60.51"	n/a	n/a	n/a	n/a	n/a	n/a	"fixation"	n/a	n/a	n/a	n/a	"NULL"	"NULL"	"NULL"	n/a	"<p style=\"color: black; font-size: 80px; padding-left: 30%; padding-right: 29%; padding-top: 23%; padding-bottom: 34%\">+</p>"	n/a	"1307"	n/a	n/a	n/a	n/a	n/a	n/a	n/a	n/a	n/a
n/a	"image-keyboard-response"	"47"	"149271"	"0.0-3.0-3.0-2.0-1.5"	"wo5rw2"	"600"	"1366"	"chrome"	"108.0.0"	"FALSE"	"Windows 10"	"60.51"	n/a	n/a	n/a	n/a	n/a	n/a	"Trial"	n/a	n/a	n/a	n/a	"NULL"	"NULL"	"NULL"	"534"	"stimuli/VerticalHorizontal_3300000_-0.9000.png"	"arrowright"	n/a	"VerticalHorizontal"	"arrowright"	"1326"	"TRUE"	"VerticalHorizontal"	"330000000000"	"-0.900000000"	"1"	"18"
n/a	"html-button-response"	"48"	"153140"	"0.0-3.0-3.0-3.0"	"wo5rw2"	"600"	"1366"	"chrome"	"108.0.0"	"FALSE"	"Windows 10"	"60.51"	n/a	n/a	n/a	n/a	n/a	n/a	"practice_block_results"	n/a	n/a	n/a	n/a	"NULL"	"NULL"	"NULL"	"3868"	"<p style='color:rgb(76,175,80);'> Correct Responses: <b>83.33%</b></p><hr><p style='color:rgb(233,30,99);'> Average Response Time: <b>456.67</b> ms.</p>"	"0"	n/a	n/a	n/a	n/a	n/a	n/a	n/a	n/a	n/a	n/a
n/a	"html-button-response"	"49"	"243763"	"0.0-3.0-4.0"	"wo5rw2"	"600"	"1366"	"chrome"	"108.0.0"	"FALSE"	"Windows 10"	"60.51"	n/a	n/a	n/a	n/a	n/a	n/a	"practice_debrief"	n/a	n/a	n/a	n/a	"NULL"	"NULL"	"NULL"	"90118"	"<p><b>TRAINING COMPLETED</b></p><p>In the next phase, there will be more trials, and some might be harder too.<br> Moreover, after each illusion block, a <b>score</b> will be calculated based on speed (time you took to answer) and accuracy (number of errors).</p><p>Try to keep up a high score!</p><br><p>Note that it can be <i>really</i> challenging at times, so you will need to rely on your <b>intuition</b> and gut feeling to answer as fast as you can without making errors.</p><p>Each illusion block will be repeated two times (so that you have the opportunity to improve your score), but the order of the blocks is random.</p><p>Remember, your goal is to be as <b>fast</b> and <b>accurate</b> as possible. Good luck!</p><br>"	"0"	n/a	n/a	n/a	n/a	n/a	n/a	n/a	n/a	n/a	n/a
"TRUE"	"preload"	"50"	"243918"	"0.0-4.0-0.0"	"wo5rw2"	"600"	"1366"	"chrome"	"108.0.0"	"FALSE"	"Windows 10"	"60.51"	n/a	n/a	n/a	n/a	n/a	n/a	n/a	n/a	n/a	n/a	"FALSE"	"list()"	"list()"	"list()"	n/a	n/a	n/a	n/a	n/a	n/a	n/a	n/a	n/a	n/a	n/a	n/a	n/a
n/a	"html-keyboard-response"	"51"	"247492"	"0.0-4.0-1.0"	"wo5rw2"	"600"	"1366"	"chrome"	"108.0.0"	"FALSE"	"Windows 10"	"60.51"	n/a	n/a	n/a	n/a	n/a	n/a	n/a	n/a	n/a	n/a	n/a	"NULL"	"NULL"	"NULL"	"3573"	"<p><b>Part 1/6</b></p><p>In this part, two red lines will appear side by side.</p><p>Your task is to tell <b>which line is longer</b> in length, regardless of their orientation, as fast as you can, and without making errors.</p><p>Don't get distracted by the orientation of the lines!</p><p>Press <b>the LEFT or the RIGHT arrow</b> to indicate which <b>line is the longer one.</b></p><div style='float: center'><img src='materials/instructions/VerticalHorizontal_Demo.png' height='300'></img><p><img src='utils/answer/answer_leftright_keyboard.PNG' height='150'></img></p><p class='small'>In this example, the correct answer is the <b>LEFT arrow</b>.</p></div><p>Are you ready? <b>Press ENTER to start</b></p>"	"enter"	n/a	n/a	n/a	n/a	n/a	n/a	n/a	n/a	n/a	n/a
n/a	"html-keyboard-response"	"52"	"249196"	"0.0-4.0-2.0-0.0"	"wo5rw2"	"600"	"1366"	"chrome"	"108.0.0"	"FALSE"	"Windows 10"	"60.51"	n/a	n/a	n/a	n/a	n/a	n/a	"fixation"	n/a	n/a	n/a	n/a	"NULL"	"NULL"	"NULL"	n/a	"<p style=\"color: black; font-size: 80px; padding-left: 23%; padding-right: 10%; padding-top: 20%; padding-bottom: 16%\">+</p>"	n/a	"1180"	n/a	n/a	n/a	n/a	n/a	n/a	n/a	n/a	n/a
n/a	"image-keyboard-response"	"53"	"250155"	"0.0-4.0-2.0-1.0"	"wo5rw2"	"600"	"1366"	"chrome"	"108.0.0"	"FALSE"	"Windows 10"	"60.51"	n/a	n/a	n/a	n/a	n/a	n/a	"Trial"	n/a	n/a	n/a	n/a	"NULL"	"NULL"	"NULL"	"957"	"stimuli/VerticalHorizontal_-11.78571_0.16217.png"	"arrowleft"	n/a	"VerticalHorizontal"	"arrowleft"	"1704"	"TRUE"	"VerticalHorizontal"	"-11.78571000"	"0.1621700000"	"1"	"19"
n/a	"html-keyboard-response"	"54"	"251535"	"0.0-4.0-2.0-0.1"	"wo5rw2"	"600"	"1366"	"chrome"	"108.0.0"	"FALSE"	"Windows 10"	"60.51"	n/a	n/a	n/a	n/a	n/a	n/a	"fixation"	n/a	n/a	n/a	n/a	"NULL"	"NULL"	"NULL"	n/a	"<p style=\"color: black; font-size: 80px; padding-left: 4%; padding-right: 12%; padding-top: 1%; padding-bottom: 22%\">+</p>"	n/a	"1367"	n/a	n/a	n/a	n/a	n/a	n/a	n/a	n/a	n/a
n/a	"image-keyboard-response"	"55"	"252035"	"0.0-4.0-2.0-1.1"	"wo5rw2"	"600"	"1366"	"chrome"	"108.0.0"	"FALSE"	"Windows 10"	"60.51"	n/a	n/a	n/a	n/a	n/a	n/a	"Trial"	n/a	n/a	n/a	n/a	"NULL"	"NULL"	"NULL"	"497"	"stimuli/VerticalHorizontal_3.30000_0.22500.png"	"arrowright"	n/a	"VerticalHorizontal"	"arrowleft"	"1380"	"FALSE"	"VerticalHorizontal"	"3.3000000000"	"0.2250000000"	"1"	"20"
n/a	"html-keyboard-response"	"56"	"253318"	"0.0-4.0-2.0-0.2"	"wo5rw2"	"600"	"1366"	"chrome"	"108.0.0"	"FALSE"	"Windows 10"	"60.51"	n/a	n/a	n/a	n/a	n/a	n/a	"fixation"	n/a	n/a	n/a	n/a	"NULL"	"NULL"	"NULL"	n/a	"<p style=\"color: black; font-size: 80px; padding-left: 4%; padding-right: 28%; padding-top: 15%; padding-bottom: 25%\">+</p>"	n/a	"1268"	n/a	n/a	n/a	n/a	n/a	n/a	n/a	n/a	n/a
n/a	"image-keyboard-response"	"57"	"253907"	"0.0-4.0-2.0-1.2"	"wo5rw2"	"600"	"1366"	"chrome"	"108.0.0"	"FALSE"	"Windows 10"	"60.51"	n/a	n/a	n/a	n/a	n/a	n/a	"Trial"	n/a	n/a	n/a	n/a	"NULL"	"NULL"	"NULL"	"588"	"stimuli/VerticalHorizontal_11.78571_-0.2250.png"	"arrowright"	n/a	"VerticalHorizontal"	"arrowright"	"1283"	"TRUE"	"VerticalHorizontal"	"11.785710000"	"-0.225000000"	"1"	"21"
n/a	"html-keyboard-response"	"58"	"255249"	"0.0-4.0-2.0-0.3"	"wo5rw2"	"600"	"1366"	"chrome"	"108.0.0"	"FALSE"	"Windows 10"	"60.51"	n/a	n/a	n/a	n/a	n/a	n/a	"fixation"	n/a	n/a	n/a	n/a	"NULL"	"NULL"	"NULL"	n/a	"<p style=\"color: black; font-size: 80px; padding-left: 27%; padding-right: 15%; padding-top: 45%; padding-bottom: 38%\">+</p>"	n/a	"1322"	n/a	n/a	n/a	n/a	n/a	n/a	n/a	n/a	n/a
n/a	"image-keyboard-response"	"59"	"255710"	"0.0-4.0-2.0-1.3"	"wo5rw2"	"600"	"1366"	"chrome"	"108.0.0"	"FALSE"	"Windows 10"	"60.51"	n/a	n/a	n/a	n/a	n/a	n/a	"Trial"	n/a	n/a	n/a	n/a	"NULL"	"NULL"	"NULL"	"460"	"stimuli/VerticalHorizontal_-20.27143_-0.16217.png"	"arrowright"	n/a	"VerticalHorizontal"	"arrowright"	"1342"	"TRUE"	"VerticalHorizontal"	"-20.27143000"	"-0.162170000"	"1"	"22"
n/a	"html-keyboard-response"	"60"	"257139"	"0.0-4.0-2.0-0.4"	"wo5rw2"	"600"	"1366"	"chrome"	"108.0.0"	"FALSE"	"Windows 10"	"60.51"	n/a	n/a	n/a	n/a	n/a	n/a	"fixation"	n/a	n/a	n/a	n/a	"NULL"	"NULL"	"NULL"	n/a	"<p style=\"color: black; font-size: 80px; padding-left: 42%; padding-right: 30%; padding-top: 36%; padding-bottom: 24%\">+</p>"	n/a	"1415"	n/a	n/a	n/a	n/a	n/a	n/a	n/a	n/a	n/a
n/a	"image-keyboard-response"	"61"	"258005"	"0.0-4.0-2.0-1.4"	"wo5rw2"	"600"	"1366"	"chrome"	"108.0.0"	"FALSE"	"Windows 10"	"60.51"	n/a	n/a	n/a	n/a	n/a	n/a	"Trial"	n/a	n/a	n/a	n/a	"NULL"	"NULL"	"NULL"	"864"	"stimuli/VerticalHorizontal_11.78571_-0.0673.png"	"arrowleft"	n/a	"VerticalHorizontal"	"arrowright"	"1429"	"FALSE"	"VerticalHorizontal"	"11.785710000"	"-0.067300000"	"1"	"23"
n/a	"html-keyboard-response"	"62"	"259101"	"0.0-4.0-2.0-0.5"	"wo5rw2"	"600"	"1366"	"chrome"	"108.0.0"	"FALSE"	"Windows 10"	"60.51"	n/a	n/a	n/a	n/a	n/a	n/a	"fixation"	n/a	n/a	n/a	n/a	"NULL"	"NULL"	"NULL"	n/a	"<p style=\"color: black; font-size: 80px; padding-left: 45%; padding-right: 30%; padding-top: 27%; padding-bottom: 20%\">+</p>"	n/a	"1087"	n/a	n/a	n/a	n/a	n/a	n/a	n/a	n/a	n/a
n/a	"image-keyboard-response"	"63"	"259675"	"0.0-4.0-2.0-1.5"	"wo5rw2"	"600"	"1366"	"chrome"	"108.0.0"	"FALSE"	"Windows 10"	"60.51"	n/a	n/a	n/a	n/a	n/a	n/a	"Trial"	n/a	n/a	n/a	n/a	"NULL"	"NULL"	"NULL"	"570"	"stimuli/VerticalHorizontal_-3.3000_-0.1096.png"	"arrowright"	n/a	"VerticalHorizontal"	"arrowright"	"1096"	"TRUE"	"VerticalHorizontal"	"-3.300000000"	"-0.109600000"	"1"	"24"
n/a	"html-keyboard-response"	"64"	"260974"	"0.0-4.0-2.0-0.6"	"wo5rw2"	"600"	"1366"	"chrome"	"108.0.0"	"FALSE"	"Windows 10"	"60.51"	n/a	n/a	n/a	n/a	n/a	n/a	"fixation"	n/a	n/a	n/a	n/a	"NULL"	"NULL"	"NULL"	n/a	"<p style=\"color: black; font-size: 80px; padding-left: 41%; padding-right: 50%; padding-top: 28%; padding-bottom: 29%\">+</p>"	n/a	"1282"	n/a	n/a	n/a	n/a	n/a	n/a	n/a	n/a	n/a
n/a	"image-keyboard-response"	"65"	"261451"	"0.0-4.0-2.0-1.6"	"wo5rw2"	"600"	"1366"	"chrome"	"108.0.0"	"FALSE"	"Windows 10"	"60.51"	n/a	n/a	n/a	n/a	n/a	n/a	"Trial"	n/a	n/a	n/a	n/a	"NULL"	"NULL"	"NULL"	"475"	"stimuli/VerticalHorizontal_-11.78571_-0.2250.png"	"arrowright"	n/a	"VerticalHorizontal"	"arrowright"	"1299"	"TRUE"	"VerticalHorizontal"	"-11.78571000"	"-0.225000000"	"1"	"25"
n/a	"html-keyboard-response"	"66"	"262709"	"0.0-4.0-2.0-0.7"	"wo5rw2"	"600"	"1366"	"chrome"	"108.0.0"	"FALSE"	"Windows 10"	"60.51"	n/a	n/a	n/a	n/a	n/a	n/a	"fixation"	n/a	n/a	n/a	n/a	"NULL"	"NULL"	"NULL"	n/a	"<p style=\"color: black; font-size: 80px; padding-left: 37%; padding-right: 3%; padding-top: 23%; padding-bottom: 15%\">+</p>"	n/a	"1247"	n/a	n/a	n/a	n/a	n/a	n/a	n/a	n/a	n/a
n/a	"image-keyboard-response"	"67"	"263119"	"0.0-4.0-2.0-1.7"	"wo5rw2"	"600"	"1366"	"chrome"	"108.0.0"	"FALSE"	"Windows 10"	"60.51"	n/a	n/a	n/a	n/a	n/a	n/a	"Trial"	n/a	n/a	n/a	n/a	"NULL"	"NULL"	"NULL"	"409"	"stimuli/VerticalHorizontal_-3.3000_0.10960.png"	"arrowleft"	n/a	"VerticalHorizontal"	"arrowleft"	"1258"	"TRUE"	"VerticalHorizontal"	"-3.300000000"	"0.1096000000"	"1"	"26"
n/a	"html-keyboard-response"	"68"	"264288"	"0.0-4.0-2.0-0.8"	"wo5rw2"	"600"	"1366"	"chrome"	"108.0.0"	"FALSE"	"Windows 10"	"60.51"	n/a	n/a	n/a	n/a	n/a	n/a	"fixation"	n/a	n/a	n/a	n/a	"NULL"	"NULL"	"NULL"	n/a	"<p style=\"color: black; font-size: 80px; padding-left: 7%; padding-right: 25%; padding-top: 20%; padding-bottom: 29%\">+</p>"	n/a	"1152"	n/a	n/a	n/a	n/a	n/a	n/a	n/a	n/a	n/a
n/a	"image-keyboard-response"	"69"	"264802"	"0.0-4.0-2.0-1.8"	"wo5rw2"	"600"	"1366"	"chrome"	"108.0.0"	"FALSE"	"Windows 10"	"60.51"	n/a	n/a	n/a	n/a	n/a	n/a	"Trial"	n/a	n/a	n/a	n/a	"NULL"	"NULL"	"NULL"	"513"	"stimuli/VerticalHorizontal_28.75714_-0.16217.png"	"arrowleft"	n/a	"VerticalHorizontal"	"arrowright"	"1169"	"FALSE"	"VerticalHorizontal"	"28.757140000"	"-0.162170000"	"1"	"27"
n/a	"html-keyboard-response"	"70"	"266072"	"0.0-4.0-2.0-0.9"	"wo5rw2"	"600"	"1366"	"chrome"	"108.0.0"	"FALSE"	"Windows 10"	"60.51"	n/a	n/a	n/a	n/a	n/a	n/a	"fixation"	n/a	n/a	n/a	n/a	"NULL"	"NULL"	"NULL"	n/a	"<p style=\"color: black; font-size: 80px; padding-left: 18%; padding-right: 22%; padding-top: 25%; padding-bottom: 31%\">+</p>"	n/a	"1260"	n/a	n/a	n/a	n/a	n/a	n/a	n/a	n/a	n/a
n/a	"image-keyboard-response"	"71"	"266786"	"0.0-4.0-2.0-1.9"	"wo5rw2"	"600"	"1366"	"chrome"	"108.0.0"	"FALSE"	"Windows 10"	"60.51"	n/a	n/a	n/a	n/a	n/a	n/a	"Trial"	n/a	n/a	n/a	n/a	"NULL"	"NULL"	"NULL"	"713"	"stimuli/VerticalHorizontal_28.75714_0.16217.png"	"arrowleft"	n/a	"VerticalHorizontal"	"arrowleft"	"1270"	"TRUE"	"VerticalHorizontal"	"28.757140000"	"0.1621700000"	"1"	"28"
n/a	"html-keyboard-response"	"72"	"267930"	"0.0-4.0-2.0-0.10"	"wo5rw2"	"600"	"1366"	"chrome"	"108.0.0"	"FALSE"	"Windows 10"	"60.51"	n/a	n/a	n/a	n/a	n/a	n/a	"fixation"	n/a	n/a	n/a	n/a	"NULL"	"NULL"	"NULL"	n/a	"<p style=\"color: black; font-size: 80px; padding-left: 3%; padding-right: 5%; padding-top: 21%; padding-bottom: 7%\">+</p>"	n/a	"1134"	n/a	n/a	n/a	n/a	n/a	n/a	n/a	n/a	n/a
n/a	"image-keyboard-response"	"73"	"268861"	"0.0-4.0-2.0-1.10"	"wo5rw2"	"600"	"1366"	"chrome"	"108.0.0"	"FALSE"	"Windows 10"	"60.51"	n/a	n/a	n/a	n/a	n/a	n/a	"Trial"	n/a	n/a	n/a	n/a	"NULL"	"NULL"	"NULL"	"930"	"stimuli/VerticalHorizontal_28.75714_-0.0673.png"	"arrowleft"	n/a	"VerticalHorizontal"	"arrowright"	"1144"	"FALSE"	"VerticalHorizontal"	"28.757140000"	"-0.067300000"	"1"	"29"
n/a	"html-keyboard-response"	"74"	"270274"	"0.0-4.0-2.0-0.11"	"wo5rw2"	"600"	"1366"	"chrome"	"108.0.0"	"FALSE"	"Windows 10"	"60.51"	n/a	n/a	n/a	n/a	n/a	n/a	"fixation"	n/a	n/a	n/a	n/a	"NULL"	"NULL"	"NULL"	n/a	"<p style=\"color: black; font-size: 80px; padding-left: 16%; padding-right: 37%; padding-top: 49%; padding-bottom: 37%\">+</p>"	n/a	"1403"	n/a	n/a	n/a	n/a	n/a	n/a	n/a	n/a	n/a
n/a	"image-keyboard-response"	"75"	"270948"	"0.0-4.0-2.0-1.11"	"wo5rw2"	"600"	"1366"	"chrome"	"108.0.0"	"FALSE"	"Windows 10"	"60.51"	n/a	n/a	n/a	n/a	n/a	n/a	"Trial"	n/a	n/a	n/a	n/a	"NULL"	"NULL"	"NULL"	"673"	"stimuli/VerticalHorizontal_-3.3000_-0.16217.png"	"arrowright"	n/a	"VerticalHorizontal"	"arrowright"	"1413"	"TRUE"	"VerticalHorizontal"	"-3.300000000"	"-0.162170000"	"1"	"30"
n/a	"html-keyboard-response"	"76"	"272170"	"0.0-4.0-2.0-0.12"	"wo5rw2"	"600"	"1366"	"chrome"	"108.0.0"	"FALSE"	"Windows 10"	"60.51"	n/a	n/a	n/a	n/a	n/a	n/a	"fixation"	n/a	n/a	n/a	n/a	"NULL"	"NULL"	"NULL"	n/a	"<p style=\"color: black; font-size: 80px; padding-left: 34%; padding-right: 8%; padding-top: 33%; padding-bottom: 36%\">+</p>"	n/a	"1210"	n/a	n/a	n/a	n/a	n/a	n/a	n/a	n/a	n/a
n/a	"image-keyboard-response"	"77"	"272696"	"0.0-4.0-2.0-1.12"	"wo5rw2"	"600"	"1366"	"chrome"	"108.0.0"	"FALSE"	"Windows 10"	"60.51"	n/a	n/a	n/a	n/a	n/a	n/a	"Trial"	n/a	n/a	n/a	n/a	"NULL"	"NULL"	"NULL"	"524"	"stimuli/VerticalHorizontal_-3.3000_0.22500.png"	"arrowleft"	n/a	"VerticalHorizontal"	"arrowleft"	"1222"	"TRUE"	"VerticalHorizontal"	"-3.300000000"	"0.2250000000"	"1"	"31"
n/a	"html-keyboard-response"	"78"	"273804"	"0.0-4.0-2.0-0.13"	"wo5rw2"	"600"	"1366"	"chrome"	"108.0.0"	"FALSE"	"Windows 10"	"60.51"	n/a	n/a	n/a	n/a	n/a	n/a	"fixation"	n/a	n/a	n/a	n/a	"NULL"	"NULL"	"NULL"	n/a	"<p style=\"color: black; font-size: 80px; padding-left: 44%; padding-right: 23%; padding-top: 48%; padding-bottom: 30%\">+</p>"	n/a	"1093"	n/a	n/a	n/a	n/a	n/a	n/a	n/a	n/a	n/a
n/a	"image-keyboard-response"	"79"	"274582"	"0.0-4.0-2.0-1.13"	"wo5rw2"	"600"	"1366"	"chrome"	"108.0.0"	"FALSE"	"Windows 10"	"60.51"	n/a	n/a	n/a	n/a	n/a	n/a	"Trial"	n/a	n/a	n/a	n/a	"NULL"	"NULL"	"NULL"	"777"	"stimuli/VerticalHorizontal_28.75714_-0.1096.png"	"arrowright"	n/a	"VerticalHorizontal"	"arrowright"	"1108"	"TRUE"	"VerticalHorizontal"	"28.757140000"	"-0.109600000"	"1"	"32"
n/a	"html-keyboard-response"	"80"	"276053"	"0.0-4.0-2.0-0.14"	"wo5rw2"	"600"	"1366"	"chrome"	"108.0.0"	"FALSE"	"Windows 10"	"60.51"	n/a	n/a	n/a	n/a	n/a	n/a	"fixation"	n/a	n/a	n/a	n/a	"NULL"	"NULL"	"NULL"	n/a	"<p style=\"color: black; font-size: 80px; padding-left: 35%; padding-right: 28%; padding-top: 39%; padding-bottom: 48%\">+</p>"	n/a	"1458"	n/a	n/a	n/a	n/a	n/a	n/a	n/a	n/a	n/a
n/a	"image-keyboard-response"	"81"	"276928"	"0.0-4.0-2.0-1.14"	"wo5rw2"	"600"	"1366"	"chrome"	"108.0.0"	"FALSE"	"Windows 10"	"60.51"	n/a	n/a	n/a	n/a	n/a	n/a	"Trial"	n/a	n/a	n/a	n/a	"NULL"	"NULL"	"NULL"	"874"	"stimuli/VerticalHorizontal_20.27143_-0.2250.png"	"arrowleft"	n/a	"VerticalHorizontal"	"arrowright"	"1471"	"FALSE"	"VerticalHorizontal"	"20.271430000"	"-0.225000000"	"1"	"33"
n/a	"html-keyboard-response"	"82"	"278119"	"0.0-4.0-2.0-0.15"	"wo5rw2"	"600"	"1366"	"chrome"	"108.0.0"	"FALSE"	"Windows 10"	"60.51"	n/a	n/a	n/a	n/a	n/a	n/a	"fixation"	n/a	n/a	n/a	n/a	"NULL"	"NULL"	"NULL"	n/a	"<p style=\"color: black; font-size: 80px; padding-left: 25%; padding-right: 1%; padding-top: 10%; padding-bottom: 27%\">+</p>"	n/a	"1172"	n/a	n/a	n/a	n/a	n/a	n/a	n/a	n/a	n/a
n/a	"image-keyboard-response"	"83"	"278834"	"0.0-4.0-2.0-1.15"	"wo5rw2"	"600"	"1366"	"chrome"	"108.0.0"	"FALSE"	"Windows 10"	"60.51"	n/a	n/a	n/a	n/a	n/a	n/a	"Trial"	n/a	n/a	n/a	n/a	"NULL"	"NULL"	"NULL"	"714"	"stimuli/VerticalHorizontal_20.27143_-0.0673.png"	"arrowleft"	n/a	"VerticalHorizontal"	"arrowright"	"1191"	"FALSE"	"VerticalHorizontal"	"20.271430000"	"-0.067300000"	"1"	"34"
n/a	"html-keyboard-response"	"84"	"280202"	"0.0-4.0-2.0-0.16"	"wo5rw2"	"600"	"1366"	"chrome"	"108.0.0"	"FALSE"	"Windows 10"	"60.51"	n/a	n/a	n/a	n/a	n/a	n/a	"fixation"	n/a	n/a	n/a	n/a	"NULL"	"NULL"	"NULL"	n/a	"<p style=\"color: black; font-size: 80px; padding-left: 37%; padding-right: 16%; padding-top: 33%; padding-bottom: 17%\">+</p>"	n/a	"1345"	n/a	n/a	n/a	n/a	n/a	n/a	n/a	n/a	n/a
n/a	"image-keyboard-response"	"85"	"280847"	"0.0-4.0-2.0-1.16"	"wo5rw2"	"600"	"1366"	"chrome"	"108.0.0"	"FALSE"	"Windows 10"	"60.51"	n/a	n/a	n/a	n/a	n/a	n/a	"Trial"	n/a	n/a	n/a	n/a	"NULL"	"NULL"	"NULL"	"644"	"stimuli/VerticalHorizontal_20.27143_0.22500.png"	"arrowleft"	n/a	"VerticalHorizontal"	"arrowleft"	"1368"	"TRUE"	"VerticalHorizontal"	"20.271430000"	"0.2250000000"	"1"	"35"
n/a	"html-keyboard-response"	"86"	"282132"	"0.0-4.0-2.0-0.17"	"wo5rw2"	"600"	"1366"	"chrome"	"108.0.0"	"FALSE"	"Windows 10"	"60.51"	n/a	n/a	n/a	n/a	n/a	n/a	"fixation"	n/a	n/a	n/a	n/a	"NULL"	"NULL"	"NULL"	n/a	"<p style=\"color: black; font-size: 80px; padding-left: 21%; padding-right: 3%; padding-top: 27%; padding-bottom: 16%\">+</p>"	n/a	"1270"	n/a	n/a	n/a	n/a	n/a	n/a	n/a	n/a	n/a
n/a	"image-keyboard-response"	"87"	"282643"	"0.0-4.0-2.0-1.17"	"wo5rw2"	"600"	"1366"	"chrome"	"108.0.0"	"FALSE"	"Windows 10"	"60.51"	n/a	n/a	n/a	n/a	n/a	n/a	"Trial"	n/a	n/a	n/a	n/a	"NULL"	"NULL"	"NULL"	"510"	"stimuli/VerticalHorizontal_3.30000_-0.0673.png"	"arrowright"	n/a	"VerticalHorizontal"	"arrowright"	"1285"	"TRUE"	"VerticalHorizontal"	"3.3000000000"	"-0.067300000"	"1"	"36"
n/a	"html-keyboard-response"	"88"	"283755"	"0.0-4.0-2.0-0.18"	"wo5rw2"	"600"	"1366"	"chrome"	"108.0.0"	"FALSE"	"Windows 10"	"60.51"	n/a	n/a	n/a	n/a	n/a	n/a	"fixation"	n/a	n/a	n/a	n/a	"NULL"	"NULL"	"NULL"	n/a	"<p style=\"color: black; font-size: 80px; padding-left: 47%; padding-right: 19%; padding-top: 7%; padding-bottom: 18%\">+</p>"	n/a	"1094"	n/a	n/a	n/a	n/a	n/a	n/a	n/a	n/a	n/a
n/a	"image-keyboard-response"	"89"	"284550"	"0.0-4.0-2.0-1.18"	"wo5rw2"	"600"	"1366"	"chrome"	"108.0.0"	"FALSE"	"Windows 10"	"60.51"	n/a	n/a	n/a	n/a	n/a	n/a	"Trial"	n/a	n/a	n/a	n/a	"NULL"	"NULL"	"NULL"	"794"	"stimuli/VerticalHorizontal_28.75714_-0.2250.png"	"arrowright"	n/a	"VerticalHorizontal"	"arrowright"	"1112"	"TRUE"	"VerticalHorizontal"	"28.757140000"	"-0.225000000"	"1"	"37"
n/a	"html-keyboard-response"	"90"	"286053"	"0.0-4.0-2.0-0.19"	"wo5rw2"	"600"	"1366"	"chrome"	"108.0.0"	"FALSE"	"Windows 10"	"60.51"	n/a	n/a	n/a	n/a	n/a	n/a	"fixation"	n/a	n/a	n/a	n/a	"NULL"	"NULL"	"NULL"	n/a	"<p style=\"color: black; font-size: 80px; padding-left: 32%; padding-right: 30%; padding-top: 17%; padding-bottom: 44%\">+</p>"	n/a	"1491"	n/a	n/a	n/a	n/a	n/a	n/a	n/a	n/a	n/a
n/a	"image-keyboard-response"	"91"	"286768"	"0.0-4.0-2.0-1.19"	"wo5rw2"	"600"	"1366"	"chrome"	"108.0.0"	"FALSE"	"Windows 10"	"60.51"	n/a	n/a	n/a	n/a	n/a	n/a	"Trial"	n/a	n/a	n/a	n/a	"NULL"	"NULL"	"NULL"	"715"	"stimuli/VerticalHorizontal_-11.78571_-0.0673.png"	"arrowleft"	n/a	"VerticalHorizontal"	"arrowright"	"1503"	"FALSE"	"VerticalHorizontal"	"-11.78571000"	"-0.067300000"	"1"	"38"
n/a	"html-keyboard-response"	"92"	"288180"	"0.0-4.0-2.0-0.20"	"wo5rw2"	"600"	"1366"	"chrome"	"108.0.0"	"FALSE"	"Windows 10"	"60.51"	n/a	n/a	n/a	n/a	n/a	n/a	"fixation"	n/a	n/a	n/a	n/a	"NULL"	"NULL"	"NULL"	n/a	"<p style=\"color: black; font-size: 80px; padding-left: 34%; padding-right: 7%; padding-top: 6%; padding-bottom: 40%\">+</p>"	n/a	"1406"	n/a	n/a	n/a	n/a	n/a	n/a	n/a	n/a	n/a
n/a	"image-keyboard-response"	"93"	"288836"	"0.0-4.0-2.0-1.20"	"wo5rw2"	"600"	"1366"	"chrome"	"108.0.0"	"FALSE"	"Windows 10"	"60.51"	n/a	n/a	n/a	n/a	n/a	n/a	"Trial"	n/a	n/a	n/a	n/a	"NULL"	"NULL"	"NULL"	"656"	"stimuli/VerticalHorizontal_-28.75714_0.10960.png"	"arrowleft"	n/a	"VerticalHorizontal"	"arrowleft"	"1412"	"TRUE"	"VerticalHorizontal"	"-28.75714000"	"0.1096000000"	"1"	"39"
n/a	"html-keyboard-response"	"94"	"290053"	"0.0-4.0-2.0-0.21"	"wo5rw2"	"600"	"1366"	"chrome"	"108.0.0"	"FALSE"	"Windows 10"	"60.51"	n/a	n/a	n/a	n/a	n/a	n/a	"fixation"	n/a	n/a	n/a	n/a	"NULL"	"NULL"	"NULL"	n/a	"<p style=\"color: black; font-size: 80px; padding-left: 19%; padding-right: 48%; padding-top: 11%; padding-bottom: 10%\">+</p>"	n/a	"1211"	n/a	n/a	n/a	n/a	n/a	n/a	n/a	n/a	n/a
n/a	"image-keyboard-response"	"95"	"290763"	"0.0-4.0-2.0-1.21"	"wo5rw2"	"600"	"1366"	"chrome"	"108.0.0"	"FALSE"	"Windows 10"	"60.51"	n/a	n/a	n/a	n/a	n/a	n/a	"Trial"	n/a	n/a	n/a	n/a	"NULL"	"NULL"	"NULL"	"709"	"stimuli/VerticalHorizontal_-28.75714_-0.1096.png"	"arrowright"	n/a	"VerticalHorizontal"	"arrowright"	"1217"	"TRUE"	"VerticalHorizontal"	"-28.75714000"	"-0.109600000"	"1"	"40"
n/a	"html-keyboard-response"	"96"	"291990"	"0.0-4.0-2.0-0.22"	"wo5rw2"	"600"	"1366"	"chrome"	"108.0.0"	"FALSE"	"Windows 10"	"60.51"	n/a	n/a	n/a	n/a	n/a	n/a	"fixation"	n/a	n/a	n/a	n/a	"NULL"	"NULL"	"NULL"	n/a	"<p style=\"color: black; font-size: 80px; padding-left: 33%; padding-right: 1%; padding-top: 42%; padding-bottom: 6%\">+</p>"	n/a	"1209"	n/a	n/a	n/a	n/a	n/a	n/a	n/a	n/a	n/a
n/a	"image-keyboard-response"	"97"	"292496"	"0.0-4.0-2.0-1.22"	"wo5rw2"	"600"	"1366"	"chrome"	"108.0.0"	"FALSE"	"Windows 10"	"60.51"	n/a	n/a	n/a	n/a	n/a	n/a	"Trial"	n/a	n/a	n/a	n/a	"NULL"	"NULL"	"NULL"	"505"	"stimuli/VerticalHorizontal_-11.78571_0.22500.png"	"arrowleft"	n/a	"VerticalHorizontal"	"arrowleft"	"1227"	"TRUE"	"VerticalHorizontal"	"-11.78571000"	"0.2250000000"	"1"	"41"
n/a	"html-keyboard-response"	"98"	"293664"	"0.0-4.0-2.0-0.23"	"wo5rw2"	"600"	"1366"	"chrome"	"108.0.0"	"FALSE"	"Windows 10"	"60.51"	n/a	n/a	n/a	n/a	n/a	n/a	"fixation"	n/a	n/a	n/a	n/a	"NULL"	"NULL"	"NULL"	n/a	"<p style=\"color: black; font-size: 80px; padding-left: 23%; padding-right: 32%; padding-top: 31%; padding-bottom: 24%\">+</p>"	n/a	"1156"	n/a	n/a	n/a	n/a	n/a	n/a	n/a	n/a	n/a
n/a	"image-keyboard-response"	"99"	"294193"	"0.0-4.0-2.0-1.23"	"wo5rw2"	"600"	"1366"	"chrome"	"108.0.0"	"FALSE"	"Windows 10"	"60.51"	n/a	n/a	n/a	n/a	n/a	n/a	"Trial"	n/a	n/a	n/a	n/a	"NULL"	"NULL"	"NULL"	"528"	"stimuli/VerticalHorizontal_-20.27143_0.22500.png"	"arrowleft"	n/a	"VerticalHorizontal"	"arrowleft"	"1168"	"TRUE"	"VerticalHorizontal"	"-20.27143000"	"0.2250000000"	"1"	"42"
n/a	"html-keyboard-response"	"100"	"295273"	"0.0-4.0-2.0-0.24"	"wo5rw2"	"600"	"1366"	"chrome"	"108.0.0"	"FALSE"	"Windows 10"	"60.51"	n/a	n/a	n/a	n/a	n/a	n/a	"fixation"	n/a	n/a	n/a	n/a	"NULL"	"NULL"	"NULL"	n/a	"<p style=\"color: black; font-size: 80px; padding-left: 31%; padding-right: 37%; padding-top: 16%; padding-bottom: 27%\">+</p>"	n/a	"1069"	n/a	n/a	n/a	n/a	n/a	n/a	n/a	n/a	n/a
n/a	"image-keyboard-response"	"101"	"296007"	"0.0-4.0-2.0-1.24"	"wo5rw2"	"600"	"1366"	"chrome"	"108.0.0"	"FALSE"	"Windows 10"	"60.51"	n/a	n/a	n/a	n/a	n/a	n/a	"Trial"	n/a	n/a	n/a	n/a	"NULL"	"NULL"	"NULL"	"733"	"stimuli/VerticalHorizontal_20.27143_0.06730.png"	"arrowright"	n/a	"VerticalHorizontal"	"arrowleft"	"1080"	"FALSE"	"VerticalHorizontal"	"20.271430000"	"0.0673000000"	"1"	"43"
n/a	"html-keyboard-response"	"102"	"297036"	"0.0-4.0-2.0-0.25"	"wo5rw2"	"600"	"1366"	"chrome"	"108.0.0"	"FALSE"	"Windows 10"	"60.51"	n/a	n/a	n/a	n/a	n/a	n/a	"fixation"	n/a	n/a	n/a	n/a	"NULL"	"NULL"	"NULL"	n/a	"<p style=\"color: black; font-size: 80px; padding-left: 10%; padding-right: 22%; padding-top: 39%; padding-bottom: 23%\">+</p>"	n/a	"1023"	n/a	n/a	n/a	n/a	n/a	n/a	n/a	n/a	n/a
n/a	"image-keyboard-response"	"103"	"297759"	"0.0-4.0-2.0-1.25"	"wo5rw2"	"600"	"1366"	"chrome"	"108.0.0"	"FALSE"	"Windows 10"	"60.51"	n/a	n/a	n/a	n/a	n/a	n/a	"Trial"	n/a	n/a	n/a	n/a	"NULL"	"NULL"	"NULL"	"722"	"stimuli/VerticalHorizontal_11.78571_0.16217.png"	"arrowleft"	n/a	"VerticalHorizontal"	"arrowleft"	"1029"	"TRUE"	"VerticalHorizontal"	"11.785710000"	"0.1621700000"	"1"	"44"
n/a	"html-keyboard-response"	"104"	"298837"	"0.0-4.0-2.0-0.26"	"wo5rw2"	"600"	"1366"	"chrome"	"108.0.0"	"FALSE"	"Windows 10"	"60.51"	n/a	n/a	n/a	n/a	n/a	n/a	"fixation"	n/a	n/a	n/a	n/a	"NULL"	"NULL"	"NULL"	n/a	"<p style=\"color: black; font-size: 80px; padding-left: 19%; padding-right: 39%; padding-top: 8%; padding-bottom: 19%\">+</p>"	n/a	"1071"	n/a	n/a	n/a	n/a	n/a	n/a	n/a	n/a	n/a
n/a	"image-keyboard-response"	"105"	"299323"	"0.0-4.0-2.0-1.26"	"wo5rw2"	"600"	"1366"	"chrome"	"108.0.0"	"FALSE"	"Windows 10"	"60.51"	n/a	n/a	n/a	n/a	n/a	n/a	"Trial"	n/a	n/a	n/a	n/a	"NULL"	"NULL"	"NULL"	"486"	"stimuli/VerticalHorizontal_-11.78571_-0.1096.png"	"arrowright"	n/a	"VerticalHorizontal"	"arrowright"	"1078"	"TRUE"	"VerticalHorizontal"	"-11.78571000"	"-0.109600000"	"1"	"45"
n/a	"html-keyboard-response"	"106"	"300786"	"0.0-4.0-2.0-0.27"	"wo5rw2"	"600"	"1366"	"chrome"	"108.0.0"	"FALSE"	"Windows 10"	"60.51"	n/a	n/a	n/a	n/a	n/a	n/a	"fixation"	n/a	n/a	n/a	n/a	"NULL"	"NULL"	"NULL"	n/a	"<p style=\"color: black; font-size: 80px; padding-left: 12%; padding-right: 3%; padding-top: 16%; padding-bottom: 40%\">+</p>"	n/a	"1454"	n/a	n/a	n/a	n/a	n/a	n/a	n/a	n/a	n/a
n/a	"image-keyboard-response"	"107"	"301397"	"0.0-4.0-2.0-1.27"	"wo5rw2"	"600"	"1366"	"chrome"	"108.0.0"	"FALSE"	"Windows 10"	"60.51"	n/a	n/a	n/a	n/a	n/a	n/a	"Trial"	n/a	n/a	n/a	n/a	"NULL"	"NULL"	"NULL"	"609"	"stimuli/VerticalHorizontal_20.27143_0.10960.png"	"arrowleft"	n/a	"VerticalHorizontal"	"arrowleft"	"1463"	"TRUE"	"VerticalHorizontal"	"20.271430000"	"0.1096000000"	"1"	"46"
n/a	"html-keyboard-response"	"108"	"302896"	"0.0-4.0-2.0-0.28"	"wo5rw2"	"600"	"1366"	"chrome"	"108.0.0"	"FALSE"	"Windows 10"	"60.51"	n/a	n/a	n/a	n/a	n/a	n/a	"fixation"	n/a	n/a	n/a	n/a	"NULL"	"NULL"	"NULL"	n/a	"<p style=\"color: black; font-size: 80px; padding-left: 5%; padding-right: 0%; padding-top: 49%; padding-bottom: 28%\">+</p>"	n/a	"1486"	n/a	n/a	n/a	n/a	n/a	n/a	n/a	n/a	n/a
n/a	"image-keyboard-response"	"109"	"303643"	"0.0-4.0-2.0-1.28"	"wo5rw2"	"600"	"1366"	"chrome"	"108.0.0"	"FALSE"	"Windows 10"	"60.51"	n/a	n/a	n/a	n/a	n/a	n/a	"Trial"	n/a	n/a	n/a	n/a	"NULL"	"NULL"	"NULL"	"746"	"stimuli/VerticalHorizontal_-11.78571_0.10960.png"	"arrowleft"	n/a	"VerticalHorizontal"	"arrowleft"	"1499"	"TRUE"	"VerticalHorizontal"	"-11.78571000"	"0.1096000000"	"1"	"47"
n/a	"html-keyboard-response"	"110"	"304929"	"0.0-4.0-2.0-0.29"	"wo5rw2"	"600"	"1366"	"chrome"	"108.0.0"	"FALSE"	"Windows 10"	"60.51"	n/a	n/a	n/a	n/a	n/a	n/a	"fixation"	n/a	n/a	n/a	n/a	"NULL"	"NULL"	"NULL"	n/a	"<p style=\"color: black; font-size: 80px; padding-left: 43%; padding-right: 7%; padding-top: 40%; padding-bottom: 41%\">+</p>"	n/a	"1275"	n/a	n/a	n/a	n/a	n/a	n/a	n/a	n/a	n/a
n/a	"image-keyboard-response"	"111"	"305708"	"0.0-4.0-2.0-1.29"	"wo5rw2"	"600"	"1366"	"chrome"	"108.0.0"	"FALSE"	"Windows 10"	"60.51"	n/a	n/a	n/a	n/a	n/a	n/a	"Trial"	n/a	n/a	n/a	n/a	"NULL"	"NULL"	"NULL"	"778"	"stimuli/VerticalHorizontal_-11.78571_0.06730.png"	"arrowleft"	n/a	"VerticalHorizontal"	"arrowleft"	"1286"	"TRUE"	"VerticalHorizontal"	"-11.78571000"	"0.0673000000"	"1"	"48"
n/a	"html-keyboard-response"	"112"	"307006"	"0.0-4.0-2.0-0.30"	"wo5rw2"	"600"	"1366"	"chrome"	"108.0.0"	"FALSE"	"Windows 10"	"60.51"	n/a	n/a	n/a	n/a	n/a	n/a	"fixation"	n/a	n/a	n/a	n/a	"NULL"	"NULL"	"NULL"	n/a	"<p style=\"color: black; font-size: 80px; padding-left: 27%; padding-right: 28%; padding-top: 12%; padding-bottom: 12%\">+</p>"	n/a	"1288"	n/a	n/a	n/a	n/a	n/a	n/a	n/a	n/a	n/a
n/a	"image-keyboard-response"	"113"	"307848"	"0.0-4.0-2.0-1.30"	"wo5rw2"	"600"	"1366"	"chrome"	"108.0.0"	"FALSE"	"Windows 10"	"60.51"	n/a	n/a	n/a	n/a	n/a	n/a	"Trial"	n/a	n/a	n/a	n/a	"NULL"	"NULL"	"NULL"	"841"	"stimuli/VerticalHorizontal_3.30000_0.10960.png"	"arrowleft"	n/a	"VerticalHorizontal"	"arrowleft"	"1298"	"TRUE"	"VerticalHorizontal"	"3.3000000000"	"0.1096000000"	"1"	"49"
n/a	"html-keyboard-response"	"114"	"309311"	"0.0-4.0-2.0-0.31"	"wo5rw2"	"600"	"1366"	"chrome"	"108.0.0"	"FALSE"	"Windows 10"	"60.51"	n/a	n/a	n/a	n/a	n/a	n/a	"fixation"	n/a	n/a	n/a	n/a	"NULL"	"NULL"	"NULL"	n/a	"<p style=\"color: black; font-size: 80px; padding-left: 17%; padding-right: 19%; padding-top: 27%; padding-bottom: 46%\">+</p>"	n/a	"1457"	n/a	n/a	n/a	n/a	n/a	n/a	n/a	n/a	n/a
n/a	"image-keyboard-response"	"115"	"310027"	"0.0-4.0-2.0-1.31"	"wo5rw2"	"600"	"1366"	"chrome"	"108.0.0"	"FALSE"	"Windows 10"	"60.51"	n/a	n/a	n/a	n/a	n/a	n/a	"Trial"	n/a	n/a	n/a	n/a	"NULL"	"NULL"	"NULL"	"715"	"stimuli/VerticalHorizontal_20.27143_-0.16217.png"	"arrowright"	n/a	"VerticalHorizontal"	"arrowright"	"1463"	"TRUE"	"VerticalHorizontal"	"20.271430000"	"-0.162170000"	"1"	"50"
n/a	"html-keyboard-response"	"116"	"311437"	"0.0-4.0-2.0-0.32"	"wo5rw2"	"600"	"1366"	"chrome"	"108.0.0"	"FALSE"	"Windows 10"	"60.51"	n/a	n/a	n/a	n/a	n/a	n/a	"fixation"	n/a	n/a	n/a	n/a	"NULL"	"NULL"	"NULL"	n/a	"<p style=\"color: black; font-size: 80px; padding-left: 40%; padding-right: 14%; padding-top: 0%; padding-bottom: 33%\">+</p>"	n/a	"1405"	n/a	n/a	n/a	n/a	n/a	n/a	n/a	n/a	n/a
n/a	"image-keyboard-response"	"117"	"312018"	"0.0-4.0-2.0-1.32"	"wo5rw2"	"600"	"1366"	"chrome"	"108.0.0"	"FALSE"	"Windows 10"	"60.51"	n/a	n/a	n/a	n/a	n/a	n/a	"Trial"	n/a	n/a	n/a	n/a	"NULL"	"NULL"	"NULL"	"580"	"stimuli/VerticalHorizontal_-28.75714_-0.2250.png"	"arrowright"	n/a	"VerticalHorizontal"	"arrowright"	"1410"	"TRUE"	"VerticalHorizontal"	"-28.75714000"	"-0.225000000"	"1"	"51"
n/a	"html-keyboard-response"	"118"	"313334"	"0.0-4.0-2.0-0.33"	"wo5rw2"	"600"	"1366"	"chrome"	"108.0.0"	"FALSE"	"Windows 10"	"60.51"	n/a	n/a	n/a	n/a	n/a	n/a	"fixation"	n/a	n/a	n/a	n/a	"NULL"	"NULL"	"NULL"	n/a	"<p style=\"color: black; font-size: 80px; padding-left: 14%; padding-right: 22%; padding-top: 20%; padding-bottom: 45%\">+</p>"	n/a	"1312"	n/a	n/a	n/a	n/a	n/a	n/a	n/a	n/a	n/a
n/a	"image-keyboard-response"	"119"	"313932"	"0.0-4.0-2.0-1.33"	"wo5rw2"	"600"	"1366"	"chrome"	"108.0.0"	"FALSE"	"Windows 10"	"60.51"	n/a	n/a	n/a	n/a	n/a	n/a	"Trial"	n/a	n/a	n/a	n/a	"NULL"	"NULL"	"NULL"	"597"	"stimuli/VerticalHorizontal_-20.27143_-0.1096.png"	"arrowright"	n/a	"VerticalHorizontal"	"arrowright"	"1316"	"TRUE"	"VerticalHorizontal"	"-20.27143000"	"-0.109600000"	"1"	"52"
n/a	"html-keyboard-response"	"120"	"314943"	"0.0-4.0-2.0-0.34"	"wo5rw2"	"600"	"1366"	"chrome"	"108.0.0"	"FALSE"	"Windows 10"	"60.51"	n/a	n/a	n/a	n/a	n/a	n/a	"fixation"	n/a	n/a	n/a	n/a	"NULL"	"NULL"	"NULL"	n/a	"<p style=\"color: black; font-size: 80px; padding-left: 16%; padding-right: 19%; padding-top: 38%; padding-bottom: 28%\">+</p>"	n/a	"1004"	n/a	n/a	n/a	n/a	n/a	n/a	n/a	n/a	n/a
n/a	"image-keyboard-response"	"121"	"315496"	"0.0-4.0-2.0-1.34"	"wo5rw2"	"600"	"1366"	"chrome"	"108.0.0"	"FALSE"	"Windows 10"	"60.51"	n/a	n/a	n/a	n/a	n/a	n/a	"Trial"	n/a	n/a	n/a	n/a	"NULL"	"NULL"	"NULL"	"552"	"stimuli/VerticalHorizontal_28.75714_0.22500.png"	"arrowleft"	n/a	"VerticalHorizontal"	"arrowleft"	"1011"	"TRUE"	"VerticalHorizontal"	"28.757140000"	"0.2250000000"	"1"	"53"
n/a	"html-keyboard-response"	"122"	"317006"	"0.0-4.0-2.0-0.35"	"wo5rw2"	"600"	"1366"	"chrome"	"108.0.0"	"FALSE"	"Windows 10"	"60.51"	n/a	n/a	n/a	n/a	n/a	n/a	"fixation"	n/a	n/a	n/a	n/a	"NULL"	"NULL"	"NULL"	n/a	"<p style=\"color: black; font-size: 80px; padding-left: 1%; padding-right: 24%; padding-top: 21%; padding-bottom: 40%\">+</p>"	n/a	"1496"	n/a	n/a	n/a	n/a	n/a	n/a	n/a	n/a	n/a
n/a	"image-keyboard-response"	"123"	"317596"	"0.0-4.0-2.0-1.35"	"wo5rw2"	"600"	"1366"	"chrome"	"108.0.0"	"FALSE"	"Windows 10"	"60.51"	n/a	n/a	n/a	n/a	n/a	n/a	"Trial"	n/a	n/a	n/a	n/a	"NULL"	"NULL"	"NULL"	"589"	"stimuli/VerticalHorizontal_-11.78571_-0.16217.png"	"arrowright"	n/a	"VerticalHorizontal"	"arrowright"	"1510"	"TRUE"	"VerticalHorizontal"	"-11.78571000"	"-0.162170000"	"1"	"54"
n/a	"html-keyboard-response"	"124"	"318943"	"0.0-4.0-2.0-0.36"	"wo5rw2"	"600"	"1366"	"chrome"	"108.0.0"	"FALSE"	"Windows 10"	"60.51"	n/a	n/a	n/a	n/a	n/a	n/a	"fixation"	n/a	n/a	n/a	n/a	"NULL"	"NULL"	"NULL"	n/a	"<p style=\"color: black; font-size: 80px; padding-left: 13%; padding-right: 35%; padding-top: 36%; padding-bottom: 18%\">+</p>"	n/a	"1329"	n/a	n/a	n/a	n/a	n/a	n/a	n/a	n/a	n/a
n/a	"image-keyboard-response"	"125"	"319407"	"0.0-4.0-2.0-1.36"	"wo5rw2"	"600"	"1366"	"chrome"	"108.0.0"	"FALSE"	"Windows 10"	"60.51"	n/a	n/a	n/a	n/a	n/a	n/a	"Trial"	n/a	n/a	n/a	n/a	"NULL"	"NULL"	"NULL"	"462"	"stimuli/VerticalHorizontal_-20.27143_0.16217.png"	"arrowleft"	n/a	"VerticalHorizontal"	"arrowleft"	"1347"	"TRUE"	"VerticalHorizontal"	"-20.27143000"	"0.1621700000"	"1"	"55"
n/a	"html-keyboard-response"	"126"	"320614"	"0.0-4.0-2.0-0.37"	"wo5rw2"	"600"	"1366"	"chrome"	"108.0.0"	"FALSE"	"Windows 10"	"60.51"	n/a	n/a	n/a	n/a	n/a	n/a	"fixation"	n/a	n/a	n/a	n/a	"NULL"	"NULL"	"NULL"	n/a	"<p style=\"color: black; font-size: 80px; padding-left: 21%; padding-right: 19%; padding-top: 15%; padding-bottom: 44%\">+</p>"	n/a	"1191"	n/a	n/a	n/a	n/a	n/a	n/a	n/a	n/a	n/a
n/a	"image-keyboard-response"	"127"	"321200"	"0.0-4.0-2.0-1.37"	"wo5rw2"	"600"	"1366"	"chrome"	"108.0.0"	"FALSE"	"Windows 10"	"60.51"	n/a	n/a	n/a	n/a	n/a	n/a	"Trial"	n/a	n/a	n/a	n/a	"NULL"	"NULL"	"NULL"	"585"	"stimuli/VerticalHorizontal_11.78571_0.10960.png"	"arrowleft"	n/a	"VerticalHorizontal"	"arrowleft"	"1207"	"TRUE"	"VerticalHorizontal"	"11.785710000"	"0.1096000000"	"1"	"56"
n/a	"html-keyboard-response"	"128"	"322695"	"0.0-4.0-2.0-0.38"	"wo5rw2"	"600"	"1366"	"chrome"	"108.0.0"	"FALSE"	"Windows 10"	"60.51"	n/a	n/a	n/a	n/a	n/a	n/a	"fixation"	n/a	n/a	n/a	n/a	"NULL"	"NULL"	"NULL"	n/a	"<p style=\"color: black; font-size: 80px; padding-left: 15%; padding-right: 15%; padding-top: 25%; padding-bottom: 38%\">+</p>"	n/a	"1478"	n/a	n/a	n/a	n/a	n/a	n/a	n/a	n/a	n/a
n/a	"image-keyboard-response"	"129"	"323098"	"0.0-4.0-2.0-1.38"	"wo5rw2"	"600"	"1366"	"chrome"	"108.0.0"	"FALSE"	"Windows 10"	"60.51"	n/a	n/a	n/a	n/a	n/a	n/a	"Trial"	n/a	n/a	n/a	n/a	"NULL"	"NULL"	"NULL"	"402"	"stimuli/VerticalHorizontal_-28.75714_0.22500.png"	"arrowleft"	n/a	"VerticalHorizontal"	"arrowleft"	"1495"	"TRUE"	"VerticalHorizontal"	"-28.75714000"	"0.2250000000"	"1"	"57"
n/a	"html-keyboard-response"	"130"	"324323"	"0.0-4.0-2.0-0.39"	"wo5rw2"	"600"	"1366"	"chrome"	"108.0.0"	"FALSE"	"Windows 10"	"60.51"	n/a	n/a	n/a	n/a	n/a	n/a	"fixation"	n/a	n/a	n/a	n/a	"NULL"	"NULL"	"NULL"	n/a	"<p style=\"color: black; font-size: 80px; padding-left: 26%; padding-right: 25%; padding-top: 8%; padding-bottom: 15%\">+</p>"	n/a	"1215"	n/a	n/a	n/a	n/a	n/a	n/a	n/a	n/a	n/a
n/a	"image-keyboard-response"	"131"	"324857"	"0.0-4.0-2.0-1.39"	"wo5rw2"	"600"	"1366"	"chrome"	"108.0.0"	"FALSE"	"Windows 10"	"60.51"	n/a	n/a	n/a	n/a	n/a	n/a	"Trial"	n/a	n/a	n/a	n/a	"NULL"	"NULL"	"NULL"	"532"	"stimuli/VerticalHorizontal_-3.3000_-0.0673.png"	"arrowright"	n/a	"VerticalHorizontal"	"arrowright"	"1225"	"TRUE"	"VerticalHorizontal"	"-3.300000000"	"-0.067300000"	"1"	"58"
n/a	"html-keyboard-response"	"132"	"326100"	"0.0-4.0-2.0-0.40"	"wo5rw2"	"600"	"1366"	"chrome"	"108.0.0"	"FALSE"	"Windows 10"	"60.51"	n/a	n/a	n/a	n/a	n/a	n/a	"fixation"	n/a	n/a	n/a	n/a	"NULL"	"NULL"	"NULL"	n/a	"<p style=\"color: black; font-size: 80px; padding-left: 35%; padding-right: 47%; padding-top: 44%; padding-bottom: 35%\">+</p>"	n/a	"1241"	n/a	n/a	n/a	n/a	n/a	n/a	n/a	n/a	n/a
n/a	"image-keyboard-response"	"133"	"326699"	"0.0-4.0-2.0-1.40"	"wo5rw2"	"600"	"1366"	"chrome"	"108.0.0"	"FALSE"	"Windows 10"	"60.51"	n/a	n/a	n/a	n/a	n/a	n/a	"Trial"	n/a	n/a	n/a	n/a	"NULL"	"NULL"	"NULL"	"597"	"stimuli/VerticalHorizontal_-3.3000_0.06730.png"	"arrowleft"	n/a	"VerticalHorizontal"	"arrowleft"	"1243"	"TRUE"	"VerticalHorizontal"	"-3.300000000"	"0.0673000000"	"1"	"59"
n/a	"html-keyboard-response"	"134"	"327885"	"0.0-4.0-2.0-0.41"	"wo5rw2"	"600"	"1366"	"chrome"	"108.0.0"	"FALSE"	"Windows 10"	"60.51"	n/a	n/a	n/a	n/a	n/a	n/a	"fixation"	n/a	n/a	n/a	n/a	"NULL"	"NULL"	"NULL"	n/a	"<p style=\"color: black; font-size: 80px; padding-left: 32%; padding-right: 23%; padding-top: 15%; padding-bottom: 6%\">+</p>"	n/a	"1178"	n/a	n/a	n/a	n/a	n/a	n/a	n/a	n/a	n/a
n/a	"image-keyboard-response"	"135"	"328350"	"0.0-4.0-2.0-1.41"	"wo5rw2"	"600"	"1366"	"chrome"	"108.0.0"	"FALSE"	"Windows 10"	"60.51"	n/a	n/a	n/a	n/a	n/a	n/a	"Trial"	n/a	n/a	n/a	n/a	"NULL"	"NULL"	"NULL"	"464"	"stimuli/VerticalHorizontal_-20.27143_0.10960.png"	"arrowleft"	n/a	"VerticalHorizontal"	"arrowleft"	"1186"	"TRUE"	"VerticalHorizontal"	"-20.27143000"	"0.1096000000"	"1"	"60"
n/a	"html-keyboard-response"	"136"	"329602"	"0.0-4.0-2.0-0.42"	"wo5rw2"	"600"	"1366"	"chrome"	"108.0.0"	"FALSE"	"Windows 10"	"60.51"	n/a	n/a	n/a	n/a	n/a	n/a	"fixation"	n/a	n/a	n/a	n/a	"NULL"	"NULL"	"NULL"	n/a	"<p style=\"color: black; font-size: 80px; padding-left: 41%; padding-right: 16%; padding-top: 46%; padding-bottom: 33%\">+</p>"	n/a	"1229"	n/a	n/a	n/a	n/a	n/a	n/a	n/a	n/a	n/a
n/a	"image-keyboard-response"	"137"	"330142"	"0.0-4.0-2.0-1.42"	"wo5rw2"	"600"	"1366"	"chrome"	"108.0.0"	"FALSE"	"Windows 10"	"60.51"	n/a	n/a	n/a	n/a	n/a	n/a	"Trial"	n/a	n/a	n/a	n/a	"NULL"	"NULL"	"NULL"	"539"	"stimuli/VerticalHorizontal_11.78571_0.22500.png"	"arrowleft"	n/a	"VerticalHorizontal"	"arrowleft"	"1252"	"TRUE"	"VerticalHorizontal"	"11.785710000"	"0.2250000000"	"1"	"61"
n/a	"html-keyboard-response"	"138"	"331308"	"0.0-4.0-2.0-0.43"	"wo5rw2"	"600"	"1366"	"chrome"	"108.0.0"	"FALSE"	"Windows 10"	"60.51"	n/a	n/a	n/a	n/a	n/a	n/a	"fixation"	n/a	n/a	n/a	n/a	"NULL"	"NULL"	"NULL"	n/a	"<p style=\"color: black; font-size: 80px; padding-left: 42%; padding-right: 40%; padding-top: 36%; padding-bottom: 8%\">+</p>"	n/a	"1159"	n/a	n/a	n/a	n/a	n/a	n/a	n/a	n/a	n/a
n/a	"image-keyboard-response"	"139"	"331871"	"0.0-4.0-2.0-1.43"	"wo5rw2"	"600"	"1366"	"chrome"	"108.0.0"	"FALSE"	"Windows 10"	"60.51"	n/a	n/a	n/a	n/a	n/a	n/a	"Trial"	n/a	n/a	n/a	n/a	"NULL"	"NULL"	"NULL"	"561"	"stimuli/VerticalHorizontal_-28.75714_-0.0673.png"	"arrowright"	n/a	"VerticalHorizontal"	"arrowright"	"1166"	"TRUE"	"VerticalHorizontal"	"-28.75714000"	"-0.067300000"	"1"	"62"
n/a	"html-keyboard-response"	"140"	"333008"	"0.0-4.0-2.0-0.44"	"wo5rw2"	"600"	"1366"	"chrome"	"108.0.0"	"FALSE"	"Windows 10"	"60.51"	n/a	n/a	n/a	n/a	n/a	n/a	"fixation"	n/a	n/a	n/a	n/a	"NULL"	"NULL"	"NULL"	n/a	"<p style=\"color: black; font-size: 80px; padding-left: 48%; padding-right: 6%; padding-top: 43%; padding-bottom: 36%\">+</p>"	n/a	"1120"	n/a	n/a	n/a	n/a	n/a	n/a	n/a	n/a	n/a
n/a	"image-keyboard-response"	"141"	"333468"	"0.0-4.0-2.0-1.44"	"wo5rw2"	"600"	"1366"	"chrome"	"108.0.0"	"FALSE"	"Windows 10"	"60.51"	n/a	n/a	n/a	n/a	n/a	n/a	"Trial"	n/a	n/a	n/a	n/a	"NULL"	"NULL"	"NULL"	"458"	"stimuli/VerticalHorizontal_3.30000_0.16217.png"	"arrowleft"	n/a	"VerticalHorizontal"	"arrowleft"	"1137"	"TRUE"	"VerticalHorizontal"	"3.3000000000"	"0.1621700000"	"1"	"63"
n/a	"html-keyboard-response"	"142"	"334889"	"0.0-4.0-2.0-0.45"	"wo5rw2"	"600"	"1366"	"chrome"	"108.0.0"	"FALSE"	"Windows 10"	"60.51"	n/a	n/a	n/a	n/a	n/a	n/a	"fixation"	n/a	n/a	n/a	n/a	"NULL"	"NULL"	"NULL"	n/a	"<p style=\"color: black; font-size: 80px; padding-left: 45%; padding-right: 38%; padding-top: 30%; padding-bottom: 29%\">+</p>"	n/a	"1405"	n/a	n/a	n/a	n/a	n/a	n/a	n/a	n/a	n/a
n/a	"image-keyboard-response"	"143"	"335362"	"0.0-4.0-2.0-1.45"	"wo5rw2"	"600"	"1366"	"chrome"	"108.0.0"	"FALSE"	"Windows 10"	"60.51"	n/a	n/a	n/a	n/a	n/a	n/a	"Trial"	n/a	n/a	n/a	n/a	"NULL"	"NULL"	"NULL"	"472"	"stimuli/VerticalHorizontal_-28.75714_-0.16217.png"	"arrowright"	n/a	"VerticalHorizontal"	"arrowright"	"1421"	"TRUE"	"VerticalHorizontal"	"-28.75714000"	"-0.162170000"	"1"	"64"
n/a	"html-keyboard-response"	"144"	"336753"	"0.0-4.0-2.0-0.46"	"wo5rw2"	"600"	"1366"	"chrome"	"108.0.0"	"FALSE"	"Windows 10"	"60.51"	n/a	n/a	n/a	n/a	n/a	n/a	"fixation"	n/a	n/a	n/a	n/a	"NULL"	"NULL"	"NULL"	n/a	"<p style=\"color: black; font-size: 80px; padding-left: 16%; padding-right: 39%; padding-top: 28%; padding-bottom: 8%\">+</p>"	n/a	"1372"	n/a	n/a	n/a	n/a	n/a	n/a	n/a	n/a	n/a
n/a	"image-keyboard-response"	"145"	"337161"	"0.0-4.0-2.0-1.46"	"wo5rw2"	"600"	"1366"	"chrome"	"108.0.0"	"FALSE"	"Windows 10"	"60.51"	n/a	n/a	n/a	n/a	n/a	n/a	"Trial"	n/a	n/a	n/a	n/a	"NULL"	"NULL"	"NULL"	"408"	"stimuli/VerticalHorizontal_-20.27143_-0.2250.png"	"arrowright"	n/a	"VerticalHorizontal"	"arrowright"	"1391"	"TRUE"	"VerticalHorizontal"	"-20.27143000"	"-0.225000000"	"1"	"65"
n/a	"html-keyboard-response"	"146"	"338405"	"0.0-4.0-2.0-0.47"	"wo5rw2"	"600"	"1366"	"chrome"	"108.0.0"	"FALSE"	"Windows 10"	"60.51"	n/a	n/a	n/a	n/a	n/a	n/a	"fixation"	n/a	n/a	n/a	n/a	"NULL"	"NULL"	"NULL"	n/a	"<p style=\"color: black; font-size: 80px; padding-left: 5%; padding-right: 46%; padding-top: 46%; padding-bottom: 29%\">+</p>"	n/a	"1228"	n/a	n/a	n/a	n/a	n/a	n/a	n/a	n/a	n/a
n/a	"image-keyboard-response"	"147"	"338931"	"0.0-4.0-2.0-1.47"	"wo5rw2"	"600"	"1366"	"chrome"	"108.0.0"	"FALSE"	"Windows 10"	"60.51"	n/a	n/a	n/a	n/a	n/a	n/a	"Trial"	n/a	n/a	n/a	n/a	"NULL"	"NULL"	"NULL"	"525"	"stimuli/VerticalHorizontal_3.30000_-0.2250.png"	"arrowright"	n/a	"VerticalHorizontal"	"arrowright"	"1244"	"TRUE"	"VerticalHorizontal"	"3.3000000000"	"-0.225000000"	"1"	"66"
n/a	"html-keyboard-response"	"148"	"340438"	"0.0-4.0-2.0-0.48"	"wo5rw2"	"600"	"1366"	"chrome"	"108.0.0"	"FALSE"	"Windows 10"	"60.51"	n/a	n/a	n/a	n/a	n/a	n/a	"fixation"	n/a	n/a	n/a	n/a	"NULL"	"NULL"	"NULL"	n/a	"<p style=\"color: black; font-size: 80px; padding-left: 4%; padding-right: 4%; padding-top: 47%; padding-bottom: 31%\">+</p>"	n/a	"1499"	n/a	n/a	n/a	n/a	n/a	n/a	n/a	n/a	n/a
n/a	"image-keyboard-response"	"149"	"340850"	"0.0-4.0-2.0-1.48"	"wo5rw2"	"600"	"1366"	"chrome"	"108.0.0"	"FALSE"	"Windows 10"	"60.51"	n/a	n/a	n/a	n/a	n/a	n/a	"Trial"	n/a	n/a	n/a	n/a	"NULL"	"NULL"	"NULL"	"412"	"stimuli/VerticalHorizontal_-28.75714_0.06730.png"	"arrowleft"	n/a	"VerticalHorizontal"	"arrowleft"	"1507"	"TRUE"	"VerticalHorizontal"	"-28.75714000"	"0.0673000000"	"1"	"67"
n/a	"html-keyboard-response"	"150"	"341978"	"0.0-4.0-2.0-0.49"	"wo5rw2"	"600"	"1366"	"chrome"	"108.0.0"	"FALSE"	"Windows 10"	"60.51"	n/a	n/a	n/a	n/a	n/a	n/a	"fixation"	n/a	n/a	n/a	n/a	"NULL"	"NULL"	"NULL"	n/a	"<p style=\"color: black; font-size: 80px; padding-left: 19%; padding-right: 8%; padding-top: 24%; padding-bottom: 36%\">+</p>"	n/a	"1109"	n/a	n/a	n/a	n/a	n/a	n/a	n/a	n/a	n/a
n/a	"image-keyboard-response"	"151"	"342418"	"0.0-4.0-2.0-1.49"	"wo5rw2"	"600"	"1366"	"chrome"	"108.0.0"	"FALSE"	"Windows 10"	"60.51"	n/a	n/a	n/a	n/a	n/a	n/a	"Trial"	n/a	n/a	n/a	n/a	"NULL"	"NULL"	"NULL"	"440"	"stimuli/VerticalHorizontal_-28.75714_0.16217.png"	"arrowleft"	n/a	"VerticalHorizontal"	"arrowleft"	"1128"	"TRUE"	"VerticalHorizontal"	"-28.75714000"	"0.1621700000"	"1"	"68"
n/a	"html-keyboard-response"	"152"	"343880"	"0.0-4.0-2.0-0.50"	"wo5rw2"	"600"	"1366"	"chrome"	"108.0.0"	"FALSE"	"Windows 10"	"60.51"	n/a	n/a	n/a	n/a	n/a	n/a	"fixation"	n/a	n/a	n/a	n/a	"NULL"	"NULL"	"NULL"	n/a	"<p style=\"color: black; font-size: 80px; padding-left: 43%; padding-right: 13%; padding-top: 28%; padding-bottom: 19%\">+</p>"	n/a	"1445"	n/a	n/a	n/a	n/a	n/a	n/a	n/a	n/a	n/a
n/a	"image-keyboard-response"	"153"	"344681"	"0.0-4.0-2.0-1.50"	"wo5rw2"	"600"	"1366"	"chrome"	"108.0.0"	"FALSE"	"Windows 10"	"60.51"	n/a	n/a	n/a	n/a	n/a	n/a	"Trial"	n/a	n/a	n/a	n/a	"NULL"	"NULL"	"NULL"	"800"	"stimuli/VerticalHorizontal_11.78571_-0.16217.png"	"arrowright"	n/a	"VerticalHorizontal"	"arrowright"	"1462"	"TRUE"	"VerticalHorizontal"	"11.785710000"	"-0.162170000"	"1"	"69"
n/a	"html-keyboard-response"	"154"	"345801"	"0.0-4.0-2.0-0.51"	"wo5rw2"	"600"	"1366"	"chrome"	"108.0.0"	"FALSE"	"Windows 10"	"60.51"	n/a	n/a	n/a	n/a	n/a	n/a	"fixation"	n/a	n/a	n/a	n/a	"NULL"	"NULL"	"NULL"	n/a	"<p style=\"color: black; font-size: 80px; padding-left: 33%; padding-right: 30%; padding-top: 44%; padding-bottom: 44%\">+</p>"	n/a	"1100"	n/a	n/a	n/a	n/a	n/a	n/a	n/a	n/a	n/a
n/a	"image-keyboard-response"	"155"	"346336"	"0.0-4.0-2.0-1.51"	"wo5rw2"	"600"	"1366"	"chrome"	"108.0.0"	"FALSE"	"Windows 10"	"60.51"	n/a	n/a	n/a	n/a	n/a	n/a	"Trial"	n/a	n/a	n/a	n/a	"NULL"	"NULL"	"NULL"	"534"	"stimuli/VerticalHorizontal_28.75714_0.10960.png"	"arrowleft"	n/a	"VerticalHorizontal"	"arrowleft"	"1120"	"TRUE"	"VerticalHorizontal"	"28.757140000"	"0.1096000000"	"1"	"70"
n/a	"html-keyboard-response"	"156"	"347388"	"0.0-4.0-2.0-0.52"	"wo5rw2"	"600"	"1366"	"chrome"	"108.0.0"	"FALSE"	"Windows 10"	"60.51"	n/a	n/a	n/a	n/a	n/a	n/a	"fixation"	n/a	n/a	n/a	n/a	"NULL"	"NULL"	"NULL"	n/a	"<p style=\"color: black; font-size: 80px; padding-left: 10%; padding-right: 15%; padding-top: 29%; padding-bottom: 4%\">+</p>"	n/a	"1042"	n/a	n/a	n/a	n/a	n/a	n/a	n/a	n/a	n/a
n/a	"image-keyboard-response"	"157"	"347904"	"0.0-4.0-2.0-1.52"	"wo5rw2"	"600"	"1366"	"chrome"	"108.0.0"	"FALSE"	"Windows 10"	"60.51"	n/a	n/a	n/a	n/a	n/a	n/a	"Trial"	n/a	n/a	n/a	n/a	"NULL"	"NULL"	"NULL"	"515"	"stimuli/VerticalHorizontal_11.78571_-0.1096.png"	"arrowright"	n/a	"VerticalHorizontal"	"arrowright"	"1052"	"TRUE"	"VerticalHorizontal"	"11.785710000"	"-0.109600000"	"1"	"71"
n/a	"html-keyboard-response"	"158"	"349327"	"0.0-4.0-2.0-0.53"	"wo5rw2"	"600"	"1366"	"chrome"	"108.0.0"	"FALSE"	"Windows 10"	"60.51"	n/a	n/a	n/a	n/a	n/a	n/a	"fixation"	n/a	n/a	n/a	n/a	"NULL"	"NULL"	"NULL"	n/a	"<p style=\"color: black; font-size: 80px; padding-left: 18%; padding-right: 1%; padding-top: 4%; padding-bottom: 22%\">+</p>"	n/a	"1410"	n/a	n/a	n/a	n/a	n/a	n/a	n/a	n/a	n/a
n/a	"image-keyboard-response"	"159"	"349744"	"0.0-4.0-2.0-1.53"	"wo5rw2"	"600"	"1366"	"chrome"	"108.0.0"	"FALSE"	"Windows 10"	"60.51"	n/a	n/a	n/a	n/a	n/a	n/a	"Trial"	n/a	n/a	n/a	n/a	"NULL"	"NULL"	"NULL"	"415"	"stimuli/VerticalHorizontal_20.27143_0.16217.png"	"arrowright"	n/a	"VerticalHorizontal"	"arrowleft"	"1423"	"FALSE"	"VerticalHorizontal"	"20.271430000"	"0.1621700000"	"1"	"72"
n/a	"html-keyboard-response"	"160"	"351127"	"0.0-4.0-2.0-0.54"	"wo5rw2"	"600"	"1366"	"chrome"	"108.0.0"	"FALSE"	"Windows 10"	"60.51"	n/a	n/a	n/a	n/a	n/a	n/a	"fixation"	n/a	n/a	n/a	n/a	"NULL"	"NULL"	"NULL"	n/a	"<p style=\"color: black; font-size: 80px; padding-left: 33%; padding-right: 16%; padding-top: 15%; padding-bottom: 5%\">+</p>"	n/a	"1373"	n/a	n/a	n/a	n/a	n/a	n/a	n/a	n/a	n/a
n/a	"image-keyboard-response"	"161"	"351839"	"0.0-4.0-2.0-1.54"	"wo5rw2"	"600"	"1366"	"chrome"	"108.0.0"	"FALSE"	"Windows 10"	"60.51"	n/a	n/a	n/a	n/a	n/a	n/a	"Trial"	n/a	n/a	n/a	n/a	"NULL"	"NULL"	"NULL"	"711"	"stimuli/VerticalHorizontal_20.27143_-0.1096.png"	"arrowright"	n/a	"VerticalHorizontal"	"arrowright"	"1383"	"TRUE"	"VerticalHorizontal"	"20.271430000"	"-0.109600000"	"1"	"73"
n/a	"html-keyboard-response"	"162"	"353053"	"0.0-4.0-2.0-0.55"	"wo5rw2"	"600"	"1366"	"chrome"	"108.0.0"	"FALSE"	"Windows 10"	"60.51"	n/a	n/a	n/a	n/a	n/a	n/a	"fixation"	n/a	n/a	n/a	n/a	"NULL"	"NULL"	"NULL"	n/a	"<p style=\"color: black; font-size: 80px; padding-left: 5%; padding-right: 11%; padding-top: 22%; padding-bottom: 48%\">+</p>"	n/a	"1209"	n/a	n/a	n/a	n/a	n/a	n/a	n/a	n/a	n/a
n/a	"image-keyboard-response"	"163"	"353594"	"0.0-4.0-2.0-1.55"	"wo5rw2"	"600"	"1366"	"chrome"	"108.0.0"	"FALSE"	"Windows 10"	"60.51"	n/a	n/a	n/a	n/a	n/a	n/a	"Trial"	n/a	n/a	n/a	n/a	"NULL"	"NULL"	"NULL"	"539"	"stimuli/VerticalHorizontal_3.30000_-0.1096.png"	"arrowright"	n/a	"VerticalHorizontal"	"arrowright"	"1214"	"TRUE"	"VerticalHorizontal"	"3.3000000000"	"-0.109600000"	"1"	"74"
n/a	"html-keyboard-response"	"164"	"354965"	"0.0-4.0-2.0-0.56"	"wo5rw2"	"600"	"1366"	"chrome"	"108.0.0"	"FALSE"	"Windows 10"	"60.51"	n/a	n/a	n/a	n/a	n/a	n/a	"fixation"	n/a	n/a	n/a	n/a	"NULL"	"NULL"	"NULL"	n/a	"<p style=\"color: black; font-size: 80px; padding-left: 22%; padding-right: 5%; padding-top: 36%; padding-bottom: 4%\">+</p>"	n/a	"1354"	n/a	n/a	n/a	n/a	n/a	n/a	n/a	n/a	n/a
n/a	"image-keyboard-response"	"165"	"355523"	"0.0-4.0-2.0-1.56"	"wo5rw2"	"600"	"1366"	"chrome"	"108.0.0"	"FALSE"	"Windows 10"	"60.51"	n/a	n/a	n/a	n/a	n/a	n/a	"Trial"	n/a	n/a	n/a	n/a	"NULL"	"NULL"	"NULL"	"557"	"stimuli/VerticalHorizontal_11.78571_0.06730.png"	"arrowleft"	n/a	"VerticalHorizontal"	"arrowleft"	"1371"	"TRUE"	"VerticalHorizontal"	"11.785710000"	"0.0673000000"	"1"	"75"
n/a	"html-keyboard-response"	"166"	"356810"	"0.0-4.0-2.0-0.57"	"wo5rw2"	"600"	"1366"	"chrome"	"108.0.0"	"FALSE"	"Windows 10"	"60.51"	n/a	n/a	n/a	n/a	n/a	n/a	"fixation"	n/a	n/a	n/a	n/a	"NULL"	"NULL"	"NULL"	n/a	"<p style=\"color: black; font-size: 80px; padding-left: 6%; padding-right: 29%; padding-top: 37%; padding-bottom: 36%\">+</p>"	n/a	"1266"	n/a	n/a	n/a	n/a	n/a	n/a	n/a	n/a	n/a
n/a	"image-keyboard-response"	"167"	"357205"	"0.0-4.0-2.0-1.57"	"wo5rw2"	"600"	"1366"	"chrome"	"108.0.0"	"FALSE"	"Windows 10"	"60.51"	n/a	n/a	n/a	n/a	n/a	n/a	"Trial"	n/a	n/a	n/a	n/a	"NULL"	"NULL"	"NULL"	"394"	"stimuli/VerticalHorizontal_28.75714_0.06730.png"	"arrowright"	n/a	"VerticalHorizontal"	"arrowleft"	"1287"	"FALSE"	"VerticalHorizontal"	"28.757140000"	"0.0673000000"	"1"	"76"
n/a	"html-keyboard-response"	"168"	"358525"	"0.0-4.0-2.0-0.58"	"wo5rw2"	"600"	"1366"	"chrome"	"108.0.0"	"FALSE"	"Windows 10"	"60.51"	n/a	n/a	n/a	n/a	n/a	n/a	"fixation"	n/a	n/a	n/a	n/a	"NULL"	"NULL"	"NULL"	n/a	"<p style=\"color: black; font-size: 80px; padding-left: 30%; padding-right: 36%; padding-top: 33%; padding-bottom: 14%\">+</p>"	n/a	"1312"	n/a	n/a	n/a	n/a	n/a	n/a	n/a	n/a	n/a
n/a	"image-keyboard-response"	"169"	"359058"	"0.0-4.0-2.0-1.58"	"wo5rw2"	"600"	"1366"	"chrome"	"108.0.0"	"FALSE"	"Windows 10"	"60.51"	n/a	n/a	n/a	n/a	n/a	n/a	"Trial"	n/a	n/a	n/a	n/a	"NULL"	"NULL"	"NULL"	"532"	"stimuli/VerticalHorizontal_3.30000_-0.16217.png"	"arrowright"	n/a	"VerticalHorizontal"	"arrowright"	"1320"	"TRUE"	"VerticalHorizontal"	"3.3000000000"	"-0.162170000"	"1"	"77"
n/a	"html-keyboard-response"	"170"	"360144"	"0.0-4.0-2.0-0.59"	"wo5rw2"	"600"	"1366"	"chrome"	"108.0.0"	"FALSE"	"Windows 10"	"60.51"	n/a	n/a	n/a	n/a	n/a	n/a	"fixation"	n/a	n/a	n/a	n/a	"NULL"	"NULL"	"NULL"	n/a	"<p style=\"color: black; font-size: 80px; padding-left: 23%; padding-right: 6%; padding-top: 26%; padding-bottom: 46%\">+</p>"	n/a	"1073"	n/a	n/a	n/a	n/a	n/a	n/a	n/a	n/a	n/a
n/a	"image-keyboard-response"	"171"	"360680"	"0.0-4.0-2.0-1.59"	"wo5rw2"	"600"	"1366"	"chrome"	"108.0.0"	"FALSE"	"Windows 10"	"60.51"	n/a	n/a	n/a	n/a	n/a	n/a	"Trial"	n/a	n/a	n/a	n/a	"NULL"	"NULL"	"NULL"	"535"	"stimuli/VerticalHorizontal_-20.27143_-0.0673.png"	"arrowright"	n/a	"VerticalHorizontal"	"arrowright"	"1086"	"TRUE"	"VerticalHorizontal"	"-20.27143000"	"-0.067300000"	"1"	"78"
n/a	"html-keyboard-response"	"172"	"361929"	"0.0-4.0-2.0-0.60"	"wo5rw2"	"600"	"1366"	"chrome"	"108.0.0"	"FALSE"	"Windows 10"	"60.51"	n/a	n/a	n/a	n/a	n/a	n/a	"fixation"	n/a	n/a	n/a	n/a	"NULL"	"NULL"	"NULL"	n/a	"<p style=\"color: black; font-size: 80px; padding-left: 35%; padding-right: 22%; padding-top: 16%; padding-bottom: 13%\">+</p>"	n/a	"1238"	n/a	n/a	n/a	n/a	n/a	n/a	n/a	n/a	n/a
n/a	"image-keyboard-response"	"173"	"362364"	"0.0-4.0-2.0-1.60"	"wo5rw2"	"600"	"1366"	"chrome"	"108.0.0"	"FALSE"	"Windows 10"	"60.51"	n/a	n/a	n/a	n/a	n/a	n/a	"Trial"	n/a	n/a	n/a	n/a	"NULL"	"NULL"	"NULL"	"434"	"stimuli/VerticalHorizontal_-3.3000_0.16217.png"	"arrowleft"	n/a	"VerticalHorizontal"	"arrowleft"	"1249"	"TRUE"	"VerticalHorizontal"	"-3.300000000"	"0.1621700000"	"1"	"79"
n/a	"html-keyboard-response"	"174"	"363710"	"0.0-4.0-2.0-0.61"	"wo5rw2"	"600"	"1366"	"chrome"	"108.0.0"	"FALSE"	"Windows 10"	"60.51"	n/a	n/a	n/a	n/a	n/a	n/a	"fixation"	n/a	n/a	n/a	n/a	"NULL"	"NULL"	"NULL"	n/a	"<p style=\"color: black; font-size: 80px; padding-left: 29%; padding-right: 15%; padding-top: 19%; padding-bottom: 22%\">+</p>"	n/a	"1336"	n/a	n/a	n/a	n/a	n/a	n/a	n/a	n/a	n/a
n/a	"image-keyboard-response"	"175"	"364182"	"0.0-4.0-2.0-1.61"	"wo5rw2"	"600"	"1366"	"chrome"	"108.0.0"	"FALSE"	"Windows 10"	"60.51"	n/a	n/a	n/a	n/a	n/a	n/a	"Trial"	n/a	n/a	n/a	n/a	"NULL"	"NULL"	"NULL"	"471"	"stimuli/VerticalHorizontal_-3.3000_-0.2250.png"	"arrowright"	n/a	"VerticalHorizontal"	"arrowright"	"1346"	"TRUE"	"VerticalHorizontal"	"-3.300000000"	"-0.225000000"	"1"	"80"
n/a	"html-keyboard-response"	"176"	"365459"	"0.0-4.0-2.0-0.62"	"wo5rw2"	"600"	"1366"	"chrome"	"108.0.0"	"FALSE"	"Windows 10"	"60.51"	n/a	n/a	n/a	n/a	n/a	n/a	"fixation"	n/a	n/a	n/a	n/a	"NULL"	"NULL"	"NULL"	n/a	"<p style=\"color: black; font-size: 80px; padding-left: 12%; padding-right: 45%; padding-top: 25%; padding-bottom: 40%\">+</p>"	n/a	"1264"	n/a	n/a	n/a	n/a	n/a	n/a	n/a	n/a	n/a
n/a	"image-keyboard-response"	"177"	"365904"	"0.0-4.0-2.0-1.62"	"wo5rw2"	"600"	"1366"	"chrome"	"108.0.0"	"FALSE"	"Windows 10"	"60.51"	n/a	n/a	n/a	n/a	n/a	n/a	"Trial"	n/a	n/a	n/a	n/a	"NULL"	"NULL"	"NULL"	"444"	"stimuli/VerticalHorizontal_-20.27143_0.06730.png"	"arrowleft"	n/a	"VerticalHorizontal"	"arrowleft"	"1277"	"TRUE"	"VerticalHorizontal"	"-20.27143000"	"0.0673000000"	"1"	"81"
n/a	"html-keyboard-response"	"178"	"367089"	"0.0-4.0-2.0-0.63"	"wo5rw2"	"600"	"1366"	"chrome"	"108.0.0"	"FALSE"	"Windows 10"	"60.51"	n/a	n/a	n/a	n/a	n/a	n/a	"fixation"	n/a	n/a	n/a	n/a	"NULL"	"NULL"	"NULL"	n/a	"<p style=\"color: black; font-size: 80px; padding-left: 36%; padding-right: 11%; padding-top: 13%; padding-bottom: 1%\">+</p>"	n/a	"1175"	n/a	n/a	n/a	n/a	n/a	n/a	n/a	n/a	n/a
n/a	"image-keyboard-response"	"179"	"367619"	"0.0-4.0-2.0-1.63"	"wo5rw2"	"600"	"1366"	"chrome"	"108.0.0"	"FALSE"	"Windows 10"	"60.51"	n/a	n/a	n/a	n/a	n/a	n/a	"Trial"	n/a	n/a	n/a	n/a	"NULL"	"NULL"	"NULL"	"529"	"stimuli/VerticalHorizontal_3.30000_0.06730.png"	"arrowleft"	n/a	"VerticalHorizontal"	"arrowleft"	"1185"	"TRUE"	"VerticalHorizontal"	"3.3000000000"	"0.0673000000"	"1"	"82"
n/a	"html-button-response"	"180"	"385478"	"0.0-4.0-3.0"	"wo5rw2"	"600"	"1366"	"chrome"	"108.0.0"	"FALSE"	"Windows 10"	"60.51"	n/a	n/a	n/a	n/a	n/a	n/a	"block_results"	n/a	n/a	n/a	n/a	"NULL"	"NULL"	"NULL"	"17854"	"<p>Your score for this illusion is <p style=\"color: black; font-size: 48px; font-weight: bold;\">80.8 %</p><hr><p>Can you do better in the next illusion?</p>"	"0"	n/a	n/a	n/a	n/a	n/a	n/a	n/a	n/a	n/a	n/a
"TRUE"	"preload"	"181"	"385667"	"0.0-5.0-0.0"	"wo5rw2"	"600"	"1366"	"chrome"	"108.0.0"	"FALSE"	"Windows 10"	"60.51"	n/a	n/a	n/a	n/a	n/a	n/a	n/a	n/a	n/a	n/a	"FALSE"	"list()"	"list()"	"list()"	n/a	n/a	n/a	n/a	n/a	n/a	n/a	n/a	n/a	n/a	n/a	n/a	n/a
n/a	"html-keyboard-response"	"182"	"388377"	"0.0-5.0-1.0"	"wo5rw2"	"600"	"1366"	"chrome"	"108.0.0"	"FALSE"	"Windows 10"	"60.51"	n/a	n/a	n/a	n/a	n/a	n/a	n/a	n/a	n/a	n/a	n/a	"NULL"	"NULL"	"NULL"	"2710"	"<p><b>Part 2/6</b></p><p>In this part, two horizontal red lines will appear one above the other.</p><p>Your task is to select which <b>line is longer</b> in length as fast as you can, without making errors.</p><p>Don't get distracted by the surrounding black arrows at the end of the red lines!</p><p>Press <b>the UP or the DOWN arrow</b> to indicate where is the longer <b>red line.</b></p><div style='float: center'><img src='materials/instructions/MullerLyer_Demo.png' height='300'></img><p><img src='utils/answer/answer_updown_keyboard.PNG' height='150'></img></p><p class='small'>In this example, the correct answer is the <b>UP arrow</b>.</p></div><p>Are you ready? <b>Press ENTER to start</b></p>"	"enter"	n/a	n/a	n/a	n/a	n/a	n/a	n/a	n/a	n/a	n/a
n/a	"html-keyboard-response"	"183"	"390254"	"0.0-5.0-2.0-0.0"	"wo5rw2"	"600"	"1366"	"chrome"	"108.0.0"	"FALSE"	"Windows 10"	"60.51"	n/a	n/a	n/a	n/a	n/a	n/a	"fixation"	n/a	n/a	n/a	n/a	"NULL"	"NULL"	"NULL"	n/a	"<p style=\"color: black; font-size: 80px; padding-left: 44%; padding-right: 41%; padding-top: 34%; padding-bottom: 29%\">+</p>"	n/a	"1341"	n/a	n/a	n/a	n/a	n/a	n/a	n/a	n/a	n/a
n/a	"image-keyboard-response"	"184"	"391086"	"0.0-5.0-2.0-1.0"	"wo5rw2"	"600"	"1366"	"chrome"	"108.0.0"	"FALSE"	"Windows 10"	"60.51"	n/a	n/a	n/a	n/a	n/a	n/a	"Trial"	n/a	n/a	n/a	n/a	"NULL"	"NULL"	"NULL"	"831"	"stimuli/MullerLyer_8.21429_-0.3500.png"	"arrowdown"	n/a	"MullerLyer"	"arrowdown"	"1877"	"TRUE"	"MullerLyer"	"8.2142900000"	"-0.350000000"	"2"	"1"
n/a	"html-keyboard-response"	"185"	"392118"	"0.0-5.0-2.0-0.1"	"wo5rw2"	"600"	"1366"	"chrome"	"108.0.0"	"FALSE"	"Windows 10"	"60.51"	n/a	n/a	n/a	n/a	n/a	n/a	"fixation"	n/a	n/a	n/a	n/a	"NULL"	"NULL"	"NULL"	n/a	"<p style=\"color: black; font-size: 80px; padding-left: 3%; padding-right: 29%; padding-top: 10%; padding-bottom: 22%\">+</p>"	n/a	"1024"	n/a	n/a	n/a	n/a	n/a	n/a	n/a	n/a	n/a
n/a	"image-keyboard-response"	"186"	"393025"	"0.0-5.0-2.0-1.1"	"wo5rw2"	"600"	"1366"	"chrome"	"108.0.0"	"FALSE"	"Windows 10"	"60.51"	n/a	n/a	n/a	n/a	n/a	n/a	"Trial"	n/a	n/a	n/a	n/a	"NULL"	"NULL"	"NULL"	"905"	"stimuli/MullerLyer_14.12857_-0.07627.png"	"arrowup"	n/a	"MullerLyer"	"arrowdown"	"1032"	"FALSE"	"MullerLyer"	"14.128570000"	"-0.076270000"	"2"	"2"
n/a	"html-keyboard-response"	"187"	"394305"	"0.0-5.0-2.0-0.2"	"wo5rw2"	"600"	"1366"	"chrome"	"108.0.0"	"FALSE"	"Windows 10"	"60.51"	n/a	n/a	n/a	n/a	n/a	n/a	"fixation"	n/a	n/a	n/a	n/a	"NULL"	"NULL"	"NULL"	n/a	"<p style=\"color: black; font-size: 80px; padding-left: 9%; padding-right: 26%; padding-top: 40%; padding-bottom: 7%\">+</p>"	n/a	"1275"	n/a	n/a	n/a	n/a	n/a	n/a	n/a	n/a	n/a
n/a	"image-keyboard-response"	"188"	"395063"	"0.0-5.0-2.0-1.2"	"wo5rw2"	"600"	"1366"	"chrome"	"108.0.0"	"FALSE"	"Windows 10"	"60.51"	n/a	n/a	n/a	n/a	n/a	n/a	"Trial"	n/a	n/a	n/a	n/a	"NULL"	"NULL"	"NULL"	"757"	"stimuli/MullerLyer_8.21429_0.14541.png"	"arrowdown"	n/a	"MullerLyer"	"arrowup"	"1280"	"FALSE"	"MullerLyer"	"8.2142900000"	"0.1454100000"	"2"	"3"
n/a	"html-keyboard-response"	"189"	"396429"	"0.0-5.0-2.0-0.3"	"wo5rw2"	"600"	"1366"	"chrome"	"108.0.0"	"FALSE"	"Windows 10"	"60.51"	n/a	n/a	n/a	n/a	n/a	n/a	"fixation"	n/a	n/a	n/a	n/a	"NULL"	"NULL"	"NULL"	n/a	"<p style=\"color: black; font-size: 80px; padding-left: 33%; padding-right: 22%; padding-top: 41%; padding-bottom: 50%\">+</p>"	n/a	"1354"	n/a	n/a	n/a	n/a	n/a	n/a	n/a	n/a	n/a
n/a	"image-keyboard-response"	"190"	"397046"	"0.0-5.0-2.0-1.3"	"wo5rw2"	"600"	"1366"	"chrome"	"108.0.0"	"FALSE"	"Windows 10"	"60.51"	n/a	n/a	n/a	n/a	n/a	n/a	"Trial"	n/a	n/a	n/a	n/a	"NULL"	"NULL"	"NULL"	"617"	"stimuli/MullerLyer_-14.12857_0.23665.png"	"arrowup"	n/a	"MullerLyer"	"arrowup"	"1366"	"TRUE"	"MullerLyer"	"-14.12857000"	"0.2366500000"	"2"	"4"
n/a	"html-keyboard-response"	"191"	"398558"	"0.0-5.0-2.0-0.4"	"wo5rw2"	"600"	"1366"	"chrome"	"108.0.0"	"FALSE"	"Windows 10"	"60.51"	n/a	n/a	n/a	n/a	n/a	n/a	"fixation"	n/a	n/a	n/a	n/a	"NULL"	"NULL"	"NULL"	n/a	"<p style=\"color: black; font-size: 80px; padding-left: 2%; padding-right: 11%; padding-top: 19%; padding-bottom: 45%\">+</p>"	n/a	"1492"	n/a	n/a	n/a	n/a	n/a	n/a	n/a	n/a	n/a
n/a	"image-keyboard-response"	"192"	"399245"	"0.0-5.0-2.0-1.4"	"wo5rw2"	"600"	"1366"	"chrome"	"108.0.0"	"FALSE"	"Windows 10"	"60.51"	n/a	n/a	n/a	n/a	n/a	n/a	"Trial"	n/a	n/a	n/a	n/a	"NULL"	"NULL"	"NULL"	"686"	"stimuli/MullerLyer_-2.3000_0.23665.png"	"arrowup"	n/a	"MullerLyer"	"arrowup"	"1512"	"TRUE"	"MullerLyer"	"-2.300000000"	"0.2366500000"	"2"	"5"
n/a	"html-keyboard-response"	"193"	"400567"	"0.0-5.0-2.0-0.5"	"wo5rw2"	"600"	"1366"	"chrome"	"108.0.0"	"FALSE"	"Windows 10"	"60.51"	n/a	n/a	n/a	n/a	n/a	n/a	"fixation"	n/a	n/a	n/a	n/a	"NULL"	"NULL"	"NULL"	n/a	"<p style=\"color: black; font-size: 80px; padding-left: 15%; padding-right: 2%; padding-top: 35%; padding-bottom: 13%\">+</p>"	n/a	"1313"	n/a	n/a	n/a	n/a	n/a	n/a	n/a	n/a	n/a
n/a	"image-keyboard-response"	"194"	"401298"	"0.0-5.0-2.0-1.5"	"wo5rw2"	"600"	"1366"	"chrome"	"108.0.0"	"FALSE"	"Windows 10"	"60.51"	n/a	n/a	n/a	n/a	n/a	n/a	"Trial"	n/a	n/a	n/a	n/a	"NULL"	"NULL"	"NULL"	"730"	"stimuli/MullerLyer_-14.12857_-0.14541.png"	"arrowdown"	n/a	"MullerLyer"	"arrowdown"	"1322"	"TRUE"	"MullerLyer"	"-14.12857000"	"-0.145410000"	"2"	"6"
n/a	"html-keyboard-response"	"195"	"402570"	"0.0-5.0-2.0-0.6"	"wo5rw2"	"600"	"1366"	"chrome"	"108.0.0"	"FALSE"	"Windows 10"	"60.51"	n/a	n/a	n/a	n/a	n/a	n/a	"fixation"	n/a	n/a	n/a	n/a	"NULL"	"NULL"	"NULL"	n/a	"<p style=\"color: black; font-size: 80px; padding-left: 46%; padding-right: 30%; padding-top: 26%; padding-bottom: 4%\">+</p>"	n/a	"1261"	n/a	n/a	n/a	n/a	n/a	n/a	n/a	n/a	n/a
n/a	"image-keyboard-response"	"196"	"403201"	"0.0-5.0-2.0-1.6"	"wo5rw2"	"600"	"1366"	"chrome"	"108.0.0"	"FALSE"	"Windows 10"	"60.51"	n/a	n/a	n/a	n/a	n/a	n/a	"Trial"	n/a	n/a	n/a	n/a	"NULL"	"NULL"	"NULL"	"629"	"stimuli/MullerLyer_-2.3000_-0.3500.png"	"arrowdown"	n/a	"MullerLyer"	"arrowdown"	"1272"	"TRUE"	"MullerLyer"	"-2.300000000"	"-0.350000000"	"2"	"7"
n/a	"html-keyboard-response"	"197"	"404412"	"0.0-5.0-2.0-0.7"	"wo5rw2"	"600"	"1366"	"chrome"	"108.0.0"	"FALSE"	"Windows 10"	"60.51"	n/a	n/a	n/a	n/a	n/a	n/a	"fixation"	n/a	n/a	n/a	n/a	"NULL"	"NULL"	"NULL"	n/a	"<p style=\"color: black; font-size: 80px; padding-left: 20%; padding-right: 2%; padding-top: 36%; padding-bottom: 31%\">+</p>"	n/a	"1198"	n/a	n/a	n/a	n/a	n/a	n/a	n/a	n/a	n/a
n/a	"image-keyboard-response"	"198"	"405078"	"0.0-5.0-2.0-1.7"	"wo5rw2"	"600"	"1366"	"chrome"	"108.0.0"	"FALSE"	"Windows 10"	"60.51"	n/a	n/a	n/a	n/a	n/a	n/a	"Trial"	n/a	n/a	n/a	n/a	"NULL"	"NULL"	"NULL"	"665"	"stimuli/MullerLyer_20.04286_-0.14541.png"	"arrowup"	n/a	"MullerLyer"	"arrowdown"	"1211"	"FALSE"	"MullerLyer"	"20.042860000"	"-0.145410000"	"2"	"8"
n/a	"html-keyboard-response"	"199"	"406304"	"0.0-5.0-2.0-0.8"	"wo5rw2"	"600"	"1366"	"chrome"	"108.0.0"	"FALSE"	"Windows 10"	"60.51"	n/a	n/a	n/a	n/a	n/a	n/a	"fixation"	n/a	n/a	n/a	n/a	"NULL"	"NULL"	"NULL"	n/a	"<p style=\"color: black; font-size: 80px; padding-left: 44%; padding-right: 36%; padding-top: 22%; padding-bottom: 6%\">+</p>"	n/a	"1214"	n/a	n/a	n/a	n/a	n/a	n/a	n/a	n/a	n/a
n/a	"image-keyboard-response"	"200"	"406900"	"0.0-5.0-2.0-1.8"	"wo5rw2"	"600"	"1366"	"chrome"	"108.0.0"	"FALSE"	"Windows 10"	"60.51"	n/a	n/a	n/a	n/a	n/a	n/a	"Trial"	n/a	n/a	n/a	n/a	"NULL"	"NULL"	"NULL"	"596"	"stimuli/MullerLyer_-2.3000_-0.23665.png"	"arrowdown"	n/a	"MullerLyer"	"arrowdown"	"1226"	"TRUE"	"MullerLyer"	"-2.300000000"	"-0.236650000"	"2"	"9"
n/a	"html-keyboard-response"	"201"	"408007"	"0.0-5.0-2.0-0.9"	"wo5rw2"	"600"	"1366"	"chrome"	"108.0.0"	"FALSE"	"Windows 10"	"60.51"	n/a	n/a	n/a	n/a	n/a	n/a	"fixation"	n/a	n/a	n/a	n/a	"NULL"	"NULL"	"NULL"	n/a	"<p style=\"color: black; font-size: 80px; padding-left: 41%; padding-right: 33%; padding-top: 2%; padding-bottom: 2%\">+</p>"	n/a	"1096"	n/a	n/a	n/a	n/a	n/a	n/a	n/a	n/a	n/a
n/a	"image-keyboard-response"	"202"	"408712"	"0.0-5.0-2.0-1.9"	"wo5rw2"	"600"	"1366"	"chrome"	"108.0.0"	"FALSE"	"Windows 10"	"60.51"	n/a	n/a	n/a	n/a	n/a	n/a	"Trial"	n/a	n/a	n/a	n/a	"NULL"	"NULL"	"NULL"	"704"	"stimuli/MullerLyer_-14.12857_-0.3500.png"	"arrowdown"	n/a	"MullerLyer"	"arrowdown"	"1107"	"TRUE"	"MullerLyer"	"-14.12857000"	"-0.350000000"	"2"	"10"
n/a	"html-keyboard-response"	"203"	"410163"	"0.0-5.0-2.0-0.10"	"wo5rw2"	"600"	"1366"	"chrome"	"108.0.0"	"FALSE"	"Windows 10"	"60.51"	n/a	n/a	n/a	n/a	n/a	n/a	"fixation"	n/a	n/a	n/a	n/a	"NULL"	"NULL"	"NULL"	n/a	"<p style=\"color: black; font-size: 80px; padding-left: 23%; padding-right: 42%; padding-top: 8%; padding-bottom: 42%\">+</p>"	n/a	"1437"	n/a	n/a	n/a	n/a	n/a	n/a	n/a	n/a	n/a
n/a	"image-keyboard-response"	"204"	"411014"	"0.0-5.0-2.0-1.10"	"wo5rw2"	"600"	"1366"	"chrome"	"108.0.0"	"FALSE"	"Windows 10"	"60.51"	n/a	n/a	n/a	n/a	n/a	n/a	"Trial"	n/a	n/a	n/a	n/a	"NULL"	"NULL"	"NULL"	"850"	"stimuli/MullerLyer_14.12857_-0.14541.png"	"arrowup"	n/a	"MullerLyer"	"arrowdown"	"1451"	"FALSE"	"MullerLyer"	"14.128570000"	"-0.145410000"	"2"	"11"
n/a	"html-keyboard-response"	"205"	"412272"	"0.0-5.0-2.0-0.11"	"wo5rw2"	"600"	"1366"	"chrome"	"108.0.0"	"FALSE"	"Windows 10"	"60.51"	n/a	n/a	n/a	n/a	n/a	n/a	"fixation"	n/a	n/a	n/a	n/a	"NULL"	"NULL"	"NULL"	n/a	"<p style=\"color: black; font-size: 80px; padding-left: 1%; padding-right: 42%; padding-top: 39%; padding-bottom: 10%\">+</p>"	n/a	"1246"	n/a	n/a	n/a	n/a	n/a	n/a	n/a	n/a	n/a
n/a	"image-keyboard-response"	"206"	"412968"	"0.0-5.0-2.0-1.11"	"wo5rw2"	"600"	"1366"	"chrome"	"108.0.0"	"FALSE"	"Windows 10"	"60.51"	n/a	n/a	n/a	n/a	n/a	n/a	"Trial"	n/a	n/a	n/a	n/a	"NULL"	"NULL"	"NULL"	"695"	"stimuli/MullerLyer_-2.3000_0.14541.png"	"arrowup"	n/a	"MullerLyer"	"arrowup"	"1258"	"TRUE"	"MullerLyer"	"-2.300000000"	"0.1454100000"	"2"	"12"
n/a	"html-keyboard-response"	"207"	"414119"	"0.0-5.0-2.0-0.12"	"wo5rw2"	"600"	"1366"	"chrome"	"108.0.0"	"FALSE"	"Windows 10"	"60.51"	n/a	n/a	n/a	n/a	n/a	n/a	"fixation"	n/a	n/a	n/a	n/a	"NULL"	"NULL"	"NULL"	n/a	"<p style=\"color: black; font-size: 80px; padding-left: 17%; padding-right: 24%; padding-top: 3%; padding-bottom: 18%\">+</p>"	n/a	"1133"	n/a	n/a	n/a	n/a	n/a	n/a	n/a	n/a	n/a
n/a	"image-keyboard-response"	"208"	"414922"	"0.0-5.0-2.0-1.12"	"wo5rw2"	"600"	"1366"	"chrome"	"108.0.0"	"FALSE"	"Windows 10"	"60.51"	n/a	n/a	n/a	n/a	n/a	n/a	"Trial"	n/a	n/a	n/a	n/a	"NULL"	"NULL"	"NULL"	"802"	"stimuli/MullerLyer_20.04286_0.35000.png"	"arrowup"	n/a	"MullerLyer"	"arrowup"	"1151"	"TRUE"	"MullerLyer"	"20.042860000"	"0.3500000000"	"2"	"13"
n/a	"html-keyboard-response"	"209"	"416391"	"0.0-5.0-2.0-0.13"	"wo5rw2"	"600"	"1366"	"chrome"	"108.0.0"	"FALSE"	"Windows 10"	"60.51"	n/a	n/a	n/a	n/a	n/a	n/a	"fixation"	n/a	n/a	n/a	n/a	"NULL"	"NULL"	"NULL"	n/a	"<p style=\"color: black; font-size: 80px; padding-left: 30%; padding-right: 12%; padding-top: 15%; padding-bottom: 31%\">+</p>"	n/a	"1451"	n/a	n/a	n/a	n/a	n/a	n/a	n/a	n/a	n/a
n/a	"image-keyboard-response"	"210"	"417124"	"0.0-5.0-2.0-1.13"	"wo5rw2"	"600"	"1366"	"chrome"	"108.0.0"	"FALSE"	"Windows 10"	"60.51"	n/a	n/a	n/a	n/a	n/a	n/a	"Trial"	n/a	n/a	n/a	n/a	"NULL"	"NULL"	"NULL"	"733"	"stimuli/MullerLyer_-2.3000_0.07627.png"	"arrowup"	n/a	"MullerLyer"	"arrowup"	"1469"	"TRUE"	"MullerLyer"	"-2.300000000"	"0.0762700000"	"2"	"14"
n/a	"html-keyboard-response"	"211"	"418377"	"0.0-5.0-2.0-0.14"	"wo5rw2"	"600"	"1366"	"chrome"	"108.0.0"	"FALSE"	"Windows 10"	"60.51"	n/a	n/a	n/a	n/a	n/a	n/a	"fixation"	n/a	n/a	n/a	n/a	"NULL"	"NULL"	"NULL"	n/a	"<p style=\"color: black; font-size: 80px; padding-left: 23%; padding-right: 36%; padding-top: 34%; padding-bottom: 42%\">+</p>"	n/a	"1244"	n/a	n/a	n/a	n/a	n/a	n/a	n/a	n/a	n/a
n/a	"image-keyboard-response"	"212"	"419029"	"0.0-5.0-2.0-1.14"	"wo5rw2"	"600"	"1366"	"chrome"	"108.0.0"	"FALSE"	"Windows 10"	"60.51"	n/a	n/a	n/a	n/a	n/a	n/a	"Trial"	n/a	n/a	n/a	n/a	"NULL"	"NULL"	"NULL"	"651"	"stimuli/MullerLyer_20.04286_-0.3500.png"	"arrowdown"	n/a	"MullerLyer"	"arrowdown"	"1253"	"TRUE"	"MullerLyer"	"20.042860000"	"-0.350000000"	"2"	"15"
n/a	"html-keyboard-response"	"213"	"420428"	"0.0-5.0-2.0-0.15"	"wo5rw2"	"600"	"1366"	"chrome"	"108.0.0"	"FALSE"	"Windows 10"	"60.51"	n/a	n/a	n/a	n/a	n/a	n/a	"fixation"	n/a	n/a	n/a	n/a	"NULL"	"NULL"	"NULL"	n/a	"<p style=\"color: black; font-size: 80px; padding-left: 37%; padding-right: 31%; padding-top: 0%; padding-bottom: 46%\">+</p>"	n/a	"1385"	n/a	n/a	n/a	n/a	n/a	n/a	n/a	n/a	n/a
n/a	"image-keyboard-response"	"214"	"421283"	"0.0-5.0-2.0-1.15"	"wo5rw2"	"600"	"1366"	"chrome"	"108.0.0"	"FALSE"	"Windows 10"	"60.51"	n/a	n/a	n/a	n/a	n/a	n/a	"Trial"	n/a	n/a	n/a	n/a	"NULL"	"NULL"	"NULL"	"854"	"stimuli/MullerLyer_2.30000_0.35000.png"	"arrowup"	n/a	"MullerLyer"	"arrowup"	"1399"	"TRUE"	"MullerLyer"	"2.3000000000"	"0.3500000000"	"2"	"16"
n/a	"html-keyboard-response"	"215"	"422762"	"0.0-5.0-2.0-0.16"	"wo5rw2"	"600"	"1366"	"chrome"	"108.0.0"	"FALSE"	"Windows 10"	"60.51"	n/a	n/a	n/a	n/a	n/a	n/a	"fixation"	n/a	n/a	n/a	n/a	"NULL"	"NULL"	"NULL"	n/a	"<p style=\"color: black; font-size: 80px; padding-left: 40%; padding-right: 11%; padding-top: 46%; padding-bottom: 47%\">+</p>"	n/a	"1460"	n/a	n/a	n/a	n/a	n/a	n/a	n/a	n/a	n/a
n/a	"image-keyboard-response"	"216"	"423426"	"0.0-5.0-2.0-1.16"	"wo5rw2"	"600"	"1366"	"chrome"	"108.0.0"	"FALSE"	"Windows 10"	"60.51"	n/a	n/a	n/a	n/a	n/a	n/a	"Trial"	n/a	n/a	n/a	n/a	"NULL"	"NULL"	"NULL"	"660"	"stimuli/MullerLyer_-14.12857_-0.23665.png"	"arrowdown"	n/a	"MullerLyer"	"arrowdown"	"1479"	"TRUE"	"MullerLyer"	"-14.12857000"	"-0.236650000"	"2"	"17"
n/a	"html-keyboard-response"	"217"	"424882"	"0.0-5.0-2.0-0.17"	"wo5rw2"	"600"	"1366"	"chrome"	"108.0.0"	"FALSE"	"Windows 10"	"60.51"	n/a	n/a	n/a	n/a	n/a	n/a	"fixation"	n/a	n/a	n/a	n/a	"NULL"	"NULL"	"NULL"	n/a	"<p style=\"color: black; font-size: 80px; padding-left: 11%; padding-right: 25%; padding-top: 18%; padding-bottom: 13%\">+</p>"	n/a	"1447"	n/a	n/a	n/a	n/a	n/a	n/a	n/a	n/a	n/a
n/a	"image-keyboard-response"	"218"	"425638"	"0.0-5.0-2.0-1.17"	"wo5rw2"	"600"	"1366"	"chrome"	"108.0.0"	"FALSE"	"Windows 10"	"60.51"	n/a	n/a	n/a	n/a	n/a	n/a	"Trial"	n/a	n/a	n/a	n/a	"NULL"	"NULL"	"NULL"	"756"	"stimuli/MullerLyer_-20.04286_0.07627.png"	"arrowup"	n/a	"MullerLyer"	"arrowup"	"1456"	"TRUE"	"MullerLyer"	"-20.04286000"	"0.0762700000"	"2"	"18"
n/a	"html-keyboard-response"	"219"	"426915"	"0.0-5.0-2.0-0.18"	"wo5rw2"	"600"	"1366"	"chrome"	"108.0.0"	"FALSE"	"Windows 10"	"60.51"	n/a	n/a	n/a	n/a	n/a	n/a	"fixation"	n/a	n/a	n/a	n/a	"NULL"	"NULL"	"NULL"	n/a	"<p style=\"color: black; font-size: 80px; padding-left: 17%; padding-right: 46%; padding-top: 31%; padding-bottom: 29%\">+</p>"	n/a	"1265"	n/a	n/a	n/a	n/a	n/a	n/a	n/a	n/a	n/a
n/a	"image-keyboard-response"	"220"	"427587"	"0.0-5.0-2.0-1.18"	"wo5rw2"	"600"	"1366"	"chrome"	"108.0.0"	"FALSE"	"Windows 10"	"60.51"	n/a	n/a	n/a	n/a	n/a	n/a	"Trial"	n/a	n/a	n/a	n/a	"NULL"	"NULL"	"NULL"	"671"	"stimuli/MullerLyer_-8.21429_0.07627.png"	"arrowup"	n/a	"MullerLyer"	"arrowup"	"1277"	"TRUE"	"MullerLyer"	"-8.214290000"	"0.0762700000"	"2"	"19"
n/a	"html-keyboard-response"	"221"	"428615"	"0.0-5.0-2.0-0.19"	"wo5rw2"	"600"	"1366"	"chrome"	"108.0.0"	"FALSE"	"Windows 10"	"60.51"	n/a	n/a	n/a	n/a	n/a	n/a	"fixation"	n/a	n/a	n/a	n/a	"NULL"	"NULL"	"NULL"	n/a	"<p style=\"color: black; font-size: 80px; padding-left: 50%; padding-right: 2%; padding-top: 32%; padding-bottom: 18%\">+</p>"	n/a	"1012"	n/a	n/a	n/a	n/a	n/a	n/a	n/a	n/a	n/a
n/a	"image-keyboard-response"	"222"	"429180"	"0.0-5.0-2.0-1.19"	"wo5rw2"	"600"	"1366"	"chrome"	"108.0.0"	"FALSE"	"Windows 10"	"60.51"	n/a	n/a	n/a	n/a	n/a	n/a	"Trial"	n/a	n/a	n/a	n/a	"NULL"	"NULL"	"NULL"	"564"	"stimuli/MullerLyer_-20.04286_-0.23665.png"	"arrowdown"	n/a	"MullerLyer"	"arrowdown"	"1028"	"TRUE"	"MullerLyer"	"-20.04286000"	"-0.236650000"	"2"	"20"
n/a	"html-keyboard-response"	"223"	"430380"	"0.0-5.0-2.0-0.20"	"wo5rw2"	"600"	"1366"	"chrome"	"108.0.0"	"FALSE"	"Windows 10"	"60.51"	n/a	n/a	n/a	n/a	n/a	n/a	"fixation"	n/a	n/a	n/a	n/a	"NULL"	"NULL"	"NULL"	n/a	"<p style=\"color: black; font-size: 80px; padding-left: 44%; padding-right: 46%; padding-top: 12%; padding-bottom: 17%\">+</p>"	n/a	"1188"	n/a	n/a	n/a	n/a	n/a	n/a	n/a	n/a	n/a
n/a	"image-keyboard-response"	"224"	"430860"	"0.0-5.0-2.0-1.20"	"wo5rw2"	"600"	"1366"	"chrome"	"108.0.0"	"FALSE"	"Windows 10"	"60.51"	n/a	n/a	n/a	n/a	n/a	n/a	"Trial"	n/a	n/a	n/a	n/a	"NULL"	"NULL"	"NULL"	"478"	"stimuli/MullerLyer_-20.04286_-0.3500.png"	"arrowdown"	n/a	"MullerLyer"	"arrowdown"	"1200"	"TRUE"	"MullerLyer"	"-20.04286000"	"-0.350000000"	"2"	"21"
n/a	"html-keyboard-response"	"225"	"431945"	"0.0-5.0-2.0-0.21"	"wo5rw2"	"600"	"1366"	"chrome"	"108.0.0"	"FALSE"	"Windows 10"	"60.51"	n/a	n/a	n/a	n/a	n/a	n/a	"fixation"	n/a	n/a	n/a	n/a	"NULL"	"NULL"	"NULL"	n/a	"<p style=\"color: black; font-size: 80px; padding-left: 27%; padding-right: 30%; padding-top: 17%; padding-bottom: 9%\">+</p>"	n/a	"1078"	n/a	n/a	n/a	n/a	n/a	n/a	n/a	n/a	n/a
n/a	"image-keyboard-response"	"226"	"432364"	"0.0-5.0-2.0-1.21"	"wo5rw2"	"600"	"1366"	"chrome"	"108.0.0"	"FALSE"	"Windows 10"	"60.51"	n/a	n/a	n/a	n/a	n/a	n/a	"Trial"	n/a	n/a	n/a	n/a	"NULL"	"NULL"	"NULL"	"419"	"stimuli/MullerLyer_-2.3000_-0.14541.png"	"arrowdown"	n/a	"MullerLyer"	"arrowdown"	"1085"	"TRUE"	"MullerLyer"	"-2.300000000"	"-0.145410000"	"2"	"22"
n/a	"html-keyboard-response"	"227"	"433743"	"0.0-5.0-2.0-0.22"	"wo5rw2"	"600"	"1366"	"chrome"	"108.0.0"	"FALSE"	"Windows 10"	"60.51"	n/a	n/a	n/a	n/a	n/a	n/a	"fixation"	n/a	n/a	n/a	n/a	"NULL"	"NULL"	"NULL"	n/a	"<p style=\"color: black; font-size: 80px; padding-left: 22%; padding-right: 35%; padding-top: 11%; padding-bottom: 35%\">+</p>"	n/a	"1359"	n/a	n/a	n/a	n/a	n/a	n/a	n/a	n/a	n/a
n/a	"image-keyboard-response"	"228"	"434393"	"0.0-5.0-2.0-1.22"	"wo5rw2"	"600"	"1366"	"chrome"	"108.0.0"	"FALSE"	"Windows 10"	"60.51"	n/a	n/a	n/a	n/a	n/a	n/a	"Trial"	n/a	n/a	n/a	n/a	"NULL"	"NULL"	"NULL"	"649"	"stimuli/MullerLyer_8.21429_-0.07627.png"	"arrowup"	n/a	"MullerLyer"	"arrowdown"	"1379"	"FALSE"	"MullerLyer"	"8.2142900000"	"-0.076270000"	"2"	"23"
n/a	"html-keyboard-response"	"229"	"435689"	"0.0-5.0-2.0-0.23"	"wo5rw2"	"600"	"1366"	"chrome"	"108.0.0"	"FALSE"	"Windows 10"	"60.51"	n/a	n/a	n/a	n/a	n/a	n/a	"fixation"	n/a	n/a	n/a	n/a	"NULL"	"NULL"	"NULL"	n/a	"<p style=\"color: black; font-size: 80px; padding-left: 39%; padding-right: 40%; padding-top: 28%; padding-bottom: 6%\">+</p>"	n/a	"1285"	n/a	n/a	n/a	n/a	n/a	n/a	n/a	n/a	n/a
n/a	"image-keyboard-response"	"230"	"436585"	"0.0-5.0-2.0-1.23"	"wo5rw2"	"600"	"1366"	"chrome"	"108.0.0"	"FALSE"	"Windows 10"	"60.51"	n/a	n/a	n/a	n/a	n/a	n/a	"Trial"	n/a	n/a	n/a	n/a	"NULL"	"NULL"	"NULL"	"895"	"stimuli/MullerLyer_8.21429_-0.14541.png"	"arrowdown"	n/a	"MullerLyer"	"arrowdown"	"1296"	"TRUE"	"MullerLyer"	"8.2142900000"	"-0.145410000"	"2"	"24"
n/a	"html-keyboard-response"	"231"	"437622"	"0.0-5.0-2.0-0.24"	"wo5rw2"	"600"	"1366"	"chrome"	"108.0.0"	"FALSE"	"Windows 10"	"60.51"	n/a	n/a	n/a	n/a	n/a	n/a	"fixation"	n/a	n/a	n/a	n/a	"NULL"	"NULL"	"NULL"	n/a	"<p style=\"color: black; font-size: 80px; padding-left: 31%; padding-right: 45%; padding-top: 33%; padding-bottom: 23%\">+</p>"	n/a	"1029"	n/a	n/a	n/a	n/a	n/a	n/a	n/a	n/a	n/a
n/a	"image-keyboard-response"	"232"	"438628"	"0.0-5.0-2.0-1.24"	"wo5rw2"	"600"	"1366"	"chrome"	"108.0.0"	"FALSE"	"Windows 10"	"60.51"	n/a	n/a	n/a	n/a	n/a	n/a	"Trial"	n/a	n/a	n/a	n/a	"NULL"	"NULL"	"NULL"	"1000"	"stimuli/MullerLyer_20.04286_0.14541.png"	"arrowup"	n/a	"MullerLyer"	"arrowup"	"1037"	"TRUE"	"MullerLyer"	"20.042860000"	"0.1454100000"	"2"	"25"
n/a	"html-keyboard-response"	"233"	"439735"	"0.0-5.0-2.0-0.25"	"wo5rw2"	"600"	"1366"	"chrome"	"108.0.0"	"FALSE"	"Windows 10"	"60.51"	n/a	n/a	n/a	n/a	n/a	n/a	"fixation"	n/a	n/a	n/a	n/a	"NULL"	"NULL"	"NULL"	n/a	"<p style=\"color: black; font-size: 80px; padding-left: 49%; padding-right: 7%; padding-top: 34%; padding-bottom: 19%\">+</p>"	n/a	"1099"	n/a	n/a	n/a	n/a	n/a	n/a	n/a	n/a	n/a
n/a	"image-keyboard-response"	"234"	"440315"	"0.0-5.0-2.0-1.25"	"wo5rw2"	"600"	"1366"	"chrome"	"108.0.0"	"FALSE"	"Windows 10"	"60.51"	n/a	n/a	n/a	n/a	n/a	n/a	"Trial"	n/a	n/a	n/a	n/a	"NULL"	"NULL"	"NULL"	"580"	"stimuli/MullerLyer_-20.04286_-0.07627.png"	"arrowdown"	n/a	"MullerLyer"	"arrowdown"	"1107"	"TRUE"	"MullerLyer"	"-20.04286000"	"-0.076270000"	"2"	"26"
n/a	"html-keyboard-response"	"235"	"441670"	"0.0-5.0-2.0-0.26"	"wo5rw2"	"600"	"1366"	"chrome"	"108.0.0"	"FALSE"	"Windows 10"	"60.51"	n/a	n/a	n/a	n/a	n/a	n/a	"fixation"	n/a	n/a	n/a	n/a	"NULL"	"NULL"	"NULL"	n/a	"<p style=\"color: black; font-size: 80px; padding-left: 27%; padding-right: 49%; padding-top: 10%; padding-bottom: 13%\">+</p>"	n/a	"1336"	n/a	n/a	n/a	n/a	n/a	n/a	n/a	n/a	n/a
n/a	"image-keyboard-response"	"236"	"442306"	"0.0-5.0-2.0-1.26"	"wo5rw2"	"600"	"1366"	"chrome"	"108.0.0"	"FALSE"	"Windows 10"	"60.51"	n/a	n/a	n/a	n/a	n/a	n/a	"Trial"	n/a	n/a	n/a	n/a	"NULL"	"NULL"	"NULL"	"634"	"stimuli/MullerLyer_20.04286_0.07627.png"	"arrowdown"	n/a	"MullerLyer"	"arrowup"	"1355"	"FALSE"	"MullerLyer"	"20.042860000"	"0.0762700000"	"2"	"27"
n/a	"html-keyboard-response"	"237"	"443734"	"0.0-5.0-2.0-0.27"	"wo5rw2"	"600"	"1366"	"chrome"	"108.0.0"	"FALSE"	"Windows 10"	"60.51"	n/a	n/a	n/a	n/a	n/a	n/a	"fixation"	n/a	n/a	n/a	n/a	"NULL"	"NULL"	"NULL"	n/a	"<p style=\"color: black; font-size: 80px; padding-left: 44%; padding-right: 45%; padding-top: 36%; padding-bottom: 42%\">+</p>"	n/a	"1420"	n/a	n/a	n/a	n/a	n/a	n/a	n/a	n/a	n/a
n/a	"image-keyboard-response"	"238"	"444517"	"0.0-5.0-2.0-1.27"	"wo5rw2"	"600"	"1366"	"chrome"	"108.0.0"	"FALSE"	"Windows 10"	"60.51"	n/a	n/a	n/a	n/a	n/a	n/a	"Trial"	n/a	n/a	n/a	n/a	"NULL"	"NULL"	"NULL"	"783"	"stimuli/MullerLyer_20.04286_-0.23665.png"	"arrowup"	n/a	"MullerLyer"	"arrowdown"	"1428"	"FALSE"	"MullerLyer"	"20.042860000"	"-0.236650000"	"2"	"28"
n/a	"html-keyboard-response"	"239"	"445679"	"0.0-5.0-2.0-0.28"	"wo5rw2"	"600"	"1366"	"chrome"	"108.0.0"	"FALSE"	"Windows 10"	"60.51"	n/a	n/a	n/a	n/a	n/a	n/a	"fixation"	n/a	n/a	n/a	n/a	"NULL"	"NULL"	"NULL"	n/a	"<p style=\"color: black; font-size: 80px; padding-left: 39%; padding-right: 12%; padding-top: 33%; padding-bottom: 43%\">+</p>"	n/a	"1156"	n/a	n/a	n/a	n/a	n/a	n/a	n/a	n/a	n/a
n/a	"image-keyboard-response"	"240"	"446158"	"0.0-5.0-2.0-1.28"	"wo5rw2"	"600"	"1366"	"chrome"	"108.0.0"	"FALSE"	"Windows 10"	"60.51"	n/a	n/a	n/a	n/a	n/a	n/a	"Trial"	n/a	n/a	n/a	n/a	"NULL"	"NULL"	"NULL"	"478"	"stimuli/MullerLyer_-20.04286_0.23665.png"	"arrowup"	n/a	"MullerLyer"	"arrowup"	"1162"	"TRUE"	"MullerLyer"	"-20.04286000"	"0.2366500000"	"2"	"29"
n/a	"html-keyboard-response"	"241"	"447538"	"0.0-5.0-2.0-0.29"	"wo5rw2"	"600"	"1366"	"chrome"	"108.0.0"	"FALSE"	"Windows 10"	"60.51"	n/a	n/a	n/a	n/a	n/a	n/a	"fixation"	n/a	n/a	n/a	n/a	"NULL"	"NULL"	"NULL"	n/a	"<p style=\"color: black; font-size: 80px; padding-left: 47%; padding-right: 33%; padding-top: 26%; padding-bottom: 6%\">+</p>"	n/a	"1357"	n/a	n/a	n/a	n/a	n/a	n/a	n/a	n/a	n/a
n/a	"image-keyboard-response"	"242"	"448213"	"0.0-5.0-2.0-1.29"	"wo5rw2"	"600"	"1366"	"chrome"	"108.0.0"	"FALSE"	"Windows 10"	"60.51"	n/a	n/a	n/a	n/a	n/a	n/a	"Trial"	n/a	n/a	n/a	n/a	"NULL"	"NULL"	"NULL"	"674"	"stimuli/MullerLyer_14.12857_0.35000.png"	"arrowdown"	n/a	"MullerLyer"	"arrowup"	"1380"	"FALSE"	"MullerLyer"	"14.128570000"	"0.3500000000"	"2"	"30"
n/a	"html-keyboard-response"	"243"	"449711"	"0.0-5.0-2.0-0.30"	"wo5rw2"	"600"	"1366"	"chrome"	"108.0.0"	"FALSE"	"Windows 10"	"60.51"	n/a	n/a	n/a	n/a	n/a	n/a	"fixation"	n/a	n/a	n/a	n/a	"NULL"	"NULL"	"NULL"	n/a	"<p style=\"color: black; font-size: 80px; padding-left: 5%; padding-right: 47%; padding-top: 39%; padding-bottom: 11%\">+</p>"	n/a	"1492"	n/a	n/a	n/a	n/a	n/a	n/a	n/a	n/a	n/a
n/a	"image-keyboard-response"	"244"	"450466"	"0.0-5.0-2.0-1.30"	"wo5rw2"	"600"	"1366"	"chrome"	"108.0.0"	"FALSE"	"Windows 10"	"60.51"	n/a	n/a	n/a	n/a	n/a	n/a	"Trial"	n/a	n/a	n/a	n/a	"NULL"	"NULL"	"NULL"	"754"	"stimuli/MullerLyer_14.12857_-0.23665.png"	"arrowup"	n/a	"MullerLyer"	"arrowdown"	"1498"	"FALSE"	"MullerLyer"	"14.128570000"	"-0.236650000"	"2"	"31"
n/a	"html-keyboard-response"	"245"	"451943"	"0.0-5.0-2.0-0.31"	"wo5rw2"	"600"	"1366"	"chrome"	"108.0.0"	"FALSE"	"Windows 10"	"60.51"	n/a	n/a	n/a	n/a	n/a	n/a	"fixation"	n/a	n/a	n/a	n/a	"NULL"	"NULL"	"NULL"	n/a	"<p style=\"color: black; font-size: 80px; padding-left: 11%; padding-right: 27%; padding-top: 46%; padding-bottom: 40%\">+</p>"	n/a	"1459"	n/a	n/a	n/a	n/a	n/a	n/a	n/a	n/a	n/a
n/a	"image-keyboard-response"	"246"	"452635"	"0.0-5.0-2.0-1.31"	"wo5rw2"	"600"	"1366"	"chrome"	"108.0.0"	"FALSE"	"Windows 10"	"60.51"	n/a	n/a	n/a	n/a	n/a	n/a	"Trial"	n/a	n/a	n/a	n/a	"NULL"	"NULL"	"NULL"	"691"	"stimuli/MullerLyer_8.21429_0.23665.png"	"arrowup"	n/a	"MullerLyer"	"arrowup"	"1477"	"TRUE"	"MullerLyer"	"8.2142900000"	"0.2366500000"	"2"	"32"
n/a	"html-keyboard-response"	"247"	"453702"	"0.0-5.0-2.0-0.32"	"wo5rw2"	"600"	"1366"	"chrome"	"108.0.0"	"FALSE"	"Windows 10"	"60.51"	n/a	n/a	n/a	n/a	n/a	n/a	"fixation"	n/a	n/a	n/a	n/a	"NULL"	"NULL"	"NULL"	n/a	"<p style=\"color: black; font-size: 80px; padding-left: 2%; padding-right: 15%; padding-top: 24%; padding-bottom: 19%\">+</p>"	n/a	"1050"	n/a	n/a	n/a	n/a	n/a	n/a	n/a	n/a	n/a
n/a	"image-keyboard-response"	"248"	"454376"	"0.0-5.0-2.0-1.32"	"wo5rw2"	"600"	"1366"	"chrome"	"108.0.0"	"FALSE"	"Windows 10"	"60.51"	n/a	n/a	n/a	n/a	n/a	n/a	"Trial"	n/a	n/a	n/a	n/a	"NULL"	"NULL"	"NULL"	"673"	"stimuli/MullerLyer_-8.21429_-0.3500.png"	"arrowdown"	n/a	"MullerLyer"	"arrowdown"	"1067"	"TRUE"	"MullerLyer"	"-8.214290000"	"-0.350000000"	"2"	"33"
n/a	"html-keyboard-response"	"249"	"455793"	"0.0-5.0-2.0-0.33"	"wo5rw2"	"600"	"1366"	"chrome"	"108.0.0"	"FALSE"	"Windows 10"	"60.51"	n/a	n/a	n/a	n/a	n/a	n/a	"fixation"	n/a	n/a	n/a	n/a	"NULL"	"NULL"	"NULL"	n/a	"<p style=\"color: black; font-size: 80px; padding-left: 5%; padding-right: 33%; padding-top: 14%; padding-bottom: 15%\">+</p>"	n/a	"1409"	n/a	n/a	n/a	n/a	n/a	n/a	n/a	n/a	n/a
n/a	"image-keyboard-response"	"250"	"456286"	"0.0-5.0-2.0-1.33"	"wo5rw2"	"600"	"1366"	"chrome"	"108.0.0"	"FALSE"	"Windows 10"	"60.51"	n/a	n/a	n/a	n/a	n/a	n/a	"Trial"	n/a	n/a	n/a	n/a	"NULL"	"NULL"	"NULL"	"493"	"stimuli/MullerLyer_2.30000_0.14541.png"	"arrowup"	n/a	"MullerLyer"	"arrowup"	"1417"	"TRUE"	"MullerLyer"	"2.3000000000"	"0.1454100000"	"2"	"34"
n/a	"html-keyboard-response"	"251"	"457420"	"0.0-5.0-2.0-0.34"	"wo5rw2"	"600"	"1366"	"chrome"	"108.0.0"	"FALSE"	"Windows 10"	"60.51"	n/a	n/a	n/a	n/a	n/a	n/a	"fixation"	n/a	n/a	n/a	n/a	"NULL"	"NULL"	"NULL"	n/a	"<p style=\"color: black; font-size: 80px; padding-left: 38%; padding-right: 19%; padding-top: 21%; padding-bottom: 45%\">+</p>"	n/a	"1118"	n/a	n/a	n/a	n/a	n/a	n/a	n/a	n/a	n/a
n/a	"image-keyboard-response"	"252"	"458095"	"0.0-5.0-2.0-1.34"	"wo5rw2"	"600"	"1366"	"chrome"	"108.0.0"	"FALSE"	"Windows 10"	"60.51"	n/a	n/a	n/a	n/a	n/a	n/a	"Trial"	n/a	n/a	n/a	n/a	"NULL"	"NULL"	"NULL"	"674"	"stimuli/MullerLyer_2.30000_0.07627.png"	"arrowup"	n/a	"MullerLyer"	"arrowup"	"1134"	"TRUE"	"MullerLyer"	"2.3000000000"	"0.0762700000"	"2"	"35"
n/a	"html-keyboard-response"	"253"	"459127"	"0.0-5.0-2.0-0.35"	"wo5rw2"	"600"	"1366"	"chrome"	"108.0.0"	"FALSE"	"Windows 10"	"60.51"	n/a	n/a	n/a	n/a	n/a	n/a	"fixation"	n/a	n/a	n/a	n/a	"NULL"	"NULL"	"NULL"	n/a	"<p style=\"color: black; font-size: 80px; padding-left: 22%; padding-right: 23%; padding-top: 25%; padding-bottom: 33%\">+</p>"	n/a	"1023"	n/a	n/a	n/a	n/a	n/a	n/a	n/a	n/a	n/a
