"success"	"trial_type"	"trial_index"	"time_elapsed"	"internal_node_id"	"participant_id"	"screen_height"	"screen_width"	"browser"	"browser_version"	"mobile"	"os"	"vsync_rate"	"subject_id"	"width"	"height"	"webaudio"	"fullscreen"	"webcam"	"microphone"	"screen"	"version"	"date"	"time"	"rt"	"response"	"timeout"	"failed_images"	"failed_audio"	"failed_video"	"stimulus"	"trial_duration"	"block"	"correct_response"	"prestimulus_duration"	"correct"	"type"	"illusion_strength"	"illusion_difference"	"block_number"	"trial_number"
"TRUE"	"fullscreen"	"0"	"3725"	"0.0-0.0"	"u20r5h"	"600"	"1366"	"chrome"	"111.0.0"	"FALSE"	"Windows 10"	"60.14"	"051"	n/a	n/a	n/a	n/a	n/a	n/a	n/a	n/a	n/a	n/a	n/a	"NULL"	n/a	"NULL"	"NULL"	"NULL"	n/a	n/a	n/a	n/a	n/a	n/a	n/a	n/a	n/a	n/a	n/a
n/a	"browser-check"	"1"	"4733"	"0.0-1.0"	"u20r5h"	"600"	"1366"	"chrome"	"111.0.0"	"FALSE"	"Windows 10"	"60.14"	"051"	"1366"	"600"	"TRUE"	"TRUE"	"TRUE"	"TRUE"	"browser_info"	"1.0"	"20/03/2023"	"10:11:49"	n/a	"NULL"	n/a	"NULL"	"NULL"	"NULL"	n/a	n/a	n/a	n/a	n/a	n/a	n/a	n/a	n/a	n/a	n/a
n/a	"survey-text"	"2"	"8983"	"0.0-2.0"	"u20r5h"	"600"	"1366"	"chrome"	"111.0.0"	"FALSE"	"Windows 10"	"60.14"	"051"	n/a	n/a	n/a	n/a	n/a	n/a	"subject_id"	n/a	n/a	n/a	"4244"	"list(subject_id = \"051\")"	n/a	"NULL"	"NULL"	"NULL"	n/a	n/a	n/a	n/a	n/a	n/a	n/a	n/a	n/a	n/a	n/a
"TRUE"	"preload"	"3"	"8996"	"0.0-3.0"	"u20r5h"	"600"	"1366"	"chrome"	"111.0.0"	"FALSE"	"Windows 10"	"60.14"	"051"	n/a	n/a	n/a	n/a	n/a	n/a	n/a	n/a	n/a	n/a	n/a	"NULL"	"FALSE"	"list()"	"list()"	"list()"	n/a	n/a	n/a	n/a	n/a	n/a	n/a	n/a	n/a	n/a	n/a
n/a	"html-button-response"	"4"	"117811"	"0.0-4.0-0.0"	"u20r5h"	"600"	"1366"	"chrome"	"111.0.0"	"FALSE"	"Windows 10"	"60.14"	"051"	n/a	n/a	n/a	n/a	n/a	n/a	"illusion_instructions"	n/a	n/a	n/a	"108814"	"0"	n/a	"NULL"	"NULL"	"NULL"	"<p><b>Illusion Game</b></p><p>In this game of speed and reflex, you will need to make <b>visual judgments</b> (for instance, which circle is the biggest, or which line is the longest), as fast and as correctly as possible, while <b>resisting different visual illusions</b>.</p><p>We are going to start with some examples of all the illusions you will encounter in the game.</p>"	n/a	n/a	n/a	n/a	n/a	n/a	n/a	n/a	n/a	n/a
"TRUE"	"preload"	"5"	"117836"	"0.0-4.0-1.0-0.0"	"u20r5h"	"600"	"1366"	"chrome"	"111.0.0"	"FALSE"	"Windows 10"	"60.14"	"051"	n/a	n/a	n/a	n/a	n/a	n/a	n/a	n/a	n/a	n/a	n/a	"NULL"	"FALSE"	"list()"	"list()"	"list()"	n/a	n/a	n/a	n/a	n/a	n/a	n/a	n/a	n/a	n/a	n/a
n/a	"html-keyboard-response"	"6"	"133797"	"0.0-4.0-1.0-1.0"	"u20r5h"	"600"	"1366"	"chrome"	"111.0.0"	"FALSE"	"Windows 10"	"60.14"	"051"	n/a	n/a	n/a	n/a	n/a	n/a	n/a	n/a	n/a	n/a	"15959"	"enter"	n/a	"NULL"	"NULL"	"NULL"	"<p><b>Practice</b></p><p>In this part, two red circles will appear side by side on the screen.</p><p>Your task is to select which <b>red circle is bigger</b> in size as fast as you can, without making errors.</p><p>Don't get distracted by the surrounding black circles around the red circles!</p><p>Press <b>the LEFT or the RIGHT arrow</b> to indicate which is the bigger <b>red circle.</b></p><div style='float: center'><img src='materials/instructions/Ebbinghaus_Demo.png' height='300'></img><p><img src='utils/answer/answer_leftright_keyboard.PNG' height='150'></img></p><p class='small'>In this example, the correct answer is the <b>LEFT arrow</b>.</p></div><p>Are you ready? <b>Press ENTER to start</b></p>"	n/a	n/a	n/a	n/a	n/a	n/a	n/a	n/a	n/a	n/a
n/a	"html-keyboard-response"	"7"	"135656"	"0.0-4.0-1.0-2.0-0.0"	"u20r5h"	"600"	"1366"	"chrome"	"111.0.0"	"FALSE"	"Windows 10"	"60.14"	"051"	n/a	n/a	n/a	n/a	n/a	n/a	"fixation"	n/a	n/a	n/a	n/a	"NULL"	n/a	"NULL"	"NULL"	"NULL"	"<p style=\"color: black; font-size: 80px; padding-left: 19%; padding-right: 35%; padding-top: 42%; padding-bottom: 41%\">+</p>"	"1346"	n/a	n/a	n/a	n/a	n/a	n/a	n/a	n/a	n/a
n/a	"image-keyboard-response"	"8"	"136506"	"0.0-4.0-1.0-2.0-1.0"	"u20r5h"	"600"	"1366"	"chrome"	"111.0.0"	"FALSE"	"Windows 10"	"60.14"	"051"	n/a	n/a	n/a	n/a	n/a	n/a	"Trial"	n/a	n/a	n/a	"838"	"arrowleft"	n/a	"NULL"	"NULL"	"NULL"	"stimuli/Ebbinghaus_1000000_1.40000.png"	n/a	"Ebbinghaus"	"arrowleft"	"1859"	"TRUE"	"Ebbinghaus"	"100000000000"	"1.4000000000"	"1"	"1"
n/a	"html-keyboard-response"	"9"	"137989"	"0.0-4.0-1.0-2.0-0.1"	"u20r5h"	"600"	"1366"	"chrome"	"111.0.0"	"FALSE"	"Windows 10"	"60.14"	"051"	n/a	n/a	n/a	n/a	n/a	n/a	"fixation"	n/a	n/a	n/a	n/a	"NULL"	n/a	"NULL"	"NULL"	"NULL"	"<p style=\"color: black; font-size: 80px; padding-left: 5%; padding-right: 21%; padding-top: 45%; padding-bottom: 42%\">+</p>"	"1479"	n/a	n/a	n/a	n/a	n/a	n/a	n/a	n/a	n/a
n/a	"image-keyboard-response"	"10"	"138732"	"0.0-4.0-1.0-2.0-1.1"	"u20r5h"	"600"	"1366"	"chrome"	"111.0.0"	"FALSE"	"Windows 10"	"60.14"	"051"	n/a	n/a	n/a	n/a	n/a	n/a	"Trial"	n/a	n/a	n/a	"742"	"arrowleft"	n/a	"NULL"	"NULL"	"NULL"	"stimuli/Ebbinghaus_-100000_1.40000.png"	n/a	"Ebbinghaus"	"arrowleft"	"1483"	"TRUE"	"Ebbinghaus"	"-10000000000"	"1.4000000000"	"1"	"2"
n/a	"html-keyboard-response"	"11"	"139778"	"0.0-4.0-1.0-2.0-0.2"	"u20r5h"	"600"	"1366"	"chrome"	"111.0.0"	"FALSE"	"Windows 10"	"60.14"	"051"	n/a	n/a	n/a	n/a	n/a	n/a	"fixation"	n/a	n/a	n/a	n/a	"NULL"	n/a	"NULL"	"NULL"	"NULL"	"<p style=\"color: black; font-size: 80px; padding-left: 46%; padding-right: 3%; padding-top: 50%; padding-bottom: 24%\">+</p>"	"1040"	n/a	n/a	n/a	n/a	n/a	n/a	n/a	n/a	n/a
n/a	"image-keyboard-response"	"12"	"140455"	"0.0-4.0-1.0-2.0-1.2"	"u20r5h"	"600"	"1366"	"chrome"	"111.0.0"	"FALSE"	"Windows 10"	"60.14"	"051"	n/a	n/a	n/a	n/a	n/a	n/a	"Trial"	n/a	n/a	n/a	"676"	"arrowright"	n/a	"NULL"	"NULL"	"NULL"	"stimuli/Ebbinghaus_0000000_-1.4000.png"	n/a	"Ebbinghaus"	"arrowright"	"1046"	"TRUE"	"Ebbinghaus"	"000000000000"	"-1.400000000"	"1"	"3"
n/a	"html-keyboard-response"	"13"	"141550"	"0.0-4.0-1.0-2.0-0.3"	"u20r5h"	"600"	"1366"	"chrome"	"111.0.0"	"FALSE"	"Windows 10"	"60.14"	"051"	n/a	n/a	n/a	n/a	n/a	n/a	"fixation"	n/a	n/a	n/a	n/a	"NULL"	n/a	"NULL"	"NULL"	"NULL"	"<p style=\"color: black; font-size: 80px; padding-left: 24%; padding-right: 35%; padding-top: 8%; padding-bottom: 39%\">+</p>"	"1090"	n/a	n/a	n/a	n/a	n/a	n/a	n/a	n/a	n/a
n/a	"image-keyboard-response"	"14"	"142071"	"0.0-4.0-1.0-2.0-1.3"	"u20r5h"	"600"	"1366"	"chrome"	"111.0.0"	"FALSE"	"Windows 10"	"60.14"	"051"	n/a	n/a	n/a	n/a	n/a	n/a	"Trial"	n/a	n/a	n/a	"520"	"arrowright"	n/a	"NULL"	"NULL"	"NULL"	"stimuli/Ebbinghaus_1000000_-1.4000.png"	n/a	"Ebbinghaus"	"arrowright"	"1095"	"TRUE"	"Ebbinghaus"	"100000000000"	"-1.400000000"	"1"	"4"
n/a	"html-keyboard-response"	"15"	"143481"	"0.0-4.0-1.0-2.0-0.4"	"u20r5h"	"600"	"1366"	"chrome"	"111.0.0"	"FALSE"	"Windows 10"	"60.14"	"051"	n/a	n/a	n/a	n/a	n/a	n/a	"fixation"	n/a	n/a	n/a	n/a	"NULL"	n/a	"NULL"	"NULL"	"NULL"	"<p style=\"color: black; font-size: 80px; padding-left: 30%; padding-right: 49%; padding-top: 49%; padding-bottom: 43%\">+</p>"	"1398"	n/a	n/a	n/a	n/a	n/a	n/a	n/a	n/a	n/a
n/a	"image-keyboard-response"	"16"	"144014"	"0.0-4.0-1.0-2.0-1.4"	"u20r5h"	"600"	"1366"	"chrome"	"111.0.0"	"FALSE"	"Windows 10"	"60.14"	"051"	n/a	n/a	n/a	n/a	n/a	n/a	"Trial"	n/a	n/a	n/a	"532"	"arrowright"	n/a	"NULL"	"NULL"	"NULL"	"stimuli/Ebbinghaus_-100000_-1.4000.png"	n/a	"Ebbinghaus"	"arrowright"	"1410"	"TRUE"	"Ebbinghaus"	"-10000000000"	"-1.400000000"	"1"	"5"
n/a	"html-keyboard-response"	"17"	"145393"	"0.0-4.0-1.0-2.0-0.5"	"u20r5h"	"600"	"1366"	"chrome"	"111.0.0"	"FALSE"	"Windows 10"	"60.14"	"051"	n/a	n/a	n/a	n/a	n/a	n/a	"fixation"	n/a	n/a	n/a	n/a	"NULL"	n/a	"NULL"	"NULL"	"NULL"	"<p style=\"color: black; font-size: 80px; padding-left: 8%; padding-right: 41%; padding-top: 16%; padding-bottom: 17%\">+</p>"	"1371"	n/a	n/a	n/a	n/a	n/a	n/a	n/a	n/a	n/a
n/a	"image-keyboard-response"	"18"	"145995"	"0.0-4.0-1.0-2.0-1.5"	"u20r5h"	"600"	"1366"	"chrome"	"111.0.0"	"FALSE"	"Windows 10"	"60.14"	"051"	n/a	n/a	n/a	n/a	n/a	n/a	"Trial"	n/a	n/a	n/a	"601"	"arrowleft"	n/a	"NULL"	"NULL"	"NULL"	"stimuli/Ebbinghaus_0000000_1.40000.png"	n/a	"Ebbinghaus"	"arrowleft"	"1379"	"TRUE"	"Ebbinghaus"	"000000000000"	"1.4000000000"	"1"	"6"
n/a	"html-button-response"	"19"	"151283"	"0.0-4.0-1.0-3.0"	"u20r5h"	"600"	"1366"	"chrome"	"111.0.0"	"FALSE"	"Windows 10"	"60.14"	"051"	n/a	n/a	n/a	n/a	n/a	n/a	"practice_block_results"	n/a	n/a	n/a	"5286"	"0"	n/a	"NULL"	"NULL"	"NULL"	"<p style='color:rgb(76,175,80);'> Correct Responses: <b>100.00%</b></p><hr><p style='color:rgb(233,30,99);'> Average Response Time: <b>651.50</b> ms.</p>"	n/a	n/a	n/a	n/a	n/a	n/a	n/a	n/a	n/a	n/a
"TRUE"	"preload"	"20"	"151806"	"0.0-4.0-2.0-0.0"	"u20r5h"	"600"	"1366"	"chrome"	"111.0.0"	"FALSE"	"Windows 10"	"60.14"	"051"	n/a	n/a	n/a	n/a	n/a	n/a	n/a	n/a	n/a	n/a	n/a	"NULL"	"FALSE"	"list()"	"list()"	"list()"	n/a	n/a	n/a	n/a	n/a	n/a	n/a	n/a	n/a	n/a	n/a
n/a	"html-keyboard-response"	"21"	"158400"	"0.0-4.0-2.0-1.0"	"u20r5h"	"600"	"1366"	"chrome"	"111.0.0"	"FALSE"	"Windows 10"	"60.14"	"051"	n/a	n/a	n/a	n/a	n/a	n/a	n/a	n/a	n/a	n/a	"6594"	"enter"	n/a	"NULL"	"NULL"	"NULL"	"<p><b>Practice</b></p><p>In this part, two horizontal red lines will appear one above the other.</p><p>Your task is to select which <b>line is longer</b> in length as fast as you can, without making errors.</p><p>Don't get distracted by the surrounding black arrows at the end of the red lines!</p><p>Press <b>the UP or the DOWN arrow</b> to indicate where is the longer <b>red line.</b></p><div style='float: center'><img src='materials/instructions/MullerLyer_Demo.png' height='300'></img><p><img src='utils/answer/answer_updown_keyboard.PNG' height='150'></img></p><p class='small'>In this example, the correct answer is the <b>UP arrow</b>.</p></div><p>Are you ready? <b>Press ENTER to start</b></p>"	n/a	n/a	n/a	n/a	n/a	n/a	n/a	n/a	n/a	n/a
n/a	"html-keyboard-response"	"22"	"160124"	"0.0-4.0-2.0-2.0-0.0"	"u20r5h"	"600"	"1366"	"chrome"	"111.0.0"	"FALSE"	"Windows 10"	"60.14"	"051"	n/a	n/a	n/a	n/a	n/a	n/a	"fixation"	n/a	n/a	n/a	n/a	"NULL"	n/a	"NULL"	"NULL"	"NULL"	"<p style=\"color: black; font-size: 80px; padding-left: 21%; padding-right: 43%; padding-top: 19%; padding-bottom: 44%\">+</p>"	"1215"	n/a	n/a	n/a	n/a	n/a	n/a	n/a	n/a	n/a
n/a	"image-keyboard-response"	"23"	"160826"	"0.0-4.0-2.0-2.0-1.0"	"u20r5h"	"600"	"1366"	"chrome"	"111.0.0"	"FALSE"	"Windows 10"	"60.14"	"051"	n/a	n/a	n/a	n/a	n/a	n/a	"Trial"	n/a	n/a	n/a	"700"	"arrowdown"	n/a	"NULL"	"NULL"	"NULL"	"stimuli/MullerLyer_-230000_-0.7000.png"	n/a	"MullerLyer"	"arrowdown"	"1724"	"TRUE"	"MullerLyer"	"-23000000000"	"-0.700000000"	"1"	"7"
n/a	"html-keyboard-response"	"24"	"162314"	"0.0-4.0-2.0-2.0-0.1"	"u20r5h"	"600"	"1366"	"chrome"	"111.0.0"	"FALSE"	"Windows 10"	"60.14"	"051"	n/a	n/a	n/a	n/a	n/a	n/a	"fixation"	n/a	n/a	n/a	n/a	"NULL"	n/a	"NULL"	"NULL"	"NULL"	"<p style=\"color: black; font-size: 80px; padding-left: 39%; padding-right: 17%; padding-top: 14%; padding-bottom: 12%\">+</p>"	"1482"	n/a	n/a	n/a	n/a	n/a	n/a	n/a	n/a	n/a
n/a	"image-keyboard-response"	"25"	"162699"	"0.0-4.0-2.0-2.0-1.1"	"u20r5h"	"600"	"1366"	"chrome"	"111.0.0"	"FALSE"	"Windows 10"	"60.14"	"051"	n/a	n/a	n/a	n/a	n/a	n/a	"Trial"	n/a	n/a	n/a	"384"	"arrowup"	n/a	"NULL"	"NULL"	"NULL"	"stimuli/MullerLyer_-230000_0.70000.png"	n/a	"MullerLyer"	"arrowup"	"1488"	"TRUE"	"MullerLyer"	"-23000000000"	"0.7000000000"	"1"	"8"
n/a	"html-keyboard-response"	"26"	"164074"	"0.0-4.0-2.0-2.0-0.2"	"u20r5h"	"600"	"1366"	"chrome"	"111.0.0"	"FALSE"	"Windows 10"	"60.14"	"051"	n/a	n/a	n/a	n/a	n/a	n/a	"fixation"	n/a	n/a	n/a	n/a	"NULL"	n/a	"NULL"	"NULL"	"NULL"	"<p style=\"color: black; font-size: 80px; padding-left: 33%; padding-right: 33%; padding-top: 1%; padding-bottom: 33%\">+</p>"	"1370"	n/a	n/a	n/a	n/a	n/a	n/a	n/a	n/a	n/a
n/a	"image-keyboard-response"	"27"	"164553"	"0.0-4.0-2.0-2.0-1.2"	"u20r5h"	"600"	"1366"	"chrome"	"111.0.0"	"FALSE"	"Windows 10"	"60.14"	"051"	n/a	n/a	n/a	n/a	n/a	n/a	"Trial"	n/a	n/a	n/a	"478"	"arrowup"	n/a	"NULL"	"NULL"	"NULL"	"stimuli/MullerLyer_2300000_0.70000.png"	n/a	"MullerLyer"	"arrowup"	"1375"	"TRUE"	"MullerLyer"	"230000000000"	"0.7000000000"	"1"	"9"
n/a	"html-keyboard-response"	"28"	"165935"	"0.0-4.0-2.0-2.0-0.3"	"u20r5h"	"600"	"1366"	"chrome"	"111.0.0"	"FALSE"	"Windows 10"	"60.14"	"051"	n/a	n/a	n/a	n/a	n/a	n/a	"fixation"	n/a	n/a	n/a	n/a	"NULL"	n/a	"NULL"	"NULL"	"NULL"	"<p style=\"color: black; font-size: 80px; padding-left: 10%; padding-right: 23%; padding-top: 16%; padding-bottom: 11%\">+</p>"	"1379"	n/a	n/a	n/a	n/a	n/a	n/a	n/a	n/a	n/a
n/a	"image-keyboard-response"	"29"	"166380"	"0.0-4.0-2.0-2.0-1.3"	"u20r5h"	"600"	"1366"	"chrome"	"111.0.0"	"FALSE"	"Windows 10"	"60.14"	"051"	n/a	n/a	n/a	n/a	n/a	n/a	"Trial"	n/a	n/a	n/a	"444"	"arrowup"	n/a	"NULL"	"NULL"	"NULL"	"stimuli/MullerLyer_0000000_0.70000.png"	n/a	"MullerLyer"	"arrowup"	"1382"	"TRUE"	"MullerLyer"	"000000000000"	"0.7000000000"	"1"	"10"
n/a	"html-keyboard-response"	"30"	"167775"	"0.0-4.0-2.0-2.0-0.4"	"u20r5h"	"600"	"1366"	"chrome"	"111.0.0"	"FALSE"	"Windows 10"	"60.14"	"051"	n/a	n/a	n/a	n/a	n/a	n/a	"fixation"	n/a	n/a	n/a	n/a	"NULL"	n/a	"NULL"	"NULL"	"NULL"	"<p style=\"color: black; font-size: 80px; padding-left: 24%; padding-right: 17%; padding-top: 29%; padding-bottom: 2%\">+</p>"	"1385"	n/a	n/a	n/a	n/a	n/a	n/a	n/a	n/a	n/a
n/a	"image-keyboard-response"	"31"	"168304"	"0.0-4.0-2.0-2.0-1.4"	"u20r5h"	"600"	"1366"	"chrome"	"111.0.0"	"FALSE"	"Windows 10"	"60.14"	"051"	n/a	n/a	n/a	n/a	n/a	n/a	"Trial"	n/a	n/a	n/a	"529"	"arrowdown"	n/a	"NULL"	"NULL"	"NULL"	"stimuli/MullerLyer_2300000_-0.7000.png"	n/a	"MullerLyer"	"arrowdown"	"1395"	"TRUE"	"MullerLyer"	"230000000000"	"-0.700000000"	"1"	"11"
n/a	"html-keyboard-response"	"32"	"169623"	"0.0-4.0-2.0-2.0-0.5"	"u20r5h"	"600"	"1366"	"chrome"	"111.0.0"	"FALSE"	"Windows 10"	"60.14"	"051"	n/a	n/a	n/a	n/a	n/a	n/a	"fixation"	n/a	n/a	n/a	n/a	"NULL"	n/a	"NULL"	"NULL"	"NULL"	"<p style=\"color: black; font-size: 80px; padding-left: 18%; padding-right: 4%; padding-top: 32%; padding-bottom: 19%\">+</p>"	"1309"	n/a	n/a	n/a	n/a	n/a	n/a	n/a	n/a	n/a
n/a	"image-keyboard-response"	"33"	"170030"	"0.0-4.0-2.0-2.0-1.5"	"u20r5h"	"600"	"1366"	"chrome"	"111.0.0"	"FALSE"	"Windows 10"	"60.14"	"051"	n/a	n/a	n/a	n/a	n/a	n/a	"Trial"	n/a	n/a	n/a	"406"	"arrowdown"	n/a	"NULL"	"NULL"	"NULL"	"stimuli/MullerLyer_0000000_-0.7000.png"	n/a	"MullerLyer"	"arrowdown"	"1319"	"TRUE"	"MullerLyer"	"000000000000"	"-0.700000000"	"1"	"12"
n/a	"html-button-response"	"34"	"175674"	"0.0-4.0-2.0-3.0"	"u20r5h"	"600"	"1366"	"chrome"	"111.0.0"	"FALSE"	"Windows 10"	"60.14"	"051"	n/a	n/a	n/a	n/a	n/a	n/a	"practice_block_results"	n/a	n/a	n/a	"5640"	"0"	n/a	"NULL"	"NULL"	"NULL"	"<p style='color:rgb(76,175,80);'> Correct Responses: <b>100.00%</b></p><hr><p style='color:rgb(233,30,99);'> Average Response Time: <b>490.17</b> ms.</p>"	n/a	n/a	n/a	n/a	n/a	n/a	n/a	n/a	n/a	n/a
"TRUE"	"preload"	"35"	"176203"	"0.0-4.0-3.0-0.0"	"u20r5h"	"600"	"1366"	"chrome"	"111.0.0"	"FALSE"	"Windows 10"	"60.14"	"051"	n/a	n/a	n/a	n/a	n/a	n/a	n/a	n/a	n/a	n/a	n/a	"NULL"	"FALSE"	"list()"	"list()"	"list()"	n/a	n/a	n/a	n/a	n/a	n/a	n/a	n/a	n/a	n/a	n/a
n/a	"html-keyboard-response"	"36"	"186697"	"0.0-4.0-3.0-1.0"	"u20r5h"	"600"	"1366"	"chrome"	"111.0.0"	"FALSE"	"Windows 10"	"60.14"	"051"	n/a	n/a	n/a	n/a	n/a	n/a	n/a	n/a	n/a	n/a	"10493"	"enter"	n/a	"NULL"	"NULL"	"NULL"	"<p><b>Practice</b></p><p>In this part, two red lines will appear side by side.</p><p>Your task is to tell <b>which line is longer</b> in length, regardless of their orientation, as fast as you can, and without making errors.</p><p>Don't get distracted by the orientation of the lines!</p><p>Press <b>the LEFT or the RIGHT arrow</b> to indicate which <b>line is the longer one.</b></p><div style='float: center'><img src='materials/instructions/VerticalHorizontal_Demo.png' height='300'></img><p><img src='utils/answer/answer_leftright_keyboard.PNG' height='150'></img></p><p class='small'>In this example, the correct answer is the <b>LEFT arrow</b>.</p></div><p>Are you ready? <b>Press ENTER to start</b></p>"	n/a	n/a	n/a	n/a	n/a	n/a	n/a	n/a	n/a	n/a
n/a	"html-keyboard-response"	"37"	"188357"	"0.0-4.0-3.0-2.0-0.0"	"u20r5h"	"600"	"1366"	"chrome"	"111.0.0"	"FALSE"	"Windows 10"	"60.14"	"051"	n/a	n/a	n/a	n/a	n/a	n/a	"fixation"	n/a	n/a	n/a	n/a	"NULL"	n/a	"NULL"	"NULL"	"NULL"	"<p style=\"color: black; font-size: 80px; padding-left: 39%; padding-right: 40%; padding-top: 23%; padding-bottom: 23%\">+</p>"	"1148"	n/a	n/a	n/a	n/a	n/a	n/a	n/a	n/a	n/a
n/a	"image-keyboard-response"	"38"	"188747"	"0.0-4.0-3.0-2.0-1.0"	"u20r5h"	"600"	"1366"	"chrome"	"111.0.0"	"FALSE"	"Windows 10"	"60.14"	"051"	n/a	n/a	n/a	n/a	n/a	n/a	"Trial"	n/a	n/a	n/a	"389"	"arrowleft"	n/a	"NULL"	"NULL"	"NULL"	"stimuli/VerticalHorizontal_-330000_0.90000.png"	n/a	"VerticalHorizontal"	"arrowleft"	"1660"	"TRUE"	"VerticalHorizontal"	"-33000000000"	"0.9000000000"	"1"	"13"
n/a	"html-keyboard-response"	"39"	"189809"	"0.0-4.0-3.0-2.0-0.1"	"u20r5h"	"600"	"1366"	"chrome"	"111.0.0"	"FALSE"	"Windows 10"	"60.14"	"051"	n/a	n/a	n/a	n/a	n/a	n/a	"fixation"	n/a	n/a	n/a	n/a	"NULL"	n/a	"NULL"	"NULL"	"NULL"	"<p style=\"color: black; font-size: 80px; padding-left: 13%; padding-right: 44%; padding-top: 33%; padding-bottom: 15%\">+</p>"	"1060"	n/a	n/a	n/a	n/a	n/a	n/a	n/a	n/a	n/a
n/a	"image-keyboard-response"	"40"	"190120"	"0.0-4.0-3.0-2.0-1.1"	"u20r5h"	"600"	"1366"	"chrome"	"111.0.0"	"FALSE"	"Windows 10"	"60.14"	"051"	n/a	n/a	n/a	n/a	n/a	n/a	"Trial"	n/a	n/a	n/a	"310"	"arrowright"	n/a	"NULL"	"NULL"	"NULL"	"stimuli/VerticalHorizontal_3300000_-0.9000.png"	n/a	"VerticalHorizontal"	"arrowright"	"1062"	"TRUE"	"VerticalHorizontal"	"330000000000"	"-0.900000000"	"1"	"14"
n/a	"html-keyboard-response"	"41"	"191262"	"0.0-4.0-3.0-2.0-0.2"	"u20r5h"	"600"	"1366"	"chrome"	"111.0.0"	"FALSE"	"Windows 10"	"60.14"	"051"	n/a	n/a	n/a	n/a	n/a	n/a	"fixation"	n/a	n/a	n/a	n/a	"NULL"	n/a	"NULL"	"NULL"	"NULL"	"<p style=\"color: black; font-size: 80px; padding-left: 44%; padding-right: 39%; padding-top: 27%; padding-bottom: 31%\">+</p>"	"1131"	n/a	n/a	n/a	n/a	n/a	n/a	n/a	n/a	n/a
n/a	"image-keyboard-response"	"42"	"191570"	"0.0-4.0-3.0-2.0-1.2"	"u20r5h"	"600"	"1366"	"chrome"	"111.0.0"	"FALSE"	"Windows 10"	"60.14"	"051"	n/a	n/a	n/a	n/a	n/a	n/a	"Trial"	n/a	n/a	n/a	"307"	"arrowright"	n/a	"NULL"	"NULL"	"NULL"	"stimuli/VerticalHorizontal_0000000_-0.9000.png"	n/a	"VerticalHorizontal"	"arrowright"	"1142"	"TRUE"	"VerticalHorizontal"	"000000000000"	"-0.900000000"	"1"	"15"
n/a	"html-keyboard-response"	"43"	"192858"	"0.0-4.0-3.0-2.0-0.3"	"u20r5h"	"600"	"1366"	"chrome"	"111.0.0"	"FALSE"	"Windows 10"	"60.14"	"051"	n/a	n/a	n/a	n/a	n/a	n/a	"fixation"	n/a	n/a	n/a	n/a	"NULL"	n/a	"NULL"	"NULL"	"NULL"	"<p style=\"color: black; font-size: 80px; padding-left: 41%; padding-right: 40%; padding-top: 21%; padding-bottom: 34%\">+</p>"	"1278"	n/a	n/a	n/a	n/a	n/a	n/a	n/a	n/a	n/a
n/a	"image-keyboard-response"	"44"	"193184"	"0.0-4.0-3.0-2.0-1.3"	"u20r5h"	"600"	"1366"	"chrome"	"111.0.0"	"FALSE"	"Windows 10"	"60.14"	"051"	n/a	n/a	n/a	n/a	n/a	n/a	"Trial"	n/a	n/a	n/a	"326"	"arrowright"	n/a	"NULL"	"NULL"	"NULL"	"stimuli/VerticalHorizontal_3300000_0.90000.png"	n/a	"VerticalHorizontal"	"arrowleft"	"1288"	"FALSE"	"VerticalHorizontal"	"330000000000"	"0.9000000000"	"1"	"16"
n/a	"html-keyboard-response"	"45"	"194442"	"0.0-4.0-3.0-2.0-0.4"	"u20r5h"	"600"	"1366"	"chrome"	"111.0.0"	"FALSE"	"Windows 10"	"60.14"	"051"	n/a	n/a	n/a	n/a	n/a	n/a	"fixation"	n/a	n/a	n/a	n/a	"NULL"	n/a	"NULL"	"NULL"	"NULL"	"<p style=\"color: black; font-size: 80px; padding-left: 1%; padding-right: 9%; padding-top: 11%; padding-bottom: 3%\">+</p>"	"1253"	n/a	n/a	n/a	n/a	n/a	n/a	n/a	n/a	n/a
n/a	"image-keyboard-response"	"46"	"194776"	"0.0-4.0-3.0-2.0-1.4"	"u20r5h"	"600"	"1366"	"chrome"	"111.0.0"	"FALSE"	"Windows 10"	"60.14"	"051"	n/a	n/a	n/a	n/a	n/a	n/a	"Trial"	n/a	n/a	n/a	"333"	"arrowright"	n/a	"NULL"	"NULL"	"NULL"	"stimuli/VerticalHorizontal_-330000_-0.9000.png"	n/a	"VerticalHorizontal"	"arrowright"	"1258"	"TRUE"	"VerticalHorizontal"	"-33000000000"	"-0.900000000"	"1"	"17"
n/a	"html-keyboard-response"	"47"	"196252"	"0.0-4.0-3.0-2.0-0.5"	"u20r5h"	"600"	"1366"	"chrome"	"111.0.0"	"FALSE"	"Windows 10"	"60.14"	"051"	n/a	n/a	n/a	n/a	n/a	n/a	"fixation"	n/a	n/a	n/a	n/a	"NULL"	n/a	"NULL"	"NULL"	"NULL"	"<p style=\"color: black; font-size: 80px; padding-left: 38%; padding-right: 3%; padding-top: 21%; padding-bottom: 19%\">+</p>"	"1472"	n/a	n/a	n/a	n/a	n/a	n/a	n/a	n/a	n/a
n/a	"image-keyboard-response"	"48"	"196606"	"0.0-4.0-3.0-2.0-1.5"	"u20r5h"	"600"	"1366"	"chrome"	"111.0.0"	"FALSE"	"Windows 10"	"60.14"	"051"	n/a	n/a	n/a	n/a	n/a	n/a	"Trial"	n/a	n/a	n/a	"353"	"arrowleft"	n/a	"NULL"	"NULL"	"NULL"	"stimuli/VerticalHorizontal_0000000_0.90000.png"	n/a	"VerticalHorizontal"	"arrowleft"	"1476"	"TRUE"	"VerticalHorizontal"	"000000000000"	"0.9000000000"	"1"	"18"
n/a	"html-button-response"	"49"	"201490"	"0.0-4.0-3.0-3.0"	"u20r5h"	"600"	"1366"	"chrome"	"111.0.0"	"FALSE"	"Windows 10"	"60.14"	"051"	n/a	n/a	n/a	n/a	n/a	n/a	"practice_block_results"	n/a	n/a	n/a	"4882"	"0"	n/a	"NULL"	"NULL"	"NULL"	"<p style='color:rgb(76,175,80);'> Correct Responses: <b>83.33%</b></p><hr><p style='color:rgb(233,30,99);'> Average Response Time: <b>336.33</b> ms.</p>"	n/a	n/a	n/a	n/a	n/a	n/a	n/a	n/a	n/a	n/a
n/a	"html-button-response"	"50"	"283171"	"0.0-4.0-4.0"	"u20r5h"	"600"	"1366"	"chrome"	"111.0.0"	"FALSE"	"Windows 10"	"60.14"	"051"	n/a	n/a	n/a	n/a	n/a	n/a	"practice_debrief"	n/a	n/a	n/a	"81173"	"0"	n/a	"NULL"	"NULL"	"NULL"	"<p><b>TRAINING COMPLETED</b></p><p>In the next phase, there will be more trials, and some might be harder too.<br> Moreover, after each illusion block, a <b>score</b> will be calculated based on speed (time you took to answer) and accuracy (number of errors).</p><p>Try to keep up a high score!</p><br><p>Note that it can be <i>really</i> challenging at times, so you will need to rely on your <b>intuition</b> and gut feeling to answer as fast as you can without making errors.</p><p>Each illusion block will be repeated two times (so that you have the opportunity to improve your score), but the order of the blocks is random.</p><p>Remember, your goal is to be as <b>fast</b> and <b>accurate</b> as possible. Good luck!</p><br>"	n/a	n/a	n/a	n/a	n/a	n/a	n/a	n/a	n/a	n/a
"TRUE"	"preload"	"51"	"283355"	"0.0-5.0-0.0"	"u20r5h"	"600"	"1366"	"chrome"	"111.0.0"	"FALSE"	"Windows 10"	"60.14"	"051"	n/a	n/a	n/a	n/a	n/a	n/a	n/a	n/a	n/a	n/a	n/a	"NULL"	"FALSE"	"list()"	"list()"	"list()"	n/a	n/a	n/a	n/a	n/a	n/a	n/a	n/a	n/a	n/a	n/a
n/a	"html-keyboard-response"	"52"	"290549"	"0.0-5.0-1.0"	"u20r5h"	"600"	"1366"	"chrome"	"111.0.0"	"FALSE"	"Windows 10"	"60.14"	"051"	n/a	n/a	n/a	n/a	n/a	n/a	n/a	n/a	n/a	n/a	"7194"	"enter"	n/a	"NULL"	"NULL"	"NULL"	"<p><b>Part 1/6</b></p><p>In this part, two horizontal red lines will appear one above the other.</p><p>Your task is to select which <b>line is longer</b> in length as fast as you can, without making errors.</p><p>Don't get distracted by the surrounding black arrows at the end of the red lines!</p><p>Press <b>the UP or the DOWN arrow</b> to indicate where is the longer <b>red line.</b></p><div style='float: center'><img src='materials/instructions/MullerLyer_Demo.png' height='300'></img><p><img src='utils/answer/answer_updown_keyboard.PNG' height='150'></img></p><p class='small'>In this example, the correct answer is the <b>UP arrow</b>.</p></div><p>Are you ready? <b>Press ENTER to start</b></p>"	n/a	n/a	n/a	n/a	n/a	n/a	n/a	n/a	n/a	n/a
n/a	"html-keyboard-response"	"53"	"292068"	"0.0-5.0-2.0-0.0"	"u20r5h"	"600"	"1366"	"chrome"	"111.0.0"	"FALSE"	"Windows 10"	"60.14"	"051"	n/a	n/a	n/a	n/a	n/a	n/a	"fixation"	n/a	n/a	n/a	n/a	"NULL"	n/a	"NULL"	"NULL"	"NULL"	"<p style=\"color: black; font-size: 80px; padding-left: 32%; padding-right: 26%; padding-top: 11%; padding-bottom: 4%\">+</p>"	"1002"	n/a	n/a	n/a	n/a	n/a	n/a	n/a	n/a	n/a
n/a	"image-keyboard-response"	"54"	"292490"	"0.0-5.0-2.0-1.0"	"u20r5h"	"600"	"1366"	"chrome"	"111.0.0"	"FALSE"	"Windows 10"	"60.14"	"051"	n/a	n/a	n/a	n/a	n/a	n/a	"Trial"	n/a	n/a	n/a	"422"	"arrowdown"	n/a	"NULL"	"NULL"	"NULL"	"stimuli/MullerLyer_-8.21429_-0.3500.png"	n/a	"MullerLyer"	"arrowdown"	"1519"	"TRUE"	"MullerLyer"	"-8.214290000"	"-0.350000000"	"1"	"19"
n/a	"html-keyboard-response"	"55"	"293706"	"0.0-5.0-2.0-0.1"	"u20r5h"	"600"	"1366"	"chrome"	"111.0.0"	"FALSE"	"Windows 10"	"60.14"	"051"	n/a	n/a	n/a	n/a	n/a	n/a	"fixation"	n/a	n/a	n/a	n/a	"NULL"	n/a	"NULL"	"NULL"	"NULL"	"<p style=\"color: black; font-size: 80px; padding-left: 25%; padding-right: 49%; padding-top: 3%; padding-bottom: 44%\">+</p>"	"1201"	n/a	n/a	n/a	n/a	n/a	n/a	n/a	n/a	n/a
n/a	"image-keyboard-response"	"56"	"294175"	"0.0-5.0-2.0-1.1"	"u20r5h"	"600"	"1366"	"chrome"	"111.0.0"	"FALSE"	"Windows 10"	"60.14"	"051"	n/a	n/a	n/a	n/a	n/a	n/a	"Trial"	n/a	n/a	n/a	"468"	"arrowup"	n/a	"NULL"	"NULL"	"NULL"	"stimuli/MullerLyer_2.30000_0.07627.png"	n/a	"MullerLyer"	"arrowup"	"1216"	"TRUE"	"MullerLyer"	"2.3000000000"	"0.0762700000"	"1"	"20"
n/a	"html-keyboard-response"	"57"	"295441"	"0.0-5.0-2.0-0.2"	"u20r5h"	"600"	"1366"	"chrome"	"111.0.0"	"FALSE"	"Windows 10"	"60.14"	"051"	n/a	n/a	n/a	n/a	n/a	n/a	"fixation"	n/a	n/a	n/a	n/a	"NULL"	n/a	"NULL"	"NULL"	"NULL"	"<p style=\"color: black; font-size: 80px; padding-left: 3%; padding-right: 37%; padding-top: 49%; padding-bottom: 5%\">+</p>"	"1254"	n/a	n/a	n/a	n/a	n/a	n/a	n/a	n/a	n/a
n/a	"image-keyboard-response"	"58"	"295931"	"0.0-5.0-2.0-1.2"	"u20r5h"	"600"	"1366"	"chrome"	"111.0.0"	"FALSE"	"Windows 10"	"60.14"	"051"	n/a	n/a	n/a	n/a	n/a	n/a	"Trial"	n/a	n/a	n/a	"490"	"arrowup"	n/a	"NULL"	"NULL"	"NULL"	"stimuli/MullerLyer_8.21429_-0.14541.png"	n/a	"MullerLyer"	"arrowdown"	"1266"	"FALSE"	"MullerLyer"	"8.2142900000"	"-0.145410000"	"1"	"21"
n/a	"html-keyboard-response"	"59"	"297146"	"0.0-5.0-2.0-0.3"	"u20r5h"	"600"	"1366"	"chrome"	"111.0.0"	"FALSE"	"Windows 10"	"60.14"	"051"	n/a	n/a	n/a	n/a	n/a	n/a	"fixation"	n/a	n/a	n/a	n/a	"NULL"	n/a	"NULL"	"NULL"	"NULL"	"<p style=\"color: black; font-size: 80px; padding-left: 27%; padding-right: 44%; padding-top: 19%; padding-bottom: 46%\">+</p>"	"1205"	n/a	n/a	n/a	n/a	n/a	n/a	n/a	n/a	n/a
n/a	"image-keyboard-response"	"60"	"297709"	"0.0-5.0-2.0-1.3"	"u20r5h"	"600"	"1366"	"chrome"	"111.0.0"	"FALSE"	"Windows 10"	"60.14"	"051"	n/a	n/a	n/a	n/a	n/a	n/a	"Trial"	n/a	n/a	n/a	"562"	"arrowup"	n/a	"NULL"	"NULL"	"NULL"	"stimuli/MullerLyer_14.12857_-0.23665.png"	n/a	"MullerLyer"	"arrowdown"	"1215"	"FALSE"	"MullerLyer"	"14.128570000"	"-0.236650000"	"1"	"22"
n/a	"html-keyboard-response"	"61"	"298952"	"0.0-5.0-2.0-0.4"	"u20r5h"	"600"	"1366"	"chrome"	"111.0.0"	"FALSE"	"Windows 10"	"60.14"	"051"	n/a	n/a	n/a	n/a	n/a	n/a	"fixation"	n/a	n/a	n/a	n/a	"NULL"	n/a	"NULL"	"NULL"	"NULL"	"<p style=\"color: black; font-size: 80px; padding-left: 11%; padding-right: 35%; padding-top: 2%; padding-bottom: 12%\">+</p>"	"1241"	n/a	n/a	n/a	n/a	n/a	n/a	n/a	n/a	n/a
n/a	"image-keyboard-response"	"62"	"299662"	"0.0-5.0-2.0-1.4"	"u20r5h"	"600"	"1366"	"chrome"	"111.0.0"	"FALSE"	"Windows 10"	"60.14"	"051"	n/a	n/a	n/a	n/a	n/a	n/a	"Trial"	n/a	n/a	n/a	"708"	"arrowup"	n/a	"NULL"	"NULL"	"NULL"	"stimuli/MullerLyer_14.12857_-0.3500.png"	n/a	"MullerLyer"	"arrowdown"	"1243"	"FALSE"	"MullerLyer"	"14.128570000"	"-0.350000000"	"1"	"23"
n/a	"html-keyboard-response"	"63"	"301121"	"0.0-5.0-2.0-0.5"	"u20r5h"	"600"	"1366"	"chrome"	"111.0.0"	"FALSE"	"Windows 10"	"60.14"	"051"	n/a	n/a	n/a	n/a	n/a	n/a	"fixation"	n/a	n/a	n/a	n/a	"NULL"	n/a	"NULL"	"NULL"	"NULL"	"<p style=\"color: black; font-size: 80px; padding-left: 32%; padding-right: 17%; padding-top: 25%; padding-bottom: 16%\">+</p>"	"1446"	n/a	n/a	n/a	n/a	n/a	n/a	n/a	n/a	n/a
n/a	"image-keyboard-response"	"64"	"301957"	"0.0-5.0-2.0-1.5"	"u20r5h"	"600"	"1366"	"chrome"	"111.0.0"	"FALSE"	"Windows 10"	"60.14"	"051"	n/a	n/a	n/a	n/a	n/a	n/a	"Trial"	n/a	n/a	n/a	"835"	"arrowdown"	n/a	"NULL"	"NULL"	"NULL"	"stimuli/MullerLyer_14.12857_0.14541.png"	n/a	"MullerLyer"	"arrowup"	"1459"	"FALSE"	"MullerLyer"	"14.128570000"	"0.1454100000"	"1"	"24"
n/a	"html-keyboard-response"	"65"	"303200"	"0.0-5.0-2.0-0.6"	"u20r5h"	"600"	"1366"	"chrome"	"111.0.0"	"FALSE"	"Windows 10"	"60.14"	"051"	n/a	n/a	n/a	n/a	n/a	n/a	"fixation"	n/a	n/a	n/a	n/a	"NULL"	n/a	"NULL"	"NULL"	"NULL"	"<p style=\"color: black; font-size: 80px; padding-left: 14%; padding-right: 46%; padding-top: 23%; padding-bottom: 48%\">+</p>"	"1227"	n/a	n/a	n/a	n/a	n/a	n/a	n/a	n/a	n/a
n/a	"image-keyboard-response"	"66"	"303899"	"0.0-5.0-2.0-1.6"	"u20r5h"	"600"	"1366"	"chrome"	"111.0.0"	"FALSE"	"Windows 10"	"60.14"	"051"	n/a	n/a	n/a	n/a	n/a	n/a	"Trial"	n/a	n/a	n/a	"698"	"arrowup"	n/a	"NULL"	"NULL"	"NULL"	"stimuli/MullerLyer_20.04286_0.35000.png"	n/a	"MullerLyer"	"arrowup"	"1243"	"TRUE"	"MullerLyer"	"20.042860000"	"0.3500000000"	"1"	"25"
n/a	"html-keyboard-response"	"67"	"305030"	"0.0-5.0-2.0-0.7"	"u20r5h"	"600"	"1366"	"chrome"	"111.0.0"	"FALSE"	"Windows 10"	"60.14"	"051"	n/a	n/a	n/a	n/a	n/a	n/a	"fixation"	n/a	n/a	n/a	n/a	"NULL"	n/a	"NULL"	"NULL"	"NULL"	"<p style=\"color: black; font-size: 80px; padding-left: 14%; padding-right: 7%; padding-top: 3%; padding-bottom: 4%\">+</p>"	"1128"	n/a	n/a	n/a	n/a	n/a	n/a	n/a	n/a	n/a
n/a	"image-keyboard-response"	"68"	"305568"	"0.0-5.0-2.0-1.7"	"u20r5h"	"600"	"1366"	"chrome"	"111.0.0"	"FALSE"	"Windows 10"	"60.14"	"051"	n/a	n/a	n/a	n/a	n/a	n/a	"Trial"	n/a	n/a	n/a	"538"	"arrowup"	n/a	"NULL"	"NULL"	"NULL"	"stimuli/MullerLyer_2.30000_0.14541.png"	n/a	"MullerLyer"	"arrowup"	"1131"	"TRUE"	"MullerLyer"	"2.3000000000"	"0.1454100000"	"1"	"26"
n/a	"html-keyboard-response"	"69"	"306948"	"0.0-5.0-2.0-0.8"	"u20r5h"	"600"	"1366"	"chrome"	"111.0.0"	"FALSE"	"Windows 10"	"60.14"	"051"	n/a	n/a	n/a	n/a	n/a	n/a	"fixation"	n/a	n/a	n/a	n/a	"NULL"	n/a	"NULL"	"NULL"	"NULL"	"<p style=\"color: black; font-size: 80px; padding-left: 14%; padding-right: 27%; padding-top: 27%; padding-bottom: 10%\">+</p>"	"1373"	n/a	n/a	n/a	n/a	n/a	n/a	n/a	n/a	n/a
n/a	"image-keyboard-response"	"70"	"307436"	"0.0-5.0-2.0-1.8"	"u20r5h"	"600"	"1366"	"chrome"	"111.0.0"	"FALSE"	"Windows 10"	"60.14"	"051"	n/a	n/a	n/a	n/a	n/a	n/a	"Trial"	n/a	n/a	n/a	"487"	"arrowup"	n/a	"NULL"	"NULL"	"NULL"	"stimuli/MullerLyer_-14.12857_0.35000.png"	n/a	"MullerLyer"	"arrowup"	"1380"	"TRUE"	"MullerLyer"	"-14.12857000"	"0.3500000000"	"1"	"27"
n/a	"html-keyboard-response"	"71"	"308661"	"0.0-5.0-2.0-0.9"	"u20r5h"	"600"	"1366"	"chrome"	"111.0.0"	"FALSE"	"Windows 10"	"60.14"	"051"	n/a	n/a	n/a	n/a	n/a	n/a	"fixation"	n/a	n/a	n/a	n/a	"NULL"	n/a	"NULL"	"NULL"	"NULL"	"<p style=\"color: black; font-size: 80px; padding-left: 24%; padding-right: 23%; padding-top: 23%; padding-bottom: 33%\">+</p>"	"1214"	n/a	n/a	n/a	n/a	n/a	n/a	n/a	n/a	n/a
n/a	"image-keyboard-response"	"72"	"309101"	"0.0-5.0-2.0-1.9"	"u20r5h"	"600"	"1366"	"chrome"	"111.0.0"	"FALSE"	"Windows 10"	"60.14"	"051"	n/a	n/a	n/a	n/a	n/a	n/a	"Trial"	n/a	n/a	n/a	"440"	"arrowdown"	n/a	"NULL"	"NULL"	"NULL"	"stimuli/MullerLyer_-2.3000_-0.23665.png"	n/a	"MullerLyer"	"arrowdown"	"1225"	"TRUE"	"MullerLyer"	"-2.300000000"	"-0.236650000"	"1"	"28"
n/a	"html-keyboard-response"	"73"	"310399"	"0.0-5.0-2.0-0.10"	"u20r5h"	"600"	"1366"	"chrome"	"111.0.0"	"FALSE"	"Windows 10"	"60.14"	"051"	n/a	n/a	n/a	n/a	n/a	n/a	"fixation"	n/a	n/a	n/a	n/a	"NULL"	n/a	"NULL"	"NULL"	"NULL"	"<p style=\"color: black; font-size: 80px; padding-left: 47%; padding-right: 42%; padding-top: 48%; padding-bottom: 43%\">+</p>"	"1296"	n/a	n/a	n/a	n/a	n/a	n/a	n/a	n/a	n/a
n/a	"image-keyboard-response"	"74"	"310831"	"0.0-5.0-2.0-1.10"	"u20r5h"	"600"	"1366"	"chrome"	"111.0.0"	"FALSE"	"Windows 10"	"60.14"	"051"	n/a	n/a	n/a	n/a	n/a	n/a	"Trial"	n/a	n/a	n/a	"431"	"arrowup"	n/a	"NULL"	"NULL"	"NULL"	"stimuli/MullerLyer_-20.04286_0.23665.png"	n/a	"MullerLyer"	"arrowup"	"1298"	"TRUE"	"MullerLyer"	"-20.04286000"	"0.2366500000"	"1"	"29"
n/a	"html-keyboard-response"	"75"	"312226"	"0.0-5.0-2.0-0.11"	"u20r5h"	"600"	"1366"	"chrome"	"111.0.0"	"FALSE"	"Windows 10"	"60.14"	"051"	n/a	n/a	n/a	n/a	n/a	n/a	"fixation"	n/a	n/a	n/a	n/a	"NULL"	n/a	"NULL"	"NULL"	"NULL"	"<p style=\"color: black; font-size: 80px; padding-left: 42%; padding-right: 8%; padding-top: 4%; padding-bottom: 46%\">+</p>"	"1389"	n/a	n/a	n/a	n/a	n/a	n/a	n/a	n/a	n/a
n/a	"image-keyboard-response"	"76"	"312607"	"0.0-5.0-2.0-1.11"	"u20r5h"	"600"	"1366"	"chrome"	"111.0.0"	"FALSE"	"Windows 10"	"60.14"	"051"	n/a	n/a	n/a	n/a	n/a	n/a	"Trial"	n/a	n/a	n/a	"380"	"arrowup"	n/a	"NULL"	"NULL"	"NULL"	"stimuli/MullerLyer_-8.21429_0.14541.png"	n/a	"MullerLyer"	"arrowup"	"1395"	"TRUE"	"MullerLyer"	"-8.214290000"	"0.1454100000"	"1"	"30"
n/a	"html-keyboard-response"	"77"	"313694"	"0.0-5.0-2.0-0.12"	"u20r5h"	"600"	"1366"	"chrome"	"111.0.0"	"FALSE"	"Windows 10"	"60.14"	"051"	n/a	n/a	n/a	n/a	n/a	n/a	"fixation"	n/a	n/a	n/a	n/a	"NULL"	n/a	"NULL"	"NULL"	"NULL"	"<p style=\"color: black; font-size: 80px; padding-left: 36%; padding-right: 40%; padding-top: 46%; padding-bottom: 43%\">+</p>"	"1081"	n/a	n/a	n/a	n/a	n/a	n/a	n/a	n/a	n/a
n/a	"image-keyboard-response"	"78"	"314243"	"0.0-5.0-2.0-1.12"	"u20r5h"	"600"	"1366"	"chrome"	"111.0.0"	"FALSE"	"Windows 10"	"60.14"	"051"	n/a	n/a	n/a	n/a	n/a	n/a	"Trial"	n/a	n/a	n/a	"548"	"arrowdown"	n/a	"NULL"	"NULL"	"NULL"	"stimuli/MullerLyer_14.12857_0.35000.png"	n/a	"MullerLyer"	"arrowup"	"1087"	"FALSE"	"MullerLyer"	"14.128570000"	"0.3500000000"	"1"	"31"
n/a	"html-keyboard-response"	"79"	"315657"	"0.0-5.0-2.0-0.13"	"u20r5h"	"600"	"1366"	"chrome"	"111.0.0"	"FALSE"	"Windows 10"	"60.14"	"051"	n/a	n/a	n/a	n/a	n/a	n/a	"fixation"	n/a	n/a	n/a	n/a	"NULL"	n/a	"NULL"	"NULL"	"NULL"	"<p style=\"color: black; font-size: 80px; padding-left: 50%; padding-right: 20%; padding-top: 14%; padding-bottom: 23%\">+</p>"	"1404"	n/a	n/a	n/a	n/a	n/a	n/a	n/a	n/a	n/a
n/a	"image-keyboard-response"	"80"	"316024"	"0.0-5.0-2.0-1.13"	"u20r5h"	"600"	"1366"	"chrome"	"111.0.0"	"FALSE"	"Windows 10"	"60.14"	"051"	n/a	n/a	n/a	n/a	n/a	n/a	"Trial"	n/a	n/a	n/a	"366"	"arrowup"	n/a	"NULL"	"NULL"	"NULL"	"stimuli/MullerLyer_-8.21429_0.35000.png"	n/a	"MullerLyer"	"arrowup"	"1414"	"TRUE"	"MullerLyer"	"-8.214290000"	"0.3500000000"	"1"	"32"
n/a	"html-keyboard-response"	"81"	"317406"	"0.0-5.0-2.0-0.14"	"u20r5h"	"600"	"1366"	"chrome"	"111.0.0"	"FALSE"	"Windows 10"	"60.14"	"051"	n/a	n/a	n/a	n/a	n/a	n/a	"fixation"	n/a	n/a	n/a	n/a	"NULL"	n/a	"NULL"	"NULL"	"NULL"	"<p style=\"color: black; font-size: 80px; padding-left: 11%; padding-right: 14%; padding-top: 20%; padding-bottom: 12%\">+</p>"	"1374"	n/a	n/a	n/a	n/a	n/a	n/a	n/a	n/a	n/a
n/a	"image-keyboard-response"	"82"	"317829"	"0.0-5.0-2.0-1.14"	"u20r5h"	"600"	"1366"	"chrome"	"111.0.0"	"FALSE"	"Windows 10"	"60.14"	"051"	n/a	n/a	n/a	n/a	n/a	n/a	"Trial"	n/a	n/a	n/a	"422"	"arrowup"	n/a	"NULL"	"NULL"	"NULL"	"stimuli/MullerLyer_-20.04286_0.07627.png"	n/a	"MullerLyer"	"arrowup"	"1382"	"TRUE"	"MullerLyer"	"-20.04286000"	"0.0762700000"	"1"	"33"
n/a	"html-keyboard-response"	"83"	"318952"	"0.0-5.0-2.0-0.15"	"u20r5h"	"600"	"1366"	"chrome"	"111.0.0"	"FALSE"	"Windows 10"	"60.14"	"051"	n/a	n/a	n/a	n/a	n/a	n/a	"fixation"	n/a	n/a	n/a	n/a	"NULL"	n/a	"NULL"	"NULL"	"NULL"	"<p style=\"color: black; font-size: 80px; padding-left: 32%; padding-right: 7%; padding-top: 44%; padding-bottom: 10%\">+</p>"	"1111"	n/a	n/a	n/a	n/a	n/a	n/a	n/a	n/a	n/a
n/a	"image-keyboard-response"	"84"	"319367"	"0.0-5.0-2.0-1.15"	"u20r5h"	"600"	"1366"	"chrome"	"111.0.0"	"FALSE"	"Windows 10"	"60.14"	"051"	n/a	n/a	n/a	n/a	n/a	n/a	"Trial"	n/a	n/a	n/a	"414"	"arrowdown"	n/a	"NULL"	"NULL"	"NULL"	"stimuli/MullerLyer_-14.12857_-0.07627.png"	n/a	"MullerLyer"	"arrowdown"	"1123"	"TRUE"	"MullerLyer"	"-14.12857000"	"-0.076270000"	"1"	"34"
n/a	"html-keyboard-response"	"85"	"320870"	"0.0-5.0-2.0-0.16"	"u20r5h"	"600"	"1366"	"chrome"	"111.0.0"	"FALSE"	"Windows 10"	"60.14"	"051"	n/a	n/a	n/a	n/a	n/a	n/a	"fixation"	n/a	n/a	n/a	n/a	"NULL"	n/a	"NULL"	"NULL"	"NULL"	"<p style=\"color: black; font-size: 80px; padding-left: 27%; padding-right: 12%; padding-top: 27%; padding-bottom: 5%\">+</p>"	"1500"	n/a	n/a	n/a	n/a	n/a	n/a	n/a	n/a	n/a
n/a	"image-keyboard-response"	"86"	"321448"	"0.0-5.0-2.0-1.16"	"u20r5h"	"600"	"1366"	"chrome"	"111.0.0"	"FALSE"	"Windows 10"	"60.14"	"051"	n/a	n/a	n/a	n/a	n/a	n/a	"Trial"	n/a	n/a	n/a	"578"	"arrowdown"	n/a	"NULL"	"NULL"	"NULL"	"stimuli/MullerLyer_8.21429_-0.23665.png"	n/a	"MullerLyer"	"arrowdown"	"1503"	"TRUE"	"MullerLyer"	"8.2142900000"	"-0.236650000"	"1"	"35"
n/a	"html-keyboard-response"	"87"	"322464"	"0.0-5.0-2.0-0.17"	"u20r5h"	"600"	"1366"	"chrome"	"111.0.0"	"FALSE"	"Windows 10"	"60.14"	"051"	n/a	n/a	n/a	n/a	n/a	n/a	"fixation"	n/a	n/a	n/a	n/a	"NULL"	n/a	"NULL"	"NULL"	"NULL"	"<p style=\"color: black; font-size: 80px; padding-left: 38%; padding-right: 17%; padding-top: 30%; padding-bottom: 37%\">+</p>"	"1010"	n/a	n/a	n/a	n/a	n/a	n/a	n/a	n/a	n/a
n/a	"image-keyboard-response"	"88"	"323059"	"0.0-5.0-2.0-1.17"	"u20r5h"	"600"	"1366"	"chrome"	"111.0.0"	"FALSE"	"Windows 10"	"60.14"	"051"	n/a	n/a	n/a	n/a	n/a	n/a	"Trial"	n/a	n/a	n/a	"593"	"arrowup"	n/a	"NULL"	"NULL"	"NULL"	"stimuli/MullerLyer_-2.3000_0.07627.png"	n/a	"MullerLyer"	"arrowup"	"1016"	"TRUE"	"MullerLyer"	"-2.300000000"	"0.0762700000"	"1"	"36"
n/a	"html-keyboard-response"	"89"	"324543"	"0.0-5.0-2.0-0.18"	"u20r5h"	"600"	"1366"	"chrome"	"111.0.0"	"FALSE"	"Windows 10"	"60.14"	"051"	n/a	n/a	n/a	n/a	n/a	n/a	"fixation"	n/a	n/a	n/a	n/a	"NULL"	n/a	"NULL"	"NULL"	"NULL"	"<p style=\"color: black; font-size: 80px; padding-left: 29%; padding-right: 20%; padding-top: 6%; padding-bottom: 28%\">+</p>"	"1472"	n/a	n/a	n/a	n/a	n/a	n/a	n/a	n/a	n/a
n/a	"image-keyboard-response"	"90"	"324997"	"0.0-5.0-2.0-1.18"	"u20r5h"	"600"	"1366"	"chrome"	"111.0.0"	"FALSE"	"Windows 10"	"60.14"	"051"	n/a	n/a	n/a	n/a	n/a	n/a	"Trial"	n/a	n/a	n/a	"453"	"arrowdown"	n/a	"NULL"	"NULL"	"NULL"	"stimuli/MullerLyer_20.04286_-0.23665.png"	n/a	"MullerLyer"	"arrowdown"	"1484"	"TRUE"	"MullerLyer"	"20.042860000"	"-0.236650000"	"1"	"37"
n/a	"html-keyboard-response"	"91"	"326448"	"0.0-5.0-2.0-0.19"	"u20r5h"	"600"	"1366"	"chrome"	"111.0.0"	"FALSE"	"Windows 10"	"60.14"	"051"	n/a	n/a	n/a	n/a	n/a	n/a	"fixation"	n/a	n/a	n/a	n/a	"NULL"	n/a	"NULL"	"NULL"	"NULL"	"<p style=\"color: black; font-size: 80px; padding-left: 50%; padding-right: 15%; padding-top: 31%; padding-bottom: 7%\">+</p>"	"1435"	n/a	n/a	n/a	n/a	n/a	n/a	n/a	n/a	n/a
n/a	"image-keyboard-response"	"92"	"326962"	"0.0-5.0-2.0-1.19"	"u20r5h"	"600"	"1366"	"chrome"	"111.0.0"	"FALSE"	"Windows 10"	"60.14"	"051"	n/a	n/a	n/a	n/a	n/a	n/a	"Trial"	n/a	n/a	n/a	"514"	"arrowup"	n/a	"NULL"	"NULL"	"NULL"	"stimuli/MullerLyer_2.30000_0.35000.png"	n/a	"MullerLyer"	"arrowup"	"1451"	"TRUE"	"MullerLyer"	"2.3000000000"	"0.3500000000"	"1"	"38"
n/a	"html-keyboard-response"	"93"	"328342"	"0.0-5.0-2.0-0.20"	"u20r5h"	"600"	"1366"	"chrome"	"111.0.0"	"FALSE"	"Windows 10"	"60.14"	"051"	n/a	n/a	n/a	n/a	n/a	n/a	"fixation"	n/a	n/a	n/a	n/a	"NULL"	n/a	"NULL"	"NULL"	"NULL"	"<p style=\"color: black; font-size: 80px; padding-left: 15%; padding-right: 2%; padding-top: 3%; padding-bottom: 49%\">+</p>"	"1370"	n/a	n/a	n/a	n/a	n/a	n/a	n/a	n/a	n/a
n/a	"image-keyboard-response"	"94"	"328777"	"0.0-5.0-2.0-1.20"	"u20r5h"	"600"	"1366"	"chrome"	"111.0.0"	"FALSE"	"Windows 10"	"60.14"	"051"	n/a	n/a	n/a	n/a	n/a	n/a	"Trial"	n/a	n/a	n/a	"434"	"arrowdown"	n/a	"NULL"	"NULL"	"NULL"	"stimuli/MullerLyer_2.30000_-0.3500.png"	n/a	"MullerLyer"	"arrowdown"	"1380"	"TRUE"	"MullerLyer"	"2.3000000000"	"-0.350000000"	"1"	"39"
n/a	"html-keyboard-response"	"95"	"329919"	"0.0-5.0-2.0-0.21"	"u20r5h"	"600"	"1366"	"chrome"	"111.0.0"	"FALSE"	"Windows 10"	"60.14"	"051"	n/a	n/a	n/a	n/a	n/a	n/a	"fixation"	n/a	n/a	n/a	n/a	"NULL"	n/a	"NULL"	"NULL"	"NULL"	"<p style=\"color: black; font-size: 80px; padding-left: 32%; padding-right: 34%; padding-top: 2%; padding-bottom: 29%\">+</p>"	"1127"	n/a	n/a	n/a	n/a	n/a	n/a	n/a	n/a	n/a
n/a	"image-keyboard-response"	"96"	"330404"	"0.0-5.0-2.0-1.21"	"u20r5h"	"600"	"1366"	"chrome"	"111.0.0"	"FALSE"	"Windows 10"	"60.14"	"051"	n/a	n/a	n/a	n/a	n/a	n/a	"Trial"	n/a	n/a	n/a	"484"	"arrowup"	n/a	"NULL"	"NULL"	"NULL"	"stimuli/MullerLyer_2.30000_0.23665.png"	n/a	"MullerLyer"	"arrowup"	"1142"	"TRUE"	"MullerLyer"	"2.3000000000"	"0.2366500000"	"1"	"40"
n/a	"html-keyboard-response"	"97"	"331816"	"0.0-5.0-2.0-0.22"	"u20r5h"	"600"	"1366"	"chrome"	"111.0.0"	"FALSE"	"Windows 10"	"60.14"	"051"	n/a	n/a	n/a	n/a	n/a	n/a	"fixation"	n/a	n/a	n/a	n/a	"NULL"	n/a	"NULL"	"NULL"	"NULL"	"<p style=\"color: black; font-size: 80px; padding-left: 28%; padding-right: 1%; padding-top: 36%; padding-bottom: 31%\">+</p>"	"1400"	n/a	n/a	n/a	n/a	n/a	n/a	n/a	n/a	n/a
n/a	"image-keyboard-response"	"98"	"332431"	"0.0-5.0-2.0-1.22"	"u20r5h"	"600"	"1366"	"chrome"	"111.0.0"	"FALSE"	"Windows 10"	"60.14"	"051"	n/a	n/a	n/a	n/a	n/a	n/a	"Trial"	n/a	n/a	n/a	"615"	"arrowdown"	n/a	"NULL"	"NULL"	"NULL"	"stimuli/MullerLyer_-8.21429_-0.07627.png"	n/a	"MullerLyer"	"arrowdown"	"1412"	"TRUE"	"MullerLyer"	"-8.214290000"	"-0.076270000"	"1"	"41"
n/a	"html-keyboard-response"	"99"	"333732"	"0.0-5.0-2.0-0.23"	"u20r5h"	"600"	"1366"	"chrome"	"111.0.0"	"FALSE"	"Windows 10"	"60.14"	"051"	n/a	n/a	n/a	n/a	n/a	n/a	"fixation"	n/a	n/a	n/a	n/a	"NULL"	n/a	"NULL"	"NULL"	"NULL"	"<p style=\"color: black; font-size: 80px; padding-left: 41%; padding-right: 3%; padding-top: 15%; padding-bottom: 3%\">+</p>"	"1289"	n/a	n/a	n/a	n/a	n/a	n/a	n/a	n/a	n/a
n/a	"image-keyboard-response"	"100"	"334193"	"0.0-5.0-2.0-1.23"	"u20r5h"	"600"	"1366"	"chrome"	"111.0.0"	"FALSE"	"Windows 10"	"60.14"	"051"	n/a	n/a	n/a	n/a	n/a	n/a	"Trial"	n/a	n/a	n/a	"461"	"arrowup"	n/a	"NULL"	"NULL"	"NULL"	"stimuli/MullerLyer_-14.12857_0.14541.png"	n/a	"MullerLyer"	"arrowup"	"1301"	"TRUE"	"MullerLyer"	"-14.12857000"	"0.1454100000"	"1"	"42"
n/a	"html-keyboard-response"	"101"	"335628"	"0.0-5.0-2.0-0.24"	"u20r5h"	"600"	"1366"	"chrome"	"111.0.0"	"FALSE"	"Windows 10"	"60.14"	"051"	n/a	n/a	n/a	n/a	n/a	n/a	"fixation"	n/a	n/a	n/a	n/a	"NULL"	n/a	"NULL"	"NULL"	"NULL"	"<p style=\"color: black; font-size: 80px; padding-left: 38%; padding-right: 42%; padding-top: 15%; padding-bottom: 29%\">+</p>"	"1425"	n/a	n/a	n/a	n/a	n/a	n/a	n/a	n/a	n/a
n/a	"image-keyboard-response"	"102"	"336071"	"0.0-5.0-2.0-1.24"	"u20r5h"	"600"	"1366"	"chrome"	"111.0.0"	"FALSE"	"Windows 10"	"60.14"	"051"	n/a	n/a	n/a	n/a	n/a	n/a	"Trial"	n/a	n/a	n/a	"443"	"arrowdown"	n/a	"NULL"	"NULL"	"NULL"	"stimuli/MullerLyer_14.12857_0.07627.png"	n/a	"MullerLyer"	"arrowup"	"1435"	"FALSE"	"MullerLyer"	"14.128570000"	"0.0762700000"	"1"	"43"
n/a	"html-keyboard-response"	"103"	"337411"	"0.0-5.0-2.0-0.25"	"u20r5h"	"600"	"1366"	"chrome"	"111.0.0"	"FALSE"	"Windows 10"	"60.14"	"051"	n/a	n/a	n/a	n/a	n/a	n/a	"fixation"	n/a	n/a	n/a	n/a	"NULL"	n/a	"NULL"	"NULL"	"NULL"	"<p style=\"color: black; font-size: 80px; padding-left: 34%; padding-right: 20%; padding-top: 31%; padding-bottom: 17%\">+</p>"	"1325"	n/a	n/a	n/a	n/a	n/a	n/a	n/a	n/a	n/a
n/a	"image-keyboard-response"	"104"	"337774"	"0.0-5.0-2.0-1.25"	"u20r5h"	"600"	"1366"	"chrome"	"111.0.0"	"FALSE"	"Windows 10"	"60.14"	"051"	n/a	n/a	n/a	n/a	n/a	n/a	"Trial"	n/a	n/a	n/a	"363"	"arrowup"	n/a	"NULL"	"NULL"	"NULL"	"stimuli/MullerLyer_-20.04286_0.35000.png"	n/a	"MullerLyer"	"arrowup"	"1340"	"TRUE"	"MullerLyer"	"-20.04286000"	"0.3500000000"	"1"	"44"
n/a	"html-keyboard-response"	"105"	"339082"	"0.0-5.0-2.0-0.26"	"u20r5h"	"600"	"1366"	"chrome"	"111.0.0"	"FALSE"	"Windows 10"	"60.14"	"051"	n/a	n/a	n/a	n/a	n/a	n/a	"fixation"	n/a	n/a	n/a	n/a	"NULL"	n/a	"NULL"	"NULL"	"NULL"	"<p style=\"color: black; font-size: 80px; padding-left: 30%; padding-right: 34%; padding-top: 34%; padding-bottom: 22%\">+</p>"	"1294"	n/a	n/a	n/a	n/a	n/a	n/a	n/a	n/a	n/a
n/a	"image-keyboard-response"	"106"	"339545"	"0.0-5.0-2.0-1.26"	"u20r5h"	"600"	"1366"	"chrome"	"111.0.0"	"FALSE"	"Windows 10"	"60.14"	"051"	n/a	n/a	n/a	n/a	n/a	n/a	"Trial"	n/a	n/a	n/a	"462"	"arrowdown"	n/a	"NULL"	"NULL"	"NULL"	"stimuli/MullerLyer_-14.12857_-0.23665.png"	n/a	"MullerLyer"	"arrowdown"	"1308"	"TRUE"	"MullerLyer"	"-14.12857000"	"-0.236650000"	"1"	"45"
n/a	"html-keyboard-response"	"107"	"340689"	"0.0-5.0-2.0-0.27"	"u20r5h"	"600"	"1366"	"chrome"	"111.0.0"	"FALSE"	"Windows 10"	"60.14"	"051"	n/a	n/a	n/a	n/a	n/a	n/a	"fixation"	n/a	n/a	n/a	n/a	"NULL"	n/a	"NULL"	"NULL"	"NULL"	"<p style=\"color: black; font-size: 80px; padding-left: 14%; padding-right: 2%; padding-top: 23%; padding-bottom: 39%\">+</p>"	"1139"	n/a	n/a	n/a	n/a	n/a	n/a	n/a	n/a	n/a
n/a	"image-keyboard-response"	"108"	"341210"	"0.0-5.0-2.0-1.27"	"u20r5h"	"600"	"1366"	"chrome"	"111.0.0"	"FALSE"	"Windows 10"	"60.14"	"051"	n/a	n/a	n/a	n/a	n/a	n/a	"Trial"	n/a	n/a	n/a	"521"	"arrowdown"	n/a	"NULL"	"NULL"	"NULL"	"stimuli/MullerLyer_-2.3000_-0.3500.png"	n/a	"MullerLyer"	"arrowdown"	"1144"	"TRUE"	"MullerLyer"	"-2.300000000"	"-0.350000000"	"1"	"46"
n/a	"html-keyboard-response"	"109"	"342702"	"0.0-5.0-2.0-0.28"	"u20r5h"	"600"	"1366"	"chrome"	"111.0.0"	"FALSE"	"Windows 10"	"60.14"	"051"	n/a	n/a	n/a	n/a	n/a	n/a	"fixation"	n/a	n/a	n/a	n/a	"NULL"	n/a	"NULL"	"NULL"	"NULL"	"<p style=\"color: black; font-size: 80px; padding-left: 30%; padding-right: 18%; padding-top: 31%; padding-bottom: 2%\">+</p>"	"1481"	n/a	n/a	n/a	n/a	n/a	n/a	n/a	n/a	n/a
n/a	"image-keyboard-response"	"110"	"343092"	"0.0-5.0-2.0-1.28"	"u20r5h"	"600"	"1366"	"chrome"	"111.0.0"	"FALSE"	"Windows 10"	"60.14"	"051"	n/a	n/a	n/a	n/a	n/a	n/a	"Trial"	n/a	n/a	n/a	"389"	"arrowup"	n/a	"NULL"	"NULL"	"NULL"	"stimuli/MullerLyer_8.21429_0.35000.png"	n/a	"MullerLyer"	"arrowup"	"1492"	"TRUE"	"MullerLyer"	"8.2142900000"	"0.3500000000"	"1"	"47"
n/a	"html-keyboard-response"	"111"	"344296"	"0.0-5.0-2.0-0.29"	"u20r5h"	"600"	"1366"	"chrome"	"111.0.0"	"FALSE"	"Windows 10"	"60.14"	"051"	n/a	n/a	n/a	n/a	n/a	n/a	"fixation"	n/a	n/a	n/a	n/a	"NULL"	n/a	"NULL"	"NULL"	"NULL"	"<p style=\"color: black; font-size: 80px; padding-left: 9%; padding-right: 16%; padding-top: 14%; padding-bottom: 26%\">+</p>"	"1198"	n/a	n/a	n/a	n/a	n/a	n/a	n/a	n/a	n/a
n/a	"image-keyboard-response"	"112"	"344888"	"0.0-5.0-2.0-1.29"	"u20r5h"	"600"	"1366"	"chrome"	"111.0.0"	"FALSE"	"Windows 10"	"60.14"	"051"	n/a	n/a	n/a	n/a	n/a	n/a	"Trial"	n/a	n/a	n/a	"592"	"arrowdown"	n/a	"NULL"	"NULL"	"NULL"	"stimuli/MullerLyer_-8.21429_-0.23665.png"	n/a	"MullerLyer"	"arrowdown"	"1204"	"TRUE"	"MullerLyer"	"-8.214290000"	"-0.236650000"	"1"	"48"
n/a	"html-keyboard-response"	"113"	"346266"	"0.0-5.0-2.0-0.30"	"u20r5h"	"600"	"1366"	"chrome"	"111.0.0"	"FALSE"	"Windows 10"	"60.14"	"051"	n/a	n/a	n/a	n/a	n/a	n/a	"fixation"	n/a	n/a	n/a	n/a	"NULL"	n/a	"NULL"	"NULL"	"NULL"	"<p style=\"color: black; font-size: 80px; padding-left: 32%; padding-right: 48%; padding-top: 39%; padding-bottom: 30%\">+</p>"	"1362"	n/a	n/a	n/a	n/a	n/a	n/a	n/a	n/a	n/a
n/a	"image-keyboard-response"	"114"	"347080"	"0.0-5.0-2.0-1.30"	"u20r5h"	"600"	"1366"	"chrome"	"111.0.0"	"FALSE"	"Windows 10"	"60.14"	"051"	n/a	n/a	n/a	n/a	n/a	n/a	"Trial"	n/a	n/a	n/a	"813"	"arrowup"	n/a	"NULL"	"NULL"	"NULL"	"stimuli/MullerLyer_2.30000_-0.07627.png"	n/a	"MullerLyer"	"arrowdown"	"1378"	"FALSE"	"MullerLyer"	"2.3000000000"	"-0.076270000"	"1"	"49"
n/a	"html-keyboard-response"	"115"	"348414"	"0.0-5.0-2.0-0.31"	"u20r5h"	"600"	"1366"	"chrome"	"111.0.0"	"FALSE"	"Windows 10"	"60.14"	"051"	n/a	n/a	n/a	n/a	n/a	n/a	"fixation"	n/a	n/a	n/a	n/a	"NULL"	n/a	"NULL"	"NULL"	"NULL"	"<p style=\"color: black; font-size: 80px; padding-left: 2%; padding-right: 9%; padding-top: 24%; padding-bottom: 45%\">+</p>"	"1332"	n/a	n/a	n/a	n/a	n/a	n/a	n/a	n/a	n/a
n/a	"image-keyboard-response"	"116"	"349059"	"0.0-5.0-2.0-1.31"	"u20r5h"	"600"	"1366"	"chrome"	"111.0.0"	"FALSE"	"Windows 10"	"60.14"	"051"	n/a	n/a	n/a	n/a	n/a	n/a	"Trial"	n/a	n/a	n/a	"644"	"arrowup"	n/a	"NULL"	"NULL"	"NULL"	"stimuli/MullerLyer_-14.12857_0.07627.png"	n/a	"MullerLyer"	"arrowup"	"1334"	"TRUE"	"MullerLyer"	"-14.12857000"	"0.0762700000"	"1"	"50"
n/a	"html-keyboard-response"	"117"	"350312"	"0.0-5.0-2.0-0.32"	"u20r5h"	"600"	"1366"	"chrome"	"111.0.0"	"FALSE"	"Windows 10"	"60.14"	"051"	n/a	n/a	n/a	n/a	n/a	n/a	"fixation"	n/a	n/a	n/a	n/a	"NULL"	n/a	"NULL"	"NULL"	"NULL"	"<p style=\"color: black; font-size: 80px; padding-left: 44%; padding-right: 16%; padding-top: 42%; padding-bottom: 6%\">+</p>"	"1241"	n/a	n/a	n/a	n/a	n/a	n/a	n/a	n/a	n/a
n/a	"image-keyboard-response"	"118"	"351121"	"0.0-5.0-2.0-1.32"	"u20r5h"	"600"	"1366"	"chrome"	"111.0.0"	"FALSE"	"Windows 10"	"60.14"	"051"	n/a	n/a	n/a	n/a	n/a	n/a	"Trial"	n/a	n/a	n/a	"808"	"arrowdown"	n/a	"NULL"	"NULL"	"NULL"	"stimuli/MullerLyer_20.04286_0.07627.png"	n/a	"MullerLyer"	"arrowup"	"1253"	"FALSE"	"MullerLyer"	"20.042860000"	"0.0762700000"	"1"	"51"
n/a	"html-keyboard-response"	"119"	"352151"	"0.0-5.0-2.0-0.33"	"u20r5h"	"600"	"1366"	"chrome"	"111.0.0"	"FALSE"	"Windows 10"	"60.14"	"051"	n/a	n/a	n/a	n/a	n/a	n/a	"fixation"	n/a	n/a	n/a	n/a	"NULL"	n/a	"NULL"	"NULL"	"NULL"	"<p style=\"color: black; font-size: 80px; padding-left: 20%; padding-right: 37%; padding-top: 11%; padding-bottom: 19%\">+</p>"	"1019"	n/a	n/a	n/a	n/a	n/a	n/a	n/a	n/a	n/a
n/a	"image-keyboard-response"	"120"	"352633"	"0.0-5.0-2.0-1.33"	"u20r5h"	"600"	"1366"	"chrome"	"111.0.0"	"FALSE"	"Windows 10"	"60.14"	"051"	n/a	n/a	n/a	n/a	n/a	n/a	"Trial"	n/a	n/a	n/a	"482"	"arrowup"	n/a	"NULL"	"NULL"	"NULL"	"stimuli/MullerLyer_-2.3000_0.35000.png"	n/a	"MullerLyer"	"arrowup"	"1030"	"TRUE"	"MullerLyer"	"-2.300000000"	"0.3500000000"	"1"	"52"
n/a	"html-keyboard-response"	"121"	"354083"	"0.0-5.0-2.0-0.34"	"u20r5h"	"600"	"1366"	"chrome"	"111.0.0"	"FALSE"	"Windows 10"	"60.14"	"051"	n/a	n/a	n/a	n/a	n/a	n/a	"fixation"	n/a	n/a	n/a	n/a	"NULL"	n/a	"NULL"	"NULL"	"NULL"	"<p style=\"color: black; font-size: 80px; padding-left: 28%; padding-right: 45%; padding-top: 45%; padding-bottom: 38%\">+</p>"	"1439"	n/a	n/a	n/a	n/a	n/a	n/a	n/a	n/a	n/a
n/a	"image-keyboard-response"	"122"	"354481"	"0.0-5.0-2.0-1.34"	"u20r5h"	"600"	"1366"	"chrome"	"111.0.0"	"FALSE"	"Windows 10"	"60.14"	"051"	n/a	n/a	n/a	n/a	n/a	n/a	"Trial"	n/a	n/a	n/a	"398"	"arrowup"	n/a	"NULL"	"NULL"	"NULL"	"stimuli/MullerLyer_8.21429_-0.07627.png"	n/a	"MullerLyer"	"arrowdown"	"1450"	"FALSE"	"MullerLyer"	"8.2142900000"	"-0.076270000"	"1"	"53"
n/a	"html-keyboard-response"	"123"	"355622"	"0.0-5.0-2.0-0.35"	"u20r5h"	"600"	"1366"	"chrome"	"111.0.0"	"FALSE"	"Windows 10"	"60.14"	"051"	n/a	n/a	n/a	n/a	n/a	n/a	"fixation"	n/a	n/a	n/a	n/a	"NULL"	n/a	"NULL"	"NULL"	"NULL"	"<p style=\"color: black; font-size: 80px; padding-left: 41%; padding-right: 40%; padding-top: 6%; padding-bottom: 14%\">+</p>"	"1137"	n/a	n/a	n/a	n/a	n/a	n/a	n/a	n/a	n/a
n/a	"image-keyboard-response"	"124"	"356142"	"0.0-5.0-2.0-1.35"	"u20r5h"	"600"	"1366"	"chrome"	"111.0.0"	"FALSE"	"Windows 10"	"60.14"	"051"	n/a	n/a	n/a	n/a	n/a	n/a	"Trial"	n/a	n/a	n/a	"519"	"arrowup"	n/a	"NULL"	"NULL"	"NULL"	"stimuli/MullerLyer_-20.04286_0.14541.png"	n/a	"MullerLyer"	"arrowup"	"1141"	"TRUE"	"MullerLyer"	"-20.04286000"	"0.1454100000"	"1"	"54"
n/a	"html-keyboard-response"	"125"	"357241"	"0.0-5.0-2.0-0.36"	"u20r5h"	"600"	"1366"	"chrome"	"111.0.0"	"FALSE"	"Windows 10"	"60.14"	"051"	n/a	n/a	n/a	n/a	n/a	n/a	"fixation"	n/a	n/a	n/a	n/a	"NULL"	n/a	"NULL"	"NULL"	"NULL"	"<p style=\"color: black; font-size: 80px; padding-left: 37%; padding-right: 15%; padding-top: 7%; padding-bottom: 36%\">+</p>"	"1095"	n/a	n/a	n/a	n/a	n/a	n/a	n/a	n/a	n/a
n/a	"image-keyboard-response"	"126"	"357731"	"0.0-5.0-2.0-1.36"	"u20r5h"	"600"	"1366"	"chrome"	"111.0.0"	"FALSE"	"Windows 10"	"60.14"	"051"	n/a	n/a	n/a	n/a	n/a	n/a	"Trial"	n/a	n/a	n/a	"489"	"arrowdown"	n/a	"NULL"	"NULL"	"NULL"	"stimuli/MullerLyer_-14.12857_-0.14541.png"	n/a	"MullerLyer"	"arrowdown"	"1099"	"TRUE"	"MullerLyer"	"-14.12857000"	"-0.145410000"	"1"	"55"
n/a	"html-keyboard-response"	"127"	"358778"	"0.0-5.0-2.0-0.37"	"u20r5h"	"600"	"1366"	"chrome"	"111.0.0"	"FALSE"	"Windows 10"	"60.14"	"051"	n/a	n/a	n/a	n/a	n/a	n/a	"fixation"	n/a	n/a	n/a	n/a	"NULL"	n/a	"NULL"	"NULL"	"NULL"	"<p style=\"color: black; font-size: 80px; padding-left: 38%; padding-right: 0%; padding-top: 7%; padding-bottom: 7%\">+</p>"	"1033"	n/a	n/a	n/a	n/a	n/a	n/a	n/a	n/a	n/a
n/a	"image-keyboard-response"	"128"	"359272"	"0.0-5.0-2.0-1.37"	"u20r5h"	"600"	"1366"	"chrome"	"111.0.0"	"FALSE"	"Windows 10"	"60.14"	"051"	n/a	n/a	n/a	n/a	n/a	n/a	"Trial"	n/a	n/a	n/a	"493"	"arrowup"	n/a	"NULL"	"NULL"	"NULL"	"stimuli/MullerLyer_14.12857_-0.07627.png"	n/a	"MullerLyer"	"arrowdown"	"1047"	"FALSE"	"MullerLyer"	"14.128570000"	"-0.076270000"	"1"	"56"
n/a	"html-keyboard-response"	"129"	"360487"	"0.0-5.0-2.0-0.38"	"u20r5h"	"600"	"1366"	"chrome"	"111.0.0"	"FALSE"	"Windows 10"	"60.14"	"051"	n/a	n/a	n/a	n/a	n/a	n/a	"fixation"	n/a	n/a	n/a	n/a	"NULL"	n/a	"NULL"	"NULL"	"NULL"	"<p style=\"color: black; font-size: 80px; padding-left: 1%; padding-right: 14%; padding-top: 43%; padding-bottom: 4%\">+</p>"	"1212"	n/a	n/a	n/a	n/a	n/a	n/a	n/a	n/a	n/a
n/a	"image-keyboard-response"	"130"	"361168"	"0.0-5.0-2.0-1.38"	"u20r5h"	"600"	"1366"	"chrome"	"111.0.0"	"FALSE"	"Windows 10"	"60.14"	"051"	n/a	n/a	n/a	n/a	n/a	n/a	"Trial"	n/a	n/a	n/a	"681"	"arrowup"	n/a	"NULL"	"NULL"	"NULL"	"stimuli/MullerLyer_14.12857_0.23665.png"	n/a	"MullerLyer"	"arrowup"	"1215"	"TRUE"	"MullerLyer"	"14.128570000"	"0.2366500000"	"1"	"57"
n/a	"html-keyboard-response"	"131"	"362435"	"0.0-5.0-2.0-0.39"	"u20r5h"	"600"	"1366"	"chrome"	"111.0.0"	"FALSE"	"Windows 10"	"60.14"	"051"	n/a	n/a	n/a	n/a	n/a	n/a	"fixation"	n/a	n/a	n/a	n/a	"NULL"	n/a	"NULL"	"NULL"	"NULL"	"<p style=\"color: black; font-size: 80px; padding-left: 18%; padding-right: 15%; padding-top: 44%; padding-bottom: 1%\">+</p>"	"1252"	n/a	n/a	n/a	n/a	n/a	n/a	n/a	n/a	n/a
n/a	"image-keyboard-response"	"132"	"363424"	"0.0-5.0-2.0-1.39"	"u20r5h"	"600"	"1366"	"chrome"	"111.0.0"	"FALSE"	"Windows 10"	"60.14"	"051"	n/a	n/a	n/a	n/a	n/a	n/a	"Trial"	n/a	n/a	n/a	"988"	"arrowdown"	n/a	"NULL"	"NULL"	"NULL"	"stimuli/MullerLyer_-20.04286_-0.23665.png"	n/a	"MullerLyer"	"arrowdown"	"1267"	"TRUE"	"MullerLyer"	"-20.04286000"	"-0.236650000"	"1"	"58"
n/a	"html-keyboard-response"	"133"	"364857"	"0.0-5.0-2.0-0.40"	"u20r5h"	"600"	"1366"	"chrome"	"111.0.0"	"FALSE"	"Windows 10"	"60.14"	"051"	n/a	n/a	n/a	n/a	n/a	n/a	"fixation"	n/a	n/a	n/a	n/a	"NULL"	n/a	"NULL"	"NULL"	"NULL"	"<p style=\"color: black; font-size: 80px; padding-left: 15%; padding-right: 42%; padding-top: 11%; padding-bottom: 22%\">+</p>"	"1430"	n/a	n/a	n/a	n/a	n/a	n/a	n/a	n/a	n/a
n/a	"image-keyboard-response"	"134"	"365388"	"0.0-5.0-2.0-1.40"	"u20r5h"	"600"	"1366"	"chrome"	"111.0.0"	"FALSE"	"Windows 10"	"60.14"	"051"	n/a	n/a	n/a	n/a	n/a	n/a	"Trial"	n/a	n/a	n/a	"531"	"arrowup"	n/a	"NULL"	"NULL"	"NULL"	"stimuli/MullerLyer_-8.21429_0.07627.png"	n/a	"MullerLyer"	"arrowup"	"1433"	"TRUE"	"MullerLyer"	"-8.214290000"	"0.0762700000"	"1"	"59"
n/a	"html-keyboard-response"	"135"	"366512"	"0.0-5.0-2.0-0.41"	"u20r5h"	"600"	"1366"	"chrome"	"111.0.0"	"FALSE"	"Windows 10"	"60.14"	"051"	n/a	n/a	n/a	n/a	n/a	n/a	"fixation"	n/a	n/a	n/a	n/a	"NULL"	n/a	"NULL"	"NULL"	"NULL"	"<p style=\"color: black; font-size: 80px; padding-left: 36%; padding-right: 5%; padding-top: 17%; padding-bottom: 42%\">+</p>"	"1120"	n/a	n/a	n/a	n/a	n/a	n/a	n/a	n/a	n/a
n/a	"image-keyboard-response"	"136"	"367100"	"0.0-5.0-2.0-1.41"	"u20r5h"	"600"	"1366"	"chrome"	"111.0.0"	"FALSE"	"Windows 10"	"60.14"	"051"	n/a	n/a	n/a	n/a	n/a	n/a	"Trial"	n/a	n/a	n/a	"587"	"arrowup"	n/a	"NULL"	"NULL"	"NULL"	"stimuli/MullerLyer_-14.12857_0.23665.png"	n/a	"MullerLyer"	"arrowup"	"1124"	"TRUE"	"MullerLyer"	"-14.12857000"	"0.2366500000"	"1"	"60"
n/a	"html-keyboard-response"	"137"	"368218"	"0.0-5.0-2.0-0.42"	"u20r5h"	"600"	"1366"	"chrome"	"111.0.0"	"FALSE"	"Windows 10"	"60.14"	"051"	n/a	n/a	n/a	n/a	n/a	n/a	"fixation"	n/a	n/a	n/a	n/a	"NULL"	n/a	"NULL"	"NULL"	"NULL"	"<p style=\"color: black; font-size: 80px; padding-left: 27%; padding-right: 5%; padding-top: 38%; padding-bottom: 19%\">+</p>"	"1109"	n/a	n/a	n/a	n/a	n/a	n/a	n/a	n/a	n/a
n/a	"image-keyboard-response"	"138"	"368930"	"0.0-5.0-2.0-1.42"	"u20r5h"	"600"	"1366"	"chrome"	"111.0.0"	"FALSE"	"Windows 10"	"60.14"	"051"	n/a	n/a	n/a	n/a	n/a	n/a	"Trial"	n/a	n/a	n/a	"712"	"arrowup"	n/a	"NULL"	"NULL"	"NULL"	"stimuli/MullerLyer_20.04286_-0.07627.png"	n/a	"MullerLyer"	"arrowdown"	"1118"	"FALSE"	"MullerLyer"	"20.042860000"	"-0.076270000"	"1"	"61"
n/a	"html-keyboard-response"	"139"	"370277"	"0.0-5.0-2.0-0.43"	"u20r5h"	"600"	"1366"	"chrome"	"111.0.0"	"FALSE"	"Windows 10"	"60.14"	"051"	n/a	n/a	n/a	n/a	n/a	n/a	"fixation"	n/a	n/a	n/a	n/a	"NULL"	n/a	"NULL"	"NULL"	"NULL"	"<p style=\"color: black; font-size: 80px; padding-left: 3%; padding-right: 25%; padding-top: 36%; padding-bottom: 14%\">+</p>"	"1342"	n/a	n/a	n/a	n/a	n/a	n/a	n/a	n/a	n/a
n/a	"image-keyboard-response"	"140"	"370868"	"0.0-5.0-2.0-1.43"	"u20r5h"	"600"	"1366"	"chrome"	"111.0.0"	"FALSE"	"Windows 10"	"60.14"	"051"	n/a	n/a	n/a	n/a	n/a	n/a	"Trial"	n/a	n/a	n/a	"590"	"arrowup"	n/a	"NULL"	"NULL"	"NULL"	"stimuli/MullerLyer_-8.21429_0.23665.png"	n/a	"MullerLyer"	"arrowup"	"1347"	"TRUE"	"MullerLyer"	"-8.214290000"	"0.2366500000"	"1"	"62"
n/a	"html-keyboard-response"	"141"	"372329"	"0.0-5.0-2.0-0.44"	"u20r5h"	"600"	"1366"	"chrome"	"111.0.0"	"FALSE"	"Windows 10"	"60.14"	"051"	n/a	n/a	n/a	n/a	n/a	n/a	"fixation"	n/a	n/a	n/a	n/a	"NULL"	n/a	"NULL"	"NULL"	"NULL"	"<p style=\"color: black; font-size: 80px; padding-left: 33%; padding-right: 4%; padding-top: 30%; padding-bottom: 48%\">+</p>"	"1453"	n/a	n/a	n/a	n/a	n/a	n/a	n/a	n/a	n/a
n/a	"image-keyboard-response"	"142"	"373152"	"0.0-5.0-2.0-1.44"	"u20r5h"	"600"	"1366"	"chrome"	"111.0.0"	"FALSE"	"Windows 10"	"60.14"	"051"	n/a	n/a	n/a	n/a	n/a	n/a	"Trial"	n/a	n/a	n/a	"821"	"arrowdown"	n/a	"NULL"	"NULL"	"NULL"	"stimuli/MullerLyer_14.12857_-0.14541.png"	n/a	"MullerLyer"	"arrowdown"	"1461"	"TRUE"	"MullerLyer"	"14.128570000"	"-0.145410000"	"1"	"63"
n/a	"html-keyboard-response"	"143"	"374499"	"0.0-5.0-2.0-0.45"	"u20r5h"	"600"	"1366"	"chrome"	"111.0.0"	"FALSE"	"Windows 10"	"60.14"	"051"	n/a	n/a	n/a	n/a	n/a	n/a	"fixation"	n/a	n/a	n/a	n/a	"NULL"	n/a	"NULL"	"NULL"	"NULL"	"<p style=\"color: black; font-size: 80px; padding-left: 17%; padding-right: 28%; padding-top: 39%; padding-bottom: 25%\">+</p>"	"1335"	n/a	n/a	n/a	n/a	n/a	n/a	n/a	n/a	n/a
n/a	"image-keyboard-response"	"144"	"375290"	"0.0-5.0-2.0-1.45"	"u20r5h"	"600"	"1366"	"chrome"	"111.0.0"	"FALSE"	"Windows 10"	"60.14"	"051"	n/a	n/a	n/a	n/a	n/a	n/a	"Trial"	n/a	n/a	n/a	"790"	"arrowdown"	n/a	"NULL"	"NULL"	"NULL"	"stimuli/MullerLyer_-8.21429_-0.14541.png"	n/a	"MullerLyer"	"arrowdown"	"1347"	"TRUE"	"MullerLyer"	"-8.214290000"	"-0.145410000"	"1"	"64"
n/a	"html-keyboard-response"	"145"	"376587"	"0.0-5.0-2.0-0.46"	"u20r5h"	"600"	"1366"	"chrome"	"111.0.0"	"FALSE"	"Windows 10"	"60.14"	"051"	n/a	n/a	n/a	n/a	n/a	n/a	"fixation"	n/a	n/a	n/a	n/a	"NULL"	n/a	"NULL"	"NULL"	"NULL"	"<p style=\"color: black; font-size: 80px; padding-left: 19%; padding-right: 47%; padding-top: 14%; padding-bottom: 12%\">+</p>"	"1290"	n/a	n/a	n/a	n/a	n/a	n/a	n/a	n/a	n/a
n/a	"image-keyboard-response"	"146"	"377039"	"0.0-5.0-2.0-1.46"	"u20r5h"	"600"	"1366"	"chrome"	"111.0.0"	"FALSE"	"Windows 10"	"60.14"	"051"	n/a	n/a	n/a	n/a	n/a	n/a	"Trial"	n/a	n/a	n/a	"452"	"arrowdown"	n/a	"NULL"	"NULL"	"NULL"	"stimuli/MullerLyer_-14.12857_-0.3500.png"	n/a	"MullerLyer"	"arrowdown"	"1297"	"TRUE"	"MullerLyer"	"-14.12857000"	"-0.350000000"	"1"	"65"
n/a	"html-keyboard-response"	"147"	"378280"	"0.0-5.0-2.0-0.47"	"u20r5h"	"600"	"1366"	"chrome"	"111.0.0"	"FALSE"	"Windows 10"	"60.14"	"051"	n/a	n/a	n/a	n/a	n/a	n/a	"fixation"	n/a	n/a	n/a	n/a	"NULL"	n/a	"NULL"	"NULL"	"NULL"	"<p style=\"color: black; font-size: 80px; padding-left: 19%; padding-right: 40%; padding-top: 2%; padding-bottom: 22%\">+</p>"	"1229"	n/a	n/a	n/a	n/a	n/a	n/a	n/a	n/a	n/a
n/a	"image-keyboard-response"	"148"	"379111"	"0.0-5.0-2.0-1.47"	"u20r5h"	"600"	"1366"	"chrome"	"111.0.0"	"FALSE"	"Windows 10"	"60.14"	"051"	n/a	n/a	n/a	n/a	n/a	n/a	"Trial"	n/a	n/a	n/a	"831"	"arrowdown"	n/a	"NULL"	"NULL"	"NULL"	"stimuli/MullerLyer_20.04286_0.14541.png"	n/a	"MullerLyer"	"arrowup"	"1241"	"FALSE"	"MullerLyer"	"20.042860000"	"0.1454100000"	"1"	"66"
n/a	"html-keyboard-response"	"149"	"380373"	"0.0-5.0-2.0-0.48"	"u20r5h"	"600"	"1366"	"chrome"	"111.0.0"	"FALSE"	"Windows 10"	"60.14"	"051"	n/a	n/a	n/a	n/a	n/a	n/a	"fixation"	n/a	n/a	n/a	n/a	"NULL"	n/a	"NULL"	"NULL"	"NULL"	"<p style=\"color: black; font-size: 80px; padding-left: 39%; padding-right: 3%; padding-top: 11%; padding-bottom: 31%\">+</p>"	"1248"	n/a	n/a	n/a	n/a	n/a	n/a	n/a	n/a	n/a
n/a	"image-keyboard-response"	"150"	"381617"	"0.0-5.0-2.0-1.48"	"u20r5h"	"600"	"1366"	"chrome"	"111.0.0"	"FALSE"	"Windows 10"	"60.14"	"051"	n/a	n/a	n/a	n/a	n/a	n/a	"Trial"	n/a	n/a	n/a	"1243"	"arrowup"	n/a	"NULL"	"NULL"	"NULL"	"stimuli/MullerLyer_8.21429_0.14541.png"	n/a	"MullerLyer"	"arrowup"	"1262"	"TRUE"	"MullerLyer"	"8.2142900000"	"0.1454100000"	"1"	"67"
n/a	"html-keyboard-response"	"151"	"382725"	"0.0-5.0-2.0-0.49"	"u20r5h"	"600"	"1366"	"chrome"	"111.0.0"	"FALSE"	"Windows 10"	"60.14"	"051"	n/a	n/a	n/a	n/a	n/a	n/a	"fixation"	n/a	n/a	n/a	n/a	"NULL"	n/a	"NULL"	"NULL"	"NULL"	"<p style=\"color: black; font-size: 80px; padding-left: 42%; padding-right: 36%; padding-top: 5%; padding-bottom: 3%\">+</p>"	"1101"	n/a	n/a	n/a	n/a	n/a	n/a	n/a	n/a	n/a
n/a	"image-keyboard-response"	"152"	"383520"	"0.0-5.0-2.0-1.49"	"u20r5h"	"600"	"1366"	"chrome"	"111.0.0"	"FALSE"	"Windows 10"	"60.14"	"051"	n/a	n/a	n/a	n/a	n/a	n/a	"Trial"	n/a	n/a	n/a	"794"	"arrowdown"	n/a	"NULL"	"NULL"	"NULL"	"stimuli/MullerLyer_2.30000_-0.14541.png"	n/a	"MullerLyer"	"arrowdown"	"1108"	"TRUE"	"MullerLyer"	"2.3000000000"	"-0.145410000"	"1"	"68"
n/a	"html-keyboard-response"	"153"	"384552"	"0.0-5.0-2.0-0.50"	"u20r5h"	"600"	"1366"	"chrome"	"111.0.0"	"FALSE"	"Windows 10"	"60.14"	"051"	n/a	n/a	n/a	n/a	n/a	n/a	"fixation"	n/a	n/a	n/a	n/a	"NULL"	n/a	"NULL"	"NULL"	"NULL"	"<p style=\"color: black; font-size: 80px; padding-left: 16%; padding-right: 46%; padding-top: 43%; padding-bottom: 28%\">+</p>"	"1022"	n/a	n/a	n/a	n/a	n/a	n/a	n/a	n/a	n/a
n/a	"image-keyboard-response"	"154"	"385004"	"0.0-5.0-2.0-1.50"	"u20r5h"	"600"	"1366"	"chrome"	"111.0.0"	"FALSE"	"Windows 10"	"60.14"	"051"	n/a	n/a	n/a	n/a	n/a	n/a	"Trial"	n/a	n/a	n/a	"451"	"arrowup"	n/a	"NULL"	"NULL"	"NULL"	"stimuli/MullerLyer_-2.3000_0.23665.png"	n/a	"MullerLyer"	"arrowup"	"1032"	"TRUE"	"MullerLyer"	"-2.300000000"	"0.2366500000"	"1"	"69"
n/a	"html-keyboard-response"	"155"	"386504"	"0.0-5.0-2.0-0.51"	"u20r5h"	"600"	"1366"	"chrome"	"111.0.0"	"FALSE"	"Windows 10"	"60.14"	"051"	n/a	n/a	n/a	n/a	n/a	n/a	"fixation"	n/a	n/a	n/a	n/a	"NULL"	n/a	"NULL"	"NULL"	"NULL"	"<p style=\"color: black; font-size: 80px; padding-left: 38%; padding-right: 21%; padding-top: 38%; padding-bottom: 44%\">+</p>"	"1498"	n/a	n/a	n/a	n/a	n/a	n/a	n/a	n/a	n/a
n/a	"image-keyboard-response"	"156"	"386970"	"0.0-5.0-2.0-1.51"	"u20r5h"	"600"	"1366"	"chrome"	"111.0.0"	"FALSE"	"Windows 10"	"60.14"	"051"	n/a	n/a	n/a	n/a	n/a	n/a	"Trial"	n/a	n/a	n/a	"465"	"arrowdown"	n/a	"NULL"	"NULL"	"NULL"	"stimuli/MullerLyer_-2.3000_-0.14541.png"	n/a	"MullerLyer"	"arrowdown"	"1500"	"TRUE"	"MullerLyer"	"-2.300000000"	"-0.145410000"	"1"	"70"
n/a	"html-keyboard-response"	"157"	"388404"	"0.0-5.0-2.0-0.52"	"u20r5h"	"600"	"1366"	"chrome"	"111.0.0"	"FALSE"	"Windows 10"	"60.14"	"051"	n/a	n/a	n/a	n/a	n/a	n/a	"fixation"	n/a	n/a	n/a	n/a	"NULL"	n/a	"NULL"	"NULL"	"NULL"	"<p style=\"color: black; font-size: 80px; padding-left: 21%; padding-right: 47%; padding-top: 16%; padding-bottom: 36%\">+</p>"	"1422"	n/a	n/a	n/a	n/a	n/a	n/a	n/a	n/a	n/a
n/a	"image-keyboard-response"	"158"	"388810"	"0.0-5.0-2.0-1.52"	"u20r5h"	"600"	"1366"	"chrome"	"111.0.0"	"FALSE"	"Windows 10"	"60.14"	"051"	n/a	n/a	n/a	n/a	n/a	n/a	"Trial"	n/a	n/a	n/a	"405"	"arrowdown"	n/a	"NULL"	"NULL"	"NULL"	"stimuli/MullerLyer_20.04286_0.23665.png"	n/a	"MullerLyer"	"arrowup"	"1434"	"FALSE"	"MullerLyer"	"20.042860000"	"0.2366500000"	"1"	"71"
n/a	"html-keyboard-response"	"159"	"389970"	"0.0-5.0-2.0-0.53"	"u20r5h"	"600"	"1366"	"chrome"	"111.0.0"	"FALSE"	"Windows 10"	"60.14"	"051"	n/a	n/a	n/a	n/a	n/a	n/a	"fixation"	n/a	n/a	n/a	n/a	"NULL"	n/a	"NULL"	"NULL"	"NULL"	"<p style=\"color: black; font-size: 80px; padding-left: 3%; padding-right: 47%; padding-top: 6%; padding-bottom: 0%\">+</p>"	"1146"	n/a	n/a	n/a	n/a	n/a	n/a	n/a	n/a	n/a
n/a	"image-keyboard-response"	"160"	"390584"	"0.0-5.0-2.0-1.53"	"u20r5h"	"600"	"1366"	"chrome"	"111.0.0"	"FALSE"	"Windows 10"	"60.14"	"051"	n/a	n/a	n/a	n/a	n/a	n/a	"Trial"	n/a	n/a	n/a	"613"	"arrowdown"	n/a	"NULL"	"NULL"	"NULL"	"stimuli/MullerLyer_-20.04286_-0.14541.png"	n/a	"MullerLyer"	"arrowdown"	"1160"	"TRUE"	"MullerLyer"	"-20.04286000"	"-0.145410000"	"1"	"72"
n/a	"html-keyboard-response"	"161"	"391606"	"0.0-5.0-2.0-0.54"	"u20r5h"	"600"	"1366"	"chrome"	"111.0.0"	"FALSE"	"Windows 10"	"60.14"	"051"	n/a	n/a	n/a	n/a	n/a	n/a	"fixation"	n/a	n/a	n/a	n/a	"NULL"	n/a	"NULL"	"NULL"	"NULL"	"<p style=\"color: black; font-size: 80px; padding-left: 18%; padding-right: 33%; padding-top: 25%; padding-bottom: 16%\">+</p>"	"1007"	n/a	n/a	n/a	n/a	n/a	n/a	n/a	n/a	n/a
n/a	"image-keyboard-response"	"162"	"392443"	"0.0-5.0-2.0-1.54"	"u20r5h"	"600"	"1366"	"chrome"	"111.0.0"	"FALSE"	"Windows 10"	"60.14"	"051"	n/a	n/a	n/a	n/a	n/a	n/a	"Trial"	n/a	n/a	n/a	"837"	"arrowup"	n/a	"NULL"	"NULL"	"NULL"	"stimuli/MullerLyer_-2.3000_-0.07627.png"	n/a	"MullerLyer"	"arrowdown"	"1022"	"FALSE"	"MullerLyer"	"-2.300000000"	"-0.076270000"	"1"	"73"
n/a	"html-keyboard-response"	"163"	"393888"	"0.0-5.0-2.0-0.55"	"u20r5h"	"600"	"1366"	"chrome"	"111.0.0"	"FALSE"	"Windows 10"	"60.14"	"051"	n/a	n/a	n/a	n/a	n/a	n/a	"fixation"	n/a	n/a	n/a	n/a	"NULL"	n/a	"NULL"	"NULL"	"NULL"	"<p style=\"color: black; font-size: 80px; padding-left: 20%; padding-right: 5%; padding-top: 23%; padding-bottom: 32%\">+</p>"	"1432"	n/a	n/a	n/a	n/a	n/a	n/a	n/a	n/a	n/a
n/a	"image-keyboard-response"	"164"	"394559"	"0.0-5.0-2.0-1.55"	"u20r5h"	"600"	"1366"	"chrome"	"111.0.0"	"FALSE"	"Windows 10"	"60.14"	"051"	n/a	n/a	n/a	n/a	n/a	n/a	"Trial"	n/a	n/a	n/a	"670"	"arrowup"	n/a	"NULL"	"NULL"	"NULL"	"stimuli/MullerLyer_8.21429_0.23665.png"	n/a	"MullerLyer"	"arrowup"	"1445"	"TRUE"	"MullerLyer"	"8.2142900000"	"0.2366500000"	"1"	"74"
n/a	"html-keyboard-response"	"165"	"395716"	"0.0-5.0-2.0-0.56"	"u20r5h"	"600"	"1366"	"chrome"	"111.0.0"	"FALSE"	"Windows 10"	"60.14"	"051"	n/a	n/a	n/a	n/a	n/a	n/a	"fixation"	n/a	n/a	n/a	n/a	"NULL"	n/a	"NULL"	"NULL"	"NULL"	"<p style=\"color: black; font-size: 80px; padding-left: 39%; padding-right: 20%; padding-top: 14%; padding-bottom: 19%\">+</p>"	"1153"	n/a	n/a	n/a	n/a	n/a	n/a	n/a	n/a	n/a
n/a	"image-keyboard-response"	"166"	"396297"	"0.0-5.0-2.0-1.56"	"u20r5h"	"600"	"1366"	"chrome"	"111.0.0"	"FALSE"	"Windows 10"	"60.14"	"051"	n/a	n/a	n/a	n/a	n/a	n/a	"Trial"	n/a	n/a	n/a	"580"	"arrowdown"	n/a	"NULL"	"NULL"	"NULL"	"stimuli/MullerLyer_-20.04286_-0.3500.png"	n/a	"MullerLyer"	"arrowdown"	"1157"	"TRUE"	"MullerLyer"	"-20.04286000"	"-0.350000000"	"1"	"75"
n/a	"html-keyboard-response"	"167"	"397404"	"0.0-5.0-2.0-0.57"	"u20r5h"	"600"	"1366"	"chrome"	"111.0.0"	"FALSE"	"Windows 10"	"60.14"	"051"	n/a	n/a	n/a	n/a	n/a	n/a	"fixation"	n/a	n/a	n/a	n/a	"NULL"	n/a	"NULL"	"NULL"	"NULL"	"<p style=\"color: black; font-size: 80px; padding-left: 10%; padding-right: 13%; padding-top: 4%; padding-bottom: 20%\">+</p>"	"1101"	n/a	n/a	n/a	n/a	n/a	n/a	n/a	n/a	n/a
n/a	"image-keyboard-response"	"168"	"398078"	"0.0-5.0-2.0-1.57"	"u20r5h"	"600"	"1366"	"chrome"	"111.0.0"	"FALSE"	"Windows 10"	"60.14"	"051"	n/a	n/a	n/a	n/a	n/a	n/a	"Trial"	n/a	n/a	n/a	"673"	"arrowdown"	n/a	"NULL"	"NULL"	"NULL"	"stimuli/MullerLyer_8.21429_-0.3500.png"	n/a	"MullerLyer"	"arrowdown"	"1107"	"TRUE"	"MullerLyer"	"8.2142900000"	"-0.350000000"	"1"	"76"
n/a	"html-keyboard-response"	"169"	"399181"	"0.0-5.0-2.0-0.58"	"u20r5h"	"600"	"1366"	"chrome"	"111.0.0"	"FALSE"	"Windows 10"	"60.14"	"051"	n/a	n/a	n/a	n/a	n/a	n/a	"fixation"	n/a	n/a	n/a	n/a	"NULL"	n/a	"NULL"	"NULL"	"NULL"	"<p style=\"color: black; font-size: 80px; padding-left: 13%; padding-right: 19%; padding-top: 5%; padding-bottom: 40%\">+</p>"	"1099"	n/a	n/a	n/a	n/a	n/a	n/a	n/a	n/a	n/a
n/a	"image-keyboard-response"	"170"	"400286"	"0.0-5.0-2.0-1.58"	"u20r5h"	"600"	"1366"	"chrome"	"111.0.0"	"FALSE"	"Windows 10"	"60.14"	"051"	n/a	n/a	n/a	n/a	n/a	n/a	"Trial"	n/a	n/a	n/a	"1105"	"arrowup"	n/a	"NULL"	"NULL"	"NULL"	"stimuli/MullerLyer_-2.3000_0.14541.png"	n/a	"MullerLyer"	"arrowup"	"1103"	"TRUE"	"MullerLyer"	"-2.300000000"	"0.1454100000"	"1"	"77"
n/a	"html-keyboard-response"	"171"	"401397"	"0.0-5.0-2.0-0.59"	"u20r5h"	"600"	"1366"	"chrome"	"111.0.0"	"FALSE"	"Windows 10"	"60.14"	"051"	n/a	n/a	n/a	n/a	n/a	n/a	"fixation"	n/a	n/a	n/a	n/a	"NULL"	n/a	"NULL"	"NULL"	"NULL"	"<p style=\"color: black; font-size: 80px; padding-left: 24%; padding-right: 4%; padding-top: 37%; padding-bottom: 35%\">+</p>"	"1110"	n/a	n/a	n/a	n/a	n/a	n/a	n/a	n/a	n/a
n/a	"image-keyboard-response"	"172"	"402225"	"0.0-5.0-2.0-1.59"	"u20r5h"	"600"	"1366"	"chrome"	"111.0.0"	"FALSE"	"Windows 10"	"60.14"	"051"	n/a	n/a	n/a	n/a	n/a	n/a	"Trial"	n/a	n/a	n/a	"825"	"arrowdown"	n/a	"NULL"	"NULL"	"NULL"	"stimuli/MullerLyer_2.30000_-0.23665.png"	n/a	"MullerLyer"	"arrowdown"	"1111"	"TRUE"	"MullerLyer"	"2.3000000000"	"-0.236650000"	"1"	"78"
n/a	"html-keyboard-response"	"173"	"403311"	"0.0-5.0-2.0-0.60"	"u20r5h"	"600"	"1366"	"chrome"	"111.0.0"	"FALSE"	"Windows 10"	"60.14"	"051"	n/a	n/a	n/a	n/a	n/a	n/a	"fixation"	n/a	n/a	n/a	n/a	"NULL"	n/a	"NULL"	"NULL"	"NULL"	"<p style=\"color: black; font-size: 80px; padding-left: 24%; padding-right: 4%; padding-top: 25%; padding-bottom: 24%\">+</p>"	"1082"	n/a	n/a	n/a	n/a	n/a	n/a	n/a	n/a	n/a
n/a	"image-keyboard-response"	"174"	"403930"	"0.0-5.0-2.0-1.60"	"u20r5h"	"600"	"1366"	"chrome"	"111.0.0"	"FALSE"	"Windows 10"	"60.14"	"051"	n/a	n/a	n/a	n/a	n/a	n/a	"Trial"	n/a	n/a	n/a	"618"	"arrowup"	n/a	"NULL"	"NULL"	"NULL"	"stimuli/MullerLyer_20.04286_-0.14541.png"	n/a	"MullerLyer"	"arrowdown"	"1086"	"FALSE"	"MullerLyer"	"20.042860000"	"-0.145410000"	"1"	"79"
n/a	"html-keyboard-response"	"175"	"405284"	"0.0-5.0-2.0-0.61"	"u20r5h"	"600"	"1366"	"chrome"	"111.0.0"	"FALSE"	"Windows 10"	"60.14"	"051"	n/a	n/a	n/a	n/a	n/a	n/a	"fixation"	n/a	n/a	n/a	n/a	"NULL"	n/a	"NULL"	"NULL"	"NULL"	"<p style=\"color: black; font-size: 80px; padding-left: 29%; padding-right: 22%; padding-top: 31%; padding-bottom: 7%\">+</p>"	"1343"	n/a	n/a	n/a	n/a	n/a	n/a	n/a	n/a	n/a
n/a	"image-keyboard-response"	"176"	"405845"	"0.0-5.0-2.0-1.61"	"u20r5h"	"600"	"1366"	"chrome"	"111.0.0"	"FALSE"	"Windows 10"	"60.14"	"051"	n/a	n/a	n/a	n/a	n/a	n/a	"Trial"	n/a	n/a	n/a	"560"	"arrowdown"	n/a	"NULL"	"NULL"	"NULL"	"stimuli/MullerLyer_-20.04286_-0.07627.png"	n/a	"MullerLyer"	"arrowdown"	"1354"	"TRUE"	"MullerLyer"	"-20.04286000"	"-0.076270000"	"1"	"80"
n/a	"html-keyboard-response"	"177"	"406935"	"0.0-5.0-2.0-0.62"	"u20r5h"	"600"	"1366"	"chrome"	"111.0.0"	"FALSE"	"Windows 10"	"60.14"	"051"	n/a	n/a	n/a	n/a	n/a	n/a	"fixation"	n/a	n/a	n/a	n/a	"NULL"	n/a	"NULL"	"NULL"	"NULL"	"<p style=\"color: black; font-size: 80px; padding-left: 27%; padding-right: 24%; padding-top: 42%; padding-bottom: 10%\">+</p>"	"1085"	n/a	n/a	n/a	n/a	n/a	n/a	n/a	n/a	n/a
n/a	"image-keyboard-response"	"178"	"407487"	"0.0-5.0-2.0-1.62"	"u20r5h"	"600"	"1366"	"chrome"	"111.0.0"	"FALSE"	"Windows 10"	"60.14"	"051"	n/a	n/a	n/a	n/a	n/a	n/a	"Trial"	n/a	n/a	n/a	"552"	"arrowup"	n/a	"NULL"	"NULL"	"NULL"	"stimuli/MullerLyer_20.04286_-0.3500.png"	n/a	"MullerLyer"	"arrowdown"	"1090"	"FALSE"	"MullerLyer"	"20.042860000"	"-0.350000000"	"1"	"81"
n/a	"html-keyboard-response"	"179"	"408929"	"0.0-5.0-2.0-0.63"	"u20r5h"	"600"	"1366"	"chrome"	"111.0.0"	"FALSE"	"Windows 10"	"60.14"	"051"	n/a	n/a	n/a	n/a	n/a	n/a	"fixation"	n/a	n/a	n/a	n/a	"NULL"	n/a	"NULL"	"NULL"	"NULL"	"<p style=\"color: black; font-size: 80px; padding-left: 45%; padding-right: 15%; padding-top: 14%; padding-bottom: 6%\">+</p>"	"1433"	n/a	n/a	n/a	n/a	n/a	n/a	n/a	n/a	n/a
n/a	"image-keyboard-response"	"180"	"409682"	"0.0-5.0-2.0-1.63"	"u20r5h"	"600"	"1366"	"chrome"	"111.0.0"	"FALSE"	"Windows 10"	"60.14"	"051"	n/a	n/a	n/a	n/a	n/a	n/a	"Trial"	n/a	n/a	n/a	"752"	"arrowup"	n/a	"NULL"	"NULL"	"NULL"	"stimuli/MullerLyer_8.21429_0.07627.png"	n/a	"MullerLyer"	"arrowup"	"1442"	"TRUE"	"MullerLyer"	"8.2142900000"	"0.0762700000"	"1"	"82"
n/a	"html-button-response"	"181"	"427851"	"0.0-5.0-3.0"	"u20r5h"	"600"	"1366"	"chrome"	"111.0.0"	"FALSE"	"Windows 10"	"60.14"	"051"	n/a	n/a	n/a	n/a	n/a	n/a	"block_results"	n/a	n/a	n/a	"18167"	"0"	n/a	"NULL"	"NULL"	"NULL"	"<p>Your score for this illusion is <p style=\"color: black; font-size: 48px; font-weight: bold;\">78.9 %</p><hr><p>Can you do better in the next illusion?</p>"	n/a	n/a	n/a	n/a	n/a	n/a	n/a	n/a	n/a	n/a
"TRUE"	"preload"	"182"	"428031"	"0.0-6.0-0.0"	"u20r5h"	"600"	"1366"	"chrome"	"111.0.0"	"FALSE"	"Windows 10"	"60.14"	"051"	n/a	n/a	n/a	n/a	n/a	n/a	n/a	n/a	n/a	n/a	n/a	"NULL"	"FALSE"	"list()"	"list()"	"list()"	n/a	n/a	n/a	n/a	n/a	n/a	n/a	n/a	n/a	n/a	n/a
n/a	"html-keyboard-response"	"183"	"434371"	"0.0-6.0-1.0"	"u20r5h"	"600"	"1366"	"chrome"	"111.0.0"	"FALSE"	"Windows 10"	"60.14"	"051"	n/a	n/a	n/a	n/a	n/a	n/a	n/a	n/a	n/a	n/a	"6339"	"enter"	n/a	"NULL"	"NULL"	"NULL"	"<p><b>Part 2/6</b></p><p>In this part, two red lines will appear side by side.</p><p>Your task is to tell <b>which line is longer</b> in length, regardless of their orientation, as fast as you can, and without making errors.</p><p>Don't get distracted by the orientation of the lines!</p><p>Press <b>the LEFT or the RIGHT arrow</b> to indicate which <b>line is the longer one.</b></p><div style='float: center'><img src='materials/instructions/VerticalHorizontal_Demo.png' height='300'></img><p><img src='utils/answer/answer_leftright_keyboard.PNG' height='150'></img></p><p class='small'>In this example, the correct answer is the <b>LEFT arrow</b>.</p></div><p>Are you ready? <b>Press ENTER to start</b></p>"	n/a	n/a	n/a	n/a	n/a	n/a	n/a	n/a	n/a	n/a
n/a	"html-keyboard-response"	"184"	"436122"	"0.0-6.0-2.0-0.0"	"u20r5h"	"600"	"1366"	"chrome"	"111.0.0"	"FALSE"	"Windows 10"	"60.14"	"051"	n/a	n/a	n/a	n/a	n/a	n/a	"fixation"	n/a	n/a	n/a	n/a	"NULL"	n/a	"NULL"	"NULL"	"NULL"	"<p style=\"color: black; font-size: 80px; padding-left: 35%; padding-right: 46%; padding-top: 34%; padding-bottom: 19%\">+</p>"	"1236"	n/a	n/a	n/a	n/a	n/a	n/a	n/a	n/a	n/a
n/a	"image-keyboard-response"	"185"	"436614"	"0.0-6.0-2.0-1.0"	"u20r5h"	"600"	"1366"	"chrome"	"111.0.0"	"FALSE"	"Windows 10"	"60.14"	"051"	n/a	n/a	n/a	n/a	n/a	n/a	"Trial"	n/a	n/a	n/a	"491"	"arrowleft"	n/a	"NULL"	"NULL"	"NULL"	"stimuli/VerticalHorizontal_-3.3000_0.10960.png"	n/a	"VerticalHorizontal"	"arrowleft"	"1751"	"TRUE"	"VerticalHorizontal"	"-3.300000000"	"0.1096000000"	"2"	"1"
n/a	"html-keyboard-response"	"186"	"438036"	"0.0-6.0-2.0-0.1"	"u20r5h"	"600"	"1366"	"chrome"	"111.0.0"	"FALSE"	"Windows 10"	"60.14"	"051"	n/a	n/a	n/a	n/a	n/a	n/a	"fixation"	n/a	n/a	n/a	n/a	"NULL"	n/a	"NULL"	"NULL"	"NULL"	"<p style=\"color: black; font-size: 80px; padding-left: 49%; padding-right: 46%; padding-top: 34%; padding-bottom: 48%\">+</p>"	"1421"	n/a	n/a	n/a	n/a	n/a	n/a	n/a	n/a	n/a
n/a	"image-keyboard-response"	"187"	"438408"	"0.0-6.0-2.0-1.1"	"u20r5h"	"600"	"1366"	"chrome"	"111.0.0"	"FALSE"	"Windows 10"	"60.14"	"051"	n/a	n/a	n/a	n/a	n/a	n/a	"Trial"	n/a	n/a	n/a	"371"	"arrowleft"	n/a	"NULL"	"NULL"	"NULL"	"stimuli/VerticalHorizontal_28.75714_-0.0673.png"	n/a	"VerticalHorizontal"	"arrowright"	"1422"	"FALSE"	"VerticalHorizontal"	"28.757140000"	"-0.067300000"	"2"	"2"
n/a	"html-keyboard-response"	"188"	"439465"	"0.0-6.0-2.0-0.2"	"u20r5h"	"600"	"1366"	"chrome"	"111.0.0"	"FALSE"	"Windows 10"	"60.14"	"051"	n/a	n/a	n/a	n/a	n/a	n/a	"fixation"	n/a	n/a	n/a	n/a	"NULL"	n/a	"NULL"	"NULL"	"NULL"	"<p style=\"color: black; font-size: 80px; padding-left: 17%; padding-right: 50%; padding-top: 8%; padding-bottom: 50%\">+</p>"	"1053"	n/a	n/a	n/a	n/a	n/a	n/a	n/a	n/a	n/a
n/a	"image-keyboard-response"	"189"	"440141"	"0.0-6.0-2.0-1.2"	"u20r5h"	"600"	"1366"	"chrome"	"111.0.0"	"FALSE"	"Windows 10"	"60.14"	"051"	n/a	n/a	n/a	n/a	n/a	n/a	"Trial"	n/a	n/a	n/a	"675"	"arrowright"	n/a	"NULL"	"NULL"	"NULL"	"stimuli/VerticalHorizontal_28.75714_0.06730.png"	n/a	"VerticalHorizontal"	"arrowleft"	"1057"	"FALSE"	"VerticalHorizontal"	"28.757140000"	"0.0673000000"	"2"	"3"
n/a	"html-keyboard-response"	"190"	"441187"	"0.0-6.0-2.0-0.3"	"u20r5h"	"600"	"1366"	"chrome"	"111.0.0"	"FALSE"	"Windows 10"	"60.14"	"051"	n/a	n/a	n/a	n/a	n/a	n/a	"fixation"	n/a	n/a	n/a	n/a	"NULL"	n/a	"NULL"	"NULL"	"NULL"	"<p style=\"color: black; font-size: 80px; padding-left: 10%; padding-right: 27%; padding-top: 43%; padding-bottom: 16%\">+</p>"	"1044"	n/a	n/a	n/a	n/a	n/a	n/a	n/a	n/a	n/a
n/a	"image-keyboard-response"	"191"	"441633"	"0.0-6.0-2.0-1.3"	"u20r5h"	"600"	"1366"	"chrome"	"111.0.0"	"FALSE"	"Windows 10"	"60.14"	"051"	n/a	n/a	n/a	n/a	n/a	n/a	"Trial"	n/a	n/a	n/a	"446"	"arrowright"	n/a	"NULL"	"NULL"	"NULL"	"stimuli/VerticalHorizontal_-11.78571_-0.16217.png"	n/a	"VerticalHorizontal"	"arrowright"	"1046"	"TRUE"	"VerticalHorizontal"	"-11.78571000"	"-0.162170000"	"2"	"4"
n/a	"html-keyboard-response"	"192"	"442794"	"0.0-6.0-2.0-0.4"	"u20r5h"	"600"	"1366"	"chrome"	"111.0.0"	"FALSE"	"Windows 10"	"60.14"	"051"	n/a	n/a	n/a	n/a	n/a	n/a	"fixation"	n/a	n/a	n/a	n/a	"NULL"	n/a	"NULL"	"NULL"	"NULL"	"<p style=\"color: black; font-size: 80px; padding-left: 30%; padding-right: 33%; padding-top: 44%; padding-bottom: 46%\">+</p>"	"1144"	n/a	n/a	n/a	n/a	n/a	n/a	n/a	n/a	n/a
n/a	"image-keyboard-response"	"193"	"443196"	"0.0-6.0-2.0-1.4"	"u20r5h"	"600"	"1366"	"chrome"	"111.0.0"	"FALSE"	"Windows 10"	"60.14"	"051"	n/a	n/a	n/a	n/a	n/a	n/a	"Trial"	n/a	n/a	n/a	"401"	"arrowleft"	n/a	"NULL"	"NULL"	"NULL"	"stimuli/VerticalHorizontal_-28.75714_0.06730.png"	n/a	"VerticalHorizontal"	"arrowleft"	"1161"	"TRUE"	"VerticalHorizontal"	"-28.75714000"	"0.0673000000"	"2"	"5"
n/a	"html-keyboard-response"	"194"	"444492"	"0.0-6.0-2.0-0.5"	"u20r5h"	"600"	"1366"	"chrome"	"111.0.0"	"FALSE"	"Windows 10"	"60.14"	"051"	n/a	n/a	n/a	n/a	n/a	n/a	"fixation"	n/a	n/a	n/a	n/a	"NULL"	n/a	"NULL"	"NULL"	"NULL"	"<p style=\"color: black; font-size: 80px; padding-left: 14%; padding-right: 25%; padding-top: 6%; padding-bottom: 1%\">+</p>"	"1288"	n/a	n/a	n/a	n/a	n/a	n/a	n/a	n/a	n/a
n/a	"image-keyboard-response"	"195"	"445052"	"0.0-6.0-2.0-1.5"	"u20r5h"	"600"	"1366"	"chrome"	"111.0.0"	"FALSE"	"Windows 10"	"60.14"	"051"	n/a	n/a	n/a	n/a	n/a	n/a	"Trial"	n/a	n/a	n/a	"559"	"arrowleft"	n/a	"NULL"	"NULL"	"NULL"	"stimuli/VerticalHorizontal_11.78571_0.16217.png"	n/a	"VerticalHorizontal"	"arrowleft"	"1296"	"TRUE"	"VerticalHorizontal"	"11.785710000"	"0.1621700000"	"2"	"6"
n/a	"html-keyboard-response"	"196"	"446113"	"0.0-6.0-2.0-0.6"	"u20r5h"	"600"	"1366"	"chrome"	"111.0.0"	"FALSE"	"Windows 10"	"60.14"	"051"	n/a	n/a	n/a	n/a	n/a	n/a	"fixation"	n/a	n/a	n/a	n/a	"NULL"	n/a	"NULL"	"NULL"	"NULL"	"<p style=\"color: black; font-size: 80px; padding-left: 4%; padding-right: 35%; padding-top: 37%; padding-bottom: 5%\">+</p>"	"1049"	n/a	n/a	n/a	n/a	n/a	n/a	n/a	n/a	n/a
n/a	"image-keyboard-response"	"197"	"446548"	"0.0-6.0-2.0-1.6"	"u20r5h"	"600"	"1366"	"chrome"	"111.0.0"	"FALSE"	"Windows 10"	"60.14"	"051"	n/a	n/a	n/a	n/a	n/a	n/a	"Trial"	n/a	n/a	n/a	"434"	"arrowleft"	n/a	"NULL"	"NULL"	"NULL"	"stimuli/VerticalHorizontal_-20.27143_0.10960.png"	n/a	"VerticalHorizontal"	"arrowleft"	"1061"	"TRUE"	"VerticalHorizontal"	"-20.27143000"	"0.1096000000"	"2"	"7"
n/a	"html-keyboard-response"	"198"	"448053"	"0.0-6.0-2.0-0.7"	"u20r5h"	"600"	"1366"	"chrome"	"111.0.0"	"FALSE"	"Windows 10"	"60.14"	"051"	n/a	n/a	n/a	n/a	n/a	n/a	"fixation"	n/a	n/a	n/a	n/a	"NULL"	n/a	"NULL"	"NULL"	"NULL"	"<p style=\"color: black; font-size: 80px; padding-left: 10%; padding-right: 41%; padding-top: 23%; padding-bottom: 26%\">+</p>"	"1494"	n/a	n/a	n/a	n/a	n/a	n/a	n/a	n/a	n/a
n/a	"image-keyboard-response"	"199"	"448415"	"0.0-6.0-2.0-1.7"	"u20r5h"	"600"	"1366"	"chrome"	"111.0.0"	"FALSE"	"Windows 10"	"60.14"	"051"	n/a	n/a	n/a	n/a	n/a	n/a	"Trial"	n/a	n/a	n/a	"361"	"arrowleft"	n/a	"NULL"	"NULL"	"NULL"	"stimuli/VerticalHorizontal_-3.3000_0.16217.png"	n/a	"VerticalHorizontal"	"arrowleft"	"1505"	"TRUE"	"VerticalHorizontal"	"-3.300000000"	"0.1621700000"	"2"	"8"
n/a	"html-keyboard-response"	"200"	"449513"	"0.0-6.0-2.0-0.8"	"u20r5h"	"600"	"1366"	"chrome"	"111.0.0"	"FALSE"	"Windows 10"	"60.14"	"051"	n/a	n/a	n/a	n/a	n/a	n/a	"fixation"	n/a	n/a	n/a	n/a	"NULL"	n/a	"NULL"	"NULL"	"NULL"	"<p style=\"color: black; font-size: 80px; padding-left: 16%; padding-right: 45%; padding-top: 22%; padding-bottom: 42%\">+</p>"	"1084"	n/a	n/a	n/a	n/a	n/a	n/a	n/a	n/a	n/a
n/a	"image-keyboard-response"	"201"	"450141"	"0.0-6.0-2.0-1.8"	"u20r5h"	"600"	"1366"	"chrome"	"111.0.0"	"FALSE"	"Windows 10"	"60.14"	"051"	n/a	n/a	n/a	n/a	n/a	n/a	"Trial"	n/a	n/a	n/a	"628"	"arrowright"	n/a	"NULL"	"NULL"	"NULL"	"stimuli/VerticalHorizontal_28.75714_-0.2250.png"	n/a	"VerticalHorizontal"	"arrowright"	"1098"	"TRUE"	"VerticalHorizontal"	"28.757140000"	"-0.225000000"	"2"	"9"
n/a	"html-keyboard-response"	"202"	"451292"	"0.0-6.0-2.0-0.9"	"u20r5h"	"600"	"1366"	"chrome"	"111.0.0"	"FALSE"	"Windows 10"	"60.14"	"051"	n/a	n/a	n/a	n/a	n/a	n/a	"fixation"	n/a	n/a	n/a	n/a	"NULL"	n/a	"NULL"	"NULL"	"NULL"	"<p style=\"color: black; font-size: 80px; padding-left: 41%; padding-right: 42%; padding-top: 9%; padding-bottom: 21%\">+</p>"	"1141"	n/a	n/a	n/a	n/a	n/a	n/a	n/a	n/a	n/a
n/a	"image-keyboard-response"	"203"	"451985"	"0.0-6.0-2.0-1.9"	"u20r5h"	"600"	"1366"	"chrome"	"111.0.0"	"FALSE"	"Windows 10"	"60.14"	"051"	n/a	n/a	n/a	n/a	n/a	n/a	"Trial"	n/a	n/a	n/a	"693"	"arrowleft"	n/a	"NULL"	"NULL"	"NULL"	"stimuli/VerticalHorizontal_3.30000_0.16217.png"	n/a	"VerticalHorizontal"	"arrowleft"	"1151"	"TRUE"	"VerticalHorizontal"	"3.3000000000"	"0.1621700000"	"2"	"10"
n/a	"html-keyboard-response"	"204"	"453110"	"0.0-6.0-2.0-0.10"	"u20r5h"	"600"	"1366"	"chrome"	"111.0.0"	"FALSE"	"Windows 10"	"60.14"	"051"	n/a	n/a	n/a	n/a	n/a	n/a	"fixation"	n/a	n/a	n/a	n/a	"NULL"	n/a	"NULL"	"NULL"	"NULL"	"<p style=\"color: black; font-size: 80px; padding-left: 12%; padding-right: 35%; padding-top: 28%; padding-bottom: 49%\">+</p>"	"1122"	n/a	n/a	n/a	n/a	n/a	n/a	n/a	n/a	n/a
n/a	"image-keyboard-response"	"205"	"453623"	"0.0-6.0-2.0-1.10"	"u20r5h"	"600"	"1366"	"chrome"	"111.0.0"	"FALSE"	"Windows 10"	"60.14"	"051"	n/a	n/a	n/a	n/a	n/a	n/a	"Trial"	n/a	n/a	n/a	"512"	"arrowleft"	n/a	"NULL"	"NULL"	"NULL"	"stimuli/VerticalHorizontal_20.27143_-0.0673.png"	n/a	"VerticalHorizontal"	"arrowright"	"1125"	"FALSE"	"VerticalHorizontal"	"20.271430000"	"-0.067300000"	"2"	"11"
n/a	"html-keyboard-response"	"206"	"454749"	"0.0-6.0-2.0-0.11"	"u20r5h"	"600"	"1366"	"chrome"	"111.0.0"	"FALSE"	"Windows 10"	"60.14"	"051"	n/a	n/a	n/a	n/a	n/a	n/a	"fixation"	n/a	n/a	n/a	n/a	"NULL"	n/a	"NULL"	"NULL"	"NULL"	"<p style=\"color: black; font-size: 80px; padding-left: 9%; padding-right: 38%; padding-top: 22%; padding-bottom: 9%\">+</p>"	"1114"	n/a	n/a	n/a	n/a	n/a	n/a	n/a	n/a	n/a
n/a	"image-keyboard-response"	"207"	"455220"	"0.0-6.0-2.0-1.11"	"u20r5h"	"600"	"1366"	"chrome"	"111.0.0"	"FALSE"	"Windows 10"	"60.14"	"051"	n/a	n/a	n/a	n/a	n/a	n/a	"Trial"	n/a	n/a	n/a	"471"	"arrowright"	n/a	"NULL"	"NULL"	"NULL"	"stimuli/VerticalHorizontal_-11.78571_-0.2250.png"	n/a	"VerticalHorizontal"	"arrowright"	"1126"	"TRUE"	"VerticalHorizontal"	"-11.78571000"	"-0.225000000"	"2"	"12"
n/a	"html-keyboard-response"	"208"	"456341"	"0.0-6.0-2.0-0.12"	"u20r5h"	"600"	"1366"	"chrome"	"111.0.0"	"FALSE"	"Windows 10"	"60.14"	"051"	n/a	n/a	n/a	n/a	n/a	n/a	"fixation"	n/a	n/a	n/a	n/a	"NULL"	n/a	"NULL"	"NULL"	"NULL"	"<p style=\"color: black; font-size: 80px; padding-left: 44%; padding-right: 4%; padding-top: 39%; padding-bottom: 39%\">+</p>"	"1113"	n/a	n/a	n/a	n/a	n/a	n/a	n/a	n/a	n/a
n/a	"image-keyboard-response"	"209"	"456775"	"0.0-6.0-2.0-1.12"	"u20r5h"	"600"	"1366"	"chrome"	"111.0.0"	"FALSE"	"Windows 10"	"60.14"	"051"	n/a	n/a	n/a	n/a	n/a	n/a	"Trial"	n/a	n/a	n/a	"433"	"arrowright"	n/a	"NULL"	"NULL"	"NULL"	"stimuli/VerticalHorizontal_-11.78571_-0.1096.png"	n/a	"VerticalHorizontal"	"arrowright"	"1121"	"TRUE"	"VerticalHorizontal"	"-11.78571000"	"-0.109600000"	"2"	"13"
n/a	"html-keyboard-response"	"210"	"458084"	"0.0-6.0-2.0-0.13"	"u20r5h"	"600"	"1366"	"chrome"	"111.0.0"	"FALSE"	"Windows 10"	"60.14"	"051"	n/a	n/a	n/a	n/a	n/a	n/a	"fixation"	n/a	n/a	n/a	n/a	"NULL"	n/a	"NULL"	"NULL"	"NULL"	"<p style=\"color: black; font-size: 80px; padding-left: 50%; padding-right: 4%; padding-top: 28%; padding-bottom: 10%\">+</p>"	"1306"	n/a	n/a	n/a	n/a	n/a	n/a	n/a	n/a	n/a
n/a	"image-keyboard-response"	"211"	"458533"	"0.0-6.0-2.0-1.13"	"u20r5h"	"600"	"1366"	"chrome"	"111.0.0"	"FALSE"	"Windows 10"	"60.14"	"051"	n/a	n/a	n/a	n/a	n/a	n/a	"Trial"	n/a	n/a	n/a	"448"	"arrowright"	n/a	"NULL"	"NULL"	"NULL"	"stimuli/VerticalHorizontal_-28.75714_-0.2250.png"	n/a	"VerticalHorizontal"	"arrowright"	"1309"	"TRUE"	"VerticalHorizontal"	"-28.75714000"	"-0.225000000"	"2"	"14"
n/a	"html-keyboard-response"	"212"	"459824"	"0.0-6.0-2.0-0.14"	"u20r5h"	"600"	"1366"	"chrome"	"111.0.0"	"FALSE"	"Windows 10"	"60.14"	"051"	n/a	n/a	n/a	n/a	n/a	n/a	"fixation"	n/a	n/a	n/a	n/a	"NULL"	n/a	"NULL"	"NULL"	"NULL"	"<p style=\"color: black; font-size: 80px; padding-left: 40%; padding-right: 44%; padding-top: 18%; padding-bottom: 1%\">+</p>"	"1282"	n/a	n/a	n/a	n/a	n/a	n/a	n/a	n/a	n/a
n/a	"image-keyboard-response"	"213"	"460238"	"0.0-6.0-2.0-1.14"	"u20r5h"	"600"	"1366"	"chrome"	"111.0.0"	"FALSE"	"Windows 10"	"60.14"	"051"	n/a	n/a	n/a	n/a	n/a	n/a	"Trial"	n/a	n/a	n/a	"413"	"arrowleft"	n/a	"NULL"	"NULL"	"NULL"	"stimuli/VerticalHorizontal_-3.3000_0.06730.png"	n/a	"VerticalHorizontal"	"arrowleft"	"1291"	"TRUE"	"VerticalHorizontal"	"-3.300000000"	"0.0673000000"	"2"	"15"
n/a	"html-keyboard-response"	"214"	"461569"	"0.0-6.0-2.0-0.15"	"u20r5h"	"600"	"1366"	"chrome"	"111.0.0"	"FALSE"	"Windows 10"	"60.14"	"051"	n/a	n/a	n/a	n/a	n/a	n/a	"fixation"	n/a	n/a	n/a	n/a	"NULL"	n/a	"NULL"	"NULL"	"NULL"	"<p style=\"color: black; font-size: 80px; padding-left: 36%; padding-right: 29%; padding-top: 27%; padding-bottom: 27%\">+</p>"	"1327"	n/a	n/a	n/a	n/a	n/a	n/a	n/a	n/a	n/a
n/a	"image-keyboard-response"	"215"	"462178"	"0.0-6.0-2.0-1.15"	"u20r5h"	"600"	"1366"	"chrome"	"111.0.0"	"FALSE"	"Windows 10"	"60.14"	"051"	n/a	n/a	n/a	n/a	n/a	n/a	"Trial"	n/a	n/a	n/a	"608"	"arrowright"	n/a	"NULL"	"NULL"	"NULL"	"stimuli/VerticalHorizontal_11.78571_-0.16217.png"	n/a	"VerticalHorizontal"	"arrowright"	"1331"	"TRUE"	"VerticalHorizontal"	"11.785710000"	"-0.162170000"	"2"	"16"
n/a	"html-keyboard-response"	"216"	"463268"	"0.0-6.0-2.0-0.16"	"u20r5h"	"600"	"1366"	"chrome"	"111.0.0"	"FALSE"	"Windows 10"	"60.14"	"051"	n/a	n/a	n/a	n/a	n/a	n/a	"fixation"	n/a	n/a	n/a	n/a	"NULL"	n/a	"NULL"	"NULL"	"NULL"	"<p style=\"color: black; font-size: 80px; padding-left: 41%; padding-right: 37%; padding-top: 21%; padding-bottom: 40%\">+</p>"	"1083"	n/a	n/a	n/a	n/a	n/a	n/a	n/a	n/a	n/a
n/a	"image-keyboard-response"	"217"	"463771"	"0.0-6.0-2.0-1.16"	"u20r5h"	"600"	"1366"	"chrome"	"111.0.0"	"FALSE"	"Windows 10"	"60.14"	"051"	n/a	n/a	n/a	n/a	n/a	n/a	"Trial"	n/a	n/a	n/a	"502"	"arrowleft"	n/a	"NULL"	"NULL"	"NULL"	"stimuli/VerticalHorizontal_-11.78571_0.22500.png"	n/a	"VerticalHorizontal"	"arrowleft"	"1090"	"TRUE"	"VerticalHorizontal"	"-11.78571000"	"0.2250000000"	"2"	"17"
n/a	"html-keyboard-response"	"218"	"465107"	"0.0-6.0-2.0-0.17"	"u20r5h"	"600"	"1366"	"chrome"	"111.0.0"	"FALSE"	"Windows 10"	"60.14"	"051"	n/a	n/a	n/a	n/a	n/a	n/a	"fixation"	n/a	n/a	n/a	n/a	"NULL"	n/a	"NULL"	"NULL"	"NULL"	"<p style=\"color: black; font-size: 80px; padding-left: 5%; padding-right: 37%; padding-top: 20%; padding-bottom: 7%\">+</p>"	"1328"	n/a	n/a	n/a	n/a	n/a	n/a	n/a	n/a	n/a
n/a	"image-keyboard-response"	"219"	"465518"	"0.0-6.0-2.0-1.17"	"u20r5h"	"600"	"1366"	"chrome"	"111.0.0"	"FALSE"	"Windows 10"	"60.14"	"051"	n/a	n/a	n/a	n/a	n/a	n/a	"Trial"	n/a	n/a	n/a	"411"	"arrowright"	n/a	"NULL"	"NULL"	"NULL"	"stimuli/VerticalHorizontal_11.78571_0.10960.png"	n/a	"VerticalHorizontal"	"arrowleft"	"1336"	"FALSE"	"VerticalHorizontal"	"11.785710000"	"0.1096000000"	"2"	"18"
n/a	"html-keyboard-response"	"220"	"466584"	"0.0-6.0-2.0-0.18"	"u20r5h"	"600"	"1366"	"chrome"	"111.0.0"	"FALSE"	"Windows 10"	"60.14"	"051"	n/a	n/a	n/a	n/a	n/a	n/a	"fixation"	n/a	n/a	n/a	n/a	"NULL"	n/a	"NULL"	"NULL"	"NULL"	"<p style=\"color: black; font-size: 80px; padding-left: 15%; padding-right: 22%; padding-top: 11%; padding-bottom: 28%\">+</p>"	"1058"	n/a	n/a	n/a	n/a	n/a	n/a	n/a	n/a	n/a
n/a	"image-keyboard-response"	"221"	"467441"	"0.0-6.0-2.0-1.18"	"u20r5h"	"600"	"1366"	"chrome"	"111.0.0"	"FALSE"	"Windows 10"	"60.14"	"051"	n/a	n/a	n/a	n/a	n/a	n/a	"Trial"	n/a	n/a	n/a	"856"	"arrowleft"	n/a	"NULL"	"NULL"	"NULL"	"stimuli/VerticalHorizontal_3.30000_0.06730.png"	n/a	"VerticalHorizontal"	"arrowleft"	"1066"	"TRUE"	"VerticalHorizontal"	"3.3000000000"	"0.0673000000"	"2"	"19"
n/a	"html-keyboard-response"	"222"	"468944"	"0.0-6.0-2.0-0.19"	"u20r5h"	"600"	"1366"	"chrome"	"111.0.0"	"FALSE"	"Windows 10"	"60.14"	"051"	n/a	n/a	n/a	n/a	n/a	n/a	"fixation"	n/a	n/a	n/a	n/a	"NULL"	n/a	"NULL"	"NULL"	"NULL"	"<p style=\"color: black; font-size: 80px; padding-left: 12%; padding-right: 35%; padding-top: 47%; padding-bottom: 42%\">+</p>"	"1487"	n/a	n/a	n/a	n/a	n/a	n/a	n/a	n/a	n/a
n/a	"image-keyboard-response"	"223"	"469361"	"0.0-6.0-2.0-1.19"	"u20r5h"	"600"	"1366"	"chrome"	"111.0.0"	"FALSE"	"Windows 10"	"60.14"	"051"	n/a	n/a	n/a	n/a	n/a	n/a	"Trial"	n/a	n/a	n/a	"417"	"arrowleft"	n/a	"NULL"	"NULL"	"NULL"	"stimuli/VerticalHorizontal_3.30000_0.10960.png"	n/a	"VerticalHorizontal"	"arrowleft"	"1503"	"TRUE"	"VerticalHorizontal"	"3.3000000000"	"0.1096000000"	"2"	"20"
n/a	"html-keyboard-response"	"224"	"470719"	"0.0-6.0-2.0-0.20"	"u20r5h"	"600"	"1366"	"chrome"	"111.0.0"	"FALSE"	"Windows 10"	"60.14"	"051"	n/a	n/a	n/a	n/a	n/a	n/a	"fixation"	n/a	n/a	n/a	n/a	"NULL"	n/a	"NULL"	"NULL"	"NULL"	"<p style=\"color: black; font-size: 80px; padding-left: 12%; padding-right: 8%; padding-top: 13%; padding-bottom: 27%\">+</p>"	"1342"	n/a	n/a	n/a	n/a	n/a	n/a	n/a	n/a	n/a
n/a	"image-keyboard-response"	"225"	"471164"	"0.0-6.0-2.0-1.20"	"u20r5h"	"600"	"1366"	"chrome"	"111.0.0"	"FALSE"	"Windows 10"	"60.14"	"051"	n/a	n/a	n/a	n/a	n/a	n/a	"Trial"	n/a	n/a	n/a	"445"	"arrowleft"	n/a	"NULL"	"NULL"	"NULL"	"stimuli/VerticalHorizontal_-20.27143_0.22500.png"	n/a	"VerticalHorizontal"	"arrowleft"	"1358"	"TRUE"	"VerticalHorizontal"	"-20.27143000"	"0.2250000000"	"2"	"21"
n/a	"html-keyboard-response"	"226"	"472376"	"0.0-6.0-2.0-0.21"	"u20r5h"	"600"	"1366"	"chrome"	"111.0.0"	"FALSE"	"Windows 10"	"60.14"	"051"	n/a	n/a	n/a	n/a	n/a	n/a	"fixation"	n/a	n/a	n/a	n/a	"NULL"	n/a	"NULL"	"NULL"	"NULL"	"<p style=\"color: black; font-size: 80px; padding-left: 12%; padding-right: 25%; padding-top: 17%; padding-bottom: 40%\">+</p>"	"1198"	n/a	n/a	n/a	n/a	n/a	n/a	n/a	n/a	n/a
n/a	"image-keyboard-response"	"227"	"472800"	"0.0-6.0-2.0-1.21"	"u20r5h"	"600"	"1366"	"chrome"	"111.0.0"	"FALSE"	"Windows 10"	"60.14"	"051"	n/a	n/a	n/a	n/a	n/a	n/a	"Trial"	n/a	n/a	n/a	"423"	"arrowleft"	n/a	"NULL"	"NULL"	"NULL"	"stimuli/VerticalHorizontal_-20.27143_0.06730.png"	n/a	"VerticalHorizontal"	"arrowleft"	"1212"	"TRUE"	"VerticalHorizontal"	"-20.27143000"	"0.0673000000"	"2"	"22"
n/a	"html-keyboard-response"	"228"	"474068"	"0.0-6.0-2.0-0.22"	"u20r5h"	"600"	"1366"	"chrome"	"111.0.0"	"FALSE"	"Windows 10"	"60.14"	"051"	n/a	n/a	n/a	n/a	n/a	n/a	"fixation"	n/a	n/a	n/a	n/a	"NULL"	n/a	"NULL"	"NULL"	"NULL"	"<p style=\"color: black; font-size: 80px; padding-left: 48%; padding-right: 9%; padding-top: 39%; padding-bottom: 7%\">+</p>"	"1259"	n/a	n/a	n/a	n/a	n/a	n/a	n/a	n/a	n/a
n/a	"image-keyboard-response"	"229"	"474503"	"0.0-6.0-2.0-1.22"	"u20r5h"	"600"	"1366"	"chrome"	"111.0.0"	"FALSE"	"Windows 10"	"60.14"	"051"	n/a	n/a	n/a	n/a	n/a	n/a	"Trial"	n/a	n/a	n/a	"435"	"arrowright"	n/a	"NULL"	"NULL"	"NULL"	"stimuli/VerticalHorizontal_-3.3000_-0.2250.png"	n/a	"VerticalHorizontal"	"arrowright"	"1268"	"TRUE"	"VerticalHorizontal"	"-3.300000000"	"-0.225000000"	"2"	"23"
n/a	"html-keyboard-response"	"230"	"475760"	"0.0-6.0-2.0-0.23"	"u20r5h"	"600"	"1366"	"chrome"	"111.0.0"	"FALSE"	"Windows 10"	"60.14"	"051"	n/a	n/a	n/a	n/a	n/a	n/a	"fixation"	n/a	n/a	n/a	n/a	"NULL"	n/a	"NULL"	"NULL"	"NULL"	"<p style=\"color: black; font-size: 80px; padding-left: 42%; padding-right: 2%; padding-top: 43%; padding-bottom: 14%\">+</p>"	"1251"	n/a	n/a	n/a	n/a	n/a	n/a	n/a	n/a	n/a
n/a	"image-keyboard-response"	"231"	"476335"	"0.0-6.0-2.0-1.23"	"u20r5h"	"600"	"1366"	"chrome"	"111.0.0"	"FALSE"	"Windows 10"	"60.14"	"051"	n/a	n/a	n/a	n/a	n/a	n/a	"Trial"	n/a	n/a	n/a	"574"	"arrowleft"	n/a	"NULL"	"NULL"	"NULL"	"stimuli/VerticalHorizontal_11.78571_-0.2250.png"	n/a	"VerticalHorizontal"	"arrowright"	"1257"	"FALSE"	"VerticalHorizontal"	"11.785710000"	"-0.225000000"	"2"	"24"
n/a	"html-keyboard-response"	"232"	"477811"	"0.0-6.0-2.0-0.24"	"u20r5h"	"600"	"1366"	"chrome"	"111.0.0"	"FALSE"	"Windows 10"	"60.14"	"051"	n/a	n/a	n/a	n/a	n/a	n/a	"fixation"	n/a	n/a	n/a	n/a	"NULL"	n/a	"NULL"	"NULL"	"NULL"	"<p style=\"color: black; font-size: 80px; padding-left: 28%; padding-right: 6%; padding-top: 1%; padding-bottom: 21%\">+</p>"	"1464"	n/a	n/a	n/a	n/a	n/a	n/a	n/a	n/a	n/a
n/a	"image-keyboard-response"	"233"	"478941"	"0.0-6.0-2.0-1.24"	"u20r5h"	"600"	"1366"	"chrome"	"111.0.0"	"FALSE"	"Windows 10"	"60.14"	"051"	n/a	n/a	n/a	n/a	n/a	n/a	"Trial"	n/a	n/a	n/a	"1129"	"arrowleft"	n/a	"NULL"	"NULL"	"NULL"	"stimuli/VerticalHorizontal_20.27143_0.06730.png"	n/a	"VerticalHorizontal"	"arrowleft"	"1476"	"TRUE"	"VerticalHorizontal"	"20.271430000"	"0.0673000000"	"2"	"25"
n/a	"html-keyboard-response"	"234"	"480404"	"0.0-6.0-2.0-0.25"	"u20r5h"	"600"	"1366"	"chrome"	"111.0.0"	"FALSE"	"Windows 10"	"60.14"	"051"	n/a	n/a	n/a	n/a	n/a	n/a	"fixation"	n/a	n/a	n/a	n/a	"NULL"	n/a	"NULL"	"NULL"	"NULL"	"<p style=\"color: black; font-size: 80px; padding-left: 12%; padding-right: 5%; padding-top: 19%; padding-bottom: 31%\">+</p>"	"1451"	n/a	n/a	n/a	n/a	n/a	n/a	n/a	n/a	n/a
n/a	"image-keyboard-response"	"235"	"480944"	"0.0-6.0-2.0-1.25"	"u20r5h"	"600"	"1366"	"chrome"	"111.0.0"	"FALSE"	"Windows 10"	"60.14"	"051"	n/a	n/a	n/a	n/a	n/a	n/a	"Trial"	n/a	n/a	n/a	"539"	"arrowleft"	n/a	"NULL"	"NULL"	"NULL"	"stimuli/VerticalHorizontal_11.78571_0.22500.png"	n/a	"VerticalHorizontal"	"arrowleft"	"1463"	"TRUE"	"VerticalHorizontal"	"11.785710000"	"0.2250000000"	"2"	"26"
n/a	"html-keyboard-response"	"236"	"482416"	"0.0-6.0-2.0-0.26"	"u20r5h"	"600"	"1366"	"chrome"	"111.0.0"	"FALSE"	"Windows 10"	"60.14"	"051"	n/a	n/a	n/a	n/a	n/a	n/a	"fixation"	n/a	n/a	n/a	n/a	"NULL"	n/a	"NULL"	"NULL"	"NULL"	"<p style=\"color: black; font-size: 80px; padding-left: 26%; padding-right: 9%; padding-top: 12%; padding-bottom: 5%\">+</p>"	"1461"	n/a	n/a	n/a	n/a	n/a	n/a	n/a	n/a	n/a
n/a	"image-keyboard-response"	"237"	"482923"	"0.0-6.0-2.0-1.26"	"u20r5h"	"600"	"1366"	"chrome"	"111.0.0"	"FALSE"	"Windows 10"	"60.14"	"051"	n/a	n/a	n/a	n/a	n/a	n/a	"Trial"	n/a	n/a	n/a	"506"	"arrowright"	n/a	"NULL"	"NULL"	"NULL"	"stimuli/VerticalHorizontal_-20.27143_-0.2250.png"	n/a	"VerticalHorizontal"	"arrowright"	"1472"	"TRUE"	"VerticalHorizontal"	"-20.27143000"	"-0.225000000"	"2"	"27"
n/a	"html-keyboard-response"	"238"	"483965"	"0.0-6.0-2.0-0.27"	"u20r5h"	"600"	"1366"	"chrome"	"111.0.0"	"FALSE"	"Windows 10"	"60.14"	"051"	n/a	n/a	n/a	n/a	n/a	n/a	"fixation"	n/a	n/a	n/a	n/a	"NULL"	n/a	"NULL"	"NULL"	"NULL"	"<p style=\"color: black; font-size: 80px; padding-left: 4%; padding-right: 25%; padding-top: 37%; padding-bottom: 2%\">+</p>"	"1037"	n/a	n/a	n/a	n/a	n/a	n/a	n/a	n/a	n/a
n/a	"image-keyboard-response"	"239"	"484672"	"0.0-6.0-2.0-1.27"	"u20r5h"	"600"	"1366"	"chrome"	"111.0.0"	"FALSE"	"Windows 10"	"60.14"	"051"	n/a	n/a	n/a	n/a	n/a	n/a	"Trial"	n/a	n/a	n/a	"707"	"arrowleft"	n/a	"NULL"	"NULL"	"NULL"	"stimuli/VerticalHorizontal_11.78571_0.06730.png"	n/a	"VerticalHorizontal"	"arrowleft"	"1042"	"TRUE"	"VerticalHorizontal"	"11.785710000"	"0.0673000000"	"2"	"28"
n/a	"html-keyboard-response"	"240"	"485856"	"0.0-6.0-2.0-0.28"	"u20r5h"	"600"	"1366"	"chrome"	"111.0.0"	"FALSE"	"Windows 10"	"60.14"	"051"	n/a	n/a	n/a	n/a	n/a	n/a	"fixation"	n/a	n/a	n/a	n/a	"NULL"	n/a	"NULL"	"NULL"	"NULL"	"<p style=\"color: black; font-size: 80px; padding-left: 33%; padding-right: 15%; padding-top: 43%; padding-bottom: 17%\">+</p>"	"1175"	n/a	n/a	n/a	n/a	n/a	n/a	n/a	n/a	n/a
n/a	"image-keyboard-response"	"241"	"486463"	"0.0-6.0-2.0-1.28"	"u20r5h"	"600"	"1366"	"chrome"	"111.0.0"	"FALSE"	"Windows 10"	"60.14"	"051"	n/a	n/a	n/a	n/a	n/a	n/a	"Trial"	n/a	n/a	n/a	"606"	"arrowright"	n/a	"NULL"	"NULL"	"NULL"	"stimuli/VerticalHorizontal_-3.3000_-0.16217.png"	n/a	"VerticalHorizontal"	"arrowright"	"1184"	"TRUE"	"VerticalHorizontal"	"-3.300000000"	"-0.162170000"	"2"	"29"
n/a	"html-keyboard-response"	"242"	"487609"	"0.0-6.0-2.0-0.29"	"u20r5h"	"600"	"1366"	"chrome"	"111.0.0"	"FALSE"	"Windows 10"	"60.14"	"051"	n/a	n/a	n/a	n/a	n/a	n/a	"fixation"	n/a	n/a	n/a	n/a	"NULL"	n/a	"NULL"	"NULL"	"NULL"	"<p style=\"color: black; font-size: 80px; padding-left: 33%; padding-right: 35%; padding-top: 30%; padding-bottom: 5%\">+</p>"	"1145"	n/a	n/a	n/a	n/a	n/a	n/a	n/a	n/a	n/a
n/a	"image-keyboard-response"	"243"	"488164"	"0.0-6.0-2.0-1.29"	"u20r5h"	"600"	"1366"	"chrome"	"111.0.0"	"FALSE"	"Windows 10"	"60.14"	"051"	n/a	n/a	n/a	n/a	n/a	n/a	"Trial"	n/a	n/a	n/a	"554"	"arrowleft"	n/a	"NULL"	"NULL"	"NULL"	"stimuli/VerticalHorizontal_20.27143_0.16217.png"	n/a	"VerticalHorizontal"	"arrowleft"	"1146"	"TRUE"	"VerticalHorizontal"	"20.271430000"	"0.1621700000"	"2"	"30"
n/a	"html-keyboard-response"	"244"	"489541"	"0.0-6.0-2.0-0.30"	"u20r5h"	"600"	"1366"	"chrome"	"111.0.0"	"FALSE"	"Windows 10"	"60.14"	"051"	n/a	n/a	n/a	n/a	n/a	n/a	"fixation"	n/a	n/a	n/a	n/a	"NULL"	n/a	"NULL"	"NULL"	"NULL"	"<p style=\"color: black; font-size: 80px; padding-left: 12%; padding-right: 20%; padding-top: 46%; padding-bottom: 44%\">+</p>"	"1368"	n/a	n/a	n/a	n/a	n/a	n/a	n/a	n/a	n/a
n/a	"image-keyboard-response"	"245"	"489897"	"0.0-6.0-2.0-1.30"	"u20r5h"	"600"	"1366"	"chrome"	"111.0.0"	"FALSE"	"Windows 10"	"60.14"	"051"	n/a	n/a	n/a	n/a	n/a	n/a	"Trial"	n/a	n/a	n/a	"356"	"arrowright"	n/a	"NULL"	"NULL"	"NULL"	"stimuli/VerticalHorizontal_-20.27143_-0.16217.png"	n/a	"VerticalHorizontal"	"arrowright"	"1377"	"TRUE"	"VerticalHorizontal"	"-20.27143000"	"-0.162170000"	"2"	"31"
n/a	"html-keyboard-response"	"246"	"491305"	"0.0-6.0-2.0-0.31"	"u20r5h"	"600"	"1366"	"chrome"	"111.0.0"	"FALSE"	"Windows 10"	"60.14"	"051"	n/a	n/a	n/a	n/a	n/a	n/a	"fixation"	n/a	n/a	n/a	n/a	"NULL"	n/a	"NULL"	"NULL"	"NULL"	"<p style=\"color: black; font-size: 80px; padding-left: 19%; padding-right: 8%; padding-top: 33%; padding-bottom: 45%\">+</p>"	"1406"	n/a	n/a	n/a	n/a	n/a	n/a	n/a	n/a	n/a
n/a	"image-keyboard-response"	"247"	"491996"	"0.0-6.0-2.0-1.31"	"u20r5h"	"600"	"1366"	"chrome"	"111.0.0"	"FALSE"	"Windows 10"	"60.14"	"051"	n/a	n/a	n/a	n/a	n/a	n/a	"Trial"	n/a	n/a	n/a	"690"	"arrowleft"	n/a	"NULL"	"NULL"	"NULL"	"stimuli/VerticalHorizontal_-20.27143_-0.0673.png"	n/a	"VerticalHorizontal"	"arrowright"	"1408"	"FALSE"	"VerticalHorizontal"	"-20.27143000"	"-0.067300000"	"2"	"32"
n/a	"html-keyboard-response"	"248"	"493333"	"0.0-6.0-2.0-0.32"	"u20r5h"	"600"	"1366"	"chrome"	"111.0.0"	"FALSE"	"Windows 10"	"60.14"	"051"	n/a	n/a	n/a	n/a	n/a	n/a	"fixation"	n/a	n/a	n/a	n/a	"NULL"	n/a	"NULL"	"NULL"	"NULL"	"<p style=\"color: black; font-size: 80px; padding-left: 41%; padding-right: 17%; padding-top: 12%; padding-bottom: 32%\">+</p>"	"1326"	n/a	n/a	n/a	n/a	n/a	n/a	n/a	n/a	n/a
n/a	"image-keyboard-response"	"249"	"494027"	"0.0-6.0-2.0-1.32"	"u20r5h"	"600"	"1366"	"chrome"	"111.0.0"	"FALSE"	"Windows 10"	"60.14"	"051"	n/a	n/a	n/a	n/a	n/a	n/a	"Trial"	n/a	n/a	n/a	"693"	"arrowright"	n/a	"NULL"	"NULL"	"NULL"	"stimuli/VerticalHorizontal_-20.27143_-0.1096.png"	n/a	"VerticalHorizontal"	"arrowright"	"1337"	"TRUE"	"VerticalHorizontal"	"-20.27143000"	"-0.109600000"	"2"	"33"
n/a	"html-keyboard-response"	"250"	"495154"	"0.0-6.0-2.0-0.33"	"u20r5h"	"600"	"1366"	"chrome"	"111.0.0"	"FALSE"	"Windows 10"	"60.14"	"051"	n/a	n/a	n/a	n/a	n/a	n/a	"fixation"	n/a	n/a	n/a	n/a	"NULL"	n/a	"NULL"	"NULL"	"NULL"	"<p style=\"color: black; font-size: 80px; padding-left: 0%; padding-right: 40%; padding-top: 31%; padding-bottom: 11%\">+</p>"	"1120"	n/a	n/a	n/a	n/a	n/a	n/a	n/a	n/a	n/a
n/a	"image-keyboard-response"	"251"	"495797"	"0.0-6.0-2.0-1.33"	"u20r5h"	"600"	"1366"	"chrome"	"111.0.0"	"FALSE"	"Windows 10"	"60.14"	"051"	n/a	n/a	n/a	n/a	n/a	n/a	"Trial"	n/a	n/a	n/a	"643"	"arrowleft"	n/a	"NULL"	"NULL"	"NULL"	"stimuli/VerticalHorizontal_11.78571_-0.0673.png"	n/a	"VerticalHorizontal"	"arrowright"	"1127"	"FALSE"	"VerticalHorizontal"	"11.785710000"	"-0.067300000"	"2"	"34"
