"success"	"trial_type"	"trial_index"	"time_elapsed"	"internal_node_id"	"participant_id"	"screen_height"	"screen_width"	"browser"	"browser_version"	"mobile"	"os"	"vsync_rate"	"subject_id"	"width"	"height"	"webaudio"	"fullscreen"	"webcam"	"microphone"	"screen"	"version"	"date"	"time"	"rt"	"response"	"timeout"	"failed_images"	"failed_audio"	"failed_video"	"stimulus"	"trial_duration"	"block"	"correct_response"	"prestimulus_duration"	"correct"	"type"	"illusion_strength"	"illusion_difference"	"block_number"	"trial_number"
"TRUE"	"fullscreen"	"0"	"3067"	"0.0-0.0"	"adg4o5"	"600"	"1366"	"chrome"	"110.0.0"	"FALSE"	"Windows 10"	"60.83"	"043"	n/a	n/a	n/a	n/a	n/a	n/a	n/a	n/a	n/a	n/a	n/a	"NULL"	n/a	"NULL"	"NULL"	"NULL"	n/a	n/a	n/a	n/a	n/a	n/a	n/a	n/a	n/a	n/a	n/a
n/a	"browser-check"	"1"	"4068"	"0.0-1.0"	"adg4o5"	"600"	"1366"	"chrome"	"110.0.0"	"FALSE"	"Windows 10"	"60.83"	"043"	"1366"	"600"	"TRUE"	"TRUE"	"TRUE"	"TRUE"	"browser_info"	"1.0"	"14/03/2023"	"14:29:31"	n/a	"NULL"	n/a	"NULL"	"NULL"	"NULL"	n/a	n/a	n/a	n/a	n/a	n/a	n/a	n/a	n/a	n/a	n/a
n/a	"survey-text"	"2"	"8761"	"0.0-2.0"	"adg4o5"	"600"	"1366"	"chrome"	"110.0.0"	"FALSE"	"Windows 10"	"60.83"	"043"	n/a	n/a	n/a	n/a	n/a	n/a	"subject_id"	n/a	n/a	n/a	"4689"	"list(subject_id = \"043\")"	n/a	"NULL"	"NULL"	"NULL"	n/a	n/a	n/a	n/a	n/a	n/a	n/a	n/a	n/a	n/a	n/a
"TRUE"	"preload"	"3"	"8770"	"0.0-3.0"	"adg4o5"	"600"	"1366"	"chrome"	"110.0.0"	"FALSE"	"Windows 10"	"60.83"	"043"	n/a	n/a	n/a	n/a	n/a	n/a	n/a	n/a	n/a	n/a	n/a	"NULL"	"FALSE"	"list()"	"list()"	"list()"	n/a	n/a	n/a	n/a	n/a	n/a	n/a	n/a	n/a	n/a	n/a
n/a	"html-button-response"	"4"	"24169"	"0.0-4.0-0.0"	"adg4o5"	"600"	"1366"	"chrome"	"110.0.0"	"FALSE"	"Windows 10"	"60.83"	"043"	n/a	n/a	n/a	n/a	n/a	n/a	"illusion_instructions"	n/a	n/a	n/a	"15398"	"0"	n/a	"NULL"	"NULL"	"NULL"	"<p><b>Illusion Game</b></p><p>In this game of speed and reflex, you will need to make <b>visual judgments</b> (for instance, which circle is the biggest, or which line is the longest), as fast and as correctly as possible, while <b>resisting different visual illusions</b>.</p><p>We are going to start with some examples of all the illusions you will encounter in the game.</p>"	n/a	n/a	n/a	n/a	n/a	n/a	n/a	n/a	n/a	n/a
"TRUE"	"preload"	"5"	"24187"	"0.0-4.0-1.0-0.0"	"adg4o5"	"600"	"1366"	"chrome"	"110.0.0"	"FALSE"	"Windows 10"	"60.83"	"043"	n/a	n/a	n/a	n/a	n/a	n/a	n/a	n/a	n/a	n/a	n/a	"NULL"	"FALSE"	"list()"	"list()"	"list()"	n/a	n/a	n/a	n/a	n/a	n/a	n/a	n/a	n/a	n/a	n/a
n/a	"html-keyboard-response"	"6"	"39015"	"0.0-4.0-1.0-1.0"	"adg4o5"	"600"	"1366"	"chrome"	"110.0.0"	"FALSE"	"Windows 10"	"60.83"	"043"	n/a	n/a	n/a	n/a	n/a	n/a	n/a	n/a	n/a	n/a	"14826"	"enter"	n/a	"NULL"	"NULL"	"NULL"	"<p><b>Practice</b></p><p>In this part, two red circles will appear side by side on the screen.</p><p>Your task is to select which <b>red circle is bigger</b> in size as fast as you can, without making errors.</p><p>Don't get distracted by the surrounding black circles around the red circles!</p><p>Press <b>the LEFT or the RIGHT arrow</b> to indicate which is the bigger <b>red circle.</b></p><div style='float: center'><img src='materials/instructions/Ebbinghaus_Demo.png' height='300'></img><p><img src='utils/answer/answer_leftright_keyboard.PNG' height='150'></img></p><p class='small'>In this example, the correct answer is the <b>LEFT arrow</b>.</p></div><p>Are you ready? <b>Press ENTER to start</b></p>"	n/a	n/a	n/a	n/a	n/a	n/a	n/a	n/a	n/a	n/a
n/a	"html-keyboard-response"	"7"	"40627"	"0.0-4.0-1.0-2.0-0.0"	"adg4o5"	"600"	"1366"	"chrome"	"110.0.0"	"FALSE"	"Windows 10"	"60.83"	"043"	n/a	n/a	n/a	n/a	n/a	n/a	"fixation"	n/a	n/a	n/a	n/a	"NULL"	n/a	"NULL"	"NULL"	"NULL"	"<p style=\"color: black; font-size: 80px; padding-left: 18%; padding-right: 20%; padding-top: 21%; padding-bottom: 18%\">+</p>"	"1096"	n/a	n/a	n/a	n/a	n/a	n/a	n/a	n/a	n/a
n/a	"image-keyboard-response"	"8"	"41311"	"0.0-4.0-1.0-2.0-1.0"	"adg4o5"	"600"	"1366"	"chrome"	"110.0.0"	"FALSE"	"Windows 10"	"60.83"	"043"	n/a	n/a	n/a	n/a	n/a	n/a	"Trial"	n/a	n/a	n/a	"677"	"arrowright"	n/a	"NULL"	"NULL"	"NULL"	"stimuli/Ebbinghaus_-100000_-1.4000.png"	n/a	"Ebbinghaus"	"arrowright"	"1612"	"TRUE"	"Ebbinghaus"	"-10000000000"	"-1.400000000"	"1"	"1"
n/a	"html-keyboard-response"	"9"	"42465"	"0.0-4.0-1.0-2.0-0.1"	"adg4o5"	"600"	"1366"	"chrome"	"110.0.0"	"FALSE"	"Windows 10"	"60.83"	"043"	n/a	n/a	n/a	n/a	n/a	n/a	"fixation"	n/a	n/a	n/a	n/a	"NULL"	n/a	"NULL"	"NULL"	"NULL"	"<p style=\"color: black; font-size: 80px; padding-left: 18%; padding-right: 47%; padding-top: 49%; padding-bottom: 27%\">+</p>"	"1142"	n/a	n/a	n/a	n/a	n/a	n/a	n/a	n/a	n/a
n/a	"image-keyboard-response"	"10"	"43014"	"0.0-4.0-1.0-2.0-1.1"	"adg4o5"	"600"	"1366"	"chrome"	"110.0.0"	"FALSE"	"Windows 10"	"60.83"	"043"	n/a	n/a	n/a	n/a	n/a	n/a	"Trial"	n/a	n/a	n/a	"549"	"arrowleft"	n/a	"NULL"	"NULL"	"NULL"	"stimuli/Ebbinghaus_0000000_1.40000.png"	n/a	"Ebbinghaus"	"arrowleft"	"1154"	"TRUE"	"Ebbinghaus"	"000000000000"	"1.4000000000"	"1"	"2"
n/a	"html-keyboard-response"	"11"	"44037"	"0.0-4.0-1.0-2.0-0.2"	"adg4o5"	"600"	"1366"	"chrome"	"110.0.0"	"FALSE"	"Windows 10"	"60.83"	"043"	n/a	n/a	n/a	n/a	n/a	n/a	"fixation"	n/a	n/a	n/a	n/a	"NULL"	n/a	"NULL"	"NULL"	"NULL"	"<p style=\"color: black; font-size: 80px; padding-left: 37%; padding-right: 1%; padding-top: 20%; padding-bottom: 21%\">+</p>"	"1018"	n/a	n/a	n/a	n/a	n/a	n/a	n/a	n/a	n/a
n/a	"image-keyboard-response"	"12"	"44600"	"0.0-4.0-1.0-2.0-1.2"	"adg4o5"	"600"	"1366"	"chrome"	"110.0.0"	"FALSE"	"Windows 10"	"60.83"	"043"	n/a	n/a	n/a	n/a	n/a	n/a	"Trial"	n/a	n/a	n/a	"562"	"arrowleft"	n/a	"NULL"	"NULL"	"NULL"	"stimuli/Ebbinghaus_1000000_1.40000.png"	n/a	"Ebbinghaus"	"arrowleft"	"1023"	"TRUE"	"Ebbinghaus"	"100000000000"	"1.4000000000"	"1"	"3"
n/a	"html-keyboard-response"	"13"	"45953"	"0.0-4.0-1.0-2.0-0.3"	"adg4o5"	"600"	"1366"	"chrome"	"110.0.0"	"FALSE"	"Windows 10"	"60.83"	"043"	n/a	n/a	n/a	n/a	n/a	n/a	"fixation"	n/a	n/a	n/a	n/a	"NULL"	n/a	"NULL"	"NULL"	"NULL"	"<p style=\"color: black; font-size: 80px; padding-left: 35%; padding-right: 38%; padding-top: 31%; padding-bottom: 19%\">+</p>"	"1348"	n/a	n/a	n/a	n/a	n/a	n/a	n/a	n/a	n/a
n/a	"image-keyboard-response"	"14"	"46428"	"0.0-4.0-1.0-2.0-1.3"	"adg4o5"	"600"	"1366"	"chrome"	"110.0.0"	"FALSE"	"Windows 10"	"60.83"	"043"	n/a	n/a	n/a	n/a	n/a	n/a	"Trial"	n/a	n/a	n/a	"473"	"arrowright"	n/a	"NULL"	"NULL"	"NULL"	"stimuli/Ebbinghaus_0000000_-1.4000.png"	n/a	"Ebbinghaus"	"arrowright"	"1353"	"TRUE"	"Ebbinghaus"	"000000000000"	"-1.400000000"	"1"	"4"
n/a	"html-keyboard-response"	"15"	"47909"	"0.0-4.0-1.0-2.0-0.4"	"adg4o5"	"600"	"1366"	"chrome"	"110.0.0"	"FALSE"	"Windows 10"	"60.83"	"043"	n/a	n/a	n/a	n/a	n/a	n/a	"fixation"	n/a	n/a	n/a	n/a	"NULL"	n/a	"NULL"	"NULL"	"NULL"	"<p style=\"color: black; font-size: 80px; padding-left: 47%; padding-right: 23%; padding-top: 39%; padding-bottom: 25%\">+</p>"	"1479"	n/a	n/a	n/a	n/a	n/a	n/a	n/a	n/a	n/a
n/a	"image-keyboard-response"	"16"	"48363"	"0.0-4.0-1.0-2.0-1.4"	"adg4o5"	"600"	"1366"	"chrome"	"110.0.0"	"FALSE"	"Windows 10"	"60.83"	"043"	n/a	n/a	n/a	n/a	n/a	n/a	"Trial"	n/a	n/a	n/a	"454"	"arrowright"	n/a	"NULL"	"NULL"	"NULL"	"stimuli/Ebbinghaus_1000000_-1.4000.png"	n/a	"Ebbinghaus"	"arrowright"	"1481"	"TRUE"	"Ebbinghaus"	"100000000000"	"-1.400000000"	"1"	"5"
n/a	"html-keyboard-response"	"17"	"49541"	"0.0-4.0-1.0-2.0-0.5"	"adg4o5"	"600"	"1366"	"chrome"	"110.0.0"	"FALSE"	"Windows 10"	"60.83"	"043"	n/a	n/a	n/a	n/a	n/a	n/a	"fixation"	n/a	n/a	n/a	n/a	"NULL"	n/a	"NULL"	"NULL"	"NULL"	"<p style=\"color: black; font-size: 80px; padding-left: 49%; padding-right: 26%; padding-top: 11%; padding-bottom: 43%\">+</p>"	"1170"	n/a	n/a	n/a	n/a	n/a	n/a	n/a	n/a	n/a
n/a	"image-keyboard-response"	"18"	"49949"	"0.0-4.0-1.0-2.0-1.5"	"adg4o5"	"600"	"1366"	"chrome"	"110.0.0"	"FALSE"	"Windows 10"	"60.83"	"043"	n/a	n/a	n/a	n/a	n/a	n/a	"Trial"	n/a	n/a	n/a	"407"	"arrowright"	n/a	"NULL"	"NULL"	"NULL"	"stimuli/Ebbinghaus_-100000_1.40000.png"	n/a	"Ebbinghaus"	"arrowleft"	"1178"	"FALSE"	"Ebbinghaus"	"-10000000000"	"1.4000000000"	"1"	"6"
n/a	"html-button-response"	"19"	"66205"	"0.0-4.0-1.0-3.0"	"adg4o5"	"600"	"1366"	"chrome"	"110.0.0"	"FALSE"	"Windows 10"	"60.83"	"043"	n/a	n/a	n/a	n/a	n/a	n/a	"practice_block_results"	n/a	n/a	n/a	"16254"	"0"	n/a	"NULL"	"NULL"	"NULL"	"<p style='color:rgb(76,175,80);'> Correct Responses: <b>83.33%</b></p><hr><p style='color:rgb(233,30,99);'> Average Response Time: <b>520.33</b> ms.</p>"	n/a	n/a	n/a	n/a	n/a	n/a	n/a	n/a	n/a	n/a
"TRUE"	"preload"	"20"	"66737"	"0.0-4.0-2.0-0.0"	"adg4o5"	"600"	"1366"	"chrome"	"110.0.0"	"FALSE"	"Windows 10"	"60.83"	"043"	n/a	n/a	n/a	n/a	n/a	n/a	n/a	n/a	n/a	n/a	n/a	"NULL"	"FALSE"	"list()"	"list()"	"list()"	n/a	n/a	n/a	n/a	n/a	n/a	n/a	n/a	n/a	n/a	n/a
n/a	"html-keyboard-response"	"21"	"71658"	"0.0-4.0-2.0-1.0"	"adg4o5"	"600"	"1366"	"chrome"	"110.0.0"	"FALSE"	"Windows 10"	"60.83"	"043"	n/a	n/a	n/a	n/a	n/a	n/a	n/a	n/a	n/a	n/a	"4920"	"enter"	n/a	"NULL"	"NULL"	"NULL"	"<p><b>Practice</b></p><p>In this part, two horizontal red lines will appear one above the other.</p><p>Your task is to select which <b>line is longer</b> in length as fast as you can, without making errors.</p><p>Don't get distracted by the surrounding black arrows at the end of the red lines!</p><p>Press <b>the UP or the DOWN arrow</b> to indicate where is the longer <b>red line.</b></p><div style='float: center'><img src='materials/instructions/MullerLyer_Demo.png' height='300'></img><p><img src='utils/answer/answer_updown_keyboard.PNG' height='150'></img></p><p class='small'>In this example, the correct answer is the <b>UP arrow</b>.</p></div><p>Are you ready? <b>Press ENTER to start</b></p>"	n/a	n/a	n/a	n/a	n/a	n/a	n/a	n/a	n/a	n/a
n/a	"html-keyboard-response"	"22"	"73540"	"0.0-4.0-2.0-2.0-0.0"	"adg4o5"	"600"	"1366"	"chrome"	"110.0.0"	"FALSE"	"Windows 10"	"60.83"	"043"	n/a	n/a	n/a	n/a	n/a	n/a	"fixation"	n/a	n/a	n/a	n/a	"NULL"	n/a	"NULL"	"NULL"	"NULL"	"<p style=\"color: black; font-size: 80px; padding-left: 34%; padding-right: 39%; padding-top: 4%; padding-bottom: 50%\">+</p>"	"1361"	n/a	n/a	n/a	n/a	n/a	n/a	n/a	n/a	n/a
n/a	"image-keyboard-response"	"23"	"73990"	"0.0-4.0-2.0-2.0-1.0"	"adg4o5"	"600"	"1366"	"chrome"	"110.0.0"	"FALSE"	"Windows 10"	"60.83"	"043"	n/a	n/a	n/a	n/a	n/a	n/a	"Trial"	n/a	n/a	n/a	"449"	"arrowup"	n/a	"NULL"	"NULL"	"NULL"	"stimuli/MullerLyer_-230000_0.70000.png"	n/a	"MullerLyer"	"arrowup"	"1882"	"TRUE"	"MullerLyer"	"-23000000000"	"0.7000000000"	"1"	"7"
n/a	"html-keyboard-response"	"24"	"75252"	"0.0-4.0-2.0-2.0-0.1"	"adg4o5"	"600"	"1366"	"chrome"	"110.0.0"	"FALSE"	"Windows 10"	"60.83"	"043"	n/a	n/a	n/a	n/a	n/a	n/a	"fixation"	n/a	n/a	n/a	n/a	"NULL"	n/a	"NULL"	"NULL"	"NULL"	"<p style=\"color: black; font-size: 80px; padding-left: 47%; padding-right: 19%; padding-top: 33%; padding-bottom: 19%\">+</p>"	"1259"	n/a	n/a	n/a	n/a	n/a	n/a	n/a	n/a	n/a
n/a	"image-keyboard-response"	"25"	"75668"	"0.0-4.0-2.0-2.0-1.1"	"adg4o5"	"600"	"1366"	"chrome"	"110.0.0"	"FALSE"	"Windows 10"	"60.83"	"043"	n/a	n/a	n/a	n/a	n/a	n/a	"Trial"	n/a	n/a	n/a	"414"	"arrowup"	n/a	"NULL"	"NULL"	"NULL"	"stimuli/MullerLyer_0000000_0.70000.png"	n/a	"MullerLyer"	"arrowup"	"1262"	"TRUE"	"MullerLyer"	"000000000000"	"0.7000000000"	"1"	"8"
n/a	"html-keyboard-response"	"26"	"77026"	"0.0-4.0-2.0-2.0-0.2"	"adg4o5"	"600"	"1366"	"chrome"	"110.0.0"	"FALSE"	"Windows 10"	"60.83"	"043"	n/a	n/a	n/a	n/a	n/a	n/a	"fixation"	n/a	n/a	n/a	n/a	"NULL"	n/a	"NULL"	"NULL"	"NULL"	"<p style=\"color: black; font-size: 80px; padding-left: 11%; padding-right: 15%; padding-top: 39%; padding-bottom: 13%\">+</p>"	"1344"	n/a	n/a	n/a	n/a	n/a	n/a	n/a	n/a	n/a
n/a	"image-keyboard-response"	"27"	"77503"	"0.0-4.0-2.0-2.0-1.2"	"adg4o5"	"600"	"1366"	"chrome"	"110.0.0"	"FALSE"	"Windows 10"	"60.83"	"043"	n/a	n/a	n/a	n/a	n/a	n/a	"Trial"	n/a	n/a	n/a	"476"	"arrowup"	n/a	"NULL"	"NULL"	"NULL"	"stimuli/MullerLyer_2300000_0.70000.png"	n/a	"MullerLyer"	"arrowup"	"1358"	"TRUE"	"MullerLyer"	"230000000000"	"0.7000000000"	"1"	"9"
n/a	"html-keyboard-response"	"28"	"78534"	"0.0-4.0-2.0-2.0-0.3"	"adg4o5"	"600"	"1366"	"chrome"	"110.0.0"	"FALSE"	"Windows 10"	"60.83"	"043"	n/a	n/a	n/a	n/a	n/a	n/a	"fixation"	n/a	n/a	n/a	n/a	"NULL"	n/a	"NULL"	"NULL"	"NULL"	"<p style=\"color: black; font-size: 80px; padding-left: 12%; padding-right: 44%; padding-top: 15%; padding-bottom: 37%\">+</p>"	"1016"	n/a	n/a	n/a	n/a	n/a	n/a	n/a	n/a	n/a
n/a	"image-keyboard-response"	"29"	"79019"	"0.0-4.0-2.0-2.0-1.3"	"adg4o5"	"600"	"1366"	"chrome"	"110.0.0"	"FALSE"	"Windows 10"	"60.83"	"043"	n/a	n/a	n/a	n/a	n/a	n/a	"Trial"	n/a	n/a	n/a	"484"	"arrowdown"	n/a	"NULL"	"NULL"	"NULL"	"stimuli/MullerLyer_2300000_-0.7000.png"	n/a	"MullerLyer"	"arrowdown"	"1031"	"TRUE"	"MullerLyer"	"230000000000"	"-0.700000000"	"1"	"10"
n/a	"html-keyboard-response"	"30"	"80351"	"0.0-4.0-2.0-2.0-0.4"	"adg4o5"	"600"	"1366"	"chrome"	"110.0.0"	"FALSE"	"Windows 10"	"60.83"	"043"	n/a	n/a	n/a	n/a	n/a	n/a	"fixation"	n/a	n/a	n/a	n/a	"NULL"	n/a	"NULL"	"NULL"	"NULL"	"<p style=\"color: black; font-size: 80px; padding-left: 49%; padding-right: 27%; padding-top: 29%; padding-bottom: 18%\">+</p>"	"1326"	n/a	n/a	n/a	n/a	n/a	n/a	n/a	n/a	n/a
n/a	"image-keyboard-response"	"31"	"80770"	"0.0-4.0-2.0-2.0-1.4"	"adg4o5"	"600"	"1366"	"chrome"	"110.0.0"	"FALSE"	"Windows 10"	"60.83"	"043"	n/a	n/a	n/a	n/a	n/a	n/a	"Trial"	n/a	n/a	n/a	"418"	"arrowdown"	n/a	"NULL"	"NULL"	"NULL"	"stimuli/MullerLyer_0000000_-0.7000.png"	n/a	"MullerLyer"	"arrowdown"	"1332"	"TRUE"	"MullerLyer"	"000000000000"	"-0.700000000"	"1"	"11"
n/a	"html-keyboard-response"	"32"	"82268"	"0.0-4.0-2.0-2.0-0.5"	"adg4o5"	"600"	"1366"	"chrome"	"110.0.0"	"FALSE"	"Windows 10"	"60.83"	"043"	n/a	n/a	n/a	n/a	n/a	n/a	"fixation"	n/a	n/a	n/a	n/a	"NULL"	n/a	"NULL"	"NULL"	"NULL"	"<p style=\"color: black; font-size: 80px; padding-left: 39%; padding-right: 40%; padding-top: 38%; padding-bottom: 47%\">+</p>"	"1483"	n/a	n/a	n/a	n/a	n/a	n/a	n/a	n/a	n/a
n/a	"image-keyboard-response"	"33"	"82775"	"0.0-4.0-2.0-2.0-1.5"	"adg4o5"	"600"	"1366"	"chrome"	"110.0.0"	"FALSE"	"Windows 10"	"60.83"	"043"	n/a	n/a	n/a	n/a	n/a	n/a	"Trial"	n/a	n/a	n/a	"506"	"arrowdown"	n/a	"NULL"	"NULL"	"NULL"	"stimuli/MullerLyer_-230000_-0.7000.png"	n/a	"MullerLyer"	"arrowdown"	"1498"	"TRUE"	"MullerLyer"	"-23000000000"	"-0.700000000"	"1"	"12"
n/a	"html-button-response"	"34"	"87550"	"0.0-4.0-2.0-3.0"	"adg4o5"	"600"	"1366"	"chrome"	"110.0.0"	"FALSE"	"Windows 10"	"60.83"	"043"	n/a	n/a	n/a	n/a	n/a	n/a	"practice_block_results"	n/a	n/a	n/a	"4774"	"0"	n/a	"NULL"	"NULL"	"NULL"	"<p style='color:rgb(76,175,80);'> Correct Responses: <b>100.00%</b></p><hr><p style='color:rgb(233,30,99);'> Average Response Time: <b>457.83</b> ms.</p>"	n/a	n/a	n/a	n/a	n/a	n/a	n/a	n/a	n/a	n/a
"TRUE"	"preload"	"35"	"88079"	"0.0-4.0-3.0-0.0"	"adg4o5"	"600"	"1366"	"chrome"	"110.0.0"	"FALSE"	"Windows 10"	"60.83"	"043"	n/a	n/a	n/a	n/a	n/a	n/a	n/a	n/a	n/a	n/a	n/a	"NULL"	"FALSE"	"list()"	"list()"	"list()"	n/a	n/a	n/a	n/a	n/a	n/a	n/a	n/a	n/a	n/a	n/a
n/a	"html-keyboard-response"	"36"	"95087"	"0.0-4.0-3.0-1.0"	"adg4o5"	"600"	"1366"	"chrome"	"110.0.0"	"FALSE"	"Windows 10"	"60.83"	"043"	n/a	n/a	n/a	n/a	n/a	n/a	n/a	n/a	n/a	n/a	"7008"	"enter"	n/a	"NULL"	"NULL"	"NULL"	"<p><b>Practice</b></p><p>In this part, two red lines will appear side by side.</p><p>Your task is to tell <b>which line is longer</b> in length, regardless of their orientation, as fast as you can, and without making errors.</p><p>Don't get distracted by the orientation of the lines!</p><p>Press <b>the LEFT or the RIGHT arrow</b> to indicate which <b>line is the longer one.</b></p><div style='float: center'><img src='materials/instructions/VerticalHorizontal_Demo.png' height='300'></img><p><img src='utils/answer/answer_leftright_keyboard.PNG' height='150'></img></p><p class='small'>In this example, the correct answer is the <b>LEFT arrow</b>.</p></div><p>Are you ready? <b>Press ENTER to start</b></p>"	n/a	n/a	n/a	n/a	n/a	n/a	n/a	n/a	n/a	n/a
n/a	"html-keyboard-response"	"37"	"96793"	"0.0-4.0-3.0-2.0-0.0"	"adg4o5"	"600"	"1366"	"chrome"	"110.0.0"	"FALSE"	"Windows 10"	"60.83"	"043"	n/a	n/a	n/a	n/a	n/a	n/a	"fixation"	n/a	n/a	n/a	n/a	"NULL"	n/a	"NULL"	"NULL"	"NULL"	"<p style=\"color: black; font-size: 80px; padding-left: 31%; padding-right: 18%; padding-top: 34%; padding-bottom: 27%\">+</p>"	"1183"	n/a	n/a	n/a	n/a	n/a	n/a	n/a	n/a	n/a
n/a	"image-keyboard-response"	"38"	"97176"	"0.0-4.0-3.0-2.0-1.0"	"adg4o5"	"600"	"1366"	"chrome"	"110.0.0"	"FALSE"	"Windows 10"	"60.83"	"043"	n/a	n/a	n/a	n/a	n/a	n/a	"Trial"	n/a	n/a	n/a	"382"	"arrowleft"	n/a	"NULL"	"NULL"	"NULL"	"stimuli/VerticalHorizontal_0000000_0.90000.png"	n/a	"VerticalHorizontal"	"arrowleft"	"1706"	"TRUE"	"VerticalHorizontal"	"000000000000"	"0.9000000000"	"1"	"13"
n/a	"html-keyboard-response"	"39"	"98484"	"0.0-4.0-3.0-2.0-0.1"	"adg4o5"	"600"	"1366"	"chrome"	"110.0.0"	"FALSE"	"Windows 10"	"60.83"	"043"	n/a	n/a	n/a	n/a	n/a	n/a	"fixation"	n/a	n/a	n/a	n/a	"NULL"	n/a	"NULL"	"NULL"	"NULL"	"<p style=\"color: black; font-size: 80px; padding-left: 48%; padding-right: 40%; padding-top: 11%; padding-bottom: 29%\">+</p>"	"1291"	n/a	n/a	n/a	n/a	n/a	n/a	n/a	n/a	n/a
n/a	"image-keyboard-response"	"40"	"98853"	"0.0-4.0-3.0-2.0-1.1"	"adg4o5"	"600"	"1366"	"chrome"	"110.0.0"	"FALSE"	"Windows 10"	"60.83"	"043"	n/a	n/a	n/a	n/a	n/a	n/a	"Trial"	n/a	n/a	n/a	"368"	"arrowleft"	n/a	"NULL"	"NULL"	"NULL"	"stimuli/VerticalHorizontal_-330000_0.90000.png"	n/a	"VerticalHorizontal"	"arrowleft"	"1308"	"TRUE"	"VerticalHorizontal"	"-33000000000"	"0.9000000000"	"1"	"14"
n/a	"html-keyboard-response"	"41"	"100069"	"0.0-4.0-3.0-2.0-0.2"	"adg4o5"	"600"	"1366"	"chrome"	"110.0.0"	"FALSE"	"Windows 10"	"60.83"	"043"	n/a	n/a	n/a	n/a	n/a	n/a	"fixation"	n/a	n/a	n/a	n/a	"NULL"	n/a	"NULL"	"NULL"	"NULL"	"<p style=\"color: black; font-size: 80px; padding-left: 44%; padding-right: 7%; padding-top: 49%; padding-bottom: 26%\">+</p>"	"1205"	n/a	n/a	n/a	n/a	n/a	n/a	n/a	n/a	n/a
n/a	"image-keyboard-response"	"42"	"100695"	"0.0-4.0-3.0-2.0-1.2"	"adg4o5"	"600"	"1366"	"chrome"	"110.0.0"	"FALSE"	"Windows 10"	"60.83"	"043"	n/a	n/a	n/a	n/a	n/a	n/a	"Trial"	n/a	n/a	n/a	"625"	"arrowleft"	n/a	"NULL"	"NULL"	"NULL"	"stimuli/VerticalHorizontal_3300000_0.90000.png"	n/a	"VerticalHorizontal"	"arrowleft"	"1216"	"TRUE"	"VerticalHorizontal"	"330000000000"	"0.9000000000"	"1"	"15"
n/a	"html-keyboard-response"	"43"	"101888"	"0.0-4.0-3.0-2.0-0.3"	"adg4o5"	"600"	"1366"	"chrome"	"110.0.0"	"FALSE"	"Windows 10"	"60.83"	"043"	n/a	n/a	n/a	n/a	n/a	n/a	"fixation"	n/a	n/a	n/a	n/a	"NULL"	n/a	"NULL"	"NULL"	"NULL"	"<p style=\"color: black; font-size: 80px; padding-left: 9%; padding-right: 42%; padding-top: 12%; padding-bottom: 41%\">+</p>"	"1190"	n/a	n/a	n/a	n/a	n/a	n/a	n/a	n/a	n/a
n/a	"image-keyboard-response"	"44"	"102326"	"0.0-4.0-3.0-2.0-1.3"	"adg4o5"	"600"	"1366"	"chrome"	"110.0.0"	"FALSE"	"Windows 10"	"60.83"	"043"	n/a	n/a	n/a	n/a	n/a	n/a	"Trial"	n/a	n/a	n/a	"437"	"arrowright"	n/a	"NULL"	"NULL"	"NULL"	"stimuli/VerticalHorizontal_3300000_-0.9000.png"	n/a	"VerticalHorizontal"	"arrowright"	"1193"	"TRUE"	"VerticalHorizontal"	"330000000000"	"-0.900000000"	"1"	"16"
n/a	"html-keyboard-response"	"45"	"103767"	"0.0-4.0-3.0-2.0-0.4"	"adg4o5"	"600"	"1366"	"chrome"	"110.0.0"	"FALSE"	"Windows 10"	"60.83"	"043"	n/a	n/a	n/a	n/a	n/a	n/a	"fixation"	n/a	n/a	n/a	n/a	"NULL"	n/a	"NULL"	"NULL"	"NULL"	"<p style=\"color: black; font-size: 80px; padding-left: 3%; padding-right: 29%; padding-top: 22%; padding-bottom: 41%\">+</p>"	"1430"	n/a	n/a	n/a	n/a	n/a	n/a	n/a	n/a	n/a
n/a	"image-keyboard-response"	"46"	"104139"	"0.0-4.0-3.0-2.0-1.4"	"adg4o5"	"600"	"1366"	"chrome"	"110.0.0"	"FALSE"	"Windows 10"	"60.83"	"043"	n/a	n/a	n/a	n/a	n/a	n/a	"Trial"	n/a	n/a	n/a	"371"	"arrowright"	n/a	"NULL"	"NULL"	"NULL"	"stimuli/VerticalHorizontal_-330000_-0.9000.png"	n/a	"VerticalHorizontal"	"arrowright"	"1441"	"TRUE"	"VerticalHorizontal"	"-33000000000"	"-0.900000000"	"1"	"17"
n/a	"html-keyboard-response"	"47"	"105564"	"0.0-4.0-3.0-2.0-0.5"	"adg4o5"	"600"	"1366"	"chrome"	"110.0.0"	"FALSE"	"Windows 10"	"60.83"	"043"	n/a	n/a	n/a	n/a	n/a	n/a	"fixation"	n/a	n/a	n/a	n/a	"NULL"	n/a	"NULL"	"NULL"	"NULL"	"<p style=\"color: black; font-size: 80px; padding-left: 34%; padding-right: 23%; padding-top: 13%; padding-bottom: 21%\">+</p>"	"1423"	n/a	n/a	n/a	n/a	n/a	n/a	n/a	n/a	n/a
n/a	"image-keyboard-response"	"48"	"105984"	"0.0-4.0-3.0-2.0-1.5"	"adg4o5"	"600"	"1366"	"chrome"	"110.0.0"	"FALSE"	"Windows 10"	"60.83"	"043"	n/a	n/a	n/a	n/a	n/a	n/a	"Trial"	n/a	n/a	n/a	"420"	"arrowright"	n/a	"NULL"	"NULL"	"NULL"	"stimuli/VerticalHorizontal_0000000_-0.9000.png"	n/a	"VerticalHorizontal"	"arrowright"	"1425"	"TRUE"	"VerticalHorizontal"	"000000000000"	"-0.900000000"	"1"	"18"
n/a	"html-button-response"	"49"	"110767"	"0.0-4.0-3.0-3.0"	"adg4o5"	"600"	"1366"	"chrome"	"110.0.0"	"FALSE"	"Windows 10"	"60.83"	"043"	n/a	n/a	n/a	n/a	n/a	n/a	"practice_block_results"	n/a	n/a	n/a	"4782"	"0"	n/a	"NULL"	"NULL"	"NULL"	"<p style='color:rgb(76,175,80);'> Correct Responses: <b>100.00%</b></p><hr><p style='color:rgb(233,30,99);'> Average Response Time: <b>433.83</b> ms.</p>"	n/a	n/a	n/a	n/a	n/a	n/a	n/a	n/a	n/a	n/a
n/a	"html-button-response"	"50"	"327415"	"0.0-4.0-4.0"	"adg4o5"	"600"	"1366"	"chrome"	"110.0.0"	"FALSE"	"Windows 10"	"60.83"	"043"	n/a	n/a	n/a	n/a	n/a	n/a	"practice_debrief"	n/a	n/a	n/a	"216144"	"0"	n/a	"NULL"	"NULL"	"NULL"	"<p><b>TRAINING COMPLETED</b></p><p>In the next phase, there will be more trials, and some might be harder too.<br> Moreover, after each illusion block, a <b>score</b> will be calculated based on speed (time you took to answer) and accuracy (number of errors).</p><p>Try to keep up a high score!</p><br><p>Note that it can be <i>really</i> challenging at times, so you will need to rely on your <b>intuition</b> and gut feeling to answer as fast as you can without making errors.</p><p>Each illusion block will be repeated two times (so that you have the opportunity to improve your score), but the order of the blocks is random.</p><p>Remember, your goal is to be as <b>fast</b> and <b>accurate</b> as possible. Good luck!</p><br>"	n/a	n/a	n/a	n/a	n/a	n/a	n/a	n/a	n/a	n/a
"TRUE"	"preload"	"51"	"327565"	"0.0-5.0-0.0"	"adg4o5"	"600"	"1366"	"chrome"	"110.0.0"	"FALSE"	"Windows 10"	"60.83"	"043"	n/a	n/a	n/a	n/a	n/a	n/a	n/a	n/a	n/a	n/a	n/a	"NULL"	"FALSE"	"list()"	"list()"	"list()"	n/a	n/a	n/a	n/a	n/a	n/a	n/a	n/a	n/a	n/a	n/a
n/a	"html-keyboard-response"	"52"	"331617"	"0.0-5.0-1.0"	"adg4o5"	"600"	"1366"	"chrome"	"110.0.0"	"FALSE"	"Windows 10"	"60.83"	"043"	n/a	n/a	n/a	n/a	n/a	n/a	n/a	n/a	n/a	n/a	"4052"	"enter"	n/a	"NULL"	"NULL"	"NULL"	"<p><b>Part 1/6</b></p><p>In this part, two horizontal red lines will appear one above the other.</p><p>Your task is to select which <b>line is longer</b> in length as fast as you can, without making errors.</p><p>Don't get distracted by the surrounding black arrows at the end of the red lines!</p><p>Press <b>the UP or the DOWN arrow</b> to indicate where is the longer <b>red line.</b></p><div style='float: center'><img src='materials/instructions/MullerLyer_Demo.png' height='300'></img><p><img src='utils/answer/answer_updown_keyboard.PNG' height='150'></img></p><p class='small'>In this example, the correct answer is the <b>UP arrow</b>.</p></div><p>Are you ready? <b>Press ENTER to start</b></p>"	n/a	n/a	n/a	n/a	n/a	n/a	n/a	n/a	n/a	n/a
n/a	"html-keyboard-response"	"53"	"333238"	"0.0-5.0-2.0-0.0"	"adg4o5"	"600"	"1366"	"chrome"	"110.0.0"	"FALSE"	"Windows 10"	"60.83"	"043"	n/a	n/a	n/a	n/a	n/a	n/a	"fixation"	n/a	n/a	n/a	n/a	"NULL"	n/a	"NULL"	"NULL"	"NULL"	"<p style=\"color: black; font-size: 80px; padding-left: 30%; padding-right: 48%; padding-top: 6%; padding-bottom: 34%\">+</p>"	"1101"	n/a	n/a	n/a	n/a	n/a	n/a	n/a	n/a	n/a
n/a	"image-keyboard-response"	"54"	"333757"	"0.0-5.0-2.0-1.0"	"adg4o5"	"600"	"1366"	"chrome"	"110.0.0"	"FALSE"	"Windows 10"	"60.83"	"043"	n/a	n/a	n/a	n/a	n/a	n/a	"Trial"	n/a	n/a	n/a	"518"	"arrowdown"	n/a	"NULL"	"NULL"	"NULL"	"stimuli/MullerLyer_-20.04286_-0.23665.png"	n/a	"MullerLyer"	"arrowdown"	"1621"	"TRUE"	"MullerLyer"	"-20.04286000"	"-0.236650000"	"1"	"19"
n/a	"html-keyboard-response"	"55"	"334816"	"0.0-5.0-2.0-0.1"	"adg4o5"	"600"	"1366"	"chrome"	"110.0.0"	"FALSE"	"Windows 10"	"60.83"	"043"	n/a	n/a	n/a	n/a	n/a	n/a	"fixation"	n/a	n/a	n/a	n/a	"NULL"	n/a	"NULL"	"NULL"	"NULL"	"<p style=\"color: black; font-size: 80px; padding-left: 25%; padding-right: 24%; padding-top: 20%; padding-bottom: 42%\">+</p>"	"1056"	n/a	n/a	n/a	n/a	n/a	n/a	n/a	n/a	n/a
n/a	"image-keyboard-response"	"56"	"335271"	"0.0-5.0-2.0-1.1"	"adg4o5"	"600"	"1366"	"chrome"	"110.0.0"	"FALSE"	"Windows 10"	"60.83"	"043"	n/a	n/a	n/a	n/a	n/a	n/a	"Trial"	n/a	n/a	n/a	"454"	"arrowup"	n/a	"NULL"	"NULL"	"NULL"	"stimuli/MullerLyer_8.21429_0.23665.png"	n/a	"MullerLyer"	"arrowup"	"1059"	"TRUE"	"MullerLyer"	"8.2142900000"	"0.2366500000"	"1"	"20"
n/a	"html-keyboard-response"	"57"	"336325"	"0.0-5.0-2.0-0.2"	"adg4o5"	"600"	"1366"	"chrome"	"110.0.0"	"FALSE"	"Windows 10"	"60.83"	"043"	n/a	n/a	n/a	n/a	n/a	n/a	"fixation"	n/a	n/a	n/a	n/a	"NULL"	n/a	"NULL"	"NULL"	"NULL"	"<p style=\"color: black; font-size: 80px; padding-left: 15%; padding-right: 6%; padding-top: 21%; padding-bottom: 29%\">+</p>"	"1041"	n/a	n/a	n/a	n/a	n/a	n/a	n/a	n/a	n/a
n/a	"image-keyboard-response"	"58"	"336749"	"0.0-5.0-2.0-1.2"	"adg4o5"	"600"	"1366"	"chrome"	"110.0.0"	"FALSE"	"Windows 10"	"60.83"	"043"	n/a	n/a	n/a	n/a	n/a	n/a	"Trial"	n/a	n/a	n/a	"423"	"arrowup"	n/a	"NULL"	"NULL"	"NULL"	"stimuli/MullerLyer_-20.04286_0.35000.png"	n/a	"MullerLyer"	"arrowup"	"1054"	"TRUE"	"MullerLyer"	"-20.04286000"	"0.3500000000"	"1"	"21"
n/a	"html-keyboard-response"	"59"	"338001"	"0.0-5.0-2.0-0.3"	"adg4o5"	"600"	"1366"	"chrome"	"110.0.0"	"FALSE"	"Windows 10"	"60.83"	"043"	n/a	n/a	n/a	n/a	n/a	n/a	"fixation"	n/a	n/a	n/a	n/a	"NULL"	n/a	"NULL"	"NULL"	"NULL"	"<p style=\"color: black; font-size: 80px; padding-left: 36%; padding-right: 20%; padding-top: 35%; padding-bottom: 38%\">+</p>"	"1237"	n/a	n/a	n/a	n/a	n/a	n/a	n/a	n/a	n/a
n/a	"image-keyboard-response"	"60"	"338417"	"0.0-5.0-2.0-1.3"	"adg4o5"	"600"	"1366"	"chrome"	"110.0.0"	"FALSE"	"Windows 10"	"60.83"	"043"	n/a	n/a	n/a	n/a	n/a	n/a	"Trial"	n/a	n/a	n/a	"415"	"arrowdown"	n/a	"NULL"	"NULL"	"NULL"	"stimuli/MullerLyer_-2.3000_-0.07627.png"	n/a	"MullerLyer"	"arrowdown"	"1252"	"TRUE"	"MullerLyer"	"-2.300000000"	"-0.076270000"	"1"	"22"
n/a	"html-keyboard-response"	"61"	"339580"	"0.0-5.0-2.0-0.4"	"adg4o5"	"600"	"1366"	"chrome"	"110.0.0"	"FALSE"	"Windows 10"	"60.83"	"043"	n/a	n/a	n/a	n/a	n/a	n/a	"fixation"	n/a	n/a	n/a	n/a	"NULL"	n/a	"NULL"	"NULL"	"NULL"	"<p style=\"color: black; font-size: 80px; padding-left: 47%; padding-right: 38%; padding-top: 50%; padding-bottom: 38%\">+</p>"	"1159"	n/a	n/a	n/a	n/a	n/a	n/a	n/a	n/a	n/a
n/a	"image-keyboard-response"	"62"	"340026"	"0.0-5.0-2.0-1.4"	"adg4o5"	"600"	"1366"	"chrome"	"110.0.0"	"FALSE"	"Windows 10"	"60.83"	"043"	n/a	n/a	n/a	n/a	n/a	n/a	"Trial"	n/a	n/a	n/a	"446"	"arrowup"	n/a	"NULL"	"NULL"	"NULL"	"stimuli/MullerLyer_8.21429_-0.14541.png"	n/a	"MullerLyer"	"arrowdown"	"1163"	"FALSE"	"MullerLyer"	"8.2142900000"	"-0.145410000"	"1"	"23"
n/a	"html-keyboard-response"	"63"	"341110"	"0.0-5.0-2.0-0.5"	"adg4o5"	"600"	"1366"	"chrome"	"110.0.0"	"FALSE"	"Windows 10"	"60.83"	"043"	n/a	n/a	n/a	n/a	n/a	n/a	"fixation"	n/a	n/a	n/a	n/a	"NULL"	n/a	"NULL"	"NULL"	"NULL"	"<p style=\"color: black; font-size: 80px; padding-left: 22%; padding-right: 47%; padding-top: 3%; padding-bottom: 26%\">+</p>"	"1067"	n/a	n/a	n/a	n/a	n/a	n/a	n/a	n/a	n/a
n/a	"image-keyboard-response"	"64"	"341603"	"0.0-5.0-2.0-1.5"	"adg4o5"	"600"	"1366"	"chrome"	"110.0.0"	"FALSE"	"Windows 10"	"60.83"	"043"	n/a	n/a	n/a	n/a	n/a	n/a	"Trial"	n/a	n/a	n/a	"492"	"arrowup"	n/a	"NULL"	"NULL"	"NULL"	"stimuli/MullerLyer_8.21429_0.35000.png"	n/a	"MullerLyer"	"arrowup"	"1084"	"TRUE"	"MullerLyer"	"8.2142900000"	"0.3500000000"	"1"	"24"
n/a	"html-keyboard-response"	"65"	"342907"	"0.0-5.0-2.0-0.6"	"adg4o5"	"600"	"1366"	"chrome"	"110.0.0"	"FALSE"	"Windows 10"	"60.83"	"043"	n/a	n/a	n/a	n/a	n/a	n/a	"fixation"	n/a	n/a	n/a	n/a	"NULL"	n/a	"NULL"	"NULL"	"NULL"	"<p style=\"color: black; font-size: 80px; padding-left: 34%; padding-right: 47%; padding-top: 24%; padding-bottom: 36%\">+</p>"	"1293"	n/a	n/a	n/a	n/a	n/a	n/a	n/a	n/a	n/a
n/a	"image-keyboard-response"	"66"	"343407"	"0.0-5.0-2.0-1.6"	"adg4o5"	"600"	"1366"	"chrome"	"110.0.0"	"FALSE"	"Windows 10"	"60.83"	"043"	n/a	n/a	n/a	n/a	n/a	n/a	"Trial"	n/a	n/a	n/a	"499"	"arrowdown"	n/a	"NULL"	"NULL"	"NULL"	"stimuli/MullerLyer_2.30000_-0.3500.png"	n/a	"MullerLyer"	"arrowdown"	"1304"	"TRUE"	"MullerLyer"	"2.3000000000"	"-0.350000000"	"1"	"25"
n/a	"html-keyboard-response"	"67"	"344454"	"0.0-5.0-2.0-0.7"	"adg4o5"	"600"	"1366"	"chrome"	"110.0.0"	"FALSE"	"Windows 10"	"60.83"	"043"	n/a	n/a	n/a	n/a	n/a	n/a	"fixation"	n/a	n/a	n/a	n/a	"NULL"	n/a	"NULL"	"NULL"	"NULL"	"<p style=\"color: black; font-size: 80px; padding-left: 27%; padding-right: 47%; padding-top: 6%; padding-bottom: 0%\">+</p>"	"1040"	n/a	n/a	n/a	n/a	n/a	n/a	n/a	n/a	n/a
n/a	"image-keyboard-response"	"68"	"344933"	"0.0-5.0-2.0-1.7"	"adg4o5"	"600"	"1366"	"chrome"	"110.0.0"	"FALSE"	"Windows 10"	"60.83"	"043"	n/a	n/a	n/a	n/a	n/a	n/a	"Trial"	n/a	n/a	n/a	"479"	"arrowup"	n/a	"NULL"	"NULL"	"NULL"	"stimuli/MullerLyer_-8.21429_0.23665.png"	n/a	"MullerLyer"	"arrowup"	"1047"	"TRUE"	"MullerLyer"	"-8.214290000"	"0.2366500000"	"1"	"26"
n/a	"html-keyboard-response"	"69"	"346156"	"0.0-5.0-2.0-0.8"	"adg4o5"	"600"	"1366"	"chrome"	"110.0.0"	"FALSE"	"Windows 10"	"60.83"	"043"	n/a	n/a	n/a	n/a	n/a	n/a	"fixation"	n/a	n/a	n/a	n/a	"NULL"	n/a	"NULL"	"NULL"	"NULL"	"<p style=\"color: black; font-size: 80px; padding-left: 36%; padding-right: 20%; padding-top: 6%; padding-bottom: 38%\">+</p>"	"1210"	n/a	n/a	n/a	n/a	n/a	n/a	n/a	n/a	n/a
n/a	"image-keyboard-response"	"70"	"346603"	"0.0-5.0-2.0-1.8"	"adg4o5"	"600"	"1366"	"chrome"	"110.0.0"	"FALSE"	"Windows 10"	"60.83"	"043"	n/a	n/a	n/a	n/a	n/a	n/a	"Trial"	n/a	n/a	n/a	"446"	"arrowup"	n/a	"NULL"	"NULL"	"NULL"	"stimuli/MullerLyer_-2.3000_0.35000.png"	n/a	"MullerLyer"	"arrowup"	"1223"	"TRUE"	"MullerLyer"	"-2.300000000"	"0.3500000000"	"1"	"27"
n/a	"html-keyboard-response"	"71"	"347911"	"0.0-5.0-2.0-0.9"	"adg4o5"	"600"	"1366"	"chrome"	"110.0.0"	"FALSE"	"Windows 10"	"60.83"	"043"	n/a	n/a	n/a	n/a	n/a	n/a	"fixation"	n/a	n/a	n/a	n/a	"NULL"	n/a	"NULL"	"NULL"	"NULL"	"<p style=\"color: black; font-size: 80px; padding-left: 40%; padding-right: 42%; padding-top: 16%; padding-bottom: 36%\">+</p>"	"1300"	n/a	n/a	n/a	n/a	n/a	n/a	n/a	n/a	n/a
n/a	"image-keyboard-response"	"72"	"348501"	"0.0-5.0-2.0-1.9"	"adg4o5"	"600"	"1366"	"chrome"	"110.0.0"	"FALSE"	"Windows 10"	"60.83"	"043"	n/a	n/a	n/a	n/a	n/a	n/a	"Trial"	n/a	n/a	n/a	"589"	"arrowdown"	n/a	"NULL"	"NULL"	"NULL"	"stimuli/MullerLyer_14.12857_-0.23665.png"	n/a	"MullerLyer"	"arrowdown"	"1308"	"TRUE"	"MullerLyer"	"14.128570000"	"-0.236650000"	"1"	"28"
n/a	"html-keyboard-response"	"73"	"349609"	"0.0-5.0-2.0-0.10"	"adg4o5"	"600"	"1366"	"chrome"	"110.0.0"	"FALSE"	"Windows 10"	"60.83"	"043"	n/a	n/a	n/a	n/a	n/a	n/a	"fixation"	n/a	n/a	n/a	n/a	"NULL"	n/a	"NULL"	"NULL"	"NULL"	"<p style=\"color: black; font-size: 80px; padding-left: 10%; padding-right: 45%; padding-top: 40%; padding-bottom: 32%\">+</p>"	"1100"	n/a	n/a	n/a	n/a	n/a	n/a	n/a	n/a	n/a
n/a	"image-keyboard-response"	"74"	"350152"	"0.0-5.0-2.0-1.10"	"adg4o5"	"600"	"1366"	"chrome"	"110.0.0"	"FALSE"	"Windows 10"	"60.83"	"043"	n/a	n/a	n/a	n/a	n/a	n/a	"Trial"	n/a	n/a	n/a	"542"	"arrowup"	n/a	"NULL"	"NULL"	"NULL"	"stimuli/MullerLyer_14.12857_-0.14541.png"	n/a	"MullerLyer"	"arrowdown"	"1108"	"FALSE"	"MullerLyer"	"14.128570000"	"-0.145410000"	"1"	"29"
n/a	"html-keyboard-response"	"75"	"351469"	"0.0-5.0-2.0-0.11"	"adg4o5"	"600"	"1366"	"chrome"	"110.0.0"	"FALSE"	"Windows 10"	"60.83"	"043"	n/a	n/a	n/a	n/a	n/a	n/a	"fixation"	n/a	n/a	n/a	n/a	"NULL"	n/a	"NULL"	"NULL"	"NULL"	"<p style=\"color: black; font-size: 80px; padding-left: 44%; padding-right: 35%; padding-top: 42%; padding-bottom: 47%\">+</p>"	"1314"	n/a	n/a	n/a	n/a	n/a	n/a	n/a	n/a	n/a
n/a	"image-keyboard-response"	"76"	"352010"	"0.0-5.0-2.0-1.11"	"adg4o5"	"600"	"1366"	"chrome"	"110.0.0"	"FALSE"	"Windows 10"	"60.83"	"043"	n/a	n/a	n/a	n/a	n/a	n/a	"Trial"	n/a	n/a	n/a	"540"	"arrowup"	n/a	"NULL"	"NULL"	"NULL"	"stimuli/MullerLyer_-20.04286_0.23665.png"	n/a	"MullerLyer"	"arrowup"	"1317"	"TRUE"	"MullerLyer"	"-20.04286000"	"0.2366500000"	"1"	"30"
n/a	"html-keyboard-response"	"77"	"353049"	"0.0-5.0-2.0-0.12"	"adg4o5"	"600"	"1366"	"chrome"	"110.0.0"	"FALSE"	"Windows 10"	"60.83"	"043"	n/a	n/a	n/a	n/a	n/a	n/a	"fixation"	n/a	n/a	n/a	n/a	"NULL"	n/a	"NULL"	"NULL"	"NULL"	"<p style=\"color: black; font-size: 80px; padding-left: 46%; padding-right: 19%; padding-top: 11%; padding-bottom: 27%\">+</p>"	"1029"	n/a	n/a	n/a	n/a	n/a	n/a	n/a	n/a	n/a
n/a	"image-keyboard-response"	"78"	"353517"	"0.0-5.0-2.0-1.12"	"adg4o5"	"600"	"1366"	"chrome"	"110.0.0"	"FALSE"	"Windows 10"	"60.83"	"043"	n/a	n/a	n/a	n/a	n/a	n/a	"Trial"	n/a	n/a	n/a	"467"	"arrowdown"	n/a	"NULL"	"NULL"	"NULL"	"stimuli/MullerLyer_-2.3000_-0.14541.png"	n/a	"MullerLyer"	"arrowdown"	"1039"	"TRUE"	"MullerLyer"	"-2.300000000"	"-0.145410000"	"1"	"31"
n/a	"html-keyboard-response"	"79"	"354721"	"0.0-5.0-2.0-0.13"	"adg4o5"	"600"	"1366"	"chrome"	"110.0.0"	"FALSE"	"Windows 10"	"60.83"	"043"	n/a	n/a	n/a	n/a	n/a	n/a	"fixation"	n/a	n/a	n/a	n/a	"NULL"	n/a	"NULL"	"NULL"	"NULL"	"<p style=\"color: black; font-size: 80px; padding-left: 17%; padding-right: 4%; padding-top: 4%; padding-bottom: 35%\">+</p>"	"1200"	n/a	n/a	n/a	n/a	n/a	n/a	n/a	n/a	n/a
n/a	"image-keyboard-response"	"80"	"355204"	"0.0-5.0-2.0-1.13"	"adg4o5"	"600"	"1366"	"chrome"	"110.0.0"	"FALSE"	"Windows 10"	"60.83"	"043"	n/a	n/a	n/a	n/a	n/a	n/a	"Trial"	n/a	n/a	n/a	"482"	"arrowdown"	n/a	"NULL"	"NULL"	"NULL"	"stimuli/MullerLyer_-14.12857_-0.23665.png"	n/a	"MullerLyer"	"arrowdown"	"1204"	"TRUE"	"MullerLyer"	"-14.12857000"	"-0.236650000"	"1"	"32"
n/a	"html-keyboard-response"	"81"	"356435"	"0.0-5.0-2.0-0.14"	"adg4o5"	"600"	"1366"	"chrome"	"110.0.0"	"FALSE"	"Windows 10"	"60.83"	"043"	n/a	n/a	n/a	n/a	n/a	n/a	"fixation"	n/a	n/a	n/a	n/a	"NULL"	n/a	"NULL"	"NULL"	"NULL"	"<p style=\"color: black; font-size: 80px; padding-left: 10%; padding-right: 36%; padding-top: 49%; padding-bottom: 36%\">+</p>"	"1218"	n/a	n/a	n/a	n/a	n/a	n/a	n/a	n/a	n/a
n/a	"image-keyboard-response"	"82"	"356887"	"0.0-5.0-2.0-1.14"	"adg4o5"	"600"	"1366"	"chrome"	"110.0.0"	"FALSE"	"Windows 10"	"60.83"	"043"	n/a	n/a	n/a	n/a	n/a	n/a	"Trial"	n/a	n/a	n/a	"451"	"arrowup"	n/a	"NULL"	"NULL"	"NULL"	"stimuli/MullerLyer_-14.12857_0.23665.png"	n/a	"MullerLyer"	"arrowup"	"1231"	"TRUE"	"MullerLyer"	"-14.12857000"	"0.2366500000"	"1"	"33"
n/a	"html-keyboard-response"	"83"	"358206"	"0.0-5.0-2.0-0.15"	"adg4o5"	"600"	"1366"	"chrome"	"110.0.0"	"FALSE"	"Windows 10"	"60.83"	"043"	n/a	n/a	n/a	n/a	n/a	n/a	"fixation"	n/a	n/a	n/a	n/a	"NULL"	n/a	"NULL"	"NULL"	"NULL"	"<p style=\"color: black; font-size: 80px; padding-left: 12%; padding-right: 32%; padding-top: 8%; padding-bottom: 42%\">+</p>"	"1303"	n/a	n/a	n/a	n/a	n/a	n/a	n/a	n/a	n/a
n/a	"image-keyboard-response"	"84"	"358736"	"0.0-5.0-2.0-1.15"	"adg4o5"	"600"	"1366"	"chrome"	"110.0.0"	"FALSE"	"Windows 10"	"60.83"	"043"	n/a	n/a	n/a	n/a	n/a	n/a	"Trial"	n/a	n/a	n/a	"529"	"arrowup"	n/a	"NULL"	"NULL"	"NULL"	"stimuli/MullerLyer_-8.21429_0.07627.png"	n/a	"MullerLyer"	"arrowup"	"1319"	"TRUE"	"MullerLyer"	"-8.214290000"	"0.0762700000"	"1"	"34"
n/a	"html-keyboard-response"	"85"	"359763"	"0.0-5.0-2.0-0.16"	"adg4o5"	"600"	"1366"	"chrome"	"110.0.0"	"FALSE"	"Windows 10"	"60.83"	"043"	n/a	n/a	n/a	n/a	n/a	n/a	"fixation"	n/a	n/a	n/a	n/a	"NULL"	n/a	"NULL"	"NULL"	"NULL"	"<p style=\"color: black; font-size: 80px; padding-left: 39%; padding-right: 4%; padding-top: 25%; padding-bottom: 37%\">+</p>"	"1025"	n/a	n/a	n/a	n/a	n/a	n/a	n/a	n/a	n/a
n/a	"image-keyboard-response"	"86"	"360232"	"0.0-5.0-2.0-1.16"	"adg4o5"	"600"	"1366"	"chrome"	"110.0.0"	"FALSE"	"Windows 10"	"60.83"	"043"	n/a	n/a	n/a	n/a	n/a	n/a	"Trial"	n/a	n/a	n/a	"468"	"arrowup"	n/a	"NULL"	"NULL"	"NULL"	"stimuli/MullerLyer_2.30000_0.35000.png"	n/a	"MullerLyer"	"arrowup"	"1027"	"TRUE"	"MullerLyer"	"2.3000000000"	"0.3500000000"	"1"	"35"
n/a	"html-keyboard-response"	"87"	"361446"	"0.0-5.0-2.0-0.17"	"adg4o5"	"600"	"1366"	"chrome"	"110.0.0"	"FALSE"	"Windows 10"	"60.83"	"043"	n/a	n/a	n/a	n/a	n/a	n/a	"fixation"	n/a	n/a	n/a	n/a	"NULL"	n/a	"NULL"	"NULL"	"NULL"	"<p style=\"color: black; font-size: 80px; padding-left: 40%; padding-right: 11%; padding-top: 14%; padding-bottom: 30%\">+</p>"	"1205"	n/a	n/a	n/a	n/a	n/a	n/a	n/a	n/a	n/a
n/a	"image-keyboard-response"	"88"	"361868"	"0.0-5.0-2.0-1.17"	"adg4o5"	"600"	"1366"	"chrome"	"110.0.0"	"FALSE"	"Windows 10"	"60.83"	"043"	n/a	n/a	n/a	n/a	n/a	n/a	"Trial"	n/a	n/a	n/a	"422"	"arrowup"	n/a	"NULL"	"NULL"	"NULL"	"stimuli/MullerLyer_-8.21429_0.14541.png"	n/a	"MullerLyer"	"arrowup"	"1214"	"TRUE"	"MullerLyer"	"-8.214290000"	"0.1454100000"	"1"	"36"
n/a	"html-keyboard-response"	"89"	"362889"	"0.0-5.0-2.0-0.18"	"adg4o5"	"600"	"1366"	"chrome"	"110.0.0"	"FALSE"	"Windows 10"	"60.83"	"043"	n/a	n/a	n/a	n/a	n/a	n/a	"fixation"	n/a	n/a	n/a	n/a	"NULL"	n/a	"NULL"	"NULL"	"NULL"	"<p style=\"color: black; font-size: 80px; padding-left: 49%; padding-right: 12%; padding-top: 27%; padding-bottom: 33%\">+</p>"	"1014"	n/a	n/a	n/a	n/a	n/a	n/a	n/a	n/a	n/a
n/a	"image-keyboard-response"	"90"	"363322"	"0.0-5.0-2.0-1.18"	"adg4o5"	"600"	"1366"	"chrome"	"110.0.0"	"FALSE"	"Windows 10"	"60.83"	"043"	n/a	n/a	n/a	n/a	n/a	n/a	"Trial"	n/a	n/a	n/a	"432"	"arrowup"	n/a	"NULL"	"NULL"	"NULL"	"stimuli/MullerLyer_-20.04286_0.14541.png"	n/a	"MullerLyer"	"arrowup"	"1021"	"TRUE"	"MullerLyer"	"-20.04286000"	"0.1454100000"	"1"	"37"
n/a	"html-keyboard-response"	"91"	"364697"	"0.0-5.0-2.0-0.19"	"adg4o5"	"600"	"1366"	"chrome"	"110.0.0"	"FALSE"	"Windows 10"	"60.83"	"043"	n/a	n/a	n/a	n/a	n/a	n/a	"fixation"	n/a	n/a	n/a	n/a	"NULL"	n/a	"NULL"	"NULL"	"NULL"	"<p style=\"color: black; font-size: 80px; padding-left: 23%; padding-right: 3%; padding-top: 21%; padding-bottom: 4%\">+</p>"	"1374"	n/a	n/a	n/a	n/a	n/a	n/a	n/a	n/a	n/a
n/a	"image-keyboard-response"	"92"	"365158"	"0.0-5.0-2.0-1.19"	"adg4o5"	"600"	"1366"	"chrome"	"110.0.0"	"FALSE"	"Windows 10"	"60.83"	"043"	n/a	n/a	n/a	n/a	n/a	n/a	"Trial"	n/a	n/a	n/a	"461"	"arrowup"	n/a	"NULL"	"NULL"	"NULL"	"stimuli/MullerLyer_-20.04286_0.07627.png"	n/a	"MullerLyer"	"arrowup"	"1375"	"TRUE"	"MullerLyer"	"-20.04286000"	"0.0762700000"	"1"	"38"
n/a	"html-keyboard-response"	"93"	"366583"	"0.0-5.0-2.0-0.20"	"adg4o5"	"600"	"1366"	"chrome"	"110.0.0"	"FALSE"	"Windows 10"	"60.83"	"043"	n/a	n/a	n/a	n/a	n/a	n/a	"fixation"	n/a	n/a	n/a	n/a	"NULL"	n/a	"NULL"	"NULL"	"NULL"	"<p style=\"color: black; font-size: 80px; padding-left: 25%; padding-right: 20%; padding-top: 46%; padding-bottom: 46%\">+</p>"	"1419"	n/a	n/a	n/a	n/a	n/a	n/a	n/a	n/a	n/a
n/a	"image-keyboard-response"	"94"	"367114"	"0.0-5.0-2.0-1.20"	"adg4o5"	"600"	"1366"	"chrome"	"110.0.0"	"FALSE"	"Windows 10"	"60.83"	"043"	n/a	n/a	n/a	n/a	n/a	n/a	"Trial"	n/a	n/a	n/a	"530"	"arrowdown"	n/a	"NULL"	"NULL"	"NULL"	"stimuli/MullerLyer_-8.21429_-0.3500.png"	n/a	"MullerLyer"	"arrowdown"	"1425"	"TRUE"	"MullerLyer"	"-8.214290000"	"-0.350000000"	"1"	"39"
n/a	"html-keyboard-response"	"95"	"368464"	"0.0-5.0-2.0-0.21"	"adg4o5"	"600"	"1366"	"chrome"	"110.0.0"	"FALSE"	"Windows 10"	"60.83"	"043"	n/a	n/a	n/a	n/a	n/a	n/a	"fixation"	n/a	n/a	n/a	n/a	"NULL"	n/a	"NULL"	"NULL"	"NULL"	"<p style=\"color: black; font-size: 80px; padding-left: 37%; padding-right: 47%; padding-top: 29%; padding-bottom: 6%\">+</p>"	"1343"	n/a	n/a	n/a	n/a	n/a	n/a	n/a	n/a	n/a
n/a	"image-keyboard-response"	"96"	"368950"	"0.0-5.0-2.0-1.21"	"adg4o5"	"600"	"1366"	"chrome"	"110.0.0"	"FALSE"	"Windows 10"	"60.83"	"043"	n/a	n/a	n/a	n/a	n/a	n/a	"Trial"	n/a	n/a	n/a	"484"	"arrowup"	n/a	"NULL"	"NULL"	"NULL"	"stimuli/MullerLyer_20.04286_-0.3500.png"	n/a	"MullerLyer"	"arrowdown"	"1350"	"FALSE"	"MullerLyer"	"20.042860000"	"-0.350000000"	"1"	"40"
n/a	"html-keyboard-response"	"97"	"370003"	"0.0-5.0-2.0-0.22"	"adg4o5"	"600"	"1366"	"chrome"	"110.0.0"	"FALSE"	"Windows 10"	"60.83"	"043"	n/a	n/a	n/a	n/a	n/a	n/a	"fixation"	n/a	n/a	n/a	n/a	"NULL"	n/a	"NULL"	"NULL"	"NULL"	"<p style=\"color: black; font-size: 80px; padding-left: 16%; padding-right: 12%; padding-top: 44%; padding-bottom: 11%\">+</p>"	"1041"	n/a	n/a	n/a	n/a	n/a	n/a	n/a	n/a	n/a
n/a	"image-keyboard-response"	"98"	"370630"	"0.0-5.0-2.0-1.22"	"adg4o5"	"600"	"1366"	"chrome"	"110.0.0"	"FALSE"	"Windows 10"	"60.83"	"043"	n/a	n/a	n/a	n/a	n/a	n/a	"Trial"	n/a	n/a	n/a	"627"	"arrowdown"	n/a	"NULL"	"NULL"	"NULL"	"stimuli/MullerLyer_14.12857_0.14541.png"	n/a	"MullerLyer"	"arrowup"	"1053"	"FALSE"	"MullerLyer"	"14.128570000"	"0.1454100000"	"1"	"41"
n/a	"html-keyboard-response"	"99"	"371754"	"0.0-5.0-2.0-0.23"	"adg4o5"	"600"	"1366"	"chrome"	"110.0.0"	"FALSE"	"Windows 10"	"60.83"	"043"	n/a	n/a	n/a	n/a	n/a	n/a	"fixation"	n/a	n/a	n/a	n/a	"NULL"	n/a	"NULL"	"NULL"	"NULL"	"<p style=\"color: black; font-size: 80px; padding-left: 5%; padding-right: 17%; padding-top: 17%; padding-bottom: 16%\">+</p>"	"1110"	n/a	n/a	n/a	n/a	n/a	n/a	n/a	n/a	n/a
n/a	"image-keyboard-response"	"100"	"372268"	"0.0-5.0-2.0-1.23"	"adg4o5"	"600"	"1366"	"chrome"	"110.0.0"	"FALSE"	"Windows 10"	"60.83"	"043"	n/a	n/a	n/a	n/a	n/a	n/a	"Trial"	n/a	n/a	n/a	"513"	"arrowdown"	n/a	"NULL"	"NULL"	"NULL"	"stimuli/MullerLyer_-14.12857_-0.14541.png"	n/a	"MullerLyer"	"arrowdown"	"1124"	"TRUE"	"MullerLyer"	"-14.12857000"	"-0.145410000"	"1"	"42"
n/a	"html-keyboard-response"	"101"	"373738"	"0.0-5.0-2.0-0.24"	"adg4o5"	"600"	"1366"	"chrome"	"110.0.0"	"FALSE"	"Windows 10"	"60.83"	"043"	n/a	n/a	n/a	n/a	n/a	n/a	"fixation"	n/a	n/a	n/a	n/a	"NULL"	n/a	"NULL"	"NULL"	"NULL"	"<p style=\"color: black; font-size: 80px; padding-left: 9%; padding-right: 46%; padding-top: 10%; padding-bottom: 15%\">+</p>"	"1460"	n/a	n/a	n/a	n/a	n/a	n/a	n/a	n/a	n/a
n/a	"image-keyboard-response"	"102"	"374388"	"0.0-5.0-2.0-1.24"	"adg4o5"	"600"	"1366"	"chrome"	"110.0.0"	"FALSE"	"Windows 10"	"60.83"	"043"	n/a	n/a	n/a	n/a	n/a	n/a	"Trial"	n/a	n/a	n/a	"650"	"arrowdown"	n/a	"NULL"	"NULL"	"NULL"	"stimuli/MullerLyer_8.21429_0.07627.png"	n/a	"MullerLyer"	"arrowup"	"1470"	"FALSE"	"MullerLyer"	"8.2142900000"	"0.0762700000"	"1"	"43"
n/a	"html-keyboard-response"	"103"	"375780"	"0.0-5.0-2.0-0.25"	"adg4o5"	"600"	"1366"	"chrome"	"110.0.0"	"FALSE"	"Windows 10"	"60.83"	"043"	n/a	n/a	n/a	n/a	n/a	n/a	"fixation"	n/a	n/a	n/a	n/a	"NULL"	n/a	"NULL"	"NULL"	"NULL"	"<p style=\"color: black; font-size: 80px; padding-left: 21%; padding-right: 34%; padding-top: 28%; padding-bottom: 3%\">+</p>"	"1376"	n/a	n/a	n/a	n/a	n/a	n/a	n/a	n/a	n/a
n/a	"image-keyboard-response"	"104"	"376175"	"0.0-5.0-2.0-1.25"	"adg4o5"	"600"	"1366"	"chrome"	"110.0.0"	"FALSE"	"Windows 10"	"60.83"	"043"	n/a	n/a	n/a	n/a	n/a	n/a	"Trial"	n/a	n/a	n/a	"394"	"arrowup"	n/a	"NULL"	"NULL"	"NULL"	"stimuli/MullerLyer_8.21429_0.14541.png"	n/a	"MullerLyer"	"arrowup"	"1392"	"TRUE"	"MullerLyer"	"8.2142900000"	"0.1454100000"	"1"	"44"
n/a	"html-keyboard-response"	"105"	"377390"	"0.0-5.0-2.0-0.26"	"adg4o5"	"600"	"1366"	"chrome"	"110.0.0"	"FALSE"	"Windows 10"	"60.83"	"043"	n/a	n/a	n/a	n/a	n/a	n/a	"fixation"	n/a	n/a	n/a	n/a	"NULL"	n/a	"NULL"	"NULL"	"NULL"	"<p style=\"color: black; font-size: 80px; padding-left: 37%; padding-right: 18%; padding-top: 50%; padding-bottom: 38%\">+</p>"	"1199"	n/a	n/a	n/a	n/a	n/a	n/a	n/a	n/a	n/a
n/a	"image-keyboard-response"	"106"	"377756"	"0.0-5.0-2.0-1.26"	"adg4o5"	"600"	"1366"	"chrome"	"110.0.0"	"FALSE"	"Windows 10"	"60.83"	"043"	n/a	n/a	n/a	n/a	n/a	n/a	"Trial"	n/a	n/a	n/a	"365"	"arrowdown"	n/a	"NULL"	"NULL"	"NULL"	"stimuli/MullerLyer_-20.04286_-0.3500.png"	n/a	"MullerLyer"	"arrowdown"	"1215"	"TRUE"	"MullerLyer"	"-20.04286000"	"-0.350000000"	"1"	"45"
n/a	"html-keyboard-response"	"107"	"379088"	"0.0-5.0-2.0-0.27"	"adg4o5"	"600"	"1366"	"chrome"	"110.0.0"	"FALSE"	"Windows 10"	"60.83"	"043"	n/a	n/a	n/a	n/a	n/a	n/a	"fixation"	n/a	n/a	n/a	n/a	"NULL"	n/a	"NULL"	"NULL"	"NULL"	"<p style=\"color: black; font-size: 80px; padding-left: 24%; padding-right: 42%; padding-top: 37%; padding-bottom: 35%\">+</p>"	"1318"	n/a	n/a	n/a	n/a	n/a	n/a	n/a	n/a	n/a
n/a	"image-keyboard-response"	"108"	"379576"	"0.0-5.0-2.0-1.27"	"adg4o5"	"600"	"1366"	"chrome"	"110.0.0"	"FALSE"	"Windows 10"	"60.83"	"043"	n/a	n/a	n/a	n/a	n/a	n/a	"Trial"	n/a	n/a	n/a	"487"	"arrowup"	n/a	"NULL"	"NULL"	"NULL"	"stimuli/MullerLyer_20.04286_-0.23665.png"	n/a	"MullerLyer"	"arrowdown"	"1332"	"FALSE"	"MullerLyer"	"20.042860000"	"-0.236650000"	"1"	"46"
n/a	"html-keyboard-response"	"109"	"380855"	"0.0-5.0-2.0-0.28"	"adg4o5"	"600"	"1366"	"chrome"	"110.0.0"	"FALSE"	"Windows 10"	"60.83"	"043"	n/a	n/a	n/a	n/a	n/a	n/a	"fixation"	n/a	n/a	n/a	n/a	"NULL"	n/a	"NULL"	"NULL"	"NULL"	"<p style=\"color: black; font-size: 80px; padding-left: 36%; padding-right: 17%; padding-top: 30%; padding-bottom: 13%\">+</p>"	"1271"	n/a	n/a	n/a	n/a	n/a	n/a	n/a	n/a	n/a
n/a	"image-keyboard-response"	"110"	"381470"	"0.0-5.0-2.0-1.28"	"adg4o5"	"600"	"1366"	"chrome"	"110.0.0"	"FALSE"	"Windows 10"	"60.83"	"043"	n/a	n/a	n/a	n/a	n/a	n/a	"Trial"	n/a	n/a	n/a	"615"	"arrowup"	n/a	"NULL"	"NULL"	"NULL"	"stimuli/MullerLyer_-14.12857_0.14541.png"	n/a	"MullerLyer"	"arrowup"	"1279"	"TRUE"	"MullerLyer"	"-14.12857000"	"0.1454100000"	"1"	"47"
n/a	"html-keyboard-response"	"111"	"382949"	"0.0-5.0-2.0-0.29"	"adg4o5"	"600"	"1366"	"chrome"	"110.0.0"	"FALSE"	"Windows 10"	"60.83"	"043"	n/a	n/a	n/a	n/a	n/a	n/a	"fixation"	n/a	n/a	n/a	n/a	"NULL"	n/a	"NULL"	"NULL"	"NULL"	"<p style=\"color: black; font-size: 80px; padding-left: 23%; padding-right: 26%; padding-top: 48%; padding-bottom: 28%\">+</p>"	"1476"	n/a	n/a	n/a	n/a	n/a	n/a	n/a	n/a	n/a
n/a	"image-keyboard-response"	"112"	"383341"	"0.0-5.0-2.0-1.29"	"adg4o5"	"600"	"1366"	"chrome"	"110.0.0"	"FALSE"	"Windows 10"	"60.83"	"043"	n/a	n/a	n/a	n/a	n/a	n/a	"Trial"	n/a	n/a	n/a	"391"	"arrowdown"	n/a	"NULL"	"NULL"	"NULL"	"stimuli/MullerLyer_8.21429_-0.3500.png"	n/a	"MullerLyer"	"arrowdown"	"1479"	"TRUE"	"MullerLyer"	"8.2142900000"	"-0.350000000"	"1"	"48"
n/a	"html-keyboard-response"	"113"	"384589"	"0.0-5.0-2.0-0.30"	"adg4o5"	"600"	"1366"	"chrome"	"110.0.0"	"FALSE"	"Windows 10"	"60.83"	"043"	n/a	n/a	n/a	n/a	n/a	n/a	"fixation"	n/a	n/a	n/a	n/a	"NULL"	n/a	"NULL"	"NULL"	"NULL"	"<p style=\"color: black; font-size: 80px; padding-left: 3%; padding-right: 32%; padding-top: 39%; padding-bottom: 34%\">+</p>"	"1246"	n/a	n/a	n/a	n/a	n/a	n/a	n/a	n/a	n/a
n/a	"image-keyboard-response"	"114"	"384993"	"0.0-5.0-2.0-1.30"	"adg4o5"	"600"	"1366"	"chrome"	"110.0.0"	"FALSE"	"Windows 10"	"60.83"	"043"	n/a	n/a	n/a	n/a	n/a	n/a	"Trial"	n/a	n/a	n/a	"403"	"arrowdown"	n/a	"NULL"	"NULL"	"NULL"	"stimuli/MullerLyer_14.12857_0.07627.png"	n/a	"MullerLyer"	"arrowup"	"1248"	"FALSE"	"MullerLyer"	"14.128570000"	"0.0762700000"	"1"	"49"
n/a	"html-keyboard-response"	"115"	"386502"	"0.0-5.0-2.0-0.31"	"adg4o5"	"600"	"1366"	"chrome"	"110.0.0"	"FALSE"	"Windows 10"	"60.83"	"043"	n/a	n/a	n/a	n/a	n/a	n/a	"fixation"	n/a	n/a	n/a	n/a	"NULL"	n/a	"NULL"	"NULL"	"NULL"	"<p style=\"color: black; font-size: 80px; padding-left: 36%; padding-right: 35%; padding-top: 37%; padding-bottom: 1%\">+</p>"	"1495"	n/a	n/a	n/a	n/a	n/a	n/a	n/a	n/a	n/a
n/a	"image-keyboard-response"	"116"	"386937"	"0.0-5.0-2.0-1.31"	"adg4o5"	"600"	"1366"	"chrome"	"110.0.0"	"FALSE"	"Windows 10"	"60.83"	"043"	n/a	n/a	n/a	n/a	n/a	n/a	"Trial"	n/a	n/a	n/a	"434"	"arrowup"	n/a	"NULL"	"NULL"	"NULL"	"stimuli/MullerLyer_20.04286_0.35000.png"	n/a	"MullerLyer"	"arrowup"	"1509"	"TRUE"	"MullerLyer"	"20.042860000"	"0.3500000000"	"1"	"50"
n/a	"html-keyboard-response"	"117"	"388158"	"0.0-5.0-2.0-0.32"	"adg4o5"	"600"	"1366"	"chrome"	"110.0.0"	"FALSE"	"Windows 10"	"60.83"	"043"	n/a	n/a	n/a	n/a	n/a	n/a	"fixation"	n/a	n/a	n/a	n/a	"NULL"	n/a	"NULL"	"NULL"	"NULL"	"<p style=\"color: black; font-size: 80px; padding-left: 19%; padding-right: 3%; padding-top: 30%; padding-bottom: 20%\">+</p>"	"1217"	n/a	n/a	n/a	n/a	n/a	n/a	n/a	n/a	n/a
n/a	"image-keyboard-response"	"118"	"388657"	"0.0-5.0-2.0-1.32"	"adg4o5"	"600"	"1366"	"chrome"	"110.0.0"	"FALSE"	"Windows 10"	"60.83"	"043"	n/a	n/a	n/a	n/a	n/a	n/a	"Trial"	n/a	n/a	n/a	"498"	"arrowdown"	n/a	"NULL"	"NULL"	"NULL"	"stimuli/MullerLyer_2.30000_-0.23665.png"	n/a	"MullerLyer"	"arrowdown"	"1221"	"TRUE"	"MullerLyer"	"2.3000000000"	"-0.236650000"	"1"	"51"
n/a	"html-keyboard-response"	"119"	"390080"	"0.0-5.0-2.0-0.33"	"adg4o5"	"600"	"1366"	"chrome"	"110.0.0"	"FALSE"	"Windows 10"	"60.83"	"043"	n/a	n/a	n/a	n/a	n/a	n/a	"fixation"	n/a	n/a	n/a	n/a	"NULL"	n/a	"NULL"	"NULL"	"NULL"	"<p style=\"color: black; font-size: 80px; padding-left: 4%; padding-right: 40%; padding-top: 2%; padding-bottom: 25%\">+</p>"	"1409"	n/a	n/a	n/a	n/a	n/a	n/a	n/a	n/a	n/a
n/a	"image-keyboard-response"	"120"	"390673"	"0.0-5.0-2.0-1.33"	"adg4o5"	"600"	"1366"	"chrome"	"110.0.0"	"FALSE"	"Windows 10"	"60.83"	"043"	n/a	n/a	n/a	n/a	n/a	n/a	"Trial"	n/a	n/a	n/a	"592"	"arrowup"	n/a	"NULL"	"NULL"	"NULL"	"stimuli/MullerLyer_14.12857_0.23665.png"	n/a	"MullerLyer"	"arrowup"	"1423"	"TRUE"	"MullerLyer"	"14.128570000"	"0.2366500000"	"1"	"52"
n/a	"html-keyboard-response"	"121"	"392035"	"0.0-5.0-2.0-0.34"	"adg4o5"	"600"	"1366"	"chrome"	"110.0.0"	"FALSE"	"Windows 10"	"60.83"	"043"	n/a	n/a	n/a	n/a	n/a	n/a	"fixation"	n/a	n/a	n/a	n/a	"NULL"	n/a	"NULL"	"NULL"	"NULL"	"<p style=\"color: black; font-size: 80px; padding-left: 35%; padding-right: 2%; padding-top: 41%; padding-bottom: 8%\">+</p>"	"1354"	n/a	n/a	n/a	n/a	n/a	n/a	n/a	n/a	n/a
n/a	"image-keyboard-response"	"122"	"392603"	"0.0-5.0-2.0-1.34"	"adg4o5"	"600"	"1366"	"chrome"	"110.0.0"	"FALSE"	"Windows 10"	"60.83"	"043"	n/a	n/a	n/a	n/a	n/a	n/a	"Trial"	n/a	n/a	n/a	"568"	"arrowdown"	n/a	"NULL"	"NULL"	"NULL"	"stimuli/MullerLyer_-8.21429_-0.14541.png"	n/a	"MullerLyer"	"arrowdown"	"1362"	"TRUE"	"MullerLyer"	"-8.214290000"	"-0.145410000"	"1"	"53"
n/a	"html-keyboard-response"	"123"	"394063"	"0.0-5.0-2.0-0.35"	"adg4o5"	"600"	"1366"	"chrome"	"110.0.0"	"FALSE"	"Windows 10"	"60.83"	"043"	n/a	n/a	n/a	n/a	n/a	n/a	"fixation"	n/a	n/a	n/a	n/a	"NULL"	n/a	"NULL"	"NULL"	"NULL"	"<p style=\"color: black; font-size: 80px; padding-left: 44%; padding-right: 38%; padding-top: 32%; padding-bottom: 20%\">+</p>"	"1455"	n/a	n/a	n/a	n/a	n/a	n/a	n/a	n/a	n/a
n/a	"image-keyboard-response"	"124"	"394485"	"0.0-5.0-2.0-1.35"	"adg4o5"	"600"	"1366"	"chrome"	"110.0.0"	"FALSE"	"Windows 10"	"60.83"	"043"	n/a	n/a	n/a	n/a	n/a	n/a	"Trial"	n/a	n/a	n/a	"418"	"arrowdown"	n/a	"NULL"	"NULL"	"NULL"	"stimuli/MullerLyer_-20.04286_-0.14541.png"	n/a	"MullerLyer"	"arrowdown"	"1460"	"TRUE"	"MullerLyer"	"-20.04286000"	"-0.145410000"	"1"	"54"
n/a	"html-keyboard-response"	"125"	"395638"	"0.0-5.0-2.0-0.36"	"adg4o5"	"600"	"1366"	"chrome"	"110.0.0"	"FALSE"	"Windows 10"	"60.83"	"043"	n/a	n/a	n/a	n/a	n/a	n/a	"fixation"	n/a	n/a	n/a	n/a	"NULL"	n/a	"NULL"	"NULL"	"NULL"	"<p style=\"color: black; font-size: 80px; padding-left: 36%; padding-right: 10%; padding-top: 8%; padding-bottom: 8%\">+</p>"	"1138"	n/a	n/a	n/a	n/a	n/a	n/a	n/a	n/a	n/a
n/a	"image-keyboard-response"	"126"	"396120"	"0.0-5.0-2.0-1.36"	"adg4o5"	"600"	"1366"	"chrome"	"110.0.0"	"FALSE"	"Windows 10"	"60.83"	"043"	n/a	n/a	n/a	n/a	n/a	n/a	"Trial"	n/a	n/a	n/a	"482"	"arrowup"	n/a	"NULL"	"NULL"	"NULL"	"stimuli/MullerLyer_-2.3000_0.07627.png"	n/a	"MullerLyer"	"arrowup"	"1153"	"TRUE"	"MullerLyer"	"-2.300000000"	"0.0762700000"	"1"	"55"
n/a	"html-keyboard-response"	"127"	"397485"	"0.0-5.0-2.0-0.37"	"adg4o5"	"600"	"1366"	"chrome"	"110.0.0"	"FALSE"	"Windows 10"	"60.83"	"043"	n/a	n/a	n/a	n/a	n/a	n/a	"fixation"	n/a	n/a	n/a	n/a	"NULL"	n/a	"NULL"	"NULL"	"NULL"	"<p style=\"color: black; font-size: 80px; padding-left: 1%; padding-right: 43%; padding-top: 21%; padding-bottom: 38%\">+</p>"	"1363"	n/a	n/a	n/a	n/a	n/a	n/a	n/a	n/a	n/a
n/a	"image-keyboard-response"	"128"	"397942"	"0.0-5.0-2.0-1.37"	"adg4o5"	"600"	"1366"	"chrome"	"110.0.0"	"FALSE"	"Windows 10"	"60.83"	"043"	n/a	n/a	n/a	n/a	n/a	n/a	"Trial"	n/a	n/a	n/a	"456"	"arrowdown"	n/a	"NULL"	"NULL"	"NULL"	"stimuli/MullerLyer_-14.12857_-0.07627.png"	n/a	"MullerLyer"	"arrowdown"	"1365"	"TRUE"	"MullerLyer"	"-14.12857000"	"-0.076270000"	"1"	"56"
n/a	"html-keyboard-response"	"129"	"399136"	"0.0-5.0-2.0-0.38"	"adg4o5"	"600"	"1366"	"chrome"	"110.0.0"	"FALSE"	"Windows 10"	"60.83"	"043"	n/a	n/a	n/a	n/a	n/a	n/a	"fixation"	n/a	n/a	n/a	n/a	"NULL"	n/a	"NULL"	"NULL"	"NULL"	"<p style=\"color: black; font-size: 80px; padding-left: 15%; padding-right: 39%; padding-top: 21%; padding-bottom: 38%\">+</p>"	"1183"	n/a	n/a	n/a	n/a	n/a	n/a	n/a	n/a	n/a
n/a	"image-keyboard-response"	"130"	"399529"	"0.0-5.0-2.0-1.38"	"adg4o5"	"600"	"1366"	"chrome"	"110.0.0"	"FALSE"	"Windows 10"	"60.83"	"043"	n/a	n/a	n/a	n/a	n/a	n/a	"Trial"	n/a	n/a	n/a	"393"	"arrowup"	n/a	"NULL"	"NULL"	"NULL"	"stimuli/MullerLyer_14.12857_0.35000.png"	n/a	"MullerLyer"	"arrowup"	"1194"	"TRUE"	"MullerLyer"	"14.128570000"	"0.3500000000"	"1"	"57"
n/a	"html-keyboard-response"	"131"	"400571"	"0.0-5.0-2.0-0.39"	"adg4o5"	"600"	"1366"	"chrome"	"110.0.0"	"FALSE"	"Windows 10"	"60.83"	"043"	n/a	n/a	n/a	n/a	n/a	n/a	"fixation"	n/a	n/a	n/a	n/a	"NULL"	n/a	"NULL"	"NULL"	"NULL"	"<p style=\"color: black; font-size: 80px; padding-left: 36%; padding-right: 22%; padding-top: 9%; padding-bottom: 31%\">+</p>"	"1026"	n/a	n/a	n/a	n/a	n/a	n/a	n/a	n/a	n/a
n/a	"image-keyboard-response"	"132"	"401015"	"0.0-5.0-2.0-1.39"	"adg4o5"	"600"	"1366"	"chrome"	"110.0.0"	"FALSE"	"Windows 10"	"60.83"	"043"	n/a	n/a	n/a	n/a	n/a	n/a	"Trial"	n/a	n/a	n/a	"443"	"arrowdown"	n/a	"NULL"	"NULL"	"NULL"	"stimuli/MullerLyer_-8.21429_-0.23665.png"	n/a	"MullerLyer"	"arrowdown"	"1042"	"TRUE"	"MullerLyer"	"-8.214290000"	"-0.236650000"	"1"	"58"
n/a	"html-keyboard-response"	"133"	"402330"	"0.0-5.0-2.0-0.40"	"adg4o5"	"600"	"1366"	"chrome"	"110.0.0"	"FALSE"	"Windows 10"	"60.83"	"043"	n/a	n/a	n/a	n/a	n/a	n/a	"fixation"	n/a	n/a	n/a	n/a	"NULL"	n/a	"NULL"	"NULL"	"NULL"	"<p style=\"color: black; font-size: 80px; padding-left: 33%; padding-right: 16%; padding-top: 1%; padding-bottom: 0%\">+</p>"	"1311"	n/a	n/a	n/a	n/a	n/a	n/a	n/a	n/a	n/a
n/a	"image-keyboard-response"	"134"	"402817"	"0.0-5.0-2.0-1.40"	"adg4o5"	"600"	"1366"	"chrome"	"110.0.0"	"FALSE"	"Windows 10"	"60.83"	"043"	n/a	n/a	n/a	n/a	n/a	n/a	"Trial"	n/a	n/a	n/a	"486"	"arrowdown"	n/a	"NULL"	"NULL"	"NULL"	"stimuli/MullerLyer_20.04286_0.14541.png"	n/a	"MullerLyer"	"arrowup"	"1315"	"FALSE"	"MullerLyer"	"20.042860000"	"0.1454100000"	"1"	"59"
n/a	"html-keyboard-response"	"135"	"404000"	"0.0-5.0-2.0-0.41"	"adg4o5"	"600"	"1366"	"chrome"	"110.0.0"	"FALSE"	"Windows 10"	"60.83"	"043"	n/a	n/a	n/a	n/a	n/a	n/a	"fixation"	n/a	n/a	n/a	n/a	"NULL"	n/a	"NULL"	"NULL"	"NULL"	"<p style=\"color: black; font-size: 80px; padding-left: 44%; padding-right: 11%; padding-top: 4%; padding-bottom: 49%\">+</p>"	"1168"	n/a	n/a	n/a	n/a	n/a	n/a	n/a	n/a	n/a
n/a	"image-keyboard-response"	"136"	"404419"	"0.0-5.0-2.0-1.41"	"adg4o5"	"600"	"1366"	"chrome"	"110.0.0"	"FALSE"	"Windows 10"	"60.83"	"043"	n/a	n/a	n/a	n/a	n/a	n/a	"Trial"	n/a	n/a	n/a	"418"	"arrowup"	n/a	"NULL"	"NULL"	"NULL"	"stimuli/MullerLyer_20.04286_-0.14541.png"	n/a	"MullerLyer"	"arrowdown"	"1183"	"FALSE"	"MullerLyer"	"20.042860000"	"-0.145410000"	"1"	"60"
n/a	"html-keyboard-response"	"137"	"405747"	"0.0-5.0-2.0-0.42"	"adg4o5"	"600"	"1366"	"chrome"	"110.0.0"	"FALSE"	"Windows 10"	"60.83"	"043"	n/a	n/a	n/a	n/a	n/a	n/a	"fixation"	n/a	n/a	n/a	n/a	"NULL"	n/a	"NULL"	"NULL"	"NULL"	"<p style=\"color: black; font-size: 80px; padding-left: 17%; padding-right: 33%; padding-top: 42%; padding-bottom: 20%\">+</p>"	"1312"	n/a	n/a	n/a	n/a	n/a	n/a	n/a	n/a	n/a
n/a	"image-keyboard-response"	"138"	"406424"	"0.0-5.0-2.0-1.42"	"adg4o5"	"600"	"1366"	"chrome"	"110.0.0"	"FALSE"	"Windows 10"	"60.83"	"043"	n/a	n/a	n/a	n/a	n/a	n/a	"Trial"	n/a	n/a	n/a	"677"	"arrowup"	n/a	"NULL"	"NULL"	"NULL"	"stimuli/MullerLyer_2.30000_0.14541.png"	n/a	"MullerLyer"	"arrowup"	"1328"	"TRUE"	"MullerLyer"	"2.3000000000"	"0.1454100000"	"1"	"61"
n/a	"html-keyboard-response"	"139"	"407765"	"0.0-5.0-2.0-0.43"	"adg4o5"	"600"	"1366"	"chrome"	"110.0.0"	"FALSE"	"Windows 10"	"60.83"	"043"	n/a	n/a	n/a	n/a	n/a	n/a	"fixation"	n/a	n/a	n/a	n/a	"NULL"	n/a	"NULL"	"NULL"	"NULL"	"<p style=\"color: black; font-size: 80px; padding-left: 13%; padding-right: 7%; padding-top: 27%; padding-bottom: 32%\">+</p>"	"1340"	n/a	n/a	n/a	n/a	n/a	n/a	n/a	n/a	n/a
n/a	"image-keyboard-response"	"140"	"408358"	"0.0-5.0-2.0-1.43"	"adg4o5"	"600"	"1366"	"chrome"	"110.0.0"	"FALSE"	"Windows 10"	"60.83"	"043"	n/a	n/a	n/a	n/a	n/a	n/a	"Trial"	n/a	n/a	n/a	"591"	"arrowup"	n/a	"NULL"	"NULL"	"NULL"	"stimuli/MullerLyer_14.12857_-0.07627.png"	n/a	"MullerLyer"	"arrowdown"	"1341"	"FALSE"	"MullerLyer"	"14.128570000"	"-0.076270000"	"1"	"62"
n/a	"html-keyboard-response"	"141"	"409580"	"0.0-5.0-2.0-0.44"	"adg4o5"	"600"	"1366"	"chrome"	"110.0.0"	"FALSE"	"Windows 10"	"60.83"	"043"	n/a	n/a	n/a	n/a	n/a	n/a	"fixation"	n/a	n/a	n/a	n/a	"NULL"	n/a	"NULL"	"NULL"	"NULL"	"<p style=\"color: black; font-size: 80px; padding-left: 5%; padding-right: 38%; padding-top: 13%; padding-bottom: 33%\">+</p>"	"1216"	n/a	n/a	n/a	n/a	n/a	n/a	n/a	n/a	n/a
n/a	"image-keyboard-response"	"142"	"409998"	"0.0-5.0-2.0-1.44"	"adg4o5"	"600"	"1366"	"chrome"	"110.0.0"	"FALSE"	"Windows 10"	"60.83"	"043"	n/a	n/a	n/a	n/a	n/a	n/a	"Trial"	n/a	n/a	n/a	"418"	"arrowdown"	n/a	"NULL"	"NULL"	"NULL"	"stimuli/MullerLyer_-20.04286_-0.07627.png"	n/a	"MullerLyer"	"arrowdown"	"1222"	"TRUE"	"MullerLyer"	"-20.04286000"	"-0.076270000"	"1"	"63"
n/a	"html-keyboard-response"	"143"	"411034"	"0.0-5.0-2.0-0.45"	"adg4o5"	"600"	"1366"	"chrome"	"110.0.0"	"FALSE"	"Windows 10"	"60.83"	"043"	n/a	n/a	n/a	n/a	n/a	n/a	"fixation"	n/a	n/a	n/a	n/a	"NULL"	n/a	"NULL"	"NULL"	"NULL"	"<p style=\"color: black; font-size: 80px; padding-left: 1%; padding-right: 20%; padding-top: 32%; padding-bottom: 6%\">+</p>"	"1032"	n/a	n/a	n/a	n/a	n/a	n/a	n/a	n/a	n/a
n/a	"image-keyboard-response"	"144"	"411641"	"0.0-5.0-2.0-1.45"	"adg4o5"	"600"	"1366"	"chrome"	"110.0.0"	"FALSE"	"Windows 10"	"60.83"	"043"	n/a	n/a	n/a	n/a	n/a	n/a	"Trial"	n/a	n/a	n/a	"606"	"arrowup"	n/a	"NULL"	"NULL"	"NULL"	"stimuli/MullerLyer_8.21429_-0.23665.png"	n/a	"MullerLyer"	"arrowdown"	"1036"	"FALSE"	"MullerLyer"	"8.2142900000"	"-0.236650000"	"1"	"64"
n/a	"html-keyboard-response"	"145"	"413032"	"0.0-5.0-2.0-0.46"	"adg4o5"	"600"	"1366"	"chrome"	"110.0.0"	"FALSE"	"Windows 10"	"60.83"	"043"	n/a	n/a	n/a	n/a	n/a	n/a	"fixation"	n/a	n/a	n/a	n/a	"NULL"	n/a	"NULL"	"NULL"	"NULL"	"<p style=\"color: black; font-size: 80px; padding-left: 37%; padding-right: 33%; padding-top: 16%; padding-bottom: 39%\">+</p>"	"1378"	n/a	n/a	n/a	n/a	n/a	n/a	n/a	n/a	n/a
n/a	"image-keyboard-response"	"146"	"413484"	"0.0-5.0-2.0-1.46"	"adg4o5"	"600"	"1366"	"chrome"	"110.0.0"	"FALSE"	"Windows 10"	"60.83"	"043"	n/a	n/a	n/a	n/a	n/a	n/a	"Trial"	n/a	n/a	n/a	"452"	"arrowdown"	n/a	"NULL"	"NULL"	"NULL"	"stimuli/MullerLyer_-2.3000_-0.3500.png"	n/a	"MullerLyer"	"arrowdown"	"1391"	"TRUE"	"MullerLyer"	"-2.300000000"	"-0.350000000"	"1"	"65"
n/a	"html-keyboard-response"	"147"	"414969"	"0.0-5.0-2.0-0.47"	"adg4o5"	"600"	"1366"	"chrome"	"110.0.0"	"FALSE"	"Windows 10"	"60.83"	"043"	n/a	n/a	n/a	n/a	n/a	n/a	"fixation"	n/a	n/a	n/a	n/a	"NULL"	n/a	"NULL"	"NULL"	"NULL"	"<p style=\"color: black; font-size: 80px; padding-left: 48%; padding-right: 11%; padding-top: 38%; padding-bottom: 29%\">+</p>"	"1476"	n/a	n/a	n/a	n/a	n/a	n/a	n/a	n/a	n/a
n/a	"image-keyboard-response"	"148"	"415402"	"0.0-5.0-2.0-1.47"	"adg4o5"	"600"	"1366"	"chrome"	"110.0.0"	"FALSE"	"Windows 10"	"60.83"	"043"	n/a	n/a	n/a	n/a	n/a	n/a	"Trial"	n/a	n/a	n/a	"432"	"arrowdown"	n/a	"NULL"	"NULL"	"NULL"	"stimuli/MullerLyer_-8.21429_-0.07627.png"	n/a	"MullerLyer"	"arrowdown"	"1485"	"TRUE"	"MullerLyer"	"-8.214290000"	"-0.076270000"	"1"	"66"
n/a	"html-keyboard-response"	"149"	"416461"	"0.0-5.0-2.0-0.48"	"adg4o5"	"600"	"1366"	"chrome"	"110.0.0"	"FALSE"	"Windows 10"	"60.83"	"043"	n/a	n/a	n/a	n/a	n/a	n/a	"fixation"	n/a	n/a	n/a	n/a	"NULL"	n/a	"NULL"	"NULL"	"NULL"	"<p style=\"color: black; font-size: 80px; padding-left: 22%; padding-right: 47%; padding-top: 1%; padding-bottom: 22%\">+</p>"	"1047"	n/a	n/a	n/a	n/a	n/a	n/a	n/a	n/a	n/a
n/a	"image-keyboard-response"	"150"	"417051"	"0.0-5.0-2.0-1.48"	"adg4o5"	"600"	"1366"	"chrome"	"110.0.0"	"FALSE"	"Windows 10"	"60.83"	"043"	n/a	n/a	n/a	n/a	n/a	n/a	"Trial"	n/a	n/a	n/a	"589"	"arrowdown"	n/a	"NULL"	"NULL"	"NULL"	"stimuli/MullerLyer_20.04286_0.07627.png"	n/a	"MullerLyer"	"arrowup"	"1059"	"FALSE"	"MullerLyer"	"20.042860000"	"0.0762700000"	"1"	"67"
n/a	"html-keyboard-response"	"151"	"418301"	"0.0-5.0-2.0-0.49"	"adg4o5"	"600"	"1366"	"chrome"	"110.0.0"	"FALSE"	"Windows 10"	"60.83"	"043"	n/a	n/a	n/a	n/a	n/a	n/a	"fixation"	n/a	n/a	n/a	n/a	"NULL"	n/a	"NULL"	"NULL"	"NULL"	"<p style=\"color: black; font-size: 80px; padding-left: 33%; padding-right: 25%; padding-top: 9%; padding-bottom: 32%\">+</p>"	"1240"	n/a	n/a	n/a	n/a	n/a	n/a	n/a	n/a	n/a
n/a	"image-keyboard-response"	"152"	"418739"	"0.0-5.0-2.0-1.49"	"adg4o5"	"600"	"1366"	"chrome"	"110.0.0"	"FALSE"	"Windows 10"	"60.83"	"043"	n/a	n/a	n/a	n/a	n/a	n/a	"Trial"	n/a	n/a	n/a	"437"	"arrowdown"	n/a	"NULL"	"NULL"	"NULL"	"stimuli/MullerLyer_-2.3000_-0.23665.png"	n/a	"MullerLyer"	"arrowdown"	"1250"	"TRUE"	"MullerLyer"	"-2.300000000"	"-0.236650000"	"1"	"68"
n/a	"html-keyboard-response"	"153"	"419845"	"0.0-5.0-2.0-0.50"	"adg4o5"	"600"	"1366"	"chrome"	"110.0.0"	"FALSE"	"Windows 10"	"60.83"	"043"	n/a	n/a	n/a	n/a	n/a	n/a	"fixation"	n/a	n/a	n/a	n/a	"NULL"	n/a	"NULL"	"NULL"	"NULL"	"<p style=\"color: black; font-size: 80px; padding-left: 8%; padding-right: 29%; padding-top: 48%; padding-bottom: 25%\">+</p>"	"1101"	n/a	n/a	n/a	n/a	n/a	n/a	n/a	n/a	n/a
n/a	"image-keyboard-response"	"154"	"420837"	"0.0-5.0-2.0-1.50"	"adg4o5"	"600"	"1366"	"chrome"	"110.0.0"	"FALSE"	"Windows 10"	"60.83"	"043"	n/a	n/a	n/a	n/a	n/a	n/a	"Trial"	n/a	n/a	n/a	"991"	"arrowup"	n/a	"NULL"	"NULL"	"NULL"	"stimuli/MullerLyer_20.04286_0.23665.png"	n/a	"MullerLyer"	"arrowup"	"1106"	"TRUE"	"MullerLyer"	"20.042860000"	"0.2366500000"	"1"	"69"
n/a	"html-keyboard-response"	"155"	"422316"	"0.0-5.0-2.0-0.51"	"adg4o5"	"600"	"1366"	"chrome"	"110.0.0"	"FALSE"	"Windows 10"	"60.83"	"043"	n/a	n/a	n/a	n/a	n/a	n/a	"fixation"	n/a	n/a	n/a	n/a	"NULL"	n/a	"NULL"	"NULL"	"NULL"	"<p style=\"color: black; font-size: 80px; padding-left: 33%; padding-right: 39%; padding-top: 22%; padding-bottom: 37%\">+</p>"	"1477"	n/a	n/a	n/a	n/a	n/a	n/a	n/a	n/a	n/a
n/a	"image-keyboard-response"	"156"	"422833"	"0.0-5.0-2.0-1.51"	"adg4o5"	"600"	"1366"	"chrome"	"110.0.0"	"FALSE"	"Windows 10"	"60.83"	"043"	n/a	n/a	n/a	n/a	n/a	n/a	"Trial"	n/a	n/a	n/a	"516"	"arrowdown"	n/a	"NULL"	"NULL"	"NULL"	"stimuli/MullerLyer_14.12857_-0.3500.png"	n/a	"MullerLyer"	"arrowdown"	"1479"	"TRUE"	"MullerLyer"	"14.128570000"	"-0.350000000"	"1"	"70"
n/a	"html-keyboard-response"	"157"	"424243"	"0.0-5.0-2.0-0.52"	"adg4o5"	"600"	"1366"	"chrome"	"110.0.0"	"FALSE"	"Windows 10"	"60.83"	"043"	n/a	n/a	n/a	n/a	n/a	n/a	"fixation"	n/a	n/a	n/a	n/a	"NULL"	n/a	"NULL"	"NULL"	"NULL"	"<p style=\"color: black; font-size: 80px; padding-left: 17%; padding-right: 2%; padding-top: 6%; padding-bottom: 35%\">+</p>"	"1397"	n/a	n/a	n/a	n/a	n/a	n/a	n/a	n/a	n/a
n/a	"image-keyboard-response"	"158"	"424737"	"0.0-5.0-2.0-1.52"	"adg4o5"	"600"	"1366"	"chrome"	"110.0.0"	"FALSE"	"Windows 10"	"60.83"	"043"	n/a	n/a	n/a	n/a	n/a	n/a	"Trial"	n/a	n/a	n/a	"493"	"arrowup"	n/a	"NULL"	"NULL"	"NULL"	"stimuli/MullerLyer_-2.3000_0.23665.png"	n/a	"MullerLyer"	"arrowup"	"1410"	"TRUE"	"MullerLyer"	"-2.300000000"	"0.2366500000"	"1"	"71"
n/a	"html-keyboard-response"	"159"	"426007"	"0.0-5.0-2.0-0.53"	"adg4o5"	"600"	"1366"	"chrome"	"110.0.0"	"FALSE"	"Windows 10"	"60.83"	"043"	n/a	n/a	n/a	n/a	n/a	n/a	"fixation"	n/a	n/a	n/a	n/a	"NULL"	n/a	"NULL"	"NULL"	"NULL"	"<p style=\"color: black; font-size: 80px; padding-left: 44%; padding-right: 35%; padding-top: 40%; padding-bottom: 7%\">+</p>"	"1263"	n/a	n/a	n/a	n/a	n/a	n/a	n/a	n/a	n/a
n/a	"image-keyboard-response"	"160"	"426530"	"0.0-5.0-2.0-1.53"	"adg4o5"	"600"	"1366"	"chrome"	"110.0.0"	"FALSE"	"Windows 10"	"60.83"	"043"	n/a	n/a	n/a	n/a	n/a	n/a	"Trial"	n/a	n/a	n/a	"522"	"arrowdown"	n/a	"NULL"	"NULL"	"NULL"	"stimuli/MullerLyer_2.30000_-0.14541.png"	n/a	"MullerLyer"	"arrowdown"	"1270"	"TRUE"	"MullerLyer"	"2.3000000000"	"-0.145410000"	"1"	"72"
n/a	"html-keyboard-response"	"161"	"427708"	"0.0-5.0-2.0-0.54"	"adg4o5"	"600"	"1366"	"chrome"	"110.0.0"	"FALSE"	"Windows 10"	"60.83"	"043"	n/a	n/a	n/a	n/a	n/a	n/a	"fixation"	n/a	n/a	n/a	n/a	"NULL"	n/a	"NULL"	"NULL"	"NULL"	"<p style=\"color: black; font-size: 80px; padding-left: 21%; padding-right: 16%; padding-top: 1%; padding-bottom: 39%\">+</p>"	"1170"	n/a	n/a	n/a	n/a	n/a	n/a	n/a	n/a	n/a
n/a	"image-keyboard-response"	"162"	"428145"	"0.0-5.0-2.0-1.54"	"adg4o5"	"600"	"1366"	"chrome"	"110.0.0"	"FALSE"	"Windows 10"	"60.83"	"043"	n/a	n/a	n/a	n/a	n/a	n/a	"Trial"	n/a	n/a	n/a	"437"	"arrowdown"	n/a	"NULL"	"NULL"	"NULL"	"stimuli/MullerLyer_-14.12857_-0.3500.png"	n/a	"MullerLyer"	"arrowdown"	"1178"	"TRUE"	"MullerLyer"	"-14.12857000"	"-0.350000000"	"1"	"73"
n/a	"html-keyboard-response"	"163"	"429649"	"0.0-5.0-2.0-0.55"	"adg4o5"	"600"	"1366"	"chrome"	"110.0.0"	"FALSE"	"Windows 10"	"60.83"	"043"	n/a	n/a	n/a	n/a	n/a	n/a	"fixation"	n/a	n/a	n/a	n/a	"NULL"	n/a	"NULL"	"NULL"	"NULL"	"<p style=\"color: black; font-size: 80px; padding-left: 49%; padding-right: 49%; padding-top: 39%; padding-bottom: 48%\">+</p>"	"1492"	n/a	n/a	n/a	n/a	n/a	n/a	n/a	n/a	n/a
n/a	"image-keyboard-response"	"164"	"430176"	"0.0-5.0-2.0-1.55"	"adg4o5"	"600"	"1366"	"chrome"	"110.0.0"	"FALSE"	"Windows 10"	"60.83"	"043"	n/a	n/a	n/a	n/a	n/a	n/a	"Trial"	n/a	n/a	n/a	"526"	"arrowup"	n/a	"NULL"	"NULL"	"NULL"	"stimuli/MullerLyer_8.21429_-0.07627.png"	n/a	"MullerLyer"	"arrowdown"	"1504"	"FALSE"	"MullerLyer"	"8.2142900000"	"-0.076270000"	"1"	"74"
n/a	"html-keyboard-response"	"165"	"431330"	"0.0-5.0-2.0-0.56"	"adg4o5"	"600"	"1366"	"chrome"	"110.0.0"	"FALSE"	"Windows 10"	"60.83"	"043"	n/a	n/a	n/a	n/a	n/a	n/a	"fixation"	n/a	n/a	n/a	n/a	"NULL"	n/a	"NULL"	"NULL"	"NULL"	"<p style=\"color: black; font-size: 80px; padding-left: 24%; padding-right: 34%; padding-top: 38%; padding-bottom: 2%\">+</p>"	"1152"	n/a	n/a	n/a	n/a	n/a	n/a	n/a	n/a	n/a
n/a	"image-keyboard-response"	"166"	"431961"	"0.0-5.0-2.0-1.56"	"adg4o5"	"600"	"1366"	"chrome"	"110.0.0"	"FALSE"	"Windows 10"	"60.83"	"043"	n/a	n/a	n/a	n/a	n/a	n/a	"Trial"	n/a	n/a	n/a	"630"	"arrowup"	n/a	"NULL"	"NULL"	"NULL"	"stimuli/MullerLyer_2.30000_-0.07627.png"	n/a	"MullerLyer"	"arrowdown"	"1154"	"FALSE"	"MullerLyer"	"2.3000000000"	"-0.076270000"	"1"	"75"
n/a	"html-keyboard-response"	"167"	"433215"	"0.0-5.0-2.0-0.57"	"adg4o5"	"600"	"1366"	"chrome"	"110.0.0"	"FALSE"	"Windows 10"	"60.83"	"043"	n/a	n/a	n/a	n/a	n/a	n/a	"fixation"	n/a	n/a	n/a	n/a	"NULL"	n/a	"NULL"	"NULL"	"NULL"	"<p style=\"color: black; font-size: 80px; padding-left: 39%; padding-right: 29%; padding-top: 9%; padding-bottom: 34%\">+</p>"	"1240"	n/a	n/a	n/a	n/a	n/a	n/a	n/a	n/a	n/a
n/a	"image-keyboard-response"	"168"	"433709"	"0.0-5.0-2.0-1.57"	"adg4o5"	"600"	"1366"	"chrome"	"110.0.0"	"FALSE"	"Windows 10"	"60.83"	"043"	n/a	n/a	n/a	n/a	n/a	n/a	"Trial"	n/a	n/a	n/a	"494"	"arrowup"	n/a	"NULL"	"NULL"	"NULL"	"stimuli/MullerLyer_-8.21429_0.35000.png"	n/a	"MullerLyer"	"arrowup"	"1254"	"TRUE"	"MullerLyer"	"-8.214290000"	"0.3500000000"	"1"	"76"
n/a	"html-keyboard-response"	"169"	"435189"	"0.0-5.0-2.0-0.58"	"adg4o5"	"600"	"1366"	"chrome"	"110.0.0"	"FALSE"	"Windows 10"	"60.83"	"043"	n/a	n/a	n/a	n/a	n/a	n/a	"fixation"	n/a	n/a	n/a	n/a	"NULL"	n/a	"NULL"	"NULL"	"NULL"	"<p style=\"color: black; font-size: 80px; padding-left: 39%; padding-right: 35%; padding-top: 9%; padding-bottom: 38%\">+</p>"	"1473"	n/a	n/a	n/a	n/a	n/a	n/a	n/a	n/a	n/a
n/a	"image-keyboard-response"	"170"	"435840"	"0.0-5.0-2.0-1.58"	"adg4o5"	"600"	"1366"	"chrome"	"110.0.0"	"FALSE"	"Windows 10"	"60.83"	"043"	n/a	n/a	n/a	n/a	n/a	n/a	"Trial"	n/a	n/a	n/a	"651"	"arrowup"	n/a	"NULL"	"NULL"	"NULL"	"stimuli/MullerLyer_2.30000_0.23665.png"	n/a	"MullerLyer"	"arrowup"	"1480"	"TRUE"	"MullerLyer"	"2.3000000000"	"0.2366500000"	"1"	"77"
n/a	"html-keyboard-response"	"171"	"437157"	"0.0-5.0-2.0-0.59"	"adg4o5"	"600"	"1366"	"chrome"	"110.0.0"	"FALSE"	"Windows 10"	"60.83"	"043"	n/a	n/a	n/a	n/a	n/a	n/a	"fixation"	n/a	n/a	n/a	n/a	"NULL"	n/a	"NULL"	"NULL"	"NULL"	"<p style=\"color: black; font-size: 80px; padding-left: 9%; padding-right: 31%; padding-top: 17%; padding-bottom: 41%\">+</p>"	"1312"	n/a	n/a	n/a	n/a	n/a	n/a	n/a	n/a	n/a
n/a	"image-keyboard-response"	"172"	"437597"	"0.0-5.0-2.0-1.59"	"adg4o5"	"600"	"1366"	"chrome"	"110.0.0"	"FALSE"	"Windows 10"	"60.83"	"043"	n/a	n/a	n/a	n/a	n/a	n/a	"Trial"	n/a	n/a	n/a	"440"	"arrowup"	n/a	"NULL"	"NULL"	"NULL"	"stimuli/MullerLyer_20.04286_-0.07627.png"	n/a	"MullerLyer"	"arrowdown"	"1317"	"FALSE"	"MullerLyer"	"20.042860000"	"-0.076270000"	"1"	"78"
n/a	"html-keyboard-response"	"173"	"438644"	"0.0-5.0-2.0-0.60"	"adg4o5"	"600"	"1366"	"chrome"	"110.0.0"	"FALSE"	"Windows 10"	"60.83"	"043"	n/a	n/a	n/a	n/a	n/a	n/a	"fixation"	n/a	n/a	n/a	n/a	"NULL"	n/a	"NULL"	"NULL"	"NULL"	"<p style=\"color: black; font-size: 80px; padding-left: 12%; padding-right: 4%; padding-top: 37%; padding-bottom: 9%\">+</p>"	"1045"	n/a	n/a	n/a	n/a	n/a	n/a	n/a	n/a	n/a
n/a	"image-keyboard-response"	"174"	"439157"	"0.0-5.0-2.0-1.60"	"adg4o5"	"600"	"1366"	"chrome"	"110.0.0"	"FALSE"	"Windows 10"	"60.83"	"043"	n/a	n/a	n/a	n/a	n/a	n/a	"Trial"	n/a	n/a	n/a	"512"	"arrowup"	n/a	"NULL"	"NULL"	"NULL"	"stimuli/MullerLyer_-14.12857_0.07627.png"	n/a	"MullerLyer"	"arrowup"	"1047"	"TRUE"	"MullerLyer"	"-14.12857000"	"0.0762700000"	"1"	"79"
n/a	"html-keyboard-response"	"175"	"440202"	"0.0-5.0-2.0-0.61"	"adg4o5"	"600"	"1366"	"chrome"	"110.0.0"	"FALSE"	"Windows 10"	"60.83"	"043"	n/a	n/a	n/a	n/a	n/a	n/a	"fixation"	n/a	n/a	n/a	n/a	"NULL"	n/a	"NULL"	"NULL"	"NULL"	"<p style=\"color: black; font-size: 80px; padding-left: 2%; padding-right: 7%; padding-top: 32%; padding-bottom: 27%\">+</p>"	"1031"	n/a	n/a	n/a	n/a	n/a	n/a	n/a	n/a	n/a
n/a	"image-keyboard-response"	"176"	"440895"	"0.0-5.0-2.0-1.61"	"adg4o5"	"600"	"1366"	"chrome"	"110.0.0"	"FALSE"	"Windows 10"	"60.83"	"043"	n/a	n/a	n/a	n/a	n/a	n/a	"Trial"	n/a	n/a	n/a	"692"	"arrowup"	n/a	"NULL"	"NULL"	"NULL"	"stimuli/MullerLyer_2.30000_0.07627.png"	n/a	"MullerLyer"	"arrowup"	"1045"	"TRUE"	"MullerLyer"	"2.3000000000"	"0.0762700000"	"1"	"80"
n/a	"html-keyboard-response"	"177"	"442084"	"0.0-5.0-2.0-0.62"	"adg4o5"	"600"	"1366"	"chrome"	"110.0.0"	"FALSE"	"Windows 10"	"60.83"	"043"	n/a	n/a	n/a	n/a	n/a	n/a	"fixation"	n/a	n/a	n/a	n/a	"NULL"	n/a	"NULL"	"NULL"	"NULL"	"<p style=\"color: black; font-size: 80px; padding-left: 19%; padding-right: 25%; padding-top: 39%; padding-bottom: 7%\">+</p>"	"1182"	n/a	n/a	n/a	n/a	n/a	n/a	n/a	n/a	n/a
n/a	"image-keyboard-response"	"178"	"442562"	"0.0-5.0-2.0-1.62"	"adg4o5"	"600"	"1366"	"chrome"	"110.0.0"	"FALSE"	"Windows 10"	"60.83"	"043"	n/a	n/a	n/a	n/a	n/a	n/a	"Trial"	n/a	n/a	n/a	"476"	"arrowup"	n/a	"NULL"	"NULL"	"NULL"	"stimuli/MullerLyer_-2.3000_0.14541.png"	n/a	"MullerLyer"	"arrowup"	"1189"	"TRUE"	"MullerLyer"	"-2.300000000"	"0.1454100000"	"1"	"81"
n/a	"html-keyboard-response"	"179"	"444046"	"0.0-5.0-2.0-0.63"	"adg4o5"	"600"	"1366"	"chrome"	"110.0.0"	"FALSE"	"Windows 10"	"60.83"	"043"	n/a	n/a	n/a	n/a	n/a	n/a	"fixation"	n/a	n/a	n/a	n/a	"NULL"	n/a	"NULL"	"NULL"	"NULL"	"<p style=\"color: black; font-size: 80px; padding-left: 10%; padding-right: 28%; padding-top: 39%; padding-bottom: 49%\">+</p>"	"1475"	n/a	n/a	n/a	n/a	n/a	n/a	n/a	n/a	n/a
n/a	"image-keyboard-response"	"180"	"444466"	"0.0-5.0-2.0-1.63"	"adg4o5"	"600"	"1366"	"chrome"	"110.0.0"	"FALSE"	"Windows 10"	"60.83"	"043"	n/a	n/a	n/a	n/a	n/a	n/a	"Trial"	n/a	n/a	n/a	"419"	"arrowup"	n/a	"NULL"	"NULL"	"NULL"	"stimuli/MullerLyer_-14.12857_0.35000.png"	n/a	"MullerLyer"	"arrowup"	"1484"	"TRUE"	"MullerLyer"	"-14.12857000"	"0.3500000000"	"1"	"82"
n/a	"html-button-response"	"181"	"464374"	"0.0-5.0-3.0"	"adg4o5"	"600"	"1366"	"chrome"	"110.0.0"	"FALSE"	"Windows 10"	"60.83"	"043"	n/a	n/a	n/a	n/a	n/a	n/a	"block_results"	n/a	n/a	n/a	"19906"	"0"	n/a	"NULL"	"NULL"	"NULL"	"<p>Your score for this illusion is <p style=\"color: black; font-size: 48px; font-weight: bold;\">82.1 %</p><hr><p>Can you do better in the next illusion?</p>"	n/a	n/a	n/a	n/a	n/a	n/a	n/a	n/a	n/a	n/a
"TRUE"	"preload"	"182"	"464531"	"0.0-6.0-0.0"	"adg4o5"	"600"	"1366"	"chrome"	"110.0.0"	"FALSE"	"Windows 10"	"60.83"	"043"	n/a	n/a	n/a	n/a	n/a	n/a	n/a	n/a	n/a	n/a	n/a	"NULL"	"FALSE"	"list()"	"list()"	"list()"	n/a	n/a	n/a	n/a	n/a	n/a	n/a	n/a	n/a	n/a	n/a
n/a	"html-keyboard-response"	"183"	"467824"	"0.0-6.0-1.0"	"adg4o5"	"600"	"1366"	"chrome"	"110.0.0"	"FALSE"	"Windows 10"	"60.83"	"043"	n/a	n/a	n/a	n/a	n/a	n/a	n/a	n/a	n/a	n/a	"3292"	"enter"	n/a	"NULL"	"NULL"	"NULL"	"<p><b>Part 2/6</b></p><p>In this part, two red circles will appear side by side on the screen.</p><p>Your task is to select which <b>red circle is bigger</b> in size as fast as you can, without making errors.</p><p>Don't get distracted by the surrounding black circles around the red circles!</p><p>Press <b>the LEFT or the RIGHT arrow</b> to indicate which is the bigger <b>red circle.</b></p><div style='float: center'><img src='materials/instructions/Ebbinghaus_Demo.png' height='300'></img><p><img src='utils/answer/answer_leftright_keyboard.PNG' height='150'></img></p><p class='small'>In this example, the correct answer is the <b>LEFT arrow</b>.</p></div><p>Are you ready? <b>Press ENTER to start</b></p>"	n/a	n/a	n/a	n/a	n/a	n/a	n/a	n/a	n/a	n/a
n/a	"html-keyboard-response"	"184"	"469552"	"0.0-6.0-2.0-0.0"	"adg4o5"	"600"	"1366"	"chrome"	"110.0.0"	"FALSE"	"Windows 10"	"60.83"	"043"	n/a	n/a	n/a	n/a	n/a	n/a	"fixation"	n/a	n/a	n/a	n/a	"NULL"	n/a	"NULL"	"NULL"	"NULL"	"<p style=\"color: black; font-size: 80px; padding-left: 19%; padding-right: 42%; padding-top: 28%; padding-bottom: 39%\">+</p>"	"1220"	n/a	n/a	n/a	n/a	n/a	n/a	n/a	n/a	n/a
n/a	"image-keyboard-response"	"185"	"470172"	"0.0-6.0-2.0-1.0"	"adg4o5"	"600"	"1366"	"chrome"	"110.0.0"	"FALSE"	"Windows 10"	"60.83"	"043"	n/a	n/a	n/a	n/a	n/a	n/a	"Trial"	n/a	n/a	n/a	"619"	"arrowleft"	n/a	"NULL"	"NULL"	"NULL"	"stimuli/Ebbinghaus_0.10000_0.11071.png"	n/a	"Ebbinghaus"	"arrowleft"	"1728"	"TRUE"	"Ebbinghaus"	"0.1000000000"	"0.1107100000"	"2"	"1"
n/a	"html-keyboard-response"	"186"	"471407"	"0.0-6.0-2.0-0.1"	"adg4o5"	"600"	"1366"	"chrome"	"110.0.0"	"FALSE"	"Windows 10"	"60.83"	"043"	n/a	n/a	n/a	n/a	n/a	n/a	"fixation"	n/a	n/a	n/a	n/a	"NULL"	n/a	"NULL"	"NULL"	"NULL"	"<p style=\"color: black; font-size: 80px; padding-left: 4%; padding-right: 49%; padding-top: 39%; padding-bottom: 49%\">+</p>"	"1225"	n/a	n/a	n/a	n/a	n/a	n/a	n/a	n/a	n/a
n/a	"image-keyboard-response"	"187"	"472038"	"0.0-6.0-2.0-1.1"	"adg4o5"	"600"	"1366"	"chrome"	"110.0.0"	"FALSE"	"Windows 10"	"60.83"	"043"	n/a	n/a	n/a	n/a	n/a	n/a	"Trial"	n/a	n/a	n/a	"630"	"arrowleft"	n/a	"NULL"	"NULL"	"NULL"	"stimuli/Ebbinghaus_0.35714_0.15857.png"	n/a	"Ebbinghaus"	"arrowleft"	"1235"	"TRUE"	"Ebbinghaus"	"0.3571400000"	"0.1585700000"	"2"	"2"
n/a	"html-keyboard-response"	"188"	"473184"	"0.0-6.0-2.0-0.2"	"adg4o5"	"600"	"1366"	"chrome"	"110.0.0"	"FALSE"	"Windows 10"	"60.83"	"043"	n/a	n/a	n/a	n/a	n/a	n/a	"fixation"	n/a	n/a	n/a	n/a	"NULL"	n/a	"NULL"	"NULL"	"NULL"	"<p style=\"color: black; font-size: 80px; padding-left: 26%; padding-right: 19%; padding-top: 2%; padding-bottom: 15%\">+</p>"	"1136"	n/a	n/a	n/a	n/a	n/a	n/a	n/a	n/a	n/a
n/a	"image-keyboard-response"	"189"	"473684"	"0.0-6.0-2.0-1.2"	"adg4o5"	"600"	"1366"	"chrome"	"110.0.0"	"FALSE"	"Windows 10"	"60.83"	"043"	n/a	n/a	n/a	n/a	n/a	n/a	"Trial"	n/a	n/a	n/a	"499"	"arrowright"	n/a	"NULL"	"NULL"	"NULL"	"stimuli/Ebbinghaus_0.10000_-0.2800.png"	n/a	"Ebbinghaus"	"arrowright"	"1146"	"TRUE"	"Ebbinghaus"	"0.1000000000"	"-0.280000000"	"2"	"3"
n/a	"html-keyboard-response"	"190"	"474940"	"0.0-6.0-2.0-0.3"	"adg4o5"	"600"	"1366"	"chrome"	"110.0.0"	"FALSE"	"Windows 10"	"60.83"	"043"	n/a	n/a	n/a	n/a	n/a	n/a	"fixation"	n/a	n/a	n/a	n/a	"NULL"	n/a	"NULL"	"NULL"	"NULL"	"<p style=\"color: black; font-size: 80px; padding-left: 44%; padding-right: 50%; padding-top: 2%; padding-bottom: 40%\">+</p>"	"1249"	n/a	n/a	n/a	n/a	n/a	n/a	n/a	n/a	n/a
n/a	"image-keyboard-response"	"191"	"475573"	"0.0-6.0-2.0-1.3"	"adg4o5"	"600"	"1366"	"chrome"	"110.0.0"	"FALSE"	"Windows 10"	"60.83"	"043"	n/a	n/a	n/a	n/a	n/a	n/a	"Trial"	n/a	n/a	n/a	"632"	"arrowright"	n/a	"NULL"	"NULL"	"NULL"	"stimuli/Ebbinghaus_-0.61429_-0.11071.png"	n/a	"Ebbinghaus"	"arrowright"	"1256"	"TRUE"	"Ebbinghaus"	"-0.614290000"	"-0.110710000"	"2"	"4"
n/a	"html-keyboard-response"	"192"	"476838"	"0.0-6.0-2.0-0.4"	"adg4o5"	"600"	"1366"	"chrome"	"110.0.0"	"FALSE"	"Windows 10"	"60.83"	"043"	n/a	n/a	n/a	n/a	n/a	n/a	"fixation"	n/a	n/a	n/a	n/a	"NULL"	n/a	"NULL"	"NULL"	"NULL"	"<p style=\"color: black; font-size: 80px; padding-left: 9%; padding-right: 42%; padding-top: 46%; padding-bottom: 27%\">+</p>"	"1252"	n/a	n/a	n/a	n/a	n/a	n/a	n/a	n/a	n/a
n/a	"image-keyboard-response"	"193"	"477376"	"0.0-6.0-2.0-1.4"	"adg4o5"	"600"	"1366"	"chrome"	"110.0.0"	"FALSE"	"Windows 10"	"60.83"	"043"	n/a	n/a	n/a	n/a	n/a	n/a	"Trial"	n/a	n/a	n/a	"537"	"arrowright"	n/a	"NULL"	"NULL"	"NULL"	"stimuli/Ebbinghaus_0.35714_-0.11071.png"	n/a	"Ebbinghaus"	"arrowright"	"1265"	"TRUE"	"Ebbinghaus"	"0.3571400000"	"-0.110710000"	"2"	"5"
n/a	"html-keyboard-response"	"194"	"478611"	"0.0-6.0-2.0-0.5"	"adg4o5"	"600"	"1366"	"chrome"	"110.0.0"	"FALSE"	"Windows 10"	"60.83"	"043"	n/a	n/a	n/a	n/a	n/a	n/a	"fixation"	n/a	n/a	n/a	n/a	"NULL"	n/a	"NULL"	"NULL"	"NULL"	"<p style=\"color: black; font-size: 80px; padding-left: 8%; padding-right: 18%; padding-top: 28%; padding-bottom: 48%\">+</p>"	"1232"	n/a	n/a	n/a	n/a	n/a	n/a	n/a	n/a	n/a
n/a	"image-keyboard-response"	"195"	"479242"	"0.0-6.0-2.0-1.5"	"adg4o5"	"600"	"1366"	"chrome"	"110.0.0"	"FALSE"	"Windows 10"	"60.83"	"043"	n/a	n/a	n/a	n/a	n/a	n/a	"Trial"	n/a	n/a	n/a	"630"	"arrowright"	n/a	"NULL"	"NULL"	"NULL"	"stimuli/Ebbinghaus_-0.61429_-0.15857.png"	n/a	"Ebbinghaus"	"arrowright"	"1235"	"TRUE"	"Ebbinghaus"	"-0.614290000"	"-0.158570000"	"2"	"6"
n/a	"html-keyboard-response"	"196"	"480637"	"0.0-6.0-2.0-0.6"	"adg4o5"	"600"	"1366"	"chrome"	"110.0.0"	"FALSE"	"Windows 10"	"60.83"	"043"	n/a	n/a	n/a	n/a	n/a	n/a	"fixation"	n/a	n/a	n/a	n/a	"NULL"	n/a	"NULL"	"NULL"	"NULL"	"<p style=\"color: black; font-size: 80px; padding-left: 4%; padding-right: 37%; padding-top: 13%; padding-bottom: 42%\">+</p>"	"1392"	n/a	n/a	n/a	n/a	n/a	n/a	n/a	n/a	n/a
n/a	"image-keyboard-response"	"197"	"481260"	"0.0-6.0-2.0-1.6"	"adg4o5"	"600"	"1366"	"chrome"	"110.0.0"	"FALSE"	"Windows 10"	"60.83"	"043"	n/a	n/a	n/a	n/a	n/a	n/a	"Trial"	n/a	n/a	n/a	"621"	"arrowleft"	n/a	"NULL"	"NULL"	"NULL"	"stimuli/Ebbinghaus_0.61429_0.28000.png"	n/a	"Ebbinghaus"	"arrowleft"	"1395"	"TRUE"	"Ebbinghaus"	"0.6142900000"	"0.2800000000"	"2"	"7"
n/a	"html-keyboard-response"	"198"	"482323"	"0.0-6.0-2.0-0.7"	"adg4o5"	"600"	"1366"	"chrome"	"110.0.0"	"FALSE"	"Windows 10"	"60.83"	"043"	n/a	n/a	n/a	n/a	n/a	n/a	"fixation"	n/a	n/a	n/a	n/a	"NULL"	n/a	"NULL"	"NULL"	"NULL"	"<p style=\"color: black; font-size: 80px; padding-left: 7%; padding-right: 1%; padding-top: 28%; padding-bottom: 49%\">+</p>"	"1053"	n/a	n/a	n/a	n/a	n/a	n/a	n/a	n/a	n/a
n/a	"image-keyboard-response"	"199"	"482878"	"0.0-6.0-2.0-1.7"	"adg4o5"	"600"	"1366"	"chrome"	"110.0.0"	"FALSE"	"Windows 10"	"60.83"	"043"	n/a	n/a	n/a	n/a	n/a	n/a	"Trial"	n/a	n/a	n/a	"554"	"arrowright"	n/a	"NULL"	"NULL"	"NULL"	"stimuli/Ebbinghaus_0.10000_-0.15857.png"	n/a	"Ebbinghaus"	"arrowright"	"1063"	"TRUE"	"Ebbinghaus"	"0.1000000000"	"-0.158570000"	"2"	"8"
n/a	"html-keyboard-response"	"200"	"484268"	"0.0-6.0-2.0-0.8"	"adg4o5"	"600"	"1366"	"chrome"	"110.0.0"	"FALSE"	"Windows 10"	"60.83"	"043"	n/a	n/a	n/a	n/a	n/a	n/a	"fixation"	n/a	n/a	n/a	n/a	"NULL"	n/a	"NULL"	"NULL"	"NULL"	"<p style=\"color: black; font-size: 80px; padding-left: 30%; padding-right: 49%; padding-top: 15%; padding-bottom: 36%\">+</p>"	"1385"	n/a	n/a	n/a	n/a	n/a	n/a	n/a	n/a	n/a
n/a	"image-keyboard-response"	"201"	"484764"	"0.0-6.0-2.0-1.8"	"adg4o5"	"600"	"1366"	"chrome"	"110.0.0"	"FALSE"	"Windows 10"	"60.83"	"043"	n/a	n/a	n/a	n/a	n/a	n/a	"Trial"	n/a	n/a	n/a	"496"	"arrowright"	n/a	"NULL"	"NULL"	"NULL"	"stimuli/Ebbinghaus_-0.35714_-0.15857.png"	n/a	"Ebbinghaus"	"arrowright"	"1390"	"TRUE"	"Ebbinghaus"	"-0.357140000"	"-0.158570000"	"2"	"9"
n/a	"html-keyboard-response"	"202"	"485861"	"0.0-6.0-2.0-0.9"	"adg4o5"	"600"	"1366"	"chrome"	"110.0.0"	"FALSE"	"Windows 10"	"60.83"	"043"	n/a	n/a	n/a	n/a	n/a	n/a	"fixation"	n/a	n/a	n/a	n/a	"NULL"	n/a	"NULL"	"NULL"	"NULL"	"<p style=\"color: black; font-size: 80px; padding-left: 35%; padding-right: 45%; padding-top: 5%; padding-bottom: 33%\">+</p>"	"1081"	n/a	n/a	n/a	n/a	n/a	n/a	n/a	n/a	n/a
n/a	"image-keyboard-response"	"203"	"486473"	"0.0-6.0-2.0-1.9"	"adg4o5"	"600"	"1366"	"chrome"	"110.0.0"	"FALSE"	"Windows 10"	"60.83"	"043"	n/a	n/a	n/a	n/a	n/a	n/a	"Trial"	n/a	n/a	n/a	"612"	"arrowright"	n/a	"NULL"	"NULL"	"NULL"	"stimuli/Ebbinghaus_-0.87143_-0.11071.png"	n/a	"Ebbinghaus"	"arrowright"	"1097"	"TRUE"	"Ebbinghaus"	"-0.871430000"	"-0.110710000"	"2"	"10"
n/a	"html-keyboard-response"	"204"	"487758"	"0.0-6.0-2.0-0.10"	"adg4o5"	"600"	"1366"	"chrome"	"110.0.0"	"FALSE"	"Windows 10"	"60.83"	"043"	n/a	n/a	n/a	n/a	n/a	n/a	"fixation"	n/a	n/a	n/a	n/a	"NULL"	n/a	"NULL"	"NULL"	"NULL"	"<p style=\"color: black; font-size: 80px; padding-left: 36%; padding-right: 25%; padding-top: 9%; padding-bottom: 12%\">+</p>"	"1275"	n/a	n/a	n/a	n/a	n/a	n/a	n/a	n/a	n/a
n/a	"image-keyboard-response"	"205"	"488345"	"0.0-6.0-2.0-1.10"	"adg4o5"	"600"	"1366"	"chrome"	"110.0.0"	"FALSE"	"Windows 10"	"60.83"	"043"	n/a	n/a	n/a	n/a	n/a	n/a	"Trial"	n/a	n/a	n/a	"586"	"arrowleft"	n/a	"NULL"	"NULL"	"NULL"	"stimuli/Ebbinghaus_-0.61429_0.11071.png"	n/a	"Ebbinghaus"	"arrowleft"	"1285"	"TRUE"	"Ebbinghaus"	"-0.614290000"	"0.1107100000"	"2"	"11"
n/a	"html-keyboard-response"	"206"	"489595"	"0.0-6.0-2.0-0.11"	"adg4o5"	"600"	"1366"	"chrome"	"110.0.0"	"FALSE"	"Windows 10"	"60.83"	"043"	n/a	n/a	n/a	n/a	n/a	n/a	"fixation"	n/a	n/a	n/a	n/a	"NULL"	n/a	"NULL"	"NULL"	"NULL"	"<p style=\"color: black; font-size: 80px; padding-left: 20%; padding-right: 39%; padding-top: 33%; padding-bottom: 36%\">+</p>"	"1248"	n/a	n/a	n/a	n/a	n/a	n/a	n/a	n/a	n/a
n/a	"image-keyboard-response"	"207"	"490080"	"0.0-6.0-2.0-1.11"	"adg4o5"	"600"	"1366"	"chrome"	"110.0.0"	"FALSE"	"Windows 10"	"60.83"	"043"	n/a	n/a	n/a	n/a	n/a	n/a	"Trial"	n/a	n/a	n/a	"484"	"arrowright"	n/a	"NULL"	"NULL"	"NULL"	"stimuli/Ebbinghaus_-0.35714_-0.2800.png"	n/a	"Ebbinghaus"	"arrowright"	"1250"	"TRUE"	"Ebbinghaus"	"-0.357140000"	"-0.280000000"	"2"	"12"
n/a	"html-keyboard-response"	"208"	"491403"	"0.0-6.0-2.0-0.12"	"adg4o5"	"600"	"1366"	"chrome"	"110.0.0"	"FALSE"	"Windows 10"	"60.83"	"043"	n/a	n/a	n/a	n/a	n/a	n/a	"fixation"	n/a	n/a	n/a	n/a	"NULL"	n/a	"NULL"	"NULL"	"NULL"	"<p style=\"color: black; font-size: 80px; padding-left: 46%; padding-right: 45%; padding-top: 29%; padding-bottom: 3%\">+</p>"	"1307"	n/a	n/a	n/a	n/a	n/a	n/a	n/a	n/a	n/a
n/a	"image-keyboard-response"	"209"	"492037"	"0.0-6.0-2.0-1.12"	"adg4o5"	"600"	"1366"	"chrome"	"110.0.0"	"FALSE"	"Windows 10"	"60.83"	"043"	n/a	n/a	n/a	n/a	n/a	n/a	"Trial"	n/a	n/a	n/a	"633"	"arrowleft"	n/a	"NULL"	"NULL"	"NULL"	"stimuli/Ebbinghaus_0.10000_0.21500.png"	n/a	"Ebbinghaus"	"arrowleft"	"1323"	"TRUE"	"Ebbinghaus"	"0.1000000000"	"0.2150000000"	"2"	"13"
n/a	"html-keyboard-response"	"210"	"493080"	"0.0-6.0-2.0-0.13"	"adg4o5"	"600"	"1366"	"chrome"	"110.0.0"	"FALSE"	"Windows 10"	"60.83"	"043"	n/a	n/a	n/a	n/a	n/a	n/a	"fixation"	n/a	n/a	n/a	n/a	"NULL"	n/a	"NULL"	"NULL"	"NULL"	"<p style=\"color: black; font-size: 80px; padding-left: 33%; padding-right: 1%; padding-top: 21%; padding-bottom: 21%\">+</p>"	"1037"	n/a	n/a	n/a	n/a	n/a	n/a	n/a	n/a	n/a
n/a	"image-keyboard-response"	"211"	"493537"	"0.0-6.0-2.0-1.13"	"adg4o5"	"600"	"1366"	"chrome"	"110.0.0"	"FALSE"	"Windows 10"	"60.83"	"043"	n/a	n/a	n/a	n/a	n/a	n/a	"Trial"	n/a	n/a	n/a	"456"	"arrowright"	n/a	"NULL"	"NULL"	"NULL"	"stimuli/Ebbinghaus_0.35714_-0.15857.png"	n/a	"Ebbinghaus"	"arrowright"	"1043"	"TRUE"	"Ebbinghaus"	"0.3571400000"	"-0.158570000"	"2"	"14"
n/a	"html-keyboard-response"	"212"	"494842"	"0.0-6.0-2.0-0.14"	"adg4o5"	"600"	"1366"	"chrome"	"110.0.0"	"FALSE"	"Windows 10"	"60.83"	"043"	n/a	n/a	n/a	n/a	n/a	n/a	"fixation"	n/a	n/a	n/a	n/a	"NULL"	n/a	"NULL"	"NULL"	"NULL"	"<p style=\"color: black; font-size: 80px; padding-left: 9%; padding-right: 38%; padding-top: 18%; padding-bottom: 9%\">+</p>"	"1297"	n/a	n/a	n/a	n/a	n/a	n/a	n/a	n/a	n/a
n/a	"image-keyboard-response"	"213"	"495464"	"0.0-6.0-2.0-1.14"	"adg4o5"	"600"	"1366"	"chrome"	"110.0.0"	"FALSE"	"Windows 10"	"60.83"	"043"	n/a	n/a	n/a	n/a	n/a	n/a	"Trial"	n/a	n/a	n/a	"622"	"arrowleft"	n/a	"NULL"	"NULL"	"NULL"	"stimuli/Ebbinghaus_0.10000_0.28000.png"	n/a	"Ebbinghaus"	"arrowleft"	"1305"	"TRUE"	"Ebbinghaus"	"0.1000000000"	"0.2800000000"	"2"	"15"
n/a	"html-keyboard-response"	"214"	"496682"	"0.0-6.0-2.0-0.15"	"adg4o5"	"600"	"1366"	"chrome"	"110.0.0"	"FALSE"	"Windows 10"	"60.83"	"043"	n/a	n/a	n/a	n/a	n/a	n/a	"fixation"	n/a	n/a	n/a	n/a	"NULL"	n/a	"NULL"	"NULL"	"NULL"	"<p style=\"color: black; font-size: 80px; padding-left: 35%; padding-right: 13%; padding-top: 33%; padding-bottom: 6%\">+</p>"	"1206"	n/a	n/a	n/a	n/a	n/a	n/a	n/a	n/a	n/a
n/a	"image-keyboard-response"	"215"	"497116"	"0.0-6.0-2.0-1.15"	"adg4o5"	"600"	"1366"	"chrome"	"110.0.0"	"FALSE"	"Windows 10"	"60.83"	"043"	n/a	n/a	n/a	n/a	n/a	n/a	"Trial"	n/a	n/a	n/a	"434"	"arrowright"	n/a	"NULL"	"NULL"	"NULL"	"stimuli/Ebbinghaus_0.61429_-0.11071.png"	n/a	"Ebbinghaus"	"arrowright"	"1218"	"TRUE"	"Ebbinghaus"	"0.6142900000"	"-0.110710000"	"2"	"16"
n/a	"html-keyboard-response"	"216"	"498202"	"0.0-6.0-2.0-0.16"	"adg4o5"	"600"	"1366"	"chrome"	"110.0.0"	"FALSE"	"Windows 10"	"60.83"	"043"	n/a	n/a	n/a	n/a	n/a	n/a	"fixation"	n/a	n/a	n/a	n/a	"NULL"	n/a	"NULL"	"NULL"	"NULL"	"<p style=\"color: black; font-size: 80px; padding-left: 23%; padding-right: 7%; padding-top: 10%; padding-bottom: 10%\">+</p>"	"1077"	n/a	n/a	n/a	n/a	n/a	n/a	n/a	n/a	n/a
n/a	"image-keyboard-response"	"217"	"498807"	"0.0-6.0-2.0-1.16"	"adg4o5"	"600"	"1366"	"chrome"	"110.0.0"	"FALSE"	"Windows 10"	"60.83"	"043"	n/a	n/a	n/a	n/a	n/a	n/a	"Trial"	n/a	n/a	n/a	"605"	"arrowleft"	n/a	"NULL"	"NULL"	"NULL"	"stimuli/Ebbinghaus_-0.61429_0.28000.png"	n/a	"Ebbinghaus"	"arrowleft"	"1086"	"TRUE"	"Ebbinghaus"	"-0.614290000"	"0.2800000000"	"2"	"17"
n/a	"html-keyboard-response"	"218"	"499813"	"0.0-6.0-2.0-0.17"	"adg4o5"	"600"	"1366"	"chrome"	"110.0.0"	"FALSE"	"Windows 10"	"60.83"	"043"	n/a	n/a	n/a	n/a	n/a	n/a	"fixation"	n/a	n/a	n/a	n/a	"NULL"	n/a	"NULL"	"NULL"	"NULL"	"<p style=\"color: black; font-size: 80px; padding-left: 2%; padding-right: 48%; padding-top: 46%; padding-bottom: 45%\">+</p>"	"1004"	n/a	n/a	n/a	n/a	n/a	n/a	n/a	n/a	n/a
n/a	"image-keyboard-response"	"219"	"500309"	"0.0-6.0-2.0-1.17"	"adg4o5"	"600"	"1366"	"chrome"	"110.0.0"	"FALSE"	"Windows 10"	"60.83"	"043"	n/a	n/a	n/a	n/a	n/a	n/a	"Trial"	n/a	n/a	n/a	"496"	"arrowleft"	n/a	"NULL"	"NULL"	"NULL"	"stimuli/Ebbinghaus_0.87143_0.21500.png"	n/a	"Ebbinghaus"	"arrowleft"	"1006"	"TRUE"	"Ebbinghaus"	"0.8714300000"	"0.2150000000"	"2"	"18"
n/a	"html-keyboard-response"	"220"	"501700"	"0.0-6.0-2.0-0.18"	"adg4o5"	"600"	"1366"	"chrome"	"110.0.0"	"FALSE"	"Windows 10"	"60.83"	"043"	n/a	n/a	n/a	n/a	n/a	n/a	"fixation"	n/a	n/a	n/a	n/a	"NULL"	n/a	"NULL"	"NULL"	"NULL"	"<p style=\"color: black; font-size: 80px; padding-left: 11%; padding-right: 7%; padding-top: 16%; padding-bottom: 4%\">+</p>"	"1388"	n/a	n/a	n/a	n/a	n/a	n/a	n/a	n/a	n/a
n/a	"image-keyboard-response"	"221"	"502172"	"0.0-6.0-2.0-1.18"	"adg4o5"	"600"	"1366"	"chrome"	"110.0.0"	"FALSE"	"Windows 10"	"60.83"	"043"	n/a	n/a	n/a	n/a	n/a	n/a	"Trial"	n/a	n/a	n/a	"471"	"arrowright"	n/a	"NULL"	"NULL"	"NULL"	"stimuli/Ebbinghaus_0.10000_-0.2150.png"	n/a	"Ebbinghaus"	"arrowright"	"1391"	"TRUE"	"Ebbinghaus"	"0.1000000000"	"-0.215000000"	"2"	"19"
n/a	"html-keyboard-response"	"222"	"503610"	"0.0-6.0-2.0-0.19"	"adg4o5"	"600"	"1366"	"chrome"	"110.0.0"	"FALSE"	"Windows 10"	"60.83"	"043"	n/a	n/a	n/a	n/a	n/a	n/a	"fixation"	n/a	n/a	n/a	n/a	"NULL"	n/a	"NULL"	"NULL"	"NULL"	"<p style=\"color: black; font-size: 80px; padding-left: 8%; padding-right: 21%; padding-top: 3%; padding-bottom: 36%\">+</p>"	"1435"	n/a	n/a	n/a	n/a	n/a	n/a	n/a	n/a	n/a
n/a	"image-keyboard-response"	"223"	"504190"	"0.0-6.0-2.0-1.19"	"adg4o5"	"600"	"1366"	"chrome"	"110.0.0"	"FALSE"	"Windows 10"	"60.83"	"043"	n/a	n/a	n/a	n/a	n/a	n/a	"Trial"	n/a	n/a	n/a	"579"	"arrowright"	n/a	"NULL"	"NULL"	"NULL"	"stimuli/Ebbinghaus_-0.87143_-0.2800.png"	n/a	"Ebbinghaus"	"arrowright"	"1438"	"TRUE"	"Ebbinghaus"	"-0.871430000"	"-0.280000000"	"2"	"20"
n/a	"html-keyboard-response"	"224"	"505501"	"0.0-6.0-2.0-0.20"	"adg4o5"	"600"	"1366"	"chrome"	"110.0.0"	"FALSE"	"Windows 10"	"60.83"	"043"	n/a	n/a	n/a	n/a	n/a	n/a	"fixation"	n/a	n/a	n/a	n/a	"NULL"	n/a	"NULL"	"NULL"	"NULL"	"<p style=\"color: black; font-size: 80px; padding-left: 28%; padding-right: 46%; padding-top: 39%; padding-bottom: 11%\">+</p>"	"1301"	n/a	n/a	n/a	n/a	n/a	n/a	n/a	n/a	n/a
n/a	"image-keyboard-response"	"225"	"505900"	"0.0-6.0-2.0-1.20"	"adg4o5"	"600"	"1366"	"chrome"	"110.0.0"	"FALSE"	"Windows 10"	"60.83"	"043"	n/a	n/a	n/a	n/a	n/a	n/a	"Trial"	n/a	n/a	n/a	"399"	"arrowright"	n/a	"NULL"	"NULL"	"NULL"	"stimuli/Ebbinghaus_-0.87143_0.21500.png"	n/a	"Ebbinghaus"	"arrowleft"	"1311"	"FALSE"	"Ebbinghaus"	"-0.871430000"	"0.2150000000"	"2"	"21"
n/a	"html-keyboard-response"	"226"	"506963"	"0.0-6.0-2.0-0.21"	"adg4o5"	"600"	"1366"	"chrome"	"110.0.0"	"FALSE"	"Windows 10"	"60.83"	"043"	n/a	n/a	n/a	n/a	n/a	n/a	"fixation"	n/a	n/a	n/a	n/a	"NULL"	n/a	"NULL"	"NULL"	"NULL"	"<p style=\"color: black; font-size: 80px; padding-left: 42%; padding-right: 37%; padding-top: 5%; padding-bottom: 7%\">+</p>"	"1046"	n/a	n/a	n/a	n/a	n/a	n/a	n/a	n/a	n/a
n/a	"image-keyboard-response"	"227"	"507679"	"0.0-6.0-2.0-1.21"	"adg4o5"	"600"	"1366"	"chrome"	"110.0.0"	"FALSE"	"Windows 10"	"60.83"	"043"	n/a	n/a	n/a	n/a	n/a	n/a	"Trial"	n/a	n/a	n/a	"716"	"arrowleft"	n/a	"NULL"	"NULL"	"NULL"	"stimuli/Ebbinghaus_-0.1000_0.28000.png"	n/a	"Ebbinghaus"	"arrowleft"	"1063"	"TRUE"	"Ebbinghaus"	"-0.100000000"	"0.2800000000"	"2"	"22"
n/a	"html-keyboard-response"	"228"	"508990"	"0.0-6.0-2.0-0.22"	"adg4o5"	"600"	"1366"	"chrome"	"110.0.0"	"FALSE"	"Windows 10"	"60.83"	"043"	n/a	n/a	n/a	n/a	n/a	n/a	"fixation"	n/a	n/a	n/a	n/a	"NULL"	n/a	"NULL"	"NULL"	"NULL"	"<p style=\"color: black; font-size: 80px; padding-left: 45%; padding-right: 11%; padding-top: 11%; padding-bottom: 17%\">+</p>"	"1301"	n/a	n/a	n/a	n/a	n/a	n/a	n/a	n/a	n/a
n/a	"image-keyboard-response"	"229"	"509421"	"0.0-6.0-2.0-1.22"	"adg4o5"	"600"	"1366"	"chrome"	"110.0.0"	"FALSE"	"Windows 10"	"60.83"	"043"	n/a	n/a	n/a	n/a	n/a	n/a	"Trial"	n/a	n/a	n/a	"430"	"arrowright"	n/a	"NULL"	"NULL"	"NULL"	"stimuli/Ebbinghaus_-0.87143_0.11071.png"	n/a	"Ebbinghaus"	"arrowleft"	"1311"	"FALSE"	"Ebbinghaus"	"-0.871430000"	"0.1107100000"	"2"	"23"
n/a	"html-keyboard-response"	"230"	"510859"	"0.0-6.0-2.0-0.23"	"adg4o5"	"600"	"1366"	"chrome"	"110.0.0"	"FALSE"	"Windows 10"	"60.83"	"043"	n/a	n/a	n/a	n/a	n/a	n/a	"fixation"	n/a	n/a	n/a	n/a	"NULL"	n/a	"NULL"	"NULL"	"NULL"	"<p style=\"color: black; font-size: 80px; padding-left: 40%; padding-right: 38%; padding-top: 27%; padding-bottom: 6%\">+</p>"	"1432"	n/a	n/a	n/a	n/a	n/a	n/a	n/a	n/a	n/a
n/a	"image-keyboard-response"	"231"	"511514"	"0.0-6.0-2.0-1.23"	"adg4o5"	"600"	"1366"	"chrome"	"110.0.0"	"FALSE"	"Windows 10"	"60.83"	"043"	n/a	n/a	n/a	n/a	n/a	n/a	"Trial"	n/a	n/a	n/a	"654"	"arrowleft"	n/a	"NULL"	"NULL"	"NULL"	"stimuli/Ebbinghaus_-0.1000_0.11071.png"	n/a	"Ebbinghaus"	"arrowleft"	"1438"	"TRUE"	"Ebbinghaus"	"-0.100000000"	"0.1107100000"	"2"	"24"
n/a	"html-keyboard-response"	"232"	"512666"	"0.0-6.0-2.0-0.24"	"adg4o5"	"600"	"1366"	"chrome"	"110.0.0"	"FALSE"	"Windows 10"	"60.83"	"043"	n/a	n/a	n/a	n/a	n/a	n/a	"fixation"	n/a	n/a	n/a	n/a	"NULL"	n/a	"NULL"	"NULL"	"NULL"	"<p style=\"color: black; font-size: 80px; padding-left: 18%; padding-right: 36%; padding-top: 25%; padding-bottom: 39%\">+</p>"	"1134"	n/a	n/a	n/a	n/a	n/a	n/a	n/a	n/a	n/a
n/a	"image-keyboard-response"	"233"	"513132"	"0.0-6.0-2.0-1.24"	"adg4o5"	"600"	"1366"	"chrome"	"110.0.0"	"FALSE"	"Windows 10"	"60.83"	"043"	n/a	n/a	n/a	n/a	n/a	n/a	"Trial"	n/a	n/a	n/a	"465"	"arrowright"	n/a	"NULL"	"NULL"	"NULL"	"stimuli/Ebbinghaus_0.87143_-0.15857.png"	n/a	"Ebbinghaus"	"arrowright"	"1152"	"TRUE"	"Ebbinghaus"	"0.8714300000"	"-0.158570000"	"2"	"25"
n/a	"html-keyboard-response"	"234"	"514423"	"0.0-6.0-2.0-0.25"	"adg4o5"	"600"	"1366"	"chrome"	"110.0.0"	"FALSE"	"Windows 10"	"60.83"	"043"	n/a	n/a	n/a	n/a	n/a	n/a	"fixation"	n/a	n/a	n/a	n/a	"NULL"	n/a	"NULL"	"NULL"	"NULL"	"<p style=\"color: black; font-size: 80px; padding-left: 38%; padding-right: 28%; padding-top: 23%; padding-bottom: 28%\">+</p>"	"1287"	n/a	n/a	n/a	n/a	n/a	n/a	n/a	n/a	n/a
n/a	"image-keyboard-response"	"235"	"515019"	"0.0-6.0-2.0-1.25"	"adg4o5"	"600"	"1366"	"chrome"	"110.0.0"	"FALSE"	"Windows 10"	"60.83"	"043"	n/a	n/a	n/a	n/a	n/a	n/a	"Trial"	n/a	n/a	n/a	"595"	"arrowleft"	n/a	"NULL"	"NULL"	"NULL"	"stimuli/Ebbinghaus_-0.35714_0.28000.png"	n/a	"Ebbinghaus"	"arrowleft"	"1291"	"TRUE"	"Ebbinghaus"	"-0.357140000"	"0.2800000000"	"2"	"26"
n/a	"html-keyboard-response"	"236"	"516229"	"0.0-6.0-2.0-0.26"	"adg4o5"	"600"	"1366"	"chrome"	"110.0.0"	"FALSE"	"Windows 10"	"60.83"	"043"	n/a	n/a	n/a	n/a	n/a	n/a	"fixation"	n/a	n/a	n/a	n/a	"NULL"	n/a	"NULL"	"NULL"	"NULL"	"<p style=\"color: black; font-size: 80px; padding-left: 28%; padding-right: 28%; padding-top: 6%; padding-bottom: 21%\">+</p>"	"1207"	n/a	n/a	n/a	n/a	n/a	n/a	n/a	n/a	n/a
n/a	"image-keyboard-response"	"237"	"517113"	"0.0-6.0-2.0-1.26"	"adg4o5"	"600"	"1366"	"chrome"	"110.0.0"	"FALSE"	"Windows 10"	"60.83"	"043"	n/a	n/a	n/a	n/a	n/a	n/a	"Trial"	n/a	n/a	n/a	"883"	"arrowleft"	n/a	"NULL"	"NULL"	"NULL"	"stimuli/Ebbinghaus_0.61429_0.11071.png"	n/a	"Ebbinghaus"	"arrowleft"	"1210"	"TRUE"	"Ebbinghaus"	"0.6142900000"	"0.1107100000"	"2"	"27"
n/a	"html-keyboard-response"	"238"	"518437"	"0.0-6.0-2.0-0.27"	"adg4o5"	"600"	"1366"	"chrome"	"110.0.0"	"FALSE"	"Windows 10"	"60.83"	"043"	n/a	n/a	n/a	n/a	n/a	n/a	"fixation"	n/a	n/a	n/a	n/a	"NULL"	n/a	"NULL"	"NULL"	"NULL"	"<p style=\"color: black; font-size: 80px; padding-left: 3%; padding-right: 48%; padding-top: 19%; padding-bottom: 33%\">+</p>"	"1310"	n/a	n/a	n/a	n/a	n/a	n/a	n/a	n/a	n/a
n/a	"image-keyboard-response"	"239"	"519004"	"0.0-6.0-2.0-1.27"	"adg4o5"	"600"	"1366"	"chrome"	"110.0.0"	"FALSE"	"Windows 10"	"60.83"	"043"	n/a	n/a	n/a	n/a	n/a	n/a	"Trial"	n/a	n/a	n/a	"567"	"arrowright"	n/a	"NULL"	"NULL"	"NULL"	"stimuli/Ebbinghaus_-0.87143_-0.2150.png"	n/a	"Ebbinghaus"	"arrowright"	"1324"	"TRUE"	"Ebbinghaus"	"-0.871430000"	"-0.215000000"	"2"	"28"
n/a	"html-keyboard-response"	"240"	"520062"	"0.0-6.0-2.0-0.28"	"adg4o5"	"600"	"1366"	"chrome"	"110.0.0"	"FALSE"	"Windows 10"	"60.83"	"043"	n/a	n/a	n/a	n/a	n/a	n/a	"fixation"	n/a	n/a	n/a	n/a	"NULL"	n/a	"NULL"	"NULL"	"NULL"	"<p style=\"color: black; font-size: 80px; padding-left: 3%; padding-right: 35%; padding-top: 39%; padding-bottom: 13%\">+</p>"	"1043"	n/a	n/a	n/a	n/a	n/a	n/a	n/a	n/a	n/a
n/a	"image-keyboard-response"	"241"	"520791"	"0.0-6.0-2.0-1.28"	"adg4o5"	"600"	"1366"	"chrome"	"110.0.0"	"FALSE"	"Windows 10"	"60.83"	"043"	n/a	n/a	n/a	n/a	n/a	n/a	"Trial"	n/a	n/a	n/a	"728"	"arrowleft"	n/a	"NULL"	"NULL"	"NULL"	"stimuli/Ebbinghaus_-0.35714_0.15857.png"	n/a	"Ebbinghaus"	"arrowleft"	"1058"	"TRUE"	"Ebbinghaus"	"-0.357140000"	"0.1585700000"	"2"	"29"
n/a	"html-keyboard-response"	"242"	"521908"	"0.0-6.0-2.0-0.29"	"adg4o5"	"600"	"1366"	"chrome"	"110.0.0"	"FALSE"	"Windows 10"	"60.83"	"043"	n/a	n/a	n/a	n/a	n/a	n/a	"fixation"	n/a	n/a	n/a	n/a	"NULL"	n/a	"NULL"	"NULL"	"NULL"	"<p style=\"color: black; font-size: 80px; padding-left: 44%; padding-right: 20%; padding-top: 5%; padding-bottom: 34%\">+</p>"	"1109"	n/a	n/a	n/a	n/a	n/a	n/a	n/a	n/a	n/a
n/a	"image-keyboard-response"	"243"	"522371"	"0.0-6.0-2.0-1.29"	"adg4o5"	"600"	"1366"	"chrome"	"110.0.0"	"FALSE"	"Windows 10"	"60.83"	"043"	n/a	n/a	n/a	n/a	n/a	n/a	"Trial"	n/a	n/a	n/a	"462"	"arrowright"	n/a	"NULL"	"NULL"	"NULL"	"stimuli/Ebbinghaus_0.61429_-0.2800.png"	n/a	"Ebbinghaus"	"arrowright"	"1117"	"TRUE"	"Ebbinghaus"	"0.6142900000"	"-0.280000000"	"2"	"30"
n/a	"html-keyboard-response"	"244"	"523578"	"0.0-6.0-2.0-0.30"	"adg4o5"	"600"	"1366"	"chrome"	"110.0.0"	"FALSE"	"Windows 10"	"60.83"	"043"	n/a	n/a	n/a	n/a	n/a	n/a	"fixation"	n/a	n/a	n/a	n/a	"NULL"	n/a	"NULL"	"NULL"	"NULL"	"<p style=\"color: black; font-size: 80px; padding-left: 3%; padding-right: 35%; padding-top: 13%; padding-bottom: 25%\">+</p>"	"1201"	n/a	n/a	n/a	n/a	n/a	n/a	n/a	n/a	n/a
n/a	"image-keyboard-response"	"245"	"524297"	"0.0-6.0-2.0-1.30"	"adg4o5"	"600"	"1366"	"chrome"	"110.0.0"	"FALSE"	"Windows 10"	"60.83"	"043"	n/a	n/a	n/a	n/a	n/a	n/a	"Trial"	n/a	n/a	n/a	"718"	"arrowright"	n/a	"NULL"	"NULL"	"NULL"	"stimuli/Ebbinghaus_-0.35714_-0.2150.png"	n/a	"Ebbinghaus"	"arrowright"	"1207"	"TRUE"	"Ebbinghaus"	"-0.357140000"	"-0.215000000"	"2"	"31"
n/a	"html-keyboard-response"	"246"	"525778"	"0.0-6.0-2.0-0.31"	"adg4o5"	"600"	"1366"	"chrome"	"110.0.0"	"FALSE"	"Windows 10"	"60.83"	"043"	n/a	n/a	n/a	n/a	n/a	n/a	"fixation"	n/a	n/a	n/a	n/a	"NULL"	n/a	"NULL"	"NULL"	"NULL"	"<p style=\"color: black; font-size: 80px; padding-left: 34%; padding-right: 13%; padding-top: 35%; padding-bottom: 31%\">+</p>"	"1479"	n/a	n/a	n/a	n/a	n/a	n/a	n/a	n/a	n/a
n/a	"image-keyboard-response"	"247"	"526743"	"0.0-6.0-2.0-1.31"	"adg4o5"	"600"	"1366"	"chrome"	"110.0.0"	"FALSE"	"Windows 10"	"60.83"	"043"	n/a	n/a	n/a	n/a	n/a	n/a	"Trial"	n/a	n/a	n/a	"963"	"arrowleft"	n/a	"NULL"	"NULL"	"NULL"	"stimuli/Ebbinghaus_0.61429_-0.2150.png"	n/a	"Ebbinghaus"	"arrowright"	"1481"	"FALSE"	"Ebbinghaus"	"0.6142900000"	"-0.215000000"	"2"	"32"
n/a	"html-keyboard-response"	"248"	"527778"	"0.0-6.0-2.0-0.32"	"adg4o5"	"600"	"1366"	"chrome"	"110.0.0"	"FALSE"	"Windows 10"	"60.83"	"043"	n/a	n/a	n/a	n/a	n/a	n/a	"fixation"	n/a	n/a	n/a	n/a	"NULL"	n/a	"NULL"	"NULL"	"NULL"	"<p style=\"color: black; font-size: 80px; padding-left: 47%; padding-right: 37%; padding-top: 26%; padding-bottom: 7%\">+</p>"	"1025"	n/a	n/a	n/a	n/a	n/a	n/a	n/a	n/a	n/a
n/a	"image-keyboard-response"	"249"	"528478"	"0.0-6.0-2.0-1.32"	"adg4o5"	"600"	"1366"	"chrome"	"110.0.0"	"FALSE"	"Windows 10"	"60.83"	"043"	n/a	n/a	n/a	n/a	n/a	n/a	"Trial"	n/a	n/a	n/a	"699"	"arrowleft"	n/a	"NULL"	"NULL"	"NULL"	"stimuli/Ebbinghaus_-0.1000_0.15857.png"	n/a	"Ebbinghaus"	"arrowleft"	"1035"	"TRUE"	"Ebbinghaus"	"-0.100000000"	"0.1585700000"	"2"	"33"
n/a	"html-keyboard-response"	"250"	"529641"	"0.0-6.0-2.0-0.33"	"adg4o5"	"600"	"1366"	"chrome"	"110.0.0"	"FALSE"	"Windows 10"	"60.83"	"043"	n/a	n/a	n/a	n/a	n/a	n/a	"fixation"	n/a	n/a	n/a	n/a	"NULL"	n/a	"NULL"	"NULL"	"NULL"	"<p style=\"color: black; font-size: 80px; padding-left: 45%; padding-right: 48%; padding-top: 33%; padding-bottom: 29%\">+</p>"	"1162"	n/a	n/a	n/a	n/a	n/a	n/a	n/a	n/a	n/a
n/a	"image-keyboard-response"	"251"	"530347"	"0.0-6.0-2.0-1.33"	"adg4o5"	"600"	"1366"	"chrome"	"110.0.0"	"FALSE"	"Windows 10"	"60.83"	"043"	n/a	n/a	n/a	n/a	n/a	n/a	"Trial"	n/a	n/a	n/a	"705"	"arrowleft"	n/a	"NULL"	"NULL"	"NULL"	"stimuli/Ebbinghaus_-0.1000_0.21500.png"	n/a	"Ebbinghaus"	"arrowleft"	"1163"	"TRUE"	"Ebbinghaus"	"-0.100000000"	"0.2150000000"	"2"	"34"
n/a	"html-keyboard-response"	"252"	"531401"	"0.0-6.0-2.0-0.34"	"adg4o5"	"600"	"1366"	"chrome"	"110.0.0"	"FALSE"	"Windows 10"	"60.83"	"043"	n/a	n/a	n/a	n/a	n/a	n/a	"fixation"	n/a	n/a	n/a	n/a	"NULL"	n/a	"NULL"	"NULL"	"NULL"	"<p style=\"color: black; font-size: 80px; padding-left: 49%; padding-right: 36%; padding-top: 4%; padding-bottom: 21%\">+</p>"	"1041"	n/a	n/a	n/a	n/a	n/a	n/a	n/a	n/a	n/a
n/a	"image-keyboard-response"	"253"	"531865"	"0.0-6.0-2.0-1.34"	"adg4o5"	"600"	"1366"	"chrome"	"110.0.0"	"FALSE"	"Windows 10"	"60.83"	"043"	n/a	n/a	n/a	n/a	n/a	n/a	"Trial"	n/a	n/a	n/a	"463"	"arrowleft"	n/a	"NULL"	"NULL"	"NULL"	"stimuli/Ebbinghaus_0.35714_0.21500.png"	n/a	"Ebbinghaus"	"arrowleft"	"1054"	"TRUE"	"Ebbinghaus"	"0.3571400000"	"0.2150000000"	"2"	"35"
