"success"	"trial_type"	"trial_index"	"time_elapsed"	"internal_node_id"	"participant_id"	"screen_height"	"screen_width"	"browser"	"browser_version"	"mobile"	"os"	"vsync_rate"	"subject_id"	"width"	"height"	"webaudio"	"fullscreen"	"webcam"	"microphone"	"screen"	"version"	"date"	"time"	"rt"	"response"	"timeout"	"failed_images"	"failed_audio"	"failed_video"	"stimulus"	"trial_duration"	"block"	"correct_response"	"prestimulus_duration"	"correct"	"type"	"illusion_strength"	"illusion_difference"	"block_number"	"trial_number"
"TRUE"	"fullscreen"	"0"	"13287"	"0.0-0.0"	"f7ytem"	"600"	"1366"	"chrome"	"111.0.0"	"FALSE"	"Windows 10"	"60.32"	"061"	n/a	n/a	n/a	n/a	n/a	n/a	n/a	n/a	n/a	n/a	n/a	"NULL"	n/a	"NULL"	"NULL"	"NULL"	n/a	n/a	n/a	n/a	n/a	n/a	n/a	n/a	n/a	n/a	n/a
n/a	"browser-check"	"1"	"14304"	"0.0-1.0"	"f7ytem"	"600"	"1366"	"chrome"	"111.0.0"	"FALSE"	"Windows 10"	"60.32"	"061"	"1366"	"600"	"TRUE"	"TRUE"	"TRUE"	"TRUE"	"browser_info"	"1.0"	"27/03/2023"	"18:01:37"	n/a	"NULL"	n/a	"NULL"	"NULL"	"NULL"	n/a	n/a	n/a	n/a	n/a	n/a	n/a	n/a	n/a	n/a	n/a
n/a	"survey-text"	"2"	"28005"	"0.0-2.0"	"f7ytem"	"600"	"1366"	"chrome"	"111.0.0"	"FALSE"	"Windows 10"	"60.32"	"061"	n/a	n/a	n/a	n/a	n/a	n/a	"subject_id"	n/a	n/a	n/a	"13696"	"list(subject_id = \"061\")"	n/a	"NULL"	"NULL"	"NULL"	n/a	n/a	n/a	n/a	n/a	n/a	n/a	n/a	n/a	n/a	n/a
"TRUE"	"preload"	"3"	"28015"	"0.0-3.0"	"f7ytem"	"600"	"1366"	"chrome"	"111.0.0"	"FALSE"	"Windows 10"	"60.32"	"061"	n/a	n/a	n/a	n/a	n/a	n/a	n/a	n/a	n/a	n/a	n/a	"NULL"	"FALSE"	"list()"	"list()"	"list()"	n/a	n/a	n/a	n/a	n/a	n/a	n/a	n/a	n/a	n/a	n/a
n/a	"html-button-response"	"4"	"60334"	"0.0-4.0-0.0"	"f7ytem"	"600"	"1366"	"chrome"	"111.0.0"	"FALSE"	"Windows 10"	"60.32"	"061"	n/a	n/a	n/a	n/a	n/a	n/a	"illusion_instructions"	n/a	n/a	n/a	"32318"	"0"	n/a	"NULL"	"NULL"	"NULL"	"<p><b>Illusion Game</b></p><p>In this game of speed and reflex, you will need to make <b>visual judgments</b> (for instance, which circle is the biggest, or which line is the longest), as fast and as correctly as possible, while <b>resisting different visual illusions</b>.</p><p>We are going to start with some examples of all the illusions you will encounter in the game.</p>"	n/a	n/a	n/a	n/a	n/a	n/a	n/a	n/a	n/a	n/a
"TRUE"	"preload"	"5"	"60348"	"0.0-4.0-1.0-0.0"	"f7ytem"	"600"	"1366"	"chrome"	"111.0.0"	"FALSE"	"Windows 10"	"60.32"	"061"	n/a	n/a	n/a	n/a	n/a	n/a	n/a	n/a	n/a	n/a	n/a	"NULL"	"FALSE"	"list()"	"list()"	"list()"	n/a	n/a	n/a	n/a	n/a	n/a	n/a	n/a	n/a	n/a	n/a
n/a	"html-keyboard-response"	"6"	"77318"	"0.0-4.0-1.0-1.0"	"f7ytem"	"600"	"1366"	"chrome"	"111.0.0"	"FALSE"	"Windows 10"	"60.32"	"061"	n/a	n/a	n/a	n/a	n/a	n/a	n/a	n/a	n/a	n/a	"16968"	"enter"	n/a	"NULL"	"NULL"	"NULL"	"<p><b>Practice</b></p><p>In this part, two red circles will appear side by side on the screen.</p><p>Your task is to select which <b>red circle is bigger</b> in size as fast as you can, without making errors.</p><p>Don't get distracted by the surrounding black circles around the red circles!</p><p>Press <b>the LEFT or the RIGHT arrow</b> to indicate which is the bigger <b>red circle.</b></p><div style='float: center'><img src='materials/instructions/Ebbinghaus_Demo.png' height='300'></img><p><img src='utils/answer/answer_leftright_keyboard.PNG' height='150'></img></p><p class='small'>In this example, the correct answer is the <b>LEFT arrow</b>.</p></div><p>Are you ready? <b>Press ENTER to start</b></p>"	n/a	n/a	n/a	n/a	n/a	n/a	n/a	n/a	n/a	n/a
n/a	"html-keyboard-response"	"7"	"79031"	"0.0-4.0-1.0-2.0-0.0"	"f7ytem"	"600"	"1366"	"chrome"	"111.0.0"	"FALSE"	"Windows 10"	"60.32"	"061"	n/a	n/a	n/a	n/a	n/a	n/a	"fixation"	n/a	n/a	n/a	n/a	"NULL"	n/a	"NULL"	"NULL"	"NULL"	"<p style=\"color: black; font-size: 80px; padding-left: 23%; padding-right: 50%; padding-top: 5%; padding-bottom: 29%\">+</p>"	"1196"	n/a	n/a	n/a	n/a	n/a	n/a	n/a	n/a	n/a
n/a	"image-keyboard-response"	"8"	"79793"	"0.0-4.0-1.0-2.0-1.0"	"f7ytem"	"600"	"1366"	"chrome"	"111.0.0"	"FALSE"	"Windows 10"	"60.32"	"061"	n/a	n/a	n/a	n/a	n/a	n/a	"Trial"	n/a	n/a	n/a	"752"	"arrowright"	n/a	"NULL"	"NULL"	"NULL"	"stimuli/Ebbinghaus_-100000_-1.4000.png"	n/a	"Ebbinghaus"	"arrowright"	"1713"	"TRUE"	"Ebbinghaus"	"-10000000000"	"-1.400000000"	"1"	"1"
n/a	"html-keyboard-response"	"9"	"81130"	"0.0-4.0-1.0-2.0-0.1"	"f7ytem"	"600"	"1366"	"chrome"	"111.0.0"	"FALSE"	"Windows 10"	"60.32"	"061"	n/a	n/a	n/a	n/a	n/a	n/a	"fixation"	n/a	n/a	n/a	n/a	"NULL"	n/a	"NULL"	"NULL"	"NULL"	"<p style=\"color: black; font-size: 80px; padding-left: 37%; padding-right: 24%; padding-top: 16%; padding-bottom: 30%\">+</p>"	"1321"	n/a	n/a	n/a	n/a	n/a	n/a	n/a	n/a	n/a
n/a	"image-keyboard-response"	"10"	"81634"	"0.0-4.0-1.0-2.0-1.1"	"f7ytem"	"600"	"1366"	"chrome"	"111.0.0"	"FALSE"	"Windows 10"	"60.32"	"061"	n/a	n/a	n/a	n/a	n/a	n/a	"Trial"	n/a	n/a	n/a	"504"	"arrowright"	n/a	"NULL"	"NULL"	"NULL"	"stimuli/Ebbinghaus_0000000_-1.4000.png"	n/a	"Ebbinghaus"	"arrowright"	"1337"	"TRUE"	"Ebbinghaus"	"000000000000"	"-1.400000000"	"1"	"2"
n/a	"html-keyboard-response"	"11"	"82724"	"0.0-4.0-1.0-2.0-0.2"	"f7ytem"	"600"	"1366"	"chrome"	"111.0.0"	"FALSE"	"Windows 10"	"60.32"	"061"	n/a	n/a	n/a	n/a	n/a	n/a	"fixation"	n/a	n/a	n/a	n/a	"NULL"	n/a	"NULL"	"NULL"	"NULL"	"<p style=\"color: black; font-size: 80px; padding-left: 22%; padding-right: 37%; padding-top: 0%; padding-bottom: 38%\">+</p>"	"1081"	n/a	n/a	n/a	n/a	n/a	n/a	n/a	n/a	n/a
n/a	"image-keyboard-response"	"12"	"83236"	"0.0-4.0-1.0-2.0-1.2"	"f7ytem"	"600"	"1366"	"chrome"	"111.0.0"	"FALSE"	"Windows 10"	"60.32"	"061"	n/a	n/a	n/a	n/a	n/a	n/a	"Trial"	n/a	n/a	n/a	"511"	"arrowleft"	n/a	"NULL"	"NULL"	"NULL"	"stimuli/Ebbinghaus_-100000_1.40000.png"	n/a	"Ebbinghaus"	"arrowleft"	"1090"	"TRUE"	"Ebbinghaus"	"-10000000000"	"1.4000000000"	"1"	"3"
n/a	"html-keyboard-response"	"13"	"84522"	"0.0-4.0-1.0-2.0-0.3"	"f7ytem"	"600"	"1366"	"chrome"	"111.0.0"	"FALSE"	"Windows 10"	"60.32"	"061"	n/a	n/a	n/a	n/a	n/a	n/a	"fixation"	n/a	n/a	n/a	n/a	"NULL"	n/a	"NULL"	"NULL"	"NULL"	"<p style=\"color: black; font-size: 80px; padding-left: 7%; padding-right: 50%; padding-top: 20%; padding-bottom: 49%\">+</p>"	"1279"	n/a	n/a	n/a	n/a	n/a	n/a	n/a	n/a	n/a
n/a	"image-keyboard-response"	"14"	"84970"	"0.0-4.0-1.0-2.0-1.3"	"f7ytem"	"600"	"1366"	"chrome"	"111.0.0"	"FALSE"	"Windows 10"	"60.32"	"061"	n/a	n/a	n/a	n/a	n/a	n/a	"Trial"	n/a	n/a	n/a	"447"	"arrowleft"	n/a	"NULL"	"NULL"	"NULL"	"stimuli/Ebbinghaus_1000000_1.40000.png"	n/a	"Ebbinghaus"	"arrowleft"	"1286"	"TRUE"	"Ebbinghaus"	"100000000000"	"1.4000000000"	"1"	"4"
n/a	"html-keyboard-response"	"15"	"86319"	"0.0-4.0-1.0-2.0-0.4"	"f7ytem"	"600"	"1366"	"chrome"	"111.0.0"	"FALSE"	"Windows 10"	"60.32"	"061"	n/a	n/a	n/a	n/a	n/a	n/a	"fixation"	n/a	n/a	n/a	n/a	"NULL"	n/a	"NULL"	"NULL"	"NULL"	"<p style=\"color: black; font-size: 80px; padding-left: 14%; padding-right: 37%; padding-top: 7%; padding-bottom: 42%\">+</p>"	"1336"	n/a	n/a	n/a	n/a	n/a	n/a	n/a	n/a	n/a
n/a	"image-keyboard-response"	"16"	"86844"	"0.0-4.0-1.0-2.0-1.4"	"f7ytem"	"600"	"1366"	"chrome"	"111.0.0"	"FALSE"	"Windows 10"	"60.32"	"061"	n/a	n/a	n/a	n/a	n/a	n/a	"Trial"	n/a	n/a	n/a	"524"	"arrowright"	n/a	"NULL"	"NULL"	"NULL"	"stimuli/Ebbinghaus_1000000_-1.4000.png"	n/a	"Ebbinghaus"	"arrowright"	"1349"	"TRUE"	"Ebbinghaus"	"100000000000"	"-1.400000000"	"1"	"5"
n/a	"html-keyboard-response"	"17"	"88084"	"0.0-4.0-1.0-2.0-0.5"	"f7ytem"	"600"	"1366"	"chrome"	"111.0.0"	"FALSE"	"Windows 10"	"60.32"	"061"	n/a	n/a	n/a	n/a	n/a	n/a	"fixation"	n/a	n/a	n/a	n/a	"NULL"	n/a	"NULL"	"NULL"	"NULL"	"<p style=\"color: black; font-size: 80px; padding-left: 22%; padding-right: 33%; padding-top: 15%; padding-bottom: 6%\">+</p>"	"1227"	n/a	n/a	n/a	n/a	n/a	n/a	n/a	n/a	n/a
n/a	"image-keyboard-response"	"18"	"88604"	"0.0-4.0-1.0-2.0-1.5"	"f7ytem"	"600"	"1366"	"chrome"	"111.0.0"	"FALSE"	"Windows 10"	"60.32"	"061"	n/a	n/a	n/a	n/a	n/a	n/a	"Trial"	n/a	n/a	n/a	"519"	"arrowleft"	n/a	"NULL"	"NULL"	"NULL"	"stimuli/Ebbinghaus_0000000_1.40000.png"	n/a	"Ebbinghaus"	"arrowleft"	"1240"	"TRUE"	"Ebbinghaus"	"000000000000"	"1.4000000000"	"1"	"6"
n/a	"html-button-response"	"19"	"91934"	"0.0-4.0-1.0-3.0"	"f7ytem"	"600"	"1366"	"chrome"	"111.0.0"	"FALSE"	"Windows 10"	"60.32"	"061"	n/a	n/a	n/a	n/a	n/a	n/a	"practice_block_results"	n/a	n/a	n/a	"3325"	"0"	n/a	"NULL"	"NULL"	"NULL"	"<p style='color:rgb(76,175,80);'> Correct Responses: <b>100.00%</b></p><hr><p style='color:rgb(233,30,99);'> Average Response Time: <b>542.83</b> ms.</p>"	n/a	n/a	n/a	n/a	n/a	n/a	n/a	n/a	n/a	n/a
"TRUE"	"preload"	"20"	"92451"	"0.0-4.0-2.0-0.0"	"f7ytem"	"600"	"1366"	"chrome"	"111.0.0"	"FALSE"	"Windows 10"	"60.32"	"061"	n/a	n/a	n/a	n/a	n/a	n/a	n/a	n/a	n/a	n/a	n/a	"NULL"	"FALSE"	"list()"	"list()"	"list()"	n/a	n/a	n/a	n/a	n/a	n/a	n/a	n/a	n/a	n/a	n/a
n/a	"html-keyboard-response"	"21"	"96837"	"0.0-4.0-2.0-1.0"	"f7ytem"	"600"	"1366"	"chrome"	"111.0.0"	"FALSE"	"Windows 10"	"60.32"	"061"	n/a	n/a	n/a	n/a	n/a	n/a	n/a	n/a	n/a	n/a	"4386"	"enter"	n/a	"NULL"	"NULL"	"NULL"	"<p><b>Practice</b></p><p>In this part, two horizontal red lines will appear one above the other.</p><p>Your task is to select which <b>line is longer</b> in length as fast as you can, without making errors.</p><p>Don't get distracted by the surrounding black arrows at the end of the red lines!</p><p>Press <b>the UP or the DOWN arrow</b> to indicate where is the longer <b>red line.</b></p><div style='float: center'><img src='materials/instructions/MullerLyer_Demo.png' height='300'></img><p><img src='utils/answer/answer_updown_keyboard.PNG' height='150'></img></p><p class='small'>In this example, the correct answer is the <b>UP arrow</b>.</p></div><p>Are you ready? <b>Press ENTER to start</b></p>"	n/a	n/a	n/a	n/a	n/a	n/a	n/a	n/a	n/a	n/a
n/a	"html-keyboard-response"	"22"	"98432"	"0.0-4.0-2.0-2.0-0.0"	"f7ytem"	"600"	"1366"	"chrome"	"111.0.0"	"FALSE"	"Windows 10"	"60.32"	"061"	n/a	n/a	n/a	n/a	n/a	n/a	"fixation"	n/a	n/a	n/a	n/a	"NULL"	n/a	"NULL"	"NULL"	"NULL"	"<p style=\"color: black; font-size: 80px; padding-left: 37%; padding-right: 38%; padding-top: 22%; padding-bottom: 5%\">+</p>"	"1072"	n/a	n/a	n/a	n/a	n/a	n/a	n/a	n/a	n/a
n/a	"image-keyboard-response"	"23"	"98808"	"0.0-4.0-2.0-2.0-1.0"	"f7ytem"	"600"	"1366"	"chrome"	"111.0.0"	"FALSE"	"Windows 10"	"60.32"	"061"	n/a	n/a	n/a	n/a	n/a	n/a	"Trial"	n/a	n/a	n/a	"375"	"arrowup"	n/a	"NULL"	"NULL"	"NULL"	"stimuli/MullerLyer_-230000_-0.7000.png"	n/a	"MullerLyer"	"arrowdown"	"1595"	"FALSE"	"MullerLyer"	"-23000000000"	"-0.700000000"	"1"	"7"
n/a	"html-keyboard-response"	"24"	"100131"	"0.0-4.0-2.0-2.0-0.1"	"f7ytem"	"600"	"1366"	"chrome"	"111.0.0"	"FALSE"	"Windows 10"	"60.32"	"061"	n/a	n/a	n/a	n/a	n/a	n/a	"fixation"	n/a	n/a	n/a	n/a	"NULL"	n/a	"NULL"	"NULL"	"NULL"	"<p style=\"color: black; font-size: 80px; padding-left: 48%; padding-right: 2%; padding-top: 1%; padding-bottom: 8%\">+</p>"	"1310"	n/a	n/a	n/a	n/a	n/a	n/a	n/a	n/a	n/a
n/a	"image-keyboard-response"	"25"	"100661"	"0.0-4.0-2.0-2.0-1.1"	"f7ytem"	"600"	"1366"	"chrome"	"111.0.0"	"FALSE"	"Windows 10"	"60.32"	"061"	n/a	n/a	n/a	n/a	n/a	n/a	"Trial"	n/a	n/a	n/a	"530"	"arrowup"	n/a	"NULL"	"NULL"	"NULL"	"stimuli/MullerLyer_-230000_0.70000.png"	n/a	"MullerLyer"	"arrowup"	"1323"	"TRUE"	"MullerLyer"	"-23000000000"	"0.7000000000"	"1"	"8"
n/a	"html-keyboard-response"	"26"	"101735"	"0.0-4.0-2.0-2.0-0.2"	"f7ytem"	"600"	"1366"	"chrome"	"111.0.0"	"FALSE"	"Windows 10"	"60.32"	"061"	n/a	n/a	n/a	n/a	n/a	n/a	"fixation"	n/a	n/a	n/a	n/a	"NULL"	n/a	"NULL"	"NULL"	"NULL"	"<p style=\"color: black; font-size: 80px; padding-left: 20%; padding-right: 13%; padding-top: 18%; padding-bottom: 29%\">+</p>"	"1063"	n/a	n/a	n/a	n/a	n/a	n/a	n/a	n/a	n/a
n/a	"image-keyboard-response"	"27"	"102427"	"0.0-4.0-2.0-2.0-1.2"	"f7ytem"	"600"	"1366"	"chrome"	"111.0.0"	"FALSE"	"Windows 10"	"60.32"	"061"	n/a	n/a	n/a	n/a	n/a	n/a	"Trial"	n/a	n/a	n/a	"691"	"arrowdown"	n/a	"NULL"	"NULL"	"NULL"	"stimuli/MullerLyer_2300000_-0.7000.png"	n/a	"MullerLyer"	"arrowdown"	"1074"	"TRUE"	"MullerLyer"	"230000000000"	"-0.700000000"	"1"	"9"
n/a	"html-keyboard-response"	"28"	"103543"	"0.0-4.0-2.0-2.0-0.3"	"f7ytem"	"600"	"1366"	"chrome"	"111.0.0"	"FALSE"	"Windows 10"	"60.32"	"061"	n/a	n/a	n/a	n/a	n/a	n/a	"fixation"	n/a	n/a	n/a	n/a	"NULL"	n/a	"NULL"	"NULL"	"NULL"	"<p style=\"color: black; font-size: 80px; padding-left: 29%; padding-right: 45%; padding-top: 7%; padding-bottom: 11%\">+</p>"	"1100"	n/a	n/a	n/a	n/a	n/a	n/a	n/a	n/a	n/a
n/a	"image-keyboard-response"	"29"	"104056"	"0.0-4.0-2.0-2.0-1.3"	"f7ytem"	"600"	"1366"	"chrome"	"111.0.0"	"FALSE"	"Windows 10"	"60.32"	"061"	n/a	n/a	n/a	n/a	n/a	n/a	"Trial"	n/a	n/a	n/a	"513"	"arrowdown"	n/a	"NULL"	"NULL"	"NULL"	"stimuli/MullerLyer_0000000_-0.7000.png"	n/a	"MullerLyer"	"arrowdown"	"1116"	"TRUE"	"MullerLyer"	"000000000000"	"-0.700000000"	"1"	"10"
n/a	"html-keyboard-response"	"30"	"105224"	"0.0-4.0-2.0-2.0-0.4"	"f7ytem"	"600"	"1366"	"chrome"	"111.0.0"	"FALSE"	"Windows 10"	"60.32"	"061"	n/a	n/a	n/a	n/a	n/a	n/a	"fixation"	n/a	n/a	n/a	n/a	"NULL"	n/a	"NULL"	"NULL"	"NULL"	"<p style=\"color: black; font-size: 80px; padding-left: 3%; padding-right: 43%; padding-top: 16%; padding-bottom: 23%\">+</p>"	"1156"	n/a	n/a	n/a	n/a	n/a	n/a	n/a	n/a	n/a
n/a	"image-keyboard-response"	"31"	"105730"	"0.0-4.0-2.0-2.0-1.4"	"f7ytem"	"600"	"1366"	"chrome"	"111.0.0"	"FALSE"	"Windows 10"	"60.32"	"061"	n/a	n/a	n/a	n/a	n/a	n/a	"Trial"	n/a	n/a	n/a	"505"	"arrowup"	n/a	"NULL"	"NULL"	"NULL"	"stimuli/MullerLyer_0000000_0.70000.png"	n/a	"MullerLyer"	"arrowup"	"1168"	"TRUE"	"MullerLyer"	"000000000000"	"0.7000000000"	"1"	"11"
n/a	"html-keyboard-response"	"32"	"107159"	"0.0-4.0-2.0-2.0-0.5"	"f7ytem"	"600"	"1366"	"chrome"	"111.0.0"	"FALSE"	"Windows 10"	"60.32"	"061"	n/a	n/a	n/a	n/a	n/a	n/a	"fixation"	n/a	n/a	n/a	n/a	"NULL"	n/a	"NULL"	"NULL"	"NULL"	"<p style=\"color: black; font-size: 80px; padding-left: 3%; padding-right: 37%; padding-top: 13%; padding-bottom: 40%\">+</p>"	"1427"	n/a	n/a	n/a	n/a	n/a	n/a	n/a	n/a	n/a
n/a	"image-keyboard-response"	"33"	"107840"	"0.0-4.0-2.0-2.0-1.5"	"f7ytem"	"600"	"1366"	"chrome"	"111.0.0"	"FALSE"	"Windows 10"	"60.32"	"061"	n/a	n/a	n/a	n/a	n/a	n/a	"Trial"	n/a	n/a	n/a	"680"	"arrowup"	n/a	"NULL"	"NULL"	"NULL"	"stimuli/MullerLyer_2300000_0.70000.png"	n/a	"MullerLyer"	"arrowup"	"1429"	"TRUE"	"MullerLyer"	"230000000000"	"0.7000000000"	"1"	"12"
n/a	"html-button-response"	"34"	"111470"	"0.0-4.0-2.0-3.0"	"f7ytem"	"600"	"1366"	"chrome"	"111.0.0"	"FALSE"	"Windows 10"	"60.32"	"061"	n/a	n/a	n/a	n/a	n/a	n/a	"practice_block_results"	n/a	n/a	n/a	"3628"	"0"	n/a	"NULL"	"NULL"	"NULL"	"<p style='color:rgb(76,175,80);'> Correct Responses: <b>83.33%</b></p><hr><p style='color:rgb(233,30,99);'> Average Response Time: <b>549.00</b> ms.</p>"	n/a	n/a	n/a	n/a	n/a	n/a	n/a	n/a	n/a	n/a
"TRUE"	"preload"	"35"	"111987"	"0.0-4.0-3.0-0.0"	"f7ytem"	"600"	"1366"	"chrome"	"111.0.0"	"FALSE"	"Windows 10"	"60.32"	"061"	n/a	n/a	n/a	n/a	n/a	n/a	n/a	n/a	n/a	n/a	n/a	"NULL"	"FALSE"	"list()"	"list()"	"list()"	n/a	n/a	n/a	n/a	n/a	n/a	n/a	n/a	n/a	n/a	n/a
n/a	"html-keyboard-response"	"36"	"118761"	"0.0-4.0-3.0-1.0"	"f7ytem"	"600"	"1366"	"chrome"	"111.0.0"	"FALSE"	"Windows 10"	"60.32"	"061"	n/a	n/a	n/a	n/a	n/a	n/a	n/a	n/a	n/a	n/a	"6773"	"enter"	n/a	"NULL"	"NULL"	"NULL"	"<p><b>Practice</b></p><p>In this part, two red lines will appear side by side.</p><p>Your task is to tell <b>which line is longer</b> in length, regardless of their orientation, as fast as you can, and without making errors.</p><p>Don't get distracted by the orientation of the lines!</p><p>Press <b>the LEFT or the RIGHT arrow</b> to indicate which <b>line is the longer one.</b></p><div style='float: center'><img src='materials/instructions/VerticalHorizontal_Demo.png' height='300'></img><p><img src='utils/answer/answer_leftright_keyboard.PNG' height='150'></img></p><p class='small'>In this example, the correct answer is the <b>LEFT arrow</b>.</p></div><p>Are you ready? <b>Press ENTER to start</b></p>"	n/a	n/a	n/a	n/a	n/a	n/a	n/a	n/a	n/a	n/a
n/a	"html-keyboard-response"	"37"	"120710"	"0.0-4.0-3.0-2.0-0.0"	"f7ytem"	"600"	"1366"	"chrome"	"111.0.0"	"FALSE"	"Windows 10"	"60.32"	"061"	n/a	n/a	n/a	n/a	n/a	n/a	"fixation"	n/a	n/a	n/a	n/a	"NULL"	n/a	"NULL"	"NULL"	"NULL"	"<p style=\"color: black; font-size: 80px; padding-left: 38%; padding-right: 0%; padding-top: 48%; padding-bottom: 31%\">+</p>"	"1435"	n/a	n/a	n/a	n/a	n/a	n/a	n/a	n/a	n/a
n/a	"image-keyboard-response"	"38"	"121144"	"0.0-4.0-3.0-2.0-1.0"	"f7ytem"	"600"	"1366"	"chrome"	"111.0.0"	"FALSE"	"Windows 10"	"60.32"	"061"	n/a	n/a	n/a	n/a	n/a	n/a	"Trial"	n/a	n/a	n/a	"434"	"arrowright"	n/a	"NULL"	"NULL"	"NULL"	"stimuli/VerticalHorizontal_-330000_-0.9000.png"	n/a	"VerticalHorizontal"	"arrowright"	"1949"	"TRUE"	"VerticalHorizontal"	"-33000000000"	"-0.900000000"	"1"	"13"
n/a	"html-keyboard-response"	"39"	"122472"	"0.0-4.0-3.0-2.0-0.1"	"f7ytem"	"600"	"1366"	"chrome"	"111.0.0"	"FALSE"	"Windows 10"	"60.32"	"061"	n/a	n/a	n/a	n/a	n/a	n/a	"fixation"	n/a	n/a	n/a	n/a	"NULL"	n/a	"NULL"	"NULL"	"NULL"	"<p style=\"color: black; font-size: 80px; padding-left: 28%; padding-right: 41%; padding-top: 43%; padding-bottom: 35%\">+</p>"	"1322"	n/a	n/a	n/a	n/a	n/a	n/a	n/a	n/a	n/a
n/a	"image-keyboard-response"	"40"	"122822"	"0.0-4.0-3.0-2.0-1.1"	"f7ytem"	"600"	"1366"	"chrome"	"111.0.0"	"FALSE"	"Windows 10"	"60.32"	"061"	n/a	n/a	n/a	n/a	n/a	n/a	"Trial"	n/a	n/a	n/a	"349"	"arrowleft"	n/a	"NULL"	"NULL"	"NULL"	"stimuli/VerticalHorizontal_3300000_-0.9000.png"	n/a	"VerticalHorizontal"	"arrowright"	"1328"	"FALSE"	"VerticalHorizontal"	"330000000000"	"-0.900000000"	"1"	"14"
n/a	"html-keyboard-response"	"41"	"123892"	"0.0-4.0-3.0-2.0-0.2"	"f7ytem"	"600"	"1366"	"chrome"	"111.0.0"	"FALSE"	"Windows 10"	"60.32"	"061"	n/a	n/a	n/a	n/a	n/a	n/a	"fixation"	n/a	n/a	n/a	n/a	"NULL"	n/a	"NULL"	"NULL"	"NULL"	"<p style=\"color: black; font-size: 80px; padding-left: 9%; padding-right: 12%; padding-top: 34%; padding-bottom: 9%\">+</p>"	"1060"	n/a	n/a	n/a	n/a	n/a	n/a	n/a	n/a	n/a
n/a	"image-keyboard-response"	"42"	"124343"	"0.0-4.0-3.0-2.0-1.2"	"f7ytem"	"600"	"1366"	"chrome"	"111.0.0"	"FALSE"	"Windows 10"	"60.32"	"061"	n/a	n/a	n/a	n/a	n/a	n/a	"Trial"	n/a	n/a	n/a	"450"	"arrowleft"	n/a	"NULL"	"NULL"	"NULL"	"stimuli/VerticalHorizontal_0000000_0.90000.png"	n/a	"VerticalHorizontal"	"arrowleft"	"1070"	"TRUE"	"VerticalHorizontal"	"000000000000"	"0.9000000000"	"1"	"15"
n/a	"html-keyboard-response"	"43"	"125852"	"0.0-4.0-3.0-2.0-0.3"	"f7ytem"	"600"	"1366"	"chrome"	"111.0.0"	"FALSE"	"Windows 10"	"60.32"	"061"	n/a	n/a	n/a	n/a	n/a	n/a	"fixation"	n/a	n/a	n/a	n/a	"NULL"	n/a	"NULL"	"NULL"	"NULL"	"<p style=\"color: black; font-size: 80px; padding-left: 38%; padding-right: 14%; padding-top: 44%; padding-bottom: 35%\">+</p>"	"1492"	n/a	n/a	n/a	n/a	n/a	n/a	n/a	n/a	n/a
n/a	"image-keyboard-response"	"44"	"126324"	"0.0-4.0-3.0-2.0-1.3"	"f7ytem"	"600"	"1366"	"chrome"	"111.0.0"	"FALSE"	"Windows 10"	"60.32"	"061"	n/a	n/a	n/a	n/a	n/a	n/a	"Trial"	n/a	n/a	n/a	"472"	"arrowleft"	n/a	"NULL"	"NULL"	"NULL"	"stimuli/VerticalHorizontal_-330000_0.90000.png"	n/a	"VerticalHorizontal"	"arrowleft"	"1509"	"TRUE"	"VerticalHorizontal"	"-33000000000"	"0.9000000000"	"1"	"16"
n/a	"html-keyboard-response"	"45"	"127647"	"0.0-4.0-3.0-2.0-0.4"	"f7ytem"	"600"	"1366"	"chrome"	"111.0.0"	"FALSE"	"Windows 10"	"60.32"	"061"	n/a	n/a	n/a	n/a	n/a	n/a	"fixation"	n/a	n/a	n/a	n/a	"NULL"	n/a	"NULL"	"NULL"	"NULL"	"<p style=\"color: black; font-size: 80px; padding-left: 42%; padding-right: 12%; padding-top: 4%; padding-bottom: 31%\">+</p>"	"1322"	n/a	n/a	n/a	n/a	n/a	n/a	n/a	n/a	n/a
n/a	"image-keyboard-response"	"46"	"128011"	"0.0-4.0-3.0-2.0-1.4"	"f7ytem"	"600"	"1366"	"chrome"	"111.0.0"	"FALSE"	"Windows 10"	"60.32"	"061"	n/a	n/a	n/a	n/a	n/a	n/a	"Trial"	n/a	n/a	n/a	"363"	"arrowright"	n/a	"NULL"	"NULL"	"NULL"	"stimuli/VerticalHorizontal_0000000_-0.9000.png"	n/a	"VerticalHorizontal"	"arrowright"	"1323"	"TRUE"	"VerticalHorizontal"	"000000000000"	"-0.900000000"	"1"	"17"
n/a	"html-keyboard-response"	"47"	"129203"	"0.0-4.0-3.0-2.0-0.5"	"f7ytem"	"600"	"1366"	"chrome"	"111.0.0"	"FALSE"	"Windows 10"	"60.32"	"061"	n/a	n/a	n/a	n/a	n/a	n/a	"fixation"	n/a	n/a	n/a	n/a	"NULL"	n/a	"NULL"	"NULL"	"NULL"	"<p style=\"color: black; font-size: 80px; padding-left: 20%; padding-right: 4%; padding-top: 50%; padding-bottom: 7%\">+</p>"	"1183"	n/a	n/a	n/a	n/a	n/a	n/a	n/a	n/a	n/a
n/a	"image-keyboard-response"	"48"	"129621"	"0.0-4.0-3.0-2.0-1.5"	"f7ytem"	"600"	"1366"	"chrome"	"111.0.0"	"FALSE"	"Windows 10"	"60.32"	"061"	n/a	n/a	n/a	n/a	n/a	n/a	"Trial"	n/a	n/a	n/a	"418"	"arrowleft"	n/a	"NULL"	"NULL"	"NULL"	"stimuli/VerticalHorizontal_3300000_0.90000.png"	n/a	"VerticalHorizontal"	"arrowleft"	"1192"	"TRUE"	"VerticalHorizontal"	"330000000000"	"0.9000000000"	"1"	"18"
n/a	"html-button-response"	"49"	"131823"	"0.0-4.0-3.0-3.0"	"f7ytem"	"600"	"1366"	"chrome"	"111.0.0"	"FALSE"	"Windows 10"	"60.32"	"061"	n/a	n/a	n/a	n/a	n/a	n/a	"practice_block_results"	n/a	n/a	n/a	"2201"	"0"	n/a	"NULL"	"NULL"	"NULL"	"<p style='color:rgb(76,175,80);'> Correct Responses: <b>83.33%</b></p><hr><p style='color:rgb(233,30,99);'> Average Response Time: <b>414.33</b> ms.</p>"	n/a	n/a	n/a	n/a	n/a	n/a	n/a	n/a	n/a	n/a
n/a	"html-button-response"	"50"	"200438"	"0.0-4.0-4.0"	"f7ytem"	"600"	"1366"	"chrome"	"111.0.0"	"FALSE"	"Windows 10"	"60.32"	"061"	n/a	n/a	n/a	n/a	n/a	n/a	"practice_debrief"	n/a	n/a	n/a	"68100"	"0"	n/a	"NULL"	"NULL"	"NULL"	"<p><b>TRAINING COMPLETED</b></p><p>In the next phase, there will be more trials, and some might be harder too.<br> Moreover, after each illusion block, a <b>score</b> will be calculated based on speed (time you took to answer) and accuracy (number of errors).</p><p>Try to keep up a high score!</p><br><p>Note that it can be <i>really</i> challenging at times, so you will need to rely on your <b>intuition</b> and gut feeling to answer as fast as you can without making errors.</p><p>Each illusion block will be repeated two times (so that you have the opportunity to improve your score), but the order of the blocks is random.</p><p>Remember, your goal is to be as <b>fast</b> and <b>accurate</b> as possible. Good luck!</p><br>"	n/a	n/a	n/a	n/a	n/a	n/a	n/a	n/a	n/a	n/a
"TRUE"	"preload"	"51"	"200586"	"0.0-5.0-0.0"	"f7ytem"	"600"	"1366"	"chrome"	"111.0.0"	"FALSE"	"Windows 10"	"60.32"	"061"	n/a	n/a	n/a	n/a	n/a	n/a	n/a	n/a	n/a	n/a	n/a	"NULL"	"FALSE"	"list()"	"list()"	"list()"	n/a	n/a	n/a	n/a	n/a	n/a	n/a	n/a	n/a	n/a	n/a
n/a	"html-keyboard-response"	"52"	"205065"	"0.0-5.0-1.0"	"f7ytem"	"600"	"1366"	"chrome"	"111.0.0"	"FALSE"	"Windows 10"	"60.32"	"061"	n/a	n/a	n/a	n/a	n/a	n/a	n/a	n/a	n/a	n/a	"4477"	"enter"	n/a	"NULL"	"NULL"	"NULL"	"<p><b>Part 1/6</b></p><p>In this part, two red circles will appear side by side on the screen.</p><p>Your task is to select which <b>red circle is bigger</b> in size as fast as you can, without making errors.</p><p>Don't get distracted by the surrounding black circles around the red circles!</p><p>Press <b>the LEFT or the RIGHT arrow</b> to indicate which is the bigger <b>red circle.</b></p><div style='float: center'><img src='materials/instructions/Ebbinghaus_Demo.png' height='300'></img><p><img src='utils/answer/answer_leftright_keyboard.PNG' height='150'></img></p><p class='small'>In this example, the correct answer is the <b>LEFT arrow</b>.</p></div><p>Are you ready? <b>Press ENTER to start</b></p>"	n/a	n/a	n/a	n/a	n/a	n/a	n/a	n/a	n/a	n/a
n/a	"html-keyboard-response"	"53"	"206976"	"0.0-5.0-2.0-0.0"	"f7ytem"	"600"	"1366"	"chrome"	"111.0.0"	"FALSE"	"Windows 10"	"60.32"	"061"	n/a	n/a	n/a	n/a	n/a	n/a	"fixation"	n/a	n/a	n/a	n/a	"NULL"	n/a	"NULL"	"NULL"	"NULL"	"<p style=\"color: black; font-size: 80px; padding-left: 20%; padding-right: 21%; padding-top: 40%; padding-bottom: 27%\">+</p>"	"1398"	n/a	n/a	n/a	n/a	n/a	n/a	n/a	n/a	n/a
n/a	"image-keyboard-response"	"54"	"207484"	"0.0-5.0-2.0-1.0"	"f7ytem"	"600"	"1366"	"chrome"	"111.0.0"	"FALSE"	"Windows 10"	"60.32"	"061"	n/a	n/a	n/a	n/a	n/a	n/a	"Trial"	n/a	n/a	n/a	"507"	"arrowright"	n/a	"NULL"	"NULL"	"NULL"	"stimuli/Ebbinghaus_-0.61429_0.28000.png"	n/a	"Ebbinghaus"	"arrowleft"	"1911"	"FALSE"	"Ebbinghaus"	"-0.614290000"	"0.2800000000"	"1"	"19"
n/a	"html-keyboard-response"	"55"	"208581"	"0.0-5.0-2.0-0.1"	"f7ytem"	"600"	"1366"	"chrome"	"111.0.0"	"FALSE"	"Windows 10"	"60.32"	"061"	n/a	n/a	n/a	n/a	n/a	n/a	"fixation"	n/a	n/a	n/a	n/a	"NULL"	n/a	"NULL"	"NULL"	"NULL"	"<p style=\"color: black; font-size: 80px; padding-left: 24%; padding-right: 24%; padding-top: 38%; padding-bottom: 0%\">+</p>"	"1080"	n/a	n/a	n/a	n/a	n/a	n/a	n/a	n/a	n/a
n/a	"image-keyboard-response"	"56"	"209284"	"0.0-5.0-2.0-1.1"	"f7ytem"	"600"	"1366"	"chrome"	"111.0.0"	"FALSE"	"Windows 10"	"60.32"	"061"	n/a	n/a	n/a	n/a	n/a	n/a	"Trial"	n/a	n/a	n/a	"702"	"arrowleft"	n/a	"NULL"	"NULL"	"NULL"	"stimuli/Ebbinghaus_-0.87143_0.28000.png"	n/a	"Ebbinghaus"	"arrowleft"	"1097"	"TRUE"	"Ebbinghaus"	"-0.871430000"	"0.2800000000"	"1"	"20"
n/a	"html-keyboard-response"	"57"	"210707"	"0.0-5.0-2.0-0.2"	"f7ytem"	"600"	"1366"	"chrome"	"111.0.0"	"FALSE"	"Windows 10"	"60.32"	"061"	n/a	n/a	n/a	n/a	n/a	n/a	"fixation"	n/a	n/a	n/a	n/a	"NULL"	n/a	"NULL"	"NULL"	"NULL"	"<p style=\"color: black; font-size: 80px; padding-left: 47%; padding-right: 45%; padding-top: 6%; padding-bottom: 42%\">+</p>"	"1417"	n/a	n/a	n/a	n/a	n/a	n/a	n/a	n/a	n/a
n/a	"image-keyboard-response"	"58"	"211352"	"0.0-5.0-2.0-1.2"	"f7ytem"	"600"	"1366"	"chrome"	"111.0.0"	"FALSE"	"Windows 10"	"60.32"	"061"	n/a	n/a	n/a	n/a	n/a	n/a	"Trial"	n/a	n/a	n/a	"645"	"arrowright"	n/a	"NULL"	"NULL"	"NULL"	"stimuli/Ebbinghaus_-0.61429_-0.15857.png"	n/a	"Ebbinghaus"	"arrowright"	"1423"	"TRUE"	"Ebbinghaus"	"-0.614290000"	"-0.158570000"	"1"	"21"
n/a	"html-keyboard-response"	"59"	"212548"	"0.0-5.0-2.0-0.3"	"f7ytem"	"600"	"1366"	"chrome"	"111.0.0"	"FALSE"	"Windows 10"	"60.32"	"061"	n/a	n/a	n/a	n/a	n/a	n/a	"fixation"	n/a	n/a	n/a	n/a	"NULL"	n/a	"NULL"	"NULL"	"NULL"	"<p style=\"color: black; font-size: 80px; padding-left: 32%; padding-right: 9%; padding-top: 45%; padding-bottom: 35%\">+</p>"	"1192"	n/a	n/a	n/a	n/a	n/a	n/a	n/a	n/a	n/a
n/a	"image-keyboard-response"	"60"	"213092"	"0.0-5.0-2.0-1.3"	"f7ytem"	"600"	"1366"	"chrome"	"111.0.0"	"FALSE"	"Windows 10"	"60.32"	"061"	n/a	n/a	n/a	n/a	n/a	n/a	"Trial"	n/a	n/a	n/a	"543"	"arrowright"	n/a	"NULL"	"NULL"	"NULL"	"stimuli/Ebbinghaus_0.35714_-0.2150.png"	n/a	"Ebbinghaus"	"arrowright"	"1196"	"TRUE"	"Ebbinghaus"	"0.3571400000"	"-0.215000000"	"1"	"22"
n/a	"html-keyboard-response"	"61"	"214254"	"0.0-5.0-2.0-0.4"	"f7ytem"	"600"	"1366"	"chrome"	"111.0.0"	"FALSE"	"Windows 10"	"60.32"	"061"	n/a	n/a	n/a	n/a	n/a	n/a	"fixation"	n/a	n/a	n/a	n/a	"NULL"	n/a	"NULL"	"NULL"	"NULL"	"<p style=\"color: black; font-size: 80px; padding-left: 11%; padding-right: 49%; padding-top: 2%; padding-bottom: 26%\">+</p>"	"1154"	n/a	n/a	n/a	n/a	n/a	n/a	n/a	n/a	n/a
n/a	"image-keyboard-response"	"62"	"214753"	"0.0-5.0-2.0-1.4"	"f7ytem"	"600"	"1366"	"chrome"	"111.0.0"	"FALSE"	"Windows 10"	"60.32"	"061"	n/a	n/a	n/a	n/a	n/a	n/a	"Trial"	n/a	n/a	n/a	"498"	"arrowleft"	n/a	"NULL"	"NULL"	"NULL"	"stimuli/Ebbinghaus_-0.87143_0.21500.png"	n/a	"Ebbinghaus"	"arrowleft"	"1162"	"TRUE"	"Ebbinghaus"	"-0.871430000"	"0.2150000000"	"1"	"23"
n/a	"html-keyboard-response"	"63"	"215972"	"0.0-5.0-2.0-0.5"	"f7ytem"	"600"	"1366"	"chrome"	"111.0.0"	"FALSE"	"Windows 10"	"60.32"	"061"	n/a	n/a	n/a	n/a	n/a	n/a	"fixation"	n/a	n/a	n/a	n/a	"NULL"	n/a	"NULL"	"NULL"	"NULL"	"<p style=\"color: black; font-size: 80px; padding-left: 46%; padding-right: 27%; padding-top: 5%; padding-bottom: 43%\">+</p>"	"1209"	n/a	n/a	n/a	n/a	n/a	n/a	n/a	n/a	n/a
n/a	"image-keyboard-response"	"64"	"216479"	"0.0-5.0-2.0-1.5"	"f7ytem"	"600"	"1366"	"chrome"	"111.0.0"	"FALSE"	"Windows 10"	"60.32"	"061"	n/a	n/a	n/a	n/a	n/a	n/a	"Trial"	n/a	n/a	n/a	"507"	"arrowright"	n/a	"NULL"	"NULL"	"NULL"	"stimuli/Ebbinghaus_0.35714_-0.15857.png"	n/a	"Ebbinghaus"	"arrowright"	"1219"	"TRUE"	"Ebbinghaus"	"0.3571400000"	"-0.158570000"	"1"	"24"
n/a	"html-keyboard-response"	"65"	"217833"	"0.0-5.0-2.0-0.6"	"f7ytem"	"600"	"1366"	"chrome"	"111.0.0"	"FALSE"	"Windows 10"	"60.32"	"061"	n/a	n/a	n/a	n/a	n/a	n/a	"fixation"	n/a	n/a	n/a	n/a	"NULL"	n/a	"NULL"	"NULL"	"NULL"	"<p style=\"color: black; font-size: 80px; padding-left: 15%; padding-right: 22%; padding-top: 13%; padding-bottom: 18%\">+</p>"	"1353"	n/a	n/a	n/a	n/a	n/a	n/a	n/a	n/a	n/a
n/a	"image-keyboard-response"	"66"	"218374"	"0.0-5.0-2.0-1.6"	"f7ytem"	"600"	"1366"	"chrome"	"111.0.0"	"FALSE"	"Windows 10"	"60.32"	"061"	n/a	n/a	n/a	n/a	n/a	n/a	"Trial"	n/a	n/a	n/a	"540"	"arrowright"	n/a	"NULL"	"NULL"	"NULL"	"stimuli/Ebbinghaus_0.87143_-0.2800.png"	n/a	"Ebbinghaus"	"arrowright"	"1354"	"TRUE"	"Ebbinghaus"	"0.8714300000"	"-0.280000000"	"1"	"25"
n/a	"html-keyboard-response"	"67"	"219508"	"0.0-5.0-2.0-0.7"	"f7ytem"	"600"	"1366"	"chrome"	"111.0.0"	"FALSE"	"Windows 10"	"60.32"	"061"	n/a	n/a	n/a	n/a	n/a	n/a	"fixation"	n/a	n/a	n/a	n/a	"NULL"	n/a	"NULL"	"NULL"	"NULL"	"<p style=\"color: black; font-size: 80px; padding-left: 12%; padding-right: 15%; padding-top: 26%; padding-bottom: 36%\">+</p>"	"1118"	n/a	n/a	n/a	n/a	n/a	n/a	n/a	n/a	n/a
n/a	"image-keyboard-response"	"68"	"219995"	"0.0-5.0-2.0-1.7"	"f7ytem"	"600"	"1366"	"chrome"	"111.0.0"	"FALSE"	"Windows 10"	"60.32"	"061"	n/a	n/a	n/a	n/a	n/a	n/a	"Trial"	n/a	n/a	n/a	"486"	"arrowleft"	n/a	"NULL"	"NULL"	"NULL"	"stimuli/Ebbinghaus_0.87143_0.28000.png"	n/a	"Ebbinghaus"	"arrowleft"	"1134"	"TRUE"	"Ebbinghaus"	"0.8714300000"	"0.2800000000"	"1"	"26"
n/a	"html-keyboard-response"	"69"	"221055"	"0.0-5.0-2.0-0.8"	"f7ytem"	"600"	"1366"	"chrome"	"111.0.0"	"FALSE"	"Windows 10"	"60.32"	"061"	n/a	n/a	n/a	n/a	n/a	n/a	"fixation"	n/a	n/a	n/a	n/a	"NULL"	n/a	"NULL"	"NULL"	"NULL"	"<p style=\"color: black; font-size: 80px; padding-left: 45%; padding-right: 21%; padding-top: 35%; padding-bottom: 30%\">+</p>"	"1048"	n/a	n/a	n/a	n/a	n/a	n/a	n/a	n/a	n/a
n/a	"image-keyboard-response"	"70"	"221737"	"0.0-5.0-2.0-1.8"	"f7ytem"	"600"	"1366"	"chrome"	"111.0.0"	"FALSE"	"Windows 10"	"60.32"	"061"	n/a	n/a	n/a	n/a	n/a	n/a	"Trial"	n/a	n/a	n/a	"682"	"arrowleft"	n/a	"NULL"	"NULL"	"NULL"	"stimuli/Ebbinghaus_0.87143_0.15857.png"	n/a	"Ebbinghaus"	"arrowleft"	"1060"	"TRUE"	"Ebbinghaus"	"0.8714300000"	"0.1585700000"	"1"	"27"
n/a	"html-keyboard-response"	"71"	"222895"	"0.0-5.0-2.0-0.9"	"f7ytem"	"600"	"1366"	"chrome"	"111.0.0"	"FALSE"	"Windows 10"	"60.32"	"061"	n/a	n/a	n/a	n/a	n/a	n/a	"fixation"	n/a	n/a	n/a	n/a	"NULL"	n/a	"NULL"	"NULL"	"NULL"	"<p style=\"color: black; font-size: 80px; padding-left: 1%; padding-right: 31%; padding-top: 33%; padding-bottom: 27%\">+</p>"	"1145"	n/a	n/a	n/a	n/a	n/a	n/a	n/a	n/a	n/a
n/a	"image-keyboard-response"	"72"	"223432"	"0.0-5.0-2.0-1.9"	"f7ytem"	"600"	"1366"	"chrome"	"111.0.0"	"FALSE"	"Windows 10"	"60.32"	"061"	n/a	n/a	n/a	n/a	n/a	n/a	"Trial"	n/a	n/a	n/a	"536"	"arrowright"	n/a	"NULL"	"NULL"	"NULL"	"stimuli/Ebbinghaus_0.61429_0.15857.png"	n/a	"Ebbinghaus"	"arrowleft"	"1158"	"FALSE"	"Ebbinghaus"	"0.6142900000"	"0.1585700000"	"1"	"28"
n/a	"html-keyboard-response"	"73"	"224788"	"0.0-5.0-2.0-0.10"	"f7ytem"	"600"	"1366"	"chrome"	"111.0.0"	"FALSE"	"Windows 10"	"60.32"	"061"	n/a	n/a	n/a	n/a	n/a	n/a	"fixation"	n/a	n/a	n/a	n/a	"NULL"	n/a	"NULL"	"NULL"	"NULL"	"<p style=\"color: black; font-size: 80px; padding-left: 22%; padding-right: 3%; padding-top: 30%; padding-bottom: 13%\">+</p>"	"1345"	n/a	n/a	n/a	n/a	n/a	n/a	n/a	n/a	n/a
n/a	"image-keyboard-response"	"74"	"225487"	"0.0-5.0-2.0-1.10"	"f7ytem"	"600"	"1366"	"chrome"	"111.0.0"	"FALSE"	"Windows 10"	"60.32"	"061"	n/a	n/a	n/a	n/a	n/a	n/a	"Trial"	n/a	n/a	n/a	"699"	"arrowright"	n/a	"NULL"	"NULL"	"NULL"	"stimuli/Ebbinghaus_-0.1000_-0.2800.png"	n/a	"Ebbinghaus"	"arrowright"	"1356"	"TRUE"	"Ebbinghaus"	"-0.100000000"	"-0.280000000"	"1"	"29"
n/a	"html-keyboard-response"	"75"	"226903"	"0.0-5.0-2.0-0.11"	"f7ytem"	"600"	"1366"	"chrome"	"111.0.0"	"FALSE"	"Windows 10"	"60.32"	"061"	n/a	n/a	n/a	n/a	n/a	n/a	"fixation"	n/a	n/a	n/a	n/a	"NULL"	n/a	"NULL"	"NULL"	"NULL"	"<p style=\"color: black; font-size: 80px; padding-left: 30%; padding-right: 42%; padding-top: 44%; padding-bottom: 43%\">+</p>"	"1409"	n/a	n/a	n/a	n/a	n/a	n/a	n/a	n/a	n/a
n/a	"image-keyboard-response"	"76"	"227428"	"0.0-5.0-2.0-1.11"	"f7ytem"	"600"	"1366"	"chrome"	"111.0.0"	"FALSE"	"Windows 10"	"60.32"	"061"	n/a	n/a	n/a	n/a	n/a	n/a	"Trial"	n/a	n/a	n/a	"525"	"arrowright"	n/a	"NULL"	"NULL"	"NULL"	"stimuli/Ebbinghaus_-0.1000_0.15857.png"	n/a	"Ebbinghaus"	"arrowleft"	"1416"	"FALSE"	"Ebbinghaus"	"-0.100000000"	"0.1585700000"	"1"	"30"
n/a	"html-keyboard-response"	"77"	"228744"	"0.0-5.0-2.0-0.12"	"f7ytem"	"600"	"1366"	"chrome"	"111.0.0"	"FALSE"	"Windows 10"	"60.32"	"061"	n/a	n/a	n/a	n/a	n/a	n/a	"fixation"	n/a	n/a	n/a	n/a	"NULL"	n/a	"NULL"	"NULL"	"NULL"	"<p style=\"color: black; font-size: 80px; padding-left: 10%; padding-right: 46%; padding-top: 32%; padding-bottom: 47%\">+</p>"	"1313"	n/a	n/a	n/a	n/a	n/a	n/a	n/a	n/a	n/a
n/a	"image-keyboard-response"	"78"	"229252"	"0.0-5.0-2.0-1.12"	"f7ytem"	"600"	"1366"	"chrome"	"111.0.0"	"FALSE"	"Windows 10"	"60.32"	"061"	n/a	n/a	n/a	n/a	n/a	n/a	"Trial"	n/a	n/a	n/a	"507"	"arrowleft"	n/a	"NULL"	"NULL"	"NULL"	"stimuli/Ebbinghaus_-0.87143_-0.15857.png"	n/a	"Ebbinghaus"	"arrowright"	"1316"	"FALSE"	"Ebbinghaus"	"-0.871430000"	"-0.158570000"	"1"	"31"
n/a	"html-keyboard-response"	"79"	"230605"	"0.0-5.0-2.0-0.13"	"f7ytem"	"600"	"1366"	"chrome"	"111.0.0"	"FALSE"	"Windows 10"	"60.32"	"061"	n/a	n/a	n/a	n/a	n/a	n/a	"fixation"	n/a	n/a	n/a	n/a	"NULL"	n/a	"NULL"	"NULL"	"NULL"	"<p style=\"color: black; font-size: 80px; padding-left: 25%; padding-right: 11%; padding-top: 29%; padding-bottom: 42%\">+</p>"	"1352"	n/a	n/a	n/a	n/a	n/a	n/a	n/a	n/a	n/a
n/a	"image-keyboard-response"	"80"	"231161"	"0.0-5.0-2.0-1.13"	"f7ytem"	"600"	"1366"	"chrome"	"111.0.0"	"FALSE"	"Windows 10"	"60.32"	"061"	n/a	n/a	n/a	n/a	n/a	n/a	"Trial"	n/a	n/a	n/a	"556"	"arrowright"	n/a	"NULL"	"NULL"	"NULL"	"stimuli/Ebbinghaus_0.35714_-0.11071.png"	n/a	"Ebbinghaus"	"arrowright"	"1353"	"TRUE"	"Ebbinghaus"	"0.3571400000"	"-0.110710000"	"1"	"32"
n/a	"html-keyboard-response"	"81"	"232525"	"0.0-5.0-2.0-0.14"	"f7ytem"	"600"	"1366"	"chrome"	"111.0.0"	"FALSE"	"Windows 10"	"60.32"	"061"	n/a	n/a	n/a	n/a	n/a	n/a	"fixation"	n/a	n/a	n/a	n/a	"NULL"	n/a	"NULL"	"NULL"	"NULL"	"<p style=\"color: black; font-size: 80px; padding-left: 32%; padding-right: 45%; padding-top: 19%; padding-bottom: 3%\">+</p>"	"1362"	n/a	n/a	n/a	n/a	n/a	n/a	n/a	n/a	n/a
n/a	"image-keyboard-response"	"82"	"233029"	"0.0-5.0-2.0-1.14"	"f7ytem"	"600"	"1366"	"chrome"	"111.0.0"	"FALSE"	"Windows 10"	"60.32"	"061"	n/a	n/a	n/a	n/a	n/a	n/a	"Trial"	n/a	n/a	n/a	"503"	"arrowright"	n/a	"NULL"	"NULL"	"NULL"	"stimuli/Ebbinghaus_-0.35714_-0.2150.png"	n/a	"Ebbinghaus"	"arrowright"	"1364"	"TRUE"	"Ebbinghaus"	"-0.357140000"	"-0.215000000"	"1"	"33"
n/a	"html-keyboard-response"	"83"	"234302"	"0.0-5.0-2.0-0.15"	"f7ytem"	"600"	"1366"	"chrome"	"111.0.0"	"FALSE"	"Windows 10"	"60.32"	"061"	n/a	n/a	n/a	n/a	n/a	n/a	"fixation"	n/a	n/a	n/a	n/a	"NULL"	n/a	"NULL"	"NULL"	"NULL"	"<p style=\"color: black; font-size: 80px; padding-left: 44%; padding-right: 3%; padding-top: 2%; padding-bottom: 48%\">+</p>"	"1266"	n/a	n/a	n/a	n/a	n/a	n/a	n/a	n/a	n/a
n/a	"image-keyboard-response"	"84"	"234919"	"0.0-5.0-2.0-1.15"	"f7ytem"	"600"	"1366"	"chrome"	"111.0.0"	"FALSE"	"Windows 10"	"60.32"	"061"	n/a	n/a	n/a	n/a	n/a	n/a	"Trial"	n/a	n/a	n/a	"617"	"arrowleft"	n/a	"NULL"	"NULL"	"NULL"	"stimuli/Ebbinghaus_0.87143_0.21500.png"	n/a	"Ebbinghaus"	"arrowleft"	"1273"	"TRUE"	"Ebbinghaus"	"0.8714300000"	"0.2150000000"	"1"	"34"
n/a	"html-keyboard-response"	"85"	"236035"	"0.0-5.0-2.0-0.16"	"f7ytem"	"600"	"1366"	"chrome"	"111.0.0"	"FALSE"	"Windows 10"	"60.32"	"061"	n/a	n/a	n/a	n/a	n/a	n/a	"fixation"	n/a	n/a	n/a	n/a	"NULL"	n/a	"NULL"	"NULL"	"NULL"	"<p style=\"color: black; font-size: 80px; padding-left: 21%; padding-right: 33%; padding-top: 27%; padding-bottom: 41%\">+</p>"	"1115"	n/a	n/a	n/a	n/a	n/a	n/a	n/a	n/a	n/a
n/a	"image-keyboard-response"	"86"	"236684"	"0.0-5.0-2.0-1.16"	"f7ytem"	"600"	"1366"	"chrome"	"111.0.0"	"FALSE"	"Windows 10"	"60.32"	"061"	n/a	n/a	n/a	n/a	n/a	n/a	"Trial"	n/a	n/a	n/a	"649"	"arrowright"	n/a	"NULL"	"NULL"	"NULL"	"stimuli/Ebbinghaus_0.61429_0.28000.png"	n/a	"Ebbinghaus"	"arrowleft"	"1116"	"FALSE"	"Ebbinghaus"	"0.6142900000"	"0.2800000000"	"1"	"35"
n/a	"html-keyboard-response"	"87"	"238173"	"0.0-5.0-2.0-0.17"	"f7ytem"	"600"	"1366"	"chrome"	"111.0.0"	"FALSE"	"Windows 10"	"60.32"	"061"	n/a	n/a	n/a	n/a	n/a	n/a	"fixation"	n/a	n/a	n/a	n/a	"NULL"	n/a	"NULL"	"NULL"	"NULL"	"<p style=\"color: black; font-size: 80px; padding-left: 6%; padding-right: 36%; padding-top: 17%; padding-bottom: 27%\">+</p>"	"1482"	n/a	n/a	n/a	n/a	n/a	n/a	n/a	n/a	n/a
n/a	"image-keyboard-response"	"88"	"238983"	"0.0-5.0-2.0-1.17"	"f7ytem"	"600"	"1366"	"chrome"	"111.0.0"	"FALSE"	"Windows 10"	"60.32"	"061"	n/a	n/a	n/a	n/a	n/a	n/a	"Trial"	n/a	n/a	n/a	"809"	"arrowright"	n/a	"NULL"	"NULL"	"NULL"	"stimuli/Ebbinghaus_-0.35714_0.15857.png"	n/a	"Ebbinghaus"	"arrowleft"	"1489"	"FALSE"	"Ebbinghaus"	"-0.357140000"	"0.1585700000"	"1"	"36"
n/a	"html-keyboard-response"	"89"	"240304"	"0.0-5.0-2.0-0.18"	"f7ytem"	"600"	"1366"	"chrome"	"111.0.0"	"FALSE"	"Windows 10"	"60.32"	"061"	n/a	n/a	n/a	n/a	n/a	n/a	"fixation"	n/a	n/a	n/a	n/a	"NULL"	n/a	"NULL"	"NULL"	"NULL"	"<p style=\"color: black; font-size: 80px; padding-left: 42%; padding-right: 10%; padding-top: 28%; padding-bottom: 36%\">+</p>"	"1318"	n/a	n/a	n/a	n/a	n/a	n/a	n/a	n/a	n/a
n/a	"image-keyboard-response"	"90"	"241046"	"0.0-5.0-2.0-1.18"	"f7ytem"	"600"	"1366"	"chrome"	"111.0.0"	"FALSE"	"Windows 10"	"60.32"	"061"	n/a	n/a	n/a	n/a	n/a	n/a	"Trial"	n/a	n/a	n/a	"742"	"arrowleft"	n/a	"NULL"	"NULL"	"NULL"	"stimuli/Ebbinghaus_-0.35714_0.28000.png"	n/a	"Ebbinghaus"	"arrowleft"	"1321"	"TRUE"	"Ebbinghaus"	"-0.357140000"	"0.2800000000"	"1"	"37"
n/a	"html-keyboard-response"	"91"	"242348"	"0.0-5.0-2.0-0.19"	"f7ytem"	"600"	"1366"	"chrome"	"111.0.0"	"FALSE"	"Windows 10"	"60.32"	"061"	n/a	n/a	n/a	n/a	n/a	n/a	"fixation"	n/a	n/a	n/a	n/a	"NULL"	n/a	"NULL"	"NULL"	"NULL"	"<p style=\"color: black; font-size: 80px; padding-left: 7%; padding-right: 14%; padding-top: 46%; padding-bottom: 4%\">+</p>"	"1292"	n/a	n/a	n/a	n/a	n/a	n/a	n/a	n/a	n/a
n/a	"image-keyboard-response"	"92"	"243022"	"0.0-5.0-2.0-1.19"	"f7ytem"	"600"	"1366"	"chrome"	"111.0.0"	"FALSE"	"Windows 10"	"60.32"	"061"	n/a	n/a	n/a	n/a	n/a	n/a	"Trial"	n/a	n/a	n/a	"673"	"arrowleft"	n/a	"NULL"	"NULL"	"NULL"	"stimuli/Ebbinghaus_-0.35714_0.21500.png"	n/a	"Ebbinghaus"	"arrowleft"	"1302"	"TRUE"	"Ebbinghaus"	"-0.357140000"	"0.2150000000"	"1"	"38"
n/a	"html-keyboard-response"	"93"	"244306"	"0.0-5.0-2.0-0.20"	"f7ytem"	"600"	"1366"	"chrome"	"111.0.0"	"FALSE"	"Windows 10"	"60.32"	"061"	n/a	n/a	n/a	n/a	n/a	n/a	"fixation"	n/a	n/a	n/a	n/a	"NULL"	n/a	"NULL"	"NULL"	"NULL"	"<p style=\"color: black; font-size: 80px; padding-left: 39%; padding-right: 30%; padding-top: 6%; padding-bottom: 23%\">+</p>"	"1272"	n/a	n/a	n/a	n/a	n/a	n/a	n/a	n/a	n/a
n/a	"image-keyboard-response"	"94"	"245133"	"0.0-5.0-2.0-1.20"	"f7ytem"	"600"	"1366"	"chrome"	"111.0.0"	"FALSE"	"Windows 10"	"60.32"	"061"	n/a	n/a	n/a	n/a	n/a	n/a	"Trial"	n/a	n/a	n/a	"826"	"arrowleft"	n/a	"NULL"	"NULL"	"NULL"	"stimuli/Ebbinghaus_0.10000_0.21500.png"	n/a	"Ebbinghaus"	"arrowleft"	"1284"	"TRUE"	"Ebbinghaus"	"0.1000000000"	"0.2150000000"	"1"	"39"
n/a	"html-keyboard-response"	"95"	"246429"	"0.0-5.0-2.0-0.21"	"f7ytem"	"600"	"1366"	"chrome"	"111.0.0"	"FALSE"	"Windows 10"	"60.32"	"061"	n/a	n/a	n/a	n/a	n/a	n/a	"fixation"	n/a	n/a	n/a	n/a	"NULL"	n/a	"NULL"	"NULL"	"NULL"	"<p style=\"color: black; font-size: 80px; padding-left: 15%; padding-right: 31%; padding-top: 6%; padding-bottom: 39%\">+</p>"	"1294"	n/a	n/a	n/a	n/a	n/a	n/a	n/a	n/a	n/a
n/a	"image-keyboard-response"	"96"	"247302"	"0.0-5.0-2.0-1.21"	"f7ytem"	"600"	"1366"	"chrome"	"111.0.0"	"FALSE"	"Windows 10"	"60.32"	"061"	n/a	n/a	n/a	n/a	n/a	n/a	"Trial"	n/a	n/a	n/a	"872"	"arrowright"	n/a	"NULL"	"NULL"	"NULL"	"stimuli/Ebbinghaus_0.10000_-0.2150.png"	n/a	"Ebbinghaus"	"arrowright"	"1296"	"TRUE"	"Ebbinghaus"	"0.1000000000"	"-0.215000000"	"1"	"40"
n/a	"html-keyboard-response"	"97"	"248331"	"0.0-5.0-2.0-0.22"	"f7ytem"	"600"	"1366"	"chrome"	"111.0.0"	"FALSE"	"Windows 10"	"60.32"	"061"	n/a	n/a	n/a	n/a	n/a	n/a	"fixation"	n/a	n/a	n/a	n/a	"NULL"	n/a	"NULL"	"NULL"	"NULL"	"<p style=\"color: black; font-size: 80px; padding-left: 44%; padding-right: 38%; padding-top: 33%; padding-bottom: 24%\">+</p>"	"1016"	n/a	n/a	n/a	n/a	n/a	n/a	n/a	n/a	n/a
n/a	"image-keyboard-response"	"98"	"248970"	"0.0-5.0-2.0-1.22"	"f7ytem"	"600"	"1366"	"chrome"	"111.0.0"	"FALSE"	"Windows 10"	"60.32"	"061"	n/a	n/a	n/a	n/a	n/a	n/a	"Trial"	n/a	n/a	n/a	"638"	"arrowleft"	n/a	"NULL"	"NULL"	"NULL"	"stimuli/Ebbinghaus_0.35714_0.21500.png"	n/a	"Ebbinghaus"	"arrowleft"	"1029"	"TRUE"	"Ebbinghaus"	"0.3571400000"	"0.2150000000"	"1"	"41"
n/a	"html-keyboard-response"	"99"	"250256"	"0.0-5.0-2.0-0.23"	"f7ytem"	"600"	"1366"	"chrome"	"111.0.0"	"FALSE"	"Windows 10"	"60.32"	"061"	n/a	n/a	n/a	n/a	n/a	n/a	"fixation"	n/a	n/a	n/a	n/a	"NULL"	n/a	"NULL"	"NULL"	"NULL"	"<p style=\"color: black; font-size: 80px; padding-left: 27%; padding-right: 30%; padding-top: 24%; padding-bottom: 28%\">+</p>"	"1279"	n/a	n/a	n/a	n/a	n/a	n/a	n/a	n/a	n/a
n/a	"image-keyboard-response"	"100"	"250840"	"0.0-5.0-2.0-1.23"	"f7ytem"	"600"	"1366"	"chrome"	"111.0.0"	"FALSE"	"Windows 10"	"60.32"	"061"	n/a	n/a	n/a	n/a	n/a	n/a	"Trial"	n/a	n/a	n/a	"582"	"arrowright"	n/a	"NULL"	"NULL"	"NULL"	"stimuli/Ebbinghaus_-0.87143_-0.11071.png"	n/a	"Ebbinghaus"	"arrowright"	"1286"	"TRUE"	"Ebbinghaus"	"-0.871430000"	"-0.110710000"	"1"	"42"
n/a	"html-keyboard-response"	"101"	"251909"	"0.0-5.0-2.0-0.24"	"f7ytem"	"600"	"1366"	"chrome"	"111.0.0"	"FALSE"	"Windows 10"	"60.32"	"061"	n/a	n/a	n/a	n/a	n/a	n/a	"fixation"	n/a	n/a	n/a	n/a	"NULL"	n/a	"NULL"	"NULL"	"NULL"	"<p style=\"color: black; font-size: 80px; padding-left: 3%; padding-right: 34%; padding-top: 30%; padding-bottom: 48%\">+</p>"	"1060"	n/a	n/a	n/a	n/a	n/a	n/a	n/a	n/a	n/a
n/a	"image-keyboard-response"	"102"	"252463"	"0.0-5.0-2.0-1.24"	"f7ytem"	"600"	"1366"	"chrome"	"111.0.0"	"FALSE"	"Windows 10"	"60.32"	"061"	n/a	n/a	n/a	n/a	n/a	n/a	"Trial"	n/a	n/a	n/a	"554"	"arrowright"	n/a	"NULL"	"NULL"	"NULL"	"stimuli/Ebbinghaus_-0.87143_-0.2800.png"	n/a	"Ebbinghaus"	"arrowright"	"1069"	"TRUE"	"Ebbinghaus"	"-0.871430000"	"-0.280000000"	"1"	"43"
n/a	"html-keyboard-response"	"103"	"253663"	"0.0-5.0-2.0-0.25"	"f7ytem"	"600"	"1366"	"chrome"	"111.0.0"	"FALSE"	"Windows 10"	"60.32"	"061"	n/a	n/a	n/a	n/a	n/a	n/a	"fixation"	n/a	n/a	n/a	n/a	"NULL"	n/a	"NULL"	"NULL"	"NULL"	"<p style=\"color: black; font-size: 80px; padding-left: 0%; padding-right: 31%; padding-top: 1%; padding-bottom: 2%\">+</p>"	"1187"	n/a	n/a	n/a	n/a	n/a	n/a	n/a	n/a	n/a
n/a	"image-keyboard-response"	"104"	"254279"	"0.0-5.0-2.0-1.25"	"f7ytem"	"600"	"1366"	"chrome"	"111.0.0"	"FALSE"	"Windows 10"	"60.32"	"061"	n/a	n/a	n/a	n/a	n/a	n/a	"Trial"	n/a	n/a	n/a	"615"	"arrowleft"	n/a	"NULL"	"NULL"	"NULL"	"stimuli/Ebbinghaus_-0.61429_0.11071.png"	n/a	"Ebbinghaus"	"arrowleft"	"1200"	"TRUE"	"Ebbinghaus"	"-0.614290000"	"0.1107100000"	"1"	"44"
n/a	"html-keyboard-response"	"105"	"255723"	"0.0-5.0-2.0-0.26"	"f7ytem"	"600"	"1366"	"chrome"	"111.0.0"	"FALSE"	"Windows 10"	"60.32"	"061"	n/a	n/a	n/a	n/a	n/a	n/a	"fixation"	n/a	n/a	n/a	n/a	"NULL"	n/a	"NULL"	"NULL"	"NULL"	"<p style=\"color: black; font-size: 80px; padding-left: 24%; padding-right: 13%; padding-top: 13%; padding-bottom: 45%\">+</p>"	"1439"	n/a	n/a	n/a	n/a	n/a	n/a	n/a	n/a	n/a
n/a	"image-keyboard-response"	"106"	"256303"	"0.0-5.0-2.0-1.26"	"f7ytem"	"600"	"1366"	"chrome"	"111.0.0"	"FALSE"	"Windows 10"	"60.32"	"061"	n/a	n/a	n/a	n/a	n/a	n/a	"Trial"	n/a	n/a	n/a	"579"	"arrowright"	n/a	"NULL"	"NULL"	"NULL"	"stimuli/Ebbinghaus_-0.87143_-0.2150.png"	n/a	"Ebbinghaus"	"arrowright"	"1444"	"TRUE"	"Ebbinghaus"	"-0.871430000"	"-0.215000000"	"1"	"45"
n/a	"html-keyboard-response"	"107"	"257751"	"0.0-5.0-2.0-0.27"	"f7ytem"	"600"	"1366"	"chrome"	"111.0.0"	"FALSE"	"Windows 10"	"60.32"	"061"	n/a	n/a	n/a	n/a	n/a	n/a	"fixation"	n/a	n/a	n/a	n/a	"NULL"	n/a	"NULL"	"NULL"	"NULL"	"<p style=\"color: black; font-size: 80px; padding-left: 33%; padding-right: 22%; padding-top: 30%; padding-bottom: 39%\">+</p>"	"1446"	n/a	n/a	n/a	n/a	n/a	n/a	n/a	n/a	n/a
n/a	"image-keyboard-response"	"108"	"258397"	"0.0-5.0-2.0-1.27"	"f7ytem"	"600"	"1366"	"chrome"	"111.0.0"	"FALSE"	"Windows 10"	"60.32"	"061"	n/a	n/a	n/a	n/a	n/a	n/a	"Trial"	n/a	n/a	n/a	"646"	"arrowright"	n/a	"NULL"	"NULL"	"NULL"	"stimuli/Ebbinghaus_-0.61429_-0.11071.png"	n/a	"Ebbinghaus"	"arrowright"	"1448"	"TRUE"	"Ebbinghaus"	"-0.614290000"	"-0.110710000"	"1"	"46"
n/a	"html-keyboard-response"	"109"	"259692"	"0.0-5.0-2.0-0.28"	"f7ytem"	"600"	"1366"	"chrome"	"111.0.0"	"FALSE"	"Windows 10"	"60.32"	"061"	n/a	n/a	n/a	n/a	n/a	n/a	"fixation"	n/a	n/a	n/a	n/a	"NULL"	n/a	"NULL"	"NULL"	"NULL"	"<p style=\"color: black; font-size: 80px; padding-left: 40%; padding-right: 44%; padding-top: 31%; padding-bottom: 27%\">+</p>"	"1291"	n/a	n/a	n/a	n/a	n/a	n/a	n/a	n/a	n/a
n/a	"image-keyboard-response"	"110"	"260292"	"0.0-5.0-2.0-1.28"	"f7ytem"	"600"	"1366"	"chrome"	"111.0.0"	"FALSE"	"Windows 10"	"60.32"	"061"	n/a	n/a	n/a	n/a	n/a	n/a	"Trial"	n/a	n/a	n/a	"600"	"arrowleft"	n/a	"NULL"	"NULL"	"NULL"	"stimuli/Ebbinghaus_-0.1000_0.21500.png"	n/a	"Ebbinghaus"	"arrowleft"	"1295"	"TRUE"	"Ebbinghaus"	"-0.100000000"	"0.2150000000"	"1"	"47"
n/a	"html-keyboard-response"	"111"	"261602"	"0.0-5.0-2.0-0.29"	"f7ytem"	"600"	"1366"	"chrome"	"111.0.0"	"FALSE"	"Windows 10"	"60.32"	"061"	n/a	n/a	n/a	n/a	n/a	n/a	"fixation"	n/a	n/a	n/a	n/a	"NULL"	n/a	"NULL"	"NULL"	"NULL"	"<p style=\"color: black; font-size: 80px; padding-left: 8%; padding-right: 30%; padding-top: 7%; padding-bottom: 9%\">+</p>"	"1309"	n/a	n/a	n/a	n/a	n/a	n/a	n/a	n/a	n/a
n/a	"image-keyboard-response"	"112"	"262224"	"0.0-5.0-2.0-1.29"	"f7ytem"	"600"	"1366"	"chrome"	"111.0.0"	"FALSE"	"Windows 10"	"60.32"	"061"	n/a	n/a	n/a	n/a	n/a	n/a	"Trial"	n/a	n/a	n/a	"621"	"arrowleft"	n/a	"NULL"	"NULL"	"NULL"	"stimuli/Ebbinghaus_0.35714_0.15857.png"	n/a	"Ebbinghaus"	"arrowleft"	"1310"	"TRUE"	"Ebbinghaus"	"0.3571400000"	"0.1585700000"	"1"	"48"
n/a	"html-keyboard-response"	"113"	"263645"	"0.0-5.0-2.0-0.30"	"f7ytem"	"600"	"1366"	"chrome"	"111.0.0"	"FALSE"	"Windows 10"	"60.32"	"061"	n/a	n/a	n/a	n/a	n/a	n/a	"fixation"	n/a	n/a	n/a	n/a	"NULL"	n/a	"NULL"	"NULL"	"NULL"	"<p style=\"color: black; font-size: 80px; padding-left: 31%; padding-right: 42%; padding-top: 5%; padding-bottom: 10%\">+</p>"	"1412"	n/a	n/a	n/a	n/a	n/a	n/a	n/a	n/a	n/a
n/a	"image-keyboard-response"	"114"	"264311"	"0.0-5.0-2.0-1.30"	"f7ytem"	"600"	"1366"	"chrome"	"111.0.0"	"FALSE"	"Windows 10"	"60.32"	"061"	n/a	n/a	n/a	n/a	n/a	n/a	"Trial"	n/a	n/a	n/a	"666"	"arrowright"	n/a	"NULL"	"NULL"	"NULL"	"stimuli/Ebbinghaus_0.10000_0.11071.png"	n/a	"Ebbinghaus"	"arrowleft"	"1421"	"FALSE"	"Ebbinghaus"	"0.1000000000"	"0.1107100000"	"1"	"49"
n/a	"html-keyboard-response"	"115"	"265599"	"0.0-5.0-2.0-0.31"	"f7ytem"	"600"	"1366"	"chrome"	"111.0.0"	"FALSE"	"Windows 10"	"60.32"	"061"	n/a	n/a	n/a	n/a	n/a	n/a	"fixation"	n/a	n/a	n/a	n/a	"NULL"	n/a	"NULL"	"NULL"	"NULL"	"<p style=\"color: black; font-size: 80px; padding-left: 15%; padding-right: 12%; padding-top: 48%; padding-bottom: 9%\">+</p>"	"1282"	n/a	n/a	n/a	n/a	n/a	n/a	n/a	n/a	n/a
n/a	"image-keyboard-response"	"116"	"266163"	"0.0-5.0-2.0-1.31"	"f7ytem"	"600"	"1366"	"chrome"	"111.0.0"	"FALSE"	"Windows 10"	"60.32"	"061"	n/a	n/a	n/a	n/a	n/a	n/a	"Trial"	n/a	n/a	n/a	"564"	"arrowleft"	n/a	"NULL"	"NULL"	"NULL"	"stimuli/Ebbinghaus_-0.87143_0.15857.png"	n/a	"Ebbinghaus"	"arrowleft"	"1288"	"TRUE"	"Ebbinghaus"	"-0.871430000"	"0.1585700000"	"1"	"50"
n/a	"html-keyboard-response"	"117"	"267542"	"0.0-5.0-2.0-0.32"	"f7ytem"	"600"	"1366"	"chrome"	"111.0.0"	"FALSE"	"Windows 10"	"60.32"	"061"	n/a	n/a	n/a	n/a	n/a	n/a	"fixation"	n/a	n/a	n/a	n/a	"NULL"	n/a	"NULL"	"NULL"	"NULL"	"<p style=\"color: black; font-size: 80px; padding-left: 45%; padding-right: 37%; padding-top: 27%; padding-bottom: 13%\">+</p>"	"1376"	n/a	n/a	n/a	n/a	n/a	n/a	n/a	n/a	n/a
n/a	"image-keyboard-response"	"118"	"268103"	"0.0-5.0-2.0-1.32"	"f7ytem"	"600"	"1366"	"chrome"	"111.0.0"	"FALSE"	"Windows 10"	"60.32"	"061"	n/a	n/a	n/a	n/a	n/a	n/a	"Trial"	n/a	n/a	n/a	"560"	"arrowleft"	n/a	"NULL"	"NULL"	"NULL"	"stimuli/Ebbinghaus_-0.87143_0.11071.png"	n/a	"Ebbinghaus"	"arrowleft"	"1379"	"TRUE"	"Ebbinghaus"	"-0.871430000"	"0.1107100000"	"1"	"51"
n/a	"html-keyboard-response"	"119"	"269302"	"0.0-5.0-2.0-0.33"	"f7ytem"	"600"	"1366"	"chrome"	"111.0.0"	"FALSE"	"Windows 10"	"60.32"	"061"	n/a	n/a	n/a	n/a	n/a	n/a	"fixation"	n/a	n/a	n/a	n/a	"NULL"	n/a	"NULL"	"NULL"	"NULL"	"<p style=\"color: black; font-size: 80px; padding-left: 41%; padding-right: 8%; padding-top: 5%; padding-bottom: 26%\">+</p>"	"1186"	n/a	n/a	n/a	n/a	n/a	n/a	n/a	n/a	n/a
n/a	"image-keyboard-response"	"120"	"269788"	"0.0-5.0-2.0-1.33"	"f7ytem"	"600"	"1366"	"chrome"	"111.0.0"	"FALSE"	"Windows 10"	"60.32"	"061"	n/a	n/a	n/a	n/a	n/a	n/a	"Trial"	n/a	n/a	n/a	"486"	"arrowleft"	n/a	"NULL"	"NULL"	"NULL"	"stimuli/Ebbinghaus_0.61429_0.11071.png"	n/a	"Ebbinghaus"	"arrowleft"	"1199"	"TRUE"	"Ebbinghaus"	"0.6142900000"	"0.1107100000"	"1"	"52"
n/a	"html-keyboard-response"	"121"	"271153"	"0.0-5.0-2.0-0.34"	"f7ytem"	"600"	"1366"	"chrome"	"111.0.0"	"FALSE"	"Windows 10"	"60.32"	"061"	n/a	n/a	n/a	n/a	n/a	n/a	"fixation"	n/a	n/a	n/a	n/a	"NULL"	n/a	"NULL"	"NULL"	"NULL"	"<p style=\"color: black; font-size: 80px; padding-left: 23%; padding-right: 28%; padding-top: 0%; padding-bottom: 20%\">+</p>"	"1354"	n/a	n/a	n/a	n/a	n/a	n/a	n/a	n/a	n/a
n/a	"image-keyboard-response"	"122"	"271823"	"0.0-5.0-2.0-1.34"	"f7ytem"	"600"	"1366"	"chrome"	"111.0.0"	"FALSE"	"Windows 10"	"60.32"	"061"	n/a	n/a	n/a	n/a	n/a	n/a	"Trial"	n/a	n/a	n/a	"669"	"arrowright"	n/a	"NULL"	"NULL"	"NULL"	"stimuli/Ebbinghaus_0.10000_-0.15857.png"	n/a	"Ebbinghaus"	"arrowright"	"1365"	"TRUE"	"Ebbinghaus"	"0.1000000000"	"-0.158570000"	"1"	"53"
n/a	"html-keyboard-response"	"123"	"273122"	"0.0-5.0-2.0-0.35"	"f7ytem"	"600"	"1366"	"chrome"	"111.0.0"	"FALSE"	"Windows 10"	"60.32"	"061"	n/a	n/a	n/a	n/a	n/a	n/a	"fixation"	n/a	n/a	n/a	n/a	"NULL"	n/a	"NULL"	"NULL"	"NULL"	"<p style=\"color: black; font-size: 80px; padding-left: 49%; padding-right: 11%; padding-top: 2%; padding-bottom: 12%\">+</p>"	"1286"	n/a	n/a	n/a	n/a	n/a	n/a	n/a	n/a	n/a
n/a	"image-keyboard-response"	"124"	"273708"	"0.0-5.0-2.0-1.35"	"f7ytem"	"600"	"1366"	"chrome"	"111.0.0"	"FALSE"	"Windows 10"	"60.32"	"061"	n/a	n/a	n/a	n/a	n/a	n/a	"Trial"	n/a	n/a	n/a	"585"	"arrowright"	n/a	"NULL"	"NULL"	"NULL"	"stimuli/Ebbinghaus_0.61429_-0.2800.png"	n/a	"Ebbinghaus"	"arrowright"	"1299"	"TRUE"	"Ebbinghaus"	"0.6142900000"	"-0.280000000"	"1"	"54"
n/a	"html-keyboard-response"	"125"	"274864"	"0.0-5.0-2.0-0.36"	"f7ytem"	"600"	"1366"	"chrome"	"111.0.0"	"FALSE"	"Windows 10"	"60.32"	"061"	n/a	n/a	n/a	n/a	n/a	n/a	"fixation"	n/a	n/a	n/a	n/a	"NULL"	n/a	"NULL"	"NULL"	"NULL"	"<p style=\"color: black; font-size: 80px; padding-left: 10%; padding-right: 31%; padding-top: 2%; padding-bottom: 35%\">+</p>"	"1150"	n/a	n/a	n/a	n/a	n/a	n/a	n/a	n/a	n/a
n/a	"image-keyboard-response"	"126"	"275480"	"0.0-5.0-2.0-1.36"	"f7ytem"	"600"	"1366"	"chrome"	"111.0.0"	"FALSE"	"Windows 10"	"60.32"	"061"	n/a	n/a	n/a	n/a	n/a	n/a	"Trial"	n/a	n/a	n/a	"615"	"arrowright"	n/a	"NULL"	"NULL"	"NULL"	"stimuli/Ebbinghaus_0.61429_-0.15857.png"	n/a	"Ebbinghaus"	"arrowright"	"1156"	"TRUE"	"Ebbinghaus"	"0.6142900000"	"-0.158570000"	"1"	"55"
n/a	"html-keyboard-response"	"127"	"276703"	"0.0-5.0-2.0-0.37"	"f7ytem"	"600"	"1366"	"chrome"	"111.0.0"	"FALSE"	"Windows 10"	"60.32"	"061"	n/a	n/a	n/a	n/a	n/a	n/a	"fixation"	n/a	n/a	n/a	n/a	"NULL"	n/a	"NULL"	"NULL"	"NULL"	"<p style=\"color: black; font-size: 80px; padding-left: 33%; padding-right: 7%; padding-top: 1%; padding-bottom: 21%\">+</p>"	"1215"	n/a	n/a	n/a	n/a	n/a	n/a	n/a	n/a	n/a
n/a	"image-keyboard-response"	"128"	"277296"	"0.0-5.0-2.0-1.37"	"f7ytem"	"600"	"1366"	"chrome"	"111.0.0"	"FALSE"	"Windows 10"	"60.32"	"061"	n/a	n/a	n/a	n/a	n/a	n/a	"Trial"	n/a	n/a	n/a	"593"	"arrowright"	n/a	"NULL"	"NULL"	"NULL"	"stimuli/Ebbinghaus_0.61429_-0.11071.png"	n/a	"Ebbinghaus"	"arrowright"	"1223"	"TRUE"	"Ebbinghaus"	"0.6142900000"	"-0.110710000"	"1"	"56"
n/a	"html-keyboard-response"	"129"	"278510"	"0.0-5.0-2.0-0.38"	"f7ytem"	"600"	"1366"	"chrome"	"111.0.0"	"FALSE"	"Windows 10"	"60.32"	"061"	n/a	n/a	n/a	n/a	n/a	n/a	"fixation"	n/a	n/a	n/a	n/a	"NULL"	n/a	"NULL"	"NULL"	"NULL"	"<p style=\"color: black; font-size: 80px; padding-left: 7%; padding-right: 31%; padding-top: 43%; padding-bottom: 47%\">+</p>"	"1198"	n/a	n/a	n/a	n/a	n/a	n/a	n/a	n/a	n/a
n/a	"image-keyboard-response"	"130"	"279039"	"0.0-5.0-2.0-1.38"	"f7ytem"	"600"	"1366"	"chrome"	"111.0.0"	"FALSE"	"Windows 10"	"60.32"	"061"	n/a	n/a	n/a	n/a	n/a	n/a	"Trial"	n/a	n/a	n/a	"528"	"arrowleft"	n/a	"NULL"	"NULL"	"NULL"	"stimuli/Ebbinghaus_-0.1000_-0.11071.png"	n/a	"Ebbinghaus"	"arrowright"	"1214"	"FALSE"	"Ebbinghaus"	"-0.100000000"	"-0.110710000"	"1"	"57"
n/a	"html-keyboard-response"	"131"	"280432"	"0.0-5.0-2.0-0.39"	"f7ytem"	"600"	"1366"	"chrome"	"111.0.0"	"FALSE"	"Windows 10"	"60.32"	"061"	n/a	n/a	n/a	n/a	n/a	n/a	"fixation"	n/a	n/a	n/a	n/a	"NULL"	n/a	"NULL"	"NULL"	"NULL"	"<p style=\"color: black; font-size: 80px; padding-left: 35%; padding-right: 47%; padding-top: 35%; padding-bottom: 37%\">+</p>"	"1382"	n/a	n/a	n/a	n/a	n/a	n/a	n/a	n/a	n/a
n/a	"image-keyboard-response"	"132"	"280950"	"0.0-5.0-2.0-1.39"	"f7ytem"	"600"	"1366"	"chrome"	"111.0.0"	"FALSE"	"Windows 10"	"60.32"	"061"	n/a	n/a	n/a	n/a	n/a	n/a	"Trial"	n/a	n/a	n/a	"517"	"arrowleft"	n/a	"NULL"	"NULL"	"NULL"	"stimuli/Ebbinghaus_-0.1000_-0.15857.png"	n/a	"Ebbinghaus"	"arrowright"	"1393"	"FALSE"	"Ebbinghaus"	"-0.100000000"	"-0.158570000"	"1"	"58"
n/a	"html-keyboard-response"	"133"	"282013"	"0.0-5.0-2.0-0.40"	"f7ytem"	"600"	"1366"	"chrome"	"111.0.0"	"FALSE"	"Windows 10"	"60.32"	"061"	n/a	n/a	n/a	n/a	n/a	n/a	"fixation"	n/a	n/a	n/a	n/a	"NULL"	n/a	"NULL"	"NULL"	"NULL"	"<p style=\"color: black; font-size: 80px; padding-left: 14%; padding-right: 5%; padding-top: 33%; padding-bottom: 1%\">+</p>"	"1057"	n/a	n/a	n/a	n/a	n/a	n/a	n/a	n/a	n/a
n/a	"image-keyboard-response"	"134"	"282728"	"0.0-5.0-2.0-1.40"	"f7ytem"	"600"	"1366"	"chrome"	"111.0.0"	"FALSE"	"Windows 10"	"60.32"	"061"	n/a	n/a	n/a	n/a	n/a	n/a	"Trial"	n/a	n/a	n/a	"714"	"arrowleft"	n/a	"NULL"	"NULL"	"NULL"	"stimuli/Ebbinghaus_0.87143_-0.11071.png"	n/a	"Ebbinghaus"	"arrowright"	"1063"	"FALSE"	"Ebbinghaus"	"0.8714300000"	"-0.110710000"	"1"	"59"
n/a	"html-keyboard-response"	"135"	"284000"	"0.0-5.0-2.0-0.41"	"f7ytem"	"600"	"1366"	"chrome"	"111.0.0"	"FALSE"	"Windows 10"	"60.32"	"061"	n/a	n/a	n/a	n/a	n/a	n/a	"fixation"	n/a	n/a	n/a	n/a	"NULL"	n/a	"NULL"	"NULL"	"NULL"	"<p style=\"color: black; font-size: 80px; padding-left: 41%; padding-right: 5%; padding-top: 49%; padding-bottom: 5%\">+</p>"	"1257"	n/a	n/a	n/a	n/a	n/a	n/a	n/a	n/a	n/a
n/a	"image-keyboard-response"	"136"	"284602"	"0.0-5.0-2.0-1.41"	"f7ytem"	"600"	"1366"	"chrome"	"111.0.0"	"FALSE"	"Windows 10"	"60.32"	"061"	n/a	n/a	n/a	n/a	n/a	n/a	"Trial"	n/a	n/a	n/a	"602"	"arrowright"	n/a	"NULL"	"NULL"	"NULL"	"stimuli/Ebbinghaus_-0.61429_-0.2800.png"	n/a	"Ebbinghaus"	"arrowright"	"1272"	"TRUE"	"Ebbinghaus"	"-0.614290000"	"-0.280000000"	"1"	"60"
n/a	"html-keyboard-response"	"137"	"285665"	"0.0-5.0-2.0-0.42"	"f7ytem"	"600"	"1366"	"chrome"	"111.0.0"	"FALSE"	"Windows 10"	"60.32"	"061"	n/a	n/a	n/a	n/a	n/a	n/a	"fixation"	n/a	n/a	n/a	n/a	"NULL"	n/a	"NULL"	"NULL"	"NULL"	"<p style=\"color: black; font-size: 80px; padding-left: 45%; padding-right: 46%; padding-top: 49%; padding-bottom: 3%\">+</p>"	"1048"	n/a	n/a	n/a	n/a	n/a	n/a	n/a	n/a	n/a
n/a	"image-keyboard-response"	"138"	"286227"	"0.0-5.0-2.0-1.42"	"f7ytem"	"600"	"1366"	"chrome"	"111.0.0"	"FALSE"	"Windows 10"	"60.32"	"061"	n/a	n/a	n/a	n/a	n/a	n/a	"Trial"	n/a	n/a	n/a	"562"	"arrowright"	n/a	"NULL"	"NULL"	"NULL"	"stimuli/Ebbinghaus_0.35714_-0.2800.png"	n/a	"Ebbinghaus"	"arrowright"	"1063"	"TRUE"	"Ebbinghaus"	"0.3571400000"	"-0.280000000"	"1"	"61"
n/a	"html-keyboard-response"	"139"	"287381"	"0.0-5.0-2.0-0.43"	"f7ytem"	"600"	"1366"	"chrome"	"111.0.0"	"FALSE"	"Windows 10"	"60.32"	"061"	n/a	n/a	n/a	n/a	n/a	n/a	"fixation"	n/a	n/a	n/a	n/a	"NULL"	n/a	"NULL"	"NULL"	"NULL"	"<p style=\"color: black; font-size: 80px; padding-left: 10%; padding-right: 26%; padding-top: 21%; padding-bottom: 46%\">+</p>"	"1147"	n/a	n/a	n/a	n/a	n/a	n/a	n/a	n/a	n/a
n/a	"image-keyboard-response"	"140"	"287868"	"0.0-5.0-2.0-1.43"	"f7ytem"	"600"	"1366"	"chrome"	"111.0.0"	"FALSE"	"Windows 10"	"60.32"	"061"	n/a	n/a	n/a	n/a	n/a	n/a	"Trial"	n/a	n/a	n/a	"486"	"arrowleft"	n/a	"NULL"	"NULL"	"NULL"	"stimuli/Ebbinghaus_0.10000_0.28000.png"	n/a	"Ebbinghaus"	"arrowleft"	"1154"	"TRUE"	"Ebbinghaus"	"0.1000000000"	"0.2800000000"	"1"	"62"
n/a	"html-keyboard-response"	"141"	"288887"	"0.0-5.0-2.0-0.44"	"f7ytem"	"600"	"1366"	"chrome"	"111.0.0"	"FALSE"	"Windows 10"	"60.32"	"061"	n/a	n/a	n/a	n/a	n/a	n/a	"fixation"	n/a	n/a	n/a	n/a	"NULL"	n/a	"NULL"	"NULL"	"NULL"	"<p style=\"color: black; font-size: 80px; padding-left: 7%; padding-right: 37%; padding-top: 33%; padding-bottom: 13%\">+</p>"	"1005"	n/a	n/a	n/a	n/a	n/a	n/a	n/a	n/a	n/a
n/a	"image-keyboard-response"	"142"	"289451"	"0.0-5.0-2.0-1.44"	"f7ytem"	"600"	"1366"	"chrome"	"111.0.0"	"FALSE"	"Windows 10"	"60.32"	"061"	n/a	n/a	n/a	n/a	n/a	n/a	"Trial"	n/a	n/a	n/a	"563"	"arrowright"	n/a	"NULL"	"NULL"	"NULL"	"stimuli/Ebbinghaus_0.10000_-0.2800.png"	n/a	"Ebbinghaus"	"arrowright"	"1019"	"TRUE"	"Ebbinghaus"	"0.1000000000"	"-0.280000000"	"1"	"63"
n/a	"html-keyboard-response"	"143"	"290653"	"0.0-5.0-2.0-0.45"	"f7ytem"	"600"	"1366"	"chrome"	"111.0.0"	"FALSE"	"Windows 10"	"60.32"	"061"	n/a	n/a	n/a	n/a	n/a	n/a	"fixation"	n/a	n/a	n/a	n/a	"NULL"	n/a	"NULL"	"NULL"	"NULL"	"<p style=\"color: black; font-size: 80px; padding-left: 19%; padding-right: 0%; padding-top: 26%; padding-bottom: 22%\">+</p>"	"1195"	n/a	n/a	n/a	n/a	n/a	n/a	n/a	n/a	n/a
n/a	"image-keyboard-response"	"144"	"291120"	"0.0-5.0-2.0-1.45"	"f7ytem"	"600"	"1366"	"chrome"	"111.0.0"	"FALSE"	"Windows 10"	"60.32"	"061"	n/a	n/a	n/a	n/a	n/a	n/a	"Trial"	n/a	n/a	n/a	"466"	"arrowleft"	n/a	"NULL"	"NULL"	"NULL"	"stimuli/Ebbinghaus_-0.61429_0.21500.png"	n/a	"Ebbinghaus"	"arrowleft"	"1202"	"TRUE"	"Ebbinghaus"	"-0.614290000"	"0.2150000000"	"1"	"64"
n/a	"html-keyboard-response"	"145"	"292379"	"0.0-5.0-2.0-0.46"	"f7ytem"	"600"	"1366"	"chrome"	"111.0.0"	"FALSE"	"Windows 10"	"60.32"	"061"	n/a	n/a	n/a	n/a	n/a	n/a	"fixation"	n/a	n/a	n/a	n/a	"NULL"	n/a	"NULL"	"NULL"	"NULL"	"<p style=\"color: black; font-size: 80px; padding-left: 49%; padding-right: 15%; padding-top: 37%; padding-bottom: 14%\">+</p>"	"1252"	n/a	n/a	n/a	n/a	n/a	n/a	n/a	n/a	n/a
n/a	"image-keyboard-response"	"146"	"292878"	"0.0-5.0-2.0-1.46"	"f7ytem"	"600"	"1366"	"chrome"	"111.0.0"	"FALSE"	"Windows 10"	"60.32"	"061"	n/a	n/a	n/a	n/a	n/a	n/a	"Trial"	n/a	n/a	n/a	"498"	"arrowright"	n/a	"NULL"	"NULL"	"NULL"	"stimuli/Ebbinghaus_0.87143_-0.15857.png"	n/a	"Ebbinghaus"	"arrowright"	"1259"	"TRUE"	"Ebbinghaus"	"0.8714300000"	"-0.158570000"	"1"	"65"
n/a	"html-keyboard-response"	"147"	"294253"	"0.0-5.0-2.0-0.47"	"f7ytem"	"600"	"1366"	"chrome"	"111.0.0"	"FALSE"	"Windows 10"	"60.32"	"061"	n/a	n/a	n/a	n/a	n/a	n/a	"fixation"	n/a	n/a	n/a	n/a	"NULL"	n/a	"NULL"	"NULL"	"NULL"	"<p style=\"color: black; font-size: 80px; padding-left: 8%; padding-right: 15%; padding-top: 39%; padding-bottom: 23%\">+</p>"	"1366"	n/a	n/a	n/a	n/a	n/a	n/a	n/a	n/a	n/a
n/a	"image-keyboard-response"	"148"	"294771"	"0.0-5.0-2.0-1.47"	"f7ytem"	"600"	"1366"	"chrome"	"111.0.0"	"FALSE"	"Windows 10"	"60.32"	"061"	n/a	n/a	n/a	n/a	n/a	n/a	"Trial"	n/a	n/a	n/a	"518"	"arrowleft"	n/a	"NULL"	"NULL"	"NULL"	"stimuli/Ebbinghaus_0.10000_0.15857.png"	n/a	"Ebbinghaus"	"arrowleft"	"1375"	"TRUE"	"Ebbinghaus"	"0.1000000000"	"0.1585700000"	"1"	"66"
n/a	"html-keyboard-response"	"149"	"295943"	"0.0-5.0-2.0-0.48"	"f7ytem"	"600"	"1366"	"chrome"	"111.0.0"	"FALSE"	"Windows 10"	"60.32"	"061"	n/a	n/a	n/a	n/a	n/a	n/a	"fixation"	n/a	n/a	n/a	n/a	"NULL"	n/a	"NULL"	"NULL"	"NULL"	"<p style=\"color: black; font-size: 80px; padding-left: 37%; padding-right: 38%; padding-top: 19%; padding-bottom: 13%\">+</p>"	"1157"	n/a	n/a	n/a	n/a	n/a	n/a	n/a	n/a	n/a
n/a	"image-keyboard-response"	"150"	"296515"	"0.0-5.0-2.0-1.48"	"f7ytem"	"600"	"1366"	"chrome"	"111.0.0"	"FALSE"	"Windows 10"	"60.32"	"061"	n/a	n/a	n/a	n/a	n/a	n/a	"Trial"	n/a	n/a	n/a	"572"	"arrowleft"	n/a	"NULL"	"NULL"	"NULL"	"stimuli/Ebbinghaus_-0.35714_0.11071.png"	n/a	"Ebbinghaus"	"arrowleft"	"1172"	"TRUE"	"Ebbinghaus"	"-0.357140000"	"0.1107100000"	"1"	"67"
n/a	"html-keyboard-response"	"151"	"297928"	"0.0-5.0-2.0-0.49"	"f7ytem"	"600"	"1366"	"chrome"	"111.0.0"	"FALSE"	"Windows 10"	"60.32"	"061"	n/a	n/a	n/a	n/a	n/a	n/a	"fixation"	n/a	n/a	n/a	n/a	"NULL"	n/a	"NULL"	"NULL"	"NULL"	"<p style=\"color: black; font-size: 80px; padding-left: 9%; padding-right: 9%; padding-top: 14%; padding-bottom: 34%\">+</p>"	"1411"	n/a	n/a	n/a	n/a	n/a	n/a	n/a	n/a	n/a
n/a	"image-keyboard-response"	"152"	"298584"	"0.0-5.0-2.0-1.49"	"f7ytem"	"600"	"1366"	"chrome"	"111.0.0"	"FALSE"	"Windows 10"	"60.32"	"061"	n/a	n/a	n/a	n/a	n/a	n/a	"Trial"	n/a	n/a	n/a	"656"	"arrowleft"	n/a	"NULL"	"NULL"	"NULL"	"stimuli/Ebbinghaus_-0.61429_0.15857.png"	n/a	"Ebbinghaus"	"arrowleft"	"1413"	"TRUE"	"Ebbinghaus"	"-0.614290000"	"0.1585700000"	"1"	"68"
n/a	"html-keyboard-response"	"153"	"300037"	"0.0-5.0-2.0-0.50"	"f7ytem"	"600"	"1366"	"chrome"	"111.0.0"	"FALSE"	"Windows 10"	"60.32"	"061"	n/a	n/a	n/a	n/a	n/a	n/a	"fixation"	n/a	n/a	n/a	n/a	"NULL"	n/a	"NULL"	"NULL"	"NULL"	"<p style=\"color: black; font-size: 80px; padding-left: 27%; padding-right: 50%; padding-top: 26%; padding-bottom: 37%\">+</p>"	"1440"	n/a	n/a	n/a	n/a	n/a	n/a	n/a	n/a	n/a
n/a	"image-keyboard-response"	"154"	"300829"	"0.0-5.0-2.0-1.50"	"f7ytem"	"600"	"1366"	"chrome"	"111.0.0"	"FALSE"	"Windows 10"	"60.32"	"061"	n/a	n/a	n/a	n/a	n/a	n/a	"Trial"	n/a	n/a	n/a	"791"	"arrowright"	n/a	"NULL"	"NULL"	"NULL"	"stimuli/Ebbinghaus_0.87143_0.11071.png"	n/a	"Ebbinghaus"	"arrowleft"	"1453"	"FALSE"	"Ebbinghaus"	"0.8714300000"	"0.1107100000"	"1"	"69"
n/a	"html-keyboard-response"	"155"	"302021"	"0.0-5.0-2.0-0.51"	"f7ytem"	"600"	"1366"	"chrome"	"111.0.0"	"FALSE"	"Windows 10"	"60.32"	"061"	n/a	n/a	n/a	n/a	n/a	n/a	"fixation"	n/a	n/a	n/a	n/a	"NULL"	n/a	"NULL"	"NULL"	"NULL"	"<p style=\"color: black; font-size: 80px; padding-left: 47%; padding-right: 21%; padding-top: 37%; padding-bottom: 22%\">+</p>"	"1177"	n/a	n/a	n/a	n/a	n/a	n/a	n/a	n/a	n/a
n/a	"image-keyboard-response"	"156"	"302573"	"0.0-5.0-2.0-1.51"	"f7ytem"	"600"	"1366"	"chrome"	"111.0.0"	"FALSE"	"Windows 10"	"60.32"	"061"	n/a	n/a	n/a	n/a	n/a	n/a	"Trial"	n/a	n/a	n/a	"551"	"arrowright"	n/a	"NULL"	"NULL"	"NULL"	"stimuli/Ebbinghaus_-0.35714_-0.11071.png"	n/a	"Ebbinghaus"	"arrowright"	"1192"	"TRUE"	"Ebbinghaus"	"-0.357140000"	"-0.110710000"	"1"	"70"
n/a	"html-keyboard-response"	"157"	"303600"	"0.0-5.0-2.0-0.52"	"f7ytem"	"600"	"1366"	"chrome"	"111.0.0"	"FALSE"	"Windows 10"	"60.32"	"061"	n/a	n/a	n/a	n/a	n/a	n/a	"fixation"	n/a	n/a	n/a	n/a	"NULL"	n/a	"NULL"	"NULL"	"NULL"	"<p style=\"color: black; font-size: 80px; padding-left: 2%; padding-right: 9%; padding-top: 12%; padding-bottom: 15%\">+</p>"	"1025"	n/a	n/a	n/a	n/a	n/a	n/a	n/a	n/a	n/a
n/a	"image-keyboard-response"	"158"	"304153"	"0.0-5.0-2.0-1.52"	"f7ytem"	"600"	"1366"	"chrome"	"111.0.0"	"FALSE"	"Windows 10"	"60.32"	"061"	n/a	n/a	n/a	n/a	n/a	n/a	"Trial"	n/a	n/a	n/a	"552"	"arrowleft"	n/a	"NULL"	"NULL"	"NULL"	"stimuli/Ebbinghaus_-0.1000_0.28000.png"	n/a	"Ebbinghaus"	"arrowleft"	"1027"	"TRUE"	"Ebbinghaus"	"-0.100000000"	"0.2800000000"	"1"	"71"
n/a	"html-keyboard-response"	"159"	"305632"	"0.0-5.0-2.0-0.53"	"f7ytem"	"600"	"1366"	"chrome"	"111.0.0"	"FALSE"	"Windows 10"	"60.32"	"061"	n/a	n/a	n/a	n/a	n/a	n/a	"fixation"	n/a	n/a	n/a	n/a	"NULL"	n/a	"NULL"	"NULL"	"NULL"	"<p style=\"color: black; font-size: 80px; padding-left: 10%; padding-right: 44%; padding-top: 31%; padding-bottom: 30%\">+</p>"	"1477"	n/a	n/a	n/a	n/a	n/a	n/a	n/a	n/a	n/a
n/a	"image-keyboard-response"	"160"	"306201"	"0.0-5.0-2.0-1.53"	"f7ytem"	"600"	"1366"	"chrome"	"111.0.0"	"FALSE"	"Windows 10"	"60.32"	"061"	n/a	n/a	n/a	n/a	n/a	n/a	"Trial"	n/a	n/a	n/a	"568"	"arrowright"	n/a	"NULL"	"NULL"	"NULL"	"stimuli/Ebbinghaus_0.35714_0.11071.png"	n/a	"Ebbinghaus"	"arrowleft"	"1479"	"FALSE"	"Ebbinghaus"	"0.3571400000"	"0.1107100000"	"1"	"72"
n/a	"html-keyboard-response"	"161"	"307523"	"0.0-5.0-2.0-0.54"	"f7ytem"	"600"	"1366"	"chrome"	"111.0.0"	"FALSE"	"Windows 10"	"60.32"	"061"	n/a	n/a	n/a	n/a	n/a	n/a	"fixation"	n/a	n/a	n/a	n/a	"NULL"	n/a	"NULL"	"NULL"	"NULL"	"<p style=\"color: black; font-size: 80px; padding-left: 4%; padding-right: 49%; padding-top: 19%; padding-bottom: 8%\">+</p>"	"1307"	n/a	n/a	n/a	n/a	n/a	n/a	n/a	n/a	n/a
n/a	"image-keyboard-response"	"162"	"308064"	"0.0-5.0-2.0-1.54"	"f7ytem"	"600"	"1366"	"chrome"	"111.0.0"	"FALSE"	"Windows 10"	"60.32"	"061"	n/a	n/a	n/a	n/a	n/a	n/a	"Trial"	n/a	n/a	n/a	"540"	"arrowleft"	n/a	"NULL"	"NULL"	"NULL"	"stimuli/Ebbinghaus_0.61429_0.21500.png"	n/a	"Ebbinghaus"	"arrowleft"	"1322"	"TRUE"	"Ebbinghaus"	"0.6142900000"	"0.2150000000"	"1"	"73"
n/a	"html-keyboard-response"	"163"	"309227"	"0.0-5.0-2.0-0.55"	"f7ytem"	"600"	"1366"	"chrome"	"111.0.0"	"FALSE"	"Windows 10"	"60.32"	"061"	n/a	n/a	n/a	n/a	n/a	n/a	"fixation"	n/a	n/a	n/a	n/a	"NULL"	n/a	"NULL"	"NULL"	"NULL"	"<p style=\"color: black; font-size: 80px; padding-left: 21%; padding-right: 19%; padding-top: 21%; padding-bottom: 3%\">+</p>"	"1148"	n/a	n/a	n/a	n/a	n/a	n/a	n/a	n/a	n/a
n/a	"image-keyboard-response"	"164"	"309858"	"0.0-5.0-2.0-1.55"	"f7ytem"	"600"	"1366"	"chrome"	"111.0.0"	"FALSE"	"Windows 10"	"60.32"	"061"	n/a	n/a	n/a	n/a	n/a	n/a	"Trial"	n/a	n/a	n/a	"630"	"arrowleft"	n/a	"NULL"	"NULL"	"NULL"	"stimuli/Ebbinghaus_-0.35714_-0.15857.png"	n/a	"Ebbinghaus"	"arrowright"	"1163"	"FALSE"	"Ebbinghaus"	"-0.357140000"	"-0.158570000"	"1"	"74"
n/a	"html-keyboard-response"	"165"	"310993"	"0.0-5.0-2.0-0.56"	"f7ytem"	"600"	"1366"	"chrome"	"111.0.0"	"FALSE"	"Windows 10"	"60.32"	"061"	n/a	n/a	n/a	n/a	n/a	n/a	"fixation"	n/a	n/a	n/a	n/a	"NULL"	n/a	"NULL"	"NULL"	"NULL"	"<p style=\"color: black; font-size: 80px; padding-left: 44%; padding-right: 14%; padding-top: 3%; padding-bottom: 7%\">+</p>"	"1125"	n/a	n/a	n/a	n/a	n/a	n/a	n/a	n/a	n/a
n/a	"image-keyboard-response"	"166"	"311674"	"0.0-5.0-2.0-1.56"	"f7ytem"	"600"	"1366"	"chrome"	"111.0.0"	"FALSE"	"Windows 10"	"60.32"	"061"	n/a	n/a	n/a	n/a	n/a	n/a	"Trial"	n/a	n/a	n/a	"680"	"arrowright"	n/a	"NULL"	"NULL"	"NULL"	"stimuli/Ebbinghaus_-0.61429_-0.2150.png"	n/a	"Ebbinghaus"	"arrowright"	"1135"	"TRUE"	"Ebbinghaus"	"-0.614290000"	"-0.215000000"	"1"	"75"
n/a	"html-keyboard-response"	"167"	"313005"	"0.0-5.0-2.0-0.57"	"f7ytem"	"600"	"1366"	"chrome"	"111.0.0"	"FALSE"	"Windows 10"	"60.32"	"061"	n/a	n/a	n/a	n/a	n/a	n/a	"fixation"	n/a	n/a	n/a	n/a	"NULL"	n/a	"NULL"	"NULL"	"NULL"	"<p style=\"color: black; font-size: 80px; padding-left: 34%; padding-right: 46%; padding-top: 1%; padding-bottom: 21%\">+</p>"	"1324"	n/a	n/a	n/a	n/a	n/a	n/a	n/a	n/a	n/a
n/a	"image-keyboard-response"	"168"	"313572"	"0.0-5.0-2.0-1.57"	"f7ytem"	"600"	"1366"	"chrome"	"111.0.0"	"FALSE"	"Windows 10"	"60.32"	"061"	n/a	n/a	n/a	n/a	n/a	n/a	"Trial"	n/a	n/a	n/a	"566"	"arrowright"	n/a	"NULL"	"NULL"	"NULL"	"stimuli/Ebbinghaus_-0.1000_-0.2150.png"	n/a	"Ebbinghaus"	"arrowright"	"1331"	"TRUE"	"Ebbinghaus"	"-0.100000000"	"-0.215000000"	"1"	"76"
n/a	"html-keyboard-response"	"169"	"314787"	"0.0-5.0-2.0-0.58"	"f7ytem"	"600"	"1366"	"chrome"	"111.0.0"	"FALSE"	"Windows 10"	"60.32"	"061"	n/a	n/a	n/a	n/a	n/a	n/a	"fixation"	n/a	n/a	n/a	n/a	"NULL"	n/a	"NULL"	"NULL"	"NULL"	"<p style=\"color: black; font-size: 80px; padding-left: 6%; padding-right: 18%; padding-top: 3%; padding-bottom: 30%\">+</p>"	"1198"	n/a	n/a	n/a	n/a	n/a	n/a	n/a	n/a	n/a
n/a	"image-keyboard-response"	"170"	"315458"	"0.0-5.0-2.0-1.58"	"f7ytem"	"600"	"1366"	"chrome"	"111.0.0"	"FALSE"	"Windows 10"	"60.32"	"061"	n/a	n/a	n/a	n/a	n/a	n/a	"Trial"	n/a	n/a	n/a	"670"	"arrowleft"	n/a	"NULL"	"NULL"	"NULL"	"stimuli/Ebbinghaus_0.87143_-0.2150.png"	n/a	"Ebbinghaus"	"arrowright"	"1215"	"FALSE"	"Ebbinghaus"	"0.8714300000"	"-0.215000000"	"1"	"77"
n/a	"html-keyboard-response"	"171"	"316932"	"0.0-5.0-2.0-0.59"	"f7ytem"	"600"	"1366"	"chrome"	"111.0.0"	"FALSE"	"Windows 10"	"60.32"	"061"	n/a	n/a	n/a	n/a	n/a	n/a	"fixation"	n/a	n/a	n/a	n/a	"NULL"	n/a	"NULL"	"NULL"	"NULL"	"<p style=\"color: black; font-size: 80px; padding-left: 3%; padding-right: 45%; padding-top: 25%; padding-bottom: 15%\">+</p>"	"1464"	n/a	n/a	n/a	n/a	n/a	n/a	n/a	n/a	n/a
n/a	"image-keyboard-response"	"172"	"317542"	"0.0-5.0-2.0-1.59"	"f7ytem"	"600"	"1366"	"chrome"	"111.0.0"	"FALSE"	"Windows 10"	"60.32"	"061"	n/a	n/a	n/a	n/a	n/a	n/a	"Trial"	n/a	n/a	n/a	"609"	"arrowleft"	n/a	"NULL"	"NULL"	"NULL"	"stimuli/Ebbinghaus_-0.35714_-0.2800.png"	n/a	"Ebbinghaus"	"arrowright"	"1474"	"FALSE"	"Ebbinghaus"	"-0.357140000"	"-0.280000000"	"1"	"78"
n/a	"html-keyboard-response"	"173"	"318804"	"0.0-5.0-2.0-0.60"	"f7ytem"	"600"	"1366"	"chrome"	"111.0.0"	"FALSE"	"Windows 10"	"60.32"	"061"	n/a	n/a	n/a	n/a	n/a	n/a	"fixation"	n/a	n/a	n/a	n/a	"NULL"	n/a	"NULL"	"NULL"	"NULL"	"<p style=\"color: black; font-size: 80px; padding-left: 23%; padding-right: 39%; padding-top: 49%; padding-bottom: 26%\">+</p>"	"1252"	n/a	n/a	n/a	n/a	n/a	n/a	n/a	n/a	n/a
n/a	"image-keyboard-response"	"174"	"319366"	"0.0-5.0-2.0-1.60"	"f7ytem"	"600"	"1366"	"chrome"	"111.0.0"	"FALSE"	"Windows 10"	"60.32"	"061"	n/a	n/a	n/a	n/a	n/a	n/a	"Trial"	n/a	n/a	n/a	"561"	"arrowright"	n/a	"NULL"	"NULL"	"NULL"	"stimuli/Ebbinghaus_0.61429_-0.2150.png"	n/a	"Ebbinghaus"	"arrowright"	"1262"	"TRUE"	"Ebbinghaus"	"0.6142900000"	"-0.215000000"	"1"	"79"
n/a	"html-keyboard-response"	"175"	"320615"	"0.0-5.0-2.0-0.61"	"f7ytem"	"600"	"1366"	"chrome"	"111.0.0"	"FALSE"	"Windows 10"	"60.32"	"061"	n/a	n/a	n/a	n/a	n/a	n/a	"fixation"	n/a	n/a	n/a	n/a	"NULL"	n/a	"NULL"	"NULL"	"NULL"	"<p style=\"color: black; font-size: 80px; padding-left: 16%; padding-right: 47%; padding-top: 31%; padding-bottom: 34%\">+</p>"	"1242"	n/a	n/a	n/a	n/a	n/a	n/a	n/a	n/a	n/a
n/a	"image-keyboard-response"	"176"	"321353"	"0.0-5.0-2.0-1.61"	"f7ytem"	"600"	"1366"	"chrome"	"111.0.0"	"FALSE"	"Windows 10"	"60.32"	"061"	n/a	n/a	n/a	n/a	n/a	n/a	"Trial"	n/a	n/a	n/a	"735"	"arrowleft"	n/a	"NULL"	"NULL"	"NULL"	"stimuli/Ebbinghaus_-0.1000_0.11071.png"	n/a	"Ebbinghaus"	"arrowleft"	"1249"	"TRUE"	"Ebbinghaus"	"-0.100000000"	"0.1107100000"	"1"	"80"
n/a	"html-keyboard-response"	"177"	"322537"	"0.0-5.0-2.0-0.62"	"f7ytem"	"600"	"1366"	"chrome"	"111.0.0"	"FALSE"	"Windows 10"	"60.32"	"061"	n/a	n/a	n/a	n/a	n/a	n/a	"fixation"	n/a	n/a	n/a	n/a	"NULL"	n/a	"NULL"	"NULL"	"NULL"	"<p style=\"color: black; font-size: 80px; padding-left: 3%; padding-right: 35%; padding-top: 17%; padding-bottom: 32%\">+</p>"	"1167"	n/a	n/a	n/a	n/a	n/a	n/a	n/a	n/a	n/a
n/a	"image-keyboard-response"	"178"	"323155"	"0.0-5.0-2.0-1.62"	"f7ytem"	"600"	"1366"	"chrome"	"111.0.0"	"FALSE"	"Windows 10"	"60.32"	"061"	n/a	n/a	n/a	n/a	n/a	n/a	"Trial"	n/a	n/a	n/a	"618"	"arrowleft"	n/a	"NULL"	"NULL"	"NULL"	"stimuli/Ebbinghaus_0.35714_0.28000.png"	n/a	"Ebbinghaus"	"arrowleft"	"1184"	"TRUE"	"Ebbinghaus"	"0.3571400000"	"0.2800000000"	"1"	"81"
n/a	"html-keyboard-response"	"179"	"324605"	"0.0-5.0-2.0-0.63"	"f7ytem"	"600"	"1366"	"chrome"	"111.0.0"	"FALSE"	"Windows 10"	"60.32"	"061"	n/a	n/a	n/a	n/a	n/a	n/a	"fixation"	n/a	n/a	n/a	n/a	"NULL"	n/a	"NULL"	"NULL"	"NULL"	"<p style=\"color: black; font-size: 80px; padding-left: 10%; padding-right: 34%; padding-top: 36%; padding-bottom: 33%\">+</p>"	"1442"	n/a	n/a	n/a	n/a	n/a	n/a	n/a	n/a	n/a
n/a	"image-keyboard-response"	"180"	"325289"	"0.0-5.0-2.0-1.63"	"f7ytem"	"600"	"1366"	"chrome"	"111.0.0"	"FALSE"	"Windows 10"	"60.32"	"061"	n/a	n/a	n/a	n/a	n/a	n/a	"Trial"	n/a	n/a	n/a	"684"	"arrowright"	n/a	"NULL"	"NULL"	"NULL"	"stimuli/Ebbinghaus_0.10000_-0.11071.png"	n/a	"Ebbinghaus"	"arrowright"	"1450"	"TRUE"	"Ebbinghaus"	"0.1000000000"	"-0.110710000"	"1"	"82"
n/a	"html-button-response"	"181"	"343887"	"0.0-5.0-3.0"	"f7ytem"	"600"	"1366"	"chrome"	"111.0.0"	"FALSE"	"Windows 10"	"60.32"	"061"	n/a	n/a	n/a	n/a	n/a	n/a	"block_results"	n/a	n/a	n/a	"18596"	"0"	n/a	"NULL"	"NULL"	"NULL"	"<p>Your score for this illusion is <p style=\"color: black; font-size: 48px; font-weight: bold;\">78.4 %</p><hr><p>Can you do better in the next illusion?</p>"	n/a	n/a	n/a	n/a	n/a	n/a	n/a	n/a	n/a	n/a
"TRUE"	"preload"	"182"	"344038"	"0.0-6.0-0.0"	"f7ytem"	"600"	"1366"	"chrome"	"111.0.0"	"FALSE"	"Windows 10"	"60.32"	"061"	n/a	n/a	n/a	n/a	n/a	n/a	n/a	n/a	n/a	n/a	n/a	"NULL"	"FALSE"	"list()"	"list()"	"list()"	n/a	n/a	n/a	n/a	n/a	n/a	n/a	n/a	n/a	n/a	n/a
n/a	"html-keyboard-response"	"183"	"348079"	"0.0-6.0-1.0"	"f7ytem"	"600"	"1366"	"chrome"	"111.0.0"	"FALSE"	"Windows 10"	"60.32"	"061"	n/a	n/a	n/a	n/a	n/a	n/a	n/a	n/a	n/a	n/a	"4039"	"enter"	n/a	"NULL"	"NULL"	"NULL"	"<p><b>Part 2/6</b></p><p>In this part, two horizontal red lines will appear one above the other.</p><p>Your task is to select which <b>line is longer</b> in length as fast as you can, without making errors.</p><p>Don't get distracted by the surrounding black arrows at the end of the red lines!</p><p>Press <b>the UP or the DOWN arrow</b> to indicate where is the longer <b>red line.</b></p><div style='float: center'><img src='materials/instructions/MullerLyer_Demo.png' height='300'></img><p><img src='utils/answer/answer_updown_keyboard.PNG' height='150'></img></p><p class='small'>In this example, the correct answer is the <b>UP arrow</b>.</p></div><p>Are you ready? <b>Press ENTER to start</b></p>"	n/a	n/a	n/a	n/a	n/a	n/a	n/a	n/a	n/a	n/a
n/a	"html-keyboard-response"	"184"	"350006"	"0.0-6.0-2.0-0.0"	"f7ytem"	"600"	"1366"	"chrome"	"111.0.0"	"FALSE"	"Windows 10"	"60.32"	"061"	n/a	n/a	n/a	n/a	n/a	n/a	"fixation"	n/a	n/a	n/a	n/a	"NULL"	n/a	"NULL"	"NULL"	"NULL"	"<p style=\"color: black; font-size: 80px; padding-left: 11%; padding-right: 40%; padding-top: 22%; padding-bottom: 20%\">+</p>"	"1418"	n/a	n/a	n/a	n/a	n/a	n/a	n/a	n/a	n/a
n/a	"image-keyboard-response"	"185"	"350609"	"0.0-6.0-2.0-1.0"	"f7ytem"	"600"	"1366"	"chrome"	"111.0.0"	"FALSE"	"Windows 10"	"60.32"	"061"	n/a	n/a	n/a	n/a	n/a	n/a	"Trial"	n/a	n/a	n/a	"602"	"arrowup"	n/a	"NULL"	"NULL"	"NULL"	"stimuli/MullerLyer_-2.3000_0.14541.png"	n/a	"MullerLyer"	"arrowup"	"1927"	"TRUE"	"MullerLyer"	"-2.300000000"	"0.1454100000"	"2"	"1"
n/a	"html-keyboard-response"	"186"	"351822"	"0.0-6.0-2.0-0.1"	"f7ytem"	"600"	"1366"	"chrome"	"111.0.0"	"FALSE"	"Windows 10"	"60.32"	"061"	n/a	n/a	n/a	n/a	n/a	n/a	"fixation"	n/a	n/a	n/a	n/a	"NULL"	n/a	"NULL"	"NULL"	"NULL"	"<p style=\"color: black; font-size: 80px; padding-left: 35%; padding-right: 12%; padding-top: 18%; padding-bottom: 4%\">+</p>"	"1196"	n/a	n/a	n/a	n/a	n/a	n/a	n/a	n/a	n/a
n/a	"image-keyboard-response"	"187"	"352674"	"0.0-6.0-2.0-1.1"	"f7ytem"	"600"	"1366"	"chrome"	"111.0.0"	"FALSE"	"Windows 10"	"60.32"	"061"	n/a	n/a	n/a	n/a	n/a	n/a	"Trial"	n/a	n/a	n/a	"850"	"arrowdown"	n/a	"NULL"	"NULL"	"NULL"	"stimuli/MullerLyer_8.21429_0.35000.png"	n/a	"MullerLyer"	"arrowup"	"1213"	"FALSE"	"MullerLyer"	"8.2142900000"	"0.3500000000"	"2"	"2"
n/a	"html-keyboard-response"	"188"	"353872"	"0.0-6.0-2.0-0.2"	"f7ytem"	"600"	"1366"	"chrome"	"111.0.0"	"FALSE"	"Windows 10"	"60.32"	"061"	n/a	n/a	n/a	n/a	n/a	n/a	"fixation"	n/a	n/a	n/a	n/a	"NULL"	n/a	"NULL"	"NULL"	"NULL"	"<p style=\"color: black; font-size: 80px; padding-left: 2%; padding-right: 20%; padding-top: 13%; padding-bottom: 27%\">+</p>"	"1189"	n/a	n/a	n/a	n/a	n/a	n/a	n/a	n/a	n/a
n/a	"image-keyboard-response"	"189"	"354608"	"0.0-6.0-2.0-1.2"	"f7ytem"	"600"	"1366"	"chrome"	"111.0.0"	"FALSE"	"Windows 10"	"60.32"	"061"	n/a	n/a	n/a	n/a	n/a	n/a	"Trial"	n/a	n/a	n/a	"735"	"arrowdown"	n/a	"NULL"	"NULL"	"NULL"	"stimuli/MullerLyer_-14.12857_-0.14541.png"	n/a	"MullerLyer"	"arrowdown"	"1198"	"TRUE"	"MullerLyer"	"-14.12857000"	"-0.145410000"	"2"	"3"
n/a	"html-keyboard-response"	"190"	"356081"	"0.0-6.0-2.0-0.3"	"f7ytem"	"600"	"1366"	"chrome"	"111.0.0"	"FALSE"	"Windows 10"	"60.32"	"061"	n/a	n/a	n/a	n/a	n/a	n/a	"fixation"	n/a	n/a	n/a	n/a	"NULL"	n/a	"NULL"	"NULL"	"NULL"	"<p style=\"color: black; font-size: 80px; padding-left: 38%; padding-right: 42%; padding-top: 29%; padding-bottom: 37%\">+</p>"	"1463"	n/a	n/a	n/a	n/a	n/a	n/a	n/a	n/a	n/a
n/a	"image-keyboard-response"	"191"	"356671"	"0.0-6.0-2.0-1.3"	"f7ytem"	"600"	"1366"	"chrome"	"111.0.0"	"FALSE"	"Windows 10"	"60.32"	"061"	n/a	n/a	n/a	n/a	n/a	n/a	"Trial"	n/a	n/a	n/a	"589"	"arrowup"	n/a	"NULL"	"NULL"	"NULL"	"stimuli/MullerLyer_14.12857_-0.23665.png"	n/a	"MullerLyer"	"arrowdown"	"1473"	"FALSE"	"MullerLyer"	"14.128570000"	"-0.236650000"	"2"	"4"
n/a	"html-keyboard-response"	"192"	"357770"	"0.0-6.0-2.0-0.4"	"f7ytem"	"600"	"1366"	"chrome"	"111.0.0"	"FALSE"	"Windows 10"	"60.32"	"061"	n/a	n/a	n/a	n/a	n/a	n/a	"fixation"	n/a	n/a	n/a	n/a	"NULL"	n/a	"NULL"	"NULL"	"NULL"	"<p style=\"color: black; font-size: 80px; padding-left: 8%; padding-right: 50%; padding-top: 27%; padding-bottom: 18%\">+</p>"	"1092"	n/a	n/a	n/a	n/a	n/a	n/a	n/a	n/a	n/a
n/a	"image-keyboard-response"	"193"	"358303"	"0.0-6.0-2.0-1.4"	"f7ytem"	"600"	"1366"	"chrome"	"111.0.0"	"FALSE"	"Windows 10"	"60.32"	"061"	n/a	n/a	n/a	n/a	n/a	n/a	"Trial"	n/a	n/a	n/a	"532"	"arrowup"	n/a	"NULL"	"NULL"	"NULL"	"stimuli/MullerLyer_-14.12857_0.14541.png"	n/a	"MullerLyer"	"arrowup"	"1099"	"TRUE"	"MullerLyer"	"-14.12857000"	"0.1454100000"	"2"	"5"
n/a	"html-keyboard-response"	"194"	"359802"	"0.0-6.0-2.0-0.5"	"f7ytem"	"600"	"1366"	"chrome"	"111.0.0"	"FALSE"	"Windows 10"	"60.32"	"061"	n/a	n/a	n/a	n/a	n/a	n/a	"fixation"	n/a	n/a	n/a	n/a	"NULL"	n/a	"NULL"	"NULL"	"NULL"	"<p style=\"color: black; font-size: 80px; padding-left: 21%; padding-right: 37%; padding-top: 21%; padding-bottom: 37%\">+</p>"	"1497"	n/a	n/a	n/a	n/a	n/a	n/a	n/a	n/a	n/a
n/a	"image-keyboard-response"	"195"	"360372"	"0.0-6.0-2.0-1.5"	"f7ytem"	"600"	"1366"	"chrome"	"111.0.0"	"FALSE"	"Windows 10"	"60.32"	"061"	n/a	n/a	n/a	n/a	n/a	n/a	"Trial"	n/a	n/a	n/a	"569"	"arrowdown"	n/a	"NULL"	"NULL"	"NULL"	"stimuli/MullerLyer_20.04286_0.23665.png"	n/a	"MullerLyer"	"arrowup"	"1499"	"FALSE"	"MullerLyer"	"20.042860000"	"0.2366500000"	"2"	"6"
n/a	"html-keyboard-response"	"196"	"361832"	"0.0-6.0-2.0-0.6"	"f7ytem"	"600"	"1366"	"chrome"	"111.0.0"	"FALSE"	"Windows 10"	"60.32"	"061"	n/a	n/a	n/a	n/a	n/a	n/a	"fixation"	n/a	n/a	n/a	n/a	"NULL"	n/a	"NULL"	"NULL"	"NULL"	"<p style=\"color: black; font-size: 80px; padding-left: 14%; padding-right: 7%; padding-top: 33%; padding-bottom: 8%\">+</p>"	"1456"	n/a	n/a	n/a	n/a	n/a	n/a	n/a	n/a	n/a
n/a	"image-keyboard-response"	"197"	"362285"	"0.0-6.0-2.0-1.6"	"f7ytem"	"600"	"1366"	"chrome"	"111.0.0"	"FALSE"	"Windows 10"	"60.32"	"061"	n/a	n/a	n/a	n/a	n/a	n/a	"Trial"	n/a	n/a	n/a	"452"	"arrowdown"	n/a	"NULL"	"NULL"	"NULL"	"stimuli/MullerLyer_-20.04286_-0.14541.png"	n/a	"MullerLyer"	"arrowdown"	"1460"	"TRUE"	"MullerLyer"	"-20.04286000"	"-0.145410000"	"2"	"7"
n/a	"html-keyboard-response"	"198"	"363527"	"0.0-6.0-2.0-0.7"	"f7ytem"	"600"	"1366"	"chrome"	"111.0.0"	"FALSE"	"Windows 10"	"60.32"	"061"	n/a	n/a	n/a	n/a	n/a	n/a	"fixation"	n/a	n/a	n/a	n/a	"NULL"	n/a	"NULL"	"NULL"	"NULL"	"<p style=\"color: black; font-size: 80px; padding-left: 22%; padding-right: 12%; padding-top: 22%; padding-bottom: 16%\">+</p>"	"1227"	n/a	n/a	n/a	n/a	n/a	n/a	n/a	n/a	n/a
n/a	"image-keyboard-response"	"199"	"364128"	"0.0-6.0-2.0-1.7"	"f7ytem"	"600"	"1366"	"chrome"	"111.0.0"	"FALSE"	"Windows 10"	"60.32"	"061"	n/a	n/a	n/a	n/a	n/a	n/a	"Trial"	n/a	n/a	n/a	"600"	"arrowup"	n/a	"NULL"	"NULL"	"NULL"	"stimuli/MullerLyer_14.12857_-0.14541.png"	n/a	"MullerLyer"	"arrowdown"	"1242"	"FALSE"	"MullerLyer"	"14.128570000"	"-0.145410000"	"2"	"8"
n/a	"html-keyboard-response"	"200"	"365526"	"0.0-6.0-2.0-0.8"	"f7ytem"	"600"	"1366"	"chrome"	"111.0.0"	"FALSE"	"Windows 10"	"60.32"	"061"	n/a	n/a	n/a	n/a	n/a	n/a	"fixation"	n/a	n/a	n/a	n/a	"NULL"	n/a	"NULL"	"NULL"	"NULL"	"<p style=\"color: black; font-size: 80px; padding-left: 31%; padding-right: 43%; padding-top: 22%; padding-bottom: 3%\">+</p>"	"1390"	n/a	n/a	n/a	n/a	n/a	n/a	n/a	n/a	n/a
n/a	"image-keyboard-response"	"201"	"366039"	"0.0-6.0-2.0-1.8"	"f7ytem"	"600"	"1366"	"chrome"	"111.0.0"	"FALSE"	"Windows 10"	"60.32"	"061"	n/a	n/a	n/a	n/a	n/a	n/a	"Trial"	n/a	n/a	n/a	"513"	"arrowdown"	n/a	"NULL"	"NULL"	"NULL"	"stimuli/MullerLyer_14.12857_0.14541.png"	n/a	"MullerLyer"	"arrowup"	"1398"	"FALSE"	"MullerLyer"	"14.128570000"	"0.1454100000"	"2"	"9"
n/a	"html-keyboard-response"	"202"	"367404"	"0.0-6.0-2.0-0.9"	"f7ytem"	"600"	"1366"	"chrome"	"111.0.0"	"FALSE"	"Windows 10"	"60.32"	"061"	n/a	n/a	n/a	n/a	n/a	n/a	"fixation"	n/a	n/a	n/a	n/a	"NULL"	n/a	"NULL"	"NULL"	"NULL"	"<p style=\"color: black; font-size: 80px; padding-left: 35%; padding-right: 20%; padding-top: 49%; padding-bottom: 27%\">+</p>"	"1353"	n/a	n/a	n/a	n/a	n/a	n/a	n/a	n/a	n/a
n/a	"image-keyboard-response"	"203"	"368103"	"0.0-6.0-2.0-1.9"	"f7ytem"	"600"	"1366"	"chrome"	"111.0.0"	"FALSE"	"Windows 10"	"60.32"	"061"	n/a	n/a	n/a	n/a	n/a	n/a	"Trial"	n/a	n/a	n/a	"698"	"arrowup"	n/a	"NULL"	"NULL"	"NULL"	"stimuli/MullerLyer_-8.21429_0.35000.png"	n/a	"MullerLyer"	"arrowup"	"1365"	"TRUE"	"MullerLyer"	"-8.214290000"	"0.3500000000"	"2"	"10"
n/a	"html-keyboard-response"	"204"	"369116"	"0.0-6.0-2.0-0.10"	"f7ytem"	"600"	"1366"	"chrome"	"111.0.0"	"FALSE"	"Windows 10"	"60.32"	"061"	n/a	n/a	n/a	n/a	n/a	n/a	"fixation"	n/a	n/a	n/a	n/a	"NULL"	n/a	"NULL"	"NULL"	"NULL"	"<p style=\"color: black; font-size: 80px; padding-left: 42%; padding-right: 11%; padding-top: 39%; padding-bottom: 27%\">+</p>"	"1003"	n/a	n/a	n/a	n/a	n/a	n/a	n/a	n/a	n/a
n/a	"image-keyboard-response"	"205"	"369632"	"0.0-6.0-2.0-1.10"	"f7ytem"	"600"	"1366"	"chrome"	"111.0.0"	"FALSE"	"Windows 10"	"60.32"	"061"	n/a	n/a	n/a	n/a	n/a	n/a	"Trial"	n/a	n/a	n/a	"515"	"arrowdown"	n/a	"NULL"	"NULL"	"NULL"	"stimuli/MullerLyer_-2.3000_-0.07627.png"	n/a	"MullerLyer"	"arrowdown"	"1013"	"TRUE"	"MullerLyer"	"-2.300000000"	"-0.076270000"	"2"	"11"
n/a	"html-keyboard-response"	"206"	"370818"	"0.0-6.0-2.0-0.11"	"f7ytem"	"600"	"1366"	"chrome"	"111.0.0"	"FALSE"	"Windows 10"	"60.32"	"061"	n/a	n/a	n/a	n/a	n/a	n/a	"fixation"	n/a	n/a	n/a	n/a	"NULL"	n/a	"NULL"	"NULL"	"NULL"	"<p style=\"color: black; font-size: 80px; padding-left: 14%; padding-right: 0%; padding-top: 39%; padding-bottom: 25%\">+</p>"	"1180"	n/a	n/a	n/a	n/a	n/a	n/a	n/a	n/a	n/a
n/a	"image-keyboard-response"	"207"	"371406"	"0.0-6.0-2.0-1.11"	"f7ytem"	"600"	"1366"	"chrome"	"111.0.0"	"FALSE"	"Windows 10"	"60.32"	"061"	n/a	n/a	n/a	n/a	n/a	n/a	"Trial"	n/a	n/a	n/a	"587"	"arrowup"	n/a	"NULL"	"NULL"	"NULL"	"stimuli/MullerLyer_2.30000_0.14541.png"	n/a	"MullerLyer"	"arrowup"	"1186"	"TRUE"	"MullerLyer"	"2.3000000000"	"0.1454100000"	"2"	"12"
n/a	"html-keyboard-response"	"208"	"372614"	"0.0-6.0-2.0-0.12"	"f7ytem"	"600"	"1366"	"chrome"	"111.0.0"	"FALSE"	"Windows 10"	"60.32"	"061"	n/a	n/a	n/a	n/a	n/a	n/a	"fixation"	n/a	n/a	n/a	n/a	"NULL"	n/a	"NULL"	"NULL"	"NULL"	"<p style=\"color: black; font-size: 80px; padding-left: 32%; padding-right: 42%; padding-top: 47%; padding-bottom: 6%\">+</p>"	"1198"	n/a	n/a	n/a	n/a	n/a	n/a	n/a	n/a	n/a
n/a	"image-keyboard-response"	"209"	"373076"	"0.0-6.0-2.0-1.12"	"f7ytem"	"600"	"1366"	"chrome"	"111.0.0"	"FALSE"	"Windows 10"	"60.32"	"061"	n/a	n/a	n/a	n/a	n/a	n/a	"Trial"	n/a	n/a	n/a	"461"	"arrowdown"	n/a	"NULL"	"NULL"	"NULL"	"stimuli/MullerLyer_-20.04286_-0.23665.png"	n/a	"MullerLyer"	"arrowdown"	"1208"	"TRUE"	"MullerLyer"	"-20.04286000"	"-0.236650000"	"2"	"13"
n/a	"html-keyboard-response"	"210"	"374439"	"0.0-6.0-2.0-0.13"	"f7ytem"	"600"	"1366"	"chrome"	"111.0.0"	"FALSE"	"Windows 10"	"60.32"	"061"	n/a	n/a	n/a	n/a	n/a	n/a	"fixation"	n/a	n/a	n/a	n/a	"NULL"	n/a	"NULL"	"NULL"	"NULL"	"<p style=\"color: black; font-size: 80px; padding-left: 27%; padding-right: 17%; padding-top: 7%; padding-bottom: 49%\">+</p>"	"1355"	n/a	n/a	n/a	n/a	n/a	n/a	n/a	n/a	n/a
n/a	"image-keyboard-response"	"211"	"374856"	"0.0-6.0-2.0-1.13"	"f7ytem"	"600"	"1366"	"chrome"	"111.0.0"	"FALSE"	"Windows 10"	"60.32"	"061"	n/a	n/a	n/a	n/a	n/a	n/a	"Trial"	n/a	n/a	n/a	"416"	"arrowup"	n/a	"NULL"	"NULL"	"NULL"	"stimuli/MullerLyer_-20.04286_0.23665.png"	n/a	"MullerLyer"	"arrowup"	"1363"	"TRUE"	"MullerLyer"	"-20.04286000"	"0.2366500000"	"2"	"14"
n/a	"html-keyboard-response"	"212"	"375868"	"0.0-6.0-2.0-0.14"	"f7ytem"	"600"	"1366"	"chrome"	"111.0.0"	"FALSE"	"Windows 10"	"60.32"	"061"	n/a	n/a	n/a	n/a	n/a	n/a	"fixation"	n/a	n/a	n/a	n/a	"NULL"	n/a	"NULL"	"NULL"	"NULL"	"<p style=\"color: black; font-size: 80px; padding-left: 1%; padding-right: 40%; padding-top: 14%; padding-bottom: 31%\">+</p>"	"1006"	n/a	n/a	n/a	n/a	n/a	n/a	n/a	n/a	n/a
n/a	"image-keyboard-response"	"213"	"376474"	"0.0-6.0-2.0-1.14"	"f7ytem"	"600"	"1366"	"chrome"	"111.0.0"	"FALSE"	"Windows 10"	"60.32"	"061"	n/a	n/a	n/a	n/a	n/a	n/a	"Trial"	n/a	n/a	n/a	"606"	"arrowdown"	n/a	"NULL"	"NULL"	"NULL"	"stimuli/MullerLyer_20.04286_-0.3500.png"	n/a	"MullerLyer"	"arrowdown"	"1012"	"TRUE"	"MullerLyer"	"20.042860000"	"-0.350000000"	"2"	"15"
n/a	"html-keyboard-response"	"214"	"377832"	"0.0-6.0-2.0-0.15"	"f7ytem"	"600"	"1366"	"chrome"	"111.0.0"	"FALSE"	"Windows 10"	"60.32"	"061"	n/a	n/a	n/a	n/a	n/a	n/a	"fixation"	n/a	n/a	n/a	n/a	"NULL"	n/a	"NULL"	"NULL"	"NULL"	"<p style=\"color: black; font-size: 80px; padding-left: 49%; padding-right: 28%; padding-top: 44%; padding-bottom: 45%\">+</p>"	"1342"	n/a	n/a	n/a	n/a	n/a	n/a	n/a	n/a	n/a
n/a	"image-keyboard-response"	"215"	"378313"	"0.0-6.0-2.0-1.15"	"f7ytem"	"600"	"1366"	"chrome"	"111.0.0"	"FALSE"	"Windows 10"	"60.32"	"061"	n/a	n/a	n/a	n/a	n/a	n/a	"Trial"	n/a	n/a	n/a	"480"	"arrowup"	n/a	"NULL"	"NULL"	"NULL"	"stimuli/MullerLyer_14.12857_-0.07627.png"	n/a	"MullerLyer"	"arrowdown"	"1358"	"FALSE"	"MullerLyer"	"14.128570000"	"-0.076270000"	"2"	"16"
n/a	"html-keyboard-response"	"216"	"379436"	"0.0-6.0-2.0-0.16"	"f7ytem"	"600"	"1366"	"chrome"	"111.0.0"	"FALSE"	"Windows 10"	"60.32"	"061"	n/a	n/a	n/a	n/a	n/a	n/a	"fixation"	n/a	n/a	n/a	n/a	"NULL"	n/a	"NULL"	"NULL"	"NULL"	"<p style=\"color: black; font-size: 80px; padding-left: 40%; padding-right: 49%; padding-top: 40%; padding-bottom: 23%\">+</p>"	"1121"	n/a	n/a	n/a	n/a	n/a	n/a	n/a	n/a	n/a
n/a	"image-keyboard-response"	"217"	"379957"	"0.0-6.0-2.0-1.16"	"f7ytem"	"600"	"1366"	"chrome"	"111.0.0"	"FALSE"	"Windows 10"	"60.32"	"061"	n/a	n/a	n/a	n/a	n/a	n/a	"Trial"	n/a	n/a	n/a	"520"	"arrowup"	n/a	"NULL"	"NULL"	"NULL"	"stimuli/MullerLyer_-20.04286_0.35000.png"	n/a	"MullerLyer"	"arrowup"	"1123"	"TRUE"	"MullerLyer"	"-20.04286000"	"0.3500000000"	"2"	"17"
n/a	"html-keyboard-response"	"218"	"381444"	"0.0-6.0-2.0-0.17"	"f7ytem"	"600"	"1366"	"chrome"	"111.0.0"	"FALSE"	"Windows 10"	"60.32"	"061"	n/a	n/a	n/a	n/a	n/a	n/a	"fixation"	n/a	n/a	n/a	n/a	"NULL"	n/a	"NULL"	"NULL"	"NULL"	"<p style=\"color: black; font-size: 80px; padding-left: 35%; padding-right: 44%; padding-top: 27%; padding-bottom: 33%\">+</p>"	"1482"	n/a	n/a	n/a	n/a	n/a	n/a	n/a	n/a	n/a
n/a	"image-keyboard-response"	"219"	"381994"	"0.0-6.0-2.0-1.17"	"f7ytem"	"600"	"1366"	"chrome"	"111.0.0"	"FALSE"	"Windows 10"	"60.32"	"061"	n/a	n/a	n/a	n/a	n/a	n/a	"Trial"	n/a	n/a	n/a	"550"	"arrowdown"	n/a	"NULL"	"NULL"	"NULL"	"stimuli/MullerLyer_2.30000_-0.14541.png"	n/a	"MullerLyer"	"arrowdown"	"1487"	"TRUE"	"MullerLyer"	"2.3000000000"	"-0.145410000"	"2"	"18"
n/a	"html-keyboard-response"	"220"	"383056"	"0.0-6.0-2.0-0.18"	"f7ytem"	"600"	"1366"	"chrome"	"111.0.0"	"FALSE"	"Windows 10"	"60.32"	"061"	n/a	n/a	n/a	n/a	n/a	n/a	"fixation"	n/a	n/a	n/a	n/a	"NULL"	n/a	"NULL"	"NULL"	"NULL"	"<p style=\"color: black; font-size: 80px; padding-left: 33%; padding-right: 26%; padding-top: 20%; padding-bottom: 23%\">+</p>"	"1055"	n/a	n/a	n/a	n/a	n/a	n/a	n/a	n/a	n/a
n/a	"image-keyboard-response"	"221"	"383594"	"0.0-6.0-2.0-1.18"	"f7ytem"	"600"	"1366"	"chrome"	"111.0.0"	"FALSE"	"Windows 10"	"60.32"	"061"	n/a	n/a	n/a	n/a	n/a	n/a	"Trial"	n/a	n/a	n/a	"537"	"arrowdown"	n/a	"NULL"	"NULL"	"NULL"	"stimuli/MullerLyer_-14.12857_-0.07627.png"	n/a	"MullerLyer"	"arrowdown"	"1062"	"TRUE"	"MullerLyer"	"-14.12857000"	"-0.076270000"	"2"	"19"
n/a	"html-keyboard-response"	"222"	"384664"	"0.0-6.0-2.0-0.19"	"f7ytem"	"600"	"1366"	"chrome"	"111.0.0"	"FALSE"	"Windows 10"	"60.32"	"061"	n/a	n/a	n/a	n/a	n/a	n/a	"fixation"	n/a	n/a	n/a	n/a	"NULL"	n/a	"NULL"	"NULL"	"NULL"	"<p style=\"color: black; font-size: 80px; padding-left: 2%; padding-right: 28%; padding-top: 4%; padding-bottom: 31%\">+</p>"	"1063"	n/a	n/a	n/a	n/a	n/a	n/a	n/a	n/a	n/a
n/a	"image-keyboard-response"	"223"	"385152"	"0.0-6.0-2.0-1.19"	"f7ytem"	"600"	"1366"	"chrome"	"111.0.0"	"FALSE"	"Windows 10"	"60.32"	"061"	n/a	n/a	n/a	n/a	n/a	n/a	"Trial"	n/a	n/a	n/a	"487"	"arrowup"	n/a	"NULL"	"NULL"	"NULL"	"stimuli/MullerLyer_2.30000_0.35000.png"	n/a	"MullerLyer"	"arrowup"	"1070"	"TRUE"	"MullerLyer"	"2.3000000000"	"0.3500000000"	"2"	"20"
n/a	"html-keyboard-response"	"224"	"386475"	"0.0-6.0-2.0-0.20"	"f7ytem"	"600"	"1366"	"chrome"	"111.0.0"	"FALSE"	"Windows 10"	"60.32"	"061"	n/a	n/a	n/a	n/a	n/a	n/a	"fixation"	n/a	n/a	n/a	n/a	"NULL"	n/a	"NULL"	"NULL"	"NULL"	"<p style=\"color: black; font-size: 80px; padding-left: 9%; padding-right: 10%; padding-top: 32%; padding-bottom: 48%\">+</p>"	"1313"	n/a	n/a	n/a	n/a	n/a	n/a	n/a	n/a	n/a
n/a	"image-keyboard-response"	"225"	"387034"	"0.0-6.0-2.0-1.20"	"f7ytem"	"600"	"1366"	"chrome"	"111.0.0"	"FALSE"	"Windows 10"	"60.32"	"061"	n/a	n/a	n/a	n/a	n/a	n/a	"Trial"	n/a	n/a	n/a	"558"	"arrowdown"	n/a	"NULL"	"NULL"	"NULL"	"stimuli/MullerLyer_-14.12857_-0.23665.png"	n/a	"MullerLyer"	"arrowdown"	"1323"	"TRUE"	"MullerLyer"	"-14.12857000"	"-0.236650000"	"2"	"21"
n/a	"html-keyboard-response"	"226"	"388107"	"0.0-6.0-2.0-0.21"	"f7ytem"	"600"	"1366"	"chrome"	"111.0.0"	"FALSE"	"Windows 10"	"60.32"	"061"	n/a	n/a	n/a	n/a	n/a	n/a	"fixation"	n/a	n/a	n/a	n/a	"NULL"	n/a	"NULL"	"NULL"	"NULL"	"<p style=\"color: black; font-size: 80px; padding-left: 28%; padding-right: 18%; padding-top: 15%; padding-bottom: 23%\">+</p>"	"1067"	n/a	n/a	n/a	n/a	n/a	n/a	n/a	n/a	n/a
n/a	"image-keyboard-response"	"227"	"388584"	"0.0-6.0-2.0-1.21"	"f7ytem"	"600"	"1366"	"chrome"	"111.0.0"	"FALSE"	"Windows 10"	"60.32"	"061"	n/a	n/a	n/a	n/a	n/a	n/a	"Trial"	n/a	n/a	n/a	"477"	"arrowup"	n/a	"NULL"	"NULL"	"NULL"	"stimuli/MullerLyer_-8.21429_0.14541.png"	n/a	"MullerLyer"	"arrowup"	"1073"	"TRUE"	"MullerLyer"	"-8.214290000"	"0.1454100000"	"2"	"22"
n/a	"html-keyboard-response"	"228"	"389983"	"0.0-6.0-2.0-0.22"	"f7ytem"	"600"	"1366"	"chrome"	"111.0.0"	"FALSE"	"Windows 10"	"60.32"	"061"	n/a	n/a	n/a	n/a	n/a	n/a	"fixation"	n/a	n/a	n/a	n/a	"NULL"	n/a	"NULL"	"NULL"	"NULL"	"<p style=\"color: black; font-size: 80px; padding-left: 44%; padding-right: 22%; padding-top: 47%; padding-bottom: 0%\">+</p>"	"1386"	n/a	n/a	n/a	n/a	n/a	n/a	n/a	n/a	n/a
n/a	"image-keyboard-response"	"229"	"390607"	"0.0-6.0-2.0-1.22"	"f7ytem"	"600"	"1366"	"chrome"	"111.0.0"	"FALSE"	"Windows 10"	"60.32"	"061"	n/a	n/a	n/a	n/a	n/a	n/a	"Trial"	n/a	n/a	n/a	"622"	"arrowup"	n/a	"NULL"	"NULL"	"NULL"	"stimuli/MullerLyer_14.12857_0.35000.png"	n/a	"MullerLyer"	"arrowup"	"1399"	"TRUE"	"MullerLyer"	"14.128570000"	"0.3500000000"	"2"	"23"
n/a	"html-keyboard-response"	"230"	"391864"	"0.0-6.0-2.0-0.23"	"f7ytem"	"600"	"1366"	"chrome"	"111.0.0"	"FALSE"	"Windows 10"	"60.32"	"061"	n/a	n/a	n/a	n/a	n/a	n/a	"fixation"	n/a	n/a	n/a	n/a	"NULL"	n/a	"NULL"	"NULL"	"NULL"	"<p style=\"color: black; font-size: 80px; padding-left: 14%; padding-right: 33%; padding-top: 3%; padding-bottom: 3%\">+</p>"	"1253"	n/a	n/a	n/a	n/a	n/a	n/a	n/a	n/a	n/a
n/a	"image-keyboard-response"	"231"	"392417"	"0.0-6.0-2.0-1.23"	"f7ytem"	"600"	"1366"	"chrome"	"111.0.0"	"FALSE"	"Windows 10"	"60.32"	"061"	n/a	n/a	n/a	n/a	n/a	n/a	"Trial"	n/a	n/a	n/a	"552"	"arrowdown"	n/a	"NULL"	"NULL"	"NULL"	"stimuli/MullerLyer_-2.3000_-0.14541.png"	n/a	"MullerLyer"	"arrowdown"	"1257"	"TRUE"	"MullerLyer"	"-2.300000000"	"-0.145410000"	"2"	"24"
n/a	"html-keyboard-response"	"232"	"393536"	"0.0-6.0-2.0-0.24"	"f7ytem"	"600"	"1366"	"chrome"	"111.0.0"	"FALSE"	"Windows 10"	"60.32"	"061"	n/a	n/a	n/a	n/a	n/a	n/a	"fixation"	n/a	n/a	n/a	n/a	"NULL"	n/a	"NULL"	"NULL"	"NULL"	"<p style=\"color: black; font-size: 80px; padding-left: 2%; padding-right: 21%; padding-top: 34%; padding-bottom: 19%\">+</p>"	"1110"	n/a	n/a	n/a	n/a	n/a	n/a	n/a	n/a	n/a
n/a	"image-keyboard-response"	"233"	"394033"	"0.0-6.0-2.0-1.24"	"f7ytem"	"600"	"1366"	"chrome"	"111.0.0"	"FALSE"	"Windows 10"	"60.32"	"061"	n/a	n/a	n/a	n/a	n/a	n/a	"Trial"	n/a	n/a	n/a	"497"	"arrowdown"	n/a	"NULL"	"NULL"	"NULL"	"stimuli/MullerLyer_-2.3000_-0.23665.png"	n/a	"MullerLyer"	"arrowdown"	"1119"	"TRUE"	"MullerLyer"	"-2.300000000"	"-0.236650000"	"2"	"25"
n/a	"html-keyboard-response"	"234"	"395458"	"0.0-6.0-2.0-0.25"	"f7ytem"	"600"	"1366"	"chrome"	"111.0.0"	"FALSE"	"Windows 10"	"60.32"	"061"	n/a	n/a	n/a	n/a	n/a	n/a	"fixation"	n/a	n/a	n/a	n/a	"NULL"	n/a	"NULL"	"NULL"	"NULL"	"<p style=\"color: black; font-size: 80px; padding-left: 11%; padding-right: 6%; padding-top: 43%; padding-bottom: 4%\">+</p>"	"1411"	n/a	n/a	n/a	n/a	n/a	n/a	n/a	n/a	n/a
n/a	"image-keyboard-response"	"235"	"396012"	"0.0-6.0-2.0-1.25"	"f7ytem"	"600"	"1366"	"chrome"	"111.0.0"	"FALSE"	"Windows 10"	"60.32"	"061"	n/a	n/a	n/a	n/a	n/a	n/a	"Trial"	n/a	n/a	n/a	"553"	"arrowup"	n/a	"NULL"	"NULL"	"NULL"	"stimuli/MullerLyer_20.04286_-0.14541.png"	n/a	"MullerLyer"	"arrowdown"	"1425"	"FALSE"	"MullerLyer"	"20.042860000"	"-0.145410000"	"2"	"26"
n/a	"html-keyboard-response"	"236"	"397222"	"0.0-6.0-2.0-0.26"	"f7ytem"	"600"	"1366"	"chrome"	"111.0.0"	"FALSE"	"Windows 10"	"60.32"	"061"	n/a	n/a	n/a	n/a	n/a	n/a	"fixation"	n/a	n/a	n/a	n/a	"NULL"	n/a	"NULL"	"NULL"	"NULL"	"<p style=\"color: black; font-size: 80px; padding-left: 2%; padding-right: 34%; padding-top: 32%; padding-bottom: 28%\">+</p>"	"1195"	n/a	n/a	n/a	n/a	n/a	n/a	n/a	n/a	n/a
n/a	"image-keyboard-response"	"237"	"397661"	"0.0-6.0-2.0-1.26"	"f7ytem"	"600"	"1366"	"chrome"	"111.0.0"	"FALSE"	"Windows 10"	"60.32"	"061"	n/a	n/a	n/a	n/a	n/a	n/a	"Trial"	n/a	n/a	n/a	"438"	"arrowdown"	n/a	"NULL"	"NULL"	"NULL"	"stimuli/MullerLyer_-20.04286_-0.07627.png"	n/a	"MullerLyer"	"arrowdown"	"1210"	"TRUE"	"MullerLyer"	"-20.04286000"	"-0.076270000"	"2"	"27"
n/a	"html-keyboard-response"	"238"	"398943"	"0.0-6.0-2.0-0.27"	"f7ytem"	"600"	"1366"	"chrome"	"111.0.0"	"FALSE"	"Windows 10"	"60.32"	"061"	n/a	n/a	n/a	n/a	n/a	n/a	"fixation"	n/a	n/a	n/a	n/a	"NULL"	n/a	"NULL"	"NULL"	"NULL"	"<p style=\"color: black; font-size: 80px; padding-left: 10%; padding-right: 44%; padding-top: 20%; padding-bottom: 50%\">+</p>"	"1273"	n/a	n/a	n/a	n/a	n/a	n/a	n/a	n/a	n/a
n/a	"image-keyboard-response"	"239"	"399311"	"0.0-6.0-2.0-1.27"	"f7ytem"	"600"	"1366"	"chrome"	"111.0.0"	"FALSE"	"Windows 10"	"60.32"	"061"	n/a	n/a	n/a	n/a	n/a	n/a	"Trial"	n/a	n/a	n/a	"367"	"arrowup"	n/a	"NULL"	"NULL"	"NULL"	"stimuli/MullerLyer_-20.04286_0.14541.png"	n/a	"MullerLyer"	"arrowup"	"1282"	"TRUE"	"MullerLyer"	"-20.04286000"	"0.1454100000"	"2"	"28"
n/a	"html-keyboard-response"	"240"	"400452"	"0.0-6.0-2.0-0.28"	"f7ytem"	"600"	"1366"	"chrome"	"111.0.0"	"FALSE"	"Windows 10"	"60.32"	"061"	n/a	n/a	n/a	n/a	n/a	n/a	"fixation"	n/a	n/a	n/a	n/a	"NULL"	n/a	"NULL"	"NULL"	"NULL"	"<p style=\"color: black; font-size: 80px; padding-left: 1%; padding-right: 1%; padding-top: 47%; padding-bottom: 20%\">+</p>"	"1129"	n/a	n/a	n/a	n/a	n/a	n/a	n/a	n/a	n/a
n/a	"image-keyboard-response"	"241"	"400819"	"0.0-6.0-2.0-1.28"	"f7ytem"	"600"	"1366"	"chrome"	"111.0.0"	"FALSE"	"Windows 10"	"60.32"	"061"	n/a	n/a	n/a	n/a	n/a	n/a	"Trial"	n/a	n/a	n/a	"367"	"arrowdown"	n/a	"NULL"	"NULL"	"NULL"	"stimuli/MullerLyer_-14.12857_-0.3500.png"	n/a	"MullerLyer"	"arrowdown"	"1141"	"TRUE"	"MullerLyer"	"-14.12857000"	"-0.350000000"	"2"	"29"
n/a	"html-keyboard-response"	"242"	"402319"	"0.0-6.0-2.0-0.29"	"f7ytem"	"600"	"1366"	"chrome"	"111.0.0"	"FALSE"	"Windows 10"	"60.32"	"061"	n/a	n/a	n/a	n/a	n/a	n/a	"fixation"	n/a	n/a	n/a	n/a	"NULL"	n/a	"NULL"	"NULL"	"NULL"	"<p style=\"color: black; font-size: 80px; padding-left: 10%; padding-right: 39%; padding-top: 29%; padding-bottom: 35%\">+</p>"	"1492"	n/a	n/a	n/a	n/a	n/a	n/a	n/a	n/a	n/a
n/a	"image-keyboard-response"	"243"	"402686"	"0.0-6.0-2.0-1.29"	"f7ytem"	"600"	"1366"	"chrome"	"111.0.0"	"FALSE"	"Windows 10"	"60.32"	"061"	n/a	n/a	n/a	n/a	n/a	n/a	"Trial"	n/a	n/a	n/a	"366"	"arrowup"	n/a	"NULL"	"NULL"	"NULL"	"stimuli/MullerLyer_8.21429_0.23665.png"	n/a	"MullerLyer"	"arrowup"	"1500"	"TRUE"	"MullerLyer"	"8.2142900000"	"0.2366500000"	"2"	"30"
n/a	"html-keyboard-response"	"244"	"404125"	"0.0-6.0-2.0-0.30"	"f7ytem"	"600"	"1366"	"chrome"	"111.0.0"	"FALSE"	"Windows 10"	"60.32"	"061"	n/a	n/a	n/a	n/a	n/a	n/a	"fixation"	n/a	n/a	n/a	n/a	"NULL"	n/a	"NULL"	"NULL"	"NULL"	"<p style=\"color: black; font-size: 80px; padding-left: 14%; padding-right: 18%; padding-top: 40%; padding-bottom: 24%\">+</p>"	"1426"	n/a	n/a	n/a	n/a	n/a	n/a	n/a	n/a	n/a
n/a	"image-keyboard-response"	"245"	"404629"	"0.0-6.0-2.0-1.30"	"f7ytem"	"600"	"1366"	"chrome"	"111.0.0"	"FALSE"	"Windows 10"	"60.32"	"061"	n/a	n/a	n/a	n/a	n/a	n/a	"Trial"	n/a	n/a	n/a	"502"	"arrowup"	n/a	"NULL"	"NULL"	"NULL"	"stimuli/MullerLyer_-2.3000_0.07627.png"	n/a	"MullerLyer"	"arrowup"	"1439"	"TRUE"	"MullerLyer"	"-2.300000000"	"0.0762700000"	"2"	"31"
n/a	"html-keyboard-response"	"246"	"405652"	"0.0-6.0-2.0-0.31"	"f7ytem"	"600"	"1366"	"chrome"	"111.0.0"	"FALSE"	"Windows 10"	"60.32"	"061"	n/a	n/a	n/a	n/a	n/a	n/a	"fixation"	n/a	n/a	n/a	n/a	"NULL"	n/a	"NULL"	"NULL"	"NULL"	"<p style=\"color: black; font-size: 80px; padding-left: 46%; padding-right: 7%; padding-top: 37%; padding-bottom: 47%\">+</p>"	"1020"	n/a	n/a	n/a	n/a	n/a	n/a	n/a	n/a	n/a
n/a	"image-keyboard-response"	"247"	"406112"	"0.0-6.0-2.0-1.31"	"f7ytem"	"600"	"1366"	"chrome"	"111.0.0"	"FALSE"	"Windows 10"	"60.32"	"061"	n/a	n/a	n/a	n/a	n/a	n/a	"Trial"	n/a	n/a	n/a	"460"	"arrowdown"	n/a	"NULL"	"NULL"	"NULL"	"stimuli/MullerLyer_-8.21429_-0.14541.png"	n/a	"MullerLyer"	"arrowdown"	"1023"	"TRUE"	"MullerLyer"	"-8.214290000"	"-0.145410000"	"2"	"32"
n/a	"html-keyboard-response"	"248"	"407477"	"0.0-6.0-2.0-0.32"	"f7ytem"	"600"	"1366"	"chrome"	"111.0.0"	"FALSE"	"Windows 10"	"60.32"	"061"	n/a	n/a	n/a	n/a	n/a	n/a	"fixation"	n/a	n/a	n/a	n/a	"NULL"	n/a	"NULL"	"NULL"	"NULL"	"<p style=\"color: black; font-size: 80px; padding-left: 16%; padding-right: 26%; padding-top: 25%; padding-bottom: 17%\">+</p>"	"1362"	n/a	n/a	n/a	n/a	n/a	n/a	n/a	n/a	n/a
n/a	"image-keyboard-response"	"249"	"407839"	"0.0-6.0-2.0-1.32"	"f7ytem"	"600"	"1366"	"chrome"	"111.0.0"	"FALSE"	"Windows 10"	"60.32"	"061"	n/a	n/a	n/a	n/a	n/a	n/a	"Trial"	n/a	n/a	n/a	"362"	"arrowup"	n/a	"NULL"	"NULL"	"NULL"	"stimuli/MullerLyer_20.04286_0.07627.png"	n/a	"MullerLyer"	"arrowup"	"1365"	"TRUE"	"MullerLyer"	"20.042860000"	"0.0762700000"	"2"	"33"
n/a	"html-keyboard-response"	"250"	"408964"	"0.0-6.0-2.0-0.33"	"f7ytem"	"600"	"1366"	"chrome"	"111.0.0"	"FALSE"	"Windows 10"	"60.32"	"061"	n/a	n/a	n/a	n/a	n/a	n/a	"fixation"	n/a	n/a	n/a	n/a	"NULL"	n/a	"NULL"	"NULL"	"NULL"	"<p style=\"color: black; font-size: 80px; padding-left: 45%; padding-right: 33%; padding-top: 33%; padding-bottom: 13%\">+</p>"	"1124"	n/a	n/a	n/a	n/a	n/a	n/a	n/a	n/a	n/a
n/a	"image-keyboard-response"	"251"	"409468"	"0.0-6.0-2.0-1.33"	"f7ytem"	"600"	"1366"	"chrome"	"111.0.0"	"FALSE"	"Windows 10"	"60.32"	"061"	n/a	n/a	n/a	n/a	n/a	n/a	"Trial"	n/a	n/a	n/a	"503"	"arrowup"	n/a	"NULL"	"NULL"	"NULL"	"stimuli/MullerLyer_-14.12857_0.35000.png"	n/a	"MullerLyer"	"arrowup"	"1125"	"TRUE"	"MullerLyer"	"-14.12857000"	"0.3500000000"	"2"	"34"
n/a	"html-keyboard-response"	"252"	"410806"	"0.0-6.0-2.0-0.34"	"f7ytem"	"600"	"1366"	"chrome"	"111.0.0"	"FALSE"	"Windows 10"	"60.32"	"061"	n/a	n/a	n/a	n/a	n/a	n/a	"fixation"	n/a	n/a	n/a	n/a	"NULL"	n/a	"NULL"	"NULL"	"NULL"	"<p style=\"color: black; font-size: 80px; padding-left: 38%; padding-right: 33%; padding-top: 26%; padding-bottom: 35%\">+</p>"	"1323"	n/a	n/a	n/a	n/a	n/a	n/a	n/a	n/a	n/a
n/a	"image-keyboard-response"	"253"	"411254"	"0.0-6.0-2.0-1.34"	"f7ytem"	"600"	"1366"	"chrome"	"111.0.0"	"FALSE"	"Windows 10"	"60.32"	"061"	n/a	n/a	n/a	n/a	n/a	n/a	"Trial"	n/a	n/a	n/a	"447"	"arrowdown"	n/a	"NULL"	"NULL"	"NULL"	"stimuli/MullerLyer_-2.3000_-0.3500.png"	n/a	"MullerLyer"	"arrowdown"	"1338"	"TRUE"	"MullerLyer"	"-2.300000000"	"-0.350000000"	"2"	"35"
