"success"	"trial_type"	"trial_index"	"time_elapsed"	"internal_node_id"	"participant_id"	"screen_height"	"screen_width"	"browser"	"browser_version"	"mobile"	"os"	"vsync_rate"	"subject_id"	"width"	"height"	"webaudio"	"fullscreen"	"webcam"	"microphone"	"screen"	"version"	"date"	"time"	"rt"	"response"	"timeout"	"failed_images"	"failed_audio"	"failed_video"	"stimulus"	"trial_duration"	"block"	"correct_response"	"prestimulus_duration"	"correct"	"type"	"illusion_strength"	"illusion_difference"	"block_number"	"trial_number"
"TRUE"	"fullscreen"	"0"	"1508"	"0.0-0.0"	"wlqrrh"	"600"	"1366"	"chrome"	"111.0.0"	"FALSE"	"Windows 10"	"60.05"	"063"	n/a	n/a	n/a	n/a	n/a	n/a	n/a	n/a	n/a	n/a	n/a	"NULL"	n/a	"NULL"	"NULL"	"NULL"	n/a	n/a	n/a	n/a	n/a	n/a	n/a	n/a	n/a	n/a	n/a
n/a	"browser-check"	"1"	"2522"	"0.0-1.0"	"wlqrrh"	"600"	"1366"	"chrome"	"111.0.0"	"FALSE"	"Windows 10"	"60.05"	"063"	"1366"	"600"	"TRUE"	"TRUE"	"TRUE"	"TRUE"	"browser_info"	"1.0"	"28/03/2023"	"14:59:46"	n/a	"NULL"	n/a	"NULL"	"NULL"	"NULL"	n/a	n/a	n/a	n/a	n/a	n/a	n/a	n/a	n/a	n/a	n/a
n/a	"survey-text"	"2"	"7604"	"0.0-2.0"	"wlqrrh"	"600"	"1366"	"chrome"	"111.0.0"	"FALSE"	"Windows 10"	"60.05"	"063"	n/a	n/a	n/a	n/a	n/a	n/a	"subject_id"	n/a	n/a	n/a	"5079"	"list(subject_id = \"063\")"	n/a	"NULL"	"NULL"	"NULL"	n/a	n/a	n/a	n/a	n/a	n/a	n/a	n/a	n/a	n/a	n/a
"TRUE"	"preload"	"3"	"7613"	"0.0-3.0"	"wlqrrh"	"600"	"1366"	"chrome"	"111.0.0"	"FALSE"	"Windows 10"	"60.05"	"063"	n/a	n/a	n/a	n/a	n/a	n/a	n/a	n/a	n/a	n/a	n/a	"NULL"	"FALSE"	"list()"	"list()"	"list()"	n/a	n/a	n/a	n/a	n/a	n/a	n/a	n/a	n/a	n/a	n/a
n/a	"html-button-response"	"4"	"59104"	"0.0-4.0-0.0"	"wlqrrh"	"600"	"1366"	"chrome"	"111.0.0"	"FALSE"	"Windows 10"	"60.05"	"063"	n/a	n/a	n/a	n/a	n/a	n/a	"illusion_instructions"	n/a	n/a	n/a	"51490"	"0"	n/a	"NULL"	"NULL"	"NULL"	"<p><b>Illusion Game</b></p><p>In this game of speed and reflex, you will need to make <b>visual judgments</b> (for instance, which circle is the biggest, or which line is the longest), as fast and as correctly as possible, while <b>resisting different visual illusions</b>.</p><p>We are going to start with some examples of all the illusions you will encounter in the game.</p>"	n/a	n/a	n/a	n/a	n/a	n/a	n/a	n/a	n/a	n/a
"TRUE"	"preload"	"5"	"59120"	"0.0-4.0-1.0-0.0"	"wlqrrh"	"600"	"1366"	"chrome"	"111.0.0"	"FALSE"	"Windows 10"	"60.05"	"063"	n/a	n/a	n/a	n/a	n/a	n/a	n/a	n/a	n/a	n/a	n/a	"NULL"	"FALSE"	"list()"	"list()"	"list()"	n/a	n/a	n/a	n/a	n/a	n/a	n/a	n/a	n/a	n/a	n/a
n/a	"html-keyboard-response"	"6"	"87303"	"0.0-4.0-1.0-1.0"	"wlqrrh"	"600"	"1366"	"chrome"	"111.0.0"	"FALSE"	"Windows 10"	"60.05"	"063"	n/a	n/a	n/a	n/a	n/a	n/a	n/a	n/a	n/a	n/a	"28181"	"enter"	n/a	"NULL"	"NULL"	"NULL"	"<p><b>Practice</b></p><p>In this part, two red circles will appear side by side on the screen.</p><p>Your task is to select which <b>red circle is bigger</b> in size as fast as you can, without making errors.</p><p>Don't get distracted by the surrounding black circles around the red circles!</p><p>Press <b>the LEFT or the RIGHT arrow</b> to indicate which is the bigger <b>red circle.</b></p><div style='float: center'><img src='materials/instructions/Ebbinghaus_Demo.png' height='300'></img><p><img src='utils/answer/answer_leftright_keyboard.PNG' height='150'></img></p><p class='small'>In this example, the correct answer is the <b>LEFT arrow</b>.</p></div><p>Are you ready? <b>Press ENTER to start</b></p>"	n/a	n/a	n/a	n/a	n/a	n/a	n/a	n/a	n/a	n/a
n/a	"html-keyboard-response"	"7"	"89225"	"0.0-4.0-1.0-2.0-0.0"	"wlqrrh"	"600"	"1366"	"chrome"	"111.0.0"	"FALSE"	"Windows 10"	"60.05"	"063"	n/a	n/a	n/a	n/a	n/a	n/a	"fixation"	n/a	n/a	n/a	n/a	"NULL"	n/a	"NULL"	"NULL"	"NULL"	"<p style=\"color: black; font-size: 80px; padding-left: 5%; padding-right: 49%; padding-top: 38%; padding-bottom: 40%\">+</p>"	"1396"	n/a	n/a	n/a	n/a	n/a	n/a	n/a	n/a	n/a
n/a	"image-keyboard-response"	"8"	"90537"	"0.0-4.0-1.0-2.0-1.0"	"wlqrrh"	"600"	"1366"	"chrome"	"111.0.0"	"FALSE"	"Windows 10"	"60.05"	"063"	n/a	n/a	n/a	n/a	n/a	n/a	"Trial"	n/a	n/a	n/a	"1300"	"arrowleft"	n/a	"NULL"	"NULL"	"NULL"	"stimuli/Ebbinghaus_1000000_1.40000.png"	n/a	"Ebbinghaus"	"arrowleft"	"1922"	"TRUE"	"Ebbinghaus"	"100000000000"	"1.4000000000"	"1"	"1"
n/a	"html-keyboard-response"	"9"	"91903"	"0.0-4.0-1.0-2.0-0.1"	"wlqrrh"	"600"	"1366"	"chrome"	"111.0.0"	"FALSE"	"Windows 10"	"60.05"	"063"	n/a	n/a	n/a	n/a	n/a	n/a	"fixation"	n/a	n/a	n/a	n/a	"NULL"	n/a	"NULL"	"NULL"	"NULL"	"<p style=\"color: black; font-size: 80px; padding-left: 32%; padding-right: 20%; padding-top: 23%; padding-bottom: 34%\">+</p>"	"1360"	n/a	n/a	n/a	n/a	n/a	n/a	n/a	n/a	n/a
n/a	"image-keyboard-response"	"10"	"92629"	"0.0-4.0-1.0-2.0-1.1"	"wlqrrh"	"600"	"1366"	"chrome"	"111.0.0"	"FALSE"	"Windows 10"	"60.05"	"063"	n/a	n/a	n/a	n/a	n/a	n/a	"Trial"	n/a	n/a	n/a	"726"	"arrowright"	n/a	"NULL"	"NULL"	"NULL"	"stimuli/Ebbinghaus_1000000_-1.4000.png"	n/a	"Ebbinghaus"	"arrowright"	"1366"	"TRUE"	"Ebbinghaus"	"100000000000"	"-1.400000000"	"1"	"2"
n/a	"html-keyboard-response"	"11"	"93977"	"0.0-4.0-1.0-2.0-0.2"	"wlqrrh"	"600"	"1366"	"chrome"	"111.0.0"	"FALSE"	"Windows 10"	"60.05"	"063"	n/a	n/a	n/a	n/a	n/a	n/a	"fixation"	n/a	n/a	n/a	n/a	"NULL"	n/a	"NULL"	"NULL"	"NULL"	"<p style=\"color: black; font-size: 80px; padding-left: 9%; padding-right: 29%; padding-top: 5%; padding-bottom: 47%\">+</p>"	"1334"	n/a	n/a	n/a	n/a	n/a	n/a	n/a	n/a	n/a
n/a	"image-keyboard-response"	"12"	"94852"	"0.0-4.0-1.0-2.0-1.2"	"wlqrrh"	"600"	"1366"	"chrome"	"111.0.0"	"FALSE"	"Windows 10"	"60.05"	"063"	n/a	n/a	n/a	n/a	n/a	n/a	"Trial"	n/a	n/a	n/a	"874"	"arrowright"	n/a	"NULL"	"NULL"	"NULL"	"stimuli/Ebbinghaus_0000000_-1.4000.png"	n/a	"Ebbinghaus"	"arrowright"	"1348"	"TRUE"	"Ebbinghaus"	"000000000000"	"-1.400000000"	"1"	"3"
n/a	"html-keyboard-response"	"13"	"95964"	"0.0-4.0-1.0-2.0-0.3"	"wlqrrh"	"600"	"1366"	"chrome"	"111.0.0"	"FALSE"	"Windows 10"	"60.05"	"063"	n/a	n/a	n/a	n/a	n/a	n/a	"fixation"	n/a	n/a	n/a	n/a	"NULL"	n/a	"NULL"	"NULL"	"NULL"	"<p style=\"color: black; font-size: 80px; padding-left: 48%; padding-right: 36%; padding-top: 7%; padding-bottom: 5%\">+</p>"	"1111"	n/a	n/a	n/a	n/a	n/a	n/a	n/a	n/a	n/a
n/a	"image-keyboard-response"	"14"	"96574"	"0.0-4.0-1.0-2.0-1.3"	"wlqrrh"	"600"	"1366"	"chrome"	"111.0.0"	"FALSE"	"Windows 10"	"60.05"	"063"	n/a	n/a	n/a	n/a	n/a	n/a	"Trial"	n/a	n/a	n/a	"609"	"arrowleft"	n/a	"NULL"	"NULL"	"NULL"	"stimuli/Ebbinghaus_-100000_1.40000.png"	n/a	"Ebbinghaus"	"arrowleft"	"1112"	"TRUE"	"Ebbinghaus"	"-10000000000"	"1.4000000000"	"1"	"4"
n/a	"html-keyboard-response"	"15"	"97618"	"0.0-4.0-1.0-2.0-0.4"	"wlqrrh"	"600"	"1366"	"chrome"	"111.0.0"	"FALSE"	"Windows 10"	"60.05"	"063"	n/a	n/a	n/a	n/a	n/a	n/a	"fixation"	n/a	n/a	n/a	n/a	"NULL"	n/a	"NULL"	"NULL"	"NULL"	"<p style=\"color: black; font-size: 80px; padding-left: 41%; padding-right: 21%; padding-top: 6%; padding-bottom: 33%\">+</p>"	"1039"	n/a	n/a	n/a	n/a	n/a	n/a	n/a	n/a	n/a
n/a	"image-keyboard-response"	"16"	"98132"	"0.0-4.0-1.0-2.0-1.4"	"wlqrrh"	"600"	"1366"	"chrome"	"111.0.0"	"FALSE"	"Windows 10"	"60.05"	"063"	n/a	n/a	n/a	n/a	n/a	n/a	"Trial"	n/a	n/a	n/a	"513"	"arrowleft"	n/a	"NULL"	"NULL"	"NULL"	"stimuli/Ebbinghaus_0000000_1.40000.png"	n/a	"Ebbinghaus"	"arrowleft"	"1044"	"TRUE"	"Ebbinghaus"	"000000000000"	"1.4000000000"	"1"	"5"
n/a	"html-keyboard-response"	"17"	"99414"	"0.0-4.0-1.0-2.0-0.5"	"wlqrrh"	"600"	"1366"	"chrome"	"111.0.0"	"FALSE"	"Windows 10"	"60.05"	"063"	n/a	n/a	n/a	n/a	n/a	n/a	"fixation"	n/a	n/a	n/a	n/a	"NULL"	n/a	"NULL"	"NULL"	"NULL"	"<p style=\"color: black; font-size: 80px; padding-left: 15%; padding-right: 8%; padding-top: 45%; padding-bottom: 27%\">+</p>"	"1268"	n/a	n/a	n/a	n/a	n/a	n/a	n/a	n/a	n/a
n/a	"image-keyboard-response"	"18"	"100012"	"0.0-4.0-1.0-2.0-1.5"	"wlqrrh"	"600"	"1366"	"chrome"	"111.0.0"	"FALSE"	"Windows 10"	"60.05"	"063"	n/a	n/a	n/a	n/a	n/a	n/a	"Trial"	n/a	n/a	n/a	"598"	"arrowright"	n/a	"NULL"	"NULL"	"NULL"	"stimuli/Ebbinghaus_-100000_-1.4000.png"	n/a	"Ebbinghaus"	"arrowright"	"1282"	"TRUE"	"Ebbinghaus"	"-10000000000"	"-1.400000000"	"1"	"6"
n/a	"html-button-response"	"19"	"103504"	"0.0-4.0-1.0-3.0"	"wlqrrh"	"600"	"1366"	"chrome"	"111.0.0"	"FALSE"	"Windows 10"	"60.05"	"063"	n/a	n/a	n/a	n/a	n/a	n/a	"practice_block_results"	n/a	n/a	n/a	"3487"	"0"	n/a	"NULL"	"NULL"	"NULL"	"<p style='color:rgb(76,175,80);'> Correct Responses: <b>100.00%</b></p><hr><p style='color:rgb(233,30,99);'> Average Response Time: <b>770.00</b> ms.</p>"	n/a	n/a	n/a	n/a	n/a	n/a	n/a	n/a	n/a	n/a
"TRUE"	"preload"	"20"	"104023"	"0.0-4.0-2.0-0.0"	"wlqrrh"	"600"	"1366"	"chrome"	"111.0.0"	"FALSE"	"Windows 10"	"60.05"	"063"	n/a	n/a	n/a	n/a	n/a	n/a	n/a	n/a	n/a	n/a	n/a	"NULL"	"FALSE"	"list()"	"list()"	"list()"	n/a	n/a	n/a	n/a	n/a	n/a	n/a	n/a	n/a	n/a	n/a
n/a	"html-keyboard-response"	"21"	"112829"	"0.0-4.0-2.0-1.0"	"wlqrrh"	"600"	"1366"	"chrome"	"111.0.0"	"FALSE"	"Windows 10"	"60.05"	"063"	n/a	n/a	n/a	n/a	n/a	n/a	n/a	n/a	n/a	n/a	"8805"	"enter"	n/a	"NULL"	"NULL"	"NULL"	"<p><b>Practice</b></p><p>In this part, two horizontal red lines will appear one above the other.</p><p>Your task is to select which <b>line is longer</b> in length as fast as you can, without making errors.</p><p>Don't get distracted by the surrounding black arrows at the end of the red lines!</p><p>Press <b>the UP or the DOWN arrow</b> to indicate where is the longer <b>red line.</b></p><div style='float: center'><img src='materials/instructions/MullerLyer_Demo.png' height='300'></img><p><img src='utils/answer/answer_updown_keyboard.PNG' height='150'></img></p><p class='small'>In this example, the correct answer is the <b>UP arrow</b>.</p></div><p>Are you ready? <b>Press ENTER to start</b></p>"	n/a	n/a	n/a	n/a	n/a	n/a	n/a	n/a	n/a	n/a
n/a	"html-keyboard-response"	"22"	"114646"	"0.0-4.0-2.0-2.0-0.0"	"wlqrrh"	"600"	"1366"	"chrome"	"111.0.0"	"FALSE"	"Windows 10"	"60.05"	"063"	n/a	n/a	n/a	n/a	n/a	n/a	"fixation"	n/a	n/a	n/a	n/a	"NULL"	n/a	"NULL"	"NULL"	"NULL"	"<p style=\"color: black; font-size: 80px; padding-left: 14%; padding-right: 17%; padding-top: 3%; padding-bottom: 14%\">+</p>"	"1311"	n/a	n/a	n/a	n/a	n/a	n/a	n/a	n/a	n/a
n/a	"image-keyboard-response"	"23"	"115263"	"0.0-4.0-2.0-2.0-1.0"	"wlqrrh"	"600"	"1366"	"chrome"	"111.0.0"	"FALSE"	"Windows 10"	"60.05"	"063"	n/a	n/a	n/a	n/a	n/a	n/a	"Trial"	n/a	n/a	n/a	"616"	"arrowdown"	n/a	"NULL"	"NULL"	"NULL"	"stimuli/MullerLyer_0000000_-0.7000.png"	n/a	"MullerLyer"	"arrowdown"	"1817"	"TRUE"	"MullerLyer"	"000000000000"	"-0.700000000"	"1"	"7"
n/a	"html-keyboard-response"	"24"	"116535"	"0.0-4.0-2.0-2.0-0.1"	"wlqrrh"	"600"	"1366"	"chrome"	"111.0.0"	"FALSE"	"Windows 10"	"60.05"	"063"	n/a	n/a	n/a	n/a	n/a	n/a	"fixation"	n/a	n/a	n/a	n/a	"NULL"	n/a	"NULL"	"NULL"	"NULL"	"<p style=\"color: black; font-size: 80px; padding-left: 11%; padding-right: 35%; padding-top: 47%; padding-bottom: 31%\">+</p>"	"1256"	n/a	n/a	n/a	n/a	n/a	n/a	n/a	n/a	n/a
n/a	"image-keyboard-response"	"25"	"117026"	"0.0-4.0-2.0-2.0-1.1"	"wlqrrh"	"600"	"1366"	"chrome"	"111.0.0"	"FALSE"	"Windows 10"	"60.05"	"063"	n/a	n/a	n/a	n/a	n/a	n/a	"Trial"	n/a	n/a	n/a	"490"	"arrowdown"	n/a	"NULL"	"NULL"	"NULL"	"stimuli/MullerLyer_-230000_-0.7000.png"	n/a	"MullerLyer"	"arrowdown"	"1272"	"TRUE"	"MullerLyer"	"-23000000000"	"-0.700000000"	"1"	"8"
n/a	"html-keyboard-response"	"26"	"118316"	"0.0-4.0-2.0-2.0-0.2"	"wlqrrh"	"600"	"1366"	"chrome"	"111.0.0"	"FALSE"	"Windows 10"	"60.05"	"063"	n/a	n/a	n/a	n/a	n/a	n/a	"fixation"	n/a	n/a	n/a	n/a	"NULL"	n/a	"NULL"	"NULL"	"NULL"	"<p style=\"color: black; font-size: 80px; padding-left: 45%; padding-right: 26%; padding-top: 24%; padding-bottom: 50%\">+</p>"	"1286"	n/a	n/a	n/a	n/a	n/a	n/a	n/a	n/a	n/a
n/a	"image-keyboard-response"	"27"	"118825"	"0.0-4.0-2.0-2.0-1.2"	"wlqrrh"	"600"	"1366"	"chrome"	"111.0.0"	"FALSE"	"Windows 10"	"60.05"	"063"	n/a	n/a	n/a	n/a	n/a	n/a	"Trial"	n/a	n/a	n/a	"508"	"arrowup"	n/a	"NULL"	"NULL"	"NULL"	"stimuli/MullerLyer_0000000_0.70000.png"	n/a	"MullerLyer"	"arrowup"	"1290"	"TRUE"	"MullerLyer"	"000000000000"	"0.7000000000"	"1"	"9"
n/a	"html-keyboard-response"	"28"	"119899"	"0.0-4.0-2.0-2.0-0.3"	"wlqrrh"	"600"	"1366"	"chrome"	"111.0.0"	"FALSE"	"Windows 10"	"60.05"	"063"	n/a	n/a	n/a	n/a	n/a	n/a	"fixation"	n/a	n/a	n/a	n/a	"NULL"	n/a	"NULL"	"NULL"	"NULL"	"<p style=\"color: black; font-size: 80px; padding-left: 4%; padding-right: 17%; padding-top: 33%; padding-bottom: 21%\">+</p>"	"1060"	n/a	n/a	n/a	n/a	n/a	n/a	n/a	n/a	n/a
n/a	"image-keyboard-response"	"29"	"120425"	"0.0-4.0-2.0-2.0-1.3"	"wlqrrh"	"600"	"1366"	"chrome"	"111.0.0"	"FALSE"	"Windows 10"	"60.05"	"063"	n/a	n/a	n/a	n/a	n/a	n/a	"Trial"	n/a	n/a	n/a	"525"	"arrowup"	n/a	"NULL"	"NULL"	"NULL"	"stimuli/MullerLyer_-230000_0.70000.png"	n/a	"MullerLyer"	"arrowup"	"1074"	"TRUE"	"MullerLyer"	"-23000000000"	"0.7000000000"	"1"	"10"
n/a	"html-keyboard-response"	"30"	"121746"	"0.0-4.0-2.0-2.0-0.4"	"wlqrrh"	"600"	"1366"	"chrome"	"111.0.0"	"FALSE"	"Windows 10"	"60.05"	"063"	n/a	n/a	n/a	n/a	n/a	n/a	"fixation"	n/a	n/a	n/a	n/a	"NULL"	n/a	"NULL"	"NULL"	"NULL"	"<p style=\"color: black; font-size: 80px; padding-left: 20%; padding-right: 26%; padding-top: 43%; padding-bottom: 42%\">+</p>"	"1310"	n/a	n/a	n/a	n/a	n/a	n/a	n/a	n/a	n/a
n/a	"image-keyboard-response"	"31"	"122710"	"0.0-4.0-2.0-2.0-1.4"	"wlqrrh"	"600"	"1366"	"chrome"	"111.0.0"	"FALSE"	"Windows 10"	"60.05"	"063"	n/a	n/a	n/a	n/a	n/a	n/a	"Trial"	n/a	n/a	n/a	"964"	"arrowup"	n/a	"NULL"	"NULL"	"NULL"	"stimuli/MullerLyer_2300000_0.70000.png"	n/a	"MullerLyer"	"arrowup"	"1321"	"TRUE"	"MullerLyer"	"230000000000"	"0.7000000000"	"1"	"11"
n/a	"html-keyboard-response"	"32"	"123728"	"0.0-4.0-2.0-2.0-0.5"	"wlqrrh"	"600"	"1366"	"chrome"	"111.0.0"	"FALSE"	"Windows 10"	"60.05"	"063"	n/a	n/a	n/a	n/a	n/a	n/a	"fixation"	n/a	n/a	n/a	n/a	"NULL"	n/a	"NULL"	"NULL"	"NULL"	"<p style=\"color: black; font-size: 80px; padding-left: 28%; padding-right: 30%; padding-top: 2%; padding-bottom: 10%\">+</p>"	"1013"	n/a	n/a	n/a	n/a	n/a	n/a	n/a	n/a	n/a
n/a	"image-keyboard-response"	"33"	"124450"	"0.0-4.0-2.0-2.0-1.5"	"wlqrrh"	"600"	"1366"	"chrome"	"111.0.0"	"FALSE"	"Windows 10"	"60.05"	"063"	n/a	n/a	n/a	n/a	n/a	n/a	"Trial"	n/a	n/a	n/a	"721"	"arrowdown"	n/a	"NULL"	"NULL"	"NULL"	"stimuli/MullerLyer_2300000_-0.7000.png"	n/a	"MullerLyer"	"arrowdown"	"1018"	"TRUE"	"MullerLyer"	"230000000000"	"-0.700000000"	"1"	"12"
n/a	"html-button-response"	"34"	"131552"	"0.0-4.0-2.0-3.0"	"wlqrrh"	"600"	"1366"	"chrome"	"111.0.0"	"FALSE"	"Windows 10"	"60.05"	"063"	n/a	n/a	n/a	n/a	n/a	n/a	"practice_block_results"	n/a	n/a	n/a	"7101"	"0"	n/a	"NULL"	"NULL"	"NULL"	"<p style='color:rgb(76,175,80);'> Correct Responses: <b>100.00%</b></p><hr><p style='color:rgb(233,30,99);'> Average Response Time: <b>637.33</b> ms.</p>"	n/a	n/a	n/a	n/a	n/a	n/a	n/a	n/a	n/a	n/a
"TRUE"	"preload"	"35"	"132070"	"0.0-4.0-3.0-0.0"	"wlqrrh"	"600"	"1366"	"chrome"	"111.0.0"	"FALSE"	"Windows 10"	"60.05"	"063"	n/a	n/a	n/a	n/a	n/a	n/a	n/a	n/a	n/a	n/a	n/a	"NULL"	"FALSE"	"list()"	"list()"	"list()"	n/a	n/a	n/a	n/a	n/a	n/a	n/a	n/a	n/a	n/a	n/a
n/a	"html-keyboard-response"	"36"	"142691"	"0.0-4.0-3.0-1.0"	"wlqrrh"	"600"	"1366"	"chrome"	"111.0.0"	"FALSE"	"Windows 10"	"60.05"	"063"	n/a	n/a	n/a	n/a	n/a	n/a	n/a	n/a	n/a	n/a	"10621"	"enter"	n/a	"NULL"	"NULL"	"NULL"	"<p><b>Practice</b></p><p>In this part, two red lines will appear side by side.</p><p>Your task is to tell <b>which line is longer</b> in length, regardless of their orientation, as fast as you can, and without making errors.</p><p>Don't get distracted by the orientation of the lines!</p><p>Press <b>the LEFT or the RIGHT arrow</b> to indicate which <b>line is the longer one.</b></p><div style='float: center'><img src='materials/instructions/VerticalHorizontal_Demo.png' height='300'></img><p><img src='utils/answer/answer_leftright_keyboard.PNG' height='150'></img></p><p class='small'>In this example, the correct answer is the <b>LEFT arrow</b>.</p></div><p>Are you ready? <b>Press ENTER to start</b></p>"	n/a	n/a	n/a	n/a	n/a	n/a	n/a	n/a	n/a	n/a
n/a	"html-keyboard-response"	"37"	"144308"	"0.0-4.0-3.0-2.0-0.0"	"wlqrrh"	"600"	"1366"	"chrome"	"111.0.0"	"FALSE"	"Windows 10"	"60.05"	"063"	n/a	n/a	n/a	n/a	n/a	n/a	"fixation"	n/a	n/a	n/a	n/a	"NULL"	n/a	"NULL"	"NULL"	"NULL"	"<p style=\"color: black; font-size: 80px; padding-left: 16%; padding-right: 35%; padding-top: 14%; padding-bottom: 22%\">+</p>"	"1105"	n/a	n/a	n/a	n/a	n/a	n/a	n/a	n/a	n/a
n/a	"image-keyboard-response"	"38"	"145794"	"0.0-4.0-3.0-2.0-1.0"	"wlqrrh"	"600"	"1366"	"chrome"	"111.0.0"	"FALSE"	"Windows 10"	"60.05"	"063"	n/a	n/a	n/a	n/a	n/a	n/a	"Trial"	n/a	n/a	n/a	"1485"	"arrowright"	n/a	"NULL"	"NULL"	"NULL"	"stimuli/VerticalHorizontal_0000000_-0.9000.png"	n/a	"VerticalHorizontal"	"arrowright"	"1617"	"TRUE"	"VerticalHorizontal"	"000000000000"	"-0.900000000"	"1"	"13"
n/a	"html-keyboard-response"	"39"	"146930"	"0.0-4.0-3.0-2.0-0.1"	"wlqrrh"	"600"	"1366"	"chrome"	"111.0.0"	"FALSE"	"Windows 10"	"60.05"	"063"	n/a	n/a	n/a	n/a	n/a	n/a	"fixation"	n/a	n/a	n/a	n/a	"NULL"	n/a	"NULL"	"NULL"	"NULL"	"<p style=\"color: black; font-size: 80px; padding-left: 35%; padding-right: 19%; padding-top: 36%; padding-bottom: 31%\">+</p>"	"1126"	n/a	n/a	n/a	n/a	n/a	n/a	n/a	n/a	n/a
n/a	"image-keyboard-response"	"40"	"147459"	"0.0-4.0-3.0-2.0-1.1"	"wlqrrh"	"600"	"1366"	"chrome"	"111.0.0"	"FALSE"	"Windows 10"	"60.05"	"063"	n/a	n/a	n/a	n/a	n/a	n/a	"Trial"	n/a	n/a	n/a	"529"	"arrowleft"	n/a	"NULL"	"NULL"	"NULL"	"stimuli/VerticalHorizontal_-330000_0.90000.png"	n/a	"VerticalHorizontal"	"arrowleft"	"1136"	"TRUE"	"VerticalHorizontal"	"-33000000000"	"0.9000000000"	"1"	"14"
n/a	"html-keyboard-response"	"41"	"148944"	"0.0-4.0-3.0-2.0-0.2"	"wlqrrh"	"600"	"1366"	"chrome"	"111.0.0"	"FALSE"	"Windows 10"	"60.05"	"063"	n/a	n/a	n/a	n/a	n/a	n/a	"fixation"	n/a	n/a	n/a	n/a	"NULL"	n/a	"NULL"	"NULL"	"NULL"	"<p style=\"color: black; font-size: 80px; padding-left: 33%; padding-right: 47%; padding-top: 35%; padding-bottom: 17%\">+</p>"	"1470"	n/a	n/a	n/a	n/a	n/a	n/a	n/a	n/a	n/a
n/a	"image-keyboard-response"	"42"	"149469"	"0.0-4.0-3.0-2.0-1.2"	"wlqrrh"	"600"	"1366"	"chrome"	"111.0.0"	"FALSE"	"Windows 10"	"60.05"	"063"	n/a	n/a	n/a	n/a	n/a	n/a	"Trial"	n/a	n/a	n/a	"524"	"arrowleft"	n/a	"NULL"	"NULL"	"NULL"	"stimuli/VerticalHorizontal_3300000_0.90000.png"	n/a	"VerticalHorizontal"	"arrowleft"	"1485"	"TRUE"	"VerticalHorizontal"	"330000000000"	"0.9000000000"	"1"	"15"
n/a	"html-keyboard-response"	"43"	"150709"	"0.0-4.0-3.0-2.0-0.3"	"wlqrrh"	"600"	"1366"	"chrome"	"111.0.0"	"FALSE"	"Windows 10"	"60.05"	"063"	n/a	n/a	n/a	n/a	n/a	n/a	"fixation"	n/a	n/a	n/a	n/a	"NULL"	n/a	"NULL"	"NULL"	"NULL"	"<p style=\"color: black; font-size: 80px; padding-left: 33%; padding-right: 33%; padding-top: 34%; padding-bottom: 35%\">+</p>"	"1228"	n/a	n/a	n/a	n/a	n/a	n/a	n/a	n/a	n/a
n/a	"image-keyboard-response"	"44"	"151084"	"0.0-4.0-3.0-2.0-1.3"	"wlqrrh"	"600"	"1366"	"chrome"	"111.0.0"	"FALSE"	"Windows 10"	"60.05"	"063"	n/a	n/a	n/a	n/a	n/a	n/a	"Trial"	n/a	n/a	n/a	"374"	"arrowright"	n/a	"NULL"	"NULL"	"NULL"	"stimuli/VerticalHorizontal_3300000_-0.9000.png"	n/a	"VerticalHorizontal"	"arrowright"	"1240"	"TRUE"	"VerticalHorizontal"	"330000000000"	"-0.900000000"	"1"	"16"
n/a	"html-keyboard-response"	"45"	"152424"	"0.0-4.0-3.0-2.0-0.4"	"wlqrrh"	"600"	"1366"	"chrome"	"111.0.0"	"FALSE"	"Windows 10"	"60.05"	"063"	n/a	n/a	n/a	n/a	n/a	n/a	"fixation"	n/a	n/a	n/a	n/a	"NULL"	n/a	"NULL"	"NULL"	"NULL"	"<p style=\"color: black; font-size: 80px; padding-left: 27%; padding-right: 33%; padding-top: 1%; padding-bottom: 31%\">+</p>"	"1338"	n/a	n/a	n/a	n/a	n/a	n/a	n/a	n/a	n/a
n/a	"image-keyboard-response"	"46"	"152859"	"0.0-4.0-3.0-2.0-1.4"	"wlqrrh"	"600"	"1366"	"chrome"	"111.0.0"	"FALSE"	"Windows 10"	"60.05"	"063"	n/a	n/a	n/a	n/a	n/a	n/a	"Trial"	n/a	n/a	n/a	"435"	"arrowright"	n/a	"NULL"	"NULL"	"NULL"	"stimuli/VerticalHorizontal_-330000_-0.9000.png"	n/a	"VerticalHorizontal"	"arrowright"	"1340"	"TRUE"	"VerticalHorizontal"	"-33000000000"	"-0.900000000"	"1"	"17"
n/a	"html-keyboard-response"	"47"	"153990"	"0.0-4.0-3.0-2.0-0.5"	"wlqrrh"	"600"	"1366"	"chrome"	"111.0.0"	"FALSE"	"Windows 10"	"60.05"	"063"	n/a	n/a	n/a	n/a	n/a	n/a	"fixation"	n/a	n/a	n/a	n/a	"NULL"	n/a	"NULL"	"NULL"	"NULL"	"<p style=\"color: black; font-size: 80px; padding-left: 1%; padding-right: 19%; padding-top: 11%; padding-bottom: 47%\">+</p>"	"1115"	n/a	n/a	n/a	n/a	n/a	n/a	n/a	n/a	n/a
n/a	"image-keyboard-response"	"48"	"154393"	"0.0-4.0-3.0-2.0-1.5"	"wlqrrh"	"600"	"1366"	"chrome"	"111.0.0"	"FALSE"	"Windows 10"	"60.05"	"063"	n/a	n/a	n/a	n/a	n/a	n/a	"Trial"	n/a	n/a	n/a	"403"	"arrowleft"	n/a	"NULL"	"NULL"	"NULL"	"stimuli/VerticalHorizontal_0000000_0.90000.png"	n/a	"VerticalHorizontal"	"arrowleft"	"1131"	"TRUE"	"VerticalHorizontal"	"000000000000"	"0.9000000000"	"1"	"18"
n/a	"html-button-response"	"49"	"156872"	"0.0-4.0-3.0-3.0"	"wlqrrh"	"600"	"1366"	"chrome"	"111.0.0"	"FALSE"	"Windows 10"	"60.05"	"063"	n/a	n/a	n/a	n/a	n/a	n/a	"practice_block_results"	n/a	n/a	n/a	"2478"	"0"	n/a	"NULL"	"NULL"	"NULL"	"<p style='color:rgb(76,175,80);'> Correct Responses: <b>100.00%</b></p><hr><p style='color:rgb(233,30,99);'> Average Response Time: <b>625.00</b> ms.</p>"	n/a	n/a	n/a	n/a	n/a	n/a	n/a	n/a	n/a	n/a
n/a	"html-button-response"	"50"	"220440"	"0.0-4.0-4.0"	"wlqrrh"	"600"	"1366"	"chrome"	"111.0.0"	"FALSE"	"Windows 10"	"60.05"	"063"	n/a	n/a	n/a	n/a	n/a	n/a	"practice_debrief"	n/a	n/a	n/a	"63067"	"0"	n/a	"NULL"	"NULL"	"NULL"	"<p><b>TRAINING COMPLETED</b></p><p>In the next phase, there will be more trials, and some might be harder too.<br> Moreover, after each illusion block, a <b>score</b> will be calculated based on speed (time you took to answer) and accuracy (number of errors).</p><p>Try to keep up a high score!</p><br><p>Note that it can be <i>really</i> challenging at times, so you will need to rely on your <b>intuition</b> and gut feeling to answer as fast as you can without making errors.</p><p>Each illusion block will be repeated two times (so that you have the opportunity to improve your score), but the order of the blocks is random.</p><p>Remember, your goal is to be as <b>fast</b> and <b>accurate</b> as possible. Good luck!</p><br>"	n/a	n/a	n/a	n/a	n/a	n/a	n/a	n/a	n/a	n/a
"TRUE"	"preload"	"51"	"220583"	"0.0-5.0-0.0"	"wlqrrh"	"600"	"1366"	"chrome"	"111.0.0"	"FALSE"	"Windows 10"	"60.05"	"063"	n/a	n/a	n/a	n/a	n/a	n/a	n/a	n/a	n/a	n/a	n/a	"NULL"	"FALSE"	"list()"	"list()"	"list()"	n/a	n/a	n/a	n/a	n/a	n/a	n/a	n/a	n/a	n/a	n/a
n/a	"html-keyboard-response"	"52"	"225225"	"0.0-5.0-1.0"	"wlqrrh"	"600"	"1366"	"chrome"	"111.0.0"	"FALSE"	"Windows 10"	"60.05"	"063"	n/a	n/a	n/a	n/a	n/a	n/a	n/a	n/a	n/a	n/a	"4641"	"enter"	n/a	"NULL"	"NULL"	"NULL"	"<p><b>Part 1/6</b></p><p>In this part, two red lines will appear side by side.</p><p>Your task is to tell <b>which line is longer</b> in length, regardless of their orientation, as fast as you can, and without making errors.</p><p>Don't get distracted by the orientation of the lines!</p><p>Press <b>the LEFT or the RIGHT arrow</b> to indicate which <b>line is the longer one.</b></p><div style='float: center'><img src='materials/instructions/VerticalHorizontal_Demo.png' height='300'></img><p><img src='utils/answer/answer_leftright_keyboard.PNG' height='150'></img></p><p class='small'>In this example, the correct answer is the <b>LEFT arrow</b>.</p></div><p>Are you ready? <b>Press ENTER to start</b></p>"	n/a	n/a	n/a	n/a	n/a	n/a	n/a	n/a	n/a	n/a
n/a	"html-keyboard-response"	"53"	"227037"	"0.0-5.0-2.0-0.0"	"wlqrrh"	"600"	"1366"	"chrome"	"111.0.0"	"FALSE"	"Windows 10"	"60.05"	"063"	n/a	n/a	n/a	n/a	n/a	n/a	"fixation"	n/a	n/a	n/a	n/a	"NULL"	n/a	"NULL"	"NULL"	"NULL"	"<p style=\"color: black; font-size: 80px; padding-left: 31%; padding-right: 20%; padding-top: 37%; padding-bottom: 20%\">+</p>"	"1295"	n/a	n/a	n/a	n/a	n/a	n/a	n/a	n/a	n/a
n/a	"image-keyboard-response"	"54"	"227938"	"0.0-5.0-2.0-1.0"	"wlqrrh"	"600"	"1366"	"chrome"	"111.0.0"	"FALSE"	"Windows 10"	"60.05"	"063"	n/a	n/a	n/a	n/a	n/a	n/a	"Trial"	n/a	n/a	n/a	"901"	"arrowright"	n/a	"NULL"	"NULL"	"NULL"	"stimuli/VerticalHorizontal_-28.75714_-0.1096.png"	n/a	"VerticalHorizontal"	"arrowright"	"1812"	"TRUE"	"VerticalHorizontal"	"-28.75714000"	"-0.109600000"	"1"	"19"
n/a	"html-keyboard-response"	"55"	"229398"	"0.0-5.0-2.0-0.1"	"wlqrrh"	"600"	"1366"	"chrome"	"111.0.0"	"FALSE"	"Windows 10"	"60.05"	"063"	n/a	n/a	n/a	n/a	n/a	n/a	"fixation"	n/a	n/a	n/a	n/a	"NULL"	n/a	"NULL"	"NULL"	"NULL"	"<p style=\"color: black; font-size: 80px; padding-left: 29%; padding-right: 14%; padding-top: 12%; padding-bottom: 18%\">+</p>"	"1446"	n/a	n/a	n/a	n/a	n/a	n/a	n/a	n/a	n/a
n/a	"image-keyboard-response"	"56"	"229986"	"0.0-5.0-2.0-1.1"	"wlqrrh"	"600"	"1366"	"chrome"	"111.0.0"	"FALSE"	"Windows 10"	"60.05"	"063"	n/a	n/a	n/a	n/a	n/a	n/a	"Trial"	n/a	n/a	n/a	"587"	"arrowright"	n/a	"NULL"	"NULL"	"NULL"	"stimuli/VerticalHorizontal_-11.78571_-0.2250.png"	n/a	"VerticalHorizontal"	"arrowright"	"1460"	"TRUE"	"VerticalHorizontal"	"-11.78571000"	"-0.225000000"	"1"	"20"
n/a	"html-keyboard-response"	"57"	"231209"	"0.0-5.0-2.0-0.2"	"wlqrrh"	"600"	"1366"	"chrome"	"111.0.0"	"FALSE"	"Windows 10"	"60.05"	"063"	n/a	n/a	n/a	n/a	n/a	n/a	"fixation"	n/a	n/a	n/a	n/a	"NULL"	n/a	"NULL"	"NULL"	"NULL"	"<p style=\"color: black; font-size: 80px; padding-left: 24%; padding-right: 13%; padding-top: 27%; padding-bottom: 47%\">+</p>"	"1210"	n/a	n/a	n/a	n/a	n/a	n/a	n/a	n/a	n/a
n/a	"image-keyboard-response"	"58"	"232780"	"0.0-5.0-2.0-1.2"	"wlqrrh"	"600"	"1366"	"chrome"	"111.0.0"	"FALSE"	"Windows 10"	"60.05"	"063"	n/a	n/a	n/a	n/a	n/a	n/a	"Trial"	n/a	n/a	n/a	"1571"	"arrowleft"	n/a	"NULL"	"NULL"	"NULL"	"stimuli/VerticalHorizontal_20.27143_0.16217.png"	n/a	"VerticalHorizontal"	"arrowleft"	"1223"	"TRUE"	"VerticalHorizontal"	"20.271430000"	"0.1621700000"	"1"	"21"
n/a	"html-keyboard-response"	"59"	"233812"	"0.0-5.0-2.0-0.3"	"wlqrrh"	"600"	"1366"	"chrome"	"111.0.0"	"FALSE"	"Windows 10"	"60.05"	"063"	n/a	n/a	n/a	n/a	n/a	n/a	"fixation"	n/a	n/a	n/a	n/a	"NULL"	n/a	"NULL"	"NULL"	"NULL"	"<p style=\"color: black; font-size: 80px; padding-left: 39%; padding-right: 43%; padding-top: 33%; padding-bottom: 41%\">+</p>"	"1031"	n/a	n/a	n/a	n/a	n/a	n/a	n/a	n/a	n/a
n/a	"image-keyboard-response"	"60"	"234916"	"0.0-5.0-2.0-1.3"	"wlqrrh"	"600"	"1366"	"chrome"	"111.0.0"	"FALSE"	"Windows 10"	"60.05"	"063"	n/a	n/a	n/a	n/a	n/a	n/a	"Trial"	n/a	n/a	n/a	"1103"	"arrowleft"	n/a	"NULL"	"NULL"	"NULL"	"stimuli/VerticalHorizontal_-28.75714_0.10960.png"	n/a	"VerticalHorizontal"	"arrowleft"	"1032"	"TRUE"	"VerticalHorizontal"	"-28.75714000"	"0.1096000000"	"1"	"22"
n/a	"html-keyboard-response"	"61"	"236251"	"0.0-5.0-2.0-0.4"	"wlqrrh"	"600"	"1366"	"chrome"	"111.0.0"	"FALSE"	"Windows 10"	"60.05"	"063"	n/a	n/a	n/a	n/a	n/a	n/a	"fixation"	n/a	n/a	n/a	n/a	"NULL"	n/a	"NULL"	"NULL"	"NULL"	"<p style=\"color: black; font-size: 80px; padding-left: 29%; padding-right: 28%; padding-top: 19%; padding-bottom: 5%\">+</p>"	"1330"	n/a	n/a	n/a	n/a	n/a	n/a	n/a	n/a	n/a
n/a	"image-keyboard-response"	"62"	"237338"	"0.0-5.0-2.0-1.4"	"wlqrrh"	"600"	"1366"	"chrome"	"111.0.0"	"FALSE"	"Windows 10"	"60.05"	"063"	n/a	n/a	n/a	n/a	n/a	n/a	"Trial"	n/a	n/a	n/a	"1087"	"arrowleft"	n/a	"NULL"	"NULL"	"NULL"	"stimuli/VerticalHorizontal_-11.78571_0.10960.png"	n/a	"VerticalHorizontal"	"arrowleft"	"1335"	"TRUE"	"VerticalHorizontal"	"-11.78571000"	"0.1096000000"	"1"	"23"
n/a	"html-keyboard-response"	"63"	"238460"	"0.0-5.0-2.0-0.5"	"wlqrrh"	"600"	"1366"	"chrome"	"111.0.0"	"FALSE"	"Windows 10"	"60.05"	"063"	n/a	n/a	n/a	n/a	n/a	n/a	"fixation"	n/a	n/a	n/a	n/a	"NULL"	n/a	"NULL"	"NULL"	"NULL"	"<p style=\"color: black; font-size: 80px; padding-left: 37%; padding-right: 42%; padding-top: 8%; padding-bottom: 33%\">+</p>"	"1106"	n/a	n/a	n/a	n/a	n/a	n/a	n/a	n/a	n/a
n/a	"image-keyboard-response"	"64"	"239119"	"0.0-5.0-2.0-1.5"	"wlqrrh"	"600"	"1366"	"chrome"	"111.0.0"	"FALSE"	"Windows 10"	"60.05"	"063"	n/a	n/a	n/a	n/a	n/a	n/a	"Trial"	n/a	n/a	n/a	"659"	"arrowright"	n/a	"NULL"	"NULL"	"NULL"	"stimuli/VerticalHorizontal_11.78571_-0.0673.png"	n/a	"VerticalHorizontal"	"arrowright"	"1122"	"TRUE"	"VerticalHorizontal"	"11.785710000"	"-0.067300000"	"1"	"24"
n/a	"html-keyboard-response"	"65"	"240494"	"0.0-5.0-2.0-0.6"	"wlqrrh"	"600"	"1366"	"chrome"	"111.0.0"	"FALSE"	"Windows 10"	"60.05"	"063"	n/a	n/a	n/a	n/a	n/a	n/a	"fixation"	n/a	n/a	n/a	n/a	"NULL"	n/a	"NULL"	"NULL"	"NULL"	"<p style=\"color: black; font-size: 80px; padding-left: 12%; padding-right: 28%; padding-top: 14%; padding-bottom: 20%\">+</p>"	"1359"	n/a	n/a	n/a	n/a	n/a	n/a	n/a	n/a	n/a
n/a	"image-keyboard-response"	"66"	"241143"	"0.0-5.0-2.0-1.6"	"wlqrrh"	"600"	"1366"	"chrome"	"111.0.0"	"FALSE"	"Windows 10"	"60.05"	"063"	n/a	n/a	n/a	n/a	n/a	n/a	"Trial"	n/a	n/a	n/a	"647"	"arrowright"	n/a	"NULL"	"NULL"	"NULL"	"stimuli/VerticalHorizontal_-3.3000_-0.2250.png"	n/a	"VerticalHorizontal"	"arrowright"	"1375"	"TRUE"	"VerticalHorizontal"	"-3.300000000"	"-0.225000000"	"1"	"25"
n/a	"html-keyboard-response"	"67"	"242430"	"0.0-5.0-2.0-0.7"	"wlqrrh"	"600"	"1366"	"chrome"	"111.0.0"	"FALSE"	"Windows 10"	"60.05"	"063"	n/a	n/a	n/a	n/a	n/a	n/a	"fixation"	n/a	n/a	n/a	n/a	"NULL"	n/a	"NULL"	"NULL"	"NULL"	"<p style=\"color: black; font-size: 80px; padding-left: 34%; padding-right: 13%; padding-top: 38%; padding-bottom: 4%\">+</p>"	"1284"	n/a	n/a	n/a	n/a	n/a	n/a	n/a	n/a	n/a
n/a	"image-keyboard-response"	"68"	"243769"	"0.0-5.0-2.0-1.7"	"wlqrrh"	"600"	"1366"	"chrome"	"111.0.0"	"FALSE"	"Windows 10"	"60.05"	"063"	n/a	n/a	n/a	n/a	n/a	n/a	"Trial"	n/a	n/a	n/a	"1338"	"arrowright"	n/a	"NULL"	"NULL"	"NULL"	"stimuli/VerticalHorizontal_-3.3000_-0.0673.png"	n/a	"VerticalHorizontal"	"arrowright"	"1287"	"TRUE"	"VerticalHorizontal"	"-3.300000000"	"-0.067300000"	"1"	"26"
n/a	"html-keyboard-response"	"69"	"245169"	"0.0-5.0-2.0-0.8"	"wlqrrh"	"600"	"1366"	"chrome"	"111.0.0"	"FALSE"	"Windows 10"	"60.05"	"063"	n/a	n/a	n/a	n/a	n/a	n/a	"fixation"	n/a	n/a	n/a	n/a	"NULL"	n/a	"NULL"	"NULL"	"NULL"	"<p style=\"color: black; font-size: 80px; padding-left: 4%; padding-right: 17%; padding-top: 39%; padding-bottom: 46%\">+</p>"	"1391"	n/a	n/a	n/a	n/a	n/a	n/a	n/a	n/a	n/a
n/a	"image-keyboard-response"	"70"	"245973"	"0.0-5.0-2.0-1.8"	"wlqrrh"	"600"	"1366"	"chrome"	"111.0.0"	"FALSE"	"Windows 10"	"60.05"	"063"	n/a	n/a	n/a	n/a	n/a	n/a	"Trial"	n/a	n/a	n/a	"803"	"arrowright"	n/a	"NULL"	"NULL"	"NULL"	"stimuli/VerticalHorizontal_28.75714_-0.2250.png"	n/a	"VerticalHorizontal"	"arrowright"	"1400"	"TRUE"	"VerticalHorizontal"	"28.757140000"	"-0.225000000"	"1"	"27"
n/a	"html-keyboard-response"	"71"	"246995"	"0.0-5.0-2.0-0.9"	"wlqrrh"	"600"	"1366"	"chrome"	"111.0.0"	"FALSE"	"Windows 10"	"60.05"	"063"	n/a	n/a	n/a	n/a	n/a	n/a	"fixation"	n/a	n/a	n/a	n/a	"NULL"	n/a	"NULL"	"NULL"	"NULL"	"<p style=\"color: black; font-size: 80px; padding-left: 9%; padding-right: 13%; padding-top: 48%; padding-bottom: 4%\">+</p>"	"1008"	n/a	n/a	n/a	n/a	n/a	n/a	n/a	n/a	n/a
n/a	"image-keyboard-response"	"72"	"247842"	"0.0-5.0-2.0-1.9"	"wlqrrh"	"600"	"1366"	"chrome"	"111.0.0"	"FALSE"	"Windows 10"	"60.05"	"063"	n/a	n/a	n/a	n/a	n/a	n/a	"Trial"	n/a	n/a	n/a	"846"	"arrowright"	n/a	"NULL"	"NULL"	"NULL"	"stimuli/VerticalHorizontal_3.30000_-0.16217.png"	n/a	"VerticalHorizontal"	"arrowright"	"1022"	"TRUE"	"VerticalHorizontal"	"3.3000000000"	"-0.162170000"	"1"	"28"
n/a	"html-keyboard-response"	"73"	"248955"	"0.0-5.0-2.0-0.10"	"wlqrrh"	"600"	"1366"	"chrome"	"111.0.0"	"FALSE"	"Windows 10"	"60.05"	"063"	n/a	n/a	n/a	n/a	n/a	n/a	"fixation"	n/a	n/a	n/a	n/a	"NULL"	n/a	"NULL"	"NULL"	"NULL"	"<p style=\"color: black; font-size: 80px; padding-left: 48%; padding-right: 40%; padding-top: 16%; padding-bottom: 6%\">+</p>"	"1107"	n/a	n/a	n/a	n/a	n/a	n/a	n/a	n/a	n/a
n/a	"image-keyboard-response"	"74"	"250113"	"0.0-5.0-2.0-1.10"	"wlqrrh"	"600"	"1366"	"chrome"	"111.0.0"	"FALSE"	"Windows 10"	"60.05"	"063"	n/a	n/a	n/a	n/a	n/a	n/a	"Trial"	n/a	n/a	n/a	"1157"	"arrowright"	n/a	"NULL"	"NULL"	"NULL"	"stimuli/VerticalHorizontal_-11.78571_-0.0673.png"	n/a	"VerticalHorizontal"	"arrowright"	"1113"	"TRUE"	"VerticalHorizontal"	"-11.78571000"	"-0.067300000"	"1"	"29"
n/a	"html-keyboard-response"	"75"	"251210"	"0.0-5.0-2.0-0.11"	"wlqrrh"	"600"	"1366"	"chrome"	"111.0.0"	"FALSE"	"Windows 10"	"60.05"	"063"	n/a	n/a	n/a	n/a	n/a	n/a	"fixation"	n/a	n/a	n/a	n/a	"NULL"	n/a	"NULL"	"NULL"	"NULL"	"<p style=\"color: black; font-size: 80px; padding-left: 34%; padding-right: 1%; padding-top: 12%; padding-bottom: 34%\">+</p>"	"1088"	n/a	n/a	n/a	n/a	n/a	n/a	n/a	n/a	n/a
n/a	"image-keyboard-response"	"76"	"251922"	"0.0-5.0-2.0-1.11"	"wlqrrh"	"600"	"1366"	"chrome"	"111.0.0"	"FALSE"	"Windows 10"	"60.05"	"063"	n/a	n/a	n/a	n/a	n/a	n/a	"Trial"	n/a	n/a	n/a	"711"	"arrowleft"	n/a	"NULL"	"NULL"	"NULL"	"stimuli/VerticalHorizontal_3.30000_0.16217.png"	n/a	"VerticalHorizontal"	"arrowleft"	"1097"	"TRUE"	"VerticalHorizontal"	"3.3000000000"	"0.1621700000"	"1"	"30"
n/a	"html-keyboard-response"	"77"	"253348"	"0.0-5.0-2.0-0.12"	"wlqrrh"	"600"	"1366"	"chrome"	"111.0.0"	"FALSE"	"Windows 10"	"60.05"	"063"	n/a	n/a	n/a	n/a	n/a	n/a	"fixation"	n/a	n/a	n/a	n/a	"NULL"	n/a	"NULL"	"NULL"	"NULL"	"<p style=\"color: black; font-size: 80px; padding-left: 5%; padding-right: 10%; padding-top: 5%; padding-bottom: 13%\">+</p>"	"1423"	n/a	n/a	n/a	n/a	n/a	n/a	n/a	n/a	n/a
n/a	"image-keyboard-response"	"78"	"254190"	"0.0-5.0-2.0-1.12"	"wlqrrh"	"600"	"1366"	"chrome"	"111.0.0"	"FALSE"	"Windows 10"	"60.05"	"063"	n/a	n/a	n/a	n/a	n/a	n/a	"Trial"	n/a	n/a	n/a	"840"	"arrowleft"	n/a	"NULL"	"NULL"	"NULL"	"stimuli/VerticalHorizontal_-3.3000_0.22500.png"	n/a	"VerticalHorizontal"	"arrowleft"	"1426"	"TRUE"	"VerticalHorizontal"	"-3.300000000"	"0.2250000000"	"1"	"31"
n/a	"html-keyboard-response"	"79"	"255377"	"0.0-5.0-2.0-0.13"	"wlqrrh"	"600"	"1366"	"chrome"	"111.0.0"	"FALSE"	"Windows 10"	"60.05"	"063"	n/a	n/a	n/a	n/a	n/a	n/a	"fixation"	n/a	n/a	n/a	n/a	"NULL"	n/a	"NULL"	"NULL"	"NULL"	"<p style=\"color: black; font-size: 80px; padding-left: 6%; padding-right: 30%; padding-top: 18%; padding-bottom: 10%\">+</p>"	"1184"	n/a	n/a	n/a	n/a	n/a	n/a	n/a	n/a	n/a
n/a	"image-keyboard-response"	"80"	"256004"	"0.0-5.0-2.0-1.13"	"wlqrrh"	"600"	"1366"	"chrome"	"111.0.0"	"FALSE"	"Windows 10"	"60.05"	"063"	n/a	n/a	n/a	n/a	n/a	n/a	"Trial"	n/a	n/a	n/a	"626"	"arrowright"	n/a	"NULL"	"NULL"	"NULL"	"stimuli/VerticalHorizontal_20.27143_-0.1096.png"	n/a	"VerticalHorizontal"	"arrowright"	"1187"	"TRUE"	"VerticalHorizontal"	"20.271430000"	"-0.109600000"	"1"	"32"
n/a	"html-keyboard-response"	"81"	"257256"	"0.0-5.0-2.0-0.14"	"wlqrrh"	"600"	"1366"	"chrome"	"111.0.0"	"FALSE"	"Windows 10"	"60.05"	"063"	n/a	n/a	n/a	n/a	n/a	n/a	"fixation"	n/a	n/a	n/a	n/a	"NULL"	n/a	"NULL"	"NULL"	"NULL"	"<p style=\"color: black; font-size: 80px; padding-left: 29%; padding-right: 27%; padding-top: 15%; padding-bottom: 19%\">+</p>"	"1247"	n/a	n/a	n/a	n/a	n/a	n/a	n/a	n/a	n/a
n/a	"image-keyboard-response"	"82"	"258432"	"0.0-5.0-2.0-1.14"	"wlqrrh"	"600"	"1366"	"chrome"	"111.0.0"	"FALSE"	"Windows 10"	"60.05"	"063"	n/a	n/a	n/a	n/a	n/a	n/a	"Trial"	n/a	n/a	n/a	"1175"	"arrowleft"	n/a	"NULL"	"NULL"	"NULL"	"stimuli/VerticalHorizontal_3.30000_0.06730.png"	n/a	"VerticalHorizontal"	"arrowleft"	"1252"	"TRUE"	"VerticalHorizontal"	"3.3000000000"	"0.0673000000"	"1"	"33"
n/a	"html-keyboard-response"	"83"	"259594"	"0.0-5.0-2.0-0.15"	"wlqrrh"	"600"	"1366"	"chrome"	"111.0.0"	"FALSE"	"Windows 10"	"60.05"	"063"	n/a	n/a	n/a	n/a	n/a	n/a	"fixation"	n/a	n/a	n/a	n/a	"NULL"	n/a	"NULL"	"NULL"	"NULL"	"<p style=\"color: black; font-size: 80px; padding-left: 46%; padding-right: 29%; padding-top: 18%; padding-bottom: 13%\">+</p>"	"1161"	n/a	n/a	n/a	n/a	n/a	n/a	n/a	n/a	n/a
n/a	"image-keyboard-response"	"84"	"260120"	"0.0-5.0-2.0-1.15"	"wlqrrh"	"600"	"1366"	"chrome"	"111.0.0"	"FALSE"	"Windows 10"	"60.05"	"063"	n/a	n/a	n/a	n/a	n/a	n/a	"Trial"	n/a	n/a	n/a	"524"	"arrowright"	n/a	"NULL"	"NULL"	"NULL"	"stimuli/VerticalHorizontal_-20.27143_-0.2250.png"	n/a	"VerticalHorizontal"	"arrowright"	"1162"	"TRUE"	"VerticalHorizontal"	"-20.27143000"	"-0.225000000"	"1"	"34"
n/a	"html-keyboard-response"	"85"	"261529"	"0.0-5.0-2.0-0.16"	"wlqrrh"	"600"	"1366"	"chrome"	"111.0.0"	"FALSE"	"Windows 10"	"60.05"	"063"	n/a	n/a	n/a	n/a	n/a	n/a	"fixation"	n/a	n/a	n/a	n/a	"NULL"	n/a	"NULL"	"NULL"	"NULL"	"<p style=\"color: black; font-size: 80px; padding-left: 36%; padding-right: 44%; padding-top: 7%; padding-bottom: 39%\">+</p>"	"1404"	n/a	n/a	n/a	n/a	n/a	n/a	n/a	n/a	n/a
n/a	"image-keyboard-response"	"86"	"262045"	"0.0-5.0-2.0-1.16"	"wlqrrh"	"600"	"1366"	"chrome"	"111.0.0"	"FALSE"	"Windows 10"	"60.05"	"063"	n/a	n/a	n/a	n/a	n/a	n/a	"Trial"	n/a	n/a	n/a	"516"	"arrowleft"	n/a	"NULL"	"NULL"	"NULL"	"stimuli/VerticalHorizontal_-28.75714_0.22500.png"	n/a	"VerticalHorizontal"	"arrowleft"	"1409"	"TRUE"	"VerticalHorizontal"	"-28.75714000"	"0.2250000000"	"1"	"35"
n/a	"html-keyboard-response"	"87"	"263444"	"0.0-5.0-2.0-0.17"	"wlqrrh"	"600"	"1366"	"chrome"	"111.0.0"	"FALSE"	"Windows 10"	"60.05"	"063"	n/a	n/a	n/a	n/a	n/a	n/a	"fixation"	n/a	n/a	n/a	n/a	"NULL"	n/a	"NULL"	"NULL"	"NULL"	"<p style=\"color: black; font-size: 80px; padding-left: 39%; padding-right: 26%; padding-top: 40%; padding-bottom: 7%\">+</p>"	"1398"	n/a	n/a	n/a	n/a	n/a	n/a	n/a	n/a	n/a
n/a	"image-keyboard-response"	"88"	"263949"	"0.0-5.0-2.0-1.17"	"wlqrrh"	"600"	"1366"	"chrome"	"111.0.0"	"FALSE"	"Windows 10"	"60.05"	"063"	n/a	n/a	n/a	n/a	n/a	n/a	"Trial"	n/a	n/a	n/a	"504"	"arrowleft"	n/a	"NULL"	"NULL"	"NULL"	"stimuli/VerticalHorizontal_-20.27143_0.22500.png"	n/a	"VerticalHorizontal"	"arrowleft"	"1399"	"TRUE"	"VerticalHorizontal"	"-20.27143000"	"0.2250000000"	"1"	"36"
n/a	"html-keyboard-response"	"89"	"265274"	"0.0-5.0-2.0-0.18"	"wlqrrh"	"600"	"1366"	"chrome"	"111.0.0"	"FALSE"	"Windows 10"	"60.05"	"063"	n/a	n/a	n/a	n/a	n/a	n/a	"fixation"	n/a	n/a	n/a	n/a	"NULL"	n/a	"NULL"	"NULL"	"NULL"	"<p style=\"color: black; font-size: 80px; padding-left: 36%; padding-right: 24%; padding-top: 37%; padding-bottom: 40%\">+</p>"	"1316"	n/a	n/a	n/a	n/a	n/a	n/a	n/a	n/a	n/a
n/a	"image-keyboard-response"	"90"	"266005"	"0.0-5.0-2.0-1.18"	"wlqrrh"	"600"	"1366"	"chrome"	"111.0.0"	"FALSE"	"Windows 10"	"60.05"	"063"	n/a	n/a	n/a	n/a	n/a	n/a	"Trial"	n/a	n/a	n/a	"731"	"arrowleft"	n/a	"NULL"	"NULL"	"NULL"	"stimuli/VerticalHorizontal_11.78571_0.22500.png"	n/a	"VerticalHorizontal"	"arrowleft"	"1325"	"TRUE"	"VerticalHorizontal"	"11.785710000"	"0.2250000000"	"1"	"37"
n/a	"html-keyboard-response"	"91"	"267468"	"0.0-5.0-2.0-0.19"	"wlqrrh"	"600"	"1366"	"chrome"	"111.0.0"	"FALSE"	"Windows 10"	"60.05"	"063"	n/a	n/a	n/a	n/a	n/a	n/a	"fixation"	n/a	n/a	n/a	n/a	"NULL"	n/a	"NULL"	"NULL"	"NULL"	"<p style=\"color: black; font-size: 80px; padding-left: 25%; padding-right: 36%; padding-top: 28%; padding-bottom: 19%\">+</p>"	"1452"	n/a	n/a	n/a	n/a	n/a	n/a	n/a	n/a	n/a
n/a	"image-keyboard-response"	"92"	"268006"	"0.0-5.0-2.0-1.19"	"wlqrrh"	"600"	"1366"	"chrome"	"111.0.0"	"FALSE"	"Windows 10"	"60.05"	"063"	n/a	n/a	n/a	n/a	n/a	n/a	"Trial"	n/a	n/a	n/a	"538"	"arrowright"	n/a	"NULL"	"NULL"	"NULL"	"stimuli/VerticalHorizontal_-3.3000_-0.1096.png"	n/a	"VerticalHorizontal"	"arrowright"	"1463"	"TRUE"	"VerticalHorizontal"	"-3.300000000"	"-0.109600000"	"1"	"38"
n/a	"html-keyboard-response"	"93"	"269054"	"0.0-5.0-2.0-0.20"	"wlqrrh"	"600"	"1366"	"chrome"	"111.0.0"	"FALSE"	"Windows 10"	"60.05"	"063"	n/a	n/a	n/a	n/a	n/a	n/a	"fixation"	n/a	n/a	n/a	n/a	"NULL"	n/a	"NULL"	"NULL"	"NULL"	"<p style=\"color: black; font-size: 80px; padding-left: 43%; padding-right: 50%; padding-top: 49%; padding-bottom: 24%\">+</p>"	"1044"	n/a	n/a	n/a	n/a	n/a	n/a	n/a	n/a	n/a
n/a	"image-keyboard-response"	"94"	"269641"	"0.0-5.0-2.0-1.20"	"wlqrrh"	"600"	"1366"	"chrome"	"111.0.0"	"FALSE"	"Windows 10"	"60.05"	"063"	n/a	n/a	n/a	n/a	n/a	n/a	"Trial"	n/a	n/a	n/a	"586"	"arrowright"	n/a	"NULL"	"NULL"	"NULL"	"stimuli/VerticalHorizontal_11.78571_-0.2250.png"	n/a	"VerticalHorizontal"	"arrowright"	"1048"	"TRUE"	"VerticalHorizontal"	"11.785710000"	"-0.225000000"	"1"	"39"
n/a	"html-keyboard-response"	"95"	"270919"	"0.0-5.0-2.0-0.21"	"wlqrrh"	"600"	"1366"	"chrome"	"111.0.0"	"FALSE"	"Windows 10"	"60.05"	"063"	n/a	n/a	n/a	n/a	n/a	n/a	"fixation"	n/a	n/a	n/a	n/a	"NULL"	n/a	"NULL"	"NULL"	"NULL"	"<p style=\"color: black; font-size: 80px; padding-left: 13%; padding-right: 47%; padding-top: 50%; padding-bottom: 40%\">+</p>"	"1262"	n/a	n/a	n/a	n/a	n/a	n/a	n/a	n/a	n/a
n/a	"image-keyboard-response"	"96"	"271635"	"0.0-5.0-2.0-1.21"	"wlqrrh"	"600"	"1366"	"chrome"	"111.0.0"	"FALSE"	"Windows 10"	"60.05"	"063"	n/a	n/a	n/a	n/a	n/a	n/a	"Trial"	n/a	n/a	n/a	"715"	"arrowright"	n/a	"NULL"	"NULL"	"NULL"	"stimuli/VerticalHorizontal_11.78571_0.06730.png"	n/a	"VerticalHorizontal"	"arrowleft"	"1278"	"FALSE"	"VerticalHorizontal"	"11.785710000"	"0.0673000000"	"1"	"40"
n/a	"html-keyboard-response"	"97"	"272776"	"0.0-5.0-2.0-0.22"	"wlqrrh"	"600"	"1366"	"chrome"	"111.0.0"	"FALSE"	"Windows 10"	"60.05"	"063"	n/a	n/a	n/a	n/a	n/a	n/a	"fixation"	n/a	n/a	n/a	n/a	"NULL"	n/a	"NULL"	"NULL"	"NULL"	"<p style=\"color: black; font-size: 80px; padding-left: 26%; padding-right: 44%; padding-top: 3%; padding-bottom: 6%\">+</p>"	"1139"	n/a	n/a	n/a	n/a	n/a	n/a	n/a	n/a	n/a
n/a	"image-keyboard-response"	"98"	"274099"	"0.0-5.0-2.0-1.22"	"wlqrrh"	"600"	"1366"	"chrome"	"111.0.0"	"FALSE"	"Windows 10"	"60.05"	"063"	n/a	n/a	n/a	n/a	n/a	n/a	"Trial"	n/a	n/a	n/a	"1323"	"arrowleft"	n/a	"NULL"	"NULL"	"NULL"	"stimuli/VerticalHorizontal_-20.27143_0.06730.png"	n/a	"VerticalHorizontal"	"arrowleft"	"1141"	"TRUE"	"VerticalHorizontal"	"-20.27143000"	"0.0673000000"	"1"	"41"
n/a	"html-keyboard-response"	"99"	"275604"	"0.0-5.0-2.0-0.23"	"wlqrrh"	"600"	"1366"	"chrome"	"111.0.0"	"FALSE"	"Windows 10"	"60.05"	"063"	n/a	n/a	n/a	n/a	n/a	n/a	"fixation"	n/a	n/a	n/a	n/a	"NULL"	n/a	"NULL"	"NULL"	"NULL"	"<p style=\"color: black; font-size: 80px; padding-left: 34%; padding-right: 16%; padding-top: 5%; padding-bottom: 42%\">+</p>"	"1488"	n/a	n/a	n/a	n/a	n/a	n/a	n/a	n/a	n/a
n/a	"image-keyboard-response"	"100"	"276230"	"0.0-5.0-2.0-1.23"	"wlqrrh"	"600"	"1366"	"chrome"	"111.0.0"	"FALSE"	"Windows 10"	"60.05"	"063"	n/a	n/a	n/a	n/a	n/a	n/a	"Trial"	n/a	n/a	n/a	"625"	"arrowright"	n/a	"NULL"	"NULL"	"NULL"	"stimuli/VerticalHorizontal_20.27143_0.06730.png"	n/a	"VerticalHorizontal"	"arrowleft"	"1505"	"FALSE"	"VerticalHorizontal"	"20.271430000"	"0.0673000000"	"1"	"42"
n/a	"html-keyboard-response"	"101"	"277351"	"0.0-5.0-2.0-0.24"	"wlqrrh"	"600"	"1366"	"chrome"	"111.0.0"	"FALSE"	"Windows 10"	"60.05"	"063"	n/a	n/a	n/a	n/a	n/a	n/a	"fixation"	n/a	n/a	n/a	n/a	"NULL"	n/a	"NULL"	"NULL"	"NULL"	"<p style=\"color: black; font-size: 80px; padding-left: 3%; padding-right: 34%; padding-top: 33%; padding-bottom: 26%\">+</p>"	"1119"	n/a	n/a	n/a	n/a	n/a	n/a	n/a	n/a	n/a
n/a	"image-keyboard-response"	"102"	"277896"	"0.0-5.0-2.0-1.24"	"wlqrrh"	"600"	"1366"	"chrome"	"111.0.0"	"FALSE"	"Windows 10"	"60.05"	"063"	n/a	n/a	n/a	n/a	n/a	n/a	"Trial"	n/a	n/a	n/a	"543"	"arrowright"	n/a	"NULL"	"NULL"	"NULL"	"stimuli/VerticalHorizontal_-20.27143_-0.1096.png"	n/a	"VerticalHorizontal"	"arrowright"	"1121"	"TRUE"	"VerticalHorizontal"	"-20.27143000"	"-0.109600000"	"1"	"43"
n/a	"html-keyboard-response"	"103"	"279353"	"0.0-5.0-2.0-0.25"	"wlqrrh"	"600"	"1366"	"chrome"	"111.0.0"	"FALSE"	"Windows 10"	"60.05"	"063"	n/a	n/a	n/a	n/a	n/a	n/a	"fixation"	n/a	n/a	n/a	n/a	"NULL"	n/a	"NULL"	"NULL"	"NULL"	"<p style=\"color: black; font-size: 80px; padding-left: 16%; padding-right: 10%; padding-top: 6%; padding-bottom: 11%\">+</p>"	"1443"	n/a	n/a	n/a	n/a	n/a	n/a	n/a	n/a	n/a
n/a	"image-keyboard-response"	"104"	"280443"	"0.0-5.0-2.0-1.25"	"wlqrrh"	"600"	"1366"	"chrome"	"111.0.0"	"FALSE"	"Windows 10"	"60.05"	"063"	n/a	n/a	n/a	n/a	n/a	n/a	"Trial"	n/a	n/a	n/a	"1090"	"arrowright"	n/a	"NULL"	"NULL"	"NULL"	"stimuli/VerticalHorizontal_11.78571_-0.1096.png"	n/a	"VerticalHorizontal"	"arrowright"	"1457"	"TRUE"	"VerticalHorizontal"	"11.785710000"	"-0.109600000"	"1"	"44"
n/a	"html-keyboard-response"	"105"	"281870"	"0.0-5.0-2.0-0.26"	"wlqrrh"	"600"	"1366"	"chrome"	"111.0.0"	"FALSE"	"Windows 10"	"60.05"	"063"	n/a	n/a	n/a	n/a	n/a	n/a	"fixation"	n/a	n/a	n/a	n/a	"NULL"	n/a	"NULL"	"NULL"	"NULL"	"<p style=\"color: black; font-size: 80px; padding-left: 10%; padding-right: 17%; padding-top: 37%; padding-bottom: 9%\">+</p>"	"1423"	n/a	n/a	n/a	n/a	n/a	n/a	n/a	n/a	n/a
n/a	"image-keyboard-response"	"106"	"283470"	"0.0-5.0-2.0-1.26"	"wlqrrh"	"600"	"1366"	"chrome"	"111.0.0"	"FALSE"	"Windows 10"	"60.05"	"063"	n/a	n/a	n/a	n/a	n/a	n/a	"Trial"	n/a	n/a	n/a	"1599"	"arrowleft"	n/a	"NULL"	"NULL"	"NULL"	"stimuli/VerticalHorizontal_28.75714_0.10960.png"	n/a	"VerticalHorizontal"	"arrowleft"	"1427"	"TRUE"	"VerticalHorizontal"	"28.757140000"	"0.1096000000"	"1"	"45"
n/a	"html-keyboard-response"	"107"	"284635"	"0.0-5.0-2.0-0.27"	"wlqrrh"	"600"	"1366"	"chrome"	"111.0.0"	"FALSE"	"Windows 10"	"60.05"	"063"	n/a	n/a	n/a	n/a	n/a	n/a	"fixation"	n/a	n/a	n/a	n/a	"NULL"	n/a	"NULL"	"NULL"	"NULL"	"<p style=\"color: black; font-size: 80px; padding-left: 22%; padding-right: 46%; padding-top: 12%; padding-bottom: 42%\">+</p>"	"1162"	n/a	n/a	n/a	n/a	n/a	n/a	n/a	n/a	n/a
n/a	"image-keyboard-response"	"108"	"285156"	"0.0-5.0-2.0-1.27"	"wlqrrh"	"600"	"1366"	"chrome"	"111.0.0"	"FALSE"	"Windows 10"	"60.05"	"063"	n/a	n/a	n/a	n/a	n/a	n/a	"Trial"	n/a	n/a	n/a	"520"	"arrowright"	n/a	"NULL"	"NULL"	"NULL"	"stimuli/VerticalHorizontal_11.78571_-0.16217.png"	n/a	"VerticalHorizontal"	"arrowright"	"1165"	"TRUE"	"VerticalHorizontal"	"11.785710000"	"-0.162170000"	"1"	"46"
n/a	"html-keyboard-response"	"109"	"286515"	"0.0-5.0-2.0-0.28"	"wlqrrh"	"600"	"1366"	"chrome"	"111.0.0"	"FALSE"	"Windows 10"	"60.05"	"063"	n/a	n/a	n/a	n/a	n/a	n/a	"fixation"	n/a	n/a	n/a	n/a	"NULL"	n/a	"NULL"	"NULL"	"NULL"	"<p style=\"color: black; font-size: 80px; padding-left: 41%; padding-right: 48%; padding-top: 8%; padding-bottom: 15%\">+</p>"	"1346"	n/a	n/a	n/a	n/a	n/a	n/a	n/a	n/a	n/a
n/a	"image-keyboard-response"	"110"	"287210"	"0.0-5.0-2.0-1.28"	"wlqrrh"	"600"	"1366"	"chrome"	"111.0.0"	"FALSE"	"Windows 10"	"60.05"	"063"	n/a	n/a	n/a	n/a	n/a	n/a	"Trial"	n/a	n/a	n/a	"695"	"arrowleft"	n/a	"NULL"	"NULL"	"NULL"	"stimuli/VerticalHorizontal_28.75714_0.22500.png"	n/a	"VerticalHorizontal"	"arrowleft"	"1359"	"TRUE"	"VerticalHorizontal"	"28.757140000"	"0.2250000000"	"1"	"47"
n/a	"html-keyboard-response"	"111"	"288414"	"0.0-5.0-2.0-0.29"	"wlqrrh"	"600"	"1366"	"chrome"	"111.0.0"	"FALSE"	"Windows 10"	"60.05"	"063"	n/a	n/a	n/a	n/a	n/a	n/a	"fixation"	n/a	n/a	n/a	n/a	"NULL"	n/a	"NULL"	"NULL"	"NULL"	"<p style=\"color: black; font-size: 80px; padding-left: 14%; padding-right: 2%; padding-top: 17%; padding-bottom: 10%\">+</p>"	"1201"	n/a	n/a	n/a	n/a	n/a	n/a	n/a	n/a	n/a
n/a	"image-keyboard-response"	"112"	"289119"	"0.0-5.0-2.0-1.29"	"wlqrrh"	"600"	"1366"	"chrome"	"111.0.0"	"FALSE"	"Windows 10"	"60.05"	"063"	n/a	n/a	n/a	n/a	n/a	n/a	"Trial"	n/a	n/a	n/a	"705"	"arrowleft"	n/a	"NULL"	"NULL"	"NULL"	"stimuli/VerticalHorizontal_-20.27143_0.16217.png"	n/a	"VerticalHorizontal"	"arrowleft"	"1204"	"TRUE"	"VerticalHorizontal"	"-20.27143000"	"0.1621700000"	"1"	"48"
n/a	"html-keyboard-response"	"113"	"290239"	"0.0-5.0-2.0-0.30"	"wlqrrh"	"600"	"1366"	"chrome"	"111.0.0"	"FALSE"	"Windows 10"	"60.05"	"063"	n/a	n/a	n/a	n/a	n/a	n/a	"fixation"	n/a	n/a	n/a	n/a	"NULL"	n/a	"NULL"	"NULL"	"NULL"	"<p style=\"color: black; font-size: 80px; padding-left: 45%; padding-right: 7%; padding-top: 22%; padding-bottom: 26%\">+</p>"	"1107"	n/a	n/a	n/a	n/a	n/a	n/a	n/a	n/a	n/a
n/a	"image-keyboard-response"	"114"	"290745"	"0.0-5.0-2.0-1.30"	"wlqrrh"	"600"	"1366"	"chrome"	"111.0.0"	"FALSE"	"Windows 10"	"60.05"	"063"	n/a	n/a	n/a	n/a	n/a	n/a	"Trial"	n/a	n/a	n/a	"505"	"arrowright"	n/a	"NULL"	"NULL"	"NULL"	"stimuli/VerticalHorizontal_-3.3000_-0.16217.png"	n/a	"VerticalHorizontal"	"arrowright"	"1120"	"TRUE"	"VerticalHorizontal"	"-3.300000000"	"-0.162170000"	"1"	"49"
n/a	"html-keyboard-response"	"115"	"292178"	"0.0-5.0-2.0-0.31"	"wlqrrh"	"600"	"1366"	"chrome"	"111.0.0"	"FALSE"	"Windows 10"	"60.05"	"063"	n/a	n/a	n/a	n/a	n/a	n/a	"fixation"	n/a	n/a	n/a	n/a	"NULL"	n/a	"NULL"	"NULL"	"NULL"	"<p style=\"color: black; font-size: 80px; padding-left: 47%; padding-right: 11%; padding-top: 20%; padding-bottom: 4%\">+</p>"	"1427"	n/a	n/a	n/a	n/a	n/a	n/a	n/a	n/a	n/a
n/a	"image-keyboard-response"	"116"	"293119"	"0.0-5.0-2.0-1.31"	"wlqrrh"	"600"	"1366"	"chrome"	"111.0.0"	"FALSE"	"Windows 10"	"60.05"	"063"	n/a	n/a	n/a	n/a	n/a	n/a	"Trial"	n/a	n/a	n/a	"940"	"arrowleft"	n/a	"NULL"	"NULL"	"NULL"	"stimuli/VerticalHorizontal_-3.3000_0.10960.png"	n/a	"VerticalHorizontal"	"arrowleft"	"1433"	"TRUE"	"VerticalHorizontal"	"-3.300000000"	"0.1096000000"	"1"	"50"
n/a	"html-keyboard-response"	"117"	"294303"	"0.0-5.0-2.0-0.32"	"wlqrrh"	"600"	"1366"	"chrome"	"111.0.0"	"FALSE"	"Windows 10"	"60.05"	"063"	n/a	n/a	n/a	n/a	n/a	n/a	"fixation"	n/a	n/a	n/a	n/a	"NULL"	n/a	"NULL"	"NULL"	"NULL"	"<p style=\"color: black; font-size: 80px; padding-left: 16%; padding-right: 49%; padding-top: 2%; padding-bottom: 31%\">+</p>"	"1173"	n/a	n/a	n/a	n/a	n/a	n/a	n/a	n/a	n/a
n/a	"image-keyboard-response"	"118"	"294920"	"0.0-5.0-2.0-1.32"	"wlqrrh"	"600"	"1366"	"chrome"	"111.0.0"	"FALSE"	"Windows 10"	"60.05"	"063"	n/a	n/a	n/a	n/a	n/a	n/a	"Trial"	n/a	n/a	n/a	"616"	"arrowright"	n/a	"NULL"	"NULL"	"NULL"	"stimuli/VerticalHorizontal_28.75714_-0.16217.png"	n/a	"VerticalHorizontal"	"arrowright"	"1184"	"TRUE"	"VerticalHorizontal"	"28.757140000"	"-0.162170000"	"1"	"51"
n/a	"html-keyboard-response"	"119"	"296224"	"0.0-5.0-2.0-0.33"	"wlqrrh"	"600"	"1366"	"chrome"	"111.0.0"	"FALSE"	"Windows 10"	"60.05"	"063"	n/a	n/a	n/a	n/a	n/a	n/a	"fixation"	n/a	n/a	n/a	n/a	"NULL"	n/a	"NULL"	"NULL"	"NULL"	"<p style=\"color: black; font-size: 80px; padding-left: 32%; padding-right: 31%; padding-top: 7%; padding-bottom: 47%\">+</p>"	"1292"	n/a	n/a	n/a	n/a	n/a	n/a	n/a	n/a	n/a
n/a	"image-keyboard-response"	"120"	"297056"	"0.0-5.0-2.0-1.33"	"wlqrrh"	"600"	"1366"	"chrome"	"111.0.0"	"FALSE"	"Windows 10"	"60.05"	"063"	n/a	n/a	n/a	n/a	n/a	n/a	"Trial"	n/a	n/a	n/a	"831"	"arrowleft"	n/a	"NULL"	"NULL"	"NULL"	"stimuli/VerticalHorizontal_-3.3000_0.06730.png"	n/a	"VerticalHorizontal"	"arrowleft"	"1304"	"TRUE"	"VerticalHorizontal"	"-3.300000000"	"0.0673000000"	"1"	"52"
n/a	"html-keyboard-response"	"121"	"298261"	"0.0-5.0-2.0-0.34"	"wlqrrh"	"600"	"1366"	"chrome"	"111.0.0"	"FALSE"	"Windows 10"	"60.05"	"063"	n/a	n/a	n/a	n/a	n/a	n/a	"fixation"	n/a	n/a	n/a	n/a	"NULL"	n/a	"NULL"	"NULL"	"NULL"	"<p style=\"color: black; font-size: 80px; padding-left: 40%; padding-right: 9%; padding-top: 20%; padding-bottom: 19%\">+</p>"	"1196"	n/a	n/a	n/a	n/a	n/a	n/a	n/a	n/a	n/a
n/a	"image-keyboard-response"	"122"	"299183"	"0.0-5.0-2.0-1.34"	"wlqrrh"	"600"	"1366"	"chrome"	"111.0.0"	"FALSE"	"Windows 10"	"60.05"	"063"	n/a	n/a	n/a	n/a	n/a	n/a	"Trial"	n/a	n/a	n/a	"921"	"arrowleft"	n/a	"NULL"	"NULL"	"NULL"	"stimuli/VerticalHorizontal_3.30000_0.10960.png"	n/a	"VerticalHorizontal"	"arrowleft"	"1205"	"TRUE"	"VerticalHorizontal"	"3.3000000000"	"0.1096000000"	"1"	"53"
n/a	"html-keyboard-response"	"123"	"300226"	"0.0-5.0-2.0-0.35"	"wlqrrh"	"600"	"1366"	"chrome"	"111.0.0"	"FALSE"	"Windows 10"	"60.05"	"063"	n/a	n/a	n/a	n/a	n/a	n/a	"fixation"	n/a	n/a	n/a	n/a	"NULL"	n/a	"NULL"	"NULL"	"NULL"	"<p style=\"color: black; font-size: 80px; padding-left: 19%; padding-right: 12%; padding-top: 24%; padding-bottom: 8%\">+</p>"	"1032"	n/a	n/a	n/a	n/a	n/a	n/a	n/a	n/a	n/a
n/a	"image-keyboard-response"	"124"	"300702"	"0.0-5.0-2.0-1.35"	"wlqrrh"	"600"	"1366"	"chrome"	"111.0.0"	"FALSE"	"Windows 10"	"60.05"	"063"	n/a	n/a	n/a	n/a	n/a	n/a	"Trial"	n/a	n/a	n/a	"476"	"arrowright"	n/a	"NULL"	"NULL"	"NULL"	"stimuli/VerticalHorizontal_-20.27143_-0.0673.png"	n/a	"VerticalHorizontal"	"arrowright"	"1043"	"TRUE"	"VerticalHorizontal"	"-20.27143000"	"-0.067300000"	"1"	"54"
n/a	"html-keyboard-response"	"125"	"301775"	"0.0-5.0-2.0-0.36"	"wlqrrh"	"600"	"1366"	"chrome"	"111.0.0"	"FALSE"	"Windows 10"	"60.05"	"063"	n/a	n/a	n/a	n/a	n/a	n/a	"fixation"	n/a	n/a	n/a	n/a	"NULL"	n/a	"NULL"	"NULL"	"NULL"	"<p style=\"color: black; font-size: 80px; padding-left: 13%; padding-right: 30%; padding-top: 7%; padding-bottom: 36%\">+</p>"	"1070"	n/a	n/a	n/a	n/a	n/a	n/a	n/a	n/a	n/a
n/a	"image-keyboard-response"	"126"	"302437"	"0.0-5.0-2.0-1.36"	"wlqrrh"	"600"	"1366"	"chrome"	"111.0.0"	"FALSE"	"Windows 10"	"60.05"	"063"	n/a	n/a	n/a	n/a	n/a	n/a	"Trial"	n/a	n/a	n/a	"661"	"arrowright"	n/a	"NULL"	"NULL"	"NULL"	"stimuli/VerticalHorizontal_3.30000_-0.2250.png"	n/a	"VerticalHorizontal"	"arrowright"	"1073"	"TRUE"	"VerticalHorizontal"	"3.3000000000"	"-0.225000000"	"1"	"55"
n/a	"html-keyboard-response"	"127"	"303902"	"0.0-5.0-2.0-0.37"	"wlqrrh"	"600"	"1366"	"chrome"	"111.0.0"	"FALSE"	"Windows 10"	"60.05"	"063"	n/a	n/a	n/a	n/a	n/a	n/a	"fixation"	n/a	n/a	n/a	n/a	"NULL"	n/a	"NULL"	"NULL"	"NULL"	"<p style=\"color: black; font-size: 80px; padding-left: 34%; padding-right: 46%; padding-top: 42%; padding-bottom: 28%\">+</p>"	"1455"	n/a	n/a	n/a	n/a	n/a	n/a	n/a	n/a	n/a
n/a	"image-keyboard-response"	"128"	"305124"	"0.0-5.0-2.0-1.37"	"wlqrrh"	"600"	"1366"	"chrome"	"111.0.0"	"FALSE"	"Windows 10"	"60.05"	"063"	n/a	n/a	n/a	n/a	n/a	n/a	"Trial"	n/a	n/a	n/a	"1221"	"arrowleft"	n/a	"NULL"	"NULL"	"NULL"	"stimuli/VerticalHorizontal_28.75714_0.16217.png"	n/a	"VerticalHorizontal"	"arrowleft"	"1465"	"TRUE"	"VerticalHorizontal"	"28.757140000"	"0.1621700000"	"1"	"56"
n/a	"html-keyboard-response"	"129"	"306235"	"0.0-5.0-2.0-0.38"	"wlqrrh"	"600"	"1366"	"chrome"	"111.0.0"	"FALSE"	"Windows 10"	"60.05"	"063"	n/a	n/a	n/a	n/a	n/a	n/a	"fixation"	n/a	n/a	n/a	n/a	"NULL"	n/a	"NULL"	"NULL"	"NULL"	"<p style=\"color: black; font-size: 80px; padding-left: 4%; padding-right: 1%; padding-top: 21%; padding-bottom: 13%\">+</p>"	"1094"	n/a	n/a	n/a	n/a	n/a	n/a	n/a	n/a	n/a
n/a	"image-keyboard-response"	"130"	"306942"	"0.0-5.0-2.0-1.38"	"wlqrrh"	"600"	"1366"	"chrome"	"111.0.0"	"FALSE"	"Windows 10"	"60.05"	"063"	n/a	n/a	n/a	n/a	n/a	n/a	"Trial"	n/a	n/a	n/a	"706"	"arrowright"	n/a	"NULL"	"NULL"	"NULL"	"stimuli/VerticalHorizontal_28.75714_-0.1096.png"	n/a	"VerticalHorizontal"	"arrowright"	"1111"	"TRUE"	"VerticalHorizontal"	"28.757140000"	"-0.109600000"	"1"	"57"
n/a	"html-keyboard-response"	"131"	"308432"	"0.0-5.0-2.0-0.39"	"wlqrrh"	"600"	"1366"	"chrome"	"111.0.0"	"FALSE"	"Windows 10"	"60.05"	"063"	n/a	n/a	n/a	n/a	n/a	n/a	"fixation"	n/a	n/a	n/a	n/a	"NULL"	n/a	"NULL"	"NULL"	"NULL"	"<p style=\"color: black; font-size: 80px; padding-left: 34%; padding-right: 28%; padding-top: 35%; padding-bottom: 18%\">+</p>"	"1481"	n/a	n/a	n/a	n/a	n/a	n/a	n/a	n/a	n/a
n/a	"image-keyboard-response"	"132"	"308966"	"0.0-5.0-2.0-1.39"	"wlqrrh"	"600"	"1366"	"chrome"	"111.0.0"	"FALSE"	"Windows 10"	"60.05"	"063"	n/a	n/a	n/a	n/a	n/a	n/a	"Trial"	n/a	n/a	n/a	"532"	"arrowright"	n/a	"NULL"	"NULL"	"NULL"	"stimuli/VerticalHorizontal_-11.78571_-0.16217.png"	n/a	"VerticalHorizontal"	"arrowright"	"1490"	"TRUE"	"VerticalHorizontal"	"-11.78571000"	"-0.162170000"	"1"	"58"
n/a	"html-keyboard-response"	"133"	"310099"	"0.0-5.0-2.0-0.40"	"wlqrrh"	"600"	"1366"	"chrome"	"111.0.0"	"FALSE"	"Windows 10"	"60.05"	"063"	n/a	n/a	n/a	n/a	n/a	n/a	"fixation"	n/a	n/a	n/a	n/a	"NULL"	n/a	"NULL"	"NULL"	"NULL"	"<p style=\"color: black; font-size: 80px; padding-left: 50%; padding-right: 40%; padding-top: 44%; padding-bottom: 4%\">+</p>"	"1123"	n/a	n/a	n/a	n/a	n/a	n/a	n/a	n/a	n/a
n/a	"image-keyboard-response"	"134"	"311039"	"0.0-5.0-2.0-1.40"	"wlqrrh"	"600"	"1366"	"chrome"	"111.0.0"	"FALSE"	"Windows 10"	"60.05"	"063"	n/a	n/a	n/a	n/a	n/a	n/a	"Trial"	n/a	n/a	n/a	"939"	"arrowleft"	n/a	"NULL"	"NULL"	"NULL"	"stimuli/VerticalHorizontal_-20.27143_0.10960.png"	n/a	"VerticalHorizontal"	"arrowleft"	"1133"	"TRUE"	"VerticalHorizontal"	"-20.27143000"	"0.1096000000"	"1"	"59"
n/a	"html-keyboard-response"	"135"	"312326"	"0.0-5.0-2.0-0.41"	"wlqrrh"	"600"	"1366"	"chrome"	"111.0.0"	"FALSE"	"Windows 10"	"60.05"	"063"	n/a	n/a	n/a	n/a	n/a	n/a	"fixation"	n/a	n/a	n/a	n/a	"NULL"	n/a	"NULL"	"NULL"	"NULL"	"<p style=\"color: black; font-size: 80px; padding-left: 24%; padding-right: 38%; padding-top: 21%; padding-bottom: 34%\">+</p>"	"1277"	n/a	n/a	n/a	n/a	n/a	n/a	n/a	n/a	n/a
n/a	"image-keyboard-response"	"136"	"312936"	"0.0-5.0-2.0-1.41"	"wlqrrh"	"600"	"1366"	"chrome"	"111.0.0"	"FALSE"	"Windows 10"	"60.05"	"063"	n/a	n/a	n/a	n/a	n/a	n/a	"Trial"	n/a	n/a	n/a	"609"	"arrowright"	n/a	"NULL"	"NULL"	"NULL"	"stimuli/VerticalHorizontal_20.27143_-0.16217.png"	n/a	"VerticalHorizontal"	"arrowright"	"1287"	"TRUE"	"VerticalHorizontal"	"20.271430000"	"-0.162170000"	"1"	"60"
n/a	"html-keyboard-response"	"137"	"314350"	"0.0-5.0-2.0-0.42"	"wlqrrh"	"600"	"1366"	"chrome"	"111.0.0"	"FALSE"	"Windows 10"	"60.05"	"063"	n/a	n/a	n/a	n/a	n/a	n/a	"fixation"	n/a	n/a	n/a	n/a	"NULL"	n/a	"NULL"	"NULL"	"NULL"	"<p style=\"color: black; font-size: 80px; padding-left: 0%; padding-right: 42%; padding-top: 14%; padding-bottom: 50%\">+</p>"	"1400"	n/a	n/a	n/a	n/a	n/a	n/a	n/a	n/a	n/a
n/a	"image-keyboard-response"	"138"	"314882"	"0.0-5.0-2.0-1.42"	"wlqrrh"	"600"	"1366"	"chrome"	"111.0.0"	"FALSE"	"Windows 10"	"60.05"	"063"	n/a	n/a	n/a	n/a	n/a	n/a	"Trial"	n/a	n/a	n/a	"531"	"arrowright"	n/a	"NULL"	"NULL"	"NULL"	"stimuli/VerticalHorizontal_-28.75714_-0.16217.png"	n/a	"VerticalHorizontal"	"arrowright"	"1414"	"TRUE"	"VerticalHorizontal"	"-28.75714000"	"-0.162170000"	"1"	"61"
n/a	"html-keyboard-response"	"139"	"316072"	"0.0-5.0-2.0-0.43"	"wlqrrh"	"600"	"1366"	"chrome"	"111.0.0"	"FALSE"	"Windows 10"	"60.05"	"063"	n/a	n/a	n/a	n/a	n/a	n/a	"fixation"	n/a	n/a	n/a	n/a	"NULL"	n/a	"NULL"	"NULL"	"NULL"	"<p style=\"color: black; font-size: 80px; padding-left: 20%; padding-right: 18%; padding-top: 44%; padding-bottom: 18%\">+</p>"	"1177"	n/a	n/a	n/a	n/a	n/a	n/a	n/a	n/a	n/a
n/a	"image-keyboard-response"	"140"	"316664"	"0.0-5.0-2.0-1.43"	"wlqrrh"	"600"	"1366"	"chrome"	"111.0.0"	"FALSE"	"Windows 10"	"60.05"	"063"	n/a	n/a	n/a	n/a	n/a	n/a	"Trial"	n/a	n/a	n/a	"591"	"arrowright"	n/a	"NULL"	"NULL"	"NULL"	"stimuli/VerticalHorizontal_3.30000_-0.1096.png"	n/a	"VerticalHorizontal"	"arrowright"	"1190"	"TRUE"	"VerticalHorizontal"	"3.3000000000"	"-0.109600000"	"1"	"62"
n/a	"html-keyboard-response"	"141"	"318083"	"0.0-5.0-2.0-0.44"	"wlqrrh"	"600"	"1366"	"chrome"	"111.0.0"	"FALSE"	"Windows 10"	"60.05"	"063"	n/a	n/a	n/a	n/a	n/a	n/a	"fixation"	n/a	n/a	n/a	n/a	"NULL"	n/a	"NULL"	"NULL"	"NULL"	"<p style=\"color: black; font-size: 80px; padding-left: 35%; padding-right: 22%; padding-top: 27%; padding-bottom: 42%\">+</p>"	"1416"	n/a	n/a	n/a	n/a	n/a	n/a	n/a	n/a	n/a
n/a	"image-keyboard-response"	"142"	"318968"	"0.0-5.0-2.0-1.44"	"wlqrrh"	"600"	"1366"	"chrome"	"111.0.0"	"FALSE"	"Windows 10"	"60.05"	"063"	n/a	n/a	n/a	n/a	n/a	n/a	"Trial"	n/a	n/a	n/a	"884"	"arrowleft"	n/a	"NULL"	"NULL"	"NULL"	"stimuli/VerticalHorizontal_11.78571_0.16217.png"	n/a	"VerticalHorizontal"	"arrowleft"	"1419"	"TRUE"	"VerticalHorizontal"	"11.785710000"	"0.1621700000"	"1"	"63"
n/a	"html-keyboard-response"	"143"	"320099"	"0.0-5.0-2.0-0.45"	"wlqrrh"	"600"	"1366"	"chrome"	"111.0.0"	"FALSE"	"Windows 10"	"60.05"	"063"	n/a	n/a	n/a	n/a	n/a	n/a	"fixation"	n/a	n/a	n/a	n/a	"NULL"	n/a	"NULL"	"NULL"	"NULL"	"<p style=\"color: black; font-size: 80px; padding-left: 10%; padding-right: 16%; padding-top: 48%; padding-bottom: 30%\">+</p>"	"1125"	n/a	n/a	n/a	n/a	n/a	n/a	n/a	n/a	n/a
n/a	"image-keyboard-response"	"144"	"320606"	"0.0-5.0-2.0-1.45"	"wlqrrh"	"600"	"1366"	"chrome"	"111.0.0"	"FALSE"	"Windows 10"	"60.05"	"063"	n/a	n/a	n/a	n/a	n/a	n/a	"Trial"	n/a	n/a	n/a	"506"	"arrowright"	n/a	"NULL"	"NULL"	"NULL"	"stimuli/VerticalHorizontal_-28.75714_-0.0673.png"	n/a	"VerticalHorizontal"	"arrowright"	"1131"	"TRUE"	"VerticalHorizontal"	"-28.75714000"	"-0.067300000"	"1"	"64"
n/a	"html-keyboard-response"	"145"	"321756"	"0.0-5.0-2.0-0.46"	"wlqrrh"	"600"	"1366"	"chrome"	"111.0.0"	"FALSE"	"Windows 10"	"60.05"	"063"	n/a	n/a	n/a	n/a	n/a	n/a	"fixation"	n/a	n/a	n/a	n/a	"NULL"	n/a	"NULL"	"NULL"	"NULL"	"<p style=\"color: black; font-size: 80px; padding-left: 40%; padding-right: 43%; padding-top: 16%; padding-bottom: 50%\">+</p>"	"1147"	n/a	n/a	n/a	n/a	n/a	n/a	n/a	n/a	n/a
n/a	"image-keyboard-response"	"146"	"322967"	"0.0-5.0-2.0-1.46"	"wlqrrh"	"600"	"1366"	"chrome"	"111.0.0"	"FALSE"	"Windows 10"	"60.05"	"063"	n/a	n/a	n/a	n/a	n/a	n/a	"Trial"	n/a	n/a	n/a	"1210"	"arrowright"	n/a	"NULL"	"NULL"	"NULL"	"stimuli/VerticalHorizontal_3.30000_-0.0673.png"	n/a	"VerticalHorizontal"	"arrowright"	"1150"	"TRUE"	"VerticalHorizontal"	"3.3000000000"	"-0.067300000"	"1"	"65"
n/a	"html-keyboard-response"	"147"	"324009"	"0.0-5.0-2.0-0.47"	"wlqrrh"	"600"	"1366"	"chrome"	"111.0.0"	"FALSE"	"Windows 10"	"60.05"	"063"	n/a	n/a	n/a	n/a	n/a	n/a	"fixation"	n/a	n/a	n/a	n/a	"NULL"	n/a	"NULL"	"NULL"	"NULL"	"<p style=\"color: black; font-size: 80px; padding-left: 33%; padding-right: 38%; padding-top: 10%; padding-bottom: 1%\">+</p>"	"1034"	n/a	n/a	n/a	n/a	n/a	n/a	n/a	n/a	n/a
n/a	"image-keyboard-response"	"148"	"324838"	"0.0-5.0-2.0-1.47"	"wlqrrh"	"600"	"1366"	"chrome"	"111.0.0"	"FALSE"	"Windows 10"	"60.05"	"063"	n/a	n/a	n/a	n/a	n/a	n/a	"Trial"	n/a	n/a	n/a	"828"	"arrowleft"	n/a	"NULL"	"NULL"	"NULL"	"stimuli/VerticalHorizontal_20.27143_0.22500.png"	n/a	"VerticalHorizontal"	"arrowleft"	"1042"	"TRUE"	"VerticalHorizontal"	"20.271430000"	"0.2250000000"	"1"	"66"
n/a	"html-keyboard-response"	"149"	"325941"	"0.0-5.0-2.0-0.48"	"wlqrrh"	"600"	"1366"	"chrome"	"111.0.0"	"FALSE"	"Windows 10"	"60.05"	"063"	n/a	n/a	n/a	n/a	n/a	n/a	"fixation"	n/a	n/a	n/a	n/a	"NULL"	n/a	"NULL"	"NULL"	"NULL"	"<p style=\"color: black; font-size: 80px; padding-left: 2%; padding-right: 17%; padding-top: 18%; padding-bottom: 22%\">+</p>"	"1093"	n/a	n/a	n/a	n/a	n/a	n/a	n/a	n/a	n/a
n/a	"image-keyboard-response"	"150"	"327364"	"0.0-5.0-2.0-1.48"	"wlqrrh"	"600"	"1366"	"chrome"	"111.0.0"	"FALSE"	"Windows 10"	"60.05"	"063"	n/a	n/a	n/a	n/a	n/a	n/a	"Trial"	n/a	n/a	n/a	"1422"	"arrowright"	n/a	"NULL"	"NULL"	"NULL"	"stimuli/VerticalHorizontal_28.75714_-0.0673.png"	n/a	"VerticalHorizontal"	"arrowright"	"1103"	"TRUE"	"VerticalHorizontal"	"28.757140000"	"-0.067300000"	"1"	"67"
n/a	"html-keyboard-response"	"151"	"328795"	"0.0-5.0-2.0-0.49"	"wlqrrh"	"600"	"1366"	"chrome"	"111.0.0"	"FALSE"	"Windows 10"	"60.05"	"063"	n/a	n/a	n/a	n/a	n/a	n/a	"fixation"	n/a	n/a	n/a	n/a	"NULL"	n/a	"NULL"	"NULL"	"NULL"	"<p style=\"color: black; font-size: 80px; padding-left: 14%; padding-right: 38%; padding-top: 0%; padding-bottom: 20%\">+</p>"	"1423"	n/a	n/a	n/a	n/a	n/a	n/a	n/a	n/a	n/a
n/a	"image-keyboard-response"	"152"	"329576"	"0.0-5.0-2.0-1.49"	"wlqrrh"	"600"	"1366"	"chrome"	"111.0.0"	"FALSE"	"Windows 10"	"60.05"	"063"	n/a	n/a	n/a	n/a	n/a	n/a	"Trial"	n/a	n/a	n/a	"780"	"arrowleft"	n/a	"NULL"	"NULL"	"NULL"	"stimuli/VerticalHorizontal_-3.3000_0.16217.png"	n/a	"VerticalHorizontal"	"arrowleft"	"1431"	"TRUE"	"VerticalHorizontal"	"-3.300000000"	"0.1621700000"	"1"	"68"
n/a	"html-keyboard-response"	"153"	"330843"	"0.0-5.0-2.0-0.50"	"wlqrrh"	"600"	"1366"	"chrome"	"111.0.0"	"FALSE"	"Windows 10"	"60.05"	"063"	n/a	n/a	n/a	n/a	n/a	n/a	"fixation"	n/a	n/a	n/a	n/a	"NULL"	n/a	"NULL"	"NULL"	"NULL"	"<p style=\"color: black; font-size: 80px; padding-left: 49%; padding-right: 44%; padding-top: 27%; padding-bottom: 15%\">+</p>"	"1254"	n/a	n/a	n/a	n/a	n/a	n/a	n/a	n/a	n/a
n/a	"image-keyboard-response"	"154"	"331637"	"0.0-5.0-2.0-1.50"	"wlqrrh"	"600"	"1366"	"chrome"	"111.0.0"	"FALSE"	"Windows 10"	"60.05"	"063"	n/a	n/a	n/a	n/a	n/a	n/a	"Trial"	n/a	n/a	n/a	"794"	"arrowright"	n/a	"NULL"	"NULL"	"NULL"	"stimuli/VerticalHorizontal_28.75714_0.06730.png"	n/a	"VerticalHorizontal"	"arrowleft"	"1267"	"FALSE"	"VerticalHorizontal"	"28.757140000"	"0.0673000000"	"1"	"69"
n/a	"html-keyboard-response"	"155"	"332920"	"0.0-5.0-2.0-0.51"	"wlqrrh"	"600"	"1366"	"chrome"	"111.0.0"	"FALSE"	"Windows 10"	"60.05"	"063"	n/a	n/a	n/a	n/a	n/a	n/a	"fixation"	n/a	n/a	n/a	n/a	"NULL"	n/a	"NULL"	"NULL"	"NULL"	"<p style=\"color: black; font-size: 80px; padding-left: 44%; padding-right: 42%; padding-top: 12%; padding-bottom: 17%\">+</p>"	"1268"	n/a	n/a	n/a	n/a	n/a	n/a	n/a	n/a	n/a
n/a	"image-keyboard-response"	"156"	"333480"	"0.0-5.0-2.0-1.51"	"wlqrrh"	"600"	"1366"	"chrome"	"111.0.0"	"FALSE"	"Windows 10"	"60.05"	"063"	n/a	n/a	n/a	n/a	n/a	n/a	"Trial"	n/a	n/a	n/a	"559"	"arrowright"	n/a	"NULL"	"NULL"	"NULL"	"stimuli/VerticalHorizontal_-20.27143_-0.16217.png"	n/a	"VerticalHorizontal"	"arrowright"	"1283"	"TRUE"	"VerticalHorizontal"	"-20.27143000"	"-0.162170000"	"1"	"70"
n/a	"html-keyboard-response"	"157"	"334928"	"0.0-5.0-2.0-0.52"	"wlqrrh"	"600"	"1366"	"chrome"	"111.0.0"	"FALSE"	"Windows 10"	"60.05"	"063"	n/a	n/a	n/a	n/a	n/a	n/a	"fixation"	n/a	n/a	n/a	n/a	"NULL"	n/a	"NULL"	"NULL"	"NULL"	"<p style=\"color: black; font-size: 80px; padding-left: 42%; padding-right: 31%; padding-top: 19%; padding-bottom: 23%\">+</p>"	"1437"	n/a	n/a	n/a	n/a	n/a	n/a	n/a	n/a	n/a
n/a	"image-keyboard-response"	"158"	"335812"	"0.0-5.0-2.0-1.52"	"wlqrrh"	"600"	"1366"	"chrome"	"111.0.0"	"FALSE"	"Windows 10"	"60.05"	"063"	n/a	n/a	n/a	n/a	n/a	n/a	"Trial"	n/a	n/a	n/a	"883"	"arrowright"	n/a	"NULL"	"NULL"	"NULL"	"stimuli/VerticalHorizontal_20.27143_-0.2250.png"	n/a	"VerticalHorizontal"	"arrowright"	"1448"	"TRUE"	"VerticalHorizontal"	"20.271430000"	"-0.225000000"	"1"	"71"
n/a	"html-keyboard-response"	"159"	"337256"	"0.0-5.0-2.0-0.53"	"wlqrrh"	"600"	"1366"	"chrome"	"111.0.0"	"FALSE"	"Windows 10"	"60.05"	"063"	n/a	n/a	n/a	n/a	n/a	n/a	"fixation"	n/a	n/a	n/a	n/a	"NULL"	n/a	"NULL"	"NULL"	"NULL"	"<p style=\"color: black; font-size: 80px; padding-left: 45%; padding-right: 4%; padding-top: 0%; padding-bottom: 33%\">+</p>"	"1442"	n/a	n/a	n/a	n/a	n/a	n/a	n/a	n/a	n/a
n/a	"image-keyboard-response"	"160"	"338385"	"0.0-5.0-2.0-1.53"	"wlqrrh"	"600"	"1366"	"chrome"	"111.0.0"	"FALSE"	"Windows 10"	"60.05"	"063"	n/a	n/a	n/a	n/a	n/a	n/a	"Trial"	n/a	n/a	n/a	"1129"	"arrowright"	n/a	"NULL"	"NULL"	"NULL"	"stimuli/VerticalHorizontal_-11.78571_-0.1096.png"	n/a	"VerticalHorizontal"	"arrowright"	"1444"	"TRUE"	"VerticalHorizontal"	"-11.78571000"	"-0.109600000"	"1"	"72"
n/a	"html-keyboard-response"	"161"	"339789"	"0.0-5.0-2.0-0.54"	"wlqrrh"	"600"	"1366"	"chrome"	"111.0.0"	"FALSE"	"Windows 10"	"60.05"	"063"	n/a	n/a	n/a	n/a	n/a	n/a	"fixation"	n/a	n/a	n/a	n/a	"NULL"	n/a	"NULL"	"NULL"	"NULL"	"<p style=\"color: black; font-size: 80px; padding-left: 50%; padding-right: 16%; padding-top: 22%; padding-bottom: 11%\">+</p>"	"1396"	n/a	n/a	n/a	n/a	n/a	n/a	n/a	n/a	n/a
n/a	"image-keyboard-response"	"162"	"340626"	"0.0-5.0-2.0-1.54"	"wlqrrh"	"600"	"1366"	"chrome"	"111.0.0"	"FALSE"	"Windows 10"	"60.05"	"063"	n/a	n/a	n/a	n/a	n/a	n/a	"Trial"	n/a	n/a	n/a	"836"	"arrowleft"	n/a	"NULL"	"NULL"	"NULL"	"stimuli/VerticalHorizontal_-11.78571_0.16217.png"	n/a	"VerticalHorizontal"	"arrowleft"	"1404"	"TRUE"	"VerticalHorizontal"	"-11.78571000"	"0.1621700000"	"1"	"73"
n/a	"html-keyboard-response"	"163"	"342070"	"0.0-5.0-2.0-0.55"	"wlqrrh"	"600"	"1366"	"chrome"	"111.0.0"	"FALSE"	"Windows 10"	"60.05"	"063"	n/a	n/a	n/a	n/a	n/a	n/a	"fixation"	n/a	n/a	n/a	n/a	"NULL"	n/a	"NULL"	"NULL"	"NULL"	"<p style=\"color: black; font-size: 80px; padding-left: 49%; padding-right: 32%; padding-top: 43%; padding-bottom: 29%\">+</p>"	"1434"	n/a	n/a	n/a	n/a	n/a	n/a	n/a	n/a	n/a
n/a	"image-keyboard-response"	"164"	"342839"	"0.0-5.0-2.0-1.55"	"wlqrrh"	"600"	"1366"	"chrome"	"111.0.0"	"FALSE"	"Windows 10"	"60.05"	"063"	n/a	n/a	n/a	n/a	n/a	n/a	"Trial"	n/a	n/a	n/a	"769"	"arrowleft"	n/a	"NULL"	"NULL"	"NULL"	"stimuli/VerticalHorizontal_-11.78571_0.06730.png"	n/a	"VerticalHorizontal"	"arrowleft"	"1444"	"TRUE"	"VerticalHorizontal"	"-11.78571000"	"0.0673000000"	"1"	"74"
n/a	"html-keyboard-response"	"165"	"344097"	"0.0-5.0-2.0-0.56"	"wlqrrh"	"600"	"1366"	"chrome"	"111.0.0"	"FALSE"	"Windows 10"	"60.05"	"063"	n/a	n/a	n/a	n/a	n/a	n/a	"fixation"	n/a	n/a	n/a	n/a	"NULL"	n/a	"NULL"	"NULL"	"NULL"	"<p style=\"color: black; font-size: 80px; padding-left: 1%; padding-right: 1%; padding-top: 9%; padding-bottom: 44%\">+</p>"	"1254"	n/a	n/a	n/a	n/a	n/a	n/a	n/a	n/a	n/a
n/a	"image-keyboard-response"	"166"	"344655"	"0.0-5.0-2.0-1.56"	"wlqrrh"	"600"	"1366"	"chrome"	"111.0.0"	"FALSE"	"Windows 10"	"60.05"	"063"	n/a	n/a	n/a	n/a	n/a	n/a	"Trial"	n/a	n/a	n/a	"557"	"arrowleft"	n/a	"NULL"	"NULL"	"NULL"	"stimuli/VerticalHorizontal_3.30000_0.22500.png"	n/a	"VerticalHorizontal"	"arrowleft"	"1258"	"TRUE"	"VerticalHorizontal"	"3.3000000000"	"0.2250000000"	"1"	"75"
n/a	"html-keyboard-response"	"167"	"345710"	"0.0-5.0-2.0-0.57"	"wlqrrh"	"600"	"1366"	"chrome"	"111.0.0"	"FALSE"	"Windows 10"	"60.05"	"063"	n/a	n/a	n/a	n/a	n/a	n/a	"fixation"	n/a	n/a	n/a	n/a	"NULL"	n/a	"NULL"	"NULL"	"NULL"	"<p style=\"color: black; font-size: 80px; padding-left: 7%; padding-right: 10%; padding-top: 3%; padding-bottom: 1%\">+</p>"	"1044"	n/a	n/a	n/a	n/a	n/a	n/a	n/a	n/a	n/a
n/a	"image-keyboard-response"	"168"	"346328"	"0.0-5.0-2.0-1.57"	"wlqrrh"	"600"	"1366"	"chrome"	"111.0.0"	"FALSE"	"Windows 10"	"60.05"	"063"	n/a	n/a	n/a	n/a	n/a	n/a	"Trial"	n/a	n/a	n/a	"618"	"arrowleft"	n/a	"NULL"	"NULL"	"NULL"	"stimuli/VerticalHorizontal_-11.78571_0.22500.png"	n/a	"VerticalHorizontal"	"arrowleft"	"1055"	"TRUE"	"VerticalHorizontal"	"-11.78571000"	"0.2250000000"	"1"	"76"
n/a	"html-keyboard-response"	"169"	"347485"	"0.0-5.0-2.0-0.58"	"wlqrrh"	"600"	"1366"	"chrome"	"111.0.0"	"FALSE"	"Windows 10"	"60.05"	"063"	n/a	n/a	n/a	n/a	n/a	n/a	"fixation"	n/a	n/a	n/a	n/a	"NULL"	n/a	"NULL"	"NULL"	"NULL"	"<p style=\"color: black; font-size: 80px; padding-left: 15%; padding-right: 13%; padding-top: 36%; padding-bottom: 49%\">+</p>"	"1152"	n/a	n/a	n/a	n/a	n/a	n/a	n/a	n/a	n/a
n/a	"image-keyboard-response"	"170"	"348523"	"0.0-5.0-2.0-1.58"	"wlqrrh"	"600"	"1366"	"chrome"	"111.0.0"	"FALSE"	"Windows 10"	"60.05"	"063"	n/a	n/a	n/a	n/a	n/a	n/a	"Trial"	n/a	n/a	n/a	"1037"	"arrowright"	n/a	"NULL"	"NULL"	"NULL"	"stimuli/VerticalHorizontal_20.27143_-0.0673.png"	n/a	"VerticalHorizontal"	"arrowright"	"1157"	"TRUE"	"VerticalHorizontal"	"20.271430000"	"-0.067300000"	"1"	"77"
n/a	"html-keyboard-response"	"171"	"349912"	"0.0-5.0-2.0-0.59"	"wlqrrh"	"600"	"1366"	"chrome"	"111.0.0"	"FALSE"	"Windows 10"	"60.05"	"063"	n/a	n/a	n/a	n/a	n/a	n/a	"fixation"	n/a	n/a	n/a	n/a	"NULL"	n/a	"NULL"	"NULL"	"NULL"	"<p style=\"color: black; font-size: 80px; padding-left: 21%; padding-right: 36%; padding-top: 5%; padding-bottom: 39%\">+</p>"	"1378"	n/a	n/a	n/a	n/a	n/a	n/a	n/a	n/a	n/a
n/a	"image-keyboard-response"	"172"	"350743"	"0.0-5.0-2.0-1.59"	"wlqrrh"	"600"	"1366"	"chrome"	"111.0.0"	"FALSE"	"Windows 10"	"60.05"	"063"	n/a	n/a	n/a	n/a	n/a	n/a	"Trial"	n/a	n/a	n/a	"830"	"arrowleft"	n/a	"NULL"	"NULL"	"NULL"	"stimuli/VerticalHorizontal_11.78571_0.10960.png"	n/a	"VerticalHorizontal"	"arrowleft"	"1389"	"TRUE"	"VerticalHorizontal"	"11.785710000"	"0.1096000000"	"1"	"78"
n/a	"html-keyboard-response"	"173"	"351941"	"0.0-5.0-2.0-0.60"	"wlqrrh"	"600"	"1366"	"chrome"	"111.0.0"	"FALSE"	"Windows 10"	"60.05"	"063"	n/a	n/a	n/a	n/a	n/a	n/a	"fixation"	n/a	n/a	n/a	n/a	"NULL"	n/a	"NULL"	"NULL"	"NULL"	"<p style=\"color: black; font-size: 80px; padding-left: 11%; padding-right: 18%; padding-top: 22%; padding-bottom: 25%\">+</p>"	"1183"	n/a	n/a	n/a	n/a	n/a	n/a	n/a	n/a	n/a
n/a	"image-keyboard-response"	"174"	"353126"	"0.0-5.0-2.0-1.60"	"wlqrrh"	"600"	"1366"	"chrome"	"111.0.0"	"FALSE"	"Windows 10"	"60.05"	"063"	n/a	n/a	n/a	n/a	n/a	n/a	"Trial"	n/a	n/a	n/a	"1184"	"arrowright"	n/a	"NULL"	"NULL"	"NULL"	"stimuli/VerticalHorizontal_20.27143_0.10960.png"	n/a	"VerticalHorizontal"	"arrowleft"	"1198"	"FALSE"	"VerticalHorizontal"	"20.271430000"	"0.1096000000"	"1"	"79"
n/a	"html-keyboard-response"	"175"	"354305"	"0.0-5.0-2.0-0.61"	"wlqrrh"	"600"	"1366"	"chrome"	"111.0.0"	"FALSE"	"Windows 10"	"60.05"	"063"	n/a	n/a	n/a	n/a	n/a	n/a	"fixation"	n/a	n/a	n/a	n/a	"NULL"	n/a	"NULL"	"NULL"	"NULL"	"<p style=\"color: black; font-size: 80px; padding-left: 37%; padding-right: 12%; padding-top: 33%; padding-bottom: 23%\">+</p>"	"1176"	n/a	n/a	n/a	n/a	n/a	n/a	n/a	n/a	n/a
n/a	"image-keyboard-response"	"176"	"355166"	"0.0-5.0-2.0-1.61"	"wlqrrh"	"600"	"1366"	"chrome"	"111.0.0"	"FALSE"	"Windows 10"	"60.05"	"063"	n/a	n/a	n/a	n/a	n/a	n/a	"Trial"	n/a	n/a	n/a	"861"	"arrowleft"	n/a	"NULL"	"NULL"	"NULL"	"stimuli/VerticalHorizontal_-28.75714_0.06730.png"	n/a	"VerticalHorizontal"	"arrowleft"	"1179"	"TRUE"	"VerticalHorizontal"	"-28.75714000"	"0.0673000000"	"1"	"80"
n/a	"html-keyboard-response"	"177"	"356273"	"0.0-5.0-2.0-0.62"	"wlqrrh"	"600"	"1366"	"chrome"	"111.0.0"	"FALSE"	"Windows 10"	"60.05"	"063"	n/a	n/a	n/a	n/a	n/a	n/a	"fixation"	n/a	n/a	n/a	n/a	"NULL"	n/a	"NULL"	"NULL"	"NULL"	"<p style=\"color: black; font-size: 80px; padding-left: 19%; padding-right: 32%; padding-top: 8%; padding-bottom: 37%\">+</p>"	"1092"	n/a	n/a	n/a	n/a	n/a	n/a	n/a	n/a	n/a
n/a	"image-keyboard-response"	"178"	"356815"	"0.0-5.0-2.0-1.62"	"wlqrrh"	"600"	"1366"	"chrome"	"111.0.0"	"FALSE"	"Windows 10"	"60.05"	"063"	n/a	n/a	n/a	n/a	n/a	n/a	"Trial"	n/a	n/a	n/a	"541"	"arrowleft"	n/a	"NULL"	"NULL"	"NULL"	"stimuli/VerticalHorizontal_-28.75714_0.16217.png"	n/a	"VerticalHorizontal"	"arrowleft"	"1107"	"TRUE"	"VerticalHorizontal"	"-28.75714000"	"0.1621700000"	"1"	"81"
n/a	"html-keyboard-response"	"179"	"357851"	"0.0-5.0-2.0-0.63"	"wlqrrh"	"600"	"1366"	"chrome"	"111.0.0"	"FALSE"	"Windows 10"	"60.05"	"063"	n/a	n/a	n/a	n/a	n/a	n/a	"fixation"	n/a	n/a	n/a	n/a	"NULL"	n/a	"NULL"	"NULL"	"NULL"	"<p style=\"color: black; font-size: 80px; padding-left: 42%; padding-right: 19%; padding-top: 20%; padding-bottom: 20%\">+</p>"	"1024"	n/a	n/a	n/a	n/a	n/a	n/a	n/a	n/a	n/a
n/a	"image-keyboard-response"	"180"	"358356"	"0.0-5.0-2.0-1.63"	"wlqrrh"	"600"	"1366"	"chrome"	"111.0.0"	"FALSE"	"Windows 10"	"60.05"	"063"	n/a	n/a	n/a	n/a	n/a	n/a	"Trial"	n/a	n/a	n/a	"505"	"arrowright"	n/a	"NULL"	"NULL"	"NULL"	"stimuli/VerticalHorizontal_-28.75714_-0.2250.png"	n/a	"VerticalHorizontal"	"arrowright"	"1036"	"TRUE"	"VerticalHorizontal"	"-28.75714000"	"-0.225000000"	"1"	"82"
n/a	"html-button-response"	"181"	"361807"	"0.0-5.0-3.0"	"wlqrrh"	"600"	"1366"	"chrome"	"111.0.0"	"FALSE"	"Windows 10"	"60.05"	"063"	n/a	n/a	n/a	n/a	n/a	n/a	"block_results"	n/a	n/a	n/a	"3449"	"0"	n/a	"NULL"	"NULL"	"NULL"	"<p>Your score for this illusion is <p style=\"color: black; font-size: 48px; font-weight: bold;\">75.9 %</p><hr><p>Can you do better in the next illusion?</p>"	n/a	n/a	n/a	n/a	n/a	n/a	n/a	n/a	n/a	n/a
"TRUE"	"preload"	"182"	"361955"	"0.0-6.0-0.0"	"wlqrrh"	"600"	"1366"	"chrome"	"111.0.0"	"FALSE"	"Windows 10"	"60.05"	"063"	n/a	n/a	n/a	n/a	n/a	n/a	n/a	n/a	n/a	n/a	n/a	"NULL"	"FALSE"	"list()"	"list()"	"list()"	n/a	n/a	n/a	n/a	n/a	n/a	n/a	n/a	n/a	n/a	n/a
n/a	"html-keyboard-response"	"183"	"370093"	"0.0-6.0-1.0"	"wlqrrh"	"600"	"1366"	"chrome"	"111.0.0"	"FALSE"	"Windows 10"	"60.05"	"063"	n/a	n/a	n/a	n/a	n/a	n/a	n/a	n/a	n/a	n/a	"8137"	"enter"	n/a	"NULL"	"NULL"	"NULL"	"<p><b>Part 2/6</b></p><p>In this part, two red circles will appear side by side on the screen.</p><p>Your task is to select which <b>red circle is bigger</b> in size as fast as you can, without making errors.</p><p>Don't get distracted by the surrounding black circles around the red circles!</p><p>Press <b>the LEFT or the RIGHT arrow</b> to indicate which is the bigger <b>red circle.</b></p><div style='float: center'><img src='materials/instructions/Ebbinghaus_Demo.png' height='300'></img><p><img src='utils/answer/answer_leftright_keyboard.PNG' height='150'></img></p><p class='small'>In this example, the correct answer is the <b>LEFT arrow</b>.</p></div><p>Are you ready? <b>Press ENTER to start</b></p>"	n/a	n/a	n/a	n/a	n/a	n/a	n/a	n/a	n/a	n/a
n/a	"html-keyboard-response"	"184"	"372082"	"0.0-6.0-2.0-0.0"	"wlqrrh"	"600"	"1366"	"chrome"	"111.0.0"	"FALSE"	"Windows 10"	"60.05"	"063"	n/a	n/a	n/a	n/a	n/a	n/a	"fixation"	n/a	n/a	n/a	n/a	"NULL"	n/a	"NULL"	"NULL"	"NULL"	"<p style=\"color: black; font-size: 80px; padding-left: 44%; padding-right: 36%; padding-top: 32%; padding-bottom: 10%\">+</p>"	"1478"	n/a	n/a	n/a	n/a	n/a	n/a	n/a	n/a	n/a
n/a	"image-keyboard-response"	"185"	"372943"	"0.0-6.0-2.0-1.0"	"wlqrrh"	"600"	"1366"	"chrome"	"111.0.0"	"FALSE"	"Windows 10"	"60.05"	"063"	n/a	n/a	n/a	n/a	n/a	n/a	"Trial"	n/a	n/a	n/a	"860"	"arrowright"	n/a	"NULL"	"NULL"	"NULL"	"stimuli/Ebbinghaus_0.10000_-0.2150.png"	n/a	"Ebbinghaus"	"arrowright"	"1989"	"TRUE"	"Ebbinghaus"	"0.1000000000"	"-0.215000000"	"2"	"1"
n/a	"html-keyboard-response"	"186"	"374054"	"0.0-6.0-2.0-0.1"	"wlqrrh"	"600"	"1366"	"chrome"	"111.0.0"	"FALSE"	"Windows 10"	"60.05"	"063"	n/a	n/a	n/a	n/a	n/a	n/a	"fixation"	n/a	n/a	n/a	n/a	"NULL"	n/a	"NULL"	"NULL"	"NULL"	"<p style=\"color: black; font-size: 80px; padding-left: 14%; padding-right: 34%; padding-top: 40%; padding-bottom: 2%\">+</p>"	"1099"	n/a	n/a	n/a	n/a	n/a	n/a	n/a	n/a	n/a
n/a	"image-keyboard-response"	"187"	"375398"	"0.0-6.0-2.0-1.1"	"wlqrrh"	"600"	"1366"	"chrome"	"111.0.0"	"FALSE"	"Windows 10"	"60.05"	"063"	n/a	n/a	n/a	n/a	n/a	n/a	"Trial"	n/a	n/a	n/a	"1343"	"arrowleft"	n/a	"NULL"	"NULL"	"NULL"	"stimuli/Ebbinghaus_0.61429_0.11071.png"	n/a	"Ebbinghaus"	"arrowleft"	"1111"	"TRUE"	"Ebbinghaus"	"0.6142900000"	"0.1107100000"	"2"	"2"
n/a	"html-keyboard-response"	"188"	"376475"	"0.0-6.0-2.0-0.2"	"wlqrrh"	"600"	"1366"	"chrome"	"111.0.0"	"FALSE"	"Windows 10"	"60.05"	"063"	n/a	n/a	n/a	n/a	n/a	n/a	"fixation"	n/a	n/a	n/a	n/a	"NULL"	n/a	"NULL"	"NULL"	"NULL"	"<p style=\"color: black; font-size: 80px; padding-left: 17%; padding-right: 40%; padding-top: 12%; padding-bottom: 48%\">+</p>"	"1068"	n/a	n/a	n/a	n/a	n/a	n/a	n/a	n/a	n/a
n/a	"image-keyboard-response"	"189"	"377263"	"0.0-6.0-2.0-1.2"	"wlqrrh"	"600"	"1366"	"chrome"	"111.0.0"	"FALSE"	"Windows 10"	"60.05"	"063"	n/a	n/a	n/a	n/a	n/a	n/a	"Trial"	n/a	n/a	n/a	"787"	"arrowright"	n/a	"NULL"	"NULL"	"NULL"	"stimuli/Ebbinghaus_-0.35714_-0.15857.png"	n/a	"Ebbinghaus"	"arrowright"	"1077"	"TRUE"	"Ebbinghaus"	"-0.357140000"	"-0.158570000"	"2"	"3"
n/a	"html-keyboard-response"	"190"	"378458"	"0.0-6.0-2.0-0.3"	"wlqrrh"	"600"	"1366"	"chrome"	"111.0.0"	"FALSE"	"Windows 10"	"60.05"	"063"	n/a	n/a	n/a	n/a	n/a	n/a	"fixation"	n/a	n/a	n/a	n/a	"NULL"	n/a	"NULL"	"NULL"	"NULL"	"<p style=\"color: black; font-size: 80px; padding-left: 7%; padding-right: 46%; padding-top: 45%; padding-bottom: 13%\">+</p>"	"1180"	n/a	n/a	n/a	n/a	n/a	n/a	n/a	n/a	n/a
n/a	"image-keyboard-response"	"191"	"379174"	"0.0-6.0-2.0-1.3"	"wlqrrh"	"600"	"1366"	"chrome"	"111.0.0"	"FALSE"	"Windows 10"	"60.05"	"063"	n/a	n/a	n/a	n/a	n/a	n/a	"Trial"	n/a	n/a	n/a	"715"	"arrowleft"	n/a	"NULL"	"NULL"	"NULL"	"stimuli/Ebbinghaus_0.87143_0.21500.png"	n/a	"Ebbinghaus"	"arrowleft"	"1195"	"TRUE"	"Ebbinghaus"	"0.8714300000"	"0.2150000000"	"2"	"4"
n/a	"html-keyboard-response"	"192"	"380660"	"0.0-6.0-2.0-0.4"	"wlqrrh"	"600"	"1366"	"chrome"	"111.0.0"	"FALSE"	"Windows 10"	"60.05"	"063"	n/a	n/a	n/a	n/a	n/a	n/a	"fixation"	n/a	n/a	n/a	n/a	"NULL"	n/a	"NULL"	"NULL"	"NULL"	"<p style=\"color: black; font-size: 80px; padding-left: 11%; padding-right: 44%; padding-top: 48%; padding-bottom: 40%\">+</p>"	"1475"	n/a	n/a	n/a	n/a	n/a	n/a	n/a	n/a	n/a
n/a	"image-keyboard-response"	"193"	"381276"	"0.0-6.0-2.0-1.4"	"wlqrrh"	"600"	"1366"	"chrome"	"111.0.0"	"FALSE"	"Windows 10"	"60.05"	"063"	n/a	n/a	n/a	n/a	n/a	n/a	"Trial"	n/a	n/a	n/a	"615"	"arrowright"	n/a	"NULL"	"NULL"	"NULL"	"stimuli/Ebbinghaus_0.35714_-0.11071.png"	n/a	"Ebbinghaus"	"arrowright"	"1486"	"TRUE"	"Ebbinghaus"	"0.3571400000"	"-0.110710000"	"2"	"5"
n/a	"html-keyboard-response"	"194"	"382607"	"0.0-6.0-2.0-0.5"	"wlqrrh"	"600"	"1366"	"chrome"	"111.0.0"	"FALSE"	"Windows 10"	"60.05"	"063"	n/a	n/a	n/a	n/a	n/a	n/a	"fixation"	n/a	n/a	n/a	n/a	"NULL"	n/a	"NULL"	"NULL"	"NULL"	"<p style=\"color: black; font-size: 80px; padding-left: 4%; padding-right: 28%; padding-top: 45%; padding-bottom: 28%\">+</p>"	"1318"	n/a	n/a	n/a	n/a	n/a	n/a	n/a	n/a	n/a
n/a	"image-keyboard-response"	"195"	"383200"	"0.0-6.0-2.0-1.5"	"wlqrrh"	"600"	"1366"	"chrome"	"111.0.0"	"FALSE"	"Windows 10"	"60.05"	"063"	n/a	n/a	n/a	n/a	n/a	n/a	"Trial"	n/a	n/a	n/a	"592"	"arrowleft"	n/a	"NULL"	"NULL"	"NULL"	"stimuli/Ebbinghaus_0.10000_0.15857.png"	n/a	"Ebbinghaus"	"arrowleft"	"1331"	"TRUE"	"Ebbinghaus"	"0.1000000000"	"0.1585700000"	"2"	"6"
n/a	"html-keyboard-response"	"196"	"384225"	"0.0-6.0-2.0-0.6"	"wlqrrh"	"600"	"1366"	"chrome"	"111.0.0"	"FALSE"	"Windows 10"	"60.05"	"063"	n/a	n/a	n/a	n/a	n/a	n/a	"fixation"	n/a	n/a	n/a	n/a	"NULL"	n/a	"NULL"	"NULL"	"NULL"	"<p style=\"color: black; font-size: 80px; padding-left: 14%; padding-right: 33%; padding-top: 21%; padding-bottom: 18%\">+</p>"	"1021"	n/a	n/a	n/a	n/a	n/a	n/a	n/a	n/a	n/a
n/a	"image-keyboard-response"	"197"	"384996"	"0.0-6.0-2.0-1.6"	"wlqrrh"	"600"	"1366"	"chrome"	"111.0.0"	"FALSE"	"Windows 10"	"60.05"	"063"	n/a	n/a	n/a	n/a	n/a	n/a	"Trial"	n/a	n/a	n/a	"769"	"arrowright"	n/a	"NULL"	"NULL"	"NULL"	"stimuli/Ebbinghaus_-0.87143_-0.2800.png"	n/a	"Ebbinghaus"	"arrowright"	"1025"	"TRUE"	"Ebbinghaus"	"-0.871430000"	"-0.280000000"	"2"	"7"
n/a	"html-keyboard-response"	"198"	"386229"	"0.0-6.0-2.0-0.7"	"wlqrrh"	"600"	"1366"	"chrome"	"111.0.0"	"FALSE"	"Windows 10"	"60.05"	"063"	n/a	n/a	n/a	n/a	n/a	n/a	"fixation"	n/a	n/a	n/a	n/a	"NULL"	n/a	"NULL"	"NULL"	"NULL"	"<p style=\"color: black; font-size: 80px; padding-left: 25%; padding-right: 5%; padding-top: 21%; padding-bottom: 5%\">+</p>"	"1230"	n/a	n/a	n/a	n/a	n/a	n/a	n/a	n/a	n/a
n/a	"image-keyboard-response"	"199"	"386973"	"0.0-6.0-2.0-1.7"	"wlqrrh"	"600"	"1366"	"chrome"	"111.0.0"	"FALSE"	"Windows 10"	"60.05"	"063"	n/a	n/a	n/a	n/a	n/a	n/a	"Trial"	n/a	n/a	n/a	"744"	"arrowright"	n/a	"NULL"	"NULL"	"NULL"	"stimuli/Ebbinghaus_-0.61429_-0.15857.png"	n/a	"Ebbinghaus"	"arrowright"	"1233"	"TRUE"	"Ebbinghaus"	"-0.614290000"	"-0.158570000"	"2"	"8"
n/a	"html-keyboard-response"	"200"	"388429"	"0.0-6.0-2.0-0.8"	"wlqrrh"	"600"	"1366"	"chrome"	"111.0.0"	"FALSE"	"Windows 10"	"60.05"	"063"	n/a	n/a	n/a	n/a	n/a	n/a	"fixation"	n/a	n/a	n/a	n/a	"NULL"	n/a	"NULL"	"NULL"	"NULL"	"<p style=\"color: black; font-size: 80px; padding-left: 14%; padding-right: 46%; padding-top: 41%; padding-bottom: 16%\">+</p>"	"1449"	n/a	n/a	n/a	n/a	n/a	n/a	n/a	n/a	n/a
n/a	"image-keyboard-response"	"201"	"389247"	"0.0-6.0-2.0-1.8"	"wlqrrh"	"600"	"1366"	"chrome"	"111.0.0"	"FALSE"	"Windows 10"	"60.05"	"063"	n/a	n/a	n/a	n/a	n/a	n/a	"Trial"	n/a	n/a	n/a	"815"	"arrowright"	n/a	"NULL"	"NULL"	"NULL"	"stimuli/Ebbinghaus_0.61429_-0.11071.png"	n/a	"Ebbinghaus"	"arrowright"	"1456"	"TRUE"	"Ebbinghaus"	"0.6142900000"	"-0.110710000"	"2"	"9"
n/a	"html-keyboard-response"	"202"	"390519"	"0.0-6.0-2.0-0.9"	"wlqrrh"	"600"	"1366"	"chrome"	"111.0.0"	"FALSE"	"Windows 10"	"60.05"	"063"	n/a	n/a	n/a	n/a	n/a	n/a	"fixation"	n/a	n/a	n/a	n/a	"NULL"	n/a	"NULL"	"NULL"	"NULL"	"<p style=\"color: black; font-size: 80px; padding-left: 12%; padding-right: 44%; padding-top: 22%; padding-bottom: 40%\">+</p>"	"1260"	n/a	n/a	n/a	n/a	n/a	n/a	n/a	n/a	n/a
n/a	"image-keyboard-response"	"203"	"391339"	"0.0-6.0-2.0-1.9"	"wlqrrh"	"600"	"1366"	"chrome"	"111.0.0"	"FALSE"	"Windows 10"	"60.05"	"063"	n/a	n/a	n/a	n/a	n/a	n/a	"Trial"	n/a	n/a	n/a	"819"	"arrowleft"	n/a	"NULL"	"NULL"	"NULL"	"stimuli/Ebbinghaus_-0.61429_0.15857.png"	n/a	"Ebbinghaus"	"arrowleft"	"1272"	"TRUE"	"Ebbinghaus"	"-0.614290000"	"0.1585700000"	"2"	"10"
n/a	"html-keyboard-response"	"204"	"392632"	"0.0-6.0-2.0-0.10"	"wlqrrh"	"600"	"1366"	"chrome"	"111.0.0"	"FALSE"	"Windows 10"	"60.05"	"063"	n/a	n/a	n/a	n/a	n/a	n/a	"fixation"	n/a	n/a	n/a	n/a	"NULL"	n/a	"NULL"	"NULL"	"NULL"	"<p style=\"color: black; font-size: 80px; padding-left: 34%; padding-right: 37%; padding-top: 4%; padding-bottom: 6%\">+</p>"	"1291"	n/a	n/a	n/a	n/a	n/a	n/a	n/a	n/a	n/a
n/a	"image-keyboard-response"	"205"	"393766"	"0.0-6.0-2.0-1.10"	"wlqrrh"	"600"	"1366"	"chrome"	"111.0.0"	"FALSE"	"Windows 10"	"60.05"	"063"	n/a	n/a	n/a	n/a	n/a	n/a	"Trial"	n/a	n/a	n/a	"1134"	"arrowleft"	n/a	"NULL"	"NULL"	"NULL"	"stimuli/Ebbinghaus_-0.1000_0.21500.png"	n/a	"Ebbinghaus"	"arrowleft"	"1293"	"TRUE"	"Ebbinghaus"	"-0.100000000"	"0.2150000000"	"2"	"11"
n/a	"html-keyboard-response"	"206"	"395001"	"0.0-6.0-2.0-0.11"	"wlqrrh"	"600"	"1366"	"chrome"	"111.0.0"	"FALSE"	"Windows 10"	"60.05"	"063"	n/a	n/a	n/a	n/a	n/a	n/a	"fixation"	n/a	n/a	n/a	n/a	"NULL"	n/a	"NULL"	"NULL"	"NULL"	"<p style=\"color: black; font-size: 80px; padding-left: 27%; padding-right: 41%; padding-top: 23%; padding-bottom: 7%\">+</p>"	"1229"	n/a	n/a	n/a	n/a	n/a	n/a	n/a	n/a	n/a
n/a	"image-keyboard-response"	"207"	"395864"	"0.0-6.0-2.0-1.11"	"wlqrrh"	"600"	"1366"	"chrome"	"111.0.0"	"FALSE"	"Windows 10"	"60.05"	"063"	n/a	n/a	n/a	n/a	n/a	n/a	"Trial"	n/a	n/a	n/a	"862"	"arrowright"	n/a	"NULL"	"NULL"	"NULL"	"stimuli/Ebbinghaus_0.61429_-0.2800.png"	n/a	"Ebbinghaus"	"arrowright"	"1235"	"TRUE"	"Ebbinghaus"	"0.6142900000"	"-0.280000000"	"2"	"12"
n/a	"html-keyboard-response"	"208"	"396935"	"0.0-6.0-2.0-0.12"	"wlqrrh"	"600"	"1366"	"chrome"	"111.0.0"	"FALSE"	"Windows 10"	"60.05"	"063"	n/a	n/a	n/a	n/a	n/a	n/a	"fixation"	n/a	n/a	n/a	n/a	"NULL"	n/a	"NULL"	"NULL"	"NULL"	"<p style=\"color: black; font-size: 80px; padding-left: 33%; padding-right: 17%; padding-top: 38%; padding-bottom: 10%\">+</p>"	"1060"	n/a	n/a	n/a	n/a	n/a	n/a	n/a	n/a	n/a
n/a	"image-keyboard-response"	"209"	"397738"	"0.0-6.0-2.0-1.12"	"wlqrrh"	"600"	"1366"	"chrome"	"111.0.0"	"FALSE"	"Windows 10"	"60.05"	"063"	n/a	n/a	n/a	n/a	n/a	n/a	"Trial"	n/a	n/a	n/a	"802"	"arrowright"	n/a	"NULL"	"NULL"	"NULL"	"stimuli/Ebbinghaus_0.61429_-0.2150.png"	n/a	"Ebbinghaus"	"arrowright"	"1071"	"TRUE"	"Ebbinghaus"	"0.6142900000"	"-0.215000000"	"2"	"13"
n/a	"html-keyboard-response"	"210"	"399037"	"0.0-6.0-2.0-0.13"	"wlqrrh"	"600"	"1366"	"chrome"	"111.0.0"	"FALSE"	"Windows 10"	"60.05"	"063"	n/a	n/a	n/a	n/a	n/a	n/a	"fixation"	n/a	n/a	n/a	n/a	"NULL"	n/a	"NULL"	"NULL"	"NULL"	"<p style=\"color: black; font-size: 80px; padding-left: 39%; padding-right: 34%; padding-top: 33%; padding-bottom: 3%\">+</p>"	"1289"	n/a	n/a	n/a	n/a	n/a	n/a	n/a	n/a	n/a
n/a	"image-keyboard-response"	"211"	"399875"	"0.0-6.0-2.0-1.13"	"wlqrrh"	"600"	"1366"	"chrome"	"111.0.0"	"FALSE"	"Windows 10"	"60.05"	"063"	n/a	n/a	n/a	n/a	n/a	n/a	"Trial"	n/a	n/a	n/a	"837"	"arrowleft"	n/a	"NULL"	"NULL"	"NULL"	"stimuli/Ebbinghaus_-0.61429_0.28000.png"	n/a	"Ebbinghaus"	"arrowleft"	"1299"	"TRUE"	"Ebbinghaus"	"-0.614290000"	"0.2800000000"	"2"	"14"
n/a	"html-keyboard-response"	"212"	"400906"	"0.0-6.0-2.0-0.14"	"wlqrrh"	"600"	"1366"	"chrome"	"111.0.0"	"FALSE"	"Windows 10"	"60.05"	"063"	n/a	n/a	n/a	n/a	n/a	n/a	"fixation"	n/a	n/a	n/a	n/a	"NULL"	n/a	"NULL"	"NULL"	"NULL"	"<p style=\"color: black; font-size: 80px; padding-left: 29%; padding-right: 14%; padding-top: 30%; padding-bottom: 38%\">+</p>"	"1026"	n/a	n/a	n/a	n/a	n/a	n/a	n/a	n/a	n/a
n/a	"image-keyboard-response"	"213"	"402016"	"0.0-6.0-2.0-1.14"	"wlqrrh"	"600"	"1366"	"chrome"	"111.0.0"	"FALSE"	"Windows 10"	"60.05"	"063"	n/a	n/a	n/a	n/a	n/a	n/a	"Trial"	n/a	n/a	n/a	"1110"	"arrowright"	n/a	"NULL"	"NULL"	"NULL"	"stimuli/Ebbinghaus_-0.1000_-0.2150.png"	n/a	"Ebbinghaus"	"arrowright"	"1031"	"TRUE"	"Ebbinghaus"	"-0.100000000"	"-0.215000000"	"2"	"15"
n/a	"html-keyboard-response"	"214"	"403367"	"0.0-6.0-2.0-0.15"	"wlqrrh"	"600"	"1366"	"chrome"	"111.0.0"	"FALSE"	"Windows 10"	"60.05"	"063"	n/a	n/a	n/a	n/a	n/a	n/a	"fixation"	n/a	n/a	n/a	n/a	"NULL"	n/a	"NULL"	"NULL"	"NULL"	"<p style=\"color: black; font-size: 80px; padding-left: 32%; padding-right: 0%; padding-top: 8%; padding-bottom: 32%\">+</p>"	"1346"	n/a	n/a	n/a	n/a	n/a	n/a	n/a	n/a	n/a
n/a	"image-keyboard-response"	"215"	"404080"	"0.0-6.0-2.0-1.15"	"wlqrrh"	"600"	"1366"	"chrome"	"111.0.0"	"FALSE"	"Windows 10"	"60.05"	"063"	n/a	n/a	n/a	n/a	n/a	n/a	"Trial"	n/a	n/a	n/a	"713"	"arrowleft"	n/a	"NULL"	"NULL"	"NULL"	"stimuli/Ebbinghaus_0.10000_0.21500.png"	n/a	"Ebbinghaus"	"arrowleft"	"1351"	"TRUE"	"Ebbinghaus"	"0.1000000000"	"0.2150000000"	"2"	"16"
n/a	"html-keyboard-response"	"216"	"405395"	"0.0-6.0-2.0-0.16"	"wlqrrh"	"600"	"1366"	"chrome"	"111.0.0"	"FALSE"	"Windows 10"	"60.05"	"063"	n/a	n/a	n/a	n/a	n/a	n/a	"fixation"	n/a	n/a	n/a	n/a	"NULL"	n/a	"NULL"	"NULL"	"NULL"	"<p style=\"color: black; font-size: 80px; padding-left: 12%; padding-right: 36%; padding-top: 11%; padding-bottom: 2%\">+</p>"	"1300"	n/a	n/a	n/a	n/a	n/a	n/a	n/a	n/a	n/a
n/a	"image-keyboard-response"	"217"	"406347"	"0.0-6.0-2.0-1.16"	"wlqrrh"	"600"	"1366"	"chrome"	"111.0.0"	"FALSE"	"Windows 10"	"60.05"	"063"	n/a	n/a	n/a	n/a	n/a	n/a	"Trial"	n/a	n/a	n/a	"952"	"arrowleft"	n/a	"NULL"	"NULL"	"NULL"	"stimuli/Ebbinghaus_0.61429_0.21500.png"	n/a	"Ebbinghaus"	"arrowleft"	"1315"	"TRUE"	"Ebbinghaus"	"0.6142900000"	"0.2150000000"	"2"	"17"
n/a	"html-keyboard-response"	"218"	"407601"	"0.0-6.0-2.0-0.17"	"wlqrrh"	"600"	"1366"	"chrome"	"111.0.0"	"FALSE"	"Windows 10"	"60.05"	"063"	n/a	n/a	n/a	n/a	n/a	n/a	"fixation"	n/a	n/a	n/a	n/a	"NULL"	n/a	"NULL"	"NULL"	"NULL"	"<p style=\"color: black; font-size: 80px; padding-left: 47%; padding-right: 18%; padding-top: 29%; padding-bottom: 10%\">+</p>"	"1243"	n/a	n/a	n/a	n/a	n/a	n/a	n/a	n/a	n/a
n/a	"image-keyboard-response"	"219"	"409030"	"0.0-6.0-2.0-1.17"	"wlqrrh"	"600"	"1366"	"chrome"	"111.0.0"	"FALSE"	"Windows 10"	"60.05"	"063"	n/a	n/a	n/a	n/a	n/a	n/a	"Trial"	n/a	n/a	n/a	"1427"	"arrowleft"	n/a	"NULL"	"NULL"	"NULL"	"stimuli/Ebbinghaus_0.61429_0.15857.png"	n/a	"Ebbinghaus"	"arrowleft"	"1254"	"TRUE"	"Ebbinghaus"	"0.6142900000"	"0.1585700000"	"2"	"18"
n/a	"html-keyboard-response"	"220"	"410474"	"0.0-6.0-2.0-0.18"	"wlqrrh"	"600"	"1366"	"chrome"	"111.0.0"	"FALSE"	"Windows 10"	"60.05"	"063"	n/a	n/a	n/a	n/a	n/a	n/a	"fixation"	n/a	n/a	n/a	n/a	"NULL"	n/a	"NULL"	"NULL"	"NULL"	"<p style=\"color: black; font-size: 80px; padding-left: 31%; padding-right: 12%; padding-top: 29%; padding-bottom: 10%\">+</p>"	"1440"	n/a	n/a	n/a	n/a	n/a	n/a	n/a	n/a	n/a
n/a	"image-keyboard-response"	"221"	"411635"	"0.0-6.0-2.0-1.18"	"wlqrrh"	"600"	"1366"	"chrome"	"111.0.0"	"FALSE"	"Windows 10"	"60.05"	"063"	n/a	n/a	n/a	n/a	n/a	n/a	"Trial"	n/a	n/a	n/a	"1160"	"arrowright"	n/a	"NULL"	"NULL"	"NULL"	"stimuli/Ebbinghaus_0.87143_-0.2150.png"	n/a	"Ebbinghaus"	"arrowright"	"1444"	"TRUE"	"Ebbinghaus"	"0.8714300000"	"-0.215000000"	"2"	"19"
n/a	"html-keyboard-response"	"222"	"413050"	"0.0-6.0-2.0-0.19"	"wlqrrh"	"600"	"1366"	"chrome"	"111.0.0"	"FALSE"	"Windows 10"	"60.05"	"063"	n/a	n/a	n/a	n/a	n/a	n/a	"fixation"	n/a	n/a	n/a	n/a	"NULL"	n/a	"NULL"	"NULL"	"NULL"	"<p style=\"color: black; font-size: 80px; padding-left: 21%; padding-right: 10%; padding-top: 18%; padding-bottom: 48%\">+</p>"	"1403"	n/a	n/a	n/a	n/a	n/a	n/a	n/a	n/a	n/a
n/a	"image-keyboard-response"	"223"	"414467"	"0.0-6.0-2.0-1.19"	"wlqrrh"	"600"	"1366"	"chrome"	"111.0.0"	"FALSE"	"Windows 10"	"60.05"	"063"	n/a	n/a	n/a	n/a	n/a	n/a	"Trial"	n/a	n/a	n/a	"1417"	"arrowright"	n/a	"NULL"	"NULL"	"NULL"	"stimuli/Ebbinghaus_0.61429_-0.15857.png"	n/a	"Ebbinghaus"	"arrowright"	"1415"	"TRUE"	"Ebbinghaus"	"0.6142900000"	"-0.158570000"	"2"	"20"
n/a	"html-keyboard-response"	"224"	"415801"	"0.0-6.0-2.0-0.20"	"wlqrrh"	"600"	"1366"	"chrome"	"111.0.0"	"FALSE"	"Windows 10"	"60.05"	"063"	n/a	n/a	n/a	n/a	n/a	n/a	"fixation"	n/a	n/a	n/a	n/a	"NULL"	n/a	"NULL"	"NULL"	"NULL"	"<p style=\"color: black; font-size: 80px; padding-left: 31%; padding-right: 25%; padding-top: 18%; padding-bottom: 8%\">+</p>"	"1325"	n/a	n/a	n/a	n/a	n/a	n/a	n/a	n/a	n/a
n/a	"image-keyboard-response"	"225"	"416817"	"0.0-6.0-2.0-1.20"	"wlqrrh"	"600"	"1366"	"chrome"	"111.0.0"	"FALSE"	"Windows 10"	"60.05"	"063"	n/a	n/a	n/a	n/a	n/a	n/a	"Trial"	n/a	n/a	n/a	"1016"	"arrowright"	n/a	"NULL"	"NULL"	"NULL"	"stimuli/Ebbinghaus_0.87143_-0.2800.png"	n/a	"Ebbinghaus"	"arrowright"	"1334"	"TRUE"	"Ebbinghaus"	"0.8714300000"	"-0.280000000"	"2"	"21"
n/a	"html-keyboard-response"	"226"	"417850"	"0.0-6.0-2.0-0.21"	"wlqrrh"	"600"	"1366"	"chrome"	"111.0.0"	"FALSE"	"Windows 10"	"60.05"	"063"	n/a	n/a	n/a	n/a	n/a	n/a	"fixation"	n/a	n/a	n/a	n/a	"NULL"	n/a	"NULL"	"NULL"	"NULL"	"<p style=\"color: black; font-size: 80px; padding-left: 41%; padding-right: 12%; padding-top: 48%; padding-bottom: 17%\">+</p>"	"1018"	n/a	n/a	n/a	n/a	n/a	n/a	n/a	n/a	n/a
n/a	"image-keyboard-response"	"227"	"419285"	"0.0-6.0-2.0-1.21"	"wlqrrh"	"600"	"1366"	"chrome"	"111.0.0"	"FALSE"	"Windows 10"	"60.05"	"063"	n/a	n/a	n/a	n/a	n/a	n/a	"Trial"	n/a	n/a	n/a	"1434"	"arrowright"	n/a	"NULL"	"NULL"	"NULL"	"stimuli/Ebbinghaus_-0.1000_-0.2800.png"	n/a	"Ebbinghaus"	"arrowright"	"1033"	"TRUE"	"Ebbinghaus"	"-0.100000000"	"-0.280000000"	"2"	"22"
n/a	"html-keyboard-response"	"228"	"420656"	"0.0-6.0-2.0-0.22"	"wlqrrh"	"600"	"1366"	"chrome"	"111.0.0"	"FALSE"	"Windows 10"	"60.05"	"063"	n/a	n/a	n/a	n/a	n/a	n/a	"fixation"	n/a	n/a	n/a	n/a	"NULL"	n/a	"NULL"	"NULL"	"NULL"	"<p style=\"color: black; font-size: 80px; padding-left: 41%; padding-right: 16%; padding-top: 34%; padding-bottom: 4%\">+</p>"	"1355"	n/a	n/a	n/a	n/a	n/a	n/a	n/a	n/a	n/a
n/a	"image-keyboard-response"	"229"	"421507"	"0.0-6.0-2.0-1.22"	"wlqrrh"	"600"	"1366"	"chrome"	"111.0.0"	"FALSE"	"Windows 10"	"60.05"	"063"	n/a	n/a	n/a	n/a	n/a	n/a	"Trial"	n/a	n/a	n/a	"850"	"arrowright"	n/a	"NULL"	"NULL"	"NULL"	"stimuli/Ebbinghaus_0.10000_-0.15857.png"	n/a	"Ebbinghaus"	"arrowright"	"1371"	"TRUE"	"Ebbinghaus"	"0.1000000000"	"-0.158570000"	"2"	"23"
n/a	"html-keyboard-response"	"230"	"422946"	"0.0-6.0-2.0-0.23"	"wlqrrh"	"600"	"1366"	"chrome"	"111.0.0"	"FALSE"	"Windows 10"	"60.05"	"063"	n/a	n/a	n/a	n/a	n/a	n/a	"fixation"	n/a	n/a	n/a	n/a	"NULL"	n/a	"NULL"	"NULL"	"NULL"	"<p style=\"color: black; font-size: 80px; padding-left: 2%; padding-right: 43%; padding-top: 4%; padding-bottom: 47%\">+</p>"	"1435"	n/a	n/a	n/a	n/a	n/a	n/a	n/a	n/a	n/a
n/a	"image-keyboard-response"	"231"	"424259"	"0.0-6.0-2.0-1.23"	"wlqrrh"	"600"	"1366"	"chrome"	"111.0.0"	"FALSE"	"Windows 10"	"60.05"	"063"	n/a	n/a	n/a	n/a	n/a	n/a	"Trial"	n/a	n/a	n/a	"1312"	"arrowleft"	n/a	"NULL"	"NULL"	"NULL"	"stimuli/Ebbinghaus_-0.35714_0.15857.png"	n/a	"Ebbinghaus"	"arrowleft"	"1439"	"TRUE"	"Ebbinghaus"	"-0.357140000"	"0.1585700000"	"2"	"24"
n/a	"html-keyboard-response"	"232"	"425759"	"0.0-6.0-2.0-0.24"	"wlqrrh"	"600"	"1366"	"chrome"	"111.0.0"	"FALSE"	"Windows 10"	"60.05"	"063"	n/a	n/a	n/a	n/a	n/a	n/a	"fixation"	n/a	n/a	n/a	n/a	"NULL"	n/a	"NULL"	"NULL"	"NULL"	"<p style=\"color: black; font-size: 80px; padding-left: 14%; padding-right: 16%; padding-top: 1%; padding-bottom: 24%\">+</p>"	"1494"	n/a	n/a	n/a	n/a	n/a	n/a	n/a	n/a	n/a
n/a	"image-keyboard-response"	"233"	"426813"	"0.0-6.0-2.0-1.24"	"wlqrrh"	"600"	"1366"	"chrome"	"111.0.0"	"FALSE"	"Windows 10"	"60.05"	"063"	n/a	n/a	n/a	n/a	n/a	n/a	"Trial"	n/a	n/a	n/a	"1054"	"arrowleft"	n/a	"NULL"	"NULL"	"NULL"	"stimuli/Ebbinghaus_-0.87143_0.28000.png"	n/a	"Ebbinghaus"	"arrowleft"	"1500"	"TRUE"	"Ebbinghaus"	"-0.871430000"	"0.2800000000"	"2"	"25"
n/a	"html-keyboard-response"	"234"	"427867"	"0.0-6.0-2.0-0.25"	"wlqrrh"	"600"	"1366"	"chrome"	"111.0.0"	"FALSE"	"Windows 10"	"60.05"	"063"	n/a	n/a	n/a	n/a	n/a	n/a	"fixation"	n/a	n/a	n/a	n/a	"NULL"	n/a	"NULL"	"NULL"	"NULL"	"<p style=\"color: black; font-size: 80px; padding-left: 3%; padding-right: 47%; padding-top: 9%; padding-bottom: 32%\">+</p>"	"1045"	n/a	n/a	n/a	n/a	n/a	n/a	n/a	n/a	n/a
n/a	"image-keyboard-response"	"235"	"428875"	"0.0-6.0-2.0-1.25"	"wlqrrh"	"600"	"1366"	"chrome"	"111.0.0"	"FALSE"	"Windows 10"	"60.05"	"063"	n/a	n/a	n/a	n/a	n/a	n/a	"Trial"	n/a	n/a	n/a	"1004"	"arrowright"	n/a	"NULL"	"NULL"	"NULL"	"stimuli/Ebbinghaus_-0.1000_-0.11071.png"	n/a	"Ebbinghaus"	"arrowright"	"1054"	"TRUE"	"Ebbinghaus"	"-0.100000000"	"-0.110710000"	"2"	"26"
n/a	"html-keyboard-response"	"236"	"430049"	"0.0-6.0-2.0-0.26"	"wlqrrh"	"600"	"1366"	"chrome"	"111.0.0"	"FALSE"	"Windows 10"	"60.05"	"063"	n/a	n/a	n/a	n/a	n/a	n/a	"fixation"	n/a	n/a	n/a	n/a	"NULL"	n/a	"NULL"	"NULL"	"NULL"	"<p style=\"color: black; font-size: 80px; padding-left: 12%; padding-right: 17%; padding-top: 43%; padding-bottom: 7%\">+</p>"	"1171"	n/a	n/a	n/a	n/a	n/a	n/a	n/a	n/a	n/a
n/a	"image-keyboard-response"	"237"	"430919"	"0.0-6.0-2.0-1.26"	"wlqrrh"	"600"	"1366"	"chrome"	"111.0.0"	"FALSE"	"Windows 10"	"60.05"	"063"	n/a	n/a	n/a	n/a	n/a	n/a	"Trial"	n/a	n/a	n/a	"869"	"arrowright"	n/a	"NULL"	"NULL"	"NULL"	"stimuli/Ebbinghaus_-0.1000_-0.15857.png"	n/a	"Ebbinghaus"	"arrowright"	"1174"	"TRUE"	"Ebbinghaus"	"-0.100000000"	"-0.158570000"	"2"	"27"
n/a	"html-keyboard-response"	"238"	"432289"	"0.0-6.0-2.0-0.27"	"wlqrrh"	"600"	"1366"	"chrome"	"111.0.0"	"FALSE"	"Windows 10"	"60.05"	"063"	n/a	n/a	n/a	n/a	n/a	n/a	"fixation"	n/a	n/a	n/a	n/a	"NULL"	n/a	"NULL"	"NULL"	"NULL"	"<p style=\"color: black; font-size: 80px; padding-left: 11%; padding-right: 10%; padding-top: 25%; padding-bottom: 12%\">+</p>"	"1354"	n/a	n/a	n/a	n/a	n/a	n/a	n/a	n/a	n/a
n/a	"image-keyboard-response"	"239"	"433494"	"0.0-6.0-2.0-1.27"	"wlqrrh"	"600"	"1366"	"chrome"	"111.0.0"	"FALSE"	"Windows 10"	"60.05"	"063"	n/a	n/a	n/a	n/a	n/a	n/a	"Trial"	n/a	n/a	n/a	"1204"	"arrowright"	n/a	"NULL"	"NULL"	"NULL"	"stimuli/Ebbinghaus_0.87143_-0.11071.png"	n/a	"Ebbinghaus"	"arrowright"	"1370"	"TRUE"	"Ebbinghaus"	"0.8714300000"	"-0.110710000"	"2"	"28"
n/a	"html-keyboard-response"	"240"	"434825"	"0.0-6.0-2.0-0.28"	"wlqrrh"	"600"	"1366"	"chrome"	"111.0.0"	"FALSE"	"Windows 10"	"60.05"	"063"	n/a	n/a	n/a	n/a	n/a	n/a	"fixation"	n/a	n/a	n/a	n/a	"NULL"	n/a	"NULL"	"NULL"	"NULL"	"<p style=\"color: black; font-size: 80px; padding-left: 35%; padding-right: 14%; padding-top: 13%; padding-bottom: 13%\">+</p>"	"1317"	n/a	n/a	n/a	n/a	n/a	n/a	n/a	n/a	n/a
n/a	"image-keyboard-response"	"241"	"435878"	"0.0-6.0-2.0-1.28"	"wlqrrh"	"600"	"1366"	"chrome"	"111.0.0"	"FALSE"	"Windows 10"	"60.05"	"063"	n/a	n/a	n/a	n/a	n/a	n/a	"Trial"	n/a	n/a	n/a	"1052"	"arrowleft"	n/a	"NULL"	"NULL"	"NULL"	"stimuli/Ebbinghaus_-0.1000_0.15857.png"	n/a	"Ebbinghaus"	"arrowleft"	"1331"	"TRUE"	"Ebbinghaus"	"-0.100000000"	"0.1585700000"	"2"	"29"
n/a	"html-keyboard-response"	"242"	"437022"	"0.0-6.0-2.0-0.29"	"wlqrrh"	"600"	"1366"	"chrome"	"111.0.0"	"FALSE"	"Windows 10"	"60.05"	"063"	n/a	n/a	n/a	n/a	n/a	n/a	"fixation"	n/a	n/a	n/a	n/a	"NULL"	n/a	"NULL"	"NULL"	"NULL"	"<p style=\"color: black; font-size: 80px; padding-left: 45%; padding-right: 2%; padding-top: 8%; padding-bottom: 40%\">+</p>"	"1133"	n/a	n/a	n/a	n/a	n/a	n/a	n/a	n/a	n/a
n/a	"image-keyboard-response"	"243"	"437746"	"0.0-6.0-2.0-1.29"	"wlqrrh"	"600"	"1366"	"chrome"	"111.0.0"	"FALSE"	"Windows 10"	"60.05"	"063"	n/a	n/a	n/a	n/a	n/a	n/a	"Trial"	n/a	n/a	n/a	"723"	"arrowleft"	n/a	"NULL"	"NULL"	"NULL"	"stimuli/Ebbinghaus_0.87143_0.28000.png"	n/a	"Ebbinghaus"	"arrowleft"	"1144"	"TRUE"	"Ebbinghaus"	"0.8714300000"	"0.2800000000"	"2"	"30"
n/a	"html-keyboard-response"	"244"	"438791"	"0.0-6.0-2.0-0.30"	"wlqrrh"	"600"	"1366"	"chrome"	"111.0.0"	"FALSE"	"Windows 10"	"60.05"	"063"	n/a	n/a	n/a	n/a	n/a	n/a	"fixation"	n/a	n/a	n/a	n/a	"NULL"	n/a	"NULL"	"NULL"	"NULL"	"<p style=\"color: black; font-size: 80px; padding-left: 46%; padding-right: 13%; padding-top: 14%; padding-bottom: 5%\">+</p>"	"1032"	n/a	n/a	n/a	n/a	n/a	n/a	n/a	n/a	n/a
n/a	"image-keyboard-response"	"245"	"439978"	"0.0-6.0-2.0-1.30"	"wlqrrh"	"600"	"1366"	"chrome"	"111.0.0"	"FALSE"	"Windows 10"	"60.05"	"063"	n/a	n/a	n/a	n/a	n/a	n/a	"Trial"	n/a	n/a	n/a	"1185"	"arrowleft"	n/a	"NULL"	"NULL"	"NULL"	"stimuli/Ebbinghaus_-0.61429_0.21500.png"	n/a	"Ebbinghaus"	"arrowleft"	"1045"	"TRUE"	"Ebbinghaus"	"-0.614290000"	"0.2150000000"	"2"	"31"
n/a	"html-keyboard-response"	"246"	"441320"	"0.0-6.0-2.0-0.31"	"wlqrrh"	"600"	"1366"	"chrome"	"111.0.0"	"FALSE"	"Windows 10"	"60.05"	"063"	n/a	n/a	n/a	n/a	n/a	n/a	"fixation"	n/a	n/a	n/a	n/a	"NULL"	n/a	"NULL"	"NULL"	"NULL"	"<p style=\"color: black; font-size: 80px; padding-left: 2%; padding-right: 7%; padding-top: 34%; padding-bottom: 8%\">+</p>"	"1327"	n/a	n/a	n/a	n/a	n/a	n/a	n/a	n/a	n/a
n/a	"image-keyboard-response"	"247"	"442300"	"0.0-6.0-2.0-1.31"	"wlqrrh"	"600"	"1366"	"chrome"	"111.0.0"	"FALSE"	"Windows 10"	"60.05"	"063"	n/a	n/a	n/a	n/a	n/a	n/a	"Trial"	n/a	n/a	n/a	"980"	"arrowright"	n/a	"NULL"	"NULL"	"NULL"	"stimuli/Ebbinghaus_0.10000_-0.11071.png"	n/a	"Ebbinghaus"	"arrowright"	"1342"	"TRUE"	"Ebbinghaus"	"0.1000000000"	"-0.110710000"	"2"	"32"
n/a	"html-keyboard-response"	"248"	"443334"	"0.0-6.0-2.0-0.32"	"wlqrrh"	"600"	"1366"	"chrome"	"111.0.0"	"FALSE"	"Windows 10"	"60.05"	"063"	n/a	n/a	n/a	n/a	n/a	n/a	"fixation"	n/a	n/a	n/a	n/a	"NULL"	n/a	"NULL"	"NULL"	"NULL"	"<p style=\"color: black; font-size: 80px; padding-left: 25%; padding-right: 29%; padding-top: 7%; padding-bottom: 11%\">+</p>"	"1031"	n/a	n/a	n/a	n/a	n/a	n/a	n/a	n/a	n/a
