"success"	"trial_type"	"trial_index"	"time_elapsed"	"internal_node_id"	"participant_id"	"screen_height"	"screen_width"	"browser"	"browser_version"	"mobile"	"os"	"vsync_rate"	"subject_id"	"width"	"height"	"webaudio"	"fullscreen"	"webcam"	"microphone"	"screen"	"version"	"date"	"time"	"rt"	"response"	"timeout"	"failed_images"	"failed_audio"	"failed_video"	"stimulus"	"trial_duration"	"block"	"correct_response"	"prestimulus_duration"	"correct"	"type"	"illusion_strength"	"illusion_difference"	"block_number"	"trial_number"
"TRUE"	"fullscreen"	"0"	"1332"	"0.0-0.0"	"7aqm1a"	"600"	"1366"	"chrome"	"110.0.0"	"FALSE"	"Windows 10"	"60.44"	"032"	n/a	n/a	n/a	n/a	n/a	n/a	n/a	n/a	n/a	n/a	n/a	"NULL"	n/a	"NULL"	"NULL"	"NULL"	n/a	n/a	n/a	n/a	n/a	n/a	n/a	n/a	n/a	n/a	n/a
n/a	"browser-check"	"1"	"2340"	"0.0-1.0"	"7aqm1a"	"600"	"1366"	"chrome"	"110.0.0"	"FALSE"	"Windows 10"	"60.44"	"032"	"1366"	"600"	"TRUE"	"TRUE"	"TRUE"	"TRUE"	"browser_info"	"1.0"	"02/03/2023"	"18:31:28"	n/a	"NULL"	n/a	"NULL"	"NULL"	"NULL"	n/a	n/a	n/a	n/a	n/a	n/a	n/a	n/a	n/a	n/a	n/a
n/a	"survey-text"	"2"	"40931"	"0.0-2.0"	"7aqm1a"	"600"	"1366"	"chrome"	"110.0.0"	"FALSE"	"Windows 10"	"60.44"	"032"	n/a	n/a	n/a	n/a	n/a	n/a	"subject_id"	n/a	n/a	n/a	"38588"	"list(subject_id = \"032\")"	n/a	"NULL"	"NULL"	"NULL"	n/a	n/a	n/a	n/a	n/a	n/a	n/a	n/a	n/a	n/a	n/a
"TRUE"	"preload"	"3"	"40940"	"0.0-3.0"	"7aqm1a"	"600"	"1366"	"chrome"	"110.0.0"	"FALSE"	"Windows 10"	"60.44"	"032"	n/a	n/a	n/a	n/a	n/a	n/a	n/a	n/a	n/a	n/a	n/a	"NULL"	"FALSE"	"list()"	"list()"	"list()"	n/a	n/a	n/a	n/a	n/a	n/a	n/a	n/a	n/a	n/a	n/a
n/a	"html-button-response"	"4"	"52187"	"0.0-4.0-0.0"	"7aqm1a"	"600"	"1366"	"chrome"	"110.0.0"	"FALSE"	"Windows 10"	"60.44"	"032"	n/a	n/a	n/a	n/a	n/a	n/a	"illusion_instructions"	n/a	n/a	n/a	"11245"	"0"	n/a	"NULL"	"NULL"	"NULL"	"<p><b>Illusion Game</b></p><p>In this game of speed and reflex, you will need to make <b>visual judgments</b> (for instance, which circle is the biggest, or which line is the longest), as fast and as correctly as possible, while <b>resisting different visual illusions</b>.</p><p>We are going to start with some examples of all the illusions you will encounter in the game.</p>"	n/a	n/a	n/a	n/a	n/a	n/a	n/a	n/a	n/a	n/a
"TRUE"	"preload"	"5"	"52204"	"0.0-4.0-1.0-0.0"	"7aqm1a"	"600"	"1366"	"chrome"	"110.0.0"	"FALSE"	"Windows 10"	"60.44"	"032"	n/a	n/a	n/a	n/a	n/a	n/a	n/a	n/a	n/a	n/a	n/a	"NULL"	"FALSE"	"list()"	"list()"	"list()"	n/a	n/a	n/a	n/a	n/a	n/a	n/a	n/a	n/a	n/a	n/a
n/a	"html-keyboard-response"	"6"	"92584"	"0.0-4.0-1.0-1.0"	"7aqm1a"	"600"	"1366"	"chrome"	"110.0.0"	"FALSE"	"Windows 10"	"60.44"	"032"	n/a	n/a	n/a	n/a	n/a	n/a	n/a	n/a	n/a	n/a	"40377"	"enter"	n/a	"NULL"	"NULL"	"NULL"	"<p><b>Practice</b></p><p>In this part, two red circles will appear side by side on the screen.</p><p>Your task is to select which <b>red circle is bigger</b> in size as fast as you can, without making errors.</p><p>Don't get distracted by the surrounding black circles around the red circles!</p><p>Press <b>the LEFT or the RIGHT arrow</b> to indicate which is the bigger <b>red circle.</b></p><div style='float: center'><img src='materials/instructions/Ebbinghaus_Demo.png' height='300'></img><p><img src='utils/answer/answer_leftright_keyboard.PNG' height='150'></img></p><p class='small'>In this example, the correct answer is the <b>LEFT arrow</b>.</p></div><p>Are you ready? <b>Press ENTER to start</b></p>"	n/a	n/a	n/a	n/a	n/a	n/a	n/a	n/a	n/a	n/a
n/a	"html-keyboard-response"	"7"	"94410"	"0.0-4.0-1.0-2.0-0.0"	"7aqm1a"	"600"	"1366"	"chrome"	"110.0.0"	"FALSE"	"Windows 10"	"60.44"	"032"	n/a	n/a	n/a	n/a	n/a	n/a	"fixation"	n/a	n/a	n/a	n/a	"NULL"	n/a	"NULL"	"NULL"	"NULL"	"<p style=\"color: black; font-size: 80px; padding-left: 14%; padding-right: 4%; padding-top: 5%; padding-bottom: 2%\">+</p>"	"1306"	n/a	n/a	n/a	n/a	n/a	n/a	n/a	n/a	n/a
n/a	"image-keyboard-response"	"8"	"95444"	"0.0-4.0-1.0-2.0-1.0"	"7aqm1a"	"600"	"1366"	"chrome"	"110.0.0"	"FALSE"	"Windows 10"	"60.44"	"032"	n/a	n/a	n/a	n/a	n/a	n/a	"Trial"	n/a	n/a	n/a	"1026"	"arrowright"	n/a	"NULL"	"NULL"	"NULL"	"stimuli/Ebbinghaus_-100000_-1.4000.png"	n/a	"Ebbinghaus"	"arrowright"	"1826"	"TRUE"	"Ebbinghaus"	"-10000000000"	"-1.400000000"	"1"	"1"
n/a	"html-keyboard-response"	"9"	"96568"	"0.0-4.0-1.0-2.0-0.1"	"7aqm1a"	"600"	"1366"	"chrome"	"110.0.0"	"FALSE"	"Windows 10"	"60.44"	"032"	n/a	n/a	n/a	n/a	n/a	n/a	"fixation"	n/a	n/a	n/a	n/a	"NULL"	n/a	"NULL"	"NULL"	"NULL"	"<p style=\"color: black; font-size: 80px; padding-left: 41%; padding-right: 8%; padding-top: 19%; padding-bottom: 36%\">+</p>"	"1116"	n/a	n/a	n/a	n/a	n/a	n/a	n/a	n/a	n/a
n/a	"image-keyboard-response"	"10"	"97011"	"0.0-4.0-1.0-2.0-1.1"	"7aqm1a"	"600"	"1366"	"chrome"	"110.0.0"	"FALSE"	"Windows 10"	"60.44"	"032"	n/a	n/a	n/a	n/a	n/a	n/a	"Trial"	n/a	n/a	n/a	"442"	"arrowright"	n/a	"NULL"	"NULL"	"NULL"	"stimuli/Ebbinghaus_1000000_-1.4000.png"	n/a	"Ebbinghaus"	"arrowright"	"1124"	"TRUE"	"Ebbinghaus"	"100000000000"	"-1.400000000"	"1"	"2"
n/a	"html-keyboard-response"	"11"	"98480"	"0.0-4.0-1.0-2.0-0.2"	"7aqm1a"	"600"	"1366"	"chrome"	"110.0.0"	"FALSE"	"Windows 10"	"60.44"	"032"	n/a	n/a	n/a	n/a	n/a	n/a	"fixation"	n/a	n/a	n/a	n/a	"NULL"	n/a	"NULL"	"NULL"	"NULL"	"<p style=\"color: black; font-size: 80px; padding-left: 27%; padding-right: 22%; padding-top: 41%; padding-bottom: 35%\">+</p>"	"1454"	n/a	n/a	n/a	n/a	n/a	n/a	n/a	n/a	n/a
n/a	"image-keyboard-response"	"12"	"99007"	"0.0-4.0-1.0-2.0-1.2"	"7aqm1a"	"600"	"1366"	"chrome"	"110.0.0"	"FALSE"	"Windows 10"	"60.44"	"032"	n/a	n/a	n/a	n/a	n/a	n/a	"Trial"	n/a	n/a	n/a	"526"	"arrowleft"	n/a	"NULL"	"NULL"	"NULL"	"stimuli/Ebbinghaus_1000000_1.40000.png"	n/a	"Ebbinghaus"	"arrowleft"	"1469"	"TRUE"	"Ebbinghaus"	"100000000000"	"1.4000000000"	"1"	"3"
n/a	"html-keyboard-response"	"13"	"100275"	"0.0-4.0-1.0-2.0-0.3"	"7aqm1a"	"600"	"1366"	"chrome"	"110.0.0"	"FALSE"	"Windows 10"	"60.44"	"032"	n/a	n/a	n/a	n/a	n/a	n/a	"fixation"	n/a	n/a	n/a	n/a	"NULL"	n/a	"NULL"	"NULL"	"NULL"	"<p style=\"color: black; font-size: 80px; padding-left: 2%; padding-right: 17%; padding-top: 10%; padding-bottom: 32%\">+</p>"	"1264"	n/a	n/a	n/a	n/a	n/a	n/a	n/a	n/a	n/a
n/a	"image-keyboard-response"	"14"	"100727"	"0.0-4.0-1.0-2.0-1.3"	"7aqm1a"	"600"	"1366"	"chrome"	"110.0.0"	"FALSE"	"Windows 10"	"60.44"	"032"	n/a	n/a	n/a	n/a	n/a	n/a	"Trial"	n/a	n/a	n/a	"451"	"arrowright"	n/a	"NULL"	"NULL"	"NULL"	"stimuli/Ebbinghaus_0000000_-1.4000.png"	n/a	"Ebbinghaus"	"arrowright"	"1268"	"TRUE"	"Ebbinghaus"	"000000000000"	"-1.400000000"	"1"	"4"
n/a	"html-keyboard-response"	"15"	"102215"	"0.0-4.0-1.0-2.0-0.4"	"7aqm1a"	"600"	"1366"	"chrome"	"110.0.0"	"FALSE"	"Windows 10"	"60.44"	"032"	n/a	n/a	n/a	n/a	n/a	n/a	"fixation"	n/a	n/a	n/a	n/a	"NULL"	n/a	"NULL"	"NULL"	"NULL"	"<p style=\"color: black; font-size: 80px; padding-left: 49%; padding-right: 2%; padding-top: 8%; padding-bottom: 4%\">+</p>"	"1476"	n/a	n/a	n/a	n/a	n/a	n/a	n/a	n/a	n/a
n/a	"image-keyboard-response"	"16"	"102687"	"0.0-4.0-1.0-2.0-1.4"	"7aqm1a"	"600"	"1366"	"chrome"	"110.0.0"	"FALSE"	"Windows 10"	"60.44"	"032"	n/a	n/a	n/a	n/a	n/a	n/a	"Trial"	n/a	n/a	n/a	"472"	"arrowleft"	n/a	"NULL"	"NULL"	"NULL"	"stimuli/Ebbinghaus_0000000_1.40000.png"	n/a	"Ebbinghaus"	"arrowleft"	"1488"	"TRUE"	"Ebbinghaus"	"000000000000"	"1.4000000000"	"1"	"5"
n/a	"html-keyboard-response"	"17"	"103718"	"0.0-4.0-1.0-2.0-0.5"	"7aqm1a"	"600"	"1366"	"chrome"	"110.0.0"	"FALSE"	"Windows 10"	"60.44"	"032"	n/a	n/a	n/a	n/a	n/a	n/a	"fixation"	n/a	n/a	n/a	n/a	"NULL"	n/a	"NULL"	"NULL"	"NULL"	"<p style=\"color: black; font-size: 80px; padding-left: 16%; padding-right: 10%; padding-top: 12%; padding-bottom: 7%\">+</p>"	"1017"	n/a	n/a	n/a	n/a	n/a	n/a	n/a	n/a	n/a
n/a	"image-keyboard-response"	"18"	"104174"	"0.0-4.0-1.0-2.0-1.5"	"7aqm1a"	"600"	"1366"	"chrome"	"110.0.0"	"FALSE"	"Windows 10"	"60.44"	"032"	n/a	n/a	n/a	n/a	n/a	n/a	"Trial"	n/a	n/a	n/a	"455"	"arrowleft"	n/a	"NULL"	"NULL"	"NULL"	"stimuli/Ebbinghaus_-100000_1.40000.png"	n/a	"Ebbinghaus"	"arrowleft"	"1031"	"TRUE"	"Ebbinghaus"	"-10000000000"	"1.4000000000"	"1"	"6"
n/a	"html-button-response"	"19"	"115611"	"0.0-4.0-1.0-3.0"	"7aqm1a"	"600"	"1366"	"chrome"	"110.0.0"	"FALSE"	"Windows 10"	"60.44"	"032"	n/a	n/a	n/a	n/a	n/a	n/a	"practice_block_results"	n/a	n/a	n/a	"11430"	"0"	n/a	"NULL"	"NULL"	"NULL"	"<p style='color:rgb(76,175,80);'> Correct Responses: <b>100.00%</b></p><hr><p style='color:rgb(233,30,99);'> Average Response Time: <b>562.00</b> ms.</p>"	n/a	n/a	n/a	n/a	n/a	n/a	n/a	n/a	n/a	n/a
"TRUE"	"preload"	"20"	"116126"	"0.0-4.0-2.0-0.0"	"7aqm1a"	"600"	"1366"	"chrome"	"110.0.0"	"FALSE"	"Windows 10"	"60.44"	"032"	n/a	n/a	n/a	n/a	n/a	n/a	n/a	n/a	n/a	n/a	n/a	"NULL"	"FALSE"	"list()"	"list()"	"list()"	n/a	n/a	n/a	n/a	n/a	n/a	n/a	n/a	n/a	n/a	n/a
n/a	"html-keyboard-response"	"21"	"129106"	"0.0-4.0-2.0-1.0"	"7aqm1a"	"600"	"1366"	"chrome"	"110.0.0"	"FALSE"	"Windows 10"	"60.44"	"032"	n/a	n/a	n/a	n/a	n/a	n/a	n/a	n/a	n/a	n/a	"12979"	"enter"	n/a	"NULL"	"NULL"	"NULL"	"<p><b>Practice</b></p><p>In this part, two horizontal red lines will appear one above the other.</p><p>Your task is to select which <b>line is longer</b> in length as fast as you can, without making errors.</p><p>Don't get distracted by the surrounding black arrows at the end of the red lines!</p><p>Press <b>the UP or the DOWN arrow</b> to indicate where is the longer <b>red line.</b></p><div style='float: center'><img src='materials/instructions/MullerLyer_Demo.png' height='300'></img><p><img src='utils/answer/answer_updown_keyboard.PNG' height='150'></img></p><p class='small'>In this example, the correct answer is the <b>UP arrow</b>.</p></div><p>Are you ready? <b>Press ENTER to start</b></p>"	n/a	n/a	n/a	n/a	n/a	n/a	n/a	n/a	n/a	n/a
n/a	"html-keyboard-response"	"22"	"130825"	"0.0-4.0-2.0-2.0-0.0"	"7aqm1a"	"600"	"1366"	"chrome"	"110.0.0"	"FALSE"	"Windows 10"	"60.44"	"032"	n/a	n/a	n/a	n/a	n/a	n/a	"fixation"	n/a	n/a	n/a	n/a	"NULL"	n/a	"NULL"	"NULL"	"NULL"	"<p style=\"color: black; font-size: 80px; padding-left: 42%; padding-right: 33%; padding-top: 4%; padding-bottom: 35%\">+</p>"	"1205"	n/a	n/a	n/a	n/a	n/a	n/a	n/a	n/a	n/a
n/a	"image-keyboard-response"	"23"	"131469"	"0.0-4.0-2.0-2.0-1.0"	"7aqm1a"	"600"	"1366"	"chrome"	"110.0.0"	"FALSE"	"Windows 10"	"60.44"	"032"	n/a	n/a	n/a	n/a	n/a	n/a	"Trial"	n/a	n/a	n/a	"643"	"arrowdown"	n/a	"NULL"	"NULL"	"NULL"	"stimuli/MullerLyer_0000000_-0.7000.png"	n/a	"MullerLyer"	"arrowdown"	"1719"	"TRUE"	"MullerLyer"	"000000000000"	"-0.700000000"	"1"	"7"
n/a	"html-keyboard-response"	"24"	"132715"	"0.0-4.0-2.0-2.0-0.1"	"7aqm1a"	"600"	"1366"	"chrome"	"110.0.0"	"FALSE"	"Windows 10"	"60.44"	"032"	n/a	n/a	n/a	n/a	n/a	n/a	"fixation"	n/a	n/a	n/a	n/a	"NULL"	n/a	"NULL"	"NULL"	"NULL"	"<p style=\"color: black; font-size: 80px; padding-left: 24%; padding-right: 18%; padding-top: 10%; padding-bottom: 15%\">+</p>"	"1239"	n/a	n/a	n/a	n/a	n/a	n/a	n/a	n/a	n/a
n/a	"image-keyboard-response"	"25"	"133574"	"0.0-4.0-2.0-2.0-1.1"	"7aqm1a"	"600"	"1366"	"chrome"	"110.0.0"	"FALSE"	"Windows 10"	"60.44"	"032"	n/a	n/a	n/a	n/a	n/a	n/a	"Trial"	n/a	n/a	n/a	"858"	"arrowdown"	n/a	"NULL"	"NULL"	"NULL"	"stimuli/MullerLyer_-230000_-0.7000.png"	n/a	"MullerLyer"	"arrowdown"	"1246"	"TRUE"	"MullerLyer"	"-23000000000"	"-0.700000000"	"1"	"8"
n/a	"html-keyboard-response"	"26"	"134888"	"0.0-4.0-2.0-2.0-0.2"	"7aqm1a"	"600"	"1366"	"chrome"	"110.0.0"	"FALSE"	"Windows 10"	"60.44"	"032"	n/a	n/a	n/a	n/a	n/a	n/a	"fixation"	n/a	n/a	n/a	n/a	"NULL"	n/a	"NULL"	"NULL"	"NULL"	"<p style=\"color: black; font-size: 80px; padding-left: 21%; padding-right: 49%; padding-top: 12%; padding-bottom: 29%\">+</p>"	"1306"	n/a	n/a	n/a	n/a	n/a	n/a	n/a	n/a	n/a
n/a	"image-keyboard-response"	"27"	"135336"	"0.0-4.0-2.0-2.0-1.2"	"7aqm1a"	"600"	"1366"	"chrome"	"110.0.0"	"FALSE"	"Windows 10"	"60.44"	"032"	n/a	n/a	n/a	n/a	n/a	n/a	"Trial"	n/a	n/a	n/a	"448"	"arrowdown"	n/a	"NULL"	"NULL"	"NULL"	"stimuli/MullerLyer_2300000_-0.7000.png"	n/a	"MullerLyer"	"arrowdown"	"1314"	"TRUE"	"MullerLyer"	"230000000000"	"-0.700000000"	"1"	"9"
n/a	"html-keyboard-response"	"28"	"136559"	"0.0-4.0-2.0-2.0-0.3"	"7aqm1a"	"600"	"1366"	"chrome"	"110.0.0"	"FALSE"	"Windows 10"	"60.44"	"032"	n/a	n/a	n/a	n/a	n/a	n/a	"fixation"	n/a	n/a	n/a	n/a	"NULL"	n/a	"NULL"	"NULL"	"NULL"	"<p style=\"color: black; font-size: 80px; padding-left: 33%; padding-right: 17%; padding-top: 35%; padding-bottom: 46%\">+</p>"	"1207"	n/a	n/a	n/a	n/a	n/a	n/a	n/a	n/a	n/a
n/a	"image-keyboard-response"	"29"	"137085"	"0.0-4.0-2.0-2.0-1.3"	"7aqm1a"	"600"	"1366"	"chrome"	"110.0.0"	"FALSE"	"Windows 10"	"60.44"	"032"	n/a	n/a	n/a	n/a	n/a	n/a	"Trial"	n/a	n/a	n/a	"525"	"arrowup"	n/a	"NULL"	"NULL"	"NULL"	"stimuli/MullerLyer_0000000_0.70000.png"	n/a	"MullerLyer"	"arrowup"	"1223"	"TRUE"	"MullerLyer"	"000000000000"	"0.7000000000"	"1"	"10"
n/a	"html-keyboard-response"	"30"	"138450"	"0.0-4.0-2.0-2.0-0.4"	"7aqm1a"	"600"	"1366"	"chrome"	"110.0.0"	"FALSE"	"Windows 10"	"60.44"	"032"	n/a	n/a	n/a	n/a	n/a	n/a	"fixation"	n/a	n/a	n/a	n/a	"NULL"	n/a	"NULL"	"NULL"	"NULL"	"<p style=\"color: black; font-size: 80px; padding-left: 23%; padding-right: 11%; padding-top: 26%; padding-bottom: 8%\">+</p>"	"1348"	n/a	n/a	n/a	n/a	n/a	n/a	n/a	n/a	n/a
n/a	"image-keyboard-response"	"31"	"138972"	"0.0-4.0-2.0-2.0-1.4"	"7aqm1a"	"600"	"1366"	"chrome"	"110.0.0"	"FALSE"	"Windows 10"	"60.44"	"032"	n/a	n/a	n/a	n/a	n/a	n/a	"Trial"	n/a	n/a	n/a	"521"	"arrowup"	n/a	"NULL"	"NULL"	"NULL"	"stimuli/MullerLyer_2300000_0.70000.png"	n/a	"MullerLyer"	"arrowup"	"1365"	"TRUE"	"MullerLyer"	"230000000000"	"0.7000000000"	"1"	"11"
n/a	"html-keyboard-response"	"32"	"140478"	"0.0-4.0-2.0-2.0-0.5"	"7aqm1a"	"600"	"1366"	"chrome"	"110.0.0"	"FALSE"	"Windows 10"	"60.44"	"032"	n/a	n/a	n/a	n/a	n/a	n/a	"fixation"	n/a	n/a	n/a	n/a	"NULL"	n/a	"NULL"	"NULL"	"NULL"	"<p style=\"color: black; font-size: 80px; padding-left: 22%; padding-right: 19%; padding-top: 38%; padding-bottom: 5%\">+</p>"	"1495"	n/a	n/a	n/a	n/a	n/a	n/a	n/a	n/a	n/a
n/a	"image-keyboard-response"	"33"	"141047"	"0.0-4.0-2.0-2.0-1.5"	"7aqm1a"	"600"	"1366"	"chrome"	"110.0.0"	"FALSE"	"Windows 10"	"60.44"	"032"	n/a	n/a	n/a	n/a	n/a	n/a	"Trial"	n/a	n/a	n/a	"569"	"arrowup"	n/a	"NULL"	"NULL"	"NULL"	"stimuli/MullerLyer_-230000_0.70000.png"	n/a	"MullerLyer"	"arrowup"	"1506"	"TRUE"	"MullerLyer"	"-23000000000"	"0.7000000000"	"1"	"12"
n/a	"html-button-response"	"34"	"144746"	"0.0-4.0-2.0-3.0"	"7aqm1a"	"600"	"1366"	"chrome"	"110.0.0"	"FALSE"	"Windows 10"	"60.44"	"032"	n/a	n/a	n/a	n/a	n/a	n/a	"practice_block_results"	n/a	n/a	n/a	"3698"	"0"	n/a	"NULL"	"NULL"	"NULL"	"<p style='color:rgb(76,175,80);'> Correct Responses: <b>100.00%</b></p><hr><p style='color:rgb(233,30,99);'> Average Response Time: <b>594.00</b> ms.</p>"	n/a	n/a	n/a	n/a	n/a	n/a	n/a	n/a	n/a	n/a
"TRUE"	"preload"	"35"	"145272"	"0.0-4.0-3.0-0.0"	"7aqm1a"	"600"	"1366"	"chrome"	"110.0.0"	"FALSE"	"Windows 10"	"60.44"	"032"	n/a	n/a	n/a	n/a	n/a	n/a	n/a	n/a	n/a	n/a	n/a	"NULL"	"FALSE"	"list()"	"list()"	"list()"	n/a	n/a	n/a	n/a	n/a	n/a	n/a	n/a	n/a	n/a	n/a
n/a	"html-keyboard-response"	"36"	"151963"	"0.0-4.0-3.0-1.0"	"7aqm1a"	"600"	"1366"	"chrome"	"110.0.0"	"FALSE"	"Windows 10"	"60.44"	"032"	n/a	n/a	n/a	n/a	n/a	n/a	n/a	n/a	n/a	n/a	"6690"	"enter"	n/a	"NULL"	"NULL"	"NULL"	"<p><b>Practice</b></p><p>In this part, two red lines will appear side by side.</p><p>Your task is to tell <b>which line is longer</b> in length, regardless of their orientation, as fast as you can, and without making errors.</p><p>Don't get distracted by the orientation of the lines!</p><p>Press <b>the LEFT or the RIGHT arrow</b> to indicate which <b>line is the longer one.</b></p><div style='float: center'><img src='materials/instructions/VerticalHorizontal_Demo.png' height='300'></img><p><img src='utils/answer/answer_leftright_keyboard.PNG' height='150'></img></p><p class='small'>In this example, the correct answer is the <b>LEFT arrow</b>.</p></div><p>Are you ready? <b>Press ENTER to start</b></p>"	n/a	n/a	n/a	n/a	n/a	n/a	n/a	n/a	n/a	n/a
n/a	"html-keyboard-response"	"37"	"153502"	"0.0-4.0-3.0-2.0-0.0"	"7aqm1a"	"600"	"1366"	"chrome"	"110.0.0"	"FALSE"	"Windows 10"	"60.44"	"032"	n/a	n/a	n/a	n/a	n/a	n/a	"fixation"	n/a	n/a	n/a	n/a	"NULL"	n/a	"NULL"	"NULL"	"NULL"	"<p style=\"color: black; font-size: 80px; padding-left: 6%; padding-right: 11%; padding-top: 37%; padding-bottom: 35%\">+</p>"	"1022"	n/a	n/a	n/a	n/a	n/a	n/a	n/a	n/a	n/a
n/a	"image-keyboard-response"	"38"	"153971"	"0.0-4.0-3.0-2.0-1.0"	"7aqm1a"	"600"	"1366"	"chrome"	"110.0.0"	"FALSE"	"Windows 10"	"60.44"	"032"	n/a	n/a	n/a	n/a	n/a	n/a	"Trial"	n/a	n/a	n/a	"468"	"arrowright"	n/a	"NULL"	"NULL"	"NULL"	"stimuli/VerticalHorizontal_3300000_-0.9000.png"	n/a	"VerticalHorizontal"	"arrowright"	"1539"	"TRUE"	"VerticalHorizontal"	"330000000000"	"-0.900000000"	"1"	"13"
n/a	"html-keyboard-response"	"39"	"155401"	"0.0-4.0-3.0-2.0-0.1"	"7aqm1a"	"600"	"1366"	"chrome"	"110.0.0"	"FALSE"	"Windows 10"	"60.44"	"032"	n/a	n/a	n/a	n/a	n/a	n/a	"fixation"	n/a	n/a	n/a	n/a	"NULL"	n/a	"NULL"	"NULL"	"NULL"	"<p style=\"color: black; font-size: 80px; padding-left: 44%; padding-right: 40%; padding-top: 28%; padding-bottom: 29%\">+</p>"	"1415"	n/a	n/a	n/a	n/a	n/a	n/a	n/a	n/a	n/a
n/a	"image-keyboard-response"	"40"	"155878"	"0.0-4.0-3.0-2.0-1.1"	"7aqm1a"	"600"	"1366"	"chrome"	"110.0.0"	"FALSE"	"Windows 10"	"60.44"	"032"	n/a	n/a	n/a	n/a	n/a	n/a	"Trial"	n/a	n/a	n/a	"476"	"arrowleft"	n/a	"NULL"	"NULL"	"NULL"	"stimuli/VerticalHorizontal_3300000_0.90000.png"	n/a	"VerticalHorizontal"	"arrowleft"	"1430"	"TRUE"	"VerticalHorizontal"	"330000000000"	"0.9000000000"	"1"	"14"
n/a	"html-keyboard-response"	"41"	"157360"	"0.0-4.0-3.0-2.0-0.2"	"7aqm1a"	"600"	"1366"	"chrome"	"110.0.0"	"FALSE"	"Windows 10"	"60.44"	"032"	n/a	n/a	n/a	n/a	n/a	n/a	"fixation"	n/a	n/a	n/a	n/a	"NULL"	n/a	"NULL"	"NULL"	"NULL"	"<p style=\"color: black; font-size: 80px; padding-left: 18%; padding-right: 25%; padding-top: 6%; padding-bottom: 37%\">+</p>"	"1465"	n/a	n/a	n/a	n/a	n/a	n/a	n/a	n/a	n/a
n/a	"image-keyboard-response"	"42"	"157710"	"0.0-4.0-3.0-2.0-1.2"	"7aqm1a"	"600"	"1366"	"chrome"	"110.0.0"	"FALSE"	"Windows 10"	"60.44"	"032"	n/a	n/a	n/a	n/a	n/a	n/a	"Trial"	n/a	n/a	n/a	"350"	"arrowright"	n/a	"NULL"	"NULL"	"NULL"	"stimuli/VerticalHorizontal_-330000_-0.9000.png"	n/a	"VerticalHorizontal"	"arrowright"	"1482"	"TRUE"	"VerticalHorizontal"	"-33000000000"	"-0.900000000"	"1"	"15"
n/a	"html-keyboard-response"	"43"	"159168"	"0.0-4.0-3.0-2.0-0.3"	"7aqm1a"	"600"	"1366"	"chrome"	"110.0.0"	"FALSE"	"Windows 10"	"60.44"	"032"	n/a	n/a	n/a	n/a	n/a	n/a	"fixation"	n/a	n/a	n/a	n/a	"NULL"	n/a	"NULL"	"NULL"	"NULL"	"<p style=\"color: black; font-size: 80px; padding-left: 19%; padding-right: 5%; padding-top: 33%; padding-bottom: 43%\">+</p>"	"1444"	n/a	n/a	n/a	n/a	n/a	n/a	n/a	n/a	n/a
n/a	"image-keyboard-response"	"44"	"159569"	"0.0-4.0-3.0-2.0-1.3"	"7aqm1a"	"600"	"1366"	"chrome"	"110.0.0"	"FALSE"	"Windows 10"	"60.44"	"032"	n/a	n/a	n/a	n/a	n/a	n/a	"Trial"	n/a	n/a	n/a	"400"	"arrowleft"	n/a	"NULL"	"NULL"	"NULL"	"stimuli/VerticalHorizontal_-330000_0.90000.png"	n/a	"VerticalHorizontal"	"arrowleft"	"1458"	"TRUE"	"VerticalHorizontal"	"-33000000000"	"0.9000000000"	"1"	"16"
n/a	"html-keyboard-response"	"45"	"161065"	"0.0-4.0-3.0-2.0-0.4"	"7aqm1a"	"600"	"1366"	"chrome"	"110.0.0"	"FALSE"	"Windows 10"	"60.44"	"032"	n/a	n/a	n/a	n/a	n/a	n/a	"fixation"	n/a	n/a	n/a	n/a	"NULL"	n/a	"NULL"	"NULL"	"NULL"	"<p style=\"color: black; font-size: 80px; padding-left: 6%; padding-right: 25%; padding-top: 39%; padding-bottom: 35%\">+</p>"	"1480"	n/a	n/a	n/a	n/a	n/a	n/a	n/a	n/a	n/a
n/a	"image-keyboard-response"	"46"	"161617"	"0.0-4.0-3.0-2.0-1.4"	"7aqm1a"	"600"	"1366"	"chrome"	"110.0.0"	"FALSE"	"Windows 10"	"60.44"	"032"	n/a	n/a	n/a	n/a	n/a	n/a	"Trial"	n/a	n/a	n/a	"551"	"arrowleft"	n/a	"NULL"	"NULL"	"NULL"	"stimuli/VerticalHorizontal_0000000_0.90000.png"	n/a	"VerticalHorizontal"	"arrowleft"	"1496"	"TRUE"	"VerticalHorizontal"	"000000000000"	"0.9000000000"	"1"	"17"
n/a	"html-keyboard-response"	"47"	"162677"	"0.0-4.0-3.0-2.0-0.5"	"7aqm1a"	"600"	"1366"	"chrome"	"110.0.0"	"FALSE"	"Windows 10"	"60.44"	"032"	n/a	n/a	n/a	n/a	n/a	n/a	"fixation"	n/a	n/a	n/a	n/a	"NULL"	n/a	"NULL"	"NULL"	"NULL"	"<p style=\"color: black; font-size: 80px; padding-left: 10%; padding-right: 46%; padding-top: 16%; padding-bottom: 1%\">+</p>"	"1044"	n/a	n/a	n/a	n/a	n/a	n/a	n/a	n/a	n/a
n/a	"image-keyboard-response"	"48"	"163380"	"0.0-4.0-3.0-2.0-1.5"	"7aqm1a"	"600"	"1366"	"chrome"	"110.0.0"	"FALSE"	"Windows 10"	"60.44"	"032"	n/a	n/a	n/a	n/a	n/a	n/a	"Trial"	n/a	n/a	n/a	"703"	"arrowright"	n/a	"NULL"	"NULL"	"NULL"	"stimuli/VerticalHorizontal_0000000_-0.9000.png"	n/a	"VerticalHorizontal"	"arrowright"	"1060"	"TRUE"	"VerticalHorizontal"	"000000000000"	"-0.900000000"	"1"	"18"
n/a	"html-button-response"	"49"	"165816"	"0.0-4.0-3.0-3.0"	"7aqm1a"	"600"	"1366"	"chrome"	"110.0.0"	"FALSE"	"Windows 10"	"60.44"	"032"	n/a	n/a	n/a	n/a	n/a	n/a	"practice_block_results"	n/a	n/a	n/a	"2435"	"0"	n/a	"NULL"	"NULL"	"NULL"	"<p style='color:rgb(76,175,80);'> Correct Responses: <b>100.00%</b></p><hr><p style='color:rgb(233,30,99);'> Average Response Time: <b>491.33</b> ms.</p>"	n/a	n/a	n/a	n/a	n/a	n/a	n/a	n/a	n/a	n/a
n/a	"html-button-response"	"50"	"361363"	"0.0-4.0-4.0"	"7aqm1a"	"600"	"1366"	"chrome"	"110.0.0"	"FALSE"	"Windows 10"	"60.44"	"032"	n/a	n/a	n/a	n/a	n/a	n/a	"practice_debrief"	n/a	n/a	n/a	"195041"	"0"	n/a	"NULL"	"NULL"	"NULL"	"<p><b>TRAINING COMPLETED</b></p><p>In the next phase, there will be more trials, and some might be harder too.<br> Moreover, after each illusion block, a <b>score</b> will be calculated based on speed (time you took to answer) and accuracy (number of errors).</p><p>Try to keep up a high score!</p><br><p>Note that it can be <i>really</i> challenging at times, so you will need to rely on your <b>intuition</b> and gut feeling to answer as fast as you can without making errors.</p><p>Each illusion block will be repeated two times (so that you have the opportunity to improve your score), but the order of the blocks is random.</p><p>Remember, your goal is to be as <b>fast</b> and <b>accurate</b> as possible. Good luck!</p><br>"	n/a	n/a	n/a	n/a	n/a	n/a	n/a	n/a	n/a	n/a
"TRUE"	"preload"	"51"	"361510"	"0.0-5.0-0.0"	"7aqm1a"	"600"	"1366"	"chrome"	"110.0.0"	"FALSE"	"Windows 10"	"60.44"	"032"	n/a	n/a	n/a	n/a	n/a	n/a	n/a	n/a	n/a	n/a	n/a	"NULL"	"FALSE"	"list()"	"list()"	"list()"	n/a	n/a	n/a	n/a	n/a	n/a	n/a	n/a	n/a	n/a	n/a
n/a	"html-keyboard-response"	"52"	"370092"	"0.0-5.0-1.0"	"7aqm1a"	"600"	"1366"	"chrome"	"110.0.0"	"FALSE"	"Windows 10"	"60.44"	"032"	n/a	n/a	n/a	n/a	n/a	n/a	n/a	n/a	n/a	n/a	"8582"	"enter"	n/a	"NULL"	"NULL"	"NULL"	"<p><b>Part 1/6</b></p><p>In this part, two horizontal red lines will appear one above the other.</p><p>Your task is to select which <b>line is longer</b> in length as fast as you can, without making errors.</p><p>Don't get distracted by the surrounding black arrows at the end of the red lines!</p><p>Press <b>the UP or the DOWN arrow</b> to indicate where is the longer <b>red line.</b></p><div style='float: center'><img src='materials/instructions/MullerLyer_Demo.png' height='300'></img><p><img src='utils/answer/answer_updown_keyboard.PNG' height='150'></img></p><p class='small'>In this example, the correct answer is the <b>UP arrow</b>.</p></div><p>Are you ready? <b>Press ENTER to start</b></p>"	n/a	n/a	n/a	n/a	n/a	n/a	n/a	n/a	n/a	n/a
n/a	"html-keyboard-response"	"53"	"371621"	"0.0-5.0-2.0-0.0"	"7aqm1a"	"600"	"1366"	"chrome"	"110.0.0"	"FALSE"	"Windows 10"	"60.44"	"032"	n/a	n/a	n/a	n/a	n/a	n/a	"fixation"	n/a	n/a	n/a	n/a	"NULL"	n/a	"NULL"	"NULL"	"NULL"	"<p style=\"color: black; font-size: 80px; padding-left: 1%; padding-right: 17%; padding-top: 21%; padding-bottom: 28%\">+</p>"	"1008"	n/a	n/a	n/a	n/a	n/a	n/a	n/a	n/a	n/a
n/a	"image-keyboard-response"	"54"	"372267"	"0.0-5.0-2.0-1.0"	"7aqm1a"	"600"	"1366"	"chrome"	"110.0.0"	"FALSE"	"Windows 10"	"60.44"	"032"	n/a	n/a	n/a	n/a	n/a	n/a	"Trial"	n/a	n/a	n/a	"646"	"arrowdown"	n/a	"NULL"	"NULL"	"NULL"	"stimuli/MullerLyer_-2.3000_-0.14541.png"	n/a	"MullerLyer"	"arrowdown"	"1529"	"TRUE"	"MullerLyer"	"-2.300000000"	"-0.145410000"	"1"	"19"
n/a	"html-keyboard-response"	"55"	"373355"	"0.0-5.0-2.0-0.1"	"7aqm1a"	"600"	"1366"	"chrome"	"110.0.0"	"FALSE"	"Windows 10"	"60.44"	"032"	n/a	n/a	n/a	n/a	n/a	n/a	"fixation"	n/a	n/a	n/a	n/a	"NULL"	n/a	"NULL"	"NULL"	"NULL"	"<p style=\"color: black; font-size: 80px; padding-left: 14%; padding-right: 21%; padding-top: 45%; padding-bottom: 25%\">+</p>"	"1082"	n/a	n/a	n/a	n/a	n/a	n/a	n/a	n/a	n/a
n/a	"image-keyboard-response"	"56"	"374103"	"0.0-5.0-2.0-1.1"	"7aqm1a"	"600"	"1366"	"chrome"	"110.0.0"	"FALSE"	"Windows 10"	"60.44"	"032"	n/a	n/a	n/a	n/a	n/a	n/a	"Trial"	n/a	n/a	n/a	"748"	"arrowup"	n/a	"NULL"	"NULL"	"NULL"	"stimuli/MullerLyer_8.21429_-0.14541.png"	n/a	"MullerLyer"	"arrowdown"	"1088"	"FALSE"	"MullerLyer"	"8.2142900000"	"-0.145410000"	"1"	"20"
n/a	"html-keyboard-response"	"57"	"375166"	"0.0-5.0-2.0-0.2"	"7aqm1a"	"600"	"1366"	"chrome"	"110.0.0"	"FALSE"	"Windows 10"	"60.44"	"032"	n/a	n/a	n/a	n/a	n/a	n/a	"fixation"	n/a	n/a	n/a	n/a	"NULL"	n/a	"NULL"	"NULL"	"NULL"	"<p style=\"color: black; font-size: 80px; padding-left: 13%; padding-right: 40%; padding-top: 38%; padding-bottom: 22%\">+</p>"	"1055"	n/a	n/a	n/a	n/a	n/a	n/a	n/a	n/a	n/a
n/a	"image-keyboard-response"	"58"	"375837"	"0.0-5.0-2.0-1.2"	"7aqm1a"	"600"	"1366"	"chrome"	"110.0.0"	"FALSE"	"Windows 10"	"60.44"	"032"	n/a	n/a	n/a	n/a	n/a	n/a	"Trial"	n/a	n/a	n/a	"671"	"arrowup"	n/a	"NULL"	"NULL"	"NULL"	"stimuli/MullerLyer_14.12857_0.35000.png"	n/a	"MullerLyer"	"arrowup"	"1063"	"TRUE"	"MullerLyer"	"14.128570000"	"0.3500000000"	"1"	"21"
n/a	"html-keyboard-response"	"59"	"377090"	"0.0-5.0-2.0-0.3"	"7aqm1a"	"600"	"1366"	"chrome"	"110.0.0"	"FALSE"	"Windows 10"	"60.44"	"032"	n/a	n/a	n/a	n/a	n/a	n/a	"fixation"	n/a	n/a	n/a	n/a	"NULL"	n/a	"NULL"	"NULL"	"NULL"	"<p style=\"color: black; font-size: 80px; padding-left: 6%; padding-right: 28%; padding-top: 27%; padding-bottom: 4%\">+</p>"	"1237"	n/a	n/a	n/a	n/a	n/a	n/a	n/a	n/a	n/a
n/a	"image-keyboard-response"	"60"	"377648"	"0.0-5.0-2.0-1.3"	"7aqm1a"	"600"	"1366"	"chrome"	"110.0.0"	"FALSE"	"Windows 10"	"60.44"	"032"	n/a	n/a	n/a	n/a	n/a	n/a	"Trial"	n/a	n/a	n/a	"557"	"arrowdown"	n/a	"NULL"	"NULL"	"NULL"	"stimuli/MullerLyer_-8.21429_-0.14541.png"	n/a	"MullerLyer"	"arrowdown"	"1253"	"TRUE"	"MullerLyer"	"-8.214290000"	"-0.145410000"	"1"	"22"
n/a	"html-keyboard-response"	"61"	"378747"	"0.0-5.0-2.0-0.4"	"7aqm1a"	"600"	"1366"	"chrome"	"110.0.0"	"FALSE"	"Windows 10"	"60.44"	"032"	n/a	n/a	n/a	n/a	n/a	n/a	"fixation"	n/a	n/a	n/a	n/a	"NULL"	n/a	"NULL"	"NULL"	"NULL"	"<p style=\"color: black; font-size: 80px; padding-left: 2%; padding-right: 13%; padding-top: 9%; padding-bottom: 28%\">+</p>"	"1095"	n/a	n/a	n/a	n/a	n/a	n/a	n/a	n/a	n/a
n/a	"image-keyboard-response"	"62"	"379239"	"0.0-5.0-2.0-1.4"	"7aqm1a"	"600"	"1366"	"chrome"	"110.0.0"	"FALSE"	"Windows 10"	"60.44"	"032"	n/a	n/a	n/a	n/a	n/a	n/a	"Trial"	n/a	n/a	n/a	"492"	"arrowdown"	n/a	"NULL"	"NULL"	"NULL"	"stimuli/MullerLyer_-14.12857_-0.23665.png"	n/a	"MullerLyer"	"arrowdown"	"1099"	"TRUE"	"MullerLyer"	"-14.12857000"	"-0.236650000"	"1"	"23"
n/a	"html-keyboard-response"	"63"	"380712"	"0.0-5.0-2.0-0.5"	"7aqm1a"	"600"	"1366"	"chrome"	"110.0.0"	"FALSE"	"Windows 10"	"60.44"	"032"	n/a	n/a	n/a	n/a	n/a	n/a	"fixation"	n/a	n/a	n/a	n/a	"NULL"	n/a	"NULL"	"NULL"	"NULL"	"<p style=\"color: black; font-size: 80px; padding-left: 50%; padding-right: 14%; padding-top: 41%; padding-bottom: 10%\">+</p>"	"1456"	n/a	n/a	n/a	n/a	n/a	n/a	n/a	n/a	n/a
n/a	"image-keyboard-response"	"64"	"381195"	"0.0-5.0-2.0-1.5"	"7aqm1a"	"600"	"1366"	"chrome"	"110.0.0"	"FALSE"	"Windows 10"	"60.44"	"032"	n/a	n/a	n/a	n/a	n/a	n/a	"Trial"	n/a	n/a	n/a	"482"	"arrowdown"	n/a	"NULL"	"NULL"	"NULL"	"stimuli/MullerLyer_2.30000_-0.07627.png"	n/a	"MullerLyer"	"arrowdown"	"1473"	"TRUE"	"MullerLyer"	"2.3000000000"	"-0.076270000"	"1"	"24"
n/a	"html-keyboard-response"	"65"	"382345"	"0.0-5.0-2.0-0.6"	"7aqm1a"	"600"	"1366"	"chrome"	"110.0.0"	"FALSE"	"Windows 10"	"60.44"	"032"	n/a	n/a	n/a	n/a	n/a	n/a	"fixation"	n/a	n/a	n/a	n/a	"NULL"	n/a	"NULL"	"NULL"	"NULL"	"<p style=\"color: black; font-size: 80px; padding-left: 2%; padding-right: 43%; padding-top: 33%; padding-bottom: 46%\">+</p>"	"1143"	n/a	n/a	n/a	n/a	n/a	n/a	n/a	n/a	n/a
n/a	"image-keyboard-response"	"66"	"382870"	"0.0-5.0-2.0-1.6"	"7aqm1a"	"600"	"1366"	"chrome"	"110.0.0"	"FALSE"	"Windows 10"	"60.44"	"032"	n/a	n/a	n/a	n/a	n/a	n/a	"Trial"	n/a	n/a	n/a	"525"	"arrowup"	n/a	"NULL"	"NULL"	"NULL"	"stimuli/MullerLyer_-14.12857_0.07627.png"	n/a	"MullerLyer"	"arrowup"	"1150"	"TRUE"	"MullerLyer"	"-14.12857000"	"0.0762700000"	"1"	"25"
n/a	"html-keyboard-response"	"67"	"383948"	"0.0-5.0-2.0-0.7"	"7aqm1a"	"600"	"1366"	"chrome"	"110.0.0"	"FALSE"	"Windows 10"	"60.44"	"032"	n/a	n/a	n/a	n/a	n/a	n/a	"fixation"	n/a	n/a	n/a	n/a	"NULL"	n/a	"NULL"	"NULL"	"NULL"	"<p style=\"color: black; font-size: 80px; padding-left: 32%; padding-right: 13%; padding-top: 38%; padding-bottom: 44%\">+</p>"	"1074"	n/a	n/a	n/a	n/a	n/a	n/a	n/a	n/a	n/a
n/a	"image-keyboard-response"	"68"	"384855"	"0.0-5.0-2.0-1.7"	"7aqm1a"	"600"	"1366"	"chrome"	"110.0.0"	"FALSE"	"Windows 10"	"60.44"	"032"	n/a	n/a	n/a	n/a	n/a	n/a	"Trial"	n/a	n/a	n/a	"907"	"arrowdown"	n/a	"NULL"	"NULL"	"NULL"	"stimuli/MullerLyer_14.12857_-0.23665.png"	n/a	"MullerLyer"	"arrowdown"	"1078"	"TRUE"	"MullerLyer"	"14.128570000"	"-0.236650000"	"1"	"26"
n/a	"html-keyboard-response"	"69"	"386154"	"0.0-5.0-2.0-0.8"	"7aqm1a"	"600"	"1366"	"chrome"	"110.0.0"	"FALSE"	"Windows 10"	"60.44"	"032"	n/a	n/a	n/a	n/a	n/a	n/a	"fixation"	n/a	n/a	n/a	n/a	"NULL"	n/a	"NULL"	"NULL"	"NULL"	"<p style=\"color: black; font-size: 80px; padding-left: 21%; padding-right: 45%; padding-top: 12%; padding-bottom: 47%\">+</p>"	"1282"	n/a	n/a	n/a	n/a	n/a	n/a	n/a	n/a	n/a
n/a	"image-keyboard-response"	"70"	"386827"	"0.0-5.0-2.0-1.8"	"7aqm1a"	"600"	"1366"	"chrome"	"110.0.0"	"FALSE"	"Windows 10"	"60.44"	"032"	n/a	n/a	n/a	n/a	n/a	n/a	"Trial"	n/a	n/a	n/a	"673"	"arrowdown"	n/a	"NULL"	"NULL"	"NULL"	"stimuli/MullerLyer_14.12857_0.23665.png"	n/a	"MullerLyer"	"arrowup"	"1299"	"FALSE"	"MullerLyer"	"14.128570000"	"0.2366500000"	"1"	"27"
n/a	"html-keyboard-response"	"71"	"387855"	"0.0-5.0-2.0-0.9"	"7aqm1a"	"600"	"1366"	"chrome"	"110.0.0"	"FALSE"	"Windows 10"	"60.44"	"032"	n/a	n/a	n/a	n/a	n/a	n/a	"fixation"	n/a	n/a	n/a	n/a	"NULL"	n/a	"NULL"	"NULL"	"NULL"	"<p style=\"color: black; font-size: 80px; padding-left: 7%; padding-right: 45%; padding-top: 11%; padding-bottom: 32%\">+</p>"	"1017"	n/a	n/a	n/a	n/a	n/a	n/a	n/a	n/a	n/a
n/a	"image-keyboard-response"	"72"	"388554"	"0.0-5.0-2.0-1.9"	"7aqm1a"	"600"	"1366"	"chrome"	"110.0.0"	"FALSE"	"Windows 10"	"60.44"	"032"	n/a	n/a	n/a	n/a	n/a	n/a	"Trial"	n/a	n/a	n/a	"699"	"arrowup"	n/a	"NULL"	"NULL"	"NULL"	"stimuli/MullerLyer_-2.3000_0.07627.png"	n/a	"MullerLyer"	"arrowup"	"1028"	"TRUE"	"MullerLyer"	"-2.300000000"	"0.0762700000"	"1"	"28"
n/a	"html-keyboard-response"	"73"	"389967"	"0.0-5.0-2.0-0.10"	"7aqm1a"	"600"	"1366"	"chrome"	"110.0.0"	"FALSE"	"Windows 10"	"60.44"	"032"	n/a	n/a	n/a	n/a	n/a	n/a	"fixation"	n/a	n/a	n/a	n/a	"NULL"	n/a	"NULL"	"NULL"	"NULL"	"<p style=\"color: black; font-size: 80px; padding-left: 0%; padding-right: 14%; padding-top: 38%; padding-bottom: 45%\">+</p>"	"1410"	n/a	n/a	n/a	n/a	n/a	n/a	n/a	n/a	n/a
n/a	"image-keyboard-response"	"74"	"390519"	"0.0-5.0-2.0-1.10"	"7aqm1a"	"600"	"1366"	"chrome"	"110.0.0"	"FALSE"	"Windows 10"	"60.44"	"032"	n/a	n/a	n/a	n/a	n/a	n/a	"Trial"	n/a	n/a	n/a	"551"	"arrowdown"	n/a	"NULL"	"NULL"	"NULL"	"stimuli/MullerLyer_8.21429_0.07627.png"	n/a	"MullerLyer"	"arrowup"	"1413"	"FALSE"	"MullerLyer"	"8.2142900000"	"0.0762700000"	"1"	"29"
n/a	"html-keyboard-response"	"75"	"391886"	"0.0-5.0-2.0-0.11"	"7aqm1a"	"600"	"1366"	"chrome"	"110.0.0"	"FALSE"	"Windows 10"	"60.44"	"032"	n/a	n/a	n/a	n/a	n/a	n/a	"fixation"	n/a	n/a	n/a	n/a	"NULL"	n/a	"NULL"	"NULL"	"NULL"	"<p style=\"color: black; font-size: 80px; padding-left: 31%; padding-right: 47%; padding-top: 41%; padding-bottom: 10%\">+</p>"	"1361"	n/a	n/a	n/a	n/a	n/a	n/a	n/a	n/a	n/a
n/a	"image-keyboard-response"	"76"	"392355"	"0.0-5.0-2.0-1.11"	"7aqm1a"	"600"	"1366"	"chrome"	"110.0.0"	"FALSE"	"Windows 10"	"60.44"	"032"	n/a	n/a	n/a	n/a	n/a	n/a	"Trial"	n/a	n/a	n/a	"468"	"arrowup"	n/a	"NULL"	"NULL"	"NULL"	"stimuli/MullerLyer_-8.21429_0.23665.png"	n/a	"MullerLyer"	"arrowup"	"1367"	"TRUE"	"MullerLyer"	"-8.214290000"	"0.2366500000"	"1"	"30"
n/a	"html-keyboard-response"	"77"	"393761"	"0.0-5.0-2.0-0.12"	"7aqm1a"	"600"	"1366"	"chrome"	"110.0.0"	"FALSE"	"Windows 10"	"60.44"	"032"	n/a	n/a	n/a	n/a	n/a	n/a	"fixation"	n/a	n/a	n/a	n/a	"NULL"	n/a	"NULL"	"NULL"	"NULL"	"<p style=\"color: black; font-size: 80px; padding-left: 37%; padding-right: 38%; padding-top: 29%; padding-bottom: 13%\">+</p>"	"1401"	n/a	n/a	n/a	n/a	n/a	n/a	n/a	n/a	n/a
n/a	"image-keyboard-response"	"78"	"394232"	"0.0-5.0-2.0-1.12"	"7aqm1a"	"600"	"1366"	"chrome"	"110.0.0"	"FALSE"	"Windows 10"	"60.44"	"032"	n/a	n/a	n/a	n/a	n/a	n/a	"Trial"	n/a	n/a	n/a	"471"	"arrowdown"	n/a	"NULL"	"NULL"	"NULL"	"stimuli/MullerLyer_20.04286_0.14541.png"	n/a	"MullerLyer"	"arrowup"	"1406"	"FALSE"	"MullerLyer"	"20.042860000"	"0.1454100000"	"1"	"31"
n/a	"html-keyboard-response"	"79"	"395606"	"0.0-5.0-2.0-0.13"	"7aqm1a"	"600"	"1366"	"chrome"	"110.0.0"	"FALSE"	"Windows 10"	"60.44"	"032"	n/a	n/a	n/a	n/a	n/a	n/a	"fixation"	n/a	n/a	n/a	n/a	"NULL"	n/a	"NULL"	"NULL"	"NULL"	"<p style=\"color: black; font-size: 80px; padding-left: 6%; padding-right: 29%; padding-top: 48%; padding-bottom: 31%\">+</p>"	"1361"	n/a	n/a	n/a	n/a	n/a	n/a	n/a	n/a	n/a
n/a	"image-keyboard-response"	"80"	"396008"	"0.0-5.0-2.0-1.13"	"7aqm1a"	"600"	"1366"	"chrome"	"110.0.0"	"FALSE"	"Windows 10"	"60.44"	"032"	n/a	n/a	n/a	n/a	n/a	n/a	"Trial"	n/a	n/a	n/a	"400"	"arrowup"	n/a	"NULL"	"NULL"	"NULL"	"stimuli/MullerLyer_-14.12857_0.23665.png"	n/a	"MullerLyer"	"arrowup"	"1374"	"TRUE"	"MullerLyer"	"-14.12857000"	"0.2366500000"	"1"	"32"
n/a	"html-keyboard-response"	"81"	"397345"	"0.0-5.0-2.0-0.14"	"7aqm1a"	"600"	"1366"	"chrome"	"110.0.0"	"FALSE"	"Windows 10"	"60.44"	"032"	n/a	n/a	n/a	n/a	n/a	n/a	"fixation"	n/a	n/a	n/a	n/a	"NULL"	n/a	"NULL"	"NULL"	"NULL"	"<p style=\"color: black; font-size: 80px; padding-left: 17%; padding-right: 27%; padding-top: 45%; padding-bottom: 24%\">+</p>"	"1328"	n/a	n/a	n/a	n/a	n/a	n/a	n/a	n/a	n/a
n/a	"image-keyboard-response"	"82"	"397825"	"0.0-5.0-2.0-1.14"	"7aqm1a"	"600"	"1366"	"chrome"	"110.0.0"	"FALSE"	"Windows 10"	"60.44"	"032"	n/a	n/a	n/a	n/a	n/a	n/a	"Trial"	n/a	n/a	n/a	"479"	"arrowdown"	n/a	"NULL"	"NULL"	"NULL"	"stimuli/MullerLyer_8.21429_0.14541.png"	n/a	"MullerLyer"	"arrowup"	"1337"	"FALSE"	"MullerLyer"	"8.2142900000"	"0.1454100000"	"1"	"33"
n/a	"html-keyboard-response"	"83"	"398996"	"0.0-5.0-2.0-0.15"	"7aqm1a"	"600"	"1366"	"chrome"	"110.0.0"	"FALSE"	"Windows 10"	"60.44"	"032"	n/a	n/a	n/a	n/a	n/a	n/a	"fixation"	n/a	n/a	n/a	n/a	"NULL"	n/a	"NULL"	"NULL"	"NULL"	"<p style=\"color: black; font-size: 80px; padding-left: 12%; padding-right: 0%; padding-top: 37%; padding-bottom: 32%\">+</p>"	"1168"	n/a	n/a	n/a	n/a	n/a	n/a	n/a	n/a	n/a
n/a	"image-keyboard-response"	"84"	"399473"	"0.0-5.0-2.0-1.15"	"7aqm1a"	"600"	"1366"	"chrome"	"110.0.0"	"FALSE"	"Windows 10"	"60.44"	"032"	n/a	n/a	n/a	n/a	n/a	n/a	"Trial"	n/a	n/a	n/a	"476"	"arrowup"	n/a	"NULL"	"NULL"	"NULL"	"stimuli/MullerLyer_-20.04286_0.23665.png"	n/a	"MullerLyer"	"arrowup"	"1171"	"TRUE"	"MullerLyer"	"-20.04286000"	"0.2366500000"	"1"	"34"
n/a	"html-keyboard-response"	"85"	"400836"	"0.0-5.0-2.0-0.16"	"7aqm1a"	"600"	"1366"	"chrome"	"110.0.0"	"FALSE"	"Windows 10"	"60.44"	"032"	n/a	n/a	n/a	n/a	n/a	n/a	"fixation"	n/a	n/a	n/a	n/a	"NULL"	n/a	"NULL"	"NULL"	"NULL"	"<p style=\"color: black; font-size: 80px; padding-left: 25%; padding-right: 30%; padding-top: 38%; padding-bottom: 4%\">+</p>"	"1356"	n/a	n/a	n/a	n/a	n/a	n/a	n/a	n/a	n/a
n/a	"image-keyboard-response"	"86"	"401401"	"0.0-5.0-2.0-1.16"	"7aqm1a"	"600"	"1366"	"chrome"	"110.0.0"	"FALSE"	"Windows 10"	"60.44"	"032"	n/a	n/a	n/a	n/a	n/a	n/a	"Trial"	n/a	n/a	n/a	"564"	"arrowdown"	n/a	"NULL"	"NULL"	"NULL"	"stimuli/MullerLyer_20.04286_0.23665.png"	n/a	"MullerLyer"	"arrowup"	"1363"	"FALSE"	"MullerLyer"	"20.042860000"	"0.2366500000"	"1"	"35"
n/a	"html-keyboard-response"	"87"	"402879"	"0.0-5.0-2.0-0.17"	"7aqm1a"	"600"	"1366"	"chrome"	"110.0.0"	"FALSE"	"Windows 10"	"60.44"	"032"	n/a	n/a	n/a	n/a	n/a	n/a	"fixation"	n/a	n/a	n/a	n/a	"NULL"	n/a	"NULL"	"NULL"	"NULL"	"<p style=\"color: black; font-size: 80px; padding-left: 39%; padding-right: 34%; padding-top: 24%; padding-bottom: 13%\">+</p>"	"1463"	n/a	n/a	n/a	n/a	n/a	n/a	n/a	n/a	n/a
n/a	"image-keyboard-response"	"88"	"403554"	"0.0-5.0-2.0-1.17"	"7aqm1a"	"600"	"1366"	"chrome"	"110.0.0"	"FALSE"	"Windows 10"	"60.44"	"032"	n/a	n/a	n/a	n/a	n/a	n/a	"Trial"	n/a	n/a	n/a	"674"	"arrowdown"	n/a	"NULL"	"NULL"	"NULL"	"stimuli/MullerLyer_2.30000_-0.14541.png"	n/a	"MullerLyer"	"arrowdown"	"1478"	"TRUE"	"MullerLyer"	"2.3000000000"	"-0.145410000"	"1"	"36"
n/a	"html-keyboard-response"	"89"	"405048"	"0.0-5.0-2.0-0.18"	"7aqm1a"	"600"	"1366"	"chrome"	"110.0.0"	"FALSE"	"Windows 10"	"60.44"	"032"	n/a	n/a	n/a	n/a	n/a	n/a	"fixation"	n/a	n/a	n/a	n/a	"NULL"	n/a	"NULL"	"NULL"	"NULL"	"<p style=\"color: black; font-size: 80px; padding-left: 46%; padding-right: 33%; padding-top: 36%; padding-bottom: 33%\">+</p>"	"1487"	n/a	n/a	n/a	n/a	n/a	n/a	n/a	n/a	n/a
n/a	"image-keyboard-response"	"90"	"405497"	"0.0-5.0-2.0-1.18"	"7aqm1a"	"600"	"1366"	"chrome"	"110.0.0"	"FALSE"	"Windows 10"	"60.44"	"032"	n/a	n/a	n/a	n/a	n/a	n/a	"Trial"	n/a	n/a	n/a	"449"	"arrowup"	n/a	"NULL"	"NULL"	"NULL"	"stimuli/MullerLyer_-14.12857_0.35000.png"	n/a	"MullerLyer"	"arrowup"	"1494"	"TRUE"	"MullerLyer"	"-14.12857000"	"0.3500000000"	"1"	"37"
n/a	"html-keyboard-response"	"91"	"406916"	"0.0-5.0-2.0-0.19"	"7aqm1a"	"600"	"1366"	"chrome"	"110.0.0"	"FALSE"	"Windows 10"	"60.44"	"032"	n/a	n/a	n/a	n/a	n/a	n/a	"fixation"	n/a	n/a	n/a	n/a	"NULL"	n/a	"NULL"	"NULL"	"NULL"	"<p style=\"color: black; font-size: 80px; padding-left: 3%; padding-right: 2%; padding-top: 46%; padding-bottom: 30%\">+</p>"	"1404"	n/a	n/a	n/a	n/a	n/a	n/a	n/a	n/a	n/a
n/a	"image-keyboard-response"	"92"	"407409"	"0.0-5.0-2.0-1.19"	"7aqm1a"	"600"	"1366"	"chrome"	"110.0.0"	"FALSE"	"Windows 10"	"60.44"	"032"	n/a	n/a	n/a	n/a	n/a	n/a	"Trial"	n/a	n/a	n/a	"492"	"arrowdown"	n/a	"NULL"	"NULL"	"NULL"	"stimuli/MullerLyer_2.30000_0.14541.png"	n/a	"MullerLyer"	"arrowup"	"1419"	"FALSE"	"MullerLyer"	"2.3000000000"	"0.1454100000"	"1"	"38"
n/a	"html-keyboard-response"	"93"	"408698"	"0.0-5.0-2.0-0.20"	"7aqm1a"	"600"	"1366"	"chrome"	"110.0.0"	"FALSE"	"Windows 10"	"60.44"	"032"	n/a	n/a	n/a	n/a	n/a	n/a	"fixation"	n/a	n/a	n/a	n/a	"NULL"	n/a	"NULL"	"NULL"	"NULL"	"<p style=\"color: black; font-size: 80px; padding-left: 41%; padding-right: 31%; padding-top: 36%; padding-bottom: 37%\">+</p>"	"1281"	n/a	n/a	n/a	n/a	n/a	n/a	n/a	n/a	n/a
n/a	"image-keyboard-response"	"94"	"409097"	"0.0-5.0-2.0-1.20"	"7aqm1a"	"600"	"1366"	"chrome"	"110.0.0"	"FALSE"	"Windows 10"	"60.44"	"032"	n/a	n/a	n/a	n/a	n/a	n/a	"Trial"	n/a	n/a	n/a	"398"	"arrowup"	n/a	"NULL"	"NULL"	"NULL"	"stimuli/MullerLyer_20.04286_-0.3500.png"	n/a	"MullerLyer"	"arrowdown"	"1289"	"FALSE"	"MullerLyer"	"20.042860000"	"-0.350000000"	"1"	"39"
n/a	"html-keyboard-response"	"95"	"410105"	"0.0-5.0-2.0-0.21"	"7aqm1a"	"600"	"1366"	"chrome"	"110.0.0"	"FALSE"	"Windows 10"	"60.44"	"032"	n/a	n/a	n/a	n/a	n/a	n/a	"fixation"	n/a	n/a	n/a	n/a	"NULL"	n/a	"NULL"	"NULL"	"NULL"	"<p style=\"color: black; font-size: 80px; padding-left: 28%; padding-right: 8%; padding-top: 34%; padding-bottom: 30%\">+</p>"	"1001"	n/a	n/a	n/a	n/a	n/a	n/a	n/a	n/a	n/a
n/a	"image-keyboard-response"	"96"	"410614"	"0.0-5.0-2.0-1.21"	"7aqm1a"	"600"	"1366"	"chrome"	"110.0.0"	"FALSE"	"Windows 10"	"60.44"	"032"	n/a	n/a	n/a	n/a	n/a	n/a	"Trial"	n/a	n/a	n/a	"508"	"arrowdown"	n/a	"NULL"	"NULL"	"NULL"	"stimuli/MullerLyer_-2.3000_-0.3500.png"	n/a	"MullerLyer"	"arrowdown"	"1008"	"TRUE"	"MullerLyer"	"-2.300000000"	"-0.350000000"	"1"	"40"
n/a	"html-keyboard-response"	"97"	"411962"	"0.0-5.0-2.0-0.22"	"7aqm1a"	"600"	"1366"	"chrome"	"110.0.0"	"FALSE"	"Windows 10"	"60.44"	"032"	n/a	n/a	n/a	n/a	n/a	n/a	"fixation"	n/a	n/a	n/a	n/a	"NULL"	n/a	"NULL"	"NULL"	"NULL"	"<p style=\"color: black; font-size: 80px; padding-left: 26%; padding-right: 35%; padding-top: 42%; padding-bottom: 35%\">+</p>"	"1340"	n/a	n/a	n/a	n/a	n/a	n/a	n/a	n/a	n/a
n/a	"image-keyboard-response"	"98"	"412577"	"0.0-5.0-2.0-1.22"	"7aqm1a"	"600"	"1366"	"chrome"	"110.0.0"	"FALSE"	"Windows 10"	"60.44"	"032"	n/a	n/a	n/a	n/a	n/a	n/a	"Trial"	n/a	n/a	n/a	"615"	"arrowup"	n/a	"NULL"	"NULL"	"NULL"	"stimuli/MullerLyer_-20.04286_0.07627.png"	n/a	"MullerLyer"	"arrowup"	"1348"	"TRUE"	"MullerLyer"	"-20.04286000"	"0.0762700000"	"1"	"41"
n/a	"html-keyboard-response"	"99"	"413958"	"0.0-5.0-2.0-0.23"	"7aqm1a"	"600"	"1366"	"chrome"	"110.0.0"	"FALSE"	"Windows 10"	"60.44"	"032"	n/a	n/a	n/a	n/a	n/a	n/a	"fixation"	n/a	n/a	n/a	n/a	"NULL"	n/a	"NULL"	"NULL"	"NULL"	"<p style=\"color: black; font-size: 80px; padding-left: 27%; padding-right: 47%; padding-top: 3%; padding-bottom: 42%\">+</p>"	"1379"	n/a	n/a	n/a	n/a	n/a	n/a	n/a	n/a	n/a
n/a	"image-keyboard-response"	"100"	"414480"	"0.0-5.0-2.0-1.23"	"7aqm1a"	"600"	"1366"	"chrome"	"110.0.0"	"FALSE"	"Windows 10"	"60.44"	"032"	n/a	n/a	n/a	n/a	n/a	n/a	"Trial"	n/a	n/a	n/a	"521"	"arrowdown"	n/a	"NULL"	"NULL"	"NULL"	"stimuli/MullerLyer_8.21429_-0.23665.png"	n/a	"MullerLyer"	"arrowdown"	"1381"	"TRUE"	"MullerLyer"	"8.2142900000"	"-0.236650000"	"1"	"42"
n/a	"html-keyboard-response"	"101"	"415969"	"0.0-5.0-2.0-0.24"	"7aqm1a"	"600"	"1366"	"chrome"	"110.0.0"	"FALSE"	"Windows 10"	"60.44"	"032"	n/a	n/a	n/a	n/a	n/a	n/a	"fixation"	n/a	n/a	n/a	n/a	"NULL"	n/a	"NULL"	"NULL"	"NULL"	"<p style=\"color: black; font-size: 80px; padding-left: 37%; padding-right: 36%; padding-top: 28%; padding-bottom: 11%\">+</p>"	"1481"	n/a	n/a	n/a	n/a	n/a	n/a	n/a	n/a	n/a
n/a	"image-keyboard-response"	"102"	"416471"	"0.0-5.0-2.0-1.24"	"7aqm1a"	"600"	"1366"	"chrome"	"110.0.0"	"FALSE"	"Windows 10"	"60.44"	"032"	n/a	n/a	n/a	n/a	n/a	n/a	"Trial"	n/a	n/a	n/a	"501"	"arrowdown"	n/a	"NULL"	"NULL"	"NULL"	"stimuli/MullerLyer_14.12857_-0.3500.png"	n/a	"MullerLyer"	"arrowdown"	"1489"	"TRUE"	"MullerLyer"	"14.128570000"	"-0.350000000"	"1"	"43"
n/a	"html-keyboard-response"	"103"	"417685"	"0.0-5.0-2.0-0.25"	"7aqm1a"	"600"	"1366"	"chrome"	"110.0.0"	"FALSE"	"Windows 10"	"60.44"	"032"	n/a	n/a	n/a	n/a	n/a	n/a	"fixation"	n/a	n/a	n/a	n/a	"NULL"	n/a	"NULL"	"NULL"	"NULL"	"<p style=\"color: black; font-size: 80px; padding-left: 39%; padding-right: 8%; padding-top: 25%; padding-bottom: 30%\">+</p>"	"1204"	n/a	n/a	n/a	n/a	n/a	n/a	n/a	n/a	n/a
n/a	"image-keyboard-response"	"104"	"418051"	"0.0-5.0-2.0-1.25"	"7aqm1a"	"600"	"1366"	"chrome"	"110.0.0"	"FALSE"	"Windows 10"	"60.44"	"032"	n/a	n/a	n/a	n/a	n/a	n/a	"Trial"	n/a	n/a	n/a	"365"	"arrowdown"	n/a	"NULL"	"NULL"	"NULL"	"stimuli/MullerLyer_-8.21429_-0.07627.png"	n/a	"MullerLyer"	"arrowdown"	"1214"	"TRUE"	"MullerLyer"	"-8.214290000"	"-0.076270000"	"1"	"44"
n/a	"html-keyboard-response"	"105"	"419103"	"0.0-5.0-2.0-0.26"	"7aqm1a"	"600"	"1366"	"chrome"	"110.0.0"	"FALSE"	"Windows 10"	"60.44"	"032"	n/a	n/a	n/a	n/a	n/a	n/a	"fixation"	n/a	n/a	n/a	n/a	"NULL"	n/a	"NULL"	"NULL"	"NULL"	"<p style=\"color: black; font-size: 80px; padding-left: 44%; padding-right: 12%; padding-top: 15%; padding-bottom: 25%\">+</p>"	"1039"	n/a	n/a	n/a	n/a	n/a	n/a	n/a	n/a	n/a
n/a	"image-keyboard-response"	"106"	"419657"	"0.0-5.0-2.0-1.26"	"7aqm1a"	"600"	"1366"	"chrome"	"110.0.0"	"FALSE"	"Windows 10"	"60.44"	"032"	n/a	n/a	n/a	n/a	n/a	n/a	"Trial"	n/a	n/a	n/a	"554"	"arrowup"	n/a	"NULL"	"NULL"	"NULL"	"stimuli/MullerLyer_-8.21429_0.07627.png"	n/a	"MullerLyer"	"arrowup"	"1052"	"TRUE"	"MullerLyer"	"-8.214290000"	"0.0762700000"	"1"	"45"
n/a	"html-keyboard-response"	"107"	"420946"	"0.0-5.0-2.0-0.27"	"7aqm1a"	"600"	"1366"	"chrome"	"110.0.0"	"FALSE"	"Windows 10"	"60.44"	"032"	n/a	n/a	n/a	n/a	n/a	n/a	"fixation"	n/a	n/a	n/a	n/a	"NULL"	n/a	"NULL"	"NULL"	"NULL"	"<p style=\"color: black; font-size: 80px; padding-left: 35%; padding-right: 46%; padding-top: 47%; padding-bottom: 22%\">+</p>"	"1286"	n/a	n/a	n/a	n/a	n/a	n/a	n/a	n/a	n/a
n/a	"image-keyboard-response"	"108"	"421763"	"0.0-5.0-2.0-1.27"	"7aqm1a"	"600"	"1366"	"chrome"	"110.0.0"	"FALSE"	"Windows 10"	"60.44"	"032"	n/a	n/a	n/a	n/a	n/a	n/a	"Trial"	n/a	n/a	n/a	"816"	"arrowdown"	n/a	"NULL"	"NULL"	"NULL"	"stimuli/MullerLyer_14.12857_-0.14541.png"	n/a	"MullerLyer"	"arrowdown"	"1289"	"TRUE"	"MullerLyer"	"14.128570000"	"-0.145410000"	"1"	"46"
n/a	"html-keyboard-response"	"109"	"422901"	"0.0-5.0-2.0-0.28"	"7aqm1a"	"600"	"1366"	"chrome"	"110.0.0"	"FALSE"	"Windows 10"	"60.44"	"032"	n/a	n/a	n/a	n/a	n/a	n/a	"fixation"	n/a	n/a	n/a	n/a	"NULL"	n/a	"NULL"	"NULL"	"NULL"	"<p style=\"color: black; font-size: 80px; padding-left: 37%; padding-right: 7%; padding-top: 2%; padding-bottom: 31%\">+</p>"	"1122"	n/a	n/a	n/a	n/a	n/a	n/a	n/a	n/a	n/a
n/a	"image-keyboard-response"	"110"	"423494"	"0.0-5.0-2.0-1.28"	"7aqm1a"	"600"	"1366"	"chrome"	"110.0.0"	"FALSE"	"Windows 10"	"60.44"	"032"	n/a	n/a	n/a	n/a	n/a	n/a	"Trial"	n/a	n/a	n/a	"592"	"arrowdown"	n/a	"NULL"	"NULL"	"NULL"	"stimuli/MullerLyer_2.30000_-0.23665.png"	n/a	"MullerLyer"	"arrowdown"	"1138"	"TRUE"	"MullerLyer"	"2.3000000000"	"-0.236650000"	"1"	"47"
n/a	"html-keyboard-response"	"111"	"424571"	"0.0-5.0-2.0-0.29"	"7aqm1a"	"600"	"1366"	"chrome"	"110.0.0"	"FALSE"	"Windows 10"	"60.44"	"032"	n/a	n/a	n/a	n/a	n/a	n/a	"fixation"	n/a	n/a	n/a	n/a	"NULL"	n/a	"NULL"	"NULL"	"NULL"	"<p style=\"color: black; font-size: 80px; padding-left: 17%; padding-right: 38%; padding-top: 3%; padding-bottom: 47%\">+</p>"	"1075"	n/a	n/a	n/a	n/a	n/a	n/a	n/a	n/a	n/a
n/a	"image-keyboard-response"	"112"	"425167"	"0.0-5.0-2.0-1.29"	"7aqm1a"	"600"	"1366"	"chrome"	"110.0.0"	"FALSE"	"Windows 10"	"60.44"	"032"	n/a	n/a	n/a	n/a	n/a	n/a	"Trial"	n/a	n/a	n/a	"595"	"arrowdown"	n/a	"NULL"	"NULL"	"NULL"	"stimuli/MullerLyer_2.30000_0.07627.png"	n/a	"MullerLyer"	"arrowup"	"1077"	"FALSE"	"MullerLyer"	"2.3000000000"	"0.0762700000"	"1"	"48"
n/a	"html-keyboard-response"	"113"	"426246"	"0.0-5.0-2.0-0.30"	"7aqm1a"	"600"	"1366"	"chrome"	"110.0.0"	"FALSE"	"Windows 10"	"60.44"	"032"	n/a	n/a	n/a	n/a	n/a	n/a	"fixation"	n/a	n/a	n/a	n/a	"NULL"	n/a	"NULL"	"NULL"	"NULL"	"<p style=\"color: black; font-size: 80px; padding-left: 22%; padding-right: 24%; padding-top: 26%; padding-bottom: 6%\">+</p>"	"1068"	n/a	n/a	n/a	n/a	n/a	n/a	n/a	n/a	n/a
n/a	"image-keyboard-response"	"114"	"426732"	"0.0-5.0-2.0-1.30"	"7aqm1a"	"600"	"1366"	"chrome"	"110.0.0"	"FALSE"	"Windows 10"	"60.44"	"032"	n/a	n/a	n/a	n/a	n/a	n/a	"Trial"	n/a	n/a	n/a	"485"	"arrowup"	n/a	"NULL"	"NULL"	"NULL"	"stimuli/MullerLyer_14.12857_-0.07627.png"	n/a	"MullerLyer"	"arrowdown"	"1079"	"FALSE"	"MullerLyer"	"14.128570000"	"-0.076270000"	"1"	"49"
n/a	"html-keyboard-response"	"115"	"428106"	"0.0-5.0-2.0-0.31"	"7aqm1a"	"600"	"1366"	"chrome"	"110.0.0"	"FALSE"	"Windows 10"	"60.44"	"032"	n/a	n/a	n/a	n/a	n/a	n/a	"fixation"	n/a	n/a	n/a	n/a	"NULL"	n/a	"NULL"	"NULL"	"NULL"	"<p style=\"color: black; font-size: 80px; padding-left: 18%; padding-right: 42%; padding-top: 37%; padding-bottom: 9%\">+</p>"	"1362"	n/a	n/a	n/a	n/a	n/a	n/a	n/a	n/a	n/a
n/a	"image-keyboard-response"	"116"	"428631"	"0.0-5.0-2.0-1.31"	"7aqm1a"	"600"	"1366"	"chrome"	"110.0.0"	"FALSE"	"Windows 10"	"60.44"	"032"	n/a	n/a	n/a	n/a	n/a	n/a	"Trial"	n/a	n/a	n/a	"525"	"arrowdown"	n/a	"NULL"	"NULL"	"NULL"	"stimuli/MullerLyer_-8.21429_-0.3500.png"	n/a	"MullerLyer"	"arrowdown"	"1374"	"TRUE"	"MullerLyer"	"-8.214290000"	"-0.350000000"	"1"	"50"
n/a	"html-keyboard-response"	"117"	"429715"	"0.0-5.0-2.0-0.32"	"7aqm1a"	"600"	"1366"	"chrome"	"110.0.0"	"FALSE"	"Windows 10"	"60.44"	"032"	n/a	n/a	n/a	n/a	n/a	n/a	"fixation"	n/a	n/a	n/a	n/a	"NULL"	n/a	"NULL"	"NULL"	"NULL"	"<p style=\"color: black; font-size: 80px; padding-left: 9%; padding-right: 26%; padding-top: 30%; padding-bottom: 17%\">+</p>"	"1071"	n/a	n/a	n/a	n/a	n/a	n/a	n/a	n/a	n/a
n/a	"image-keyboard-response"	"118"	"430277"	"0.0-5.0-2.0-1.32"	"7aqm1a"	"600"	"1366"	"chrome"	"110.0.0"	"FALSE"	"Windows 10"	"60.44"	"032"	n/a	n/a	n/a	n/a	n/a	n/a	"Trial"	n/a	n/a	n/a	"561"	"arrowdown"	n/a	"NULL"	"NULL"	"NULL"	"stimuli/MullerLyer_8.21429_-0.3500.png"	n/a	"MullerLyer"	"arrowdown"	"1084"	"TRUE"	"MullerLyer"	"8.2142900000"	"-0.350000000"	"1"	"51"
n/a	"html-keyboard-response"	"119"	"431684"	"0.0-5.0-2.0-0.33"	"7aqm1a"	"600"	"1366"	"chrome"	"110.0.0"	"FALSE"	"Windows 10"	"60.44"	"032"	n/a	n/a	n/a	n/a	n/a	n/a	"fixation"	n/a	n/a	n/a	n/a	"NULL"	n/a	"NULL"	"NULL"	"NULL"	"<p style=\"color: black; font-size: 80px; padding-left: 11%; padding-right: 14%; padding-top: 36%; padding-bottom: 28%\">+</p>"	"1396"	n/a	n/a	n/a	n/a	n/a	n/a	n/a	n/a	n/a
n/a	"image-keyboard-response"	"120"	"432329"	"0.0-5.0-2.0-1.33"	"7aqm1a"	"600"	"1366"	"chrome"	"110.0.0"	"FALSE"	"Windows 10"	"60.44"	"032"	n/a	n/a	n/a	n/a	n/a	n/a	"Trial"	n/a	n/a	n/a	"644"	"arrowup"	n/a	"NULL"	"NULL"	"NULL"	"stimuli/MullerLyer_8.21429_0.35000.png"	n/a	"MullerLyer"	"arrowup"	"1407"	"TRUE"	"MullerLyer"	"8.2142900000"	"0.3500000000"	"1"	"52"
n/a	"html-keyboard-response"	"121"	"433462"	"0.0-5.0-2.0-0.34"	"7aqm1a"	"600"	"1366"	"chrome"	"110.0.0"	"FALSE"	"Windows 10"	"60.44"	"032"	n/a	n/a	n/a	n/a	n/a	n/a	"fixation"	n/a	n/a	n/a	n/a	"NULL"	n/a	"NULL"	"NULL"	"NULL"	"<p style=\"color: black; font-size: 80px; padding-left: 11%; padding-right: 9%; padding-top: 24%; padding-bottom: 16%\">+</p>"	"1130"	n/a	n/a	n/a	n/a	n/a	n/a	n/a	n/a	n/a
n/a	"image-keyboard-response"	"122"	"434002"	"0.0-5.0-2.0-1.34"	"7aqm1a"	"600"	"1366"	"chrome"	"110.0.0"	"FALSE"	"Windows 10"	"60.44"	"032"	n/a	n/a	n/a	n/a	n/a	n/a	"Trial"	n/a	n/a	n/a	"540"	"arrowdown"	n/a	"NULL"	"NULL"	"NULL"	"stimuli/MullerLyer_20.04286_0.07627.png"	n/a	"MullerLyer"	"arrowup"	"1133"	"FALSE"	"MullerLyer"	"20.042860000"	"0.0762700000"	"1"	"53"
n/a	"html-keyboard-response"	"123"	"435378"	"0.0-5.0-2.0-0.35"	"7aqm1a"	"600"	"1366"	"chrome"	"110.0.0"	"FALSE"	"Windows 10"	"60.44"	"032"	n/a	n/a	n/a	n/a	n/a	n/a	"fixation"	n/a	n/a	n/a	n/a	"NULL"	n/a	"NULL"	"NULL"	"NULL"	"<p style=\"color: black; font-size: 80px; padding-left: 19%; padding-right: 38%; padding-top: 35%; padding-bottom: 9%\">+</p>"	"1371"	n/a	n/a	n/a	n/a	n/a	n/a	n/a	n/a	n/a
n/a	"image-keyboard-response"	"124"	"435841"	"0.0-5.0-2.0-1.35"	"7aqm1a"	"600"	"1366"	"chrome"	"110.0.0"	"FALSE"	"Windows 10"	"60.44"	"032"	n/a	n/a	n/a	n/a	n/a	n/a	"Trial"	n/a	n/a	n/a	"462"	"arrowdown"	n/a	"NULL"	"NULL"	"NULL"	"stimuli/MullerLyer_2.30000_-0.3500.png"	n/a	"MullerLyer"	"arrowdown"	"1376"	"TRUE"	"MullerLyer"	"2.3000000000"	"-0.350000000"	"1"	"54"
n/a	"html-keyboard-response"	"125"	"437341"	"0.0-5.0-2.0-0.36"	"7aqm1a"	"600"	"1366"	"chrome"	"110.0.0"	"FALSE"	"Windows 10"	"60.44"	"032"	n/a	n/a	n/a	n/a	n/a	n/a	"fixation"	n/a	n/a	n/a	n/a	"NULL"	n/a	"NULL"	"NULL"	"NULL"	"<p style=\"color: black; font-size: 80px; padding-left: 22%; padding-right: 16%; padding-top: 50%; padding-bottom: 23%\">+</p>"	"1493"	n/a	n/a	n/a	n/a	n/a	n/a	n/a	n/a	n/a
n/a	"image-keyboard-response"	"126"	"437977"	"0.0-5.0-2.0-1.36"	"7aqm1a"	"600"	"1366"	"chrome"	"110.0.0"	"FALSE"	"Windows 10"	"60.44"	"032"	n/a	n/a	n/a	n/a	n/a	n/a	"Trial"	n/a	n/a	n/a	"636"	"arrowup"	n/a	"NULL"	"NULL"	"NULL"	"stimuli/MullerLyer_20.04286_-0.23665.png"	n/a	"MullerLyer"	"arrowdown"	"1500"	"FALSE"	"MullerLyer"	"20.042860000"	"-0.236650000"	"1"	"55"
n/a	"html-keyboard-response"	"127"	"439292"	"0.0-5.0-2.0-0.37"	"7aqm1a"	"600"	"1366"	"chrome"	"110.0.0"	"FALSE"	"Windows 10"	"60.44"	"032"	n/a	n/a	n/a	n/a	n/a	n/a	"fixation"	n/a	n/a	n/a	n/a	"NULL"	n/a	"NULL"	"NULL"	"NULL"	"<p style=\"color: black; font-size: 80px; padding-left: 15%; padding-right: 26%; padding-top: 49%; padding-bottom: 23%\">+</p>"	"1299"	n/a	n/a	n/a	n/a	n/a	n/a	n/a	n/a	n/a
n/a	"image-keyboard-response"	"128"	"439777"	"0.0-5.0-2.0-1.37"	"7aqm1a"	"600"	"1366"	"chrome"	"110.0.0"	"FALSE"	"Windows 10"	"60.44"	"032"	n/a	n/a	n/a	n/a	n/a	n/a	"Trial"	n/a	n/a	n/a	"484"	"arrowdown"	n/a	"NULL"	"NULL"	"NULL"	"stimuli/MullerLyer_-20.04286_-0.3500.png"	n/a	"MullerLyer"	"arrowdown"	"1315"	"TRUE"	"MullerLyer"	"-20.04286000"	"-0.350000000"	"1"	"56"
n/a	"html-keyboard-response"	"129"	"440980"	"0.0-5.0-2.0-0.38"	"7aqm1a"	"600"	"1366"	"chrome"	"110.0.0"	"FALSE"	"Windows 10"	"60.44"	"032"	n/a	n/a	n/a	n/a	n/a	n/a	"fixation"	n/a	n/a	n/a	n/a	"NULL"	n/a	"NULL"	"NULL"	"NULL"	"<p style=\"color: black; font-size: 80px; padding-left: 9%; padding-right: 34%; padding-top: 34%; padding-bottom: 6%\">+</p>"	"1189"	n/a	n/a	n/a	n/a	n/a	n/a	n/a	n/a	n/a
n/a	"image-keyboard-response"	"130"	"441559"	"0.0-5.0-2.0-1.38"	"7aqm1a"	"600"	"1366"	"chrome"	"110.0.0"	"FALSE"	"Windows 10"	"60.44"	"032"	n/a	n/a	n/a	n/a	n/a	n/a	"Trial"	n/a	n/a	n/a	"578"	"arrowup"	n/a	"NULL"	"NULL"	"NULL"	"stimuli/MullerLyer_8.21429_-0.07627.png"	n/a	"MullerLyer"	"arrowdown"	"1203"	"FALSE"	"MullerLyer"	"8.2142900000"	"-0.076270000"	"1"	"57"
n/a	"html-keyboard-response"	"131"	"443058"	"0.0-5.0-2.0-0.39"	"7aqm1a"	"600"	"1366"	"chrome"	"110.0.0"	"FALSE"	"Windows 10"	"60.44"	"032"	n/a	n/a	n/a	n/a	n/a	n/a	"fixation"	n/a	n/a	n/a	n/a	"NULL"	n/a	"NULL"	"NULL"	"NULL"	"<p style=\"color: black; font-size: 80px; padding-left: 40%; padding-right: 30%; padding-top: 49%; padding-bottom: 0%\">+</p>"	"1488"	n/a	n/a	n/a	n/a	n/a	n/a	n/a	n/a	n/a
n/a	"image-keyboard-response"	"132"	"443681"	"0.0-5.0-2.0-1.39"	"7aqm1a"	"600"	"1366"	"chrome"	"110.0.0"	"FALSE"	"Windows 10"	"60.44"	"032"	n/a	n/a	n/a	n/a	n/a	n/a	"Trial"	n/a	n/a	n/a	"622"	"arrowup"	n/a	"NULL"	"NULL"	"NULL"	"stimuli/MullerLyer_-8.21429_0.14541.png"	n/a	"MullerLyer"	"arrowup"	"1499"	"TRUE"	"MullerLyer"	"-8.214290000"	"0.1454100000"	"1"	"58"
n/a	"html-keyboard-response"	"133"	"445003"	"0.0-5.0-2.0-0.40"	"7aqm1a"	"600"	"1366"	"chrome"	"110.0.0"	"FALSE"	"Windows 10"	"60.44"	"032"	n/a	n/a	n/a	n/a	n/a	n/a	"fixation"	n/a	n/a	n/a	n/a	"NULL"	n/a	"NULL"	"NULL"	"NULL"	"<p style=\"color: black; font-size: 80px; padding-left: 7%; padding-right: 14%; padding-top: 49%; padding-bottom: 31%\">+</p>"	"1315"	n/a	n/a	n/a	n/a	n/a	n/a	n/a	n/a	n/a
n/a	"image-keyboard-response"	"134"	"445513"	"0.0-5.0-2.0-1.40"	"7aqm1a"	"600"	"1366"	"chrome"	"110.0.0"	"FALSE"	"Windows 10"	"60.44"	"032"	n/a	n/a	n/a	n/a	n/a	n/a	"Trial"	n/a	n/a	n/a	"509"	"arrowdown"	n/a	"NULL"	"NULL"	"NULL"	"stimuli/MullerLyer_-20.04286_-0.14541.png"	n/a	"MullerLyer"	"arrowdown"	"1322"	"TRUE"	"MullerLyer"	"-20.04286000"	"-0.145410000"	"1"	"59"
n/a	"html-keyboard-response"	"135"	"446531"	"0.0-5.0-2.0-0.41"	"7aqm1a"	"600"	"1366"	"chrome"	"110.0.0"	"FALSE"	"Windows 10"	"60.44"	"032"	n/a	n/a	n/a	n/a	n/a	n/a	"fixation"	n/a	n/a	n/a	n/a	"NULL"	n/a	"NULL"	"NULL"	"NULL"	"<p style=\"color: black; font-size: 80px; padding-left: 5%; padding-right: 17%; padding-top: 35%; padding-bottom: 9%\">+</p>"	"1017"	n/a	n/a	n/a	n/a	n/a	n/a	n/a	n/a	n/a
n/a	"image-keyboard-response"	"136"	"446975"	"0.0-5.0-2.0-1.41"	"7aqm1a"	"600"	"1366"	"chrome"	"110.0.0"	"FALSE"	"Windows 10"	"60.44"	"032"	n/a	n/a	n/a	n/a	n/a	n/a	"Trial"	n/a	n/a	n/a	"443"	"arrowdown"	n/a	"NULL"	"NULL"	"NULL"	"stimuli/MullerLyer_-2.3000_-0.23665.png"	n/a	"MullerLyer"	"arrowdown"	"1018"	"TRUE"	"MullerLyer"	"-2.300000000"	"-0.236650000"	"1"	"60"
n/a	"html-keyboard-response"	"137"	"448199"	"0.0-5.0-2.0-0.42"	"7aqm1a"	"600"	"1366"	"chrome"	"110.0.0"	"FALSE"	"Windows 10"	"60.44"	"032"	n/a	n/a	n/a	n/a	n/a	n/a	"fixation"	n/a	n/a	n/a	n/a	"NULL"	n/a	"NULL"	"NULL"	"NULL"	"<p style=\"color: black; font-size: 80px; padding-left: 20%; padding-right: 43%; padding-top: 4%; padding-bottom: 46%\">+</p>"	"1216"	n/a	n/a	n/a	n/a	n/a	n/a	n/a	n/a	n/a
n/a	"image-keyboard-response"	"138"	"448645"	"0.0-5.0-2.0-1.42"	"7aqm1a"	"600"	"1366"	"chrome"	"110.0.0"	"FALSE"	"Windows 10"	"60.44"	"032"	n/a	n/a	n/a	n/a	n/a	n/a	"Trial"	n/a	n/a	n/a	"445"	"arrowdown"	n/a	"NULL"	"NULL"	"NULL"	"stimuli/MullerLyer_14.12857_0.14541.png"	n/a	"MullerLyer"	"arrowup"	"1224"	"FALSE"	"MullerLyer"	"14.128570000"	"0.1454100000"	"1"	"61"
n/a	"html-keyboard-response"	"139"	"449964"	"0.0-5.0-2.0-0.43"	"7aqm1a"	"600"	"1366"	"chrome"	"110.0.0"	"FALSE"	"Windows 10"	"60.44"	"032"	n/a	n/a	n/a	n/a	n/a	n/a	"fixation"	n/a	n/a	n/a	n/a	"NULL"	n/a	"NULL"	"NULL"	"NULL"	"<p style=\"color: black; font-size: 80px; padding-left: 7%; padding-right: 3%; padding-top: 39%; padding-bottom: 31%\">+</p>"	"1308"	n/a	n/a	n/a	n/a	n/a	n/a	n/a	n/a	n/a
n/a	"image-keyboard-response"	"140"	"450449"	"0.0-5.0-2.0-1.43"	"7aqm1a"	"600"	"1366"	"chrome"	"110.0.0"	"FALSE"	"Windows 10"	"60.44"	"032"	n/a	n/a	n/a	n/a	n/a	n/a	"Trial"	n/a	n/a	n/a	"484"	"arrowup"	n/a	"NULL"	"NULL"	"NULL"	"stimuli/MullerLyer_-14.12857_0.14541.png"	n/a	"MullerLyer"	"arrowup"	"1319"	"TRUE"	"MullerLyer"	"-14.12857000"	"0.1454100000"	"1"	"62"
n/a	"html-keyboard-response"	"141"	"451809"	"0.0-5.0-2.0-0.44"	"7aqm1a"	"600"	"1366"	"chrome"	"110.0.0"	"FALSE"	"Windows 10"	"60.44"	"032"	n/a	n/a	n/a	n/a	n/a	n/a	"fixation"	n/a	n/a	n/a	n/a	"NULL"	n/a	"NULL"	"NULL"	"NULL"	"<p style=\"color: black; font-size: 80px; padding-left: 10%; padding-right: 12%; padding-top: 2%; padding-bottom: 9%\">+</p>"	"1352"	n/a	n/a	n/a	n/a	n/a	n/a	n/a	n/a	n/a
n/a	"image-keyboard-response"	"142"	"452338"	"0.0-5.0-2.0-1.44"	"7aqm1a"	"600"	"1366"	"chrome"	"110.0.0"	"FALSE"	"Windows 10"	"60.44"	"032"	n/a	n/a	n/a	n/a	n/a	n/a	"Trial"	n/a	n/a	n/a	"528"	"arrowdown"	n/a	"NULL"	"NULL"	"NULL"	"stimuli/MullerLyer_-14.12857_-0.3500.png"	n/a	"MullerLyer"	"arrowdown"	"1360"	"TRUE"	"MullerLyer"	"-14.12857000"	"-0.350000000"	"1"	"63"
n/a	"html-keyboard-response"	"143"	"453511"	"0.0-5.0-2.0-0.45"	"7aqm1a"	"600"	"1366"	"chrome"	"110.0.0"	"FALSE"	"Windows 10"	"60.44"	"032"	n/a	n/a	n/a	n/a	n/a	n/a	"fixation"	n/a	n/a	n/a	n/a	"NULL"	n/a	"NULL"	"NULL"	"NULL"	"<p style=\"color: black; font-size: 80px; padding-left: 25%; padding-right: 34%; padding-top: 41%; padding-bottom: 44%\">+</p>"	"1166"	n/a	n/a	n/a	n/a	n/a	n/a	n/a	n/a	n/a
n/a	"image-keyboard-response"	"144"	"454096"	"0.0-5.0-2.0-1.45"	"7aqm1a"	"600"	"1366"	"chrome"	"110.0.0"	"FALSE"	"Windows 10"	"60.44"	"032"	n/a	n/a	n/a	n/a	n/a	n/a	"Trial"	n/a	n/a	n/a	"584"	"arrowup"	n/a	"NULL"	"NULL"	"NULL"	"stimuli/MullerLyer_20.04286_-0.14541.png"	n/a	"MullerLyer"	"arrowdown"	"1173"	"FALSE"	"MullerLyer"	"20.042860000"	"-0.145410000"	"1"	"64"
n/a	"html-keyboard-response"	"145"	"455595"	"0.0-5.0-2.0-0.46"	"7aqm1a"	"600"	"1366"	"chrome"	"110.0.0"	"FALSE"	"Windows 10"	"60.44"	"032"	n/a	n/a	n/a	n/a	n/a	n/a	"fixation"	n/a	n/a	n/a	n/a	"NULL"	n/a	"NULL"	"NULL"	"NULL"	"<p style=\"color: black; font-size: 80px; padding-left: 3%; padding-right: 41%; padding-top: 31%; padding-bottom: 10%\">+</p>"	"1487"	n/a	n/a	n/a	n/a	n/a	n/a	n/a	n/a	n/a
n/a	"image-keyboard-response"	"146"	"456120"	"0.0-5.0-2.0-1.46"	"7aqm1a"	"600"	"1366"	"chrome"	"110.0.0"	"FALSE"	"Windows 10"	"60.44"	"032"	n/a	n/a	n/a	n/a	n/a	n/a	"Trial"	n/a	n/a	n/a	"523"	"arrowup"	n/a	"NULL"	"NULL"	"NULL"	"stimuli/MullerLyer_-8.21429_0.35000.png"	n/a	"MullerLyer"	"arrowup"	"1499"	"TRUE"	"MullerLyer"	"-8.214290000"	"0.3500000000"	"1"	"65"
n/a	"html-keyboard-response"	"147"	"457312"	"0.0-5.0-2.0-0.47"	"7aqm1a"	"600"	"1366"	"chrome"	"110.0.0"	"FALSE"	"Windows 10"	"60.44"	"032"	n/a	n/a	n/a	n/a	n/a	n/a	"fixation"	n/a	n/a	n/a	n/a	"NULL"	n/a	"NULL"	"NULL"	"NULL"	"<p style=\"color: black; font-size: 80px; padding-left: 46%; padding-right: 23%; padding-top: 38%; padding-bottom: 13%\">+</p>"	"1188"	n/a	n/a	n/a	n/a	n/a	n/a	n/a	n/a	n/a
n/a	"image-keyboard-response"	"148"	"457693"	"0.0-5.0-2.0-1.47"	"7aqm1a"	"600"	"1366"	"chrome"	"110.0.0"	"FALSE"	"Windows 10"	"60.44"	"032"	n/a	n/a	n/a	n/a	n/a	n/a	"Trial"	n/a	n/a	n/a	"380"	"arrowup"	n/a	"NULL"	"NULL"	"NULL"	"stimuli/MullerLyer_-2.3000_0.35000.png"	n/a	"MullerLyer"	"arrowup"	"1192"	"TRUE"	"MullerLyer"	"-2.300000000"	"0.3500000000"	"1"	"66"
n/a	"html-keyboard-response"	"149"	"459012"	"0.0-5.0-2.0-0.48"	"7aqm1a"	"600"	"1366"	"chrome"	"110.0.0"	"FALSE"	"Windows 10"	"60.44"	"032"	n/a	n/a	n/a	n/a	n/a	n/a	"fixation"	n/a	n/a	n/a	n/a	"NULL"	n/a	"NULL"	"NULL"	"NULL"	"<p style=\"color: black; font-size: 80px; padding-left: 2%; padding-right: 24%; padding-top: 22%; padding-bottom: 16%\">+</p>"	"1312"	n/a	n/a	n/a	n/a	n/a	n/a	n/a	n/a	n/a
n/a	"image-keyboard-response"	"150"	"459504"	"0.0-5.0-2.0-1.48"	"7aqm1a"	"600"	"1366"	"chrome"	"110.0.0"	"FALSE"	"Windows 10"	"60.44"	"032"	n/a	n/a	n/a	n/a	n/a	n/a	"Trial"	n/a	n/a	n/a	"491"	"arrowdown"	n/a	"NULL"	"NULL"	"NULL"	"stimuli/MullerLyer_-14.12857_-0.07627.png"	n/a	"MullerLyer"	"arrowdown"	"1319"	"TRUE"	"MullerLyer"	"-14.12857000"	"-0.076270000"	"1"	"67"
n/a	"html-keyboard-response"	"151"	"460998"	"0.0-5.0-2.0-0.49"	"7aqm1a"	"600"	"1366"	"chrome"	"110.0.0"	"FALSE"	"Windows 10"	"60.44"	"032"	n/a	n/a	n/a	n/a	n/a	n/a	"fixation"	n/a	n/a	n/a	n/a	"NULL"	n/a	"NULL"	"NULL"	"NULL"	"<p style=\"color: black; font-size: 80px; padding-left: 32%; padding-right: 48%; padding-top: 22%; padding-bottom: 48%\">+</p>"	"1492"	n/a	n/a	n/a	n/a	n/a	n/a	n/a	n/a	n/a
n/a	"image-keyboard-response"	"152"	"461532"	"0.0-5.0-2.0-1.49"	"7aqm1a"	"600"	"1366"	"chrome"	"110.0.0"	"FALSE"	"Windows 10"	"60.44"	"032"	n/a	n/a	n/a	n/a	n/a	n/a	"Trial"	n/a	n/a	n/a	"533"	"arrowup"	n/a	"NULL"	"NULL"	"NULL"	"stimuli/MullerLyer_2.30000_0.35000.png"	n/a	"MullerLyer"	"arrowup"	"1494"	"TRUE"	"MullerLyer"	"2.3000000000"	"0.3500000000"	"1"	"68"
n/a	"html-keyboard-response"	"153"	"462820"	"0.0-5.0-2.0-0.50"	"7aqm1a"	"600"	"1366"	"chrome"	"110.0.0"	"FALSE"	"Windows 10"	"60.44"	"032"	n/a	n/a	n/a	n/a	n/a	n/a	"fixation"	n/a	n/a	n/a	n/a	"NULL"	n/a	"NULL"	"NULL"	"NULL"	"<p style=\"color: black; font-size: 80px; padding-left: 33%; padding-right: 35%; padding-top: 0%; padding-bottom: 3%\">+</p>"	"1283"	n/a	n/a	n/a	n/a	n/a	n/a	n/a	n/a	n/a
n/a	"image-keyboard-response"	"154"	"463309"	"0.0-5.0-2.0-1.50"	"7aqm1a"	"600"	"1366"	"chrome"	"110.0.0"	"FALSE"	"Windows 10"	"60.44"	"032"	n/a	n/a	n/a	n/a	n/a	n/a	"Trial"	n/a	n/a	n/a	"488"	"arrowdown"	n/a	"NULL"	"NULL"	"NULL"	"stimuli/MullerLyer_14.12857_0.07627.png"	n/a	"MullerLyer"	"arrowup"	"1288"	"FALSE"	"MullerLyer"	"14.128570000"	"0.0762700000"	"1"	"69"
n/a	"html-keyboard-response"	"155"	"464425"	"0.0-5.0-2.0-0.51"	"7aqm1a"	"600"	"1366"	"chrome"	"110.0.0"	"FALSE"	"Windows 10"	"60.44"	"032"	n/a	n/a	n/a	n/a	n/a	n/a	"fixation"	n/a	n/a	n/a	n/a	"NULL"	n/a	"NULL"	"NULL"	"NULL"	"<p style=\"color: black; font-size: 80px; padding-left: 2%; padding-right: 11%; padding-top: 26%; padding-bottom: 36%\">+</p>"	"1105"	n/a	n/a	n/a	n/a	n/a	n/a	n/a	n/a	n/a
n/a	"image-keyboard-response"	"156"	"465111"	"0.0-5.0-2.0-1.51"	"7aqm1a"	"600"	"1366"	"chrome"	"110.0.0"	"FALSE"	"Windows 10"	"60.44"	"032"	n/a	n/a	n/a	n/a	n/a	n/a	"Trial"	n/a	n/a	n/a	"685"	"arrowup"	n/a	"NULL"	"NULL"	"NULL"	"stimuli/MullerLyer_8.21429_0.23665.png"	n/a	"MullerLyer"	"arrowup"	"1116"	"TRUE"	"MullerLyer"	"8.2142900000"	"0.2366500000"	"1"	"70"
n/a	"html-keyboard-response"	"157"	"466249"	"0.0-5.0-2.0-0.52"	"7aqm1a"	"600"	"1366"	"chrome"	"110.0.0"	"FALSE"	"Windows 10"	"60.44"	"032"	n/a	n/a	n/a	n/a	n/a	n/a	"fixation"	n/a	n/a	n/a	n/a	"NULL"	n/a	"NULL"	"NULL"	"NULL"	"<p style=\"color: black; font-size: 80px; padding-left: 17%; padding-right: 41%; padding-top: 41%; padding-bottom: 20%\">+</p>"	"1127"	n/a	n/a	n/a	n/a	n/a	n/a	n/a	n/a	n/a
n/a	"image-keyboard-response"	"158"	"466872"	"0.0-5.0-2.0-1.52"	"7aqm1a"	"600"	"1366"	"chrome"	"110.0.0"	"FALSE"	"Windows 10"	"60.44"	"032"	n/a	n/a	n/a	n/a	n/a	n/a	"Trial"	n/a	n/a	n/a	"622"	"arrowdown"	n/a	"NULL"	"NULL"	"NULL"	"stimuli/MullerLyer_-20.04286_-0.07627.png"	n/a	"MullerLyer"	"arrowdown"	"1138"	"TRUE"	"MullerLyer"	"-20.04286000"	"-0.076270000"	"1"	"71"
n/a	"html-keyboard-response"	"159"	"468329"	"0.0-5.0-2.0-0.53"	"7aqm1a"	"600"	"1366"	"chrome"	"110.0.0"	"FALSE"	"Windows 10"	"60.44"	"032"	n/a	n/a	n/a	n/a	n/a	n/a	"fixation"	n/a	n/a	n/a	n/a	"NULL"	n/a	"NULL"	"NULL"	"NULL"	"<p style=\"color: black; font-size: 80px; padding-left: 45%; padding-right: 14%; padding-top: 40%; padding-bottom: 49%\">+</p>"	"1442"	n/a	n/a	n/a	n/a	n/a	n/a	n/a	n/a	n/a
n/a	"image-keyboard-response"	"160"	"468901"	"0.0-5.0-2.0-1.53"	"7aqm1a"	"600"	"1366"	"chrome"	"110.0.0"	"FALSE"	"Windows 10"	"60.44"	"032"	n/a	n/a	n/a	n/a	n/a	n/a	"Trial"	n/a	n/a	n/a	"571"	"arrowup"	n/a	"NULL"	"NULL"	"NULL"	"stimuli/MullerLyer_20.04286_0.35000.png"	n/a	"MullerLyer"	"arrowup"	"1457"	"TRUE"	"MullerLyer"	"20.042860000"	"0.3500000000"	"1"	"72"
n/a	"html-keyboard-response"	"161"	"470122"	"0.0-5.0-2.0-0.54"	"7aqm1a"	"600"	"1366"	"chrome"	"110.0.0"	"FALSE"	"Windows 10"	"60.44"	"032"	n/a	n/a	n/a	n/a	n/a	n/a	"fixation"	n/a	n/a	n/a	n/a	"NULL"	n/a	"NULL"	"NULL"	"NULL"	"<p style=\"color: black; font-size: 80px; padding-left: 50%; padding-right: 41%; padding-top: 27%; padding-bottom: 43%\">+</p>"	"1211"	n/a	n/a	n/a	n/a	n/a	n/a	n/a	n/a	n/a
n/a	"image-keyboard-response"	"162"	"470639"	"0.0-5.0-2.0-1.54"	"7aqm1a"	"600"	"1366"	"chrome"	"110.0.0"	"FALSE"	"Windows 10"	"60.44"	"032"	n/a	n/a	n/a	n/a	n/a	n/a	"Trial"	n/a	n/a	n/a	"516"	"arrowup"	n/a	"NULL"	"NULL"	"NULL"	"stimuli/MullerLyer_20.04286_-0.07627.png"	n/a	"MullerLyer"	"arrowdown"	"1221"	"FALSE"	"MullerLyer"	"20.042860000"	"-0.076270000"	"1"	"73"
n/a	"html-keyboard-response"	"163"	"471980"	"0.0-5.0-2.0-0.55"	"7aqm1a"	"600"	"1366"	"chrome"	"110.0.0"	"FALSE"	"Windows 10"	"60.44"	"032"	n/a	n/a	n/a	n/a	n/a	n/a	"fixation"	n/a	n/a	n/a	n/a	"NULL"	n/a	"NULL"	"NULL"	"NULL"	"<p style=\"color: black; font-size: 80px; padding-left: 4%; padding-right: 44%; padding-top: 5%; padding-bottom: 23%\">+</p>"	"1325"	n/a	n/a	n/a	n/a	n/a	n/a	n/a	n/a	n/a
n/a	"image-keyboard-response"	"164"	"472483"	"0.0-5.0-2.0-1.55"	"7aqm1a"	"600"	"1366"	"chrome"	"110.0.0"	"FALSE"	"Windows 10"	"60.44"	"032"	n/a	n/a	n/a	n/a	n/a	n/a	"Trial"	n/a	n/a	n/a	"503"	"arrowup"	n/a	"NULL"	"NULL"	"NULL"	"stimuli/MullerLyer_-20.04286_0.14541.png"	n/a	"MullerLyer"	"arrowup"	"1341"	"TRUE"	"MullerLyer"	"-20.04286000"	"0.1454100000"	"1"	"74"
n/a	"html-keyboard-response"	"165"	"473527"	"0.0-5.0-2.0-0.56"	"7aqm1a"	"600"	"1366"	"chrome"	"110.0.0"	"FALSE"	"Windows 10"	"60.44"	"032"	n/a	n/a	n/a	n/a	n/a	n/a	"fixation"	n/a	n/a	n/a	n/a	"NULL"	n/a	"NULL"	"NULL"	"NULL"	"<p style=\"color: black; font-size: 80px; padding-left: 18%; padding-right: 44%; padding-top: 8%; padding-bottom: 49%\">+</p>"	"1031"	n/a	n/a	n/a	n/a	n/a	n/a	n/a	n/a	n/a
n/a	"image-keyboard-response"	"166"	"474022"	"0.0-5.0-2.0-1.56"	"7aqm1a"	"600"	"1366"	"chrome"	"110.0.0"	"FALSE"	"Windows 10"	"60.44"	"032"	n/a	n/a	n/a	n/a	n/a	n/a	"Trial"	n/a	n/a	n/a	"494"	"arrowdown"	n/a	"NULL"	"NULL"	"NULL"	"stimuli/MullerLyer_-20.04286_-0.23665.png"	n/a	"MullerLyer"	"arrowdown"	"1044"	"TRUE"	"MullerLyer"	"-20.04286000"	"-0.236650000"	"1"	"75"
n/a	"html-keyboard-response"	"167"	"475262"	"0.0-5.0-2.0-0.57"	"7aqm1a"	"600"	"1366"	"chrome"	"110.0.0"	"FALSE"	"Windows 10"	"60.44"	"032"	n/a	n/a	n/a	n/a	n/a	n/a	"fixation"	n/a	n/a	n/a	n/a	"NULL"	n/a	"NULL"	"NULL"	"NULL"	"<p style=\"color: black; font-size: 80px; padding-left: 5%; padding-right: 9%; padding-top: 27%; padding-bottom: 38%\">+</p>"	"1227"	n/a	n/a	n/a	n/a	n/a	n/a	n/a	n/a	n/a
n/a	"image-keyboard-response"	"168"	"475731"	"0.0-5.0-2.0-1.57"	"7aqm1a"	"600"	"1366"	"chrome"	"110.0.0"	"FALSE"	"Windows 10"	"60.44"	"032"	n/a	n/a	n/a	n/a	n/a	n/a	"Trial"	n/a	n/a	n/a	"468"	"arrowup"	n/a	"NULL"	"NULL"	"NULL"	"stimuli/MullerLyer_-20.04286_0.35000.png"	n/a	"MullerLyer"	"arrowup"	"1240"	"TRUE"	"MullerLyer"	"-20.04286000"	"0.3500000000"	"1"	"76"
n/a	"html-keyboard-response"	"169"	"476842"	"0.0-5.0-2.0-0.58"	"7aqm1a"	"600"	"1366"	"chrome"	"110.0.0"	"FALSE"	"Windows 10"	"60.44"	"032"	n/a	n/a	n/a	n/a	n/a	n/a	"fixation"	n/a	n/a	n/a	n/a	"NULL"	n/a	"NULL"	"NULL"	"NULL"	"<p style=\"color: black; font-size: 80px; padding-left: 30%; padding-right: 5%; padding-top: 35%; padding-bottom: 43%\">+</p>"	"1106"	n/a	n/a	n/a	n/a	n/a	n/a	n/a	n/a	n/a
n/a	"image-keyboard-response"	"170"	"477389"	"0.0-5.0-2.0-1.58"	"7aqm1a"	"600"	"1366"	"chrome"	"110.0.0"	"FALSE"	"Windows 10"	"60.44"	"032"	n/a	n/a	n/a	n/a	n/a	n/a	"Trial"	n/a	n/a	n/a	"546"	"arrowdown"	n/a	"NULL"	"NULL"	"NULL"	"stimuli/MullerLyer_-2.3000_-0.07627.png"	n/a	"MullerLyer"	"arrowdown"	"1111"	"TRUE"	"MullerLyer"	"-2.300000000"	"-0.076270000"	"1"	"77"
n/a	"html-keyboard-response"	"171"	"478448"	"0.0-5.0-2.0-0.59"	"7aqm1a"	"600"	"1366"	"chrome"	"110.0.0"	"FALSE"	"Windows 10"	"60.44"	"032"	n/a	n/a	n/a	n/a	n/a	n/a	"fixation"	n/a	n/a	n/a	n/a	"NULL"	n/a	"NULL"	"NULL"	"NULL"	"<p style=\"color: black; font-size: 80px; padding-left: 46%; padding-right: 2%; padding-top: 44%; padding-bottom: 41%\">+</p>"	"1046"	n/a	n/a	n/a	n/a	n/a	n/a	n/a	n/a	n/a
n/a	"image-keyboard-response"	"172"	"478882"	"0.0-5.0-2.0-1.59"	"7aqm1a"	"600"	"1366"	"chrome"	"110.0.0"	"FALSE"	"Windows 10"	"60.44"	"032"	n/a	n/a	n/a	n/a	n/a	n/a	"Trial"	n/a	n/a	n/a	"433"	"arrowdown"	n/a	"NULL"	"NULL"	"NULL"	"stimuli/MullerLyer_-2.3000_0.14541.png"	n/a	"MullerLyer"	"arrowup"	"1059"	"FALSE"	"MullerLyer"	"-2.300000000"	"0.1454100000"	"1"	"78"
n/a	"html-keyboard-response"	"173"	"480279"	"0.0-5.0-2.0-0.60"	"7aqm1a"	"600"	"1366"	"chrome"	"110.0.0"	"FALSE"	"Windows 10"	"60.44"	"032"	n/a	n/a	n/a	n/a	n/a	n/a	"fixation"	n/a	n/a	n/a	n/a	"NULL"	n/a	"NULL"	"NULL"	"NULL"	"<p style=\"color: black; font-size: 80px; padding-left: 40%; padding-right: 39%; padding-top: 39%; padding-bottom: 11%\">+</p>"	"1381"	n/a	n/a	n/a	n/a	n/a	n/a	n/a	n/a	n/a
n/a	"image-keyboard-response"	"174"	"480855"	"0.0-5.0-2.0-1.60"	"7aqm1a"	"600"	"1366"	"chrome"	"110.0.0"	"FALSE"	"Windows 10"	"60.44"	"032"	n/a	n/a	n/a	n/a	n/a	n/a	"Trial"	n/a	n/a	n/a	"575"	"arrowdown"	n/a	"NULL"	"NULL"	"NULL"	"stimuli/MullerLyer_-8.21429_-0.23665.png"	n/a	"MullerLyer"	"arrowdown"	"1397"	"TRUE"	"MullerLyer"	"-8.214290000"	"-0.236650000"	"1"	"79"
n/a	"html-keyboard-response"	"175"	"482051"	"0.0-5.0-2.0-0.61"	"7aqm1a"	"600"	"1366"	"chrome"	"110.0.0"	"FALSE"	"Windows 10"	"60.44"	"032"	n/a	n/a	n/a	n/a	n/a	n/a	"fixation"	n/a	n/a	n/a	n/a	"NULL"	n/a	"NULL"	"NULL"	"NULL"	"<p style=\"color: black; font-size: 80px; padding-left: 41%; padding-right: 23%; padding-top: 17%; padding-bottom: 12%\">+</p>"	"1189"	n/a	n/a	n/a	n/a	n/a	n/a	n/a	n/a	n/a
n/a	"image-keyboard-response"	"176"	"482472"	"0.0-5.0-2.0-1.61"	"7aqm1a"	"600"	"1366"	"chrome"	"110.0.0"	"FALSE"	"Windows 10"	"60.44"	"032"	n/a	n/a	n/a	n/a	n/a	n/a	"Trial"	n/a	n/a	n/a	"420"	"arrowdown"	n/a	"NULL"	"NULL"	"NULL"	"stimuli/MullerLyer_-14.12857_-0.14541.png"	n/a	"MullerLyer"	"arrowdown"	"1196"	"TRUE"	"MullerLyer"	"-14.12857000"	"-0.145410000"	"1"	"80"
n/a	"html-keyboard-response"	"177"	"483639"	"0.0-5.0-2.0-0.62"	"7aqm1a"	"600"	"1366"	"chrome"	"110.0.0"	"FALSE"	"Windows 10"	"60.44"	"032"	n/a	n/a	n/a	n/a	n/a	n/a	"fixation"	n/a	n/a	n/a	n/a	"NULL"	n/a	"NULL"	"NULL"	"NULL"	"<p style=\"color: black; font-size: 80px; padding-left: 4%; padding-right: 25%; padding-top: 34%; padding-bottom: 14%\">+</p>"	"1156"	n/a	n/a	n/a	n/a	n/a	n/a	n/a	n/a	n/a
n/a	"image-keyboard-response"	"178"	"484169"	"0.0-5.0-2.0-1.62"	"7aqm1a"	"600"	"1366"	"chrome"	"110.0.0"	"FALSE"	"Windows 10"	"60.44"	"032"	n/a	n/a	n/a	n/a	n/a	n/a	"Trial"	n/a	n/a	n/a	"530"	"arrowup"	n/a	"NULL"	"NULL"	"NULL"	"stimuli/MullerLyer_-2.3000_0.23665.png"	n/a	"MullerLyer"	"arrowup"	"1167"	"TRUE"	"MullerLyer"	"-2.300000000"	"0.2366500000"	"1"	"81"
n/a	"html-keyboard-response"	"179"	"485556"	"0.0-5.0-2.0-0.63"	"7aqm1a"	"600"	"1366"	"chrome"	"110.0.0"	"FALSE"	"Windows 10"	"60.44"	"032"	n/a	n/a	n/a	n/a	n/a	n/a	"fixation"	n/a	n/a	n/a	n/a	"NULL"	n/a	"NULL"	"NULL"	"NULL"	"<p style=\"color: black; font-size: 80px; padding-left: 19%; padding-right: 14%; padding-top: 37%; padding-bottom: 46%\">+</p>"	"1374"	n/a	n/a	n/a	n/a	n/a	n/a	n/a	n/a	n/a
n/a	"image-keyboard-response"	"180"	"486053"	"0.0-5.0-2.0-1.63"	"7aqm1a"	"600"	"1366"	"chrome"	"110.0.0"	"FALSE"	"Windows 10"	"60.44"	"032"	n/a	n/a	n/a	n/a	n/a	n/a	"Trial"	n/a	n/a	n/a	"496"	"arrowup"	n/a	"NULL"	"NULL"	"NULL"	"stimuli/MullerLyer_2.30000_0.23665.png"	n/a	"MullerLyer"	"arrowup"	"1387"	"TRUE"	"MullerLyer"	"2.3000000000"	"0.2366500000"	"1"	"82"
n/a	"html-button-response"	"181"	"502116"	"0.0-5.0-3.0"	"7aqm1a"	"600"	"1366"	"chrome"	"110.0.0"	"FALSE"	"Windows 10"	"60.44"	"032"	n/a	n/a	n/a	n/a	n/a	n/a	"block_results"	n/a	n/a	n/a	"16061"	"0"	n/a	"NULL"	"NULL"	"NULL"	"<p>Your score for this illusion is <p style=\"color: black; font-size: 48px; font-weight: bold;\">78.9 %</p><hr><p>Can you do better in the next illusion?</p>"	n/a	n/a	n/a	n/a	n/a	n/a	n/a	n/a	n/a	n/a
"TRUE"	"preload"	"182"	"502265"	"0.0-6.0-0.0"	"7aqm1a"	"600"	"1366"	"chrome"	"110.0.0"	"FALSE"	"Windows 10"	"60.44"	"032"	n/a	n/a	n/a	n/a	n/a	n/a	n/a	n/a	n/a	n/a	n/a	"NULL"	"FALSE"	"list()"	"list()"	"list()"	n/a	n/a	n/a	n/a	n/a	n/a	n/a	n/a	n/a	n/a	n/a
n/a	"html-keyboard-response"	"183"	"508132"	"0.0-6.0-1.0"	"7aqm1a"	"600"	"1366"	"chrome"	"110.0.0"	"FALSE"	"Windows 10"	"60.44"	"032"	n/a	n/a	n/a	n/a	n/a	n/a	n/a	n/a	n/a	n/a	"5866"	"enter"	n/a	"NULL"	"NULL"	"NULL"	"<p><b>Part 2/6</b></p><p>In this part, two red circles will appear side by side on the screen.</p><p>Your task is to select which <b>red circle is bigger</b> in size as fast as you can, without making errors.</p><p>Don't get distracted by the surrounding black circles around the red circles!</p><p>Press <b>the LEFT or the RIGHT arrow</b> to indicate which is the bigger <b>red circle.</b></p><div style='float: center'><img src='materials/instructions/Ebbinghaus_Demo.png' height='300'></img><p><img src='utils/answer/answer_leftright_keyboard.PNG' height='150'></img></p><p class='small'>In this example, the correct answer is the <b>LEFT arrow</b>.</p></div><p>Are you ready? <b>Press ENTER to start</b></p>"	n/a	n/a	n/a	n/a	n/a	n/a	n/a	n/a	n/a	n/a
n/a	"html-keyboard-response"	"184"	"509815"	"0.0-6.0-2.0-0.0"	"7aqm1a"	"600"	"1366"	"chrome"	"110.0.0"	"FALSE"	"Windows 10"	"60.44"	"032"	n/a	n/a	n/a	n/a	n/a	n/a	"fixation"	n/a	n/a	n/a	n/a	"NULL"	n/a	"NULL"	"NULL"	"NULL"	"<p style=\"color: black; font-size: 80px; padding-left: 39%; padding-right: 34%; padding-top: 43%; padding-bottom: 25%\">+</p>"	"1169"	n/a	n/a	n/a	n/a	n/a	n/a	n/a	n/a	n/a
n/a	"image-keyboard-response"	"185"	"510688"	"0.0-6.0-2.0-1.0"	"7aqm1a"	"600"	"1366"	"chrome"	"110.0.0"	"FALSE"	"Windows 10"	"60.44"	"032"	n/a	n/a	n/a	n/a	n/a	n/a	"Trial"	n/a	n/a	n/a	"873"	"arrowright"	n/a	"NULL"	"NULL"	"NULL"	"stimuli/Ebbinghaus_-0.87143_-0.15857.png"	n/a	"Ebbinghaus"	"arrowright"	"1683"	"TRUE"	"Ebbinghaus"	"-0.871430000"	"-0.158570000"	"2"	"1"
n/a	"html-keyboard-response"	"186"	"511927"	"0.0-6.0-2.0-0.1"	"7aqm1a"	"600"	"1366"	"chrome"	"110.0.0"	"FALSE"	"Windows 10"	"60.44"	"032"	n/a	n/a	n/a	n/a	n/a	n/a	"fixation"	n/a	n/a	n/a	n/a	"NULL"	n/a	"NULL"	"NULL"	"NULL"	"<p style=\"color: black; font-size: 80px; padding-left: 39%; padding-right: 18%; padding-top: 37%; padding-bottom: 1%\">+</p>"	"1222"	n/a	n/a	n/a	n/a	n/a	n/a	n/a	n/a	n/a
n/a	"image-keyboard-response"	"187"	"512445"	"0.0-6.0-2.0-1.1"	"7aqm1a"	"600"	"1366"	"chrome"	"110.0.0"	"FALSE"	"Windows 10"	"60.44"	"032"	n/a	n/a	n/a	n/a	n/a	n/a	"Trial"	n/a	n/a	n/a	"518"	"arrowright"	n/a	"NULL"	"NULL"	"NULL"	"stimuli/Ebbinghaus_-0.1000_-0.15857.png"	n/a	"Ebbinghaus"	"arrowright"	"1239"	"TRUE"	"Ebbinghaus"	"-0.100000000"	"-0.158570000"	"2"	"2"
n/a	"html-keyboard-response"	"188"	"513765"	"0.0-6.0-2.0-0.2"	"7aqm1a"	"600"	"1366"	"chrome"	"110.0.0"	"FALSE"	"Windows 10"	"60.44"	"032"	n/a	n/a	n/a	n/a	n/a	n/a	"fixation"	n/a	n/a	n/a	n/a	"NULL"	n/a	"NULL"	"NULL"	"NULL"	"<p style=\"color: black; font-size: 80px; padding-left: 21%; padding-right: 12%; padding-top: 38%; padding-bottom: 9%\">+</p>"	"1314"	n/a	n/a	n/a	n/a	n/a	n/a	n/a	n/a	n/a
n/a	"image-keyboard-response"	"189"	"514273"	"0.0-6.0-2.0-1.2"	"7aqm1a"	"600"	"1366"	"chrome"	"110.0.0"	"FALSE"	"Windows 10"	"60.44"	"032"	n/a	n/a	n/a	n/a	n/a	n/a	"Trial"	n/a	n/a	n/a	"507"	"arrowright"	n/a	"NULL"	"NULL"	"NULL"	"stimuli/Ebbinghaus_-0.35714_-0.2150.png"	n/a	"Ebbinghaus"	"arrowright"	"1320"	"TRUE"	"Ebbinghaus"	"-0.357140000"	"-0.215000000"	"2"	"3"
n/a	"html-keyboard-response"	"190"	"515481"	"0.0-6.0-2.0-0.3"	"7aqm1a"	"600"	"1366"	"chrome"	"110.0.0"	"FALSE"	"Windows 10"	"60.44"	"032"	n/a	n/a	n/a	n/a	n/a	n/a	"fixation"	n/a	n/a	n/a	n/a	"NULL"	n/a	"NULL"	"NULL"	"NULL"	"<p style=\"color: black; font-size: 80px; padding-left: 28%; padding-right: 29%; padding-top: 45%; padding-bottom: 27%\">+</p>"	"1202"	n/a	n/a	n/a	n/a	n/a	n/a	n/a	n/a	n/a
n/a	"image-keyboard-response"	"191"	"515953"	"0.0-6.0-2.0-1.3"	"7aqm1a"	"600"	"1366"	"chrome"	"110.0.0"	"FALSE"	"Windows 10"	"60.44"	"032"	n/a	n/a	n/a	n/a	n/a	n/a	"Trial"	n/a	n/a	n/a	"472"	"arrowright"	n/a	"NULL"	"NULL"	"NULL"	"stimuli/Ebbinghaus_-0.1000_0.15857.png"	n/a	"Ebbinghaus"	"arrowleft"	"1208"	"FALSE"	"Ebbinghaus"	"-0.100000000"	"0.1585700000"	"2"	"4"
n/a	"html-keyboard-response"	"192"	"517004"	"0.0-6.0-2.0-0.4"	"7aqm1a"	"600"	"1366"	"chrome"	"110.0.0"	"FALSE"	"Windows 10"	"60.44"	"032"	n/a	n/a	n/a	n/a	n/a	n/a	"fixation"	n/a	n/a	n/a	n/a	"NULL"	n/a	"NULL"	"NULL"	"NULL"	"<p style=\"color: black; font-size: 80px; padding-left: 2%; padding-right: 25%; padding-top: 21%; padding-bottom: 35%\">+</p>"	"1041"	n/a	n/a	n/a	n/a	n/a	n/a	n/a	n/a	n/a
n/a	"image-keyboard-response"	"193"	"517651"	"0.0-6.0-2.0-1.4"	"7aqm1a"	"600"	"1366"	"chrome"	"110.0.0"	"FALSE"	"Windows 10"	"60.44"	"032"	n/a	n/a	n/a	n/a	n/a	n/a	"Trial"	n/a	n/a	n/a	"645"	"arrowleft"	n/a	"NULL"	"NULL"	"NULL"	"stimuli/Ebbinghaus_0.10000_0.11071.png"	n/a	"Ebbinghaus"	"arrowleft"	"1051"	"TRUE"	"Ebbinghaus"	"0.1000000000"	"0.1107100000"	"2"	"5"
n/a	"html-keyboard-response"	"194"	"518888"	"0.0-6.0-2.0-0.5"	"7aqm1a"	"600"	"1366"	"chrome"	"110.0.0"	"FALSE"	"Windows 10"	"60.44"	"032"	n/a	n/a	n/a	n/a	n/a	n/a	"fixation"	n/a	n/a	n/a	n/a	"NULL"	n/a	"NULL"	"NULL"	"NULL"	"<p style=\"color: black; font-size: 80px; padding-left: 5%; padding-right: 32%; padding-top: 7%; padding-bottom: 37%\">+</p>"	"1233"	n/a	n/a	n/a	n/a	n/a	n/a	n/a	n/a	n/a
n/a	"image-keyboard-response"	"195"	"519690"	"0.0-6.0-2.0-1.5"	"7aqm1a"	"600"	"1366"	"chrome"	"110.0.0"	"FALSE"	"Windows 10"	"60.44"	"032"	n/a	n/a	n/a	n/a	n/a	n/a	"Trial"	n/a	n/a	n/a	"801"	"arrowright"	n/a	"NULL"	"NULL"	"NULL"	"stimuli/Ebbinghaus_0.61429_0.11071.png"	n/a	"Ebbinghaus"	"arrowleft"	"1237"	"FALSE"	"Ebbinghaus"	"0.6142900000"	"0.1107100000"	"2"	"6"
n/a	"html-keyboard-response"	"196"	"521054"	"0.0-6.0-2.0-0.6"	"7aqm1a"	"600"	"1366"	"chrome"	"110.0.0"	"FALSE"	"Windows 10"	"60.44"	"032"	n/a	n/a	n/a	n/a	n/a	n/a	"fixation"	n/a	n/a	n/a	n/a	"NULL"	n/a	"NULL"	"NULL"	"NULL"	"<p style=\"color: black; font-size: 80px; padding-left: 25%; padding-right: 35%; padding-top: 20%; padding-bottom: 14%\">+</p>"	"1355"	n/a	n/a	n/a	n/a	n/a	n/a	n/a	n/a	n/a
n/a	"image-keyboard-response"	"197"	"521694"	"0.0-6.0-2.0-1.6"	"7aqm1a"	"600"	"1366"	"chrome"	"110.0.0"	"FALSE"	"Windows 10"	"60.44"	"032"	n/a	n/a	n/a	n/a	n/a	n/a	"Trial"	n/a	n/a	n/a	"639"	"arrowright"	n/a	"NULL"	"NULL"	"NULL"	"stimuli/Ebbinghaus_-0.1000_-0.2800.png"	n/a	"Ebbinghaus"	"arrowright"	"1364"	"TRUE"	"Ebbinghaus"	"-0.100000000"	"-0.280000000"	"2"	"7"
n/a	"html-keyboard-response"	"198"	"523001"	"0.0-6.0-2.0-0.7"	"7aqm1a"	"600"	"1366"	"chrome"	"110.0.0"	"FALSE"	"Windows 10"	"60.44"	"032"	n/a	n/a	n/a	n/a	n/a	n/a	"fixation"	n/a	n/a	n/a	n/a	"NULL"	n/a	"NULL"	"NULL"	"NULL"	"<p style=\"color: black; font-size: 80px; padding-left: 14%; padding-right: 28%; padding-top: 34%; padding-bottom: 30%\">+</p>"	"1302"	n/a	n/a	n/a	n/a	n/a	n/a	n/a	n/a	n/a
n/a	"image-keyboard-response"	"199"	"523657"	"0.0-6.0-2.0-1.7"	"7aqm1a"	"600"	"1366"	"chrome"	"110.0.0"	"FALSE"	"Windows 10"	"60.44"	"032"	n/a	n/a	n/a	n/a	n/a	n/a	"Trial"	n/a	n/a	n/a	"655"	"arrowleft"	n/a	"NULL"	"NULL"	"NULL"	"stimuli/Ebbinghaus_-0.61429_0.11071.png"	n/a	"Ebbinghaus"	"arrowleft"	"1307"	"TRUE"	"Ebbinghaus"	"-0.614290000"	"0.1107100000"	"2"	"8"
n/a	"html-keyboard-response"	"200"	"525058"	"0.0-6.0-2.0-0.8"	"7aqm1a"	"600"	"1366"	"chrome"	"110.0.0"	"FALSE"	"Windows 10"	"60.44"	"032"	n/a	n/a	n/a	n/a	n/a	n/a	"fixation"	n/a	n/a	n/a	n/a	"NULL"	n/a	"NULL"	"NULL"	"NULL"	"<p style=\"color: black; font-size: 80px; padding-left: 49%; padding-right: 12%; padding-top: 16%; padding-bottom: 30%\">+</p>"	"1395"	n/a	n/a	n/a	n/a	n/a	n/a	n/a	n/a	n/a
n/a	"image-keyboard-response"	"201"	"525611"	"0.0-6.0-2.0-1.8"	"7aqm1a"	"600"	"1366"	"chrome"	"110.0.0"	"FALSE"	"Windows 10"	"60.44"	"032"	n/a	n/a	n/a	n/a	n/a	n/a	"Trial"	n/a	n/a	n/a	"553"	"arrowleft"	n/a	"NULL"	"NULL"	"NULL"	"stimuli/Ebbinghaus_-0.87143_0.11071.png"	n/a	"Ebbinghaus"	"arrowleft"	"1401"	"TRUE"	"Ebbinghaus"	"-0.871430000"	"0.1107100000"	"2"	"9"
n/a	"html-keyboard-response"	"202"	"527013"	"0.0-6.0-2.0-0.9"	"7aqm1a"	"600"	"1366"	"chrome"	"110.0.0"	"FALSE"	"Windows 10"	"60.44"	"032"	n/a	n/a	n/a	n/a	n/a	n/a	"fixation"	n/a	n/a	n/a	n/a	"NULL"	n/a	"NULL"	"NULL"	"NULL"	"<p style=\"color: black; font-size: 80px; padding-left: 18%; padding-right: 10%; padding-top: 16%; padding-bottom: 39%\">+</p>"	"1395"	n/a	n/a	n/a	n/a	n/a	n/a	n/a	n/a	n/a
n/a	"image-keyboard-response"	"203"	"527528"	"0.0-6.0-2.0-1.9"	"7aqm1a"	"600"	"1366"	"chrome"	"110.0.0"	"FALSE"	"Windows 10"	"60.44"	"032"	n/a	n/a	n/a	n/a	n/a	n/a	"Trial"	n/a	n/a	n/a	"515"	"arrowleft"	n/a	"NULL"	"NULL"	"NULL"	"stimuli/Ebbinghaus_0.35714_0.11071.png"	n/a	"Ebbinghaus"	"arrowleft"	"1402"	"TRUE"	"Ebbinghaus"	"0.3571400000"	"0.1107100000"	"2"	"10"
n/a	"html-keyboard-response"	"204"	"528596"	"0.0-6.0-2.0-0.10"	"7aqm1a"	"600"	"1366"	"chrome"	"110.0.0"	"FALSE"	"Windows 10"	"60.44"	"032"	n/a	n/a	n/a	n/a	n/a	n/a	"fixation"	n/a	n/a	n/a	n/a	"NULL"	n/a	"NULL"	"NULL"	"NULL"	"<p style=\"color: black; font-size: 80px; padding-left: 17%; padding-right: 39%; padding-top: 6%; padding-bottom: 39%\">+</p>"	"1066"	n/a	n/a	n/a	n/a	n/a	n/a	n/a	n/a	n/a
n/a	"image-keyboard-response"	"205"	"529157"	"0.0-6.0-2.0-1.10"	"7aqm1a"	"600"	"1366"	"chrome"	"110.0.0"	"FALSE"	"Windows 10"	"60.44"	"032"	n/a	n/a	n/a	n/a	n/a	n/a	"Trial"	n/a	n/a	n/a	"561"	"arrowright"	n/a	"NULL"	"NULL"	"NULL"	"stimuli/Ebbinghaus_0.10000_0.28000.png"	n/a	"Ebbinghaus"	"arrowleft"	"1068"	"FALSE"	"Ebbinghaus"	"0.1000000000"	"0.2800000000"	"2"	"11"
n/a	"html-keyboard-response"	"206"	"530541"	"0.0-6.0-2.0-0.11"	"7aqm1a"	"600"	"1366"	"chrome"	"110.0.0"	"FALSE"	"Windows 10"	"60.44"	"032"	n/a	n/a	n/a	n/a	n/a	n/a	"fixation"	n/a	n/a	n/a	n/a	"NULL"	n/a	"NULL"	"NULL"	"NULL"	"<p style=\"color: black; font-size: 80px; padding-left: 47%; padding-right: 0%; padding-top: 24%; padding-bottom: 13%\">+</p>"	"1369"	n/a	n/a	n/a	n/a	n/a	n/a	n/a	n/a	n/a
n/a	"image-keyboard-response"	"207"	"530913"	"0.0-6.0-2.0-1.11"	"7aqm1a"	"600"	"1366"	"chrome"	"110.0.0"	"FALSE"	"Windows 10"	"60.44"	"032"	n/a	n/a	n/a	n/a	n/a	n/a	"Trial"	n/a	n/a	n/a	"372"	"arrowleft"	n/a	"NULL"	"NULL"	"NULL"	"stimuli/Ebbinghaus_0.61429_-0.11071.png"	n/a	"Ebbinghaus"	"arrowright"	"1384"	"FALSE"	"Ebbinghaus"	"0.6142900000"	"-0.110710000"	"2"	"12"
n/a	"html-keyboard-response"	"208"	"531975"	"0.0-6.0-2.0-0.12"	"7aqm1a"	"600"	"1366"	"chrome"	"110.0.0"	"FALSE"	"Windows 10"	"60.44"	"032"	n/a	n/a	n/a	n/a	n/a	n/a	"fixation"	n/a	n/a	n/a	n/a	"NULL"	n/a	"NULL"	"NULL"	"NULL"	"<p style=\"color: black; font-size: 80px; padding-left: 44%; padding-right: 20%; padding-top: 5%; padding-bottom: 20%\">+</p>"	"1059"	n/a	n/a	n/a	n/a	n/a	n/a	n/a	n/a	n/a
n/a	"image-keyboard-response"	"209"	"532471"	"0.0-6.0-2.0-1.12"	"7aqm1a"	"600"	"1366"	"chrome"	"110.0.0"	"FALSE"	"Windows 10"	"60.44"	"032"	n/a	n/a	n/a	n/a	n/a	n/a	"Trial"	n/a	n/a	n/a	"495"	"arrowright"	n/a	"NULL"	"NULL"	"NULL"	"stimuli/Ebbinghaus_0.61429_-0.15857.png"	n/a	"Ebbinghaus"	"arrowright"	"1062"	"TRUE"	"Ebbinghaus"	"0.6142900000"	"-0.158570000"	"2"	"13"
n/a	"html-keyboard-response"	"210"	"533495"	"0.0-6.0-2.0-0.13"	"7aqm1a"	"600"	"1366"	"chrome"	"110.0.0"	"FALSE"	"Windows 10"	"60.44"	"032"	n/a	n/a	n/a	n/a	n/a	n/a	"fixation"	n/a	n/a	n/a	n/a	"NULL"	n/a	"NULL"	"NULL"	"NULL"	"<p style=\"color: black; font-size: 80px; padding-left: 12%; padding-right: 31%; padding-top: 43%; padding-bottom: 30%\">+</p>"	"1011"	n/a	n/a	n/a	n/a	n/a	n/a	n/a	n/a	n/a
n/a	"image-keyboard-response"	"211"	"533911"	"0.0-6.0-2.0-1.13"	"7aqm1a"	"600"	"1366"	"chrome"	"110.0.0"	"FALSE"	"Windows 10"	"60.44"	"032"	n/a	n/a	n/a	n/a	n/a	n/a	"Trial"	n/a	n/a	n/a	"413"	"arrowright"	n/a	"NULL"	"NULL"	"NULL"	"stimuli/Ebbinghaus_-0.87143_-0.2800.png"	n/a	"Ebbinghaus"	"arrowright"	"1024"	"TRUE"	"Ebbinghaus"	"-0.871430000"	"-0.280000000"	"2"	"14"
n/a	"html-keyboard-response"	"212"	"535261"	"0.0-6.0-2.0-0.14"	"7aqm1a"	"600"	"1366"	"chrome"	"110.0.0"	"FALSE"	"Windows 10"	"60.44"	"032"	n/a	n/a	n/a	n/a	n/a	n/a	"fixation"	n/a	n/a	n/a	n/a	"NULL"	n/a	"NULL"	"NULL"	"NULL"	"<p style=\"color: black; font-size: 80px; padding-left: 23%; padding-right: 29%; padding-top: 13%; padding-bottom: 2%\">+</p>"	"1335"	n/a	n/a	n/a	n/a	n/a	n/a	n/a	n/a	n/a
n/a	"image-keyboard-response"	"213"	"535668"	"0.0-6.0-2.0-1.14"	"7aqm1a"	"600"	"1366"	"chrome"	"110.0.0"	"FALSE"	"Windows 10"	"60.44"	"032"	n/a	n/a	n/a	n/a	n/a	n/a	"Trial"	n/a	n/a	n/a	"407"	"arrowright"	n/a	"NULL"	"NULL"	"NULL"	"stimuli/Ebbinghaus_0.87143_-0.2150.png"	n/a	"Ebbinghaus"	"arrowright"	"1350"	"TRUE"	"Ebbinghaus"	"0.8714300000"	"-0.215000000"	"2"	"15"
n/a	"html-keyboard-response"	"214"	"537137"	"0.0-6.0-2.0-0.15"	"7aqm1a"	"600"	"1366"	"chrome"	"110.0.0"	"FALSE"	"Windows 10"	"60.44"	"032"	n/a	n/a	n/a	n/a	n/a	n/a	"fixation"	n/a	n/a	n/a	n/a	"NULL"	n/a	"NULL"	"NULL"	"NULL"	"<p style=\"color: black; font-size: 80px; padding-left: 49%; padding-right: 1%; padding-top: 16%; padding-bottom: 47%\">+</p>"	"1453"	n/a	n/a	n/a	n/a	n/a	n/a	n/a	n/a	n/a
n/a	"image-keyboard-response"	"215"	"537562"	"0.0-6.0-2.0-1.15"	"7aqm1a"	"600"	"1366"	"chrome"	"110.0.0"	"FALSE"	"Windows 10"	"60.44"	"032"	n/a	n/a	n/a	n/a	n/a	n/a	"Trial"	n/a	n/a	n/a	"424"	"arrowright"	n/a	"NULL"	"NULL"	"NULL"	"stimuli/Ebbinghaus_0.61429_-0.2150.png"	n/a	"Ebbinghaus"	"arrowright"	"1469"	"TRUE"	"Ebbinghaus"	"0.6142900000"	"-0.215000000"	"2"	"16"
n/a	"html-keyboard-response"	"216"	"538929"	"0.0-6.0-2.0-0.16"	"7aqm1a"	"600"	"1366"	"chrome"	"110.0.0"	"FALSE"	"Windows 10"	"60.44"	"032"	n/a	n/a	n/a	n/a	n/a	n/a	"fixation"	n/a	n/a	n/a	n/a	"NULL"	n/a	"NULL"	"NULL"	"NULL"	"<p style=\"color: black; font-size: 80px; padding-left: 19%; padding-right: 24%; padding-top: 39%; padding-bottom: 47%\">+</p>"	"1362"	n/a	n/a	n/a	n/a	n/a	n/a	n/a	n/a	n/a
n/a	"image-keyboard-response"	"217"	"539245"	"0.0-6.0-2.0-1.16"	"7aqm1a"	"600"	"1366"	"chrome"	"110.0.0"	"FALSE"	"Windows 10"	"60.44"	"032"	n/a	n/a	n/a	n/a	n/a	n/a	"Trial"	n/a	n/a	n/a	"316"	"arrowright"	n/a	"NULL"	"NULL"	"NULL"	"stimuli/Ebbinghaus_0.35714_-0.2800.png"	n/a	"Ebbinghaus"	"arrowright"	"1367"	"TRUE"	"Ebbinghaus"	"0.3571400000"	"-0.280000000"	"2"	"17"
n/a	"html-keyboard-response"	"218"	"540426"	"0.0-6.0-2.0-0.17"	"7aqm1a"	"600"	"1366"	"chrome"	"110.0.0"	"FALSE"	"Windows 10"	"60.44"	"032"	n/a	n/a	n/a	n/a	n/a	n/a	"fixation"	n/a	n/a	n/a	n/a	"NULL"	n/a	"NULL"	"NULL"	"NULL"	"<p style=\"color: black; font-size: 80px; padding-left: 14%; padding-right: 12%; padding-top: 4%; padding-bottom: 1%\">+</p>"	"1169"	n/a	n/a	n/a	n/a	n/a	n/a	n/a	n/a	n/a
n/a	"image-keyboard-response"	"219"	"540826"	"0.0-6.0-2.0-1.17"	"7aqm1a"	"600"	"1366"	"chrome"	"110.0.0"	"FALSE"	"Windows 10"	"60.44"	"032"	n/a	n/a	n/a	n/a	n/a	n/a	"Trial"	n/a	n/a	n/a	"399"	"arrowright"	n/a	"NULL"	"NULL"	"NULL"	"stimuli/Ebbinghaus_0.61429_0.21500.png"	n/a	"Ebbinghaus"	"arrowleft"	"1181"	"FALSE"	"Ebbinghaus"	"0.6142900000"	"0.2150000000"	"2"	"18"
n/a	"html-keyboard-response"	"220"	"542170"	"0.0-6.0-2.0-0.18"	"7aqm1a"	"600"	"1366"	"chrome"	"110.0.0"	"FALSE"	"Windows 10"	"60.44"	"032"	n/a	n/a	n/a	n/a	n/a	n/a	"fixation"	n/a	n/a	n/a	n/a	"NULL"	n/a	"NULL"	"NULL"	"NULL"	"<p style=\"color: black; font-size: 80px; padding-left: 34%; padding-right: 17%; padding-top: 23%; padding-bottom: 38%\">+</p>"	"1337"	n/a	n/a	n/a	n/a	n/a	n/a	n/a	n/a	n/a
n/a	"image-keyboard-response"	"221"	"542659"	"0.0-6.0-2.0-1.18"	"7aqm1a"	"600"	"1366"	"chrome"	"110.0.0"	"FALSE"	"Windows 10"	"60.44"	"032"	n/a	n/a	n/a	n/a	n/a	n/a	"Trial"	n/a	n/a	n/a	"487"	"arrowleft"	n/a	"NULL"	"NULL"	"NULL"	"stimuli/Ebbinghaus_-0.1000_0.21500.png"	n/a	"Ebbinghaus"	"arrowleft"	"1344"	"TRUE"	"Ebbinghaus"	"-0.100000000"	"0.2150000000"	"2"	"19"
n/a	"html-keyboard-response"	"222"	"544148"	"0.0-6.0-2.0-0.19"	"7aqm1a"	"600"	"1366"	"chrome"	"110.0.0"	"FALSE"	"Windows 10"	"60.44"	"032"	n/a	n/a	n/a	n/a	n/a	n/a	"fixation"	n/a	n/a	n/a	n/a	"NULL"	n/a	"NULL"	"NULL"	"NULL"	"<p style=\"color: black; font-size: 80px; padding-left: 7%; padding-right: 39%; padding-top: 42%; padding-bottom: 42%\">+</p>"	"1486"	n/a	n/a	n/a	n/a	n/a	n/a	n/a	n/a	n/a
n/a	"image-keyboard-response"	"223"	"544582"	"0.0-6.0-2.0-1.19"	"7aqm1a"	"600"	"1366"	"chrome"	"110.0.0"	"FALSE"	"Windows 10"	"60.44"	"032"	n/a	n/a	n/a	n/a	n/a	n/a	"Trial"	n/a	n/a	n/a	"433"	"arrowleft"	n/a	"NULL"	"NULL"	"NULL"	"stimuli/Ebbinghaus_0.87143_0.11071.png"	n/a	"Ebbinghaus"	"arrowleft"	"1489"	"TRUE"	"Ebbinghaus"	"0.8714300000"	"0.1107100000"	"2"	"20"
n/a	"html-keyboard-response"	"224"	"545992"	"0.0-6.0-2.0-0.20"	"7aqm1a"	"600"	"1366"	"chrome"	"110.0.0"	"FALSE"	"Windows 10"	"60.44"	"032"	n/a	n/a	n/a	n/a	n/a	n/a	"fixation"	n/a	n/a	n/a	n/a	"NULL"	n/a	"NULL"	"NULL"	"NULL"	"<p style=\"color: black; font-size: 80px; padding-left: 35%; padding-right: 6%; padding-top: 12%; padding-bottom: 14%\">+</p>"	"1401"	n/a	n/a	n/a	n/a	n/a	n/a	n/a	n/a	n/a
n/a	"image-keyboard-response"	"225"	"546598"	"0.0-6.0-2.0-1.20"	"7aqm1a"	"600"	"1366"	"chrome"	"110.0.0"	"FALSE"	"Windows 10"	"60.44"	"032"	n/a	n/a	n/a	n/a	n/a	n/a	"Trial"	n/a	n/a	n/a	"605"	"arrowleft"	n/a	"NULL"	"NULL"	"NULL"	"stimuli/Ebbinghaus_0.61429_0.15857.png"	n/a	"Ebbinghaus"	"arrowleft"	"1410"	"TRUE"	"Ebbinghaus"	"0.6142900000"	"0.1585700000"	"2"	"21"
n/a	"html-keyboard-response"	"226"	"547715"	"0.0-6.0-2.0-0.21"	"7aqm1a"	"600"	"1366"	"chrome"	"110.0.0"	"FALSE"	"Windows 10"	"60.44"	"032"	n/a	n/a	n/a	n/a	n/a	n/a	"fixation"	n/a	n/a	n/a	n/a	"NULL"	n/a	"NULL"	"NULL"	"NULL"	"<p style=\"color: black; font-size: 80px; padding-left: 41%; padding-right: 44%; padding-top: 44%; padding-bottom: 39%\">+</p>"	"1116"	n/a	n/a	n/a	n/a	n/a	n/a	n/a	n/a	n/a
n/a	"image-keyboard-response"	"227"	"548199"	"0.0-6.0-2.0-1.21"	"7aqm1a"	"600"	"1366"	"chrome"	"110.0.0"	"FALSE"	"Windows 10"	"60.44"	"032"	n/a	n/a	n/a	n/a	n/a	n/a	"Trial"	n/a	n/a	n/a	"483"	"arrowleft"	n/a	"NULL"	"NULL"	"NULL"	"stimuli/Ebbinghaus_-0.1000_-0.2150.png"	n/a	"Ebbinghaus"	"arrowright"	"1117"	"FALSE"	"Ebbinghaus"	"-0.100000000"	"-0.215000000"	"2"	"22"
n/a	"html-keyboard-response"	"228"	"549342"	"0.0-6.0-2.0-0.22"	"7aqm1a"	"600"	"1366"	"chrome"	"110.0.0"	"FALSE"	"Windows 10"	"60.44"	"032"	n/a	n/a	n/a	n/a	n/a	n/a	"fixation"	n/a	n/a	n/a	n/a	"NULL"	n/a	"NULL"	"NULL"	"NULL"	"<p style=\"color: black; font-size: 80px; padding-left: 17%; padding-right: 19%; padding-top: 34%; padding-bottom: 28%\">+</p>"	"1130"	n/a	n/a	n/a	n/a	n/a	n/a	n/a	n/a	n/a
n/a	"image-keyboard-response"	"229"	"549692"	"0.0-6.0-2.0-1.22"	"7aqm1a"	"600"	"1366"	"chrome"	"110.0.0"	"FALSE"	"Windows 10"	"60.44"	"032"	n/a	n/a	n/a	n/a	n/a	n/a	"Trial"	n/a	n/a	n/a	"349"	"arrowright"	n/a	"NULL"	"NULL"	"NULL"	"stimuli/Ebbinghaus_-0.35714_0.15857.png"	n/a	"Ebbinghaus"	"arrowleft"	"1143"	"FALSE"	"Ebbinghaus"	"-0.357140000"	"0.1585700000"	"2"	"23"
n/a	"html-keyboard-response"	"230"	"550775"	"0.0-6.0-2.0-0.23"	"7aqm1a"	"600"	"1366"	"chrome"	"110.0.0"	"FALSE"	"Windows 10"	"60.44"	"032"	n/a	n/a	n/a	n/a	n/a	n/a	"fixation"	n/a	n/a	n/a	n/a	"NULL"	n/a	"NULL"	"NULL"	"NULL"	"<p style=\"color: black; font-size: 80px; padding-left: 49%; padding-right: 44%; padding-top: 27%; padding-bottom: 31%\">+</p>"	"1082"	n/a	n/a	n/a	n/a	n/a	n/a	n/a	n/a	n/a
n/a	"image-keyboard-response"	"231"	"551253"	"0.0-6.0-2.0-1.23"	"7aqm1a"	"600"	"1366"	"chrome"	"110.0.0"	"FALSE"	"Windows 10"	"60.44"	"032"	n/a	n/a	n/a	n/a	n/a	n/a	"Trial"	n/a	n/a	n/a	"477"	"arrowright"	n/a	"NULL"	"NULL"	"NULL"	"stimuli/Ebbinghaus_0.35714_-0.11071.png"	n/a	"Ebbinghaus"	"arrowright"	"1083"	"TRUE"	"Ebbinghaus"	"0.3571400000"	"-0.110710000"	"2"	"24"
n/a	"html-keyboard-response"	"232"	"552678"	"0.0-6.0-2.0-0.24"	"7aqm1a"	"600"	"1366"	"chrome"	"110.0.0"	"FALSE"	"Windows 10"	"60.44"	"032"	n/a	n/a	n/a	n/a	n/a	n/a	"fixation"	n/a	n/a	n/a	n/a	"NULL"	n/a	"NULL"	"NULL"	"NULL"	"<p style=\"color: black; font-size: 80px; padding-left: 23%; padding-right: 42%; padding-top: 35%; padding-bottom: 26%\">+</p>"	"1414"	n/a	n/a	n/a	n/a	n/a	n/a	n/a	n/a	n/a
n/a	"image-keyboard-response"	"233"	"553225"	"0.0-6.0-2.0-1.24"	"7aqm1a"	"600"	"1366"	"chrome"	"110.0.0"	"FALSE"	"Windows 10"	"60.44"	"032"	n/a	n/a	n/a	n/a	n/a	n/a	"Trial"	n/a	n/a	n/a	"546"	"arrowright"	n/a	"NULL"	"NULL"	"NULL"	"stimuli/Ebbinghaus_0.87143_-0.15857.png"	n/a	"Ebbinghaus"	"arrowright"	"1425"	"TRUE"	"Ebbinghaus"	"0.8714300000"	"-0.158570000"	"2"	"25"
n/a	"html-keyboard-response"	"234"	"554271"	"0.0-6.0-2.0-0.25"	"7aqm1a"	"600"	"1366"	"chrome"	"110.0.0"	"FALSE"	"Windows 10"	"60.44"	"032"	n/a	n/a	n/a	n/a	n/a	n/a	"fixation"	n/a	n/a	n/a	n/a	"NULL"	n/a	"NULL"	"NULL"	"NULL"	"<p style=\"color: black; font-size: 80px; padding-left: 7%; padding-right: 15%; padding-top: 9%; padding-bottom: 44%\">+</p>"	"1031"	n/a	n/a	n/a	n/a	n/a	n/a	n/a	n/a	n/a
n/a	"image-keyboard-response"	"235"	"554830"	"0.0-6.0-2.0-1.25"	"7aqm1a"	"600"	"1366"	"chrome"	"110.0.0"	"FALSE"	"Windows 10"	"60.44"	"032"	n/a	n/a	n/a	n/a	n/a	n/a	"Trial"	n/a	n/a	n/a	"558"	"arrowright"	n/a	"NULL"	"NULL"	"NULL"	"stimuli/Ebbinghaus_-0.61429_-0.2150.png"	n/a	"Ebbinghaus"	"arrowright"	"1046"	"TRUE"	"Ebbinghaus"	"-0.614290000"	"-0.215000000"	"2"	"26"
n/a	"html-keyboard-response"	"236"	"555889"	"0.0-6.0-2.0-0.26"	"7aqm1a"	"600"	"1366"	"chrome"	"110.0.0"	"FALSE"	"Windows 10"	"60.44"	"032"	n/a	n/a	n/a	n/a	n/a	n/a	"fixation"	n/a	n/a	n/a	n/a	"NULL"	n/a	"NULL"	"NULL"	"NULL"	"<p style=\"color: black; font-size: 80px; padding-left: 18%; padding-right: 7%; padding-top: 43%; padding-bottom: 40%\">+</p>"	"1048"	n/a	n/a	n/a	n/a	n/a	n/a	n/a	n/a	n/a
n/a	"image-keyboard-response"	"237"	"556392"	"0.0-6.0-2.0-1.26"	"7aqm1a"	"600"	"1366"	"chrome"	"110.0.0"	"FALSE"	"Windows 10"	"60.44"	"032"	n/a	n/a	n/a	n/a	n/a	n/a	"Trial"	n/a	n/a	n/a	"503"	"arrowright"	n/a	"NULL"	"NULL"	"NULL"	"stimuli/Ebbinghaus_0.87143_-0.2800.png"	n/a	"Ebbinghaus"	"arrowright"	"1059"	"TRUE"	"Ebbinghaus"	"0.8714300000"	"-0.280000000"	"2"	"27"
n/a	"html-keyboard-response"	"238"	"557787"	"0.0-6.0-2.0-0.27"	"7aqm1a"	"600"	"1366"	"chrome"	"110.0.0"	"FALSE"	"Windows 10"	"60.44"	"032"	n/a	n/a	n/a	n/a	n/a	n/a	"fixation"	n/a	n/a	n/a	n/a	"NULL"	n/a	"NULL"	"NULL"	"NULL"	"<p style=\"color: black; font-size: 80px; padding-left: 14%; padding-right: 16%; padding-top: 35%; padding-bottom: 37%\">+</p>"	"1390"	n/a	n/a	n/a	n/a	n/a	n/a	n/a	n/a	n/a
n/a	"image-keyboard-response"	"239"	"558440"	"0.0-6.0-2.0-1.27"	"7aqm1a"	"600"	"1366"	"chrome"	"110.0.0"	"FALSE"	"Windows 10"	"60.44"	"032"	n/a	n/a	n/a	n/a	n/a	n/a	"Trial"	n/a	n/a	n/a	"653"	"arrowleft"	n/a	"NULL"	"NULL"	"NULL"	"stimuli/Ebbinghaus_-0.61429_0.15857.png"	n/a	"Ebbinghaus"	"arrowleft"	"1395"	"TRUE"	"Ebbinghaus"	"-0.614290000"	"0.1585700000"	"2"	"28"
n/a	"html-keyboard-response"	"240"	"559578"	"0.0-6.0-2.0-0.28"	"7aqm1a"	"600"	"1366"	"chrome"	"110.0.0"	"FALSE"	"Windows 10"	"60.44"	"032"	n/a	n/a	n/a	n/a	n/a	n/a	"fixation"	n/a	n/a	n/a	n/a	"NULL"	n/a	"NULL"	"NULL"	"NULL"	"<p style=\"color: black; font-size: 80px; padding-left: 44%; padding-right: 14%; padding-top: 10%; padding-bottom: 28%\">+</p>"	"1132"	n/a	n/a	n/a	n/a	n/a	n/a	n/a	n/a	n/a
n/a	"image-keyboard-response"	"241"	"559985"	"0.0-6.0-2.0-1.28"	"7aqm1a"	"600"	"1366"	"chrome"	"110.0.0"	"FALSE"	"Windows 10"	"60.44"	"032"	n/a	n/a	n/a	n/a	n/a	n/a	"Trial"	n/a	n/a	n/a	"407"	"arrowright"	n/a	"NULL"	"NULL"	"NULL"	"stimuli/Ebbinghaus_0.10000_-0.11071.png"	n/a	"Ebbinghaus"	"arrowright"	"1138"	"TRUE"	"Ebbinghaus"	"0.1000000000"	"-0.110710000"	"2"	"29"
n/a	"html-keyboard-response"	"242"	"561346"	"0.0-6.0-2.0-0.29"	"7aqm1a"	"600"	"1366"	"chrome"	"110.0.0"	"FALSE"	"Windows 10"	"60.44"	"032"	n/a	n/a	n/a	n/a	n/a	n/a	"fixation"	n/a	n/a	n/a	n/a	"NULL"	n/a	"NULL"	"NULL"	"NULL"	"<p style=\"color: black; font-size: 80px; padding-left: 45%; padding-right: 15%; padding-top: 33%; padding-bottom: 44%\">+</p>"	"1352"	n/a	n/a	n/a	n/a	n/a	n/a	n/a	n/a	n/a
n/a	"image-keyboard-response"	"243"	"561921"	"0.0-6.0-2.0-1.29"	"7aqm1a"	"600"	"1366"	"chrome"	"110.0.0"	"FALSE"	"Windows 10"	"60.44"	"032"	n/a	n/a	n/a	n/a	n/a	n/a	"Trial"	n/a	n/a	n/a	"575"	"arrowright"	n/a	"NULL"	"NULL"	"NULL"	"stimuli/Ebbinghaus_-0.35714_0.28000.png"	n/a	"Ebbinghaus"	"arrowleft"	"1361"	"FALSE"	"Ebbinghaus"	"-0.357140000"	"0.2800000000"	"2"	"30"
n/a	"html-keyboard-response"	"244"	"563018"	"0.0-6.0-2.0-0.30"	"7aqm1a"	"600"	"1366"	"chrome"	"110.0.0"	"FALSE"	"Windows 10"	"60.44"	"032"	n/a	n/a	n/a	n/a	n/a	n/a	"fixation"	n/a	n/a	n/a	n/a	"NULL"	n/a	"NULL"	"NULL"	"NULL"	"<p style=\"color: black; font-size: 80px; padding-left: 10%; padding-right: 7%; padding-top: 21%; padding-bottom: 31%\">+</p>"	"1085"	n/a	n/a	n/a	n/a	n/a	n/a	n/a	n/a	n/a
n/a	"image-keyboard-response"	"245"	"563501"	"0.0-6.0-2.0-1.30"	"7aqm1a"	"600"	"1366"	"chrome"	"110.0.0"	"FALSE"	"Windows 10"	"60.44"	"032"	n/a	n/a	n/a	n/a	n/a	n/a	"Trial"	n/a	n/a	n/a	"481"	"arrowleft"	n/a	"NULL"	"NULL"	"NULL"	"stimuli/Ebbinghaus_0.87143_0.28000.png"	n/a	"Ebbinghaus"	"arrowleft"	"1097"	"TRUE"	"Ebbinghaus"	"0.8714300000"	"0.2800000000"	"2"	"31"
n/a	"html-keyboard-response"	"246"	"564690"	"0.0-6.0-2.0-0.31"	"7aqm1a"	"600"	"1366"	"chrome"	"110.0.0"	"FALSE"	"Windows 10"	"60.44"	"032"	n/a	n/a	n/a	n/a	n/a	n/a	"fixation"	n/a	n/a	n/a	n/a	"NULL"	n/a	"NULL"	"NULL"	"NULL"	"<p style=\"color: black; font-size: 80px; padding-left: 14%; padding-right: 18%; padding-top: 44%; padding-bottom: 7%\">+</p>"	"1178"	n/a	n/a	n/a	n/a	n/a	n/a	n/a	n/a	n/a
n/a	"image-keyboard-response"	"247"	"565252"	"0.0-6.0-2.0-1.31"	"7aqm1a"	"600"	"1366"	"chrome"	"110.0.0"	"FALSE"	"Windows 10"	"60.44"	"032"	n/a	n/a	n/a	n/a	n/a	n/a	"Trial"	n/a	n/a	n/a	"561"	"arrowright"	n/a	"NULL"	"NULL"	"NULL"	"stimuli/Ebbinghaus_-0.35714_-0.15857.png"	n/a	"Ebbinghaus"	"arrowright"	"1189"	"TRUE"	"Ebbinghaus"	"-0.357140000"	"-0.158570000"	"2"	"32"
n/a	"html-keyboard-response"	"248"	"566506"	"0.0-6.0-2.0-0.32"	"7aqm1a"	"600"	"1366"	"chrome"	"110.0.0"	"FALSE"	"Windows 10"	"60.44"	"032"	n/a	n/a	n/a	n/a	n/a	n/a	"fixation"	n/a	n/a	n/a	n/a	"NULL"	n/a	"NULL"	"NULL"	"NULL"	"<p style=\"color: black; font-size: 80px; padding-left: 19%; padding-right: 18%; padding-top: 18%; padding-bottom: 11%\">+</p>"	"1241"	n/a	n/a	n/a	n/a	n/a	n/a	n/a	n/a	n/a
n/a	"image-keyboard-response"	"249"	"567013"	"0.0-6.0-2.0-1.32"	"7aqm1a"	"600"	"1366"	"chrome"	"110.0.0"	"FALSE"	"Windows 10"	"60.44"	"032"	n/a	n/a	n/a	n/a	n/a	n/a	"Trial"	n/a	n/a	n/a	"507"	"arrowright"	n/a	"NULL"	"NULL"	"NULL"	"stimuli/Ebbinghaus_-0.87143_-0.11071.png"	n/a	"Ebbinghaus"	"arrowright"	"1254"	"TRUE"	"Ebbinghaus"	"-0.871430000"	"-0.110710000"	"2"	"33"
n/a	"html-keyboard-response"	"250"	"568036"	"0.0-6.0-2.0-0.33"	"7aqm1a"	"600"	"1366"	"chrome"	"110.0.0"	"FALSE"	"Windows 10"	"60.44"	"032"	n/a	n/a	n/a	n/a	n/a	n/a	"fixation"	n/a	n/a	n/a	n/a	"NULL"	n/a	"NULL"	"NULL"	"NULL"	"<p style=\"color: black; font-size: 80px; padding-left: 23%; padding-right: 8%; padding-top: 38%; padding-bottom: 12%\">+</p>"	"1018"	n/a	n/a	n/a	n/a	n/a	n/a	n/a	n/a	n/a
n/a	"image-keyboard-response"	"251"	"568604"	"0.0-6.0-2.0-1.33"	"7aqm1a"	"600"	"1366"	"chrome"	"110.0.0"	"FALSE"	"Windows 10"	"60.44"	"032"	n/a	n/a	n/a	n/a	n/a	n/a	"Trial"	n/a	n/a	n/a	"567"	"arrowright"	n/a	"NULL"	"NULL"	"NULL"	"stimuli/Ebbinghaus_-0.61429_-0.11071.png"	n/a	"Ebbinghaus"	"arrowright"	"1023"	"TRUE"	"Ebbinghaus"	"-0.614290000"	"-0.110710000"	"2"	"34"
n/a	"html-keyboard-response"	"252"	"569754"	"0.0-6.0-2.0-0.34"	"7aqm1a"	"600"	"1366"	"chrome"	"110.0.0"	"FALSE"	"Windows 10"	"60.44"	"032"	n/a	n/a	n/a	n/a	n/a	n/a	"fixation"	n/a	n/a	n/a	n/a	"NULL"	n/a	"NULL"	"NULL"	"NULL"	"<p style=\"color: black; font-size: 80px; padding-left: 17%; padding-right: 6%; padding-top: 10%; padding-bottom: 37%\">+</p>"	"1137"	n/a	n/a	n/a	n/a	n/a	n/a	n/a	n/a	n/a
n/a	"image-keyboard-response"	"253"	"570421"	"0.0-6.0-2.0-1.34"	"7aqm1a"	"600"	"1366"	"chrome"	"110.0.0"	"FALSE"	"Windows 10"	"60.44"	"032"	n/a	n/a	n/a	n/a	n/a	n/a	"Trial"	n/a	n/a	n/a	"666"	"arrowleft"	n/a	"NULL"	"NULL"	"NULL"	"stimuli/Ebbinghaus_-0.87143_0.28000.png"	n/a	"Ebbinghaus"	"arrowleft"	"1150"	"TRUE"	"Ebbinghaus"	"-0.871430000"	"0.2800000000"	"2"	"35"
