"success"	"trial_type"	"trial_index"	"time_elapsed"	"internal_node_id"	"participant_id"	"screen_height"	"screen_width"	"browser"	"browser_version"	"mobile"	"os"	"vsync_rate"	"subject_id"	"width"	"height"	"webaudio"	"fullscreen"	"webcam"	"microphone"	"screen"	"version"	"date"	"time"	"rt"	"response"	"timeout"	"failed_images"	"failed_audio"	"failed_video"	"stimulus"	"trial_duration"	"block"	"correct_response"	"prestimulus_duration"	"correct"	"type"	"illusion_strength"	"illusion_difference"	"block_number"	"trial_number"
"TRUE"	"fullscreen"	"0"	"15157"	"0.0-0.0"	"vc776p"	"600"	"1366"	"chrome"	"109.0.0"	"FALSE"	"Windows 10"	"60.28"	"001"	n/a	n/a	n/a	n/a	n/a	n/a	n/a	n/a	n/a	n/a	n/a	"NULL"	n/a	"NULL"	"NULL"	"NULL"	n/a	n/a	n/a	n/a	n/a	n/a	n/a	n/a	n/a	n/a	n/a
n/a	"browser-check"	"1"	"16162"	"0.0-1.0"	"vc776p"	"600"	"1366"	"chrome"	"109.0.0"	"FALSE"	"Windows 10"	"60.28"	"001"	"1366"	"600"	"TRUE"	"TRUE"	"TRUE"	"TRUE"	"browser_info"	"1.0"	"18/01/2023"	"17:07:16"	n/a	"NULL"	n/a	"NULL"	"NULL"	"NULL"	n/a	n/a	n/a	n/a	n/a	n/a	n/a	n/a	n/a	n/a	n/a
n/a	"survey-text"	"2"	"29180"	"0.0-2.0"	"vc776p"	"600"	"1366"	"chrome"	"109.0.0"	"FALSE"	"Windows 10"	"60.28"	"001"	n/a	n/a	n/a	n/a	n/a	n/a	"subject_id"	n/a	n/a	n/a	"13014"	"list(subject_id = \"001\")"	n/a	"NULL"	"NULL"	"NULL"	n/a	n/a	n/a	n/a	n/a	n/a	n/a	n/a	n/a	n/a	n/a
"TRUE"	"preload"	"3"	"29186"	"0.0-3.0"	"vc776p"	"600"	"1366"	"chrome"	"109.0.0"	"FALSE"	"Windows 10"	"60.28"	"001"	n/a	n/a	n/a	n/a	n/a	n/a	n/a	n/a	n/a	n/a	n/a	"NULL"	"FALSE"	"list()"	"list()"	"list()"	n/a	n/a	n/a	n/a	n/a	n/a	n/a	n/a	n/a	n/a	n/a
n/a	"html-button-response"	"4"	"32500"	"0.0-4.0-0.0"	"vc776p"	"600"	"1366"	"chrome"	"109.0.0"	"FALSE"	"Windows 10"	"60.28"	"001"	n/a	n/a	n/a	n/a	n/a	n/a	"illusion_instructions"	n/a	n/a	n/a	"3313"	"0"	n/a	"NULL"	"NULL"	"NULL"	"<p><b>Illusion Game</b></p><p>In this game of speed and reflex, you will need to make <b>visual judgments</b> (for instance, which circle is the biggest, or which line is the longest), as fast and as correctly as possible, while <b>resisting different visual illusions</b>.</p><p>We are going to start with some examples of all the illusions you will encounter in the game.</p>"	n/a	n/a	n/a	n/a	n/a	n/a	n/a	n/a	n/a	n/a
"TRUE"	"preload"	"5"	"32509"	"0.0-4.0-1.0-0.0"	"vc776p"	"600"	"1366"	"chrome"	"109.0.0"	"FALSE"	"Windows 10"	"60.28"	"001"	n/a	n/a	n/a	n/a	n/a	n/a	n/a	n/a	n/a	n/a	n/a	"NULL"	"FALSE"	"list()"	"list()"	"list()"	n/a	n/a	n/a	n/a	n/a	n/a	n/a	n/a	n/a	n/a	n/a
n/a	"html-keyboard-response"	"6"	"43286"	"0.0-4.0-1.0-1.0"	"vc776p"	"600"	"1366"	"chrome"	"109.0.0"	"FALSE"	"Windows 10"	"60.28"	"001"	n/a	n/a	n/a	n/a	n/a	n/a	n/a	n/a	n/a	n/a	"10776"	"enter"	n/a	"NULL"	"NULL"	"NULL"	"<p><b>Practice</b></p><p>In this part, two red circles will appear side by side on the screen.</p><p>Your task is to select which <b>red circle is bigger</b> in size as fast as you can, without making errors.</p><p>Don't get distracted by the surrounding black circles around the red circles!</p><p>Press <b>the LEFT or the RIGHT arrow</b> to indicate which is the bigger <b>red circle.</b></p><div style='float: center'><img src='materials/instructions/Ebbinghaus_Demo.png' height='300'></img><p><img src='utils/answer/answer_leftright_keyboard.PNG' height='150'></img></p><p class='small'>In this example, the correct answer is the <b>LEFT arrow</b>.</p></div><p>Are you ready? <b>Press ENTER to start</b></p>"	n/a	n/a	n/a	n/a	n/a	n/a	n/a	n/a	n/a	n/a
n/a	"html-keyboard-response"	"7"	"45100"	"0.0-4.0-1.0-2.0-0.0"	"vc776p"	"600"	"1366"	"chrome"	"109.0.0"	"FALSE"	"Windows 10"	"60.28"	"001"	n/a	n/a	n/a	n/a	n/a	n/a	"fixation"	n/a	n/a	n/a	n/a	"NULL"	n/a	"NULL"	"NULL"	"NULL"	"<p style=\"color: black; font-size: 80px; padding-left: 42%; padding-right: 25%; padding-top: 3%; padding-bottom: 38%\">+</p>"	"1289"	n/a	n/a	n/a	n/a	n/a	n/a	n/a	n/a	n/a
n/a	"image-keyboard-response"	"8"	"45744"	"0.0-4.0-1.0-2.0-1.0"	"vc776p"	"600"	"1366"	"chrome"	"109.0.0"	"FALSE"	"Windows 10"	"60.28"	"001"	n/a	n/a	n/a	n/a	n/a	n/a	"Trial"	n/a	n/a	n/a	"641"	"arrowright"	n/a	"NULL"	"NULL"	"NULL"	"stimuli/Ebbinghaus_1000000_-1.4000.png"	n/a	"Ebbinghaus"	"arrowright"	"1814"	"TRUE"	"Ebbinghaus"	"100000000000"	"-1.400000000"	"1"	"1"
n/a	"html-keyboard-response"	"9"	"47092"	"0.0-4.0-1.0-2.0-0.1"	"vc776p"	"600"	"1366"	"chrome"	"109.0.0"	"FALSE"	"Windows 10"	"60.28"	"001"	n/a	n/a	n/a	n/a	n/a	n/a	"fixation"	n/a	n/a	n/a	n/a	"NULL"	n/a	"NULL"	"NULL"	"NULL"	"<p style=\"color: black; font-size: 80px; padding-left: 28%; padding-right: 30%; padding-top: 11%; padding-bottom: 15%\">+</p>"	"1342"	n/a	n/a	n/a	n/a	n/a	n/a	n/a	n/a	n/a
n/a	"image-keyboard-response"	"10"	"47565"	"0.0-4.0-1.0-2.0-1.1"	"vc776p"	"600"	"1366"	"chrome"	"109.0.0"	"FALSE"	"Windows 10"	"60.28"	"001"	n/a	n/a	n/a	n/a	n/a	n/a	"Trial"	n/a	n/a	n/a	"471"	"arrowright"	n/a	"NULL"	"NULL"	"NULL"	"stimuli/Ebbinghaus_-100000_1.40000.png"	n/a	"Ebbinghaus"	"arrowleft"	"1348"	"FALSE"	"Ebbinghaus"	"-10000000000"	"1.4000000000"	"1"	"2"
n/a	"html-keyboard-response"	"11"	"48640"	"0.0-4.0-1.0-2.0-0.2"	"vc776p"	"600"	"1366"	"chrome"	"109.0.0"	"FALSE"	"Windows 10"	"60.28"	"001"	n/a	n/a	n/a	n/a	n/a	n/a	"fixation"	n/a	n/a	n/a	n/a	"NULL"	n/a	"NULL"	"NULL"	"NULL"	"<p style=\"color: black; font-size: 80px; padding-left: 45%; padding-right: 41%; padding-top: 2%; padding-bottom: 31%\">+</p>"	"1061"	n/a	n/a	n/a	n/a	n/a	n/a	n/a	n/a	n/a
n/a	"image-keyboard-response"	"12"	"49126"	"0.0-4.0-1.0-2.0-1.2"	"vc776p"	"600"	"1366"	"chrome"	"109.0.0"	"FALSE"	"Windows 10"	"60.28"	"001"	n/a	n/a	n/a	n/a	n/a	n/a	"Trial"	n/a	n/a	n/a	"484"	"arrowright"	n/a	"NULL"	"NULL"	"NULL"	"stimuli/Ebbinghaus_0000000_-1.4000.png"	n/a	"Ebbinghaus"	"arrowright"	"1075"	"TRUE"	"Ebbinghaus"	"000000000000"	"-1.400000000"	"1"	"3"
n/a	"html-keyboard-response"	"13"	"50342"	"0.0-4.0-1.0-2.0-0.3"	"vc776p"	"600"	"1366"	"chrome"	"109.0.0"	"FALSE"	"Windows 10"	"60.28"	"001"	n/a	n/a	n/a	n/a	n/a	n/a	"fixation"	n/a	n/a	n/a	n/a	"NULL"	n/a	"NULL"	"NULL"	"NULL"	"<p style=\"color: black; font-size: 80px; padding-left: 10%; padding-right: 37%; padding-top: 48%; padding-bottom: 30%\">+</p>"	"1203"	n/a	n/a	n/a	n/a	n/a	n/a	n/a	n/a	n/a
n/a	"image-keyboard-response"	"14"	"50807"	"0.0-4.0-1.0-2.0-1.3"	"vc776p"	"600"	"1366"	"chrome"	"109.0.0"	"FALSE"	"Windows 10"	"60.28"	"001"	n/a	n/a	n/a	n/a	n/a	n/a	"Trial"	n/a	n/a	n/a	"464"	"arrowleft"	n/a	"NULL"	"NULL"	"NULL"	"stimuli/Ebbinghaus_1000000_1.40000.png"	n/a	"Ebbinghaus"	"arrowleft"	"1216"	"TRUE"	"Ebbinghaus"	"100000000000"	"1.4000000000"	"1"	"4"
n/a	"html-keyboard-response"	"15"	"52313"	"0.0-4.0-1.0-2.0-0.4"	"vc776p"	"600"	"1366"	"chrome"	"109.0.0"	"FALSE"	"Windows 10"	"60.28"	"001"	n/a	n/a	n/a	n/a	n/a	n/a	"fixation"	n/a	n/a	n/a	n/a	"NULL"	n/a	"NULL"	"NULL"	"NULL"	"<p style=\"color: black; font-size: 80px; padding-left: 41%; padding-right: 7%; padding-top: 41%; padding-bottom: 36%\">+</p>"	"1497"	n/a	n/a	n/a	n/a	n/a	n/a	n/a	n/a	n/a
n/a	"image-keyboard-response"	"16"	"52757"	"0.0-4.0-1.0-2.0-1.4"	"vc776p"	"600"	"1366"	"chrome"	"109.0.0"	"FALSE"	"Windows 10"	"60.28"	"001"	n/a	n/a	n/a	n/a	n/a	n/a	"Trial"	n/a	n/a	n/a	"443"	"arrowright"	n/a	"NULL"	"NULL"	"NULL"	"stimuli/Ebbinghaus_-100000_-1.4000.png"	n/a	"Ebbinghaus"	"arrowright"	"1506"	"TRUE"	"Ebbinghaus"	"-10000000000"	"-1.400000000"	"1"	"5"
n/a	"html-keyboard-response"	"17"	"53844"	"0.0-4.0-1.0-2.0-0.5"	"vc776p"	"600"	"1366"	"chrome"	"109.0.0"	"FALSE"	"Windows 10"	"60.28"	"001"	n/a	n/a	n/a	n/a	n/a	n/a	"fixation"	n/a	n/a	n/a	n/a	"NULL"	n/a	"NULL"	"NULL"	"NULL"	"<p style=\"color: black; font-size: 80px; padding-left: 28%; padding-right: 36%; padding-top: 43%; padding-bottom: 35%\">+</p>"	"1081"	n/a	n/a	n/a	n/a	n/a	n/a	n/a	n/a	n/a
n/a	"image-keyboard-response"	"18"	"54261"	"0.0-4.0-1.0-2.0-1.5"	"vc776p"	"600"	"1366"	"chrome"	"109.0.0"	"FALSE"	"Windows 10"	"60.28"	"001"	n/a	n/a	n/a	n/a	n/a	n/a	"Trial"	n/a	n/a	n/a	"416"	"arrowleft"	n/a	"NULL"	"NULL"	"NULL"	"stimuli/Ebbinghaus_0000000_1.40000.png"	n/a	"Ebbinghaus"	"arrowleft"	"1087"	"TRUE"	"Ebbinghaus"	"000000000000"	"1.4000000000"	"1"	"6"
n/a	"html-button-response"	"19"	"59576"	"0.0-4.0-1.0-3.0"	"vc776p"	"600"	"1366"	"chrome"	"109.0.0"	"FALSE"	"Windows 10"	"60.28"	"001"	n/a	n/a	n/a	n/a	n/a	n/a	"practice_block_results"	n/a	n/a	n/a	"5307"	"0"	n/a	"NULL"	"NULL"	"NULL"	"<p style='color:rgb(76,175,80);'> Correct Responses: <b>83.33%</b></p><hr><p style='color:rgb(233,30,99);'> Average Response Time: <b>486.50</b> ms.</p>"	n/a	n/a	n/a	n/a	n/a	n/a	n/a	n/a	n/a	n/a
"TRUE"	"preload"	"20"	"60107"	"0.0-4.0-2.0-0.0"	"vc776p"	"600"	"1366"	"chrome"	"109.0.0"	"FALSE"	"Windows 10"	"60.28"	"001"	n/a	n/a	n/a	n/a	n/a	n/a	n/a	n/a	n/a	n/a	n/a	"NULL"	"FALSE"	"list()"	"list()"	"list()"	n/a	n/a	n/a	n/a	n/a	n/a	n/a	n/a	n/a	n/a	n/a
n/a	"html-keyboard-response"	"21"	"67220"	"0.0-4.0-2.0-1.0"	"vc776p"	"600"	"1366"	"chrome"	"109.0.0"	"FALSE"	"Windows 10"	"60.28"	"001"	n/a	n/a	n/a	n/a	n/a	n/a	n/a	n/a	n/a	n/a	"7112"	"enter"	n/a	"NULL"	"NULL"	"NULL"	"<p><b>Practice</b></p><p>In this part, two horizontal red lines will appear one above the other.</p><p>Your task is to select which <b>line is longer</b> in length as fast as you can, without making errors.</p><p>Don't get distracted by the surrounding black arrows at the end of the red lines!</p><p>Press <b>the UP or the DOWN arrow</b> to indicate where is the longer <b>red line.</b></p><div style='float: center'><img src='materials/instructions/MullerLyer_Demo.png' height='300'></img><p><img src='utils/answer/answer_updown_keyboard.PNG' height='150'></img></p><p class='small'>In this example, the correct answer is the <b>UP arrow</b>.</p></div><p>Are you ready? <b>Press ENTER to start</b></p>"	n/a	n/a	n/a	n/a	n/a	n/a	n/a	n/a	n/a	n/a
n/a	"html-keyboard-response"	"22"	"68789"	"0.0-4.0-2.0-2.0-0.0"	"vc776p"	"600"	"1366"	"chrome"	"109.0.0"	"FALSE"	"Windows 10"	"60.28"	"001"	n/a	n/a	n/a	n/a	n/a	n/a	"fixation"	n/a	n/a	n/a	n/a	"NULL"	n/a	"NULL"	"NULL"	"NULL"	"<p style=\"color: black; font-size: 80px; padding-left: 46%; padding-right: 45%; padding-top: 15%; padding-bottom: 12%\">+</p>"	"1047"	n/a	n/a	n/a	n/a	n/a	n/a	n/a	n/a	n/a
n/a	"image-keyboard-response"	"23"	"69506"	"0.0-4.0-2.0-2.0-1.0"	"vc776p"	"600"	"1366"	"chrome"	"109.0.0"	"FALSE"	"Windows 10"	"60.28"	"001"	n/a	n/a	n/a	n/a	n/a	n/a	"Trial"	n/a	n/a	n/a	"715"	"arrowdown"	n/a	"NULL"	"NULL"	"NULL"	"stimuli/MullerLyer_0000000_-0.7000.png"	n/a	"MullerLyer"	"arrowdown"	"1569"	"TRUE"	"MullerLyer"	"000000000000"	"-0.700000000"	"1"	"7"
n/a	"html-keyboard-response"	"24"	"70555"	"0.0-4.0-2.0-2.0-0.1"	"vc776p"	"600"	"1366"	"chrome"	"109.0.0"	"FALSE"	"Windows 10"	"60.28"	"001"	n/a	n/a	n/a	n/a	n/a	n/a	"fixation"	n/a	n/a	n/a	n/a	"NULL"	n/a	"NULL"	"NULL"	"NULL"	"<p style=\"color: black; font-size: 80px; padding-left: 15%; padding-right: 20%; padding-top: 26%; padding-bottom: 28%\">+</p>"	"1035"	n/a	n/a	n/a	n/a	n/a	n/a	n/a	n/a	n/a
n/a	"image-keyboard-response"	"25"	"71169"	"0.0-4.0-2.0-2.0-1.1"	"vc776p"	"600"	"1366"	"chrome"	"109.0.0"	"FALSE"	"Windows 10"	"60.28"	"001"	n/a	n/a	n/a	n/a	n/a	n/a	"Trial"	n/a	n/a	n/a	"612"	"arrowup"	n/a	"NULL"	"NULL"	"NULL"	"stimuli/MullerLyer_-230000_0.70000.png"	n/a	"MullerLyer"	"arrowup"	"1049"	"TRUE"	"MullerLyer"	"-23000000000"	"0.7000000000"	"1"	"8"
n/a	"html-keyboard-response"	"26"	"72329"	"0.0-4.0-2.0-2.0-0.2"	"vc776p"	"600"	"1366"	"chrome"	"109.0.0"	"FALSE"	"Windows 10"	"60.28"	"001"	n/a	n/a	n/a	n/a	n/a	n/a	"fixation"	n/a	n/a	n/a	n/a	"NULL"	n/a	"NULL"	"NULL"	"NULL"	"<p style=\"color: black; font-size: 80px; padding-left: 10%; padding-right: 15%; padding-top: 2%; padding-bottom: 29%\">+</p>"	"1142"	n/a	n/a	n/a	n/a	n/a	n/a	n/a	n/a	n/a
n/a	"image-keyboard-response"	"27"	"72970"	"0.0-4.0-2.0-2.0-1.2"	"vc776p"	"600"	"1366"	"chrome"	"109.0.0"	"FALSE"	"Windows 10"	"60.28"	"001"	n/a	n/a	n/a	n/a	n/a	n/a	"Trial"	n/a	n/a	n/a	"640"	"arrowdown"	n/a	"NULL"	"NULL"	"NULL"	"stimuli/MullerLyer_2300000_-0.7000.png"	n/a	"MullerLyer"	"arrowdown"	"1160"	"TRUE"	"MullerLyer"	"230000000000"	"-0.700000000"	"1"	"9"
n/a	"html-keyboard-response"	"28"	"74192"	"0.0-4.0-2.0-2.0-0.3"	"vc776p"	"600"	"1366"	"chrome"	"109.0.0"	"FALSE"	"Windows 10"	"60.28"	"001"	n/a	n/a	n/a	n/a	n/a	n/a	"fixation"	n/a	n/a	n/a	n/a	"NULL"	n/a	"NULL"	"NULL"	"NULL"	"<p style=\"color: black; font-size: 80px; padding-left: 30%; padding-right: 40%; padding-top: 8%; padding-bottom: 9%\">+</p>"	"1204"	n/a	n/a	n/a	n/a	n/a	n/a	n/a	n/a	n/a
n/a	"image-keyboard-response"	"29"	"74742"	"0.0-4.0-2.0-2.0-1.3"	"vc776p"	"600"	"1366"	"chrome"	"109.0.0"	"FALSE"	"Windows 10"	"60.28"	"001"	n/a	n/a	n/a	n/a	n/a	n/a	"Trial"	n/a	n/a	n/a	"549"	"arrowup"	n/a	"NULL"	"NULL"	"NULL"	"stimuli/MullerLyer_0000000_0.70000.png"	n/a	"MullerLyer"	"arrowup"	"1222"	"TRUE"	"MullerLyer"	"000000000000"	"0.7000000000"	"1"	"10"
n/a	"html-keyboard-response"	"30"	"75767"	"0.0-4.0-2.0-2.0-0.4"	"vc776p"	"600"	"1366"	"chrome"	"109.0.0"	"FALSE"	"Windows 10"	"60.28"	"001"	n/a	n/a	n/a	n/a	n/a	n/a	"fixation"	n/a	n/a	n/a	n/a	"NULL"	n/a	"NULL"	"NULL"	"NULL"	"<p style=\"color: black; font-size: 80px; padding-left: 30%; padding-right: 7%; padding-top: 13%; padding-bottom: 41%\">+</p>"	"1016"	n/a	n/a	n/a	n/a	n/a	n/a	n/a	n/a	n/a
n/a	"image-keyboard-response"	"31"	"76307"	"0.0-4.0-2.0-2.0-1.4"	"vc776p"	"600"	"1366"	"chrome"	"109.0.0"	"FALSE"	"Windows 10"	"60.28"	"001"	n/a	n/a	n/a	n/a	n/a	n/a	"Trial"	n/a	n/a	n/a	"539"	"arrowup"	n/a	"NULL"	"NULL"	"NULL"	"stimuli/MullerLyer_2300000_0.70000.png"	n/a	"MullerLyer"	"arrowup"	"1025"	"TRUE"	"MullerLyer"	"230000000000"	"0.7000000000"	"1"	"11"
n/a	"html-keyboard-response"	"32"	"77819"	"0.0-4.0-2.0-2.0-0.5"	"vc776p"	"600"	"1366"	"chrome"	"109.0.0"	"FALSE"	"Windows 10"	"60.28"	"001"	n/a	n/a	n/a	n/a	n/a	n/a	"fixation"	n/a	n/a	n/a	n/a	"NULL"	n/a	"NULL"	"NULL"	"NULL"	"<p style=\"color: black; font-size: 80px; padding-left: 33%; padding-right: 13%; padding-top: 2%; padding-bottom: 28%\">+</p>"	"1497"	n/a	n/a	n/a	n/a	n/a	n/a	n/a	n/a	n/a
n/a	"image-keyboard-response"	"33"	"78355"	"0.0-4.0-2.0-2.0-1.5"	"vc776p"	"600"	"1366"	"chrome"	"109.0.0"	"FALSE"	"Windows 10"	"60.28"	"001"	n/a	n/a	n/a	n/a	n/a	n/a	"Trial"	n/a	n/a	n/a	"535"	"arrowdown"	n/a	"NULL"	"NULL"	"NULL"	"stimuli/MullerLyer_-230000_-0.7000.png"	n/a	"MullerLyer"	"arrowdown"	"1512"	"TRUE"	"MullerLyer"	"-23000000000"	"-0.700000000"	"1"	"12"
n/a	"html-button-response"	"34"	"79771"	"0.0-4.0-2.0-3.0"	"vc776p"	"600"	"1366"	"chrome"	"109.0.0"	"FALSE"	"Windows 10"	"60.28"	"001"	n/a	n/a	n/a	n/a	n/a	n/a	"practice_block_results"	n/a	n/a	n/a	"1414"	"0"	n/a	"NULL"	"NULL"	"NULL"	"<p style='color:rgb(76,175,80);'> Correct Responses: <b>100.00%</b></p><hr><p style='color:rgb(233,30,99);'> Average Response Time: <b>598.33</b> ms.</p>"	n/a	n/a	n/a	n/a	n/a	n/a	n/a	n/a	n/a	n/a
"TRUE"	"preload"	"35"	"80302"	"0.0-4.0-3.0-0.0"	"vc776p"	"600"	"1366"	"chrome"	"109.0.0"	"FALSE"	"Windows 10"	"60.28"	"001"	n/a	n/a	n/a	n/a	n/a	n/a	n/a	n/a	n/a	n/a	n/a	"NULL"	"FALSE"	"list()"	"list()"	"list()"	n/a	n/a	n/a	n/a	n/a	n/a	n/a	n/a	n/a	n/a	n/a
n/a	"html-keyboard-response"	"36"	"90010"	"0.0-4.0-3.0-1.0"	"vc776p"	"600"	"1366"	"chrome"	"109.0.0"	"FALSE"	"Windows 10"	"60.28"	"001"	n/a	n/a	n/a	n/a	n/a	n/a	n/a	n/a	n/a	n/a	"9708"	"enter"	n/a	"NULL"	"NULL"	"NULL"	"<p><b>Practice</b></p><p>In this part, two red lines will appear side by side.</p><p>Your task is to tell <b>which line is longer</b> in length, regardless of their orientation, as fast as you can, and without making errors.</p><p>Don't get distracted by the orientation of the lines!</p><p>Press <b>the LEFT or the RIGHT arrow</b> to indicate which <b>line is the longer one.</b></p><div style='float: center'><img src='materials/instructions/VerticalHorizontal_Demo.png' height='300'></img><p><img src='utils/answer/answer_leftright_keyboard.PNG' height='150'></img></p><p class='small'>In this example, the correct answer is the <b>LEFT arrow</b>.</p></div><p>Are you ready? <b>Press ENTER to start</b></p>"	n/a	n/a	n/a	n/a	n/a	n/a	n/a	n/a	n/a	n/a
n/a	"html-keyboard-response"	"37"	"91880"	"0.0-4.0-3.0-2.0-0.0"	"vc776p"	"600"	"1366"	"chrome"	"109.0.0"	"FALSE"	"Windows 10"	"60.28"	"001"	n/a	n/a	n/a	n/a	n/a	n/a	"fixation"	n/a	n/a	n/a	n/a	"NULL"	n/a	"NULL"	"NULL"	"NULL"	"<p style=\"color: black; font-size: 80px; padding-left: 47%; padding-right: 6%; padding-top: 7%; padding-bottom: 2%\">+</p>"	"1341"	n/a	n/a	n/a	n/a	n/a	n/a	n/a	n/a	n/a
n/a	"image-keyboard-response"	"38"	"92514"	"0.0-4.0-3.0-2.0-1.0"	"vc776p"	"600"	"1366"	"chrome"	"109.0.0"	"FALSE"	"Windows 10"	"60.28"	"001"	n/a	n/a	n/a	n/a	n/a	n/a	"Trial"	n/a	n/a	n/a	"632"	"arrowright"	n/a	"NULL"	"NULL"	"NULL"	"stimuli/VerticalHorizontal_3300000_-0.9000.png"	n/a	"VerticalHorizontal"	"arrowright"	"1870"	"TRUE"	"VerticalHorizontal"	"330000000000"	"-0.900000000"	"1"	"13"
n/a	"html-keyboard-response"	"39"	"93545"	"0.0-4.0-3.0-2.0-0.1"	"vc776p"	"600"	"1366"	"chrome"	"109.0.0"	"FALSE"	"Windows 10"	"60.28"	"001"	n/a	n/a	n/a	n/a	n/a	n/a	"fixation"	n/a	n/a	n/a	n/a	"NULL"	n/a	"NULL"	"NULL"	"NULL"	"<p style=\"color: black; font-size: 80px; padding-left: 5%; padding-right: 19%; padding-top: 40%; padding-bottom: 25%\">+</p>"	"1022"	n/a	n/a	n/a	n/a	n/a	n/a	n/a	n/a	n/a
n/a	"image-keyboard-response"	"40"	"94007"	"0.0-4.0-3.0-2.0-1.1"	"vc776p"	"600"	"1366"	"chrome"	"109.0.0"	"FALSE"	"Windows 10"	"60.28"	"001"	n/a	n/a	n/a	n/a	n/a	n/a	"Trial"	n/a	n/a	n/a	"460"	"arrowleft"	n/a	"NULL"	"NULL"	"NULL"	"stimuli/VerticalHorizontal_3300000_0.90000.png"	n/a	"VerticalHorizontal"	"arrowleft"	"1031"	"TRUE"	"VerticalHorizontal"	"330000000000"	"0.9000000000"	"1"	"14"
n/a	"html-keyboard-response"	"41"	"95365"	"0.0-4.0-3.0-2.0-0.2"	"vc776p"	"600"	"1366"	"chrome"	"109.0.0"	"FALSE"	"Windows 10"	"60.28"	"001"	n/a	n/a	n/a	n/a	n/a	n/a	"fixation"	n/a	n/a	n/a	n/a	"NULL"	n/a	"NULL"	"NULL"	"NULL"	"<p style=\"color: black; font-size: 80px; padding-left: 24%; padding-right: 19%; padding-top: 41%; padding-bottom: 48%\">+</p>"	"1353"	n/a	n/a	n/a	n/a	n/a	n/a	n/a	n/a	n/a
n/a	"image-keyboard-response"	"42"	"95865"	"0.0-4.0-3.0-2.0-1.2"	"vc776p"	"600"	"1366"	"chrome"	"109.0.0"	"FALSE"	"Windows 10"	"60.28"	"001"	n/a	n/a	n/a	n/a	n/a	n/a	"Trial"	n/a	n/a	n/a	"498"	"arrowleft"	n/a	"NULL"	"NULL"	"NULL"	"stimuli/VerticalHorizontal_0000000_0.90000.png"	n/a	"VerticalHorizontal"	"arrowleft"	"1358"	"TRUE"	"VerticalHorizontal"	"000000000000"	"0.9000000000"	"1"	"15"
n/a	"html-keyboard-response"	"43"	"97234"	"0.0-4.0-3.0-2.0-0.3"	"vc776p"	"600"	"1366"	"chrome"	"109.0.0"	"FALSE"	"Windows 10"	"60.28"	"001"	n/a	n/a	n/a	n/a	n/a	n/a	"fixation"	n/a	n/a	n/a	n/a	"NULL"	n/a	"NULL"	"NULL"	"NULL"	"<p style=\"color: black; font-size: 80px; padding-left: 25%; padding-right: 2%; padding-top: 32%; padding-bottom: 48%\">+</p>"	"1356"	n/a	n/a	n/a	n/a	n/a	n/a	n/a	n/a	n/a
n/a	"image-keyboard-response"	"44"	"97635"	"0.0-4.0-3.0-2.0-1.3"	"vc776p"	"600"	"1366"	"chrome"	"109.0.0"	"FALSE"	"Windows 10"	"60.28"	"001"	n/a	n/a	n/a	n/a	n/a	n/a	"Trial"	n/a	n/a	n/a	"399"	"arrowright"	n/a	"NULL"	"NULL"	"NULL"	"stimuli/VerticalHorizontal_0000000_-0.9000.png"	n/a	"VerticalHorizontal"	"arrowright"	"1369"	"TRUE"	"VerticalHorizontal"	"000000000000"	"-0.900000000"	"1"	"16"
n/a	"html-keyboard-response"	"45"	"98876"	"0.0-4.0-3.0-2.0-0.4"	"vc776p"	"600"	"1366"	"chrome"	"109.0.0"	"FALSE"	"Windows 10"	"60.28"	"001"	n/a	n/a	n/a	n/a	n/a	n/a	"fixation"	n/a	n/a	n/a	n/a	"NULL"	n/a	"NULL"	"NULL"	"NULL"	"<p style=\"color: black; font-size: 80px; padding-left: 34%; padding-right: 5%; padding-top: 12%; padding-bottom: 7%\">+</p>"	"1224"	n/a	n/a	n/a	n/a	n/a	n/a	n/a	n/a	n/a
n/a	"image-keyboard-response"	"46"	"99268"	"0.0-4.0-3.0-2.0-1.4"	"vc776p"	"600"	"1366"	"chrome"	"109.0.0"	"FALSE"	"Windows 10"	"60.28"	"001"	n/a	n/a	n/a	n/a	n/a	n/a	"Trial"	n/a	n/a	n/a	"391"	"arrowleft"	n/a	"NULL"	"NULL"	"NULL"	"stimuli/VerticalHorizontal_-330000_0.90000.png"	n/a	"VerticalHorizontal"	"arrowleft"	"1241"	"TRUE"	"VerticalHorizontal"	"-33000000000"	"0.9000000000"	"1"	"17"
n/a	"html-keyboard-response"	"47"	"100649"	"0.0-4.0-3.0-2.0-0.5"	"vc776p"	"600"	"1366"	"chrome"	"109.0.0"	"FALSE"	"Windows 10"	"60.28"	"001"	n/a	n/a	n/a	n/a	n/a	n/a	"fixation"	n/a	n/a	n/a	n/a	"NULL"	n/a	"NULL"	"NULL"	"NULL"	"<p style=\"color: black; font-size: 80px; padding-left: 26%; padding-right: 25%; padding-top: 19%; padding-bottom: 12%\">+</p>"	"1361"	n/a	n/a	n/a	n/a	n/a	n/a	n/a	n/a	n/a
n/a	"image-keyboard-response"	"48"	"101049"	"0.0-4.0-3.0-2.0-1.5"	"vc776p"	"600"	"1366"	"chrome"	"109.0.0"	"FALSE"	"Windows 10"	"60.28"	"001"	n/a	n/a	n/a	n/a	n/a	n/a	"Trial"	n/a	n/a	n/a	"398"	"arrowright"	n/a	"NULL"	"NULL"	"NULL"	"stimuli/VerticalHorizontal_-330000_-0.9000.png"	n/a	"VerticalHorizontal"	"arrowright"	"1381"	"TRUE"	"VerticalHorizontal"	"-33000000000"	"-0.900000000"	"1"	"18"
n/a	"html-button-response"	"49"	"102662"	"0.0-4.0-3.0-3.0"	"vc776p"	"600"	"1366"	"chrome"	"109.0.0"	"FALSE"	"Windows 10"	"60.28"	"001"	n/a	n/a	n/a	n/a	n/a	n/a	"practice_block_results"	n/a	n/a	n/a	"1610"	"0"	n/a	"NULL"	"NULL"	"NULL"	"<p style='color:rgb(76,175,80);'> Correct Responses: <b>100.00%</b></p><hr><p style='color:rgb(233,30,99);'> Average Response Time: <b>463.00</b> ms.</p>"	n/a	n/a	n/a	n/a	n/a	n/a	n/a	n/a	n/a	n/a
n/a	"html-button-response"	"50"	"156513"	"0.0-4.0-4.0"	"vc776p"	"600"	"1366"	"chrome"	"109.0.0"	"FALSE"	"Windows 10"	"60.28"	"001"	n/a	n/a	n/a	n/a	n/a	n/a	"practice_debrief"	n/a	n/a	n/a	"53326"	"0"	n/a	"NULL"	"NULL"	"NULL"	"<p><b>TRAINING COMPLETED</b></p><p>In the next phase, there will be more trials, and some might be harder too.<br> Moreover, after each illusion block, a <b>score</b> will be calculated based on speed (time you took to answer) and accuracy (number of errors).</p><p>Try to keep up a high score!</p><br><p>Note that it can be <i>really</i> challenging at times, so you will need to rely on your <b>intuition</b> and gut feeling to answer as fast as you can without making errors.</p><p>Each illusion block will be repeated two times (so that you have the opportunity to improve your score), but the order of the blocks is random.</p><p>Remember, your goal is to be as <b>fast</b> and <b>accurate</b> as possible. Good luck!</p><br>"	n/a	n/a	n/a	n/a	n/a	n/a	n/a	n/a	n/a	n/a
"TRUE"	"preload"	"51"	"156721"	"0.0-5.0-0.0"	"vc776p"	"600"	"1366"	"chrome"	"109.0.0"	"FALSE"	"Windows 10"	"60.28"	"001"	n/a	n/a	n/a	n/a	n/a	n/a	n/a	n/a	n/a	n/a	n/a	"NULL"	"FALSE"	"list()"	"list()"	"list()"	n/a	n/a	n/a	n/a	n/a	n/a	n/a	n/a	n/a	n/a	n/a
n/a	"html-keyboard-response"	"52"	"161559"	"0.0-5.0-1.0"	"vc776p"	"600"	"1366"	"chrome"	"109.0.0"	"FALSE"	"Windows 10"	"60.28"	"001"	n/a	n/a	n/a	n/a	n/a	n/a	n/a	n/a	n/a	n/a	"4837"	"enter"	n/a	"NULL"	"NULL"	"NULL"	"<p><b>Part 1/6</b></p><p>In this part, two red circles will appear side by side on the screen.</p><p>Your task is to select which <b>red circle is bigger</b> in size as fast as you can, without making errors.</p><p>Don't get distracted by the surrounding black circles around the red circles!</p><p>Press <b>the LEFT or the RIGHT arrow</b> to indicate which is the bigger <b>red circle.</b></p><div style='float: center'><img src='materials/instructions/Ebbinghaus_Demo.png' height='300'></img><p><img src='utils/answer/answer_leftright_keyboard.PNG' height='150'></img></p><p class='small'>In this example, the correct answer is the <b>LEFT arrow</b>.</p></div><p>Are you ready? <b>Press ENTER to start</b></p>"	n/a	n/a	n/a	n/a	n/a	n/a	n/a	n/a	n/a	n/a
n/a	"html-keyboard-response"	"53"	"163169"	"0.0-5.0-2.0-0.0"	"vc776p"	"600"	"1366"	"chrome"	"109.0.0"	"FALSE"	"Windows 10"	"60.28"	"001"	n/a	n/a	n/a	n/a	n/a	n/a	"fixation"	n/a	n/a	n/a	n/a	"NULL"	n/a	"NULL"	"NULL"	"NULL"	"<p style=\"color: black; font-size: 80px; padding-left: 18%; padding-right: 49%; padding-top: 12%; padding-bottom: 39%\">+</p>"	"1074"	n/a	n/a	n/a	n/a	n/a	n/a	n/a	n/a	n/a
n/a	"image-keyboard-response"	"54"	"163760"	"0.0-5.0-2.0-1.0"	"vc776p"	"600"	"1366"	"chrome"	"109.0.0"	"FALSE"	"Windows 10"	"60.28"	"001"	n/a	n/a	n/a	n/a	n/a	n/a	"Trial"	n/a	n/a	n/a	"588"	"arrowright"	n/a	"NULL"	"NULL"	"NULL"	"stimuli/Ebbinghaus_0.10000_-0.11071.png"	n/a	"Ebbinghaus"	"arrowright"	"1610"	"TRUE"	"Ebbinghaus"	"0.1000000000"	"-0.110710000"	"1"	"19"
n/a	"html-keyboard-response"	"55"	"165175"	"0.0-5.0-2.0-0.1"	"vc776p"	"600"	"1366"	"chrome"	"109.0.0"	"FALSE"	"Windows 10"	"60.28"	"001"	n/a	n/a	n/a	n/a	n/a	n/a	"fixation"	n/a	n/a	n/a	n/a	"NULL"	n/a	"NULL"	"NULL"	"NULL"	"<p style=\"color: black; font-size: 80px; padding-left: 24%; padding-right: 31%; padding-top: 14%; padding-bottom: 47%\">+</p>"	"1398"	n/a	n/a	n/a	n/a	n/a	n/a	n/a	n/a	n/a
n/a	"image-keyboard-response"	"56"	"165657"	"0.0-5.0-2.0-1.1"	"vc776p"	"600"	"1366"	"chrome"	"109.0.0"	"FALSE"	"Windows 10"	"60.28"	"001"	n/a	n/a	n/a	n/a	n/a	n/a	"Trial"	n/a	n/a	n/a	"480"	"arrowright"	n/a	"NULL"	"NULL"	"NULL"	"stimuli/Ebbinghaus_0.10000_-0.15857.png"	n/a	"Ebbinghaus"	"arrowright"	"1415"	"TRUE"	"Ebbinghaus"	"0.1000000000"	"-0.158570000"	"1"	"20"
n/a	"html-keyboard-response"	"57"	"166952"	"0.0-5.0-2.0-0.2"	"vc776p"	"600"	"1366"	"chrome"	"109.0.0"	"FALSE"	"Windows 10"	"60.28"	"001"	n/a	n/a	n/a	n/a	n/a	n/a	"fixation"	n/a	n/a	n/a	n/a	"NULL"	n/a	"NULL"	"NULL"	"NULL"	"<p style=\"color: black; font-size: 80px; padding-left: 21%; padding-right: 48%; padding-top: 10%; padding-bottom: 47%\">+</p>"	"1280"	n/a	n/a	n/a	n/a	n/a	n/a	n/a	n/a	n/a
n/a	"image-keyboard-response"	"58"	"168103"	"0.0-5.0-2.0-1.2"	"vc776p"	"600"	"1366"	"chrome"	"109.0.0"	"FALSE"	"Windows 10"	"60.28"	"001"	n/a	n/a	n/a	n/a	n/a	n/a	"Trial"	n/a	n/a	n/a	"1149"	"arrowleft"	n/a	"NULL"	"NULL"	"NULL"	"stimuli/Ebbinghaus_-0.1000_0.21500.png"	n/a	"Ebbinghaus"	"arrowleft"	"1295"	"TRUE"	"Ebbinghaus"	"-0.100000000"	"0.2150000000"	"1"	"21"
n/a	"html-keyboard-response"	"59"	"169132"	"0.0-5.0-2.0-0.3"	"vc776p"	"600"	"1366"	"chrome"	"109.0.0"	"FALSE"	"Windows 10"	"60.28"	"001"	n/a	n/a	n/a	n/a	n/a	n/a	"fixation"	n/a	n/a	n/a	n/a	"NULL"	n/a	"NULL"	"NULL"	"NULL"	"<p style=\"color: black; font-size: 80px; padding-left: 24%; padding-right: 25%; padding-top: 40%; padding-bottom: 3%\">+</p>"	"1009"	n/a	n/a	n/a	n/a	n/a	n/a	n/a	n/a	n/a
n/a	"image-keyboard-response"	"60"	"171431"	"0.0-5.0-2.0-1.3"	"vc776p"	"600"	"1366"	"chrome"	"109.0.0"	"FALSE"	"Windows 10"	"60.28"	"001"	n/a	n/a	n/a	n/a	n/a	n/a	"Trial"	n/a	n/a	n/a	"2298"	"arrowright"	n/a	"NULL"	"NULL"	"NULL"	"stimuli/Ebbinghaus_0.87143_-0.15857.png"	n/a	"Ebbinghaus"	"arrowright"	"1029"	"TRUE"	"Ebbinghaus"	"0.8714300000"	"-0.158570000"	"1"	"22"
n/a	"html-keyboard-response"	"61"	"172479"	"0.0-5.0-2.0-0.4"	"vc776p"	"600"	"1366"	"chrome"	"109.0.0"	"FALSE"	"Windows 10"	"60.28"	"001"	n/a	n/a	n/a	n/a	n/a	n/a	"fixation"	n/a	n/a	n/a	n/a	"NULL"	n/a	"NULL"	"NULL"	"NULL"	"<p style=\"color: black; font-size: 80px; padding-left: 8%; padding-right: 9%; padding-top: 37%; padding-bottom: 6%\">+</p>"	"1035"	n/a	n/a	n/a	n/a	n/a	n/a	n/a	n/a	n/a
n/a	"image-keyboard-response"	"62"	"173812"	"0.0-5.0-2.0-1.4"	"vc776p"	"600"	"1366"	"chrome"	"109.0.0"	"FALSE"	"Windows 10"	"60.28"	"001"	n/a	n/a	n/a	n/a	n/a	n/a	"Trial"	n/a	n/a	n/a	"1332"	"arrowright"	n/a	"NULL"	"NULL"	"NULL"	"stimuli/Ebbinghaus_0.35714_-0.15857.png"	n/a	"Ebbinghaus"	"arrowright"	"1048"	"TRUE"	"Ebbinghaus"	"0.3571400000"	"-0.158570000"	"1"	"23"
n/a	"html-keyboard-response"	"63"	"175267"	"0.0-5.0-2.0-0.5"	"vc776p"	"600"	"1366"	"chrome"	"109.0.0"	"FALSE"	"Windows 10"	"60.28"	"001"	n/a	n/a	n/a	n/a	n/a	n/a	"fixation"	n/a	n/a	n/a	n/a	"NULL"	n/a	"NULL"	"NULL"	"NULL"	"<p style=\"color: black; font-size: 80px; padding-left: 31%; padding-right: 31%; padding-top: 25%; padding-bottom: 16%\">+</p>"	"1442"	n/a	n/a	n/a	n/a	n/a	n/a	n/a	n/a	n/a
n/a	"image-keyboard-response"	"64"	"176134"	"0.0-5.0-2.0-1.5"	"vc776p"	"600"	"1366"	"chrome"	"109.0.0"	"FALSE"	"Windows 10"	"60.28"	"001"	n/a	n/a	n/a	n/a	n/a	n/a	"Trial"	n/a	n/a	n/a	"866"	"arrowleft"	n/a	"NULL"	"NULL"	"NULL"	"stimuli/Ebbinghaus_-0.87143_0.11071.png"	n/a	"Ebbinghaus"	"arrowleft"	"1455"	"TRUE"	"Ebbinghaus"	"-0.871430000"	"0.1107100000"	"1"	"24"
n/a	"html-keyboard-response"	"65"	"177532"	"0.0-5.0-2.0-0.6"	"vc776p"	"600"	"1366"	"chrome"	"109.0.0"	"FALSE"	"Windows 10"	"60.28"	"001"	n/a	n/a	n/a	n/a	n/a	n/a	"fixation"	n/a	n/a	n/a	n/a	"NULL"	n/a	"NULL"	"NULL"	"NULL"	"<p style=\"color: black; font-size: 80px; padding-left: 30%; padding-right: 1%; padding-top: 18%; padding-bottom: 28%\">+</p>"	"1382"	n/a	n/a	n/a	n/a	n/a	n/a	n/a	n/a	n/a
n/a	"image-keyboard-response"	"66"	"178275"	"0.0-5.0-2.0-1.6"	"vc776p"	"600"	"1366"	"chrome"	"109.0.0"	"FALSE"	"Windows 10"	"60.28"	"001"	n/a	n/a	n/a	n/a	n/a	n/a	"Trial"	n/a	n/a	n/a	"742"	"arrowright"	n/a	"NULL"	"NULL"	"NULL"	"stimuli/Ebbinghaus_0.35714_-0.2150.png"	n/a	"Ebbinghaus"	"arrowright"	"1398"	"TRUE"	"Ebbinghaus"	"0.3571400000"	"-0.215000000"	"1"	"25"
n/a	"html-keyboard-response"	"67"	"179306"	"0.0-5.0-2.0-0.7"	"vc776p"	"600"	"1366"	"chrome"	"109.0.0"	"FALSE"	"Windows 10"	"60.28"	"001"	n/a	n/a	n/a	n/a	n/a	n/a	"fixation"	n/a	n/a	n/a	n/a	"NULL"	n/a	"NULL"	"NULL"	"NULL"	"<p style=\"color: black; font-size: 80px; padding-left: 33%; padding-right: 33%; padding-top: 2%; padding-bottom: 22%\">+</p>"	"1019"	n/a	n/a	n/a	n/a	n/a	n/a	n/a	n/a	n/a
n/a	"image-keyboard-response"	"68"	"180732"	"0.0-5.0-2.0-1.7"	"vc776p"	"600"	"1366"	"chrome"	"109.0.0"	"FALSE"	"Windows 10"	"60.28"	"001"	n/a	n/a	n/a	n/a	n/a	n/a	"Trial"	n/a	n/a	n/a	"1425"	"arrowright"	n/a	"NULL"	"NULL"	"NULL"	"stimuli/Ebbinghaus_-0.87143_-0.2150.png"	n/a	"Ebbinghaus"	"arrowright"	"1031"	"TRUE"	"Ebbinghaus"	"-0.871430000"	"-0.215000000"	"1"	"26"
n/a	"html-keyboard-response"	"69"	"182001"	"0.0-5.0-2.0-0.8"	"vc776p"	"600"	"1366"	"chrome"	"109.0.0"	"FALSE"	"Windows 10"	"60.28"	"001"	n/a	n/a	n/a	n/a	n/a	n/a	"fixation"	n/a	n/a	n/a	n/a	"NULL"	n/a	"NULL"	"NULL"	"NULL"	"<p style=\"color: black; font-size: 80px; padding-left: 17%; padding-right: 38%; padding-top: 15%; padding-bottom: 30%\">+</p>"	"1265"	n/a	n/a	n/a	n/a	n/a	n/a	n/a	n/a	n/a
n/a	"image-keyboard-response"	"70"	"183679"	"0.0-5.0-2.0-1.8"	"vc776p"	"600"	"1366"	"chrome"	"109.0.0"	"FALSE"	"Windows 10"	"60.28"	"001"	n/a	n/a	n/a	n/a	n/a	n/a	"Trial"	n/a	n/a	n/a	"1674"	"arrowright"	n/a	"NULL"	"NULL"	"NULL"	"stimuli/Ebbinghaus_-0.1000_-0.15857.png"	n/a	"Ebbinghaus"	"arrowright"	"1269"	"TRUE"	"Ebbinghaus"	"-0.100000000"	"-0.158570000"	"1"	"27"
n/a	"html-keyboard-response"	"71"	"185167"	"0.0-5.0-2.0-0.9"	"vc776p"	"600"	"1366"	"chrome"	"109.0.0"	"FALSE"	"Windows 10"	"60.28"	"001"	n/a	n/a	n/a	n/a	n/a	n/a	"fixation"	n/a	n/a	n/a	n/a	"NULL"	n/a	"NULL"	"NULL"	"NULL"	"<p style=\"color: black; font-size: 80px; padding-left: 44%; padding-right: 9%; padding-top: 30%; padding-bottom: 47%\">+</p>"	"1470"	n/a	n/a	n/a	n/a	n/a	n/a	n/a	n/a	n/a
n/a	"image-keyboard-response"	"72"	"185778"	"0.0-5.0-2.0-1.9"	"vc776p"	"600"	"1366"	"chrome"	"109.0.0"	"FALSE"	"Windows 10"	"60.28"	"001"	n/a	n/a	n/a	n/a	n/a	n/a	"Trial"	n/a	n/a	n/a	"611"	"arrowright"	n/a	"NULL"	"NULL"	"NULL"	"stimuli/Ebbinghaus_-0.87143_-0.2800.png"	n/a	"Ebbinghaus"	"arrowright"	"1488"	"TRUE"	"Ebbinghaus"	"-0.871430000"	"-0.280000000"	"1"	"28"
n/a	"html-keyboard-response"	"73"	"187050"	"0.0-5.0-2.0-0.10"	"vc776p"	"600"	"1366"	"chrome"	"109.0.0"	"FALSE"	"Windows 10"	"60.28"	"001"	n/a	n/a	n/a	n/a	n/a	n/a	"fixation"	n/a	n/a	n/a	n/a	"NULL"	n/a	"NULL"	"NULL"	"NULL"	"<p style=\"color: black; font-size: 80px; padding-left: 24%; padding-right: 1%; padding-top: 32%; padding-bottom: 47%\">+</p>"	"1262"	n/a	n/a	n/a	n/a	n/a	n/a	n/a	n/a	n/a
n/a	"image-keyboard-response"	"74"	"187889"	"0.0-5.0-2.0-1.10"	"vc776p"	"600"	"1366"	"chrome"	"109.0.0"	"FALSE"	"Windows 10"	"60.28"	"001"	n/a	n/a	n/a	n/a	n/a	n/a	"Trial"	n/a	n/a	n/a	"837"	"arrowright"	n/a	"NULL"	"NULL"	"NULL"	"stimuli/Ebbinghaus_-0.87143_-0.11071.png"	n/a	"Ebbinghaus"	"arrowright"	"1272"	"TRUE"	"Ebbinghaus"	"-0.871430000"	"-0.110710000"	"1"	"29"
n/a	"html-keyboard-response"	"75"	"189379"	"0.0-5.0-2.0-0.11"	"vc776p"	"600"	"1366"	"chrome"	"109.0.0"	"FALSE"	"Windows 10"	"60.28"	"001"	n/a	n/a	n/a	n/a	n/a	n/a	"fixation"	n/a	n/a	n/a	n/a	"NULL"	n/a	"NULL"	"NULL"	"NULL"	"<p style=\"color: black; font-size: 80px; padding-left: 0%; padding-right: 4%; padding-top: 43%; padding-bottom: 36%\">+</p>"	"1472"	n/a	n/a	n/a	n/a	n/a	n/a	n/a	n/a	n/a
n/a	"image-keyboard-response"	"76"	"190414"	"0.0-5.0-2.0-1.11"	"vc776p"	"600"	"1366"	"chrome"	"109.0.0"	"FALSE"	"Windows 10"	"60.28"	"001"	n/a	n/a	n/a	n/a	n/a	n/a	"Trial"	n/a	n/a	n/a	"1034"	"arrowleft"	n/a	"NULL"	"NULL"	"NULL"	"stimuli/Ebbinghaus_-0.61429_0.15857.png"	n/a	"Ebbinghaus"	"arrowleft"	"1490"	"TRUE"	"Ebbinghaus"	"-0.614290000"	"0.1585700000"	"1"	"30"
n/a	"html-keyboard-response"	"77"	"191474"	"0.0-5.0-2.0-0.12"	"vc776p"	"600"	"1366"	"chrome"	"109.0.0"	"FALSE"	"Windows 10"	"60.28"	"001"	n/a	n/a	n/a	n/a	n/a	n/a	"fixation"	n/a	n/a	n/a	n/a	"NULL"	n/a	"NULL"	"NULL"	"NULL"	"<p style=\"color: black; font-size: 80px; padding-left: 47%; padding-right: 3%; padding-top: 14%; padding-bottom: 25%\">+</p>"	"1050"	n/a	n/a	n/a	n/a	n/a	n/a	n/a	n/a	n/a
n/a	"image-keyboard-response"	"78"	"192467"	"0.0-5.0-2.0-1.12"	"vc776p"	"600"	"1366"	"chrome"	"109.0.0"	"FALSE"	"Windows 10"	"60.28"	"001"	n/a	n/a	n/a	n/a	n/a	n/a	"Trial"	n/a	n/a	n/a	"992"	"arrowleft"	n/a	"NULL"	"NULL"	"NULL"	"stimuli/Ebbinghaus_-0.1000_0.15857.png"	n/a	"Ebbinghaus"	"arrowleft"	"1060"	"TRUE"	"Ebbinghaus"	"-0.100000000"	"0.1585700000"	"1"	"31"
n/a	"html-keyboard-response"	"79"	"193552"	"0.0-5.0-2.0-0.13"	"vc776p"	"600"	"1366"	"chrome"	"109.0.0"	"FALSE"	"Windows 10"	"60.28"	"001"	n/a	n/a	n/a	n/a	n/a	n/a	"fixation"	n/a	n/a	n/a	n/a	"NULL"	n/a	"NULL"	"NULL"	"NULL"	"<p style=\"color: black; font-size: 80px; padding-left: 28%; padding-right: 7%; padding-top: 8%; padding-bottom: 4%\">+</p>"	"1072"	n/a	n/a	n/a	n/a	n/a	n/a	n/a	n/a	n/a
n/a	"image-keyboard-response"	"80"	"195403"	"0.0-5.0-2.0-1.13"	"vc776p"	"600"	"1366"	"chrome"	"109.0.0"	"FALSE"	"Windows 10"	"60.28"	"001"	n/a	n/a	n/a	n/a	n/a	n/a	"Trial"	n/a	n/a	n/a	"1849"	"arrowright"	n/a	"NULL"	"NULL"	"NULL"	"stimuli/Ebbinghaus_0.87143_0.11071.png"	n/a	"Ebbinghaus"	"arrowleft"	"1085"	"FALSE"	"Ebbinghaus"	"0.8714300000"	"0.1107100000"	"1"	"32"
n/a	"html-keyboard-response"	"81"	"196491"	"0.0-5.0-2.0-0.14"	"vc776p"	"600"	"1366"	"chrome"	"109.0.0"	"FALSE"	"Windows 10"	"60.28"	"001"	n/a	n/a	n/a	n/a	n/a	n/a	"fixation"	n/a	n/a	n/a	n/a	"NULL"	n/a	"NULL"	"NULL"	"NULL"	"<p style=\"color: black; font-size: 80px; padding-left: 24%; padding-right: 29%; padding-top: 11%; padding-bottom: 47%\">+</p>"	"1077"	n/a	n/a	n/a	n/a	n/a	n/a	n/a	n/a	n/a
n/a	"image-keyboard-response"	"82"	"199161"	"0.0-5.0-2.0-1.14"	"vc776p"	"600"	"1366"	"chrome"	"109.0.0"	"FALSE"	"Windows 10"	"60.28"	"001"	n/a	n/a	n/a	n/a	n/a	n/a	"Trial"	n/a	n/a	n/a	"2669"	"arrowleft"	n/a	"NULL"	"NULL"	"NULL"	"stimuli/Ebbinghaus_0.87143_0.21500.png"	n/a	"Ebbinghaus"	"arrowleft"	"1088"	"TRUE"	"Ebbinghaus"	"0.8714300000"	"0.2150000000"	"1"	"33"
n/a	"html-keyboard-response"	"83"	"200476"	"0.0-5.0-2.0-0.15"	"vc776p"	"600"	"1366"	"chrome"	"109.0.0"	"FALSE"	"Windows 10"	"60.28"	"001"	n/a	n/a	n/a	n/a	n/a	n/a	"fixation"	n/a	n/a	n/a	n/a	"NULL"	n/a	"NULL"	"NULL"	"NULL"	"<p style=\"color: black; font-size: 80px; padding-left: 35%; padding-right: 26%; padding-top: 2%; padding-bottom: 42%\">+</p>"	"1303"	n/a	n/a	n/a	n/a	n/a	n/a	n/a	n/a	n/a
n/a	"image-keyboard-response"	"84"	"202995"	"0.0-5.0-2.0-1.15"	"vc776p"	"600"	"1366"	"chrome"	"109.0.0"	"FALSE"	"Windows 10"	"60.28"	"001"	n/a	n/a	n/a	n/a	n/a	n/a	"Trial"	n/a	n/a	n/a	"2518"	"arrowleft"	n/a	"NULL"	"NULL"	"NULL"	"stimuli/Ebbinghaus_-0.35714_0.15857.png"	n/a	"Ebbinghaus"	"arrowleft"	"1315"	"TRUE"	"Ebbinghaus"	"-0.357140000"	"0.1585700000"	"1"	"34"
n/a	"html-keyboard-response"	"85"	"204477"	"0.0-5.0-2.0-0.16"	"vc776p"	"600"	"1366"	"chrome"	"109.0.0"	"FALSE"	"Windows 10"	"60.28"	"001"	n/a	n/a	n/a	n/a	n/a	n/a	"fixation"	n/a	n/a	n/a	n/a	"NULL"	n/a	"NULL"	"NULL"	"NULL"	"<p style=\"color: black; font-size: 80px; padding-left: 10%; padding-right: 41%; padding-top: 35%; padding-bottom: 39%\">+</p>"	"1470"	n/a	n/a	n/a	n/a	n/a	n/a	n/a	n/a	n/a
n/a	"image-keyboard-response"	"86"	"205256"	"0.0-5.0-2.0-1.16"	"vc776p"	"600"	"1366"	"chrome"	"109.0.0"	"FALSE"	"Windows 10"	"60.28"	"001"	n/a	n/a	n/a	n/a	n/a	n/a	"Trial"	n/a	n/a	n/a	"778"	"arrowright"	n/a	"NULL"	"NULL"	"NULL"	"stimuli/Ebbinghaus_-0.1000_-0.2800.png"	n/a	"Ebbinghaus"	"arrowright"	"1482"	"TRUE"	"Ebbinghaus"	"-0.100000000"	"-0.280000000"	"1"	"35"
n/a	"html-keyboard-response"	"87"	"206665"	"0.0-5.0-2.0-0.17"	"vc776p"	"600"	"1366"	"chrome"	"109.0.0"	"FALSE"	"Windows 10"	"60.28"	"001"	n/a	n/a	n/a	n/a	n/a	n/a	"fixation"	n/a	n/a	n/a	n/a	"NULL"	n/a	"NULL"	"NULL"	"NULL"	"<p style=\"color: black; font-size: 80px; padding-left: 5%; padding-right: 25%; padding-top: 12%; padding-bottom: 25%\">+</p>"	"1402"	n/a	n/a	n/a	n/a	n/a	n/a	n/a	n/a	n/a
n/a	"image-keyboard-response"	"88"	"208014"	"0.0-5.0-2.0-1.17"	"vc776p"	"600"	"1366"	"chrome"	"109.0.0"	"FALSE"	"Windows 10"	"60.28"	"001"	n/a	n/a	n/a	n/a	n/a	n/a	"Trial"	n/a	n/a	n/a	"1347"	"arrowright"	n/a	"NULL"	"NULL"	"NULL"	"stimuli/Ebbinghaus_0.87143_-0.11071.png"	n/a	"Ebbinghaus"	"arrowright"	"1409"	"TRUE"	"Ebbinghaus"	"0.8714300000"	"-0.110710000"	"1"	"36"
n/a	"html-keyboard-response"	"89"	"209245"	"0.0-5.0-2.0-0.18"	"vc776p"	"600"	"1366"	"chrome"	"109.0.0"	"FALSE"	"Windows 10"	"60.28"	"001"	n/a	n/a	n/a	n/a	n/a	n/a	"fixation"	n/a	n/a	n/a	n/a	"NULL"	n/a	"NULL"	"NULL"	"NULL"	"<p style=\"color: black; font-size: 80px; padding-left: 28%; padding-right: 8%; padding-top: 44%; padding-bottom: 28%\">+</p>"	"1215"	n/a	n/a	n/a	n/a	n/a	n/a	n/a	n/a	n/a
n/a	"image-keyboard-response"	"90"	"210379"	"0.0-5.0-2.0-1.18"	"vc776p"	"600"	"1366"	"chrome"	"109.0.0"	"FALSE"	"Windows 10"	"60.28"	"001"	n/a	n/a	n/a	n/a	n/a	n/a	"Trial"	n/a	n/a	n/a	"1133"	"arrowleft"	n/a	"NULL"	"NULL"	"NULL"	"stimuli/Ebbinghaus_0.10000_0.21500.png"	n/a	"Ebbinghaus"	"arrowleft"	"1231"	"TRUE"	"Ebbinghaus"	"0.1000000000"	"0.2150000000"	"1"	"37"
n/a	"html-keyboard-response"	"91"	"211650"	"0.0-5.0-2.0-0.19"	"vc776p"	"600"	"1366"	"chrome"	"109.0.0"	"FALSE"	"Windows 10"	"60.28"	"001"	n/a	n/a	n/a	n/a	n/a	n/a	"fixation"	n/a	n/a	n/a	n/a	"NULL"	n/a	"NULL"	"NULL"	"NULL"	"<p style=\"color: black; font-size: 80px; padding-left: 35%; padding-right: 45%; padding-top: 2%; padding-bottom: 47%\">+</p>"	"1265"	n/a	n/a	n/a	n/a	n/a	n/a	n/a	n/a	n/a
n/a	"image-keyboard-response"	"92"	"212279"	"0.0-5.0-2.0-1.19"	"vc776p"	"600"	"1366"	"chrome"	"109.0.0"	"FALSE"	"Windows 10"	"60.28"	"001"	n/a	n/a	n/a	n/a	n/a	n/a	"Trial"	n/a	n/a	n/a	"627"	"arrowright"	n/a	"NULL"	"NULL"	"NULL"	"stimuli/Ebbinghaus_-0.61429_-0.2800.png"	n/a	"Ebbinghaus"	"arrowright"	"1271"	"TRUE"	"Ebbinghaus"	"-0.614290000"	"-0.280000000"	"1"	"38"
n/a	"html-keyboard-response"	"93"	"213769"	"0.0-5.0-2.0-0.20"	"vc776p"	"600"	"1366"	"chrome"	"109.0.0"	"FALSE"	"Windows 10"	"60.28"	"001"	n/a	n/a	n/a	n/a	n/a	n/a	"fixation"	n/a	n/a	n/a	n/a	"NULL"	n/a	"NULL"	"NULL"	"NULL"	"<p style=\"color: black; font-size: 80px; padding-left: 45%; padding-right: 4%; padding-top: 27%; padding-bottom: 23%\">+</p>"	"1483"	n/a	n/a	n/a	n/a	n/a	n/a	n/a	n/a	n/a
n/a	"image-keyboard-response"	"94"	"214457"	"0.0-5.0-2.0-1.20"	"vc776p"	"600"	"1366"	"chrome"	"109.0.0"	"FALSE"	"Windows 10"	"60.28"	"001"	n/a	n/a	n/a	n/a	n/a	n/a	"Trial"	n/a	n/a	n/a	"686"	"arrowleft"	n/a	"NULL"	"NULL"	"NULL"	"stimuli/Ebbinghaus_-0.1000_0.28000.png"	n/a	"Ebbinghaus"	"arrowleft"	"1490"	"TRUE"	"Ebbinghaus"	"-0.100000000"	"0.2800000000"	"1"	"39"
n/a	"html-keyboard-response"	"95"	"215937"	"0.0-5.0-2.0-0.21"	"vc776p"	"600"	"1366"	"chrome"	"109.0.0"	"FALSE"	"Windows 10"	"60.28"	"001"	n/a	n/a	n/a	n/a	n/a	n/a	"fixation"	n/a	n/a	n/a	n/a	"NULL"	n/a	"NULL"	"NULL"	"NULL"	"<p style=\"color: black; font-size: 80px; padding-left: 21%; padding-right: 40%; padding-top: 39%; padding-bottom: 12%\">+</p>"	"1456"	n/a	n/a	n/a	n/a	n/a	n/a	n/a	n/a	n/a
n/a	"image-keyboard-response"	"96"	"216797"	"0.0-5.0-2.0-1.21"	"vc776p"	"600"	"1366"	"chrome"	"109.0.0"	"FALSE"	"Windows 10"	"60.28"	"001"	n/a	n/a	n/a	n/a	n/a	n/a	"Trial"	n/a	n/a	n/a	"859"	"arrowright"	n/a	"NULL"	"NULL"	"NULL"	"stimuli/Ebbinghaus_-0.1000_-0.2150.png"	n/a	"Ebbinghaus"	"arrowright"	"1480"	"TRUE"	"Ebbinghaus"	"-0.100000000"	"-0.215000000"	"1"	"40"
n/a	"html-keyboard-response"	"97"	"218179"	"0.0-5.0-2.0-0.22"	"vc776p"	"600"	"1366"	"chrome"	"109.0.0"	"FALSE"	"Windows 10"	"60.28"	"001"	n/a	n/a	n/a	n/a	n/a	n/a	"fixation"	n/a	n/a	n/a	n/a	"NULL"	n/a	"NULL"	"NULL"	"NULL"	"<p style=\"color: black; font-size: 80px; padding-left: 30%; padding-right: 24%; padding-top: 4%; padding-bottom: 23%\">+</p>"	"1366"	n/a	n/a	n/a	n/a	n/a	n/a	n/a	n/a	n/a
n/a	"image-keyboard-response"	"98"	"219340"	"0.0-5.0-2.0-1.22"	"vc776p"	"600"	"1366"	"chrome"	"109.0.0"	"FALSE"	"Windows 10"	"60.28"	"001"	n/a	n/a	n/a	n/a	n/a	n/a	"Trial"	n/a	n/a	n/a	"1159"	"arrowright"	n/a	"NULL"	"NULL"	"NULL"	"stimuli/Ebbinghaus_0.87143_-0.2150.png"	n/a	"Ebbinghaus"	"arrowright"	"1382"	"TRUE"	"Ebbinghaus"	"0.8714300000"	"-0.215000000"	"1"	"41"
n/a	"html-keyboard-response"	"99"	"220673"	"0.0-5.0-2.0-0.23"	"vc776p"	"600"	"1366"	"chrome"	"109.0.0"	"FALSE"	"Windows 10"	"60.28"	"001"	n/a	n/a	n/a	n/a	n/a	n/a	"fixation"	n/a	n/a	n/a	n/a	"NULL"	n/a	"NULL"	"NULL"	"NULL"	"<p style=\"color: black; font-size: 80px; padding-left: 37%; padding-right: 13%; padding-top: 32%; padding-bottom: 47%\">+</p>"	"1318"	n/a	n/a	n/a	n/a	n/a	n/a	n/a	n/a	n/a
n/a	"image-keyboard-response"	"100"	"221561"	"0.0-5.0-2.0-1.23"	"vc776p"	"600"	"1366"	"chrome"	"109.0.0"	"FALSE"	"Windows 10"	"60.28"	"001"	n/a	n/a	n/a	n/a	n/a	n/a	"Trial"	n/a	n/a	n/a	"887"	"arrowright"	n/a	"NULL"	"NULL"	"NULL"	"stimuli/Ebbinghaus_-0.61429_-0.11071.png"	n/a	"Ebbinghaus"	"arrowright"	"1333"	"TRUE"	"Ebbinghaus"	"-0.614290000"	"-0.110710000"	"1"	"42"
n/a	"html-keyboard-response"	"101"	"222955"	"0.0-5.0-2.0-0.24"	"vc776p"	"600"	"1366"	"chrome"	"109.0.0"	"FALSE"	"Windows 10"	"60.28"	"001"	n/a	n/a	n/a	n/a	n/a	n/a	"fixation"	n/a	n/a	n/a	n/a	"NULL"	n/a	"NULL"	"NULL"	"NULL"	"<p style=\"color: black; font-size: 80px; padding-left: 2%; padding-right: 21%; padding-top: 44%; padding-bottom: 0%\">+</p>"	"1375"	n/a	n/a	n/a	n/a	n/a	n/a	n/a	n/a	n/a
n/a	"image-keyboard-response"	"102"	"223980"	"0.0-5.0-2.0-1.24"	"vc776p"	"600"	"1366"	"chrome"	"109.0.0"	"FALSE"	"Windows 10"	"60.28"	"001"	n/a	n/a	n/a	n/a	n/a	n/a	"Trial"	n/a	n/a	n/a	"1024"	"arrowleft"	n/a	"NULL"	"NULL"	"NULL"	"stimuli/Ebbinghaus_0.61429_0.21500.png"	n/a	"Ebbinghaus"	"arrowleft"	"1394"	"TRUE"	"Ebbinghaus"	"0.6142900000"	"0.2150000000"	"1"	"43"
n/a	"html-keyboard-response"	"103"	"225056"	"0.0-5.0-2.0-0.25"	"vc776p"	"600"	"1366"	"chrome"	"109.0.0"	"FALSE"	"Windows 10"	"60.28"	"001"	n/a	n/a	n/a	n/a	n/a	n/a	"fixation"	n/a	n/a	n/a	n/a	"NULL"	n/a	"NULL"	"NULL"	"NULL"	"<p style=\"color: black; font-size: 80px; padding-left: 10%; padding-right: 42%; padding-top: 31%; padding-bottom: 34%\">+</p>"	"1070"	n/a	n/a	n/a	n/a	n/a	n/a	n/a	n/a	n/a
n/a	"image-keyboard-response"	"104"	"225720"	"0.0-5.0-2.0-1.25"	"vc776p"	"600"	"1366"	"chrome"	"109.0.0"	"FALSE"	"Windows 10"	"60.28"	"001"	n/a	n/a	n/a	n/a	n/a	n/a	"Trial"	n/a	n/a	n/a	"662"	"arrowleft"	n/a	"NULL"	"NULL"	"NULL"	"stimuli/Ebbinghaus_-0.87143_0.21500.png"	n/a	"Ebbinghaus"	"arrowleft"	"1076"	"TRUE"	"Ebbinghaus"	"-0.871430000"	"0.2150000000"	"1"	"44"
n/a	"html-keyboard-response"	"105"	"226784"	"0.0-5.0-2.0-0.26"	"vc776p"	"600"	"1366"	"chrome"	"109.0.0"	"FALSE"	"Windows 10"	"60.28"	"001"	n/a	n/a	n/a	n/a	n/a	n/a	"fixation"	n/a	n/a	n/a	n/a	"NULL"	n/a	"NULL"	"NULL"	"NULL"	"<p style=\"color: black; font-size: 80px; padding-left: 31%; padding-right: 39%; padding-top: 28%; padding-bottom: 11%\">+</p>"	"1056"	n/a	n/a	n/a	n/a	n/a	n/a	n/a	n/a	n/a
n/a	"image-keyboard-response"	"106"	"227470"	"0.0-5.0-2.0-1.26"	"vc776p"	"600"	"1366"	"chrome"	"109.0.0"	"FALSE"	"Windows 10"	"60.28"	"001"	n/a	n/a	n/a	n/a	n/a	n/a	"Trial"	n/a	n/a	n/a	"684"	"arrowleft"	n/a	"NULL"	"NULL"	"NULL"	"stimuli/Ebbinghaus_-0.35714_0.28000.png"	n/a	"Ebbinghaus"	"arrowleft"	"1064"	"TRUE"	"Ebbinghaus"	"-0.357140000"	"0.2800000000"	"1"	"45"
n/a	"html-keyboard-response"	"107"	"228655"	"0.0-5.0-2.0-0.27"	"vc776p"	"600"	"1366"	"chrome"	"109.0.0"	"FALSE"	"Windows 10"	"60.28"	"001"	n/a	n/a	n/a	n/a	n/a	n/a	"fixation"	n/a	n/a	n/a	n/a	"NULL"	n/a	"NULL"	"NULL"	"NULL"	"<p style=\"color: black; font-size: 80px; padding-left: 34%; padding-right: 20%; padding-top: 41%; padding-bottom: 23%\">+</p>"	"1166"	n/a	n/a	n/a	n/a	n/a	n/a	n/a	n/a	n/a
n/a	"image-keyboard-response"	"108"	"229439"	"0.0-5.0-2.0-1.27"	"vc776p"	"600"	"1366"	"chrome"	"109.0.0"	"FALSE"	"Windows 10"	"60.28"	"001"	n/a	n/a	n/a	n/a	n/a	n/a	"Trial"	n/a	n/a	n/a	"782"	"arrowleft"	n/a	"NULL"	"NULL"	"NULL"	"stimuli/Ebbinghaus_-0.35714_0.11071.png"	n/a	"Ebbinghaus"	"arrowleft"	"1185"	"TRUE"	"Ebbinghaus"	"-0.357140000"	"0.1107100000"	"1"	"46"
n/a	"html-keyboard-response"	"109"	"230456"	"0.0-5.0-2.0-0.28"	"vc776p"	"600"	"1366"	"chrome"	"109.0.0"	"FALSE"	"Windows 10"	"60.28"	"001"	n/a	n/a	n/a	n/a	n/a	n/a	"fixation"	n/a	n/a	n/a	n/a	"NULL"	n/a	"NULL"	"NULL"	"NULL"	"<p style=\"color: black; font-size: 80px; padding-left: 50%; padding-right: 15%; padding-top: 37%; padding-bottom: 46%\">+</p>"	"1005"	n/a	n/a	n/a	n/a	n/a	n/a	n/a	n/a	n/a
n/a	"image-keyboard-response"	"110"	"231099"	"0.0-5.0-2.0-1.28"	"vc776p"	"600"	"1366"	"chrome"	"109.0.0"	"FALSE"	"Windows 10"	"60.28"	"001"	n/a	n/a	n/a	n/a	n/a	n/a	"Trial"	n/a	n/a	n/a	"641"	"arrowright"	n/a	"NULL"	"NULL"	"NULL"	"stimuli/Ebbinghaus_-0.1000_-0.11071.png"	n/a	"Ebbinghaus"	"arrowright"	"1017"	"TRUE"	"Ebbinghaus"	"-0.100000000"	"-0.110710000"	"1"	"47"
n/a	"html-keyboard-response"	"111"	"232573"	"0.0-5.0-2.0-0.29"	"vc776p"	"600"	"1366"	"chrome"	"109.0.0"	"FALSE"	"Windows 10"	"60.28"	"001"	n/a	n/a	n/a	n/a	n/a	n/a	"fixation"	n/a	n/a	n/a	n/a	"NULL"	n/a	"NULL"	"NULL"	"NULL"	"<p style=\"color: black; font-size: 80px; padding-left: 40%; padding-right: 38%; padding-top: 8%; padding-bottom: 9%\">+</p>"	"1466"	n/a	n/a	n/a	n/a	n/a	n/a	n/a	n/a	n/a
n/a	"image-keyboard-response"	"112"	"234744"	"0.0-5.0-2.0-1.29"	"vc776p"	"600"	"1366"	"chrome"	"109.0.0"	"FALSE"	"Windows 10"	"60.28"	"001"	n/a	n/a	n/a	n/a	n/a	n/a	"Trial"	n/a	n/a	n/a	"2170"	"arrowleft"	n/a	"NULL"	"NULL"	"NULL"	"stimuli/Ebbinghaus_0.61429_-0.11071.png"	n/a	"Ebbinghaus"	"arrowright"	"1474"	"FALSE"	"Ebbinghaus"	"0.6142900000"	"-0.110710000"	"1"	"48"
n/a	"html-keyboard-response"	"113"	"235903"	"0.0-5.0-2.0-0.30"	"vc776p"	"600"	"1366"	"chrome"	"109.0.0"	"FALSE"	"Windows 10"	"60.28"	"001"	n/a	n/a	n/a	n/a	n/a	n/a	"fixation"	n/a	n/a	n/a	n/a	"NULL"	n/a	"NULL"	"NULL"	"NULL"	"<p style=\"color: black; font-size: 80px; padding-left: 38%; padding-right: 37%; padding-top: 8%; padding-bottom: 6%\">+</p>"	"1141"	n/a	n/a	n/a	n/a	n/a	n/a	n/a	n/a	n/a
n/a	"image-keyboard-response"	"114"	"236772"	"0.0-5.0-2.0-1.30"	"vc776p"	"600"	"1366"	"chrome"	"109.0.0"	"FALSE"	"Windows 10"	"60.28"	"001"	n/a	n/a	n/a	n/a	n/a	n/a	"Trial"	n/a	n/a	n/a	"868"	"arrowleft"	n/a	"NULL"	"NULL"	"NULL"	"stimuli/Ebbinghaus_-0.61429_0.11071.png"	n/a	"Ebbinghaus"	"arrowleft"	"1159"	"TRUE"	"Ebbinghaus"	"-0.614290000"	"0.1107100000"	"1"	"49"
n/a	"html-keyboard-response"	"115"	"237857"	"0.0-5.0-2.0-0.31"	"vc776p"	"600"	"1366"	"chrome"	"109.0.0"	"FALSE"	"Windows 10"	"60.28"	"001"	n/a	n/a	n/a	n/a	n/a	n/a	"fixation"	n/a	n/a	n/a	n/a	"NULL"	n/a	"NULL"	"NULL"	"NULL"	"<p style=\"color: black; font-size: 80px; padding-left: 37%; padding-right: 20%; padding-top: 29%; padding-bottom: 3%\">+</p>"	"1069"	n/a	n/a	n/a	n/a	n/a	n/a	n/a	n/a	n/a
n/a	"image-keyboard-response"	"116"	"238460"	"0.0-5.0-2.0-1.31"	"vc776p"	"600"	"1366"	"chrome"	"109.0.0"	"FALSE"	"Windows 10"	"60.28"	"001"	n/a	n/a	n/a	n/a	n/a	n/a	"Trial"	n/a	n/a	n/a	"602"	"arrowright"	n/a	"NULL"	"NULL"	"NULL"	"stimuli/Ebbinghaus_0.87143_-0.2800.png"	n/a	"Ebbinghaus"	"arrowright"	"1085"	"TRUE"	"Ebbinghaus"	"0.8714300000"	"-0.280000000"	"1"	"50"
n/a	"html-keyboard-response"	"117"	"239951"	"0.0-5.0-2.0-0.32"	"vc776p"	"600"	"1366"	"chrome"	"109.0.0"	"FALSE"	"Windows 10"	"60.28"	"001"	n/a	n/a	n/a	n/a	n/a	n/a	"fixation"	n/a	n/a	n/a	n/a	"NULL"	n/a	"NULL"	"NULL"	"NULL"	"<p style=\"color: black; font-size: 80px; padding-left: 46%; padding-right: 7%; padding-top: 8%; padding-bottom: 25%\">+</p>"	"1478"	n/a	n/a	n/a	n/a	n/a	n/a	n/a	n/a	n/a
n/a	"image-keyboard-response"	"118"	"241232"	"0.0-5.0-2.0-1.32"	"vc776p"	"600"	"1366"	"chrome"	"109.0.0"	"FALSE"	"Windows 10"	"60.28"	"001"	n/a	n/a	n/a	n/a	n/a	n/a	"Trial"	n/a	n/a	n/a	"1279"	"arrowright"	n/a	"NULL"	"NULL"	"NULL"	"stimuli/Ebbinghaus_0.87143_0.15857.png"	n/a	"Ebbinghaus"	"arrowleft"	"1491"	"FALSE"	"Ebbinghaus"	"0.8714300000"	"0.1585700000"	"1"	"51"
n/a	"html-keyboard-response"	"119"	"242647"	"0.0-5.0-2.0-0.33"	"vc776p"	"600"	"1366"	"chrome"	"109.0.0"	"FALSE"	"Windows 10"	"60.28"	"001"	n/a	n/a	n/a	n/a	n/a	n/a	"fixation"	n/a	n/a	n/a	n/a	"NULL"	n/a	"NULL"	"NULL"	"NULL"	"<p style=\"color: black; font-size: 80px; padding-left: 12%; padding-right: 41%; padding-top: 13%; padding-bottom: 11%\">+</p>"	"1395"	n/a	n/a	n/a	n/a	n/a	n/a	n/a	n/a	n/a
n/a	"image-keyboard-response"	"120"	"243380"	"0.0-5.0-2.0-1.33"	"vc776p"	"600"	"1366"	"chrome"	"109.0.0"	"FALSE"	"Windows 10"	"60.28"	"001"	n/a	n/a	n/a	n/a	n/a	n/a	"Trial"	n/a	n/a	n/a	"731"	"arrowright"	n/a	"NULL"	"NULL"	"NULL"	"stimuli/Ebbinghaus_-0.61429_-0.2150.png"	n/a	"Ebbinghaus"	"arrowright"	"1415"	"TRUE"	"Ebbinghaus"	"-0.614290000"	"-0.215000000"	"1"	"52"
n/a	"html-keyboard-response"	"121"	"244461"	"0.0-5.0-2.0-0.34"	"vc776p"	"600"	"1366"	"chrome"	"109.0.0"	"FALSE"	"Windows 10"	"60.28"	"001"	n/a	n/a	n/a	n/a	n/a	n/a	"fixation"	n/a	n/a	n/a	n/a	"NULL"	n/a	"NULL"	"NULL"	"NULL"	"<p style=\"color: black; font-size: 80px; padding-left: 39%; padding-right: 1%; padding-top: 6%; padding-bottom: 15%\">+</p>"	"1069"	n/a	n/a	n/a	n/a	n/a	n/a	n/a	n/a	n/a
n/a	"image-keyboard-response"	"122"	"245202"	"0.0-5.0-2.0-1.34"	"vc776p"	"600"	"1366"	"chrome"	"109.0.0"	"FALSE"	"Windows 10"	"60.28"	"001"	n/a	n/a	n/a	n/a	n/a	n/a	"Trial"	n/a	n/a	n/a	"739"	"arrowright"	n/a	"NULL"	"NULL"	"NULL"	"stimuli/Ebbinghaus_-0.35714_-0.15857.png"	n/a	"Ebbinghaus"	"arrowright"	"1081"	"TRUE"	"Ebbinghaus"	"-0.357140000"	"-0.158570000"	"1"	"53"
n/a	"html-keyboard-response"	"123"	"246312"	"0.0-5.0-2.0-0.35"	"vc776p"	"600"	"1366"	"chrome"	"109.0.0"	"FALSE"	"Windows 10"	"60.28"	"001"	n/a	n/a	n/a	n/a	n/a	n/a	"fixation"	n/a	n/a	n/a	n/a	"NULL"	n/a	"NULL"	"NULL"	"NULL"	"<p style=\"color: black; font-size: 80px; padding-left: 0%; padding-right: 4%; padding-top: 23%; padding-bottom: 21%\">+</p>"	"1098"	n/a	n/a	n/a	n/a	n/a	n/a	n/a	n/a	n/a
n/a	"image-keyboard-response"	"124"	"246875"	"0.0-5.0-2.0-1.35"	"vc776p"	"600"	"1366"	"chrome"	"109.0.0"	"FALSE"	"Windows 10"	"60.28"	"001"	n/a	n/a	n/a	n/a	n/a	n/a	"Trial"	n/a	n/a	n/a	"562"	"arrowright"	n/a	"NULL"	"NULL"	"NULL"	"stimuli/Ebbinghaus_0.61429_-0.2800.png"	n/a	"Ebbinghaus"	"arrowright"	"1110"	"TRUE"	"Ebbinghaus"	"0.6142900000"	"-0.280000000"	"1"	"54"
n/a	"html-keyboard-response"	"125"	"247915"	"0.0-5.0-2.0-0.36"	"vc776p"	"600"	"1366"	"chrome"	"109.0.0"	"FALSE"	"Windows 10"	"60.28"	"001"	n/a	n/a	n/a	n/a	n/a	n/a	"fixation"	n/a	n/a	n/a	n/a	"NULL"	n/a	"NULL"	"NULL"	"NULL"	"<p style=\"color: black; font-size: 80px; padding-left: 20%; padding-right: 1%; padding-top: 42%; padding-bottom: 19%\">+</p>"	"1017"	n/a	n/a	n/a	n/a	n/a	n/a	n/a	n/a	n/a
n/a	"image-keyboard-response"	"126"	"248715"	"0.0-5.0-2.0-1.36"	"vc776p"	"600"	"1366"	"chrome"	"109.0.0"	"FALSE"	"Windows 10"	"60.28"	"001"	n/a	n/a	n/a	n/a	n/a	n/a	"Trial"	n/a	n/a	n/a	"800"	"arrowright"	n/a	"NULL"	"NULL"	"NULL"	"stimuli/Ebbinghaus_0.10000_-0.2150.png"	n/a	"Ebbinghaus"	"arrowright"	"1040"	"TRUE"	"Ebbinghaus"	"0.1000000000"	"-0.215000000"	"1"	"55"
n/a	"html-keyboard-response"	"127"	"249907"	"0.0-5.0-2.0-0.37"	"vc776p"	"600"	"1366"	"chrome"	"109.0.0"	"FALSE"	"Windows 10"	"60.28"	"001"	n/a	n/a	n/a	n/a	n/a	n/a	"fixation"	n/a	n/a	n/a	n/a	"NULL"	n/a	"NULL"	"NULL"	"NULL"	"<p style=\"color: black; font-size: 80px; padding-left: 36%; padding-right: 42%; padding-top: 24%; padding-bottom: 22%\">+</p>"	"1180"	n/a	n/a	n/a	n/a	n/a	n/a	n/a	n/a	n/a
n/a	"image-keyboard-response"	"128"	"250591"	"0.0-5.0-2.0-1.37"	"vc776p"	"600"	"1366"	"chrome"	"109.0.0"	"FALSE"	"Windows 10"	"60.28"	"001"	n/a	n/a	n/a	n/a	n/a	n/a	"Trial"	n/a	n/a	n/a	"683"	"arrowleft"	n/a	"NULL"	"NULL"	"NULL"	"stimuli/Ebbinghaus_-0.61429_0.21500.png"	n/a	"Ebbinghaus"	"arrowleft"	"1192"	"TRUE"	"Ebbinghaus"	"-0.614290000"	"0.2150000000"	"1"	"56"
n/a	"html-keyboard-response"	"129"	"251939"	"0.0-5.0-2.0-0.38"	"vc776p"	"600"	"1366"	"chrome"	"109.0.0"	"FALSE"	"Windows 10"	"60.28"	"001"	n/a	n/a	n/a	n/a	n/a	n/a	"fixation"	n/a	n/a	n/a	n/a	"NULL"	n/a	"NULL"	"NULL"	"NULL"	"<p style=\"color: black; font-size: 80px; padding-left: 8%; padding-right: 36%; padding-top: 30%; padding-bottom: 0%\">+</p>"	"1332"	n/a	n/a	n/a	n/a	n/a	n/a	n/a	n/a	n/a
n/a	"image-keyboard-response"	"130"	"253174"	"0.0-5.0-2.0-1.38"	"vc776p"	"600"	"1366"	"chrome"	"109.0.0"	"FALSE"	"Windows 10"	"60.28"	"001"	n/a	n/a	n/a	n/a	n/a	n/a	"Trial"	n/a	n/a	n/a	"1233"	"arrowleft"	n/a	"NULL"	"NULL"	"NULL"	"stimuli/Ebbinghaus_0.35714_0.15857.png"	n/a	"Ebbinghaus"	"arrowleft"	"1348"	"TRUE"	"Ebbinghaus"	"0.3571400000"	"0.1585700000"	"1"	"57"
n/a	"html-keyboard-response"	"131"	"254643"	"0.0-5.0-2.0-0.39"	"vc776p"	"600"	"1366"	"chrome"	"109.0.0"	"FALSE"	"Windows 10"	"60.28"	"001"	n/a	n/a	n/a	n/a	n/a	n/a	"fixation"	n/a	n/a	n/a	n/a	"NULL"	n/a	"NULL"	"NULL"	"NULL"	"<p style=\"color: black; font-size: 80px; padding-left: 27%; padding-right: 37%; padding-top: 28%; padding-bottom: 26%\">+</p>"	"1450"	n/a	n/a	n/a	n/a	n/a	n/a	n/a	n/a	n/a
n/a	"image-keyboard-response"	"132"	"256066"	"0.0-5.0-2.0-1.39"	"vc776p"	"600"	"1366"	"chrome"	"109.0.0"	"FALSE"	"Windows 10"	"60.28"	"001"	n/a	n/a	n/a	n/a	n/a	n/a	"Trial"	n/a	n/a	n/a	"1422"	"arrowleft"	n/a	"NULL"	"NULL"	"NULL"	"stimuli/Ebbinghaus_0.10000_0.11071.png"	n/a	"Ebbinghaus"	"arrowleft"	"1469"	"TRUE"	"Ebbinghaus"	"0.1000000000"	"0.1107100000"	"1"	"58"
n/a	"html-keyboard-response"	"133"	"257266"	"0.0-5.0-2.0-0.40"	"vc776p"	"600"	"1366"	"chrome"	"109.0.0"	"FALSE"	"Windows 10"	"60.28"	"001"	n/a	n/a	n/a	n/a	n/a	n/a	"fixation"	n/a	n/a	n/a	n/a	"NULL"	n/a	"NULL"	"NULL"	"NULL"	"<p style=\"color: black; font-size: 80px; padding-left: 10%; padding-right: 27%; padding-top: 39%; padding-bottom: 9%\">+</p>"	"1177"	n/a	n/a	n/a	n/a	n/a	n/a	n/a	n/a	n/a
n/a	"image-keyboard-response"	"134"	"257971"	"0.0-5.0-2.0-1.40"	"vc776p"	"600"	"1366"	"chrome"	"109.0.0"	"FALSE"	"Windows 10"	"60.28"	"001"	n/a	n/a	n/a	n/a	n/a	n/a	"Trial"	n/a	n/a	n/a	"704"	"arrowleft"	n/a	"NULL"	"NULL"	"NULL"	"stimuli/Ebbinghaus_0.87143_0.28000.png"	n/a	"Ebbinghaus"	"arrowleft"	"1200"	"TRUE"	"Ebbinghaus"	"0.8714300000"	"0.2800000000"	"1"	"59"
n/a	"html-keyboard-response"	"135"	"259028"	"0.0-5.0-2.0-0.41"	"vc776p"	"600"	"1366"	"chrome"	"109.0.0"	"FALSE"	"Windows 10"	"60.28"	"001"	n/a	n/a	n/a	n/a	n/a	n/a	"fixation"	n/a	n/a	n/a	n/a	"NULL"	n/a	"NULL"	"NULL"	"NULL"	"<p style=\"color: black; font-size: 80px; padding-left: 11%; padding-right: 29%; padding-top: 1%; padding-bottom: 23%\">+</p>"	"1044"	n/a	n/a	n/a	n/a	n/a	n/a	n/a	n/a	n/a
n/a	"image-keyboard-response"	"136"	"259678"	"0.0-5.0-2.0-1.41"	"vc776p"	"600"	"1366"	"chrome"	"109.0.0"	"FALSE"	"Windows 10"	"60.28"	"001"	n/a	n/a	n/a	n/a	n/a	n/a	"Trial"	n/a	n/a	n/a	"648"	"arrowleft"	n/a	"NULL"	"NULL"	"NULL"	"stimuli/Ebbinghaus_-0.61429_0.28000.png"	n/a	"Ebbinghaus"	"arrowleft"	"1057"	"TRUE"	"Ebbinghaus"	"-0.614290000"	"0.2800000000"	"1"	"60"
n/a	"html-keyboard-response"	"137"	"261137"	"0.0-5.0-2.0-0.42"	"vc776p"	"600"	"1366"	"chrome"	"109.0.0"	"FALSE"	"Windows 10"	"60.28"	"001"	n/a	n/a	n/a	n/a	n/a	n/a	"fixation"	n/a	n/a	n/a	n/a	"NULL"	n/a	"NULL"	"NULL"	"NULL"	"<p style=\"color: black; font-size: 80px; padding-left: 0%; padding-right: 4%; padding-top: 39%; padding-bottom: 40%\">+</p>"	"1445"	n/a	n/a	n/a	n/a	n/a	n/a	n/a	n/a	n/a
n/a	"image-keyboard-response"	"138"	"261664"	"0.0-5.0-2.0-1.42"	"vc776p"	"600"	"1366"	"chrome"	"109.0.0"	"FALSE"	"Windows 10"	"60.28"	"001"	n/a	n/a	n/a	n/a	n/a	n/a	"Trial"	n/a	n/a	n/a	"526"	"arrowleft"	n/a	"NULL"	"NULL"	"NULL"	"stimuli/Ebbinghaus_0.35714_0.11071.png"	n/a	"Ebbinghaus"	"arrowleft"	"1459"	"TRUE"	"Ebbinghaus"	"0.3571400000"	"0.1107100000"	"1"	"61"
n/a	"html-keyboard-response"	"139"	"262739"	"0.0-5.0-2.0-0.43"	"vc776p"	"600"	"1366"	"chrome"	"109.0.0"	"FALSE"	"Windows 10"	"60.28"	"001"	n/a	n/a	n/a	n/a	n/a	n/a	"fixation"	n/a	n/a	n/a	n/a	"NULL"	n/a	"NULL"	"NULL"	"NULL"	"<p style=\"color: black; font-size: 80px; padding-left: 43%; padding-right: 32%; padding-top: 5%; padding-bottom: 8%\">+</p>"	"1060"	n/a	n/a	n/a	n/a	n/a	n/a	n/a	n/a	n/a
n/a	"image-keyboard-response"	"140"	"263304"	"0.0-5.0-2.0-1.43"	"vc776p"	"600"	"1366"	"chrome"	"109.0.0"	"FALSE"	"Windows 10"	"60.28"	"001"	n/a	n/a	n/a	n/a	n/a	n/a	"Trial"	n/a	n/a	n/a	"563"	"arrowleft"	n/a	"NULL"	"NULL"	"NULL"	"stimuli/Ebbinghaus_0.10000_0.28000.png"	n/a	"Ebbinghaus"	"arrowleft"	"1075"	"TRUE"	"Ebbinghaus"	"0.1000000000"	"0.2800000000"	"1"	"62"
n/a	"html-keyboard-response"	"141"	"264686"	"0.0-5.0-2.0-0.44"	"vc776p"	"600"	"1366"	"chrome"	"109.0.0"	"FALSE"	"Windows 10"	"60.28"	"001"	n/a	n/a	n/a	n/a	n/a	n/a	"fixation"	n/a	n/a	n/a	n/a	"NULL"	n/a	"NULL"	"NULL"	"NULL"	"<p style=\"color: black; font-size: 80px; padding-left: 9%; padding-right: 3%; padding-top: 46%; padding-bottom: 40%\">+</p>"	"1377"	n/a	n/a	n/a	n/a	n/a	n/a	n/a	n/a	n/a
n/a	"image-keyboard-response"	"142"	"266537"	"0.0-5.0-2.0-1.44"	"vc776p"	"600"	"1366"	"chrome"	"109.0.0"	"FALSE"	"Windows 10"	"60.28"	"001"	n/a	n/a	n/a	n/a	n/a	n/a	"Trial"	n/a	n/a	n/a	"1850"	"arrowleft"	n/a	"NULL"	"NULL"	"NULL"	"stimuli/Ebbinghaus_0.61429_0.15857.png"	n/a	"Ebbinghaus"	"arrowleft"	"1382"	"TRUE"	"Ebbinghaus"	"0.6142900000"	"0.1585700000"	"1"	"63"
n/a	"html-keyboard-response"	"143"	"267561"	"0.0-5.0-2.0-0.45"	"vc776p"	"600"	"1366"	"chrome"	"109.0.0"	"FALSE"	"Windows 10"	"60.28"	"001"	n/a	n/a	n/a	n/a	n/a	n/a	"fixation"	n/a	n/a	n/a	n/a	"NULL"	n/a	"NULL"	"NULL"	"NULL"	"<p style=\"color: black; font-size: 80px; padding-left: 11%; padding-right: 4%; padding-top: 38%; padding-bottom: 12%\">+</p>"	"1018"	n/a	n/a	n/a	n/a	n/a	n/a	n/a	n/a	n/a
n/a	"image-keyboard-response"	"144"	"268446"	"0.0-5.0-2.0-1.45"	"vc776p"	"600"	"1366"	"chrome"	"109.0.0"	"FALSE"	"Windows 10"	"60.28"	"001"	n/a	n/a	n/a	n/a	n/a	n/a	"Trial"	n/a	n/a	n/a	"883"	"arrowright"	n/a	"NULL"	"NULL"	"NULL"	"stimuli/Ebbinghaus_0.61429_-0.2150.png"	n/a	"Ebbinghaus"	"arrowright"	"1024"	"TRUE"	"Ebbinghaus"	"0.6142900000"	"-0.215000000"	"1"	"64"
n/a	"html-keyboard-response"	"145"	"269514"	"0.0-5.0-2.0-0.46"	"vc776p"	"600"	"1366"	"chrome"	"109.0.0"	"FALSE"	"Windows 10"	"60.28"	"001"	n/a	n/a	n/a	n/a	n/a	n/a	"fixation"	n/a	n/a	n/a	n/a	"NULL"	n/a	"NULL"	"NULL"	"NULL"	"<p style=\"color: black; font-size: 80px; padding-left: 3%; padding-right: 35%; padding-top: 36%; padding-bottom: 28%\">+</p>"	"1052"	n/a	n/a	n/a	n/a	n/a	n/a	n/a	n/a	n/a
n/a	"image-keyboard-response"	"146"	"270193"	"0.0-5.0-2.0-1.46"	"vc776p"	"600"	"1366"	"chrome"	"109.0.0"	"FALSE"	"Windows 10"	"60.28"	"001"	n/a	n/a	n/a	n/a	n/a	n/a	"Trial"	n/a	n/a	n/a	"677"	"arrowright"	n/a	"NULL"	"NULL"	"NULL"	"stimuli/Ebbinghaus_-0.35714_-0.11071.png"	n/a	"Ebbinghaus"	"arrowright"	"1068"	"TRUE"	"Ebbinghaus"	"-0.357140000"	"-0.110710000"	"1"	"65"
n/a	"html-keyboard-response"	"147"	"271281"	"0.0-5.0-2.0-0.47"	"vc776p"	"600"	"1366"	"chrome"	"109.0.0"	"FALSE"	"Windows 10"	"60.28"	"001"	n/a	n/a	n/a	n/a	n/a	n/a	"fixation"	n/a	n/a	n/a	n/a	"NULL"	n/a	"NULL"	"NULL"	"NULL"	"<p style=\"color: black; font-size: 80px; padding-left: 19%; padding-right: 10%; padding-top: 50%; padding-bottom: 45%\">+</p>"	"1078"	n/a	n/a	n/a	n/a	n/a	n/a	n/a	n/a	n/a
n/a	"image-keyboard-response"	"148"	"272027"	"0.0-5.0-2.0-1.47"	"vc776p"	"600"	"1366"	"chrome"	"109.0.0"	"FALSE"	"Windows 10"	"60.28"	"001"	n/a	n/a	n/a	n/a	n/a	n/a	"Trial"	n/a	n/a	n/a	"745"	"arrowright"	n/a	"NULL"	"NULL"	"NULL"	"stimuli/Ebbinghaus_-0.35714_-0.2150.png"	n/a	"Ebbinghaus"	"arrowright"	"1088"	"TRUE"	"Ebbinghaus"	"-0.357140000"	"-0.215000000"	"1"	"66"
n/a	"html-keyboard-response"	"149"	"273368"	"0.0-5.0-2.0-0.48"	"vc776p"	"600"	"1366"	"chrome"	"109.0.0"	"FALSE"	"Windows 10"	"60.28"	"001"	n/a	n/a	n/a	n/a	n/a	n/a	"fixation"	n/a	n/a	n/a	n/a	"NULL"	n/a	"NULL"	"NULL"	"NULL"	"<p style=\"color: black; font-size: 80px; padding-left: 6%; padding-right: 40%; padding-top: 0%; padding-bottom: 33%\">+</p>"	"1326"	n/a	n/a	n/a	n/a	n/a	n/a	n/a	n/a	n/a
n/a	"image-keyboard-response"	"150"	"274597"	"0.0-5.0-2.0-1.48"	"vc776p"	"600"	"1366"	"chrome"	"109.0.0"	"FALSE"	"Windows 10"	"60.28"	"001"	n/a	n/a	n/a	n/a	n/a	n/a	"Trial"	n/a	n/a	n/a	"1228"	"arrowleft"	n/a	"NULL"	"NULL"	"NULL"	"stimuli/Ebbinghaus_-0.1000_0.11071.png"	n/a	"Ebbinghaus"	"arrowleft"	"1341"	"TRUE"	"Ebbinghaus"	"-0.100000000"	"0.1107100000"	"1"	"67"
n/a	"html-keyboard-response"	"151"	"276082"	"0.0-5.0-2.0-0.49"	"vc776p"	"600"	"1366"	"chrome"	"109.0.0"	"FALSE"	"Windows 10"	"60.28"	"001"	n/a	n/a	n/a	n/a	n/a	n/a	"fixation"	n/a	n/a	n/a	n/a	"NULL"	n/a	"NULL"	"NULL"	"NULL"	"<p style=\"color: black; font-size: 80px; padding-left: 23%; padding-right: 21%; padding-top: 46%; padding-bottom: 27%\">+</p>"	"1470"	n/a	n/a	n/a	n/a	n/a	n/a	n/a	n/a	n/a
n/a	"image-keyboard-response"	"152"	"276741"	"0.0-5.0-2.0-1.49"	"vc776p"	"600"	"1366"	"chrome"	"109.0.0"	"FALSE"	"Windows 10"	"60.28"	"001"	n/a	n/a	n/a	n/a	n/a	n/a	"Trial"	n/a	n/a	n/a	"658"	"arrowright"	n/a	"NULL"	"NULL"	"NULL"	"stimuli/Ebbinghaus_0.35714_-0.11071.png"	n/a	"Ebbinghaus"	"arrowright"	"1485"	"TRUE"	"Ebbinghaus"	"0.3571400000"	"-0.110710000"	"1"	"68"
n/a	"html-keyboard-response"	"153"	"277821"	"0.0-5.0-2.0-0.50"	"vc776p"	"600"	"1366"	"chrome"	"109.0.0"	"FALSE"	"Windows 10"	"60.28"	"001"	n/a	n/a	n/a	n/a	n/a	n/a	"fixation"	n/a	n/a	n/a	n/a	"NULL"	n/a	"NULL"	"NULL"	"NULL"	"<p style=\"color: black; font-size: 80px; padding-left: 47%; padding-right: 27%; padding-top: 35%; padding-bottom: 7%\">+</p>"	"1059"	n/a	n/a	n/a	n/a	n/a	n/a	n/a	n/a	n/a
n/a	"image-keyboard-response"	"154"	"278783"	"0.0-5.0-2.0-1.50"	"vc776p"	"600"	"1366"	"chrome"	"109.0.0"	"FALSE"	"Windows 10"	"60.28"	"001"	n/a	n/a	n/a	n/a	n/a	n/a	"Trial"	n/a	n/a	n/a	"960"	"arrowright"	n/a	"NULL"	"NULL"	"NULL"	"stimuli/Ebbinghaus_0.61429_-0.15857.png"	n/a	"Ebbinghaus"	"arrowright"	"1080"	"TRUE"	"Ebbinghaus"	"0.6142900000"	"-0.158570000"	"1"	"69"
n/a	"html-keyboard-response"	"155"	"280091"	"0.0-5.0-2.0-0.51"	"vc776p"	"600"	"1366"	"chrome"	"109.0.0"	"FALSE"	"Windows 10"	"60.28"	"001"	n/a	n/a	n/a	n/a	n/a	n/a	"fixation"	n/a	n/a	n/a	n/a	"NULL"	n/a	"NULL"	"NULL"	"NULL"	"<p style=\"color: black; font-size: 80px; padding-left: 44%; padding-right: 39%; padding-top: 44%; padding-bottom: 44%\">+</p>"	"1297"	n/a	n/a	n/a	n/a	n/a	n/a	n/a	n/a	n/a
n/a	"image-keyboard-response"	"156"	"280762"	"0.0-5.0-2.0-1.51"	"vc776p"	"600"	"1366"	"chrome"	"109.0.0"	"FALSE"	"Windows 10"	"60.28"	"001"	n/a	n/a	n/a	n/a	n/a	n/a	"Trial"	n/a	n/a	n/a	"669"	"arrowright"	n/a	"NULL"	"NULL"	"NULL"	"stimuli/Ebbinghaus_-0.87143_-0.15857.png"	n/a	"Ebbinghaus"	"arrowright"	"1308"	"TRUE"	"Ebbinghaus"	"-0.871430000"	"-0.158570000"	"1"	"70"
n/a	"html-keyboard-response"	"157"	"281810"	"0.0-5.0-2.0-0.52"	"vc776p"	"600"	"1366"	"chrome"	"109.0.0"	"FALSE"	"Windows 10"	"60.28"	"001"	n/a	n/a	n/a	n/a	n/a	n/a	"fixation"	n/a	n/a	n/a	n/a	"NULL"	n/a	"NULL"	"NULL"	"NULL"	"<p style=\"color: black; font-size: 80px; padding-left: 13%; padding-right: 20%; padding-top: 14%; padding-bottom: 37%\">+</p>"	"1043"	n/a	n/a	n/a	n/a	n/a	n/a	n/a	n/a	n/a
n/a	"image-keyboard-response"	"158"	"282904"	"0.0-5.0-2.0-1.52"	"vc776p"	"600"	"1366"	"chrome"	"109.0.0"	"FALSE"	"Windows 10"	"60.28"	"001"	n/a	n/a	n/a	n/a	n/a	n/a	"Trial"	n/a	n/a	n/a	"1092"	"arrowleft"	n/a	"NULL"	"NULL"	"NULL"	"stimuli/Ebbinghaus_-0.35714_0.21500.png"	n/a	"Ebbinghaus"	"arrowleft"	"1048"	"TRUE"	"Ebbinghaus"	"-0.357140000"	"0.2150000000"	"1"	"71"
n/a	"html-keyboard-response"	"159"	"284268"	"0.0-5.0-2.0-0.53"	"vc776p"	"600"	"1366"	"chrome"	"109.0.0"	"FALSE"	"Windows 10"	"60.28"	"001"	n/a	n/a	n/a	n/a	n/a	n/a	"fixation"	n/a	n/a	n/a	n/a	"NULL"	n/a	"NULL"	"NULL"	"NULL"	"<p style=\"color: black; font-size: 80px; padding-left: 48%; padding-right: 24%; padding-top: 32%; padding-bottom: 11%\">+</p>"	"1355"	n/a	n/a	n/a	n/a	n/a	n/a	n/a	n/a	n/a
n/a	"image-keyboard-response"	"160"	"285304"	"0.0-5.0-2.0-1.53"	"vc776p"	"600"	"1366"	"chrome"	"109.0.0"	"FALSE"	"Windows 10"	"60.28"	"001"	n/a	n/a	n/a	n/a	n/a	n/a	"Trial"	n/a	n/a	n/a	"1034"	"arrowleft"	n/a	"NULL"	"NULL"	"NULL"	"stimuli/Ebbinghaus_0.61429_0.28000.png"	n/a	"Ebbinghaus"	"arrowleft"	"1364"	"TRUE"	"Ebbinghaus"	"0.6142900000"	"0.2800000000"	"1"	"72"
n/a	"html-keyboard-response"	"161"	"286587"	"0.0-5.0-2.0-0.54"	"vc776p"	"600"	"1366"	"chrome"	"109.0.0"	"FALSE"	"Windows 10"	"60.28"	"001"	n/a	n/a	n/a	n/a	n/a	n/a	"fixation"	n/a	n/a	n/a	n/a	"NULL"	n/a	"NULL"	"NULL"	"NULL"	"<p style=\"color: black; font-size: 80px; padding-left: 42%; padding-right: 29%; padding-top: 2%; padding-bottom: 13%\">+</p>"	"1268"	n/a	n/a	n/a	n/a	n/a	n/a	n/a	n/a	n/a
n/a	"image-keyboard-response"	"162"	"287529"	"0.0-5.0-2.0-1.54"	"vc776p"	"600"	"1366"	"chrome"	"109.0.0"	"FALSE"	"Windows 10"	"60.28"	"001"	n/a	n/a	n/a	n/a	n/a	n/a	"Trial"	n/a	n/a	n/a	"941"	"arrowleft"	n/a	"NULL"	"NULL"	"NULL"	"stimuli/Ebbinghaus_0.10000_0.15857.png"	n/a	"Ebbinghaus"	"arrowleft"	"1283"	"TRUE"	"Ebbinghaus"	"0.1000000000"	"0.1585700000"	"1"	"73"
n/a	"html-keyboard-response"	"163"	"288769"	"0.0-5.0-2.0-0.55"	"vc776p"	"600"	"1366"	"chrome"	"109.0.0"	"FALSE"	"Windows 10"	"60.28"	"001"	n/a	n/a	n/a	n/a	n/a	n/a	"fixation"	n/a	n/a	n/a	n/a	"NULL"	n/a	"NULL"	"NULL"	"NULL"	"<p style=\"color: black; font-size: 80px; padding-left: 24%; padding-right: 10%; padding-top: 6%; padding-bottom: 41%\">+</p>"	"1221"	n/a	n/a	n/a	n/a	n/a	n/a	n/a	n/a	n/a
n/a	"image-keyboard-response"	"164"	"289384"	"0.0-5.0-2.0-1.55"	"vc776p"	"600"	"1366"	"chrome"	"109.0.0"	"FALSE"	"Windows 10"	"60.28"	"001"	n/a	n/a	n/a	n/a	n/a	n/a	"Trial"	n/a	n/a	n/a	"609"	"arrowright"	n/a	"NULL"	"NULL"	"NULL"	"stimuli/Ebbinghaus_-0.35714_-0.2800.png"	n/a	"Ebbinghaus"	"arrowright"	"1240"	"TRUE"	"Ebbinghaus"	"-0.357140000"	"-0.280000000"	"1"	"74"
n/a	"html-keyboard-response"	"165"	"290876"	"0.0-5.0-2.0-0.56"	"vc776p"	"600"	"1366"	"chrome"	"109.0.0"	"FALSE"	"Windows 10"	"60.28"	"001"	n/a	n/a	n/a	n/a	n/a	n/a	"fixation"	n/a	n/a	n/a	n/a	"NULL"	n/a	"NULL"	"NULL"	"NULL"	"<p style=\"color: black; font-size: 80px; padding-left: 27%; padding-right: 29%; padding-top: 14%; padding-bottom: 34%\">+</p>"	"1472"	n/a	n/a	n/a	n/a	n/a	n/a	n/a	n/a	n/a
n/a	"image-keyboard-response"	"166"	"292148"	"0.0-5.0-2.0-1.56"	"vc776p"	"600"	"1366"	"chrome"	"109.0.0"	"FALSE"	"Windows 10"	"60.28"	"001"	n/a	n/a	n/a	n/a	n/a	n/a	"Trial"	n/a	n/a	n/a	"1271"	"arrowleft"	n/a	"NULL"	"NULL"	"NULL"	"stimuli/Ebbinghaus_0.61429_0.11071.png"	n/a	"Ebbinghaus"	"arrowleft"	"1492"	"TRUE"	"Ebbinghaus"	"0.6142900000"	"0.1107100000"	"1"	"75"
n/a	"html-keyboard-response"	"167"	"293584"	"0.0-5.0-2.0-0.57"	"vc776p"	"600"	"1366"	"chrome"	"109.0.0"	"FALSE"	"Windows 10"	"60.28"	"001"	n/a	n/a	n/a	n/a	n/a	n/a	"fixation"	n/a	n/a	n/a	n/a	"NULL"	n/a	"NULL"	"NULL"	"NULL"	"<p style=\"color: black; font-size: 80px; padding-left: 38%; padding-right: 26%; padding-top: 41%; padding-bottom: 18%\">+</p>"	"1428"	n/a	n/a	n/a	n/a	n/a	n/a	n/a	n/a	n/a
n/a	"image-keyboard-response"	"168"	"294695"	"0.0-5.0-2.0-1.57"	"vc776p"	"600"	"1366"	"chrome"	"109.0.0"	"FALSE"	"Windows 10"	"60.28"	"001"	n/a	n/a	n/a	n/a	n/a	n/a	"Trial"	n/a	n/a	n/a	"1110"	"arrowleft"	n/a	"NULL"	"NULL"	"NULL"	"stimuli/Ebbinghaus_0.35714_0.21500.png"	n/a	"Ebbinghaus"	"arrowleft"	"1436"	"TRUE"	"Ebbinghaus"	"0.3571400000"	"0.2150000000"	"1"	"76"
n/a	"html-keyboard-response"	"169"	"296041"	"0.0-5.0-2.0-0.58"	"vc776p"	"600"	"1366"	"chrome"	"109.0.0"	"FALSE"	"Windows 10"	"60.28"	"001"	n/a	n/a	n/a	n/a	n/a	n/a	"fixation"	n/a	n/a	n/a	n/a	"NULL"	n/a	"NULL"	"NULL"	"NULL"	"<p style=\"color: black; font-size: 80px; padding-left: 16%; padding-right: 40%; padding-top: 13%; padding-bottom: 9%\">+</p>"	"1332"	n/a	n/a	n/a	n/a	n/a	n/a	n/a	n/a	n/a
n/a	"image-keyboard-response"	"170"	"296972"	"0.0-5.0-2.0-1.58"	"vc776p"	"600"	"1366"	"chrome"	"109.0.0"	"FALSE"	"Windows 10"	"60.28"	"001"	n/a	n/a	n/a	n/a	n/a	n/a	"Trial"	n/a	n/a	n/a	"930"	"arrowleft"	n/a	"NULL"	"NULL"	"NULL"	"stimuli/Ebbinghaus_0.35714_0.28000.png"	n/a	"Ebbinghaus"	"arrowleft"	"1346"	"TRUE"	"Ebbinghaus"	"0.3571400000"	"0.2800000000"	"1"	"77"
n/a	"html-keyboard-response"	"171"	"298472"	"0.0-5.0-2.0-0.59"	"vc776p"	"600"	"1366"	"chrome"	"109.0.0"	"FALSE"	"Windows 10"	"60.28"	"001"	n/a	n/a	n/a	n/a	n/a	n/a	"fixation"	n/a	n/a	n/a	n/a	"NULL"	n/a	"NULL"	"NULL"	"NULL"	"<p style=\"color: black; font-size: 80px; padding-left: 46%; padding-right: 49%; padding-top: 8%; padding-bottom: 31%\">+</p>"	"1495"	n/a	n/a	n/a	n/a	n/a	n/a	n/a	n/a	n/a
n/a	"image-keyboard-response"	"172"	"299057"	"0.0-5.0-2.0-1.59"	"vc776p"	"600"	"1366"	"chrome"	"109.0.0"	"FALSE"	"Windows 10"	"60.28"	"001"	n/a	n/a	n/a	n/a	n/a	n/a	"Trial"	n/a	n/a	n/a	"584"	"arrowright"	n/a	"NULL"	"NULL"	"NULL"	"stimuli/Ebbinghaus_0.35714_-0.2800.png"	n/a	"Ebbinghaus"	"arrowright"	"1500"	"TRUE"	"Ebbinghaus"	"0.3571400000"	"-0.280000000"	"1"	"78"
n/a	"html-keyboard-response"	"173"	"300168"	"0.0-5.0-2.0-0.60"	"vc776p"	"600"	"1366"	"chrome"	"109.0.0"	"FALSE"	"Windows 10"	"60.28"	"001"	n/a	n/a	n/a	n/a	n/a	n/a	"fixation"	n/a	n/a	n/a	n/a	"NULL"	n/a	"NULL"	"NULL"	"NULL"	"<p style=\"color: black; font-size: 80px; padding-left: 11%; padding-right: 4%; padding-top: 43%; padding-bottom: 21%\">+</p>"	"1090"	n/a	n/a	n/a	n/a	n/a	n/a	n/a	n/a	n/a
n/a	"image-keyboard-response"	"174"	"300773"	"0.0-5.0-2.0-1.60"	"vc776p"	"600"	"1366"	"chrome"	"109.0.0"	"FALSE"	"Windows 10"	"60.28"	"001"	n/a	n/a	n/a	n/a	n/a	n/a	"Trial"	n/a	n/a	n/a	"603"	"arrowleft"	n/a	"NULL"	"NULL"	"NULL"	"stimuli/Ebbinghaus_-0.87143_0.28000.png"	n/a	"Ebbinghaus"	"arrowleft"	"1111"	"TRUE"	"Ebbinghaus"	"-0.871430000"	"0.2800000000"	"1"	"79"
n/a	"html-keyboard-response"	"175"	"301833"	"0.0-5.0-2.0-0.61"	"vc776p"	"600"	"1366"	"chrome"	"109.0.0"	"FALSE"	"Windows 10"	"60.28"	"001"	n/a	n/a	n/a	n/a	n/a	n/a	"fixation"	n/a	n/a	n/a	n/a	"NULL"	n/a	"NULL"	"NULL"	"NULL"	"<p style=\"color: black; font-size: 80px; padding-left: 35%; padding-right: 33%; padding-top: 9%; padding-bottom: 20%\">+</p>"	"1042"	n/a	n/a	n/a	n/a	n/a	n/a	n/a	n/a	n/a
n/a	"image-keyboard-response"	"176"	"302458"	"0.0-5.0-2.0-1.61"	"vc776p"	"600"	"1366"	"chrome"	"109.0.0"	"FALSE"	"Windows 10"	"60.28"	"001"	n/a	n/a	n/a	n/a	n/a	n/a	"Trial"	n/a	n/a	n/a	"625"	"arrowright"	n/a	"NULL"	"NULL"	"NULL"	"stimuli/Ebbinghaus_0.10000_-0.2800.png"	n/a	"Ebbinghaus"	"arrowright"	"1060"	"TRUE"	"Ebbinghaus"	"0.1000000000"	"-0.280000000"	"1"	"80"
n/a	"html-keyboard-response"	"177"	"303551"	"0.0-5.0-2.0-0.62"	"vc776p"	"600"	"1366"	"chrome"	"109.0.0"	"FALSE"	"Windows 10"	"60.28"	"001"	n/a	n/a	n/a	n/a	n/a	n/a	"fixation"	n/a	n/a	n/a	n/a	"NULL"	n/a	"NULL"	"NULL"	"NULL"	"<p style=\"color: black; font-size: 80px; padding-left: 43%; padding-right: 35%; padding-top: 2%; padding-bottom: 36%\">+</p>"	"1080"	n/a	n/a	n/a	n/a	n/a	n/a	n/a	n/a	n/a
n/a	"image-keyboard-response"	"178"	"304144"	"0.0-5.0-2.0-1.62"	"vc776p"	"600"	"1366"	"chrome"	"109.0.0"	"FALSE"	"Windows 10"	"60.28"	"001"	n/a	n/a	n/a	n/a	n/a	n/a	"Trial"	n/a	n/a	n/a	"592"	"arrowright"	n/a	"NULL"	"NULL"	"NULL"	"stimuli/Ebbinghaus_-0.61429_-0.15857.png"	n/a	"Ebbinghaus"	"arrowright"	"1093"	"TRUE"	"Ebbinghaus"	"-0.614290000"	"-0.158570000"	"1"	"81"
n/a	"html-keyboard-response"	"179"	"305420"	"0.0-5.0-2.0-0.63"	"vc776p"	"600"	"1366"	"chrome"	"109.0.0"	"FALSE"	"Windows 10"	"60.28"	"001"	n/a	n/a	n/a	n/a	n/a	n/a	"fixation"	n/a	n/a	n/a	n/a	"NULL"	n/a	"NULL"	"NULL"	"NULL"	"<p style=\"color: black; font-size: 80px; padding-left: 49%; padding-right: 32%; padding-top: 19%; padding-bottom: 14%\">+</p>"	"1259"	n/a	n/a	n/a	n/a	n/a	n/a	n/a	n/a	n/a
n/a	"image-keyboard-response"	"180"	"305931"	"0.0-5.0-2.0-1.63"	"vc776p"	"600"	"1366"	"chrome"	"109.0.0"	"FALSE"	"Windows 10"	"60.28"	"001"	n/a	n/a	n/a	n/a	n/a	n/a	"Trial"	n/a	n/a	n/a	"510"	"arrowleft"	n/a	"NULL"	"NULL"	"NULL"	"stimuli/Ebbinghaus_-0.87143_0.15857.png"	n/a	"Ebbinghaus"	"arrowleft"	"1276"	"TRUE"	"Ebbinghaus"	"-0.871430000"	"0.1585700000"	"1"	"82"
n/a	"html-button-response"	"181"	"320627"	"0.0-5.0-3.0"	"vc776p"	"600"	"1366"	"chrome"	"109.0.0"	"FALSE"	"Windows 10"	"60.28"	"001"	n/a	n/a	n/a	n/a	n/a	n/a	"block_results"	n/a	n/a	n/a	"14690"	"0"	n/a	"NULL"	"NULL"	"NULL"	"<p>Your score for this illusion is <p style=\"color: black; font-size: 48px; font-weight: bold;\">72.2 %</p><hr><p>Can you do better in the next illusion?</p>"	n/a	n/a	n/a	n/a	n/a	n/a	n/a	n/a	n/a	n/a
"TRUE"	"preload"	"182"	"320800"	"0.0-6.0-0.0"	"vc776p"	"600"	"1366"	"chrome"	"109.0.0"	"FALSE"	"Windows 10"	"60.28"	"001"	n/a	n/a	n/a	n/a	n/a	n/a	n/a	n/a	n/a	n/a	n/a	"NULL"	"FALSE"	"list()"	"list()"	"list()"	n/a	n/a	n/a	n/a	n/a	n/a	n/a	n/a	n/a	n/a	n/a
n/a	"html-keyboard-response"	"183"	"324948"	"0.0-6.0-1.0"	"vc776p"	"600"	"1366"	"chrome"	"109.0.0"	"FALSE"	"Windows 10"	"60.28"	"001"	n/a	n/a	n/a	n/a	n/a	n/a	n/a	n/a	n/a	n/a	"4146"	"enter"	n/a	"NULL"	"NULL"	"NULL"	"<p><b>Part 2/6</b></p><p>In this part, two red lines will appear side by side.</p><p>Your task is to tell <b>which line is longer</b> in length, regardless of their orientation, as fast as you can, and without making errors.</p><p>Don't get distracted by the orientation of the lines!</p><p>Press <b>the LEFT or the RIGHT arrow</b> to indicate which <b>line is the longer one.</b></p><div style='float: center'><img src='materials/instructions/VerticalHorizontal_Demo.png' height='300'></img><p><img src='utils/answer/answer_leftright_keyboard.PNG' height='150'></img></p><p class='small'>In this example, the correct answer is the <b>LEFT arrow</b>.</p></div><p>Are you ready? <b>Press ENTER to start</b></p>"	n/a	n/a	n/a	n/a	n/a	n/a	n/a	n/a	n/a	n/a
n/a	"html-keyboard-response"	"184"	"326527"	"0.0-6.0-2.0-0.0"	"vc776p"	"600"	"1366"	"chrome"	"109.0.0"	"FALSE"	"Windows 10"	"60.28"	"001"	n/a	n/a	n/a	n/a	n/a	n/a	"fixation"	n/a	n/a	n/a	n/a	"NULL"	n/a	"NULL"	"NULL"	"NULL"	"<p style=\"color: black; font-size: 80px; padding-left: 7%; padding-right: 5%; padding-top: 7%; padding-bottom: 48%\">+</p>"	"1047"	n/a	n/a	n/a	n/a	n/a	n/a	n/a	n/a	n/a
n/a	"image-keyboard-response"	"185"	"327055"	"0.0-6.0-2.0-1.0"	"vc776p"	"600"	"1366"	"chrome"	"109.0.0"	"FALSE"	"Windows 10"	"60.28"	"001"	n/a	n/a	n/a	n/a	n/a	n/a	"Trial"	n/a	n/a	n/a	"526"	"arrowleft"	n/a	"NULL"	"NULL"	"NULL"	"stimuli/VerticalHorizontal_-20.27143_0.16217.png"	n/a	"VerticalHorizontal"	"arrowleft"	"1579"	"TRUE"	"VerticalHorizontal"	"-20.27143000"	"0.1621700000"	"2"	"1"
n/a	"html-keyboard-response"	"186"	"328378"	"0.0-6.0-2.0-0.1"	"vc776p"	"600"	"1366"	"chrome"	"109.0.0"	"FALSE"	"Windows 10"	"60.28"	"001"	n/a	n/a	n/a	n/a	n/a	n/a	"fixation"	n/a	n/a	n/a	n/a	"NULL"	n/a	"NULL"	"NULL"	"NULL"	"<p style=\"color: black; font-size: 80px; padding-left: 32%; padding-right: 20%; padding-top: 23%; padding-bottom: 25%\">+</p>"	"1313"	n/a	n/a	n/a	n/a	n/a	n/a	n/a	n/a	n/a
n/a	"image-keyboard-response"	"187"	"328816"	"0.0-6.0-2.0-1.1"	"vc776p"	"600"	"1366"	"chrome"	"109.0.0"	"FALSE"	"Windows 10"	"60.28"	"001"	n/a	n/a	n/a	n/a	n/a	n/a	"Trial"	n/a	n/a	n/a	"436"	"arrowleft"	n/a	"NULL"	"NULL"	"NULL"	"stimuli/VerticalHorizontal_-20.27143_0.06730.png"	n/a	"VerticalHorizontal"	"arrowleft"	"1323"	"TRUE"	"VerticalHorizontal"	"-20.27143000"	"0.0673000000"	"2"	"2"
n/a	"html-keyboard-response"	"188"	"330208"	"0.0-6.0-2.0-0.2"	"vc776p"	"600"	"1366"	"chrome"	"109.0.0"	"FALSE"	"Windows 10"	"60.28"	"001"	n/a	n/a	n/a	n/a	n/a	n/a	"fixation"	n/a	n/a	n/a	n/a	"NULL"	n/a	"NULL"	"NULL"	"NULL"	"<p style=\"color: black; font-size: 80px; padding-left: 44%; padding-right: 16%; padding-top: 29%; padding-bottom: 43%\">+</p>"	"1382"	n/a	n/a	n/a	n/a	n/a	n/a	n/a	n/a	n/a
n/a	"image-keyboard-response"	"189"	"330653"	"0.0-6.0-2.0-1.2"	"vc776p"	"600"	"1366"	"chrome"	"109.0.0"	"FALSE"	"Windows 10"	"60.28"	"001"	n/a	n/a	n/a	n/a	n/a	n/a	"Trial"	n/a	n/a	n/a	"444"	"arrowright"	n/a	"NULL"	"NULL"	"NULL"	"stimuli/VerticalHorizontal_28.75714_0.06730.png"	n/a	"VerticalHorizontal"	"arrowleft"	"1392"	"FALSE"	"VerticalHorizontal"	"28.757140000"	"0.0673000000"	"2"	"3"
n/a	"html-keyboard-response"	"190"	"332161"	"0.0-6.0-2.0-0.3"	"vc776p"	"600"	"1366"	"chrome"	"109.0.0"	"FALSE"	"Windows 10"	"60.28"	"001"	n/a	n/a	n/a	n/a	n/a	n/a	"fixation"	n/a	n/a	n/a	n/a	"NULL"	n/a	"NULL"	"NULL"	"NULL"	"<p style=\"color: black; font-size: 80px; padding-left: 21%; padding-right: 17%; padding-top: 33%; padding-bottom: 10%\">+</p>"	"1496"	n/a	n/a	n/a	n/a	n/a	n/a	n/a	n/a	n/a
n/a	"image-keyboard-response"	"191"	"332795"	"0.0-6.0-2.0-1.3"	"vc776p"	"600"	"1366"	"chrome"	"109.0.0"	"FALSE"	"Windows 10"	"60.28"	"001"	n/a	n/a	n/a	n/a	n/a	n/a	"Trial"	n/a	n/a	n/a	"633"	"arrowright"	n/a	"NULL"	"NULL"	"NULL"	"stimuli/VerticalHorizontal_3.30000_-0.1096.png"	n/a	"VerticalHorizontal"	"arrowright"	"1508"	"TRUE"	"VerticalHorizontal"	"3.3000000000"	"-0.109600000"	"2"	"4"
n/a	"html-keyboard-response"	"192"	"334295"	"0.0-6.0-2.0-0.4"	"vc776p"	"600"	"1366"	"chrome"	"109.0.0"	"FALSE"	"Windows 10"	"60.28"	"001"	n/a	n/a	n/a	n/a	n/a	n/a	"fixation"	n/a	n/a	n/a	n/a	"NULL"	n/a	"NULL"	"NULL"	"NULL"	"<p style=\"color: black; font-size: 80px; padding-left: 29%; padding-right: 18%; padding-top: 7%; padding-bottom: 11%\">+</p>"	"1492"	n/a	n/a	n/a	n/a	n/a	n/a	n/a	n/a	n/a
n/a	"image-keyboard-response"	"193"	"334833"	"0.0-6.0-2.0-1.4"	"vc776p"	"600"	"1366"	"chrome"	"109.0.0"	"FALSE"	"Windows 10"	"60.28"	"001"	n/a	n/a	n/a	n/a	n/a	n/a	"Trial"	n/a	n/a	n/a	"536"	"arrowright"	n/a	"NULL"	"NULL"	"NULL"	"stimuli/VerticalHorizontal_-20.27143_-0.1096.png"	n/a	"VerticalHorizontal"	"arrowright"	"1500"	"TRUE"	"VerticalHorizontal"	"-20.27143000"	"-0.109600000"	"2"	"5"
n/a	"html-keyboard-response"	"194"	"336030"	"0.0-6.0-2.0-0.5"	"vc776p"	"600"	"1366"	"chrome"	"109.0.0"	"FALSE"	"Windows 10"	"60.28"	"001"	n/a	n/a	n/a	n/a	n/a	n/a	"fixation"	n/a	n/a	n/a	n/a	"NULL"	n/a	"NULL"	"NULL"	"NULL"	"<p style=\"color: black; font-size: 80px; padding-left: 45%; padding-right: 48%; padding-top: 5%; padding-bottom: 50%\">+</p>"	"1179"	n/a	n/a	n/a	n/a	n/a	n/a	n/a	n/a	n/a
n/a	"image-keyboard-response"	"195"	"336774"	"0.0-6.0-2.0-1.5"	"vc776p"	"600"	"1366"	"chrome"	"109.0.0"	"FALSE"	"Windows 10"	"60.28"	"001"	n/a	n/a	n/a	n/a	n/a	n/a	"Trial"	n/a	n/a	n/a	"750"	"arrowright"	n/a	"NULL"	"NULL"	"NULL"	"stimuli/VerticalHorizontal_-11.78571_-0.1096.png"	n/a	"VerticalHorizontal"	"arrowright"	"1197"	"TRUE"	"VerticalHorizontal"	"-11.78571000"	"-0.109600000"	"2"	"6"
n/a	"html-keyboard-response"	"196"	"337833"	"0.0-6.0-2.0-0.6"	"vc776p"	"600"	"1366"	"chrome"	"109.0.0"	"FALSE"	"Windows 10"	"60.28"	"001"	n/a	n/a	n/a	n/a	n/a	n/a	"fixation"	n/a	n/a	n/a	n/a	"NULL"	n/a	"NULL"	"NULL"	"NULL"	"<p style=\"color: black; font-size: 80px; padding-left: 13%; padding-right: 29%; padding-top: 30%; padding-bottom: 43%\">+</p>"	"1045"	n/a	n/a	n/a	n/a	n/a	n/a	n/a	n/a	n/a
n/a	"image-keyboard-response"	"197"	"338406"	"0.0-6.0-2.0-1.6"	"vc776p"	"600"	"1366"	"chrome"	"109.0.0"	"FALSE"	"Windows 10"	"60.28"	"001"	n/a	n/a	n/a	n/a	n/a	n/a	"Trial"	n/a	n/a	n/a	"572"	"arrowleft"	n/a	"NULL"	"NULL"	"NULL"	"stimuli/VerticalHorizontal_-3.3000_0.22500.png"	n/a	"VerticalHorizontal"	"arrowleft"	"1059"	"TRUE"	"VerticalHorizontal"	"-3.300000000"	"0.2250000000"	"2"	"7"
n/a	"html-keyboard-response"	"198"	"339578"	"0.0-6.0-2.0-0.7"	"vc776p"	"600"	"1366"	"chrome"	"109.0.0"	"FALSE"	"Windows 10"	"60.28"	"001"	n/a	n/a	n/a	n/a	n/a	n/a	"fixation"	n/a	n/a	n/a	n/a	"NULL"	n/a	"NULL"	"NULL"	"NULL"	"<p style=\"color: black; font-size: 80px; padding-left: 26%; padding-right: 24%; padding-top: 50%; padding-bottom: 34%\">+</p>"	"1158"	n/a	n/a	n/a	n/a	n/a	n/a	n/a	n/a	n/a
n/a	"image-keyboard-response"	"199"	"340070"	"0.0-6.0-2.0-1.7"	"vc776p"	"600"	"1366"	"chrome"	"109.0.0"	"FALSE"	"Windows 10"	"60.28"	"001"	n/a	n/a	n/a	n/a	n/a	n/a	"Trial"	n/a	n/a	n/a	"491"	"arrowright"	n/a	"NULL"	"NULL"	"NULL"	"stimuli/VerticalHorizontal_3.30000_-0.0673.png"	n/a	"VerticalHorizontal"	"arrowright"	"1172"	"TRUE"	"VerticalHorizontal"	"3.3000000000"	"-0.067300000"	"2"	"8"
n/a	"html-keyboard-response"	"200"	"341236"	"0.0-6.0-2.0-0.8"	"vc776p"	"600"	"1366"	"chrome"	"109.0.0"	"FALSE"	"Windows 10"	"60.28"	"001"	n/a	n/a	n/a	n/a	n/a	n/a	"fixation"	n/a	n/a	n/a	n/a	"NULL"	n/a	"NULL"	"NULL"	"NULL"	"<p style=\"color: black; font-size: 80px; padding-left: 34%; padding-right: 44%; padding-top: 1%; padding-bottom: 1%\">+</p>"	"1148"	n/a	n/a	n/a	n/a	n/a	n/a	n/a	n/a	n/a
n/a	"image-keyboard-response"	"201"	"342663"	"0.0-6.0-2.0-1.8"	"vc776p"	"600"	"1366"	"chrome"	"109.0.0"	"FALSE"	"Windows 10"	"60.28"	"001"	n/a	n/a	n/a	n/a	n/a	n/a	"Trial"	n/a	n/a	n/a	"1425"	"arrowleft"	n/a	"NULL"	"NULL"	"NULL"	"stimuli/VerticalHorizontal_11.78571_-0.1096.png"	n/a	"VerticalHorizontal"	"arrowright"	"1166"	"FALSE"	"VerticalHorizontal"	"11.785710000"	"-0.109600000"	"2"	"9"
n/a	"html-keyboard-response"	"202"	"344174"	"0.0-6.0-2.0-0.9"	"vc776p"	"600"	"1366"	"chrome"	"109.0.0"	"FALSE"	"Windows 10"	"60.28"	"001"	n/a	n/a	n/a	n/a	n/a	n/a	"fixation"	n/a	n/a	n/a	n/a	"NULL"	n/a	"NULL"	"NULL"	"NULL"	"<p style=\"color: black; font-size: 80px; padding-left: 31%; padding-right: 41%; padding-top: 5%; padding-bottom: 14%\">+</p>"	"1494"	n/a	n/a	n/a	n/a	n/a	n/a	n/a	n/a	n/a
n/a	"image-keyboard-response"	"203"	"344713"	"0.0-6.0-2.0-1.9"	"vc776p"	"600"	"1366"	"chrome"	"109.0.0"	"FALSE"	"Windows 10"	"60.28"	"001"	n/a	n/a	n/a	n/a	n/a	n/a	"Trial"	n/a	n/a	n/a	"537"	"arrowleft"	n/a	"NULL"	"NULL"	"NULL"	"stimuli/VerticalHorizontal_-20.27143_0.22500.png"	n/a	"VerticalHorizontal"	"arrowleft"	"1511"	"TRUE"	"VerticalHorizontal"	"-20.27143000"	"0.2250000000"	"2"	"10"
n/a	"html-keyboard-response"	"204"	"346051"	"0.0-6.0-2.0-0.10"	"vc776p"	"600"	"1366"	"chrome"	"109.0.0"	"FALSE"	"Windows 10"	"60.28"	"001"	n/a	n/a	n/a	n/a	n/a	n/a	"fixation"	n/a	n/a	n/a	n/a	"NULL"	n/a	"NULL"	"NULL"	"NULL"	"<p style=\"color: black; font-size: 80px; padding-left: 36%; padding-right: 19%; padding-top: 16%; padding-bottom: 48%\">+</p>"	"1331"	n/a	n/a	n/a	n/a	n/a	n/a	n/a	n/a	n/a
n/a	"image-keyboard-response"	"205"	"346598"	"0.0-6.0-2.0-1.10"	"vc776p"	"600"	"1366"	"chrome"	"109.0.0"	"FALSE"	"Windows 10"	"60.28"	"001"	n/a	n/a	n/a	n/a	n/a	n/a	"Trial"	n/a	n/a	n/a	"546"	"arrowright"	n/a	"NULL"	"NULL"	"NULL"	"stimuli/VerticalHorizontal_11.78571_-0.16217.png"	n/a	"VerticalHorizontal"	"arrowright"	"1338"	"TRUE"	"VerticalHorizontal"	"11.785710000"	"-0.162170000"	"2"	"11"
n/a	"html-keyboard-response"	"206"	"347785"	"0.0-6.0-2.0-0.11"	"vc776p"	"600"	"1366"	"chrome"	"109.0.0"	"FALSE"	"Windows 10"	"60.28"	"001"	n/a	n/a	n/a	n/a	n/a	n/a	"fixation"	n/a	n/a	n/a	n/a	"NULL"	n/a	"NULL"	"NULL"	"NULL"	"<p style=\"color: black; font-size: 80px; padding-left: 42%; padding-right: 29%; padding-top: 20%; padding-bottom: 3%\">+</p>"	"1173"	n/a	n/a	n/a	n/a	n/a	n/a	n/a	n/a	n/a
n/a	"image-keyboard-response"	"207"	"348856"	"0.0-6.0-2.0-1.11"	"vc776p"	"600"	"1366"	"chrome"	"109.0.0"	"FALSE"	"Windows 10"	"60.28"	"001"	n/a	n/a	n/a	n/a	n/a	n/a	"Trial"	n/a	n/a	n/a	"1069"	"arrowright"	n/a	"NULL"	"NULL"	"NULL"	"stimuli/VerticalHorizontal_28.75714_0.10960.png"	n/a	"VerticalHorizontal"	"arrowleft"	"1187"	"FALSE"	"VerticalHorizontal"	"28.757140000"	"0.1096000000"	"2"	"12"
n/a	"html-keyboard-response"	"208"	"350294"	"0.0-6.0-2.0-0.12"	"vc776p"	"600"	"1366"	"chrome"	"109.0.0"	"FALSE"	"Windows 10"	"60.28"	"001"	n/a	n/a	n/a	n/a	n/a	n/a	"fixation"	n/a	n/a	n/a	n/a	"NULL"	n/a	"NULL"	"NULL"	"NULL"	"<p style=\"color: black; font-size: 80px; padding-left: 15%; padding-right: 9%; padding-top: 43%; padding-bottom: 35%\">+</p>"	"1425"	n/a	n/a	n/a	n/a	n/a	n/a	n/a	n/a	n/a
n/a	"image-keyboard-response"	"209"	"350823"	"0.0-6.0-2.0-1.12"	"vc776p"	"600"	"1366"	"chrome"	"109.0.0"	"FALSE"	"Windows 10"	"60.28"	"001"	n/a	n/a	n/a	n/a	n/a	n/a	"Trial"	n/a	n/a	n/a	"528"	"arrowright"	n/a	"NULL"	"NULL"	"NULL"	"stimuli/VerticalHorizontal_-20.27143_-0.2250.png"	n/a	"VerticalHorizontal"	"arrowright"	"1438"	"TRUE"	"VerticalHorizontal"	"-20.27143000"	"-0.225000000"	"2"	"13"
n/a	"html-keyboard-response"	"210"	"352239"	"0.0-6.0-2.0-0.13"	"vc776p"	"600"	"1366"	"chrome"	"109.0.0"	"FALSE"	"Windows 10"	"60.28"	"001"	n/a	n/a	n/a	n/a	n/a	n/a	"fixation"	n/a	n/a	n/a	n/a	"NULL"	n/a	"NULL"	"NULL"	"NULL"	"<p style=\"color: black; font-size: 80px; padding-left: 39%; padding-right: 50%; padding-top: 39%; padding-bottom: 10%\">+</p>"	"1408"	n/a	n/a	n/a	n/a	n/a	n/a	n/a	n/a	n/a
n/a	"image-keyboard-response"	"211"	"352879"	"0.0-6.0-2.0-1.13"	"vc776p"	"600"	"1366"	"chrome"	"109.0.0"	"FALSE"	"Windows 10"	"60.28"	"001"	n/a	n/a	n/a	n/a	n/a	n/a	"Trial"	n/a	n/a	n/a	"639"	"arrowright"	n/a	"NULL"	"NULL"	"NULL"	"stimuli/VerticalHorizontal_-20.27143_-0.0673.png"	n/a	"VerticalHorizontal"	"arrowright"	"1416"	"TRUE"	"VerticalHorizontal"	"-20.27143000"	"-0.067300000"	"2"	"14"
n/a	"html-keyboard-response"	"212"	"354036"	"0.0-6.0-2.0-0.14"	"vc776p"	"600"	"1366"	"chrome"	"109.0.0"	"FALSE"	"Windows 10"	"60.28"	"001"	n/a	n/a	n/a	n/a	n/a	n/a	"fixation"	n/a	n/a	n/a	n/a	"NULL"	n/a	"NULL"	"NULL"	"NULL"	"<p style=\"color: black; font-size: 80px; padding-left: 35%; padding-right: 6%; padding-top: 25%; padding-bottom: 1%\">+</p>"	"1142"	n/a	n/a	n/a	n/a	n/a	n/a	n/a	n/a	n/a
n/a	"image-keyboard-response"	"213"	"356031"	"0.0-6.0-2.0-1.14"	"vc776p"	"600"	"1366"	"chrome"	"109.0.0"	"FALSE"	"Windows 10"	"60.28"	"001"	n/a	n/a	n/a	n/a	n/a	n/a	"Trial"	n/a	n/a	n/a	"1993"	"arrowright"	n/a	"NULL"	"NULL"	"NULL"	"stimuli/VerticalHorizontal_-3.3000_-0.1096.png"	n/a	"VerticalHorizontal"	"arrowright"	"1157"	"TRUE"	"VerticalHorizontal"	"-3.300000000"	"-0.109600000"	"2"	"15"
n/a	"html-keyboard-response"	"214"	"357373"	"0.0-6.0-2.0-0.15"	"vc776p"	"600"	"1366"	"chrome"	"109.0.0"	"FALSE"	"Windows 10"	"60.28"	"001"	n/a	n/a	n/a	n/a	n/a	n/a	"fixation"	n/a	n/a	n/a	n/a	"NULL"	n/a	"NULL"	"NULL"	"NULL"	"<p style=\"color: black; font-size: 80px; padding-left: 22%; padding-right: 25%; padding-top: 37%; padding-bottom: 37%\">+</p>"	"1331"	n/a	n/a	n/a	n/a	n/a	n/a	n/a	n/a	n/a
n/a	"image-keyboard-response"	"215"	"357978"	"0.0-6.0-2.0-1.15"	"vc776p"	"600"	"1366"	"chrome"	"109.0.0"	"FALSE"	"Windows 10"	"60.28"	"001"	n/a	n/a	n/a	n/a	n/a	n/a	"Trial"	n/a	n/a	n/a	"603"	"arrowright"	n/a	"NULL"	"NULL"	"NULL"	"stimuli/VerticalHorizontal_-28.75714_-0.0673.png"	n/a	"VerticalHorizontal"	"arrowright"	"1342"	"TRUE"	"VerticalHorizontal"	"-28.75714000"	"-0.067300000"	"2"	"16"
n/a	"html-keyboard-response"	"216"	"359163"	"0.0-6.0-2.0-0.16"	"vc776p"	"600"	"1366"	"chrome"	"109.0.0"	"FALSE"	"Windows 10"	"60.28"	"001"	n/a	n/a	n/a	n/a	n/a	n/a	"fixation"	n/a	n/a	n/a	n/a	"NULL"	n/a	"NULL"	"NULL"	"NULL"	"<p style=\"color: black; font-size: 80px; padding-left: 49%; padding-right: 36%; padding-top: 39%; padding-bottom: 10%\">+</p>"	"1169"	n/a	n/a	n/a	n/a	n/a	n/a	n/a	n/a	n/a
n/a	"image-keyboard-response"	"217"	"359855"	"0.0-6.0-2.0-1.16"	"vc776p"	"600"	"1366"	"chrome"	"109.0.0"	"FALSE"	"Windows 10"	"60.28"	"001"	n/a	n/a	n/a	n/a	n/a	n/a	"Trial"	n/a	n/a	n/a	"691"	"arrowleft"	n/a	"NULL"	"NULL"	"NULL"	"stimuli/VerticalHorizontal_20.27143_0.22500.png"	n/a	"VerticalHorizontal"	"arrowleft"	"1185"	"TRUE"	"VerticalHorizontal"	"20.271430000"	"0.2250000000"	"2"	"17"
n/a	"html-keyboard-response"	"218"	"361046"	"0.0-6.0-2.0-0.17"	"vc776p"	"600"	"1366"	"chrome"	"109.0.0"	"FALSE"	"Windows 10"	"60.28"	"001"	n/a	n/a	n/a	n/a	n/a	n/a	"fixation"	n/a	n/a	n/a	n/a	"NULL"	n/a	"NULL"	"NULL"	"NULL"	"<p style=\"color: black; font-size: 80px; padding-left: 5%; padding-right: 2%; padding-top: 28%; padding-bottom: 21%\">+</p>"	"1181"	n/a	n/a	n/a	n/a	n/a	n/a	n/a	n/a	n/a
n/a	"image-keyboard-response"	"219"	"361540"	"0.0-6.0-2.0-1.17"	"vc776p"	"600"	"1366"	"chrome"	"109.0.0"	"FALSE"	"Windows 10"	"60.28"	"001"	n/a	n/a	n/a	n/a	n/a	n/a	"Trial"	n/a	n/a	n/a	"491"	"arrowright"	n/a	"NULL"	"NULL"	"NULL"	"stimuli/VerticalHorizontal_-28.75714_-0.1096.png"	n/a	"VerticalHorizontal"	"arrowright"	"1191"	"TRUE"	"VerticalHorizontal"	"-28.75714000"	"-0.109600000"	"2"	"18"
n/a	"html-keyboard-response"	"220"	"362905"	"0.0-6.0-2.0-0.18"	"vc776p"	"600"	"1366"	"chrome"	"109.0.0"	"FALSE"	"Windows 10"	"60.28"	"001"	n/a	n/a	n/a	n/a	n/a	n/a	"fixation"	n/a	n/a	n/a	n/a	"NULL"	n/a	"NULL"	"NULL"	"NULL"	"<p style=\"color: black; font-size: 80px; padding-left: 4%; padding-right: 49%; padding-top: 46%; padding-bottom: 32%\">+</p>"	"1361"	n/a	n/a	n/a	n/a	n/a	n/a	n/a	n/a	n/a
n/a	"image-keyboard-response"	"221"	"363960"	"0.0-6.0-2.0-1.18"	"vc776p"	"600"	"1366"	"chrome"	"109.0.0"	"FALSE"	"Windows 10"	"60.28"	"001"	n/a	n/a	n/a	n/a	n/a	n/a	"Trial"	n/a	n/a	n/a	"1054"	"arrowleft"	n/a	"NULL"	"NULL"	"NULL"	"stimuli/VerticalHorizontal_20.27143_0.10960.png"	n/a	"VerticalHorizontal"	"arrowleft"	"1365"	"TRUE"	"VerticalHorizontal"	"20.271430000"	"0.1096000000"	"2"	"19"
n/a	"html-keyboard-response"	"222"	"365064"	"0.0-6.0-2.0-0.19"	"vc776p"	"600"	"1366"	"chrome"	"109.0.0"	"FALSE"	"Windows 10"	"60.28"	"001"	n/a	n/a	n/a	n/a	n/a	n/a	"fixation"	n/a	n/a	n/a	n/a	"NULL"	n/a	"NULL"	"NULL"	"NULL"	"<p style=\"color: black; font-size: 80px; padding-left: 37%; padding-right: 25%; padding-top: 3%; padding-bottom: 8%\">+</p>"	"1088"	n/a	n/a	n/a	n/a	n/a	n/a	n/a	n/a	n/a
n/a	"image-keyboard-response"	"223"	"365645"	"0.0-6.0-2.0-1.19"	"vc776p"	"600"	"1366"	"chrome"	"109.0.0"	"FALSE"	"Windows 10"	"60.28"	"001"	n/a	n/a	n/a	n/a	n/a	n/a	"Trial"	n/a	n/a	n/a	"579"	"arrowleft"	n/a	"NULL"	"NULL"	"NULL"	"stimuli/VerticalHorizontal_3.30000_0.16217.png"	n/a	"VerticalHorizontal"	"arrowleft"	"1104"	"TRUE"	"VerticalHorizontal"	"3.3000000000"	"0.1621700000"	"2"	"20"
n/a	"html-keyboard-response"	"224"	"367126"	"0.0-6.0-2.0-0.20"	"vc776p"	"600"	"1366"	"chrome"	"109.0.0"	"FALSE"	"Windows 10"	"60.28"	"001"	n/a	n/a	n/a	n/a	n/a	n/a	"fixation"	n/a	n/a	n/a	n/a	"NULL"	n/a	"NULL"	"NULL"	"NULL"	"<p style=\"color: black; font-size: 80px; padding-left: 21%; padding-right: 13%; padding-top: 0%; padding-bottom: 12%\">+</p>"	"1464"	n/a	n/a	n/a	n/a	n/a	n/a	n/a	n/a	n/a
n/a	"image-keyboard-response"	"225"	"367848"	"0.0-6.0-2.0-1.20"	"vc776p"	"600"	"1366"	"chrome"	"109.0.0"	"FALSE"	"Windows 10"	"60.28"	"001"	n/a	n/a	n/a	n/a	n/a	n/a	"Trial"	n/a	n/a	n/a	"720"	"arrowright"	n/a	"NULL"	"NULL"	"NULL"	"stimuli/VerticalHorizontal_28.75714_0.16217.png"	n/a	"VerticalHorizontal"	"arrowleft"	"1481"	"FALSE"	"VerticalHorizontal"	"28.757140000"	"0.1621700000"	"2"	"21"
n/a	"html-keyboard-response"	"226"	"369033"	"0.0-6.0-2.0-0.21"	"vc776p"	"600"	"1366"	"chrome"	"109.0.0"	"FALSE"	"Windows 10"	"60.28"	"001"	n/a	n/a	n/a	n/a	n/a	n/a	"fixation"	n/a	n/a	n/a	n/a	"NULL"	n/a	"NULL"	"NULL"	"NULL"	"<p style=\"color: black; font-size: 80px; padding-left: 22%; padding-right: 20%; padding-top: 6%; padding-bottom: 36%\">+</p>"	"1172"	n/a	n/a	n/a	n/a	n/a	n/a	n/a	n/a	n/a
n/a	"image-keyboard-response"	"227"	"369507"	"0.0-6.0-2.0-1.21"	"vc776p"	"600"	"1366"	"chrome"	"109.0.0"	"FALSE"	"Windows 10"	"60.28"	"001"	n/a	n/a	n/a	n/a	n/a	n/a	"Trial"	n/a	n/a	n/a	"473"	"arrowleft"	n/a	"NULL"	"NULL"	"NULL"	"stimuli/VerticalHorizontal_-28.75714_0.06730.png"	n/a	"VerticalHorizontal"	"arrowleft"	"1185"	"TRUE"	"VerticalHorizontal"	"-28.75714000"	"0.0673000000"	"2"	"22"
n/a	"html-keyboard-response"	"228"	"370940"	"0.0-6.0-2.0-0.22"	"vc776p"	"600"	"1366"	"chrome"	"109.0.0"	"FALSE"	"Windows 10"	"60.28"	"001"	n/a	n/a	n/a	n/a	n/a	n/a	"fixation"	n/a	n/a	n/a	n/a	"NULL"	n/a	"NULL"	"NULL"	"NULL"	"<p style=\"color: black; font-size: 80px; padding-left: 49%; padding-right: 20%; padding-top: 12%; padding-bottom: 19%\">+</p>"	"1414"	n/a	n/a	n/a	n/a	n/a	n/a	n/a	n/a	n/a
n/a	"image-keyboard-response"	"229"	"371788"	"0.0-6.0-2.0-1.22"	"vc776p"	"600"	"1366"	"chrome"	"109.0.0"	"FALSE"	"Windows 10"	"60.28"	"001"	n/a	n/a	n/a	n/a	n/a	n/a	"Trial"	n/a	n/a	n/a	"847"	"arrowleft"	n/a	"NULL"	"NULL"	"NULL"	"stimuli/VerticalHorizontal_28.75714_0.22500.png"	n/a	"VerticalHorizontal"	"arrowleft"	"1433"	"TRUE"	"VerticalHorizontal"	"28.757140000"	"0.2250000000"	"2"	"23"
n/a	"html-keyboard-response"	"230"	"372886"	"0.0-6.0-2.0-0.23"	"vc776p"	"600"	"1366"	"chrome"	"109.0.0"	"FALSE"	"Windows 10"	"60.28"	"001"	n/a	n/a	n/a	n/a	n/a	n/a	"fixation"	n/a	n/a	n/a	n/a	"NULL"	n/a	"NULL"	"NULL"	"NULL"	"<p style=\"color: black; font-size: 80px; padding-left: 46%; padding-right: 28%; padding-top: 45%; padding-bottom: 28%\">+</p>"	"1089"	n/a	n/a	n/a	n/a	n/a	n/a	n/a	n/a	n/a
n/a	"image-keyboard-response"	"231"	"374492"	"0.0-6.0-2.0-1.23"	"vc776p"	"600"	"1366"	"chrome"	"109.0.0"	"FALSE"	"Windows 10"	"60.28"	"001"	n/a	n/a	n/a	n/a	n/a	n/a	"Trial"	n/a	n/a	n/a	"1605"	"arrowleft"	n/a	"NULL"	"NULL"	"NULL"	"stimuli/VerticalHorizontal_-11.78571_-0.0673.png"	n/a	"VerticalHorizontal"	"arrowright"	"1098"	"FALSE"	"VerticalHorizontal"	"-11.78571000"	"-0.067300000"	"2"	"24"
n/a	"html-keyboard-response"	"232"	"375590"	"0.0-6.0-2.0-0.24"	"vc776p"	"600"	"1366"	"chrome"	"109.0.0"	"FALSE"	"Windows 10"	"60.28"	"001"	n/a	n/a	n/a	n/a	n/a	n/a	"fixation"	n/a	n/a	n/a	n/a	"NULL"	n/a	"NULL"	"NULL"	"NULL"	"<p style=\"color: black; font-size: 80px; padding-left: 23%; padding-right: 46%; padding-top: 48%; padding-bottom: 1%\">+</p>"	"1090"	n/a	n/a	n/a	n/a	n/a	n/a	n/a	n/a	n/a
n/a	"image-keyboard-response"	"233"	"376116"	"0.0-6.0-2.0-1.24"	"vc776p"	"600"	"1366"	"chrome"	"109.0.0"	"FALSE"	"Windows 10"	"60.28"	"001"	n/a	n/a	n/a	n/a	n/a	n/a	"Trial"	n/a	n/a	n/a	"524"	"arrowleft"	n/a	"NULL"	"NULL"	"NULL"	"stimuli/VerticalHorizontal_-28.75714_0.22500.png"	n/a	"VerticalHorizontal"	"arrowleft"	"1098"	"TRUE"	"VerticalHorizontal"	"-28.75714000"	"0.2250000000"	"2"	"25"
n/a	"html-keyboard-response"	"234"	"377294"	"0.0-6.0-2.0-0.25"	"vc776p"	"600"	"1366"	"chrome"	"109.0.0"	"FALSE"	"Windows 10"	"60.28"	"001"	n/a	n/a	n/a	n/a	n/a	n/a	"fixation"	n/a	n/a	n/a	n/a	"NULL"	n/a	"NULL"	"NULL"	"NULL"	"<p style=\"color: black; font-size: 80px; padding-left: 13%; padding-right: 11%; padding-top: 48%; padding-bottom: 36%\">+</p>"	"1158"	n/a	n/a	n/a	n/a	n/a	n/a	n/a	n/a	n/a
n/a	"image-keyboard-response"	"235"	"378378"	"0.0-6.0-2.0-1.25"	"vc776p"	"600"	"1366"	"chrome"	"109.0.0"	"FALSE"	"Windows 10"	"60.28"	"001"	n/a	n/a	n/a	n/a	n/a	n/a	"Trial"	n/a	n/a	n/a	"1083"	"arrowleft"	n/a	"NULL"	"NULL"	"NULL"	"stimuli/VerticalHorizontal_20.27143_-0.0673.png"	n/a	"VerticalHorizontal"	"arrowright"	"1178"	"FALSE"	"VerticalHorizontal"	"20.271430000"	"-0.067300000"	"2"	"26"
n/a	"html-keyboard-response"	"236"	"379549"	"0.0-6.0-2.0-0.26"	"vc776p"	"600"	"1366"	"chrome"	"109.0.0"	"FALSE"	"Windows 10"	"60.28"	"001"	n/a	n/a	n/a	n/a	n/a	n/a	"fixation"	n/a	n/a	n/a	n/a	"NULL"	n/a	"NULL"	"NULL"	"NULL"	"<p style=\"color: black; font-size: 80px; padding-left: 42%; padding-right: 22%; padding-top: 26%; padding-bottom: 32%\">+</p>"	"1152"	n/a	n/a	n/a	n/a	n/a	n/a	n/a	n/a	n/a
n/a	"image-keyboard-response"	"237"	"380077"	"0.0-6.0-2.0-1.26"	"vc776p"	"600"	"1366"	"chrome"	"109.0.0"	"FALSE"	"Windows 10"	"60.28"	"001"	n/a	n/a	n/a	n/a	n/a	n/a	"Trial"	n/a	n/a	n/a	"526"	"arrowright"	n/a	"NULL"	"NULL"	"NULL"	"stimuli/VerticalHorizontal_11.78571_-0.2250.png"	n/a	"VerticalHorizontal"	"arrowright"	"1171"	"TRUE"	"VerticalHorizontal"	"11.785710000"	"-0.225000000"	"2"	"27"
n/a	"html-keyboard-response"	"238"	"381466"	"0.0-6.0-2.0-0.27"	"vc776p"	"600"	"1366"	"chrome"	"109.0.0"	"FALSE"	"Windows 10"	"60.28"	"001"	n/a	n/a	n/a	n/a	n/a	n/a	"fixation"	n/a	n/a	n/a	n/a	"NULL"	n/a	"NULL"	"NULL"	"NULL"	"<p style=\"color: black; font-size: 80px; padding-left: 7%; padding-right: 36%; padding-top: 19%; padding-bottom: 18%\">+</p>"	"1374"	n/a	n/a	n/a	n/a	n/a	n/a	n/a	n/a	n/a
n/a	"image-keyboard-response"	"239"	"382157"	"0.0-6.0-2.0-1.27"	"vc776p"	"600"	"1366"	"chrome"	"109.0.0"	"FALSE"	"Windows 10"	"60.28"	"001"	n/a	n/a	n/a	n/a	n/a	n/a	"Trial"	n/a	n/a	n/a	"689"	"arrowleft"	n/a	"NULL"	"NULL"	"NULL"	"stimuli/VerticalHorizontal_-3.3000_0.10960.png"	n/a	"VerticalHorizontal"	"arrowleft"	"1389"	"TRUE"	"VerticalHorizontal"	"-3.300000000"	"0.1096000000"	"2"	"28"
n/a	"html-keyboard-response"	"240"	"383530"	"0.0-6.0-2.0-0.28"	"vc776p"	"600"	"1366"	"chrome"	"109.0.0"	"FALSE"	"Windows 10"	"60.28"	"001"	n/a	n/a	n/a	n/a	n/a	n/a	"fixation"	n/a	n/a	n/a	n/a	"NULL"	n/a	"NULL"	"NULL"	"NULL"	"<p style=\"color: black; font-size: 80px; padding-left: 14%; padding-right: 34%; padding-top: 7%; padding-bottom: 15%\">+</p>"	"1349"	n/a	n/a	n/a	n/a	n/a	n/a	n/a	n/a	n/a
n/a	"image-keyboard-response"	"241"	"384061"	"0.0-6.0-2.0-1.28"	"vc776p"	"600"	"1366"	"chrome"	"109.0.0"	"FALSE"	"Windows 10"	"60.28"	"001"	n/a	n/a	n/a	n/a	n/a	n/a	"Trial"	n/a	n/a	n/a	"530"	"arrowright"	n/a	"NULL"	"NULL"	"NULL"	"stimuli/VerticalHorizontal_3.30000_-0.2250.png"	n/a	"VerticalHorizontal"	"arrowright"	"1373"	"TRUE"	"VerticalHorizontal"	"3.3000000000"	"-0.225000000"	"2"	"29"
n/a	"html-keyboard-response"	"242"	"385272"	"0.0-6.0-2.0-0.29"	"vc776p"	"600"	"1366"	"chrome"	"109.0.0"	"FALSE"	"Windows 10"	"60.28"	"001"	n/a	n/a	n/a	n/a	n/a	n/a	"fixation"	n/a	n/a	n/a	n/a	"NULL"	n/a	"NULL"	"NULL"	"NULL"	"<p style=\"color: black; font-size: 80px; padding-left: 29%; padding-right: 11%; padding-top: 8%; padding-bottom: 40%\">+</p>"	"1190"	n/a	n/a	n/a	n/a	n/a	n/a	n/a	n/a	n/a
n/a	"image-keyboard-response"	"243"	"385782"	"0.0-6.0-2.0-1.29"	"vc776p"	"600"	"1366"	"chrome"	"109.0.0"	"FALSE"	"Windows 10"	"60.28"	"001"	n/a	n/a	n/a	n/a	n/a	n/a	"Trial"	n/a	n/a	n/a	"508"	"arrowright"	n/a	"NULL"	"NULL"	"NULL"	"stimuli/VerticalHorizontal_-28.75714_-0.2250.png"	n/a	"VerticalHorizontal"	"arrowright"	"1211"	"TRUE"	"VerticalHorizontal"	"-28.75714000"	"-0.225000000"	"2"	"30"
n/a	"html-keyboard-response"	"244"	"386882"	"0.0-6.0-2.0-0.30"	"vc776p"	"600"	"1366"	"chrome"	"109.0.0"	"FALSE"	"Windows 10"	"60.28"	"001"	n/a	n/a	n/a	n/a	n/a	n/a	"fixation"	n/a	n/a	n/a	n/a	"NULL"	n/a	"NULL"	"NULL"	"NULL"	"<p style=\"color: black; font-size: 80px; padding-left: 42%; padding-right: 7%; padding-top: 15%; padding-bottom: 36%\">+</p>"	"1088"	n/a	n/a	n/a	n/a	n/a	n/a	n/a	n/a	n/a
n/a	"image-keyboard-response"	"245"	"387353"	"0.0-6.0-2.0-1.30"	"vc776p"	"600"	"1366"	"chrome"	"109.0.0"	"FALSE"	"Windows 10"	"60.28"	"001"	n/a	n/a	n/a	n/a	n/a	n/a	"Trial"	n/a	n/a	n/a	"471"	"arrowright"	n/a	"NULL"	"NULL"	"NULL"	"stimuli/VerticalHorizontal_20.27143_-0.16217.png"	n/a	"VerticalHorizontal"	"arrowright"	"1100"	"TRUE"	"VerticalHorizontal"	"20.271430000"	"-0.162170000"	"2"	"31"
n/a	"html-keyboard-response"	"246"	"388515"	"0.0-6.0-2.0-0.31"	"vc776p"	"600"	"1366"	"chrome"	"109.0.0"	"FALSE"	"Windows 10"	"60.28"	"001"	n/a	n/a	n/a	n/a	n/a	n/a	"fixation"	n/a	n/a	n/a	n/a	"NULL"	n/a	"NULL"	"NULL"	"NULL"	"<p style=\"color: black; font-size: 80px; padding-left: 3%; padding-right: 48%; padding-top: 8%; padding-bottom: 26%\">+</p>"	"1143"	n/a	n/a	n/a	n/a	n/a	n/a	n/a	n/a	n/a
n/a	"image-keyboard-response"	"247"	"389358"	"0.0-6.0-2.0-1.31"	"vc776p"	"600"	"1366"	"chrome"	"109.0.0"	"FALSE"	"Windows 10"	"60.28"	"001"	n/a	n/a	n/a	n/a	n/a	n/a	"Trial"	n/a	n/a	n/a	"842"	"arrowleft"	n/a	"NULL"	"NULL"	"NULL"	"stimuli/VerticalHorizontal_-11.78571_0.10960.png"	n/a	"VerticalHorizontal"	"arrowleft"	"1162"	"TRUE"	"VerticalHorizontal"	"-11.78571000"	"0.1096000000"	"2"	"32"
n/a	"html-keyboard-response"	"248"	"390850"	"0.0-6.0-2.0-0.32"	"vc776p"	"600"	"1366"	"chrome"	"109.0.0"	"FALSE"	"Windows 10"	"60.28"	"001"	n/a	n/a	n/a	n/a	n/a	n/a	"fixation"	n/a	n/a	n/a	n/a	"NULL"	n/a	"NULL"	"NULL"	"NULL"	"<p style=\"color: black; font-size: 80px; padding-left: 17%; padding-right: 1%; padding-top: 12%; padding-bottom: 25%\">+</p>"	"1475"	n/a	n/a	n/a	n/a	n/a	n/a	n/a	n/a	n/a
n/a	"image-keyboard-response"	"249"	"391390"	"0.0-6.0-2.0-1.32"	"vc776p"	"600"	"1366"	"chrome"	"109.0.0"	"FALSE"	"Windows 10"	"60.28"	"001"	n/a	n/a	n/a	n/a	n/a	n/a	"Trial"	n/a	n/a	n/a	"539"	"arrowright"	n/a	"NULL"	"NULL"	"NULL"	"stimuli/VerticalHorizontal_-3.3000_-0.2250.png"	n/a	"VerticalHorizontal"	"arrowright"	"1492"	"TRUE"	"VerticalHorizontal"	"-3.300000000"	"-0.225000000"	"2"	"33"
n/a	"html-keyboard-response"	"250"	"392594"	"0.0-6.0-2.0-0.33"	"vc776p"	"600"	"1366"	"chrome"	"109.0.0"	"FALSE"	"Windows 10"	"60.28"	"001"	n/a	n/a	n/a	n/a	n/a	n/a	"fixation"	n/a	n/a	n/a	n/a	"NULL"	n/a	"NULL"	"NULL"	"NULL"	"<p style=\"color: black; font-size: 80px; padding-left: 37%; padding-right: 11%; padding-top: 47%; padding-bottom: 28%\">+</p>"	"1200"	n/a	n/a	n/a	n/a	n/a	n/a	n/a	n/a	n/a
