"success"	"trial_type"	"trial_index"	"time_elapsed"	"internal_node_id"	"participant_id"	"screen_height"	"screen_width"	"browser"	"browser_version"	"mobile"	"os"	"vsync_rate"	"width"	"height"	"webaudio"	"fullscreen"	"webcam"	"microphone"	"screen"	"version"	"date"	"time"	"timeout"	"failed_images"	"failed_audio"	"failed_video"	"rt"	"stimulus"	"response"	"trial_duration"	"block"	"correct_response"	"prestimulus_duration"	"correct"	"type"	"illusion_strength"	"illusion_difference"	"block_number"	"trial_number"
"TRUE"	"fullscreen"	"0"	"1858"	"0.0-0.0"	"aqm2s1"	"600"	"1366"	"chrome"	"108.0.0"	"FALSE"	"Windows 10"	"60.38"	n/a	n/a	n/a	n/a	n/a	n/a	n/a	n/a	n/a	n/a	n/a	"NULL"	"NULL"	"NULL"	n/a	n/a	n/a	n/a	n/a	n/a	n/a	n/a	n/a	n/a	n/a	n/a	n/a
n/a	"browser-check"	"1"	"2871"	"0.0-1.0"	"aqm2s1"	"600"	"1366"	"chrome"	"108.0.0"	"FALSE"	"Windows 10"	"60.38"	"1366"	"600"	"TRUE"	"TRUE"	"TRUE"	"TRUE"	"browser_info"	"1.0"	"27/12/2022"	"14:28:49"	n/a	"NULL"	"NULL"	"NULL"	n/a	n/a	n/a	n/a	n/a	n/a	n/a	n/a	n/a	n/a	n/a	n/a	n/a
"TRUE"	"preload"	"2"	"2900"	"0.0-2.0"	"aqm2s1"	"600"	"1366"	"chrome"	"108.0.0"	"FALSE"	"Windows 10"	"60.38"	n/a	n/a	n/a	n/a	n/a	n/a	n/a	n/a	n/a	n/a	"FALSE"	"list()"	"list()"	"list()"	n/a	n/a	n/a	n/a	n/a	n/a	n/a	n/a	n/a	n/a	n/a	n/a	n/a
n/a	"html-button-response"	"3"	"433155"	"0.0-3.0-0.0"	"aqm2s1"	"600"	"1366"	"chrome"	"108.0.0"	"FALSE"	"Windows 10"	"60.38"	n/a	n/a	n/a	n/a	n/a	n/a	"illusion_instructions"	n/a	n/a	n/a	n/a	"NULL"	"NULL"	"NULL"	"430236"	"<p><b>Illusion Game</b></p><p>In this game of speed and reflex, you will need to make <b>visual judgments</b> (for instance, which circle is the biggest, or which line is the longest), as fast and as correctly as possible, while <b>resisting different visual illusions</b>.</p><p>We are going to start with some examples of all the illusions you will encounter in the game.</p>"	"0"	n/a	n/a	n/a	n/a	n/a	n/a	n/a	n/a	n/a	n/a
"TRUE"	"preload"	"4"	"433175"	"0.0-3.0-1.0-0.0"	"aqm2s1"	"600"	"1366"	"chrome"	"108.0.0"	"FALSE"	"Windows 10"	"60.38"	n/a	n/a	n/a	n/a	n/a	n/a	n/a	n/a	n/a	n/a	"FALSE"	"list()"	"list()"	"list()"	n/a	n/a	n/a	n/a	n/a	n/a	n/a	n/a	n/a	n/a	n/a	n/a	n/a
n/a	"html-keyboard-response"	"5"	"452744"	"0.0-3.0-1.0-1.0"	"aqm2s1"	"600"	"1366"	"chrome"	"108.0.0"	"FALSE"	"Windows 10"	"60.38"	n/a	n/a	n/a	n/a	n/a	n/a	n/a	n/a	n/a	n/a	n/a	"NULL"	"NULL"	"NULL"	"19567"	"<p><b>Practice</b></p><p>In this part, two red circles will appear side by side on the screen.</p><p>Your task is to select which <b>red circle is bigger</b> in size as fast as you can, without making errors.</p><p>Don't get distracted by the surrounding black circles around the red circles!</p><p>Press <b>the LEFT or the RIGHT arrow</b> to indicate which is the bigger <b>red circle.</b></p><div style='float: center'><img src='materials/instructions/Ebbinghaus_Demo.png' height='300'></img><p><img src='utils/answer/answer_leftright_keyboard.PNG' height='150'></img></p><p class='small'>In this example, the correct answer is the <b>LEFT arrow</b>.</p></div><p>Are you ready? <b>Press ENTER to start</b></p>"	"enter"	n/a	n/a	n/a	n/a	n/a	n/a	n/a	n/a	n/a	n/a
n/a	"html-keyboard-response"	"6"	"454654"	"0.0-3.0-1.0-2.0-0.0"	"aqm2s1"	"600"	"1366"	"chrome"	"108.0.0"	"FALSE"	"Windows 10"	"60.38"	n/a	n/a	n/a	n/a	n/a	n/a	"fixation"	n/a	n/a	n/a	n/a	"NULL"	"NULL"	"NULL"	n/a	"<p style=\"color: black; font-size: 80px; padding-left: 43%; padding-right: 9%; padding-top: 32%; padding-bottom: 8%\">+</p>"	n/a	"1381"	n/a	n/a	n/a	n/a	n/a	n/a	n/a	n/a	n/a
n/a	"image-keyboard-response"	"7"	"455853"	"0.0-3.0-1.0-2.0-1.0"	"aqm2s1"	"600"	"1366"	"chrome"	"108.0.0"	"FALSE"	"Windows 10"	"60.38"	n/a	n/a	n/a	n/a	n/a	n/a	"Trial"	n/a	n/a	n/a	n/a	"NULL"	"NULL"	"NULL"	"1184"	"stimuli/Ebbinghaus_0000000_-1.4000.png"	"arrowright"	n/a	"Ebbinghaus"	"arrowright"	"1910"	"TRUE"	"Ebbinghaus"	"000000000000"	"-1.400000000"	"1"	"1"
n/a	"html-keyboard-response"	"8"	"457045"	"0.0-3.0-1.0-2.0-0.1"	"aqm2s1"	"600"	"1366"	"chrome"	"108.0.0"	"FALSE"	"Windows 10"	"60.38"	n/a	n/a	n/a	n/a	n/a	n/a	"fixation"	n/a	n/a	n/a	n/a	"NULL"	"NULL"	"NULL"	n/a	"<p style=\"color: black; font-size: 80px; padding-left: 47%; padding-right: 48%; padding-top: 11%; padding-bottom: 17%\">+</p>"	n/a	"1176"	n/a	n/a	n/a	n/a	n/a	n/a	n/a	n/a	n/a
n/a	"image-keyboard-response"	"9"	"457551"	"0.0-3.0-1.0-2.0-1.1"	"aqm2s1"	"600"	"1366"	"chrome"	"108.0.0"	"FALSE"	"Windows 10"	"60.38"	n/a	n/a	n/a	n/a	n/a	n/a	"Trial"	n/a	n/a	n/a	n/a	"NULL"	"NULL"	"NULL"	"506"	"stimuli/Ebbinghaus_0000000_1.40000.png"	"arrowleft"	n/a	"Ebbinghaus"	"arrowleft"	"1192"	"TRUE"	"Ebbinghaus"	"000000000000"	"1.4000000000"	"1"	"2"
n/a	"html-keyboard-response"	"10"	"458624"	"0.0-3.0-1.0-2.0-0.2"	"aqm2s1"	"600"	"1366"	"chrome"	"108.0.0"	"FALSE"	"Windows 10"	"60.38"	n/a	n/a	n/a	n/a	n/a	n/a	"fixation"	n/a	n/a	n/a	n/a	"NULL"	"NULL"	"NULL"	n/a	"<p style=\"color: black; font-size: 80px; padding-left: 24%; padding-right: 45%; padding-top: 10%; padding-bottom: 7%\">+</p>"	n/a	"1063"	n/a	n/a	n/a	n/a	n/a	n/a	n/a	n/a	n/a
n/a	"image-keyboard-response"	"11"	"459105"	"0.0-3.0-1.0-2.0-1.2"	"aqm2s1"	"600"	"1366"	"chrome"	"108.0.0"	"FALSE"	"Windows 10"	"60.38"	n/a	n/a	n/a	n/a	n/a	n/a	"Trial"	n/a	n/a	n/a	n/a	"NULL"	"NULL"	"NULL"	"481"	"stimuli/Ebbinghaus_1000000_1.40000.png"	"arrowleft"	n/a	"Ebbinghaus"	"arrowleft"	"1073"	"TRUE"	"Ebbinghaus"	"100000000000"	"1.4000000000"	"1"	"3"
n/a	"html-keyboard-response"	"12"	"460593"	"0.0-3.0-1.0-2.0-0.3"	"aqm2s1"	"600"	"1366"	"chrome"	"108.0.0"	"FALSE"	"Windows 10"	"60.38"	n/a	n/a	n/a	n/a	n/a	n/a	"fixation"	n/a	n/a	n/a	n/a	"NULL"	"NULL"	"NULL"	n/a	"<p style=\"color: black; font-size: 80px; padding-left: 8%; padding-right: 3%; padding-top: 45%; padding-bottom: 12%\">+</p>"	n/a	"1478"	n/a	n/a	n/a	n/a	n/a	n/a	n/a	n/a	n/a
n/a	"image-keyboard-response"	"13"	"461003"	"0.0-3.0-1.0-2.0-1.3"	"aqm2s1"	"600"	"1366"	"chrome"	"108.0.0"	"FALSE"	"Windows 10"	"60.38"	n/a	n/a	n/a	n/a	n/a	n/a	"Trial"	n/a	n/a	n/a	n/a	"NULL"	"NULL"	"NULL"	"408"	"stimuli/Ebbinghaus_1000000_-1.4000.png"	"arrowright"	n/a	"Ebbinghaus"	"arrowright"	"1488"	"TRUE"	"Ebbinghaus"	"100000000000"	"-1.400000000"	"1"	"4"
n/a	"html-keyboard-response"	"14"	"462160"	"0.0-3.0-1.0-2.0-0.4"	"aqm2s1"	"600"	"1366"	"chrome"	"108.0.0"	"FALSE"	"Windows 10"	"60.38"	n/a	n/a	n/a	n/a	n/a	n/a	"fixation"	n/a	n/a	n/a	n/a	"NULL"	"NULL"	"NULL"	n/a	"<p style=\"color: black; font-size: 80px; padding-left: 32%; padding-right: 6%; padding-top: 35%; padding-bottom: 48%\">+</p>"	n/a	"1151"	n/a	n/a	n/a	n/a	n/a	n/a	n/a	n/a	n/a
n/a	"image-keyboard-response"	"15"	"462621"	"0.0-3.0-1.0-2.0-1.4"	"aqm2s1"	"600"	"1366"	"chrome"	"108.0.0"	"FALSE"	"Windows 10"	"60.38"	n/a	n/a	n/a	n/a	n/a	n/a	"Trial"	n/a	n/a	n/a	n/a	"NULL"	"NULL"	"NULL"	"460"	"stimuli/Ebbinghaus_-100000_-1.4000.png"	"arrowright"	n/a	"Ebbinghaus"	"arrowright"	"1157"	"TRUE"	"Ebbinghaus"	"-10000000000"	"-1.400000000"	"1"	"5"
n/a	"html-keyboard-response"	"16"	"463810"	"0.0-3.0-1.0-2.0-0.5"	"aqm2s1"	"600"	"1366"	"chrome"	"108.0.0"	"FALSE"	"Windows 10"	"60.38"	n/a	n/a	n/a	n/a	n/a	n/a	"fixation"	n/a	n/a	n/a	n/a	"NULL"	"NULL"	"NULL"	n/a	"<p style=\"color: black; font-size: 80px; padding-left: 49%; padding-right: 11%; padding-top: 22%; padding-bottom: 30%\">+</p>"	n/a	"1181"	n/a	n/a	n/a	n/a	n/a	n/a	n/a	n/a	n/a
n/a	"image-keyboard-response"	"17"	"464228"	"0.0-3.0-1.0-2.0-1.5"	"aqm2s1"	"600"	"1366"	"chrome"	"108.0.0"	"FALSE"	"Windows 10"	"60.38"	n/a	n/a	n/a	n/a	n/a	n/a	"Trial"	n/a	n/a	n/a	n/a	"NULL"	"NULL"	"NULL"	"417"	"stimuli/Ebbinghaus_-100000_1.40000.png"	"arrowleft"	n/a	"Ebbinghaus"	"arrowleft"	"1189"	"TRUE"	"Ebbinghaus"	"-10000000000"	"1.4000000000"	"1"	"6"
n/a	"html-button-response"	"18"	"497295"	"0.0-3.0-1.0-3.0"	"aqm2s1"	"600"	"1366"	"chrome"	"108.0.0"	"FALSE"	"Windows 10"	"60.38"	n/a	n/a	n/a	n/a	n/a	n/a	"practice_block_results"	n/a	n/a	n/a	n/a	"NULL"	"NULL"	"NULL"	"33062"	"<p style='color:rgb(76,175,80);'> Correct Responses: <b>100.00%</b></p><hr><p style='color:rgb(233,30,99);'> Average Response Time: <b>576.00</b> ms.</p>"	"0"	n/a	n/a	n/a	n/a	n/a	n/a	n/a	n/a	n/a	n/a
"TRUE"	"preload"	"19"	"497835"	"0.0-3.0-2.0-0.0"	"aqm2s1"	"600"	"1366"	"chrome"	"108.0.0"	"FALSE"	"Windows 10"	"60.38"	n/a	n/a	n/a	n/a	n/a	n/a	n/a	n/a	n/a	n/a	"FALSE"	"list()"	"list()"	"list()"	n/a	n/a	n/a	n/a	n/a	n/a	n/a	n/a	n/a	n/a	n/a	n/a	n/a
n/a	"html-keyboard-response"	"20"	"505582"	"0.0-3.0-2.0-1.0"	"aqm2s1"	"600"	"1366"	"chrome"	"108.0.0"	"FALSE"	"Windows 10"	"60.38"	n/a	n/a	n/a	n/a	n/a	n/a	n/a	n/a	n/a	n/a	n/a	"NULL"	"NULL"	"NULL"	"7747"	"<p><b>Practice</b></p><p>In this part, two horizontal red lines will appear one above the other.</p><p>Your task is to select which <b>line is longer</b> in length as fast as you can, without making errors.</p><p>Don't get distracted by the surrounding black arrows at the end of the red lines!</p><p>Press <b>the UP or the DOWN arrow</b> to indicate where is the longer <b>red line.</b></p><div style='float: center'><img src='materials/instructions/MullerLyer_Demo.png' height='300'></img><p><img src='utils/answer/answer_updown_keyboard.PNG' height='150'></img></p><p class='small'>In this example, the correct answer is the <b>UP arrow</b>.</p></div><p>Are you ready? <b>Press ENTER to start</b></p>"	"enter"	n/a	n/a	n/a	n/a	n/a	n/a	n/a	n/a	n/a	n/a
n/a	"html-keyboard-response"	"21"	"507320"	"0.0-3.0-2.0-2.0-0.0"	"aqm2s1"	"600"	"1366"	"chrome"	"108.0.0"	"FALSE"	"Windows 10"	"60.38"	n/a	n/a	n/a	n/a	n/a	n/a	"fixation"	n/a	n/a	n/a	n/a	"NULL"	"NULL"	"NULL"	n/a	"<p style=\"color: black; font-size: 80px; padding-left: 49%; padding-right: 5%; padding-top: 31%; padding-bottom: 12%\">+</p>"	n/a	"1210"	n/a	n/a	n/a	n/a	n/a	n/a	n/a	n/a	n/a
n/a	"image-keyboard-response"	"22"	"508996"	"0.0-3.0-2.0-2.0-1.0"	"aqm2s1"	"600"	"1366"	"chrome"	"108.0.0"	"FALSE"	"Windows 10"	"60.38"	n/a	n/a	n/a	n/a	n/a	n/a	"Trial"	n/a	n/a	n/a	n/a	"NULL"	"NULL"	"NULL"	"1674"	"stimuli/MullerLyer_2300000_-0.7000.png"	"arrowdown"	n/a	"MullerLyer"	"arrowdown"	"1738"	"TRUE"	"MullerLyer"	"230000000000"	"-0.700000000"	"1"	"7"
n/a	"html-keyboard-response"	"23"	"510266"	"0.0-3.0-2.0-2.0-0.1"	"aqm2s1"	"600"	"1366"	"chrome"	"108.0.0"	"FALSE"	"Windows 10"	"60.38"	n/a	n/a	n/a	n/a	n/a	n/a	"fixation"	n/a	n/a	n/a	n/a	"NULL"	"NULL"	"NULL"	n/a	"<p style=\"color: black; font-size: 80px; padding-left: 39%; padding-right: 12%; padding-top: 5%; padding-bottom: 47%\">+</p>"	n/a	"1257"	n/a	n/a	n/a	n/a	n/a	n/a	n/a	n/a	n/a
n/a	"image-keyboard-response"	"24"	"510794"	"0.0-3.0-2.0-2.0-1.1"	"aqm2s1"	"600"	"1366"	"chrome"	"108.0.0"	"FALSE"	"Windows 10"	"60.38"	n/a	n/a	n/a	n/a	n/a	n/a	"Trial"	n/a	n/a	n/a	n/a	"NULL"	"NULL"	"NULL"	"527"	"stimuli/MullerLyer_2300000_0.70000.png"	"arrowup"	n/a	"MullerLyer"	"arrowup"	"1270"	"TRUE"	"MullerLyer"	"230000000000"	"0.7000000000"	"1"	"8"
n/a	"html-keyboard-response"	"25"	"512075"	"0.0-3.0-2.0-2.0-0.2"	"aqm2s1"	"600"	"1366"	"chrome"	"108.0.0"	"FALSE"	"Windows 10"	"60.38"	n/a	n/a	n/a	n/a	n/a	n/a	"fixation"	n/a	n/a	n/a	n/a	"NULL"	"NULL"	"NULL"	n/a	"<p style=\"color: black; font-size: 80px; padding-left: 31%; padding-right: 19%; padding-top: 13%; padding-bottom: 4%\">+</p>"	n/a	"1275"	n/a	n/a	n/a	n/a	n/a	n/a	n/a	n/a	n/a
n/a	"image-keyboard-response"	"26"	"512566"	"0.0-3.0-2.0-2.0-1.2"	"aqm2s1"	"600"	"1366"	"chrome"	"108.0.0"	"FALSE"	"Windows 10"	"60.38"	n/a	n/a	n/a	n/a	n/a	n/a	"Trial"	n/a	n/a	n/a	n/a	"NULL"	"NULL"	"NULL"	"491"	"stimuli/MullerLyer_0000000_-0.7000.png"	"arrowdown"	n/a	"MullerLyer"	"arrowdown"	"1281"	"TRUE"	"MullerLyer"	"000000000000"	"-0.700000000"	"1"	"9"
n/a	"html-keyboard-response"	"27"	"513718"	"0.0-3.0-2.0-2.0-0.3"	"aqm2s1"	"600"	"1366"	"chrome"	"108.0.0"	"FALSE"	"Windows 10"	"60.38"	n/a	n/a	n/a	n/a	n/a	n/a	"fixation"	n/a	n/a	n/a	n/a	"NULL"	"NULL"	"NULL"	n/a	"<p style=\"color: black; font-size: 80px; padding-left: 11%; padding-right: 5%; padding-top: 7%; padding-bottom: 10%\">+</p>"	n/a	"1129"	n/a	n/a	n/a	n/a	n/a	n/a	n/a	n/a	n/a
n/a	"image-keyboard-response"	"28"	"514115"	"0.0-3.0-2.0-2.0-1.3"	"aqm2s1"	"600"	"1366"	"chrome"	"108.0.0"	"FALSE"	"Windows 10"	"60.38"	n/a	n/a	n/a	n/a	n/a	n/a	"Trial"	n/a	n/a	n/a	n/a	"NULL"	"NULL"	"NULL"	"396"	"stimuli/MullerLyer_-230000_-0.7000.png"	"arrowdown"	n/a	"MullerLyer"	"arrowdown"	"1152"	"TRUE"	"MullerLyer"	"-23000000000"	"-0.700000000"	"1"	"10"
n/a	"html-keyboard-response"	"29"	"515622"	"0.0-3.0-2.0-2.0-0.4"	"aqm2s1"	"600"	"1366"	"chrome"	"108.0.0"	"FALSE"	"Windows 10"	"60.38"	n/a	n/a	n/a	n/a	n/a	n/a	"fixation"	n/a	n/a	n/a	n/a	"NULL"	"NULL"	"NULL"	n/a	"<p style=\"color: black; font-size: 80px; padding-left: 28%; padding-right: 48%; padding-top: 24%; padding-bottom: 3%\">+</p>"	n/a	"1485"	n/a	n/a	n/a	n/a	n/a	n/a	n/a	n/a	n/a
n/a	"image-keyboard-response"	"30"	"516071"	"0.0-3.0-2.0-2.0-1.4"	"aqm2s1"	"600"	"1366"	"chrome"	"108.0.0"	"FALSE"	"Windows 10"	"60.38"	n/a	n/a	n/a	n/a	n/a	n/a	"Trial"	n/a	n/a	n/a	n/a	"NULL"	"NULL"	"NULL"	"448"	"stimuli/MullerLyer_0000000_0.70000.png"	"arrowup"	n/a	"MullerLyer"	"arrowup"	"1507"	"TRUE"	"MullerLyer"	"000000000000"	"0.7000000000"	"1"	"11"
n/a	"html-keyboard-response"	"31"	"517435"	"0.0-3.0-2.0-2.0-0.5"	"aqm2s1"	"600"	"1366"	"chrome"	"108.0.0"	"FALSE"	"Windows 10"	"60.38"	n/a	n/a	n/a	n/a	n/a	n/a	"fixation"	n/a	n/a	n/a	n/a	"NULL"	"NULL"	"NULL"	n/a	"<p style=\"color: black; font-size: 80px; padding-left: 36%; padding-right: 50%; padding-top: 36%; padding-bottom: 6%\">+</p>"	n/a	"1349"	n/a	n/a	n/a	n/a	n/a	n/a	n/a	n/a	n/a
n/a	"image-keyboard-response"	"32"	"517848"	"0.0-3.0-2.0-2.0-1.5"	"aqm2s1"	"600"	"1366"	"chrome"	"108.0.0"	"FALSE"	"Windows 10"	"60.38"	n/a	n/a	n/a	n/a	n/a	n/a	"Trial"	n/a	n/a	n/a	n/a	"NULL"	"NULL"	"NULL"	"413"	"stimuli/MullerLyer_-230000_0.70000.png"	"arrowup"	n/a	"MullerLyer"	"arrowup"	"1364"	"TRUE"	"MullerLyer"	"-23000000000"	"0.7000000000"	"1"	"12"
n/a	"html-button-response"	"33"	"525339"	"0.0-3.0-2.0-3.0"	"aqm2s1"	"600"	"1366"	"chrome"	"108.0.0"	"FALSE"	"Windows 10"	"60.38"	n/a	n/a	n/a	n/a	n/a	n/a	"practice_block_results"	n/a	n/a	n/a	n/a	"NULL"	"NULL"	"NULL"	"7490"	"<p style='color:rgb(76,175,80);'> Correct Responses: <b>100.00%</b></p><hr><p style='color:rgb(233,30,99);'> Average Response Time: <b>658.17</b> ms.</p>"	"0"	n/a	n/a	n/a	n/a	n/a	n/a	n/a	n/a	n/a	n/a
"TRUE"	"preload"	"34"	"525867"	"0.0-3.0-3.0-0.0"	"aqm2s1"	"600"	"1366"	"chrome"	"108.0.0"	"FALSE"	"Windows 10"	"60.38"	n/a	n/a	n/a	n/a	n/a	n/a	n/a	n/a	n/a	n/a	"FALSE"	"list()"	"list()"	"list()"	n/a	n/a	n/a	n/a	n/a	n/a	n/a	n/a	n/a	n/a	n/a	n/a	n/a
n/a	"html-keyboard-response"	"35"	"533513"	"0.0-3.0-3.0-1.0"	"aqm2s1"	"600"	"1366"	"chrome"	"108.0.0"	"FALSE"	"Windows 10"	"60.38"	n/a	n/a	n/a	n/a	n/a	n/a	n/a	n/a	n/a	n/a	n/a	"NULL"	"NULL"	"NULL"	"7645"	"<p><b>Practice</b></p><p>In this part, two red lines will appear side by side.</p><p>Your task is to tell <b>which line is longer</b> in length, regardless of their orientation, as fast as you can, and without making errors.</p><p>Don't get distracted by the orientation of the lines!</p><p>Press <b>the LEFT or the RIGHT arrow</b> to indicate which <b>line is the longer one.</b></p><div style='float: center'><img src='materials/instructions/VerticalHorizontal_Demo.png' height='300'></img><p><img src='utils/answer/answer_leftright_keyboard.PNG' height='150'></img></p><p class='small'>In this example, the correct answer is the <b>LEFT arrow</b>.</p></div><p>Are you ready? <b>Press ENTER to start</b></p>"	"enter"	n/a	n/a	n/a	n/a	n/a	n/a	n/a	n/a	n/a	n/a
n/a	"html-keyboard-response"	"36"	"535366"	"0.0-3.0-3.0-2.0-0.0"	"aqm2s1"	"600"	"1366"	"chrome"	"108.0.0"	"FALSE"	"Windows 10"	"60.38"	n/a	n/a	n/a	n/a	n/a	n/a	"fixation"	n/a	n/a	n/a	n/a	"NULL"	"NULL"	"NULL"	n/a	"<p style=\"color: black; font-size: 80px; padding-left: 37%; padding-right: 27%; padding-top: 45%; padding-bottom: 15%\">+</p>"	n/a	"1336"	n/a	n/a	n/a	n/a	n/a	n/a	n/a	n/a	n/a
n/a	"image-keyboard-response"	"37"	"535708"	"0.0-3.0-3.0-2.0-1.0"	"aqm2s1"	"600"	"1366"	"chrome"	"108.0.0"	"FALSE"	"Windows 10"	"60.38"	n/a	n/a	n/a	n/a	n/a	n/a	"Trial"	n/a	n/a	n/a	n/a	"NULL"	"NULL"	"NULL"	"340"	"stimuli/VerticalHorizontal_-330000_-0.9000.png"	"arrowright"	n/a	"VerticalHorizontal"	"arrowright"	"1853"	"TRUE"	"VerticalHorizontal"	"-33000000000"	"-0.900000000"	"1"	"13"
n/a	"html-keyboard-response"	"38"	"537170"	"0.0-3.0-3.0-2.0-0.1"	"aqm2s1"	"600"	"1366"	"chrome"	"108.0.0"	"FALSE"	"Windows 10"	"60.38"	n/a	n/a	n/a	n/a	n/a	n/a	"fixation"	n/a	n/a	n/a	n/a	"NULL"	"NULL"	"NULL"	n/a	"<p style=\"color: black; font-size: 80px; padding-left: 35%; padding-right: 15%; padding-top: 11%; padding-bottom: 24%\">+</p>"	n/a	"1457"	n/a	n/a	n/a	n/a	n/a	n/a	n/a	n/a	n/a
n/a	"image-keyboard-response"	"39"	"537722"	"0.0-3.0-3.0-2.0-1.1"	"aqm2s1"	"600"	"1366"	"chrome"	"108.0.0"	"FALSE"	"Windows 10"	"60.38"	n/a	n/a	n/a	n/a	n/a	n/a	"Trial"	n/a	n/a	n/a	n/a	"NULL"	"NULL"	"NULL"	"551"	"stimuli/VerticalHorizontal_3300000_-0.9000.png"	"arrowright"	n/a	"VerticalHorizontal"	"arrowright"	"1462"	"TRUE"	"VerticalHorizontal"	"330000000000"	"-0.900000000"	"1"	"14"
n/a	"html-keyboard-response"	"40"	"539184"	"0.0-3.0-3.0-2.0-0.2"	"aqm2s1"	"600"	"1366"	"chrome"	"108.0.0"	"FALSE"	"Windows 10"	"60.38"	n/a	n/a	n/a	n/a	n/a	n/a	"fixation"	n/a	n/a	n/a	n/a	"NULL"	"NULL"	"NULL"	n/a	"<p style=\"color: black; font-size: 80px; padding-left: 0%; padding-right: 49%; padding-top: 13%; padding-bottom: 11%\">+</p>"	n/a	"1445"	n/a	n/a	n/a	n/a	n/a	n/a	n/a	n/a	n/a
n/a	"image-keyboard-response"	"41"	"539665"	"0.0-3.0-3.0-2.0-1.2"	"aqm2s1"	"600"	"1366"	"chrome"	"108.0.0"	"FALSE"	"Windows 10"	"60.38"	n/a	n/a	n/a	n/a	n/a	n/a	"Trial"	n/a	n/a	n/a	n/a	"NULL"	"NULL"	"NULL"	"480"	"stimuli/VerticalHorizontal_3300000_0.90000.png"	"arrowleft"	n/a	"VerticalHorizontal"	"arrowleft"	"1462"	"TRUE"	"VerticalHorizontal"	"330000000000"	"0.9000000000"	"1"	"15"
n/a	"html-keyboard-response"	"42"	"541015"	"0.0-3.0-3.0-2.0-0.3"	"aqm2s1"	"600"	"1366"	"chrome"	"108.0.0"	"FALSE"	"Windows 10"	"60.38"	n/a	n/a	n/a	n/a	n/a	n/a	"fixation"	n/a	n/a	n/a	n/a	"NULL"	"NULL"	"NULL"	n/a	"<p style=\"color: black; font-size: 80px; padding-left: 18%; padding-right: 43%; padding-top: 49%; padding-bottom: 0%\">+</p>"	n/a	"1334"	n/a	n/a	n/a	n/a	n/a	n/a	n/a	n/a	n/a
n/a	"image-keyboard-response"	"43"	"541401"	"0.0-3.0-3.0-2.0-1.3"	"aqm2s1"	"600"	"1366"	"chrome"	"108.0.0"	"FALSE"	"Windows 10"	"60.38"	n/a	n/a	n/a	n/a	n/a	n/a	"Trial"	n/a	n/a	n/a	n/a	"NULL"	"NULL"	"NULL"	"385"	"stimuli/VerticalHorizontal_-330000_0.90000.png"	"arrowleft"	n/a	"VerticalHorizontal"	"arrowleft"	"1350"	"TRUE"	"VerticalHorizontal"	"-33000000000"	"0.9000000000"	"1"	"16"
n/a	"html-keyboard-response"	"44"	"542422"	"0.0-3.0-3.0-2.0-0.4"	"aqm2s1"	"600"	"1366"	"chrome"	"108.0.0"	"FALSE"	"Windows 10"	"60.38"	n/a	n/a	n/a	n/a	n/a	n/a	"fixation"	n/a	n/a	n/a	n/a	"NULL"	"NULL"	"NULL"	n/a	"<p style=\"color: black; font-size: 80px; padding-left: 5%; padding-right: 14%; padding-top: 36%; padding-bottom: 32%\">+</p>"	n/a	"1006"	n/a	n/a	n/a	n/a	n/a	n/a	n/a	n/a	n/a
n/a	"image-keyboard-response"	"45"	"542882"	"0.0-3.0-3.0-2.0-1.4"	"aqm2s1"	"600"	"1366"	"chrome"	"108.0.0"	"FALSE"	"Windows 10"	"60.38"	n/a	n/a	n/a	n/a	n/a	n/a	"Trial"	n/a	n/a	n/a	n/a	"NULL"	"NULL"	"NULL"	"458"	"stimuli/VerticalHorizontal_0000000_0.90000.png"	"arrowleft"	n/a	"VerticalHorizontal"	"arrowleft"	"1021"	"TRUE"	"VerticalHorizontal"	"000000000000"	"0.9000000000"	"1"	"17"
n/a	"html-keyboard-response"	"46"	"544135"	"0.0-3.0-3.0-2.0-0.5"	"aqm2s1"	"600"	"1366"	"chrome"	"108.0.0"	"FALSE"	"Windows 10"	"60.38"	n/a	n/a	n/a	n/a	n/a	n/a	"fixation"	n/a	n/a	n/a	n/a	"NULL"	"NULL"	"NULL"	n/a	"<p style=\"color: black; font-size: 80px; padding-left: 10%; padding-right: 22%; padding-top: 34%; padding-bottom: 35%\">+</p>"	n/a	"1244"	n/a	n/a	n/a	n/a	n/a	n/a	n/a	n/a	n/a
n/a	"image-keyboard-response"	"47"	"544463"	"0.0-3.0-3.0-2.0-1.5"	"aqm2s1"	"600"	"1366"	"chrome"	"108.0.0"	"FALSE"	"Windows 10"	"60.38"	n/a	n/a	n/a	n/a	n/a	n/a	"Trial"	n/a	n/a	n/a	n/a	"NULL"	"NULL"	"NULL"	"327"	"stimuli/VerticalHorizontal_0000000_-0.9000.png"	"arrowright"	n/a	"VerticalHorizontal"	"arrowright"	"1253"	"TRUE"	"VerticalHorizontal"	"000000000000"	"-0.900000000"	"1"	"18"
n/a	"html-button-response"	"48"	"548514"	"0.0-3.0-3.0-3.0"	"aqm2s1"	"600"	"1366"	"chrome"	"108.0.0"	"FALSE"	"Windows 10"	"60.38"	n/a	n/a	n/a	n/a	n/a	n/a	"practice_block_results"	n/a	n/a	n/a	n/a	"NULL"	"NULL"	"NULL"	"4049"	"<p style='color:rgb(76,175,80);'> Correct Responses: <b>100.00%</b></p><hr><p style='color:rgb(233,30,99);'> Average Response Time: <b>423.50</b> ms.</p>"	"0"	n/a	n/a	n/a	n/a	n/a	n/a	n/a	n/a	n/a	n/a
n/a	"html-button-response"	"49"	"697362"	"0.0-3.0-4.0"	"aqm2s1"	"600"	"1366"	"chrome"	"108.0.0"	"FALSE"	"Windows 10"	"60.38"	n/a	n/a	n/a	n/a	n/a	n/a	"practice_debrief"	n/a	n/a	n/a	n/a	"NULL"	"NULL"	"NULL"	"148329"	"<p><b>TRAINING COMPLETED</b></p><p>In the next phase, there will be more trials, and some might be harder too.<br> Moreover, after each illusion block, a <b>score</b> will be calculated based on speed (time you took to answer) and accuracy (number of errors).</p><p>Try to keep up a high score!</p><br><p>Note that it can be <i>really</i> challenging at times, so you will need to rely on your <b>intuition</b> and gut feeling to answer as fast as you can without making errors.</p><p>Each illusion block will be repeated two times (so that you have the opportunity to improve your score), but the order of the blocks is random.</p><p>Remember, your goal is to be as <b>fast</b> and <b>accurate</b> as possible. Good luck!</p><br>"	"0"	n/a	n/a	n/a	n/a	n/a	n/a	n/a	n/a	n/a	n/a
"TRUE"	"preload"	"50"	"697521"	"0.0-4.0-0.0"	"aqm2s1"	"600"	"1366"	"chrome"	"108.0.0"	"FALSE"	"Windows 10"	"60.38"	n/a	n/a	n/a	n/a	n/a	n/a	n/a	n/a	n/a	n/a	"FALSE"	"list()"	"list()"	"list()"	n/a	n/a	n/a	n/a	n/a	n/a	n/a	n/a	n/a	n/a	n/a	n/a	n/a
n/a	"html-keyboard-response"	"51"	"704379"	"0.0-4.0-1.0"	"aqm2s1"	"600"	"1366"	"chrome"	"108.0.0"	"FALSE"	"Windows 10"	"60.38"	n/a	n/a	n/a	n/a	n/a	n/a	n/a	n/a	n/a	n/a	n/a	"NULL"	"NULL"	"NULL"	"6857"	"<p><b>Part 1/6</b></p><p>In this part, two red lines will appear side by side.</p><p>Your task is to tell <b>which line is longer</b> in length, regardless of their orientation, as fast as you can, and without making errors.</p><p>Don't get distracted by the orientation of the lines!</p><p>Press <b>the LEFT or the RIGHT arrow</b> to indicate which <b>line is the longer one.</b></p><div style='float: center'><img src='materials/instructions/VerticalHorizontal_Demo.png' height='300'></img><p><img src='utils/answer/answer_leftright_keyboard.PNG' height='150'></img></p><p class='small'>In this example, the correct answer is the <b>LEFT arrow</b>.</p></div><p>Are you ready? <b>Press ENTER to start</b></p>"	"enter"	n/a	n/a	n/a	n/a	n/a	n/a	n/a	n/a	n/a	n/a
n/a	"html-keyboard-response"	"52"	"705909"	"0.0-4.0-2.0-0.0"	"aqm2s1"	"600"	"1366"	"chrome"	"108.0.0"	"FALSE"	"Windows 10"	"60.38"	n/a	n/a	n/a	n/a	n/a	n/a	"fixation"	n/a	n/a	n/a	n/a	"NULL"	"NULL"	"NULL"	n/a	"<p style=\"color: black; font-size: 80px; padding-left: 17%; padding-right: 39%; padding-top: 32%; padding-bottom: 35%\">+</p>"	n/a	"1002"	n/a	n/a	n/a	n/a	n/a	n/a	n/a	n/a	n/a
n/a	"image-keyboard-response"	"53"	"706463"	"0.0-4.0-2.0-1.0"	"aqm2s1"	"600"	"1366"	"chrome"	"108.0.0"	"FALSE"	"Windows 10"	"60.38"	n/a	n/a	n/a	n/a	n/a	n/a	"Trial"	n/a	n/a	n/a	n/a	"NULL"	"NULL"	"NULL"	"551"	"stimuli/VerticalHorizontal_28.75714_0.10960.png"	"arrowright"	n/a	"VerticalHorizontal"	"arrowleft"	"1530"	"FALSE"	"VerticalHorizontal"	"28.757140000"	"0.1096000000"	"1"	"19"
n/a	"html-keyboard-response"	"54"	"707661"	"0.0-4.0-2.0-0.1"	"aqm2s1"	"600"	"1366"	"chrome"	"108.0.0"	"FALSE"	"Windows 10"	"60.38"	n/a	n/a	n/a	n/a	n/a	n/a	"fixation"	n/a	n/a	n/a	n/a	"NULL"	"NULL"	"NULL"	n/a	"<p style=\"color: black; font-size: 80px; padding-left: 1%; padding-right: 48%; padding-top: 9%; padding-bottom: 6%\">+</p>"	n/a	"1180"	n/a	n/a	n/a	n/a	n/a	n/a	n/a	n/a	n/a
n/a	"image-keyboard-response"	"55"	"708536"	"0.0-4.0-2.0-1.1"	"aqm2s1"	"600"	"1366"	"chrome"	"108.0.0"	"FALSE"	"Windows 10"	"60.38"	n/a	n/a	n/a	n/a	n/a	n/a	"Trial"	n/a	n/a	n/a	n/a	"NULL"	"NULL"	"NULL"	"873"	"stimuli/VerticalHorizontal_3.30000_0.10960.png"	"arrowleft"	n/a	"VerticalHorizontal"	"arrowleft"	"1198"	"TRUE"	"VerticalHorizontal"	"3.3000000000"	"0.1096000000"	"1"	"20"
n/a	"html-keyboard-response"	"56"	"709955"	"0.0-4.0-2.0-0.2"	"aqm2s1"	"600"	"1366"	"chrome"	"108.0.0"	"FALSE"	"Windows 10"	"60.38"	n/a	n/a	n/a	n/a	n/a	n/a	"fixation"	n/a	n/a	n/a	n/a	"NULL"	"NULL"	"NULL"	n/a	"<p style=\"color: black; font-size: 80px; padding-left: 26%; padding-right: 1%; padding-top: 5%; padding-bottom: 2%\">+</p>"	n/a	"1396"	n/a	n/a	n/a	n/a	n/a	n/a	n/a	n/a	n/a
n/a	"image-keyboard-response"	"57"	"710495"	"0.0-4.0-2.0-1.2"	"aqm2s1"	"600"	"1366"	"chrome"	"108.0.0"	"FALSE"	"Windows 10"	"60.38"	n/a	n/a	n/a	n/a	n/a	n/a	"Trial"	n/a	n/a	n/a	n/a	"NULL"	"NULL"	"NULL"	"539"	"stimuli/VerticalHorizontal_11.78571_0.16217.png"	"arrowright"	n/a	"VerticalHorizontal"	"arrowleft"	"1419"	"FALSE"	"VerticalHorizontal"	"11.785710000"	"0.1621700000"	"1"	"21"
n/a	"html-keyboard-response"	"58"	"711612"	"0.0-4.0-2.0-0.3"	"aqm2s1"	"600"	"1366"	"chrome"	"108.0.0"	"FALSE"	"Windows 10"	"60.38"	n/a	n/a	n/a	n/a	n/a	n/a	"fixation"	n/a	n/a	n/a	n/a	"NULL"	"NULL"	"NULL"	n/a	"<p style=\"color: black; font-size: 80px; padding-left: 23%; padding-right: 23%; padding-top: 48%; padding-bottom: 40%\">+</p>"	n/a	"1104"	n/a	n/a	n/a	n/a	n/a	n/a	n/a	n/a	n/a
n/a	"image-keyboard-response"	"59"	"712128"	"0.0-4.0-2.0-1.3"	"aqm2s1"	"600"	"1366"	"chrome"	"108.0.0"	"FALSE"	"Windows 10"	"60.38"	n/a	n/a	n/a	n/a	n/a	n/a	"Trial"	n/a	n/a	n/a	n/a	"NULL"	"NULL"	"NULL"	"515"	"stimuli/VerticalHorizontal_3.30000_-0.16217.png"	"arrowright"	n/a	"VerticalHorizontal"	"arrowright"	"1117"	"TRUE"	"VerticalHorizontal"	"3.3000000000"	"-0.162170000"	"1"	"22"
n/a	"html-keyboard-response"	"60"	"713366"	"0.0-4.0-2.0-0.4"	"aqm2s1"	"600"	"1366"	"chrome"	"108.0.0"	"FALSE"	"Windows 10"	"60.38"	n/a	n/a	n/a	n/a	n/a	n/a	"fixation"	n/a	n/a	n/a	n/a	"NULL"	"NULL"	"NULL"	n/a	"<p style=\"color: black; font-size: 80px; padding-left: 5%; padding-right: 49%; padding-top: 3%; padding-bottom: 6%\">+</p>"	n/a	"1227"	n/a	n/a	n/a	n/a	n/a	n/a	n/a	n/a	n/a
n/a	"image-keyboard-response"	"61"	"713890"	"0.0-4.0-2.0-1.4"	"aqm2s1"	"600"	"1366"	"chrome"	"108.0.0"	"FALSE"	"Windows 10"	"60.38"	n/a	n/a	n/a	n/a	n/a	n/a	"Trial"	n/a	n/a	n/a	n/a	"NULL"	"NULL"	"NULL"	"523"	"stimuli/VerticalHorizontal_3.30000_0.22500.png"	"arrowleft"	n/a	"VerticalHorizontal"	"arrowleft"	"1238"	"TRUE"	"VerticalHorizontal"	"3.3000000000"	"0.2250000000"	"1"	"23"
n/a	"html-keyboard-response"	"62"	"715148"	"0.0-4.0-2.0-0.5"	"aqm2s1"	"600"	"1366"	"chrome"	"108.0.0"	"FALSE"	"Windows 10"	"60.38"	n/a	n/a	n/a	n/a	n/a	n/a	"fixation"	n/a	n/a	n/a	n/a	"NULL"	"NULL"	"NULL"	n/a	"<p style=\"color: black; font-size: 80px; padding-left: 29%; padding-right: 43%; padding-top: 8%; padding-bottom: 35%\">+</p>"	n/a	"1246"	n/a	n/a	n/a	n/a	n/a	n/a	n/a	n/a	n/a
n/a	"image-keyboard-response"	"63"	"715947"	"0.0-4.0-2.0-1.5"	"aqm2s1"	"600"	"1366"	"chrome"	"108.0.0"	"FALSE"	"Windows 10"	"60.38"	n/a	n/a	n/a	n/a	n/a	n/a	"Trial"	n/a	n/a	n/a	n/a	"NULL"	"NULL"	"NULL"	"799"	"stimuli/VerticalHorizontal_-20.27143_0.10960.png"	"arrowleft"	n/a	"VerticalHorizontal"	"arrowleft"	"1258"	"TRUE"	"VerticalHorizontal"	"-20.27143000"	"0.1096000000"	"1"	"24"
n/a	"html-keyboard-response"	"64"	"717316"	"0.0-4.0-2.0-0.6"	"aqm2s1"	"600"	"1366"	"chrome"	"108.0.0"	"FALSE"	"Windows 10"	"60.38"	n/a	n/a	n/a	n/a	n/a	n/a	"fixation"	n/a	n/a	n/a	n/a	"NULL"	"NULL"	"NULL"	n/a	"<p style=\"color: black; font-size: 80px; padding-left: 46%; padding-right: 37%; padding-top: 20%; padding-bottom: 45%\">+</p>"	n/a	"1356"	n/a	n/a	n/a	n/a	n/a	n/a	n/a	n/a	n/a
n/a	"image-keyboard-response"	"65"	"717830"	"0.0-4.0-2.0-1.6"	"aqm2s1"	"600"	"1366"	"chrome"	"108.0.0"	"FALSE"	"Windows 10"	"60.38"	n/a	n/a	n/a	n/a	n/a	n/a	"Trial"	n/a	n/a	n/a	n/a	"NULL"	"NULL"	"NULL"	"513"	"stimuli/VerticalHorizontal_-20.27143_-0.0673.png"	"arrowright"	n/a	"VerticalHorizontal"	"arrowright"	"1369"	"TRUE"	"VerticalHorizontal"	"-20.27143000"	"-0.067300000"	"1"	"25"
n/a	"html-keyboard-response"	"66"	"718927"	"0.0-4.0-2.0-0.7"	"aqm2s1"	"600"	"1366"	"chrome"	"108.0.0"	"FALSE"	"Windows 10"	"60.38"	n/a	n/a	n/a	n/a	n/a	n/a	"fixation"	n/a	n/a	n/a	n/a	"NULL"	"NULL"	"NULL"	n/a	"<p style=\"color: black; font-size: 80px; padding-left: 24%; padding-right: 3%; padding-top: 43%; padding-bottom: 26%\">+</p>"	n/a	"1085"	n/a	n/a	n/a	n/a	n/a	n/a	n/a	n/a	n/a
n/a	"image-keyboard-response"	"67"	"719410"	"0.0-4.0-2.0-1.7"	"aqm2s1"	"600"	"1366"	"chrome"	"108.0.0"	"FALSE"	"Windows 10"	"60.38"	n/a	n/a	n/a	n/a	n/a	n/a	"Trial"	n/a	n/a	n/a	n/a	"NULL"	"NULL"	"NULL"	"483"	"stimuli/VerticalHorizontal_-28.75714_-0.16217.png"	"arrowright"	n/a	"VerticalHorizontal"	"arrowright"	"1097"	"TRUE"	"VerticalHorizontal"	"-28.75714000"	"-0.162170000"	"1"	"26"
n/a	"html-keyboard-response"	"68"	"720551"	"0.0-4.0-2.0-0.8"	"aqm2s1"	"600"	"1366"	"chrome"	"108.0.0"	"FALSE"	"Windows 10"	"60.38"	n/a	n/a	n/a	n/a	n/a	n/a	"fixation"	n/a	n/a	n/a	n/a	"NULL"	"NULL"	"NULL"	n/a	"<p style=\"color: black; font-size: 80px; padding-left: 38%; padding-right: 1%; padding-top: 24%; padding-bottom: 38%\">+</p>"	n/a	"1122"	n/a	n/a	n/a	n/a	n/a	n/a	n/a	n/a	n/a
n/a	"image-keyboard-response"	"69"	"721038"	"0.0-4.0-2.0-1.8"	"aqm2s1"	"600"	"1366"	"chrome"	"108.0.0"	"FALSE"	"Windows 10"	"60.38"	n/a	n/a	n/a	n/a	n/a	n/a	"Trial"	n/a	n/a	n/a	n/a	"NULL"	"NULL"	"NULL"	"486"	"stimuli/VerticalHorizontal_-3.3000_0.22500.png"	"arrowleft"	n/a	"VerticalHorizontal"	"arrowleft"	"1141"	"TRUE"	"VerticalHorizontal"	"-3.300000000"	"0.2250000000"	"1"	"27"
n/a	"html-keyboard-response"	"70"	"722411"	"0.0-4.0-2.0-0.9"	"aqm2s1"	"600"	"1366"	"chrome"	"108.0.0"	"FALSE"	"Windows 10"	"60.38"	n/a	n/a	n/a	n/a	n/a	n/a	"fixation"	n/a	n/a	n/a	n/a	"NULL"	"NULL"	"NULL"	n/a	"<p style=\"color: black; font-size: 80px; padding-left: 22%; padding-right: 38%; padding-top: 27%; padding-bottom: 25%\">+</p>"	n/a	"1366"	n/a	n/a	n/a	n/a	n/a	n/a	n/a	n/a	n/a
n/a	"image-keyboard-response"	"71"	"723458"	"0.0-4.0-2.0-1.9"	"aqm2s1"	"600"	"1366"	"chrome"	"108.0.0"	"FALSE"	"Windows 10"	"60.38"	n/a	n/a	n/a	n/a	n/a	n/a	"Trial"	n/a	n/a	n/a	n/a	"NULL"	"NULL"	"NULL"	"1045"	"stimuli/VerticalHorizontal_11.78571_-0.1096.png"	"arrowleft"	n/a	"VerticalHorizontal"	"arrowright"	"1373"	"FALSE"	"VerticalHorizontal"	"11.785710000"	"-0.109600000"	"1"	"28"
n/a	"html-keyboard-response"	"72"	"724777"	"0.0-4.0-2.0-0.10"	"aqm2s1"	"600"	"1366"	"chrome"	"108.0.0"	"FALSE"	"Windows 10"	"60.38"	n/a	n/a	n/a	n/a	n/a	n/a	"fixation"	n/a	n/a	n/a	n/a	"NULL"	"NULL"	"NULL"	n/a	"<p style=\"color: black; font-size: 80px; padding-left: 5%; padding-right: 24%; padding-top: 5%; padding-bottom: 38%\">+</p>"	n/a	"1300"	n/a	n/a	n/a	n/a	n/a	n/a	n/a	n/a	n/a
n/a	"image-keyboard-response"	"73"	"725308"	"0.0-4.0-2.0-1.10"	"aqm2s1"	"600"	"1366"	"chrome"	"108.0.0"	"FALSE"	"Windows 10"	"60.38"	n/a	n/a	n/a	n/a	n/a	n/a	"Trial"	n/a	n/a	n/a	n/a	"NULL"	"NULL"	"NULL"	"528"	"stimuli/VerticalHorizontal_-28.75714_-0.2250.png"	"arrowright"	n/a	"VerticalHorizontal"	"arrowright"	"1319"	"TRUE"	"VerticalHorizontal"	"-28.75714000"	"-0.225000000"	"1"	"29"
n/a	"html-keyboard-response"	"74"	"726595"	"0.0-4.0-2.0-0.11"	"aqm2s1"	"600"	"1366"	"chrome"	"108.0.0"	"FALSE"	"Windows 10"	"60.38"	n/a	n/a	n/a	n/a	n/a	n/a	"fixation"	n/a	n/a	n/a	n/a	"NULL"	"NULL"	"NULL"	n/a	"<p style=\"color: black; font-size: 80px; padding-left: 36%; padding-right: 19%; padding-top: 30%; padding-bottom: 24%\">+</p>"	n/a	"1276"	n/a	n/a	n/a	n/a	n/a	n/a	n/a	n/a	n/a
n/a	"image-keyboard-response"	"75"	"727053"	"0.0-4.0-2.0-1.11"	"aqm2s1"	"600"	"1366"	"chrome"	"108.0.0"	"FALSE"	"Windows 10"	"60.38"	n/a	n/a	n/a	n/a	n/a	n/a	"Trial"	n/a	n/a	n/a	n/a	"NULL"	"NULL"	"NULL"	"457"	"stimuli/VerticalHorizontal_-20.27143_0.16217.png"	"arrowleft"	n/a	"VerticalHorizontal"	"arrowleft"	"1287"	"TRUE"	"VerticalHorizontal"	"-20.27143000"	"0.1621700000"	"1"	"30"
n/a	"html-keyboard-response"	"76"	"728129"	"0.0-4.0-2.0-0.12"	"aqm2s1"	"600"	"1366"	"chrome"	"108.0.0"	"FALSE"	"Windows 10"	"60.38"	n/a	n/a	n/a	n/a	n/a	n/a	"fixation"	n/a	n/a	n/a	n/a	"NULL"	"NULL"	"NULL"	n/a	"<p style=\"color: black; font-size: 80px; padding-left: 38%; padding-right: 25%; padding-top: 21%; padding-bottom: 7%\">+</p>"	n/a	"1063"	n/a	n/a	n/a	n/a	n/a	n/a	n/a	n/a	n/a
n/a	"image-keyboard-response"	"77"	"729035"	"0.0-4.0-2.0-1.12"	"aqm2s1"	"600"	"1366"	"chrome"	"108.0.0"	"FALSE"	"Windows 10"	"60.38"	n/a	n/a	n/a	n/a	n/a	n/a	"Trial"	n/a	n/a	n/a	n/a	"NULL"	"NULL"	"NULL"	"904"	"stimuli/VerticalHorizontal_-11.78571_0.10960.png"	"arrowleft"	n/a	"VerticalHorizontal"	"arrowleft"	"1076"	"TRUE"	"VerticalHorizontal"	"-11.78571000"	"0.1096000000"	"1"	"31"
n/a	"html-keyboard-response"	"78"	"730429"	"0.0-4.0-2.0-0.13"	"aqm2s1"	"600"	"1366"	"chrome"	"108.0.0"	"FALSE"	"Windows 10"	"60.38"	n/a	n/a	n/a	n/a	n/a	n/a	"fixation"	n/a	n/a	n/a	n/a	"NULL"	"NULL"	"NULL"	n/a	"<p style=\"color: black; font-size: 80px; padding-left: 6%; padding-right: 2%; padding-top: 41%; padding-bottom: 28%\">+</p>"	n/a	"1381"	n/a	n/a	n/a	n/a	n/a	n/a	n/a	n/a	n/a
n/a	"image-keyboard-response"	"79"	"730823"	"0.0-4.0-2.0-1.13"	"aqm2s1"	"600"	"1366"	"chrome"	"108.0.0"	"FALSE"	"Windows 10"	"60.38"	n/a	n/a	n/a	n/a	n/a	n/a	"Trial"	n/a	n/a	n/a	n/a	"NULL"	"NULL"	"NULL"	"393"	"stimuli/VerticalHorizontal_-20.27143_-0.1096.png"	"arrowright"	n/a	"VerticalHorizontal"	"arrowright"	"1394"	"TRUE"	"VerticalHorizontal"	"-20.27143000"	"-0.109600000"	"1"	"32"
n/a	"html-keyboard-response"	"80"	"732307"	"0.0-4.0-2.0-0.14"	"aqm2s1"	"600"	"1366"	"chrome"	"108.0.0"	"FALSE"	"Windows 10"	"60.38"	n/a	n/a	n/a	n/a	n/a	n/a	"fixation"	n/a	n/a	n/a	n/a	"NULL"	"NULL"	"NULL"	n/a	"<p style=\"color: black; font-size: 80px; padding-left: 43%; padding-right: 43%; padding-top: 12%; padding-bottom: 11%\">+</p>"	n/a	"1476"	n/a	n/a	n/a	n/a	n/a	n/a	n/a	n/a	n/a
n/a	"image-keyboard-response"	"81"	"732793"	"0.0-4.0-2.0-1.14"	"aqm2s1"	"600"	"1366"	"chrome"	"108.0.0"	"FALSE"	"Windows 10"	"60.38"	n/a	n/a	n/a	n/a	n/a	n/a	"Trial"	n/a	n/a	n/a	n/a	"NULL"	"NULL"	"NULL"	"485"	"stimuli/VerticalHorizontal_-11.78571_-0.2250.png"	"arrowright"	n/a	"VerticalHorizontal"	"arrowright"	"1484"	"TRUE"	"VerticalHorizontal"	"-11.78571000"	"-0.225000000"	"1"	"33"
n/a	"html-keyboard-response"	"82"	"734284"	"0.0-4.0-2.0-0.15"	"aqm2s1"	"600"	"1366"	"chrome"	"108.0.0"	"FALSE"	"Windows 10"	"60.38"	n/a	n/a	n/a	n/a	n/a	n/a	"fixation"	n/a	n/a	n/a	n/a	"NULL"	"NULL"	"NULL"	n/a	"<p style=\"color: black; font-size: 80px; padding-left: 2%; padding-right: 19%; padding-top: 16%; padding-bottom: 1%\">+</p>"	n/a	"1481"	n/a	n/a	n/a	n/a	n/a	n/a	n/a	n/a	n/a
n/a	"image-keyboard-response"	"83"	"735154"	"0.0-4.0-2.0-1.15"	"aqm2s1"	"600"	"1366"	"chrome"	"108.0.0"	"FALSE"	"Windows 10"	"60.38"	n/a	n/a	n/a	n/a	n/a	n/a	"Trial"	n/a	n/a	n/a	n/a	"NULL"	"NULL"	"NULL"	"869"	"stimuli/VerticalHorizontal_20.27143_0.22500.png"	"arrowright"	n/a	"VerticalHorizontal"	"arrowleft"	"1491"	"FALSE"	"VerticalHorizontal"	"20.271430000"	"0.2250000000"	"1"	"34"
n/a	"html-keyboard-response"	"84"	"736240"	"0.0-4.0-2.0-0.16"	"aqm2s1"	"600"	"1366"	"chrome"	"108.0.0"	"FALSE"	"Windows 10"	"60.38"	n/a	n/a	n/a	n/a	n/a	n/a	"fixation"	n/a	n/a	n/a	n/a	"NULL"	"NULL"	"NULL"	n/a	"<p style=\"color: black; font-size: 80px; padding-left: 26%; padding-right: 14%; padding-top: 38%; padding-bottom: 32%\">+</p>"	n/a	"1073"	n/a	n/a	n/a	n/a	n/a	n/a	n/a	n/a	n/a
n/a	"image-keyboard-response"	"85"	"736705"	"0.0-4.0-2.0-1.16"	"aqm2s1"	"600"	"1366"	"chrome"	"108.0.0"	"FALSE"	"Windows 10"	"60.38"	n/a	n/a	n/a	n/a	n/a	n/a	"Trial"	n/a	n/a	n/a	n/a	"NULL"	"NULL"	"NULL"	"464"	"stimuli/VerticalHorizontal_-20.27143_0.06730.png"	"arrowleft"	n/a	"VerticalHorizontal"	"arrowleft"	"1086"	"TRUE"	"VerticalHorizontal"	"-20.27143000"	"0.0673000000"	"1"	"35"
n/a	"html-keyboard-response"	"86"	"737972"	"0.0-4.0-2.0-0.17"	"aqm2s1"	"600"	"1366"	"chrome"	"108.0.0"	"FALSE"	"Windows 10"	"60.38"	n/a	n/a	n/a	n/a	n/a	n/a	"fixation"	n/a	n/a	n/a	n/a	"NULL"	"NULL"	"NULL"	n/a	"<p style=\"color: black; font-size: 80px; padding-left: 31%; padding-right: 5%; padding-top: 32%; padding-bottom: 1%\">+</p>"	n/a	"1245"	n/a	n/a	n/a	n/a	n/a	n/a	n/a	n/a	n/a
n/a	"image-keyboard-response"	"87"	"738359"	"0.0-4.0-2.0-1.17"	"aqm2s1"	"600"	"1366"	"chrome"	"108.0.0"	"FALSE"	"Windows 10"	"60.38"	n/a	n/a	n/a	n/a	n/a	n/a	"Trial"	n/a	n/a	n/a	n/a	"NULL"	"NULL"	"NULL"	"385"	"stimuli/VerticalHorizontal_-11.78571_-0.16217.png"	"arrowright"	n/a	"VerticalHorizontal"	"arrowright"	"1267"	"TRUE"	"VerticalHorizontal"	"-11.78571000"	"-0.162170000"	"1"	"36"
n/a	"html-keyboard-response"	"88"	"739550"	"0.0-4.0-2.0-0.18"	"aqm2s1"	"600"	"1366"	"chrome"	"108.0.0"	"FALSE"	"Windows 10"	"60.38"	n/a	n/a	n/a	n/a	n/a	n/a	"fixation"	n/a	n/a	n/a	n/a	"NULL"	"NULL"	"NULL"	n/a	"<p style=\"color: black; font-size: 80px; padding-left: 11%; padding-right: 26%; padding-top: 14%; padding-bottom: 28%\">+</p>"	n/a	"1180"	n/a	n/a	n/a	n/a	n/a	n/a	n/a	n/a	n/a
n/a	"image-keyboard-response"	"89"	"740823"	"0.0-4.0-2.0-1.18"	"aqm2s1"	"600"	"1366"	"chrome"	"108.0.0"	"FALSE"	"Windows 10"	"60.38"	n/a	n/a	n/a	n/a	n/a	n/a	"Trial"	n/a	n/a	n/a	n/a	"NULL"	"NULL"	"NULL"	"1272"	"stimuli/VerticalHorizontal_11.78571_-0.16217.png"	"arrowright"	n/a	"VerticalHorizontal"	"arrowright"	"1191"	"TRUE"	"VerticalHorizontal"	"11.785710000"	"-0.162170000"	"1"	"37"
n/a	"html-keyboard-response"	"90"	"741973"	"0.0-4.0-2.0-0.19"	"aqm2s1"	"600"	"1366"	"chrome"	"108.0.0"	"FALSE"	"Windows 10"	"60.38"	n/a	n/a	n/a	n/a	n/a	n/a	"fixation"	n/a	n/a	n/a	n/a	"NULL"	"NULL"	"NULL"	n/a	"<p style=\"color: black; font-size: 80px; padding-left: 39%; padding-right: 28%; padding-top: 20%; padding-bottom: 18%\">+</p>"	n/a	"1143"	n/a	n/a	n/a	n/a	n/a	n/a	n/a	n/a	n/a
n/a	"image-keyboard-response"	"91"	"742499"	"0.0-4.0-2.0-1.19"	"aqm2s1"	"600"	"1366"	"chrome"	"108.0.0"	"FALSE"	"Windows 10"	"60.38"	n/a	n/a	n/a	n/a	n/a	n/a	"Trial"	n/a	n/a	n/a	n/a	"NULL"	"NULL"	"NULL"	"525"	"stimuli/VerticalHorizontal_-28.75714_0.06730.png"	"arrowleft"	n/a	"VerticalHorizontal"	"arrowleft"	"1150"	"TRUE"	"VerticalHorizontal"	"-28.75714000"	"0.0673000000"	"1"	"38"
n/a	"html-keyboard-response"	"92"	"743975"	"0.0-4.0-2.0-0.20"	"aqm2s1"	"600"	"1366"	"chrome"	"108.0.0"	"FALSE"	"Windows 10"	"60.38"	n/a	n/a	n/a	n/a	n/a	n/a	"fixation"	n/a	n/a	n/a	n/a	"NULL"	"NULL"	"NULL"	n/a	"<p style=\"color: black; font-size: 80px; padding-left: 2%; padding-right: 35%; padding-top: 1%; padding-bottom: 43%\">+</p>"	n/a	"1458"	n/a	n/a	n/a	n/a	n/a	n/a	n/a	n/a	n/a
n/a	"image-keyboard-response"	"93"	"744502"	"0.0-4.0-2.0-1.20"	"aqm2s1"	"600"	"1366"	"chrome"	"108.0.0"	"FALSE"	"Windows 10"	"60.38"	n/a	n/a	n/a	n/a	n/a	n/a	"Trial"	n/a	n/a	n/a	n/a	"NULL"	"NULL"	"NULL"	"524"	"stimuli/VerticalHorizontal_-11.78571_-0.1096.png"	"arrowright"	n/a	"VerticalHorizontal"	"arrowright"	"1476"	"TRUE"	"VerticalHorizontal"	"-11.78571000"	"-0.109600000"	"1"	"39"
n/a	"html-keyboard-response"	"94"	"745577"	"0.0-4.0-2.0-0.21"	"aqm2s1"	"600"	"1366"	"chrome"	"108.0.0"	"FALSE"	"Windows 10"	"60.38"	n/a	n/a	n/a	n/a	n/a	n/a	"fixation"	n/a	n/a	n/a	n/a	"NULL"	"NULL"	"NULL"	n/a	"<p style=\"color: black; font-size: 80px; padding-left: 47%; padding-right: 47%; padding-top: 31%; padding-bottom: 40%\">+</p>"	n/a	"1064"	n/a	n/a	n/a	n/a	n/a	n/a	n/a	n/a	n/a
n/a	"image-keyboard-response"	"95"	"746119"	"0.0-4.0-2.0-1.21"	"aqm2s1"	"600"	"1366"	"chrome"	"108.0.0"	"FALSE"	"Windows 10"	"60.38"	n/a	n/a	n/a	n/a	n/a	n/a	"Trial"	n/a	n/a	n/a	n/a	"NULL"	"NULL"	"NULL"	"541"	"stimuli/VerticalHorizontal_-3.3000_-0.2250.png"	"arrowright"	n/a	"VerticalHorizontal"	"arrowright"	"1075"	"TRUE"	"VerticalHorizontal"	"-3.300000000"	"-0.225000000"	"1"	"40"
n/a	"html-keyboard-response"	"96"	"747339"	"0.0-4.0-2.0-0.22"	"aqm2s1"	"600"	"1366"	"chrome"	"108.0.0"	"FALSE"	"Windows 10"	"60.38"	n/a	n/a	n/a	n/a	n/a	n/a	"fixation"	n/a	n/a	n/a	n/a	"NULL"	"NULL"	"NULL"	n/a	"<p style=\"color: black; font-size: 80px; padding-left: 4%; padding-right: 26%; padding-top: 45%; padding-bottom: 11%\">+</p>"	n/a	"1200"	n/a	n/a	n/a	n/a	n/a	n/a	n/a	n/a	n/a
n/a	"image-keyboard-response"	"97"	"747791"	"0.0-4.0-2.0-1.22"	"aqm2s1"	"600"	"1366"	"chrome"	"108.0.0"	"FALSE"	"Windows 10"	"60.38"	n/a	n/a	n/a	n/a	n/a	n/a	"Trial"	n/a	n/a	n/a	n/a	"NULL"	"NULL"	"NULL"	"452"	"stimuli/VerticalHorizontal_20.27143_-0.2250.png"	"arrowleft"	n/a	"VerticalHorizontal"	"arrowright"	"1220"	"FALSE"	"VerticalHorizontal"	"20.271430000"	"-0.225000000"	"1"	"41"
n/a	"html-keyboard-response"	"98"	"749157"	"0.0-4.0-2.0-0.23"	"aqm2s1"	"600"	"1366"	"chrome"	"108.0.0"	"FALSE"	"Windows 10"	"60.38"	n/a	n/a	n/a	n/a	n/a	n/a	"fixation"	n/a	n/a	n/a	n/a	"NULL"	"NULL"	"NULL"	n/a	"<p style=\"color: black; font-size: 80px; padding-left: 28%; padding-right: 47%; padding-top: 40%; padding-bottom: 2%\">+</p>"	n/a	"1364"	n/a	n/a	n/a	n/a	n/a	n/a	n/a	n/a	n/a
n/a	"image-keyboard-response"	"99"	"749890"	"0.0-4.0-2.0-1.23"	"aqm2s1"	"600"	"1366"	"chrome"	"108.0.0"	"FALSE"	"Windows 10"	"60.38"	n/a	n/a	n/a	n/a	n/a	n/a	"Trial"	n/a	n/a	n/a	n/a	"NULL"	"NULL"	"NULL"	"732"	"stimuli/VerticalHorizontal_20.27143_-0.1096.png"	"arrowleft"	n/a	"VerticalHorizontal"	"arrowright"	"1366"	"FALSE"	"VerticalHorizontal"	"20.271430000"	"-0.109600000"	"1"	"42"
n/a	"html-keyboard-response"	"100"	"751368"	"0.0-4.0-2.0-0.24"	"aqm2s1"	"600"	"1366"	"chrome"	"108.0.0"	"FALSE"	"Windows 10"	"60.38"	n/a	n/a	n/a	n/a	n/a	n/a	"fixation"	n/a	n/a	n/a	n/a	"NULL"	"NULL"	"NULL"	n/a	"<p style=\"color: black; font-size: 80px; padding-left: 39%; padding-right: 10%; padding-top: 48%; padding-bottom: 38%\">+</p>"	n/a	"1467"	n/a	n/a	n/a	n/a	n/a	n/a	n/a	n/a	n/a
n/a	"image-keyboard-response"	"101"	"751856"	"0.0-4.0-2.0-1.24"	"aqm2s1"	"600"	"1366"	"chrome"	"108.0.0"	"FALSE"	"Windows 10"	"60.38"	n/a	n/a	n/a	n/a	n/a	n/a	"Trial"	n/a	n/a	n/a	n/a	"NULL"	"NULL"	"NULL"	"486"	"stimuli/VerticalHorizontal_-3.3000_-0.16217.png"	"arrowright"	n/a	"VerticalHorizontal"	"arrowright"	"1478"	"TRUE"	"VerticalHorizontal"	"-3.300000000"	"-0.162170000"	"1"	"43"
n/a	"html-keyboard-response"	"102"	"753337"	"0.0-4.0-2.0-0.25"	"aqm2s1"	"600"	"1366"	"chrome"	"108.0.0"	"FALSE"	"Windows 10"	"60.38"	n/a	n/a	n/a	n/a	n/a	n/a	"fixation"	n/a	n/a	n/a	n/a	"NULL"	"NULL"	"NULL"	n/a	"<p style=\"color: black; font-size: 80px; padding-left: 11%; padding-right: 29%; padding-top: 21%; padding-bottom: 44%\">+</p>"	n/a	"1473"	n/a	n/a	n/a	n/a	n/a	n/a	n/a	n/a	n/a
n/a	"image-keyboard-response"	"103"	"754418"	"0.0-4.0-2.0-1.25"	"aqm2s1"	"600"	"1366"	"chrome"	"108.0.0"	"FALSE"	"Windows 10"	"60.38"	n/a	n/a	n/a	n/a	n/a	n/a	"Trial"	n/a	n/a	n/a	n/a	"NULL"	"NULL"	"NULL"	"1079"	"stimuli/VerticalHorizontal_11.78571_-0.2250.png"	"arrowright"	n/a	"VerticalHorizontal"	"arrowright"	"1481"	"TRUE"	"VerticalHorizontal"	"11.785710000"	"-0.225000000"	"1"	"44"
n/a	"html-keyboard-response"	"104"	"755699"	"0.0-4.0-2.0-0.26"	"aqm2s1"	"600"	"1366"	"chrome"	"108.0.0"	"FALSE"	"Windows 10"	"60.38"	n/a	n/a	n/a	n/a	n/a	n/a	"fixation"	n/a	n/a	n/a	n/a	"NULL"	"NULL"	"NULL"	n/a	"<p style=\"color: black; font-size: 80px; padding-left: 5%; padding-right: 15%; padding-top: 25%; padding-bottom: 34%\">+</p>"	n/a	"1255"	n/a	n/a	n/a	n/a	n/a	n/a	n/a	n/a	n/a
n/a	"image-keyboard-response"	"105"	"756294"	"0.0-4.0-2.0-1.26"	"aqm2s1"	"600"	"1366"	"chrome"	"108.0.0"	"FALSE"	"Windows 10"	"60.38"	n/a	n/a	n/a	n/a	n/a	n/a	"Trial"	n/a	n/a	n/a	n/a	"NULL"	"NULL"	"NULL"	"593"	"stimuli/VerticalHorizontal_11.78571_0.22500.png"	"arrowleft"	n/a	"VerticalHorizontal"	"arrowleft"	"1281"	"TRUE"	"VerticalHorizontal"	"11.785710000"	"0.2250000000"	"1"	"45"
n/a	"html-keyboard-response"	"106"	"757724"	"0.0-4.0-2.0-0.27"	"aqm2s1"	"600"	"1366"	"chrome"	"108.0.0"	"FALSE"	"Windows 10"	"60.38"	n/a	n/a	n/a	n/a	n/a	n/a	"fixation"	n/a	n/a	n/a	n/a	"NULL"	"NULL"	"NULL"	n/a	"<p style=\"color: black; font-size: 80px; padding-left: 5%; padding-right: 7%; padding-top: 37%; padding-bottom: 17%\">+</p>"	n/a	"1407"	n/a	n/a	n/a	n/a	n/a	n/a	n/a	n/a	n/a
n/a	"image-keyboard-response"	"107"	"758587"	"0.0-4.0-2.0-1.27"	"aqm2s1"	"600"	"1366"	"chrome"	"108.0.0"	"FALSE"	"Windows 10"	"60.38"	n/a	n/a	n/a	n/a	n/a	n/a	"Trial"	n/a	n/a	n/a	n/a	"NULL"	"NULL"	"NULL"	"862"	"stimuli/VerticalHorizontal_20.27143_-0.16217.png"	"arrowright"	n/a	"VerticalHorizontal"	"arrowright"	"1430"	"TRUE"	"VerticalHorizontal"	"20.271430000"	"-0.162170000"	"1"	"46"
n/a	"html-keyboard-response"	"108"	"759605"	"0.0-4.0-2.0-0.28"	"aqm2s1"	"600"	"1366"	"chrome"	"108.0.0"	"FALSE"	"Windows 10"	"60.38"	n/a	n/a	n/a	n/a	n/a	n/a	"fixation"	n/a	n/a	n/a	n/a	"NULL"	"NULL"	"NULL"	n/a	"<p style=\"color: black; font-size: 80px; padding-left: 17%; padding-right: 13%; padding-top: 25%; padding-bottom: 18%\">+</p>"	n/a	"1013"	n/a	n/a	n/a	n/a	n/a	n/a	n/a	n/a	n/a
n/a	"image-keyboard-response"	"109"	"760623"	"0.0-4.0-2.0-1.28"	"aqm2s1"	"600"	"1366"	"chrome"	"108.0.0"	"FALSE"	"Windows 10"	"60.38"	n/a	n/a	n/a	n/a	n/a	n/a	"Trial"	n/a	n/a	n/a	n/a	"NULL"	"NULL"	"NULL"	"1018"	"stimuli/VerticalHorizontal_-3.3000_-0.0673.png"	"arrowleft"	n/a	"VerticalHorizontal"	"arrowright"	"1018"	"FALSE"	"VerticalHorizontal"	"-3.300000000"	"-0.067300000"	"1"	"47"
n/a	"html-keyboard-response"	"110"	"761773"	"0.0-4.0-2.0-0.29"	"aqm2s1"	"600"	"1366"	"chrome"	"108.0.0"	"FALSE"	"Windows 10"	"60.38"	n/a	n/a	n/a	n/a	n/a	n/a	"fixation"	n/a	n/a	n/a	n/a	"NULL"	"NULL"	"NULL"	n/a	"<p style=\"color: black; font-size: 80px; padding-left: 25%; padding-right: 14%; padding-top: 5%; padding-bottom: 5%\">+</p>"	n/a	"1126"	n/a	n/a	n/a	n/a	n/a	n/a	n/a	n/a	n/a
n/a	"image-keyboard-response"	"111"	"762295"	"0.0-4.0-2.0-1.29"	"aqm2s1"	"600"	"1366"	"chrome"	"108.0.0"	"FALSE"	"Windows 10"	"60.38"	n/a	n/a	n/a	n/a	n/a	n/a	"Trial"	n/a	n/a	n/a	n/a	"NULL"	"NULL"	"NULL"	"521"	"stimuli/VerticalHorizontal_-28.75714_0.16217.png"	"arrowleft"	n/a	"VerticalHorizontal"	"arrowleft"	"1150"	"TRUE"	"VerticalHorizontal"	"-28.75714000"	"0.1621700000"	"1"	"48"
n/a	"html-keyboard-response"	"112"	"763487"	"0.0-4.0-2.0-0.30"	"aqm2s1"	"600"	"1366"	"chrome"	"108.0.0"	"FALSE"	"Windows 10"	"60.38"	n/a	n/a	n/a	n/a	n/a	n/a	"fixation"	n/a	n/a	n/a	n/a	"NULL"	"NULL"	"NULL"	n/a	"<p style=\"color: black; font-size: 80px; padding-left: 46%; padding-right: 27%; padding-top: 33%; padding-bottom: 33%\">+</p>"	n/a	"1175"	n/a	n/a	n/a	n/a	n/a	n/a	n/a	n/a	n/a
n/a	"image-keyboard-response"	"113"	"764327"	"0.0-4.0-2.0-1.30"	"aqm2s1"	"600"	"1366"	"chrome"	"108.0.0"	"FALSE"	"Windows 10"	"60.38"	n/a	n/a	n/a	n/a	n/a	n/a	"Trial"	n/a	n/a	n/a	n/a	"NULL"	"NULL"	"NULL"	"839"	"stimuli/VerticalHorizontal_11.78571_-0.0673.png"	"arrowleft"	n/a	"VerticalHorizontal"	"arrowright"	"1192"	"FALSE"	"VerticalHorizontal"	"11.785710000"	"-0.067300000"	"1"	"49"
n/a	"html-keyboard-response"	"114"	"765398"	"0.0-4.0-2.0-0.31"	"aqm2s1"	"600"	"1366"	"chrome"	"108.0.0"	"FALSE"	"Windows 10"	"60.38"	n/a	n/a	n/a	n/a	n/a	n/a	"fixation"	n/a	n/a	n/a	n/a	"NULL"	"NULL"	"NULL"	n/a	"<p style=\"color: black; font-size: 80px; padding-left: 39%; padding-right: 47%; padding-top: 44%; padding-bottom: 26%\">+</p>"	n/a	"1062"	n/a	n/a	n/a	n/a	n/a	n/a	n/a	n/a	n/a
n/a	"image-keyboard-response"	"115"	"766502"	"0.0-4.0-2.0-1.31"	"aqm2s1"	"600"	"1366"	"chrome"	"108.0.0"	"FALSE"	"Windows 10"	"60.38"	n/a	n/a	n/a	n/a	n/a	n/a	"Trial"	n/a	n/a	n/a	n/a	"NULL"	"NULL"	"NULL"	"1101"	"stimuli/VerticalHorizontal_3.30000_-0.0673.png"	"arrowright"	n/a	"VerticalHorizontal"	"arrowright"	"1071"	"TRUE"	"VerticalHorizontal"	"3.3000000000"	"-0.067300000"	"1"	"50"
n/a	"html-keyboard-response"	"116"	"768011"	"0.0-4.0-2.0-0.32"	"aqm2s1"	"600"	"1366"	"chrome"	"108.0.0"	"FALSE"	"Windows 10"	"60.38"	n/a	n/a	n/a	n/a	n/a	n/a	"fixation"	n/a	n/a	n/a	n/a	"NULL"	"NULL"	"NULL"	n/a	"<p style=\"color: black; font-size: 80px; padding-left: 46%; padding-right: 28%; padding-top: 25%; padding-bottom: 25%\">+</p>"	n/a	"1487"	n/a	n/a	n/a	n/a	n/a	n/a	n/a	n/a	n/a
n/a	"image-keyboard-response"	"117"	"768599"	"0.0-4.0-2.0-1.32"	"aqm2s1"	"600"	"1366"	"chrome"	"108.0.0"	"FALSE"	"Windows 10"	"60.38"	n/a	n/a	n/a	n/a	n/a	n/a	"Trial"	n/a	n/a	n/a	n/a	"NULL"	"NULL"	"NULL"	"586"	"stimuli/VerticalHorizontal_-28.75714_-0.1096.png"	"arrowright"	n/a	"VerticalHorizontal"	"arrowright"	"1509"	"TRUE"	"VerticalHorizontal"	"-28.75714000"	"-0.109600000"	"1"	"51"
n/a	"html-keyboard-response"	"118"	"769803"	"0.0-4.0-2.0-0.33"	"aqm2s1"	"600"	"1366"	"chrome"	"108.0.0"	"FALSE"	"Windows 10"	"60.38"	n/a	n/a	n/a	n/a	n/a	n/a	"fixation"	n/a	n/a	n/a	n/a	"NULL"	"NULL"	"NULL"	n/a	"<p style=\"color: black; font-size: 80px; padding-left: 24%; padding-right: 43%; padding-top: 33%; padding-bottom: 19%\">+</p>"	n/a	"1189"	n/a	n/a	n/a	n/a	n/a	n/a	n/a	n/a	n/a
n/a	"image-keyboard-response"	"119"	"770722"	"0.0-4.0-2.0-1.33"	"aqm2s1"	"600"	"1366"	"chrome"	"108.0.0"	"FALSE"	"Windows 10"	"60.38"	n/a	n/a	n/a	n/a	n/a	n/a	"Trial"	n/a	n/a	n/a	n/a	"NULL"	"NULL"	"NULL"	"917"	"stimuli/VerticalHorizontal_3.30000_0.06730.png"	"arrowleft"	n/a	"VerticalHorizontal"	"arrowleft"	"1204"	"TRUE"	"VerticalHorizontal"	"3.3000000000"	"0.0673000000"	"1"	"52"
n/a	"html-keyboard-response"	"120"	"771771"	"0.0-4.0-2.0-0.34"	"aqm2s1"	"600"	"1366"	"chrome"	"108.0.0"	"FALSE"	"Windows 10"	"60.38"	n/a	n/a	n/a	n/a	n/a	n/a	"fixation"	n/a	n/a	n/a	n/a	"NULL"	"NULL"	"NULL"	n/a	"<p style=\"color: black; font-size: 80px; padding-left: 47%; padding-right: 12%; padding-top: 44%; padding-bottom: 17%\">+</p>"	n/a	"1040"	n/a	n/a	n/a	n/a	n/a	n/a	n/a	n/a	n/a
n/a	"image-keyboard-response"	"121"	"772318"	"0.0-4.0-2.0-1.34"	"aqm2s1"	"600"	"1366"	"chrome"	"108.0.0"	"FALSE"	"Windows 10"	"60.38"	n/a	n/a	n/a	n/a	n/a	n/a	"Trial"	n/a	n/a	n/a	n/a	"NULL"	"NULL"	"NULL"	"546"	"stimuli/VerticalHorizontal_-28.75714_0.22500.png"	"arrowleft"	n/a	"VerticalHorizontal"	"arrowleft"	"1049"	"TRUE"	"VerticalHorizontal"	"-28.75714000"	"0.2250000000"	"1"	"53"
n/a	"html-keyboard-response"	"122"	"773755"	"0.0-4.0-2.0-0.35"	"aqm2s1"	"600"	"1366"	"chrome"	"108.0.0"	"FALSE"	"Windows 10"	"60.38"	n/a	n/a	n/a	n/a	n/a	n/a	"fixation"	n/a	n/a	n/a	n/a	"NULL"	"NULL"	"NULL"	n/a	"<p style=\"color: black; font-size: 80px; padding-left: 31%; padding-right: 39%; padding-top: 14%; padding-bottom: 28%\">+</p>"	n/a	"1419"	n/a	n/a	n/a	n/a	n/a	n/a	n/a	n/a	n/a
n/a	"image-keyboard-response"	"123"	"774180"	"0.0-4.0-2.0-1.35"	"aqm2s1"	"600"	"1366"	"chrome"	"108.0.0"	"FALSE"	"Windows 10"	"60.38"	n/a	n/a	n/a	n/a	n/a	n/a	"Trial"	n/a	n/a	n/a	n/a	"NULL"	"NULL"	"NULL"	"424"	"stimuli/VerticalHorizontal_11.78571_0.10960.png"	"arrowright"	n/a	"VerticalHorizontal"	"arrowleft"	"1437"	"FALSE"	"VerticalHorizontal"	"11.785710000"	"0.1096000000"	"1"	"54"
n/a	"html-keyboard-response"	"124"	"775615"	"0.0-4.0-2.0-0.36"	"aqm2s1"	"600"	"1366"	"chrome"	"108.0.0"	"FALSE"	"Windows 10"	"60.38"	n/a	n/a	n/a	n/a	n/a	n/a	"fixation"	n/a	n/a	n/a	n/a	"NULL"	"NULL"	"NULL"	n/a	"<p style=\"color: black; font-size: 80px; padding-left: 11%; padding-right: 29%; padding-top: 42%; padding-bottom: 19%\">+</p>"	n/a	"1429"	n/a	n/a	n/a	n/a	n/a	n/a	n/a	n/a	n/a
n/a	"image-keyboard-response"	"125"	"776098"	"0.0-4.0-2.0-1.36"	"aqm2s1"	"600"	"1366"	"chrome"	"108.0.0"	"FALSE"	"Windows 10"	"60.38"	n/a	n/a	n/a	n/a	n/a	n/a	"Trial"	n/a	n/a	n/a	n/a	"NULL"	"NULL"	"NULL"	"482"	"stimuli/VerticalHorizontal_28.75714_0.22500.png"	"arrowright"	n/a	"VerticalHorizontal"	"arrowleft"	"1435"	"FALSE"	"VerticalHorizontal"	"28.757140000"	"0.2250000000"	"1"	"55"
n/a	"html-keyboard-response"	"126"	"777224"	"0.0-4.0-2.0-0.37"	"aqm2s1"	"600"	"1366"	"chrome"	"108.0.0"	"FALSE"	"Windows 10"	"60.38"	n/a	n/a	n/a	n/a	n/a	n/a	"fixation"	n/a	n/a	n/a	n/a	"NULL"	"NULL"	"NULL"	n/a	"<p style=\"color: black; font-size: 80px; padding-left: 23%; padding-right: 21%; padding-top: 26%; padding-bottom: 5%\">+</p>"	n/a	"1115"	n/a	n/a	n/a	n/a	n/a	n/a	n/a	n/a	n/a
n/a	"image-keyboard-response"	"127"	"778677"	"0.0-4.0-2.0-1.37"	"aqm2s1"	"600"	"1366"	"chrome"	"108.0.0"	"FALSE"	"Windows 10"	"60.38"	n/a	n/a	n/a	n/a	n/a	n/a	"Trial"	n/a	n/a	n/a	n/a	"NULL"	"NULL"	"NULL"	"1451"	"stimuli/VerticalHorizontal_11.78571_0.06730.png"	"arrowright"	n/a	"VerticalHorizontal"	"arrowleft"	"1126"	"FALSE"	"VerticalHorizontal"	"11.785710000"	"0.0673000000"	"1"	"56"
n/a	"html-keyboard-response"	"128"	"780127"	"0.0-4.0-2.0-0.38"	"aqm2s1"	"600"	"1366"	"chrome"	"108.0.0"	"FALSE"	"Windows 10"	"60.38"	n/a	n/a	n/a	n/a	n/a	n/a	"fixation"	n/a	n/a	n/a	n/a	"NULL"	"NULL"	"NULL"	n/a	"<p style=\"color: black; font-size: 80px; padding-left: 27%; padding-right: 34%; padding-top: 24%; padding-bottom: 19%\">+</p>"	n/a	"1433"	n/a	n/a	n/a	n/a	n/a	n/a	n/a	n/a	n/a
n/a	"image-keyboard-response"	"129"	"781059"	"0.0-4.0-2.0-1.38"	"aqm2s1"	"600"	"1366"	"chrome"	"108.0.0"	"FALSE"	"Windows 10"	"60.38"	n/a	n/a	n/a	n/a	n/a	n/a	"Trial"	n/a	n/a	n/a	n/a	"NULL"	"NULL"	"NULL"	"931"	"stimuli/VerticalHorizontal_-3.3000_0.10960.png"	"arrowleft"	n/a	"VerticalHorizontal"	"arrowleft"	"1450"	"TRUE"	"VerticalHorizontal"	"-3.300000000"	"0.1096000000"	"1"	"57"
n/a	"html-keyboard-response"	"130"	"782190"	"0.0-4.0-2.0-0.39"	"aqm2s1"	"600"	"1366"	"chrome"	"108.0.0"	"FALSE"	"Windows 10"	"60.38"	n/a	n/a	n/a	n/a	n/a	n/a	"fixation"	n/a	n/a	n/a	n/a	"NULL"	"NULL"	"NULL"	n/a	"<p style=\"color: black; font-size: 80px; padding-left: 18%; padding-right: 27%; padding-top: 35%; padding-bottom: 24%\">+</p>"	n/a	"1115"	n/a	n/a	n/a	n/a	n/a	n/a	n/a	n/a	n/a
n/a	"image-keyboard-response"	"131"	"783332"	"0.0-4.0-2.0-1.39"	"aqm2s1"	"600"	"1366"	"chrome"	"108.0.0"	"FALSE"	"Windows 10"	"60.38"	n/a	n/a	n/a	n/a	n/a	n/a	"Trial"	n/a	n/a	n/a	n/a	"NULL"	"NULL"	"NULL"	"1141"	"stimuli/VerticalHorizontal_3.30000_0.16217.png"	"arrowleft"	n/a	"VerticalHorizontal"	"arrowleft"	"1131"	"TRUE"	"VerticalHorizontal"	"3.3000000000"	"0.1621700000"	"1"	"58"
n/a	"html-keyboard-response"	"132"	"784838"	"0.0-4.0-2.0-0.40"	"aqm2s1"	"600"	"1366"	"chrome"	"108.0.0"	"FALSE"	"Windows 10"	"60.38"	n/a	n/a	n/a	n/a	n/a	n/a	"fixation"	n/a	n/a	n/a	n/a	"NULL"	"NULL"	"NULL"	n/a	"<p style=\"color: black; font-size: 80px; padding-left: 38%; padding-right: 40%; padding-top: 36%; padding-bottom: 6%\">+</p>"	n/a	"1488"	n/a	n/a	n/a	n/a	n/a	n/a	n/a	n/a	n/a
n/a	"image-keyboard-response"	"133"	"785536"	"0.0-4.0-2.0-1.40"	"aqm2s1"	"600"	"1366"	"chrome"	"108.0.0"	"FALSE"	"Windows 10"	"60.38"	n/a	n/a	n/a	n/a	n/a	n/a	"Trial"	n/a	n/a	n/a	n/a	"NULL"	"NULL"	"NULL"	"696"	"stimuli/VerticalHorizontal_20.27143_0.16217.png"	"arrowright"	n/a	"VerticalHorizontal"	"arrowleft"	"1506"	"FALSE"	"VerticalHorizontal"	"20.271430000"	"0.1621700000"	"1"	"59"
n/a	"html-keyboard-response"	"134"	"786748"	"0.0-4.0-2.0-0.41"	"aqm2s1"	"600"	"1366"	"chrome"	"108.0.0"	"FALSE"	"Windows 10"	"60.38"	n/a	n/a	n/a	n/a	n/a	n/a	"fixation"	n/a	n/a	n/a	n/a	"NULL"	"NULL"	"NULL"	n/a	"<p style=\"color: black; font-size: 80px; padding-left: 30%; padding-right: 13%; padding-top: 10%; padding-bottom: 7%\">+</p>"	n/a	"1201"	n/a	n/a	n/a	n/a	n/a	n/a	n/a	n/a	n/a
n/a	"image-keyboard-response"	"135"	"787285"	"0.0-4.0-2.0-1.41"	"aqm2s1"	"600"	"1366"	"chrome"	"108.0.0"	"FALSE"	"Windows 10"	"60.38"	n/a	n/a	n/a	n/a	n/a	n/a	"Trial"	n/a	n/a	n/a	n/a	"NULL"	"NULL"	"NULL"	"537"	"stimuli/VerticalHorizontal_-28.75714_-0.0673.png"	"arrowright"	n/a	"VerticalHorizontal"	"arrowright"	"1212"	"TRUE"	"VerticalHorizontal"	"-28.75714000"	"-0.067300000"	"1"	"60"
n/a	"html-keyboard-response"	"136"	"788457"	"0.0-4.0-2.0-0.42"	"aqm2s1"	"600"	"1366"	"chrome"	"108.0.0"	"FALSE"	"Windows 10"	"60.38"	n/a	n/a	n/a	n/a	n/a	n/a	"fixation"	n/a	n/a	n/a	n/a	"NULL"	"NULL"	"NULL"	n/a	"<p style=\"color: black; font-size: 80px; padding-left: 4%; padding-right: 22%; padding-top: 4%; padding-bottom: 5%\">+</p>"	n/a	"1167"	n/a	n/a	n/a	n/a	n/a	n/a	n/a	n/a	n/a
n/a	"image-keyboard-response"	"137"	"788930"	"0.0-4.0-2.0-1.42"	"aqm2s1"	"600"	"1366"	"chrome"	"108.0.0"	"FALSE"	"Windows 10"	"60.38"	n/a	n/a	n/a	n/a	n/a	n/a	"Trial"	n/a	n/a	n/a	n/a	"NULL"	"NULL"	"NULL"	"471"	"stimuli/VerticalHorizontal_-28.75714_0.10960.png"	"arrowleft"	n/a	"VerticalHorizontal"	"arrowleft"	"1172"	"TRUE"	"VerticalHorizontal"	"-28.75714000"	"0.1096000000"	"1"	"61"
n/a	"html-keyboard-response"	"138"	"790017"	"0.0-4.0-2.0-0.43"	"aqm2s1"	"600"	"1366"	"chrome"	"108.0.0"	"FALSE"	"Windows 10"	"60.38"	n/a	n/a	n/a	n/a	n/a	n/a	"fixation"	n/a	n/a	n/a	n/a	"NULL"	"NULL"	"NULL"	n/a	"<p style=\"color: black; font-size: 80px; padding-left: 42%; padding-right: 22%; padding-top: 37%; padding-bottom: 45%\">+</p>"	n/a	"1082"	n/a	n/a	n/a	n/a	n/a	n/a	n/a	n/a	n/a
n/a	"image-keyboard-response"	"139"	"790583"	"0.0-4.0-2.0-1.43"	"aqm2s1"	"600"	"1366"	"chrome"	"108.0.0"	"FALSE"	"Windows 10"	"60.38"	n/a	n/a	n/a	n/a	n/a	n/a	"Trial"	n/a	n/a	n/a	n/a	"NULL"	"NULL"	"NULL"	"566"	"stimuli/VerticalHorizontal_20.27143_0.06730.png"	"arrowright"	n/a	"VerticalHorizontal"	"arrowleft"	"1087"	"FALSE"	"VerticalHorizontal"	"20.271430000"	"0.0673000000"	"1"	"62"
n/a	"html-keyboard-response"	"140"	"791660"	"0.0-4.0-2.0-0.44"	"aqm2s1"	"600"	"1366"	"chrome"	"108.0.0"	"FALSE"	"Windows 10"	"60.38"	n/a	n/a	n/a	n/a	n/a	n/a	"fixation"	n/a	n/a	n/a	n/a	"NULL"	"NULL"	"NULL"	n/a	"<p style=\"color: black; font-size: 80px; padding-left: 33%; padding-right: 28%; padding-top: 47%; padding-bottom: 0%\">+</p>"	n/a	"1066"	n/a	n/a	n/a	n/a	n/a	n/a	n/a	n/a	n/a
n/a	"image-keyboard-response"	"141"	"792157"	"0.0-4.0-2.0-1.44"	"aqm2s1"	"600"	"1366"	"chrome"	"108.0.0"	"FALSE"	"Windows 10"	"60.38"	n/a	n/a	n/a	n/a	n/a	n/a	"Trial"	n/a	n/a	n/a	n/a	"NULL"	"NULL"	"NULL"	"496"	"stimuli/VerticalHorizontal_28.75714_-0.16217.png"	"arrowleft"	n/a	"VerticalHorizontal"	"arrowright"	"1077"	"FALSE"	"VerticalHorizontal"	"28.757140000"	"-0.162170000"	"1"	"63"
n/a	"html-keyboard-response"	"142"	"793411"	"0.0-4.0-2.0-0.45"	"aqm2s1"	"600"	"1366"	"chrome"	"108.0.0"	"FALSE"	"Windows 10"	"60.38"	n/a	n/a	n/a	n/a	n/a	n/a	"fixation"	n/a	n/a	n/a	n/a	"NULL"	"NULL"	"NULL"	n/a	"<p style=\"color: black; font-size: 80px; padding-left: 34%; padding-right: 13%; padding-top: 24%; padding-bottom: 12%\">+</p>"	n/a	"1238"	n/a	n/a	n/a	n/a	n/a	n/a	n/a	n/a	n/a
n/a	"image-keyboard-response"	"143"	"794384"	"0.0-4.0-2.0-1.45"	"aqm2s1"	"600"	"1366"	"chrome"	"108.0.0"	"FALSE"	"Windows 10"	"60.38"	n/a	n/a	n/a	n/a	n/a	n/a	"Trial"	n/a	n/a	n/a	n/a	"NULL"	"NULL"	"NULL"	"972"	"stimuli/VerticalHorizontal_-3.3000_0.16217.png"	"arrowleft"	n/a	"VerticalHorizontal"	"arrowleft"	"1254"	"TRUE"	"VerticalHorizontal"	"-3.300000000"	"0.1621700000"	"1"	"64"
n/a	"html-keyboard-response"	"144"	"795758"	"0.0-4.0-2.0-0.46"	"aqm2s1"	"600"	"1366"	"chrome"	"108.0.0"	"FALSE"	"Windows 10"	"60.38"	n/a	n/a	n/a	n/a	n/a	n/a	"fixation"	n/a	n/a	n/a	n/a	"NULL"	"NULL"	"NULL"	n/a	"<p style=\"color: black; font-size: 80px; padding-left: 17%; padding-right: 9%; padding-top: 49%; padding-bottom: 39%\">+</p>"	n/a	"1350"	n/a	n/a	n/a	n/a	n/a	n/a	n/a	n/a	n/a
n/a	"image-keyboard-response"	"145"	"796277"	"0.0-4.0-2.0-1.46"	"aqm2s1"	"600"	"1366"	"chrome"	"108.0.0"	"FALSE"	"Windows 10"	"60.38"	n/a	n/a	n/a	n/a	n/a	n/a	"Trial"	n/a	n/a	n/a	n/a	"NULL"	"NULL"	"NULL"	"517"	"stimuli/VerticalHorizontal_20.27143_0.10960.png"	"arrowright"	n/a	"VerticalHorizontal"	"arrowleft"	"1374"	"FALSE"	"VerticalHorizontal"	"20.271430000"	"0.1096000000"	"1"	"65"
n/a	"html-keyboard-response"	"146"	"797722"	"0.0-4.0-2.0-0.47"	"aqm2s1"	"600"	"1366"	"chrome"	"108.0.0"	"FALSE"	"Windows 10"	"60.38"	n/a	n/a	n/a	n/a	n/a	n/a	"fixation"	n/a	n/a	n/a	n/a	"NULL"	"NULL"	"NULL"	n/a	"<p style=\"color: black; font-size: 80px; padding-left: 9%; padding-right: 0%; padding-top: 30%; padding-bottom: 49%\">+</p>"	n/a	"1432"	n/a	n/a	n/a	n/a	n/a	n/a	n/a	n/a	n/a
n/a	"image-keyboard-response"	"147"	"798417"	"0.0-4.0-2.0-1.47"	"aqm2s1"	"600"	"1366"	"chrome"	"108.0.0"	"FALSE"	"Windows 10"	"60.38"	n/a	n/a	n/a	n/a	n/a	n/a	"Trial"	n/a	n/a	n/a	n/a	"NULL"	"NULL"	"NULL"	"694"	"stimuli/VerticalHorizontal_20.27143_-0.0673.png"	"arrowleft"	n/a	"VerticalHorizontal"	"arrowright"	"1445"	"FALSE"	"VerticalHorizontal"	"20.271430000"	"-0.067300000"	"1"	"66"
n/a	"html-keyboard-response"	"148"	"799475"	"0.0-4.0-2.0-0.48"	"aqm2s1"	"600"	"1366"	"chrome"	"108.0.0"	"FALSE"	"Windows 10"	"60.38"	n/a	n/a	n/a	n/a	n/a	n/a	"fixation"	n/a	n/a	n/a	n/a	"NULL"	"NULL"	"NULL"	n/a	"<p style=\"color: black; font-size: 80px; padding-left: 1%; padding-right: 31%; padding-top: 42%; padding-bottom: 41%\">+</p>"	n/a	"1040"	n/a	n/a	n/a	n/a	n/a	n/a	n/a	n/a	n/a
n/a	"image-keyboard-response"	"149"	"800042"	"0.0-4.0-2.0-1.48"	"aqm2s1"	"600"	"1366"	"chrome"	"108.0.0"	"FALSE"	"Windows 10"	"60.38"	n/a	n/a	n/a	n/a	n/a	n/a	"Trial"	n/a	n/a	n/a	n/a	"NULL"	"NULL"	"NULL"	"566"	"stimuli/VerticalHorizontal_-20.27143_0.22500.png"	"arrowleft"	n/a	"VerticalHorizontal"	"arrowleft"	"1058"	"TRUE"	"VerticalHorizontal"	"-20.27143000"	"0.2250000000"	"1"	"67"
n/a	"html-keyboard-response"	"150"	"801090"	"0.0-4.0-2.0-0.49"	"aqm2s1"	"600"	"1366"	"chrome"	"108.0.0"	"FALSE"	"Windows 10"	"60.38"	n/a	n/a	n/a	n/a	n/a	n/a	"fixation"	n/a	n/a	n/a	n/a	"NULL"	"NULL"	"NULL"	n/a	"<p style=\"color: black; font-size: 80px; padding-left: 26%; padding-right: 37%; padding-top: 11%; padding-bottom: 28%\">+</p>"	n/a	"1043"	n/a	n/a	n/a	n/a	n/a	n/a	n/a	n/a	n/a
n/a	"image-keyboard-response"	"151"	"802325"	"0.0-4.0-2.0-1.49"	"aqm2s1"	"600"	"1366"	"chrome"	"108.0.0"	"FALSE"	"Windows 10"	"60.38"	n/a	n/a	n/a	n/a	n/a	n/a	"Trial"	n/a	n/a	n/a	n/a	"NULL"	"NULL"	"NULL"	"1234"	"stimuli/VerticalHorizontal_28.75714_-0.2250.png"	"arrowleft"	n/a	"VerticalHorizontal"	"arrowright"	"1048"	"FALSE"	"VerticalHorizontal"	"28.757140000"	"-0.225000000"	"1"	"68"
n/a	"html-keyboard-response"	"152"	"803507"	"0.0-4.0-2.0-0.50"	"aqm2s1"	"600"	"1366"	"chrome"	"108.0.0"	"FALSE"	"Windows 10"	"60.38"	n/a	n/a	n/a	n/a	n/a	n/a	"fixation"	n/a	n/a	n/a	n/a	"NULL"	"NULL"	"NULL"	n/a	"<p style=\"color: black; font-size: 80px; padding-left: 32%; padding-right: 25%; padding-top: 37%; padding-bottom: 18%\">+</p>"	n/a	"1174"	n/a	n/a	n/a	n/a	n/a	n/a	n/a	n/a	n/a
n/a	"image-keyboard-response"	"153"	"803998"	"0.0-4.0-2.0-1.50"	"aqm2s1"	"600"	"1366"	"chrome"	"108.0.0"	"FALSE"	"Windows 10"	"60.38"	n/a	n/a	n/a	n/a	n/a	n/a	"Trial"	n/a	n/a	n/a	n/a	"NULL"	"NULL"	"NULL"	"490"	"stimuli/VerticalHorizontal_-20.27143_-0.16217.png"	"arrowright"	n/a	"VerticalHorizontal"	"arrowright"	"1182"	"TRUE"	"VerticalHorizontal"	"-20.27143000"	"-0.162170000"	"1"	"69"
n/a	"html-keyboard-response"	"154"	"805420"	"0.0-4.0-2.0-0.51"	"aqm2s1"	"600"	"1366"	"chrome"	"108.0.0"	"FALSE"	"Windows 10"	"60.38"	n/a	n/a	n/a	n/a	n/a	n/a	"fixation"	n/a	n/a	n/a	n/a	"NULL"	"NULL"	"NULL"	n/a	"<p style=\"color: black; font-size: 80px; padding-left: 33%; padding-right: 20%; padding-top: 12%; padding-bottom: 49%\">+</p>"	n/a	"1405"	n/a	n/a	n/a	n/a	n/a	n/a	n/a	n/a	n/a
n/a	"image-keyboard-response"	"155"	"806222"	"0.0-4.0-2.0-1.51"	"aqm2s1"	"600"	"1366"	"chrome"	"108.0.0"	"FALSE"	"Windows 10"	"60.38"	n/a	n/a	n/a	n/a	n/a	n/a	"Trial"	n/a	n/a	n/a	n/a	"NULL"	"NULL"	"NULL"	"800"	"stimuli/VerticalHorizontal_3.30000_-0.1096.png"	"arrowright"	n/a	"VerticalHorizontal"	"arrowright"	"1422"	"TRUE"	"VerticalHorizontal"	"3.3000000000"	"-0.109600000"	"1"	"70"
n/a	"html-keyboard-response"	"156"	"807600"	"0.0-4.0-2.0-0.52"	"aqm2s1"	"600"	"1366"	"chrome"	"108.0.0"	"FALSE"	"Windows 10"	"60.38"	n/a	n/a	n/a	n/a	n/a	n/a	"fixation"	n/a	n/a	n/a	n/a	"NULL"	"NULL"	"NULL"	n/a	"<p style=\"color: black; font-size: 80px; padding-left: 9%; padding-right: 3%; padding-top: 17%; padding-bottom: 11%\">+</p>"	n/a	"1371"	n/a	n/a	n/a	n/a	n/a	n/a	n/a	n/a	n/a
n/a	"image-keyboard-response"	"157"	"808173"	"0.0-4.0-2.0-1.52"	"aqm2s1"	"600"	"1366"	"chrome"	"108.0.0"	"FALSE"	"Windows 10"	"60.38"	n/a	n/a	n/a	n/a	n/a	n/a	"Trial"	n/a	n/a	n/a	n/a	"NULL"	"NULL"	"NULL"	"572"	"stimuli/VerticalHorizontal_-11.78571_0.16217.png"	"arrowleft"	n/a	"VerticalHorizontal"	"arrowleft"	"1378"	"TRUE"	"VerticalHorizontal"	"-11.78571000"	"0.1621700000"	"1"	"71"
n/a	"html-keyboard-response"	"158"	"809427"	"0.0-4.0-2.0-0.53"	"aqm2s1"	"600"	"1366"	"chrome"	"108.0.0"	"FALSE"	"Windows 10"	"60.38"	n/a	n/a	n/a	n/a	n/a	n/a	"fixation"	n/a	n/a	n/a	n/a	"NULL"	"NULL"	"NULL"	n/a	"<p style=\"color: black; font-size: 80px; padding-left: 42%; padding-right: 44%; padding-top: 46%; padding-bottom: 43%\">+</p>"	n/a	"1234"	n/a	n/a	n/a	n/a	n/a	n/a	n/a	n/a	n/a
n/a	"image-keyboard-response"	"159"	"810579"	"0.0-4.0-2.0-1.53"	"aqm2s1"	"600"	"1366"	"chrome"	"108.0.0"	"FALSE"	"Windows 10"	"60.38"	n/a	n/a	n/a	n/a	n/a	n/a	"Trial"	n/a	n/a	n/a	n/a	"NULL"	"NULL"	"NULL"	"1151"	"stimuli/VerticalHorizontal_28.75714_0.16217.png"	"arrowright"	n/a	"VerticalHorizontal"	"arrowleft"	"1254"	"FALSE"	"VerticalHorizontal"	"28.757140000"	"0.1621700000"	"1"	"72"
n/a	"html-keyboard-response"	"160"	"811714"	"0.0-4.0-2.0-0.54"	"aqm2s1"	"600"	"1366"	"chrome"	"108.0.0"	"FALSE"	"Windows 10"	"60.38"	n/a	n/a	n/a	n/a	n/a	n/a	"fixation"	n/a	n/a	n/a	n/a	"NULL"	"NULL"	"NULL"	n/a	"<p style=\"color: black; font-size: 80px; padding-left: 45%; padding-right: 47%; padding-top: 46%; padding-bottom: 23%\">+</p>"	n/a	"1119"	n/a	n/a	n/a	n/a	n/a	n/a	n/a	n/a	n/a
n/a	"image-keyboard-response"	"161"	"812583"	"0.0-4.0-2.0-1.54"	"aqm2s1"	"600"	"1366"	"chrome"	"108.0.0"	"FALSE"	"Windows 10"	"60.38"	n/a	n/a	n/a	n/a	n/a	n/a	"Trial"	n/a	n/a	n/a	n/a	"NULL"	"NULL"	"NULL"	"869"	"stimuli/VerticalHorizontal_3.30000_-0.2250.png"	"arrowright"	n/a	"VerticalHorizontal"	"arrowright"	"1135"	"TRUE"	"VerticalHorizontal"	"3.3000000000"	"-0.225000000"	"1"	"73"
n/a	"html-keyboard-response"	"162"	"813612"	"0.0-4.0-2.0-0.55"	"aqm2s1"	"600"	"1366"	"chrome"	"108.0.0"	"FALSE"	"Windows 10"	"60.38"	n/a	n/a	n/a	n/a	n/a	n/a	"fixation"	n/a	n/a	n/a	n/a	"NULL"	"NULL"	"NULL"	n/a	"<p style=\"color: black; font-size: 80px; padding-left: 17%; padding-right: 45%; padding-top: 14%; padding-bottom: 10%\">+</p>"	n/a	"1012"	n/a	n/a	n/a	n/a	n/a	n/a	n/a	n/a	n/a
n/a	"image-keyboard-response"	"163"	"814388"	"0.0-4.0-2.0-1.55"	"aqm2s1"	"600"	"1366"	"chrome"	"108.0.0"	"FALSE"	"Windows 10"	"60.38"	n/a	n/a	n/a	n/a	n/a	n/a	"Trial"	n/a	n/a	n/a	n/a	"NULL"	"NULL"	"NULL"	"774"	"stimuli/VerticalHorizontal_-3.3000_0.06730.png"	"arrowleft"	n/a	"VerticalHorizontal"	"arrowleft"	"1029"	"TRUE"	"VerticalHorizontal"	"-3.300000000"	"0.0673000000"	"1"	"74"
n/a	"html-keyboard-response"	"164"	"815648"	"0.0-4.0-2.0-0.56"	"aqm2s1"	"600"	"1366"	"chrome"	"108.0.0"	"FALSE"	"Windows 10"	"60.38"	n/a	n/a	n/a	n/a	n/a	n/a	"fixation"	n/a	n/a	n/a	n/a	"NULL"	"NULL"	"NULL"	n/a	"<p style=\"color: black; font-size: 80px; padding-left: 45%; padding-right: 25%; padding-top: 45%; padding-bottom: 40%\">+</p>"	n/a	"1242"	n/a	n/a	n/a	n/a	n/a	n/a	n/a	n/a	n/a
n/a	"image-keyboard-response"	"165"	"817111"	"0.0-4.0-2.0-1.56"	"aqm2s1"	"600"	"1366"	"chrome"	"108.0.0"	"FALSE"	"Windows 10"	"60.38"	n/a	n/a	n/a	n/a	n/a	n/a	"Trial"	n/a	n/a	n/a	n/a	"NULL"	"NULL"	"NULL"	"1462"	"stimuli/VerticalHorizontal_-11.78571_0.06730.png"	"arrowleft"	n/a	"VerticalHorizontal"	"arrowleft"	"1260"	"TRUE"	"VerticalHorizontal"	"-11.78571000"	"0.0673000000"	"1"	"75"
n/a	"html-keyboard-response"	"166"	"818427"	"0.0-4.0-2.0-0.57"	"aqm2s1"	"600"	"1366"	"chrome"	"108.0.0"	"FALSE"	"Windows 10"	"60.38"	n/a	n/a	n/a	n/a	n/a	n/a	"fixation"	n/a	n/a	n/a	n/a	"NULL"	"NULL"	"NULL"	n/a	"<p style=\"color: black; font-size: 80px; padding-left: 24%; padding-right: 26%; padding-top: 2%; padding-bottom: 19%\">+</p>"	n/a	"1297"	n/a	n/a	n/a	n/a	n/a	n/a	n/a	n/a	n/a
n/a	"image-keyboard-response"	"167"	"819704"	"0.0-4.0-2.0-1.57"	"aqm2s1"	"600"	"1366"	"chrome"	"108.0.0"	"FALSE"	"Windows 10"	"60.38"	n/a	n/a	n/a	n/a	n/a	n/a	"Trial"	n/a	n/a	n/a	n/a	"NULL"	"NULL"	"NULL"	"1276"	"stimuli/VerticalHorizontal_28.75714_-0.1096.png"	"arrowleft"	n/a	"VerticalHorizontal"	"arrowright"	"1316"	"FALSE"	"VerticalHorizontal"	"28.757140000"	"-0.109600000"	"1"	"76"
n/a	"html-keyboard-response"	"168"	"820725"	"0.0-4.0-2.0-0.58"	"aqm2s1"	"600"	"1366"	"chrome"	"108.0.0"	"FALSE"	"Windows 10"	"60.38"	n/a	n/a	n/a	n/a	n/a	n/a	"fixation"	n/a	n/a	n/a	n/a	"NULL"	"NULL"	"NULL"	n/a	"<p style=\"color: black; font-size: 80px; padding-left: 10%; padding-right: 4%; padding-top: 27%; padding-bottom: 6%\">+</p>"	n/a	"1008"	n/a	n/a	n/a	n/a	n/a	n/a	n/a	n/a	n/a
n/a	"image-keyboard-response"	"169"	"821303"	"0.0-4.0-2.0-1.58"	"aqm2s1"	"600"	"1366"	"chrome"	"108.0.0"	"FALSE"	"Windows 10"	"60.38"	n/a	n/a	n/a	n/a	n/a	n/a	"Trial"	n/a	n/a	n/a	n/a	"NULL"	"NULL"	"NULL"	"577"	"stimuli/VerticalHorizontal_-11.78571_-0.0673.png"	"arrowright"	n/a	"VerticalHorizontal"	"arrowright"	"1021"	"TRUE"	"VerticalHorizontal"	"-11.78571000"	"-0.067300000"	"1"	"77"
n/a	"html-keyboard-response"	"170"	"822699"	"0.0-4.0-2.0-0.59"	"aqm2s1"	"600"	"1366"	"chrome"	"108.0.0"	"FALSE"	"Windows 10"	"60.38"	n/a	n/a	n/a	n/a	n/a	n/a	"fixation"	n/a	n/a	n/a	n/a	"NULL"	"NULL"	"NULL"	n/a	"<p style=\"color: black; font-size: 80px; padding-left: 37%; padding-right: 43%; padding-top: 39%; padding-bottom: 27%\">+</p>"	n/a	"1376"	n/a	n/a	n/a	n/a	n/a	n/a	n/a	n/a	n/a
n/a	"image-keyboard-response"	"171"	"823290"	"0.0-4.0-2.0-1.59"	"aqm2s1"	"600"	"1366"	"chrome"	"108.0.0"	"FALSE"	"Windows 10"	"60.38"	n/a	n/a	n/a	n/a	n/a	n/a	"Trial"	n/a	n/a	n/a	n/a	"NULL"	"NULL"	"NULL"	"591"	"stimuli/VerticalHorizontal_-11.78571_0.22500.png"	"arrowleft"	n/a	"VerticalHorizontal"	"arrowleft"	"1396"	"TRUE"	"VerticalHorizontal"	"-11.78571000"	"0.2250000000"	"1"	"78"
n/a	"html-keyboard-response"	"172"	"824593"	"0.0-4.0-2.0-0.60"	"aqm2s1"	"600"	"1366"	"chrome"	"108.0.0"	"FALSE"	"Windows 10"	"60.38"	n/a	n/a	n/a	n/a	n/a	n/a	"fixation"	n/a	n/a	n/a	n/a	"NULL"	"NULL"	"NULL"	n/a	"<p style=\"color: black; font-size: 80px; padding-left: 13%; padding-right: 44%; padding-top: 1%; padding-bottom: 4%\">+</p>"	n/a	"1295"	n/a	n/a	n/a	n/a	n/a	n/a	n/a	n/a	n/a
n/a	"image-keyboard-response"	"173"	"825093"	"0.0-4.0-2.0-1.60"	"aqm2s1"	"600"	"1366"	"chrome"	"108.0.0"	"FALSE"	"Windows 10"	"60.38"	n/a	n/a	n/a	n/a	n/a	n/a	"Trial"	n/a	n/a	n/a	n/a	"NULL"	"NULL"	"NULL"	"499"	"stimuli/VerticalHorizontal_28.75714_0.06730.png"	"arrowright"	n/a	"VerticalHorizontal"	"arrowleft"	"1303"	"FALSE"	"VerticalHorizontal"	"28.757140000"	"0.0673000000"	"1"	"79"
n/a	"html-keyboard-response"	"174"	"826538"	"0.0-4.0-2.0-0.61"	"aqm2s1"	"600"	"1366"	"chrome"	"108.0.0"	"FALSE"	"Windows 10"	"60.38"	n/a	n/a	n/a	n/a	n/a	n/a	"fixation"	n/a	n/a	n/a	n/a	"NULL"	"NULL"	"NULL"	n/a	"<p style=\"color: black; font-size: 80px; padding-left: 2%; padding-right: 28%; padding-top: 23%; padding-bottom: 20%\">+</p>"	n/a	"1432"	n/a	n/a	n/a	n/a	n/a	n/a	n/a	n/a	n/a
n/a	"image-keyboard-response"	"175"	"827242"	"0.0-4.0-2.0-1.61"	"aqm2s1"	"600"	"1366"	"chrome"	"108.0.0"	"FALSE"	"Windows 10"	"60.38"	n/a	n/a	n/a	n/a	n/a	n/a	"Trial"	n/a	n/a	n/a	n/a	"NULL"	"NULL"	"NULL"	"703"	"stimuli/VerticalHorizontal_-20.27143_-0.2250.png"	"arrowright"	n/a	"VerticalHorizontal"	"arrowright"	"1445"	"TRUE"	"VerticalHorizontal"	"-20.27143000"	"-0.225000000"	"1"	"80"
n/a	"html-keyboard-response"	"176"	"828642"	"0.0-4.0-2.0-0.62"	"aqm2s1"	"600"	"1366"	"chrome"	"108.0.0"	"FALSE"	"Windows 10"	"60.38"	n/a	n/a	n/a	n/a	n/a	n/a	"fixation"	n/a	n/a	n/a	n/a	"NULL"	"NULL"	"NULL"	n/a	"<p style=\"color: black; font-size: 80px; padding-left: 19%; padding-right: 45%; padding-top: 45%; padding-bottom: 17%\">+</p>"	n/a	"1393"	n/a	n/a	n/a	n/a	n/a	n/a	n/a	n/a	n/a
n/a	"image-keyboard-response"	"177"	"829181"	"0.0-4.0-2.0-1.62"	"aqm2s1"	"600"	"1366"	"chrome"	"108.0.0"	"FALSE"	"Windows 10"	"60.38"	n/a	n/a	n/a	n/a	n/a	n/a	"Trial"	n/a	n/a	n/a	n/a	"NULL"	"NULL"	"NULL"	"539"	"stimuli/VerticalHorizontal_28.75714_-0.0673.png"	"arrowleft"	n/a	"VerticalHorizontal"	"arrowright"	"1400"	"FALSE"	"VerticalHorizontal"	"28.757140000"	"-0.067300000"	"1"	"81"
n/a	"html-keyboard-response"	"178"	"830412"	"0.0-4.0-2.0-0.63"	"aqm2s1"	"600"	"1366"	"chrome"	"108.0.0"	"FALSE"	"Windows 10"	"60.38"	n/a	n/a	n/a	n/a	n/a	n/a	"fixation"	n/a	n/a	n/a	n/a	"NULL"	"NULL"	"NULL"	n/a	"<p style=\"color: black; font-size: 80px; padding-left: 15%; padding-right: 22%; padding-top: 5%; padding-bottom: 16%\">+</p>"	n/a	"1209"	n/a	n/a	n/a	n/a	n/a	n/a	n/a	n/a	n/a
n/a	"image-keyboard-response"	"179"	"831722"	"0.0-4.0-2.0-1.63"	"aqm2s1"	"600"	"1366"	"chrome"	"108.0.0"	"FALSE"	"Windows 10"	"60.38"	n/a	n/a	n/a	n/a	n/a	n/a	"Trial"	n/a	n/a	n/a	n/a	"NULL"	"NULL"	"NULL"	"1309"	"stimuli/VerticalHorizontal_-3.3000_-0.1096.png"	"arrowright"	n/a	"VerticalHorizontal"	"arrowright"	"1231"	"TRUE"	"VerticalHorizontal"	"-3.300000000"	"-0.109600000"	"1"	"82"
n/a	"html-button-response"	"180"	"850436"	"0.0-4.0-3.0"	"aqm2s1"	"600"	"1366"	"chrome"	"108.0.0"	"FALSE"	"Windows 10"	"60.38"	n/a	n/a	n/a	n/a	n/a	n/a	"block_results"	n/a	n/a	n/a	n/a	"NULL"	"NULL"	"NULL"	"18711"	"<p>Your score for this illusion is <p style=\"color: black; font-size: 48px; font-weight: bold;\">72.8 %</p><hr><p>Can you do better in the next illusion?</p>"	"0"	n/a	n/a	n/a	n/a	n/a	n/a	n/a	n/a	n/a	n/a
"TRUE"	"preload"	"181"	"850601"	"0.0-5.0-0.0"	"aqm2s1"	"600"	"1366"	"chrome"	"108.0.0"	"FALSE"	"Windows 10"	"60.38"	n/a	n/a	n/a	n/a	n/a	n/a	n/a	n/a	n/a	n/a	"FALSE"	"list()"	"list()"	"list()"	n/a	n/a	n/a	n/a	n/a	n/a	n/a	n/a	n/a	n/a	n/a	n/a	n/a
n/a	"html-keyboard-response"	"182"	"853647"	"0.0-5.0-1.0"	"aqm2s1"	"600"	"1366"	"chrome"	"108.0.0"	"FALSE"	"Windows 10"	"60.38"	n/a	n/a	n/a	n/a	n/a	n/a	n/a	n/a	n/a	n/a	n/a	"NULL"	"NULL"	"NULL"	"3045"	"<p><b>Part 2/6</b></p><p>In this part, two red circles will appear side by side on the screen.</p><p>Your task is to select which <b>red circle is bigger</b> in size as fast as you can, without making errors.</p><p>Don't get distracted by the surrounding black circles around the red circles!</p><p>Press <b>the LEFT or the RIGHT arrow</b> to indicate which is the bigger <b>red circle.</b></p><div style='float: center'><img src='materials/instructions/Ebbinghaus_Demo.png' height='300'></img><p><img src='utils/answer/answer_leftright_keyboard.PNG' height='150'></img></p><p class='small'>In this example, the correct answer is the <b>LEFT arrow</b>.</p></div><p>Are you ready? <b>Press ENTER to start</b></p>"	"enter"	n/a	n/a	n/a	n/a	n/a	n/a	n/a	n/a	n/a	n/a
n/a	"html-keyboard-response"	"183"	"855659"	"0.0-5.0-2.0-0.0"	"aqm2s1"	"600"	"1366"	"chrome"	"108.0.0"	"FALSE"	"Windows 10"	"60.38"	n/a	n/a	n/a	n/a	n/a	n/a	"fixation"	n/a	n/a	n/a	n/a	"NULL"	"NULL"	"NULL"	n/a	"<p style=\"color: black; font-size: 80px; padding-left: 6%; padding-right: 22%; padding-top: 41%; padding-bottom: 21%\">+</p>"	n/a	"1485"	n/a	n/a	n/a	n/a	n/a	n/a	n/a	n/a	n/a
n/a	"image-keyboard-response"	"184"	"856526"	"0.0-5.0-2.0-1.0"	"aqm2s1"	"600"	"1366"	"chrome"	"108.0.0"	"FALSE"	"Windows 10"	"60.38"	n/a	n/a	n/a	n/a	n/a	n/a	"Trial"	n/a	n/a	n/a	n/a	"NULL"	"NULL"	"NULL"	"865"	"stimuli/Ebbinghaus_-0.61429_0.21500.png"	"arrowleft"	n/a	"Ebbinghaus"	"arrowleft"	"2012"	"TRUE"	"Ebbinghaus"	"-0.614290000"	"0.2150000000"	"2"	"1"
n/a	"html-keyboard-response"	"185"	"858036"	"0.0-5.0-2.0-0.1"	"aqm2s1"	"600"	"1366"	"chrome"	"108.0.0"	"FALSE"	"Windows 10"	"60.38"	n/a	n/a	n/a	n/a	n/a	n/a	"fixation"	n/a	n/a	n/a	n/a	"NULL"	"NULL"	"NULL"	n/a	"<p style=\"color: black; font-size: 80px; padding-left: 12%; padding-right: 18%; padding-top: 50%; padding-bottom: 20%\">+</p>"	n/a	"1498"	n/a	n/a	n/a	n/a	n/a	n/a	n/a	n/a	n/a
n/a	"image-keyboard-response"	"186"	"858606"	"0.0-5.0-2.0-1.1"	"aqm2s1"	"600"	"1366"	"chrome"	"108.0.0"	"FALSE"	"Windows 10"	"60.38"	n/a	n/a	n/a	n/a	n/a	n/a	"Trial"	n/a	n/a	n/a	n/a	"NULL"	"NULL"	"NULL"	"570"	"stimuli/Ebbinghaus_-0.61429_-0.2150.png"	"arrowright"	n/a	"Ebbinghaus"	"arrowright"	"1510"	"TRUE"	"Ebbinghaus"	"-0.614290000"	"-0.215000000"	"2"	"2"
n/a	"html-keyboard-response"	"187"	"860003"	"0.0-5.0-2.0-0.2"	"aqm2s1"	"600"	"1366"	"chrome"	"108.0.0"	"FALSE"	"Windows 10"	"60.38"	n/a	n/a	n/a	n/a	n/a	n/a	"fixation"	n/a	n/a	n/a	n/a	"NULL"	"NULL"	"NULL"	n/a	"<p style=\"color: black; font-size: 80px; padding-left: 4%; padding-right: 45%; padding-top: 35%; padding-bottom: 26%\">+</p>"	n/a	"1380"	n/a	n/a	n/a	n/a	n/a	n/a	n/a	n/a	n/a
n/a	"image-keyboard-response"	"188"	"860698"	"0.0-5.0-2.0-1.2"	"aqm2s1"	"600"	"1366"	"chrome"	"108.0.0"	"FALSE"	"Windows 10"	"60.38"	n/a	n/a	n/a	n/a	n/a	n/a	"Trial"	n/a	n/a	n/a	n/a	"NULL"	"NULL"	"NULL"	"694"	"stimuli/Ebbinghaus_0.61429_0.15857.png"	"arrowleft"	n/a	"Ebbinghaus"	"arrowleft"	"1397"	"TRUE"	"Ebbinghaus"	"0.6142900000"	"0.1585700000"	"2"	"3"
n/a	"html-keyboard-response"	"189"	"862067"	"0.0-5.0-2.0-0.3"	"aqm2s1"	"600"	"1366"	"chrome"	"108.0.0"	"FALSE"	"Windows 10"	"60.38"	n/a	n/a	n/a	n/a	n/a	n/a	"fixation"	n/a	n/a	n/a	n/a	"NULL"	"NULL"	"NULL"	n/a	"<p style=\"color: black; font-size: 80px; padding-left: 5%; padding-right: 2%; padding-top: 20%; padding-bottom: 1%\">+</p>"	n/a	"1347"	n/a	n/a	n/a	n/a	n/a	n/a	n/a	n/a	n/a
n/a	"image-keyboard-response"	"190"	"862869"	"0.0-5.0-2.0-1.3"	"aqm2s1"	"600"	"1366"	"chrome"	"108.0.0"	"FALSE"	"Windows 10"	"60.38"	n/a	n/a	n/a	n/a	n/a	n/a	"Trial"	n/a	n/a	n/a	n/a	"NULL"	"NULL"	"NULL"	"801"	"stimuli/Ebbinghaus_0.35714_0.28000.png"	"arrowleft"	n/a	"Ebbinghaus"	"arrowleft"	"1369"	"TRUE"	"Ebbinghaus"	"0.3571400000"	"0.2800000000"	"2"	"4"
n/a	"html-keyboard-response"	"191"	"864347"	"0.0-5.0-2.0-0.4"	"aqm2s1"	"600"	"1366"	"chrome"	"108.0.0"	"FALSE"	"Windows 10"	"60.38"	n/a	n/a	n/a	n/a	n/a	n/a	"fixation"	n/a	n/a	n/a	n/a	"NULL"	"NULL"	"NULL"	n/a	"<p style=\"color: black; font-size: 80px; padding-left: 42%; padding-right: 22%; padding-top: 23%; padding-bottom: 49%\">+</p>"	n/a	"1459"	n/a	n/a	n/a	n/a	n/a	n/a	n/a	n/a	n/a
n/a	"image-keyboard-response"	"192"	"865273"	"0.0-5.0-2.0-1.4"	"aqm2s1"	"600"	"1366"	"chrome"	"108.0.0"	"FALSE"	"Windows 10"	"60.38"	n/a	n/a	n/a	n/a	n/a	n/a	"Trial"	n/a	n/a	n/a	n/a	"NULL"	"NULL"	"NULL"	"926"	"stimuli/Ebbinghaus_-0.35714_0.15857.png"	"arrowleft"	n/a	"Ebbinghaus"	"arrowleft"	"1478"	"TRUE"	"Ebbinghaus"	"-0.357140000"	"0.1585700000"	"2"	"5"
n/a	"html-keyboard-response"	"193"	"866510"	"0.0-5.0-2.0-0.5"	"aqm2s1"	"600"	"1366"	"chrome"	"108.0.0"	"FALSE"	"Windows 10"	"60.38"	n/a	n/a	n/a	n/a	n/a	n/a	"fixation"	n/a	n/a	n/a	n/a	"NULL"	"NULL"	"NULL"	n/a	"<p style=\"color: black; font-size: 80px; padding-left: 15%; padding-right: 21%; padding-top: 42%; padding-bottom: 49%\">+</p>"	n/a	"1214"	n/a	n/a	n/a	n/a	n/a	n/a	n/a	n/a	n/a
n/a	"image-keyboard-response"	"194"	"867330"	"0.0-5.0-2.0-1.5"	"aqm2s1"	"600"	"1366"	"chrome"	"108.0.0"	"FALSE"	"Windows 10"	"60.38"	n/a	n/a	n/a	n/a	n/a	n/a	"Trial"	n/a	n/a	n/a	n/a	"NULL"	"NULL"	"NULL"	"819"	"stimuli/Ebbinghaus_-0.87143_-0.15857.png"	"arrowright"	n/a	"Ebbinghaus"	"arrowright"	"1237"	"TRUE"	"Ebbinghaus"	"-0.871430000"	"-0.158570000"	"2"	"6"
n/a	"html-keyboard-response"	"195"	"868826"	"0.0-5.0-2.0-0.6"	"aqm2s1"	"600"	"1366"	"chrome"	"108.0.0"	"FALSE"	"Windows 10"	"60.38"	n/a	n/a	n/a	n/a	n/a	n/a	"fixation"	n/a	n/a	n/a	n/a	"NULL"	"NULL"	"NULL"	n/a	"<p style=\"color: black; font-size: 80px; padding-left: 46%; padding-right: 18%; padding-top: 15%; padding-bottom: 34%\">+</p>"	n/a	"1481"	n/a	n/a	n/a	n/a	n/a	n/a	n/a	n/a	n/a
n/a	"image-keyboard-response"	"196"	"869743"	"0.0-5.0-2.0-1.6"	"aqm2s1"	"600"	"1366"	"chrome"	"108.0.0"	"FALSE"	"Windows 10"	"60.38"	n/a	n/a	n/a	n/a	n/a	n/a	"Trial"	n/a	n/a	n/a	n/a	"NULL"	"NULL"	"NULL"	"916"	"stimuli/Ebbinghaus_0.10000_0.11071.png"	"arrowleft"	n/a	"Ebbinghaus"	"arrowleft"	"1496"	"TRUE"	"Ebbinghaus"	"0.1000000000"	"0.1107100000"	"2"	"7"
n/a	"html-keyboard-response"	"197"	"871036"	"0.0-5.0-2.0-0.7"	"aqm2s1"	"600"	"1366"	"chrome"	"108.0.0"	"FALSE"	"Windows 10"	"60.38"	n/a	n/a	n/a	n/a	n/a	n/a	"fixation"	n/a	n/a	n/a	n/a	"NULL"	"NULL"	"NULL"	n/a	"<p style=\"color: black; font-size: 80px; padding-left: 38%; padding-right: 14%; padding-top: 37%; padding-bottom: 41%\">+</p>"	n/a	"1274"	n/a	n/a	n/a	n/a	n/a	n/a	n/a	n/a	n/a
n/a	"image-keyboard-response"	"198"	"871884"	"0.0-5.0-2.0-1.7"	"aqm2s1"	"600"	"1366"	"chrome"	"108.0.0"	"FALSE"	"Windows 10"	"60.38"	n/a	n/a	n/a	n/a	n/a	n/a	"Trial"	n/a	n/a	n/a	n/a	"NULL"	"NULL"	"NULL"	"846"	"stimuli/Ebbinghaus_-0.61429_-0.11071.png"	"arrowright"	n/a	"Ebbinghaus"	"arrowright"	"1293"	"TRUE"	"Ebbinghaus"	"-0.614290000"	"-0.110710000"	"2"	"8"
n/a	"html-keyboard-response"	"199"	"873131"	"0.0-5.0-2.0-0.8"	"aqm2s1"	"600"	"1366"	"chrome"	"108.0.0"	"FALSE"	"Windows 10"	"60.38"	n/a	n/a	n/a	n/a	n/a	n/a	"fixation"	n/a	n/a	n/a	n/a	"NULL"	"NULL"	"NULL"	n/a	"<p style=\"color: black; font-size: 80px; padding-left: 1%; padding-right: 47%; padding-top: 13%; padding-bottom: 46%\">+</p>"	n/a	"1238"	n/a	n/a	n/a	n/a	n/a	n/a	n/a	n/a	n/a
n/a	"image-keyboard-response"	"200"	"873804"	"0.0-5.0-2.0-1.8"	"aqm2s1"	"600"	"1366"	"chrome"	"108.0.0"	"FALSE"	"Windows 10"	"60.38"	n/a	n/a	n/a	n/a	n/a	n/a	"Trial"	n/a	n/a	n/a	n/a	"NULL"	"NULL"	"NULL"	"671"	"stimuli/Ebbinghaus_0.87143_0.28000.png"	"arrowleft"	n/a	"Ebbinghaus"	"arrowleft"	"1247"	"TRUE"	"Ebbinghaus"	"0.8714300000"	"0.2800000000"	"2"	"9"
n/a	"html-keyboard-response"	"201"	"875118"	"0.0-5.0-2.0-0.9"	"aqm2s1"	"600"	"1366"	"chrome"	"108.0.0"	"FALSE"	"Windows 10"	"60.38"	n/a	n/a	n/a	n/a	n/a	n/a	"fixation"	n/a	n/a	n/a	n/a	"NULL"	"NULL"	"NULL"	n/a	"<p style=\"color: black; font-size: 80px; padding-left: 43%; padding-right: 25%; padding-top: 39%; padding-bottom: 4%\">+</p>"	n/a	"1304"	n/a	n/a	n/a	n/a	n/a	n/a	n/a	n/a	n/a
n/a	"image-keyboard-response"	"202"	"875964"	"0.0-5.0-2.0-1.9"	"aqm2s1"	"600"	"1366"	"chrome"	"108.0.0"	"FALSE"	"Windows 10"	"60.38"	n/a	n/a	n/a	n/a	n/a	n/a	"Trial"	n/a	n/a	n/a	n/a	"NULL"	"NULL"	"NULL"	"845"	"stimuli/Ebbinghaus_0.61429_0.28000.png"	"arrowleft"	n/a	"Ebbinghaus"	"arrowleft"	"1314"	"TRUE"	"Ebbinghaus"	"0.6142900000"	"0.2800000000"	"2"	"10"
n/a	"html-keyboard-response"	"203"	"877008"	"0.0-5.0-2.0-0.10"	"aqm2s1"	"600"	"1366"	"chrome"	"108.0.0"	"FALSE"	"Windows 10"	"60.38"	n/a	n/a	n/a	n/a	n/a	n/a	"fixation"	n/a	n/a	n/a	n/a	"NULL"	"NULL"	"NULL"	n/a	"<p style=\"color: black; font-size: 80px; padding-left: 31%; padding-right: 38%; padding-top: 40%; padding-bottom: 33%\">+</p>"	n/a	"1029"	n/a	n/a	n/a	n/a	n/a	n/a	n/a	n/a	n/a
n/a	"image-keyboard-response"	"204"	"877541"	"0.0-5.0-2.0-1.10"	"aqm2s1"	"600"	"1366"	"chrome"	"108.0.0"	"FALSE"	"Windows 10"	"60.38"	n/a	n/a	n/a	n/a	n/a	n/a	"Trial"	n/a	n/a	n/a	n/a	"NULL"	"NULL"	"NULL"	"531"	"stimuli/Ebbinghaus_0.61429_-0.2150.png"	"arrowright"	n/a	"Ebbinghaus"	"arrowright"	"1044"	"TRUE"	"Ebbinghaus"	"0.6142900000"	"-0.215000000"	"2"	"11"
n/a	"html-keyboard-response"	"205"	"878918"	"0.0-5.0-2.0-0.11"	"aqm2s1"	"600"	"1366"	"chrome"	"108.0.0"	"FALSE"	"Windows 10"	"60.38"	n/a	n/a	n/a	n/a	n/a	n/a	"fixation"	n/a	n/a	n/a	n/a	"NULL"	"NULL"	"NULL"	n/a	"<p style=\"color: black; font-size: 80px; padding-left: 13%; padding-right: 37%; padding-top: 50%; padding-bottom: 40%\">+</p>"	n/a	"1365"	n/a	n/a	n/a	n/a	n/a	n/a	n/a	n/a	n/a
n/a	"image-keyboard-response"	"206"	"879419"	"0.0-5.0-2.0-1.11"	"aqm2s1"	"600"	"1366"	"chrome"	"108.0.0"	"FALSE"	"Windows 10"	"60.38"	n/a	n/a	n/a	n/a	n/a	n/a	"Trial"	n/a	n/a	n/a	n/a	"NULL"	"NULL"	"NULL"	"500"	"stimuli/Ebbinghaus_0.35714_-0.11071.png"	"arrowright"	n/a	"Ebbinghaus"	"arrowright"	"1377"	"TRUE"	"Ebbinghaus"	"0.3571400000"	"-0.110710000"	"2"	"12"
n/a	"html-keyboard-response"	"207"	"880676"	"0.0-5.0-2.0-0.12"	"aqm2s1"	"600"	"1366"	"chrome"	"108.0.0"	"FALSE"	"Windows 10"	"60.38"	n/a	n/a	n/a	n/a	n/a	n/a	"fixation"	n/a	n/a	n/a	n/a	"NULL"	"NULL"	"NULL"	n/a	"<p style=\"color: black; font-size: 80px; padding-left: 15%; padding-right: 40%; padding-top: 21%; padding-bottom: 34%\">+</p>"	n/a	"1249"	n/a	n/a	n/a	n/a	n/a	n/a	n/a	n/a	n/a
n/a	"image-keyboard-response"	"208"	"881132"	"0.0-5.0-2.0-1.12"	"aqm2s1"	"600"	"1366"	"chrome"	"108.0.0"	"FALSE"	"Windows 10"	"60.38"	n/a	n/a	n/a	n/a	n/a	n/a	"Trial"	n/a	n/a	n/a	n/a	"NULL"	"NULL"	"NULL"	"453"	"stimuli/Ebbinghaus_0.87143_-0.2800.png"	"arrowright"	n/a	"Ebbinghaus"	"arrowright"	"1257"	"TRUE"	"Ebbinghaus"	"0.8714300000"	"-0.280000000"	"2"	"13"
n/a	"html-keyboard-response"	"209"	"882599"	"0.0-5.0-2.0-0.13"	"aqm2s1"	"600"	"1366"	"chrome"	"108.0.0"	"FALSE"	"Windows 10"	"60.38"	n/a	n/a	n/a	n/a	n/a	n/a	"fixation"	n/a	n/a	n/a	n/a	"NULL"	"NULL"	"NULL"	n/a	"<p style=\"color: black; font-size: 80px; padding-left: 22%; padding-right: 10%; padding-top: 32%; padding-bottom: 16%\">+</p>"	n/a	"1452"	n/a	n/a	n/a	n/a	n/a	n/a	n/a	n/a	n/a
n/a	"image-keyboard-response"	"210"	"883185"	"0.0-5.0-2.0-1.13"	"aqm2s1"	"600"	"1366"	"chrome"	"108.0.0"	"FALSE"	"Windows 10"	"60.38"	n/a	n/a	n/a	n/a	n/a	n/a	"Trial"	n/a	n/a	n/a	n/a	"NULL"	"NULL"	"NULL"	"585"	"stimuli/Ebbinghaus_0.10000_0.28000.png"	"arrowleft"	n/a	"Ebbinghaus"	"arrowleft"	"1467"	"TRUE"	"Ebbinghaus"	"0.1000000000"	"0.2800000000"	"2"	"14"
n/a	"html-keyboard-response"	"211"	"884351"	"0.0-5.0-2.0-0.14"	"aqm2s1"	"600"	"1366"	"chrome"	"108.0.0"	"FALSE"	"Windows 10"	"60.38"	n/a	n/a	n/a	n/a	n/a	n/a	"fixation"	n/a	n/a	n/a	n/a	"NULL"	"NULL"	"NULL"	n/a	"<p style=\"color: black; font-size: 80px; padding-left: 45%; padding-right: 25%; padding-top: 12%; padding-bottom: 8%\">+</p>"	n/a	"1160"	n/a	n/a	n/a	n/a	n/a	n/a	n/a	n/a	n/a
n/a	"image-keyboard-response"	"212"	"884922"	"0.0-5.0-2.0-1.14"	"aqm2s1"	"600"	"1366"	"chrome"	"108.0.0"	"FALSE"	"Windows 10"	"60.38"	n/a	n/a	n/a	n/a	n/a	n/a	"Trial"	n/a	n/a	n/a	n/a	"NULL"	"NULL"	"NULL"	"570"	"stimuli/Ebbinghaus_-0.35714_0.28000.png"	"arrowright"	n/a	"Ebbinghaus"	"arrowleft"	"1166"	"FALSE"	"Ebbinghaus"	"-0.357140000"	"0.2800000000"	"2"	"15"
n/a	"html-keyboard-response"	"213"	"885991"	"0.0-5.0-2.0-0.15"	"aqm2s1"	"600"	"1366"	"chrome"	"108.0.0"	"FALSE"	"Windows 10"	"60.38"	n/a	n/a	n/a	n/a	n/a	n/a	"fixation"	n/a	n/a	n/a	n/a	"NULL"	"NULL"	"NULL"	n/a	"<p style=\"color: black; font-size: 80px; padding-left: 25%; padding-right: 16%; padding-top: 18%; padding-bottom: 43%\">+</p>"	n/a	"1067"	n/a	n/a	n/a	n/a	n/a	n/a	n/a	n/a	n/a
n/a	"image-keyboard-response"	"214"	"886581"	"0.0-5.0-2.0-1.15"	"aqm2s1"	"600"	"1366"	"chrome"	"108.0.0"	"FALSE"	"Windows 10"	"60.38"	n/a	n/a	n/a	n/a	n/a	n/a	"Trial"	n/a	n/a	n/a	n/a	"NULL"	"NULL"	"NULL"	"590"	"stimuli/Ebbinghaus_0.87143_-0.2150.png"	"arrowright"	n/a	"Ebbinghaus"	"arrowright"	"1069"	"TRUE"	"Ebbinghaus"	"0.8714300000"	"-0.215000000"	"2"	"16"
n/a	"html-keyboard-response"	"215"	"887839"	"0.0-5.0-2.0-0.16"	"aqm2s1"	"600"	"1366"	"chrome"	"108.0.0"	"FALSE"	"Windows 10"	"60.38"	n/a	n/a	n/a	n/a	n/a	n/a	"fixation"	n/a	n/a	n/a	n/a	"NULL"	"NULL"	"NULL"	n/a	"<p style=\"color: black; font-size: 80px; padding-left: 27%; padding-right: 26%; padding-top: 32%; padding-bottom: 41%\">+</p>"	n/a	"1240"	n/a	n/a	n/a	n/a	n/a	n/a	n/a	n/a	n/a
n/a	"image-keyboard-response"	"216"	"888592"	"0.0-5.0-2.0-1.16"	"aqm2s1"	"600"	"1366"	"chrome"	"108.0.0"	"FALSE"	"Windows 10"	"60.38"	n/a	n/a	n/a	n/a	n/a	n/a	"Trial"	n/a	n/a	n/a	n/a	"NULL"	"NULL"	"NULL"	"747"	"stimuli/Ebbinghaus_0.35714_-0.15857.png"	"arrowright"	n/a	"Ebbinghaus"	"arrowright"	"1258"	"TRUE"	"Ebbinghaus"	"0.3571400000"	"-0.158570000"	"2"	"17"
n/a	"html-keyboard-response"	"217"	"890022"	"0.0-5.0-2.0-0.17"	"aqm2s1"	"600"	"1366"	"chrome"	"108.0.0"	"FALSE"	"Windows 10"	"60.38"	n/a	n/a	n/a	n/a	n/a	n/a	"fixation"	n/a	n/a	n/a	n/a	"NULL"	"NULL"	"NULL"	n/a	"<p style=\"color: black; font-size: 80px; padding-left: 15%; padding-right: 36%; padding-top: 5%; padding-bottom: 46%\">+</p>"	n/a	"1419"	n/a	n/a	n/a	n/a	n/a	n/a	n/a	n/a	n/a
n/a	"image-keyboard-response"	"218"	"890601"	"0.0-5.0-2.0-1.17"	"aqm2s1"	"600"	"1366"	"chrome"	"108.0.0"	"FALSE"	"Windows 10"	"60.38"	n/a	n/a	n/a	n/a	n/a	n/a	"Trial"	n/a	n/a	n/a	n/a	"NULL"	"NULL"	"NULL"	"579"	"stimuli/Ebbinghaus_-0.87143_0.21500.png"	"arrowleft"	n/a	"Ebbinghaus"	"arrowleft"	"1430"	"TRUE"	"Ebbinghaus"	"-0.871430000"	"0.2150000000"	"2"	"18"
n/a	"html-keyboard-response"	"219"	"892089"	"0.0-5.0-2.0-0.18"	"aqm2s1"	"600"	"1366"	"chrome"	"108.0.0"	"FALSE"	"Windows 10"	"60.38"	n/a	n/a	n/a	n/a	n/a	n/a	"fixation"	n/a	n/a	n/a	n/a	"NULL"	"NULL"	"NULL"	n/a	"<p style=\"color: black; font-size: 80px; padding-left: 38%; padding-right: 42%; padding-top: 20%; padding-bottom: 27%\">+</p>"	n/a	"1473"	n/a	n/a	n/a	n/a	n/a	n/a	n/a	n/a	n/a
n/a	"image-keyboard-response"	"220"	"892768"	"0.0-5.0-2.0-1.18"	"aqm2s1"	"600"	"1366"	"chrome"	"108.0.0"	"FALSE"	"Windows 10"	"60.38"	n/a	n/a	n/a	n/a	n/a	n/a	"Trial"	n/a	n/a	n/a	n/a	"NULL"	"NULL"	"NULL"	"679"	"stimuli/Ebbinghaus_-0.1000_0.21500.png"	"arrowleft"	n/a	"Ebbinghaus"	"arrowleft"	"1488"	"TRUE"	"Ebbinghaus"	"-0.100000000"	"0.2150000000"	"2"	"19"
n/a	"html-keyboard-response"	"221"	"894254"	"0.0-5.0-2.0-0.19"	"aqm2s1"	"600"	"1366"	"chrome"	"108.0.0"	"FALSE"	"Windows 10"	"60.38"	n/a	n/a	n/a	n/a	n/a	n/a	"fixation"	n/a	n/a	n/a	n/a	"NULL"	"NULL"	"NULL"	n/a	"<p style=\"color: black; font-size: 80px; padding-left: 15%; padding-right: 5%; padding-top: 42%; padding-bottom: 6%\">+</p>"	n/a	"1468"	n/a	n/a	n/a	n/a	n/a	n/a	n/a	n/a	n/a
n/a	"image-keyboard-response"	"222"	"895009"	"0.0-5.0-2.0-1.19"	"aqm2s1"	"600"	"1366"	"chrome"	"108.0.0"	"FALSE"	"Windows 10"	"60.38"	n/a	n/a	n/a	n/a	n/a	n/a	"Trial"	n/a	n/a	n/a	n/a	"NULL"	"NULL"	"NULL"	"754"	"stimuli/Ebbinghaus_-0.35714_-0.15857.png"	"arrowright"	n/a	"Ebbinghaus"	"arrowright"	"1486"	"TRUE"	"Ebbinghaus"	"-0.357140000"	"-0.158570000"	"2"	"20"
n/a	"html-keyboard-response"	"223"	"896429"	"0.0-5.0-2.0-0.20"	"aqm2s1"	"600"	"1366"	"chrome"	"108.0.0"	"FALSE"	"Windows 10"	"60.38"	n/a	n/a	n/a	n/a	n/a	n/a	"fixation"	n/a	n/a	n/a	n/a	"NULL"	"NULL"	"NULL"	n/a	"<p style=\"color: black; font-size: 80px; padding-left: 48%; padding-right: 26%; padding-top: 21%; padding-bottom: 45%\">+</p>"	n/a	"1406"	n/a	n/a	n/a	n/a	n/a	n/a	n/a	n/a	n/a
n/a	"image-keyboard-response"	"224"	"897206"	"0.0-5.0-2.0-1.20"	"aqm2s1"	"600"	"1366"	"chrome"	"108.0.0"	"FALSE"	"Windows 10"	"60.38"	n/a	n/a	n/a	n/a	n/a	n/a	"Trial"	n/a	n/a	n/a	n/a	"NULL"	"NULL"	"NULL"	"775"	"stimuli/Ebbinghaus_-0.1000_-0.11071.png"	"arrowleft"	n/a	"Ebbinghaus"	"arrowright"	"1420"	"FALSE"	"Ebbinghaus"	"-0.100000000"	"-0.110710000"	"2"	"21"
n/a	"html-keyboard-response"	"225"	"898287"	"0.0-5.0-2.0-0.21"	"aqm2s1"	"600"	"1366"	"chrome"	"108.0.0"	"FALSE"	"Windows 10"	"60.38"	n/a	n/a	n/a	n/a	n/a	n/a	"fixation"	n/a	n/a	n/a	n/a	"NULL"	"NULL"	"NULL"	n/a	"<p style=\"color: black; font-size: 80px; padding-left: 15%; padding-right: 17%; padding-top: 9%; padding-bottom: 39%\">+</p>"	n/a	"1074"	n/a	n/a	n/a	n/a	n/a	n/a	n/a	n/a	n/a
n/a	"image-keyboard-response"	"226"	"899294"	"0.0-5.0-2.0-1.21"	"aqm2s1"	"600"	"1366"	"chrome"	"108.0.0"	"FALSE"	"Windows 10"	"60.38"	n/a	n/a	n/a	n/a	n/a	n/a	"Trial"	n/a	n/a	n/a	n/a	"NULL"	"NULL"	"NULL"	"1006"	"stimuli/Ebbinghaus_-0.1000_-0.15857.png"	"arrowleft"	n/a	"Ebbinghaus"	"arrowright"	"1081"	"FALSE"	"Ebbinghaus"	"-0.100000000"	"-0.158570000"	"2"	"22"
n/a	"html-keyboard-response"	"227"	"900413"	"0.0-5.0-2.0-0.22"	"aqm2s1"	"600"	"1366"	"chrome"	"108.0.0"	"FALSE"	"Windows 10"	"60.38"	n/a	n/a	n/a	n/a	n/a	n/a	"fixation"	n/a	n/a	n/a	n/a	"NULL"	"NULL"	"NULL"	n/a	"<p style=\"color: black; font-size: 80px; padding-left: 3%; padding-right: 38%; padding-top: 44%; padding-bottom: 10%\">+</p>"	n/a	"1110"	n/a	n/a	n/a	n/a	n/a	n/a	n/a	n/a	n/a
n/a	"image-keyboard-response"	"228"	"901371"	"0.0-5.0-2.0-1.22"	"aqm2s1"	"600"	"1366"	"chrome"	"108.0.0"	"FALSE"	"Windows 10"	"60.38"	n/a	n/a	n/a	n/a	n/a	n/a	"Trial"	n/a	n/a	n/a	n/a	"NULL"	"NULL"	"NULL"	"957"	"stimuli/Ebbinghaus_-0.87143_0.15857.png"	"arrowleft"	n/a	"Ebbinghaus"	"arrowleft"	"1119"	"TRUE"	"Ebbinghaus"	"-0.871430000"	"0.1585700000"	"2"	"23"
n/a	"html-keyboard-response"	"229"	"902708"	"0.0-5.0-2.0-0.23"	"aqm2s1"	"600"	"1366"	"chrome"	"108.0.0"	"FALSE"	"Windows 10"	"60.38"	n/a	n/a	n/a	n/a	n/a	n/a	"fixation"	n/a	n/a	n/a	n/a	"NULL"	"NULL"	"NULL"	n/a	"<p style=\"color: black; font-size: 80px; padding-left: 7%; padding-right: 17%; padding-top: 9%; padding-bottom: 20%\">+</p>"	n/a	"1324"	n/a	n/a	n/a	n/a	n/a	n/a	n/a	n/a	n/a
n/a	"image-keyboard-response"	"230"	"903440"	"0.0-5.0-2.0-1.23"	"aqm2s1"	"600"	"1366"	"chrome"	"108.0.0"	"FALSE"	"Windows 10"	"60.38"	n/a	n/a	n/a	n/a	n/a	n/a	"Trial"	n/a	n/a	n/a	n/a	"NULL"	"NULL"	"NULL"	"731"	"stimuli/Ebbinghaus_-0.61429_0.15857.png"	"arrowright"	n/a	"Ebbinghaus"	"arrowleft"	"1337"	"FALSE"	"Ebbinghaus"	"-0.614290000"	"0.1585700000"	"2"	"24"
n/a	"html-keyboard-response"	"231"	"904600"	"0.0-5.0-2.0-0.24"	"aqm2s1"	"600"	"1366"	"chrome"	"108.0.0"	"FALSE"	"Windows 10"	"60.38"	n/a	n/a	n/a	n/a	n/a	n/a	"fixation"	n/a	n/a	n/a	n/a	"NULL"	"NULL"	"NULL"	n/a	"<p style=\"color: black; font-size: 80px; padding-left: 16%; padding-right: 43%; padding-top: 43%; padding-bottom: 27%\">+</p>"	n/a	"1152"	n/a	n/a	n/a	n/a	n/a	n/a	n/a	n/a	n/a
n/a	"image-keyboard-response"	"232"	"905222"	"0.0-5.0-2.0-1.24"	"aqm2s1"	"600"	"1366"	"chrome"	"108.0.0"	"FALSE"	"Windows 10"	"60.38"	n/a	n/a	n/a	n/a	n/a	n/a	"Trial"	n/a	n/a	n/a	n/a	"NULL"	"NULL"	"NULL"	"620"	"stimuli/Ebbinghaus_0.87143_-0.11071.png"	"arrowright"	n/a	"Ebbinghaus"	"arrowright"	"1160"	"TRUE"	"Ebbinghaus"	"0.8714300000"	"-0.110710000"	"2"	"25"
n/a	"html-keyboard-response"	"233"	"906394"	"0.0-5.0-2.0-0.25"	"aqm2s1"	"600"	"1366"	"chrome"	"108.0.0"	"FALSE"	"Windows 10"	"60.38"	n/a	n/a	n/a	n/a	n/a	n/a	"fixation"	n/a	n/a	n/a	n/a	"NULL"	"NULL"	"NULL"	n/a	"<p style=\"color: black; font-size: 80px; padding-left: 39%; padding-right: 37%; padding-top: 10%; padding-bottom: 16%\">+</p>"	n/a	"1155"	n/a	n/a	n/a	n/a	n/a	n/a	n/a	n/a	n/a
n/a	"image-keyboard-response"	"234"	"906883"	"0.0-5.0-2.0-1.25"	"aqm2s1"	"600"	"1366"	"chrome"	"108.0.0"	"FALSE"	"Windows 10"	"60.38"	n/a	n/a	n/a	n/a	n/a	n/a	"Trial"	n/a	n/a	n/a	n/a	"NULL"	"NULL"	"NULL"	"488"	"stimuli/Ebbinghaus_0.87143_0.11071.png"	"arrowleft"	n/a	"Ebbinghaus"	"arrowleft"	"1172"	"TRUE"	"Ebbinghaus"	"0.8714300000"	"0.1107100000"	"2"	"26"
n/a	"html-keyboard-response"	"235"	"908164"	"0.0-5.0-2.0-0.26"	"aqm2s1"	"600"	"1366"	"chrome"	"108.0.0"	"FALSE"	"Windows 10"	"60.38"	n/a	n/a	n/a	n/a	n/a	n/a	"fixation"	n/a	n/a	n/a	n/a	"NULL"	"NULL"	"NULL"	n/a	"<p style=\"color: black; font-size: 80px; padding-left: 49%; padding-right: 34%; padding-top: 13%; padding-bottom: 3%\">+</p>"	n/a	"1267"	n/a	n/a	n/a	n/a	n/a	n/a	n/a	n/a	n/a
n/a	"image-keyboard-response"	"236"	"908908"	"0.0-5.0-2.0-1.26"	"aqm2s1"	"600"	"1366"	"chrome"	"108.0.0"	"FALSE"	"Windows 10"	"60.38"	n/a	n/a	n/a	n/a	n/a	n/a	"Trial"	n/a	n/a	n/a	n/a	"NULL"	"NULL"	"NULL"	"739"	"stimuli/Ebbinghaus_-0.87143_-0.2800.png"	"arrowright"	n/a	"Ebbinghaus"	"arrowright"	"1281"	"TRUE"	"Ebbinghaus"	"-0.871430000"	"-0.280000000"	"2"	"27"
n/a	"html-keyboard-response"	"237"	"910070"	"0.0-5.0-2.0-0.27"	"aqm2s1"	"600"	"1366"	"chrome"	"108.0.0"	"FALSE"	"Windows 10"	"60.38"	n/a	n/a	n/a	n/a	n/a	n/a	"fixation"	n/a	n/a	n/a	n/a	"NULL"	"NULL"	"NULL"	n/a	"<p style=\"color: black; font-size: 80px; padding-left: 7%; padding-right: 24%; padding-top: 46%; padding-bottom: 24%\">+</p>"	n/a	"1138"	n/a	n/a	n/a	n/a	n/a	n/a	n/a	n/a	n/a
n/a	"image-keyboard-response"	"238"	"911083"	"0.0-5.0-2.0-1.27"	"aqm2s1"	"600"	"1366"	"chrome"	"108.0.0"	"FALSE"	"Windows 10"	"60.38"	n/a	n/a	n/a	n/a	n/a	n/a	"Trial"	n/a	n/a	n/a	n/a	"NULL"	"NULL"	"NULL"	"1012"	"stimuli/Ebbinghaus_-0.35714_0.21500.png"	"arrowleft"	n/a	"Ebbinghaus"	"arrowleft"	"1162"	"TRUE"	"Ebbinghaus"	"-0.357140000"	"0.2150000000"	"2"	"28"
n/a	"html-keyboard-response"	"239"	"912430"	"0.0-5.0-2.0-0.28"	"aqm2s1"	"600"	"1366"	"chrome"	"108.0.0"	"FALSE"	"Windows 10"	"60.38"	n/a	n/a	n/a	n/a	n/a	n/a	"fixation"	n/a	n/a	n/a	n/a	"NULL"	"NULL"	"NULL"	n/a	"<p style=\"color: black; font-size: 80px; padding-left: 35%; padding-right: 26%; padding-top: 38%; padding-bottom: 3%\">+</p>"	n/a	"1334"	n/a	n/a	n/a	n/a	n/a	n/a	n/a	n/a	n/a
n/a	"image-keyboard-response"	"240"	"912962"	"0.0-5.0-2.0-1.28"	"aqm2s1"	"600"	"1366"	"chrome"	"108.0.0"	"FALSE"	"Windows 10"	"60.38"	n/a	n/a	n/a	n/a	n/a	n/a	"Trial"	n/a	n/a	n/a	n/a	"NULL"	"NULL"	"NULL"	"531"	"stimuli/Ebbinghaus_0.61429_-0.2800.png"	"arrowright"	n/a	"Ebbinghaus"	"arrowright"	"1347"	"TRUE"	"Ebbinghaus"	"0.6142900000"	"-0.280000000"	"2"	"29"
n/a	"html-keyboard-response"	"241"	"914432"	"0.0-5.0-2.0-0.29"	"aqm2s1"	"600"	"1366"	"chrome"	"108.0.0"	"FALSE"	"Windows 10"	"60.38"	n/a	n/a	n/a	n/a	n/a	n/a	"fixation"	n/a	n/a	n/a	n/a	"NULL"	"NULL"	"NULL"	n/a	"<p style=\"color: black; font-size: 80px; padding-left: 16%; padding-right: 38%; padding-top: 19%; padding-bottom: 34%\">+</p>"	n/a	"1460"	n/a	n/a	n/a	n/a	n/a	n/a	n/a	n/a	n/a
n/a	"image-keyboard-response"	"242"	"915475"	"0.0-5.0-2.0-1.29"	"aqm2s1"	"600"	"1366"	"chrome"	"108.0.0"	"FALSE"	"Windows 10"	"60.38"	n/a	n/a	n/a	n/a	n/a	n/a	"Trial"	n/a	n/a	n/a	n/a	"NULL"	"NULL"	"NULL"	"1041"	"stimuli/Ebbinghaus_-0.87143_-0.11071.png"	"arrowright"	n/a	"Ebbinghaus"	"arrowright"	"1470"	"TRUE"	"Ebbinghaus"	"-0.871430000"	"-0.110710000"	"2"	"30"
n/a	"html-keyboard-response"	"243"	"916560"	"0.0-5.0-2.0-0.30"	"aqm2s1"	"600"	"1366"	"chrome"	"108.0.0"	"FALSE"	"Windows 10"	"60.38"	n/a	n/a	n/a	n/a	n/a	n/a	"fixation"	n/a	n/a	n/a	n/a	"NULL"	"NULL"	"NULL"	n/a	"<p style=\"color: black; font-size: 80px; padding-left: 34%; padding-right: 2%; padding-top: 44%; padding-bottom: 2%\">+</p>"	n/a	"1072"	n/a	n/a	n/a	n/a	n/a	n/a	n/a	n/a	n/a
n/a	"image-keyboard-response"	"244"	"917671"	"0.0-5.0-2.0-1.30"	"aqm2s1"	"600"	"1366"	"chrome"	"108.0.0"	"FALSE"	"Windows 10"	"60.38"	n/a	n/a	n/a	n/a	n/a	n/a	"Trial"	n/a	n/a	n/a	n/a	"NULL"	"NULL"	"NULL"	"1110"	"stimuli/Ebbinghaus_0.87143_0.15857.png"	"arrowleft"	n/a	"Ebbinghaus"	"arrowleft"	"1085"	"TRUE"	"Ebbinghaus"	"0.8714300000"	"0.1585700000"	"2"	"31"
n/a	"html-keyboard-response"	"245"	"919026"	"0.0-5.0-2.0-0.31"	"aqm2s1"	"600"	"1366"	"chrome"	"108.0.0"	"FALSE"	"Windows 10"	"60.38"	n/a	n/a	n/a	n/a	n/a	n/a	"fixation"	n/a	n/a	n/a	n/a	"NULL"	"NULL"	"NULL"	n/a	"<p style=\"color: black; font-size: 80px; padding-left: 22%; padding-right: 45%; padding-top: 5%; padding-bottom: 25%\">+</p>"	n/a	"1350"	n/a	n/a	n/a	n/a	n/a	n/a	n/a	n/a	n/a
n/a	"image-keyboard-response"	"246"	"919984"	"0.0-5.0-2.0-1.31"	"aqm2s1"	"600"	"1366"	"chrome"	"108.0.0"	"FALSE"	"Windows 10"	"60.38"	n/a	n/a	n/a	n/a	n/a	n/a	"Trial"	n/a	n/a	n/a	n/a	"NULL"	"NULL"	"NULL"	"957"	"stimuli/Ebbinghaus_-0.1000_-0.2800.png"	"arrowright"	n/a	"Ebbinghaus"	"arrowright"	"1355"	"TRUE"	"Ebbinghaus"	"-0.100000000"	"-0.280000000"	"2"	"32"
n/a	"html-keyboard-response"	"247"	"921273"	"0.0-5.0-2.0-0.32"	"aqm2s1"	"600"	"1366"	"chrome"	"108.0.0"	"FALSE"	"Windows 10"	"60.38"	n/a	n/a	n/a	n/a	n/a	n/a	"fixation"	n/a	n/a	n/a	n/a	"NULL"	"NULL"	"NULL"	n/a	"<p style=\"color: black; font-size: 80px; padding-left: 41%; padding-right: 41%; padding-top: 0%; padding-bottom: 49%\">+</p>"	n/a	"1276"	n/a	n/a	n/a	n/a	n/a	n/a	n/a	n/a	n/a
n/a	"image-keyboard-response"	"248"	"922251"	"0.0-5.0-2.0-1.32"	"aqm2s1"	"600"	"1366"	"chrome"	"108.0.0"	"FALSE"	"Windows 10"	"60.38"	n/a	n/a	n/a	n/a	n/a	n/a	"Trial"	n/a	n/a	n/a	n/a	"NULL"	"NULL"	"NULL"	"978"	"stimuli/Ebbinghaus_0.10000_0.21500.png"	"arrowleft"	n/a	"Ebbinghaus"	"arrowleft"	"1289"	"TRUE"	"Ebbinghaus"	"0.1000000000"	"0.2150000000"	"2"	"33"
n/a	"html-keyboard-response"	"249"	"923455"	"0.0-5.0-2.0-0.33"	"aqm2s1"	"600"	"1366"	"chrome"	"108.0.0"	"FALSE"	"Windows 10"	"60.38"	n/a	n/a	n/a	n/a	n/a	n/a	"fixation"	n/a	n/a	n/a	n/a	"NULL"	"NULL"	"NULL"	n/a	"<p style=\"color: black; font-size: 80px; padding-left: 44%; padding-right: 12%; padding-top: 3%; padding-bottom: 23%\">+</p>"	n/a	"1201"	n/a	n/a	n/a	n/a	n/a	n/a	n/a	n/a	n/a
n/a	"image-keyboard-response"	"250"	"924839"	"0.0-5.0-2.0-1.33"	"aqm2s1"	"600"	"1366"	"chrome"	"108.0.0"	"FALSE"	"Windows 10"	"60.38"	n/a	n/a	n/a	n/a	n/a	n/a	"Trial"	n/a	n/a	n/a	n/a	"NULL"	"NULL"	"NULL"	"1383"	"stimuli/Ebbinghaus_0.10000_-0.11071.png"	"arrowright"	n/a	"Ebbinghaus"	"arrowright"	"1204"	"TRUE"	"Ebbinghaus"	"0.1000000000"	"-0.110710000"	"2"	"34"
n/a	"html-keyboard-response"	"251"	"926062"	"0.0-5.0-2.0-0.34"	"aqm2s1"	"600"	"1366"	"chrome"	"108.0.0"	"FALSE"	"Windows 10"	"60.38"	n/a	n/a	n/a	n/a	n/a	n/a	"fixation"	n/a	n/a	n/a	n/a	"NULL"	"NULL"	"NULL"	n/a	"<p style=\"color: black; font-size: 80px; padding-left: 5%; padding-right: 40%; padding-top: 42%; padding-bottom: 21%\">+</p>"	n/a	"1210"	n/a	n/a	n/a	n/a	n/a	n/a	n/a	n/a	n/a
n/a	"image-keyboard-response"	"252"	"927058"	"0.0-5.0-2.0-1.34"	"aqm2s1"	"600"	"1366"	"chrome"	"108.0.0"	"FALSE"	"Windows 10"	"60.38"	n/a	n/a	n/a	n/a	n/a	n/a	"Trial"	n/a	n/a	n/a	n/a	"NULL"	"NULL"	"NULL"	"994"	"stimuli/Ebbinghaus_-0.35714_-0.2150.png"	"arrowright"	n/a	"Ebbinghaus"	"arrowright"	"1223"	"TRUE"	"Ebbinghaus"	"-0.357140000"	"-0.215000000"	"2"	"35"
n/a	"html-keyboard-response"	"253"	"928371"	"0.0-5.0-2.0-0.35"	"aqm2s1"	"600"	"1366"	"chrome"	"108.0.0"	"FALSE"	"Windows 10"	"60.38"	n/a	n/a	n/a	n/a	n/a	n/a	"fixation"	n/a	n/a	n/a	n/a	"NULL"	"NULL"	"NULL"	n/a	"<p style=\"color: black; font-size: 80px; padding-left: 43%; padding-right: 49%; padding-top: 49%; padding-bottom: 19%\">+</p>"	n/a	"1296"	n/a	n/a	n/a	n/a	n/a	n/a	n/a	n/a	n/a
