"success"	"trial_type"	"trial_index"	"time_elapsed"	"internal_node_id"	"participant_id"	"screen_height"	"screen_width"	"browser"	"browser_version"	"mobile"	"os"	"vsync_rate"	"subject_id"	"width"	"height"	"webaudio"	"fullscreen"	"webcam"	"microphone"	"screen"	"version"	"date"	"time"	"rt"	"response"	"timeout"	"failed_images"	"failed_audio"	"failed_video"	"stimulus"	"trial_duration"	"block"	"correct_response"	"prestimulus_duration"	"correct"	"type"	"illusion_strength"	"illusion_difference"	"block_number"	"trial_number"
"TRUE"	"fullscreen"	"0"	"1132"	"0.0-0.0"	"a9smvc"	"600"	"1024"	"chrome"	"111.0.0"	"FALSE"	"Windows 10"	"60.68"	"057"	n/a	n/a	n/a	n/a	n/a	n/a	n/a	n/a	n/a	n/a	n/a	"NULL"	n/a	"NULL"	"NULL"	"NULL"	n/a	n/a	n/a	n/a	n/a	n/a	n/a	n/a	n/a	n/a	n/a
n/a	"browser-check"	"1"	"2130"	"0.0-1.0"	"a9smvc"	"600"	"1024"	"chrome"	"111.0.0"	"FALSE"	"Windows 10"	"60.68"	"057"	"1024"	"600"	"TRUE"	"TRUE"	"TRUE"	"TRUE"	"browser_info"	"1.0"	"23/03/2023"	"14:14:54"	n/a	"NULL"	n/a	"NULL"	"NULL"	"NULL"	n/a	n/a	n/a	n/a	n/a	n/a	n/a	n/a	n/a	n/a	n/a
n/a	"survey-text"	"2"	"5820"	"0.0-2.0"	"a9smvc"	"600"	"1024"	"chrome"	"111.0.0"	"FALSE"	"Windows 10"	"60.68"	"057"	n/a	n/a	n/a	n/a	n/a	n/a	"subject_id"	n/a	n/a	n/a	"3686"	"list(subject_id = \"057\")"	n/a	"NULL"	"NULL"	"NULL"	n/a	n/a	n/a	n/a	n/a	n/a	n/a	n/a	n/a	n/a	n/a
"TRUE"	"preload"	"3"	"5829"	"0.0-3.0"	"a9smvc"	"600"	"1024"	"chrome"	"111.0.0"	"FALSE"	"Windows 10"	"60.68"	"057"	n/a	n/a	n/a	n/a	n/a	n/a	n/a	n/a	n/a	n/a	n/a	"NULL"	"FALSE"	"list()"	"list()"	"list()"	n/a	n/a	n/a	n/a	n/a	n/a	n/a	n/a	n/a	n/a	n/a
n/a	"html-button-response"	"4"	"59489"	"0.0-4.0-0.0"	"a9smvc"	"600"	"1024"	"chrome"	"111.0.0"	"FALSE"	"Windows 10"	"60.68"	"057"	n/a	n/a	n/a	n/a	n/a	n/a	"illusion_instructions"	n/a	n/a	n/a	"53658"	"0"	n/a	"NULL"	"NULL"	"NULL"	"<p><b>Illusion Game</b></p><p>In this game of speed and reflex, you will need to make <b>visual judgments</b> (for instance, which circle is the biggest, or which line is the longest), as fast and as correctly as possible, while <b>resisting different visual illusions</b>.</p><p>We are going to start with some examples of all the illusions you will encounter in the game.</p>"	n/a	n/a	n/a	n/a	n/a	n/a	n/a	n/a	n/a	n/a
"TRUE"	"preload"	"5"	"59504"	"0.0-4.0-1.0-0.0"	"a9smvc"	"600"	"1024"	"chrome"	"111.0.0"	"FALSE"	"Windows 10"	"60.68"	"057"	n/a	n/a	n/a	n/a	n/a	n/a	n/a	n/a	n/a	n/a	n/a	"NULL"	"FALSE"	"list()"	"list()"	"list()"	n/a	n/a	n/a	n/a	n/a	n/a	n/a	n/a	n/a	n/a	n/a
n/a	"html-keyboard-response"	"6"	"74183"	"0.0-4.0-1.0-1.0"	"a9smvc"	"600"	"1024"	"chrome"	"111.0.0"	"FALSE"	"Windows 10"	"60.68"	"057"	n/a	n/a	n/a	n/a	n/a	n/a	n/a	n/a	n/a	n/a	"14679"	"enter"	n/a	"NULL"	"NULL"	"NULL"	"<p><b>Practice</b></p><p>In this part, two red circles will appear side by side on the screen.</p><p>Your task is to select which <b>red circle is bigger</b> in size as fast as you can, without making errors.</p><p>Don't get distracted by the surrounding black circles around the red circles!</p><p>Press <b>the LEFT or the RIGHT arrow</b> to indicate which is the bigger <b>red circle.</b></p><div style='float: center'><img src='materials/instructions/Ebbinghaus_Demo.png' height='300'></img><p><img src='utils/answer/answer_leftright_keyboard.PNG' height='150'></img></p><p class='small'>In this example, the correct answer is the <b>LEFT arrow</b>.</p></div><p>Are you ready? <b>Press ENTER to start</b></p>"	n/a	n/a	n/a	n/a	n/a	n/a	n/a	n/a	n/a	n/a
n/a	"html-keyboard-response"	"7"	"75810"	"0.0-4.0-1.0-2.0-0.0"	"a9smvc"	"600"	"1024"	"chrome"	"111.0.0"	"FALSE"	"Windows 10"	"60.68"	"057"	n/a	n/a	n/a	n/a	n/a	n/a	"fixation"	n/a	n/a	n/a	n/a	"NULL"	n/a	"NULL"	"NULL"	"NULL"	"<p style=\"color: black; font-size: 80px; padding-left: 29%; padding-right: 40%; padding-top: 39%; padding-bottom: 47%\">+</p>"	"1114"	n/a	n/a	n/a	n/a	n/a	n/a	n/a	n/a	n/a
n/a	"image-keyboard-response"	"8"	"76596"	"0.0-4.0-1.0-2.0-1.0"	"a9smvc"	"600"	"1024"	"chrome"	"111.0.0"	"FALSE"	"Windows 10"	"60.68"	"057"	n/a	n/a	n/a	n/a	n/a	n/a	"Trial"	n/a	n/a	n/a	"775"	"arrowright"	n/a	"NULL"	"NULL"	"NULL"	"stimuli/Ebbinghaus_-100000_-1.4000.png"	n/a	"Ebbinghaus"	"arrowright"	"1627"	"TRUE"	"Ebbinghaus"	"-10000000000"	"-1.400000000"	"1"	"1"
n/a	"html-keyboard-response"	"9"	"77622"	"0.0-4.0-1.0-2.0-0.1"	"a9smvc"	"600"	"1024"	"chrome"	"111.0.0"	"FALSE"	"Windows 10"	"60.68"	"057"	n/a	n/a	n/a	n/a	n/a	n/a	"fixation"	n/a	n/a	n/a	n/a	"NULL"	n/a	"NULL"	"NULL"	"NULL"	"<p style=\"color: black; font-size: 80px; padding-left: 27%; padding-right: 31%; padding-top: 37%; padding-bottom: 15%\">+</p>"	"1009"	n/a	n/a	n/a	n/a	n/a	n/a	n/a	n/a	n/a
n/a	"image-keyboard-response"	"10"	"78032"	"0.0-4.0-1.0-2.0-1.1"	"a9smvc"	"600"	"1024"	"chrome"	"111.0.0"	"FALSE"	"Windows 10"	"60.68"	"057"	n/a	n/a	n/a	n/a	n/a	n/a	"Trial"	n/a	n/a	n/a	"410"	"arrowleft"	n/a	"NULL"	"NULL"	"NULL"	"stimuli/Ebbinghaus_-100000_1.40000.png"	n/a	"Ebbinghaus"	"arrowleft"	"1026"	"TRUE"	"Ebbinghaus"	"-10000000000"	"1.4000000000"	"1"	"2"
n/a	"html-keyboard-response"	"11"	"79212"	"0.0-4.0-1.0-2.0-0.2"	"a9smvc"	"600"	"1024"	"chrome"	"111.0.0"	"FALSE"	"Windows 10"	"60.68"	"057"	n/a	n/a	n/a	n/a	n/a	n/a	"fixation"	n/a	n/a	n/a	n/a	"NULL"	n/a	"NULL"	"NULL"	"NULL"	"<p style=\"color: black; font-size: 80px; padding-left: 21%; padding-right: 10%; padding-top: 50%; padding-bottom: 18%\">+</p>"	"1163"	n/a	n/a	n/a	n/a	n/a	n/a	n/a	n/a	n/a
n/a	"image-keyboard-response"	"12"	"79623"	"0.0-4.0-1.0-2.0-1.2"	"a9smvc"	"600"	"1024"	"chrome"	"111.0.0"	"FALSE"	"Windows 10"	"60.68"	"057"	n/a	n/a	n/a	n/a	n/a	n/a	"Trial"	n/a	n/a	n/a	"411"	"arrowleft"	n/a	"NULL"	"NULL"	"NULL"	"stimuli/Ebbinghaus_0000000_1.40000.png"	n/a	"Ebbinghaus"	"arrowleft"	"1180"	"TRUE"	"Ebbinghaus"	"000000000000"	"1.4000000000"	"1"	"3"
n/a	"html-keyboard-response"	"13"	"81107"	"0.0-4.0-1.0-2.0-0.3"	"a9smvc"	"600"	"1024"	"chrome"	"111.0.0"	"FALSE"	"Windows 10"	"60.68"	"057"	n/a	n/a	n/a	n/a	n/a	n/a	"fixation"	n/a	n/a	n/a	n/a	"NULL"	n/a	"NULL"	"NULL"	"NULL"	"<p style=\"color: black; font-size: 80px; padding-left: 31%; padding-right: 33%; padding-top: 35%; padding-bottom: 26%\">+</p>"	"1475"	n/a	n/a	n/a	n/a	n/a	n/a	n/a	n/a	n/a
n/a	"image-keyboard-response"	"14"	"81524"	"0.0-4.0-1.0-2.0-1.3"	"a9smvc"	"600"	"1024"	"chrome"	"111.0.0"	"FALSE"	"Windows 10"	"60.68"	"057"	n/a	n/a	n/a	n/a	n/a	n/a	"Trial"	n/a	n/a	n/a	"416"	"arrowleft"	n/a	"NULL"	"NULL"	"NULL"	"stimuli/Ebbinghaus_1000000_1.40000.png"	n/a	"Ebbinghaus"	"arrowleft"	"1484"	"TRUE"	"Ebbinghaus"	"100000000000"	"1.4000000000"	"1"	"4"
n/a	"html-keyboard-response"	"15"	"82729"	"0.0-4.0-1.0-2.0-0.4"	"a9smvc"	"600"	"1024"	"chrome"	"111.0.0"	"FALSE"	"Windows 10"	"60.68"	"057"	n/a	n/a	n/a	n/a	n/a	n/a	"fixation"	n/a	n/a	n/a	n/a	"NULL"	n/a	"NULL"	"NULL"	"NULL"	"<p style=\"color: black; font-size: 80px; padding-left: 4%; padding-right: 38%; padding-top: 8%; padding-bottom: 38%\">+</p>"	"1204"	n/a	n/a	n/a	n/a	n/a	n/a	n/a	n/a	n/a
n/a	"image-keyboard-response"	"16"	"83132"	"0.0-4.0-1.0-2.0-1.4"	"a9smvc"	"600"	"1024"	"chrome"	"111.0.0"	"FALSE"	"Windows 10"	"60.68"	"057"	n/a	n/a	n/a	n/a	n/a	n/a	"Trial"	n/a	n/a	n/a	"402"	"arrowright"	n/a	"NULL"	"NULL"	"NULL"	"stimuli/Ebbinghaus_0000000_-1.4000.png"	n/a	"Ebbinghaus"	"arrowright"	"1205"	"TRUE"	"Ebbinghaus"	"000000000000"	"-1.400000000"	"1"	"5"
n/a	"html-keyboard-response"	"17"	"84159"	"0.0-4.0-1.0-2.0-0.5"	"a9smvc"	"600"	"1024"	"chrome"	"111.0.0"	"FALSE"	"Windows 10"	"60.68"	"057"	n/a	n/a	n/a	n/a	n/a	n/a	"fixation"	n/a	n/a	n/a	n/a	"NULL"	n/a	"NULL"	"NULL"	"NULL"	"<p style=\"color: black; font-size: 80px; padding-left: 3%; padding-right: 10%; padding-top: 8%; padding-bottom: 17%\">+</p>"	"1013"	n/a	n/a	n/a	n/a	n/a	n/a	n/a	n/a	n/a
n/a	"image-keyboard-response"	"18"	"84552"	"0.0-4.0-1.0-2.0-1.5"	"a9smvc"	"600"	"1024"	"chrome"	"111.0.0"	"FALSE"	"Windows 10"	"60.68"	"057"	n/a	n/a	n/a	n/a	n/a	n/a	"Trial"	n/a	n/a	n/a	"392"	"arrowright"	n/a	"NULL"	"NULL"	"NULL"	"stimuli/Ebbinghaus_1000000_-1.4000.png"	n/a	"Ebbinghaus"	"arrowright"	"1027"	"TRUE"	"Ebbinghaus"	"100000000000"	"-1.400000000"	"1"	"6"
n/a	"html-button-response"	"19"	"88574"	"0.0-4.0-1.0-3.0"	"a9smvc"	"600"	"1024"	"chrome"	"111.0.0"	"FALSE"	"Windows 10"	"60.68"	"057"	n/a	n/a	n/a	n/a	n/a	n/a	"practice_block_results"	n/a	n/a	n/a	"4020"	"0"	n/a	"NULL"	"NULL"	"NULL"	"<p style='color:rgb(76,175,80);'> Correct Responses: <b>100.00%</b></p><hr><p style='color:rgb(233,30,99);'> Average Response Time: <b>467.67</b> ms.</p>"	n/a	n/a	n/a	n/a	n/a	n/a	n/a	n/a	n/a	n/a
"TRUE"	"preload"	"20"	"89101"	"0.0-4.0-2.0-0.0"	"a9smvc"	"600"	"1024"	"chrome"	"111.0.0"	"FALSE"	"Windows 10"	"60.68"	"057"	n/a	n/a	n/a	n/a	n/a	n/a	n/a	n/a	n/a	n/a	n/a	"NULL"	"FALSE"	"list()"	"list()"	"list()"	n/a	n/a	n/a	n/a	n/a	n/a	n/a	n/a	n/a	n/a	n/a
n/a	"html-keyboard-response"	"21"	"95273"	"0.0-4.0-2.0-1.0"	"a9smvc"	"600"	"1024"	"chrome"	"111.0.0"	"FALSE"	"Windows 10"	"60.68"	"057"	n/a	n/a	n/a	n/a	n/a	n/a	n/a	n/a	n/a	n/a	"6171"	"enter"	n/a	"NULL"	"NULL"	"NULL"	"<p><b>Practice</b></p><p>In this part, two horizontal red lines will appear one above the other.</p><p>Your task is to select which <b>line is longer</b> in length as fast as you can, without making errors.</p><p>Don't get distracted by the surrounding black arrows at the end of the red lines!</p><p>Press <b>the UP or the DOWN arrow</b> to indicate where is the longer <b>red line.</b></p><div style='float: center'><img src='materials/instructions/MullerLyer_Demo.png' height='300'></img><p><img src='utils/answer/answer_updown_keyboard.PNG' height='150'></img></p><p class='small'>In this example, the correct answer is the <b>UP arrow</b>.</p></div><p>Are you ready? <b>Press ENTER to start</b></p>"	n/a	n/a	n/a	n/a	n/a	n/a	n/a	n/a	n/a	n/a
n/a	"html-keyboard-response"	"22"	"96886"	"0.0-4.0-2.0-2.0-0.0"	"a9smvc"	"600"	"1024"	"chrome"	"111.0.0"	"FALSE"	"Windows 10"	"60.68"	"057"	n/a	n/a	n/a	n/a	n/a	n/a	"fixation"	n/a	n/a	n/a	n/a	"NULL"	n/a	"NULL"	"NULL"	"NULL"	"<p style=\"color: black; font-size: 80px; padding-left: 1%; padding-right: 47%; padding-top: 0%; padding-bottom: 4%\">+</p>"	"1102"	n/a	n/a	n/a	n/a	n/a	n/a	n/a	n/a	n/a
n/a	"image-keyboard-response"	"23"	"97728"	"0.0-4.0-2.0-2.0-1.0"	"a9smvc"	"600"	"1024"	"chrome"	"111.0.0"	"FALSE"	"Windows 10"	"60.68"	"057"	n/a	n/a	n/a	n/a	n/a	n/a	"Trial"	n/a	n/a	n/a	"841"	"arrowdown"	n/a	"NULL"	"NULL"	"NULL"	"stimuli/MullerLyer_2300000_-0.7000.png"	n/a	"MullerLyer"	"arrowdown"	"1613"	"TRUE"	"MullerLyer"	"230000000000"	"-0.700000000"	"1"	"7"
n/a	"html-keyboard-response"	"24"	"99062"	"0.0-4.0-2.0-2.0-0.1"	"a9smvc"	"600"	"1024"	"chrome"	"111.0.0"	"FALSE"	"Windows 10"	"60.68"	"057"	n/a	n/a	n/a	n/a	n/a	n/a	"fixation"	n/a	n/a	n/a	n/a	"NULL"	n/a	"NULL"	"NULL"	"NULL"	"<p style=\"color: black; font-size: 80px; padding-left: 34%; padding-right: 37%; padding-top: 44%; padding-bottom: 32%\">+</p>"	"1331"	n/a	n/a	n/a	n/a	n/a	n/a	n/a	n/a	n/a
n/a	"image-keyboard-response"	"25"	"99580"	"0.0-4.0-2.0-2.0-1.1"	"a9smvc"	"600"	"1024"	"chrome"	"111.0.0"	"FALSE"	"Windows 10"	"60.68"	"057"	n/a	n/a	n/a	n/a	n/a	n/a	"Trial"	n/a	n/a	n/a	"517"	"arrowdown"	n/a	"NULL"	"NULL"	"NULL"	"stimuli/MullerLyer_-230000_-0.7000.png"	n/a	"MullerLyer"	"arrowdown"	"1334"	"TRUE"	"MullerLyer"	"-23000000000"	"-0.700000000"	"1"	"8"
n/a	"html-keyboard-response"	"26"	"100650"	"0.0-4.0-2.0-2.0-0.2"	"a9smvc"	"600"	"1024"	"chrome"	"111.0.0"	"FALSE"	"Windows 10"	"60.68"	"057"	n/a	n/a	n/a	n/a	n/a	n/a	"fixation"	n/a	n/a	n/a	n/a	"NULL"	n/a	"NULL"	"NULL"	"NULL"	"<p style=\"color: black; font-size: 80px; padding-left: 9%; padding-right: 40%; padding-top: 44%; padding-bottom: 11%\">+</p>"	"1065"	n/a	n/a	n/a	n/a	n/a	n/a	n/a	n/a	n/a
n/a	"image-keyboard-response"	"27"	"101330"	"0.0-4.0-2.0-2.0-1.2"	"a9smvc"	"600"	"1024"	"chrome"	"111.0.0"	"FALSE"	"Windows 10"	"60.68"	"057"	n/a	n/a	n/a	n/a	n/a	n/a	"Trial"	n/a	n/a	n/a	"679"	"arrowdown"	n/a	"NULL"	"NULL"	"NULL"	"stimuli/MullerLyer_0000000_-0.7000.png"	n/a	"MullerLyer"	"arrowdown"	"1070"	"TRUE"	"MullerLyer"	"000000000000"	"-0.700000000"	"1"	"9"
n/a	"html-keyboard-response"	"28"	"102525"	"0.0-4.0-2.0-2.0-0.3"	"a9smvc"	"600"	"1024"	"chrome"	"111.0.0"	"FALSE"	"Windows 10"	"60.68"	"057"	n/a	n/a	n/a	n/a	n/a	n/a	"fixation"	n/a	n/a	n/a	n/a	"NULL"	n/a	"NULL"	"NULL"	"NULL"	"<p style=\"color: black; font-size: 80px; padding-left: 3%; padding-right: 4%; padding-top: 21%; padding-bottom: 1%\">+</p>"	"1181"	n/a	n/a	n/a	n/a	n/a	n/a	n/a	n/a	n/a
n/a	"image-keyboard-response"	"29"	"103064"	"0.0-4.0-2.0-2.0-1.3"	"a9smvc"	"600"	"1024"	"chrome"	"111.0.0"	"FALSE"	"Windows 10"	"60.68"	"057"	n/a	n/a	n/a	n/a	n/a	n/a	"Trial"	n/a	n/a	n/a	"538"	"arrowup"	n/a	"NULL"	"NULL"	"NULL"	"stimuli/MullerLyer_-230000_0.70000.png"	n/a	"MullerLyer"	"arrowup"	"1195"	"TRUE"	"MullerLyer"	"-23000000000"	"0.7000000000"	"1"	"10"
n/a	"html-keyboard-response"	"30"	"104440"	"0.0-4.0-2.0-2.0-0.4"	"a9smvc"	"600"	"1024"	"chrome"	"111.0.0"	"FALSE"	"Windows 10"	"60.68"	"057"	n/a	n/a	n/a	n/a	n/a	n/a	"fixation"	n/a	n/a	n/a	n/a	"NULL"	n/a	"NULL"	"NULL"	"NULL"	"<p style=\"color: black; font-size: 80px; padding-left: 8%; padding-right: 4%; padding-top: 42%; padding-bottom: 17%\">+</p>"	"1366"	n/a	n/a	n/a	n/a	n/a	n/a	n/a	n/a	n/a
n/a	"image-keyboard-response"	"31"	"104971"	"0.0-4.0-2.0-2.0-1.4"	"a9smvc"	"600"	"1024"	"chrome"	"111.0.0"	"FALSE"	"Windows 10"	"60.68"	"057"	n/a	n/a	n/a	n/a	n/a	n/a	"Trial"	n/a	n/a	n/a	"531"	"arrowup"	n/a	"NULL"	"NULL"	"NULL"	"stimuli/MullerLyer_0000000_0.70000.png"	n/a	"MullerLyer"	"arrowup"	"1376"	"TRUE"	"MullerLyer"	"000000000000"	"0.7000000000"	"1"	"11"
n/a	"html-keyboard-response"	"32"	"106437"	"0.0-4.0-2.0-2.0-0.5"	"a9smvc"	"600"	"1024"	"chrome"	"111.0.0"	"FALSE"	"Windows 10"	"60.68"	"057"	n/a	n/a	n/a	n/a	n/a	n/a	"fixation"	n/a	n/a	n/a	n/a	"NULL"	n/a	"NULL"	"NULL"	"NULL"	"<p style=\"color: black; font-size: 80px; padding-left: 7%; padding-right: 45%; padding-top: 40%; padding-bottom: 4%\">+</p>"	"1455"	n/a	n/a	n/a	n/a	n/a	n/a	n/a	n/a	n/a
n/a	"image-keyboard-response"	"33"	"107050"	"0.0-4.0-2.0-2.0-1.5"	"a9smvc"	"600"	"1024"	"chrome"	"111.0.0"	"FALSE"	"Windows 10"	"60.68"	"057"	n/a	n/a	n/a	n/a	n/a	n/a	"Trial"	n/a	n/a	n/a	"612"	"arrowup"	n/a	"NULL"	"NULL"	"NULL"	"stimuli/MullerLyer_2300000_0.70000.png"	n/a	"MullerLyer"	"arrowup"	"1466"	"TRUE"	"MullerLyer"	"230000000000"	"0.7000000000"	"1"	"12"
n/a	"html-button-response"	"34"	"110816"	"0.0-4.0-2.0-3.0"	"a9smvc"	"600"	"1024"	"chrome"	"111.0.0"	"FALSE"	"Windows 10"	"60.68"	"057"	n/a	n/a	n/a	n/a	n/a	n/a	"practice_block_results"	n/a	n/a	n/a	"3765"	"0"	n/a	"NULL"	"NULL"	"NULL"	"<p style='color:rgb(76,175,80);'> Correct Responses: <b>100.00%</b></p><hr><p style='color:rgb(233,30,99);'> Average Response Time: <b>619.67</b> ms.</p>"	n/a	n/a	n/a	n/a	n/a	n/a	n/a	n/a	n/a	n/a
"TRUE"	"preload"	"35"	"111333"	"0.0-4.0-3.0-0.0"	"a9smvc"	"600"	"1024"	"chrome"	"111.0.0"	"FALSE"	"Windows 10"	"60.68"	"057"	n/a	n/a	n/a	n/a	n/a	n/a	n/a	n/a	n/a	n/a	n/a	"NULL"	"FALSE"	"list()"	"list()"	"list()"	n/a	n/a	n/a	n/a	n/a	n/a	n/a	n/a	n/a	n/a	n/a
n/a	"html-keyboard-response"	"36"	"118073"	"0.0-4.0-3.0-1.0"	"a9smvc"	"600"	"1024"	"chrome"	"111.0.0"	"FALSE"	"Windows 10"	"60.68"	"057"	n/a	n/a	n/a	n/a	n/a	n/a	n/a	n/a	n/a	n/a	"6739"	"enter"	n/a	"NULL"	"NULL"	"NULL"	"<p><b>Practice</b></p><p>In this part, two red lines will appear side by side.</p><p>Your task is to tell <b>which line is longer</b> in length, regardless of their orientation, as fast as you can, and without making errors.</p><p>Don't get distracted by the orientation of the lines!</p><p>Press <b>the LEFT or the RIGHT arrow</b> to indicate which <b>line is the longer one.</b></p><div style='float: center'><img src='materials/instructions/VerticalHorizontal_Demo.png' height='300'></img><p><img src='utils/answer/answer_leftright_keyboard.PNG' height='150'></img></p><p class='small'>In this example, the correct answer is the <b>LEFT arrow</b>.</p></div><p>Are you ready? <b>Press ENTER to start</b></p>"	n/a	n/a	n/a	n/a	n/a	n/a	n/a	n/a	n/a	n/a
n/a	"html-keyboard-response"	"37"	"119683"	"0.0-4.0-3.0-2.0-0.0"	"a9smvc"	"600"	"1024"	"chrome"	"111.0.0"	"FALSE"	"Windows 10"	"60.68"	"057"	n/a	n/a	n/a	n/a	n/a	n/a	"fixation"	n/a	n/a	n/a	n/a	"NULL"	n/a	"NULL"	"NULL"	"NULL"	"<p style=\"color: black; font-size: 80px; padding-left: 5%; padding-right: 9%; padding-top: 11%; padding-bottom: 7%\">+</p>"	"1089"	n/a	n/a	n/a	n/a	n/a	n/a	n/a	n/a	n/a
n/a	"image-keyboard-response"	"38"	"120300"	"0.0-4.0-3.0-2.0-1.0"	"a9smvc"	"600"	"1024"	"chrome"	"111.0.0"	"FALSE"	"Windows 10"	"60.68"	"057"	n/a	n/a	n/a	n/a	n/a	n/a	"Trial"	n/a	n/a	n/a	"616"	"arrowright"	n/a	"NULL"	"NULL"	"NULL"	"stimuli/VerticalHorizontal_-330000_-0.9000.png"	n/a	"VerticalHorizontal"	"arrowright"	"1610"	"TRUE"	"VerticalHorizontal"	"-33000000000"	"-0.900000000"	"1"	"13"
n/a	"html-keyboard-response"	"39"	"121476"	"0.0-4.0-3.0-2.0-0.1"	"a9smvc"	"600"	"1024"	"chrome"	"111.0.0"	"FALSE"	"Windows 10"	"60.68"	"057"	n/a	n/a	n/a	n/a	n/a	n/a	"fixation"	n/a	n/a	n/a	n/a	"NULL"	n/a	"NULL"	"NULL"	"NULL"	"<p style=\"color: black; font-size: 80px; padding-left: 38%; padding-right: 28%; padding-top: 42%; padding-bottom: 43%\">+</p>"	"1161"	n/a	n/a	n/a	n/a	n/a	n/a	n/a	n/a	n/a
n/a	"image-keyboard-response"	"40"	"121918"	"0.0-4.0-3.0-2.0-1.1"	"a9smvc"	"600"	"1024"	"chrome"	"111.0.0"	"FALSE"	"Windows 10"	"60.68"	"057"	n/a	n/a	n/a	n/a	n/a	n/a	"Trial"	n/a	n/a	n/a	"441"	"arrowleft"	n/a	"NULL"	"NULL"	"NULL"	"stimuli/VerticalHorizontal_-330000_0.90000.png"	n/a	"VerticalHorizontal"	"arrowleft"	"1176"	"TRUE"	"VerticalHorizontal"	"-33000000000"	"0.9000000000"	"1"	"14"
n/a	"html-keyboard-response"	"41"	"123028"	"0.0-4.0-3.0-2.0-0.2"	"a9smvc"	"600"	"1024"	"chrome"	"111.0.0"	"FALSE"	"Windows 10"	"60.68"	"057"	n/a	n/a	n/a	n/a	n/a	n/a	"fixation"	n/a	n/a	n/a	n/a	"NULL"	n/a	"NULL"	"NULL"	"NULL"	"<p style=\"color: black; font-size: 80px; padding-left: 35%; padding-right: 4%; padding-top: 7%; padding-bottom: 34%\">+</p>"	"1100"	n/a	n/a	n/a	n/a	n/a	n/a	n/a	n/a	n/a
n/a	"image-keyboard-response"	"42"	"123435"	"0.0-4.0-3.0-2.0-1.2"	"a9smvc"	"600"	"1024"	"chrome"	"111.0.0"	"FALSE"	"Windows 10"	"60.68"	"057"	n/a	n/a	n/a	n/a	n/a	n/a	"Trial"	n/a	n/a	n/a	"406"	"arrowright"	n/a	"NULL"	"NULL"	"NULL"	"stimuli/VerticalHorizontal_3300000_0.90000.png"	n/a	"VerticalHorizontal"	"arrowleft"	"1110"	"FALSE"	"VerticalHorizontal"	"330000000000"	"0.9000000000"	"1"	"15"
n/a	"html-keyboard-response"	"43"	"124788"	"0.0-4.0-3.0-2.0-0.3"	"a9smvc"	"600"	"1024"	"chrome"	"111.0.0"	"FALSE"	"Windows 10"	"60.68"	"057"	n/a	n/a	n/a	n/a	n/a	n/a	"fixation"	n/a	n/a	n/a	n/a	"NULL"	n/a	"NULL"	"NULL"	"NULL"	"<p style=\"color: black; font-size: 80px; padding-left: 33%; padding-right: 31%; padding-top: 5%; padding-bottom: 1%\">+</p>"	"1344"	n/a	n/a	n/a	n/a	n/a	n/a	n/a	n/a	n/a
n/a	"image-keyboard-response"	"44"	"125235"	"0.0-4.0-3.0-2.0-1.3"	"a9smvc"	"600"	"1024"	"chrome"	"111.0.0"	"FALSE"	"Windows 10"	"60.68"	"057"	n/a	n/a	n/a	n/a	n/a	n/a	"Trial"	n/a	n/a	n/a	"446"	"arrowright"	n/a	"NULL"	"NULL"	"NULL"	"stimuli/VerticalHorizontal_3300000_-0.9000.png"	n/a	"VerticalHorizontal"	"arrowright"	"1353"	"TRUE"	"VerticalHorizontal"	"330000000000"	"-0.900000000"	"1"	"16"
n/a	"html-keyboard-response"	"45"	"126446"	"0.0-4.0-3.0-2.0-0.4"	"a9smvc"	"600"	"1024"	"chrome"	"111.0.0"	"FALSE"	"Windows 10"	"60.68"	"057"	n/a	n/a	n/a	n/a	n/a	n/a	"fixation"	n/a	n/a	n/a	n/a	"NULL"	n/a	"NULL"	"NULL"	"NULL"	"<p style=\"color: black; font-size: 80px; padding-left: 48%; padding-right: 38%; padding-top: 38%; padding-bottom: 39%\">+</p>"	"1205"	n/a	n/a	n/a	n/a	n/a	n/a	n/a	n/a	n/a
n/a	"image-keyboard-response"	"46"	"126897"	"0.0-4.0-3.0-2.0-1.4"	"a9smvc"	"600"	"1024"	"chrome"	"111.0.0"	"FALSE"	"Windows 10"	"60.68"	"057"	n/a	n/a	n/a	n/a	n/a	n/a	"Trial"	n/a	n/a	n/a	"449"	"arrowleft"	n/a	"NULL"	"NULL"	"NULL"	"stimuli/VerticalHorizontal_0000000_0.90000.png"	n/a	"VerticalHorizontal"	"arrowleft"	"1211"	"TRUE"	"VerticalHorizontal"	"000000000000"	"0.9000000000"	"1"	"17"
n/a	"html-keyboard-response"	"47"	"128226"	"0.0-4.0-3.0-2.0-0.5"	"a9smvc"	"600"	"1024"	"chrome"	"111.0.0"	"FALSE"	"Windows 10"	"60.68"	"057"	n/a	n/a	n/a	n/a	n/a	n/a	"fixation"	n/a	n/a	n/a	n/a	"NULL"	n/a	"NULL"	"NULL"	"NULL"	"<p style=\"color: black; font-size: 80px; padding-left: 10%; padding-right: 47%; padding-top: 33%; padding-bottom: 44%\">+</p>"	"1323"	n/a	n/a	n/a	n/a	n/a	n/a	n/a	n/a	n/a
n/a	"image-keyboard-response"	"48"	"128691"	"0.0-4.0-3.0-2.0-1.5"	"a9smvc"	"600"	"1024"	"chrome"	"111.0.0"	"FALSE"	"Windows 10"	"60.68"	"057"	n/a	n/a	n/a	n/a	n/a	n/a	"Trial"	n/a	n/a	n/a	"464"	"arrowright"	n/a	"NULL"	"NULL"	"NULL"	"stimuli/VerticalHorizontal_0000000_-0.9000.png"	n/a	"VerticalHorizontal"	"arrowright"	"1329"	"TRUE"	"VerticalHorizontal"	"000000000000"	"-0.900000000"	"1"	"18"
n/a	"html-button-response"	"49"	"131105"	"0.0-4.0-3.0-3.0"	"a9smvc"	"600"	"1024"	"chrome"	"111.0.0"	"FALSE"	"Windows 10"	"60.68"	"057"	n/a	n/a	n/a	n/a	n/a	n/a	"practice_block_results"	n/a	n/a	n/a	"2413"	"0"	n/a	"NULL"	"NULL"	"NULL"	"<p style='color:rgb(76,175,80);'> Correct Responses: <b>83.33%</b></p><hr><p style='color:rgb(233,30,99);'> Average Response Time: <b>470.33</b> ms.</p>"	n/a	n/a	n/a	n/a	n/a	n/a	n/a	n/a	n/a	n/a
n/a	"html-button-response"	"50"	"172945"	"0.0-4.0-4.0"	"a9smvc"	"600"	"1024"	"chrome"	"111.0.0"	"FALSE"	"Windows 10"	"60.68"	"057"	n/a	n/a	n/a	n/a	n/a	n/a	"practice_debrief"	n/a	n/a	n/a	"41330"	"0"	n/a	"NULL"	"NULL"	"NULL"	"<p><b>TRAINING COMPLETED</b></p><p>In the next phase, there will be more trials, and some might be harder too.<br> Moreover, after each illusion block, a <b>score</b> will be calculated based on speed (time you took to answer) and accuracy (number of errors).</p><p>Try to keep up a high score!</p><br><p>Note that it can be <i>really</i> challenging at times, so you will need to rely on your <b>intuition</b> and gut feeling to answer as fast as you can without making errors.</p><p>Each illusion block will be repeated two times (so that you have the opportunity to improve your score), but the order of the blocks is random.</p><p>Remember, your goal is to be as <b>fast</b> and <b>accurate</b> as possible. Good luck!</p><br>"	n/a	n/a	n/a	n/a	n/a	n/a	n/a	n/a	n/a	n/a
"TRUE"	"preload"	"51"	"173086"	"0.0-5.0-0.0"	"a9smvc"	"600"	"1024"	"chrome"	"111.0.0"	"FALSE"	"Windows 10"	"60.68"	"057"	n/a	n/a	n/a	n/a	n/a	n/a	n/a	n/a	n/a	n/a	n/a	"NULL"	"FALSE"	"list()"	"list()"	"list()"	n/a	n/a	n/a	n/a	n/a	n/a	n/a	n/a	n/a	n/a	n/a
n/a	"html-keyboard-response"	"52"	"180282"	"0.0-5.0-1.0"	"a9smvc"	"600"	"1024"	"chrome"	"111.0.0"	"FALSE"	"Windows 10"	"60.68"	"057"	n/a	n/a	n/a	n/a	n/a	n/a	n/a	n/a	n/a	n/a	"7195"	"enter"	n/a	"NULL"	"NULL"	"NULL"	"<p><b>Part 1/6</b></p><p>In this part, two horizontal red lines will appear one above the other.</p><p>Your task is to select which <b>line is longer</b> in length as fast as you can, without making errors.</p><p>Don't get distracted by the surrounding black arrows at the end of the red lines!</p><p>Press <b>the UP or the DOWN arrow</b> to indicate where is the longer <b>red line.</b></p><div style='float: center'><img src='materials/instructions/MullerLyer_Demo.png' height='300'></img><p><img src='utils/answer/answer_updown_keyboard.PNG' height='150'></img></p><p class='small'>In this example, the correct answer is the <b>UP arrow</b>.</p></div><p>Are you ready? <b>Press ENTER to start</b></p>"	n/a	n/a	n/a	n/a	n/a	n/a	n/a	n/a	n/a	n/a
n/a	"html-keyboard-response"	"53"	"182137"	"0.0-5.0-2.0-0.0"	"a9smvc"	"600"	"1024"	"chrome"	"111.0.0"	"FALSE"	"Windows 10"	"60.68"	"057"	n/a	n/a	n/a	n/a	n/a	n/a	"fixation"	n/a	n/a	n/a	n/a	"NULL"	n/a	"NULL"	"NULL"	"NULL"	"<p style=\"color: black; font-size: 80px; padding-left: 24%; padding-right: 41%; padding-top: 7%; padding-bottom: 0%\">+</p>"	"1336"	n/a	n/a	n/a	n/a	n/a	n/a	n/a	n/a	n/a
n/a	"image-keyboard-response"	"54"	"182706"	"0.0-5.0-2.0-1.0"	"a9smvc"	"600"	"1024"	"chrome"	"111.0.0"	"FALSE"	"Windows 10"	"60.68"	"057"	n/a	n/a	n/a	n/a	n/a	n/a	"Trial"	n/a	n/a	n/a	"568"	"arrowup"	n/a	"NULL"	"NULL"	"NULL"	"stimuli/MullerLyer_-2.3000_0.14541.png"	n/a	"MullerLyer"	"arrowup"	"1855"	"TRUE"	"MullerLyer"	"-2.300000000"	"0.1454100000"	"1"	"19"
n/a	"html-keyboard-response"	"55"	"183800"	"0.0-5.0-2.0-0.1"	"a9smvc"	"600"	"1024"	"chrome"	"111.0.0"	"FALSE"	"Windows 10"	"60.68"	"057"	n/a	n/a	n/a	n/a	n/a	n/a	"fixation"	n/a	n/a	n/a	n/a	"NULL"	n/a	"NULL"	"NULL"	"NULL"	"<p style=\"color: black; font-size: 80px; padding-left: 29%; padding-right: 29%; padding-top: 47%; padding-bottom: 10%\">+</p>"	"1078"	n/a	n/a	n/a	n/a	n/a	n/a	n/a	n/a	n/a
n/a	"image-keyboard-response"	"56"	"184378"	"0.0-5.0-2.0-1.1"	"a9smvc"	"600"	"1024"	"chrome"	"111.0.0"	"FALSE"	"Windows 10"	"60.68"	"057"	n/a	n/a	n/a	n/a	n/a	n/a	"Trial"	n/a	n/a	n/a	"578"	"arrowdown"	n/a	"NULL"	"NULL"	"NULL"	"stimuli/MullerLyer_2.30000_-0.3500.png"	n/a	"MullerLyer"	"arrowdown"	"1094"	"TRUE"	"MullerLyer"	"2.3000000000"	"-0.350000000"	"1"	"20"
n/a	"html-keyboard-response"	"57"	"185874"	"0.0-5.0-2.0-0.2"	"a9smvc"	"600"	"1024"	"chrome"	"111.0.0"	"FALSE"	"Windows 10"	"60.68"	"057"	n/a	n/a	n/a	n/a	n/a	n/a	"fixation"	n/a	n/a	n/a	n/a	"NULL"	n/a	"NULL"	"NULL"	"NULL"	"<p style=\"color: black; font-size: 80px; padding-left: 40%; padding-right: 11%; padding-top: 27%; padding-bottom: 15%\">+</p>"	"1490"	n/a	n/a	n/a	n/a	n/a	n/a	n/a	n/a	n/a
n/a	"image-keyboard-response"	"58"	"186471"	"0.0-5.0-2.0-1.2"	"a9smvc"	"600"	"1024"	"chrome"	"111.0.0"	"FALSE"	"Windows 10"	"60.68"	"057"	n/a	n/a	n/a	n/a	n/a	n/a	"Trial"	n/a	n/a	n/a	"597"	"arrowup"	n/a	"NULL"	"NULL"	"NULL"	"stimuli/MullerLyer_-14.12857_0.07627.png"	n/a	"MullerLyer"	"arrowup"	"1496"	"TRUE"	"MullerLyer"	"-14.12857000"	"0.0762700000"	"1"	"21"
n/a	"html-keyboard-response"	"59"	"187669"	"0.0-5.0-2.0-0.3"	"a9smvc"	"600"	"1024"	"chrome"	"111.0.0"	"FALSE"	"Windows 10"	"60.68"	"057"	n/a	n/a	n/a	n/a	n/a	n/a	"fixation"	n/a	n/a	n/a	n/a	"NULL"	n/a	"NULL"	"NULL"	"NULL"	"<p style=\"color: black; font-size: 80px; padding-left: 46%; padding-right: 30%; padding-top: 39%; padding-bottom: 41%\">+</p>"	"1191"	n/a	n/a	n/a	n/a	n/a	n/a	n/a	n/a	n/a
n/a	"image-keyboard-response"	"60"	"188367"	"0.0-5.0-2.0-1.3"	"a9smvc"	"600"	"1024"	"chrome"	"111.0.0"	"FALSE"	"Windows 10"	"60.68"	"057"	n/a	n/a	n/a	n/a	n/a	n/a	"Trial"	n/a	n/a	n/a	"697"	"arrowup"	n/a	"NULL"	"NULL"	"NULL"	"stimuli/MullerLyer_-8.21429_0.23665.png"	n/a	"MullerLyer"	"arrowup"	"1198"	"TRUE"	"MullerLyer"	"-8.214290000"	"0.2366500000"	"1"	"22"
n/a	"html-keyboard-response"	"61"	"189703"	"0.0-5.0-2.0-0.4"	"a9smvc"	"600"	"1024"	"chrome"	"111.0.0"	"FALSE"	"Windows 10"	"60.68"	"057"	n/a	n/a	n/a	n/a	n/a	n/a	"fixation"	n/a	n/a	n/a	n/a	"NULL"	n/a	"NULL"	"NULL"	"NULL"	"<p style=\"color: black; font-size: 80px; padding-left: 16%; padding-right: 4%; padding-top: 11%; padding-bottom: 48%\">+</p>"	"1334"	n/a	n/a	n/a	n/a	n/a	n/a	n/a	n/a	n/a
n/a	"image-keyboard-response"	"62"	"190185"	"0.0-5.0-2.0-1.4"	"a9smvc"	"600"	"1024"	"chrome"	"111.0.0"	"FALSE"	"Windows 10"	"60.68"	"057"	n/a	n/a	n/a	n/a	n/a	n/a	"Trial"	n/a	n/a	n/a	"482"	"arrowdown"	n/a	"NULL"	"NULL"	"NULL"	"stimuli/MullerLyer_-2.3000_-0.3500.png"	n/a	"MullerLyer"	"arrowdown"	"1336"	"TRUE"	"MullerLyer"	"-2.300000000"	"-0.350000000"	"1"	"23"
n/a	"html-keyboard-response"	"63"	"191326"	"0.0-5.0-2.0-0.5"	"a9smvc"	"600"	"1024"	"chrome"	"111.0.0"	"FALSE"	"Windows 10"	"60.68"	"057"	n/a	n/a	n/a	n/a	n/a	n/a	"fixation"	n/a	n/a	n/a	n/a	"NULL"	n/a	"NULL"	"NULL"	"NULL"	"<p style=\"color: black; font-size: 80px; padding-left: 12%; padding-right: 10%; padding-top: 17%; padding-bottom: 46%\">+</p>"	"1134"	n/a	n/a	n/a	n/a	n/a	n/a	n/a	n/a	n/a
n/a	"image-keyboard-response"	"64"	"191825"	"0.0-5.0-2.0-1.5"	"a9smvc"	"600"	"1024"	"chrome"	"111.0.0"	"FALSE"	"Windows 10"	"60.68"	"057"	n/a	n/a	n/a	n/a	n/a	n/a	"Trial"	n/a	n/a	n/a	"498"	"arrowup"	n/a	"NULL"	"NULL"	"NULL"	"stimuli/MullerLyer_-20.04286_0.07627.png"	n/a	"MullerLyer"	"arrowup"	"1141"	"TRUE"	"MullerLyer"	"-20.04286000"	"0.0762700000"	"1"	"24"
n/a	"html-keyboard-response"	"65"	"193029"	"0.0-5.0-2.0-0.6"	"a9smvc"	"600"	"1024"	"chrome"	"111.0.0"	"FALSE"	"Windows 10"	"60.68"	"057"	n/a	n/a	n/a	n/a	n/a	n/a	"fixation"	n/a	n/a	n/a	n/a	"NULL"	n/a	"NULL"	"NULL"	"NULL"	"<p style=\"color: black; font-size: 80px; padding-left: 14%; padding-right: 36%; padding-top: 20%; padding-bottom: 6%\">+</p>"	"1188"	n/a	n/a	n/a	n/a	n/a	n/a	n/a	n/a	n/a
n/a	"image-keyboard-response"	"66"	"193853"	"0.0-5.0-2.0-1.6"	"a9smvc"	"600"	"1024"	"chrome"	"111.0.0"	"FALSE"	"Windows 10"	"60.68"	"057"	n/a	n/a	n/a	n/a	n/a	n/a	"Trial"	n/a	n/a	n/a	"823"	"arrowdown"	n/a	"NULL"	"NULL"	"NULL"	"stimuli/MullerLyer_20.04286_-0.3500.png"	n/a	"MullerLyer"	"arrowdown"	"1204"	"TRUE"	"MullerLyer"	"20.042860000"	"-0.350000000"	"1"	"25"
n/a	"html-keyboard-response"	"67"	"195138"	"0.0-5.0-2.0-0.7"	"a9smvc"	"600"	"1024"	"chrome"	"111.0.0"	"FALSE"	"Windows 10"	"60.68"	"057"	n/a	n/a	n/a	n/a	n/a	n/a	"fixation"	n/a	n/a	n/a	n/a	"NULL"	n/a	"NULL"	"NULL"	"NULL"	"<p style=\"color: black; font-size: 80px; padding-left: 31%; padding-right: 35%; padding-top: 3%; padding-bottom: 50%\">+</p>"	"1280"	n/a	n/a	n/a	n/a	n/a	n/a	n/a	n/a	n/a
n/a	"image-keyboard-response"	"68"	"195711"	"0.0-5.0-2.0-1.7"	"a9smvc"	"600"	"1024"	"chrome"	"111.0.0"	"FALSE"	"Windows 10"	"60.68"	"057"	n/a	n/a	n/a	n/a	n/a	n/a	"Trial"	n/a	n/a	n/a	"572"	"arrowdown"	n/a	"NULL"	"NULL"	"NULL"	"stimuli/MullerLyer_-8.21429_-0.3500.png"	n/a	"MullerLyer"	"arrowdown"	"1285"	"TRUE"	"MullerLyer"	"-8.214290000"	"-0.350000000"	"1"	"26"
n/a	"html-keyboard-response"	"69"	"196896"	"0.0-5.0-2.0-0.8"	"a9smvc"	"600"	"1024"	"chrome"	"111.0.0"	"FALSE"	"Windows 10"	"60.68"	"057"	n/a	n/a	n/a	n/a	n/a	n/a	"fixation"	n/a	n/a	n/a	n/a	"NULL"	n/a	"NULL"	"NULL"	"NULL"	"<p style=\"color: black; font-size: 80px; padding-left: 22%; padding-right: 11%; padding-top: 31%; padding-bottom: 27%\">+</p>"	"1170"	n/a	n/a	n/a	n/a	n/a	n/a	n/a	n/a	n/a
n/a	"image-keyboard-response"	"70"	"197513"	"0.0-5.0-2.0-1.8"	"a9smvc"	"600"	"1024"	"chrome"	"111.0.0"	"FALSE"	"Windows 10"	"60.68"	"057"	n/a	n/a	n/a	n/a	n/a	n/a	"Trial"	n/a	n/a	n/a	"616"	"arrowup"	n/a	"NULL"	"NULL"	"NULL"	"stimuli/MullerLyer_-8.21429_0.35000.png"	n/a	"MullerLyer"	"arrowup"	"1185"	"TRUE"	"MullerLyer"	"-8.214290000"	"0.3500000000"	"1"	"27"
n/a	"html-keyboard-response"	"71"	"198702"	"0.0-5.0-2.0-0.9"	"a9smvc"	"600"	"1024"	"chrome"	"111.0.0"	"FALSE"	"Windows 10"	"60.68"	"057"	n/a	n/a	n/a	n/a	n/a	n/a	"fixation"	n/a	n/a	n/a	n/a	"NULL"	n/a	"NULL"	"NULL"	"NULL"	"<p style=\"color: black; font-size: 80px; padding-left: 33%; padding-right: 2%; padding-top: 1%; padding-bottom: 39%\">+</p>"	"1179"	n/a	n/a	n/a	n/a	n/a	n/a	n/a	n/a	n/a
n/a	"image-keyboard-response"	"72"	"199602"	"0.0-5.0-2.0-1.9"	"a9smvc"	"600"	"1024"	"chrome"	"111.0.0"	"FALSE"	"Windows 10"	"60.68"	"057"	n/a	n/a	n/a	n/a	n/a	n/a	"Trial"	n/a	n/a	n/a	"899"	"arrowup"	n/a	"NULL"	"NULL"	"NULL"	"stimuli/MullerLyer_8.21429_0.23665.png"	n/a	"MullerLyer"	"arrowup"	"1189"	"TRUE"	"MullerLyer"	"8.2142900000"	"0.2366500000"	"1"	"28"
n/a	"html-keyboard-response"	"73"	"200936"	"0.0-5.0-2.0-0.10"	"a9smvc"	"600"	"1024"	"chrome"	"111.0.0"	"FALSE"	"Windows 10"	"60.68"	"057"	n/a	n/a	n/a	n/a	n/a	n/a	"fixation"	n/a	n/a	n/a	n/a	"NULL"	n/a	"NULL"	"NULL"	"NULL"	"<p style=\"color: black; font-size: 80px; padding-left: 22%; padding-right: 19%; padding-top: 34%; padding-bottom: 18%\">+</p>"	"1328"	n/a	n/a	n/a	n/a	n/a	n/a	n/a	n/a	n/a
n/a	"image-keyboard-response"	"74"	"201530"	"0.0-5.0-2.0-1.10"	"a9smvc"	"600"	"1024"	"chrome"	"111.0.0"	"FALSE"	"Windows 10"	"60.68"	"057"	n/a	n/a	n/a	n/a	n/a	n/a	"Trial"	n/a	n/a	n/a	"593"	"arrowup"	n/a	"NULL"	"NULL"	"NULL"	"stimuli/MullerLyer_-14.12857_0.35000.png"	n/a	"MullerLyer"	"arrowup"	"1334"	"TRUE"	"MullerLyer"	"-14.12857000"	"0.3500000000"	"1"	"29"
n/a	"html-keyboard-response"	"75"	"202602"	"0.0-5.0-2.0-0.11"	"a9smvc"	"600"	"1024"	"chrome"	"111.0.0"	"FALSE"	"Windows 10"	"60.68"	"057"	n/a	n/a	n/a	n/a	n/a	n/a	"fixation"	n/a	n/a	n/a	n/a	"NULL"	n/a	"NULL"	"NULL"	"NULL"	"<p style=\"color: black; font-size: 80px; padding-left: 19%; padding-right: 20%; padding-top: 5%; padding-bottom: 41%\">+</p>"	"1069"	n/a	n/a	n/a	n/a	n/a	n/a	n/a	n/a	n/a
n/a	"image-keyboard-response"	"76"	"203463"	"0.0-5.0-2.0-1.11"	"a9smvc"	"600"	"1024"	"chrome"	"111.0.0"	"FALSE"	"Windows 10"	"60.68"	"057"	n/a	n/a	n/a	n/a	n/a	n/a	"Trial"	n/a	n/a	n/a	"860"	"arrowdown"	n/a	"NULL"	"NULL"	"NULL"	"stimuli/MullerLyer_20.04286_-0.07627.png"	n/a	"MullerLyer"	"arrowdown"	"1072"	"TRUE"	"MullerLyer"	"20.042860000"	"-0.076270000"	"1"	"30"
n/a	"html-keyboard-response"	"77"	"204500"	"0.0-5.0-2.0-0.12"	"a9smvc"	"600"	"1024"	"chrome"	"111.0.0"	"FALSE"	"Windows 10"	"60.68"	"057"	n/a	n/a	n/a	n/a	n/a	n/a	"fixation"	n/a	n/a	n/a	n/a	"NULL"	n/a	"NULL"	"NULL"	"NULL"	"<p style=\"color: black; font-size: 80px; padding-left: 19%; padding-right: 5%; padding-top: 42%; padding-bottom: 1%\">+</p>"	"1033"	n/a	n/a	n/a	n/a	n/a	n/a	n/a	n/a	n/a
n/a	"image-keyboard-response"	"78"	"205195"	"0.0-5.0-2.0-1.12"	"a9smvc"	"600"	"1024"	"chrome"	"111.0.0"	"FALSE"	"Windows 10"	"60.68"	"057"	n/a	n/a	n/a	n/a	n/a	n/a	"Trial"	n/a	n/a	n/a	"694"	"arrowdown"	n/a	"NULL"	"NULL"	"NULL"	"stimuli/MullerLyer_-2.3000_-0.23665.png"	n/a	"MullerLyer"	"arrowdown"	"1037"	"TRUE"	"MullerLyer"	"-2.300000000"	"-0.236650000"	"1"	"31"
n/a	"html-keyboard-response"	"79"	"206348"	"0.0-5.0-2.0-0.13"	"a9smvc"	"600"	"1024"	"chrome"	"111.0.0"	"FALSE"	"Windows 10"	"60.68"	"057"	n/a	n/a	n/a	n/a	n/a	n/a	"fixation"	n/a	n/a	n/a	n/a	"NULL"	n/a	"NULL"	"NULL"	"NULL"	"<p style=\"color: black; font-size: 80px; padding-left: 25%; padding-right: 35%; padding-top: 3%; padding-bottom: 31%\">+</p>"	"1138"	n/a	n/a	n/a	n/a	n/a	n/a	n/a	n/a	n/a
n/a	"image-keyboard-response"	"80"	"207499"	"0.0-5.0-2.0-1.13"	"a9smvc"	"600"	"1024"	"chrome"	"111.0.0"	"FALSE"	"Windows 10"	"60.68"	"057"	n/a	n/a	n/a	n/a	n/a	n/a	"Trial"	n/a	n/a	n/a	"1147"	"arrowdown"	n/a	"NULL"	"NULL"	"NULL"	"stimuli/MullerLyer_8.21429_-0.14541.png"	n/a	"MullerLyer"	"arrowdown"	"1153"	"TRUE"	"MullerLyer"	"8.2142900000"	"-0.145410000"	"1"	"32"
n/a	"html-keyboard-response"	"81"	"208546"	"0.0-5.0-2.0-0.14"	"a9smvc"	"600"	"1024"	"chrome"	"111.0.0"	"FALSE"	"Windows 10"	"60.68"	"057"	n/a	n/a	n/a	n/a	n/a	n/a	"fixation"	n/a	n/a	n/a	n/a	"NULL"	n/a	"NULL"	"NULL"	"NULL"	"<p style=\"color: black; font-size: 80px; padding-left: 1%; padding-right: 31%; padding-top: 34%; padding-bottom: 26%\">+</p>"	"1046"	n/a	n/a	n/a	n/a	n/a	n/a	n/a	n/a	n/a
n/a	"image-keyboard-response"	"82"	"209332"	"0.0-5.0-2.0-1.14"	"a9smvc"	"600"	"1024"	"chrome"	"111.0.0"	"FALSE"	"Windows 10"	"60.68"	"057"	n/a	n/a	n/a	n/a	n/a	n/a	"Trial"	n/a	n/a	n/a	"785"	"arrowdown"	n/a	"NULL"	"NULL"	"NULL"	"stimuli/MullerLyer_14.12857_-0.3500.png"	n/a	"MullerLyer"	"arrowdown"	"1047"	"TRUE"	"MullerLyer"	"14.128570000"	"-0.350000000"	"1"	"33"
n/a	"html-keyboard-response"	"83"	"210458"	"0.0-5.0-2.0-0.15"	"a9smvc"	"600"	"1024"	"chrome"	"111.0.0"	"FALSE"	"Windows 10"	"60.68"	"057"	n/a	n/a	n/a	n/a	n/a	n/a	"fixation"	n/a	n/a	n/a	n/a	"NULL"	n/a	"NULL"	"NULL"	"NULL"	"<p style=\"color: black; font-size: 80px; padding-left: 47%; padding-right: 43%; padding-top: 31%; padding-bottom: 30%\">+</p>"	"1111"	n/a	n/a	n/a	n/a	n/a	n/a	n/a	n/a	n/a
n/a	"image-keyboard-response"	"84"	"211150"	"0.0-5.0-2.0-1.15"	"a9smvc"	"600"	"1024"	"chrome"	"111.0.0"	"FALSE"	"Windows 10"	"60.68"	"057"	n/a	n/a	n/a	n/a	n/a	n/a	"Trial"	n/a	n/a	n/a	"691"	"arrowdown"	n/a	"NULL"	"NULL"	"NULL"	"stimuli/MullerLyer_-14.12857_-0.23665.png"	n/a	"MullerLyer"	"arrowdown"	"1126"	"TRUE"	"MullerLyer"	"-14.12857000"	"-0.236650000"	"1"	"34"
n/a	"html-keyboard-response"	"85"	"212471"	"0.0-5.0-2.0-0.16"	"a9smvc"	"600"	"1024"	"chrome"	"111.0.0"	"FALSE"	"Windows 10"	"60.68"	"057"	n/a	n/a	n/a	n/a	n/a	n/a	"fixation"	n/a	n/a	n/a	n/a	"NULL"	n/a	"NULL"	"NULL"	"NULL"	"<p style=\"color: black; font-size: 80px; padding-left: 24%; padding-right: 42%; padding-top: 14%; padding-bottom: 17%\">+</p>"	"1313"	n/a	n/a	n/a	n/a	n/a	n/a	n/a	n/a	n/a
n/a	"image-keyboard-response"	"86"	"213332"	"0.0-5.0-2.0-1.16"	"a9smvc"	"600"	"1024"	"chrome"	"111.0.0"	"FALSE"	"Windows 10"	"60.68"	"057"	n/a	n/a	n/a	n/a	n/a	n/a	"Trial"	n/a	n/a	n/a	"860"	"arrowdown"	n/a	"NULL"	"NULL"	"NULL"	"stimuli/MullerLyer_14.12857_0.07627.png"	n/a	"MullerLyer"	"arrowup"	"1321"	"FALSE"	"MullerLyer"	"14.128570000"	"0.0762700000"	"1"	"35"
n/a	"html-keyboard-response"	"87"	"214452"	"0.0-5.0-2.0-0.17"	"a9smvc"	"600"	"1024"	"chrome"	"111.0.0"	"FALSE"	"Windows 10"	"60.68"	"057"	n/a	n/a	n/a	n/a	n/a	n/a	"fixation"	n/a	n/a	n/a	n/a	"NULL"	n/a	"NULL"	"NULL"	"NULL"	"<p style=\"color: black; font-size: 80px; padding-left: 21%; padding-right: 26%; padding-top: 40%; padding-bottom: 28%\">+</p>"	"1107"	n/a	n/a	n/a	n/a	n/a	n/a	n/a	n/a	n/a
n/a	"image-keyboard-response"	"88"	"215065"	"0.0-5.0-2.0-1.17"	"a9smvc"	"600"	"1024"	"chrome"	"111.0.0"	"FALSE"	"Windows 10"	"60.68"	"057"	n/a	n/a	n/a	n/a	n/a	n/a	"Trial"	n/a	n/a	n/a	"612"	"arrowup"	n/a	"NULL"	"NULL"	"NULL"	"stimuli/MullerLyer_2.30000_0.35000.png"	n/a	"MullerLyer"	"arrowup"	"1120"	"TRUE"	"MullerLyer"	"2.3000000000"	"0.3500000000"	"1"	"36"
n/a	"html-keyboard-response"	"89"	"216093"	"0.0-5.0-2.0-0.18"	"a9smvc"	"600"	"1024"	"chrome"	"111.0.0"	"FALSE"	"Windows 10"	"60.68"	"057"	n/a	n/a	n/a	n/a	n/a	n/a	"fixation"	n/a	n/a	n/a	n/a	"NULL"	n/a	"NULL"	"NULL"	"NULL"	"<p style=\"color: black; font-size: 80px; padding-left: 39%; padding-right: 36%; padding-top: 37%; padding-bottom: 1%\">+</p>"	"1020"	n/a	n/a	n/a	n/a	n/a	n/a	n/a	n/a	n/a
n/a	"image-keyboard-response"	"90"	"216692"	"0.0-5.0-2.0-1.18"	"a9smvc"	"600"	"1024"	"chrome"	"111.0.0"	"FALSE"	"Windows 10"	"60.68"	"057"	n/a	n/a	n/a	n/a	n/a	n/a	"Trial"	n/a	n/a	n/a	"599"	"arrowdown"	n/a	"NULL"	"NULL"	"NULL"	"stimuli/MullerLyer_-8.21429_-0.23665.png"	n/a	"MullerLyer"	"arrowdown"	"1028"	"TRUE"	"MullerLyer"	"-8.214290000"	"-0.236650000"	"1"	"37"
n/a	"html-keyboard-response"	"91"	"217959"	"0.0-5.0-2.0-0.19"	"a9smvc"	"600"	"1024"	"chrome"	"111.0.0"	"FALSE"	"Windows 10"	"60.68"	"057"	n/a	n/a	n/a	n/a	n/a	n/a	"fixation"	n/a	n/a	n/a	n/a	"NULL"	n/a	"NULL"	"NULL"	"NULL"	"<p style=\"color: black; font-size: 80px; padding-left: 35%; padding-right: 15%; padding-top: 17%; padding-bottom: 34%\">+</p>"	"1250"	n/a	n/a	n/a	n/a	n/a	n/a	n/a	n/a	n/a
n/a	"image-keyboard-response"	"92"	"218517"	"0.0-5.0-2.0-1.19"	"a9smvc"	"600"	"1024"	"chrome"	"111.0.0"	"FALSE"	"Windows 10"	"60.68"	"057"	n/a	n/a	n/a	n/a	n/a	n/a	"Trial"	n/a	n/a	n/a	"558"	"arrowup"	n/a	"NULL"	"NULL"	"NULL"	"stimuli/MullerLyer_-20.04286_0.35000.png"	n/a	"MullerLyer"	"arrowup"	"1267"	"TRUE"	"MullerLyer"	"-20.04286000"	"0.3500000000"	"1"	"38"
n/a	"html-keyboard-response"	"93"	"219826"	"0.0-5.0-2.0-0.20"	"a9smvc"	"600"	"1024"	"chrome"	"111.0.0"	"FALSE"	"Windows 10"	"60.68"	"057"	n/a	n/a	n/a	n/a	n/a	n/a	"fixation"	n/a	n/a	n/a	n/a	"NULL"	n/a	"NULL"	"NULL"	"NULL"	"<p style=\"color: black; font-size: 80px; padding-left: 20%; padding-right: 49%; padding-top: 15%; padding-bottom: 3%\">+</p>"	"1303"	n/a	n/a	n/a	n/a	n/a	n/a	n/a	n/a	n/a
n/a	"image-keyboard-response"	"94"	"220351"	"0.0-5.0-2.0-1.20"	"a9smvc"	"600"	"1024"	"chrome"	"111.0.0"	"FALSE"	"Windows 10"	"60.68"	"057"	n/a	n/a	n/a	n/a	n/a	n/a	"Trial"	n/a	n/a	n/a	"525"	"arrowdown"	n/a	"NULL"	"NULL"	"NULL"	"stimuli/MullerLyer_-20.04286_-0.07627.png"	n/a	"MullerLyer"	"arrowdown"	"1309"	"TRUE"	"MullerLyer"	"-20.04286000"	"-0.076270000"	"1"	"39"
n/a	"html-keyboard-response"	"95"	"221483"	"0.0-5.0-2.0-0.21"	"a9smvc"	"600"	"1024"	"chrome"	"111.0.0"	"FALSE"	"Windows 10"	"60.68"	"057"	n/a	n/a	n/a	n/a	n/a	n/a	"fixation"	n/a	n/a	n/a	n/a	"NULL"	n/a	"NULL"	"NULL"	"NULL"	"<p style=\"color: black; font-size: 80px; padding-left: 3%; padding-right: 21%; padding-top: 47%; padding-bottom: 33%\">+</p>"	"1124"	n/a	n/a	n/a	n/a	n/a	n/a	n/a	n/a	n/a
n/a	"image-keyboard-response"	"96"	"222421"	"0.0-5.0-2.0-1.21"	"a9smvc"	"600"	"1024"	"chrome"	"111.0.0"	"FALSE"	"Windows 10"	"60.68"	"057"	n/a	n/a	n/a	n/a	n/a	n/a	"Trial"	n/a	n/a	n/a	"937"	"arrowdown"	n/a	"NULL"	"NULL"	"NULL"	"stimuli/MullerLyer_20.04286_0.23665.png"	n/a	"MullerLyer"	"arrowup"	"1132"	"FALSE"	"MullerLyer"	"20.042860000"	"0.2366500000"	"1"	"40"
n/a	"html-keyboard-response"	"97"	"223455"	"0.0-5.0-2.0-0.22"	"a9smvc"	"600"	"1024"	"chrome"	"111.0.0"	"FALSE"	"Windows 10"	"60.68"	"057"	n/a	n/a	n/a	n/a	n/a	n/a	"fixation"	n/a	n/a	n/a	n/a	"NULL"	n/a	"NULL"	"NULL"	"NULL"	"<p style=\"color: black; font-size: 80px; padding-left: 46%; padding-right: 40%; padding-top: 5%; padding-bottom: 18%\">+</p>"	"1027"	n/a	n/a	n/a	n/a	n/a	n/a	n/a	n/a	n/a
n/a	"image-keyboard-response"	"98"	"224210"	"0.0-5.0-2.0-1.22"	"a9smvc"	"600"	"1024"	"chrome"	"111.0.0"	"FALSE"	"Windows 10"	"60.68"	"057"	n/a	n/a	n/a	n/a	n/a	n/a	"Trial"	n/a	n/a	n/a	"755"	"arrowdown"	n/a	"NULL"	"NULL"	"NULL"	"stimuli/MullerLyer_2.30000_-0.23665.png"	n/a	"MullerLyer"	"arrowdown"	"1034"	"TRUE"	"MullerLyer"	"2.3000000000"	"-0.236650000"	"1"	"41"
n/a	"html-keyboard-response"	"99"	"225637"	"0.0-5.0-2.0-0.23"	"a9smvc"	"600"	"1024"	"chrome"	"111.0.0"	"FALSE"	"Windows 10"	"60.68"	"057"	n/a	n/a	n/a	n/a	n/a	n/a	"fixation"	n/a	n/a	n/a	n/a	"NULL"	n/a	"NULL"	"NULL"	"NULL"	"<p style=\"color: black; font-size: 80px; padding-left: 5%; padding-right: 37%; padding-top: 17%; padding-bottom: 14%\">+</p>"	"1418"	n/a	n/a	n/a	n/a	n/a	n/a	n/a	n/a	n/a
n/a	"image-keyboard-response"	"100"	"226976"	"0.0-5.0-2.0-1.23"	"a9smvc"	"600"	"1024"	"chrome"	"111.0.0"	"FALSE"	"Windows 10"	"60.68"	"057"	n/a	n/a	n/a	n/a	n/a	n/a	"Trial"	n/a	n/a	n/a	"1338"	"arrowup"	n/a	"NULL"	"NULL"	"NULL"	"stimuli/MullerLyer_2.30000_0.14541.png"	n/a	"MullerLyer"	"arrowup"	"1427"	"TRUE"	"MullerLyer"	"2.3000000000"	"0.1454100000"	"1"	"42"
n/a	"html-keyboard-response"	"101"	"228243"	"0.0-5.0-2.0-0.24"	"a9smvc"	"600"	"1024"	"chrome"	"111.0.0"	"FALSE"	"Windows 10"	"60.68"	"057"	n/a	n/a	n/a	n/a	n/a	n/a	"fixation"	n/a	n/a	n/a	n/a	"NULL"	n/a	"NULL"	"NULL"	"NULL"	"<p style=\"color: black; font-size: 80px; padding-left: 8%; padding-right: 18%; padding-top: 40%; padding-bottom: 46%\">+</p>"	"1258"	n/a	n/a	n/a	n/a	n/a	n/a	n/a	n/a	n/a
n/a	"image-keyboard-response"	"102"	"229059"	"0.0-5.0-2.0-1.24"	"a9smvc"	"600"	"1024"	"chrome"	"111.0.0"	"FALSE"	"Windows 10"	"60.68"	"057"	n/a	n/a	n/a	n/a	n/a	n/a	"Trial"	n/a	n/a	n/a	"815"	"arrowdown"	n/a	"NULL"	"NULL"	"NULL"	"stimuli/MullerLyer_-14.12857_-0.07627.png"	n/a	"MullerLyer"	"arrowdown"	"1267"	"TRUE"	"MullerLyer"	"-14.12857000"	"-0.076270000"	"1"	"43"
n/a	"html-keyboard-response"	"103"	"230187"	"0.0-5.0-2.0-0.25"	"a9smvc"	"600"	"1024"	"chrome"	"111.0.0"	"FALSE"	"Windows 10"	"60.68"	"057"	n/a	n/a	n/a	n/a	n/a	n/a	"fixation"	n/a	n/a	n/a	n/a	"NULL"	n/a	"NULL"	"NULL"	"NULL"	"<p style=\"color: black; font-size: 80px; padding-left: 41%; padding-right: 27%; padding-top: 23%; padding-bottom: 32%\">+</p>"	"1125"	n/a	n/a	n/a	n/a	n/a	n/a	n/a	n/a	n/a
n/a	"image-keyboard-response"	"104"	"231814"	"0.0-5.0-2.0-1.25"	"a9smvc"	"600"	"1024"	"chrome"	"111.0.0"	"FALSE"	"Windows 10"	"60.68"	"057"	n/a	n/a	n/a	n/a	n/a	n/a	"Trial"	n/a	n/a	n/a	"1627"	"arrowup"	n/a	"NULL"	"NULL"	"NULL"	"stimuli/MullerLyer_14.12857_0.23665.png"	n/a	"MullerLyer"	"arrowup"	"1128"	"TRUE"	"MullerLyer"	"14.128570000"	"0.2366500000"	"1"	"44"
n/a	"html-keyboard-response"	"105"	"232937"	"0.0-5.0-2.0-0.26"	"a9smvc"	"600"	"1024"	"chrome"	"111.0.0"	"FALSE"	"Windows 10"	"60.68"	"057"	n/a	n/a	n/a	n/a	n/a	n/a	"fixation"	n/a	n/a	n/a	n/a	"NULL"	n/a	"NULL"	"NULL"	"NULL"	"<p style=\"color: black; font-size: 80px; padding-left: 13%; padding-right: 45%; padding-top: 19%; padding-bottom: 46%\">+</p>"	"1107"	n/a	n/a	n/a	n/a	n/a	n/a	n/a	n/a	n/a
n/a	"image-keyboard-response"	"106"	"233556"	"0.0-5.0-2.0-1.26"	"a9smvc"	"600"	"1024"	"chrome"	"111.0.0"	"FALSE"	"Windows 10"	"60.68"	"057"	n/a	n/a	n/a	n/a	n/a	n/a	"Trial"	n/a	n/a	n/a	"618"	"arrowdown"	n/a	"NULL"	"NULL"	"NULL"	"stimuli/MullerLyer_-20.04286_-0.14541.png"	n/a	"MullerLyer"	"arrowdown"	"1123"	"TRUE"	"MullerLyer"	"-20.04286000"	"-0.145410000"	"1"	"45"
n/a	"html-keyboard-response"	"107"	"234707"	"0.0-5.0-2.0-0.27"	"a9smvc"	"600"	"1024"	"chrome"	"111.0.0"	"FALSE"	"Windows 10"	"60.68"	"057"	n/a	n/a	n/a	n/a	n/a	n/a	"fixation"	n/a	n/a	n/a	n/a	"NULL"	n/a	"NULL"	"NULL"	"NULL"	"<p style=\"color: black; font-size: 80px; padding-left: 33%; padding-right: 2%; padding-top: 32%; padding-bottom: 31%\">+</p>"	"1141"	n/a	n/a	n/a	n/a	n/a	n/a	n/a	n/a	n/a
n/a	"image-keyboard-response"	"108"	"235747"	"0.0-5.0-2.0-1.27"	"a9smvc"	"600"	"1024"	"chrome"	"111.0.0"	"FALSE"	"Windows 10"	"60.68"	"057"	n/a	n/a	n/a	n/a	n/a	n/a	"Trial"	n/a	n/a	n/a	"1036"	"arrowdown"	n/a	"NULL"	"NULL"	"NULL"	"stimuli/MullerLyer_20.04286_0.14541.png"	n/a	"MullerLyer"	"arrowup"	"1151"	"FALSE"	"MullerLyer"	"20.042860000"	"0.1454100000"	"1"	"46"
n/a	"html-keyboard-response"	"109"	"237059"	"0.0-5.0-2.0-0.28"	"a9smvc"	"600"	"1024"	"chrome"	"111.0.0"	"FALSE"	"Windows 10"	"60.68"	"057"	n/a	n/a	n/a	n/a	n/a	n/a	"fixation"	n/a	n/a	n/a	n/a	"NULL"	n/a	"NULL"	"NULL"	"NULL"	"<p style=\"color: black; font-size: 80px; padding-left: 42%; padding-right: 11%; padding-top: 12%; padding-bottom: 0%\">+</p>"	"1311"	n/a	n/a	n/a	n/a	n/a	n/a	n/a	n/a	n/a
n/a	"image-keyboard-response"	"110"	"238338"	"0.0-5.0-2.0-1.28"	"a9smvc"	"600"	"1024"	"chrome"	"111.0.0"	"FALSE"	"Windows 10"	"60.68"	"057"	n/a	n/a	n/a	n/a	n/a	n/a	"Trial"	n/a	n/a	n/a	"1279"	"arrowup"	n/a	"NULL"	"NULL"	"NULL"	"stimuli/MullerLyer_-14.12857_0.14541.png"	n/a	"MullerLyer"	"arrowup"	"1312"	"TRUE"	"MullerLyer"	"-14.12857000"	"0.1454100000"	"1"	"47"
n/a	"html-keyboard-response"	"111"	"239686"	"0.0-5.0-2.0-0.29"	"a9smvc"	"600"	"1024"	"chrome"	"111.0.0"	"FALSE"	"Windows 10"	"60.68"	"057"	n/a	n/a	n/a	n/a	n/a	n/a	"fixation"	n/a	n/a	n/a	n/a	"NULL"	n/a	"NULL"	"NULL"	"NULL"	"<p style=\"color: black; font-size: 80px; padding-left: 18%; padding-right: 37%; padding-top: 36%; padding-bottom: 49%\">+</p>"	"1342"	n/a	n/a	n/a	n/a	n/a	n/a	n/a	n/a	n/a
n/a	"image-keyboard-response"	"112"	"240863"	"0.0-5.0-2.0-1.29"	"a9smvc"	"600"	"1024"	"chrome"	"111.0.0"	"FALSE"	"Windows 10"	"60.68"	"057"	n/a	n/a	n/a	n/a	n/a	n/a	"Trial"	n/a	n/a	n/a	"1176"	"arrowup"	n/a	"NULL"	"NULL"	"NULL"	"stimuli/MullerLyer_8.21429_0.35000.png"	n/a	"MullerLyer"	"arrowup"	"1348"	"TRUE"	"MullerLyer"	"8.2142900000"	"0.3500000000"	"1"	"48"
n/a	"html-keyboard-response"	"113"	"241919"	"0.0-5.0-2.0-0.30"	"a9smvc"	"600"	"1024"	"chrome"	"111.0.0"	"FALSE"	"Windows 10"	"60.68"	"057"	n/a	n/a	n/a	n/a	n/a	n/a	"fixation"	n/a	n/a	n/a	n/a	"NULL"	n/a	"NULL"	"NULL"	"NULL"	"<p style=\"color: black; font-size: 80px; padding-left: 45%; padding-right: 35%; padding-top: 33%; padding-bottom: 0%\">+</p>"	"1053"	n/a	n/a	n/a	n/a	n/a	n/a	n/a	n/a	n/a
n/a	"image-keyboard-response"	"114"	"242437"	"0.0-5.0-2.0-1.30"	"a9smvc"	"600"	"1024"	"chrome"	"111.0.0"	"FALSE"	"Windows 10"	"60.68"	"057"	n/a	n/a	n/a	n/a	n/a	n/a	"Trial"	n/a	n/a	n/a	"518"	"arrowdown"	n/a	"NULL"	"NULL"	"NULL"	"stimuli/MullerLyer_-8.21429_-0.07627.png"	n/a	"MullerLyer"	"arrowdown"	"1056"	"TRUE"	"MullerLyer"	"-8.214290000"	"-0.076270000"	"1"	"49"
n/a	"html-keyboard-response"	"115"	"243544"	"0.0-5.0-2.0-0.31"	"a9smvc"	"600"	"1024"	"chrome"	"111.0.0"	"FALSE"	"Windows 10"	"60.68"	"057"	n/a	n/a	n/a	n/a	n/a	n/a	"fixation"	n/a	n/a	n/a	n/a	"NULL"	n/a	"NULL"	"NULL"	"NULL"	"<p style=\"color: black; font-size: 80px; padding-left: 46%; padding-right: 20%; padding-top: 33%; padding-bottom: 37%\">+</p>"	"1100"	n/a	n/a	n/a	n/a	n/a	n/a	n/a	n/a	n/a
n/a	"image-keyboard-response"	"116"	"245136"	"0.0-5.0-2.0-1.31"	"a9smvc"	"600"	"1024"	"chrome"	"111.0.0"	"FALSE"	"Windows 10"	"60.68"	"057"	n/a	n/a	n/a	n/a	n/a	n/a	"Trial"	n/a	n/a	n/a	"1591"	"arrowup"	n/a	"NULL"	"NULL"	"NULL"	"stimuli/MullerLyer_-2.3000_0.07627.png"	n/a	"MullerLyer"	"arrowup"	"1107"	"TRUE"	"MullerLyer"	"-2.300000000"	"0.0762700000"	"1"	"50"
n/a	"html-keyboard-response"	"117"	"246520"	"0.0-5.0-2.0-0.32"	"a9smvc"	"600"	"1024"	"chrome"	"111.0.0"	"FALSE"	"Windows 10"	"60.68"	"057"	n/a	n/a	n/a	n/a	n/a	n/a	"fixation"	n/a	n/a	n/a	n/a	"NULL"	n/a	"NULL"	"NULL"	"NULL"	"<p style=\"color: black; font-size: 80px; padding-left: 4%; padding-right: 48%; padding-top: 45%; padding-bottom: 22%\">+</p>"	"1382"	n/a	n/a	n/a	n/a	n/a	n/a	n/a	n/a	n/a
n/a	"image-keyboard-response"	"118"	"247078"	"0.0-5.0-2.0-1.32"	"a9smvc"	"600"	"1024"	"chrome"	"111.0.0"	"FALSE"	"Windows 10"	"60.68"	"057"	n/a	n/a	n/a	n/a	n/a	n/a	"Trial"	n/a	n/a	n/a	"558"	"arrowdown"	n/a	"NULL"	"NULL"	"NULL"	"stimuli/MullerLyer_20.04286_0.07627.png"	n/a	"MullerLyer"	"arrowup"	"1384"	"FALSE"	"MullerLyer"	"20.042860000"	"0.0762700000"	"1"	"51"
n/a	"html-keyboard-response"	"119"	"248193"	"0.0-5.0-2.0-0.33"	"a9smvc"	"600"	"1024"	"chrome"	"111.0.0"	"FALSE"	"Windows 10"	"60.68"	"057"	n/a	n/a	n/a	n/a	n/a	n/a	"fixation"	n/a	n/a	n/a	n/a	"NULL"	n/a	"NULL"	"NULL"	"NULL"	"<p style=\"color: black; font-size: 80px; padding-left: 31%; padding-right: 15%; padding-top: 4%; padding-bottom: 20%\">+</p>"	"1099"	n/a	n/a	n/a	n/a	n/a	n/a	n/a	n/a	n/a
n/a	"image-keyboard-response"	"120"	"248981"	"0.0-5.0-2.0-1.33"	"a9smvc"	"600"	"1024"	"chrome"	"111.0.0"	"FALSE"	"Windows 10"	"60.68"	"057"	n/a	n/a	n/a	n/a	n/a	n/a	"Trial"	n/a	n/a	n/a	"787"	"arrowdown"	n/a	"NULL"	"NULL"	"NULL"	"stimuli/MullerLyer_20.04286_-0.23665.png"	n/a	"MullerLyer"	"arrowdown"	"1115"	"TRUE"	"MullerLyer"	"20.042860000"	"-0.236650000"	"1"	"52"
n/a	"html-keyboard-response"	"121"	"250029"	"0.0-5.0-2.0-0.34"	"a9smvc"	"600"	"1024"	"chrome"	"111.0.0"	"FALSE"	"Windows 10"	"60.68"	"057"	n/a	n/a	n/a	n/a	n/a	n/a	"fixation"	n/a	n/a	n/a	n/a	"NULL"	n/a	"NULL"	"NULL"	"NULL"	"<p style=\"color: black; font-size: 80px; padding-left: 1%; padding-right: 16%; padding-top: 11%; padding-bottom: 45%\">+</p>"	"1029"	n/a	n/a	n/a	n/a	n/a	n/a	n/a	n/a	n/a
n/a	"image-keyboard-response"	"122"	"250584"	"0.0-5.0-2.0-1.34"	"a9smvc"	"600"	"1024"	"chrome"	"111.0.0"	"FALSE"	"Windows 10"	"60.68"	"057"	n/a	n/a	n/a	n/a	n/a	n/a	"Trial"	n/a	n/a	n/a	"555"	"arrowup"	n/a	"NULL"	"NULL"	"NULL"	"stimuli/MullerLyer_-14.12857_0.23665.png"	n/a	"MullerLyer"	"arrowup"	"1048"	"TRUE"	"MullerLyer"	"-14.12857000"	"0.2366500000"	"1"	"53"
n/a	"html-keyboard-response"	"123"	"251925"	"0.0-5.0-2.0-0.35"	"a9smvc"	"600"	"1024"	"chrome"	"111.0.0"	"FALSE"	"Windows 10"	"60.68"	"057"	n/a	n/a	n/a	n/a	n/a	n/a	"fixation"	n/a	n/a	n/a	n/a	"NULL"	n/a	"NULL"	"NULL"	"NULL"	"<p style=\"color: black; font-size: 80px; padding-left: 44%; padding-right: 6%; padding-top: 41%; padding-bottom: 28%\">+</p>"	"1330"	n/a	n/a	n/a	n/a	n/a	n/a	n/a	n/a	n/a
n/a	"image-keyboard-response"	"124"	"252894"	"0.0-5.0-2.0-1.35"	"a9smvc"	"600"	"1024"	"chrome"	"111.0.0"	"FALSE"	"Windows 10"	"60.68"	"057"	n/a	n/a	n/a	n/a	n/a	n/a	"Trial"	n/a	n/a	n/a	"968"	"arrowup"	n/a	"NULL"	"NULL"	"NULL"	"stimuli/MullerLyer_-8.21429_0.14541.png"	n/a	"MullerLyer"	"arrowup"	"1341"	"TRUE"	"MullerLyer"	"-8.214290000"	"0.1454100000"	"1"	"54"
n/a	"html-keyboard-response"	"125"	"254091"	"0.0-5.0-2.0-0.36"	"a9smvc"	"600"	"1024"	"chrome"	"111.0.0"	"FALSE"	"Windows 10"	"60.68"	"057"	n/a	n/a	n/a	n/a	n/a	n/a	"fixation"	n/a	n/a	n/a	n/a	"NULL"	n/a	"NULL"	"NULL"	"NULL"	"<p style=\"color: black; font-size: 80px; padding-left: 32%; padding-right: 17%; padding-top: 48%; padding-bottom: 35%\">+</p>"	"1190"	n/a	n/a	n/a	n/a	n/a	n/a	n/a	n/a	n/a
n/a	"image-keyboard-response"	"126"	"254999"	"0.0-5.0-2.0-1.36"	"a9smvc"	"600"	"1024"	"chrome"	"111.0.0"	"FALSE"	"Windows 10"	"60.68"	"057"	n/a	n/a	n/a	n/a	n/a	n/a	"Trial"	n/a	n/a	n/a	"906"	"arrowdown"	n/a	"NULL"	"NULL"	"NULL"	"stimuli/MullerLyer_14.12857_-0.14541.png"	n/a	"MullerLyer"	"arrowdown"	"1197"	"TRUE"	"MullerLyer"	"14.128570000"	"-0.145410000"	"1"	"55"
n/a	"html-keyboard-response"	"127"	"256139"	"0.0-5.0-2.0-0.37"	"a9smvc"	"600"	"1024"	"chrome"	"111.0.0"	"FALSE"	"Windows 10"	"60.68"	"057"	n/a	n/a	n/a	n/a	n/a	n/a	"fixation"	n/a	n/a	n/a	n/a	"NULL"	n/a	"NULL"	"NULL"	"NULL"	"<p style=\"color: black; font-size: 80px; padding-left: 34%; padding-right: 32%; padding-top: 4%; padding-bottom: 3%\">+</p>"	"1134"	n/a	n/a	n/a	n/a	n/a	n/a	n/a	n/a	n/a
n/a	"image-keyboard-response"	"128"	"257527"	"0.0-5.0-2.0-1.37"	"a9smvc"	"600"	"1024"	"chrome"	"111.0.0"	"FALSE"	"Windows 10"	"60.68"	"057"	n/a	n/a	n/a	n/a	n/a	n/a	"Trial"	n/a	n/a	n/a	"1388"	"arrowup"	n/a	"NULL"	"NULL"	"NULL"	"stimuli/MullerLyer_-20.04286_0.14541.png"	n/a	"MullerLyer"	"arrowup"	"1140"	"TRUE"	"MullerLyer"	"-20.04286000"	"0.1454100000"	"1"	"56"
n/a	"html-keyboard-response"	"129"	"258672"	"0.0-5.0-2.0-0.38"	"a9smvc"	"600"	"1024"	"chrome"	"111.0.0"	"FALSE"	"Windows 10"	"60.68"	"057"	n/a	n/a	n/a	n/a	n/a	n/a	"fixation"	n/a	n/a	n/a	n/a	"NULL"	n/a	"NULL"	"NULL"	"NULL"	"<p style=\"color: black; font-size: 80px; padding-left: 26%; padding-right: 0%; padding-top: 42%; padding-bottom: 26%\">+</p>"	"1132"	n/a	n/a	n/a	n/a	n/a	n/a	n/a	n/a	n/a
n/a	"image-keyboard-response"	"130"	"259317"	"0.0-5.0-2.0-1.38"	"a9smvc"	"600"	"1024"	"chrome"	"111.0.0"	"FALSE"	"Windows 10"	"60.68"	"057"	n/a	n/a	n/a	n/a	n/a	n/a	"Trial"	n/a	n/a	n/a	"644"	"arrowdown"	n/a	"NULL"	"NULL"	"NULL"	"stimuli/MullerLyer_2.30000_-0.14541.png"	n/a	"MullerLyer"	"arrowdown"	"1145"	"TRUE"	"MullerLyer"	"2.3000000000"	"-0.145410000"	"1"	"57"
n/a	"html-keyboard-response"	"131"	"260683"	"0.0-5.0-2.0-0.39"	"a9smvc"	"600"	"1024"	"chrome"	"111.0.0"	"FALSE"	"Windows 10"	"60.68"	"057"	n/a	n/a	n/a	n/a	n/a	n/a	"fixation"	n/a	n/a	n/a	n/a	"NULL"	n/a	"NULL"	"NULL"	"NULL"	"<p style=\"color: black; font-size: 80px; padding-left: 31%; padding-right: 49%; padding-top: 7%; padding-bottom: 39%\">+</p>"	"1362"	n/a	n/a	n/a	n/a	n/a	n/a	n/a	n/a	n/a
n/a	"image-keyboard-response"	"132"	"261317"	"0.0-5.0-2.0-1.39"	"a9smvc"	"600"	"1024"	"chrome"	"111.0.0"	"FALSE"	"Windows 10"	"60.68"	"057"	n/a	n/a	n/a	n/a	n/a	n/a	"Trial"	n/a	n/a	n/a	"633"	"arrowdown"	n/a	"NULL"	"NULL"	"NULL"	"stimuli/MullerLyer_-2.3000_-0.14541.png"	n/a	"MullerLyer"	"arrowdown"	"1366"	"TRUE"	"MullerLyer"	"-2.300000000"	"-0.145410000"	"1"	"58"
n/a	"html-keyboard-response"	"133"	"262457"	"0.0-5.0-2.0-0.40"	"a9smvc"	"600"	"1024"	"chrome"	"111.0.0"	"FALSE"	"Windows 10"	"60.68"	"057"	n/a	n/a	n/a	n/a	n/a	n/a	"fixation"	n/a	n/a	n/a	n/a	"NULL"	n/a	"NULL"	"NULL"	"NULL"	"<p style=\"color: black; font-size: 80px; padding-left: 40%; padding-right: 23%; padding-top: 2%; padding-bottom: 31%\">+</p>"	"1137"	n/a	n/a	n/a	n/a	n/a	n/a	n/a	n/a	n/a
n/a	"image-keyboard-response"	"134"	"263281"	"0.0-5.0-2.0-1.40"	"a9smvc"	"600"	"1024"	"chrome"	"111.0.0"	"FALSE"	"Windows 10"	"60.68"	"057"	n/a	n/a	n/a	n/a	n/a	n/a	"Trial"	n/a	n/a	n/a	"823"	"arrowdown"	n/a	"NULL"	"NULL"	"NULL"	"stimuli/MullerLyer_20.04286_-0.14541.png"	n/a	"MullerLyer"	"arrowdown"	"1140"	"TRUE"	"MullerLyer"	"20.042860000"	"-0.145410000"	"1"	"59"
n/a	"html-keyboard-response"	"135"	"264467"	"0.0-5.0-2.0-0.41"	"a9smvc"	"600"	"1024"	"chrome"	"111.0.0"	"FALSE"	"Windows 10"	"60.68"	"057"	n/a	n/a	n/a	n/a	n/a	n/a	"fixation"	n/a	n/a	n/a	n/a	"NULL"	n/a	"NULL"	"NULL"	"NULL"	"<p style=\"color: black; font-size: 80px; padding-left: 11%; padding-right: 14%; padding-top: 34%; padding-bottom: 13%\">+</p>"	"1179"	n/a	n/a	n/a	n/a	n/a	n/a	n/a	n/a	n/a
n/a	"image-keyboard-response"	"136"	"265072"	"0.0-5.0-2.0-1.41"	"a9smvc"	"600"	"1024"	"chrome"	"111.0.0"	"FALSE"	"Windows 10"	"60.68"	"057"	n/a	n/a	n/a	n/a	n/a	n/a	"Trial"	n/a	n/a	n/a	"604"	"arrowup"	n/a	"NULL"	"NULL"	"NULL"	"stimuli/MullerLyer_-2.3000_0.35000.png"	n/a	"MullerLyer"	"arrowup"	"1186"	"TRUE"	"MullerLyer"	"-2.300000000"	"0.3500000000"	"1"	"60"
n/a	"html-keyboard-response"	"137"	"266326"	"0.0-5.0-2.0-0.42"	"a9smvc"	"600"	"1024"	"chrome"	"111.0.0"	"FALSE"	"Windows 10"	"60.68"	"057"	n/a	n/a	n/a	n/a	n/a	n/a	"fixation"	n/a	n/a	n/a	n/a	"NULL"	n/a	"NULL"	"NULL"	"NULL"	"<p style=\"color: black; font-size: 80px; padding-left: 28%; padding-right: 18%; padding-top: 6%; padding-bottom: 11%\">+</p>"	"1241"	n/a	n/a	n/a	n/a	n/a	n/a	n/a	n/a	n/a
n/a	"image-keyboard-response"	"138"	"266942"	"0.0-5.0-2.0-1.42"	"a9smvc"	"600"	"1024"	"chrome"	"111.0.0"	"FALSE"	"Windows 10"	"60.68"	"057"	n/a	n/a	n/a	n/a	n/a	n/a	"Trial"	n/a	n/a	n/a	"615"	"arrowdown"	n/a	"NULL"	"NULL"	"NULL"	"stimuli/MullerLyer_-14.12857_-0.3500.png"	n/a	"MullerLyer"	"arrowdown"	"1254"	"TRUE"	"MullerLyer"	"-14.12857000"	"-0.350000000"	"1"	"61"
n/a	"html-keyboard-response"	"139"	"268389"	"0.0-5.0-2.0-0.43"	"a9smvc"	"600"	"1024"	"chrome"	"111.0.0"	"FALSE"	"Windows 10"	"60.68"	"057"	n/a	n/a	n/a	n/a	n/a	n/a	"fixation"	n/a	n/a	n/a	n/a	"NULL"	n/a	"NULL"	"NULL"	"NULL"	"<p style=\"color: black; font-size: 80px; padding-left: 10%; padding-right: 5%; padding-top: 3%; padding-bottom: 2%\">+</p>"	"1438"	n/a	n/a	n/a	n/a	n/a	n/a	n/a	n/a	n/a
n/a	"image-keyboard-response"	"140"	"269489"	"0.0-5.0-2.0-1.43"	"a9smvc"	"600"	"1024"	"chrome"	"111.0.0"	"FALSE"	"Windows 10"	"60.68"	"057"	n/a	n/a	n/a	n/a	n/a	n/a	"Trial"	n/a	n/a	n/a	"1099"	"arrowdown"	n/a	"NULL"	"NULL"	"NULL"	"stimuli/MullerLyer_-2.3000_-0.07627.png"	n/a	"MullerLyer"	"arrowdown"	"1447"	"TRUE"	"MullerLyer"	"-2.300000000"	"-0.076270000"	"1"	"62"
n/a	"html-keyboard-response"	"141"	"270502"	"0.0-5.0-2.0-0.44"	"a9smvc"	"600"	"1024"	"chrome"	"111.0.0"	"FALSE"	"Windows 10"	"60.68"	"057"	n/a	n/a	n/a	n/a	n/a	n/a	"fixation"	n/a	n/a	n/a	n/a	"NULL"	n/a	"NULL"	"NULL"	"NULL"	"<p style=\"color: black; font-size: 80px; padding-left: 11%; padding-right: 12%; padding-top: 50%; padding-bottom: 32%\">+</p>"	"1008"	n/a	n/a	n/a	n/a	n/a	n/a	n/a	n/a	n/a
n/a	"image-keyboard-response"	"142"	"271494"	"0.0-5.0-2.0-1.44"	"a9smvc"	"600"	"1024"	"chrome"	"111.0.0"	"FALSE"	"Windows 10"	"60.68"	"057"	n/a	n/a	n/a	n/a	n/a	n/a	"Trial"	n/a	n/a	n/a	"991"	"arrowdown"	n/a	"NULL"	"NULL"	"NULL"	"stimuli/MullerLyer_14.12857_0.14541.png"	n/a	"MullerLyer"	"arrowup"	"1013"	"FALSE"	"MullerLyer"	"14.128570000"	"0.1454100000"	"1"	"63"
n/a	"html-keyboard-response"	"143"	"272890"	"0.0-5.0-2.0-0.45"	"a9smvc"	"600"	"1024"	"chrome"	"111.0.0"	"FALSE"	"Windows 10"	"60.68"	"057"	n/a	n/a	n/a	n/a	n/a	n/a	"fixation"	n/a	n/a	n/a	n/a	"NULL"	n/a	"NULL"	"NULL"	"NULL"	"<p style=\"color: black; font-size: 80px; padding-left: 31%; padding-right: 1%; padding-top: 49%; padding-bottom: 46%\">+</p>"	"1395"	n/a	n/a	n/a	n/a	n/a	n/a	n/a	n/a	n/a
n/a	"image-keyboard-response"	"144"	"273510"	"0.0-5.0-2.0-1.45"	"a9smvc"	"600"	"1024"	"chrome"	"111.0.0"	"FALSE"	"Windows 10"	"60.68"	"057"	n/a	n/a	n/a	n/a	n/a	n/a	"Trial"	n/a	n/a	n/a	"619"	"arrowdown"	n/a	"NULL"	"NULL"	"NULL"	"stimuli/MullerLyer_-14.12857_-0.14541.png"	n/a	"MullerLyer"	"arrowdown"	"1396"	"TRUE"	"MullerLyer"	"-14.12857000"	"-0.145410000"	"1"	"64"
n/a	"html-keyboard-response"	"145"	"274573"	"0.0-5.0-2.0-0.46"	"a9smvc"	"600"	"1024"	"chrome"	"111.0.0"	"FALSE"	"Windows 10"	"60.68"	"057"	n/a	n/a	n/a	n/a	n/a	n/a	"fixation"	n/a	n/a	n/a	n/a	"NULL"	n/a	"NULL"	"NULL"	"NULL"	"<p style=\"color: black; font-size: 80px; padding-left: 50%; padding-right: 36%; padding-top: 6%; padding-bottom: 16%\">+</p>"	"1053"	n/a	n/a	n/a	n/a	n/a	n/a	n/a	n/a	n/a
n/a	"image-keyboard-response"	"146"	"275509"	"0.0-5.0-2.0-1.46"	"a9smvc"	"600"	"1024"	"chrome"	"111.0.0"	"FALSE"	"Windows 10"	"60.68"	"057"	n/a	n/a	n/a	n/a	n/a	n/a	"Trial"	n/a	n/a	n/a	"935"	"arrowup"	n/a	"NULL"	"NULL"	"NULL"	"stimuli/MullerLyer_-20.04286_0.23665.png"	n/a	"MullerLyer"	"arrowup"	"1063"	"TRUE"	"MullerLyer"	"-20.04286000"	"0.2366500000"	"1"	"65"
n/a	"html-keyboard-response"	"147"	"276585"	"0.0-5.0-2.0-0.47"	"a9smvc"	"600"	"1024"	"chrome"	"111.0.0"	"FALSE"	"Windows 10"	"60.68"	"057"	n/a	n/a	n/a	n/a	n/a	n/a	"fixation"	n/a	n/a	n/a	n/a	"NULL"	n/a	"NULL"	"NULL"	"NULL"	"<p style=\"color: black; font-size: 80px; padding-left: 33%; padding-right: 40%; padding-top: 27%; padding-bottom: 36%\">+</p>"	"1061"	n/a	n/a	n/a	n/a	n/a	n/a	n/a	n/a	n/a
n/a	"image-keyboard-response"	"148"	"277529"	"0.0-5.0-2.0-1.47"	"a9smvc"	"600"	"1024"	"chrome"	"111.0.0"	"FALSE"	"Windows 10"	"60.68"	"057"	n/a	n/a	n/a	n/a	n/a	n/a	"Trial"	n/a	n/a	n/a	"943"	"arrowup"	n/a	"NULL"	"NULL"	"NULL"	"stimuli/MullerLyer_-2.3000_0.23665.png"	n/a	"MullerLyer"	"arrowup"	"1076"	"TRUE"	"MullerLyer"	"-2.300000000"	"0.2366500000"	"1"	"66"
n/a	"html-keyboard-response"	"149"	"278717"	"0.0-5.0-2.0-0.48"	"a9smvc"	"600"	"1024"	"chrome"	"111.0.0"	"FALSE"	"Windows 10"	"60.68"	"057"	n/a	n/a	n/a	n/a	n/a	n/a	"fixation"	n/a	n/a	n/a	n/a	"NULL"	n/a	"NULL"	"NULL"	"NULL"	"<p style=\"color: black; font-size: 80px; padding-left: 43%; padding-right: 0%; padding-top: 5%; padding-bottom: 24%\">+</p>"	"1173"	n/a	n/a	n/a	n/a	n/a	n/a	n/a	n/a	n/a
n/a	"image-keyboard-response"	"150"	"279352"	"0.0-5.0-2.0-1.48"	"a9smvc"	"600"	"1024"	"chrome"	"111.0.0"	"FALSE"	"Windows 10"	"60.68"	"057"	n/a	n/a	n/a	n/a	n/a	n/a	"Trial"	n/a	n/a	n/a	"635"	"arrowdown"	n/a	"NULL"	"NULL"	"NULL"	"stimuli/MullerLyer_-20.04286_-0.23665.png"	n/a	"MullerLyer"	"arrowdown"	"1188"	"TRUE"	"MullerLyer"	"-20.04286000"	"-0.236650000"	"1"	"67"
n/a	"html-keyboard-response"	"151"	"280571"	"0.0-5.0-2.0-0.49"	"a9smvc"	"600"	"1024"	"chrome"	"111.0.0"	"FALSE"	"Windows 10"	"60.68"	"057"	n/a	n/a	n/a	n/a	n/a	n/a	"fixation"	n/a	n/a	n/a	n/a	"NULL"	n/a	"NULL"	"NULL"	"NULL"	"<p style=\"color: black; font-size: 80px; padding-left: 25%; padding-right: 17%; padding-top: 21%; padding-bottom: 6%\">+</p>"	"1211"	n/a	n/a	n/a	n/a	n/a	n/a	n/a	n/a	n/a
n/a	"image-keyboard-response"	"152"	"281491"	"0.0-5.0-2.0-1.49"	"a9smvc"	"600"	"1024"	"chrome"	"111.0.0"	"FALSE"	"Windows 10"	"60.68"	"057"	n/a	n/a	n/a	n/a	n/a	n/a	"Trial"	n/a	n/a	n/a	"917"	"arrowup"	n/a	"NULL"	"NULL"	"NULL"	"stimuli/MullerLyer_8.21429_-0.07627.png"	n/a	"MullerLyer"	"arrowdown"	"1219"	"FALSE"	"MullerLyer"	"8.2142900000"	"-0.076270000"	"1"	"68"
n/a	"html-keyboard-response"	"153"	"282626"	"0.0-5.0-2.0-0.50"	"a9smvc"	"600"	"1024"	"chrome"	"111.0.0"	"FALSE"	"Windows 10"	"60.68"	"057"	n/a	n/a	n/a	n/a	n/a	n/a	"fixation"	n/a	n/a	n/a	n/a	"NULL"	n/a	"NULL"	"NULL"	"NULL"	"<p style=\"color: black; font-size: 80px; padding-left: 26%; padding-right: 10%; padding-top: 3%; padding-bottom: 48%\">+</p>"	"1128"	n/a	n/a	n/a	n/a	n/a	n/a	n/a	n/a	n/a
n/a	"image-keyboard-response"	"154"	"283489"	"0.0-5.0-2.0-1.50"	"a9smvc"	"600"	"1024"	"chrome"	"111.0.0"	"FALSE"	"Windows 10"	"60.68"	"057"	n/a	n/a	n/a	n/a	n/a	n/a	"Trial"	n/a	n/a	n/a	"862"	"arrowdown"	n/a	"NULL"	"NULL"	"NULL"	"stimuli/MullerLyer_14.12857_-0.23665.png"	n/a	"MullerLyer"	"arrowdown"	"1135"	"TRUE"	"MullerLyer"	"14.128570000"	"-0.236650000"	"1"	"69"
n/a	"html-keyboard-response"	"155"	"284841"	"0.0-5.0-2.0-0.51"	"a9smvc"	"600"	"1024"	"chrome"	"111.0.0"	"FALSE"	"Windows 10"	"60.68"	"057"	n/a	n/a	n/a	n/a	n/a	n/a	"fixation"	n/a	n/a	n/a	n/a	"NULL"	n/a	"NULL"	"NULL"	"NULL"	"<p style=\"color: black; font-size: 80px; padding-left: 31%; padding-right: 13%; padding-top: 45%; padding-bottom: 29%\">+</p>"	"1339"	n/a	n/a	n/a	n/a	n/a	n/a	n/a	n/a	n/a
n/a	"image-keyboard-response"	"156"	"285583"	"0.0-5.0-2.0-1.51"	"a9smvc"	"600"	"1024"	"chrome"	"111.0.0"	"FALSE"	"Windows 10"	"60.68"	"057"	n/a	n/a	n/a	n/a	n/a	n/a	"Trial"	n/a	n/a	n/a	"741"	"arrowup"	n/a	"NULL"	"NULL"	"NULL"	"stimuli/MullerLyer_2.30000_0.23665.png"	n/a	"MullerLyer"	"arrowup"	"1352"	"TRUE"	"MullerLyer"	"2.3000000000"	"0.2366500000"	"1"	"70"
n/a	"html-keyboard-response"	"157"	"286670"	"0.0-5.0-2.0-0.52"	"a9smvc"	"600"	"1024"	"chrome"	"111.0.0"	"FALSE"	"Windows 10"	"60.68"	"057"	n/a	n/a	n/a	n/a	n/a	n/a	"fixation"	n/a	n/a	n/a	n/a	"NULL"	n/a	"NULL"	"NULL"	"NULL"	"<p style=\"color: black; font-size: 80px; padding-left: 5%; padding-right: 26%; padding-top: 15%; padding-bottom: 47%\">+</p>"	"1084"	n/a	n/a	n/a	n/a	n/a	n/a	n/a	n/a	n/a
n/a	"image-keyboard-response"	"158"	"288475"	"0.0-5.0-2.0-1.52"	"a9smvc"	"600"	"1024"	"chrome"	"111.0.0"	"FALSE"	"Windows 10"	"60.68"	"057"	n/a	n/a	n/a	n/a	n/a	n/a	"Trial"	n/a	n/a	n/a	"1805"	"arrowup"	n/a	"NULL"	"NULL"	"NULL"	"stimuli/MullerLyer_2.30000_0.07627.png"	n/a	"MullerLyer"	"arrowup"	"1087"	"TRUE"	"MullerLyer"	"2.3000000000"	"0.0762700000"	"1"	"71"
n/a	"html-keyboard-response"	"159"	"289669"	"0.0-5.0-2.0-0.53"	"a9smvc"	"600"	"1024"	"chrome"	"111.0.0"	"FALSE"	"Windows 10"	"60.68"	"057"	n/a	n/a	n/a	n/a	n/a	n/a	"fixation"	n/a	n/a	n/a	n/a	"NULL"	n/a	"NULL"	"NULL"	"NULL"	"<p style=\"color: black; font-size: 80px; padding-left: 2%; padding-right: 35%; padding-top: 3%; padding-bottom: 29%\">+</p>"	"1179"	n/a	n/a	n/a	n/a	n/a	n/a	n/a	n/a	n/a
n/a	"image-keyboard-response"	"160"	"290757"	"0.0-5.0-2.0-1.53"	"a9smvc"	"600"	"1024"	"chrome"	"111.0.0"	"FALSE"	"Windows 10"	"60.68"	"057"	n/a	n/a	n/a	n/a	n/a	n/a	"Trial"	n/a	n/a	n/a	"1087"	"arrowup"	n/a	"NULL"	"NULL"	"NULL"	"stimuli/MullerLyer_-8.21429_0.07627.png"	n/a	"MullerLyer"	"arrowup"	"1194"	"TRUE"	"MullerLyer"	"-8.214290000"	"0.0762700000"	"1"	"72"
n/a	"html-keyboard-response"	"161"	"291778"	"0.0-5.0-2.0-0.54"	"a9smvc"	"600"	"1024"	"chrome"	"111.0.0"	"FALSE"	"Windows 10"	"60.68"	"057"	n/a	n/a	n/a	n/a	n/a	n/a	"fixation"	n/a	n/a	n/a	n/a	"NULL"	n/a	"NULL"	"NULL"	"NULL"	"<p style=\"color: black; font-size: 80px; padding-left: 3%; padding-right: 50%; padding-top: 8%; padding-bottom: 36%\">+</p>"	"1012"	n/a	n/a	n/a	n/a	n/a	n/a	n/a	n/a	n/a
n/a	"image-keyboard-response"	"162"	"292647"	"0.0-5.0-2.0-1.54"	"a9smvc"	"600"	"1024"	"chrome"	"111.0.0"	"FALSE"	"Windows 10"	"60.68"	"057"	n/a	n/a	n/a	n/a	n/a	n/a	"Trial"	n/a	n/a	n/a	"868"	"arrowup"	n/a	"NULL"	"NULL"	"NULL"	"stimuli/MullerLyer_14.12857_-0.07627.png"	n/a	"MullerLyer"	"arrowdown"	"1021"	"FALSE"	"MullerLyer"	"14.128570000"	"-0.076270000"	"1"	"73"
n/a	"html-keyboard-response"	"163"	"293786"	"0.0-5.0-2.0-0.55"	"a9smvc"	"600"	"1024"	"chrome"	"111.0.0"	"FALSE"	"Windows 10"	"60.68"	"057"	n/a	n/a	n/a	n/a	n/a	n/a	"fixation"	n/a	n/a	n/a	n/a	"NULL"	n/a	"NULL"	"NULL"	"NULL"	"<p style=\"color: black; font-size: 80px; padding-left: 20%; padding-right: 16%; padding-top: 37%; padding-bottom: 4%\">+</p>"	"1122"	n/a	n/a	n/a	n/a	n/a	n/a	n/a	n/a	n/a
n/a	"image-keyboard-response"	"164"	"294421"	"0.0-5.0-2.0-1.55"	"a9smvc"	"600"	"1024"	"chrome"	"111.0.0"	"FALSE"	"Windows 10"	"60.68"	"057"	n/a	n/a	n/a	n/a	n/a	n/a	"Trial"	n/a	n/a	n/a	"634"	"arrowdown"	n/a	"NULL"	"NULL"	"NULL"	"stimuli/MullerLyer_-8.21429_-0.14541.png"	n/a	"MullerLyer"	"arrowdown"	"1139"	"TRUE"	"MullerLyer"	"-8.214290000"	"-0.145410000"	"1"	"74"
n/a	"html-keyboard-response"	"165"	"295913"	"0.0-5.0-2.0-0.56"	"a9smvc"	"600"	"1024"	"chrome"	"111.0.0"	"FALSE"	"Windows 10"	"60.68"	"057"	n/a	n/a	n/a	n/a	n/a	n/a	"fixation"	n/a	n/a	n/a	n/a	"NULL"	n/a	"NULL"	"NULL"	"NULL"	"<p style=\"color: black; font-size: 80px; padding-left: 44%; padding-right: 31%; padding-top: 8%; padding-bottom: 8%\">+</p>"	"1476"	n/a	n/a	n/a	n/a	n/a	n/a	n/a	n/a	n/a
n/a	"image-keyboard-response"	"166"	"296642"	"0.0-5.0-2.0-1.56"	"a9smvc"	"600"	"1024"	"chrome"	"111.0.0"	"FALSE"	"Windows 10"	"60.68"	"057"	n/a	n/a	n/a	n/a	n/a	n/a	"Trial"	n/a	n/a	n/a	"728"	"arrowdown"	n/a	"NULL"	"NULL"	"NULL"	"stimuli/MullerLyer_8.21429_-0.3500.png"	n/a	"MullerLyer"	"arrowdown"	"1492"	"TRUE"	"MullerLyer"	"8.2142900000"	"-0.350000000"	"1"	"75"
n/a	"html-keyboard-response"	"167"	"298047"	"0.0-5.0-2.0-0.57"	"a9smvc"	"600"	"1024"	"chrome"	"111.0.0"	"FALSE"	"Windows 10"	"60.68"	"057"	n/a	n/a	n/a	n/a	n/a	n/a	"fixation"	n/a	n/a	n/a	n/a	"NULL"	n/a	"NULL"	"NULL"	"NULL"	"<p style=\"color: black; font-size: 80px; padding-left: 17%; padding-right: 41%; padding-top: 42%; padding-bottom: 38%\">+</p>"	"1400"	n/a	n/a	n/a	n/a	n/a	n/a	n/a	n/a	n/a
n/a	"image-keyboard-response"	"168"	"299426"	"0.0-5.0-2.0-1.57"	"a9smvc"	"600"	"1024"	"chrome"	"111.0.0"	"FALSE"	"Windows 10"	"60.68"	"057"	n/a	n/a	n/a	n/a	n/a	n/a	"Trial"	n/a	n/a	n/a	"1379"	"arrowdown"	n/a	"NULL"	"NULL"	"NULL"	"stimuli/MullerLyer_8.21429_0.07627.png"	n/a	"MullerLyer"	"arrowup"	"1405"	"FALSE"	"MullerLyer"	"8.2142900000"	"0.0762700000"	"1"	"76"
n/a	"html-keyboard-response"	"169"	"300881"	"0.0-5.0-2.0-0.58"	"a9smvc"	"600"	"1024"	"chrome"	"111.0.0"	"FALSE"	"Windows 10"	"60.68"	"057"	n/a	n/a	n/a	n/a	n/a	n/a	"fixation"	n/a	n/a	n/a	n/a	"NULL"	n/a	"NULL"	"NULL"	"NULL"	"<p style=\"color: black; font-size: 80px; padding-left: 45%; padding-right: 28%; padding-top: 44%; padding-bottom: 12%\">+</p>"	"1439"	n/a	n/a	n/a	n/a	n/a	n/a	n/a	n/a	n/a
n/a	"image-keyboard-response"	"170"	"301763"	"0.0-5.0-2.0-1.58"	"a9smvc"	"600"	"1024"	"chrome"	"111.0.0"	"FALSE"	"Windows 10"	"60.68"	"057"	n/a	n/a	n/a	n/a	n/a	n/a	"Trial"	n/a	n/a	n/a	"881"	"arrowup"	n/a	"NULL"	"NULL"	"NULL"	"stimuli/MullerLyer_14.12857_0.35000.png"	n/a	"MullerLyer"	"arrowup"	"1455"	"TRUE"	"MullerLyer"	"14.128570000"	"0.3500000000"	"1"	"77"
n/a	"html-keyboard-response"	"171"	"303222"	"0.0-5.0-2.0-0.59"	"a9smvc"	"600"	"1024"	"chrome"	"111.0.0"	"FALSE"	"Windows 10"	"60.68"	"057"	n/a	n/a	n/a	n/a	n/a	n/a	"fixation"	n/a	n/a	n/a	n/a	"NULL"	n/a	"NULL"	"NULL"	"NULL"	"<p style=\"color: black; font-size: 80px; padding-left: 28%; padding-right: 29%; padding-top: 23%; padding-bottom: 1%\">+</p>"	"1453"	n/a	n/a	n/a	n/a	n/a	n/a	n/a	n/a	n/a
n/a	"image-keyboard-response"	"172"	"303878"	"0.0-5.0-2.0-1.59"	"a9smvc"	"600"	"1024"	"chrome"	"111.0.0"	"FALSE"	"Windows 10"	"60.68"	"057"	n/a	n/a	n/a	n/a	n/a	n/a	"Trial"	n/a	n/a	n/a	"655"	"arrowdown"	n/a	"NULL"	"NULL"	"NULL"	"stimuli/MullerLyer_8.21429_-0.23665.png"	n/a	"MullerLyer"	"arrowdown"	"1459"	"TRUE"	"MullerLyer"	"8.2142900000"	"-0.236650000"	"1"	"78"
n/a	"html-keyboard-response"	"173"	"304920"	"0.0-5.0-2.0-0.60"	"a9smvc"	"600"	"1024"	"chrome"	"111.0.0"	"FALSE"	"Windows 10"	"60.68"	"057"	n/a	n/a	n/a	n/a	n/a	n/a	"fixation"	n/a	n/a	n/a	n/a	"NULL"	n/a	"NULL"	"NULL"	"NULL"	"<p style=\"color: black; font-size: 80px; padding-left: 38%; padding-right: 8%; padding-top: 9%; padding-bottom: 33%\">+</p>"	"1030"	n/a	n/a	n/a	n/a	n/a	n/a	n/a	n/a	n/a
n/a	"image-keyboard-response"	"174"	"305986"	"0.0-5.0-2.0-1.60"	"a9smvc"	"600"	"1024"	"chrome"	"111.0.0"	"FALSE"	"Windows 10"	"60.68"	"057"	n/a	n/a	n/a	n/a	n/a	n/a	"Trial"	n/a	n/a	n/a	"1065"	"arrowdown"	n/a	"NULL"	"NULL"	"NULL"	"stimuli/MullerLyer_2.30000_-0.07627.png"	n/a	"MullerLyer"	"arrowdown"	"1042"	"TRUE"	"MullerLyer"	"2.3000000000"	"-0.076270000"	"1"	"79"
n/a	"html-keyboard-response"	"175"	"307158"	"0.0-5.0-2.0-0.61"	"a9smvc"	"600"	"1024"	"chrome"	"111.0.0"	"FALSE"	"Windows 10"	"60.68"	"057"	n/a	n/a	n/a	n/a	n/a	n/a	"fixation"	n/a	n/a	n/a	n/a	"NULL"	n/a	"NULL"	"NULL"	"NULL"	"<p style=\"color: black; font-size: 80px; padding-left: 44%; padding-right: 33%; padding-top: 41%; padding-bottom: 25%\">+</p>"	"1160"	n/a	n/a	n/a	n/a	n/a	n/a	n/a	n/a	n/a
n/a	"image-keyboard-response"	"176"	"307794"	"0.0-5.0-2.0-1.61"	"a9smvc"	"600"	"1024"	"chrome"	"111.0.0"	"FALSE"	"Windows 10"	"60.68"	"057"	n/a	n/a	n/a	n/a	n/a	n/a	"Trial"	n/a	n/a	n/a	"635"	"arrowdown"	n/a	"NULL"	"NULL"	"NULL"	"stimuli/MullerLyer_-20.04286_-0.3500.png"	n/a	"MullerLyer"	"arrowdown"	"1172"	"TRUE"	"MullerLyer"	"-20.04286000"	"-0.350000000"	"1"	"80"
n/a	"html-keyboard-response"	"177"	"308905"	"0.0-5.0-2.0-0.62"	"a9smvc"	"600"	"1024"	"chrome"	"111.0.0"	"FALSE"	"Windows 10"	"60.68"	"057"	n/a	n/a	n/a	n/a	n/a	n/a	"fixation"	n/a	n/a	n/a	n/a	"NULL"	n/a	"NULL"	"NULL"	"NULL"	"<p style=\"color: black; font-size: 80px; padding-left: 33%; padding-right: 10%; padding-top: 36%; padding-bottom: 18%\">+</p>"	"1105"	n/a	n/a	n/a	n/a	n/a	n/a	n/a	n/a	n/a
n/a	"image-keyboard-response"	"178"	"310175"	"0.0-5.0-2.0-1.62"	"a9smvc"	"600"	"1024"	"chrome"	"111.0.0"	"FALSE"	"Windows 10"	"60.68"	"057"	n/a	n/a	n/a	n/a	n/a	n/a	"Trial"	n/a	n/a	n/a	"1269"	"arrowup"	n/a	"NULL"	"NULL"	"NULL"	"stimuli/MullerLyer_20.04286_0.35000.png"	n/a	"MullerLyer"	"arrowup"	"1111"	"TRUE"	"MullerLyer"	"20.042860000"	"0.3500000000"	"1"	"81"
n/a	"html-keyboard-response"	"179"	"311590"	"0.0-5.0-2.0-0.63"	"a9smvc"	"600"	"1024"	"chrome"	"111.0.0"	"FALSE"	"Windows 10"	"60.68"	"057"	n/a	n/a	n/a	n/a	n/a	n/a	"fixation"	n/a	n/a	n/a	n/a	"NULL"	n/a	"NULL"	"NULL"	"NULL"	"<p style=\"color: black; font-size: 80px; padding-left: 17%; padding-right: 26%; padding-top: 31%; padding-bottom: 31%\">+</p>"	"1401"	n/a	n/a	n/a	n/a	n/a	n/a	n/a	n/a	n/a
n/a	"image-keyboard-response"	"180"	"312774"	"0.0-5.0-2.0-1.63"	"a9smvc"	"600"	"1024"	"chrome"	"111.0.0"	"FALSE"	"Windows 10"	"60.68"	"057"	n/a	n/a	n/a	n/a	n/a	n/a	"Trial"	n/a	n/a	n/a	"1183"	"arrowup"	n/a	"NULL"	"NULL"	"NULL"	"stimuli/MullerLyer_8.21429_0.14541.png"	n/a	"MullerLyer"	"arrowup"	"1415"	"TRUE"	"MullerLyer"	"8.2142900000"	"0.1454100000"	"1"	"82"
n/a	"html-button-response"	"181"	"327163"	"0.0-5.0-3.0"	"a9smvc"	"600"	"1024"	"chrome"	"111.0.0"	"FALSE"	"Windows 10"	"60.68"	"057"	n/a	n/a	n/a	n/a	n/a	n/a	"block_results"	n/a	n/a	n/a	"14384"	"0"	n/a	"NULL"	"NULL"	"NULL"	"<p>Your score for this illusion is <p style=\"color: black; font-size: 48px; font-weight: bold;\">73.7 %</p><hr><p>Can you do better in the next illusion?</p>"	n/a	n/a	n/a	n/a	n/a	n/a	n/a	n/a	n/a	n/a
"TRUE"	"preload"	"182"	"327303"	"0.0-6.0-0.0"	"a9smvc"	"600"	"1024"	"chrome"	"111.0.0"	"FALSE"	"Windows 10"	"60.68"	"057"	n/a	n/a	n/a	n/a	n/a	n/a	n/a	n/a	n/a	n/a	n/a	"NULL"	"FALSE"	"list()"	"list()"	"list()"	n/a	n/a	n/a	n/a	n/a	n/a	n/a	n/a	n/a	n/a	n/a
n/a	"html-keyboard-response"	"183"	"331472"	"0.0-6.0-1.0"	"a9smvc"	"600"	"1024"	"chrome"	"111.0.0"	"FALSE"	"Windows 10"	"60.68"	"057"	n/a	n/a	n/a	n/a	n/a	n/a	n/a	n/a	n/a	n/a	"4168"	"enter"	n/a	"NULL"	"NULL"	"NULL"	"<p><b>Part 2/6</b></p><p>In this part, two red lines will appear side by side.</p><p>Your task is to tell <b>which line is longer</b> in length, regardless of their orientation, as fast as you can, and without making errors.</p><p>Don't get distracted by the orientation of the lines!</p><p>Press <b>the LEFT or the RIGHT arrow</b> to indicate which <b>line is the longer one.</b></p><div style='float: center'><img src='materials/instructions/VerticalHorizontal_Demo.png' height='300'></img><p><img src='utils/answer/answer_leftright_keyboard.PNG' height='150'></img></p><p class='small'>In this example, the correct answer is the <b>LEFT arrow</b>.</p></div><p>Are you ready? <b>Press ENTER to start</b></p>"	n/a	n/a	n/a	n/a	n/a	n/a	n/a	n/a	n/a	n/a
n/a	"html-keyboard-response"	"184"	"333351"	"0.0-6.0-2.0-0.0"	"a9smvc"	"600"	"1024"	"chrome"	"111.0.0"	"FALSE"	"Windows 10"	"60.68"	"057"	n/a	n/a	n/a	n/a	n/a	n/a	"fixation"	n/a	n/a	n/a	n/a	"NULL"	n/a	"NULL"	"NULL"	"NULL"	"<p style=\"color: black; font-size: 80px; padding-left: 23%; padding-right: 44%; padding-top: 25%; padding-bottom: 9%\">+</p>"	"1370"	n/a	n/a	n/a	n/a	n/a	n/a	n/a	n/a	n/a
n/a	"image-keyboard-response"	"185"	"334412"	"0.0-6.0-2.0-1.0"	"a9smvc"	"600"	"1024"	"chrome"	"111.0.0"	"FALSE"	"Windows 10"	"60.68"	"057"	n/a	n/a	n/a	n/a	n/a	n/a	"Trial"	n/a	n/a	n/a	"1060"	"arrowleft"	n/a	"NULL"	"NULL"	"NULL"	"stimuli/VerticalHorizontal_-3.3000_0.10960.png"	n/a	"VerticalHorizontal"	"arrowleft"	"1879"	"TRUE"	"VerticalHorizontal"	"-3.300000000"	"0.1096000000"	"2"	"1"
n/a	"html-keyboard-response"	"186"	"335515"	"0.0-6.0-2.0-0.1"	"a9smvc"	"600"	"1024"	"chrome"	"111.0.0"	"FALSE"	"Windows 10"	"60.68"	"057"	n/a	n/a	n/a	n/a	n/a	n/a	"fixation"	n/a	n/a	n/a	n/a	"NULL"	n/a	"NULL"	"NULL"	"NULL"	"<p style=\"color: black; font-size: 80px; padding-left: 32%; padding-right: 34%; padding-top: 31%; padding-bottom: 12%\">+</p>"	"1088"	n/a	n/a	n/a	n/a	n/a	n/a	n/a	n/a	n/a
n/a	"image-keyboard-response"	"187"	"336291"	"0.0-6.0-2.0-1.1"	"a9smvc"	"600"	"1024"	"chrome"	"111.0.0"	"FALSE"	"Windows 10"	"60.68"	"057"	n/a	n/a	n/a	n/a	n/a	n/a	"Trial"	n/a	n/a	n/a	"776"	"arrowleft"	n/a	"NULL"	"NULL"	"NULL"	"stimuli/VerticalHorizontal_3.30000_0.22500.png"	n/a	"VerticalHorizontal"	"arrowleft"	"1103"	"TRUE"	"VerticalHorizontal"	"3.3000000000"	"0.2250000000"	"2"	"2"
n/a	"html-keyboard-response"	"188"	"337629"	"0.0-6.0-2.0-0.2"	"a9smvc"	"600"	"1024"	"chrome"	"111.0.0"	"FALSE"	"Windows 10"	"60.68"	"057"	n/a	n/a	n/a	n/a	n/a	n/a	"fixation"	n/a	n/a	n/a	n/a	"NULL"	n/a	"NULL"	"NULL"	"NULL"	"<p style=\"color: black; font-size: 80px; padding-left: 39%; padding-right: 17%; padding-top: 49%; padding-bottom: 13%\">+</p>"	"1335"	n/a	n/a	n/a	n/a	n/a	n/a	n/a	n/a	n/a
n/a	"image-keyboard-response"	"189"	"338107"	"0.0-6.0-2.0-1.2"	"a9smvc"	"600"	"1024"	"chrome"	"111.0.0"	"FALSE"	"Windows 10"	"60.68"	"057"	n/a	n/a	n/a	n/a	n/a	n/a	"Trial"	n/a	n/a	n/a	"477"	"arrowright"	n/a	"NULL"	"NULL"	"NULL"	"stimuli/VerticalHorizontal_20.27143_0.10960.png"	n/a	"VerticalHorizontal"	"arrowleft"	"1338"	"FALSE"	"VerticalHorizontal"	"20.271430000"	"0.1096000000"	"2"	"3"
n/a	"html-keyboard-response"	"190"	"339124"	"0.0-6.0-2.0-0.3"	"a9smvc"	"600"	"1024"	"chrome"	"111.0.0"	"FALSE"	"Windows 10"	"60.68"	"057"	n/a	n/a	n/a	n/a	n/a	n/a	"fixation"	n/a	n/a	n/a	n/a	"NULL"	n/a	"NULL"	"NULL"	"NULL"	"<p style=\"color: black; font-size: 80px; padding-left: 8%; padding-right: 14%; padding-top: 24%; padding-bottom: 39%\">+</p>"	"1004"	n/a	n/a	n/a	n/a	n/a	n/a	n/a	n/a	n/a
n/a	"image-keyboard-response"	"191"	"339712"	"0.0-6.0-2.0-1.3"	"a9smvc"	"600"	"1024"	"chrome"	"111.0.0"	"FALSE"	"Windows 10"	"60.68"	"057"	n/a	n/a	n/a	n/a	n/a	n/a	"Trial"	n/a	n/a	n/a	"588"	"arrowleft"	n/a	"NULL"	"NULL"	"NULL"	"stimuli/VerticalHorizontal_3.30000_0.10960.png"	n/a	"VerticalHorizontal"	"arrowleft"	"1017"	"TRUE"	"VerticalHorizontal"	"3.3000000000"	"0.1096000000"	"2"	"4"
n/a	"html-keyboard-response"	"192"	"340734"	"0.0-6.0-2.0-0.4"	"a9smvc"	"600"	"1024"	"chrome"	"111.0.0"	"FALSE"	"Windows 10"	"60.68"	"057"	n/a	n/a	n/a	n/a	n/a	n/a	"fixation"	n/a	n/a	n/a	n/a	"NULL"	n/a	"NULL"	"NULL"	"NULL"	"<p style=\"color: black; font-size: 80px; padding-left: 3%; padding-right: 31%; padding-top: 1%; padding-bottom: 20%\">+</p>"	"1009"	n/a	n/a	n/a	n/a	n/a	n/a	n/a	n/a	n/a
n/a	"image-keyboard-response"	"193"	"341626"	"0.0-6.0-2.0-1.4"	"a9smvc"	"600"	"1024"	"chrome"	"111.0.0"	"FALSE"	"Windows 10"	"60.68"	"057"	n/a	n/a	n/a	n/a	n/a	n/a	"Trial"	n/a	n/a	n/a	"892"	"arrowleft"	n/a	"NULL"	"NULL"	"NULL"	"stimuli/VerticalHorizontal_11.78571_0.16217.png"	n/a	"VerticalHorizontal"	"arrowleft"	"1022"	"TRUE"	"VerticalHorizontal"	"11.785710000"	"0.1621700000"	"2"	"5"
n/a	"html-keyboard-response"	"194"	"342711"	"0.0-6.0-2.0-0.5"	"a9smvc"	"600"	"1024"	"chrome"	"111.0.0"	"FALSE"	"Windows 10"	"60.68"	"057"	n/a	n/a	n/a	n/a	n/a	n/a	"fixation"	n/a	n/a	n/a	n/a	"NULL"	n/a	"NULL"	"NULL"	"NULL"	"<p style=\"color: black; font-size: 80px; padding-left: 24%; padding-right: 27%; padding-top: 48%; padding-bottom: 18%\">+</p>"	"1077"	n/a	n/a	n/a	n/a	n/a	n/a	n/a	n/a	n/a
n/a	"image-keyboard-response"	"195"	"343443"	"0.0-6.0-2.0-1.5"	"a9smvc"	"600"	"1024"	"chrome"	"111.0.0"	"FALSE"	"Windows 10"	"60.68"	"057"	n/a	n/a	n/a	n/a	n/a	n/a	"Trial"	n/a	n/a	n/a	"731"	"arrowleft"	n/a	"NULL"	"NULL"	"NULL"	"stimuli/VerticalHorizontal_-11.78571_0.22500.png"	n/a	"VerticalHorizontal"	"arrowleft"	"1085"	"TRUE"	"VerticalHorizontal"	"-11.78571000"	"0.2250000000"	"2"	"6"
n/a	"html-keyboard-response"	"196"	"344704"	"0.0-6.0-2.0-0.6"	"a9smvc"	"600"	"1024"	"chrome"	"111.0.0"	"FALSE"	"Windows 10"	"60.68"	"057"	n/a	n/a	n/a	n/a	n/a	n/a	"fixation"	n/a	n/a	n/a	n/a	"NULL"	n/a	"NULL"	"NULL"	"NULL"	"<p style=\"color: black; font-size: 80px; padding-left: 23%; padding-right: 36%; padding-top: 21%; padding-bottom: 18%\">+</p>"	"1246"	n/a	n/a	n/a	n/a	n/a	n/a	n/a	n/a	n/a
n/a	"image-keyboard-response"	"197"	"345473"	"0.0-6.0-2.0-1.6"	"a9smvc"	"600"	"1024"	"chrome"	"111.0.0"	"FALSE"	"Windows 10"	"60.68"	"057"	n/a	n/a	n/a	n/a	n/a	n/a	"Trial"	n/a	n/a	n/a	"768"	"arrowright"	n/a	"NULL"	"NULL"	"NULL"	"stimuli/VerticalHorizontal_28.75714_0.22500.png"	n/a	"VerticalHorizontal"	"arrowleft"	"1261"	"FALSE"	"VerticalHorizontal"	"28.757140000"	"0.2250000000"	"2"	"7"
n/a	"html-keyboard-response"	"198"	"346900"	"0.0-6.0-2.0-0.7"	"a9smvc"	"600"	"1024"	"chrome"	"111.0.0"	"FALSE"	"Windows 10"	"60.68"	"057"	n/a	n/a	n/a	n/a	n/a	n/a	"fixation"	n/a	n/a	n/a	n/a	"NULL"	n/a	"NULL"	"NULL"	"NULL"	"<p style=\"color: black; font-size: 80px; padding-left: 7%; padding-right: 10%; padding-top: 11%; padding-bottom: 27%\">+</p>"	"1412"	n/a	n/a	n/a	n/a	n/a	n/a	n/a	n/a	n/a
n/a	"image-keyboard-response"	"199"	"347485"	"0.0-6.0-2.0-1.7"	"a9smvc"	"600"	"1024"	"chrome"	"111.0.0"	"FALSE"	"Windows 10"	"60.68"	"057"	n/a	n/a	n/a	n/a	n/a	n/a	"Trial"	n/a	n/a	n/a	"585"	"arrowright"	n/a	"NULL"	"NULL"	"NULL"	"stimuli/VerticalHorizontal_3.30000_-0.16217.png"	n/a	"VerticalHorizontal"	"arrowright"	"1427"	"TRUE"	"VerticalHorizontal"	"3.3000000000"	"-0.162170000"	"2"	"8"
n/a	"html-keyboard-response"	"200"	"348626"	"0.0-6.0-2.0-0.8"	"a9smvc"	"600"	"1024"	"chrome"	"111.0.0"	"FALSE"	"Windows 10"	"60.68"	"057"	n/a	n/a	n/a	n/a	n/a	n/a	"fixation"	n/a	n/a	n/a	n/a	"NULL"	n/a	"NULL"	"NULL"	"NULL"	"<p style=\"color: black; font-size: 80px; padding-left: 49%; padding-right: 3%; padding-top: 41%; padding-bottom: 46%\">+</p>"	"1130"	n/a	n/a	n/a	n/a	n/a	n/a	n/a	n/a	n/a
n/a	"image-keyboard-response"	"201"	"349114"	"0.0-6.0-2.0-1.8"	"a9smvc"	"600"	"1024"	"chrome"	"111.0.0"	"FALSE"	"Windows 10"	"60.68"	"057"	n/a	n/a	n/a	n/a	n/a	n/a	"Trial"	n/a	n/a	n/a	"488"	"arrowright"	n/a	"NULL"	"NULL"	"NULL"	"stimuli/VerticalHorizontal_-20.27143_-0.1096.png"	n/a	"VerticalHorizontal"	"arrowright"	"1141"	"TRUE"	"VerticalHorizontal"	"-20.27143000"	"-0.109600000"	"2"	"9"
n/a	"html-keyboard-response"	"202"	"350235"	"0.0-6.0-2.0-0.9"	"a9smvc"	"600"	"1024"	"chrome"	"111.0.0"	"FALSE"	"Windows 10"	"60.68"	"057"	n/a	n/a	n/a	n/a	n/a	n/a	"fixation"	n/a	n/a	n/a	n/a	"NULL"	n/a	"NULL"	"NULL"	"NULL"	"<p style=\"color: black; font-size: 80px; padding-left: 28%; padding-right: 19%; padding-top: 49%; padding-bottom: 38%\">+</p>"	"1109"	n/a	n/a	n/a	n/a	n/a	n/a	n/a	n/a	n/a
n/a	"image-keyboard-response"	"203"	"350834"	"0.0-6.0-2.0-1.9"	"a9smvc"	"600"	"1024"	"chrome"	"111.0.0"	"FALSE"	"Windows 10"	"60.68"	"057"	n/a	n/a	n/a	n/a	n/a	n/a	"Trial"	n/a	n/a	n/a	"599"	"arrowleft"	n/a	"NULL"	"NULL"	"NULL"	"stimuli/VerticalHorizontal_-28.75714_0.06730.png"	n/a	"VerticalHorizontal"	"arrowleft"	"1121"	"TRUE"	"VerticalHorizontal"	"-28.75714000"	"0.0673000000"	"2"	"10"
n/a	"html-keyboard-response"	"204"	"352311"	"0.0-6.0-2.0-0.10"	"a9smvc"	"600"	"1024"	"chrome"	"111.0.0"	"FALSE"	"Windows 10"	"60.68"	"057"	n/a	n/a	n/a	n/a	n/a	n/a	"fixation"	n/a	n/a	n/a	n/a	"NULL"	n/a	"NULL"	"NULL"	"NULL"	"<p style=\"color: black; font-size: 80px; padding-left: 27%; padding-right: 25%; padding-top: 38%; padding-bottom: 35%\">+</p>"	"1472"	n/a	n/a	n/a	n/a	n/a	n/a	n/a	n/a	n/a
n/a	"image-keyboard-response"	"205"	"352789"	"0.0-6.0-2.0-1.10"	"a9smvc"	"600"	"1024"	"chrome"	"111.0.0"	"FALSE"	"Windows 10"	"60.68"	"057"	n/a	n/a	n/a	n/a	n/a	n/a	"Trial"	n/a	n/a	n/a	"478"	"arrowright"	n/a	"NULL"	"NULL"	"NULL"	"stimuli/VerticalHorizontal_-20.27143_-0.2250.png"	n/a	"VerticalHorizontal"	"arrowright"	"1477"	"TRUE"	"VerticalHorizontal"	"-20.27143000"	"-0.225000000"	"2"	"11"
n/a	"html-keyboard-response"	"206"	"353990"	"0.0-6.0-2.0-0.11"	"a9smvc"	"600"	"1024"	"chrome"	"111.0.0"	"FALSE"	"Windows 10"	"60.68"	"057"	n/a	n/a	n/a	n/a	n/a	n/a	"fixation"	n/a	n/a	n/a	n/a	"NULL"	n/a	"NULL"	"NULL"	"NULL"	"<p style=\"color: black; font-size: 80px; padding-left: 48%; padding-right: 24%; padding-top: 12%; padding-bottom: 39%\">+</p>"	"1189"	n/a	n/a	n/a	n/a	n/a	n/a	n/a	n/a	n/a
n/a	"image-keyboard-response"	"207"	"354530"	"0.0-6.0-2.0-1.11"	"a9smvc"	"600"	"1024"	"chrome"	"111.0.0"	"FALSE"	"Windows 10"	"60.68"	"057"	n/a	n/a	n/a	n/a	n/a	n/a	"Trial"	n/a	n/a	n/a	"539"	"arrowleft"	n/a	"NULL"	"NULL"	"NULL"	"stimuli/VerticalHorizontal_-3.3000_0.06730.png"	n/a	"VerticalHorizontal"	"arrowleft"	"1201"	"TRUE"	"VerticalHorizontal"	"-3.300000000"	"0.0673000000"	"2"	"12"
n/a	"html-keyboard-response"	"208"	"355875"	"0.0-6.0-2.0-0.12"	"a9smvc"	"600"	"1024"	"chrome"	"111.0.0"	"FALSE"	"Windows 10"	"60.68"	"057"	n/a	n/a	n/a	n/a	n/a	n/a	"fixation"	n/a	n/a	n/a	n/a	"NULL"	n/a	"NULL"	"NULL"	"NULL"	"<p style=\"color: black; font-size: 80px; padding-left: 46%; padding-right: 34%; padding-top: 3%; padding-bottom: 49%\">+</p>"	"1339"	n/a	n/a	n/a	n/a	n/a	n/a	n/a	n/a	n/a
n/a	"image-keyboard-response"	"209"	"356364"	"0.0-6.0-2.0-1.12"	"a9smvc"	"600"	"1024"	"chrome"	"111.0.0"	"FALSE"	"Windows 10"	"60.68"	"057"	n/a	n/a	n/a	n/a	n/a	n/a	"Trial"	n/a	n/a	n/a	"489"	"arrowleft"	n/a	"NULL"	"NULL"	"NULL"	"stimuli/VerticalHorizontal_-28.75714_0.16217.png"	n/a	"VerticalHorizontal"	"arrowleft"	"1345"	"TRUE"	"VerticalHorizontal"	"-28.75714000"	"0.1621700000"	"2"	"13"
n/a	"html-keyboard-response"	"210"	"357843"	"0.0-6.0-2.0-0.13"	"a9smvc"	"600"	"1024"	"chrome"	"111.0.0"	"FALSE"	"Windows 10"	"60.68"	"057"	n/a	n/a	n/a	n/a	n/a	n/a	"fixation"	n/a	n/a	n/a	n/a	"NULL"	n/a	"NULL"	"NULL"	"NULL"	"<p style=\"color: black; font-size: 80px; padding-left: 38%; padding-right: 49%; padding-top: 44%; padding-bottom: 4%\">+</p>"	"1469"	n/a	n/a	n/a	n/a	n/a	n/a	n/a	n/a	n/a
n/a	"image-keyboard-response"	"211"	"358287"	"0.0-6.0-2.0-1.13"	"a9smvc"	"600"	"1024"	"chrome"	"111.0.0"	"FALSE"	"Windows 10"	"60.68"	"057"	n/a	n/a	n/a	n/a	n/a	n/a	"Trial"	n/a	n/a	n/a	"443"	"arrowright"	n/a	"NULL"	"NULL"	"NULL"	"stimuli/VerticalHorizontal_-3.3000_-0.16217.png"	n/a	"VerticalHorizontal"	"arrowright"	"1479"	"TRUE"	"VerticalHorizontal"	"-3.300000000"	"-0.162170000"	"2"	"14"
n/a	"html-keyboard-response"	"212"	"359320"	"0.0-6.0-2.0-0.14"	"a9smvc"	"600"	"1024"	"chrome"	"111.0.0"	"FALSE"	"Windows 10"	"60.68"	"057"	n/a	n/a	n/a	n/a	n/a	n/a	"fixation"	n/a	n/a	n/a	n/a	"NULL"	n/a	"NULL"	"NULL"	"NULL"	"<p style=\"color: black; font-size: 80px; padding-left: 14%; padding-right: 50%; padding-top: 30%; padding-bottom: 37%\">+</p>"	"1028"	n/a	n/a	n/a	n/a	n/a	n/a	n/a	n/a	n/a
n/a	"image-keyboard-response"	"213"	"359881"	"0.0-6.0-2.0-1.14"	"a9smvc"	"600"	"1024"	"chrome"	"111.0.0"	"FALSE"	"Windows 10"	"60.68"	"057"	n/a	n/a	n/a	n/a	n/a	n/a	"Trial"	n/a	n/a	n/a	"560"	"arrowleft"	n/a	"NULL"	"NULL"	"NULL"	"stimuli/VerticalHorizontal_20.27143_-0.1096.png"	n/a	"VerticalHorizontal"	"arrowright"	"1033"	"FALSE"	"VerticalHorizontal"	"20.271430000"	"-0.109600000"	"2"	"15"
n/a	"html-keyboard-response"	"214"	"361147"	"0.0-6.0-2.0-0.15"	"a9smvc"	"600"	"1024"	"chrome"	"111.0.0"	"FALSE"	"Windows 10"	"60.68"	"057"	n/a	n/a	n/a	n/a	n/a	n/a	"fixation"	n/a	n/a	n/a	n/a	"NULL"	n/a	"NULL"	"NULL"	"NULL"	"<p style=\"color: black; font-size: 80px; padding-left: 18%; padding-right: 46%; padding-top: 27%; padding-bottom: 20%\">+</p>"	"1262"	n/a	n/a	n/a	n/a	n/a	n/a	n/a	n/a	n/a
n/a	"image-keyboard-response"	"215"	"361745"	"0.0-6.0-2.0-1.15"	"a9smvc"	"600"	"1024"	"chrome"	"111.0.0"	"FALSE"	"Windows 10"	"60.68"	"057"	n/a	n/a	n/a	n/a	n/a	n/a	"Trial"	n/a	n/a	n/a	"597"	"arrowleft"	n/a	"NULL"	"NULL"	"NULL"	"stimuli/VerticalHorizontal_-20.27143_0.10960.png"	n/a	"VerticalHorizontal"	"arrowleft"	"1266"	"TRUE"	"VerticalHorizontal"	"-20.27143000"	"0.1096000000"	"2"	"16"
n/a	"html-keyboard-response"	"216"	"362784"	"0.0-6.0-2.0-0.16"	"a9smvc"	"600"	"1024"	"chrome"	"111.0.0"	"FALSE"	"Windows 10"	"60.68"	"057"	n/a	n/a	n/a	n/a	n/a	n/a	"fixation"	n/a	n/a	n/a	n/a	"NULL"	n/a	"NULL"	"NULL"	"NULL"	"<p style=\"color: black; font-size: 80px; padding-left: 0%; padding-right: 15%; padding-top: 43%; padding-bottom: 42%\">+</p>"	"1032"	n/a	n/a	n/a	n/a	n/a	n/a	n/a	n/a	n/a
n/a	"image-keyboard-response"	"217"	"363513"	"0.0-6.0-2.0-1.16"	"a9smvc"	"600"	"1024"	"chrome"	"111.0.0"	"FALSE"	"Windows 10"	"60.68"	"057"	n/a	n/a	n/a	n/a	n/a	n/a	"Trial"	n/a	n/a	n/a	"728"	"arrowleft"	n/a	"NULL"	"NULL"	"NULL"	"stimuli/VerticalHorizontal_-20.27143_0.22500.png"	n/a	"VerticalHorizontal"	"arrowleft"	"1039"	"TRUE"	"VerticalHorizontal"	"-20.27143000"	"0.2250000000"	"2"	"17"
n/a	"html-keyboard-response"	"218"	"364902"	"0.0-6.0-2.0-0.17"	"a9smvc"	"600"	"1024"	"chrome"	"111.0.0"	"FALSE"	"Windows 10"	"60.68"	"057"	n/a	n/a	n/a	n/a	n/a	n/a	"fixation"	n/a	n/a	n/a	n/a	"NULL"	n/a	"NULL"	"NULL"	"NULL"	"<p style=\"color: black; font-size: 80px; padding-left: 15%; padding-right: 45%; padding-top: 20%; padding-bottom: 33%\">+</p>"	"1373"	n/a	n/a	n/a	n/a	n/a	n/a	n/a	n/a	n/a
n/a	"image-keyboard-response"	"219"	"365636"	"0.0-6.0-2.0-1.17"	"a9smvc"	"600"	"1024"	"chrome"	"111.0.0"	"FALSE"	"Windows 10"	"60.68"	"057"	n/a	n/a	n/a	n/a	n/a	n/a	"Trial"	n/a	n/a	n/a	"733"	"arrowright"	n/a	"NULL"	"NULL"	"NULL"	"stimuli/VerticalHorizontal_-11.78571_-0.1096.png"	n/a	"VerticalHorizontal"	"arrowright"	"1389"	"TRUE"	"VerticalHorizontal"	"-11.78571000"	"-0.109600000"	"2"	"18"
n/a	"html-keyboard-response"	"220"	"366984"	"0.0-6.0-2.0-0.18"	"a9smvc"	"600"	"1024"	"chrome"	"111.0.0"	"FALSE"	"Windows 10"	"60.68"	"057"	n/a	n/a	n/a	n/a	n/a	n/a	"fixation"	n/a	n/a	n/a	n/a	"NULL"	n/a	"NULL"	"NULL"	"NULL"	"<p style=\"color: black; font-size: 80px; padding-left: 29%; padding-right: 11%; padding-top: 46%; padding-bottom: 5%\">+</p>"	"1335"	n/a	n/a	n/a	n/a	n/a	n/a	n/a	n/a	n/a
n/a	"image-keyboard-response"	"221"	"367476"	"0.0-6.0-2.0-1.18"	"a9smvc"	"600"	"1024"	"chrome"	"111.0.0"	"FALSE"	"Windows 10"	"60.68"	"057"	n/a	n/a	n/a	n/a	n/a	n/a	"Trial"	n/a	n/a	n/a	"491"	"arrowright"	n/a	"NULL"	"NULL"	"NULL"	"stimuli/VerticalHorizontal_-11.78571_-0.0673.png"	n/a	"VerticalHorizontal"	"arrowright"	"1348"	"TRUE"	"VerticalHorizontal"	"-11.78571000"	"-0.067300000"	"2"	"19"
n/a	"html-keyboard-response"	"222"	"368484"	"0.0-6.0-2.0-0.19"	"a9smvc"	"600"	"1024"	"chrome"	"111.0.0"	"FALSE"	"Windows 10"	"60.68"	"057"	n/a	n/a	n/a	n/a	n/a	n/a	"fixation"	n/a	n/a	n/a	n/a	"NULL"	n/a	"NULL"	"NULL"	"NULL"	"<p style=\"color: black; font-size: 80px; padding-left: 25%; padding-right: 6%; padding-top: 28%; padding-bottom: 23%\">+</p>"	"1000"	n/a	n/a	n/a	n/a	n/a	n/a	n/a	n/a	n/a
n/a	"image-keyboard-response"	"223"	"369239"	"0.0-6.0-2.0-1.19"	"a9smvc"	"600"	"1024"	"chrome"	"111.0.0"	"FALSE"	"Windows 10"	"60.68"	"057"	n/a	n/a	n/a	n/a	n/a	n/a	"Trial"	n/a	n/a	n/a	"754"	"arrowright"	n/a	"NULL"	"NULL"	"NULL"	"stimuli/VerticalHorizontal_20.27143_0.06730.png"	n/a	"VerticalHorizontal"	"arrowleft"	"1008"	"FALSE"	"VerticalHorizontal"	"20.271430000"	"0.0673000000"	"2"	"20"
n/a	"html-keyboard-response"	"224"	"370413"	"0.0-6.0-2.0-0.20"	"a9smvc"	"600"	"1024"	"chrome"	"111.0.0"	"FALSE"	"Windows 10"	"60.68"	"057"	n/a	n/a	n/a	n/a	n/a	n/a	"fixation"	n/a	n/a	n/a	n/a	"NULL"	n/a	"NULL"	"NULL"	"NULL"	"<p style=\"color: black; font-size: 80px; padding-left: 47%; padding-right: 17%; padding-top: 26%; padding-bottom: 25%\">+</p>"	"1168"	n/a	n/a	n/a	n/a	n/a	n/a	n/a	n/a	n/a
n/a	"image-keyboard-response"	"225"	"370778"	"0.0-6.0-2.0-1.20"	"a9smvc"	"600"	"1024"	"chrome"	"111.0.0"	"FALSE"	"Windows 10"	"60.68"	"057"	n/a	n/a	n/a	n/a	n/a	n/a	"Trial"	n/a	n/a	n/a	"364"	"arrowright"	n/a	"NULL"	"NULL"	"NULL"	"stimuli/VerticalHorizontal_-11.78571_-0.2250.png"	n/a	"VerticalHorizontal"	"arrowright"	"1174"	"TRUE"	"VerticalHorizontal"	"-11.78571000"	"-0.225000000"	"2"	"21"
n/a	"html-keyboard-response"	"226"	"372178"	"0.0-6.0-2.0-0.21"	"a9smvc"	"600"	"1024"	"chrome"	"111.0.0"	"FALSE"	"Windows 10"	"60.68"	"057"	n/a	n/a	n/a	n/a	n/a	n/a	"fixation"	n/a	n/a	n/a	n/a	"NULL"	n/a	"NULL"	"NULL"	"NULL"	"<p style=\"color: black; font-size: 80px; padding-left: 48%; padding-right: 2%; padding-top: 31%; padding-bottom: 27%\">+</p>"	"1398"	n/a	n/a	n/a	n/a	n/a	n/a	n/a	n/a	n/a
n/a	"image-keyboard-response"	"227"	"372670"	"0.0-6.0-2.0-1.21"	"a9smvc"	"600"	"1024"	"chrome"	"111.0.0"	"FALSE"	"Windows 10"	"60.68"	"057"	n/a	n/a	n/a	n/a	n/a	n/a	"Trial"	n/a	n/a	n/a	"492"	"arrowleft"	n/a	"NULL"	"NULL"	"NULL"	"stimuli/VerticalHorizontal_-3.3000_0.22500.png"	n/a	"VerticalHorizontal"	"arrowleft"	"1400"	"TRUE"	"VerticalHorizontal"	"-3.300000000"	"0.2250000000"	"2"	"22"
n/a	"html-keyboard-response"	"228"	"374046"	"0.0-6.0-2.0-0.22"	"a9smvc"	"600"	"1024"	"chrome"	"111.0.0"	"FALSE"	"Windows 10"	"60.68"	"057"	n/a	n/a	n/a	n/a	n/a	n/a	"fixation"	n/a	n/a	n/a	n/a	"NULL"	n/a	"NULL"	"NULL"	"NULL"	"<p style=\"color: black; font-size: 80px; padding-left: 45%; padding-right: 23%; padding-top: 23%; padding-bottom: 37%\">+</p>"	"1363"	n/a	n/a	n/a	n/a	n/a	n/a	n/a	n/a	n/a
n/a	"image-keyboard-response"	"229"	"374532"	"0.0-6.0-2.0-1.22"	"a9smvc"	"600"	"1024"	"chrome"	"111.0.0"	"FALSE"	"Windows 10"	"60.68"	"057"	n/a	n/a	n/a	n/a	n/a	n/a	"Trial"	n/a	n/a	n/a	"485"	"arrowleft"	n/a	"NULL"	"NULL"	"NULL"	"stimuli/VerticalHorizontal_-3.3000_0.16217.png"	n/a	"VerticalHorizontal"	"arrowleft"	"1376"	"TRUE"	"VerticalHorizontal"	"-3.300000000"	"0.1621700000"	"2"	"23"
n/a	"html-keyboard-response"	"230"	"375876"	"0.0-6.0-2.0-0.23"	"a9smvc"	"600"	"1024"	"chrome"	"111.0.0"	"FALSE"	"Windows 10"	"60.68"	"057"	n/a	n/a	n/a	n/a	n/a	n/a	"fixation"	n/a	n/a	n/a	n/a	"NULL"	n/a	"NULL"	"NULL"	"NULL"	"<p style=\"color: black; font-size: 80px; padding-left: 46%; padding-right: 32%; padding-top: 46%; padding-bottom: 14%\">+</p>"	"1330"	n/a	n/a	n/a	n/a	n/a	n/a	n/a	n/a	n/a
n/a	"image-keyboard-response"	"231"	"376290"	"0.0-6.0-2.0-1.23"	"a9smvc"	"600"	"1024"	"chrome"	"111.0.0"	"FALSE"	"Windows 10"	"60.68"	"057"	n/a	n/a	n/a	n/a	n/a	n/a	"Trial"	n/a	n/a	n/a	"413"	"arrowleft"	n/a	"NULL"	"NULL"	"NULL"	"stimuli/VerticalHorizontal_11.78571_-0.0673.png"	n/a	"VerticalHorizontal"	"arrowright"	"1344"	"FALSE"	"VerticalHorizontal"	"11.785710000"	"-0.067300000"	"2"	"24"
n/a	"html-keyboard-response"	"232"	"377531"	"0.0-6.0-2.0-0.24"	"a9smvc"	"600"	"1024"	"chrome"	"111.0.0"	"FALSE"	"Windows 10"	"60.68"	"057"	n/a	n/a	n/a	n/a	n/a	n/a	"fixation"	n/a	n/a	n/a	n/a	"NULL"	n/a	"NULL"	"NULL"	"NULL"	"<p style=\"color: black; font-size: 80px; padding-left: 2%; padding-right: 2%; padding-top: 15%; padding-bottom: 18%\">+</p>"	"1236"	n/a	n/a	n/a	n/a	n/a	n/a	n/a	n/a	n/a
n/a	"image-keyboard-response"	"233"	"378116"	"0.0-6.0-2.0-1.24"	"a9smvc"	"600"	"1024"	"chrome"	"111.0.0"	"FALSE"	"Windows 10"	"60.68"	"057"	n/a	n/a	n/a	n/a	n/a	n/a	"Trial"	n/a	n/a	n/a	"584"	"arrowright"	n/a	"NULL"	"NULL"	"NULL"	"stimuli/VerticalHorizontal_3.30000_-0.0673.png"	n/a	"VerticalHorizontal"	"arrowright"	"1241"	"TRUE"	"VerticalHorizontal"	"3.3000000000"	"-0.067300000"	"2"	"25"
n/a	"html-keyboard-response"	"234"	"379410"	"0.0-6.0-2.0-0.25"	"a9smvc"	"600"	"1024"	"chrome"	"111.0.0"	"FALSE"	"Windows 10"	"60.68"	"057"	n/a	n/a	n/a	n/a	n/a	n/a	"fixation"	n/a	n/a	n/a	n/a	"NULL"	n/a	"NULL"	"NULL"	"NULL"	"<p style=\"color: black; font-size: 80px; padding-left: 32%; padding-right: 12%; padding-top: 1%; padding-bottom: 11%\">+</p>"	"1287"	n/a	n/a	n/a	n/a	n/a	n/a	n/a	n/a	n/a
n/a	"image-keyboard-response"	"235"	"380008"	"0.0-6.0-2.0-1.25"	"a9smvc"	"600"	"1024"	"chrome"	"111.0.0"	"FALSE"	"Windows 10"	"60.68"	"057"	n/a	n/a	n/a	n/a	n/a	n/a	"Trial"	n/a	n/a	n/a	"595"	"arrowleft"	n/a	"NULL"	"NULL"	"NULL"	"stimuli/VerticalHorizontal_-11.78571_0.06730.png"	n/a	"VerticalHorizontal"	"arrowleft"	"1294"	"TRUE"	"VerticalHorizontal"	"-11.78571000"	"0.0673000000"	"2"	"26"
n/a	"html-keyboard-response"	"236"	"381497"	"0.0-6.0-2.0-0.26"	"a9smvc"	"600"	"1024"	"chrome"	"111.0.0"	"FALSE"	"Windows 10"	"60.68"	"057"	n/a	n/a	n/a	n/a	n/a	n/a	"fixation"	n/a	n/a	n/a	n/a	"NULL"	n/a	"NULL"	"NULL"	"NULL"	"<p style=\"color: black; font-size: 80px; padding-left: 34%; padding-right: 37%; padding-top: 16%; padding-bottom: 43%\">+</p>"	"1480"	n/a	n/a	n/a	n/a	n/a	n/a	n/a	n/a	n/a
n/a	"image-keyboard-response"	"237"	"381960"	"0.0-6.0-2.0-1.26"	"a9smvc"	"600"	"1024"	"chrome"	"111.0.0"	"FALSE"	"Windows 10"	"60.68"	"057"	n/a	n/a	n/a	n/a	n/a	n/a	"Trial"	n/a	n/a	n/a	"463"	"arrowleft"	n/a	"NULL"	"NULL"	"NULL"	"stimuli/VerticalHorizontal_-28.75714_0.22500.png"	n/a	"VerticalHorizontal"	"arrowleft"	"1489"	"TRUE"	"VerticalHorizontal"	"-28.75714000"	"0.2250000000"	"2"	"27"
n/a	"html-keyboard-response"	"238"	"383388"	"0.0-6.0-2.0-0.27"	"a9smvc"	"600"	"1024"	"chrome"	"111.0.0"	"FALSE"	"Windows 10"	"60.68"	"057"	n/a	n/a	n/a	n/a	n/a	n/a	"fixation"	n/a	n/a	n/a	n/a	"NULL"	n/a	"NULL"	"NULL"	"NULL"	"<p style=\"color: black; font-size: 80px; padding-left: 42%; padding-right: 16%; padding-top: 15%; padding-bottom: 21%\">+</p>"	"1420"	n/a	n/a	n/a	n/a	n/a	n/a	n/a	n/a	n/a
n/a	"image-keyboard-response"	"239"	"383832"	"0.0-6.0-2.0-1.27"	"a9smvc"	"600"	"1024"	"chrome"	"111.0.0"	"FALSE"	"Windows 10"	"60.68"	"057"	n/a	n/a	n/a	n/a	n/a	n/a	"Trial"	n/a	n/a	n/a	"443"	"arrowright"	n/a	"NULL"	"NULL"	"NULL"	"stimuli/VerticalHorizontal_-20.27143_-0.16217.png"	n/a	"VerticalHorizontal"	"arrowright"	"1428"	"TRUE"	"VerticalHorizontal"	"-20.27143000"	"-0.162170000"	"2"	"28"
n/a	"html-keyboard-response"	"240"	"385041"	"0.0-6.0-2.0-0.28"	"a9smvc"	"600"	"1024"	"chrome"	"111.0.0"	"FALSE"	"Windows 10"	"60.68"	"057"	n/a	n/a	n/a	n/a	n/a	n/a	"fixation"	n/a	n/a	n/a	n/a	"NULL"	n/a	"NULL"	"NULL"	"NULL"	"<p style=\"color: black; font-size: 80px; padding-left: 37%; padding-right: 18%; padding-top: 6%; padding-bottom: 46%\">+</p>"	"1207"	n/a	n/a	n/a	n/a	n/a	n/a	n/a	n/a	n/a
n/a	"image-keyboard-response"	"241"	"385502"	"0.0-6.0-2.0-1.28"	"a9smvc"	"600"	"1024"	"chrome"	"111.0.0"	"FALSE"	"Windows 10"	"60.68"	"057"	n/a	n/a	n/a	n/a	n/a	n/a	"Trial"	n/a	n/a	n/a	"460"	"arrowright"	n/a	"NULL"	"NULL"	"NULL"	"stimuli/VerticalHorizontal_20.27143_0.16217.png"	n/a	"VerticalHorizontal"	"arrowleft"	"1209"	"FALSE"	"VerticalHorizontal"	"20.271430000"	"0.1621700000"	"2"	"29"
n/a	"html-keyboard-response"	"242"	"386633"	"0.0-6.0-2.0-0.29"	"a9smvc"	"600"	"1024"	"chrome"	"111.0.0"	"FALSE"	"Windows 10"	"60.68"	"057"	n/a	n/a	n/a	n/a	n/a	n/a	"fixation"	n/a	n/a	n/a	n/a	"NULL"	n/a	"NULL"	"NULL"	"NULL"	"<p style=\"color: black; font-size: 80px; padding-left: 16%; padding-right: 49%; padding-top: 40%; padding-bottom: 2%\">+</p>"	"1130"	n/a	n/a	n/a	n/a	n/a	n/a	n/a	n/a	n/a
n/a	"image-keyboard-response"	"243"	"387125"	"0.0-6.0-2.0-1.29"	"a9smvc"	"600"	"1024"	"chrome"	"111.0.0"	"FALSE"	"Windows 10"	"60.68"	"057"	n/a	n/a	n/a	n/a	n/a	n/a	"Trial"	n/a	n/a	n/a	"491"	"arrowright"	n/a	"NULL"	"NULL"	"NULL"	"stimuli/VerticalHorizontal_28.75714_0.10960.png"	n/a	"VerticalHorizontal"	"arrowleft"	"1131"	"FALSE"	"VerticalHorizontal"	"28.757140000"	"0.1096000000"	"2"	"30"
n/a	"html-keyboard-response"	"244"	"388417"	"0.0-6.0-2.0-0.30"	"a9smvc"	"600"	"1024"	"chrome"	"111.0.0"	"FALSE"	"Windows 10"	"60.68"	"057"	n/a	n/a	n/a	n/a	n/a	n/a	"fixation"	n/a	n/a	n/a	n/a	"NULL"	n/a	"NULL"	"NULL"	"NULL"	"<p style=\"color: black; font-size: 80px; padding-left: 42%; padding-right: 1%; padding-top: 45%; padding-bottom: 35%\">+</p>"	"1290"	n/a	n/a	n/a	n/a	n/a	n/a	n/a	n/a	n/a
n/a	"image-keyboard-response"	"245"	"389033"	"0.0-6.0-2.0-1.30"	"a9smvc"	"600"	"1024"	"chrome"	"111.0.0"	"FALSE"	"Windows 10"	"60.68"	"057"	n/a	n/a	n/a	n/a	n/a	n/a	"Trial"	n/a	n/a	n/a	"615"	"arrowleft"	n/a	"NULL"	"NULL"	"NULL"	"stimuli/VerticalHorizontal_11.78571_0.10960.png"	n/a	"VerticalHorizontal"	"arrowleft"	"1292"	"TRUE"	"VerticalHorizontal"	"11.785710000"	"0.1096000000"	"2"	"31"
n/a	"html-keyboard-response"	"246"	"390225"	"0.0-6.0-2.0-0.31"	"a9smvc"	"600"	"1024"	"chrome"	"111.0.0"	"FALSE"	"Windows 10"	"60.68"	"057"	n/a	n/a	n/a	n/a	n/a	n/a	"fixation"	n/a	n/a	n/a	n/a	"NULL"	n/a	"NULL"	"NULL"	"NULL"	"<p style=\"color: black; font-size: 80px; padding-left: 2%; padding-right: 1%; padding-top: 19%; padding-bottom: 49%\">+</p>"	"1179"	n/a	n/a	n/a	n/a	n/a	n/a	n/a	n/a	n/a
n/a	"image-keyboard-response"	"247"	"390729"	"0.0-6.0-2.0-1.31"	"a9smvc"	"600"	"1024"	"chrome"	"111.0.0"	"FALSE"	"Windows 10"	"60.68"	"057"	n/a	n/a	n/a	n/a	n/a	n/a	"Trial"	n/a	n/a	n/a	"503"	"arrowright"	n/a	"NULL"	"NULL"	"NULL"	"stimuli/VerticalHorizontal_-28.75714_-0.1096.png"	n/a	"VerticalHorizontal"	"arrowright"	"1192"	"TRUE"	"VerticalHorizontal"	"-28.75714000"	"-0.109600000"	"2"	"32"
n/a	"html-keyboard-response"	"248"	"392115"	"0.0-6.0-2.0-0.32"	"a9smvc"	"600"	"1024"	"chrome"	"111.0.0"	"FALSE"	"Windows 10"	"60.68"	"057"	n/a	n/a	n/a	n/a	n/a	n/a	"fixation"	n/a	n/a	n/a	n/a	"NULL"	n/a	"NULL"	"NULL"	"NULL"	"<p style=\"color: black; font-size: 80px; padding-left: 40%; padding-right: 46%; padding-top: 42%; padding-bottom: 35%\">+</p>"	"1385"	n/a	n/a	n/a	n/a	n/a	n/a	n/a	n/a	n/a
n/a	"image-keyboard-response"	"249"	"392556"	"0.0-6.0-2.0-1.32"	"a9smvc"	"600"	"1024"	"chrome"	"111.0.0"	"FALSE"	"Windows 10"	"60.68"	"057"	n/a	n/a	n/a	n/a	n/a	n/a	"Trial"	n/a	n/a	n/a	"441"	"arrowleft"	n/a	"NULL"	"NULL"	"NULL"	"stimuli/VerticalHorizontal_28.75714_-0.0673.png"	n/a	"VerticalHorizontal"	"arrowright"	"1386"	"FALSE"	"VerticalHorizontal"	"28.757140000"	"-0.067300000"	"2"	"33"
n/a	"html-keyboard-response"	"250"	"393624"	"0.0-6.0-2.0-0.33"	"a9smvc"	"600"	"1024"	"chrome"	"111.0.0"	"FALSE"	"Windows 10"	"60.68"	"057"	n/a	n/a	n/a	n/a	n/a	n/a	"fixation"	n/a	n/a	n/a	n/a	"NULL"	n/a	"NULL"	"NULL"	"NULL"	"<p style=\"color: black; font-size: 80px; padding-left: 13%; padding-right: 7%; padding-top: 13%; padding-bottom: 22%\">+</p>"	"1065"	n/a	n/a	n/a	n/a	n/a	n/a	n/a	n/a	n/a
n/a	"image-keyboard-response"	"251"	"394451"	"0.0-6.0-2.0-1.33"	"a9smvc"	"600"	"1024"	"chrome"	"111.0.0"	"FALSE"	"Windows 10"	"60.68"	"057"	n/a	n/a	n/a	n/a	n/a	n/a	"Trial"	n/a	n/a	n/a	"826"	"arrowleft"	n/a	"NULL"	"NULL"	"NULL"	"stimuli/VerticalHorizontal_28.75714_-0.1096.png"	n/a	"VerticalHorizontal"	"arrowright"	"1068"	"FALSE"	"VerticalHorizontal"	"28.757140000"	"-0.109600000"	"2"	"34"
