"success"	"trial_type"	"trial_index"	"time_elapsed"	"internal_node_id"	"participant_id"	"screen_height"	"screen_width"	"browser"	"browser_version"	"mobile"	"os"	"vsync_rate"	"subject_id"	"width"	"height"	"webaudio"	"fullscreen"	"webcam"	"microphone"	"screen"	"version"	"date"	"time"	"rt"	"response"	"timeout"	"failed_images"	"failed_audio"	"failed_video"	"stimulus"	"trial_duration"	"block"	"correct_response"	"prestimulus_duration"	"correct"	"type"	"illusion_strength"	"illusion_difference"	"block_number"	"trial_number"
"TRUE"	"fullscreen"	"0"	"1677"	"0.0-0.0"	"fcdggm"	"600"	"1366"	"chrome"	"111.0.0"	"FALSE"	"Windows 10"	"60.19"	"060"	n/a	n/a	n/a	n/a	n/a	n/a	n/a	n/a	n/a	n/a	n/a	"NULL"	n/a	"NULL"	"NULL"	"NULL"	n/a	n/a	n/a	n/a	n/a	n/a	n/a	n/a	n/a	n/a	n/a
n/a	"browser-check"	"1"	"2685"	"0.0-1.0"	"fcdggm"	"600"	"1366"	"chrome"	"111.0.0"	"FALSE"	"Windows 10"	"60.19"	"060"	"1366"	"600"	"TRUE"	"TRUE"	"TRUE"	"TRUE"	"browser_info"	"1.0"	"27/03/2023"	"14:23:41"	n/a	"NULL"	n/a	"NULL"	"NULL"	"NULL"	n/a	n/a	n/a	n/a	n/a	n/a	n/a	n/a	n/a	n/a	n/a
n/a	"survey-text"	"2"	"9335"	"0.0-2.0"	"fcdggm"	"600"	"1366"	"chrome"	"111.0.0"	"FALSE"	"Windows 10"	"60.19"	"060"	n/a	n/a	n/a	n/a	n/a	n/a	"subject_id"	n/a	n/a	n/a	"6648"	"list(subject_id = \"060\")"	n/a	"NULL"	"NULL"	"NULL"	n/a	n/a	n/a	n/a	n/a	n/a	n/a	n/a	n/a	n/a	n/a
"TRUE"	"preload"	"3"	"9345"	"0.0-3.0"	"fcdggm"	"600"	"1366"	"chrome"	"111.0.0"	"FALSE"	"Windows 10"	"60.19"	"060"	n/a	n/a	n/a	n/a	n/a	n/a	n/a	n/a	n/a	n/a	n/a	"NULL"	"FALSE"	"list()"	"list()"	"list()"	n/a	n/a	n/a	n/a	n/a	n/a	n/a	n/a	n/a	n/a	n/a
n/a	"html-button-response"	"4"	"43472"	"0.0-4.0-0.0"	"fcdggm"	"600"	"1366"	"chrome"	"111.0.0"	"FALSE"	"Windows 10"	"60.19"	"060"	n/a	n/a	n/a	n/a	n/a	n/a	"illusion_instructions"	n/a	n/a	n/a	"34127"	"0"	n/a	"NULL"	"NULL"	"NULL"	"<p><b>Illusion Game</b></p><p>In this game of speed and reflex, you will need to make <b>visual judgments</b> (for instance, which circle is the biggest, or which line is the longest), as fast and as correctly as possible, while <b>resisting different visual illusions</b>.</p><p>We are going to start with some examples of all the illusions you will encounter in the game.</p>"	n/a	n/a	n/a	n/a	n/a	n/a	n/a	n/a	n/a	n/a
"TRUE"	"preload"	"5"	"43490"	"0.0-4.0-1.0-0.0"	"fcdggm"	"600"	"1366"	"chrome"	"111.0.0"	"FALSE"	"Windows 10"	"60.19"	"060"	n/a	n/a	n/a	n/a	n/a	n/a	n/a	n/a	n/a	n/a	n/a	"NULL"	"FALSE"	"list()"	"list()"	"list()"	n/a	n/a	n/a	n/a	n/a	n/a	n/a	n/a	n/a	n/a	n/a
n/a	"html-keyboard-response"	"6"	"63194"	"0.0-4.0-1.0-1.0"	"fcdggm"	"600"	"1366"	"chrome"	"111.0.0"	"FALSE"	"Windows 10"	"60.19"	"060"	n/a	n/a	n/a	n/a	n/a	n/a	n/a	n/a	n/a	n/a	"19703"	"enter"	n/a	"NULL"	"NULL"	"NULL"	"<p><b>Practice</b></p><p>In this part, two red circles will appear side by side on the screen.</p><p>Your task is to select which <b>red circle is bigger</b> in size as fast as you can, without making errors.</p><p>Don't get distracted by the surrounding black circles around the red circles!</p><p>Press <b>the LEFT or the RIGHT arrow</b> to indicate which is the bigger <b>red circle.</b></p><div style='float: center'><img src='materials/instructions/Ebbinghaus_Demo.png' height='300'></img><p><img src='utils/answer/answer_leftright_keyboard.PNG' height='150'></img></p><p class='small'>In this example, the correct answer is the <b>LEFT arrow</b>.</p></div><p>Are you ready? <b>Press ENTER to start</b></p>"	n/a	n/a	n/a	n/a	n/a	n/a	n/a	n/a	n/a	n/a
n/a	"html-keyboard-response"	"7"	"65106"	"0.0-4.0-1.0-2.0-0.0"	"fcdggm"	"600"	"1366"	"chrome"	"111.0.0"	"FALSE"	"Windows 10"	"60.19"	"060"	n/a	n/a	n/a	n/a	n/a	n/a	"fixation"	n/a	n/a	n/a	n/a	"NULL"	n/a	"NULL"	"NULL"	"NULL"	"<p style=\"color: black; font-size: 80px; padding-left: 27%; padding-right: 13%; padding-top: 29%; padding-bottom: 48%\">+</p>"	"1396"	n/a	n/a	n/a	n/a	n/a	n/a	n/a	n/a	n/a
n/a	"image-keyboard-response"	"8"	"65712"	"0.0-4.0-1.0-2.0-1.0"	"fcdggm"	"600"	"1366"	"chrome"	"111.0.0"	"FALSE"	"Windows 10"	"60.19"	"060"	n/a	n/a	n/a	n/a	n/a	n/a	"Trial"	n/a	n/a	n/a	"605"	"arrowright"	n/a	"NULL"	"NULL"	"NULL"	"stimuli/Ebbinghaus_0000000_-1.4000.png"	n/a	"Ebbinghaus"	"arrowright"	"1912"	"TRUE"	"Ebbinghaus"	"000000000000"	"-1.400000000"	"1"	"1"
n/a	"html-keyboard-response"	"9"	"66884"	"0.0-4.0-1.0-2.0-0.1"	"fcdggm"	"600"	"1366"	"chrome"	"111.0.0"	"FALSE"	"Windows 10"	"60.19"	"060"	n/a	n/a	n/a	n/a	n/a	n/a	"fixation"	n/a	n/a	n/a	n/a	"NULL"	n/a	"NULL"	"NULL"	"NULL"	"<p style=\"color: black; font-size: 80px; padding-left: 21%; padding-right: 26%; padding-top: 45%; padding-bottom: 39%\">+</p>"	"1166"	n/a	n/a	n/a	n/a	n/a	n/a	n/a	n/a	n/a
n/a	"image-keyboard-response"	"10"	"67373"	"0.0-4.0-1.0-2.0-1.1"	"fcdggm"	"600"	"1366"	"chrome"	"111.0.0"	"FALSE"	"Windows 10"	"60.19"	"060"	n/a	n/a	n/a	n/a	n/a	n/a	"Trial"	n/a	n/a	n/a	"489"	"arrowright"	n/a	"NULL"	"NULL"	"NULL"	"stimuli/Ebbinghaus_-100000_-1.4000.png"	n/a	"Ebbinghaus"	"arrowright"	"1172"	"TRUE"	"Ebbinghaus"	"-10000000000"	"-1.400000000"	"1"	"2"
n/a	"html-keyboard-response"	"11"	"68794"	"0.0-4.0-1.0-2.0-0.2"	"fcdggm"	"600"	"1366"	"chrome"	"111.0.0"	"FALSE"	"Windows 10"	"60.19"	"060"	n/a	n/a	n/a	n/a	n/a	n/a	"fixation"	n/a	n/a	n/a	n/a	"NULL"	n/a	"NULL"	"NULL"	"NULL"	"<p style=\"color: black; font-size: 80px; padding-left: 7%; padding-right: 3%; padding-top: 22%; padding-bottom: 1%\">+</p>"	"1407"	n/a	n/a	n/a	n/a	n/a	n/a	n/a	n/a	n/a
n/a	"image-keyboard-response"	"12"	"69315"	"0.0-4.0-1.0-2.0-1.2"	"fcdggm"	"600"	"1366"	"chrome"	"111.0.0"	"FALSE"	"Windows 10"	"60.19"	"060"	n/a	n/a	n/a	n/a	n/a	n/a	"Trial"	n/a	n/a	n/a	"520"	"arrowleft"	n/a	"NULL"	"NULL"	"NULL"	"stimuli/Ebbinghaus_-100000_1.40000.png"	n/a	"Ebbinghaus"	"arrowleft"	"1421"	"TRUE"	"Ebbinghaus"	"-10000000000"	"1.4000000000"	"1"	"3"
n/a	"html-keyboard-response"	"13"	"70530"	"0.0-4.0-1.0-2.0-0.3"	"fcdggm"	"600"	"1366"	"chrome"	"111.0.0"	"FALSE"	"Windows 10"	"60.19"	"060"	n/a	n/a	n/a	n/a	n/a	n/a	"fixation"	n/a	n/a	n/a	n/a	"NULL"	n/a	"NULL"	"NULL"	"NULL"	"<p style=\"color: black; font-size: 80px; padding-left: 31%; padding-right: 17%; padding-top: 12%; padding-bottom: 22%\">+</p>"	"1202"	n/a	n/a	n/a	n/a	n/a	n/a	n/a	n/a	n/a
n/a	"image-keyboard-response"	"14"	"70950"	"0.0-4.0-1.0-2.0-1.3"	"fcdggm"	"600"	"1366"	"chrome"	"111.0.0"	"FALSE"	"Windows 10"	"60.19"	"060"	n/a	n/a	n/a	n/a	n/a	n/a	"Trial"	n/a	n/a	n/a	"420"	"arrowleft"	n/a	"NULL"	"NULL"	"NULL"	"stimuli/Ebbinghaus_1000000_1.40000.png"	n/a	"Ebbinghaus"	"arrowleft"	"1215"	"TRUE"	"Ebbinghaus"	"100000000000"	"1.4000000000"	"1"	"4"
n/a	"html-keyboard-response"	"15"	"72342"	"0.0-4.0-1.0-2.0-0.4"	"fcdggm"	"600"	"1366"	"chrome"	"111.0.0"	"FALSE"	"Windows 10"	"60.19"	"060"	n/a	n/a	n/a	n/a	n/a	n/a	"fixation"	n/a	n/a	n/a	n/a	"NULL"	n/a	"NULL"	"NULL"	"NULL"	"<p style=\"color: black; font-size: 80px; padding-left: 2%; padding-right: 10%; padding-top: 17%; padding-bottom: 0%\">+</p>"	"1388"	n/a	n/a	n/a	n/a	n/a	n/a	n/a	n/a	n/a
n/a	"image-keyboard-response"	"16"	"72795"	"0.0-4.0-1.0-2.0-1.4"	"fcdggm"	"600"	"1366"	"chrome"	"111.0.0"	"FALSE"	"Windows 10"	"60.19"	"060"	n/a	n/a	n/a	n/a	n/a	n/a	"Trial"	n/a	n/a	n/a	"453"	"arrowleft"	n/a	"NULL"	"NULL"	"NULL"	"stimuli/Ebbinghaus_0000000_1.40000.png"	n/a	"Ebbinghaus"	"arrowleft"	"1392"	"TRUE"	"Ebbinghaus"	"000000000000"	"1.4000000000"	"1"	"5"
n/a	"html-keyboard-response"	"17"	"73934"	"0.0-4.0-1.0-2.0-0.5"	"fcdggm"	"600"	"1366"	"chrome"	"111.0.0"	"FALSE"	"Windows 10"	"60.19"	"060"	n/a	n/a	n/a	n/a	n/a	n/a	"fixation"	n/a	n/a	n/a	n/a	"NULL"	n/a	"NULL"	"NULL"	"NULL"	"<p style=\"color: black; font-size: 80px; padding-left: 45%; padding-right: 12%; padding-top: 26%; padding-bottom: 25%\">+</p>"	"1129"	n/a	n/a	n/a	n/a	n/a	n/a	n/a	n/a	n/a
n/a	"image-keyboard-response"	"18"	"74401"	"0.0-4.0-1.0-2.0-1.5"	"fcdggm"	"600"	"1366"	"chrome"	"111.0.0"	"FALSE"	"Windows 10"	"60.19"	"060"	n/a	n/a	n/a	n/a	n/a	n/a	"Trial"	n/a	n/a	n/a	"466"	"arrowright"	n/a	"NULL"	"NULL"	"NULL"	"stimuli/Ebbinghaus_1000000_-1.4000.png"	n/a	"Ebbinghaus"	"arrowright"	"1139"	"TRUE"	"Ebbinghaus"	"100000000000"	"-1.400000000"	"1"	"6"
n/a	"html-button-response"	"19"	"79281"	"0.0-4.0-1.0-3.0"	"fcdggm"	"600"	"1366"	"chrome"	"111.0.0"	"FALSE"	"Windows 10"	"60.19"	"060"	n/a	n/a	n/a	n/a	n/a	n/a	"practice_block_results"	n/a	n/a	n/a	"4879"	"0"	n/a	"NULL"	"NULL"	"NULL"	"<p style='color:rgb(76,175,80);'> Correct Responses: <b>100.00%</b></p><hr><p style='color:rgb(233,30,99);'> Average Response Time: <b>492.17</b> ms.</p>"	n/a	n/a	n/a	n/a	n/a	n/a	n/a	n/a	n/a	n/a
"TRUE"	"preload"	"20"	"79798"	"0.0-4.0-2.0-0.0"	"fcdggm"	"600"	"1366"	"chrome"	"111.0.0"	"FALSE"	"Windows 10"	"60.19"	"060"	n/a	n/a	n/a	n/a	n/a	n/a	n/a	n/a	n/a	n/a	n/a	"NULL"	"FALSE"	"list()"	"list()"	"list()"	n/a	n/a	n/a	n/a	n/a	n/a	n/a	n/a	n/a	n/a	n/a
n/a	"html-keyboard-response"	"21"	"86785"	"0.0-4.0-2.0-1.0"	"fcdggm"	"600"	"1366"	"chrome"	"111.0.0"	"FALSE"	"Windows 10"	"60.19"	"060"	n/a	n/a	n/a	n/a	n/a	n/a	n/a	n/a	n/a	n/a	"6987"	"enter"	n/a	"NULL"	"NULL"	"NULL"	"<p><b>Practice</b></p><p>In this part, two horizontal red lines will appear one above the other.</p><p>Your task is to select which <b>line is longer</b> in length as fast as you can, without making errors.</p><p>Don't get distracted by the surrounding black arrows at the end of the red lines!</p><p>Press <b>the UP or the DOWN arrow</b> to indicate where is the longer <b>red line.</b></p><div style='float: center'><img src='materials/instructions/MullerLyer_Demo.png' height='300'></img><p><img src='utils/answer/answer_updown_keyboard.PNG' height='150'></img></p><p class='small'>In this example, the correct answer is the <b>UP arrow</b>.</p></div><p>Are you ready? <b>Press ENTER to start</b></p>"	n/a	n/a	n/a	n/a	n/a	n/a	n/a	n/a	n/a	n/a
n/a	"html-keyboard-response"	"22"	"88528"	"0.0-4.0-2.0-2.0-0.0"	"fcdggm"	"600"	"1366"	"chrome"	"111.0.0"	"FALSE"	"Windows 10"	"60.19"	"060"	n/a	n/a	n/a	n/a	n/a	n/a	"fixation"	n/a	n/a	n/a	n/a	"NULL"	n/a	"NULL"	"NULL"	"NULL"	"<p style=\"color: black; font-size: 80px; padding-left: 31%; padding-right: 20%; padding-top: 25%; padding-bottom: 17%\">+</p>"	"1227"	n/a	n/a	n/a	n/a	n/a	n/a	n/a	n/a	n/a
n/a	"image-keyboard-response"	"23"	"89006"	"0.0-4.0-2.0-2.0-1.0"	"fcdggm"	"600"	"1366"	"chrome"	"111.0.0"	"FALSE"	"Windows 10"	"60.19"	"060"	n/a	n/a	n/a	n/a	n/a	n/a	"Trial"	n/a	n/a	n/a	"477"	"arrowup"	n/a	"NULL"	"NULL"	"NULL"	"stimuli/MullerLyer_-230000_0.70000.png"	n/a	"MullerLyer"	"arrowup"	"1743"	"TRUE"	"MullerLyer"	"-23000000000"	"0.7000000000"	"1"	"7"
n/a	"html-keyboard-response"	"24"	"90182"	"0.0-4.0-2.0-2.0-0.1"	"fcdggm"	"600"	"1366"	"chrome"	"111.0.0"	"FALSE"	"Windows 10"	"60.19"	"060"	n/a	n/a	n/a	n/a	n/a	n/a	"fixation"	n/a	n/a	n/a	n/a	"NULL"	n/a	"NULL"	"NULL"	"NULL"	"<p style=\"color: black; font-size: 80px; padding-left: 30%; padding-right: 21%; padding-top: 38%; padding-bottom: 17%\">+</p>"	"1171"	n/a	n/a	n/a	n/a	n/a	n/a	n/a	n/a	n/a
n/a	"image-keyboard-response"	"25"	"90752"	"0.0-4.0-2.0-2.0-1.1"	"fcdggm"	"600"	"1366"	"chrome"	"111.0.0"	"FALSE"	"Windows 10"	"60.19"	"060"	n/a	n/a	n/a	n/a	n/a	n/a	"Trial"	n/a	n/a	n/a	"570"	"arrowdown"	n/a	"NULL"	"NULL"	"NULL"	"stimuli/MullerLyer_2300000_-0.7000.png"	n/a	"MullerLyer"	"arrowdown"	"1176"	"TRUE"	"MullerLyer"	"230000000000"	"-0.700000000"	"1"	"8"
n/a	"html-keyboard-response"	"26"	"92075"	"0.0-4.0-2.0-2.0-0.2"	"fcdggm"	"600"	"1366"	"chrome"	"111.0.0"	"FALSE"	"Windows 10"	"60.19"	"060"	n/a	n/a	n/a	n/a	n/a	n/a	"fixation"	n/a	n/a	n/a	n/a	"NULL"	n/a	"NULL"	"NULL"	"NULL"	"<p style=\"color: black; font-size: 80px; padding-left: 26%; padding-right: 26%; padding-top: 2%; padding-bottom: 49%\">+</p>"	"1317"	n/a	n/a	n/a	n/a	n/a	n/a	n/a	n/a	n/a
n/a	"image-keyboard-response"	"27"	"92529"	"0.0-4.0-2.0-2.0-1.2"	"fcdggm"	"600"	"1366"	"chrome"	"111.0.0"	"FALSE"	"Windows 10"	"60.19"	"060"	n/a	n/a	n/a	n/a	n/a	n/a	"Trial"	n/a	n/a	n/a	"453"	"arrowup"	n/a	"NULL"	"NULL"	"NULL"	"stimuli/MullerLyer_2300000_0.70000.png"	n/a	"MullerLyer"	"arrowup"	"1323"	"TRUE"	"MullerLyer"	"230000000000"	"0.7000000000"	"1"	"9"
n/a	"html-keyboard-response"	"28"	"93951"	"0.0-4.0-2.0-2.0-0.3"	"fcdggm"	"600"	"1366"	"chrome"	"111.0.0"	"FALSE"	"Windows 10"	"60.19"	"060"	n/a	n/a	n/a	n/a	n/a	n/a	"fixation"	n/a	n/a	n/a	n/a	"NULL"	n/a	"NULL"	"NULL"	"NULL"	"<p style=\"color: black; font-size: 80px; padding-left: 11%; padding-right: 22%; padding-top: 44%; padding-bottom: 12%\">+</p>"	"1421"	n/a	n/a	n/a	n/a	n/a	n/a	n/a	n/a	n/a
n/a	"image-keyboard-response"	"29"	"94454"	"0.0-4.0-2.0-2.0-1.3"	"fcdggm"	"600"	"1366"	"chrome"	"111.0.0"	"FALSE"	"Windows 10"	"60.19"	"060"	n/a	n/a	n/a	n/a	n/a	n/a	"Trial"	n/a	n/a	n/a	"502"	"arrowup"	n/a	"NULL"	"NULL"	"NULL"	"stimuli/MullerLyer_0000000_0.70000.png"	n/a	"MullerLyer"	"arrowup"	"1422"	"TRUE"	"MullerLyer"	"000000000000"	"0.7000000000"	"1"	"10"
n/a	"html-keyboard-response"	"30"	"95717"	"0.0-4.0-2.0-2.0-0.4"	"fcdggm"	"600"	"1366"	"chrome"	"111.0.0"	"FALSE"	"Windows 10"	"60.19"	"060"	n/a	n/a	n/a	n/a	n/a	n/a	"fixation"	n/a	n/a	n/a	n/a	"NULL"	n/a	"NULL"	"NULL"	"NULL"	"<p style=\"color: black; font-size: 80px; padding-left: 6%; padding-right: 9%; padding-top: 0%; padding-bottom: 26%\">+</p>"	"1256"	n/a	n/a	n/a	n/a	n/a	n/a	n/a	n/a	n/a
n/a	"image-keyboard-response"	"31"	"96119"	"0.0-4.0-2.0-2.0-1.4"	"fcdggm"	"600"	"1366"	"chrome"	"111.0.0"	"FALSE"	"Windows 10"	"60.19"	"060"	n/a	n/a	n/a	n/a	n/a	n/a	"Trial"	n/a	n/a	n/a	"401"	"arrowdown"	n/a	"NULL"	"NULL"	"NULL"	"stimuli/MullerLyer_0000000_-0.7000.png"	n/a	"MullerLyer"	"arrowdown"	"1263"	"TRUE"	"MullerLyer"	"000000000000"	"-0.700000000"	"1"	"11"
n/a	"html-keyboard-response"	"32"	"97228"	"0.0-4.0-2.0-2.0-0.5"	"fcdggm"	"600"	"1366"	"chrome"	"111.0.0"	"FALSE"	"Windows 10"	"60.19"	"060"	n/a	n/a	n/a	n/a	n/a	n/a	"fixation"	n/a	n/a	n/a	n/a	"NULL"	n/a	"NULL"	"NULL"	"NULL"	"<p style=\"color: black; font-size: 80px; padding-left: 14%; padding-right: 47%; padding-top: 35%; padding-bottom: 37%\">+</p>"	"1093"	n/a	n/a	n/a	n/a	n/a	n/a	n/a	n/a	n/a
n/a	"image-keyboard-response"	"33"	"97656"	"0.0-4.0-2.0-2.0-1.5"	"fcdggm"	"600"	"1366"	"chrome"	"111.0.0"	"FALSE"	"Windows 10"	"60.19"	"060"	n/a	n/a	n/a	n/a	n/a	n/a	"Trial"	n/a	n/a	n/a	"427"	"arrowdown"	n/a	"NULL"	"NULL"	"NULL"	"stimuli/MullerLyer_-230000_-0.7000.png"	n/a	"MullerLyer"	"arrowdown"	"1109"	"TRUE"	"MullerLyer"	"-23000000000"	"-0.700000000"	"1"	"12"
n/a	"html-button-response"	"34"	"100321"	"0.0-4.0-2.0-3.0"	"fcdggm"	"600"	"1366"	"chrome"	"111.0.0"	"FALSE"	"Windows 10"	"60.19"	"060"	n/a	n/a	n/a	n/a	n/a	n/a	"practice_block_results"	n/a	n/a	n/a	"2664"	"0"	n/a	"NULL"	"NULL"	"NULL"	"<p style='color:rgb(76,175,80);'> Correct Responses: <b>100.00%</b></p><hr><p style='color:rgb(233,30,99);'> Average Response Time: <b>471.67</b> ms.</p>"	n/a	n/a	n/a	n/a	n/a	n/a	n/a	n/a	n/a	n/a
"TRUE"	"preload"	"35"	"100841"	"0.0-4.0-3.0-0.0"	"fcdggm"	"600"	"1366"	"chrome"	"111.0.0"	"FALSE"	"Windows 10"	"60.19"	"060"	n/a	n/a	n/a	n/a	n/a	n/a	n/a	n/a	n/a	n/a	n/a	"NULL"	"FALSE"	"list()"	"list()"	"list()"	n/a	n/a	n/a	n/a	n/a	n/a	n/a	n/a	n/a	n/a	n/a
n/a	"html-keyboard-response"	"36"	"106068"	"0.0-4.0-3.0-1.0"	"fcdggm"	"600"	"1366"	"chrome"	"111.0.0"	"FALSE"	"Windows 10"	"60.19"	"060"	n/a	n/a	n/a	n/a	n/a	n/a	n/a	n/a	n/a	n/a	"5227"	"enter"	n/a	"NULL"	"NULL"	"NULL"	"<p><b>Practice</b></p><p>In this part, two red lines will appear side by side.</p><p>Your task is to tell <b>which line is longer</b> in length, regardless of their orientation, as fast as you can, and without making errors.</p><p>Don't get distracted by the orientation of the lines!</p><p>Press <b>the LEFT or the RIGHT arrow</b> to indicate which <b>line is the longer one.</b></p><div style='float: center'><img src='materials/instructions/VerticalHorizontal_Demo.png' height='300'></img><p><img src='utils/answer/answer_leftright_keyboard.PNG' height='150'></img></p><p class='small'>In this example, the correct answer is the <b>LEFT arrow</b>.</p></div><p>Are you ready? <b>Press ENTER to start</b></p>"	n/a	n/a	n/a	n/a	n/a	n/a	n/a	n/a	n/a	n/a
n/a	"html-keyboard-response"	"37"	"107748"	"0.0-4.0-3.0-2.0-0.0"	"fcdggm"	"600"	"1366"	"chrome"	"111.0.0"	"FALSE"	"Windows 10"	"60.19"	"060"	n/a	n/a	n/a	n/a	n/a	n/a	"fixation"	n/a	n/a	n/a	n/a	"NULL"	n/a	"NULL"	"NULL"	"NULL"	"<p style=\"color: black; font-size: 80px; padding-left: 31%; padding-right: 3%; padding-top: 19%; padding-bottom: 30%\">+</p>"	"1170"	n/a	n/a	n/a	n/a	n/a	n/a	n/a	n/a	n/a
n/a	"image-keyboard-response"	"38"	"108168"	"0.0-4.0-3.0-2.0-1.0"	"fcdggm"	"600"	"1366"	"chrome"	"111.0.0"	"FALSE"	"Windows 10"	"60.19"	"060"	n/a	n/a	n/a	n/a	n/a	n/a	"Trial"	n/a	n/a	n/a	"419"	"arrowright"	n/a	"NULL"	"NULL"	"NULL"	"stimuli/VerticalHorizontal_0000000_-0.9000.png"	n/a	"VerticalHorizontal"	"arrowright"	"1680"	"TRUE"	"VerticalHorizontal"	"000000000000"	"-0.900000000"	"1"	"13"
n/a	"html-keyboard-response"	"39"	"109431"	"0.0-4.0-3.0-2.0-0.1"	"fcdggm"	"600"	"1366"	"chrome"	"111.0.0"	"FALSE"	"Windows 10"	"60.19"	"060"	n/a	n/a	n/a	n/a	n/a	n/a	"fixation"	n/a	n/a	n/a	n/a	"NULL"	n/a	"NULL"	"NULL"	"NULL"	"<p style=\"color: black; font-size: 80px; padding-left: 46%; padding-right: 25%; padding-top: 34%; padding-bottom: 22%\">+</p>"	"1258"	n/a	n/a	n/a	n/a	n/a	n/a	n/a	n/a	n/a
n/a	"image-keyboard-response"	"40"	"109752"	"0.0-4.0-3.0-2.0-1.1"	"fcdggm"	"600"	"1366"	"chrome"	"111.0.0"	"FALSE"	"Windows 10"	"60.19"	"060"	n/a	n/a	n/a	n/a	n/a	n/a	"Trial"	n/a	n/a	n/a	"321"	"arrowleft"	n/a	"NULL"	"NULL"	"NULL"	"stimuli/VerticalHorizontal_-330000_0.90000.png"	n/a	"VerticalHorizontal"	"arrowleft"	"1263"	"TRUE"	"VerticalHorizontal"	"-33000000000"	"0.9000000000"	"1"	"14"
n/a	"html-keyboard-response"	"41"	"111241"	"0.0-4.0-3.0-2.0-0.2"	"fcdggm"	"600"	"1366"	"chrome"	"111.0.0"	"FALSE"	"Windows 10"	"60.19"	"060"	n/a	n/a	n/a	n/a	n/a	n/a	"fixation"	n/a	n/a	n/a	n/a	"NULL"	n/a	"NULL"	"NULL"	"NULL"	"<p style=\"color: black; font-size: 80px; padding-left: 6%; padding-right: 6%; padding-top: 39%; padding-bottom: 34%\">+</p>"	"1474"	n/a	n/a	n/a	n/a	n/a	n/a	n/a	n/a	n/a
n/a	"image-keyboard-response"	"42"	"111632"	"0.0-4.0-3.0-2.0-1.2"	"fcdggm"	"600"	"1366"	"chrome"	"111.0.0"	"FALSE"	"Windows 10"	"60.19"	"060"	n/a	n/a	n/a	n/a	n/a	n/a	"Trial"	n/a	n/a	n/a	"390"	"arrowleft"	n/a	"NULL"	"NULL"	"NULL"	"stimuli/VerticalHorizontal_0000000_0.90000.png"	n/a	"VerticalHorizontal"	"arrowleft"	"1489"	"TRUE"	"VerticalHorizontal"	"000000000000"	"0.9000000000"	"1"	"15"
n/a	"html-keyboard-response"	"43"	"112882"	"0.0-4.0-3.0-2.0-0.3"	"fcdggm"	"600"	"1366"	"chrome"	"111.0.0"	"FALSE"	"Windows 10"	"60.19"	"060"	n/a	n/a	n/a	n/a	n/a	n/a	"fixation"	n/a	n/a	n/a	n/a	"NULL"	n/a	"NULL"	"NULL"	"NULL"	"<p style=\"color: black; font-size: 80px; padding-left: 33%; padding-right: 21%; padding-top: 40%; padding-bottom: 31%\">+</p>"	"1242"	n/a	n/a	n/a	n/a	n/a	n/a	n/a	n/a	n/a
n/a	"image-keyboard-response"	"44"	"113224"	"0.0-4.0-3.0-2.0-1.3"	"fcdggm"	"600"	"1366"	"chrome"	"111.0.0"	"FALSE"	"Windows 10"	"60.19"	"060"	n/a	n/a	n/a	n/a	n/a	n/a	"Trial"	n/a	n/a	n/a	"341"	"arrowright"	n/a	"NULL"	"NULL"	"NULL"	"stimuli/VerticalHorizontal_3300000_-0.9000.png"	n/a	"VerticalHorizontal"	"arrowright"	"1250"	"TRUE"	"VerticalHorizontal"	"330000000000"	"-0.900000000"	"1"	"16"
n/a	"html-keyboard-response"	"45"	"114311"	"0.0-4.0-3.0-2.0-0.4"	"fcdggm"	"600"	"1366"	"chrome"	"111.0.0"	"FALSE"	"Windows 10"	"60.19"	"060"	n/a	n/a	n/a	n/a	n/a	n/a	"fixation"	n/a	n/a	n/a	n/a	"NULL"	n/a	"NULL"	"NULL"	"NULL"	"<p style=\"color: black; font-size: 80px; padding-left: 6%; padding-right: 42%; padding-top: 24%; padding-bottom: 5%\">+</p>"	"1082"	n/a	n/a	n/a	n/a	n/a	n/a	n/a	n/a	n/a
n/a	"image-keyboard-response"	"46"	"114653"	"0.0-4.0-3.0-2.0-1.4"	"fcdggm"	"600"	"1366"	"chrome"	"111.0.0"	"FALSE"	"Windows 10"	"60.19"	"060"	n/a	n/a	n/a	n/a	n/a	n/a	"Trial"	n/a	n/a	n/a	"341"	"arrowleft"	n/a	"NULL"	"NULL"	"NULL"	"stimuli/VerticalHorizontal_3300000_0.90000.png"	n/a	"VerticalHorizontal"	"arrowleft"	"1087"	"TRUE"	"VerticalHorizontal"	"330000000000"	"0.9000000000"	"1"	"17"
n/a	"html-keyboard-response"	"47"	"116013"	"0.0-4.0-3.0-2.0-0.5"	"fcdggm"	"600"	"1366"	"chrome"	"111.0.0"	"FALSE"	"Windows 10"	"60.19"	"060"	n/a	n/a	n/a	n/a	n/a	n/a	"fixation"	n/a	n/a	n/a	n/a	"NULL"	n/a	"NULL"	"NULL"	"NULL"	"<p style=\"color: black; font-size: 80px; padding-left: 17%; padding-right: 23%; padding-top: 39%; padding-bottom: 5%\">+</p>"	"1359"	n/a	n/a	n/a	n/a	n/a	n/a	n/a	n/a	n/a
n/a	"image-keyboard-response"	"48"	"116308"	"0.0-4.0-3.0-2.0-1.5"	"fcdggm"	"600"	"1366"	"chrome"	"111.0.0"	"FALSE"	"Windows 10"	"60.19"	"060"	n/a	n/a	n/a	n/a	n/a	n/a	"Trial"	n/a	n/a	n/a	"294"	"arrowright"	n/a	"NULL"	"NULL"	"NULL"	"stimuli/VerticalHorizontal_-330000_-0.9000.png"	n/a	"VerticalHorizontal"	"arrowright"	"1360"	"TRUE"	"VerticalHorizontal"	"-33000000000"	"-0.900000000"	"1"	"18"
n/a	"html-button-response"	"49"	"119023"	"0.0-4.0-3.0-3.0"	"fcdggm"	"600"	"1366"	"chrome"	"111.0.0"	"FALSE"	"Windows 10"	"60.19"	"060"	n/a	n/a	n/a	n/a	n/a	n/a	"practice_block_results"	n/a	n/a	n/a	"2714"	"0"	n/a	"NULL"	"NULL"	"NULL"	"<p style='color:rgb(76,175,80);'> Correct Responses: <b>100.00%</b></p><hr><p style='color:rgb(233,30,99);'> Average Response Time: <b>351.00</b> ms.</p>"	n/a	n/a	n/a	n/a	n/a	n/a	n/a	n/a	n/a	n/a
n/a	"html-button-response"	"50"	"207853"	"0.0-4.0-4.0"	"fcdggm"	"600"	"1366"	"chrome"	"111.0.0"	"FALSE"	"Windows 10"	"60.19"	"060"	n/a	n/a	n/a	n/a	n/a	n/a	"practice_debrief"	n/a	n/a	n/a	"88324"	"0"	n/a	"NULL"	"NULL"	"NULL"	"<p><b>TRAINING COMPLETED</b></p><p>In the next phase, there will be more trials, and some might be harder too.<br> Moreover, after each illusion block, a <b>score</b> will be calculated based on speed (time you took to answer) and accuracy (number of errors).</p><p>Try to keep up a high score!</p><br><p>Note that it can be <i>really</i> challenging at times, so you will need to rely on your <b>intuition</b> and gut feeling to answer as fast as you can without making errors.</p><p>Each illusion block will be repeated two times (so that you have the opportunity to improve your score), but the order of the blocks is random.</p><p>Remember, your goal is to be as <b>fast</b> and <b>accurate</b> as possible. Good luck!</p><br>"	n/a	n/a	n/a	n/a	n/a	n/a	n/a	n/a	n/a	n/a
"TRUE"	"preload"	"51"	"207999"	"0.0-5.0-0.0"	"fcdggm"	"600"	"1366"	"chrome"	"111.0.0"	"FALSE"	"Windows 10"	"60.19"	"060"	n/a	n/a	n/a	n/a	n/a	n/a	n/a	n/a	n/a	n/a	n/a	"NULL"	"FALSE"	"list()"	"list()"	"list()"	n/a	n/a	n/a	n/a	n/a	n/a	n/a	n/a	n/a	n/a	n/a
n/a	"html-keyboard-response"	"52"	"210326"	"0.0-5.0-1.0"	"fcdggm"	"600"	"1366"	"chrome"	"111.0.0"	"FALSE"	"Windows 10"	"60.19"	"060"	n/a	n/a	n/a	n/a	n/a	n/a	n/a	n/a	n/a	n/a	"2327"	"enter"	n/a	"NULL"	"NULL"	"NULL"	"<p><b>Part 1/6</b></p><p>In this part, two horizontal red lines will appear one above the other.</p><p>Your task is to select which <b>line is longer</b> in length as fast as you can, without making errors.</p><p>Don't get distracted by the surrounding black arrows at the end of the red lines!</p><p>Press <b>the UP or the DOWN arrow</b> to indicate where is the longer <b>red line.</b></p><div style='float: center'><img src='materials/instructions/MullerLyer_Demo.png' height='300'></img><p><img src='utils/answer/answer_updown_keyboard.PNG' height='150'></img></p><p class='small'>In this example, the correct answer is the <b>UP arrow</b>.</p></div><p>Are you ready? <b>Press ENTER to start</b></p>"	n/a	n/a	n/a	n/a	n/a	n/a	n/a	n/a	n/a	n/a
n/a	"html-keyboard-response"	"53"	"211950"	"0.0-5.0-2.0-0.0"	"fcdggm"	"600"	"1366"	"chrome"	"111.0.0"	"FALSE"	"Windows 10"	"60.19"	"060"	n/a	n/a	n/a	n/a	n/a	n/a	"fixation"	n/a	n/a	n/a	n/a	"NULL"	n/a	"NULL"	"NULL"	"NULL"	"<p style=\"color: black; font-size: 80px; padding-left: 6%; padding-right: 11%; padding-top: 43%; padding-bottom: 1%\">+</p>"	"1116"	n/a	n/a	n/a	n/a	n/a	n/a	n/a	n/a	n/a
n/a	"image-keyboard-response"	"54"	"212511"	"0.0-5.0-2.0-1.0"	"fcdggm"	"600"	"1366"	"chrome"	"111.0.0"	"FALSE"	"Windows 10"	"60.19"	"060"	n/a	n/a	n/a	n/a	n/a	n/a	"Trial"	n/a	n/a	n/a	"560"	"arrowdown"	n/a	"NULL"	"NULL"	"NULL"	"stimuli/MullerLyer_14.12857_0.23665.png"	n/a	"MullerLyer"	"arrowup"	"1624"	"FALSE"	"MullerLyer"	"14.128570000"	"0.2366500000"	"1"	"19"
n/a	"html-keyboard-response"	"55"	"213796"	"0.0-5.0-2.0-0.1"	"fcdggm"	"600"	"1366"	"chrome"	"111.0.0"	"FALSE"	"Windows 10"	"60.19"	"060"	n/a	n/a	n/a	n/a	n/a	n/a	"fixation"	n/a	n/a	n/a	n/a	"NULL"	n/a	"NULL"	"NULL"	"NULL"	"<p style=\"color: black; font-size: 80px; padding-left: 6%; padding-right: 5%; padding-top: 27%; padding-bottom: 38%\">+</p>"	"1267"	n/a	n/a	n/a	n/a	n/a	n/a	n/a	n/a	n/a
n/a	"image-keyboard-response"	"56"	"214328"	"0.0-5.0-2.0-1.1"	"fcdggm"	"600"	"1366"	"chrome"	"111.0.0"	"FALSE"	"Windows 10"	"60.19"	"060"	n/a	n/a	n/a	n/a	n/a	n/a	"Trial"	n/a	n/a	n/a	"532"	"arrowdown"	n/a	"NULL"	"NULL"	"NULL"	"stimuli/MullerLyer_-14.12857_-0.14541.png"	n/a	"MullerLyer"	"arrowdown"	"1285"	"TRUE"	"MullerLyer"	"-14.12857000"	"-0.145410000"	"1"	"20"
n/a	"html-keyboard-response"	"57"	"215466"	"0.0-5.0-2.0-0.2"	"fcdggm"	"600"	"1366"	"chrome"	"111.0.0"	"FALSE"	"Windows 10"	"60.19"	"060"	n/a	n/a	n/a	n/a	n/a	n/a	"fixation"	n/a	n/a	n/a	n/a	"NULL"	n/a	"NULL"	"NULL"	"NULL"	"<p style=\"color: black; font-size: 80px; padding-left: 10%; padding-right: 50%; padding-top: 38%; padding-bottom: 16%\">+</p>"	"1128"	n/a	n/a	n/a	n/a	n/a	n/a	n/a	n/a	n/a
n/a	"image-keyboard-response"	"58"	"215919"	"0.0-5.0-2.0-1.2"	"fcdggm"	"600"	"1366"	"chrome"	"111.0.0"	"FALSE"	"Windows 10"	"60.19"	"060"	n/a	n/a	n/a	n/a	n/a	n/a	"Trial"	n/a	n/a	n/a	"452"	"arrowup"	n/a	"NULL"	"NULL"	"NULL"	"stimuli/MullerLyer_-2.3000_0.35000.png"	n/a	"MullerLyer"	"arrowup"	"1138"	"TRUE"	"MullerLyer"	"-2.300000000"	"0.3500000000"	"1"	"21"
n/a	"html-keyboard-response"	"59"	"217201"	"0.0-5.0-2.0-0.3"	"fcdggm"	"600"	"1366"	"chrome"	"111.0.0"	"FALSE"	"Windows 10"	"60.19"	"060"	n/a	n/a	n/a	n/a	n/a	n/a	"fixation"	n/a	n/a	n/a	n/a	"NULL"	n/a	"NULL"	"NULL"	"NULL"	"<p style=\"color: black; font-size: 80px; padding-left: 47%; padding-right: 12%; padding-top: 16%; padding-bottom: 35%\">+</p>"	"1269"	n/a	n/a	n/a	n/a	n/a	n/a	n/a	n/a	n/a
n/a	"image-keyboard-response"	"60"	"217573"	"0.0-5.0-2.0-1.3"	"fcdggm"	"600"	"1366"	"chrome"	"111.0.0"	"FALSE"	"Windows 10"	"60.19"	"060"	n/a	n/a	n/a	n/a	n/a	n/a	"Trial"	n/a	n/a	n/a	"371"	"arrowdown"	n/a	"NULL"	"NULL"	"NULL"	"stimuli/MullerLyer_-20.04286_-0.3500.png"	n/a	"MullerLyer"	"arrowdown"	"1282"	"TRUE"	"MullerLyer"	"-20.04286000"	"-0.350000000"	"1"	"22"
n/a	"html-keyboard-response"	"61"	"218873"	"0.0-5.0-2.0-0.4"	"fcdggm"	"600"	"1366"	"chrome"	"111.0.0"	"FALSE"	"Windows 10"	"60.19"	"060"	n/a	n/a	n/a	n/a	n/a	n/a	"fixation"	n/a	n/a	n/a	n/a	"NULL"	n/a	"NULL"	"NULL"	"NULL"	"<p style=\"color: black; font-size: 80px; padding-left: 34%; padding-right: 30%; padding-top: 17%; padding-bottom: 20%\">+</p>"	"1293"	n/a	n/a	n/a	n/a	n/a	n/a	n/a	n/a	n/a
n/a	"image-keyboard-response"	"62"	"219333"	"0.0-5.0-2.0-1.4"	"fcdggm"	"600"	"1366"	"chrome"	"111.0.0"	"FALSE"	"Windows 10"	"60.19"	"060"	n/a	n/a	n/a	n/a	n/a	n/a	"Trial"	n/a	n/a	n/a	"459"	"arrowup"	n/a	"NULL"	"NULL"	"NULL"	"stimuli/MullerLyer_2.30000_0.35000.png"	n/a	"MullerLyer"	"arrowup"	"1300"	"TRUE"	"MullerLyer"	"2.3000000000"	"0.3500000000"	"1"	"23"
n/a	"html-keyboard-response"	"63"	"220585"	"0.0-5.0-2.0-0.5"	"fcdggm"	"600"	"1366"	"chrome"	"111.0.0"	"FALSE"	"Windows 10"	"60.19"	"060"	n/a	n/a	n/a	n/a	n/a	n/a	"fixation"	n/a	n/a	n/a	n/a	"NULL"	n/a	"NULL"	"NULL"	"NULL"	"<p style=\"color: black; font-size: 80px; padding-left: 49%; padding-right: 34%; padding-top: 48%; padding-bottom: 45%\">+</p>"	"1249"	n/a	n/a	n/a	n/a	n/a	n/a	n/a	n/a	n/a
n/a	"image-keyboard-response"	"64"	"221314"	"0.0-5.0-2.0-1.5"	"fcdggm"	"600"	"1366"	"chrome"	"111.0.0"	"FALSE"	"Windows 10"	"60.19"	"060"	n/a	n/a	n/a	n/a	n/a	n/a	"Trial"	n/a	n/a	n/a	"728"	"arrowup"	n/a	"NULL"	"NULL"	"NULL"	"stimuli/MullerLyer_2.30000_0.07627.png"	n/a	"MullerLyer"	"arrowup"	"1252"	"TRUE"	"MullerLyer"	"2.3000000000"	"0.0762700000"	"1"	"24"
n/a	"html-keyboard-response"	"65"	"222806"	"0.0-5.0-2.0-0.6"	"fcdggm"	"600"	"1366"	"chrome"	"111.0.0"	"FALSE"	"Windows 10"	"60.19"	"060"	n/a	n/a	n/a	n/a	n/a	n/a	"fixation"	n/a	n/a	n/a	n/a	"NULL"	n/a	"NULL"	"NULL"	"NULL"	"<p style=\"color: black; font-size: 80px; padding-left: 26%; padding-right: 40%; padding-top: 9%; padding-bottom: 47%\">+</p>"	"1477"	n/a	n/a	n/a	n/a	n/a	n/a	n/a	n/a	n/a
n/a	"image-keyboard-response"	"66"	"223357"	"0.0-5.0-2.0-1.6"	"fcdggm"	"600"	"1366"	"chrome"	"111.0.0"	"FALSE"	"Windows 10"	"60.19"	"060"	n/a	n/a	n/a	n/a	n/a	n/a	"Trial"	n/a	n/a	n/a	"550"	"arrowdown"	n/a	"NULL"	"NULL"	"NULL"	"stimuli/MullerLyer_20.04286_0.14541.png"	n/a	"MullerLyer"	"arrowup"	"1492"	"FALSE"	"MullerLyer"	"20.042860000"	"0.1454100000"	"1"	"25"
n/a	"html-keyboard-response"	"67"	"224514"	"0.0-5.0-2.0-0.7"	"fcdggm"	"600"	"1366"	"chrome"	"111.0.0"	"FALSE"	"Windows 10"	"60.19"	"060"	n/a	n/a	n/a	n/a	n/a	n/a	"fixation"	n/a	n/a	n/a	n/a	"NULL"	n/a	"NULL"	"NULL"	"NULL"	"<p style=\"color: black; font-size: 80px; padding-left: 30%; padding-right: 20%; padding-top: 37%; padding-bottom: 23%\">+</p>"	"1155"	n/a	n/a	n/a	n/a	n/a	n/a	n/a	n/a	n/a
n/a	"image-keyboard-response"	"68"	"224922"	"0.0-5.0-2.0-1.7"	"fcdggm"	"600"	"1366"	"chrome"	"111.0.0"	"FALSE"	"Windows 10"	"60.19"	"060"	n/a	n/a	n/a	n/a	n/a	n/a	"Trial"	n/a	n/a	n/a	"406"	"arrowdown"	n/a	"NULL"	"NULL"	"NULL"	"stimuli/MullerLyer_-8.21429_-0.23665.png"	n/a	"MullerLyer"	"arrowdown"	"1157"	"TRUE"	"MullerLyer"	"-8.214290000"	"-0.236650000"	"1"	"26"
n/a	"html-keyboard-response"	"69"	"226281"	"0.0-5.0-2.0-0.8"	"fcdggm"	"600"	"1366"	"chrome"	"111.0.0"	"FALSE"	"Windows 10"	"60.19"	"060"	n/a	n/a	n/a	n/a	n/a	n/a	"fixation"	n/a	n/a	n/a	n/a	"NULL"	n/a	"NULL"	"NULL"	"NULL"	"<p style=\"color: black; font-size: 80px; padding-left: 45%; padding-right: 5%; padding-top: 32%; padding-bottom: 3%\">+</p>"	"1355"	n/a	n/a	n/a	n/a	n/a	n/a	n/a	n/a	n/a
n/a	"image-keyboard-response"	"70"	"226823"	"0.0-5.0-2.0-1.8"	"fcdggm"	"600"	"1366"	"chrome"	"111.0.0"	"FALSE"	"Windows 10"	"60.19"	"060"	n/a	n/a	n/a	n/a	n/a	n/a	"Trial"	n/a	n/a	n/a	"541"	"arrowup"	n/a	"NULL"	"NULL"	"NULL"	"stimuli/MullerLyer_-20.04286_0.14541.png"	n/a	"MullerLyer"	"arrowup"	"1359"	"TRUE"	"MullerLyer"	"-20.04286000"	"0.1454100000"	"1"	"27"
n/a	"html-keyboard-response"	"71"	"228295"	"0.0-5.0-2.0-0.9"	"fcdggm"	"600"	"1366"	"chrome"	"111.0.0"	"FALSE"	"Windows 10"	"60.19"	"060"	n/a	n/a	n/a	n/a	n/a	n/a	"fixation"	n/a	n/a	n/a	n/a	"NULL"	n/a	"NULL"	"NULL"	"NULL"	"<p style=\"color: black; font-size: 80px; padding-left: 48%; padding-right: 31%; padding-top: 41%; padding-bottom: 47%\">+</p>"	"1470"	n/a	n/a	n/a	n/a	n/a	n/a	n/a	n/a	n/a
n/a	"image-keyboard-response"	"72"	"228926"	"0.0-5.0-2.0-1.9"	"fcdggm"	"600"	"1366"	"chrome"	"111.0.0"	"FALSE"	"Windows 10"	"60.19"	"060"	n/a	n/a	n/a	n/a	n/a	n/a	"Trial"	n/a	n/a	n/a	"629"	"arrowup"	n/a	"NULL"	"NULL"	"NULL"	"stimuli/MullerLyer_2.30000_0.14541.png"	n/a	"MullerLyer"	"arrowup"	"1472"	"TRUE"	"MullerLyer"	"2.3000000000"	"0.1454100000"	"1"	"28"
n/a	"html-keyboard-response"	"73"	"230396"	"0.0-5.0-2.0-0.10"	"fcdggm"	"600"	"1366"	"chrome"	"111.0.0"	"FALSE"	"Windows 10"	"60.19"	"060"	n/a	n/a	n/a	n/a	n/a	n/a	"fixation"	n/a	n/a	n/a	n/a	"NULL"	n/a	"NULL"	"NULL"	"NULL"	"<p style=\"color: black; font-size: 80px; padding-left: 3%; padding-right: 36%; padding-top: 36%; padding-bottom: 22%\">+</p>"	"1463"	n/a	n/a	n/a	n/a	n/a	n/a	n/a	n/a	n/a
n/a	"image-keyboard-response"	"74"	"231012"	"0.0-5.0-2.0-1.10"	"fcdggm"	"600"	"1366"	"chrome"	"111.0.0"	"FALSE"	"Windows 10"	"60.19"	"060"	n/a	n/a	n/a	n/a	n/a	n/a	"Trial"	n/a	n/a	n/a	"616"	"arrowdown"	n/a	"NULL"	"NULL"	"NULL"	"stimuli/MullerLyer_14.12857_-0.3500.png"	n/a	"MullerLyer"	"arrowdown"	"1470"	"TRUE"	"MullerLyer"	"14.128570000"	"-0.350000000"	"1"	"29"
n/a	"html-keyboard-response"	"75"	"232092"	"0.0-5.0-2.0-0.11"	"fcdggm"	"600"	"1366"	"chrome"	"111.0.0"	"FALSE"	"Windows 10"	"60.19"	"060"	n/a	n/a	n/a	n/a	n/a	n/a	"fixation"	n/a	n/a	n/a	n/a	"NULL"	n/a	"NULL"	"NULL"	"NULL"	"<p style=\"color: black; font-size: 80px; padding-left: 40%; padding-right: 46%; padding-top: 19%; padding-bottom: 3%\">+</p>"	"1078"	n/a	n/a	n/a	n/a	n/a	n/a	n/a	n/a	n/a
n/a	"image-keyboard-response"	"76"	"232644"	"0.0-5.0-2.0-1.11"	"fcdggm"	"600"	"1366"	"chrome"	"111.0.0"	"FALSE"	"Windows 10"	"60.19"	"060"	n/a	n/a	n/a	n/a	n/a	n/a	"Trial"	n/a	n/a	n/a	"552"	"arrowup"	n/a	"NULL"	"NULL"	"NULL"	"stimuli/MullerLyer_8.21429_-0.07627.png"	n/a	"MullerLyer"	"arrowdown"	"1080"	"FALSE"	"MullerLyer"	"8.2142900000"	"-0.076270000"	"1"	"30"
n/a	"html-keyboard-response"	"77"	"233919"	"0.0-5.0-2.0-0.12"	"fcdggm"	"600"	"1366"	"chrome"	"111.0.0"	"FALSE"	"Windows 10"	"60.19"	"060"	n/a	n/a	n/a	n/a	n/a	n/a	"fixation"	n/a	n/a	n/a	n/a	"NULL"	n/a	"NULL"	"NULL"	"NULL"	"<p style=\"color: black; font-size: 80px; padding-left: 3%; padding-right: 20%; padding-top: 18%; padding-bottom: 9%\">+</p>"	"1264"	n/a	n/a	n/a	n/a	n/a	n/a	n/a	n/a	n/a
n/a	"image-keyboard-response"	"78"	"234515"	"0.0-5.0-2.0-1.12"	"fcdggm"	"600"	"1366"	"chrome"	"111.0.0"	"FALSE"	"Windows 10"	"60.19"	"060"	n/a	n/a	n/a	n/a	n/a	n/a	"Trial"	n/a	n/a	n/a	"595"	"arrowup"	n/a	"NULL"	"NULL"	"NULL"	"stimuli/MullerLyer_2.30000_0.23665.png"	n/a	"MullerLyer"	"arrowup"	"1275"	"TRUE"	"MullerLyer"	"2.3000000000"	"0.2366500000"	"1"	"31"
n/a	"html-keyboard-response"	"79"	"235905"	"0.0-5.0-2.0-0.13"	"fcdggm"	"600"	"1366"	"chrome"	"111.0.0"	"FALSE"	"Windows 10"	"60.19"	"060"	n/a	n/a	n/a	n/a	n/a	n/a	"fixation"	n/a	n/a	n/a	n/a	"NULL"	n/a	"NULL"	"NULL"	"NULL"	"<p style=\"color: black; font-size: 80px; padding-left: 20%; padding-right: 45%; padding-top: 47%; padding-bottom: 23%\">+</p>"	"1382"	n/a	n/a	n/a	n/a	n/a	n/a	n/a	n/a	n/a
n/a	"image-keyboard-response"	"80"	"236455"	"0.0-5.0-2.0-1.13"	"fcdggm"	"600"	"1366"	"chrome"	"111.0.0"	"FALSE"	"Windows 10"	"60.19"	"060"	n/a	n/a	n/a	n/a	n/a	n/a	"Trial"	n/a	n/a	n/a	"549"	"arrowdown"	n/a	"NULL"	"NULL"	"NULL"	"stimuli/MullerLyer_14.12857_0.14541.png"	n/a	"MullerLyer"	"arrowup"	"1390"	"FALSE"	"MullerLyer"	"14.128570000"	"0.1454100000"	"1"	"32"
n/a	"html-keyboard-response"	"81"	"237557"	"0.0-5.0-2.0-0.14"	"fcdggm"	"600"	"1366"	"chrome"	"111.0.0"	"FALSE"	"Windows 10"	"60.19"	"060"	n/a	n/a	n/a	n/a	n/a	n/a	"fixation"	n/a	n/a	n/a	n/a	"NULL"	n/a	"NULL"	"NULL"	"NULL"	"<p style=\"color: black; font-size: 80px; padding-left: 34%; padding-right: 12%; padding-top: 44%; padding-bottom: 41%\">+</p>"	"1096"	n/a	n/a	n/a	n/a	n/a	n/a	n/a	n/a	n/a
n/a	"image-keyboard-response"	"82"	"238157"	"0.0-5.0-2.0-1.14"	"fcdggm"	"600"	"1366"	"chrome"	"111.0.0"	"FALSE"	"Windows 10"	"60.19"	"060"	n/a	n/a	n/a	n/a	n/a	n/a	"Trial"	n/a	n/a	n/a	"599"	"arrowdown"	n/a	"NULL"	"NULL"	"NULL"	"stimuli/MullerLyer_-20.04286_-0.14541.png"	n/a	"MullerLyer"	"arrowdown"	"1102"	"TRUE"	"MullerLyer"	"-20.04286000"	"-0.145410000"	"1"	"33"
n/a	"html-keyboard-response"	"83"	"239186"	"0.0-5.0-2.0-0.15"	"fcdggm"	"600"	"1366"	"chrome"	"111.0.0"	"FALSE"	"Windows 10"	"60.19"	"060"	n/a	n/a	n/a	n/a	n/a	n/a	"fixation"	n/a	n/a	n/a	n/a	"NULL"	n/a	"NULL"	"NULL"	"NULL"	"<p style=\"color: black; font-size: 80px; padding-left: 37%; padding-right: 27%; padding-top: 27%; padding-bottom: 18%\">+</p>"	"1024"	n/a	n/a	n/a	n/a	n/a	n/a	n/a	n/a	n/a
n/a	"image-keyboard-response"	"84"	"239723"	"0.0-5.0-2.0-1.15"	"fcdggm"	"600"	"1366"	"chrome"	"111.0.0"	"FALSE"	"Windows 10"	"60.19"	"060"	n/a	n/a	n/a	n/a	n/a	n/a	"Trial"	n/a	n/a	n/a	"537"	"arrowdown"	n/a	"NULL"	"NULL"	"NULL"	"stimuli/MullerLyer_-14.12857_-0.07627.png"	n/a	"MullerLyer"	"arrowdown"	"1029"	"TRUE"	"MullerLyer"	"-14.12857000"	"-0.076270000"	"1"	"34"
n/a	"html-keyboard-response"	"85"	"240999"	"0.0-5.0-2.0-0.16"	"fcdggm"	"600"	"1366"	"chrome"	"111.0.0"	"FALSE"	"Windows 10"	"60.19"	"060"	n/a	n/a	n/a	n/a	n/a	n/a	"fixation"	n/a	n/a	n/a	n/a	"NULL"	n/a	"NULL"	"NULL"	"NULL"	"<p style=\"color: black; font-size: 80px; padding-left: 38%; padding-right: 12%; padding-top: 12%; padding-bottom: 37%\">+</p>"	"1263"	n/a	n/a	n/a	n/a	n/a	n/a	n/a	n/a	n/a
n/a	"image-keyboard-response"	"86"	"241457"	"0.0-5.0-2.0-1.16"	"fcdggm"	"600"	"1366"	"chrome"	"111.0.0"	"FALSE"	"Windows 10"	"60.19"	"060"	n/a	n/a	n/a	n/a	n/a	n/a	"Trial"	n/a	n/a	n/a	"457"	"arrowup"	n/a	"NULL"	"NULL"	"NULL"	"stimuli/MullerLyer_-14.12857_0.35000.png"	n/a	"MullerLyer"	"arrowup"	"1276"	"TRUE"	"MullerLyer"	"-14.12857000"	"0.3500000000"	"1"	"35"
n/a	"html-keyboard-response"	"87"	"242530"	"0.0-5.0-2.0-0.17"	"fcdggm"	"600"	"1366"	"chrome"	"111.0.0"	"FALSE"	"Windows 10"	"60.19"	"060"	n/a	n/a	n/a	n/a	n/a	n/a	"fixation"	n/a	n/a	n/a	n/a	"NULL"	n/a	"NULL"	"NULL"	"NULL"	"<p style=\"color: black; font-size: 80px; padding-left: 20%; padding-right: 15%; padding-top: 8%; padding-bottom: 48%\">+</p>"	"1071"	n/a	n/a	n/a	n/a	n/a	n/a	n/a	n/a	n/a
n/a	"image-keyboard-response"	"88"	"243037"	"0.0-5.0-2.0-1.17"	"fcdggm"	"600"	"1366"	"chrome"	"111.0.0"	"FALSE"	"Windows 10"	"60.19"	"060"	n/a	n/a	n/a	n/a	n/a	n/a	"Trial"	n/a	n/a	n/a	"507"	"arrowdown"	n/a	"NULL"	"NULL"	"NULL"	"stimuli/MullerLyer_8.21429_-0.3500.png"	n/a	"MullerLyer"	"arrowdown"	"1073"	"TRUE"	"MullerLyer"	"8.2142900000"	"-0.350000000"	"1"	"36"
n/a	"html-keyboard-response"	"89"	"244088"	"0.0-5.0-2.0-0.18"	"fcdggm"	"600"	"1366"	"chrome"	"111.0.0"	"FALSE"	"Windows 10"	"60.19"	"060"	n/a	n/a	n/a	n/a	n/a	n/a	"fixation"	n/a	n/a	n/a	n/a	"NULL"	n/a	"NULL"	"NULL"	"NULL"	"<p style=\"color: black; font-size: 80px; padding-left: 9%; padding-right: 49%; padding-top: 4%; padding-bottom: 5%\">+</p>"	"1024"	n/a	n/a	n/a	n/a	n/a	n/a	n/a	n/a	n/a
n/a	"image-keyboard-response"	"90"	"244569"	"0.0-5.0-2.0-1.18"	"fcdggm"	"600"	"1366"	"chrome"	"111.0.0"	"FALSE"	"Windows 10"	"60.19"	"060"	n/a	n/a	n/a	n/a	n/a	n/a	"Trial"	n/a	n/a	n/a	"480"	"arrowup"	n/a	"NULL"	"NULL"	"NULL"	"stimuli/MullerLyer_-20.04286_0.07627.png"	n/a	"MullerLyer"	"arrowup"	"1051"	"TRUE"	"MullerLyer"	"-20.04286000"	"0.0762700000"	"1"	"37"
n/a	"html-keyboard-response"	"91"	"245612"	"0.0-5.0-2.0-0.19"	"fcdggm"	"600"	"1366"	"chrome"	"111.0.0"	"FALSE"	"Windows 10"	"60.19"	"060"	n/a	n/a	n/a	n/a	n/a	n/a	"fixation"	n/a	n/a	n/a	n/a	"NULL"	n/a	"NULL"	"NULL"	"NULL"	"<p style=\"color: black; font-size: 80px; padding-left: 31%; padding-right: 6%; padding-top: 43%; padding-bottom: 33%\">+</p>"	"1040"	n/a	n/a	n/a	n/a	n/a	n/a	n/a	n/a	n/a
n/a	"image-keyboard-response"	"92"	"246100"	"0.0-5.0-2.0-1.19"	"fcdggm"	"600"	"1366"	"chrome"	"111.0.0"	"FALSE"	"Windows 10"	"60.19"	"060"	n/a	n/a	n/a	n/a	n/a	n/a	"Trial"	n/a	n/a	n/a	"488"	"arrowdown"	n/a	"NULL"	"NULL"	"NULL"	"stimuli/MullerLyer_-2.3000_-0.07627.png"	n/a	"MullerLyer"	"arrowdown"	"1043"	"TRUE"	"MullerLyer"	"-2.300000000"	"-0.076270000"	"1"	"38"
n/a	"html-keyboard-response"	"93"	"247283"	"0.0-5.0-2.0-0.20"	"fcdggm"	"600"	"1366"	"chrome"	"111.0.0"	"FALSE"	"Windows 10"	"60.19"	"060"	n/a	n/a	n/a	n/a	n/a	n/a	"fixation"	n/a	n/a	n/a	n/a	"NULL"	n/a	"NULL"	"NULL"	"NULL"	"<p style=\"color: black; font-size: 80px; padding-left: 22%; padding-right: 45%; padding-top: 18%; padding-bottom: 32%\">+</p>"	"1172"	n/a	n/a	n/a	n/a	n/a	n/a	n/a	n/a	n/a
n/a	"image-keyboard-response"	"94"	"247924"	"0.0-5.0-2.0-1.20"	"fcdggm"	"600"	"1366"	"chrome"	"111.0.0"	"FALSE"	"Windows 10"	"60.19"	"060"	n/a	n/a	n/a	n/a	n/a	n/a	"Trial"	n/a	n/a	n/a	"641"	"arrowup"	n/a	"NULL"	"NULL"	"NULL"	"stimuli/MullerLyer_14.12857_-0.23665.png"	n/a	"MullerLyer"	"arrowdown"	"1183"	"FALSE"	"MullerLyer"	"14.128570000"	"-0.236650000"	"1"	"39"
n/a	"html-keyboard-response"	"95"	"249403"	"0.0-5.0-2.0-0.21"	"fcdggm"	"600"	"1366"	"chrome"	"111.0.0"	"FALSE"	"Windows 10"	"60.19"	"060"	n/a	n/a	n/a	n/a	n/a	n/a	"fixation"	n/a	n/a	n/a	n/a	"NULL"	n/a	"NULL"	"NULL"	"NULL"	"<p style=\"color: black; font-size: 80px; padding-left: 11%; padding-right: 13%; padding-top: 14%; padding-bottom: 39%\">+</p>"	"1476"	n/a	n/a	n/a	n/a	n/a	n/a	n/a	n/a	n/a
n/a	"image-keyboard-response"	"96"	"250038"	"0.0-5.0-2.0-1.21"	"fcdggm"	"600"	"1366"	"chrome"	"111.0.0"	"FALSE"	"Windows 10"	"60.19"	"060"	n/a	n/a	n/a	n/a	n/a	n/a	"Trial"	n/a	n/a	n/a	"635"	"arrowup"	n/a	"NULL"	"NULL"	"NULL"	"stimuli/MullerLyer_-14.12857_0.07627.png"	n/a	"MullerLyer"	"arrowup"	"1479"	"TRUE"	"MullerLyer"	"-14.12857000"	"0.0762700000"	"1"	"40"
n/a	"html-keyboard-response"	"97"	"251152"	"0.0-5.0-2.0-0.22"	"fcdggm"	"600"	"1366"	"chrome"	"111.0.0"	"FALSE"	"Windows 10"	"60.19"	"060"	n/a	n/a	n/a	n/a	n/a	n/a	"fixation"	n/a	n/a	n/a	n/a	"NULL"	n/a	"NULL"	"NULL"	"NULL"	"<p style=\"color: black; font-size: 80px; padding-left: 31%; padding-right: 42%; padding-top: 40%; padding-bottom: 33%\">+</p>"	"1101"	n/a	n/a	n/a	n/a	n/a	n/a	n/a	n/a	n/a
n/a	"image-keyboard-response"	"98"	"251686"	"0.0-5.0-2.0-1.22"	"fcdggm"	"600"	"1366"	"chrome"	"111.0.0"	"FALSE"	"Windows 10"	"60.19"	"060"	n/a	n/a	n/a	n/a	n/a	n/a	"Trial"	n/a	n/a	n/a	"533"	"arrowdown"	n/a	"NULL"	"NULL"	"NULL"	"stimuli/MullerLyer_-14.12857_-0.23665.png"	n/a	"MullerLyer"	"arrowdown"	"1114"	"TRUE"	"MullerLyer"	"-14.12857000"	"-0.236650000"	"1"	"41"
n/a	"html-keyboard-response"	"99"	"252701"	"0.0-5.0-2.0-0.23"	"fcdggm"	"600"	"1366"	"chrome"	"111.0.0"	"FALSE"	"Windows 10"	"60.19"	"060"	n/a	n/a	n/a	n/a	n/a	n/a	"fixation"	n/a	n/a	n/a	n/a	"NULL"	n/a	"NULL"	"NULL"	"NULL"	"<p style=\"color: black; font-size: 80px; padding-left: 23%; padding-right: 21%; padding-top: 13%; padding-bottom: 3%\">+</p>"	"1003"	n/a	n/a	n/a	n/a	n/a	n/a	n/a	n/a	n/a
n/a	"image-keyboard-response"	"100"	"253451"	"0.0-5.0-2.0-1.23"	"fcdggm"	"600"	"1366"	"chrome"	"111.0.0"	"FALSE"	"Windows 10"	"60.19"	"060"	n/a	n/a	n/a	n/a	n/a	n/a	"Trial"	n/a	n/a	n/a	"749"	"arrowup"	n/a	"NULL"	"NULL"	"NULL"	"stimuli/MullerLyer_2.30000_-0.07627.png"	n/a	"MullerLyer"	"arrowdown"	"1015"	"FALSE"	"MullerLyer"	"2.3000000000"	"-0.076270000"	"1"	"42"
n/a	"html-keyboard-response"	"101"	"254607"	"0.0-5.0-2.0-0.24"	"fcdggm"	"600"	"1366"	"chrome"	"111.0.0"	"FALSE"	"Windows 10"	"60.19"	"060"	n/a	n/a	n/a	n/a	n/a	n/a	"fixation"	n/a	n/a	n/a	n/a	"NULL"	n/a	"NULL"	"NULL"	"NULL"	"<p style=\"color: black; font-size: 80px; padding-left: 44%; padding-right: 30%; padding-top: 34%; padding-bottom: 7%\">+</p>"	"1142"	n/a	n/a	n/a	n/a	n/a	n/a	n/a	n/a	n/a
n/a	"image-keyboard-response"	"102"	"255345"	"0.0-5.0-2.0-1.24"	"fcdggm"	"600"	"1366"	"chrome"	"111.0.0"	"FALSE"	"Windows 10"	"60.19"	"060"	n/a	n/a	n/a	n/a	n/a	n/a	"Trial"	n/a	n/a	n/a	"737"	"arrowup"	n/a	"NULL"	"NULL"	"NULL"	"stimuli/MullerLyer_-2.3000_0.23665.png"	n/a	"MullerLyer"	"arrowup"	"1156"	"TRUE"	"MullerLyer"	"-2.300000000"	"0.2366500000"	"1"	"43"
n/a	"html-keyboard-response"	"103"	"256522"	"0.0-5.0-2.0-0.25"	"fcdggm"	"600"	"1366"	"chrome"	"111.0.0"	"FALSE"	"Windows 10"	"60.19"	"060"	n/a	n/a	n/a	n/a	n/a	n/a	"fixation"	n/a	n/a	n/a	n/a	"NULL"	n/a	"NULL"	"NULL"	"NULL"	"<p style=\"color: black; font-size: 80px; padding-left: 12%; padding-right: 44%; padding-top: 31%; padding-bottom: 33%\">+</p>"	"1162"	n/a	n/a	n/a	n/a	n/a	n/a	n/a	n/a	n/a
n/a	"image-keyboard-response"	"104"	"257354"	"0.0-5.0-2.0-1.25"	"fcdggm"	"600"	"1366"	"chrome"	"111.0.0"	"FALSE"	"Windows 10"	"60.19"	"060"	n/a	n/a	n/a	n/a	n/a	n/a	"Trial"	n/a	n/a	n/a	"831"	"arrowdown"	n/a	"NULL"	"NULL"	"NULL"	"stimuli/MullerLyer_2.30000_-0.14541.png"	n/a	"MullerLyer"	"arrowdown"	"1177"	"TRUE"	"MullerLyer"	"2.3000000000"	"-0.145410000"	"1"	"44"
n/a	"html-keyboard-response"	"105"	"258459"	"0.0-5.0-2.0-0.26"	"fcdggm"	"600"	"1366"	"chrome"	"111.0.0"	"FALSE"	"Windows 10"	"60.19"	"060"	n/a	n/a	n/a	n/a	n/a	n/a	"fixation"	n/a	n/a	n/a	n/a	"NULL"	n/a	"NULL"	"NULL"	"NULL"	"<p style=\"color: black; font-size: 80px; padding-left: 40%; padding-right: 20%; padding-top: 4%; padding-bottom: 21%\">+</p>"	"1096"	n/a	n/a	n/a	n/a	n/a	n/a	n/a	n/a	n/a
n/a	"image-keyboard-response"	"106"	"259000"	"0.0-5.0-2.0-1.26"	"fcdggm"	"600"	"1366"	"chrome"	"111.0.0"	"FALSE"	"Windows 10"	"60.19"	"060"	n/a	n/a	n/a	n/a	n/a	n/a	"Trial"	n/a	n/a	n/a	"540"	"arrowup"	n/a	"NULL"	"NULL"	"NULL"	"stimuli/MullerLyer_-8.21429_0.35000.png"	n/a	"MullerLyer"	"arrowup"	"1105"	"TRUE"	"MullerLyer"	"-8.214290000"	"0.3500000000"	"1"	"45"
n/a	"html-keyboard-response"	"107"	"260005"	"0.0-5.0-2.0-0.27"	"fcdggm"	"600"	"1366"	"chrome"	"111.0.0"	"FALSE"	"Windows 10"	"60.19"	"060"	n/a	n/a	n/a	n/a	n/a	n/a	"fixation"	n/a	n/a	n/a	n/a	"NULL"	n/a	"NULL"	"NULL"	"NULL"	"<p style=\"color: black; font-size: 80px; padding-left: 3%; padding-right: 11%; padding-top: 39%; padding-bottom: 3%\">+</p>"	"1003"	n/a	n/a	n/a	n/a	n/a	n/a	n/a	n/a	n/a
n/a	"image-keyboard-response"	"108"	"260592"	"0.0-5.0-2.0-1.27"	"fcdggm"	"600"	"1366"	"chrome"	"111.0.0"	"FALSE"	"Windows 10"	"60.19"	"060"	n/a	n/a	n/a	n/a	n/a	n/a	"Trial"	n/a	n/a	n/a	"586"	"arrowup"	n/a	"NULL"	"NULL"	"NULL"	"stimuli/MullerLyer_-20.04286_0.35000.png"	n/a	"MullerLyer"	"arrowup"	"1005"	"TRUE"	"MullerLyer"	"-20.04286000"	"0.3500000000"	"1"	"46"
n/a	"html-keyboard-response"	"109"	"261909"	"0.0-5.0-2.0-0.28"	"fcdggm"	"600"	"1366"	"chrome"	"111.0.0"	"FALSE"	"Windows 10"	"60.19"	"060"	n/a	n/a	n/a	n/a	n/a	n/a	"fixation"	n/a	n/a	n/a	n/a	"NULL"	n/a	"NULL"	"NULL"	"NULL"	"<p style=\"color: black; font-size: 80px; padding-left: 16%; padding-right: 25%; padding-top: 22%; padding-bottom: 25%\">+</p>"	"1313"	n/a	n/a	n/a	n/a	n/a	n/a	n/a	n/a	n/a
n/a	"image-keyboard-response"	"110"	"262863"	"0.0-5.0-2.0-1.28"	"fcdggm"	"600"	"1366"	"chrome"	"111.0.0"	"FALSE"	"Windows 10"	"60.19"	"060"	n/a	n/a	n/a	n/a	n/a	n/a	"Trial"	n/a	n/a	n/a	"953"	"arrowdown"	n/a	"NULL"	"NULL"	"NULL"	"stimuli/MullerLyer_20.04286_-0.3500.png"	n/a	"MullerLyer"	"arrowdown"	"1317"	"TRUE"	"MullerLyer"	"20.042860000"	"-0.350000000"	"1"	"47"
n/a	"html-keyboard-response"	"111"	"263884"	"0.0-5.0-2.0-0.29"	"fcdggm"	"600"	"1366"	"chrome"	"111.0.0"	"FALSE"	"Windows 10"	"60.19"	"060"	n/a	n/a	n/a	n/a	n/a	n/a	"fixation"	n/a	n/a	n/a	n/a	"NULL"	n/a	"NULL"	"NULL"	"NULL"	"<p style=\"color: black; font-size: 80px; padding-left: 9%; padding-right: 25%; padding-top: 35%; padding-bottom: 40%\">+</p>"	"1007"	n/a	n/a	n/a	n/a	n/a	n/a	n/a	n/a	n/a
n/a	"image-keyboard-response"	"112"	"264490"	"0.0-5.0-2.0-1.29"	"fcdggm"	"600"	"1366"	"chrome"	"111.0.0"	"FALSE"	"Windows 10"	"60.19"	"060"	n/a	n/a	n/a	n/a	n/a	n/a	"Trial"	n/a	n/a	n/a	"606"	"arrowup"	n/a	"NULL"	"NULL"	"NULL"	"stimuli/MullerLyer_-20.04286_0.23665.png"	n/a	"MullerLyer"	"arrowup"	"1021"	"TRUE"	"MullerLyer"	"-20.04286000"	"0.2366500000"	"1"	"48"
n/a	"html-keyboard-response"	"113"	"265906"	"0.0-5.0-2.0-0.30"	"fcdggm"	"600"	"1366"	"chrome"	"111.0.0"	"FALSE"	"Windows 10"	"60.19"	"060"	n/a	n/a	n/a	n/a	n/a	n/a	"fixation"	n/a	n/a	n/a	n/a	"NULL"	n/a	"NULL"	"NULL"	"NULL"	"<p style=\"color: black; font-size: 80px; padding-left: 31%; padding-right: 33%; padding-top: 32%; padding-bottom: 24%\">+</p>"	"1402"	n/a	n/a	n/a	n/a	n/a	n/a	n/a	n/a	n/a
n/a	"image-keyboard-response"	"114"	"266504"	"0.0-5.0-2.0-1.30"	"fcdggm"	"600"	"1366"	"chrome"	"111.0.0"	"FALSE"	"Windows 10"	"60.19"	"060"	n/a	n/a	n/a	n/a	n/a	n/a	"Trial"	n/a	n/a	n/a	"598"	"arrowdown"	n/a	"NULL"	"NULL"	"NULL"	"stimuli/MullerLyer_-20.04286_-0.07627.png"	n/a	"MullerLyer"	"arrowdown"	"1416"	"TRUE"	"MullerLyer"	"-20.04286000"	"-0.076270000"	"1"	"49"
n/a	"html-keyboard-response"	"115"	"267828"	"0.0-5.0-2.0-0.31"	"fcdggm"	"600"	"1366"	"chrome"	"111.0.0"	"FALSE"	"Windows 10"	"60.19"	"060"	n/a	n/a	n/a	n/a	n/a	n/a	"fixation"	n/a	n/a	n/a	n/a	"NULL"	n/a	"NULL"	"NULL"	"NULL"	"<p style=\"color: black; font-size: 80px; padding-left: 3%; padding-right: 7%; padding-top: 21%; padding-bottom: 40%\">+</p>"	"1309"	n/a	n/a	n/a	n/a	n/a	n/a	n/a	n/a	n/a
n/a	"image-keyboard-response"	"116"	"268527"	"0.0-5.0-2.0-1.31"	"fcdggm"	"600"	"1366"	"chrome"	"111.0.0"	"FALSE"	"Windows 10"	"60.19"	"060"	n/a	n/a	n/a	n/a	n/a	n/a	"Trial"	n/a	n/a	n/a	"698"	"arrowdown"	n/a	"NULL"	"NULL"	"NULL"	"stimuli/MullerLyer_-8.21429_-0.14541.png"	n/a	"MullerLyer"	"arrowdown"	"1324"	"TRUE"	"MullerLyer"	"-8.214290000"	"-0.145410000"	"1"	"50"
n/a	"html-keyboard-response"	"117"	"269954"	"0.0-5.0-2.0-0.32"	"fcdggm"	"600"	"1366"	"chrome"	"111.0.0"	"FALSE"	"Windows 10"	"60.19"	"060"	n/a	n/a	n/a	n/a	n/a	n/a	"fixation"	n/a	n/a	n/a	n/a	"NULL"	n/a	"NULL"	"NULL"	"NULL"	"<p style=\"color: black; font-size: 80px; padding-left: 21%; padding-right: 14%; padding-top: 44%; padding-bottom: 25%\">+</p>"	"1419"	n/a	n/a	n/a	n/a	n/a	n/a	n/a	n/a	n/a
n/a	"image-keyboard-response"	"118"	"271318"	"0.0-5.0-2.0-1.32"	"fcdggm"	"600"	"1366"	"chrome"	"111.0.0"	"FALSE"	"Windows 10"	"60.19"	"060"	n/a	n/a	n/a	n/a	n/a	n/a	"Trial"	n/a	n/a	n/a	"1364"	"arrowdown"	n/a	"NULL"	"NULL"	"NULL"	"stimuli/MullerLyer_8.21429_-0.14541.png"	n/a	"MullerLyer"	"arrowdown"	"1427"	"TRUE"	"MullerLyer"	"8.2142900000"	"-0.145410000"	"1"	"51"
n/a	"html-keyboard-response"	"119"	"272624"	"0.0-5.0-2.0-0.33"	"fcdggm"	"600"	"1366"	"chrome"	"111.0.0"	"FALSE"	"Windows 10"	"60.19"	"060"	n/a	n/a	n/a	n/a	n/a	n/a	"fixation"	n/a	n/a	n/a	n/a	"NULL"	n/a	"NULL"	"NULL"	"NULL"	"<p style=\"color: black; font-size: 80px; padding-left: 43%; padding-right: 27%; padding-top: 34%; padding-bottom: 1%\">+</p>"	"1297"	n/a	n/a	n/a	n/a	n/a	n/a	n/a	n/a	n/a
n/a	"image-keyboard-response"	"120"	"273428"	"0.0-5.0-2.0-1.33"	"fcdggm"	"600"	"1366"	"chrome"	"111.0.0"	"FALSE"	"Windows 10"	"60.19"	"060"	n/a	n/a	n/a	n/a	n/a	n/a	"Trial"	n/a	n/a	n/a	"803"	"arrowup"	n/a	"NULL"	"NULL"	"NULL"	"stimuli/MullerLyer_-2.3000_0.14541.png"	n/a	"MullerLyer"	"arrowup"	"1306"	"TRUE"	"MullerLyer"	"-2.300000000"	"0.1454100000"	"1"	"52"
n/a	"html-keyboard-response"	"121"	"274753"	"0.0-5.0-2.0-0.34"	"fcdggm"	"600"	"1366"	"chrome"	"111.0.0"	"FALSE"	"Windows 10"	"60.19"	"060"	n/a	n/a	n/a	n/a	n/a	n/a	"fixation"	n/a	n/a	n/a	n/a	"NULL"	n/a	"NULL"	"NULL"	"NULL"	"<p style=\"color: black; font-size: 80px; padding-left: 34%; padding-right: 33%; padding-top: 37%; padding-bottom: 15%\">+</p>"	"1318"	n/a	n/a	n/a	n/a	n/a	n/a	n/a	n/a	n/a
n/a	"image-keyboard-response"	"122"	"276175"	"0.0-5.0-2.0-1.34"	"fcdggm"	"600"	"1366"	"chrome"	"111.0.0"	"FALSE"	"Windows 10"	"60.19"	"060"	n/a	n/a	n/a	n/a	n/a	n/a	"Trial"	n/a	n/a	n/a	"1421"	"arrowup"	n/a	"NULL"	"NULL"	"NULL"	"stimuli/MullerLyer_20.04286_-0.23665.png"	n/a	"MullerLyer"	"arrowdown"	"1325"	"FALSE"	"MullerLyer"	"20.042860000"	"-0.236650000"	"1"	"53"
n/a	"html-keyboard-response"	"123"	"277216"	"0.0-5.0-2.0-0.35"	"fcdggm"	"600"	"1366"	"chrome"	"111.0.0"	"FALSE"	"Windows 10"	"60.19"	"060"	n/a	n/a	n/a	n/a	n/a	n/a	"fixation"	n/a	n/a	n/a	n/a	"NULL"	n/a	"NULL"	"NULL"	"NULL"	"<p style=\"color: black; font-size: 80px; padding-left: 15%; padding-right: 31%; padding-top: 21%; padding-bottom: 33%\">+</p>"	"1037"	n/a	n/a	n/a	n/a	n/a	n/a	n/a	n/a	n/a
n/a	"image-keyboard-response"	"124"	"277918"	"0.0-5.0-2.0-1.35"	"fcdggm"	"600"	"1366"	"chrome"	"111.0.0"	"FALSE"	"Windows 10"	"60.19"	"060"	n/a	n/a	n/a	n/a	n/a	n/a	"Trial"	n/a	n/a	n/a	"701"	"arrowup"	n/a	"NULL"	"NULL"	"NULL"	"stimuli/MullerLyer_-8.21429_0.07627.png"	n/a	"MullerLyer"	"arrowup"	"1041"	"TRUE"	"MullerLyer"	"-8.214290000"	"0.0762700000"	"1"	"54"
n/a	"html-keyboard-response"	"125"	"279075"	"0.0-5.0-2.0-0.36"	"fcdggm"	"600"	"1366"	"chrome"	"111.0.0"	"FALSE"	"Windows 10"	"60.19"	"060"	n/a	n/a	n/a	n/a	n/a	n/a	"fixation"	n/a	n/a	n/a	n/a	"NULL"	n/a	"NULL"	"NULL"	"NULL"	"<p style=\"color: black; font-size: 80px; padding-left: 3%; padding-right: 37%; padding-top: 9%; padding-bottom: 5%\">+</p>"	"1154"	n/a	n/a	n/a	n/a	n/a	n/a	n/a	n/a	n/a
n/a	"image-keyboard-response"	"126"	"279658"	"0.0-5.0-2.0-1.36"	"fcdggm"	"600"	"1366"	"chrome"	"111.0.0"	"FALSE"	"Windows 10"	"60.19"	"060"	n/a	n/a	n/a	n/a	n/a	n/a	"Trial"	n/a	n/a	n/a	"582"	"arrowdown"	n/a	"NULL"	"NULL"	"NULL"	"stimuli/MullerLyer_8.21429_0.14541.png"	n/a	"MullerLyer"	"arrowup"	"1157"	"FALSE"	"MullerLyer"	"8.2142900000"	"0.1454100000"	"1"	"55"
n/a	"html-keyboard-response"	"127"	"280777"	"0.0-5.0-2.0-0.37"	"fcdggm"	"600"	"1366"	"chrome"	"111.0.0"	"FALSE"	"Windows 10"	"60.19"	"060"	n/a	n/a	n/a	n/a	n/a	n/a	"fixation"	n/a	n/a	n/a	n/a	"NULL"	n/a	"NULL"	"NULL"	"NULL"	"<p style=\"color: black; font-size: 80px; padding-left: 32%; padding-right: 2%; padding-top: 10%; padding-bottom: 25%\">+</p>"	"1114"	n/a	n/a	n/a	n/a	n/a	n/a	n/a	n/a	n/a
n/a	"image-keyboard-response"	"128"	"281361"	"0.0-5.0-2.0-1.37"	"fcdggm"	"600"	"1366"	"chrome"	"111.0.0"	"FALSE"	"Windows 10"	"60.19"	"060"	n/a	n/a	n/a	n/a	n/a	n/a	"Trial"	n/a	n/a	n/a	"584"	"arrowup"	n/a	"NULL"	"NULL"	"NULL"	"stimuli/MullerLyer_-14.12857_0.23665.png"	n/a	"MullerLyer"	"arrowup"	"1119"	"TRUE"	"MullerLyer"	"-14.12857000"	"0.2366500000"	"1"	"56"
n/a	"html-keyboard-response"	"129"	"282742"	"0.0-5.0-2.0-0.38"	"fcdggm"	"600"	"1366"	"chrome"	"111.0.0"	"FALSE"	"Windows 10"	"60.19"	"060"	n/a	n/a	n/a	n/a	n/a	n/a	"fixation"	n/a	n/a	n/a	n/a	"NULL"	n/a	"NULL"	"NULL"	"NULL"	"<p style=\"color: black; font-size: 80px; padding-left: 31%; padding-right: 9%; padding-top: 30%; padding-bottom: 5%\">+</p>"	"1379"	n/a	n/a	n/a	n/a	n/a	n/a	n/a	n/a	n/a
n/a	"image-keyboard-response"	"130"	"283217"	"0.0-5.0-2.0-1.38"	"fcdggm"	"600"	"1366"	"chrome"	"111.0.0"	"FALSE"	"Windows 10"	"60.19"	"060"	n/a	n/a	n/a	n/a	n/a	n/a	"Trial"	n/a	n/a	n/a	"475"	"arrowdown"	n/a	"NULL"	"NULL"	"NULL"	"stimuli/MullerLyer_20.04286_0.07627.png"	n/a	"MullerLyer"	"arrowup"	"1381"	"FALSE"	"MullerLyer"	"20.042860000"	"0.0762700000"	"1"	"57"
n/a	"html-keyboard-response"	"131"	"284281"	"0.0-5.0-2.0-0.39"	"fcdggm"	"600"	"1366"	"chrome"	"111.0.0"	"FALSE"	"Windows 10"	"60.19"	"060"	n/a	n/a	n/a	n/a	n/a	n/a	"fixation"	n/a	n/a	n/a	n/a	"NULL"	n/a	"NULL"	"NULL"	"NULL"	"<p style=\"color: black; font-size: 80px; padding-left: 36%; padding-right: 13%; padding-top: 28%; padding-bottom: 5%\">+</p>"	"1053"	n/a	n/a	n/a	n/a	n/a	n/a	n/a	n/a	n/a
n/a	"image-keyboard-response"	"132"	"284837"	"0.0-5.0-2.0-1.39"	"fcdggm"	"600"	"1366"	"chrome"	"111.0.0"	"FALSE"	"Windows 10"	"60.19"	"060"	n/a	n/a	n/a	n/a	n/a	n/a	"Trial"	n/a	n/a	n/a	"556"	"arrowdown"	n/a	"NULL"	"NULL"	"NULL"	"stimuli/MullerLyer_-8.21429_-0.3500.png"	n/a	"MullerLyer"	"arrowdown"	"1064"	"TRUE"	"MullerLyer"	"-8.214290000"	"-0.350000000"	"1"	"58"
n/a	"html-keyboard-response"	"133"	"286264"	"0.0-5.0-2.0-0.40"	"fcdggm"	"600"	"1366"	"chrome"	"111.0.0"	"FALSE"	"Windows 10"	"60.19"	"060"	n/a	n/a	n/a	n/a	n/a	n/a	"fixation"	n/a	n/a	n/a	n/a	"NULL"	n/a	"NULL"	"NULL"	"NULL"	"<p style=\"color: black; font-size: 80px; padding-left: 17%; padding-right: 46%; padding-top: 10%; padding-bottom: 46%\">+</p>"	"1419"	n/a	n/a	n/a	n/a	n/a	n/a	n/a	n/a	n/a
n/a	"image-keyboard-response"	"134"	"286776"	"0.0-5.0-2.0-1.40"	"fcdggm"	"600"	"1366"	"chrome"	"111.0.0"	"FALSE"	"Windows 10"	"60.19"	"060"	n/a	n/a	n/a	n/a	n/a	n/a	"Trial"	n/a	n/a	n/a	"511"	"arrowdown"	n/a	"NULL"	"NULL"	"NULL"	"stimuli/MullerLyer_14.12857_0.07627.png"	n/a	"MullerLyer"	"arrowup"	"1427"	"FALSE"	"MullerLyer"	"14.128570000"	"0.0762700000"	"1"	"59"
n/a	"html-keyboard-response"	"135"	"287797"	"0.0-5.0-2.0-0.41"	"fcdggm"	"600"	"1366"	"chrome"	"111.0.0"	"FALSE"	"Windows 10"	"60.19"	"060"	n/a	n/a	n/a	n/a	n/a	n/a	"fixation"	n/a	n/a	n/a	n/a	"NULL"	n/a	"NULL"	"NULL"	"NULL"	"<p style=\"color: black; font-size: 80px; padding-left: 49%; padding-right: 27%; padding-top: 30%; padding-bottom: 7%\">+</p>"	"1013"	n/a	n/a	n/a	n/a	n/a	n/a	n/a	n/a	n/a
n/a	"image-keyboard-response"	"136"	"288455"	"0.0-5.0-2.0-1.41"	"fcdggm"	"600"	"1366"	"chrome"	"111.0.0"	"FALSE"	"Windows 10"	"60.19"	"060"	n/a	n/a	n/a	n/a	n/a	n/a	"Trial"	n/a	n/a	n/a	"657"	"arrowup"	n/a	"NULL"	"NULL"	"NULL"	"stimuli/MullerLyer_14.12857_-0.14541.png"	n/a	"MullerLyer"	"arrowdown"	"1021"	"FALSE"	"MullerLyer"	"14.128570000"	"-0.145410000"	"1"	"60"
n/a	"html-keyboard-response"	"137"	"289845"	"0.0-5.0-2.0-0.42"	"fcdggm"	"600"	"1366"	"chrome"	"111.0.0"	"FALSE"	"Windows 10"	"60.19"	"060"	n/a	n/a	n/a	n/a	n/a	n/a	"fixation"	n/a	n/a	n/a	n/a	"NULL"	n/a	"NULL"	"NULL"	"NULL"	"<p style=\"color: black; font-size: 80px; padding-left: 24%; padding-right: 26%; padding-top: 35%; padding-bottom: 28%\">+</p>"	"1378"	n/a	n/a	n/a	n/a	n/a	n/a	n/a	n/a	n/a
n/a	"image-keyboard-response"	"138"	"290363"	"0.0-5.0-2.0-1.42"	"fcdggm"	"600"	"1366"	"chrome"	"111.0.0"	"FALSE"	"Windows 10"	"60.19"	"060"	n/a	n/a	n/a	n/a	n/a	n/a	"Trial"	n/a	n/a	n/a	"517"	"arrowdown"	n/a	"NULL"	"NULL"	"NULL"	"stimuli/MullerLyer_-2.3000_-0.23665.png"	n/a	"MullerLyer"	"arrowdown"	"1390"	"TRUE"	"MullerLyer"	"-2.300000000"	"-0.236650000"	"1"	"61"
n/a	"html-keyboard-response"	"139"	"291706"	"0.0-5.0-2.0-0.43"	"fcdggm"	"600"	"1366"	"chrome"	"111.0.0"	"FALSE"	"Windows 10"	"60.19"	"060"	n/a	n/a	n/a	n/a	n/a	n/a	"fixation"	n/a	n/a	n/a	n/a	"NULL"	n/a	"NULL"	"NULL"	"NULL"	"<p style=\"color: black; font-size: 80px; padding-left: 3%; padding-right: 13%; padding-top: 46%; padding-bottom: 14%\">+</p>"	"1327"	n/a	n/a	n/a	n/a	n/a	n/a	n/a	n/a	n/a
n/a	"image-keyboard-response"	"140"	"292251"	"0.0-5.0-2.0-1.43"	"fcdggm"	"600"	"1366"	"chrome"	"111.0.0"	"FALSE"	"Windows 10"	"60.19"	"060"	n/a	n/a	n/a	n/a	n/a	n/a	"Trial"	n/a	n/a	n/a	"545"	"arrowup"	n/a	"NULL"	"NULL"	"NULL"	"stimuli/MullerLyer_8.21429_0.23665.png"	n/a	"MullerLyer"	"arrowup"	"1343"	"TRUE"	"MullerLyer"	"8.2142900000"	"0.2366500000"	"1"	"62"
n/a	"html-keyboard-response"	"141"	"293307"	"0.0-5.0-2.0-0.44"	"fcdggm"	"600"	"1366"	"chrome"	"111.0.0"	"FALSE"	"Windows 10"	"60.19"	"060"	n/a	n/a	n/a	n/a	n/a	n/a	"fixation"	n/a	n/a	n/a	n/a	"NULL"	n/a	"NULL"	"NULL"	"NULL"	"<p style=\"color: black; font-size: 80px; padding-left: 48%; padding-right: 2%; padding-top: 31%; padding-bottom: 3%\">+</p>"	"1047"	n/a	n/a	n/a	n/a	n/a	n/a	n/a	n/a	n/a
n/a	"image-keyboard-response"	"142"	"293826"	"0.0-5.0-2.0-1.44"	"fcdggm"	"600"	"1366"	"chrome"	"111.0.0"	"FALSE"	"Windows 10"	"60.19"	"060"	n/a	n/a	n/a	n/a	n/a	n/a	"Trial"	n/a	n/a	n/a	"518"	"arrowdown"	n/a	"NULL"	"NULL"	"NULL"	"stimuli/MullerLyer_-8.21429_-0.07627.png"	n/a	"MullerLyer"	"arrowdown"	"1056"	"TRUE"	"MullerLyer"	"-8.214290000"	"-0.076270000"	"1"	"63"
n/a	"html-keyboard-response"	"143"	"295294"	"0.0-5.0-2.0-0.45"	"fcdggm"	"600"	"1366"	"chrome"	"111.0.0"	"FALSE"	"Windows 10"	"60.19"	"060"	n/a	n/a	n/a	n/a	n/a	n/a	"fixation"	n/a	n/a	n/a	n/a	"NULL"	n/a	"NULL"	"NULL"	"NULL"	"<p style=\"color: black; font-size: 80px; padding-left: 34%; padding-right: 10%; padding-top: 0%; padding-bottom: 7%\">+</p>"	"1461"	n/a	n/a	n/a	n/a	n/a	n/a	n/a	n/a	n/a
n/a	"image-keyboard-response"	"144"	"296018"	"0.0-5.0-2.0-1.45"	"fcdggm"	"600"	"1366"	"chrome"	"111.0.0"	"FALSE"	"Windows 10"	"60.19"	"060"	n/a	n/a	n/a	n/a	n/a	n/a	"Trial"	n/a	n/a	n/a	"723"	"arrowup"	n/a	"NULL"	"NULL"	"NULL"	"stimuli/MullerLyer_14.12857_-0.07627.png"	n/a	"MullerLyer"	"arrowdown"	"1468"	"FALSE"	"MullerLyer"	"14.128570000"	"-0.076270000"	"1"	"64"
n/a	"html-keyboard-response"	"145"	"297250"	"0.0-5.0-2.0-0.46"	"fcdggm"	"600"	"1366"	"chrome"	"111.0.0"	"FALSE"	"Windows 10"	"60.19"	"060"	n/a	n/a	n/a	n/a	n/a	n/a	"fixation"	n/a	n/a	n/a	n/a	"NULL"	n/a	"NULL"	"NULL"	"NULL"	"<p style=\"color: black; font-size: 80px; padding-left: 13%; padding-right: 6%; padding-top: 13%; padding-bottom: 32%\">+</p>"	"1220"	n/a	n/a	n/a	n/a	n/a	n/a	n/a	n/a	n/a
n/a	"image-keyboard-response"	"146"	"297810"	"0.0-5.0-2.0-1.46"	"fcdggm"	"600"	"1366"	"chrome"	"111.0.0"	"FALSE"	"Windows 10"	"60.19"	"060"	n/a	n/a	n/a	n/a	n/a	n/a	"Trial"	n/a	n/a	n/a	"556"	"arrowdown"	n/a	"NULL"	"NULL"	"NULL"	"stimuli/MullerLyer_2.30000_-0.3500.png"	n/a	"MullerLyer"	"arrowdown"	"1232"	"TRUE"	"MullerLyer"	"2.3000000000"	"-0.350000000"	"1"	"65"
n/a	"html-keyboard-response"	"147"	"299163"	"0.0-5.0-2.0-0.47"	"fcdggm"	"600"	"1366"	"chrome"	"111.0.0"	"FALSE"	"Windows 10"	"60.19"	"060"	n/a	n/a	n/a	n/a	n/a	n/a	"fixation"	n/a	n/a	n/a	n/a	"NULL"	n/a	"NULL"	"NULL"	"NULL"	"<p style=\"color: black; font-size: 80px; padding-left: 50%; padding-right: 11%; padding-top: 49%; padding-bottom: 44%\">+</p>"	"1342"	n/a	n/a	n/a	n/a	n/a	n/a	n/a	n/a	n/a
n/a	"image-keyboard-response"	"148"	"299768"	"0.0-5.0-2.0-1.47"	"fcdggm"	"600"	"1366"	"chrome"	"111.0.0"	"FALSE"	"Windows 10"	"60.19"	"060"	n/a	n/a	n/a	n/a	n/a	n/a	"Trial"	n/a	n/a	n/a	"604"	"arrowup"	n/a	"NULL"	"NULL"	"NULL"	"stimuli/MullerLyer_20.04286_-0.07627.png"	n/a	"MullerLyer"	"arrowdown"	"1353"	"FALSE"	"MullerLyer"	"20.042860000"	"-0.076270000"	"1"	"66"
n/a	"html-keyboard-response"	"149"	"301169"	"0.0-5.0-2.0-0.48"	"fcdggm"	"600"	"1366"	"chrome"	"111.0.0"	"FALSE"	"Windows 10"	"60.19"	"060"	n/a	n/a	n/a	n/a	n/a	n/a	"fixation"	n/a	n/a	n/a	n/a	"NULL"	n/a	"NULL"	"NULL"	"NULL"	"<p style=\"color: black; font-size: 80px; padding-left: 3%; padding-right: 46%; padding-top: 38%; padding-bottom: 41%\">+</p>"	"1398"	n/a	n/a	n/a	n/a	n/a	n/a	n/a	n/a	n/a
n/a	"image-keyboard-response"	"150"	"301827"	"0.0-5.0-2.0-1.48"	"fcdggm"	"600"	"1366"	"chrome"	"111.0.0"	"FALSE"	"Windows 10"	"60.19"	"060"	n/a	n/a	n/a	n/a	n/a	n/a	"Trial"	n/a	n/a	n/a	"657"	"arrowup"	n/a	"NULL"	"NULL"	"NULL"	"stimuli/MullerLyer_20.04286_-0.14541.png"	n/a	"MullerLyer"	"arrowdown"	"1401"	"FALSE"	"MullerLyer"	"20.042860000"	"-0.145410000"	"1"	"67"
n/a	"html-keyboard-response"	"151"	"303020"	"0.0-5.0-2.0-0.49"	"fcdggm"	"600"	"1366"	"chrome"	"111.0.0"	"FALSE"	"Windows 10"	"60.19"	"060"	n/a	n/a	n/a	n/a	n/a	n/a	"fixation"	n/a	n/a	n/a	n/a	"NULL"	n/a	"NULL"	"NULL"	"NULL"	"<p style=\"color: black; font-size: 80px; padding-left: 41%; padding-right: 29%; padding-top: 20%; padding-bottom: 7%\">+</p>"	"1180"	n/a	n/a	n/a	n/a	n/a	n/a	n/a	n/a	n/a
n/a	"image-keyboard-response"	"152"	"303683"	"0.0-5.0-2.0-1.49"	"fcdggm"	"600"	"1366"	"chrome"	"111.0.0"	"FALSE"	"Windows 10"	"60.19"	"060"	n/a	n/a	n/a	n/a	n/a	n/a	"Trial"	n/a	n/a	n/a	"662"	"arrowdown"	n/a	"NULL"	"NULL"	"NULL"	"stimuli/MullerLyer_2.30000_-0.23665.png"	n/a	"MullerLyer"	"arrowdown"	"1193"	"TRUE"	"MullerLyer"	"2.3000000000"	"-0.236650000"	"1"	"68"
n/a	"html-keyboard-response"	"153"	"305019"	"0.0-5.0-2.0-0.50"	"fcdggm"	"600"	"1366"	"chrome"	"111.0.0"	"FALSE"	"Windows 10"	"60.19"	"060"	n/a	n/a	n/a	n/a	n/a	n/a	"fixation"	n/a	n/a	n/a	n/a	"NULL"	n/a	"NULL"	"NULL"	"NULL"	"<p style=\"color: black; font-size: 80px; padding-left: 41%; padding-right: 44%; padding-top: 35%; padding-bottom: 8%\">+</p>"	"1324"	n/a	n/a	n/a	n/a	n/a	n/a	n/a	n/a	n/a
n/a	"image-keyboard-response"	"154"	"305665"	"0.0-5.0-2.0-1.50"	"fcdggm"	"600"	"1366"	"chrome"	"111.0.0"	"FALSE"	"Windows 10"	"60.19"	"060"	n/a	n/a	n/a	n/a	n/a	n/a	"Trial"	n/a	n/a	n/a	"645"	"arrowdown"	n/a	"NULL"	"NULL"	"NULL"	"stimuli/MullerLyer_8.21429_-0.23665.png"	n/a	"MullerLyer"	"arrowdown"	"1336"	"TRUE"	"MullerLyer"	"8.2142900000"	"-0.236650000"	"1"	"69"
n/a	"html-keyboard-response"	"155"	"307117"	"0.0-5.0-2.0-0.51"	"fcdggm"	"600"	"1366"	"chrome"	"111.0.0"	"FALSE"	"Windows 10"	"60.19"	"060"	n/a	n/a	n/a	n/a	n/a	n/a	"fixation"	n/a	n/a	n/a	n/a	"NULL"	n/a	"NULL"	"NULL"	"NULL"	"<p style=\"color: black; font-size: 80px; padding-left: 35%; padding-right: 50%; padding-top: 25%; padding-bottom: 11%\">+</p>"	"1443"	n/a	n/a	n/a	n/a	n/a	n/a	n/a	n/a	n/a
n/a	"image-keyboard-response"	"156"	"308044"	"0.0-5.0-2.0-1.51"	"fcdggm"	"600"	"1366"	"chrome"	"111.0.0"	"FALSE"	"Windows 10"	"60.19"	"060"	n/a	n/a	n/a	n/a	n/a	n/a	"Trial"	n/a	n/a	n/a	"926"	"arrowup"	n/a	"NULL"	"NULL"	"NULL"	"stimuli/MullerLyer_20.04286_0.23665.png"	n/a	"MullerLyer"	"arrowup"	"1452"	"TRUE"	"MullerLyer"	"20.042860000"	"0.2366500000"	"1"	"70"
n/a	"html-keyboard-response"	"157"	"309295"	"0.0-5.0-2.0-0.52"	"fcdggm"	"600"	"1366"	"chrome"	"111.0.0"	"FALSE"	"Windows 10"	"60.19"	"060"	n/a	n/a	n/a	n/a	n/a	n/a	"fixation"	n/a	n/a	n/a	n/a	"NULL"	n/a	"NULL"	"NULL"	"NULL"	"<p style=\"color: black; font-size: 80px; padding-left: 35%; padding-right: 15%; padding-top: 12%; padding-bottom: 24%\">+</p>"	"1236"	n/a	n/a	n/a	n/a	n/a	n/a	n/a	n/a	n/a
n/a	"image-keyboard-response"	"158"	"310146"	"0.0-5.0-2.0-1.52"	"fcdggm"	"600"	"1366"	"chrome"	"111.0.0"	"FALSE"	"Windows 10"	"60.19"	"060"	n/a	n/a	n/a	n/a	n/a	n/a	"Trial"	n/a	n/a	n/a	"850"	"arrowup"	n/a	"NULL"	"NULL"	"NULL"	"stimuli/MullerLyer_-2.3000_0.07627.png"	n/a	"MullerLyer"	"arrowup"	"1251"	"TRUE"	"MullerLyer"	"-2.300000000"	"0.0762700000"	"1"	"71"
n/a	"html-keyboard-response"	"159"	"311639"	"0.0-5.0-2.0-0.53"	"fcdggm"	"600"	"1366"	"chrome"	"111.0.0"	"FALSE"	"Windows 10"	"60.19"	"060"	n/a	n/a	n/a	n/a	n/a	n/a	"fixation"	n/a	n/a	n/a	n/a	"NULL"	n/a	"NULL"	"NULL"	"NULL"	"<p style=\"color: black; font-size: 80px; padding-left: 2%; padding-right: 19%; padding-top: 44%; padding-bottom: 40%\">+</p>"	"1492"	n/a	n/a	n/a	n/a	n/a	n/a	n/a	n/a	n/a
n/a	"image-keyboard-response"	"160"	"312158"	"0.0-5.0-2.0-1.53"	"fcdggm"	"600"	"1366"	"chrome"	"111.0.0"	"FALSE"	"Windows 10"	"60.19"	"060"	n/a	n/a	n/a	n/a	n/a	n/a	"Trial"	n/a	n/a	n/a	"518"	"arrowdown"	n/a	"NULL"	"NULL"	"NULL"	"stimuli/MullerLyer_-14.12857_-0.3500.png"	n/a	"MullerLyer"	"arrowdown"	"1493"	"TRUE"	"MullerLyer"	"-14.12857000"	"-0.350000000"	"1"	"72"
n/a	"html-keyboard-response"	"161"	"313503"	"0.0-5.0-2.0-0.54"	"fcdggm"	"600"	"1366"	"chrome"	"111.0.0"	"FALSE"	"Windows 10"	"60.19"	"060"	n/a	n/a	n/a	n/a	n/a	n/a	"fixation"	n/a	n/a	n/a	n/a	"NULL"	n/a	"NULL"	"NULL"	"NULL"	"<p style=\"color: black; font-size: 80px; padding-left: 23%; padding-right: 3%; padding-top: 6%; padding-bottom: 22%\">+</p>"	"1338"	n/a	n/a	n/a	n/a	n/a	n/a	n/a	n/a	n/a
n/a	"image-keyboard-response"	"162"	"314091"	"0.0-5.0-2.0-1.54"	"fcdggm"	"600"	"1366"	"chrome"	"111.0.0"	"FALSE"	"Windows 10"	"60.19"	"060"	n/a	n/a	n/a	n/a	n/a	n/a	"Trial"	n/a	n/a	n/a	"587"	"arrowup"	n/a	"NULL"	"NULL"	"NULL"	"stimuli/MullerLyer_8.21429_0.35000.png"	n/a	"MullerLyer"	"arrowup"	"1345"	"TRUE"	"MullerLyer"	"8.2142900000"	"0.3500000000"	"1"	"73"
n/a	"html-keyboard-response"	"163"	"315532"	"0.0-5.0-2.0-0.55"	"fcdggm"	"600"	"1366"	"chrome"	"111.0.0"	"FALSE"	"Windows 10"	"60.19"	"060"	n/a	n/a	n/a	n/a	n/a	n/a	"fixation"	n/a	n/a	n/a	n/a	"NULL"	n/a	"NULL"	"NULL"	"NULL"	"<p style=\"color: black; font-size: 80px; padding-left: 24%; padding-right: 20%; padding-top: 42%; padding-bottom: 13%\">+</p>"	"1427"	n/a	n/a	n/a	n/a	n/a	n/a	n/a	n/a	n/a
n/a	"image-keyboard-response"	"164"	"316075"	"0.0-5.0-2.0-1.55"	"fcdggm"	"600"	"1366"	"chrome"	"111.0.0"	"FALSE"	"Windows 10"	"60.19"	"060"	n/a	n/a	n/a	n/a	n/a	n/a	"Trial"	n/a	n/a	n/a	"542"	"arrowdown"	n/a	"NULL"	"NULL"	"NULL"	"stimuli/MullerLyer_-2.3000_-0.14541.png"	n/a	"MullerLyer"	"arrowdown"	"1441"	"TRUE"	"MullerLyer"	"-2.300000000"	"-0.145410000"	"1"	"74"
n/a	"html-keyboard-response"	"165"	"317300"	"0.0-5.0-2.0-0.56"	"fcdggm"	"600"	"1366"	"chrome"	"111.0.0"	"FALSE"	"Windows 10"	"60.19"	"060"	n/a	n/a	n/a	n/a	n/a	n/a	"fixation"	n/a	n/a	n/a	n/a	"NULL"	n/a	"NULL"	"NULL"	"NULL"	"<p style=\"color: black; font-size: 80px; padding-left: 23%; padding-right: 23%; padding-top: 48%; padding-bottom: 37%\">+</p>"	"1219"	n/a	n/a	n/a	n/a	n/a	n/a	n/a	n/a	n/a
n/a	"image-keyboard-response"	"166"	"317797"	"0.0-5.0-2.0-1.56"	"fcdggm"	"600"	"1366"	"chrome"	"111.0.0"	"FALSE"	"Windows 10"	"60.19"	"060"	n/a	n/a	n/a	n/a	n/a	n/a	"Trial"	n/a	n/a	n/a	"496"	"arrowup"	n/a	"NULL"	"NULL"	"NULL"	"stimuli/MullerLyer_-8.21429_0.14541.png"	n/a	"MullerLyer"	"arrowup"	"1225"	"TRUE"	"MullerLyer"	"-8.214290000"	"0.1454100000"	"1"	"75"
n/a	"html-keyboard-response"	"167"	"318916"	"0.0-5.0-2.0-0.57"	"fcdggm"	"600"	"1366"	"chrome"	"111.0.0"	"FALSE"	"Windows 10"	"60.19"	"060"	n/a	n/a	n/a	n/a	n/a	n/a	"fixation"	n/a	n/a	n/a	n/a	"NULL"	n/a	"NULL"	"NULL"	"NULL"	"<p style=\"color: black; font-size: 80px; padding-left: 17%; padding-right: 48%; padding-top: 6%; padding-bottom: 35%\">+</p>"	"1113"	n/a	n/a	n/a	n/a	n/a	n/a	n/a	n/a	n/a
n/a	"image-keyboard-response"	"168"	"319477"	"0.0-5.0-2.0-1.57"	"fcdggm"	"600"	"1366"	"chrome"	"111.0.0"	"FALSE"	"Windows 10"	"60.19"	"060"	n/a	n/a	n/a	n/a	n/a	n/a	"Trial"	n/a	n/a	n/a	"559"	"arrowdown"	n/a	"NULL"	"NULL"	"NULL"	"stimuli/MullerLyer_-2.3000_-0.3500.png"	n/a	"MullerLyer"	"arrowdown"	"1119"	"TRUE"	"MullerLyer"	"-2.300000000"	"-0.350000000"	"1"	"76"
n/a	"html-keyboard-response"	"169"	"320571"	"0.0-5.0-2.0-0.58"	"fcdggm"	"600"	"1366"	"chrome"	"111.0.0"	"FALSE"	"Windows 10"	"60.19"	"060"	n/a	n/a	n/a	n/a	n/a	n/a	"fixation"	n/a	n/a	n/a	n/a	"NULL"	n/a	"NULL"	"NULL"	"NULL"	"<p style=\"color: black; font-size: 80px; padding-left: 3%; padding-right: 49%; padding-top: 12%; padding-bottom: 29%\">+</p>"	"1080"	n/a	n/a	n/a	n/a	n/a	n/a	n/a	n/a	n/a
n/a	"image-keyboard-response"	"170"	"321004"	"0.0-5.0-2.0-1.58"	"fcdggm"	"600"	"1366"	"chrome"	"111.0.0"	"FALSE"	"Windows 10"	"60.19"	"060"	n/a	n/a	n/a	n/a	n/a	n/a	"Trial"	n/a	n/a	n/a	"433"	"arrowup"	n/a	"NULL"	"NULL"	"NULL"	"stimuli/MullerLyer_-8.21429_0.23665.png"	n/a	"MullerLyer"	"arrowup"	"1094"	"TRUE"	"MullerLyer"	"-8.214290000"	"0.2366500000"	"1"	"77"
n/a	"html-keyboard-response"	"171"	"322328"	"0.0-5.0-2.0-0.59"	"fcdggm"	"600"	"1366"	"chrome"	"111.0.0"	"FALSE"	"Windows 10"	"60.19"	"060"	n/a	n/a	n/a	n/a	n/a	n/a	"fixation"	n/a	n/a	n/a	n/a	"NULL"	n/a	"NULL"	"NULL"	"NULL"	"<p style=\"color: black; font-size: 80px; padding-left: 9%; padding-right: 35%; padding-top: 48%; padding-bottom: 1%\">+</p>"	"1309"	n/a	n/a	n/a	n/a	n/a	n/a	n/a	n/a	n/a
n/a	"image-keyboard-response"	"172"	"322850"	"0.0-5.0-2.0-1.59"	"fcdggm"	"600"	"1366"	"chrome"	"111.0.0"	"FALSE"	"Windows 10"	"60.19"	"060"	n/a	n/a	n/a	n/a	n/a	n/a	"Trial"	n/a	n/a	n/a	"520"	"arrowdown"	n/a	"NULL"	"NULL"	"NULL"	"stimuli/MullerLyer_-20.04286_-0.23665.png"	n/a	"MullerLyer"	"arrowdown"	"1324"	"TRUE"	"MullerLyer"	"-20.04286000"	"-0.236650000"	"1"	"78"
n/a	"html-keyboard-response"	"173"	"324093"	"0.0-5.0-2.0-0.60"	"fcdggm"	"600"	"1366"	"chrome"	"111.0.0"	"FALSE"	"Windows 10"	"60.19"	"060"	n/a	n/a	n/a	n/a	n/a	n/a	"fixation"	n/a	n/a	n/a	n/a	"NULL"	n/a	"NULL"	"NULL"	"NULL"	"<p style=\"color: black; font-size: 80px; padding-left: 10%; padding-right: 48%; padding-top: 14%; padding-bottom: 7%\">+</p>"	"1232"	n/a	n/a	n/a	n/a	n/a	n/a	n/a	n/a	n/a
n/a	"image-keyboard-response"	"174"	"324824"	"0.0-5.0-2.0-1.60"	"fcdggm"	"600"	"1366"	"chrome"	"111.0.0"	"FALSE"	"Windows 10"	"60.19"	"060"	n/a	n/a	n/a	n/a	n/a	n/a	"Trial"	n/a	n/a	n/a	"730"	"arrowdown"	n/a	"NULL"	"NULL"	"NULL"	"stimuli/MullerLyer_8.21429_0.07627.png"	n/a	"MullerLyer"	"arrowup"	"1243"	"FALSE"	"MullerLyer"	"8.2142900000"	"0.0762700000"	"1"	"79"
n/a	"html-keyboard-response"	"175"	"326320"	"0.0-5.0-2.0-0.61"	"fcdggm"	"600"	"1366"	"chrome"	"111.0.0"	"FALSE"	"Windows 10"	"60.19"	"060"	n/a	n/a	n/a	n/a	n/a	n/a	"fixation"	n/a	n/a	n/a	n/a	"NULL"	n/a	"NULL"	"NULL"	"NULL"	"<p style=\"color: black; font-size: 80px; padding-left: 38%; padding-right: 44%; padding-top: 50%; padding-bottom: 9%\">+</p>"	"1480"	n/a	n/a	n/a	n/a	n/a	n/a	n/a	n/a	n/a
n/a	"image-keyboard-response"	"176"	"326820"	"0.0-5.0-2.0-1.61"	"fcdggm"	"600"	"1366"	"chrome"	"111.0.0"	"FALSE"	"Windows 10"	"60.19"	"060"	n/a	n/a	n/a	n/a	n/a	n/a	"Trial"	n/a	n/a	n/a	"499"	"arrowup"	n/a	"NULL"	"NULL"	"NULL"	"stimuli/MullerLyer_-14.12857_0.14541.png"	n/a	"MullerLyer"	"arrowup"	"1496"	"TRUE"	"MullerLyer"	"-14.12857000"	"0.1454100000"	"1"	"80"
n/a	"html-keyboard-response"	"177"	"327895"	"0.0-5.0-2.0-0.62"	"fcdggm"	"600"	"1366"	"chrome"	"111.0.0"	"FALSE"	"Windows 10"	"60.19"	"060"	n/a	n/a	n/a	n/a	n/a	n/a	"fixation"	n/a	n/a	n/a	n/a	"NULL"	n/a	"NULL"	"NULL"	"NULL"	"<p style=\"color: black; font-size: 80px; padding-left: 21%; padding-right: 37%; padding-top: 24%; padding-bottom: 29%\">+</p>"	"1065"	n/a	n/a	n/a	n/a	n/a	n/a	n/a	n/a	n/a
n/a	"image-keyboard-response"	"178"	"328877"	"0.0-5.0-2.0-1.62"	"fcdggm"	"600"	"1366"	"chrome"	"111.0.0"	"FALSE"	"Windows 10"	"60.19"	"060"	n/a	n/a	n/a	n/a	n/a	n/a	"Trial"	n/a	n/a	n/a	"981"	"arrowup"	n/a	"NULL"	"NULL"	"NULL"	"stimuli/MullerLyer_20.04286_0.35000.png"	n/a	"MullerLyer"	"arrowup"	"1075"	"TRUE"	"MullerLyer"	"20.042860000"	"0.3500000000"	"1"	"81"
n/a	"html-keyboard-response"	"179"	"330062"	"0.0-5.0-2.0-0.63"	"fcdggm"	"600"	"1366"	"chrome"	"111.0.0"	"FALSE"	"Windows 10"	"60.19"	"060"	n/a	n/a	n/a	n/a	n/a	n/a	"fixation"	n/a	n/a	n/a	n/a	"NULL"	n/a	"NULL"	"NULL"	"NULL"	"<p style=\"color: black; font-size: 80px; padding-left: 49%; padding-right: 35%; padding-top: 46%; padding-bottom: 36%\">+</p>"	"1176"	n/a	n/a	n/a	n/a	n/a	n/a	n/a	n/a	n/a
n/a	"image-keyboard-response"	"180"	"330734"	"0.0-5.0-2.0-1.63"	"fcdggm"	"600"	"1366"	"chrome"	"111.0.0"	"FALSE"	"Windows 10"	"60.19"	"060"	n/a	n/a	n/a	n/a	n/a	n/a	"Trial"	n/a	n/a	n/a	"671"	"arrowup"	n/a	"NULL"	"NULL"	"NULL"	"stimuli/MullerLyer_14.12857_0.35000.png"	n/a	"MullerLyer"	"arrowup"	"1185"	"TRUE"	"MullerLyer"	"14.128570000"	"0.3500000000"	"1"	"82"
n/a	"html-button-response"	"181"	"346445"	"0.0-5.0-3.0"	"fcdggm"	"600"	"1366"	"chrome"	"111.0.0"	"FALSE"	"Windows 10"	"60.19"	"060"	n/a	n/a	n/a	n/a	n/a	n/a	"block_results"	n/a	n/a	n/a	"15710"	"0"	n/a	"NULL"	"NULL"	"NULL"	"<p>Your score for this illusion is <p style=\"color: black; font-size: 48px; font-weight: bold;\">78.2 %</p><hr><p>Can you do better in the next illusion?</p>"	n/a	n/a	n/a	n/a	n/a	n/a	n/a	n/a	n/a	n/a
"TRUE"	"preload"	"182"	"346593"	"0.0-6.0-0.0"	"fcdggm"	"600"	"1366"	"chrome"	"111.0.0"	"FALSE"	"Windows 10"	"60.19"	"060"	n/a	n/a	n/a	n/a	n/a	n/a	n/a	n/a	n/a	n/a	n/a	"NULL"	"FALSE"	"list()"	"list()"	"list()"	n/a	n/a	n/a	n/a	n/a	n/a	n/a	n/a	n/a	n/a	n/a
n/a	"html-keyboard-response"	"183"	"349383"	"0.0-6.0-1.0"	"fcdggm"	"600"	"1366"	"chrome"	"111.0.0"	"FALSE"	"Windows 10"	"60.19"	"060"	n/a	n/a	n/a	n/a	n/a	n/a	n/a	n/a	n/a	n/a	"2789"	"enter"	n/a	"NULL"	"NULL"	"NULL"	"<p><b>Part 2/6</b></p><p>In this part, two red lines will appear side by side.</p><p>Your task is to tell <b>which line is longer</b> in length, regardless of their orientation, as fast as you can, and without making errors.</p><p>Don't get distracted by the orientation of the lines!</p><p>Press <b>the LEFT or the RIGHT arrow</b> to indicate which <b>line is the longer one.</b></p><div style='float: center'><img src='materials/instructions/VerticalHorizontal_Demo.png' height='300'></img><p><img src='utils/answer/answer_leftright_keyboard.PNG' height='150'></img></p><p class='small'>In this example, the correct answer is the <b>LEFT arrow</b>.</p></div><p>Are you ready? <b>Press ENTER to start</b></p>"	n/a	n/a	n/a	n/a	n/a	n/a	n/a	n/a	n/a	n/a
n/a	"html-keyboard-response"	"184"	"351157"	"0.0-6.0-2.0-0.0"	"fcdggm"	"600"	"1366"	"chrome"	"111.0.0"	"FALSE"	"Windows 10"	"60.19"	"060"	n/a	n/a	n/a	n/a	n/a	n/a	"fixation"	n/a	n/a	n/a	n/a	"NULL"	n/a	"NULL"	"NULL"	"NULL"	"<p style=\"color: black; font-size: 80px; padding-left: 3%; padding-right: 31%; padding-top: 6%; padding-bottom: 30%\">+</p>"	"1261"	n/a	n/a	n/a	n/a	n/a	n/a	n/a	n/a	n/a
n/a	"image-keyboard-response"	"185"	"351620"	"0.0-6.0-2.0-1.0"	"fcdggm"	"600"	"1366"	"chrome"	"111.0.0"	"FALSE"	"Windows 10"	"60.19"	"060"	n/a	n/a	n/a	n/a	n/a	n/a	"Trial"	n/a	n/a	n/a	"463"	"arrowright"	n/a	"NULL"	"NULL"	"NULL"	"stimuli/VerticalHorizontal_-3.3000_-0.1096.png"	n/a	"VerticalHorizontal"	"arrowright"	"1774"	"TRUE"	"VerticalHorizontal"	"-3.300000000"	"-0.109600000"	"2"	"1"
n/a	"html-keyboard-response"	"186"	"352812"	"0.0-6.0-2.0-0.1"	"fcdggm"	"600"	"1366"	"chrome"	"111.0.0"	"FALSE"	"Windows 10"	"60.19"	"060"	n/a	n/a	n/a	n/a	n/a	n/a	"fixation"	n/a	n/a	n/a	n/a	"NULL"	n/a	"NULL"	"NULL"	"NULL"	"<p style=\"color: black; font-size: 80px; padding-left: 25%; padding-right: 24%; padding-top: 44%; padding-bottom: 23%\">+</p>"	"1180"	n/a	n/a	n/a	n/a	n/a	n/a	n/a	n/a	n/a
n/a	"image-keyboard-response"	"187"	"353506"	"0.0-6.0-2.0-1.1"	"fcdggm"	"600"	"1366"	"chrome"	"111.0.0"	"FALSE"	"Windows 10"	"60.19"	"060"	n/a	n/a	n/a	n/a	n/a	n/a	"Trial"	n/a	n/a	n/a	"694"	"arrowright"	n/a	"NULL"	"NULL"	"NULL"	"stimuli/VerticalHorizontal_-11.78571_-0.1096.png"	n/a	"VerticalHorizontal"	"arrowright"	"1192"	"TRUE"	"VerticalHorizontal"	"-11.78571000"	"-0.109600000"	"2"	"2"
n/a	"html-keyboard-response"	"188"	"354668"	"0.0-6.0-2.0-0.2"	"fcdggm"	"600"	"1366"	"chrome"	"111.0.0"	"FALSE"	"Windows 10"	"60.19"	"060"	n/a	n/a	n/a	n/a	n/a	n/a	"fixation"	n/a	n/a	n/a	n/a	"NULL"	n/a	"NULL"	"NULL"	"NULL"	"<p style=\"color: black; font-size: 80px; padding-left: 47%; padding-right: 15%; padding-top: 30%; padding-bottom: 39%\">+</p>"	"1155"	n/a	n/a	n/a	n/a	n/a	n/a	n/a	n/a	n/a
n/a	"image-keyboard-response"	"189"	"355612"	"0.0-6.0-2.0-1.2"	"fcdggm"	"600"	"1366"	"chrome"	"111.0.0"	"FALSE"	"Windows 10"	"60.19"	"060"	n/a	n/a	n/a	n/a	n/a	n/a	"Trial"	n/a	n/a	n/a	"944"	"arrowleft"	n/a	"NULL"	"NULL"	"NULL"	"stimuli/VerticalHorizontal_20.27143_0.10960.png"	n/a	"VerticalHorizontal"	"arrowleft"	"1162"	"TRUE"	"VerticalHorizontal"	"20.271430000"	"0.1096000000"	"2"	"3"
n/a	"html-keyboard-response"	"190"	"356986"	"0.0-6.0-2.0-0.3"	"fcdggm"	"600"	"1366"	"chrome"	"111.0.0"	"FALSE"	"Windows 10"	"60.19"	"060"	n/a	n/a	n/a	n/a	n/a	n/a	"fixation"	n/a	n/a	n/a	n/a	"NULL"	n/a	"NULL"	"NULL"	"NULL"	"<p style=\"color: black; font-size: 80px; padding-left: 17%; padding-right: 29%; padding-top: 37%; padding-bottom: 40%\">+</p>"	"1359"	n/a	n/a	n/a	n/a	n/a	n/a	n/a	n/a	n/a
n/a	"image-keyboard-response"	"191"	"357729"	"0.0-6.0-2.0-1.3"	"fcdggm"	"600"	"1366"	"chrome"	"111.0.0"	"FALSE"	"Windows 10"	"60.19"	"060"	n/a	n/a	n/a	n/a	n/a	n/a	"Trial"	n/a	n/a	n/a	"742"	"arrowleft"	n/a	"NULL"	"NULL"	"NULL"	"stimuli/VerticalHorizontal_20.27143_0.16217.png"	n/a	"VerticalHorizontal"	"arrowleft"	"1374"	"TRUE"	"VerticalHorizontal"	"20.271430000"	"0.1621700000"	"2"	"4"
n/a	"html-keyboard-response"	"192"	"358985"	"0.0-6.0-2.0-0.4"	"fcdggm"	"600"	"1366"	"chrome"	"111.0.0"	"FALSE"	"Windows 10"	"60.19"	"060"	n/a	n/a	n/a	n/a	n/a	n/a	"fixation"	n/a	n/a	n/a	n/a	"NULL"	n/a	"NULL"	"NULL"	"NULL"	"<p style=\"color: black; font-size: 80px; padding-left: 11%; padding-right: 19%; padding-top: 8%; padding-bottom: 0%\">+</p>"	"1247"	n/a	n/a	n/a	n/a	n/a	n/a	n/a	n/a	n/a
n/a	"image-keyboard-response"	"193"	"360107"	"0.0-6.0-2.0-1.4"	"fcdggm"	"600"	"1366"	"chrome"	"111.0.0"	"FALSE"	"Windows 10"	"60.19"	"060"	n/a	n/a	n/a	n/a	n/a	n/a	"Trial"	n/a	n/a	n/a	"1121"	"arrowright"	n/a	"NULL"	"NULL"	"NULL"	"stimuli/VerticalHorizontal_20.27143_-0.0673.png"	n/a	"VerticalHorizontal"	"arrowright"	"1256"	"TRUE"	"VerticalHorizontal"	"20.271430000"	"-0.067300000"	"2"	"5"
n/a	"html-keyboard-response"	"194"	"361499"	"0.0-6.0-2.0-0.5"	"fcdggm"	"600"	"1366"	"chrome"	"111.0.0"	"FALSE"	"Windows 10"	"60.19"	"060"	n/a	n/a	n/a	n/a	n/a	n/a	"fixation"	n/a	n/a	n/a	n/a	"NULL"	n/a	"NULL"	"NULL"	"NULL"	"<p style=\"color: black; font-size: 80px; padding-left: 25%; padding-right: 39%; padding-top: 21%; padding-bottom: 14%\">+</p>"	"1381"	n/a	n/a	n/a	n/a	n/a	n/a	n/a	n/a	n/a
n/a	"image-keyboard-response"	"195"	"362208"	"0.0-6.0-2.0-1.5"	"fcdggm"	"600"	"1366"	"chrome"	"111.0.0"	"FALSE"	"Windows 10"	"60.19"	"060"	n/a	n/a	n/a	n/a	n/a	n/a	"Trial"	n/a	n/a	n/a	"709"	"arrowright"	n/a	"NULL"	"NULL"	"NULL"	"stimuli/VerticalHorizontal_-20.27143_-0.1096.png"	n/a	"VerticalHorizontal"	"arrowright"	"1392"	"TRUE"	"VerticalHorizontal"	"-20.27143000"	"-0.109600000"	"2"	"6"
n/a	"html-keyboard-response"	"196"	"363240"	"0.0-6.0-2.0-0.6"	"fcdggm"	"600"	"1366"	"chrome"	"111.0.0"	"FALSE"	"Windows 10"	"60.19"	"060"	n/a	n/a	n/a	n/a	n/a	n/a	"fixation"	n/a	n/a	n/a	n/a	"NULL"	n/a	"NULL"	"NULL"	"NULL"	"<p style=\"color: black; font-size: 80px; padding-left: 44%; padding-right: 39%; padding-top: 28%; padding-bottom: 41%\">+</p>"	"1019"	n/a	n/a	n/a	n/a	n/a	n/a	n/a	n/a	n/a
n/a	"image-keyboard-response"	"197"	"364170"	"0.0-6.0-2.0-1.6"	"fcdggm"	"600"	"1366"	"chrome"	"111.0.0"	"FALSE"	"Windows 10"	"60.19"	"060"	n/a	n/a	n/a	n/a	n/a	n/a	"Trial"	n/a	n/a	n/a	"929"	"arrowright"	n/a	"NULL"	"NULL"	"NULL"	"stimuli/VerticalHorizontal_28.75714_-0.16217.png"	n/a	"VerticalHorizontal"	"arrowright"	"1032"	"TRUE"	"VerticalHorizontal"	"28.757140000"	"-0.162170000"	"2"	"7"
n/a	"html-keyboard-response"	"198"	"365412"	"0.0-6.0-2.0-0.7"	"fcdggm"	"600"	"1366"	"chrome"	"111.0.0"	"FALSE"	"Windows 10"	"60.19"	"060"	n/a	n/a	n/a	n/a	n/a	n/a	"fixation"	n/a	n/a	n/a	n/a	"NULL"	n/a	"NULL"	"NULL"	"NULL"	"<p style=\"color: black; font-size: 80px; padding-left: 14%; padding-right: 10%; padding-top: 47%; padding-bottom: 7%\">+</p>"	"1239"	n/a	n/a	n/a	n/a	n/a	n/a	n/a	n/a	n/a
n/a	"image-keyboard-response"	"199"	"366225"	"0.0-6.0-2.0-1.7"	"fcdggm"	"600"	"1366"	"chrome"	"111.0.0"	"FALSE"	"Windows 10"	"60.19"	"060"	n/a	n/a	n/a	n/a	n/a	n/a	"Trial"	n/a	n/a	n/a	"812"	"arrowleft"	n/a	"NULL"	"NULL"	"NULL"	"stimuli/VerticalHorizontal_28.75714_0.10960.png"	n/a	"VerticalHorizontal"	"arrowleft"	"1242"	"TRUE"	"VerticalHorizontal"	"28.757140000"	"0.1096000000"	"2"	"8"
n/a	"html-keyboard-response"	"200"	"367273"	"0.0-6.0-2.0-0.8"	"fcdggm"	"600"	"1366"	"chrome"	"111.0.0"	"FALSE"	"Windows 10"	"60.19"	"060"	n/a	n/a	n/a	n/a	n/a	n/a	"fixation"	n/a	n/a	n/a	n/a	"NULL"	n/a	"NULL"	"NULL"	"NULL"	"<p style=\"color: black; font-size: 80px; padding-left: 18%; padding-right: 33%; padding-top: 8%; padding-bottom: 50%\">+</p>"	"1043"	n/a	n/a	n/a	n/a	n/a	n/a	n/a	n/a	n/a
n/a	"image-keyboard-response"	"201"	"367964"	"0.0-6.0-2.0-1.8"	"fcdggm"	"600"	"1366"	"chrome"	"111.0.0"	"FALSE"	"Windows 10"	"60.19"	"060"	n/a	n/a	n/a	n/a	n/a	n/a	"Trial"	n/a	n/a	n/a	"690"	"arrowright"	n/a	"NULL"	"NULL"	"NULL"	"stimuli/VerticalHorizontal_-20.27143_-0.2250.png"	n/a	"VerticalHorizontal"	"arrowright"	"1048"	"TRUE"	"VerticalHorizontal"	"-20.27143000"	"-0.225000000"	"2"	"9"
n/a	"html-keyboard-response"	"202"	"369280"	"0.0-6.0-2.0-0.9"	"fcdggm"	"600"	"1366"	"chrome"	"111.0.0"	"FALSE"	"Windows 10"	"60.19"	"060"	n/a	n/a	n/a	n/a	n/a	n/a	"fixation"	n/a	n/a	n/a	n/a	"NULL"	n/a	"NULL"	"NULL"	"NULL"	"<p style=\"color: black; font-size: 80px; padding-left: 38%; padding-right: 42%; padding-top: 4%; padding-bottom: 49%\">+</p>"	"1313"	n/a	n/a	n/a	n/a	n/a	n/a	n/a	n/a	n/a
n/a	"image-keyboard-response"	"203"	"369997"	"0.0-6.0-2.0-1.9"	"fcdggm"	"600"	"1366"	"chrome"	"111.0.0"	"FALSE"	"Windows 10"	"60.19"	"060"	n/a	n/a	n/a	n/a	n/a	n/a	"Trial"	n/a	n/a	n/a	"716"	"arrowright"	n/a	"NULL"	"NULL"	"NULL"	"stimuli/VerticalHorizontal_-20.27143_-0.0673.png"	n/a	"VerticalHorizontal"	"arrowright"	"1316"	"TRUE"	"VerticalHorizontal"	"-20.27143000"	"-0.067300000"	"2"	"10"
n/a	"html-keyboard-response"	"204"	"371447"	"0.0-6.0-2.0-0.10"	"fcdggm"	"600"	"1366"	"chrome"	"111.0.0"	"FALSE"	"Windows 10"	"60.19"	"060"	n/a	n/a	n/a	n/a	n/a	n/a	"fixation"	n/a	n/a	n/a	n/a	"NULL"	n/a	"NULL"	"NULL"	"NULL"	"<p style=\"color: black; font-size: 80px; padding-left: 11%; padding-right: 6%; padding-top: 39%; padding-bottom: 18%\">+</p>"	"1446"	n/a	n/a	n/a	n/a	n/a	n/a	n/a	n/a	n/a
n/a	"image-keyboard-response"	"205"	"372341"	"0.0-6.0-2.0-1.10"	"fcdggm"	"600"	"1366"	"chrome"	"111.0.0"	"FALSE"	"Windows 10"	"60.19"	"060"	n/a	n/a	n/a	n/a	n/a	n/a	"Trial"	n/a	n/a	n/a	"894"	"arrowleft"	n/a	"NULL"	"NULL"	"NULL"	"stimuli/VerticalHorizontal_3.30000_0.06730.png"	n/a	"VerticalHorizontal"	"arrowleft"	"1450"	"TRUE"	"VerticalHorizontal"	"3.3000000000"	"0.0673000000"	"2"	"11"
n/a	"html-keyboard-response"	"206"	"373767"	"0.0-6.0-2.0-0.11"	"fcdggm"	"600"	"1366"	"chrome"	"111.0.0"	"FALSE"	"Windows 10"	"60.19"	"060"	n/a	n/a	n/a	n/a	n/a	n/a	"fixation"	n/a	n/a	n/a	n/a	"NULL"	n/a	"NULL"	"NULL"	"NULL"	"<p style=\"color: black; font-size: 80px; padding-left: 29%; padding-right: 6%; padding-top: 2%; padding-bottom: 46%\">+</p>"	"1413"	n/a	n/a	n/a	n/a	n/a	n/a	n/a	n/a	n/a
n/a	"image-keyboard-response"	"207"	"374344"	"0.0-6.0-2.0-1.11"	"fcdggm"	"600"	"1366"	"chrome"	"111.0.0"	"FALSE"	"Windows 10"	"60.19"	"060"	n/a	n/a	n/a	n/a	n/a	n/a	"Trial"	n/a	n/a	n/a	"577"	"arrowleft"	n/a	"NULL"	"NULL"	"NULL"	"stimuli/VerticalHorizontal_-3.3000_0.22500.png"	n/a	"VerticalHorizontal"	"arrowleft"	"1426"	"TRUE"	"VerticalHorizontal"	"-3.300000000"	"0.2250000000"	"2"	"12"
n/a	"html-keyboard-response"	"208"	"375484"	"0.0-6.0-2.0-0.12"	"fcdggm"	"600"	"1366"	"chrome"	"111.0.0"	"FALSE"	"Windows 10"	"60.19"	"060"	n/a	n/a	n/a	n/a	n/a	n/a	"fixation"	n/a	n/a	n/a	n/a	"NULL"	n/a	"NULL"	"NULL"	"NULL"	"<p style=\"color: black; font-size: 80px; padding-left: 32%; padding-right: 47%; padding-top: 38%; padding-bottom: 25%\">+</p>"	"1134"	n/a	n/a	n/a	n/a	n/a	n/a	n/a	n/a	n/a
n/a	"image-keyboard-response"	"209"	"376404"	"0.0-6.0-2.0-1.12"	"fcdggm"	"600"	"1366"	"chrome"	"111.0.0"	"FALSE"	"Windows 10"	"60.19"	"060"	n/a	n/a	n/a	n/a	n/a	n/a	"Trial"	n/a	n/a	n/a	"920"	"arrowleft"	n/a	"NULL"	"NULL"	"NULL"	"stimuli/VerticalHorizontal_28.75714_0.16217.png"	n/a	"VerticalHorizontal"	"arrowleft"	"1140"	"TRUE"	"VerticalHorizontal"	"28.757140000"	"0.1621700000"	"2"	"13"
n/a	"html-keyboard-response"	"210"	"377743"	"0.0-6.0-2.0-0.13"	"fcdggm"	"600"	"1366"	"chrome"	"111.0.0"	"FALSE"	"Windows 10"	"60.19"	"060"	n/a	n/a	n/a	n/a	n/a	n/a	"fixation"	n/a	n/a	n/a	n/a	"NULL"	n/a	"NULL"	"NULL"	"NULL"	"<p style=\"color: black; font-size: 80px; padding-left: 40%; padding-right: 8%; padding-top: 30%; padding-bottom: 13%\">+</p>"	"1324"	n/a	n/a	n/a	n/a	n/a	n/a	n/a	n/a	n/a
n/a	"image-keyboard-response"	"211"	"378525"	"0.0-6.0-2.0-1.13"	"fcdggm"	"600"	"1366"	"chrome"	"111.0.0"	"FALSE"	"Windows 10"	"60.19"	"060"	n/a	n/a	n/a	n/a	n/a	n/a	"Trial"	n/a	n/a	n/a	"781"	"arrowleft"	n/a	"NULL"	"NULL"	"NULL"	"stimuli/VerticalHorizontal_-11.78571_-0.0673.png"	n/a	"VerticalHorizontal"	"arrowright"	"1339"	"FALSE"	"VerticalHorizontal"	"-11.78571000"	"-0.067300000"	"2"	"14"
n/a	"html-keyboard-response"	"212"	"379853"	"0.0-6.0-2.0-0.14"	"fcdggm"	"600"	"1366"	"chrome"	"111.0.0"	"FALSE"	"Windows 10"	"60.19"	"060"	n/a	n/a	n/a	n/a	n/a	n/a	"fixation"	n/a	n/a	n/a	n/a	"NULL"	n/a	"NULL"	"NULL"	"NULL"	"<p style=\"color: black; font-size: 80px; padding-left: 7%; padding-right: 15%; padding-top: 47%; padding-bottom: 46%\">+</p>"	"1317"	n/a	n/a	n/a	n/a	n/a	n/a	n/a	n/a	n/a
n/a	"image-keyboard-response"	"213"	"380537"	"0.0-6.0-2.0-1.14"	"fcdggm"	"600"	"1366"	"chrome"	"111.0.0"	"FALSE"	"Windows 10"	"60.19"	"060"	n/a	n/a	n/a	n/a	n/a	n/a	"Trial"	n/a	n/a	n/a	"684"	"arrowleft"	n/a	"NULL"	"NULL"	"NULL"	"stimuli/VerticalHorizontal_-3.3000_0.16217.png"	n/a	"VerticalHorizontal"	"arrowleft"	"1328"	"TRUE"	"VerticalHorizontal"	"-3.300000000"	"0.1621700000"	"2"	"15"
n/a	"html-keyboard-response"	"214"	"381618"	"0.0-6.0-2.0-0.15"	"fcdggm"	"600"	"1366"	"chrome"	"111.0.0"	"FALSE"	"Windows 10"	"60.19"	"060"	n/a	n/a	n/a	n/a	n/a	n/a	"fixation"	n/a	n/a	n/a	n/a	"NULL"	n/a	"NULL"	"NULL"	"NULL"	"<p style=\"color: black; font-size: 80px; padding-left: 10%; padding-right: 12%; padding-top: 5%; padding-bottom: 23%\">+</p>"	"1075"	n/a	n/a	n/a	n/a	n/a	n/a	n/a	n/a	n/a
n/a	"image-keyboard-response"	"215"	"382212"	"0.0-6.0-2.0-1.15"	"fcdggm"	"600"	"1366"	"chrome"	"111.0.0"	"FALSE"	"Windows 10"	"60.19"	"060"	n/a	n/a	n/a	n/a	n/a	n/a	"Trial"	n/a	n/a	n/a	"594"	"arrowright"	n/a	"NULL"	"NULL"	"NULL"	"stimuli/VerticalHorizontal_-28.75714_-0.2250.png"	n/a	"VerticalHorizontal"	"arrowright"	"1081"	"TRUE"	"VerticalHorizontal"	"-28.75714000"	"-0.225000000"	"2"	"16"
n/a	"html-keyboard-response"	"216"	"383276"	"0.0-6.0-2.0-0.16"	"fcdggm"	"600"	"1366"	"chrome"	"111.0.0"	"FALSE"	"Windows 10"	"60.19"	"060"	n/a	n/a	n/a	n/a	n/a	n/a	"fixation"	n/a	n/a	n/a	n/a	"NULL"	n/a	"NULL"	"NULL"	"NULL"	"<p style=\"color: black; font-size: 80px; padding-left: 18%; padding-right: 18%; padding-top: 48%; padding-bottom: 49%\">+</p>"	"1054"	n/a	n/a	n/a	n/a	n/a	n/a	n/a	n/a	n/a
n/a	"image-keyboard-response"	"217"	"383980"	"0.0-6.0-2.0-1.16"	"fcdggm"	"600"	"1366"	"chrome"	"111.0.0"	"FALSE"	"Windows 10"	"60.19"	"060"	n/a	n/a	n/a	n/a	n/a	n/a	"Trial"	n/a	n/a	n/a	"703"	"arrowleft"	n/a	"NULL"	"NULL"	"NULL"	"stimuli/VerticalHorizontal_28.75714_0.06730.png"	n/a	"VerticalHorizontal"	"arrowleft"	"1064"	"TRUE"	"VerticalHorizontal"	"28.757140000"	"0.0673000000"	"2"	"17"
n/a	"html-keyboard-response"	"218"	"385320"	"0.0-6.0-2.0-0.17"	"fcdggm"	"600"	"1366"	"chrome"	"111.0.0"	"FALSE"	"Windows 10"	"60.19"	"060"	n/a	n/a	n/a	n/a	n/a	n/a	"fixation"	n/a	n/a	n/a	n/a	"NULL"	n/a	"NULL"	"NULL"	"NULL"	"<p style=\"color: black; font-size: 80px; padding-left: 16%; padding-right: 30%; padding-top: 8%; padding-bottom: 28%\">+</p>"	"1337"	n/a	n/a	n/a	n/a	n/a	n/a	n/a	n/a	n/a
n/a	"image-keyboard-response"	"219"	"385798"	"0.0-6.0-2.0-1.17"	"fcdggm"	"600"	"1366"	"chrome"	"111.0.0"	"FALSE"	"Windows 10"	"60.19"	"060"	n/a	n/a	n/a	n/a	n/a	n/a	"Trial"	n/a	n/a	n/a	"478"	"arrowleft"	n/a	"NULL"	"NULL"	"NULL"	"stimuli/VerticalHorizontal_-20.27143_0.22500.png"	n/a	"VerticalHorizontal"	"arrowleft"	"1340"	"TRUE"	"VerticalHorizontal"	"-20.27143000"	"0.2250000000"	"2"	"18"
n/a	"html-keyboard-response"	"220"	"387274"	"0.0-6.0-2.0-0.18"	"fcdggm"	"600"	"1366"	"chrome"	"111.0.0"	"FALSE"	"Windows 10"	"60.19"	"060"	n/a	n/a	n/a	n/a	n/a	n/a	"fixation"	n/a	n/a	n/a	n/a	"NULL"	n/a	"NULL"	"NULL"	"NULL"	"<p style=\"color: black; font-size: 80px; padding-left: 35%; padding-right: 10%; padding-top: 15%; padding-bottom: 7%\">+</p>"	"1472"	n/a	n/a	n/a	n/a	n/a	n/a	n/a	n/a	n/a
n/a	"image-keyboard-response"	"221"	"387931"	"0.0-6.0-2.0-1.18"	"fcdggm"	"600"	"1366"	"chrome"	"111.0.0"	"FALSE"	"Windows 10"	"60.19"	"060"	n/a	n/a	n/a	n/a	n/a	n/a	"Trial"	n/a	n/a	n/a	"657"	"arrowleft"	n/a	"NULL"	"NULL"	"NULL"	"stimuli/VerticalHorizontal_11.78571_0.16217.png"	n/a	"VerticalHorizontal"	"arrowleft"	"1476"	"TRUE"	"VerticalHorizontal"	"11.785710000"	"0.1621700000"	"2"	"19"
n/a	"html-keyboard-response"	"222"	"389355"	"0.0-6.0-2.0-0.19"	"fcdggm"	"600"	"1366"	"chrome"	"111.0.0"	"FALSE"	"Windows 10"	"60.19"	"060"	n/a	n/a	n/a	n/a	n/a	n/a	"fixation"	n/a	n/a	n/a	n/a	"NULL"	n/a	"NULL"	"NULL"	"NULL"	"<p style=\"color: black; font-size: 80px; padding-left: 49%; padding-right: 45%; padding-top: 31%; padding-bottom: 25%\">+</p>"	"1410"	n/a	n/a	n/a	n/a	n/a	n/a	n/a	n/a	n/a
n/a	"image-keyboard-response"	"223"	"389854"	"0.0-6.0-2.0-1.19"	"fcdggm"	"600"	"1366"	"chrome"	"111.0.0"	"FALSE"	"Windows 10"	"60.19"	"060"	n/a	n/a	n/a	n/a	n/a	n/a	"Trial"	n/a	n/a	n/a	"498"	"arrowright"	n/a	"NULL"	"NULL"	"NULL"	"stimuli/VerticalHorizontal_-3.3000_-0.0673.png"	n/a	"VerticalHorizontal"	"arrowright"	"1424"	"TRUE"	"VerticalHorizontal"	"-3.300000000"	"-0.067300000"	"2"	"20"
n/a	"html-keyboard-response"	"224"	"391169"	"0.0-6.0-2.0-0.20"	"fcdggm"	"600"	"1366"	"chrome"	"111.0.0"	"FALSE"	"Windows 10"	"60.19"	"060"	n/a	n/a	n/a	n/a	n/a	n/a	"fixation"	n/a	n/a	n/a	n/a	"NULL"	n/a	"NULL"	"NULL"	"NULL"	"<p style=\"color: black; font-size: 80px; padding-left: 14%; padding-right: 30%; padding-top: 11%; padding-bottom: 2%\">+</p>"	"1303"	n/a	n/a	n/a	n/a	n/a	n/a	n/a	n/a	n/a
n/a	"image-keyboard-response"	"225"	"391876"	"0.0-6.0-2.0-1.20"	"fcdggm"	"600"	"1366"	"chrome"	"111.0.0"	"FALSE"	"Windows 10"	"60.19"	"060"	n/a	n/a	n/a	n/a	n/a	n/a	"Trial"	n/a	n/a	n/a	"706"	"arrowleft"	n/a	"NULL"	"NULL"	"NULL"	"stimuli/VerticalHorizontal_-28.75714_0.10960.png"	n/a	"VerticalHorizontal"	"arrowleft"	"1315"	"TRUE"	"VerticalHorizontal"	"-28.75714000"	"0.1096000000"	"2"	"21"
n/a	"html-keyboard-response"	"226"	"393031"	"0.0-6.0-2.0-0.21"	"fcdggm"	"600"	"1366"	"chrome"	"111.0.0"	"FALSE"	"Windows 10"	"60.19"	"060"	n/a	n/a	n/a	n/a	n/a	n/a	"fixation"	n/a	n/a	n/a	n/a	"NULL"	n/a	"NULL"	"NULL"	"NULL"	"<p style=\"color: black; font-size: 80px; padding-left: 40%; padding-right: 45%; padding-top: 11%; padding-bottom: 46%\">+</p>"	"1152"	n/a	n/a	n/a	n/a	n/a	n/a	n/a	n/a	n/a
n/a	"image-keyboard-response"	"227"	"393689"	"0.0-6.0-2.0-1.21"	"fcdggm"	"600"	"1366"	"chrome"	"111.0.0"	"FALSE"	"Windows 10"	"60.19"	"060"	n/a	n/a	n/a	n/a	n/a	n/a	"Trial"	n/a	n/a	n/a	"658"	"arrowright"	n/a	"NULL"	"NULL"	"NULL"	"stimuli/VerticalHorizontal_11.78571_-0.1096.png"	n/a	"VerticalHorizontal"	"arrowright"	"1155"	"TRUE"	"VerticalHorizontal"	"11.785710000"	"-0.109600000"	"2"	"22"
n/a	"html-keyboard-response"	"228"	"395146"	"0.0-6.0-2.0-0.22"	"fcdggm"	"600"	"1366"	"chrome"	"111.0.0"	"FALSE"	"Windows 10"	"60.19"	"060"	n/a	n/a	n/a	n/a	n/a	n/a	"fixation"	n/a	n/a	n/a	n/a	"NULL"	n/a	"NULL"	"NULL"	"NULL"	"<p style=\"color: black; font-size: 80px; padding-left: 20%; padding-right: 13%; padding-top: 44%; padding-bottom: 35%\">+</p>"	"1442"	n/a	n/a	n/a	n/a	n/a	n/a	n/a	n/a	n/a
n/a	"image-keyboard-response"	"229"	"395819"	"0.0-6.0-2.0-1.22"	"fcdggm"	"600"	"1366"	"chrome"	"111.0.0"	"FALSE"	"Windows 10"	"60.19"	"060"	n/a	n/a	n/a	n/a	n/a	n/a	"Trial"	n/a	n/a	n/a	"673"	"arrowright"	n/a	"NULL"	"NULL"	"NULL"	"stimuli/VerticalHorizontal_-11.78571_-0.16217.png"	n/a	"VerticalHorizontal"	"arrowright"	"1457"	"TRUE"	"VerticalHorizontal"	"-11.78571000"	"-0.162170000"	"2"	"23"
n/a	"html-keyboard-response"	"230"	"397062"	"0.0-6.0-2.0-0.23"	"fcdggm"	"600"	"1366"	"chrome"	"111.0.0"	"FALSE"	"Windows 10"	"60.19"	"060"	n/a	n/a	n/a	n/a	n/a	n/a	"fixation"	n/a	n/a	n/a	n/a	"NULL"	n/a	"NULL"	"NULL"	"NULL"	"<p style=\"color: black; font-size: 80px; padding-left: 7%; padding-right: 2%; padding-top: 28%; padding-bottom: 13%\">+</p>"	"1237"	n/a	n/a	n/a	n/a	n/a	n/a	n/a	n/a	n/a
n/a	"image-keyboard-response"	"231"	"397526"	"0.0-6.0-2.0-1.23"	"fcdggm"	"600"	"1366"	"chrome"	"111.0.0"	"FALSE"	"Windows 10"	"60.19"	"060"	n/a	n/a	n/a	n/a	n/a	n/a	"Trial"	n/a	n/a	n/a	"463"	"arrowleft"	n/a	"NULL"	"NULL"	"NULL"	"stimuli/VerticalHorizontal_-28.75714_0.16217.png"	n/a	"VerticalHorizontal"	"arrowleft"	"1243"	"TRUE"	"VerticalHorizontal"	"-28.75714000"	"0.1621700000"	"2"	"24"
n/a	"html-keyboard-response"	"232"	"398873"	"0.0-6.0-2.0-0.24"	"fcdggm"	"600"	"1366"	"chrome"	"111.0.0"	"FALSE"	"Windows 10"	"60.19"	"060"	n/a	n/a	n/a	n/a	n/a	n/a	"fixation"	n/a	n/a	n/a	n/a	"NULL"	n/a	"NULL"	"NULL"	"NULL"	"<p style=\"color: black; font-size: 80px; padding-left: 45%; padding-right: 1%; padding-top: 13%; padding-bottom: 27%\">+</p>"	"1341"	n/a	n/a	n/a	n/a	n/a	n/a	n/a	n/a	n/a
n/a	"image-keyboard-response"	"233"	"399327"	"0.0-6.0-2.0-1.24"	"fcdggm"	"600"	"1366"	"chrome"	"111.0.0"	"FALSE"	"Windows 10"	"60.19"	"060"	n/a	n/a	n/a	n/a	n/a	n/a	"Trial"	n/a	n/a	n/a	"453"	"arrowright"	n/a	"NULL"	"NULL"	"NULL"	"stimuli/VerticalHorizontal_-28.75714_-0.1096.png"	n/a	"VerticalHorizontal"	"arrowright"	"1347"	"TRUE"	"VerticalHorizontal"	"-28.75714000"	"-0.109600000"	"2"	"25"
n/a	"html-keyboard-response"	"234"	"400703"	"0.0-6.0-2.0-0.25"	"fcdggm"	"600"	"1366"	"chrome"	"111.0.0"	"FALSE"	"Windows 10"	"60.19"	"060"	n/a	n/a	n/a	n/a	n/a	n/a	"fixation"	n/a	n/a	n/a	n/a	"NULL"	n/a	"NULL"	"NULL"	"NULL"	"<p style=\"color: black; font-size: 80px; padding-left: 29%; padding-right: 17%; padding-top: 21%; padding-bottom: 24%\">+</p>"	"1361"	n/a	n/a	n/a	n/a	n/a	n/a	n/a	n/a	n/a
n/a	"image-keyboard-response"	"235"	"401198"	"0.0-6.0-2.0-1.25"	"fcdggm"	"600"	"1366"	"chrome"	"111.0.0"	"FALSE"	"Windows 10"	"60.19"	"060"	n/a	n/a	n/a	n/a	n/a	n/a	"Trial"	n/a	n/a	n/a	"494"	"arrowleft"	n/a	"NULL"	"NULL"	"NULL"	"stimuli/VerticalHorizontal_-20.27143_0.06730.png"	n/a	"VerticalHorizontal"	"arrowleft"	"1376"	"TRUE"	"VerticalHorizontal"	"-20.27143000"	"0.0673000000"	"2"	"26"
n/a	"html-keyboard-response"	"236"	"402423"	"0.0-6.0-2.0-0.26"	"fcdggm"	"600"	"1366"	"chrome"	"111.0.0"	"FALSE"	"Windows 10"	"60.19"	"060"	n/a	n/a	n/a	n/a	n/a	n/a	"fixation"	n/a	n/a	n/a	n/a	"NULL"	n/a	"NULL"	"NULL"	"NULL"	"<p style=\"color: black; font-size: 80px; padding-left: 9%; padding-right: 6%; padding-top: 30%; padding-bottom: 38%\">+</p>"	"1218"	n/a	n/a	n/a	n/a	n/a	n/a	n/a	n/a	n/a
n/a	"image-keyboard-response"	"237"	"403121"	"0.0-6.0-2.0-1.26"	"fcdggm"	"600"	"1366"	"chrome"	"111.0.0"	"FALSE"	"Windows 10"	"60.19"	"060"	n/a	n/a	n/a	n/a	n/a	n/a	"Trial"	n/a	n/a	n/a	"698"	"arrowleft"	n/a	"NULL"	"NULL"	"NULL"	"stimuli/VerticalHorizontal_20.27143_0.06730.png"	n/a	"VerticalHorizontal"	"arrowleft"	"1225"	"TRUE"	"VerticalHorizontal"	"20.271430000"	"0.0673000000"	"2"	"27"
n/a	"html-keyboard-response"	"238"	"404295"	"0.0-6.0-2.0-0.27"	"fcdggm"	"600"	"1366"	"chrome"	"111.0.0"	"FALSE"	"Windows 10"	"60.19"	"060"	n/a	n/a	n/a	n/a	n/a	n/a	"fixation"	n/a	n/a	n/a	n/a	"NULL"	n/a	"NULL"	"NULL"	"NULL"	"<p style=\"color: black; font-size: 80px; padding-left: 19%; padding-right: 47%; padding-top: 4%; padding-bottom: 50%\">+</p>"	"1158"	n/a	n/a	n/a	n/a	n/a	n/a	n/a	n/a	n/a
n/a	"image-keyboard-response"	"239"	"404797"	"0.0-6.0-2.0-1.27"	"fcdggm"	"600"	"1366"	"chrome"	"111.0.0"	"FALSE"	"Windows 10"	"60.19"	"060"	n/a	n/a	n/a	n/a	n/a	n/a	"Trial"	n/a	n/a	n/a	"501"	"arrowleft"	n/a	"NULL"	"NULL"	"NULL"	"stimuli/VerticalHorizontal_-11.78571_0.16217.png"	n/a	"VerticalHorizontal"	"arrowleft"	"1174"	"TRUE"	"VerticalHorizontal"	"-11.78571000"	"0.1621700000"	"2"	"28"
n/a	"html-keyboard-response"	"240"	"406091"	"0.0-6.0-2.0-0.28"	"fcdggm"	"600"	"1366"	"chrome"	"111.0.0"	"FALSE"	"Windows 10"	"60.19"	"060"	n/a	n/a	n/a	n/a	n/a	n/a	"fixation"	n/a	n/a	n/a	n/a	"NULL"	n/a	"NULL"	"NULL"	"NULL"	"<p style=\"color: black; font-size: 80px; padding-left: 25%; padding-right: 9%; padding-top: 1%; padding-bottom: 26%\">+</p>"	"1293"	n/a	n/a	n/a	n/a	n/a	n/a	n/a	n/a	n/a
n/a	"image-keyboard-response"	"241"	"406715"	"0.0-6.0-2.0-1.28"	"fcdggm"	"600"	"1366"	"chrome"	"111.0.0"	"FALSE"	"Windows 10"	"60.19"	"060"	n/a	n/a	n/a	n/a	n/a	n/a	"Trial"	n/a	n/a	n/a	"624"	"arrowright"	n/a	"NULL"	"NULL"	"NULL"	"stimuli/VerticalHorizontal_20.27143_-0.16217.png"	n/a	"VerticalHorizontal"	"arrowright"	"1294"	"TRUE"	"VerticalHorizontal"	"20.271430000"	"-0.162170000"	"2"	"29"
n/a	"html-keyboard-response"	"242"	"407833"	"0.0-6.0-2.0-0.29"	"fcdggm"	"600"	"1366"	"chrome"	"111.0.0"	"FALSE"	"Windows 10"	"60.19"	"060"	n/a	n/a	n/a	n/a	n/a	n/a	"fixation"	n/a	n/a	n/a	n/a	"NULL"	n/a	"NULL"	"NULL"	"NULL"	"<p style=\"color: black; font-size: 80px; padding-left: 29%; padding-right: 43%; padding-top: 23%; padding-bottom: 38%\">+</p>"	"1117"	n/a	n/a	n/a	n/a	n/a	n/a	n/a	n/a	n/a
n/a	"image-keyboard-response"	"243"	"408497"	"0.0-6.0-2.0-1.29"	"fcdggm"	"600"	"1366"	"chrome"	"111.0.0"	"FALSE"	"Windows 10"	"60.19"	"060"	n/a	n/a	n/a	n/a	n/a	n/a	"Trial"	n/a	n/a	n/a	"663"	"arrowleft"	n/a	"NULL"	"NULL"	"NULL"	"stimuli/VerticalHorizontal_11.78571_0.22500.png"	n/a	"VerticalHorizontal"	"arrowleft"	"1118"	"TRUE"	"VerticalHorizontal"	"11.785710000"	"0.2250000000"	"2"	"30"
n/a	"html-keyboard-response"	"244"	"409945"	"0.0-6.0-2.0-0.30"	"fcdggm"	"600"	"1366"	"chrome"	"111.0.0"	"FALSE"	"Windows 10"	"60.19"	"060"	n/a	n/a	n/a	n/a	n/a	n/a	"fixation"	n/a	n/a	n/a	n/a	"NULL"	n/a	"NULL"	"NULL"	"NULL"	"<p style=\"color: black; font-size: 80px; padding-left: 40%; padding-right: 21%; padding-top: 36%; padding-bottom: 26%\">+</p>"	"1442"	n/a	n/a	n/a	n/a	n/a	n/a	n/a	n/a	n/a
n/a	"image-keyboard-response"	"245"	"410446"	"0.0-6.0-2.0-1.30"	"fcdggm"	"600"	"1366"	"chrome"	"111.0.0"	"FALSE"	"Windows 10"	"60.19"	"060"	n/a	n/a	n/a	n/a	n/a	n/a	"Trial"	n/a	n/a	n/a	"500"	"arrowleft"	n/a	"NULL"	"NULL"	"NULL"	"stimuli/VerticalHorizontal_11.78571_0.06730.png"	n/a	"VerticalHorizontal"	"arrowleft"	"1448"	"TRUE"	"VerticalHorizontal"	"11.785710000"	"0.0673000000"	"2"	"31"
n/a	"html-keyboard-response"	"246"	"411796"	"0.0-6.0-2.0-0.31"	"fcdggm"	"600"	"1366"	"chrome"	"111.0.0"	"FALSE"	"Windows 10"	"60.19"	"060"	n/a	n/a	n/a	n/a	n/a	n/a	"fixation"	n/a	n/a	n/a	n/a	"NULL"	n/a	"NULL"	"NULL"	"NULL"	"<p style=\"color: black; font-size: 80px; padding-left: 9%; padding-right: 42%; padding-top: 44%; padding-bottom: 9%\">+</p>"	"1348"	n/a	n/a	n/a	n/a	n/a	n/a	n/a	n/a	n/a
n/a	"image-keyboard-response"	"247"	"412281"	"0.0-6.0-2.0-1.31"	"fcdggm"	"600"	"1366"	"chrome"	"111.0.0"	"FALSE"	"Windows 10"	"60.19"	"060"	n/a	n/a	n/a	n/a	n/a	n/a	"Trial"	n/a	n/a	n/a	"484"	"arrowleft"	n/a	"NULL"	"NULL"	"NULL"	"stimuli/VerticalHorizontal_20.27143_0.22500.png"	n/a	"VerticalHorizontal"	"arrowleft"	"1350"	"TRUE"	"VerticalHorizontal"	"20.271430000"	"0.2250000000"	"2"	"32"
n/a	"html-keyboard-response"	"248"	"413594"	"0.0-6.0-2.0-0.32"	"fcdggm"	"600"	"1366"	"chrome"	"111.0.0"	"FALSE"	"Windows 10"	"60.19"	"060"	n/a	n/a	n/a	n/a	n/a	n/a	"fixation"	n/a	n/a	n/a	n/a	"NULL"	n/a	"NULL"	"NULL"	"NULL"	"<p style=\"color: black; font-size: 80px; padding-left: 43%; padding-right: 5%; padding-top: 10%; padding-bottom: 38%\">+</p>"	"1309"	n/a	n/a	n/a	n/a	n/a	n/a	n/a	n/a	n/a
n/a	"image-keyboard-response"	"249"	"414097"	"0.0-6.0-2.0-1.32"	"fcdggm"	"600"	"1366"	"chrome"	"111.0.0"	"FALSE"	"Windows 10"	"60.19"	"060"	n/a	n/a	n/a	n/a	n/a	n/a	"Trial"	n/a	n/a	n/a	"502"	"arrowleft"	n/a	"NULL"	"NULL"	"NULL"	"stimuli/VerticalHorizontal_-11.78571_0.22500.png"	n/a	"VerticalHorizontal"	"arrowleft"	"1313"	"TRUE"	"VerticalHorizontal"	"-11.78571000"	"0.2250000000"	"2"	"33"
n/a	"html-keyboard-response"	"250"	"415468"	"0.0-6.0-2.0-0.33"	"fcdggm"	"600"	"1366"	"chrome"	"111.0.0"	"FALSE"	"Windows 10"	"60.19"	"060"	n/a	n/a	n/a	n/a	n/a	n/a	"fixation"	n/a	n/a	n/a	n/a	"NULL"	n/a	"NULL"	"NULL"	"NULL"	"<p style=\"color: black; font-size: 80px; padding-left: 20%; padding-right: 25%; padding-top: 17%; padding-bottom: 18%\">+</p>"	"1370"	n/a	n/a	n/a	n/a	n/a	n/a	n/a	n/a	n/a
n/a	"image-keyboard-response"	"251"	"416243"	"0.0-6.0-2.0-1.33"	"fcdggm"	"600"	"1366"	"chrome"	"111.0.0"	"FALSE"	"Windows 10"	"60.19"	"060"	n/a	n/a	n/a	n/a	n/a	n/a	"Trial"	n/a	n/a	n/a	"774"	"arrowleft"	n/a	"NULL"	"NULL"	"NULL"	"stimuli/VerticalHorizontal_3.30000_0.10960.png"	n/a	"VerticalHorizontal"	"arrowleft"	"1371"	"TRUE"	"VerticalHorizontal"	"3.3000000000"	"0.1096000000"	"2"	"34"
