"success"	"trial_type"	"trial_index"	"time_elapsed"	"internal_node_id"	"participant_id"	"screen_height"	"screen_width"	"browser"	"browser_version"	"mobile"	"os"	"vsync_rate"	"subject_id"	"width"	"height"	"webaudio"	"fullscreen"	"webcam"	"microphone"	"screen"	"version"	"date"	"time"	"rt"	"response"	"timeout"	"failed_images"	"failed_audio"	"failed_video"	"stimulus"	"trial_duration"	"block"	"correct_response"	"prestimulus_duration"	"correct"	"type"	"illusion_strength"	"illusion_difference"	"block_number"	"trial_number"
"TRUE"	"fullscreen"	"0"	"5766"	"0.0-0.0"	"b1dzdf"	"600"	"1366"	"chrome"	"108.0.0"	"FALSE"	"Windows 10"	"60.17"	"138"	n/a	n/a	n/a	n/a	n/a	n/a	n/a	n/a	n/a	n/a	n/a	"NULL"	n/a	"NULL"	"NULL"	"NULL"	n/a	n/a	n/a	n/a	n/a	n/a	n/a	n/a	n/a	n/a	n/a
n/a	"browser-check"	"1"	"6780"	"0.0-1.0"	"b1dzdf"	"600"	"1366"	"chrome"	"108.0.0"	"FALSE"	"Windows 10"	"60.17"	"138"	"1366"	"600"	"TRUE"	"TRUE"	"TRUE"	"TRUE"	"browser_info"	"1.0"	"30/12/2022"	"14:37:24"	n/a	"NULL"	n/a	"NULL"	"NULL"	"NULL"	n/a	n/a	n/a	n/a	n/a	n/a	n/a	n/a	n/a	n/a	n/a
n/a	"survey-text"	"2"	"16602"	"0.0-2.0"	"b1dzdf"	"600"	"1366"	"chrome"	"108.0.0"	"FALSE"	"Windows 10"	"60.17"	"138"	n/a	n/a	n/a	n/a	n/a	n/a	"subject_id"	n/a	n/a	n/a	"9818"	"list(subject_id = \"138\")"	n/a	"NULL"	"NULL"	"NULL"	n/a	n/a	n/a	n/a	n/a	n/a	n/a	n/a	n/a	n/a	n/a
"TRUE"	"preload"	"3"	"16615"	"0.0-3.0"	"b1dzdf"	"600"	"1366"	"chrome"	"108.0.0"	"FALSE"	"Windows 10"	"60.17"	"138"	n/a	n/a	n/a	n/a	n/a	n/a	n/a	n/a	n/a	n/a	n/a	"NULL"	"FALSE"	"list()"	"list()"	"list()"	n/a	n/a	n/a	n/a	n/a	n/a	n/a	n/a	n/a	n/a	n/a
n/a	"html-button-response"	"4"	"25887"	"0.0-4.0-0.0"	"b1dzdf"	"600"	"1366"	"chrome"	"108.0.0"	"FALSE"	"Windows 10"	"60.17"	"138"	n/a	n/a	n/a	n/a	n/a	n/a	"illusion_instructions"	n/a	n/a	n/a	"9272"	"0"	n/a	"NULL"	"NULL"	"NULL"	"<p><b>Illusion Game</b></p><p>In this game of speed and reflex, you will need to make <b>visual judgments</b> (for instance, which circle is the biggest, or which line is the longest), as fast and as correctly as possible, while <b>resisting different visual illusions</b>.</p><p>We are going to start with some examples of all the illusions you will encounter in the game.</p>"	n/a	n/a	n/a	n/a	n/a	n/a	n/a	n/a	n/a	n/a
"TRUE"	"preload"	"5"	"25903"	"0.0-4.0-1.0-0.0"	"b1dzdf"	"600"	"1366"	"chrome"	"108.0.0"	"FALSE"	"Windows 10"	"60.17"	"138"	n/a	n/a	n/a	n/a	n/a	n/a	n/a	n/a	n/a	n/a	n/a	"NULL"	"FALSE"	"list()"	"list()"	"list()"	n/a	n/a	n/a	n/a	n/a	n/a	n/a	n/a	n/a	n/a	n/a
n/a	"html-keyboard-response"	"6"	"38897"	"0.0-4.0-1.0-1.0"	"b1dzdf"	"600"	"1366"	"chrome"	"108.0.0"	"FALSE"	"Windows 10"	"60.17"	"138"	n/a	n/a	n/a	n/a	n/a	n/a	n/a	n/a	n/a	n/a	"12993"	"enter"	n/a	"NULL"	"NULL"	"NULL"	"<p><b>Practice</b></p><p>In this part, two red circles will appear side by side on the screen.</p><p>Your task is to select which <b>red circle is bigger</b> in size as fast as you can, without making errors.</p><p>Don't get distracted by the surrounding black circles around the red circles!</p><p>Press <b>the LEFT or the RIGHT arrow</b> to indicate which is the bigger <b>red circle.</b></p><div style='float: center'><img src='materials/instructions/Ebbinghaus_Demo.png' height='300'></img><p><img src='utils/answer/answer_leftright_keyboard.PNG' height='150'></img></p><p class='small'>In this example, the correct answer is the <b>LEFT arrow</b>.</p></div><p>Are you ready? <b>Press ENTER to start</b></p>"	n/a	n/a	n/a	n/a	n/a	n/a	n/a	n/a	n/a	n/a
n/a	"html-keyboard-response"	"7"	"40753"	"0.0-4.0-1.0-2.0-0.0"	"b1dzdf"	"600"	"1366"	"chrome"	"108.0.0"	"FALSE"	"Windows 10"	"60.17"	"138"	n/a	n/a	n/a	n/a	n/a	n/a	"fixation"	n/a	n/a	n/a	n/a	"NULL"	n/a	"NULL"	"NULL"	"NULL"	"<p style=\"color: black; font-size: 80px; padding-left: 7%; padding-right: 38%; padding-top: 33%; padding-bottom: 18%\">+</p>"	"1331"	n/a	n/a	n/a	n/a	n/a	n/a	n/a	n/a	n/a
n/a	"image-keyboard-response"	"8"	"41485"	"0.0-4.0-1.0-2.0-1.0"	"b1dzdf"	"600"	"1366"	"chrome"	"108.0.0"	"FALSE"	"Windows 10"	"60.17"	"138"	n/a	n/a	n/a	n/a	n/a	n/a	"Trial"	n/a	n/a	n/a	"723"	"arrowleft"	n/a	"NULL"	"NULL"	"NULL"	"stimuli/Ebbinghaus_1000000_1.40000.png"	n/a	"Ebbinghaus"	"arrowleft"	"1856"	"TRUE"	"Ebbinghaus"	"100000000000"	"1.4000000000"	"1"	"1"
n/a	"html-keyboard-response"	"9"	"42833"	"0.0-4.0-1.0-2.0-0.1"	"b1dzdf"	"600"	"1366"	"chrome"	"108.0.0"	"FALSE"	"Windows 10"	"60.17"	"138"	n/a	n/a	n/a	n/a	n/a	n/a	"fixation"	n/a	n/a	n/a	n/a	"NULL"	n/a	"NULL"	"NULL"	"NULL"	"<p style=\"color: black; font-size: 80px; padding-left: 22%; padding-right: 11%; padding-top: 36%; padding-bottom: 2%\">+</p>"	"1340"	n/a	n/a	n/a	n/a	n/a	n/a	n/a	n/a	n/a
n/a	"image-keyboard-response"	"10"	"43239"	"0.0-4.0-1.0-2.0-1.1"	"b1dzdf"	"600"	"1366"	"chrome"	"108.0.0"	"FALSE"	"Windows 10"	"60.17"	"138"	n/a	n/a	n/a	n/a	n/a	n/a	"Trial"	n/a	n/a	n/a	"404"	"arrowright"	n/a	"NULL"	"NULL"	"NULL"	"stimuli/Ebbinghaus_-100000_-1.4000.png"	n/a	"Ebbinghaus"	"arrowright"	"1348"	"TRUE"	"Ebbinghaus"	"-10000000000"	"-1.400000000"	"1"	"2"
n/a	"html-keyboard-response"	"11"	"44713"	"0.0-4.0-1.0-2.0-0.2"	"b1dzdf"	"600"	"1366"	"chrome"	"108.0.0"	"FALSE"	"Windows 10"	"60.17"	"138"	n/a	n/a	n/a	n/a	n/a	n/a	"fixation"	n/a	n/a	n/a	n/a	"NULL"	n/a	"NULL"	"NULL"	"NULL"	"<p style=\"color: black; font-size: 80px; padding-left: 20%; padding-right: 38%; padding-top: 19%; padding-bottom: 25%\">+</p>"	"1468"	n/a	n/a	n/a	n/a	n/a	n/a	n/a	n/a	n/a
n/a	"image-keyboard-response"	"12"	"45115"	"0.0-4.0-1.0-2.0-1.2"	"b1dzdf"	"600"	"1366"	"chrome"	"108.0.0"	"FALSE"	"Windows 10"	"60.17"	"138"	n/a	n/a	n/a	n/a	n/a	n/a	"Trial"	n/a	n/a	n/a	"401"	"arrowright"	n/a	"NULL"	"NULL"	"NULL"	"stimuli/Ebbinghaus_0000000_-1.4000.png"	n/a	"Ebbinghaus"	"arrowright"	"1474"	"TRUE"	"Ebbinghaus"	"000000000000"	"-1.400000000"	"1"	"3"
n/a	"html-keyboard-response"	"13"	"46416"	"0.0-4.0-1.0-2.0-0.3"	"b1dzdf"	"600"	"1366"	"chrome"	"108.0.0"	"FALSE"	"Windows 10"	"60.17"	"138"	n/a	n/a	n/a	n/a	n/a	n/a	"fixation"	n/a	n/a	n/a	n/a	"NULL"	n/a	"NULL"	"NULL"	"NULL"	"<p style=\"color: black; font-size: 80px; padding-left: 3%; padding-right: 0%; padding-top: 1%; padding-bottom: 0%\">+</p>"	"1291"	n/a	n/a	n/a	n/a	n/a	n/a	n/a	n/a	n/a
n/a	"image-keyboard-response"	"14"	"46776"	"0.0-4.0-1.0-2.0-1.3"	"b1dzdf"	"600"	"1366"	"chrome"	"108.0.0"	"FALSE"	"Windows 10"	"60.17"	"138"	n/a	n/a	n/a	n/a	n/a	n/a	"Trial"	n/a	n/a	n/a	"359"	"arrowleft"	n/a	"NULL"	"NULL"	"NULL"	"stimuli/Ebbinghaus_-100000_1.40000.png"	n/a	"Ebbinghaus"	"arrowleft"	"1301"	"TRUE"	"Ebbinghaus"	"-10000000000"	"1.4000000000"	"1"	"4"
n/a	"html-keyboard-response"	"15"	"47806"	"0.0-4.0-1.0-2.0-0.4"	"b1dzdf"	"600"	"1366"	"chrome"	"108.0.0"	"FALSE"	"Windows 10"	"60.17"	"138"	n/a	n/a	n/a	n/a	n/a	n/a	"fixation"	n/a	n/a	n/a	n/a	"NULL"	n/a	"NULL"	"NULL"	"NULL"	"<p style=\"color: black; font-size: 80px; padding-left: 1%; padding-right: 38%; padding-top: 1%; padding-bottom: 44%\">+</p>"	"1019"	n/a	n/a	n/a	n/a	n/a	n/a	n/a	n/a	n/a
n/a	"image-keyboard-response"	"16"	"48175"	"0.0-4.0-1.0-2.0-1.4"	"b1dzdf"	"600"	"1366"	"chrome"	"108.0.0"	"FALSE"	"Windows 10"	"60.17"	"138"	n/a	n/a	n/a	n/a	n/a	n/a	"Trial"	n/a	n/a	n/a	"368"	"arrowleft"	n/a	"NULL"	"NULL"	"NULL"	"stimuli/Ebbinghaus_0000000_1.40000.png"	n/a	"Ebbinghaus"	"arrowleft"	"1030"	"TRUE"	"Ebbinghaus"	"000000000000"	"1.4000000000"	"1"	"5"
n/a	"html-keyboard-response"	"17"	"49505"	"0.0-4.0-1.0-2.0-0.5"	"b1dzdf"	"600"	"1366"	"chrome"	"108.0.0"	"FALSE"	"Windows 10"	"60.17"	"138"	n/a	n/a	n/a	n/a	n/a	n/a	"fixation"	n/a	n/a	n/a	n/a	"NULL"	n/a	"NULL"	"NULL"	"NULL"	"<p style=\"color: black; font-size: 80px; padding-left: 12%; padding-right: 39%; padding-top: 10%; padding-bottom: 38%\">+</p>"	"1324"	n/a	n/a	n/a	n/a	n/a	n/a	n/a	n/a	n/a
n/a	"image-keyboard-response"	"18"	"49856"	"0.0-4.0-1.0-2.0-1.5"	"b1dzdf"	"600"	"1366"	"chrome"	"108.0.0"	"FALSE"	"Windows 10"	"60.17"	"138"	n/a	n/a	n/a	n/a	n/a	n/a	"Trial"	n/a	n/a	n/a	"349"	"arrowright"	n/a	"NULL"	"NULL"	"NULL"	"stimuli/Ebbinghaus_1000000_-1.4000.png"	n/a	"Ebbinghaus"	"arrowright"	"1330"	"TRUE"	"Ebbinghaus"	"100000000000"	"-1.400000000"	"1"	"6"
n/a	"html-button-response"	"19"	"54476"	"0.0-4.0-1.0-3.0"	"b1dzdf"	"600"	"1366"	"chrome"	"108.0.0"	"FALSE"	"Windows 10"	"60.17"	"138"	n/a	n/a	n/a	n/a	n/a	n/a	"practice_block_results"	n/a	n/a	n/a	"4619"	"0"	n/a	"NULL"	"NULL"	"NULL"	"<p style='color:rgb(76,175,80);'> Correct Responses: <b>100.00%</b></p><hr><p style='color:rgb(233,30,99);'> Average Response Time: <b>434.00</b> ms.</p>"	n/a	n/a	n/a	n/a	n/a	n/a	n/a	n/a	n/a	n/a
"TRUE"	"preload"	"20"	"55012"	"0.0-4.0-2.0-0.0"	"b1dzdf"	"600"	"1366"	"chrome"	"108.0.0"	"FALSE"	"Windows 10"	"60.17"	"138"	n/a	n/a	n/a	n/a	n/a	n/a	n/a	n/a	n/a	n/a	n/a	"NULL"	"FALSE"	"list()"	"list()"	"list()"	n/a	n/a	n/a	n/a	n/a	n/a	n/a	n/a	n/a	n/a	n/a
n/a	"html-keyboard-response"	"21"	"60117"	"0.0-4.0-2.0-1.0"	"b1dzdf"	"600"	"1366"	"chrome"	"108.0.0"	"FALSE"	"Windows 10"	"60.17"	"138"	n/a	n/a	n/a	n/a	n/a	n/a	n/a	n/a	n/a	n/a	"5105"	"enter"	n/a	"NULL"	"NULL"	"NULL"	"<p><b>Practice</b></p><p>In this part, two horizontal red lines will appear one above the other.</p><p>Your task is to select which <b>line is longer</b> in length as fast as you can, without making errors.</p><p>Don't get distracted by the surrounding black arrows at the end of the red lines!</p><p>Press <b>the UP or the DOWN arrow</b> to indicate where is the longer <b>red line.</b></p><div style='float: center'><img src='materials/instructions/MullerLyer_Demo.png' height='300'></img><p><img src='utils/answer/answer_updown_keyboard.PNG' height='150'></img></p><p class='small'>In this example, the correct answer is the <b>UP arrow</b>.</p></div><p>Are you ready? <b>Press ENTER to start</b></p>"	n/a	n/a	n/a	n/a	n/a	n/a	n/a	n/a	n/a	n/a
n/a	"html-keyboard-response"	"22"	"61885"	"0.0-4.0-2.0-2.0-0.0"	"b1dzdf"	"600"	"1366"	"chrome"	"108.0.0"	"FALSE"	"Windows 10"	"60.17"	"138"	n/a	n/a	n/a	n/a	n/a	n/a	"fixation"	n/a	n/a	n/a	n/a	"NULL"	n/a	"NULL"	"NULL"	"NULL"	"<p style=\"color: black; font-size: 80px; padding-left: 38%; padding-right: 32%; padding-top: 42%; padding-bottom: 33%\">+</p>"	"1233"	n/a	n/a	n/a	n/a	n/a	n/a	n/a	n/a	n/a
n/a	"image-keyboard-response"	"23"	"62234"	"0.0-4.0-2.0-2.0-1.0"	"b1dzdf"	"600"	"1366"	"chrome"	"108.0.0"	"FALSE"	"Windows 10"	"60.17"	"138"	n/a	n/a	n/a	n/a	n/a	n/a	"Trial"	n/a	n/a	n/a	"348"	"arrowup"	n/a	"NULL"	"NULL"	"NULL"	"stimuli/MullerLyer_0000000_0.70000.png"	n/a	"MullerLyer"	"arrowup"	"1768"	"TRUE"	"MullerLyer"	"000000000000"	"0.7000000000"	"1"	"7"
n/a	"html-keyboard-response"	"24"	"63570"	"0.0-4.0-2.0-2.0-0.1"	"b1dzdf"	"600"	"1366"	"chrome"	"108.0.0"	"FALSE"	"Windows 10"	"60.17"	"138"	n/a	n/a	n/a	n/a	n/a	n/a	"fixation"	n/a	n/a	n/a	n/a	"NULL"	n/a	"NULL"	"NULL"	"NULL"	"<p style=\"color: black; font-size: 80px; padding-left: 34%; padding-right: 38%; padding-top: 42%; padding-bottom: 31%\">+</p>"	"1316"	n/a	n/a	n/a	n/a	n/a	n/a	n/a	n/a	n/a
n/a	"image-keyboard-response"	"25"	"63954"	"0.0-4.0-2.0-2.0-1.1"	"b1dzdf"	"600"	"1366"	"chrome"	"108.0.0"	"FALSE"	"Windows 10"	"60.17"	"138"	n/a	n/a	n/a	n/a	n/a	n/a	"Trial"	n/a	n/a	n/a	"376"	"arrowup"	n/a	"NULL"	"NULL"	"NULL"	"stimuli/MullerLyer_-230000_0.70000.png"	n/a	"MullerLyer"	"arrowup"	"1336"	"TRUE"	"MullerLyer"	"-23000000000"	"0.7000000000"	"1"	"8"
n/a	"html-keyboard-response"	"26"	"65427"	"0.0-4.0-2.0-2.0-0.2"	"b1dzdf"	"600"	"1366"	"chrome"	"108.0.0"	"FALSE"	"Windows 10"	"60.17"	"138"	n/a	n/a	n/a	n/a	n/a	n/a	"fixation"	n/a	n/a	n/a	n/a	"NULL"	n/a	"NULL"	"NULL"	"NULL"	"<p style=\"color: black; font-size: 80px; padding-left: 17%; padding-right: 27%; padding-top: 18%; padding-bottom: 9%\">+</p>"	"1464"	n/a	n/a	n/a	n/a	n/a	n/a	n/a	n/a	n/a
n/a	"image-keyboard-response"	"27"	"66215"	"0.0-4.0-2.0-2.0-1.2"	"b1dzdf"	"600"	"1366"	"chrome"	"108.0.0"	"FALSE"	"Windows 10"	"60.17"	"138"	n/a	n/a	n/a	n/a	n/a	n/a	"Trial"	n/a	n/a	n/a	"787"	"arrowup"	n/a	"NULL"	"NULL"	"NULL"	"stimuli/MullerLyer_2300000_0.70000.png"	n/a	"MullerLyer"	"arrowup"	"1473"	"TRUE"	"MullerLyer"	"230000000000"	"0.7000000000"	"1"	"9"
n/a	"html-keyboard-response"	"28"	"67289"	"0.0-4.0-2.0-2.0-0.3"	"b1dzdf"	"600"	"1366"	"chrome"	"108.0.0"	"FALSE"	"Windows 10"	"60.17"	"138"	n/a	n/a	n/a	n/a	n/a	n/a	"fixation"	n/a	n/a	n/a	n/a	"NULL"	n/a	"NULL"	"NULL"	"NULL"	"<p style=\"color: black; font-size: 80px; padding-left: 36%; padding-right: 33%; padding-top: 18%; padding-bottom: 18%\">+</p>"	"1068"	n/a	n/a	n/a	n/a	n/a	n/a	n/a	n/a	n/a
n/a	"image-keyboard-response"	"29"	"67802"	"0.0-4.0-2.0-2.0-1.3"	"b1dzdf"	"600"	"1366"	"chrome"	"108.0.0"	"FALSE"	"Windows 10"	"60.17"	"138"	n/a	n/a	n/a	n/a	n/a	n/a	"Trial"	n/a	n/a	n/a	"511"	"arrowdown"	n/a	"NULL"	"NULL"	"NULL"	"stimuli/MullerLyer_0000000_-0.7000.png"	n/a	"MullerLyer"	"arrowdown"	"1074"	"TRUE"	"MullerLyer"	"000000000000"	"-0.700000000"	"1"	"10"
n/a	"html-keyboard-response"	"30"	"69112"	"0.0-4.0-2.0-2.0-0.4"	"b1dzdf"	"600"	"1366"	"chrome"	"108.0.0"	"FALSE"	"Windows 10"	"60.17"	"138"	n/a	n/a	n/a	n/a	n/a	n/a	"fixation"	n/a	n/a	n/a	n/a	"NULL"	n/a	"NULL"	"NULL"	"NULL"	"<p style=\"color: black; font-size: 80px; padding-left: 30%; padding-right: 47%; padding-top: 44%; padding-bottom: 4%\">+</p>"	"1306"	n/a	n/a	n/a	n/a	n/a	n/a	n/a	n/a	n/a
n/a	"image-keyboard-response"	"31"	"69647"	"0.0-4.0-2.0-2.0-1.4"	"b1dzdf"	"600"	"1366"	"chrome"	"108.0.0"	"FALSE"	"Windows 10"	"60.17"	"138"	n/a	n/a	n/a	n/a	n/a	n/a	"Trial"	n/a	n/a	n/a	"534"	"arrowdown"	n/a	"NULL"	"NULL"	"NULL"	"stimuli/MullerLyer_2300000_-0.7000.png"	n/a	"MullerLyer"	"arrowdown"	"1310"	"TRUE"	"MullerLyer"	"230000000000"	"-0.700000000"	"1"	"11"
n/a	"html-keyboard-response"	"32"	"70827"	"0.0-4.0-2.0-2.0-0.5"	"b1dzdf"	"600"	"1366"	"chrome"	"108.0.0"	"FALSE"	"Windows 10"	"60.17"	"138"	n/a	n/a	n/a	n/a	n/a	n/a	"fixation"	n/a	n/a	n/a	n/a	"NULL"	n/a	"NULL"	"NULL"	"NULL"	"<p style=\"color: black; font-size: 80px; padding-left: 11%; padding-right: 30%; padding-top: 12%; padding-bottom: 46%\">+</p>"	"1173"	n/a	n/a	n/a	n/a	n/a	n/a	n/a	n/a	n/a
n/a	"image-keyboard-response"	"33"	"71314"	"0.0-4.0-2.0-2.0-1.5"	"b1dzdf"	"600"	"1366"	"chrome"	"108.0.0"	"FALSE"	"Windows 10"	"60.17"	"138"	n/a	n/a	n/a	n/a	n/a	n/a	"Trial"	n/a	n/a	n/a	"486"	"arrowdown"	n/a	"NULL"	"NULL"	"NULL"	"stimuli/MullerLyer_-230000_-0.7000.png"	n/a	"MullerLyer"	"arrowdown"	"1180"	"TRUE"	"MullerLyer"	"-23000000000"	"-0.700000000"	"1"	"12"
n/a	"html-button-response"	"34"	"75619"	"0.0-4.0-2.0-3.0"	"b1dzdf"	"600"	"1366"	"chrome"	"108.0.0"	"FALSE"	"Windows 10"	"60.17"	"138"	n/a	n/a	n/a	n/a	n/a	n/a	"practice_block_results"	n/a	n/a	n/a	"4304"	"0"	n/a	"NULL"	"NULL"	"NULL"	"<p style='color:rgb(76,175,80);'> Correct Responses: <b>100.00%</b></p><hr><p style='color:rgb(233,30,99);'> Average Response Time: <b>507.00</b> ms.</p>"	n/a	n/a	n/a	n/a	n/a	n/a	n/a	n/a	n/a	n/a
"TRUE"	"preload"	"35"	"76157"	"0.0-4.0-3.0-0.0"	"b1dzdf"	"600"	"1366"	"chrome"	"108.0.0"	"FALSE"	"Windows 10"	"60.17"	"138"	n/a	n/a	n/a	n/a	n/a	n/a	n/a	n/a	n/a	n/a	n/a	"NULL"	"FALSE"	"list()"	"list()"	"list()"	n/a	n/a	n/a	n/a	n/a	n/a	n/a	n/a	n/a	n/a	n/a
n/a	"html-keyboard-response"	"36"	"80044"	"0.0-4.0-3.0-1.0"	"b1dzdf"	"600"	"1366"	"chrome"	"108.0.0"	"FALSE"	"Windows 10"	"60.17"	"138"	n/a	n/a	n/a	n/a	n/a	n/a	n/a	n/a	n/a	n/a	"3886"	"enter"	n/a	"NULL"	"NULL"	"NULL"	"<p><b>Practice</b></p><p>In this part, two red lines will appear side by side.</p><p>Your task is to tell <b>which line is longer</b> in length, regardless of their orientation, as fast as you can, and without making errors.</p><p>Don't get distracted by the orientation of the lines!</p><p>Press <b>the LEFT or the RIGHT arrow</b> to indicate which <b>line is the longer one.</b></p><div style='float: center'><img src='materials/instructions/VerticalHorizontal_Demo.png' height='300'></img><p><img src='utils/answer/answer_leftright_keyboard.PNG' height='150'></img></p><p class='small'>In this example, the correct answer is the <b>LEFT arrow</b>.</p></div><p>Are you ready? <b>Press ENTER to start</b></p>"	n/a	n/a	n/a	n/a	n/a	n/a	n/a	n/a	n/a	n/a
n/a	"html-keyboard-response"	"37"	"81781"	"0.0-4.0-3.0-2.0-0.0"	"b1dzdf"	"600"	"1366"	"chrome"	"108.0.0"	"FALSE"	"Windows 10"	"60.17"	"138"	n/a	n/a	n/a	n/a	n/a	n/a	"fixation"	n/a	n/a	n/a	n/a	"NULL"	n/a	"NULL"	"NULL"	"NULL"	"<p style=\"color: black; font-size: 80px; padding-left: 8%; padding-right: 29%; padding-top: 27%; padding-bottom: 1%\">+</p>"	"1211"	n/a	n/a	n/a	n/a	n/a	n/a	n/a	n/a	n/a
n/a	"image-keyboard-response"	"38"	"82153"	"0.0-4.0-3.0-2.0-1.0"	"b1dzdf"	"600"	"1366"	"chrome"	"108.0.0"	"FALSE"	"Windows 10"	"60.17"	"138"	n/a	n/a	n/a	n/a	n/a	n/a	"Trial"	n/a	n/a	n/a	"371"	"arrowright"	n/a	"NULL"	"NULL"	"NULL"	"stimuli/VerticalHorizontal_3300000_-0.9000.png"	n/a	"VerticalHorizontal"	"arrowright"	"1737"	"TRUE"	"VerticalHorizontal"	"330000000000"	"-0.900000000"	"1"	"13"
n/a	"html-keyboard-response"	"39"	"83300"	"0.0-4.0-3.0-2.0-0.1"	"b1dzdf"	"600"	"1366"	"chrome"	"108.0.0"	"FALSE"	"Windows 10"	"60.17"	"138"	n/a	n/a	n/a	n/a	n/a	n/a	"fixation"	n/a	n/a	n/a	n/a	"NULL"	n/a	"NULL"	"NULL"	"NULL"	"<p style=\"color: black; font-size: 80px; padding-left: 7%; padding-right: 27%; padding-top: 17%; padding-bottom: 47%\">+</p>"	"1124"	n/a	n/a	n/a	n/a	n/a	n/a	n/a	n/a	n/a
n/a	"image-keyboard-response"	"40"	"83717"	"0.0-4.0-3.0-2.0-1.1"	"b1dzdf"	"600"	"1366"	"chrome"	"108.0.0"	"FALSE"	"Windows 10"	"60.17"	"138"	n/a	n/a	n/a	n/a	n/a	n/a	"Trial"	n/a	n/a	n/a	"416"	"arrowleft"	n/a	"NULL"	"NULL"	"NULL"	"stimuli/VerticalHorizontal_3300000_0.90000.png"	n/a	"VerticalHorizontal"	"arrowleft"	"1147"	"TRUE"	"VerticalHorizontal"	"330000000000"	"0.9000000000"	"1"	"14"
n/a	"html-keyboard-response"	"41"	"84838"	"0.0-4.0-3.0-2.0-0.2"	"b1dzdf"	"600"	"1366"	"chrome"	"108.0.0"	"FALSE"	"Windows 10"	"60.17"	"138"	n/a	n/a	n/a	n/a	n/a	n/a	"fixation"	n/a	n/a	n/a	n/a	"NULL"	n/a	"NULL"	"NULL"	"NULL"	"<p style=\"color: black; font-size: 80px; padding-left: 49%; padding-right: 50%; padding-top: 15%; padding-bottom: 24%\">+</p>"	"1116"	n/a	n/a	n/a	n/a	n/a	n/a	n/a	n/a	n/a
n/a	"image-keyboard-response"	"42"	"85206"	"0.0-4.0-3.0-2.0-1.2"	"b1dzdf"	"600"	"1366"	"chrome"	"108.0.0"	"FALSE"	"Windows 10"	"60.17"	"138"	n/a	n/a	n/a	n/a	n/a	n/a	"Trial"	n/a	n/a	n/a	"367"	"arrowleft"	n/a	"NULL"	"NULL"	"NULL"	"stimuli/VerticalHorizontal_0000000_0.90000.png"	n/a	"VerticalHorizontal"	"arrowleft"	"1121"	"TRUE"	"VerticalHorizontal"	"000000000000"	"0.9000000000"	"1"	"15"
n/a	"html-keyboard-response"	"43"	"86471"	"0.0-4.0-3.0-2.0-0.3"	"b1dzdf"	"600"	"1366"	"chrome"	"108.0.0"	"FALSE"	"Windows 10"	"60.17"	"138"	n/a	n/a	n/a	n/a	n/a	n/a	"fixation"	n/a	n/a	n/a	n/a	"NULL"	n/a	"NULL"	"NULL"	"NULL"	"<p style=\"color: black; font-size: 80px; padding-left: 31%; padding-right: 49%; padding-top: 38%; padding-bottom: 38%\">+</p>"	"1259"	n/a	n/a	n/a	n/a	n/a	n/a	n/a	n/a	n/a
n/a	"image-keyboard-response"	"44"	"86785"	"0.0-4.0-3.0-2.0-1.3"	"b1dzdf"	"600"	"1366"	"chrome"	"108.0.0"	"FALSE"	"Windows 10"	"60.17"	"138"	n/a	n/a	n/a	n/a	n/a	n/a	"Trial"	n/a	n/a	n/a	"314"	"arrowright"	n/a	"NULL"	"NULL"	"NULL"	"stimuli/VerticalHorizontal_0000000_-0.9000.png"	n/a	"VerticalHorizontal"	"arrowright"	"1265"	"TRUE"	"VerticalHorizontal"	"000000000000"	"-0.900000000"	"1"	"16"
n/a	"html-keyboard-response"	"45"	"88119"	"0.0-4.0-3.0-2.0-0.4"	"b1dzdf"	"600"	"1366"	"chrome"	"108.0.0"	"FALSE"	"Windows 10"	"60.17"	"138"	n/a	n/a	n/a	n/a	n/a	n/a	"fixation"	n/a	n/a	n/a	n/a	"NULL"	n/a	"NULL"	"NULL"	"NULL"	"<p style=\"color: black; font-size: 80px; padding-left: 35%; padding-right: 47%; padding-top: 36%; padding-bottom: 50%\">+</p>"	"1323"	n/a	n/a	n/a	n/a	n/a	n/a	n/a	n/a	n/a
n/a	"image-keyboard-response"	"46"	"88498"	"0.0-4.0-3.0-2.0-1.4"	"b1dzdf"	"600"	"1366"	"chrome"	"108.0.0"	"FALSE"	"Windows 10"	"60.17"	"138"	n/a	n/a	n/a	n/a	n/a	n/a	"Trial"	n/a	n/a	n/a	"378"	"arrowright"	n/a	"NULL"	"NULL"	"NULL"	"stimuli/VerticalHorizontal_-330000_-0.9000.png"	n/a	"VerticalHorizontal"	"arrowright"	"1334"	"TRUE"	"VerticalHorizontal"	"-33000000000"	"-0.900000000"	"1"	"17"
n/a	"html-keyboard-response"	"47"	"89825"	"0.0-4.0-3.0-2.0-0.5"	"b1dzdf"	"600"	"1366"	"chrome"	"108.0.0"	"FALSE"	"Windows 10"	"60.17"	"138"	n/a	n/a	n/a	n/a	n/a	n/a	"fixation"	n/a	n/a	n/a	n/a	"NULL"	n/a	"NULL"	"NULL"	"NULL"	"<p style=\"color: black; font-size: 80px; padding-left: 7%; padding-right: 4%; padding-top: 2%; padding-bottom: 11%\">+</p>"	"1316"	n/a	n/a	n/a	n/a	n/a	n/a	n/a	n/a	n/a
n/a	"image-keyboard-response"	"48"	"90167"	"0.0-4.0-3.0-2.0-1.5"	"b1dzdf"	"600"	"1366"	"chrome"	"108.0.0"	"FALSE"	"Windows 10"	"60.17"	"138"	n/a	n/a	n/a	n/a	n/a	n/a	"Trial"	n/a	n/a	n/a	"341"	"arrowleft"	n/a	"NULL"	"NULL"	"NULL"	"stimuli/VerticalHorizontal_-330000_0.90000.png"	n/a	"VerticalHorizontal"	"arrowleft"	"1327"	"TRUE"	"VerticalHorizontal"	"-33000000000"	"0.9000000000"	"1"	"18"
n/a	"html-button-response"	"49"	"93209"	"0.0-4.0-3.0-3.0"	"b1dzdf"	"600"	"1366"	"chrome"	"108.0.0"	"FALSE"	"Windows 10"	"60.17"	"138"	n/a	n/a	n/a	n/a	n/a	n/a	"practice_block_results"	n/a	n/a	n/a	"3040"	"0"	n/a	"NULL"	"NULL"	"NULL"	"<p style='color:rgb(76,175,80);'> Correct Responses: <b>100.00%</b></p><hr><p style='color:rgb(233,30,99);'> Average Response Time: <b>364.50</b> ms.</p>"	n/a	n/a	n/a	n/a	n/a	n/a	n/a	n/a	n/a	n/a
n/a	"html-button-response"	"50"	"154963"	"0.0-4.0-4.0"	"b1dzdf"	"600"	"1366"	"chrome"	"108.0.0"	"FALSE"	"Windows 10"	"60.17"	"138"	n/a	n/a	n/a	n/a	n/a	n/a	"practice_debrief"	n/a	n/a	n/a	"61236"	"0"	n/a	"NULL"	"NULL"	"NULL"	"<p><b>TRAINING COMPLETED</b></p><p>In the next phase, there will be more trials, and some might be harder too.<br> Moreover, after each illusion block, a <b>score</b> will be calculated based on speed (time you took to answer) and accuracy (number of errors).</p><p>Try to keep up a high score!</p><br><p>Note that it can be <i>really</i> challenging at times, so you will need to rely on your <b>intuition</b> and gut feeling to answer as fast as you can without making errors.</p><p>Each illusion block will be repeated two times (so that you have the opportunity to improve your score), but the order of the blocks is random.</p><p>Remember, your goal is to be as <b>fast</b> and <b>accurate</b> as possible. Good luck!</p><br>"	n/a	n/a	n/a	n/a	n/a	n/a	n/a	n/a	n/a	n/a
"TRUE"	"preload"	"51"	"155123"	"0.0-5.0-0.0"	"b1dzdf"	"600"	"1366"	"chrome"	"108.0.0"	"FALSE"	"Windows 10"	"60.17"	"138"	n/a	n/a	n/a	n/a	n/a	n/a	n/a	n/a	n/a	n/a	n/a	"NULL"	"FALSE"	"list()"	"list()"	"list()"	n/a	n/a	n/a	n/a	n/a	n/a	n/a	n/a	n/a	n/a	n/a
n/a	"html-keyboard-response"	"52"	"158149"	"0.0-5.0-1.0"	"b1dzdf"	"600"	"1366"	"chrome"	"108.0.0"	"FALSE"	"Windows 10"	"60.17"	"138"	n/a	n/a	n/a	n/a	n/a	n/a	n/a	n/a	n/a	n/a	"3025"	"enter"	n/a	"NULL"	"NULL"	"NULL"	"<p><b>Part 1/6</b></p><p>In this part, two red circles will appear side by side on the screen.</p><p>Your task is to select which <b>red circle is bigger</b> in size as fast as you can, without making errors.</p><p>Don't get distracted by the surrounding black circles around the red circles!</p><p>Press <b>the LEFT or the RIGHT arrow</b> to indicate which is the bigger <b>red circle.</b></p><div style='float: center'><img src='materials/instructions/Ebbinghaus_Demo.png' height='300'></img><p><img src='utils/answer/answer_leftright_keyboard.PNG' height='150'></img></p><p class='small'>In this example, the correct answer is the <b>LEFT arrow</b>.</p></div><p>Are you ready? <b>Press ENTER to start</b></p>"	n/a	n/a	n/a	n/a	n/a	n/a	n/a	n/a	n/a	n/a
n/a	"html-keyboard-response"	"53"	"159869"	"0.0-5.0-2.0-0.0"	"b1dzdf"	"600"	"1366"	"chrome"	"108.0.0"	"FALSE"	"Windows 10"	"60.17"	"138"	n/a	n/a	n/a	n/a	n/a	n/a	"fixation"	n/a	n/a	n/a	n/a	"NULL"	n/a	"NULL"	"NULL"	"NULL"	"<p style=\"color: black; font-size: 80px; padding-left: 11%; padding-right: 41%; padding-top: 26%; padding-bottom: 40%\">+</p>"	"1191"	n/a	n/a	n/a	n/a	n/a	n/a	n/a	n/a	n/a
n/a	"image-keyboard-response"	"54"	"160238"	"0.0-5.0-2.0-1.0"	"b1dzdf"	"600"	"1366"	"chrome"	"108.0.0"	"FALSE"	"Windows 10"	"60.17"	"138"	n/a	n/a	n/a	n/a	n/a	n/a	"Trial"	n/a	n/a	n/a	"368"	"arrowright"	n/a	"NULL"	"NULL"	"NULL"	"stimuli/Ebbinghaus_0.35714_-0.2800.png"	n/a	"Ebbinghaus"	"arrowright"	"1720"	"TRUE"	"Ebbinghaus"	"0.3571400000"	"-0.280000000"	"1"	"19"
n/a	"html-keyboard-response"	"55"	"161539"	"0.0-5.0-2.0-0.1"	"b1dzdf"	"600"	"1366"	"chrome"	"108.0.0"	"FALSE"	"Windows 10"	"60.17"	"138"	n/a	n/a	n/a	n/a	n/a	n/a	"fixation"	n/a	n/a	n/a	n/a	"NULL"	n/a	"NULL"	"NULL"	"NULL"	"<p style=\"color: black; font-size: 80px; padding-left: 13%; padding-right: 27%; padding-top: 25%; padding-bottom: 6%\">+</p>"	"1294"	n/a	n/a	n/a	n/a	n/a	n/a	n/a	n/a	n/a
n/a	"image-keyboard-response"	"56"	"162136"	"0.0-5.0-2.0-1.1"	"b1dzdf"	"600"	"1366"	"chrome"	"108.0.0"	"FALSE"	"Windows 10"	"60.17"	"138"	n/a	n/a	n/a	n/a	n/a	n/a	"Trial"	n/a	n/a	n/a	"596"	"arrowleft"	n/a	"NULL"	"NULL"	"NULL"	"stimuli/Ebbinghaus_-0.61429_0.11071.png"	n/a	"Ebbinghaus"	"arrowleft"	"1301"	"TRUE"	"Ebbinghaus"	"-0.614290000"	"0.1107100000"	"1"	"20"
n/a	"html-keyboard-response"	"57"	"163550"	"0.0-5.0-2.0-0.2"	"b1dzdf"	"600"	"1366"	"chrome"	"108.0.0"	"FALSE"	"Windows 10"	"60.17"	"138"	n/a	n/a	n/a	n/a	n/a	n/a	"fixation"	n/a	n/a	n/a	n/a	"NULL"	n/a	"NULL"	"NULL"	"NULL"	"<p style=\"color: black; font-size: 80px; padding-left: 44%; padding-right: 44%; padding-top: 3%; padding-bottom: 7%\">+</p>"	"1398"	n/a	n/a	n/a	n/a	n/a	n/a	n/a	n/a	n/a
n/a	"image-keyboard-response"	"58"	"164100"	"0.0-5.0-2.0-1.2"	"b1dzdf"	"600"	"1366"	"chrome"	"108.0.0"	"FALSE"	"Windows 10"	"60.17"	"138"	n/a	n/a	n/a	n/a	n/a	n/a	"Trial"	n/a	n/a	n/a	"548"	"arrowleft"	n/a	"NULL"	"NULL"	"NULL"	"stimuli/Ebbinghaus_-0.61429_0.28000.png"	n/a	"Ebbinghaus"	"arrowleft"	"1414"	"TRUE"	"Ebbinghaus"	"-0.614290000"	"0.2800000000"	"1"	"21"
n/a	"html-keyboard-response"	"59"	"165262"	"0.0-5.0-2.0-0.3"	"b1dzdf"	"600"	"1366"	"chrome"	"108.0.0"	"FALSE"	"Windows 10"	"60.17"	"138"	n/a	n/a	n/a	n/a	n/a	n/a	"fixation"	n/a	n/a	n/a	n/a	"NULL"	n/a	"NULL"	"NULL"	"NULL"	"<p style=\"color: black; font-size: 80px; padding-left: 13%; padding-right: 14%; padding-top: 12%; padding-bottom: 3%\">+</p>"	"1153"	n/a	n/a	n/a	n/a	n/a	n/a	n/a	n/a	n/a
n/a	"image-keyboard-response"	"60"	"165726"	"0.0-5.0-2.0-1.3"	"b1dzdf"	"600"	"1366"	"chrome"	"108.0.0"	"FALSE"	"Windows 10"	"60.17"	"138"	n/a	n/a	n/a	n/a	n/a	n/a	"Trial"	n/a	n/a	n/a	"464"	"arrowleft"	n/a	"NULL"	"NULL"	"NULL"	"stimuli/Ebbinghaus_0.35714_0.21500.png"	n/a	"Ebbinghaus"	"arrowleft"	"1162"	"TRUE"	"Ebbinghaus"	"0.3571400000"	"0.2150000000"	"1"	"22"
n/a	"html-keyboard-response"	"61"	"166949"	"0.0-5.0-2.0-0.4"	"b1dzdf"	"600"	"1366"	"chrome"	"108.0.0"	"FALSE"	"Windows 10"	"60.17"	"138"	n/a	n/a	n/a	n/a	n/a	n/a	"fixation"	n/a	n/a	n/a	n/a	"NULL"	n/a	"NULL"	"NULL"	"NULL"	"<p style=\"color: black; font-size: 80px; padding-left: 17%; padding-right: 23%; padding-top: 7%; padding-bottom: 22%\">+</p>"	"1208"	n/a	n/a	n/a	n/a	n/a	n/a	n/a	n/a	n/a
n/a	"image-keyboard-response"	"62"	"167339"	"0.0-5.0-2.0-1.4"	"b1dzdf"	"600"	"1366"	"chrome"	"108.0.0"	"FALSE"	"Windows 10"	"60.17"	"138"	n/a	n/a	n/a	n/a	n/a	n/a	"Trial"	n/a	n/a	n/a	"390"	"arrowleft"	n/a	"NULL"	"NULL"	"NULL"	"stimuli/Ebbinghaus_0.10000_0.15857.png"	n/a	"Ebbinghaus"	"arrowleft"	"1223"	"TRUE"	"Ebbinghaus"	"0.1000000000"	"0.1585700000"	"1"	"23"
n/a	"html-keyboard-response"	"63"	"168688"	"0.0-5.0-2.0-0.5"	"b1dzdf"	"600"	"1366"	"chrome"	"108.0.0"	"FALSE"	"Windows 10"	"60.17"	"138"	n/a	n/a	n/a	n/a	n/a	n/a	"fixation"	n/a	n/a	n/a	n/a	"NULL"	n/a	"NULL"	"NULL"	"NULL"	"<p style=\"color: black; font-size: 80px; padding-left: 1%; padding-right: 8%; padding-top: 19%; padding-bottom: 41%\">+</p>"	"1334"	n/a	n/a	n/a	n/a	n/a	n/a	n/a	n/a	n/a
n/a	"image-keyboard-response"	"64"	"169204"	"0.0-5.0-2.0-1.5"	"b1dzdf"	"600"	"1366"	"chrome"	"108.0.0"	"FALSE"	"Windows 10"	"60.17"	"138"	n/a	n/a	n/a	n/a	n/a	n/a	"Trial"	n/a	n/a	n/a	"514"	"arrowright"	n/a	"NULL"	"NULL"	"NULL"	"stimuli/Ebbinghaus_-0.1000_-0.15857.png"	n/a	"Ebbinghaus"	"arrowright"	"1349"	"TRUE"	"Ebbinghaus"	"-0.100000000"	"-0.158570000"	"1"	"24"
n/a	"html-keyboard-response"	"65"	"170651"	"0.0-5.0-2.0-0.6"	"b1dzdf"	"600"	"1366"	"chrome"	"108.0.0"	"FALSE"	"Windows 10"	"60.17"	"138"	n/a	n/a	n/a	n/a	n/a	n/a	"fixation"	n/a	n/a	n/a	n/a	"NULL"	n/a	"NULL"	"NULL"	"NULL"	"<p style=\"color: black; font-size: 80px; padding-left: 41%; padding-right: 31%; padding-top: 16%; padding-bottom: 1%\">+</p>"	"1435"	n/a	n/a	n/a	n/a	n/a	n/a	n/a	n/a	n/a
n/a	"image-keyboard-response"	"66"	"171157"	"0.0-5.0-2.0-1.6"	"b1dzdf"	"600"	"1366"	"chrome"	"108.0.0"	"FALSE"	"Windows 10"	"60.17"	"138"	n/a	n/a	n/a	n/a	n/a	n/a	"Trial"	n/a	n/a	n/a	"505"	"arrowright"	n/a	"NULL"	"NULL"	"NULL"	"stimuli/Ebbinghaus_-0.35714_-0.15857.png"	n/a	"Ebbinghaus"	"arrowright"	"1447"	"TRUE"	"Ebbinghaus"	"-0.357140000"	"-0.158570000"	"1"	"25"
n/a	"html-keyboard-response"	"67"	"172433"	"0.0-5.0-2.0-0.7"	"b1dzdf"	"600"	"1366"	"chrome"	"108.0.0"	"FALSE"	"Windows 10"	"60.17"	"138"	n/a	n/a	n/a	n/a	n/a	n/a	"fixation"	n/a	n/a	n/a	n/a	"NULL"	n/a	"NULL"	"NULL"	"NULL"	"<p style=\"color: black; font-size: 80px; padding-left: 48%; padding-right: 10%; padding-top: 9%; padding-bottom: 4%\">+</p>"	"1260"	n/a	n/a	n/a	n/a	n/a	n/a	n/a	n/a	n/a
n/a	"image-keyboard-response"	"68"	"172863"	"0.0-5.0-2.0-1.7"	"b1dzdf"	"600"	"1366"	"chrome"	"108.0.0"	"FALSE"	"Windows 10"	"60.17"	"138"	n/a	n/a	n/a	n/a	n/a	n/a	"Trial"	n/a	n/a	n/a	"429"	"arrowleft"	n/a	"NULL"	"NULL"	"NULL"	"stimuli/Ebbinghaus_-0.61429_-0.2800.png"	n/a	"Ebbinghaus"	"arrowright"	"1276"	"FALSE"	"Ebbinghaus"	"-0.614290000"	"-0.280000000"	"1"	"26"
n/a	"html-keyboard-response"	"69"	"174051"	"0.0-5.0-2.0-0.8"	"b1dzdf"	"600"	"1366"	"chrome"	"108.0.0"	"FALSE"	"Windows 10"	"60.17"	"138"	n/a	n/a	n/a	n/a	n/a	n/a	"fixation"	n/a	n/a	n/a	n/a	"NULL"	n/a	"NULL"	"NULL"	"NULL"	"<p style=\"color: black; font-size: 80px; padding-left: 13%; padding-right: 17%; padding-top: 25%; padding-bottom: 4%\">+</p>"	"1183"	n/a	n/a	n/a	n/a	n/a	n/a	n/a	n/a	n/a
n/a	"image-keyboard-response"	"70"	"174431"	"0.0-5.0-2.0-1.8"	"b1dzdf"	"600"	"1366"	"chrome"	"108.0.0"	"FALSE"	"Windows 10"	"60.17"	"138"	n/a	n/a	n/a	n/a	n/a	n/a	"Trial"	n/a	n/a	n/a	"379"	"arrowright"	n/a	"NULL"	"NULL"	"NULL"	"stimuli/Ebbinghaus_-0.87143_0.11071.png"	n/a	"Ebbinghaus"	"arrowleft"	"1188"	"FALSE"	"Ebbinghaus"	"-0.871430000"	"0.1107100000"	"1"	"27"
n/a	"html-keyboard-response"	"71"	"175789"	"0.0-5.0-2.0-0.9"	"b1dzdf"	"600"	"1366"	"chrome"	"108.0.0"	"FALSE"	"Windows 10"	"60.17"	"138"	n/a	n/a	n/a	n/a	n/a	n/a	"fixation"	n/a	n/a	n/a	n/a	"NULL"	n/a	"NULL"	"NULL"	"NULL"	"<p style=\"color: black; font-size: 80px; padding-left: 0%; padding-right: 4%; padding-top: 5%; padding-bottom: 34%\">+</p>"	"1350"	n/a	n/a	n/a	n/a	n/a	n/a	n/a	n/a	n/a
n/a	"image-keyboard-response"	"72"	"176206"	"0.0-5.0-2.0-1.9"	"b1dzdf"	"600"	"1366"	"chrome"	"108.0.0"	"FALSE"	"Windows 10"	"60.17"	"138"	n/a	n/a	n/a	n/a	n/a	n/a	"Trial"	n/a	n/a	n/a	"417"	"arrowright"	n/a	"NULL"	"NULL"	"NULL"	"stimuli/Ebbinghaus_0.61429_-0.2150.png"	n/a	"Ebbinghaus"	"arrowright"	"1358"	"TRUE"	"Ebbinghaus"	"0.6142900000"	"-0.215000000"	"1"	"28"
n/a	"html-keyboard-response"	"73"	"177519"	"0.0-5.0-2.0-0.10"	"b1dzdf"	"600"	"1366"	"chrome"	"108.0.0"	"FALSE"	"Windows 10"	"60.17"	"138"	n/a	n/a	n/a	n/a	n/a	n/a	"fixation"	n/a	n/a	n/a	n/a	"NULL"	n/a	"NULL"	"NULL"	"NULL"	"<p style=\"color: black; font-size: 80px; padding-left: 21%; padding-right: 45%; padding-top: 7%; padding-bottom: 6%\">+</p>"	"1303"	n/a	n/a	n/a	n/a	n/a	n/a	n/a	n/a	n/a
n/a	"image-keyboard-response"	"74"	"177929"	"0.0-5.0-2.0-1.10"	"b1dzdf"	"600"	"1366"	"chrome"	"108.0.0"	"FALSE"	"Windows 10"	"60.17"	"138"	n/a	n/a	n/a	n/a	n/a	n/a	"Trial"	n/a	n/a	n/a	"410"	"arrowleft"	n/a	"NULL"	"NULL"	"NULL"	"stimuli/Ebbinghaus_0.10000_0.28000.png"	n/a	"Ebbinghaus"	"arrowleft"	"1313"	"TRUE"	"Ebbinghaus"	"0.1000000000"	"0.2800000000"	"1"	"29"
n/a	"html-keyboard-response"	"75"	"179250"	"0.0-5.0-2.0-0.11"	"b1dzdf"	"600"	"1366"	"chrome"	"108.0.0"	"FALSE"	"Windows 10"	"60.17"	"138"	n/a	n/a	n/a	n/a	n/a	n/a	"fixation"	n/a	n/a	n/a	n/a	"NULL"	n/a	"NULL"	"NULL"	"NULL"	"<p style=\"color: black; font-size: 80px; padding-left: 31%; padding-right: 30%; padding-top: 7%; padding-bottom: 5%\">+</p>"	"1303"	n/a	n/a	n/a	n/a	n/a	n/a	n/a	n/a	n/a
n/a	"image-keyboard-response"	"76"	"179635"	"0.0-5.0-2.0-1.11"	"b1dzdf"	"600"	"1366"	"chrome"	"108.0.0"	"FALSE"	"Windows 10"	"60.17"	"138"	n/a	n/a	n/a	n/a	n/a	n/a	"Trial"	n/a	n/a	n/a	"384"	"arrowleft"	n/a	"NULL"	"NULL"	"NULL"	"stimuli/Ebbinghaus_-0.61429_-0.2150.png"	n/a	"Ebbinghaus"	"arrowright"	"1321"	"FALSE"	"Ebbinghaus"	"-0.614290000"	"-0.215000000"	"1"	"30"
n/a	"html-keyboard-response"	"77"	"181054"	"0.0-5.0-2.0-0.12"	"b1dzdf"	"600"	"1366"	"chrome"	"108.0.0"	"FALSE"	"Windows 10"	"60.17"	"138"	n/a	n/a	n/a	n/a	n/a	n/a	"fixation"	n/a	n/a	n/a	n/a	"NULL"	n/a	"NULL"	"NULL"	"NULL"	"<p style=\"color: black; font-size: 80px; padding-left: 3%; padding-right: 15%; padding-top: 14%; padding-bottom: 6%\">+</p>"	"1406"	n/a	n/a	n/a	n/a	n/a	n/a	n/a	n/a	n/a
n/a	"image-keyboard-response"	"78"	"181457"	"0.0-5.0-2.0-1.12"	"b1dzdf"	"600"	"1366"	"chrome"	"108.0.0"	"FALSE"	"Windows 10"	"60.17"	"138"	n/a	n/a	n/a	n/a	n/a	n/a	"Trial"	n/a	n/a	n/a	"402"	"arrowright"	n/a	"NULL"	"NULL"	"NULL"	"stimuli/Ebbinghaus_0.35714_-0.15857.png"	n/a	"Ebbinghaus"	"arrowright"	"1419"	"TRUE"	"Ebbinghaus"	"0.3571400000"	"-0.158570000"	"1"	"31"
n/a	"html-keyboard-response"	"79"	"182603"	"0.0-5.0-2.0-0.13"	"b1dzdf"	"600"	"1366"	"chrome"	"108.0.0"	"FALSE"	"Windows 10"	"60.17"	"138"	n/a	n/a	n/a	n/a	n/a	n/a	"fixation"	n/a	n/a	n/a	n/a	"NULL"	n/a	"NULL"	"NULL"	"NULL"	"<p style=\"color: black; font-size: 80px; padding-left: 15%; padding-right: 43%; padding-top: 34%; padding-bottom: 6%\">+</p>"	"1131"	n/a	n/a	n/a	n/a	n/a	n/a	n/a	n/a	n/a
n/a	"image-keyboard-response"	"80"	"183074"	"0.0-5.0-2.0-1.13"	"b1dzdf"	"600"	"1366"	"chrome"	"108.0.0"	"FALSE"	"Windows 10"	"60.17"	"138"	n/a	n/a	n/a	n/a	n/a	n/a	"Trial"	n/a	n/a	n/a	"470"	"arrowleft"	n/a	"NULL"	"NULL"	"NULL"	"stimuli/Ebbinghaus_0.61429_0.21500.png"	n/a	"Ebbinghaus"	"arrowleft"	"1146"	"TRUE"	"Ebbinghaus"	"0.6142900000"	"0.2150000000"	"1"	"32"
n/a	"html-keyboard-response"	"81"	"184268"	"0.0-5.0-2.0-0.14"	"b1dzdf"	"600"	"1366"	"chrome"	"108.0.0"	"FALSE"	"Windows 10"	"60.17"	"138"	n/a	n/a	n/a	n/a	n/a	n/a	"fixation"	n/a	n/a	n/a	n/a	"NULL"	n/a	"NULL"	"NULL"	"NULL"	"<p style=\"color: black; font-size: 80px; padding-left: 2%; padding-right: 32%; padding-top: 39%; padding-bottom: 5%\">+</p>"	"1181"	n/a	n/a	n/a	n/a	n/a	n/a	n/a	n/a	n/a
n/a	"image-keyboard-response"	"82"	"184702"	"0.0-5.0-2.0-1.14"	"b1dzdf"	"600"	"1366"	"chrome"	"108.0.0"	"FALSE"	"Windows 10"	"60.17"	"138"	n/a	n/a	n/a	n/a	n/a	n/a	"Trial"	n/a	n/a	n/a	"433"	"arrowright"	n/a	"NULL"	"NULL"	"NULL"	"stimuli/Ebbinghaus_0.61429_-0.11071.png"	n/a	"Ebbinghaus"	"arrowright"	"1194"	"TRUE"	"Ebbinghaus"	"0.6142900000"	"-0.110710000"	"1"	"33"
n/a	"html-keyboard-response"	"83"	"185838"	"0.0-5.0-2.0-0.15"	"b1dzdf"	"600"	"1366"	"chrome"	"108.0.0"	"FALSE"	"Windows 10"	"60.17"	"138"	n/a	n/a	n/a	n/a	n/a	n/a	"fixation"	n/a	n/a	n/a	n/a	"NULL"	n/a	"NULL"	"NULL"	"NULL"	"<p style=\"color: black; font-size: 80px; padding-left: 27%; padding-right: 36%; padding-top: 39%; padding-bottom: 29%\">+</p>"	"1121"	n/a	n/a	n/a	n/a	n/a	n/a	n/a	n/a	n/a
n/a	"image-keyboard-response"	"84"	"186301"	"0.0-5.0-2.0-1.15"	"b1dzdf"	"600"	"1366"	"chrome"	"108.0.0"	"FALSE"	"Windows 10"	"60.17"	"138"	n/a	n/a	n/a	n/a	n/a	n/a	"Trial"	n/a	n/a	n/a	"461"	"arrowright"	n/a	"NULL"	"NULL"	"NULL"	"stimuli/Ebbinghaus_0.10000_-0.15857.png"	n/a	"Ebbinghaus"	"arrowright"	"1136"	"TRUE"	"Ebbinghaus"	"0.1000000000"	"-0.158570000"	"1"	"34"
n/a	"html-keyboard-response"	"85"	"187725"	"0.0-5.0-2.0-0.16"	"b1dzdf"	"600"	"1366"	"chrome"	"108.0.0"	"FALSE"	"Windows 10"	"60.17"	"138"	n/a	n/a	n/a	n/a	n/a	n/a	"fixation"	n/a	n/a	n/a	n/a	"NULL"	n/a	"NULL"	"NULL"	"NULL"	"<p style=\"color: black; font-size: 80px; padding-left: 45%; padding-right: 22%; padding-top: 41%; padding-bottom: 19%\">+</p>"	"1413"	n/a	n/a	n/a	n/a	n/a	n/a	n/a	n/a	n/a
n/a	"image-keyboard-response"	"86"	"188113"	"0.0-5.0-2.0-1.16"	"b1dzdf"	"600"	"1366"	"chrome"	"108.0.0"	"FALSE"	"Windows 10"	"60.17"	"138"	n/a	n/a	n/a	n/a	n/a	n/a	"Trial"	n/a	n/a	n/a	"387"	"arrowright"	n/a	"NULL"	"NULL"	"NULL"	"stimuli/Ebbinghaus_0.61429_-0.15857.png"	n/a	"Ebbinghaus"	"arrowright"	"1424"	"TRUE"	"Ebbinghaus"	"0.6142900000"	"-0.158570000"	"1"	"35"
n/a	"html-keyboard-response"	"87"	"189454"	"0.0-5.0-2.0-0.17"	"b1dzdf"	"600"	"1366"	"chrome"	"108.0.0"	"FALSE"	"Windows 10"	"60.17"	"138"	n/a	n/a	n/a	n/a	n/a	n/a	"fixation"	n/a	n/a	n/a	n/a	"NULL"	n/a	"NULL"	"NULL"	"NULL"	"<p style=\"color: black; font-size: 80px; padding-left: 36%; padding-right: 23%; padding-top: 47%; padding-bottom: 5%\">+</p>"	"1330"	n/a	n/a	n/a	n/a	n/a	n/a	n/a	n/a	n/a
n/a	"image-keyboard-response"	"88"	"189845"	"0.0-5.0-2.0-1.17"	"b1dzdf"	"600"	"1366"	"chrome"	"108.0.0"	"FALSE"	"Windows 10"	"60.17"	"138"	n/a	n/a	n/a	n/a	n/a	n/a	"Trial"	n/a	n/a	n/a	"391"	"arrowleft"	n/a	"NULL"	"NULL"	"NULL"	"stimuli/Ebbinghaus_0.35714_0.15857.png"	n/a	"Ebbinghaus"	"arrowleft"	"1341"	"TRUE"	"Ebbinghaus"	"0.3571400000"	"0.1585700000"	"1"	"36"
n/a	"html-keyboard-response"	"89"	"191316"	"0.0-5.0-2.0-0.18"	"b1dzdf"	"600"	"1366"	"chrome"	"108.0.0"	"FALSE"	"Windows 10"	"60.17"	"138"	n/a	n/a	n/a	n/a	n/a	n/a	"fixation"	n/a	n/a	n/a	n/a	"NULL"	n/a	"NULL"	"NULL"	"NULL"	"<p style=\"color: black; font-size: 80px; padding-left: 7%; padding-right: 39%; padding-top: 39%; padding-bottom: 36%\">+</p>"	"1454"	n/a	n/a	n/a	n/a	n/a	n/a	n/a	n/a	n/a
n/a	"image-keyboard-response"	"90"	"191739"	"0.0-5.0-2.0-1.18"	"b1dzdf"	"600"	"1366"	"chrome"	"108.0.0"	"FALSE"	"Windows 10"	"60.17"	"138"	n/a	n/a	n/a	n/a	n/a	n/a	"Trial"	n/a	n/a	n/a	"422"	"arrowleft"	n/a	"NULL"	"NULL"	"NULL"	"stimuli/Ebbinghaus_0.10000_0.11071.png"	n/a	"Ebbinghaus"	"arrowleft"	"1471"	"TRUE"	"Ebbinghaus"	"0.1000000000"	"0.1107100000"	"1"	"37"
n/a	"html-keyboard-response"	"91"	"193135"	"0.0-5.0-2.0-0.19"	"b1dzdf"	"600"	"1366"	"chrome"	"108.0.0"	"FALSE"	"Windows 10"	"60.17"	"138"	n/a	n/a	n/a	n/a	n/a	n/a	"fixation"	n/a	n/a	n/a	n/a	"NULL"	n/a	"NULL"	"NULL"	"NULL"	"<p style=\"color: black; font-size: 80px; padding-left: 27%; padding-right: 36%; padding-top: 16%; padding-bottom: 7%\">+</p>"	"1386"	n/a	n/a	n/a	n/a	n/a	n/a	n/a	n/a	n/a
n/a	"image-keyboard-response"	"92"	"193491"	"0.0-5.0-2.0-1.19"	"b1dzdf"	"600"	"1366"	"chrome"	"108.0.0"	"FALSE"	"Windows 10"	"60.17"	"138"	n/a	n/a	n/a	n/a	n/a	n/a	"Trial"	n/a	n/a	n/a	"355"	"arrowleft"	n/a	"NULL"	"NULL"	"NULL"	"stimuli/Ebbinghaus_0.61429_0.28000.png"	n/a	"Ebbinghaus"	"arrowleft"	"1396"	"TRUE"	"Ebbinghaus"	"0.6142900000"	"0.2800000000"	"1"	"38"
n/a	"html-keyboard-response"	"93"	"194580"	"0.0-5.0-2.0-0.20"	"b1dzdf"	"600"	"1366"	"chrome"	"108.0.0"	"FALSE"	"Windows 10"	"60.17"	"138"	n/a	n/a	n/a	n/a	n/a	n/a	"fixation"	n/a	n/a	n/a	n/a	"NULL"	n/a	"NULL"	"NULL"	"NULL"	"<p style=\"color: black; font-size: 80px; padding-left: 12%; padding-right: 43%; padding-top: 41%; padding-bottom: 7%\">+</p>"	"1073"	n/a	n/a	n/a	n/a	n/a	n/a	n/a	n/a	n/a
n/a	"image-keyboard-response"	"94"	"195015"	"0.0-5.0-2.0-1.20"	"b1dzdf"	"600"	"1366"	"chrome"	"108.0.0"	"FALSE"	"Windows 10"	"60.17"	"138"	n/a	n/a	n/a	n/a	n/a	n/a	"Trial"	n/a	n/a	n/a	"433"	"arrowright"	n/a	"NULL"	"NULL"	"NULL"	"stimuli/Ebbinghaus_-0.61429_0.15857.png"	n/a	"Ebbinghaus"	"arrowleft"	"1089"	"FALSE"	"Ebbinghaus"	"-0.614290000"	"0.1585700000"	"1"	"39"
n/a	"html-keyboard-response"	"95"	"196234"	"0.0-5.0-2.0-0.21"	"b1dzdf"	"600"	"1366"	"chrome"	"108.0.0"	"FALSE"	"Windows 10"	"60.17"	"138"	n/a	n/a	n/a	n/a	n/a	n/a	"fixation"	n/a	n/a	n/a	n/a	"NULL"	n/a	"NULL"	"NULL"	"NULL"	"<p style=\"color: black; font-size: 80px; padding-left: 22%; padding-right: 15%; padding-top: 12%; padding-bottom: 37%\">+</p>"	"1212"	n/a	n/a	n/a	n/a	n/a	n/a	n/a	n/a	n/a
n/a	"image-keyboard-response"	"96"	"196616"	"0.0-5.0-2.0-1.21"	"b1dzdf"	"600"	"1366"	"chrome"	"108.0.0"	"FALSE"	"Windows 10"	"60.17"	"138"	n/a	n/a	n/a	n/a	n/a	n/a	"Trial"	n/a	n/a	n/a	"382"	"arrowleft"	n/a	"NULL"	"NULL"	"NULL"	"stimuli/Ebbinghaus_-0.35714_0.28000.png"	n/a	"Ebbinghaus"	"arrowleft"	"1219"	"TRUE"	"Ebbinghaus"	"-0.357140000"	"0.2800000000"	"1"	"40"
n/a	"html-keyboard-response"	"97"	"197961"	"0.0-5.0-2.0-0.22"	"b1dzdf"	"600"	"1366"	"chrome"	"108.0.0"	"FALSE"	"Windows 10"	"60.17"	"138"	n/a	n/a	n/a	n/a	n/a	n/a	"fixation"	n/a	n/a	n/a	n/a	"NULL"	n/a	"NULL"	"NULL"	"NULL"	"<p style=\"color: black; font-size: 80px; padding-left: 14%; padding-right: 22%; padding-top: 30%; padding-bottom: 24%\">+</p>"	"1327"	n/a	n/a	n/a	n/a	n/a	n/a	n/a	n/a	n/a
n/a	"image-keyboard-response"	"98"	"198434"	"0.0-5.0-2.0-1.22"	"b1dzdf"	"600"	"1366"	"chrome"	"108.0.0"	"FALSE"	"Windows 10"	"60.17"	"138"	n/a	n/a	n/a	n/a	n/a	n/a	"Trial"	n/a	n/a	n/a	"473"	"arrowright"	n/a	"NULL"	"NULL"	"NULL"	"stimuli/Ebbinghaus_-0.35714_-0.11071.png"	n/a	"Ebbinghaus"	"arrowright"	"1345"	"TRUE"	"Ebbinghaus"	"-0.357140000"	"-0.110710000"	"1"	"41"
n/a	"html-keyboard-response"	"99"	"199514"	"0.0-5.0-2.0-0.23"	"b1dzdf"	"600"	"1366"	"chrome"	"108.0.0"	"FALSE"	"Windows 10"	"60.17"	"138"	n/a	n/a	n/a	n/a	n/a	n/a	"fixation"	n/a	n/a	n/a	n/a	"NULL"	n/a	"NULL"	"NULL"	"NULL"	"<p style=\"color: black; font-size: 80px; padding-left: 37%; padding-right: 38%; padding-top: 14%; padding-bottom: 29%\">+</p>"	"1068"	n/a	n/a	n/a	n/a	n/a	n/a	n/a	n/a	n/a
n/a	"image-keyboard-response"	"100"	"200067"	"0.0-5.0-2.0-1.23"	"b1dzdf"	"600"	"1366"	"chrome"	"108.0.0"	"FALSE"	"Windows 10"	"60.17"	"138"	n/a	n/a	n/a	n/a	n/a	n/a	"Trial"	n/a	n/a	n/a	"553"	"arrowright"	n/a	"NULL"	"NULL"	"NULL"	"stimuli/Ebbinghaus_-0.35714_0.11071.png"	n/a	"Ebbinghaus"	"arrowleft"	"1080"	"FALSE"	"Ebbinghaus"	"-0.357140000"	"0.1107100000"	"1"	"42"
n/a	"html-keyboard-response"	"101"	"201119"	"0.0-5.0-2.0-0.24"	"b1dzdf"	"600"	"1366"	"chrome"	"108.0.0"	"FALSE"	"Windows 10"	"60.17"	"138"	n/a	n/a	n/a	n/a	n/a	n/a	"fixation"	n/a	n/a	n/a	n/a	"NULL"	n/a	"NULL"	"NULL"	"NULL"	"<p style=\"color: black; font-size: 80px; padding-left: 36%; padding-right: 16%; padding-top: 41%; padding-bottom: 49%\">+</p>"	"1043"	n/a	n/a	n/a	n/a	n/a	n/a	n/a	n/a	n/a
n/a	"image-keyboard-response"	"102"	"201544"	"0.0-5.0-2.0-1.24"	"b1dzdf"	"600"	"1366"	"chrome"	"108.0.0"	"FALSE"	"Windows 10"	"60.17"	"138"	n/a	n/a	n/a	n/a	n/a	n/a	"Trial"	n/a	n/a	n/a	"424"	"arrowleft"	n/a	"NULL"	"NULL"	"NULL"	"stimuli/Ebbinghaus_-0.1000_0.21500.png"	n/a	"Ebbinghaus"	"arrowleft"	"1052"	"TRUE"	"Ebbinghaus"	"-0.100000000"	"0.2150000000"	"1"	"43"
n/a	"html-keyboard-response"	"103"	"202839"	"0.0-5.0-2.0-0.25"	"b1dzdf"	"600"	"1366"	"chrome"	"108.0.0"	"FALSE"	"Windows 10"	"60.17"	"138"	n/a	n/a	n/a	n/a	n/a	n/a	"fixation"	n/a	n/a	n/a	n/a	"NULL"	n/a	"NULL"	"NULL"	"NULL"	"<p style=\"color: black; font-size: 80px; padding-left: 3%; padding-right: 45%; padding-top: 32%; padding-bottom: 8%\">+</p>"	"1281"	n/a	n/a	n/a	n/a	n/a	n/a	n/a	n/a	n/a
n/a	"image-keyboard-response"	"104"	"203345"	"0.0-5.0-2.0-1.25"	"b1dzdf"	"600"	"1366"	"chrome"	"108.0.0"	"FALSE"	"Windows 10"	"60.17"	"138"	n/a	n/a	n/a	n/a	n/a	n/a	"Trial"	n/a	n/a	n/a	"506"	"arrowright"	n/a	"NULL"	"NULL"	"NULL"	"stimuli/Ebbinghaus_-0.1000_0.11071.png"	n/a	"Ebbinghaus"	"arrowleft"	"1295"	"FALSE"	"Ebbinghaus"	"-0.100000000"	"0.1107100000"	"1"	"44"
n/a	"html-keyboard-response"	"105"	"204696"	"0.0-5.0-2.0-0.26"	"b1dzdf"	"600"	"1366"	"chrome"	"108.0.0"	"FALSE"	"Windows 10"	"60.17"	"138"	n/a	n/a	n/a	n/a	n/a	n/a	"fixation"	n/a	n/a	n/a	n/a	"NULL"	n/a	"NULL"	"NULL"	"NULL"	"<p style=\"color: black; font-size: 80px; padding-left: 8%; padding-right: 35%; padding-top: 2%; padding-bottom: 20%\">+</p>"	"1346"	n/a	n/a	n/a	n/a	n/a	n/a	n/a	n/a	n/a
n/a	"image-keyboard-response"	"106"	"205207"	"0.0-5.0-2.0-1.26"	"b1dzdf"	"600"	"1366"	"chrome"	"108.0.0"	"FALSE"	"Windows 10"	"60.17"	"138"	n/a	n/a	n/a	n/a	n/a	n/a	"Trial"	n/a	n/a	n/a	"510"	"arrowright"	n/a	"NULL"	"NULL"	"NULL"	"stimuli/Ebbinghaus_0.87143_-0.2150.png"	n/a	"Ebbinghaus"	"arrowright"	"1351"	"TRUE"	"Ebbinghaus"	"0.8714300000"	"-0.215000000"	"1"	"45"
n/a	"html-keyboard-response"	"107"	"206646"	"0.0-5.0-2.0-0.27"	"b1dzdf"	"600"	"1366"	"chrome"	"108.0.0"	"FALSE"	"Windows 10"	"60.17"	"138"	n/a	n/a	n/a	n/a	n/a	n/a	"fixation"	n/a	n/a	n/a	n/a	"NULL"	n/a	"NULL"	"NULL"	"NULL"	"<p style=\"color: black; font-size: 80px; padding-left: 14%; padding-right: 19%; padding-top: 33%; padding-bottom: 40%\">+</p>"	"1425"	n/a	n/a	n/a	n/a	n/a	n/a	n/a	n/a	n/a
n/a	"image-keyboard-response"	"108"	"207090"	"0.0-5.0-2.0-1.27"	"b1dzdf"	"600"	"1366"	"chrome"	"108.0.0"	"FALSE"	"Windows 10"	"60.17"	"138"	n/a	n/a	n/a	n/a	n/a	n/a	"Trial"	n/a	n/a	n/a	"443"	"arrowleft"	n/a	"NULL"	"NULL"	"NULL"	"stimuli/Ebbinghaus_-0.87143_0.28000.png"	n/a	"Ebbinghaus"	"arrowleft"	"1439"	"TRUE"	"Ebbinghaus"	"-0.871430000"	"0.2800000000"	"1"	"46"
n/a	"html-keyboard-response"	"109"	"208244"	"0.0-5.0-2.0-0.28"	"b1dzdf"	"600"	"1366"	"chrome"	"108.0.0"	"FALSE"	"Windows 10"	"60.17"	"138"	n/a	n/a	n/a	n/a	n/a	n/a	"fixation"	n/a	n/a	n/a	n/a	"NULL"	n/a	"NULL"	"NULL"	"NULL"	"<p style=\"color: black; font-size: 80px; padding-left: 9%; padding-right: 31%; padding-top: 41%; padding-bottom: 15%\">+</p>"	"1147"	n/a	n/a	n/a	n/a	n/a	n/a	n/a	n/a	n/a
n/a	"image-keyboard-response"	"110"	"208670"	"0.0-5.0-2.0-1.28"	"b1dzdf"	"600"	"1366"	"chrome"	"108.0.0"	"FALSE"	"Windows 10"	"60.17"	"138"	n/a	n/a	n/a	n/a	n/a	n/a	"Trial"	n/a	n/a	n/a	"425"	"arrowright"	n/a	"NULL"	"NULL"	"NULL"	"stimuli/Ebbinghaus_0.10000_-0.2800.png"	n/a	"Ebbinghaus"	"arrowright"	"1154"	"TRUE"	"Ebbinghaus"	"0.1000000000"	"-0.280000000"	"1"	"47"
n/a	"html-keyboard-response"	"111"	"210025"	"0.0-5.0-2.0-0.29"	"b1dzdf"	"600"	"1366"	"chrome"	"108.0.0"	"FALSE"	"Windows 10"	"60.17"	"138"	n/a	n/a	n/a	n/a	n/a	n/a	"fixation"	n/a	n/a	n/a	n/a	"NULL"	n/a	"NULL"	"NULL"	"NULL"	"<p style=\"color: black; font-size: 80px; padding-left: 42%; padding-right: 35%; padding-top: 16%; padding-bottom: 1%\">+</p>"	"1344"	n/a	n/a	n/a	n/a	n/a	n/a	n/a	n/a	n/a
n/a	"image-keyboard-response"	"112"	"210364"	"0.0-5.0-2.0-1.29"	"b1dzdf"	"600"	"1366"	"chrome"	"108.0.0"	"FALSE"	"Windows 10"	"60.17"	"138"	n/a	n/a	n/a	n/a	n/a	n/a	"Trial"	n/a	n/a	n/a	"338"	"arrowleft"	n/a	"NULL"	"NULL"	"NULL"	"stimuli/Ebbinghaus_0.87143_0.28000.png"	n/a	"Ebbinghaus"	"arrowleft"	"1355"	"TRUE"	"Ebbinghaus"	"0.8714300000"	"0.2800000000"	"1"	"48"
n/a	"html-keyboard-response"	"113"	"211477"	"0.0-5.0-2.0-0.30"	"b1dzdf"	"600"	"1366"	"chrome"	"108.0.0"	"FALSE"	"Windows 10"	"60.17"	"138"	n/a	n/a	n/a	n/a	n/a	n/a	"fixation"	n/a	n/a	n/a	n/a	"NULL"	n/a	"NULL"	"NULL"	"NULL"	"<p style=\"color: black; font-size: 80px; padding-left: 16%; padding-right: 4%; padding-top: 47%; padding-bottom: 43%\">+</p>"	"1101"	n/a	n/a	n/a	n/a	n/a	n/a	n/a	n/a	n/a
n/a	"image-keyboard-response"	"114"	"211930"	"0.0-5.0-2.0-1.30"	"b1dzdf"	"600"	"1366"	"chrome"	"108.0.0"	"FALSE"	"Windows 10"	"60.17"	"138"	n/a	n/a	n/a	n/a	n/a	n/a	"Trial"	n/a	n/a	n/a	"452"	"arrowright"	n/a	"NULL"	"NULL"	"NULL"	"stimuli/Ebbinghaus_-0.87143_0.15857.png"	n/a	"Ebbinghaus"	"arrowleft"	"1113"	"FALSE"	"Ebbinghaus"	"-0.871430000"	"0.1585700000"	"1"	"49"
n/a	"html-keyboard-response"	"115"	"213100"	"0.0-5.0-2.0-0.31"	"b1dzdf"	"600"	"1366"	"chrome"	"108.0.0"	"FALSE"	"Windows 10"	"60.17"	"138"	n/a	n/a	n/a	n/a	n/a	n/a	"fixation"	n/a	n/a	n/a	n/a	"NULL"	n/a	"NULL"	"NULL"	"NULL"	"<p style=\"color: black; font-size: 80px; padding-left: 50%; padding-right: 13%; padding-top: 19%; padding-bottom: 4%\">+</p>"	"1159"	n/a	n/a	n/a	n/a	n/a	n/a	n/a	n/a	n/a
n/a	"image-keyboard-response"	"116"	"213512"	"0.0-5.0-2.0-1.31"	"b1dzdf"	"600"	"1366"	"chrome"	"108.0.0"	"FALSE"	"Windows 10"	"60.17"	"138"	n/a	n/a	n/a	n/a	n/a	n/a	"Trial"	n/a	n/a	n/a	"410"	"arrowleft"	n/a	"NULL"	"NULL"	"NULL"	"stimuli/Ebbinghaus_0.61429_0.11071.png"	n/a	"Ebbinghaus"	"arrowleft"	"1170"	"TRUE"	"Ebbinghaus"	"0.6142900000"	"0.1107100000"	"1"	"50"
n/a	"html-keyboard-response"	"117"	"214761"	"0.0-5.0-2.0-0.32"	"b1dzdf"	"600"	"1366"	"chrome"	"108.0.0"	"FALSE"	"Windows 10"	"60.17"	"138"	n/a	n/a	n/a	n/a	n/a	n/a	"fixation"	n/a	n/a	n/a	n/a	"NULL"	n/a	"NULL"	"NULL"	"NULL"	"<p style=\"color: black; font-size: 80px; padding-left: 31%; padding-right: 17%; padding-top: 23%; padding-bottom: 44%\">+</p>"	"1232"	n/a	n/a	n/a	n/a	n/a	n/a	n/a	n/a	n/a
n/a	"image-keyboard-response"	"118"	"215199"	"0.0-5.0-2.0-1.32"	"b1dzdf"	"600"	"1366"	"chrome"	"108.0.0"	"FALSE"	"Windows 10"	"60.17"	"138"	n/a	n/a	n/a	n/a	n/a	n/a	"Trial"	n/a	n/a	n/a	"437"	"arrowleft"	n/a	"NULL"	"NULL"	"NULL"	"stimuli/Ebbinghaus_0.87143_0.21500.png"	n/a	"Ebbinghaus"	"arrowleft"	"1249"	"TRUE"	"Ebbinghaus"	"0.8714300000"	"0.2150000000"	"1"	"51"
n/a	"html-keyboard-response"	"119"	"216484"	"0.0-5.0-2.0-0.33"	"b1dzdf"	"600"	"1366"	"chrome"	"108.0.0"	"FALSE"	"Windows 10"	"60.17"	"138"	n/a	n/a	n/a	n/a	n/a	n/a	"fixation"	n/a	n/a	n/a	n/a	"NULL"	n/a	"NULL"	"NULL"	"NULL"	"<p style=\"color: black; font-size: 80px; padding-left: 39%; padding-right: 25%; padding-top: 26%; padding-bottom: 18%\">+</p>"	"1263"	n/a	n/a	n/a	n/a	n/a	n/a	n/a	n/a	n/a
n/a	"image-keyboard-response"	"120"	"216910"	"0.0-5.0-2.0-1.33"	"b1dzdf"	"600"	"1366"	"chrome"	"108.0.0"	"FALSE"	"Windows 10"	"60.17"	"138"	n/a	n/a	n/a	n/a	n/a	n/a	"Trial"	n/a	n/a	n/a	"425"	"arrowleft"	n/a	"NULL"	"NULL"	"NULL"	"stimuli/Ebbinghaus_-0.61429_-0.11071.png"	n/a	"Ebbinghaus"	"arrowright"	"1285"	"FALSE"	"Ebbinghaus"	"-0.614290000"	"-0.110710000"	"1"	"52"
n/a	"html-keyboard-response"	"121"	"218348"	"0.0-5.0-2.0-0.34"	"b1dzdf"	"600"	"1366"	"chrome"	"108.0.0"	"FALSE"	"Windows 10"	"60.17"	"138"	n/a	n/a	n/a	n/a	n/a	n/a	"fixation"	n/a	n/a	n/a	n/a	"NULL"	n/a	"NULL"	"NULL"	"NULL"	"<p style=\"color: black; font-size: 80px; padding-left: 44%; padding-right: 0%; padding-top: 18%; padding-bottom: 14%\">+</p>"	"1425"	n/a	n/a	n/a	n/a	n/a	n/a	n/a	n/a	n/a
n/a	"image-keyboard-response"	"122"	"218832"	"0.0-5.0-2.0-1.34"	"b1dzdf"	"600"	"1366"	"chrome"	"108.0.0"	"FALSE"	"Windows 10"	"60.17"	"138"	n/a	n/a	n/a	n/a	n/a	n/a	"Trial"	n/a	n/a	n/a	"484"	"arrowleft"	n/a	"NULL"	"NULL"	"NULL"	"stimuli/Ebbinghaus_0.35714_0.28000.png"	n/a	"Ebbinghaus"	"arrowleft"	"1438"	"TRUE"	"Ebbinghaus"	"0.3571400000"	"0.2800000000"	"1"	"53"
n/a	"html-keyboard-response"	"123"	"220181"	"0.0-5.0-2.0-0.35"	"b1dzdf"	"600"	"1366"	"chrome"	"108.0.0"	"FALSE"	"Windows 10"	"60.17"	"138"	n/a	n/a	n/a	n/a	n/a	n/a	"fixation"	n/a	n/a	n/a	n/a	"NULL"	n/a	"NULL"	"NULL"	"NULL"	"<p style=\"color: black; font-size: 80px; padding-left: 9%; padding-right: 19%; padding-top: 16%; padding-bottom: 48%\">+</p>"	"1331"	n/a	n/a	n/a	n/a	n/a	n/a	n/a	n/a	n/a
n/a	"image-keyboard-response"	"124"	"220577"	"0.0-5.0-2.0-1.35"	"b1dzdf"	"600"	"1366"	"chrome"	"108.0.0"	"FALSE"	"Windows 10"	"60.17"	"138"	n/a	n/a	n/a	n/a	n/a	n/a	"Trial"	n/a	n/a	n/a	"395"	"arrowleft"	n/a	"NULL"	"NULL"	"NULL"	"stimuli/Ebbinghaus_-0.1000_0.28000.png"	n/a	"Ebbinghaus"	"arrowleft"	"1349"	"TRUE"	"Ebbinghaus"	"-0.100000000"	"0.2800000000"	"1"	"54"
n/a	"html-keyboard-response"	"125"	"221616"	"0.0-5.0-2.0-0.36"	"b1dzdf"	"600"	"1366"	"chrome"	"108.0.0"	"FALSE"	"Windows 10"	"60.17"	"138"	n/a	n/a	n/a	n/a	n/a	n/a	"fixation"	n/a	n/a	n/a	n/a	"NULL"	n/a	"NULL"	"NULL"	"NULL"	"<p style=\"color: black; font-size: 80px; padding-left: 45%; padding-right: 5%; padding-top: 7%; padding-bottom: 31%\">+</p>"	"1028"	n/a	n/a	n/a	n/a	n/a	n/a	n/a	n/a	n/a
n/a	"image-keyboard-response"	"126"	"222003"	"0.0-5.0-2.0-1.36"	"b1dzdf"	"600"	"1366"	"chrome"	"108.0.0"	"FALSE"	"Windows 10"	"60.17"	"138"	n/a	n/a	n/a	n/a	n/a	n/a	"Trial"	n/a	n/a	n/a	"386"	"arrowleft"	n/a	"NULL"	"NULL"	"NULL"	"stimuli/Ebbinghaus_0.10000_0.21500.png"	n/a	"Ebbinghaus"	"arrowleft"	"1039"	"TRUE"	"Ebbinghaus"	"0.1000000000"	"0.2150000000"	"1"	"55"
n/a	"html-keyboard-response"	"127"	"223309"	"0.0-5.0-2.0-0.37"	"b1dzdf"	"600"	"1366"	"chrome"	"108.0.0"	"FALSE"	"Windows 10"	"60.17"	"138"	n/a	n/a	n/a	n/a	n/a	n/a	"fixation"	n/a	n/a	n/a	n/a	"NULL"	n/a	"NULL"	"NULL"	"NULL"	"<p style=\"color: black; font-size: 80px; padding-left: 47%; padding-right: 13%; padding-top: 39%; padding-bottom: 45%\">+</p>"	"1294"	n/a	n/a	n/a	n/a	n/a	n/a	n/a	n/a	n/a
n/a	"image-keyboard-response"	"128"	"223753"	"0.0-5.0-2.0-1.37"	"b1dzdf"	"600"	"1366"	"chrome"	"108.0.0"	"FALSE"	"Windows 10"	"60.17"	"138"	n/a	n/a	n/a	n/a	n/a	n/a	"Trial"	n/a	n/a	n/a	"442"	"arrowright"	n/a	"NULL"	"NULL"	"NULL"	"stimuli/Ebbinghaus_-0.61429_-0.15857.png"	n/a	"Ebbinghaus"	"arrowright"	"1306"	"TRUE"	"Ebbinghaus"	"-0.614290000"	"-0.158570000"	"1"	"56"
n/a	"html-keyboard-response"	"129"	"224992"	"0.0-5.0-2.0-0.38"	"b1dzdf"	"600"	"1366"	"chrome"	"108.0.0"	"FALSE"	"Windows 10"	"60.17"	"138"	n/a	n/a	n/a	n/a	n/a	n/a	"fixation"	n/a	n/a	n/a	n/a	"NULL"	n/a	"NULL"	"NULL"	"NULL"	"<p style=\"color: black; font-size: 80px; padding-left: 9%; padding-right: 4%; padding-top: 35%; padding-bottom: 22%\">+</p>"	"1226"	n/a	n/a	n/a	n/a	n/a	n/a	n/a	n/a	n/a
n/a	"image-keyboard-response"	"130"	"225441"	"0.0-5.0-2.0-1.38"	"b1dzdf"	"600"	"1366"	"chrome"	"108.0.0"	"FALSE"	"Windows 10"	"60.17"	"138"	n/a	n/a	n/a	n/a	n/a	n/a	"Trial"	n/a	n/a	n/a	"447"	"arrowleft"	n/a	"NULL"	"NULL"	"NULL"	"stimuli/Ebbinghaus_-0.87143_0.21500.png"	n/a	"Ebbinghaus"	"arrowleft"	"1239"	"TRUE"	"Ebbinghaus"	"-0.871430000"	"0.2150000000"	"1"	"57"
n/a	"html-keyboard-response"	"131"	"226480"	"0.0-5.0-2.0-0.39"	"b1dzdf"	"600"	"1366"	"chrome"	"108.0.0"	"FALSE"	"Windows 10"	"60.17"	"138"	n/a	n/a	n/a	n/a	n/a	n/a	"fixation"	n/a	n/a	n/a	n/a	"NULL"	n/a	"NULL"	"NULL"	"NULL"	"<p style=\"color: black; font-size: 80px; padding-left: 46%; padding-right: 24%; padding-top: 11%; padding-bottom: 1%\">+</p>"	"1036"	n/a	n/a	n/a	n/a	n/a	n/a	n/a	n/a	n/a
n/a	"image-keyboard-response"	"132"	"226921"	"0.0-5.0-2.0-1.39"	"b1dzdf"	"600"	"1366"	"chrome"	"108.0.0"	"FALSE"	"Windows 10"	"60.17"	"138"	n/a	n/a	n/a	n/a	n/a	n/a	"Trial"	n/a	n/a	n/a	"439"	"arrowright"	n/a	"NULL"	"NULL"	"NULL"	"stimuli/Ebbinghaus_-0.87143_-0.15857.png"	n/a	"Ebbinghaus"	"arrowright"	"1039"	"TRUE"	"Ebbinghaus"	"-0.871430000"	"-0.158570000"	"1"	"58"
n/a	"html-keyboard-response"	"133"	"227948"	"0.0-5.0-2.0-0.40"	"b1dzdf"	"600"	"1366"	"chrome"	"108.0.0"	"FALSE"	"Windows 10"	"60.17"	"138"	n/a	n/a	n/a	n/a	n/a	n/a	"fixation"	n/a	n/a	n/a	n/a	"NULL"	n/a	"NULL"	"NULL"	"NULL"	"<p style=\"color: black; font-size: 80px; padding-left: 1%; padding-right: 39%; padding-top: 29%; padding-bottom: 33%\">+</p>"	"1018"	n/a	n/a	n/a	n/a	n/a	n/a	n/a	n/a	n/a
n/a	"image-keyboard-response"	"134"	"228353"	"0.0-5.0-2.0-1.40"	"b1dzdf"	"600"	"1366"	"chrome"	"108.0.0"	"FALSE"	"Windows 10"	"60.17"	"138"	n/a	n/a	n/a	n/a	n/a	n/a	"Trial"	n/a	n/a	n/a	"404"	"arrowleft"	n/a	"NULL"	"NULL"	"NULL"	"stimuli/Ebbinghaus_-0.1000_0.15857.png"	n/a	"Ebbinghaus"	"arrowleft"	"1027"	"TRUE"	"Ebbinghaus"	"-0.100000000"	"0.1585700000"	"1"	"59"
n/a	"html-keyboard-response"	"135"	"229362"	"0.0-5.0-2.0-0.41"	"b1dzdf"	"600"	"1366"	"chrome"	"108.0.0"	"FALSE"	"Windows 10"	"60.17"	"138"	n/a	n/a	n/a	n/a	n/a	n/a	"fixation"	n/a	n/a	n/a	n/a	"NULL"	n/a	"NULL"	"NULL"	"NULL"	"<p style=\"color: black; font-size: 80px; padding-left: 45%; padding-right: 13%; padding-top: 6%; padding-bottom: 46%\">+</p>"	"1002"	n/a	n/a	n/a	n/a	n/a	n/a	n/a	n/a	n/a
n/a	"image-keyboard-response"	"136"	"229756"	"0.0-5.0-2.0-1.41"	"b1dzdf"	"600"	"1366"	"chrome"	"108.0.0"	"FALSE"	"Windows 10"	"60.17"	"138"	n/a	n/a	n/a	n/a	n/a	n/a	"Trial"	n/a	n/a	n/a	"392"	"arrowright"	n/a	"NULL"	"NULL"	"NULL"	"stimuli/Ebbinghaus_-0.35714_-0.2150.png"	n/a	"Ebbinghaus"	"arrowright"	"1009"	"TRUE"	"Ebbinghaus"	"-0.357140000"	"-0.215000000"	"1"	"60"
n/a	"html-keyboard-response"	"137"	"231148"	"0.0-5.0-2.0-0.42"	"b1dzdf"	"600"	"1366"	"chrome"	"108.0.0"	"FALSE"	"Windows 10"	"60.17"	"138"	n/a	n/a	n/a	n/a	n/a	n/a	"fixation"	n/a	n/a	n/a	n/a	"NULL"	n/a	"NULL"	"NULL"	"NULL"	"<p style=\"color: black; font-size: 80px; padding-left: 21%; padding-right: 33%; padding-top: 21%; padding-bottom: 6%\">+</p>"	"1384"	n/a	n/a	n/a	n/a	n/a	n/a	n/a	n/a	n/a
n/a	"image-keyboard-response"	"138"	"231595"	"0.0-5.0-2.0-1.42"	"b1dzdf"	"600"	"1366"	"chrome"	"108.0.0"	"FALSE"	"Windows 10"	"60.17"	"138"	n/a	n/a	n/a	n/a	n/a	n/a	"Trial"	n/a	n/a	n/a	"446"	"arrowleft"	n/a	"NULL"	"NULL"	"NULL"	"stimuli/Ebbinghaus_-0.35714_0.15857.png"	n/a	"Ebbinghaus"	"arrowleft"	"1392"	"TRUE"	"Ebbinghaus"	"-0.357140000"	"0.1585700000"	"1"	"61"
n/a	"html-keyboard-response"	"139"	"232921"	"0.0-5.0-2.0-0.43"	"b1dzdf"	"600"	"1366"	"chrome"	"108.0.0"	"FALSE"	"Windows 10"	"60.17"	"138"	n/a	n/a	n/a	n/a	n/a	n/a	"fixation"	n/a	n/a	n/a	n/a	"NULL"	n/a	"NULL"	"NULL"	"NULL"	"<p style=\"color: black; font-size: 80px; padding-left: 0%; padding-right: 31%; padding-top: 2%; padding-bottom: 42%\">+</p>"	"1316"	n/a	n/a	n/a	n/a	n/a	n/a	n/a	n/a	n/a
n/a	"image-keyboard-response"	"140"	"233346"	"0.0-5.0-2.0-1.43"	"b1dzdf"	"600"	"1366"	"chrome"	"108.0.0"	"FALSE"	"Windows 10"	"60.17"	"138"	n/a	n/a	n/a	n/a	n/a	n/a	"Trial"	n/a	n/a	n/a	"423"	"arrowright"	n/a	"NULL"	"NULL"	"NULL"	"stimuli/Ebbinghaus_0.35714_-0.11071.png"	n/a	"Ebbinghaus"	"arrowright"	"1326"	"TRUE"	"Ebbinghaus"	"0.3571400000"	"-0.110710000"	"1"	"62"
n/a	"html-keyboard-response"	"141"	"234760"	"0.0-5.0-2.0-0.44"	"b1dzdf"	"600"	"1366"	"chrome"	"108.0.0"	"FALSE"	"Windows 10"	"60.17"	"138"	n/a	n/a	n/a	n/a	n/a	n/a	"fixation"	n/a	n/a	n/a	n/a	"NULL"	n/a	"NULL"	"NULL"	"NULL"	"<p style=\"color: black; font-size: 80px; padding-left: 2%; padding-right: 39%; padding-top: 23%; padding-bottom: 34%\">+</p>"	"1397"	n/a	n/a	n/a	n/a	n/a	n/a	n/a	n/a	n/a
n/a	"image-keyboard-response"	"142"	"235130"	"0.0-5.0-2.0-1.44"	"b1dzdf"	"600"	"1366"	"chrome"	"108.0.0"	"FALSE"	"Windows 10"	"60.17"	"138"	n/a	n/a	n/a	n/a	n/a	n/a	"Trial"	n/a	n/a	n/a	"370"	"arrowleft"	n/a	"NULL"	"NULL"	"NULL"	"stimuli/Ebbinghaus_0.61429_0.15857.png"	n/a	"Ebbinghaus"	"arrowleft"	"1414"	"TRUE"	"Ebbinghaus"	"0.6142900000"	"0.1585700000"	"1"	"63"
n/a	"html-keyboard-response"	"143"	"236416"	"0.0-5.0-2.0-0.45"	"b1dzdf"	"600"	"1366"	"chrome"	"108.0.0"	"FALSE"	"Windows 10"	"60.17"	"138"	n/a	n/a	n/a	n/a	n/a	n/a	"fixation"	n/a	n/a	n/a	n/a	"NULL"	n/a	"NULL"	"NULL"	"NULL"	"<p style=\"color: black; font-size: 80px; padding-left: 43%; padding-right: 2%; padding-top: 22%; padding-bottom: 16%\">+</p>"	"1271"	n/a	n/a	n/a	n/a	n/a	n/a	n/a	n/a	n/a
n/a	"image-keyboard-response"	"144"	"236754"	"0.0-5.0-2.0-1.45"	"b1dzdf"	"600"	"1366"	"chrome"	"108.0.0"	"FALSE"	"Windows 10"	"60.17"	"138"	n/a	n/a	n/a	n/a	n/a	n/a	"Trial"	n/a	n/a	n/a	"337"	"arrowright"	n/a	"NULL"	"NULL"	"NULL"	"stimuli/Ebbinghaus_0.87143_-0.15857.png"	n/a	"Ebbinghaus"	"arrowright"	"1286"	"TRUE"	"Ebbinghaus"	"0.8714300000"	"-0.158570000"	"1"	"64"
n/a	"html-keyboard-response"	"145"	"237946"	"0.0-5.0-2.0-0.46"	"b1dzdf"	"600"	"1366"	"chrome"	"108.0.0"	"FALSE"	"Windows 10"	"60.17"	"138"	n/a	n/a	n/a	n/a	n/a	n/a	"fixation"	n/a	n/a	n/a	n/a	"NULL"	n/a	"NULL"	"NULL"	"NULL"	"<p style=\"color: black; font-size: 80px; padding-left: 17%; padding-right: 19%; padding-top: 35%; padding-bottom: 42%\">+</p>"	"1179"	n/a	n/a	n/a	n/a	n/a	n/a	n/a	n/a	n/a
n/a	"image-keyboard-response"	"146"	"238386"	"0.0-5.0-2.0-1.46"	"b1dzdf"	"600"	"1366"	"chrome"	"108.0.0"	"FALSE"	"Windows 10"	"60.17"	"138"	n/a	n/a	n/a	n/a	n/a	n/a	"Trial"	n/a	n/a	n/a	"439"	"arrowleft"	n/a	"NULL"	"NULL"	"NULL"	"stimuli/Ebbinghaus_0.35714_-0.2150.png"	n/a	"Ebbinghaus"	"arrowright"	"1192"	"FALSE"	"Ebbinghaus"	"0.3571400000"	"-0.215000000"	"1"	"65"
n/a	"html-keyboard-response"	"147"	"239515"	"0.0-5.0-2.0-0.47"	"b1dzdf"	"600"	"1366"	"chrome"	"108.0.0"	"FALSE"	"Windows 10"	"60.17"	"138"	n/a	n/a	n/a	n/a	n/a	n/a	"fixation"	n/a	n/a	n/a	n/a	"NULL"	n/a	"NULL"	"NULL"	"NULL"	"<p style=\"color: black; font-size: 80px; padding-left: 43%; padding-right: 46%; padding-top: 46%; padding-bottom: 43%\">+</p>"	"1119"	n/a	n/a	n/a	n/a	n/a	n/a	n/a	n/a	n/a
n/a	"image-keyboard-response"	"148"	"240053"	"0.0-5.0-2.0-1.47"	"b1dzdf"	"600"	"1366"	"chrome"	"108.0.0"	"FALSE"	"Windows 10"	"60.17"	"138"	n/a	n/a	n/a	n/a	n/a	n/a	"Trial"	n/a	n/a	n/a	"537"	"arrowleft"	n/a	"NULL"	"NULL"	"NULL"	"stimuli/Ebbinghaus_-0.61429_0.21500.png"	n/a	"Ebbinghaus"	"arrowleft"	"1129"	"TRUE"	"Ebbinghaus"	"-0.614290000"	"0.2150000000"	"1"	"66"
n/a	"html-keyboard-response"	"149"	"241379"	"0.0-5.0-2.0-0.48"	"b1dzdf"	"600"	"1366"	"chrome"	"108.0.0"	"FALSE"	"Windows 10"	"60.17"	"138"	n/a	n/a	n/a	n/a	n/a	n/a	"fixation"	n/a	n/a	n/a	n/a	"NULL"	n/a	"NULL"	"NULL"	"NULL"	"<p style=\"color: black; font-size: 80px; padding-left: 32%; padding-right: 10%; padding-top: 14%; padding-bottom: 5%\">+</p>"	"1311"	n/a	n/a	n/a	n/a	n/a	n/a	n/a	n/a	n/a
n/a	"image-keyboard-response"	"150"	"241810"	"0.0-5.0-2.0-1.48"	"b1dzdf"	"600"	"1366"	"chrome"	"108.0.0"	"FALSE"	"Windows 10"	"60.17"	"138"	n/a	n/a	n/a	n/a	n/a	n/a	"Trial"	n/a	n/a	n/a	"429"	"arrowright"	n/a	"NULL"	"NULL"	"NULL"	"stimuli/Ebbinghaus_-0.1000_-0.2800.png"	n/a	"Ebbinghaus"	"arrowright"	"1326"	"TRUE"	"Ebbinghaus"	"-0.100000000"	"-0.280000000"	"1"	"67"
n/a	"html-keyboard-response"	"151"	"242823"	"0.0-5.0-2.0-0.49"	"b1dzdf"	"600"	"1366"	"chrome"	"108.0.0"	"FALSE"	"Windows 10"	"60.17"	"138"	n/a	n/a	n/a	n/a	n/a	n/a	"fixation"	n/a	n/a	n/a	n/a	"NULL"	n/a	"NULL"	"NULL"	"NULL"	"<p style=\"color: black; font-size: 80px; padding-left: 38%; padding-right: 47%; padding-top: 49%; padding-bottom: 2%\">+</p>"	"1003"	n/a	n/a	n/a	n/a	n/a	n/a	n/a	n/a	n/a
n/a	"image-keyboard-response"	"152"	"243249"	"0.0-5.0-2.0-1.49"	"b1dzdf"	"600"	"1366"	"chrome"	"108.0.0"	"FALSE"	"Windows 10"	"60.17"	"138"	n/a	n/a	n/a	n/a	n/a	n/a	"Trial"	n/a	n/a	n/a	"426"	"arrowright"	n/a	"NULL"	"NULL"	"NULL"	"stimuli/Ebbinghaus_-0.35714_-0.2800.png"	n/a	"Ebbinghaus"	"arrowright"	"1013"	"TRUE"	"Ebbinghaus"	"-0.357140000"	"-0.280000000"	"1"	"68"
n/a	"html-keyboard-response"	"153"	"244308"	"0.0-5.0-2.0-0.50"	"b1dzdf"	"600"	"1366"	"chrome"	"108.0.0"	"FALSE"	"Windows 10"	"60.17"	"138"	n/a	n/a	n/a	n/a	n/a	n/a	"fixation"	n/a	n/a	n/a	n/a	"NULL"	n/a	"NULL"	"NULL"	"NULL"	"<p style=\"color: black; font-size: 80px; padding-left: 16%; padding-right: 48%; padding-top: 1%; padding-bottom: 49%\">+</p>"	"1046"	n/a	n/a	n/a	n/a	n/a	n/a	n/a	n/a	n/a
n/a	"image-keyboard-response"	"154"	"244680"	"0.0-5.0-2.0-1.50"	"b1dzdf"	"600"	"1366"	"chrome"	"108.0.0"	"FALSE"	"Windows 10"	"60.17"	"138"	n/a	n/a	n/a	n/a	n/a	n/a	"Trial"	n/a	n/a	n/a	"371"	"arrowright"	n/a	"NULL"	"NULL"	"NULL"	"stimuli/Ebbinghaus_0.61429_-0.2800.png"	n/a	"Ebbinghaus"	"arrowright"	"1059"	"TRUE"	"Ebbinghaus"	"0.6142900000"	"-0.280000000"	"1"	"69"
n/a	"html-keyboard-response"	"155"	"246191"	"0.0-5.0-2.0-0.51"	"b1dzdf"	"600"	"1366"	"chrome"	"108.0.0"	"FALSE"	"Windows 10"	"60.17"	"138"	n/a	n/a	n/a	n/a	n/a	n/a	"fixation"	n/a	n/a	n/a	n/a	"NULL"	n/a	"NULL"	"NULL"	"NULL"	"<p style=\"color: black; font-size: 80px; padding-left: 41%; padding-right: 27%; padding-top: 17%; padding-bottom: 18%\">+</p>"	"1495"	n/a	n/a	n/a	n/a	n/a	n/a	n/a	n/a	n/a
n/a	"image-keyboard-response"	"156"	"246647"	"0.0-5.0-2.0-1.51"	"b1dzdf"	"600"	"1366"	"chrome"	"108.0.0"	"FALSE"	"Windows 10"	"60.17"	"138"	n/a	n/a	n/a	n/a	n/a	n/a	"Trial"	n/a	n/a	n/a	"455"	"arrowleft"	n/a	"NULL"	"NULL"	"NULL"	"stimuli/Ebbinghaus_-0.35714_0.21500.png"	n/a	"Ebbinghaus"	"arrowleft"	"1511"	"TRUE"	"Ebbinghaus"	"-0.357140000"	"0.2150000000"	"1"	"70"
n/a	"html-keyboard-response"	"157"	"247820"	"0.0-5.0-2.0-0.52"	"b1dzdf"	"600"	"1366"	"chrome"	"108.0.0"	"FALSE"	"Windows 10"	"60.17"	"138"	n/a	n/a	n/a	n/a	n/a	n/a	"fixation"	n/a	n/a	n/a	n/a	"NULL"	n/a	"NULL"	"NULL"	"NULL"	"<p style=\"color: black; font-size: 80px; padding-left: 33%; padding-right: 32%; padding-top: 19%; padding-bottom: 33%\">+</p>"	"1162"	n/a	n/a	n/a	n/a	n/a	n/a	n/a	n/a	n/a
n/a	"image-keyboard-response"	"158"	"248206"	"0.0-5.0-2.0-1.52"	"b1dzdf"	"600"	"1366"	"chrome"	"108.0.0"	"FALSE"	"Windows 10"	"60.17"	"138"	n/a	n/a	n/a	n/a	n/a	n/a	"Trial"	n/a	n/a	n/a	"385"	"arrowleft"	n/a	"NULL"	"NULL"	"NULL"	"stimuli/Ebbinghaus_-0.1000_-0.11071.png"	n/a	"Ebbinghaus"	"arrowright"	"1173"	"FALSE"	"Ebbinghaus"	"-0.100000000"	"-0.110710000"	"1"	"71"
n/a	"html-keyboard-response"	"159"	"249401"	"0.0-5.0-2.0-0.53"	"b1dzdf"	"600"	"1366"	"chrome"	"108.0.0"	"FALSE"	"Windows 10"	"60.17"	"138"	n/a	n/a	n/a	n/a	n/a	n/a	"fixation"	n/a	n/a	n/a	n/a	"NULL"	n/a	"NULL"	"NULL"	"NULL"	"<p style=\"color: black; font-size: 80px; padding-left: 44%; padding-right: 47%; padding-top: 22%; padding-bottom: 45%\">+</p>"	"1188"	n/a	n/a	n/a	n/a	n/a	n/a	n/a	n/a	n/a
n/a	"image-keyboard-response"	"160"	"249847"	"0.0-5.0-2.0-1.53"	"b1dzdf"	"600"	"1366"	"chrome"	"108.0.0"	"FALSE"	"Windows 10"	"60.17"	"138"	n/a	n/a	n/a	n/a	n/a	n/a	"Trial"	n/a	n/a	n/a	"445"	"arrowright"	n/a	"NULL"	"NULL"	"NULL"	"stimuli/Ebbinghaus_0.87143_-0.11071.png"	n/a	"Ebbinghaus"	"arrowright"	"1195"	"TRUE"	"Ebbinghaus"	"0.8714300000"	"-0.110710000"	"1"	"72"
n/a	"html-keyboard-response"	"161"	"250863"	"0.0-5.0-2.0-0.54"	"b1dzdf"	"600"	"1366"	"chrome"	"108.0.0"	"FALSE"	"Windows 10"	"60.17"	"138"	n/a	n/a	n/a	n/a	n/a	n/a	"fixation"	n/a	n/a	n/a	n/a	"NULL"	n/a	"NULL"	"NULL"	"NULL"	"<p style=\"color: black; font-size: 80px; padding-left: 13%; padding-right: 12%; padding-top: 28%; padding-bottom: 49%\">+</p>"	"1012"	n/a	n/a	n/a	n/a	n/a	n/a	n/a	n/a	n/a
n/a	"image-keyboard-response"	"162"	"251326"	"0.0-5.0-2.0-1.54"	"b1dzdf"	"600"	"1366"	"chrome"	"108.0.0"	"FALSE"	"Windows 10"	"60.17"	"138"	n/a	n/a	n/a	n/a	n/a	n/a	"Trial"	n/a	n/a	n/a	"462"	"arrowright"	n/a	"NULL"	"NULL"	"NULL"	"stimuli/Ebbinghaus_0.10000_-0.2150.png"	n/a	"Ebbinghaus"	"arrowright"	"1016"	"TRUE"	"Ebbinghaus"	"0.1000000000"	"-0.215000000"	"1"	"73"
n/a	"html-keyboard-response"	"163"	"252612"	"0.0-5.0-2.0-0.55"	"b1dzdf"	"600"	"1366"	"chrome"	"108.0.0"	"FALSE"	"Windows 10"	"60.17"	"138"	n/a	n/a	n/a	n/a	n/a	n/a	"fixation"	n/a	n/a	n/a	n/a	"NULL"	n/a	"NULL"	"NULL"	"NULL"	"<p style=\"color: black; font-size: 80px; padding-left: 13%; padding-right: 41%; padding-top: 14%; padding-bottom: 20%\">+</p>"	"1276"	n/a	n/a	n/a	n/a	n/a	n/a	n/a	n/a	n/a
n/a	"image-keyboard-response"	"164"	"253005"	"0.0-5.0-2.0-1.55"	"b1dzdf"	"600"	"1366"	"chrome"	"108.0.0"	"FALSE"	"Windows 10"	"60.17"	"138"	n/a	n/a	n/a	n/a	n/a	n/a	"Trial"	n/a	n/a	n/a	"390"	"arrowleft"	n/a	"NULL"	"NULL"	"NULL"	"stimuli/Ebbinghaus_0.35714_0.11071.png"	n/a	"Ebbinghaus"	"arrowleft"	"1286"	"TRUE"	"Ebbinghaus"	"0.3571400000"	"0.1107100000"	"1"	"74"
n/a	"html-keyboard-response"	"165"	"254339"	"0.0-5.0-2.0-0.56"	"b1dzdf"	"600"	"1366"	"chrome"	"108.0.0"	"FALSE"	"Windows 10"	"60.17"	"138"	n/a	n/a	n/a	n/a	n/a	n/a	"fixation"	n/a	n/a	n/a	n/a	"NULL"	n/a	"NULL"	"NULL"	"NULL"	"<p style=\"color: black; font-size: 80px; padding-left: 8%; padding-right: 12%; padding-top: 7%; padding-bottom: 41%\">+</p>"	"1324"	n/a	n/a	n/a	n/a	n/a	n/a	n/a	n/a	n/a
n/a	"image-keyboard-response"	"166"	"254715"	"0.0-5.0-2.0-1.56"	"b1dzdf"	"600"	"1366"	"chrome"	"108.0.0"	"FALSE"	"Windows 10"	"60.17"	"138"	n/a	n/a	n/a	n/a	n/a	n/a	"Trial"	n/a	n/a	n/a	"375"	"arrowright"	n/a	"NULL"	"NULL"	"NULL"	"stimuli/Ebbinghaus_-0.87143_-0.2800.png"	n/a	"Ebbinghaus"	"arrowright"	"1334"	"TRUE"	"Ebbinghaus"	"-0.871430000"	"-0.280000000"	"1"	"75"
n/a	"html-keyboard-response"	"167"	"255835"	"0.0-5.0-2.0-0.57"	"b1dzdf"	"600"	"1366"	"chrome"	"108.0.0"	"FALSE"	"Windows 10"	"60.17"	"138"	n/a	n/a	n/a	n/a	n/a	n/a	"fixation"	n/a	n/a	n/a	n/a	"NULL"	n/a	"NULL"	"NULL"	"NULL"	"<p style=\"color: black; font-size: 80px; padding-left: 44%; padding-right: 24%; padding-top: 17%; padding-bottom: 16%\">+</p>"	"1099"	n/a	n/a	n/a	n/a	n/a	n/a	n/a	n/a	n/a
n/a	"image-keyboard-response"	"168"	"256217"	"0.0-5.0-2.0-1.57"	"b1dzdf"	"600"	"1366"	"chrome"	"108.0.0"	"FALSE"	"Windows 10"	"60.17"	"138"	n/a	n/a	n/a	n/a	n/a	n/a	"Trial"	n/a	n/a	n/a	"381"	"arrowleft"	n/a	"NULL"	"NULL"	"NULL"	"stimuli/Ebbinghaus_0.87143_0.15857.png"	n/a	"Ebbinghaus"	"arrowleft"	"1120"	"TRUE"	"Ebbinghaus"	"0.8714300000"	"0.1585700000"	"1"	"76"
n/a	"html-keyboard-response"	"169"	"257586"	"0.0-5.0-2.0-0.58"	"b1dzdf"	"600"	"1366"	"chrome"	"108.0.0"	"FALSE"	"Windows 10"	"60.17"	"138"	n/a	n/a	n/a	n/a	n/a	n/a	"fixation"	n/a	n/a	n/a	n/a	"NULL"	n/a	"NULL"	"NULL"	"NULL"	"<p style=\"color: black; font-size: 80px; padding-left: 5%; padding-right: 41%; padding-top: 44%; padding-bottom: 33%\">+</p>"	"1361"	n/a	n/a	n/a	n/a	n/a	n/a	n/a	n/a	n/a
n/a	"image-keyboard-response"	"170"	"257950"	"0.0-5.0-2.0-1.58"	"b1dzdf"	"600"	"1366"	"chrome"	"108.0.0"	"FALSE"	"Windows 10"	"60.17"	"138"	n/a	n/a	n/a	n/a	n/a	n/a	"Trial"	n/a	n/a	n/a	"363"	"arrowright"	n/a	"NULL"	"NULL"	"NULL"	"stimuli/Ebbinghaus_0.10000_-0.11071.png"	n/a	"Ebbinghaus"	"arrowright"	"1369"	"TRUE"	"Ebbinghaus"	"0.1000000000"	"-0.110710000"	"1"	"77"
n/a	"html-keyboard-response"	"171"	"259060"	"0.0-5.0-2.0-0.59"	"b1dzdf"	"600"	"1366"	"chrome"	"108.0.0"	"FALSE"	"Windows 10"	"60.17"	"138"	n/a	n/a	n/a	n/a	n/a	n/a	"fixation"	n/a	n/a	n/a	n/a	"NULL"	n/a	"NULL"	"NULL"	"NULL"	"<p style=\"color: black; font-size: 80px; padding-left: 37%; padding-right: 1%; padding-top: 27%; padding-bottom: 42%\">+</p>"	"1093"	n/a	n/a	n/a	n/a	n/a	n/a	n/a	n/a	n/a
n/a	"image-keyboard-response"	"172"	"259503"	"0.0-5.0-2.0-1.59"	"b1dzdf"	"600"	"1366"	"chrome"	"108.0.0"	"FALSE"	"Windows 10"	"60.17"	"138"	n/a	n/a	n/a	n/a	n/a	n/a	"Trial"	n/a	n/a	n/a	"442"	"arrowright"	n/a	"NULL"	"NULL"	"NULL"	"stimuli/Ebbinghaus_-0.87143_-0.11071.png"	n/a	"Ebbinghaus"	"arrowright"	"1110"	"TRUE"	"Ebbinghaus"	"-0.871430000"	"-0.110710000"	"1"	"78"
n/a	"html-keyboard-response"	"173"	"260693"	"0.0-5.0-2.0-0.60"	"b1dzdf"	"600"	"1366"	"chrome"	"108.0.0"	"FALSE"	"Windows 10"	"60.17"	"138"	n/a	n/a	n/a	n/a	n/a	n/a	"fixation"	n/a	n/a	n/a	n/a	"NULL"	n/a	"NULL"	"NULL"	"NULL"	"<p style=\"color: black; font-size: 80px; padding-left: 26%; padding-right: 44%; padding-top: 0%; padding-bottom: 8%\">+</p>"	"1178"	n/a	n/a	n/a	n/a	n/a	n/a	n/a	n/a	n/a
n/a	"image-keyboard-response"	"174"	"261096"	"0.0-5.0-2.0-1.60"	"b1dzdf"	"600"	"1366"	"chrome"	"108.0.0"	"FALSE"	"Windows 10"	"60.17"	"138"	n/a	n/a	n/a	n/a	n/a	n/a	"Trial"	n/a	n/a	n/a	"402"	"arrowright"	n/a	"NULL"	"NULL"	"NULL"	"stimuli/Ebbinghaus_-0.87143_-0.2150.png"	n/a	"Ebbinghaus"	"arrowright"	"1190"	"TRUE"	"Ebbinghaus"	"-0.871430000"	"-0.215000000"	"1"	"79"
n/a	"html-keyboard-response"	"175"	"262574"	"0.0-5.0-2.0-0.61"	"b1dzdf"	"600"	"1366"	"chrome"	"108.0.0"	"FALSE"	"Windows 10"	"60.17"	"138"	n/a	n/a	n/a	n/a	n/a	n/a	"fixation"	n/a	n/a	n/a	n/a	"NULL"	n/a	"NULL"	"NULL"	"NULL"	"<p style=\"color: black; font-size: 80px; padding-left: 33%; padding-right: 45%; padding-top: 48%; padding-bottom: 3%\">+</p>"	"1460"	n/a	n/a	n/a	n/a	n/a	n/a	n/a	n/a	n/a
n/a	"image-keyboard-response"	"176"	"262952"	"0.0-5.0-2.0-1.61"	"b1dzdf"	"600"	"1366"	"chrome"	"108.0.0"	"FALSE"	"Windows 10"	"60.17"	"138"	n/a	n/a	n/a	n/a	n/a	n/a	"Trial"	n/a	n/a	n/a	"377"	"arrowright"	n/a	"NULL"	"NULL"	"NULL"	"stimuli/Ebbinghaus_0.87143_-0.2800.png"	n/a	"Ebbinghaus"	"arrowright"	"1478"	"TRUE"	"Ebbinghaus"	"0.8714300000"	"-0.280000000"	"1"	"80"
n/a	"html-keyboard-response"	"177"	"264461"	"0.0-5.0-2.0-0.62"	"b1dzdf"	"600"	"1366"	"chrome"	"108.0.0"	"FALSE"	"Windows 10"	"60.17"	"138"	n/a	n/a	n/a	n/a	n/a	n/a	"fixation"	n/a	n/a	n/a	n/a	"NULL"	n/a	"NULL"	"NULL"	"NULL"	"<p style=\"color: black; font-size: 80px; padding-left: 3%; padding-right: 10%; padding-top: 35%; padding-bottom: 45%\">+</p>"	"1500"	n/a	n/a	n/a	n/a	n/a	n/a	n/a	n/a	n/a
n/a	"image-keyboard-response"	"178"	"264888"	"0.0-5.0-2.0-1.62"	"b1dzdf"	"600"	"1366"	"chrome"	"108.0.0"	"FALSE"	"Windows 10"	"60.17"	"138"	n/a	n/a	n/a	n/a	n/a	n/a	"Trial"	n/a	n/a	n/a	"426"	"arrowleft"	n/a	"NULL"	"NULL"	"NULL"	"stimuli/Ebbinghaus_0.87143_0.11071.png"	n/a	"Ebbinghaus"	"arrowleft"	"1509"	"TRUE"	"Ebbinghaus"	"0.8714300000"	"0.1107100000"	"1"	"81"
n/a	"html-keyboard-response"	"179"	"265901"	"0.0-5.0-2.0-0.63"	"b1dzdf"	"600"	"1366"	"chrome"	"108.0.0"	"FALSE"	"Windows 10"	"60.17"	"138"	n/a	n/a	n/a	n/a	n/a	n/a	"fixation"	n/a	n/a	n/a	n/a	"NULL"	n/a	"NULL"	"NULL"	"NULL"	"<p style=\"color: black; font-size: 80px; padding-left: 4%; padding-right: 10%; padding-top: 21%; padding-bottom: 29%\">+</p>"	"1004"	n/a	n/a	n/a	n/a	n/a	n/a	n/a	n/a	n/a
n/a	"image-keyboard-response"	"180"	"266321"	"0.0-5.0-2.0-1.63"	"b1dzdf"	"600"	"1366"	"chrome"	"108.0.0"	"FALSE"	"Windows 10"	"60.17"	"138"	n/a	n/a	n/a	n/a	n/a	n/a	"Trial"	n/a	n/a	n/a	"419"	"arrowright"	n/a	"NULL"	"NULL"	"NULL"	"stimuli/Ebbinghaus_-0.1000_-0.2150.png"	n/a	"Ebbinghaus"	"arrowright"	"1013"	"TRUE"	"Ebbinghaus"	"-0.100000000"	"-0.215000000"	"1"	"82"
n/a	"html-button-response"	"181"	"284167"	"0.0-5.0-3.0"	"b1dzdf"	"600"	"1366"	"chrome"	"108.0.0"	"FALSE"	"Windows 10"	"60.17"	"138"	n/a	n/a	n/a	n/a	n/a	n/a	"block_results"	n/a	n/a	n/a	"17844"	"0"	n/a	"NULL"	"NULL"	"NULL"	"<p>Your score for this illusion is <p style=\"color: black; font-size: 48px; font-weight: bold;\">85.8 %</p><hr><p>Can you do better in the next illusion?</p>"	n/a	n/a	n/a	n/a	n/a	n/a	n/a	n/a	n/a	n/a
"TRUE"	"preload"	"182"	"284319"	"0.0-6.0-0.0"	"b1dzdf"	"600"	"1366"	"chrome"	"108.0.0"	"FALSE"	"Windows 10"	"60.17"	"138"	n/a	n/a	n/a	n/a	n/a	n/a	n/a	n/a	n/a	n/a	n/a	"NULL"	"FALSE"	"list()"	"list()"	"list()"	n/a	n/a	n/a	n/a	n/a	n/a	n/a	n/a	n/a	n/a	n/a
n/a	"html-keyboard-response"	"183"	"288761"	"0.0-6.0-1.0"	"b1dzdf"	"600"	"1366"	"chrome"	"108.0.0"	"FALSE"	"Windows 10"	"60.17"	"138"	n/a	n/a	n/a	n/a	n/a	n/a	n/a	n/a	n/a	n/a	"4442"	"enter"	n/a	"NULL"	"NULL"	"NULL"	"<p><b>Part 2/6</b></p><p>In this part, two horizontal red lines will appear one above the other.</p><p>Your task is to select which <b>line is longer</b> in length as fast as you can, without making errors.</p><p>Don't get distracted by the surrounding black arrows at the end of the red lines!</p><p>Press <b>the UP or the DOWN arrow</b> to indicate where is the longer <b>red line.</b></p><div style='float: center'><img src='materials/instructions/MullerLyer_Demo.png' height='300'></img><p><img src='utils/answer/answer_updown_keyboard.PNG' height='150'></img></p><p class='small'>In this example, the correct answer is the <b>UP arrow</b>.</p></div><p>Are you ready? <b>Press ENTER to start</b></p>"	n/a	n/a	n/a	n/a	n/a	n/a	n/a	n/a	n/a	n/a
n/a	"html-keyboard-response"	"184"	"290349"	"0.0-6.0-2.0-0.0"	"b1dzdf"	"600"	"1366"	"chrome"	"108.0.0"	"FALSE"	"Windows 10"	"60.17"	"138"	n/a	n/a	n/a	n/a	n/a	n/a	"fixation"	n/a	n/a	n/a	n/a	"NULL"	n/a	"NULL"	"NULL"	"NULL"	"<p style=\"color: black; font-size: 80px; padding-left: 5%; padding-right: 0%; padding-top: 2%; padding-bottom: 21%\">+</p>"	"1058"	n/a	n/a	n/a	n/a	n/a	n/a	n/a	n/a	n/a
n/a	"image-keyboard-response"	"185"	"290837"	"0.0-6.0-2.0-1.0"	"b1dzdf"	"600"	"1366"	"chrome"	"108.0.0"	"FALSE"	"Windows 10"	"60.17"	"138"	n/a	n/a	n/a	n/a	n/a	n/a	"Trial"	n/a	n/a	n/a	"487"	"arrowup"	n/a	"NULL"	"NULL"	"NULL"	"stimuli/MullerLyer_-20.04286_0.07627.png"	n/a	"MullerLyer"	"arrowup"	"1588"	"TRUE"	"MullerLyer"	"-20.04286000"	"0.0762700000"	"2"	"1"
n/a	"html-keyboard-response"	"186"	"292041"	"0.0-6.0-2.0-0.1"	"b1dzdf"	"600"	"1366"	"chrome"	"108.0.0"	"FALSE"	"Windows 10"	"60.17"	"138"	n/a	n/a	n/a	n/a	n/a	n/a	"fixation"	n/a	n/a	n/a	n/a	"NULL"	n/a	"NULL"	"NULL"	"NULL"	"<p style=\"color: black; font-size: 80px; padding-left: 41%; padding-right: 9%; padding-top: 15%; padding-bottom: 45%\">+</p>"	"1186"	n/a	n/a	n/a	n/a	n/a	n/a	n/a	n/a	n/a
n/a	"image-keyboard-response"	"187"	"292474"	"0.0-6.0-2.0-1.1"	"b1dzdf"	"600"	"1366"	"chrome"	"108.0.0"	"FALSE"	"Windows 10"	"60.17"	"138"	n/a	n/a	n/a	n/a	n/a	n/a	"Trial"	n/a	n/a	n/a	"431"	"arrowup"	n/a	"NULL"	"NULL"	"NULL"	"stimuli/MullerLyer_8.21429_0.23665.png"	n/a	"MullerLyer"	"arrowup"	"1204"	"TRUE"	"MullerLyer"	"8.2142900000"	"0.2366500000"	"2"	"2"
n/a	"html-keyboard-response"	"188"	"293645"	"0.0-6.0-2.0-0.2"	"b1dzdf"	"600"	"1366"	"chrome"	"108.0.0"	"FALSE"	"Windows 10"	"60.17"	"138"	n/a	n/a	n/a	n/a	n/a	n/a	"fixation"	n/a	n/a	n/a	n/a	"NULL"	n/a	"NULL"	"NULL"	"NULL"	"<p style=\"color: black; font-size: 80px; padding-left: 46%; padding-right: 5%; padding-top: 25%; padding-bottom: 24%\">+</p>"	"1157"	n/a	n/a	n/a	n/a	n/a	n/a	n/a	n/a	n/a
n/a	"image-keyboard-response"	"189"	"294132"	"0.0-6.0-2.0-1.2"	"b1dzdf"	"600"	"1366"	"chrome"	"108.0.0"	"FALSE"	"Windows 10"	"60.17"	"138"	n/a	n/a	n/a	n/a	n/a	n/a	"Trial"	n/a	n/a	n/a	"486"	"arrowdown"	n/a	"NULL"	"NULL"	"NULL"	"stimuli/MullerLyer_-8.21429_-0.23665.png"	n/a	"MullerLyer"	"arrowdown"	"1171"	"TRUE"	"MullerLyer"	"-8.214290000"	"-0.236650000"	"2"	"3"
n/a	"html-keyboard-response"	"190"	"295276"	"0.0-6.0-2.0-0.3"	"b1dzdf"	"600"	"1366"	"chrome"	"108.0.0"	"FALSE"	"Windows 10"	"60.17"	"138"	n/a	n/a	n/a	n/a	n/a	n/a	"fixation"	n/a	n/a	n/a	n/a	"NULL"	n/a	"NULL"	"NULL"	"NULL"	"<p style=\"color: black; font-size: 80px; padding-left: 6%; padding-right: 28%; padding-top: 34%; padding-bottom: 47%\">+</p>"	"1129"	n/a	n/a	n/a	n/a	n/a	n/a	n/a	n/a	n/a
n/a	"image-keyboard-response"	"191"	"295765"	"0.0-6.0-2.0-1.3"	"b1dzdf"	"600"	"1366"	"chrome"	"108.0.0"	"FALSE"	"Windows 10"	"60.17"	"138"	n/a	n/a	n/a	n/a	n/a	n/a	"Trial"	n/a	n/a	n/a	"488"	"arrowdown"	n/a	"NULL"	"NULL"	"NULL"	"stimuli/MullerLyer_14.12857_0.07627.png"	n/a	"MullerLyer"	"arrowup"	"1144"	"FALSE"	"MullerLyer"	"14.128570000"	"0.0762700000"	"2"	"4"
n/a	"html-keyboard-response"	"192"	"297040"	"0.0-6.0-2.0-0.4"	"b1dzdf"	"600"	"1366"	"chrome"	"108.0.0"	"FALSE"	"Windows 10"	"60.17"	"138"	n/a	n/a	n/a	n/a	n/a	n/a	"fixation"	n/a	n/a	n/a	n/a	"NULL"	n/a	"NULL"	"NULL"	"NULL"	"<p style=\"color: black; font-size: 80px; padding-left: 22%; padding-right: 0%; padding-top: 21%; padding-bottom: 32%\">+</p>"	"1261"	n/a	n/a	n/a	n/a	n/a	n/a	n/a	n/a	n/a
n/a	"image-keyboard-response"	"193"	"297479"	"0.0-6.0-2.0-1.4"	"b1dzdf"	"600"	"1366"	"chrome"	"108.0.0"	"FALSE"	"Windows 10"	"60.17"	"138"	n/a	n/a	n/a	n/a	n/a	n/a	"Trial"	n/a	n/a	n/a	"438"	"arrowup"	n/a	"NULL"	"NULL"	"NULL"	"stimuli/MullerLyer_8.21429_0.14541.png"	n/a	"MullerLyer"	"arrowup"	"1275"	"TRUE"	"MullerLyer"	"8.2142900000"	"0.1454100000"	"2"	"5"
n/a	"html-keyboard-response"	"194"	"298515"	"0.0-6.0-2.0-0.5"	"b1dzdf"	"600"	"1366"	"chrome"	"108.0.0"	"FALSE"	"Windows 10"	"60.17"	"138"	n/a	n/a	n/a	n/a	n/a	n/a	"fixation"	n/a	n/a	n/a	n/a	"NULL"	n/a	"NULL"	"NULL"	"NULL"	"<p style=\"color: black; font-size: 80px; padding-left: 29%; padding-right: 30%; padding-top: 11%; padding-bottom: 47%\">+</p>"	"1025"	n/a	n/a	n/a	n/a	n/a	n/a	n/a	n/a	n/a
n/a	"image-keyboard-response"	"195"	"298952"	"0.0-6.0-2.0-1.5"	"b1dzdf"	"600"	"1366"	"chrome"	"108.0.0"	"FALSE"	"Windows 10"	"60.17"	"138"	n/a	n/a	n/a	n/a	n/a	n/a	"Trial"	n/a	n/a	n/a	"436"	"arrowdown"	n/a	"NULL"	"NULL"	"NULL"	"stimuli/MullerLyer_-14.12857_-0.07627.png"	n/a	"MullerLyer"	"arrowdown"	"1036"	"TRUE"	"MullerLyer"	"-14.12857000"	"-0.076270000"	"2"	"6"
n/a	"html-keyboard-response"	"196"	"300292"	"0.0-6.0-2.0-0.6"	"b1dzdf"	"600"	"1366"	"chrome"	"108.0.0"	"FALSE"	"Windows 10"	"60.17"	"138"	n/a	n/a	n/a	n/a	n/a	n/a	"fixation"	n/a	n/a	n/a	n/a	"NULL"	n/a	"NULL"	"NULL"	"NULL"	"<p style=\"color: black; font-size: 80px; padding-left: 41%; padding-right: 14%; padding-top: 24%; padding-bottom: 16%\">+</p>"	"1319"	n/a	n/a	n/a	n/a	n/a	n/a	n/a	n/a	n/a
n/a	"image-keyboard-response"	"197"	"300675"	"0.0-6.0-2.0-1.6"	"b1dzdf"	"600"	"1366"	"chrome"	"108.0.0"	"FALSE"	"Windows 10"	"60.17"	"138"	n/a	n/a	n/a	n/a	n/a	n/a	"Trial"	n/a	n/a	n/a	"382"	"arrowup"	n/a	"NULL"	"NULL"	"NULL"	"stimuli/MullerLyer_-2.3000_0.23665.png"	n/a	"MullerLyer"	"arrowup"	"1340"	"TRUE"	"MullerLyer"	"-2.300000000"	"0.2366500000"	"2"	"7"
n/a	"html-keyboard-response"	"198"	"301808"	"0.0-6.0-2.0-0.7"	"b1dzdf"	"600"	"1366"	"chrome"	"108.0.0"	"FALSE"	"Windows 10"	"60.17"	"138"	n/a	n/a	n/a	n/a	n/a	n/a	"fixation"	n/a	n/a	n/a	n/a	"NULL"	n/a	"NULL"	"NULL"	"NULL"	"<p style=\"color: black; font-size: 80px; padding-left: 35%; padding-right: 41%; padding-top: 33%; padding-bottom: 2%\">+</p>"	"1127"	n/a	n/a	n/a	n/a	n/a	n/a	n/a	n/a	n/a
n/a	"image-keyboard-response"	"199"	"302277"	"0.0-6.0-2.0-1.7"	"b1dzdf"	"600"	"1366"	"chrome"	"108.0.0"	"FALSE"	"Windows 10"	"60.17"	"138"	n/a	n/a	n/a	n/a	n/a	n/a	"Trial"	n/a	n/a	n/a	"468"	"arrowup"	n/a	"NULL"	"NULL"	"NULL"	"stimuli/MullerLyer_-14.12857_0.35000.png"	n/a	"MullerLyer"	"arrowup"	"1133"	"TRUE"	"MullerLyer"	"-14.12857000"	"0.3500000000"	"2"	"8"
n/a	"html-keyboard-response"	"200"	"303479"	"0.0-6.0-2.0-0.8"	"b1dzdf"	"600"	"1366"	"chrome"	"108.0.0"	"FALSE"	"Windows 10"	"60.17"	"138"	n/a	n/a	n/a	n/a	n/a	n/a	"fixation"	n/a	n/a	n/a	n/a	"NULL"	n/a	"NULL"	"NULL"	"NULL"	"<p style=\"color: black; font-size: 80px; padding-left: 10%; padding-right: 22%; padding-top: 30%; padding-bottom: 44%\">+</p>"	"1181"	n/a	n/a	n/a	n/a	n/a	n/a	n/a	n/a	n/a
n/a	"image-keyboard-response"	"201"	"303886"	"0.0-6.0-2.0-1.8"	"b1dzdf"	"600"	"1366"	"chrome"	"108.0.0"	"FALSE"	"Windows 10"	"60.17"	"138"	n/a	n/a	n/a	n/a	n/a	n/a	"Trial"	n/a	n/a	n/a	"406"	"arrowdown"	n/a	"NULL"	"NULL"	"NULL"	"stimuli/MullerLyer_-20.04286_-0.3500.png"	n/a	"MullerLyer"	"arrowdown"	"1202"	"TRUE"	"MullerLyer"	"-20.04286000"	"-0.350000000"	"2"	"9"
n/a	"html-keyboard-response"	"202"	"305214"	"0.0-6.0-2.0-0.9"	"b1dzdf"	"600"	"1366"	"chrome"	"108.0.0"	"FALSE"	"Windows 10"	"60.17"	"138"	n/a	n/a	n/a	n/a	n/a	n/a	"fixation"	n/a	n/a	n/a	n/a	"NULL"	n/a	"NULL"	"NULL"	"NULL"	"<p style=\"color: black; font-size: 80px; padding-left: 24%; padding-right: 34%; padding-top: 36%; padding-bottom: 41%\">+</p>"	"1305"	n/a	n/a	n/a	n/a	n/a	n/a	n/a	n/a	n/a
n/a	"image-keyboard-response"	"203"	"305567"	"0.0-6.0-2.0-1.9"	"b1dzdf"	"600"	"1366"	"chrome"	"108.0.0"	"FALSE"	"Windows 10"	"60.17"	"138"	n/a	n/a	n/a	n/a	n/a	n/a	"Trial"	n/a	n/a	n/a	"350"	"arrowup"	n/a	"NULL"	"NULL"	"NULL"	"stimuli/MullerLyer_-8.21429_0.35000.png"	n/a	"MullerLyer"	"arrowup"	"1328"	"TRUE"	"MullerLyer"	"-8.214290000"	"0.3500000000"	"2"	"10"
n/a	"html-keyboard-response"	"204"	"306994"	"0.0-6.0-2.0-0.10"	"b1dzdf"	"600"	"1366"	"chrome"	"108.0.0"	"FALSE"	"Windows 10"	"60.17"	"138"	n/a	n/a	n/a	n/a	n/a	n/a	"fixation"	n/a	n/a	n/a	n/a	"NULL"	n/a	"NULL"	"NULL"	"NULL"	"<p style=\"color: black; font-size: 80px; padding-left: 5%; padding-right: 19%; padding-top: 32%; padding-bottom: 41%\">+</p>"	"1415"	n/a	n/a	n/a	n/a	n/a	n/a	n/a	n/a	n/a
n/a	"image-keyboard-response"	"205"	"307309"	"0.0-6.0-2.0-1.10"	"b1dzdf"	"600"	"1366"	"chrome"	"108.0.0"	"FALSE"	"Windows 10"	"60.17"	"138"	n/a	n/a	n/a	n/a	n/a	n/a	"Trial"	n/a	n/a	n/a	"314"	"arrowdown"	n/a	"NULL"	"NULL"	"NULL"	"stimuli/MullerLyer_-8.21429_-0.3500.png"	n/a	"MullerLyer"	"arrowdown"	"1427"	"TRUE"	"MullerLyer"	"-8.214290000"	"-0.350000000"	"2"	"11"
n/a	"html-keyboard-response"	"206"	"308519"	"0.0-6.0-2.0-0.11"	"b1dzdf"	"600"	"1366"	"chrome"	"108.0.0"	"FALSE"	"Windows 10"	"60.17"	"138"	n/a	n/a	n/a	n/a	n/a	n/a	"fixation"	n/a	n/a	n/a	n/a	"NULL"	n/a	"NULL"	"NULL"	"NULL"	"<p style=\"color: black; font-size: 80px; padding-left: 25%; padding-right: 24%; padding-top: 16%; padding-bottom: 17%\">+</p>"	"1200"	n/a	n/a	n/a	n/a	n/a	n/a	n/a	n/a	n/a
n/a	"image-keyboard-response"	"207"	"308924"	"0.0-6.0-2.0-1.11"	"b1dzdf"	"600"	"1366"	"chrome"	"108.0.0"	"FALSE"	"Windows 10"	"60.17"	"138"	n/a	n/a	n/a	n/a	n/a	n/a	"Trial"	n/a	n/a	n/a	"405"	"arrowdown"	n/a	"NULL"	"NULL"	"NULL"	"stimuli/MullerLyer_2.30000_-0.23665.png"	n/a	"MullerLyer"	"arrowdown"	"1210"	"TRUE"	"MullerLyer"	"2.3000000000"	"-0.236650000"	"2"	"12"
n/a	"html-keyboard-response"	"208"	"310238"	"0.0-6.0-2.0-0.12"	"b1dzdf"	"600"	"1366"	"chrome"	"108.0.0"	"FALSE"	"Windows 10"	"60.17"	"138"	n/a	n/a	n/a	n/a	n/a	n/a	"fixation"	n/a	n/a	n/a	n/a	"NULL"	n/a	"NULL"	"NULL"	"NULL"	"<p style=\"color: black; font-size: 80px; padding-left: 32%; padding-right: 6%; padding-top: 47%; padding-bottom: 36%\">+</p>"	"1303"	n/a	n/a	n/a	n/a	n/a	n/a	n/a	n/a	n/a
n/a	"image-keyboard-response"	"209"	"310587"	"0.0-6.0-2.0-1.12"	"b1dzdf"	"600"	"1366"	"chrome"	"108.0.0"	"FALSE"	"Windows 10"	"60.17"	"138"	n/a	n/a	n/a	n/a	n/a	n/a	"Trial"	n/a	n/a	n/a	"348"	"arrowup"	n/a	"NULL"	"NULL"	"NULL"	"stimuli/MullerLyer_-14.12857_0.23665.png"	n/a	"MullerLyer"	"arrowup"	"1314"	"TRUE"	"MullerLyer"	"-14.12857000"	"0.2366500000"	"2"	"13"
n/a	"html-keyboard-response"	"210"	"311954"	"0.0-6.0-2.0-0.13"	"b1dzdf"	"600"	"1366"	"chrome"	"108.0.0"	"FALSE"	"Windows 10"	"60.17"	"138"	n/a	n/a	n/a	n/a	n/a	n/a	"fixation"	n/a	n/a	n/a	n/a	"NULL"	n/a	"NULL"	"NULL"	"NULL"	"<p style=\"color: black; font-size: 80px; padding-left: 5%; padding-right: 2%; padding-top: 1%; padding-bottom: 38%\">+</p>"	"1348"	n/a	n/a	n/a	n/a	n/a	n/a	n/a	n/a	n/a
n/a	"image-keyboard-response"	"211"	"312394"	"0.0-6.0-2.0-1.13"	"b1dzdf"	"600"	"1366"	"chrome"	"108.0.0"	"FALSE"	"Windows 10"	"60.17"	"138"	n/a	n/a	n/a	n/a	n/a	n/a	"Trial"	n/a	n/a	n/a	"439"	"arrowup"	n/a	"NULL"	"NULL"	"NULL"	"stimuli/MullerLyer_2.30000_0.23665.png"	n/a	"MullerLyer"	"arrowup"	"1367"	"TRUE"	"MullerLyer"	"2.3000000000"	"0.2366500000"	"2"	"14"
n/a	"html-keyboard-response"	"212"	"313744"	"0.0-6.0-2.0-0.14"	"b1dzdf"	"600"	"1366"	"chrome"	"108.0.0"	"FALSE"	"Windows 10"	"60.17"	"138"	n/a	n/a	n/a	n/a	n/a	n/a	"fixation"	n/a	n/a	n/a	n/a	"NULL"	n/a	"NULL"	"NULL"	"NULL"	"<p style=\"color: black; font-size: 80px; padding-left: 5%; padding-right: 40%; padding-top: 14%; padding-bottom: 4%\">+</p>"	"1333"	n/a	n/a	n/a	n/a	n/a	n/a	n/a	n/a	n/a
n/a	"image-keyboard-response"	"213"	"314151"	"0.0-6.0-2.0-1.14"	"b1dzdf"	"600"	"1366"	"chrome"	"108.0.0"	"FALSE"	"Windows 10"	"60.17"	"138"	n/a	n/a	n/a	n/a	n/a	n/a	"Trial"	n/a	n/a	n/a	"404"	"arrowdown"	n/a	"NULL"	"NULL"	"NULL"	"stimuli/MullerLyer_14.12857_-0.3500.png"	n/a	"MullerLyer"	"arrowdown"	"1350"	"TRUE"	"MullerLyer"	"14.128570000"	"-0.350000000"	"2"	"15"
n/a	"html-keyboard-response"	"214"	"315477"	"0.0-6.0-2.0-0.15"	"b1dzdf"	"600"	"1366"	"chrome"	"108.0.0"	"FALSE"	"Windows 10"	"60.17"	"138"	n/a	n/a	n/a	n/a	n/a	n/a	"fixation"	n/a	n/a	n/a	n/a	"NULL"	n/a	"NULL"	"NULL"	"NULL"	"<p style=\"color: black; font-size: 80px; padding-left: 11%; padding-right: 34%; padding-top: 6%; padding-bottom: 16%\">+</p>"	"1307"	n/a	n/a	n/a	n/a	n/a	n/a	n/a	n/a	n/a
n/a	"image-keyboard-response"	"215"	"315822"	"0.0-6.0-2.0-1.15"	"b1dzdf"	"600"	"1366"	"chrome"	"108.0.0"	"FALSE"	"Windows 10"	"60.17"	"138"	n/a	n/a	n/a	n/a	n/a	n/a	"Trial"	n/a	n/a	n/a	"344"	"arrowup"	n/a	"NULL"	"NULL"	"NULL"	"stimuli/MullerLyer_-14.12857_0.07627.png"	n/a	"MullerLyer"	"arrowup"	"1326"	"TRUE"	"MullerLyer"	"-14.12857000"	"0.0762700000"	"2"	"16"
n/a	"html-keyboard-response"	"216"	"317151"	"0.0-6.0-2.0-0.16"	"b1dzdf"	"600"	"1366"	"chrome"	"108.0.0"	"FALSE"	"Windows 10"	"60.17"	"138"	n/a	n/a	n/a	n/a	n/a	n/a	"fixation"	n/a	n/a	n/a	n/a	"NULL"	n/a	"NULL"	"NULL"	"NULL"	"<p style=\"color: black; font-size: 80px; padding-left: 9%; padding-right: 33%; padding-top: 41%; padding-bottom: 6%\">+</p>"	"1320"	n/a	n/a	n/a	n/a	n/a	n/a	n/a	n/a	n/a
n/a	"image-keyboard-response"	"217"	"317649"	"0.0-6.0-2.0-1.16"	"b1dzdf"	"600"	"1366"	"chrome"	"108.0.0"	"FALSE"	"Windows 10"	"60.17"	"138"	n/a	n/a	n/a	n/a	n/a	n/a	"Trial"	n/a	n/a	n/a	"497"	"arrowup"	n/a	"NULL"	"NULL"	"NULL"	"stimuli/MullerLyer_14.12857_0.35000.png"	n/a	"MullerLyer"	"arrowup"	"1329"	"TRUE"	"MullerLyer"	"14.128570000"	"0.3500000000"	"2"	"17"
n/a	"html-keyboard-response"	"218"	"319090"	"0.0-6.0-2.0-0.17"	"b1dzdf"	"600"	"1366"	"chrome"	"108.0.0"	"FALSE"	"Windows 10"	"60.17"	"138"	n/a	n/a	n/a	n/a	n/a	n/a	"fixation"	n/a	n/a	n/a	n/a	"NULL"	n/a	"NULL"	"NULL"	"NULL"	"<p style=\"color: black; font-size: 80px; padding-left: 1%; padding-right: 16%; padding-top: 27%; padding-bottom: 32%\">+</p>"	"1425"	n/a	n/a	n/a	n/a	n/a	n/a	n/a	n/a	n/a
n/a	"image-keyboard-response"	"219"	"319617"	"0.0-6.0-2.0-1.17"	"b1dzdf"	"600"	"1366"	"chrome"	"108.0.0"	"FALSE"	"Windows 10"	"60.17"	"138"	n/a	n/a	n/a	n/a	n/a	n/a	"Trial"	n/a	n/a	n/a	"526"	"arrowup"	n/a	"NULL"	"NULL"	"NULL"	"stimuli/MullerLyer_-2.3000_0.07627.png"	n/a	"MullerLyer"	"arrowup"	"1441"	"TRUE"	"MullerLyer"	"-2.300000000"	"0.0762700000"	"2"	"18"
n/a	"html-keyboard-response"	"220"	"320990"	"0.0-6.0-2.0-0.18"	"b1dzdf"	"600"	"1366"	"chrome"	"108.0.0"	"FALSE"	"Windows 10"	"60.17"	"138"	n/a	n/a	n/a	n/a	n/a	n/a	"fixation"	n/a	n/a	n/a	n/a	"NULL"	n/a	"NULL"	"NULL"	"NULL"	"<p style=\"color: black; font-size: 80px; padding-left: 36%; padding-right: 15%; padding-top: 48%; padding-bottom: 10%\">+</p>"	"1354"	n/a	n/a	n/a	n/a	n/a	n/a	n/a	n/a	n/a
n/a	"image-keyboard-response"	"221"	"321392"	"0.0-6.0-2.0-1.18"	"b1dzdf"	"600"	"1366"	"chrome"	"108.0.0"	"FALSE"	"Windows 10"	"60.17"	"138"	n/a	n/a	n/a	n/a	n/a	n/a	"Trial"	n/a	n/a	n/a	"401"	"arrowup"	n/a	"NULL"	"NULL"	"NULL"	"stimuli/MullerLyer_-14.12857_0.14541.png"	n/a	"MullerLyer"	"arrowup"	"1373"	"TRUE"	"MullerLyer"	"-14.12857000"	"0.1454100000"	"2"	"19"
n/a	"html-keyboard-response"	"222"	"322850"	"0.0-6.0-2.0-0.19"	"b1dzdf"	"600"	"1366"	"chrome"	"108.0.0"	"FALSE"	"Windows 10"	"60.17"	"138"	n/a	n/a	n/a	n/a	n/a	n/a	"fixation"	n/a	n/a	n/a	n/a	"NULL"	n/a	"NULL"	"NULL"	"NULL"	"<p style=\"color: black; font-size: 80px; padding-left: 36%; padding-right: 19%; padding-top: 36%; padding-bottom: 48%\">+</p>"	"1448"	n/a	n/a	n/a	n/a	n/a	n/a	n/a	n/a	n/a
n/a	"image-keyboard-response"	"223"	"323312"	"0.0-6.0-2.0-1.19"	"b1dzdf"	"600"	"1366"	"chrome"	"108.0.0"	"FALSE"	"Windows 10"	"60.17"	"138"	n/a	n/a	n/a	n/a	n/a	n/a	"Trial"	n/a	n/a	n/a	"461"	"arrowdown"	n/a	"NULL"	"NULL"	"NULL"	"stimuli/MullerLyer_-20.04286_-0.23665.png"	n/a	"MullerLyer"	"arrowdown"	"1458"	"TRUE"	"MullerLyer"	"-20.04286000"	"-0.236650000"	"2"	"20"
n/a	"html-keyboard-response"	"224"	"324682"	"0.0-6.0-2.0-0.20"	"b1dzdf"	"600"	"1366"	"chrome"	"108.0.0"	"FALSE"	"Windows 10"	"60.17"	"138"	n/a	n/a	n/a	n/a	n/a	n/a	"fixation"	n/a	n/a	n/a	n/a	"NULL"	n/a	"NULL"	"NULL"	"NULL"	"<p style=\"color: black; font-size: 80px; padding-left: 16%; padding-right: 45%; padding-top: 3%; padding-bottom: 42%\">+</p>"	"1356"	n/a	n/a	n/a	n/a	n/a	n/a	n/a	n/a	n/a
n/a	"image-keyboard-response"	"225"	"324998"	"0.0-6.0-2.0-1.20"	"b1dzdf"	"600"	"1366"	"chrome"	"108.0.0"	"FALSE"	"Windows 10"	"60.17"	"138"	n/a	n/a	n/a	n/a	n/a	n/a	"Trial"	n/a	n/a	n/a	"314"	"arrowup"	n/a	"NULL"	"NULL"	"NULL"	"stimuli/MullerLyer_2.30000_0.35000.png"	n/a	"MullerLyer"	"arrowup"	"1370"	"TRUE"	"MullerLyer"	"2.3000000000"	"0.3500000000"	"2"	"21"
n/a	"html-keyboard-response"	"226"	"326430"	"0.0-6.0-2.0-0.21"	"b1dzdf"	"600"	"1366"	"chrome"	"108.0.0"	"FALSE"	"Windows 10"	"60.17"	"138"	n/a	n/a	n/a	n/a	n/a	n/a	"fixation"	n/a	n/a	n/a	n/a	"NULL"	n/a	"NULL"	"NULL"	"NULL"	"<p style=\"color: black; font-size: 80px; padding-left: 3%; padding-right: 30%; padding-top: 30%; padding-bottom: 33%\">+</p>"	"1413"	n/a	n/a	n/a	n/a	n/a	n/a	n/a	n/a	n/a
n/a	"image-keyboard-response"	"227"	"326765"	"0.0-6.0-2.0-1.21"	"b1dzdf"	"600"	"1366"	"chrome"	"108.0.0"	"FALSE"	"Windows 10"	"60.17"	"138"	n/a	n/a	n/a	n/a	n/a	n/a	"Trial"	n/a	n/a	n/a	"334"	"arrowdown"	n/a	"NULL"	"NULL"	"NULL"	"stimuli/MullerLyer_-14.12857_-0.14541.png"	n/a	"MullerLyer"	"arrowdown"	"1432"	"TRUE"	"MullerLyer"	"-14.12857000"	"-0.145410000"	"2"	"22"
n/a	"html-keyboard-response"	"228"	"327948"	"0.0-6.0-2.0-0.22"	"b1dzdf"	"600"	"1366"	"chrome"	"108.0.0"	"FALSE"	"Windows 10"	"60.17"	"138"	n/a	n/a	n/a	n/a	n/a	n/a	"fixation"	n/a	n/a	n/a	n/a	"NULL"	n/a	"NULL"	"NULL"	"NULL"	"<p style=\"color: black; font-size: 80px; padding-left: 6%; padding-right: 14%; padding-top: 19%; padding-bottom: 43%\">+</p>"	"1174"	n/a	n/a	n/a	n/a	n/a	n/a	n/a	n/a	n/a
n/a	"image-keyboard-response"	"229"	"328306"	"0.0-6.0-2.0-1.22"	"b1dzdf"	"600"	"1366"	"chrome"	"108.0.0"	"FALSE"	"Windows 10"	"60.17"	"138"	n/a	n/a	n/a	n/a	n/a	n/a	"Trial"	n/a	n/a	n/a	"357"	"arrowup"	n/a	"NULL"	"NULL"	"NULL"	"stimuli/MullerLyer_-2.3000_0.14541.png"	n/a	"MullerLyer"	"arrowup"	"1183"	"TRUE"	"MullerLyer"	"-2.300000000"	"0.1454100000"	"2"	"23"
n/a	"html-keyboard-response"	"230"	"329322"	"0.0-6.0-2.0-0.23"	"b1dzdf"	"600"	"1366"	"chrome"	"108.0.0"	"FALSE"	"Windows 10"	"60.17"	"138"	n/a	n/a	n/a	n/a	n/a	n/a	"fixation"	n/a	n/a	n/a	n/a	"NULL"	n/a	"NULL"	"NULL"	"NULL"	"<p style=\"color: black; font-size: 80px; padding-left: 43%; padding-right: 34%; padding-top: 10%; padding-bottom: 40%\">+</p>"	"1011"	n/a	n/a	n/a	n/a	n/a	n/a	n/a	n/a	n/a
n/a	"image-keyboard-response"	"231"	"329717"	"0.0-6.0-2.0-1.23"	"b1dzdf"	"600"	"1366"	"chrome"	"108.0.0"	"FALSE"	"Windows 10"	"60.17"	"138"	n/a	n/a	n/a	n/a	n/a	n/a	"Trial"	n/a	n/a	n/a	"384"	"arrowup"	n/a	"NULL"	"NULL"	"NULL"	"stimuli/MullerLyer_14.12857_-0.07627.png"	n/a	"MullerLyer"	"arrowdown"	"1016"	"FALSE"	"MullerLyer"	"14.128570000"	"-0.076270000"	"2"	"24"
n/a	"html-keyboard-response"	"232"	"331090"	"0.0-6.0-2.0-0.24"	"b1dzdf"	"600"	"1366"	"chrome"	"108.0.0"	"FALSE"	"Windows 10"	"60.17"	"138"	n/a	n/a	n/a	n/a	n/a	n/a	"fixation"	n/a	n/a	n/a	n/a	"NULL"	n/a	"NULL"	"NULL"	"NULL"	"<p style=\"color: black; font-size: 80px; padding-left: 30%; padding-right: 35%; padding-top: 22%; padding-bottom: 36%\">+</p>"	"1353"	n/a	n/a	n/a	n/a	n/a	n/a	n/a	n/a	n/a
n/a	"image-keyboard-response"	"233"	"331629"	"0.0-6.0-2.0-1.24"	"b1dzdf"	"600"	"1366"	"chrome"	"108.0.0"	"FALSE"	"Windows 10"	"60.17"	"138"	n/a	n/a	n/a	n/a	n/a	n/a	"Trial"	n/a	n/a	n/a	"539"	"arrowup"	n/a	"NULL"	"NULL"	"NULL"	"stimuli/MullerLyer_2.30000_-0.07627.png"	n/a	"MullerLyer"	"arrowdown"	"1373"	"FALSE"	"MullerLyer"	"2.3000000000"	"-0.076270000"	"2"	"25"
n/a	"html-keyboard-response"	"234"	"332650"	"0.0-6.0-2.0-0.25"	"b1dzdf"	"600"	"1366"	"chrome"	"108.0.0"	"FALSE"	"Windows 10"	"60.17"	"138"	n/a	n/a	n/a	n/a	n/a	n/a	"fixation"	n/a	n/a	n/a	n/a	"NULL"	n/a	"NULL"	"NULL"	"NULL"	"<p style=\"color: black; font-size: 80px; padding-left: 21%; padding-right: 6%; padding-top: 42%; padding-bottom: 18%\">+</p>"	"1008"	n/a	n/a	n/a	n/a	n/a	n/a	n/a	n/a	n/a
n/a	"image-keyboard-response"	"235"	"333131"	"0.0-6.0-2.0-1.25"	"b1dzdf"	"600"	"1366"	"chrome"	"108.0.0"	"FALSE"	"Windows 10"	"60.17"	"138"	n/a	n/a	n/a	n/a	n/a	n/a	"Trial"	n/a	n/a	n/a	"480"	"arrowdown"	n/a	"NULL"	"NULL"	"NULL"	"stimuli/MullerLyer_14.12857_0.14541.png"	n/a	"MullerLyer"	"arrowup"	"1021"	"FALSE"	"MullerLyer"	"14.128570000"	"0.1454100000"	"2"	"26"
n/a	"html-keyboard-response"	"236"	"334494"	"0.0-6.0-2.0-0.26"	"b1dzdf"	"600"	"1366"	"chrome"	"108.0.0"	"FALSE"	"Windows 10"	"60.17"	"138"	n/a	n/a	n/a	n/a	n/a	n/a	"fixation"	n/a	n/a	n/a	n/a	"NULL"	n/a	"NULL"	"NULL"	"NULL"	"<p style=\"color: black; font-size: 80px; padding-left: 3%; padding-right: 1%; padding-top: 24%; padding-bottom: 22%\">+</p>"	"1353"	n/a	n/a	n/a	n/a	n/a	n/a	n/a	n/a	n/a
n/a	"image-keyboard-response"	"237"	"334871"	"0.0-6.0-2.0-1.26"	"b1dzdf"	"600"	"1366"	"chrome"	"108.0.0"	"FALSE"	"Windows 10"	"60.17"	"138"	n/a	n/a	n/a	n/a	n/a	n/a	"Trial"	n/a	n/a	n/a	"376"	"arrowup"	n/a	"NULL"	"NULL"	"NULL"	"stimuli/MullerLyer_-2.3000_0.35000.png"	n/a	"MullerLyer"	"arrowup"	"1363"	"TRUE"	"MullerLyer"	"-2.300000000"	"0.3500000000"	"2"	"27"
n/a	"html-keyboard-response"	"238"	"336270"	"0.0-6.0-2.0-0.27"	"b1dzdf"	"600"	"1366"	"chrome"	"108.0.0"	"FALSE"	"Windows 10"	"60.17"	"138"	n/a	n/a	n/a	n/a	n/a	n/a	"fixation"	n/a	n/a	n/a	n/a	"NULL"	n/a	"NULL"	"NULL"	"NULL"	"<p style=\"color: black; font-size: 80px; padding-left: 7%; padding-right: 8%; padding-top: 30%; padding-bottom: 50%\">+</p>"	"1378"	n/a	n/a	n/a	n/a	n/a	n/a	n/a	n/a	n/a
n/a	"image-keyboard-response"	"239"	"336682"	"0.0-6.0-2.0-1.27"	"b1dzdf"	"600"	"1366"	"chrome"	"108.0.0"	"FALSE"	"Windows 10"	"60.17"	"138"	n/a	n/a	n/a	n/a	n/a	n/a	"Trial"	n/a	n/a	n/a	"410"	"arrowup"	n/a	"NULL"	"NULL"	"NULL"	"stimuli/MullerLyer_-20.04286_0.23665.png"	n/a	"MullerLyer"	"arrowup"	"1399"	"TRUE"	"MullerLyer"	"-20.04286000"	"0.2366500000"	"2"	"28"
n/a	"html-keyboard-response"	"240"	"337947"	"0.0-6.0-2.0-0.28"	"b1dzdf"	"600"	"1366"	"chrome"	"108.0.0"	"FALSE"	"Windows 10"	"60.17"	"138"	n/a	n/a	n/a	n/a	n/a	n/a	"fixation"	n/a	n/a	n/a	n/a	"NULL"	n/a	"NULL"	"NULL"	"NULL"	"<p style=\"color: black; font-size: 80px; padding-left: 18%; padding-right: 12%; padding-top: 30%; padding-bottom: 6%\">+</p>"	"1247"	n/a	n/a	n/a	n/a	n/a	n/a	n/a	n/a	n/a
n/a	"image-keyboard-response"	"241"	"338389"	"0.0-6.0-2.0-1.28"	"b1dzdf"	"600"	"1366"	"chrome"	"108.0.0"	"FALSE"	"Windows 10"	"60.17"	"138"	n/a	n/a	n/a	n/a	n/a	n/a	"Trial"	n/a	n/a	n/a	"441"	"arrowdown"	n/a	"NULL"	"NULL"	"NULL"	"stimuli/MullerLyer_2.30000_-0.3500.png"	n/a	"MullerLyer"	"arrowdown"	"1265"	"TRUE"	"MullerLyer"	"2.3000000000"	"-0.350000000"	"2"	"29"
n/a	"html-keyboard-response"	"242"	"339548"	"0.0-6.0-2.0-0.29"	"b1dzdf"	"600"	"1366"	"chrome"	"108.0.0"	"FALSE"	"Windows 10"	"60.17"	"138"	n/a	n/a	n/a	n/a	n/a	n/a	"fixation"	n/a	n/a	n/a	n/a	"NULL"	n/a	"NULL"	"NULL"	"NULL"	"<p style=\"color: black; font-size: 80px; padding-left: 20%; padding-right: 33%; padding-top: 5%; padding-bottom: 24%\">+</p>"	"1131"	n/a	n/a	n/a	n/a	n/a	n/a	n/a	n/a	n/a
n/a	"image-keyboard-response"	"243"	"339953"	"0.0-6.0-2.0-1.29"	"b1dzdf"	"600"	"1366"	"chrome"	"108.0.0"	"FALSE"	"Windows 10"	"60.17"	"138"	n/a	n/a	n/a	n/a	n/a	n/a	"Trial"	n/a	n/a	n/a	"403"	"arrowup"	n/a	"NULL"	"NULL"	"NULL"	"stimuli/MullerLyer_8.21429_-0.07627.png"	n/a	"MullerLyer"	"arrowdown"	"1159"	"FALSE"	"MullerLyer"	"8.2142900000"	"-0.076270000"	"2"	"30"
n/a	"html-keyboard-response"	"244"	"341020"	"0.0-6.0-2.0-0.30"	"b1dzdf"	"600"	"1366"	"chrome"	"108.0.0"	"FALSE"	"Windows 10"	"60.17"	"138"	n/a	n/a	n/a	n/a	n/a	n/a	"fixation"	n/a	n/a	n/a	n/a	"NULL"	n/a	"NULL"	"NULL"	"NULL"	"<p style=\"color: black; font-size: 80px; padding-left: 35%; padding-right: 42%; padding-top: 9%; padding-bottom: 14%\">+</p>"	"1055"	n/a	n/a	n/a	n/a	n/a	n/a	n/a	n/a	n/a
n/a	"image-keyboard-response"	"245"	"341630"	"0.0-6.0-2.0-1.30"	"b1dzdf"	"600"	"1366"	"chrome"	"108.0.0"	"FALSE"	"Windows 10"	"60.17"	"138"	n/a	n/a	n/a	n/a	n/a	n/a	"Trial"	n/a	n/a	n/a	"609"	"arrowup"	n/a	"NULL"	"NULL"	"NULL"	"stimuli/MullerLyer_20.04286_0.35000.png"	n/a	"MullerLyer"	"arrowup"	"1067"	"TRUE"	"MullerLyer"	"20.042860000"	"0.3500000000"	"2"	"31"
n/a	"html-keyboard-response"	"246"	"342868"	"0.0-6.0-2.0-0.31"	"b1dzdf"	"600"	"1366"	"chrome"	"108.0.0"	"FALSE"	"Windows 10"	"60.17"	"138"	n/a	n/a	n/a	n/a	n/a	n/a	"fixation"	n/a	n/a	n/a	n/a	"NULL"	n/a	"NULL"	"NULL"	"NULL"	"<p style=\"color: black; font-size: 80px; padding-left: 41%; padding-right: 22%; padding-top: 1%; padding-bottom: 30%\">+</p>"	"1223"	n/a	n/a	n/a	n/a	n/a	n/a	n/a	n/a	n/a
n/a	"image-keyboard-response"	"247"	"343353"	"0.0-6.0-2.0-1.31"	"b1dzdf"	"600"	"1366"	"chrome"	"108.0.0"	"FALSE"	"Windows 10"	"60.17"	"138"	n/a	n/a	n/a	n/a	n/a	n/a	"Trial"	n/a	n/a	n/a	"484"	"arrowup"	n/a	"NULL"	"NULL"	"NULL"	"stimuli/MullerLyer_8.21429_0.35000.png"	n/a	"MullerLyer"	"arrowup"	"1238"	"TRUE"	"MullerLyer"	"8.2142900000"	"0.3500000000"	"2"	"32"
n/a	"html-keyboard-response"	"248"	"344717"	"0.0-6.0-2.0-0.32"	"b1dzdf"	"600"	"1366"	"chrome"	"108.0.0"	"FALSE"	"Windows 10"	"60.17"	"138"	n/a	n/a	n/a	n/a	n/a	n/a	"fixation"	n/a	n/a	n/a	n/a	"NULL"	n/a	"NULL"	"NULL"	"NULL"	"<p style=\"color: black; font-size: 80px; padding-left: 42%; padding-right: 34%; padding-top: 19%; padding-bottom: 43%\">+</p>"	"1349"	n/a	n/a	n/a	n/a	n/a	n/a	n/a	n/a	n/a
n/a	"image-keyboard-response"	"249"	"345185"	"0.0-6.0-2.0-1.32"	"b1dzdf"	"600"	"1366"	"chrome"	"108.0.0"	"FALSE"	"Windows 10"	"60.17"	"138"	n/a	n/a	n/a	n/a	n/a	n/a	"Trial"	n/a	n/a	n/a	"467"	"arrowup"	n/a	"NULL"	"NULL"	"NULL"	"stimuli/MullerLyer_14.12857_0.23665.png"	n/a	"MullerLyer"	"arrowup"	"1364"	"TRUE"	"MullerLyer"	"14.128570000"	"0.2366500000"	"2"	"33"
n/a	"html-keyboard-response"	"250"	"346696"	"0.0-6.0-2.0-0.33"	"b1dzdf"	"600"	"1366"	"chrome"	"108.0.0"	"FALSE"	"Windows 10"	"60.17"	"138"	n/a	n/a	n/a	n/a	n/a	n/a	"fixation"	n/a	n/a	n/a	n/a	"NULL"	n/a	"NULL"	"NULL"	"NULL"	"<p style=\"color: black; font-size: 80px; padding-left: 0%; padding-right: 37%; padding-top: 4%; padding-bottom: 27%\">+</p>"	"1499"	n/a	n/a	n/a	n/a	n/a	n/a	n/a	n/a	n/a
n/a	"image-keyboard-response"	"251"	"347114"	"0.0-6.0-2.0-1.33"	"b1dzdf"	"600"	"1366"	"chrome"	"108.0.0"	"FALSE"	"Windows 10"	"60.17"	"138"	n/a	n/a	n/a	n/a	n/a	n/a	"Trial"	n/a	n/a	n/a	"417"	"arrowup"	n/a	"NULL"	"NULL"	"NULL"	"stimuli/MullerLyer_-20.04286_0.35000.png"	n/a	"MullerLyer"	"arrowup"	"1511"	"TRUE"	"MullerLyer"	"-20.04286000"	"0.3500000000"	"2"	"34"
n/a	"html-keyboard-response"	"252"	"348451"	"0.0-6.0-2.0-0.34"	"b1dzdf"	"600"	"1366"	"chrome"	"108.0.0"	"FALSE"	"Windows 10"	"60.17"	"138"	n/a	n/a	n/a	n/a	n/a	n/a	"fixation"	n/a	n/a	n/a	n/a	"NULL"	n/a	"NULL"	"NULL"	"NULL"	"<p style=\"color: black; font-size: 80px; padding-left: 11%; padding-right: 48%; padding-top: 33%; padding-bottom: 5%\">+</p>"	"1322"	n/a	n/a	n/a	n/a	n/a	n/a	n/a	n/a	n/a
n/a	"image-keyboard-response"	"253"	"349009"	"0.0-6.0-2.0-1.34"	"b1dzdf"	"600"	"1366"	"chrome"	"108.0.0"	"FALSE"	"Windows 10"	"60.17"	"138"	n/a	n/a	n/a	n/a	n/a	n/a	"Trial"	n/a	n/a	n/a	"556"	"arrowup"	n/a	"NULL"	"NULL"	"NULL"	"stimuli/MullerLyer_20.04286_-0.07627.png"	n/a	"MullerLyer"	"arrowdown"	"1337"	"FALSE"	"MullerLyer"	"20.042860000"	"-0.076270000"	"2"	"35"
