"success"	"trial_type"	"trial_index"	"time_elapsed"	"internal_node_id"	"participant_id"	"screen_height"	"screen_width"	"browser"	"browser_version"	"mobile"	"os"	"vsync_rate"	"subject_id"	"width"	"height"	"webaudio"	"fullscreen"	"webcam"	"microphone"	"screen"	"version"	"date"	"time"	"rt"	"response"	"timeout"	"failed_images"	"failed_audio"	"failed_video"	"stimulus"	"trial_duration"	"block"	"correct_response"	"prestimulus_duration"	"correct"	"type"	"illusion_strength"	"illusion_difference"	"block_number"	"trial_number"
"TRUE"	"fullscreen"	"0"	"1827"	"0.0-0.0"	"7w9unt"	"600"	"1366"	"chrome"	"108.0.0"	"FALSE"	"Windows 10"	"60.88"	"130"	n/a	n/a	n/a	n/a	n/a	n/a	n/a	n/a	n/a	n/a	n/a	"NULL"	n/a	"NULL"	"NULL"	"NULL"	n/a	n/a	n/a	n/a	n/a	n/a	n/a	n/a	n/a	n/a	n/a
n/a	"browser-check"	"1"	"2829"	"0.0-1.0"	"7w9unt"	"600"	"1366"	"chrome"	"108.0.0"	"FALSE"	"Windows 10"	"60.88"	"130"	"1366"	"600"	"TRUE"	"TRUE"	"TRUE"	"TRUE"	"browser_info"	"1.0"	"05/01/2023"	"15:07:02"	n/a	"NULL"	n/a	"NULL"	"NULL"	"NULL"	n/a	n/a	n/a	n/a	n/a	n/a	n/a	n/a	n/a	n/a	n/a
n/a	"survey-text"	"2"	"12076"	"0.0-2.0"	"7w9unt"	"600"	"1366"	"chrome"	"108.0.0"	"FALSE"	"Windows 10"	"60.88"	"130"	n/a	n/a	n/a	n/a	n/a	n/a	"subject_id"	n/a	n/a	n/a	"9245"	"list(subject_id = \"130\")"	n/a	"NULL"	"NULL"	"NULL"	n/a	n/a	n/a	n/a	n/a	n/a	n/a	n/a	n/a	n/a	n/a
"TRUE"	"preload"	"3"	"12083"	"0.0-3.0"	"7w9unt"	"600"	"1366"	"chrome"	"108.0.0"	"FALSE"	"Windows 10"	"60.88"	"130"	n/a	n/a	n/a	n/a	n/a	n/a	n/a	n/a	n/a	n/a	n/a	"NULL"	"FALSE"	"list()"	"list()"	"list()"	n/a	n/a	n/a	n/a	n/a	n/a	n/a	n/a	n/a	n/a	n/a
n/a	"html-button-response"	"4"	"13384"	"0.0-4.0-0.0"	"7w9unt"	"600"	"1366"	"chrome"	"108.0.0"	"FALSE"	"Windows 10"	"60.88"	"130"	n/a	n/a	n/a	n/a	n/a	n/a	"illusion_instructions"	n/a	n/a	n/a	"1300"	"0"	n/a	"NULL"	"NULL"	"NULL"	"<p><b>Illusion Game</b></p><p>In this game of speed and reflex, you will need to make <b>visual judgments</b> (for instance, which circle is the biggest, or which line is the longest), as fast and as correctly as possible, while <b>resisting different visual illusions</b>.</p><p>We are going to start with some examples of all the illusions you will encounter in the game.</p>"	n/a	n/a	n/a	n/a	n/a	n/a	n/a	n/a	n/a	n/a
"TRUE"	"preload"	"5"	"13394"	"0.0-4.0-1.0-0.0"	"7w9unt"	"600"	"1366"	"chrome"	"108.0.0"	"FALSE"	"Windows 10"	"60.88"	"130"	n/a	n/a	n/a	n/a	n/a	n/a	n/a	n/a	n/a	n/a	n/a	"NULL"	"FALSE"	"list()"	"list()"	"list()"	n/a	n/a	n/a	n/a	n/a	n/a	n/a	n/a	n/a	n/a	n/a
n/a	"html-keyboard-response"	"6"	"21326"	"0.0-4.0-1.0-1.0"	"7w9unt"	"600"	"1366"	"chrome"	"108.0.0"	"FALSE"	"Windows 10"	"60.88"	"130"	n/a	n/a	n/a	n/a	n/a	n/a	n/a	n/a	n/a	n/a	"7931"	"enter"	n/a	"NULL"	"NULL"	"NULL"	"<p><b>Practice</b></p><p>In this part, two red circles will appear side by side on the screen.</p><p>Your task is to select which <b>red circle is bigger</b> in size as fast as you can, without making errors.</p><p>Don't get distracted by the surrounding black circles around the red circles!</p><p>Press <b>the LEFT or the RIGHT arrow</b> to indicate which is the bigger <b>red circle.</b></p><div style='float: center'><img src='materials/instructions/Ebbinghaus_Demo.png' height='300'></img><p><img src='utils/answer/answer_leftright_keyboard.PNG' height='150'></img></p><p class='small'>In this example, the correct answer is the <b>LEFT arrow</b>.</p></div><p>Are you ready? <b>Press ENTER to start</b></p>"	n/a	n/a	n/a	n/a	n/a	n/a	n/a	n/a	n/a	n/a
n/a	"html-keyboard-response"	"7"	"23253"	"0.0-4.0-1.0-2.0-0.0"	"7w9unt"	"600"	"1366"	"chrome"	"108.0.0"	"FALSE"	"Windows 10"	"60.88"	"130"	n/a	n/a	n/a	n/a	n/a	n/a	"fixation"	n/a	n/a	n/a	n/a	"NULL"	n/a	"NULL"	"NULL"	"NULL"	"<p style=\"color: black; font-size: 80px; padding-left: 3%; padding-right: 44%; padding-top: 3%; padding-bottom: 1%\">+</p>"	"1411"	n/a	n/a	n/a	n/a	n/a	n/a	n/a	n/a	n/a
n/a	"image-keyboard-response"	"8"	"23764"	"0.0-4.0-1.0-2.0-1.0"	"7w9unt"	"600"	"1366"	"chrome"	"108.0.0"	"FALSE"	"Windows 10"	"60.88"	"130"	n/a	n/a	n/a	n/a	n/a	n/a	"Trial"	n/a	n/a	n/a	"509"	"arrowright"	n/a	"NULL"	"NULL"	"NULL"	"stimuli/Ebbinghaus_1000000_1.40000.png"	n/a	"Ebbinghaus"	"arrowleft"	"1927"	"FALSE"	"Ebbinghaus"	"100000000000"	"1.4000000000"	"1"	"1"
n/a	"html-keyboard-response"	"9"	"25153"	"0.0-4.0-1.0-2.0-0.1"	"7w9unt"	"600"	"1366"	"chrome"	"108.0.0"	"FALSE"	"Windows 10"	"60.88"	"130"	n/a	n/a	n/a	n/a	n/a	n/a	"fixation"	n/a	n/a	n/a	n/a	"NULL"	n/a	"NULL"	"NULL"	"NULL"	"<p style=\"color: black; font-size: 80px; padding-left: 29%; padding-right: 46%; padding-top: 26%; padding-bottom: 12%\">+</p>"	"1383"	n/a	n/a	n/a	n/a	n/a	n/a	n/a	n/a	n/a
n/a	"image-keyboard-response"	"10"	"25257"	"0.0-4.0-1.0-2.0-1.1"	"7w9unt"	"600"	"1366"	"chrome"	"108.0.0"	"FALSE"	"Windows 10"	"60.88"	"130"	n/a	n/a	n/a	n/a	n/a	n/a	"Trial"	n/a	n/a	n/a	"102"	"arrowright"	n/a	"NULL"	"NULL"	"NULL"	"stimuli/Ebbinghaus_-100000_-1.4000.png"	n/a	"Ebbinghaus"	"arrowright"	"1389"	"TRUE"	"Ebbinghaus"	"-10000000000"	"-1.400000000"	"1"	"2"
n/a	"html-keyboard-response"	"11"	"26645"	"0.0-4.0-1.0-2.0-0.2"	"7w9unt"	"600"	"1366"	"chrome"	"108.0.0"	"FALSE"	"Windows 10"	"60.88"	"130"	n/a	n/a	n/a	n/a	n/a	n/a	"fixation"	n/a	n/a	n/a	n/a	"NULL"	n/a	"NULL"	"NULL"	"NULL"	"<p style=\"color: black; font-size: 80px; padding-left: 32%; padding-right: 48%; padding-top: 19%; padding-bottom: 19%\">+</p>"	"1367"	n/a	n/a	n/a	n/a	n/a	n/a	n/a	n/a	n/a
n/a	"image-keyboard-response"	"12"	"26726"	"0.0-4.0-1.0-2.0-1.2"	"7w9unt"	"600"	"1366"	"chrome"	"108.0.0"	"FALSE"	"Windows 10"	"60.88"	"130"	n/a	n/a	n/a	n/a	n/a	n/a	"Trial"	n/a	n/a	n/a	"80"	"arrowright"	n/a	"NULL"	"NULL"	"NULL"	"stimuli/Ebbinghaus_0000000_1.40000.png"	n/a	"Ebbinghaus"	"arrowleft"	"1388"	"FALSE"	"Ebbinghaus"	"000000000000"	"1.4000000000"	"1"	"3"
n/a	"html-keyboard-response"	"13"	"28218"	"0.0-4.0-1.0-2.0-0.3"	"7w9unt"	"600"	"1366"	"chrome"	"108.0.0"	"FALSE"	"Windows 10"	"60.88"	"130"	n/a	n/a	n/a	n/a	n/a	n/a	"fixation"	n/a	n/a	n/a	n/a	"NULL"	n/a	"NULL"	"NULL"	"NULL"	"<p style=\"color: black; font-size: 80px; padding-left: 3%; padding-right: 19%; padding-top: 22%; padding-bottom: 17%\">+</p>"	"1481"	n/a	n/a	n/a	n/a	n/a	n/a	n/a	n/a	n/a
n/a	"image-keyboard-response"	"14"	"28407"	"0.0-4.0-1.0-2.0-1.3"	"7w9unt"	"600"	"1366"	"chrome"	"108.0.0"	"FALSE"	"Windows 10"	"60.88"	"130"	n/a	n/a	n/a	n/a	n/a	n/a	"Trial"	n/a	n/a	n/a	"188"	"arrowright"	n/a	"NULL"	"NULL"	"NULL"	"stimuli/Ebbinghaus_-100000_1.40000.png"	n/a	"Ebbinghaus"	"arrowleft"	"1492"	"FALSE"	"Ebbinghaus"	"-10000000000"	"1.4000000000"	"1"	"4"
n/a	"html-keyboard-response"	"15"	"29598"	"0.0-4.0-1.0-2.0-0.4"	"7w9unt"	"600"	"1366"	"chrome"	"108.0.0"	"FALSE"	"Windows 10"	"60.88"	"130"	n/a	n/a	n/a	n/a	n/a	n/a	"fixation"	n/a	n/a	n/a	n/a	"NULL"	n/a	"NULL"	"NULL"	"NULL"	"<p style=\"color: black; font-size: 80px; padding-left: 32%; padding-right: 20%; padding-top: 26%; padding-bottom: 36%\">+</p>"	"1181"	n/a	n/a	n/a	n/a	n/a	n/a	n/a	n/a	n/a
n/a	"image-keyboard-response"	"16"	"29749"	"0.0-4.0-1.0-2.0-1.4"	"7w9unt"	"600"	"1366"	"chrome"	"108.0.0"	"FALSE"	"Windows 10"	"60.88"	"130"	n/a	n/a	n/a	n/a	n/a	n/a	"Trial"	n/a	n/a	n/a	"149"	"arrowright"	n/a	"NULL"	"NULL"	"NULL"	"stimuli/Ebbinghaus_1000000_-1.4000.png"	n/a	"Ebbinghaus"	"arrowright"	"1191"	"TRUE"	"Ebbinghaus"	"100000000000"	"-1.400000000"	"1"	"5"
n/a	"html-keyboard-response"	"17"	"31212"	"0.0-4.0-1.0-2.0-0.5"	"7w9unt"	"600"	"1366"	"chrome"	"108.0.0"	"FALSE"	"Windows 10"	"60.88"	"130"	n/a	n/a	n/a	n/a	n/a	n/a	"fixation"	n/a	n/a	n/a	n/a	"NULL"	n/a	"NULL"	"NULL"	"NULL"	"<p style=\"color: black; font-size: 80px; padding-left: 31%; padding-right: 10%; padding-top: 2%; padding-bottom: 36%\">+</p>"	"1455"	n/a	n/a	n/a	n/a	n/a	n/a	n/a	n/a	n/a
n/a	"image-keyboard-response"	"18"	"31361"	"0.0-4.0-1.0-2.0-1.5"	"7w9unt"	"600"	"1366"	"chrome"	"108.0.0"	"FALSE"	"Windows 10"	"60.88"	"130"	n/a	n/a	n/a	n/a	n/a	n/a	"Trial"	n/a	n/a	n/a	"148"	"arrowright"	n/a	"NULL"	"NULL"	"NULL"	"stimuli/Ebbinghaus_0000000_-1.4000.png"	n/a	"Ebbinghaus"	"arrowright"	"1463"	"TRUE"	"Ebbinghaus"	"000000000000"	"-1.400000000"	"1"	"6"
n/a	"html-button-response"	"19"	"34375"	"0.0-4.0-1.0-3.0"	"7w9unt"	"600"	"1366"	"chrome"	"108.0.0"	"FALSE"	"Windows 10"	"60.88"	"130"	n/a	n/a	n/a	n/a	n/a	n/a	"practice_block_results"	n/a	n/a	n/a	"3011"	"0"	n/a	"NULL"	"NULL"	"NULL"	"<p style='color:rgb(76,175,80);'> Correct Responses: <b>50.00%</b></p><hr><p style='color:rgb(233,30,99);'> Average Response Time: <b>196.00</b> ms.</p>"	n/a	n/a	n/a	n/a	n/a	n/a	n/a	n/a	n/a	n/a
"TRUE"	"preload"	"20"	"34901"	"0.0-4.0-2.0-0.0"	"7w9unt"	"600"	"1366"	"chrome"	"108.0.0"	"FALSE"	"Windows 10"	"60.88"	"130"	n/a	n/a	n/a	n/a	n/a	n/a	n/a	n/a	n/a	n/a	n/a	"NULL"	"FALSE"	"list()"	"list()"	"list()"	n/a	n/a	n/a	n/a	n/a	n/a	n/a	n/a	n/a	n/a	n/a
n/a	"html-keyboard-response"	"21"	"36128"	"0.0-4.0-2.0-1.0"	"7w9unt"	"600"	"1366"	"chrome"	"108.0.0"	"FALSE"	"Windows 10"	"60.88"	"130"	n/a	n/a	n/a	n/a	n/a	n/a	n/a	n/a	n/a	n/a	"1226"	"enter"	n/a	"NULL"	"NULL"	"NULL"	"<p><b>Practice</b></p><p>In this part, two horizontal red lines will appear one above the other.</p><p>Your task is to select which <b>line is longer</b> in length as fast as you can, without making errors.</p><p>Don't get distracted by the surrounding black arrows at the end of the red lines!</p><p>Press <b>the UP or the DOWN arrow</b> to indicate where is the longer <b>red line.</b></p><div style='float: center'><img src='materials/instructions/MullerLyer_Demo.png' height='300'></img><p><img src='utils/answer/answer_updown_keyboard.PNG' height='150'></img></p><p class='small'>In this example, the correct answer is the <b>UP arrow</b>.</p></div><p>Are you ready? <b>Press ENTER to start</b></p>"	n/a	n/a	n/a	n/a	n/a	n/a	n/a	n/a	n/a	n/a
n/a	"html-keyboard-response"	"22"	"38081"	"0.0-4.0-2.0-2.0-0.0"	"7w9unt"	"600"	"1366"	"chrome"	"108.0.0"	"FALSE"	"Windows 10"	"60.88"	"130"	n/a	n/a	n/a	n/a	n/a	n/a	"fixation"	n/a	n/a	n/a	n/a	"NULL"	n/a	"NULL"	"NULL"	"NULL"	"<p style=\"color: black; font-size: 80px; padding-left: 24%; padding-right: 27%; padding-top: 3%; padding-bottom: 23%\">+</p>"	"1428"	n/a	n/a	n/a	n/a	n/a	n/a	n/a	n/a	n/a
n/a	"image-keyboard-response"	"23"	"39143"	"0.0-4.0-2.0-2.0-1.0"	"7w9unt"	"600"	"1366"	"chrome"	"108.0.0"	"FALSE"	"Windows 10"	"60.88"	"130"	n/a	n/a	n/a	n/a	n/a	n/a	"Trial"	n/a	n/a	n/a	"1061"	"arrowdown"	n/a	"NULL"	"NULL"	"NULL"	"stimuli/MullerLyer_-230000_-0.7000.png"	n/a	"MullerLyer"	"arrowdown"	"1953"	"TRUE"	"MullerLyer"	"-23000000000"	"-0.700000000"	"1"	"7"
n/a	"html-keyboard-response"	"24"	"40284"	"0.0-4.0-2.0-2.0-0.1"	"7w9unt"	"600"	"1366"	"chrome"	"108.0.0"	"FALSE"	"Windows 10"	"60.88"	"130"	n/a	n/a	n/a	n/a	n/a	n/a	"fixation"	n/a	n/a	n/a	n/a	"NULL"	n/a	"NULL"	"NULL"	"NULL"	"<p style=\"color: black; font-size: 80px; padding-left: 36%; padding-right: 2%; padding-top: 35%; padding-bottom: 32%\">+</p>"	"1121"	n/a	n/a	n/a	n/a	n/a	n/a	n/a	n/a	n/a
n/a	"image-keyboard-response"	"25"	"40409"	"0.0-4.0-2.0-2.0-1.1"	"7w9unt"	"600"	"1366"	"chrome"	"108.0.0"	"FALSE"	"Windows 10"	"60.88"	"130"	n/a	n/a	n/a	n/a	n/a	n/a	"Trial"	n/a	n/a	n/a	"122"	"arrowdown"	n/a	"NULL"	"NULL"	"NULL"	"stimuli/MullerLyer_-230000_0.70000.png"	n/a	"MullerLyer"	"arrowup"	"1141"	"FALSE"	"MullerLyer"	"-23000000000"	"0.7000000000"	"1"	"8"
n/a	"html-keyboard-response"	"26"	"41634"	"0.0-4.0-2.0-2.0-0.2"	"7w9unt"	"600"	"1366"	"chrome"	"108.0.0"	"FALSE"	"Windows 10"	"60.88"	"130"	n/a	n/a	n/a	n/a	n/a	n/a	"fixation"	n/a	n/a	n/a	n/a	"NULL"	n/a	"NULL"	"NULL"	"NULL"	"<p style=\"color: black; font-size: 80px; padding-left: 23%; padding-right: 43%; padding-top: 13%; padding-bottom: 7%\">+</p>"	"1220"	n/a	n/a	n/a	n/a	n/a	n/a	n/a	n/a	n/a
n/a	"image-keyboard-response"	"27"	"41703"	"0.0-4.0-2.0-2.0-1.2"	"7w9unt"	"600"	"1366"	"chrome"	"108.0.0"	"FALSE"	"Windows 10"	"60.88"	"130"	n/a	n/a	n/a	n/a	n/a	n/a	"Trial"	n/a	n/a	n/a	"68"	"arrowdown"	n/a	"NULL"	"NULL"	"NULL"	"stimuli/MullerLyer_2300000_-0.7000.png"	n/a	"MullerLyer"	"arrowdown"	"1225"	"TRUE"	"MullerLyer"	"230000000000"	"-0.700000000"	"1"	"9"
n/a	"html-keyboard-response"	"28"	"42768"	"0.0-4.0-2.0-2.0-0.3"	"7w9unt"	"600"	"1366"	"chrome"	"108.0.0"	"FALSE"	"Windows 10"	"60.88"	"130"	n/a	n/a	n/a	n/a	n/a	n/a	"fixation"	n/a	n/a	n/a	n/a	"NULL"	n/a	"NULL"	"NULL"	"NULL"	"<p style=\"color: black; font-size: 80px; padding-left: 12%; padding-right: 6%; padding-top: 41%; padding-bottom: 47%\">+</p>"	"1054"	n/a	n/a	n/a	n/a	n/a	n/a	n/a	n/a	n/a
n/a	"image-keyboard-response"	"29"	"42880"	"0.0-4.0-2.0-2.0-1.3"	"7w9unt"	"600"	"1366"	"chrome"	"108.0.0"	"FALSE"	"Windows 10"	"60.88"	"130"	n/a	n/a	n/a	n/a	n/a	n/a	"Trial"	n/a	n/a	n/a	"112"	"arrowdown"	n/a	"NULL"	"NULL"	"NULL"	"stimuli/MullerLyer_0000000_0.70000.png"	n/a	"MullerLyer"	"arrowup"	"1065"	"FALSE"	"MullerLyer"	"000000000000"	"0.7000000000"	"1"	"10"
n/a	"html-keyboard-response"	"30"	"44000"	"0.0-4.0-2.0-2.0-0.4"	"7w9unt"	"600"	"1366"	"chrome"	"108.0.0"	"FALSE"	"Windows 10"	"60.88"	"130"	n/a	n/a	n/a	n/a	n/a	n/a	"fixation"	n/a	n/a	n/a	n/a	"NULL"	n/a	"NULL"	"NULL"	"NULL"	"<p style=\"color: black; font-size: 80px; padding-left: 22%; padding-right: 6%; padding-top: 25%; padding-bottom: 1%\">+</p>"	"1118"	n/a	n/a	n/a	n/a	n/a	n/a	n/a	n/a	n/a
n/a	"image-keyboard-response"	"31"	"44118"	"0.0-4.0-2.0-2.0-1.4"	"7w9unt"	"600"	"1366"	"chrome"	"108.0.0"	"FALSE"	"Windows 10"	"60.88"	"130"	n/a	n/a	n/a	n/a	n/a	n/a	"Trial"	n/a	n/a	n/a	"117"	"arrowdown"	n/a	"NULL"	"NULL"	"NULL"	"stimuli/MullerLyer_0000000_-0.7000.png"	n/a	"MullerLyer"	"arrowdown"	"1120"	"TRUE"	"MullerLyer"	"000000000000"	"-0.700000000"	"1"	"11"
n/a	"html-keyboard-response"	"32"	"45497"	"0.0-4.0-2.0-2.0-0.5"	"7w9unt"	"600"	"1366"	"chrome"	"108.0.0"	"FALSE"	"Windows 10"	"60.88"	"130"	n/a	n/a	n/a	n/a	n/a	n/a	"fixation"	n/a	n/a	n/a	n/a	"NULL"	n/a	"NULL"	"NULL"	"NULL"	"<p style=\"color: black; font-size: 80px; padding-left: 23%; padding-right: 36%; padding-top: 35%; padding-bottom: 39%\">+</p>"	"1360"	n/a	n/a	n/a	n/a	n/a	n/a	n/a	n/a	n/a
n/a	"image-keyboard-response"	"33"	"45799"	"0.0-4.0-2.0-2.0-1.5"	"7w9unt"	"600"	"1366"	"chrome"	"108.0.0"	"FALSE"	"Windows 10"	"60.88"	"130"	n/a	n/a	n/a	n/a	n/a	n/a	"Trial"	n/a	n/a	n/a	"300"	"arrowdown"	n/a	"NULL"	"NULL"	"NULL"	"stimuli/MullerLyer_2300000_0.70000.png"	n/a	"MullerLyer"	"arrowup"	"1379"	"FALSE"	"MullerLyer"	"230000000000"	"0.7000000000"	"1"	"12"
n/a	"html-button-response"	"34"	"47096"	"0.0-4.0-2.0-3.0"	"7w9unt"	"600"	"1366"	"chrome"	"108.0.0"	"FALSE"	"Windows 10"	"60.88"	"130"	n/a	n/a	n/a	n/a	n/a	n/a	"practice_block_results"	n/a	n/a	n/a	"1295"	"0"	n/a	"NULL"	"NULL"	"NULL"	"<p style='color:rgb(76,175,80);'> Correct Responses: <b>50.00%</b></p><hr><p style='color:rgb(233,30,99);'> Average Response Time: <b>296.67</b> ms.</p>"	n/a	n/a	n/a	n/a	n/a	n/a	n/a	n/a	n/a	n/a
"TRUE"	"preload"	"35"	"47620"	"0.0-4.0-3.0-0.0"	"7w9unt"	"600"	"1366"	"chrome"	"108.0.0"	"FALSE"	"Windows 10"	"60.88"	"130"	n/a	n/a	n/a	n/a	n/a	n/a	n/a	n/a	n/a	n/a	n/a	"NULL"	"FALSE"	"list()"	"list()"	"list()"	n/a	n/a	n/a	n/a	n/a	n/a	n/a	n/a	n/a	n/a	n/a
n/a	"html-keyboard-response"	"36"	"48692"	"0.0-4.0-3.0-1.0"	"7w9unt"	"600"	"1366"	"chrome"	"108.0.0"	"FALSE"	"Windows 10"	"60.88"	"130"	n/a	n/a	n/a	n/a	n/a	n/a	n/a	n/a	n/a	n/a	"1070"	"enter"	n/a	"NULL"	"NULL"	"NULL"	"<p><b>Practice</b></p><p>In this part, two red lines will appear side by side.</p><p>Your task is to tell <b>which line is longer</b> in length, regardless of their orientation, as fast as you can, and without making errors.</p><p>Don't get distracted by the orientation of the lines!</p><p>Press <b>the LEFT or the RIGHT arrow</b> to indicate which <b>line is the longer one.</b></p><div style='float: center'><img src='materials/instructions/VerticalHorizontal_Demo.png' height='300'></img><p><img src='utils/answer/answer_leftright_keyboard.PNG' height='150'></img></p><p class='small'>In this example, the correct answer is the <b>LEFT arrow</b>.</p></div><p>Are you ready? <b>Press ENTER to start</b></p>"	n/a	n/a	n/a	n/a	n/a	n/a	n/a	n/a	n/a	n/a
n/a	"html-keyboard-response"	"37"	"50473"	"0.0-4.0-3.0-2.0-0.0"	"7w9unt"	"600"	"1366"	"chrome"	"108.0.0"	"FALSE"	"Windows 10"	"60.88"	"130"	n/a	n/a	n/a	n/a	n/a	n/a	"fixation"	n/a	n/a	n/a	n/a	"NULL"	n/a	"NULL"	"NULL"	"NULL"	"<p style=\"color: black; font-size: 80px; padding-left: 17%; padding-right: 45%; padding-top: 44%; padding-bottom: 16%\">+</p>"	"1260"	n/a	n/a	n/a	n/a	n/a	n/a	n/a	n/a	n/a
n/a	"image-keyboard-response"	"38"	"50548"	"0.0-4.0-3.0-2.0-1.0"	"7w9unt"	"600"	"1366"	"chrome"	"108.0.0"	"FALSE"	"Windows 10"	"60.88"	"130"	n/a	n/a	n/a	n/a	n/a	n/a	"Trial"	n/a	n/a	n/a	"74"	"arrowright"	n/a	"NULL"	"NULL"	"NULL"	"stimuli/VerticalHorizontal_3300000_-0.9000.png"	n/a	"VerticalHorizontal"	"arrowright"	"1781"	"TRUE"	"VerticalHorizontal"	"330000000000"	"-0.900000000"	"1"	"13"
n/a	"html-keyboard-response"	"39"	"51857"	"0.0-4.0-3.0-2.0-0.1"	"7w9unt"	"600"	"1366"	"chrome"	"108.0.0"	"FALSE"	"Windows 10"	"60.88"	"130"	n/a	n/a	n/a	n/a	n/a	n/a	"fixation"	n/a	n/a	n/a	n/a	"NULL"	n/a	"NULL"	"NULL"	"NULL"	"<p style=\"color: black; font-size: 80px; padding-left: 48%; padding-right: 42%; padding-top: 42%; padding-bottom: 3%\">+</p>"	"1296"	n/a	n/a	n/a	n/a	n/a	n/a	n/a	n/a	n/a
n/a	"image-keyboard-response"	"40"	"52242"	"0.0-4.0-3.0-2.0-1.1"	"7w9unt"	"600"	"1366"	"chrome"	"108.0.0"	"FALSE"	"Windows 10"	"60.88"	"130"	n/a	n/a	n/a	n/a	n/a	n/a	"Trial"	n/a	n/a	n/a	"384"	"arrowright"	n/a	"NULL"	"NULL"	"NULL"	"stimuli/VerticalHorizontal_3300000_0.90000.png"	n/a	"VerticalHorizontal"	"arrowleft"	"1309"	"FALSE"	"VerticalHorizontal"	"330000000000"	"0.9000000000"	"1"	"14"
n/a	"html-keyboard-response"	"41"	"53598"	"0.0-4.0-3.0-2.0-0.2"	"7w9unt"	"600"	"1366"	"chrome"	"108.0.0"	"FALSE"	"Windows 10"	"60.88"	"130"	n/a	n/a	n/a	n/a	n/a	n/a	"fixation"	n/a	n/a	n/a	n/a	"NULL"	n/a	"NULL"	"NULL"	"NULL"	"<p style=\"color: black; font-size: 80px; padding-left: 41%; padding-right: 4%; padding-top: 12%; padding-bottom: 13%\">+</p>"	"1337"	n/a	n/a	n/a	n/a	n/a	n/a	n/a	n/a	n/a
n/a	"image-keyboard-response"	"42"	"53687"	"0.0-4.0-3.0-2.0-1.2"	"7w9unt"	"600"	"1366"	"chrome"	"108.0.0"	"FALSE"	"Windows 10"	"60.88"	"130"	n/a	n/a	n/a	n/a	n/a	n/a	"Trial"	n/a	n/a	n/a	"87"	"arrowright"	n/a	"NULL"	"NULL"	"NULL"	"stimuli/VerticalHorizontal_0000000_-0.9000.png"	n/a	"VerticalHorizontal"	"arrowright"	"1356"	"TRUE"	"VerticalHorizontal"	"000000000000"	"-0.900000000"	"1"	"15"
n/a	"html-keyboard-response"	"43"	"55169"	"0.0-4.0-3.0-2.0-0.3"	"7w9unt"	"600"	"1366"	"chrome"	"108.0.0"	"FALSE"	"Windows 10"	"60.88"	"130"	n/a	n/a	n/a	n/a	n/a	n/a	"fixation"	n/a	n/a	n/a	n/a	"NULL"	n/a	"NULL"	"NULL"	"NULL"	"<p style=\"color: black; font-size: 80px; padding-left: 33%; padding-right: 11%; padding-top: 42%; padding-bottom: 40%\">+</p>"	"1464"	n/a	n/a	n/a	n/a	n/a	n/a	n/a	n/a	n/a
n/a	"image-keyboard-response"	"44"	"55371"	"0.0-4.0-3.0-2.0-1.3"	"7w9unt"	"600"	"1366"	"chrome"	"108.0.0"	"FALSE"	"Windows 10"	"60.88"	"130"	n/a	n/a	n/a	n/a	n/a	n/a	"Trial"	n/a	n/a	n/a	"201"	"arrowright"	n/a	"NULL"	"NULL"	"NULL"	"stimuli/VerticalHorizontal_-330000_0.90000.png"	n/a	"VerticalHorizontal"	"arrowleft"	"1482"	"FALSE"	"VerticalHorizontal"	"-33000000000"	"0.9000000000"	"1"	"16"
n/a	"html-keyboard-response"	"45"	"56557"	"0.0-4.0-3.0-2.0-0.4"	"7w9unt"	"600"	"1366"	"chrome"	"108.0.0"	"FALSE"	"Windows 10"	"60.88"	"130"	n/a	n/a	n/a	n/a	n/a	n/a	"fixation"	n/a	n/a	n/a	n/a	"NULL"	n/a	"NULL"	"NULL"	"NULL"	"<p style=\"color: black; font-size: 80px; padding-left: 41%; padding-right: 37%; padding-top: 38%; padding-bottom: 43%\">+</p>"	"1178"	n/a	n/a	n/a	n/a	n/a	n/a	n/a	n/a	n/a
n/a	"image-keyboard-response"	"46"	"56859"	"0.0-4.0-3.0-2.0-1.4"	"7w9unt"	"600"	"1366"	"chrome"	"108.0.0"	"FALSE"	"Windows 10"	"60.88"	"130"	n/a	n/a	n/a	n/a	n/a	n/a	"Trial"	n/a	n/a	n/a	"301"	"arrowright"	n/a	"NULL"	"NULL"	"NULL"	"stimuli/VerticalHorizontal_0000000_0.90000.png"	n/a	"VerticalHorizontal"	"arrowleft"	"1186"	"FALSE"	"VerticalHorizontal"	"000000000000"	"0.9000000000"	"1"	"17"
n/a	"html-keyboard-response"	"47"	"58329"	"0.0-4.0-3.0-2.0-0.5"	"7w9unt"	"600"	"1366"	"chrome"	"108.0.0"	"FALSE"	"Windows 10"	"60.88"	"130"	n/a	n/a	n/a	n/a	n/a	n/a	"fixation"	n/a	n/a	n/a	n/a	"NULL"	n/a	"NULL"	"NULL"	"NULL"	"<p style=\"color: black; font-size: 80px; padding-left: 49%; padding-right: 23%; padding-top: 22%; padding-bottom: 15%\">+</p>"	"1463"	n/a	n/a	n/a	n/a	n/a	n/a	n/a	n/a	n/a
n/a	"image-keyboard-response"	"48"	"58646"	"0.0-4.0-3.0-2.0-1.5"	"7w9unt"	"600"	"1366"	"chrome"	"108.0.0"	"FALSE"	"Windows 10"	"60.88"	"130"	n/a	n/a	n/a	n/a	n/a	n/a	"Trial"	n/a	n/a	n/a	"316"	"arrowright"	n/a	"NULL"	"NULL"	"NULL"	"stimuli/VerticalHorizontal_-330000_-0.9000.png"	n/a	"VerticalHorizontal"	"arrowright"	"1470"	"TRUE"	"VerticalHorizontal"	"-33000000000"	"-0.900000000"	"1"	"18"
n/a	"html-button-response"	"49"	"60108"	"0.0-4.0-3.0-3.0"	"7w9unt"	"600"	"1366"	"chrome"	"108.0.0"	"FALSE"	"Windows 10"	"60.88"	"130"	n/a	n/a	n/a	n/a	n/a	n/a	"practice_block_results"	n/a	n/a	n/a	"1460"	"0"	n/a	"NULL"	"NULL"	"NULL"	"<p style='color:rgb(76,175,80);'> Correct Responses: <b>50.00%</b></p><hr><p style='color:rgb(233,30,99);'> Average Response Time: <b>227.17</b> ms.</p>"	n/a	n/a	n/a	n/a	n/a	n/a	n/a	n/a	n/a	n/a
n/a	"html-button-response"	"50"	"128058"	"0.0-4.0-4.0"	"7w9unt"	"600"	"1366"	"chrome"	"108.0.0"	"FALSE"	"Windows 10"	"60.88"	"130"	n/a	n/a	n/a	n/a	n/a	n/a	"practice_debrief"	n/a	n/a	n/a	"67431"	"0"	n/a	"NULL"	"NULL"	"NULL"	"<p><b>TRAINING COMPLETED</b></p><p>In the next phase, there will be more trials, and some might be harder too.<br> Moreover, after each illusion block, a <b>score</b> will be calculated based on speed (time you took to answer) and accuracy (number of errors).</p><p>Try to keep up a high score!</p><br><p>Note that it can be <i>really</i> challenging at times, so you will need to rely on your <b>intuition</b> and gut feeling to answer as fast as you can without making errors.</p><p>Each illusion block will be repeated two times (so that you have the opportunity to improve your score), but the order of the blocks is random.</p><p>Remember, your goal is to be as <b>fast</b> and <b>accurate</b> as possible. Good luck!</p><br>"	n/a	n/a	n/a	n/a	n/a	n/a	n/a	n/a	n/a	n/a
"TRUE"	"preload"	"51"	"128267"	"0.0-5.0-0.0"	"7w9unt"	"600"	"1366"	"chrome"	"108.0.0"	"FALSE"	"Windows 10"	"60.88"	"130"	n/a	n/a	n/a	n/a	n/a	n/a	n/a	n/a	n/a	n/a	n/a	"NULL"	"FALSE"	"list()"	"list()"	"list()"	n/a	n/a	n/a	n/a	n/a	n/a	n/a	n/a	n/a	n/a	n/a
n/a	"html-keyboard-response"	"52"	"131111"	"0.0-5.0-1.0"	"7w9unt"	"600"	"1366"	"chrome"	"108.0.0"	"FALSE"	"Windows 10"	"60.88"	"130"	n/a	n/a	n/a	n/a	n/a	n/a	n/a	n/a	n/a	n/a	"2843"	"enter"	n/a	"NULL"	"NULL"	"NULL"	"<p><b>Part 1/6</b></p><p>In this part, two red circles will appear side by side on the screen.</p><p>Your task is to select which <b>red circle is bigger</b> in size as fast as you can, without making errors.</p><p>Don't get distracted by the surrounding black circles around the red circles!</p><p>Press <b>the LEFT or the RIGHT arrow</b> to indicate which is the bigger <b>red circle.</b></p><div style='float: center'><img src='materials/instructions/Ebbinghaus_Demo.png' height='300'></img><p><img src='utils/answer/answer_leftright_keyboard.PNG' height='150'></img></p><p class='small'>In this example, the correct answer is the <b>LEFT arrow</b>.</p></div><p>Are you ready? <b>Press ENTER to start</b></p>"	n/a	n/a	n/a	n/a	n/a	n/a	n/a	n/a	n/a	n/a
n/a	"html-keyboard-response"	"53"	"132643"	"0.0-5.0-2.0-0.0"	"7w9unt"	"600"	"1366"	"chrome"	"108.0.0"	"FALSE"	"Windows 10"	"60.88"	"130"	n/a	n/a	n/a	n/a	n/a	n/a	"fixation"	n/a	n/a	n/a	n/a	"NULL"	n/a	"NULL"	"NULL"	"NULL"	"<p style=\"color: black; font-size: 80px; padding-left: 29%; padding-right: 2%; padding-top: 3%; padding-bottom: 29%\">+</p>"	"1005"	n/a	n/a	n/a	n/a	n/a	n/a	n/a	n/a	n/a
n/a	"image-keyboard-response"	"54"	"133387"	"0.0-5.0-2.0-1.0"	"7w9unt"	"600"	"1366"	"chrome"	"108.0.0"	"FALSE"	"Windows 10"	"60.88"	"130"	n/a	n/a	n/a	n/a	n/a	n/a	"Trial"	n/a	n/a	n/a	"743"	"arrowright"	n/a	"NULL"	"NULL"	"NULL"	"stimuli/Ebbinghaus_0.61429_0.11071.png"	n/a	"Ebbinghaus"	"arrowleft"	"1532"	"FALSE"	"Ebbinghaus"	"0.6142900000"	"0.1107100000"	"1"	"19"
n/a	"html-keyboard-response"	"55"	"134551"	"0.0-5.0-2.0-0.1"	"7w9unt"	"600"	"1366"	"chrome"	"108.0.0"	"FALSE"	"Windows 10"	"60.88"	"130"	n/a	n/a	n/a	n/a	n/a	n/a	"fixation"	n/a	n/a	n/a	n/a	"NULL"	n/a	"NULL"	"NULL"	"NULL"	"<p style=\"color: black; font-size: 80px; padding-left: 3%; padding-right: 17%; padding-top: 44%; padding-bottom: 49%\">+</p>"	"1142"	n/a	n/a	n/a	n/a	n/a	n/a	n/a	n/a	n/a
n/a	"image-keyboard-response"	"56"	"135515"	"0.0-5.0-2.0-1.1"	"7w9unt"	"600"	"1366"	"chrome"	"108.0.0"	"FALSE"	"Windows 10"	"60.88"	"130"	n/a	n/a	n/a	n/a	n/a	n/a	"Trial"	n/a	n/a	n/a	"963"	"arrowright"	n/a	"NULL"	"NULL"	"NULL"	"stimuli/Ebbinghaus_0.87143_-0.15857.png"	n/a	"Ebbinghaus"	"arrowright"	"1164"	"TRUE"	"Ebbinghaus"	"0.8714300000"	"-0.158570000"	"1"	"20"
n/a	"html-keyboard-response"	"57"	"136821"	"0.0-5.0-2.0-0.2"	"7w9unt"	"600"	"1366"	"chrome"	"108.0.0"	"FALSE"	"Windows 10"	"60.88"	"130"	n/a	n/a	n/a	n/a	n/a	n/a	"fixation"	n/a	n/a	n/a	n/a	"NULL"	n/a	"NULL"	"NULL"	"NULL"	"<p style=\"color: black; font-size: 80px; padding-left: 24%; padding-right: 2%; padding-top: 0%; padding-bottom: 34%\">+</p>"	"1299"	n/a	n/a	n/a	n/a	n/a	n/a	n/a	n/a	n/a
n/a	"image-keyboard-response"	"58"	"137625"	"0.0-5.0-2.0-1.2"	"7w9unt"	"600"	"1366"	"chrome"	"108.0.0"	"FALSE"	"Windows 10"	"60.88"	"130"	n/a	n/a	n/a	n/a	n/a	n/a	"Trial"	n/a	n/a	n/a	"803"	"arrowright"	n/a	"NULL"	"NULL"	"NULL"	"stimuli/Ebbinghaus_-0.61429_-0.11071.png"	n/a	"Ebbinghaus"	"arrowright"	"1306"	"TRUE"	"Ebbinghaus"	"-0.614290000"	"-0.110710000"	"1"	"21"
n/a	"html-keyboard-response"	"59"	"139058"	"0.0-5.0-2.0-0.3"	"7w9unt"	"600"	"1366"	"chrome"	"108.0.0"	"FALSE"	"Windows 10"	"60.88"	"130"	n/a	n/a	n/a	n/a	n/a	n/a	"fixation"	n/a	n/a	n/a	n/a	"NULL"	n/a	"NULL"	"NULL"	"NULL"	"<p style=\"color: black; font-size: 80px; padding-left: 48%; padding-right: 33%; padding-top: 47%; padding-bottom: 14%\">+</p>"	"1414"	n/a	n/a	n/a	n/a	n/a	n/a	n/a	n/a	n/a
n/a	"image-keyboard-response"	"60"	"139635"	"0.0-5.0-2.0-1.3"	"7w9unt"	"600"	"1366"	"chrome"	"108.0.0"	"FALSE"	"Windows 10"	"60.88"	"130"	n/a	n/a	n/a	n/a	n/a	n/a	"Trial"	n/a	n/a	n/a	"576"	"arrowright"	n/a	"NULL"	"NULL"	"NULL"	"stimuli/Ebbinghaus_-0.87143_-0.2800.png"	n/a	"Ebbinghaus"	"arrowright"	"1433"	"TRUE"	"Ebbinghaus"	"-0.871430000"	"-0.280000000"	"1"	"22"
n/a	"html-keyboard-response"	"61"	"141021"	"0.0-5.0-2.0-0.4"	"7w9unt"	"600"	"1366"	"chrome"	"108.0.0"	"FALSE"	"Windows 10"	"60.88"	"130"	n/a	n/a	n/a	n/a	n/a	n/a	"fixation"	n/a	n/a	n/a	n/a	"NULL"	n/a	"NULL"	"NULL"	"NULL"	"<p style=\"color: black; font-size: 80px; padding-left: 27%; padding-right: 6%; padding-top: 49%; padding-bottom: 25%\">+</p>"	"1378"	n/a	n/a	n/a	n/a	n/a	n/a	n/a	n/a	n/a
n/a	"image-keyboard-response"	"62"	"141767"	"0.0-5.0-2.0-1.4"	"7w9unt"	"600"	"1366"	"chrome"	"108.0.0"	"FALSE"	"Windows 10"	"60.88"	"130"	n/a	n/a	n/a	n/a	n/a	n/a	"Trial"	n/a	n/a	n/a	"744"	"arrowright"	n/a	"NULL"	"NULL"	"NULL"	"stimuli/Ebbinghaus_0.87143_0.15857.png"	n/a	"Ebbinghaus"	"arrowleft"	"1386"	"FALSE"	"Ebbinghaus"	"0.8714300000"	"0.1585700000"	"1"	"23"
n/a	"html-keyboard-response"	"63"	"142912"	"0.0-5.0-2.0-0.5"	"7w9unt"	"600"	"1366"	"chrome"	"108.0.0"	"FALSE"	"Windows 10"	"60.88"	"130"	n/a	n/a	n/a	n/a	n/a	n/a	"fixation"	n/a	n/a	n/a	n/a	"NULL"	n/a	"NULL"	"NULL"	"NULL"	"<p style=\"color: black; font-size: 80px; padding-left: 3%; padding-right: 8%; padding-top: 33%; padding-bottom: 50%\">+</p>"	"1139"	n/a	n/a	n/a	n/a	n/a	n/a	n/a	n/a	n/a
n/a	"image-keyboard-response"	"64"	"143739"	"0.0-5.0-2.0-1.5"	"7w9unt"	"600"	"1366"	"chrome"	"108.0.0"	"FALSE"	"Windows 10"	"60.88"	"130"	n/a	n/a	n/a	n/a	n/a	n/a	"Trial"	n/a	n/a	n/a	"827"	"arrowright"	n/a	"NULL"	"NULL"	"NULL"	"stimuli/Ebbinghaus_0.10000_-0.11071.png"	n/a	"Ebbinghaus"	"arrowright"	"1145"	"TRUE"	"Ebbinghaus"	"0.1000000000"	"-0.110710000"	"1"	"24"
n/a	"html-keyboard-response"	"65"	"145064"	"0.0-5.0-2.0-0.6"	"7w9unt"	"600"	"1366"	"chrome"	"108.0.0"	"FALSE"	"Windows 10"	"60.88"	"130"	n/a	n/a	n/a	n/a	n/a	n/a	"fixation"	n/a	n/a	n/a	n/a	"NULL"	n/a	"NULL"	"NULL"	"NULL"	"<p style=\"color: black; font-size: 80px; padding-left: 33%; padding-right: 45%; padding-top: 8%; padding-bottom: 8%\">+</p>"	"1320"	n/a	n/a	n/a	n/a	n/a	n/a	n/a	n/a	n/a
n/a	"image-keyboard-response"	"66"	"145697"	"0.0-5.0-2.0-1.6"	"7w9unt"	"600"	"1366"	"chrome"	"108.0.0"	"FALSE"	"Windows 10"	"60.88"	"130"	n/a	n/a	n/a	n/a	n/a	n/a	"Trial"	n/a	n/a	n/a	"632"	"arrowright"	n/a	"NULL"	"NULL"	"NULL"	"stimuli/Ebbinghaus_-0.61429_-0.2150.png"	n/a	"Ebbinghaus"	"arrowright"	"1325"	"TRUE"	"Ebbinghaus"	"-0.614290000"	"-0.215000000"	"1"	"25"
n/a	"html-keyboard-response"	"67"	"146982"	"0.0-5.0-2.0-0.7"	"7w9unt"	"600"	"1366"	"chrome"	"108.0.0"	"FALSE"	"Windows 10"	"60.88"	"130"	n/a	n/a	n/a	n/a	n/a	n/a	"fixation"	n/a	n/a	n/a	n/a	"NULL"	n/a	"NULL"	"NULL"	"NULL"	"<p style=\"color: black; font-size: 80px; padding-left: 25%; padding-right: 21%; padding-top: 42%; padding-bottom: 40%\">+</p>"	"1271"	n/a	n/a	n/a	n/a	n/a	n/a	n/a	n/a	n/a
n/a	"image-keyboard-response"	"68"	"147908"	"0.0-5.0-2.0-1.7"	"7w9unt"	"600"	"1366"	"chrome"	"108.0.0"	"FALSE"	"Windows 10"	"60.88"	"130"	n/a	n/a	n/a	n/a	n/a	n/a	"Trial"	n/a	n/a	n/a	"925"	"arrowright"	n/a	"NULL"	"NULL"	"NULL"	"stimuli/Ebbinghaus_0.87143_-0.11071.png"	n/a	"Ebbinghaus"	"arrowright"	"1285"	"TRUE"	"Ebbinghaus"	"0.8714300000"	"-0.110710000"	"1"	"26"
n/a	"html-keyboard-response"	"69"	"149152"	"0.0-5.0-2.0-0.8"	"7w9unt"	"600"	"1366"	"chrome"	"108.0.0"	"FALSE"	"Windows 10"	"60.88"	"130"	n/a	n/a	n/a	n/a	n/a	n/a	"fixation"	n/a	n/a	n/a	n/a	"NULL"	n/a	"NULL"	"NULL"	"NULL"	"<p style=\"color: black; font-size: 80px; padding-left: 11%; padding-right: 32%; padding-top: 5%; padding-bottom: 25%\">+</p>"	"1229"	n/a	n/a	n/a	n/a	n/a	n/a	n/a	n/a	n/a
n/a	"image-keyboard-response"	"70"	"149908"	"0.0-5.0-2.0-1.8"	"7w9unt"	"600"	"1366"	"chrome"	"108.0.0"	"FALSE"	"Windows 10"	"60.88"	"130"	n/a	n/a	n/a	n/a	n/a	n/a	"Trial"	n/a	n/a	n/a	"755"	"arrowleft"	n/a	"NULL"	"NULL"	"NULL"	"stimuli/Ebbinghaus_0.35714_0.28000.png"	n/a	"Ebbinghaus"	"arrowleft"	"1244"	"TRUE"	"Ebbinghaus"	"0.3571400000"	"0.2800000000"	"1"	"27"
n/a	"html-keyboard-response"	"71"	"151061"	"0.0-5.0-2.0-0.9"	"7w9unt"	"600"	"1366"	"chrome"	"108.0.0"	"FALSE"	"Windows 10"	"60.88"	"130"	n/a	n/a	n/a	n/a	n/a	n/a	"fixation"	n/a	n/a	n/a	n/a	"NULL"	n/a	"NULL"	"NULL"	"NULL"	"<p style=\"color: black; font-size: 80px; padding-left: 28%; padding-right: 27%; padding-top: 5%; padding-bottom: 39%\">+</p>"	"1137"	n/a	n/a	n/a	n/a	n/a	n/a	n/a	n/a	n/a
n/a	"image-keyboard-response"	"72"	"151786"	"0.0-5.0-2.0-1.9"	"7w9unt"	"600"	"1366"	"chrome"	"108.0.0"	"FALSE"	"Windows 10"	"60.88"	"130"	n/a	n/a	n/a	n/a	n/a	n/a	"Trial"	n/a	n/a	n/a	"724"	"arrowleft"	n/a	"NULL"	"NULL"	"NULL"	"stimuli/Ebbinghaus_0.10000_0.21500.png"	n/a	"Ebbinghaus"	"arrowleft"	"1153"	"TRUE"	"Ebbinghaus"	"0.1000000000"	"0.2150000000"	"1"	"28"
n/a	"html-keyboard-response"	"73"	"152880"	"0.0-5.0-2.0-0.10"	"7w9unt"	"600"	"1366"	"chrome"	"108.0.0"	"FALSE"	"Windows 10"	"60.88"	"130"	n/a	n/a	n/a	n/a	n/a	n/a	"fixation"	n/a	n/a	n/a	n/a	"NULL"	n/a	"NULL"	"NULL"	"NULL"	"<p style=\"color: black; font-size: 80px; padding-left: 6%; padding-right: 23%; padding-top: 32%; padding-bottom: 21%\">+</p>"	"1091"	n/a	n/a	n/a	n/a	n/a	n/a	n/a	n/a	n/a
n/a	"image-keyboard-response"	"74"	"153516"	"0.0-5.0-2.0-1.10"	"7w9unt"	"600"	"1366"	"chrome"	"108.0.0"	"FALSE"	"Windows 10"	"60.88"	"130"	n/a	n/a	n/a	n/a	n/a	n/a	"Trial"	n/a	n/a	n/a	"635"	"arrowright"	n/a	"NULL"	"NULL"	"NULL"	"stimuli/Ebbinghaus_-0.87143_-0.15857.png"	n/a	"Ebbinghaus"	"arrowright"	"1094"	"TRUE"	"Ebbinghaus"	"-0.871430000"	"-0.158570000"	"1"	"29"
n/a	"html-keyboard-response"	"75"	"154650"	"0.0-5.0-2.0-0.11"	"7w9unt"	"600"	"1366"	"chrome"	"108.0.0"	"FALSE"	"Windows 10"	"60.88"	"130"	n/a	n/a	n/a	n/a	n/a	n/a	"fixation"	n/a	n/a	n/a	n/a	"NULL"	n/a	"NULL"	"NULL"	"NULL"	"<p style=\"color: black; font-size: 80px; padding-left: 14%; padding-right: 24%; padding-top: 32%; padding-bottom: 38%\">+</p>"	"1124"	n/a	n/a	n/a	n/a	n/a	n/a	n/a	n/a	n/a
n/a	"image-keyboard-response"	"76"	"155269"	"0.0-5.0-2.0-1.11"	"7w9unt"	"600"	"1366"	"chrome"	"108.0.0"	"FALSE"	"Windows 10"	"60.88"	"130"	n/a	n/a	n/a	n/a	n/a	n/a	"Trial"	n/a	n/a	n/a	"618"	"arrowleft"	n/a	"NULL"	"NULL"	"NULL"	"stimuli/Ebbinghaus_0.35714_0.21500.png"	n/a	"Ebbinghaus"	"arrowleft"	"1134"	"TRUE"	"Ebbinghaus"	"0.3571400000"	"0.2150000000"	"1"	"30"
n/a	"html-keyboard-response"	"77"	"156298"	"0.0-5.0-2.0-0.12"	"7w9unt"	"600"	"1366"	"chrome"	"108.0.0"	"FALSE"	"Windows 10"	"60.88"	"130"	n/a	n/a	n/a	n/a	n/a	n/a	"fixation"	n/a	n/a	n/a	n/a	"NULL"	n/a	"NULL"	"NULL"	"NULL"	"<p style=\"color: black; font-size: 80px; padding-left: 0%; padding-right: 26%; padding-top: 7%; padding-bottom: 21%\">+</p>"	"1013"	n/a	n/a	n/a	n/a	n/a	n/a	n/a	n/a	n/a
n/a	"image-keyboard-response"	"78"	"156860"	"0.0-5.0-2.0-1.12"	"7w9unt"	"600"	"1366"	"chrome"	"108.0.0"	"FALSE"	"Windows 10"	"60.88"	"130"	n/a	n/a	n/a	n/a	n/a	n/a	"Trial"	n/a	n/a	n/a	"561"	"arrowleft"	n/a	"NULL"	"NULL"	"NULL"	"stimuli/Ebbinghaus_-0.35714_0.21500.png"	n/a	"Ebbinghaus"	"arrowleft"	"1029"	"TRUE"	"Ebbinghaus"	"-0.357140000"	"0.2150000000"	"1"	"31"
n/a	"html-keyboard-response"	"79"	"158356"	"0.0-5.0-2.0-0.13"	"7w9unt"	"600"	"1366"	"chrome"	"108.0.0"	"FALSE"	"Windows 10"	"60.88"	"130"	n/a	n/a	n/a	n/a	n/a	n/a	"fixation"	n/a	n/a	n/a	n/a	"NULL"	n/a	"NULL"	"NULL"	"NULL"	"<p style=\"color: black; font-size: 80px; padding-left: 26%; padding-right: 17%; padding-top: 24%; padding-bottom: 18%\">+</p>"	"1478"	n/a	n/a	n/a	n/a	n/a	n/a	n/a	n/a	n/a
n/a	"image-keyboard-response"	"80"	"159024"	"0.0-5.0-2.0-1.13"	"7w9unt"	"600"	"1366"	"chrome"	"108.0.0"	"FALSE"	"Windows 10"	"60.88"	"130"	n/a	n/a	n/a	n/a	n/a	n/a	"Trial"	n/a	n/a	n/a	"667"	"arrowleft"	n/a	"NULL"	"NULL"	"NULL"	"stimuli/Ebbinghaus_0.61429_0.15857.png"	n/a	"Ebbinghaus"	"arrowleft"	"1496"	"TRUE"	"Ebbinghaus"	"0.6142900000"	"0.1585700000"	"1"	"32"
n/a	"html-keyboard-response"	"81"	"160492"	"0.0-5.0-2.0-0.14"	"7w9unt"	"600"	"1366"	"chrome"	"108.0.0"	"FALSE"	"Windows 10"	"60.88"	"130"	n/a	n/a	n/a	n/a	n/a	n/a	"fixation"	n/a	n/a	n/a	n/a	"NULL"	n/a	"NULL"	"NULL"	"NULL"	"<p style=\"color: black; font-size: 80px; padding-left: 29%; padding-right: 23%; padding-top: 32%; padding-bottom: 45%\">+</p>"	"1462"	n/a	n/a	n/a	n/a	n/a	n/a	n/a	n/a	n/a
n/a	"image-keyboard-response"	"82"	"161069"	"0.0-5.0-2.0-1.14"	"7w9unt"	"600"	"1366"	"chrome"	"108.0.0"	"FALSE"	"Windows 10"	"60.88"	"130"	n/a	n/a	n/a	n/a	n/a	n/a	"Trial"	n/a	n/a	n/a	"575"	"arrowright"	n/a	"NULL"	"NULL"	"NULL"	"stimuli/Ebbinghaus_-0.1000_-0.15857.png"	n/a	"Ebbinghaus"	"arrowright"	"1468"	"TRUE"	"Ebbinghaus"	"-0.100000000"	"-0.158570000"	"1"	"33"
n/a	"html-keyboard-response"	"83"	"162091"	"0.0-5.0-2.0-0.15"	"7w9unt"	"600"	"1366"	"chrome"	"108.0.0"	"FALSE"	"Windows 10"	"60.88"	"130"	n/a	n/a	n/a	n/a	n/a	n/a	"fixation"	n/a	n/a	n/a	n/a	"NULL"	n/a	"NULL"	"NULL"	"NULL"	"<p style=\"color: black; font-size: 80px; padding-left: 15%; padding-right: 40%; padding-top: 35%; padding-bottom: 44%\">+</p>"	"1008"	n/a	n/a	n/a	n/a	n/a	n/a	n/a	n/a	n/a
n/a	"image-keyboard-response"	"84"	"162694"	"0.0-5.0-2.0-1.15"	"7w9unt"	"600"	"1366"	"chrome"	"108.0.0"	"FALSE"	"Windows 10"	"60.88"	"130"	n/a	n/a	n/a	n/a	n/a	n/a	"Trial"	n/a	n/a	n/a	"602"	"arrowleft"	n/a	"NULL"	"NULL"	"NULL"	"stimuli/Ebbinghaus_-0.61429_0.28000.png"	n/a	"Ebbinghaus"	"arrowleft"	"1022"	"TRUE"	"Ebbinghaus"	"-0.614290000"	"0.2800000000"	"1"	"34"
n/a	"html-keyboard-response"	"85"	"163768"	"0.0-5.0-2.0-0.16"	"7w9unt"	"600"	"1366"	"chrome"	"108.0.0"	"FALSE"	"Windows 10"	"60.88"	"130"	n/a	n/a	n/a	n/a	n/a	n/a	"fixation"	n/a	n/a	n/a	n/a	"NULL"	n/a	"NULL"	"NULL"	"NULL"	"<p style=\"color: black; font-size: 80px; padding-left: 16%; padding-right: 5%; padding-top: 24%; padding-bottom: 37%\">+</p>"	"1057"	n/a	n/a	n/a	n/a	n/a	n/a	n/a	n/a	n/a
n/a	"image-keyboard-response"	"86"	"164711"	"0.0-5.0-2.0-1.16"	"7w9unt"	"600"	"1366"	"chrome"	"108.0.0"	"FALSE"	"Windows 10"	"60.88"	"130"	n/a	n/a	n/a	n/a	n/a	n/a	"Trial"	n/a	n/a	n/a	"942"	"arrowleft"	n/a	"NULL"	"NULL"	"NULL"	"stimuli/Ebbinghaus_0.61429_0.28000.png"	n/a	"Ebbinghaus"	"arrowleft"	"1074"	"TRUE"	"Ebbinghaus"	"0.6142900000"	"0.2800000000"	"1"	"35"
n/a	"html-keyboard-response"	"87"	"165863"	"0.0-5.0-2.0-0.17"	"7w9unt"	"600"	"1366"	"chrome"	"108.0.0"	"FALSE"	"Windows 10"	"60.88"	"130"	n/a	n/a	n/a	n/a	n/a	n/a	"fixation"	n/a	n/a	n/a	n/a	"NULL"	n/a	"NULL"	"NULL"	"NULL"	"<p style=\"color: black; font-size: 80px; padding-left: 28%; padding-right: 34%; padding-top: 43%; padding-bottom: 3%\">+</p>"	"1139"	n/a	n/a	n/a	n/a	n/a	n/a	n/a	n/a	n/a
n/a	"image-keyboard-response"	"88"	"166603"	"0.0-5.0-2.0-1.17"	"7w9unt"	"600"	"1366"	"chrome"	"108.0.0"	"FALSE"	"Windows 10"	"60.88"	"130"	n/a	n/a	n/a	n/a	n/a	n/a	"Trial"	n/a	n/a	n/a	"739"	"arrowleft"	n/a	"NULL"	"NULL"	"NULL"	"stimuli/Ebbinghaus_0.10000_0.28000.png"	n/a	"Ebbinghaus"	"arrowleft"	"1152"	"TRUE"	"Ebbinghaus"	"0.1000000000"	"0.2800000000"	"1"	"36"
n/a	"html-keyboard-response"	"89"	"167651"	"0.0-5.0-2.0-0.18"	"7w9unt"	"600"	"1366"	"chrome"	"108.0.0"	"FALSE"	"Windows 10"	"60.88"	"130"	n/a	n/a	n/a	n/a	n/a	n/a	"fixation"	n/a	n/a	n/a	n/a	"NULL"	n/a	"NULL"	"NULL"	"NULL"	"<p style=\"color: black; font-size: 80px; padding-left: 20%; padding-right: 49%; padding-top: 32%; padding-bottom: 41%\">+</p>"	"1036"	n/a	n/a	n/a	n/a	n/a	n/a	n/a	n/a	n/a
n/a	"image-keyboard-response"	"90"	"168747"	"0.0-5.0-2.0-1.18"	"7w9unt"	"600"	"1366"	"chrome"	"108.0.0"	"FALSE"	"Windows 10"	"60.88"	"130"	n/a	n/a	n/a	n/a	n/a	n/a	"Trial"	n/a	n/a	n/a	"1094"	"arrowright"	n/a	"NULL"	"NULL"	"NULL"	"stimuli/Ebbinghaus_0.87143_-0.2150.png"	n/a	"Ebbinghaus"	"arrowright"	"1048"	"TRUE"	"Ebbinghaus"	"0.8714300000"	"-0.215000000"	"1"	"37"
n/a	"html-keyboard-response"	"91"	"170063"	"0.0-5.0-2.0-0.19"	"7w9unt"	"600"	"1366"	"chrome"	"108.0.0"	"FALSE"	"Windows 10"	"60.88"	"130"	n/a	n/a	n/a	n/a	n/a	n/a	"fixation"	n/a	n/a	n/a	n/a	"NULL"	n/a	"NULL"	"NULL"	"NULL"	"<p style=\"color: black; font-size: 80px; padding-left: 24%; padding-right: 29%; padding-top: 25%; padding-bottom: 37%\">+</p>"	"1293"	n/a	n/a	n/a	n/a	n/a	n/a	n/a	n/a	n/a
n/a	"image-keyboard-response"	"92"	"171065"	"0.0-5.0-2.0-1.19"	"7w9unt"	"600"	"1366"	"chrome"	"108.0.0"	"FALSE"	"Windows 10"	"60.88"	"130"	n/a	n/a	n/a	n/a	n/a	n/a	"Trial"	n/a	n/a	n/a	"1001"	"arrowright"	n/a	"NULL"	"NULL"	"NULL"	"stimuli/Ebbinghaus_0.61429_-0.2800.png"	n/a	"Ebbinghaus"	"arrowright"	"1316"	"TRUE"	"Ebbinghaus"	"0.6142900000"	"-0.280000000"	"1"	"38"
n/a	"html-keyboard-response"	"93"	"172476"	"0.0-5.0-2.0-0.20"	"7w9unt"	"600"	"1366"	"chrome"	"108.0.0"	"FALSE"	"Windows 10"	"60.88"	"130"	n/a	n/a	n/a	n/a	n/a	n/a	"fixation"	n/a	n/a	n/a	n/a	"NULL"	n/a	"NULL"	"NULL"	"NULL"	"<p style=\"color: black; font-size: 80px; padding-left: 37%; padding-right: 18%; padding-top: 37%; padding-bottom: 0%\">+</p>"	"1403"	n/a	n/a	n/a	n/a	n/a	n/a	n/a	n/a	n/a
n/a	"image-keyboard-response"	"94"	"173177"	"0.0-5.0-2.0-1.20"	"7w9unt"	"600"	"1366"	"chrome"	"108.0.0"	"FALSE"	"Windows 10"	"60.88"	"130"	n/a	n/a	n/a	n/a	n/a	n/a	"Trial"	n/a	n/a	n/a	"700"	"arrowright"	n/a	"NULL"	"NULL"	"NULL"	"stimuli/Ebbinghaus_-0.1000_-0.2800.png"	n/a	"Ebbinghaus"	"arrowright"	"1411"	"TRUE"	"Ebbinghaus"	"-0.100000000"	"-0.280000000"	"1"	"39"
n/a	"html-keyboard-response"	"95"	"174485"	"0.0-5.0-2.0-0.21"	"7w9unt"	"600"	"1366"	"chrome"	"108.0.0"	"FALSE"	"Windows 10"	"60.88"	"130"	n/a	n/a	n/a	n/a	n/a	n/a	"fixation"	n/a	n/a	n/a	n/a	"NULL"	n/a	"NULL"	"NULL"	"NULL"	"<p style=\"color: black; font-size: 80px; padding-left: 44%; padding-right: 19%; padding-top: 28%; padding-bottom: 26%\">+</p>"	"1295"	n/a	n/a	n/a	n/a	n/a	n/a	n/a	n/a	n/a
n/a	"image-keyboard-response"	"96"	"175128"	"0.0-5.0-2.0-1.21"	"7w9unt"	"600"	"1366"	"chrome"	"108.0.0"	"FALSE"	"Windows 10"	"60.88"	"130"	n/a	n/a	n/a	n/a	n/a	n/a	"Trial"	n/a	n/a	n/a	"643"	"arrowleft"	n/a	"NULL"	"NULL"	"NULL"	"stimuli/Ebbinghaus_-0.87143_0.28000.png"	n/a	"Ebbinghaus"	"arrowleft"	"1308"	"TRUE"	"Ebbinghaus"	"-0.871430000"	"0.2800000000"	"1"	"40"
n/a	"html-keyboard-response"	"97"	"176333"	"0.0-5.0-2.0-0.22"	"7w9unt"	"600"	"1366"	"chrome"	"108.0.0"	"FALSE"	"Windows 10"	"60.88"	"130"	n/a	n/a	n/a	n/a	n/a	n/a	"fixation"	n/a	n/a	n/a	n/a	"NULL"	n/a	"NULL"	"NULL"	"NULL"	"<p style=\"color: black; font-size: 80px; padding-left: 31%; padding-right: 10%; padding-top: 33%; padding-bottom: 12%\">+</p>"	"1186"	n/a	n/a	n/a	n/a	n/a	n/a	n/a	n/a	n/a
n/a	"image-keyboard-response"	"98"	"177061"	"0.0-5.0-2.0-1.22"	"7w9unt"	"600"	"1366"	"chrome"	"108.0.0"	"FALSE"	"Windows 10"	"60.88"	"130"	n/a	n/a	n/a	n/a	n/a	n/a	"Trial"	n/a	n/a	n/a	"727"	"arrowright"	n/a	"NULL"	"NULL"	"NULL"	"stimuli/Ebbinghaus_0.61429_-0.2150.png"	n/a	"Ebbinghaus"	"arrowright"	"1205"	"TRUE"	"Ebbinghaus"	"0.6142900000"	"-0.215000000"	"1"	"41"
n/a	"html-keyboard-response"	"99"	"178133"	"0.0-5.0-2.0-0.23"	"7w9unt"	"600"	"1366"	"chrome"	"108.0.0"	"FALSE"	"Windows 10"	"60.88"	"130"	n/a	n/a	n/a	n/a	n/a	n/a	"fixation"	n/a	n/a	n/a	n/a	"NULL"	n/a	"NULL"	"NULL"	"NULL"	"<p style=\"color: black; font-size: 80px; padding-left: 2%; padding-right: 11%; padding-top: 35%; padding-bottom: 34%\">+</p>"	"1065"	n/a	n/a	n/a	n/a	n/a	n/a	n/a	n/a	n/a
n/a	"image-keyboard-response"	"100"	"178818"	"0.0-5.0-2.0-1.23"	"7w9unt"	"600"	"1366"	"chrome"	"108.0.0"	"FALSE"	"Windows 10"	"60.88"	"130"	n/a	n/a	n/a	n/a	n/a	n/a	"Trial"	n/a	n/a	n/a	"680"	"arrowright"	n/a	"NULL"	"NULL"	"NULL"	"stimuli/Ebbinghaus_-0.35714_-0.15857.png"	n/a	"Ebbinghaus"	"arrowright"	"1072"	"TRUE"	"Ebbinghaus"	"-0.357140000"	"-0.158570000"	"1"	"42"
n/a	"html-keyboard-response"	"101"	"179970"	"0.0-5.0-2.0-0.24"	"7w9unt"	"600"	"1366"	"chrome"	"108.0.0"	"FALSE"	"Windows 10"	"60.88"	"130"	n/a	n/a	n/a	n/a	n/a	n/a	"fixation"	n/a	n/a	n/a	n/a	"NULL"	n/a	"NULL"	"NULL"	"NULL"	"<p style=\"color: black; font-size: 80px; padding-left: 41%; padding-right: 47%; padding-top: 42%; padding-bottom: 3%\">+</p>"	"1149"	n/a	n/a	n/a	n/a	n/a	n/a	n/a	n/a	n/a
n/a	"image-keyboard-response"	"102"	"180729"	"0.0-5.0-2.0-1.24"	"7w9unt"	"600"	"1366"	"chrome"	"108.0.0"	"FALSE"	"Windows 10"	"60.88"	"130"	n/a	n/a	n/a	n/a	n/a	n/a	"Trial"	n/a	n/a	n/a	"757"	"arrowright"	n/a	"NULL"	"NULL"	"NULL"	"stimuli/Ebbinghaus_-0.35714_-0.11071.png"	n/a	"Ebbinghaus"	"arrowright"	"1152"	"TRUE"	"Ebbinghaus"	"-0.357140000"	"-0.110710000"	"1"	"43"
n/a	"html-keyboard-response"	"103"	"182069"	"0.0-5.0-2.0-0.25"	"7w9unt"	"600"	"1366"	"chrome"	"108.0.0"	"FALSE"	"Windows 10"	"60.88"	"130"	n/a	n/a	n/a	n/a	n/a	n/a	"fixation"	n/a	n/a	n/a	n/a	"NULL"	n/a	"NULL"	"NULL"	"NULL"	"<p style=\"color: black; font-size: 80px; padding-left: 2%; padding-right: 47%; padding-top: 2%; padding-bottom: 25%\">+</p>"	"1317"	n/a	n/a	n/a	n/a	n/a	n/a	n/a	n/a	n/a
n/a	"image-keyboard-response"	"104"	"182675"	"0.0-5.0-2.0-1.25"	"7w9unt"	"600"	"1366"	"chrome"	"108.0.0"	"FALSE"	"Windows 10"	"60.88"	"130"	n/a	n/a	n/a	n/a	n/a	n/a	"Trial"	n/a	n/a	n/a	"605"	"arrowright"	n/a	"NULL"	"NULL"	"NULL"	"stimuli/Ebbinghaus_0.35714_-0.2800.png"	n/a	"Ebbinghaus"	"arrowright"	"1340"	"TRUE"	"Ebbinghaus"	"0.3571400000"	"-0.280000000"	"1"	"44"
n/a	"html-keyboard-response"	"105"	"183905"	"0.0-5.0-2.0-0.26"	"7w9unt"	"600"	"1366"	"chrome"	"108.0.0"	"FALSE"	"Windows 10"	"60.88"	"130"	n/a	n/a	n/a	n/a	n/a	n/a	"fixation"	n/a	n/a	n/a	n/a	"NULL"	n/a	"NULL"	"NULL"	"NULL"	"<p style=\"color: black; font-size: 80px; padding-left: 18%; padding-right: 45%; padding-top: 32%; padding-bottom: 28%\">+</p>"	"1224"	n/a	n/a	n/a	n/a	n/a	n/a	n/a	n/a	n/a
n/a	"image-keyboard-response"	"106"	"184528"	"0.0-5.0-2.0-1.26"	"7w9unt"	"600"	"1366"	"chrome"	"108.0.0"	"FALSE"	"Windows 10"	"60.88"	"130"	n/a	n/a	n/a	n/a	n/a	n/a	"Trial"	n/a	n/a	n/a	"622"	"arrowright"	n/a	"NULL"	"NULL"	"NULL"	"stimuli/Ebbinghaus_-0.35714_-0.2150.png"	n/a	"Ebbinghaus"	"arrowright"	"1230"	"TRUE"	"Ebbinghaus"	"-0.357140000"	"-0.215000000"	"1"	"45"
n/a	"html-keyboard-response"	"107"	"185749"	"0.0-5.0-2.0-0.27"	"7w9unt"	"600"	"1366"	"chrome"	"108.0.0"	"FALSE"	"Windows 10"	"60.88"	"130"	n/a	n/a	n/a	n/a	n/a	n/a	"fixation"	n/a	n/a	n/a	n/a	"NULL"	n/a	"NULL"	"NULL"	"NULL"	"<p style=\"color: black; font-size: 80px; padding-left: 30%; padding-right: 11%; padding-top: 13%; padding-bottom: 17%\">+</p>"	"1218"	n/a	n/a	n/a	n/a	n/a	n/a	n/a	n/a	n/a
n/a	"image-keyboard-response"	"108"	"186296"	"0.0-5.0-2.0-1.27"	"7w9unt"	"600"	"1366"	"chrome"	"108.0.0"	"FALSE"	"Windows 10"	"60.88"	"130"	n/a	n/a	n/a	n/a	n/a	n/a	"Trial"	n/a	n/a	n/a	"546"	"arrowright"	n/a	"NULL"	"NULL"	"NULL"	"stimuli/Ebbinghaus_-0.35714_-0.2800.png"	n/a	"Ebbinghaus"	"arrowright"	"1221"	"TRUE"	"Ebbinghaus"	"-0.357140000"	"-0.280000000"	"1"	"46"
n/a	"html-keyboard-response"	"109"	"187504"	"0.0-5.0-2.0-0.28"	"7w9unt"	"600"	"1366"	"chrome"	"108.0.0"	"FALSE"	"Windows 10"	"60.88"	"130"	n/a	n/a	n/a	n/a	n/a	n/a	"fixation"	n/a	n/a	n/a	n/a	"NULL"	n/a	"NULL"	"NULL"	"NULL"	"<p style=\"color: black; font-size: 80px; padding-left: 8%; padding-right: 18%; padding-top: 29%; padding-bottom: 33%\">+</p>"	"1206"	n/a	n/a	n/a	n/a	n/a	n/a	n/a	n/a	n/a
n/a	"image-keyboard-response"	"110"	"188409"	"0.0-5.0-2.0-1.28"	"7w9unt"	"600"	"1366"	"chrome"	"108.0.0"	"FALSE"	"Windows 10"	"60.88"	"130"	n/a	n/a	n/a	n/a	n/a	n/a	"Trial"	n/a	n/a	n/a	"904"	"arrowleft"	n/a	"NULL"	"NULL"	"NULL"	"stimuli/Ebbinghaus_0.35714_0.15857.png"	n/a	"Ebbinghaus"	"arrowleft"	"1208"	"TRUE"	"Ebbinghaus"	"0.3571400000"	"0.1585700000"	"1"	"47"
n/a	"html-keyboard-response"	"111"	"189748"	"0.0-5.0-2.0-0.29"	"7w9unt"	"600"	"1366"	"chrome"	"108.0.0"	"FALSE"	"Windows 10"	"60.88"	"130"	n/a	n/a	n/a	n/a	n/a	n/a	"fixation"	n/a	n/a	n/a	n/a	"NULL"	n/a	"NULL"	"NULL"	"NULL"	"<p style=\"color: black; font-size: 80px; padding-left: 35%; padding-right: 18%; padding-top: 27%; padding-bottom: 25%\">+</p>"	"1318"	n/a	n/a	n/a	n/a	n/a	n/a	n/a	n/a	n/a
n/a	"image-keyboard-response"	"112"	"190432"	"0.0-5.0-2.0-1.29"	"7w9unt"	"600"	"1366"	"chrome"	"108.0.0"	"FALSE"	"Windows 10"	"60.88"	"130"	n/a	n/a	n/a	n/a	n/a	n/a	"Trial"	n/a	n/a	n/a	"681"	"arrowright"	n/a	"NULL"	"NULL"	"NULL"	"stimuli/Ebbinghaus_0.87143_0.11071.png"	n/a	"Ebbinghaus"	"arrowleft"	"1339"	"FALSE"	"Ebbinghaus"	"0.8714300000"	"0.1107100000"	"1"	"48"
n/a	"html-keyboard-response"	"113"	"191928"	"0.0-5.0-2.0-0.30"	"7w9unt"	"600"	"1366"	"chrome"	"108.0.0"	"FALSE"	"Windows 10"	"60.88"	"130"	n/a	n/a	n/a	n/a	n/a	n/a	"fixation"	n/a	n/a	n/a	n/a	"NULL"	n/a	"NULL"	"NULL"	"NULL"	"<p style=\"color: black; font-size: 80px; padding-left: 31%; padding-right: 11%; padding-top: 34%; padding-bottom: 31%\">+</p>"	"1482"	n/a	n/a	n/a	n/a	n/a	n/a	n/a	n/a	n/a
n/a	"image-keyboard-response"	"114"	"192685"	"0.0-5.0-2.0-1.30"	"7w9unt"	"600"	"1366"	"chrome"	"108.0.0"	"FALSE"	"Windows 10"	"60.88"	"130"	n/a	n/a	n/a	n/a	n/a	n/a	"Trial"	n/a	n/a	n/a	"756"	"arrowright"	n/a	"NULL"	"NULL"	"NULL"	"stimuli/Ebbinghaus_-0.1000_-0.11071.png"	n/a	"Ebbinghaus"	"arrowright"	"1496"	"TRUE"	"Ebbinghaus"	"-0.100000000"	"-0.110710000"	"1"	"49"
n/a	"html-keyboard-response"	"115"	"194184"	"0.0-5.0-2.0-0.31"	"7w9unt"	"600"	"1366"	"chrome"	"108.0.0"	"FALSE"	"Windows 10"	"60.88"	"130"	n/a	n/a	n/a	n/a	n/a	n/a	"fixation"	n/a	n/a	n/a	n/a	"NULL"	n/a	"NULL"	"NULL"	"NULL"	"<p style=\"color: black; font-size: 80px; padding-left: 15%; padding-right: 1%; padding-top: 45%; padding-bottom: 46%\">+</p>"	"1494"	n/a	n/a	n/a	n/a	n/a	n/a	n/a	n/a	n/a
n/a	"image-keyboard-response"	"116"	"194831"	"0.0-5.0-2.0-1.31"	"7w9unt"	"600"	"1366"	"chrome"	"108.0.0"	"FALSE"	"Windows 10"	"60.88"	"130"	n/a	n/a	n/a	n/a	n/a	n/a	"Trial"	n/a	n/a	n/a	"645"	"arrowright"	n/a	"NULL"	"NULL"	"NULL"	"stimuli/Ebbinghaus_-0.87143_-0.2150.png"	n/a	"Ebbinghaus"	"arrowright"	"1499"	"TRUE"	"Ebbinghaus"	"-0.871430000"	"-0.215000000"	"1"	"50"
n/a	"html-keyboard-response"	"117"	"196130"	"0.0-5.0-2.0-0.32"	"7w9unt"	"600"	"1366"	"chrome"	"108.0.0"	"FALSE"	"Windows 10"	"60.88"	"130"	n/a	n/a	n/a	n/a	n/a	n/a	"fixation"	n/a	n/a	n/a	n/a	"NULL"	n/a	"NULL"	"NULL"	"NULL"	"<p style=\"color: black; font-size: 80px; padding-left: 27%; padding-right: 11%; padding-top: 26%; padding-bottom: 9%\">+</p>"	"1292"	n/a	n/a	n/a	n/a	n/a	n/a	n/a	n/a	n/a
n/a	"image-keyboard-response"	"118"	"196761"	"0.0-5.0-2.0-1.32"	"7w9unt"	"600"	"1366"	"chrome"	"108.0.0"	"FALSE"	"Windows 10"	"60.88"	"130"	n/a	n/a	n/a	n/a	n/a	n/a	"Trial"	n/a	n/a	n/a	"630"	"arrowleft"	n/a	"NULL"	"NULL"	"NULL"	"stimuli/Ebbinghaus_-0.35714_0.11071.png"	n/a	"Ebbinghaus"	"arrowleft"	"1299"	"TRUE"	"Ebbinghaus"	"-0.357140000"	"0.1107100000"	"1"	"51"
n/a	"html-keyboard-response"	"119"	"197815"	"0.0-5.0-2.0-0.33"	"7w9unt"	"600"	"1366"	"chrome"	"108.0.0"	"FALSE"	"Windows 10"	"60.88"	"130"	n/a	n/a	n/a	n/a	n/a	n/a	"fixation"	n/a	n/a	n/a	n/a	"NULL"	n/a	"NULL"	"NULL"	"NULL"	"<p style=\"color: black; font-size: 80px; padding-left: 21%; padding-right: 3%; padding-top: 3%; padding-bottom: 26%\">+</p>"	"1033"	n/a	n/a	n/a	n/a	n/a	n/a	n/a	n/a	n/a
n/a	"image-keyboard-response"	"120"	"198769"	"0.0-5.0-2.0-1.33"	"7w9unt"	"600"	"1366"	"chrome"	"108.0.0"	"FALSE"	"Windows 10"	"60.88"	"130"	n/a	n/a	n/a	n/a	n/a	n/a	"Trial"	n/a	n/a	n/a	"951"	"arrowleft"	n/a	"NULL"	"NULL"	"NULL"	"stimuli/Ebbinghaus_0.61429_-0.11071.png"	n/a	"Ebbinghaus"	"arrowright"	"1054"	"FALSE"	"Ebbinghaus"	"0.6142900000"	"-0.110710000"	"1"	"52"
n/a	"html-keyboard-response"	"121"	"199913"	"0.0-5.0-2.0-0.34"	"7w9unt"	"600"	"1366"	"chrome"	"108.0.0"	"FALSE"	"Windows 10"	"60.88"	"130"	n/a	n/a	n/a	n/a	n/a	n/a	"fixation"	n/a	n/a	n/a	n/a	"NULL"	n/a	"NULL"	"NULL"	"NULL"	"<p style=\"color: black; font-size: 80px; padding-left: 40%; padding-right: 22%; padding-top: 48%; padding-bottom: 17%\">+</p>"	"1129"	n/a	n/a	n/a	n/a	n/a	n/a	n/a	n/a	n/a
n/a	"image-keyboard-response"	"122"	"200708"	"0.0-5.0-2.0-1.34"	"7w9unt"	"600"	"1366"	"chrome"	"108.0.0"	"FALSE"	"Windows 10"	"60.88"	"130"	n/a	n/a	n/a	n/a	n/a	n/a	"Trial"	n/a	n/a	n/a	"795"	"arrowleft"	n/a	"NULL"	"NULL"	"NULL"	"stimuli/Ebbinghaus_-0.87143_0.15857.png"	n/a	"Ebbinghaus"	"arrowleft"	"1144"	"TRUE"	"Ebbinghaus"	"-0.871430000"	"0.1585700000"	"1"	"53"
n/a	"html-keyboard-response"	"123"	"201803"	"0.0-5.0-2.0-0.35"	"7w9unt"	"600"	"1366"	"chrome"	"108.0.0"	"FALSE"	"Windows 10"	"60.88"	"130"	n/a	n/a	n/a	n/a	n/a	n/a	"fixation"	n/a	n/a	n/a	n/a	"NULL"	n/a	"NULL"	"NULL"	"NULL"	"<p style=\"color: black; font-size: 80px; padding-left: 32%; padding-right: 47%; padding-top: 3%; padding-bottom: 16%\">+</p>"	"1076"	n/a	n/a	n/a	n/a	n/a	n/a	n/a	n/a	n/a
n/a	"image-keyboard-response"	"124"	"202461"	"0.0-5.0-2.0-1.35"	"7w9unt"	"600"	"1366"	"chrome"	"108.0.0"	"FALSE"	"Windows 10"	"60.88"	"130"	n/a	n/a	n/a	n/a	n/a	n/a	"Trial"	n/a	n/a	n/a	"657"	"arrowright"	n/a	"NULL"	"NULL"	"NULL"	"stimuli/Ebbinghaus_-0.61429_-0.15857.png"	n/a	"Ebbinghaus"	"arrowright"	"1095"	"TRUE"	"Ebbinghaus"	"-0.614290000"	"-0.158570000"	"1"	"54"
n/a	"html-keyboard-response"	"125"	"203887"	"0.0-5.0-2.0-0.36"	"7w9unt"	"600"	"1366"	"chrome"	"108.0.0"	"FALSE"	"Windows 10"	"60.88"	"130"	n/a	n/a	n/a	n/a	n/a	n/a	"fixation"	n/a	n/a	n/a	n/a	"NULL"	n/a	"NULL"	"NULL"	"NULL"	"<p style=\"color: black; font-size: 80px; padding-left: 29%; padding-right: 5%; padding-top: 8%; padding-bottom: 23%\">+</p>"	"1403"	n/a	n/a	n/a	n/a	n/a	n/a	n/a	n/a	n/a
n/a	"image-keyboard-response"	"126"	"204601"	"0.0-5.0-2.0-1.36"	"7w9unt"	"600"	"1366"	"chrome"	"108.0.0"	"FALSE"	"Windows 10"	"60.88"	"130"	n/a	n/a	n/a	n/a	n/a	n/a	"Trial"	n/a	n/a	n/a	"714"	"arrowleft"	n/a	"NULL"	"NULL"	"NULL"	"stimuli/Ebbinghaus_-0.35714_0.28000.png"	n/a	"Ebbinghaus"	"arrowleft"	"1426"	"TRUE"	"Ebbinghaus"	"-0.357140000"	"0.2800000000"	"1"	"55"
n/a	"html-keyboard-response"	"127"	"205952"	"0.0-5.0-2.0-0.37"	"7w9unt"	"600"	"1366"	"chrome"	"108.0.0"	"FALSE"	"Windows 10"	"60.88"	"130"	n/a	n/a	n/a	n/a	n/a	n/a	"fixation"	n/a	n/a	n/a	n/a	"NULL"	n/a	"NULL"	"NULL"	"NULL"	"<p style=\"color: black; font-size: 80px; padding-left: 41%; padding-right: 21%; padding-top: 37%; padding-bottom: 22%\">+</p>"	"1343"	n/a	n/a	n/a	n/a	n/a	n/a	n/a	n/a	n/a
n/a	"image-keyboard-response"	"128"	"206718"	"0.0-5.0-2.0-1.37"	"7w9unt"	"600"	"1366"	"chrome"	"108.0.0"	"FALSE"	"Windows 10"	"60.88"	"130"	n/a	n/a	n/a	n/a	n/a	n/a	"Trial"	n/a	n/a	n/a	"766"	"arrowright"	n/a	"NULL"	"NULL"	"NULL"	"stimuli/Ebbinghaus_0.87143_-0.2800.png"	n/a	"Ebbinghaus"	"arrowright"	"1351"	"TRUE"	"Ebbinghaus"	"0.8714300000"	"-0.280000000"	"1"	"56"
n/a	"html-keyboard-response"	"129"	"207958"	"0.0-5.0-2.0-0.38"	"7w9unt"	"600"	"1366"	"chrome"	"108.0.0"	"FALSE"	"Windows 10"	"60.88"	"130"	n/a	n/a	n/a	n/a	n/a	n/a	"fixation"	n/a	n/a	n/a	n/a	"NULL"	n/a	"NULL"	"NULL"	"NULL"	"<p style=\"color: black; font-size: 80px; padding-left: 16%; padding-right: 50%; padding-top: 19%; padding-bottom: 30%\">+</p>"	"1226"	n/a	n/a	n/a	n/a	n/a	n/a	n/a	n/a	n/a
n/a	"image-keyboard-response"	"130"	"208503"	"0.0-5.0-2.0-1.38"	"7w9unt"	"600"	"1366"	"chrome"	"108.0.0"	"FALSE"	"Windows 10"	"60.88"	"130"	n/a	n/a	n/a	n/a	n/a	n/a	"Trial"	n/a	n/a	n/a	"544"	"arrowright"	n/a	"NULL"	"NULL"	"NULL"	"stimuli/Ebbinghaus_-0.87143_-0.11071.png"	n/a	"Ebbinghaus"	"arrowright"	"1240"	"TRUE"	"Ebbinghaus"	"-0.871430000"	"-0.110710000"	"1"	"57"
n/a	"html-keyboard-response"	"131"	"209853"	"0.0-5.0-2.0-0.39"	"7w9unt"	"600"	"1366"	"chrome"	"108.0.0"	"FALSE"	"Windows 10"	"60.88"	"130"	n/a	n/a	n/a	n/a	n/a	n/a	"fixation"	n/a	n/a	n/a	n/a	"NULL"	n/a	"NULL"	"NULL"	"NULL"	"<p style=\"color: black; font-size: 80px; padding-left: 20%; padding-right: 41%; padding-top: 6%; padding-bottom: 24%\">+</p>"	"1341"	n/a	n/a	n/a	n/a	n/a	n/a	n/a	n/a	n/a
n/a	"image-keyboard-response"	"132"	"210464"	"0.0-5.0-2.0-1.39"	"7w9unt"	"600"	"1366"	"chrome"	"108.0.0"	"FALSE"	"Windows 10"	"60.88"	"130"	n/a	n/a	n/a	n/a	n/a	n/a	"Trial"	n/a	n/a	n/a	"610"	"arrowright"	n/a	"NULL"	"NULL"	"NULL"	"stimuli/Ebbinghaus_0.10000_-0.15857.png"	n/a	"Ebbinghaus"	"arrowright"	"1350"	"TRUE"	"Ebbinghaus"	"0.1000000000"	"-0.158570000"	"1"	"58"
n/a	"html-keyboard-response"	"133"	"211922"	"0.0-5.0-2.0-0.40"	"7w9unt"	"600"	"1366"	"chrome"	"108.0.0"	"FALSE"	"Windows 10"	"60.88"	"130"	n/a	n/a	n/a	n/a	n/a	n/a	"fixation"	n/a	n/a	n/a	n/a	"NULL"	n/a	"NULL"	"NULL"	"NULL"	"<p style=\"color: black; font-size: 80px; padding-left: 0%; padding-right: 33%; padding-top: 3%; padding-bottom: 19%\">+</p>"	"1451"	n/a	n/a	n/a	n/a	n/a	n/a	n/a	n/a	n/a
n/a	"image-keyboard-response"	"134"	"212502"	"0.0-5.0-2.0-1.40"	"7w9unt"	"600"	"1366"	"chrome"	"108.0.0"	"FALSE"	"Windows 10"	"60.88"	"130"	n/a	n/a	n/a	n/a	n/a	n/a	"Trial"	n/a	n/a	n/a	"569"	"arrowleft"	n/a	"NULL"	"NULL"	"NULL"	"stimuli/Ebbinghaus_-0.61429_0.15857.png"	n/a	"Ebbinghaus"	"arrowleft"	"1458"	"TRUE"	"Ebbinghaus"	"-0.614290000"	"0.1585700000"	"1"	"59"
n/a	"html-keyboard-response"	"135"	"213925"	"0.0-5.0-2.0-0.41"	"7w9unt"	"600"	"1366"	"chrome"	"108.0.0"	"FALSE"	"Windows 10"	"60.88"	"130"	n/a	n/a	n/a	n/a	n/a	n/a	"fixation"	n/a	n/a	n/a	n/a	"NULL"	n/a	"NULL"	"NULL"	"NULL"	"<p style=\"color: black; font-size: 80px; padding-left: 25%; padding-right: 22%; padding-top: 27%; padding-bottom: 47%\">+</p>"	"1411"	n/a	n/a	n/a	n/a	n/a	n/a	n/a	n/a	n/a
n/a	"image-keyboard-response"	"136"	"214438"	"0.0-5.0-2.0-1.41"	"7w9unt"	"600"	"1366"	"chrome"	"108.0.0"	"FALSE"	"Windows 10"	"60.88"	"130"	n/a	n/a	n/a	n/a	n/a	n/a	"Trial"	n/a	n/a	n/a	"512"	"arrowleft"	n/a	"NULL"	"NULL"	"NULL"	"stimuli/Ebbinghaus_-0.87143_0.21500.png"	n/a	"Ebbinghaus"	"arrowleft"	"1423"	"TRUE"	"Ebbinghaus"	"-0.871430000"	"0.2150000000"	"1"	"60"
n/a	"html-keyboard-response"	"137"	"215684"	"0.0-5.0-2.0-0.42"	"7w9unt"	"600"	"1366"	"chrome"	"108.0.0"	"FALSE"	"Windows 10"	"60.88"	"130"	n/a	n/a	n/a	n/a	n/a	n/a	"fixation"	n/a	n/a	n/a	n/a	"NULL"	n/a	"NULL"	"NULL"	"NULL"	"<p style=\"color: black; font-size: 80px; padding-left: 22%; padding-right: 30%; padding-top: 38%; padding-bottom: 43%\">+</p>"	"1238"	n/a	n/a	n/a	n/a	n/a	n/a	n/a	n/a	n/a
n/a	"image-keyboard-response"	"138"	"216498"	"0.0-5.0-2.0-1.42"	"7w9unt"	"600"	"1366"	"chrome"	"108.0.0"	"FALSE"	"Windows 10"	"60.88"	"130"	n/a	n/a	n/a	n/a	n/a	n/a	"Trial"	n/a	n/a	n/a	"812"	"arrowleft"	n/a	"NULL"	"NULL"	"NULL"	"stimuli/Ebbinghaus_0.10000_0.15857.png"	n/a	"Ebbinghaus"	"arrowleft"	"1246"	"TRUE"	"Ebbinghaus"	"0.1000000000"	"0.1585700000"	"1"	"61"
n/a	"html-keyboard-response"	"139"	"217817"	"0.0-5.0-2.0-0.43"	"7w9unt"	"600"	"1366"	"chrome"	"108.0.0"	"FALSE"	"Windows 10"	"60.88"	"130"	n/a	n/a	n/a	n/a	n/a	n/a	"fixation"	n/a	n/a	n/a	n/a	"NULL"	n/a	"NULL"	"NULL"	"NULL"	"<p style=\"color: black; font-size: 80px; padding-left: 5%; padding-right: 13%; padding-top: 14%; padding-bottom: 30%\">+</p>"	"1304"	n/a	n/a	n/a	n/a	n/a	n/a	n/a	n/a	n/a
n/a	"image-keyboard-response"	"140"	"218394"	"0.0-5.0-2.0-1.43"	"7w9unt"	"600"	"1366"	"chrome"	"108.0.0"	"FALSE"	"Windows 10"	"60.88"	"130"	n/a	n/a	n/a	n/a	n/a	n/a	"Trial"	n/a	n/a	n/a	"576"	"arrowleft"	n/a	"NULL"	"NULL"	"NULL"	"stimuli/Ebbinghaus_-0.87143_0.11071.png"	n/a	"Ebbinghaus"	"arrowleft"	"1319"	"TRUE"	"Ebbinghaus"	"-0.871430000"	"0.1107100000"	"1"	"62"
n/a	"html-keyboard-response"	"141"	"219856"	"0.0-5.0-2.0-0.44"	"7w9unt"	"600"	"1366"	"chrome"	"108.0.0"	"FALSE"	"Windows 10"	"60.88"	"130"	n/a	n/a	n/a	n/a	n/a	n/a	"fixation"	n/a	n/a	n/a	n/a	"NULL"	n/a	"NULL"	"NULL"	"NULL"	"<p style=\"color: black; font-size: 80px; padding-left: 24%; padding-right: 19%; padding-top: 42%; padding-bottom: 6%\">+</p>"	"1443"	n/a	n/a	n/a	n/a	n/a	n/a	n/a	n/a	n/a
n/a	"image-keyboard-response"	"142"	"220364"	"0.0-5.0-2.0-1.44"	"7w9unt"	"600"	"1366"	"chrome"	"108.0.0"	"FALSE"	"Windows 10"	"60.88"	"130"	n/a	n/a	n/a	n/a	n/a	n/a	"Trial"	n/a	n/a	n/a	"507"	"arrowright"	n/a	"NULL"	"NULL"	"NULL"	"stimuli/Ebbinghaus_0.10000_-0.2800.png"	n/a	"Ebbinghaus"	"arrowright"	"1462"	"TRUE"	"Ebbinghaus"	"0.1000000000"	"-0.280000000"	"1"	"63"
n/a	"html-keyboard-response"	"143"	"221878"	"0.0-5.0-2.0-0.45"	"7w9unt"	"600"	"1366"	"chrome"	"108.0.0"	"FALSE"	"Windows 10"	"60.88"	"130"	n/a	n/a	n/a	n/a	n/a	n/a	"fixation"	n/a	n/a	n/a	n/a	"NULL"	n/a	"NULL"	"NULL"	"NULL"	"<p style=\"color: black; font-size: 80px; padding-left: 43%; padding-right: 40%; padding-top: 4%; padding-bottom: 26%\">+</p>"	"1494"	n/a	n/a	n/a	n/a	n/a	n/a	n/a	n/a	n/a
n/a	"image-keyboard-response"	"144"	"222391"	"0.0-5.0-2.0-1.45"	"7w9unt"	"600"	"1366"	"chrome"	"108.0.0"	"FALSE"	"Windows 10"	"60.88"	"130"	n/a	n/a	n/a	n/a	n/a	n/a	"Trial"	n/a	n/a	n/a	"511"	"arrowleft"	n/a	"NULL"	"NULL"	"NULL"	"stimuli/Ebbinghaus_0.87143_0.21500.png"	n/a	"Ebbinghaus"	"arrowleft"	"1514"	"TRUE"	"Ebbinghaus"	"0.8714300000"	"0.2150000000"	"1"	"64"
n/a	"html-keyboard-response"	"145"	"223612"	"0.0-5.0-2.0-0.46"	"7w9unt"	"600"	"1366"	"chrome"	"108.0.0"	"FALSE"	"Windows 10"	"60.88"	"130"	n/a	n/a	n/a	n/a	n/a	n/a	"fixation"	n/a	n/a	n/a	n/a	"NULL"	n/a	"NULL"	"NULL"	"NULL"	"<p style=\"color: black; font-size: 80px; padding-left: 42%; padding-right: 27%; padding-top: 45%; padding-bottom: 18%\">+</p>"	"1210"	n/a	n/a	n/a	n/a	n/a	n/a	n/a	n/a	n/a
n/a	"image-keyboard-response"	"146"	"224180"	"0.0-5.0-2.0-1.46"	"7w9unt"	"600"	"1366"	"chrome"	"108.0.0"	"FALSE"	"Windows 10"	"60.88"	"130"	n/a	n/a	n/a	n/a	n/a	n/a	"Trial"	n/a	n/a	n/a	"568"	"arrowright"	n/a	"NULL"	"NULL"	"NULL"	"stimuli/Ebbinghaus_-0.61429_-0.2800.png"	n/a	"Ebbinghaus"	"arrowright"	"1221"	"TRUE"	"Ebbinghaus"	"-0.614290000"	"-0.280000000"	"1"	"65"
n/a	"html-keyboard-response"	"147"	"225442"	"0.0-5.0-2.0-0.47"	"7w9unt"	"600"	"1366"	"chrome"	"108.0.0"	"FALSE"	"Windows 10"	"60.88"	"130"	n/a	n/a	n/a	n/a	n/a	n/a	"fixation"	n/a	n/a	n/a	n/a	"NULL"	n/a	"NULL"	"NULL"	"NULL"	"<p style=\"color: black; font-size: 80px; padding-left: 33%; padding-right: 45%; padding-top: 21%; padding-bottom: 41%\">+</p>"	"1255"	n/a	n/a	n/a	n/a	n/a	n/a	n/a	n/a	n/a
n/a	"image-keyboard-response"	"148"	"226082"	"0.0-5.0-2.0-1.47"	"7w9unt"	"600"	"1366"	"chrome"	"108.0.0"	"FALSE"	"Windows 10"	"60.88"	"130"	n/a	n/a	n/a	n/a	n/a	n/a	"Trial"	n/a	n/a	n/a	"640"	"arrowleft"	n/a	"NULL"	"NULL"	"NULL"	"stimuli/Ebbinghaus_-0.1000_0.11071.png"	n/a	"Ebbinghaus"	"arrowleft"	"1262"	"TRUE"	"Ebbinghaus"	"-0.100000000"	"0.1107100000"	"1"	"66"
n/a	"html-keyboard-response"	"149"	"227365"	"0.0-5.0-2.0-0.48"	"7w9unt"	"600"	"1366"	"chrome"	"108.0.0"	"FALSE"	"Windows 10"	"60.88"	"130"	n/a	n/a	n/a	n/a	n/a	n/a	"fixation"	n/a	n/a	n/a	n/a	"NULL"	n/a	"NULL"	"NULL"	"NULL"	"<p style=\"color: black; font-size: 80px; padding-left: 11%; padding-right: 41%; padding-top: 18%; padding-bottom: 21%\">+</p>"	"1273"	n/a	n/a	n/a	n/a	n/a	n/a	n/a	n/a	n/a
n/a	"image-keyboard-response"	"150"	"228220"	"0.0-5.0-2.0-1.48"	"7w9unt"	"600"	"1366"	"chrome"	"108.0.0"	"FALSE"	"Windows 10"	"60.88"	"130"	n/a	n/a	n/a	n/a	n/a	n/a	"Trial"	n/a	n/a	n/a	"852"	"arrowright"	n/a	"NULL"	"NULL"	"NULL"	"stimuli/Ebbinghaus_0.35714_-0.2150.png"	n/a	"Ebbinghaus"	"arrowright"	"1283"	"TRUE"	"Ebbinghaus"	"0.3571400000"	"-0.215000000"	"1"	"67"
n/a	"html-keyboard-response"	"151"	"229299"	"0.0-5.0-2.0-0.49"	"7w9unt"	"600"	"1366"	"chrome"	"108.0.0"	"FALSE"	"Windows 10"	"60.88"	"130"	n/a	n/a	n/a	n/a	n/a	n/a	"fixation"	n/a	n/a	n/a	n/a	"NULL"	n/a	"NULL"	"NULL"	"NULL"	"<p style=\"color: black; font-size: 80px; padding-left: 38%; padding-right: 34%; padding-top: 2%; padding-bottom: 25%\">+</p>"	"1062"	n/a	n/a	n/a	n/a	n/a	n/a	n/a	n/a	n/a
n/a	"image-keyboard-response"	"152"	"230163"	"0.0-5.0-2.0-1.49"	"7w9unt"	"600"	"1366"	"chrome"	"108.0.0"	"FALSE"	"Windows 10"	"60.88"	"130"	n/a	n/a	n/a	n/a	n/a	n/a	"Trial"	n/a	n/a	n/a	"863"	"arrowleft"	n/a	"NULL"	"NULL"	"NULL"	"stimuli/Ebbinghaus_0.61429_0.21500.png"	n/a	"Ebbinghaus"	"arrowleft"	"1079"	"TRUE"	"Ebbinghaus"	"0.6142900000"	"0.2150000000"	"1"	"68"
n/a	"html-keyboard-response"	"153"	"231667"	"0.0-5.0-2.0-0.50"	"7w9unt"	"600"	"1366"	"chrome"	"108.0.0"	"FALSE"	"Windows 10"	"60.88"	"130"	n/a	n/a	n/a	n/a	n/a	n/a	"fixation"	n/a	n/a	n/a	n/a	"NULL"	n/a	"NULL"	"NULL"	"NULL"	"<p style=\"color: black; font-size: 80px; padding-left: 26%; padding-right: 45%; padding-top: 18%; padding-bottom: 16%\">+</p>"	"1487"	n/a	n/a	n/a	n/a	n/a	n/a	n/a	n/a	n/a
n/a	"image-keyboard-response"	"154"	"232636"	"0.0-5.0-2.0-1.50"	"7w9unt"	"600"	"1366"	"chrome"	"108.0.0"	"FALSE"	"Windows 10"	"60.88"	"130"	n/a	n/a	n/a	n/a	n/a	n/a	"Trial"	n/a	n/a	n/a	"967"	"arrowleft"	n/a	"NULL"	"NULL"	"NULL"	"stimuli/Ebbinghaus_0.10000_0.11071.png"	n/a	"Ebbinghaus"	"arrowleft"	"1504"	"TRUE"	"Ebbinghaus"	"0.1000000000"	"0.1107100000"	"1"	"69"
n/a	"html-keyboard-response"	"155"	"234139"	"0.0-5.0-2.0-0.51"	"7w9unt"	"600"	"1366"	"chrome"	"108.0.0"	"FALSE"	"Windows 10"	"60.88"	"130"	n/a	n/a	n/a	n/a	n/a	n/a	"fixation"	n/a	n/a	n/a	n/a	"NULL"	n/a	"NULL"	"NULL"	"NULL"	"<p style=\"color: black; font-size: 80px; padding-left: 47%; padding-right: 27%; padding-top: 23%; padding-bottom: 19%\">+</p>"	"1486"	n/a	n/a	n/a	n/a	n/a	n/a	n/a	n/a	n/a
n/a	"image-keyboard-response"	"156"	"234850"	"0.0-5.0-2.0-1.51"	"7w9unt"	"600"	"1366"	"chrome"	"108.0.0"	"FALSE"	"Windows 10"	"60.88"	"130"	n/a	n/a	n/a	n/a	n/a	n/a	"Trial"	n/a	n/a	n/a	"709"	"arrowleft"	n/a	"NULL"	"NULL"	"NULL"	"stimuli/Ebbinghaus_-0.61429_0.21500.png"	n/a	"Ebbinghaus"	"arrowleft"	"1503"	"TRUE"	"Ebbinghaus"	"-0.614290000"	"0.2150000000"	"1"	"70"
n/a	"html-keyboard-response"	"157"	"236161"	"0.0-5.0-2.0-0.52"	"7w9unt"	"600"	"1366"	"chrome"	"108.0.0"	"FALSE"	"Windows 10"	"60.88"	"130"	n/a	n/a	n/a	n/a	n/a	n/a	"fixation"	n/a	n/a	n/a	n/a	"NULL"	n/a	"NULL"	"NULL"	"NULL"	"<p style=\"color: black; font-size: 80px; padding-left: 8%; padding-right: 25%; padding-top: 35%; padding-bottom: 10%\">+</p>"	"1305"	n/a	n/a	n/a	n/a	n/a	n/a	n/a	n/a	n/a
n/a	"image-keyboard-response"	"158"	"236892"	"0.0-5.0-2.0-1.52"	"7w9unt"	"600"	"1366"	"chrome"	"108.0.0"	"FALSE"	"Windows 10"	"60.88"	"130"	n/a	n/a	n/a	n/a	n/a	n/a	"Trial"	n/a	n/a	n/a	"731"	"arrowright"	n/a	"NULL"	"NULL"	"NULL"	"stimuli/Ebbinghaus_0.35714_-0.15857.png"	n/a	"Ebbinghaus"	"arrowright"	"1311"	"TRUE"	"Ebbinghaus"	"0.3571400000"	"-0.158570000"	"1"	"71"
n/a	"html-keyboard-response"	"159"	"238331"	"0.0-5.0-2.0-0.53"	"7w9unt"	"600"	"1366"	"chrome"	"108.0.0"	"FALSE"	"Windows 10"	"60.88"	"130"	n/a	n/a	n/a	n/a	n/a	n/a	"fixation"	n/a	n/a	n/a	n/a	"NULL"	n/a	"NULL"	"NULL"	"NULL"	"<p style=\"color: black; font-size: 80px; padding-left: 9%; padding-right: 25%; padding-top: 6%; padding-bottom: 21%\">+</p>"	"1432"	n/a	n/a	n/a	n/a	n/a	n/a	n/a	n/a	n/a
n/a	"image-keyboard-response"	"160"	"239000"	"0.0-5.0-2.0-1.53"	"7w9unt"	"600"	"1366"	"chrome"	"108.0.0"	"FALSE"	"Windows 10"	"60.88"	"130"	n/a	n/a	n/a	n/a	n/a	n/a	"Trial"	n/a	n/a	n/a	"669"	"arrowright"	n/a	"NULL"	"NULL"	"NULL"	"stimuli/Ebbinghaus_0.10000_-0.2150.png"	n/a	"Ebbinghaus"	"arrowright"	"1439"	"TRUE"	"Ebbinghaus"	"0.1000000000"	"-0.215000000"	"1"	"72"
n/a	"html-keyboard-response"	"161"	"240262"	"0.0-5.0-2.0-0.54"	"7w9unt"	"600"	"1366"	"chrome"	"108.0.0"	"FALSE"	"Windows 10"	"60.88"	"130"	n/a	n/a	n/a	n/a	n/a	n/a	"fixation"	n/a	n/a	n/a	n/a	"NULL"	n/a	"NULL"	"NULL"	"NULL"	"<p style=\"color: black; font-size: 80px; padding-left: 41%; padding-right: 26%; padding-top: 47%; padding-bottom: 15%\">+</p>"	"1244"	n/a	n/a	n/a	n/a	n/a	n/a	n/a	n/a	n/a
n/a	"image-keyboard-response"	"162"	"241048"	"0.0-5.0-2.0-1.54"	"7w9unt"	"600"	"1366"	"chrome"	"108.0.0"	"FALSE"	"Windows 10"	"60.88"	"130"	n/a	n/a	n/a	n/a	n/a	n/a	"Trial"	n/a	n/a	n/a	"785"	"arrowright"	n/a	"NULL"	"NULL"	"NULL"	"stimuli/Ebbinghaus_0.61429_-0.15857.png"	n/a	"Ebbinghaus"	"arrowright"	"1262"	"TRUE"	"Ebbinghaus"	"0.6142900000"	"-0.158570000"	"1"	"73"
n/a	"html-keyboard-response"	"163"	"242489"	"0.0-5.0-2.0-0.55"	"7w9unt"	"600"	"1366"	"chrome"	"108.0.0"	"FALSE"	"Windows 10"	"60.88"	"130"	n/a	n/a	n/a	n/a	n/a	n/a	"fixation"	n/a	n/a	n/a	n/a	"NULL"	n/a	"NULL"	"NULL"	"NULL"	"<p style=\"color: black; font-size: 80px; padding-left: 3%; padding-right: 24%; padding-top: 40%; padding-bottom: 3%\">+</p>"	"1439"	n/a	n/a	n/a	n/a	n/a	n/a	n/a	n/a	n/a
n/a	"image-keyboard-response"	"164"	"243089"	"0.0-5.0-2.0-1.55"	"7w9unt"	"600"	"1366"	"chrome"	"108.0.0"	"FALSE"	"Windows 10"	"60.88"	"130"	n/a	n/a	n/a	n/a	n/a	n/a	"Trial"	n/a	n/a	n/a	"599"	"arrowleft"	n/a	"NULL"	"NULL"	"NULL"	"stimuli/Ebbinghaus_-0.61429_0.11071.png"	n/a	"Ebbinghaus"	"arrowleft"	"1441"	"TRUE"	"Ebbinghaus"	"-0.614290000"	"0.1107100000"	"1"	"74"
n/a	"html-keyboard-response"	"165"	"244129"	"0.0-5.0-2.0-0.56"	"7w9unt"	"600"	"1366"	"chrome"	"108.0.0"	"FALSE"	"Windows 10"	"60.88"	"130"	n/a	n/a	n/a	n/a	n/a	n/a	"fixation"	n/a	n/a	n/a	n/a	"NULL"	n/a	"NULL"	"NULL"	"NULL"	"<p style=\"color: black; font-size: 80px; padding-left: 38%; padding-right: 39%; padding-top: 47%; padding-bottom: 19%\">+</p>"	"1028"	n/a	n/a	n/a	n/a	n/a	n/a	n/a	n/a	n/a
n/a	"image-keyboard-response"	"166"	"244699"	"0.0-5.0-2.0-1.56"	"7w9unt"	"600"	"1366"	"chrome"	"108.0.0"	"FALSE"	"Windows 10"	"60.88"	"130"	n/a	n/a	n/a	n/a	n/a	n/a	"Trial"	n/a	n/a	n/a	"569"	"arrowleft"	n/a	"NULL"	"NULL"	"NULL"	"stimuli/Ebbinghaus_0.35714_0.11071.png"	n/a	"Ebbinghaus"	"arrowleft"	"1040"	"TRUE"	"Ebbinghaus"	"0.3571400000"	"0.1107100000"	"1"	"75"
n/a	"html-keyboard-response"	"167"	"246033"	"0.0-5.0-2.0-0.57"	"7w9unt"	"600"	"1366"	"chrome"	"108.0.0"	"FALSE"	"Windows 10"	"60.88"	"130"	n/a	n/a	n/a	n/a	n/a	n/a	"fixation"	n/a	n/a	n/a	n/a	"NULL"	n/a	"NULL"	"NULL"	"NULL"	"<p style=\"color: black; font-size: 80px; padding-left: 16%; padding-right: 18%; padding-top: 2%; padding-bottom: 20%\">+</p>"	"1322"	n/a	n/a	n/a	n/a	n/a	n/a	n/a	n/a	n/a
n/a	"image-keyboard-response"	"168"	"246525"	"0.0-5.0-2.0-1.57"	"7w9unt"	"600"	"1366"	"chrome"	"108.0.0"	"FALSE"	"Windows 10"	"60.88"	"130"	n/a	n/a	n/a	n/a	n/a	n/a	"Trial"	n/a	n/a	n/a	"491"	"arrowleft"	n/a	"NULL"	"NULL"	"NULL"	"stimuli/Ebbinghaus_-0.1000_0.28000.png"	n/a	"Ebbinghaus"	"arrowleft"	"1334"	"TRUE"	"Ebbinghaus"	"-0.100000000"	"0.2800000000"	"1"	"76"
n/a	"html-keyboard-response"	"169"	"247660"	"0.0-5.0-2.0-0.58"	"7w9unt"	"600"	"1366"	"chrome"	"108.0.0"	"FALSE"	"Windows 10"	"60.88"	"130"	n/a	n/a	n/a	n/a	n/a	n/a	"fixation"	n/a	n/a	n/a	n/a	"NULL"	n/a	"NULL"	"NULL"	"NULL"	"<p style=\"color: black; font-size: 80px; padding-left: 40%; padding-right: 30%; padding-top: 44%; padding-bottom: 8%\">+</p>"	"1120"	n/a	n/a	n/a	n/a	n/a	n/a	n/a	n/a	n/a
n/a	"image-keyboard-response"	"170"	"248200"	"0.0-5.0-2.0-1.58"	"7w9unt"	"600"	"1366"	"chrome"	"108.0.0"	"FALSE"	"Windows 10"	"60.88"	"130"	n/a	n/a	n/a	n/a	n/a	n/a	"Trial"	n/a	n/a	n/a	"537"	"arrowleft"	n/a	"NULL"	"NULL"	"NULL"	"stimuli/Ebbinghaus_-0.35714_0.15857.png"	n/a	"Ebbinghaus"	"arrowleft"	"1135"	"TRUE"	"Ebbinghaus"	"-0.357140000"	"0.1585700000"	"1"	"77"
n/a	"html-keyboard-response"	"171"	"249502"	"0.0-5.0-2.0-0.59"	"7w9unt"	"600"	"1366"	"chrome"	"108.0.0"	"FALSE"	"Windows 10"	"60.88"	"130"	n/a	n/a	n/a	n/a	n/a	n/a	"fixation"	n/a	n/a	n/a	n/a	"NULL"	n/a	"NULL"	"NULL"	"NULL"	"<p style=\"color: black; font-size: 80px; padding-left: 25%; padding-right: 48%; padding-top: 48%; padding-bottom: 5%\">+</p>"	"1285"	n/a	n/a	n/a	n/a	n/a	n/a	n/a	n/a	n/a
n/a	"image-keyboard-response"	"172"	"250052"	"0.0-5.0-2.0-1.59"	"7w9unt"	"600"	"1366"	"chrome"	"108.0.0"	"FALSE"	"Windows 10"	"60.88"	"130"	n/a	n/a	n/a	n/a	n/a	n/a	"Trial"	n/a	n/a	n/a	"550"	"arrowleft"	n/a	"NULL"	"NULL"	"NULL"	"stimuli/Ebbinghaus_-0.1000_0.21500.png"	n/a	"Ebbinghaus"	"arrowleft"	"1302"	"TRUE"	"Ebbinghaus"	"-0.100000000"	"0.2150000000"	"1"	"78"
n/a	"html-keyboard-response"	"173"	"251087"	"0.0-5.0-2.0-0.60"	"7w9unt"	"600"	"1366"	"chrome"	"108.0.0"	"FALSE"	"Windows 10"	"60.88"	"130"	n/a	n/a	n/a	n/a	n/a	n/a	"fixation"	n/a	n/a	n/a	n/a	"NULL"	n/a	"NULL"	"NULL"	"NULL"	"<p style=\"color: black; font-size: 80px; padding-left: 1%; padding-right: 12%; padding-top: 35%; padding-bottom: 27%\">+</p>"	"1023"	n/a	n/a	n/a	n/a	n/a	n/a	n/a	n/a	n/a
n/a	"image-keyboard-response"	"174"	"251930"	"0.0-5.0-2.0-1.60"	"7w9unt"	"600"	"1366"	"chrome"	"108.0.0"	"FALSE"	"Windows 10"	"60.88"	"130"	n/a	n/a	n/a	n/a	n/a	n/a	"Trial"	n/a	n/a	n/a	"841"	"arrowright"	n/a	"NULL"	"NULL"	"NULL"	"stimuli/Ebbinghaus_-0.1000_-0.2150.png"	n/a	"Ebbinghaus"	"arrowright"	"1035"	"TRUE"	"Ebbinghaus"	"-0.100000000"	"-0.215000000"	"1"	"79"
n/a	"html-keyboard-response"	"175"	"253285"	"0.0-5.0-2.0-0.61"	"7w9unt"	"600"	"1366"	"chrome"	"108.0.0"	"FALSE"	"Windows 10"	"60.88"	"130"	n/a	n/a	n/a	n/a	n/a	n/a	"fixation"	n/a	n/a	n/a	n/a	"NULL"	n/a	"NULL"	"NULL"	"NULL"	"<p style=\"color: black; font-size: 80px; padding-left: 34%; padding-right: 39%; padding-top: 39%; padding-bottom: 1%\">+</p>"	"1333"	n/a	n/a	n/a	n/a	n/a	n/a	n/a	n/a	n/a
n/a	"image-keyboard-response"	"176"	"253817"	"0.0-5.0-2.0-1.61"	"7w9unt"	"600"	"1366"	"chrome"	"108.0.0"	"FALSE"	"Windows 10"	"60.88"	"130"	n/a	n/a	n/a	n/a	n/a	n/a	"Trial"	n/a	n/a	n/a	"531"	"arrowleft"	n/a	"NULL"	"NULL"	"NULL"	"stimuli/Ebbinghaus_-0.1000_0.15857.png"	n/a	"Ebbinghaus"	"arrowleft"	"1355"	"TRUE"	"Ebbinghaus"	"-0.100000000"	"0.1585700000"	"1"	"80"
n/a	"html-keyboard-response"	"177"	"255051"	"0.0-5.0-2.0-0.62"	"7w9unt"	"600"	"1366"	"chrome"	"108.0.0"	"FALSE"	"Windows 10"	"60.88"	"130"	n/a	n/a	n/a	n/a	n/a	n/a	"fixation"	n/a	n/a	n/a	n/a	"NULL"	n/a	"NULL"	"NULL"	"NULL"	"<p style=\"color: black; font-size: 80px; padding-left: 43%; padding-right: 48%; padding-top: 8%; padding-bottom: 1%\">+</p>"	"1228"	n/a	n/a	n/a	n/a	n/a	n/a	n/a	n/a	n/a
n/a	"image-keyboard-response"	"178"	"255580"	"0.0-5.0-2.0-1.62"	"7w9unt"	"600"	"1366"	"chrome"	"108.0.0"	"FALSE"	"Windows 10"	"60.88"	"130"	n/a	n/a	n/a	n/a	n/a	n/a	"Trial"	n/a	n/a	n/a	"526"	"arrowleft"	n/a	"NULL"	"NULL"	"NULL"	"stimuli/Ebbinghaus_0.87143_0.28000.png"	n/a	"Ebbinghaus"	"arrowleft"	"1234"	"TRUE"	"Ebbinghaus"	"0.8714300000"	"0.2800000000"	"1"	"81"
n/a	"html-keyboard-response"	"179"	"257038"	"0.0-5.0-2.0-0.63"	"7w9unt"	"600"	"1366"	"chrome"	"108.0.0"	"FALSE"	"Windows 10"	"60.88"	"130"	n/a	n/a	n/a	n/a	n/a	n/a	"fixation"	n/a	n/a	n/a	n/a	"NULL"	n/a	"NULL"	"NULL"	"NULL"	"<p style=\"color: black; font-size: 80px; padding-left: 7%; padding-right: 29%; padding-top: 39%; padding-bottom: 27%\">+</p>"	"1438"	n/a	n/a	n/a	n/a	n/a	n/a	n/a	n/a	n/a
n/a	"image-keyboard-response"	"180"	"257705"	"0.0-5.0-2.0-1.63"	"7w9unt"	"600"	"1366"	"chrome"	"108.0.0"	"FALSE"	"Windows 10"	"60.88"	"130"	n/a	n/a	n/a	n/a	n/a	n/a	"Trial"	n/a	n/a	n/a	"666"	"arrowright"	n/a	"NULL"	"NULL"	"NULL"	"stimuli/Ebbinghaus_0.35714_-0.11071.png"	n/a	"Ebbinghaus"	"arrowright"	"1458"	"TRUE"	"Ebbinghaus"	"0.3571400000"	"-0.110710000"	"1"	"82"
n/a	"html-button-response"	"181"	"277171"	"0.0-5.0-3.0"	"7w9unt"	"600"	"1366"	"chrome"	"108.0.0"	"FALSE"	"Windows 10"	"60.88"	"130"	n/a	n/a	n/a	n/a	n/a	n/a	"block_results"	n/a	n/a	n/a	"19459"	"0"	n/a	"NULL"	"NULL"	"NULL"	"<p>Your score for this illusion is <p style=\"color: black; font-size: 48px; font-weight: bold;\">78.9 %</p><hr><p>Can you do better in the next illusion?</p>"	n/a	n/a	n/a	n/a	n/a	n/a	n/a	n/a	n/a	n/a
"TRUE"	"preload"	"182"	"277352"	"0.0-6.0-0.0"	"7w9unt"	"600"	"1366"	"chrome"	"108.0.0"	"FALSE"	"Windows 10"	"60.88"	"130"	n/a	n/a	n/a	n/a	n/a	n/a	n/a	n/a	n/a	n/a	n/a	"NULL"	"FALSE"	"list()"	"list()"	"list()"	n/a	n/a	n/a	n/a	n/a	n/a	n/a	n/a	n/a	n/a	n/a
n/a	"html-keyboard-response"	"183"	"281866"	"0.0-6.0-1.0"	"7w9unt"	"600"	"1366"	"chrome"	"108.0.0"	"FALSE"	"Windows 10"	"60.88"	"130"	n/a	n/a	n/a	n/a	n/a	n/a	n/a	n/a	n/a	n/a	"4513"	"enter"	n/a	"NULL"	"NULL"	"NULL"	"<p><b>Part 2/6</b></p><p>In this part, two red lines will appear side by side.</p><p>Your task is to tell <b>which line is longer</b> in length, regardless of their orientation, as fast as you can, and without making errors.</p><p>Don't get distracted by the orientation of the lines!</p><p>Press <b>the LEFT or the RIGHT arrow</b> to indicate which <b>line is the longer one.</b></p><div style='float: center'><img src='materials/instructions/VerticalHorizontal_Demo.png' height='300'></img><p><img src='utils/answer/answer_leftright_keyboard.PNG' height='150'></img></p><p class='small'>In this example, the correct answer is the <b>LEFT arrow</b>.</p></div><p>Are you ready? <b>Press ENTER to start</b></p>"	n/a	n/a	n/a	n/a	n/a	n/a	n/a	n/a	n/a	n/a
n/a	"html-keyboard-response"	"184"	"283515"	"0.0-6.0-2.0-0.0"	"7w9unt"	"600"	"1366"	"chrome"	"108.0.0"	"FALSE"	"Windows 10"	"60.88"	"130"	n/a	n/a	n/a	n/a	n/a	n/a	"fixation"	n/a	n/a	n/a	n/a	"NULL"	n/a	"NULL"	"NULL"	"NULL"	"<p style=\"color: black; font-size: 80px; padding-left: 6%; padding-right: 29%; padding-top: 50%; padding-bottom: 48%\">+</p>"	"1124"	n/a	n/a	n/a	n/a	n/a	n/a	n/a	n/a	n/a
n/a	"image-keyboard-response"	"185"	"284575"	"0.0-6.0-2.0-1.0"	"7w9unt"	"600"	"1366"	"chrome"	"108.0.0"	"FALSE"	"Windows 10"	"60.88"	"130"	n/a	n/a	n/a	n/a	n/a	n/a	"Trial"	n/a	n/a	n/a	"1058"	"arrowright"	n/a	"NULL"	"NULL"	"NULL"	"stimuli/VerticalHorizontal_20.27143_0.06730.png"	n/a	"VerticalHorizontal"	"arrowleft"	"1649"	"FALSE"	"VerticalHorizontal"	"20.271430000"	"0.0673000000"	"2"	"1"
n/a	"html-keyboard-response"	"186"	"285745"	"0.0-6.0-2.0-0.1"	"7w9unt"	"600"	"1366"	"chrome"	"108.0.0"	"FALSE"	"Windows 10"	"60.88"	"130"	n/a	n/a	n/a	n/a	n/a	n/a	"fixation"	n/a	n/a	n/a	n/a	"NULL"	n/a	"NULL"	"NULL"	"NULL"	"<p style=\"color: black; font-size: 80px; padding-left: 32%; padding-right: 49%; padding-top: 27%; padding-bottom: 12%\">+</p>"	"1164"	n/a	n/a	n/a	n/a	n/a	n/a	n/a	n/a	n/a
n/a	"image-keyboard-response"	"187"	"286555"	"0.0-6.0-2.0-1.1"	"7w9unt"	"600"	"1366"	"chrome"	"108.0.0"	"FALSE"	"Windows 10"	"60.88"	"130"	n/a	n/a	n/a	n/a	n/a	n/a	"Trial"	n/a	n/a	n/a	"809"	"arrowright"	n/a	"NULL"	"NULL"	"NULL"	"stimuli/VerticalHorizontal_11.78571_-0.2250.png"	n/a	"VerticalHorizontal"	"arrowright"	"1170"	"TRUE"	"VerticalHorizontal"	"11.785710000"	"-0.225000000"	"2"	"2"
n/a	"html-keyboard-response"	"188"	"287754"	"0.0-6.0-2.0-0.2"	"7w9unt"	"600"	"1366"	"chrome"	"108.0.0"	"FALSE"	"Windows 10"	"60.88"	"130"	n/a	n/a	n/a	n/a	n/a	n/a	"fixation"	n/a	n/a	n/a	n/a	"NULL"	n/a	"NULL"	"NULL"	"NULL"	"<p style=\"color: black; font-size: 80px; padding-left: 20%; padding-right: 11%; padding-top: 24%; padding-bottom: 22%\">+</p>"	"1185"	n/a	n/a	n/a	n/a	n/a	n/a	n/a	n/a	n/a
n/a	"image-keyboard-response"	"189"	"288712"	"0.0-6.0-2.0-1.2"	"7w9unt"	"600"	"1366"	"chrome"	"108.0.0"	"FALSE"	"Windows 10"	"60.88"	"130"	n/a	n/a	n/a	n/a	n/a	n/a	"Trial"	n/a	n/a	n/a	"957"	"arrowright"	n/a	"NULL"	"NULL"	"NULL"	"stimuli/VerticalHorizontal_11.78571_-0.1096.png"	n/a	"VerticalHorizontal"	"arrowright"	"1199"	"TRUE"	"VerticalHorizontal"	"11.785710000"	"-0.109600000"	"2"	"3"
n/a	"html-keyboard-response"	"190"	"289834"	"0.0-6.0-2.0-0.3"	"7w9unt"	"600"	"1366"	"chrome"	"108.0.0"	"FALSE"	"Windows 10"	"60.88"	"130"	n/a	n/a	n/a	n/a	n/a	n/a	"fixation"	n/a	n/a	n/a	n/a	"NULL"	n/a	"NULL"	"NULL"	"NULL"	"<p style=\"color: black; font-size: 80px; padding-left: 41%; padding-right: 15%; padding-top: 21%; padding-bottom: 45%\">+</p>"	"1104"	n/a	n/a	n/a	n/a	n/a	n/a	n/a	n/a	n/a
n/a	"image-keyboard-response"	"191"	"290388"	"0.0-6.0-2.0-1.3"	"7w9unt"	"600"	"1366"	"chrome"	"108.0.0"	"FALSE"	"Windows 10"	"60.88"	"130"	n/a	n/a	n/a	n/a	n/a	n/a	"Trial"	n/a	n/a	n/a	"554"	"arrowright"	n/a	"NULL"	"NULL"	"NULL"	"stimuli/VerticalHorizontal_-28.75714_-0.2250.png"	n/a	"VerticalHorizontal"	"arrowright"	"1122"	"TRUE"	"VerticalHorizontal"	"-28.75714000"	"-0.225000000"	"2"	"4"
n/a	"html-keyboard-response"	"192"	"291662"	"0.0-6.0-2.0-0.4"	"7w9unt"	"600"	"1366"	"chrome"	"108.0.0"	"FALSE"	"Windows 10"	"60.88"	"130"	n/a	n/a	n/a	n/a	n/a	n/a	"fixation"	n/a	n/a	n/a	n/a	"NULL"	n/a	"NULL"	"NULL"	"NULL"	"<p style=\"color: black; font-size: 80px; padding-left: 20%; padding-right: 32%; padding-top: 28%; padding-bottom: 18%\">+</p>"	"1255"	n/a	n/a	n/a	n/a	n/a	n/a	n/a	n/a	n/a
n/a	"image-keyboard-response"	"193"	"292168"	"0.0-6.0-2.0-1.4"	"7w9unt"	"600"	"1366"	"chrome"	"108.0.0"	"FALSE"	"Windows 10"	"60.88"	"130"	n/a	n/a	n/a	n/a	n/a	n/a	"Trial"	n/a	n/a	n/a	"505"	"arrowleft"	n/a	"NULL"	"NULL"	"NULL"	"stimuli/VerticalHorizontal_-11.78571_0.16217.png"	n/a	"VerticalHorizontal"	"arrowleft"	"1274"	"TRUE"	"VerticalHorizontal"	"-11.78571000"	"0.1621700000"	"2"	"5"
n/a	"html-keyboard-response"	"194"	"293451"	"0.0-6.0-2.0-0.5"	"7w9unt"	"600"	"1366"	"chrome"	"108.0.0"	"FALSE"	"Windows 10"	"60.88"	"130"	n/a	n/a	n/a	n/a	n/a	n/a	"fixation"	n/a	n/a	n/a	n/a	"NULL"	n/a	"NULL"	"NULL"	"NULL"	"<p style=\"color: black; font-size: 80px; padding-left: 36%; padding-right: 21%; padding-top: 4%; padding-bottom: 42%\">+</p>"	"1269"	n/a	n/a	n/a	n/a	n/a	n/a	n/a	n/a	n/a
n/a	"image-keyboard-response"	"195"	"294137"	"0.0-6.0-2.0-1.5"	"7w9unt"	"600"	"1366"	"chrome"	"108.0.0"	"FALSE"	"Windows 10"	"60.88"	"130"	n/a	n/a	n/a	n/a	n/a	n/a	"Trial"	n/a	n/a	n/a	"684"	"arrowleft"	n/a	"NULL"	"NULL"	"NULL"	"stimuli/VerticalHorizontal_-3.3000_0.16217.png"	n/a	"VerticalHorizontal"	"arrowleft"	"1283"	"TRUE"	"VerticalHorizontal"	"-3.300000000"	"0.1621700000"	"2"	"6"
n/a	"html-keyboard-response"	"196"	"295633"	"0.0-6.0-2.0-0.6"	"7w9unt"	"600"	"1366"	"chrome"	"108.0.0"	"FALSE"	"Windows 10"	"60.88"	"130"	n/a	n/a	n/a	n/a	n/a	n/a	"fixation"	n/a	n/a	n/a	n/a	"NULL"	n/a	"NULL"	"NULL"	"NULL"	"<p style=\"color: black; font-size: 80px; padding-left: 14%; padding-right: 33%; padding-top: 0%; padding-bottom: 8%\">+</p>"	"1480"	n/a	n/a	n/a	n/a	n/a	n/a	n/a	n/a	n/a
n/a	"image-keyboard-response"	"197"	"297013"	"0.0-6.0-2.0-1.6"	"7w9unt"	"600"	"1366"	"chrome"	"108.0.0"	"FALSE"	"Windows 10"	"60.88"	"130"	n/a	n/a	n/a	n/a	n/a	n/a	"Trial"	n/a	n/a	n/a	"1378"	"arrowright"	n/a	"NULL"	"NULL"	"NULL"	"stimuli/VerticalHorizontal_20.27143_-0.16217.png"	n/a	"VerticalHorizontal"	"arrowright"	"1496"	"TRUE"	"VerticalHorizontal"	"20.271430000"	"-0.162170000"	"2"	"7"
n/a	"html-keyboard-response"	"198"	"298174"	"0.0-6.0-2.0-0.7"	"7w9unt"	"600"	"1366"	"chrome"	"108.0.0"	"FALSE"	"Windows 10"	"60.88"	"130"	n/a	n/a	n/a	n/a	n/a	n/a	"fixation"	n/a	n/a	n/a	n/a	"NULL"	n/a	"NULL"	"NULL"	"NULL"	"<p style=\"color: black; font-size: 80px; padding-left: 3%; padding-right: 34%; padding-top: 13%; padding-bottom: 35%\">+</p>"	"1142"	n/a	n/a	n/a	n/a	n/a	n/a	n/a	n/a	n/a
n/a	"image-keyboard-response"	"199"	"298723"	"0.0-6.0-2.0-1.7"	"7w9unt"	"600"	"1366"	"chrome"	"108.0.0"	"FALSE"	"Windows 10"	"60.88"	"130"	n/a	n/a	n/a	n/a	n/a	n/a	"Trial"	n/a	n/a	n/a	"548"	"arrowright"	n/a	"NULL"	"NULL"	"NULL"	"stimuli/VerticalHorizontal_-20.27143_-0.2250.png"	n/a	"VerticalHorizontal"	"arrowright"	"1161"	"TRUE"	"VerticalHorizontal"	"-20.27143000"	"-0.225000000"	"2"	"8"
n/a	"html-keyboard-response"	"200"	"300115"	"0.0-6.0-2.0-0.8"	"7w9unt"	"600"	"1366"	"chrome"	"108.0.0"	"FALSE"	"Windows 10"	"60.88"	"130"	n/a	n/a	n/a	n/a	n/a	n/a	"fixation"	n/a	n/a	n/a	n/a	"NULL"	n/a	"NULL"	"NULL"	"NULL"	"<p style=\"color: black; font-size: 80px; padding-left: 22%; padding-right: 20%; padding-top: 17%; padding-bottom: 4%\">+</p>"	"1382"	n/a	n/a	n/a	n/a	n/a	n/a	n/a	n/a	n/a
n/a	"image-keyboard-response"	"201"	"301343"	"0.0-6.0-2.0-1.8"	"7w9unt"	"600"	"1366"	"chrome"	"108.0.0"	"FALSE"	"Windows 10"	"60.88"	"130"	n/a	n/a	n/a	n/a	n/a	n/a	"Trial"	n/a	n/a	n/a	"1228"	"arrowleft"	n/a	"NULL"	"NULL"	"NULL"	"stimuli/VerticalHorizontal_20.27143_0.16217.png"	n/a	"VerticalHorizontal"	"arrowleft"	"1392"	"TRUE"	"VerticalHorizontal"	"20.271430000"	"0.1621700000"	"2"	"9"
n/a	"html-keyboard-response"	"202"	"302588"	"0.0-6.0-2.0-0.9"	"7w9unt"	"600"	"1366"	"chrome"	"108.0.0"	"FALSE"	"Windows 10"	"60.88"	"130"	n/a	n/a	n/a	n/a	n/a	n/a	"fixation"	n/a	n/a	n/a	n/a	"NULL"	n/a	"NULL"	"NULL"	"NULL"	"<p style=\"color: black; font-size: 80px; padding-left: 29%; padding-right: 22%; padding-top: 23%; padding-bottom: 32%\">+</p>"	"1229"	n/a	n/a	n/a	n/a	n/a	n/a	n/a	n/a	n/a
n/a	"image-keyboard-response"	"203"	"304084"	"0.0-6.0-2.0-1.9"	"7w9unt"	"600"	"1366"	"chrome"	"108.0.0"	"FALSE"	"Windows 10"	"60.88"	"130"	n/a	n/a	n/a	n/a	n/a	n/a	"Trial"	n/a	n/a	n/a	"1494"	"arrowright"	n/a	"NULL"	"NULL"	"NULL"	"stimuli/VerticalHorizontal_28.75714_-0.1096.png"	n/a	"VerticalHorizontal"	"arrowright"	"1245"	"TRUE"	"VerticalHorizontal"	"28.757140000"	"-0.109600000"	"2"	"10"
n/a	"html-keyboard-response"	"204"	"305325"	"0.0-6.0-2.0-0.10"	"7w9unt"	"600"	"1366"	"chrome"	"108.0.0"	"FALSE"	"Windows 10"	"60.88"	"130"	n/a	n/a	n/a	n/a	n/a	n/a	"fixation"	n/a	n/a	n/a	n/a	"NULL"	n/a	"NULL"	"NULL"	"NULL"	"<p style=\"color: black; font-size: 80px; padding-left: 32%; padding-right: 21%; padding-top: 37%; padding-bottom: 17%\">+</p>"	"1222"	n/a	n/a	n/a	n/a	n/a	n/a	n/a	n/a	n/a
n/a	"image-keyboard-response"	"205"	"305942"	"0.0-6.0-2.0-1.10"	"7w9unt"	"600"	"1366"	"chrome"	"108.0.0"	"FALSE"	"Windows 10"	"60.88"	"130"	n/a	n/a	n/a	n/a	n/a	n/a	"Trial"	n/a	n/a	n/a	"612"	"arrowright"	n/a	"NULL"	"NULL"	"NULL"	"stimuli/VerticalHorizontal_-3.3000_-0.16217.png"	n/a	"VerticalHorizontal"	"arrowright"	"1241"	"TRUE"	"VerticalHorizontal"	"-3.300000000"	"-0.162170000"	"2"	"11"
n/a	"html-keyboard-response"	"206"	"306980"	"0.0-6.0-2.0-0.11"	"7w9unt"	"600"	"1366"	"chrome"	"108.0.0"	"FALSE"	"Windows 10"	"60.88"	"130"	n/a	n/a	n/a	n/a	n/a	n/a	"fixation"	n/a	n/a	n/a	n/a	"NULL"	n/a	"NULL"	"NULL"	"NULL"	"<p style=\"color: black; font-size: 80px; padding-left: 34%; padding-right: 38%; padding-top: 18%; padding-bottom: 19%\">+</p>"	"1030"	n/a	n/a	n/a	n/a	n/a	n/a	n/a	n/a	n/a
n/a	"image-keyboard-response"	"207"	"307744"	"0.0-6.0-2.0-1.11"	"7w9unt"	"600"	"1366"	"chrome"	"108.0.0"	"FALSE"	"Windows 10"	"60.88"	"130"	n/a	n/a	n/a	n/a	n/a	n/a	"Trial"	n/a	n/a	n/a	"762"	"arrowleft"	n/a	"NULL"	"NULL"	"NULL"	"stimuli/VerticalHorizontal_11.78571_0.10960.png"	n/a	"VerticalHorizontal"	"arrowleft"	"1038"	"TRUE"	"VerticalHorizontal"	"11.785710000"	"0.1096000000"	"2"	"12"
n/a	"html-keyboard-response"	"208"	"309103"	"0.0-6.0-2.0-0.12"	"7w9unt"	"600"	"1366"	"chrome"	"108.0.0"	"FALSE"	"Windows 10"	"60.88"	"130"	n/a	n/a	n/a	n/a	n/a	n/a	"fixation"	n/a	n/a	n/a	n/a	"NULL"	n/a	"NULL"	"NULL"	"NULL"	"<p style=\"color: black; font-size: 80px; padding-left: 25%; padding-right: 32%; padding-top: 46%; padding-bottom: 19%\">+</p>"	"1339"	n/a	n/a	n/a	n/a	n/a	n/a	n/a	n/a	n/a
n/a	"image-keyboard-response"	"209"	"309748"	"0.0-6.0-2.0-1.12"	"7w9unt"	"600"	"1366"	"chrome"	"108.0.0"	"FALSE"	"Windows 10"	"60.88"	"130"	n/a	n/a	n/a	n/a	n/a	n/a	"Trial"	n/a	n/a	n/a	"645"	"arrowright"	n/a	"NULL"	"NULL"	"NULL"	"stimuli/VerticalHorizontal_-11.78571_-0.2250.png"	n/a	"VerticalHorizontal"	"arrowright"	"1359"	"TRUE"	"VerticalHorizontal"	"-11.78571000"	"-0.225000000"	"2"	"13"
n/a	"html-keyboard-response"	"210"	"311037"	"0.0-6.0-2.0-0.13"	"7w9unt"	"600"	"1366"	"chrome"	"108.0.0"	"FALSE"	"Windows 10"	"60.88"	"130"	n/a	n/a	n/a	n/a	n/a	n/a	"fixation"	n/a	n/a	n/a	n/a	"NULL"	n/a	"NULL"	"NULL"	"NULL"	"<p style=\"color: black; font-size: 80px; padding-left: 48%; padding-right: 4%; padding-top: 40%; padding-bottom: 0%\">+</p>"	"1267"	n/a	n/a	n/a	n/a	n/a	n/a	n/a	n/a	n/a
n/a	"image-keyboard-response"	"211"	"311569"	"0.0-6.0-2.0-1.13"	"7w9unt"	"600"	"1366"	"chrome"	"108.0.0"	"FALSE"	"Windows 10"	"60.88"	"130"	n/a	n/a	n/a	n/a	n/a	n/a	"Trial"	n/a	n/a	n/a	"531"	"arrowleft"	n/a	"NULL"	"NULL"	"NULL"	"stimuli/VerticalHorizontal_20.27143_-0.0673.png"	n/a	"VerticalHorizontal"	"arrowright"	"1289"	"FALSE"	"VerticalHorizontal"	"20.271430000"	"-0.067300000"	"2"	"14"
n/a	"html-keyboard-response"	"212"	"312711"	"0.0-6.0-2.0-0.14"	"7w9unt"	"600"	"1366"	"chrome"	"108.0.0"	"FALSE"	"Windows 10"	"60.88"	"130"	n/a	n/a	n/a	n/a	n/a	n/a	"fixation"	n/a	n/a	n/a	n/a	"NULL"	n/a	"NULL"	"NULL"	"NULL"	"<p style=\"color: black; font-size: 80px; padding-left: 21%; padding-right: 8%; padding-top: 35%; padding-bottom: 48%\">+</p>"	"1129"	n/a	n/a	n/a	n/a	n/a	n/a	n/a	n/a	n/a
n/a	"image-keyboard-response"	"213"	"313202"	"0.0-6.0-2.0-1.14"	"7w9unt"	"600"	"1366"	"chrome"	"108.0.0"	"FALSE"	"Windows 10"	"60.88"	"130"	n/a	n/a	n/a	n/a	n/a	n/a	"Trial"	n/a	n/a	n/a	"490"	"arrowright"	n/a	"NULL"	"NULL"	"NULL"	"stimuli/VerticalHorizontal_-28.75714_-0.1096.png"	n/a	"VerticalHorizontal"	"arrowright"	"1142"	"TRUE"	"VerticalHorizontal"	"-28.75714000"	"-0.109600000"	"2"	"15"
n/a	"html-keyboard-response"	"214"	"314266"	"0.0-6.0-2.0-0.15"	"7w9unt"	"600"	"1366"	"chrome"	"108.0.0"	"FALSE"	"Windows 10"	"60.88"	"130"	n/a	n/a	n/a	n/a	n/a	n/a	"fixation"	n/a	n/a	n/a	n/a	"NULL"	n/a	"NULL"	"NULL"	"NULL"	"<p style=\"color: black; font-size: 80px; padding-left: 45%; padding-right: 17%; padding-top: 39%; padding-bottom: 44%\">+</p>"	"1049"	n/a	n/a	n/a	n/a	n/a	n/a	n/a	n/a	n/a
n/a	"image-keyboard-response"	"215"	"314786"	"0.0-6.0-2.0-1.15"	"7w9unt"	"600"	"1366"	"chrome"	"108.0.0"	"FALSE"	"Windows 10"	"60.88"	"130"	n/a	n/a	n/a	n/a	n/a	n/a	"Trial"	n/a	n/a	n/a	"518"	"arrowleft"	n/a	"NULL"	"NULL"	"NULL"	"stimuli/VerticalHorizontal_-28.75714_0.10960.png"	n/a	"VerticalHorizontal"	"arrowleft"	"1064"	"TRUE"	"VerticalHorizontal"	"-28.75714000"	"0.1096000000"	"2"	"16"
n/a	"html-keyboard-response"	"216"	"316056"	"0.0-6.0-2.0-0.16"	"7w9unt"	"600"	"1366"	"chrome"	"108.0.0"	"FALSE"	"Windows 10"	"60.88"	"130"	n/a	n/a	n/a	n/a	n/a	n/a	"fixation"	n/a	n/a	n/a	n/a	"NULL"	n/a	"NULL"	"NULL"	"NULL"	"<p style=\"color: black; font-size: 80px; padding-left: 47%; padding-right: 12%; padding-top: 1%; padding-bottom: 12%\">+</p>"	"1258"	n/a	n/a	n/a	n/a	n/a	n/a	n/a	n/a	n/a
n/a	"image-keyboard-response"	"217"	"316544"	"0.0-6.0-2.0-1.16"	"7w9unt"	"600"	"1366"	"chrome"	"108.0.0"	"FALSE"	"Windows 10"	"60.88"	"130"	n/a	n/a	n/a	n/a	n/a	n/a	"Trial"	n/a	n/a	n/a	"487"	"arrowleft"	n/a	"NULL"	"NULL"	"NULL"	"stimuli/VerticalHorizontal_-20.27143_0.16217.png"	n/a	"VerticalHorizontal"	"arrowleft"	"1270"	"TRUE"	"VerticalHorizontal"	"-20.27143000"	"0.1621700000"	"2"	"17"
n/a	"html-keyboard-response"	"218"	"318017"	"0.0-6.0-2.0-0.17"	"7w9unt"	"600"	"1366"	"chrome"	"108.0.0"	"FALSE"	"Windows 10"	"60.88"	"130"	n/a	n/a	n/a	n/a	n/a	n/a	"fixation"	n/a	n/a	n/a	n/a	"NULL"	n/a	"NULL"	"NULL"	"NULL"	"<p style=\"color: black; font-size: 80px; padding-left: 28%; padding-right: 21%; padding-top: 7%; padding-bottom: 23%\">+</p>"	"1460"	n/a	n/a	n/a	n/a	n/a	n/a	n/a	n/a	n/a
n/a	"image-keyboard-response"	"219"	"318567"	"0.0-6.0-2.0-1.17"	"7w9unt"	"600"	"1366"	"chrome"	"108.0.0"	"FALSE"	"Windows 10"	"60.88"	"130"	n/a	n/a	n/a	n/a	n/a	n/a	"Trial"	n/a	n/a	n/a	"548"	"arrowleft"	n/a	"NULL"	"NULL"	"NULL"	"stimuli/VerticalHorizontal_-20.27143_0.10960.png"	n/a	"VerticalHorizontal"	"arrowleft"	"1473"	"TRUE"	"VerticalHorizontal"	"-20.27143000"	"0.1096000000"	"2"	"18"
n/a	"html-keyboard-response"	"220"	"319741"	"0.0-6.0-2.0-0.18"	"7w9unt"	"600"	"1366"	"chrome"	"108.0.0"	"FALSE"	"Windows 10"	"60.88"	"130"	n/a	n/a	n/a	n/a	n/a	n/a	"fixation"	n/a	n/a	n/a	n/a	"NULL"	n/a	"NULL"	"NULL"	"NULL"	"<p style=\"color: black; font-size: 80px; padding-left: 22%; padding-right: 40%; padding-top: 19%; padding-bottom: 9%\">+</p>"	"1155"	n/a	n/a	n/a	n/a	n/a	n/a	n/a	n/a	n/a
n/a	"image-keyboard-response"	"221"	"320200"	"0.0-6.0-2.0-1.18"	"7w9unt"	"600"	"1366"	"chrome"	"108.0.0"	"FALSE"	"Windows 10"	"60.88"	"130"	n/a	n/a	n/a	n/a	n/a	n/a	"Trial"	n/a	n/a	n/a	"451"	"arrowleft"	n/a	"NULL"	"NULL"	"NULL"	"stimuli/VerticalHorizontal_-28.75714_0.16217.png"	n/a	"VerticalHorizontal"	"arrowleft"	"1174"	"TRUE"	"VerticalHorizontal"	"-28.75714000"	"0.1621700000"	"2"	"19"
n/a	"html-keyboard-response"	"222"	"321520"	"0.0-6.0-2.0-0.19"	"7w9unt"	"600"	"1366"	"chrome"	"108.0.0"	"FALSE"	"Windows 10"	"60.88"	"130"	n/a	n/a	n/a	n/a	n/a	n/a	"fixation"	n/a	n/a	n/a	n/a	"NULL"	n/a	"NULL"	"NULL"	"NULL"	"<p style=\"color: black; font-size: 80px; padding-left: 8%; padding-right: 8%; padding-top: 20%; padding-bottom: 31%\">+</p>"	"1311"	n/a	n/a	n/a	n/a	n/a	n/a	n/a	n/a	n/a
n/a	"image-keyboard-response"	"223"	"321959"	"0.0-6.0-2.0-1.19"	"7w9unt"	"600"	"1366"	"chrome"	"108.0.0"	"FALSE"	"Windows 10"	"60.88"	"130"	n/a	n/a	n/a	n/a	n/a	n/a	"Trial"	n/a	n/a	n/a	"438"	"arrowleft"	n/a	"NULL"	"NULL"	"NULL"	"stimuli/VerticalHorizontal_-20.27143_0.06730.png"	n/a	"VerticalHorizontal"	"arrowleft"	"1320"	"TRUE"	"VerticalHorizontal"	"-20.27143000"	"0.0673000000"	"2"	"20"
n/a	"html-keyboard-response"	"224"	"323301"	"0.0-6.0-2.0-0.20"	"7w9unt"	"600"	"1366"	"chrome"	"108.0.0"	"FALSE"	"Windows 10"	"60.88"	"130"	n/a	n/a	n/a	n/a	n/a	n/a	"fixation"	n/a	n/a	n/a	n/a	"NULL"	n/a	"NULL"	"NULL"	"NULL"	"<p style=\"color: black; font-size: 80px; padding-left: 44%; padding-right: 20%; padding-top: 32%; padding-bottom: 1%\">+</p>"	"1327"	n/a	n/a	n/a	n/a	n/a	n/a	n/a	n/a	n/a
n/a	"image-keyboard-response"	"225"	"323718"	"0.0-6.0-2.0-1.20"	"7w9unt"	"600"	"1366"	"chrome"	"108.0.0"	"FALSE"	"Windows 10"	"60.88"	"130"	n/a	n/a	n/a	n/a	n/a	n/a	"Trial"	n/a	n/a	n/a	"416"	"arrowleft"	n/a	"NULL"	"NULL"	"NULL"	"stimuli/VerticalHorizontal_3.30000_0.22500.png"	n/a	"VerticalHorizontal"	"arrowleft"	"1342"	"TRUE"	"VerticalHorizontal"	"3.3000000000"	"0.2250000000"	"2"	"21"
n/a	"html-keyboard-response"	"226"	"324809"	"0.0-6.0-2.0-0.21"	"7w9unt"	"600"	"1366"	"chrome"	"108.0.0"	"FALSE"	"Windows 10"	"60.88"	"130"	n/a	n/a	n/a	n/a	n/a	n/a	"fixation"	n/a	n/a	n/a	n/a	"NULL"	n/a	"NULL"	"NULL"	"NULL"	"<p style=\"color: black; font-size: 80px; padding-left: 4%; padding-right: 42%; padding-top: 21%; padding-bottom: 46%\">+</p>"	"1087"	n/a	n/a	n/a	n/a	n/a	n/a	n/a	n/a	n/a
n/a	"image-keyboard-response"	"227"	"325338"	"0.0-6.0-2.0-1.21"	"7w9unt"	"600"	"1366"	"chrome"	"108.0.0"	"FALSE"	"Windows 10"	"60.88"	"130"	n/a	n/a	n/a	n/a	n/a	n/a	"Trial"	n/a	n/a	n/a	"527"	"arrowleft"	n/a	"NULL"	"NULL"	"NULL"	"stimuli/VerticalHorizontal_-11.78571_0.06730.png"	n/a	"VerticalHorizontal"	"arrowleft"	"1091"	"TRUE"	"VerticalHorizontal"	"-11.78571000"	"0.0673000000"	"2"	"22"
n/a	"html-keyboard-response"	"228"	"326590"	"0.0-6.0-2.0-0.22"	"7w9unt"	"600"	"1366"	"chrome"	"108.0.0"	"FALSE"	"Windows 10"	"60.88"	"130"	n/a	n/a	n/a	n/a	n/a	n/a	"fixation"	n/a	n/a	n/a	n/a	"NULL"	n/a	"NULL"	"NULL"	"NULL"	"<p style=\"color: black; font-size: 80px; padding-left: 1%; padding-right: 38%; padding-top: 21%; padding-bottom: 34%\">+</p>"	"1244"	n/a	n/a	n/a	n/a	n/a	n/a	n/a	n/a	n/a
n/a	"image-keyboard-response"	"229"	"327270"	"0.0-6.0-2.0-1.22"	"7w9unt"	"600"	"1366"	"chrome"	"108.0.0"	"FALSE"	"Windows 10"	"60.88"	"130"	n/a	n/a	n/a	n/a	n/a	n/a	"Trial"	n/a	n/a	n/a	"679"	"arrowleft"	n/a	"NULL"	"NULL"	"NULL"	"stimuli/VerticalHorizontal_11.78571_-0.0673.png"	n/a	"VerticalHorizontal"	"arrowright"	"1252"	"FALSE"	"VerticalHorizontal"	"11.785710000"	"-0.067300000"	"2"	"23"
n/a	"html-keyboard-response"	"230"	"328317"	"0.0-6.0-2.0-0.23"	"7w9unt"	"600"	"1366"	"chrome"	"108.0.0"	"FALSE"	"Windows 10"	"60.88"	"130"	n/a	n/a	n/a	n/a	n/a	n/a	"fixation"	n/a	n/a	n/a	n/a	"NULL"	n/a	"NULL"	"NULL"	"NULL"	"<p style=\"color: black; font-size: 80px; padding-left: 40%; padding-right: 21%; padding-top: 32%; padding-bottom: 31%\">+</p>"	"1025"	n/a	n/a	n/a	n/a	n/a	n/a	n/a	n/a	n/a
n/a	"image-keyboard-response"	"231"	"328986"	"0.0-6.0-2.0-1.23"	"7w9unt"	"600"	"1366"	"chrome"	"108.0.0"	"FALSE"	"Windows 10"	"60.88"	"130"	n/a	n/a	n/a	n/a	n/a	n/a	"Trial"	n/a	n/a	n/a	"668"	"arrowright"	n/a	"NULL"	"NULL"	"NULL"	"stimuli/VerticalHorizontal_-28.75714_-0.0673.png"	n/a	"VerticalHorizontal"	"arrowright"	"1047"	"TRUE"	"VerticalHorizontal"	"-28.75714000"	"-0.067300000"	"2"	"24"
n/a	"html-keyboard-response"	"232"	"330368"	"0.0-6.0-2.0-0.24"	"7w9unt"	"600"	"1366"	"chrome"	"108.0.0"	"FALSE"	"Windows 10"	"60.88"	"130"	n/a	n/a	n/a	n/a	n/a	n/a	"fixation"	n/a	n/a	n/a	n/a	"NULL"	n/a	"NULL"	"NULL"	"NULL"	"<p style=\"color: black; font-size: 80px; padding-left: 42%; padding-right: 16%; padding-top: 9%; padding-bottom: 42%\">+</p>"	"1371"	n/a	n/a	n/a	n/a	n/a	n/a	n/a	n/a	n/a
n/a	"image-keyboard-response"	"233"	"330881"	"0.0-6.0-2.0-1.24"	"7w9unt"	"600"	"1366"	"chrome"	"108.0.0"	"FALSE"	"Windows 10"	"60.88"	"130"	n/a	n/a	n/a	n/a	n/a	n/a	"Trial"	n/a	n/a	n/a	"511"	"arrowleft"	n/a	"NULL"	"NULL"	"NULL"	"stimuli/VerticalHorizontal_-28.75714_0.06730.png"	n/a	"VerticalHorizontal"	"arrowleft"	"1382"	"TRUE"	"VerticalHorizontal"	"-28.75714000"	"0.0673000000"	"2"	"25"
n/a	"html-keyboard-response"	"234"	"332004"	"0.0-6.0-2.0-0.25"	"7w9unt"	"600"	"1366"	"chrome"	"108.0.0"	"FALSE"	"Windows 10"	"60.88"	"130"	n/a	n/a	n/a	n/a	n/a	n/a	"fixation"	n/a	n/a	n/a	n/a	"NULL"	n/a	"NULL"	"NULL"	"NULL"	"<p style=\"color: black; font-size: 80px; padding-left: 13%; padding-right: 8%; padding-top: 44%; padding-bottom: 3%\">+</p>"	"1101"	n/a	n/a	n/a	n/a	n/a	n/a	n/a	n/a	n/a
n/a	"image-keyboard-response"	"235"	"332474"	"0.0-6.0-2.0-1.25"	"7w9unt"	"600"	"1366"	"chrome"	"108.0.0"	"FALSE"	"Windows 10"	"60.88"	"130"	n/a	n/a	n/a	n/a	n/a	n/a	"Trial"	n/a	n/a	n/a	"469"	"arrowright"	n/a	"NULL"	"NULL"	"NULL"	"stimuli/VerticalHorizontal_-20.27143_-0.1096.png"	n/a	"VerticalHorizontal"	"arrowright"	"1123"	"TRUE"	"VerticalHorizontal"	"-20.27143000"	"-0.109600000"	"2"	"26"
n/a	"html-keyboard-response"	"236"	"333865"	"0.0-6.0-2.0-0.26"	"7w9unt"	"600"	"1366"	"chrome"	"108.0.0"	"FALSE"	"Windows 10"	"60.88"	"130"	n/a	n/a	n/a	n/a	n/a	n/a	"fixation"	n/a	n/a	n/a	n/a	"NULL"	n/a	"NULL"	"NULL"	"NULL"	"<p style=\"color: black; font-size: 80px; padding-left: 37%; padding-right: 13%; padding-top: 44%; padding-bottom: 3%\">+</p>"	"1375"	n/a	n/a	n/a	n/a	n/a	n/a	n/a	n/a	n/a
n/a	"image-keyboard-response"	"237"	"334808"	"0.0-6.0-2.0-1.26"	"7w9unt"	"600"	"1366"	"chrome"	"108.0.0"	"FALSE"	"Windows 10"	"60.88"	"130"	n/a	n/a	n/a	n/a	n/a	n/a	"Trial"	n/a	n/a	n/a	"942"	"arrowright"	n/a	"NULL"	"NULL"	"NULL"	"stimuli/VerticalHorizontal_11.78571_-0.16217.png"	n/a	"VerticalHorizontal"	"arrowright"	"1391"	"TRUE"	"VerticalHorizontal"	"11.785710000"	"-0.162170000"	"2"	"27"
n/a	"html-keyboard-response"	"238"	"336068"	"0.0-6.0-2.0-0.27"	"7w9unt"	"600"	"1366"	"chrome"	"108.0.0"	"FALSE"	"Windows 10"	"60.88"	"130"	n/a	n/a	n/a	n/a	n/a	n/a	"fixation"	n/a	n/a	n/a	n/a	"NULL"	n/a	"NULL"	"NULL"	"NULL"	"<p style=\"color: black; font-size: 80px; padding-left: 3%; padding-right: 21%; padding-top: 40%; padding-bottom: 38%\">+</p>"	"1243"	n/a	n/a	n/a	n/a	n/a	n/a	n/a	n/a	n/a
n/a	"image-keyboard-response"	"239"	"336727"	"0.0-6.0-2.0-1.27"	"7w9unt"	"600"	"1366"	"chrome"	"108.0.0"	"FALSE"	"Windows 10"	"60.88"	"130"	n/a	n/a	n/a	n/a	n/a	n/a	"Trial"	n/a	n/a	n/a	"657"	"arrowright"	n/a	"NULL"	"NULL"	"NULL"	"stimuli/VerticalHorizontal_3.30000_-0.16217.png"	n/a	"VerticalHorizontal"	"arrowright"	"1260"	"TRUE"	"VerticalHorizontal"	"3.3000000000"	"-0.162170000"	"2"	"28"
n/a	"html-keyboard-response"	"240"	"338028"	"0.0-6.0-2.0-0.28"	"7w9unt"	"600"	"1366"	"chrome"	"108.0.0"	"FALSE"	"Windows 10"	"60.88"	"130"	n/a	n/a	n/a	n/a	n/a	n/a	"fixation"	n/a	n/a	n/a	n/a	"NULL"	n/a	"NULL"	"NULL"	"NULL"	"<p style=\"color: black; font-size: 80px; padding-left: 12%; padding-right: 35%; padding-top: 33%; padding-bottom: 49%\">+</p>"	"1295"	n/a	n/a	n/a	n/a	n/a	n/a	n/a	n/a	n/a
n/a	"image-keyboard-response"	"241"	"338673"	"0.0-6.0-2.0-1.28"	"7w9unt"	"600"	"1366"	"chrome"	"108.0.0"	"FALSE"	"Windows 10"	"60.88"	"130"	n/a	n/a	n/a	n/a	n/a	n/a	"Trial"	n/a	n/a	n/a	"644"	"arrowright"	n/a	"NULL"	"NULL"	"NULL"	"stimuli/VerticalHorizontal_-11.78571_-0.0673.png"	n/a	"VerticalHorizontal"	"arrowright"	"1301"	"TRUE"	"VerticalHorizontal"	"-11.78571000"	"-0.067300000"	"2"	"29"
n/a	"html-keyboard-response"	"242"	"339738"	"0.0-6.0-2.0-0.29"	"7w9unt"	"600"	"1366"	"chrome"	"108.0.0"	"FALSE"	"Windows 10"	"60.88"	"130"	n/a	n/a	n/a	n/a	n/a	n/a	"fixation"	n/a	n/a	n/a	n/a	"NULL"	n/a	"NULL"	"NULL"	"NULL"	"<p style=\"color: black; font-size: 80px; padding-left: 26%; padding-right: 36%; padding-top: 2%; padding-bottom: 16%\">+</p>"	"1058"	n/a	n/a	n/a	n/a	n/a	n/a	n/a	n/a	n/a
n/a	"image-keyboard-response"	"243"	"340272"	"0.0-6.0-2.0-1.29"	"7w9unt"	"600"	"1366"	"chrome"	"108.0.0"	"FALSE"	"Windows 10"	"60.88"	"130"	n/a	n/a	n/a	n/a	n/a	n/a	"Trial"	n/a	n/a	n/a	"533"	"arrowleft"	n/a	"NULL"	"NULL"	"NULL"	"stimuli/VerticalHorizontal_-11.78571_0.10960.png"	n/a	"VerticalHorizontal"	"arrowleft"	"1065"	"TRUE"	"VerticalHorizontal"	"-11.78571000"	"0.1096000000"	"2"	"30"
n/a	"html-keyboard-response"	"244"	"341658"	"0.0-6.0-2.0-0.30"	"7w9unt"	"600"	"1366"	"chrome"	"108.0.0"	"FALSE"	"Windows 10"	"60.88"	"130"	n/a	n/a	n/a	n/a	n/a	n/a	"fixation"	n/a	n/a	n/a	n/a	"NULL"	n/a	"NULL"	"NULL"	"NULL"	"<p style=\"color: black; font-size: 80px; padding-left: 21%; padding-right: 7%; padding-top: 23%; padding-bottom: 37%\">+</p>"	"1377"	n/a	n/a	n/a	n/a	n/a	n/a	n/a	n/a	n/a
n/a	"image-keyboard-response"	"245"	"342421"	"0.0-6.0-2.0-1.30"	"7w9unt"	"600"	"1366"	"chrome"	"108.0.0"	"FALSE"	"Windows 10"	"60.88"	"130"	n/a	n/a	n/a	n/a	n/a	n/a	"Trial"	n/a	n/a	n/a	"762"	"arrowleft"	n/a	"NULL"	"NULL"	"NULL"	"stimuli/VerticalHorizontal_-3.3000_0.10960.png"	n/a	"VerticalHorizontal"	"arrowleft"	"1386"	"TRUE"	"VerticalHorizontal"	"-3.300000000"	"0.1096000000"	"2"	"31"
n/a	"html-keyboard-response"	"246"	"343756"	"0.0-6.0-2.0-0.31"	"7w9unt"	"600"	"1366"	"chrome"	"108.0.0"	"FALSE"	"Windows 10"	"60.88"	"130"	n/a	n/a	n/a	n/a	n/a	n/a	"fixation"	n/a	n/a	n/a	n/a	"NULL"	n/a	"NULL"	"NULL"	"NULL"	"<p style=\"color: black; font-size: 80px; padding-left: 16%; padding-right: 41%; padding-top: 24%; padding-bottom: 45%\">+</p>"	"1322"	n/a	n/a	n/a	n/a	n/a	n/a	n/a	n/a	n/a
n/a	"image-keyboard-response"	"247"	"344522"	"0.0-6.0-2.0-1.31"	"7w9unt"	"600"	"1366"	"chrome"	"108.0.0"	"FALSE"	"Windows 10"	"60.88"	"130"	n/a	n/a	n/a	n/a	n/a	n/a	"Trial"	n/a	n/a	n/a	"764"	"arrowright"	n/a	"NULL"	"NULL"	"NULL"	"stimuli/VerticalHorizontal_28.75714_0.06730.png"	n/a	"VerticalHorizontal"	"arrowleft"	"1335"	"FALSE"	"VerticalHorizontal"	"28.757140000"	"0.0673000000"	"2"	"32"
n/a	"html-keyboard-response"	"248"	"345653"	"0.0-6.0-2.0-0.32"	"7w9unt"	"600"	"1366"	"chrome"	"108.0.0"	"FALSE"	"Windows 10"	"60.88"	"130"	n/a	n/a	n/a	n/a	n/a	n/a	"fixation"	n/a	n/a	n/a	n/a	"NULL"	n/a	"NULL"	"NULL"	"NULL"	"<p style=\"color: black; font-size: 80px; padding-left: 50%; padding-right: 6%; padding-top: 27%; padding-bottom: 4%\">+</p>"	"1124"	n/a	n/a	n/a	n/a	n/a	n/a	n/a	n/a	n/a
n/a	"image-keyboard-response"	"249"	"346253"	"0.0-6.0-2.0-1.32"	"7w9unt"	"600"	"1366"	"chrome"	"108.0.0"	"FALSE"	"Windows 10"	"60.88"	"130"	n/a	n/a	n/a	n/a	n/a	n/a	"Trial"	n/a	n/a	n/a	"600"	"arrowright"	n/a	"NULL"	"NULL"	"NULL"	"stimuli/VerticalHorizontal_-20.27143_-0.0673.png"	n/a	"VerticalHorizontal"	"arrowright"	"1131"	"TRUE"	"VerticalHorizontal"	"-20.27143000"	"-0.067300000"	"2"	"33"
n/a	"html-keyboard-response"	"250"	"347665"	"0.0-6.0-2.0-0.33"	"7w9unt"	"600"	"1366"	"chrome"	"108.0.0"	"FALSE"	"Windows 10"	"60.88"	"130"	n/a	n/a	n/a	n/a	n/a	n/a	"fixation"	n/a	n/a	n/a	n/a	"NULL"	n/a	"NULL"	"NULL"	"NULL"	"<p style=\"color: black; font-size: 80px; padding-left: 10%; padding-right: 16%; padding-top: 15%; padding-bottom: 10%\">+</p>"	"1400"	n/a	n/a	n/a	n/a	n/a	n/a	n/a	n/a	n/a
