"success"	"trial_type"	"trial_index"	"time_elapsed"	"internal_node_id"	"participant_id"	"screen_height"	"screen_width"	"browser"	"browser_version"	"mobile"	"os"	"vsync_rate"	"subject_id"	"width"	"height"	"webaudio"	"fullscreen"	"webcam"	"microphone"	"screen"	"version"	"date"	"time"	"rt"	"response"	"timeout"	"failed_images"	"failed_audio"	"failed_video"	"stimulus"	"trial_duration"	"block"	"correct_response"	"prestimulus_duration"	"correct"	"type"	"illusion_strength"	"illusion_difference"	"block_number"	"trial_number"
"TRUE"	"fullscreen"	"0"	"2442"	"0.0-0.0"	"ts4lkx"	"600"	"1366"	"chrome"	"109.0.0"	"FALSE"	"Windows 10"	"60.1"	"019"	n/a	n/a	n/a	n/a	n/a	n/a	n/a	n/a	n/a	n/a	n/a	"NULL"	n/a	"NULL"	"NULL"	"NULL"	n/a	n/a	n/a	n/a	n/a	n/a	n/a	n/a	n/a	n/a	n/a
n/a	"browser-check"	"1"	"3455"	"0.0-1.0"	"ts4lkx"	"600"	"1366"	"chrome"	"109.0.0"	"FALSE"	"Windows 10"	"60.1"	"019"	"1366"	"600"	"TRUE"	"TRUE"	"TRUE"	"TRUE"	"browser_info"	"1.0"	"16/02/2023"	"14:51:07"	n/a	"NULL"	n/a	"NULL"	"NULL"	"NULL"	n/a	n/a	n/a	n/a	n/a	n/a	n/a	n/a	n/a	n/a	n/a
n/a	"survey-text"	"2"	"6952"	"0.0-2.0"	"ts4lkx"	"600"	"1366"	"chrome"	"109.0.0"	"FALSE"	"Windows 10"	"60.1"	"019"	n/a	n/a	n/a	n/a	n/a	n/a	"subject_id"	n/a	n/a	n/a	"3494"	"list(subject_id = \"019\")"	n/a	"NULL"	"NULL"	"NULL"	n/a	n/a	n/a	n/a	n/a	n/a	n/a	n/a	n/a	n/a	n/a
"TRUE"	"preload"	"3"	"6964"	"0.0-3.0"	"ts4lkx"	"600"	"1366"	"chrome"	"109.0.0"	"FALSE"	"Windows 10"	"60.1"	"019"	n/a	n/a	n/a	n/a	n/a	n/a	n/a	n/a	n/a	n/a	n/a	"NULL"	"FALSE"	"list()"	"list()"	"list()"	n/a	n/a	n/a	n/a	n/a	n/a	n/a	n/a	n/a	n/a	n/a
n/a	"html-button-response"	"4"	"8944"	"0.0-4.0-0.0"	"ts4lkx"	"600"	"1366"	"chrome"	"109.0.0"	"FALSE"	"Windows 10"	"60.1"	"019"	n/a	n/a	n/a	n/a	n/a	n/a	"illusion_instructions"	n/a	n/a	n/a	"1979"	"0"	n/a	"NULL"	"NULL"	"NULL"	"<p><b>Illusion Game</b></p><p>In this game of speed and reflex, you will need to make <b>visual judgments</b> (for instance, which circle is the biggest, or which line is the longest), as fast and as correctly as possible, while <b>resisting different visual illusions</b>.</p><p>We are going to start with some examples of all the illusions you will encounter in the game.</p>"	n/a	n/a	n/a	n/a	n/a	n/a	n/a	n/a	n/a	n/a
"TRUE"	"preload"	"5"	"8956"	"0.0-4.0-1.0-0.0"	"ts4lkx"	"600"	"1366"	"chrome"	"109.0.0"	"FALSE"	"Windows 10"	"60.1"	"019"	n/a	n/a	n/a	n/a	n/a	n/a	n/a	n/a	n/a	n/a	n/a	"NULL"	"FALSE"	"list()"	"list()"	"list()"	n/a	n/a	n/a	n/a	n/a	n/a	n/a	n/a	n/a	n/a	n/a
n/a	"html-keyboard-response"	"6"	"9484"	"0.0-4.0-1.0-1.0"	"ts4lkx"	"600"	"1366"	"chrome"	"109.0.0"	"FALSE"	"Windows 10"	"60.1"	"019"	n/a	n/a	n/a	n/a	n/a	n/a	n/a	n/a	n/a	n/a	"527"	"enter"	n/a	"NULL"	"NULL"	"NULL"	"<p><b>Practice</b></p><p>In this part, two red circles will appear side by side on the screen.</p><p>Your task is to select which <b>red circle is bigger</b> in size as fast as you can, without making errors.</p><p>Don't get distracted by the surrounding black circles around the red circles!</p><p>Press <b>the LEFT or the RIGHT arrow</b> to indicate which is the bigger <b>red circle.</b></p><div style='float: center'><img src='materials/instructions/Ebbinghaus_Demo.png' height='300'></img><p><img src='utils/answer/answer_leftright_keyboard.PNG' height='150'></img></p><p class='small'>In this example, the correct answer is the <b>LEFT arrow</b>.</p></div><p>Are you ready? <b>Press ENTER to start</b></p>"	n/a	n/a	n/a	n/a	n/a	n/a	n/a	n/a	n/a	n/a
n/a	"html-keyboard-response"	"7"	"11201"	"0.0-4.0-1.0-2.0-0.0"	"ts4lkx"	"600"	"1366"	"chrome"	"109.0.0"	"FALSE"	"Windows 10"	"60.1"	"019"	n/a	n/a	n/a	n/a	n/a	n/a	"fixation"	n/a	n/a	n/a	n/a	"NULL"	n/a	"NULL"	"NULL"	"NULL"	"<p style=\"color: black; font-size: 80px; padding-left: 11%; padding-right: 39%; padding-top: 21%; padding-bottom: 6%\">+</p>"	"1188"	n/a	n/a	n/a	n/a	n/a	n/a	n/a	n/a	n/a
n/a	"image-keyboard-response"	"8"	"11637"	"0.0-4.0-1.0-2.0-1.0"	"ts4lkx"	"600"	"1366"	"chrome"	"109.0.0"	"FALSE"	"Windows 10"	"60.1"	"019"	n/a	n/a	n/a	n/a	n/a	n/a	"Trial"	n/a	n/a	n/a	"434"	"arrowright"	n/a	"NULL"	"NULL"	"NULL"	"stimuli/Ebbinghaus_0000000_-1.4000.png"	n/a	"Ebbinghaus"	"arrowright"	"1717"	"TRUE"	"Ebbinghaus"	"000000000000"	"-1.400000000"	"1"	"1"
n/a	"html-keyboard-response"	"9"	"12982"	"0.0-4.0-1.0-2.0-0.1"	"ts4lkx"	"600"	"1366"	"chrome"	"109.0.0"	"FALSE"	"Windows 10"	"60.1"	"019"	n/a	n/a	n/a	n/a	n/a	n/a	"fixation"	n/a	n/a	n/a	n/a	"NULL"	n/a	"NULL"	"NULL"	"NULL"	"<p style=\"color: black; font-size: 80px; padding-left: 4%; padding-right: 45%; padding-top: 44%; padding-bottom: 31%\">+</p>"	"1326"	n/a	n/a	n/a	n/a	n/a	n/a	n/a	n/a	n/a
n/a	"image-keyboard-response"	"10"	"13075"	"0.0-4.0-1.0-2.0-1.1"	"ts4lkx"	"600"	"1366"	"chrome"	"109.0.0"	"FALSE"	"Windows 10"	"60.1"	"019"	n/a	n/a	n/a	n/a	n/a	n/a	"Trial"	n/a	n/a	n/a	"92"	"arrowright"	n/a	"NULL"	"NULL"	"NULL"	"stimuli/Ebbinghaus_1000000_1.40000.png"	n/a	"Ebbinghaus"	"arrowleft"	"1345"	"FALSE"	"Ebbinghaus"	"100000000000"	"1.4000000000"	"1"	"2"
n/a	"html-keyboard-response"	"11"	"14091"	"0.0-4.0-1.0-2.0-0.2"	"ts4lkx"	"600"	"1366"	"chrome"	"109.0.0"	"FALSE"	"Windows 10"	"60.1"	"019"	n/a	n/a	n/a	n/a	n/a	n/a	"fixation"	n/a	n/a	n/a	n/a	"NULL"	n/a	"NULL"	"NULL"	"NULL"	"<p style=\"color: black; font-size: 80px; padding-left: 5%; padding-right: 10%; padding-top: 16%; padding-bottom: 37%\">+</p>"	"1005"	n/a	n/a	n/a	n/a	n/a	n/a	n/a	n/a	n/a
n/a	"image-keyboard-response"	"12"	"14393"	"0.0-4.0-1.0-2.0-1.2"	"ts4lkx"	"600"	"1366"	"chrome"	"109.0.0"	"FALSE"	"Windows 10"	"60.1"	"019"	n/a	n/a	n/a	n/a	n/a	n/a	"Trial"	n/a	n/a	n/a	"301"	"arrowright"	n/a	"NULL"	"NULL"	"NULL"	"stimuli/Ebbinghaus_0000000_1.40000.png"	n/a	"Ebbinghaus"	"arrowleft"	"1016"	"FALSE"	"Ebbinghaus"	"000000000000"	"1.4000000000"	"1"	"3"
n/a	"html-keyboard-response"	"13"	"15466"	"0.0-4.0-1.0-2.0-0.3"	"ts4lkx"	"600"	"1366"	"chrome"	"109.0.0"	"FALSE"	"Windows 10"	"60.1"	"019"	n/a	n/a	n/a	n/a	n/a	n/a	"fixation"	n/a	n/a	n/a	n/a	"NULL"	n/a	"NULL"	"NULL"	"NULL"	"<p style=\"color: black; font-size: 80px; padding-left: 10%; padding-right: 15%; padding-top: 38%; padding-bottom: 14%\">+</p>"	"1062"	n/a	n/a	n/a	n/a	n/a	n/a	n/a	n/a	n/a
n/a	"image-keyboard-response"	"14"	"15805"	"0.0-4.0-1.0-2.0-1.3"	"ts4lkx"	"600"	"1366"	"chrome"	"109.0.0"	"FALSE"	"Windows 10"	"60.1"	"019"	n/a	n/a	n/a	n/a	n/a	n/a	"Trial"	n/a	n/a	n/a	"338"	"arrowright"	n/a	"NULL"	"NULL"	"NULL"	"stimuli/Ebbinghaus_-100000_1.40000.png"	n/a	"Ebbinghaus"	"arrowleft"	"1073"	"FALSE"	"Ebbinghaus"	"-10000000000"	"1.4000000000"	"1"	"4"
n/a	"html-keyboard-response"	"15"	"17116"	"0.0-4.0-1.0-2.0-0.4"	"ts4lkx"	"600"	"1366"	"chrome"	"109.0.0"	"FALSE"	"Windows 10"	"60.1"	"019"	n/a	n/a	n/a	n/a	n/a	n/a	"fixation"	n/a	n/a	n/a	n/a	"NULL"	n/a	"NULL"	"NULL"	"NULL"	"<p style=\"color: black; font-size: 80px; padding-left: 28%; padding-right: 32%; padding-top: 39%; padding-bottom: 5%\">+</p>"	"1305"	n/a	n/a	n/a	n/a	n/a	n/a	n/a	n/a	n/a
n/a	"image-keyboard-response"	"16"	"17612"	"0.0-4.0-1.0-2.0-1.4"	"ts4lkx"	"600"	"1366"	"chrome"	"109.0.0"	"FALSE"	"Windows 10"	"60.1"	"019"	n/a	n/a	n/a	n/a	n/a	n/a	"Trial"	n/a	n/a	n/a	"495"	"arrowright"	n/a	"NULL"	"NULL"	"NULL"	"stimuli/Ebbinghaus_1000000_-1.4000.png"	n/a	"Ebbinghaus"	"arrowright"	"1311"	"TRUE"	"Ebbinghaus"	"100000000000"	"-1.400000000"	"1"	"5"
n/a	"html-keyboard-response"	"17"	"19077"	"0.0-4.0-1.0-2.0-0.5"	"ts4lkx"	"600"	"1366"	"chrome"	"109.0.0"	"FALSE"	"Windows 10"	"60.1"	"019"	n/a	n/a	n/a	n/a	n/a	n/a	"fixation"	n/a	n/a	n/a	n/a	"NULL"	n/a	"NULL"	"NULL"	"NULL"	"<p style=\"color: black; font-size: 80px; padding-left: 1%; padding-right: 4%; padding-top: 50%; padding-bottom: 44%\">+</p>"	"1450"	n/a	n/a	n/a	n/a	n/a	n/a	n/a	n/a	n/a
n/a	"image-keyboard-response"	"18"	"20024"	"0.0-4.0-1.0-2.0-1.5"	"ts4lkx"	"600"	"1366"	"chrome"	"109.0.0"	"FALSE"	"Windows 10"	"60.1"	"019"	n/a	n/a	n/a	n/a	n/a	n/a	"Trial"	n/a	n/a	n/a	"946"	"arrowright"	n/a	"NULL"	"NULL"	"NULL"	"stimuli/Ebbinghaus_-100000_-1.4000.png"	n/a	"Ebbinghaus"	"arrowright"	"1465"	"TRUE"	"Ebbinghaus"	"-10000000000"	"-1.400000000"	"1"	"6"
n/a	"html-button-response"	"19"	"22248"	"0.0-4.0-1.0-3.0"	"ts4lkx"	"600"	"1366"	"chrome"	"109.0.0"	"FALSE"	"Windows 10"	"60.1"	"019"	n/a	n/a	n/a	n/a	n/a	n/a	"practice_block_results"	n/a	n/a	n/a	"2221"	"0"	n/a	"NULL"	"NULL"	"NULL"	"<p style='color:rgb(76,175,80);'> Correct Responses: <b>50.00%</b></p><hr><p style='color:rgb(233,30,99);'> Average Response Time: <b>434.33</b> ms.</p>"	n/a	n/a	n/a	n/a	n/a	n/a	n/a	n/a	n/a	n/a
"TRUE"	"preload"	"20"	"22762"	"0.0-4.0-2.0-0.0"	"ts4lkx"	"600"	"1366"	"chrome"	"109.0.0"	"FALSE"	"Windows 10"	"60.1"	"019"	n/a	n/a	n/a	n/a	n/a	n/a	n/a	n/a	n/a	n/a	n/a	"NULL"	"FALSE"	"list()"	"list()"	"list()"	n/a	n/a	n/a	n/a	n/a	n/a	n/a	n/a	n/a	n/a	n/a
n/a	"html-keyboard-response"	"21"	"23883"	"0.0-4.0-2.0-1.0"	"ts4lkx"	"600"	"1366"	"chrome"	"109.0.0"	"FALSE"	"Windows 10"	"60.1"	"019"	n/a	n/a	n/a	n/a	n/a	n/a	n/a	n/a	n/a	n/a	"1120"	"enter"	n/a	"NULL"	"NULL"	"NULL"	"<p><b>Practice</b></p><p>In this part, two horizontal red lines will appear one above the other.</p><p>Your task is to select which <b>line is longer</b> in length as fast as you can, without making errors.</p><p>Don't get distracted by the surrounding black arrows at the end of the red lines!</p><p>Press <b>the UP or the DOWN arrow</b> to indicate where is the longer <b>red line.</b></p><div style='float: center'><img src='materials/instructions/MullerLyer_Demo.png' height='300'></img><p><img src='utils/answer/answer_updown_keyboard.PNG' height='150'></img></p><p class='small'>In this example, the correct answer is the <b>UP arrow</b>.</p></div><p>Are you ready? <b>Press ENTER to start</b></p>"	n/a	n/a	n/a	n/a	n/a	n/a	n/a	n/a	n/a	n/a
n/a	"html-keyboard-response"	"22"	"25500"	"0.0-4.0-2.0-2.0-0.0"	"ts4lkx"	"600"	"1366"	"chrome"	"109.0.0"	"FALSE"	"Windows 10"	"60.1"	"019"	n/a	n/a	n/a	n/a	n/a	n/a	"fixation"	n/a	n/a	n/a	n/a	"NULL"	n/a	"NULL"	"NULL"	"NULL"	"<p style=\"color: black; font-size: 80px; padding-left: 17%; padding-right: 9%; padding-top: 31%; padding-bottom: 18%\">+</p>"	"1078"	n/a	n/a	n/a	n/a	n/a	n/a	n/a	n/a	n/a
n/a	"image-keyboard-response"	"23"	"26364"	"0.0-4.0-2.0-2.0-1.0"	"ts4lkx"	"600"	"1366"	"chrome"	"109.0.0"	"FALSE"	"Windows 10"	"60.1"	"019"	n/a	n/a	n/a	n/a	n/a	n/a	"Trial"	n/a	n/a	n/a	"863"	"arrowdown"	n/a	"NULL"	"NULL"	"NULL"	"stimuli/MullerLyer_0000000_-0.7000.png"	n/a	"MullerLyer"	"arrowdown"	"1617"	"TRUE"	"MullerLyer"	"000000000000"	"-0.700000000"	"1"	"7"
n/a	"html-keyboard-response"	"24"	"27697"	"0.0-4.0-2.0-2.0-0.1"	"ts4lkx"	"600"	"1366"	"chrome"	"109.0.0"	"FALSE"	"Windows 10"	"60.1"	"019"	n/a	n/a	n/a	n/a	n/a	n/a	"fixation"	n/a	n/a	n/a	n/a	"NULL"	n/a	"NULL"	"NULL"	"NULL"	"<p style=\"color: black; font-size: 80px; padding-left: 48%; padding-right: 31%; padding-top: 27%; padding-bottom: 48%\">+</p>"	"1306"	n/a	n/a	n/a	n/a	n/a	n/a	n/a	n/a	n/a
n/a	"image-keyboard-response"	"25"	"28227"	"0.0-4.0-2.0-2.0-1.1"	"ts4lkx"	"600"	"1366"	"chrome"	"109.0.0"	"FALSE"	"Windows 10"	"60.1"	"019"	n/a	n/a	n/a	n/a	n/a	n/a	"Trial"	n/a	n/a	n/a	"528"	"arrowup"	n/a	"NULL"	"NULL"	"NULL"	"stimuli/MullerLyer_2300000_0.70000.png"	n/a	"MullerLyer"	"arrowup"	"1333"	"TRUE"	"MullerLyer"	"230000000000"	"0.7000000000"	"1"	"8"
n/a	"html-keyboard-response"	"26"	"29733"	"0.0-4.0-2.0-2.0-0.2"	"ts4lkx"	"600"	"1366"	"chrome"	"109.0.0"	"FALSE"	"Windows 10"	"60.1"	"019"	n/a	n/a	n/a	n/a	n/a	n/a	"fixation"	n/a	n/a	n/a	n/a	"NULL"	n/a	"NULL"	"NULL"	"NULL"	"<p style=\"color: black; font-size: 80px; padding-left: 20%; padding-right: 38%; padding-top: 10%; padding-bottom: 30%\">+</p>"	"1492"	n/a	n/a	n/a	n/a	n/a	n/a	n/a	n/a	n/a
n/a	"image-keyboard-response"	"27"	"30192"	"0.0-4.0-2.0-2.0-1.2"	"ts4lkx"	"600"	"1366"	"chrome"	"109.0.0"	"FALSE"	"Windows 10"	"60.1"	"019"	n/a	n/a	n/a	n/a	n/a	n/a	"Trial"	n/a	n/a	n/a	"455"	"arrowdown"	n/a	"NULL"	"NULL"	"NULL"	"stimuli/MullerLyer_0000000_0.70000.png"	n/a	"MullerLyer"	"arrowup"	"1506"	"FALSE"	"MullerLyer"	"000000000000"	"0.7000000000"	"1"	"9"
n/a	"html-keyboard-response"	"28"	"31624"	"0.0-4.0-2.0-2.0-0.3"	"ts4lkx"	"600"	"1366"	"chrome"	"109.0.0"	"FALSE"	"Windows 10"	"60.1"	"019"	n/a	n/a	n/a	n/a	n/a	n/a	"fixation"	n/a	n/a	n/a	n/a	"NULL"	n/a	"NULL"	"NULL"	"NULL"	"<p style=\"color: black; font-size: 80px; padding-left: 21%; padding-right: 2%; padding-top: 41%; padding-bottom: 25%\">+</p>"	"1405"	n/a	n/a	n/a	n/a	n/a	n/a	n/a	n/a	n/a
n/a	"image-keyboard-response"	"29"	"32383"	"0.0-4.0-2.0-2.0-1.3"	"ts4lkx"	"600"	"1366"	"chrome"	"109.0.0"	"FALSE"	"Windows 10"	"60.1"	"019"	n/a	n/a	n/a	n/a	n/a	n/a	"Trial"	n/a	n/a	n/a	"754"	"arrowdown"	n/a	"NULL"	"NULL"	"NULL"	"stimuli/MullerLyer_2300000_-0.7000.png"	n/a	"MullerLyer"	"arrowdown"	"1432"	"TRUE"	"MullerLyer"	"230000000000"	"-0.700000000"	"1"	"10"
n/a	"html-keyboard-response"	"30"	"33812"	"0.0-4.0-2.0-2.0-0.4"	"ts4lkx"	"600"	"1366"	"chrome"	"109.0.0"	"FALSE"	"Windows 10"	"60.1"	"019"	n/a	n/a	n/a	n/a	n/a	n/a	"fixation"	n/a	n/a	n/a	n/a	"NULL"	n/a	"NULL"	"NULL"	"NULL"	"<p style=\"color: black; font-size: 80px; padding-left: 25%; padding-right: 44%; padding-top: 33%; padding-bottom: 30%\">+</p>"	"1408"	n/a	n/a	n/a	n/a	n/a	n/a	n/a	n/a	n/a
n/a	"image-keyboard-response"	"31"	"34340"	"0.0-4.0-2.0-2.0-1.4"	"ts4lkx"	"600"	"1366"	"chrome"	"109.0.0"	"FALSE"	"Windows 10"	"60.1"	"019"	n/a	n/a	n/a	n/a	n/a	n/a	"Trial"	n/a	n/a	n/a	"528"	"arrowup"	n/a	"NULL"	"NULL"	"NULL"	"stimuli/MullerLyer_-230000_0.70000.png"	n/a	"MullerLyer"	"arrowup"	"1429"	"TRUE"	"MullerLyer"	"-23000000000"	"0.7000000000"	"1"	"11"
n/a	"html-keyboard-response"	"32"	"35689"	"0.0-4.0-2.0-2.0-0.5"	"ts4lkx"	"600"	"1366"	"chrome"	"109.0.0"	"FALSE"	"Windows 10"	"60.1"	"019"	n/a	n/a	n/a	n/a	n/a	n/a	"fixation"	n/a	n/a	n/a	n/a	"NULL"	n/a	"NULL"	"NULL"	"NULL"	"<p style=\"color: black; font-size: 80px; padding-left: 15%; padding-right: 21%; padding-top: 42%; padding-bottom: 9%\">+</p>"	"1341"	n/a	n/a	n/a	n/a	n/a	n/a	n/a	n/a	n/a
n/a	"image-keyboard-response"	"33"	"36386"	"0.0-4.0-2.0-2.0-1.5"	"ts4lkx"	"600"	"1366"	"chrome"	"109.0.0"	"FALSE"	"Windows 10"	"60.1"	"019"	n/a	n/a	n/a	n/a	n/a	n/a	"Trial"	n/a	n/a	n/a	"696"	"arrowdown"	n/a	"NULL"	"NULL"	"NULL"	"stimuli/MullerLyer_-230000_-0.7000.png"	n/a	"MullerLyer"	"arrowdown"	"1349"	"TRUE"	"MullerLyer"	"-23000000000"	"-0.700000000"	"1"	"12"
n/a	"html-button-response"	"34"	"38517"	"0.0-4.0-2.0-3.0"	"ts4lkx"	"600"	"1366"	"chrome"	"109.0.0"	"FALSE"	"Windows 10"	"60.1"	"019"	n/a	n/a	n/a	n/a	n/a	n/a	"practice_block_results"	n/a	n/a	n/a	"2130"	"0"	n/a	"NULL"	"NULL"	"NULL"	"<p style='color:rgb(76,175,80);'> Correct Responses: <b>83.33%</b></p><hr><p style='color:rgb(233,30,99);'> Average Response Time: <b>637.33</b> ms.</p>"	n/a	n/a	n/a	n/a	n/a	n/a	n/a	n/a	n/a	n/a
"TRUE"	"preload"	"35"	"39060"	"0.0-4.0-3.0-0.0"	"ts4lkx"	"600"	"1366"	"chrome"	"109.0.0"	"FALSE"	"Windows 10"	"60.1"	"019"	n/a	n/a	n/a	n/a	n/a	n/a	n/a	n/a	n/a	n/a	n/a	"NULL"	"FALSE"	"list()"	"list()"	"list()"	n/a	n/a	n/a	n/a	n/a	n/a	n/a	n/a	n/a	n/a	n/a
n/a	"html-keyboard-response"	"36"	"39864"	"0.0-4.0-3.0-1.0"	"ts4lkx"	"600"	"1366"	"chrome"	"109.0.0"	"FALSE"	"Windows 10"	"60.1"	"019"	n/a	n/a	n/a	n/a	n/a	n/a	n/a	n/a	n/a	n/a	"803"	"enter"	n/a	"NULL"	"NULL"	"NULL"	"<p><b>Practice</b></p><p>In this part, two red lines will appear side by side.</p><p>Your task is to tell <b>which line is longer</b> in length, regardless of their orientation, as fast as you can, and without making errors.</p><p>Don't get distracted by the orientation of the lines!</p><p>Press <b>the LEFT or the RIGHT arrow</b> to indicate which <b>line is the longer one.</b></p><div style='float: center'><img src='materials/instructions/VerticalHorizontal_Demo.png' height='300'></img><p><img src='utils/answer/answer_leftright_keyboard.PNG' height='150'></img></p><p class='small'>In this example, the correct answer is the <b>LEFT arrow</b>.</p></div><p>Are you ready? <b>Press ENTER to start</b></p>"	n/a	n/a	n/a	n/a	n/a	n/a	n/a	n/a	n/a	n/a
n/a	"html-keyboard-response"	"37"	"41452"	"0.0-4.0-3.0-2.0-0.0"	"ts4lkx"	"600"	"1366"	"chrome"	"109.0.0"	"FALSE"	"Windows 10"	"60.1"	"019"	n/a	n/a	n/a	n/a	n/a	n/a	"fixation"	n/a	n/a	n/a	n/a	"NULL"	n/a	"NULL"	"NULL"	"NULL"	"<p style=\"color: black; font-size: 80px; padding-left: 18%; padding-right: 50%; padding-top: 34%; padding-bottom: 0%\">+</p>"	"1065"	n/a	n/a	n/a	n/a	n/a	n/a	n/a	n/a	n/a
n/a	"image-keyboard-response"	"38"	"41781"	"0.0-4.0-3.0-2.0-1.0"	"ts4lkx"	"600"	"1366"	"chrome"	"109.0.0"	"FALSE"	"Windows 10"	"60.1"	"019"	n/a	n/a	n/a	n/a	n/a	n/a	"Trial"	n/a	n/a	n/a	"328"	"arrowright"	n/a	"NULL"	"NULL"	"NULL"	"stimuli/VerticalHorizontal_3300000_0.90000.png"	n/a	"VerticalHorizontal"	"arrowleft"	"1588"	"FALSE"	"VerticalHorizontal"	"330000000000"	"0.9000000000"	"1"	"13"
n/a	"html-keyboard-response"	"39"	"42874"	"0.0-4.0-3.0-2.0-0.1"	"ts4lkx"	"600"	"1366"	"chrome"	"109.0.0"	"FALSE"	"Windows 10"	"60.1"	"019"	n/a	n/a	n/a	n/a	n/a	n/a	"fixation"	n/a	n/a	n/a	n/a	"NULL"	n/a	"NULL"	"NULL"	"NULL"	"<p style=\"color: black; font-size: 80px; padding-left: 3%; padding-right: 41%; padding-top: 40%; padding-bottom: 40%\">+</p>"	"1082"	n/a	n/a	n/a	n/a	n/a	n/a	n/a	n/a	n/a
n/a	"image-keyboard-response"	"40"	"43501"	"0.0-4.0-3.0-2.0-1.1"	"ts4lkx"	"600"	"1366"	"chrome"	"109.0.0"	"FALSE"	"Windows 10"	"60.1"	"019"	n/a	n/a	n/a	n/a	n/a	n/a	"Trial"	n/a	n/a	n/a	"626"	"arrowright"	n/a	"NULL"	"NULL"	"NULL"	"stimuli/VerticalHorizontal_-330000_-0.9000.png"	n/a	"VerticalHorizontal"	"arrowright"	"1093"	"TRUE"	"VerticalHorizontal"	"-33000000000"	"-0.900000000"	"1"	"14"
n/a	"html-keyboard-response"	"41"	"44907"	"0.0-4.0-3.0-2.0-0.2"	"ts4lkx"	"600"	"1366"	"chrome"	"109.0.0"	"FALSE"	"Windows 10"	"60.1"	"019"	n/a	n/a	n/a	n/a	n/a	n/a	"fixation"	n/a	n/a	n/a	n/a	"NULL"	n/a	"NULL"	"NULL"	"NULL"	"<p style=\"color: black; font-size: 80px; padding-left: 45%; padding-right: 17%; padding-top: 37%; padding-bottom: 31%\">+</p>"	"1385"	n/a	n/a	n/a	n/a	n/a	n/a	n/a	n/a	n/a
n/a	"image-keyboard-response"	"42"	"45394"	"0.0-4.0-3.0-2.0-1.2"	"ts4lkx"	"600"	"1366"	"chrome"	"109.0.0"	"FALSE"	"Windows 10"	"60.1"	"019"	n/a	n/a	n/a	n/a	n/a	n/a	"Trial"	n/a	n/a	n/a	"486"	"arrowright"	n/a	"NULL"	"NULL"	"NULL"	"stimuli/VerticalHorizontal_0000000_-0.9000.png"	n/a	"VerticalHorizontal"	"arrowright"	"1406"	"TRUE"	"VerticalHorizontal"	"000000000000"	"-0.900000000"	"1"	"15"
n/a	"html-keyboard-response"	"43"	"46780"	"0.0-4.0-3.0-2.0-0.3"	"ts4lkx"	"600"	"1366"	"chrome"	"109.0.0"	"FALSE"	"Windows 10"	"60.1"	"019"	n/a	n/a	n/a	n/a	n/a	n/a	"fixation"	n/a	n/a	n/a	n/a	"NULL"	n/a	"NULL"	"NULL"	"NULL"	"<p style=\"color: black; font-size: 80px; padding-left: 27%; padding-right: 6%; padding-top: 37%; padding-bottom: 22%\">+</p>"	"1368"	n/a	n/a	n/a	n/a	n/a	n/a	n/a	n/a	n/a
n/a	"image-keyboard-response"	"44"	"47305"	"0.0-4.0-3.0-2.0-1.3"	"ts4lkx"	"600"	"1366"	"chrome"	"109.0.0"	"FALSE"	"Windows 10"	"60.1"	"019"	n/a	n/a	n/a	n/a	n/a	n/a	"Trial"	n/a	n/a	n/a	"524"	"arrowright"	n/a	"NULL"	"NULL"	"NULL"	"stimuli/VerticalHorizontal_0000000_0.90000.png"	n/a	"VerticalHorizontal"	"arrowleft"	"1386"	"FALSE"	"VerticalHorizontal"	"000000000000"	"0.9000000000"	"1"	"16"
n/a	"html-keyboard-response"	"45"	"48374"	"0.0-4.0-3.0-2.0-0.4"	"ts4lkx"	"600"	"1366"	"chrome"	"109.0.0"	"FALSE"	"Windows 10"	"60.1"	"019"	n/a	n/a	n/a	n/a	n/a	n/a	"fixation"	n/a	n/a	n/a	n/a	"NULL"	n/a	"NULL"	"NULL"	"NULL"	"<p style=\"color: black; font-size: 80px; padding-left: 21%; padding-right: 32%; padding-top: 31%; padding-bottom: 8%\">+</p>"	"1050"	n/a	n/a	n/a	n/a	n/a	n/a	n/a	n/a	n/a
n/a	"image-keyboard-response"	"46"	"48739"	"0.0-4.0-3.0-2.0-1.4"	"ts4lkx"	"600"	"1366"	"chrome"	"109.0.0"	"FALSE"	"Windows 10"	"60.1"	"019"	n/a	n/a	n/a	n/a	n/a	n/a	"Trial"	n/a	n/a	n/a	"364"	"arrowright"	n/a	"NULL"	"NULL"	"NULL"	"stimuli/VerticalHorizontal_-330000_0.90000.png"	n/a	"VerticalHorizontal"	"arrowleft"	"1069"	"FALSE"	"VerticalHorizontal"	"-33000000000"	"0.9000000000"	"1"	"17"
n/a	"html-keyboard-response"	"47"	"50110"	"0.0-4.0-3.0-2.0-0.5"	"ts4lkx"	"600"	"1366"	"chrome"	"109.0.0"	"FALSE"	"Windows 10"	"60.1"	"019"	n/a	n/a	n/a	n/a	n/a	n/a	"fixation"	n/a	n/a	n/a	n/a	"NULL"	n/a	"NULL"	"NULL"	"NULL"	"<p style=\"color: black; font-size: 80px; padding-left: 46%; padding-right: 42%; padding-top: 37%; padding-bottom: 44%\">+</p>"	"1352"	n/a	n/a	n/a	n/a	n/a	n/a	n/a	n/a	n/a
n/a	"image-keyboard-response"	"48"	"50281"	"0.0-4.0-3.0-2.0-1.5"	"ts4lkx"	"600"	"1366"	"chrome"	"109.0.0"	"FALSE"	"Windows 10"	"60.1"	"019"	n/a	n/a	n/a	n/a	n/a	n/a	"Trial"	n/a	n/a	n/a	"169"	"arrowright"	n/a	"NULL"	"NULL"	"NULL"	"stimuli/VerticalHorizontal_3300000_-0.9000.png"	n/a	"VerticalHorizontal"	"arrowright"	"1371"	"TRUE"	"VerticalHorizontal"	"330000000000"	"-0.900000000"	"1"	"18"
n/a	"html-button-response"	"49"	"52731"	"0.0-4.0-3.0-3.0"	"ts4lkx"	"600"	"1366"	"chrome"	"109.0.0"	"FALSE"	"Windows 10"	"60.1"	"019"	n/a	n/a	n/a	n/a	n/a	n/a	"practice_block_results"	n/a	n/a	n/a	"2443"	"0"	n/a	"NULL"	"NULL"	"NULL"	"<p style='color:rgb(76,175,80);'> Correct Responses: <b>50.00%</b></p><hr><p style='color:rgb(233,30,99);'> Average Response Time: <b>416.17</b> ms.</p>"	n/a	n/a	n/a	n/a	n/a	n/a	n/a	n/a	n/a	n/a
n/a	"html-button-response"	"50"	"72162"	"0.0-4.0-4.0"	"ts4lkx"	"600"	"1366"	"chrome"	"109.0.0"	"FALSE"	"Windows 10"	"60.1"	"019"	n/a	n/a	n/a	n/a	n/a	n/a	"practice_debrief"	n/a	n/a	n/a	"18909"	"0"	n/a	"NULL"	"NULL"	"NULL"	"<p><b>TRAINING COMPLETED</b></p><p>In the next phase, there will be more trials, and some might be harder too.<br> Moreover, after each illusion block, a <b>score</b> will be calculated based on speed (time you took to answer) and accuracy (number of errors).</p><p>Try to keep up a high score!</p><br><p>Note that it can be <i>really</i> challenging at times, so you will need to rely on your <b>intuition</b> and gut feeling to answer as fast as you can without making errors.</p><p>Each illusion block will be repeated two times (so that you have the opportunity to improve your score), but the order of the blocks is random.</p><p>Remember, your goal is to be as <b>fast</b> and <b>accurate</b> as possible. Good luck!</p><br>"	n/a	n/a	n/a	n/a	n/a	n/a	n/a	n/a	n/a	n/a
"TRUE"	"preload"	"51"	"72349"	"0.0-5.0-0.0"	"ts4lkx"	"600"	"1366"	"chrome"	"109.0.0"	"FALSE"	"Windows 10"	"60.1"	"019"	n/a	n/a	n/a	n/a	n/a	n/a	n/a	n/a	n/a	n/a	n/a	"NULL"	"FALSE"	"list()"	"list()"	"list()"	n/a	n/a	n/a	n/a	n/a	n/a	n/a	n/a	n/a	n/a	n/a
n/a	"html-keyboard-response"	"52"	"77067"	"0.0-5.0-1.0"	"ts4lkx"	"600"	"1366"	"chrome"	"109.0.0"	"FALSE"	"Windows 10"	"60.1"	"019"	n/a	n/a	n/a	n/a	n/a	n/a	n/a	n/a	n/a	n/a	"4717"	"enter"	n/a	"NULL"	"NULL"	"NULL"	"<p><b>Part 1/6</b></p><p>In this part, two horizontal red lines will appear one above the other.</p><p>Your task is to select which <b>line is longer</b> in length as fast as you can, without making errors.</p><p>Don't get distracted by the surrounding black arrows at the end of the red lines!</p><p>Press <b>the UP or the DOWN arrow</b> to indicate where is the longer <b>red line.</b></p><div style='float: center'><img src='materials/instructions/MullerLyer_Demo.png' height='300'></img><p><img src='utils/answer/answer_updown_keyboard.PNG' height='150'></img></p><p class='small'>In this example, the correct answer is the <b>UP arrow</b>.</p></div><p>Are you ready? <b>Press ENTER to start</b></p>"	n/a	n/a	n/a	n/a	n/a	n/a	n/a	n/a	n/a	n/a
n/a	"html-keyboard-response"	"53"	"78967"	"0.0-5.0-2.0-0.0"	"ts4lkx"	"600"	"1366"	"chrome"	"109.0.0"	"FALSE"	"Windows 10"	"60.1"	"019"	n/a	n/a	n/a	n/a	n/a	n/a	"fixation"	n/a	n/a	n/a	n/a	"NULL"	n/a	"NULL"	"NULL"	"NULL"	"<p style=\"color: black; font-size: 80px; padding-left: 36%; padding-right: 18%; padding-top: 23%; padding-bottom: 46%\">+</p>"	"1384"	n/a	n/a	n/a	n/a	n/a	n/a	n/a	n/a	n/a
n/a	"image-keyboard-response"	"54"	"79706"	"0.0-5.0-2.0-1.0"	"ts4lkx"	"600"	"1366"	"chrome"	"109.0.0"	"FALSE"	"Windows 10"	"60.1"	"019"	n/a	n/a	n/a	n/a	n/a	n/a	"Trial"	n/a	n/a	n/a	"738"	"arrowup"	n/a	"NULL"	"NULL"	"NULL"	"stimuli/MullerLyer_8.21429_0.35000.png"	n/a	"MullerLyer"	"arrowup"	"1900"	"TRUE"	"MullerLyer"	"8.2142900000"	"0.3500000000"	"1"	"19"
n/a	"html-keyboard-response"	"55"	"81001"	"0.0-5.0-2.0-0.1"	"ts4lkx"	"600"	"1366"	"chrome"	"109.0.0"	"FALSE"	"Windows 10"	"60.1"	"019"	n/a	n/a	n/a	n/a	n/a	n/a	"fixation"	n/a	n/a	n/a	n/a	"NULL"	n/a	"NULL"	"NULL"	"NULL"	"<p style=\"color: black; font-size: 80px; padding-left: 30%; padding-right: 4%; padding-top: 8%; padding-bottom: 25%\">+</p>"	"1294"	n/a	n/a	n/a	n/a	n/a	n/a	n/a	n/a	n/a
n/a	"image-keyboard-response"	"56"	"81937"	"0.0-5.0-2.0-1.1"	"ts4lkx"	"600"	"1366"	"chrome"	"109.0.0"	"FALSE"	"Windows 10"	"60.1"	"019"	n/a	n/a	n/a	n/a	n/a	n/a	"Trial"	n/a	n/a	n/a	"935"	"arrowup"	n/a	"NULL"	"NULL"	"NULL"	"stimuli/MullerLyer_20.04286_-0.14541.png"	n/a	"MullerLyer"	"arrowdown"	"1295"	"FALSE"	"MullerLyer"	"20.042860000"	"-0.145410000"	"1"	"20"
n/a	"html-keyboard-response"	"57"	"82961"	"0.0-5.0-2.0-0.2"	"ts4lkx"	"600"	"1366"	"chrome"	"109.0.0"	"FALSE"	"Windows 10"	"60.1"	"019"	n/a	n/a	n/a	n/a	n/a	n/a	"fixation"	n/a	n/a	n/a	n/a	"NULL"	n/a	"NULL"	"NULL"	"NULL"	"<p style=\"color: black; font-size: 80px; padding-left: 24%; padding-right: 46%; padding-top: 21%; padding-bottom: 33%\">+</p>"	"1020"	n/a	n/a	n/a	n/a	n/a	n/a	n/a	n/a	n/a
n/a	"image-keyboard-response"	"58"	"84439"	"0.0-5.0-2.0-1.2"	"ts4lkx"	"600"	"1366"	"chrome"	"109.0.0"	"FALSE"	"Windows 10"	"60.1"	"019"	n/a	n/a	n/a	n/a	n/a	n/a	"Trial"	n/a	n/a	n/a	"1477"	"arrowup"	n/a	"NULL"	"NULL"	"NULL"	"stimuli/MullerLyer_20.04286_0.35000.png"	n/a	"MullerLyer"	"arrowup"	"1024"	"TRUE"	"MullerLyer"	"20.042860000"	"0.3500000000"	"1"	"21"
n/a	"html-keyboard-response"	"59"	"85671"	"0.0-5.0-2.0-0.3"	"ts4lkx"	"600"	"1366"	"chrome"	"109.0.0"	"FALSE"	"Windows 10"	"60.1"	"019"	n/a	n/a	n/a	n/a	n/a	n/a	"fixation"	n/a	n/a	n/a	n/a	"NULL"	n/a	"NULL"	"NULL"	"NULL"	"<p style=\"color: black; font-size: 80px; padding-left: 42%; padding-right: 24%; padding-top: 47%; padding-bottom: 24%\">+</p>"	"1219"	n/a	n/a	n/a	n/a	n/a	n/a	n/a	n/a	n/a
n/a	"image-keyboard-response"	"60"	"87094"	"0.0-5.0-2.0-1.3"	"ts4lkx"	"600"	"1366"	"chrome"	"109.0.0"	"FALSE"	"Windows 10"	"60.1"	"019"	n/a	n/a	n/a	n/a	n/a	n/a	"Trial"	n/a	n/a	n/a	"1421"	"arrowdown"	n/a	"NULL"	"NULL"	"NULL"	"stimuli/MullerLyer_14.12857_-0.23665.png"	n/a	"MullerLyer"	"arrowdown"	"1232"	"TRUE"	"MullerLyer"	"14.128570000"	"-0.236650000"	"1"	"22"
n/a	"html-keyboard-response"	"61"	"88170"	"0.0-5.0-2.0-0.4"	"ts4lkx"	"600"	"1366"	"chrome"	"109.0.0"	"FALSE"	"Windows 10"	"60.1"	"019"	n/a	n/a	n/a	n/a	n/a	n/a	"fixation"	n/a	n/a	n/a	n/a	"NULL"	n/a	"NULL"	"NULL"	"NULL"	"<p style=\"color: black; font-size: 80px; padding-left: 15%; padding-right: 19%; padding-top: 9%; padding-bottom: 23%\">+</p>"	"1067"	n/a	n/a	n/a	n/a	n/a	n/a	n/a	n/a	n/a
n/a	"image-keyboard-response"	"62"	"88781"	"0.0-5.0-2.0-1.4"	"ts4lkx"	"600"	"1366"	"chrome"	"109.0.0"	"FALSE"	"Windows 10"	"60.1"	"019"	n/a	n/a	n/a	n/a	n/a	n/a	"Trial"	n/a	n/a	n/a	"610"	"arrowup"	n/a	"NULL"	"NULL"	"NULL"	"stimuli/MullerLyer_-14.12857_0.35000.png"	n/a	"MullerLyer"	"arrowup"	"1076"	"TRUE"	"MullerLyer"	"-14.12857000"	"0.3500000000"	"1"	"23"
n/a	"html-keyboard-response"	"63"	"90154"	"0.0-5.0-2.0-0.5"	"ts4lkx"	"600"	"1366"	"chrome"	"109.0.0"	"FALSE"	"Windows 10"	"60.1"	"019"	n/a	n/a	n/a	n/a	n/a	n/a	"fixation"	n/a	n/a	n/a	n/a	"NULL"	n/a	"NULL"	"NULL"	"NULL"	"<p style=\"color: black; font-size: 80px; padding-left: 34%; padding-right: 18%; padding-top: 31%; padding-bottom: 44%\">+</p>"	"1361"	n/a	n/a	n/a	n/a	n/a	n/a	n/a	n/a	n/a
n/a	"image-keyboard-response"	"64"	"90884"	"0.0-5.0-2.0-1.5"	"ts4lkx"	"600"	"1366"	"chrome"	"109.0.0"	"FALSE"	"Windows 10"	"60.1"	"019"	n/a	n/a	n/a	n/a	n/a	n/a	"Trial"	n/a	n/a	n/a	"730"	"arrowdown"	n/a	"NULL"	"NULL"	"NULL"	"stimuli/MullerLyer_20.04286_0.07627.png"	n/a	"MullerLyer"	"arrowup"	"1373"	"FALSE"	"MullerLyer"	"20.042860000"	"0.0762700000"	"1"	"24"
n/a	"html-keyboard-response"	"65"	"92199"	"0.0-5.0-2.0-0.6"	"ts4lkx"	"600"	"1366"	"chrome"	"109.0.0"	"FALSE"	"Windows 10"	"60.1"	"019"	n/a	n/a	n/a	n/a	n/a	n/a	"fixation"	n/a	n/a	n/a	n/a	"NULL"	n/a	"NULL"	"NULL"	"NULL"	"<p style=\"color: black; font-size: 80px; padding-left: 24%; padding-right: 41%; padding-top: 28%; padding-bottom: 20%\">+</p>"	"1312"	n/a	n/a	n/a	n/a	n/a	n/a	n/a	n/a	n/a
n/a	"image-keyboard-response"	"66"	"93105"	"0.0-5.0-2.0-1.6"	"ts4lkx"	"600"	"1366"	"chrome"	"109.0.0"	"FALSE"	"Windows 10"	"60.1"	"019"	n/a	n/a	n/a	n/a	n/a	n/a	"Trial"	n/a	n/a	n/a	"899"	"arrowup"	n/a	"NULL"	"NULL"	"NULL"	"stimuli/MullerLyer_2.30000_0.14541.png"	n/a	"MullerLyer"	"arrowup"	"1315"	"TRUE"	"MullerLyer"	"2.3000000000"	"0.1454100000"	"1"	"25"
n/a	"html-keyboard-response"	"67"	"94607"	"0.0-5.0-2.0-0.7"	"ts4lkx"	"600"	"1366"	"chrome"	"109.0.0"	"FALSE"	"Windows 10"	"60.1"	"019"	n/a	n/a	n/a	n/a	n/a	n/a	"fixation"	n/a	n/a	n/a	n/a	"NULL"	n/a	"NULL"	"NULL"	"NULL"	"<p style=\"color: black; font-size: 80px; padding-left: 29%; padding-right: 1%; padding-top: 9%; padding-bottom: 3%\">+</p>"	"1497"	n/a	n/a	n/a	n/a	n/a	n/a	n/a	n/a	n/a
n/a	"image-keyboard-response"	"68"	"95312"	"0.0-5.0-2.0-1.7"	"ts4lkx"	"600"	"1366"	"chrome"	"109.0.0"	"FALSE"	"Windows 10"	"60.1"	"019"	n/a	n/a	n/a	n/a	n/a	n/a	"Trial"	n/a	n/a	n/a	"704"	"arrowdown"	n/a	"NULL"	"NULL"	"NULL"	"stimuli/MullerLyer_-8.21429_-0.14541.png"	n/a	"MullerLyer"	"arrowdown"	"1502"	"TRUE"	"MullerLyer"	"-8.214290000"	"-0.145410000"	"1"	"26"
n/a	"html-keyboard-response"	"69"	"96796"	"0.0-5.0-2.0-0.8"	"ts4lkx"	"600"	"1366"	"chrome"	"109.0.0"	"FALSE"	"Windows 10"	"60.1"	"019"	n/a	n/a	n/a	n/a	n/a	n/a	"fixation"	n/a	n/a	n/a	n/a	"NULL"	n/a	"NULL"	"NULL"	"NULL"	"<p style=\"color: black; font-size: 80px; padding-left: 11%; padding-right: 2%; padding-top: 43%; padding-bottom: 4%\">+</p>"	"1470"	n/a	n/a	n/a	n/a	n/a	n/a	n/a	n/a	n/a
n/a	"image-keyboard-response"	"70"	"97725"	"0.0-5.0-2.0-1.8"	"ts4lkx"	"600"	"1366"	"chrome"	"109.0.0"	"FALSE"	"Windows 10"	"60.1"	"019"	n/a	n/a	n/a	n/a	n/a	n/a	"Trial"	n/a	n/a	n/a	"928"	"arrowup"	n/a	"NULL"	"NULL"	"NULL"	"stimuli/MullerLyer_-2.3000_0.07627.png"	n/a	"MullerLyer"	"arrowup"	"1484"	"TRUE"	"MullerLyer"	"-2.300000000"	"0.0762700000"	"1"	"27"
n/a	"html-keyboard-response"	"71"	"98778"	"0.0-5.0-2.0-0.9"	"ts4lkx"	"600"	"1366"	"chrome"	"109.0.0"	"FALSE"	"Windows 10"	"60.1"	"019"	n/a	n/a	n/a	n/a	n/a	n/a	"fixation"	n/a	n/a	n/a	n/a	"NULL"	n/a	"NULL"	"NULL"	"NULL"	"<p style=\"color: black; font-size: 80px; padding-left: 35%; padding-right: 7%; padding-top: 4%; padding-bottom: 43%\">+</p>"	"1048"	n/a	n/a	n/a	n/a	n/a	n/a	n/a	n/a	n/a
n/a	"image-keyboard-response"	"72"	"99782"	"0.0-5.0-2.0-1.9"	"ts4lkx"	"600"	"1366"	"chrome"	"109.0.0"	"FALSE"	"Windows 10"	"60.1"	"019"	n/a	n/a	n/a	n/a	n/a	n/a	"Trial"	n/a	n/a	n/a	"1003"	"arrowdown"	n/a	"NULL"	"NULL"	"NULL"	"stimuli/MullerLyer_8.21429_-0.23665.png"	n/a	"MullerLyer"	"arrowdown"	"1053"	"TRUE"	"MullerLyer"	"8.2142900000"	"-0.236650000"	"1"	"28"
n/a	"html-keyboard-response"	"73"	"101026"	"0.0-5.0-2.0-0.10"	"ts4lkx"	"600"	"1366"	"chrome"	"109.0.0"	"FALSE"	"Windows 10"	"60.1"	"019"	n/a	n/a	n/a	n/a	n/a	n/a	"fixation"	n/a	n/a	n/a	n/a	"NULL"	n/a	"NULL"	"NULL"	"NULL"	"<p style=\"color: black; font-size: 80px; padding-left: 34%; padding-right: 43%; padding-top: 26%; padding-bottom: 37%\">+</p>"	"1237"	n/a	n/a	n/a	n/a	n/a	n/a	n/a	n/a	n/a
n/a	"image-keyboard-response"	"74"	"101571"	"0.0-5.0-2.0-1.10"	"ts4lkx"	"600"	"1366"	"chrome"	"109.0.0"	"FALSE"	"Windows 10"	"60.1"	"019"	n/a	n/a	n/a	n/a	n/a	n/a	"Trial"	n/a	n/a	n/a	"544"	"arrowup"	n/a	"NULL"	"NULL"	"NULL"	"stimuli/MullerLyer_-8.21429_0.23665.png"	n/a	"MullerLyer"	"arrowup"	"1244"	"TRUE"	"MullerLyer"	"-8.214290000"	"0.2366500000"	"1"	"29"
n/a	"html-keyboard-response"	"75"	"103038"	"0.0-5.0-2.0-0.11"	"ts4lkx"	"600"	"1366"	"chrome"	"109.0.0"	"FALSE"	"Windows 10"	"60.1"	"019"	n/a	n/a	n/a	n/a	n/a	n/a	"fixation"	n/a	n/a	n/a	n/a	"NULL"	n/a	"NULL"	"NULL"	"NULL"	"<p style=\"color: black; font-size: 80px; padding-left: 5%; padding-right: 23%; padding-top: 28%; padding-bottom: 18%\">+</p>"	"1455"	n/a	n/a	n/a	n/a	n/a	n/a	n/a	n/a	n/a
n/a	"image-keyboard-response"	"76"	"103566"	"0.0-5.0-2.0-1.11"	"ts4lkx"	"600"	"1366"	"chrome"	"109.0.0"	"FALSE"	"Windows 10"	"60.1"	"019"	n/a	n/a	n/a	n/a	n/a	n/a	"Trial"	n/a	n/a	n/a	"527"	"arrowup"	n/a	"NULL"	"NULL"	"NULL"	"stimuli/MullerLyer_-20.04286_0.23665.png"	n/a	"MullerLyer"	"arrowup"	"1467"	"TRUE"	"MullerLyer"	"-20.04286000"	"0.2366500000"	"1"	"30"
n/a	"html-keyboard-response"	"77"	"104734"	"0.0-5.0-2.0-0.12"	"ts4lkx"	"600"	"1366"	"chrome"	"109.0.0"	"FALSE"	"Windows 10"	"60.1"	"019"	n/a	n/a	n/a	n/a	n/a	n/a	"fixation"	n/a	n/a	n/a	n/a	"NULL"	n/a	"NULL"	"NULL"	"NULL"	"<p style=\"color: black; font-size: 80px; padding-left: 12%; padding-right: 18%; padding-top: 30%; padding-bottom: 16%\">+</p>"	"1153"	n/a	n/a	n/a	n/a	n/a	n/a	n/a	n/a	n/a
n/a	"image-keyboard-response"	"78"	"105621"	"0.0-5.0-2.0-1.12"	"ts4lkx"	"600"	"1366"	"chrome"	"109.0.0"	"FALSE"	"Windows 10"	"60.1"	"019"	n/a	n/a	n/a	n/a	n/a	n/a	"Trial"	n/a	n/a	n/a	"886"	"arrowup"	n/a	"NULL"	"NULL"	"NULL"	"stimuli/MullerLyer_8.21429_0.14541.png"	n/a	"MullerLyer"	"arrowup"	"1168"	"TRUE"	"MullerLyer"	"8.2142900000"	"0.1454100000"	"1"	"31"
n/a	"html-keyboard-response"	"79"	"107016"	"0.0-5.0-2.0-0.13"	"ts4lkx"	"600"	"1366"	"chrome"	"109.0.0"	"FALSE"	"Windows 10"	"60.1"	"019"	n/a	n/a	n/a	n/a	n/a	n/a	"fixation"	n/a	n/a	n/a	n/a	"NULL"	n/a	"NULL"	"NULL"	"NULL"	"<p style=\"color: black; font-size: 80px; padding-left: 14%; padding-right: 2%; padding-top: 22%; padding-bottom: 30%\">+</p>"	"1380"	n/a	n/a	n/a	n/a	n/a	n/a	n/a	n/a	n/a
n/a	"image-keyboard-response"	"80"	"107595"	"0.0-5.0-2.0-1.13"	"ts4lkx"	"600"	"1366"	"chrome"	"109.0.0"	"FALSE"	"Windows 10"	"60.1"	"019"	n/a	n/a	n/a	n/a	n/a	n/a	"Trial"	n/a	n/a	n/a	"578"	"arrowup"	n/a	"NULL"	"NULL"	"NULL"	"stimuli/MullerLyer_14.12857_0.35000.png"	n/a	"MullerLyer"	"arrowup"	"1395"	"TRUE"	"MullerLyer"	"14.128570000"	"0.3500000000"	"1"	"32"
n/a	"html-keyboard-response"	"81"	"108745"	"0.0-5.0-2.0-0.14"	"ts4lkx"	"600"	"1366"	"chrome"	"109.0.0"	"FALSE"	"Windows 10"	"60.1"	"019"	n/a	n/a	n/a	n/a	n/a	n/a	"fixation"	n/a	n/a	n/a	n/a	"NULL"	n/a	"NULL"	"NULL"	"NULL"	"<p style=\"color: black; font-size: 80px; padding-left: 2%; padding-right: 33%; padding-top: 39%; padding-bottom: 8%\">+</p>"	"1134"	n/a	n/a	n/a	n/a	n/a	n/a	n/a	n/a	n/a
n/a	"image-keyboard-response"	"82"	"109393"	"0.0-5.0-2.0-1.14"	"ts4lkx"	"600"	"1366"	"chrome"	"109.0.0"	"FALSE"	"Windows 10"	"60.1"	"019"	n/a	n/a	n/a	n/a	n/a	n/a	"Trial"	n/a	n/a	n/a	"648"	"arrowdown"	n/a	"NULL"	"NULL"	"NULL"	"stimuli/MullerLyer_-14.12857_-0.23665.png"	n/a	"MullerLyer"	"arrowdown"	"1150"	"TRUE"	"MullerLyer"	"-14.12857000"	"-0.236650000"	"1"	"33"
n/a	"html-keyboard-response"	"83"	"110591"	"0.0-5.0-2.0-0.15"	"ts4lkx"	"600"	"1366"	"chrome"	"109.0.0"	"FALSE"	"Windows 10"	"60.1"	"019"	n/a	n/a	n/a	n/a	n/a	n/a	"fixation"	n/a	n/a	n/a	n/a	"NULL"	n/a	"NULL"	"NULL"	"NULL"	"<p style=\"color: black; font-size: 80px; padding-left: 17%; padding-right: 3%; padding-top: 29%; padding-bottom: 27%\">+</p>"	"1192"	n/a	n/a	n/a	n/a	n/a	n/a	n/a	n/a	n/a
n/a	"image-keyboard-response"	"84"	"111138"	"0.0-5.0-2.0-1.15"	"ts4lkx"	"600"	"1366"	"chrome"	"109.0.0"	"FALSE"	"Windows 10"	"60.1"	"019"	n/a	n/a	n/a	n/a	n/a	n/a	"Trial"	n/a	n/a	n/a	"546"	"arrowup"	n/a	"NULL"	"NULL"	"NULL"	"stimuli/MullerLyer_20.04286_-0.23665.png"	n/a	"MullerLyer"	"arrowdown"	"1198"	"FALSE"	"MullerLyer"	"20.042860000"	"-0.236650000"	"1"	"34"
n/a	"html-keyboard-response"	"85"	"112514"	"0.0-5.0-2.0-0.16"	"ts4lkx"	"600"	"1366"	"chrome"	"109.0.0"	"FALSE"	"Windows 10"	"60.1"	"019"	n/a	n/a	n/a	n/a	n/a	n/a	"fixation"	n/a	n/a	n/a	n/a	"NULL"	n/a	"NULL"	"NULL"	"NULL"	"<p style=\"color: black; font-size: 80px; padding-left: 35%; padding-right: 13%; padding-top: 12%; padding-bottom: 11%\">+</p>"	"1358"	n/a	n/a	n/a	n/a	n/a	n/a	n/a	n/a	n/a
n/a	"image-keyboard-response"	"86"	"113242"	"0.0-5.0-2.0-1.16"	"ts4lkx"	"600"	"1366"	"chrome"	"109.0.0"	"FALSE"	"Windows 10"	"60.1"	"019"	n/a	n/a	n/a	n/a	n/a	n/a	"Trial"	n/a	n/a	n/a	"727"	"arrowdown"	n/a	"NULL"	"NULL"	"NULL"	"stimuli/MullerLyer_8.21429_-0.3500.png"	n/a	"MullerLyer"	"arrowdown"	"1376"	"TRUE"	"MullerLyer"	"8.2142900000"	"-0.350000000"	"1"	"35"
n/a	"html-keyboard-response"	"87"	"114670"	"0.0-5.0-2.0-0.17"	"ts4lkx"	"600"	"1366"	"chrome"	"109.0.0"	"FALSE"	"Windows 10"	"60.1"	"019"	n/a	n/a	n/a	n/a	n/a	n/a	"fixation"	n/a	n/a	n/a	n/a	"NULL"	n/a	"NULL"	"NULL"	"NULL"	"<p style=\"color: black; font-size: 80px; padding-left: 47%; padding-right: 14%; padding-top: 4%; padding-bottom: 18%\">+</p>"	"1408"	n/a	n/a	n/a	n/a	n/a	n/a	n/a	n/a	n/a
n/a	"image-keyboard-response"	"88"	"115657"	"0.0-5.0-2.0-1.17"	"ts4lkx"	"600"	"1366"	"chrome"	"109.0.0"	"FALSE"	"Windows 10"	"60.1"	"019"	n/a	n/a	n/a	n/a	n/a	n/a	"Trial"	n/a	n/a	n/a	"986"	"arrowup"	n/a	"NULL"	"NULL"	"NULL"	"stimuli/MullerLyer_8.21429_-0.07627.png"	n/a	"MullerLyer"	"arrowdown"	"1428"	"FALSE"	"MullerLyer"	"8.2142900000"	"-0.076270000"	"1"	"36"
n/a	"html-keyboard-response"	"89"	"116780"	"0.0-5.0-2.0-0.18"	"ts4lkx"	"600"	"1366"	"chrome"	"109.0.0"	"FALSE"	"Windows 10"	"60.1"	"019"	n/a	n/a	n/a	n/a	n/a	n/a	"fixation"	n/a	n/a	n/a	n/a	"NULL"	n/a	"NULL"	"NULL"	"NULL"	"<p style=\"color: black; font-size: 80px; padding-left: 41%; padding-right: 37%; padding-top: 4%; padding-bottom: 49%\">+</p>"	"1104"	n/a	n/a	n/a	n/a	n/a	n/a	n/a	n/a	n/a
n/a	"image-keyboard-response"	"90"	"118004"	"0.0-5.0-2.0-1.18"	"ts4lkx"	"600"	"1366"	"chrome"	"109.0.0"	"FALSE"	"Windows 10"	"60.1"	"019"	n/a	n/a	n/a	n/a	n/a	n/a	"Trial"	n/a	n/a	n/a	"1223"	"arrowup"	n/a	"NULL"	"NULL"	"NULL"	"stimuli/MullerLyer_14.12857_-0.14541.png"	n/a	"MullerLyer"	"arrowdown"	"1123"	"FALSE"	"MullerLyer"	"14.128570000"	"-0.145410000"	"1"	"37"
n/a	"html-keyboard-response"	"91"	"119145"	"0.0-5.0-2.0-0.19"	"ts4lkx"	"600"	"1366"	"chrome"	"109.0.0"	"FALSE"	"Windows 10"	"60.1"	"019"	n/a	n/a	n/a	n/a	n/a	n/a	"fixation"	n/a	n/a	n/a	n/a	"NULL"	n/a	"NULL"	"NULL"	"NULL"	"<p style=\"color: black; font-size: 80px; padding-left: 7%; padding-right: 3%; padding-top: 14%; padding-bottom: 41%\">+</p>"	"1125"	n/a	n/a	n/a	n/a	n/a	n/a	n/a	n/a	n/a
n/a	"image-keyboard-response"	"92"	"119822"	"0.0-5.0-2.0-1.19"	"ts4lkx"	"600"	"1366"	"chrome"	"109.0.0"	"FALSE"	"Windows 10"	"60.1"	"019"	n/a	n/a	n/a	n/a	n/a	n/a	"Trial"	n/a	n/a	n/a	"672"	"arrowup"	n/a	"NULL"	"NULL"	"NULL"	"stimuli/MullerLyer_20.04286_-0.07627.png"	n/a	"MullerLyer"	"arrowdown"	"1141"	"FALSE"	"MullerLyer"	"20.042860000"	"-0.076270000"	"1"	"38"
n/a	"html-keyboard-response"	"93"	"121247"	"0.0-5.0-2.0-0.20"	"ts4lkx"	"600"	"1366"	"chrome"	"109.0.0"	"FALSE"	"Windows 10"	"60.1"	"019"	n/a	n/a	n/a	n/a	n/a	n/a	"fixation"	n/a	n/a	n/a	n/a	"NULL"	n/a	"NULL"	"NULL"	"NULL"	"<p style=\"color: black; font-size: 80px; padding-left: 30%; padding-right: 35%; padding-top: 19%; padding-bottom: 12%\">+</p>"	"1402"	n/a	n/a	n/a	n/a	n/a	n/a	n/a	n/a	n/a
n/a	"image-keyboard-response"	"94"	"121793"	"0.0-5.0-2.0-1.20"	"ts4lkx"	"600"	"1366"	"chrome"	"109.0.0"	"FALSE"	"Windows 10"	"60.1"	"019"	n/a	n/a	n/a	n/a	n/a	n/a	"Trial"	n/a	n/a	n/a	"546"	"arrowup"	n/a	"NULL"	"NULL"	"NULL"	"stimuli/MullerLyer_-14.12857_0.14541.png"	n/a	"MullerLyer"	"arrowup"	"1425"	"TRUE"	"MullerLyer"	"-14.12857000"	"0.1454100000"	"1"	"39"
n/a	"html-keyboard-response"	"95"	"123106"	"0.0-5.0-2.0-0.21"	"ts4lkx"	"600"	"1366"	"chrome"	"109.0.0"	"FALSE"	"Windows 10"	"60.1"	"019"	n/a	n/a	n/a	n/a	n/a	n/a	"fixation"	n/a	n/a	n/a	n/a	"NULL"	n/a	"NULL"	"NULL"	"NULL"	"<p style=\"color: black; font-size: 80px; padding-left: 22%; padding-right: 14%; padding-top: 38%; padding-bottom: 44%\">+</p>"	"1299"	n/a	n/a	n/a	n/a	n/a	n/a	n/a	n/a	n/a
n/a	"image-keyboard-response"	"96"	"123601"	"0.0-5.0-2.0-1.21"	"ts4lkx"	"600"	"1366"	"chrome"	"109.0.0"	"FALSE"	"Windows 10"	"60.1"	"019"	n/a	n/a	n/a	n/a	n/a	n/a	"Trial"	n/a	n/a	n/a	"492"	"arrowup"	n/a	"NULL"	"NULL"	"NULL"	"stimuli/MullerLyer_-14.12857_0.23665.png"	n/a	"MullerLyer"	"arrowup"	"1313"	"TRUE"	"MullerLyer"	"-14.12857000"	"0.2366500000"	"1"	"40"
n/a	"html-keyboard-response"	"97"	"125032"	"0.0-5.0-2.0-0.22"	"ts4lkx"	"600"	"1366"	"chrome"	"109.0.0"	"FALSE"	"Windows 10"	"60.1"	"019"	n/a	n/a	n/a	n/a	n/a	n/a	"fixation"	n/a	n/a	n/a	n/a	"NULL"	n/a	"NULL"	"NULL"	"NULL"	"<p style=\"color: black; font-size: 80px; padding-left: 13%; padding-right: 47%; padding-top: 48%; padding-bottom: 15%\">+</p>"	"1428"	n/a	n/a	n/a	n/a	n/a	n/a	n/a	n/a	n/a
n/a	"image-keyboard-response"	"98"	"125635"	"0.0-5.0-2.0-1.22"	"ts4lkx"	"600"	"1366"	"chrome"	"109.0.0"	"FALSE"	"Windows 10"	"60.1"	"019"	n/a	n/a	n/a	n/a	n/a	n/a	"Trial"	n/a	n/a	n/a	"603"	"arrowdown"	n/a	"NULL"	"NULL"	"NULL"	"stimuli/MullerLyer_-2.3000_-0.3500.png"	n/a	"MullerLyer"	"arrowdown"	"1431"	"TRUE"	"MullerLyer"	"-2.300000000"	"-0.350000000"	"1"	"41"
n/a	"html-keyboard-response"	"99"	"126905"	"0.0-5.0-2.0-0.23"	"ts4lkx"	"600"	"1366"	"chrome"	"109.0.0"	"FALSE"	"Windows 10"	"60.1"	"019"	n/a	n/a	n/a	n/a	n/a	n/a	"fixation"	n/a	n/a	n/a	n/a	"NULL"	n/a	"NULL"	"NULL"	"NULL"	"<p style=\"color: black; font-size: 80px; padding-left: 22%; padding-right: 33%; padding-top: 31%; padding-bottom: 20%\">+</p>"	"1261"	n/a	n/a	n/a	n/a	n/a	n/a	n/a	n/a	n/a
n/a	"image-keyboard-response"	"100"	"127599"	"0.0-5.0-2.0-1.23"	"ts4lkx"	"600"	"1366"	"chrome"	"109.0.0"	"FALSE"	"Windows 10"	"60.1"	"019"	n/a	n/a	n/a	n/a	n/a	n/a	"Trial"	n/a	n/a	n/a	"692"	"arrowdown"	n/a	"NULL"	"NULL"	"NULL"	"stimuli/MullerLyer_-20.04286_-0.23665.png"	n/a	"MullerLyer"	"arrowdown"	"1270"	"TRUE"	"MullerLyer"	"-20.04286000"	"-0.236650000"	"1"	"42"
n/a	"html-keyboard-response"	"101"	"129108"	"0.0-5.0-2.0-0.24"	"ts4lkx"	"600"	"1366"	"chrome"	"109.0.0"	"FALSE"	"Windows 10"	"60.1"	"019"	n/a	n/a	n/a	n/a	n/a	n/a	"fixation"	n/a	n/a	n/a	n/a	"NULL"	n/a	"NULL"	"NULL"	"NULL"	"<p style=\"color: black; font-size: 80px; padding-left: 47%; padding-right: 14%; padding-top: 42%; padding-bottom: 41%\">+</p>"	"1497"	n/a	n/a	n/a	n/a	n/a	n/a	n/a	n/a	n/a
n/a	"image-keyboard-response"	"102"	"129941"	"0.0-5.0-2.0-1.24"	"ts4lkx"	"600"	"1366"	"chrome"	"109.0.0"	"FALSE"	"Windows 10"	"60.1"	"019"	n/a	n/a	n/a	n/a	n/a	n/a	"Trial"	n/a	n/a	n/a	"832"	"arrowdown"	n/a	"NULL"	"NULL"	"NULL"	"stimuli/MullerLyer_2.30000_-0.23665.png"	n/a	"MullerLyer"	"arrowdown"	"1509"	"TRUE"	"MullerLyer"	"2.3000000000"	"-0.236650000"	"1"	"43"
n/a	"html-keyboard-response"	"103"	"131030"	"0.0-5.0-2.0-0.25"	"ts4lkx"	"600"	"1366"	"chrome"	"109.0.0"	"FALSE"	"Windows 10"	"60.1"	"019"	n/a	n/a	n/a	n/a	n/a	n/a	"fixation"	n/a	n/a	n/a	n/a	"NULL"	n/a	"NULL"	"NULL"	"NULL"	"<p style=\"color: black; font-size: 80px; padding-left: 41%; padding-right: 49%; padding-top: 38%; padding-bottom: 17%\">+</p>"	"1070"	n/a	n/a	n/a	n/a	n/a	n/a	n/a	n/a	n/a
n/a	"image-keyboard-response"	"104"	"132225"	"0.0-5.0-2.0-1.25"	"ts4lkx"	"600"	"1366"	"chrome"	"109.0.0"	"FALSE"	"Windows 10"	"60.1"	"019"	n/a	n/a	n/a	n/a	n/a	n/a	"Trial"	n/a	n/a	n/a	"1193"	"arrowdown"	n/a	"NULL"	"NULL"	"NULL"	"stimuli/MullerLyer_-8.21429_-0.3500.png"	n/a	"MullerLyer"	"arrowdown"	"1089"	"TRUE"	"MullerLyer"	"-8.214290000"	"-0.350000000"	"1"	"44"
n/a	"html-keyboard-response"	"105"	"133261"	"0.0-5.0-2.0-0.26"	"ts4lkx"	"600"	"1366"	"chrome"	"109.0.0"	"FALSE"	"Windows 10"	"60.1"	"019"	n/a	n/a	n/a	n/a	n/a	n/a	"fixation"	n/a	n/a	n/a	n/a	"NULL"	n/a	"NULL"	"NULL"	"NULL"	"<p style=\"color: black; font-size: 80px; padding-left: 15%; padding-right: 18%; padding-top: 26%; padding-bottom: 7%\">+</p>"	"1026"	n/a	n/a	n/a	n/a	n/a	n/a	n/a	n/a	n/a
n/a	"image-keyboard-response"	"106"	"134186"	"0.0-5.0-2.0-1.26"	"ts4lkx"	"600"	"1366"	"chrome"	"109.0.0"	"FALSE"	"Windows 10"	"60.1"	"019"	n/a	n/a	n/a	n/a	n/a	n/a	"Trial"	n/a	n/a	n/a	"918"	"arrowdown"	n/a	"NULL"	"NULL"	"NULL"	"stimuli/MullerLyer_8.21429_0.07627.png"	n/a	"MullerLyer"	"arrowup"	"1036"	"FALSE"	"MullerLyer"	"8.2142900000"	"0.0762700000"	"1"	"45"
n/a	"html-keyboard-response"	"107"	"135360"	"0.0-5.0-2.0-0.27"	"ts4lkx"	"600"	"1366"	"chrome"	"109.0.0"	"FALSE"	"Windows 10"	"60.1"	"019"	n/a	n/a	n/a	n/a	n/a	n/a	"fixation"	n/a	n/a	n/a	n/a	"NULL"	n/a	"NULL"	"NULL"	"NULL"	"<p style=\"color: black; font-size: 80px; padding-left: 21%; padding-right: 24%; padding-top: 28%; padding-bottom: 18%\">+</p>"	"1167"	n/a	n/a	n/a	n/a	n/a	n/a	n/a	n/a	n/a
n/a	"image-keyboard-response"	"108"	"135862"	"0.0-5.0-2.0-1.27"	"ts4lkx"	"600"	"1366"	"chrome"	"109.0.0"	"FALSE"	"Windows 10"	"60.1"	"019"	n/a	n/a	n/a	n/a	n/a	n/a	"Trial"	n/a	n/a	n/a	"500"	"arrowup"	n/a	"NULL"	"NULL"	"NULL"	"stimuli/MullerLyer_8.21429_0.23665.png"	n/a	"MullerLyer"	"arrowup"	"1174"	"TRUE"	"MullerLyer"	"8.2142900000"	"0.2366500000"	"1"	"46"
n/a	"html-keyboard-response"	"109"	"137370"	"0.0-5.0-2.0-0.28"	"ts4lkx"	"600"	"1366"	"chrome"	"109.0.0"	"FALSE"	"Windows 10"	"60.1"	"019"	n/a	n/a	n/a	n/a	n/a	n/a	"fixation"	n/a	n/a	n/a	n/a	"NULL"	n/a	"NULL"	"NULL"	"NULL"	"<p style=\"color: black; font-size: 80px; padding-left: 49%; padding-right: 48%; padding-top: 10%; padding-bottom: 46%\">+</p>"	"1489"	n/a	n/a	n/a	n/a	n/a	n/a	n/a	n/a	n/a
n/a	"image-keyboard-response"	"110"	"138307"	"0.0-5.0-2.0-1.28"	"ts4lkx"	"600"	"1366"	"chrome"	"109.0.0"	"FALSE"	"Windows 10"	"60.1"	"019"	n/a	n/a	n/a	n/a	n/a	n/a	"Trial"	n/a	n/a	n/a	"937"	"arrowdown"	n/a	"NULL"	"NULL"	"NULL"	"stimuli/MullerLyer_20.04286_-0.3500.png"	n/a	"MullerLyer"	"arrowdown"	"1508"	"TRUE"	"MullerLyer"	"20.042860000"	"-0.350000000"	"1"	"47"
n/a	"html-keyboard-response"	"111"	"139593"	"0.0-5.0-2.0-0.29"	"ts4lkx"	"600"	"1366"	"chrome"	"109.0.0"	"FALSE"	"Windows 10"	"60.1"	"019"	n/a	n/a	n/a	n/a	n/a	n/a	"fixation"	n/a	n/a	n/a	n/a	"NULL"	n/a	"NULL"	"NULL"	"NULL"	"<p style=\"color: black; font-size: 80px; padding-left: 13%; padding-right: 4%; padding-top: 25%; padding-bottom: 47%\">+</p>"	"1278"	n/a	n/a	n/a	n/a	n/a	n/a	n/a	n/a	n/a
n/a	"image-keyboard-response"	"112"	"140669"	"0.0-5.0-2.0-1.29"	"ts4lkx"	"600"	"1366"	"chrome"	"109.0.0"	"FALSE"	"Windows 10"	"60.1"	"019"	n/a	n/a	n/a	n/a	n/a	n/a	"Trial"	n/a	n/a	n/a	"1075"	"arrowup"	n/a	"NULL"	"NULL"	"NULL"	"stimuli/MullerLyer_20.04286_0.23665.png"	n/a	"MullerLyer"	"arrowup"	"1286"	"TRUE"	"MullerLyer"	"20.042860000"	"0.2366500000"	"1"	"48"
n/a	"html-keyboard-response"	"113"	"142147"	"0.0-5.0-2.0-0.30"	"ts4lkx"	"600"	"1366"	"chrome"	"109.0.0"	"FALSE"	"Windows 10"	"60.1"	"019"	n/a	n/a	n/a	n/a	n/a	n/a	"fixation"	n/a	n/a	n/a	n/a	"NULL"	n/a	"NULL"	"NULL"	"NULL"	"<p style=\"color: black; font-size: 80px; padding-left: 49%; padding-right: 4%; padding-top: 0%; padding-bottom: 36%\">+</p>"	"1465"	n/a	n/a	n/a	n/a	n/a	n/a	n/a	n/a	n/a
n/a	"image-keyboard-response"	"114"	"142753"	"0.0-5.0-2.0-1.30"	"ts4lkx"	"600"	"1366"	"chrome"	"109.0.0"	"FALSE"	"Windows 10"	"60.1"	"019"	n/a	n/a	n/a	n/a	n/a	n/a	"Trial"	n/a	n/a	n/a	"604"	"arrowdown"	n/a	"NULL"	"NULL"	"NULL"	"stimuli/MullerLyer_-14.12857_-0.07627.png"	n/a	"MullerLyer"	"arrowdown"	"1478"	"TRUE"	"MullerLyer"	"-14.12857000"	"-0.076270000"	"1"	"49"
n/a	"html-keyboard-response"	"115"	"143782"	"0.0-5.0-2.0-0.31"	"ts4lkx"	"600"	"1366"	"chrome"	"109.0.0"	"FALSE"	"Windows 10"	"60.1"	"019"	n/a	n/a	n/a	n/a	n/a	n/a	"fixation"	n/a	n/a	n/a	n/a	"NULL"	n/a	"NULL"	"NULL"	"NULL"	"<p style=\"color: black; font-size: 80px; padding-left: 26%; padding-right: 21%; padding-top: 24%; padding-bottom: 11%\">+</p>"	"1008"	n/a	n/a	n/a	n/a	n/a	n/a	n/a	n/a	n/a
n/a	"image-keyboard-response"	"116"	"144437"	"0.0-5.0-2.0-1.31"	"ts4lkx"	"600"	"1366"	"chrome"	"109.0.0"	"FALSE"	"Windows 10"	"60.1"	"019"	n/a	n/a	n/a	n/a	n/a	n/a	"Trial"	n/a	n/a	n/a	"653"	"arrowup"	n/a	"NULL"	"NULL"	"NULL"	"stimuli/MullerLyer_-2.3000_0.35000.png"	n/a	"MullerLyer"	"arrowup"	"1029"	"TRUE"	"MullerLyer"	"-2.300000000"	"0.3500000000"	"1"	"50"
n/a	"html-keyboard-response"	"117"	"145669"	"0.0-5.0-2.0-0.32"	"ts4lkx"	"600"	"1366"	"chrome"	"109.0.0"	"FALSE"	"Windows 10"	"60.1"	"019"	n/a	n/a	n/a	n/a	n/a	n/a	"fixation"	n/a	n/a	n/a	n/a	"NULL"	n/a	"NULL"	"NULL"	"NULL"	"<p style=\"color: black; font-size: 80px; padding-left: 30%; padding-right: 9%; padding-top: 6%; padding-bottom: 4%\">+</p>"	"1213"	n/a	n/a	n/a	n/a	n/a	n/a	n/a	n/a	n/a
n/a	"image-keyboard-response"	"118"	"146650"	"0.0-5.0-2.0-1.32"	"ts4lkx"	"600"	"1366"	"chrome"	"109.0.0"	"FALSE"	"Windows 10"	"60.1"	"019"	n/a	n/a	n/a	n/a	n/a	n/a	"Trial"	n/a	n/a	n/a	"980"	"arrowup"	n/a	"NULL"	"NULL"	"NULL"	"stimuli/MullerLyer_14.12857_-0.07627.png"	n/a	"MullerLyer"	"arrowdown"	"1232"	"FALSE"	"MullerLyer"	"14.128570000"	"-0.076270000"	"1"	"51"
n/a	"html-keyboard-response"	"119"	"148140"	"0.0-5.0-2.0-0.33"	"ts4lkx"	"600"	"1366"	"chrome"	"109.0.0"	"FALSE"	"Windows 10"	"60.1"	"019"	n/a	n/a	n/a	n/a	n/a	n/a	"fixation"	n/a	n/a	n/a	n/a	"NULL"	n/a	"NULL"	"NULL"	"NULL"	"<p style=\"color: black; font-size: 80px; padding-left: 44%; padding-right: 26%; padding-top: 1%; padding-bottom: 35%\">+</p>"	"1474"	n/a	n/a	n/a	n/a	n/a	n/a	n/a	n/a	n/a
n/a	"image-keyboard-response"	"120"	"148688"	"0.0-5.0-2.0-1.33"	"ts4lkx"	"600"	"1366"	"chrome"	"109.0.0"	"FALSE"	"Windows 10"	"60.1"	"019"	n/a	n/a	n/a	n/a	n/a	n/a	"Trial"	n/a	n/a	n/a	"547"	"arrowup"	n/a	"NULL"	"NULL"	"NULL"	"stimuli/MullerLyer_-20.04286_0.14541.png"	n/a	"MullerLyer"	"arrowup"	"1490"	"TRUE"	"MullerLyer"	"-20.04286000"	"0.1454100000"	"1"	"52"
n/a	"html-keyboard-response"	"121"	"150000"	"0.0-5.0-2.0-0.34"	"ts4lkx"	"600"	"1366"	"chrome"	"109.0.0"	"FALSE"	"Windows 10"	"60.1"	"019"	n/a	n/a	n/a	n/a	n/a	n/a	"fixation"	n/a	n/a	n/a	n/a	"NULL"	n/a	"NULL"	"NULL"	"NULL"	"<p style=\"color: black; font-size: 80px; padding-left: 44%; padding-right: 12%; padding-top: 25%; padding-bottom: 5%\">+</p>"	"1290"	n/a	n/a	n/a	n/a	n/a	n/a	n/a	n/a	n/a
n/a	"image-keyboard-response"	"122"	"150624"	"0.0-5.0-2.0-1.34"	"ts4lkx"	"600"	"1366"	"chrome"	"109.0.0"	"FALSE"	"Windows 10"	"60.1"	"019"	n/a	n/a	n/a	n/a	n/a	n/a	"Trial"	n/a	n/a	n/a	"624"	"arrowdown"	n/a	"NULL"	"NULL"	"NULL"	"stimuli/MullerLyer_-8.21429_-0.07627.png"	n/a	"MullerLyer"	"arrowdown"	"1312"	"TRUE"	"MullerLyer"	"-8.214290000"	"-0.076270000"	"1"	"53"
n/a	"html-keyboard-response"	"123"	"151780"	"0.0-5.0-2.0-0.35"	"ts4lkx"	"600"	"1366"	"chrome"	"109.0.0"	"FALSE"	"Windows 10"	"60.1"	"019"	n/a	n/a	n/a	n/a	n/a	n/a	"fixation"	n/a	n/a	n/a	n/a	"NULL"	n/a	"NULL"	"NULL"	"NULL"	"<p style=\"color: black; font-size: 80px; padding-left: 23%; padding-right: 12%; padding-top: 34%; padding-bottom: 28%\">+</p>"	"1148"	n/a	n/a	n/a	n/a	n/a	n/a	n/a	n/a	n/a
n/a	"image-keyboard-response"	"124"	"152678"	"0.0-5.0-2.0-1.35"	"ts4lkx"	"600"	"1366"	"chrome"	"109.0.0"	"FALSE"	"Windows 10"	"60.1"	"019"	n/a	n/a	n/a	n/a	n/a	n/a	"Trial"	n/a	n/a	n/a	"894"	"arrowdown"	n/a	"NULL"	"NULL"	"NULL"	"stimuli/MullerLyer_-14.12857_-0.3500.png"	n/a	"MullerLyer"	"arrowdown"	"1156"	"TRUE"	"MullerLyer"	"-14.12857000"	"-0.350000000"	"1"	"54"
n/a	"html-keyboard-response"	"125"	"154184"	"0.0-5.0-2.0-0.36"	"ts4lkx"	"600"	"1366"	"chrome"	"109.0.0"	"FALSE"	"Windows 10"	"60.1"	"019"	n/a	n/a	n/a	n/a	n/a	n/a	"fixation"	n/a	n/a	n/a	n/a	"NULL"	n/a	"NULL"	"NULL"	"NULL"	"<p style=\"color: black; font-size: 80px; padding-left: 25%; padding-right: 1%; padding-top: 48%; padding-bottom: 33%\">+</p>"	"1494"	n/a	n/a	n/a	n/a	n/a	n/a	n/a	n/a	n/a
n/a	"image-keyboard-response"	"126"	"154729"	"0.0-5.0-2.0-1.36"	"ts4lkx"	"600"	"1366"	"chrome"	"109.0.0"	"FALSE"	"Windows 10"	"60.1"	"019"	n/a	n/a	n/a	n/a	n/a	n/a	"Trial"	n/a	n/a	n/a	"544"	"arrowdown"	n/a	"NULL"	"NULL"	"NULL"	"stimuli/MullerLyer_14.12857_0.14541.png"	n/a	"MullerLyer"	"arrowup"	"1506"	"FALSE"	"MullerLyer"	"14.128570000"	"0.1454100000"	"1"	"55"
n/a	"html-keyboard-response"	"127"	"156235"	"0.0-5.0-2.0-0.37"	"ts4lkx"	"600"	"1366"	"chrome"	"109.0.0"	"FALSE"	"Windows 10"	"60.1"	"019"	n/a	n/a	n/a	n/a	n/a	n/a	"fixation"	n/a	n/a	n/a	n/a	"NULL"	n/a	"NULL"	"NULL"	"NULL"	"<p style=\"color: black; font-size: 80px; padding-left: 39%; padding-right: 26%; padding-top: 46%; padding-bottom: 33%\">+</p>"	"1499"	n/a	n/a	n/a	n/a	n/a	n/a	n/a	n/a	n/a
n/a	"image-keyboard-response"	"128"	"156765"	"0.0-5.0-2.0-1.37"	"ts4lkx"	"600"	"1366"	"chrome"	"109.0.0"	"FALSE"	"Windows 10"	"60.1"	"019"	n/a	n/a	n/a	n/a	n/a	n/a	"Trial"	n/a	n/a	n/a	"529"	"arrowup"	n/a	"NULL"	"NULL"	"NULL"	"stimuli/MullerLyer_-20.04286_0.35000.png"	n/a	"MullerLyer"	"arrowup"	"1506"	"TRUE"	"MullerLyer"	"-20.04286000"	"0.3500000000"	"1"	"56"
n/a	"html-keyboard-response"	"129"	"158130"	"0.0-5.0-2.0-0.38"	"ts4lkx"	"600"	"1366"	"chrome"	"109.0.0"	"FALSE"	"Windows 10"	"60.1"	"019"	n/a	n/a	n/a	n/a	n/a	n/a	"fixation"	n/a	n/a	n/a	n/a	"NULL"	n/a	"NULL"	"NULL"	"NULL"	"<p style=\"color: black; font-size: 80px; padding-left: 12%; padding-right: 47%; padding-top: 18%; padding-bottom: 50%\">+</p>"	"1357"	n/a	n/a	n/a	n/a	n/a	n/a	n/a	n/a	n/a
n/a	"image-keyboard-response"	"130"	"158715"	"0.0-5.0-2.0-1.38"	"ts4lkx"	"600"	"1366"	"chrome"	"109.0.0"	"FALSE"	"Windows 10"	"60.1"	"019"	n/a	n/a	n/a	n/a	n/a	n/a	"Trial"	n/a	n/a	n/a	"583"	"arrowup"	n/a	"NULL"	"NULL"	"NULL"	"stimuli/MullerLyer_-8.21429_0.14541.png"	n/a	"MullerLyer"	"arrowup"	"1365"	"TRUE"	"MullerLyer"	"-8.214290000"	"0.1454100000"	"1"	"57"
n/a	"html-keyboard-response"	"131"	"160148"	"0.0-5.0-2.0-0.39"	"ts4lkx"	"600"	"1366"	"chrome"	"109.0.0"	"FALSE"	"Windows 10"	"60.1"	"019"	n/a	n/a	n/a	n/a	n/a	n/a	"fixation"	n/a	n/a	n/a	n/a	"NULL"	n/a	"NULL"	"NULL"	"NULL"	"<p style=\"color: black; font-size: 80px; padding-left: 27%; padding-right: 3%; padding-top: 18%; padding-bottom: 42%\">+</p>"	"1426"	n/a	n/a	n/a	n/a	n/a	n/a	n/a	n/a	n/a
n/a	"image-keyboard-response"	"132"	"161084"	"0.0-5.0-2.0-1.39"	"ts4lkx"	"600"	"1366"	"chrome"	"109.0.0"	"FALSE"	"Windows 10"	"60.1"	"019"	n/a	n/a	n/a	n/a	n/a	n/a	"Trial"	n/a	n/a	n/a	"935"	"arrowdown"	n/a	"NULL"	"NULL"	"NULL"	"stimuli/MullerLyer_2.30000_-0.14541.png"	n/a	"MullerLyer"	"arrowdown"	"1433"	"TRUE"	"MullerLyer"	"2.3000000000"	"-0.145410000"	"1"	"58"
n/a	"html-keyboard-response"	"133"	"162467"	"0.0-5.0-2.0-0.40"	"ts4lkx"	"600"	"1366"	"chrome"	"109.0.0"	"FALSE"	"Windows 10"	"60.1"	"019"	n/a	n/a	n/a	n/a	n/a	n/a	"fixation"	n/a	n/a	n/a	n/a	"NULL"	n/a	"NULL"	"NULL"	"NULL"	"<p style=\"color: black; font-size: 80px; padding-left: 29%; padding-right: 25%; padding-top: 9%; padding-bottom: 25%\">+</p>"	"1378"	n/a	n/a	n/a	n/a	n/a	n/a	n/a	n/a	n/a
n/a	"image-keyboard-response"	"134"	"163092"	"0.0-5.0-2.0-1.40"	"ts4lkx"	"600"	"1366"	"chrome"	"109.0.0"	"FALSE"	"Windows 10"	"60.1"	"019"	n/a	n/a	n/a	n/a	n/a	n/a	"Trial"	n/a	n/a	n/a	"623"	"arrowdown"	n/a	"NULL"	"NULL"	"NULL"	"stimuli/MullerLyer_-14.12857_-0.14541.png"	n/a	"MullerLyer"	"arrowdown"	"1383"	"TRUE"	"MullerLyer"	"-14.12857000"	"-0.145410000"	"1"	"59"
n/a	"html-keyboard-response"	"135"	"164295"	"0.0-5.0-2.0-0.41"	"ts4lkx"	"600"	"1366"	"chrome"	"109.0.0"	"FALSE"	"Windows 10"	"60.1"	"019"	n/a	n/a	n/a	n/a	n/a	n/a	"fixation"	n/a	n/a	n/a	n/a	"NULL"	n/a	"NULL"	"NULL"	"NULL"	"<p style=\"color: black; font-size: 80px; padding-left: 22%; padding-right: 45%; padding-top: 26%; padding-bottom: 21%\">+</p>"	"1190"	n/a	n/a	n/a	n/a	n/a	n/a	n/a	n/a	n/a
n/a	"image-keyboard-response"	"136"	"164829"	"0.0-5.0-2.0-1.41"	"ts4lkx"	"600"	"1366"	"chrome"	"109.0.0"	"FALSE"	"Windows 10"	"60.1"	"019"	n/a	n/a	n/a	n/a	n/a	n/a	"Trial"	n/a	n/a	n/a	"533"	"arrowdown"	n/a	"NULL"	"NULL"	"NULL"	"stimuli/MullerLyer_-20.04286_-0.3500.png"	n/a	"MullerLyer"	"arrowdown"	"1203"	"TRUE"	"MullerLyer"	"-20.04286000"	"-0.350000000"	"1"	"60"
n/a	"html-keyboard-response"	"137"	"166282"	"0.0-5.0-2.0-0.42"	"ts4lkx"	"600"	"1366"	"chrome"	"109.0.0"	"FALSE"	"Windows 10"	"60.1"	"019"	n/a	n/a	n/a	n/a	n/a	n/a	"fixation"	n/a	n/a	n/a	n/a	"NULL"	n/a	"NULL"	"NULL"	"NULL"	"<p style=\"color: black; font-size: 80px; padding-left: 38%; padding-right: 2%; padding-top: 44%; padding-bottom: 10%\">+</p>"	"1449"	n/a	n/a	n/a	n/a	n/a	n/a	n/a	n/a	n/a
n/a	"image-keyboard-response"	"138"	"166844"	"0.0-5.0-2.0-1.42"	"ts4lkx"	"600"	"1366"	"chrome"	"109.0.0"	"FALSE"	"Windows 10"	"60.1"	"019"	n/a	n/a	n/a	n/a	n/a	n/a	"Trial"	n/a	n/a	n/a	"561"	"arrowup"	n/a	"NULL"	"NULL"	"NULL"	"stimuli/MullerLyer_-14.12857_0.07627.png"	n/a	"MullerLyer"	"arrowup"	"1453"	"TRUE"	"MullerLyer"	"-14.12857000"	"0.0762700000"	"1"	"61"
n/a	"html-keyboard-response"	"139"	"167900"	"0.0-5.0-2.0-0.43"	"ts4lkx"	"600"	"1366"	"chrome"	"109.0.0"	"FALSE"	"Windows 10"	"60.1"	"019"	n/a	n/a	n/a	n/a	n/a	n/a	"fixation"	n/a	n/a	n/a	n/a	"NULL"	n/a	"NULL"	"NULL"	"NULL"	"<p style=\"color: black; font-size: 80px; padding-left: 4%; padding-right: 14%; padding-top: 40%; padding-bottom: 21%\">+</p>"	"1036"	n/a	n/a	n/a	n/a	n/a	n/a	n/a	n/a	n/a
n/a	"image-keyboard-response"	"140"	"168497"	"0.0-5.0-2.0-1.43"	"ts4lkx"	"600"	"1366"	"chrome"	"109.0.0"	"FALSE"	"Windows 10"	"60.1"	"019"	n/a	n/a	n/a	n/a	n/a	n/a	"Trial"	n/a	n/a	n/a	"597"	"arrowdown"	n/a	"NULL"	"NULL"	"NULL"	"stimuli/MullerLyer_2.30000_-0.3500.png"	n/a	"MullerLyer"	"arrowdown"	"1056"	"TRUE"	"MullerLyer"	"2.3000000000"	"-0.350000000"	"1"	"62"
n/a	"html-keyboard-response"	"141"	"169670"	"0.0-5.0-2.0-0.44"	"ts4lkx"	"600"	"1366"	"chrome"	"109.0.0"	"FALSE"	"Windows 10"	"60.1"	"019"	n/a	n/a	n/a	n/a	n/a	n/a	"fixation"	n/a	n/a	n/a	n/a	"NULL"	n/a	"NULL"	"NULL"	"NULL"	"<p style=\"color: black; font-size: 80px; padding-left: 34%; padding-right: 8%; padding-top: 18%; padding-bottom: 36%\">+</p>"	"1162"	n/a	n/a	n/a	n/a	n/a	n/a	n/a	n/a	n/a
n/a	"image-keyboard-response"	"142"	"170264"	"0.0-5.0-2.0-1.44"	"ts4lkx"	"600"	"1366"	"chrome"	"109.0.0"	"FALSE"	"Windows 10"	"60.1"	"019"	n/a	n/a	n/a	n/a	n/a	n/a	"Trial"	n/a	n/a	n/a	"590"	"arrowup"	n/a	"NULL"	"NULL"	"NULL"	"stimuli/MullerLyer_2.30000_0.35000.png"	n/a	"MullerLyer"	"arrowup"	"1173"	"TRUE"	"MullerLyer"	"2.3000000000"	"0.3500000000"	"1"	"63"
n/a	"html-keyboard-response"	"143"	"171439"	"0.0-5.0-2.0-0.45"	"ts4lkx"	"600"	"1366"	"chrome"	"109.0.0"	"FALSE"	"Windows 10"	"60.1"	"019"	n/a	n/a	n/a	n/a	n/a	n/a	"fixation"	n/a	n/a	n/a	n/a	"NULL"	n/a	"NULL"	"NULL"	"NULL"	"<p style=\"color: black; font-size: 80px; padding-left: 48%; padding-right: 30%; padding-top: 47%; padding-bottom: 4%\">+</p>"	"1166"	n/a	n/a	n/a	n/a	n/a	n/a	n/a	n/a	n/a
n/a	"image-keyboard-response"	"144"	"171928"	"0.0-5.0-2.0-1.45"	"ts4lkx"	"600"	"1366"	"chrome"	"109.0.0"	"FALSE"	"Windows 10"	"60.1"	"019"	n/a	n/a	n/a	n/a	n/a	n/a	"Trial"	n/a	n/a	n/a	"488"	"arrowup"	n/a	"NULL"	"NULL"	"NULL"	"stimuli/MullerLyer_-2.3000_0.23665.png"	n/a	"MullerLyer"	"arrowup"	"1175"	"TRUE"	"MullerLyer"	"-2.300000000"	"0.2366500000"	"1"	"64"
n/a	"html-keyboard-response"	"145"	"173205"	"0.0-5.0-2.0-0.46"	"ts4lkx"	"600"	"1366"	"chrome"	"109.0.0"	"FALSE"	"Windows 10"	"60.1"	"019"	n/a	n/a	n/a	n/a	n/a	n/a	"fixation"	n/a	n/a	n/a	n/a	"NULL"	n/a	"NULL"	"NULL"	"NULL"	"<p style=\"color: black; font-size: 80px; padding-left: 31%; padding-right: 27%; padding-top: 40%; padding-bottom: 3%\">+</p>"	"1258"	n/a	n/a	n/a	n/a	n/a	n/a	n/a	n/a	n/a
n/a	"image-keyboard-response"	"146"	"173662"	"0.0-5.0-2.0-1.46"	"ts4lkx"	"600"	"1366"	"chrome"	"109.0.0"	"FALSE"	"Windows 10"	"60.1"	"019"	n/a	n/a	n/a	n/a	n/a	n/a	"Trial"	n/a	n/a	n/a	"457"	"arrowup"	n/a	"NULL"	"NULL"	"NULL"	"stimuli/MullerLyer_-20.04286_0.07627.png"	n/a	"MullerLyer"	"arrowup"	"1277"	"TRUE"	"MullerLyer"	"-20.04286000"	"0.0762700000"	"1"	"65"
n/a	"html-keyboard-response"	"147"	"174798"	"0.0-5.0-2.0-0.47"	"ts4lkx"	"600"	"1366"	"chrome"	"109.0.0"	"FALSE"	"Windows 10"	"60.1"	"019"	n/a	n/a	n/a	n/a	n/a	n/a	"fixation"	n/a	n/a	n/a	n/a	"NULL"	n/a	"NULL"	"NULL"	"NULL"	"<p style=\"color: black; font-size: 80px; padding-left: 18%; padding-right: 36%; padding-top: 27%; padding-bottom: 48%\">+</p>"	"1124"	n/a	n/a	n/a	n/a	n/a	n/a	n/a	n/a	n/a
n/a	"image-keyboard-response"	"148"	"175304"	"0.0-5.0-2.0-1.47"	"ts4lkx"	"600"	"1366"	"chrome"	"109.0.0"	"FALSE"	"Windows 10"	"60.1"	"019"	n/a	n/a	n/a	n/a	n/a	n/a	"Trial"	n/a	n/a	n/a	"506"	"arrowdown"	n/a	"NULL"	"NULL"	"NULL"	"stimuli/MullerLyer_-2.3000_-0.23665.png"	n/a	"MullerLyer"	"arrowdown"	"1136"	"TRUE"	"MullerLyer"	"-2.300000000"	"-0.236650000"	"1"	"66"
n/a	"html-keyboard-response"	"149"	"176654"	"0.0-5.0-2.0-0.48"	"ts4lkx"	"600"	"1366"	"chrome"	"109.0.0"	"FALSE"	"Windows 10"	"60.1"	"019"	n/a	n/a	n/a	n/a	n/a	n/a	"fixation"	n/a	n/a	n/a	n/a	"NULL"	n/a	"NULL"	"NULL"	"NULL"	"<p style=\"color: black; font-size: 80px; padding-left: 38%; padding-right: 49%; padding-top: 21%; padding-bottom: 3%\">+</p>"	"1336"	n/a	n/a	n/a	n/a	n/a	n/a	n/a	n/a	n/a
n/a	"image-keyboard-response"	"150"	"177582"	"0.0-5.0-2.0-1.48"	"ts4lkx"	"600"	"1366"	"chrome"	"109.0.0"	"FALSE"	"Windows 10"	"60.1"	"019"	n/a	n/a	n/a	n/a	n/a	n/a	"Trial"	n/a	n/a	n/a	"928"	"arrowup"	n/a	"NULL"	"NULL"	"NULL"	"stimuli/MullerLyer_2.30000_0.07627.png"	n/a	"MullerLyer"	"arrowup"	"1350"	"TRUE"	"MullerLyer"	"2.3000000000"	"0.0762700000"	"1"	"67"
n/a	"html-keyboard-response"	"151"	"178638"	"0.0-5.0-2.0-0.49"	"ts4lkx"	"600"	"1366"	"chrome"	"109.0.0"	"FALSE"	"Windows 10"	"60.1"	"019"	n/a	n/a	n/a	n/a	n/a	n/a	"fixation"	n/a	n/a	n/a	n/a	"NULL"	n/a	"NULL"	"NULL"	"NULL"	"<p style=\"color: black; font-size: 80px; padding-left: 49%; padding-right: 23%; padding-top: 19%; padding-bottom: 14%\">+</p>"	"1036"	n/a	n/a	n/a	n/a	n/a	n/a	n/a	n/a	n/a
n/a	"image-keyboard-response"	"152"	"179696"	"0.0-5.0-2.0-1.49"	"ts4lkx"	"600"	"1366"	"chrome"	"109.0.0"	"FALSE"	"Windows 10"	"60.1"	"019"	n/a	n/a	n/a	n/a	n/a	n/a	"Trial"	n/a	n/a	n/a	"1057"	"arrowdown"	n/a	"NULL"	"NULL"	"NULL"	"stimuli/MullerLyer_14.12857_-0.3500.png"	n/a	"MullerLyer"	"arrowdown"	"1056"	"TRUE"	"MullerLyer"	"14.128570000"	"-0.350000000"	"1"	"68"
n/a	"html-keyboard-response"	"153"	"180916"	"0.0-5.0-2.0-0.50"	"ts4lkx"	"600"	"1366"	"chrome"	"109.0.0"	"FALSE"	"Windows 10"	"60.1"	"019"	n/a	n/a	n/a	n/a	n/a	n/a	"fixation"	n/a	n/a	n/a	n/a	"NULL"	n/a	"NULL"	"NULL"	"NULL"	"<p style=\"color: black; font-size: 80px; padding-left: 20%; padding-right: 11%; padding-top: 35%; padding-bottom: 49%\">+</p>"	"1209"	n/a	n/a	n/a	n/a	n/a	n/a	n/a	n/a	n/a
n/a	"image-keyboard-response"	"154"	"181434"	"0.0-5.0-2.0-1.50"	"ts4lkx"	"600"	"1366"	"chrome"	"109.0.0"	"FALSE"	"Windows 10"	"60.1"	"019"	n/a	n/a	n/a	n/a	n/a	n/a	"Trial"	n/a	n/a	n/a	"515"	"arrowup"	n/a	"NULL"	"NULL"	"NULL"	"stimuli/MullerLyer_-2.3000_0.14541.png"	n/a	"MullerLyer"	"arrowup"	"1220"	"TRUE"	"MullerLyer"	"-2.300000000"	"0.1454100000"	"1"	"69"
n/a	"html-keyboard-response"	"155"	"182516"	"0.0-5.0-2.0-0.51"	"ts4lkx"	"600"	"1366"	"chrome"	"109.0.0"	"FALSE"	"Windows 10"	"60.1"	"019"	n/a	n/a	n/a	n/a	n/a	n/a	"fixation"	n/a	n/a	n/a	n/a	"NULL"	n/a	"NULL"	"NULL"	"NULL"	"<p style=\"color: black; font-size: 80px; padding-left: 35%; padding-right: 9%; padding-top: 28%; padding-bottom: 44%\">+</p>"	"1066"	n/a	n/a	n/a	n/a	n/a	n/a	n/a	n/a	n/a
n/a	"image-keyboard-response"	"156"	"183105"	"0.0-5.0-2.0-1.51"	"ts4lkx"	"600"	"1366"	"chrome"	"109.0.0"	"FALSE"	"Windows 10"	"60.1"	"019"	n/a	n/a	n/a	n/a	n/a	n/a	"Trial"	n/a	n/a	n/a	"588"	"arrowdown"	n/a	"NULL"	"NULL"	"NULL"	"stimuli/MullerLyer_14.12857_0.07627.png"	n/a	"MullerLyer"	"arrowup"	"1082"	"FALSE"	"MullerLyer"	"14.128570000"	"0.0762700000"	"1"	"70"
n/a	"html-keyboard-response"	"157"	"184165"	"0.0-5.0-2.0-0.52"	"ts4lkx"	"600"	"1366"	"chrome"	"109.0.0"	"FALSE"	"Windows 10"	"60.1"	"019"	n/a	n/a	n/a	n/a	n/a	n/a	"fixation"	n/a	n/a	n/a	n/a	"NULL"	n/a	"NULL"	"NULL"	"NULL"	"<p style=\"color: black; font-size: 80px; padding-left: 11%; padding-right: 49%; padding-top: 45%; padding-bottom: 1%\">+</p>"	"1047"	n/a	n/a	n/a	n/a	n/a	n/a	n/a	n/a	n/a
n/a	"image-keyboard-response"	"158"	"184708"	"0.0-5.0-2.0-1.52"	"ts4lkx"	"600"	"1366"	"chrome"	"109.0.0"	"FALSE"	"Windows 10"	"60.1"	"019"	n/a	n/a	n/a	n/a	n/a	n/a	"Trial"	n/a	n/a	n/a	"542"	"arrowup"	n/a	"NULL"	"NULL"	"NULL"	"stimuli/MullerLyer_-8.21429_0.07627.png"	n/a	"MullerLyer"	"arrowup"	"1060"	"TRUE"	"MullerLyer"	"-8.214290000"	"0.0762700000"	"1"	"71"
n/a	"html-keyboard-response"	"159"	"186031"	"0.0-5.0-2.0-0.53"	"ts4lkx"	"600"	"1366"	"chrome"	"109.0.0"	"FALSE"	"Windows 10"	"60.1"	"019"	n/a	n/a	n/a	n/a	n/a	n/a	"fixation"	n/a	n/a	n/a	n/a	"NULL"	n/a	"NULL"	"NULL"	"NULL"	"<p style=\"color: black; font-size: 80px; padding-left: 12%; padding-right: 26%; padding-top: 49%; padding-bottom: 23%\">+</p>"	"1301"	n/a	n/a	n/a	n/a	n/a	n/a	n/a	n/a	n/a
n/a	"image-keyboard-response"	"160"	"186924"	"0.0-5.0-2.0-1.53"	"ts4lkx"	"600"	"1366"	"chrome"	"109.0.0"	"FALSE"	"Windows 10"	"60.1"	"019"	n/a	n/a	n/a	n/a	n/a	n/a	"Trial"	n/a	n/a	n/a	"892"	"arrowdown"	n/a	"NULL"	"NULL"	"NULL"	"stimuli/MullerLyer_2.30000_-0.07627.png"	n/a	"MullerLyer"	"arrowdown"	"1323"	"TRUE"	"MullerLyer"	"2.3000000000"	"-0.076270000"	"1"	"72"
n/a	"html-keyboard-response"	"161"	"188032"	"0.0-5.0-2.0-0.54"	"ts4lkx"	"600"	"1366"	"chrome"	"109.0.0"	"FALSE"	"Windows 10"	"60.1"	"019"	n/a	n/a	n/a	n/a	n/a	n/a	"fixation"	n/a	n/a	n/a	n/a	"NULL"	n/a	"NULL"	"NULL"	"NULL"	"<p style=\"color: black; font-size: 80px; padding-left: 35%; padding-right: 7%; padding-top: 43%; padding-bottom: 27%\">+</p>"	"1092"	n/a	n/a	n/a	n/a	n/a	n/a	n/a	n/a	n/a
n/a	"image-keyboard-response"	"162"	"188685"	"0.0-5.0-2.0-1.54"	"ts4lkx"	"600"	"1366"	"chrome"	"109.0.0"	"FALSE"	"Windows 10"	"60.1"	"019"	n/a	n/a	n/a	n/a	n/a	n/a	"Trial"	n/a	n/a	n/a	"652"	"arrowdown"	n/a	"NULL"	"NULL"	"NULL"	"stimuli/MullerLyer_-20.04286_-0.14541.png"	n/a	"MullerLyer"	"arrowdown"	"1108"	"TRUE"	"MullerLyer"	"-20.04286000"	"-0.145410000"	"1"	"73"
n/a	"html-keyboard-response"	"163"	"189910"	"0.0-5.0-2.0-0.55"	"ts4lkx"	"600"	"1366"	"chrome"	"109.0.0"	"FALSE"	"Windows 10"	"60.1"	"019"	n/a	n/a	n/a	n/a	n/a	n/a	"fixation"	n/a	n/a	n/a	n/a	"NULL"	n/a	"NULL"	"NULL"	"NULL"	"<p style=\"color: black; font-size: 80px; padding-left: 24%; padding-right: 13%; padding-top: 47%; padding-bottom: 43%\">+</p>"	"1217"	n/a	n/a	n/a	n/a	n/a	n/a	n/a	n/a	n/a
n/a	"image-keyboard-response"	"164"	"190422"	"0.0-5.0-2.0-1.55"	"ts4lkx"	"600"	"1366"	"chrome"	"109.0.0"	"FALSE"	"Windows 10"	"60.1"	"019"	n/a	n/a	n/a	n/a	n/a	n/a	"Trial"	n/a	n/a	n/a	"511"	"arrowup"	n/a	"NULL"	"NULL"	"NULL"	"stimuli/MullerLyer_14.12857_0.23665.png"	n/a	"MullerLyer"	"arrowup"	"1225"	"TRUE"	"MullerLyer"	"14.128570000"	"0.2366500000"	"1"	"74"
n/a	"html-keyboard-response"	"165"	"191610"	"0.0-5.0-2.0-0.56"	"ts4lkx"	"600"	"1366"	"chrome"	"109.0.0"	"FALSE"	"Windows 10"	"60.1"	"019"	n/a	n/a	n/a	n/a	n/a	n/a	"fixation"	n/a	n/a	n/a	n/a	"NULL"	n/a	"NULL"	"NULL"	"NULL"	"<p style=\"color: black; font-size: 80px; padding-left: 42%; padding-right: 9%; padding-top: 22%; padding-bottom: 35%\">+</p>"	"1179"	n/a	n/a	n/a	n/a	n/a	n/a	n/a	n/a	n/a
n/a	"image-keyboard-response"	"166"	"192194"	"0.0-5.0-2.0-1.56"	"ts4lkx"	"600"	"1366"	"chrome"	"109.0.0"	"FALSE"	"Windows 10"	"60.1"	"019"	n/a	n/a	n/a	n/a	n/a	n/a	"Trial"	n/a	n/a	n/a	"582"	"arrowdown"	n/a	"NULL"	"NULL"	"NULL"	"stimuli/MullerLyer_-2.3000_-0.14541.png"	n/a	"MullerLyer"	"arrowdown"	"1188"	"TRUE"	"MullerLyer"	"-2.300000000"	"-0.145410000"	"1"	"75"
n/a	"html-keyboard-response"	"167"	"193312"	"0.0-5.0-2.0-0.57"	"ts4lkx"	"600"	"1366"	"chrome"	"109.0.0"	"FALSE"	"Windows 10"	"60.1"	"019"	n/a	n/a	n/a	n/a	n/a	n/a	"fixation"	n/a	n/a	n/a	n/a	"NULL"	n/a	"NULL"	"NULL"	"NULL"	"<p style=\"color: black; font-size: 80px; padding-left: 4%; padding-right: 39%; padding-top: 37%; padding-bottom: 20%\">+</p>"	"1117"	n/a	n/a	n/a	n/a	n/a	n/a	n/a	n/a	n/a
n/a	"image-keyboard-response"	"168"	"193951"	"0.0-5.0-2.0-1.57"	"ts4lkx"	"600"	"1366"	"chrome"	"109.0.0"	"FALSE"	"Windows 10"	"60.1"	"019"	n/a	n/a	n/a	n/a	n/a	n/a	"Trial"	n/a	n/a	n/a	"638"	"arrowdown"	n/a	"NULL"	"NULL"	"NULL"	"stimuli/MullerLyer_-20.04286_-0.07627.png"	n/a	"MullerLyer"	"arrowdown"	"1118"	"TRUE"	"MullerLyer"	"-20.04286000"	"-0.076270000"	"1"	"76"
n/a	"html-keyboard-response"	"169"	"195467"	"0.0-5.0-2.0-0.58"	"ts4lkx"	"600"	"1366"	"chrome"	"109.0.0"	"FALSE"	"Windows 10"	"60.1"	"019"	n/a	n/a	n/a	n/a	n/a	n/a	"fixation"	n/a	n/a	n/a	n/a	"NULL"	n/a	"NULL"	"NULL"	"NULL"	"<p style=\"color: black; font-size: 80px; padding-left: 35%; padding-right: 4%; padding-top: 24%; padding-bottom: 41%\">+</p>"	"1499"	n/a	n/a	n/a	n/a	n/a	n/a	n/a	n/a	n/a
n/a	"image-keyboard-response"	"170"	"195991"	"0.0-5.0-2.0-1.58"	"ts4lkx"	"600"	"1366"	"chrome"	"109.0.0"	"FALSE"	"Windows 10"	"60.1"	"019"	n/a	n/a	n/a	n/a	n/a	n/a	"Trial"	n/a	n/a	n/a	"523"	"arrowup"	n/a	"NULL"	"NULL"	"NULL"	"stimuli/MullerLyer_-8.21429_0.35000.png"	n/a	"MullerLyer"	"arrowup"	"1516"	"TRUE"	"MullerLyer"	"-8.214290000"	"0.3500000000"	"1"	"77"
n/a	"html-keyboard-response"	"171"	"197014"	"0.0-5.0-2.0-0.59"	"ts4lkx"	"600"	"1366"	"chrome"	"109.0.0"	"FALSE"	"Windows 10"	"60.1"	"019"	n/a	n/a	n/a	n/a	n/a	n/a	"fixation"	n/a	n/a	n/a	n/a	"NULL"	n/a	"NULL"	"NULL"	"NULL"	"<p style=\"color: black; font-size: 80px; padding-left: 44%; padding-right: 35%; padding-top: 25%; padding-bottom: 24%\">+</p>"	"1015"	n/a	n/a	n/a	n/a	n/a	n/a	n/a	n/a	n/a
n/a	"image-keyboard-response"	"172"	"197646"	"0.0-5.0-2.0-1.59"	"ts4lkx"	"600"	"1366"	"chrome"	"109.0.0"	"FALSE"	"Windows 10"	"60.1"	"019"	n/a	n/a	n/a	n/a	n/a	n/a	"Trial"	n/a	n/a	n/a	"631"	"arrowdown"	n/a	"NULL"	"NULL"	"NULL"	"stimuli/MullerLyer_20.04286_0.14541.png"	n/a	"MullerLyer"	"arrowup"	"1023"	"FALSE"	"MullerLyer"	"20.042860000"	"0.1454100000"	"1"	"78"
n/a	"html-keyboard-response"	"173"	"198796"	"0.0-5.0-2.0-0.60"	"ts4lkx"	"600"	"1366"	"chrome"	"109.0.0"	"FALSE"	"Windows 10"	"60.1"	"019"	n/a	n/a	n/a	n/a	n/a	n/a	"fixation"	n/a	n/a	n/a	n/a	"NULL"	n/a	"NULL"	"NULL"	"NULL"	"<p style=\"color: black; font-size: 80px; padding-left: 17%; padding-right: 18%; padding-top: 8%; padding-bottom: 39%\">+</p>"	"1138"	n/a	n/a	n/a	n/a	n/a	n/a	n/a	n/a	n/a
n/a	"image-keyboard-response"	"174"	"199330"	"0.0-5.0-2.0-1.60"	"ts4lkx"	"600"	"1366"	"chrome"	"109.0.0"	"FALSE"	"Windows 10"	"60.1"	"019"	n/a	n/a	n/a	n/a	n/a	n/a	"Trial"	n/a	n/a	n/a	"532"	"arrowup"	n/a	"NULL"	"NULL"	"NULL"	"stimuli/MullerLyer_2.30000_0.23665.png"	n/a	"MullerLyer"	"arrowup"	"1150"	"TRUE"	"MullerLyer"	"2.3000000000"	"0.2366500000"	"1"	"79"
n/a	"html-keyboard-response"	"175"	"200548"	"0.0-5.0-2.0-0.61"	"ts4lkx"	"600"	"1366"	"chrome"	"109.0.0"	"FALSE"	"Windows 10"	"60.1"	"019"	n/a	n/a	n/a	n/a	n/a	n/a	"fixation"	n/a	n/a	n/a	n/a	"NULL"	n/a	"NULL"	"NULL"	"NULL"	"<p style=\"color: black; font-size: 80px; padding-left: 42%; padding-right: 36%; padding-top: 41%; padding-bottom: 0%\">+</p>"	"1213"	n/a	n/a	n/a	n/a	n/a	n/a	n/a	n/a	n/a
n/a	"image-keyboard-response"	"176"	"201702"	"0.0-5.0-2.0-1.61"	"ts4lkx"	"600"	"1366"	"chrome"	"109.0.0"	"FALSE"	"Windows 10"	"60.1"	"019"	n/a	n/a	n/a	n/a	n/a	n/a	"Trial"	n/a	n/a	n/a	"1153"	"arrowdown"	n/a	"NULL"	"NULL"	"NULL"	"stimuli/MullerLyer_8.21429_-0.14541.png"	n/a	"MullerLyer"	"arrowdown"	"1218"	"TRUE"	"MullerLyer"	"8.2142900000"	"-0.145410000"	"1"	"80"
n/a	"html-keyboard-response"	"177"	"203153"	"0.0-5.0-2.0-0.62"	"ts4lkx"	"600"	"1366"	"chrome"	"109.0.0"	"FALSE"	"Windows 10"	"60.1"	"019"	n/a	n/a	n/a	n/a	n/a	n/a	"fixation"	n/a	n/a	n/a	n/a	"NULL"	n/a	"NULL"	"NULL"	"NULL"	"<p style=\"color: black; font-size: 80px; padding-left: 50%; padding-right: 10%; padding-top: 48%; padding-bottom: 27%\">+</p>"	"1435"	n/a	n/a	n/a	n/a	n/a	n/a	n/a	n/a	n/a
n/a	"image-keyboard-response"	"178"	"203873"	"0.0-5.0-2.0-1.62"	"ts4lkx"	"600"	"1366"	"chrome"	"109.0.0"	"FALSE"	"Windows 10"	"60.1"	"019"	n/a	n/a	n/a	n/a	n/a	n/a	"Trial"	n/a	n/a	n/a	"719"	"arrowdown"	n/a	"NULL"	"NULL"	"NULL"	"stimuli/MullerLyer_-2.3000_-0.07627.png"	n/a	"MullerLyer"	"arrowdown"	"1451"	"TRUE"	"MullerLyer"	"-2.300000000"	"-0.076270000"	"1"	"81"
n/a	"html-keyboard-response"	"179"	"205279"	"0.0-5.0-2.0-0.63"	"ts4lkx"	"600"	"1366"	"chrome"	"109.0.0"	"FALSE"	"Windows 10"	"60.1"	"019"	n/a	n/a	n/a	n/a	n/a	n/a	"fixation"	n/a	n/a	n/a	n/a	"NULL"	n/a	"NULL"	"NULL"	"NULL"	"<p style=\"color: black; font-size: 80px; padding-left: 50%; padding-right: 15%; padding-top: 18%; padding-bottom: 5%\">+</p>"	"1385"	n/a	n/a	n/a	n/a	n/a	n/a	n/a	n/a	n/a
n/a	"image-keyboard-response"	"180"	"205983"	"0.0-5.0-2.0-1.63"	"ts4lkx"	"600"	"1366"	"chrome"	"109.0.0"	"FALSE"	"Windows 10"	"60.1"	"019"	n/a	n/a	n/a	n/a	n/a	n/a	"Trial"	n/a	n/a	n/a	"704"	"arrowdown"	n/a	"NULL"	"NULL"	"NULL"	"stimuli/MullerLyer_-8.21429_-0.23665.png"	n/a	"MullerLyer"	"arrowdown"	"1406"	"TRUE"	"MullerLyer"	"-8.214290000"	"-0.236650000"	"1"	"82"
n/a	"html-button-response"	"181"	"225043"	"0.0-5.0-3.0"	"ts4lkx"	"600"	"1366"	"chrome"	"109.0.0"	"FALSE"	"Windows 10"	"60.1"	"019"	n/a	n/a	n/a	n/a	n/a	n/a	"block_results"	n/a	n/a	n/a	"19056"	"0"	n/a	"NULL"	"NULL"	"NULL"	"<p>Your score for this illusion is <p style=\"color: black; font-size: 48px; font-weight: bold;\">75.3 %</p><hr><p>Can you do better in the next illusion?</p>"	n/a	n/a	n/a	n/a	n/a	n/a	n/a	n/a	n/a	n/a
"TRUE"	"preload"	"182"	"225123"	"0.0-6.0-0.0"	"ts4lkx"	"600"	"1366"	"chrome"	"109.0.0"	"FALSE"	"Windows 10"	"60.1"	"019"	n/a	n/a	n/a	n/a	n/a	n/a	n/a	n/a	n/a	n/a	n/a	"NULL"	"FALSE"	"list()"	"list()"	"list()"	n/a	n/a	n/a	n/a	n/a	n/a	n/a	n/a	n/a	n/a	n/a
n/a	"html-keyboard-response"	"183"	"228273"	"0.0-6.0-1.0"	"ts4lkx"	"600"	"1366"	"chrome"	"109.0.0"	"FALSE"	"Windows 10"	"60.1"	"019"	n/a	n/a	n/a	n/a	n/a	n/a	n/a	n/a	n/a	n/a	"3150"	"enter"	n/a	"NULL"	"NULL"	"NULL"	"<p><b>Part 2/6</b></p><p>In this part, two red circles will appear side by side on the screen.</p><p>Your task is to select which <b>red circle is bigger</b> in size as fast as you can, without making errors.</p><p>Don't get distracted by the surrounding black circles around the red circles!</p><p>Press <b>the LEFT or the RIGHT arrow</b> to indicate which is the bigger <b>red circle.</b></p><div style='float: center'><img src='materials/instructions/Ebbinghaus_Demo.png' height='300'></img><p><img src='utils/answer/answer_leftright_keyboard.PNG' height='150'></img></p><p class='small'>In this example, the correct answer is the <b>LEFT arrow</b>.</p></div><p>Are you ready? <b>Press ENTER to start</b></p>"	n/a	n/a	n/a	n/a	n/a	n/a	n/a	n/a	n/a	n/a
n/a	"html-keyboard-response"	"184"	"229981"	"0.0-6.0-2.0-0.0"	"ts4lkx"	"600"	"1366"	"chrome"	"109.0.0"	"FALSE"	"Windows 10"	"60.1"	"019"	n/a	n/a	n/a	n/a	n/a	n/a	"fixation"	n/a	n/a	n/a	n/a	"NULL"	n/a	"NULL"	"NULL"	"NULL"	"<p style=\"color: black; font-size: 80px; padding-left: 23%; padding-right: 26%; padding-top: 36%; padding-bottom: 7%\">+</p>"	"1185"	n/a	n/a	n/a	n/a	n/a	n/a	n/a	n/a	n/a
n/a	"image-keyboard-response"	"185"	"230825"	"0.0-6.0-2.0-1.0"	"ts4lkx"	"600"	"1366"	"chrome"	"109.0.0"	"FALSE"	"Windows 10"	"60.1"	"019"	n/a	n/a	n/a	n/a	n/a	n/a	"Trial"	n/a	n/a	n/a	"844"	"arrowleft"	n/a	"NULL"	"NULL"	"NULL"	"stimuli/Ebbinghaus_-0.1000_0.28000.png"	n/a	"Ebbinghaus"	"arrowleft"	"1708"	"TRUE"	"Ebbinghaus"	"-0.100000000"	"0.2800000000"	"2"	"1"
n/a	"html-keyboard-response"	"186"	"232033"	"0.0-6.0-2.0-0.1"	"ts4lkx"	"600"	"1366"	"chrome"	"109.0.0"	"FALSE"	"Windows 10"	"60.1"	"019"	n/a	n/a	n/a	n/a	n/a	n/a	"fixation"	n/a	n/a	n/a	n/a	"NULL"	n/a	"NULL"	"NULL"	"NULL"	"<p style=\"color: black; font-size: 80px; padding-left: 25%; padding-right: 25%; padding-top: 34%; padding-bottom: 18%\">+</p>"	"1192"	n/a	n/a	n/a	n/a	n/a	n/a	n/a	n/a	n/a
n/a	"image-keyboard-response"	"187"	"233176"	"0.0-6.0-2.0-1.1"	"ts4lkx"	"600"	"1366"	"chrome"	"109.0.0"	"FALSE"	"Windows 10"	"60.1"	"019"	n/a	n/a	n/a	n/a	n/a	n/a	"Trial"	n/a	n/a	n/a	"1142"	"arrowright"	n/a	"NULL"	"NULL"	"NULL"	"stimuli/Ebbinghaus_0.61429_-0.15857.png"	n/a	"Ebbinghaus"	"arrowright"	"1208"	"TRUE"	"Ebbinghaus"	"0.6142900000"	"-0.158570000"	"2"	"2"
n/a	"html-keyboard-response"	"188"	"234407"	"0.0-6.0-2.0-0.2"	"ts4lkx"	"600"	"1366"	"chrome"	"109.0.0"	"FALSE"	"Windows 10"	"60.1"	"019"	n/a	n/a	n/a	n/a	n/a	n/a	"fixation"	n/a	n/a	n/a	n/a	"NULL"	n/a	"NULL"	"NULL"	"NULL"	"<p style=\"color: black; font-size: 80px; padding-left: 47%; padding-right: 9%; padding-top: 22%; padding-bottom: 47%\">+</p>"	"1208"	n/a	n/a	n/a	n/a	n/a	n/a	n/a	n/a	n/a
n/a	"image-keyboard-response"	"189"	"235054"	"0.0-6.0-2.0-1.2"	"ts4lkx"	"600"	"1366"	"chrome"	"109.0.0"	"FALSE"	"Windows 10"	"60.1"	"019"	n/a	n/a	n/a	n/a	n/a	n/a	"Trial"	n/a	n/a	n/a	"646"	"arrowleft"	n/a	"NULL"	"NULL"	"NULL"	"stimuli/Ebbinghaus_-0.1000_0.21500.png"	n/a	"Ebbinghaus"	"arrowleft"	"1231"	"TRUE"	"Ebbinghaus"	"-0.100000000"	"0.2150000000"	"2"	"3"
n/a	"html-keyboard-response"	"190"	"236402"	"0.0-6.0-2.0-0.3"	"ts4lkx"	"600"	"1366"	"chrome"	"109.0.0"	"FALSE"	"Windows 10"	"60.1"	"019"	n/a	n/a	n/a	n/a	n/a	n/a	"fixation"	n/a	n/a	n/a	n/a	"NULL"	n/a	"NULL"	"NULL"	"NULL"	"<p style=\"color: black; font-size: 80px; padding-left: 3%; padding-right: 20%; padding-top: 0%; padding-bottom: 48%\">+</p>"	"1342"	n/a	n/a	n/a	n/a	n/a	n/a	n/a	n/a	n/a
n/a	"image-keyboard-response"	"191"	"237044"	"0.0-6.0-2.0-1.3"	"ts4lkx"	"600"	"1366"	"chrome"	"109.0.0"	"FALSE"	"Windows 10"	"60.1"	"019"	n/a	n/a	n/a	n/a	n/a	n/a	"Trial"	n/a	n/a	n/a	"641"	"arrowright"	n/a	"NULL"	"NULL"	"NULL"	"stimuli/Ebbinghaus_0.10000_-0.11071.png"	n/a	"Ebbinghaus"	"arrowright"	"1348"	"TRUE"	"Ebbinghaus"	"0.1000000000"	"-0.110710000"	"2"	"4"
n/a	"html-keyboard-response"	"192"	"238375"	"0.0-6.0-2.0-0.4"	"ts4lkx"	"600"	"1366"	"chrome"	"109.0.0"	"FALSE"	"Windows 10"	"60.1"	"019"	n/a	n/a	n/a	n/a	n/a	n/a	"fixation"	n/a	n/a	n/a	n/a	"NULL"	n/a	"NULL"	"NULL"	"NULL"	"<p style=\"color: black; font-size: 80px; padding-left: 7%; padding-right: 34%; padding-top: 47%; padding-bottom: 46%\">+</p>"	"1318"	n/a	n/a	n/a	n/a	n/a	n/a	n/a	n/a	n/a
n/a	"image-keyboard-response"	"193"	"239025"	"0.0-6.0-2.0-1.4"	"ts4lkx"	"600"	"1366"	"chrome"	"109.0.0"	"FALSE"	"Windows 10"	"60.1"	"019"	n/a	n/a	n/a	n/a	n/a	n/a	"Trial"	n/a	n/a	n/a	"649"	"arrowright"	n/a	"NULL"	"NULL"	"NULL"	"stimuli/Ebbinghaus_-0.61429_-0.2150.png"	n/a	"Ebbinghaus"	"arrowright"	"1331"	"TRUE"	"Ebbinghaus"	"-0.614290000"	"-0.215000000"	"2"	"5"
n/a	"html-keyboard-response"	"194"	"240345"	"0.0-6.0-2.0-0.5"	"ts4lkx"	"600"	"1366"	"chrome"	"109.0.0"	"FALSE"	"Windows 10"	"60.1"	"019"	n/a	n/a	n/a	n/a	n/a	n/a	"fixation"	n/a	n/a	n/a	n/a	"NULL"	n/a	"NULL"	"NULL"	"NULL"	"<p style=\"color: black; font-size: 80px; padding-left: 24%; padding-right: 44%; padding-top: 9%; padding-bottom: 34%\">+</p>"	"1307"	n/a	n/a	n/a	n/a	n/a	n/a	n/a	n/a	n/a
n/a	"image-keyboard-response"	"195"	"241355"	"0.0-6.0-2.0-1.5"	"ts4lkx"	"600"	"1366"	"chrome"	"109.0.0"	"FALSE"	"Windows 10"	"60.1"	"019"	n/a	n/a	n/a	n/a	n/a	n/a	"Trial"	n/a	n/a	n/a	"1009"	"arrowleft"	n/a	"NULL"	"NULL"	"NULL"	"stimuli/Ebbinghaus_0.87143_0.21500.png"	n/a	"Ebbinghaus"	"arrowleft"	"1320"	"TRUE"	"Ebbinghaus"	"0.8714300000"	"0.2150000000"	"2"	"6"
n/a	"html-keyboard-response"	"196"	"242625"	"0.0-6.0-2.0-0.6"	"ts4lkx"	"600"	"1366"	"chrome"	"109.0.0"	"FALSE"	"Windows 10"	"60.1"	"019"	n/a	n/a	n/a	n/a	n/a	n/a	"fixation"	n/a	n/a	n/a	n/a	"NULL"	n/a	"NULL"	"NULL"	"NULL"	"<p style=\"color: black; font-size: 80px; padding-left: 32%; padding-right: 19%; padding-top: 12%; padding-bottom: 35%\">+</p>"	"1262"	n/a	n/a	n/a	n/a	n/a	n/a	n/a	n/a	n/a
n/a	"image-keyboard-response"	"197"	"243436"	"0.0-6.0-2.0-1.6"	"ts4lkx"	"600"	"1366"	"chrome"	"109.0.0"	"FALSE"	"Windows 10"	"60.1"	"019"	n/a	n/a	n/a	n/a	n/a	n/a	"Trial"	n/a	n/a	n/a	"810"	"arrowleft"	n/a	"NULL"	"NULL"	"NULL"	"stimuli/Ebbinghaus_-0.35714_0.15857.png"	n/a	"Ebbinghaus"	"arrowleft"	"1270"	"TRUE"	"Ebbinghaus"	"-0.357140000"	"0.1585700000"	"2"	"7"
n/a	"html-keyboard-response"	"198"	"244906"	"0.0-6.0-2.0-0.7"	"ts4lkx"	"600"	"1366"	"chrome"	"109.0.0"	"FALSE"	"Windows 10"	"60.1"	"019"	n/a	n/a	n/a	n/a	n/a	n/a	"fixation"	n/a	n/a	n/a	n/a	"NULL"	n/a	"NULL"	"NULL"	"NULL"	"<p style=\"color: black; font-size: 80px; padding-left: 50%; padding-right: 17%; padding-top: 4%; padding-bottom: 39%\">+</p>"	"1452"	n/a	n/a	n/a	n/a	n/a	n/a	n/a	n/a	n/a
n/a	"image-keyboard-response"	"199"	"245515"	"0.0-6.0-2.0-1.7"	"ts4lkx"	"600"	"1366"	"chrome"	"109.0.0"	"FALSE"	"Windows 10"	"60.1"	"019"	n/a	n/a	n/a	n/a	n/a	n/a	"Trial"	n/a	n/a	n/a	"608"	"arrowright"	n/a	"NULL"	"NULL"	"NULL"	"stimuli/Ebbinghaus_0.61429_-0.2150.png"	n/a	"Ebbinghaus"	"arrowright"	"1470"	"TRUE"	"Ebbinghaus"	"0.6142900000"	"-0.215000000"	"2"	"8"
n/a	"html-keyboard-response"	"200"	"246658"	"0.0-6.0-2.0-0.8"	"ts4lkx"	"600"	"1366"	"chrome"	"109.0.0"	"FALSE"	"Windows 10"	"60.1"	"019"	n/a	n/a	n/a	n/a	n/a	n/a	"fixation"	n/a	n/a	n/a	n/a	"NULL"	n/a	"NULL"	"NULL"	"NULL"	"<p style=\"color: black; font-size: 80px; padding-left: 16%; padding-right: 13%; padding-top: 22%; padding-bottom: 15%\">+</p>"	"1124"	n/a	n/a	n/a	n/a	n/a	n/a	n/a	n/a	n/a
n/a	"image-keyboard-response"	"201"	"247384"	"0.0-6.0-2.0-1.8"	"ts4lkx"	"600"	"1366"	"chrome"	"109.0.0"	"FALSE"	"Windows 10"	"60.1"	"019"	n/a	n/a	n/a	n/a	n/a	n/a	"Trial"	n/a	n/a	n/a	"713"	"arrowleft"	n/a	"NULL"	"NULL"	"NULL"	"stimuli/Ebbinghaus_-0.87143_0.15857.png"	n/a	"Ebbinghaus"	"arrowleft"	"1143"	"TRUE"	"Ebbinghaus"	"-0.871430000"	"0.1585700000"	"2"	"9"
n/a	"html-keyboard-response"	"202"	"248886"	"0.0-6.0-2.0-0.9"	"ts4lkx"	"600"	"1366"	"chrome"	"109.0.0"	"FALSE"	"Windows 10"	"60.1"	"019"	n/a	n/a	n/a	n/a	n/a	n/a	"fixation"	n/a	n/a	n/a	n/a	"NULL"	n/a	"NULL"	"NULL"	"NULL"	"<p style=\"color: black; font-size: 80px; padding-left: 9%; padding-right: 8%; padding-top: 42%; padding-bottom: 1%\">+</p>"	"1492"	n/a	n/a	n/a	n/a	n/a	n/a	n/a	n/a	n/a
n/a	"image-keyboard-response"	"203"	"249578"	"0.0-6.0-2.0-1.9"	"ts4lkx"	"600"	"1366"	"chrome"	"109.0.0"	"FALSE"	"Windows 10"	"60.1"	"019"	n/a	n/a	n/a	n/a	n/a	n/a	"Trial"	n/a	n/a	n/a	"691"	"arrowleft"	n/a	"NULL"	"NULL"	"NULL"	"stimuli/Ebbinghaus_-0.61429_0.28000.png"	n/a	"Ebbinghaus"	"arrowleft"	"1502"	"TRUE"	"Ebbinghaus"	"-0.614290000"	"0.2800000000"	"2"	"10"
n/a	"html-keyboard-response"	"204"	"250642"	"0.0-6.0-2.0-0.10"	"ts4lkx"	"600"	"1366"	"chrome"	"109.0.0"	"FALSE"	"Windows 10"	"60.1"	"019"	n/a	n/a	n/a	n/a	n/a	n/a	"fixation"	n/a	n/a	n/a	n/a	"NULL"	n/a	"NULL"	"NULL"	"NULL"	"<p style=\"color: black; font-size: 80px; padding-left: 32%; padding-right: 38%; padding-top: 37%; padding-bottom: 11%\">+</p>"	"1049"	n/a	n/a	n/a	n/a	n/a	n/a	n/a	n/a	n/a
n/a	"image-keyboard-response"	"205"	"251722"	"0.0-6.0-2.0-1.10"	"ts4lkx"	"600"	"1366"	"chrome"	"109.0.0"	"FALSE"	"Windows 10"	"60.1"	"019"	n/a	n/a	n/a	n/a	n/a	n/a	"Trial"	n/a	n/a	n/a	"1079"	"arrowleft"	n/a	"NULL"	"NULL"	"NULL"	"stimuli/Ebbinghaus_0.35714_0.28000.png"	n/a	"Ebbinghaus"	"arrowleft"	"1064"	"TRUE"	"Ebbinghaus"	"0.3571400000"	"0.2800000000"	"2"	"11"
n/a	"html-keyboard-response"	"206"	"253218"	"0.0-6.0-2.0-0.11"	"ts4lkx"	"600"	"1366"	"chrome"	"109.0.0"	"FALSE"	"Windows 10"	"60.1"	"019"	n/a	n/a	n/a	n/a	n/a	n/a	"fixation"	n/a	n/a	n/a	n/a	"NULL"	n/a	"NULL"	"NULL"	"NULL"	"<p style=\"color: black; font-size: 80px; padding-left: 16%; padding-right: 45%; padding-top: 24%; padding-bottom: 41%\">+</p>"	"1481"	n/a	n/a	n/a	n/a	n/a	n/a	n/a	n/a	n/a
n/a	"image-keyboard-response"	"207"	"254213"	"0.0-6.0-2.0-1.11"	"ts4lkx"	"600"	"1366"	"chrome"	"109.0.0"	"FALSE"	"Windows 10"	"60.1"	"019"	n/a	n/a	n/a	n/a	n/a	n/a	"Trial"	n/a	n/a	n/a	"995"	"arrowright"	n/a	"NULL"	"NULL"	"NULL"	"stimuli/Ebbinghaus_0.87143_-0.15857.png"	n/a	"Ebbinghaus"	"arrowright"	"1496"	"TRUE"	"Ebbinghaus"	"0.8714300000"	"-0.158570000"	"2"	"12"
n/a	"html-keyboard-response"	"208"	"255704"	"0.0-6.0-2.0-0.12"	"ts4lkx"	"600"	"1366"	"chrome"	"109.0.0"	"FALSE"	"Windows 10"	"60.1"	"019"	n/a	n/a	n/a	n/a	n/a	n/a	"fixation"	n/a	n/a	n/a	n/a	"NULL"	n/a	"NULL"	"NULL"	"NULL"	"<p style=\"color: black; font-size: 80px; padding-left: 42%; padding-right: 10%; padding-top: 6%; padding-bottom: 29%\">+</p>"	"1476"	n/a	n/a	n/a	n/a	n/a	n/a	n/a	n/a	n/a
n/a	"image-keyboard-response"	"209"	"256394"	"0.0-6.0-2.0-1.12"	"ts4lkx"	"600"	"1366"	"chrome"	"109.0.0"	"FALSE"	"Windows 10"	"60.1"	"019"	n/a	n/a	n/a	n/a	n/a	n/a	"Trial"	n/a	n/a	n/a	"689"	"arrowright"	n/a	"NULL"	"NULL"	"NULL"	"stimuli/Ebbinghaus_0.35714_-0.2800.png"	n/a	"Ebbinghaus"	"arrowright"	"1491"	"TRUE"	"Ebbinghaus"	"0.3571400000"	"-0.280000000"	"2"	"13"
n/a	"html-keyboard-response"	"210"	"257810"	"0.0-6.0-2.0-0.13"	"ts4lkx"	"600"	"1366"	"chrome"	"109.0.0"	"FALSE"	"Windows 10"	"60.1"	"019"	n/a	n/a	n/a	n/a	n/a	n/a	"fixation"	n/a	n/a	n/a	n/a	"NULL"	n/a	"NULL"	"NULL"	"NULL"	"<p style=\"color: black; font-size: 80px; padding-left: 3%; padding-right: 1%; padding-top: 24%; padding-bottom: 11%\">+</p>"	"1402"	n/a	n/a	n/a	n/a	n/a	n/a	n/a	n/a	n/a
n/a	"image-keyboard-response"	"211"	"258624"	"0.0-6.0-2.0-1.13"	"ts4lkx"	"600"	"1366"	"chrome"	"109.0.0"	"FALSE"	"Windows 10"	"60.1"	"019"	n/a	n/a	n/a	n/a	n/a	n/a	"Trial"	n/a	n/a	n/a	"813"	"arrowleft"	n/a	"NULL"	"NULL"	"NULL"	"stimuli/Ebbinghaus_0.87143_-0.11071.png"	n/a	"Ebbinghaus"	"arrowright"	"1416"	"FALSE"	"Ebbinghaus"	"0.8714300000"	"-0.110710000"	"2"	"14"
n/a	"html-keyboard-response"	"212"	"260078"	"0.0-6.0-2.0-0.14"	"ts4lkx"	"600"	"1366"	"chrome"	"109.0.0"	"FALSE"	"Windows 10"	"60.1"	"019"	n/a	n/a	n/a	n/a	n/a	n/a	"fixation"	n/a	n/a	n/a	n/a	"NULL"	n/a	"NULL"	"NULL"	"NULL"	"<p style=\"color: black; font-size: 80px; padding-left: 6%; padding-right: 1%; padding-top: 11%; padding-bottom: 9%\">+</p>"	"1446"	n/a	n/a	n/a	n/a	n/a	n/a	n/a	n/a	n/a
n/a	"image-keyboard-response"	"213"	"261109"	"0.0-6.0-2.0-1.14"	"ts4lkx"	"600"	"1366"	"chrome"	"109.0.0"	"FALSE"	"Windows 10"	"60.1"	"019"	n/a	n/a	n/a	n/a	n/a	n/a	"Trial"	n/a	n/a	n/a	"1029"	"arrowleft"	n/a	"NULL"	"NULL"	"NULL"	"stimuli/Ebbinghaus_0.35714_0.11071.png"	n/a	"Ebbinghaus"	"arrowleft"	"1454"	"TRUE"	"Ebbinghaus"	"0.3571400000"	"0.1107100000"	"2"	"15"
n/a	"html-keyboard-response"	"214"	"262401"	"0.0-6.0-2.0-0.15"	"ts4lkx"	"600"	"1366"	"chrome"	"109.0.0"	"FALSE"	"Windows 10"	"60.1"	"019"	n/a	n/a	n/a	n/a	n/a	n/a	"fixation"	n/a	n/a	n/a	n/a	"NULL"	n/a	"NULL"	"NULL"	"NULL"	"<p style=\"color: black; font-size: 80px; padding-left: 27%; padding-right: 38%; padding-top: 46%; padding-bottom: 30%\">+</p>"	"1287"	n/a	n/a	n/a	n/a	n/a	n/a	n/a	n/a	n/a
n/a	"image-keyboard-response"	"215"	"263242"	"0.0-6.0-2.0-1.15"	"ts4lkx"	"600"	"1366"	"chrome"	"109.0.0"	"FALSE"	"Windows 10"	"60.1"	"019"	n/a	n/a	n/a	n/a	n/a	n/a	"Trial"	n/a	n/a	n/a	"841"	"arrowleft"	n/a	"NULL"	"NULL"	"NULL"	"stimuli/Ebbinghaus_-0.61429_0.11071.png"	n/a	"Ebbinghaus"	"arrowleft"	"1292"	"TRUE"	"Ebbinghaus"	"-0.614290000"	"0.1107100000"	"2"	"16"
n/a	"html-keyboard-response"	"216"	"264484"	"0.0-6.0-2.0-0.16"	"ts4lkx"	"600"	"1366"	"chrome"	"109.0.0"	"FALSE"	"Windows 10"	"60.1"	"019"	n/a	n/a	n/a	n/a	n/a	n/a	"fixation"	n/a	n/a	n/a	n/a	"NULL"	n/a	"NULL"	"NULL"	"NULL"	"<p style=\"color: black; font-size: 80px; padding-left: 10%; padding-right: 15%; padding-top: 12%; padding-bottom: 7%\">+</p>"	"1236"	n/a	n/a	n/a	n/a	n/a	n/a	n/a	n/a	n/a
n/a	"image-keyboard-response"	"217"	"265376"	"0.0-6.0-2.0-1.16"	"ts4lkx"	"600"	"1366"	"chrome"	"109.0.0"	"FALSE"	"Windows 10"	"60.1"	"019"	n/a	n/a	n/a	n/a	n/a	n/a	"Trial"	n/a	n/a	n/a	"891"	"arrowleft"	n/a	"NULL"	"NULL"	"NULL"	"stimuli/Ebbinghaus_-0.61429_0.15857.png"	n/a	"Ebbinghaus"	"arrowleft"	"1242"	"TRUE"	"Ebbinghaus"	"-0.614290000"	"0.1585700000"	"2"	"17"
n/a	"html-keyboard-response"	"218"	"266469"	"0.0-6.0-2.0-0.17"	"ts4lkx"	"600"	"1366"	"chrome"	"109.0.0"	"FALSE"	"Windows 10"	"60.1"	"019"	n/a	n/a	n/a	n/a	n/a	n/a	"fixation"	n/a	n/a	n/a	n/a	"NULL"	n/a	"NULL"	"NULL"	"NULL"	"<p style=\"color: black; font-size: 80px; padding-left: 39%; padding-right: 27%; padding-top: 34%; padding-bottom: 44%\">+</p>"	"1076"	n/a	n/a	n/a	n/a	n/a	n/a	n/a	n/a	n/a
n/a	"image-keyboard-response"	"219"	"267042"	"0.0-6.0-2.0-1.17"	"ts4lkx"	"600"	"1366"	"chrome"	"109.0.0"	"FALSE"	"Windows 10"	"60.1"	"019"	n/a	n/a	n/a	n/a	n/a	n/a	"Trial"	n/a	n/a	n/a	"571"	"arrowright"	n/a	"NULL"	"NULL"	"NULL"	"stimuli/Ebbinghaus_0.61429_-0.2800.png"	n/a	"Ebbinghaus"	"arrowright"	"1093"	"TRUE"	"Ebbinghaus"	"0.6142900000"	"-0.280000000"	"2"	"18"
n/a	"html-keyboard-response"	"220"	"268418"	"0.0-6.0-2.0-0.18"	"ts4lkx"	"600"	"1366"	"chrome"	"109.0.0"	"FALSE"	"Windows 10"	"60.1"	"019"	n/a	n/a	n/a	n/a	n/a	n/a	"fixation"	n/a	n/a	n/a	n/a	"NULL"	n/a	"NULL"	"NULL"	"NULL"	"<p style=\"color: black; font-size: 80px; padding-left: 30%; padding-right: 34%; padding-top: 1%; padding-bottom: 3%\">+</p>"	"1366"	n/a	n/a	n/a	n/a	n/a	n/a	n/a	n/a	n/a
n/a	"image-keyboard-response"	"221"	"268930"	"0.0-6.0-2.0-1.18"	"ts4lkx"	"600"	"1366"	"chrome"	"109.0.0"	"FALSE"	"Windows 10"	"60.1"	"019"	n/a	n/a	n/a	n/a	n/a	n/a	"Trial"	n/a	n/a	n/a	"512"	"arrowright"	n/a	"NULL"	"NULL"	"NULL"	"stimuli/Ebbinghaus_0.10000_-0.2800.png"	n/a	"Ebbinghaus"	"arrowright"	"1376"	"TRUE"	"Ebbinghaus"	"0.1000000000"	"-0.280000000"	"2"	"19"
n/a	"html-keyboard-response"	"222"	"270313"	"0.0-6.0-2.0-0.19"	"ts4lkx"	"600"	"1366"	"chrome"	"109.0.0"	"FALSE"	"Windows 10"	"60.1"	"019"	n/a	n/a	n/a	n/a	n/a	n/a	"fixation"	n/a	n/a	n/a	n/a	"NULL"	n/a	"NULL"	"NULL"	"NULL"	"<p style=\"color: black; font-size: 80px; padding-left: 25%; padding-right: 25%; padding-top: 13%; padding-bottom: 10%\">+</p>"	"1380"	n/a	n/a	n/a	n/a	n/a	n/a	n/a	n/a	n/a
n/a	"image-keyboard-response"	"223"	"270905"	"0.0-6.0-2.0-1.19"	"ts4lkx"	"600"	"1366"	"chrome"	"109.0.0"	"FALSE"	"Windows 10"	"60.1"	"019"	n/a	n/a	n/a	n/a	n/a	n/a	"Trial"	n/a	n/a	n/a	"590"	"arrowright"	n/a	"NULL"	"NULL"	"NULL"	"stimuli/Ebbinghaus_-0.1000_-0.15857.png"	n/a	"Ebbinghaus"	"arrowright"	"1383"	"TRUE"	"Ebbinghaus"	"-0.100000000"	"-0.158570000"	"2"	"20"
n/a	"html-keyboard-response"	"224"	"272219"	"0.0-6.0-2.0-0.20"	"ts4lkx"	"600"	"1366"	"chrome"	"109.0.0"	"FALSE"	"Windows 10"	"60.1"	"019"	n/a	n/a	n/a	n/a	n/a	n/a	"fixation"	n/a	n/a	n/a	n/a	"NULL"	n/a	"NULL"	"NULL"	"NULL"	"<p style=\"color: black; font-size: 80px; padding-left: 40%; padding-right: 48%; padding-top: 31%; padding-bottom: 47%\">+</p>"	"1295"	n/a	n/a	n/a	n/a	n/a	n/a	n/a	n/a	n/a
n/a	"image-keyboard-response"	"225"	"273195"	"0.0-6.0-2.0-1.20"	"ts4lkx"	"600"	"1366"	"chrome"	"109.0.0"	"FALSE"	"Windows 10"	"60.1"	"019"	n/a	n/a	n/a	n/a	n/a	n/a	"Trial"	n/a	n/a	n/a	"975"	"arrowright"	n/a	"NULL"	"NULL"	"NULL"	"stimuli/Ebbinghaus_0.10000_-0.2150.png"	n/a	"Ebbinghaus"	"arrowright"	"1314"	"TRUE"	"Ebbinghaus"	"0.1000000000"	"-0.215000000"	"2"	"21"
n/a	"html-keyboard-response"	"226"	"274678"	"0.0-6.0-2.0-0.21"	"ts4lkx"	"600"	"1366"	"chrome"	"109.0.0"	"FALSE"	"Windows 10"	"60.1"	"019"	n/a	n/a	n/a	n/a	n/a	n/a	"fixation"	n/a	n/a	n/a	n/a	"NULL"	n/a	"NULL"	"NULL"	"NULL"	"<p style=\"color: black; font-size: 80px; padding-left: 18%; padding-right: 41%; padding-top: 15%; padding-bottom: 28%\">+</p>"	"1473"	n/a	n/a	n/a	n/a	n/a	n/a	n/a	n/a	n/a
n/a	"image-keyboard-response"	"227"	"275276"	"0.0-6.0-2.0-1.21"	"ts4lkx"	"600"	"1366"	"chrome"	"109.0.0"	"FALSE"	"Windows 10"	"60.1"	"019"	n/a	n/a	n/a	n/a	n/a	n/a	"Trial"	n/a	n/a	n/a	"597"	"arrowleft"	n/a	"NULL"	"NULL"	"NULL"	"stimuli/Ebbinghaus_-0.87143_-0.15857.png"	n/a	"Ebbinghaus"	"arrowright"	"1483"	"FALSE"	"Ebbinghaus"	"-0.871430000"	"-0.158570000"	"2"	"22"
n/a	"html-keyboard-response"	"228"	"276621"	"0.0-6.0-2.0-0.22"	"ts4lkx"	"600"	"1366"	"chrome"	"109.0.0"	"FALSE"	"Windows 10"	"60.1"	"019"	n/a	n/a	n/a	n/a	n/a	n/a	"fixation"	n/a	n/a	n/a	n/a	"NULL"	n/a	"NULL"	"NULL"	"NULL"	"<p style=\"color: black; font-size: 80px; padding-left: 38%; padding-right: 34%; padding-top: 40%; padding-bottom: 31%\">+</p>"	"1329"	n/a	n/a	n/a	n/a	n/a	n/a	n/a	n/a	n/a
n/a	"image-keyboard-response"	"229"	"277318"	"0.0-6.0-2.0-1.22"	"ts4lkx"	"600"	"1366"	"chrome"	"109.0.0"	"FALSE"	"Windows 10"	"60.1"	"019"	n/a	n/a	n/a	n/a	n/a	n/a	"Trial"	n/a	n/a	n/a	"695"	"arrowleft"	n/a	"NULL"	"NULL"	"NULL"	"stimuli/Ebbinghaus_0.35714_0.15857.png"	n/a	"Ebbinghaus"	"arrowleft"	"1345"	"TRUE"	"Ebbinghaus"	"0.3571400000"	"0.1585700000"	"2"	"23"
n/a	"html-keyboard-response"	"230"	"278611"	"0.0-6.0-2.0-0.23"	"ts4lkx"	"600"	"1366"	"chrome"	"109.0.0"	"FALSE"	"Windows 10"	"60.1"	"019"	n/a	n/a	n/a	n/a	n/a	n/a	"fixation"	n/a	n/a	n/a	n/a	"NULL"	n/a	"NULL"	"NULL"	"NULL"	"<p style=\"color: black; font-size: 80px; padding-left: 24%; padding-right: 41%; padding-top: 28%; padding-bottom: 34%\">+</p>"	"1280"	n/a	n/a	n/a	n/a	n/a	n/a	n/a	n/a	n/a
n/a	"image-keyboard-response"	"231"	"279222"	"0.0-6.0-2.0-1.23"	"ts4lkx"	"600"	"1366"	"chrome"	"109.0.0"	"FALSE"	"Windows 10"	"60.1"	"019"	n/a	n/a	n/a	n/a	n/a	n/a	"Trial"	n/a	n/a	n/a	"610"	"arrowright"	n/a	"NULL"	"NULL"	"NULL"	"stimuli/Ebbinghaus_-0.35714_-0.11071.png"	n/a	"Ebbinghaus"	"arrowright"	"1293"	"TRUE"	"Ebbinghaus"	"-0.357140000"	"-0.110710000"	"2"	"24"
n/a	"html-keyboard-response"	"232"	"280619"	"0.0-6.0-2.0-0.24"	"ts4lkx"	"600"	"1366"	"chrome"	"109.0.0"	"FALSE"	"Windows 10"	"60.1"	"019"	n/a	n/a	n/a	n/a	n/a	n/a	"fixation"	n/a	n/a	n/a	n/a	"NULL"	n/a	"NULL"	"NULL"	"NULL"	"<p style=\"color: black; font-size: 80px; padding-left: 46%; padding-right: 29%; padding-top: 18%; padding-bottom: 42%\">+</p>"	"1390"	n/a	n/a	n/a	n/a	n/a	n/a	n/a	n/a	n/a
n/a	"image-keyboard-response"	"233"	"281383"	"0.0-6.0-2.0-1.24"	"ts4lkx"	"600"	"1366"	"chrome"	"109.0.0"	"FALSE"	"Windows 10"	"60.1"	"019"	n/a	n/a	n/a	n/a	n/a	n/a	"Trial"	n/a	n/a	n/a	"763"	"arrowright"	n/a	"NULL"	"NULL"	"NULL"	"stimuli/Ebbinghaus_-0.35714_-0.2150.png"	n/a	"Ebbinghaus"	"arrowright"	"1397"	"TRUE"	"Ebbinghaus"	"-0.357140000"	"-0.215000000"	"2"	"25"
n/a	"html-keyboard-response"	"234"	"282859"	"0.0-6.0-2.0-0.25"	"ts4lkx"	"600"	"1366"	"chrome"	"109.0.0"	"FALSE"	"Windows 10"	"60.1"	"019"	n/a	n/a	n/a	n/a	n/a	n/a	"fixation"	n/a	n/a	n/a	n/a	"NULL"	n/a	"NULL"	"NULL"	"NULL"	"<p style=\"color: black; font-size: 80px; padding-left: 8%; padding-right: 3%; padding-top: 24%; padding-bottom: 15%\">+</p>"	"1459"	n/a	n/a	n/a	n/a	n/a	n/a	n/a	n/a	n/a
n/a	"image-keyboard-response"	"235"	"283691"	"0.0-6.0-2.0-1.25"	"ts4lkx"	"600"	"1366"	"chrome"	"109.0.0"	"FALSE"	"Windows 10"	"60.1"	"019"	n/a	n/a	n/a	n/a	n/a	n/a	"Trial"	n/a	n/a	n/a	"830"	"arrowright"	n/a	"NULL"	"NULL"	"NULL"	"stimuli/Ebbinghaus_0.35714_-0.2150.png"	n/a	"Ebbinghaus"	"arrowright"	"1476"	"TRUE"	"Ebbinghaus"	"0.3571400000"	"-0.215000000"	"2"	"26"
n/a	"html-keyboard-response"	"236"	"284945"	"0.0-6.0-2.0-0.26"	"ts4lkx"	"600"	"1366"	"chrome"	"109.0.0"	"FALSE"	"Windows 10"	"60.1"	"019"	n/a	n/a	n/a	n/a	n/a	n/a	"fixation"	n/a	n/a	n/a	n/a	"NULL"	n/a	"NULL"	"NULL"	"NULL"	"<p style=\"color: black; font-size: 80px; padding-left: 7%; padding-right: 17%; padding-top: 27%; padding-bottom: 47%\">+</p>"	"1249"	n/a	n/a	n/a	n/a	n/a	n/a	n/a	n/a	n/a
n/a	"image-keyboard-response"	"237"	"285855"	"0.0-6.0-2.0-1.26"	"ts4lkx"	"600"	"1366"	"chrome"	"109.0.0"	"FALSE"	"Windows 10"	"60.1"	"019"	n/a	n/a	n/a	n/a	n/a	n/a	"Trial"	n/a	n/a	n/a	"908"	"arrowleft"	n/a	"NULL"	"NULL"	"NULL"	"stimuli/Ebbinghaus_-0.35714_0.11071.png"	n/a	"Ebbinghaus"	"arrowleft"	"1254"	"TRUE"	"Ebbinghaus"	"-0.357140000"	"0.1107100000"	"2"	"27"
n/a	"html-keyboard-response"	"238"	"287293"	"0.0-6.0-2.0-0.27"	"ts4lkx"	"600"	"1366"	"chrome"	"109.0.0"	"FALSE"	"Windows 10"	"60.1"	"019"	n/a	n/a	n/a	n/a	n/a	n/a	"fixation"	n/a	n/a	n/a	n/a	"NULL"	n/a	"NULL"	"NULL"	"NULL"	"<p style=\"color: black; font-size: 80px; padding-left: 14%; padding-right: 1%; padding-top: 37%; padding-bottom: 32%\">+</p>"	"1421"	n/a	n/a	n/a	n/a	n/a	n/a	n/a	n/a	n/a
n/a	"image-keyboard-response"	"239"	"287929"	"0.0-6.0-2.0-1.27"	"ts4lkx"	"600"	"1366"	"chrome"	"109.0.0"	"FALSE"	"Windows 10"	"60.1"	"019"	n/a	n/a	n/a	n/a	n/a	n/a	"Trial"	n/a	n/a	n/a	"635"	"arrowright"	n/a	"NULL"	"NULL"	"NULL"	"stimuli/Ebbinghaus_0.35714_-0.15857.png"	n/a	"Ebbinghaus"	"arrowright"	"1438"	"TRUE"	"Ebbinghaus"	"0.3571400000"	"-0.158570000"	"2"	"28"
n/a	"html-keyboard-response"	"240"	"289295"	"0.0-6.0-2.0-0.28"	"ts4lkx"	"600"	"1366"	"chrome"	"109.0.0"	"FALSE"	"Windows 10"	"60.1"	"019"	n/a	n/a	n/a	n/a	n/a	n/a	"fixation"	n/a	n/a	n/a	n/a	"NULL"	n/a	"NULL"	"NULL"	"NULL"	"<p style=\"color: black; font-size: 80px; padding-left: 25%; padding-right: 5%; padding-top: 45%; padding-bottom: 10%\">+</p>"	"1359"	n/a	n/a	n/a	n/a	n/a	n/a	n/a	n/a	n/a
n/a	"image-keyboard-response"	"241"	"289944"	"0.0-6.0-2.0-1.28"	"ts4lkx"	"600"	"1366"	"chrome"	"109.0.0"	"FALSE"	"Windows 10"	"60.1"	"019"	n/a	n/a	n/a	n/a	n/a	n/a	"Trial"	n/a	n/a	n/a	"648"	"arrowright"	n/a	"NULL"	"NULL"	"NULL"	"stimuli/Ebbinghaus_-0.87143_-0.2150.png"	n/a	"Ebbinghaus"	"arrowright"	"1366"	"TRUE"	"Ebbinghaus"	"-0.871430000"	"-0.215000000"	"2"	"29"
n/a	"html-keyboard-response"	"242"	"291375"	"0.0-6.0-2.0-0.29"	"ts4lkx"	"600"	"1366"	"chrome"	"109.0.0"	"FALSE"	"Windows 10"	"60.1"	"019"	n/a	n/a	n/a	n/a	n/a	n/a	"fixation"	n/a	n/a	n/a	n/a	"NULL"	n/a	"NULL"	"NULL"	"NULL"	"<p style=\"color: black; font-size: 80px; padding-left: 17%; padding-right: 7%; padding-top: 2%; padding-bottom: 47%\">+</p>"	"1418"	n/a	n/a	n/a	n/a	n/a	n/a	n/a	n/a	n/a
n/a	"image-keyboard-response"	"243"	"292518"	"0.0-6.0-2.0-1.29"	"ts4lkx"	"600"	"1366"	"chrome"	"109.0.0"	"FALSE"	"Windows 10"	"60.1"	"019"	n/a	n/a	n/a	n/a	n/a	n/a	"Trial"	n/a	n/a	n/a	"1142"	"arrowright"	n/a	"NULL"	"NULL"	"NULL"	"stimuli/Ebbinghaus_-0.1000_-0.11071.png"	n/a	"Ebbinghaus"	"arrowright"	"1431"	"TRUE"	"Ebbinghaus"	"-0.100000000"	"-0.110710000"	"2"	"30"
n/a	"html-keyboard-response"	"244"	"293889"	"0.0-6.0-2.0-0.30"	"ts4lkx"	"600"	"1366"	"chrome"	"109.0.0"	"FALSE"	"Windows 10"	"60.1"	"019"	n/a	n/a	n/a	n/a	n/a	n/a	"fixation"	n/a	n/a	n/a	n/a	"NULL"	n/a	"NULL"	"NULL"	"NULL"	"<p style=\"color: black; font-size: 80px; padding-left: 6%; padding-right: 48%; padding-top: 32%; padding-bottom: 18%\">+</p>"	"1354"	n/a	n/a	n/a	n/a	n/a	n/a	n/a	n/a	n/a
n/a	"image-keyboard-response"	"245"	"295114"	"0.0-6.0-2.0-1.30"	"ts4lkx"	"600"	"1366"	"chrome"	"109.0.0"	"FALSE"	"Windows 10"	"60.1"	"019"	n/a	n/a	n/a	n/a	n/a	n/a	"Trial"	n/a	n/a	n/a	"1224"	"arrowleft"	n/a	"NULL"	"NULL"	"NULL"	"stimuli/Ebbinghaus_0.10000_0.21500.png"	n/a	"Ebbinghaus"	"arrowleft"	"1371"	"TRUE"	"Ebbinghaus"	"0.1000000000"	"0.2150000000"	"2"	"31"
n/a	"html-keyboard-response"	"246"	"296314"	"0.0-6.0-2.0-0.31"	"ts4lkx"	"600"	"1366"	"chrome"	"109.0.0"	"FALSE"	"Windows 10"	"60.1"	"019"	n/a	n/a	n/a	n/a	n/a	n/a	"fixation"	n/a	n/a	n/a	n/a	"NULL"	n/a	"NULL"	"NULL"	"NULL"	"<p style=\"color: black; font-size: 80px; padding-left: 9%; padding-right: 14%; padding-top: 38%; padding-bottom: 21%\">+</p>"	"1185"	n/a	n/a	n/a	n/a	n/a	n/a	n/a	n/a	n/a
n/a	"image-keyboard-response"	"247"	"296963"	"0.0-6.0-2.0-1.31"	"ts4lkx"	"600"	"1366"	"chrome"	"109.0.0"	"FALSE"	"Windows 10"	"60.1"	"019"	n/a	n/a	n/a	n/a	n/a	n/a	"Trial"	n/a	n/a	n/a	"648"	"arrowright"	n/a	"NULL"	"NULL"	"NULL"	"stimuli/Ebbinghaus_-0.61429_-0.2800.png"	n/a	"Ebbinghaus"	"arrowright"	"1200"	"TRUE"	"Ebbinghaus"	"-0.614290000"	"-0.280000000"	"2"	"32"
n/a	"html-keyboard-response"	"248"	"298110"	"0.0-6.0-2.0-0.32"	"ts4lkx"	"600"	"1366"	"chrome"	"109.0.0"	"FALSE"	"Windows 10"	"60.1"	"019"	n/a	n/a	n/a	n/a	n/a	n/a	"fixation"	n/a	n/a	n/a	n/a	"NULL"	n/a	"NULL"	"NULL"	"NULL"	"<p style=\"color: black; font-size: 80px; padding-left: 26%; padding-right: 11%; padding-top: 1%; padding-bottom: 41%\">+</p>"	"1138"	n/a	n/a	n/a	n/a	n/a	n/a	n/a	n/a	n/a
n/a	"image-keyboard-response"	"249"	"298748"	"0.0-6.0-2.0-1.32"	"ts4lkx"	"600"	"1366"	"chrome"	"109.0.0"	"FALSE"	"Windows 10"	"60.1"	"019"	n/a	n/a	n/a	n/a	n/a	n/a	"Trial"	n/a	n/a	n/a	"638"	"arrowleft"	n/a	"NULL"	"NULL"	"NULL"	"stimuli/Ebbinghaus_0.35714_0.21500.png"	n/a	"Ebbinghaus"	"arrowleft"	"1147"	"TRUE"	"Ebbinghaus"	"0.3571400000"	"0.2150000000"	"2"	"33"
n/a	"html-keyboard-response"	"250"	"300141"	"0.0-6.0-2.0-0.33"	"ts4lkx"	"600"	"1366"	"chrome"	"109.0.0"	"FALSE"	"Windows 10"	"60.1"	"019"	n/a	n/a	n/a	n/a	n/a	n/a	"fixation"	n/a	n/a	n/a	n/a	"NULL"	n/a	"NULL"	"NULL"	"NULL"	"<p style=\"color: black; font-size: 80px; padding-left: 41%; padding-right: 37%; padding-top: 8%; padding-bottom: 45%\">+</p>"	"1386"	n/a	n/a	n/a	n/a	n/a	n/a	n/a	n/a	n/a
n/a	"image-keyboard-response"	"251"	"300968"	"0.0-6.0-2.0-1.33"	"ts4lkx"	"600"	"1366"	"chrome"	"109.0.0"	"FALSE"	"Windows 10"	"60.1"	"019"	n/a	n/a	n/a	n/a	n/a	n/a	"Trial"	n/a	n/a	n/a	"827"	"arrowright"	n/a	"NULL"	"NULL"	"NULL"	"stimuli/Ebbinghaus_0.87143_0.11071.png"	n/a	"Ebbinghaus"	"arrowleft"	"1393"	"FALSE"	"Ebbinghaus"	"0.8714300000"	"0.1107100000"	"2"	"34"
n/a	"html-keyboard-response"	"252"	"302437"	"0.0-6.0-2.0-0.34"	"ts4lkx"	"600"	"1366"	"chrome"	"109.0.0"	"FALSE"	"Windows 10"	"60.1"	"019"	n/a	n/a	n/a	n/a	n/a	n/a	"fixation"	n/a	n/a	n/a	n/a	"NULL"	n/a	"NULL"	"NULL"	"NULL"	"<p style=\"color: black; font-size: 80px; padding-left: 30%; padding-right: 34%; padding-top: 33%; padding-bottom: 36%\">+</p>"	"1459"	n/a	n/a	n/a	n/a	n/a	n/a	n/a	n/a	n/a
n/a	"image-keyboard-response"	"253"	"303548"	"0.0-6.0-2.0-1.34"	"ts4lkx"	"600"	"1366"	"chrome"	"109.0.0"	"FALSE"	"Windows 10"	"60.1"	"019"	n/a	n/a	n/a	n/a	n/a	n/a	"Trial"	n/a	n/a	n/a	"1110"	"arrowleft"	n/a	"NULL"	"NULL"	"NULL"	"stimuli/Ebbinghaus_0.10000_0.15857.png"	n/a	"Ebbinghaus"	"arrowleft"	"1469"	"TRUE"	"Ebbinghaus"	"0.1000000000"	"0.1585700000"	"2"	"35"
n/a	"html-keyboard-response"	"254"	"304609"	"0.0-6.0-2.0-0.35"	"ts4lkx"	"600"	"1366"	"chrome"	"109.0.0"	"FALSE"	"Windows 10"	"60.1"	"019"	n/a	n/a	n/a	n/a	n/a	n/a	"fixation"	n/a	n/a	n/a	n/a	"NULL"	n/a	"NULL"	"NULL"	"NULL"	"<p style=\"color: black; font-size: 80px; padding-left: 2%; padding-right: 23%; padding-top: 5%; padding-bottom: 50%\">+</p>"	"1055"	n/a	n/a	n/a	n/a	n/a	n/a	n/a	n/a	n/a
