"success"	"trial_type"	"trial_index"	"time_elapsed"	"internal_node_id"	"participant_id"	"screen_height"	"screen_width"	"browser"	"browser_version"	"mobile"	"os"	"vsync_rate"	"subject_id"	"width"	"height"	"webaudio"	"fullscreen"	"webcam"	"microphone"	"screen"	"version"	"date"	"time"	"rt"	"response"	"timeout"	"failed_images"	"failed_audio"	"failed_video"	"stimulus"	"trial_duration"	"block"	"correct_response"	"prestimulus_duration"	"correct"	"type"	"illusion_strength"	"illusion_difference"	"block_number"	"trial_number"
"TRUE"	"fullscreen"	"0"	"7738"	"0.0-0.0"	"73hzod"	"600"	"1366"	"chrome"	"112.0.0"	"FALSE"	"Windows 10"	"60.14"	"066"	n/a	n/a	n/a	n/a	n/a	n/a	n/a	n/a	n/a	n/a	n/a	"NULL"	n/a	"NULL"	"NULL"	"NULL"	n/a	n/a	n/a	n/a	n/a	n/a	n/a	n/a	n/a	n/a	n/a
n/a	"browser-check"	"1"	"8746"	"0.0-1.0"	"73hzod"	"600"	"1366"	"chrome"	"112.0.0"	"FALSE"	"Windows 10"	"60.14"	"066"	"1366"	"600"	"TRUE"	"TRUE"	"TRUE"	"TRUE"	"browser_info"	"1.0"	"07/04/2023"	"15:18:58"	n/a	"NULL"	n/a	"NULL"	"NULL"	"NULL"	n/a	n/a	n/a	n/a	n/a	n/a	n/a	n/a	n/a	n/a	n/a
n/a	"survey-text"	"2"	"13631"	"0.0-2.0"	"73hzod"	"600"	"1366"	"chrome"	"112.0.0"	"FALSE"	"Windows 10"	"60.14"	"066"	n/a	n/a	n/a	n/a	n/a	n/a	"subject_id"	n/a	n/a	n/a	"4882"	"list(subject_id = \"066\")"	n/a	"NULL"	"NULL"	"NULL"	n/a	n/a	n/a	n/a	n/a	n/a	n/a	n/a	n/a	n/a	n/a
"TRUE"	"preload"	"3"	"13644"	"0.0-3.0"	"73hzod"	"600"	"1366"	"chrome"	"112.0.0"	"FALSE"	"Windows 10"	"60.14"	"066"	n/a	n/a	n/a	n/a	n/a	n/a	n/a	n/a	n/a	n/a	n/a	"NULL"	"FALSE"	"list()"	"list()"	"list()"	n/a	n/a	n/a	n/a	n/a	n/a	n/a	n/a	n/a	n/a	n/a
n/a	"html-button-response"	"4"	"41116"	"0.0-4.0-0.0"	"73hzod"	"600"	"1366"	"chrome"	"112.0.0"	"FALSE"	"Windows 10"	"60.14"	"066"	n/a	n/a	n/a	n/a	n/a	n/a	"illusion_instructions"	n/a	n/a	n/a	"27471"	"0"	n/a	"NULL"	"NULL"	"NULL"	"<p><b>Illusion Game</b></p><p>In this game of speed and reflex, you will need to make <b>visual judgments</b> (for instance, which circle is the biggest, or which line is the longest), as fast and as correctly as possible, while <b>resisting different visual illusions</b>.</p><p>We are going to start with some examples of all the illusions you will encounter in the game.</p>"	n/a	n/a	n/a	n/a	n/a	n/a	n/a	n/a	n/a	n/a
"TRUE"	"preload"	"5"	"41141"	"0.0-4.0-1.0-0.0"	"73hzod"	"600"	"1366"	"chrome"	"112.0.0"	"FALSE"	"Windows 10"	"60.14"	"066"	n/a	n/a	n/a	n/a	n/a	n/a	n/a	n/a	n/a	n/a	n/a	"NULL"	"FALSE"	"list()"	"list()"	"list()"	n/a	n/a	n/a	n/a	n/a	n/a	n/a	n/a	n/a	n/a	n/a
n/a	"html-keyboard-response"	"6"	"63182"	"0.0-4.0-1.0-1.0"	"73hzod"	"600"	"1366"	"chrome"	"112.0.0"	"FALSE"	"Windows 10"	"60.14"	"066"	n/a	n/a	n/a	n/a	n/a	n/a	n/a	n/a	n/a	n/a	"22040"	"enter"	n/a	"NULL"	"NULL"	"NULL"	"<p><b>Practice</b></p><p>In this part, two red circles will appear side by side on the screen.</p><p>Your task is to select which <b>red circle is bigger</b> in size as fast as you can, without making errors.</p><p>Don't get distracted by the surrounding black circles around the red circles!</p><p>Press <b>the LEFT or the RIGHT arrow</b> to indicate which is the bigger <b>red circle.</b></p><div style='float: center'><img src='materials/instructions/Ebbinghaus_Demo.png' height='300'></img><p><img src='utils/answer/answer_leftright_keyboard.PNG' height='150'></img></p><p class='small'>In this example, the correct answer is the <b>LEFT arrow</b>.</p></div><p>Are you ready? <b>Press ENTER to start</b></p>"	n/a	n/a	n/a	n/a	n/a	n/a	n/a	n/a	n/a	n/a
n/a	"html-keyboard-response"	"7"	"65091"	"0.0-4.0-1.0-2.0-0.0"	"73hzod"	"600"	"1366"	"chrome"	"112.0.0"	"FALSE"	"Windows 10"	"60.14"	"066"	n/a	n/a	n/a	n/a	n/a	n/a	"fixation"	n/a	n/a	n/a	n/a	"NULL"	n/a	"NULL"	"NULL"	"NULL"	"<p style=\"color: black; font-size: 80px; padding-left: 31%; padding-right: 38%; padding-top: 23%; padding-bottom: 35%\">+</p>"	"1385"	n/a	n/a	n/a	n/a	n/a	n/a	n/a	n/a	n/a
n/a	"image-keyboard-response"	"8"	"65906"	"0.0-4.0-1.0-2.0-1.0"	"73hzod"	"600"	"1366"	"chrome"	"112.0.0"	"FALSE"	"Windows 10"	"60.14"	"066"	n/a	n/a	n/a	n/a	n/a	n/a	"Trial"	n/a	n/a	n/a	"811"	"arrowleft"	n/a	"NULL"	"NULL"	"NULL"	"stimuli/Ebbinghaus_1000000_1.40000.png"	n/a	"Ebbinghaus"	"arrowleft"	"1909"	"TRUE"	"Ebbinghaus"	"100000000000"	"1.4000000000"	"1"	"1"
n/a	"html-keyboard-response"	"9"	"67236"	"0.0-4.0-1.0-2.0-0.1"	"73hzod"	"600"	"1366"	"chrome"	"112.0.0"	"FALSE"	"Windows 10"	"60.14"	"066"	n/a	n/a	n/a	n/a	n/a	n/a	"fixation"	n/a	n/a	n/a	n/a	"NULL"	n/a	"NULL"	"NULL"	"NULL"	"<p style=\"color: black; font-size: 80px; padding-left: 21%; padding-right: 43%; padding-top: 41%; padding-bottom: 30%\">+</p>"	"1313"	n/a	n/a	n/a	n/a	n/a	n/a	n/a	n/a	n/a
n/a	"image-keyboard-response"	"10"	"67771"	"0.0-4.0-1.0-2.0-1.1"	"73hzod"	"600"	"1366"	"chrome"	"112.0.0"	"FALSE"	"Windows 10"	"60.14"	"066"	n/a	n/a	n/a	n/a	n/a	n/a	"Trial"	n/a	n/a	n/a	"534"	"arrowright"	n/a	"NULL"	"NULL"	"NULL"	"stimuli/Ebbinghaus_1000000_-1.4000.png"	n/a	"Ebbinghaus"	"arrowright"	"1330"	"TRUE"	"Ebbinghaus"	"100000000000"	"-1.400000000"	"1"	"2"
n/a	"html-keyboard-response"	"11"	"69001"	"0.0-4.0-1.0-2.0-0.2"	"73hzod"	"600"	"1366"	"chrome"	"112.0.0"	"FALSE"	"Windows 10"	"60.14"	"066"	n/a	n/a	n/a	n/a	n/a	n/a	"fixation"	n/a	n/a	n/a	n/a	"NULL"	n/a	"NULL"	"NULL"	"NULL"	"<p style=\"color: black; font-size: 80px; padding-left: 10%; padding-right: 13%; padding-top: 36%; padding-bottom: 3%\">+</p>"	"1228"	n/a	n/a	n/a	n/a	n/a	n/a	n/a	n/a	n/a
n/a	"image-keyboard-response"	"12"	"69563"	"0.0-4.0-1.0-2.0-1.2"	"73hzod"	"600"	"1366"	"chrome"	"112.0.0"	"FALSE"	"Windows 10"	"60.14"	"066"	n/a	n/a	n/a	n/a	n/a	n/a	"Trial"	n/a	n/a	n/a	"561"	"arrowright"	n/a	"NULL"	"NULL"	"NULL"	"stimuli/Ebbinghaus_-100000_-1.4000.png"	n/a	"Ebbinghaus"	"arrowright"	"1230"	"TRUE"	"Ebbinghaus"	"-10000000000"	"-1.400000000"	"1"	"3"
n/a	"html-keyboard-response"	"13"	"70845"	"0.0-4.0-1.0-2.0-0.3"	"73hzod"	"600"	"1366"	"chrome"	"112.0.0"	"FALSE"	"Windows 10"	"60.14"	"066"	n/a	n/a	n/a	n/a	n/a	n/a	"fixation"	n/a	n/a	n/a	n/a	"NULL"	n/a	"NULL"	"NULL"	"NULL"	"<p style=\"color: black; font-size: 80px; padding-left: 21%; padding-right: 3%; padding-top: 27%; padding-bottom: 16%\">+</p>"	"1276"	n/a	n/a	n/a	n/a	n/a	n/a	n/a	n/a	n/a
n/a	"image-keyboard-response"	"14"	"71302"	"0.0-4.0-1.0-2.0-1.3"	"73hzod"	"600"	"1366"	"chrome"	"112.0.0"	"FALSE"	"Windows 10"	"60.14"	"066"	n/a	n/a	n/a	n/a	n/a	n/a	"Trial"	n/a	n/a	n/a	"457"	"arrowleft"	n/a	"NULL"	"NULL"	"NULL"	"stimuli/Ebbinghaus_0000000_1.40000.png"	n/a	"Ebbinghaus"	"arrowleft"	"1282"	"TRUE"	"Ebbinghaus"	"000000000000"	"1.4000000000"	"1"	"4"
n/a	"html-keyboard-response"	"15"	"72326"	"0.0-4.0-1.0-2.0-0.4"	"73hzod"	"600"	"1366"	"chrome"	"112.0.0"	"FALSE"	"Windows 10"	"60.14"	"066"	n/a	n/a	n/a	n/a	n/a	n/a	"fixation"	n/a	n/a	n/a	n/a	"NULL"	n/a	"NULL"	"NULL"	"NULL"	"<p style=\"color: black; font-size: 80px; padding-left: 17%; padding-right: 9%; padding-top: 1%; padding-bottom: 26%\">+</p>"	"1008"	n/a	n/a	n/a	n/a	n/a	n/a	n/a	n/a	n/a
n/a	"image-keyboard-response"	"16"	"72847"	"0.0-4.0-1.0-2.0-1.4"	"73hzod"	"600"	"1366"	"chrome"	"112.0.0"	"FALSE"	"Windows 10"	"60.14"	"066"	n/a	n/a	n/a	n/a	n/a	n/a	"Trial"	n/a	n/a	n/a	"521"	"arrowleft"	n/a	"NULL"	"NULL"	"NULL"	"stimuli/Ebbinghaus_-100000_1.40000.png"	n/a	"Ebbinghaus"	"arrowleft"	"1024"	"TRUE"	"Ebbinghaus"	"-10000000000"	"1.4000000000"	"1"	"5"
n/a	"html-keyboard-response"	"17"	"73976"	"0.0-4.0-1.0-2.0-0.5"	"73hzod"	"600"	"1366"	"chrome"	"112.0.0"	"FALSE"	"Windows 10"	"60.14"	"066"	n/a	n/a	n/a	n/a	n/a	n/a	"fixation"	n/a	n/a	n/a	n/a	"NULL"	n/a	"NULL"	"NULL"	"NULL"	"<p style=\"color: black; font-size: 80px; padding-left: 47%; padding-right: 14%; padding-top: 28%; padding-bottom: 5%\">+</p>"	"1127"	n/a	n/a	n/a	n/a	n/a	n/a	n/a	n/a	n/a
n/a	"image-keyboard-response"	"18"	"74459"	"0.0-4.0-1.0-2.0-1.5"	"73hzod"	"600"	"1366"	"chrome"	"112.0.0"	"FALSE"	"Windows 10"	"60.14"	"066"	n/a	n/a	n/a	n/a	n/a	n/a	"Trial"	n/a	n/a	n/a	"482"	"arrowright"	n/a	"NULL"	"NULL"	"NULL"	"stimuli/Ebbinghaus_0000000_-1.4000.png"	n/a	"Ebbinghaus"	"arrowright"	"1129"	"TRUE"	"Ebbinghaus"	"000000000000"	"-1.400000000"	"1"	"6"
n/a	"html-button-response"	"19"	"89265"	"0.0-4.0-1.0-3.0"	"73hzod"	"600"	"1366"	"chrome"	"112.0.0"	"FALSE"	"Windows 10"	"60.14"	"066"	n/a	n/a	n/a	n/a	n/a	n/a	"practice_block_results"	n/a	n/a	n/a	"14804"	"0"	n/a	"NULL"	"NULL"	"NULL"	"<p style='color:rgb(76,175,80);'> Correct Responses: <b>100.00%</b></p><hr><p style='color:rgb(233,30,99);'> Average Response Time: <b>561.00</b> ms.</p>"	n/a	n/a	n/a	n/a	n/a	n/a	n/a	n/a	n/a	n/a
"TRUE"	"preload"	"20"	"89800"	"0.0-4.0-2.0-0.0"	"73hzod"	"600"	"1366"	"chrome"	"112.0.0"	"FALSE"	"Windows 10"	"60.14"	"066"	n/a	n/a	n/a	n/a	n/a	n/a	n/a	n/a	n/a	n/a	n/a	"NULL"	"FALSE"	"list()"	"list()"	"list()"	n/a	n/a	n/a	n/a	n/a	n/a	n/a	n/a	n/a	n/a	n/a
n/a	"html-keyboard-response"	"21"	"97114"	"0.0-4.0-2.0-1.0"	"73hzod"	"600"	"1366"	"chrome"	"112.0.0"	"FALSE"	"Windows 10"	"60.14"	"066"	n/a	n/a	n/a	n/a	n/a	n/a	n/a	n/a	n/a	n/a	"7314"	"enter"	n/a	"NULL"	"NULL"	"NULL"	"<p><b>Practice</b></p><p>In this part, two horizontal red lines will appear one above the other.</p><p>Your task is to select which <b>line is longer</b> in length as fast as you can, without making errors.</p><p>Don't get distracted by the surrounding black arrows at the end of the red lines!</p><p>Press <b>the UP or the DOWN arrow</b> to indicate where is the longer <b>red line.</b></p><div style='float: center'><img src='materials/instructions/MullerLyer_Demo.png' height='300'></img><p><img src='utils/answer/answer_updown_keyboard.PNG' height='150'></img></p><p class='small'>In this example, the correct answer is the <b>UP arrow</b>.</p></div><p>Are you ready? <b>Press ENTER to start</b></p>"	n/a	n/a	n/a	n/a	n/a	n/a	n/a	n/a	n/a	n/a
n/a	"html-keyboard-response"	"22"	"99113"	"0.0-4.0-2.0-2.0-0.0"	"73hzod"	"600"	"1366"	"chrome"	"112.0.0"	"FALSE"	"Windows 10"	"60.14"	"066"	n/a	n/a	n/a	n/a	n/a	n/a	"fixation"	n/a	n/a	n/a	n/a	"NULL"	n/a	"NULL"	"NULL"	"NULL"	"<p style=\"color: black; font-size: 80px; padding-left: 21%; padding-right: 27%; padding-top: 32%; padding-bottom: 13%\">+</p>"	"1485"	n/a	n/a	n/a	n/a	n/a	n/a	n/a	n/a	n/a
n/a	"image-keyboard-response"	"23"	"99720"	"0.0-4.0-2.0-2.0-1.0"	"73hzod"	"600"	"1366"	"chrome"	"112.0.0"	"FALSE"	"Windows 10"	"60.14"	"066"	n/a	n/a	n/a	n/a	n/a	n/a	"Trial"	n/a	n/a	n/a	"605"	"arrowup"	n/a	"NULL"	"NULL"	"NULL"	"stimuli/MullerLyer_-230000_0.70000.png"	n/a	"MullerLyer"	"arrowup"	"1999"	"TRUE"	"MullerLyer"	"-23000000000"	"0.7000000000"	"1"	"7"
n/a	"html-keyboard-response"	"24"	"101157"	"0.0-4.0-2.0-2.0-0.1"	"73hzod"	"600"	"1366"	"chrome"	"112.0.0"	"FALSE"	"Windows 10"	"60.14"	"066"	n/a	n/a	n/a	n/a	n/a	n/a	"fixation"	n/a	n/a	n/a	n/a	"NULL"	n/a	"NULL"	"NULL"	"NULL"	"<p style=\"color: black; font-size: 80px; padding-left: 48%; padding-right: 37%; padding-top: 48%; padding-bottom: 46%\">+</p>"	"1430"	n/a	n/a	n/a	n/a	n/a	n/a	n/a	n/a	n/a
n/a	"image-keyboard-response"	"25"	"101722"	"0.0-4.0-2.0-2.0-1.1"	"73hzod"	"600"	"1366"	"chrome"	"112.0.0"	"FALSE"	"Windows 10"	"60.14"	"066"	n/a	n/a	n/a	n/a	n/a	n/a	"Trial"	n/a	n/a	n/a	"564"	"arrowdown"	n/a	"NULL"	"NULL"	"NULL"	"stimuli/MullerLyer_2300000_-0.7000.png"	n/a	"MullerLyer"	"arrowdown"	"1437"	"TRUE"	"MullerLyer"	"230000000000"	"-0.700000000"	"1"	"8"
n/a	"html-keyboard-response"	"26"	"102846"	"0.0-4.0-2.0-2.0-0.2"	"73hzod"	"600"	"1366"	"chrome"	"112.0.0"	"FALSE"	"Windows 10"	"60.14"	"066"	n/a	n/a	n/a	n/a	n/a	n/a	"fixation"	n/a	n/a	n/a	n/a	"NULL"	n/a	"NULL"	"NULL"	"NULL"	"<p style=\"color: black; font-size: 80px; padding-left: 21%; padding-right: 30%; padding-top: 39%; padding-bottom: 11%\">+</p>"	"1112"	n/a	n/a	n/a	n/a	n/a	n/a	n/a	n/a	n/a
n/a	"image-keyboard-response"	"27"	"103261"	"0.0-4.0-2.0-2.0-1.2"	"73hzod"	"600"	"1366"	"chrome"	"112.0.0"	"FALSE"	"Windows 10"	"60.14"	"066"	n/a	n/a	n/a	n/a	n/a	n/a	"Trial"	n/a	n/a	n/a	"414"	"arrowup"	n/a	"NULL"	"NULL"	"NULL"	"stimuli/MullerLyer_0000000_0.70000.png"	n/a	"MullerLyer"	"arrowup"	"1124"	"TRUE"	"MullerLyer"	"000000000000"	"0.7000000000"	"1"	"9"
n/a	"html-keyboard-response"	"28"	"104392"	"0.0-4.0-2.0-2.0-0.3"	"73hzod"	"600"	"1366"	"chrome"	"112.0.0"	"FALSE"	"Windows 10"	"60.14"	"066"	n/a	n/a	n/a	n/a	n/a	n/a	"fixation"	n/a	n/a	n/a	n/a	"NULL"	n/a	"NULL"	"NULL"	"NULL"	"<p style=\"color: black; font-size: 80px; padding-left: 3%; padding-right: 21%; padding-top: 16%; padding-bottom: 29%\">+</p>"	"1117"	n/a	n/a	n/a	n/a	n/a	n/a	n/a	n/a	n/a
n/a	"image-keyboard-response"	"29"	"104871"	"0.0-4.0-2.0-2.0-1.3"	"73hzod"	"600"	"1366"	"chrome"	"112.0.0"	"FALSE"	"Windows 10"	"60.14"	"066"	n/a	n/a	n/a	n/a	n/a	n/a	"Trial"	n/a	n/a	n/a	"478"	"arrowdown"	n/a	"NULL"	"NULL"	"NULL"	"stimuli/MullerLyer_0000000_-0.7000.png"	n/a	"MullerLyer"	"arrowdown"	"1131"	"TRUE"	"MullerLyer"	"000000000000"	"-0.700000000"	"1"	"10"
n/a	"html-keyboard-response"	"30"	"105954"	"0.0-4.0-2.0-2.0-0.4"	"73hzod"	"600"	"1366"	"chrome"	"112.0.0"	"FALSE"	"Windows 10"	"60.14"	"066"	n/a	n/a	n/a	n/a	n/a	n/a	"fixation"	n/a	n/a	n/a	n/a	"NULL"	n/a	"NULL"	"NULL"	"NULL"	"<p style=\"color: black; font-size: 80px; padding-left: 6%; padding-right: 42%; padding-top: 21%; padding-bottom: 23%\">+</p>"	"1075"	n/a	n/a	n/a	n/a	n/a	n/a	n/a	n/a	n/a
n/a	"image-keyboard-response"	"31"	"106397"	"0.0-4.0-2.0-2.0-1.4"	"73hzod"	"600"	"1366"	"chrome"	"112.0.0"	"FALSE"	"Windows 10"	"60.14"	"066"	n/a	n/a	n/a	n/a	n/a	n/a	"Trial"	n/a	n/a	n/a	"442"	"arrowdown"	n/a	"NULL"	"NULL"	"NULL"	"stimuli/MullerLyer_-230000_-0.7000.png"	n/a	"MullerLyer"	"arrowdown"	"1083"	"TRUE"	"MullerLyer"	"-23000000000"	"-0.700000000"	"1"	"11"
n/a	"html-keyboard-response"	"32"	"107832"	"0.0-4.0-2.0-2.0-0.5"	"73hzod"	"600"	"1366"	"chrome"	"112.0.0"	"FALSE"	"Windows 10"	"60.14"	"066"	n/a	n/a	n/a	n/a	n/a	n/a	"fixation"	n/a	n/a	n/a	n/a	"NULL"	n/a	"NULL"	"NULL"	"NULL"	"<p style=\"color: black; font-size: 80px; padding-left: 34%; padding-right: 9%; padding-top: 28%; padding-bottom: 39%\">+</p>"	"1428"	n/a	n/a	n/a	n/a	n/a	n/a	n/a	n/a	n/a
n/a	"image-keyboard-response"	"33"	"108337"	"0.0-4.0-2.0-2.0-1.5"	"73hzod"	"600"	"1366"	"chrome"	"112.0.0"	"FALSE"	"Windows 10"	"60.14"	"066"	n/a	n/a	n/a	n/a	n/a	n/a	"Trial"	n/a	n/a	n/a	"504"	"arrowup"	n/a	"NULL"	"NULL"	"NULL"	"stimuli/MullerLyer_2300000_0.70000.png"	n/a	"MullerLyer"	"arrowup"	"1435"	"TRUE"	"MullerLyer"	"230000000000"	"0.7000000000"	"1"	"12"
n/a	"html-button-response"	"34"	"112271"	"0.0-4.0-2.0-3.0"	"73hzod"	"600"	"1366"	"chrome"	"112.0.0"	"FALSE"	"Windows 10"	"60.14"	"066"	n/a	n/a	n/a	n/a	n/a	n/a	"practice_block_results"	n/a	n/a	n/a	"3933"	"0"	n/a	"NULL"	"NULL"	"NULL"	"<p style='color:rgb(76,175,80);'> Correct Responses: <b>100.00%</b></p><hr><p style='color:rgb(233,30,99);'> Average Response Time: <b>501.17</b> ms.</p>"	n/a	n/a	n/a	n/a	n/a	n/a	n/a	n/a	n/a	n/a
"TRUE"	"preload"	"35"	"113298"	"0.0-4.0-3.0-0.0"	"73hzod"	"600"	"1366"	"chrome"	"112.0.0"	"FALSE"	"Windows 10"	"60.14"	"066"	n/a	n/a	n/a	n/a	n/a	n/a	n/a	n/a	n/a	n/a	n/a	"NULL"	"FALSE"	"list()"	"list()"	"list()"	n/a	n/a	n/a	n/a	n/a	n/a	n/a	n/a	n/a	n/a	n/a
n/a	"html-keyboard-response"	"36"	"118338"	"0.0-4.0-3.0-1.0"	"73hzod"	"600"	"1366"	"chrome"	"112.0.0"	"FALSE"	"Windows 10"	"60.14"	"066"	n/a	n/a	n/a	n/a	n/a	n/a	n/a	n/a	n/a	n/a	"5039"	"enter"	n/a	"NULL"	"NULL"	"NULL"	"<p><b>Practice</b></p><p>In this part, two red lines will appear side by side.</p><p>Your task is to tell <b>which line is longer</b> in length, regardless of their orientation, as fast as you can, and without making errors.</p><p>Don't get distracted by the orientation of the lines!</p><p>Press <b>the LEFT or the RIGHT arrow</b> to indicate which <b>line is the longer one.</b></p><div style='float: center'><img src='materials/instructions/VerticalHorizontal_Demo.png' height='300'></img><p><img src='utils/answer/answer_leftright_keyboard.PNG' height='150'></img></p><p class='small'>In this example, the correct answer is the <b>LEFT arrow</b>.</p></div><p>Are you ready? <b>Press ENTER to start</b></p>"	n/a	n/a	n/a	n/a	n/a	n/a	n/a	n/a	n/a	n/a
n/a	"html-keyboard-response"	"37"	"120125"	"0.0-4.0-3.0-2.0-0.0"	"73hzod"	"600"	"1366"	"chrome"	"112.0.0"	"FALSE"	"Windows 10"	"60.14"	"066"	n/a	n/a	n/a	n/a	n/a	n/a	"fixation"	n/a	n/a	n/a	n/a	"NULL"	n/a	"NULL"	"NULL"	"NULL"	"<p style=\"color: black; font-size: 80px; padding-left: 12%; padding-right: 44%; padding-top: 20%; padding-bottom: 48%\">+</p>"	"1271"	n/a	n/a	n/a	n/a	n/a	n/a	n/a	n/a	n/a
n/a	"image-keyboard-response"	"38"	"120560"	"0.0-4.0-3.0-2.0-1.0"	"73hzod"	"600"	"1366"	"chrome"	"112.0.0"	"FALSE"	"Windows 10"	"60.14"	"066"	n/a	n/a	n/a	n/a	n/a	n/a	"Trial"	n/a	n/a	n/a	"434"	"arrowright"	n/a	"NULL"	"NULL"	"NULL"	"stimuli/VerticalHorizontal_-330000_-0.9000.png"	n/a	"VerticalHorizontal"	"arrowright"	"1787"	"TRUE"	"VerticalHorizontal"	"-33000000000"	"-0.900000000"	"1"	"13"
n/a	"html-keyboard-response"	"39"	"121798"	"0.0-4.0-3.0-2.0-0.1"	"73hzod"	"600"	"1366"	"chrome"	"112.0.0"	"FALSE"	"Windows 10"	"60.14"	"066"	n/a	n/a	n/a	n/a	n/a	n/a	"fixation"	n/a	n/a	n/a	n/a	"NULL"	n/a	"NULL"	"NULL"	"NULL"	"<p style=\"color: black; font-size: 80px; padding-left: 5%; padding-right: 13%; padding-top: 5%; padding-bottom: 17%\">+</p>"	"1231"	n/a	n/a	n/a	n/a	n/a	n/a	n/a	n/a	n/a
n/a	"image-keyboard-response"	"40"	"122268"	"0.0-4.0-3.0-2.0-1.1"	"73hzod"	"600"	"1366"	"chrome"	"112.0.0"	"FALSE"	"Windows 10"	"60.14"	"066"	n/a	n/a	n/a	n/a	n/a	n/a	"Trial"	n/a	n/a	n/a	"469"	"arrowleft"	n/a	"NULL"	"NULL"	"NULL"	"stimuli/VerticalHorizontal_3300000_0.90000.png"	n/a	"VerticalHorizontal"	"arrowleft"	"1238"	"TRUE"	"VerticalHorizontal"	"330000000000"	"0.9000000000"	"1"	"14"
n/a	"html-keyboard-response"	"41"	"123455"	"0.0-4.0-3.0-2.0-0.2"	"73hzod"	"600"	"1366"	"chrome"	"112.0.0"	"FALSE"	"Windows 10"	"60.14"	"066"	n/a	n/a	n/a	n/a	n/a	n/a	"fixation"	n/a	n/a	n/a	n/a	"NULL"	n/a	"NULL"	"NULL"	"NULL"	"<p style=\"color: black; font-size: 80px; padding-left: 38%; padding-right: 48%; padding-top: 7%; padding-bottom: 10%\">+</p>"	"1180"	n/a	n/a	n/a	n/a	n/a	n/a	n/a	n/a	n/a
n/a	"image-keyboard-response"	"42"	"123843"	"0.0-4.0-3.0-2.0-1.2"	"73hzod"	"600"	"1366"	"chrome"	"112.0.0"	"FALSE"	"Windows 10"	"60.14"	"066"	n/a	n/a	n/a	n/a	n/a	n/a	"Trial"	n/a	n/a	n/a	"388"	"arrowright"	n/a	"NULL"	"NULL"	"NULL"	"stimuli/VerticalHorizontal_0000000_-0.9000.png"	n/a	"VerticalHorizontal"	"arrowright"	"1187"	"TRUE"	"VerticalHorizontal"	"000000000000"	"-0.900000000"	"1"	"15"
n/a	"html-keyboard-response"	"43"	"124991"	"0.0-4.0-3.0-2.0-0.3"	"73hzod"	"600"	"1366"	"chrome"	"112.0.0"	"FALSE"	"Windows 10"	"60.14"	"066"	n/a	n/a	n/a	n/a	n/a	n/a	"fixation"	n/a	n/a	n/a	n/a	"NULL"	n/a	"NULL"	"NULL"	"NULL"	"<p style=\"color: black; font-size: 80px; padding-left: 22%; padding-right: 44%; padding-top: 10%; padding-bottom: 42%\">+</p>"	"1143"	n/a	n/a	n/a	n/a	n/a	n/a	n/a	n/a	n/a
n/a	"image-keyboard-response"	"44"	"125377"	"0.0-4.0-3.0-2.0-1.3"	"73hzod"	"600"	"1366"	"chrome"	"112.0.0"	"FALSE"	"Windows 10"	"60.14"	"066"	n/a	n/a	n/a	n/a	n/a	n/a	"Trial"	n/a	n/a	n/a	"385"	"arrowleft"	n/a	"NULL"	"NULL"	"NULL"	"stimuli/VerticalHorizontal_-330000_0.90000.png"	n/a	"VerticalHorizontal"	"arrowleft"	"1148"	"TRUE"	"VerticalHorizontal"	"-33000000000"	"0.9000000000"	"1"	"16"
n/a	"html-keyboard-response"	"45"	"126484"	"0.0-4.0-3.0-2.0-0.4"	"73hzod"	"600"	"1366"	"chrome"	"112.0.0"	"FALSE"	"Windows 10"	"60.14"	"066"	n/a	n/a	n/a	n/a	n/a	n/a	"fixation"	n/a	n/a	n/a	n/a	"NULL"	n/a	"NULL"	"NULL"	"NULL"	"<p style=\"color: black; font-size: 80px; padding-left: 9%; padding-right: 25%; padding-top: 10%; padding-bottom: 45%\">+</p>"	"1102"	n/a	n/a	n/a	n/a	n/a	n/a	n/a	n/a	n/a
n/a	"image-keyboard-response"	"46"	"126862"	"0.0-4.0-3.0-2.0-1.4"	"73hzod"	"600"	"1366"	"chrome"	"112.0.0"	"FALSE"	"Windows 10"	"60.14"	"066"	n/a	n/a	n/a	n/a	n/a	n/a	"Trial"	n/a	n/a	n/a	"377"	"arrowright"	n/a	"NULL"	"NULL"	"NULL"	"stimuli/VerticalHorizontal_3300000_-0.9000.png"	n/a	"VerticalHorizontal"	"arrowright"	"1107"	"TRUE"	"VerticalHorizontal"	"330000000000"	"-0.900000000"	"1"	"17"
n/a	"html-keyboard-response"	"47"	"128013"	"0.0-4.0-3.0-2.0-0.5"	"73hzod"	"600"	"1366"	"chrome"	"112.0.0"	"FALSE"	"Windows 10"	"60.14"	"066"	n/a	n/a	n/a	n/a	n/a	n/a	"fixation"	n/a	n/a	n/a	n/a	"NULL"	n/a	"NULL"	"NULL"	"NULL"	"<p style=\"color: black; font-size: 80px; padding-left: 27%; padding-right: 23%; padding-top: 23%; padding-bottom: 45%\">+</p>"	"1142"	n/a	n/a	n/a	n/a	n/a	n/a	n/a	n/a	n/a
n/a	"image-keyboard-response"	"48"	"128428"	"0.0-4.0-3.0-2.0-1.5"	"73hzod"	"600"	"1366"	"chrome"	"112.0.0"	"FALSE"	"Windows 10"	"60.14"	"066"	n/a	n/a	n/a	n/a	n/a	n/a	"Trial"	n/a	n/a	n/a	"415"	"arrowleft"	n/a	"NULL"	"NULL"	"NULL"	"stimuli/VerticalHorizontal_0000000_0.90000.png"	n/a	"VerticalHorizontal"	"arrowleft"	"1151"	"TRUE"	"VerticalHorizontal"	"000000000000"	"0.9000000000"	"1"	"18"
n/a	"html-button-response"	"49"	"131036"	"0.0-4.0-3.0-3.0"	"73hzod"	"600"	"1366"	"chrome"	"112.0.0"	"FALSE"	"Windows 10"	"60.14"	"066"	n/a	n/a	n/a	n/a	n/a	n/a	"practice_block_results"	n/a	n/a	n/a	"2607"	"0"	n/a	"NULL"	"NULL"	"NULL"	"<p style='color:rgb(76,175,80);'> Correct Responses: <b>100.00%</b></p><hr><p style='color:rgb(233,30,99);'> Average Response Time: <b>411.33</b> ms.</p>"	n/a	n/a	n/a	n/a	n/a	n/a	n/a	n/a	n/a	n/a
n/a	"html-button-response"	"50"	"239906"	"0.0-4.0-4.0"	"73hzod"	"600"	"1366"	"chrome"	"112.0.0"	"FALSE"	"Windows 10"	"60.14"	"066"	n/a	n/a	n/a	n/a	n/a	n/a	"practice_debrief"	n/a	n/a	n/a	"108368"	"0"	n/a	"NULL"	"NULL"	"NULL"	"<p><b>TRAINING COMPLETED</b></p><p>In the next phase, there will be more trials, and some might be harder too.<br> Moreover, after each illusion block, a <b>score</b> will be calculated based on speed (time you took to answer) and accuracy (number of errors).</p><p>Try to keep up a high score!</p><br><p>Note that it can be <i>really</i> challenging at times, so you will need to rely on your <b>intuition</b> and gut feeling to answer as fast as you can without making errors.</p><p>Each illusion block will be repeated two times (so that you have the opportunity to improve your score), but the order of the blocks is random.</p><p>Remember, your goal is to be as <b>fast</b> and <b>accurate</b> as possible. Good luck!</p><br>"	n/a	n/a	n/a	n/a	n/a	n/a	n/a	n/a	n/a	n/a
"TRUE"	"preload"	"51"	"240170"	"0.0-5.0-0.0"	"73hzod"	"600"	"1366"	"chrome"	"112.0.0"	"FALSE"	"Windows 10"	"60.14"	"066"	n/a	n/a	n/a	n/a	n/a	n/a	n/a	n/a	n/a	n/a	n/a	"NULL"	"FALSE"	"list()"	"list()"	"list()"	n/a	n/a	n/a	n/a	n/a	n/a	n/a	n/a	n/a	n/a	n/a
n/a	"html-keyboard-response"	"52"	"244085"	"0.0-5.0-1.0"	"73hzod"	"600"	"1366"	"chrome"	"112.0.0"	"FALSE"	"Windows 10"	"60.14"	"066"	n/a	n/a	n/a	n/a	n/a	n/a	n/a	n/a	n/a	n/a	"3914"	"enter"	n/a	"NULL"	"NULL"	"NULL"	"<p><b>Part 1/6</b></p><p>In this part, two red lines will appear side by side.</p><p>Your task is to tell <b>which line is longer</b> in length, regardless of their orientation, as fast as you can, and without making errors.</p><p>Don't get distracted by the orientation of the lines!</p><p>Press <b>the LEFT or the RIGHT arrow</b> to indicate which <b>line is the longer one.</b></p><div style='float: center'><img src='materials/instructions/VerticalHorizontal_Demo.png' height='300'></img><p><img src='utils/answer/answer_leftright_keyboard.PNG' height='150'></img></p><p class='small'>In this example, the correct answer is the <b>LEFT arrow</b>.</p></div><p>Are you ready? <b>Press ENTER to start</b></p>"	n/a	n/a	n/a	n/a	n/a	n/a	n/a	n/a	n/a	n/a
n/a	"html-keyboard-response"	"53"	"245702"	"0.0-5.0-2.0-0.0"	"73hzod"	"600"	"1366"	"chrome"	"112.0.0"	"FALSE"	"Windows 10"	"60.14"	"066"	n/a	n/a	n/a	n/a	n/a	n/a	"fixation"	n/a	n/a	n/a	n/a	"NULL"	n/a	"NULL"	"NULL"	"NULL"	"<p style=\"color: black; font-size: 80px; padding-left: 13%; padding-right: 40%; padding-top: 43%; padding-bottom: 9%\">+</p>"	"1095"	n/a	n/a	n/a	n/a	n/a	n/a	n/a	n/a	n/a
n/a	"image-keyboard-response"	"54"	"246303"	"0.0-5.0-2.0-1.0"	"73hzod"	"600"	"1366"	"chrome"	"112.0.0"	"FALSE"	"Windows 10"	"60.14"	"066"	n/a	n/a	n/a	n/a	n/a	n/a	"Trial"	n/a	n/a	n/a	"599"	"arrowright"	n/a	"NULL"	"NULL"	"NULL"	"stimuli/VerticalHorizontal_-28.75714_-0.1096.png"	n/a	"VerticalHorizontal"	"arrowright"	"1617"	"TRUE"	"VerticalHorizontal"	"-28.75714000"	"-0.109600000"	"1"	"19"
n/a	"html-keyboard-response"	"55"	"247528"	"0.0-5.0-2.0-0.1"	"73hzod"	"600"	"1366"	"chrome"	"112.0.0"	"FALSE"	"Windows 10"	"60.14"	"066"	n/a	n/a	n/a	n/a	n/a	n/a	"fixation"	n/a	n/a	n/a	n/a	"NULL"	n/a	"NULL"	"NULL"	"NULL"	"<p style=\"color: black; font-size: 80px; padding-left: 31%; padding-right: 5%; padding-top: 20%; padding-bottom: 0%\">+</p>"	"1216"	n/a	n/a	n/a	n/a	n/a	n/a	n/a	n/a	n/a
n/a	"image-keyboard-response"	"56"	"248275"	"0.0-5.0-2.0-1.1"	"73hzod"	"600"	"1366"	"chrome"	"112.0.0"	"FALSE"	"Windows 10"	"60.14"	"066"	n/a	n/a	n/a	n/a	n/a	n/a	"Trial"	n/a	n/a	n/a	"746"	"arrowleft"	n/a	"NULL"	"NULL"	"NULL"	"stimuli/VerticalHorizontal_3.30000_-0.0673.png"	n/a	"VerticalHorizontal"	"arrowright"	"1225"	"FALSE"	"VerticalHorizontal"	"3.3000000000"	"-0.067300000"	"1"	"20"
n/a	"html-keyboard-response"	"57"	"249633"	"0.0-5.0-2.0-0.2"	"73hzod"	"600"	"1366"	"chrome"	"112.0.0"	"FALSE"	"Windows 10"	"60.14"	"066"	n/a	n/a	n/a	n/a	n/a	n/a	"fixation"	n/a	n/a	n/a	n/a	"NULL"	n/a	"NULL"	"NULL"	"NULL"	"<p style=\"color: black; font-size: 80px; padding-left: 39%; padding-right: 16%; padding-top: 42%; padding-bottom: 24%\">+</p>"	"1355"	n/a	n/a	n/a	n/a	n/a	n/a	n/a	n/a	n/a
n/a	"image-keyboard-response"	"58"	"250358"	"0.0-5.0-2.0-1.2"	"73hzod"	"600"	"1366"	"chrome"	"112.0.0"	"FALSE"	"Windows 10"	"60.14"	"066"	n/a	n/a	n/a	n/a	n/a	n/a	"Trial"	n/a	n/a	n/a	"725"	"arrowleft"	n/a	"NULL"	"NULL"	"NULL"	"stimuli/VerticalHorizontal_11.78571_0.06730.png"	n/a	"VerticalHorizontal"	"arrowleft"	"1358"	"TRUE"	"VerticalHorizontal"	"11.785710000"	"0.0673000000"	"1"	"21"
n/a	"html-keyboard-response"	"59"	"251783"	"0.0-5.0-2.0-0.3"	"73hzod"	"600"	"1366"	"chrome"	"112.0.0"	"FALSE"	"Windows 10"	"60.14"	"066"	n/a	n/a	n/a	n/a	n/a	n/a	"fixation"	n/a	n/a	n/a	n/a	"NULL"	n/a	"NULL"	"NULL"	"NULL"	"<p style=\"color: black; font-size: 80px; padding-left: 24%; padding-right: 32%; padding-top: 11%; padding-bottom: 25%\">+</p>"	"1409"	n/a	n/a	n/a	n/a	n/a	n/a	n/a	n/a	n/a
n/a	"image-keyboard-response"	"60"	"252439"	"0.0-5.0-2.0-1.3"	"73hzod"	"600"	"1366"	"chrome"	"112.0.0"	"FALSE"	"Windows 10"	"60.14"	"066"	n/a	n/a	n/a	n/a	n/a	n/a	"Trial"	n/a	n/a	n/a	"655"	"arrowleft"	n/a	"NULL"	"NULL"	"NULL"	"stimuli/VerticalHorizontal_28.75714_-0.16217.png"	n/a	"VerticalHorizontal"	"arrowright"	"1425"	"FALSE"	"VerticalHorizontal"	"28.757140000"	"-0.162170000"	"1"	"22"
n/a	"html-keyboard-response"	"61"	"253799"	"0.0-5.0-2.0-0.4"	"73hzod"	"600"	"1366"	"chrome"	"112.0.0"	"FALSE"	"Windows 10"	"60.14"	"066"	n/a	n/a	n/a	n/a	n/a	n/a	"fixation"	n/a	n/a	n/a	n/a	"NULL"	n/a	"NULL"	"NULL"	"NULL"	"<p style=\"color: black; font-size: 80px; padding-left: 16%; padding-right: 8%; padding-top: 36%; padding-bottom: 9%\">+</p>"	"1359"	n/a	n/a	n/a	n/a	n/a	n/a	n/a	n/a	n/a
n/a	"image-keyboard-response"	"62"	"254229"	"0.0-5.0-2.0-1.4"	"73hzod"	"600"	"1366"	"chrome"	"112.0.0"	"FALSE"	"Windows 10"	"60.14"	"066"	n/a	n/a	n/a	n/a	n/a	n/a	"Trial"	n/a	n/a	n/a	"429"	"arrowright"	n/a	"NULL"	"NULL"	"NULL"	"stimuli/VerticalHorizontal_3.30000_-0.2250.png"	n/a	"VerticalHorizontal"	"arrowright"	"1360"	"TRUE"	"VerticalHorizontal"	"3.3000000000"	"-0.225000000"	"1"	"23"
n/a	"html-keyboard-response"	"63"	"255253"	"0.0-5.0-2.0-0.5"	"73hzod"	"600"	"1366"	"chrome"	"112.0.0"	"FALSE"	"Windows 10"	"60.14"	"066"	n/a	n/a	n/a	n/a	n/a	n/a	"fixation"	n/a	n/a	n/a	n/a	"NULL"	n/a	"NULL"	"NULL"	"NULL"	"<p style=\"color: black; font-size: 80px; padding-left: 20%; padding-right: 39%; padding-top: 4%; padding-bottom: 38%\">+</p>"	"1022"	n/a	n/a	n/a	n/a	n/a	n/a	n/a	n/a	n/a
n/a	"image-keyboard-response"	"64"	"255679"	"0.0-5.0-2.0-1.5"	"73hzod"	"600"	"1366"	"chrome"	"112.0.0"	"FALSE"	"Windows 10"	"60.14"	"066"	n/a	n/a	n/a	n/a	n/a	n/a	"Trial"	n/a	n/a	n/a	"425"	"arrowleft"	n/a	"NULL"	"NULL"	"NULL"	"stimuli/VerticalHorizontal_-20.27143_0.22500.png"	n/a	"VerticalHorizontal"	"arrowleft"	"1024"	"TRUE"	"VerticalHorizontal"	"-20.27143000"	"0.2250000000"	"1"	"24"
n/a	"html-keyboard-response"	"65"	"257073"	"0.0-5.0-2.0-0.6"	"73hzod"	"600"	"1366"	"chrome"	"112.0.0"	"FALSE"	"Windows 10"	"60.14"	"066"	n/a	n/a	n/a	n/a	n/a	n/a	"fixation"	n/a	n/a	n/a	n/a	"NULL"	n/a	"NULL"	"NULL"	"NULL"	"<p style=\"color: black; font-size: 80px; padding-left: 16%; padding-right: 11%; padding-top: 38%; padding-bottom: 8%\">+</p>"	"1378"	n/a	n/a	n/a	n/a	n/a	n/a	n/a	n/a	n/a
n/a	"image-keyboard-response"	"66"	"257487"	"0.0-5.0-2.0-1.6"	"73hzod"	"600"	"1366"	"chrome"	"112.0.0"	"FALSE"	"Windows 10"	"60.14"	"066"	n/a	n/a	n/a	n/a	n/a	n/a	"Trial"	n/a	n/a	n/a	"413"	"arrowleft"	n/a	"NULL"	"NULL"	"NULL"	"stimuli/VerticalHorizontal_-28.75714_0.22500.png"	n/a	"VerticalHorizontal"	"arrowleft"	"1394"	"TRUE"	"VerticalHorizontal"	"-28.75714000"	"0.2250000000"	"1"	"25"
n/a	"html-keyboard-response"	"67"	"258502"	"0.0-5.0-2.0-0.7"	"73hzod"	"600"	"1366"	"chrome"	"112.0.0"	"FALSE"	"Windows 10"	"60.14"	"066"	n/a	n/a	n/a	n/a	n/a	n/a	"fixation"	n/a	n/a	n/a	n/a	"NULL"	n/a	"NULL"	"NULL"	"NULL"	"<p style=\"color: black; font-size: 80px; padding-left: 13%; padding-right: 3%; padding-top: 6%; padding-bottom: 0%\">+</p>"	"1008"	n/a	n/a	n/a	n/a	n/a	n/a	n/a	n/a	n/a
n/a	"image-keyboard-response"	"68"	"258922"	"0.0-5.0-2.0-1.7"	"73hzod"	"600"	"1366"	"chrome"	"112.0.0"	"FALSE"	"Windows 10"	"60.14"	"066"	n/a	n/a	n/a	n/a	n/a	n/a	"Trial"	n/a	n/a	n/a	"419"	"arrowright"	n/a	"NULL"	"NULL"	"NULL"	"stimuli/VerticalHorizontal_-20.27143_-0.0673.png"	n/a	"VerticalHorizontal"	"arrowright"	"1015"	"TRUE"	"VerticalHorizontal"	"-20.27143000"	"-0.067300000"	"1"	"26"
n/a	"html-keyboard-response"	"69"	"260316"	"0.0-5.0-2.0-0.8"	"73hzod"	"600"	"1366"	"chrome"	"112.0.0"	"FALSE"	"Windows 10"	"60.14"	"066"	n/a	n/a	n/a	n/a	n/a	n/a	"fixation"	n/a	n/a	n/a	n/a	"NULL"	n/a	"NULL"	"NULL"	"NULL"	"<p style=\"color: black; font-size: 80px; padding-left: 41%; padding-right: 43%; padding-top: 29%; padding-bottom: 5%\">+</p>"	"1388"	n/a	n/a	n/a	n/a	n/a	n/a	n/a	n/a	n/a
n/a	"image-keyboard-response"	"70"	"260968"	"0.0-5.0-2.0-1.8"	"73hzod"	"600"	"1366"	"chrome"	"112.0.0"	"FALSE"	"Windows 10"	"60.14"	"066"	n/a	n/a	n/a	n/a	n/a	n/a	"Trial"	n/a	n/a	n/a	"651"	"arrowright"	n/a	"NULL"	"NULL"	"NULL"	"stimuli/VerticalHorizontal_20.27143_-0.16217.png"	n/a	"VerticalHorizontal"	"arrowright"	"1394"	"TRUE"	"VerticalHorizontal"	"20.271430000"	"-0.162170000"	"1"	"27"
n/a	"html-keyboard-response"	"71"	"262263"	"0.0-5.0-2.0-0.9"	"73hzod"	"600"	"1366"	"chrome"	"112.0.0"	"FALSE"	"Windows 10"	"60.14"	"066"	n/a	n/a	n/a	n/a	n/a	n/a	"fixation"	n/a	n/a	n/a	n/a	"NULL"	n/a	"NULL"	"NULL"	"NULL"	"<p style=\"color: black; font-size: 80px; padding-left: 12%; padding-right: 25%; padding-top: 10%; padding-bottom: 38%\">+</p>"	"1290"	n/a	n/a	n/a	n/a	n/a	n/a	n/a	n/a	n/a
n/a	"image-keyboard-response"	"72"	"262727"	"0.0-5.0-2.0-1.9"	"73hzod"	"600"	"1366"	"chrome"	"112.0.0"	"FALSE"	"Windows 10"	"60.14"	"066"	n/a	n/a	n/a	n/a	n/a	n/a	"Trial"	n/a	n/a	n/a	"463"	"arrowright"	n/a	"NULL"	"NULL"	"NULL"	"stimuli/VerticalHorizontal_11.78571_-0.2250.png"	n/a	"VerticalHorizontal"	"arrowright"	"1295"	"TRUE"	"VerticalHorizontal"	"11.785710000"	"-0.225000000"	"1"	"28"
n/a	"html-keyboard-response"	"73"	"263805"	"0.0-5.0-2.0-0.10"	"73hzod"	"600"	"1366"	"chrome"	"112.0.0"	"FALSE"	"Windows 10"	"60.14"	"066"	n/a	n/a	n/a	n/a	n/a	n/a	"fixation"	n/a	n/a	n/a	n/a	"NULL"	n/a	"NULL"	"NULL"	"NULL"	"<p style=\"color: black; font-size: 80px; padding-left: 10%; padding-right: 27%; padding-top: 23%; padding-bottom: 13%\">+</p>"	"1066"	n/a	n/a	n/a	n/a	n/a	n/a	n/a	n/a	n/a
n/a	"image-keyboard-response"	"74"	"264334"	"0.0-5.0-2.0-1.10"	"73hzod"	"600"	"1366"	"chrome"	"112.0.0"	"FALSE"	"Windows 10"	"60.14"	"066"	n/a	n/a	n/a	n/a	n/a	n/a	"Trial"	n/a	n/a	n/a	"528"	"arrowleft"	n/a	"NULL"	"NULL"	"NULL"	"stimuli/VerticalHorizontal_28.75714_0.22500.png"	n/a	"VerticalHorizontal"	"arrowleft"	"1078"	"TRUE"	"VerticalHorizontal"	"28.757140000"	"0.2250000000"	"1"	"29"
n/a	"html-keyboard-response"	"75"	"265363"	"0.0-5.0-2.0-0.11"	"73hzod"	"600"	"1366"	"chrome"	"112.0.0"	"FALSE"	"Windows 10"	"60.14"	"066"	n/a	n/a	n/a	n/a	n/a	n/a	"fixation"	n/a	n/a	n/a	n/a	"NULL"	n/a	"NULL"	"NULL"	"NULL"	"<p style=\"color: black; font-size: 80px; padding-left: 12%; padding-right: 26%; padding-top: 43%; padding-bottom: 0%\">+</p>"	"1019"	n/a	n/a	n/a	n/a	n/a	n/a	n/a	n/a	n/a
n/a	"image-keyboard-response"	"76"	"265968"	"0.0-5.0-2.0-1.11"	"73hzod"	"600"	"1366"	"chrome"	"112.0.0"	"FALSE"	"Windows 10"	"60.14"	"066"	n/a	n/a	n/a	n/a	n/a	n/a	"Trial"	n/a	n/a	n/a	"604"	"arrowright"	n/a	"NULL"	"NULL"	"NULL"	"stimuli/VerticalHorizontal_-11.78571_-0.1096.png"	n/a	"VerticalHorizontal"	"arrowright"	"1029"	"TRUE"	"VerticalHorizontal"	"-11.78571000"	"-0.109600000"	"1"	"30"
n/a	"html-keyboard-response"	"77"	"267203"	"0.0-5.0-2.0-0.12"	"73hzod"	"600"	"1366"	"chrome"	"112.0.0"	"FALSE"	"Windows 10"	"60.14"	"066"	n/a	n/a	n/a	n/a	n/a	n/a	"fixation"	n/a	n/a	n/a	n/a	"NULL"	n/a	"NULL"	"NULL"	"NULL"	"<p style=\"color: black; font-size: 80px; padding-left: 41%; padding-right: 7%; padding-top: 19%; padding-bottom: 35%\">+</p>"	"1222"	n/a	n/a	n/a	n/a	n/a	n/a	n/a	n/a	n/a
n/a	"image-keyboard-response"	"78"	"267628"	"0.0-5.0-2.0-1.12"	"73hzod"	"600"	"1366"	"chrome"	"112.0.0"	"FALSE"	"Windows 10"	"60.14"	"066"	n/a	n/a	n/a	n/a	n/a	n/a	"Trial"	n/a	n/a	n/a	"424"	"arrowleft"	n/a	"NULL"	"NULL"	"NULL"	"stimuli/VerticalHorizontal_-28.75714_0.16217.png"	n/a	"VerticalHorizontal"	"arrowleft"	"1235"	"TRUE"	"VerticalHorizontal"	"-28.75714000"	"0.1621700000"	"1"	"31"
n/a	"html-keyboard-response"	"79"	"269113"	"0.0-5.0-2.0-0.13"	"73hzod"	"600"	"1366"	"chrome"	"112.0.0"	"FALSE"	"Windows 10"	"60.14"	"066"	n/a	n/a	n/a	n/a	n/a	n/a	"fixation"	n/a	n/a	n/a	n/a	"NULL"	n/a	"NULL"	"NULL"	"NULL"	"<p style=\"color: black; font-size: 80px; padding-left: 36%; padding-right: 22%; padding-top: 35%; padding-bottom: 2%\">+</p>"	"1482"	n/a	n/a	n/a	n/a	n/a	n/a	n/a	n/a	n/a
n/a	"image-keyboard-response"	"80"	"269619"	"0.0-5.0-2.0-1.13"	"73hzod"	"600"	"1366"	"chrome"	"112.0.0"	"FALSE"	"Windows 10"	"60.14"	"066"	n/a	n/a	n/a	n/a	n/a	n/a	"Trial"	n/a	n/a	n/a	"505"	"arrowleft"	n/a	"NULL"	"NULL"	"NULL"	"stimuli/VerticalHorizontal_-3.3000_0.22500.png"	n/a	"VerticalHorizontal"	"arrowleft"	"1485"	"TRUE"	"VerticalHorizontal"	"-3.300000000"	"0.2250000000"	"1"	"32"
n/a	"html-keyboard-response"	"81"	"270940"	"0.0-5.0-2.0-0.14"	"73hzod"	"600"	"1366"	"chrome"	"112.0.0"	"FALSE"	"Windows 10"	"60.14"	"066"	n/a	n/a	n/a	n/a	n/a	n/a	"fixation"	n/a	n/a	n/a	n/a	"NULL"	n/a	"NULL"	"NULL"	"NULL"	"<p style=\"color: black; font-size: 80px; padding-left: 34%; padding-right: 41%; padding-top: 20%; padding-bottom: 39%\">+</p>"	"1320"	n/a	n/a	n/a	n/a	n/a	n/a	n/a	n/a	n/a
n/a	"image-keyboard-response"	"82"	"271342"	"0.0-5.0-2.0-1.14"	"73hzod"	"600"	"1366"	"chrome"	"112.0.0"	"FALSE"	"Windows 10"	"60.14"	"066"	n/a	n/a	n/a	n/a	n/a	n/a	"Trial"	n/a	n/a	n/a	"402"	"arrowleft"	n/a	"NULL"	"NULL"	"NULL"	"stimuli/VerticalHorizontal_3.30000_0.16217.png"	n/a	"VerticalHorizontal"	"arrowleft"	"1321"	"TRUE"	"VerticalHorizontal"	"3.3000000000"	"0.1621700000"	"1"	"33"
n/a	"html-keyboard-response"	"83"	"272776"	"0.0-5.0-2.0-0.15"	"73hzod"	"600"	"1366"	"chrome"	"112.0.0"	"FALSE"	"Windows 10"	"60.14"	"066"	n/a	n/a	n/a	n/a	n/a	n/a	"fixation"	n/a	n/a	n/a	n/a	"NULL"	n/a	"NULL"	"NULL"	"NULL"	"<p style=\"color: black; font-size: 80px; padding-left: 0%; padding-right: 15%; padding-top: 44%; padding-bottom: 34%\">+</p>"	"1421"	n/a	n/a	n/a	n/a	n/a	n/a	n/a	n/a	n/a
n/a	"image-keyboard-response"	"84"	"273493"	"0.0-5.0-2.0-1.15"	"73hzod"	"600"	"1366"	"chrome"	"112.0.0"	"FALSE"	"Windows 10"	"60.14"	"066"	n/a	n/a	n/a	n/a	n/a	n/a	"Trial"	n/a	n/a	n/a	"716"	"arrowleft"	n/a	"NULL"	"NULL"	"NULL"	"stimuli/VerticalHorizontal_11.78571_0.10960.png"	n/a	"VerticalHorizontal"	"arrowleft"	"1434"	"TRUE"	"VerticalHorizontal"	"11.785710000"	"0.1096000000"	"1"	"34"
n/a	"html-keyboard-response"	"85"	"274519"	"0.0-5.0-2.0-0.16"	"73hzod"	"600"	"1366"	"chrome"	"112.0.0"	"FALSE"	"Windows 10"	"60.14"	"066"	n/a	n/a	n/a	n/a	n/a	n/a	"fixation"	n/a	n/a	n/a	n/a	"NULL"	n/a	"NULL"	"NULL"	"NULL"	"<p style=\"color: black; font-size: 80px; padding-left: 41%; padding-right: 19%; padding-top: 16%; padding-bottom: 27%\">+</p>"	"1022"	n/a	n/a	n/a	n/a	n/a	n/a	n/a	n/a	n/a
n/a	"image-keyboard-response"	"86"	"275140"	"0.0-5.0-2.0-1.16"	"73hzod"	"600"	"1366"	"chrome"	"112.0.0"	"FALSE"	"Windows 10"	"60.14"	"066"	n/a	n/a	n/a	n/a	n/a	n/a	"Trial"	n/a	n/a	n/a	"621"	"arrowright"	n/a	"NULL"	"NULL"	"NULL"	"stimuli/VerticalHorizontal_20.27143_-0.1096.png"	n/a	"VerticalHorizontal"	"arrowright"	"1026"	"TRUE"	"VerticalHorizontal"	"20.271430000"	"-0.109600000"	"1"	"35"
n/a	"html-keyboard-response"	"87"	"276242"	"0.0-5.0-2.0-0.17"	"73hzod"	"600"	"1366"	"chrome"	"112.0.0"	"FALSE"	"Windows 10"	"60.14"	"066"	n/a	n/a	n/a	n/a	n/a	n/a	"fixation"	n/a	n/a	n/a	n/a	"NULL"	n/a	"NULL"	"NULL"	"NULL"	"<p style=\"color: black; font-size: 80px; padding-left: 29%; padding-right: 47%; padding-top: 2%; padding-bottom: 34%\">+</p>"	"1091"	n/a	n/a	n/a	n/a	n/a	n/a	n/a	n/a	n/a
n/a	"image-keyboard-response"	"88"	"276728"	"0.0-5.0-2.0-1.17"	"73hzod"	"600"	"1366"	"chrome"	"112.0.0"	"FALSE"	"Windows 10"	"60.14"	"066"	n/a	n/a	n/a	n/a	n/a	n/a	"Trial"	n/a	n/a	n/a	"485"	"arrowleft"	n/a	"NULL"	"NULL"	"NULL"	"stimuli/VerticalHorizontal_3.30000_0.22500.png"	n/a	"VerticalHorizontal"	"arrowleft"	"1102"	"TRUE"	"VerticalHorizontal"	"3.3000000000"	"0.2250000000"	"1"	"36"
n/a	"html-keyboard-response"	"89"	"277971"	"0.0-5.0-2.0-0.18"	"73hzod"	"600"	"1366"	"chrome"	"112.0.0"	"FALSE"	"Windows 10"	"60.14"	"066"	n/a	n/a	n/a	n/a	n/a	n/a	"fixation"	n/a	n/a	n/a	n/a	"NULL"	n/a	"NULL"	"NULL"	"NULL"	"<p style=\"color: black; font-size: 80px; padding-left: 14%; padding-right: 39%; padding-top: 4%; padding-bottom: 20%\">+</p>"	"1237"	n/a	n/a	n/a	n/a	n/a	n/a	n/a	n/a	n/a
n/a	"image-keyboard-response"	"90"	"278547"	"0.0-5.0-2.0-1.18"	"73hzod"	"600"	"1366"	"chrome"	"112.0.0"	"FALSE"	"Windows 10"	"60.14"	"066"	n/a	n/a	n/a	n/a	n/a	n/a	"Trial"	n/a	n/a	n/a	"575"	"arrowright"	n/a	"NULL"	"NULL"	"NULL"	"stimuli/VerticalHorizontal_28.75714_-0.2250.png"	n/a	"VerticalHorizontal"	"arrowright"	"1243"	"TRUE"	"VerticalHorizontal"	"28.757140000"	"-0.225000000"	"1"	"37"
n/a	"html-keyboard-response"	"91"	"279909"	"0.0-5.0-2.0-0.19"	"73hzod"	"600"	"1366"	"chrome"	"112.0.0"	"FALSE"	"Windows 10"	"60.14"	"066"	n/a	n/a	n/a	n/a	n/a	n/a	"fixation"	n/a	n/a	n/a	n/a	"NULL"	n/a	"NULL"	"NULL"	"NULL"	"<p style=\"color: black; font-size: 80px; padding-left: 29%; padding-right: 37%; padding-top: 42%; padding-bottom: 16%\">+</p>"	"1355"	n/a	n/a	n/a	n/a	n/a	n/a	n/a	n/a	n/a
n/a	"image-keyboard-response"	"92"	"280308"	"0.0-5.0-2.0-1.19"	"73hzod"	"600"	"1366"	"chrome"	"112.0.0"	"FALSE"	"Windows 10"	"60.14"	"066"	n/a	n/a	n/a	n/a	n/a	n/a	"Trial"	n/a	n/a	n/a	"399"	"arrowleft"	n/a	"NULL"	"NULL"	"NULL"	"stimuli/VerticalHorizontal_-11.78571_0.16217.png"	n/a	"VerticalHorizontal"	"arrowleft"	"1362"	"TRUE"	"VerticalHorizontal"	"-11.78571000"	"0.1621700000"	"1"	"38"
n/a	"html-keyboard-response"	"93"	"281393"	"0.0-5.0-2.0-0.20"	"73hzod"	"600"	"1366"	"chrome"	"112.0.0"	"FALSE"	"Windows 10"	"60.14"	"066"	n/a	n/a	n/a	n/a	n/a	n/a	"fixation"	n/a	n/a	n/a	n/a	"NULL"	n/a	"NULL"	"NULL"	"NULL"	"<p style=\"color: black; font-size: 80px; padding-left: 44%; padding-right: 41%; padding-top: 21%; padding-bottom: 49%\">+</p>"	"1068"	n/a	n/a	n/a	n/a	n/a	n/a	n/a	n/a	n/a
n/a	"image-keyboard-response"	"94"	"281937"	"0.0-5.0-2.0-1.20"	"73hzod"	"600"	"1366"	"chrome"	"112.0.0"	"FALSE"	"Windows 10"	"60.14"	"066"	n/a	n/a	n/a	n/a	n/a	n/a	"Trial"	n/a	n/a	n/a	"544"	"arrowleft"	n/a	"NULL"	"NULL"	"NULL"	"stimuli/VerticalHorizontal_-3.3000_0.16217.png"	n/a	"VerticalHorizontal"	"arrowleft"	"1085"	"TRUE"	"VerticalHorizontal"	"-3.300000000"	"0.1621700000"	"1"	"39"
n/a	"html-keyboard-response"	"95"	"283288"	"0.0-5.0-2.0-0.21"	"73hzod"	"600"	"1366"	"chrome"	"112.0.0"	"FALSE"	"Windows 10"	"60.14"	"066"	n/a	n/a	n/a	n/a	n/a	n/a	"fixation"	n/a	n/a	n/a	n/a	"NULL"	n/a	"NULL"	"NULL"	"NULL"	"<p style=\"color: black; font-size: 80px; padding-left: 40%; padding-right: 5%; padding-top: 1%; padding-bottom: 28%\">+</p>"	"1341"	n/a	n/a	n/a	n/a	n/a	n/a	n/a	n/a	n/a
n/a	"image-keyboard-response"	"96"	"283677"	"0.0-5.0-2.0-1.21"	"73hzod"	"600"	"1366"	"chrome"	"112.0.0"	"FALSE"	"Windows 10"	"60.14"	"066"	n/a	n/a	n/a	n/a	n/a	n/a	"Trial"	n/a	n/a	n/a	"388"	"arrowleft"	n/a	"NULL"	"NULL"	"NULL"	"stimuli/VerticalHorizontal_28.75714_-0.1096.png"	n/a	"VerticalHorizontal"	"arrowright"	"1351"	"FALSE"	"VerticalHorizontal"	"28.757140000"	"-0.109600000"	"1"	"40"
n/a	"html-keyboard-response"	"97"	"285144"	"0.0-5.0-2.0-0.22"	"73hzod"	"600"	"1366"	"chrome"	"112.0.0"	"FALSE"	"Windows 10"	"60.14"	"066"	n/a	n/a	n/a	n/a	n/a	n/a	"fixation"	n/a	n/a	n/a	n/a	"NULL"	n/a	"NULL"	"NULL"	"NULL"	"<p style=\"color: black; font-size: 80px; padding-left: 41%; padding-right: 28%; padding-top: 38%; padding-bottom: 4%\">+</p>"	"1458"	n/a	n/a	n/a	n/a	n/a	n/a	n/a	n/a	n/a
n/a	"image-keyboard-response"	"98"	"285766"	"0.0-5.0-2.0-1.22"	"73hzod"	"600"	"1366"	"chrome"	"112.0.0"	"FALSE"	"Windows 10"	"60.14"	"066"	n/a	n/a	n/a	n/a	n/a	n/a	"Trial"	n/a	n/a	n/a	"621"	"arrowleft"	n/a	"NULL"	"NULL"	"NULL"	"stimuli/VerticalHorizontal_28.75714_0.10960.png"	n/a	"VerticalHorizontal"	"arrowleft"	"1467"	"TRUE"	"VerticalHorizontal"	"28.757140000"	"0.1096000000"	"1"	"41"
n/a	"html-keyboard-response"	"99"	"287001"	"0.0-5.0-2.0-0.23"	"73hzod"	"600"	"1366"	"chrome"	"112.0.0"	"FALSE"	"Windows 10"	"60.14"	"066"	n/a	n/a	n/a	n/a	n/a	n/a	"fixation"	n/a	n/a	n/a	n/a	"NULL"	n/a	"NULL"	"NULL"	"NULL"	"<p style=\"color: black; font-size: 80px; padding-left: 42%; padding-right: 19%; padding-top: 4%; padding-bottom: 49%\">+</p>"	"1223"	n/a	n/a	n/a	n/a	n/a	n/a	n/a	n/a	n/a
n/a	"image-keyboard-response"	"100"	"287460"	"0.0-5.0-2.0-1.23"	"73hzod"	"600"	"1366"	"chrome"	"112.0.0"	"FALSE"	"Windows 10"	"60.14"	"066"	n/a	n/a	n/a	n/a	n/a	n/a	"Trial"	n/a	n/a	n/a	"459"	"arrowright"	n/a	"NULL"	"NULL"	"NULL"	"stimuli/VerticalHorizontal_-11.78571_-0.2250.png"	n/a	"VerticalHorizontal"	"arrowright"	"1235"	"TRUE"	"VerticalHorizontal"	"-11.78571000"	"-0.225000000"	"1"	"42"
n/a	"html-keyboard-response"	"101"	"288893"	"0.0-5.0-2.0-0.24"	"73hzod"	"600"	"1366"	"chrome"	"112.0.0"	"FALSE"	"Windows 10"	"60.14"	"066"	n/a	n/a	n/a	n/a	n/a	n/a	"fixation"	n/a	n/a	n/a	n/a	"NULL"	n/a	"NULL"	"NULL"	"NULL"	"<p style=\"color: black; font-size: 80px; padding-left: 35%; padding-right: 6%; padding-top: 29%; padding-bottom: 18%\">+</p>"	"1417"	n/a	n/a	n/a	n/a	n/a	n/a	n/a	n/a	n/a
n/a	"image-keyboard-response"	"102"	"289314"	"0.0-5.0-2.0-1.24"	"73hzod"	"600"	"1366"	"chrome"	"112.0.0"	"FALSE"	"Windows 10"	"60.14"	"066"	n/a	n/a	n/a	n/a	n/a	n/a	"Trial"	n/a	n/a	n/a	"421"	"arrowleft"	n/a	"NULL"	"NULL"	"NULL"	"stimuli/VerticalHorizontal_-11.78571_0.06730.png"	n/a	"VerticalHorizontal"	"arrowleft"	"1433"	"TRUE"	"VerticalHorizontal"	"-11.78571000"	"0.0673000000"	"1"	"43"
n/a	"html-keyboard-response"	"103"	"290753"	"0.0-5.0-2.0-0.25"	"73hzod"	"600"	"1366"	"chrome"	"112.0.0"	"FALSE"	"Windows 10"	"60.14"	"066"	n/a	n/a	n/a	n/a	n/a	n/a	"fixation"	n/a	n/a	n/a	n/a	"NULL"	n/a	"NULL"	"NULL"	"NULL"	"<p style=\"color: black; font-size: 80px; padding-left: 19%; padding-right: 40%; padding-top: 31%; padding-bottom: 38%\">+</p>"	"1438"	n/a	n/a	n/a	n/a	n/a	n/a	n/a	n/a	n/a
n/a	"image-keyboard-response"	"104"	"291203"	"0.0-5.0-2.0-1.25"	"73hzod"	"600"	"1366"	"chrome"	"112.0.0"	"FALSE"	"Windows 10"	"60.14"	"066"	n/a	n/a	n/a	n/a	n/a	n/a	"Trial"	n/a	n/a	n/a	"449"	"arrowleft"	n/a	"NULL"	"NULL"	"NULL"	"stimuli/VerticalHorizontal_-28.75714_0.10960.png"	n/a	"VerticalHorizontal"	"arrowleft"	"1439"	"TRUE"	"VerticalHorizontal"	"-28.75714000"	"0.1096000000"	"1"	"44"
n/a	"html-keyboard-response"	"105"	"292257"	"0.0-5.0-2.0-0.26"	"73hzod"	"600"	"1366"	"chrome"	"112.0.0"	"FALSE"	"Windows 10"	"60.14"	"066"	n/a	n/a	n/a	n/a	n/a	n/a	"fixation"	n/a	n/a	n/a	n/a	"NULL"	n/a	"NULL"	"NULL"	"NULL"	"<p style=\"color: black; font-size: 80px; padding-left: 7%; padding-right: 36%; padding-top: 48%; padding-bottom: 15%\">+</p>"	"1052"	n/a	n/a	n/a	n/a	n/a	n/a	n/a	n/a	n/a
n/a	"image-keyboard-response"	"106"	"292620"	"0.0-5.0-2.0-1.26"	"73hzod"	"600"	"1366"	"chrome"	"112.0.0"	"FALSE"	"Windows 10"	"60.14"	"066"	n/a	n/a	n/a	n/a	n/a	n/a	"Trial"	n/a	n/a	n/a	"362"	"arrowleft"	n/a	"NULL"	"NULL"	"NULL"	"stimuli/VerticalHorizontal_-20.27143_0.10960.png"	n/a	"VerticalHorizontal"	"arrowleft"	"1054"	"TRUE"	"VerticalHorizontal"	"-20.27143000"	"0.1096000000"	"1"	"45"
n/a	"html-keyboard-response"	"107"	"294078"	"0.0-5.0-2.0-0.27"	"73hzod"	"600"	"1366"	"chrome"	"112.0.0"	"FALSE"	"Windows 10"	"60.14"	"066"	n/a	n/a	n/a	n/a	n/a	n/a	"fixation"	n/a	n/a	n/a	n/a	"NULL"	n/a	"NULL"	"NULL"	"NULL"	"<p style=\"color: black; font-size: 80px; padding-left: 44%; padding-right: 37%; padding-top: 38%; padding-bottom: 15%\">+</p>"	"1455"	n/a	n/a	n/a	n/a	n/a	n/a	n/a	n/a	n/a
n/a	"image-keyboard-response"	"108"	"294766"	"0.0-5.0-2.0-1.27"	"73hzod"	"600"	"1366"	"chrome"	"112.0.0"	"FALSE"	"Windows 10"	"60.14"	"066"	n/a	n/a	n/a	n/a	n/a	n/a	"Trial"	n/a	n/a	n/a	"687"	"arrowleft"	n/a	"NULL"	"NULL"	"NULL"	"stimuli/VerticalHorizontal_-3.3000_0.06730.png"	n/a	"VerticalHorizontal"	"arrowleft"	"1458"	"TRUE"	"VerticalHorizontal"	"-3.300000000"	"0.0673000000"	"1"	"46"
n/a	"html-keyboard-response"	"109"	"296248"	"0.0-5.0-2.0-0.28"	"73hzod"	"600"	"1366"	"chrome"	"112.0.0"	"FALSE"	"Windows 10"	"60.14"	"066"	n/a	n/a	n/a	n/a	n/a	n/a	"fixation"	n/a	n/a	n/a	n/a	"NULL"	n/a	"NULL"	"NULL"	"NULL"	"<p style=\"color: black; font-size: 80px; padding-left: 33%; padding-right: 12%; padding-top: 11%; padding-bottom: 35%\">+</p>"	"1467"	n/a	n/a	n/a	n/a	n/a	n/a	n/a	n/a	n/a
n/a	"image-keyboard-response"	"110"	"296638"	"0.0-5.0-2.0-1.28"	"73hzod"	"600"	"1366"	"chrome"	"112.0.0"	"FALSE"	"Windows 10"	"60.14"	"066"	n/a	n/a	n/a	n/a	n/a	n/a	"Trial"	n/a	n/a	n/a	"389"	"arrowleft"	n/a	"NULL"	"NULL"	"NULL"	"stimuli/VerticalHorizontal_-20.27143_0.06730.png"	n/a	"VerticalHorizontal"	"arrowleft"	"1482"	"TRUE"	"VerticalHorizontal"	"-20.27143000"	"0.0673000000"	"1"	"47"
n/a	"html-keyboard-response"	"111"	"298081"	"0.0-5.0-2.0-0.29"	"73hzod"	"600"	"1366"	"chrome"	"112.0.0"	"FALSE"	"Windows 10"	"60.14"	"066"	n/a	n/a	n/a	n/a	n/a	n/a	"fixation"	n/a	n/a	n/a	n/a	"NULL"	n/a	"NULL"	"NULL"	"NULL"	"<p style=\"color: black; font-size: 80px; padding-left: 17%; padding-right: 13%; padding-top: 18%; padding-bottom: 27%\">+</p>"	"1435"	n/a	n/a	n/a	n/a	n/a	n/a	n/a	n/a	n/a
n/a	"image-keyboard-response"	"112"	"298553"	"0.0-5.0-2.0-1.29"	"73hzod"	"600"	"1366"	"chrome"	"112.0.0"	"FALSE"	"Windows 10"	"60.14"	"066"	n/a	n/a	n/a	n/a	n/a	n/a	"Trial"	n/a	n/a	n/a	"472"	"arrowright"	n/a	"NULL"	"NULL"	"NULL"	"stimuli/VerticalHorizontal_-28.75714_-0.2250.png"	n/a	"VerticalHorizontal"	"arrowright"	"1443"	"TRUE"	"VerticalHorizontal"	"-28.75714000"	"-0.225000000"	"1"	"48"
n/a	"html-keyboard-response"	"113"	"299824"	"0.0-5.0-2.0-0.30"	"73hzod"	"600"	"1366"	"chrome"	"112.0.0"	"FALSE"	"Windows 10"	"60.14"	"066"	n/a	n/a	n/a	n/a	n/a	n/a	"fixation"	n/a	n/a	n/a	n/a	"NULL"	n/a	"NULL"	"NULL"	"NULL"	"<p style=\"color: black; font-size: 80px; padding-left: 37%; padding-right: 9%; padding-top: 16%; padding-bottom: 8%\">+</p>"	"1268"	n/a	n/a	n/a	n/a	n/a	n/a	n/a	n/a	n/a
n/a	"image-keyboard-response"	"114"	"300532"	"0.0-5.0-2.0-1.30"	"73hzod"	"600"	"1366"	"chrome"	"112.0.0"	"FALSE"	"Windows 10"	"60.14"	"066"	n/a	n/a	n/a	n/a	n/a	n/a	"Trial"	n/a	n/a	n/a	"707"	"arrowright"	n/a	"NULL"	"NULL"	"NULL"	"stimuli/VerticalHorizontal_20.27143_-0.0673.png"	n/a	"VerticalHorizontal"	"arrowright"	"1271"	"TRUE"	"VerticalHorizontal"	"20.271430000"	"-0.067300000"	"1"	"49"
n/a	"html-keyboard-response"	"115"	"301633"	"0.0-5.0-2.0-0.31"	"73hzod"	"600"	"1366"	"chrome"	"112.0.0"	"FALSE"	"Windows 10"	"60.14"	"066"	n/a	n/a	n/a	n/a	n/a	n/a	"fixation"	n/a	n/a	n/a	n/a	"NULL"	n/a	"NULL"	"NULL"	"NULL"	"<p style=\"color: black; font-size: 80px; padding-left: 29%; padding-right: 36%; padding-top: 1%; padding-bottom: 19%\">+</p>"	"1089"	n/a	n/a	n/a	n/a	n/a	n/a	n/a	n/a	n/a
n/a	"image-keyboard-response"	"116"	"302204"	"0.0-5.0-2.0-1.31"	"73hzod"	"600"	"1366"	"chrome"	"112.0.0"	"FALSE"	"Windows 10"	"60.14"	"066"	n/a	n/a	n/a	n/a	n/a	n/a	"Trial"	n/a	n/a	n/a	"570"	"arrowright"	n/a	"NULL"	"NULL"	"NULL"	"stimuli/VerticalHorizontal_-20.27143_-0.16217.png"	n/a	"VerticalHorizontal"	"arrowright"	"1101"	"TRUE"	"VerticalHorizontal"	"-20.27143000"	"-0.162170000"	"1"	"50"
n/a	"html-keyboard-response"	"117"	"303344"	"0.0-5.0-2.0-0.32"	"73hzod"	"600"	"1366"	"chrome"	"112.0.0"	"FALSE"	"Windows 10"	"60.14"	"066"	n/a	n/a	n/a	n/a	n/a	n/a	"fixation"	n/a	n/a	n/a	n/a	"NULL"	n/a	"NULL"	"NULL"	"NULL"	"<p style=\"color: black; font-size: 80px; padding-left: 16%; padding-right: 42%; padding-top: 31%; padding-bottom: 2%\">+</p>"	"1126"	n/a	n/a	n/a	n/a	n/a	n/a	n/a	n/a	n/a
n/a	"image-keyboard-response"	"118"	"303827"	"0.0-5.0-2.0-1.32"	"73hzod"	"600"	"1366"	"chrome"	"112.0.0"	"FALSE"	"Windows 10"	"60.14"	"066"	n/a	n/a	n/a	n/a	n/a	n/a	"Trial"	n/a	n/a	n/a	"482"	"arrowleft"	n/a	"NULL"	"NULL"	"NULL"	"stimuli/VerticalHorizontal_-11.78571_0.10960.png"	n/a	"VerticalHorizontal"	"arrowleft"	"1140"	"TRUE"	"VerticalHorizontal"	"-11.78571000"	"0.1096000000"	"1"	"51"
n/a	"html-keyboard-response"	"119"	"305155"	"0.0-5.0-2.0-0.33"	"73hzod"	"600"	"1366"	"chrome"	"112.0.0"	"FALSE"	"Windows 10"	"60.14"	"066"	n/a	n/a	n/a	n/a	n/a	n/a	"fixation"	n/a	n/a	n/a	n/a	"NULL"	n/a	"NULL"	"NULL"	"NULL"	"<p style=\"color: black; font-size: 80px; padding-left: 30%; padding-right: 21%; padding-top: 12%; padding-bottom: 14%\">+</p>"	"1316"	n/a	n/a	n/a	n/a	n/a	n/a	n/a	n/a	n/a
n/a	"image-keyboard-response"	"120"	"305724"	"0.0-5.0-2.0-1.33"	"73hzod"	"600"	"1366"	"chrome"	"112.0.0"	"FALSE"	"Windows 10"	"60.14"	"066"	n/a	n/a	n/a	n/a	n/a	n/a	"Trial"	n/a	n/a	n/a	"568"	"arrowleft"	n/a	"NULL"	"NULL"	"NULL"	"stimuli/VerticalHorizontal_11.78571_0.16217.png"	n/a	"VerticalHorizontal"	"arrowleft"	"1328"	"TRUE"	"VerticalHorizontal"	"11.785710000"	"0.1621700000"	"1"	"52"
n/a	"html-keyboard-response"	"121"	"306836"	"0.0-5.0-2.0-0.34"	"73hzod"	"600"	"1366"	"chrome"	"112.0.0"	"FALSE"	"Windows 10"	"60.14"	"066"	n/a	n/a	n/a	n/a	n/a	n/a	"fixation"	n/a	n/a	n/a	n/a	"NULL"	n/a	"NULL"	"NULL"	"NULL"	"<p style=\"color: black; font-size: 80px; padding-left: 41%; padding-right: 17%; padding-top: 49%; padding-bottom: 24%\">+</p>"	"1102"	n/a	n/a	n/a	n/a	n/a	n/a	n/a	n/a	n/a
n/a	"image-keyboard-response"	"122"	"307397"	"0.0-5.0-2.0-1.34"	"73hzod"	"600"	"1366"	"chrome"	"112.0.0"	"FALSE"	"Windows 10"	"60.14"	"066"	n/a	n/a	n/a	n/a	n/a	n/a	"Trial"	n/a	n/a	n/a	"560"	"arrowleft"	n/a	"NULL"	"NULL"	"NULL"	"stimuli/VerticalHorizontal_20.27143_0.06730.png"	n/a	"VerticalHorizontal"	"arrowleft"	"1112"	"TRUE"	"VerticalHorizontal"	"20.271430000"	"0.0673000000"	"1"	"53"
n/a	"html-keyboard-response"	"123"	"308751"	"0.0-5.0-2.0-0.35"	"73hzod"	"600"	"1366"	"chrome"	"112.0.0"	"FALSE"	"Windows 10"	"60.14"	"066"	n/a	n/a	n/a	n/a	n/a	n/a	"fixation"	n/a	n/a	n/a	n/a	"NULL"	n/a	"NULL"	"NULL"	"NULL"	"<p style=\"color: black; font-size: 80px; padding-left: 28%; padding-right: 25%; padding-top: 10%; padding-bottom: 9%\">+</p>"	"1348"	n/a	n/a	n/a	n/a	n/a	n/a	n/a	n/a	n/a
n/a	"image-keyboard-response"	"124"	"309434"	"0.0-5.0-2.0-1.35"	"73hzod"	"600"	"1366"	"chrome"	"112.0.0"	"FALSE"	"Windows 10"	"60.14"	"066"	n/a	n/a	n/a	n/a	n/a	n/a	"Trial"	n/a	n/a	n/a	"682"	"arrowright"	n/a	"NULL"	"NULL"	"NULL"	"stimuli/VerticalHorizontal_-3.3000_-0.1096.png"	n/a	"VerticalHorizontal"	"arrowright"	"1354"	"TRUE"	"VerticalHorizontal"	"-3.300000000"	"-0.109600000"	"1"	"54"
n/a	"html-keyboard-response"	"125"	"310614"	"0.0-5.0-2.0-0.36"	"73hzod"	"600"	"1366"	"chrome"	"112.0.0"	"FALSE"	"Windows 10"	"60.14"	"066"	n/a	n/a	n/a	n/a	n/a	n/a	"fixation"	n/a	n/a	n/a	n/a	"NULL"	n/a	"NULL"	"NULL"	"NULL"	"<p style=\"color: black; font-size: 80px; padding-left: 45%; padding-right: 25%; padding-top: 2%; padding-bottom: 13%\">+</p>"	"1165"	n/a	n/a	n/a	n/a	n/a	n/a	n/a	n/a	n/a
n/a	"image-keyboard-response"	"126"	"311143"	"0.0-5.0-2.0-1.36"	"73hzod"	"600"	"1366"	"chrome"	"112.0.0"	"FALSE"	"Windows 10"	"60.14"	"066"	n/a	n/a	n/a	n/a	n/a	n/a	"Trial"	n/a	n/a	n/a	"528"	"arrowright"	n/a	"NULL"	"NULL"	"NULL"	"stimuli/VerticalHorizontal_3.30000_-0.1096.png"	n/a	"VerticalHorizontal"	"arrowright"	"1180"	"TRUE"	"VerticalHorizontal"	"3.3000000000"	"-0.109600000"	"1"	"55"
n/a	"html-keyboard-response"	"127"	"312222"	"0.0-5.0-2.0-0.37"	"73hzod"	"600"	"1366"	"chrome"	"112.0.0"	"FALSE"	"Windows 10"	"60.14"	"066"	n/a	n/a	n/a	n/a	n/a	n/a	"fixation"	n/a	n/a	n/a	n/a	"NULL"	n/a	"NULL"	"NULL"	"NULL"	"<p style=\"color: black; font-size: 80px; padding-left: 35%; padding-right: 49%; padding-top: 22%; padding-bottom: 1%\">+</p>"	"1070"	n/a	n/a	n/a	n/a	n/a	n/a	n/a	n/a	n/a
n/a	"image-keyboard-response"	"128"	"312650"	"0.0-5.0-2.0-1.37"	"73hzod"	"600"	"1366"	"chrome"	"112.0.0"	"FALSE"	"Windows 10"	"60.14"	"066"	n/a	n/a	n/a	n/a	n/a	n/a	"Trial"	n/a	n/a	n/a	"427"	"arrowright"	n/a	"NULL"	"NULL"	"NULL"	"stimuli/VerticalHorizontal_-3.3000_-0.2250.png"	n/a	"VerticalHorizontal"	"arrowright"	"1079"	"TRUE"	"VerticalHorizontal"	"-3.300000000"	"-0.225000000"	"1"	"56"
n/a	"html-keyboard-response"	"129"	"313876"	"0.0-5.0-2.0-0.38"	"73hzod"	"600"	"1366"	"chrome"	"112.0.0"	"FALSE"	"Windows 10"	"60.14"	"066"	n/a	n/a	n/a	n/a	n/a	n/a	"fixation"	n/a	n/a	n/a	n/a	"NULL"	n/a	"NULL"	"NULL"	"NULL"	"<p style=\"color: black; font-size: 80px; padding-left: 19%; padding-right: 2%; padding-top: 33%; padding-bottom: 36%\">+</p>"	"1215"	n/a	n/a	n/a	n/a	n/a	n/a	n/a	n/a	n/a
n/a	"image-keyboard-response"	"130"	"314409"	"0.0-5.0-2.0-1.38"	"73hzod"	"600"	"1366"	"chrome"	"112.0.0"	"FALSE"	"Windows 10"	"60.14"	"066"	n/a	n/a	n/a	n/a	n/a	n/a	"Trial"	n/a	n/a	n/a	"532"	"arrowleft"	n/a	"NULL"	"NULL"	"NULL"	"stimuli/VerticalHorizontal_-11.78571_0.22500.png"	n/a	"VerticalHorizontal"	"arrowleft"	"1226"	"TRUE"	"VerticalHorizontal"	"-11.78571000"	"0.2250000000"	"1"	"57"
n/a	"html-keyboard-response"	"131"	"315705"	"0.0-5.0-2.0-0.39"	"73hzod"	"600"	"1366"	"chrome"	"112.0.0"	"FALSE"	"Windows 10"	"60.14"	"066"	n/a	n/a	n/a	n/a	n/a	n/a	"fixation"	n/a	n/a	n/a	n/a	"NULL"	n/a	"NULL"	"NULL"	"NULL"	"<p style=\"color: black; font-size: 80px; padding-left: 11%; padding-right: 12%; padding-top: 33%; padding-bottom: 49%\">+</p>"	"1282"	n/a	n/a	n/a	n/a	n/a	n/a	n/a	n/a	n/a
n/a	"image-keyboard-response"	"132"	"316379"	"0.0-5.0-2.0-1.39"	"73hzod"	"600"	"1366"	"chrome"	"112.0.0"	"FALSE"	"Windows 10"	"60.14"	"066"	n/a	n/a	n/a	n/a	n/a	n/a	"Trial"	n/a	n/a	n/a	"673"	"arrowleft"	n/a	"NULL"	"NULL"	"NULL"	"stimuli/VerticalHorizontal_28.75714_0.06730.png"	n/a	"VerticalHorizontal"	"arrowleft"	"1296"	"TRUE"	"VerticalHorizontal"	"28.757140000"	"0.0673000000"	"1"	"58"
n/a	"html-keyboard-response"	"133"	"317733"	"0.0-5.0-2.0-0.40"	"73hzod"	"600"	"1366"	"chrome"	"112.0.0"	"FALSE"	"Windows 10"	"60.14"	"066"	n/a	n/a	n/a	n/a	n/a	n/a	"fixation"	n/a	n/a	n/a	n/a	"NULL"	n/a	"NULL"	"NULL"	"NULL"	"<p style=\"color: black; font-size: 80px; padding-left: 37%; padding-right: 8%; padding-top: 4%; padding-bottom: 40%\">+</p>"	"1343"	n/a	n/a	n/a	n/a	n/a	n/a	n/a	n/a	n/a
n/a	"image-keyboard-response"	"134"	"318196"	"0.0-5.0-2.0-1.40"	"73hzod"	"600"	"1366"	"chrome"	"112.0.0"	"FALSE"	"Windows 10"	"60.14"	"066"	n/a	n/a	n/a	n/a	n/a	n/a	"Trial"	n/a	n/a	n/a	"462"	"arrowleft"	n/a	"NULL"	"NULL"	"NULL"	"stimuli/VerticalHorizontal_3.30000_0.10960.png"	n/a	"VerticalHorizontal"	"arrowleft"	"1354"	"TRUE"	"VerticalHorizontal"	"3.3000000000"	"0.1096000000"	"1"	"59"
n/a	"html-keyboard-response"	"135"	"319234"	"0.0-5.0-2.0-0.41"	"73hzod"	"600"	"1366"	"chrome"	"112.0.0"	"FALSE"	"Windows 10"	"60.14"	"066"	n/a	n/a	n/a	n/a	n/a	n/a	"fixation"	n/a	n/a	n/a	n/a	"NULL"	n/a	"NULL"	"NULL"	"NULL"	"<p style=\"color: black; font-size: 80px; padding-left: 14%; padding-right: 39%; padding-top: 49%; padding-bottom: 43%\">+</p>"	"1034"	n/a	n/a	n/a	n/a	n/a	n/a	n/a	n/a	n/a
n/a	"image-keyboard-response"	"136"	"319651"	"0.0-5.0-2.0-1.41"	"73hzod"	"600"	"1366"	"chrome"	"112.0.0"	"FALSE"	"Windows 10"	"60.14"	"066"	n/a	n/a	n/a	n/a	n/a	n/a	"Trial"	n/a	n/a	n/a	"416"	"arrowleft"	n/a	"NULL"	"NULL"	"NULL"	"stimuli/VerticalHorizontal_-20.27143_0.16217.png"	n/a	"VerticalHorizontal"	"arrowleft"	"1038"	"TRUE"	"VerticalHorizontal"	"-20.27143000"	"0.1621700000"	"1"	"60"
n/a	"html-keyboard-response"	"137"	"321126"	"0.0-5.0-2.0-0.42"	"73hzod"	"600"	"1366"	"chrome"	"112.0.0"	"FALSE"	"Windows 10"	"60.14"	"066"	n/a	n/a	n/a	n/a	n/a	n/a	"fixation"	n/a	n/a	n/a	n/a	"NULL"	n/a	"NULL"	"NULL"	"NULL"	"<p style=\"color: black; font-size: 80px; padding-left: 28%; padding-right: 43%; padding-top: 21%; padding-bottom: 40%\">+</p>"	"1469"	n/a	n/a	n/a	n/a	n/a	n/a	n/a	n/a	n/a
n/a	"image-keyboard-response"	"138"	"321853"	"0.0-5.0-2.0-1.42"	"73hzod"	"600"	"1366"	"chrome"	"112.0.0"	"FALSE"	"Windows 10"	"60.14"	"066"	n/a	n/a	n/a	n/a	n/a	n/a	"Trial"	n/a	n/a	n/a	"727"	"arrowleft"	n/a	"NULL"	"NULL"	"NULL"	"stimuli/VerticalHorizontal_28.75714_0.16217.png"	n/a	"VerticalHorizontal"	"arrowleft"	"1475"	"TRUE"	"VerticalHorizontal"	"28.757140000"	"0.1621700000"	"1"	"61"
n/a	"html-keyboard-response"	"139"	"322909"	"0.0-5.0-2.0-0.43"	"73hzod"	"600"	"1366"	"chrome"	"112.0.0"	"FALSE"	"Windows 10"	"60.14"	"066"	n/a	n/a	n/a	n/a	n/a	n/a	"fixation"	n/a	n/a	n/a	n/a	"NULL"	n/a	"NULL"	"NULL"	"NULL"	"<p style=\"color: black; font-size: 80px; padding-left: 27%; padding-right: 29%; padding-top: 36%; padding-bottom: 35%\">+</p>"	"1054"	n/a	n/a	n/a	n/a	n/a	n/a	n/a	n/a	n/a
n/a	"image-keyboard-response"	"140"	"323719"	"0.0-5.0-2.0-1.43"	"73hzod"	"600"	"1366"	"chrome"	"112.0.0"	"FALSE"	"Windows 10"	"60.14"	"066"	n/a	n/a	n/a	n/a	n/a	n/a	"Trial"	n/a	n/a	n/a	"808"	"arrowleft"	n/a	"NULL"	"NULL"	"NULL"	"stimuli/VerticalHorizontal_28.75714_-0.0673.png"	n/a	"VerticalHorizontal"	"arrowright"	"1056"	"FALSE"	"VerticalHorizontal"	"28.757140000"	"-0.067300000"	"1"	"62"
n/a	"html-keyboard-response"	"141"	"325019"	"0.0-5.0-2.0-0.44"	"73hzod"	"600"	"1366"	"chrome"	"112.0.0"	"FALSE"	"Windows 10"	"60.14"	"066"	n/a	n/a	n/a	n/a	n/a	n/a	"fixation"	n/a	n/a	n/a	n/a	"NULL"	n/a	"NULL"	"NULL"	"NULL"	"<p style=\"color: black; font-size: 80px; padding-left: 3%; padding-right: 14%; padding-top: 20%; padding-bottom: 18%\">+</p>"	"1295"	n/a	n/a	n/a	n/a	n/a	n/a	n/a	n/a	n/a
n/a	"image-keyboard-response"	"142"	"325684"	"0.0-5.0-2.0-1.44"	"73hzod"	"600"	"1366"	"chrome"	"112.0.0"	"FALSE"	"Windows 10"	"60.14"	"066"	n/a	n/a	n/a	n/a	n/a	n/a	"Trial"	n/a	n/a	n/a	"664"	"arrowright"	n/a	"NULL"	"NULL"	"NULL"	"stimuli/VerticalHorizontal_11.78571_-0.0673.png"	n/a	"VerticalHorizontal"	"arrowright"	"1300"	"TRUE"	"VerticalHorizontal"	"11.785710000"	"-0.067300000"	"1"	"63"
n/a	"html-keyboard-response"	"143"	"326899"	"0.0-5.0-2.0-0.45"	"73hzod"	"600"	"1366"	"chrome"	"112.0.0"	"FALSE"	"Windows 10"	"60.14"	"066"	n/a	n/a	n/a	n/a	n/a	n/a	"fixation"	n/a	n/a	n/a	n/a	"NULL"	n/a	"NULL"	"NULL"	"NULL"	"<p style=\"color: black; font-size: 80px; padding-left: 20%; padding-right: 27%; padding-top: 17%; padding-bottom: 13%\">+</p>"	"1204"	n/a	n/a	n/a	n/a	n/a	n/a	n/a	n/a	n/a
n/a	"image-keyboard-response"	"144"	"327357"	"0.0-5.0-2.0-1.45"	"73hzod"	"600"	"1366"	"chrome"	"112.0.0"	"FALSE"	"Windows 10"	"60.14"	"066"	n/a	n/a	n/a	n/a	n/a	n/a	"Trial"	n/a	n/a	n/a	"457"	"arrowright"	n/a	"NULL"	"NULL"	"NULL"	"stimuli/VerticalHorizontal_-20.27143_-0.2250.png"	n/a	"VerticalHorizontal"	"arrowright"	"1215"	"TRUE"	"VerticalHorizontal"	"-20.27143000"	"-0.225000000"	"1"	"64"
n/a	"html-keyboard-response"	"145"	"328861"	"0.0-5.0-2.0-0.46"	"73hzod"	"600"	"1366"	"chrome"	"112.0.0"	"FALSE"	"Windows 10"	"60.14"	"066"	n/a	n/a	n/a	n/a	n/a	n/a	"fixation"	n/a	n/a	n/a	n/a	"NULL"	n/a	"NULL"	"NULL"	"NULL"	"<p style=\"color: black; font-size: 80px; padding-left: 46%; padding-right: 35%; padding-top: 49%; padding-bottom: 27%\">+</p>"	"1498"	n/a	n/a	n/a	n/a	n/a	n/a	n/a	n/a	n/a
n/a	"image-keyboard-response"	"146"	"329437"	"0.0-5.0-2.0-1.46"	"73hzod"	"600"	"1366"	"chrome"	"112.0.0"	"FALSE"	"Windows 10"	"60.14"	"066"	n/a	n/a	n/a	n/a	n/a	n/a	"Trial"	n/a	n/a	n/a	"575"	"arrowleft"	n/a	"NULL"	"NULL"	"NULL"	"stimuli/VerticalHorizontal_3.30000_0.06730.png"	n/a	"VerticalHorizontal"	"arrowleft"	"1504"	"TRUE"	"VerticalHorizontal"	"3.3000000000"	"0.0673000000"	"1"	"65"
n/a	"html-keyboard-response"	"147"	"330598"	"0.0-5.0-2.0-0.47"	"73hzod"	"600"	"1366"	"chrome"	"112.0.0"	"FALSE"	"Windows 10"	"60.14"	"066"	n/a	n/a	n/a	n/a	n/a	n/a	"fixation"	n/a	n/a	n/a	n/a	"NULL"	n/a	"NULL"	"NULL"	"NULL"	"<p style=\"color: black; font-size: 80px; padding-left: 15%; padding-right: 4%; padding-top: 37%; padding-bottom: 43%\">+</p>"	"1153"	n/a	n/a	n/a	n/a	n/a	n/a	n/a	n/a	n/a
n/a	"image-keyboard-response"	"148"	"331211"	"0.0-5.0-2.0-1.47"	"73hzod"	"600"	"1366"	"chrome"	"112.0.0"	"FALSE"	"Windows 10"	"60.14"	"066"	n/a	n/a	n/a	n/a	n/a	n/a	"Trial"	n/a	n/a	n/a	"612"	"arrowleft"	n/a	"NULL"	"NULL"	"NULL"	"stimuli/VerticalHorizontal_20.27143_0.16217.png"	n/a	"VerticalHorizontal"	"arrowleft"	"1161"	"TRUE"	"VerticalHorizontal"	"20.271430000"	"0.1621700000"	"1"	"66"
n/a	"html-keyboard-response"	"149"	"332330"	"0.0-5.0-2.0-0.48"	"73hzod"	"600"	"1366"	"chrome"	"112.0.0"	"FALSE"	"Windows 10"	"60.14"	"066"	n/a	n/a	n/a	n/a	n/a	n/a	"fixation"	n/a	n/a	n/a	n/a	"NULL"	n/a	"NULL"	"NULL"	"NULL"	"<p style=\"color: black; font-size: 80px; padding-left: 12%; padding-right: 36%; padding-top: 40%; padding-bottom: 38%\">+</p>"	"1112"	n/a	n/a	n/a	n/a	n/a	n/a	n/a	n/a	n/a
n/a	"image-keyboard-response"	"150"	"332808"	"0.0-5.0-2.0-1.48"	"73hzod"	"600"	"1366"	"chrome"	"112.0.0"	"FALSE"	"Windows 10"	"60.14"	"066"	n/a	n/a	n/a	n/a	n/a	n/a	"Trial"	n/a	n/a	n/a	"477"	"arrowright"	n/a	"NULL"	"NULL"	"NULL"	"stimuli/VerticalHorizontal_-20.27143_-0.1096.png"	n/a	"VerticalHorizontal"	"arrowright"	"1119"	"TRUE"	"VerticalHorizontal"	"-20.27143000"	"-0.109600000"	"1"	"67"
n/a	"html-keyboard-response"	"151"	"333928"	"0.0-5.0-2.0-0.49"	"73hzod"	"600"	"1366"	"chrome"	"112.0.0"	"FALSE"	"Windows 10"	"60.14"	"066"	n/a	n/a	n/a	n/a	n/a	n/a	"fixation"	n/a	n/a	n/a	n/a	"NULL"	n/a	"NULL"	"NULL"	"NULL"	"<p style=\"color: black; font-size: 80px; padding-left: 7%; padding-right: 2%; padding-top: 11%; padding-bottom: 42%\">+</p>"	"1114"	n/a	n/a	n/a	n/a	n/a	n/a	n/a	n/a	n/a
n/a	"image-keyboard-response"	"152"	"334414"	"0.0-5.0-2.0-1.49"	"73hzod"	"600"	"1366"	"chrome"	"112.0.0"	"FALSE"	"Windows 10"	"60.14"	"066"	n/a	n/a	n/a	n/a	n/a	n/a	"Trial"	n/a	n/a	n/a	"485"	"arrowleft"	n/a	"NULL"	"NULL"	"NULL"	"stimuli/VerticalHorizontal_20.27143_0.10960.png"	n/a	"VerticalHorizontal"	"arrowleft"	"1120"	"TRUE"	"VerticalHorizontal"	"20.271430000"	"0.1096000000"	"1"	"68"
n/a	"html-keyboard-response"	"153"	"335682"	"0.0-5.0-2.0-0.50"	"73hzod"	"600"	"1366"	"chrome"	"112.0.0"	"FALSE"	"Windows 10"	"60.14"	"066"	n/a	n/a	n/a	n/a	n/a	n/a	"fixation"	n/a	n/a	n/a	n/a	"NULL"	n/a	"NULL"	"NULL"	"NULL"	"<p style=\"color: black; font-size: 80px; padding-left: 28%; padding-right: 18%; padding-top: 20%; padding-bottom: 4%\">+</p>"	"1267"	n/a	n/a	n/a	n/a	n/a	n/a	n/a	n/a	n/a
n/a	"image-keyboard-response"	"154"	"336079"	"0.0-5.0-2.0-1.50"	"73hzod"	"600"	"1366"	"chrome"	"112.0.0"	"FALSE"	"Windows 10"	"60.14"	"066"	n/a	n/a	n/a	n/a	n/a	n/a	"Trial"	n/a	n/a	n/a	"396"	"arrowright"	n/a	"NULL"	"NULL"	"NULL"	"stimuli/VerticalHorizontal_-11.78571_-0.16217.png"	n/a	"VerticalHorizontal"	"arrowright"	"1268"	"TRUE"	"VerticalHorizontal"	"-11.78571000"	"-0.162170000"	"1"	"69"
n/a	"html-keyboard-response"	"155"	"337161"	"0.0-5.0-2.0-0.51"	"73hzod"	"600"	"1366"	"chrome"	"112.0.0"	"FALSE"	"Windows 10"	"60.14"	"066"	n/a	n/a	n/a	n/a	n/a	n/a	"fixation"	n/a	n/a	n/a	n/a	"NULL"	n/a	"NULL"	"NULL"	"NULL"	"<p style=\"color: black; font-size: 80px; padding-left: 49%; padding-right: 15%; padding-top: 1%; padding-bottom: 40%\">+</p>"	"1074"	n/a	n/a	n/a	n/a	n/a	n/a	n/a	n/a	n/a
n/a	"image-keyboard-response"	"156"	"337520"	"0.0-5.0-2.0-1.51"	"73hzod"	"600"	"1366"	"chrome"	"112.0.0"	"FALSE"	"Windows 10"	"60.14"	"066"	n/a	n/a	n/a	n/a	n/a	n/a	"Trial"	n/a	n/a	n/a	"359"	"arrowleft"	n/a	"NULL"	"NULL"	"NULL"	"stimuli/VerticalHorizontal_-28.75714_0.06730.png"	n/a	"VerticalHorizontal"	"arrowleft"	"1082"	"TRUE"	"VerticalHorizontal"	"-28.75714000"	"0.0673000000"	"1"	"70"
n/a	"html-keyboard-response"	"157"	"338979"	"0.0-5.0-2.0-0.52"	"73hzod"	"600"	"1366"	"chrome"	"112.0.0"	"FALSE"	"Windows 10"	"60.14"	"066"	n/a	n/a	n/a	n/a	n/a	n/a	"fixation"	n/a	n/a	n/a	n/a	"NULL"	n/a	"NULL"	"NULL"	"NULL"	"<p style=\"color: black; font-size: 80px; padding-left: 0%; padding-right: 46%; padding-top: 30%; padding-bottom: 30%\">+</p>"	"1452"	n/a	n/a	n/a	n/a	n/a	n/a	n/a	n/a	n/a
n/a	"image-keyboard-response"	"158"	"339526"	"0.0-5.0-2.0-1.52"	"73hzod"	"600"	"1366"	"chrome"	"112.0.0"	"FALSE"	"Windows 10"	"60.14"	"066"	n/a	n/a	n/a	n/a	n/a	n/a	"Trial"	n/a	n/a	n/a	"547"	"arrowright"	n/a	"NULL"	"NULL"	"NULL"	"stimuli/VerticalHorizontal_3.30000_-0.16217.png"	n/a	"VerticalHorizontal"	"arrowright"	"1459"	"TRUE"	"VerticalHorizontal"	"3.3000000000"	"-0.162170000"	"1"	"71"
n/a	"html-keyboard-response"	"159"	"340737"	"0.0-5.0-2.0-0.53"	"73hzod"	"600"	"1366"	"chrome"	"112.0.0"	"FALSE"	"Windows 10"	"60.14"	"066"	n/a	n/a	n/a	n/a	n/a	n/a	"fixation"	n/a	n/a	n/a	n/a	"NULL"	n/a	"NULL"	"NULL"	"NULL"	"<p style=\"color: black; font-size: 80px; padding-left: 20%; padding-right: 0%; padding-top: 17%; padding-bottom: 21%\">+</p>"	"1199"	n/a	n/a	n/a	n/a	n/a	n/a	n/a	n/a	n/a
n/a	"image-keyboard-response"	"160"	"341122"	"0.0-5.0-2.0-1.53"	"73hzod"	"600"	"1366"	"chrome"	"112.0.0"	"FALSE"	"Windows 10"	"60.14"	"066"	n/a	n/a	n/a	n/a	n/a	n/a	"Trial"	n/a	n/a	n/a	"385"	"arrowleft"	n/a	"NULL"	"NULL"	"NULL"	"stimuli/VerticalHorizontal_-3.3000_-0.16217.png"	n/a	"VerticalHorizontal"	"arrowright"	"1211"	"FALSE"	"VerticalHorizontal"	"-3.300000000"	"-0.162170000"	"1"	"72"
n/a	"html-keyboard-response"	"161"	"342392"	"0.0-5.0-2.0-0.54"	"73hzod"	"600"	"1366"	"chrome"	"112.0.0"	"FALSE"	"Windows 10"	"60.14"	"066"	n/a	n/a	n/a	n/a	n/a	n/a	"fixation"	n/a	n/a	n/a	n/a	"NULL"	n/a	"NULL"	"NULL"	"NULL"	"<p style=\"color: black; font-size: 80px; padding-left: 37%; padding-right: 32%; padding-top: 17%; padding-bottom: 15%\">+</p>"	"1268"	n/a	n/a	n/a	n/a	n/a	n/a	n/a	n/a	n/a
n/a	"image-keyboard-response"	"162"	"342846"	"0.0-5.0-2.0-1.54"	"73hzod"	"600"	"1366"	"chrome"	"112.0.0"	"FALSE"	"Windows 10"	"60.14"	"066"	n/a	n/a	n/a	n/a	n/a	n/a	"Trial"	n/a	n/a	n/a	"453"	"arrowright"	n/a	"NULL"	"NULL"	"NULL"	"stimuli/VerticalHorizontal_-28.75714_-0.0673.png"	n/a	"VerticalHorizontal"	"arrowright"	"1270"	"TRUE"	"VerticalHorizontal"	"-28.75714000"	"-0.067300000"	"1"	"73"
n/a	"html-keyboard-response"	"163"	"344219"	"0.0-5.0-2.0-0.55"	"73hzod"	"600"	"1366"	"chrome"	"112.0.0"	"FALSE"	"Windows 10"	"60.14"	"066"	n/a	n/a	n/a	n/a	n/a	n/a	"fixation"	n/a	n/a	n/a	n/a	"NULL"	n/a	"NULL"	"NULL"	"NULL"	"<p style=\"color: black; font-size: 80px; padding-left: 36%; padding-right: 27%; padding-top: 28%; padding-bottom: 2%\">+</p>"	"1361"	n/a	n/a	n/a	n/a	n/a	n/a	n/a	n/a	n/a
n/a	"image-keyboard-response"	"164"	"344626"	"0.0-5.0-2.0-1.55"	"73hzod"	"600"	"1366"	"chrome"	"112.0.0"	"FALSE"	"Windows 10"	"60.14"	"066"	n/a	n/a	n/a	n/a	n/a	n/a	"Trial"	n/a	n/a	n/a	"406"	"arrowleft"	n/a	"NULL"	"NULL"	"NULL"	"stimuli/VerticalHorizontal_20.27143_0.22500.png"	n/a	"VerticalHorizontal"	"arrowleft"	"1373"	"TRUE"	"VerticalHorizontal"	"20.271430000"	"0.2250000000"	"1"	"74"
n/a	"html-keyboard-response"	"165"	"345924"	"0.0-5.0-2.0-0.56"	"73hzod"	"600"	"1366"	"chrome"	"112.0.0"	"FALSE"	"Windows 10"	"60.14"	"066"	n/a	n/a	n/a	n/a	n/a	n/a	"fixation"	n/a	n/a	n/a	n/a	"NULL"	n/a	"NULL"	"NULL"	"NULL"	"<p style=\"color: black; font-size: 80px; padding-left: 32%; padding-right: 22%; padding-top: 26%; padding-bottom: 9%\">+</p>"	"1287"	n/a	n/a	n/a	n/a	n/a	n/a	n/a	n/a	n/a
n/a	"image-keyboard-response"	"166"	"346327"	"0.0-5.0-2.0-1.56"	"73hzod"	"600"	"1366"	"chrome"	"112.0.0"	"FALSE"	"Windows 10"	"60.14"	"066"	n/a	n/a	n/a	n/a	n/a	n/a	"Trial"	n/a	n/a	n/a	"403"	"arrowright"	n/a	"NULL"	"NULL"	"NULL"	"stimuli/VerticalHorizontal_-3.3000_-0.0673.png"	n/a	"VerticalHorizontal"	"arrowright"	"1298"	"TRUE"	"VerticalHorizontal"	"-3.300000000"	"-0.067300000"	"1"	"75"
n/a	"html-keyboard-response"	"167"	"347445"	"0.0-5.0-2.0-0.57"	"73hzod"	"600"	"1366"	"chrome"	"112.0.0"	"FALSE"	"Windows 10"	"60.14"	"066"	n/a	n/a	n/a	n/a	n/a	n/a	"fixation"	n/a	n/a	n/a	n/a	"NULL"	n/a	"NULL"	"NULL"	"NULL"	"<p style=\"color: black; font-size: 80px; padding-left: 9%; padding-right: 22%; padding-top: 21%; padding-bottom: 3%\">+</p>"	"1114"	n/a	n/a	n/a	n/a	n/a	n/a	n/a	n/a	n/a
n/a	"image-keyboard-response"	"168"	"348229"	"0.0-5.0-2.0-1.57"	"73hzod"	"600"	"1366"	"chrome"	"112.0.0"	"FALSE"	"Windows 10"	"60.14"	"066"	n/a	n/a	n/a	n/a	n/a	n/a	"Trial"	n/a	n/a	n/a	"783"	"arrowright"	n/a	"NULL"	"NULL"	"NULL"	"stimuli/VerticalHorizontal_11.78571_-0.1096.png"	n/a	"VerticalHorizontal"	"arrowright"	"1118"	"TRUE"	"VerticalHorizontal"	"11.785710000"	"-0.109600000"	"1"	"76"
n/a	"html-keyboard-response"	"169"	"349722"	"0.0-5.0-2.0-0.58"	"73hzod"	"600"	"1366"	"chrome"	"112.0.0"	"FALSE"	"Windows 10"	"60.14"	"066"	n/a	n/a	n/a	n/a	n/a	n/a	"fixation"	n/a	n/a	n/a	n/a	"NULL"	n/a	"NULL"	"NULL"	"NULL"	"<p style=\"color: black; font-size: 80px; padding-left: 28%; padding-right: 3%; padding-top: 38%; padding-bottom: 24%\">+</p>"	"1487"	n/a	n/a	n/a	n/a	n/a	n/a	n/a	n/a	n/a
n/a	"image-keyboard-response"	"170"	"350289"	"0.0-5.0-2.0-1.58"	"73hzod"	"600"	"1366"	"chrome"	"112.0.0"	"FALSE"	"Windows 10"	"60.14"	"066"	n/a	n/a	n/a	n/a	n/a	n/a	"Trial"	n/a	n/a	n/a	"566"	"arrowright"	n/a	"NULL"	"NULL"	"NULL"	"stimuli/VerticalHorizontal_-11.78571_-0.0673.png"	n/a	"VerticalHorizontal"	"arrowright"	"1493"	"TRUE"	"VerticalHorizontal"	"-11.78571000"	"-0.067300000"	"1"	"77"
n/a	"html-keyboard-response"	"171"	"351597"	"0.0-5.0-2.0-0.59"	"73hzod"	"600"	"1366"	"chrome"	"112.0.0"	"FALSE"	"Windows 10"	"60.14"	"066"	n/a	n/a	n/a	n/a	n/a	n/a	"fixation"	n/a	n/a	n/a	n/a	"NULL"	n/a	"NULL"	"NULL"	"NULL"	"<p style=\"color: black; font-size: 80px; padding-left: 9%; padding-right: 3%; padding-top: 47%; padding-bottom: 6%\">+</p>"	"1295"	n/a	n/a	n/a	n/a	n/a	n/a	n/a	n/a	n/a
n/a	"image-keyboard-response"	"172"	"352221"	"0.0-5.0-2.0-1.59"	"73hzod"	"600"	"1366"	"chrome"	"112.0.0"	"FALSE"	"Windows 10"	"60.14"	"066"	n/a	n/a	n/a	n/a	n/a	n/a	"Trial"	n/a	n/a	n/a	"623"	"arrowright"	n/a	"NULL"	"NULL"	"NULL"	"stimuli/VerticalHorizontal_11.78571_-0.16217.png"	n/a	"VerticalHorizontal"	"arrowright"	"1308"	"TRUE"	"VerticalHorizontal"	"11.785710000"	"-0.162170000"	"1"	"78"
n/a	"html-keyboard-response"	"173"	"353339"	"0.0-5.0-2.0-0.60"	"73hzod"	"600"	"1366"	"chrome"	"112.0.0"	"FALSE"	"Windows 10"	"60.14"	"066"	n/a	n/a	n/a	n/a	n/a	n/a	"fixation"	n/a	n/a	n/a	n/a	"NULL"	n/a	"NULL"	"NULL"	"NULL"	"<p style=\"color: black; font-size: 80px; padding-left: 24%; padding-right: 5%; padding-top: 31%; padding-bottom: 27%\">+</p>"	"1106"	n/a	n/a	n/a	n/a	n/a	n/a	n/a	n/a	n/a
n/a	"image-keyboard-response"	"174"	"353885"	"0.0-5.0-2.0-1.60"	"73hzod"	"600"	"1366"	"chrome"	"112.0.0"	"FALSE"	"Windows 10"	"60.14"	"066"	n/a	n/a	n/a	n/a	n/a	n/a	"Trial"	n/a	n/a	n/a	"546"	"arrowright"	n/a	"NULL"	"NULL"	"NULL"	"stimuli/VerticalHorizontal_20.27143_-0.2250.png"	n/a	"VerticalHorizontal"	"arrowright"	"1118"	"TRUE"	"VerticalHorizontal"	"20.271430000"	"-0.225000000"	"1"	"79"
n/a	"html-keyboard-response"	"175"	"354939"	"0.0-5.0-2.0-0.61"	"73hzod"	"600"	"1366"	"chrome"	"112.0.0"	"FALSE"	"Windows 10"	"60.14"	"066"	n/a	n/a	n/a	n/a	n/a	n/a	"fixation"	n/a	n/a	n/a	n/a	"NULL"	n/a	"NULL"	"NULL"	"NULL"	"<p style=\"color: black; font-size: 80px; padding-left: 47%; padding-right: 32%; padding-top: 8%; padding-bottom: 49%\">+</p>"	"1049"	n/a	n/a	n/a	n/a	n/a	n/a	n/a	n/a	n/a
n/a	"image-keyboard-response"	"176"	"355386"	"0.0-5.0-2.0-1.61"	"73hzod"	"600"	"1366"	"chrome"	"112.0.0"	"FALSE"	"Windows 10"	"60.14"	"066"	n/a	n/a	n/a	n/a	n/a	n/a	"Trial"	n/a	n/a	n/a	"446"	"arrowleft"	n/a	"NULL"	"NULL"	"NULL"	"stimuli/VerticalHorizontal_-3.3000_0.10960.png"	n/a	"VerticalHorizontal"	"arrowleft"	"1054"	"TRUE"	"VerticalHorizontal"	"-3.300000000"	"0.1096000000"	"1"	"80"
n/a	"html-keyboard-response"	"177"	"356679"	"0.0-5.0-2.0-0.62"	"73hzod"	"600"	"1366"	"chrome"	"112.0.0"	"FALSE"	"Windows 10"	"60.14"	"066"	n/a	n/a	n/a	n/a	n/a	n/a	"fixation"	n/a	n/a	n/a	n/a	"NULL"	n/a	"NULL"	"NULL"	"NULL"	"<p style=\"color: black; font-size: 80px; padding-left: 24%; padding-right: 5%; padding-top: 6%; padding-bottom: 38%\">+</p>"	"1291"	n/a	n/a	n/a	n/a	n/a	n/a	n/a	n/a	n/a
n/a	"image-keyboard-response"	"178"	"357053"	"0.0-5.0-2.0-1.62"	"73hzod"	"600"	"1366"	"chrome"	"112.0.0"	"FALSE"	"Windows 10"	"60.14"	"066"	n/a	n/a	n/a	n/a	n/a	n/a	"Trial"	n/a	n/a	n/a	"374"	"arrowright"	n/a	"NULL"	"NULL"	"NULL"	"stimuli/VerticalHorizontal_-28.75714_-0.16217.png"	n/a	"VerticalHorizontal"	"arrowright"	"1293"	"TRUE"	"VerticalHorizontal"	"-28.75714000"	"-0.162170000"	"1"	"81"
n/a	"html-keyboard-response"	"179"	"358216"	"0.0-5.0-2.0-0.63"	"73hzod"	"600"	"1366"	"chrome"	"112.0.0"	"FALSE"	"Windows 10"	"60.14"	"066"	n/a	n/a	n/a	n/a	n/a	n/a	"fixation"	n/a	n/a	n/a	n/a	"NULL"	n/a	"NULL"	"NULL"	"NULL"	"<p style=\"color: black; font-size: 80px; padding-left: 22%; padding-right: 47%; padding-top: 10%; padding-bottom: 43%\">+</p>"	"1152"	n/a	n/a	n/a	n/a	n/a	n/a	n/a	n/a	n/a
n/a	"image-keyboard-response"	"180"	"358603"	"0.0-5.0-2.0-1.63"	"73hzod"	"600"	"1366"	"chrome"	"112.0.0"	"FALSE"	"Windows 10"	"60.14"	"066"	n/a	n/a	n/a	n/a	n/a	n/a	"Trial"	n/a	n/a	n/a	"386"	"arrowleft"	n/a	"NULL"	"NULL"	"NULL"	"stimuli/VerticalHorizontal_11.78571_0.22500.png"	n/a	"VerticalHorizontal"	"arrowleft"	"1163"	"TRUE"	"VerticalHorizontal"	"11.785710000"	"0.2250000000"	"1"	"82"
n/a	"html-button-response"	"181"	"377178"	"0.0-5.0-3.0"	"73hzod"	"600"	"1366"	"chrome"	"112.0.0"	"FALSE"	"Windows 10"	"60.14"	"066"	n/a	n/a	n/a	n/a	n/a	n/a	"block_results"	n/a	n/a	n/a	"18573"	"0"	n/a	"NULL"	"NULL"	"NULL"	"<p>Your score for this illusion is <p style=\"color: black; font-size: 48px; font-weight: bold;\">84.3 %</p><hr><p>Can you do better in the next illusion?</p>"	n/a	n/a	n/a	n/a	n/a	n/a	n/a	n/a	n/a	n/a
"TRUE"	"preload"	"182"	"377368"	"0.0-6.0-0.0"	"73hzod"	"600"	"1366"	"chrome"	"112.0.0"	"FALSE"	"Windows 10"	"60.14"	"066"	n/a	n/a	n/a	n/a	n/a	n/a	n/a	n/a	n/a	n/a	n/a	"NULL"	"FALSE"	"list()"	"list()"	"list()"	n/a	n/a	n/a	n/a	n/a	n/a	n/a	n/a	n/a	n/a	n/a
n/a	"html-keyboard-response"	"183"	"381156"	"0.0-6.0-1.0"	"73hzod"	"600"	"1366"	"chrome"	"112.0.0"	"FALSE"	"Windows 10"	"60.14"	"066"	n/a	n/a	n/a	n/a	n/a	n/a	n/a	n/a	n/a	n/a	"3786"	"enter"	n/a	"NULL"	"NULL"	"NULL"	"<p><b>Part 2/6</b></p><p>In this part, two horizontal red lines will appear one above the other.</p><p>Your task is to select which <b>line is longer</b> in length as fast as you can, without making errors.</p><p>Don't get distracted by the surrounding black arrows at the end of the red lines!</p><p>Press <b>the UP or the DOWN arrow</b> to indicate where is the longer <b>red line.</b></p><div style='float: center'><img src='materials/instructions/MullerLyer_Demo.png' height='300'></img><p><img src='utils/answer/answer_updown_keyboard.PNG' height='150'></img></p><p class='small'>In this example, the correct answer is the <b>UP arrow</b>.</p></div><p>Are you ready? <b>Press ENTER to start</b></p>"	n/a	n/a	n/a	n/a	n/a	n/a	n/a	n/a	n/a	n/a
n/a	"html-keyboard-response"	"184"	"382970"	"0.0-6.0-2.0-0.0"	"73hzod"	"600"	"1366"	"chrome"	"112.0.0"	"FALSE"	"Windows 10"	"60.14"	"066"	n/a	n/a	n/a	n/a	n/a	n/a	"fixation"	n/a	n/a	n/a	n/a	"NULL"	n/a	"NULL"	"NULL"	"NULL"	"<p style=\"color: black; font-size: 80px; padding-left: 48%; padding-right: 31%; padding-top: 31%; padding-bottom: 45%\">+</p>"	"1303"	n/a	n/a	n/a	n/a	n/a	n/a	n/a	n/a	n/a
n/a	"image-keyboard-response"	"185"	"383488"	"0.0-6.0-2.0-1.0"	"73hzod"	"600"	"1366"	"chrome"	"112.0.0"	"FALSE"	"Windows 10"	"60.14"	"066"	n/a	n/a	n/a	n/a	n/a	n/a	"Trial"	n/a	n/a	n/a	"516"	"arrowdown"	n/a	"NULL"	"NULL"	"NULL"	"stimuli/MullerLyer_-8.21429_-0.23665.png"	n/a	"MullerLyer"	"arrowdown"	"1814"	"TRUE"	"MullerLyer"	"-8.214290000"	"-0.236650000"	"2"	"1"
n/a	"html-keyboard-response"	"186"	"384662"	"0.0-6.0-2.0-0.1"	"73hzod"	"600"	"1366"	"chrome"	"112.0.0"	"FALSE"	"Windows 10"	"60.14"	"066"	n/a	n/a	n/a	n/a	n/a	n/a	"fixation"	n/a	n/a	n/a	n/a	"NULL"	n/a	"NULL"	"NULL"	"NULL"	"<p style=\"color: black; font-size: 80px; padding-left: 9%; padding-right: 26%; padding-top: 19%; padding-bottom: 41%\">+</p>"	"1169"	n/a	n/a	n/a	n/a	n/a	n/a	n/a	n/a	n/a
n/a	"image-keyboard-response"	"187"	"385263"	"0.0-6.0-2.0-1.1"	"73hzod"	"600"	"1366"	"chrome"	"112.0.0"	"FALSE"	"Windows 10"	"60.14"	"066"	n/a	n/a	n/a	n/a	n/a	n/a	"Trial"	n/a	n/a	n/a	"600"	"arrowup"	n/a	"NULL"	"NULL"	"NULL"	"stimuli/MullerLyer_14.12857_-0.14541.png"	n/a	"MullerLyer"	"arrowdown"	"1174"	"FALSE"	"MullerLyer"	"14.128570000"	"-0.145410000"	"2"	"2"
n/a	"html-keyboard-response"	"188"	"386571"	"0.0-6.0-2.0-0.2"	"73hzod"	"600"	"1366"	"chrome"	"112.0.0"	"FALSE"	"Windows 10"	"60.14"	"066"	n/a	n/a	n/a	n/a	n/a	n/a	"fixation"	n/a	n/a	n/a	n/a	"NULL"	n/a	"NULL"	"NULL"	"NULL"	"<p style=\"color: black; font-size: 80px; padding-left: 28%; padding-right: 22%; padding-top: 39%; padding-bottom: 17%\">+</p>"	"1296"	n/a	n/a	n/a	n/a	n/a	n/a	n/a	n/a	n/a
n/a	"image-keyboard-response"	"189"	"387156"	"0.0-6.0-2.0-1.2"	"73hzod"	"600"	"1366"	"chrome"	"112.0.0"	"FALSE"	"Windows 10"	"60.14"	"066"	n/a	n/a	n/a	n/a	n/a	n/a	"Trial"	n/a	n/a	n/a	"584"	"arrowdown"	n/a	"NULL"	"NULL"	"NULL"	"stimuli/MullerLyer_-8.21429_-0.14541.png"	n/a	"MullerLyer"	"arrowdown"	"1308"	"TRUE"	"MullerLyer"	"-8.214290000"	"-0.145410000"	"2"	"3"
n/a	"html-keyboard-response"	"190"	"388344"	"0.0-6.0-2.0-0.3"	"73hzod"	"600"	"1366"	"chrome"	"112.0.0"	"FALSE"	"Windows 10"	"60.14"	"066"	n/a	n/a	n/a	n/a	n/a	n/a	"fixation"	n/a	n/a	n/a	n/a	"NULL"	n/a	"NULL"	"NULL"	"NULL"	"<p style=\"color: black; font-size: 80px; padding-left: 42%; padding-right: 26%; padding-top: 40%; padding-bottom: 19%\">+</p>"	"1176"	n/a	n/a	n/a	n/a	n/a	n/a	n/a	n/a	n/a
n/a	"image-keyboard-response"	"191"	"388853"	"0.0-6.0-2.0-1.3"	"73hzod"	"600"	"1366"	"chrome"	"112.0.0"	"FALSE"	"Windows 10"	"60.14"	"066"	n/a	n/a	n/a	n/a	n/a	n/a	"Trial"	n/a	n/a	n/a	"508"	"arrowdown"	n/a	"NULL"	"NULL"	"NULL"	"stimuli/MullerLyer_-2.3000_-0.3500.png"	n/a	"MullerLyer"	"arrowdown"	"1188"	"TRUE"	"MullerLyer"	"-2.300000000"	"-0.350000000"	"2"	"4"
n/a	"html-keyboard-response"	"192"	"390162"	"0.0-6.0-2.0-0.4"	"73hzod"	"600"	"1366"	"chrome"	"112.0.0"	"FALSE"	"Windows 10"	"60.14"	"066"	n/a	n/a	n/a	n/a	n/a	n/a	"fixation"	n/a	n/a	n/a	n/a	"NULL"	n/a	"NULL"	"NULL"	"NULL"	"<p style=\"color: black; font-size: 80px; padding-left: 15%; padding-right: 38%; padding-top: 47%; padding-bottom: 45%\">+</p>"	"1307"	n/a	n/a	n/a	n/a	n/a	n/a	n/a	n/a	n/a
n/a	"image-keyboard-response"	"193"	"390705"	"0.0-6.0-2.0-1.4"	"73hzod"	"600"	"1366"	"chrome"	"112.0.0"	"FALSE"	"Windows 10"	"60.14"	"066"	n/a	n/a	n/a	n/a	n/a	n/a	"Trial"	n/a	n/a	n/a	"542"	"arrowup"	n/a	"NULL"	"NULL"	"NULL"	"stimuli/MullerLyer_8.21429_-0.14541.png"	n/a	"MullerLyer"	"arrowdown"	"1309"	"FALSE"	"MullerLyer"	"8.2142900000"	"-0.145410000"	"2"	"5"
n/a	"html-keyboard-response"	"194"	"391736"	"0.0-6.0-2.0-0.5"	"73hzod"	"600"	"1366"	"chrome"	"112.0.0"	"FALSE"	"Windows 10"	"60.14"	"066"	n/a	n/a	n/a	n/a	n/a	n/a	"fixation"	n/a	n/a	n/a	n/a	"NULL"	n/a	"NULL"	"NULL"	"NULL"	"<p style=\"color: black; font-size: 80px; padding-left: 8%; padding-right: 17%; padding-top: 17%; padding-bottom: 50%\">+</p>"	"1015"	n/a	n/a	n/a	n/a	n/a	n/a	n/a	n/a	n/a
n/a	"image-keyboard-response"	"195"	"392507"	"0.0-6.0-2.0-1.5"	"73hzod"	"600"	"1366"	"chrome"	"112.0.0"	"FALSE"	"Windows 10"	"60.14"	"066"	n/a	n/a	n/a	n/a	n/a	n/a	"Trial"	n/a	n/a	n/a	"770"	"arrowup"	n/a	"NULL"	"NULL"	"NULL"	"stimuli/MullerLyer_20.04286_0.35000.png"	n/a	"MullerLyer"	"arrowup"	"1031"	"TRUE"	"MullerLyer"	"20.042860000"	"0.3500000000"	"2"	"6"
n/a	"html-keyboard-response"	"196"	"393781"	"0.0-6.0-2.0-0.6"	"73hzod"	"600"	"1366"	"chrome"	"112.0.0"	"FALSE"	"Windows 10"	"60.14"	"066"	n/a	n/a	n/a	n/a	n/a	n/a	"fixation"	n/a	n/a	n/a	n/a	"NULL"	n/a	"NULL"	"NULL"	"NULL"	"<p style=\"color: black; font-size: 80px; padding-left: 39%; padding-right: 31%; padding-top: 49%; padding-bottom: 11%\">+</p>"	"1272"	n/a	n/a	n/a	n/a	n/a	n/a	n/a	n/a	n/a
n/a	"image-keyboard-response"	"197"	"394377"	"0.0-6.0-2.0-1.6"	"73hzod"	"600"	"1366"	"chrome"	"112.0.0"	"FALSE"	"Windows 10"	"60.14"	"066"	n/a	n/a	n/a	n/a	n/a	n/a	"Trial"	n/a	n/a	n/a	"595"	"arrowdown"	n/a	"NULL"	"NULL"	"NULL"	"stimuli/MullerLyer_-2.3000_-0.14541.png"	n/a	"MullerLyer"	"arrowdown"	"1274"	"TRUE"	"MullerLyer"	"-2.300000000"	"-0.145410000"	"2"	"7"
n/a	"html-keyboard-response"	"198"	"395854"	"0.0-6.0-2.0-0.7"	"73hzod"	"600"	"1366"	"chrome"	"112.0.0"	"FALSE"	"Windows 10"	"60.14"	"066"	n/a	n/a	n/a	n/a	n/a	n/a	"fixation"	n/a	n/a	n/a	n/a	"NULL"	n/a	"NULL"	"NULL"	"NULL"	"<p style=\"color: black; font-size: 80px; padding-left: 36%; padding-right: 28%; padding-top: 37%; padding-bottom: 1%\">+</p>"	"1471"	n/a	n/a	n/a	n/a	n/a	n/a	n/a	n/a	n/a
n/a	"image-keyboard-response"	"199"	"396379"	"0.0-6.0-2.0-1.7"	"73hzod"	"600"	"1366"	"chrome"	"112.0.0"	"FALSE"	"Windows 10"	"60.14"	"066"	n/a	n/a	n/a	n/a	n/a	n/a	"Trial"	n/a	n/a	n/a	"525"	"arrowup"	n/a	"NULL"	"NULL"	"NULL"	"stimuli/MullerLyer_14.12857_0.14541.png"	n/a	"MullerLyer"	"arrowup"	"1477"	"TRUE"	"MullerLyer"	"14.128570000"	"0.1454100000"	"2"	"8"
n/a	"html-keyboard-response"	"200"	"397653"	"0.0-6.0-2.0-0.8"	"73hzod"	"600"	"1366"	"chrome"	"112.0.0"	"FALSE"	"Windows 10"	"60.14"	"066"	n/a	n/a	n/a	n/a	n/a	n/a	"fixation"	n/a	n/a	n/a	n/a	"NULL"	n/a	"NULL"	"NULL"	"NULL"	"<p style=\"color: black; font-size: 80px; padding-left: 11%; padding-right: 15%; padding-top: 31%; padding-bottom: 26%\">+</p>"	"1271"	n/a	n/a	n/a	n/a	n/a	n/a	n/a	n/a	n/a
n/a	"image-keyboard-response"	"201"	"398183"	"0.0-6.0-2.0-1.8"	"73hzod"	"600"	"1366"	"chrome"	"112.0.0"	"FALSE"	"Windows 10"	"60.14"	"066"	n/a	n/a	n/a	n/a	n/a	n/a	"Trial"	n/a	n/a	n/a	"529"	"arrowup"	n/a	"NULL"	"NULL"	"NULL"	"stimuli/MullerLyer_2.30000_0.35000.png"	n/a	"MullerLyer"	"arrowup"	"1274"	"TRUE"	"MullerLyer"	"2.3000000000"	"0.3500000000"	"2"	"9"
n/a	"html-keyboard-response"	"202"	"399687"	"0.0-6.0-2.0-0.9"	"73hzod"	"600"	"1366"	"chrome"	"112.0.0"	"FALSE"	"Windows 10"	"60.14"	"066"	n/a	n/a	n/a	n/a	n/a	n/a	"fixation"	n/a	n/a	n/a	n/a	"NULL"	n/a	"NULL"	"NULL"	"NULL"	"<p style=\"color: black; font-size: 80px; padding-left: 28%; padding-right: 32%; padding-top: 44%; padding-bottom: 45%\">+</p>"	"1489"	n/a	n/a	n/a	n/a	n/a	n/a	n/a	n/a	n/a
n/a	"image-keyboard-response"	"203"	"400142"	"0.0-6.0-2.0-1.9"	"73hzod"	"600"	"1366"	"chrome"	"112.0.0"	"FALSE"	"Windows 10"	"60.14"	"066"	n/a	n/a	n/a	n/a	n/a	n/a	"Trial"	n/a	n/a	n/a	"453"	"arrowup"	n/a	"NULL"	"NULL"	"NULL"	"stimuli/MullerLyer_-8.21429_0.14541.png"	n/a	"MullerLyer"	"arrowup"	"1504"	"TRUE"	"MullerLyer"	"-8.214290000"	"0.1454100000"	"2"	"10"
n/a	"html-keyboard-response"	"204"	"401316"	"0.0-6.0-2.0-0.10"	"73hzod"	"600"	"1366"	"chrome"	"112.0.0"	"FALSE"	"Windows 10"	"60.14"	"066"	n/a	n/a	n/a	n/a	n/a	n/a	"fixation"	n/a	n/a	n/a	n/a	"NULL"	n/a	"NULL"	"NULL"	"NULL"	"<p style=\"color: black; font-size: 80px; padding-left: 38%; padding-right: 47%; padding-top: 46%; padding-bottom: 4%\">+</p>"	"1167"	n/a	n/a	n/a	n/a	n/a	n/a	n/a	n/a	n/a
n/a	"image-keyboard-response"	"205"	"401817"	"0.0-6.0-2.0-1.10"	"73hzod"	"600"	"1366"	"chrome"	"112.0.0"	"FALSE"	"Windows 10"	"60.14"	"066"	n/a	n/a	n/a	n/a	n/a	n/a	"Trial"	n/a	n/a	n/a	"500"	"arrowup"	n/a	"NULL"	"NULL"	"NULL"	"stimuli/MullerLyer_8.21429_0.35000.png"	n/a	"MullerLyer"	"arrowup"	"1174"	"TRUE"	"MullerLyer"	"8.2142900000"	"0.3500000000"	"2"	"11"
n/a	"html-keyboard-response"	"206"	"403157"	"0.0-6.0-2.0-0.11"	"73hzod"	"600"	"1366"	"chrome"	"112.0.0"	"FALSE"	"Windows 10"	"60.14"	"066"	n/a	n/a	n/a	n/a	n/a	n/a	"fixation"	n/a	n/a	n/a	n/a	"NULL"	n/a	"NULL"	"NULL"	"NULL"	"<p style=\"color: black; font-size: 80px; padding-left: 50%; padding-right: 25%; padding-top: 27%; padding-bottom: 13%\">+</p>"	"1338"	n/a	n/a	n/a	n/a	n/a	n/a	n/a	n/a	n/a
n/a	"image-keyboard-response"	"207"	"403622"	"0.0-6.0-2.0-1.11"	"73hzod"	"600"	"1366"	"chrome"	"112.0.0"	"FALSE"	"Windows 10"	"60.14"	"066"	n/a	n/a	n/a	n/a	n/a	n/a	"Trial"	n/a	n/a	n/a	"465"	"arrowup"	n/a	"NULL"	"NULL"	"NULL"	"stimuli/MullerLyer_-20.04286_0.23665.png"	n/a	"MullerLyer"	"arrowup"	"1340"	"TRUE"	"MullerLyer"	"-20.04286000"	"0.2366500000"	"2"	"12"
n/a	"html-keyboard-response"	"208"	"405031"	"0.0-6.0-2.0-0.12"	"73hzod"	"600"	"1366"	"chrome"	"112.0.0"	"FALSE"	"Windows 10"	"60.14"	"066"	n/a	n/a	n/a	n/a	n/a	n/a	"fixation"	n/a	n/a	n/a	n/a	"NULL"	n/a	"NULL"	"NULL"	"NULL"	"<p style=\"color: black; font-size: 80px; padding-left: 37%; padding-right: 14%; padding-top: 37%; padding-bottom: 47%\">+</p>"	"1401"	n/a	n/a	n/a	n/a	n/a	n/a	n/a	n/a	n/a
n/a	"image-keyboard-response"	"209"	"405558"	"0.0-6.0-2.0-1.12"	"73hzod"	"600"	"1366"	"chrome"	"112.0.0"	"FALSE"	"Windows 10"	"60.14"	"066"	n/a	n/a	n/a	n/a	n/a	n/a	"Trial"	n/a	n/a	n/a	"526"	"arrowup"	n/a	"NULL"	"NULL"	"NULL"	"stimuli/MullerLyer_2.30000_0.14541.png"	n/a	"MullerLyer"	"arrowup"	"1409"	"TRUE"	"MullerLyer"	"2.3000000000"	"0.1454100000"	"2"	"13"
n/a	"html-keyboard-response"	"210"	"406710"	"0.0-6.0-2.0-0.13"	"73hzod"	"600"	"1366"	"chrome"	"112.0.0"	"FALSE"	"Windows 10"	"60.14"	"066"	n/a	n/a	n/a	n/a	n/a	n/a	"fixation"	n/a	n/a	n/a	n/a	"NULL"	n/a	"NULL"	"NULL"	"NULL"	"<p style=\"color: black; font-size: 80px; padding-left: 17%; padding-right: 23%; padding-top: 4%; padding-bottom: 7%\">+</p>"	"1141"	n/a	n/a	n/a	n/a	n/a	n/a	n/a	n/a	n/a
n/a	"image-keyboard-response"	"211"	"407164"	"0.0-6.0-2.0-1.13"	"73hzod"	"600"	"1366"	"chrome"	"112.0.0"	"FALSE"	"Windows 10"	"60.14"	"066"	n/a	n/a	n/a	n/a	n/a	n/a	"Trial"	n/a	n/a	n/a	"454"	"arrowup"	n/a	"NULL"	"NULL"	"NULL"	"stimuli/MullerLyer_-14.12857_0.14541.png"	n/a	"MullerLyer"	"arrowup"	"1152"	"TRUE"	"MullerLyer"	"-14.12857000"	"0.1454100000"	"2"	"14"
n/a	"html-keyboard-response"	"212"	"408388"	"0.0-6.0-2.0-0.14"	"73hzod"	"600"	"1366"	"chrome"	"112.0.0"	"FALSE"	"Windows 10"	"60.14"	"066"	n/a	n/a	n/a	n/a	n/a	n/a	"fixation"	n/a	n/a	n/a	n/a	"NULL"	n/a	"NULL"	"NULL"	"NULL"	"<p style=\"color: black; font-size: 80px; padding-left: 35%; padding-right: 37%; padding-top: 7%; padding-bottom: 30%\">+</p>"	"1214"	n/a	n/a	n/a	n/a	n/a	n/a	n/a	n/a	n/a
n/a	"image-keyboard-response"	"213"	"408924"	"0.0-6.0-2.0-1.14"	"73hzod"	"600"	"1366"	"chrome"	"112.0.0"	"FALSE"	"Windows 10"	"60.14"	"066"	n/a	n/a	n/a	n/a	n/a	n/a	"Trial"	n/a	n/a	n/a	"536"	"arrowdown"	n/a	"NULL"	"NULL"	"NULL"	"stimuli/MullerLyer_-2.3000_-0.07627.png"	n/a	"MullerLyer"	"arrowdown"	"1224"	"TRUE"	"MullerLyer"	"-2.300000000"	"-0.076270000"	"2"	"15"
n/a	"html-keyboard-response"	"214"	"410112"	"0.0-6.0-2.0-0.15"	"73hzod"	"600"	"1366"	"chrome"	"112.0.0"	"FALSE"	"Windows 10"	"60.14"	"066"	n/a	n/a	n/a	n/a	n/a	n/a	"fixation"	n/a	n/a	n/a	n/a	"NULL"	n/a	"NULL"	"NULL"	"NULL"	"<p style=\"color: black; font-size: 80px; padding-left: 33%; padding-right: 13%; padding-top: 18%; padding-bottom: 38%\">+</p>"	"1185"	n/a	n/a	n/a	n/a	n/a	n/a	n/a	n/a	n/a
n/a	"image-keyboard-response"	"215"	"410564"	"0.0-6.0-2.0-1.15"	"73hzod"	"600"	"1366"	"chrome"	"112.0.0"	"FALSE"	"Windows 10"	"60.14"	"066"	n/a	n/a	n/a	n/a	n/a	n/a	"Trial"	n/a	n/a	n/a	"452"	"arrowup"	n/a	"NULL"	"NULL"	"NULL"	"stimuli/MullerLyer_20.04286_-0.14541.png"	n/a	"MullerLyer"	"arrowdown"	"1188"	"FALSE"	"MullerLyer"	"20.042860000"	"-0.145410000"	"2"	"16"
n/a	"html-keyboard-response"	"216"	"411572"	"0.0-6.0-2.0-0.16"	"73hzod"	"600"	"1366"	"chrome"	"112.0.0"	"FALSE"	"Windows 10"	"60.14"	"066"	n/a	n/a	n/a	n/a	n/a	n/a	"fixation"	n/a	n/a	n/a	n/a	"NULL"	n/a	"NULL"	"NULL"	"NULL"	"<p style=\"color: black; font-size: 80px; padding-left: 6%; padding-right: 40%; padding-top: 25%; padding-bottom: 13%\">+</p>"	"1004"	n/a	n/a	n/a	n/a	n/a	n/a	n/a	n/a	n/a
n/a	"image-keyboard-response"	"217"	"412228"	"0.0-6.0-2.0-1.16"	"73hzod"	"600"	"1366"	"chrome"	"112.0.0"	"FALSE"	"Windows 10"	"60.14"	"066"	n/a	n/a	n/a	n/a	n/a	n/a	"Trial"	n/a	n/a	n/a	"655"	"arrowup"	n/a	"NULL"	"NULL"	"NULL"	"stimuli/MullerLyer_2.30000_0.23665.png"	n/a	"MullerLyer"	"arrowup"	"1008"	"TRUE"	"MullerLyer"	"2.3000000000"	"0.2366500000"	"2"	"17"
n/a	"html-keyboard-response"	"218"	"413627"	"0.0-6.0-2.0-0.17"	"73hzod"	"600"	"1366"	"chrome"	"112.0.0"	"FALSE"	"Windows 10"	"60.14"	"066"	n/a	n/a	n/a	n/a	n/a	n/a	"fixation"	n/a	n/a	n/a	n/a	"NULL"	n/a	"NULL"	"NULL"	"NULL"	"<p style=\"color: black; font-size: 80px; padding-left: 37%; padding-right: 16%; padding-top: 11%; padding-bottom: 46%\">+</p>"	"1384"	n/a	n/a	n/a	n/a	n/a	n/a	n/a	n/a	n/a
n/a	"image-keyboard-response"	"219"	"414139"	"0.0-6.0-2.0-1.17"	"73hzod"	"600"	"1366"	"chrome"	"112.0.0"	"FALSE"	"Windows 10"	"60.14"	"066"	n/a	n/a	n/a	n/a	n/a	n/a	"Trial"	n/a	n/a	n/a	"512"	"arrowup"	n/a	"NULL"	"NULL"	"NULL"	"stimuli/MullerLyer_-14.12857_0.07627.png"	n/a	"MullerLyer"	"arrowup"	"1399"	"TRUE"	"MullerLyer"	"-14.12857000"	"0.0762700000"	"2"	"18"
n/a	"html-keyboard-response"	"220"	"415192"	"0.0-6.0-2.0-0.18"	"73hzod"	"600"	"1366"	"chrome"	"112.0.0"	"FALSE"	"Windows 10"	"60.14"	"066"	n/a	n/a	n/a	n/a	n/a	n/a	"fixation"	n/a	n/a	n/a	n/a	"NULL"	n/a	"NULL"	"NULL"	"NULL"	"<p style=\"color: black; font-size: 80px; padding-left: 19%; padding-right: 19%; padding-top: 24%; padding-bottom: 41%\">+</p>"	"1038"	n/a	n/a	n/a	n/a	n/a	n/a	n/a	n/a	n/a
n/a	"image-keyboard-response"	"221"	"415622"	"0.0-6.0-2.0-1.18"	"73hzod"	"600"	"1366"	"chrome"	"112.0.0"	"FALSE"	"Windows 10"	"60.14"	"066"	n/a	n/a	n/a	n/a	n/a	n/a	"Trial"	n/a	n/a	n/a	"429"	"arrowup"	n/a	"NULL"	"NULL"	"NULL"	"stimuli/MullerLyer_-2.3000_0.23665.png"	n/a	"MullerLyer"	"arrowup"	"1053"	"TRUE"	"MullerLyer"	"-2.300000000"	"0.2366500000"	"2"	"19"
n/a	"html-keyboard-response"	"222"	"416999"	"0.0-6.0-2.0-0.19"	"73hzod"	"600"	"1366"	"chrome"	"112.0.0"	"FALSE"	"Windows 10"	"60.14"	"066"	n/a	n/a	n/a	n/a	n/a	n/a	"fixation"	n/a	n/a	n/a	n/a	"NULL"	n/a	"NULL"	"NULL"	"NULL"	"<p style=\"color: black; font-size: 80px; padding-left: 1%; padding-right: 5%; padding-top: 5%; padding-bottom: 23%\">+</p>"	"1374"	n/a	n/a	n/a	n/a	n/a	n/a	n/a	n/a	n/a
n/a	"image-keyboard-response"	"223"	"417717"	"0.0-6.0-2.0-1.19"	"73hzod"	"600"	"1366"	"chrome"	"112.0.0"	"FALSE"	"Windows 10"	"60.14"	"066"	n/a	n/a	n/a	n/a	n/a	n/a	"Trial"	n/a	n/a	n/a	"717"	"arrowdown"	n/a	"NULL"	"NULL"	"NULL"	"stimuli/MullerLyer_2.30000_-0.07627.png"	n/a	"MullerLyer"	"arrowdown"	"1377"	"TRUE"	"MullerLyer"	"2.3000000000"	"-0.076270000"	"2"	"20"
n/a	"html-keyboard-response"	"224"	"419207"	"0.0-6.0-2.0-0.20"	"73hzod"	"600"	"1366"	"chrome"	"112.0.0"	"FALSE"	"Windows 10"	"60.14"	"066"	n/a	n/a	n/a	n/a	n/a	n/a	"fixation"	n/a	n/a	n/a	n/a	"NULL"	n/a	"NULL"	"NULL"	"NULL"	"<p style=\"color: black; font-size: 80px; padding-left: 30%; padding-right: 19%; padding-top: 39%; padding-bottom: 4%\">+</p>"	"1482"	n/a	n/a	n/a	n/a	n/a	n/a	n/a	n/a	n/a
n/a	"image-keyboard-response"	"225"	"420089"	"0.0-6.0-2.0-1.20"	"73hzod"	"600"	"1366"	"chrome"	"112.0.0"	"FALSE"	"Windows 10"	"60.14"	"066"	n/a	n/a	n/a	n/a	n/a	n/a	"Trial"	n/a	n/a	n/a	"881"	"arrowdown"	n/a	"NULL"	"NULL"	"NULL"	"stimuli/MullerLyer_8.21429_-0.3500.png"	n/a	"MullerLyer"	"arrowdown"	"1490"	"TRUE"	"MullerLyer"	"8.2142900000"	"-0.350000000"	"2"	"21"
n/a	"html-keyboard-response"	"226"	"421470"	"0.0-6.0-2.0-0.21"	"73hzod"	"600"	"1366"	"chrome"	"112.0.0"	"FALSE"	"Windows 10"	"60.14"	"066"	n/a	n/a	n/a	n/a	n/a	n/a	"fixation"	n/a	n/a	n/a	n/a	"NULL"	n/a	"NULL"	"NULL"	"NULL"	"<p style=\"color: black; font-size: 80px; padding-left: 46%; padding-right: 16%; padding-top: 7%; padding-bottom: 36%\">+</p>"	"1366"	n/a	n/a	n/a	n/a	n/a	n/a	n/a	n/a	n/a
n/a	"image-keyboard-response"	"227"	"422212"	"0.0-6.0-2.0-1.21"	"73hzod"	"600"	"1366"	"chrome"	"112.0.0"	"FALSE"	"Windows 10"	"60.14"	"066"	n/a	n/a	n/a	n/a	n/a	n/a	"Trial"	n/a	n/a	n/a	"738"	"arrowup"	n/a	"NULL"	"NULL"	"NULL"	"stimuli/MullerLyer_14.12857_-0.23665.png"	n/a	"MullerLyer"	"arrowdown"	"1381"	"FALSE"	"MullerLyer"	"14.128570000"	"-0.236650000"	"2"	"22"
n/a	"html-keyboard-response"	"228"	"423310"	"0.0-6.0-2.0-0.22"	"73hzod"	"600"	"1366"	"chrome"	"112.0.0"	"FALSE"	"Windows 10"	"60.14"	"066"	n/a	n/a	n/a	n/a	n/a	n/a	"fixation"	n/a	n/a	n/a	n/a	"NULL"	n/a	"NULL"	"NULL"	"NULL"	"<p style=\"color: black; font-size: 80px; padding-left: 7%; padding-right: 5%; padding-top: 32%; padding-bottom: 34%\">+</p>"	"1090"	n/a	n/a	n/a	n/a	n/a	n/a	n/a	n/a	n/a
n/a	"image-keyboard-response"	"229"	"423842"	"0.0-6.0-2.0-1.22"	"73hzod"	"600"	"1366"	"chrome"	"112.0.0"	"FALSE"	"Windows 10"	"60.14"	"066"	n/a	n/a	n/a	n/a	n/a	n/a	"Trial"	n/a	n/a	n/a	"531"	"arrowup"	n/a	"NULL"	"NULL"	"NULL"	"stimuli/MullerLyer_14.12857_-0.07627.png"	n/a	"MullerLyer"	"arrowdown"	"1098"	"FALSE"	"MullerLyer"	"14.128570000"	"-0.076270000"	"2"	"23"
n/a	"html-keyboard-response"	"230"	"424915"	"0.0-6.0-2.0-0.23"	"73hzod"	"600"	"1366"	"chrome"	"112.0.0"	"FALSE"	"Windows 10"	"60.14"	"066"	n/a	n/a	n/a	n/a	n/a	n/a	"fixation"	n/a	n/a	n/a	n/a	"NULL"	n/a	"NULL"	"NULL"	"NULL"	"<p style=\"color: black; font-size: 80px; padding-left: 31%; padding-right: 36%; padding-top: 5%; padding-bottom: 17%\">+</p>"	"1062"	n/a	n/a	n/a	n/a	n/a	n/a	n/a	n/a	n/a
n/a	"image-keyboard-response"	"231"	"425475"	"0.0-6.0-2.0-1.23"	"73hzod"	"600"	"1366"	"chrome"	"112.0.0"	"FALSE"	"Windows 10"	"60.14"	"066"	n/a	n/a	n/a	n/a	n/a	n/a	"Trial"	n/a	n/a	n/a	"559"	"arrowup"	n/a	"NULL"	"NULL"	"NULL"	"stimuli/MullerLyer_20.04286_0.23665.png"	n/a	"MullerLyer"	"arrowup"	"1073"	"TRUE"	"MullerLyer"	"20.042860000"	"0.2366500000"	"2"	"24"
n/a	"html-keyboard-response"	"232"	"426973"	"0.0-6.0-2.0-0.24"	"73hzod"	"600"	"1366"	"chrome"	"112.0.0"	"FALSE"	"Windows 10"	"60.14"	"066"	n/a	n/a	n/a	n/a	n/a	n/a	"fixation"	n/a	n/a	n/a	n/a	"NULL"	n/a	"NULL"	"NULL"	"NULL"	"<p style=\"color: black; font-size: 80px; padding-left: 3%; padding-right: 32%; padding-top: 45%; padding-bottom: 27%\">+</p>"	"1487"	n/a	n/a	n/a	n/a	n/a	n/a	n/a	n/a	n/a
n/a	"image-keyboard-response"	"233"	"427516"	"0.0-6.0-2.0-1.24"	"73hzod"	"600"	"1366"	"chrome"	"112.0.0"	"FALSE"	"Windows 10"	"60.14"	"066"	n/a	n/a	n/a	n/a	n/a	n/a	"Trial"	n/a	n/a	n/a	"542"	"arrowup"	n/a	"NULL"	"NULL"	"NULL"	"stimuli/MullerLyer_-8.21429_0.23665.png"	n/a	"MullerLyer"	"arrowup"	"1498"	"TRUE"	"MullerLyer"	"-8.214290000"	"0.2366500000"	"2"	"25"
n/a	"html-keyboard-response"	"234"	"428799"	"0.0-6.0-2.0-0.25"	"73hzod"	"600"	"1366"	"chrome"	"112.0.0"	"FALSE"	"Windows 10"	"60.14"	"066"	n/a	n/a	n/a	n/a	n/a	n/a	"fixation"	n/a	n/a	n/a	n/a	"NULL"	n/a	"NULL"	"NULL"	"NULL"	"<p style=\"color: black; font-size: 80px; padding-left: 7%; padding-right: 40%; padding-top: 9%; padding-bottom: 2%\">+</p>"	"1281"	n/a	n/a	n/a	n/a	n/a	n/a	n/a	n/a	n/a
n/a	"image-keyboard-response"	"235"	"429340"	"0.0-6.0-2.0-1.25"	"73hzod"	"600"	"1366"	"chrome"	"112.0.0"	"FALSE"	"Windows 10"	"60.14"	"066"	n/a	n/a	n/a	n/a	n/a	n/a	"Trial"	n/a	n/a	n/a	"540"	"arrowup"	n/a	"NULL"	"NULL"	"NULL"	"stimuli/MullerLyer_14.12857_0.23665.png"	n/a	"MullerLyer"	"arrowup"	"1283"	"TRUE"	"MullerLyer"	"14.128570000"	"0.2366500000"	"2"	"26"
n/a	"html-keyboard-response"	"236"	"430553"	"0.0-6.0-2.0-0.26"	"73hzod"	"600"	"1366"	"chrome"	"112.0.0"	"FALSE"	"Windows 10"	"60.14"	"066"	n/a	n/a	n/a	n/a	n/a	n/a	"fixation"	n/a	n/a	n/a	n/a	"NULL"	n/a	"NULL"	"NULL"	"NULL"	"<p style=\"color: black; font-size: 80px; padding-left: 19%; padding-right: 10%; padding-top: 37%; padding-bottom: 2%\">+</p>"	"1212"	n/a	n/a	n/a	n/a	n/a	n/a	n/a	n/a	n/a
n/a	"image-keyboard-response"	"237"	"431166"	"0.0-6.0-2.0-1.26"	"73hzod"	"600"	"1366"	"chrome"	"112.0.0"	"FALSE"	"Windows 10"	"60.14"	"066"	n/a	n/a	n/a	n/a	n/a	n/a	"Trial"	n/a	n/a	n/a	"612"	"arrowdown"	n/a	"NULL"	"NULL"	"NULL"	"stimuli/MullerLyer_-8.21429_-0.07627.png"	n/a	"MullerLyer"	"arrowdown"	"1213"	"TRUE"	"MullerLyer"	"-8.214290000"	"-0.076270000"	"2"	"27"
n/a	"html-keyboard-response"	"238"	"432175"	"0.0-6.0-2.0-0.27"	"73hzod"	"600"	"1366"	"chrome"	"112.0.0"	"FALSE"	"Windows 10"	"60.14"	"066"	n/a	n/a	n/a	n/a	n/a	n/a	"fixation"	n/a	n/a	n/a	n/a	"NULL"	n/a	"NULL"	"NULL"	"NULL"	"<p style=\"color: black; font-size: 80px; padding-left: 15%; padding-right: 33%; padding-top: 8%; padding-bottom: 43%\">+</p>"	"1000"	n/a	n/a	n/a	n/a	n/a	n/a	n/a	n/a	n/a
n/a	"image-keyboard-response"	"239"	"432688"	"0.0-6.0-2.0-1.27"	"73hzod"	"600"	"1366"	"chrome"	"112.0.0"	"FALSE"	"Windows 10"	"60.14"	"066"	n/a	n/a	n/a	n/a	n/a	n/a	"Trial"	n/a	n/a	n/a	"512"	"arrowup"	n/a	"NULL"	"NULL"	"NULL"	"stimuli/MullerLyer_14.12857_0.07627.png"	n/a	"MullerLyer"	"arrowup"	"1009"	"TRUE"	"MullerLyer"	"14.128570000"	"0.0762700000"	"2"	"28"
n/a	"html-keyboard-response"	"240"	"433772"	"0.0-6.0-2.0-0.28"	"73hzod"	"600"	"1366"	"chrome"	"112.0.0"	"FALSE"	"Windows 10"	"60.14"	"066"	n/a	n/a	n/a	n/a	n/a	n/a	"fixation"	n/a	n/a	n/a	n/a	"NULL"	n/a	"NULL"	"NULL"	"NULL"	"<p style=\"color: black; font-size: 80px; padding-left: 35%; padding-right: 23%; padding-top: 36%; padding-bottom: 34%\">+</p>"	"1072"	n/a	n/a	n/a	n/a	n/a	n/a	n/a	n/a	n/a
n/a	"image-keyboard-response"	"241"	"434237"	"0.0-6.0-2.0-1.28"	"73hzod"	"600"	"1366"	"chrome"	"112.0.0"	"FALSE"	"Windows 10"	"60.14"	"066"	n/a	n/a	n/a	n/a	n/a	n/a	"Trial"	n/a	n/a	n/a	"463"	"arrowdown"	n/a	"NULL"	"NULL"	"NULL"	"stimuli/MullerLyer_-20.04286_-0.23665.png"	n/a	"MullerLyer"	"arrowdown"	"1084"	"TRUE"	"MullerLyer"	"-20.04286000"	"-0.236650000"	"2"	"29"
n/a	"html-keyboard-response"	"242"	"435705"	"0.0-6.0-2.0-0.29"	"73hzod"	"600"	"1366"	"chrome"	"112.0.0"	"FALSE"	"Windows 10"	"60.14"	"066"	n/a	n/a	n/a	n/a	n/a	n/a	"fixation"	n/a	n/a	n/a	n/a	"NULL"	n/a	"NULL"	"NULL"	"NULL"	"<p style=\"color: black; font-size: 80px; padding-left: 43%; padding-right: 36%; padding-top: 31%; padding-bottom: 43%\">+</p>"	"1468"	n/a	n/a	n/a	n/a	n/a	n/a	n/a	n/a	n/a
n/a	"image-keyboard-response"	"243"	"436294"	"0.0-6.0-2.0-1.29"	"73hzod"	"600"	"1366"	"chrome"	"112.0.0"	"FALSE"	"Windows 10"	"60.14"	"066"	n/a	n/a	n/a	n/a	n/a	n/a	"Trial"	n/a	n/a	n/a	"588"	"arrowup"	n/a	"NULL"	"NULL"	"NULL"	"stimuli/MullerLyer_-2.3000_0.14541.png"	n/a	"MullerLyer"	"arrowup"	"1468"	"TRUE"	"MullerLyer"	"-2.300000000"	"0.1454100000"	"2"	"30"
n/a	"html-keyboard-response"	"244"	"437585"	"0.0-6.0-2.0-0.30"	"73hzod"	"600"	"1366"	"chrome"	"112.0.0"	"FALSE"	"Windows 10"	"60.14"	"066"	n/a	n/a	n/a	n/a	n/a	n/a	"fixation"	n/a	n/a	n/a	n/a	"NULL"	n/a	"NULL"	"NULL"	"NULL"	"<p style=\"color: black; font-size: 80px; padding-left: 11%; padding-right: 28%; padding-top: 6%; padding-bottom: 44%\">+</p>"	"1287"	n/a	n/a	n/a	n/a	n/a	n/a	n/a	n/a	n/a
n/a	"image-keyboard-response"	"245"	"438020"	"0.0-6.0-2.0-1.30"	"73hzod"	"600"	"1366"	"chrome"	"112.0.0"	"FALSE"	"Windows 10"	"60.14"	"066"	n/a	n/a	n/a	n/a	n/a	n/a	"Trial"	n/a	n/a	n/a	"434"	"arrowdown"	n/a	"NULL"	"NULL"	"NULL"	"stimuli/MullerLyer_-14.12857_-0.23665.png"	n/a	"MullerLyer"	"arrowdown"	"1291"	"TRUE"	"MullerLyer"	"-14.12857000"	"-0.236650000"	"2"	"31"
n/a	"html-keyboard-response"	"246"	"439396"	"0.0-6.0-2.0-0.31"	"73hzod"	"600"	"1366"	"chrome"	"112.0.0"	"FALSE"	"Windows 10"	"60.14"	"066"	n/a	n/a	n/a	n/a	n/a	n/a	"fixation"	n/a	n/a	n/a	n/a	"NULL"	n/a	"NULL"	"NULL"	"NULL"	"<p style=\"color: black; font-size: 80px; padding-left: 10%; padding-right: 9%; padding-top: 34%; padding-bottom: 47%\">+</p>"	"1374"	n/a	n/a	n/a	n/a	n/a	n/a	n/a	n/a	n/a
n/a	"image-keyboard-response"	"247"	"440237"	"0.0-6.0-2.0-1.31"	"73hzod"	"600"	"1366"	"chrome"	"112.0.0"	"FALSE"	"Windows 10"	"60.14"	"066"	n/a	n/a	n/a	n/a	n/a	n/a	"Trial"	n/a	n/a	n/a	"840"	"arrowdown"	n/a	"NULL"	"NULL"	"NULL"	"stimuli/MullerLyer_-2.3000_-0.23665.png"	n/a	"MullerLyer"	"arrowdown"	"1376"	"TRUE"	"MullerLyer"	"-2.300000000"	"-0.236650000"	"2"	"32"
n/a	"html-keyboard-response"	"248"	"441580"	"0.0-6.0-2.0-0.32"	"73hzod"	"600"	"1366"	"chrome"	"112.0.0"	"FALSE"	"Windows 10"	"60.14"	"066"	n/a	n/a	n/a	n/a	n/a	n/a	"fixation"	n/a	n/a	n/a	n/a	"NULL"	n/a	"NULL"	"NULL"	"NULL"	"<p style=\"color: black; font-size: 80px; padding-left: 26%; padding-right: 1%; padding-top: 33%; padding-bottom: 45%\">+</p>"	"1341"	n/a	n/a	n/a	n/a	n/a	n/a	n/a	n/a	n/a
n/a	"image-keyboard-response"	"249"	"442360"	"0.0-6.0-2.0-1.32"	"73hzod"	"600"	"1366"	"chrome"	"112.0.0"	"FALSE"	"Windows 10"	"60.14"	"066"	n/a	n/a	n/a	n/a	n/a	n/a	"Trial"	n/a	n/a	n/a	"779"	"arrowup"	n/a	"NULL"	"NULL"	"NULL"	"stimuli/MullerLyer_-2.3000_0.07627.png"	n/a	"MullerLyer"	"arrowup"	"1343"	"TRUE"	"MullerLyer"	"-2.300000000"	"0.0762700000"	"2"	"33"
