"success"	"trial_type"	"trial_index"	"time_elapsed"	"internal_node_id"	"participant_id"	"screen_height"	"screen_width"	"browser"	"browser_version"	"mobile"	"os"	"vsync_rate"	"subject_id"	"width"	"height"	"webaudio"	"fullscreen"	"webcam"	"microphone"	"screen"	"version"	"date"	"time"	"rt"	"response"	"timeout"	"failed_images"	"failed_audio"	"failed_video"	"stimulus"	"trial_duration"	"block"	"correct_response"	"prestimulus_duration"	"correct"	"type"	"illusion_strength"	"illusion_difference"	"block_number"	"trial_number"
"TRUE"	"fullscreen"	"0"	"1701"	"0.0-0.0"	"kkph67"	"600"	"1366"	"chrome"	"110.0.0"	"FALSE"	"Windows 10"	"60.74"	"029"	n/a	n/a	n/a	n/a	n/a	n/a	n/a	n/a	n/a	n/a	n/a	"NULL"	n/a	"NULL"	"NULL"	"NULL"	n/a	n/a	n/a	n/a	n/a	n/a	n/a	n/a	n/a	n/a	n/a
n/a	"browser-check"	"1"	"2715"	"0.0-1.0"	"kkph67"	"600"	"1366"	"chrome"	"110.0.0"	"FALSE"	"Windows 10"	"60.74"	"029"	"1366"	"600"	"TRUE"	"TRUE"	"TRUE"	"TRUE"	"browser_info"	"1.0"	"01/03/2023"	"14:40:46"	n/a	"NULL"	n/a	"NULL"	"NULL"	"NULL"	n/a	n/a	n/a	n/a	n/a	n/a	n/a	n/a	n/a	n/a	n/a
n/a	"survey-text"	"2"	"4781"	"0.0-2.0"	"kkph67"	"600"	"1366"	"chrome"	"110.0.0"	"FALSE"	"Windows 10"	"60.74"	"029"	n/a	n/a	n/a	n/a	n/a	n/a	"subject_id"	n/a	n/a	n/a	"2062"	"list(subject_id = \"029\")"	n/a	"NULL"	"NULL"	"NULL"	n/a	n/a	n/a	n/a	n/a	n/a	n/a	n/a	n/a	n/a	n/a
"TRUE"	"preload"	"3"	"4795"	"0.0-3.0"	"kkph67"	"600"	"1366"	"chrome"	"110.0.0"	"FALSE"	"Windows 10"	"60.74"	"029"	n/a	n/a	n/a	n/a	n/a	n/a	n/a	n/a	n/a	n/a	n/a	"NULL"	"FALSE"	"list()"	"list()"	"list()"	n/a	n/a	n/a	n/a	n/a	n/a	n/a	n/a	n/a	n/a	n/a
n/a	"html-button-response"	"4"	"61179"	"0.0-4.0-0.0"	"kkph67"	"600"	"1366"	"chrome"	"110.0.0"	"FALSE"	"Windows 10"	"60.74"	"029"	n/a	n/a	n/a	n/a	n/a	n/a	"illusion_instructions"	n/a	n/a	n/a	"56382"	"0"	n/a	"NULL"	"NULL"	"NULL"	"<p><b>Illusion Game</b></p><p>In this game of speed and reflex, you will need to make <b>visual judgments</b> (for instance, which circle is the biggest, or which line is the longest), as fast and as correctly as possible, while <b>resisting different visual illusions</b>.</p><p>We are going to start with some examples of all the illusions you will encounter in the game.</p>"	n/a	n/a	n/a	n/a	n/a	n/a	n/a	n/a	n/a	n/a
"TRUE"	"preload"	"5"	"61204"	"0.0-4.0-1.0-0.0"	"kkph67"	"600"	"1366"	"chrome"	"110.0.0"	"FALSE"	"Windows 10"	"60.74"	"029"	n/a	n/a	n/a	n/a	n/a	n/a	n/a	n/a	n/a	n/a	n/a	"NULL"	"FALSE"	"list()"	"list()"	"list()"	n/a	n/a	n/a	n/a	n/a	n/a	n/a	n/a	n/a	n/a	n/a
n/a	"html-keyboard-response"	"6"	"113443"	"0.0-4.0-1.0-1.0"	"kkph67"	"600"	"1366"	"chrome"	"110.0.0"	"FALSE"	"Windows 10"	"60.74"	"029"	n/a	n/a	n/a	n/a	n/a	n/a	n/a	n/a	n/a	n/a	"52237"	"enter"	n/a	"NULL"	"NULL"	"NULL"	"<p><b>Practice</b></p><p>In this part, two red circles will appear side by side on the screen.</p><p>Your task is to select which <b>red circle is bigger</b> in size as fast as you can, without making errors.</p><p>Don't get distracted by the surrounding black circles around the red circles!</p><p>Press <b>the LEFT or the RIGHT arrow</b> to indicate which is the bigger <b>red circle.</b></p><div style='float: center'><img src='materials/instructions/Ebbinghaus_Demo.png' height='300'></img><p><img src='utils/answer/answer_leftright_keyboard.PNG' height='150'></img></p><p class='small'>In this example, the correct answer is the <b>LEFT arrow</b>.</p></div><p>Are you ready? <b>Press ENTER to start</b></p>"	n/a	n/a	n/a	n/a	n/a	n/a	n/a	n/a	n/a	n/a
n/a	"html-keyboard-response"	"7"	"115281"	"0.0-4.0-1.0-2.0-0.0"	"kkph67"	"600"	"1366"	"chrome"	"110.0.0"	"FALSE"	"Windows 10"	"60.74"	"029"	n/a	n/a	n/a	n/a	n/a	n/a	"fixation"	n/a	n/a	n/a	n/a	"NULL"	n/a	"NULL"	"NULL"	"NULL"	"<p style=\"color: black; font-size: 80px; padding-left: 20%; padding-right: 5%; padding-top: 12%; padding-bottom: 3%\">+</p>"	"1321"	n/a	n/a	n/a	n/a	n/a	n/a	n/a	n/a	n/a
n/a	"image-keyboard-response"	"8"	"117132"	"0.0-4.0-1.0-2.0-1.0"	"kkph67"	"600"	"1366"	"chrome"	"110.0.0"	"FALSE"	"Windows 10"	"60.74"	"029"	n/a	n/a	n/a	n/a	n/a	n/a	"Trial"	n/a	n/a	n/a	"1843"	"arrowright"	n/a	"NULL"	"NULL"	"NULL"	"stimuli/Ebbinghaus_1000000_-1.4000.png"	n/a	"Ebbinghaus"	"arrowright"	"1838"	"TRUE"	"Ebbinghaus"	"100000000000"	"-1.400000000"	"1"	"1"
n/a	"html-keyboard-response"	"9"	"118603"	"0.0-4.0-1.0-2.0-0.1"	"kkph67"	"600"	"1366"	"chrome"	"110.0.0"	"FALSE"	"Windows 10"	"60.74"	"029"	n/a	n/a	n/a	n/a	n/a	n/a	"fixation"	n/a	n/a	n/a	n/a	"NULL"	n/a	"NULL"	"NULL"	"NULL"	"<p style=\"color: black; font-size: 80px; padding-left: 30%; padding-right: 2%; padding-top: 49%; padding-bottom: 28%\">+</p>"	"1457"	n/a	n/a	n/a	n/a	n/a	n/a	n/a	n/a	n/a
n/a	"image-keyboard-response"	"10"	"119403"	"0.0-4.0-1.0-2.0-1.1"	"kkph67"	"600"	"1366"	"chrome"	"110.0.0"	"FALSE"	"Windows 10"	"60.74"	"029"	n/a	n/a	n/a	n/a	n/a	n/a	"Trial"	n/a	n/a	n/a	"798"	"arrowright"	n/a	"NULL"	"NULL"	"NULL"	"stimuli/Ebbinghaus_0000000_-1.4000.png"	n/a	"Ebbinghaus"	"arrowright"	"1471"	"TRUE"	"Ebbinghaus"	"000000000000"	"-1.400000000"	"1"	"2"
n/a	"html-keyboard-response"	"11"	"120511"	"0.0-4.0-1.0-2.0-0.2"	"kkph67"	"600"	"1366"	"chrome"	"110.0.0"	"FALSE"	"Windows 10"	"60.74"	"029"	n/a	n/a	n/a	n/a	n/a	n/a	"fixation"	n/a	n/a	n/a	n/a	"NULL"	n/a	"NULL"	"NULL"	"NULL"	"<p style=\"color: black; font-size: 80px; padding-left: 32%; padding-right: 40%; padding-top: 8%; padding-bottom: 42%\">+</p>"	"1095"	n/a	n/a	n/a	n/a	n/a	n/a	n/a	n/a	n/a
n/a	"image-keyboard-response"	"12"	"121233"	"0.0-4.0-1.0-2.0-1.2"	"kkph67"	"600"	"1366"	"chrome"	"110.0.0"	"FALSE"	"Windows 10"	"60.74"	"029"	n/a	n/a	n/a	n/a	n/a	n/a	"Trial"	n/a	n/a	n/a	"722"	"arrowleft"	n/a	"NULL"	"NULL"	"NULL"	"stimuli/Ebbinghaus_-100000_1.40000.png"	n/a	"Ebbinghaus"	"arrowleft"	"1108"	"TRUE"	"Ebbinghaus"	"-10000000000"	"1.4000000000"	"1"	"3"
n/a	"html-keyboard-response"	"13"	"122384"	"0.0-4.0-1.0-2.0-0.3"	"kkph67"	"600"	"1366"	"chrome"	"110.0.0"	"FALSE"	"Windows 10"	"60.74"	"029"	n/a	n/a	n/a	n/a	n/a	n/a	"fixation"	n/a	n/a	n/a	n/a	"NULL"	n/a	"NULL"	"NULL"	"NULL"	"<p style=\"color: black; font-size: 80px; padding-left: 26%; padding-right: 29%; padding-top: 37%; padding-bottom: 15%\">+</p>"	"1143"	n/a	n/a	n/a	n/a	n/a	n/a	n/a	n/a	n/a
n/a	"image-keyboard-response"	"14"	"123000"	"0.0-4.0-1.0-2.0-1.3"	"kkph67"	"600"	"1366"	"chrome"	"110.0.0"	"FALSE"	"Windows 10"	"60.74"	"029"	n/a	n/a	n/a	n/a	n/a	n/a	"Trial"	n/a	n/a	n/a	"615"	"arrowleft"	n/a	"NULL"	"NULL"	"NULL"	"stimuli/Ebbinghaus_1000000_1.40000.png"	n/a	"Ebbinghaus"	"arrowleft"	"1151"	"TRUE"	"Ebbinghaus"	"100000000000"	"1.4000000000"	"1"	"4"
n/a	"html-keyboard-response"	"15"	"124115"	"0.0-4.0-1.0-2.0-0.4"	"kkph67"	"600"	"1366"	"chrome"	"110.0.0"	"FALSE"	"Windows 10"	"60.74"	"029"	n/a	n/a	n/a	n/a	n/a	n/a	"fixation"	n/a	n/a	n/a	n/a	"NULL"	n/a	"NULL"	"NULL"	"NULL"	"<p style=\"color: black; font-size: 80px; padding-left: 35%; padding-right: 8%; padding-top: 8%; padding-bottom: 10%\">+</p>"	"1107"	n/a	n/a	n/a	n/a	n/a	n/a	n/a	n/a	n/a
n/a	"image-keyboard-response"	"16"	"124658"	"0.0-4.0-1.0-2.0-1.4"	"kkph67"	"600"	"1366"	"chrome"	"110.0.0"	"FALSE"	"Windows 10"	"60.74"	"029"	n/a	n/a	n/a	n/a	n/a	n/a	"Trial"	n/a	n/a	n/a	"542"	"arrowright"	n/a	"NULL"	"NULL"	"NULL"	"stimuli/Ebbinghaus_-100000_-1.4000.png"	n/a	"Ebbinghaus"	"arrowright"	"1115"	"TRUE"	"Ebbinghaus"	"-10000000000"	"-1.400000000"	"1"	"5"
n/a	"html-keyboard-response"	"17"	"125728"	"0.0-4.0-1.0-2.0-0.5"	"kkph67"	"600"	"1366"	"chrome"	"110.0.0"	"FALSE"	"Windows 10"	"60.74"	"029"	n/a	n/a	n/a	n/a	n/a	n/a	"fixation"	n/a	n/a	n/a	n/a	"NULL"	n/a	"NULL"	"NULL"	"NULL"	"<p style=\"color: black; font-size: 80px; padding-left: 41%; padding-right: 14%; padding-top: 48%; padding-bottom: 45%\">+</p>"	"1068"	n/a	n/a	n/a	n/a	n/a	n/a	n/a	n/a	n/a
n/a	"image-keyboard-response"	"18"	"126272"	"0.0-4.0-1.0-2.0-1.5"	"kkph67"	"600"	"1366"	"chrome"	"110.0.0"	"FALSE"	"Windows 10"	"60.74"	"029"	n/a	n/a	n/a	n/a	n/a	n/a	"Trial"	n/a	n/a	n/a	"544"	"arrowleft"	n/a	"NULL"	"NULL"	"NULL"	"stimuli/Ebbinghaus_0000000_1.40000.png"	n/a	"Ebbinghaus"	"arrowleft"	"1070"	"TRUE"	"Ebbinghaus"	"000000000000"	"1.4000000000"	"1"	"6"
n/a	"html-button-response"	"19"	"130419"	"0.0-4.0-1.0-3.0"	"kkph67"	"600"	"1366"	"chrome"	"110.0.0"	"FALSE"	"Windows 10"	"60.74"	"029"	n/a	n/a	n/a	n/a	n/a	n/a	"practice_block_results"	n/a	n/a	n/a	"4145"	"0"	n/a	"NULL"	"NULL"	"NULL"	"<p style='color:rgb(76,175,80);'> Correct Responses: <b>100.00%</b></p><hr><p style='color:rgb(233,30,99);'> Average Response Time: <b>844.00</b> ms.</p>"	n/a	n/a	n/a	n/a	n/a	n/a	n/a	n/a	n/a	n/a
"TRUE"	"preload"	"20"	"130951"	"0.0-4.0-2.0-0.0"	"kkph67"	"600"	"1366"	"chrome"	"110.0.0"	"FALSE"	"Windows 10"	"60.74"	"029"	n/a	n/a	n/a	n/a	n/a	n/a	n/a	n/a	n/a	n/a	n/a	"NULL"	"FALSE"	"list()"	"list()"	"list()"	n/a	n/a	n/a	n/a	n/a	n/a	n/a	n/a	n/a	n/a	n/a
n/a	"html-keyboard-response"	"21"	"136284"	"0.0-4.0-2.0-1.0"	"kkph67"	"600"	"1366"	"chrome"	"110.0.0"	"FALSE"	"Windows 10"	"60.74"	"029"	n/a	n/a	n/a	n/a	n/a	n/a	n/a	n/a	n/a	n/a	"5332"	"enter"	n/a	"NULL"	"NULL"	"NULL"	"<p><b>Practice</b></p><p>In this part, two horizontal red lines will appear one above the other.</p><p>Your task is to select which <b>line is longer</b> in length as fast as you can, without making errors.</p><p>Don't get distracted by the surrounding black arrows at the end of the red lines!</p><p>Press <b>the UP or the DOWN arrow</b> to indicate where is the longer <b>red line.</b></p><div style='float: center'><img src='materials/instructions/MullerLyer_Demo.png' height='300'></img><p><img src='utils/answer/answer_updown_keyboard.PNG' height='150'></img></p><p class='small'>In this example, the correct answer is the <b>UP arrow</b>.</p></div><p>Are you ready? <b>Press ENTER to start</b></p>"	n/a	n/a	n/a	n/a	n/a	n/a	n/a	n/a	n/a	n/a
n/a	"html-keyboard-response"	"22"	"137980"	"0.0-4.0-2.0-2.0-0.0"	"kkph67"	"600"	"1366"	"chrome"	"110.0.0"	"FALSE"	"Windows 10"	"60.74"	"029"	n/a	n/a	n/a	n/a	n/a	n/a	"fixation"	n/a	n/a	n/a	n/a	"NULL"	n/a	"NULL"	"NULL"	"NULL"	"<p style=\"color: black; font-size: 80px; padding-left: 12%; padding-right: 35%; padding-top: 18%; padding-bottom: 21%\">+</p>"	"1170"	n/a	n/a	n/a	n/a	n/a	n/a	n/a	n/a	n/a
n/a	"image-keyboard-response"	"23"	"138639"	"0.0-4.0-2.0-2.0-1.0"	"kkph67"	"600"	"1366"	"chrome"	"110.0.0"	"FALSE"	"Windows 10"	"60.74"	"029"	n/a	n/a	n/a	n/a	n/a	n/a	"Trial"	n/a	n/a	n/a	"658"	"arrowdown"	n/a	"NULL"	"NULL"	"NULL"	"stimuli/MullerLyer_2300000_-0.7000.png"	n/a	"MullerLyer"	"arrowdown"	"1696"	"TRUE"	"MullerLyer"	"230000000000"	"-0.700000000"	"1"	"7"
n/a	"html-keyboard-response"	"24"	"139944"	"0.0-4.0-2.0-2.0-0.1"	"kkph67"	"600"	"1366"	"chrome"	"110.0.0"	"FALSE"	"Windows 10"	"60.74"	"029"	n/a	n/a	n/a	n/a	n/a	n/a	"fixation"	n/a	n/a	n/a	n/a	"NULL"	n/a	"NULL"	"NULL"	"NULL"	"<p style=\"color: black; font-size: 80px; padding-left: 20%; padding-right: 17%; padding-top: 44%; padding-bottom: 11%\">+</p>"	"1290"	n/a	n/a	n/a	n/a	n/a	n/a	n/a	n/a	n/a
n/a	"image-keyboard-response"	"25"	"140571"	"0.0-4.0-2.0-2.0-1.1"	"kkph67"	"600"	"1366"	"chrome"	"110.0.0"	"FALSE"	"Windows 10"	"60.74"	"029"	n/a	n/a	n/a	n/a	n/a	n/a	"Trial"	n/a	n/a	n/a	"626"	"arrowup"	n/a	"NULL"	"NULL"	"NULL"	"stimuli/MullerLyer_2300000_0.70000.png"	n/a	"MullerLyer"	"arrowup"	"1305"	"TRUE"	"MullerLyer"	"230000000000"	"0.7000000000"	"1"	"8"
n/a	"html-keyboard-response"	"26"	"141640"	"0.0-4.0-2.0-2.0-0.2"	"kkph67"	"600"	"1366"	"chrome"	"110.0.0"	"FALSE"	"Windows 10"	"60.74"	"029"	n/a	n/a	n/a	n/a	n/a	n/a	"fixation"	n/a	n/a	n/a	n/a	"NULL"	n/a	"NULL"	"NULL"	"NULL"	"<p style=\"color: black; font-size: 80px; padding-left: 22%; padding-right: 20%; padding-top: 11%; padding-bottom: 34%\">+</p>"	"1058"	n/a	n/a	n/a	n/a	n/a	n/a	n/a	n/a	n/a
n/a	"image-keyboard-response"	"27"	"142587"	"0.0-4.0-2.0-2.0-1.2"	"kkph67"	"600"	"1366"	"chrome"	"110.0.0"	"FALSE"	"Windows 10"	"60.74"	"029"	n/a	n/a	n/a	n/a	n/a	n/a	"Trial"	n/a	n/a	n/a	"947"	"arrowdown"	n/a	"NULL"	"NULL"	"NULL"	"stimuli/MullerLyer_0000000_-0.7000.png"	n/a	"MullerLyer"	"arrowdown"	"1069"	"TRUE"	"MullerLyer"	"000000000000"	"-0.700000000"	"1"	"9"
n/a	"html-keyboard-response"	"28"	"143808"	"0.0-4.0-2.0-2.0-0.3"	"kkph67"	"600"	"1366"	"chrome"	"110.0.0"	"FALSE"	"Windows 10"	"60.74"	"029"	n/a	n/a	n/a	n/a	n/a	n/a	"fixation"	n/a	n/a	n/a	n/a	"NULL"	n/a	"NULL"	"NULL"	"NULL"	"<p style=\"color: black; font-size: 80px; padding-left: 40%; padding-right: 24%; padding-top: 16%; padding-bottom: 35%\">+</p>"	"1219"	n/a	n/a	n/a	n/a	n/a	n/a	n/a	n/a	n/a
n/a	"image-keyboard-response"	"29"	"144439"	"0.0-4.0-2.0-2.0-1.3"	"kkph67"	"600"	"1366"	"chrome"	"110.0.0"	"FALSE"	"Windows 10"	"60.74"	"029"	n/a	n/a	n/a	n/a	n/a	n/a	"Trial"	n/a	n/a	n/a	"630"	"arrowdown"	n/a	"NULL"	"NULL"	"NULL"	"stimuli/MullerLyer_-230000_-0.7000.png"	n/a	"MullerLyer"	"arrowdown"	"1221"	"TRUE"	"MullerLyer"	"-23000000000"	"-0.700000000"	"1"	"10"
n/a	"html-keyboard-response"	"30"	"145820"	"0.0-4.0-2.0-2.0-0.4"	"kkph67"	"600"	"1366"	"chrome"	"110.0.0"	"FALSE"	"Windows 10"	"60.74"	"029"	n/a	n/a	n/a	n/a	n/a	n/a	"fixation"	n/a	n/a	n/a	n/a	"NULL"	n/a	"NULL"	"NULL"	"NULL"	"<p style=\"color: black; font-size: 80px; padding-left: 42%; padding-right: 15%; padding-top: 34%; padding-bottom: 49%\">+</p>"	"1372"	n/a	n/a	n/a	n/a	n/a	n/a	n/a	n/a	n/a
n/a	"image-keyboard-response"	"31"	"146433"	"0.0-4.0-2.0-2.0-1.4"	"kkph67"	"600"	"1366"	"chrome"	"110.0.0"	"FALSE"	"Windows 10"	"60.74"	"029"	n/a	n/a	n/a	n/a	n/a	n/a	"Trial"	n/a	n/a	n/a	"613"	"arrowup"	n/a	"NULL"	"NULL"	"NULL"	"stimuli/MullerLyer_0000000_0.70000.png"	n/a	"MullerLyer"	"arrowup"	"1381"	"TRUE"	"MullerLyer"	"000000000000"	"0.7000000000"	"1"	"11"
n/a	"html-keyboard-response"	"32"	"147802"	"0.0-4.0-2.0-2.0-0.5"	"kkph67"	"600"	"1366"	"chrome"	"110.0.0"	"FALSE"	"Windows 10"	"60.74"	"029"	n/a	n/a	n/a	n/a	n/a	n/a	"fixation"	n/a	n/a	n/a	n/a	"NULL"	n/a	"NULL"	"NULL"	"NULL"	"<p style=\"color: black; font-size: 80px; padding-left: 28%; padding-right: 47%; padding-top: 49%; padding-bottom: 43%\">+</p>"	"1359"	n/a	n/a	n/a	n/a	n/a	n/a	n/a	n/a	n/a
n/a	"image-keyboard-response"	"33"	"148435"	"0.0-4.0-2.0-2.0-1.5"	"kkph67"	"600"	"1366"	"chrome"	"110.0.0"	"FALSE"	"Windows 10"	"60.74"	"029"	n/a	n/a	n/a	n/a	n/a	n/a	"Trial"	n/a	n/a	n/a	"633"	"arrowup"	n/a	"NULL"	"NULL"	"NULL"	"stimuli/MullerLyer_-230000_0.70000.png"	n/a	"MullerLyer"	"arrowup"	"1369"	"TRUE"	"MullerLyer"	"-23000000000"	"0.7000000000"	"1"	"12"
n/a	"html-button-response"	"34"	"150931"	"0.0-4.0-2.0-3.0"	"kkph67"	"600"	"1366"	"chrome"	"110.0.0"	"FALSE"	"Windows 10"	"60.74"	"029"	n/a	n/a	n/a	n/a	n/a	n/a	"practice_block_results"	n/a	n/a	n/a	"2492"	"0"	n/a	"NULL"	"NULL"	"NULL"	"<p style='color:rgb(76,175,80);'> Correct Responses: <b>100.00%</b></p><hr><p style='color:rgb(233,30,99);'> Average Response Time: <b>684.50</b> ms.</p>"	n/a	n/a	n/a	n/a	n/a	n/a	n/a	n/a	n/a	n/a
"TRUE"	"preload"	"35"	"151454"	"0.0-4.0-3.0-0.0"	"kkph67"	"600"	"1366"	"chrome"	"110.0.0"	"FALSE"	"Windows 10"	"60.74"	"029"	n/a	n/a	n/a	n/a	n/a	n/a	n/a	n/a	n/a	n/a	n/a	"NULL"	"FALSE"	"list()"	"list()"	"list()"	n/a	n/a	n/a	n/a	n/a	n/a	n/a	n/a	n/a	n/a	n/a
n/a	"html-keyboard-response"	"36"	"158456"	"0.0-4.0-3.0-1.0"	"kkph67"	"600"	"1366"	"chrome"	"110.0.0"	"FALSE"	"Windows 10"	"60.74"	"029"	n/a	n/a	n/a	n/a	n/a	n/a	n/a	n/a	n/a	n/a	"7002"	"enter"	n/a	"NULL"	"NULL"	"NULL"	"<p><b>Practice</b></p><p>In this part, two red lines will appear side by side.</p><p>Your task is to tell <b>which line is longer</b> in length, regardless of their orientation, as fast as you can, and without making errors.</p><p>Don't get distracted by the orientation of the lines!</p><p>Press <b>the LEFT or the RIGHT arrow</b> to indicate which <b>line is the longer one.</b></p><div style='float: center'><img src='materials/instructions/VerticalHorizontal_Demo.png' height='300'></img><p><img src='utils/answer/answer_leftright_keyboard.PNG' height='150'></img></p><p class='small'>In this example, the correct answer is the <b>LEFT arrow</b>.</p></div><p>Are you ready? <b>Press ENTER to start</b></p>"	n/a	n/a	n/a	n/a	n/a	n/a	n/a	n/a	n/a	n/a
n/a	"html-keyboard-response"	"37"	"160025"	"0.0-4.0-3.0-2.0-0.0"	"kkph67"	"600"	"1366"	"chrome"	"110.0.0"	"FALSE"	"Windows 10"	"60.74"	"029"	n/a	n/a	n/a	n/a	n/a	n/a	"fixation"	n/a	n/a	n/a	n/a	"NULL"	n/a	"NULL"	"NULL"	"NULL"	"<p style=\"color: black; font-size: 80px; padding-left: 18%; padding-right: 20%; padding-top: 2%; padding-bottom: 32%\">+</p>"	"1056"	n/a	n/a	n/a	n/a	n/a	n/a	n/a	n/a	n/a
n/a	"image-keyboard-response"	"38"	"160569"	"0.0-4.0-3.0-2.0-1.0"	"kkph67"	"600"	"1366"	"chrome"	"110.0.0"	"FALSE"	"Windows 10"	"60.74"	"029"	n/a	n/a	n/a	n/a	n/a	n/a	"Trial"	n/a	n/a	n/a	"544"	"arrowleft"	n/a	"NULL"	"NULL"	"NULL"	"stimuli/VerticalHorizontal_-330000_0.90000.png"	n/a	"VerticalHorizontal"	"arrowleft"	"1569"	"TRUE"	"VerticalHorizontal"	"-33000000000"	"0.9000000000"	"1"	"13"
n/a	"html-keyboard-response"	"39"	"162028"	"0.0-4.0-3.0-2.0-0.1"	"kkph67"	"600"	"1366"	"chrome"	"110.0.0"	"FALSE"	"Windows 10"	"60.74"	"029"	n/a	n/a	n/a	n/a	n/a	n/a	"fixation"	n/a	n/a	n/a	n/a	"NULL"	n/a	"NULL"	"NULL"	"NULL"	"<p style=\"color: black; font-size: 80px; padding-left: 34%; padding-right: 13%; padding-top: 36%; padding-bottom: 25%\">+</p>"	"1449"	n/a	n/a	n/a	n/a	n/a	n/a	n/a	n/a	n/a
n/a	"image-keyboard-response"	"40"	"162500"	"0.0-4.0-3.0-2.0-1.1"	"kkph67"	"600"	"1366"	"chrome"	"110.0.0"	"FALSE"	"Windows 10"	"60.74"	"029"	n/a	n/a	n/a	n/a	n/a	n/a	"Trial"	n/a	n/a	n/a	"471"	"arrowright"	n/a	"NULL"	"NULL"	"NULL"	"stimuli/VerticalHorizontal_-330000_-0.9000.png"	n/a	"VerticalHorizontal"	"arrowright"	"1459"	"TRUE"	"VerticalHorizontal"	"-33000000000"	"-0.900000000"	"1"	"14"
n/a	"html-keyboard-response"	"41"	"163831"	"0.0-4.0-3.0-2.0-0.2"	"kkph67"	"600"	"1366"	"chrome"	"110.0.0"	"FALSE"	"Windows 10"	"60.74"	"029"	n/a	n/a	n/a	n/a	n/a	n/a	"fixation"	n/a	n/a	n/a	n/a	"NULL"	n/a	"NULL"	"NULL"	"NULL"	"<p style=\"color: black; font-size: 80px; padding-left: 26%; padding-right: 41%; padding-top: 15%; padding-bottom: 6%\">+</p>"	"1330"	n/a	n/a	n/a	n/a	n/a	n/a	n/a	n/a	n/a
n/a	"image-keyboard-response"	"42"	"164317"	"0.0-4.0-3.0-2.0-1.2"	"kkph67"	"600"	"1366"	"chrome"	"110.0.0"	"FALSE"	"Windows 10"	"60.74"	"029"	n/a	n/a	n/a	n/a	n/a	n/a	"Trial"	n/a	n/a	n/a	"485"	"arrowright"	n/a	"NULL"	"NULL"	"NULL"	"stimuli/VerticalHorizontal_0000000_-0.9000.png"	n/a	"VerticalHorizontal"	"arrowright"	"1331"	"TRUE"	"VerticalHorizontal"	"000000000000"	"-0.900000000"	"1"	"15"
n/a	"html-keyboard-response"	"43"	"165651"	"0.0-4.0-3.0-2.0-0.3"	"kkph67"	"600"	"1366"	"chrome"	"110.0.0"	"FALSE"	"Windows 10"	"60.74"	"029"	n/a	n/a	n/a	n/a	n/a	n/a	"fixation"	n/a	n/a	n/a	n/a	"NULL"	n/a	"NULL"	"NULL"	"NULL"	"<p style=\"color: black; font-size: 80px; padding-left: 36%; padding-right: 6%; padding-top: 33%; padding-bottom: 11%\">+</p>"	"1328"	n/a	n/a	n/a	n/a	n/a	n/a	n/a	n/a	n/a
n/a	"image-keyboard-response"	"44"	"166358"	"0.0-4.0-3.0-2.0-1.3"	"kkph67"	"600"	"1366"	"chrome"	"110.0.0"	"FALSE"	"Windows 10"	"60.74"	"029"	n/a	n/a	n/a	n/a	n/a	n/a	"Trial"	n/a	n/a	n/a	"706"	"arrowleft"	n/a	"NULL"	"NULL"	"NULL"	"stimuli/VerticalHorizontal_3300000_0.90000.png"	n/a	"VerticalHorizontal"	"arrowleft"	"1334"	"TRUE"	"VerticalHorizontal"	"330000000000"	"0.9000000000"	"1"	"16"
n/a	"html-keyboard-response"	"45"	"167685"	"0.0-4.0-3.0-2.0-0.4"	"kkph67"	"600"	"1366"	"chrome"	"110.0.0"	"FALSE"	"Windows 10"	"60.74"	"029"	n/a	n/a	n/a	n/a	n/a	n/a	"fixation"	n/a	n/a	n/a	n/a	"NULL"	n/a	"NULL"	"NULL"	"NULL"	"<p style=\"color: black; font-size: 80px; padding-left: 6%; padding-right: 7%; padding-top: 37%; padding-bottom: 15%\">+</p>"	"1319"	n/a	n/a	n/a	n/a	n/a	n/a	n/a	n/a	n/a
n/a	"image-keyboard-response"	"46"	"168072"	"0.0-4.0-3.0-2.0-1.4"	"kkph67"	"600"	"1366"	"chrome"	"110.0.0"	"FALSE"	"Windows 10"	"60.74"	"029"	n/a	n/a	n/a	n/a	n/a	n/a	"Trial"	n/a	n/a	n/a	"386"	"arrowright"	n/a	"NULL"	"NULL"	"NULL"	"stimuli/VerticalHorizontal_3300000_-0.9000.png"	n/a	"VerticalHorizontal"	"arrowright"	"1327"	"TRUE"	"VerticalHorizontal"	"330000000000"	"-0.900000000"	"1"	"17"
n/a	"html-keyboard-response"	"47"	"169557"	"0.0-4.0-3.0-2.0-0.5"	"kkph67"	"600"	"1366"	"chrome"	"110.0.0"	"FALSE"	"Windows 10"	"60.74"	"029"	n/a	n/a	n/a	n/a	n/a	n/a	"fixation"	n/a	n/a	n/a	n/a	"NULL"	n/a	"NULL"	"NULL"	"NULL"	"<p style=\"color: black; font-size: 80px; padding-left: 13%; padding-right: 48%; padding-top: 10%; padding-bottom: 2%\">+</p>"	"1469"	n/a	n/a	n/a	n/a	n/a	n/a	n/a	n/a	n/a
n/a	"image-keyboard-response"	"48"	"170047"	"0.0-4.0-3.0-2.0-1.5"	"kkph67"	"600"	"1366"	"chrome"	"110.0.0"	"FALSE"	"Windows 10"	"60.74"	"029"	n/a	n/a	n/a	n/a	n/a	n/a	"Trial"	n/a	n/a	n/a	"489"	"arrowleft"	n/a	"NULL"	"NULL"	"NULL"	"stimuli/VerticalHorizontal_0000000_0.90000.png"	n/a	"VerticalHorizontal"	"arrowleft"	"1485"	"TRUE"	"VerticalHorizontal"	"000000000000"	"0.9000000000"	"1"	"18"
n/a	"html-button-response"	"49"	"172180"	"0.0-4.0-3.0-3.0"	"kkph67"	"600"	"1366"	"chrome"	"110.0.0"	"FALSE"	"Windows 10"	"60.74"	"029"	n/a	n/a	n/a	n/a	n/a	n/a	"practice_block_results"	n/a	n/a	n/a	"2132"	"0"	n/a	"NULL"	"NULL"	"NULL"	"<p style='color:rgb(76,175,80);'> Correct Responses: <b>100.00%</b></p><hr><p style='color:rgb(233,30,99);'> Average Response Time: <b>513.50</b> ms.</p>"	n/a	n/a	n/a	n/a	n/a	n/a	n/a	n/a	n/a	n/a
n/a	"html-button-response"	"50"	"248276"	"0.0-4.0-4.0"	"kkph67"	"600"	"1366"	"chrome"	"110.0.0"	"FALSE"	"Windows 10"	"60.74"	"029"	n/a	n/a	n/a	n/a	n/a	n/a	"practice_debrief"	n/a	n/a	n/a	"75592"	"0"	n/a	"NULL"	"NULL"	"NULL"	"<p><b>TRAINING COMPLETED</b></p><p>In the next phase, there will be more trials, and some might be harder too.<br> Moreover, after each illusion block, a <b>score</b> will be calculated based on speed (time you took to answer) and accuracy (number of errors).</p><p>Try to keep up a high score!</p><br><p>Note that it can be <i>really</i> challenging at times, so you will need to rely on your <b>intuition</b> and gut feeling to answer as fast as you can without making errors.</p><p>Each illusion block will be repeated two times (so that you have the opportunity to improve your score), but the order of the blocks is random.</p><p>Remember, your goal is to be as <b>fast</b> and <b>accurate</b> as possible. Good luck!</p><br>"	n/a	n/a	n/a	n/a	n/a	n/a	n/a	n/a	n/a	n/a
"TRUE"	"preload"	"51"	"248459"	"0.0-5.0-0.0"	"kkph67"	"600"	"1366"	"chrome"	"110.0.0"	"FALSE"	"Windows 10"	"60.74"	"029"	n/a	n/a	n/a	n/a	n/a	n/a	n/a	n/a	n/a	n/a	n/a	"NULL"	"FALSE"	"list()"	"list()"	"list()"	n/a	n/a	n/a	n/a	n/a	n/a	n/a	n/a	n/a	n/a	n/a
n/a	"html-keyboard-response"	"52"	"253101"	"0.0-5.0-1.0"	"kkph67"	"600"	"1366"	"chrome"	"110.0.0"	"FALSE"	"Windows 10"	"60.74"	"029"	n/a	n/a	n/a	n/a	n/a	n/a	n/a	n/a	n/a	n/a	"4641"	"enter"	n/a	"NULL"	"NULL"	"NULL"	"<p><b>Part 1/6</b></p><p>In this part, two red lines will appear side by side.</p><p>Your task is to tell <b>which line is longer</b> in length, regardless of their orientation, as fast as you can, and without making errors.</p><p>Don't get distracted by the orientation of the lines!</p><p>Press <b>the LEFT or the RIGHT arrow</b> to indicate which <b>line is the longer one.</b></p><div style='float: center'><img src='materials/instructions/VerticalHorizontal_Demo.png' height='300'></img><p><img src='utils/answer/answer_leftright_keyboard.PNG' height='150'></img></p><p class='small'>In this example, the correct answer is the <b>LEFT arrow</b>.</p></div><p>Are you ready? <b>Press ENTER to start</b></p>"	n/a	n/a	n/a	n/a	n/a	n/a	n/a	n/a	n/a	n/a
n/a	"html-keyboard-response"	"53"	"254994"	"0.0-5.0-2.0-0.0"	"kkph67"	"600"	"1366"	"chrome"	"110.0.0"	"FALSE"	"Windows 10"	"60.74"	"029"	n/a	n/a	n/a	n/a	n/a	n/a	"fixation"	n/a	n/a	n/a	n/a	"NULL"	n/a	"NULL"	"NULL"	"NULL"	"<p style=\"color: black; font-size: 80px; padding-left: 18%; padding-right: 17%; padding-top: 7%; padding-bottom: 33%\">+</p>"	"1369"	n/a	n/a	n/a	n/a	n/a	n/a	n/a	n/a	n/a
n/a	"image-keyboard-response"	"54"	"255668"	"0.0-5.0-2.0-1.0"	"kkph67"	"600"	"1366"	"chrome"	"110.0.0"	"FALSE"	"Windows 10"	"60.74"	"029"	n/a	n/a	n/a	n/a	n/a	n/a	"Trial"	n/a	n/a	n/a	"673"	"arrowright"	n/a	"NULL"	"NULL"	"NULL"	"stimuli/VerticalHorizontal_3.30000_-0.0673.png"	n/a	"VerticalHorizontal"	"arrowright"	"1893"	"TRUE"	"VerticalHorizontal"	"3.3000000000"	"-0.067300000"	"1"	"19"
n/a	"html-keyboard-response"	"55"	"257170"	"0.0-5.0-2.0-0.1"	"kkph67"	"600"	"1366"	"chrome"	"110.0.0"	"FALSE"	"Windows 10"	"60.74"	"029"	n/a	n/a	n/a	n/a	n/a	n/a	"fixation"	n/a	n/a	n/a	n/a	"NULL"	n/a	"NULL"	"NULL"	"NULL"	"<p style=\"color: black; font-size: 80px; padding-left: 2%; padding-right: 13%; padding-top: 16%; padding-bottom: 13%\">+</p>"	"1489"	n/a	n/a	n/a	n/a	n/a	n/a	n/a	n/a	n/a
n/a	"image-keyboard-response"	"56"	"258386"	"0.0-5.0-2.0-1.1"	"kkph67"	"600"	"1366"	"chrome"	"110.0.0"	"FALSE"	"Windows 10"	"60.74"	"029"	n/a	n/a	n/a	n/a	n/a	n/a	"Trial"	n/a	n/a	n/a	"1216"	"arrowright"	n/a	"NULL"	"NULL"	"NULL"	"stimuli/VerticalHorizontal_20.27143_-0.2250.png"	n/a	"VerticalHorizontal"	"arrowright"	"1502"	"TRUE"	"VerticalHorizontal"	"20.271430000"	"-0.225000000"	"1"	"20"
n/a	"html-keyboard-response"	"57"	"259573"	"0.0-5.0-2.0-0.2"	"kkph67"	"600"	"1366"	"chrome"	"110.0.0"	"FALSE"	"Windows 10"	"60.74"	"029"	n/a	n/a	n/a	n/a	n/a	n/a	"fixation"	n/a	n/a	n/a	n/a	"NULL"	n/a	"NULL"	"NULL"	"NULL"	"<p style=\"color: black; font-size: 80px; padding-left: 22%; padding-right: 48%; padding-top: 10%; padding-bottom: 6%\">+</p>"	"1181"	n/a	n/a	n/a	n/a	n/a	n/a	n/a	n/a	n/a
n/a	"image-keyboard-response"	"58"	"260466"	"0.0-5.0-2.0-1.2"	"kkph67"	"600"	"1366"	"chrome"	"110.0.0"	"FALSE"	"Windows 10"	"60.74"	"029"	n/a	n/a	n/a	n/a	n/a	n/a	"Trial"	n/a	n/a	n/a	"892"	"arrowright"	n/a	"NULL"	"NULL"	"NULL"	"stimuli/VerticalHorizontal_11.78571_-0.0673.png"	n/a	"VerticalHorizontal"	"arrowright"	"1187"	"TRUE"	"VerticalHorizontal"	"11.785710000"	"-0.067300000"	"1"	"21"
n/a	"html-keyboard-response"	"59"	"261932"	"0.0-5.0-2.0-0.3"	"kkph67"	"600"	"1366"	"chrome"	"110.0.0"	"FALSE"	"Windows 10"	"60.74"	"029"	n/a	n/a	n/a	n/a	n/a	n/a	"fixation"	n/a	n/a	n/a	n/a	"NULL"	n/a	"NULL"	"NULL"	"NULL"	"<p style=\"color: black; font-size: 80px; padding-left: 48%; padding-right: 31%; padding-top: 33%; padding-bottom: 18%\">+</p>"	"1463"	n/a	n/a	n/a	n/a	n/a	n/a	n/a	n/a	n/a
n/a	"image-keyboard-response"	"60"	"262978"	"0.0-5.0-2.0-1.3"	"kkph67"	"600"	"1366"	"chrome"	"110.0.0"	"FALSE"	"Windows 10"	"60.74"	"029"	n/a	n/a	n/a	n/a	n/a	n/a	"Trial"	n/a	n/a	n/a	"1045"	"arrowright"	n/a	"NULL"	"NULL"	"NULL"	"stimuli/VerticalHorizontal_-11.78571_-0.0673.png"	n/a	"VerticalHorizontal"	"arrowright"	"1466"	"TRUE"	"VerticalHorizontal"	"-11.78571000"	"-0.067300000"	"1"	"22"
n/a	"html-keyboard-response"	"61"	"264072"	"0.0-5.0-2.0-0.4"	"kkph67"	"600"	"1366"	"chrome"	"110.0.0"	"FALSE"	"Windows 10"	"60.74"	"029"	n/a	n/a	n/a	n/a	n/a	n/a	"fixation"	n/a	n/a	n/a	n/a	"NULL"	n/a	"NULL"	"NULL"	"NULL"	"<p style=\"color: black; font-size: 80px; padding-left: 6%; padding-right: 26%; padding-top: 39%; padding-bottom: 35%\">+</p>"	"1088"	n/a	n/a	n/a	n/a	n/a	n/a	n/a	n/a	n/a
n/a	"image-keyboard-response"	"62"	"264709"	"0.0-5.0-2.0-1.4"	"kkph67"	"600"	"1366"	"chrome"	"110.0.0"	"FALSE"	"Windows 10"	"60.74"	"029"	n/a	n/a	n/a	n/a	n/a	n/a	"Trial"	n/a	n/a	n/a	"634"	"arrowleft"	n/a	"NULL"	"NULL"	"NULL"	"stimuli/VerticalHorizontal_-11.78571_0.10960.png"	n/a	"VerticalHorizontal"	"arrowleft"	"1094"	"TRUE"	"VerticalHorizontal"	"-11.78571000"	"0.1096000000"	"1"	"23"
n/a	"html-keyboard-response"	"63"	"266175"	"0.0-5.0-2.0-0.5"	"kkph67"	"600"	"1366"	"chrome"	"110.0.0"	"FALSE"	"Windows 10"	"60.74"	"029"	n/a	n/a	n/a	n/a	n/a	n/a	"fixation"	n/a	n/a	n/a	n/a	"NULL"	n/a	"NULL"	"NULL"	"NULL"	"<p style=\"color: black; font-size: 80px; padding-left: 26%; padding-right: 2%; padding-top: 24%; padding-bottom: 9%\">+</p>"	"1455"	n/a	n/a	n/a	n/a	n/a	n/a	n/a	n/a	n/a
n/a	"image-keyboard-response"	"64"	"268014"	"0.0-5.0-2.0-1.5"	"kkph67"	"600"	"1366"	"chrome"	"110.0.0"	"FALSE"	"Windows 10"	"60.74"	"029"	n/a	n/a	n/a	n/a	n/a	n/a	"Trial"	n/a	n/a	n/a	"1838"	"arrowright"	n/a	"NULL"	"NULL"	"NULL"	"stimuli/VerticalHorizontal_28.75714_-0.1096.png"	n/a	"VerticalHorizontal"	"arrowright"	"1466"	"TRUE"	"VerticalHorizontal"	"28.757140000"	"-0.109600000"	"1"	"24"
n/a	"html-keyboard-response"	"65"	"269360"	"0.0-5.0-2.0-0.6"	"kkph67"	"600"	"1366"	"chrome"	"110.0.0"	"FALSE"	"Windows 10"	"60.74"	"029"	n/a	n/a	n/a	n/a	n/a	n/a	"fixation"	n/a	n/a	n/a	n/a	"NULL"	n/a	"NULL"	"NULL"	"NULL"	"<p style=\"color: black; font-size: 80px; padding-left: 39%; padding-right: 45%; padding-top: 47%; padding-bottom: 45%\">+</p>"	"1344"	n/a	n/a	n/a	n/a	n/a	n/a	n/a	n/a	n/a
n/a	"image-keyboard-response"	"66"	"270051"	"0.0-5.0-2.0-1.6"	"kkph67"	"600"	"1366"	"chrome"	"110.0.0"	"FALSE"	"Windows 10"	"60.74"	"029"	n/a	n/a	n/a	n/a	n/a	n/a	"Trial"	n/a	n/a	n/a	"690"	"arrowright"	n/a	"NULL"	"NULL"	"NULL"	"stimuli/VerticalHorizontal_-28.75714_-0.2250.png"	n/a	"VerticalHorizontal"	"arrowright"	"1346"	"TRUE"	"VerticalHorizontal"	"-28.75714000"	"-0.225000000"	"1"	"25"
n/a	"html-keyboard-response"	"67"	"271426"	"0.0-5.0-2.0-0.7"	"kkph67"	"600"	"1366"	"chrome"	"110.0.0"	"FALSE"	"Windows 10"	"60.74"	"029"	n/a	n/a	n/a	n/a	n/a	n/a	"fixation"	n/a	n/a	n/a	n/a	"NULL"	n/a	"NULL"	"NULL"	"NULL"	"<p style=\"color: black; font-size: 80px; padding-left: 34%; padding-right: 11%; padding-top: 25%; padding-bottom: 0%\">+</p>"	"1368"	n/a	n/a	n/a	n/a	n/a	n/a	n/a	n/a	n/a
n/a	"image-keyboard-response"	"68"	"272891"	"0.0-5.0-2.0-1.7"	"kkph67"	"600"	"1366"	"chrome"	"110.0.0"	"FALSE"	"Windows 10"	"60.74"	"029"	n/a	n/a	n/a	n/a	n/a	n/a	"Trial"	n/a	n/a	n/a	"1464"	"arrowleft"	n/a	"NULL"	"NULL"	"NULL"	"stimuli/VerticalHorizontal_20.27143_-0.0673.png"	n/a	"VerticalHorizontal"	"arrowright"	"1375"	"FALSE"	"VerticalHorizontal"	"20.271430000"	"-0.067300000"	"1"	"26"
n/a	"html-keyboard-response"	"69"	"274213"	"0.0-5.0-2.0-0.8"	"kkph67"	"600"	"1366"	"chrome"	"110.0.0"	"FALSE"	"Windows 10"	"60.74"	"029"	n/a	n/a	n/a	n/a	n/a	n/a	"fixation"	n/a	n/a	n/a	n/a	"NULL"	n/a	"NULL"	"NULL"	"NULL"	"<p style=\"color: black; font-size: 80px; padding-left: 7%; padding-right: 8%; padding-top: 17%; padding-bottom: 12%\">+</p>"	"1313"	n/a	n/a	n/a	n/a	n/a	n/a	n/a	n/a	n/a
n/a	"image-keyboard-response"	"70"	"275011"	"0.0-5.0-2.0-1.8"	"kkph67"	"600"	"1366"	"chrome"	"110.0.0"	"FALSE"	"Windows 10"	"60.74"	"029"	n/a	n/a	n/a	n/a	n/a	n/a	"Trial"	n/a	n/a	n/a	"796"	"arrowright"	n/a	"NULL"	"NULL"	"NULL"	"stimuli/VerticalHorizontal_-28.75714_-0.1096.png"	n/a	"VerticalHorizontal"	"arrowright"	"1322"	"TRUE"	"VerticalHorizontal"	"-28.75714000"	"-0.109600000"	"1"	"27"
n/a	"html-keyboard-response"	"71"	"276306"	"0.0-5.0-2.0-0.9"	"kkph67"	"600"	"1366"	"chrome"	"110.0.0"	"FALSE"	"Windows 10"	"60.74"	"029"	n/a	n/a	n/a	n/a	n/a	n/a	"fixation"	n/a	n/a	n/a	n/a	"NULL"	n/a	"NULL"	"NULL"	"NULL"	"<p style=\"color: black; font-size: 80px; padding-left: 29%; padding-right: 15%; padding-top: 29%; padding-bottom: 32%\">+</p>"	"1283"	n/a	n/a	n/a	n/a	n/a	n/a	n/a	n/a	n/a
n/a	"image-keyboard-response"	"72"	"276925"	"0.0-5.0-2.0-1.9"	"kkph67"	"600"	"1366"	"chrome"	"110.0.0"	"FALSE"	"Windows 10"	"60.74"	"029"	n/a	n/a	n/a	n/a	n/a	n/a	"Trial"	n/a	n/a	n/a	"618"	"arrowleft"	n/a	"NULL"	"NULL"	"NULL"	"stimuli/VerticalHorizontal_-3.3000_0.10960.png"	n/a	"VerticalHorizontal"	"arrowleft"	"1295"	"TRUE"	"VerticalHorizontal"	"-3.300000000"	"0.1096000000"	"1"	"28"
n/a	"html-keyboard-response"	"73"	"278402"	"0.0-5.0-2.0-0.10"	"kkph67"	"600"	"1366"	"chrome"	"110.0.0"	"FALSE"	"Windows 10"	"60.74"	"029"	n/a	n/a	n/a	n/a	n/a	n/a	"fixation"	n/a	n/a	n/a	n/a	"NULL"	n/a	"NULL"	"NULL"	"NULL"	"<p style=\"color: black; font-size: 80px; padding-left: 8%; padding-right: 0%; padding-top: 3%; padding-bottom: 24%\">+</p>"	"1472"	n/a	n/a	n/a	n/a	n/a	n/a	n/a	n/a	n/a
n/a	"image-keyboard-response"	"74"	"279192"	"0.0-5.0-2.0-1.10"	"kkph67"	"600"	"1366"	"chrome"	"110.0.0"	"FALSE"	"Windows 10"	"60.74"	"029"	n/a	n/a	n/a	n/a	n/a	n/a	"Trial"	n/a	n/a	n/a	"789"	"arrowright"	n/a	"NULL"	"NULL"	"NULL"	"stimuli/VerticalHorizontal_28.75714_-0.2250.png"	n/a	"VerticalHorizontal"	"arrowright"	"1477"	"TRUE"	"VerticalHorizontal"	"28.757140000"	"-0.225000000"	"1"	"29"
n/a	"html-keyboard-response"	"75"	"280360"	"0.0-5.0-2.0-0.11"	"kkph67"	"600"	"1366"	"chrome"	"110.0.0"	"FALSE"	"Windows 10"	"60.74"	"029"	n/a	n/a	n/a	n/a	n/a	n/a	"fixation"	n/a	n/a	n/a	n/a	"NULL"	n/a	"NULL"	"NULL"	"NULL"	"<p style=\"color: black; font-size: 80px; padding-left: 42%; padding-right: 43%; padding-top: 33%; padding-bottom: 46%\">+</p>"	"1158"	n/a	n/a	n/a	n/a	n/a	n/a	n/a	n/a	n/a
n/a	"image-keyboard-response"	"76"	"281012"	"0.0-5.0-2.0-1.11"	"kkph67"	"600"	"1366"	"chrome"	"110.0.0"	"FALSE"	"Windows 10"	"60.74"	"029"	n/a	n/a	n/a	n/a	n/a	n/a	"Trial"	n/a	n/a	n/a	"652"	"arrowright"	n/a	"NULL"	"NULL"	"NULL"	"stimuli/VerticalHorizontal_11.78571_-0.16217.png"	n/a	"VerticalHorizontal"	"arrowright"	"1168"	"TRUE"	"VerticalHorizontal"	"11.785710000"	"-0.162170000"	"1"	"30"
n/a	"html-keyboard-response"	"77"	"282246"	"0.0-5.0-2.0-0.12"	"kkph67"	"600"	"1366"	"chrome"	"110.0.0"	"FALSE"	"Windows 10"	"60.74"	"029"	n/a	n/a	n/a	n/a	n/a	n/a	"fixation"	n/a	n/a	n/a	n/a	"NULL"	n/a	"NULL"	"NULL"	"NULL"	"<p style=\"color: black; font-size: 80px; padding-left: 5%; padding-right: 42%; padding-top: 45%; padding-bottom: 36%\">+</p>"	"1225"	n/a	n/a	n/a	n/a	n/a	n/a	n/a	n/a	n/a
n/a	"image-keyboard-response"	"78"	"283062"	"0.0-5.0-2.0-1.12"	"kkph67"	"600"	"1366"	"chrome"	"110.0.0"	"FALSE"	"Windows 10"	"60.74"	"029"	n/a	n/a	n/a	n/a	n/a	n/a	"Trial"	n/a	n/a	n/a	"815"	"arrowleft"	n/a	"NULL"	"NULL"	"NULL"	"stimuli/VerticalHorizontal_3.30000_0.06730.png"	n/a	"VerticalHorizontal"	"arrowleft"	"1234"	"TRUE"	"VerticalHorizontal"	"3.3000000000"	"0.0673000000"	"1"	"31"
n/a	"html-keyboard-response"	"79"	"284522"	"0.0-5.0-2.0-0.13"	"kkph67"	"600"	"1366"	"chrome"	"110.0.0"	"FALSE"	"Windows 10"	"60.74"	"029"	n/a	n/a	n/a	n/a	n/a	n/a	"fixation"	n/a	n/a	n/a	n/a	"NULL"	n/a	"NULL"	"NULL"	"NULL"	"<p style=\"color: black; font-size: 80px; padding-left: 1%; padding-right: 34%; padding-top: 12%; padding-bottom: 1%\">+</p>"	"1449"	n/a	n/a	n/a	n/a	n/a	n/a	n/a	n/a	n/a
n/a	"image-keyboard-response"	"80"	"285161"	"0.0-5.0-2.0-1.13"	"kkph67"	"600"	"1366"	"chrome"	"110.0.0"	"FALSE"	"Windows 10"	"60.74"	"029"	n/a	n/a	n/a	n/a	n/a	n/a	"Trial"	n/a	n/a	n/a	"638"	"arrowright"	n/a	"NULL"	"NULL"	"NULL"	"stimuli/VerticalHorizontal_11.78571_-0.2250.png"	n/a	"VerticalHorizontal"	"arrowright"	"1460"	"TRUE"	"VerticalHorizontal"	"11.785710000"	"-0.225000000"	"1"	"32"
n/a	"html-keyboard-response"	"81"	"286392"	"0.0-5.0-2.0-0.14"	"kkph67"	"600"	"1366"	"chrome"	"110.0.0"	"FALSE"	"Windows 10"	"60.74"	"029"	n/a	n/a	n/a	n/a	n/a	n/a	"fixation"	n/a	n/a	n/a	n/a	"NULL"	n/a	"NULL"	"NULL"	"NULL"	"<p style=\"color: black; font-size: 80px; padding-left: 44%; padding-right: 37%; padding-top: 25%; padding-bottom: 33%\">+</p>"	"1222"	n/a	n/a	n/a	n/a	n/a	n/a	n/a	n/a	n/a
n/a	"image-keyboard-response"	"82"	"287622"	"0.0-5.0-2.0-1.14"	"kkph67"	"600"	"1366"	"chrome"	"110.0.0"	"FALSE"	"Windows 10"	"60.74"	"029"	n/a	n/a	n/a	n/a	n/a	n/a	"Trial"	n/a	n/a	n/a	"1230"	"arrowleft"	n/a	"NULL"	"NULL"	"NULL"	"stimuli/VerticalHorizontal_20.27143_-0.1096.png"	n/a	"VerticalHorizontal"	"arrowright"	"1231"	"FALSE"	"VerticalHorizontal"	"20.271430000"	"-0.109600000"	"1"	"33"
n/a	"html-keyboard-response"	"83"	"288790"	"0.0-5.0-2.0-0.15"	"kkph67"	"600"	"1366"	"chrome"	"110.0.0"	"FALSE"	"Windows 10"	"60.74"	"029"	n/a	n/a	n/a	n/a	n/a	n/a	"fixation"	n/a	n/a	n/a	n/a	"NULL"	n/a	"NULL"	"NULL"	"NULL"	"<p style=\"color: black; font-size: 80px; padding-left: 32%; padding-right: 14%; padding-top: 17%; padding-bottom: 41%\">+</p>"	"1163"	n/a	n/a	n/a	n/a	n/a	n/a	n/a	n/a	n/a
n/a	"image-keyboard-response"	"84"	"289780"	"0.0-5.0-2.0-1.15"	"kkph67"	"600"	"1366"	"chrome"	"110.0.0"	"FALSE"	"Windows 10"	"60.74"	"029"	n/a	n/a	n/a	n/a	n/a	n/a	"Trial"	n/a	n/a	n/a	"988"	"arrowleft"	n/a	"NULL"	"NULL"	"NULL"	"stimuli/VerticalHorizontal_-3.3000_0.06730.png"	n/a	"VerticalHorizontal"	"arrowleft"	"1168"	"TRUE"	"VerticalHorizontal"	"-3.300000000"	"0.0673000000"	"1"	"34"
n/a	"html-keyboard-response"	"85"	"291024"	"0.0-5.0-2.0-0.16"	"kkph67"	"600"	"1366"	"chrome"	"110.0.0"	"FALSE"	"Windows 10"	"60.74"	"029"	n/a	n/a	n/a	n/a	n/a	n/a	"fixation"	n/a	n/a	n/a	n/a	"NULL"	n/a	"NULL"	"NULL"	"NULL"	"<p style=\"color: black; font-size: 80px; padding-left: 19%; padding-right: 15%; padding-top: 41%; padding-bottom: 33%\">+</p>"	"1236"	n/a	n/a	n/a	n/a	n/a	n/a	n/a	n/a	n/a
n/a	"image-keyboard-response"	"86"	"291671"	"0.0-5.0-2.0-1.16"	"kkph67"	"600"	"1366"	"chrome"	"110.0.0"	"FALSE"	"Windows 10"	"60.74"	"029"	n/a	n/a	n/a	n/a	n/a	n/a	"Trial"	n/a	n/a	n/a	"647"	"arrowleft"	n/a	"NULL"	"NULL"	"NULL"	"stimuli/VerticalHorizontal_-28.75714_0.16217.png"	n/a	"VerticalHorizontal"	"arrowleft"	"1244"	"TRUE"	"VerticalHorizontal"	"-28.75714000"	"0.1621700000"	"1"	"35"
n/a	"html-keyboard-response"	"87"	"292807"	"0.0-5.0-2.0-0.17"	"kkph67"	"600"	"1366"	"chrome"	"110.0.0"	"FALSE"	"Windows 10"	"60.74"	"029"	n/a	n/a	n/a	n/a	n/a	n/a	"fixation"	n/a	n/a	n/a	n/a	"NULL"	n/a	"NULL"	"NULL"	"NULL"	"<p style=\"color: black; font-size: 80px; padding-left: 12%; padding-right: 10%; padding-top: 44%; padding-bottom: 33%\">+</p>"	"1130"	n/a	n/a	n/a	n/a	n/a	n/a	n/a	n/a	n/a
n/a	"image-keyboard-response"	"88"	"293692"	"0.0-5.0-2.0-1.17"	"kkph67"	"600"	"1366"	"chrome"	"110.0.0"	"FALSE"	"Windows 10"	"60.74"	"029"	n/a	n/a	n/a	n/a	n/a	n/a	"Trial"	n/a	n/a	n/a	"885"	"arrowleft"	n/a	"NULL"	"NULL"	"NULL"	"stimuli/VerticalHorizontal_28.75714_0.22500.png"	n/a	"VerticalHorizontal"	"arrowleft"	"1136"	"TRUE"	"VerticalHorizontal"	"28.757140000"	"0.2250000000"	"1"	"36"
n/a	"html-keyboard-response"	"89"	"295167"	"0.0-5.0-2.0-0.18"	"kkph67"	"600"	"1366"	"chrome"	"110.0.0"	"FALSE"	"Windows 10"	"60.74"	"029"	n/a	n/a	n/a	n/a	n/a	n/a	"fixation"	n/a	n/a	n/a	n/a	"NULL"	n/a	"NULL"	"NULL"	"NULL"	"<p style=\"color: black; font-size: 80px; padding-left: 14%; padding-right: 31%; padding-top: 32%; padding-bottom: 40%\">+</p>"	"1473"	n/a	n/a	n/a	n/a	n/a	n/a	n/a	n/a	n/a
n/a	"image-keyboard-response"	"90"	"295802"	"0.0-5.0-2.0-1.18"	"kkph67"	"600"	"1366"	"chrome"	"110.0.0"	"FALSE"	"Windows 10"	"60.74"	"029"	n/a	n/a	n/a	n/a	n/a	n/a	"Trial"	n/a	n/a	n/a	"634"	"arrowright"	n/a	"NULL"	"NULL"	"NULL"	"stimuli/VerticalHorizontal_3.30000_-0.2250.png"	n/a	"VerticalHorizontal"	"arrowright"	"1475"	"TRUE"	"VerticalHorizontal"	"3.3000000000"	"-0.225000000"	"1"	"37"
n/a	"html-keyboard-response"	"91"	"297292"	"0.0-5.0-2.0-0.19"	"kkph67"	"600"	"1366"	"chrome"	"110.0.0"	"FALSE"	"Windows 10"	"60.74"	"029"	n/a	n/a	n/a	n/a	n/a	n/a	"fixation"	n/a	n/a	n/a	n/a	"NULL"	n/a	"NULL"	"NULL"	"NULL"	"<p style=\"color: black; font-size: 80px; padding-left: 12%; padding-right: 37%; padding-top: 24%; padding-bottom: 23%\">+</p>"	"1481"	n/a	n/a	n/a	n/a	n/a	n/a	n/a	n/a	n/a
n/a	"image-keyboard-response"	"92"	"297993"	"0.0-5.0-2.0-1.19"	"kkph67"	"600"	"1366"	"chrome"	"110.0.0"	"FALSE"	"Windows 10"	"60.74"	"029"	n/a	n/a	n/a	n/a	n/a	n/a	"Trial"	n/a	n/a	n/a	"700"	"arrowright"	n/a	"NULL"	"NULL"	"NULL"	"stimuli/VerticalHorizontal_-3.3000_-0.1096.png"	n/a	"VerticalHorizontal"	"arrowright"	"1490"	"TRUE"	"VerticalHorizontal"	"-3.300000000"	"-0.109600000"	"1"	"38"
n/a	"html-keyboard-response"	"93"	"299331"	"0.0-5.0-2.0-0.20"	"kkph67"	"600"	"1366"	"chrome"	"110.0.0"	"FALSE"	"Windows 10"	"60.74"	"029"	n/a	n/a	n/a	n/a	n/a	n/a	"fixation"	n/a	n/a	n/a	n/a	"NULL"	n/a	"NULL"	"NULL"	"NULL"	"<p style=\"color: black; font-size: 80px; padding-left: 26%; padding-right: 34%; padding-top: 48%; padding-bottom: 12%\">+</p>"	"1337"	n/a	n/a	n/a	n/a	n/a	n/a	n/a	n/a	n/a
n/a	"image-keyboard-response"	"94"	"299883"	"0.0-5.0-2.0-1.20"	"kkph67"	"600"	"1366"	"chrome"	"110.0.0"	"FALSE"	"Windows 10"	"60.74"	"029"	n/a	n/a	n/a	n/a	n/a	n/a	"Trial"	n/a	n/a	n/a	"551"	"arrowleft"	n/a	"NULL"	"NULL"	"NULL"	"stimuli/VerticalHorizontal_3.30000_0.10960.png"	n/a	"VerticalHorizontal"	"arrowleft"	"1338"	"TRUE"	"VerticalHorizontal"	"3.3000000000"	"0.1096000000"	"1"	"39"
n/a	"html-keyboard-response"	"95"	"301259"	"0.0-5.0-2.0-0.21"	"kkph67"	"600"	"1366"	"chrome"	"110.0.0"	"FALSE"	"Windows 10"	"60.74"	"029"	n/a	n/a	n/a	n/a	n/a	n/a	"fixation"	n/a	n/a	n/a	n/a	"NULL"	n/a	"NULL"	"NULL"	"NULL"	"<p style=\"color: black; font-size: 80px; padding-left: 31%; padding-right: 0%; padding-top: 33%; padding-bottom: 42%\">+</p>"	"1367"	n/a	n/a	n/a	n/a	n/a	n/a	n/a	n/a	n/a
n/a	"image-keyboard-response"	"96"	"301852"	"0.0-5.0-2.0-1.21"	"kkph67"	"600"	"1366"	"chrome"	"110.0.0"	"FALSE"	"Windows 10"	"60.74"	"029"	n/a	n/a	n/a	n/a	n/a	n/a	"Trial"	n/a	n/a	n/a	"592"	"arrowright"	n/a	"NULL"	"NULL"	"NULL"	"stimuli/VerticalHorizontal_-11.78571_-0.1096.png"	n/a	"VerticalHorizontal"	"arrowright"	"1376"	"TRUE"	"VerticalHorizontal"	"-11.78571000"	"-0.109600000"	"1"	"40"
n/a	"html-keyboard-response"	"97"	"303159"	"0.0-5.0-2.0-0.22"	"kkph67"	"600"	"1366"	"chrome"	"110.0.0"	"FALSE"	"Windows 10"	"60.74"	"029"	n/a	n/a	n/a	n/a	n/a	n/a	"fixation"	n/a	n/a	n/a	n/a	"NULL"	n/a	"NULL"	"NULL"	"NULL"	"<p style=\"color: black; font-size: 80px; padding-left: 35%; padding-right: 8%; padding-top: 41%; padding-bottom: 7%\">+</p>"	"1304"	n/a	n/a	n/a	n/a	n/a	n/a	n/a	n/a	n/a
n/a	"image-keyboard-response"	"98"	"304400"	"0.0-5.0-2.0-1.22"	"kkph67"	"600"	"1366"	"chrome"	"110.0.0"	"FALSE"	"Windows 10"	"60.74"	"029"	n/a	n/a	n/a	n/a	n/a	n/a	"Trial"	n/a	n/a	n/a	"1240"	"arrowleft"	n/a	"NULL"	"NULL"	"NULL"	"stimuli/VerticalHorizontal_20.27143_0.16217.png"	n/a	"VerticalHorizontal"	"arrowleft"	"1307"	"TRUE"	"VerticalHorizontal"	"20.271430000"	"0.1621700000"	"1"	"41"
n/a	"html-keyboard-response"	"99"	"305666"	"0.0-5.0-2.0-0.23"	"kkph67"	"600"	"1366"	"chrome"	"110.0.0"	"FALSE"	"Windows 10"	"60.74"	"029"	n/a	n/a	n/a	n/a	n/a	n/a	"fixation"	n/a	n/a	n/a	n/a	"NULL"	n/a	"NULL"	"NULL"	"NULL"	"<p style=\"color: black; font-size: 80px; padding-left: 13%; padding-right: 11%; padding-top: 12%; padding-bottom: 34%\">+</p>"	"1254"	n/a	n/a	n/a	n/a	n/a	n/a	n/a	n/a	n/a
n/a	"image-keyboard-response"	"100"	"306617"	"0.0-5.0-2.0-1.23"	"kkph67"	"600"	"1366"	"chrome"	"110.0.0"	"FALSE"	"Windows 10"	"60.74"	"029"	n/a	n/a	n/a	n/a	n/a	n/a	"Trial"	n/a	n/a	n/a	"951"	"arrowleft"	n/a	"NULL"	"NULL"	"NULL"	"stimuli/VerticalHorizontal_-28.75714_0.10960.png"	n/a	"VerticalHorizontal"	"arrowleft"	"1266"	"TRUE"	"VerticalHorizontal"	"-28.75714000"	"0.1096000000"	"1"	"42"
n/a	"html-keyboard-response"	"101"	"307823"	"0.0-5.0-2.0-0.24"	"kkph67"	"600"	"1366"	"chrome"	"110.0.0"	"FALSE"	"Windows 10"	"60.74"	"029"	n/a	n/a	n/a	n/a	n/a	n/a	"fixation"	n/a	n/a	n/a	n/a	"NULL"	n/a	"NULL"	"NULL"	"NULL"	"<p style=\"color: black; font-size: 80px; padding-left: 47%; padding-right: 35%; padding-top: 30%; padding-bottom: 41%\">+</p>"	"1189"	n/a	n/a	n/a	n/a	n/a	n/a	n/a	n/a	n/a
n/a	"image-keyboard-response"	"102"	"308395"	"0.0-5.0-2.0-1.24"	"kkph67"	"600"	"1366"	"chrome"	"110.0.0"	"FALSE"	"Windows 10"	"60.74"	"029"	n/a	n/a	n/a	n/a	n/a	n/a	"Trial"	n/a	n/a	n/a	"571"	"arrowright"	n/a	"NULL"	"NULL"	"NULL"	"stimuli/VerticalHorizontal_-20.27143_-0.16217.png"	n/a	"VerticalHorizontal"	"arrowright"	"1206"	"TRUE"	"VerticalHorizontal"	"-20.27143000"	"-0.162170000"	"1"	"43"
n/a	"html-keyboard-response"	"103"	"309497"	"0.0-5.0-2.0-0.25"	"kkph67"	"600"	"1366"	"chrome"	"110.0.0"	"FALSE"	"Windows 10"	"60.74"	"029"	n/a	n/a	n/a	n/a	n/a	n/a	"fixation"	n/a	n/a	n/a	n/a	"NULL"	n/a	"NULL"	"NULL"	"NULL"	"<p style=\"color: black; font-size: 80px; padding-left: 18%; padding-right: 39%; padding-top: 15%; padding-bottom: 44%\">+</p>"	"1091"	n/a	n/a	n/a	n/a	n/a	n/a	n/a	n/a	n/a
n/a	"image-keyboard-response"	"104"	"310075"	"0.0-5.0-2.0-1.25"	"kkph67"	"600"	"1366"	"chrome"	"110.0.0"	"FALSE"	"Windows 10"	"60.74"	"029"	n/a	n/a	n/a	n/a	n/a	n/a	"Trial"	n/a	n/a	n/a	"577"	"arrowleft"	n/a	"NULL"	"NULL"	"NULL"	"stimuli/VerticalHorizontal_-20.27143_0.06730.png"	n/a	"VerticalHorizontal"	"arrowleft"	"1102"	"TRUE"	"VerticalHorizontal"	"-20.27143000"	"0.0673000000"	"1"	"44"
n/a	"html-keyboard-response"	"105"	"311159"	"0.0-5.0-2.0-0.26"	"kkph67"	"600"	"1366"	"chrome"	"110.0.0"	"FALSE"	"Windows 10"	"60.74"	"029"	n/a	n/a	n/a	n/a	n/a	n/a	"fixation"	n/a	n/a	n/a	n/a	"NULL"	n/a	"NULL"	"NULL"	"NULL"	"<p style=\"color: black; font-size: 80px; padding-left: 8%; padding-right: 4%; padding-top: 43%; padding-bottom: 47%\">+</p>"	"1075"	n/a	n/a	n/a	n/a	n/a	n/a	n/a	n/a	n/a
n/a	"image-keyboard-response"	"106"	"311824"	"0.0-5.0-2.0-1.26"	"kkph67"	"600"	"1366"	"chrome"	"110.0.0"	"FALSE"	"Windows 10"	"60.74"	"029"	n/a	n/a	n/a	n/a	n/a	n/a	"Trial"	n/a	n/a	n/a	"664"	"arrowleft"	n/a	"NULL"	"NULL"	"NULL"	"stimuli/VerticalHorizontal_-3.3000_0.16217.png"	n/a	"VerticalHorizontal"	"arrowleft"	"1084"	"TRUE"	"VerticalHorizontal"	"-3.300000000"	"0.1621700000"	"1"	"45"
n/a	"html-keyboard-response"	"107"	"313251"	"0.0-5.0-2.0-0.27"	"kkph67"	"600"	"1366"	"chrome"	"110.0.0"	"FALSE"	"Windows 10"	"60.74"	"029"	n/a	n/a	n/a	n/a	n/a	n/a	"fixation"	n/a	n/a	n/a	n/a	"NULL"	n/a	"NULL"	"NULL"	"NULL"	"<p style=\"color: black; font-size: 80px; padding-left: 43%; padding-right: 39%; padding-top: 40%; padding-bottom: 48%\">+</p>"	"1425"	n/a	n/a	n/a	n/a	n/a	n/a	n/a	n/a	n/a
n/a	"image-keyboard-response"	"108"	"314073"	"0.0-5.0-2.0-1.27"	"kkph67"	"600"	"1366"	"chrome"	"110.0.0"	"FALSE"	"Windows 10"	"60.74"	"029"	n/a	n/a	n/a	n/a	n/a	n/a	"Trial"	n/a	n/a	n/a	"822"	"arrowleft"	n/a	"NULL"	"NULL"	"NULL"	"stimuli/VerticalHorizontal_28.75714_-0.0673.png"	n/a	"VerticalHorizontal"	"arrowright"	"1427"	"FALSE"	"VerticalHorizontal"	"28.757140000"	"-0.067300000"	"1"	"46"
n/a	"html-keyboard-response"	"109"	"315278"	"0.0-5.0-2.0-0.28"	"kkph67"	"600"	"1366"	"chrome"	"110.0.0"	"FALSE"	"Windows 10"	"60.74"	"029"	n/a	n/a	n/a	n/a	n/a	n/a	"fixation"	n/a	n/a	n/a	n/a	"NULL"	n/a	"NULL"	"NULL"	"NULL"	"<p style=\"color: black; font-size: 80px; padding-left: 2%; padding-right: 2%; padding-top: 22%; padding-bottom: 32%\">+</p>"	"1190"	n/a	n/a	n/a	n/a	n/a	n/a	n/a	n/a	n/a
n/a	"image-keyboard-response"	"110"	"315835"	"0.0-5.0-2.0-1.28"	"kkph67"	"600"	"1366"	"chrome"	"110.0.0"	"FALSE"	"Windows 10"	"60.74"	"029"	n/a	n/a	n/a	n/a	n/a	n/a	"Trial"	n/a	n/a	n/a	"557"	"arrowright"	n/a	"NULL"	"NULL"	"NULL"	"stimuli/VerticalHorizontal_3.30000_-0.1096.png"	n/a	"VerticalHorizontal"	"arrowright"	"1205"	"TRUE"	"VerticalHorizontal"	"3.3000000000"	"-0.109600000"	"1"	"47"
n/a	"html-keyboard-response"	"111"	"317011"	"0.0-5.0-2.0-0.29"	"kkph67"	"600"	"1366"	"chrome"	"110.0.0"	"FALSE"	"Windows 10"	"60.74"	"029"	n/a	n/a	n/a	n/a	n/a	n/a	"fixation"	n/a	n/a	n/a	n/a	"NULL"	n/a	"NULL"	"NULL"	"NULL"	"<p style=\"color: black; font-size: 80px; padding-left: 34%; padding-right: 19%; padding-top: 15%; padding-bottom: 33%\">+</p>"	"1171"	n/a	n/a	n/a	n/a	n/a	n/a	n/a	n/a	n/a
n/a	"image-keyboard-response"	"112"	"317602"	"0.0-5.0-2.0-1.29"	"kkph67"	"600"	"1366"	"chrome"	"110.0.0"	"FALSE"	"Windows 10"	"60.74"	"029"	n/a	n/a	n/a	n/a	n/a	n/a	"Trial"	n/a	n/a	n/a	"590"	"arrowleft"	n/a	"NULL"	"NULL"	"NULL"	"stimuli/VerticalHorizontal_-20.27143_0.10960.png"	n/a	"VerticalHorizontal"	"arrowleft"	"1176"	"TRUE"	"VerticalHorizontal"	"-20.27143000"	"0.1096000000"	"1"	"48"
n/a	"html-keyboard-response"	"113"	"319075"	"0.0-5.0-2.0-0.30"	"kkph67"	"600"	"1366"	"chrome"	"110.0.0"	"FALSE"	"Windows 10"	"60.74"	"029"	n/a	n/a	n/a	n/a	n/a	n/a	"fixation"	n/a	n/a	n/a	n/a	"NULL"	n/a	"NULL"	"NULL"	"NULL"	"<p style=\"color: black; font-size: 80px; padding-left: 25%; padding-right: 21%; padding-top: 40%; padding-bottom: 17%\">+</p>"	"1458"	n/a	n/a	n/a	n/a	n/a	n/a	n/a	n/a	n/a
n/a	"image-keyboard-response"	"114"	"319588"	"0.0-5.0-2.0-1.30"	"kkph67"	"600"	"1366"	"chrome"	"110.0.0"	"FALSE"	"Windows 10"	"60.74"	"029"	n/a	n/a	n/a	n/a	n/a	n/a	"Trial"	n/a	n/a	n/a	"513"	"arrowleft"	n/a	"NULL"	"NULL"	"NULL"	"stimuli/VerticalHorizontal_-28.75714_0.22500.png"	n/a	"VerticalHorizontal"	"arrowleft"	"1473"	"TRUE"	"VerticalHorizontal"	"-28.75714000"	"0.2250000000"	"1"	"49"
n/a	"html-keyboard-response"	"115"	"320732"	"0.0-5.0-2.0-0.31"	"kkph67"	"600"	"1366"	"chrome"	"110.0.0"	"FALSE"	"Windows 10"	"60.74"	"029"	n/a	n/a	n/a	n/a	n/a	n/a	"fixation"	n/a	n/a	n/a	n/a	"NULL"	n/a	"NULL"	"NULL"	"NULL"	"<p style=\"color: black; font-size: 80px; padding-left: 39%; padding-right: 47%; padding-top: 35%; padding-bottom: 22%\">+</p>"	"1140"	n/a	n/a	n/a	n/a	n/a	n/a	n/a	n/a	n/a
n/a	"image-keyboard-response"	"116"	"321411"	"0.0-5.0-2.0-1.31"	"kkph67"	"600"	"1366"	"chrome"	"110.0.0"	"FALSE"	"Windows 10"	"60.74"	"029"	n/a	n/a	n/a	n/a	n/a	n/a	"Trial"	n/a	n/a	n/a	"678"	"arrowright"	n/a	"NULL"	"NULL"	"NULL"	"stimuli/VerticalHorizontal_-3.3000_-0.2250.png"	n/a	"VerticalHorizontal"	"arrowright"	"1144"	"TRUE"	"VerticalHorizontal"	"-3.300000000"	"-0.225000000"	"1"	"50"
n/a	"html-keyboard-response"	"117"	"322846"	"0.0-5.0-2.0-0.32"	"kkph67"	"600"	"1366"	"chrome"	"110.0.0"	"FALSE"	"Windows 10"	"60.74"	"029"	n/a	n/a	n/a	n/a	n/a	n/a	"fixation"	n/a	n/a	n/a	n/a	"NULL"	n/a	"NULL"	"NULL"	"NULL"	"<p style=\"color: black; font-size: 80px; padding-left: 47%; padding-right: 23%; padding-top: 17%; padding-bottom: 22%\">+</p>"	"1423"	n/a	n/a	n/a	n/a	n/a	n/a	n/a	n/a	n/a
n/a	"image-keyboard-response"	"118"	"323497"	"0.0-5.0-2.0-1.32"	"kkph67"	"600"	"1366"	"chrome"	"110.0.0"	"FALSE"	"Windows 10"	"60.74"	"029"	n/a	n/a	n/a	n/a	n/a	n/a	"Trial"	n/a	n/a	n/a	"650"	"arrowleft"	n/a	"NULL"	"NULL"	"NULL"	"stimuli/VerticalHorizontal_11.78571_0.16217.png"	n/a	"VerticalHorizontal"	"arrowleft"	"1435"	"TRUE"	"VerticalHorizontal"	"11.785710000"	"0.1621700000"	"1"	"51"
n/a	"html-keyboard-response"	"119"	"324871"	"0.0-5.0-2.0-0.33"	"kkph67"	"600"	"1366"	"chrome"	"110.0.0"	"FALSE"	"Windows 10"	"60.74"	"029"	n/a	n/a	n/a	n/a	n/a	n/a	"fixation"	n/a	n/a	n/a	n/a	"NULL"	n/a	"NULL"	"NULL"	"NULL"	"<p style=\"color: black; font-size: 80px; padding-left: 35%; padding-right: 32%; padding-top: 37%; padding-bottom: 45%\">+</p>"	"1367"	n/a	n/a	n/a	n/a	n/a	n/a	n/a	n/a	n/a
n/a	"image-keyboard-response"	"120"	"325708"	"0.0-5.0-2.0-1.33"	"kkph67"	"600"	"1366"	"chrome"	"110.0.0"	"FALSE"	"Windows 10"	"60.74"	"029"	n/a	n/a	n/a	n/a	n/a	n/a	"Trial"	n/a	n/a	n/a	"836"	"arrowleft"	n/a	"NULL"	"NULL"	"NULL"	"stimuli/VerticalHorizontal_28.75714_0.10960.png"	n/a	"VerticalHorizontal"	"arrowleft"	"1374"	"TRUE"	"VerticalHorizontal"	"28.757140000"	"0.1096000000"	"1"	"52"
n/a	"html-keyboard-response"	"121"	"327019"	"0.0-5.0-2.0-0.34"	"kkph67"	"600"	"1366"	"chrome"	"110.0.0"	"FALSE"	"Windows 10"	"60.74"	"029"	n/a	n/a	n/a	n/a	n/a	n/a	"fixation"	n/a	n/a	n/a	n/a	"NULL"	n/a	"NULL"	"NULL"	"NULL"	"<p style=\"color: black; font-size: 80px; padding-left: 27%; padding-right: 13%; padding-top: 23%; padding-bottom: 25%\">+</p>"	"1304"	n/a	n/a	n/a	n/a	n/a	n/a	n/a	n/a	n/a
n/a	"image-keyboard-response"	"122"	"327704"	"0.0-5.0-2.0-1.34"	"kkph67"	"600"	"1366"	"chrome"	"110.0.0"	"FALSE"	"Windows 10"	"60.74"	"029"	n/a	n/a	n/a	n/a	n/a	n/a	"Trial"	n/a	n/a	n/a	"685"	"arrowright"	n/a	"NULL"	"NULL"	"NULL"	"stimuli/VerticalHorizontal_20.27143_-0.16217.png"	n/a	"VerticalHorizontal"	"arrowright"	"1311"	"TRUE"	"VerticalHorizontal"	"20.271430000"	"-0.162170000"	"1"	"53"
n/a	"html-keyboard-response"	"123"	"328797"	"0.0-5.0-2.0-0.35"	"kkph67"	"600"	"1366"	"chrome"	"110.0.0"	"FALSE"	"Windows 10"	"60.74"	"029"	n/a	n/a	n/a	n/a	n/a	n/a	"fixation"	n/a	n/a	n/a	n/a	"NULL"	n/a	"NULL"	"NULL"	"NULL"	"<p style=\"color: black; font-size: 80px; padding-left: 18%; padding-right: 28%; padding-top: 27%; padding-bottom: 27%\">+</p>"	"1079"	n/a	n/a	n/a	n/a	n/a	n/a	n/a	n/a	n/a
n/a	"image-keyboard-response"	"124"	"329601"	"0.0-5.0-2.0-1.35"	"kkph67"	"600"	"1366"	"chrome"	"110.0.0"	"FALSE"	"Windows 10"	"60.74"	"029"	n/a	n/a	n/a	n/a	n/a	n/a	"Trial"	n/a	n/a	n/a	"803"	"arrowright"	n/a	"NULL"	"NULL"	"NULL"	"stimuli/VerticalHorizontal_-3.3000_-0.16217.png"	n/a	"VerticalHorizontal"	"arrowright"	"1093"	"TRUE"	"VerticalHorizontal"	"-3.300000000"	"-0.162170000"	"1"	"54"
n/a	"html-keyboard-response"	"125"	"330761"	"0.0-5.0-2.0-0.36"	"kkph67"	"600"	"1366"	"chrome"	"110.0.0"	"FALSE"	"Windows 10"	"60.74"	"029"	n/a	n/a	n/a	n/a	n/a	n/a	"fixation"	n/a	n/a	n/a	n/a	"NULL"	n/a	"NULL"	"NULL"	"NULL"	"<p style=\"color: black; font-size: 80px; padding-left: 46%; padding-right: 8%; padding-top: 16%; padding-bottom: 8%\">+</p>"	"1157"	n/a	n/a	n/a	n/a	n/a	n/a	n/a	n/a	n/a
n/a	"image-keyboard-response"	"126"	"331264"	"0.0-5.0-2.0-1.36"	"kkph67"	"600"	"1366"	"chrome"	"110.0.0"	"FALSE"	"Windows 10"	"60.74"	"029"	n/a	n/a	n/a	n/a	n/a	n/a	"Trial"	n/a	n/a	n/a	"502"	"arrowright"	n/a	"NULL"	"NULL"	"NULL"	"stimuli/VerticalHorizontal_-11.78571_-0.16217.png"	n/a	"VerticalHorizontal"	"arrowright"	"1160"	"TRUE"	"VerticalHorizontal"	"-11.78571000"	"-0.162170000"	"1"	"55"
n/a	"html-keyboard-response"	"127"	"332615"	"0.0-5.0-2.0-0.37"	"kkph67"	"600"	"1366"	"chrome"	"110.0.0"	"FALSE"	"Windows 10"	"60.74"	"029"	n/a	n/a	n/a	n/a	n/a	n/a	"fixation"	n/a	n/a	n/a	n/a	"NULL"	n/a	"NULL"	"NULL"	"NULL"	"<p style=\"color: black; font-size: 80px; padding-left: 49%; padding-right: 26%; padding-top: 17%; padding-bottom: 14%\">+</p>"	"1342"	n/a	n/a	n/a	n/a	n/a	n/a	n/a	n/a	n/a
n/a	"image-keyboard-response"	"128"	"333368"	"0.0-5.0-2.0-1.37"	"kkph67"	"600"	"1366"	"chrome"	"110.0.0"	"FALSE"	"Windows 10"	"60.74"	"029"	n/a	n/a	n/a	n/a	n/a	n/a	"Trial"	n/a	n/a	n/a	"752"	"arrowright"	n/a	"NULL"	"NULL"	"NULL"	"stimuli/VerticalHorizontal_-20.27143_-0.0673.png"	n/a	"VerticalHorizontal"	"arrowright"	"1351"	"TRUE"	"VerticalHorizontal"	"-20.27143000"	"-0.067300000"	"1"	"56"
n/a	"html-keyboard-response"	"129"	"334650"	"0.0-5.0-2.0-0.38"	"kkph67"	"600"	"1366"	"chrome"	"110.0.0"	"FALSE"	"Windows 10"	"60.74"	"029"	n/a	n/a	n/a	n/a	n/a	n/a	"fixation"	n/a	n/a	n/a	n/a	"NULL"	n/a	"NULL"	"NULL"	"NULL"	"<p style=\"color: black; font-size: 80px; padding-left: 47%; padding-right: 15%; padding-top: 49%; padding-bottom: 24%\">+</p>"	"1267"	n/a	n/a	n/a	n/a	n/a	n/a	n/a	n/a	n/a
n/a	"image-keyboard-response"	"130"	"335498"	"0.0-5.0-2.0-1.38"	"kkph67"	"600"	"1366"	"chrome"	"110.0.0"	"FALSE"	"Windows 10"	"60.74"	"029"	n/a	n/a	n/a	n/a	n/a	n/a	"Trial"	n/a	n/a	n/a	"847"	"arrowright"	n/a	"NULL"	"NULL"	"NULL"	"stimuli/VerticalHorizontal_11.78571_-0.1096.png"	n/a	"VerticalHorizontal"	"arrowright"	"1282"	"TRUE"	"VerticalHorizontal"	"11.785710000"	"-0.109600000"	"1"	"57"
n/a	"html-keyboard-response"	"131"	"336850"	"0.0-5.0-2.0-0.39"	"kkph67"	"600"	"1366"	"chrome"	"110.0.0"	"FALSE"	"Windows 10"	"60.74"	"029"	n/a	n/a	n/a	n/a	n/a	n/a	"fixation"	n/a	n/a	n/a	n/a	"NULL"	n/a	"NULL"	"NULL"	"NULL"	"<p style=\"color: black; font-size: 80px; padding-left: 36%; padding-right: 46%; padding-top: 37%; padding-bottom: 19%\">+</p>"	"1349"	n/a	n/a	n/a	n/a	n/a	n/a	n/a	n/a	n/a
n/a	"image-keyboard-response"	"132"	"337952"	"0.0-5.0-2.0-1.39"	"kkph67"	"600"	"1366"	"chrome"	"110.0.0"	"FALSE"	"Windows 10"	"60.74"	"029"	n/a	n/a	n/a	n/a	n/a	n/a	"Trial"	n/a	n/a	n/a	"1101"	"arrowleft"	n/a	"NULL"	"NULL"	"NULL"	"stimuli/VerticalHorizontal_-11.78571_0.06730.png"	n/a	"VerticalHorizontal"	"arrowleft"	"1352"	"TRUE"	"VerticalHorizontal"	"-11.78571000"	"0.0673000000"	"1"	"58"
n/a	"html-keyboard-response"	"133"	"339337"	"0.0-5.0-2.0-0.40"	"kkph67"	"600"	"1366"	"chrome"	"110.0.0"	"FALSE"	"Windows 10"	"60.74"	"029"	n/a	n/a	n/a	n/a	n/a	n/a	"fixation"	n/a	n/a	n/a	n/a	"NULL"	n/a	"NULL"	"NULL"	"NULL"	"<p style=\"color: black; font-size: 80px; padding-left: 8%; padding-right: 1%; padding-top: 8%; padding-bottom: 32%\">+</p>"	"1379"	n/a	n/a	n/a	n/a	n/a	n/a	n/a	n/a	n/a
n/a	"image-keyboard-response"	"134"	"340111"	"0.0-5.0-2.0-1.40"	"kkph67"	"600"	"1366"	"chrome"	"110.0.0"	"FALSE"	"Windows 10"	"60.74"	"029"	n/a	n/a	n/a	n/a	n/a	n/a	"Trial"	n/a	n/a	n/a	"773"	"arrowleft"	n/a	"NULL"	"NULL"	"NULL"	"stimuli/VerticalHorizontal_-20.27143_0.16217.png"	n/a	"VerticalHorizontal"	"arrowleft"	"1385"	"TRUE"	"VerticalHorizontal"	"-20.27143000"	"0.1621700000"	"1"	"59"
n/a	"html-keyboard-response"	"135"	"341411"	"0.0-5.0-2.0-0.41"	"kkph67"	"600"	"1366"	"chrome"	"110.0.0"	"FALSE"	"Windows 10"	"60.74"	"029"	n/a	n/a	n/a	n/a	n/a	n/a	"fixation"	n/a	n/a	n/a	n/a	"NULL"	n/a	"NULL"	"NULL"	"NULL"	"<p style=\"color: black; font-size: 80px; padding-left: 4%; padding-right: 10%; padding-top: 14%; padding-bottom: 45%\">+</p>"	"1287"	n/a	n/a	n/a	n/a	n/a	n/a	n/a	n/a	n/a
n/a	"image-keyboard-response"	"136"	"342331"	"0.0-5.0-2.0-1.41"	"kkph67"	"600"	"1366"	"chrome"	"110.0.0"	"FALSE"	"Windows 10"	"60.74"	"029"	n/a	n/a	n/a	n/a	n/a	n/a	"Trial"	n/a	n/a	n/a	"919"	"arrowright"	n/a	"NULL"	"NULL"	"NULL"	"stimuli/VerticalHorizontal_28.75714_-0.16217.png"	n/a	"VerticalHorizontal"	"arrowright"	"1300"	"TRUE"	"VerticalHorizontal"	"28.757140000"	"-0.162170000"	"1"	"60"
n/a	"html-keyboard-response"	"137"	"343775"	"0.0-5.0-2.0-0.42"	"kkph67"	"600"	"1366"	"chrome"	"110.0.0"	"FALSE"	"Windows 10"	"60.74"	"029"	n/a	n/a	n/a	n/a	n/a	n/a	"fixation"	n/a	n/a	n/a	n/a	"NULL"	n/a	"NULL"	"NULL"	"NULL"	"<p style=\"color: black; font-size: 80px; padding-left: 49%; padding-right: 8%; padding-top: 10%; padding-bottom: 31%\">+</p>"	"1429"	n/a	n/a	n/a	n/a	n/a	n/a	n/a	n/a	n/a
n/a	"image-keyboard-response"	"138"	"344712"	"0.0-5.0-2.0-1.42"	"kkph67"	"600"	"1366"	"chrome"	"110.0.0"	"FALSE"	"Windows 10"	"60.74"	"029"	n/a	n/a	n/a	n/a	n/a	n/a	"Trial"	n/a	n/a	n/a	"936"	"arrowleft"	n/a	"NULL"	"NULL"	"NULL"	"stimuli/VerticalHorizontal_11.78571_0.22500.png"	n/a	"VerticalHorizontal"	"arrowleft"	"1444"	"TRUE"	"VerticalHorizontal"	"11.785710000"	"0.2250000000"	"1"	"61"
n/a	"html-keyboard-response"	"139"	"345986"	"0.0-5.0-2.0-0.43"	"kkph67"	"600"	"1366"	"chrome"	"110.0.0"	"FALSE"	"Windows 10"	"60.74"	"029"	n/a	n/a	n/a	n/a	n/a	n/a	"fixation"	n/a	n/a	n/a	n/a	"NULL"	n/a	"NULL"	"NULL"	"NULL"	"<p style=\"color: black; font-size: 80px; padding-left: 8%; padding-right: 38%; padding-top: 16%; padding-bottom: 30%\">+</p>"	"1264"	n/a	n/a	n/a	n/a	n/a	n/a	n/a	n/a	n/a
n/a	"image-keyboard-response"	"140"	"348186"	"0.0-5.0-2.0-1.43"	"kkph67"	"600"	"1366"	"chrome"	"110.0.0"	"FALSE"	"Windows 10"	"60.74"	"029"	n/a	n/a	n/a	n/a	n/a	n/a	"Trial"	n/a	n/a	n/a	"2199"	"arrowright"	n/a	"NULL"	"NULL"	"NULL"	"stimuli/VerticalHorizontal_-28.75714_-0.0673.png"	n/a	"VerticalHorizontal"	"arrowright"	"1274"	"TRUE"	"VerticalHorizontal"	"-28.75714000"	"-0.067300000"	"1"	"62"
n/a	"html-keyboard-response"	"141"	"349340"	"0.0-5.0-2.0-0.44"	"kkph67"	"600"	"1366"	"chrome"	"110.0.0"	"FALSE"	"Windows 10"	"60.74"	"029"	n/a	n/a	n/a	n/a	n/a	n/a	"fixation"	n/a	n/a	n/a	n/a	"NULL"	n/a	"NULL"	"NULL"	"NULL"	"<p style=\"color: black; font-size: 80px; padding-left: 16%; padding-right: 16%; padding-top: 0%; padding-bottom: 8%\">+</p>"	"1152"	n/a	n/a	n/a	n/a	n/a	n/a	n/a	n/a	n/a
n/a	"image-keyboard-response"	"142"	"350588"	"0.0-5.0-2.0-1.44"	"kkph67"	"600"	"1366"	"chrome"	"110.0.0"	"FALSE"	"Windows 10"	"60.74"	"029"	n/a	n/a	n/a	n/a	n/a	n/a	"Trial"	n/a	n/a	n/a	"1247"	"arrowright"	n/a	"NULL"	"NULL"	"NULL"	"stimuli/VerticalHorizontal_-3.3000_-0.0673.png"	n/a	"VerticalHorizontal"	"arrowright"	"1154"	"TRUE"	"VerticalHorizontal"	"-3.300000000"	"-0.067300000"	"1"	"63"
n/a	"html-keyboard-response"	"143"	"351711"	"0.0-5.0-2.0-0.45"	"kkph67"	"600"	"1366"	"chrome"	"110.0.0"	"FALSE"	"Windows 10"	"60.74"	"029"	n/a	n/a	n/a	n/a	n/a	n/a	"fixation"	n/a	n/a	n/a	n/a	"NULL"	n/a	"NULL"	"NULL"	"NULL"	"<p style=\"color: black; font-size: 80px; padding-left: 46%; padding-right: 39%; padding-top: 14%; padding-bottom: 29%\">+</p>"	"1111"	n/a	n/a	n/a	n/a	n/a	n/a	n/a	n/a	n/a
n/a	"image-keyboard-response"	"144"	"352590"	"0.0-5.0-2.0-1.45"	"kkph67"	"600"	"1366"	"chrome"	"110.0.0"	"FALSE"	"Windows 10"	"60.74"	"029"	n/a	n/a	n/a	n/a	n/a	n/a	"Trial"	n/a	n/a	n/a	"878"	"arrowleft"	n/a	"NULL"	"NULL"	"NULL"	"stimuli/VerticalHorizontal_3.30000_0.16217.png"	n/a	"VerticalHorizontal"	"arrowleft"	"1123"	"TRUE"	"VerticalHorizontal"	"3.3000000000"	"0.1621700000"	"1"	"64"
n/a	"html-keyboard-response"	"145"	"353930"	"0.0-5.0-2.0-0.46"	"kkph67"	"600"	"1366"	"chrome"	"110.0.0"	"FALSE"	"Windows 10"	"60.74"	"029"	n/a	n/a	n/a	n/a	n/a	n/a	"fixation"	n/a	n/a	n/a	n/a	"NULL"	n/a	"NULL"	"NULL"	"NULL"	"<p style=\"color: black; font-size: 80px; padding-left: 32%; padding-right: 11%; padding-top: 33%; padding-bottom: 26%\">+</p>"	"1338"	n/a	n/a	n/a	n/a	n/a	n/a	n/a	n/a	n/a
n/a	"image-keyboard-response"	"146"	"354466"	"0.0-5.0-2.0-1.46"	"kkph67"	"600"	"1366"	"chrome"	"110.0.0"	"FALSE"	"Windows 10"	"60.74"	"029"	n/a	n/a	n/a	n/a	n/a	n/a	"Trial"	n/a	n/a	n/a	"535"	"arrowright"	n/a	"NULL"	"NULL"	"NULL"	"stimuli/VerticalHorizontal_-11.78571_-0.2250.png"	n/a	"VerticalHorizontal"	"arrowright"	"1340"	"TRUE"	"VerticalHorizontal"	"-11.78571000"	"-0.225000000"	"1"	"65"
n/a	"html-keyboard-response"	"147"	"355696"	"0.0-5.0-2.0-0.47"	"kkph67"	"600"	"1366"	"chrome"	"110.0.0"	"FALSE"	"Windows 10"	"60.74"	"029"	n/a	n/a	n/a	n/a	n/a	n/a	"fixation"	n/a	n/a	n/a	n/a	"NULL"	n/a	"NULL"	"NULL"	"NULL"	"<p style=\"color: black; font-size: 80px; padding-left: 18%; padding-right: 40%; padding-top: 26%; padding-bottom: 4%\">+</p>"	"1227"	n/a	n/a	n/a	n/a	n/a	n/a	n/a	n/a	n/a
n/a	"image-keyboard-response"	"148"	"356330"	"0.0-5.0-2.0-1.47"	"kkph67"	"600"	"1366"	"chrome"	"110.0.0"	"FALSE"	"Windows 10"	"60.74"	"029"	n/a	n/a	n/a	n/a	n/a	n/a	"Trial"	n/a	n/a	n/a	"633"	"arrowright"	n/a	"NULL"	"NULL"	"NULL"	"stimuli/VerticalHorizontal_-20.27143_-0.1096.png"	n/a	"VerticalHorizontal"	"arrowright"	"1230"	"TRUE"	"VerticalHorizontal"	"-20.27143000"	"-0.109600000"	"1"	"66"
n/a	"html-keyboard-response"	"149"	"357493"	"0.0-5.0-2.0-0.48"	"kkph67"	"600"	"1366"	"chrome"	"110.0.0"	"FALSE"	"Windows 10"	"60.74"	"029"	n/a	n/a	n/a	n/a	n/a	n/a	"fixation"	n/a	n/a	n/a	n/a	"NULL"	n/a	"NULL"	"NULL"	"NULL"	"<p style=\"color: black; font-size: 80px; padding-left: 34%; padding-right: 29%; padding-top: 31%; padding-bottom: 5%\">+</p>"	"1153"	n/a	n/a	n/a	n/a	n/a	n/a	n/a	n/a	n/a
n/a	"image-keyboard-response"	"150"	"358212"	"0.0-5.0-2.0-1.48"	"kkph67"	"600"	"1366"	"chrome"	"110.0.0"	"FALSE"	"Windows 10"	"60.74"	"029"	n/a	n/a	n/a	n/a	n/a	n/a	"Trial"	n/a	n/a	n/a	"718"	"arrowleft"	n/a	"NULL"	"NULL"	"NULL"	"stimuli/VerticalHorizontal_-28.75714_0.06730.png"	n/a	"VerticalHorizontal"	"arrowleft"	"1163"	"TRUE"	"VerticalHorizontal"	"-28.75714000"	"0.0673000000"	"1"	"67"
n/a	"html-keyboard-response"	"151"	"359318"	"0.0-5.0-2.0-0.49"	"kkph67"	"600"	"1366"	"chrome"	"110.0.0"	"FALSE"	"Windows 10"	"60.74"	"029"	n/a	n/a	n/a	n/a	n/a	n/a	"fixation"	n/a	n/a	n/a	n/a	"NULL"	n/a	"NULL"	"NULL"	"NULL"	"<p style=\"color: black; font-size: 80px; padding-left: 35%; padding-right: 8%; padding-top: 7%; padding-bottom: 35%\">+</p>"	"1089"	n/a	n/a	n/a	n/a	n/a	n/a	n/a	n/a	n/a
n/a	"image-keyboard-response"	"152"	"359971"	"0.0-5.0-2.0-1.49"	"kkph67"	"600"	"1366"	"chrome"	"110.0.0"	"FALSE"	"Windows 10"	"60.74"	"029"	n/a	n/a	n/a	n/a	n/a	n/a	"Trial"	n/a	n/a	n/a	"653"	"arrowright"	n/a	"NULL"	"NULL"	"NULL"	"stimuli/VerticalHorizontal_3.30000_-0.16217.png"	n/a	"VerticalHorizontal"	"arrowright"	"1106"	"TRUE"	"VerticalHorizontal"	"3.3000000000"	"-0.162170000"	"1"	"68"
n/a	"html-keyboard-response"	"153"	"361327"	"0.0-5.0-2.0-0.50"	"kkph67"	"600"	"1366"	"chrome"	"110.0.0"	"FALSE"	"Windows 10"	"60.74"	"029"	n/a	n/a	n/a	n/a	n/a	n/a	"fixation"	n/a	n/a	n/a	n/a	"NULL"	n/a	"NULL"	"NULL"	"NULL"	"<p style=\"color: black; font-size: 80px; padding-left: 22%; padding-right: 43%; padding-top: 32%; padding-bottom: 36%\">+</p>"	"1340"	n/a	n/a	n/a	n/a	n/a	n/a	n/a	n/a	n/a
n/a	"image-keyboard-response"	"154"	"362501"	"0.0-5.0-2.0-1.50"	"kkph67"	"600"	"1366"	"chrome"	"110.0.0"	"FALSE"	"Windows 10"	"60.74"	"029"	n/a	n/a	n/a	n/a	n/a	n/a	"Trial"	n/a	n/a	n/a	"1173"	"arrowleft"	n/a	"NULL"	"NULL"	"NULL"	"stimuli/VerticalHorizontal_20.27143_0.10960.png"	n/a	"VerticalHorizontal"	"arrowleft"	"1356"	"TRUE"	"VerticalHorizontal"	"20.271430000"	"0.1096000000"	"1"	"69"
n/a	"html-keyboard-response"	"155"	"363804"	"0.0-5.0-2.0-0.51"	"kkph67"	"600"	"1366"	"chrome"	"110.0.0"	"FALSE"	"Windows 10"	"60.74"	"029"	n/a	n/a	n/a	n/a	n/a	n/a	"fixation"	n/a	n/a	n/a	n/a	"NULL"	n/a	"NULL"	"NULL"	"NULL"	"<p style=\"color: black; font-size: 80px; padding-left: 38%; padding-right: 2%; padding-top: 0%; padding-bottom: 14%\">+</p>"	"1301"	n/a	n/a	n/a	n/a	n/a	n/a	n/a	n/a	n/a
n/a	"image-keyboard-response"	"156"	"364617"	"0.0-5.0-2.0-1.51"	"kkph67"	"600"	"1366"	"chrome"	"110.0.0"	"FALSE"	"Windows 10"	"60.74"	"029"	n/a	n/a	n/a	n/a	n/a	n/a	"Trial"	n/a	n/a	n/a	"812"	"arrowright"	n/a	"NULL"	"NULL"	"NULL"	"stimuli/VerticalHorizontal_-28.75714_-0.16217.png"	n/a	"VerticalHorizontal"	"arrowright"	"1303"	"TRUE"	"VerticalHorizontal"	"-28.75714000"	"-0.162170000"	"1"	"70"
n/a	"html-keyboard-response"	"157"	"365944"	"0.0-5.0-2.0-0.52"	"kkph67"	"600"	"1366"	"chrome"	"110.0.0"	"FALSE"	"Windows 10"	"60.74"	"029"	n/a	n/a	n/a	n/a	n/a	n/a	"fixation"	n/a	n/a	n/a	n/a	"NULL"	n/a	"NULL"	"NULL"	"NULL"	"<p style=\"color: black; font-size: 80px; padding-left: 8%; padding-right: 36%; padding-top: 3%; padding-bottom: 20%\">+</p>"	"1313"	n/a	n/a	n/a	n/a	n/a	n/a	n/a	n/a	n/a
n/a	"image-keyboard-response"	"158"	"366823"	"0.0-5.0-2.0-1.52"	"kkph67"	"600"	"1366"	"chrome"	"110.0.0"	"FALSE"	"Windows 10"	"60.74"	"029"	n/a	n/a	n/a	n/a	n/a	n/a	"Trial"	n/a	n/a	n/a	"878"	"arrowright"	n/a	"NULL"	"NULL"	"NULL"	"stimuli/VerticalHorizontal_11.78571_0.06730.png"	n/a	"VerticalHorizontal"	"arrowleft"	"1327"	"FALSE"	"VerticalHorizontal"	"11.785710000"	"0.0673000000"	"1"	"71"
n/a	"html-keyboard-response"	"159"	"367897"	"0.0-5.0-2.0-0.53"	"kkph67"	"600"	"1366"	"chrome"	"110.0.0"	"FALSE"	"Windows 10"	"60.74"	"029"	n/a	n/a	n/a	n/a	n/a	n/a	"fixation"	n/a	n/a	n/a	n/a	"NULL"	n/a	"NULL"	"NULL"	"NULL"	"<p style=\"color: black; font-size: 80px; padding-left: 28%; padding-right: 42%; padding-top: 25%; padding-bottom: 21%\">+</p>"	"1073"	n/a	n/a	n/a	n/a	n/a	n/a	n/a	n/a	n/a
n/a	"image-keyboard-response"	"160"	"368708"	"0.0-5.0-2.0-1.53"	"kkph67"	"600"	"1366"	"chrome"	"110.0.0"	"FALSE"	"Windows 10"	"60.74"	"029"	n/a	n/a	n/a	n/a	n/a	n/a	"Trial"	n/a	n/a	n/a	"811"	"arrowleft"	n/a	"NULL"	"NULL"	"NULL"	"stimuli/VerticalHorizontal_20.27143_0.22500.png"	n/a	"VerticalHorizontal"	"arrowleft"	"1074"	"TRUE"	"VerticalHorizontal"	"20.271430000"	"0.2250000000"	"1"	"72"
n/a	"html-keyboard-response"	"161"	"369724"	"0.0-5.0-2.0-0.54"	"kkph67"	"600"	"1366"	"chrome"	"110.0.0"	"FALSE"	"Windows 10"	"60.74"	"029"	n/a	n/a	n/a	n/a	n/a	n/a	"fixation"	n/a	n/a	n/a	n/a	"NULL"	n/a	"NULL"	"NULL"	"NULL"	"<p style=\"color: black; font-size: 80px; padding-left: 10%; padding-right: 48%; padding-top: 8%; padding-bottom: 12%\">+</p>"	"1009"	n/a	n/a	n/a	n/a	n/a	n/a	n/a	n/a	n/a
n/a	"image-keyboard-response"	"162"	"371212"	"0.0-5.0-2.0-1.54"	"kkph67"	"600"	"1366"	"chrome"	"110.0.0"	"FALSE"	"Windows 10"	"60.74"	"029"	n/a	n/a	n/a	n/a	n/a	n/a	"Trial"	n/a	n/a	n/a	"1488"	"arrowleft"	n/a	"NULL"	"NULL"	"NULL"	"stimuli/VerticalHorizontal_28.75714_0.16217.png"	n/a	"VerticalHorizontal"	"arrowleft"	"1016"	"TRUE"	"VerticalHorizontal"	"28.757140000"	"0.1621700000"	"1"	"73"
n/a	"html-keyboard-response"	"163"	"372451"	"0.0-5.0-2.0-0.55"	"kkph67"	"600"	"1366"	"chrome"	"110.0.0"	"FALSE"	"Windows 10"	"60.74"	"029"	n/a	n/a	n/a	n/a	n/a	n/a	"fixation"	n/a	n/a	n/a	n/a	"NULL"	n/a	"NULL"	"NULL"	"NULL"	"<p style=\"color: black; font-size: 80px; padding-left: 5%; padding-right: 36%; padding-top: 25%; padding-bottom: 13%\">+</p>"	"1229"	n/a	n/a	n/a	n/a	n/a	n/a	n/a	n/a	n/a
n/a	"image-keyboard-response"	"164"	"373347"	"0.0-5.0-2.0-1.55"	"kkph67"	"600"	"1366"	"chrome"	"110.0.0"	"FALSE"	"Windows 10"	"60.74"	"029"	n/a	n/a	n/a	n/a	n/a	n/a	"Trial"	n/a	n/a	n/a	"895"	"arrowleft"	n/a	"NULL"	"NULL"	"NULL"	"stimuli/VerticalHorizontal_-20.27143_0.22500.png"	n/a	"VerticalHorizontal"	"arrowleft"	"1239"	"TRUE"	"VerticalHorizontal"	"-20.27143000"	"0.2250000000"	"1"	"74"
n/a	"html-keyboard-response"	"165"	"374766"	"0.0-5.0-2.0-0.56"	"kkph67"	"600"	"1366"	"chrome"	"110.0.0"	"FALSE"	"Windows 10"	"60.74"	"029"	n/a	n/a	n/a	n/a	n/a	n/a	"fixation"	n/a	n/a	n/a	n/a	"NULL"	n/a	"NULL"	"NULL"	"NULL"	"<p style=\"color: black; font-size: 80px; padding-left: 4%; padding-right: 37%; padding-top: 44%; padding-bottom: 19%\">+</p>"	"1415"	n/a	n/a	n/a	n/a	n/a	n/a	n/a	n/a	n/a
n/a	"image-keyboard-response"	"166"	"376111"	"0.0-5.0-2.0-1.56"	"kkph67"	"600"	"1366"	"chrome"	"110.0.0"	"FALSE"	"Windows 10"	"60.74"	"029"	n/a	n/a	n/a	n/a	n/a	n/a	"Trial"	n/a	n/a	n/a	"1344"	"arrowright"	n/a	"NULL"	"NULL"	"NULL"	"stimuli/VerticalHorizontal_11.78571_0.10960.png"	n/a	"VerticalHorizontal"	"arrowleft"	"1419"	"FALSE"	"VerticalHorizontal"	"11.785710000"	"0.1096000000"	"1"	"75"
n/a	"html-keyboard-response"	"167"	"377417"	"0.0-5.0-2.0-0.57"	"kkph67"	"600"	"1366"	"chrome"	"110.0.0"	"FALSE"	"Windows 10"	"60.74"	"029"	n/a	n/a	n/a	n/a	n/a	n/a	"fixation"	n/a	n/a	n/a	n/a	"NULL"	n/a	"NULL"	"NULL"	"NULL"	"<p style=\"color: black; font-size: 80px; padding-left: 23%; padding-right: 42%; padding-top: 29%; padding-bottom: 10%\">+</p>"	"1297"	n/a	n/a	n/a	n/a	n/a	n/a	n/a	n/a	n/a
n/a	"image-keyboard-response"	"168"	"378181"	"0.0-5.0-2.0-1.57"	"kkph67"	"600"	"1366"	"chrome"	"110.0.0"	"FALSE"	"Windows 10"	"60.74"	"029"	n/a	n/a	n/a	n/a	n/a	n/a	"Trial"	n/a	n/a	n/a	"764"	"arrowleft"	n/a	"NULL"	"NULL"	"NULL"	"stimuli/VerticalHorizontal_-11.78571_0.16217.png"	n/a	"VerticalHorizontal"	"arrowleft"	"1306"	"TRUE"	"VerticalHorizontal"	"-11.78571000"	"0.1621700000"	"1"	"76"
n/a	"html-keyboard-response"	"169"	"379245"	"0.0-5.0-2.0-0.58"	"kkph67"	"600"	"1366"	"chrome"	"110.0.0"	"FALSE"	"Windows 10"	"60.74"	"029"	n/a	n/a	n/a	n/a	n/a	n/a	"fixation"	n/a	n/a	n/a	n/a	"NULL"	n/a	"NULL"	"NULL"	"NULL"	"<p style=\"color: black; font-size: 80px; padding-left: 31%; padding-right: 7%; padding-top: 13%; padding-bottom: 46%\">+</p>"	"1061"	n/a	n/a	n/a	n/a	n/a	n/a	n/a	n/a	n/a
n/a	"image-keyboard-response"	"170"	"381200"	"0.0-5.0-2.0-1.58"	"kkph67"	"600"	"1366"	"chrome"	"110.0.0"	"FALSE"	"Windows 10"	"60.74"	"029"	n/a	n/a	n/a	n/a	n/a	n/a	"Trial"	n/a	n/a	n/a	"1954"	"arrowleft"	n/a	"NULL"	"NULL"	"NULL"	"stimuli/VerticalHorizontal_28.75714_0.06730.png"	n/a	"VerticalHorizontal"	"arrowleft"	"1064"	"TRUE"	"VerticalHorizontal"	"28.757140000"	"0.0673000000"	"1"	"77"
n/a	"html-keyboard-response"	"171"	"382678"	"0.0-5.0-2.0-0.59"	"kkph67"	"600"	"1366"	"chrome"	"110.0.0"	"FALSE"	"Windows 10"	"60.74"	"029"	n/a	n/a	n/a	n/a	n/a	n/a	"fixation"	n/a	n/a	n/a	n/a	"NULL"	n/a	"NULL"	"NULL"	"NULL"	"<p style=\"color: black; font-size: 80px; padding-left: 49%; padding-right: 34%; padding-top: 32%; padding-bottom: 3%\">+</p>"	"1470"	n/a	n/a	n/a	n/a	n/a	n/a	n/a	n/a	n/a
n/a	"image-keyboard-response"	"172"	"383259"	"0.0-5.0-2.0-1.59"	"kkph67"	"600"	"1366"	"chrome"	"110.0.0"	"FALSE"	"Windows 10"	"60.74"	"029"	n/a	n/a	n/a	n/a	n/a	n/a	"Trial"	n/a	n/a	n/a	"581"	"arrowleft"	n/a	"NULL"	"NULL"	"NULL"	"stimuli/VerticalHorizontal_-11.78571_0.22500.png"	n/a	"VerticalHorizontal"	"arrowleft"	"1478"	"TRUE"	"VerticalHorizontal"	"-11.78571000"	"0.2250000000"	"1"	"78"
n/a	"html-keyboard-response"	"173"	"384626"	"0.0-5.0-2.0-0.60"	"kkph67"	"600"	"1366"	"chrome"	"110.0.0"	"FALSE"	"Windows 10"	"60.74"	"029"	n/a	n/a	n/a	n/a	n/a	n/a	"fixation"	n/a	n/a	n/a	n/a	"NULL"	n/a	"NULL"	"NULL"	"NULL"	"<p style=\"color: black; font-size: 80px; padding-left: 15%; padding-right: 43%; padding-top: 24%; padding-bottom: 5%\">+</p>"	"1355"	n/a	n/a	n/a	n/a	n/a	n/a	n/a	n/a	n/a
n/a	"image-keyboard-response"	"174"	"385402"	"0.0-5.0-2.0-1.60"	"kkph67"	"600"	"1366"	"chrome"	"110.0.0"	"FALSE"	"Windows 10"	"60.74"	"029"	n/a	n/a	n/a	n/a	n/a	n/a	"Trial"	n/a	n/a	n/a	"775"	"arrowleft"	n/a	"NULL"	"NULL"	"NULL"	"stimuli/VerticalHorizontal_3.30000_0.22500.png"	n/a	"VerticalHorizontal"	"arrowleft"	"1367"	"TRUE"	"VerticalHorizontal"	"3.3000000000"	"0.2250000000"	"1"	"79"
n/a	"html-keyboard-response"	"175"	"386769"	"0.0-5.0-2.0-0.61"	"kkph67"	"600"	"1366"	"chrome"	"110.0.0"	"FALSE"	"Windows 10"	"60.74"	"029"	n/a	n/a	n/a	n/a	n/a	n/a	"fixation"	n/a	n/a	n/a	n/a	"NULL"	n/a	"NULL"	"NULL"	"NULL"	"<p style=\"color: black; font-size: 80px; padding-left: 27%; padding-right: 6%; padding-top: 49%; padding-bottom: 34%\">+</p>"	"1363"	n/a	n/a	n/a	n/a	n/a	n/a	n/a	n/a	n/a
n/a	"image-keyboard-response"	"176"	"387357"	"0.0-5.0-2.0-1.61"	"kkph67"	"600"	"1366"	"chrome"	"110.0.0"	"FALSE"	"Windows 10"	"60.74"	"029"	n/a	n/a	n/a	n/a	n/a	n/a	"Trial"	n/a	n/a	n/a	"587"	"arrowleft"	n/a	"NULL"	"NULL"	"NULL"	"stimuli/VerticalHorizontal_-3.3000_0.22500.png"	n/a	"VerticalHorizontal"	"arrowleft"	"1367"	"TRUE"	"VerticalHorizontal"	"-3.300000000"	"0.2250000000"	"1"	"80"
n/a	"html-keyboard-response"	"177"	"388394"	"0.0-5.0-2.0-0.62"	"kkph67"	"600"	"1366"	"chrome"	"110.0.0"	"FALSE"	"Windows 10"	"60.74"	"029"	n/a	n/a	n/a	n/a	n/a	n/a	"fixation"	n/a	n/a	n/a	n/a	"NULL"	n/a	"NULL"	"NULL"	"NULL"	"<p style=\"color: black; font-size: 80px; padding-left: 37%; padding-right: 5%; padding-top: 22%; padding-bottom: 18%\">+</p>"	"1030"	n/a	n/a	n/a	n/a	n/a	n/a	n/a	n/a	n/a
n/a	"image-keyboard-response"	"178"	"389158"	"0.0-5.0-2.0-1.62"	"kkph67"	"600"	"1366"	"chrome"	"110.0.0"	"FALSE"	"Windows 10"	"60.74"	"029"	n/a	n/a	n/a	n/a	n/a	n/a	"Trial"	n/a	n/a	n/a	"763"	"arrowleft"	n/a	"NULL"	"NULL"	"NULL"	"stimuli/VerticalHorizontal_20.27143_0.06730.png"	n/a	"VerticalHorizontal"	"arrowleft"	"1037"	"TRUE"	"VerticalHorizontal"	"20.271430000"	"0.0673000000"	"1"	"81"
n/a	"html-keyboard-response"	"179"	"390227"	"0.0-5.0-2.0-0.63"	"kkph67"	"600"	"1366"	"chrome"	"110.0.0"	"FALSE"	"Windows 10"	"60.74"	"029"	n/a	n/a	n/a	n/a	n/a	n/a	"fixation"	n/a	n/a	n/a	n/a	"NULL"	n/a	"NULL"	"NULL"	"NULL"	"<p style=\"color: black; font-size: 80px; padding-left: 11%; padding-right: 4%; padding-top: 33%; padding-bottom: 3%\">+</p>"	"1061"	n/a	n/a	n/a	n/a	n/a	n/a	n/a	n/a	n/a
n/a	"image-keyboard-response"	"180"	"390925"	"0.0-5.0-2.0-1.63"	"kkph67"	"600"	"1366"	"chrome"	"110.0.0"	"FALSE"	"Windows 10"	"60.74"	"029"	n/a	n/a	n/a	n/a	n/a	n/a	"Trial"	n/a	n/a	n/a	"698"	"arrowright"	n/a	"NULL"	"NULL"	"NULL"	"stimuli/VerticalHorizontal_-20.27143_-0.2250.png"	n/a	"VerticalHorizontal"	"arrowright"	"1069"	"TRUE"	"VerticalHorizontal"	"-20.27143000"	"-0.225000000"	"1"	"82"
n/a	"html-button-response"	"181"	"409268"	"0.0-5.0-3.0"	"kkph67"	"600"	"1366"	"chrome"	"110.0.0"	"FALSE"	"Windows 10"	"60.74"	"029"	n/a	n/a	n/a	n/a	n/a	n/a	"block_results"	n/a	n/a	n/a	"18340"	"0"	n/a	"NULL"	"NULL"	"NULL"	"<p>Your score for this illusion is <p style=\"color: black; font-size: 48px; font-weight: bold;\">75.1 %</p><hr><p>Can you do better in the next illusion?</p>"	n/a	n/a	n/a	n/a	n/a	n/a	n/a	n/a	n/a	n/a
"TRUE"	"preload"	"182"	"409788"	"0.0-6.0-0.0"	"kkph67"	"600"	"1366"	"chrome"	"110.0.0"	"FALSE"	"Windows 10"	"60.74"	"029"	n/a	n/a	n/a	n/a	n/a	n/a	n/a	n/a	n/a	n/a	n/a	"NULL"	"FALSE"	"list()"	"list()"	"list()"	n/a	n/a	n/a	n/a	n/a	n/a	n/a	n/a	n/a	n/a	n/a
n/a	"html-keyboard-response"	"183"	"417126"	"0.0-6.0-1.0"	"kkph67"	"600"	"1366"	"chrome"	"110.0.0"	"FALSE"	"Windows 10"	"60.74"	"029"	n/a	n/a	n/a	n/a	n/a	n/a	n/a	n/a	n/a	n/a	"7337"	"enter"	n/a	"NULL"	"NULL"	"NULL"	"<p><b>Part 2/6</b></p><p>In this part, two horizontal red lines will appear one above the other.</p><p>Your task is to select which <b>line is longer</b> in length as fast as you can, without making errors.</p><p>Don't get distracted by the surrounding black arrows at the end of the red lines!</p><p>Press <b>the UP or the DOWN arrow</b> to indicate where is the longer <b>red line.</b></p><div style='float: center'><img src='materials/instructions/MullerLyer_Demo.png' height='300'></img><p><img src='utils/answer/answer_updown_keyboard.PNG' height='150'></img></p><p class='small'>In this example, the correct answer is the <b>UP arrow</b>.</p></div><p>Are you ready? <b>Press ENTER to start</b></p>"	n/a	n/a	n/a	n/a	n/a	n/a	n/a	n/a	n/a	n/a
n/a	"html-keyboard-response"	"184"	"418968"	"0.0-6.0-2.0-0.0"	"kkph67"	"600"	"1366"	"chrome"	"110.0.0"	"FALSE"	"Windows 10"	"60.74"	"029"	n/a	n/a	n/a	n/a	n/a	n/a	"fixation"	n/a	n/a	n/a	n/a	"NULL"	n/a	"NULL"	"NULL"	"NULL"	"<p style=\"color: black; font-size: 80px; padding-left: 4%; padding-right: 38%; padding-top: 31%; padding-bottom: 37%\">+</p>"	"1329"	n/a	n/a	n/a	n/a	n/a	n/a	n/a	n/a	n/a
n/a	"image-keyboard-response"	"185"	"422498"	"0.0-6.0-2.0-1.0"	"kkph67"	"600"	"1366"	"chrome"	"110.0.0"	"FALSE"	"Windows 10"	"60.74"	"029"	n/a	n/a	n/a	n/a	n/a	n/a	"Trial"	n/a	n/a	n/a	"3530"	"arrowup"	n/a	"NULL"	"NULL"	"NULL"	"stimuli/MullerLyer_20.04286_0.23665.png"	n/a	"MullerLyer"	"arrowup"	"1842"	"TRUE"	"MullerLyer"	"20.042860000"	"0.2366500000"	"2"	"1"
n/a	"html-keyboard-response"	"186"	"423759"	"0.0-6.0-2.0-0.1"	"kkph67"	"600"	"1366"	"chrome"	"110.0.0"	"FALSE"	"Windows 10"	"60.74"	"029"	n/a	n/a	n/a	n/a	n/a	n/a	"fixation"	n/a	n/a	n/a	n/a	"NULL"	n/a	"NULL"	"NULL"	"NULL"	"<p style=\"color: black; font-size: 80px; padding-left: 18%; padding-right: 49%; padding-top: 14%; padding-bottom: 17%\">+</p>"	"1258"	n/a	n/a	n/a	n/a	n/a	n/a	n/a	n/a	n/a
n/a	"image-keyboard-response"	"187"	"424465"	"0.0-6.0-2.0-1.1"	"kkph67"	"600"	"1366"	"chrome"	"110.0.0"	"FALSE"	"Windows 10"	"60.74"	"029"	n/a	n/a	n/a	n/a	n/a	n/a	"Trial"	n/a	n/a	n/a	"705"	"arrowup"	n/a	"NULL"	"NULL"	"NULL"	"stimuli/MullerLyer_-2.3000_0.14541.png"	n/a	"MullerLyer"	"arrowup"	"1261"	"TRUE"	"MullerLyer"	"-2.300000000"	"0.1454100000"	"2"	"2"
n/a	"html-keyboard-response"	"188"	"425688"	"0.0-6.0-2.0-0.2"	"kkph67"	"600"	"1366"	"chrome"	"110.0.0"	"FALSE"	"Windows 10"	"60.74"	"029"	n/a	n/a	n/a	n/a	n/a	n/a	"fixation"	n/a	n/a	n/a	n/a	"NULL"	n/a	"NULL"	"NULL"	"NULL"	"<p style=\"color: black; font-size: 80px; padding-left: 30%; padding-right: 13%; padding-top: 28%; padding-bottom: 14%\">+</p>"	"1221"	n/a	n/a	n/a	n/a	n/a	n/a	n/a	n/a	n/a
n/a	"image-keyboard-response"	"189"	"426660"	"0.0-6.0-2.0-1.2"	"kkph67"	"600"	"1366"	"chrome"	"110.0.0"	"FALSE"	"Windows 10"	"60.74"	"029"	n/a	n/a	n/a	n/a	n/a	n/a	"Trial"	n/a	n/a	n/a	"971"	"arrowdown"	n/a	"NULL"	"NULL"	"NULL"	"stimuli/MullerLyer_20.04286_0.07627.png"	n/a	"MullerLyer"	"arrowup"	"1223"	"FALSE"	"MullerLyer"	"20.042860000"	"0.0762700000"	"2"	"3"
n/a	"html-keyboard-response"	"190"	"427867"	"0.0-6.0-2.0-0.3"	"kkph67"	"600"	"1366"	"chrome"	"110.0.0"	"FALSE"	"Windows 10"	"60.74"	"029"	n/a	n/a	n/a	n/a	n/a	n/a	"fixation"	n/a	n/a	n/a	n/a	"NULL"	n/a	"NULL"	"NULL"	"NULL"	"<p style=\"color: black; font-size: 80px; padding-left: 6%; padding-right: 16%; padding-top: 15%; padding-bottom: 3%\">+</p>"	"1199"	n/a	n/a	n/a	n/a	n/a	n/a	n/a	n/a	n/a
n/a	"image-keyboard-response"	"191"	"428462"	"0.0-6.0-2.0-1.3"	"kkph67"	"600"	"1366"	"chrome"	"110.0.0"	"FALSE"	"Windows 10"	"60.74"	"029"	n/a	n/a	n/a	n/a	n/a	n/a	"Trial"	n/a	n/a	n/a	"595"	"arrowdown"	n/a	"NULL"	"NULL"	"NULL"	"stimuli/MullerLyer_-8.21429_-0.3500.png"	n/a	"MullerLyer"	"arrowdown"	"1207"	"TRUE"	"MullerLyer"	"-8.214290000"	"-0.350000000"	"2"	"4"
n/a	"html-keyboard-response"	"192"	"429631"	"0.0-6.0-2.0-0.4"	"kkph67"	"600"	"1366"	"chrome"	"110.0.0"	"FALSE"	"Windows 10"	"60.74"	"029"	n/a	n/a	n/a	n/a	n/a	n/a	"fixation"	n/a	n/a	n/a	n/a	"NULL"	n/a	"NULL"	"NULL"	"NULL"	"<p style=\"color: black; font-size: 80px; padding-left: 17%; padding-right: 36%; padding-top: 30%; padding-bottom: 41%\">+</p>"	"1155"	n/a	n/a	n/a	n/a	n/a	n/a	n/a	n/a	n/a
n/a	"image-keyboard-response"	"193"	"430796"	"0.0-6.0-2.0-1.4"	"kkph67"	"600"	"1366"	"chrome"	"110.0.0"	"FALSE"	"Windows 10"	"60.74"	"029"	n/a	n/a	n/a	n/a	n/a	n/a	"Trial"	n/a	n/a	n/a	"1164"	"arrowdown"	n/a	"NULL"	"NULL"	"NULL"	"stimuli/MullerLyer_20.04286_-0.3500.png"	n/a	"MullerLyer"	"arrowdown"	"1169"	"TRUE"	"MullerLyer"	"20.042860000"	"-0.350000000"	"2"	"5"
n/a	"html-keyboard-response"	"194"	"432297"	"0.0-6.0-2.0-0.5"	"kkph67"	"600"	"1366"	"chrome"	"110.0.0"	"FALSE"	"Windows 10"	"60.74"	"029"	n/a	n/a	n/a	n/a	n/a	n/a	"fixation"	n/a	n/a	n/a	n/a	"NULL"	n/a	"NULL"	"NULL"	"NULL"	"<p style=\"color: black; font-size: 80px; padding-left: 2%; padding-right: 26%; padding-top: 46%; padding-bottom: 28%\">+</p>"	"1492"	n/a	n/a	n/a	n/a	n/a	n/a	n/a	n/a	n/a
n/a	"image-keyboard-response"	"195"	"432831"	"0.0-6.0-2.0-1.5"	"kkph67"	"600"	"1366"	"chrome"	"110.0.0"	"FALSE"	"Windows 10"	"60.74"	"029"	n/a	n/a	n/a	n/a	n/a	n/a	"Trial"	n/a	n/a	n/a	"533"	"arrowdown"	n/a	"NULL"	"NULL"	"NULL"	"stimuli/MullerLyer_-14.12857_-0.23665.png"	n/a	"MullerLyer"	"arrowdown"	"1501"	"TRUE"	"MullerLyer"	"-14.12857000"	"-0.236650000"	"2"	"6"
n/a	"html-keyboard-response"	"196"	"434204"	"0.0-6.0-2.0-0.6"	"kkph67"	"600"	"1366"	"chrome"	"110.0.0"	"FALSE"	"Windows 10"	"60.74"	"029"	n/a	n/a	n/a	n/a	n/a	n/a	"fixation"	n/a	n/a	n/a	n/a	"NULL"	n/a	"NULL"	"NULL"	"NULL"	"<p style=\"color: black; font-size: 80px; padding-left: 21%; padding-right: 36%; padding-top: 28%; padding-bottom: 34%\">+</p>"	"1371"	n/a	n/a	n/a	n/a	n/a	n/a	n/a	n/a	n/a
n/a	"image-keyboard-response"	"197"	"434756"	"0.0-6.0-2.0-1.6"	"kkph67"	"600"	"1366"	"chrome"	"110.0.0"	"FALSE"	"Windows 10"	"60.74"	"029"	n/a	n/a	n/a	n/a	n/a	n/a	"Trial"	n/a	n/a	n/a	"552"	"arrowdown"	n/a	"NULL"	"NULL"	"NULL"	"stimuli/MullerLyer_-20.04286_-0.14541.png"	n/a	"MullerLyer"	"arrowdown"	"1373"	"TRUE"	"MullerLyer"	"-20.04286000"	"-0.145410000"	"2"	"7"
n/a	"html-keyboard-response"	"198"	"436227"	"0.0-6.0-2.0-0.7"	"kkph67"	"600"	"1366"	"chrome"	"110.0.0"	"FALSE"	"Windows 10"	"60.74"	"029"	n/a	n/a	n/a	n/a	n/a	n/a	"fixation"	n/a	n/a	n/a	n/a	"NULL"	n/a	"NULL"	"NULL"	"NULL"	"<p style=\"color: black; font-size: 80px; padding-left: 28%; padding-right: 38%; padding-top: 45%; padding-bottom: 10%\">+</p>"	"1469"	n/a	n/a	n/a	n/a	n/a	n/a	n/a	n/a	n/a
n/a	"image-keyboard-response"	"199"	"437057"	"0.0-6.0-2.0-1.7"	"kkph67"	"600"	"1366"	"chrome"	"110.0.0"	"FALSE"	"Windows 10"	"60.74"	"029"	n/a	n/a	n/a	n/a	n/a	n/a	"Trial"	n/a	n/a	n/a	"829"	"arrowup"	n/a	"NULL"	"NULL"	"NULL"	"stimuli/MullerLyer_-20.04286_0.07627.png"	n/a	"MullerLyer"	"arrowup"	"1471"	"TRUE"	"MullerLyer"	"-20.04286000"	"0.0762700000"	"2"	"8"
n/a	"html-keyboard-response"	"200"	"438429"	"0.0-6.0-2.0-0.8"	"kkph67"	"600"	"1366"	"chrome"	"110.0.0"	"FALSE"	"Windows 10"	"60.74"	"029"	n/a	n/a	n/a	n/a	n/a	n/a	"fixation"	n/a	n/a	n/a	n/a	"NULL"	n/a	"NULL"	"NULL"	"NULL"	"<p style=\"color: black; font-size: 80px; padding-left: 2%; padding-right: 2%; padding-top: 43%; padding-bottom: 9%\">+</p>"	"1362"	n/a	n/a	n/a	n/a	n/a	n/a	n/a	n/a	n/a
n/a	"image-keyboard-response"	"201"	"439236"	"0.0-6.0-2.0-1.8"	"kkph67"	"600"	"1366"	"chrome"	"110.0.0"	"FALSE"	"Windows 10"	"60.74"	"029"	n/a	n/a	n/a	n/a	n/a	n/a	"Trial"	n/a	n/a	n/a	"806"	"arrowdown"	n/a	"NULL"	"NULL"	"NULL"	"stimuli/MullerLyer_-20.04286_-0.23665.png"	n/a	"MullerLyer"	"arrowdown"	"1372"	"TRUE"	"MullerLyer"	"-20.04286000"	"-0.236650000"	"2"	"9"
n/a	"html-keyboard-response"	"202"	"440603"	"0.0-6.0-2.0-0.9"	"kkph67"	"600"	"1366"	"chrome"	"110.0.0"	"FALSE"	"Windows 10"	"60.74"	"029"	n/a	n/a	n/a	n/a	n/a	n/a	"fixation"	n/a	n/a	n/a	n/a	"NULL"	n/a	"NULL"	"NULL"	"NULL"	"<p style=\"color: black; font-size: 80px; padding-left: 33%; padding-right: 36%; padding-top: 23%; padding-bottom: 17%\">+</p>"	"1350"	n/a	n/a	n/a	n/a	n/a	n/a	n/a	n/a	n/a
n/a	"image-keyboard-response"	"203"	"441254"	"0.0-6.0-2.0-1.9"	"kkph67"	"600"	"1366"	"chrome"	"110.0.0"	"FALSE"	"Windows 10"	"60.74"	"029"	n/a	n/a	n/a	n/a	n/a	n/a	"Trial"	n/a	n/a	n/a	"650"	"arrowup"	n/a	"NULL"	"NULL"	"NULL"	"stimuli/MullerLyer_-2.3000_0.35000.png"	n/a	"MullerLyer"	"arrowup"	"1367"	"TRUE"	"MullerLyer"	"-2.300000000"	"0.3500000000"	"2"	"10"
n/a	"html-keyboard-response"	"204"	"442704"	"0.0-6.0-2.0-0.10"	"kkph67"	"600"	"1366"	"chrome"	"110.0.0"	"FALSE"	"Windows 10"	"60.74"	"029"	n/a	n/a	n/a	n/a	n/a	n/a	"fixation"	n/a	n/a	n/a	n/a	"NULL"	n/a	"NULL"	"NULL"	"NULL"	"<p style=\"color: black; font-size: 80px; padding-left: 50%; padding-right: 46%; padding-top: 30%; padding-bottom: 12%\">+</p>"	"1445"	n/a	n/a	n/a	n/a	n/a	n/a	n/a	n/a	n/a
n/a	"image-keyboard-response"	"205"	"443634"	"0.0-6.0-2.0-1.10"	"kkph67"	"600"	"1366"	"chrome"	"110.0.0"	"FALSE"	"Windows 10"	"60.74"	"029"	n/a	n/a	n/a	n/a	n/a	n/a	"Trial"	n/a	n/a	n/a	"930"	"arrowup"	n/a	"NULL"	"NULL"	"NULL"	"stimuli/MullerLyer_-8.21429_0.07627.png"	n/a	"MullerLyer"	"arrowup"	"1450"	"TRUE"	"MullerLyer"	"-8.214290000"	"0.0762700000"	"2"	"11"
n/a	"html-keyboard-response"	"206"	"444868"	"0.0-6.0-2.0-0.11"	"kkph67"	"600"	"1366"	"chrome"	"110.0.0"	"FALSE"	"Windows 10"	"60.74"	"029"	n/a	n/a	n/a	n/a	n/a	n/a	"fixation"	n/a	n/a	n/a	n/a	"NULL"	n/a	"NULL"	"NULL"	"NULL"	"<p style=\"color: black; font-size: 80px; padding-left: 19%; padding-right: 17%; padding-top: 5%; padding-bottom: 21%\">+</p>"	"1223"	n/a	n/a	n/a	n/a	n/a	n/a	n/a	n/a	n/a
n/a	"image-keyboard-response"	"207"	"445588"	"0.0-6.0-2.0-1.11"	"kkph67"	"600"	"1366"	"chrome"	"110.0.0"	"FALSE"	"Windows 10"	"60.74"	"029"	n/a	n/a	n/a	n/a	n/a	n/a	"Trial"	n/a	n/a	n/a	"719"	"arrowup"	n/a	"NULL"	"NULL"	"NULL"	"stimuli/MullerLyer_-2.3000_0.07627.png"	n/a	"MullerLyer"	"arrowup"	"1234"	"TRUE"	"MullerLyer"	"-2.300000000"	"0.0762700000"	"2"	"12"
n/a	"html-keyboard-response"	"208"	"446892"	"0.0-6.0-2.0-0.12"	"kkph67"	"600"	"1366"	"chrome"	"110.0.0"	"FALSE"	"Windows 10"	"60.74"	"029"	n/a	n/a	n/a	n/a	n/a	n/a	"fixation"	n/a	n/a	n/a	n/a	"NULL"	n/a	"NULL"	"NULL"	"NULL"	"<p style=\"color: black; font-size: 80px; padding-left: 9%; padding-right: 14%; padding-top: 29%; padding-bottom: 47%\">+</p>"	"1294"	n/a	n/a	n/a	n/a	n/a	n/a	n/a	n/a	n/a
n/a	"image-keyboard-response"	"209"	"447467"	"0.0-6.0-2.0-1.12"	"kkph67"	"600"	"1366"	"chrome"	"110.0.0"	"FALSE"	"Windows 10"	"60.74"	"029"	n/a	n/a	n/a	n/a	n/a	n/a	"Trial"	n/a	n/a	n/a	"574"	"arrowdown"	n/a	"NULL"	"NULL"	"NULL"	"stimuli/MullerLyer_-8.21429_-0.23665.png"	n/a	"MullerLyer"	"arrowdown"	"1304"	"TRUE"	"MullerLyer"	"-8.214290000"	"-0.236650000"	"2"	"13"
n/a	"html-keyboard-response"	"210"	"448597"	"0.0-6.0-2.0-0.13"	"kkph67"	"600"	"1366"	"chrome"	"110.0.0"	"FALSE"	"Windows 10"	"60.74"	"029"	n/a	n/a	n/a	n/a	n/a	n/a	"fixation"	n/a	n/a	n/a	n/a	"NULL"	n/a	"NULL"	"NULL"	"NULL"	"<p style=\"color: black; font-size: 80px; padding-left: 15%; padding-right: 14%; padding-top: 38%; padding-bottom: 39%\">+</p>"	"1122"	n/a	n/a	n/a	n/a	n/a	n/a	n/a	n/a	n/a
n/a	"image-keyboard-response"	"211"	"449140"	"0.0-6.0-2.0-1.13"	"kkph67"	"600"	"1366"	"chrome"	"110.0.0"	"FALSE"	"Windows 10"	"60.74"	"029"	n/a	n/a	n/a	n/a	n/a	n/a	"Trial"	n/a	n/a	n/a	"542"	"arrowdown"	n/a	"NULL"	"NULL"	"NULL"	"stimuli/MullerLyer_2.30000_-0.23665.png"	n/a	"MullerLyer"	"arrowdown"	"1130"	"TRUE"	"MullerLyer"	"2.3000000000"	"-0.236650000"	"2"	"14"
n/a	"html-keyboard-response"	"212"	"450498"	"0.0-6.0-2.0-0.14"	"kkph67"	"600"	"1366"	"chrome"	"110.0.0"	"FALSE"	"Windows 10"	"60.74"	"029"	n/a	n/a	n/a	n/a	n/a	n/a	"fixation"	n/a	n/a	n/a	n/a	"NULL"	n/a	"NULL"	"NULL"	"NULL"	"<p style=\"color: black; font-size: 80px; padding-left: 2%; padding-right: 49%; padding-top: 34%; padding-bottom: 39%\">+</p>"	"1345"	n/a	n/a	n/a	n/a	n/a	n/a	n/a	n/a	n/a
n/a	"image-keyboard-response"	"213"	"451038"	"0.0-6.0-2.0-1.14"	"kkph67"	"600"	"1366"	"chrome"	"110.0.0"	"FALSE"	"Windows 10"	"60.74"	"029"	n/a	n/a	n/a	n/a	n/a	n/a	"Trial"	n/a	n/a	n/a	"540"	"arrowdown"	n/a	"NULL"	"NULL"	"NULL"	"stimuli/MullerLyer_-2.3000_-0.3500.png"	n/a	"MullerLyer"	"arrowdown"	"1358"	"TRUE"	"MullerLyer"	"-2.300000000"	"-0.350000000"	"2"	"15"
n/a	"html-keyboard-response"	"214"	"452072"	"0.0-6.0-2.0-0.15"	"kkph67"	"600"	"1366"	"chrome"	"110.0.0"	"FALSE"	"Windows 10"	"60.74"	"029"	n/a	n/a	n/a	n/a	n/a	n/a	"fixation"	n/a	n/a	n/a	n/a	"NULL"	n/a	"NULL"	"NULL"	"NULL"	"<p style=\"color: black; font-size: 80px; padding-left: 23%; padding-right: 21%; padding-top: 5%; padding-bottom: 16%\">+</p>"	"1028"	n/a	n/a	n/a	n/a	n/a	n/a	n/a	n/a	n/a
n/a	"image-keyboard-response"	"215"	"452766"	"0.0-6.0-2.0-1.15"	"kkph67"	"600"	"1366"	"chrome"	"110.0.0"	"FALSE"	"Windows 10"	"60.74"	"029"	n/a	n/a	n/a	n/a	n/a	n/a	"Trial"	n/a	n/a	n/a	"694"	"arrowup"	n/a	"NULL"	"NULL"	"NULL"	"stimuli/MullerLyer_2.30000_0.07627.png"	n/a	"MullerLyer"	"arrowup"	"1034"	"TRUE"	"MullerLyer"	"2.3000000000"	"0.0762700000"	"2"	"16"
n/a	"html-keyboard-response"	"216"	"453984"	"0.0-6.0-2.0-0.16"	"kkph67"	"600"	"1366"	"chrome"	"110.0.0"	"FALSE"	"Windows 10"	"60.74"	"029"	n/a	n/a	n/a	n/a	n/a	n/a	"fixation"	n/a	n/a	n/a	n/a	"NULL"	n/a	"NULL"	"NULL"	"NULL"	"<p style=\"color: black; font-size: 80px; padding-left: 37%; padding-right: 42%; padding-top: 13%; padding-bottom: 7%\">+</p>"	"1212"	n/a	n/a	n/a	n/a	n/a	n/a	n/a	n/a	n/a
n/a	"image-keyboard-response"	"217"	"455186"	"0.0-6.0-2.0-1.16"	"kkph67"	"600"	"1366"	"chrome"	"110.0.0"	"FALSE"	"Windows 10"	"60.74"	"029"	n/a	n/a	n/a	n/a	n/a	n/a	"Trial"	n/a	n/a	n/a	"1201"	"arrowdown"	n/a	"NULL"	"NULL"	"NULL"	"stimuli/MullerLyer_8.21429_-0.14541.png"	n/a	"MullerLyer"	"arrowdown"	"1218"	"TRUE"	"MullerLyer"	"8.2142900000"	"-0.145410000"	"2"	"17"
n/a	"html-keyboard-response"	"218"	"456477"	"0.0-6.0-2.0-0.17"	"kkph67"	"600"	"1366"	"chrome"	"110.0.0"	"FALSE"	"Windows 10"	"60.74"	"029"	n/a	n/a	n/a	n/a	n/a	n/a	"fixation"	n/a	n/a	n/a	n/a	"NULL"	n/a	"NULL"	"NULL"	"NULL"	"<p style=\"color: black; font-size: 80px; padding-left: 29%; padding-right: 27%; padding-top: 14%; padding-bottom: 43%\">+</p>"	"1275"	n/a	n/a	n/a	n/a	n/a	n/a	n/a	n/a	n/a
n/a	"image-keyboard-response"	"219"	"457175"	"0.0-6.0-2.0-1.17"	"kkph67"	"600"	"1366"	"chrome"	"110.0.0"	"FALSE"	"Windows 10"	"60.74"	"029"	n/a	n/a	n/a	n/a	n/a	n/a	"Trial"	n/a	n/a	n/a	"697"	"arrowdown"	n/a	"NULL"	"NULL"	"NULL"	"stimuli/MullerLyer_-14.12857_-0.07627.png"	n/a	"MullerLyer"	"arrowdown"	"1291"	"TRUE"	"MullerLyer"	"-14.12857000"	"-0.076270000"	"2"	"18"
n/a	"html-keyboard-response"	"220"	"458351"	"0.0-6.0-2.0-0.18"	"kkph67"	"600"	"1366"	"chrome"	"110.0.0"	"FALSE"	"Windows 10"	"60.74"	"029"	n/a	n/a	n/a	n/a	n/a	n/a	"fixation"	n/a	n/a	n/a	n/a	"NULL"	n/a	"NULL"	"NULL"	"NULL"	"<p style=\"color: black; font-size: 80px; padding-left: 45%; padding-right: 25%; padding-top: 32%; padding-bottom: 17%\">+</p>"	"1168"	n/a	n/a	n/a	n/a	n/a	n/a	n/a	n/a	n/a
n/a	"image-keyboard-response"	"221"	"459864"	"0.0-6.0-2.0-1.18"	"kkph67"	"600"	"1366"	"chrome"	"110.0.0"	"FALSE"	"Windows 10"	"60.74"	"029"	n/a	n/a	n/a	n/a	n/a	n/a	"Trial"	n/a	n/a	n/a	"1512"	"arrowup"	n/a	"NULL"	"NULL"	"NULL"	"stimuli/MullerLyer_8.21429_0.07627.png"	n/a	"MullerLyer"	"arrowup"	"1176"	"TRUE"	"MullerLyer"	"8.2142900000"	"0.0762700000"	"2"	"19"
n/a	"html-keyboard-response"	"222"	"461364"	"0.0-6.0-2.0-0.19"	"kkph67"	"600"	"1366"	"chrome"	"110.0.0"	"FALSE"	"Windows 10"	"60.74"	"029"	n/a	n/a	n/a	n/a	n/a	n/a	"fixation"	n/a	n/a	n/a	n/a	"NULL"	n/a	"NULL"	"NULL"	"NULL"	"<p style=\"color: black; font-size: 80px; padding-left: 28%; padding-right: 43%; padding-top: 42%; padding-bottom: 13%\">+</p>"	"1498"	n/a	n/a	n/a	n/a	n/a	n/a	n/a	n/a	n/a
n/a	"image-keyboard-response"	"223"	"462074"	"0.0-6.0-2.0-1.19"	"kkph67"	"600"	"1366"	"chrome"	"110.0.0"	"FALSE"	"Windows 10"	"60.74"	"029"	n/a	n/a	n/a	n/a	n/a	n/a	"Trial"	n/a	n/a	n/a	"710"	"arrowdown"	n/a	"NULL"	"NULL"	"NULL"	"stimuli/MullerLyer_-2.3000_-0.23665.png"	n/a	"MullerLyer"	"arrowdown"	"1500"	"TRUE"	"MullerLyer"	"-2.300000000"	"-0.236650000"	"2"	"20"
n/a	"html-keyboard-response"	"224"	"463496"	"0.0-6.0-2.0-0.20"	"kkph67"	"600"	"1366"	"chrome"	"110.0.0"	"FALSE"	"Windows 10"	"60.74"	"029"	n/a	n/a	n/a	n/a	n/a	n/a	"fixation"	n/a	n/a	n/a	n/a	"NULL"	n/a	"NULL"	"NULL"	"NULL"	"<p style=\"color: black; font-size: 80px; padding-left: 29%; padding-right: 42%; padding-top: 5%; padding-bottom: 23%\">+</p>"	"1410"	n/a	n/a	n/a	n/a	n/a	n/a	n/a	n/a	n/a
n/a	"image-keyboard-response"	"225"	"465440"	"0.0-6.0-2.0-1.20"	"kkph67"	"600"	"1366"	"chrome"	"110.0.0"	"FALSE"	"Windows 10"	"60.74"	"029"	n/a	n/a	n/a	n/a	n/a	n/a	"Trial"	n/a	n/a	n/a	"1943"	"arrowdown"	n/a	"NULL"	"NULL"	"NULL"	"stimuli/MullerLyer_14.12857_-0.23665.png"	n/a	"MullerLyer"	"arrowdown"	"1422"	"TRUE"	"MullerLyer"	"14.128570000"	"-0.236650000"	"2"	"21"
n/a	"html-keyboard-response"	"226"	"466604"	"0.0-6.0-2.0-0.21"	"kkph67"	"600"	"1366"	"chrome"	"110.0.0"	"FALSE"	"Windows 10"	"60.74"	"029"	n/a	n/a	n/a	n/a	n/a	n/a	"fixation"	n/a	n/a	n/a	n/a	"NULL"	n/a	"NULL"	"NULL"	"NULL"	"<p style=\"color: black; font-size: 80px; padding-left: 8%; padding-right: 28%; padding-top: 38%; padding-bottom: 44%\">+</p>"	"1163"	n/a	n/a	n/a	n/a	n/a	n/a	n/a	n/a	n/a
n/a	"image-keyboard-response"	"227"	"467295"	"0.0-6.0-2.0-1.21"	"kkph67"	"600"	"1366"	"chrome"	"110.0.0"	"FALSE"	"Windows 10"	"60.74"	"029"	n/a	n/a	n/a	n/a	n/a	n/a	"Trial"	n/a	n/a	n/a	"690"	"arrowup"	n/a	"NULL"	"NULL"	"NULL"	"stimuli/MullerLyer_-20.04286_0.14541.png"	n/a	"MullerLyer"	"arrowup"	"1164"	"TRUE"	"MullerLyer"	"-20.04286000"	"0.1454100000"	"2"	"22"
n/a	"html-keyboard-response"	"228"	"468681"	"0.0-6.0-2.0-0.22"	"kkph67"	"600"	"1366"	"chrome"	"110.0.0"	"FALSE"	"Windows 10"	"60.74"	"029"	n/a	n/a	n/a	n/a	n/a	n/a	"fixation"	n/a	n/a	n/a	n/a	"NULL"	n/a	"NULL"	"NULL"	"NULL"	"<p style=\"color: black; font-size: 80px; padding-left: 10%; padding-right: 49%; padding-top: 32%; padding-bottom: 41%\">+</p>"	"1380"	n/a	n/a	n/a	n/a	n/a	n/a	n/a	n/a	n/a
n/a	"image-keyboard-response"	"229"	"469413"	"0.0-6.0-2.0-1.22"	"kkph67"	"600"	"1366"	"chrome"	"110.0.0"	"FALSE"	"Windows 10"	"60.74"	"029"	n/a	n/a	n/a	n/a	n/a	n/a	"Trial"	n/a	n/a	n/a	"731"	"arrowup"	n/a	"NULL"	"NULL"	"NULL"	"stimuli/MullerLyer_20.04286_0.35000.png"	n/a	"MullerLyer"	"arrowup"	"1386"	"TRUE"	"MullerLyer"	"20.042860000"	"0.3500000000"	"2"	"23"
n/a	"html-keyboard-response"	"230"	"470650"	"0.0-6.0-2.0-0.23"	"kkph67"	"600"	"1366"	"chrome"	"110.0.0"	"FALSE"	"Windows 10"	"60.74"	"029"	n/a	n/a	n/a	n/a	n/a	n/a	"fixation"	n/a	n/a	n/a	n/a	"NULL"	n/a	"NULL"	"NULL"	"NULL"	"<p style=\"color: black; font-size: 80px; padding-left: 1%; padding-right: 20%; padding-top: 24%; padding-bottom: 1%\">+</p>"	"1235"	n/a	n/a	n/a	n/a	n/a	n/a	n/a	n/a	n/a
n/a	"image-keyboard-response"	"231"	"471572"	"0.0-6.0-2.0-1.23"	"kkph67"	"600"	"1366"	"chrome"	"110.0.0"	"FALSE"	"Windows 10"	"60.74"	"029"	n/a	n/a	n/a	n/a	n/a	n/a	"Trial"	n/a	n/a	n/a	"921"	"arrowdown"	n/a	"NULL"	"NULL"	"NULL"	"stimuli/MullerLyer_2.30000_-0.3500.png"	n/a	"MullerLyer"	"arrowdown"	"1237"	"TRUE"	"MullerLyer"	"2.3000000000"	"-0.350000000"	"2"	"24"
n/a	"html-keyboard-response"	"232"	"472811"	"0.0-6.0-2.0-0.24"	"kkph67"	"600"	"1366"	"chrome"	"110.0.0"	"FALSE"	"Windows 10"	"60.74"	"029"	n/a	n/a	n/a	n/a	n/a	n/a	"fixation"	n/a	n/a	n/a	n/a	"NULL"	n/a	"NULL"	"NULL"	"NULL"	"<p style=\"color: black; font-size: 80px; padding-left: 8%; padding-right: 7%; padding-top: 34%; padding-bottom: 10%\">+</p>"	"1233"	n/a	n/a	n/a	n/a	n/a	n/a	n/a	n/a	n/a
n/a	"image-keyboard-response"	"233"	"473863"	"0.0-6.0-2.0-1.24"	"kkph67"	"600"	"1366"	"chrome"	"110.0.0"	"FALSE"	"Windows 10"	"60.74"	"029"	n/a	n/a	n/a	n/a	n/a	n/a	"Trial"	n/a	n/a	n/a	"1051"	"arrowdown"	n/a	"NULL"	"NULL"	"NULL"	"stimuli/MullerLyer_-8.21429_-0.07627.png"	n/a	"MullerLyer"	"arrowdown"	"1239"	"TRUE"	"MullerLyer"	"-8.214290000"	"-0.076270000"	"2"	"25"
n/a	"html-keyboard-response"	"234"	"475119"	"0.0-6.0-2.0-0.25"	"kkph67"	"600"	"1366"	"chrome"	"110.0.0"	"FALSE"	"Windows 10"	"60.74"	"029"	n/a	n/a	n/a	n/a	n/a	n/a	"fixation"	n/a	n/a	n/a	n/a	"NULL"	n/a	"NULL"	"NULL"	"NULL"	"<p style=\"color: black; font-size: 80px; padding-left: 49%; padding-right: 27%; padding-top: 4%; padding-bottom: 44%\">+</p>"	"1252"	n/a	n/a	n/a	n/a	n/a	n/a	n/a	n/a	n/a
n/a	"image-keyboard-response"	"235"	"475704"	"0.0-6.0-2.0-1.25"	"kkph67"	"600"	"1366"	"chrome"	"110.0.0"	"FALSE"	"Windows 10"	"60.74"	"029"	n/a	n/a	n/a	n/a	n/a	n/a	"Trial"	n/a	n/a	n/a	"584"	"arrowdown"	n/a	"NULL"	"NULL"	"NULL"	"stimuli/MullerLyer_-8.21429_-0.14541.png"	n/a	"MullerLyer"	"arrowdown"	"1256"	"TRUE"	"MullerLyer"	"-8.214290000"	"-0.145410000"	"2"	"26"
n/a	"html-keyboard-response"	"236"	"477053"	"0.0-6.0-2.0-0.26"	"kkph67"	"600"	"1366"	"chrome"	"110.0.0"	"FALSE"	"Windows 10"	"60.74"	"029"	n/a	n/a	n/a	n/a	n/a	n/a	"fixation"	n/a	n/a	n/a	n/a	"NULL"	n/a	"NULL"	"NULL"	"NULL"	"<p style=\"color: black; font-size: 80px; padding-left: 44%; padding-right: 10%; padding-top: 3%; padding-bottom: 42%\">+</p>"	"1340"	n/a	n/a	n/a	n/a	n/a	n/a	n/a	n/a	n/a
n/a	"image-keyboard-response"	"237"	"478190"	"0.0-6.0-2.0-1.26"	"kkph67"	"600"	"1366"	"chrome"	"110.0.0"	"FALSE"	"Windows 10"	"60.74"	"029"	n/a	n/a	n/a	n/a	n/a	n/a	"Trial"	n/a	n/a	n/a	"1136"	"arrowdown"	n/a	"NULL"	"NULL"	"NULL"	"stimuli/MullerLyer_-20.04286_-0.3500.png"	n/a	"MullerLyer"	"arrowdown"	"1349"	"TRUE"	"MullerLyer"	"-20.04286000"	"-0.350000000"	"2"	"27"
n/a	"html-keyboard-response"	"238"	"479538"	"0.0-6.0-2.0-0.27"	"kkph67"	"600"	"1366"	"chrome"	"110.0.0"	"FALSE"	"Windows 10"	"60.74"	"029"	n/a	n/a	n/a	n/a	n/a	n/a	"fixation"	n/a	n/a	n/a	n/a	"NULL"	n/a	"NULL"	"NULL"	"NULL"	"<p style=\"color: black; font-size: 80px; padding-left: 17%; padding-right: 39%; padding-top: 28%; padding-bottom: 33%\">+</p>"	"1335"	n/a	n/a	n/a	n/a	n/a	n/a	n/a	n/a	n/a
n/a	"image-keyboard-response"	"239"	"481078"	"0.0-6.0-2.0-1.27"	"kkph67"	"600"	"1366"	"chrome"	"110.0.0"	"FALSE"	"Windows 10"	"60.74"	"029"	n/a	n/a	n/a	n/a	n/a	n/a	"Trial"	n/a	n/a	n/a	"1539"	"arrowup"	n/a	"NULL"	"NULL"	"NULL"	"stimuli/MullerLyer_20.04286_-0.23665.png"	n/a	"MullerLyer"	"arrowdown"	"1348"	"FALSE"	"MullerLyer"	"20.042860000"	"-0.236650000"	"2"	"28"
n/a	"html-keyboard-response"	"240"	"482520"	"0.0-6.0-2.0-0.28"	"kkph67"	"600"	"1366"	"chrome"	"110.0.0"	"FALSE"	"Windows 10"	"60.74"	"029"	n/a	n/a	n/a	n/a	n/a	n/a	"fixation"	n/a	n/a	n/a	n/a	"NULL"	n/a	"NULL"	"NULL"	"NULL"	"<p style=\"color: black; font-size: 80px; padding-left: 2%; padding-right: 48%; padding-top: 45%; padding-bottom: 7%\">+</p>"	"1441"	n/a	n/a	n/a	n/a	n/a	n/a	n/a	n/a	n/a
n/a	"image-keyboard-response"	"241"	"483165"	"0.0-6.0-2.0-1.28"	"kkph67"	"600"	"1366"	"chrome"	"110.0.0"	"FALSE"	"Windows 10"	"60.74"	"029"	n/a	n/a	n/a	n/a	n/a	n/a	"Trial"	n/a	n/a	n/a	"645"	"arrowdown"	n/a	"NULL"	"NULL"	"NULL"	"stimuli/MullerLyer_2.30000_-0.14541.png"	n/a	"MullerLyer"	"arrowdown"	"1442"	"TRUE"	"MullerLyer"	"2.3000000000"	"-0.145410000"	"2"	"29"
n/a	"html-keyboard-response"	"242"	"484557"	"0.0-6.0-2.0-0.29"	"kkph67"	"600"	"1366"	"chrome"	"110.0.0"	"FALSE"	"Windows 10"	"60.74"	"029"	n/a	n/a	n/a	n/a	n/a	n/a	"fixation"	n/a	n/a	n/a	n/a	"NULL"	n/a	"NULL"	"NULL"	"NULL"	"<p style=\"color: black; font-size: 80px; padding-left: 48%; padding-right: 9%; padding-top: 32%; padding-bottom: 35%\">+</p>"	"1376"	n/a	n/a	n/a	n/a	n/a	n/a	n/a	n/a	n/a
n/a	"image-keyboard-response"	"243"	"485149"	"0.0-6.0-2.0-1.29"	"kkph67"	"600"	"1366"	"chrome"	"110.0.0"	"FALSE"	"Windows 10"	"60.74"	"029"	n/a	n/a	n/a	n/a	n/a	n/a	"Trial"	n/a	n/a	n/a	"592"	"arrowup"	n/a	"NULL"	"NULL"	"NULL"	"stimuli/MullerLyer_20.04286_-0.07627.png"	n/a	"MullerLyer"	"arrowdown"	"1392"	"FALSE"	"MullerLyer"	"20.042860000"	"-0.076270000"	"2"	"30"
n/a	"html-keyboard-response"	"244"	"486171"	"0.0-6.0-2.0-0.30"	"kkph67"	"600"	"1366"	"chrome"	"110.0.0"	"FALSE"	"Windows 10"	"60.74"	"029"	n/a	n/a	n/a	n/a	n/a	n/a	"fixation"	n/a	n/a	n/a	n/a	"NULL"	n/a	"NULL"	"NULL"	"NULL"	"<p style=\"color: black; font-size: 80px; padding-left: 27%; padding-right: 47%; padding-top: 23%; padding-bottom: 26%\">+</p>"	"1017"	n/a	n/a	n/a	n/a	n/a	n/a	n/a	n/a	n/a
n/a	"image-keyboard-response"	"245"	"486885"	"0.0-6.0-2.0-1.30"	"kkph67"	"600"	"1366"	"chrome"	"110.0.0"	"FALSE"	"Windows 10"	"60.74"	"029"	n/a	n/a	n/a	n/a	n/a	n/a	"Trial"	n/a	n/a	n/a	"713"	"arrowup"	n/a	"NULL"	"NULL"	"NULL"	"stimuli/MullerLyer_-8.21429_0.35000.png"	n/a	"MullerLyer"	"arrowup"	"1022"	"TRUE"	"MullerLyer"	"-8.214290000"	"0.3500000000"	"2"	"31"
n/a	"html-keyboard-response"	"246"	"487906"	"0.0-6.0-2.0-0.31"	"kkph67"	"600"	"1366"	"chrome"	"110.0.0"	"FALSE"	"Windows 10"	"60.74"	"029"	n/a	n/a	n/a	n/a	n/a	n/a	"fixation"	n/a	n/a	n/a	n/a	"NULL"	n/a	"NULL"	"NULL"	"NULL"	"<p style=\"color: black; font-size: 80px; padding-left: 2%; padding-right: 24%; padding-top: 39%; padding-bottom: 43%\">+</p>"	"1019"	n/a	n/a	n/a	n/a	n/a	n/a	n/a	n/a	n/a
n/a	"image-keyboard-response"	"247"	"488645"	"0.0-6.0-2.0-1.31"	"kkph67"	"600"	"1366"	"chrome"	"110.0.0"	"FALSE"	"Windows 10"	"60.74"	"029"	n/a	n/a	n/a	n/a	n/a	n/a	"Trial"	n/a	n/a	n/a	"738"	"arrowup"	n/a	"NULL"	"NULL"	"NULL"	"stimuli/MullerLyer_8.21429_0.35000.png"	n/a	"MullerLyer"	"arrowup"	"1021"	"TRUE"	"MullerLyer"	"8.2142900000"	"0.3500000000"	"2"	"32"
n/a	"html-keyboard-response"	"248"	"490017"	"0.0-6.0-2.0-0.32"	"kkph67"	"600"	"1366"	"chrome"	"110.0.0"	"FALSE"	"Windows 10"	"60.74"	"029"	n/a	n/a	n/a	n/a	n/a	n/a	"fixation"	n/a	n/a	n/a	n/a	"NULL"	n/a	"NULL"	"NULL"	"NULL"	"<p style=\"color: black; font-size: 80px; padding-left: 6%; padding-right: 7%; padding-top: 25%; padding-bottom: 23%\">+</p>"	"1362"	n/a	n/a	n/a	n/a	n/a	n/a	n/a	n/a	n/a
