"success"	"trial_type"	"trial_index"	"time_elapsed"	"internal_node_id"	"participant_id"	"screen_height"	"screen_width"	"browser"	"browser_version"	"mobile"	"os"	"vsync_rate"	"subject_id"	"width"	"height"	"webaudio"	"fullscreen"	"webcam"	"microphone"	"screen"	"version"	"date"	"time"	"rt"	"response"	"timeout"	"failed_images"	"failed_audio"	"failed_video"	"stimulus"	"trial_duration"	"block"	"correct_response"	"prestimulus_duration"	"correct"	"type"	"illusion_strength"	"illusion_difference"	"block_number"	"trial_number"
"TRUE"	"fullscreen"	"0"	"2332"	"0.0-0.0"	"pecugg"	"600"	"1366"	"chrome"	"108.0.0"	"FALSE"	"Windows 10"	"60.83"	"129"	n/a	n/a	n/a	n/a	n/a	n/a	n/a	n/a	n/a	n/a	n/a	"NULL"	n/a	"NULL"	"NULL"	"NULL"	n/a	n/a	n/a	n/a	n/a	n/a	n/a	n/a	n/a	n/a	n/a
n/a	"browser-check"	"1"	"3346"	"0.0-1.0"	"pecugg"	"600"	"1366"	"chrome"	"108.0.0"	"FALSE"	"Windows 10"	"60.83"	"129"	"1366"	"600"	"TRUE"	"TRUE"	"TRUE"	"TRUE"	"browser_info"	"1.0"	"29/12/2022"	"13:30:36"	n/a	"NULL"	n/a	"NULL"	"NULL"	"NULL"	n/a	n/a	n/a	n/a	n/a	n/a	n/a	n/a	n/a	n/a	n/a
n/a	"survey-text"	"2"	"9664"	"0.0-2.0"	"pecugg"	"600"	"1366"	"chrome"	"108.0.0"	"FALSE"	"Windows 10"	"60.83"	"129"	n/a	n/a	n/a	n/a	n/a	n/a	"subject_id"	n/a	n/a	n/a	"6313"	"list(subject_id = \"129\")"	n/a	"NULL"	"NULL"	"NULL"	n/a	n/a	n/a	n/a	n/a	n/a	n/a	n/a	n/a	n/a	n/a
"TRUE"	"preload"	"3"	"9677"	"0.0-3.0"	"pecugg"	"600"	"1366"	"chrome"	"108.0.0"	"FALSE"	"Windows 10"	"60.83"	"129"	n/a	n/a	n/a	n/a	n/a	n/a	n/a	n/a	n/a	n/a	n/a	"NULL"	"FALSE"	"list()"	"list()"	"list()"	n/a	n/a	n/a	n/a	n/a	n/a	n/a	n/a	n/a	n/a	n/a
n/a	"html-button-response"	"4"	"58424"	"0.0-4.0-0.0"	"pecugg"	"600"	"1366"	"chrome"	"108.0.0"	"FALSE"	"Windows 10"	"60.83"	"129"	n/a	n/a	n/a	n/a	n/a	n/a	"illusion_instructions"	n/a	n/a	n/a	"48746"	"0"	n/a	"NULL"	"NULL"	"NULL"	"<p><b>Illusion Game</b></p><p>In this game of speed and reflex, you will need to make <b>visual judgments</b> (for instance, which circle is the biggest, or which line is the longest), as fast and as correctly as possible, while <b>resisting different visual illusions</b>.</p><p>We are going to start with some examples of all the illusions you will encounter in the game.</p>"	n/a	n/a	n/a	n/a	n/a	n/a	n/a	n/a	n/a	n/a
"TRUE"	"preload"	"5"	"58447"	"0.0-4.0-1.0-0.0"	"pecugg"	"600"	"1366"	"chrome"	"108.0.0"	"FALSE"	"Windows 10"	"60.83"	"129"	n/a	n/a	n/a	n/a	n/a	n/a	n/a	n/a	n/a	n/a	n/a	"NULL"	"FALSE"	"list()"	"list()"	"list()"	n/a	n/a	n/a	n/a	n/a	n/a	n/a	n/a	n/a	n/a	n/a
n/a	"html-keyboard-response"	"6"	"94153"	"0.0-4.0-1.0-1.0"	"pecugg"	"600"	"1366"	"chrome"	"108.0.0"	"FALSE"	"Windows 10"	"60.83"	"129"	n/a	n/a	n/a	n/a	n/a	n/a	n/a	n/a	n/a	n/a	"35704"	"enter"	n/a	"NULL"	"NULL"	"NULL"	"<p><b>Practice</b></p><p>In this part, two red circles will appear side by side on the screen.</p><p>Your task is to select which <b>red circle is bigger</b> in size as fast as you can, without making errors.</p><p>Don't get distracted by the surrounding black circles around the red circles!</p><p>Press <b>the LEFT or the RIGHT arrow</b> to indicate which is the bigger <b>red circle.</b></p><div style='float: center'><img src='materials/instructions/Ebbinghaus_Demo.png' height='300'></img><p><img src='utils/answer/answer_leftright_keyboard.PNG' height='150'></img></p><p class='small'>In this example, the correct answer is the <b>LEFT arrow</b>.</p></div><p>Are you ready? <b>Press ENTER to start</b></p>"	n/a	n/a	n/a	n/a	n/a	n/a	n/a	n/a	n/a	n/a
n/a	"html-keyboard-response"	"7"	"95705"	"0.0-4.0-1.0-2.0-0.0"	"pecugg"	"600"	"1366"	"chrome"	"108.0.0"	"FALSE"	"Windows 10"	"60.83"	"129"	n/a	n/a	n/a	n/a	n/a	n/a	"fixation"	n/a	n/a	n/a	n/a	"NULL"	n/a	"NULL"	"NULL"	"NULL"	"<p style=\"color: black; font-size: 80px; padding-left: 25%; padding-right: 24%; padding-top: 12%; padding-bottom: 17%\">+</p>"	"1023"	n/a	n/a	n/a	n/a	n/a	n/a	n/a	n/a	n/a
n/a	"image-keyboard-response"	"8"	"97088"	"0.0-4.0-1.0-2.0-1.0"	"pecugg"	"600"	"1366"	"chrome"	"108.0.0"	"FALSE"	"Windows 10"	"60.83"	"129"	n/a	n/a	n/a	n/a	n/a	n/a	"Trial"	n/a	n/a	n/a	"1372"	"arrowright"	n/a	"NULL"	"NULL"	"NULL"	"stimuli/Ebbinghaus_-100000_-1.4000.png"	n/a	"Ebbinghaus"	"arrowright"	"1552"	"TRUE"	"Ebbinghaus"	"-10000000000"	"-1.400000000"	"1"	"1"
n/a	"html-keyboard-response"	"9"	"98582"	"0.0-4.0-1.0-2.0-0.1"	"pecugg"	"600"	"1366"	"chrome"	"108.0.0"	"FALSE"	"Windows 10"	"60.83"	"129"	n/a	n/a	n/a	n/a	n/a	n/a	"fixation"	n/a	n/a	n/a	n/a	"NULL"	n/a	"NULL"	"NULL"	"NULL"	"<p style=\"color: black; font-size: 80px; padding-left: 30%; padding-right: 39%; padding-top: 16%; padding-bottom: 24%\">+</p>"	"1480"	n/a	n/a	n/a	n/a	n/a	n/a	n/a	n/a	n/a
n/a	"image-keyboard-response"	"10"	"99324"	"0.0-4.0-1.0-2.0-1.1"	"pecugg"	"600"	"1366"	"chrome"	"108.0.0"	"FALSE"	"Windows 10"	"60.83"	"129"	n/a	n/a	n/a	n/a	n/a	n/a	"Trial"	n/a	n/a	n/a	"741"	"arrowleft"	n/a	"NULL"	"NULL"	"NULL"	"stimuli/Ebbinghaus_-100000_1.40000.png"	n/a	"Ebbinghaus"	"arrowleft"	"1494"	"TRUE"	"Ebbinghaus"	"-10000000000"	"1.4000000000"	"1"	"2"
n/a	"html-keyboard-response"	"11"	"100628"	"0.0-4.0-1.0-2.0-0.2"	"pecugg"	"600"	"1366"	"chrome"	"108.0.0"	"FALSE"	"Windows 10"	"60.83"	"129"	n/a	n/a	n/a	n/a	n/a	n/a	"fixation"	n/a	n/a	n/a	n/a	"NULL"	n/a	"NULL"	"NULL"	"NULL"	"<p style=\"color: black; font-size: 80px; padding-left: 30%; padding-right: 5%; padding-top: 2%; padding-bottom: 6%\">+</p>"	"1295"	n/a	n/a	n/a	n/a	n/a	n/a	n/a	n/a	n/a
n/a	"image-keyboard-response"	"12"	"101637"	"0.0-4.0-1.0-2.0-1.2"	"pecugg"	"600"	"1366"	"chrome"	"108.0.0"	"FALSE"	"Windows 10"	"60.83"	"129"	n/a	n/a	n/a	n/a	n/a	n/a	"Trial"	n/a	n/a	n/a	"1009"	"arrowright"	n/a	"NULL"	"NULL"	"NULL"	"stimuli/Ebbinghaus_1000000_-1.4000.png"	n/a	"Ebbinghaus"	"arrowright"	"1304"	"TRUE"	"Ebbinghaus"	"100000000000"	"-1.400000000"	"1"	"3"
n/a	"html-keyboard-response"	"13"	"102970"	"0.0-4.0-1.0-2.0-0.3"	"pecugg"	"600"	"1366"	"chrome"	"108.0.0"	"FALSE"	"Windows 10"	"60.83"	"129"	n/a	n/a	n/a	n/a	n/a	n/a	"fixation"	n/a	n/a	n/a	n/a	"NULL"	n/a	"NULL"	"NULL"	"NULL"	"<p style=\"color: black; font-size: 80px; padding-left: 31%; padding-right: 18%; padding-top: 44%; padding-bottom: 18%\">+</p>"	"1314"	n/a	n/a	n/a	n/a	n/a	n/a	n/a	n/a	n/a
n/a	"image-keyboard-response"	"14"	"103720"	"0.0-4.0-1.0-2.0-1.3"	"pecugg"	"600"	"1366"	"chrome"	"108.0.0"	"FALSE"	"Windows 10"	"60.83"	"129"	n/a	n/a	n/a	n/a	n/a	n/a	"Trial"	n/a	n/a	n/a	"749"	"arrowright"	n/a	"NULL"	"NULL"	"NULL"	"stimuli/Ebbinghaus_0000000_-1.4000.png"	n/a	"Ebbinghaus"	"arrowright"	"1333"	"TRUE"	"Ebbinghaus"	"000000000000"	"-1.400000000"	"1"	"4"
n/a	"html-keyboard-response"	"15"	"104799"	"0.0-4.0-1.0-2.0-0.4"	"pecugg"	"600"	"1366"	"chrome"	"108.0.0"	"FALSE"	"Windows 10"	"60.83"	"129"	n/a	n/a	n/a	n/a	n/a	n/a	"fixation"	n/a	n/a	n/a	n/a	"NULL"	n/a	"NULL"	"NULL"	"NULL"	"<p style=\"color: black; font-size: 80px; padding-left: 5%; padding-right: 47%; padding-top: 6%; padding-bottom: 48%\">+</p>"	"1071"	n/a	n/a	n/a	n/a	n/a	n/a	n/a	n/a	n/a
n/a	"image-keyboard-response"	"16"	"105524"	"0.0-4.0-1.0-2.0-1.4"	"pecugg"	"600"	"1366"	"chrome"	"108.0.0"	"FALSE"	"Windows 10"	"60.83"	"129"	n/a	n/a	n/a	n/a	n/a	n/a	"Trial"	n/a	n/a	n/a	"723"	"arrowleft"	n/a	"NULL"	"NULL"	"NULL"	"stimuli/Ebbinghaus_1000000_1.40000.png"	n/a	"Ebbinghaus"	"arrowleft"	"1079"	"TRUE"	"Ebbinghaus"	"100000000000"	"1.4000000000"	"1"	"5"
n/a	"html-keyboard-response"	"17"	"106669"	"0.0-4.0-1.0-2.0-0.5"	"pecugg"	"600"	"1366"	"chrome"	"108.0.0"	"FALSE"	"Windows 10"	"60.83"	"129"	n/a	n/a	n/a	n/a	n/a	n/a	"fixation"	n/a	n/a	n/a	n/a	"NULL"	n/a	"NULL"	"NULL"	"NULL"	"<p style=\"color: black; font-size: 80px; padding-left: 1%; padding-right: 7%; padding-top: 43%; padding-bottom: 28%\">+</p>"	"1128"	n/a	n/a	n/a	n/a	n/a	n/a	n/a	n/a	n/a
n/a	"image-keyboard-response"	"18"	"107293"	"0.0-4.0-1.0-2.0-1.5"	"pecugg"	"600"	"1366"	"chrome"	"108.0.0"	"FALSE"	"Windows 10"	"60.83"	"129"	n/a	n/a	n/a	n/a	n/a	n/a	"Trial"	n/a	n/a	n/a	"623"	"arrowleft"	n/a	"NULL"	"NULL"	"NULL"	"stimuli/Ebbinghaus_0000000_1.40000.png"	n/a	"Ebbinghaus"	"arrowleft"	"1145"	"TRUE"	"Ebbinghaus"	"000000000000"	"1.4000000000"	"1"	"6"
n/a	"html-button-response"	"19"	"113441"	"0.0-4.0-1.0-3.0"	"pecugg"	"600"	"1366"	"chrome"	"108.0.0"	"FALSE"	"Windows 10"	"60.83"	"129"	n/a	n/a	n/a	n/a	n/a	n/a	"practice_block_results"	n/a	n/a	n/a	"6146"	"0"	n/a	"NULL"	"NULL"	"NULL"	"<p style='color:rgb(76,175,80);'> Correct Responses: <b>100.00%</b></p><hr><p style='color:rgb(233,30,99);'> Average Response Time: <b>869.50</b> ms.</p>"	n/a	n/a	n/a	n/a	n/a	n/a	n/a	n/a	n/a	n/a
"TRUE"	"preload"	"20"	"113964"	"0.0-4.0-2.0-0.0"	"pecugg"	"600"	"1366"	"chrome"	"108.0.0"	"FALSE"	"Windows 10"	"60.83"	"129"	n/a	n/a	n/a	n/a	n/a	n/a	n/a	n/a	n/a	n/a	n/a	"NULL"	"FALSE"	"list()"	"list()"	"list()"	n/a	n/a	n/a	n/a	n/a	n/a	n/a	n/a	n/a	n/a	n/a
n/a	"html-keyboard-response"	"21"	"133177"	"0.0-4.0-2.0-1.0"	"pecugg"	"600"	"1366"	"chrome"	"108.0.0"	"FALSE"	"Windows 10"	"60.83"	"129"	n/a	n/a	n/a	n/a	n/a	n/a	n/a	n/a	n/a	n/a	"19212"	"enter"	n/a	"NULL"	"NULL"	"NULL"	"<p><b>Practice</b></p><p>In this part, two horizontal red lines will appear one above the other.</p><p>Your task is to select which <b>line is longer</b> in length as fast as you can, without making errors.</p><p>Don't get distracted by the surrounding black arrows at the end of the red lines!</p><p>Press <b>the UP or the DOWN arrow</b> to indicate where is the longer <b>red line.</b></p><div style='float: center'><img src='materials/instructions/MullerLyer_Demo.png' height='300'></img><p><img src='utils/answer/answer_updown_keyboard.PNG' height='150'></img></p><p class='small'>In this example, the correct answer is the <b>UP arrow</b>.</p></div><p>Are you ready? <b>Press ENTER to start</b></p>"	n/a	n/a	n/a	n/a	n/a	n/a	n/a	n/a	n/a	n/a
n/a	"html-keyboard-response"	"22"	"134760"	"0.0-4.0-2.0-2.0-0.0"	"pecugg"	"600"	"1366"	"chrome"	"108.0.0"	"FALSE"	"Windows 10"	"60.83"	"129"	n/a	n/a	n/a	n/a	n/a	n/a	"fixation"	n/a	n/a	n/a	n/a	"NULL"	n/a	"NULL"	"NULL"	"NULL"	"<p style=\"color: black; font-size: 80px; padding-left: 4%; padding-right: 25%; padding-top: 25%; padding-bottom: 33%\">+</p>"	"1045"	n/a	n/a	n/a	n/a	n/a	n/a	n/a	n/a	n/a
n/a	"image-keyboard-response"	"23"	"135341"	"0.0-4.0-2.0-2.0-1.0"	"pecugg"	"600"	"1366"	"chrome"	"108.0.0"	"FALSE"	"Windows 10"	"60.83"	"129"	n/a	n/a	n/a	n/a	n/a	n/a	"Trial"	n/a	n/a	n/a	"581"	"arrowup"	n/a	"NULL"	"NULL"	"NULL"	"stimuli/MullerLyer_0000000_0.70000.png"	n/a	"MullerLyer"	"arrowup"	"1583"	"TRUE"	"MullerLyer"	"000000000000"	"0.7000000000"	"1"	"7"
n/a	"html-keyboard-response"	"24"	"136547"	"0.0-4.0-2.0-2.0-0.1"	"pecugg"	"600"	"1366"	"chrome"	"108.0.0"	"FALSE"	"Windows 10"	"60.83"	"129"	n/a	n/a	n/a	n/a	n/a	n/a	"fixation"	n/a	n/a	n/a	n/a	"NULL"	n/a	"NULL"	"NULL"	"NULL"	"<p style=\"color: black; font-size: 80px; padding-left: 36%; padding-right: 13%; padding-top: 29%; padding-bottom: 43%\">+</p>"	"1183"	n/a	n/a	n/a	n/a	n/a	n/a	n/a	n/a	n/a
n/a	"image-keyboard-response"	"25"	"137019"	"0.0-4.0-2.0-2.0-1.1"	"pecugg"	"600"	"1366"	"chrome"	"108.0.0"	"FALSE"	"Windows 10"	"60.83"	"129"	n/a	n/a	n/a	n/a	n/a	n/a	"Trial"	n/a	n/a	n/a	"470"	"arrowdown"	n/a	"NULL"	"NULL"	"NULL"	"stimuli/MullerLyer_0000000_-0.7000.png"	n/a	"MullerLyer"	"arrowdown"	"1206"	"TRUE"	"MullerLyer"	"000000000000"	"-0.700000000"	"1"	"8"
n/a	"html-keyboard-response"	"26"	"138488"	"0.0-4.0-2.0-2.0-0.2"	"pecugg"	"600"	"1366"	"chrome"	"108.0.0"	"FALSE"	"Windows 10"	"60.83"	"129"	n/a	n/a	n/a	n/a	n/a	n/a	"fixation"	n/a	n/a	n/a	n/a	"NULL"	n/a	"NULL"	"NULL"	"NULL"	"<p style=\"color: black; font-size: 80px; padding-left: 26%; padding-right: 18%; padding-top: 42%; padding-bottom: 10%\">+</p>"	"1456"	n/a	n/a	n/a	n/a	n/a	n/a	n/a	n/a	n/a
n/a	"image-keyboard-response"	"27"	"138957"	"0.0-4.0-2.0-2.0-1.2"	"pecugg"	"600"	"1366"	"chrome"	"108.0.0"	"FALSE"	"Windows 10"	"60.83"	"129"	n/a	n/a	n/a	n/a	n/a	n/a	"Trial"	n/a	n/a	n/a	"468"	"arrowdown"	n/a	"NULL"	"NULL"	"NULL"	"stimuli/MullerLyer_-230000_-0.7000.png"	n/a	"MullerLyer"	"arrowdown"	"1469"	"TRUE"	"MullerLyer"	"-23000000000"	"-0.700000000"	"1"	"9"
n/a	"html-keyboard-response"	"28"	"140313"	"0.0-4.0-2.0-2.0-0.3"	"pecugg"	"600"	"1366"	"chrome"	"108.0.0"	"FALSE"	"Windows 10"	"60.83"	"129"	n/a	n/a	n/a	n/a	n/a	n/a	"fixation"	n/a	n/a	n/a	n/a	"NULL"	n/a	"NULL"	"NULL"	"NULL"	"<p style=\"color: black; font-size: 80px; padding-left: 31%; padding-right: 48%; padding-top: 32%; padding-bottom: 12%\">+</p>"	"1340"	n/a	n/a	n/a	n/a	n/a	n/a	n/a	n/a	n/a
n/a	"image-keyboard-response"	"29"	"140771"	"0.0-4.0-2.0-2.0-1.3"	"pecugg"	"600"	"1366"	"chrome"	"108.0.0"	"FALSE"	"Windows 10"	"60.83"	"129"	n/a	n/a	n/a	n/a	n/a	n/a	"Trial"	n/a	n/a	n/a	"457"	"arrowup"	n/a	"NULL"	"NULL"	"NULL"	"stimuli/MullerLyer_2300000_0.70000.png"	n/a	"MullerLyer"	"arrowup"	"1356"	"TRUE"	"MullerLyer"	"230000000000"	"0.7000000000"	"1"	"10"
n/a	"html-keyboard-response"	"30"	"142081"	"0.0-4.0-2.0-2.0-0.4"	"pecugg"	"600"	"1366"	"chrome"	"108.0.0"	"FALSE"	"Windows 10"	"60.83"	"129"	n/a	n/a	n/a	n/a	n/a	n/a	"fixation"	n/a	n/a	n/a	n/a	"NULL"	n/a	"NULL"	"NULL"	"NULL"	"<p style=\"color: black; font-size: 80px; padding-left: 33%; padding-right: 9%; padding-top: 27%; padding-bottom: 1%\">+</p>"	"1298"	n/a	n/a	n/a	n/a	n/a	n/a	n/a	n/a	n/a
n/a	"image-keyboard-response"	"31"	"142521"	"0.0-4.0-2.0-2.0-1.4"	"pecugg"	"600"	"1366"	"chrome"	"108.0.0"	"FALSE"	"Windows 10"	"60.83"	"129"	n/a	n/a	n/a	n/a	n/a	n/a	"Trial"	n/a	n/a	n/a	"440"	"arrowup"	n/a	"NULL"	"NULL"	"NULL"	"stimuli/MullerLyer_-230000_0.70000.png"	n/a	"MullerLyer"	"arrowup"	"1310"	"TRUE"	"MullerLyer"	"-23000000000"	"0.7000000000"	"1"	"11"
n/a	"html-keyboard-response"	"32"	"143868"	"0.0-4.0-2.0-2.0-0.5"	"pecugg"	"600"	"1366"	"chrome"	"108.0.0"	"FALSE"	"Windows 10"	"60.83"	"129"	n/a	n/a	n/a	n/a	n/a	n/a	"fixation"	n/a	n/a	n/a	n/a	"NULL"	n/a	"NULL"	"NULL"	"NULL"	"<p style=\"color: black; font-size: 80px; padding-left: 7%; padding-right: 20%; padding-top: 18%; padding-bottom: 22%\">+</p>"	"1333"	n/a	n/a	n/a	n/a	n/a	n/a	n/a	n/a	n/a
n/a	"image-keyboard-response"	"33"	"144347"	"0.0-4.0-2.0-2.0-1.5"	"pecugg"	"600"	"1366"	"chrome"	"108.0.0"	"FALSE"	"Windows 10"	"60.83"	"129"	n/a	n/a	n/a	n/a	n/a	n/a	"Trial"	n/a	n/a	n/a	"479"	"arrowdown"	n/a	"NULL"	"NULL"	"NULL"	"stimuli/MullerLyer_2300000_-0.7000.png"	n/a	"MullerLyer"	"arrowdown"	"1347"	"TRUE"	"MullerLyer"	"230000000000"	"-0.700000000"	"1"	"12"
n/a	"html-button-response"	"34"	"148104"	"0.0-4.0-2.0-3.0"	"pecugg"	"600"	"1366"	"chrome"	"108.0.0"	"FALSE"	"Windows 10"	"60.83"	"129"	n/a	n/a	n/a	n/a	n/a	n/a	"practice_block_results"	n/a	n/a	n/a	"3755"	"0"	n/a	"NULL"	"NULL"	"NULL"	"<p style='color:rgb(76,175,80);'> Correct Responses: <b>100.00%</b></p><hr><p style='color:rgb(233,30,99);'> Average Response Time: <b>482.50</b> ms.</p>"	n/a	n/a	n/a	n/a	n/a	n/a	n/a	n/a	n/a	n/a
"TRUE"	"preload"	"35"	"148632"	"0.0-4.0-3.0-0.0"	"pecugg"	"600"	"1366"	"chrome"	"108.0.0"	"FALSE"	"Windows 10"	"60.83"	"129"	n/a	n/a	n/a	n/a	n/a	n/a	n/a	n/a	n/a	n/a	n/a	"NULL"	"FALSE"	"list()"	"list()"	"list()"	n/a	n/a	n/a	n/a	n/a	n/a	n/a	n/a	n/a	n/a	n/a
n/a	"html-keyboard-response"	"36"	"161681"	"0.0-4.0-3.0-1.0"	"pecugg"	"600"	"1366"	"chrome"	"108.0.0"	"FALSE"	"Windows 10"	"60.83"	"129"	n/a	n/a	n/a	n/a	n/a	n/a	n/a	n/a	n/a	n/a	"13048"	"enter"	n/a	"NULL"	"NULL"	"NULL"	"<p><b>Practice</b></p><p>In this part, two red lines will appear side by side.</p><p>Your task is to tell <b>which line is longer</b> in length, regardless of their orientation, as fast as you can, and without making errors.</p><p>Don't get distracted by the orientation of the lines!</p><p>Press <b>the LEFT or the RIGHT arrow</b> to indicate which <b>line is the longer one.</b></p><div style='float: center'><img src='materials/instructions/VerticalHorizontal_Demo.png' height='300'></img><p><img src='utils/answer/answer_leftright_keyboard.PNG' height='150'></img></p><p class='small'>In this example, the correct answer is the <b>LEFT arrow</b>.</p></div><p>Are you ready? <b>Press ENTER to start</b></p>"	n/a	n/a	n/a	n/a	n/a	n/a	n/a	n/a	n/a	n/a
n/a	"html-keyboard-response"	"37"	"163488"	"0.0-4.0-3.0-2.0-0.0"	"pecugg"	"600"	"1366"	"chrome"	"108.0.0"	"FALSE"	"Windows 10"	"60.83"	"129"	n/a	n/a	n/a	n/a	n/a	n/a	"fixation"	n/a	n/a	n/a	n/a	"NULL"	n/a	"NULL"	"NULL"	"NULL"	"<p style=\"color: black; font-size: 80px; padding-left: 33%; padding-right: 7%; padding-top: 25%; padding-bottom: 43%\">+</p>"	"1280"	n/a	n/a	n/a	n/a	n/a	n/a	n/a	n/a	n/a
n/a	"image-keyboard-response"	"38"	"164281"	"0.0-4.0-3.0-2.0-1.0"	"pecugg"	"600"	"1366"	"chrome"	"108.0.0"	"FALSE"	"Windows 10"	"60.83"	"129"	n/a	n/a	n/a	n/a	n/a	n/a	"Trial"	n/a	n/a	n/a	"791"	"arrowleft"	n/a	"NULL"	"NULL"	"NULL"	"stimuli/VerticalHorizontal_3300000_0.90000.png"	n/a	"VerticalHorizontal"	"arrowleft"	"1807"	"TRUE"	"VerticalHorizontal"	"330000000000"	"0.9000000000"	"1"	"13"
n/a	"html-keyboard-response"	"39"	"165448"	"0.0-4.0-3.0-2.0-0.1"	"pecugg"	"600"	"1366"	"chrome"	"108.0.0"	"FALSE"	"Windows 10"	"60.83"	"129"	n/a	n/a	n/a	n/a	n/a	n/a	"fixation"	n/a	n/a	n/a	n/a	"NULL"	n/a	"NULL"	"NULL"	"NULL"	"<p style=\"color: black; font-size: 80px; padding-left: 3%; padding-right: 15%; padding-top: 15%; padding-bottom: 9%\">+</p>"	"1147"	n/a	n/a	n/a	n/a	n/a	n/a	n/a	n/a	n/a
n/a	"image-keyboard-response"	"40"	"165841"	"0.0-4.0-3.0-2.0-1.1"	"pecugg"	"600"	"1366"	"chrome"	"108.0.0"	"FALSE"	"Windows 10"	"60.83"	"129"	n/a	n/a	n/a	n/a	n/a	n/a	"Trial"	n/a	n/a	n/a	"392"	"arrowleft"	n/a	"NULL"	"NULL"	"NULL"	"stimuli/VerticalHorizontal_0000000_0.90000.png"	n/a	"VerticalHorizontal"	"arrowleft"	"1167"	"TRUE"	"VerticalHorizontal"	"000000000000"	"0.9000000000"	"1"	"14"
n/a	"html-keyboard-response"	"41"	"167032"	"0.0-4.0-3.0-2.0-0.2"	"pecugg"	"600"	"1366"	"chrome"	"108.0.0"	"FALSE"	"Windows 10"	"60.83"	"129"	n/a	n/a	n/a	n/a	n/a	n/a	"fixation"	n/a	n/a	n/a	n/a	"NULL"	n/a	"NULL"	"NULL"	"NULL"	"<p style=\"color: black; font-size: 80px; padding-left: 38%; padding-right: 41%; padding-top: 41%; padding-bottom: 41%\">+</p>"	"1179"	n/a	n/a	n/a	n/a	n/a	n/a	n/a	n/a	n/a
n/a	"image-keyboard-response"	"42"	"167471"	"0.0-4.0-3.0-2.0-1.2"	"pecugg"	"600"	"1366"	"chrome"	"108.0.0"	"FALSE"	"Windows 10"	"60.83"	"129"	n/a	n/a	n/a	n/a	n/a	n/a	"Trial"	n/a	n/a	n/a	"438"	"arrowright"	n/a	"NULL"	"NULL"	"NULL"	"stimuli/VerticalHorizontal_0000000_-0.9000.png"	n/a	"VerticalHorizontal"	"arrowright"	"1191"	"TRUE"	"VerticalHorizontal"	"000000000000"	"-0.900000000"	"1"	"15"
n/a	"html-keyboard-response"	"43"	"168784"	"0.0-4.0-3.0-2.0-0.3"	"pecugg"	"600"	"1366"	"chrome"	"108.0.0"	"FALSE"	"Windows 10"	"60.83"	"129"	n/a	n/a	n/a	n/a	n/a	n/a	"fixation"	n/a	n/a	n/a	n/a	"NULL"	n/a	"NULL"	"NULL"	"NULL"	"<p style=\"color: black; font-size: 80px; padding-left: 7%; padding-right: 8%; padding-top: 49%; padding-bottom: 34%\">+</p>"	"1301"	n/a	n/a	n/a	n/a	n/a	n/a	n/a	n/a	n/a
n/a	"image-keyboard-response"	"44"	"169142"	"0.0-4.0-3.0-2.0-1.3"	"pecugg"	"600"	"1366"	"chrome"	"108.0.0"	"FALSE"	"Windows 10"	"60.83"	"129"	n/a	n/a	n/a	n/a	n/a	n/a	"Trial"	n/a	n/a	n/a	"357"	"arrowright"	n/a	"NULL"	"NULL"	"NULL"	"stimuli/VerticalHorizontal_3300000_-0.9000.png"	n/a	"VerticalHorizontal"	"arrowright"	"1313"	"TRUE"	"VerticalHorizontal"	"330000000000"	"-0.900000000"	"1"	"16"
n/a	"html-keyboard-response"	"45"	"170594"	"0.0-4.0-3.0-2.0-0.4"	"pecugg"	"600"	"1366"	"chrome"	"108.0.0"	"FALSE"	"Windows 10"	"60.83"	"129"	n/a	n/a	n/a	n/a	n/a	n/a	"fixation"	n/a	n/a	n/a	n/a	"NULL"	n/a	"NULL"	"NULL"	"NULL"	"<p style=\"color: black; font-size: 80px; padding-left: 41%; padding-right: 22%; padding-top: 22%; padding-bottom: 37%\">+</p>"	"1437"	n/a	n/a	n/a	n/a	n/a	n/a	n/a	n/a	n/a
n/a	"image-keyboard-response"	"46"	"170995"	"0.0-4.0-3.0-2.0-1.4"	"pecugg"	"600"	"1366"	"chrome"	"108.0.0"	"FALSE"	"Windows 10"	"60.83"	"129"	n/a	n/a	n/a	n/a	n/a	n/a	"Trial"	n/a	n/a	n/a	"400"	"arrowleft"	n/a	"NULL"	"NULL"	"NULL"	"stimuli/VerticalHorizontal_-330000_0.90000.png"	n/a	"VerticalHorizontal"	"arrowleft"	"1452"	"TRUE"	"VerticalHorizontal"	"-33000000000"	"0.9000000000"	"1"	"17"
n/a	"html-keyboard-response"	"47"	"172440"	"0.0-4.0-3.0-2.0-0.5"	"pecugg"	"600"	"1366"	"chrome"	"108.0.0"	"FALSE"	"Windows 10"	"60.83"	"129"	n/a	n/a	n/a	n/a	n/a	n/a	"fixation"	n/a	n/a	n/a	n/a	"NULL"	n/a	"NULL"	"NULL"	"NULL"	"<p style=\"color: black; font-size: 80px; padding-left: 30%; padding-right: 22%; padding-top: 25%; padding-bottom: 3%\">+</p>"	"1435"	n/a	n/a	n/a	n/a	n/a	n/a	n/a	n/a	n/a
n/a	"image-keyboard-response"	"48"	"172816"	"0.0-4.0-3.0-2.0-1.5"	"pecugg"	"600"	"1366"	"chrome"	"108.0.0"	"FALSE"	"Windows 10"	"60.83"	"129"	n/a	n/a	n/a	n/a	n/a	n/a	"Trial"	n/a	n/a	n/a	"374"	"arrowright"	n/a	"NULL"	"NULL"	"NULL"	"stimuli/VerticalHorizontal_-330000_-0.9000.png"	n/a	"VerticalHorizontal"	"arrowright"	"1445"	"TRUE"	"VerticalHorizontal"	"-33000000000"	"-0.900000000"	"1"	"18"
n/a	"html-button-response"	"49"	"177384"	"0.0-4.0-3.0-3.0"	"pecugg"	"600"	"1366"	"chrome"	"108.0.0"	"FALSE"	"Windows 10"	"60.83"	"129"	n/a	n/a	n/a	n/a	n/a	n/a	"practice_block_results"	n/a	n/a	n/a	"4566"	"0"	n/a	"NULL"	"NULL"	"NULL"	"<p style='color:rgb(76,175,80);'> Correct Responses: <b>100.00%</b></p><hr><p style='color:rgb(233,30,99);'> Average Response Time: <b>458.67</b> ms.</p>"	n/a	n/a	n/a	n/a	n/a	n/a	n/a	n/a	n/a	n/a
n/a	"html-button-response"	"50"	"258593"	"0.0-4.0-4.0"	"pecugg"	"600"	"1366"	"chrome"	"108.0.0"	"FALSE"	"Windows 10"	"60.83"	"129"	n/a	n/a	n/a	n/a	n/a	n/a	"practice_debrief"	n/a	n/a	n/a	"80698"	"0"	n/a	"NULL"	"NULL"	"NULL"	"<p><b>TRAINING COMPLETED</b></p><p>In the next phase, there will be more trials, and some might be harder too.<br> Moreover, after each illusion block, a <b>score</b> will be calculated based on speed (time you took to answer) and accuracy (number of errors).</p><p>Try to keep up a high score!</p><br><p>Note that it can be <i>really</i> challenging at times, so you will need to rely on your <b>intuition</b> and gut feeling to answer as fast as you can without making errors.</p><p>Each illusion block will be repeated two times (so that you have the opportunity to improve your score), but the order of the blocks is random.</p><p>Remember, your goal is to be as <b>fast</b> and <b>accurate</b> as possible. Good luck!</p><br>"	n/a	n/a	n/a	n/a	n/a	n/a	n/a	n/a	n/a	n/a
"TRUE"	"preload"	"51"	"258805"	"0.0-5.0-0.0"	"pecugg"	"600"	"1366"	"chrome"	"108.0.0"	"FALSE"	"Windows 10"	"60.83"	"129"	n/a	n/a	n/a	n/a	n/a	n/a	n/a	n/a	n/a	n/a	n/a	"NULL"	"FALSE"	"list()"	"list()"	"list()"	n/a	n/a	n/a	n/a	n/a	n/a	n/a	n/a	n/a	n/a	n/a
n/a	"html-keyboard-response"	"52"	"264185"	"0.0-5.0-1.0"	"pecugg"	"600"	"1366"	"chrome"	"108.0.0"	"FALSE"	"Windows 10"	"60.83"	"129"	n/a	n/a	n/a	n/a	n/a	n/a	n/a	n/a	n/a	n/a	"5379"	"enter"	n/a	"NULL"	"NULL"	"NULL"	"<p><b>Part 1/6</b></p><p>In this part, two red circles will appear side by side on the screen.</p><p>Your task is to select which <b>red circle is bigger</b> in size as fast as you can, without making errors.</p><p>Don't get distracted by the surrounding black circles around the red circles!</p><p>Press <b>the LEFT or the RIGHT arrow</b> to indicate which is the bigger <b>red circle.</b></p><div style='float: center'><img src='materials/instructions/Ebbinghaus_Demo.png' height='300'></img><p><img src='utils/answer/answer_leftright_keyboard.PNG' height='150'></img></p><p class='small'>In this example, the correct answer is the <b>LEFT arrow</b>.</p></div><p>Are you ready? <b>Press ENTER to start</b></p>"	n/a	n/a	n/a	n/a	n/a	n/a	n/a	n/a	n/a	n/a
n/a	"html-keyboard-response"	"53"	"265896"	"0.0-5.0-2.0-0.0"	"pecugg"	"600"	"1366"	"chrome"	"108.0.0"	"FALSE"	"Windows 10"	"60.83"	"129"	n/a	n/a	n/a	n/a	n/a	n/a	"fixation"	n/a	n/a	n/a	n/a	"NULL"	n/a	"NULL"	"NULL"	"NULL"	"<p style=\"color: black; font-size: 80px; padding-left: 20%; padding-right: 1%; padding-top: 34%; padding-bottom: 3%\">+</p>"	"1178"	n/a	n/a	n/a	n/a	n/a	n/a	n/a	n/a	n/a
n/a	"image-keyboard-response"	"54"	"266780"	"0.0-5.0-2.0-1.0"	"pecugg"	"600"	"1366"	"chrome"	"108.0.0"	"FALSE"	"Windows 10"	"60.83"	"129"	n/a	n/a	n/a	n/a	n/a	n/a	"Trial"	n/a	n/a	n/a	"882"	"arrowleft"	n/a	"NULL"	"NULL"	"NULL"	"stimuli/Ebbinghaus_0.61429_0.28000.png"	n/a	"Ebbinghaus"	"arrowleft"	"1711"	"TRUE"	"Ebbinghaus"	"0.6142900000"	"0.2800000000"	"1"	"19"
n/a	"html-keyboard-response"	"55"	"267956"	"0.0-5.0-2.0-0.1"	"pecugg"	"600"	"1366"	"chrome"	"108.0.0"	"FALSE"	"Windows 10"	"60.83"	"129"	n/a	n/a	n/a	n/a	n/a	n/a	"fixation"	n/a	n/a	n/a	n/a	"NULL"	n/a	"NULL"	"NULL"	"NULL"	"<p style=\"color: black; font-size: 80px; padding-left: 19%; padding-right: 7%; padding-top: 44%; padding-bottom: 42%\">+</p>"	"1155"	n/a	n/a	n/a	n/a	n/a	n/a	n/a	n/a	n/a
n/a	"image-keyboard-response"	"56"	"268803"	"0.0-5.0-2.0-1.1"	"pecugg"	"600"	"1366"	"chrome"	"108.0.0"	"FALSE"	"Windows 10"	"60.83"	"129"	n/a	n/a	n/a	n/a	n/a	n/a	"Trial"	n/a	n/a	n/a	"845"	"arrowright"	n/a	"NULL"	"NULL"	"NULL"	"stimuli/Ebbinghaus_0.87143_-0.11071.png"	n/a	"Ebbinghaus"	"arrowright"	"1176"	"TRUE"	"Ebbinghaus"	"0.8714300000"	"-0.110710000"	"1"	"20"
n/a	"html-keyboard-response"	"57"	"270040"	"0.0-5.0-2.0-0.2"	"pecugg"	"600"	"1366"	"chrome"	"108.0.0"	"FALSE"	"Windows 10"	"60.83"	"129"	n/a	n/a	n/a	n/a	n/a	n/a	"fixation"	n/a	n/a	n/a	n/a	"NULL"	n/a	"NULL"	"NULL"	"NULL"	"<p style=\"color: black; font-size: 80px; padding-left: 44%; padding-right: 7%; padding-top: 11%; padding-bottom: 34%\">+</p>"	"1221"	n/a	n/a	n/a	n/a	n/a	n/a	n/a	n/a	n/a
n/a	"image-keyboard-response"	"58"	"271069"	"0.0-5.0-2.0-1.2"	"pecugg"	"600"	"1366"	"chrome"	"108.0.0"	"FALSE"	"Windows 10"	"60.83"	"129"	n/a	n/a	n/a	n/a	n/a	n/a	"Trial"	n/a	n/a	n/a	"1028"	"arrowleft"	n/a	"NULL"	"NULL"	"NULL"	"stimuli/Ebbinghaus_-0.1000_-0.11071.png"	n/a	"Ebbinghaus"	"arrowright"	"1237"	"FALSE"	"Ebbinghaus"	"-0.100000000"	"-0.110710000"	"1"	"21"
n/a	"html-keyboard-response"	"59"	"272284"	"0.0-5.0-2.0-0.3"	"pecugg"	"600"	"1366"	"chrome"	"108.0.0"	"FALSE"	"Windows 10"	"60.83"	"129"	n/a	n/a	n/a	n/a	n/a	n/a	"fixation"	n/a	n/a	n/a	n/a	"NULL"	n/a	"NULL"	"NULL"	"NULL"	"<p style=\"color: black; font-size: 80px; padding-left: 37%; padding-right: 6%; padding-top: 43%; padding-bottom: 48%\">+</p>"	"1193"	n/a	n/a	n/a	n/a	n/a	n/a	n/a	n/a	n/a
n/a	"image-keyboard-response"	"60"	"273120"	"0.0-5.0-2.0-1.3"	"pecugg"	"600"	"1366"	"chrome"	"108.0.0"	"FALSE"	"Windows 10"	"60.83"	"129"	n/a	n/a	n/a	n/a	n/a	n/a	"Trial"	n/a	n/a	n/a	"836"	"arrowright"	n/a	"NULL"	"NULL"	"NULL"	"stimuli/Ebbinghaus_0.61429_-0.2800.png"	n/a	"Ebbinghaus"	"arrowright"	"1215"	"TRUE"	"Ebbinghaus"	"0.6142900000"	"-0.280000000"	"1"	"22"
n/a	"html-keyboard-response"	"61"	"274330"	"0.0-5.0-2.0-0.4"	"pecugg"	"600"	"1366"	"chrome"	"108.0.0"	"FALSE"	"Windows 10"	"60.83"	"129"	n/a	n/a	n/a	n/a	n/a	n/a	"fixation"	n/a	n/a	n/a	n/a	"NULL"	n/a	"NULL"	"NULL"	"NULL"	"<p style=\"color: black; font-size: 80px; padding-left: 38%; padding-right: 38%; padding-top: 31%; padding-bottom: 21%\">+</p>"	"1201"	n/a	n/a	n/a	n/a	n/a	n/a	n/a	n/a	n/a
n/a	"image-keyboard-response"	"62"	"274987"	"0.0-5.0-2.0-1.4"	"pecugg"	"600"	"1366"	"chrome"	"108.0.0"	"FALSE"	"Windows 10"	"60.83"	"129"	n/a	n/a	n/a	n/a	n/a	n/a	"Trial"	n/a	n/a	n/a	"655"	"arrowleft"	n/a	"NULL"	"NULL"	"NULL"	"stimuli/Ebbinghaus_-0.87143_0.28000.png"	n/a	"Ebbinghaus"	"arrowleft"	"1210"	"TRUE"	"Ebbinghaus"	"-0.871430000"	"0.2800000000"	"1"	"23"
n/a	"html-keyboard-response"	"63"	"276023"	"0.0-5.0-2.0-0.5"	"pecugg"	"600"	"1366"	"chrome"	"108.0.0"	"FALSE"	"Windows 10"	"60.83"	"129"	n/a	n/a	n/a	n/a	n/a	n/a	"fixation"	n/a	n/a	n/a	n/a	"NULL"	n/a	"NULL"	"NULL"	"NULL"	"<p style=\"color: black; font-size: 80px; padding-left: 39%; padding-right: 33%; padding-top: 23%; padding-bottom: 14%\">+</p>"	"1018"	n/a	n/a	n/a	n/a	n/a	n/a	n/a	n/a	n/a
n/a	"image-keyboard-response"	"64"	"276904"	"0.0-5.0-2.0-1.5"	"pecugg"	"600"	"1366"	"chrome"	"108.0.0"	"FALSE"	"Windows 10"	"60.83"	"129"	n/a	n/a	n/a	n/a	n/a	n/a	"Trial"	n/a	n/a	n/a	"880"	"arrowright"	n/a	"NULL"	"NULL"	"NULL"	"stimuli/Ebbinghaus_-0.35714_-0.15857.png"	n/a	"Ebbinghaus"	"arrowright"	"1036"	"TRUE"	"Ebbinghaus"	"-0.357140000"	"-0.158570000"	"1"	"24"
n/a	"html-keyboard-response"	"65"	"278379"	"0.0-5.0-2.0-0.6"	"pecugg"	"600"	"1366"	"chrome"	"108.0.0"	"FALSE"	"Windows 10"	"60.83"	"129"	n/a	n/a	n/a	n/a	n/a	n/a	"fixation"	n/a	n/a	n/a	n/a	"NULL"	n/a	"NULL"	"NULL"	"NULL"	"<p style=\"color: black; font-size: 80px; padding-left: 48%; padding-right: 44%; padding-top: 9%; padding-bottom: 17%\">+</p>"	"1466"	n/a	n/a	n/a	n/a	n/a	n/a	n/a	n/a	n/a
n/a	"image-keyboard-response"	"66"	"279040"	"0.0-5.0-2.0-1.6"	"pecugg"	"600"	"1366"	"chrome"	"108.0.0"	"FALSE"	"Windows 10"	"60.83"	"129"	n/a	n/a	n/a	n/a	n/a	n/a	"Trial"	n/a	n/a	n/a	"660"	"arrowleft"	n/a	"NULL"	"NULL"	"NULL"	"stimuli/Ebbinghaus_0.10000_0.15857.png"	n/a	"Ebbinghaus"	"arrowleft"	"1475"	"TRUE"	"Ebbinghaus"	"0.1000000000"	"0.1585700000"	"1"	"25"
n/a	"html-keyboard-response"	"67"	"280392"	"0.0-5.0-2.0-0.7"	"pecugg"	"600"	"1366"	"chrome"	"108.0.0"	"FALSE"	"Windows 10"	"60.83"	"129"	n/a	n/a	n/a	n/a	n/a	n/a	"fixation"	n/a	n/a	n/a	n/a	"NULL"	n/a	"NULL"	"NULL"	"NULL"	"<p style=\"color: black; font-size: 80px; padding-left: 6%; padding-right: 24%; padding-top: 17%; padding-bottom: 8%\">+</p>"	"1338"	n/a	n/a	n/a	n/a	n/a	n/a	n/a	n/a	n/a
n/a	"image-keyboard-response"	"68"	"281001"	"0.0-5.0-2.0-1.7"	"pecugg"	"600"	"1366"	"chrome"	"108.0.0"	"FALSE"	"Windows 10"	"60.83"	"129"	n/a	n/a	n/a	n/a	n/a	n/a	"Trial"	n/a	n/a	n/a	"608"	"arrowright"	n/a	"NULL"	"NULL"	"NULL"	"stimuli/Ebbinghaus_0.10000_-0.2150.png"	n/a	"Ebbinghaus"	"arrowright"	"1352"	"TRUE"	"Ebbinghaus"	"0.1000000000"	"-0.215000000"	"1"	"26"
n/a	"html-keyboard-response"	"69"	"282433"	"0.0-5.0-2.0-0.8"	"pecugg"	"600"	"1366"	"chrome"	"108.0.0"	"FALSE"	"Windows 10"	"60.83"	"129"	n/a	n/a	n/a	n/a	n/a	n/a	"fixation"	n/a	n/a	n/a	n/a	"NULL"	n/a	"NULL"	"NULL"	"NULL"	"<p style=\"color: black; font-size: 80px; padding-left: 20%; padding-right: 14%; padding-top: 29%; padding-bottom: 13%\">+</p>"	"1421"	n/a	n/a	n/a	n/a	n/a	n/a	n/a	n/a	n/a
n/a	"image-keyboard-response"	"70"	"282908"	"0.0-5.0-2.0-1.8"	"pecugg"	"600"	"1366"	"chrome"	"108.0.0"	"FALSE"	"Windows 10"	"60.83"	"129"	n/a	n/a	n/a	n/a	n/a	n/a	"Trial"	n/a	n/a	n/a	"474"	"arrowleft"	n/a	"NULL"	"NULL"	"NULL"	"stimuli/Ebbinghaus_0.35714_0.15857.png"	n/a	"Ebbinghaus"	"arrowleft"	"1432"	"TRUE"	"Ebbinghaus"	"0.3571400000"	"0.1585700000"	"1"	"27"
n/a	"html-keyboard-response"	"71"	"284188"	"0.0-5.0-2.0-0.9"	"pecugg"	"600"	"1366"	"chrome"	"108.0.0"	"FALSE"	"Windows 10"	"60.83"	"129"	n/a	n/a	n/a	n/a	n/a	n/a	"fixation"	n/a	n/a	n/a	n/a	"NULL"	n/a	"NULL"	"NULL"	"NULL"	"<p style=\"color: black; font-size: 80px; padding-left: 33%; padding-right: 35%; padding-top: 20%; padding-bottom: 18%\">+</p>"	"1273"	n/a	n/a	n/a	n/a	n/a	n/a	n/a	n/a	n/a
n/a	"image-keyboard-response"	"72"	"284943"	"0.0-5.0-2.0-1.9"	"pecugg"	"600"	"1366"	"chrome"	"108.0.0"	"FALSE"	"Windows 10"	"60.83"	"129"	n/a	n/a	n/a	n/a	n/a	n/a	"Trial"	n/a	n/a	n/a	"754"	"arrowleft"	n/a	"NULL"	"NULL"	"NULL"	"stimuli/Ebbinghaus_0.10000_0.21500.png"	n/a	"Ebbinghaus"	"arrowleft"	"1280"	"TRUE"	"Ebbinghaus"	"0.1000000000"	"0.2150000000"	"1"	"28"
n/a	"html-keyboard-response"	"73"	"286302"	"0.0-5.0-2.0-0.10"	"pecugg"	"600"	"1366"	"chrome"	"108.0.0"	"FALSE"	"Windows 10"	"60.83"	"129"	n/a	n/a	n/a	n/a	n/a	n/a	"fixation"	n/a	n/a	n/a	n/a	"NULL"	n/a	"NULL"	"NULL"	"NULL"	"<p style=\"color: black; font-size: 80px; padding-left: 36%; padding-right: 38%; padding-top: 26%; padding-bottom: 43%\">+</p>"	"1345"	n/a	n/a	n/a	n/a	n/a	n/a	n/a	n/a	n/a
n/a	"image-keyboard-response"	"74"	"286861"	"0.0-5.0-2.0-1.10"	"pecugg"	"600"	"1366"	"chrome"	"108.0.0"	"FALSE"	"Windows 10"	"60.83"	"129"	n/a	n/a	n/a	n/a	n/a	n/a	"Trial"	n/a	n/a	n/a	"558"	"arrowright"	n/a	"NULL"	"NULL"	"NULL"	"stimuli/Ebbinghaus_0.61429_-0.2150.png"	n/a	"Ebbinghaus"	"arrowright"	"1359"	"TRUE"	"Ebbinghaus"	"0.6142900000"	"-0.215000000"	"1"	"29"
n/a	"html-keyboard-response"	"75"	"288245"	"0.0-5.0-2.0-0.11"	"pecugg"	"600"	"1366"	"chrome"	"108.0.0"	"FALSE"	"Windows 10"	"60.83"	"129"	n/a	n/a	n/a	n/a	n/a	n/a	"fixation"	n/a	n/a	n/a	n/a	"NULL"	n/a	"NULL"	"NULL"	"NULL"	"<p style=\"color: black; font-size: 80px; padding-left: 7%; padding-right: 18%; padding-top: 22%; padding-bottom: 17%\">+</p>"	"1367"	n/a	n/a	n/a	n/a	n/a	n/a	n/a	n/a	n/a
n/a	"image-keyboard-response"	"76"	"288803"	"0.0-5.0-2.0-1.11"	"pecugg"	"600"	"1366"	"chrome"	"108.0.0"	"FALSE"	"Windows 10"	"60.83"	"129"	n/a	n/a	n/a	n/a	n/a	n/a	"Trial"	n/a	n/a	n/a	"557"	"arrowright"	n/a	"NULL"	"NULL"	"NULL"	"stimuli/Ebbinghaus_-0.61429_0.21500.png"	n/a	"Ebbinghaus"	"arrowleft"	"1384"	"FALSE"	"Ebbinghaus"	"-0.614290000"	"0.2150000000"	"1"	"30"
n/a	"html-keyboard-response"	"77"	"289908"	"0.0-5.0-2.0-0.12"	"pecugg"	"600"	"1366"	"chrome"	"108.0.0"	"FALSE"	"Windows 10"	"60.83"	"129"	n/a	n/a	n/a	n/a	n/a	n/a	"fixation"	n/a	n/a	n/a	n/a	"NULL"	n/a	"NULL"	"NULL"	"NULL"	"<p style=\"color: black; font-size: 80px; padding-left: 43%; padding-right: 27%; padding-top: 2%; padding-bottom: 28%\">+</p>"	"1103"	n/a	n/a	n/a	n/a	n/a	n/a	n/a	n/a	n/a
n/a	"image-keyboard-response"	"78"	"290757"	"0.0-5.0-2.0-1.12"	"pecugg"	"600"	"1366"	"chrome"	"108.0.0"	"FALSE"	"Windows 10"	"60.83"	"129"	n/a	n/a	n/a	n/a	n/a	n/a	"Trial"	n/a	n/a	n/a	"849"	"arrowright"	n/a	"NULL"	"NULL"	"NULL"	"stimuli/Ebbinghaus_-0.1000_-0.2150.png"	n/a	"Ebbinghaus"	"arrowright"	"1105"	"TRUE"	"Ebbinghaus"	"-0.100000000"	"-0.215000000"	"1"	"31"
n/a	"html-keyboard-response"	"79"	"291829"	"0.0-5.0-2.0-0.13"	"pecugg"	"600"	"1366"	"chrome"	"108.0.0"	"FALSE"	"Windows 10"	"60.83"	"129"	n/a	n/a	n/a	n/a	n/a	n/a	"fixation"	n/a	n/a	n/a	n/a	"NULL"	n/a	"NULL"	"NULL"	"NULL"	"<p style=\"color: black; font-size: 80px; padding-left: 30%; padding-right: 26%; padding-top: 27%; padding-bottom: 13%\">+</p>"	"1064"	n/a	n/a	n/a	n/a	n/a	n/a	n/a	n/a	n/a
n/a	"image-keyboard-response"	"80"	"292610"	"0.0-5.0-2.0-1.13"	"pecugg"	"600"	"1366"	"chrome"	"108.0.0"	"FALSE"	"Windows 10"	"60.83"	"129"	n/a	n/a	n/a	n/a	n/a	n/a	"Trial"	n/a	n/a	n/a	"780"	"arrowleft"	n/a	"NULL"	"NULL"	"NULL"	"stimuli/Ebbinghaus_-0.87143_0.15857.png"	n/a	"Ebbinghaus"	"arrowleft"	"1072"	"TRUE"	"Ebbinghaus"	"-0.871430000"	"0.1585700000"	"1"	"32"
n/a	"html-keyboard-response"	"81"	"293981"	"0.0-5.0-2.0-0.14"	"pecugg"	"600"	"1366"	"chrome"	"108.0.0"	"FALSE"	"Windows 10"	"60.83"	"129"	n/a	n/a	n/a	n/a	n/a	n/a	"fixation"	n/a	n/a	n/a	n/a	"NULL"	n/a	"NULL"	"NULL"	"NULL"	"<p style=\"color: black; font-size: 80px; padding-left: 24%; padding-right: 28%; padding-top: 22%; padding-bottom: 16%\">+</p>"	"1358"	n/a	n/a	n/a	n/a	n/a	n/a	n/a	n/a	n/a
n/a	"image-keyboard-response"	"82"	"294714"	"0.0-5.0-2.0-1.14"	"pecugg"	"600"	"1366"	"chrome"	"108.0.0"	"FALSE"	"Windows 10"	"60.83"	"129"	n/a	n/a	n/a	n/a	n/a	n/a	"Trial"	n/a	n/a	n/a	"732"	"arrowright"	n/a	"NULL"	"NULL"	"NULL"	"stimuli/Ebbinghaus_-0.35714_-0.2150.png"	n/a	"Ebbinghaus"	"arrowright"	"1371"	"TRUE"	"Ebbinghaus"	"-0.357140000"	"-0.215000000"	"1"	"33"
n/a	"html-keyboard-response"	"83"	"296016"	"0.0-5.0-2.0-0.15"	"pecugg"	"600"	"1366"	"chrome"	"108.0.0"	"FALSE"	"Windows 10"	"60.83"	"129"	n/a	n/a	n/a	n/a	n/a	n/a	"fixation"	n/a	n/a	n/a	n/a	"NULL"	n/a	"NULL"	"NULL"	"NULL"	"<p style=\"color: black; font-size: 80px; padding-left: 23%; padding-right: 8%; padding-top: 49%; padding-bottom: 27%\">+</p>"	"1295"	n/a	n/a	n/a	n/a	n/a	n/a	n/a	n/a	n/a
n/a	"image-keyboard-response"	"84"	"296758"	"0.0-5.0-2.0-1.15"	"pecugg"	"600"	"1366"	"chrome"	"108.0.0"	"FALSE"	"Windows 10"	"60.83"	"129"	n/a	n/a	n/a	n/a	n/a	n/a	"Trial"	n/a	n/a	n/a	"741"	"arrowleft"	n/a	"NULL"	"NULL"	"NULL"	"stimuli/Ebbinghaus_0.35714_0.28000.png"	n/a	"Ebbinghaus"	"arrowleft"	"1302"	"TRUE"	"Ebbinghaus"	"0.3571400000"	"0.2800000000"	"1"	"34"
n/a	"html-keyboard-response"	"85"	"297884"	"0.0-5.0-2.0-0.16"	"pecugg"	"600"	"1366"	"chrome"	"108.0.0"	"FALSE"	"Windows 10"	"60.83"	"129"	n/a	n/a	n/a	n/a	n/a	n/a	"fixation"	n/a	n/a	n/a	n/a	"NULL"	n/a	"NULL"	"NULL"	"NULL"	"<p style=\"color: black; font-size: 80px; padding-left: 12%; padding-right: 37%; padding-top: 41%; padding-bottom: 9%\">+</p>"	"1115"	n/a	n/a	n/a	n/a	n/a	n/a	n/a	n/a	n/a
n/a	"image-keyboard-response"	"86"	"298907"	"0.0-5.0-2.0-1.16"	"pecugg"	"600"	"1366"	"chrome"	"108.0.0"	"FALSE"	"Windows 10"	"60.83"	"129"	n/a	n/a	n/a	n/a	n/a	n/a	"Trial"	n/a	n/a	n/a	"1022"	"arrowleft"	n/a	"NULL"	"NULL"	"NULL"	"stimuli/Ebbinghaus_-0.61429_0.11071.png"	n/a	"Ebbinghaus"	"arrowleft"	"1126"	"TRUE"	"Ebbinghaus"	"-0.614290000"	"0.1107100000"	"1"	"35"
n/a	"html-keyboard-response"	"87"	"300318"	"0.0-5.0-2.0-0.17"	"pecugg"	"600"	"1366"	"chrome"	"108.0.0"	"FALSE"	"Windows 10"	"60.83"	"129"	n/a	n/a	n/a	n/a	n/a	n/a	"fixation"	n/a	n/a	n/a	n/a	"NULL"	n/a	"NULL"	"NULL"	"NULL"	"<p style=\"color: black; font-size: 80px; padding-left: 42%; padding-right: 29%; padding-top: 13%; padding-bottom: 38%\">+</p>"	"1403"	n/a	n/a	n/a	n/a	n/a	n/a	n/a	n/a	n/a
n/a	"image-keyboard-response"	"88"	"301039"	"0.0-5.0-2.0-1.17"	"pecugg"	"600"	"1366"	"chrome"	"108.0.0"	"FALSE"	"Windows 10"	"60.83"	"129"	n/a	n/a	n/a	n/a	n/a	n/a	"Trial"	n/a	n/a	n/a	"719"	"arrowright"	n/a	"NULL"	"NULL"	"NULL"	"stimuli/Ebbinghaus_0.61429_-0.15857.png"	n/a	"Ebbinghaus"	"arrowright"	"1411"	"TRUE"	"Ebbinghaus"	"0.6142900000"	"-0.158570000"	"1"	"36"
n/a	"html-keyboard-response"	"89"	"302501"	"0.0-5.0-2.0-0.18"	"pecugg"	"600"	"1366"	"chrome"	"108.0.0"	"FALSE"	"Windows 10"	"60.83"	"129"	n/a	n/a	n/a	n/a	n/a	n/a	"fixation"	n/a	n/a	n/a	n/a	"NULL"	n/a	"NULL"	"NULL"	"NULL"	"<p style=\"color: black; font-size: 80px; padding-left: 14%; padding-right: 32%; padding-top: 6%; padding-bottom: 33%\">+</p>"	"1447"	n/a	n/a	n/a	n/a	n/a	n/a	n/a	n/a	n/a
n/a	"image-keyboard-response"	"90"	"304006"	"0.0-5.0-2.0-1.18"	"pecugg"	"600"	"1366"	"chrome"	"108.0.0"	"FALSE"	"Windows 10"	"60.83"	"129"	n/a	n/a	n/a	n/a	n/a	n/a	"Trial"	n/a	n/a	n/a	"1504"	"arrowleft"	n/a	"NULL"	"NULL"	"NULL"	"stimuli/Ebbinghaus_0.87143_0.28000.png"	n/a	"Ebbinghaus"	"arrowleft"	"1462"	"TRUE"	"Ebbinghaus"	"0.8714300000"	"0.2800000000"	"1"	"37"
n/a	"html-keyboard-response"	"91"	"305455"	"0.0-5.0-2.0-0.19"	"pecugg"	"600"	"1366"	"chrome"	"108.0.0"	"FALSE"	"Windows 10"	"60.83"	"129"	n/a	n/a	n/a	n/a	n/a	n/a	"fixation"	n/a	n/a	n/a	n/a	"NULL"	n/a	"NULL"	"NULL"	"NULL"	"<p style=\"color: black; font-size: 80px; padding-left: 48%; padding-right: 44%; padding-top: 16%; padding-bottom: 50%\">+</p>"	"1436"	n/a	n/a	n/a	n/a	n/a	n/a	n/a	n/a	n/a
n/a	"image-keyboard-response"	"92"	"306251"	"0.0-5.0-2.0-1.19"	"pecugg"	"600"	"1366"	"chrome"	"108.0.0"	"FALSE"	"Windows 10"	"60.83"	"129"	n/a	n/a	n/a	n/a	n/a	n/a	"Trial"	n/a	n/a	n/a	"795"	"arrowright"	n/a	"NULL"	"NULL"	"NULL"	"stimuli/Ebbinghaus_0.10000_-0.15857.png"	n/a	"Ebbinghaus"	"arrowright"	"1449"	"TRUE"	"Ebbinghaus"	"0.1000000000"	"-0.158570000"	"1"	"38"
n/a	"html-keyboard-response"	"93"	"307550"	"0.0-5.0-2.0-0.20"	"pecugg"	"600"	"1366"	"chrome"	"108.0.0"	"FALSE"	"Windows 10"	"60.83"	"129"	n/a	n/a	n/a	n/a	n/a	n/a	"fixation"	n/a	n/a	n/a	n/a	"NULL"	n/a	"NULL"	"NULL"	"NULL"	"<p style=\"color: black; font-size: 80px; padding-left: 37%; padding-right: 9%; padding-top: 33%; padding-bottom: 36%\">+</p>"	"1285"	n/a	n/a	n/a	n/a	n/a	n/a	n/a	n/a	n/a
n/a	"image-keyboard-response"	"94"	"308430"	"0.0-5.0-2.0-1.20"	"pecugg"	"600"	"1366"	"chrome"	"108.0.0"	"FALSE"	"Windows 10"	"60.83"	"129"	n/a	n/a	n/a	n/a	n/a	n/a	"Trial"	n/a	n/a	n/a	"880"	"arrowleft"	n/a	"NULL"	"NULL"	"NULL"	"stimuli/Ebbinghaus_0.10000_0.11071.png"	n/a	"Ebbinghaus"	"arrowleft"	"1299"	"TRUE"	"Ebbinghaus"	"0.1000000000"	"0.1107100000"	"1"	"39"
n/a	"html-keyboard-response"	"95"	"309903"	"0.0-5.0-2.0-0.21"	"pecugg"	"600"	"1366"	"chrome"	"108.0.0"	"FALSE"	"Windows 10"	"60.83"	"129"	n/a	n/a	n/a	n/a	n/a	n/a	"fixation"	n/a	n/a	n/a	n/a	"NULL"	n/a	"NULL"	"NULL"	"NULL"	"<p style=\"color: black; font-size: 80px; padding-left: 41%; padding-right: 41%; padding-top: 47%; padding-bottom: 29%\">+</p>"	"1466"	n/a	n/a	n/a	n/a	n/a	n/a	n/a	n/a	n/a
n/a	"image-keyboard-response"	"96"	"310676"	"0.0-5.0-2.0-1.21"	"pecugg"	"600"	"1366"	"chrome"	"108.0.0"	"FALSE"	"Windows 10"	"60.83"	"129"	n/a	n/a	n/a	n/a	n/a	n/a	"Trial"	n/a	n/a	n/a	"772"	"arrowright"	n/a	"NULL"	"NULL"	"NULL"	"stimuli/Ebbinghaus_-0.61429_-0.2150.png"	n/a	"Ebbinghaus"	"arrowright"	"1473"	"TRUE"	"Ebbinghaus"	"-0.614290000"	"-0.215000000"	"1"	"40"
n/a	"html-keyboard-response"	"97"	"312064"	"0.0-5.0-2.0-0.22"	"pecugg"	"600"	"1366"	"chrome"	"108.0.0"	"FALSE"	"Windows 10"	"60.83"	"129"	n/a	n/a	n/a	n/a	n/a	n/a	"fixation"	n/a	n/a	n/a	n/a	"NULL"	n/a	"NULL"	"NULL"	"NULL"	"<p style=\"color: black; font-size: 80px; padding-left: 40%; padding-right: 23%; padding-top: 38%; padding-bottom: 41%\">+</p>"	"1370"	n/a	n/a	n/a	n/a	n/a	n/a	n/a	n/a	n/a
n/a	"image-keyboard-response"	"98"	"312770"	"0.0-5.0-2.0-1.22"	"pecugg"	"600"	"1366"	"chrome"	"108.0.0"	"FALSE"	"Windows 10"	"60.83"	"129"	n/a	n/a	n/a	n/a	n/a	n/a	"Trial"	n/a	n/a	n/a	"705"	"arrowright"	n/a	"NULL"	"NULL"	"NULL"	"stimuli/Ebbinghaus_0.35714_-0.2150.png"	n/a	"Ebbinghaus"	"arrowright"	"1388"	"TRUE"	"Ebbinghaus"	"0.3571400000"	"-0.215000000"	"1"	"41"
n/a	"html-keyboard-response"	"99"	"314168"	"0.0-5.0-2.0-0.23"	"pecugg"	"600"	"1366"	"chrome"	"108.0.0"	"FALSE"	"Windows 10"	"60.83"	"129"	n/a	n/a	n/a	n/a	n/a	n/a	"fixation"	n/a	n/a	n/a	n/a	"NULL"	n/a	"NULL"	"NULL"	"NULL"	"<p style=\"color: black; font-size: 80px; padding-left: 25%; padding-right: 27%; padding-top: 31%; padding-bottom: 17%\">+</p>"	"1388"	n/a	n/a	n/a	n/a	n/a	n/a	n/a	n/a	n/a
n/a	"image-keyboard-response"	"100"	"314968"	"0.0-5.0-2.0-1.23"	"pecugg"	"600"	"1366"	"chrome"	"108.0.0"	"FALSE"	"Windows 10"	"60.83"	"129"	n/a	n/a	n/a	n/a	n/a	n/a	"Trial"	n/a	n/a	n/a	"798"	"arrowright"	n/a	"NULL"	"NULL"	"NULL"	"stimuli/Ebbinghaus_0.35714_-0.15857.png"	n/a	"Ebbinghaus"	"arrowright"	"1398"	"TRUE"	"Ebbinghaus"	"0.3571400000"	"-0.158570000"	"1"	"42"
n/a	"html-keyboard-response"	"101"	"316095"	"0.0-5.0-2.0-0.24"	"pecugg"	"600"	"1366"	"chrome"	"108.0.0"	"FALSE"	"Windows 10"	"60.83"	"129"	n/a	n/a	n/a	n/a	n/a	n/a	"fixation"	n/a	n/a	n/a	n/a	"NULL"	n/a	"NULL"	"NULL"	"NULL"	"<p style=\"color: black; font-size: 80px; padding-left: 43%; padding-right: 13%; padding-top: 36%; padding-bottom: 38%\">+</p>"	"1116"	n/a	n/a	n/a	n/a	n/a	n/a	n/a	n/a	n/a
n/a	"image-keyboard-response"	"102"	"317060"	"0.0-5.0-2.0-1.24"	"pecugg"	"600"	"1366"	"chrome"	"108.0.0"	"FALSE"	"Windows 10"	"60.83"	"129"	n/a	n/a	n/a	n/a	n/a	n/a	"Trial"	n/a	n/a	n/a	"964"	"arrowleft"	n/a	"NULL"	"NULL"	"NULL"	"stimuli/Ebbinghaus_0.35714_0.11071.png"	n/a	"Ebbinghaus"	"arrowleft"	"1127"	"TRUE"	"Ebbinghaus"	"0.3571400000"	"0.1107100000"	"1"	"43"
n/a	"html-keyboard-response"	"103"	"318315"	"0.0-5.0-2.0-0.25"	"pecugg"	"600"	"1366"	"chrome"	"108.0.0"	"FALSE"	"Windows 10"	"60.83"	"129"	n/a	n/a	n/a	n/a	n/a	n/a	"fixation"	n/a	n/a	n/a	n/a	"NULL"	n/a	"NULL"	"NULL"	"NULL"	"<p style=\"color: black; font-size: 80px; padding-left: 18%; padding-right: 39%; padding-top: 48%; padding-bottom: 27%\">+</p>"	"1241"	n/a	n/a	n/a	n/a	n/a	n/a	n/a	n/a	n/a
n/a	"image-keyboard-response"	"104"	"319365"	"0.0-5.0-2.0-1.25"	"pecugg"	"600"	"1366"	"chrome"	"108.0.0"	"FALSE"	"Windows 10"	"60.83"	"129"	n/a	n/a	n/a	n/a	n/a	n/a	"Trial"	n/a	n/a	n/a	"1047"	"arrowleft"	n/a	"NULL"	"NULL"	"NULL"	"stimuli/Ebbinghaus_-0.61429_0.15857.png"	n/a	"Ebbinghaus"	"arrowleft"	"1255"	"TRUE"	"Ebbinghaus"	"-0.614290000"	"0.1585700000"	"1"	"44"
n/a	"html-keyboard-response"	"105"	"320870"	"0.0-5.0-2.0-0.26"	"pecugg"	"600"	"1366"	"chrome"	"108.0.0"	"FALSE"	"Windows 10"	"60.83"	"129"	n/a	n/a	n/a	n/a	n/a	n/a	"fixation"	n/a	n/a	n/a	n/a	"NULL"	n/a	"NULL"	"NULL"	"NULL"	"<p style=\"color: black; font-size: 80px; padding-left: 3%; padding-right: 7%; padding-top: 41%; padding-bottom: 44%\">+</p>"	"1498"	n/a	n/a	n/a	n/a	n/a	n/a	n/a	n/a	n/a
n/a	"image-keyboard-response"	"106"	"321816"	"0.0-5.0-2.0-1.26"	"pecugg"	"600"	"1366"	"chrome"	"108.0.0"	"FALSE"	"Windows 10"	"60.83"	"129"	n/a	n/a	n/a	n/a	n/a	n/a	"Trial"	n/a	n/a	n/a	"945"	"arrowleft"	n/a	"NULL"	"NULL"	"NULL"	"stimuli/Ebbinghaus_-0.87143_0.11071.png"	n/a	"Ebbinghaus"	"arrowleft"	"1505"	"TRUE"	"Ebbinghaus"	"-0.871430000"	"0.1107100000"	"1"	"45"
n/a	"html-keyboard-response"	"107"	"322996"	"0.0-5.0-2.0-0.27"	"pecugg"	"600"	"1366"	"chrome"	"108.0.0"	"FALSE"	"Windows 10"	"60.83"	"129"	n/a	n/a	n/a	n/a	n/a	n/a	"fixation"	n/a	n/a	n/a	n/a	"NULL"	n/a	"NULL"	"NULL"	"NULL"	"<p style=\"color: black; font-size: 80px; padding-left: 22%; padding-right: 18%; padding-top: 6%; padding-bottom: 49%\">+</p>"	"1163"	n/a	n/a	n/a	n/a	n/a	n/a	n/a	n/a	n/a
n/a	"image-keyboard-response"	"108"	"323914"	"0.0-5.0-2.0-1.27"	"pecugg"	"600"	"1366"	"chrome"	"108.0.0"	"FALSE"	"Windows 10"	"60.83"	"129"	n/a	n/a	n/a	n/a	n/a	n/a	"Trial"	n/a	n/a	n/a	"917"	"arrowright"	n/a	"NULL"	"NULL"	"NULL"	"stimuli/Ebbinghaus_-0.35714_0.11071.png"	n/a	"Ebbinghaus"	"arrowleft"	"1180"	"FALSE"	"Ebbinghaus"	"-0.357140000"	"0.1107100000"	"1"	"46"
n/a	"html-keyboard-response"	"109"	"325238"	"0.0-5.0-2.0-0.28"	"pecugg"	"600"	"1366"	"chrome"	"108.0.0"	"FALSE"	"Windows 10"	"60.83"	"129"	n/a	n/a	n/a	n/a	n/a	n/a	"fixation"	n/a	n/a	n/a	n/a	"NULL"	n/a	"NULL"	"NULL"	"NULL"	"<p style=\"color: black; font-size: 80px; padding-left: 49%; padding-right: 30%; padding-top: 31%; padding-bottom: 23%\">+</p>"	"1309"	n/a	n/a	n/a	n/a	n/a	n/a	n/a	n/a	n/a
n/a	"image-keyboard-response"	"110"	"326113"	"0.0-5.0-2.0-1.28"	"pecugg"	"600"	"1366"	"chrome"	"108.0.0"	"FALSE"	"Windows 10"	"60.83"	"129"	n/a	n/a	n/a	n/a	n/a	n/a	"Trial"	n/a	n/a	n/a	"873"	"arrowright"	n/a	"NULL"	"NULL"	"NULL"	"stimuli/Ebbinghaus_-0.61429_-0.15857.png"	n/a	"Ebbinghaus"	"arrowright"	"1324"	"TRUE"	"Ebbinghaus"	"-0.614290000"	"-0.158570000"	"1"	"47"
n/a	"html-keyboard-response"	"111"	"327190"	"0.0-5.0-2.0-0.29"	"pecugg"	"600"	"1366"	"chrome"	"108.0.0"	"FALSE"	"Windows 10"	"60.83"	"129"	n/a	n/a	n/a	n/a	n/a	n/a	"fixation"	n/a	n/a	n/a	n/a	"NULL"	n/a	"NULL"	"NULL"	"NULL"	"<p style=\"color: black; font-size: 80px; padding-left: 44%; padding-right: 50%; padding-top: 8%; padding-bottom: 9%\">+</p>"	"1072"	n/a	n/a	n/a	n/a	n/a	n/a	n/a	n/a	n/a
n/a	"image-keyboard-response"	"112"	"327918"	"0.0-5.0-2.0-1.29"	"pecugg"	"600"	"1366"	"chrome"	"108.0.0"	"FALSE"	"Windows 10"	"60.83"	"129"	n/a	n/a	n/a	n/a	n/a	n/a	"Trial"	n/a	n/a	n/a	"728"	"arrowright"	n/a	"NULL"	"NULL"	"NULL"	"stimuli/Ebbinghaus_-0.1000_-0.2800.png"	n/a	"Ebbinghaus"	"arrowright"	"1077"	"TRUE"	"Ebbinghaus"	"-0.100000000"	"-0.280000000"	"1"	"48"
n/a	"html-keyboard-response"	"113"	"328956"	"0.0-5.0-2.0-0.30"	"pecugg"	"600"	"1366"	"chrome"	"108.0.0"	"FALSE"	"Windows 10"	"60.83"	"129"	n/a	n/a	n/a	n/a	n/a	n/a	"fixation"	n/a	n/a	n/a	n/a	"NULL"	n/a	"NULL"	"NULL"	"NULL"	"<p style=\"color: black; font-size: 80px; padding-left: 27%; padding-right: 38%; padding-top: 4%; padding-bottom: 49%\">+</p>"	"1013"	n/a	n/a	n/a	n/a	n/a	n/a	n/a	n/a	n/a
n/a	"image-keyboard-response"	"114"	"330012"	"0.0-5.0-2.0-1.30"	"pecugg"	"600"	"1366"	"chrome"	"108.0.0"	"FALSE"	"Windows 10"	"60.83"	"129"	n/a	n/a	n/a	n/a	n/a	n/a	"Trial"	n/a	n/a	n/a	"1055"	"arrowright"	n/a	"NULL"	"NULL"	"NULL"	"stimuli/Ebbinghaus_0.87143_0.21500.png"	n/a	"Ebbinghaus"	"arrowleft"	"1038"	"FALSE"	"Ebbinghaus"	"0.8714300000"	"0.2150000000"	"1"	"49"
n/a	"html-keyboard-response"	"115"	"331032"	"0.0-5.0-2.0-0.31"	"pecugg"	"600"	"1366"	"chrome"	"108.0.0"	"FALSE"	"Windows 10"	"60.83"	"129"	n/a	n/a	n/a	n/a	n/a	n/a	"fixation"	n/a	n/a	n/a	n/a	"NULL"	n/a	"NULL"	"NULL"	"NULL"	"<p style=\"color: black; font-size: 80px; padding-left: 17%; padding-right: 38%; padding-top: 21%; padding-bottom: 13%\">+</p>"	"1010"	n/a	n/a	n/a	n/a	n/a	n/a	n/a	n/a	n/a
n/a	"image-keyboard-response"	"116"	"331697"	"0.0-5.0-2.0-1.31"	"pecugg"	"600"	"1366"	"chrome"	"108.0.0"	"FALSE"	"Windows 10"	"60.83"	"129"	n/a	n/a	n/a	n/a	n/a	n/a	"Trial"	n/a	n/a	n/a	"664"	"arrowright"	n/a	"NULL"	"NULL"	"NULL"	"stimuli/Ebbinghaus_0.10000_-0.2800.png"	n/a	"Ebbinghaus"	"arrowright"	"1020"	"TRUE"	"Ebbinghaus"	"0.1000000000"	"-0.280000000"	"1"	"50"
n/a	"html-keyboard-response"	"117"	"333188"	"0.0-5.0-2.0-0.32"	"pecugg"	"600"	"1366"	"chrome"	"108.0.0"	"FALSE"	"Windows 10"	"60.83"	"129"	n/a	n/a	n/a	n/a	n/a	n/a	"fixation"	n/a	n/a	n/a	n/a	"NULL"	n/a	"NULL"	"NULL"	"NULL"	"<p style=\"color: black; font-size: 80px; padding-left: 5%; padding-right: 40%; padding-top: 46%; padding-bottom: 12%\">+</p>"	"1489"	n/a	n/a	n/a	n/a	n/a	n/a	n/a	n/a	n/a
n/a	"image-keyboard-response"	"118"	"333937"	"0.0-5.0-2.0-1.32"	"pecugg"	"600"	"1366"	"chrome"	"108.0.0"	"FALSE"	"Windows 10"	"60.83"	"129"	n/a	n/a	n/a	n/a	n/a	n/a	"Trial"	n/a	n/a	n/a	"746"	"arrowleft"	n/a	"NULL"	"NULL"	"NULL"	"stimuli/Ebbinghaus_0.87143_0.15857.png"	n/a	"Ebbinghaus"	"arrowleft"	"1491"	"TRUE"	"Ebbinghaus"	"0.8714300000"	"0.1585700000"	"1"	"51"
n/a	"html-keyboard-response"	"119"	"335001"	"0.0-5.0-2.0-0.33"	"pecugg"	"600"	"1366"	"chrome"	"108.0.0"	"FALSE"	"Windows 10"	"60.83"	"129"	n/a	n/a	n/a	n/a	n/a	n/a	"fixation"	n/a	n/a	n/a	n/a	"NULL"	n/a	"NULL"	"NULL"	"NULL"	"<p style=\"color: black; font-size: 80px; padding-left: 36%; padding-right: 30%; padding-top: 39%; padding-bottom: 50%\">+</p>"	"1048"	n/a	n/a	n/a	n/a	n/a	n/a	n/a	n/a	n/a
n/a	"image-keyboard-response"	"120"	"335699"	"0.0-5.0-2.0-1.33"	"pecugg"	"600"	"1366"	"chrome"	"108.0.0"	"FALSE"	"Windows 10"	"60.83"	"129"	n/a	n/a	n/a	n/a	n/a	n/a	"Trial"	n/a	n/a	n/a	"697"	"arrowright"	n/a	"NULL"	"NULL"	"NULL"	"stimuli/Ebbinghaus_-0.61429_-0.2800.png"	n/a	"Ebbinghaus"	"arrowright"	"1064"	"TRUE"	"Ebbinghaus"	"-0.614290000"	"-0.280000000"	"1"	"52"
n/a	"html-keyboard-response"	"121"	"337106"	"0.0-5.0-2.0-0.34"	"pecugg"	"600"	"1366"	"chrome"	"108.0.0"	"FALSE"	"Windows 10"	"60.83"	"129"	n/a	n/a	n/a	n/a	n/a	n/a	"fixation"	n/a	n/a	n/a	n/a	"NULL"	n/a	"NULL"	"NULL"	"NULL"	"<p style=\"color: black; font-size: 80px; padding-left: 44%; padding-right: 46%; padding-top: 37%; padding-bottom: 10%\">+</p>"	"1386"	n/a	n/a	n/a	n/a	n/a	n/a	n/a	n/a	n/a
n/a	"image-keyboard-response"	"122"	"337973"	"0.0-5.0-2.0-1.34"	"pecugg"	"600"	"1366"	"chrome"	"108.0.0"	"FALSE"	"Windows 10"	"60.83"	"129"	n/a	n/a	n/a	n/a	n/a	n/a	"Trial"	n/a	n/a	n/a	"866"	"arrowright"	n/a	"NULL"	"NULL"	"NULL"	"stimuli/Ebbinghaus_0.35714_-0.2800.png"	n/a	"Ebbinghaus"	"arrowright"	"1407"	"TRUE"	"Ebbinghaus"	"0.3571400000"	"-0.280000000"	"1"	"53"
n/a	"html-keyboard-response"	"123"	"339283"	"0.0-5.0-2.0-0.35"	"pecugg"	"600"	"1366"	"chrome"	"108.0.0"	"FALSE"	"Windows 10"	"60.83"	"129"	n/a	n/a	n/a	n/a	n/a	n/a	"fixation"	n/a	n/a	n/a	n/a	"NULL"	n/a	"NULL"	"NULL"	"NULL"	"<p style=\"color: black; font-size: 80px; padding-left: 35%; padding-right: 33%; padding-top: 42%; padding-bottom: 38%\">+</p>"	"1298"	n/a	n/a	n/a	n/a	n/a	n/a	n/a	n/a	n/a
n/a	"image-keyboard-response"	"124"	"340192"	"0.0-5.0-2.0-1.35"	"pecugg"	"600"	"1366"	"chrome"	"108.0.0"	"FALSE"	"Windows 10"	"60.83"	"129"	n/a	n/a	n/a	n/a	n/a	n/a	"Trial"	n/a	n/a	n/a	"908"	"arrowright"	n/a	"NULL"	"NULL"	"NULL"	"stimuli/Ebbinghaus_0.87143_-0.15857.png"	n/a	"Ebbinghaus"	"arrowright"	"1310"	"TRUE"	"Ebbinghaus"	"0.8714300000"	"-0.158570000"	"1"	"54"
n/a	"html-keyboard-response"	"125"	"341427"	"0.0-5.0-2.0-0.36"	"pecugg"	"600"	"1366"	"chrome"	"108.0.0"	"FALSE"	"Windows 10"	"60.83"	"129"	n/a	n/a	n/a	n/a	n/a	n/a	"fixation"	n/a	n/a	n/a	n/a	"NULL"	n/a	"NULL"	"NULL"	"NULL"	"<p style=\"color: black; font-size: 80px; padding-left: 28%; padding-right: 15%; padding-top: 34%; padding-bottom: 23%\">+</p>"	"1225"	n/a	n/a	n/a	n/a	n/a	n/a	n/a	n/a	n/a
n/a	"image-keyboard-response"	"126"	"342145"	"0.0-5.0-2.0-1.36"	"pecugg"	"600"	"1366"	"chrome"	"108.0.0"	"FALSE"	"Windows 10"	"60.83"	"129"	n/a	n/a	n/a	n/a	n/a	n/a	"Trial"	n/a	n/a	n/a	"717"	"arrowleft"	n/a	"NULL"	"NULL"	"NULL"	"stimuli/Ebbinghaus_-0.61429_0.28000.png"	n/a	"Ebbinghaus"	"arrowleft"	"1235"	"TRUE"	"Ebbinghaus"	"-0.614290000"	"0.2800000000"	"1"	"55"
n/a	"html-keyboard-response"	"127"	"343235"	"0.0-5.0-2.0-0.37"	"pecugg"	"600"	"1366"	"chrome"	"108.0.0"	"FALSE"	"Windows 10"	"60.83"	"129"	n/a	n/a	n/a	n/a	n/a	n/a	"fixation"	n/a	n/a	n/a	n/a	"NULL"	n/a	"NULL"	"NULL"	"NULL"	"<p style=\"color: black; font-size: 80px; padding-left: 31%; padding-right: 11%; padding-top: 37%; padding-bottom: 40%\">+</p>"	"1079"	n/a	n/a	n/a	n/a	n/a	n/a	n/a	n/a	n/a
n/a	"image-keyboard-response"	"128"	"344405"	"0.0-5.0-2.0-1.37"	"pecugg"	"600"	"1366"	"chrome"	"108.0.0"	"FALSE"	"Windows 10"	"60.83"	"129"	n/a	n/a	n/a	n/a	n/a	n/a	"Trial"	n/a	n/a	n/a	"1169"	"arrowright"	n/a	"NULL"	"NULL"	"NULL"	"stimuli/Ebbinghaus_0.87143_0.11071.png"	n/a	"Ebbinghaus"	"arrowleft"	"1090"	"FALSE"	"Ebbinghaus"	"0.8714300000"	"0.1107100000"	"1"	"56"
n/a	"html-keyboard-response"	"129"	"345894"	"0.0-5.0-2.0-0.38"	"pecugg"	"600"	"1366"	"chrome"	"108.0.0"	"FALSE"	"Windows 10"	"60.83"	"129"	n/a	n/a	n/a	n/a	n/a	n/a	"fixation"	n/a	n/a	n/a	n/a	"NULL"	n/a	"NULL"	"NULL"	"NULL"	"<p style=\"color: black; font-size: 80px; padding-left: 23%; padding-right: 12%; padding-top: 38%; padding-bottom: 3%\">+</p>"	"1484"	n/a	n/a	n/a	n/a	n/a	n/a	n/a	n/a	n/a
n/a	"image-keyboard-response"	"130"	"346795"	"0.0-5.0-2.0-1.38"	"pecugg"	"600"	"1366"	"chrome"	"108.0.0"	"FALSE"	"Windows 10"	"60.83"	"129"	n/a	n/a	n/a	n/a	n/a	n/a	"Trial"	n/a	n/a	n/a	"900"	"arrowright"	n/a	"NULL"	"NULL"	"NULL"	"stimuli/Ebbinghaus_-0.87143_-0.11071.png"	n/a	"Ebbinghaus"	"arrowright"	"1489"	"TRUE"	"Ebbinghaus"	"-0.871430000"	"-0.110710000"	"1"	"57"
n/a	"html-keyboard-response"	"131"	"347987"	"0.0-5.0-2.0-0.39"	"pecugg"	"600"	"1366"	"chrome"	"108.0.0"	"FALSE"	"Windows 10"	"60.83"	"129"	n/a	n/a	n/a	n/a	n/a	n/a	"fixation"	n/a	n/a	n/a	n/a	"NULL"	n/a	"NULL"	"NULL"	"NULL"	"<p style=\"color: black; font-size: 80px; padding-left: 28%; padding-right: 40%; padding-top: 3%; padding-bottom: 46%\">+</p>"	"1176"	n/a	n/a	n/a	n/a	n/a	n/a	n/a	n/a	n/a
n/a	"image-keyboard-response"	"132"	"349190"	"0.0-5.0-2.0-1.39"	"pecugg"	"600"	"1366"	"chrome"	"108.0.0"	"FALSE"	"Windows 10"	"60.83"	"129"	n/a	n/a	n/a	n/a	n/a	n/a	"Trial"	n/a	n/a	n/a	"1201"	"arrowright"	n/a	"NULL"	"NULL"	"NULL"	"stimuli/Ebbinghaus_0.61429_0.11071.png"	n/a	"Ebbinghaus"	"arrowleft"	"1192"	"FALSE"	"Ebbinghaus"	"0.6142900000"	"0.1107100000"	"1"	"58"
n/a	"html-keyboard-response"	"133"	"350240"	"0.0-5.0-2.0-0.40"	"pecugg"	"600"	"1366"	"chrome"	"108.0.0"	"FALSE"	"Windows 10"	"60.83"	"129"	n/a	n/a	n/a	n/a	n/a	n/a	"fixation"	n/a	n/a	n/a	n/a	"NULL"	n/a	"NULL"	"NULL"	"NULL"	"<p style=\"color: black; font-size: 80px; padding-left: 17%; padding-right: 16%; padding-top: 25%; padding-bottom: 7%\">+</p>"	"1041"	n/a	n/a	n/a	n/a	n/a	n/a	n/a	n/a	n/a
n/a	"image-keyboard-response"	"134"	"350971"	"0.0-5.0-2.0-1.40"	"pecugg"	"600"	"1366"	"chrome"	"108.0.0"	"FALSE"	"Windows 10"	"60.83"	"129"	n/a	n/a	n/a	n/a	n/a	n/a	"Trial"	n/a	n/a	n/a	"730"	"arrowright"	n/a	"NULL"	"NULL"	"NULL"	"stimuli/Ebbinghaus_-0.87143_-0.2800.png"	n/a	"Ebbinghaus"	"arrowright"	"1050"	"TRUE"	"Ebbinghaus"	"-0.871430000"	"-0.280000000"	"1"	"59"
n/a	"html-keyboard-response"	"135"	"352332"	"0.0-5.0-2.0-0.41"	"pecugg"	"600"	"1366"	"chrome"	"108.0.0"	"FALSE"	"Windows 10"	"60.83"	"129"	n/a	n/a	n/a	n/a	n/a	n/a	"fixation"	n/a	n/a	n/a	n/a	"NULL"	n/a	"NULL"	"NULL"	"NULL"	"<p style=\"color: black; font-size: 80px; padding-left: 43%; padding-right: 0%; padding-top: 16%; padding-bottom: 16%\">+</p>"	"1353"	n/a	n/a	n/a	n/a	n/a	n/a	n/a	n/a	n/a
n/a	"image-keyboard-response"	"136"	"353020"	"0.0-5.0-2.0-1.41"	"pecugg"	"600"	"1366"	"chrome"	"108.0.0"	"FALSE"	"Windows 10"	"60.83"	"129"	n/a	n/a	n/a	n/a	n/a	n/a	"Trial"	n/a	n/a	n/a	"687"	"arrowleft"	n/a	"NULL"	"NULL"	"NULL"	"stimuli/Ebbinghaus_-0.87143_0.21500.png"	n/a	"Ebbinghaus"	"arrowleft"	"1361"	"TRUE"	"Ebbinghaus"	"-0.871430000"	"0.2150000000"	"1"	"60"
n/a	"html-keyboard-response"	"137"	"354346"	"0.0-5.0-2.0-0.42"	"pecugg"	"600"	"1366"	"chrome"	"108.0.0"	"FALSE"	"Windows 10"	"60.83"	"129"	n/a	n/a	n/a	n/a	n/a	n/a	"fixation"	n/a	n/a	n/a	n/a	"NULL"	n/a	"NULL"	"NULL"	"NULL"	"<p style=\"color: black; font-size: 80px; padding-left: 43%; padding-right: 38%; padding-top: 9%; padding-bottom: 42%\">+</p>"	"1317"	n/a	n/a	n/a	n/a	n/a	n/a	n/a	n/a	n/a
n/a	"image-keyboard-response"	"138"	"354888"	"0.0-5.0-2.0-1.42"	"pecugg"	"600"	"1366"	"chrome"	"108.0.0"	"FALSE"	"Windows 10"	"60.83"	"129"	n/a	n/a	n/a	n/a	n/a	n/a	"Trial"	n/a	n/a	n/a	"541"	"arrowright"	n/a	"NULL"	"NULL"	"NULL"	"stimuli/Ebbinghaus_-0.87143_-0.15857.png"	n/a	"Ebbinghaus"	"arrowright"	"1326"	"TRUE"	"Ebbinghaus"	"-0.871430000"	"-0.158570000"	"1"	"61"
n/a	"html-keyboard-response"	"139"	"356245"	"0.0-5.0-2.0-0.43"	"pecugg"	"600"	"1366"	"chrome"	"108.0.0"	"FALSE"	"Windows 10"	"60.83"	"129"	n/a	n/a	n/a	n/a	n/a	n/a	"fixation"	n/a	n/a	n/a	n/a	"NULL"	n/a	"NULL"	"NULL"	"NULL"	"<p style=\"color: black; font-size: 80px; padding-left: 39%; padding-right: 3%; padding-top: 13%; padding-bottom: 47%\">+</p>"	"1343"	n/a	n/a	n/a	n/a	n/a	n/a	n/a	n/a	n/a
n/a	"image-keyboard-response"	"140"	"356791"	"0.0-5.0-2.0-1.43"	"pecugg"	"600"	"1366"	"chrome"	"108.0.0"	"FALSE"	"Windows 10"	"60.83"	"129"	n/a	n/a	n/a	n/a	n/a	n/a	"Trial"	n/a	n/a	n/a	"545"	"arrowright"	n/a	"NULL"	"NULL"	"NULL"	"stimuli/Ebbinghaus_-0.87143_-0.2150.png"	n/a	"Ebbinghaus"	"arrowright"	"1357"	"TRUE"	"Ebbinghaus"	"-0.871430000"	"-0.215000000"	"1"	"62"
n/a	"html-keyboard-response"	"141"	"358221"	"0.0-5.0-2.0-0.44"	"pecugg"	"600"	"1366"	"chrome"	"108.0.0"	"FALSE"	"Windows 10"	"60.83"	"129"	n/a	n/a	n/a	n/a	n/a	n/a	"fixation"	n/a	n/a	n/a	n/a	"NULL"	n/a	"NULL"	"NULL"	"NULL"	"<p style=\"color: black; font-size: 80px; padding-left: 40%; padding-right: 36%; padding-top: 32%; padding-bottom: 34%\">+</p>"	"1416"	n/a	n/a	n/a	n/a	n/a	n/a	n/a	n/a	n/a
n/a	"image-keyboard-response"	"142"	"358789"	"0.0-5.0-2.0-1.44"	"pecugg"	"600"	"1366"	"chrome"	"108.0.0"	"FALSE"	"Windows 10"	"60.83"	"129"	n/a	n/a	n/a	n/a	n/a	n/a	"Trial"	n/a	n/a	n/a	"567"	"arrowleft"	n/a	"NULL"	"NULL"	"NULL"	"stimuli/Ebbinghaus_-0.1000_0.28000.png"	n/a	"Ebbinghaus"	"arrowleft"	"1430"	"TRUE"	"Ebbinghaus"	"-0.100000000"	"0.2800000000"	"1"	"63"
n/a	"html-keyboard-response"	"143"	"359940"	"0.0-5.0-2.0-0.45"	"pecugg"	"600"	"1366"	"chrome"	"108.0.0"	"FALSE"	"Windows 10"	"60.83"	"129"	n/a	n/a	n/a	n/a	n/a	n/a	"fixation"	n/a	n/a	n/a	n/a	"NULL"	n/a	"NULL"	"NULL"	"NULL"	"<p style=\"color: black; font-size: 80px; padding-left: 15%; padding-right: 45%; padding-top: 24%; padding-bottom: 48%\">+</p>"	"1132"	n/a	n/a	n/a	n/a	n/a	n/a	n/a	n/a	n/a
n/a	"image-keyboard-response"	"144"	"360412"	"0.0-5.0-2.0-1.45"	"pecugg"	"600"	"1366"	"chrome"	"108.0.0"	"FALSE"	"Windows 10"	"60.83"	"129"	n/a	n/a	n/a	n/a	n/a	n/a	"Trial"	n/a	n/a	n/a	"472"	"arrowright"	n/a	"NULL"	"NULL"	"NULL"	"stimuli/Ebbinghaus_-0.35714_-0.2800.png"	n/a	"Ebbinghaus"	"arrowright"	"1151"	"TRUE"	"Ebbinghaus"	"-0.357140000"	"-0.280000000"	"1"	"64"
n/a	"html-keyboard-response"	"145"	"361709"	"0.0-5.0-2.0-0.46"	"pecugg"	"600"	"1366"	"chrome"	"108.0.0"	"FALSE"	"Windows 10"	"60.83"	"129"	n/a	n/a	n/a	n/a	n/a	n/a	"fixation"	n/a	n/a	n/a	n/a	"NULL"	n/a	"NULL"	"NULL"	"NULL"	"<p style=\"color: black; font-size: 80px; padding-left: 32%; padding-right: 20%; padding-top: 8%; padding-bottom: 25%\">+</p>"	"1290"	n/a	n/a	n/a	n/a	n/a	n/a	n/a	n/a	n/a
n/a	"image-keyboard-response"	"146"	"362359"	"0.0-5.0-2.0-1.46"	"pecugg"	"600"	"1366"	"chrome"	"108.0.0"	"FALSE"	"Windows 10"	"60.83"	"129"	n/a	n/a	n/a	n/a	n/a	n/a	"Trial"	n/a	n/a	n/a	"649"	"arrowleft"	n/a	"NULL"	"NULL"	"NULL"	"stimuli/Ebbinghaus_0.10000_0.28000.png"	n/a	"Ebbinghaus"	"arrowleft"	"1297"	"TRUE"	"Ebbinghaus"	"0.1000000000"	"0.2800000000"	"1"	"65"
n/a	"html-keyboard-response"	"147"	"363814"	"0.0-5.0-2.0-0.47"	"pecugg"	"600"	"1366"	"chrome"	"108.0.0"	"FALSE"	"Windows 10"	"60.83"	"129"	n/a	n/a	n/a	n/a	n/a	n/a	"fixation"	n/a	n/a	n/a	n/a	"NULL"	n/a	"NULL"	"NULL"	"NULL"	"<p style=\"color: black; font-size: 80px; padding-left: 0%; padding-right: 32%; padding-top: 31%; padding-bottom: 27%\">+</p>"	"1449"	n/a	n/a	n/a	n/a	n/a	n/a	n/a	n/a	n/a
n/a	"image-keyboard-response"	"148"	"364433"	"0.0-5.0-2.0-1.47"	"pecugg"	"600"	"1366"	"chrome"	"108.0.0"	"FALSE"	"Windows 10"	"60.83"	"129"	n/a	n/a	n/a	n/a	n/a	n/a	"Trial"	n/a	n/a	n/a	"618"	"arrowright"	n/a	"NULL"	"NULL"	"NULL"	"stimuli/Ebbinghaus_-0.1000_-0.15857.png"	n/a	"Ebbinghaus"	"arrowright"	"1455"	"TRUE"	"Ebbinghaus"	"-0.100000000"	"-0.158570000"	"1"	"66"
n/a	"html-keyboard-response"	"149"	"365457"	"0.0-5.0-2.0-0.48"	"pecugg"	"600"	"1366"	"chrome"	"108.0.0"	"FALSE"	"Windows 10"	"60.83"	"129"	n/a	n/a	n/a	n/a	n/a	n/a	"fixation"	n/a	n/a	n/a	n/a	"NULL"	n/a	"NULL"	"NULL"	"NULL"	"<p style=\"color: black; font-size: 80px; padding-left: 40%; padding-right: 10%; padding-top: 11%; padding-bottom: 24%\">+</p>"	"1006"	n/a	n/a	n/a	n/a	n/a	n/a	n/a	n/a	n/a
n/a	"image-keyboard-response"	"150"	"366271"	"0.0-5.0-2.0-1.48"	"pecugg"	"600"	"1366"	"chrome"	"108.0.0"	"FALSE"	"Windows 10"	"60.83"	"129"	n/a	n/a	n/a	n/a	n/a	n/a	"Trial"	n/a	n/a	n/a	"813"	"arrowleft"	n/a	"NULL"	"NULL"	"NULL"	"stimuli/Ebbinghaus_0.61429_0.21500.png"	n/a	"Ebbinghaus"	"arrowleft"	"1024"	"TRUE"	"Ebbinghaus"	"0.6142900000"	"0.2150000000"	"1"	"67"
n/a	"html-keyboard-response"	"151"	"367501"	"0.0-5.0-2.0-0.49"	"pecugg"	"600"	"1366"	"chrome"	"108.0.0"	"FALSE"	"Windows 10"	"60.83"	"129"	n/a	n/a	n/a	n/a	n/a	n/a	"fixation"	n/a	n/a	n/a	n/a	"NULL"	n/a	"NULL"	"NULL"	"NULL"	"<p style=\"color: black; font-size: 80px; padding-left: 44%; padding-right: 33%; padding-top: 22%; padding-bottom: 39%\">+</p>"	"1227"	n/a	n/a	n/a	n/a	n/a	n/a	n/a	n/a	n/a
n/a	"image-keyboard-response"	"152"	"368319"	"0.0-5.0-2.0-1.49"	"pecugg"	"600"	"1366"	"chrome"	"108.0.0"	"FALSE"	"Windows 10"	"60.83"	"129"	n/a	n/a	n/a	n/a	n/a	n/a	"Trial"	n/a	n/a	n/a	"817"	"arrowleft"	n/a	"NULL"	"NULL"	"NULL"	"stimuli/Ebbinghaus_0.61429_0.15857.png"	n/a	"Ebbinghaus"	"arrowleft"	"1230"	"TRUE"	"Ebbinghaus"	"0.6142900000"	"0.1585700000"	"1"	"68"
n/a	"html-keyboard-response"	"153"	"369377"	"0.0-5.0-2.0-0.50"	"pecugg"	"600"	"1366"	"chrome"	"108.0.0"	"FALSE"	"Windows 10"	"60.83"	"129"	n/a	n/a	n/a	n/a	n/a	n/a	"fixation"	n/a	n/a	n/a	n/a	"NULL"	n/a	"NULL"	"NULL"	"NULL"	"<p style=\"color: black; font-size: 80px; padding-left: 34%; padding-right: 35%; padding-top: 49%; padding-bottom: 32%\">+</p>"	"1037"	n/a	n/a	n/a	n/a	n/a	n/a	n/a	n/a	n/a
n/a	"image-keyboard-response"	"154"	"370025"	"0.0-5.0-2.0-1.50"	"pecugg"	"600"	"1366"	"chrome"	"108.0.0"	"FALSE"	"Windows 10"	"60.83"	"129"	n/a	n/a	n/a	n/a	n/a	n/a	"Trial"	n/a	n/a	n/a	"647"	"arrowright"	n/a	"NULL"	"NULL"	"NULL"	"stimuli/Ebbinghaus_-0.35714_-0.11071.png"	n/a	"Ebbinghaus"	"arrowright"	"1058"	"TRUE"	"Ebbinghaus"	"-0.357140000"	"-0.110710000"	"1"	"69"
n/a	"html-keyboard-response"	"155"	"371159"	"0.0-5.0-2.0-0.51"	"pecugg"	"600"	"1366"	"chrome"	"108.0.0"	"FALSE"	"Windows 10"	"60.83"	"129"	n/a	n/a	n/a	n/a	n/a	n/a	"fixation"	n/a	n/a	n/a	n/a	"NULL"	n/a	"NULL"	"NULL"	"NULL"	"<p style=\"color: black; font-size: 80px; padding-left: 11%; padding-right: 2%; padding-top: 30%; padding-bottom: 3%\">+</p>"	"1124"	n/a	n/a	n/a	n/a	n/a	n/a	n/a	n/a	n/a
n/a	"image-keyboard-response"	"156"	"372005"	"0.0-5.0-2.0-1.51"	"pecugg"	"600"	"1366"	"chrome"	"108.0.0"	"FALSE"	"Windows 10"	"60.83"	"129"	n/a	n/a	n/a	n/a	n/a	n/a	"Trial"	n/a	n/a	n/a	"845"	"arrowright"	n/a	"NULL"	"NULL"	"NULL"	"stimuli/Ebbinghaus_0.35714_-0.11071.png"	n/a	"Ebbinghaus"	"arrowright"	"1134"	"TRUE"	"Ebbinghaus"	"0.3571400000"	"-0.110710000"	"1"	"70"
n/a	"html-keyboard-response"	"157"	"373430"	"0.0-5.0-2.0-0.52"	"pecugg"	"600"	"1366"	"chrome"	"108.0.0"	"FALSE"	"Windows 10"	"60.83"	"129"	n/a	n/a	n/a	n/a	n/a	n/a	"fixation"	n/a	n/a	n/a	n/a	"NULL"	n/a	"NULL"	"NULL"	"NULL"	"<p style=\"color: black; font-size: 80px; padding-left: 18%; padding-right: 4%; padding-top: 4%; padding-bottom: 45%\">+</p>"	"1419"	n/a	n/a	n/a	n/a	n/a	n/a	n/a	n/a	n/a
n/a	"image-keyboard-response"	"158"	"374061"	"0.0-5.0-2.0-1.52"	"pecugg"	"600"	"1366"	"chrome"	"108.0.0"	"FALSE"	"Windows 10"	"60.83"	"129"	n/a	n/a	n/a	n/a	n/a	n/a	"Trial"	n/a	n/a	n/a	"630"	"arrowleft"	n/a	"NULL"	"NULL"	"NULL"	"stimuli/Ebbinghaus_-0.1000_0.15857.png"	n/a	"Ebbinghaus"	"arrowleft"	"1425"	"TRUE"	"Ebbinghaus"	"-0.100000000"	"0.1585700000"	"1"	"71"
n/a	"html-keyboard-response"	"159"	"375078"	"0.0-5.0-2.0-0.53"	"pecugg"	"600"	"1366"	"chrome"	"108.0.0"	"FALSE"	"Windows 10"	"60.83"	"129"	n/a	n/a	n/a	n/a	n/a	n/a	"fixation"	n/a	n/a	n/a	n/a	"NULL"	n/a	"NULL"	"NULL"	"NULL"	"<p style=\"color: black; font-size: 80px; padding-left: 39%; padding-right: 21%; padding-top: 32%; padding-bottom: 3%\">+</p>"	"1006"	n/a	n/a	n/a	n/a	n/a	n/a	n/a	n/a	n/a
n/a	"image-keyboard-response"	"160"	"375693"	"0.0-5.0-2.0-1.53"	"pecugg"	"600"	"1366"	"chrome"	"108.0.0"	"FALSE"	"Windows 10"	"60.83"	"129"	n/a	n/a	n/a	n/a	n/a	n/a	"Trial"	n/a	n/a	n/a	"613"	"arrowleft"	n/a	"NULL"	"NULL"	"NULL"	"stimuli/Ebbinghaus_-0.35714_0.28000.png"	n/a	"Ebbinghaus"	"arrowleft"	"1017"	"TRUE"	"Ebbinghaus"	"-0.357140000"	"0.2800000000"	"1"	"72"
n/a	"html-keyboard-response"	"161"	"377131"	"0.0-5.0-2.0-0.54"	"pecugg"	"600"	"1366"	"chrome"	"108.0.0"	"FALSE"	"Windows 10"	"60.83"	"129"	n/a	n/a	n/a	n/a	n/a	n/a	"fixation"	n/a	n/a	n/a	n/a	"NULL"	n/a	"NULL"	"NULL"	"NULL"	"<p style=\"color: black; font-size: 80px; padding-left: 41%; padding-right: 46%; padding-top: 31%; padding-bottom: 15%\">+</p>"	"1424"	n/a	n/a	n/a	n/a	n/a	n/a	n/a	n/a	n/a
n/a	"image-keyboard-response"	"162"	"377747"	"0.0-5.0-2.0-1.54"	"pecugg"	"600"	"1366"	"chrome"	"108.0.0"	"FALSE"	"Windows 10"	"60.83"	"129"	n/a	n/a	n/a	n/a	n/a	n/a	"Trial"	n/a	n/a	n/a	"615"	"arrowleft"	n/a	"NULL"	"NULL"	"NULL"	"stimuli/Ebbinghaus_-0.1000_0.21500.png"	n/a	"Ebbinghaus"	"arrowleft"	"1438"	"TRUE"	"Ebbinghaus"	"-0.100000000"	"0.2150000000"	"1"	"73"
n/a	"html-keyboard-response"	"163"	"378765"	"0.0-5.0-2.0-0.55"	"pecugg"	"600"	"1366"	"chrome"	"108.0.0"	"FALSE"	"Windows 10"	"60.83"	"129"	n/a	n/a	n/a	n/a	n/a	n/a	"fixation"	n/a	n/a	n/a	n/a	"NULL"	n/a	"NULL"	"NULL"	"NULL"	"<p style=\"color: black; font-size: 80px; padding-left: 50%; padding-right: 19%; padding-top: 46%; padding-bottom: 19%\">+</p>"	"1016"	n/a	n/a	n/a	n/a	n/a	n/a	n/a	n/a	n/a
n/a	"image-keyboard-response"	"164"	"379768"	"0.0-5.0-2.0-1.55"	"pecugg"	"600"	"1366"	"chrome"	"108.0.0"	"FALSE"	"Windows 10"	"60.83"	"129"	n/a	n/a	n/a	n/a	n/a	n/a	"Trial"	n/a	n/a	n/a	"1001"	"arrowright"	n/a	"NULL"	"NULL"	"NULL"	"stimuli/Ebbinghaus_0.87143_-0.2150.png"	n/a	"Ebbinghaus"	"arrowright"	"1018"	"TRUE"	"Ebbinghaus"	"0.8714300000"	"-0.215000000"	"1"	"74"
n/a	"html-keyboard-response"	"165"	"381190"	"0.0-5.0-2.0-0.56"	"pecugg"	"600"	"1366"	"chrome"	"108.0.0"	"FALSE"	"Windows 10"	"60.83"	"129"	n/a	n/a	n/a	n/a	n/a	n/a	"fixation"	n/a	n/a	n/a	n/a	"NULL"	n/a	"NULL"	"NULL"	"NULL"	"<p style=\"color: black; font-size: 80px; padding-left: 13%; padding-right: 30%; padding-top: 7%; padding-bottom: 26%\">+</p>"	"1410"	n/a	n/a	n/a	n/a	n/a	n/a	n/a	n/a	n/a
n/a	"image-keyboard-response"	"166"	"382293"	"0.0-5.0-2.0-1.56"	"pecugg"	"600"	"1366"	"chrome"	"108.0.0"	"FALSE"	"Windows 10"	"60.83"	"129"	n/a	n/a	n/a	n/a	n/a	n/a	"Trial"	n/a	n/a	n/a	"1103"	"arrowright"	n/a	"NULL"	"NULL"	"NULL"	"stimuli/Ebbinghaus_-0.61429_-0.11071.png"	n/a	"Ebbinghaus"	"arrowright"	"1422"	"TRUE"	"Ebbinghaus"	"-0.614290000"	"-0.110710000"	"1"	"75"
n/a	"html-keyboard-response"	"167"	"383565"	"0.0-5.0-2.0-0.57"	"pecugg"	"600"	"1366"	"chrome"	"108.0.0"	"FALSE"	"Windows 10"	"60.83"	"129"	n/a	n/a	n/a	n/a	n/a	n/a	"fixation"	n/a	n/a	n/a	n/a	"NULL"	n/a	"NULL"	"NULL"	"NULL"	"<p style=\"color: black; font-size: 80px; padding-left: 30%; padding-right: 18%; padding-top: 48%; padding-bottom: 49%\">+</p>"	"1265"	n/a	n/a	n/a	n/a	n/a	n/a	n/a	n/a	n/a
n/a	"image-keyboard-response"	"168"	"384601"	"0.0-5.0-2.0-1.57"	"pecugg"	"600"	"1366"	"chrome"	"108.0.0"	"FALSE"	"Windows 10"	"60.83"	"129"	n/a	n/a	n/a	n/a	n/a	n/a	"Trial"	n/a	n/a	n/a	"1035"	"arrowleft"	n/a	"NULL"	"NULL"	"NULL"	"stimuli/Ebbinghaus_-0.1000_0.11071.png"	n/a	"Ebbinghaus"	"arrowleft"	"1272"	"TRUE"	"Ebbinghaus"	"-0.100000000"	"0.1107100000"	"1"	"76"
n/a	"html-keyboard-response"	"169"	"385800"	"0.0-5.0-2.0-0.58"	"pecugg"	"600"	"1366"	"chrome"	"108.0.0"	"FALSE"	"Windows 10"	"60.83"	"129"	n/a	n/a	n/a	n/a	n/a	n/a	"fixation"	n/a	n/a	n/a	n/a	"NULL"	n/a	"NULL"	"NULL"	"NULL"	"<p style=\"color: black; font-size: 80px; padding-left: 29%; padding-right: 38%; padding-top: 40%; padding-bottom: 5%\">+</p>"	"1184"	n/a	n/a	n/a	n/a	n/a	n/a	n/a	n/a	n/a
n/a	"image-keyboard-response"	"170"	"387002"	"0.0-5.0-2.0-1.58"	"pecugg"	"600"	"1366"	"chrome"	"108.0.0"	"FALSE"	"Windows 10"	"60.83"	"129"	n/a	n/a	n/a	n/a	n/a	n/a	"Trial"	n/a	n/a	n/a	"1201"	"arrowright"	n/a	"NULL"	"NULL"	"NULL"	"stimuli/Ebbinghaus_0.87143_-0.2800.png"	n/a	"Ebbinghaus"	"arrowright"	"1199"	"TRUE"	"Ebbinghaus"	"0.8714300000"	"-0.280000000"	"1"	"77"
n/a	"html-keyboard-response"	"171"	"388431"	"0.0-5.0-2.0-0.59"	"pecugg"	"600"	"1366"	"chrome"	"108.0.0"	"FALSE"	"Windows 10"	"60.83"	"129"	n/a	n/a	n/a	n/a	n/a	n/a	"fixation"	n/a	n/a	n/a	n/a	"NULL"	n/a	"NULL"	"NULL"	"NULL"	"<p style=\"color: black; font-size: 80px; padding-left: 29%; padding-right: 16%; padding-top: 24%; padding-bottom: 23%\">+</p>"	"1416"	n/a	n/a	n/a	n/a	n/a	n/a	n/a	n/a	n/a
n/a	"image-keyboard-response"	"172"	"389191"	"0.0-5.0-2.0-1.59"	"pecugg"	"600"	"1366"	"chrome"	"108.0.0"	"FALSE"	"Windows 10"	"60.83"	"129"	n/a	n/a	n/a	n/a	n/a	n/a	"Trial"	n/a	n/a	n/a	"759"	"arrowleft"	n/a	"NULL"	"NULL"	"NULL"	"stimuli/Ebbinghaus_-0.35714_0.15857.png"	n/a	"Ebbinghaus"	"arrowleft"	"1429"	"TRUE"	"Ebbinghaus"	"-0.357140000"	"0.1585700000"	"1"	"78"
n/a	"html-keyboard-response"	"173"	"390333"	"0.0-5.0-2.0-0.60"	"pecugg"	"600"	"1366"	"chrome"	"108.0.0"	"FALSE"	"Windows 10"	"60.83"	"129"	n/a	n/a	n/a	n/a	n/a	n/a	"fixation"	n/a	n/a	n/a	n/a	"NULL"	n/a	"NULL"	"NULL"	"NULL"	"<p style=\"color: black; font-size: 80px; padding-left: 10%; padding-right: 15%; padding-top: 26%; padding-bottom: 45%\">+</p>"	"1132"	n/a	n/a	n/a	n/a	n/a	n/a	n/a	n/a	n/a
n/a	"image-keyboard-response"	"174"	"391070"	"0.0-5.0-2.0-1.60"	"pecugg"	"600"	"1366"	"chrome"	"108.0.0"	"FALSE"	"Windows 10"	"60.83"	"129"	n/a	n/a	n/a	n/a	n/a	n/a	"Trial"	n/a	n/a	n/a	"730"	"arrowleft"	n/a	"NULL"	"NULL"	"NULL"	"stimuli/Ebbinghaus_-0.35714_0.21500.png"	n/a	"Ebbinghaus"	"arrowleft"	"1142"	"TRUE"	"Ebbinghaus"	"-0.357140000"	"0.2150000000"	"1"	"79"
n/a	"html-keyboard-response"	"175"	"392555"	"0.0-5.0-2.0-0.61"	"pecugg"	"600"	"1366"	"chrome"	"108.0.0"	"FALSE"	"Windows 10"	"60.83"	"129"	n/a	n/a	n/a	n/a	n/a	n/a	"fixation"	n/a	n/a	n/a	n/a	"NULL"	n/a	"NULL"	"NULL"	"NULL"	"<p style=\"color: black; font-size: 80px; padding-left: 15%; padding-right: 14%; padding-top: 39%; padding-bottom: 45%\">+</p>"	"1471"	n/a	n/a	n/a	n/a	n/a	n/a	n/a	n/a	n/a
n/a	"image-keyboard-response"	"176"	"393427"	"0.0-5.0-2.0-1.61"	"pecugg"	"600"	"1366"	"chrome"	"108.0.0"	"FALSE"	"Windows 10"	"60.83"	"129"	n/a	n/a	n/a	n/a	n/a	n/a	"Trial"	n/a	n/a	n/a	"872"	"arrowleft"	n/a	"NULL"	"NULL"	"NULL"	"stimuli/Ebbinghaus_0.61429_-0.11071.png"	n/a	"Ebbinghaus"	"arrowright"	"1485"	"FALSE"	"Ebbinghaus"	"0.6142900000"	"-0.110710000"	"1"	"80"
n/a	"html-keyboard-response"	"177"	"394550"	"0.0-5.0-2.0-0.62"	"pecugg"	"600"	"1366"	"chrome"	"108.0.0"	"FALSE"	"Windows 10"	"60.83"	"129"	n/a	n/a	n/a	n/a	n/a	n/a	"fixation"	n/a	n/a	n/a	n/a	"NULL"	n/a	"NULL"	"NULL"	"NULL"	"<p style=\"color: black; font-size: 80px; padding-left: 21%; padding-right: 4%; padding-top: 20%; padding-bottom: 27%\">+</p>"	"1105"	n/a	n/a	n/a	n/a	n/a	n/a	n/a	n/a	n/a
n/a	"image-keyboard-response"	"178"	"395710"	"0.0-5.0-2.0-1.62"	"pecugg"	"600"	"1366"	"chrome"	"108.0.0"	"FALSE"	"Windows 10"	"60.83"	"129"	n/a	n/a	n/a	n/a	n/a	n/a	"Trial"	n/a	n/a	n/a	"1159"	"arrowright"	n/a	"NULL"	"NULL"	"NULL"	"stimuli/Ebbinghaus_0.10000_-0.11071.png"	n/a	"Ebbinghaus"	"arrowright"	"1123"	"TRUE"	"Ebbinghaus"	"0.1000000000"	"-0.110710000"	"1"	"81"
n/a	"html-keyboard-response"	"179"	"397063"	"0.0-5.0-2.0-0.63"	"pecugg"	"600"	"1366"	"chrome"	"108.0.0"	"FALSE"	"Windows 10"	"60.83"	"129"	n/a	n/a	n/a	n/a	n/a	n/a	"fixation"	n/a	n/a	n/a	n/a	"NULL"	n/a	"NULL"	"NULL"	"NULL"	"<p style=\"color: black; font-size: 80px; padding-left: 17%; padding-right: 14%; padding-top: 14%; padding-bottom: 45%\">+</p>"	"1345"	n/a	n/a	n/a	n/a	n/a	n/a	n/a	n/a	n/a
n/a	"image-keyboard-response"	"180"	"397705"	"0.0-5.0-2.0-1.63"	"pecugg"	"600"	"1366"	"chrome"	"108.0.0"	"FALSE"	"Windows 10"	"60.83"	"129"	n/a	n/a	n/a	n/a	n/a	n/a	"Trial"	n/a	n/a	n/a	"641"	"arrowleft"	n/a	"NULL"	"NULL"	"NULL"	"stimuli/Ebbinghaus_0.35714_0.21500.png"	n/a	"Ebbinghaus"	"arrowleft"	"1353"	"TRUE"	"Ebbinghaus"	"0.3571400000"	"0.2150000000"	"1"	"82"
n/a	"html-button-response"	"181"	"422056"	"0.0-5.0-3.0"	"pecugg"	"600"	"1366"	"chrome"	"108.0.0"	"FALSE"	"Windows 10"	"60.83"	"129"	n/a	n/a	n/a	n/a	n/a	n/a	"block_results"	n/a	n/a	n/a	"24348"	"0"	n/a	"NULL"	"NULL"	"NULL"	"<p>Your score for this illusion is <p style=\"color: black; font-size: 48px; font-weight: bold;\">74.7 %</p><hr><p>Can you do better in the next illusion?</p>"	n/a	n/a	n/a	n/a	n/a	n/a	n/a	n/a	n/a	n/a
"TRUE"	"preload"	"182"	"422240"	"0.0-6.0-0.0"	"pecugg"	"600"	"1366"	"chrome"	"108.0.0"	"FALSE"	"Windows 10"	"60.83"	"129"	n/a	n/a	n/a	n/a	n/a	n/a	n/a	n/a	n/a	n/a	n/a	"NULL"	"FALSE"	"list()"	"list()"	"list()"	n/a	n/a	n/a	n/a	n/a	n/a	n/a	n/a	n/a	n/a	n/a
n/a	"html-keyboard-response"	"183"	"425569"	"0.0-6.0-1.0"	"pecugg"	"600"	"1366"	"chrome"	"108.0.0"	"FALSE"	"Windows 10"	"60.83"	"129"	n/a	n/a	n/a	n/a	n/a	n/a	n/a	n/a	n/a	n/a	"3328"	"enter"	n/a	"NULL"	"NULL"	"NULL"	"<p><b>Part 2/6</b></p><p>In this part, two horizontal red lines will appear one above the other.</p><p>Your task is to select which <b>line is longer</b> in length as fast as you can, without making errors.</p><p>Don't get distracted by the surrounding black arrows at the end of the red lines!</p><p>Press <b>the UP or the DOWN arrow</b> to indicate where is the longer <b>red line.</b></p><div style='float: center'><img src='materials/instructions/MullerLyer_Demo.png' height='300'></img><p><img src='utils/answer/answer_updown_keyboard.PNG' height='150'></img></p><p class='small'>In this example, the correct answer is the <b>UP arrow</b>.</p></div><p>Are you ready? <b>Press ENTER to start</b></p>"	n/a	n/a	n/a	n/a	n/a	n/a	n/a	n/a	n/a	n/a
n/a	"html-keyboard-response"	"184"	"427456"	"0.0-6.0-2.0-0.0"	"pecugg"	"600"	"1366"	"chrome"	"108.0.0"	"FALSE"	"Windows 10"	"60.83"	"129"	n/a	n/a	n/a	n/a	n/a	n/a	"fixation"	n/a	n/a	n/a	n/a	"NULL"	n/a	"NULL"	"NULL"	"NULL"	"<p style=\"color: black; font-size: 80px; padding-left: 41%; padding-right: 39%; padding-top: 12%; padding-bottom: 27%\">+</p>"	"1363"	n/a	n/a	n/a	n/a	n/a	n/a	n/a	n/a	n/a
n/a	"image-keyboard-response"	"185"	"428256"	"0.0-6.0-2.0-1.0"	"pecugg"	"600"	"1366"	"chrome"	"108.0.0"	"FALSE"	"Windows 10"	"60.83"	"129"	n/a	n/a	n/a	n/a	n/a	n/a	"Trial"	n/a	n/a	n/a	"800"	"arrowup"	n/a	"NULL"	"NULL"	"NULL"	"stimuli/MullerLyer_-8.21429_0.14541.png"	n/a	"MullerLyer"	"arrowup"	"1887"	"TRUE"	"MullerLyer"	"-8.214290000"	"0.1454100000"	"2"	"1"
n/a	"html-keyboard-response"	"186"	"429675"	"0.0-6.0-2.0-0.1"	"pecugg"	"600"	"1366"	"chrome"	"108.0.0"	"FALSE"	"Windows 10"	"60.83"	"129"	n/a	n/a	n/a	n/a	n/a	n/a	"fixation"	n/a	n/a	n/a	n/a	"NULL"	n/a	"NULL"	"NULL"	"NULL"	"<p style=\"color: black; font-size: 80px; padding-left: 27%; padding-right: 48%; padding-top: 39%; padding-bottom: 14%\">+</p>"	"1407"	n/a	n/a	n/a	n/a	n/a	n/a	n/a	n/a	n/a
n/a	"image-keyboard-response"	"187"	"430661"	"0.0-6.0-2.0-1.1"	"pecugg"	"600"	"1366"	"chrome"	"108.0.0"	"FALSE"	"Windows 10"	"60.83"	"129"	n/a	n/a	n/a	n/a	n/a	n/a	"Trial"	n/a	n/a	n/a	"986"	"arrowup"	n/a	"NULL"	"NULL"	"NULL"	"stimuli/MullerLyer_20.04286_0.14541.png"	n/a	"MullerLyer"	"arrowup"	"1419"	"TRUE"	"MullerLyer"	"20.042860000"	"0.1454100000"	"2"	"2"
n/a	"html-keyboard-response"	"188"	"431847"	"0.0-6.0-2.0-0.2"	"pecugg"	"600"	"1366"	"chrome"	"108.0.0"	"FALSE"	"Windows 10"	"60.83"	"129"	n/a	n/a	n/a	n/a	n/a	n/a	"fixation"	n/a	n/a	n/a	n/a	"NULL"	n/a	"NULL"	"NULL"	"NULL"	"<p style=\"color: black; font-size: 80px; padding-left: 8%; padding-right: 7%; padding-top: 13%; padding-bottom: 22%\">+</p>"	"1172"	n/a	n/a	n/a	n/a	n/a	n/a	n/a	n/a	n/a
n/a	"image-keyboard-response"	"189"	"433142"	"0.0-6.0-2.0-1.2"	"pecugg"	"600"	"1366"	"chrome"	"108.0.0"	"FALSE"	"Windows 10"	"60.83"	"129"	n/a	n/a	n/a	n/a	n/a	n/a	"Trial"	n/a	n/a	n/a	"1294"	"arrowdown"	n/a	"NULL"	"NULL"	"NULL"	"stimuli/MullerLyer_2.30000_-0.07627.png"	n/a	"MullerLyer"	"arrowdown"	"1186"	"TRUE"	"MullerLyer"	"2.3000000000"	"-0.076270000"	"2"	"3"
n/a	"html-keyboard-response"	"190"	"434649"	"0.0-6.0-2.0-0.3"	"pecugg"	"600"	"1366"	"chrome"	"108.0.0"	"FALSE"	"Windows 10"	"60.83"	"129"	n/a	n/a	n/a	n/a	n/a	n/a	"fixation"	n/a	n/a	n/a	n/a	"NULL"	n/a	"NULL"	"NULL"	"NULL"	"<p style=\"color: black; font-size: 80px; padding-left: 38%; padding-right: 26%; padding-top: 7%; padding-bottom: 44%\">+</p>"	"1492"	n/a	n/a	n/a	n/a	n/a	n/a	n/a	n/a	n/a
n/a	"image-keyboard-response"	"191"	"435246"	"0.0-6.0-2.0-1.3"	"pecugg"	"600"	"1366"	"chrome"	"108.0.0"	"FALSE"	"Windows 10"	"60.83"	"129"	n/a	n/a	n/a	n/a	n/a	n/a	"Trial"	n/a	n/a	n/a	"596"	"arrowup"	n/a	"NULL"	"NULL"	"NULL"	"stimuli/MullerLyer_-14.12857_0.14541.png"	n/a	"MullerLyer"	"arrowup"	"1507"	"TRUE"	"MullerLyer"	"-14.12857000"	"0.1454100000"	"2"	"4"
n/a	"html-keyboard-response"	"192"	"436296"	"0.0-6.0-2.0-0.4"	"pecugg"	"600"	"1366"	"chrome"	"108.0.0"	"FALSE"	"Windows 10"	"60.83"	"129"	n/a	n/a	n/a	n/a	n/a	n/a	"fixation"	n/a	n/a	n/a	n/a	"NULL"	n/a	"NULL"	"NULL"	"NULL"	"<p style=\"color: black; font-size: 80px; padding-left: 24%; padding-right: 9%; padding-top: 20%; padding-bottom: 23%\">+</p>"	"1033"	n/a	n/a	n/a	n/a	n/a	n/a	n/a	n/a	n/a
n/a	"image-keyboard-response"	"193"	"436945"	"0.0-6.0-2.0-1.4"	"pecugg"	"600"	"1366"	"chrome"	"108.0.0"	"FALSE"	"Windows 10"	"60.83"	"129"	n/a	n/a	n/a	n/a	n/a	n/a	"Trial"	n/a	n/a	n/a	"648"	"arrowdown"	n/a	"NULL"	"NULL"	"NULL"	"stimuli/MullerLyer_-20.04286_-0.3500.png"	n/a	"MullerLyer"	"arrowdown"	"1050"	"TRUE"	"MullerLyer"	"-20.04286000"	"-0.350000000"	"2"	"5"
n/a	"html-keyboard-response"	"194"	"438159"	"0.0-6.0-2.0-0.5"	"pecugg"	"600"	"1366"	"chrome"	"108.0.0"	"FALSE"	"Windows 10"	"60.83"	"129"	n/a	n/a	n/a	n/a	n/a	n/a	"fixation"	n/a	n/a	n/a	n/a	"NULL"	n/a	"NULL"	"NULL"	"NULL"	"<p style=\"color: black; font-size: 80px; padding-left: 12%; padding-right: 16%; padding-top: 49%; padding-bottom: 34%\">+</p>"	"1194"	n/a	n/a	n/a	n/a	n/a	n/a	n/a	n/a	n/a
n/a	"image-keyboard-response"	"195"	"438852"	"0.0-6.0-2.0-1.5"	"pecugg"	"600"	"1366"	"chrome"	"108.0.0"	"FALSE"	"Windows 10"	"60.83"	"129"	n/a	n/a	n/a	n/a	n/a	n/a	"Trial"	n/a	n/a	n/a	"693"	"arrowdown"	n/a	"NULL"	"NULL"	"NULL"	"stimuli/MullerLyer_-8.21429_-0.07627.png"	n/a	"MullerLyer"	"arrowdown"	"1214"	"TRUE"	"MullerLyer"	"-8.214290000"	"-0.076270000"	"2"	"6"
n/a	"html-keyboard-response"	"196"	"440251"	"0.0-6.0-2.0-0.6"	"pecugg"	"600"	"1366"	"chrome"	"108.0.0"	"FALSE"	"Windows 10"	"60.83"	"129"	n/a	n/a	n/a	n/a	n/a	n/a	"fixation"	n/a	n/a	n/a	n/a	"NULL"	n/a	"NULL"	"NULL"	"NULL"	"<p style=\"color: black; font-size: 80px; padding-left: 12%; padding-right: 5%; padding-top: 28%; padding-bottom: 12%\">+</p>"	"1382"	n/a	n/a	n/a	n/a	n/a	n/a	n/a	n/a	n/a
n/a	"image-keyboard-response"	"197"	"441010"	"0.0-6.0-2.0-1.6"	"pecugg"	"600"	"1366"	"chrome"	"108.0.0"	"FALSE"	"Windows 10"	"60.83"	"129"	n/a	n/a	n/a	n/a	n/a	n/a	"Trial"	n/a	n/a	n/a	"757"	"arrowdown"	n/a	"NULL"	"NULL"	"NULL"	"stimuli/MullerLyer_-20.04286_-0.07627.png"	n/a	"MullerLyer"	"arrowdown"	"1399"	"TRUE"	"MullerLyer"	"-20.04286000"	"-0.076270000"	"2"	"7"
n/a	"html-keyboard-response"	"198"	"442022"	"0.0-6.0-2.0-0.7"	"pecugg"	"600"	"1366"	"chrome"	"108.0.0"	"FALSE"	"Windows 10"	"60.83"	"129"	n/a	n/a	n/a	n/a	n/a	n/a	"fixation"	n/a	n/a	n/a	n/a	"NULL"	n/a	"NULL"	"NULL"	"NULL"	"<p style=\"color: black; font-size: 80px; padding-left: 6%; padding-right: 45%; padding-top: 18%; padding-bottom: 9%\">+</p>"	"1007"	n/a	n/a	n/a	n/a	n/a	n/a	n/a	n/a	n/a
n/a	"image-keyboard-response"	"199"	"442964"	"0.0-6.0-2.0-1.7"	"pecugg"	"600"	"1366"	"chrome"	"108.0.0"	"FALSE"	"Windows 10"	"60.83"	"129"	n/a	n/a	n/a	n/a	n/a	n/a	"Trial"	n/a	n/a	n/a	"942"	"arrowdown"	n/a	"NULL"	"NULL"	"NULL"	"stimuli/MullerLyer_2.30000_0.07627.png"	n/a	"MullerLyer"	"arrowup"	"1012"	"FALSE"	"MullerLyer"	"2.3000000000"	"0.0762700000"	"2"	"8"
n/a	"html-keyboard-response"	"200"	"444461"	"0.0-6.0-2.0-0.8"	"pecugg"	"600"	"1366"	"chrome"	"108.0.0"	"FALSE"	"Windows 10"	"60.83"	"129"	n/a	n/a	n/a	n/a	n/a	n/a	"fixation"	n/a	n/a	n/a	n/a	"NULL"	n/a	"NULL"	"NULL"	"NULL"	"<p style=\"color: black; font-size: 80px; padding-left: 8%; padding-right: 15%; padding-top: 29%; padding-bottom: 8%\">+</p>"	"1489"	n/a	n/a	n/a	n/a	n/a	n/a	n/a	n/a	n/a
n/a	"image-keyboard-response"	"201"	"445191"	"0.0-6.0-2.0-1.8"	"pecugg"	"600"	"1366"	"chrome"	"108.0.0"	"FALSE"	"Windows 10"	"60.83"	"129"	n/a	n/a	n/a	n/a	n/a	n/a	"Trial"	n/a	n/a	n/a	"728"	"arrowdown"	n/a	"NULL"	"NULL"	"NULL"	"stimuli/MullerLyer_8.21429_-0.3500.png"	n/a	"MullerLyer"	"arrowdown"	"1497"	"TRUE"	"MullerLyer"	"8.2142900000"	"-0.350000000"	"2"	"9"
n/a	"html-keyboard-response"	"202"	"446237"	"0.0-6.0-2.0-0.9"	"pecugg"	"600"	"1366"	"chrome"	"108.0.0"	"FALSE"	"Windows 10"	"60.83"	"129"	n/a	n/a	n/a	n/a	n/a	n/a	"fixation"	n/a	n/a	n/a	n/a	"NULL"	n/a	"NULL"	"NULL"	"NULL"	"<p style=\"color: black; font-size: 80px; padding-left: 14%; padding-right: 17%; padding-top: 49%; padding-bottom: 1%\">+</p>"	"1029"	n/a	n/a	n/a	n/a	n/a	n/a	n/a	n/a	n/a
n/a	"image-keyboard-response"	"203"	"446815"	"0.0-6.0-2.0-1.9"	"pecugg"	"600"	"1366"	"chrome"	"108.0.0"	"FALSE"	"Windows 10"	"60.83"	"129"	n/a	n/a	n/a	n/a	n/a	n/a	"Trial"	n/a	n/a	n/a	"577"	"arrowdown"	n/a	"NULL"	"NULL"	"NULL"	"stimuli/MullerLyer_-8.21429_-0.3500.png"	n/a	"MullerLyer"	"arrowdown"	"1046"	"TRUE"	"MullerLyer"	"-8.214290000"	"-0.350000000"	"2"	"10"
n/a	"html-keyboard-response"	"204"	"447978"	"0.0-6.0-2.0-0.10"	"pecugg"	"600"	"1366"	"chrome"	"108.0.0"	"FALSE"	"Windows 10"	"60.83"	"129"	n/a	n/a	n/a	n/a	n/a	n/a	"fixation"	n/a	n/a	n/a	n/a	"NULL"	n/a	"NULL"	"NULL"	"NULL"	"<p style=\"color: black; font-size: 80px; padding-left: 9%; padding-right: 0%; padding-top: 32%; padding-bottom: 23%\">+</p>"	"1155"	n/a	n/a	n/a	n/a	n/a	n/a	n/a	n/a	n/a
n/a	"image-keyboard-response"	"205"	"448490"	"0.0-6.0-2.0-1.10"	"pecugg"	"600"	"1366"	"chrome"	"108.0.0"	"FALSE"	"Windows 10"	"60.83"	"129"	n/a	n/a	n/a	n/a	n/a	n/a	"Trial"	n/a	n/a	n/a	"511"	"arrowdown"	n/a	"NULL"	"NULL"	"NULL"	"stimuli/MullerLyer_20.04286_0.07627.png"	n/a	"MullerLyer"	"arrowup"	"1163"	"FALSE"	"MullerLyer"	"20.042860000"	"0.0762700000"	"2"	"11"
n/a	"html-keyboard-response"	"206"	"449598"	"0.0-6.0-2.0-0.11"	"pecugg"	"600"	"1366"	"chrome"	"108.0.0"	"FALSE"	"Windows 10"	"60.83"	"129"	n/a	n/a	n/a	n/a	n/a	n/a	"fixation"	n/a	n/a	n/a	n/a	"NULL"	n/a	"NULL"	"NULL"	"NULL"	"<p style=\"color: black; font-size: 80px; padding-left: 25%; padding-right: 15%; padding-top: 1%; padding-bottom: 8%\">+</p>"	"1103"	n/a	n/a	n/a	n/a	n/a	n/a	n/a	n/a	n/a
n/a	"image-keyboard-response"	"207"	"450110"	"0.0-6.0-2.0-1.11"	"pecugg"	"600"	"1366"	"chrome"	"108.0.0"	"FALSE"	"Windows 10"	"60.83"	"129"	n/a	n/a	n/a	n/a	n/a	n/a	"Trial"	n/a	n/a	n/a	"509"	"arrowup"	n/a	"NULL"	"NULL"	"NULL"	"stimuli/MullerLyer_-8.21429_0.23665.png"	n/a	"MullerLyer"	"arrowup"	"1108"	"TRUE"	"MullerLyer"	"-8.214290000"	"0.2366500000"	"2"	"12"
n/a	"html-keyboard-response"	"208"	"451196"	"0.0-6.0-2.0-0.12"	"pecugg"	"600"	"1366"	"chrome"	"108.0.0"	"FALSE"	"Windows 10"	"60.83"	"129"	n/a	n/a	n/a	n/a	n/a	n/a	"fixation"	n/a	n/a	n/a	n/a	"NULL"	n/a	"NULL"	"NULL"	"NULL"	"<p style=\"color: black; font-size: 80px; padding-left: 30%; padding-right: 19%; padding-top: 42%; padding-bottom: 21%\">+</p>"	"1077"	n/a	n/a	n/a	n/a	n/a	n/a	n/a	n/a	n/a
n/a	"image-keyboard-response"	"209"	"451669"	"0.0-6.0-2.0-1.12"	"pecugg"	"600"	"1366"	"chrome"	"108.0.0"	"FALSE"	"Windows 10"	"60.83"	"129"	n/a	n/a	n/a	n/a	n/a	n/a	"Trial"	n/a	n/a	n/a	"472"	"arrowup"	n/a	"NULL"	"NULL"	"NULL"	"stimuli/MullerLyer_-20.04286_0.07627.png"	n/a	"MullerLyer"	"arrowup"	"1086"	"TRUE"	"MullerLyer"	"-20.04286000"	"0.0762700000"	"2"	"13"
n/a	"html-keyboard-response"	"210"	"453144"	"0.0-6.0-2.0-0.13"	"pecugg"	"600"	"1366"	"chrome"	"108.0.0"	"FALSE"	"Windows 10"	"60.83"	"129"	n/a	n/a	n/a	n/a	n/a	n/a	"fixation"	n/a	n/a	n/a	n/a	"NULL"	n/a	"NULL"	"NULL"	"NULL"	"<p style=\"color: black; font-size: 80px; padding-left: 42%; padding-right: 8%; padding-top: 38%; padding-bottom: 33%\">+</p>"	"1466"	n/a	n/a	n/a	n/a	n/a	n/a	n/a	n/a	n/a
n/a	"image-keyboard-response"	"211"	"453725"	"0.0-6.0-2.0-1.13"	"pecugg"	"600"	"1366"	"chrome"	"108.0.0"	"FALSE"	"Windows 10"	"60.83"	"129"	n/a	n/a	n/a	n/a	n/a	n/a	"Trial"	n/a	n/a	n/a	"580"	"arrowdown"	n/a	"NULL"	"NULL"	"NULL"	"stimuli/MullerLyer_14.12857_-0.3500.png"	n/a	"MullerLyer"	"arrowdown"	"1475"	"TRUE"	"MullerLyer"	"14.128570000"	"-0.350000000"	"2"	"14"
n/a	"html-keyboard-response"	"212"	"455001"	"0.0-6.0-2.0-0.14"	"pecugg"	"600"	"1366"	"chrome"	"108.0.0"	"FALSE"	"Windows 10"	"60.83"	"129"	n/a	n/a	n/a	n/a	n/a	n/a	"fixation"	n/a	n/a	n/a	n/a	"NULL"	n/a	"NULL"	"NULL"	"NULL"	"<p style=\"color: black; font-size: 80px; padding-left: 9%; padding-right: 38%; padding-top: 8%; padding-bottom: 39%\">+</p>"	"1260"	n/a	n/a	n/a	n/a	n/a	n/a	n/a	n/a	n/a
n/a	"image-keyboard-response"	"213"	"455541"	"0.0-6.0-2.0-1.14"	"pecugg"	"600"	"1366"	"chrome"	"108.0.0"	"FALSE"	"Windows 10"	"60.83"	"129"	n/a	n/a	n/a	n/a	n/a	n/a	"Trial"	n/a	n/a	n/a	"539"	"arrowdown"	n/a	"NULL"	"NULL"	"NULL"	"stimuli/MullerLyer_-2.3000_-0.14541.png"	n/a	"MullerLyer"	"arrowdown"	"1276"	"TRUE"	"MullerLyer"	"-2.300000000"	"-0.145410000"	"2"	"15"
n/a	"html-keyboard-response"	"214"	"456690"	"0.0-6.0-2.0-0.15"	"pecugg"	"600"	"1366"	"chrome"	"108.0.0"	"FALSE"	"Windows 10"	"60.83"	"129"	n/a	n/a	n/a	n/a	n/a	n/a	"fixation"	n/a	n/a	n/a	n/a	"NULL"	n/a	"NULL"	"NULL"	"NULL"	"<p style=\"color: black; font-size: 80px; padding-left: 2%; padding-right: 37%; padding-top: 25%; padding-bottom: 29%\">+</p>"	"1127"	n/a	n/a	n/a	n/a	n/a	n/a	n/a	n/a	n/a
n/a	"image-keyboard-response"	"215"	"457159"	"0.0-6.0-2.0-1.15"	"pecugg"	"600"	"1366"	"chrome"	"108.0.0"	"FALSE"	"Windows 10"	"60.83"	"129"	n/a	n/a	n/a	n/a	n/a	n/a	"Trial"	n/a	n/a	n/a	"468"	"arrowup"	n/a	"NULL"	"NULL"	"NULL"	"stimuli/MullerLyer_-20.04286_0.14541.png"	n/a	"MullerLyer"	"arrowup"	"1149"	"TRUE"	"MullerLyer"	"-20.04286000"	"0.1454100000"	"2"	"16"
n/a	"html-keyboard-response"	"216"	"458545"	"0.0-6.0-2.0-0.16"	"pecugg"	"600"	"1366"	"chrome"	"108.0.0"	"FALSE"	"Windows 10"	"60.83"	"129"	n/a	n/a	n/a	n/a	n/a	n/a	"fixation"	n/a	n/a	n/a	n/a	"NULL"	n/a	"NULL"	"NULL"	"NULL"	"<p style=\"color: black; font-size: 80px; padding-left: 0%; padding-right: 35%; padding-top: 13%; padding-bottom: 31%\">+</p>"	"1379"	n/a	n/a	n/a	n/a	n/a	n/a	n/a	n/a	n/a
n/a	"image-keyboard-response"	"217"	"459027"	"0.0-6.0-2.0-1.16"	"pecugg"	"600"	"1366"	"chrome"	"108.0.0"	"FALSE"	"Windows 10"	"60.83"	"129"	n/a	n/a	n/a	n/a	n/a	n/a	"Trial"	n/a	n/a	n/a	"481"	"arrowdown"	n/a	"NULL"	"NULL"	"NULL"	"stimuli/MullerLyer_14.12857_0.07627.png"	n/a	"MullerLyer"	"arrowup"	"1386"	"FALSE"	"MullerLyer"	"14.128570000"	"0.0762700000"	"2"	"17"
n/a	"html-keyboard-response"	"218"	"460254"	"0.0-6.0-2.0-0.17"	"pecugg"	"600"	"1366"	"chrome"	"108.0.0"	"FALSE"	"Windows 10"	"60.83"	"129"	n/a	n/a	n/a	n/a	n/a	n/a	"fixation"	n/a	n/a	n/a	n/a	"NULL"	n/a	"NULL"	"NULL"	"NULL"	"<p style=\"color: black; font-size: 80px; padding-left: 43%; padding-right: 14%; padding-top: 37%; padding-bottom: 5%\">+</p>"	"1220"	n/a	n/a	n/a	n/a	n/a	n/a	n/a	n/a	n/a
n/a	"image-keyboard-response"	"219"	"460770"	"0.0-6.0-2.0-1.17"	"pecugg"	"600"	"1366"	"chrome"	"108.0.0"	"FALSE"	"Windows 10"	"60.83"	"129"	n/a	n/a	n/a	n/a	n/a	n/a	"Trial"	n/a	n/a	n/a	"515"	"arrowup"	n/a	"NULL"	"NULL"	"NULL"	"stimuli/MullerLyer_14.12857_-0.07627.png"	n/a	"MullerLyer"	"arrowdown"	"1227"	"FALSE"	"MullerLyer"	"14.128570000"	"-0.076270000"	"2"	"18"
n/a	"html-keyboard-response"	"220"	"462218"	"0.0-6.0-2.0-0.18"	"pecugg"	"600"	"1366"	"chrome"	"108.0.0"	"FALSE"	"Windows 10"	"60.83"	"129"	n/a	n/a	n/a	n/a	n/a	n/a	"fixation"	n/a	n/a	n/a	n/a	"NULL"	n/a	"NULL"	"NULL"	"NULL"	"<p style=\"color: black; font-size: 80px; padding-left: 23%; padding-right: 27%; padding-top: 12%; padding-bottom: 19%\">+</p>"	"1427"	n/a	n/a	n/a	n/a	n/a	n/a	n/a	n/a	n/a
n/a	"image-keyboard-response"	"221"	"462741"	"0.0-6.0-2.0-1.18"	"pecugg"	"600"	"1366"	"chrome"	"108.0.0"	"FALSE"	"Windows 10"	"60.83"	"129"	n/a	n/a	n/a	n/a	n/a	n/a	"Trial"	n/a	n/a	n/a	"523"	"arrowup"	n/a	"NULL"	"NULL"	"NULL"	"stimuli/MullerLyer_-14.12857_0.23665.png"	n/a	"MullerLyer"	"arrowup"	"1448"	"TRUE"	"MullerLyer"	"-14.12857000"	"0.2366500000"	"2"	"19"
n/a	"html-keyboard-response"	"222"	"463863"	"0.0-6.0-2.0-0.19"	"pecugg"	"600"	"1366"	"chrome"	"108.0.0"	"FALSE"	"Windows 10"	"60.83"	"129"	n/a	n/a	n/a	n/a	n/a	n/a	"fixation"	n/a	n/a	n/a	n/a	"NULL"	n/a	"NULL"	"NULL"	"NULL"	"<p style=\"color: black; font-size: 80px; padding-left: 2%; padding-right: 6%; padding-top: 19%; padding-bottom: 49%\">+</p>"	"1113"	n/a	n/a	n/a	n/a	n/a	n/a	n/a	n/a	n/a
n/a	"image-keyboard-response"	"223"	"464283"	"0.0-6.0-2.0-1.19"	"pecugg"	"600"	"1366"	"chrome"	"108.0.0"	"FALSE"	"Windows 10"	"60.83"	"129"	n/a	n/a	n/a	n/a	n/a	n/a	"Trial"	n/a	n/a	n/a	"420"	"arrowup"	n/a	"NULL"	"NULL"	"NULL"	"stimuli/MullerLyer_-14.12857_0.07627.png"	n/a	"MullerLyer"	"arrowup"	"1122"	"TRUE"	"MullerLyer"	"-14.12857000"	"0.0762700000"	"2"	"20"
n/a	"html-keyboard-response"	"224"	"465473"	"0.0-6.0-2.0-0.20"	"pecugg"	"600"	"1366"	"chrome"	"108.0.0"	"FALSE"	"Windows 10"	"60.83"	"129"	n/a	n/a	n/a	n/a	n/a	n/a	"fixation"	n/a	n/a	n/a	n/a	"NULL"	n/a	"NULL"	"NULL"	"NULL"	"<p style=\"color: black; font-size: 80px; padding-left: 39%; padding-right: 21%; padding-top: 6%; padding-bottom: 20%\">+</p>"	"1169"	n/a	n/a	n/a	n/a	n/a	n/a	n/a	n/a	n/a
n/a	"image-keyboard-response"	"225"	"466263"	"0.0-6.0-2.0-1.20"	"pecugg"	"600"	"1366"	"chrome"	"108.0.0"	"FALSE"	"Windows 10"	"60.83"	"129"	n/a	n/a	n/a	n/a	n/a	n/a	"Trial"	n/a	n/a	n/a	"789"	"arrowup"	n/a	"NULL"	"NULL"	"NULL"	"stimuli/MullerLyer_-2.3000_0.07627.png"	n/a	"MullerLyer"	"arrowup"	"1190"	"TRUE"	"MullerLyer"	"-2.300000000"	"0.0762700000"	"2"	"21"
n/a	"html-keyboard-response"	"226"	"467546"	"0.0-6.0-2.0-0.21"	"pecugg"	"600"	"1366"	"chrome"	"108.0.0"	"FALSE"	"Windows 10"	"60.83"	"129"	n/a	n/a	n/a	n/a	n/a	n/a	"fixation"	n/a	n/a	n/a	n/a	"NULL"	n/a	"NULL"	"NULL"	"NULL"	"<p style=\"color: black; font-size: 80px; padding-left: 5%; padding-right: 40%; padding-top: 36%; padding-bottom: 6%\">+</p>"	"1260"	n/a	n/a	n/a	n/a	n/a	n/a	n/a	n/a	n/a
n/a	"image-keyboard-response"	"227"	"467993"	"0.0-6.0-2.0-1.21"	"pecugg"	"600"	"1366"	"chrome"	"108.0.0"	"FALSE"	"Windows 10"	"60.83"	"129"	n/a	n/a	n/a	n/a	n/a	n/a	"Trial"	n/a	n/a	n/a	"446"	"arrowup"	n/a	"NULL"	"NULL"	"NULL"	"stimuli/MullerLyer_-20.04286_0.35000.png"	n/a	"MullerLyer"	"arrowup"	"1283"	"TRUE"	"MullerLyer"	"-20.04286000"	"0.3500000000"	"2"	"22"
n/a	"html-keyboard-response"	"228"	"469206"	"0.0-6.0-2.0-0.22"	"pecugg"	"600"	"1366"	"chrome"	"108.0.0"	"FALSE"	"Windows 10"	"60.83"	"129"	n/a	n/a	n/a	n/a	n/a	n/a	"fixation"	n/a	n/a	n/a	n/a	"NULL"	n/a	"NULL"	"NULL"	"NULL"	"<p style=\"color: black; font-size: 80px; padding-left: 27%; padding-right: 24%; padding-top: 23%; padding-bottom: 3%\">+</p>"	"1196"	n/a	n/a	n/a	n/a	n/a	n/a	n/a	n/a	n/a
n/a	"image-keyboard-response"	"229"	"469829"	"0.0-6.0-2.0-1.22"	"pecugg"	"600"	"1366"	"chrome"	"108.0.0"	"FALSE"	"Windows 10"	"60.83"	"129"	n/a	n/a	n/a	n/a	n/a	n/a	"Trial"	n/a	n/a	n/a	"623"	"arrowdown"	n/a	"NULL"	"NULL"	"NULL"	"stimuli/MullerLyer_8.21429_0.23665.png"	n/a	"MullerLyer"	"arrowup"	"1213"	"FALSE"	"MullerLyer"	"8.2142900000"	"0.2366500000"	"2"	"23"
n/a	"html-keyboard-response"	"230"	"470924"	"0.0-6.0-2.0-0.23"	"pecugg"	"600"	"1366"	"chrome"	"108.0.0"	"FALSE"	"Windows 10"	"60.83"	"129"	n/a	n/a	n/a	n/a	n/a	n/a	"fixation"	n/a	n/a	n/a	n/a	"NULL"	n/a	"NULL"	"NULL"	"NULL"	"<p style=\"color: black; font-size: 80px; padding-left: 23%; padding-right: 39%; padding-top: 42%; padding-bottom: 49%\">+</p>"	"1078"	n/a	n/a	n/a	n/a	n/a	n/a	n/a	n/a	n/a
n/a	"image-keyboard-response"	"231"	"471443"	"0.0-6.0-2.0-1.23"	"pecugg"	"600"	"1366"	"chrome"	"108.0.0"	"FALSE"	"Windows 10"	"60.83"	"129"	n/a	n/a	n/a	n/a	n/a	n/a	"Trial"	n/a	n/a	n/a	"518"	"arrowdown"	n/a	"NULL"	"NULL"	"NULL"	"stimuli/MullerLyer_-2.3000_-0.3500.png"	n/a	"MullerLyer"	"arrowdown"	"1095"	"TRUE"	"MullerLyer"	"-2.300000000"	"-0.350000000"	"2"	"24"
n/a	"html-keyboard-response"	"232"	"472581"	"0.0-6.0-2.0-0.24"	"pecugg"	"600"	"1366"	"chrome"	"108.0.0"	"FALSE"	"Windows 10"	"60.83"	"129"	n/a	n/a	n/a	n/a	n/a	n/a	"fixation"	n/a	n/a	n/a	n/a	"NULL"	n/a	"NULL"	"NULL"	"NULL"	"<p style=\"color: black; font-size: 80px; padding-left: 12%; padding-right: 3%; padding-top: 14%; padding-bottom: 16%\">+</p>"	"1122"	n/a	n/a	n/a	n/a	n/a	n/a	n/a	n/a	n/a
n/a	"image-keyboard-response"	"233"	"473250"	"0.0-6.0-2.0-1.24"	"pecugg"	"600"	"1366"	"chrome"	"108.0.0"	"FALSE"	"Windows 10"	"60.83"	"129"	n/a	n/a	n/a	n/a	n/a	n/a	"Trial"	n/a	n/a	n/a	"667"	"arrowup"	n/a	"NULL"	"NULL"	"NULL"	"stimuli/MullerLyer_2.30000_0.14541.png"	n/a	"MullerLyer"	"arrowup"	"1138"	"TRUE"	"MullerLyer"	"2.3000000000"	"0.1454100000"	"2"	"25"
n/a	"html-keyboard-response"	"234"	"474643"	"0.0-6.0-2.0-0.25"	"pecugg"	"600"	"1366"	"chrome"	"108.0.0"	"FALSE"	"Windows 10"	"60.83"	"129"	n/a	n/a	n/a	n/a	n/a	n/a	"fixation"	n/a	n/a	n/a	n/a	"NULL"	n/a	"NULL"	"NULL"	"NULL"	"<p style=\"color: black; font-size: 80px; padding-left: 13%; padding-right: 22%; padding-top: 18%; padding-bottom: 30%\">+</p>"	"1377"	n/a	n/a	n/a	n/a	n/a	n/a	n/a	n/a	n/a
n/a	"image-keyboard-response"	"235"	"475184"	"0.0-6.0-2.0-1.25"	"pecugg"	"600"	"1366"	"chrome"	"108.0.0"	"FALSE"	"Windows 10"	"60.83"	"129"	n/a	n/a	n/a	n/a	n/a	n/a	"Trial"	n/a	n/a	n/a	"541"	"arrowup"	n/a	"NULL"	"NULL"	"NULL"	"stimuli/MullerLyer_20.04286_-0.14541.png"	n/a	"MullerLyer"	"arrowdown"	"1393"	"FALSE"	"MullerLyer"	"20.042860000"	"-0.145410000"	"2"	"26"
n/a	"html-keyboard-response"	"236"	"476560"	"0.0-6.0-2.0-0.26"	"pecugg"	"600"	"1366"	"chrome"	"108.0.0"	"FALSE"	"Windows 10"	"60.83"	"129"	n/a	n/a	n/a	n/a	n/a	n/a	"fixation"	n/a	n/a	n/a	n/a	"NULL"	n/a	"NULL"	"NULL"	"NULL"	"<p style=\"color: black; font-size: 80px; padding-left: 0%; padding-right: 47%; padding-top: 38%; padding-bottom: 38%\">+</p>"	"1356"	n/a	n/a	n/a	n/a	n/a	n/a	n/a	n/a	n/a
n/a	"image-keyboard-response"	"237"	"477074"	"0.0-6.0-2.0-1.26"	"pecugg"	"600"	"1366"	"chrome"	"108.0.0"	"FALSE"	"Windows 10"	"60.83"	"129"	n/a	n/a	n/a	n/a	n/a	n/a	"Trial"	n/a	n/a	n/a	"513"	"arrowdown"	n/a	"NULL"	"NULL"	"NULL"	"stimuli/MullerLyer_14.12857_0.14541.png"	n/a	"MullerLyer"	"arrowup"	"1376"	"FALSE"	"MullerLyer"	"14.128570000"	"0.1454100000"	"2"	"27"
n/a	"html-keyboard-response"	"238"	"478085"	"0.0-6.0-2.0-0.27"	"pecugg"	"600"	"1366"	"chrome"	"108.0.0"	"FALSE"	"Windows 10"	"60.83"	"129"	n/a	n/a	n/a	n/a	n/a	n/a	"fixation"	n/a	n/a	n/a	n/a	"NULL"	n/a	"NULL"	"NULL"	"NULL"	"<p style=\"color: black; font-size: 80px; padding-left: 33%; padding-right: 32%; padding-top: 19%; padding-bottom: 0%\">+</p>"	"1004"	n/a	n/a	n/a	n/a	n/a	n/a	n/a	n/a	n/a
n/a	"image-keyboard-response"	"239"	"478589"	"0.0-6.0-2.0-1.27"	"pecugg"	"600"	"1366"	"chrome"	"108.0.0"	"FALSE"	"Windows 10"	"60.83"	"129"	n/a	n/a	n/a	n/a	n/a	n/a	"Trial"	n/a	n/a	n/a	"503"	"arrowdown"	n/a	"NULL"	"NULL"	"NULL"	"stimuli/MullerLyer_-14.12857_-0.07627.png"	n/a	"MullerLyer"	"arrowdown"	"1011"	"TRUE"	"MullerLyer"	"-14.12857000"	"-0.076270000"	"2"	"28"
n/a	"html-keyboard-response"	"240"	"479727"	"0.0-6.0-2.0-0.28"	"pecugg"	"600"	"1366"	"chrome"	"108.0.0"	"FALSE"	"Windows 10"	"60.83"	"129"	n/a	n/a	n/a	n/a	n/a	n/a	"fixation"	n/a	n/a	n/a	n/a	"NULL"	n/a	"NULL"	"NULL"	"NULL"	"<p style=\"color: black; font-size: 80px; padding-left: 39%; padding-right: 38%; padding-top: 43%; padding-bottom: 50%\">+</p>"	"1131"	n/a	n/a	n/a	n/a	n/a	n/a	n/a	n/a	n/a
n/a	"image-keyboard-response"	"241"	"480576"	"0.0-6.0-2.0-1.28"	"pecugg"	"600"	"1366"	"chrome"	"108.0.0"	"FALSE"	"Windows 10"	"60.83"	"129"	n/a	n/a	n/a	n/a	n/a	n/a	"Trial"	n/a	n/a	n/a	"849"	"arrowdown"	n/a	"NULL"	"NULL"	"NULL"	"stimuli/MullerLyer_8.21429_0.14541.png"	n/a	"MullerLyer"	"arrowup"	"1138"	"FALSE"	"MullerLyer"	"8.2142900000"	"0.1454100000"	"2"	"29"
n/a	"html-keyboard-response"	"242"	"481985"	"0.0-6.0-2.0-0.29"	"pecugg"	"600"	"1366"	"chrome"	"108.0.0"	"FALSE"	"Windows 10"	"60.83"	"129"	n/a	n/a	n/a	n/a	n/a	n/a	"fixation"	n/a	n/a	n/a	n/a	"NULL"	n/a	"NULL"	"NULL"	"NULL"	"<p style=\"color: black; font-size: 80px; padding-left: 46%; padding-right: 6%; padding-top: 23%; padding-bottom: 12%\">+</p>"	"1394"	n/a	n/a	n/a	n/a	n/a	n/a	n/a	n/a	n/a
n/a	"image-keyboard-response"	"243"	"482647"	"0.0-6.0-2.0-1.29"	"pecugg"	"600"	"1366"	"chrome"	"108.0.0"	"FALSE"	"Windows 10"	"60.83"	"129"	n/a	n/a	n/a	n/a	n/a	n/a	"Trial"	n/a	n/a	n/a	"661"	"arrowdown"	n/a	"NULL"	"NULL"	"NULL"	"stimuli/MullerLyer_14.12857_-0.23665.png"	n/a	"MullerLyer"	"arrowdown"	"1409"	"TRUE"	"MullerLyer"	"14.128570000"	"-0.236650000"	"2"	"30"
n/a	"html-keyboard-response"	"244"	"484074"	"0.0-6.0-2.0-0.30"	"pecugg"	"600"	"1366"	"chrome"	"108.0.0"	"FALSE"	"Windows 10"	"60.83"	"129"	n/a	n/a	n/a	n/a	n/a	n/a	"fixation"	n/a	n/a	n/a	n/a	"NULL"	n/a	"NULL"	"NULL"	"NULL"	"<p style=\"color: black; font-size: 80px; padding-left: 2%; padding-right: 0%; padding-top: 30%; padding-bottom: 18%\">+</p>"	"1419"	n/a	n/a	n/a	n/a	n/a	n/a	n/a	n/a	n/a
n/a	"image-keyboard-response"	"245"	"484801"	"0.0-6.0-2.0-1.30"	"pecugg"	"600"	"1366"	"chrome"	"108.0.0"	"FALSE"	"Windows 10"	"60.83"	"129"	n/a	n/a	n/a	n/a	n/a	n/a	"Trial"	n/a	n/a	n/a	"726"	"arrowdown"	n/a	"NULL"	"NULL"	"NULL"	"stimuli/MullerLyer_8.21429_-0.07627.png"	n/a	"MullerLyer"	"arrowdown"	"1427"	"TRUE"	"MullerLyer"	"8.2142900000"	"-0.076270000"	"2"	"31"
n/a	"html-keyboard-response"	"246"	"486311"	"0.0-6.0-2.0-0.31"	"pecugg"	"600"	"1366"	"chrome"	"108.0.0"	"FALSE"	"Windows 10"	"60.83"	"129"	n/a	n/a	n/a	n/a	n/a	n/a	"fixation"	n/a	n/a	n/a	n/a	"NULL"	n/a	"NULL"	"NULL"	"NULL"	"<p style=\"color: black; font-size: 80px; padding-left: 34%; padding-right: 18%; padding-top: 49%; padding-bottom: 27%\">+</p>"	"1496"	n/a	n/a	n/a	n/a	n/a	n/a	n/a	n/a	n/a
n/a	"image-keyboard-response"	"247"	"486869"	"0.0-6.0-2.0-1.31"	"pecugg"	"600"	"1366"	"chrome"	"108.0.0"	"FALSE"	"Windows 10"	"60.83"	"129"	n/a	n/a	n/a	n/a	n/a	n/a	"Trial"	n/a	n/a	n/a	"557"	"arrowdown"	n/a	"NULL"	"NULL"	"NULL"	"stimuli/MullerLyer_-20.04286_-0.23665.png"	n/a	"MullerLyer"	"arrowdown"	"1510"	"TRUE"	"MullerLyer"	"-20.04286000"	"-0.236650000"	"2"	"32"
n/a	"html-keyboard-response"	"248"	"488220"	"0.0-6.0-2.0-0.32"	"pecugg"	"600"	"1366"	"chrome"	"108.0.0"	"FALSE"	"Windows 10"	"60.83"	"129"	n/a	n/a	n/a	n/a	n/a	n/a	"fixation"	n/a	n/a	n/a	n/a	"NULL"	n/a	"NULL"	"NULL"	"NULL"	"<p style=\"color: black; font-size: 80px; padding-left: 36%; padding-right: 47%; padding-top: 19%; padding-bottom: 33%\">+</p>"	"1349"	n/a	n/a	n/a	n/a	n/a	n/a	n/a	n/a	n/a
n/a	"image-keyboard-response"	"249"	"489008"	"0.0-6.0-2.0-1.32"	"pecugg"	"600"	"1366"	"chrome"	"108.0.0"	"FALSE"	"Windows 10"	"60.83"	"129"	n/a	n/a	n/a	n/a	n/a	n/a	"Trial"	n/a	n/a	n/a	"787"	"arrowup"	n/a	"NULL"	"NULL"	"NULL"	"stimuli/MullerLyer_-8.21429_0.07627.png"	n/a	"MullerLyer"	"arrowup"	"1351"	"TRUE"	"MullerLyer"	"-8.214290000"	"0.0762700000"	"2"	"33"
n/a	"html-keyboard-response"	"250"	"490143"	"0.0-6.0-2.0-0.33"	"pecugg"	"600"	"1366"	"chrome"	"108.0.0"	"FALSE"	"Windows 10"	"60.83"	"129"	n/a	n/a	n/a	n/a	n/a	n/a	"fixation"	n/a	n/a	n/a	n/a	"NULL"	n/a	"NULL"	"NULL"	"NULL"	"<p style=\"color: black; font-size: 80px; padding-left: 47%; padding-right: 14%; padding-top: 50%; padding-bottom: 30%\">+</p>"	"1121"	n/a	n/a	n/a	n/a	n/a	n/a	n/a	n/a	n/a
n/a	"image-keyboard-response"	"251"	"491432"	"0.0-6.0-2.0-1.33"	"pecugg"	"600"	"1366"	"chrome"	"108.0.0"	"FALSE"	"Windows 10"	"60.83"	"129"	n/a	n/a	n/a	n/a	n/a	n/a	"Trial"	n/a	n/a	n/a	"1288"	"arrowup"	n/a	"NULL"	"NULL"	"NULL"	"stimuli/MullerLyer_8.21429_0.35000.png"	n/a	"MullerLyer"	"arrowup"	"1135"	"TRUE"	"MullerLyer"	"8.2142900000"	"0.3500000000"	"2"	"34"
n/a	"html-keyboard-response"	"252"	"492842"	"0.0-6.0-2.0-0.34"	"pecugg"	"600"	"1366"	"chrome"	"108.0.0"	"FALSE"	"Windows 10"	"60.83"	"129"	n/a	n/a	n/a	n/a	n/a	n/a	"fixation"	n/a	n/a	n/a	n/a	"NULL"	n/a	"NULL"	"NULL"	"NULL"	"<p style=\"color: black; font-size: 80px; padding-left: 49%; padding-right: 33%; padding-top: 9%; padding-bottom: 18%\">+</p>"	"1388"	n/a	n/a	n/a	n/a	n/a	n/a	n/a	n/a	n/a
n/a	"image-keyboard-response"	"253"	"493590"	"0.0-6.0-2.0-1.34"	"pecugg"	"600"	"1366"	"chrome"	"108.0.0"	"FALSE"	"Windows 10"	"60.83"	"129"	n/a	n/a	n/a	n/a	n/a	n/a	"Trial"	n/a	n/a	n/a	"747"	"arrowdown"	n/a	"NULL"	"NULL"	"NULL"	"stimuli/MullerLyer_-2.3000_-0.07627.png"	n/a	"MullerLyer"	"arrowdown"	"1410"	"TRUE"	"MullerLyer"	"-2.300000000"	"-0.076270000"	"2"	"35"
