"success"	"trial_type"	"trial_index"	"time_elapsed"	"internal_node_id"	"participant_id"	"screen_height"	"screen_width"	"browser"	"browser_version"	"mobile"	"os"	"vsync_rate"	"subject_id"	"width"	"height"	"webaudio"	"fullscreen"	"webcam"	"microphone"	"screen"	"version"	"date"	"time"	"rt"	"response"	"timeout"	"failed_images"	"failed_audio"	"failed_video"	"stimulus"	"trial_duration"	"block"	"correct_response"	"prestimulus_duration"	"correct"	"type"	"illusion_strength"	"illusion_difference"	"block_number"	"trial_number"
"TRUE"	"fullscreen"	"0"	"7665061"	"0.0-0.0"	"6xn7ka"	"600"	"1366"	"chrome"	"109.0.0"	"FALSE"	"Windows 10"	"60.67"	"022"	n/a	n/a	n/a	n/a	n/a	n/a	n/a	n/a	n/a	n/a	n/a	"NULL"	n/a	"NULL"	"NULL"	"NULL"	n/a	n/a	n/a	n/a	n/a	n/a	n/a	n/a	n/a	n/a	n/a
n/a	"browser-check"	"1"	"7666066"	"0.0-1.0"	"6xn7ka"	"600"	"1366"	"chrome"	"109.0.0"	"FALSE"	"Windows 10"	"60.67"	"022"	"1366"	"600"	"TRUE"	"TRUE"	"TRUE"	"TRUE"	"browser_info"	"1.0"	"20/02/2023"	"16:21:01"	n/a	"NULL"	n/a	"NULL"	"NULL"	"NULL"	n/a	n/a	n/a	n/a	n/a	n/a	n/a	n/a	n/a	n/a	n/a
n/a	"survey-text"	"2"	"7669764"	"0.0-2.0"	"6xn7ka"	"600"	"1366"	"chrome"	"109.0.0"	"FALSE"	"Windows 10"	"60.67"	"022"	n/a	n/a	n/a	n/a	n/a	n/a	"subject_id"	n/a	n/a	n/a	"3693"	"list(subject_id = \"022\")"	n/a	"NULL"	"NULL"	"NULL"	n/a	n/a	n/a	n/a	n/a	n/a	n/a	n/a	n/a	n/a	n/a
"TRUE"	"preload"	"3"	"7669783"	"0.0-3.0"	"6xn7ka"	"600"	"1366"	"chrome"	"109.0.0"	"FALSE"	"Windows 10"	"60.67"	"022"	n/a	n/a	n/a	n/a	n/a	n/a	n/a	n/a	n/a	n/a	n/a	"NULL"	"FALSE"	"list()"	"list()"	"list()"	n/a	n/a	n/a	n/a	n/a	n/a	n/a	n/a	n/a	n/a	n/a
n/a	"html-button-response"	"4"	"7716632"	"0.0-4.0-0.0"	"6xn7ka"	"600"	"1366"	"chrome"	"109.0.0"	"FALSE"	"Windows 10"	"60.67"	"022"	n/a	n/a	n/a	n/a	n/a	n/a	"illusion_instructions"	n/a	n/a	n/a	"46848"	"0"	n/a	"NULL"	"NULL"	"NULL"	"<p><b>Illusion Game</b></p><p>In this game of speed and reflex, you will need to make <b>visual judgments</b> (for instance, which circle is the biggest, or which line is the longest), as fast and as correctly as possible, while <b>resisting different visual illusions</b>.</p><p>We are going to start with some examples of all the illusions you will encounter in the game.</p>"	n/a	n/a	n/a	n/a	n/a	n/a	n/a	n/a	n/a	n/a
"TRUE"	"preload"	"5"	"7716656"	"0.0-4.0-1.0-0.0"	"6xn7ka"	"600"	"1366"	"chrome"	"109.0.0"	"FALSE"	"Windows 10"	"60.67"	"022"	n/a	n/a	n/a	n/a	n/a	n/a	n/a	n/a	n/a	n/a	n/a	"NULL"	"FALSE"	"list()"	"list()"	"list()"	n/a	n/a	n/a	n/a	n/a	n/a	n/a	n/a	n/a	n/a	n/a
n/a	"html-keyboard-response"	"6"	"7741708"	"0.0-4.0-1.0-1.0"	"6xn7ka"	"600"	"1366"	"chrome"	"109.0.0"	"FALSE"	"Windows 10"	"60.67"	"022"	n/a	n/a	n/a	n/a	n/a	n/a	n/a	n/a	n/a	n/a	"25050"	"enter"	n/a	"NULL"	"NULL"	"NULL"	"<p><b>Practice</b></p><p>In this part, two red circles will appear side by side on the screen.</p><p>Your task is to select which <b>red circle is bigger</b> in size as fast as you can, without making errors.</p><p>Don't get distracted by the surrounding black circles around the red circles!</p><p>Press <b>the LEFT or the RIGHT arrow</b> to indicate which is the bigger <b>red circle.</b></p><div style='float: center'><img src='materials/instructions/Ebbinghaus_Demo.png' height='300'></img><p><img src='utils/answer/answer_leftright_keyboard.PNG' height='150'></img></p><p class='small'>In this example, the correct answer is the <b>LEFT arrow</b>.</p></div><p>Are you ready? <b>Press ENTER to start</b></p>"	n/a	n/a	n/a	n/a	n/a	n/a	n/a	n/a	n/a	n/a
n/a	"html-keyboard-response"	"7"	"7743530"	"0.0-4.0-1.0-2.0-0.0"	"6xn7ka"	"600"	"1366"	"chrome"	"109.0.0"	"FALSE"	"Windows 10"	"60.67"	"022"	n/a	n/a	n/a	n/a	n/a	n/a	"fixation"	n/a	n/a	n/a	n/a	"NULL"	n/a	"NULL"	"NULL"	"NULL"	"<p style=\"color: black; font-size: 80px; padding-left: 29%; padding-right: 2%; padding-top: 45%; padding-bottom: 17%\">+</p>"	"1304"	n/a	n/a	n/a	n/a	n/a	n/a	n/a	n/a	n/a
n/a	"image-keyboard-response"	"8"	"7744194"	"0.0-4.0-1.0-2.0-1.0"	"6xn7ka"	"600"	"1366"	"chrome"	"109.0.0"	"FALSE"	"Windows 10"	"60.67"	"022"	n/a	n/a	n/a	n/a	n/a	n/a	"Trial"	n/a	n/a	n/a	"654"	"arrowright"	n/a	"NULL"	"NULL"	"NULL"	"stimuli/Ebbinghaus_0000000_-1.4000.png"	n/a	"Ebbinghaus"	"arrowright"	"1822"	"TRUE"	"Ebbinghaus"	"000000000000"	"-1.400000000"	"1"	"1"
n/a	"html-keyboard-response"	"9"	"7745261"	"0.0-4.0-1.0-2.0-0.1"	"6xn7ka"	"600"	"1366"	"chrome"	"109.0.0"	"FALSE"	"Windows 10"	"60.67"	"022"	n/a	n/a	n/a	n/a	n/a	n/a	"fixation"	n/a	n/a	n/a	n/a	"NULL"	n/a	"NULL"	"NULL"	"NULL"	"<p style=\"color: black; font-size: 80px; padding-left: 36%; padding-right: 16%; padding-top: 28%; padding-bottom: 42%\">+</p>"	"1056"	n/a	n/a	n/a	n/a	n/a	n/a	n/a	n/a	n/a
n/a	"image-keyboard-response"	"10"	"7745634"	"0.0-4.0-1.0-2.0-1.1"	"6xn7ka"	"600"	"1366"	"chrome"	"109.0.0"	"FALSE"	"Windows 10"	"60.67"	"022"	n/a	n/a	n/a	n/a	n/a	n/a	"Trial"	n/a	n/a	n/a	"372"	"arrowright"	n/a	"NULL"	"NULL"	"NULL"	"stimuli/Ebbinghaus_1000000_-1.4000.png"	n/a	"Ebbinghaus"	"arrowright"	"1067"	"TRUE"	"Ebbinghaus"	"100000000000"	"-1.400000000"	"1"	"2"
n/a	"html-keyboard-response"	"11"	"7746769"	"0.0-4.0-1.0-2.0-0.2"	"6xn7ka"	"600"	"1366"	"chrome"	"109.0.0"	"FALSE"	"Windows 10"	"60.67"	"022"	n/a	n/a	n/a	n/a	n/a	n/a	"fixation"	n/a	n/a	n/a	n/a	"NULL"	n/a	"NULL"	"NULL"	"NULL"	"<p style=\"color: black; font-size: 80px; padding-left: 18%; padding-right: 19%; padding-top: 36%; padding-bottom: 19%\">+</p>"	"1116"	n/a	n/a	n/a	n/a	n/a	n/a	n/a	n/a	n/a
n/a	"image-keyboard-response"	"12"	"7747268"	"0.0-4.0-1.0-2.0-1.2"	"6xn7ka"	"600"	"1366"	"chrome"	"109.0.0"	"FALSE"	"Windows 10"	"60.67"	"022"	n/a	n/a	n/a	n/a	n/a	n/a	"Trial"	n/a	n/a	n/a	"498"	"arrowleft"	n/a	"NULL"	"NULL"	"NULL"	"stimuli/Ebbinghaus_1000000_1.40000.png"	n/a	"Ebbinghaus"	"arrowleft"	"1135"	"TRUE"	"Ebbinghaus"	"100000000000"	"1.4000000000"	"1"	"3"
n/a	"html-keyboard-response"	"13"	"7748544"	"0.0-4.0-1.0-2.0-0.3"	"6xn7ka"	"600"	"1366"	"chrome"	"109.0.0"	"FALSE"	"Windows 10"	"60.67"	"022"	n/a	n/a	n/a	n/a	n/a	n/a	"fixation"	n/a	n/a	n/a	n/a	"NULL"	n/a	"NULL"	"NULL"	"NULL"	"<p style=\"color: black; font-size: 80px; padding-left: 44%; padding-right: 11%; padding-top: 10%; padding-bottom: 16%\">+</p>"	"1266"	n/a	n/a	n/a	n/a	n/a	n/a	n/a	n/a	n/a
n/a	"image-keyboard-response"	"14"	"7748977"	"0.0-4.0-1.0-2.0-1.3"	"6xn7ka"	"600"	"1366"	"chrome"	"109.0.0"	"FALSE"	"Windows 10"	"60.67"	"022"	n/a	n/a	n/a	n/a	n/a	n/a	"Trial"	n/a	n/a	n/a	"433"	"arrowright"	n/a	"NULL"	"NULL"	"NULL"	"stimuli/Ebbinghaus_-100000_-1.4000.png"	n/a	"Ebbinghaus"	"arrowright"	"1276"	"TRUE"	"Ebbinghaus"	"-10000000000"	"-1.400000000"	"1"	"4"
n/a	"html-keyboard-response"	"15"	"7750209"	"0.0-4.0-1.0-2.0-0.4"	"6xn7ka"	"600"	"1366"	"chrome"	"109.0.0"	"FALSE"	"Windows 10"	"60.67"	"022"	n/a	n/a	n/a	n/a	n/a	n/a	"fixation"	n/a	n/a	n/a	n/a	"NULL"	n/a	"NULL"	"NULL"	"NULL"	"<p style=\"color: black; font-size: 80px; padding-left: 37%; padding-right: 6%; padding-top: 8%; padding-bottom: 14%\">+</p>"	"1217"	n/a	n/a	n/a	n/a	n/a	n/a	n/a	n/a	n/a
n/a	"image-keyboard-response"	"16"	"7750624"	"0.0-4.0-1.0-2.0-1.4"	"6xn7ka"	"600"	"1366"	"chrome"	"109.0.0"	"FALSE"	"Windows 10"	"60.67"	"022"	n/a	n/a	n/a	n/a	n/a	n/a	"Trial"	n/a	n/a	n/a	"415"	"arrowleft"	n/a	"NULL"	"NULL"	"NULL"	"stimuli/Ebbinghaus_-100000_1.40000.png"	n/a	"Ebbinghaus"	"arrowleft"	"1232"	"TRUE"	"Ebbinghaus"	"-10000000000"	"1.4000000000"	"1"	"5"
n/a	"html-keyboard-response"	"17"	"7751974"	"0.0-4.0-1.0-2.0-0.5"	"6xn7ka"	"600"	"1366"	"chrome"	"109.0.0"	"FALSE"	"Windows 10"	"60.67"	"022"	n/a	n/a	n/a	n/a	n/a	n/a	"fixation"	n/a	n/a	n/a	n/a	"NULL"	n/a	"NULL"	"NULL"	"NULL"	"<p style=\"color: black; font-size: 80px; padding-left: 19%; padding-right: 6%; padding-top: 49%; padding-bottom: 5%\">+</p>"	"1336"	n/a	n/a	n/a	n/a	n/a	n/a	n/a	n/a	n/a
n/a	"image-keyboard-response"	"18"	"7752383"	"0.0-4.0-1.0-2.0-1.5"	"6xn7ka"	"600"	"1366"	"chrome"	"109.0.0"	"FALSE"	"Windows 10"	"60.67"	"022"	n/a	n/a	n/a	n/a	n/a	n/a	"Trial"	n/a	n/a	n/a	"408"	"arrowleft"	n/a	"NULL"	"NULL"	"NULL"	"stimuli/Ebbinghaus_0000000_1.40000.png"	n/a	"Ebbinghaus"	"arrowleft"	"1350"	"TRUE"	"Ebbinghaus"	"000000000000"	"1.4000000000"	"1"	"6"
n/a	"html-button-response"	"19"	"7762297"	"0.0-4.0-1.0-3.0"	"6xn7ka"	"600"	"1366"	"chrome"	"109.0.0"	"FALSE"	"Windows 10"	"60.67"	"022"	n/a	n/a	n/a	n/a	n/a	n/a	"practice_block_results"	n/a	n/a	n/a	"9912"	"0"	n/a	"NULL"	"NULL"	"NULL"	"<p style='color:rgb(76,175,80);'> Correct Responses: <b>100.00%</b></p><hr><p style='color:rgb(233,30,99);'> Average Response Time: <b>463.33</b> ms.</p>"	n/a	n/a	n/a	n/a	n/a	n/a	n/a	n/a	n/a	n/a
"TRUE"	"preload"	"20"	"7762825"	"0.0-4.0-2.0-0.0"	"6xn7ka"	"600"	"1366"	"chrome"	"109.0.0"	"FALSE"	"Windows 10"	"60.67"	"022"	n/a	n/a	n/a	n/a	n/a	n/a	n/a	n/a	n/a	n/a	n/a	"NULL"	"FALSE"	"list()"	"list()"	"list()"	n/a	n/a	n/a	n/a	n/a	n/a	n/a	n/a	n/a	n/a	n/a
n/a	"html-keyboard-response"	"21"	"7774549"	"0.0-4.0-2.0-1.0"	"6xn7ka"	"600"	"1366"	"chrome"	"109.0.0"	"FALSE"	"Windows 10"	"60.67"	"022"	n/a	n/a	n/a	n/a	n/a	n/a	n/a	n/a	n/a	n/a	"11722"	"enter"	n/a	"NULL"	"NULL"	"NULL"	"<p><b>Practice</b></p><p>In this part, two horizontal red lines will appear one above the other.</p><p>Your task is to select which <b>line is longer</b> in length as fast as you can, without making errors.</p><p>Don't get distracted by the surrounding black arrows at the end of the red lines!</p><p>Press <b>the UP or the DOWN arrow</b> to indicate where is the longer <b>red line.</b></p><div style='float: center'><img src='materials/instructions/MullerLyer_Demo.png' height='300'></img><p><img src='utils/answer/answer_updown_keyboard.PNG' height='150'></img></p><p class='small'>In this example, the correct answer is the <b>UP arrow</b>.</p></div><p>Are you ready? <b>Press ENTER to start</b></p>"	n/a	n/a	n/a	n/a	n/a	n/a	n/a	n/a	n/a	n/a
n/a	"html-keyboard-response"	"22"	"7776469"	"0.0-4.0-2.0-2.0-0.0"	"6xn7ka"	"600"	"1366"	"chrome"	"109.0.0"	"FALSE"	"Windows 10"	"60.67"	"022"	n/a	n/a	n/a	n/a	n/a	n/a	"fixation"	n/a	n/a	n/a	n/a	"NULL"	n/a	"NULL"	"NULL"	"NULL"	"<p style=\"color: black; font-size: 80px; padding-left: 48%; padding-right: 16%; padding-top: 32%; padding-bottom: 2%\">+</p>"	"1388"	n/a	n/a	n/a	n/a	n/a	n/a	n/a	n/a	n/a
n/a	"image-keyboard-response"	"23"	"7777043"	"0.0-4.0-2.0-2.0-1.0"	"6xn7ka"	"600"	"1366"	"chrome"	"109.0.0"	"FALSE"	"Windows 10"	"60.67"	"022"	n/a	n/a	n/a	n/a	n/a	n/a	"Trial"	n/a	n/a	n/a	"572"	"arrowdown"	n/a	"NULL"	"NULL"	"NULL"	"stimuli/MullerLyer_0000000_-0.7000.png"	n/a	"MullerLyer"	"arrowdown"	"1920"	"TRUE"	"MullerLyer"	"000000000000"	"-0.700000000"	"1"	"7"
n/a	"html-keyboard-response"	"24"	"7778532"	"0.0-4.0-2.0-2.0-0.1"	"6xn7ka"	"600"	"1366"	"chrome"	"109.0.0"	"FALSE"	"Windows 10"	"60.67"	"022"	n/a	n/a	n/a	n/a	n/a	n/a	"fixation"	n/a	n/a	n/a	n/a	"NULL"	n/a	"NULL"	"NULL"	"NULL"	"<p style=\"color: black; font-size: 80px; padding-left: 43%; padding-right: 10%; padding-top: 41%; padding-bottom: 22%\">+</p>"	"1473"	n/a	n/a	n/a	n/a	n/a	n/a	n/a	n/a	n/a
n/a	"image-keyboard-response"	"25"	"7778957"	"0.0-4.0-2.0-2.0-1.1"	"6xn7ka"	"600"	"1366"	"chrome"	"109.0.0"	"FALSE"	"Windows 10"	"60.67"	"022"	n/a	n/a	n/a	n/a	n/a	n/a	"Trial"	n/a	n/a	n/a	"424"	"arrowup"	n/a	"NULL"	"NULL"	"NULL"	"stimuli/MullerLyer_-230000_0.70000.png"	n/a	"MullerLyer"	"arrowup"	"1489"	"TRUE"	"MullerLyer"	"-23000000000"	"0.7000000000"	"1"	"8"
n/a	"html-keyboard-response"	"26"	"7780404"	"0.0-4.0-2.0-2.0-0.2"	"6xn7ka"	"600"	"1366"	"chrome"	"109.0.0"	"FALSE"	"Windows 10"	"60.67"	"022"	n/a	n/a	n/a	n/a	n/a	n/a	"fixation"	n/a	n/a	n/a	n/a	"NULL"	n/a	"NULL"	"NULL"	"NULL"	"<p style=\"color: black; font-size: 80px; padding-left: 45%; padding-right: 31%; padding-top: 28%; padding-bottom: 35%\">+</p>"	"1428"	n/a	n/a	n/a	n/a	n/a	n/a	n/a	n/a	n/a
n/a	"image-keyboard-response"	"27"	"7780875"	"0.0-4.0-2.0-2.0-1.2"	"6xn7ka"	"600"	"1366"	"chrome"	"109.0.0"	"FALSE"	"Windows 10"	"60.67"	"022"	n/a	n/a	n/a	n/a	n/a	n/a	"Trial"	n/a	n/a	n/a	"470"	"arrowdown"	n/a	"NULL"	"NULL"	"NULL"	"stimuli/MullerLyer_2300000_-0.7000.png"	n/a	"MullerLyer"	"arrowdown"	"1447"	"TRUE"	"MullerLyer"	"230000000000"	"-0.700000000"	"1"	"9"
n/a	"html-keyboard-response"	"28"	"7782026"	"0.0-4.0-2.0-2.0-0.3"	"6xn7ka"	"600"	"1366"	"chrome"	"109.0.0"	"FALSE"	"Windows 10"	"60.67"	"022"	n/a	n/a	n/a	n/a	n/a	n/a	"fixation"	n/a	n/a	n/a	n/a	"NULL"	n/a	"NULL"	"NULL"	"NULL"	"<p style=\"color: black; font-size: 80px; padding-left: 16%; padding-right: 32%; padding-top: 34%; padding-bottom: 11%\">+</p>"	"1137"	n/a	n/a	n/a	n/a	n/a	n/a	n/a	n/a	n/a
n/a	"image-keyboard-response"	"29"	"7782441"	"0.0-4.0-2.0-2.0-1.3"	"6xn7ka"	"600"	"1366"	"chrome"	"109.0.0"	"FALSE"	"Windows 10"	"60.67"	"022"	n/a	n/a	n/a	n/a	n/a	n/a	"Trial"	n/a	n/a	n/a	"415"	"arrowdown"	n/a	"NULL"	"NULL"	"NULL"	"stimuli/MullerLyer_-230000_-0.7000.png"	n/a	"MullerLyer"	"arrowdown"	"1151"	"TRUE"	"MullerLyer"	"-23000000000"	"-0.700000000"	"1"	"10"
n/a	"html-keyboard-response"	"30"	"7783759"	"0.0-4.0-2.0-2.0-0.4"	"6xn7ka"	"600"	"1366"	"chrome"	"109.0.0"	"FALSE"	"Windows 10"	"60.67"	"022"	n/a	n/a	n/a	n/a	n/a	n/a	"fixation"	n/a	n/a	n/a	n/a	"NULL"	n/a	"NULL"	"NULL"	"NULL"	"<p style=\"color: black; font-size: 80px; padding-left: 25%; padding-right: 40%; padding-top: 46%; padding-bottom: 50%\">+</p>"	"1309"	n/a	n/a	n/a	n/a	n/a	n/a	n/a	n/a	n/a
n/a	"image-keyboard-response"	"31"	"7784144"	"0.0-4.0-2.0-2.0-1.4"	"6xn7ka"	"600"	"1366"	"chrome"	"109.0.0"	"FALSE"	"Windows 10"	"60.67"	"022"	n/a	n/a	n/a	n/a	n/a	n/a	"Trial"	n/a	n/a	n/a	"385"	"arrowup"	n/a	"NULL"	"NULL"	"NULL"	"stimuli/MullerLyer_0000000_0.70000.png"	n/a	"MullerLyer"	"arrowup"	"1318"	"TRUE"	"MullerLyer"	"000000000000"	"0.7000000000"	"1"	"11"
n/a	"html-keyboard-response"	"32"	"7785236"	"0.0-4.0-2.0-2.0-0.5"	"6xn7ka"	"600"	"1366"	"chrome"	"109.0.0"	"FALSE"	"Windows 10"	"60.67"	"022"	n/a	n/a	n/a	n/a	n/a	n/a	"fixation"	n/a	n/a	n/a	n/a	"NULL"	n/a	"NULL"	"NULL"	"NULL"	"<p style=\"color: black; font-size: 80px; padding-left: 0%; padding-right: 45%; padding-top: 50%; padding-bottom: 33%\">+</p>"	"1078"	n/a	n/a	n/a	n/a	n/a	n/a	n/a	n/a	n/a
n/a	"image-keyboard-response"	"33"	"7785661"	"0.0-4.0-2.0-2.0-1.5"	"6xn7ka"	"600"	"1366"	"chrome"	"109.0.0"	"FALSE"	"Windows 10"	"60.67"	"022"	n/a	n/a	n/a	n/a	n/a	n/a	"Trial"	n/a	n/a	n/a	"425"	"arrowup"	n/a	"NULL"	"NULL"	"NULL"	"stimuli/MullerLyer_2300000_0.70000.png"	n/a	"MullerLyer"	"arrowup"	"1092"	"TRUE"	"MullerLyer"	"230000000000"	"0.7000000000"	"1"	"12"
n/a	"html-button-response"	"34"	"7789471"	"0.0-4.0-2.0-3.0"	"6xn7ka"	"600"	"1366"	"chrome"	"109.0.0"	"FALSE"	"Windows 10"	"60.67"	"022"	n/a	n/a	n/a	n/a	n/a	n/a	"practice_block_results"	n/a	n/a	n/a	"3808"	"0"	n/a	"NULL"	"NULL"	"NULL"	"<p style='color:rgb(76,175,80);'> Correct Responses: <b>100.00%</b></p><hr><p style='color:rgb(233,30,99);'> Average Response Time: <b>448.50</b> ms.</p>"	n/a	n/a	n/a	n/a	n/a	n/a	n/a	n/a	n/a	n/a
"TRUE"	"preload"	"35"	"7790010"	"0.0-4.0-3.0-0.0"	"6xn7ka"	"600"	"1366"	"chrome"	"109.0.0"	"FALSE"	"Windows 10"	"60.67"	"022"	n/a	n/a	n/a	n/a	n/a	n/a	n/a	n/a	n/a	n/a	n/a	"NULL"	"FALSE"	"list()"	"list()"	"list()"	n/a	n/a	n/a	n/a	n/a	n/a	n/a	n/a	n/a	n/a	n/a
n/a	"html-keyboard-response"	"36"	"7796845"	"0.0-4.0-3.0-1.0"	"6xn7ka"	"600"	"1366"	"chrome"	"109.0.0"	"FALSE"	"Windows 10"	"60.67"	"022"	n/a	n/a	n/a	n/a	n/a	n/a	n/a	n/a	n/a	n/a	"6835"	"enter"	n/a	"NULL"	"NULL"	"NULL"	"<p><b>Practice</b></p><p>In this part, two red lines will appear side by side.</p><p>Your task is to tell <b>which line is longer</b> in length, regardless of their orientation, as fast as you can, and without making errors.</p><p>Don't get distracted by the orientation of the lines!</p><p>Press <b>the LEFT or the RIGHT arrow</b> to indicate which <b>line is the longer one.</b></p><div style='float: center'><img src='materials/instructions/VerticalHorizontal_Demo.png' height='300'></img><p><img src='utils/answer/answer_leftright_keyboard.PNG' height='150'></img></p><p class='small'>In this example, the correct answer is the <b>LEFT arrow</b>.</p></div><p>Are you ready? <b>Press ENTER to start</b></p>"	n/a	n/a	n/a	n/a	n/a	n/a	n/a	n/a	n/a	n/a
n/a	"html-keyboard-response"	"37"	"7798742"	"0.0-4.0-3.0-2.0-0.0"	"6xn7ka"	"600"	"1366"	"chrome"	"109.0.0"	"FALSE"	"Windows 10"	"60.67"	"022"	n/a	n/a	n/a	n/a	n/a	n/a	"fixation"	n/a	n/a	n/a	n/a	"NULL"	n/a	"NULL"	"NULL"	"NULL"	"<p style=\"color: black; font-size: 80px; padding-left: 21%; padding-right: 24%; padding-top: 38%; padding-bottom: 46%\">+</p>"	"1385"	n/a	n/a	n/a	n/a	n/a	n/a	n/a	n/a	n/a
n/a	"image-keyboard-response"	"38"	"7799368"	"0.0-4.0-3.0-2.0-1.0"	"6xn7ka"	"600"	"1366"	"chrome"	"109.0.0"	"FALSE"	"Windows 10"	"60.67"	"022"	n/a	n/a	n/a	n/a	n/a	n/a	"Trial"	n/a	n/a	n/a	"625"	"arrowright"	n/a	"NULL"	"NULL"	"NULL"	"stimuli/VerticalHorizontal_0000000_-0.9000.png"	n/a	"VerticalHorizontal"	"arrowright"	"1897"	"TRUE"	"VerticalHorizontal"	"000000000000"	"-0.900000000"	"1"	"13"
n/a	"html-keyboard-response"	"39"	"7800506"	"0.0-4.0-3.0-2.0-0.1"	"6xn7ka"	"600"	"1366"	"chrome"	"109.0.0"	"FALSE"	"Windows 10"	"60.67"	"022"	n/a	n/a	n/a	n/a	n/a	n/a	"fixation"	n/a	n/a	n/a	n/a	"NULL"	n/a	"NULL"	"NULL"	"NULL"	"<p style=\"color: black; font-size: 80px; padding-left: 31%; padding-right: 49%; padding-top: 20%; padding-bottom: 29%\">+</p>"	"1124"	n/a	n/a	n/a	n/a	n/a	n/a	n/a	n/a	n/a
n/a	"image-keyboard-response"	"40"	"7800909"	"0.0-4.0-3.0-2.0-1.1"	"6xn7ka"	"600"	"1366"	"chrome"	"109.0.0"	"FALSE"	"Windows 10"	"60.67"	"022"	n/a	n/a	n/a	n/a	n/a	n/a	"Trial"	n/a	n/a	n/a	"401"	"arrowleft"	n/a	"NULL"	"NULL"	"NULL"	"stimuli/VerticalHorizontal_0000000_0.90000.png"	n/a	"VerticalHorizontal"	"arrowleft"	"1138"	"TRUE"	"VerticalHorizontal"	"000000000000"	"0.9000000000"	"1"	"14"
n/a	"html-keyboard-response"	"41"	"7802314"	"0.0-4.0-3.0-2.0-0.2"	"6xn7ka"	"600"	"1366"	"chrome"	"109.0.0"	"FALSE"	"Windows 10"	"60.67"	"022"	n/a	n/a	n/a	n/a	n/a	n/a	"fixation"	n/a	n/a	n/a	n/a	"NULL"	n/a	"NULL"	"NULL"	"NULL"	"<p style=\"color: black; font-size: 80px; padding-left: 36%; padding-right: 43%; padding-top: 16%; padding-bottom: 8%\">+</p>"	"1382"	n/a	n/a	n/a	n/a	n/a	n/a	n/a	n/a	n/a
n/a	"image-keyboard-response"	"42"	"7802726"	"0.0-4.0-3.0-2.0-1.2"	"6xn7ka"	"600"	"1366"	"chrome"	"109.0.0"	"FALSE"	"Windows 10"	"60.67"	"022"	n/a	n/a	n/a	n/a	n/a	n/a	"Trial"	n/a	n/a	n/a	"412"	"arrowright"	n/a	"NULL"	"NULL"	"NULL"	"stimuli/VerticalHorizontal_3300000_-0.9000.png"	n/a	"VerticalHorizontal"	"arrowright"	"1405"	"TRUE"	"VerticalHorizontal"	"330000000000"	"-0.900000000"	"1"	"15"
n/a	"html-keyboard-response"	"43"	"7803947"	"0.0-4.0-3.0-2.0-0.3"	"6xn7ka"	"600"	"1366"	"chrome"	"109.0.0"	"FALSE"	"Windows 10"	"60.67"	"022"	n/a	n/a	n/a	n/a	n/a	n/a	"fixation"	n/a	n/a	n/a	n/a	"NULL"	n/a	"NULL"	"NULL"	"NULL"	"<p style=\"color: black; font-size: 80px; padding-left: 19%; padding-right: 37%; padding-top: 20%; padding-bottom: 19%\">+</p>"	"1207"	n/a	n/a	n/a	n/a	n/a	n/a	n/a	n/a	n/a
n/a	"image-keyboard-response"	"44"	"7804349"	"0.0-4.0-3.0-2.0-1.3"	"6xn7ka"	"600"	"1366"	"chrome"	"109.0.0"	"FALSE"	"Windows 10"	"60.67"	"022"	n/a	n/a	n/a	n/a	n/a	n/a	"Trial"	n/a	n/a	n/a	"401"	"arrowleft"	n/a	"NULL"	"NULL"	"NULL"	"stimuli/VerticalHorizontal_-330000_0.90000.png"	n/a	"VerticalHorizontal"	"arrowleft"	"1221"	"TRUE"	"VerticalHorizontal"	"-33000000000"	"0.9000000000"	"1"	"16"
n/a	"html-keyboard-response"	"45"	"7805502"	"0.0-4.0-3.0-2.0-0.4"	"6xn7ka"	"600"	"1366"	"chrome"	"109.0.0"	"FALSE"	"Windows 10"	"60.67"	"022"	n/a	n/a	n/a	n/a	n/a	n/a	"fixation"	n/a	n/a	n/a	n/a	"NULL"	n/a	"NULL"	"NULL"	"NULL"	"<p style=\"color: black; font-size: 80px; padding-left: 25%; padding-right: 17%; padding-top: 43%; padding-bottom: 12%\">+</p>"	"1139"	n/a	n/a	n/a	n/a	n/a	n/a	n/a	n/a	n/a
n/a	"image-keyboard-response"	"46"	"7806089"	"0.0-4.0-3.0-2.0-1.4"	"6xn7ka"	"600"	"1366"	"chrome"	"109.0.0"	"FALSE"	"Windows 10"	"60.67"	"022"	n/a	n/a	n/a	n/a	n/a	n/a	"Trial"	n/a	n/a	n/a	"587"	"arrowleft"	n/a	"NULL"	"NULL"	"NULL"	"stimuli/VerticalHorizontal_3300000_0.90000.png"	n/a	"VerticalHorizontal"	"arrowleft"	"1153"	"TRUE"	"VerticalHorizontal"	"330000000000"	"0.9000000000"	"1"	"17"
n/a	"html-keyboard-response"	"47"	"7807362"	"0.0-4.0-3.0-2.0-0.5"	"6xn7ka"	"600"	"1366"	"chrome"	"109.0.0"	"FALSE"	"Windows 10"	"60.67"	"022"	n/a	n/a	n/a	n/a	n/a	n/a	"fixation"	n/a	n/a	n/a	n/a	"NULL"	n/a	"NULL"	"NULL"	"NULL"	"<p style=\"color: black; font-size: 80px; padding-left: 47%; padding-right: 31%; padding-top: 1%; padding-bottom: 12%\">+</p>"	"1259"	n/a	n/a	n/a	n/a	n/a	n/a	n/a	n/a	n/a
n/a	"image-keyboard-response"	"48"	"7807722"	"0.0-4.0-3.0-2.0-1.5"	"6xn7ka"	"600"	"1366"	"chrome"	"109.0.0"	"FALSE"	"Windows 10"	"60.67"	"022"	n/a	n/a	n/a	n/a	n/a	n/a	"Trial"	n/a	n/a	n/a	"360"	"arrowright"	n/a	"NULL"	"NULL"	"NULL"	"stimuli/VerticalHorizontal_-330000_-0.9000.png"	n/a	"VerticalHorizontal"	"arrowright"	"1273"	"TRUE"	"VerticalHorizontal"	"-33000000000"	"-0.900000000"	"1"	"18"
n/a	"html-button-response"	"49"	"7811092"	"0.0-4.0-3.0-3.0"	"6xn7ka"	"600"	"1366"	"chrome"	"109.0.0"	"FALSE"	"Windows 10"	"60.67"	"022"	n/a	n/a	n/a	n/a	n/a	n/a	"practice_block_results"	n/a	n/a	n/a	"3365"	"0"	n/a	"NULL"	"NULL"	"NULL"	"<p style='color:rgb(76,175,80);'> Correct Responses: <b>100.00%</b></p><hr><p style='color:rgb(233,30,99);'> Average Response Time: <b>464.33</b> ms.</p>"	n/a	n/a	n/a	n/a	n/a	n/a	n/a	n/a	n/a	n/a
n/a	"html-button-response"	"50"	"7909731"	"0.0-4.0-4.0"	"6xn7ka"	"600"	"1366"	"chrome"	"109.0.0"	"FALSE"	"Windows 10"	"60.67"	"022"	n/a	n/a	n/a	n/a	n/a	n/a	"practice_debrief"	n/a	n/a	n/a	"98121"	"0"	n/a	"NULL"	"NULL"	"NULL"	"<p><b>TRAINING COMPLETED</b></p><p>In the next phase, there will be more trials, and some might be harder too.<br> Moreover, after each illusion block, a <b>score</b> will be calculated based on speed (time you took to answer) and accuracy (number of errors).</p><p>Try to keep up a high score!</p><br><p>Note that it can be <i>really</i> challenging at times, so you will need to rely on your <b>intuition</b> and gut feeling to answer as fast as you can without making errors.</p><p>Each illusion block will be repeated two times (so that you have the opportunity to improve your score), but the order of the blocks is random.</p><p>Remember, your goal is to be as <b>fast</b> and <b>accurate</b> as possible. Good luck!</p><br>"	n/a	n/a	n/a	n/a	n/a	n/a	n/a	n/a	n/a	n/a
"TRUE"	"preload"	"51"	"7909956"	"0.0-5.0-0.0"	"6xn7ka"	"600"	"1366"	"chrome"	"109.0.0"	"FALSE"	"Windows 10"	"60.67"	"022"	n/a	n/a	n/a	n/a	n/a	n/a	n/a	n/a	n/a	n/a	n/a	"NULL"	"FALSE"	"list()"	"list()"	"list()"	n/a	n/a	n/a	n/a	n/a	n/a	n/a	n/a	n/a	n/a	n/a
n/a	"html-keyboard-response"	"52"	"7913228"	"0.0-5.0-1.0"	"6xn7ka"	"600"	"1366"	"chrome"	"109.0.0"	"FALSE"	"Windows 10"	"60.67"	"022"	n/a	n/a	n/a	n/a	n/a	n/a	n/a	n/a	n/a	n/a	"3271"	"enter"	n/a	"NULL"	"NULL"	"NULL"	"<p><b>Part 1/6</b></p><p>In this part, two horizontal red lines will appear one above the other.</p><p>Your task is to select which <b>line is longer</b> in length as fast as you can, without making errors.</p><p>Don't get distracted by the surrounding black arrows at the end of the red lines!</p><p>Press <b>the UP or the DOWN arrow</b> to indicate where is the longer <b>red line.</b></p><div style='float: center'><img src='materials/instructions/MullerLyer_Demo.png' height='300'></img><p><img src='utils/answer/answer_updown_keyboard.PNG' height='150'></img></p><p class='small'>In this example, the correct answer is the <b>UP arrow</b>.</p></div><p>Are you ready? <b>Press ENTER to start</b></p>"	n/a	n/a	n/a	n/a	n/a	n/a	n/a	n/a	n/a	n/a
n/a	"html-keyboard-response"	"53"	"7915062"	"0.0-5.0-2.0-0.0"	"6xn7ka"	"600"	"1366"	"chrome"	"109.0.0"	"FALSE"	"Windows 10"	"60.67"	"022"	n/a	n/a	n/a	n/a	n/a	n/a	"fixation"	n/a	n/a	n/a	n/a	"NULL"	n/a	"NULL"	"NULL"	"NULL"	"<p style=\"color: black; font-size: 80px; padding-left: 38%; padding-right: 33%; padding-top: 14%; padding-bottom: 48%\">+</p>"	"1300"	n/a	n/a	n/a	n/a	n/a	n/a	n/a	n/a	n/a
n/a	"image-keyboard-response"	"54"	"7915617"	"0.0-5.0-2.0-1.0"	"6xn7ka"	"600"	"1366"	"chrome"	"109.0.0"	"FALSE"	"Windows 10"	"60.67"	"022"	n/a	n/a	n/a	n/a	n/a	n/a	"Trial"	n/a	n/a	n/a	"553"	"arrowup"	n/a	"NULL"	"NULL"	"NULL"	"stimuli/MullerLyer_-2.3000_0.07627.png"	n/a	"MullerLyer"	"arrowup"	"1834"	"TRUE"	"MullerLyer"	"-2.300000000"	"0.0762700000"	"1"	"19"
n/a	"html-keyboard-response"	"55"	"7917090"	"0.0-5.0-2.0-0.1"	"6xn7ka"	"600"	"1366"	"chrome"	"109.0.0"	"FALSE"	"Windows 10"	"60.67"	"022"	n/a	n/a	n/a	n/a	n/a	n/a	"fixation"	n/a	n/a	n/a	n/a	"NULL"	n/a	"NULL"	"NULL"	"NULL"	"<p style=\"color: black; font-size: 80px; padding-left: 11%; padding-right: 23%; padding-top: 1%; padding-bottom: 41%\">+</p>"	"1449"	n/a	n/a	n/a	n/a	n/a	n/a	n/a	n/a	n/a
n/a	"image-keyboard-response"	"56"	"7917497"	"0.0-5.0-2.0-1.1"	"6xn7ka"	"600"	"1366"	"chrome"	"109.0.0"	"FALSE"	"Windows 10"	"60.67"	"022"	n/a	n/a	n/a	n/a	n/a	n/a	"Trial"	n/a	n/a	n/a	"407"	"arrowup"	n/a	"NULL"	"NULL"	"NULL"	"stimuli/MullerLyer_-20.04286_0.07627.png"	n/a	"MullerLyer"	"arrowup"	"1473"	"TRUE"	"MullerLyer"	"-20.04286000"	"0.0762700000"	"1"	"20"
n/a	"html-keyboard-response"	"57"	"7918599"	"0.0-5.0-2.0-0.2"	"6xn7ka"	"600"	"1366"	"chrome"	"109.0.0"	"FALSE"	"Windows 10"	"60.67"	"022"	n/a	n/a	n/a	n/a	n/a	n/a	"fixation"	n/a	n/a	n/a	n/a	"NULL"	n/a	"NULL"	"NULL"	"NULL"	"<p style=\"color: black; font-size: 80px; padding-left: 8%; padding-right: 24%; padding-top: 18%; padding-bottom: 45%\">+</p>"	"1090"	n/a	n/a	n/a	n/a	n/a	n/a	n/a	n/a	n/a
n/a	"image-keyboard-response"	"58"	"7918925"	"0.0-5.0-2.0-1.2"	"6xn7ka"	"600"	"1366"	"chrome"	"109.0.0"	"FALSE"	"Windows 10"	"60.67"	"022"	n/a	n/a	n/a	n/a	n/a	n/a	"Trial"	n/a	n/a	n/a	"326"	"arrowup"	n/a	"NULL"	"NULL"	"NULL"	"stimuli/MullerLyer_-14.12857_-0.14541.png"	n/a	"MullerLyer"	"arrowdown"	"1102"	"FALSE"	"MullerLyer"	"-14.12857000"	"-0.145410000"	"1"	"21"
n/a	"html-keyboard-response"	"59"	"7920056"	"0.0-5.0-2.0-0.3"	"6xn7ka"	"600"	"1366"	"chrome"	"109.0.0"	"FALSE"	"Windows 10"	"60.67"	"022"	n/a	n/a	n/a	n/a	n/a	n/a	"fixation"	n/a	n/a	n/a	n/a	"NULL"	n/a	"NULL"	"NULL"	"NULL"	"<p style=\"color: black; font-size: 80px; padding-left: 22%; padding-right: 26%; padding-top: 16%; padding-bottom: 36%\">+</p>"	"1110"	n/a	n/a	n/a	n/a	n/a	n/a	n/a	n/a	n/a
n/a	"image-keyboard-response"	"60"	"7920640"	"0.0-5.0-2.0-1.3"	"6xn7ka"	"600"	"1366"	"chrome"	"109.0.0"	"FALSE"	"Windows 10"	"60.67"	"022"	n/a	n/a	n/a	n/a	n/a	n/a	"Trial"	n/a	n/a	n/a	"584"	"arrowdown"	n/a	"NULL"	"NULL"	"NULL"	"stimuli/MullerLyer_14.12857_0.07627.png"	n/a	"MullerLyer"	"arrowup"	"1131"	"FALSE"	"MullerLyer"	"14.128570000"	"0.0762700000"	"1"	"22"
n/a	"html-keyboard-response"	"61"	"7921787"	"0.0-5.0-2.0-0.4"	"6xn7ka"	"600"	"1366"	"chrome"	"109.0.0"	"FALSE"	"Windows 10"	"60.67"	"022"	n/a	n/a	n/a	n/a	n/a	n/a	"fixation"	n/a	n/a	n/a	n/a	"NULL"	n/a	"NULL"	"NULL"	"NULL"	"<p style=\"color: black; font-size: 80px; padding-left: 37%; padding-right: 27%; padding-top: 44%; padding-bottom: 38%\">+</p>"	"1136"	n/a	n/a	n/a	n/a	n/a	n/a	n/a	n/a	n/a
n/a	"image-keyboard-response"	"62"	"7922201"	"0.0-5.0-2.0-1.4"	"6xn7ka"	"600"	"1366"	"chrome"	"109.0.0"	"FALSE"	"Windows 10"	"60.67"	"022"	n/a	n/a	n/a	n/a	n/a	n/a	"Trial"	n/a	n/a	n/a	"414"	"arrowup"	n/a	"NULL"	"NULL"	"NULL"	"stimuli/MullerLyer_-14.12857_0.14541.png"	n/a	"MullerLyer"	"arrowup"	"1147"	"TRUE"	"MullerLyer"	"-14.12857000"	"0.1454100000"	"1"	"23"
n/a	"html-keyboard-response"	"63"	"7923323"	"0.0-5.0-2.0-0.5"	"6xn7ka"	"600"	"1366"	"chrome"	"109.0.0"	"FALSE"	"Windows 10"	"60.67"	"022"	n/a	n/a	n/a	n/a	n/a	n/a	"fixation"	n/a	n/a	n/a	n/a	"NULL"	n/a	"NULL"	"NULL"	"NULL"	"<p style=\"color: black; font-size: 80px; padding-left: 47%; padding-right: 6%; padding-top: 6%; padding-bottom: 18%\">+</p>"	"1107"	n/a	n/a	n/a	n/a	n/a	n/a	n/a	n/a	n/a
n/a	"image-keyboard-response"	"64"	"7923668"	"0.0-5.0-2.0-1.5"	"6xn7ka"	"600"	"1366"	"chrome"	"109.0.0"	"FALSE"	"Windows 10"	"60.67"	"022"	n/a	n/a	n/a	n/a	n/a	n/a	"Trial"	n/a	n/a	n/a	"344"	"arrowup"	n/a	"NULL"	"NULL"	"NULL"	"stimuli/MullerLyer_2.30000_0.23665.png"	n/a	"MullerLyer"	"arrowup"	"1122"	"TRUE"	"MullerLyer"	"2.3000000000"	"0.2366500000"	"1"	"24"
n/a	"html-keyboard-response"	"65"	"7924940"	"0.0-5.0-2.0-0.6"	"6xn7ka"	"600"	"1366"	"chrome"	"109.0.0"	"FALSE"	"Windows 10"	"60.67"	"022"	n/a	n/a	n/a	n/a	n/a	n/a	"fixation"	n/a	n/a	n/a	n/a	"NULL"	n/a	"NULL"	"NULL"	"NULL"	"<p style=\"color: black; font-size: 80px; padding-left: 26%; padding-right: 33%; padding-top: 10%; padding-bottom: 30%\">+</p>"	"1255"	n/a	n/a	n/a	n/a	n/a	n/a	n/a	n/a	n/a
n/a	"image-keyboard-response"	"66"	"7925510"	"0.0-5.0-2.0-1.6"	"6xn7ka"	"600"	"1366"	"chrome"	"109.0.0"	"FALSE"	"Windows 10"	"60.67"	"022"	n/a	n/a	n/a	n/a	n/a	n/a	"Trial"	n/a	n/a	n/a	"569"	"arrowdown"	n/a	"NULL"	"NULL"	"NULL"	"stimuli/MullerLyer_20.04286_0.07627.png"	n/a	"MullerLyer"	"arrowup"	"1272"	"FALSE"	"MullerLyer"	"20.042860000"	"0.0762700000"	"1"	"25"
n/a	"html-keyboard-response"	"67"	"7926874"	"0.0-5.0-2.0-0.7"	"6xn7ka"	"600"	"1366"	"chrome"	"109.0.0"	"FALSE"	"Windows 10"	"60.67"	"022"	n/a	n/a	n/a	n/a	n/a	n/a	"fixation"	n/a	n/a	n/a	n/a	"NULL"	n/a	"NULL"	"NULL"	"NULL"	"<p style=\"color: black; font-size: 80px; padding-left: 49%; padding-right: 32%; padding-top: 17%; padding-bottom: 1%\">+</p>"	"1346"	n/a	n/a	n/a	n/a	n/a	n/a	n/a	n/a	n/a
n/a	"image-keyboard-response"	"68"	"7927379"	"0.0-5.0-2.0-1.7"	"6xn7ka"	"600"	"1366"	"chrome"	"109.0.0"	"FALSE"	"Windows 10"	"60.67"	"022"	n/a	n/a	n/a	n/a	n/a	n/a	"Trial"	n/a	n/a	n/a	"505"	"arrowdown"	n/a	"NULL"	"NULL"	"NULL"	"stimuli/MullerLyer_-8.21429_-0.3500.png"	n/a	"MullerLyer"	"arrowdown"	"1364"	"TRUE"	"MullerLyer"	"-8.214290000"	"-0.350000000"	"1"	"26"
n/a	"html-keyboard-response"	"69"	"7928775"	"0.0-5.0-2.0-0.8"	"6xn7ka"	"600"	"1366"	"chrome"	"109.0.0"	"FALSE"	"Windows 10"	"60.67"	"022"	n/a	n/a	n/a	n/a	n/a	n/a	"fixation"	n/a	n/a	n/a	n/a	"NULL"	n/a	"NULL"	"NULL"	"NULL"	"<p style=\"color: black; font-size: 80px; padding-left: 14%; padding-right: 38%; padding-top: 10%; padding-bottom: 3%\">+</p>"	"1374"	n/a	n/a	n/a	n/a	n/a	n/a	n/a	n/a	n/a
n/a	"image-keyboard-response"	"70"	"7929262"	"0.0-5.0-2.0-1.8"	"6xn7ka"	"600"	"1366"	"chrome"	"109.0.0"	"FALSE"	"Windows 10"	"60.67"	"022"	n/a	n/a	n/a	n/a	n/a	n/a	"Trial"	n/a	n/a	n/a	"485"	"arrowup"	n/a	"NULL"	"NULL"	"NULL"	"stimuli/MullerLyer_8.21429_0.23665.png"	n/a	"MullerLyer"	"arrowup"	"1396"	"TRUE"	"MullerLyer"	"8.2142900000"	"0.2366500000"	"1"	"27"
n/a	"html-keyboard-response"	"71"	"7930582"	"0.0-5.0-2.0-0.9"	"6xn7ka"	"600"	"1366"	"chrome"	"109.0.0"	"FALSE"	"Windows 10"	"60.67"	"022"	n/a	n/a	n/a	n/a	n/a	n/a	"fixation"	n/a	n/a	n/a	n/a	"NULL"	n/a	"NULL"	"NULL"	"NULL"	"<p style=\"color: black; font-size: 80px; padding-left: 20%; padding-right: 34%; padding-top: 30%; padding-bottom: 22%\">+</p>"	"1308"	n/a	n/a	n/a	n/a	n/a	n/a	n/a	n/a	n/a
n/a	"image-keyboard-response"	"72"	"7931083"	"0.0-5.0-2.0-1.9"	"6xn7ka"	"600"	"1366"	"chrome"	"109.0.0"	"FALSE"	"Windows 10"	"60.67"	"022"	n/a	n/a	n/a	n/a	n/a	n/a	"Trial"	n/a	n/a	n/a	"500"	"arrowdown"	n/a	"NULL"	"NULL"	"NULL"	"stimuli/MullerLyer_8.21429_-0.07627.png"	n/a	"MullerLyer"	"arrowdown"	"1320"	"TRUE"	"MullerLyer"	"8.2142900000"	"-0.076270000"	"1"	"28"
n/a	"html-keyboard-response"	"73"	"7932314"	"0.0-5.0-2.0-0.10"	"6xn7ka"	"600"	"1366"	"chrome"	"109.0.0"	"FALSE"	"Windows 10"	"60.67"	"022"	n/a	n/a	n/a	n/a	n/a	n/a	"fixation"	n/a	n/a	n/a	n/a	"NULL"	n/a	"NULL"	"NULL"	"NULL"	"<p style=\"color: black; font-size: 80px; padding-left: 39%; padding-right: 47%; padding-top: 42%; padding-bottom: 16%\">+</p>"	"1208"	n/a	n/a	n/a	n/a	n/a	n/a	n/a	n/a	n/a
n/a	"image-keyboard-response"	"74"	"7932860"	"0.0-5.0-2.0-1.10"	"6xn7ka"	"600"	"1366"	"chrome"	"109.0.0"	"FALSE"	"Windows 10"	"60.67"	"022"	n/a	n/a	n/a	n/a	n/a	n/a	"Trial"	n/a	n/a	n/a	"544"	"arrowdown"	n/a	"NULL"	"NULL"	"NULL"	"stimuli/MullerLyer_-8.21429_-0.14541.png"	n/a	"MullerLyer"	"arrowdown"	"1231"	"TRUE"	"MullerLyer"	"-8.214290000"	"-0.145410000"	"1"	"29"
n/a	"html-keyboard-response"	"75"	"7934169"	"0.0-5.0-2.0-0.11"	"6xn7ka"	"600"	"1366"	"chrome"	"109.0.0"	"FALSE"	"Windows 10"	"60.67"	"022"	n/a	n/a	n/a	n/a	n/a	n/a	"fixation"	n/a	n/a	n/a	n/a	"NULL"	n/a	"NULL"	"NULL"	"NULL"	"<p style=\"color: black; font-size: 80px; padding-left: 2%; padding-right: 20%; padding-top: 14%; padding-bottom: 47%\">+</p>"	"1294"	n/a	n/a	n/a	n/a	n/a	n/a	n/a	n/a	n/a
n/a	"image-keyboard-response"	"76"	"7934594"	"0.0-5.0-2.0-1.11"	"6xn7ka"	"600"	"1366"	"chrome"	"109.0.0"	"FALSE"	"Windows 10"	"60.67"	"022"	n/a	n/a	n/a	n/a	n/a	n/a	"Trial"	n/a	n/a	n/a	"424"	"arrowdown"	n/a	"NULL"	"NULL"	"NULL"	"stimuli/MullerLyer_2.30000_-0.3500.png"	n/a	"MullerLyer"	"arrowdown"	"1309"	"TRUE"	"MullerLyer"	"2.3000000000"	"-0.350000000"	"1"	"30"
n/a	"html-keyboard-response"	"77"	"7936057"	"0.0-5.0-2.0-0.12"	"6xn7ka"	"600"	"1366"	"chrome"	"109.0.0"	"FALSE"	"Windows 10"	"60.67"	"022"	n/a	n/a	n/a	n/a	n/a	n/a	"fixation"	n/a	n/a	n/a	n/a	"NULL"	n/a	"NULL"	"NULL"	"NULL"	"<p style=\"color: black; font-size: 80px; padding-left: 34%; padding-right: 23%; padding-top: 43%; padding-bottom: 10%\">+</p>"	"1445"	n/a	n/a	n/a	n/a	n/a	n/a	n/a	n/a	n/a
n/a	"image-keyboard-response"	"78"	"7936515"	"0.0-5.0-2.0-1.12"	"6xn7ka"	"600"	"1366"	"chrome"	"109.0.0"	"FALSE"	"Windows 10"	"60.67"	"022"	n/a	n/a	n/a	n/a	n/a	n/a	"Trial"	n/a	n/a	n/a	"457"	"arrowup"	n/a	"NULL"	"NULL"	"NULL"	"stimuli/MullerLyer_-8.21429_0.23665.png"	n/a	"MullerLyer"	"arrowup"	"1463"	"TRUE"	"MullerLyer"	"-8.214290000"	"0.2366500000"	"1"	"31"
n/a	"html-keyboard-response"	"79"	"7937960"	"0.0-5.0-2.0-0.13"	"6xn7ka"	"600"	"1366"	"chrome"	"109.0.0"	"FALSE"	"Windows 10"	"60.67"	"022"	n/a	n/a	n/a	n/a	n/a	n/a	"fixation"	n/a	n/a	n/a	n/a	"NULL"	n/a	"NULL"	"NULL"	"NULL"	"<p style=\"color: black; font-size: 80px; padding-left: 25%; padding-right: 19%; padding-top: 28%; padding-bottom: 15%\">+</p>"	"1433"	n/a	n/a	n/a	n/a	n/a	n/a	n/a	n/a	n/a
n/a	"image-keyboard-response"	"80"	"7938444"	"0.0-5.0-2.0-1.13"	"6xn7ka"	"600"	"1366"	"chrome"	"109.0.0"	"FALSE"	"Windows 10"	"60.67"	"022"	n/a	n/a	n/a	n/a	n/a	n/a	"Trial"	n/a	n/a	n/a	"483"	"arrowdown"	n/a	"NULL"	"NULL"	"NULL"	"stimuli/MullerLyer_14.12857_0.14541.png"	n/a	"MullerLyer"	"arrowup"	"1445"	"FALSE"	"MullerLyer"	"14.128570000"	"0.1454100000"	"1"	"32"
n/a	"html-keyboard-response"	"81"	"7939879"	"0.0-5.0-2.0-0.14"	"6xn7ka"	"600"	"1366"	"chrome"	"109.0.0"	"FALSE"	"Windows 10"	"60.67"	"022"	n/a	n/a	n/a	n/a	n/a	n/a	"fixation"	n/a	n/a	n/a	n/a	"NULL"	n/a	"NULL"	"NULL"	"NULL"	"<p style=\"color: black; font-size: 80px; padding-left: 12%; padding-right: 9%; padding-top: 27%; padding-bottom: 45%\">+</p>"	"1418"	n/a	n/a	n/a	n/a	n/a	n/a	n/a	n/a	n/a
n/a	"image-keyboard-response"	"82"	"7940296"	"0.0-5.0-2.0-1.14"	"6xn7ka"	"600"	"1366"	"chrome"	"109.0.0"	"FALSE"	"Windows 10"	"60.67"	"022"	n/a	n/a	n/a	n/a	n/a	n/a	"Trial"	n/a	n/a	n/a	"416"	"arrowup"	n/a	"NULL"	"NULL"	"NULL"	"stimuli/MullerLyer_8.21429_-0.14541.png"	n/a	"MullerLyer"	"arrowdown"	"1435"	"FALSE"	"MullerLyer"	"8.2142900000"	"-0.145410000"	"1"	"33"
n/a	"html-keyboard-response"	"83"	"7941384"	"0.0-5.0-2.0-0.15"	"6xn7ka"	"600"	"1366"	"chrome"	"109.0.0"	"FALSE"	"Windows 10"	"60.67"	"022"	n/a	n/a	n/a	n/a	n/a	n/a	"fixation"	n/a	n/a	n/a	n/a	"NULL"	n/a	"NULL"	"NULL"	"NULL"	"<p style=\"color: black; font-size: 80px; padding-left: 11%; padding-right: 27%; padding-top: 25%; padding-bottom: 47%\">+</p>"	"1075"	n/a	n/a	n/a	n/a	n/a	n/a	n/a	n/a	n/a
n/a	"image-keyboard-response"	"84"	"7941840"	"0.0-5.0-2.0-1.15"	"6xn7ka"	"600"	"1366"	"chrome"	"109.0.0"	"FALSE"	"Windows 10"	"60.67"	"022"	n/a	n/a	n/a	n/a	n/a	n/a	"Trial"	n/a	n/a	n/a	"455"	"arrowdown"	n/a	"NULL"	"NULL"	"NULL"	"stimuli/MullerLyer_20.04286_0.35000.png"	n/a	"MullerLyer"	"arrowup"	"1088"	"FALSE"	"MullerLyer"	"20.042860000"	"0.3500000000"	"1"	"34"
n/a	"html-keyboard-response"	"85"	"7943095"	"0.0-5.0-2.0-0.16"	"6xn7ka"	"600"	"1366"	"chrome"	"109.0.0"	"FALSE"	"Windows 10"	"60.67"	"022"	n/a	n/a	n/a	n/a	n/a	n/a	"fixation"	n/a	n/a	n/a	n/a	"NULL"	n/a	"NULL"	"NULL"	"NULL"	"<p style=\"color: black; font-size: 80px; padding-left: 40%; padding-right: 3%; padding-top: 34%; padding-bottom: 39%\">+</p>"	"1240"	n/a	n/a	n/a	n/a	n/a	n/a	n/a	n/a	n/a
n/a	"image-keyboard-response"	"86"	"7943577"	"0.0-5.0-2.0-1.16"	"6xn7ka"	"600"	"1366"	"chrome"	"109.0.0"	"FALSE"	"Windows 10"	"60.67"	"022"	n/a	n/a	n/a	n/a	n/a	n/a	"Trial"	n/a	n/a	n/a	"481"	"arrowup"	n/a	"NULL"	"NULL"	"NULL"	"stimuli/MullerLyer_2.30000_0.35000.png"	n/a	"MullerLyer"	"arrowup"	"1255"	"TRUE"	"MullerLyer"	"2.3000000000"	"0.3500000000"	"1"	"35"
n/a	"html-keyboard-response"	"87"	"7944919"	"0.0-5.0-2.0-0.17"	"6xn7ka"	"600"	"1366"	"chrome"	"109.0.0"	"FALSE"	"Windows 10"	"60.67"	"022"	n/a	n/a	n/a	n/a	n/a	n/a	"fixation"	n/a	n/a	n/a	n/a	"NULL"	n/a	"NULL"	"NULL"	"NULL"	"<p style=\"color: black; font-size: 80px; padding-left: 25%; padding-right: 27%; padding-top: 32%; padding-bottom: 21%\">+</p>"	"1333"	n/a	n/a	n/a	n/a	n/a	n/a	n/a	n/a	n/a
n/a	"image-keyboard-response"	"88"	"7945476"	"0.0-5.0-2.0-1.17"	"6xn7ka"	"600"	"1366"	"chrome"	"109.0.0"	"FALSE"	"Windows 10"	"60.67"	"022"	n/a	n/a	n/a	n/a	n/a	n/a	"Trial"	n/a	n/a	n/a	"555"	"arrowup"	n/a	"NULL"	"NULL"	"NULL"	"stimuli/MullerLyer_8.21429_0.14541.png"	n/a	"MullerLyer"	"arrowup"	"1342"	"TRUE"	"MullerLyer"	"8.2142900000"	"0.1454100000"	"1"	"36"
n/a	"html-keyboard-response"	"89"	"7946678"	"0.0-5.0-2.0-0.18"	"6xn7ka"	"600"	"1366"	"chrome"	"109.0.0"	"FALSE"	"Windows 10"	"60.67"	"022"	n/a	n/a	n/a	n/a	n/a	n/a	"fixation"	n/a	n/a	n/a	n/a	"NULL"	n/a	"NULL"	"NULL"	"NULL"	"<p style=\"color: black; font-size: 80px; padding-left: 47%; padding-right: 9%; padding-top: 44%; padding-bottom: 17%\">+</p>"	"1193"	n/a	n/a	n/a	n/a	n/a	n/a	n/a	n/a	n/a
n/a	"image-keyboard-response"	"90"	"7947162"	"0.0-5.0-2.0-1.18"	"6xn7ka"	"600"	"1366"	"chrome"	"109.0.0"	"FALSE"	"Windows 10"	"60.67"	"022"	n/a	n/a	n/a	n/a	n/a	n/a	"Trial"	n/a	n/a	n/a	"483"	"arrowdown"	n/a	"NULL"	"NULL"	"NULL"	"stimuli/MullerLyer_-14.12857_-0.23665.png"	n/a	"MullerLyer"	"arrowdown"	"1202"	"TRUE"	"MullerLyer"	"-14.12857000"	"-0.236650000"	"1"	"37"
n/a	"html-keyboard-response"	"91"	"7948247"	"0.0-5.0-2.0-0.19"	"6xn7ka"	"600"	"1366"	"chrome"	"109.0.0"	"FALSE"	"Windows 10"	"60.67"	"022"	n/a	n/a	n/a	n/a	n/a	n/a	"fixation"	n/a	n/a	n/a	n/a	"NULL"	n/a	"NULL"	"NULL"	"NULL"	"<p style=\"color: black; font-size: 80px; padding-left: 2%; padding-right: 40%; padding-top: 28%; padding-bottom: 31%\">+</p>"	"1073"	n/a	n/a	n/a	n/a	n/a	n/a	n/a	n/a	n/a
n/a	"image-keyboard-response"	"92"	"7948687"	"0.0-5.0-2.0-1.19"	"6xn7ka"	"600"	"1366"	"chrome"	"109.0.0"	"FALSE"	"Windows 10"	"60.67"	"022"	n/a	n/a	n/a	n/a	n/a	n/a	"Trial"	n/a	n/a	n/a	"439"	"arrowdown"	n/a	"NULL"	"NULL"	"NULL"	"stimuli/MullerLyer_-14.12857_-0.3500.png"	n/a	"MullerLyer"	"arrowdown"	"1085"	"TRUE"	"MullerLyer"	"-14.12857000"	"-0.350000000"	"1"	"38"
n/a	"html-keyboard-response"	"93"	"7949800"	"0.0-5.0-2.0-0.20"	"6xn7ka"	"600"	"1366"	"chrome"	"109.0.0"	"FALSE"	"Windows 10"	"60.67"	"022"	n/a	n/a	n/a	n/a	n/a	n/a	"fixation"	n/a	n/a	n/a	n/a	"NULL"	n/a	"NULL"	"NULL"	"NULL"	"<p style=\"color: black; font-size: 80px; padding-left: 26%; padding-right: 3%; padding-top: 41%; padding-bottom: 19%\">+</p>"	"1092"	n/a	n/a	n/a	n/a	n/a	n/a	n/a	n/a	n/a
n/a	"image-keyboard-response"	"94"	"7950293"	"0.0-5.0-2.0-1.20"	"6xn7ka"	"600"	"1366"	"chrome"	"109.0.0"	"FALSE"	"Windows 10"	"60.67"	"022"	n/a	n/a	n/a	n/a	n/a	n/a	"Trial"	n/a	n/a	n/a	"493"	"arrowup"	n/a	"NULL"	"NULL"	"NULL"	"stimuli/MullerLyer_-8.21429_0.35000.png"	n/a	"MullerLyer"	"arrowup"	"1113"	"TRUE"	"MullerLyer"	"-8.214290000"	"0.3500000000"	"1"	"39"
n/a	"html-keyboard-response"	"95"	"7951610"	"0.0-5.0-2.0-0.21"	"6xn7ka"	"600"	"1366"	"chrome"	"109.0.0"	"FALSE"	"Windows 10"	"60.67"	"022"	n/a	n/a	n/a	n/a	n/a	n/a	"fixation"	n/a	n/a	n/a	n/a	"NULL"	n/a	"NULL"	"NULL"	"NULL"	"<p style=\"color: black; font-size: 80px; padding-left: 48%; padding-right: 2%; padding-top: 10%; padding-bottom: 44%\">+</p>"	"1293"	n/a	n/a	n/a	n/a	n/a	n/a	n/a	n/a	n/a
n/a	"image-keyboard-response"	"96"	"7952053"	"0.0-5.0-2.0-1.21"	"6xn7ka"	"600"	"1366"	"chrome"	"109.0.0"	"FALSE"	"Windows 10"	"60.67"	"022"	n/a	n/a	n/a	n/a	n/a	n/a	"Trial"	n/a	n/a	n/a	"442"	"arrowup"	n/a	"NULL"	"NULL"	"NULL"	"stimuli/MullerLyer_-2.3000_0.14541.png"	n/a	"MullerLyer"	"arrowup"	"1317"	"TRUE"	"MullerLyer"	"-2.300000000"	"0.1454100000"	"1"	"40"
n/a	"html-keyboard-response"	"97"	"7953434"	"0.0-5.0-2.0-0.22"	"6xn7ka"	"600"	"1366"	"chrome"	"109.0.0"	"FALSE"	"Windows 10"	"60.67"	"022"	n/a	n/a	n/a	n/a	n/a	n/a	"fixation"	n/a	n/a	n/a	n/a	"NULL"	n/a	"NULL"	"NULL"	"NULL"	"<p style=\"color: black; font-size: 80px; padding-left: 8%; padding-right: 23%; padding-top: 9%; padding-bottom: 21%\">+</p>"	"1372"	n/a	n/a	n/a	n/a	n/a	n/a	n/a	n/a	n/a
n/a	"image-keyboard-response"	"98"	"7953825"	"0.0-5.0-2.0-1.22"	"6xn7ka"	"600"	"1366"	"chrome"	"109.0.0"	"FALSE"	"Windows 10"	"60.67"	"022"	n/a	n/a	n/a	n/a	n/a	n/a	"Trial"	n/a	n/a	n/a	"390"	"arrowup"	n/a	"NULL"	"NULL"	"NULL"	"stimuli/MullerLyer_-20.04286_0.35000.png"	n/a	"MullerLyer"	"arrowup"	"1381"	"TRUE"	"MullerLyer"	"-20.04286000"	"0.3500000000"	"1"	"41"
n/a	"html-keyboard-response"	"99"	"7954906"	"0.0-5.0-2.0-0.23"	"6xn7ka"	"600"	"1366"	"chrome"	"109.0.0"	"FALSE"	"Windows 10"	"60.67"	"022"	n/a	n/a	n/a	n/a	n/a	n/a	"fixation"	n/a	n/a	n/a	n/a	"NULL"	n/a	"NULL"	"NULL"	"NULL"	"<p style=\"color: black; font-size: 80px; padding-left: 36%; padding-right: 9%; padding-top: 49%; padding-bottom: 21%\">+</p>"	"1059"	n/a	n/a	n/a	n/a	n/a	n/a	n/a	n/a	n/a
n/a	"image-keyboard-response"	"100"	"7955284"	"0.0-5.0-2.0-1.23"	"6xn7ka"	"600"	"1366"	"chrome"	"109.0.0"	"FALSE"	"Windows 10"	"60.67"	"022"	n/a	n/a	n/a	n/a	n/a	n/a	"Trial"	n/a	n/a	n/a	"377"	"arrowup"	n/a	"NULL"	"NULL"	"NULL"	"stimuli/MullerLyer_-20.04286_0.14541.png"	n/a	"MullerLyer"	"arrowup"	"1081"	"TRUE"	"MullerLyer"	"-20.04286000"	"0.1454100000"	"1"	"42"
n/a	"html-keyboard-response"	"101"	"7956461"	"0.0-5.0-2.0-0.24"	"6xn7ka"	"600"	"1366"	"chrome"	"109.0.0"	"FALSE"	"Windows 10"	"60.67"	"022"	n/a	n/a	n/a	n/a	n/a	n/a	"fixation"	n/a	n/a	n/a	n/a	"NULL"	n/a	"NULL"	"NULL"	"NULL"	"<p style=\"color: black; font-size: 80px; padding-left: 48%; padding-right: 40%; padding-top: 4%; padding-bottom: 19%\">+</p>"	"1161"	n/a	n/a	n/a	n/a	n/a	n/a	n/a	n/a	n/a
n/a	"image-keyboard-response"	"102"	"7956827"	"0.0-5.0-2.0-1.24"	"6xn7ka"	"600"	"1366"	"chrome"	"109.0.0"	"FALSE"	"Windows 10"	"60.67"	"022"	n/a	n/a	n/a	n/a	n/a	n/a	"Trial"	n/a	n/a	n/a	"362"	"arrowup"	n/a	"NULL"	"NULL"	"NULL"	"stimuli/MullerLyer_20.04286_-0.14541.png"	n/a	"MullerLyer"	"arrowdown"	"1177"	"FALSE"	"MullerLyer"	"20.042860000"	"-0.145410000"	"1"	"43"
n/a	"html-keyboard-response"	"103"	"7958132"	"0.0-5.0-2.0-0.25"	"6xn7ka"	"600"	"1366"	"chrome"	"109.0.0"	"FALSE"	"Windows 10"	"60.67"	"022"	n/a	n/a	n/a	n/a	n/a	n/a	"fixation"	n/a	n/a	n/a	n/a	"NULL"	n/a	"NULL"	"NULL"	"NULL"	"<p style=\"color: black; font-size: 80px; padding-left: 45%; padding-right: 44%; padding-top: 5%; padding-bottom: 29%\">+</p>"	"1291"	n/a	n/a	n/a	n/a	n/a	n/a	n/a	n/a	n/a
n/a	"image-keyboard-response"	"104"	"7958517"	"0.0-5.0-2.0-1.25"	"6xn7ka"	"600"	"1366"	"chrome"	"109.0.0"	"FALSE"	"Windows 10"	"60.67"	"022"	n/a	n/a	n/a	n/a	n/a	n/a	"Trial"	n/a	n/a	n/a	"385"	"arrowup"	n/a	"NULL"	"NULL"	"NULL"	"stimuli/MullerLyer_-20.04286_0.23665.png"	n/a	"MullerLyer"	"arrowup"	"1305"	"TRUE"	"MullerLyer"	"-20.04286000"	"0.2366500000"	"1"	"44"
n/a	"html-keyboard-response"	"105"	"7959785"	"0.0-5.0-2.0-0.26"	"6xn7ka"	"600"	"1366"	"chrome"	"109.0.0"	"FALSE"	"Windows 10"	"60.67"	"022"	n/a	n/a	n/a	n/a	n/a	n/a	"fixation"	n/a	n/a	n/a	n/a	"NULL"	n/a	"NULL"	"NULL"	"NULL"	"<p style=\"color: black; font-size: 80px; padding-left: 26%; padding-right: 4%; padding-top: 11%; padding-bottom: 39%\">+</p>"	"1251"	n/a	n/a	n/a	n/a	n/a	n/a	n/a	n/a	n/a
n/a	"image-keyboard-response"	"106"	"7960314"	"0.0-5.0-2.0-1.26"	"6xn7ka"	"600"	"1366"	"chrome"	"109.0.0"	"FALSE"	"Windows 10"	"60.67"	"022"	n/a	n/a	n/a	n/a	n/a	n/a	"Trial"	n/a	n/a	n/a	"529"	"arrowdown"	n/a	"NULL"	"NULL"	"NULL"	"stimuli/MullerLyer_-20.04286_-0.07627.png"	n/a	"MullerLyer"	"arrowdown"	"1268"	"TRUE"	"MullerLyer"	"-20.04286000"	"-0.076270000"	"1"	"45"
n/a	"html-keyboard-response"	"107"	"7961663"	"0.0-5.0-2.0-0.27"	"6xn7ka"	"600"	"1366"	"chrome"	"109.0.0"	"FALSE"	"Windows 10"	"60.67"	"022"	n/a	n/a	n/a	n/a	n/a	n/a	"fixation"	n/a	n/a	n/a	n/a	"NULL"	n/a	"NULL"	"NULL"	"NULL"	"<p style=\"color: black; font-size: 80px; padding-left: 21%; padding-right: 2%; padding-top: 21%; padding-bottom: 28%\">+</p>"	"1339"	n/a	n/a	n/a	n/a	n/a	n/a	n/a	n/a	n/a
n/a	"image-keyboard-response"	"108"	"7962142"	"0.0-5.0-2.0-1.27"	"6xn7ka"	"600"	"1366"	"chrome"	"109.0.0"	"FALSE"	"Windows 10"	"60.67"	"022"	n/a	n/a	n/a	n/a	n/a	n/a	"Trial"	n/a	n/a	n/a	"478"	"arrowdown"	n/a	"NULL"	"NULL"	"NULL"	"stimuli/MullerLyer_20.04286_0.14541.png"	n/a	"MullerLyer"	"arrowup"	"1349"	"FALSE"	"MullerLyer"	"20.042860000"	"0.1454100000"	"1"	"46"
n/a	"html-keyboard-response"	"109"	"7963542"	"0.0-5.0-2.0-0.28"	"6xn7ka"	"600"	"1366"	"chrome"	"109.0.0"	"FALSE"	"Windows 10"	"60.67"	"022"	n/a	n/a	n/a	n/a	n/a	n/a	"fixation"	n/a	n/a	n/a	n/a	"NULL"	n/a	"NULL"	"NULL"	"NULL"	"<p style=\"color: black; font-size: 80px; padding-left: 10%; padding-right: 23%; padding-top: 46%; padding-bottom: 41%\">+</p>"	"1386"	n/a	n/a	n/a	n/a	n/a	n/a	n/a	n/a	n/a
n/a	"image-keyboard-response"	"110"	"7963915"	"0.0-5.0-2.0-1.28"	"6xn7ka"	"600"	"1366"	"chrome"	"109.0.0"	"FALSE"	"Windows 10"	"60.67"	"022"	n/a	n/a	n/a	n/a	n/a	n/a	"Trial"	n/a	n/a	n/a	"372"	"arrowup"	n/a	"NULL"	"NULL"	"NULL"	"stimuli/MullerLyer_14.12857_-0.23665.png"	n/a	"MullerLyer"	"arrowdown"	"1400"	"FALSE"	"MullerLyer"	"14.128570000"	"-0.236650000"	"1"	"47"
n/a	"html-keyboard-response"	"111"	"7965030"	"0.0-5.0-2.0-0.29"	"6xn7ka"	"600"	"1366"	"chrome"	"109.0.0"	"FALSE"	"Windows 10"	"60.67"	"022"	n/a	n/a	n/a	n/a	n/a	n/a	"fixation"	n/a	n/a	n/a	n/a	"NULL"	n/a	"NULL"	"NULL"	"NULL"	"<p style=\"color: black; font-size: 80px; padding-left: 31%; padding-right: 29%; padding-top: 19%; padding-bottom: 26%\">+</p>"	"1102"	n/a	n/a	n/a	n/a	n/a	n/a	n/a	n/a	n/a
n/a	"image-keyboard-response"	"112"	"7965487"	"0.0-5.0-2.0-1.29"	"6xn7ka"	"600"	"1366"	"chrome"	"109.0.0"	"FALSE"	"Windows 10"	"60.67"	"022"	n/a	n/a	n/a	n/a	n/a	n/a	"Trial"	n/a	n/a	n/a	"456"	"arrowdown"	n/a	"NULL"	"NULL"	"NULL"	"stimuli/MullerLyer_-8.21429_0.07627.png"	n/a	"MullerLyer"	"arrowup"	"1115"	"FALSE"	"MullerLyer"	"-8.214290000"	"0.0762700000"	"1"	"48"
n/a	"html-keyboard-response"	"113"	"7966579"	"0.0-5.0-2.0-0.30"	"6xn7ka"	"600"	"1366"	"chrome"	"109.0.0"	"FALSE"	"Windows 10"	"60.67"	"022"	n/a	n/a	n/a	n/a	n/a	n/a	"fixation"	n/a	n/a	n/a	n/a	"NULL"	n/a	"NULL"	"NULL"	"NULL"	"<p style=\"color: black; font-size: 80px; padding-left: 7%; padding-right: 11%; padding-top: 48%; padding-bottom: 11%\">+</p>"	"1070"	n/a	n/a	n/a	n/a	n/a	n/a	n/a	n/a	n/a
n/a	"image-keyboard-response"	"114"	"7967282"	"0.0-5.0-2.0-1.30"	"6xn7ka"	"600"	"1366"	"chrome"	"109.0.0"	"FALSE"	"Windows 10"	"60.67"	"022"	n/a	n/a	n/a	n/a	n/a	n/a	"Trial"	n/a	n/a	n/a	"702"	"arrowdown"	n/a	"NULL"	"NULL"	"NULL"	"stimuli/MullerLyer_-8.21429_-0.07627.png"	n/a	"MullerLyer"	"arrowdown"	"1092"	"TRUE"	"MullerLyer"	"-8.214290000"	"-0.076270000"	"1"	"49"
n/a	"html-keyboard-response"	"115"	"7968496"	"0.0-5.0-2.0-0.31"	"6xn7ka"	"600"	"1366"	"chrome"	"109.0.0"	"FALSE"	"Windows 10"	"60.67"	"022"	n/a	n/a	n/a	n/a	n/a	n/a	"fixation"	n/a	n/a	n/a	n/a	"NULL"	n/a	"NULL"	"NULL"	"NULL"	"<p style=\"color: black; font-size: 80px; padding-left: 2%; padding-right: 16%; padding-top: 6%; padding-bottom: 13%\">+</p>"	"1206"	n/a	n/a	n/a	n/a	n/a	n/a	n/a	n/a	n/a
n/a	"image-keyboard-response"	"116"	"7969137"	"0.0-5.0-2.0-1.31"	"6xn7ka"	"600"	"1366"	"chrome"	"109.0.0"	"FALSE"	"Windows 10"	"60.67"	"022"	n/a	n/a	n/a	n/a	n/a	n/a	"Trial"	n/a	n/a	n/a	"641"	"arrowdown"	n/a	"NULL"	"NULL"	"NULL"	"stimuli/MullerLyer_-2.3000_-0.07627.png"	n/a	"MullerLyer"	"arrowdown"	"1214"	"TRUE"	"MullerLyer"	"-2.300000000"	"-0.076270000"	"1"	"50"
n/a	"html-keyboard-response"	"117"	"7970434"	"0.0-5.0-2.0-0.32"	"6xn7ka"	"600"	"1366"	"chrome"	"109.0.0"	"FALSE"	"Windows 10"	"60.67"	"022"	n/a	n/a	n/a	n/a	n/a	n/a	"fixation"	n/a	n/a	n/a	n/a	"NULL"	n/a	"NULL"	"NULL"	"NULL"	"<p style=\"color: black; font-size: 80px; padding-left: 33%; padding-right: 17%; padding-top: 4%; padding-bottom: 37%\">+</p>"	"1287"	n/a	n/a	n/a	n/a	n/a	n/a	n/a	n/a	n/a
n/a	"image-keyboard-response"	"118"	"7970861"	"0.0-5.0-2.0-1.32"	"6xn7ka"	"600"	"1366"	"chrome"	"109.0.0"	"FALSE"	"Windows 10"	"60.67"	"022"	n/a	n/a	n/a	n/a	n/a	n/a	"Trial"	n/a	n/a	n/a	"425"	"arrowup"	n/a	"NULL"	"NULL"	"NULL"	"stimuli/MullerLyer_-14.12857_0.35000.png"	n/a	"MullerLyer"	"arrowup"	"1297"	"TRUE"	"MullerLyer"	"-14.12857000"	"0.3500000000"	"1"	"51"
n/a	"html-keyboard-response"	"119"	"7972341"	"0.0-5.0-2.0-0.33"	"6xn7ka"	"600"	"1366"	"chrome"	"109.0.0"	"FALSE"	"Windows 10"	"60.67"	"022"	n/a	n/a	n/a	n/a	n/a	n/a	"fixation"	n/a	n/a	n/a	n/a	"NULL"	n/a	"NULL"	"NULL"	"NULL"	"<p style=\"color: black; font-size: 80px; padding-left: 49%; padding-right: 1%; padding-top: 31%; padding-bottom: 29%\">+</p>"	"1464"	n/a	n/a	n/a	n/a	n/a	n/a	n/a	n/a	n/a
n/a	"image-keyboard-response"	"120"	"7972811"	"0.0-5.0-2.0-1.33"	"6xn7ka"	"600"	"1366"	"chrome"	"109.0.0"	"FALSE"	"Windows 10"	"60.67"	"022"	n/a	n/a	n/a	n/a	n/a	n/a	"Trial"	n/a	n/a	n/a	"470"	"arrowdown"	n/a	"NULL"	"NULL"	"NULL"	"stimuli/MullerLyer_-2.3000_-0.14541.png"	n/a	"MullerLyer"	"arrowdown"	"1480"	"TRUE"	"MullerLyer"	"-2.300000000"	"-0.145410000"	"1"	"52"
n/a	"html-keyboard-response"	"121"	"7974258"	"0.0-5.0-2.0-0.34"	"6xn7ka"	"600"	"1366"	"chrome"	"109.0.0"	"FALSE"	"Windows 10"	"60.67"	"022"	n/a	n/a	n/a	n/a	n/a	n/a	"fixation"	n/a	n/a	n/a	n/a	"NULL"	n/a	"NULL"	"NULL"	"NULL"	"<p style=\"color: black; font-size: 80px; padding-left: 39%; padding-right: 26%; padding-top: 25%; padding-bottom: 40%\">+</p>"	"1434"	n/a	n/a	n/a	n/a	n/a	n/a	n/a	n/a	n/a
n/a	"image-keyboard-response"	"122"	"7974738"	"0.0-5.0-2.0-1.34"	"6xn7ka"	"600"	"1366"	"chrome"	"109.0.0"	"FALSE"	"Windows 10"	"60.67"	"022"	n/a	n/a	n/a	n/a	n/a	n/a	"Trial"	n/a	n/a	n/a	"480"	"arrowup"	n/a	"NULL"	"NULL"	"NULL"	"stimuli/MullerLyer_-8.21429_0.14541.png"	n/a	"MullerLyer"	"arrowup"	"1447"	"TRUE"	"MullerLyer"	"-8.214290000"	"0.1454100000"	"1"	"53"
n/a	"html-keyboard-response"	"123"	"7975982"	"0.0-5.0-2.0-0.35"	"6xn7ka"	"600"	"1366"	"chrome"	"109.0.0"	"FALSE"	"Windows 10"	"60.67"	"022"	n/a	n/a	n/a	n/a	n/a	n/a	"fixation"	n/a	n/a	n/a	n/a	"NULL"	n/a	"NULL"	"NULL"	"NULL"	"<p style=\"color: black; font-size: 80px; padding-left: 6%; padding-right: 23%; padding-top: 5%; padding-bottom: 20%\">+</p>"	"1228"	n/a	n/a	n/a	n/a	n/a	n/a	n/a	n/a	n/a
n/a	"image-keyboard-response"	"124"	"7976436"	"0.0-5.0-2.0-1.35"	"6xn7ka"	"600"	"1366"	"chrome"	"109.0.0"	"FALSE"	"Windows 10"	"60.67"	"022"	n/a	n/a	n/a	n/a	n/a	n/a	"Trial"	n/a	n/a	n/a	"453"	"arrowup"	n/a	"NULL"	"NULL"	"NULL"	"stimuli/MullerLyer_-14.12857_0.07627.png"	n/a	"MullerLyer"	"arrowup"	"1244"	"TRUE"	"MullerLyer"	"-14.12857000"	"0.0762700000"	"1"	"54"
n/a	"html-keyboard-response"	"125"	"7977934"	"0.0-5.0-2.0-0.36"	"6xn7ka"	"600"	"1366"	"chrome"	"109.0.0"	"FALSE"	"Windows 10"	"60.67"	"022"	n/a	n/a	n/a	n/a	n/a	n/a	"fixation"	n/a	n/a	n/a	n/a	"NULL"	n/a	"NULL"	"NULL"	"NULL"	"<p style=\"color: black; font-size: 80px; padding-left: 22%; padding-right: 23%; padding-top: 17%; padding-bottom: 33%\">+</p>"	"1484"	n/a	n/a	n/a	n/a	n/a	n/a	n/a	n/a	n/a
n/a	"image-keyboard-response"	"126"	"7978348"	"0.0-5.0-2.0-1.36"	"6xn7ka"	"600"	"1366"	"chrome"	"109.0.0"	"FALSE"	"Windows 10"	"60.67"	"022"	n/a	n/a	n/a	n/a	n/a	n/a	"Trial"	n/a	n/a	n/a	"413"	"arrowup"	n/a	"NULL"	"NULL"	"NULL"	"stimuli/MullerLyer_14.12857_-0.07627.png"	n/a	"MullerLyer"	"arrowdown"	"1498"	"FALSE"	"MullerLyer"	"14.128570000"	"-0.076270000"	"1"	"55"
n/a	"html-keyboard-response"	"127"	"7979654"	"0.0-5.0-2.0-0.37"	"6xn7ka"	"600"	"1366"	"chrome"	"109.0.0"	"FALSE"	"Windows 10"	"60.67"	"022"	n/a	n/a	n/a	n/a	n/a	n/a	"fixation"	n/a	n/a	n/a	n/a	"NULL"	n/a	"NULL"	"NULL"	"NULL"	"<p style=\"color: black; font-size: 80px; padding-left: 40%; padding-right: 29%; padding-top: 15%; padding-bottom: 25%\">+</p>"	"1298"	n/a	n/a	n/a	n/a	n/a	n/a	n/a	n/a	n/a
n/a	"image-keyboard-response"	"128"	"7980180"	"0.0-5.0-2.0-1.37"	"6xn7ka"	"600"	"1366"	"chrome"	"109.0.0"	"FALSE"	"Windows 10"	"60.67"	"022"	n/a	n/a	n/a	n/a	n/a	n/a	"Trial"	n/a	n/a	n/a	"525"	"arrowdown"	n/a	"NULL"	"NULL"	"NULL"	"stimuli/MullerLyer_-20.04286_-0.14541.png"	n/a	"MullerLyer"	"arrowdown"	"1306"	"TRUE"	"MullerLyer"	"-20.04286000"	"-0.145410000"	"1"	"56"
n/a	"html-keyboard-response"	"129"	"7981639"	"0.0-5.0-2.0-0.38"	"6xn7ka"	"600"	"1366"	"chrome"	"109.0.0"	"FALSE"	"Windows 10"	"60.67"	"022"	n/a	n/a	n/a	n/a	n/a	n/a	"fixation"	n/a	n/a	n/a	n/a	"NULL"	n/a	"NULL"	"NULL"	"NULL"	"<p style=\"color: black; font-size: 80px; padding-left: 33%; padding-right: 47%; padding-top: 49%; padding-bottom: 33%\">+</p>"	"1443"	n/a	n/a	n/a	n/a	n/a	n/a	n/a	n/a	n/a
n/a	"image-keyboard-response"	"130"	"7982071"	"0.0-5.0-2.0-1.38"	"6xn7ka"	"600"	"1366"	"chrome"	"109.0.0"	"FALSE"	"Windows 10"	"60.67"	"022"	n/a	n/a	n/a	n/a	n/a	n/a	"Trial"	n/a	n/a	n/a	"432"	"arrowup"	n/a	"NULL"	"NULL"	"NULL"	"stimuli/MullerLyer_20.04286_0.23665.png"	n/a	"MullerLyer"	"arrowup"	"1459"	"TRUE"	"MullerLyer"	"20.042860000"	"0.2366500000"	"1"	"57"
n/a	"html-keyboard-response"	"131"	"7983337"	"0.0-5.0-2.0-0.39"	"6xn7ka"	"600"	"1366"	"chrome"	"109.0.0"	"FALSE"	"Windows 10"	"60.67"	"022"	n/a	n/a	n/a	n/a	n/a	n/a	"fixation"	n/a	n/a	n/a	n/a	"NULL"	n/a	"NULL"	"NULL"	"NULL"	"<p style=\"color: black; font-size: 80px; padding-left: 13%; padding-right: 13%; padding-top: 19%; padding-bottom: 25%\">+</p>"	"1258"	n/a	n/a	n/a	n/a	n/a	n/a	n/a	n/a	n/a
n/a	"image-keyboard-response"	"132"	"7983834"	"0.0-5.0-2.0-1.39"	"6xn7ka"	"600"	"1366"	"chrome"	"109.0.0"	"FALSE"	"Windows 10"	"60.67"	"022"	n/a	n/a	n/a	n/a	n/a	n/a	"Trial"	n/a	n/a	n/a	"496"	"arrowdown"	n/a	"NULL"	"NULL"	"NULL"	"stimuli/MullerLyer_2.30000_-0.07627.png"	n/a	"MullerLyer"	"arrowdown"	"1266"	"TRUE"	"MullerLyer"	"2.3000000000"	"-0.076270000"	"1"	"58"
n/a	"html-keyboard-response"	"133"	"7984906"	"0.0-5.0-2.0-0.40"	"6xn7ka"	"600"	"1366"	"chrome"	"109.0.0"	"FALSE"	"Windows 10"	"60.67"	"022"	n/a	n/a	n/a	n/a	n/a	n/a	"fixation"	n/a	n/a	n/a	n/a	"NULL"	n/a	"NULL"	"NULL"	"NULL"	"<p style=\"color: black; font-size: 80px; padding-left: 21%; padding-right: 9%; padding-top: 0%; padding-bottom: 14%\">+</p>"	"1051"	n/a	n/a	n/a	n/a	n/a	n/a	n/a	n/a	n/a
n/a	"image-keyboard-response"	"134"	"7985380"	"0.0-5.0-2.0-1.40"	"6xn7ka"	"600"	"1366"	"chrome"	"109.0.0"	"FALSE"	"Windows 10"	"60.67"	"022"	n/a	n/a	n/a	n/a	n/a	n/a	"Trial"	n/a	n/a	n/a	"470"	"arrowdown"	n/a	"NULL"	"NULL"	"NULL"	"stimuli/MullerLyer_-14.12857_-0.07627.png"	n/a	"MullerLyer"	"arrowdown"	"1072"	"TRUE"	"MullerLyer"	"-14.12857000"	"-0.076270000"	"1"	"59"
n/a	"html-keyboard-response"	"135"	"7986600"	"0.0-5.0-2.0-0.41"	"6xn7ka"	"600"	"1366"	"chrome"	"109.0.0"	"FALSE"	"Windows 10"	"60.67"	"022"	n/a	n/a	n/a	n/a	n/a	n/a	"fixation"	n/a	n/a	n/a	n/a	"NULL"	n/a	"NULL"	"NULL"	"NULL"	"<p style=\"color: black; font-size: 80px; padding-left: 34%; padding-right: 10%; padding-top: 22%; padding-bottom: 13%\">+</p>"	"1206"	n/a	n/a	n/a	n/a	n/a	n/a	n/a	n/a	n/a
n/a	"image-keyboard-response"	"136"	"7987201"	"0.0-5.0-2.0-1.41"	"6xn7ka"	"600"	"1366"	"chrome"	"109.0.0"	"FALSE"	"Windows 10"	"60.67"	"022"	n/a	n/a	n/a	n/a	n/a	n/a	"Trial"	n/a	n/a	n/a	"600"	"arrowdown"	n/a	"NULL"	"NULL"	"NULL"	"stimuli/MullerLyer_14.12857_0.23665.png"	n/a	"MullerLyer"	"arrowup"	"1220"	"FALSE"	"MullerLyer"	"14.128570000"	"0.2366500000"	"1"	"60"
n/a	"html-keyboard-response"	"137"	"7988453"	"0.0-5.0-2.0-0.42"	"6xn7ka"	"600"	"1366"	"chrome"	"109.0.0"	"FALSE"	"Windows 10"	"60.67"	"022"	n/a	n/a	n/a	n/a	n/a	n/a	"fixation"	n/a	n/a	n/a	n/a	"NULL"	n/a	"NULL"	"NULL"	"NULL"	"<p style=\"color: black; font-size: 80px; padding-left: 6%; padding-right: 40%; padding-top: 5%; padding-bottom: 29%\">+</p>"	"1245"	n/a	n/a	n/a	n/a	n/a	n/a	n/a	n/a	n/a
n/a	"image-keyboard-response"	"138"	"7988889"	"0.0-5.0-2.0-1.42"	"6xn7ka"	"600"	"1366"	"chrome"	"109.0.0"	"FALSE"	"Windows 10"	"60.67"	"022"	n/a	n/a	n/a	n/a	n/a	n/a	"Trial"	n/a	n/a	n/a	"434"	"arrowdown"	n/a	"NULL"	"NULL"	"NULL"	"stimuli/MullerLyer_2.30000_-0.14541.png"	n/a	"MullerLyer"	"arrowdown"	"1252"	"TRUE"	"MullerLyer"	"2.3000000000"	"-0.145410000"	"1"	"61"
n/a	"html-keyboard-response"	"139"	"7990105"	"0.0-5.0-2.0-0.43"	"6xn7ka"	"600"	"1366"	"chrome"	"109.0.0"	"FALSE"	"Windows 10"	"60.67"	"022"	n/a	n/a	n/a	n/a	n/a	n/a	"fixation"	n/a	n/a	n/a	n/a	"NULL"	n/a	"NULL"	"NULL"	"NULL"	"<p style=\"color: black; font-size: 80px; padding-left: 18%; padding-right: 5%; padding-top: 25%; padding-bottom: 15%\">+</p>"	"1201"	n/a	n/a	n/a	n/a	n/a	n/a	n/a	n/a	n/a
n/a	"image-keyboard-response"	"140"	"7990491"	"0.0-5.0-2.0-1.43"	"6xn7ka"	"600"	"1366"	"chrome"	"109.0.0"	"FALSE"	"Windows 10"	"60.67"	"022"	n/a	n/a	n/a	n/a	n/a	n/a	"Trial"	n/a	n/a	n/a	"385"	"arrowdown"	n/a	"NULL"	"NULL"	"NULL"	"stimuli/MullerLyer_14.12857_-0.3500.png"	n/a	"MullerLyer"	"arrowdown"	"1216"	"TRUE"	"MullerLyer"	"14.128570000"	"-0.350000000"	"1"	"62"
n/a	"html-keyboard-response"	"141"	"7991783"	"0.0-5.0-2.0-0.44"	"6xn7ka"	"600"	"1366"	"chrome"	"109.0.0"	"FALSE"	"Windows 10"	"60.67"	"022"	n/a	n/a	n/a	n/a	n/a	n/a	"fixation"	n/a	n/a	n/a	n/a	"NULL"	n/a	"NULL"	"NULL"	"NULL"	"<p style=\"color: black; font-size: 80px; padding-left: 27%; padding-right: 42%; padding-top: 8%; padding-bottom: 6%\">+</p>"	"1281"	n/a	n/a	n/a	n/a	n/a	n/a	n/a	n/a	n/a
n/a	"image-keyboard-response"	"142"	"7992218"	"0.0-5.0-2.0-1.44"	"6xn7ka"	"600"	"1366"	"chrome"	"109.0.0"	"FALSE"	"Windows 10"	"60.67"	"022"	n/a	n/a	n/a	n/a	n/a	n/a	"Trial"	n/a	n/a	n/a	"433"	"arrowdown"	n/a	"NULL"	"NULL"	"NULL"	"stimuli/MullerLyer_-2.3000_-0.23665.png"	n/a	"MullerLyer"	"arrowdown"	"1292"	"TRUE"	"MullerLyer"	"-2.300000000"	"-0.236650000"	"1"	"63"
n/a	"html-keyboard-response"	"143"	"7993448"	"0.0-5.0-2.0-0.45"	"6xn7ka"	"600"	"1366"	"chrome"	"109.0.0"	"FALSE"	"Windows 10"	"60.67"	"022"	n/a	n/a	n/a	n/a	n/a	n/a	"fixation"	n/a	n/a	n/a	n/a	"NULL"	n/a	"NULL"	"NULL"	"NULL"	"<p style=\"color: black; font-size: 80px; padding-left: 11%; padding-right: 39%; padding-top: 3%; padding-bottom: 10%\">+</p>"	"1222"	n/a	n/a	n/a	n/a	n/a	n/a	n/a	n/a	n/a
n/a	"image-keyboard-response"	"144"	"7993853"	"0.0-5.0-2.0-1.45"	"6xn7ka"	"600"	"1366"	"chrome"	"109.0.0"	"FALSE"	"Windows 10"	"60.67"	"022"	n/a	n/a	n/a	n/a	n/a	n/a	"Trial"	n/a	n/a	n/a	"404"	"arrowup"	n/a	"NULL"	"NULL"	"NULL"	"stimuli/MullerLyer_-14.12857_0.23665.png"	n/a	"MullerLyer"	"arrowup"	"1230"	"TRUE"	"MullerLyer"	"-14.12857000"	"0.2366500000"	"1"	"64"
n/a	"html-keyboard-response"	"145"	"7995116"	"0.0-5.0-2.0-0.46"	"6xn7ka"	"600"	"1366"	"chrome"	"109.0.0"	"FALSE"	"Windows 10"	"60.67"	"022"	n/a	n/a	n/a	n/a	n/a	n/a	"fixation"	n/a	n/a	n/a	n/a	"NULL"	n/a	"NULL"	"NULL"	"NULL"	"<p style=\"color: black; font-size: 80px; padding-left: 29%; padding-right: 32%; padding-top: 31%; padding-bottom: 2%\">+</p>"	"1238"	n/a	n/a	n/a	n/a	n/a	n/a	n/a	n/a	n/a
n/a	"image-keyboard-response"	"146"	"7995547"	"0.0-5.0-2.0-1.46"	"6xn7ka"	"600"	"1366"	"chrome"	"109.0.0"	"FALSE"	"Windows 10"	"60.67"	"022"	n/a	n/a	n/a	n/a	n/a	n/a	"Trial"	n/a	n/a	n/a	"431"	"arrowup"	n/a	"NULL"	"NULL"	"NULL"	"stimuli/MullerLyer_-2.3000_0.23665.png"	n/a	"MullerLyer"	"arrowup"	"1263"	"TRUE"	"MullerLyer"	"-2.300000000"	"0.2366500000"	"1"	"65"
n/a	"html-keyboard-response"	"147"	"7996680"	"0.0-5.0-2.0-0.47"	"6xn7ka"	"600"	"1366"	"chrome"	"109.0.0"	"FALSE"	"Windows 10"	"60.67"	"022"	n/a	n/a	n/a	n/a	n/a	n/a	"fixation"	n/a	n/a	n/a	n/a	"NULL"	n/a	"NULL"	"NULL"	"NULL"	"<p style=\"color: black; font-size: 80px; padding-left: 5%; padding-right: 39%; padding-top: 30%; padding-bottom: 6%\">+</p>"	"1118"	n/a	n/a	n/a	n/a	n/a	n/a	n/a	n/a	n/a
n/a	"image-keyboard-response"	"148"	"7997220"	"0.0-5.0-2.0-1.47"	"6xn7ka"	"600"	"1366"	"chrome"	"109.0.0"	"FALSE"	"Windows 10"	"60.67"	"022"	n/a	n/a	n/a	n/a	n/a	n/a	"Trial"	n/a	n/a	n/a	"539"	"arrowdown"	n/a	"NULL"	"NULL"	"NULL"	"stimuli/MullerLyer_20.04286_-0.3500.png"	n/a	"MullerLyer"	"arrowdown"	"1133"	"TRUE"	"MullerLyer"	"20.042860000"	"-0.350000000"	"1"	"66"
n/a	"html-keyboard-response"	"149"	"7998283"	"0.0-5.0-2.0-0.48"	"6xn7ka"	"600"	"1366"	"chrome"	"109.0.0"	"FALSE"	"Windows 10"	"60.67"	"022"	n/a	n/a	n/a	n/a	n/a	n/a	"fixation"	n/a	n/a	n/a	n/a	"NULL"	n/a	"NULL"	"NULL"	"NULL"	"<p style=\"color: black; font-size: 80px; padding-left: 9%; padding-right: 47%; padding-top: 43%; padding-bottom: 37%\">+</p>"	"1047"	n/a	n/a	n/a	n/a	n/a	n/a	n/a	n/a	n/a
n/a	"image-keyboard-response"	"150"	"7998805"	"0.0-5.0-2.0-1.48"	"6xn7ka"	"600"	"1366"	"chrome"	"109.0.0"	"FALSE"	"Windows 10"	"60.67"	"022"	n/a	n/a	n/a	n/a	n/a	n/a	"Trial"	n/a	n/a	n/a	"521"	"arrowdown"	n/a	"NULL"	"NULL"	"NULL"	"stimuli/MullerLyer_2.30000_-0.23665.png"	n/a	"MullerLyer"	"arrowdown"	"1063"	"TRUE"	"MullerLyer"	"2.3000000000"	"-0.236650000"	"1"	"67"
n/a	"html-keyboard-response"	"151"	"8000245"	"0.0-5.0-2.0-0.49"	"6xn7ka"	"600"	"1366"	"chrome"	"109.0.0"	"FALSE"	"Windows 10"	"60.67"	"022"	n/a	n/a	n/a	n/a	n/a	n/a	"fixation"	n/a	n/a	n/a	n/a	"NULL"	n/a	"NULL"	"NULL"	"NULL"	"<p style=\"color: black; font-size: 80px; padding-left: 32%; padding-right: 38%; padding-top: 10%; padding-bottom: 47%\">+</p>"	"1428"	n/a	n/a	n/a	n/a	n/a	n/a	n/a	n/a	n/a
n/a	"image-keyboard-response"	"152"	"8000695"	"0.0-5.0-2.0-1.49"	"6xn7ka"	"600"	"1366"	"chrome"	"109.0.0"	"FALSE"	"Windows 10"	"60.67"	"022"	n/a	n/a	n/a	n/a	n/a	n/a	"Trial"	n/a	n/a	n/a	"449"	"arrowup"	n/a	"NULL"	"NULL"	"NULL"	"stimuli/MullerLyer_-2.3000_0.35000.png"	n/a	"MullerLyer"	"arrowup"	"1440"	"TRUE"	"MullerLyer"	"-2.300000000"	"0.3500000000"	"1"	"68"
n/a	"html-keyboard-response"	"153"	"8002191"	"0.0-5.0-2.0-0.50"	"6xn7ka"	"600"	"1366"	"chrome"	"109.0.0"	"FALSE"	"Windows 10"	"60.67"	"022"	n/a	n/a	n/a	n/a	n/a	n/a	"fixation"	n/a	n/a	n/a	n/a	"NULL"	n/a	"NULL"	"NULL"	"NULL"	"<p style=\"color: black; font-size: 80px; padding-left: 22%; padding-right: 36%; padding-top: 49%; padding-bottom: 4%\">+</p>"	"1479"	n/a	n/a	n/a	n/a	n/a	n/a	n/a	n/a	n/a
n/a	"image-keyboard-response"	"154"	"8002574"	"0.0-5.0-2.0-1.50"	"6xn7ka"	"600"	"1366"	"chrome"	"109.0.0"	"FALSE"	"Windows 10"	"60.67"	"022"	n/a	n/a	n/a	n/a	n/a	n/a	"Trial"	n/a	n/a	n/a	"382"	"arrowup"	n/a	"NULL"	"NULL"	"NULL"	"stimuli/MullerLyer_2.30000_0.14541.png"	n/a	"MullerLyer"	"arrowup"	"1496"	"TRUE"	"MullerLyer"	"2.3000000000"	"0.1454100000"	"1"	"69"
n/a	"html-keyboard-response"	"155"	"8004081"	"0.0-5.0-2.0-0.51"	"6xn7ka"	"600"	"1366"	"chrome"	"109.0.0"	"FALSE"	"Windows 10"	"60.67"	"022"	n/a	n/a	n/a	n/a	n/a	n/a	"fixation"	n/a	n/a	n/a	n/a	"NULL"	n/a	"NULL"	"NULL"	"NULL"	"<p style=\"color: black; font-size: 80px; padding-left: 31%; padding-right: 50%; padding-top: 1%; padding-bottom: 41%\">+</p>"	"1491"	n/a	n/a	n/a	n/a	n/a	n/a	n/a	n/a	n/a
n/a	"image-keyboard-response"	"156"	"8004458"	"0.0-5.0-2.0-1.51"	"6xn7ka"	"600"	"1366"	"chrome"	"109.0.0"	"FALSE"	"Windows 10"	"60.67"	"022"	n/a	n/a	n/a	n/a	n/a	n/a	"Trial"	n/a	n/a	n/a	"376"	"arrowdown"	n/a	"NULL"	"NULL"	"NULL"	"stimuli/MullerLyer_-8.21429_-0.23665.png"	n/a	"MullerLyer"	"arrowdown"	"1507"	"TRUE"	"MullerLyer"	"-8.214290000"	"-0.236650000"	"1"	"70"
n/a	"html-keyboard-response"	"157"	"8005950"	"0.0-5.0-2.0-0.52"	"6xn7ka"	"600"	"1366"	"chrome"	"109.0.0"	"FALSE"	"Windows 10"	"60.67"	"022"	n/a	n/a	n/a	n/a	n/a	n/a	"fixation"	n/a	n/a	n/a	n/a	"NULL"	n/a	"NULL"	"NULL"	"NULL"	"<p style=\"color: black; font-size: 80px; padding-left: 43%; padding-right: 50%; padding-top: 1%; padding-bottom: 36%\">+</p>"	"1480"	n/a	n/a	n/a	n/a	n/a	n/a	n/a	n/a	n/a
n/a	"image-keyboard-response"	"158"	"8006450"	"0.0-5.0-2.0-1.52"	"6xn7ka"	"600"	"1366"	"chrome"	"109.0.0"	"FALSE"	"Windows 10"	"60.67"	"022"	n/a	n/a	n/a	n/a	n/a	n/a	"Trial"	n/a	n/a	n/a	"499"	"arrowdown"	n/a	"NULL"	"NULL"	"NULL"	"stimuli/MullerLyer_8.21429_0.07627.png"	n/a	"MullerLyer"	"arrowup"	"1492"	"FALSE"	"MullerLyer"	"8.2142900000"	"0.0762700000"	"1"	"71"
n/a	"html-keyboard-response"	"159"	"8007640"	"0.0-5.0-2.0-0.53"	"6xn7ka"	"600"	"1366"	"chrome"	"109.0.0"	"FALSE"	"Windows 10"	"60.67"	"022"	n/a	n/a	n/a	n/a	n/a	n/a	"fixation"	n/a	n/a	n/a	n/a	"NULL"	n/a	"NULL"	"NULL"	"NULL"	"<p style=\"color: black; font-size: 80px; padding-left: 13%; padding-right: 45%; padding-top: 14%; padding-bottom: 15%\">+</p>"	"1170"	n/a	n/a	n/a	n/a	n/a	n/a	n/a	n/a	n/a
n/a	"image-keyboard-response"	"160"	"8008110"	"0.0-5.0-2.0-1.53"	"6xn7ka"	"600"	"1366"	"chrome"	"109.0.0"	"FALSE"	"Windows 10"	"60.67"	"022"	n/a	n/a	n/a	n/a	n/a	n/a	"Trial"	n/a	n/a	n/a	"470"	"arrowdown"	n/a	"NULL"	"NULL"	"NULL"	"stimuli/MullerLyer_-20.04286_-0.3500.png"	n/a	"MullerLyer"	"arrowdown"	"1190"	"TRUE"	"MullerLyer"	"-20.04286000"	"-0.350000000"	"1"	"72"
n/a	"html-keyboard-response"	"161"	"8009561"	"0.0-5.0-2.0-0.54"	"6xn7ka"	"600"	"1366"	"chrome"	"109.0.0"	"FALSE"	"Windows 10"	"60.67"	"022"	n/a	n/a	n/a	n/a	n/a	n/a	"fixation"	n/a	n/a	n/a	n/a	"NULL"	n/a	"NULL"	"NULL"	"NULL"	"<p style=\"color: black; font-size: 80px; padding-left: 46%; padding-right: 40%; padding-top: 13%; padding-bottom: 24%\">+</p>"	"1431"	n/a	n/a	n/a	n/a	n/a	n/a	n/a	n/a	n/a
n/a	"image-keyboard-response"	"162"	"8010018"	"0.0-5.0-2.0-1.54"	"6xn7ka"	"600"	"1366"	"chrome"	"109.0.0"	"FALSE"	"Windows 10"	"60.67"	"022"	n/a	n/a	n/a	n/a	n/a	n/a	"Trial"	n/a	n/a	n/a	"456"	"arrowup"	n/a	"NULL"	"NULL"	"NULL"	"stimuli/MullerLyer_14.12857_0.35000.png"	n/a	"MullerLyer"	"arrowup"	"1451"	"TRUE"	"MullerLyer"	"14.128570000"	"0.3500000000"	"1"	"73"
n/a	"html-keyboard-response"	"163"	"8011422"	"0.0-5.0-2.0-0.55"	"6xn7ka"	"600"	"1366"	"chrome"	"109.0.0"	"FALSE"	"Windows 10"	"60.67"	"022"	n/a	n/a	n/a	n/a	n/a	n/a	"fixation"	n/a	n/a	n/a	n/a	"NULL"	n/a	"NULL"	"NULL"	"NULL"	"<p style=\"color: black; font-size: 80px; padding-left: 4%; padding-right: 3%; padding-top: 46%; padding-bottom: 41%\">+</p>"	"1390"	n/a	n/a	n/a	n/a	n/a	n/a	n/a	n/a	n/a
n/a	"image-keyboard-response"	"164"	"8011857"	"0.0-5.0-2.0-1.55"	"6xn7ka"	"600"	"1366"	"chrome"	"109.0.0"	"FALSE"	"Windows 10"	"60.67"	"022"	n/a	n/a	n/a	n/a	n/a	n/a	"Trial"	n/a	n/a	n/a	"433"	"arrowup"	n/a	"NULL"	"NULL"	"NULL"	"stimuli/MullerLyer_14.12857_-0.14541.png"	n/a	"MullerLyer"	"arrowdown"	"1404"	"FALSE"	"MullerLyer"	"14.128570000"	"-0.145410000"	"1"	"74"
n/a	"html-keyboard-response"	"165"	"8013118"	"0.0-5.0-2.0-0.56"	"6xn7ka"	"600"	"1366"	"chrome"	"109.0.0"	"FALSE"	"Windows 10"	"60.67"	"022"	n/a	n/a	n/a	n/a	n/a	n/a	"fixation"	n/a	n/a	n/a	n/a	"NULL"	n/a	"NULL"	"NULL"	"NULL"	"<p style=\"color: black; font-size: 80px; padding-left: 14%; padding-right: 6%; padding-top: 29%; padding-bottom: 44%\">+</p>"	"1243"	n/a	n/a	n/a	n/a	n/a	n/a	n/a	n/a	n/a
n/a	"image-keyboard-response"	"166"	"8013511"	"0.0-5.0-2.0-1.56"	"6xn7ka"	"600"	"1366"	"chrome"	"109.0.0"	"FALSE"	"Windows 10"	"60.67"	"022"	n/a	n/a	n/a	n/a	n/a	n/a	"Trial"	n/a	n/a	n/a	"393"	"arrowup"	n/a	"NULL"	"NULL"	"NULL"	"stimuli/MullerLyer_8.21429_0.35000.png"	n/a	"MullerLyer"	"arrowup"	"1261"	"TRUE"	"MullerLyer"	"8.2142900000"	"0.3500000000"	"1"	"75"
n/a	"html-keyboard-response"	"167"	"8014614"	"0.0-5.0-2.0-0.57"	"6xn7ka"	"600"	"1366"	"chrome"	"109.0.0"	"FALSE"	"Windows 10"	"60.67"	"022"	n/a	n/a	n/a	n/a	n/a	n/a	"fixation"	n/a	n/a	n/a	n/a	"NULL"	n/a	"NULL"	"NULL"	"NULL"	"<p style=\"color: black; font-size: 80px; padding-left: 7%; padding-right: 19%; padding-top: 25%; padding-bottom: 11%\">+</p>"	"1096"	n/a	n/a	n/a	n/a	n/a	n/a	n/a	n/a	n/a
n/a	"image-keyboard-response"	"168"	"8015060"	"0.0-5.0-2.0-1.57"	"6xn7ka"	"600"	"1366"	"chrome"	"109.0.0"	"FALSE"	"Windows 10"	"60.67"	"022"	n/a	n/a	n/a	n/a	n/a	n/a	"Trial"	n/a	n/a	n/a	"443"	"arrowup"	n/a	"NULL"	"NULL"	"NULL"	"stimuli/MullerLyer_20.04286_-0.23665.png"	n/a	"MullerLyer"	"arrowdown"	"1103"	"FALSE"	"MullerLyer"	"20.042860000"	"-0.236650000"	"1"	"76"
n/a	"html-keyboard-response"	"169"	"8016494"	"0.0-5.0-2.0-0.58"	"6xn7ka"	"600"	"1366"	"chrome"	"109.0.0"	"FALSE"	"Windows 10"	"60.67"	"022"	n/a	n/a	n/a	n/a	n/a	n/a	"fixation"	n/a	n/a	n/a	n/a	"NULL"	n/a	"NULL"	"NULL"	"NULL"	"<p style=\"color: black; font-size: 80px; padding-left: 24%; padding-right: 49%; padding-top: 42%; padding-bottom: 4%\">+</p>"	"1428"	n/a	n/a	n/a	n/a	n/a	n/a	n/a	n/a	n/a
n/a	"image-keyboard-response"	"170"	"8016879"	"0.0-5.0-2.0-1.58"	"6xn7ka"	"600"	"1366"	"chrome"	"109.0.0"	"FALSE"	"Windows 10"	"60.67"	"022"	n/a	n/a	n/a	n/a	n/a	n/a	"Trial"	n/a	n/a	n/a	"384"	"arrowup"	n/a	"NULL"	"NULL"	"NULL"	"stimuli/MullerLyer_2.30000_0.07627.png"	n/a	"MullerLyer"	"arrowup"	"1434"	"TRUE"	"MullerLyer"	"2.3000000000"	"0.0762700000"	"1"	"77"
n/a	"html-keyboard-response"	"171"	"8018379"	"0.0-5.0-2.0-0.59"	"6xn7ka"	"600"	"1366"	"chrome"	"109.0.0"	"FALSE"	"Windows 10"	"60.67"	"022"	n/a	n/a	n/a	n/a	n/a	n/a	"fixation"	n/a	n/a	n/a	n/a	"NULL"	n/a	"NULL"	"NULL"	"NULL"	"<p style=\"color: black; font-size: 80px; padding-left: 17%; padding-right: 9%; padding-top: 35%; padding-bottom: 18%\">+</p>"	"1491"	n/a	n/a	n/a	n/a	n/a	n/a	n/a	n/a	n/a
n/a	"image-keyboard-response"	"172"	"8018739"	"0.0-5.0-2.0-1.59"	"6xn7ka"	"600"	"1366"	"chrome"	"109.0.0"	"FALSE"	"Windows 10"	"60.67"	"022"	n/a	n/a	n/a	n/a	n/a	n/a	"Trial"	n/a	n/a	n/a	"359"	"arrowdown"	n/a	"NULL"	"NULL"	"NULL"	"stimuli/MullerLyer_-20.04286_-0.23665.png"	n/a	"MullerLyer"	"arrowdown"	"1500"	"TRUE"	"MullerLyer"	"-20.04286000"	"-0.236650000"	"1"	"78"
n/a	"html-keyboard-response"	"173"	"8019834"	"0.0-5.0-2.0-0.60"	"6xn7ka"	"600"	"1366"	"chrome"	"109.0.0"	"FALSE"	"Windows 10"	"60.67"	"022"	n/a	n/a	n/a	n/a	n/a	n/a	"fixation"	n/a	n/a	n/a	n/a	"NULL"	n/a	"NULL"	"NULL"	"NULL"	"<p style=\"color: black; font-size: 80px; padding-left: 17%; padding-right: 24%; padding-top: 49%; padding-bottom: 27%\">+</p>"	"1072"	n/a	n/a	n/a	n/a	n/a	n/a	n/a	n/a	n/a
n/a	"image-keyboard-response"	"174"	"8020342"	"0.0-5.0-2.0-1.60"	"6xn7ka"	"600"	"1366"	"chrome"	"109.0.0"	"FALSE"	"Windows 10"	"60.67"	"022"	n/a	n/a	n/a	n/a	n/a	n/a	"Trial"	n/a	n/a	n/a	"506"	"arrowdown"	n/a	"NULL"	"NULL"	"NULL"	"stimuli/MullerLyer_8.21429_-0.23665.png"	n/a	"MullerLyer"	"arrowdown"	"1095"	"TRUE"	"MullerLyer"	"8.2142900000"	"-0.236650000"	"1"	"79"
n/a	"html-keyboard-response"	"175"	"8021829"	"0.0-5.0-2.0-0.61"	"6xn7ka"	"600"	"1366"	"chrome"	"109.0.0"	"FALSE"	"Windows 10"	"60.67"	"022"	n/a	n/a	n/a	n/a	n/a	n/a	"fixation"	n/a	n/a	n/a	n/a	"NULL"	n/a	"NULL"	"NULL"	"NULL"	"<p style=\"color: black; font-size: 80px; padding-left: 32%; padding-right: 11%; padding-top: 38%; padding-bottom: 20%\">+</p>"	"1470"	n/a	n/a	n/a	n/a	n/a	n/a	n/a	n/a	n/a
n/a	"image-keyboard-response"	"176"	"8022255"	"0.0-5.0-2.0-1.61"	"6xn7ka"	"600"	"1366"	"chrome"	"109.0.0"	"FALSE"	"Windows 10"	"60.67"	"022"	n/a	n/a	n/a	n/a	n/a	n/a	"Trial"	n/a	n/a	n/a	"425"	"arrowdown"	n/a	"NULL"	"NULL"	"NULL"	"stimuli/MullerLyer_8.21429_-0.3500.png"	n/a	"MullerLyer"	"arrowdown"	"1487"	"TRUE"	"MullerLyer"	"8.2142900000"	"-0.350000000"	"1"	"80"
n/a	"html-keyboard-response"	"177"	"8023378"	"0.0-5.0-2.0-0.62"	"6xn7ka"	"600"	"1366"	"chrome"	"109.0.0"	"FALSE"	"Windows 10"	"60.67"	"022"	n/a	n/a	n/a	n/a	n/a	n/a	"fixation"	n/a	n/a	n/a	n/a	"NULL"	n/a	"NULL"	"NULL"	"NULL"	"<p style=\"color: black; font-size: 80px; padding-left: 30%; padding-right: 37%; padding-top: 5%; padding-bottom: 6%\">+</p>"	"1108"	n/a	n/a	n/a	n/a	n/a	n/a	n/a	n/a	n/a
n/a	"image-keyboard-response"	"178"	"8023910"	"0.0-5.0-2.0-1.62"	"6xn7ka"	"600"	"1366"	"chrome"	"109.0.0"	"FALSE"	"Windows 10"	"60.67"	"022"	n/a	n/a	n/a	n/a	n/a	n/a	"Trial"	n/a	n/a	n/a	"532"	"arrowup"	n/a	"NULL"	"NULL"	"NULL"	"stimuli/MullerLyer_20.04286_-0.07627.png"	n/a	"MullerLyer"	"arrowdown"	"1123"	"FALSE"	"MullerLyer"	"20.042860000"	"-0.076270000"	"1"	"81"
n/a	"html-keyboard-response"	"179"	"8024945"	"0.0-5.0-2.0-0.63"	"6xn7ka"	"600"	"1366"	"chrome"	"109.0.0"	"FALSE"	"Windows 10"	"60.67"	"022"	n/a	n/a	n/a	n/a	n/a	n/a	"fixation"	n/a	n/a	n/a	n/a	"NULL"	n/a	"NULL"	"NULL"	"NULL"	"<p style=\"color: black; font-size: 80px; padding-left: 46%; padding-right: 48%; padding-top: 19%; padding-bottom: 26%\">+</p>"	"1014"	n/a	n/a	n/a	n/a	n/a	n/a	n/a	n/a	n/a
n/a	"image-keyboard-response"	"180"	"8025482"	"0.0-5.0-2.0-1.63"	"6xn7ka"	"600"	"1366"	"chrome"	"109.0.0"	"FALSE"	"Windows 10"	"60.67"	"022"	n/a	n/a	n/a	n/a	n/a	n/a	"Trial"	n/a	n/a	n/a	"536"	"arrowdown"	n/a	"NULL"	"NULL"	"NULL"	"stimuli/MullerLyer_-2.3000_-0.3500.png"	n/a	"MullerLyer"	"arrowdown"	"1035"	"TRUE"	"MullerLyer"	"-2.300000000"	"-0.350000000"	"1"	"82"
n/a	"html-button-response"	"181"	"8051538"	"0.0-5.0-3.0"	"6xn7ka"	"600"	"1366"	"chrome"	"109.0.0"	"FALSE"	"Windows 10"	"60.67"	"022"	n/a	n/a	n/a	n/a	n/a	n/a	"block_results"	n/a	n/a	n/a	"26053"	"0"	n/a	"NULL"	"NULL"	"NULL"	"<p>Your score for this illusion is <p style=\"color: black; font-size: 48px; font-weight: bold;\">82.9 %</p><hr><p>Can you do better in the next illusion?</p>"	n/a	n/a	n/a	n/a	n/a	n/a	n/a	n/a	n/a	n/a
"TRUE"	"preload"	"182"	"8051756"	"0.0-6.0-0.0"	"6xn7ka"	"600"	"1366"	"chrome"	"109.0.0"	"FALSE"	"Windows 10"	"60.67"	"022"	n/a	n/a	n/a	n/a	n/a	n/a	n/a	n/a	n/a	n/a	n/a	"NULL"	"FALSE"	"list()"	"list()"	"list()"	n/a	n/a	n/a	n/a	n/a	n/a	n/a	n/a	n/a	n/a	n/a
n/a	"html-keyboard-response"	"183"	"8054601"	"0.0-6.0-1.0"	"6xn7ka"	"600"	"1366"	"chrome"	"109.0.0"	"FALSE"	"Windows 10"	"60.67"	"022"	n/a	n/a	n/a	n/a	n/a	n/a	n/a	n/a	n/a	n/a	"2844"	"enter"	n/a	"NULL"	"NULL"	"NULL"	"<p><b>Part 2/6</b></p><p>In this part, two red lines will appear side by side.</p><p>Your task is to tell <b>which line is longer</b> in length, regardless of their orientation, as fast as you can, and without making errors.</p><p>Don't get distracted by the orientation of the lines!</p><p>Press <b>the LEFT or the RIGHT arrow</b> to indicate which <b>line is the longer one.</b></p><div style='float: center'><img src='materials/instructions/VerticalHorizontal_Demo.png' height='300'></img><p><img src='utils/answer/answer_leftright_keyboard.PNG' height='150'></img></p><p class='small'>In this example, the correct answer is the <b>LEFT arrow</b>.</p></div><p>Are you ready? <b>Press ENTER to start</b></p>"	n/a	n/a	n/a	n/a	n/a	n/a	n/a	n/a	n/a	n/a
n/a	"html-keyboard-response"	"184"	"8056318"	"0.0-6.0-2.0-0.0"	"6xn7ka"	"600"	"1366"	"chrome"	"109.0.0"	"FALSE"	"Windows 10"	"60.67"	"022"	n/a	n/a	n/a	n/a	n/a	n/a	"fixation"	n/a	n/a	n/a	n/a	"NULL"	n/a	"NULL"	"NULL"	"NULL"	"<p style=\"color: black; font-size: 80px; padding-left: 48%; padding-right: 5%; padding-top: 35%; padding-bottom: 8%\">+</p>"	"1192"	n/a	n/a	n/a	n/a	n/a	n/a	n/a	n/a	n/a
n/a	"image-keyboard-response"	"185"	"8056761"	"0.0-6.0-2.0-1.0"	"6xn7ka"	"600"	"1366"	"chrome"	"109.0.0"	"FALSE"	"Windows 10"	"60.67"	"022"	n/a	n/a	n/a	n/a	n/a	n/a	"Trial"	n/a	n/a	n/a	"442"	"arrowleft"	n/a	"NULL"	"NULL"	"NULL"	"stimuli/VerticalHorizontal_11.78571_-0.1096.png"	n/a	"VerticalHorizontal"	"arrowright"	"1717"	"FALSE"	"VerticalHorizontal"	"11.785710000"	"-0.109600000"	"2"	"1"
n/a	"html-keyboard-response"	"186"	"8058061"	"0.0-6.0-2.0-0.1"	"6xn7ka"	"600"	"1366"	"chrome"	"109.0.0"	"FALSE"	"Windows 10"	"60.67"	"022"	n/a	n/a	n/a	n/a	n/a	n/a	"fixation"	n/a	n/a	n/a	n/a	"NULL"	n/a	"NULL"	"NULL"	"NULL"	"<p style=\"color: black; font-size: 80px; padding-left: 19%; padding-right: 38%; padding-top: 15%; padding-bottom: 23%\">+</p>"	"1294"	n/a	n/a	n/a	n/a	n/a	n/a	n/a	n/a	n/a
n/a	"image-keyboard-response"	"187"	"8058569"	"0.0-6.0-2.0-1.1"	"6xn7ka"	"600"	"1366"	"chrome"	"109.0.0"	"FALSE"	"Windows 10"	"60.67"	"022"	n/a	n/a	n/a	n/a	n/a	n/a	"Trial"	n/a	n/a	n/a	"507"	"arrowright"	n/a	"NULL"	"NULL"	"NULL"	"stimuli/VerticalHorizontal_-3.3000_-0.1096.png"	n/a	"VerticalHorizontal"	"arrowright"	"1300"	"TRUE"	"VerticalHorizontal"	"-3.300000000"	"-0.109600000"	"2"	"2"
n/a	"html-keyboard-response"	"188"	"8060071"	"0.0-6.0-2.0-0.2"	"6xn7ka"	"600"	"1366"	"chrome"	"109.0.0"	"FALSE"	"Windows 10"	"60.67"	"022"	n/a	n/a	n/a	n/a	n/a	n/a	"fixation"	n/a	n/a	n/a	n/a	"NULL"	n/a	"NULL"	"NULL"	"NULL"	"<p style=\"color: black; font-size: 80px; padding-left: 45%; padding-right: 48%; padding-top: 46%; padding-bottom: 28%\">+</p>"	"1483"	n/a	n/a	n/a	n/a	n/a	n/a	n/a	n/a	n/a
n/a	"image-keyboard-response"	"189"	"8060431"	"0.0-6.0-2.0-1.2"	"6xn7ka"	"600"	"1366"	"chrome"	"109.0.0"	"FALSE"	"Windows 10"	"60.67"	"022"	n/a	n/a	n/a	n/a	n/a	n/a	"Trial"	n/a	n/a	n/a	"360"	"arrowleft"	n/a	"NULL"	"NULL"	"NULL"	"stimuli/VerticalHorizontal_11.78571_-0.0673.png"	n/a	"VerticalHorizontal"	"arrowright"	"1502"	"FALSE"	"VerticalHorizontal"	"11.785710000"	"-0.067300000"	"2"	"3"
n/a	"html-keyboard-response"	"190"	"8061530"	"0.0-6.0-2.0-0.3"	"6xn7ka"	"600"	"1366"	"chrome"	"109.0.0"	"FALSE"	"Windows 10"	"60.67"	"022"	n/a	n/a	n/a	n/a	n/a	n/a	"fixation"	n/a	n/a	n/a	n/a	"NULL"	n/a	"NULL"	"NULL"	"NULL"	"<p style=\"color: black; font-size: 80px; padding-left: 20%; padding-right: 34%; padding-top: 13%; padding-bottom: 46%\">+</p>"	"1084"	n/a	n/a	n/a	n/a	n/a	n/a	n/a	n/a	n/a
n/a	"image-keyboard-response"	"191"	"8061937"	"0.0-6.0-2.0-1.3"	"6xn7ka"	"600"	"1366"	"chrome"	"109.0.0"	"FALSE"	"Windows 10"	"60.67"	"022"	n/a	n/a	n/a	n/a	n/a	n/a	"Trial"	n/a	n/a	n/a	"407"	"arrowleft"	n/a	"NULL"	"NULL"	"NULL"	"stimuli/VerticalHorizontal_-20.27143_0.06730.png"	n/a	"VerticalHorizontal"	"arrowleft"	"1099"	"TRUE"	"VerticalHorizontal"	"-20.27143000"	"0.0673000000"	"2"	"4"
n/a	"html-keyboard-response"	"192"	"8063181"	"0.0-6.0-2.0-0.4"	"6xn7ka"	"600"	"1366"	"chrome"	"109.0.0"	"FALSE"	"Windows 10"	"60.67"	"022"	n/a	n/a	n/a	n/a	n/a	n/a	"fixation"	n/a	n/a	n/a	n/a	"NULL"	n/a	"NULL"	"NULL"	"NULL"	"<p style=\"color: black; font-size: 80px; padding-left: 43%; padding-right: 0%; padding-top: 29%; padding-bottom: 2%\">+</p>"	"1235"	n/a	n/a	n/a	n/a	n/a	n/a	n/a	n/a	n/a
n/a	"image-keyboard-response"	"193"	"8063647"	"0.0-6.0-2.0-1.4"	"6xn7ka"	"600"	"1366"	"chrome"	"109.0.0"	"FALSE"	"Windows 10"	"60.67"	"022"	n/a	n/a	n/a	n/a	n/a	n/a	"Trial"	n/a	n/a	n/a	"466"	"arrowleft"	n/a	"NULL"	"NULL"	"NULL"	"stimuli/VerticalHorizontal_3.30000_0.16217.png"	n/a	"VerticalHorizontal"	"arrowleft"	"1244"	"TRUE"	"VerticalHorizontal"	"3.3000000000"	"0.1621700000"	"2"	"5"
n/a	"html-keyboard-response"	"194"	"8064710"	"0.0-6.0-2.0-0.5"	"6xn7ka"	"600"	"1366"	"chrome"	"109.0.0"	"FALSE"	"Windows 10"	"60.67"	"022"	n/a	n/a	n/a	n/a	n/a	n/a	"fixation"	n/a	n/a	n/a	n/a	"NULL"	n/a	"NULL"	"NULL"	"NULL"	"<p style=\"color: black; font-size: 80px; padding-left: 37%; padding-right: 36%; padding-top: 37%; padding-bottom: 15%\">+</p>"	"1043"	n/a	n/a	n/a	n/a	n/a	n/a	n/a	n/a	n/a
n/a	"image-keyboard-response"	"195"	"8065361"	"0.0-6.0-2.0-1.5"	"6xn7ka"	"600"	"1366"	"chrome"	"109.0.0"	"FALSE"	"Windows 10"	"60.67"	"022"	n/a	n/a	n/a	n/a	n/a	n/a	"Trial"	n/a	n/a	n/a	"650"	"arrowright"	n/a	"NULL"	"NULL"	"NULL"	"stimuli/VerticalHorizontal_-3.3000_-0.16217.png"	n/a	"VerticalHorizontal"	"arrowright"	"1063"	"TRUE"	"VerticalHorizontal"	"-3.300000000"	"-0.162170000"	"2"	"6"
n/a	"html-keyboard-response"	"196"	"8066400"	"0.0-6.0-2.0-0.6"	"6xn7ka"	"600"	"1366"	"chrome"	"109.0.0"	"FALSE"	"Windows 10"	"60.67"	"022"	n/a	n/a	n/a	n/a	n/a	n/a	"fixation"	n/a	n/a	n/a	n/a	"NULL"	n/a	"NULL"	"NULL"	"NULL"	"<p style=\"color: black; font-size: 80px; padding-left: 4%; padding-right: 14%; padding-top: 34%; padding-bottom: 43%\">+</p>"	"1022"	n/a	n/a	n/a	n/a	n/a	n/a	n/a	n/a	n/a
n/a	"image-keyboard-response"	"197"	"8066754"	"0.0-6.0-2.0-1.6"	"6xn7ka"	"600"	"1366"	"chrome"	"109.0.0"	"FALSE"	"Windows 10"	"60.67"	"022"	n/a	n/a	n/a	n/a	n/a	n/a	"Trial"	n/a	n/a	n/a	"353"	"arrowleft"	n/a	"NULL"	"NULL"	"NULL"	"stimuli/VerticalHorizontal_28.75714_-0.2250.png"	n/a	"VerticalHorizontal"	"arrowright"	"1039"	"FALSE"	"VerticalHorizontal"	"28.757140000"	"-0.225000000"	"2"	"7"
n/a	"html-keyboard-response"	"198"	"8068189"	"0.0-6.0-2.0-0.7"	"6xn7ka"	"600"	"1366"	"chrome"	"109.0.0"	"FALSE"	"Windows 10"	"60.67"	"022"	n/a	n/a	n/a	n/a	n/a	n/a	"fixation"	n/a	n/a	n/a	n/a	"NULL"	n/a	"NULL"	"NULL"	"NULL"	"<p style=\"color: black; font-size: 80px; padding-left: 22%; padding-right: 44%; padding-top: 5%; padding-bottom: 24%\">+</p>"	"1428"	n/a	n/a	n/a	n/a	n/a	n/a	n/a	n/a	n/a
n/a	"image-keyboard-response"	"199"	"8068533"	"0.0-6.0-2.0-1.7"	"6xn7ka"	"600"	"1366"	"chrome"	"109.0.0"	"FALSE"	"Windows 10"	"60.67"	"022"	n/a	n/a	n/a	n/a	n/a	n/a	"Trial"	n/a	n/a	n/a	"343"	"arrowleft"	n/a	"NULL"	"NULL"	"NULL"	"stimuli/VerticalHorizontal_-28.75714_0.06730.png"	n/a	"VerticalHorizontal"	"arrowleft"	"1435"	"TRUE"	"VerticalHorizontal"	"-28.75714000"	"0.0673000000"	"2"	"8"
n/a	"html-keyboard-response"	"200"	"8069821"	"0.0-6.0-2.0-0.8"	"6xn7ka"	"600"	"1366"	"chrome"	"109.0.0"	"FALSE"	"Windows 10"	"60.67"	"022"	n/a	n/a	n/a	n/a	n/a	n/a	"fixation"	n/a	n/a	n/a	n/a	"NULL"	n/a	"NULL"	"NULL"	"NULL"	"<p style=\"color: black; font-size: 80px; padding-left: 47%; padding-right: 30%; padding-top: 16%; padding-bottom: 4%\">+</p>"	"1271"	n/a	n/a	n/a	n/a	n/a	n/a	n/a	n/a	n/a
n/a	"image-keyboard-response"	"201"	"8070234"	"0.0-6.0-2.0-1.8"	"6xn7ka"	"600"	"1366"	"chrome"	"109.0.0"	"FALSE"	"Windows 10"	"60.67"	"022"	n/a	n/a	n/a	n/a	n/a	n/a	"Trial"	n/a	n/a	n/a	"412"	"arrowright"	n/a	"NULL"	"NULL"	"NULL"	"stimuli/VerticalHorizontal_-20.27143_-0.1096.png"	n/a	"VerticalHorizontal"	"arrowright"	"1288"	"TRUE"	"VerticalHorizontal"	"-20.27143000"	"-0.109600000"	"2"	"9"
n/a	"html-keyboard-response"	"202"	"8071280"	"0.0-6.0-2.0-0.9"	"6xn7ka"	"600"	"1366"	"chrome"	"109.0.0"	"FALSE"	"Windows 10"	"60.67"	"022"	n/a	n/a	n/a	n/a	n/a	n/a	"fixation"	n/a	n/a	n/a	n/a	"NULL"	n/a	"NULL"	"NULL"	"NULL"	"<p style=\"color: black; font-size: 80px; padding-left: 38%; padding-right: 8%; padding-top: 28%; padding-bottom: 3%\">+</p>"	"1035"	n/a	n/a	n/a	n/a	n/a	n/a	n/a	n/a	n/a
n/a	"image-keyboard-response"	"203"	"8071681"	"0.0-6.0-2.0-1.9"	"6xn7ka"	"600"	"1366"	"chrome"	"109.0.0"	"FALSE"	"Windows 10"	"60.67"	"022"	n/a	n/a	n/a	n/a	n/a	n/a	"Trial"	n/a	n/a	n/a	"400"	"arrowleft"	n/a	"NULL"	"NULL"	"NULL"	"stimuli/VerticalHorizontal_28.75714_-0.0673.png"	n/a	"VerticalHorizontal"	"arrowright"	"1046"	"FALSE"	"VerticalHorizontal"	"28.757140000"	"-0.067300000"	"2"	"10"
n/a	"html-keyboard-response"	"204"	"8072783"	"0.0-6.0-2.0-0.10"	"6xn7ka"	"600"	"1366"	"chrome"	"109.0.0"	"FALSE"	"Windows 10"	"60.67"	"022"	n/a	n/a	n/a	n/a	n/a	n/a	"fixation"	n/a	n/a	n/a	n/a	"NULL"	n/a	"NULL"	"NULL"	"NULL"	"<p style=\"color: black; font-size: 80px; padding-left: 34%; padding-right: 27%; padding-top: 28%; padding-bottom: 41%\">+</p>"	"1089"	n/a	n/a	n/a	n/a	n/a	n/a	n/a	n/a	n/a
n/a	"image-keyboard-response"	"205"	"8073178"	"0.0-6.0-2.0-1.10"	"6xn7ka"	"600"	"1366"	"chrome"	"109.0.0"	"FALSE"	"Windows 10"	"60.67"	"022"	n/a	n/a	n/a	n/a	n/a	n/a	"Trial"	n/a	n/a	n/a	"394"	"arrowright"	n/a	"NULL"	"NULL"	"NULL"	"stimuli/VerticalHorizontal_11.78571_0.06730.png"	n/a	"VerticalHorizontal"	"arrowleft"	"1102"	"FALSE"	"VerticalHorizontal"	"11.785710000"	"0.0673000000"	"2"	"11"
n/a	"html-keyboard-response"	"206"	"8074495"	"0.0-6.0-2.0-0.11"	"6xn7ka"	"600"	"1366"	"chrome"	"109.0.0"	"FALSE"	"Windows 10"	"60.67"	"022"	n/a	n/a	n/a	n/a	n/a	n/a	"fixation"	n/a	n/a	n/a	n/a	"NULL"	n/a	"NULL"	"NULL"	"NULL"	"<p style=\"color: black; font-size: 80px; padding-left: 33%; padding-right: 20%; padding-top: 5%; padding-bottom: 12%\">+</p>"	"1300"	n/a	n/a	n/a	n/a	n/a	n/a	n/a	n/a	n/a
n/a	"image-keyboard-response"	"207"	"8074867"	"0.0-6.0-2.0-1.11"	"6xn7ka"	"600"	"1366"	"chrome"	"109.0.0"	"FALSE"	"Windows 10"	"60.67"	"022"	n/a	n/a	n/a	n/a	n/a	n/a	"Trial"	n/a	n/a	n/a	"371"	"arrowleft"	n/a	"NULL"	"NULL"	"NULL"	"stimuli/VerticalHorizontal_-11.78571_0.10960.png"	n/a	"VerticalHorizontal"	"arrowleft"	"1317"	"TRUE"	"VerticalHorizontal"	"-11.78571000"	"0.1096000000"	"2"	"12"
n/a	"html-keyboard-response"	"208"	"8076348"	"0.0-6.0-2.0-0.12"	"6xn7ka"	"600"	"1366"	"chrome"	"109.0.0"	"FALSE"	"Windows 10"	"60.67"	"022"	n/a	n/a	n/a	n/a	n/a	n/a	"fixation"	n/a	n/a	n/a	n/a	"NULL"	n/a	"NULL"	"NULL"	"NULL"	"<p style=\"color: black; font-size: 80px; padding-left: 40%; padding-right: 24%; padding-top: 38%; padding-bottom: 47%\">+</p>"	"1477"	n/a	n/a	n/a	n/a	n/a	n/a	n/a	n/a	n/a
n/a	"image-keyboard-response"	"209"	"8076664"	"0.0-6.0-2.0-1.12"	"6xn7ka"	"600"	"1366"	"chrome"	"109.0.0"	"FALSE"	"Windows 10"	"60.67"	"022"	n/a	n/a	n/a	n/a	n/a	n/a	"Trial"	n/a	n/a	n/a	"315"	"arrowright"	n/a	"NULL"	"NULL"	"NULL"	"stimuli/VerticalHorizontal_-20.27143_-0.2250.png"	n/a	"VerticalHorizontal"	"arrowright"	"1481"	"TRUE"	"VerticalHorizontal"	"-20.27143000"	"-0.225000000"	"2"	"13"
n/a	"html-keyboard-response"	"210"	"8078077"	"0.0-6.0-2.0-0.13"	"6xn7ka"	"600"	"1366"	"chrome"	"109.0.0"	"FALSE"	"Windows 10"	"60.67"	"022"	n/a	n/a	n/a	n/a	n/a	n/a	"fixation"	n/a	n/a	n/a	n/a	"NULL"	n/a	"NULL"	"NULL"	"NULL"	"<p style=\"color: black; font-size: 80px; padding-left: 39%; padding-right: 35%; padding-top: 21%; padding-bottom: 30%\">+</p>"	"1395"	n/a	n/a	n/a	n/a	n/a	n/a	n/a	n/a	n/a
n/a	"image-keyboard-response"	"211"	"8078529"	"0.0-6.0-2.0-1.13"	"6xn7ka"	"600"	"1366"	"chrome"	"109.0.0"	"FALSE"	"Windows 10"	"60.67"	"022"	n/a	n/a	n/a	n/a	n/a	n/a	"Trial"	n/a	n/a	n/a	"451"	"arrowright"	n/a	"NULL"	"NULL"	"NULL"	"stimuli/VerticalHorizontal_11.78571_-0.16217.png"	n/a	"VerticalHorizontal"	"arrowright"	"1413"	"TRUE"	"VerticalHorizontal"	"11.785710000"	"-0.162170000"	"2"	"14"
n/a	"html-keyboard-response"	"212"	"8079742"	"0.0-6.0-2.0-0.14"	"6xn7ka"	"600"	"1366"	"chrome"	"109.0.0"	"FALSE"	"Windows 10"	"60.67"	"022"	n/a	n/a	n/a	n/a	n/a	n/a	"fixation"	n/a	n/a	n/a	n/a	"NULL"	n/a	"NULL"	"NULL"	"NULL"	"<p style=\"color: black; font-size: 80px; padding-left: 27%; padding-right: 3%; padding-top: 9%; padding-bottom: 40%\">+</p>"	"1207"	n/a	n/a	n/a	n/a	n/a	n/a	n/a	n/a	n/a
n/a	"image-keyboard-response"	"213"	"8080165"	"0.0-6.0-2.0-1.14"	"6xn7ka"	"600"	"1366"	"chrome"	"109.0.0"	"FALSE"	"Windows 10"	"60.67"	"022"	n/a	n/a	n/a	n/a	n/a	n/a	"Trial"	n/a	n/a	n/a	"422"	"arrowleft"	n/a	"NULL"	"NULL"	"NULL"	"stimuli/VerticalHorizontal_28.75714_-0.16217.png"	n/a	"VerticalHorizontal"	"arrowright"	"1213"	"FALSE"	"VerticalHorizontal"	"28.757140000"	"-0.162170000"	"2"	"15"
n/a	"html-keyboard-response"	"214"	"8081269"	"0.0-6.0-2.0-0.15"	"6xn7ka"	"600"	"1366"	"chrome"	"109.0.0"	"FALSE"	"Windows 10"	"60.67"	"022"	n/a	n/a	n/a	n/a	n/a	n/a	"fixation"	n/a	n/a	n/a	n/a	"NULL"	n/a	"NULL"	"NULL"	"NULL"	"<p style=\"color: black; font-size: 80px; padding-left: 28%; padding-right: 27%; padding-top: 3%; padding-bottom: 32%\">+</p>"	"1086"	n/a	n/a	n/a	n/a	n/a	n/a	n/a	n/a	n/a
n/a	"image-keyboard-response"	"215"	"8081744"	"0.0-6.0-2.0-1.15"	"6xn7ka"	"600"	"1366"	"chrome"	"109.0.0"	"FALSE"	"Windows 10"	"60.67"	"022"	n/a	n/a	n/a	n/a	n/a	n/a	"Trial"	n/a	n/a	n/a	"474"	"arrowleft"	n/a	"NULL"	"NULL"	"NULL"	"stimuli/VerticalHorizontal_-3.3000_0.10960.png"	n/a	"VerticalHorizontal"	"arrowleft"	"1104"	"TRUE"	"VerticalHorizontal"	"-3.300000000"	"0.1096000000"	"2"	"16"
n/a	"html-keyboard-response"	"216"	"8083103"	"0.0-6.0-2.0-0.16"	"6xn7ka"	"600"	"1366"	"chrome"	"109.0.0"	"FALSE"	"Windows 10"	"60.67"	"022"	n/a	n/a	n/a	n/a	n/a	n/a	"fixation"	n/a	n/a	n/a	n/a	"NULL"	n/a	"NULL"	"NULL"	"NULL"	"<p style=\"color: black; font-size: 80px; padding-left: 7%; padding-right: 32%; padding-top: 23%; padding-bottom: 47%\">+</p>"	"1346"	n/a	n/a	n/a	n/a	n/a	n/a	n/a	n/a	n/a
n/a	"image-keyboard-response"	"217"	"8083551"	"0.0-6.0-2.0-1.16"	"6xn7ka"	"600"	"1366"	"chrome"	"109.0.0"	"FALSE"	"Windows 10"	"60.67"	"022"	n/a	n/a	n/a	n/a	n/a	n/a	"Trial"	n/a	n/a	n/a	"448"	"arrowleft"	n/a	"NULL"	"NULL"	"NULL"	"stimuli/VerticalHorizontal_3.30000_-0.16217.png"	n/a	"VerticalHorizontal"	"arrowright"	"1359"	"FALSE"	"VerticalHorizontal"	"3.3000000000"	"-0.162170000"	"2"	"17"
n/a	"html-keyboard-response"	"218"	"8084642"	"0.0-6.0-2.0-0.17"	"6xn7ka"	"600"	"1366"	"chrome"	"109.0.0"	"FALSE"	"Windows 10"	"60.67"	"022"	n/a	n/a	n/a	n/a	n/a	n/a	"fixation"	n/a	n/a	n/a	n/a	"NULL"	n/a	"NULL"	"NULL"	"NULL"	"<p style=\"color: black; font-size: 80px; padding-left: 25%; padding-right: 15%; padding-top: 17%; padding-bottom: 3%\">+</p>"	"1080"	n/a	n/a	n/a	n/a	n/a	n/a	n/a	n/a	n/a
n/a	"image-keyboard-response"	"219"	"8085087"	"0.0-6.0-2.0-1.17"	"6xn7ka"	"600"	"1366"	"chrome"	"109.0.0"	"FALSE"	"Windows 10"	"60.67"	"022"	n/a	n/a	n/a	n/a	n/a	n/a	"Trial"	n/a	n/a	n/a	"440"	"arrowright"	n/a	"NULL"	"NULL"	"NULL"	"stimuli/VerticalHorizontal_3.30000_0.06730.png"	n/a	"VerticalHorizontal"	"arrowleft"	"1091"	"FALSE"	"VerticalHorizontal"	"3.3000000000"	"0.0673000000"	"2"	"18"
n/a	"html-keyboard-response"	"220"	"8086516"	"0.0-6.0-2.0-0.18"	"6xn7ka"	"600"	"1366"	"chrome"	"109.0.0"	"FALSE"	"Windows 10"	"60.67"	"022"	n/a	n/a	n/a	n/a	n/a	n/a	"fixation"	n/a	n/a	n/a	n/a	"NULL"	n/a	"NULL"	"NULL"	"NULL"	"<p style=\"color: black; font-size: 80px; padding-left: 25%; padding-right: 49%; padding-top: 5%; padding-bottom: 46%\">+</p>"	"1411"	n/a	n/a	n/a	n/a	n/a	n/a	n/a	n/a	n/a
n/a	"image-keyboard-response"	"221"	"8086945"	"0.0-6.0-2.0-1.18"	"6xn7ka"	"600"	"1366"	"chrome"	"109.0.0"	"FALSE"	"Windows 10"	"60.67"	"022"	n/a	n/a	n/a	n/a	n/a	n/a	"Trial"	n/a	n/a	n/a	"428"	"arrowleft"	n/a	"NULL"	"NULL"	"NULL"	"stimuli/VerticalHorizontal_20.27143_-0.2250.png"	n/a	"VerticalHorizontal"	"arrowright"	"1429"	"FALSE"	"VerticalHorizontal"	"20.271430000"	"-0.225000000"	"2"	"19"
n/a	"html-keyboard-response"	"222"	"8088152"	"0.0-6.0-2.0-0.19"	"6xn7ka"	"600"	"1366"	"chrome"	"109.0.0"	"FALSE"	"Windows 10"	"60.67"	"022"	n/a	n/a	n/a	n/a	n/a	n/a	"fixation"	n/a	n/a	n/a	n/a	"NULL"	n/a	"NULL"	"NULL"	"NULL"	"<p style=\"color: black; font-size: 80px; padding-left: 20%; padding-right: 12%; padding-top: 35%; padding-bottom: 22%\">+</p>"	"1193"	n/a	n/a	n/a	n/a	n/a	n/a	n/a	n/a	n/a
n/a	"image-keyboard-response"	"223"	"8088567"	"0.0-6.0-2.0-1.19"	"6xn7ka"	"600"	"1366"	"chrome"	"109.0.0"	"FALSE"	"Windows 10"	"60.67"	"022"	n/a	n/a	n/a	n/a	n/a	n/a	"Trial"	n/a	n/a	n/a	"415"	"arrowright"	n/a	"NULL"	"NULL"	"NULL"	"stimuli/VerticalHorizontal_20.27143_0.22500.png"	n/a	"VerticalHorizontal"	"arrowleft"	"1207"	"FALSE"	"VerticalHorizontal"	"20.271430000"	"0.2250000000"	"2"	"20"
n/a	"html-keyboard-response"	"224"	"8089943"	"0.0-6.0-2.0-0.20"	"6xn7ka"	"600"	"1366"	"chrome"	"109.0.0"	"FALSE"	"Windows 10"	"60.67"	"022"	n/a	n/a	n/a	n/a	n/a	n/a	"fixation"	n/a	n/a	n/a	n/a	"NULL"	n/a	"NULL"	"NULL"	"NULL"	"<p style=\"color: black; font-size: 80px; padding-left: 10%; padding-right: 45%; padding-top: 10%; padding-bottom: 36%\">+</p>"	"1362"	n/a	n/a	n/a	n/a	n/a	n/a	n/a	n/a	n/a
n/a	"image-keyboard-response"	"225"	"8090370"	"0.0-6.0-2.0-1.20"	"6xn7ka"	"600"	"1366"	"chrome"	"109.0.0"	"FALSE"	"Windows 10"	"60.67"	"022"	n/a	n/a	n/a	n/a	n/a	n/a	"Trial"	n/a	n/a	n/a	"425"	"arrowleft"	n/a	"NULL"	"NULL"	"NULL"	"stimuli/VerticalHorizontal_-3.3000_0.16217.png"	n/a	"VerticalHorizontal"	"arrowleft"	"1376"	"TRUE"	"VerticalHorizontal"	"-3.300000000"	"0.1621700000"	"2"	"21"
n/a	"html-keyboard-response"	"226"	"8091609"	"0.0-6.0-2.0-0.21"	"6xn7ka"	"600"	"1366"	"chrome"	"109.0.0"	"FALSE"	"Windows 10"	"60.67"	"022"	n/a	n/a	n/a	n/a	n/a	n/a	"fixation"	n/a	n/a	n/a	n/a	"NULL"	n/a	"NULL"	"NULL"	"NULL"	"<p style=\"color: black; font-size: 80px; padding-left: 13%; padding-right: 35%; padding-top: 43%; padding-bottom: 33%\">+</p>"	"1224"	n/a	n/a	n/a	n/a	n/a	n/a	n/a	n/a	n/a
n/a	"image-keyboard-response"	"227"	"8092008"	"0.0-6.0-2.0-1.21"	"6xn7ka"	"600"	"1366"	"chrome"	"109.0.0"	"FALSE"	"Windows 10"	"60.67"	"022"	n/a	n/a	n/a	n/a	n/a	n/a	"Trial"	n/a	n/a	n/a	"398"	"arrowleft"	n/a	"NULL"	"NULL"	"NULL"	"stimuli/VerticalHorizontal_20.27143_-0.16217.png"	n/a	"VerticalHorizontal"	"arrowright"	"1239"	"FALSE"	"VerticalHorizontal"	"20.271430000"	"-0.162170000"	"2"	"22"
n/a	"html-keyboard-response"	"228"	"8093414"	"0.0-6.0-2.0-0.22"	"6xn7ka"	"600"	"1366"	"chrome"	"109.0.0"	"FALSE"	"Windows 10"	"60.67"	"022"	n/a	n/a	n/a	n/a	n/a	n/a	"fixation"	n/a	n/a	n/a	n/a	"NULL"	n/a	"NULL"	"NULL"	"NULL"	"<p style=\"color: black; font-size: 80px; padding-left: 1%; padding-right: 9%; padding-top: 47%; padding-bottom: 31%\">+</p>"	"1398"	n/a	n/a	n/a	n/a	n/a	n/a	n/a	n/a	n/a
n/a	"image-keyboard-response"	"229"	"8093839"	"0.0-6.0-2.0-1.22"	"6xn7ka"	"600"	"1366"	"chrome"	"109.0.0"	"FALSE"	"Windows 10"	"60.67"	"022"	n/a	n/a	n/a	n/a	n/a	n/a	"Trial"	n/a	n/a	n/a	"425"	"arrowleft"	n/a	"NULL"	"NULL"	"NULL"	"stimuli/VerticalHorizontal_-3.3000_0.06730.png"	n/a	"VerticalHorizontal"	"arrowleft"	"1406"	"TRUE"	"VerticalHorizontal"	"-3.300000000"	"0.0673000000"	"2"	"23"
n/a	"html-keyboard-response"	"230"	"8094939"	"0.0-6.0-2.0-0.23"	"6xn7ka"	"600"	"1366"	"chrome"	"109.0.0"	"FALSE"	"Windows 10"	"60.67"	"022"	n/a	n/a	n/a	n/a	n/a	n/a	"fixation"	n/a	n/a	n/a	n/a	"NULL"	n/a	"NULL"	"NULL"	"NULL"	"<p style=\"color: black; font-size: 80px; padding-left: 18%; padding-right: 19%; padding-top: 28%; padding-bottom: 16%\">+</p>"	"1094"	n/a	n/a	n/a	n/a	n/a	n/a	n/a	n/a	n/a
n/a	"image-keyboard-response"	"231"	"8095394"	"0.0-6.0-2.0-1.23"	"6xn7ka"	"600"	"1366"	"chrome"	"109.0.0"	"FALSE"	"Windows 10"	"60.67"	"022"	n/a	n/a	n/a	n/a	n/a	n/a	"Trial"	n/a	n/a	n/a	"455"	"arrowright"	n/a	"NULL"	"NULL"	"NULL"	"stimuli/VerticalHorizontal_-11.78571_-0.2250.png"	n/a	"VerticalHorizontal"	"arrowright"	"1100"	"TRUE"	"VerticalHorizontal"	"-11.78571000"	"-0.225000000"	"2"	"24"
n/a	"html-keyboard-response"	"232"	"8096477"	"0.0-6.0-2.0-0.24"	"6xn7ka"	"600"	"1366"	"chrome"	"109.0.0"	"FALSE"	"Windows 10"	"60.67"	"022"	n/a	n/a	n/a	n/a	n/a	n/a	"fixation"	n/a	n/a	n/a	n/a	"NULL"	n/a	"NULL"	"NULL"	"NULL"	"<p style=\"color: black; font-size: 80px; padding-left: 36%; padding-right: 16%; padding-top: 1%; padding-bottom: 47%\">+</p>"	"1074"	n/a	n/a	n/a	n/a	n/a	n/a	n/a	n/a	n/a
n/a	"image-keyboard-response"	"233"	"8097083"	"0.0-6.0-2.0-1.24"	"6xn7ka"	"600"	"1366"	"chrome"	"109.0.0"	"FALSE"	"Windows 10"	"60.67"	"022"	n/a	n/a	n/a	n/a	n/a	n/a	"Trial"	n/a	n/a	n/a	"605"	"arrowleft"	n/a	"NULL"	"NULL"	"NULL"	"stimuli/VerticalHorizontal_3.30000_-0.1096.png"	n/a	"VerticalHorizontal"	"arrowright"	"1083"	"FALSE"	"VerticalHorizontal"	"3.3000000000"	"-0.109600000"	"2"	"25"
n/a	"html-keyboard-response"	"234"	"8098455"	"0.0-6.0-2.0-0.25"	"6xn7ka"	"600"	"1366"	"chrome"	"109.0.0"	"FALSE"	"Windows 10"	"60.67"	"022"	n/a	n/a	n/a	n/a	n/a	n/a	"fixation"	n/a	n/a	n/a	n/a	"NULL"	n/a	"NULL"	"NULL"	"NULL"	"<p style=\"color: black; font-size: 80px; padding-left: 1%; padding-right: 12%; padding-top: 2%; padding-bottom: 40%\">+</p>"	"1351"	n/a	n/a	n/a	n/a	n/a	n/a	n/a	n/a	n/a
n/a	"image-keyboard-response"	"235"	"8098850"	"0.0-6.0-2.0-1.25"	"6xn7ka"	"600"	"1366"	"chrome"	"109.0.0"	"FALSE"	"Windows 10"	"60.67"	"022"	n/a	n/a	n/a	n/a	n/a	n/a	"Trial"	n/a	n/a	n/a	"392"	"arrowleft"	n/a	"NULL"	"NULL"	"NULL"	"stimuli/VerticalHorizontal_-11.78571_0.22500.png"	n/a	"VerticalHorizontal"	"arrowleft"	"1372"	"TRUE"	"VerticalHorizontal"	"-11.78571000"	"0.2250000000"	"2"	"26"
n/a	"html-keyboard-response"	"236"	"8100280"	"0.0-6.0-2.0-0.26"	"6xn7ka"	"600"	"1366"	"chrome"	"109.0.0"	"FALSE"	"Windows 10"	"60.67"	"022"	n/a	n/a	n/a	n/a	n/a	n/a	"fixation"	n/a	n/a	n/a	n/a	"NULL"	n/a	"NULL"	"NULL"	"NULL"	"<p style=\"color: black; font-size: 80px; padding-left: 5%; padding-right: 43%; padding-top: 2%; padding-bottom: 49%\">+</p>"	"1415"	n/a	n/a	n/a	n/a	n/a	n/a	n/a	n/a	n/a
n/a	"image-keyboard-response"	"237"	"8100671"	"0.0-6.0-2.0-1.26"	"6xn7ka"	"600"	"1366"	"chrome"	"109.0.0"	"FALSE"	"Windows 10"	"60.67"	"022"	n/a	n/a	n/a	n/a	n/a	n/a	"Trial"	n/a	n/a	n/a	"390"	"arrowleft"	n/a	"NULL"	"NULL"	"NULL"	"stimuli/VerticalHorizontal_-11.78571_0.06730.png"	n/a	"VerticalHorizontal"	"arrowleft"	"1430"	"TRUE"	"VerticalHorizontal"	"-11.78571000"	"0.0673000000"	"2"	"27"
n/a	"html-keyboard-response"	"238"	"8102114"	"0.0-6.0-2.0-0.27"	"6xn7ka"	"600"	"1366"	"chrome"	"109.0.0"	"FALSE"	"Windows 10"	"60.67"	"022"	n/a	n/a	n/a	n/a	n/a	n/a	"fixation"	n/a	n/a	n/a	n/a	"NULL"	n/a	"NULL"	"NULL"	"NULL"	"<p style=\"color: black; font-size: 80px; padding-left: 37%; padding-right: 5%; padding-top: 33%; padding-bottom: 13%\">+</p>"	"1433"	n/a	n/a	n/a	n/a	n/a	n/a	n/a	n/a	n/a
n/a	"image-keyboard-response"	"239"	"8102523"	"0.0-6.0-2.0-1.27"	"6xn7ka"	"600"	"1366"	"chrome"	"109.0.0"	"FALSE"	"Windows 10"	"60.67"	"022"	n/a	n/a	n/a	n/a	n/a	n/a	"Trial"	n/a	n/a	n/a	"408"	"arrowright"	n/a	"NULL"	"NULL"	"NULL"	"stimuli/VerticalHorizontal_28.75714_0.10960.png"	n/a	"VerticalHorizontal"	"arrowleft"	"1443"	"FALSE"	"VerticalHorizontal"	"28.757140000"	"0.1096000000"	"2"	"28"
n/a	"html-keyboard-response"	"240"	"8103854"	"0.0-6.0-2.0-0.28"	"6xn7ka"	"600"	"1366"	"chrome"	"109.0.0"	"FALSE"	"Windows 10"	"60.67"	"022"	n/a	n/a	n/a	n/a	n/a	n/a	"fixation"	n/a	n/a	n/a	n/a	"NULL"	n/a	"NULL"	"NULL"	"NULL"	"<p style=\"color: black; font-size: 80px; padding-left: 49%; padding-right: 30%; padding-top: 18%; padding-bottom: 31%\">+</p>"	"1318"	n/a	n/a	n/a	n/a	n/a	n/a	n/a	n/a	n/a
n/a	"image-keyboard-response"	"241"	"8104219"	"0.0-6.0-2.0-1.28"	"6xn7ka"	"600"	"1366"	"chrome"	"109.0.0"	"FALSE"	"Windows 10"	"60.67"	"022"	n/a	n/a	n/a	n/a	n/a	n/a	"Trial"	n/a	n/a	n/a	"364"	"arrowright"	n/a	"NULL"	"NULL"	"NULL"	"stimuli/VerticalHorizontal_3.30000_-0.2250.png"	n/a	"VerticalHorizontal"	"arrowright"	"1331"	"TRUE"	"VerticalHorizontal"	"3.3000000000"	"-0.225000000"	"2"	"29"
n/a	"html-keyboard-response"	"242"	"8105657"	"0.0-6.0-2.0-0.29"	"6xn7ka"	"600"	"1366"	"chrome"	"109.0.0"	"FALSE"	"Windows 10"	"60.67"	"022"	n/a	n/a	n/a	n/a	n/a	n/a	"fixation"	n/a	n/a	n/a	n/a	"NULL"	n/a	"NULL"	"NULL"	"NULL"	"<p style=\"color: black; font-size: 80px; padding-left: 8%; padding-right: 2%; padding-top: 49%; padding-bottom: 41%\">+</p>"	"1430"	n/a	n/a	n/a	n/a	n/a	n/a	n/a	n/a	n/a
n/a	"image-keyboard-response"	"243"	"8106067"	"0.0-6.0-2.0-1.29"	"6xn7ka"	"600"	"1366"	"chrome"	"109.0.0"	"FALSE"	"Windows 10"	"60.67"	"022"	n/a	n/a	n/a	n/a	n/a	n/a	"Trial"	n/a	n/a	n/a	"409"	"arrowright"	n/a	"NULL"	"NULL"	"NULL"	"stimuli/VerticalHorizontal_11.78571_0.22500.png"	n/a	"VerticalHorizontal"	"arrowleft"	"1438"	"FALSE"	"VerticalHorizontal"	"11.785710000"	"0.2250000000"	"2"	"30"
n/a	"html-keyboard-response"	"244"	"8107100"	"0.0-6.0-2.0-0.30"	"6xn7ka"	"600"	"1366"	"chrome"	"109.0.0"	"FALSE"	"Windows 10"	"60.67"	"022"	n/a	n/a	n/a	n/a	n/a	n/a	"fixation"	n/a	n/a	n/a	n/a	"NULL"	n/a	"NULL"	"NULL"	"NULL"	"<p style=\"color: black; font-size: 80px; padding-left: 45%; padding-right: 49%; padding-top: 9%; padding-bottom: 25%\">+</p>"	"1029"	n/a	n/a	n/a	n/a	n/a	n/a	n/a	n/a	n/a
n/a	"image-keyboard-response"	"245"	"8107495"	"0.0-6.0-2.0-1.30"	"6xn7ka"	"600"	"1366"	"chrome"	"109.0.0"	"FALSE"	"Windows 10"	"60.67"	"022"	n/a	n/a	n/a	n/a	n/a	n/a	"Trial"	n/a	n/a	n/a	"395"	"arrowleft"	n/a	"NULL"	"NULL"	"NULL"	"stimuli/VerticalHorizontal_-28.75714_0.22500.png"	n/a	"VerticalHorizontal"	"arrowleft"	"1033"	"TRUE"	"VerticalHorizontal"	"-28.75714000"	"0.2250000000"	"2"	"31"
n/a	"html-keyboard-response"	"246"	"8108787"	"0.0-6.0-2.0-0.31"	"6xn7ka"	"600"	"1366"	"chrome"	"109.0.0"	"FALSE"	"Windows 10"	"60.67"	"022"	n/a	n/a	n/a	n/a	n/a	n/a	"fixation"	n/a	n/a	n/a	n/a	"NULL"	n/a	"NULL"	"NULL"	"NULL"	"<p style=\"color: black; font-size: 80px; padding-left: 43%; padding-right: 49%; padding-top: 49%; padding-bottom: 24%\">+</p>"	"1277"	n/a	n/a	n/a	n/a	n/a	n/a	n/a	n/a	n/a
n/a	"image-keyboard-response"	"247"	"8109190"	"0.0-6.0-2.0-1.31"	"6xn7ka"	"600"	"1366"	"chrome"	"109.0.0"	"FALSE"	"Windows 10"	"60.67"	"022"	n/a	n/a	n/a	n/a	n/a	n/a	"Trial"	n/a	n/a	n/a	"402"	"arrowleft"	n/a	"NULL"	"NULL"	"NULL"	"stimuli/VerticalHorizontal_20.27143_-0.1096.png"	n/a	"VerticalHorizontal"	"arrowright"	"1292"	"FALSE"	"VerticalHorizontal"	"20.271430000"	"-0.109600000"	"2"	"32"
n/a	"html-keyboard-response"	"248"	"8110475"	"0.0-6.0-2.0-0.32"	"6xn7ka"	"600"	"1366"	"chrome"	"109.0.0"	"FALSE"	"Windows 10"	"60.67"	"022"	n/a	n/a	n/a	n/a	n/a	n/a	"fixation"	n/a	n/a	n/a	n/a	"NULL"	n/a	"NULL"	"NULL"	"NULL"	"<p style=\"color: black; font-size: 80px; padding-left: 7%; padding-right: 27%; padding-top: 24%; padding-bottom: 21%\">+</p>"	"1277"	n/a	n/a	n/a	n/a	n/a	n/a	n/a	n/a	n/a
n/a	"image-keyboard-response"	"249"	"8110946"	"0.0-6.0-2.0-1.32"	"6xn7ka"	"600"	"1366"	"chrome"	"109.0.0"	"FALSE"	"Windows 10"	"60.67"	"022"	n/a	n/a	n/a	n/a	n/a	n/a	"Trial"	n/a	n/a	n/a	"471"	"arrowright"	n/a	"NULL"	"NULL"	"NULL"	"stimuli/VerticalHorizontal_-11.78571_-0.0673.png"	n/a	"VerticalHorizontal"	"arrowright"	"1285"	"TRUE"	"VerticalHorizontal"	"-11.78571000"	"-0.067300000"	"2"	"33"
n/a	"html-keyboard-response"	"250"	"8112240"	"0.0-6.0-2.0-0.33"	"6xn7ka"	"600"	"1366"	"chrome"	"109.0.0"	"FALSE"	"Windows 10"	"60.67"	"022"	n/a	n/a	n/a	n/a	n/a	n/a	"fixation"	n/a	n/a	n/a	n/a	"NULL"	n/a	"NULL"	"NULL"	"NULL"	"<p style=\"color: black; font-size: 80px; padding-left: 28%; padding-right: 49%; padding-top: 3%; padding-bottom: 41%\">+</p>"	"1286"	n/a	n/a	n/a	n/a	n/a	n/a	n/a	n/a	n/a
