"success"	"trial_type"	"trial_index"	"time_elapsed"	"internal_node_id"	"participant_id"	"screen_height"	"screen_width"	"browser"	"browser_version"	"mobile"	"os"	"vsync_rate"	"subject_id"	"width"	"height"	"webaudio"	"fullscreen"	"webcam"	"microphone"	"screen"	"version"	"date"	"time"	"rt"	"response"	"timeout"	"failed_images"	"failed_audio"	"failed_video"	"stimulus"	"trial_duration"	"block"	"correct_response"	"prestimulus_duration"	"correct"	"type"	"illusion_strength"	"illusion_difference"	"block_number"	"trial_number"
"TRUE"	"fullscreen"	"0"	"1681"	"0.0-0.0"	"2n9oce"	"600"	"1366"	"chrome"	"110.0.0"	"FALSE"	"Windows 10"	"60.37"	"038"	n/a	n/a	n/a	n/a	n/a	n/a	n/a	n/a	n/a	n/a	n/a	"NULL"	n/a	"NULL"	"NULL"	"NULL"	n/a	n/a	n/a	n/a	n/a	n/a	n/a	n/a	n/a	n/a	n/a
n/a	"browser-check"	"1"	"2689"	"0.0-1.0"	"2n9oce"	"600"	"1366"	"chrome"	"110.0.0"	"FALSE"	"Windows 10"	"60.37"	"038"	"1366"	"600"	"TRUE"	"TRUE"	"TRUE"	"TRUE"	"browser_info"	"1.0"	"07/03/2023"	"14:59:25"	n/a	"NULL"	n/a	"NULL"	"NULL"	"NULL"	n/a	n/a	n/a	n/a	n/a	n/a	n/a	n/a	n/a	n/a	n/a
n/a	"survey-text"	"2"	"7474"	"0.0-2.0"	"2n9oce"	"600"	"1366"	"chrome"	"110.0.0"	"FALSE"	"Windows 10"	"60.37"	"038"	n/a	n/a	n/a	n/a	n/a	n/a	"subject_id"	n/a	n/a	n/a	"4783"	"list(subject_id = \"038\")"	n/a	"NULL"	"NULL"	"NULL"	n/a	n/a	n/a	n/a	n/a	n/a	n/a	n/a	n/a	n/a	n/a
"TRUE"	"preload"	"3"	"7485"	"0.0-3.0"	"2n9oce"	"600"	"1366"	"chrome"	"110.0.0"	"FALSE"	"Windows 10"	"60.37"	"038"	n/a	n/a	n/a	n/a	n/a	n/a	n/a	n/a	n/a	n/a	n/a	"NULL"	"FALSE"	"list()"	"list()"	"list()"	n/a	n/a	n/a	n/a	n/a	n/a	n/a	n/a	n/a	n/a	n/a
n/a	"html-button-response"	"4"	"46145"	"0.0-4.0-0.0"	"2n9oce"	"600"	"1366"	"chrome"	"110.0.0"	"FALSE"	"Windows 10"	"60.37"	"038"	n/a	n/a	n/a	n/a	n/a	n/a	"illusion_instructions"	n/a	n/a	n/a	"38659"	"0"	n/a	"NULL"	"NULL"	"NULL"	"<p><b>Illusion Game</b></p><p>In this game of speed and reflex, you will need to make <b>visual judgments</b> (for instance, which circle is the biggest, or which line is the longest), as fast and as correctly as possible, while <b>resisting different visual illusions</b>.</p><p>We are going to start with some examples of all the illusions you will encounter in the game.</p>"	n/a	n/a	n/a	n/a	n/a	n/a	n/a	n/a	n/a	n/a
"TRUE"	"preload"	"5"	"46160"	"0.0-4.0-1.0-0.0"	"2n9oce"	"600"	"1366"	"chrome"	"110.0.0"	"FALSE"	"Windows 10"	"60.37"	"038"	n/a	n/a	n/a	n/a	n/a	n/a	n/a	n/a	n/a	n/a	n/a	"NULL"	"FALSE"	"list()"	"list()"	"list()"	n/a	n/a	n/a	n/a	n/a	n/a	n/a	n/a	n/a	n/a	n/a
n/a	"html-keyboard-response"	"6"	"67626"	"0.0-4.0-1.0-1.0"	"2n9oce"	"600"	"1366"	"chrome"	"110.0.0"	"FALSE"	"Windows 10"	"60.37"	"038"	n/a	n/a	n/a	n/a	n/a	n/a	n/a	n/a	n/a	n/a	"21465"	"enter"	n/a	"NULL"	"NULL"	"NULL"	"<p><b>Practice</b></p><p>In this part, two red circles will appear side by side on the screen.</p><p>Your task is to select which <b>red circle is bigger</b> in size as fast as you can, without making errors.</p><p>Don't get distracted by the surrounding black circles around the red circles!</p><p>Press <b>the LEFT or the RIGHT arrow</b> to indicate which is the bigger <b>red circle.</b></p><div style='float: center'><img src='materials/instructions/Ebbinghaus_Demo.png' height='300'></img><p><img src='utils/answer/answer_leftright_keyboard.PNG' height='150'></img></p><p class='small'>In this example, the correct answer is the <b>LEFT arrow</b>.</p></div><p>Are you ready? <b>Press ENTER to start</b></p>"	n/a	n/a	n/a	n/a	n/a	n/a	n/a	n/a	n/a	n/a
n/a	"html-keyboard-response"	"7"	"69344"	"0.0-4.0-1.0-2.0-0.0"	"2n9oce"	"600"	"1366"	"chrome"	"110.0.0"	"FALSE"	"Windows 10"	"60.37"	"038"	n/a	n/a	n/a	n/a	n/a	n/a	"fixation"	n/a	n/a	n/a	n/a	"NULL"	n/a	"NULL"	"NULL"	"NULL"	"<p style=\"color: black; font-size: 80px; padding-left: 13%; padding-right: 10%; padding-top: 29%; padding-bottom: 14%\">+</p>"	"1203"	n/a	n/a	n/a	n/a	n/a	n/a	n/a	n/a	n/a
n/a	"image-keyboard-response"	"8"	"71063"	"0.0-4.0-1.0-2.0-1.0"	"2n9oce"	"600"	"1366"	"chrome"	"110.0.0"	"FALSE"	"Windows 10"	"60.37"	"038"	n/a	n/a	n/a	n/a	n/a	n/a	"Trial"	n/a	n/a	n/a	"1718"	"arrowleft"	n/a	"NULL"	"NULL"	"NULL"	"stimuli/Ebbinghaus_-100000_1.40000.png"	n/a	"Ebbinghaus"	"arrowleft"	"1718"	"TRUE"	"Ebbinghaus"	"-10000000000"	"1.4000000000"	"1"	"1"
n/a	"html-keyboard-response"	"9"	"72261"	"0.0-4.0-1.0-2.0-0.1"	"2n9oce"	"600"	"1366"	"chrome"	"110.0.0"	"FALSE"	"Windows 10"	"60.37"	"038"	n/a	n/a	n/a	n/a	n/a	n/a	"fixation"	n/a	n/a	n/a	n/a	"NULL"	n/a	"NULL"	"NULL"	"NULL"	"<p style=\"color: black; font-size: 80px; padding-left: 11%; padding-right: 44%; padding-top: 23%; padding-bottom: 17%\">+</p>"	"1192"	n/a	n/a	n/a	n/a	n/a	n/a	n/a	n/a	n/a
n/a	"image-keyboard-response"	"10"	"73008"	"0.0-4.0-1.0-2.0-1.1"	"2n9oce"	"600"	"1366"	"chrome"	"110.0.0"	"FALSE"	"Windows 10"	"60.37"	"038"	n/a	n/a	n/a	n/a	n/a	n/a	"Trial"	n/a	n/a	n/a	"746"	"arrowright"	n/a	"NULL"	"NULL"	"NULL"	"stimuli/Ebbinghaus_1000000_-1.4000.png"	n/a	"Ebbinghaus"	"arrowright"	"1198"	"TRUE"	"Ebbinghaus"	"100000000000"	"-1.400000000"	"1"	"2"
n/a	"html-keyboard-response"	"11"	"74156"	"0.0-4.0-1.0-2.0-0.2"	"2n9oce"	"600"	"1366"	"chrome"	"110.0.0"	"FALSE"	"Windows 10"	"60.37"	"038"	n/a	n/a	n/a	n/a	n/a	n/a	"fixation"	n/a	n/a	n/a	n/a	"NULL"	n/a	"NULL"	"NULL"	"NULL"	"<p style=\"color: black; font-size: 80px; padding-left: 26%; padding-right: 12%; padding-top: 24%; padding-bottom: 15%\">+</p>"	"1141"	n/a	n/a	n/a	n/a	n/a	n/a	n/a	n/a	n/a
n/a	"image-keyboard-response"	"12"	"74740"	"0.0-4.0-1.0-2.0-1.2"	"2n9oce"	"600"	"1366"	"chrome"	"110.0.0"	"FALSE"	"Windows 10"	"60.37"	"038"	n/a	n/a	n/a	n/a	n/a	n/a	"Trial"	n/a	n/a	n/a	"583"	"arrowright"	n/a	"NULL"	"NULL"	"NULL"	"stimuli/Ebbinghaus_0000000_-1.4000.png"	n/a	"Ebbinghaus"	"arrowright"	"1148"	"TRUE"	"Ebbinghaus"	"000000000000"	"-1.400000000"	"1"	"3"
n/a	"html-keyboard-response"	"13"	"76254"	"0.0-4.0-1.0-2.0-0.3"	"2n9oce"	"600"	"1366"	"chrome"	"110.0.0"	"FALSE"	"Windows 10"	"60.37"	"038"	n/a	n/a	n/a	n/a	n/a	n/a	"fixation"	n/a	n/a	n/a	n/a	"NULL"	n/a	"NULL"	"NULL"	"NULL"	"<p style=\"color: black; font-size: 80px; padding-left: 18%; padding-right: 36%; padding-top: 11%; padding-bottom: 26%\">+</p>"	"1499"	n/a	n/a	n/a	n/a	n/a	n/a	n/a	n/a	n/a
n/a	"image-keyboard-response"	"14"	"76808"	"0.0-4.0-1.0-2.0-1.3"	"2n9oce"	"600"	"1366"	"chrome"	"110.0.0"	"FALSE"	"Windows 10"	"60.37"	"038"	n/a	n/a	n/a	n/a	n/a	n/a	"Trial"	n/a	n/a	n/a	"553"	"arrowleft"	n/a	"NULL"	"NULL"	"NULL"	"stimuli/Ebbinghaus_0000000_1.40000.png"	n/a	"Ebbinghaus"	"arrowleft"	"1514"	"TRUE"	"Ebbinghaus"	"000000000000"	"1.4000000000"	"1"	"4"
n/a	"html-keyboard-response"	"15"	"77872"	"0.0-4.0-1.0-2.0-0.4"	"2n9oce"	"600"	"1366"	"chrome"	"110.0.0"	"FALSE"	"Windows 10"	"60.37"	"038"	n/a	n/a	n/a	n/a	n/a	n/a	"fixation"	n/a	n/a	n/a	n/a	"NULL"	n/a	"NULL"	"NULL"	"NULL"	"<p style=\"color: black; font-size: 80px; padding-left: 48%; padding-right: 2%; padding-top: 11%; padding-bottom: 21%\">+</p>"	"1056"	n/a	n/a	n/a	n/a	n/a	n/a	n/a	n/a	n/a
n/a	"image-keyboard-response"	"16"	"78356"	"0.0-4.0-1.0-2.0-1.4"	"2n9oce"	"600"	"1366"	"chrome"	"110.0.0"	"FALSE"	"Windows 10"	"60.37"	"038"	n/a	n/a	n/a	n/a	n/a	n/a	"Trial"	n/a	n/a	n/a	"483"	"arrowleft"	n/a	"NULL"	"NULL"	"NULL"	"stimuli/Ebbinghaus_1000000_1.40000.png"	n/a	"Ebbinghaus"	"arrowleft"	"1064"	"TRUE"	"Ebbinghaus"	"100000000000"	"1.4000000000"	"1"	"5"
n/a	"html-keyboard-response"	"17"	"79641"	"0.0-4.0-1.0-2.0-0.5"	"2n9oce"	"600"	"1366"	"chrome"	"110.0.0"	"FALSE"	"Windows 10"	"60.37"	"038"	n/a	n/a	n/a	n/a	n/a	n/a	"fixation"	n/a	n/a	n/a	n/a	"NULL"	n/a	"NULL"	"NULL"	"NULL"	"<p style=\"color: black; font-size: 80px; padding-left: 15%; padding-right: 31%; padding-top: 2%; padding-bottom: 24%\">+</p>"	"1281"	n/a	n/a	n/a	n/a	n/a	n/a	n/a	n/a	n/a
n/a	"image-keyboard-response"	"18"	"80180"	"0.0-4.0-1.0-2.0-1.5"	"2n9oce"	"600"	"1366"	"chrome"	"110.0.0"	"FALSE"	"Windows 10"	"60.37"	"038"	n/a	n/a	n/a	n/a	n/a	n/a	"Trial"	n/a	n/a	n/a	"538"	"arrowright"	n/a	"NULL"	"NULL"	"NULL"	"stimuli/Ebbinghaus_-100000_-1.4000.png"	n/a	"Ebbinghaus"	"arrowright"	"1285"	"TRUE"	"Ebbinghaus"	"-10000000000"	"-1.400000000"	"1"	"6"
n/a	"html-button-response"	"19"	"85816"	"0.0-4.0-1.0-3.0"	"2n9oce"	"600"	"1366"	"chrome"	"110.0.0"	"FALSE"	"Windows 10"	"60.37"	"038"	n/a	n/a	n/a	n/a	n/a	n/a	"practice_block_results"	n/a	n/a	n/a	"5634"	"0"	n/a	"NULL"	"NULL"	"NULL"	"<p style='color:rgb(76,175,80);'> Correct Responses: <b>100.00%</b></p><hr><p style='color:rgb(233,30,99);'> Average Response Time: <b>770.17</b> ms.</p>"	n/a	n/a	n/a	n/a	n/a	n/a	n/a	n/a	n/a	n/a
"TRUE"	"preload"	"20"	"86340"	"0.0-4.0-2.0-0.0"	"2n9oce"	"600"	"1366"	"chrome"	"110.0.0"	"FALSE"	"Windows 10"	"60.37"	"038"	n/a	n/a	n/a	n/a	n/a	n/a	n/a	n/a	n/a	n/a	n/a	"NULL"	"FALSE"	"list()"	"list()"	"list()"	n/a	n/a	n/a	n/a	n/a	n/a	n/a	n/a	n/a	n/a	n/a
n/a	"html-keyboard-response"	"21"	"92456"	"0.0-4.0-2.0-1.0"	"2n9oce"	"600"	"1366"	"chrome"	"110.0.0"	"FALSE"	"Windows 10"	"60.37"	"038"	n/a	n/a	n/a	n/a	n/a	n/a	n/a	n/a	n/a	n/a	"6115"	"enter"	n/a	"NULL"	"NULL"	"NULL"	"<p><b>Practice</b></p><p>In this part, two horizontal red lines will appear one above the other.</p><p>Your task is to select which <b>line is longer</b> in length as fast as you can, without making errors.</p><p>Don't get distracted by the surrounding black arrows at the end of the red lines!</p><p>Press <b>the UP or the DOWN arrow</b> to indicate where is the longer <b>red line.</b></p><div style='float: center'><img src='materials/instructions/MullerLyer_Demo.png' height='300'></img><p><img src='utils/answer/answer_updown_keyboard.PNG' height='150'></img></p><p class='small'>In this example, the correct answer is the <b>UP arrow</b>.</p></div><p>Are you ready? <b>Press ENTER to start</b></p>"	n/a	n/a	n/a	n/a	n/a	n/a	n/a	n/a	n/a	n/a
n/a	"html-keyboard-response"	"22"	"94022"	"0.0-4.0-2.0-2.0-0.0"	"2n9oce"	"600"	"1366"	"chrome"	"110.0.0"	"FALSE"	"Windows 10"	"60.37"	"038"	n/a	n/a	n/a	n/a	n/a	n/a	"fixation"	n/a	n/a	n/a	n/a	"NULL"	n/a	"NULL"	"NULL"	"NULL"	"<p style=\"color: black; font-size: 80px; padding-left: 19%; padding-right: 12%; padding-top: 27%; padding-bottom: 14%\">+</p>"	"1045"	n/a	n/a	n/a	n/a	n/a	n/a	n/a	n/a	n/a
n/a	"image-keyboard-response"	"23"	"94919"	"0.0-4.0-2.0-2.0-1.0"	"2n9oce"	"600"	"1366"	"chrome"	"110.0.0"	"FALSE"	"Windows 10"	"60.37"	"038"	n/a	n/a	n/a	n/a	n/a	n/a	"Trial"	n/a	n/a	n/a	"896"	"arrowdown"	n/a	"NULL"	"NULL"	"NULL"	"stimuli/MullerLyer_2300000_-0.7000.png"	n/a	"MullerLyer"	"arrowdown"	"1566"	"TRUE"	"MullerLyer"	"230000000000"	"-0.700000000"	"1"	"7"
n/a	"html-keyboard-response"	"24"	"96313"	"0.0-4.0-2.0-2.0-0.1"	"2n9oce"	"600"	"1366"	"chrome"	"110.0.0"	"FALSE"	"Windows 10"	"60.37"	"038"	n/a	n/a	n/a	n/a	n/a	n/a	"fixation"	n/a	n/a	n/a	n/a	"NULL"	n/a	"NULL"	"NULL"	"NULL"	"<p style=\"color: black; font-size: 80px; padding-left: 29%; padding-right: 29%; padding-top: 11%; padding-bottom: 49%\">+</p>"	"1393"	n/a	n/a	n/a	n/a	n/a	n/a	n/a	n/a	n/a
n/a	"image-keyboard-response"	"25"	"96871"	"0.0-4.0-2.0-2.0-1.1"	"2n9oce"	"600"	"1366"	"chrome"	"110.0.0"	"FALSE"	"Windows 10"	"60.37"	"038"	n/a	n/a	n/a	n/a	n/a	n/a	"Trial"	n/a	n/a	n/a	"557"	"arrowdown"	n/a	"NULL"	"NULL"	"NULL"	"stimuli/MullerLyer_-230000_-0.7000.png"	n/a	"MullerLyer"	"arrowdown"	"1394"	"TRUE"	"MullerLyer"	"-23000000000"	"-0.700000000"	"1"	"8"
n/a	"html-keyboard-response"	"26"	"98242"	"0.0-4.0-2.0-2.0-0.2"	"2n9oce"	"600"	"1366"	"chrome"	"110.0.0"	"FALSE"	"Windows 10"	"60.37"	"038"	n/a	n/a	n/a	n/a	n/a	n/a	"fixation"	n/a	n/a	n/a	n/a	"NULL"	n/a	"NULL"	"NULL"	"NULL"	"<p style=\"color: black; font-size: 80px; padding-left: 37%; padding-right: 42%; padding-top: 35%; padding-bottom: 49%\">+</p>"	"1362"	n/a	n/a	n/a	n/a	n/a	n/a	n/a	n/a	n/a
n/a	"image-keyboard-response"	"27"	"98680"	"0.0-4.0-2.0-2.0-1.2"	"2n9oce"	"600"	"1366"	"chrome"	"110.0.0"	"FALSE"	"Windows 10"	"60.37"	"038"	n/a	n/a	n/a	n/a	n/a	n/a	"Trial"	n/a	n/a	n/a	"437"	"arrowup"	n/a	"NULL"	"NULL"	"NULL"	"stimuli/MullerLyer_0000000_0.70000.png"	n/a	"MullerLyer"	"arrowup"	"1371"	"TRUE"	"MullerLyer"	"000000000000"	"0.7000000000"	"1"	"9"
n/a	"html-keyboard-response"	"28"	"100111"	"0.0-4.0-2.0-2.0-0.3"	"2n9oce"	"600"	"1366"	"chrome"	"110.0.0"	"FALSE"	"Windows 10"	"60.37"	"038"	n/a	n/a	n/a	n/a	n/a	n/a	"fixation"	n/a	n/a	n/a	n/a	"NULL"	n/a	"NULL"	"NULL"	"NULL"	"<p style=\"color: black; font-size: 80px; padding-left: 18%; padding-right: 22%; padding-top: 21%; padding-bottom: 43%\">+</p>"	"1426"	n/a	n/a	n/a	n/a	n/a	n/a	n/a	n/a	n/a
n/a	"image-keyboard-response"	"29"	"100698"	"0.0-4.0-2.0-2.0-1.3"	"2n9oce"	"600"	"1366"	"chrome"	"110.0.0"	"FALSE"	"Windows 10"	"60.37"	"038"	n/a	n/a	n/a	n/a	n/a	n/a	"Trial"	n/a	n/a	n/a	"587"	"arrowup"	n/a	"NULL"	"NULL"	"NULL"	"stimuli/MullerLyer_2300000_0.70000.png"	n/a	"MullerLyer"	"arrowup"	"1431"	"TRUE"	"MullerLyer"	"230000000000"	"0.7000000000"	"1"	"10"
n/a	"html-keyboard-response"	"30"	"102032"	"0.0-4.0-2.0-2.0-0.4"	"2n9oce"	"600"	"1366"	"chrome"	"110.0.0"	"FALSE"	"Windows 10"	"60.37"	"038"	n/a	n/a	n/a	n/a	n/a	n/a	"fixation"	n/a	n/a	n/a	n/a	"NULL"	n/a	"NULL"	"NULL"	"NULL"	"<p style=\"color: black; font-size: 80px; padding-left: 31%; padding-right: 48%; padding-top: 10%; padding-bottom: 32%\">+</p>"	"1322"	n/a	n/a	n/a	n/a	n/a	n/a	n/a	n/a	n/a
n/a	"image-keyboard-response"	"31"	"102458"	"0.0-4.0-2.0-2.0-1.4"	"2n9oce"	"600"	"1366"	"chrome"	"110.0.0"	"FALSE"	"Windows 10"	"60.37"	"038"	n/a	n/a	n/a	n/a	n/a	n/a	"Trial"	n/a	n/a	n/a	"425"	"arrowup"	n/a	"NULL"	"NULL"	"NULL"	"stimuli/MullerLyer_-230000_0.70000.png"	n/a	"MullerLyer"	"arrowup"	"1334"	"TRUE"	"MullerLyer"	"-23000000000"	"0.7000000000"	"1"	"11"
n/a	"html-keyboard-response"	"32"	"103551"	"0.0-4.0-2.0-2.0-0.5"	"2n9oce"	"600"	"1366"	"chrome"	"110.0.0"	"FALSE"	"Windows 10"	"60.37"	"038"	n/a	n/a	n/a	n/a	n/a	n/a	"fixation"	n/a	n/a	n/a	n/a	"NULL"	n/a	"NULL"	"NULL"	"NULL"	"<p style=\"color: black; font-size: 80px; padding-left: 16%; padding-right: 33%; padding-top: 8%; padding-bottom: 14%\">+</p>"	"1091"	n/a	n/a	n/a	n/a	n/a	n/a	n/a	n/a	n/a
n/a	"image-keyboard-response"	"33"	"104065"	"0.0-4.0-2.0-2.0-1.5"	"2n9oce"	"600"	"1366"	"chrome"	"110.0.0"	"FALSE"	"Windows 10"	"60.37"	"038"	n/a	n/a	n/a	n/a	n/a	n/a	"Trial"	n/a	n/a	n/a	"513"	"arrowdown"	n/a	"NULL"	"NULL"	"NULL"	"stimuli/MullerLyer_0000000_-0.7000.png"	n/a	"MullerLyer"	"arrowdown"	"1093"	"TRUE"	"MullerLyer"	"000000000000"	"-0.700000000"	"1"	"12"
n/a	"html-button-response"	"34"	"106200"	"0.0-4.0-2.0-3.0"	"2n9oce"	"600"	"1366"	"chrome"	"110.0.0"	"FALSE"	"Windows 10"	"60.37"	"038"	n/a	n/a	n/a	n/a	n/a	n/a	"practice_block_results"	n/a	n/a	n/a	"2135"	"0"	n/a	"NULL"	"NULL"	"NULL"	"<p style='color:rgb(76,175,80);'> Correct Responses: <b>100.00%</b></p><hr><p style='color:rgb(233,30,99);'> Average Response Time: <b>569.17</b> ms.</p>"	n/a	n/a	n/a	n/a	n/a	n/a	n/a	n/a	n/a	n/a
"TRUE"	"preload"	"35"	"106727"	"0.0-4.0-3.0-0.0"	"2n9oce"	"600"	"1366"	"chrome"	"110.0.0"	"FALSE"	"Windows 10"	"60.37"	"038"	n/a	n/a	n/a	n/a	n/a	n/a	n/a	n/a	n/a	n/a	n/a	"NULL"	"FALSE"	"list()"	"list()"	"list()"	n/a	n/a	n/a	n/a	n/a	n/a	n/a	n/a	n/a	n/a	n/a
n/a	"html-keyboard-response"	"36"	"111237"	"0.0-4.0-3.0-1.0"	"2n9oce"	"600"	"1366"	"chrome"	"110.0.0"	"FALSE"	"Windows 10"	"60.37"	"038"	n/a	n/a	n/a	n/a	n/a	n/a	n/a	n/a	n/a	n/a	"4509"	"enter"	n/a	"NULL"	"NULL"	"NULL"	"<p><b>Practice</b></p><p>In this part, two red lines will appear side by side.</p><p>Your task is to tell <b>which line is longer</b> in length, regardless of their orientation, as fast as you can, and without making errors.</p><p>Don't get distracted by the orientation of the lines!</p><p>Press <b>the LEFT or the RIGHT arrow</b> to indicate which <b>line is the longer one.</b></p><div style='float: center'><img src='materials/instructions/VerticalHorizontal_Demo.png' height='300'></img><p><img src='utils/answer/answer_leftright_keyboard.PNG' height='150'></img></p><p class='small'>In this example, the correct answer is the <b>LEFT arrow</b>.</p></div><p>Are you ready? <b>Press ENTER to start</b></p>"	n/a	n/a	n/a	n/a	n/a	n/a	n/a	n/a	n/a	n/a
n/a	"html-keyboard-response"	"37"	"112804"	"0.0-4.0-3.0-2.0-0.0"	"2n9oce"	"600"	"1366"	"chrome"	"110.0.0"	"FALSE"	"Windows 10"	"60.37"	"038"	n/a	n/a	n/a	n/a	n/a	n/a	"fixation"	n/a	n/a	n/a	n/a	"NULL"	n/a	"NULL"	"NULL"	"NULL"	"<p style=\"color: black; font-size: 80px; padding-left: 32%; padding-right: 22%; padding-top: 45%; padding-bottom: 0%\">+</p>"	"1059"	n/a	n/a	n/a	n/a	n/a	n/a	n/a	n/a	n/a
n/a	"image-keyboard-response"	"38"	"113532"	"0.0-4.0-3.0-2.0-1.0"	"2n9oce"	"600"	"1366"	"chrome"	"110.0.0"	"FALSE"	"Windows 10"	"60.37"	"038"	n/a	n/a	n/a	n/a	n/a	n/a	"Trial"	n/a	n/a	n/a	"727"	"arrowright"	n/a	"NULL"	"NULL"	"NULL"	"stimuli/VerticalHorizontal_3300000_-0.9000.png"	n/a	"VerticalHorizontal"	"arrowright"	"1567"	"TRUE"	"VerticalHorizontal"	"330000000000"	"-0.900000000"	"1"	"13"
n/a	"html-keyboard-response"	"39"	"114898"	"0.0-4.0-3.0-2.0-0.1"	"2n9oce"	"600"	"1366"	"chrome"	"110.0.0"	"FALSE"	"Windows 10"	"60.37"	"038"	n/a	n/a	n/a	n/a	n/a	n/a	"fixation"	n/a	n/a	n/a	n/a	"NULL"	n/a	"NULL"	"NULL"	"NULL"	"<p style=\"color: black; font-size: 80px; padding-left: 3%; padding-right: 13%; padding-top: 39%; padding-bottom: 19%\">+</p>"	"1364"	n/a	n/a	n/a	n/a	n/a	n/a	n/a	n/a	n/a
n/a	"image-keyboard-response"	"40"	"115386"	"0.0-4.0-3.0-2.0-1.1"	"2n9oce"	"600"	"1366"	"chrome"	"110.0.0"	"FALSE"	"Windows 10"	"60.37"	"038"	n/a	n/a	n/a	n/a	n/a	n/a	"Trial"	n/a	n/a	n/a	"488"	"arrowleft"	n/a	"NULL"	"NULL"	"NULL"	"stimuli/VerticalHorizontal_0000000_0.90000.png"	n/a	"VerticalHorizontal"	"arrowleft"	"1366"	"TRUE"	"VerticalHorizontal"	"000000000000"	"0.9000000000"	"1"	"14"
n/a	"html-keyboard-response"	"41"	"116670"	"0.0-4.0-3.0-2.0-0.2"	"2n9oce"	"600"	"1366"	"chrome"	"110.0.0"	"FALSE"	"Windows 10"	"60.37"	"038"	n/a	n/a	n/a	n/a	n/a	n/a	"fixation"	n/a	n/a	n/a	n/a	"NULL"	n/a	"NULL"	"NULL"	"NULL"	"<p style=\"color: black; font-size: 80px; padding-left: 29%; padding-right: 46%; padding-top: 36%; padding-bottom: 28%\">+</p>"	"1283"	n/a	n/a	n/a	n/a	n/a	n/a	n/a	n/a	n/a
n/a	"image-keyboard-response"	"42"	"117076"	"0.0-4.0-3.0-2.0-1.2"	"2n9oce"	"600"	"1366"	"chrome"	"110.0.0"	"FALSE"	"Windows 10"	"60.37"	"038"	n/a	n/a	n/a	n/a	n/a	n/a	"Trial"	n/a	n/a	n/a	"404"	"arrowleft"	n/a	"NULL"	"NULL"	"NULL"	"stimuli/VerticalHorizontal_-330000_0.90000.png"	n/a	"VerticalHorizontal"	"arrowleft"	"1284"	"TRUE"	"VerticalHorizontal"	"-33000000000"	"0.9000000000"	"1"	"15"
n/a	"html-keyboard-response"	"43"	"118523"	"0.0-4.0-3.0-2.0-0.3"	"2n9oce"	"600"	"1366"	"chrome"	"110.0.0"	"FALSE"	"Windows 10"	"60.37"	"038"	n/a	n/a	n/a	n/a	n/a	n/a	"fixation"	n/a	n/a	n/a	n/a	"NULL"	n/a	"NULL"	"NULL"	"NULL"	"<p style=\"color: black; font-size: 80px; padding-left: 47%; padding-right: 7%; padding-top: 35%; padding-bottom: 20%\">+</p>"	"1443"	n/a	n/a	n/a	n/a	n/a	n/a	n/a	n/a	n/a
n/a	"image-keyboard-response"	"44"	"118900"	"0.0-4.0-3.0-2.0-1.3"	"2n9oce"	"600"	"1366"	"chrome"	"110.0.0"	"FALSE"	"Windows 10"	"60.37"	"038"	n/a	n/a	n/a	n/a	n/a	n/a	"Trial"	n/a	n/a	n/a	"377"	"arrowright"	n/a	"NULL"	"NULL"	"NULL"	"stimuli/VerticalHorizontal_-330000_-0.9000.png"	n/a	"VerticalHorizontal"	"arrowright"	"1447"	"TRUE"	"VerticalHorizontal"	"-33000000000"	"-0.900000000"	"1"	"16"
n/a	"html-keyboard-response"	"45"	"119931"	"0.0-4.0-3.0-2.0-0.4"	"2n9oce"	"600"	"1366"	"chrome"	"110.0.0"	"FALSE"	"Windows 10"	"60.37"	"038"	n/a	n/a	n/a	n/a	n/a	n/a	"fixation"	n/a	n/a	n/a	n/a	"NULL"	n/a	"NULL"	"NULL"	"NULL"	"<p style=\"color: black; font-size: 80px; padding-left: 5%; padding-right: 49%; padding-top: 25%; padding-bottom: 23%\">+</p>"	"1014"	n/a	n/a	n/a	n/a	n/a	n/a	n/a	n/a	n/a
n/a	"image-keyboard-response"	"46"	"120465"	"0.0-4.0-3.0-2.0-1.4"	"2n9oce"	"600"	"1366"	"chrome"	"110.0.0"	"FALSE"	"Windows 10"	"60.37"	"038"	n/a	n/a	n/a	n/a	n/a	n/a	"Trial"	n/a	n/a	n/a	"533"	"arrowleft"	n/a	"NULL"	"NULL"	"NULL"	"stimuli/VerticalHorizontal_3300000_0.90000.png"	n/a	"VerticalHorizontal"	"arrowleft"	"1031"	"TRUE"	"VerticalHorizontal"	"330000000000"	"0.9000000000"	"1"	"17"
n/a	"html-keyboard-response"	"47"	"121606"	"0.0-4.0-3.0-2.0-0.5"	"2n9oce"	"600"	"1366"	"chrome"	"110.0.0"	"FALSE"	"Windows 10"	"60.37"	"038"	n/a	n/a	n/a	n/a	n/a	n/a	"fixation"	n/a	n/a	n/a	n/a	"NULL"	n/a	"NULL"	"NULL"	"NULL"	"<p style=\"color: black; font-size: 80px; padding-left: 19%; padding-right: 2%; padding-top: 22%; padding-bottom: 28%\">+</p>"	"1136"	n/a	n/a	n/a	n/a	n/a	n/a	n/a	n/a	n/a
n/a	"image-keyboard-response"	"48"	"122034"	"0.0-4.0-3.0-2.0-1.5"	"2n9oce"	"600"	"1366"	"chrome"	"110.0.0"	"FALSE"	"Windows 10"	"60.37"	"038"	n/a	n/a	n/a	n/a	n/a	n/a	"Trial"	n/a	n/a	n/a	"427"	"arrowright"	n/a	"NULL"	"NULL"	"NULL"	"stimuli/VerticalHorizontal_0000000_-0.9000.png"	n/a	"VerticalHorizontal"	"arrowright"	"1141"	"TRUE"	"VerticalHorizontal"	"000000000000"	"-0.900000000"	"1"	"18"
n/a	"html-button-response"	"49"	"124432"	"0.0-4.0-3.0-3.0"	"2n9oce"	"600"	"1366"	"chrome"	"110.0.0"	"FALSE"	"Windows 10"	"60.37"	"038"	n/a	n/a	n/a	n/a	n/a	n/a	"practice_block_results"	n/a	n/a	n/a	"2397"	"0"	n/a	"NULL"	"NULL"	"NULL"	"<p style='color:rgb(76,175,80);'> Correct Responses: <b>100.00%</b></p><hr><p style='color:rgb(233,30,99);'> Average Response Time: <b>492.67</b> ms.</p>"	n/a	n/a	n/a	n/a	n/a	n/a	n/a	n/a	n/a	n/a
n/a	"html-button-response"	"50"	"284334"	"0.0-4.0-4.0"	"2n9oce"	"600"	"1366"	"chrome"	"110.0.0"	"FALSE"	"Windows 10"	"60.37"	"038"	n/a	n/a	n/a	n/a	n/a	n/a	"practice_debrief"	n/a	n/a	n/a	"159393"	"0"	n/a	"NULL"	"NULL"	"NULL"	"<p><b>TRAINING COMPLETED</b></p><p>In the next phase, there will be more trials, and some might be harder too.<br> Moreover, after each illusion block, a <b>score</b> will be calculated based on speed (time you took to answer) and accuracy (number of errors).</p><p>Try to keep up a high score!</p><br><p>Note that it can be <i>really</i> challenging at times, so you will need to rely on your <b>intuition</b> and gut feeling to answer as fast as you can without making errors.</p><p>Each illusion block will be repeated two times (so that you have the opportunity to improve your score), but the order of the blocks is random.</p><p>Remember, your goal is to be as <b>fast</b> and <b>accurate</b> as possible. Good luck!</p><br>"	n/a	n/a	n/a	n/a	n/a	n/a	n/a	n/a	n/a	n/a
"TRUE"	"preload"	"51"	"284495"	"0.0-5.0-0.0"	"2n9oce"	"600"	"1366"	"chrome"	"110.0.0"	"FALSE"	"Windows 10"	"60.37"	"038"	n/a	n/a	n/a	n/a	n/a	n/a	n/a	n/a	n/a	n/a	n/a	"NULL"	"FALSE"	"list()"	"list()"	"list()"	n/a	n/a	n/a	n/a	n/a	n/a	n/a	n/a	n/a	n/a	n/a
n/a	"html-keyboard-response"	"52"	"289143"	"0.0-5.0-1.0"	"2n9oce"	"600"	"1366"	"chrome"	"110.0.0"	"FALSE"	"Windows 10"	"60.37"	"038"	n/a	n/a	n/a	n/a	n/a	n/a	n/a	n/a	n/a	n/a	"4647"	"enter"	n/a	"NULL"	"NULL"	"NULL"	"<p><b>Part 1/6</b></p><p>In this part, two red circles will appear side by side on the screen.</p><p>Your task is to select which <b>red circle is bigger</b> in size as fast as you can, without making errors.</p><p>Don't get distracted by the surrounding black circles around the red circles!</p><p>Press <b>the LEFT or the RIGHT arrow</b> to indicate which is the bigger <b>red circle.</b></p><div style='float: center'><img src='materials/instructions/Ebbinghaus_Demo.png' height='300'></img><p><img src='utils/answer/answer_leftright_keyboard.PNG' height='150'></img></p><p class='small'>In this example, the correct answer is the <b>LEFT arrow</b>.</p></div><p>Are you ready? <b>Press ENTER to start</b></p>"	n/a	n/a	n/a	n/a	n/a	n/a	n/a	n/a	n/a	n/a
n/a	"html-keyboard-response"	"53"	"290772"	"0.0-5.0-2.0-0.0"	"2n9oce"	"600"	"1366"	"chrome"	"110.0.0"	"FALSE"	"Windows 10"	"60.37"	"038"	n/a	n/a	n/a	n/a	n/a	n/a	"fixation"	n/a	n/a	n/a	n/a	"NULL"	n/a	"NULL"	"NULL"	"NULL"	"<p style=\"color: black; font-size: 80px; padding-left: 39%; padding-right: 30%; padding-top: 37%; padding-bottom: 15%\">+</p>"	"1112"	n/a	n/a	n/a	n/a	n/a	n/a	n/a	n/a	n/a
n/a	"image-keyboard-response"	"54"	"292110"	"0.0-5.0-2.0-1.0"	"2n9oce"	"600"	"1366"	"chrome"	"110.0.0"	"FALSE"	"Windows 10"	"60.37"	"038"	n/a	n/a	n/a	n/a	n/a	n/a	"Trial"	n/a	n/a	n/a	"1338"	"arrowleft"	n/a	"NULL"	"NULL"	"NULL"	"stimuli/Ebbinghaus_-0.61429_0.15857.png"	n/a	"Ebbinghaus"	"arrowleft"	"1629"	"TRUE"	"Ebbinghaus"	"-0.614290000"	"0.1585700000"	"1"	"19"
n/a	"html-keyboard-response"	"55"	"293356"	"0.0-5.0-2.0-0.1"	"2n9oce"	"600"	"1366"	"chrome"	"110.0.0"	"FALSE"	"Windows 10"	"60.37"	"038"	n/a	n/a	n/a	n/a	n/a	n/a	"fixation"	n/a	n/a	n/a	n/a	"NULL"	n/a	"NULL"	"NULL"	"NULL"	"<p style=\"color: black; font-size: 80px; padding-left: 32%; padding-right: 47%; padding-top: 6%; padding-bottom: 46%\">+</p>"	"1241"	n/a	n/a	n/a	n/a	n/a	n/a	n/a	n/a	n/a
n/a	"image-keyboard-response"	"56"	"294255"	"0.0-5.0-2.0-1.1"	"2n9oce"	"600"	"1366"	"chrome"	"110.0.0"	"FALSE"	"Windows 10"	"60.37"	"038"	n/a	n/a	n/a	n/a	n/a	n/a	"Trial"	n/a	n/a	n/a	"899"	"arrowright"	n/a	"NULL"	"NULL"	"NULL"	"stimuli/Ebbinghaus_0.10000_-0.15857.png"	n/a	"Ebbinghaus"	"arrowright"	"1246"	"TRUE"	"Ebbinghaus"	"0.1000000000"	"-0.158570000"	"1"	"20"
n/a	"html-keyboard-response"	"57"	"295409"	"0.0-5.0-2.0-0.2"	"2n9oce"	"600"	"1366"	"chrome"	"110.0.0"	"FALSE"	"Windows 10"	"60.37"	"038"	n/a	n/a	n/a	n/a	n/a	n/a	"fixation"	n/a	n/a	n/a	n/a	"NULL"	n/a	"NULL"	"NULL"	"NULL"	"<p style=\"color: black; font-size: 80px; padding-left: 42%; padding-right: 5%; padding-top: 27%; padding-bottom: 29%\">+</p>"	"1149"	n/a	n/a	n/a	n/a	n/a	n/a	n/a	n/a	n/a
n/a	"image-keyboard-response"	"58"	"296360"	"0.0-5.0-2.0-1.2"	"2n9oce"	"600"	"1366"	"chrome"	"110.0.0"	"FALSE"	"Windows 10"	"60.37"	"038"	n/a	n/a	n/a	n/a	n/a	n/a	"Trial"	n/a	n/a	n/a	"950"	"arrowright"	n/a	"NULL"	"NULL"	"NULL"	"stimuli/Ebbinghaus_-0.1000_-0.11071.png"	n/a	"Ebbinghaus"	"arrowright"	"1154"	"TRUE"	"Ebbinghaus"	"-0.100000000"	"-0.110710000"	"1"	"21"
n/a	"html-keyboard-response"	"59"	"297584"	"0.0-5.0-2.0-0.3"	"2n9oce"	"600"	"1366"	"chrome"	"110.0.0"	"FALSE"	"Windows 10"	"60.37"	"038"	n/a	n/a	n/a	n/a	n/a	n/a	"fixation"	n/a	n/a	n/a	n/a	"NULL"	n/a	"NULL"	"NULL"	"NULL"	"<p style=\"color: black; font-size: 80px; padding-left: 15%; padding-right: 39%; padding-top: 14%; padding-bottom: 4%\">+</p>"	"1208"	n/a	n/a	n/a	n/a	n/a	n/a	n/a	n/a	n/a
n/a	"image-keyboard-response"	"60"	"299067"	"0.0-5.0-2.0-1.3"	"2n9oce"	"600"	"1366"	"chrome"	"110.0.0"	"FALSE"	"Windows 10"	"60.37"	"038"	n/a	n/a	n/a	n/a	n/a	n/a	"Trial"	n/a	n/a	n/a	"1482"	"arrowleft"	n/a	"NULL"	"NULL"	"NULL"	"stimuli/Ebbinghaus_0.35714_0.11071.png"	n/a	"Ebbinghaus"	"arrowleft"	"1224"	"TRUE"	"Ebbinghaus"	"0.3571400000"	"0.1107100000"	"1"	"22"
n/a	"html-keyboard-response"	"61"	"300340"	"0.0-5.0-2.0-0.4"	"2n9oce"	"600"	"1366"	"chrome"	"110.0.0"	"FALSE"	"Windows 10"	"60.37"	"038"	n/a	n/a	n/a	n/a	n/a	n/a	"fixation"	n/a	n/a	n/a	n/a	"NULL"	n/a	"NULL"	"NULL"	"NULL"	"<p style=\"color: black; font-size: 80px; padding-left: 1%; padding-right: 41%; padding-top: 24%; padding-bottom: 9%\">+</p>"	"1268"	n/a	n/a	n/a	n/a	n/a	n/a	n/a	n/a	n/a
n/a	"image-keyboard-response"	"62"	"301079"	"0.0-5.0-2.0-1.4"	"2n9oce"	"600"	"1366"	"chrome"	"110.0.0"	"FALSE"	"Windows 10"	"60.37"	"038"	n/a	n/a	n/a	n/a	n/a	n/a	"Trial"	n/a	n/a	n/a	"738"	"arrowright"	n/a	"NULL"	"NULL"	"NULL"	"stimuli/Ebbinghaus_-0.87143_-0.2800.png"	n/a	"Ebbinghaus"	"arrowright"	"1273"	"TRUE"	"Ebbinghaus"	"-0.871430000"	"-0.280000000"	"1"	"23"
n/a	"html-keyboard-response"	"63"	"302251"	"0.0-5.0-2.0-0.5"	"2n9oce"	"600"	"1366"	"chrome"	"110.0.0"	"FALSE"	"Windows 10"	"60.37"	"038"	n/a	n/a	n/a	n/a	n/a	n/a	"fixation"	n/a	n/a	n/a	n/a	"NULL"	n/a	"NULL"	"NULL"	"NULL"	"<p style=\"color: black; font-size: 80px; padding-left: 1%; padding-right: 40%; padding-top: 17%; padding-bottom: 35%\">+</p>"	"1169"	n/a	n/a	n/a	n/a	n/a	n/a	n/a	n/a	n/a
n/a	"image-keyboard-response"	"64"	"302946"	"0.0-5.0-2.0-1.5"	"2n9oce"	"600"	"1366"	"chrome"	"110.0.0"	"FALSE"	"Windows 10"	"60.37"	"038"	n/a	n/a	n/a	n/a	n/a	n/a	"Trial"	n/a	n/a	n/a	"694"	"arrowright"	n/a	"NULL"	"NULL"	"NULL"	"stimuli/Ebbinghaus_-0.1000_-0.2800.png"	n/a	"Ebbinghaus"	"arrowright"	"1172"	"TRUE"	"Ebbinghaus"	"-0.100000000"	"-0.280000000"	"1"	"24"
n/a	"html-keyboard-response"	"65"	"304316"	"0.0-5.0-2.0-0.6"	"2n9oce"	"600"	"1366"	"chrome"	"110.0.0"	"FALSE"	"Windows 10"	"60.37"	"038"	n/a	n/a	n/a	n/a	n/a	n/a	"fixation"	n/a	n/a	n/a	n/a	"NULL"	n/a	"NULL"	"NULL"	"NULL"	"<p style=\"color: black; font-size: 80px; padding-left: 38%; padding-right: 12%; padding-top: 13%; padding-bottom: 20%\">+</p>"	"1366"	n/a	n/a	n/a	n/a	n/a	n/a	n/a	n/a	n/a
n/a	"image-keyboard-response"	"66"	"305747"	"0.0-5.0-2.0-1.6"	"2n9oce"	"600"	"1366"	"chrome"	"110.0.0"	"FALSE"	"Windows 10"	"60.37"	"038"	n/a	n/a	n/a	n/a	n/a	n/a	"Trial"	n/a	n/a	n/a	"1431"	"arrowleft"	n/a	"NULL"	"NULL"	"NULL"	"stimuli/Ebbinghaus_0.61429_-0.15857.png"	n/a	"Ebbinghaus"	"arrowright"	"1370"	"FALSE"	"Ebbinghaus"	"0.6142900000"	"-0.158570000"	"1"	"25"
n/a	"html-keyboard-response"	"67"	"306866"	"0.0-5.0-2.0-0.7"	"2n9oce"	"600"	"1366"	"chrome"	"110.0.0"	"FALSE"	"Windows 10"	"60.37"	"038"	n/a	n/a	n/a	n/a	n/a	n/a	"fixation"	n/a	n/a	n/a	n/a	"NULL"	n/a	"NULL"	"NULL"	"NULL"	"<p style=\"color: black; font-size: 80px; padding-left: 5%; padding-right: 50%; padding-top: 22%; padding-bottom: 19%\">+</p>"	"1106"	n/a	n/a	n/a	n/a	n/a	n/a	n/a	n/a	n/a
n/a	"image-keyboard-response"	"68"	"307830"	"0.0-5.0-2.0-1.7"	"2n9oce"	"600"	"1366"	"chrome"	"110.0.0"	"FALSE"	"Windows 10"	"60.37"	"038"	n/a	n/a	n/a	n/a	n/a	n/a	"Trial"	n/a	n/a	n/a	"964"	"arrowleft"	n/a	"NULL"	"NULL"	"NULL"	"stimuli/Ebbinghaus_-0.61429_0.28000.png"	n/a	"Ebbinghaus"	"arrowleft"	"1119"	"TRUE"	"Ebbinghaus"	"-0.614290000"	"0.2800000000"	"1"	"26"
n/a	"html-keyboard-response"	"69"	"309237"	"0.0-5.0-2.0-0.8"	"2n9oce"	"600"	"1366"	"chrome"	"110.0.0"	"FALSE"	"Windows 10"	"60.37"	"038"	n/a	n/a	n/a	n/a	n/a	n/a	"fixation"	n/a	n/a	n/a	n/a	"NULL"	n/a	"NULL"	"NULL"	"NULL"	"<p style=\"color: black; font-size: 80px; padding-left: 36%; padding-right: 12%; padding-top: 31%; padding-bottom: 40%\">+</p>"	"1405"	n/a	n/a	n/a	n/a	n/a	n/a	n/a	n/a	n/a
n/a	"image-keyboard-response"	"70"	"310043"	"0.0-5.0-2.0-1.8"	"2n9oce"	"600"	"1366"	"chrome"	"110.0.0"	"FALSE"	"Windows 10"	"60.37"	"038"	n/a	n/a	n/a	n/a	n/a	n/a	"Trial"	n/a	n/a	n/a	"804"	"arrowright"	n/a	"NULL"	"NULL"	"NULL"	"stimuli/Ebbinghaus_0.10000_-0.11071.png"	n/a	"Ebbinghaus"	"arrowright"	"1407"	"TRUE"	"Ebbinghaus"	"0.1000000000"	"-0.110710000"	"1"	"27"
n/a	"html-keyboard-response"	"71"	"311375"	"0.0-5.0-2.0-0.9"	"2n9oce"	"600"	"1366"	"chrome"	"110.0.0"	"FALSE"	"Windows 10"	"60.37"	"038"	n/a	n/a	n/a	n/a	n/a	n/a	"fixation"	n/a	n/a	n/a	n/a	"NULL"	n/a	"NULL"	"NULL"	"NULL"	"<p style=\"color: black; font-size: 80px; padding-left: 22%; padding-right: 27%; padding-top: 32%; padding-bottom: 23%\">+</p>"	"1329"	n/a	n/a	n/a	n/a	n/a	n/a	n/a	n/a	n/a
n/a	"image-keyboard-response"	"72"	"312181"	"0.0-5.0-2.0-1.9"	"2n9oce"	"600"	"1366"	"chrome"	"110.0.0"	"FALSE"	"Windows 10"	"60.37"	"038"	n/a	n/a	n/a	n/a	n/a	n/a	"Trial"	n/a	n/a	n/a	"805"	"arrowright"	n/a	"NULL"	"NULL"	"NULL"	"stimuli/Ebbinghaus_-0.35714_-0.11071.png"	n/a	"Ebbinghaus"	"arrowright"	"1332"	"TRUE"	"Ebbinghaus"	"-0.357140000"	"-0.110710000"	"1"	"28"
n/a	"html-keyboard-response"	"73"	"313217"	"0.0-5.0-2.0-0.10"	"2n9oce"	"600"	"1366"	"chrome"	"110.0.0"	"FALSE"	"Windows 10"	"60.37"	"038"	n/a	n/a	n/a	n/a	n/a	n/a	"fixation"	n/a	n/a	n/a	n/a	"NULL"	n/a	"NULL"	"NULL"	"NULL"	"<p style=\"color: black; font-size: 80px; padding-left: 32%; padding-right: 4%; padding-top: 22%; padding-bottom: 20%\">+</p>"	"1034"	n/a	n/a	n/a	n/a	n/a	n/a	n/a	n/a	n/a
n/a	"image-keyboard-response"	"74"	"313871"	"0.0-5.0-2.0-1.10"	"2n9oce"	"600"	"1366"	"chrome"	"110.0.0"	"FALSE"	"Windows 10"	"60.37"	"038"	n/a	n/a	n/a	n/a	n/a	n/a	"Trial"	n/a	n/a	n/a	"654"	"arrowright"	n/a	"NULL"	"NULL"	"NULL"	"stimuli/Ebbinghaus_-0.61429_-0.2150.png"	n/a	"Ebbinghaus"	"arrowright"	"1036"	"TRUE"	"Ebbinghaus"	"-0.614290000"	"-0.215000000"	"1"	"29"
n/a	"html-keyboard-response"	"75"	"315155"	"0.0-5.0-2.0-0.11"	"2n9oce"	"600"	"1366"	"chrome"	"110.0.0"	"FALSE"	"Windows 10"	"60.37"	"038"	n/a	n/a	n/a	n/a	n/a	n/a	"fixation"	n/a	n/a	n/a	n/a	"NULL"	n/a	"NULL"	"NULL"	"NULL"	"<p style=\"color: black; font-size: 80px; padding-left: 28%; padding-right: 35%; padding-top: 36%; padding-bottom: 19%\">+</p>"	"1275"	n/a	n/a	n/a	n/a	n/a	n/a	n/a	n/a	n/a
n/a	"image-keyboard-response"	"76"	"316247"	"0.0-5.0-2.0-1.11"	"2n9oce"	"600"	"1366"	"chrome"	"110.0.0"	"FALSE"	"Windows 10"	"60.37"	"038"	n/a	n/a	n/a	n/a	n/a	n/a	"Trial"	n/a	n/a	n/a	"1091"	"arrowleft"	n/a	"NULL"	"NULL"	"NULL"	"stimuli/Ebbinghaus_0.87143_0.21500.png"	n/a	"Ebbinghaus"	"arrowleft"	"1284"	"TRUE"	"Ebbinghaus"	"0.8714300000"	"0.2150000000"	"1"	"30"
n/a	"html-keyboard-response"	"77"	"317654"	"0.0-5.0-2.0-0.12"	"2n9oce"	"600"	"1366"	"chrome"	"110.0.0"	"FALSE"	"Windows 10"	"60.37"	"038"	n/a	n/a	n/a	n/a	n/a	n/a	"fixation"	n/a	n/a	n/a	n/a	"NULL"	n/a	"NULL"	"NULL"	"NULL"	"<p style=\"color: black; font-size: 80px; padding-left: 30%; padding-right: 11%; padding-top: 35%; padding-bottom: 4%\">+</p>"	"1398"	n/a	n/a	n/a	n/a	n/a	n/a	n/a	n/a	n/a
n/a	"image-keyboard-response"	"78"	"318398"	"0.0-5.0-2.0-1.12"	"2n9oce"	"600"	"1366"	"chrome"	"110.0.0"	"FALSE"	"Windows 10"	"60.37"	"038"	n/a	n/a	n/a	n/a	n/a	n/a	"Trial"	n/a	n/a	n/a	"744"	"arrowright"	n/a	"NULL"	"NULL"	"NULL"	"stimuli/Ebbinghaus_0.87143_-0.2800.png"	n/a	"Ebbinghaus"	"arrowright"	"1407"	"TRUE"	"Ebbinghaus"	"0.8714300000"	"-0.280000000"	"1"	"31"
n/a	"html-keyboard-response"	"79"	"319741"	"0.0-5.0-2.0-0.13"	"2n9oce"	"600"	"1366"	"chrome"	"110.0.0"	"FALSE"	"Windows 10"	"60.37"	"038"	n/a	n/a	n/a	n/a	n/a	n/a	"fixation"	n/a	n/a	n/a	n/a	"NULL"	n/a	"NULL"	"NULL"	"NULL"	"<p style=\"color: black; font-size: 80px; padding-left: 35%; padding-right: 46%; padding-top: 35%; padding-bottom: 42%\">+</p>"	"1328"	n/a	n/a	n/a	n/a	n/a	n/a	n/a	n/a	n/a
n/a	"image-keyboard-response"	"80"	"320571"	"0.0-5.0-2.0-1.13"	"2n9oce"	"600"	"1366"	"chrome"	"110.0.0"	"FALSE"	"Windows 10"	"60.37"	"038"	n/a	n/a	n/a	n/a	n/a	n/a	"Trial"	n/a	n/a	n/a	"829"	"arrowright"	n/a	"NULL"	"NULL"	"NULL"	"stimuli/Ebbinghaus_-0.61429_-0.2800.png"	n/a	"Ebbinghaus"	"arrowright"	"1343"	"TRUE"	"Ebbinghaus"	"-0.614290000"	"-0.280000000"	"1"	"32"
n/a	"html-keyboard-response"	"81"	"321883"	"0.0-5.0-2.0-0.14"	"2n9oce"	"600"	"1366"	"chrome"	"110.0.0"	"FALSE"	"Windows 10"	"60.37"	"038"	n/a	n/a	n/a	n/a	n/a	n/a	"fixation"	n/a	n/a	n/a	n/a	"NULL"	n/a	"NULL"	"NULL"	"NULL"	"<p style=\"color: black; font-size: 80px; padding-left: 21%; padding-right: 47%; padding-top: 33%; padding-bottom: 14%\">+</p>"	"1303"	n/a	n/a	n/a	n/a	n/a	n/a	n/a	n/a	n/a
n/a	"image-keyboard-response"	"82"	"323104"	"0.0-5.0-2.0-1.14"	"2n9oce"	"600"	"1366"	"chrome"	"110.0.0"	"FALSE"	"Windows 10"	"60.37"	"038"	n/a	n/a	n/a	n/a	n/a	n/a	"Trial"	n/a	n/a	n/a	"1220"	"arrowleft"	n/a	"NULL"	"NULL"	"NULL"	"stimuli/Ebbinghaus_0.61429_0.15857.png"	n/a	"Ebbinghaus"	"arrowleft"	"1312"	"TRUE"	"Ebbinghaus"	"0.6142900000"	"0.1585700000"	"1"	"33"
n/a	"html-keyboard-response"	"83"	"324508"	"0.0-5.0-2.0-0.15"	"2n9oce"	"600"	"1366"	"chrome"	"110.0.0"	"FALSE"	"Windows 10"	"60.37"	"038"	n/a	n/a	n/a	n/a	n/a	n/a	"fixation"	n/a	n/a	n/a	n/a	"NULL"	n/a	"NULL"	"NULL"	"NULL"	"<p style=\"color: black; font-size: 80px; padding-left: 6%; padding-right: 30%; padding-top: 31%; padding-bottom: 3%\">+</p>"	"1388"	n/a	n/a	n/a	n/a	n/a	n/a	n/a	n/a	n/a
n/a	"image-keyboard-response"	"84"	"325340"	"0.0-5.0-2.0-1.15"	"2n9oce"	"600"	"1366"	"chrome"	"110.0.0"	"FALSE"	"Windows 10"	"60.37"	"038"	n/a	n/a	n/a	n/a	n/a	n/a	"Trial"	n/a	n/a	n/a	"831"	"arrowleft"	n/a	"NULL"	"NULL"	"NULL"	"stimuli/Ebbinghaus_-0.35714_0.28000.png"	n/a	"Ebbinghaus"	"arrowleft"	"1404"	"TRUE"	"Ebbinghaus"	"-0.357140000"	"0.2800000000"	"1"	"34"
n/a	"html-keyboard-response"	"85"	"326493"	"0.0-5.0-2.0-0.16"	"2n9oce"	"600"	"1366"	"chrome"	"110.0.0"	"FALSE"	"Windows 10"	"60.37"	"038"	n/a	n/a	n/a	n/a	n/a	n/a	"fixation"	n/a	n/a	n/a	n/a	"NULL"	n/a	"NULL"	"NULL"	"NULL"	"<p style=\"color: black; font-size: 80px; padding-left: 35%; padding-right: 26%; padding-top: 22%; padding-bottom: 15%\">+</p>"	"1150"	n/a	n/a	n/a	n/a	n/a	n/a	n/a	n/a	n/a
n/a	"image-keyboard-response"	"86"	"327499"	"0.0-5.0-2.0-1.16"	"2n9oce"	"600"	"1366"	"chrome"	"110.0.0"	"FALSE"	"Windows 10"	"60.37"	"038"	n/a	n/a	n/a	n/a	n/a	n/a	"Trial"	n/a	n/a	n/a	"1005"	"arrowleft"	n/a	"NULL"	"NULL"	"NULL"	"stimuli/Ebbinghaus_0.87143_-0.2150.png"	n/a	"Ebbinghaus"	"arrowright"	"1153"	"FALSE"	"Ebbinghaus"	"0.8714300000"	"-0.215000000"	"1"	"35"
n/a	"html-keyboard-response"	"87"	"328813"	"0.0-5.0-2.0-0.17"	"2n9oce"	"600"	"1366"	"chrome"	"110.0.0"	"FALSE"	"Windows 10"	"60.37"	"038"	n/a	n/a	n/a	n/a	n/a	n/a	"fixation"	n/a	n/a	n/a	n/a	"NULL"	n/a	"NULL"	"NULL"	"NULL"	"<p style=\"color: black; font-size: 80px; padding-left: 41%; padding-right: 10%; padding-top: 9%; padding-bottom: 28%\">+</p>"	"1306"	n/a	n/a	n/a	n/a	n/a	n/a	n/a	n/a	n/a
n/a	"image-keyboard-response"	"88"	"329447"	"0.0-5.0-2.0-1.17"	"2n9oce"	"600"	"1366"	"chrome"	"110.0.0"	"FALSE"	"Windows 10"	"60.37"	"038"	n/a	n/a	n/a	n/a	n/a	n/a	"Trial"	n/a	n/a	n/a	"633"	"arrowleft"	n/a	"NULL"	"NULL"	"NULL"	"stimuli/Ebbinghaus_0.61429_0.28000.png"	n/a	"Ebbinghaus"	"arrowleft"	"1314"	"TRUE"	"Ebbinghaus"	"0.6142900000"	"0.2800000000"	"1"	"36"
n/a	"html-keyboard-response"	"89"	"330819"	"0.0-5.0-2.0-0.18"	"2n9oce"	"600"	"1366"	"chrome"	"110.0.0"	"FALSE"	"Windows 10"	"60.37"	"038"	n/a	n/a	n/a	n/a	n/a	n/a	"fixation"	n/a	n/a	n/a	n/a	"NULL"	n/a	"NULL"	"NULL"	"NULL"	"<p style=\"color: black; font-size: 80px; padding-left: 9%; padding-right: 15%; padding-top: 23%; padding-bottom: 19%\">+</p>"	"1364"	n/a	n/a	n/a	n/a	n/a	n/a	n/a	n/a	n/a
n/a	"image-keyboard-response"	"90"	"331790"	"0.0-5.0-2.0-1.18"	"2n9oce"	"600"	"1366"	"chrome"	"110.0.0"	"FALSE"	"Windows 10"	"60.37"	"038"	n/a	n/a	n/a	n/a	n/a	n/a	"Trial"	n/a	n/a	n/a	"970"	"arrowleft"	n/a	"NULL"	"NULL"	"NULL"	"stimuli/Ebbinghaus_-0.35714_0.15857.png"	n/a	"Ebbinghaus"	"arrowleft"	"1372"	"TRUE"	"Ebbinghaus"	"-0.357140000"	"0.1585700000"	"1"	"37"
n/a	"html-keyboard-response"	"91"	"333259"	"0.0-5.0-2.0-0.19"	"2n9oce"	"600"	"1366"	"chrome"	"110.0.0"	"FALSE"	"Windows 10"	"60.37"	"038"	n/a	n/a	n/a	n/a	n/a	n/a	"fixation"	n/a	n/a	n/a	n/a	"NULL"	n/a	"NULL"	"NULL"	"NULL"	"<p style=\"color: black; font-size: 80px; padding-left: 6%; padding-right: 2%; padding-top: 27%; padding-bottom: 24%\">+</p>"	"1463"	n/a	n/a	n/a	n/a	n/a	n/a	n/a	n/a	n/a
n/a	"image-keyboard-response"	"92"	"334149"	"0.0-5.0-2.0-1.19"	"2n9oce"	"600"	"1366"	"chrome"	"110.0.0"	"FALSE"	"Windows 10"	"60.37"	"038"	n/a	n/a	n/a	n/a	n/a	n/a	"Trial"	n/a	n/a	n/a	"890"	"arrowleft"	n/a	"NULL"	"NULL"	"NULL"	"stimuli/Ebbinghaus_-0.1000_0.15857.png"	n/a	"Ebbinghaus"	"arrowleft"	"1469"	"TRUE"	"Ebbinghaus"	"-0.100000000"	"0.1585700000"	"1"	"38"
n/a	"html-keyboard-response"	"93"	"335603"	"0.0-5.0-2.0-0.20"	"2n9oce"	"600"	"1366"	"chrome"	"110.0.0"	"FALSE"	"Windows 10"	"60.37"	"038"	n/a	n/a	n/a	n/a	n/a	n/a	"fixation"	n/a	n/a	n/a	n/a	"NULL"	n/a	"NULL"	"NULL"	"NULL"	"<p style=\"color: black; font-size: 80px; padding-left: 26%; padding-right: 42%; padding-top: 5%; padding-bottom: 49%\">+</p>"	"1438"	n/a	n/a	n/a	n/a	n/a	n/a	n/a	n/a	n/a
n/a	"image-keyboard-response"	"94"	"336199"	"0.0-5.0-2.0-1.20"	"2n9oce"	"600"	"1366"	"chrome"	"110.0.0"	"FALSE"	"Windows 10"	"60.37"	"038"	n/a	n/a	n/a	n/a	n/a	n/a	"Trial"	n/a	n/a	n/a	"595"	"arrowleft"	n/a	"NULL"	"NULL"	"NULL"	"stimuli/Ebbinghaus_0.10000_0.28000.png"	n/a	"Ebbinghaus"	"arrowleft"	"1454"	"TRUE"	"Ebbinghaus"	"0.1000000000"	"0.2800000000"	"1"	"39"
n/a	"html-keyboard-response"	"95"	"337664"	"0.0-5.0-2.0-0.21"	"2n9oce"	"600"	"1366"	"chrome"	"110.0.0"	"FALSE"	"Windows 10"	"60.37"	"038"	n/a	n/a	n/a	n/a	n/a	n/a	"fixation"	n/a	n/a	n/a	n/a	"NULL"	n/a	"NULL"	"NULL"	"NULL"	"<p style=\"color: black; font-size: 80px; padding-left: 23%; padding-right: 38%; padding-top: 41%; padding-bottom: 23%\">+</p>"	"1464"	n/a	n/a	n/a	n/a	n/a	n/a	n/a	n/a	n/a
n/a	"image-keyboard-response"	"96"	"338445"	"0.0-5.0-2.0-1.21"	"2n9oce"	"600"	"1366"	"chrome"	"110.0.0"	"FALSE"	"Windows 10"	"60.37"	"038"	n/a	n/a	n/a	n/a	n/a	n/a	"Trial"	n/a	n/a	n/a	"780"	"arrowleft"	n/a	"NULL"	"NULL"	"NULL"	"stimuli/Ebbinghaus_0.35714_0.15857.png"	n/a	"Ebbinghaus"	"arrowleft"	"1465"	"TRUE"	"Ebbinghaus"	"0.3571400000"	"0.1585700000"	"1"	"40"
n/a	"html-keyboard-response"	"97"	"339914"	"0.0-5.0-2.0-0.22"	"2n9oce"	"600"	"1366"	"chrome"	"110.0.0"	"FALSE"	"Windows 10"	"60.37"	"038"	n/a	n/a	n/a	n/a	n/a	n/a	"fixation"	n/a	n/a	n/a	n/a	"NULL"	n/a	"NULL"	"NULL"	"NULL"	"<p style=\"color: black; font-size: 80px; padding-left: 10%; padding-right: 8%; padding-top: 2%; padding-bottom: 6%\">+</p>"	"1467"	n/a	n/a	n/a	n/a	n/a	n/a	n/a	n/a	n/a
n/a	"image-keyboard-response"	"98"	"340576"	"0.0-5.0-2.0-1.22"	"2n9oce"	"600"	"1366"	"chrome"	"110.0.0"	"FALSE"	"Windows 10"	"60.37"	"038"	n/a	n/a	n/a	n/a	n/a	n/a	"Trial"	n/a	n/a	n/a	"661"	"arrowleft"	n/a	"NULL"	"NULL"	"NULL"	"stimuli/Ebbinghaus_0.35714_0.21500.png"	n/a	"Ebbinghaus"	"arrowleft"	"1469"	"TRUE"	"Ebbinghaus"	"0.3571400000"	"0.2150000000"	"1"	"41"
n/a	"html-keyboard-response"	"99"	"342016"	"0.0-5.0-2.0-0.23"	"2n9oce"	"600"	"1366"	"chrome"	"110.0.0"	"FALSE"	"Windows 10"	"60.37"	"038"	n/a	n/a	n/a	n/a	n/a	n/a	"fixation"	n/a	n/a	n/a	n/a	"NULL"	n/a	"NULL"	"NULL"	"NULL"	"<p style=\"color: black; font-size: 80px; padding-left: 21%; padding-right: 35%; padding-top: 0%; padding-bottom: 23%\">+</p>"	"1437"	n/a	n/a	n/a	n/a	n/a	n/a	n/a	n/a	n/a
n/a	"image-keyboard-response"	"100"	"342603"	"0.0-5.0-2.0-1.23"	"2n9oce"	"600"	"1366"	"chrome"	"110.0.0"	"FALSE"	"Windows 10"	"60.37"	"038"	n/a	n/a	n/a	n/a	n/a	n/a	"Trial"	n/a	n/a	n/a	"586"	"arrowright"	n/a	"NULL"	"NULL"	"NULL"	"stimuli/Ebbinghaus_0.61429_-0.2150.png"	n/a	"Ebbinghaus"	"arrowright"	"1440"	"TRUE"	"Ebbinghaus"	"0.6142900000"	"-0.215000000"	"1"	"42"
n/a	"html-keyboard-response"	"101"	"343646"	"0.0-5.0-2.0-0.24"	"2n9oce"	"600"	"1366"	"chrome"	"110.0.0"	"FALSE"	"Windows 10"	"60.37"	"038"	n/a	n/a	n/a	n/a	n/a	n/a	"fixation"	n/a	n/a	n/a	n/a	"NULL"	n/a	"NULL"	"NULL"	"NULL"	"<p style=\"color: black; font-size: 80px; padding-left: 49%; padding-right: 22%; padding-top: 37%; padding-bottom: 24%\">+</p>"	"1028"	n/a	n/a	n/a	n/a	n/a	n/a	n/a	n/a	n/a
n/a	"image-keyboard-response"	"102"	"344524"	"0.0-5.0-2.0-1.24"	"2n9oce"	"600"	"1366"	"chrome"	"110.0.0"	"FALSE"	"Windows 10"	"60.37"	"038"	n/a	n/a	n/a	n/a	n/a	n/a	"Trial"	n/a	n/a	n/a	"877"	"arrowright"	n/a	"NULL"	"NULL"	"NULL"	"stimuli/Ebbinghaus_0.10000_-0.2800.png"	n/a	"Ebbinghaus"	"arrowright"	"1043"	"TRUE"	"Ebbinghaus"	"0.1000000000"	"-0.280000000"	"1"	"43"
n/a	"html-keyboard-response"	"103"	"345884"	"0.0-5.0-2.0-0.25"	"2n9oce"	"600"	"1366"	"chrome"	"110.0.0"	"FALSE"	"Windows 10"	"60.37"	"038"	n/a	n/a	n/a	n/a	n/a	n/a	"fixation"	n/a	n/a	n/a	n/a	"NULL"	n/a	"NULL"	"NULL"	"NULL"	"<p style=\"color: black; font-size: 80px; padding-left: 48%; padding-right: 45%; padding-top: 24%; padding-bottom: 48%\">+</p>"	"1351"	n/a	n/a	n/a	n/a	n/a	n/a	n/a	n/a	n/a
n/a	"image-keyboard-response"	"104"	"346674"	"0.0-5.0-2.0-1.25"	"2n9oce"	"600"	"1366"	"chrome"	"110.0.0"	"FALSE"	"Windows 10"	"60.37"	"038"	n/a	n/a	n/a	n/a	n/a	n/a	"Trial"	n/a	n/a	n/a	"789"	"arrowright"	n/a	"NULL"	"NULL"	"NULL"	"stimuli/Ebbinghaus_0.35714_-0.2800.png"	n/a	"Ebbinghaus"	"arrowright"	"1360"	"TRUE"	"Ebbinghaus"	"0.3571400000"	"-0.280000000"	"1"	"44"
n/a	"html-keyboard-response"	"105"	"348030"	"0.0-5.0-2.0-0.26"	"2n9oce"	"600"	"1366"	"chrome"	"110.0.0"	"FALSE"	"Windows 10"	"60.37"	"038"	n/a	n/a	n/a	n/a	n/a	n/a	"fixation"	n/a	n/a	n/a	n/a	"NULL"	n/a	"NULL"	"NULL"	"NULL"	"<p style=\"color: black; font-size: 80px; padding-left: 8%; padding-right: 11%; padding-top: 26%; padding-bottom: 22%\">+</p>"	"1347"	n/a	n/a	n/a	n/a	n/a	n/a	n/a	n/a	n/a
n/a	"image-keyboard-response"	"106"	"348751"	"0.0-5.0-2.0-1.26"	"2n9oce"	"600"	"1366"	"chrome"	"110.0.0"	"FALSE"	"Windows 10"	"60.37"	"038"	n/a	n/a	n/a	n/a	n/a	n/a	"Trial"	n/a	n/a	n/a	"720"	"arrowleft"	n/a	"NULL"	"NULL"	"NULL"	"stimuli/Ebbinghaus_-0.87143_0.11071.png"	n/a	"Ebbinghaus"	"arrowleft"	"1356"	"TRUE"	"Ebbinghaus"	"-0.871430000"	"0.1107100000"	"1"	"45"
n/a	"html-keyboard-response"	"107"	"349865"	"0.0-5.0-2.0-0.27"	"2n9oce"	"600"	"1366"	"chrome"	"110.0.0"	"FALSE"	"Windows 10"	"60.37"	"038"	n/a	n/a	n/a	n/a	n/a	n/a	"fixation"	n/a	n/a	n/a	n/a	"NULL"	n/a	"NULL"	"NULL"	"NULL"	"<p style=\"color: black; font-size: 80px; padding-left: 48%; padding-right: 33%; padding-top: 34%; padding-bottom: 30%\">+</p>"	"1112"	n/a	n/a	n/a	n/a	n/a	n/a	n/a	n/a	n/a
n/a	"image-keyboard-response"	"108"	"350718"	"0.0-5.0-2.0-1.27"	"2n9oce"	"600"	"1366"	"chrome"	"110.0.0"	"FALSE"	"Windows 10"	"60.37"	"038"	n/a	n/a	n/a	n/a	n/a	n/a	"Trial"	n/a	n/a	n/a	"852"	"arrowleft"	n/a	"NULL"	"NULL"	"NULL"	"stimuli/Ebbinghaus_-0.35714_0.11071.png"	n/a	"Ebbinghaus"	"arrowleft"	"1114"	"TRUE"	"Ebbinghaus"	"-0.357140000"	"0.1107100000"	"1"	"46"
n/a	"html-keyboard-response"	"109"	"351916"	"0.0-5.0-2.0-0.28"	"2n9oce"	"600"	"1366"	"chrome"	"110.0.0"	"FALSE"	"Windows 10"	"60.37"	"038"	n/a	n/a	n/a	n/a	n/a	n/a	"fixation"	n/a	n/a	n/a	n/a	"NULL"	n/a	"NULL"	"NULL"	"NULL"	"<p style=\"color: black; font-size: 80px; padding-left: 35%; padding-right: 38%; padding-top: 18%; padding-bottom: 25%\">+</p>"	"1185"	n/a	n/a	n/a	n/a	n/a	n/a	n/a	n/a	n/a
n/a	"image-keyboard-response"	"110"	"352787"	"0.0-5.0-2.0-1.28"	"2n9oce"	"600"	"1366"	"chrome"	"110.0.0"	"FALSE"	"Windows 10"	"60.37"	"038"	n/a	n/a	n/a	n/a	n/a	n/a	"Trial"	n/a	n/a	n/a	"871"	"arrowright"	n/a	"NULL"	"NULL"	"NULL"	"stimuli/Ebbinghaus_0.35714_-0.15857.png"	n/a	"Ebbinghaus"	"arrowright"	"1198"	"TRUE"	"Ebbinghaus"	"0.3571400000"	"-0.158570000"	"1"	"47"
n/a	"html-keyboard-response"	"111"	"354006"	"0.0-5.0-2.0-0.29"	"2n9oce"	"600"	"1366"	"chrome"	"110.0.0"	"FALSE"	"Windows 10"	"60.37"	"038"	n/a	n/a	n/a	n/a	n/a	n/a	"fixation"	n/a	n/a	n/a	n/a	"NULL"	n/a	"NULL"	"NULL"	"NULL"	"<p style=\"color: black; font-size: 80px; padding-left: 27%; padding-right: 30%; padding-top: 45%; padding-bottom: 47%\">+</p>"	"1211"	n/a	n/a	n/a	n/a	n/a	n/a	n/a	n/a	n/a
n/a	"image-keyboard-response"	"112"	"354716"	"0.0-5.0-2.0-1.29"	"2n9oce"	"600"	"1366"	"chrome"	"110.0.0"	"FALSE"	"Windows 10"	"60.37"	"038"	n/a	n/a	n/a	n/a	n/a	n/a	"Trial"	n/a	n/a	n/a	"709"	"arrowleft"	n/a	"NULL"	"NULL"	"NULL"	"stimuli/Ebbinghaus_0.10000_0.15857.png"	n/a	"Ebbinghaus"	"arrowleft"	"1219"	"TRUE"	"Ebbinghaus"	"0.1000000000"	"0.1585700000"	"1"	"48"
n/a	"html-keyboard-response"	"113"	"356064"	"0.0-5.0-2.0-0.30"	"2n9oce"	"600"	"1366"	"chrome"	"110.0.0"	"FALSE"	"Windows 10"	"60.37"	"038"	n/a	n/a	n/a	n/a	n/a	n/a	"fixation"	n/a	n/a	n/a	n/a	"NULL"	n/a	"NULL"	"NULL"	"NULL"	"<p style=\"color: black; font-size: 80px; padding-left: 16%; padding-right: 10%; padding-top: 20%; padding-bottom: 45%\">+</p>"	"1340"	n/a	n/a	n/a	n/a	n/a	n/a	n/a	n/a	n/a
n/a	"image-keyboard-response"	"114"	"356812"	"0.0-5.0-2.0-1.30"	"2n9oce"	"600"	"1366"	"chrome"	"110.0.0"	"FALSE"	"Windows 10"	"60.37"	"038"	n/a	n/a	n/a	n/a	n/a	n/a	"Trial"	n/a	n/a	n/a	"747"	"arrowleft"	n/a	"NULL"	"NULL"	"NULL"	"stimuli/Ebbinghaus_-0.61429_0.11071.png"	n/a	"Ebbinghaus"	"arrowleft"	"1348"	"TRUE"	"Ebbinghaus"	"-0.614290000"	"0.1107100000"	"1"	"49"
n/a	"html-keyboard-response"	"115"	"358001"	"0.0-5.0-2.0-0.31"	"2n9oce"	"600"	"1366"	"chrome"	"110.0.0"	"FALSE"	"Windows 10"	"60.37"	"038"	n/a	n/a	n/a	n/a	n/a	n/a	"fixation"	n/a	n/a	n/a	n/a	"NULL"	n/a	"NULL"	"NULL"	"NULL"	"<p style=\"color: black; font-size: 80px; padding-left: 15%; padding-right: 44%; padding-top: 42%; padding-bottom: 45%\">+</p>"	"1181"	n/a	n/a	n/a	n/a	n/a	n/a	n/a	n/a	n/a
n/a	"image-keyboard-response"	"116"	"358977"	"0.0-5.0-2.0-1.31"	"2n9oce"	"600"	"1366"	"chrome"	"110.0.0"	"FALSE"	"Windows 10"	"60.37"	"038"	n/a	n/a	n/a	n/a	n/a	n/a	"Trial"	n/a	n/a	n/a	"976"	"arrowleft"	n/a	"NULL"	"NULL"	"NULL"	"stimuli/Ebbinghaus_0.61429_-0.11071.png"	n/a	"Ebbinghaus"	"arrowright"	"1189"	"FALSE"	"Ebbinghaus"	"0.6142900000"	"-0.110710000"	"1"	"50"
n/a	"html-keyboard-response"	"117"	"360367"	"0.0-5.0-2.0-0.32"	"2n9oce"	"600"	"1366"	"chrome"	"110.0.0"	"FALSE"	"Windows 10"	"60.37"	"038"	n/a	n/a	n/a	n/a	n/a	n/a	"fixation"	n/a	n/a	n/a	n/a	"NULL"	n/a	"NULL"	"NULL"	"NULL"	"<p style=\"color: black; font-size: 80px; padding-left: 16%; padding-right: 14%; padding-top: 37%; padding-bottom: 38%\">+</p>"	"1380"	n/a	n/a	n/a	n/a	n/a	n/a	n/a	n/a	n/a
n/a	"image-keyboard-response"	"118"	"361015"	"0.0-5.0-2.0-1.32"	"2n9oce"	"600"	"1366"	"chrome"	"110.0.0"	"FALSE"	"Windows 10"	"60.37"	"038"	n/a	n/a	n/a	n/a	n/a	n/a	"Trial"	n/a	n/a	n/a	"647"	"arrowleft"	n/a	"NULL"	"NULL"	"NULL"	"stimuli/Ebbinghaus_0.61429_0.11071.png"	n/a	"Ebbinghaus"	"arrowleft"	"1390"	"TRUE"	"Ebbinghaus"	"0.6142900000"	"0.1107100000"	"1"	"51"
n/a	"html-keyboard-response"	"119"	"362455"	"0.0-5.0-2.0-0.33"	"2n9oce"	"600"	"1366"	"chrome"	"110.0.0"	"FALSE"	"Windows 10"	"60.37"	"038"	n/a	n/a	n/a	n/a	n/a	n/a	"fixation"	n/a	n/a	n/a	n/a	"NULL"	n/a	"NULL"	"NULL"	"NULL"	"<p style=\"color: black; font-size: 80px; padding-left: 11%; padding-right: 11%; padding-top: 34%; padding-bottom: 39%\">+</p>"	"1431"	n/a	n/a	n/a	n/a	n/a	n/a	n/a	n/a	n/a
n/a	"image-keyboard-response"	"120"	"363071"	"0.0-5.0-2.0-1.33"	"2n9oce"	"600"	"1366"	"chrome"	"110.0.0"	"FALSE"	"Windows 10"	"60.37"	"038"	n/a	n/a	n/a	n/a	n/a	n/a	"Trial"	n/a	n/a	n/a	"616"	"arrowleft"	n/a	"NULL"	"NULL"	"NULL"	"stimuli/Ebbinghaus_-0.87143_0.28000.png"	n/a	"Ebbinghaus"	"arrowleft"	"1440"	"TRUE"	"Ebbinghaus"	"-0.871430000"	"0.2800000000"	"1"	"52"
n/a	"html-keyboard-response"	"121"	"364140"	"0.0-5.0-2.0-0.34"	"2n9oce"	"600"	"1366"	"chrome"	"110.0.0"	"FALSE"	"Windows 10"	"60.37"	"038"	n/a	n/a	n/a	n/a	n/a	n/a	"fixation"	n/a	n/a	n/a	n/a	"NULL"	n/a	"NULL"	"NULL"	"NULL"	"<p style=\"color: black; font-size: 80px; padding-left: 39%; padding-right: 6%; padding-top: 16%; padding-bottom: 16%\">+</p>"	"1062"	n/a	n/a	n/a	n/a	n/a	n/a	n/a	n/a	n/a
n/a	"image-keyboard-response"	"122"	"364809"	"0.0-5.0-2.0-1.34"	"2n9oce"	"600"	"1366"	"chrome"	"110.0.0"	"FALSE"	"Windows 10"	"60.37"	"038"	n/a	n/a	n/a	n/a	n/a	n/a	"Trial"	n/a	n/a	n/a	"667"	"arrowleft"	n/a	"NULL"	"NULL"	"NULL"	"stimuli/Ebbinghaus_-0.1000_0.28000.png"	n/a	"Ebbinghaus"	"arrowleft"	"1069"	"TRUE"	"Ebbinghaus"	"-0.100000000"	"0.2800000000"	"1"	"53"
n/a	"html-keyboard-response"	"123"	"366147"	"0.0-5.0-2.0-0.35"	"2n9oce"	"600"	"1366"	"chrome"	"110.0.0"	"FALSE"	"Windows 10"	"60.37"	"038"	n/a	n/a	n/a	n/a	n/a	n/a	"fixation"	n/a	n/a	n/a	n/a	"NULL"	n/a	"NULL"	"NULL"	"NULL"	"<p style=\"color: black; font-size: 80px; padding-left: 35%; padding-right: 9%; padding-top: 31%; padding-bottom: 30%\">+</p>"	"1325"	n/a	n/a	n/a	n/a	n/a	n/a	n/a	n/a	n/a
n/a	"image-keyboard-response"	"124"	"366727"	"0.0-5.0-2.0-1.35"	"2n9oce"	"600"	"1366"	"chrome"	"110.0.0"	"FALSE"	"Windows 10"	"60.37"	"038"	n/a	n/a	n/a	n/a	n/a	n/a	"Trial"	n/a	n/a	n/a	"579"	"arrowleft"	n/a	"NULL"	"NULL"	"NULL"	"stimuli/Ebbinghaus_-0.61429_0.21500.png"	n/a	"Ebbinghaus"	"arrowleft"	"1338"	"TRUE"	"Ebbinghaus"	"-0.614290000"	"0.2150000000"	"1"	"54"
n/a	"html-keyboard-response"	"125"	"368141"	"0.0-5.0-2.0-0.36"	"2n9oce"	"600"	"1366"	"chrome"	"110.0.0"	"FALSE"	"Windows 10"	"60.37"	"038"	n/a	n/a	n/a	n/a	n/a	n/a	"fixation"	n/a	n/a	n/a	n/a	"NULL"	n/a	"NULL"	"NULL"	"NULL"	"<p style=\"color: black; font-size: 80px; padding-left: 22%; padding-right: 0%; padding-top: 20%; padding-bottom: 38%\">+</p>"	"1410"	n/a	n/a	n/a	n/a	n/a	n/a	n/a	n/a	n/a
n/a	"image-keyboard-response"	"126"	"368779"	"0.0-5.0-2.0-1.36"	"2n9oce"	"600"	"1366"	"chrome"	"110.0.0"	"FALSE"	"Windows 10"	"60.37"	"038"	n/a	n/a	n/a	n/a	n/a	n/a	"Trial"	n/a	n/a	n/a	"637"	"arrowright"	n/a	"NULL"	"NULL"	"NULL"	"stimuli/Ebbinghaus_-0.1000_-0.2150.png"	n/a	"Ebbinghaus"	"arrowright"	"1414"	"TRUE"	"Ebbinghaus"	"-0.100000000"	"-0.215000000"	"1"	"55"
n/a	"html-keyboard-response"	"127"	"369928"	"0.0-5.0-2.0-0.37"	"2n9oce"	"600"	"1366"	"chrome"	"110.0.0"	"FALSE"	"Windows 10"	"60.37"	"038"	n/a	n/a	n/a	n/a	n/a	n/a	"fixation"	n/a	n/a	n/a	n/a	"NULL"	n/a	"NULL"	"NULL"	"NULL"	"<p style=\"color: black; font-size: 80px; padding-left: 14%; padding-right: 30%; padding-top: 31%; padding-bottom: 15%\">+</p>"	"1139"	n/a	n/a	n/a	n/a	n/a	n/a	n/a	n/a	n/a
n/a	"image-keyboard-response"	"128"	"370560"	"0.0-5.0-2.0-1.37"	"2n9oce"	"600"	"1366"	"chrome"	"110.0.0"	"FALSE"	"Windows 10"	"60.37"	"038"	n/a	n/a	n/a	n/a	n/a	n/a	"Trial"	n/a	n/a	n/a	"631"	"arrowleft"	n/a	"NULL"	"NULL"	"NULL"	"stimuli/Ebbinghaus_-0.1000_0.21500.png"	n/a	"Ebbinghaus"	"arrowleft"	"1149"	"TRUE"	"Ebbinghaus"	"-0.100000000"	"0.2150000000"	"1"	"56"
n/a	"html-keyboard-response"	"129"	"371970"	"0.0-5.0-2.0-0.38"	"2n9oce"	"600"	"1366"	"chrome"	"110.0.0"	"FALSE"	"Windows 10"	"60.37"	"038"	n/a	n/a	n/a	n/a	n/a	n/a	"fixation"	n/a	n/a	n/a	n/a	"NULL"	n/a	"NULL"	"NULL"	"NULL"	"<p style=\"color: black; font-size: 80px; padding-left: 42%; padding-right: 13%; padding-top: 6%; padding-bottom: 48%\">+</p>"	"1401"	n/a	n/a	n/a	n/a	n/a	n/a	n/a	n/a	n/a
n/a	"image-keyboard-response"	"130"	"372614"	"0.0-5.0-2.0-1.38"	"2n9oce"	"600"	"1366"	"chrome"	"110.0.0"	"FALSE"	"Windows 10"	"60.37"	"038"	n/a	n/a	n/a	n/a	n/a	n/a	"Trial"	n/a	n/a	n/a	"643"	"arrowleft"	n/a	"NULL"	"NULL"	"NULL"	"stimuli/Ebbinghaus_0.35714_-0.11071.png"	n/a	"Ebbinghaus"	"arrowright"	"1410"	"FALSE"	"Ebbinghaus"	"0.3571400000"	"-0.110710000"	"1"	"57"
n/a	"html-keyboard-response"	"131"	"374081"	"0.0-5.0-2.0-0.39"	"2n9oce"	"600"	"1366"	"chrome"	"110.0.0"	"FALSE"	"Windows 10"	"60.37"	"038"	n/a	n/a	n/a	n/a	n/a	n/a	"fixation"	n/a	n/a	n/a	n/a	"NULL"	n/a	"NULL"	"NULL"	"NULL"	"<p style=\"color: black; font-size: 80px; padding-left: 50%; padding-right: 31%; padding-top: 43%; padding-bottom: 10%\">+</p>"	"1458"	n/a	n/a	n/a	n/a	n/a	n/a	n/a	n/a	n/a
n/a	"image-keyboard-response"	"132"	"374682"	"0.0-5.0-2.0-1.39"	"2n9oce"	"600"	"1366"	"chrome"	"110.0.0"	"FALSE"	"Windows 10"	"60.37"	"038"	n/a	n/a	n/a	n/a	n/a	n/a	"Trial"	n/a	n/a	n/a	"601"	"arrowleft"	n/a	"NULL"	"NULL"	"NULL"	"stimuli/Ebbinghaus_0.87143_0.15857.png"	n/a	"Ebbinghaus"	"arrowleft"	"1467"	"TRUE"	"Ebbinghaus"	"0.8714300000"	"0.1585700000"	"1"	"58"
n/a	"html-keyboard-response"	"133"	"375839"	"0.0-5.0-2.0-0.40"	"2n9oce"	"600"	"1366"	"chrome"	"110.0.0"	"FALSE"	"Windows 10"	"60.37"	"038"	n/a	n/a	n/a	n/a	n/a	n/a	"fixation"	n/a	n/a	n/a	n/a	"NULL"	n/a	"NULL"	"NULL"	"NULL"	"<p style=\"color: black; font-size: 80px; padding-left: 31%; padding-right: 19%; padding-top: 18%; padding-bottom: 32%\">+</p>"	"1142"	n/a	n/a	n/a	n/a	n/a	n/a	n/a	n/a	n/a
n/a	"image-keyboard-response"	"134"	"376725"	"0.0-5.0-2.0-1.40"	"2n9oce"	"600"	"1366"	"chrome"	"110.0.0"	"FALSE"	"Windows 10"	"60.37"	"038"	n/a	n/a	n/a	n/a	n/a	n/a	"Trial"	n/a	n/a	n/a	"884"	"arrowleft"	n/a	"NULL"	"NULL"	"NULL"	"stimuli/Ebbinghaus_-0.1000_0.11071.png"	n/a	"Ebbinghaus"	"arrowleft"	"1157"	"TRUE"	"Ebbinghaus"	"-0.100000000"	"0.1107100000"	"1"	"59"
n/a	"html-keyboard-response"	"135"	"377851"	"0.0-5.0-2.0-0.41"	"2n9oce"	"600"	"1366"	"chrome"	"110.0.0"	"FALSE"	"Windows 10"	"60.37"	"038"	n/a	n/a	n/a	n/a	n/a	n/a	"fixation"	n/a	n/a	n/a	n/a	"NULL"	n/a	"NULL"	"NULL"	"NULL"	"<p style=\"color: black; font-size: 80px; padding-left: 43%; padding-right: 30%; padding-top: 29%; padding-bottom: 48%\">+</p>"	"1114"	n/a	n/a	n/a	n/a	n/a	n/a	n/a	n/a	n/a
n/a	"image-keyboard-response"	"136"	"378909"	"0.0-5.0-2.0-1.41"	"2n9oce"	"600"	"1366"	"chrome"	"110.0.0"	"FALSE"	"Windows 10"	"60.37"	"038"	n/a	n/a	n/a	n/a	n/a	n/a	"Trial"	n/a	n/a	n/a	"1058"	"arrowright"	n/a	"NULL"	"NULL"	"NULL"	"stimuli/Ebbinghaus_0.61429_-0.2800.png"	n/a	"Ebbinghaus"	"arrowright"	"1126"	"TRUE"	"Ebbinghaus"	"0.6142900000"	"-0.280000000"	"1"	"60"
n/a	"html-keyboard-response"	"137"	"380368"	"0.0-5.0-2.0-0.42"	"2n9oce"	"600"	"1366"	"chrome"	"110.0.0"	"FALSE"	"Windows 10"	"60.37"	"038"	n/a	n/a	n/a	n/a	n/a	n/a	"fixation"	n/a	n/a	n/a	n/a	"NULL"	n/a	"NULL"	"NULL"	"NULL"	"<p style=\"color: black; font-size: 80px; padding-left: 28%; padding-right: 5%; padding-top: 29%; padding-bottom: 14%\">+</p>"	"1449"	n/a	n/a	n/a	n/a	n/a	n/a	n/a	n/a	n/a
n/a	"image-keyboard-response"	"138"	"381285"	"0.0-5.0-2.0-1.42"	"2n9oce"	"600"	"1366"	"chrome"	"110.0.0"	"FALSE"	"Windows 10"	"60.37"	"038"	n/a	n/a	n/a	n/a	n/a	n/a	"Trial"	n/a	n/a	n/a	"916"	"arrowright"	n/a	"NULL"	"NULL"	"NULL"	"stimuli/Ebbinghaus_-0.87143_-0.11071.png"	n/a	"Ebbinghaus"	"arrowright"	"1459"	"TRUE"	"Ebbinghaus"	"-0.871430000"	"-0.110710000"	"1"	"61"
n/a	"html-keyboard-response"	"139"	"382626"	"0.0-5.0-2.0-0.43"	"2n9oce"	"600"	"1366"	"chrome"	"110.0.0"	"FALSE"	"Windows 10"	"60.37"	"038"	n/a	n/a	n/a	n/a	n/a	n/a	"fixation"	n/a	n/a	n/a	n/a	"NULL"	n/a	"NULL"	"NULL"	"NULL"	"<p style=\"color: black; font-size: 80px; padding-left: 3%; padding-right: 39%; padding-top: 1%; padding-bottom: 26%\">+</p>"	"1340"	n/a	n/a	n/a	n/a	n/a	n/a	n/a	n/a	n/a
n/a	"image-keyboard-response"	"140"	"383570"	"0.0-5.0-2.0-1.43"	"2n9oce"	"600"	"1366"	"chrome"	"110.0.0"	"FALSE"	"Windows 10"	"60.37"	"038"	n/a	n/a	n/a	n/a	n/a	n/a	"Trial"	n/a	n/a	n/a	"943"	"arrowright"	n/a	"NULL"	"NULL"	"NULL"	"stimuli/Ebbinghaus_-0.35714_-0.15857.png"	n/a	"Ebbinghaus"	"arrowright"	"1341"	"TRUE"	"Ebbinghaus"	"-0.357140000"	"-0.158570000"	"1"	"62"
n/a	"html-keyboard-response"	"141"	"384866"	"0.0-5.0-2.0-0.44"	"2n9oce"	"600"	"1366"	"chrome"	"110.0.0"	"FALSE"	"Windows 10"	"60.37"	"038"	n/a	n/a	n/a	n/a	n/a	n/a	"fixation"	n/a	n/a	n/a	n/a	"NULL"	n/a	"NULL"	"NULL"	"NULL"	"<p style=\"color: black; font-size: 80px; padding-left: 42%; padding-right: 23%; padding-top: 15%; padding-bottom: 38%\">+</p>"	"1281"	n/a	n/a	n/a	n/a	n/a	n/a	n/a	n/a	n/a
n/a	"image-keyboard-response"	"142"	"385538"	"0.0-5.0-2.0-1.44"	"2n9oce"	"600"	"1366"	"chrome"	"110.0.0"	"FALSE"	"Windows 10"	"60.37"	"038"	n/a	n/a	n/a	n/a	n/a	n/a	"Trial"	n/a	n/a	n/a	"671"	"arrowright"	n/a	"NULL"	"NULL"	"NULL"	"stimuli/Ebbinghaus_-0.35714_-0.2800.png"	n/a	"Ebbinghaus"	"arrowright"	"1296"	"TRUE"	"Ebbinghaus"	"-0.357140000"	"-0.280000000"	"1"	"63"
n/a	"html-keyboard-response"	"143"	"386607"	"0.0-5.0-2.0-0.45"	"2n9oce"	"600"	"1366"	"chrome"	"110.0.0"	"FALSE"	"Windows 10"	"60.37"	"038"	n/a	n/a	n/a	n/a	n/a	n/a	"fixation"	n/a	n/a	n/a	n/a	"NULL"	n/a	"NULL"	"NULL"	"NULL"	"<p style=\"color: black; font-size: 80px; padding-left: 30%; padding-right: 30%; padding-top: 24%; padding-bottom: 23%\">+</p>"	"1059"	n/a	n/a	n/a	n/a	n/a	n/a	n/a	n/a	n/a
n/a	"image-keyboard-response"	"144"	"387314"	"0.0-5.0-2.0-1.45"	"2n9oce"	"600"	"1366"	"chrome"	"110.0.0"	"FALSE"	"Windows 10"	"60.37"	"038"	n/a	n/a	n/a	n/a	n/a	n/a	"Trial"	n/a	n/a	n/a	"706"	"arrowright"	n/a	"NULL"	"NULL"	"NULL"	"stimuli/Ebbinghaus_-0.35714_-0.2150.png"	n/a	"Ebbinghaus"	"arrowright"	"1069"	"TRUE"	"Ebbinghaus"	"-0.357140000"	"-0.215000000"	"1"	"64"
n/a	"html-keyboard-response"	"145"	"388461"	"0.0-5.0-2.0-0.46"	"2n9oce"	"600"	"1366"	"chrome"	"110.0.0"	"FALSE"	"Windows 10"	"60.37"	"038"	n/a	n/a	n/a	n/a	n/a	n/a	"fixation"	n/a	n/a	n/a	n/a	"NULL"	n/a	"NULL"	"NULL"	"NULL"	"<p style=\"color: black; font-size: 80px; padding-left: 11%; padding-right: 26%; padding-top: 17%; padding-bottom: 14%\">+</p>"	"1133"	n/a	n/a	n/a	n/a	n/a	n/a	n/a	n/a	n/a
n/a	"image-keyboard-response"	"146"	"389494"	"0.0-5.0-2.0-1.46"	"2n9oce"	"600"	"1366"	"chrome"	"110.0.0"	"FALSE"	"Windows 10"	"60.37"	"038"	n/a	n/a	n/a	n/a	n/a	n/a	"Trial"	n/a	n/a	n/a	"1034"	"arrowleft"	n/a	"NULL"	"NULL"	"NULL"	"stimuli/Ebbinghaus_0.87143_0.11071.png"	n/a	"Ebbinghaus"	"arrowleft"	"1147"	"TRUE"	"Ebbinghaus"	"0.8714300000"	"0.1107100000"	"1"	"65"
n/a	"html-keyboard-response"	"147"	"390623"	"0.0-5.0-2.0-0.47"	"2n9oce"	"600"	"1366"	"chrome"	"110.0.0"	"FALSE"	"Windows 10"	"60.37"	"038"	n/a	n/a	n/a	n/a	n/a	n/a	"fixation"	n/a	n/a	n/a	n/a	"NULL"	n/a	"NULL"	"NULL"	"NULL"	"<p style=\"color: black; font-size: 80px; padding-left: 38%; padding-right: 44%; padding-top: 12%; padding-bottom: 6%\">+</p>"	"1118"	n/a	n/a	n/a	n/a	n/a	n/a	n/a	n/a	n/a
n/a	"image-keyboard-response"	"148"	"391494"	"0.0-5.0-2.0-1.47"	"2n9oce"	"600"	"1366"	"chrome"	"110.0.0"	"FALSE"	"Windows 10"	"60.37"	"038"	n/a	n/a	n/a	n/a	n/a	n/a	"Trial"	n/a	n/a	n/a	"870"	"arrowright"	n/a	"NULL"	"NULL"	"NULL"	"stimuli/Ebbinghaus_-0.61429_-0.11071.png"	n/a	"Ebbinghaus"	"arrowright"	"1129"	"TRUE"	"Ebbinghaus"	"-0.614290000"	"-0.110710000"	"1"	"66"
n/a	"html-keyboard-response"	"149"	"392947"	"0.0-5.0-2.0-0.48"	"2n9oce"	"600"	"1366"	"chrome"	"110.0.0"	"FALSE"	"Windows 10"	"60.37"	"038"	n/a	n/a	n/a	n/a	n/a	n/a	"fixation"	n/a	n/a	n/a	n/a	"NULL"	n/a	"NULL"	"NULL"	"NULL"	"<p style=\"color: black; font-size: 80px; padding-left: 49%; padding-right: 36%; padding-top: 3%; padding-bottom: 29%\">+</p>"	"1444"	n/a	n/a	n/a	n/a	n/a	n/a	n/a	n/a	n/a
n/a	"image-keyboard-response"	"150"	"393654"	"0.0-5.0-2.0-1.48"	"2n9oce"	"600"	"1366"	"chrome"	"110.0.0"	"FALSE"	"Windows 10"	"60.37"	"038"	n/a	n/a	n/a	n/a	n/a	n/a	"Trial"	n/a	n/a	n/a	"707"	"arrowright"	n/a	"NULL"	"NULL"	"NULL"	"stimuli/Ebbinghaus_0.10000_-0.2150.png"	n/a	"Ebbinghaus"	"arrowright"	"1453"	"TRUE"	"Ebbinghaus"	"0.1000000000"	"-0.215000000"	"1"	"67"
n/a	"html-keyboard-response"	"151"	"395012"	"0.0-5.0-2.0-0.49"	"2n9oce"	"600"	"1366"	"chrome"	"110.0.0"	"FALSE"	"Windows 10"	"60.37"	"038"	n/a	n/a	n/a	n/a	n/a	n/a	"fixation"	n/a	n/a	n/a	n/a	"NULL"	n/a	"NULL"	"NULL"	"NULL"	"<p style=\"color: black; font-size: 80px; padding-left: 29%; padding-right: 15%; padding-top: 30%; padding-bottom: 24%\">+</p>"	"1357"	n/a	n/a	n/a	n/a	n/a	n/a	n/a	n/a	n/a
n/a	"image-keyboard-response"	"152"	"395601"	"0.0-5.0-2.0-1.49"	"2n9oce"	"600"	"1366"	"chrome"	"110.0.0"	"FALSE"	"Windows 10"	"60.37"	"038"	n/a	n/a	n/a	n/a	n/a	n/a	"Trial"	n/a	n/a	n/a	"588"	"arrowleft"	n/a	"NULL"	"NULL"	"NULL"	"stimuli/Ebbinghaus_-0.87143_0.21500.png"	n/a	"Ebbinghaus"	"arrowleft"	"1358"	"TRUE"	"Ebbinghaus"	"-0.871430000"	"0.2150000000"	"1"	"68"
n/a	"html-keyboard-response"	"153"	"396959"	"0.0-5.0-2.0-0.50"	"2n9oce"	"600"	"1366"	"chrome"	"110.0.0"	"FALSE"	"Windows 10"	"60.37"	"038"	n/a	n/a	n/a	n/a	n/a	n/a	"fixation"	n/a	n/a	n/a	n/a	"NULL"	n/a	"NULL"	"NULL"	"NULL"	"<p style=\"color: black; font-size: 80px; padding-left: 31%; padding-right: 32%; padding-top: 32%; padding-bottom: 1%\">+</p>"	"1347"	n/a	n/a	n/a	n/a	n/a	n/a	n/a	n/a	n/a
n/a	"image-keyboard-response"	"154"	"397791"	"0.0-5.0-2.0-1.50"	"2n9oce"	"600"	"1366"	"chrome"	"110.0.0"	"FALSE"	"Windows 10"	"60.37"	"038"	n/a	n/a	n/a	n/a	n/a	n/a	"Trial"	n/a	n/a	n/a	"831"	"arrowleft"	n/a	"NULL"	"NULL"	"NULL"	"stimuli/Ebbinghaus_0.61429_0.21500.png"	n/a	"Ebbinghaus"	"arrowleft"	"1358"	"TRUE"	"Ebbinghaus"	"0.6142900000"	"0.2150000000"	"1"	"69"
n/a	"html-keyboard-response"	"155"	"399019"	"0.0-5.0-2.0-0.51"	"2n9oce"	"600"	"1366"	"chrome"	"110.0.0"	"FALSE"	"Windows 10"	"60.37"	"038"	n/a	n/a	n/a	n/a	n/a	n/a	"fixation"	n/a	n/a	n/a	n/a	"NULL"	n/a	"NULL"	"NULL"	"NULL"	"<p style=\"color: black; font-size: 80px; padding-left: 8%; padding-right: 25%; padding-top: 12%; padding-bottom: 33%\">+</p>"	"1218"	n/a	n/a	n/a	n/a	n/a	n/a	n/a	n/a	n/a
n/a	"image-keyboard-response"	"156"	"399662"	"0.0-5.0-2.0-1.51"	"2n9oce"	"600"	"1366"	"chrome"	"110.0.0"	"FALSE"	"Windows 10"	"60.37"	"038"	n/a	n/a	n/a	n/a	n/a	n/a	"Trial"	n/a	n/a	n/a	"642"	"arrowleft"	n/a	"NULL"	"NULL"	"NULL"	"stimuli/Ebbinghaus_-0.35714_0.21500.png"	n/a	"Ebbinghaus"	"arrowleft"	"1228"	"TRUE"	"Ebbinghaus"	"-0.357140000"	"0.2150000000"	"1"	"70"
n/a	"html-keyboard-response"	"157"	"400928"	"0.0-5.0-2.0-0.52"	"2n9oce"	"600"	"1366"	"chrome"	"110.0.0"	"FALSE"	"Windows 10"	"60.37"	"038"	n/a	n/a	n/a	n/a	n/a	n/a	"fixation"	n/a	n/a	n/a	n/a	"NULL"	n/a	"NULL"	"NULL"	"NULL"	"<p style=\"color: black; font-size: 80px; padding-left: 11%; padding-right: 38%; padding-top: 25%; padding-bottom: 6%\">+</p>"	"1262"	n/a	n/a	n/a	n/a	n/a	n/a	n/a	n/a	n/a
n/a	"image-keyboard-response"	"158"	"401492"	"0.0-5.0-2.0-1.52"	"2n9oce"	"600"	"1366"	"chrome"	"110.0.0"	"FALSE"	"Windows 10"	"60.37"	"038"	n/a	n/a	n/a	n/a	n/a	n/a	"Trial"	n/a	n/a	n/a	"563"	"arrowright"	n/a	"NULL"	"NULL"	"NULL"	"stimuli/Ebbinghaus_-0.87143_-0.15857.png"	n/a	"Ebbinghaus"	"arrowright"	"1266"	"TRUE"	"Ebbinghaus"	"-0.871430000"	"-0.158570000"	"1"	"71"
n/a	"html-keyboard-response"	"159"	"402821"	"0.0-5.0-2.0-0.53"	"2n9oce"	"600"	"1366"	"chrome"	"110.0.0"	"FALSE"	"Windows 10"	"60.37"	"038"	n/a	n/a	n/a	n/a	n/a	n/a	"fixation"	n/a	n/a	n/a	n/a	"NULL"	n/a	"NULL"	"NULL"	"NULL"	"<p style=\"color: black; font-size: 80px; padding-left: 47%; padding-right: 44%; padding-top: 5%; padding-bottom: 35%\">+</p>"	"1326"	n/a	n/a	n/a	n/a	n/a	n/a	n/a	n/a	n/a
n/a	"image-keyboard-response"	"160"	"403834"	"0.0-5.0-2.0-1.53"	"2n9oce"	"600"	"1366"	"chrome"	"110.0.0"	"FALSE"	"Windows 10"	"60.37"	"038"	n/a	n/a	n/a	n/a	n/a	n/a	"Trial"	n/a	n/a	n/a	"1012"	"arrowleft"	n/a	"NULL"	"NULL"	"NULL"	"stimuli/Ebbinghaus_0.87143_-0.11071.png"	n/a	"Ebbinghaus"	"arrowright"	"1329"	"FALSE"	"Ebbinghaus"	"0.8714300000"	"-0.110710000"	"1"	"72"
n/a	"html-keyboard-response"	"161"	"405258"	"0.0-5.0-2.0-0.54"	"2n9oce"	"600"	"1366"	"chrome"	"110.0.0"	"FALSE"	"Windows 10"	"60.37"	"038"	n/a	n/a	n/a	n/a	n/a	n/a	"fixation"	n/a	n/a	n/a	n/a	"NULL"	n/a	"NULL"	"NULL"	"NULL"	"<p style=\"color: black; font-size: 80px; padding-left: 15%; padding-right: 14%; padding-top: 8%; padding-bottom: 15%\">+</p>"	"1420"	n/a	n/a	n/a	n/a	n/a	n/a	n/a	n/a	n/a
n/a	"image-keyboard-response"	"162"	"405849"	"0.0-5.0-2.0-1.54"	"2n9oce"	"600"	"1366"	"chrome"	"110.0.0"	"FALSE"	"Windows 10"	"60.37"	"038"	n/a	n/a	n/a	n/a	n/a	n/a	"Trial"	n/a	n/a	n/a	"589"	"arrowright"	n/a	"NULL"	"NULL"	"NULL"	"stimuli/Ebbinghaus_0.35714_-0.2150.png"	n/a	"Ebbinghaus"	"arrowright"	"1424"	"TRUE"	"Ebbinghaus"	"0.3571400000"	"-0.215000000"	"1"	"73"
n/a	"html-keyboard-response"	"163"	"407181"	"0.0-5.0-2.0-0.55"	"2n9oce"	"600"	"1366"	"chrome"	"110.0.0"	"FALSE"	"Windows 10"	"60.37"	"038"	n/a	n/a	n/a	n/a	n/a	n/a	"fixation"	n/a	n/a	n/a	n/a	"NULL"	n/a	"NULL"	"NULL"	"NULL"	"<p style=\"color: black; font-size: 80px; padding-left: 1%; padding-right: 28%; padding-top: 50%; padding-bottom: 31%\">+</p>"	"1328"	n/a	n/a	n/a	n/a	n/a	n/a	n/a	n/a	n/a
n/a	"image-keyboard-response"	"164"	"407816"	"0.0-5.0-2.0-1.55"	"2n9oce"	"600"	"1366"	"chrome"	"110.0.0"	"FALSE"	"Windows 10"	"60.37"	"038"	n/a	n/a	n/a	n/a	n/a	n/a	"Trial"	n/a	n/a	n/a	"634"	"arrowleft"	n/a	"NULL"	"NULL"	"NULL"	"stimuli/Ebbinghaus_-0.87143_0.15857.png"	n/a	"Ebbinghaus"	"arrowleft"	"1332"	"TRUE"	"Ebbinghaus"	"-0.871430000"	"0.1585700000"	"1"	"74"
n/a	"html-keyboard-response"	"165"	"408835"	"0.0-5.0-2.0-0.56"	"2n9oce"	"600"	"1366"	"chrome"	"110.0.0"	"FALSE"	"Windows 10"	"60.37"	"038"	n/a	n/a	n/a	n/a	n/a	n/a	"fixation"	n/a	n/a	n/a	n/a	"NULL"	n/a	"NULL"	"NULL"	"NULL"	"<p style=\"color: black; font-size: 80px; padding-left: 13%; padding-right: 17%; padding-top: 43%; padding-bottom: 40%\">+</p>"	"1008"	n/a	n/a	n/a	n/a	n/a	n/a	n/a	n/a	n/a
n/a	"image-keyboard-response"	"166"	"409734"	"0.0-5.0-2.0-1.56"	"2n9oce"	"600"	"1366"	"chrome"	"110.0.0"	"FALSE"	"Windows 10"	"60.37"	"038"	n/a	n/a	n/a	n/a	n/a	n/a	"Trial"	n/a	n/a	n/a	"898"	"arrowleft"	n/a	"NULL"	"NULL"	"NULL"	"stimuli/Ebbinghaus_0.35714_0.28000.png"	n/a	"Ebbinghaus"	"arrowleft"	"1019"	"TRUE"	"Ebbinghaus"	"0.3571400000"	"0.2800000000"	"1"	"75"
n/a	"html-keyboard-response"	"167"	"411037"	"0.0-5.0-2.0-0.57"	"2n9oce"	"600"	"1366"	"chrome"	"110.0.0"	"FALSE"	"Windows 10"	"60.37"	"038"	n/a	n/a	n/a	n/a	n/a	n/a	"fixation"	n/a	n/a	n/a	n/a	"NULL"	n/a	"NULL"	"NULL"	"NULL"	"<p style=\"color: black; font-size: 80px; padding-left: 23%; padding-right: 2%; padding-top: 35%; padding-bottom: 12%\">+</p>"	"1291"	n/a	n/a	n/a	n/a	n/a	n/a	n/a	n/a	n/a
n/a	"image-keyboard-response"	"168"	"411728"	"0.0-5.0-2.0-1.57"	"2n9oce"	"600"	"1366"	"chrome"	"110.0.0"	"FALSE"	"Windows 10"	"60.37"	"038"	n/a	n/a	n/a	n/a	n/a	n/a	"Trial"	n/a	n/a	n/a	"691"	"arrowleft"	n/a	"NULL"	"NULL"	"NULL"	"stimuli/Ebbinghaus_0.10000_0.21500.png"	n/a	"Ebbinghaus"	"arrowleft"	"1303"	"TRUE"	"Ebbinghaus"	"0.1000000000"	"0.2150000000"	"1"	"76"
n/a	"html-keyboard-response"	"169"	"413118"	"0.0-5.0-2.0-0.58"	"2n9oce"	"600"	"1366"	"chrome"	"110.0.0"	"FALSE"	"Windows 10"	"60.37"	"038"	n/a	n/a	n/a	n/a	n/a	n/a	"fixation"	n/a	n/a	n/a	n/a	"NULL"	n/a	"NULL"	"NULL"	"NULL"	"<p style=\"color: black; font-size: 80px; padding-left: 34%; padding-right: 29%; padding-top: 9%; padding-bottom: 32%\">+</p>"	"1385"	n/a	n/a	n/a	n/a	n/a	n/a	n/a	n/a	n/a
n/a	"image-keyboard-response"	"170"	"413752"	"0.0-5.0-2.0-1.58"	"2n9oce"	"600"	"1366"	"chrome"	"110.0.0"	"FALSE"	"Windows 10"	"60.37"	"038"	n/a	n/a	n/a	n/a	n/a	n/a	"Trial"	n/a	n/a	n/a	"633"	"arrowleft"	n/a	"NULL"	"NULL"	"NULL"	"stimuli/Ebbinghaus_0.87143_0.28000.png"	n/a	"Ebbinghaus"	"arrowleft"	"1390"	"TRUE"	"Ebbinghaus"	"0.8714300000"	"0.2800000000"	"1"	"77"
n/a	"html-keyboard-response"	"171"	"414912"	"0.0-5.0-2.0-0.59"	"2n9oce"	"600"	"1366"	"chrome"	"110.0.0"	"FALSE"	"Windows 10"	"60.37"	"038"	n/a	n/a	n/a	n/a	n/a	n/a	"fixation"	n/a	n/a	n/a	n/a	"NULL"	n/a	"NULL"	"NULL"	"NULL"	"<p style=\"color: black; font-size: 80px; padding-left: 28%; padding-right: 3%; padding-top: 30%; padding-bottom: 45%\">+</p>"	"1146"	n/a	n/a	n/a	n/a	n/a	n/a	n/a	n/a	n/a
n/a	"image-keyboard-response"	"172"	"415624"	"0.0-5.0-2.0-1.59"	"2n9oce"	"600"	"1366"	"chrome"	"110.0.0"	"FALSE"	"Windows 10"	"60.37"	"038"	n/a	n/a	n/a	n/a	n/a	n/a	"Trial"	n/a	n/a	n/a	"710"	"arrowright"	n/a	"NULL"	"NULL"	"NULL"	"stimuli/Ebbinghaus_-0.61429_-0.15857.png"	n/a	"Ebbinghaus"	"arrowright"	"1160"	"TRUE"	"Ebbinghaus"	"-0.614290000"	"-0.158570000"	"1"	"78"
n/a	"html-keyboard-response"	"173"	"417016"	"0.0-5.0-2.0-0.60"	"2n9oce"	"600"	"1366"	"chrome"	"110.0.0"	"FALSE"	"Windows 10"	"60.37"	"038"	n/a	n/a	n/a	n/a	n/a	n/a	"fixation"	n/a	n/a	n/a	n/a	"NULL"	n/a	"NULL"	"NULL"	"NULL"	"<p style=\"color: black; font-size: 80px; padding-left: 19%; padding-right: 41%; padding-top: 45%; padding-bottom: 45%\">+</p>"	"1382"	n/a	n/a	n/a	n/a	n/a	n/a	n/a	n/a	n/a
n/a	"image-keyboard-response"	"174"	"417653"	"0.0-5.0-2.0-1.60"	"2n9oce"	"600"	"1366"	"chrome"	"110.0.0"	"FALSE"	"Windows 10"	"60.37"	"038"	n/a	n/a	n/a	n/a	n/a	n/a	"Trial"	n/a	n/a	n/a	"636"	"arrowleft"	n/a	"NULL"	"NULL"	"NULL"	"stimuli/Ebbinghaus_0.10000_0.11071.png"	n/a	"Ebbinghaus"	"arrowleft"	"1392"	"TRUE"	"Ebbinghaus"	"0.1000000000"	"0.1107100000"	"1"	"79"
n/a	"html-keyboard-response"	"175"	"418907"	"0.0-5.0-2.0-0.61"	"2n9oce"	"600"	"1366"	"chrome"	"110.0.0"	"FALSE"	"Windows 10"	"60.37"	"038"	n/a	n/a	n/a	n/a	n/a	n/a	"fixation"	n/a	n/a	n/a	n/a	"NULL"	n/a	"NULL"	"NULL"	"NULL"	"<p style=\"color: black; font-size: 80px; padding-left: 5%; padding-right: 8%; padding-top: 48%; padding-bottom: 15%\">+</p>"	"1240"	n/a	n/a	n/a	n/a	n/a	n/a	n/a	n/a	n/a
n/a	"image-keyboard-response"	"176"	"419624"	"0.0-5.0-2.0-1.61"	"2n9oce"	"600"	"1366"	"chrome"	"110.0.0"	"FALSE"	"Windows 10"	"60.37"	"038"	n/a	n/a	n/a	n/a	n/a	n/a	"Trial"	n/a	n/a	n/a	"716"	"arrowright"	n/a	"NULL"	"NULL"	"NULL"	"stimuli/Ebbinghaus_-0.1000_-0.15857.png"	n/a	"Ebbinghaus"	"arrowright"	"1254"	"TRUE"	"Ebbinghaus"	"-0.100000000"	"-0.158570000"	"1"	"80"
n/a	"html-keyboard-response"	"177"	"421053"	"0.0-5.0-2.0-0.62"	"2n9oce"	"600"	"1366"	"chrome"	"110.0.0"	"FALSE"	"Windows 10"	"60.37"	"038"	n/a	n/a	n/a	n/a	n/a	n/a	"fixation"	n/a	n/a	n/a	n/a	"NULL"	n/a	"NULL"	"NULL"	"NULL"	"<p style=\"color: black; font-size: 80px; padding-left: 12%; padding-right: 20%; padding-top: 11%; padding-bottom: 31%\">+</p>"	"1416"	n/a	n/a	n/a	n/a	n/a	n/a	n/a	n/a	n/a
n/a	"image-keyboard-response"	"178"	"421929"	"0.0-5.0-2.0-1.62"	"2n9oce"	"600"	"1366"	"chrome"	"110.0.0"	"FALSE"	"Windows 10"	"60.37"	"038"	n/a	n/a	n/a	n/a	n/a	n/a	"Trial"	n/a	n/a	n/a	"875"	"arrowleft"	n/a	"NULL"	"NULL"	"NULL"	"stimuli/Ebbinghaus_0.87143_-0.15857.png"	n/a	"Ebbinghaus"	"arrowright"	"1429"	"FALSE"	"Ebbinghaus"	"0.8714300000"	"-0.158570000"	"1"	"81"
n/a	"html-keyboard-response"	"179"	"423389"	"0.0-5.0-2.0-0.63"	"2n9oce"	"600"	"1366"	"chrome"	"110.0.0"	"FALSE"	"Windows 10"	"60.37"	"038"	n/a	n/a	n/a	n/a	n/a	n/a	"fixation"	n/a	n/a	n/a	n/a	"NULL"	n/a	"NULL"	"NULL"	"NULL"	"<p style=\"color: black; font-size: 80px; padding-left: 18%; padding-right: 12%; padding-top: 19%; padding-bottom: 45%\">+</p>"	"1446"	n/a	n/a	n/a	n/a	n/a	n/a	n/a	n/a	n/a
n/a	"image-keyboard-response"	"180"	"423975"	"0.0-5.0-2.0-1.63"	"2n9oce"	"600"	"1366"	"chrome"	"110.0.0"	"FALSE"	"Windows 10"	"60.37"	"038"	n/a	n/a	n/a	n/a	n/a	n/a	"Trial"	n/a	n/a	n/a	"586"	"arrowright"	n/a	"NULL"	"NULL"	"NULL"	"stimuli/Ebbinghaus_-0.87143_-0.2150.png"	n/a	"Ebbinghaus"	"arrowright"	"1460"	"TRUE"	"Ebbinghaus"	"-0.871430000"	"-0.215000000"	"1"	"82"
n/a	"html-button-response"	"181"	"439373"	"0.0-5.0-3.0"	"2n9oce"	"600"	"1366"	"chrome"	"110.0.0"	"FALSE"	"Windows 10"	"60.37"	"038"	n/a	n/a	n/a	n/a	n/a	n/a	"block_results"	n/a	n/a	n/a	"15395"	"0"	n/a	"NULL"	"NULL"	"NULL"	"<p>Your score for this illusion is <p style=\"color: black; font-size: 48px; font-weight: bold;\">75.5 %</p><hr><p>Can you do better in the next illusion?</p>"	n/a	n/a	n/a	n/a	n/a	n/a	n/a	n/a	n/a	n/a
"TRUE"	"preload"	"182"	"439800"	"0.0-6.0-0.0"	"2n9oce"	"600"	"1366"	"chrome"	"110.0.0"	"FALSE"	"Windows 10"	"60.37"	"038"	n/a	n/a	n/a	n/a	n/a	n/a	n/a	n/a	n/a	n/a	n/a	"NULL"	"FALSE"	"list()"	"list()"	"list()"	n/a	n/a	n/a	n/a	n/a	n/a	n/a	n/a	n/a	n/a	n/a
n/a	"html-keyboard-response"	"183"	"444236"	"0.0-6.0-1.0"	"2n9oce"	"600"	"1366"	"chrome"	"110.0.0"	"FALSE"	"Windows 10"	"60.37"	"038"	n/a	n/a	n/a	n/a	n/a	n/a	n/a	n/a	n/a	n/a	"4436"	"enter"	n/a	"NULL"	"NULL"	"NULL"	"<p><b>Part 2/6</b></p><p>In this part, two red lines will appear side by side.</p><p>Your task is to tell <b>which line is longer</b> in length, regardless of their orientation, as fast as you can, and without making errors.</p><p>Don't get distracted by the orientation of the lines!</p><p>Press <b>the LEFT or the RIGHT arrow</b> to indicate which <b>line is the longer one.</b></p><div style='float: center'><img src='materials/instructions/VerticalHorizontal_Demo.png' height='300'></img><p><img src='utils/answer/answer_leftright_keyboard.PNG' height='150'></img></p><p class='small'>In this example, the correct answer is the <b>LEFT arrow</b>.</p></div><p>Are you ready? <b>Press ENTER to start</b></p>"	n/a	n/a	n/a	n/a	n/a	n/a	n/a	n/a	n/a	n/a
n/a	"html-keyboard-response"	"184"	"446207"	"0.0-6.0-2.0-0.0"	"2n9oce"	"600"	"1366"	"chrome"	"110.0.0"	"FALSE"	"Windows 10"	"60.37"	"038"	n/a	n/a	n/a	n/a	n/a	n/a	"fixation"	n/a	n/a	n/a	n/a	"NULL"	n/a	"NULL"	"NULL"	"NULL"	"<p style=\"color: black; font-size: 80px; padding-left: 12%; padding-right: 3%; padding-top: 30%; padding-bottom: 7%\">+</p>"	"1447"	n/a	n/a	n/a	n/a	n/a	n/a	n/a	n/a	n/a
n/a	"image-keyboard-response"	"185"	"446692"	"0.0-6.0-2.0-1.0"	"2n9oce"	"600"	"1366"	"chrome"	"110.0.0"	"FALSE"	"Windows 10"	"60.37"	"038"	n/a	n/a	n/a	n/a	n/a	n/a	"Trial"	n/a	n/a	n/a	"484"	"arrowright"	n/a	"NULL"	"NULL"	"NULL"	"stimuli/VerticalHorizontal_-20.27143_-0.2250.png"	n/a	"VerticalHorizontal"	"arrowright"	"1971"	"TRUE"	"VerticalHorizontal"	"-20.27143000"	"-0.225000000"	"2"	"1"
n/a	"html-keyboard-response"	"186"	"447782"	"0.0-6.0-2.0-0.1"	"2n9oce"	"600"	"1366"	"chrome"	"110.0.0"	"FALSE"	"Windows 10"	"60.37"	"038"	n/a	n/a	n/a	n/a	n/a	n/a	"fixation"	n/a	n/a	n/a	n/a	"NULL"	n/a	"NULL"	"NULL"	"NULL"	"<p style=\"color: black; font-size: 80px; padding-left: 31%; padding-right: 21%; padding-top: 14%; padding-bottom: 10%\">+</p>"	"1085"	n/a	n/a	n/a	n/a	n/a	n/a	n/a	n/a	n/a
n/a	"image-keyboard-response"	"187"	"448366"	"0.0-6.0-2.0-1.1"	"2n9oce"	"600"	"1366"	"chrome"	"110.0.0"	"FALSE"	"Windows 10"	"60.37"	"038"	n/a	n/a	n/a	n/a	n/a	n/a	"Trial"	n/a	n/a	n/a	"584"	"arrowright"	n/a	"NULL"	"NULL"	"NULL"	"stimuli/VerticalHorizontal_3.30000_-0.2250.png"	n/a	"VerticalHorizontal"	"arrowright"	"1090"	"TRUE"	"VerticalHorizontal"	"3.3000000000"	"-0.225000000"	"2"	"2"
n/a	"html-keyboard-response"	"188"	"449585"	"0.0-6.0-2.0-0.2"	"2n9oce"	"600"	"1366"	"chrome"	"110.0.0"	"FALSE"	"Windows 10"	"60.37"	"038"	n/a	n/a	n/a	n/a	n/a	n/a	"fixation"	n/a	n/a	n/a	n/a	"NULL"	n/a	"NULL"	"NULL"	"NULL"	"<p style=\"color: black; font-size: 80px; padding-left: 45%; padding-right: 43%; padding-top: 17%; padding-bottom: 17%\">+</p>"	"1212"	n/a	n/a	n/a	n/a	n/a	n/a	n/a	n/a	n/a
n/a	"image-keyboard-response"	"189"	"449994"	"0.0-6.0-2.0-1.2"	"2n9oce"	"600"	"1366"	"chrome"	"110.0.0"	"FALSE"	"Windows 10"	"60.37"	"038"	n/a	n/a	n/a	n/a	n/a	n/a	"Trial"	n/a	n/a	n/a	"408"	"arrowright"	n/a	"NULL"	"NULL"	"NULL"	"stimuli/VerticalHorizontal_-28.75714_-0.2250.png"	n/a	"VerticalHorizontal"	"arrowright"	"1219"	"TRUE"	"VerticalHorizontal"	"-28.75714000"	"-0.225000000"	"2"	"3"
n/a	"html-keyboard-response"	"190"	"451179"	"0.0-6.0-2.0-0.3"	"2n9oce"	"600"	"1366"	"chrome"	"110.0.0"	"FALSE"	"Windows 10"	"60.37"	"038"	n/a	n/a	n/a	n/a	n/a	n/a	"fixation"	n/a	n/a	n/a	n/a	"NULL"	n/a	"NULL"	"NULL"	"NULL"	"<p style=\"color: black; font-size: 80px; padding-left: 11%; padding-right: 1%; padding-top: 15%; padding-bottom: 45%\">+</p>"	"1183"	n/a	n/a	n/a	n/a	n/a	n/a	n/a	n/a	n/a
n/a	"image-keyboard-response"	"191"	"451609"	"0.0-6.0-2.0-1.3"	"2n9oce"	"600"	"1366"	"chrome"	"110.0.0"	"FALSE"	"Windows 10"	"60.37"	"038"	n/a	n/a	n/a	n/a	n/a	n/a	"Trial"	n/a	n/a	n/a	"429"	"arrowleft"	n/a	"NULL"	"NULL"	"NULL"	"stimuli/VerticalHorizontal_-20.27143_0.10960.png"	n/a	"VerticalHorizontal"	"arrowleft"	"1185"	"TRUE"	"VerticalHorizontal"	"-20.27143000"	"0.1096000000"	"2"	"4"
n/a	"html-keyboard-response"	"192"	"452835"	"0.0-6.0-2.0-0.4"	"2n9oce"	"600"	"1366"	"chrome"	"110.0.0"	"FALSE"	"Windows 10"	"60.37"	"038"	n/a	n/a	n/a	n/a	n/a	n/a	"fixation"	n/a	n/a	n/a	n/a	"NULL"	n/a	"NULL"	"NULL"	"NULL"	"<p style=\"color: black; font-size: 80px; padding-left: 12%; padding-right: 42%; padding-top: 38%; padding-bottom: 31%\">+</p>"	"1220"	n/a	n/a	n/a	n/a	n/a	n/a	n/a	n/a	n/a
n/a	"image-keyboard-response"	"193"	"453232"	"0.0-6.0-2.0-1.4"	"2n9oce"	"600"	"1366"	"chrome"	"110.0.0"	"FALSE"	"Windows 10"	"60.37"	"038"	n/a	n/a	n/a	n/a	n/a	n/a	"Trial"	n/a	n/a	n/a	"396"	"arrowright"	n/a	"NULL"	"NULL"	"NULL"	"stimuli/VerticalHorizontal_-11.78571_-0.16217.png"	n/a	"VerticalHorizontal"	"arrowright"	"1226"	"TRUE"	"VerticalHorizontal"	"-11.78571000"	"-0.162170000"	"2"	"5"
n/a	"html-keyboard-response"	"194"	"454553"	"0.0-6.0-2.0-0.5"	"2n9oce"	"600"	"1366"	"chrome"	"110.0.0"	"FALSE"	"Windows 10"	"60.37"	"038"	n/a	n/a	n/a	n/a	n/a	n/a	"fixation"	n/a	n/a	n/a	n/a	"NULL"	n/a	"NULL"	"NULL"	"NULL"	"<p style=\"color: black; font-size: 80px; padding-left: 21%; padding-right: 50%; padding-top: 4%; padding-bottom: 8%\">+</p>"	"1316"	n/a	n/a	n/a	n/a	n/a	n/a	n/a	n/a	n/a
n/a	"image-keyboard-response"	"195"	"455171"	"0.0-6.0-2.0-1.5"	"2n9oce"	"600"	"1366"	"chrome"	"110.0.0"	"FALSE"	"Windows 10"	"60.37"	"038"	n/a	n/a	n/a	n/a	n/a	n/a	"Trial"	n/a	n/a	n/a	"617"	"arrowleft"	n/a	"NULL"	"NULL"	"NULL"	"stimuli/VerticalHorizontal_-11.78571_0.22500.png"	n/a	"VerticalHorizontal"	"arrowleft"	"1321"	"TRUE"	"VerticalHorizontal"	"-11.78571000"	"0.2250000000"	"2"	"6"
n/a	"html-keyboard-response"	"196"	"456420"	"0.0-6.0-2.0-0.6"	"2n9oce"	"600"	"1366"	"chrome"	"110.0.0"	"FALSE"	"Windows 10"	"60.37"	"038"	n/a	n/a	n/a	n/a	n/a	n/a	"fixation"	n/a	n/a	n/a	n/a	"NULL"	n/a	"NULL"	"NULL"	"NULL"	"<p style=\"color: black; font-size: 80px; padding-left: 5%; padding-right: 45%; padding-top: 3%; padding-bottom: 20%\">+</p>"	"1237"	n/a	n/a	n/a	n/a	n/a	n/a	n/a	n/a	n/a
n/a	"image-keyboard-response"	"197"	"457333"	"0.0-6.0-2.0-1.6"	"2n9oce"	"600"	"1366"	"chrome"	"110.0.0"	"FALSE"	"Windows 10"	"60.37"	"038"	n/a	n/a	n/a	n/a	n/a	n/a	"Trial"	n/a	n/a	n/a	"912"	"arrowright"	n/a	"NULL"	"NULL"	"NULL"	"stimuli/VerticalHorizontal_3.30000_0.06730.png"	n/a	"VerticalHorizontal"	"arrowleft"	"1249"	"FALSE"	"VerticalHorizontal"	"3.3000000000"	"0.0673000000"	"2"	"7"
n/a	"html-keyboard-response"	"198"	"458552"	"0.0-6.0-2.0-0.7"	"2n9oce"	"600"	"1366"	"chrome"	"110.0.0"	"FALSE"	"Windows 10"	"60.37"	"038"	n/a	n/a	n/a	n/a	n/a	n/a	"fixation"	n/a	n/a	n/a	n/a	"NULL"	n/a	"NULL"	"NULL"	"NULL"	"<p style=\"color: black; font-size: 80px; padding-left: 38%; padding-right: 41%; padding-top: 3%; padding-bottom: 8%\">+</p>"	"1208"	n/a	n/a	n/a	n/a	n/a	n/a	n/a	n/a	n/a
n/a	"image-keyboard-response"	"199"	"459332"	"0.0-6.0-2.0-1.7"	"2n9oce"	"600"	"1366"	"chrome"	"110.0.0"	"FALSE"	"Windows 10"	"60.37"	"038"	n/a	n/a	n/a	n/a	n/a	n/a	"Trial"	n/a	n/a	n/a	"780"	"arrowleft"	n/a	"NULL"	"NULL"	"NULL"	"stimuli/VerticalHorizontal_3.30000_0.16217.png"	n/a	"VerticalHorizontal"	"arrowleft"	"1219"	"TRUE"	"VerticalHorizontal"	"3.3000000000"	"0.1621700000"	"2"	"8"
n/a	"html-keyboard-response"	"200"	"460399"	"0.0-6.0-2.0-0.8"	"2n9oce"	"600"	"1366"	"chrome"	"110.0.0"	"FALSE"	"Windows 10"	"60.37"	"038"	n/a	n/a	n/a	n/a	n/a	n/a	"fixation"	n/a	n/a	n/a	n/a	"NULL"	n/a	"NULL"	"NULL"	"NULL"	"<p style=\"color: black; font-size: 80px; padding-left: 48%; padding-right: 49%; padding-top: 21%; padding-bottom: 34%\">+</p>"	"1051"	n/a	n/a	n/a	n/a	n/a	n/a	n/a	n/a	n/a
n/a	"image-keyboard-response"	"201"	"460943"	"0.0-6.0-2.0-1.8"	"2n9oce"	"600"	"1366"	"chrome"	"110.0.0"	"FALSE"	"Windows 10"	"60.37"	"038"	n/a	n/a	n/a	n/a	n/a	n/a	"Trial"	n/a	n/a	n/a	"543"	"arrowright"	n/a	"NULL"	"NULL"	"NULL"	"stimuli/VerticalHorizontal_-20.27143_-0.0673.png"	n/a	"VerticalHorizontal"	"arrowright"	"1067"	"TRUE"	"VerticalHorizontal"	"-20.27143000"	"-0.067300000"	"2"	"9"
n/a	"html-keyboard-response"	"202"	"462398"	"0.0-6.0-2.0-0.9"	"2n9oce"	"600"	"1366"	"chrome"	"110.0.0"	"FALSE"	"Windows 10"	"60.37"	"038"	n/a	n/a	n/a	n/a	n/a	n/a	"fixation"	n/a	n/a	n/a	n/a	"NULL"	n/a	"NULL"	"NULL"	"NULL"	"<p style=\"color: black; font-size: 80px; padding-left: 36%; padding-right: 20%; padding-top: 45%; padding-bottom: 23%\">+</p>"	"1448"	n/a	n/a	n/a	n/a	n/a	n/a	n/a	n/a	n/a
n/a	"image-keyboard-response"	"203"	"463179"	"0.0-6.0-2.0-1.9"	"2n9oce"	"600"	"1366"	"chrome"	"110.0.0"	"FALSE"	"Windows 10"	"60.37"	"038"	n/a	n/a	n/a	n/a	n/a	n/a	"Trial"	n/a	n/a	n/a	"780"	"arrowleft"	n/a	"NULL"	"NULL"	"NULL"	"stimuli/VerticalHorizontal_-11.78571_0.06730.png"	n/a	"VerticalHorizontal"	"arrowleft"	"1455"	"TRUE"	"VerticalHorizontal"	"-11.78571000"	"0.0673000000"	"2"	"10"
n/a	"html-keyboard-response"	"204"	"464566"	"0.0-6.0-2.0-0.10"	"2n9oce"	"600"	"1366"	"chrome"	"110.0.0"	"FALSE"	"Windows 10"	"60.37"	"038"	n/a	n/a	n/a	n/a	n/a	n/a	"fixation"	n/a	n/a	n/a	n/a	"NULL"	n/a	"NULL"	"NULL"	"NULL"	"<p style=\"color: black; font-size: 80px; padding-left: 37%; padding-right: 46%; padding-top: 28%; padding-bottom: 7%\">+</p>"	"1377"	n/a	n/a	n/a	n/a	n/a	n/a	n/a	n/a	n/a
n/a	"image-keyboard-response"	"205"	"465065"	"0.0-6.0-2.0-1.10"	"2n9oce"	"600"	"1366"	"chrome"	"110.0.0"	"FALSE"	"Windows 10"	"60.37"	"038"	n/a	n/a	n/a	n/a	n/a	n/a	"Trial"	n/a	n/a	n/a	"498"	"arrowleft"	n/a	"NULL"	"NULL"	"NULL"	"stimuli/VerticalHorizontal_-28.75714_0.16217.png"	n/a	"VerticalHorizontal"	"arrowleft"	"1387"	"TRUE"	"VerticalHorizontal"	"-28.75714000"	"0.1621700000"	"2"	"11"
n/a	"html-keyboard-response"	"206"	"466570"	"0.0-6.0-2.0-0.11"	"2n9oce"	"600"	"1366"	"chrome"	"110.0.0"	"FALSE"	"Windows 10"	"60.37"	"038"	n/a	n/a	n/a	n/a	n/a	n/a	"fixation"	n/a	n/a	n/a	n/a	"NULL"	n/a	"NULL"	"NULL"	"NULL"	"<p style=\"color: black; font-size: 80px; padding-left: 13%; padding-right: 4%; padding-top: 14%; padding-bottom: 43%\">+</p>"	"1492"	n/a	n/a	n/a	n/a	n/a	n/a	n/a	n/a	n/a
n/a	"image-keyboard-response"	"207"	"467127"	"0.0-6.0-2.0-1.11"	"2n9oce"	"600"	"1366"	"chrome"	"110.0.0"	"FALSE"	"Windows 10"	"60.37"	"038"	n/a	n/a	n/a	n/a	n/a	n/a	"Trial"	n/a	n/a	n/a	"557"	"arrowright"	n/a	"NULL"	"NULL"	"NULL"	"stimuli/VerticalHorizontal_20.27143_0.06730.png"	n/a	"VerticalHorizontal"	"arrowleft"	"1505"	"FALSE"	"VerticalHorizontal"	"20.271430000"	"0.0673000000"	"2"	"12"
n/a	"html-keyboard-response"	"208"	"468223"	"0.0-6.0-2.0-0.12"	"2n9oce"	"600"	"1366"	"chrome"	"110.0.0"	"FALSE"	"Windows 10"	"60.37"	"038"	n/a	n/a	n/a	n/a	n/a	n/a	"fixation"	n/a	n/a	n/a	n/a	"NULL"	n/a	"NULL"	"NULL"	"NULL"	"<p style=\"color: black; font-size: 80px; padding-left: 20%; padding-right: 36%; padding-top: 9%; padding-bottom: 4%\">+</p>"	"1090"	n/a	n/a	n/a	n/a	n/a	n/a	n/a	n/a	n/a
n/a	"image-keyboard-response"	"209"	"468731"	"0.0-6.0-2.0-1.12"	"2n9oce"	"600"	"1366"	"chrome"	"110.0.0"	"FALSE"	"Windows 10"	"60.37"	"038"	n/a	n/a	n/a	n/a	n/a	n/a	"Trial"	n/a	n/a	n/a	"507"	"arrowleft"	n/a	"NULL"	"NULL"	"NULL"	"stimuli/VerticalHorizontal_-28.75714_0.22500.png"	n/a	"VerticalHorizontal"	"arrowleft"	"1096"	"TRUE"	"VerticalHorizontal"	"-28.75714000"	"0.2250000000"	"2"	"13"
n/a	"html-keyboard-response"	"210"	"470054"	"0.0-6.0-2.0-0.13"	"2n9oce"	"600"	"1366"	"chrome"	"110.0.0"	"FALSE"	"Windows 10"	"60.37"	"038"	n/a	n/a	n/a	n/a	n/a	n/a	"fixation"	n/a	n/a	n/a	n/a	"NULL"	n/a	"NULL"	"NULL"	"NULL"	"<p style=\"color: black; font-size: 80px; padding-left: 19%; padding-right: 2%; padding-top: 33%; padding-bottom: 39%\">+</p>"	"1308"	n/a	n/a	n/a	n/a	n/a	n/a	n/a	n/a	n/a
n/a	"image-keyboard-response"	"211"	"470441"	"0.0-6.0-2.0-1.13"	"2n9oce"	"600"	"1366"	"chrome"	"110.0.0"	"FALSE"	"Windows 10"	"60.37"	"038"	n/a	n/a	n/a	n/a	n/a	n/a	"Trial"	n/a	n/a	n/a	"386"	"arrowright"	n/a	"NULL"	"NULL"	"NULL"	"stimuli/VerticalHorizontal_20.27143_0.16217.png"	n/a	"VerticalHorizontal"	"arrowleft"	"1323"	"FALSE"	"VerticalHorizontal"	"20.271430000"	"0.1621700000"	"2"	"14"
n/a	"html-keyboard-response"	"212"	"471710"	"0.0-6.0-2.0-0.14"	"2n9oce"	"600"	"1366"	"chrome"	"110.0.0"	"FALSE"	"Windows 10"	"60.37"	"038"	n/a	n/a	n/a	n/a	n/a	n/a	"fixation"	n/a	n/a	n/a	n/a	"NULL"	n/a	"NULL"	"NULL"	"NULL"	"<p style=\"color: black; font-size: 80px; padding-left: 15%; padding-right: 31%; padding-top: 32%; padding-bottom: 32%\">+</p>"	"1266"	n/a	n/a	n/a	n/a	n/a	n/a	n/a	n/a	n/a
n/a	"image-keyboard-response"	"213"	"472245"	"0.0-6.0-2.0-1.14"	"2n9oce"	"600"	"1366"	"chrome"	"110.0.0"	"FALSE"	"Windows 10"	"60.37"	"038"	n/a	n/a	n/a	n/a	n/a	n/a	"Trial"	n/a	n/a	n/a	"534"	"arrowleft"	n/a	"NULL"	"NULL"	"NULL"	"stimuli/VerticalHorizontal_-11.78571_0.16217.png"	n/a	"VerticalHorizontal"	"arrowleft"	"1269"	"TRUE"	"VerticalHorizontal"	"-11.78571000"	"0.1621700000"	"2"	"15"
n/a	"html-keyboard-response"	"214"	"473460"	"0.0-6.0-2.0-0.15"	"2n9oce"	"600"	"1366"	"chrome"	"110.0.0"	"FALSE"	"Windows 10"	"60.37"	"038"	n/a	n/a	n/a	n/a	n/a	n/a	"fixation"	n/a	n/a	n/a	n/a	"NULL"	n/a	"NULL"	"NULL"	"NULL"	"<p style=\"color: black; font-size: 80px; padding-left: 10%; padding-right: 44%; padding-top: 5%; padding-bottom: 3%\">+</p>"	"1203"	n/a	n/a	n/a	n/a	n/a	n/a	n/a	n/a	n/a
n/a	"image-keyboard-response"	"215"	"473879"	"0.0-6.0-2.0-1.15"	"2n9oce"	"600"	"1366"	"chrome"	"110.0.0"	"FALSE"	"Windows 10"	"60.37"	"038"	n/a	n/a	n/a	n/a	n/a	n/a	"Trial"	n/a	n/a	n/a	"418"	"arrowright"	n/a	"NULL"	"NULL"	"NULL"	"stimuli/VerticalHorizontal_-11.78571_-0.0673.png"	n/a	"VerticalHorizontal"	"arrowright"	"1215"	"TRUE"	"VerticalHorizontal"	"-11.78571000"	"-0.067300000"	"2"	"16"
n/a	"html-keyboard-response"	"216"	"475135"	"0.0-6.0-2.0-0.16"	"2n9oce"	"600"	"1366"	"chrome"	"110.0.0"	"FALSE"	"Windows 10"	"60.37"	"038"	n/a	n/a	n/a	n/a	n/a	n/a	"fixation"	n/a	n/a	n/a	n/a	"NULL"	n/a	"NULL"	"NULL"	"NULL"	"<p style=\"color: black; font-size: 80px; padding-left: 41%; padding-right: 18%; padding-top: 37%; padding-bottom: 36%\">+</p>"	"1247"	n/a	n/a	n/a	n/a	n/a	n/a	n/a	n/a	n/a
n/a	"image-keyboard-response"	"217"	"475827"	"0.0-6.0-2.0-1.16"	"2n9oce"	"600"	"1366"	"chrome"	"110.0.0"	"FALSE"	"Windows 10"	"60.37"	"038"	n/a	n/a	n/a	n/a	n/a	n/a	"Trial"	n/a	n/a	n/a	"691"	"arrowright"	n/a	"NULL"	"NULL"	"NULL"	"stimuli/VerticalHorizontal_20.27143_-0.16217.png"	n/a	"VerticalHorizontal"	"arrowright"	"1256"	"TRUE"	"VerticalHorizontal"	"20.271430000"	"-0.162170000"	"2"	"17"
n/a	"html-keyboard-response"	"218"	"477070"	"0.0-6.0-2.0-0.17"	"2n9oce"	"600"	"1366"	"chrome"	"110.0.0"	"FALSE"	"Windows 10"	"60.37"	"038"	n/a	n/a	n/a	n/a	n/a	n/a	"fixation"	n/a	n/a	n/a	n/a	"NULL"	n/a	"NULL"	"NULL"	"NULL"	"<p style=\"color: black; font-size: 80px; padding-left: 48%; padding-right: 47%; padding-top: 45%; padding-bottom: 12%\">+</p>"	"1238"	n/a	n/a	n/a	n/a	n/a	n/a	n/a	n/a	n/a
n/a	"image-keyboard-response"	"219"	"477974"	"0.0-6.0-2.0-1.17"	"2n9oce"	"600"	"1366"	"chrome"	"110.0.0"	"FALSE"	"Windows 10"	"60.37"	"038"	n/a	n/a	n/a	n/a	n/a	n/a	"Trial"	n/a	n/a	n/a	"903"	"arrowleft"	n/a	"NULL"	"NULL"	"NULL"	"stimuli/VerticalHorizontal_-3.3000_0.06730.png"	n/a	"VerticalHorizontal"	"arrowleft"	"1243"	"TRUE"	"VerticalHorizontal"	"-3.300000000"	"0.0673000000"	"2"	"18"
n/a	"html-keyboard-response"	"220"	"479401"	"0.0-6.0-2.0-0.18"	"2n9oce"	"600"	"1366"	"chrome"	"110.0.0"	"FALSE"	"Windows 10"	"60.37"	"038"	n/a	n/a	n/a	n/a	n/a	n/a	"fixation"	n/a	n/a	n/a	n/a	"NULL"	n/a	"NULL"	"NULL"	"NULL"	"<p style=\"color: black; font-size: 80px; padding-left: 34%; padding-right: 4%; padding-top: 40%; padding-bottom: 17%\">+</p>"	"1411"	n/a	n/a	n/a	n/a	n/a	n/a	n/a	n/a	n/a
n/a	"image-keyboard-response"	"221"	"479977"	"0.0-6.0-2.0-1.18"	"2n9oce"	"600"	"1366"	"chrome"	"110.0.0"	"FALSE"	"Windows 10"	"60.37"	"038"	n/a	n/a	n/a	n/a	n/a	n/a	"Trial"	n/a	n/a	n/a	"575"	"arrowright"	n/a	"NULL"	"NULL"	"NULL"	"stimuli/VerticalHorizontal_11.78571_-0.2250.png"	n/a	"VerticalHorizontal"	"arrowright"	"1427"	"TRUE"	"VerticalHorizontal"	"11.785710000"	"-0.225000000"	"2"	"19"
n/a	"html-keyboard-response"	"222"	"481167"	"0.0-6.0-2.0-0.19"	"2n9oce"	"600"	"1366"	"chrome"	"110.0.0"	"FALSE"	"Windows 10"	"60.37"	"038"	n/a	n/a	n/a	n/a	n/a	n/a	"fixation"	n/a	n/a	n/a	n/a	"NULL"	n/a	"NULL"	"NULL"	"NULL"	"<p style=\"color: black; font-size: 80px; padding-left: 35%; padding-right: 45%; padding-top: 13%; padding-bottom: 30%\">+</p>"	"1185"	n/a	n/a	n/a	n/a	n/a	n/a	n/a	n/a	n/a
n/a	"image-keyboard-response"	"223"	"481884"	"0.0-6.0-2.0-1.19"	"2n9oce"	"600"	"1366"	"chrome"	"110.0.0"	"FALSE"	"Windows 10"	"60.37"	"038"	n/a	n/a	n/a	n/a	n/a	n/a	"Trial"	n/a	n/a	n/a	"716"	"arrowright"	n/a	"NULL"	"NULL"	"NULL"	"stimuli/VerticalHorizontal_3.30000_-0.0673.png"	n/a	"VerticalHorizontal"	"arrowright"	"1190"	"TRUE"	"VerticalHorizontal"	"3.3000000000"	"-0.067300000"	"2"	"20"
n/a	"html-keyboard-response"	"224"	"482916"	"0.0-6.0-2.0-0.20"	"2n9oce"	"600"	"1366"	"chrome"	"110.0.0"	"FALSE"	"Windows 10"	"60.37"	"038"	n/a	n/a	n/a	n/a	n/a	n/a	"fixation"	n/a	n/a	n/a	n/a	"NULL"	n/a	"NULL"	"NULL"	"NULL"	"<p style=\"color: black; font-size: 80px; padding-left: 9%; padding-right: 40%; padding-top: 21%; padding-bottom: 20%\">+</p>"	"1030"	n/a	n/a	n/a	n/a	n/a	n/a	n/a	n/a	n/a
n/a	"image-keyboard-response"	"225"	"483382"	"0.0-6.0-2.0-1.20"	"2n9oce"	"600"	"1366"	"chrome"	"110.0.0"	"FALSE"	"Windows 10"	"60.37"	"038"	n/a	n/a	n/a	n/a	n/a	n/a	"Trial"	n/a	n/a	n/a	"465"	"arrowright"	n/a	"NULL"	"NULL"	"NULL"	"stimuli/VerticalHorizontal_28.75714_0.06730.png"	n/a	"VerticalHorizontal"	"arrowleft"	"1032"	"FALSE"	"VerticalHorizontal"	"28.757140000"	"0.0673000000"	"2"	"21"
n/a	"html-keyboard-response"	"226"	"484729"	"0.0-6.0-2.0-0.21"	"2n9oce"	"600"	"1366"	"chrome"	"110.0.0"	"FALSE"	"Windows 10"	"60.37"	"038"	n/a	n/a	n/a	n/a	n/a	n/a	"fixation"	n/a	n/a	n/a	n/a	"NULL"	n/a	"NULL"	"NULL"	"NULL"	"<p style=\"color: black; font-size: 80px; padding-left: 35%; padding-right: 43%; padding-top: 13%; padding-bottom: 30%\">+</p>"	"1345"	n/a	n/a	n/a	n/a	n/a	n/a	n/a	n/a	n/a
n/a	"image-keyboard-response"	"227"	"485777"	"0.0-6.0-2.0-1.21"	"2n9oce"	"600"	"1366"	"chrome"	"110.0.0"	"FALSE"	"Windows 10"	"60.37"	"038"	n/a	n/a	n/a	n/a	n/a	n/a	"Trial"	n/a	n/a	n/a	"1047"	"arrowright"	n/a	"NULL"	"NULL"	"NULL"	"stimuli/VerticalHorizontal_28.75714_-0.1096.png"	n/a	"VerticalHorizontal"	"arrowright"	"1347"	"TRUE"	"VerticalHorizontal"	"28.757140000"	"-0.109600000"	"2"	"22"
n/a	"html-keyboard-response"	"228"	"486852"	"0.0-6.0-2.0-0.22"	"2n9oce"	"600"	"1366"	"chrome"	"110.0.0"	"FALSE"	"Windows 10"	"60.37"	"038"	n/a	n/a	n/a	n/a	n/a	n/a	"fixation"	n/a	n/a	n/a	n/a	"NULL"	n/a	"NULL"	"NULL"	"NULL"	"<p style=\"color: black; font-size: 80px; padding-left: 2%; padding-right: 5%; padding-top: 3%; padding-bottom: 30%\">+</p>"	"1067"	n/a	n/a	n/a	n/a	n/a	n/a	n/a	n/a	n/a
n/a	"image-keyboard-response"	"229"	"487481"	"0.0-6.0-2.0-1.22"	"2n9oce"	"600"	"1366"	"chrome"	"110.0.0"	"FALSE"	"Windows 10"	"60.37"	"038"	n/a	n/a	n/a	n/a	n/a	n/a	"Trial"	n/a	n/a	n/a	"628"	"arrowleft"	n/a	"NULL"	"NULL"	"NULL"	"stimuli/VerticalHorizontal_-20.27143_0.22500.png"	n/a	"VerticalHorizontal"	"arrowleft"	"1075"	"TRUE"	"VerticalHorizontal"	"-20.27143000"	"0.2250000000"	"2"	"23"
n/a	"html-keyboard-response"	"230"	"488671"	"0.0-6.0-2.0-0.23"	"2n9oce"	"600"	"1366"	"chrome"	"110.0.0"	"FALSE"	"Windows 10"	"60.37"	"038"	n/a	n/a	n/a	n/a	n/a	n/a	"fixation"	n/a	n/a	n/a	n/a	"NULL"	n/a	"NULL"	"NULL"	"NULL"	"<p style=\"color: black; font-size: 80px; padding-left: 47%; padding-right: 15%; padding-top: 6%; padding-bottom: 6%\">+</p>"	"1182"	n/a	n/a	n/a	n/a	n/a	n/a	n/a	n/a	n/a
n/a	"image-keyboard-response"	"231"	"489161"	"0.0-6.0-2.0-1.23"	"2n9oce"	"600"	"1366"	"chrome"	"110.0.0"	"FALSE"	"Windows 10"	"60.37"	"038"	n/a	n/a	n/a	n/a	n/a	n/a	"Trial"	n/a	n/a	n/a	"489"	"arrowright"	n/a	"NULL"	"NULL"	"NULL"	"stimuli/VerticalHorizontal_-28.75714_-0.16217.png"	n/a	"VerticalHorizontal"	"arrowright"	"1190"	"TRUE"	"VerticalHorizontal"	"-28.75714000"	"-0.162170000"	"2"	"24"
n/a	"html-keyboard-response"	"232"	"490351"	"0.0-6.0-2.0-0.24"	"2n9oce"	"600"	"1366"	"chrome"	"110.0.0"	"FALSE"	"Windows 10"	"60.37"	"038"	n/a	n/a	n/a	n/a	n/a	n/a	"fixation"	n/a	n/a	n/a	n/a	"NULL"	n/a	"NULL"	"NULL"	"NULL"	"<p style=\"color: black; font-size: 80px; padding-left: 1%; padding-right: 30%; padding-top: 4%; padding-bottom: 24%\">+</p>"	"1175"	n/a	n/a	n/a	n/a	n/a	n/a	n/a	n/a	n/a
n/a	"image-keyboard-response"	"233"	"491105"	"0.0-6.0-2.0-1.24"	"2n9oce"	"600"	"1366"	"chrome"	"110.0.0"	"FALSE"	"Windows 10"	"60.37"	"038"	n/a	n/a	n/a	n/a	n/a	n/a	"Trial"	n/a	n/a	n/a	"754"	"arrowleft"	n/a	"NULL"	"NULL"	"NULL"	"stimuli/VerticalHorizontal_11.78571_0.22500.png"	n/a	"VerticalHorizontal"	"arrowleft"	"1190"	"TRUE"	"VerticalHorizontal"	"11.785710000"	"0.2250000000"	"2"	"25"
n/a	"html-keyboard-response"	"234"	"492179"	"0.0-6.0-2.0-0.25"	"2n9oce"	"600"	"1366"	"chrome"	"110.0.0"	"FALSE"	"Windows 10"	"60.37"	"038"	n/a	n/a	n/a	n/a	n/a	n/a	"fixation"	n/a	n/a	n/a	n/a	"NULL"	n/a	"NULL"	"NULL"	"NULL"	"<p style=\"color: black; font-size: 80px; padding-left: 13%; padding-right: 45%; padding-top: 40%; padding-bottom: 32%\">+</p>"	"1060"	n/a	n/a	n/a	n/a	n/a	n/a	n/a	n/a	n/a
n/a	"image-keyboard-response"	"235"	"492820"	"0.0-6.0-2.0-1.25"	"2n9oce"	"600"	"1366"	"chrome"	"110.0.0"	"FALSE"	"Windows 10"	"60.37"	"038"	n/a	n/a	n/a	n/a	n/a	n/a	"Trial"	n/a	n/a	n/a	"640"	"arrowright"	n/a	"NULL"	"NULL"	"NULL"	"stimuli/VerticalHorizontal_-3.3000_-0.16217.png"	n/a	"VerticalHorizontal"	"arrowright"	"1074"	"TRUE"	"VerticalHorizontal"	"-3.300000000"	"-0.162170000"	"2"	"26"
n/a	"html-keyboard-response"	"236"	"493975"	"0.0-6.0-2.0-0.26"	"2n9oce"	"600"	"1366"	"chrome"	"110.0.0"	"FALSE"	"Windows 10"	"60.37"	"038"	n/a	n/a	n/a	n/a	n/a	n/a	"fixation"	n/a	n/a	n/a	n/a	"NULL"	n/a	"NULL"	"NULL"	"NULL"	"<p style=\"color: black; font-size: 80px; padding-left: 13%; padding-right: 22%; padding-top: 26%; padding-bottom: 16%\">+</p>"	"1149"	n/a	n/a	n/a	n/a	n/a	n/a	n/a	n/a	n/a
n/a	"image-keyboard-response"	"237"	"494562"	"0.0-6.0-2.0-1.26"	"2n9oce"	"600"	"1366"	"chrome"	"110.0.0"	"FALSE"	"Windows 10"	"60.37"	"038"	n/a	n/a	n/a	n/a	n/a	n/a	"Trial"	n/a	n/a	n/a	"586"	"arrowleft"	n/a	"NULL"	"NULL"	"NULL"	"stimuli/VerticalHorizontal_-3.3000_0.22500.png"	n/a	"VerticalHorizontal"	"arrowleft"	"1155"	"TRUE"	"VerticalHorizontal"	"-3.300000000"	"0.2250000000"	"2"	"27"
n/a	"html-keyboard-response"	"238"	"495843"	"0.0-6.0-2.0-0.27"	"2n9oce"	"600"	"1366"	"chrome"	"110.0.0"	"FALSE"	"Windows 10"	"60.37"	"038"	n/a	n/a	n/a	n/a	n/a	n/a	"fixation"	n/a	n/a	n/a	n/a	"NULL"	n/a	"NULL"	"NULL"	"NULL"	"<p style=\"color: black; font-size: 80px; padding-left: 25%; padding-right: 14%; padding-top: 32%; padding-bottom: 12%\">+</p>"	"1269"	n/a	n/a	n/a	n/a	n/a	n/a	n/a	n/a	n/a
n/a	"image-keyboard-response"	"239"	"496274"	"0.0-6.0-2.0-1.27"	"2n9oce"	"600"	"1366"	"chrome"	"110.0.0"	"FALSE"	"Windows 10"	"60.37"	"038"	n/a	n/a	n/a	n/a	n/a	n/a	"Trial"	n/a	n/a	n/a	"430"	"arrowright"	n/a	"NULL"	"NULL"	"NULL"	"stimuli/VerticalHorizontal_-28.75714_-0.1096.png"	n/a	"VerticalHorizontal"	"arrowright"	"1281"	"TRUE"	"VerticalHorizontal"	"-28.75714000"	"-0.109600000"	"2"	"28"
n/a	"html-keyboard-response"	"240"	"497773"	"0.0-6.0-2.0-0.28"	"2n9oce"	"600"	"1366"	"chrome"	"110.0.0"	"FALSE"	"Windows 10"	"60.37"	"038"	n/a	n/a	n/a	n/a	n/a	n/a	"fixation"	n/a	n/a	n/a	n/a	"NULL"	n/a	"NULL"	"NULL"	"NULL"	"<p style=\"color: black; font-size: 80px; padding-left: 0%; padding-right: 32%; padding-top: 21%; padding-bottom: 43%\">+</p>"	"1494"	n/a	n/a	n/a	n/a	n/a	n/a	n/a	n/a	n/a
n/a	"image-keyboard-response"	"241"	"498424"	"0.0-6.0-2.0-1.28"	"2n9oce"	"600"	"1366"	"chrome"	"110.0.0"	"FALSE"	"Windows 10"	"60.37"	"038"	n/a	n/a	n/a	n/a	n/a	n/a	"Trial"	n/a	n/a	n/a	"650"	"arrowright"	n/a	"NULL"	"NULL"	"NULL"	"stimuli/VerticalHorizontal_3.30000_-0.16217.png"	n/a	"VerticalHorizontal"	"arrowright"	"1499"	"TRUE"	"VerticalHorizontal"	"3.3000000000"	"-0.162170000"	"2"	"29"
n/a	"html-keyboard-response"	"242"	"499857"	"0.0-6.0-2.0-0.29"	"2n9oce"	"600"	"1366"	"chrome"	"110.0.0"	"FALSE"	"Windows 10"	"60.37"	"038"	n/a	n/a	n/a	n/a	n/a	n/a	"fixation"	n/a	n/a	n/a	n/a	"NULL"	n/a	"NULL"	"NULL"	"NULL"	"<p style=\"color: black; font-size: 80px; padding-left: 45%; padding-right: 4%; padding-top: 48%; padding-bottom: 8%\">+</p>"	"1421"	n/a	n/a	n/a	n/a	n/a	n/a	n/a	n/a	n/a
n/a	"image-keyboard-response"	"243"	"500547"	"0.0-6.0-2.0-1.29"	"2n9oce"	"600"	"1366"	"chrome"	"110.0.0"	"FALSE"	"Windows 10"	"60.37"	"038"	n/a	n/a	n/a	n/a	n/a	n/a	"Trial"	n/a	n/a	n/a	"690"	"arrowright"	n/a	"NULL"	"NULL"	"NULL"	"stimuli/VerticalHorizontal_11.78571_-0.1096.png"	n/a	"VerticalHorizontal"	"arrowright"	"1433"	"TRUE"	"VerticalHorizontal"	"11.785710000"	"-0.109600000"	"2"	"30"
n/a	"html-keyboard-response"	"244"	"501726"	"0.0-6.0-2.0-0.30"	"2n9oce"	"600"	"1366"	"chrome"	"110.0.0"	"FALSE"	"Windows 10"	"60.37"	"038"	n/a	n/a	n/a	n/a	n/a	n/a	"fixation"	n/a	n/a	n/a	n/a	"NULL"	n/a	"NULL"	"NULL"	"NULL"	"<p style=\"color: black; font-size: 80px; padding-left: 5%; padding-right: 19%; padding-top: 18%; padding-bottom: 7%\">+</p>"	"1177"	n/a	n/a	n/a	n/a	n/a	n/a	n/a	n/a	n/a
n/a	"image-keyboard-response"	"245"	"502255"	"0.0-6.0-2.0-1.30"	"2n9oce"	"600"	"1366"	"chrome"	"110.0.0"	"FALSE"	"Windows 10"	"60.37"	"038"	n/a	n/a	n/a	n/a	n/a	n/a	"Trial"	n/a	n/a	n/a	"528"	"arrowright"	n/a	"NULL"	"NULL"	"NULL"	"stimuli/VerticalHorizontal_-11.78571_-0.1096.png"	n/a	"VerticalHorizontal"	"arrowright"	"1179"	"TRUE"	"VerticalHorizontal"	"-11.78571000"	"-0.109600000"	"2"	"31"
n/a	"html-keyboard-response"	"246"	"503705"	"0.0-6.0-2.0-0.31"	"2n9oce"	"600"	"1366"	"chrome"	"110.0.0"	"FALSE"	"Windows 10"	"60.37"	"038"	n/a	n/a	n/a	n/a	n/a	n/a	"fixation"	n/a	n/a	n/a	n/a	"NULL"	n/a	"NULL"	"NULL"	"NULL"	"<p style=\"color: black; font-size: 80px; padding-left: 48%; padding-right: 4%; padding-top: 14%; padding-bottom: 2%\">+</p>"	"1447"	n/a	n/a	n/a	n/a	n/a	n/a	n/a	n/a	n/a
n/a	"image-keyboard-response"	"247"	"504540"	"0.0-6.0-2.0-1.31"	"2n9oce"	"600"	"1366"	"chrome"	"110.0.0"	"FALSE"	"Windows 10"	"60.37"	"038"	n/a	n/a	n/a	n/a	n/a	n/a	"Trial"	n/a	n/a	n/a	"835"	"arrowright"	n/a	"NULL"	"NULL"	"NULL"	"stimuli/VerticalHorizontal_20.27143_-0.0673.png"	n/a	"VerticalHorizontal"	"arrowright"	"1450"	"TRUE"	"VerticalHorizontal"	"20.271430000"	"-0.067300000"	"2"	"32"
n/a	"html-keyboard-response"	"248"	"505548"	"0.0-6.0-2.0-0.32"	"2n9oce"	"600"	"1366"	"chrome"	"110.0.0"	"FALSE"	"Windows 10"	"60.37"	"038"	n/a	n/a	n/a	n/a	n/a	n/a	"fixation"	n/a	n/a	n/a	n/a	"NULL"	n/a	"NULL"	"NULL"	"NULL"	"<p style=\"color: black; font-size: 80px; padding-left: 20%; padding-right: 13%; padding-top: 7%; padding-bottom: 21%\">+</p>"	"1006"	n/a	n/a	n/a	n/a	n/a	n/a	n/a	n/a	n/a
n/a	"image-keyboard-response"	"249"	"506164"	"0.0-6.0-2.0-1.32"	"2n9oce"	"600"	"1366"	"chrome"	"110.0.0"	"FALSE"	"Windows 10"	"60.37"	"038"	n/a	n/a	n/a	n/a	n/a	n/a	"Trial"	n/a	n/a	n/a	"615"	"arrowleft"	n/a	"NULL"	"NULL"	"NULL"	"stimuli/VerticalHorizontal_-3.3000_0.16217.png"	n/a	"VerticalHorizontal"	"arrowleft"	"1008"	"TRUE"	"VerticalHorizontal"	"-3.300000000"	"0.1621700000"	"2"	"33"
n/a	"html-keyboard-response"	"250"	"507329"	"0.0-6.0-2.0-0.33"	"2n9oce"	"600"	"1366"	"chrome"	"110.0.0"	"FALSE"	"Windows 10"	"60.37"	"038"	n/a	n/a	n/a	n/a	n/a	n/a	"fixation"	n/a	n/a	n/a	n/a	"NULL"	n/a	"NULL"	"NULL"	"NULL"	"<p style=\"color: black; font-size: 80px; padding-left: 43%; padding-right: 49%; padding-top: 36%; padding-bottom: 20%\">+</p>"	"1161"	n/a	n/a	n/a	n/a	n/a	n/a	n/a	n/a	n/a
