"success"	"trial_type"	"trial_index"	"time_elapsed"	"internal_node_id"	"participant_id"	"screen_height"	"screen_width"	"browser"	"browser_version"	"mobile"	"os"	"vsync_rate"	"subject_id"	"width"	"height"	"webaudio"	"fullscreen"	"webcam"	"microphone"	"screen"	"version"	"date"	"time"	"rt"	"response"	"timeout"	"failed_images"	"failed_audio"	"failed_video"	"stimulus"	"trial_duration"	"block"	"correct_response"	"prestimulus_duration"	"correct"	"type"	"illusion_strength"	"illusion_difference"	"block_number"	"trial_number"
"TRUE"	"fullscreen"	"0"	"9373332"	"0.0-0.0"	"7tel72"	"600"	"1366"	"chrome"	"110.0.0"	"FALSE"	"Windows 10"	"60.7"	"040"	n/a	n/a	n/a	n/a	n/a	n/a	n/a	n/a	n/a	n/a	n/a	"NULL"	n/a	"NULL"	"NULL"	"NULL"	n/a	n/a	n/a	n/a	n/a	n/a	n/a	n/a	n/a	n/a	n/a
n/a	"browser-check"	"1"	"9374348"	"0.0-1.0"	"7tel72"	"600"	"1366"	"chrome"	"110.0.0"	"FALSE"	"Windows 10"	"60.7"	"040"	"1366"	"600"	"TRUE"	"TRUE"	"TRUE"	"TRUE"	"browser_info"	"1.0"	"08/03/2023"	"11:53:57"	n/a	"NULL"	n/a	"NULL"	"NULL"	"NULL"	n/a	n/a	n/a	n/a	n/a	n/a	n/a	n/a	n/a	n/a	n/a
n/a	"survey-text"	"2"	"9383177"	"0.0-2.0"	"7tel72"	"600"	"1366"	"chrome"	"110.0.0"	"FALSE"	"Windows 10"	"60.7"	"040"	n/a	n/a	n/a	n/a	n/a	n/a	"subject_id"	n/a	n/a	n/a	"8826"	"list(subject_id = \"040\")"	n/a	"NULL"	"NULL"	"NULL"	n/a	n/a	n/a	n/a	n/a	n/a	n/a	n/a	n/a	n/a	n/a
"TRUE"	"preload"	"3"	"9383193"	"0.0-3.0"	"7tel72"	"600"	"1366"	"chrome"	"110.0.0"	"FALSE"	"Windows 10"	"60.7"	"040"	n/a	n/a	n/a	n/a	n/a	n/a	n/a	n/a	n/a	n/a	n/a	"NULL"	"FALSE"	"list()"	"list()"	"list()"	n/a	n/a	n/a	n/a	n/a	n/a	n/a	n/a	n/a	n/a	n/a
n/a	"html-button-response"	"4"	"9455185"	"0.0-4.0-0.0"	"7tel72"	"600"	"1366"	"chrome"	"110.0.0"	"FALSE"	"Windows 10"	"60.7"	"040"	n/a	n/a	n/a	n/a	n/a	n/a	"illusion_instructions"	n/a	n/a	n/a	"71990"	"0"	n/a	"NULL"	"NULL"	"NULL"	"<p><b>Illusion Game</b></p><p>In this game of speed and reflex, you will need to make <b>visual judgments</b> (for instance, which circle is the biggest, or which line is the longest), as fast and as correctly as possible, while <b>resisting different visual illusions</b>.</p><p>We are going to start with some examples of all the illusions you will encounter in the game.</p>"	n/a	n/a	n/a	n/a	n/a	n/a	n/a	n/a	n/a	n/a
"TRUE"	"preload"	"5"	"9455210"	"0.0-4.0-1.0-0.0"	"7tel72"	"600"	"1366"	"chrome"	"110.0.0"	"FALSE"	"Windows 10"	"60.7"	"040"	n/a	n/a	n/a	n/a	n/a	n/a	n/a	n/a	n/a	n/a	n/a	"NULL"	"FALSE"	"list()"	"list()"	"list()"	n/a	n/a	n/a	n/a	n/a	n/a	n/a	n/a	n/a	n/a	n/a
n/a	"html-keyboard-response"	"6"	"9481881"	"0.0-4.0-1.0-1.0"	"7tel72"	"600"	"1366"	"chrome"	"110.0.0"	"FALSE"	"Windows 10"	"60.7"	"040"	n/a	n/a	n/a	n/a	n/a	n/a	n/a	n/a	n/a	n/a	"26670"	"enter"	n/a	"NULL"	"NULL"	"NULL"	"<p><b>Practice</b></p><p>In this part, two red circles will appear side by side on the screen.</p><p>Your task is to select which <b>red circle is bigger</b> in size as fast as you can, without making errors.</p><p>Don't get distracted by the surrounding black circles around the red circles!</p><p>Press <b>the LEFT or the RIGHT arrow</b> to indicate which is the bigger <b>red circle.</b></p><div style='float: center'><img src='materials/instructions/Ebbinghaus_Demo.png' height='300'></img><p><img src='utils/answer/answer_leftright_keyboard.PNG' height='150'></img></p><p class='small'>In this example, the correct answer is the <b>LEFT arrow</b>.</p></div><p>Are you ready? <b>Press ENTER to start</b></p>"	n/a	n/a	n/a	n/a	n/a	n/a	n/a	n/a	n/a	n/a
n/a	"html-keyboard-response"	"7"	"9483809"	"0.0-4.0-1.0-2.0-0.0"	"7tel72"	"600"	"1366"	"chrome"	"110.0.0"	"FALSE"	"Windows 10"	"60.7"	"040"	n/a	n/a	n/a	n/a	n/a	n/a	"fixation"	n/a	n/a	n/a	n/a	"NULL"	n/a	"NULL"	"NULL"	"NULL"	"<p style=\"color: black; font-size: 80px; padding-left: 4%; padding-right: 17%; padding-top: 6%; padding-bottom: 23%\">+</p>"	"1414"	n/a	n/a	n/a	n/a	n/a	n/a	n/a	n/a	n/a
n/a	"image-keyboard-response"	"8"	"9484721"	"0.0-4.0-1.0-2.0-1.0"	"7tel72"	"600"	"1366"	"chrome"	"110.0.0"	"FALSE"	"Windows 10"	"60.7"	"040"	n/a	n/a	n/a	n/a	n/a	n/a	"Trial"	n/a	n/a	n/a	"911"	"arrowright"	n/a	"NULL"	"NULL"	"NULL"	"stimuli/Ebbinghaus_-100000_-1.4000.png"	n/a	"Ebbinghaus"	"arrowright"	"1928"	"TRUE"	"Ebbinghaus"	"-10000000000"	"-1.400000000"	"1"	"1"
n/a	"html-keyboard-response"	"9"	"9486088"	"0.0-4.0-1.0-2.0-0.1"	"7tel72"	"600"	"1366"	"chrome"	"110.0.0"	"FALSE"	"Windows 10"	"60.7"	"040"	n/a	n/a	n/a	n/a	n/a	n/a	"fixation"	n/a	n/a	n/a	n/a	"NULL"	n/a	"NULL"	"NULL"	"NULL"	"<p style=\"color: black; font-size: 80px; padding-left: 10%; padding-right: 15%; padding-top: 3%; padding-bottom: 38%\">+</p>"	"1357"	n/a	n/a	n/a	n/a	n/a	n/a	n/a	n/a	n/a
n/a	"image-keyboard-response"	"10"	"9486670"	"0.0-4.0-1.0-2.0-1.1"	"7tel72"	"600"	"1366"	"chrome"	"110.0.0"	"FALSE"	"Windows 10"	"60.7"	"040"	n/a	n/a	n/a	n/a	n/a	n/a	"Trial"	n/a	n/a	n/a	"581"	"arrowleft"	n/a	"NULL"	"NULL"	"NULL"	"stimuli/Ebbinghaus_-100000_1.40000.png"	n/a	"Ebbinghaus"	"arrowleft"	"1367"	"TRUE"	"Ebbinghaus"	"-10000000000"	"1.4000000000"	"1"	"2"
n/a	"html-keyboard-response"	"11"	"9488070"	"0.0-4.0-1.0-2.0-0.2"	"7tel72"	"600"	"1366"	"chrome"	"110.0.0"	"FALSE"	"Windows 10"	"60.7"	"040"	n/a	n/a	n/a	n/a	n/a	n/a	"fixation"	n/a	n/a	n/a	n/a	"NULL"	n/a	"NULL"	"NULL"	"NULL"	"<p style=\"color: black; font-size: 80px; padding-left: 7%; padding-right: 0%; padding-top: 38%; padding-bottom: 5%\">+</p>"	"1392"	n/a	n/a	n/a	n/a	n/a	n/a	n/a	n/a	n/a
n/a	"image-keyboard-response"	"12"	"9488583"	"0.0-4.0-1.0-2.0-1.2"	"7tel72"	"600"	"1366"	"chrome"	"110.0.0"	"FALSE"	"Windows 10"	"60.7"	"040"	n/a	n/a	n/a	n/a	n/a	n/a	"Trial"	n/a	n/a	n/a	"512"	"arrowright"	n/a	"NULL"	"NULL"	"NULL"	"stimuli/Ebbinghaus_1000000_-1.4000.png"	n/a	"Ebbinghaus"	"arrowright"	"1400"	"TRUE"	"Ebbinghaus"	"100000000000"	"-1.400000000"	"1"	"3"
n/a	"html-keyboard-response"	"13"	"9489627"	"0.0-4.0-1.0-2.0-0.3"	"7tel72"	"600"	"1366"	"chrome"	"110.0.0"	"FALSE"	"Windows 10"	"60.7"	"040"	n/a	n/a	n/a	n/a	n/a	n/a	"fixation"	n/a	n/a	n/a	n/a	"NULL"	n/a	"NULL"	"NULL"	"NULL"	"<p style=\"color: black; font-size: 80px; padding-left: 9%; padding-right: 22%; padding-top: 45%; padding-bottom: 45%\">+</p>"	"1043"	n/a	n/a	n/a	n/a	n/a	n/a	n/a	n/a	n/a
n/a	"image-keyboard-response"	"14"	"9490183"	"0.0-4.0-1.0-2.0-1.3"	"7tel72"	"600"	"1366"	"chrome"	"110.0.0"	"FALSE"	"Windows 10"	"60.7"	"040"	n/a	n/a	n/a	n/a	n/a	n/a	"Trial"	n/a	n/a	n/a	"556"	"arrowleft"	n/a	"NULL"	"NULL"	"NULL"	"stimuli/Ebbinghaus_1000000_1.40000.png"	n/a	"Ebbinghaus"	"arrowleft"	"1044"	"TRUE"	"Ebbinghaus"	"100000000000"	"1.4000000000"	"1"	"4"
n/a	"html-keyboard-response"	"15"	"9491542"	"0.0-4.0-1.0-2.0-0.4"	"7tel72"	"600"	"1366"	"chrome"	"110.0.0"	"FALSE"	"Windows 10"	"60.7"	"040"	n/a	n/a	n/a	n/a	n/a	n/a	"fixation"	n/a	n/a	n/a	n/a	"NULL"	n/a	"NULL"	"NULL"	"NULL"	"<p style=\"color: black; font-size: 80px; padding-left: 8%; padding-right: 36%; padding-top: 6%; padding-bottom: 26%\">+</p>"	"1346"	n/a	n/a	n/a	n/a	n/a	n/a	n/a	n/a	n/a
n/a	"image-keyboard-response"	"16"	"9492032"	"0.0-4.0-1.0-2.0-1.4"	"7tel72"	"600"	"1366"	"chrome"	"110.0.0"	"FALSE"	"Windows 10"	"60.7"	"040"	n/a	n/a	n/a	n/a	n/a	n/a	"Trial"	n/a	n/a	n/a	"489"	"arrowright"	n/a	"NULL"	"NULL"	"NULL"	"stimuli/Ebbinghaus_0000000_-1.4000.png"	n/a	"Ebbinghaus"	"arrowright"	"1359"	"TRUE"	"Ebbinghaus"	"000000000000"	"-1.400000000"	"1"	"5"
n/a	"html-keyboard-response"	"17"	"9493531"	"0.0-4.0-1.0-2.0-0.5"	"7tel72"	"600"	"1366"	"chrome"	"110.0.0"	"FALSE"	"Windows 10"	"60.7"	"040"	n/a	n/a	n/a	n/a	n/a	n/a	"fixation"	n/a	n/a	n/a	n/a	"NULL"	n/a	"NULL"	"NULL"	"NULL"	"<p style=\"color: black; font-size: 80px; padding-left: 14%; padding-right: 11%; padding-top: 5%; padding-bottom: 23%\">+</p>"	"1490"	n/a	n/a	n/a	n/a	n/a	n/a	n/a	n/a	n/a
n/a	"image-keyboard-response"	"18"	"9494089"	"0.0-4.0-1.0-2.0-1.5"	"7tel72"	"600"	"1366"	"chrome"	"110.0.0"	"FALSE"	"Windows 10"	"60.7"	"040"	n/a	n/a	n/a	n/a	n/a	n/a	"Trial"	n/a	n/a	n/a	"557"	"arrowleft"	n/a	"NULL"	"NULL"	"NULL"	"stimuli/Ebbinghaus_0000000_1.40000.png"	n/a	"Ebbinghaus"	"arrowleft"	"1499"	"TRUE"	"Ebbinghaus"	"000000000000"	"1.4000000000"	"1"	"6"
n/a	"html-button-response"	"19"	"9498593"	"0.0-4.0-1.0-3.0"	"7tel72"	"600"	"1366"	"chrome"	"110.0.0"	"FALSE"	"Windows 10"	"60.7"	"040"	n/a	n/a	n/a	n/a	n/a	n/a	"practice_block_results"	n/a	n/a	n/a	"4503"	"0"	n/a	"NULL"	"NULL"	"NULL"	"<p style='color:rgb(76,175,80);'> Correct Responses: <b>100.00%</b></p><hr><p style='color:rgb(233,30,99);'> Average Response Time: <b>601.00</b> ms.</p>"	n/a	n/a	n/a	n/a	n/a	n/a	n/a	n/a	n/a	n/a
"TRUE"	"preload"	"20"	"9499114"	"0.0-4.0-2.0-0.0"	"7tel72"	"600"	"1366"	"chrome"	"110.0.0"	"FALSE"	"Windows 10"	"60.7"	"040"	n/a	n/a	n/a	n/a	n/a	n/a	n/a	n/a	n/a	n/a	n/a	"NULL"	"FALSE"	"list()"	"list()"	"list()"	n/a	n/a	n/a	n/a	n/a	n/a	n/a	n/a	n/a	n/a	n/a
n/a	"html-keyboard-response"	"21"	"9504856"	"0.0-4.0-2.0-1.0"	"7tel72"	"600"	"1366"	"chrome"	"110.0.0"	"FALSE"	"Windows 10"	"60.7"	"040"	n/a	n/a	n/a	n/a	n/a	n/a	n/a	n/a	n/a	n/a	"5742"	"enter"	n/a	"NULL"	"NULL"	"NULL"	"<p><b>Practice</b></p><p>In this part, two horizontal red lines will appear one above the other.</p><p>Your task is to select which <b>line is longer</b> in length as fast as you can, without making errors.</p><p>Don't get distracted by the surrounding black arrows at the end of the red lines!</p><p>Press <b>the UP or the DOWN arrow</b> to indicate where is the longer <b>red line.</b></p><div style='float: center'><img src='materials/instructions/MullerLyer_Demo.png' height='300'></img><p><img src='utils/answer/answer_updown_keyboard.PNG' height='150'></img></p><p class='small'>In this example, the correct answer is the <b>UP arrow</b>.</p></div><p>Are you ready? <b>Press ENTER to start</b></p>"	n/a	n/a	n/a	n/a	n/a	n/a	n/a	n/a	n/a	n/a
n/a	"html-keyboard-response"	"22"	"9506722"	"0.0-4.0-2.0-2.0-0.0"	"7tel72"	"600"	"1366"	"chrome"	"110.0.0"	"FALSE"	"Windows 10"	"60.7"	"040"	n/a	n/a	n/a	n/a	n/a	n/a	"fixation"	n/a	n/a	n/a	n/a	"NULL"	n/a	"NULL"	"NULL"	"NULL"	"<p style=\"color: black; font-size: 80px; padding-left: 6%; padding-right: 36%; padding-top: 16%; padding-bottom: 4%\">+</p>"	"1336"	n/a	n/a	n/a	n/a	n/a	n/a	n/a	n/a	n/a
n/a	"image-keyboard-response"	"23"	"9507380"	"0.0-4.0-2.0-2.0-1.0"	"7tel72"	"600"	"1366"	"chrome"	"110.0.0"	"FALSE"	"Windows 10"	"60.7"	"040"	n/a	n/a	n/a	n/a	n/a	n/a	"Trial"	n/a	n/a	n/a	"658"	"arrowdown"	n/a	"NULL"	"NULL"	"NULL"	"stimuli/MullerLyer_0000000_-0.7000.png"	n/a	"MullerLyer"	"arrowdown"	"1866"	"TRUE"	"MullerLyer"	"000000000000"	"-0.700000000"	"1"	"7"
n/a	"html-keyboard-response"	"24"	"9508862"	"0.0-4.0-2.0-2.0-0.1"	"7tel72"	"600"	"1366"	"chrome"	"110.0.0"	"FALSE"	"Windows 10"	"60.7"	"040"	n/a	n/a	n/a	n/a	n/a	n/a	"fixation"	n/a	n/a	n/a	n/a	"NULL"	n/a	"NULL"	"NULL"	"NULL"	"<p style=\"color: black; font-size: 80px; padding-left: 41%; padding-right: 6%; padding-top: 42%; padding-bottom: 26%\">+</p>"	"1478"	n/a	n/a	n/a	n/a	n/a	n/a	n/a	n/a	n/a
n/a	"image-keyboard-response"	"25"	"9509503"	"0.0-4.0-2.0-2.0-1.1"	"7tel72"	"600"	"1366"	"chrome"	"110.0.0"	"FALSE"	"Windows 10"	"60.7"	"040"	n/a	n/a	n/a	n/a	n/a	n/a	"Trial"	n/a	n/a	n/a	"641"	"arrowup"	n/a	"NULL"	"NULL"	"NULL"	"stimuli/MullerLyer_0000000_0.70000.png"	n/a	"MullerLyer"	"arrowup"	"1482"	"TRUE"	"MullerLyer"	"000000000000"	"0.7000000000"	"1"	"8"
n/a	"html-keyboard-response"	"26"	"9510951"	"0.0-4.0-2.0-2.0-0.2"	"7tel72"	"600"	"1366"	"chrome"	"110.0.0"	"FALSE"	"Windows 10"	"60.7"	"040"	n/a	n/a	n/a	n/a	n/a	n/a	"fixation"	n/a	n/a	n/a	n/a	"NULL"	n/a	"NULL"	"NULL"	"NULL"	"<p style=\"color: black; font-size: 80px; padding-left: 31%; padding-right: 9%; padding-top: 17%; padding-bottom: 43%\">+</p>"	"1434"	n/a	n/a	n/a	n/a	n/a	n/a	n/a	n/a	n/a
n/a	"image-keyboard-response"	"27"	"9511925"	"0.0-4.0-2.0-2.0-1.2"	"7tel72"	"600"	"1366"	"chrome"	"110.0.0"	"FALSE"	"Windows 10"	"60.7"	"040"	n/a	n/a	n/a	n/a	n/a	n/a	"Trial"	n/a	n/a	n/a	"973"	"arrowup"	n/a	"NULL"	"NULL"	"NULL"	"stimuli/MullerLyer_2300000_0.70000.png"	n/a	"MullerLyer"	"arrowup"	"1448"	"TRUE"	"MullerLyer"	"230000000000"	"0.7000000000"	"1"	"9"
n/a	"html-keyboard-response"	"28"	"9512935"	"0.0-4.0-2.0-2.0-0.3"	"7tel72"	"600"	"1366"	"chrome"	"110.0.0"	"FALSE"	"Windows 10"	"60.7"	"040"	n/a	n/a	n/a	n/a	n/a	n/a	"fixation"	n/a	n/a	n/a	n/a	"NULL"	n/a	"NULL"	"NULL"	"NULL"	"<p style=\"color: black; font-size: 80px; padding-left: 5%; padding-right: 8%; padding-top: 13%; padding-bottom: 45%\">+</p>"	"1003"	n/a	n/a	n/a	n/a	n/a	n/a	n/a	n/a	n/a
n/a	"image-keyboard-response"	"29"	"9513736"	"0.0-4.0-2.0-2.0-1.3"	"7tel72"	"600"	"1366"	"chrome"	"110.0.0"	"FALSE"	"Windows 10"	"60.7"	"040"	n/a	n/a	n/a	n/a	n/a	n/a	"Trial"	n/a	n/a	n/a	"800"	"arrowup"	n/a	"NULL"	"NULL"	"NULL"	"stimuli/MullerLyer_-230000_0.70000.png"	n/a	"MullerLyer"	"arrowup"	"1010"	"TRUE"	"MullerLyer"	"-23000000000"	"0.7000000000"	"1"	"10"
n/a	"html-keyboard-response"	"30"	"9514850"	"0.0-4.0-2.0-2.0-0.4"	"7tel72"	"600"	"1366"	"chrome"	"110.0.0"	"FALSE"	"Windows 10"	"60.7"	"040"	n/a	n/a	n/a	n/a	n/a	n/a	"fixation"	n/a	n/a	n/a	n/a	"NULL"	n/a	"NULL"	"NULL"	"NULL"	"<p style=\"color: black; font-size: 80px; padding-left: 6%; padding-right: 48%; padding-top: 30%; padding-bottom: 14%\">+</p>"	"1106"	n/a	n/a	n/a	n/a	n/a	n/a	n/a	n/a	n/a
n/a	"image-keyboard-response"	"31"	"9515393"	"0.0-4.0-2.0-2.0-1.4"	"7tel72"	"600"	"1366"	"chrome"	"110.0.0"	"FALSE"	"Windows 10"	"60.7"	"040"	n/a	n/a	n/a	n/a	n/a	n/a	"Trial"	n/a	n/a	n/a	"543"	"arrowdown"	n/a	"NULL"	"NULL"	"NULL"	"stimuli/MullerLyer_-230000_-0.7000.png"	n/a	"MullerLyer"	"arrowdown"	"1114"	"TRUE"	"MullerLyer"	"-23000000000"	"-0.700000000"	"1"	"11"
n/a	"html-keyboard-response"	"32"	"9516669"	"0.0-4.0-2.0-2.0-0.5"	"7tel72"	"600"	"1366"	"chrome"	"110.0.0"	"FALSE"	"Windows 10"	"60.7"	"040"	n/a	n/a	n/a	n/a	n/a	n/a	"fixation"	n/a	n/a	n/a	n/a	"NULL"	n/a	"NULL"	"NULL"	"NULL"	"<p style=\"color: black; font-size: 80px; padding-left: 41%; padding-right: 42%; padding-top: 14%; padding-bottom: 49%\">+</p>"	"1259"	n/a	n/a	n/a	n/a	n/a	n/a	n/a	n/a	n/a
n/a	"image-keyboard-response"	"33"	"9517219"	"0.0-4.0-2.0-2.0-1.5"	"7tel72"	"600"	"1366"	"chrome"	"110.0.0"	"FALSE"	"Windows 10"	"60.7"	"040"	n/a	n/a	n/a	n/a	n/a	n/a	"Trial"	n/a	n/a	n/a	"549"	"arrowdown"	n/a	"NULL"	"NULL"	"NULL"	"stimuli/MullerLyer_2300000_-0.7000.png"	n/a	"MullerLyer"	"arrowdown"	"1276"	"TRUE"	"MullerLyer"	"230000000000"	"-0.700000000"	"1"	"12"
n/a	"html-button-response"	"34"	"9519889"	"0.0-4.0-2.0-3.0"	"7tel72"	"600"	"1366"	"chrome"	"110.0.0"	"FALSE"	"Windows 10"	"60.7"	"040"	n/a	n/a	n/a	n/a	n/a	n/a	"practice_block_results"	n/a	n/a	n/a	"2668"	"0"	n/a	"NULL"	"NULL"	"NULL"	"<p style='color:rgb(76,175,80);'> Correct Responses: <b>100.00%</b></p><hr><p style='color:rgb(233,30,99);'> Average Response Time: <b>694.00</b> ms.</p>"	n/a	n/a	n/a	n/a	n/a	n/a	n/a	n/a	n/a	n/a
"TRUE"	"preload"	"35"	"9520413"	"0.0-4.0-3.0-0.0"	"7tel72"	"600"	"1366"	"chrome"	"110.0.0"	"FALSE"	"Windows 10"	"60.7"	"040"	n/a	n/a	n/a	n/a	n/a	n/a	n/a	n/a	n/a	n/a	n/a	"NULL"	"FALSE"	"list()"	"list()"	"list()"	n/a	n/a	n/a	n/a	n/a	n/a	n/a	n/a	n/a	n/a	n/a
n/a	"html-keyboard-response"	"36"	"9524063"	"0.0-4.0-3.0-1.0"	"7tel72"	"600"	"1366"	"chrome"	"110.0.0"	"FALSE"	"Windows 10"	"60.7"	"040"	n/a	n/a	n/a	n/a	n/a	n/a	n/a	n/a	n/a	n/a	"3650"	"enter"	n/a	"NULL"	"NULL"	"NULL"	"<p><b>Practice</b></p><p>In this part, two red lines will appear side by side.</p><p>Your task is to tell <b>which line is longer</b> in length, regardless of their orientation, as fast as you can, and without making errors.</p><p>Don't get distracted by the orientation of the lines!</p><p>Press <b>the LEFT or the RIGHT arrow</b> to indicate which <b>line is the longer one.</b></p><div style='float: center'><img src='materials/instructions/VerticalHorizontal_Demo.png' height='300'></img><p><img src='utils/answer/answer_leftright_keyboard.PNG' height='150'></img></p><p class='small'>In this example, the correct answer is the <b>LEFT arrow</b>.</p></div><p>Are you ready? <b>Press ENTER to start</b></p>"	n/a	n/a	n/a	n/a	n/a	n/a	n/a	n/a	n/a	n/a
n/a	"html-keyboard-response"	"37"	"9525932"	"0.0-4.0-3.0-2.0-0.0"	"7tel72"	"600"	"1366"	"chrome"	"110.0.0"	"FALSE"	"Windows 10"	"60.7"	"040"	n/a	n/a	n/a	n/a	n/a	n/a	"fixation"	n/a	n/a	n/a	n/a	"NULL"	n/a	"NULL"	"NULL"	"NULL"	"<p style=\"color: black; font-size: 80px; padding-left: 12%; padding-right: 33%; padding-top: 31%; padding-bottom: 42%\">+</p>"	"1343"	n/a	n/a	n/a	n/a	n/a	n/a	n/a	n/a	n/a
n/a	"image-keyboard-response"	"38"	"9526569"	"0.0-4.0-3.0-2.0-1.0"	"7tel72"	"600"	"1366"	"chrome"	"110.0.0"	"FALSE"	"Windows 10"	"60.7"	"040"	n/a	n/a	n/a	n/a	n/a	n/a	"Trial"	n/a	n/a	n/a	"635"	"arrowright"	n/a	"NULL"	"NULL"	"NULL"	"stimuli/VerticalHorizontal_-330000_-0.9000.png"	n/a	"VerticalHorizontal"	"arrowright"	"1869"	"TRUE"	"VerticalHorizontal"	"-33000000000"	"-0.900000000"	"1"	"13"
n/a	"html-keyboard-response"	"39"	"9527964"	"0.0-4.0-3.0-2.0-0.1"	"7tel72"	"600"	"1366"	"chrome"	"110.0.0"	"FALSE"	"Windows 10"	"60.7"	"040"	n/a	n/a	n/a	n/a	n/a	n/a	"fixation"	n/a	n/a	n/a	n/a	"NULL"	n/a	"NULL"	"NULL"	"NULL"	"<p style=\"color: black; font-size: 80px; padding-left: 50%; padding-right: 39%; padding-top: 33%; padding-bottom: 43%\">+</p>"	"1383"	n/a	n/a	n/a	n/a	n/a	n/a	n/a	n/a	n/a
n/a	"image-keyboard-response"	"40"	"9528322"	"0.0-4.0-3.0-2.0-1.1"	"7tel72"	"600"	"1366"	"chrome"	"110.0.0"	"FALSE"	"Windows 10"	"60.7"	"040"	n/a	n/a	n/a	n/a	n/a	n/a	"Trial"	n/a	n/a	n/a	"356"	"arrowright"	n/a	"NULL"	"NULL"	"NULL"	"stimuli/VerticalHorizontal_0000000_-0.9000.png"	n/a	"VerticalHorizontal"	"arrowright"	"1395"	"TRUE"	"VerticalHorizontal"	"000000000000"	"-0.900000000"	"1"	"14"
n/a	"html-keyboard-response"	"41"	"9529551"	"0.0-4.0-3.0-2.0-0.2"	"7tel72"	"600"	"1366"	"chrome"	"110.0.0"	"FALSE"	"Windows 10"	"60.7"	"040"	n/a	n/a	n/a	n/a	n/a	n/a	"fixation"	n/a	n/a	n/a	n/a	"NULL"	n/a	"NULL"	"NULL"	"NULL"	"<p style=\"color: black; font-size: 80px; padding-left: 1%; padding-right: 28%; padding-top: 45%; padding-bottom: 48%\">+</p>"	"1219"	n/a	n/a	n/a	n/a	n/a	n/a	n/a	n/a	n/a
n/a	"image-keyboard-response"	"42"	"9530010"	"0.0-4.0-3.0-2.0-1.2"	"7tel72"	"600"	"1366"	"chrome"	"110.0.0"	"FALSE"	"Windows 10"	"60.7"	"040"	n/a	n/a	n/a	n/a	n/a	n/a	"Trial"	n/a	n/a	n/a	"458"	"arrowleft"	n/a	"NULL"	"NULL"	"NULL"	"stimuli/VerticalHorizontal_3300000_0.90000.png"	n/a	"VerticalHorizontal"	"arrowleft"	"1229"	"TRUE"	"VerticalHorizontal"	"330000000000"	"0.9000000000"	"1"	"15"
n/a	"html-keyboard-response"	"43"	"9531044"	"0.0-4.0-3.0-2.0-0.3"	"7tel72"	"600"	"1366"	"chrome"	"110.0.0"	"FALSE"	"Windows 10"	"60.7"	"040"	n/a	n/a	n/a	n/a	n/a	n/a	"fixation"	n/a	n/a	n/a	n/a	"NULL"	n/a	"NULL"	"NULL"	"NULL"	"<p style=\"color: black; font-size: 80px; padding-left: 26%; padding-right: 37%; padding-top: 8%; padding-bottom: 46%\">+</p>"	"1032"	n/a	n/a	n/a	n/a	n/a	n/a	n/a	n/a	n/a
n/a	"image-keyboard-response"	"44"	"9531433"	"0.0-4.0-3.0-2.0-1.3"	"7tel72"	"600"	"1366"	"chrome"	"110.0.0"	"FALSE"	"Windows 10"	"60.7"	"040"	n/a	n/a	n/a	n/a	n/a	n/a	"Trial"	n/a	n/a	n/a	"388"	"arrowright"	n/a	"NULL"	"NULL"	"NULL"	"stimuli/VerticalHorizontal_3300000_-0.9000.png"	n/a	"VerticalHorizontal"	"arrowright"	"1034"	"TRUE"	"VerticalHorizontal"	"330000000000"	"-0.900000000"	"1"	"16"
n/a	"html-keyboard-response"	"45"	"9532487"	"0.0-4.0-3.0-2.0-0.4"	"7tel72"	"600"	"1366"	"chrome"	"110.0.0"	"FALSE"	"Windows 10"	"60.7"	"040"	n/a	n/a	n/a	n/a	n/a	n/a	"fixation"	n/a	n/a	n/a	n/a	"NULL"	n/a	"NULL"	"NULL"	"NULL"	"<p style=\"color: black; font-size: 80px; padding-left: 31%; padding-right: 42%; padding-top: 12%; padding-bottom: 14%\">+</p>"	"1050"	n/a	n/a	n/a	n/a	n/a	n/a	n/a	n/a	n/a
n/a	"image-keyboard-response"	"46"	"9532872"	"0.0-4.0-3.0-2.0-1.4"	"7tel72"	"600"	"1366"	"chrome"	"110.0.0"	"FALSE"	"Windows 10"	"60.7"	"040"	n/a	n/a	n/a	n/a	n/a	n/a	"Trial"	n/a	n/a	n/a	"384"	"arrowleft"	n/a	"NULL"	"NULL"	"NULL"	"stimuli/VerticalHorizontal_-330000_0.90000.png"	n/a	"VerticalHorizontal"	"arrowleft"	"1054"	"TRUE"	"VerticalHorizontal"	"-33000000000"	"0.9000000000"	"1"	"17"
n/a	"html-keyboard-response"	"47"	"9534387"	"0.0-4.0-3.0-2.0-0.5"	"7tel72"	"600"	"1366"	"chrome"	"110.0.0"	"FALSE"	"Windows 10"	"60.7"	"040"	n/a	n/a	n/a	n/a	n/a	n/a	"fixation"	n/a	n/a	n/a	n/a	"NULL"	n/a	"NULL"	"NULL"	"NULL"	"<p style=\"color: black; font-size: 80px; padding-left: 11%; padding-right: 26%; padding-top: 14%; padding-bottom: 31%\">+</p>"	"1499"	n/a	n/a	n/a	n/a	n/a	n/a	n/a	n/a	n/a
n/a	"image-keyboard-response"	"48"	"9534829"	"0.0-4.0-3.0-2.0-1.5"	"7tel72"	"600"	"1366"	"chrome"	"110.0.0"	"FALSE"	"Windows 10"	"60.7"	"040"	n/a	n/a	n/a	n/a	n/a	n/a	"Trial"	n/a	n/a	n/a	"441"	"arrowleft"	n/a	"NULL"	"NULL"	"NULL"	"stimuli/VerticalHorizontal_0000000_0.90000.png"	n/a	"VerticalHorizontal"	"arrowleft"	"1515"	"TRUE"	"VerticalHorizontal"	"000000000000"	"0.9000000000"	"1"	"18"
n/a	"html-button-response"	"49"	"9537593"	"0.0-4.0-3.0-3.0"	"7tel72"	"600"	"1366"	"chrome"	"110.0.0"	"FALSE"	"Windows 10"	"60.7"	"040"	n/a	n/a	n/a	n/a	n/a	n/a	"practice_block_results"	n/a	n/a	n/a	"2763"	"0"	n/a	"NULL"	"NULL"	"NULL"	"<p style='color:rgb(76,175,80);'> Correct Responses: <b>100.00%</b></p><hr><p style='color:rgb(233,30,99);'> Average Response Time: <b>443.67</b> ms.</p>"	n/a	n/a	n/a	n/a	n/a	n/a	n/a	n/a	n/a	n/a
n/a	"html-button-response"	"50"	"9598393"	"0.0-4.0-4.0"	"7tel72"	"600"	"1366"	"chrome"	"110.0.0"	"FALSE"	"Windows 10"	"60.7"	"040"	n/a	n/a	n/a	n/a	n/a	n/a	"practice_debrief"	n/a	n/a	n/a	"60298"	"0"	n/a	"NULL"	"NULL"	"NULL"	"<p><b>TRAINING COMPLETED</b></p><p>In the next phase, there will be more trials, and some might be harder too.<br> Moreover, after each illusion block, a <b>score</b> will be calculated based on speed (time you took to answer) and accuracy (number of errors).</p><p>Try to keep up a high score!</p><br><p>Note that it can be <i>really</i> challenging at times, so you will need to rely on your <b>intuition</b> and gut feeling to answer as fast as you can without making errors.</p><p>Each illusion block will be repeated two times (so that you have the opportunity to improve your score), but the order of the blocks is random.</p><p>Remember, your goal is to be as <b>fast</b> and <b>accurate</b> as possible. Good luck!</p><br>"	n/a	n/a	n/a	n/a	n/a	n/a	n/a	n/a	n/a	n/a
"TRUE"	"preload"	"51"	"9598612"	"0.0-5.0-0.0"	"7tel72"	"600"	"1366"	"chrome"	"110.0.0"	"FALSE"	"Windows 10"	"60.7"	"040"	n/a	n/a	n/a	n/a	n/a	n/a	n/a	n/a	n/a	n/a	n/a	"NULL"	"FALSE"	"list()"	"list()"	"list()"	n/a	n/a	n/a	n/a	n/a	n/a	n/a	n/a	n/a	n/a	n/a
n/a	"html-keyboard-response"	"52"	"9601239"	"0.0-5.0-1.0"	"7tel72"	"600"	"1366"	"chrome"	"110.0.0"	"FALSE"	"Windows 10"	"60.7"	"040"	n/a	n/a	n/a	n/a	n/a	n/a	n/a	n/a	n/a	n/a	"2626"	"enter"	n/a	"NULL"	"NULL"	"NULL"	"<p><b>Part 1/6</b></p><p>In this part, two red circles will appear side by side on the screen.</p><p>Your task is to select which <b>red circle is bigger</b> in size as fast as you can, without making errors.</p><p>Don't get distracted by the surrounding black circles around the red circles!</p><p>Press <b>the LEFT or the RIGHT arrow</b> to indicate which is the bigger <b>red circle.</b></p><div style='float: center'><img src='materials/instructions/Ebbinghaus_Demo.png' height='300'></img><p><img src='utils/answer/answer_leftright_keyboard.PNG' height='150'></img></p><p class='small'>In this example, the correct answer is the <b>LEFT arrow</b>.</p></div><p>Are you ready? <b>Press ENTER to start</b></p>"	n/a	n/a	n/a	n/a	n/a	n/a	n/a	n/a	n/a	n/a
n/a	"html-keyboard-response"	"53"	"9602945"	"0.0-5.0-2.0-0.0"	"7tel72"	"600"	"1366"	"chrome"	"110.0.0"	"FALSE"	"Windows 10"	"60.7"	"040"	n/a	n/a	n/a	n/a	n/a	n/a	"fixation"	n/a	n/a	n/a	n/a	"NULL"	n/a	"NULL"	"NULL"	"NULL"	"<p style=\"color: black; font-size: 80px; padding-left: 12%; padding-right: 36%; padding-top: 29%; padding-bottom: 34%\">+</p>"	"1181"	n/a	n/a	n/a	n/a	n/a	n/a	n/a	n/a	n/a
n/a	"image-keyboard-response"	"54"	"9603862"	"0.0-5.0-2.0-1.0"	"7tel72"	"600"	"1366"	"chrome"	"110.0.0"	"FALSE"	"Windows 10"	"60.7"	"040"	n/a	n/a	n/a	n/a	n/a	n/a	"Trial"	n/a	n/a	n/a	"916"	"arrowleft"	n/a	"NULL"	"NULL"	"NULL"	"stimuli/Ebbinghaus_0.10000_0.11071.png"	n/a	"Ebbinghaus"	"arrowleft"	"1706"	"TRUE"	"Ebbinghaus"	"0.1000000000"	"0.1107100000"	"1"	"19"
n/a	"html-keyboard-response"	"55"	"9604936"	"0.0-5.0-2.0-0.1"	"7tel72"	"600"	"1366"	"chrome"	"110.0.0"	"FALSE"	"Windows 10"	"60.7"	"040"	n/a	n/a	n/a	n/a	n/a	n/a	"fixation"	n/a	n/a	n/a	n/a	"NULL"	n/a	"NULL"	"NULL"	"NULL"	"<p style=\"color: black; font-size: 80px; padding-left: 20%; padding-right: 9%; padding-top: 20%; padding-bottom: 12%\">+</p>"	"1063"	n/a	n/a	n/a	n/a	n/a	n/a	n/a	n/a	n/a
n/a	"image-keyboard-response"	"56"	"9605557"	"0.0-5.0-2.0-1.1"	"7tel72"	"600"	"1366"	"chrome"	"110.0.0"	"FALSE"	"Windows 10"	"60.7"	"040"	n/a	n/a	n/a	n/a	n/a	n/a	"Trial"	n/a	n/a	n/a	"620"	"arrowleft"	n/a	"NULL"	"NULL"	"NULL"	"stimuli/Ebbinghaus_-0.35714_0.15857.png"	n/a	"Ebbinghaus"	"arrowleft"	"1074"	"TRUE"	"Ebbinghaus"	"-0.357140000"	"0.1585700000"	"1"	"20"
n/a	"html-keyboard-response"	"57"	"9606662"	"0.0-5.0-2.0-0.2"	"7tel72"	"600"	"1366"	"chrome"	"110.0.0"	"FALSE"	"Windows 10"	"60.7"	"040"	n/a	n/a	n/a	n/a	n/a	n/a	"fixation"	n/a	n/a	n/a	n/a	"NULL"	n/a	"NULL"	"NULL"	"NULL"	"<p style=\"color: black; font-size: 80px; padding-left: 15%; padding-right: 26%; padding-top: 37%; padding-bottom: 39%\">+</p>"	"1093"	n/a	n/a	n/a	n/a	n/a	n/a	n/a	n/a	n/a
n/a	"image-keyboard-response"	"58"	"9607224"	"0.0-5.0-2.0-1.2"	"7tel72"	"600"	"1366"	"chrome"	"110.0.0"	"FALSE"	"Windows 10"	"60.7"	"040"	n/a	n/a	n/a	n/a	n/a	n/a	"Trial"	n/a	n/a	n/a	"562"	"arrowleft"	n/a	"NULL"	"NULL"	"NULL"	"stimuli/Ebbinghaus_-0.35714_-0.2800.png"	n/a	"Ebbinghaus"	"arrowright"	"1105"	"FALSE"	"Ebbinghaus"	"-0.357140000"	"-0.280000000"	"1"	"21"
n/a	"html-keyboard-response"	"59"	"9608692"	"0.0-5.0-2.0-0.3"	"7tel72"	"600"	"1366"	"chrome"	"110.0.0"	"FALSE"	"Windows 10"	"60.7"	"040"	n/a	n/a	n/a	n/a	n/a	n/a	"fixation"	n/a	n/a	n/a	n/a	"NULL"	n/a	"NULL"	"NULL"	"NULL"	"<p style=\"color: black; font-size: 80px; padding-left: 35%; padding-right: 34%; padding-top: 41%; padding-bottom: 15%\">+</p>"	"1454"	n/a	n/a	n/a	n/a	n/a	n/a	n/a	n/a	n/a
n/a	"image-keyboard-response"	"60"	"9609332"	"0.0-5.0-2.0-1.3"	"7tel72"	"600"	"1366"	"chrome"	"110.0.0"	"FALSE"	"Windows 10"	"60.7"	"040"	n/a	n/a	n/a	n/a	n/a	n/a	"Trial"	n/a	n/a	n/a	"640"	"arrowleft"	n/a	"NULL"	"NULL"	"NULL"	"stimuli/Ebbinghaus_0.61429_0.21500.png"	n/a	"Ebbinghaus"	"arrowleft"	"1468"	"TRUE"	"Ebbinghaus"	"0.6142900000"	"0.2150000000"	"1"	"22"
n/a	"html-keyboard-response"	"61"	"9610442"	"0.0-5.0-2.0-0.4"	"7tel72"	"600"	"1366"	"chrome"	"110.0.0"	"FALSE"	"Windows 10"	"60.7"	"040"	n/a	n/a	n/a	n/a	n/a	n/a	"fixation"	n/a	n/a	n/a	n/a	"NULL"	n/a	"NULL"	"NULL"	"NULL"	"<p style=\"color: black; font-size: 80px; padding-left: 33%; padding-right: 38%; padding-top: 13%; padding-bottom: 37%\">+</p>"	"1104"	n/a	n/a	n/a	n/a	n/a	n/a	n/a	n/a	n/a
n/a	"image-keyboard-response"	"62"	"9611053"	"0.0-5.0-2.0-1.4"	"7tel72"	"600"	"1366"	"chrome"	"110.0.0"	"FALSE"	"Windows 10"	"60.7"	"040"	n/a	n/a	n/a	n/a	n/a	n/a	"Trial"	n/a	n/a	n/a	"611"	"arrowright"	n/a	"NULL"	"NULL"	"NULL"	"stimuli/Ebbinghaus_0.87143_-0.2800.png"	n/a	"Ebbinghaus"	"arrowright"	"1110"	"TRUE"	"Ebbinghaus"	"0.8714300000"	"-0.280000000"	"1"	"23"
n/a	"html-keyboard-response"	"63"	"9612529"	"0.0-5.0-2.0-0.5"	"7tel72"	"600"	"1366"	"chrome"	"110.0.0"	"FALSE"	"Windows 10"	"60.7"	"040"	n/a	n/a	n/a	n/a	n/a	n/a	"fixation"	n/a	n/a	n/a	n/a	"NULL"	n/a	"NULL"	"NULL"	"NULL"	"<p style=\"color: black; font-size: 80px; padding-left: 13%; padding-right: 25%; padding-top: 43%; padding-bottom: 33%\">+</p>"	"1461"	n/a	n/a	n/a	n/a	n/a	n/a	n/a	n/a	n/a
n/a	"image-keyboard-response"	"64"	"9613041"	"0.0-5.0-2.0-1.5"	"7tel72"	"600"	"1366"	"chrome"	"110.0.0"	"FALSE"	"Windows 10"	"60.7"	"040"	n/a	n/a	n/a	n/a	n/a	n/a	"Trial"	n/a	n/a	n/a	"511"	"arrowright"	n/a	"NULL"	"NULL"	"NULL"	"stimuli/Ebbinghaus_0.87143_-0.2150.png"	n/a	"Ebbinghaus"	"arrowright"	"1476"	"TRUE"	"Ebbinghaus"	"0.8714300000"	"-0.215000000"	"1"	"24"
n/a	"html-keyboard-response"	"65"	"9614110"	"0.0-5.0-2.0-0.6"	"7tel72"	"600"	"1366"	"chrome"	"110.0.0"	"FALSE"	"Windows 10"	"60.7"	"040"	n/a	n/a	n/a	n/a	n/a	n/a	"fixation"	n/a	n/a	n/a	n/a	"NULL"	n/a	"NULL"	"NULL"	"NULL"	"<p style=\"color: black; font-size: 80px; padding-left: 16%; padding-right: 47%; padding-top: 35%; padding-bottom: 32%\">+</p>"	"1067"	n/a	n/a	n/a	n/a	n/a	n/a	n/a	n/a	n/a
n/a	"image-keyboard-response"	"66"	"9614925"	"0.0-5.0-2.0-1.6"	"7tel72"	"600"	"1366"	"chrome"	"110.0.0"	"FALSE"	"Windows 10"	"60.7"	"040"	n/a	n/a	n/a	n/a	n/a	n/a	"Trial"	n/a	n/a	n/a	"811"	"arrowright"	n/a	"NULL"	"NULL"	"NULL"	"stimuli/Ebbinghaus_-0.87143_-0.15857.png"	n/a	"Ebbinghaus"	"arrowright"	"1069"	"TRUE"	"Ebbinghaus"	"-0.871430000"	"-0.158570000"	"1"	"25"
n/a	"html-keyboard-response"	"67"	"9616383"	"0.0-5.0-2.0-0.7"	"7tel72"	"600"	"1366"	"chrome"	"110.0.0"	"FALSE"	"Windows 10"	"60.7"	"040"	n/a	n/a	n/a	n/a	n/a	n/a	"fixation"	n/a	n/a	n/a	n/a	"NULL"	n/a	"NULL"	"NULL"	"NULL"	"<p style=\"color: black; font-size: 80px; padding-left: 45%; padding-right: 23%; padding-top: 5%; padding-bottom: 16%\">+</p>"	"1451"	n/a	n/a	n/a	n/a	n/a	n/a	n/a	n/a	n/a
n/a	"image-keyboard-response"	"68"	"9617307"	"0.0-5.0-2.0-1.7"	"7tel72"	"600"	"1366"	"chrome"	"110.0.0"	"FALSE"	"Windows 10"	"60.7"	"040"	n/a	n/a	n/a	n/a	n/a	n/a	"Trial"	n/a	n/a	n/a	"923"	"arrowleft"	n/a	"NULL"	"NULL"	"NULL"	"stimuli/Ebbinghaus_-0.87143_0.15857.png"	n/a	"Ebbinghaus"	"arrowleft"	"1458"	"TRUE"	"Ebbinghaus"	"-0.871430000"	"0.1585700000"	"1"	"26"
n/a	"html-keyboard-response"	"69"	"9618412"	"0.0-5.0-2.0-0.8"	"7tel72"	"600"	"1366"	"chrome"	"110.0.0"	"FALSE"	"Windows 10"	"60.7"	"040"	n/a	n/a	n/a	n/a	n/a	n/a	"fixation"	n/a	n/a	n/a	n/a	"NULL"	n/a	"NULL"	"NULL"	"NULL"	"<p style=\"color: black; font-size: 80px; padding-left: 32%; padding-right: 39%; padding-top: 8%; padding-bottom: 9%\">+</p>"	"1096"	n/a	n/a	n/a	n/a	n/a	n/a	n/a	n/a	n/a
n/a	"image-keyboard-response"	"70"	"9619012"	"0.0-5.0-2.0-1.8"	"7tel72"	"600"	"1366"	"chrome"	"110.0.0"	"FALSE"	"Windows 10"	"60.7"	"040"	n/a	n/a	n/a	n/a	n/a	n/a	"Trial"	n/a	n/a	n/a	"600"	"arrowright"	n/a	"NULL"	"NULL"	"NULL"	"stimuli/Ebbinghaus_-0.1000_-0.2800.png"	n/a	"Ebbinghaus"	"arrowright"	"1105"	"TRUE"	"Ebbinghaus"	"-0.100000000"	"-0.280000000"	"1"	"27"
n/a	"html-keyboard-response"	"71"	"9620331"	"0.0-5.0-2.0-0.9"	"7tel72"	"600"	"1366"	"chrome"	"110.0.0"	"FALSE"	"Windows 10"	"60.7"	"040"	n/a	n/a	n/a	n/a	n/a	n/a	"fixation"	n/a	n/a	n/a	n/a	"NULL"	n/a	"NULL"	"NULL"	"NULL"	"<p style=\"color: black; font-size: 80px; padding-left: 6%; padding-right: 47%; padding-top: 19%; padding-bottom: 20%\">+</p>"	"1304"	n/a	n/a	n/a	n/a	n/a	n/a	n/a	n/a	n/a
n/a	"image-keyboard-response"	"72"	"9621040"	"0.0-5.0-2.0-1.9"	"7tel72"	"600"	"1366"	"chrome"	"110.0.0"	"FALSE"	"Windows 10"	"60.7"	"040"	n/a	n/a	n/a	n/a	n/a	n/a	"Trial"	n/a	n/a	n/a	"708"	"arrowleft"	n/a	"NULL"	"NULL"	"NULL"	"stimuli/Ebbinghaus_-0.61429_0.11071.png"	n/a	"Ebbinghaus"	"arrowleft"	"1319"	"TRUE"	"Ebbinghaus"	"-0.614290000"	"0.1107100000"	"1"	"28"
n/a	"html-keyboard-response"	"73"	"9622198"	"0.0-5.0-2.0-0.10"	"7tel72"	"600"	"1366"	"chrome"	"110.0.0"	"FALSE"	"Windows 10"	"60.7"	"040"	n/a	n/a	n/a	n/a	n/a	n/a	"fixation"	n/a	n/a	n/a	n/a	"NULL"	n/a	"NULL"	"NULL"	"NULL"	"<p style=\"color: black; font-size: 80px; padding-left: 10%; padding-right: 49%; padding-top: 35%; padding-bottom: 3%\">+</p>"	"1147"	n/a	n/a	n/a	n/a	n/a	n/a	n/a	n/a	n/a
n/a	"image-keyboard-response"	"74"	"9622996"	"0.0-5.0-2.0-1.10"	"7tel72"	"600"	"1366"	"chrome"	"110.0.0"	"FALSE"	"Windows 10"	"60.7"	"040"	n/a	n/a	n/a	n/a	n/a	n/a	"Trial"	n/a	n/a	n/a	"797"	"arrowright"	n/a	"NULL"	"NULL"	"NULL"	"stimuli/Ebbinghaus_0.61429_-0.2150.png"	n/a	"Ebbinghaus"	"arrowright"	"1158"	"TRUE"	"Ebbinghaus"	"0.6142900000"	"-0.215000000"	"1"	"29"
n/a	"html-keyboard-response"	"75"	"9624055"	"0.0-5.0-2.0-0.11"	"7tel72"	"600"	"1366"	"chrome"	"110.0.0"	"FALSE"	"Windows 10"	"60.7"	"040"	n/a	n/a	n/a	n/a	n/a	n/a	"fixation"	n/a	n/a	n/a	n/a	"NULL"	n/a	"NULL"	"NULL"	"NULL"	"<p style=\"color: black; font-size: 80px; padding-left: 42%; padding-right: 8%; padding-top: 47%; padding-bottom: 45%\">+</p>"	"1043"	n/a	n/a	n/a	n/a	n/a	n/a	n/a	n/a	n/a
n/a	"image-keyboard-response"	"76"	"9624665"	"0.0-5.0-2.0-1.11"	"7tel72"	"600"	"1366"	"chrome"	"110.0.0"	"FALSE"	"Windows 10"	"60.7"	"040"	n/a	n/a	n/a	n/a	n/a	n/a	"Trial"	n/a	n/a	n/a	"609"	"arrowleft"	n/a	"NULL"	"NULL"	"NULL"	"stimuli/Ebbinghaus_-0.87143_0.21500.png"	n/a	"Ebbinghaus"	"arrowleft"	"1059"	"TRUE"	"Ebbinghaus"	"-0.871430000"	"0.2150000000"	"1"	"30"
n/a	"html-keyboard-response"	"77"	"9625748"	"0.0-5.0-2.0-0.12"	"7tel72"	"600"	"1366"	"chrome"	"110.0.0"	"FALSE"	"Windows 10"	"60.7"	"040"	n/a	n/a	n/a	n/a	n/a	n/a	"fixation"	n/a	n/a	n/a	n/a	"NULL"	n/a	"NULL"	"NULL"	"NULL"	"<p style=\"color: black; font-size: 80px; padding-left: 33%; padding-right: 26%; padding-top: 37%; padding-bottom: 1%\">+</p>"	"1079"	n/a	n/a	n/a	n/a	n/a	n/a	n/a	n/a	n/a
n/a	"image-keyboard-response"	"78"	"9626397"	"0.0-5.0-2.0-1.12"	"7tel72"	"600"	"1366"	"chrome"	"110.0.0"	"FALSE"	"Windows 10"	"60.7"	"040"	n/a	n/a	n/a	n/a	n/a	n/a	"Trial"	n/a	n/a	n/a	"647"	"arrowleft"	n/a	"NULL"	"NULL"	"NULL"	"stimuli/Ebbinghaus_0.10000_0.28000.png"	n/a	"Ebbinghaus"	"arrowleft"	"1083"	"TRUE"	"Ebbinghaus"	"0.1000000000"	"0.2800000000"	"1"	"31"
n/a	"html-keyboard-response"	"79"	"9627560"	"0.0-5.0-2.0-0.13"	"7tel72"	"600"	"1366"	"chrome"	"110.0.0"	"FALSE"	"Windows 10"	"60.7"	"040"	n/a	n/a	n/a	n/a	n/a	n/a	"fixation"	n/a	n/a	n/a	n/a	"NULL"	n/a	"NULL"	"NULL"	"NULL"	"<p style=\"color: black; font-size: 80px; padding-left: 23%; padding-right: 23%; padding-top: 29%; padding-bottom: 27%\">+</p>"	"1152"	n/a	n/a	n/a	n/a	n/a	n/a	n/a	n/a	n/a
n/a	"image-keyboard-response"	"80"	"9628309"	"0.0-5.0-2.0-1.13"	"7tel72"	"600"	"1366"	"chrome"	"110.0.0"	"FALSE"	"Windows 10"	"60.7"	"040"	n/a	n/a	n/a	n/a	n/a	n/a	"Trial"	n/a	n/a	n/a	"749"	"arrowleft"	n/a	"NULL"	"NULL"	"NULL"	"stimuli/Ebbinghaus_0.87143_0.15857.png"	n/a	"Ebbinghaus"	"arrowleft"	"1163"	"TRUE"	"Ebbinghaus"	"0.8714300000"	"0.1585700000"	"1"	"32"
n/a	"html-keyboard-response"	"81"	"9629386"	"0.0-5.0-2.0-0.14"	"7tel72"	"600"	"1366"	"chrome"	"110.0.0"	"FALSE"	"Windows 10"	"60.7"	"040"	n/a	n/a	n/a	n/a	n/a	n/a	"fixation"	n/a	n/a	n/a	n/a	"NULL"	n/a	"NULL"	"NULL"	"NULL"	"<p style=\"color: black; font-size: 80px; padding-left: 24%; padding-right: 23%; padding-top: 7%; padding-bottom: 46%\">+</p>"	"1070"	n/a	n/a	n/a	n/a	n/a	n/a	n/a	n/a	n/a
n/a	"image-keyboard-response"	"82"	"9629986"	"0.0-5.0-2.0-1.14"	"7tel72"	"600"	"1366"	"chrome"	"110.0.0"	"FALSE"	"Windows 10"	"60.7"	"040"	n/a	n/a	n/a	n/a	n/a	n/a	"Trial"	n/a	n/a	n/a	"598"	"arrowleft"	n/a	"NULL"	"NULL"	"NULL"	"stimuli/Ebbinghaus_-0.1000_0.11071.png"	n/a	"Ebbinghaus"	"arrowleft"	"1077"	"TRUE"	"Ebbinghaus"	"-0.100000000"	"0.1107100000"	"1"	"33"
n/a	"html-keyboard-response"	"83"	"9631133"	"0.0-5.0-2.0-0.15"	"7tel72"	"600"	"1366"	"chrome"	"110.0.0"	"FALSE"	"Windows 10"	"60.7"	"040"	n/a	n/a	n/a	n/a	n/a	n/a	"fixation"	n/a	n/a	n/a	n/a	"NULL"	n/a	"NULL"	"NULL"	"NULL"	"<p style=\"color: black; font-size: 80px; padding-left: 39%; padding-right: 48%; padding-top: 42%; padding-bottom: 24%\">+</p>"	"1136"	n/a	n/a	n/a	n/a	n/a	n/a	n/a	n/a	n/a
n/a	"image-keyboard-response"	"84"	"9631914"	"0.0-5.0-2.0-1.15"	"7tel72"	"600"	"1366"	"chrome"	"110.0.0"	"FALSE"	"Windows 10"	"60.7"	"040"	n/a	n/a	n/a	n/a	n/a	n/a	"Trial"	n/a	n/a	n/a	"780"	"arrowright"	n/a	"NULL"	"NULL"	"NULL"	"stimuli/Ebbinghaus_-0.61429_-0.15857.png"	n/a	"Ebbinghaus"	"arrowright"	"1147"	"TRUE"	"Ebbinghaus"	"-0.614290000"	"-0.158570000"	"1"	"34"
n/a	"html-keyboard-response"	"85"	"9633260"	"0.0-5.0-2.0-0.16"	"7tel72"	"600"	"1366"	"chrome"	"110.0.0"	"FALSE"	"Windows 10"	"60.7"	"040"	n/a	n/a	n/a	n/a	n/a	n/a	"fixation"	n/a	n/a	n/a	n/a	"NULL"	n/a	"NULL"	"NULL"	"NULL"	"<p style=\"color: black; font-size: 80px; padding-left: 48%; padding-right: 48%; padding-top: 16%; padding-bottom: 28%\">+</p>"	"1333"	n/a	n/a	n/a	n/a	n/a	n/a	n/a	n/a	n/a
n/a	"image-keyboard-response"	"86"	"9633861"	"0.0-5.0-2.0-1.16"	"7tel72"	"600"	"1366"	"chrome"	"110.0.0"	"FALSE"	"Windows 10"	"60.7"	"040"	n/a	n/a	n/a	n/a	n/a	n/a	"Trial"	n/a	n/a	n/a	"600"	"arrowleft"	n/a	"NULL"	"NULL"	"NULL"	"stimuli/Ebbinghaus_-0.1000_0.28000.png"	n/a	"Ebbinghaus"	"arrowleft"	"1346"	"TRUE"	"Ebbinghaus"	"-0.100000000"	"0.2800000000"	"1"	"35"
n/a	"html-keyboard-response"	"87"	"9635304"	"0.0-5.0-2.0-0.17"	"7tel72"	"600"	"1366"	"chrome"	"110.0.0"	"FALSE"	"Windows 10"	"60.7"	"040"	n/a	n/a	n/a	n/a	n/a	n/a	"fixation"	n/a	n/a	n/a	n/a	"NULL"	n/a	"NULL"	"NULL"	"NULL"	"<p style=\"color: black; font-size: 80px; padding-left: 46%; padding-right: 19%; padding-top: 46%; padding-bottom: 7%\">+</p>"	"1430"	n/a	n/a	n/a	n/a	n/a	n/a	n/a	n/a	n/a
n/a	"image-keyboard-response"	"88"	"9635890"	"0.0-5.0-2.0-1.17"	"7tel72"	"600"	"1366"	"chrome"	"110.0.0"	"FALSE"	"Windows 10"	"60.7"	"040"	n/a	n/a	n/a	n/a	n/a	n/a	"Trial"	n/a	n/a	n/a	"585"	"arrowright"	n/a	"NULL"	"NULL"	"NULL"	"stimuli/Ebbinghaus_-0.87143_0.11071.png"	n/a	"Ebbinghaus"	"arrowleft"	"1443"	"FALSE"	"Ebbinghaus"	"-0.871430000"	"0.1107100000"	"1"	"36"
n/a	"html-keyboard-response"	"89"	"9637094"	"0.0-5.0-2.0-0.18"	"7tel72"	"600"	"1366"	"chrome"	"110.0.0"	"FALSE"	"Windows 10"	"60.7"	"040"	n/a	n/a	n/a	n/a	n/a	n/a	"fixation"	n/a	n/a	n/a	n/a	"NULL"	n/a	"NULL"	"NULL"	"NULL"	"<p style=\"color: black; font-size: 80px; padding-left: 20%; padding-right: 43%; padding-top: 8%; padding-bottom: 33%\">+</p>"	"1203"	n/a	n/a	n/a	n/a	n/a	n/a	n/a	n/a	n/a
n/a	"image-keyboard-response"	"90"	"9637708"	"0.0-5.0-2.0-1.18"	"7tel72"	"600"	"1366"	"chrome"	"110.0.0"	"FALSE"	"Windows 10"	"60.7"	"040"	n/a	n/a	n/a	n/a	n/a	n/a	"Trial"	n/a	n/a	n/a	"614"	"arrowright"	n/a	"NULL"	"NULL"	"NULL"	"stimuli/Ebbinghaus_0.87143_-0.15857.png"	n/a	"Ebbinghaus"	"arrowright"	"1204"	"TRUE"	"Ebbinghaus"	"0.8714300000"	"-0.158570000"	"1"	"37"
n/a	"html-keyboard-response"	"91"	"9638910"	"0.0-5.0-2.0-0.19"	"7tel72"	"600"	"1366"	"chrome"	"110.0.0"	"FALSE"	"Windows 10"	"60.7"	"040"	n/a	n/a	n/a	n/a	n/a	n/a	"fixation"	n/a	n/a	n/a	n/a	"NULL"	n/a	"NULL"	"NULL"	"NULL"	"<p style=\"color: black; font-size: 80px; padding-left: 16%; padding-right: 13%; padding-top: 5%; padding-bottom: 6%\">+</p>"	"1192"	n/a	n/a	n/a	n/a	n/a	n/a	n/a	n/a	n/a
n/a	"image-keyboard-response"	"92"	"9639509"	"0.0-5.0-2.0-1.19"	"7tel72"	"600"	"1366"	"chrome"	"110.0.0"	"FALSE"	"Windows 10"	"60.7"	"040"	n/a	n/a	n/a	n/a	n/a	n/a	"Trial"	n/a	n/a	n/a	"598"	"arrowright"	n/a	"NULL"	"NULL"	"NULL"	"stimuli/Ebbinghaus_-0.87143_-0.2800.png"	n/a	"Ebbinghaus"	"arrowright"	"1202"	"TRUE"	"Ebbinghaus"	"-0.871430000"	"-0.280000000"	"1"	"38"
n/a	"html-keyboard-response"	"93"	"9640719"	"0.0-5.0-2.0-0.20"	"7tel72"	"600"	"1366"	"chrome"	"110.0.0"	"FALSE"	"Windows 10"	"60.7"	"040"	n/a	n/a	n/a	n/a	n/a	n/a	"fixation"	n/a	n/a	n/a	n/a	"NULL"	n/a	"NULL"	"NULL"	"NULL"	"<p style=\"color: black; font-size: 80px; padding-left: 11%; padding-right: 29%; padding-top: 28%; padding-bottom: 19%\">+</p>"	"1198"	n/a	n/a	n/a	n/a	n/a	n/a	n/a	n/a	n/a
n/a	"image-keyboard-response"	"94"	"9641464"	"0.0-5.0-2.0-1.20"	"7tel72"	"600"	"1366"	"chrome"	"110.0.0"	"FALSE"	"Windows 10"	"60.7"	"040"	n/a	n/a	n/a	n/a	n/a	n/a	"Trial"	n/a	n/a	n/a	"745"	"arrowleft"	n/a	"NULL"	"NULL"	"NULL"	"stimuli/Ebbinghaus_0.35714_0.28000.png"	n/a	"Ebbinghaus"	"arrowleft"	"1210"	"TRUE"	"Ebbinghaus"	"0.3571400000"	"0.2800000000"	"1"	"39"
n/a	"html-keyboard-response"	"95"	"9642810"	"0.0-5.0-2.0-0.21"	"7tel72"	"600"	"1366"	"chrome"	"110.0.0"	"FALSE"	"Windows 10"	"60.7"	"040"	n/a	n/a	n/a	n/a	n/a	n/a	"fixation"	n/a	n/a	n/a	n/a	"NULL"	n/a	"NULL"	"NULL"	"NULL"	"<p style=\"color: black; font-size: 80px; padding-left: 16%; padding-right: 44%; padding-top: 33%; padding-bottom: 7%\">+</p>"	"1342"	n/a	n/a	n/a	n/a	n/a	n/a	n/a	n/a	n/a
n/a	"image-keyboard-response"	"96"	"9643513"	"0.0-5.0-2.0-1.21"	"7tel72"	"600"	"1366"	"chrome"	"110.0.0"	"FALSE"	"Windows 10"	"60.7"	"040"	n/a	n/a	n/a	n/a	n/a	n/a	"Trial"	n/a	n/a	n/a	"702"	"arrowleft"	n/a	"NULL"	"NULL"	"NULL"	"stimuli/Ebbinghaus_0.61429_0.15857.png"	n/a	"Ebbinghaus"	"arrowleft"	"1346"	"TRUE"	"Ebbinghaus"	"0.6142900000"	"0.1585700000"	"1"	"40"
n/a	"html-keyboard-response"	"97"	"9644627"	"0.0-5.0-2.0-0.22"	"7tel72"	"600"	"1366"	"chrome"	"110.0.0"	"FALSE"	"Windows 10"	"60.7"	"040"	n/a	n/a	n/a	n/a	n/a	n/a	"fixation"	n/a	n/a	n/a	n/a	"NULL"	n/a	"NULL"	"NULL"	"NULL"	"<p style=\"color: black; font-size: 80px; padding-left: 12%; padding-right: 30%; padding-top: 45%; padding-bottom: 2%\">+</p>"	"1101"	n/a	n/a	n/a	n/a	n/a	n/a	n/a	n/a	n/a
n/a	"image-keyboard-response"	"98"	"9645234"	"0.0-5.0-2.0-1.22"	"7tel72"	"600"	"1366"	"chrome"	"110.0.0"	"FALSE"	"Windows 10"	"60.7"	"040"	n/a	n/a	n/a	n/a	n/a	n/a	"Trial"	n/a	n/a	n/a	"606"	"arrowright"	n/a	"NULL"	"NULL"	"NULL"	"stimuli/Ebbinghaus_0.35714_-0.2150.png"	n/a	"Ebbinghaus"	"arrowright"	"1114"	"TRUE"	"Ebbinghaus"	"0.3571400000"	"-0.215000000"	"1"	"41"
n/a	"html-keyboard-response"	"99"	"9646667"	"0.0-5.0-2.0-0.23"	"7tel72"	"600"	"1366"	"chrome"	"110.0.0"	"FALSE"	"Windows 10"	"60.7"	"040"	n/a	n/a	n/a	n/a	n/a	n/a	"fixation"	n/a	n/a	n/a	n/a	"NULL"	n/a	"NULL"	"NULL"	"NULL"	"<p style=\"color: black; font-size: 80px; padding-left: 1%; padding-right: 50%; padding-top: 50%; padding-bottom: 34%\">+</p>"	"1430"	n/a	n/a	n/a	n/a	n/a	n/a	n/a	n/a	n/a
n/a	"image-keyboard-response"	"100"	"9647363"	"0.0-5.0-2.0-1.23"	"7tel72"	"600"	"1366"	"chrome"	"110.0.0"	"FALSE"	"Windows 10"	"60.7"	"040"	n/a	n/a	n/a	n/a	n/a	n/a	"Trial"	n/a	n/a	n/a	"695"	"arrowleft"	n/a	"NULL"	"NULL"	"NULL"	"stimuli/Ebbinghaus_0.10000_0.15857.png"	n/a	"Ebbinghaus"	"arrowleft"	"1433"	"TRUE"	"Ebbinghaus"	"0.1000000000"	"0.1585700000"	"1"	"42"
n/a	"html-keyboard-response"	"101"	"9648856"	"0.0-5.0-2.0-0.24"	"7tel72"	"600"	"1366"	"chrome"	"110.0.0"	"FALSE"	"Windows 10"	"60.7"	"040"	n/a	n/a	n/a	n/a	n/a	n/a	"fixation"	n/a	n/a	n/a	n/a	"NULL"	n/a	"NULL"	"NULL"	"NULL"	"<p style=\"color: black; font-size: 80px; padding-left: 32%; padding-right: 15%; padding-top: 24%; padding-bottom: 35%\">+</p>"	"1492"	n/a	n/a	n/a	n/a	n/a	n/a	n/a	n/a	n/a
n/a	"image-keyboard-response"	"102"	"9649435"	"0.0-5.0-2.0-1.24"	"7tel72"	"600"	"1366"	"chrome"	"110.0.0"	"FALSE"	"Windows 10"	"60.7"	"040"	n/a	n/a	n/a	n/a	n/a	n/a	"Trial"	n/a	n/a	n/a	"579"	"arrowright"	n/a	"NULL"	"NULL"	"NULL"	"stimuli/Ebbinghaus_-0.61429_0.15857.png"	n/a	"Ebbinghaus"	"arrowleft"	"1493"	"FALSE"	"Ebbinghaus"	"-0.614290000"	"0.1585700000"	"1"	"43"
n/a	"html-keyboard-response"	"103"	"9650558"	"0.0-5.0-2.0-0.25"	"7tel72"	"600"	"1366"	"chrome"	"110.0.0"	"FALSE"	"Windows 10"	"60.7"	"040"	n/a	n/a	n/a	n/a	n/a	n/a	"fixation"	n/a	n/a	n/a	n/a	"NULL"	n/a	"NULL"	"NULL"	"NULL"	"<p style=\"color: black; font-size: 80px; padding-left: 45%; padding-right: 28%; padding-top: 32%; padding-bottom: 28%\">+</p>"	"1110"	n/a	n/a	n/a	n/a	n/a	n/a	n/a	n/a	n/a
n/a	"image-keyboard-response"	"104"	"9651395"	"0.0-5.0-2.0-1.25"	"7tel72"	"600"	"1366"	"chrome"	"110.0.0"	"FALSE"	"Windows 10"	"60.7"	"040"	n/a	n/a	n/a	n/a	n/a	n/a	"Trial"	n/a	n/a	n/a	"835"	"arrowleft"	n/a	"NULL"	"NULL"	"NULL"	"stimuli/Ebbinghaus_-0.1000_0.21500.png"	n/a	"Ebbinghaus"	"arrowleft"	"1123"	"TRUE"	"Ebbinghaus"	"-0.100000000"	"0.2150000000"	"1"	"44"
n/a	"html-keyboard-response"	"105"	"9652760"	"0.0-5.0-2.0-0.26"	"7tel72"	"600"	"1366"	"chrome"	"110.0.0"	"FALSE"	"Windows 10"	"60.7"	"040"	n/a	n/a	n/a	n/a	n/a	n/a	"fixation"	n/a	n/a	n/a	n/a	"NULL"	n/a	"NULL"	"NULL"	"NULL"	"<p style=\"color: black; font-size: 80px; padding-left: 21%; padding-right: 36%; padding-top: 35%; padding-bottom: 45%\">+</p>"	"1361"	n/a	n/a	n/a	n/a	n/a	n/a	n/a	n/a	n/a
n/a	"image-keyboard-response"	"106"	"9653393"	"0.0-5.0-2.0-1.26"	"7tel72"	"600"	"1366"	"chrome"	"110.0.0"	"FALSE"	"Windows 10"	"60.7"	"040"	n/a	n/a	n/a	n/a	n/a	n/a	"Trial"	n/a	n/a	n/a	"632"	"arrowleft"	n/a	"NULL"	"NULL"	"NULL"	"stimuli/Ebbinghaus_0.35714_0.21500.png"	n/a	"Ebbinghaus"	"arrowleft"	"1365"	"TRUE"	"Ebbinghaus"	"0.3571400000"	"0.2150000000"	"1"	"45"
n/a	"html-keyboard-response"	"107"	"9654873"	"0.0-5.0-2.0-0.27"	"7tel72"	"600"	"1366"	"chrome"	"110.0.0"	"FALSE"	"Windows 10"	"60.7"	"040"	n/a	n/a	n/a	n/a	n/a	n/a	"fixation"	n/a	n/a	n/a	n/a	"NULL"	n/a	"NULL"	"NULL"	"NULL"	"<p style=\"color: black; font-size: 80px; padding-left: 42%; padding-right: 16%; padding-top: 4%; padding-bottom: 41%\">+</p>"	"1467"	n/a	n/a	n/a	n/a	n/a	n/a	n/a	n/a	n/a
n/a	"image-keyboard-response"	"108"	"9655360"	"0.0-5.0-2.0-1.27"	"7tel72"	"600"	"1366"	"chrome"	"110.0.0"	"FALSE"	"Windows 10"	"60.7"	"040"	n/a	n/a	n/a	n/a	n/a	n/a	"Trial"	n/a	n/a	n/a	"486"	"arrowleft"	n/a	"NULL"	"NULL"	"NULL"	"stimuli/Ebbinghaus_-0.35714_0.28000.png"	n/a	"Ebbinghaus"	"arrowleft"	"1480"	"TRUE"	"Ebbinghaus"	"-0.357140000"	"0.2800000000"	"1"	"46"
n/a	"html-keyboard-response"	"109"	"9656416"	"0.0-5.0-2.0-0.28"	"7tel72"	"600"	"1366"	"chrome"	"110.0.0"	"FALSE"	"Windows 10"	"60.7"	"040"	n/a	n/a	n/a	n/a	n/a	n/a	"fixation"	n/a	n/a	n/a	n/a	"NULL"	n/a	"NULL"	"NULL"	"NULL"	"<p style=\"color: black; font-size: 80px; padding-left: 18%; padding-right: 43%; padding-top: 49%; padding-bottom: 47%\">+</p>"	"1050"	n/a	n/a	n/a	n/a	n/a	n/a	n/a	n/a	n/a
n/a	"image-keyboard-response"	"110"	"9656867"	"0.0-5.0-2.0-1.28"	"7tel72"	"600"	"1366"	"chrome"	"110.0.0"	"FALSE"	"Windows 10"	"60.7"	"040"	n/a	n/a	n/a	n/a	n/a	n/a	"Trial"	n/a	n/a	n/a	"450"	"arrowleft"	n/a	"NULL"	"NULL"	"NULL"	"stimuli/Ebbinghaus_-0.61429_0.28000.png"	n/a	"Ebbinghaus"	"arrowleft"	"1056"	"TRUE"	"Ebbinghaus"	"-0.614290000"	"0.2800000000"	"1"	"47"
n/a	"html-keyboard-response"	"111"	"9657949"	"0.0-5.0-2.0-0.29"	"7tel72"	"600"	"1366"	"chrome"	"110.0.0"	"FALSE"	"Windows 10"	"60.7"	"040"	n/a	n/a	n/a	n/a	n/a	n/a	"fixation"	n/a	n/a	n/a	n/a	"NULL"	n/a	"NULL"	"NULL"	"NULL"	"<p style=\"color: black; font-size: 80px; padding-left: 7%; padding-right: 12%; padding-top: 37%; padding-bottom: 40%\">+</p>"	"1082"	n/a	n/a	n/a	n/a	n/a	n/a	n/a	n/a	n/a
n/a	"image-keyboard-response"	"112"	"9658442"	"0.0-5.0-2.0-1.29"	"7tel72"	"600"	"1366"	"chrome"	"110.0.0"	"FALSE"	"Windows 10"	"60.7"	"040"	n/a	n/a	n/a	n/a	n/a	n/a	"Trial"	n/a	n/a	n/a	"492"	"arrowleft"	n/a	"NULL"	"NULL"	"NULL"	"stimuli/Ebbinghaus_0.87143_0.21500.png"	n/a	"Ebbinghaus"	"arrowleft"	"1082"	"TRUE"	"Ebbinghaus"	"0.8714300000"	"0.2150000000"	"1"	"48"
n/a	"html-keyboard-response"	"113"	"9659659"	"0.0-5.0-2.0-0.30"	"7tel72"	"600"	"1366"	"chrome"	"110.0.0"	"FALSE"	"Windows 10"	"60.7"	"040"	n/a	n/a	n/a	n/a	n/a	n/a	"fixation"	n/a	n/a	n/a	n/a	"NULL"	n/a	"NULL"	"NULL"	"NULL"	"<p style=\"color: black; font-size: 80px; padding-left: 43%; padding-right: 1%; padding-top: 47%; padding-bottom: 23%\">+</p>"	"1206"	n/a	n/a	n/a	n/a	n/a	n/a	n/a	n/a	n/a
n/a	"image-keyboard-response"	"114"	"9660290"	"0.0-5.0-2.0-1.30"	"7tel72"	"600"	"1366"	"chrome"	"110.0.0"	"FALSE"	"Windows 10"	"60.7"	"040"	n/a	n/a	n/a	n/a	n/a	n/a	"Trial"	n/a	n/a	n/a	"630"	"arrowright"	n/a	"NULL"	"NULL"	"NULL"	"stimuli/Ebbinghaus_-0.87143_-0.11071.png"	n/a	"Ebbinghaus"	"arrowright"	"1217"	"TRUE"	"Ebbinghaus"	"-0.871430000"	"-0.110710000"	"1"	"49"
n/a	"html-keyboard-response"	"115"	"9661628"	"0.0-5.0-2.0-0.31"	"7tel72"	"600"	"1366"	"chrome"	"110.0.0"	"FALSE"	"Windows 10"	"60.7"	"040"	n/a	n/a	n/a	n/a	n/a	n/a	"fixation"	n/a	n/a	n/a	n/a	"NULL"	n/a	"NULL"	"NULL"	"NULL"	"<p style=\"color: black; font-size: 80px; padding-left: 37%; padding-right: 9%; padding-top: 16%; padding-bottom: 4%\">+</p>"	"1326"	n/a	n/a	n/a	n/a	n/a	n/a	n/a	n/a	n/a
n/a	"image-keyboard-response"	"116"	"9662207"	"0.0-5.0-2.0-1.31"	"7tel72"	"600"	"1366"	"chrome"	"110.0.0"	"FALSE"	"Windows 10"	"60.7"	"040"	n/a	n/a	n/a	n/a	n/a	n/a	"Trial"	n/a	n/a	n/a	"578"	"arrowleft"	n/a	"NULL"	"NULL"	"NULL"	"stimuli/Ebbinghaus_0.87143_0.28000.png"	n/a	"Ebbinghaus"	"arrowleft"	"1338"	"TRUE"	"Ebbinghaus"	"0.8714300000"	"0.2800000000"	"1"	"50"
n/a	"html-keyboard-response"	"117"	"9663544"	"0.0-5.0-2.0-0.32"	"7tel72"	"600"	"1366"	"chrome"	"110.0.0"	"FALSE"	"Windows 10"	"60.7"	"040"	n/a	n/a	n/a	n/a	n/a	n/a	"fixation"	n/a	n/a	n/a	n/a	"NULL"	n/a	"NULL"	"NULL"	"NULL"	"<p style=\"color: black; font-size: 80px; padding-left: 34%; padding-right: 29%; padding-top: 29%; padding-bottom: 44%\">+</p>"	"1335"	n/a	n/a	n/a	n/a	n/a	n/a	n/a	n/a	n/a
n/a	"image-keyboard-response"	"118"	"9664190"	"0.0-5.0-2.0-1.32"	"7tel72"	"600"	"1366"	"chrome"	"110.0.0"	"FALSE"	"Windows 10"	"60.7"	"040"	n/a	n/a	n/a	n/a	n/a	n/a	"Trial"	n/a	n/a	n/a	"645"	"arrowleft"	n/a	"NULL"	"NULL"	"NULL"	"stimuli/Ebbinghaus_0.61429_0.28000.png"	n/a	"Ebbinghaus"	"arrowleft"	"1337"	"TRUE"	"Ebbinghaus"	"0.6142900000"	"0.2800000000"	"1"	"51"
n/a	"html-keyboard-response"	"119"	"9665582"	"0.0-5.0-2.0-0.33"	"7tel72"	"600"	"1366"	"chrome"	"110.0.0"	"FALSE"	"Windows 10"	"60.7"	"040"	n/a	n/a	n/a	n/a	n/a	n/a	"fixation"	n/a	n/a	n/a	n/a	"NULL"	n/a	"NULL"	"NULL"	"NULL"	"<p style=\"color: black; font-size: 80px; padding-left: 2%; padding-right: 8%; padding-top: 15%; padding-bottom: 15%\">+</p>"	"1389"	n/a	n/a	n/a	n/a	n/a	n/a	n/a	n/a	n/a
n/a	"image-keyboard-response"	"120"	"9666201"	"0.0-5.0-2.0-1.33"	"7tel72"	"600"	"1366"	"chrome"	"110.0.0"	"FALSE"	"Windows 10"	"60.7"	"040"	n/a	n/a	n/a	n/a	n/a	n/a	"Trial"	n/a	n/a	n/a	"619"	"arrowright"	n/a	"NULL"	"NULL"	"NULL"	"stimuli/Ebbinghaus_0.61429_-0.2800.png"	n/a	"Ebbinghaus"	"arrowright"	"1392"	"TRUE"	"Ebbinghaus"	"0.6142900000"	"-0.280000000"	"1"	"52"
n/a	"html-keyboard-response"	"121"	"9667246"	"0.0-5.0-2.0-0.34"	"7tel72"	"600"	"1366"	"chrome"	"110.0.0"	"FALSE"	"Windows 10"	"60.7"	"040"	n/a	n/a	n/a	n/a	n/a	n/a	"fixation"	n/a	n/a	n/a	n/a	"NULL"	n/a	"NULL"	"NULL"	"NULL"	"<p style=\"color: black; font-size: 80px; padding-left: 13%; padding-right: 44%; padding-top: 8%; padding-bottom: 41%\">+</p>"	"1039"	n/a	n/a	n/a	n/a	n/a	n/a	n/a	n/a	n/a
n/a	"image-keyboard-response"	"122"	"9667739"	"0.0-5.0-2.0-1.34"	"7tel72"	"600"	"1366"	"chrome"	"110.0.0"	"FALSE"	"Windows 10"	"60.7"	"040"	n/a	n/a	n/a	n/a	n/a	n/a	"Trial"	n/a	n/a	n/a	"492"	"arrowright"	n/a	"NULL"	"NULL"	"NULL"	"stimuli/Ebbinghaus_0.35714_-0.2800.png"	n/a	"Ebbinghaus"	"arrowright"	"1045"	"TRUE"	"Ebbinghaus"	"0.3571400000"	"-0.280000000"	"1"	"53"
n/a	"html-keyboard-response"	"123"	"9668981"	"0.0-5.0-2.0-0.35"	"7tel72"	"600"	"1366"	"chrome"	"110.0.0"	"FALSE"	"Windows 10"	"60.7"	"040"	n/a	n/a	n/a	n/a	n/a	n/a	"fixation"	n/a	n/a	n/a	n/a	"NULL"	n/a	"NULL"	"NULL"	"NULL"	"<p style=\"color: black; font-size: 80px; padding-left: 23%; padding-right: 42%; padding-top: 14%; padding-bottom: 48%\">+</p>"	"1237"	n/a	n/a	n/a	n/a	n/a	n/a	n/a	n/a	n/a
n/a	"image-keyboard-response"	"124"	"9669446"	"0.0-5.0-2.0-1.35"	"7tel72"	"600"	"1366"	"chrome"	"110.0.0"	"FALSE"	"Windows 10"	"60.7"	"040"	n/a	n/a	n/a	n/a	n/a	n/a	"Trial"	n/a	n/a	n/a	"464"	"arrowright"	n/a	"NULL"	"NULL"	"NULL"	"stimuli/Ebbinghaus_-0.61429_-0.11071.png"	n/a	"Ebbinghaus"	"arrowright"	"1242"	"TRUE"	"Ebbinghaus"	"-0.614290000"	"-0.110710000"	"1"	"54"
n/a	"html-keyboard-response"	"125"	"9670568"	"0.0-5.0-2.0-0.36"	"7tel72"	"600"	"1366"	"chrome"	"110.0.0"	"FALSE"	"Windows 10"	"60.7"	"040"	n/a	n/a	n/a	n/a	n/a	n/a	"fixation"	n/a	n/a	n/a	n/a	"NULL"	n/a	"NULL"	"NULL"	"NULL"	"<p style=\"color: black; font-size: 80px; padding-left: 45%; padding-right: 9%; padding-top: 1%; padding-bottom: 22%\">+</p>"	"1108"	n/a	n/a	n/a	n/a	n/a	n/a	n/a	n/a	n/a
n/a	"image-keyboard-response"	"126"	"9671554"	"0.0-5.0-2.0-1.36"	"7tel72"	"600"	"1366"	"chrome"	"110.0.0"	"FALSE"	"Windows 10"	"60.7"	"040"	n/a	n/a	n/a	n/a	n/a	n/a	"Trial"	n/a	n/a	n/a	"986"	"arrowright"	n/a	"NULL"	"NULL"	"NULL"	"stimuli/Ebbinghaus_-0.1000_-0.2150.png"	n/a	"Ebbinghaus"	"arrowright"	"1122"	"TRUE"	"Ebbinghaus"	"-0.100000000"	"-0.215000000"	"1"	"55"
n/a	"html-keyboard-response"	"127"	"9673028"	"0.0-5.0-2.0-0.37"	"7tel72"	"600"	"1366"	"chrome"	"110.0.0"	"FALSE"	"Windows 10"	"60.7"	"040"	n/a	n/a	n/a	n/a	n/a	n/a	"fixation"	n/a	n/a	n/a	n/a	"NULL"	n/a	"NULL"	"NULL"	"NULL"	"<p style=\"color: black; font-size: 80px; padding-left: 17%; padding-right: 31%; padding-top: 0%; padding-bottom: 2%\">+</p>"	"1466"	n/a	n/a	n/a	n/a	n/a	n/a	n/a	n/a	n/a
n/a	"image-keyboard-response"	"128"	"9673574"	"0.0-5.0-2.0-1.37"	"7tel72"	"600"	"1366"	"chrome"	"110.0.0"	"FALSE"	"Windows 10"	"60.7"	"040"	n/a	n/a	n/a	n/a	n/a	n/a	"Trial"	n/a	n/a	n/a	"546"	"arrowright"	n/a	"NULL"	"NULL"	"NULL"	"stimuli/Ebbinghaus_-0.61429_-0.2800.png"	n/a	"Ebbinghaus"	"arrowright"	"1474"	"TRUE"	"Ebbinghaus"	"-0.614290000"	"-0.280000000"	"1"	"56"
n/a	"html-keyboard-response"	"129"	"9675043"	"0.0-5.0-2.0-0.38"	"7tel72"	"600"	"1366"	"chrome"	"110.0.0"	"FALSE"	"Windows 10"	"60.7"	"040"	n/a	n/a	n/a	n/a	n/a	n/a	"fixation"	n/a	n/a	n/a	n/a	"NULL"	n/a	"NULL"	"NULL"	"NULL"	"<p style=\"color: black; font-size: 80px; padding-left: 35%; padding-right: 23%; padding-top: 17%; padding-bottom: 20%\">+</p>"	"1466"	n/a	n/a	n/a	n/a	n/a	n/a	n/a	n/a	n/a
n/a	"image-keyboard-response"	"130"	"9675473"	"0.0-5.0-2.0-1.38"	"7tel72"	"600"	"1366"	"chrome"	"110.0.0"	"FALSE"	"Windows 10"	"60.7"	"040"	n/a	n/a	n/a	n/a	n/a	n/a	"Trial"	n/a	n/a	n/a	"430"	"arrowright"	n/a	"NULL"	"NULL"	"NULL"	"stimuli/Ebbinghaus_0.10000_-0.2800.png"	n/a	"Ebbinghaus"	"arrowright"	"1469"	"TRUE"	"Ebbinghaus"	"0.1000000000"	"-0.280000000"	"1"	"57"
n/a	"html-keyboard-response"	"131"	"9676490"	"0.0-5.0-2.0-0.39"	"7tel72"	"600"	"1366"	"chrome"	"110.0.0"	"FALSE"	"Windows 10"	"60.7"	"040"	n/a	n/a	n/a	n/a	n/a	n/a	"fixation"	n/a	n/a	n/a	n/a	"NULL"	n/a	"NULL"	"NULL"	"NULL"	"<p style=\"color: black; font-size: 80px; padding-left: 7%; padding-right: 34%; padding-top: 2%; padding-bottom: 26%\">+</p>"	"1015"	n/a	n/a	n/a	n/a	n/a	n/a	n/a	n/a	n/a
n/a	"image-keyboard-response"	"132"	"9676866"	"0.0-5.0-2.0-1.39"	"7tel72"	"600"	"1366"	"chrome"	"110.0.0"	"FALSE"	"Windows 10"	"60.7"	"040"	n/a	n/a	n/a	n/a	n/a	n/a	"Trial"	n/a	n/a	n/a	"375"	"arrowright"	n/a	"NULL"	"NULL"	"NULL"	"stimuli/Ebbinghaus_-0.61429_0.21500.png"	n/a	"Ebbinghaus"	"arrowleft"	"1017"	"FALSE"	"Ebbinghaus"	"-0.614290000"	"0.2150000000"	"1"	"58"
n/a	"html-keyboard-response"	"133"	"9678130"	"0.0-5.0-2.0-0.40"	"7tel72"	"600"	"1366"	"chrome"	"110.0.0"	"FALSE"	"Windows 10"	"60.7"	"040"	n/a	n/a	n/a	n/a	n/a	n/a	"fixation"	n/a	n/a	n/a	n/a	"NULL"	n/a	"NULL"	"NULL"	"NULL"	"<p style=\"color: black; font-size: 80px; padding-left: 15%; padding-right: 18%; padding-top: 12%; padding-bottom: 20%\">+</p>"	"1248"	n/a	n/a	n/a	n/a	n/a	n/a	n/a	n/a	n/a
n/a	"image-keyboard-response"	"134"	"9678625"	"0.0-5.0-2.0-1.40"	"7tel72"	"600"	"1366"	"chrome"	"110.0.0"	"FALSE"	"Windows 10"	"60.7"	"040"	n/a	n/a	n/a	n/a	n/a	n/a	"Trial"	n/a	n/a	n/a	"495"	"arrowright"	n/a	"NULL"	"NULL"	"NULL"	"stimuli/Ebbinghaus_-0.87143_-0.2150.png"	n/a	"Ebbinghaus"	"arrowright"	"1264"	"TRUE"	"Ebbinghaus"	"-0.871430000"	"-0.215000000"	"1"	"59"
n/a	"html-keyboard-response"	"135"	"9680052"	"0.0-5.0-2.0-0.41"	"7tel72"	"600"	"1366"	"chrome"	"110.0.0"	"FALSE"	"Windows 10"	"60.7"	"040"	n/a	n/a	n/a	n/a	n/a	n/a	"fixation"	n/a	n/a	n/a	n/a	"NULL"	n/a	"NULL"	"NULL"	"NULL"	"<p style=\"color: black; font-size: 80px; padding-left: 3%; padding-right: 45%; padding-top: 6%; padding-bottom: 37%\">+</p>"	"1419"	n/a	n/a	n/a	n/a	n/a	n/a	n/a	n/a	n/a
n/a	"image-keyboard-response"	"136"	"9680556"	"0.0-5.0-2.0-1.41"	"7tel72"	"600"	"1366"	"chrome"	"110.0.0"	"FALSE"	"Windows 10"	"60.7"	"040"	n/a	n/a	n/a	n/a	n/a	n/a	"Trial"	n/a	n/a	n/a	"503"	"arrowright"	n/a	"NULL"	"NULL"	"NULL"	"stimuli/Ebbinghaus_0.35714_-0.11071.png"	n/a	"Ebbinghaus"	"arrowright"	"1427"	"TRUE"	"Ebbinghaus"	"0.3571400000"	"-0.110710000"	"1"	"60"
n/a	"html-keyboard-response"	"137"	"9681882"	"0.0-5.0-2.0-0.42"	"7tel72"	"600"	"1366"	"chrome"	"110.0.0"	"FALSE"	"Windows 10"	"60.7"	"040"	n/a	n/a	n/a	n/a	n/a	n/a	"fixation"	n/a	n/a	n/a	n/a	"NULL"	n/a	"NULL"	"NULL"	"NULL"	"<p style=\"color: black; font-size: 80px; padding-left: 25%; padding-right: 42%; padding-top: 15%; padding-bottom: 43%\">+</p>"	"1319"	n/a	n/a	n/a	n/a	n/a	n/a	n/a	n/a	n/a
n/a	"image-keyboard-response"	"138"	"9682392"	"0.0-5.0-2.0-1.42"	"7tel72"	"600"	"1366"	"chrome"	"110.0.0"	"FALSE"	"Windows 10"	"60.7"	"040"	n/a	n/a	n/a	n/a	n/a	n/a	"Trial"	n/a	n/a	n/a	"509"	"arrowright"	n/a	"NULL"	"NULL"	"NULL"	"stimuli/Ebbinghaus_0.10000_-0.2150.png"	n/a	"Ebbinghaus"	"arrowright"	"1326"	"TRUE"	"Ebbinghaus"	"0.1000000000"	"-0.215000000"	"1"	"61"
n/a	"html-keyboard-response"	"139"	"9683716"	"0.0-5.0-2.0-0.43"	"7tel72"	"600"	"1366"	"chrome"	"110.0.0"	"FALSE"	"Windows 10"	"60.7"	"040"	n/a	n/a	n/a	n/a	n/a	n/a	"fixation"	n/a	n/a	n/a	n/a	"NULL"	n/a	"NULL"	"NULL"	"NULL"	"<p style=\"color: black; font-size: 80px; padding-left: 16%; padding-right: 16%; padding-top: 34%; padding-bottom: 23%\">+</p>"	"1309"	n/a	n/a	n/a	n/a	n/a	n/a	n/a	n/a	n/a
n/a	"image-keyboard-response"	"140"	"9684339"	"0.0-5.0-2.0-1.43"	"7tel72"	"600"	"1366"	"chrome"	"110.0.0"	"FALSE"	"Windows 10"	"60.7"	"040"	n/a	n/a	n/a	n/a	n/a	n/a	"Trial"	n/a	n/a	n/a	"623"	"arrowleft"	n/a	"NULL"	"NULL"	"NULL"	"stimuli/Ebbinghaus_-0.1000_0.15857.png"	n/a	"Ebbinghaus"	"arrowleft"	"1324"	"TRUE"	"Ebbinghaus"	"-0.100000000"	"0.1585700000"	"1"	"62"
n/a	"html-keyboard-response"	"141"	"9685491"	"0.0-5.0-2.0-0.44"	"7tel72"	"600"	"1366"	"chrome"	"110.0.0"	"FALSE"	"Windows 10"	"60.7"	"040"	n/a	n/a	n/a	n/a	n/a	n/a	"fixation"	n/a	n/a	n/a	n/a	"NULL"	n/a	"NULL"	"NULL"	"NULL"	"<p style=\"color: black; font-size: 80px; padding-left: 27%; padding-right: 16%; padding-top: 49%; padding-bottom: 10%\">+</p>"	"1139"	n/a	n/a	n/a	n/a	n/a	n/a	n/a	n/a	n/a
n/a	"image-keyboard-response"	"142"	"9686050"	"0.0-5.0-2.0-1.44"	"7tel72"	"600"	"1366"	"chrome"	"110.0.0"	"FALSE"	"Windows 10"	"60.7"	"040"	n/a	n/a	n/a	n/a	n/a	n/a	"Trial"	n/a	n/a	n/a	"558"	"arrowleft"	n/a	"NULL"	"NULL"	"NULL"	"stimuli/Ebbinghaus_0.10000_0.21500.png"	n/a	"Ebbinghaus"	"arrowleft"	"1152"	"TRUE"	"Ebbinghaus"	"0.1000000000"	"0.2150000000"	"1"	"63"
n/a	"html-keyboard-response"	"143"	"9687268"	"0.0-5.0-2.0-0.45"	"7tel72"	"600"	"1366"	"chrome"	"110.0.0"	"FALSE"	"Windows 10"	"60.7"	"040"	n/a	n/a	n/a	n/a	n/a	n/a	"fixation"	n/a	n/a	n/a	n/a	"NULL"	n/a	"NULL"	"NULL"	"NULL"	"<p style=\"color: black; font-size: 80px; padding-left: 10%; padding-right: 38%; padding-top: 32%; padding-bottom: 18%\">+</p>"	"1209"	n/a	n/a	n/a	n/a	n/a	n/a	n/a	n/a	n/a
n/a	"image-keyboard-response"	"144"	"9687770"	"0.0-5.0-2.0-1.45"	"7tel72"	"600"	"1366"	"chrome"	"110.0.0"	"FALSE"	"Windows 10"	"60.7"	"040"	n/a	n/a	n/a	n/a	n/a	n/a	"Trial"	n/a	n/a	n/a	"501"	"arrowleft"	n/a	"NULL"	"NULL"	"NULL"	"stimuli/Ebbinghaus_0.61429_0.11071.png"	n/a	"Ebbinghaus"	"arrowleft"	"1218"	"TRUE"	"Ebbinghaus"	"0.6142900000"	"0.1107100000"	"1"	"64"
n/a	"html-keyboard-response"	"145"	"9689199"	"0.0-5.0-2.0-0.46"	"7tel72"	"600"	"1366"	"chrome"	"110.0.0"	"FALSE"	"Windows 10"	"60.7"	"040"	n/a	n/a	n/a	n/a	n/a	n/a	"fixation"	n/a	n/a	n/a	n/a	"NULL"	n/a	"NULL"	"NULL"	"NULL"	"<p style=\"color: black; font-size: 80px; padding-left: 20%; padding-right: 4%; padding-top: 37%; padding-bottom: 40%\">+</p>"	"1420"	n/a	n/a	n/a	n/a	n/a	n/a	n/a	n/a	n/a
n/a	"image-keyboard-response"	"146"	"9689841"	"0.0-5.0-2.0-1.46"	"7tel72"	"600"	"1366"	"chrome"	"110.0.0"	"FALSE"	"Windows 10"	"60.7"	"040"	n/a	n/a	n/a	n/a	n/a	n/a	"Trial"	n/a	n/a	n/a	"641"	"arrowright"	n/a	"NULL"	"NULL"	"NULL"	"stimuli/Ebbinghaus_0.61429_-0.15857.png"	n/a	"Ebbinghaus"	"arrowright"	"1429"	"TRUE"	"Ebbinghaus"	"0.6142900000"	"-0.158570000"	"1"	"65"
n/a	"html-keyboard-response"	"147"	"9691207"	"0.0-5.0-2.0-0.47"	"7tel72"	"600"	"1366"	"chrome"	"110.0.0"	"FALSE"	"Windows 10"	"60.7"	"040"	n/a	n/a	n/a	n/a	n/a	n/a	"fixation"	n/a	n/a	n/a	n/a	"NULL"	n/a	"NULL"	"NULL"	"NULL"	"<p style=\"color: black; font-size: 80px; padding-left: 19%; padding-right: 1%; padding-top: 36%; padding-bottom: 6%\">+</p>"	"1364"	n/a	n/a	n/a	n/a	n/a	n/a	n/a	n/a	n/a
n/a	"image-keyboard-response"	"148"	"9691970"	"0.0-5.0-2.0-1.47"	"7tel72"	"600"	"1366"	"chrome"	"110.0.0"	"FALSE"	"Windows 10"	"60.7"	"040"	n/a	n/a	n/a	n/a	n/a	n/a	"Trial"	n/a	n/a	n/a	"762"	"arrowright"	n/a	"NULL"	"NULL"	"NULL"	"stimuli/Ebbinghaus_-0.1000_-0.11071.png"	n/a	"Ebbinghaus"	"arrowright"	"1366"	"TRUE"	"Ebbinghaus"	"-0.100000000"	"-0.110710000"	"1"	"66"
n/a	"html-keyboard-response"	"149"	"9693153"	"0.0-5.0-2.0-0.48"	"7tel72"	"600"	"1366"	"chrome"	"110.0.0"	"FALSE"	"Windows 10"	"60.7"	"040"	n/a	n/a	n/a	n/a	n/a	n/a	"fixation"	n/a	n/a	n/a	n/a	"NULL"	n/a	"NULL"	"NULL"	"NULL"	"<p style=\"color: black; font-size: 80px; padding-left: 25%; padding-right: 47%; padding-top: 34%; padding-bottom: 6%\">+</p>"	"1168"	n/a	n/a	n/a	n/a	n/a	n/a	n/a	n/a	n/a
n/a	"image-keyboard-response"	"150"	"9693671"	"0.0-5.0-2.0-1.48"	"7tel72"	"600"	"1366"	"chrome"	"110.0.0"	"FALSE"	"Windows 10"	"60.7"	"040"	n/a	n/a	n/a	n/a	n/a	n/a	"Trial"	n/a	n/a	n/a	"517"	"arrowright"	n/a	"NULL"	"NULL"	"NULL"	"stimuli/Ebbinghaus_-0.61429_-0.2150.png"	n/a	"Ebbinghaus"	"arrowright"	"1183"	"TRUE"	"Ebbinghaus"	"-0.614290000"	"-0.215000000"	"1"	"67"
n/a	"html-keyboard-response"	"151"	"9694855"	"0.0-5.0-2.0-0.49"	"7tel72"	"600"	"1366"	"chrome"	"110.0.0"	"FALSE"	"Windows 10"	"60.7"	"040"	n/a	n/a	n/a	n/a	n/a	n/a	"fixation"	n/a	n/a	n/a	n/a	"NULL"	n/a	"NULL"	"NULL"	"NULL"	"<p style=\"color: black; font-size: 80px; padding-left: 14%; padding-right: 17%; padding-top: 21%; padding-bottom: 32%\">+</p>"	"1181"	n/a	n/a	n/a	n/a	n/a	n/a	n/a	n/a	n/a
n/a	"image-keyboard-response"	"152"	"9695225"	"0.0-5.0-2.0-1.49"	"7tel72"	"600"	"1366"	"chrome"	"110.0.0"	"FALSE"	"Windows 10"	"60.7"	"040"	n/a	n/a	n/a	n/a	n/a	n/a	"Trial"	n/a	n/a	n/a	"370"	"arrowright"	n/a	"NULL"	"NULL"	"NULL"	"stimuli/Ebbinghaus_0.35714_-0.15857.png"	n/a	"Ebbinghaus"	"arrowright"	"1184"	"TRUE"	"Ebbinghaus"	"0.3571400000"	"-0.158570000"	"1"	"68"
n/a	"html-keyboard-response"	"153"	"9696731"	"0.0-5.0-2.0-0.50"	"7tel72"	"600"	"1366"	"chrome"	"110.0.0"	"FALSE"	"Windows 10"	"60.7"	"040"	n/a	n/a	n/a	n/a	n/a	n/a	"fixation"	n/a	n/a	n/a	n/a	"NULL"	n/a	"NULL"	"NULL"	"NULL"	"<p style=\"color: black; font-size: 80px; padding-left: 45%; padding-right: 5%; padding-top: 39%; padding-bottom: 28%\">+</p>"	"1498"	n/a	n/a	n/a	n/a	n/a	n/a	n/a	n/a	n/a
n/a	"image-keyboard-response"	"154"	"9697089"	"0.0-5.0-2.0-1.50"	"7tel72"	"600"	"1366"	"chrome"	"110.0.0"	"FALSE"	"Windows 10"	"60.7"	"040"	n/a	n/a	n/a	n/a	n/a	n/a	"Trial"	n/a	n/a	n/a	"357"	"arrowright"	n/a	"NULL"	"NULL"	"NULL"	"stimuli/Ebbinghaus_0.35714_0.11071.png"	n/a	"Ebbinghaus"	"arrowleft"	"1506"	"FALSE"	"Ebbinghaus"	"0.3571400000"	"0.1107100000"	"1"	"69"
n/a	"html-keyboard-response"	"155"	"9698543"	"0.0-5.0-2.0-0.51"	"7tel72"	"600"	"1366"	"chrome"	"110.0.0"	"FALSE"	"Windows 10"	"60.7"	"040"	n/a	n/a	n/a	n/a	n/a	n/a	"fixation"	n/a	n/a	n/a	n/a	"NULL"	n/a	"NULL"	"NULL"	"NULL"	"<p style=\"color: black; font-size: 80px; padding-left: 37%; padding-right: 36%; padding-top: 2%; padding-bottom: 45%\">+</p>"	"1440"	n/a	n/a	n/a	n/a	n/a	n/a	n/a	n/a	n/a
n/a	"image-keyboard-response"	"156"	"9699100"	"0.0-5.0-2.0-1.51"	"7tel72"	"600"	"1366"	"chrome"	"110.0.0"	"FALSE"	"Windows 10"	"60.7"	"040"	n/a	n/a	n/a	n/a	n/a	n/a	"Trial"	n/a	n/a	n/a	"556"	"arrowright"	n/a	"NULL"	"NULL"	"NULL"	"stimuli/Ebbinghaus_-0.35714_-0.15857.png"	n/a	"Ebbinghaus"	"arrowright"	"1454"	"TRUE"	"Ebbinghaus"	"-0.357140000"	"-0.158570000"	"1"	"70"
n/a	"html-keyboard-response"	"157"	"9700185"	"0.0-5.0-2.0-0.52"	"7tel72"	"600"	"1366"	"chrome"	"110.0.0"	"FALSE"	"Windows 10"	"60.7"	"040"	n/a	n/a	n/a	n/a	n/a	n/a	"fixation"	n/a	n/a	n/a	n/a	"NULL"	n/a	"NULL"	"NULL"	"NULL"	"<p style=\"color: black; font-size: 80px; padding-left: 40%; padding-right: 22%; padding-top: 19%; padding-bottom: 9%\">+</p>"	"1080"	n/a	n/a	n/a	n/a	n/a	n/a	n/a	n/a	n/a
n/a	"image-keyboard-response"	"158"	"9701387"	"0.0-5.0-2.0-1.52"	"7tel72"	"600"	"1366"	"chrome"	"110.0.0"	"FALSE"	"Windows 10"	"60.7"	"040"	n/a	n/a	n/a	n/a	n/a	n/a	"Trial"	n/a	n/a	n/a	"1201"	"arrowleft"	n/a	"NULL"	"NULL"	"NULL"	"stimuli/Ebbinghaus_-0.35714_0.11071.png"	n/a	"Ebbinghaus"	"arrowleft"	"1085"	"TRUE"	"Ebbinghaus"	"-0.357140000"	"0.1107100000"	"1"	"71"
n/a	"html-keyboard-response"	"159"	"9702457"	"0.0-5.0-2.0-0.53"	"7tel72"	"600"	"1366"	"chrome"	"110.0.0"	"FALSE"	"Windows 10"	"60.7"	"040"	n/a	n/a	n/a	n/a	n/a	n/a	"fixation"	n/a	n/a	n/a	n/a	"NULL"	n/a	"NULL"	"NULL"	"NULL"	"<p style=\"color: black; font-size: 80px; padding-left: 16%; padding-right: 2%; padding-top: 10%; padding-bottom: 29%\">+</p>"	"1069"	n/a	n/a	n/a	n/a	n/a	n/a	n/a	n/a	n/a
n/a	"image-keyboard-response"	"160"	"9702981"	"0.0-5.0-2.0-1.53"	"7tel72"	"600"	"1366"	"chrome"	"110.0.0"	"FALSE"	"Windows 10"	"60.7"	"040"	n/a	n/a	n/a	n/a	n/a	n/a	"Trial"	n/a	n/a	n/a	"523"	"arrowright"	n/a	"NULL"	"NULL"	"NULL"	"stimuli/Ebbinghaus_0.87143_-0.11071.png"	n/a	"Ebbinghaus"	"arrowright"	"1070"	"TRUE"	"Ebbinghaus"	"0.8714300000"	"-0.110710000"	"1"	"72"
n/a	"html-keyboard-response"	"161"	"9704218"	"0.0-5.0-2.0-0.54"	"7tel72"	"600"	"1366"	"chrome"	"110.0.0"	"FALSE"	"Windows 10"	"60.7"	"040"	n/a	n/a	n/a	n/a	n/a	n/a	"fixation"	n/a	n/a	n/a	n/a	"NULL"	n/a	"NULL"	"NULL"	"NULL"	"<p style=\"color: black; font-size: 80px; padding-left: 3%; padding-right: 10%; padding-top: 21%; padding-bottom: 37%\">+</p>"	"1221"	n/a	n/a	n/a	n/a	n/a	n/a	n/a	n/a	n/a
n/a	"image-keyboard-response"	"162"	"9704722"	"0.0-5.0-2.0-1.54"	"7tel72"	"600"	"1366"	"chrome"	"110.0.0"	"FALSE"	"Windows 10"	"60.7"	"040"	n/a	n/a	n/a	n/a	n/a	n/a	"Trial"	n/a	n/a	n/a	"504"	"arrowleft"	n/a	"NULL"	"NULL"	"NULL"	"stimuli/Ebbinghaus_-0.87143_0.28000.png"	n/a	"Ebbinghaus"	"arrowleft"	"1237"	"TRUE"	"Ebbinghaus"	"-0.871430000"	"0.2800000000"	"1"	"73"
n/a	"html-keyboard-response"	"163"	"9705978"	"0.0-5.0-2.0-0.55"	"7tel72"	"600"	"1366"	"chrome"	"110.0.0"	"FALSE"	"Windows 10"	"60.7"	"040"	n/a	n/a	n/a	n/a	n/a	n/a	"fixation"	n/a	n/a	n/a	n/a	"NULL"	n/a	"NULL"	"NULL"	"NULL"	"<p style=\"color: black; font-size: 80px; padding-left: 2%; padding-right: 40%; padding-top: 17%; padding-bottom: 49%\">+</p>"	"1255"	n/a	n/a	n/a	n/a	n/a	n/a	n/a	n/a	n/a
n/a	"image-keyboard-response"	"164"	"9706852"	"0.0-5.0-2.0-1.55"	"7tel72"	"600"	"1366"	"chrome"	"110.0.0"	"FALSE"	"Windows 10"	"60.7"	"040"	n/a	n/a	n/a	n/a	n/a	n/a	"Trial"	n/a	n/a	n/a	"873"	"arrowright"	n/a	"NULL"	"NULL"	"NULL"	"stimuli/Ebbinghaus_0.87143_0.11071.png"	n/a	"Ebbinghaus"	"arrowleft"	"1256"	"FALSE"	"Ebbinghaus"	"0.8714300000"	"0.1107100000"	"1"	"74"
n/a	"html-keyboard-response"	"165"	"9708101"	"0.0-5.0-2.0-0.56"	"7tel72"	"600"	"1366"	"chrome"	"110.0.0"	"FALSE"	"Windows 10"	"60.7"	"040"	n/a	n/a	n/a	n/a	n/a	n/a	"fixation"	n/a	n/a	n/a	n/a	"NULL"	n/a	"NULL"	"NULL"	"NULL"	"<p style=\"color: black; font-size: 80px; padding-left: 35%; padding-right: 3%; padding-top: 1%; padding-bottom: 6%\">+</p>"	"1240"	n/a	n/a	n/a	n/a	n/a	n/a	n/a	n/a	n/a
n/a	"image-keyboard-response"	"166"	"9708768"	"0.0-5.0-2.0-1.56"	"7tel72"	"600"	"1366"	"chrome"	"110.0.0"	"FALSE"	"Windows 10"	"60.7"	"040"	n/a	n/a	n/a	n/a	n/a	n/a	"Trial"	n/a	n/a	n/a	"666"	"arrowright"	n/a	"NULL"	"NULL"	"NULL"	"stimuli/Ebbinghaus_-0.35714_-0.2150.png"	n/a	"Ebbinghaus"	"arrowright"	"1249"	"TRUE"	"Ebbinghaus"	"-0.357140000"	"-0.215000000"	"1"	"75"
n/a	"html-keyboard-response"	"167"	"9709855"	"0.0-5.0-2.0-0.57"	"7tel72"	"600"	"1366"	"chrome"	"110.0.0"	"FALSE"	"Windows 10"	"60.7"	"040"	n/a	n/a	n/a	n/a	n/a	n/a	"fixation"	n/a	n/a	n/a	n/a	"NULL"	n/a	"NULL"	"NULL"	"NULL"	"<p style=\"color: black; font-size: 80px; padding-left: 22%; padding-right: 23%; padding-top: 46%; padding-bottom: 6%\">+</p>"	"1074"	n/a	n/a	n/a	n/a	n/a	n/a	n/a	n/a	n/a
n/a	"image-keyboard-response"	"168"	"9710684"	"0.0-5.0-2.0-1.57"	"7tel72"	"600"	"1366"	"chrome"	"110.0.0"	"FALSE"	"Windows 10"	"60.7"	"040"	n/a	n/a	n/a	n/a	n/a	n/a	"Trial"	n/a	n/a	n/a	"828"	"arrowright"	n/a	"NULL"	"NULL"	"NULL"	"stimuli/Ebbinghaus_0.35714_0.15857.png"	n/a	"Ebbinghaus"	"arrowleft"	"1087"	"FALSE"	"Ebbinghaus"	"0.3571400000"	"0.1585700000"	"1"	"76"
n/a	"html-keyboard-response"	"169"	"9712125"	"0.0-5.0-2.0-0.58"	"7tel72"	"600"	"1366"	"chrome"	"110.0.0"	"FALSE"	"Windows 10"	"60.7"	"040"	n/a	n/a	n/a	n/a	n/a	n/a	"fixation"	n/a	n/a	n/a	n/a	"NULL"	n/a	"NULL"	"NULL"	"NULL"	"<p style=\"color: black; font-size: 80px; padding-left: 41%; padding-right: 10%; padding-top: 17%; padding-bottom: 17%\">+</p>"	"1432"	n/a	n/a	n/a	n/a	n/a	n/a	n/a	n/a	n/a
n/a	"image-keyboard-response"	"170"	"9712759"	"0.0-5.0-2.0-1.58"	"7tel72"	"600"	"1366"	"chrome"	"110.0.0"	"FALSE"	"Windows 10"	"60.7"	"040"	n/a	n/a	n/a	n/a	n/a	n/a	"Trial"	n/a	n/a	n/a	"633"	"arrowright"	n/a	"NULL"	"NULL"	"NULL"	"stimuli/Ebbinghaus_0.10000_-0.15857.png"	n/a	"Ebbinghaus"	"arrowright"	"1441"	"TRUE"	"Ebbinghaus"	"0.1000000000"	"-0.158570000"	"1"	"77"
n/a	"html-keyboard-response"	"171"	"9714138"	"0.0-5.0-2.0-0.59"	"7tel72"	"600"	"1366"	"chrome"	"110.0.0"	"FALSE"	"Windows 10"	"60.7"	"040"	n/a	n/a	n/a	n/a	n/a	n/a	"fixation"	n/a	n/a	n/a	n/a	"NULL"	n/a	"NULL"	"NULL"	"NULL"	"<p style=\"color: black; font-size: 80px; padding-left: 34%; padding-right: 17%; padding-top: 41%; padding-bottom: 8%\">+</p>"	"1371"	n/a	n/a	n/a	n/a	n/a	n/a	n/a	n/a	n/a
n/a	"image-keyboard-response"	"172"	"9714885"	"0.0-5.0-2.0-1.59"	"7tel72"	"600"	"1366"	"chrome"	"110.0.0"	"FALSE"	"Windows 10"	"60.7"	"040"	n/a	n/a	n/a	n/a	n/a	n/a	"Trial"	n/a	n/a	n/a	"746"	"arrowleft"	n/a	"NULL"	"NULL"	"NULL"	"stimuli/Ebbinghaus_-0.35714_0.21500.png"	n/a	"Ebbinghaus"	"arrowleft"	"1379"	"TRUE"	"Ebbinghaus"	"-0.357140000"	"0.2150000000"	"1"	"78"
n/a	"html-keyboard-response"	"173"	"9716270"	"0.0-5.0-2.0-0.60"	"7tel72"	"600"	"1366"	"chrome"	"110.0.0"	"FALSE"	"Windows 10"	"60.7"	"040"	n/a	n/a	n/a	n/a	n/a	n/a	"fixation"	n/a	n/a	n/a	n/a	"NULL"	n/a	"NULL"	"NULL"	"NULL"	"<p style=\"color: black; font-size: 80px; padding-left: 42%; padding-right: 49%; padding-top: 7%; padding-bottom: 14%\">+</p>"	"1369"	n/a	n/a	n/a	n/a	n/a	n/a	n/a	n/a	n/a
n/a	"image-keyboard-response"	"174"	"9716990"	"0.0-5.0-2.0-1.60"	"7tel72"	"600"	"1366"	"chrome"	"110.0.0"	"FALSE"	"Windows 10"	"60.7"	"040"	n/a	n/a	n/a	n/a	n/a	n/a	"Trial"	n/a	n/a	n/a	"719"	"arrowright"	n/a	"NULL"	"NULL"	"NULL"	"stimuli/Ebbinghaus_-0.35714_-0.11071.png"	n/a	"Ebbinghaus"	"arrowright"	"1385"	"TRUE"	"Ebbinghaus"	"-0.357140000"	"-0.110710000"	"1"	"79"
n/a	"html-keyboard-response"	"175"	"9718457"	"0.0-5.0-2.0-0.61"	"7tel72"	"600"	"1366"	"chrome"	"110.0.0"	"FALSE"	"Windows 10"	"60.7"	"040"	n/a	n/a	n/a	n/a	n/a	n/a	"fixation"	n/a	n/a	n/a	n/a	"NULL"	n/a	"NULL"	"NULL"	"NULL"	"<p style=\"color: black; font-size: 80px; padding-left: 40%; padding-right: 42%; padding-top: 15%; padding-bottom: 11%\">+</p>"	"1449"	n/a	n/a	n/a	n/a	n/a	n/a	n/a	n/a	n/a
n/a	"image-keyboard-response"	"176"	"9718981"	"0.0-5.0-2.0-1.61"	"7tel72"	"600"	"1366"	"chrome"	"110.0.0"	"FALSE"	"Windows 10"	"60.7"	"040"	n/a	n/a	n/a	n/a	n/a	n/a	"Trial"	n/a	n/a	n/a	"524"	"arrowright"	n/a	"NULL"	"NULL"	"NULL"	"stimuli/Ebbinghaus_0.61429_-0.11071.png"	n/a	"Ebbinghaus"	"arrowright"	"1467"	"TRUE"	"Ebbinghaus"	"0.6142900000"	"-0.110710000"	"1"	"80"
n/a	"html-keyboard-response"	"177"	"9720185"	"0.0-5.0-2.0-0.62"	"7tel72"	"600"	"1366"	"chrome"	"110.0.0"	"FALSE"	"Windows 10"	"60.7"	"040"	n/a	n/a	n/a	n/a	n/a	n/a	"fixation"	n/a	n/a	n/a	n/a	"NULL"	n/a	"NULL"	"NULL"	"NULL"	"<p style=\"color: black; font-size: 80px; padding-left: 13%; padding-right: 8%; padding-top: 45%; padding-bottom: 22%\">+</p>"	"1197"	n/a	n/a	n/a	n/a	n/a	n/a	n/a	n/a	n/a
n/a	"image-keyboard-response"	"178"	"9720870"	"0.0-5.0-2.0-1.62"	"7tel72"	"600"	"1366"	"chrome"	"110.0.0"	"FALSE"	"Windows 10"	"60.7"	"040"	n/a	n/a	n/a	n/a	n/a	n/a	"Trial"	n/a	n/a	n/a	"685"	"arrowright"	n/a	"NULL"	"NULL"	"NULL"	"stimuli/Ebbinghaus_0.10000_-0.11071.png"	n/a	"Ebbinghaus"	"arrowright"	"1204"	"TRUE"	"Ebbinghaus"	"0.1000000000"	"-0.110710000"	"1"	"81"
n/a	"html-keyboard-response"	"179"	"9722172"	"0.0-5.0-2.0-0.63"	"7tel72"	"600"	"1366"	"chrome"	"110.0.0"	"FALSE"	"Windows 10"	"60.7"	"040"	n/a	n/a	n/a	n/a	n/a	n/a	"fixation"	n/a	n/a	n/a	n/a	"NULL"	n/a	"NULL"	"NULL"	"NULL"	"<p style=\"color: black; font-size: 80px; padding-left: 8%; padding-right: 37%; padding-top: 46%; padding-bottom: 25%\">+</p>"	"1301"	n/a	n/a	n/a	n/a	n/a	n/a	n/a	n/a	n/a
n/a	"image-keyboard-response"	"180"	"9722837"	"0.0-5.0-2.0-1.63"	"7tel72"	"600"	"1366"	"chrome"	"110.0.0"	"FALSE"	"Windows 10"	"60.7"	"040"	n/a	n/a	n/a	n/a	n/a	n/a	"Trial"	n/a	n/a	n/a	"664"	"arrowright"	n/a	"NULL"	"NULL"	"NULL"	"stimuli/Ebbinghaus_-0.1000_-0.15857.png"	n/a	"Ebbinghaus"	"arrowright"	"1302"	"TRUE"	"Ebbinghaus"	"-0.100000000"	"-0.158570000"	"1"	"82"
n/a	"html-button-response"	"181"	"9736937"	"0.0-5.0-3.0"	"7tel72"	"600"	"1366"	"chrome"	"110.0.0"	"FALSE"	"Windows 10"	"60.7"	"040"	n/a	n/a	n/a	n/a	n/a	n/a	"block_results"	n/a	n/a	n/a	"14098"	"0"	n/a	"NULL"	"NULL"	"NULL"	"<p>Your score for this illusion is <p style=\"color: black; font-size: 48px; font-weight: bold;\">79.9 %</p><hr><p>Can you do better in the next illusion?</p>"	n/a	n/a	n/a	n/a	n/a	n/a	n/a	n/a	n/a	n/a
"TRUE"	"preload"	"182"	"9737115"	"0.0-6.0-0.0"	"7tel72"	"600"	"1366"	"chrome"	"110.0.0"	"FALSE"	"Windows 10"	"60.7"	"040"	n/a	n/a	n/a	n/a	n/a	n/a	n/a	n/a	n/a	n/a	n/a	"NULL"	"FALSE"	"list()"	"list()"	"list()"	n/a	n/a	n/a	n/a	n/a	n/a	n/a	n/a	n/a	n/a	n/a
n/a	"html-keyboard-response"	"183"	"9740967"	"0.0-6.0-1.0"	"7tel72"	"600"	"1366"	"chrome"	"110.0.0"	"FALSE"	"Windows 10"	"60.7"	"040"	n/a	n/a	n/a	n/a	n/a	n/a	n/a	n/a	n/a	n/a	"3851"	"enter"	n/a	"NULL"	"NULL"	"NULL"	"<p><b>Part 2/6</b></p><p>In this part, two red lines will appear side by side.</p><p>Your task is to tell <b>which line is longer</b> in length, regardless of their orientation, as fast as you can, and without making errors.</p><p>Don't get distracted by the orientation of the lines!</p><p>Press <b>the LEFT or the RIGHT arrow</b> to indicate which <b>line is the longer one.</b></p><div style='float: center'><img src='materials/instructions/VerticalHorizontal_Demo.png' height='300'></img><p><img src='utils/answer/answer_leftright_keyboard.PNG' height='150'></img></p><p class='small'>In this example, the correct answer is the <b>LEFT arrow</b>.</p></div><p>Are you ready? <b>Press ENTER to start</b></p>"	n/a	n/a	n/a	n/a	n/a	n/a	n/a	n/a	n/a	n/a
n/a	"html-keyboard-response"	"184"	"9742603"	"0.0-6.0-2.0-0.0"	"7tel72"	"600"	"1366"	"chrome"	"110.0.0"	"FALSE"	"Windows 10"	"60.7"	"040"	n/a	n/a	n/a	n/a	n/a	n/a	"fixation"	n/a	n/a	n/a	n/a	"NULL"	n/a	"NULL"	"NULL"	"NULL"	"<p style=\"color: black; font-size: 80px; padding-left: 11%; padding-right: 42%; padding-top: 3%; padding-bottom: 48%\">+</p>"	"1127"	n/a	n/a	n/a	n/a	n/a	n/a	n/a	n/a	n/a
n/a	"image-keyboard-response"	"185"	"9743542"	"0.0-6.0-2.0-1.0"	"7tel72"	"600"	"1366"	"chrome"	"110.0.0"	"FALSE"	"Windows 10"	"60.7"	"040"	n/a	n/a	n/a	n/a	n/a	n/a	"Trial"	n/a	n/a	n/a	"938"	"arrowleft"	n/a	"NULL"	"NULL"	"NULL"	"stimuli/VerticalHorizontal_11.78571_0.06730.png"	n/a	"VerticalHorizontal"	"arrowleft"	"1636"	"TRUE"	"VerticalHorizontal"	"11.785710000"	"0.0673000000"	"2"	"1"
n/a	"html-keyboard-response"	"186"	"9744558"	"0.0-6.0-2.0-0.1"	"7tel72"	"600"	"1366"	"chrome"	"110.0.0"	"FALSE"	"Windows 10"	"60.7"	"040"	n/a	n/a	n/a	n/a	n/a	n/a	"fixation"	n/a	n/a	n/a	n/a	"NULL"	n/a	"NULL"	"NULL"	"NULL"	"<p style=\"color: black; font-size: 80px; padding-left: 17%; padding-right: 40%; padding-top: 47%; padding-bottom: 42%\">+</p>"	"1009"	n/a	n/a	n/a	n/a	n/a	n/a	n/a	n/a	n/a
n/a	"image-keyboard-response"	"187"	"9745412"	"0.0-6.0-2.0-1.1"	"7tel72"	"600"	"1366"	"chrome"	"110.0.0"	"FALSE"	"Windows 10"	"60.7"	"040"	n/a	n/a	n/a	n/a	n/a	n/a	"Trial"	n/a	n/a	n/a	"853"	"arrowleft"	n/a	"NULL"	"NULL"	"NULL"	"stimuli/VerticalHorizontal_28.75714_-0.1096.png"	n/a	"VerticalHorizontal"	"arrowright"	"1016"	"FALSE"	"VerticalHorizontal"	"28.757140000"	"-0.109600000"	"2"	"2"
n/a	"html-keyboard-response"	"188"	"9746558"	"0.0-6.0-2.0-0.2"	"7tel72"	"600"	"1366"	"chrome"	"110.0.0"	"FALSE"	"Windows 10"	"60.7"	"040"	n/a	n/a	n/a	n/a	n/a	n/a	"fixation"	n/a	n/a	n/a	n/a	"NULL"	n/a	"NULL"	"NULL"	"NULL"	"<p style=\"color: black; font-size: 80px; padding-left: 28%; padding-right: 44%; padding-top: 27%; padding-bottom: 15%\">+</p>"	"1133"	n/a	n/a	n/a	n/a	n/a	n/a	n/a	n/a	n/a
n/a	"image-keyboard-response"	"189"	"9747211"	"0.0-6.0-2.0-1.2"	"7tel72"	"600"	"1366"	"chrome"	"110.0.0"	"FALSE"	"Windows 10"	"60.7"	"040"	n/a	n/a	n/a	n/a	n/a	n/a	"Trial"	n/a	n/a	n/a	"653"	"arrowleft"	n/a	"NULL"	"NULL"	"NULL"	"stimuli/VerticalHorizontal_-11.78571_0.16217.png"	n/a	"VerticalHorizontal"	"arrowleft"	"1146"	"TRUE"	"VerticalHorizontal"	"-11.78571000"	"0.1621700000"	"2"	"3"
n/a	"html-keyboard-response"	"190"	"9748544"	"0.0-6.0-2.0-0.3"	"7tel72"	"600"	"1366"	"chrome"	"110.0.0"	"FALSE"	"Windows 10"	"60.7"	"040"	n/a	n/a	n/a	n/a	n/a	n/a	"fixation"	n/a	n/a	n/a	n/a	"NULL"	n/a	"NULL"	"NULL"	"NULL"	"<p style=\"color: black; font-size: 80px; padding-left: 39%; padding-right: 21%; padding-top: 20%; padding-bottom: 28%\">+</p>"	"1331"	n/a	n/a	n/a	n/a	n/a	n/a	n/a	n/a	n/a
n/a	"image-keyboard-response"	"191"	"9748957"	"0.0-6.0-2.0-1.3"	"7tel72"	"600"	"1366"	"chrome"	"110.0.0"	"FALSE"	"Windows 10"	"60.7"	"040"	n/a	n/a	n/a	n/a	n/a	n/a	"Trial"	n/a	n/a	n/a	"412"	"arrowright"	n/a	"NULL"	"NULL"	"NULL"	"stimuli/VerticalHorizontal_-20.27143_-0.16217.png"	n/a	"VerticalHorizontal"	"arrowright"	"1333"	"TRUE"	"VerticalHorizontal"	"-20.27143000"	"-0.162170000"	"2"	"4"
n/a	"html-keyboard-response"	"192"	"9750390"	"0.0-6.0-2.0-0.4"	"7tel72"	"600"	"1366"	"chrome"	"110.0.0"	"FALSE"	"Windows 10"	"60.7"	"040"	n/a	n/a	n/a	n/a	n/a	n/a	"fixation"	n/a	n/a	n/a	n/a	"NULL"	n/a	"NULL"	"NULL"	"NULL"	"<p style=\"color: black; font-size: 80px; padding-left: 25%; padding-right: 34%; padding-top: 19%; padding-bottom: 47%\">+</p>"	"1429"	n/a	n/a	n/a	n/a	n/a	n/a	n/a	n/a	n/a
n/a	"image-keyboard-response"	"193"	"9750806"	"0.0-6.0-2.0-1.4"	"7tel72"	"600"	"1366"	"chrome"	"110.0.0"	"FALSE"	"Windows 10"	"60.7"	"040"	n/a	n/a	n/a	n/a	n/a	n/a	"Trial"	n/a	n/a	n/a	"415"	"arrowright"	n/a	"NULL"	"NULL"	"NULL"	"stimuli/VerticalHorizontal_-20.27143_-0.0673.png"	n/a	"VerticalHorizontal"	"arrowright"	"1433"	"TRUE"	"VerticalHorizontal"	"-20.27143000"	"-0.067300000"	"2"	"5"
n/a	"html-keyboard-response"	"194"	"9751865"	"0.0-6.0-2.0-0.5"	"7tel72"	"600"	"1366"	"chrome"	"110.0.0"	"FALSE"	"Windows 10"	"60.7"	"040"	n/a	n/a	n/a	n/a	n/a	n/a	"fixation"	n/a	n/a	n/a	n/a	"NULL"	n/a	"NULL"	"NULL"	"NULL"	"<p style=\"color: black; font-size: 80px; padding-left: 37%; padding-right: 34%; padding-top: 30%; padding-bottom: 20%\">+</p>"	"1055"	n/a	n/a	n/a	n/a	n/a	n/a	n/a	n/a	n/a
n/a	"image-keyboard-response"	"195"	"9752425"	"0.0-6.0-2.0-1.5"	"7tel72"	"600"	"1366"	"chrome"	"110.0.0"	"FALSE"	"Windows 10"	"60.7"	"040"	n/a	n/a	n/a	n/a	n/a	n/a	"Trial"	n/a	n/a	n/a	"560"	"arrowleft"	n/a	"NULL"	"NULL"	"NULL"	"stimuli/VerticalHorizontal_3.30000_0.22500.png"	n/a	"VerticalHorizontal"	"arrowleft"	"1059"	"TRUE"	"VerticalHorizontal"	"3.3000000000"	"0.2250000000"	"2"	"6"
n/a	"html-keyboard-response"	"196"	"9753635"	"0.0-6.0-2.0-0.6"	"7tel72"	"600"	"1366"	"chrome"	"110.0.0"	"FALSE"	"Windows 10"	"60.7"	"040"	n/a	n/a	n/a	n/a	n/a	n/a	"fixation"	n/a	n/a	n/a	n/a	"NULL"	n/a	"NULL"	"NULL"	"NULL"	"<p style=\"color: black; font-size: 80px; padding-left: 37%; padding-right: 48%; padding-top: 24%; padding-bottom: 17%\">+</p>"	"1200"	n/a	n/a	n/a	n/a	n/a	n/a	n/a	n/a	n/a
n/a	"image-keyboard-response"	"197"	"9754154"	"0.0-6.0-2.0-1.6"	"7tel72"	"600"	"1366"	"chrome"	"110.0.0"	"FALSE"	"Windows 10"	"60.7"	"040"	n/a	n/a	n/a	n/a	n/a	n/a	"Trial"	n/a	n/a	n/a	"518"	"arrowright"	n/a	"NULL"	"NULL"	"NULL"	"stimuli/VerticalHorizontal_3.30000_-0.0673.png"	n/a	"VerticalHorizontal"	"arrowright"	"1210"	"TRUE"	"VerticalHorizontal"	"3.3000000000"	"-0.067300000"	"2"	"7"
n/a	"html-keyboard-response"	"198"	"9755622"	"0.0-6.0-2.0-0.7"	"7tel72"	"600"	"1366"	"chrome"	"110.0.0"	"FALSE"	"Windows 10"	"60.7"	"040"	n/a	n/a	n/a	n/a	n/a	n/a	"fixation"	n/a	n/a	n/a	n/a	"NULL"	n/a	"NULL"	"NULL"	"NULL"	"<p style=\"color: black; font-size: 80px; padding-left: 13%; padding-right: 32%; padding-top: 19%; padding-bottom: 38%\">+</p>"	"1452"	n/a	n/a	n/a	n/a	n/a	n/a	n/a	n/a	n/a
n/a	"image-keyboard-response"	"199"	"9756063"	"0.0-6.0-2.0-1.7"	"7tel72"	"600"	"1366"	"chrome"	"110.0.0"	"FALSE"	"Windows 10"	"60.7"	"040"	n/a	n/a	n/a	n/a	n/a	n/a	"Trial"	n/a	n/a	n/a	"441"	"arrowleft"	n/a	"NULL"	"NULL"	"NULL"	"stimuli/VerticalHorizontal_-20.27143_0.16217.png"	n/a	"VerticalHorizontal"	"arrowleft"	"1468"	"TRUE"	"VerticalHorizontal"	"-20.27143000"	"0.1621700000"	"2"	"8"
n/a	"html-keyboard-response"	"200"	"9757103"	"0.0-6.0-2.0-0.8"	"7tel72"	"600"	"1366"	"chrome"	"110.0.0"	"FALSE"	"Windows 10"	"60.7"	"040"	n/a	n/a	n/a	n/a	n/a	n/a	"fixation"	n/a	n/a	n/a	n/a	"NULL"	n/a	"NULL"	"NULL"	"NULL"	"<p style=\"color: black; font-size: 80px; padding-left: 24%; padding-right: 18%; padding-top: 3%; padding-bottom: 41%\">+</p>"	"1025"	n/a	n/a	n/a	n/a	n/a	n/a	n/a	n/a	n/a
n/a	"image-keyboard-response"	"201"	"9757574"	"0.0-6.0-2.0-1.8"	"7tel72"	"600"	"1366"	"chrome"	"110.0.0"	"FALSE"	"Windows 10"	"60.7"	"040"	n/a	n/a	n/a	n/a	n/a	n/a	"Trial"	n/a	n/a	n/a	"470"	"arrowright"	n/a	"NULL"	"NULL"	"NULL"	"stimuli/VerticalHorizontal_11.78571_-0.16217.png"	n/a	"VerticalHorizontal"	"arrowright"	"1040"	"TRUE"	"VerticalHorizontal"	"11.785710000"	"-0.162170000"	"2"	"9"
n/a	"html-keyboard-response"	"202"	"9758810"	"0.0-6.0-2.0-0.9"	"7tel72"	"600"	"1366"	"chrome"	"110.0.0"	"FALSE"	"Windows 10"	"60.7"	"040"	n/a	n/a	n/a	n/a	n/a	n/a	"fixation"	n/a	n/a	n/a	n/a	"NULL"	n/a	"NULL"	"NULL"	"NULL"	"<p style=\"color: black; font-size: 80px; padding-left: 35%; padding-right: 43%; padding-top: 9%; padding-bottom: 16%\">+</p>"	"1221"	n/a	n/a	n/a	n/a	n/a	n/a	n/a	n/a	n/a
n/a	"image-keyboard-response"	"203"	"9759207"	"0.0-6.0-2.0-1.9"	"7tel72"	"600"	"1366"	"chrome"	"110.0.0"	"FALSE"	"Windows 10"	"60.7"	"040"	n/a	n/a	n/a	n/a	n/a	n/a	"Trial"	n/a	n/a	n/a	"397"	"arrowright"	n/a	"NULL"	"NULL"	"NULL"	"stimuli/VerticalHorizontal_3.30000_-0.16217.png"	n/a	"VerticalHorizontal"	"arrowright"	"1236"	"TRUE"	"VerticalHorizontal"	"3.3000000000"	"-0.162170000"	"2"	"10"
n/a	"html-keyboard-response"	"204"	"9760243"	"0.0-6.0-2.0-0.10"	"7tel72"	"600"	"1366"	"chrome"	"110.0.0"	"FALSE"	"Windows 10"	"60.7"	"040"	n/a	n/a	n/a	n/a	n/a	n/a	"fixation"	n/a	n/a	n/a	n/a	"NULL"	n/a	"NULL"	"NULL"	"NULL"	"<p style=\"color: black; font-size: 80px; padding-left: 20%; padding-right: 39%; padding-top: 13%; padding-bottom: 44%\">+</p>"	"1030"	n/a	n/a	n/a	n/a	n/a	n/a	n/a	n/a	n/a
n/a	"image-keyboard-response"	"205"	"9760625"	"0.0-6.0-2.0-1.10"	"7tel72"	"600"	"1366"	"chrome"	"110.0.0"	"FALSE"	"Windows 10"	"60.7"	"040"	n/a	n/a	n/a	n/a	n/a	n/a	"Trial"	n/a	n/a	n/a	"381"	"arrowright"	n/a	"NULL"	"NULL"	"NULL"	"stimuli/VerticalHorizontal_3.30000_0.06730.png"	n/a	"VerticalHorizontal"	"arrowleft"	"1036"	"FALSE"	"VerticalHorizontal"	"3.3000000000"	"0.0673000000"	"2"	"11"
n/a	"html-keyboard-response"	"206"	"9761997"	"0.0-6.0-2.0-0.11"	"7tel72"	"600"	"1366"	"chrome"	"110.0.0"	"FALSE"	"Windows 10"	"60.7"	"040"	n/a	n/a	n/a	n/a	n/a	n/a	"fixation"	n/a	n/a	n/a	n/a	"NULL"	n/a	"NULL"	"NULL"	"NULL"	"<p style=\"color: black; font-size: 80px; padding-left: 13%; padding-right: 26%; padding-top: 25%; padding-bottom: 11%\">+</p>"	"1367"	n/a	n/a	n/a	n/a	n/a	n/a	n/a	n/a	n/a
n/a	"image-keyboard-response"	"207"	"9762523"	"0.0-6.0-2.0-1.11"	"7tel72"	"600"	"1366"	"chrome"	"110.0.0"	"FALSE"	"Windows 10"	"60.7"	"040"	n/a	n/a	n/a	n/a	n/a	n/a	"Trial"	n/a	n/a	n/a	"526"	"arrowleft"	n/a	"NULL"	"NULL"	"NULL"	"stimuli/VerticalHorizontal_-3.3000_0.16217.png"	n/a	"VerticalHorizontal"	"arrowleft"	"1372"	"TRUE"	"VerticalHorizontal"	"-3.300000000"	"0.1621700000"	"2"	"12"
n/a	"html-keyboard-response"	"208"	"9763559"	"0.0-6.0-2.0-0.12"	"7tel72"	"600"	"1366"	"chrome"	"110.0.0"	"FALSE"	"Windows 10"	"60.7"	"040"	n/a	n/a	n/a	n/a	n/a	n/a	"fixation"	n/a	n/a	n/a	n/a	"NULL"	n/a	"NULL"	"NULL"	"NULL"	"<p style=\"color: black; font-size: 80px; padding-left: 20%; padding-right: 18%; padding-top: 21%; padding-bottom: 3%\">+</p>"	"1023"	n/a	n/a	n/a	n/a	n/a	n/a	n/a	n/a	n/a
n/a	"image-keyboard-response"	"209"	"9764643"	"0.0-6.0-2.0-1.12"	"7tel72"	"600"	"1366"	"chrome"	"110.0.0"	"FALSE"	"Windows 10"	"60.7"	"040"	n/a	n/a	n/a	n/a	n/a	n/a	"Trial"	n/a	n/a	n/a	"1084"	"arrowright"	n/a	"NULL"	"NULL"	"NULL"	"stimuli/VerticalHorizontal_28.75714_0.22500.png"	n/a	"VerticalHorizontal"	"arrowleft"	"1036"	"FALSE"	"VerticalHorizontal"	"28.757140000"	"0.2250000000"	"2"	"13"
n/a	"html-keyboard-response"	"210"	"9766150"	"0.0-6.0-2.0-0.13"	"7tel72"	"600"	"1366"	"chrome"	"110.0.0"	"FALSE"	"Windows 10"	"60.7"	"040"	n/a	n/a	n/a	n/a	n/a	n/a	"fixation"	n/a	n/a	n/a	n/a	"NULL"	n/a	"NULL"	"NULL"	"NULL"	"<p style=\"color: black; font-size: 80px; padding-left: 19%; padding-right: 50%; padding-top: 49%; padding-bottom: 23%\">+</p>"	"1497"	n/a	n/a	n/a	n/a	n/a	n/a	n/a	n/a	n/a
n/a	"image-keyboard-response"	"211"	"9766731"	"0.0-6.0-2.0-1.13"	"7tel72"	"600"	"1366"	"chrome"	"110.0.0"	"FALSE"	"Windows 10"	"60.7"	"040"	n/a	n/a	n/a	n/a	n/a	n/a	"Trial"	n/a	n/a	n/a	"580"	"arrowright"	n/a	"NULL"	"NULL"	"NULL"	"stimuli/VerticalHorizontal_-20.27143_-0.1096.png"	n/a	"VerticalHorizontal"	"arrowright"	"1507"	"TRUE"	"VerticalHorizontal"	"-20.27143000"	"-0.109600000"	"2"	"14"
n/a	"html-keyboard-response"	"212"	"9767763"	"0.0-6.0-2.0-0.14"	"7tel72"	"600"	"1366"	"chrome"	"110.0.0"	"FALSE"	"Windows 10"	"60.7"	"040"	n/a	n/a	n/a	n/a	n/a	n/a	"fixation"	n/a	n/a	n/a	n/a	"NULL"	n/a	"NULL"	"NULL"	"NULL"	"<p style=\"color: black; font-size: 80px; padding-left: 25%; padding-right: 2%; padding-top: 25%; padding-bottom: 34%\">+</p>"	"1029"	n/a	n/a	n/a	n/a	n/a	n/a	n/a	n/a	n/a
n/a	"image-keyboard-response"	"213"	"9768656"	"0.0-6.0-2.0-1.14"	"7tel72"	"600"	"1366"	"chrome"	"110.0.0"	"FALSE"	"Windows 10"	"60.7"	"040"	n/a	n/a	n/a	n/a	n/a	n/a	"Trial"	n/a	n/a	n/a	"892"	"arrowright"	n/a	"NULL"	"NULL"	"NULL"	"stimuli/VerticalHorizontal_-3.3000_-0.16217.png"	n/a	"VerticalHorizontal"	"arrowright"	"1032"	"TRUE"	"VerticalHorizontal"	"-3.300000000"	"-0.162170000"	"2"	"15"
n/a	"html-keyboard-response"	"214"	"9769769"	"0.0-6.0-2.0-0.15"	"7tel72"	"600"	"1366"	"chrome"	"110.0.0"	"FALSE"	"Windows 10"	"60.7"	"040"	n/a	n/a	n/a	n/a	n/a	n/a	"fixation"	n/a	n/a	n/a	n/a	"NULL"	n/a	"NULL"	"NULL"	"NULL"	"<p style=\"color: black; font-size: 80px; padding-left: 47%; padding-right: 38%; padding-top: 21%; padding-bottom: 36%\">+</p>"	"1102"	n/a	n/a	n/a	n/a	n/a	n/a	n/a	n/a	n/a
n/a	"image-keyboard-response"	"215"	"9770429"	"0.0-6.0-2.0-1.15"	"7tel72"	"600"	"1366"	"chrome"	"110.0.0"	"FALSE"	"Windows 10"	"60.7"	"040"	n/a	n/a	n/a	n/a	n/a	n/a	"Trial"	n/a	n/a	n/a	"659"	"arrowright"	n/a	"NULL"	"NULL"	"NULL"	"stimuli/VerticalHorizontal_28.75714_-0.2250.png"	n/a	"VerticalHorizontal"	"arrowright"	"1113"	"TRUE"	"VerticalHorizontal"	"28.757140000"	"-0.225000000"	"2"	"16"
n/a	"html-keyboard-response"	"216"	"9771512"	"0.0-6.0-2.0-0.16"	"7tel72"	"600"	"1366"	"chrome"	"110.0.0"	"FALSE"	"Windows 10"	"60.7"	"040"	n/a	n/a	n/a	n/a	n/a	n/a	"fixation"	n/a	n/a	n/a	n/a	"NULL"	n/a	"NULL"	"NULL"	"NULL"	"<p style=\"color: black; font-size: 80px; padding-left: 17%; padding-right: 18%; padding-top: 27%; padding-bottom: 35%\">+</p>"	"1068"	n/a	n/a	n/a	n/a	n/a	n/a	n/a	n/a	n/a
n/a	"image-keyboard-response"	"217"	"9772099"	"0.0-6.0-2.0-1.16"	"7tel72"	"600"	"1366"	"chrome"	"110.0.0"	"FALSE"	"Windows 10"	"60.7"	"040"	n/a	n/a	n/a	n/a	n/a	n/a	"Trial"	n/a	n/a	n/a	"586"	"arrowleft"	n/a	"NULL"	"NULL"	"NULL"	"stimuli/VerticalHorizontal_11.78571_0.22500.png"	n/a	"VerticalHorizontal"	"arrowleft"	"1083"	"TRUE"	"VerticalHorizontal"	"11.785710000"	"0.2250000000"	"2"	"17"
n/a	"html-keyboard-response"	"218"	"9773215"	"0.0-6.0-2.0-0.17"	"7tel72"	"600"	"1366"	"chrome"	"110.0.0"	"FALSE"	"Windows 10"	"60.7"	"040"	n/a	n/a	n/a	n/a	n/a	n/a	"fixation"	n/a	n/a	n/a	n/a	"NULL"	n/a	"NULL"	"NULL"	"NULL"	"<p style=\"color: black; font-size: 80px; padding-left: 13%; padding-right: 49%; padding-top: 45%; padding-bottom: 38%\">+</p>"	"1105"	n/a	n/a	n/a	n/a	n/a	n/a	n/a	n/a	n/a
n/a	"image-keyboard-response"	"219"	"9774056"	"0.0-6.0-2.0-1.17"	"7tel72"	"600"	"1366"	"chrome"	"110.0.0"	"FALSE"	"Windows 10"	"60.7"	"040"	n/a	n/a	n/a	n/a	n/a	n/a	"Trial"	n/a	n/a	n/a	"840"	"arrowleft"	n/a	"NULL"	"NULL"	"NULL"	"stimuli/VerticalHorizontal_28.75714_0.10960.png"	n/a	"VerticalHorizontal"	"arrowleft"	"1116"	"TRUE"	"VerticalHorizontal"	"28.757140000"	"0.1096000000"	"2"	"18"
n/a	"html-keyboard-response"	"220"	"9775238"	"0.0-6.0-2.0-0.18"	"7tel72"	"600"	"1366"	"chrome"	"110.0.0"	"FALSE"	"Windows 10"	"60.7"	"040"	n/a	n/a	n/a	n/a	n/a	n/a	"fixation"	n/a	n/a	n/a	n/a	"NULL"	n/a	"NULL"	"NULL"	"NULL"	"<p style=\"color: black; font-size: 80px; padding-left: 30%; padding-right: 17%; padding-top: 32%; padding-bottom: 21%\">+</p>"	"1174"	n/a	n/a	n/a	n/a	n/a	n/a	n/a	n/a	n/a
n/a	"image-keyboard-response"	"221"	"9776191"	"0.0-6.0-2.0-1.18"	"7tel72"	"600"	"1366"	"chrome"	"110.0.0"	"FALSE"	"Windows 10"	"60.7"	"040"	n/a	n/a	n/a	n/a	n/a	n/a	"Trial"	n/a	n/a	n/a	"952"	"arrowleft"	n/a	"NULL"	"NULL"	"NULL"	"stimuli/VerticalHorizontal_-20.27143_0.06730.png"	n/a	"VerticalHorizontal"	"arrowleft"	"1182"	"TRUE"	"VerticalHorizontal"	"-20.27143000"	"0.0673000000"	"2"	"19"
n/a	"html-keyboard-response"	"222"	"9777490"	"0.0-6.0-2.0-0.19"	"7tel72"	"600"	"1366"	"chrome"	"110.0.0"	"FALSE"	"Windows 10"	"60.7"	"040"	n/a	n/a	n/a	n/a	n/a	n/a	"fixation"	n/a	n/a	n/a	n/a	"NULL"	n/a	"NULL"	"NULL"	"NULL"	"<p style=\"color: black; font-size: 80px; padding-left: 46%; padding-right: 40%; padding-top: 22%; padding-bottom: 37%\">+</p>"	"1295"	n/a	n/a	n/a	n/a	n/a	n/a	n/a	n/a	n/a
n/a	"image-keyboard-response"	"223"	"9778037"	"0.0-6.0-2.0-1.19"	"7tel72"	"600"	"1366"	"chrome"	"110.0.0"	"FALSE"	"Windows 10"	"60.7"	"040"	n/a	n/a	n/a	n/a	n/a	n/a	"Trial"	n/a	n/a	n/a	"547"	"arrowright"	n/a	"NULL"	"NULL"	"NULL"	"stimuli/VerticalHorizontal_-28.75714_-0.2250.png"	n/a	"VerticalHorizontal"	"arrowright"	"1299"	"TRUE"	"VerticalHorizontal"	"-28.75714000"	"-0.225000000"	"2"	"20"
n/a	"html-keyboard-response"	"224"	"9779072"	"0.0-6.0-2.0-0.20"	"7tel72"	"600"	"1366"	"chrome"	"110.0.0"	"FALSE"	"Windows 10"	"60.7"	"040"	n/a	n/a	n/a	n/a	n/a	n/a	"fixation"	n/a	n/a	n/a	n/a	"NULL"	n/a	"NULL"	"NULL"	"NULL"	"<p style=\"color: black; font-size: 80px; padding-left: 29%; padding-right: 42%; padding-top: 15%; padding-bottom: 5%\">+</p>"	"1030"	n/a	n/a	n/a	n/a	n/a	n/a	n/a	n/a	n/a
n/a	"image-keyboard-response"	"225"	"9779597"	"0.0-6.0-2.0-1.20"	"7tel72"	"600"	"1366"	"chrome"	"110.0.0"	"FALSE"	"Windows 10"	"60.7"	"040"	n/a	n/a	n/a	n/a	n/a	n/a	"Trial"	n/a	n/a	n/a	"524"	"arrowleft"	n/a	"NULL"	"NULL"	"NULL"	"stimuli/VerticalHorizontal_20.27143_0.16217.png"	n/a	"VerticalHorizontal"	"arrowleft"	"1035"	"TRUE"	"VerticalHorizontal"	"20.271430000"	"0.1621700000"	"2"	"21"
n/a	"html-keyboard-response"	"226"	"9781045"	"0.0-6.0-2.0-0.21"	"7tel72"	"600"	"1366"	"chrome"	"110.0.0"	"FALSE"	"Windows 10"	"60.7"	"040"	n/a	n/a	n/a	n/a	n/a	n/a	"fixation"	n/a	n/a	n/a	n/a	"NULL"	n/a	"NULL"	"NULL"	"NULL"	"<p style=\"color: black; font-size: 80px; padding-left: 11%; padding-right: 42%; padding-top: 17%; padding-bottom: 5%\">+</p>"	"1436"	n/a	n/a	n/a	n/a	n/a	n/a	n/a	n/a	n/a
n/a	"image-keyboard-response"	"227"	"9781661"	"0.0-6.0-2.0-1.21"	"7tel72"	"600"	"1366"	"chrome"	"110.0.0"	"FALSE"	"Windows 10"	"60.7"	"040"	n/a	n/a	n/a	n/a	n/a	n/a	"Trial"	n/a	n/a	n/a	"615"	"arrowleft"	n/a	"NULL"	"NULL"	"NULL"	"stimuli/VerticalHorizontal_-11.78571_0.06730.png"	n/a	"VerticalHorizontal"	"arrowleft"	"1448"	"TRUE"	"VerticalHorizontal"	"-11.78571000"	"0.0673000000"	"2"	"22"
n/a	"html-keyboard-response"	"228"	"9783022"	"0.0-6.0-2.0-0.22"	"7tel72"	"600"	"1366"	"chrome"	"110.0.0"	"FALSE"	"Windows 10"	"60.7"	"040"	n/a	n/a	n/a	n/a	n/a	n/a	"fixation"	n/a	n/a	n/a	n/a	"NULL"	n/a	"NULL"	"NULL"	"NULL"	"<p style=\"color: black; font-size: 80px; padding-left: 45%; padding-right: 24%; padding-top: 38%; padding-bottom: 16%\">+</p>"	"1348"	n/a	n/a	n/a	n/a	n/a	n/a	n/a	n/a	n/a
n/a	"image-keyboard-response"	"229"	"9784036"	"0.0-6.0-2.0-1.22"	"7tel72"	"600"	"1366"	"chrome"	"110.0.0"	"FALSE"	"Windows 10"	"60.7"	"040"	n/a	n/a	n/a	n/a	n/a	n/a	"Trial"	n/a	n/a	n/a	"1013"	"arrowleft"	n/a	"NULL"	"NULL"	"NULL"	"stimuli/VerticalHorizontal_28.75714_0.16217.png"	n/a	"VerticalHorizontal"	"arrowleft"	"1361"	"TRUE"	"VerticalHorizontal"	"28.757140000"	"0.1621700000"	"2"	"23"
n/a	"html-keyboard-response"	"230"	"9785350"	"0.0-6.0-2.0-0.23"	"7tel72"	"600"	"1366"	"chrome"	"110.0.0"	"FALSE"	"Windows 10"	"60.7"	"040"	n/a	n/a	n/a	n/a	n/a	n/a	"fixation"	n/a	n/a	n/a	n/a	"NULL"	n/a	"NULL"	"NULL"	"NULL"	"<p style=\"color: black; font-size: 80px; padding-left: 47%; padding-right: 35%; padding-top: 34%; padding-bottom: 31%\">+</p>"	"1311"	n/a	n/a	n/a	n/a	n/a	n/a	n/a	n/a	n/a
n/a	"image-keyboard-response"	"231"	"9786542"	"0.0-6.0-2.0-1.23"	"7tel72"	"600"	"1366"	"chrome"	"110.0.0"	"FALSE"	"Windows 10"	"60.7"	"040"	n/a	n/a	n/a	n/a	n/a	n/a	"Trial"	n/a	n/a	n/a	"1192"	"arrowleft"	n/a	"NULL"	"NULL"	"NULL"	"stimuli/VerticalHorizontal_-3.3000_0.10960.png"	n/a	"VerticalHorizontal"	"arrowleft"	"1314"	"TRUE"	"VerticalHorizontal"	"-3.300000000"	"0.1096000000"	"2"	"24"
n/a	"html-keyboard-response"	"232"	"9787758"	"0.0-6.0-2.0-0.24"	"7tel72"	"600"	"1366"	"chrome"	"110.0.0"	"FALSE"	"Windows 10"	"60.7"	"040"	n/a	n/a	n/a	n/a	n/a	n/a	"fixation"	n/a	n/a	n/a	n/a	"NULL"	n/a	"NULL"	"NULL"	"NULL"	"<p style=\"color: black; font-size: 80px; padding-left: 45%; padding-right: 11%; padding-top: 23%; padding-bottom: 13%\">+</p>"	"1211"	n/a	n/a	n/a	n/a	n/a	n/a	n/a	n/a	n/a
n/a	"image-keyboard-response"	"233"	"9788292"	"0.0-6.0-2.0-1.24"	"7tel72"	"600"	"1366"	"chrome"	"110.0.0"	"FALSE"	"Windows 10"	"60.7"	"040"	n/a	n/a	n/a	n/a	n/a	n/a	"Trial"	n/a	n/a	n/a	"533"	"arrowright"	n/a	"NULL"	"NULL"	"NULL"	"stimuli/VerticalHorizontal_-28.75714_-0.0673.png"	n/a	"VerticalHorizontal"	"arrowright"	"1216"	"TRUE"	"VerticalHorizontal"	"-28.75714000"	"-0.067300000"	"2"	"25"
n/a	"html-keyboard-response"	"234"	"9789504"	"0.0-6.0-2.0-0.25"	"7tel72"	"600"	"1366"	"chrome"	"110.0.0"	"FALSE"	"Windows 10"	"60.7"	"040"	n/a	n/a	n/a	n/a	n/a	n/a	"fixation"	n/a	n/a	n/a	n/a	"NULL"	n/a	"NULL"	"NULL"	"NULL"	"<p style=\"color: black; font-size: 80px; padding-left: 5%; padding-right: 16%; padding-top: 19%; padding-bottom: 44%\">+</p>"	"1206"	n/a	n/a	n/a	n/a	n/a	n/a	n/a	n/a	n/a
n/a	"image-keyboard-response"	"235"	"9790004"	"0.0-6.0-2.0-1.25"	"7tel72"	"600"	"1366"	"chrome"	"110.0.0"	"FALSE"	"Windows 10"	"60.7"	"040"	n/a	n/a	n/a	n/a	n/a	n/a	"Trial"	n/a	n/a	n/a	"499"	"arrowright"	n/a	"NULL"	"NULL"	"NULL"	"stimuli/VerticalHorizontal_3.30000_-0.2250.png"	n/a	"VerticalHorizontal"	"arrowright"	"1212"	"TRUE"	"VerticalHorizontal"	"3.3000000000"	"-0.225000000"	"2"	"26"
n/a	"html-keyboard-response"	"236"	"9791357"	"0.0-6.0-2.0-0.26"	"7tel72"	"600"	"1366"	"chrome"	"110.0.0"	"FALSE"	"Windows 10"	"60.7"	"040"	n/a	n/a	n/a	n/a	n/a	n/a	"fixation"	n/a	n/a	n/a	n/a	"NULL"	n/a	"NULL"	"NULL"	"NULL"	"<p style=\"color: black; font-size: 80px; padding-left: 14%; padding-right: 31%; padding-top: 22%; padding-bottom: 23%\">+</p>"	"1345"	n/a	n/a	n/a	n/a	n/a	n/a	n/a	n/a	n/a
n/a	"image-keyboard-response"	"237"	"9791842"	"0.0-6.0-2.0-1.26"	"7tel72"	"600"	"1366"	"chrome"	"110.0.0"	"FALSE"	"Windows 10"	"60.7"	"040"	n/a	n/a	n/a	n/a	n/a	n/a	"Trial"	n/a	n/a	n/a	"483"	"arrowleft"	n/a	"NULL"	"NULL"	"NULL"	"stimuli/VerticalHorizontal_-20.27143_0.22500.png"	n/a	"VerticalHorizontal"	"arrowleft"	"1353"	"TRUE"	"VerticalHorizontal"	"-20.27143000"	"0.2250000000"	"2"	"27"
n/a	"html-keyboard-response"	"238"	"9793342"	"0.0-6.0-2.0-0.27"	"7tel72"	"600"	"1366"	"chrome"	"110.0.0"	"FALSE"	"Windows 10"	"60.7"	"040"	n/a	n/a	n/a	n/a	n/a	n/a	"fixation"	n/a	n/a	n/a	n/a	"NULL"	n/a	"NULL"	"NULL"	"NULL"	"<p style=\"color: black; font-size: 80px; padding-left: 7%; padding-right: 18%; padding-top: 31%; padding-bottom: 8%\">+</p>"	"1490"	n/a	n/a	n/a	n/a	n/a	n/a	n/a	n/a	n/a
n/a	"image-keyboard-response"	"239"	"9793776"	"0.0-6.0-2.0-1.27"	"7tel72"	"600"	"1366"	"chrome"	"110.0.0"	"FALSE"	"Windows 10"	"60.7"	"040"	n/a	n/a	n/a	n/a	n/a	n/a	"Trial"	n/a	n/a	n/a	"434"	"arrowright"	n/a	"NULL"	"NULL"	"NULL"	"stimuli/VerticalHorizontal_20.27143_0.22500.png"	n/a	"VerticalHorizontal"	"arrowleft"	"1500"	"FALSE"	"VerticalHorizontal"	"20.271430000"	"0.2250000000"	"2"	"28"
n/a	"html-keyboard-response"	"240"	"9794788"	"0.0-6.0-2.0-0.28"	"7tel72"	"600"	"1366"	"chrome"	"110.0.0"	"FALSE"	"Windows 10"	"60.7"	"040"	n/a	n/a	n/a	n/a	n/a	n/a	"fixation"	n/a	n/a	n/a	n/a	"NULL"	n/a	"NULL"	"NULL"	"NULL"	"<p style=\"color: black; font-size: 80px; padding-left: 4%; padding-right: 20%; padding-top: 1%; padding-bottom: 15%\">+</p>"	"1005"	n/a	n/a	n/a	n/a	n/a	n/a	n/a	n/a	n/a
n/a	"image-keyboard-response"	"241"	"9795596"	"0.0-6.0-2.0-1.28"	"7tel72"	"600"	"1366"	"chrome"	"110.0.0"	"FALSE"	"Windows 10"	"60.7"	"040"	n/a	n/a	n/a	n/a	n/a	n/a	"Trial"	n/a	n/a	n/a	"807"	"arrowleft"	n/a	"NULL"	"NULL"	"NULL"	"stimuli/VerticalHorizontal_3.30000_0.16217.png"	n/a	"VerticalHorizontal"	"arrowleft"	"1012"	"TRUE"	"VerticalHorizontal"	"3.3000000000"	"0.1621700000"	"2"	"29"
n/a	"html-keyboard-response"	"242"	"9796699"	"0.0-6.0-2.0-0.29"	"7tel72"	"600"	"1366"	"chrome"	"110.0.0"	"FALSE"	"Windows 10"	"60.7"	"040"	n/a	n/a	n/a	n/a	n/a	n/a	"fixation"	n/a	n/a	n/a	n/a	"NULL"	n/a	"NULL"	"NULL"	"NULL"	"<p style=\"color: black; font-size: 80px; padding-left: 37%; padding-right: 43%; padding-top: 4%; padding-bottom: 26%\">+</p>"	"1088"	n/a	n/a	n/a	n/a	n/a	n/a	n/a	n/a	n/a
n/a	"image-keyboard-response"	"243"	"9797180"	"0.0-6.0-2.0-1.29"	"7tel72"	"600"	"1366"	"chrome"	"110.0.0"	"FALSE"	"Windows 10"	"60.7"	"040"	n/a	n/a	n/a	n/a	n/a	n/a	"Trial"	n/a	n/a	n/a	"480"	"arrowright"	n/a	"NULL"	"NULL"	"NULL"	"stimuli/VerticalHorizontal_28.75714_0.06730.png"	n/a	"VerticalHorizontal"	"arrowleft"	"1103"	"FALSE"	"VerticalHorizontal"	"28.757140000"	"0.0673000000"	"2"	"30"
n/a	"html-keyboard-response"	"244"	"9798547"	"0.0-6.0-2.0-0.30"	"7tel72"	"600"	"1366"	"chrome"	"110.0.0"	"FALSE"	"Windows 10"	"60.7"	"040"	n/a	n/a	n/a	n/a	n/a	n/a	"fixation"	n/a	n/a	n/a	n/a	"NULL"	n/a	"NULL"	"NULL"	"NULL"	"<p style=\"color: black; font-size: 80px; padding-left: 48%; padding-right: 26%; padding-top: 13%; padding-bottom: 19%\">+</p>"	"1365"	n/a	n/a	n/a	n/a	n/a	n/a	n/a	n/a	n/a
n/a	"image-keyboard-response"	"245"	"9798975"	"0.0-6.0-2.0-1.30"	"7tel72"	"600"	"1366"	"chrome"	"110.0.0"	"FALSE"	"Windows 10"	"60.7"	"040"	n/a	n/a	n/a	n/a	n/a	n/a	"Trial"	n/a	n/a	n/a	"427"	"arrowright"	n/a	"NULL"	"NULL"	"NULL"	"stimuli/VerticalHorizontal_-11.78571_-0.2250.png"	n/a	"VerticalHorizontal"	"arrowright"	"1367"	"TRUE"	"VerticalHorizontal"	"-11.78571000"	"-0.225000000"	"2"	"31"
n/a	"html-keyboard-response"	"246"	"9800459"	"0.0-6.0-2.0-0.31"	"7tel72"	"600"	"1366"	"chrome"	"110.0.0"	"FALSE"	"Windows 10"	"60.7"	"040"	n/a	n/a	n/a	n/a	n/a	n/a	"fixation"	n/a	n/a	n/a	n/a	"NULL"	n/a	"NULL"	"NULL"	"NULL"	"<p style=\"color: black; font-size: 80px; padding-left: 22%; padding-right: 30%; padding-top: 28%; padding-bottom: 24%\">+</p>"	"1473"	n/a	n/a	n/a	n/a	n/a	n/a	n/a	n/a	n/a
n/a	"image-keyboard-response"	"247"	"9801220"	"0.0-6.0-2.0-1.31"	"7tel72"	"600"	"1366"	"chrome"	"110.0.0"	"FALSE"	"Windows 10"	"60.7"	"040"	n/a	n/a	n/a	n/a	n/a	n/a	"Trial"	n/a	n/a	n/a	"760"	"arrowleft"	n/a	"NULL"	"NULL"	"NULL"	"stimuli/VerticalHorizontal_20.27143_0.10960.png"	n/a	"VerticalHorizontal"	"arrowleft"	"1484"	"TRUE"	"VerticalHorizontal"	"20.271430000"	"0.1096000000"	"2"	"32"
n/a	"html-keyboard-response"	"248"	"9802230"	"0.0-6.0-2.0-0.32"	"7tel72"	"600"	"1366"	"chrome"	"110.0.0"	"FALSE"	"Windows 10"	"60.7"	"040"	n/a	n/a	n/a	n/a	n/a	n/a	"fixation"	n/a	n/a	n/a	n/a	"NULL"	n/a	"NULL"	"NULL"	"NULL"	"<p style=\"color: black; font-size: 80px; padding-left: 4%; padding-right: 31%; padding-top: 7%; padding-bottom: 47%\">+</p>"	"1003"	n/a	n/a	n/a	n/a	n/a	n/a	n/a	n/a	n/a
n/a	"image-keyboard-response"	"249"	"9802738"	"0.0-6.0-2.0-1.32"	"7tel72"	"600"	"1366"	"chrome"	"110.0.0"	"FALSE"	"Windows 10"	"60.7"	"040"	n/a	n/a	n/a	n/a	n/a	n/a	"Trial"	n/a	n/a	n/a	"508"	"arrowleft"	n/a	"NULL"	"NULL"	"NULL"	"stimuli/VerticalHorizontal_-11.78571_0.22500.png"	n/a	"VerticalHorizontal"	"arrowleft"	"1010"	"TRUE"	"VerticalHorizontal"	"-11.78571000"	"0.2250000000"	"2"	"33"
n/a	"html-keyboard-response"	"250"	"9803909"	"0.0-6.0-2.0-0.33"	"7tel72"	"600"	"1366"	"chrome"	"110.0.0"	"FALSE"	"Windows 10"	"60.7"	"040"	n/a	n/a	n/a	n/a	n/a	n/a	"fixation"	n/a	n/a	n/a	n/a	"NULL"	n/a	"NULL"	"NULL"	"NULL"	"<p style=\"color: black; font-size: 80px; padding-left: 16%; padding-right: 44%; padding-top: 28%; padding-bottom: 34%\">+</p>"	"1162"	n/a	n/a	n/a	n/a	n/a	n/a	n/a	n/a	n/a
