"success"	"trial_type"	"trial_index"	"time_elapsed"	"internal_node_id"	"participant_id"	"screen_height"	"screen_width"	"browser"	"browser_version"	"mobile"	"os"	"vsync_rate"	"width"	"height"	"webaudio"	"fullscreen"	"webcam"	"microphone"	"screen"	"version"	"date"	"time"	"timeout"	"failed_images"	"failed_audio"	"failed_video"	"rt"	"stimulus"	"response"	"trial_duration"	"block"	"correct_response"	"prestimulus_duration"	"correct"	"type"	"illusion_strength"	"illusion_difference"	"block_number"	"trial_number"
"TRUE"	"fullscreen"	"0"	"2400"	"0.0-0.0"	"qh07hl"	"600"	"1366"	"chrome"	"108.0.0"	"FALSE"	"Windows 10"	"60.56"	n/a	n/a	n/a	n/a	n/a	n/a	n/a	n/a	n/a	n/a	n/a	"NULL"	"NULL"	"NULL"	n/a	n/a	n/a	n/a	n/a	n/a	n/a	n/a	n/a	n/a	n/a	n/a	n/a
n/a	"browser-check"	"1"	"3410"	"0.0-1.0"	"qh07hl"	"600"	"1366"	"chrome"	"108.0.0"	"FALSE"	"Windows 10"	"60.56"	"1366"	"600"	"TRUE"	"TRUE"	"TRUE"	"TRUE"	"browser_info"	"1.0"	"22/12/2022"	"10:45:07"	n/a	"NULL"	"NULL"	"NULL"	n/a	n/a	n/a	n/a	n/a	n/a	n/a	n/a	n/a	n/a	n/a	n/a	n/a
"TRUE"	"preload"	"2"	"3420"	"0.0-2.0"	"qh07hl"	"600"	"1366"	"chrome"	"108.0.0"	"FALSE"	"Windows 10"	"60.56"	n/a	n/a	n/a	n/a	n/a	n/a	n/a	n/a	n/a	n/a	"FALSE"	"list()"	"list()"	"list()"	n/a	n/a	n/a	n/a	n/a	n/a	n/a	n/a	n/a	n/a	n/a	n/a	n/a
n/a	"html-button-response"	"3"	"15048"	"0.0-3.0-0.0"	"qh07hl"	"600"	"1366"	"chrome"	"108.0.0"	"FALSE"	"Windows 10"	"60.56"	n/a	n/a	n/a	n/a	n/a	n/a	"illusion_instructions"	n/a	n/a	n/a	n/a	"NULL"	"NULL"	"NULL"	"11627"	"<p><b>Illusion Game</b></p><p>In this game of speed and reflex, you will need to make <b>visual judgments</b> (for instance, which circle is the biggest, or which line is the longest), as fast and as correctly as possible, while <b>resisting different visual illusions</b>.</p><p>We are going to start with some examples of all the illusions you will encounter in the game.</p>"	"0"	n/a	n/a	n/a	n/a	n/a	n/a	n/a	n/a	n/a	n/a
"TRUE"	"preload"	"4"	"15056"	"0.0-3.0-1.0-0.0"	"qh07hl"	"600"	"1366"	"chrome"	"108.0.0"	"FALSE"	"Windows 10"	"60.56"	n/a	n/a	n/a	n/a	n/a	n/a	n/a	n/a	n/a	n/a	"FALSE"	"list()"	"list()"	"list()"	n/a	n/a	n/a	n/a	n/a	n/a	n/a	n/a	n/a	n/a	n/a	n/a	n/a
n/a	"html-keyboard-response"	"5"	"23645"	"0.0-3.0-1.0-1.0"	"qh07hl"	"600"	"1366"	"chrome"	"108.0.0"	"FALSE"	"Windows 10"	"60.56"	n/a	n/a	n/a	n/a	n/a	n/a	n/a	n/a	n/a	n/a	n/a	"NULL"	"NULL"	"NULL"	"8587"	"<p><b>Practice</b></p><p>In this part, two red circles will appear side by side on the screen.</p><p>Your task is to select which <b>red circle is bigger</b> in size as fast as you can, without making errors.</p><p>Don't get distracted by the surrounding black circles around the red circles!</p><p>Press <b>the LEFT or the RIGHT arrow</b> to indicate which is the bigger <b>red circle.</b></p><div style='float: center'><img src='materials/instructions/Ebbinghaus_Demo.png' height='300'></img><p><img src='utils/answer/answer_leftright_keyboard.PNG' height='150'></img></p><p class='small'>In this example, the correct answer is the <b>LEFT arrow</b>.</p></div><p>Are you ready? <b>Press ENTER to start</b></p>"	"enter"	n/a	n/a	n/a	n/a	n/a	n/a	n/a	n/a	n/a	n/a
n/a	"html-keyboard-response"	"6"	"25184"	"0.0-3.0-1.0-2.0-0.0"	"qh07hl"	"600"	"1366"	"chrome"	"108.0.0"	"FALSE"	"Windows 10"	"60.56"	n/a	n/a	n/a	n/a	n/a	n/a	"fixation"	n/a	n/a	n/a	n/a	"NULL"	"NULL"	"NULL"	n/a	"<p style=\"color: black; font-size: 80px; padding-left: 23%; padding-right: 26%; padding-top: 45%; padding-bottom: 34%\">+</p>"	n/a	"1019"	n/a	n/a	n/a	n/a	n/a	n/a	n/a	n/a	n/a
n/a	"image-keyboard-response"	"7"	"25667"	"0.0-3.0-1.0-2.0-1.0"	"qh07hl"	"600"	"1366"	"chrome"	"108.0.0"	"FALSE"	"Windows 10"	"60.56"	n/a	n/a	n/a	n/a	n/a	n/a	"Trial"	n/a	n/a	n/a	n/a	"NULL"	"NULL"	"NULL"	"480"	"stimuli/Ebbinghaus_0000000_-1.4000.png"	"arrowright"	n/a	"Ebbinghaus"	"arrowright"	"1539"	"TRUE"	"Ebbinghaus"	"000000000000"	"-1.400000000"	"1"	"1"
n/a	"html-keyboard-response"	"8"	"26941"	"0.0-3.0-1.0-2.0-0.1"	"qh07hl"	"600"	"1366"	"chrome"	"108.0.0"	"FALSE"	"Windows 10"	"60.56"	n/a	n/a	n/a	n/a	n/a	n/a	"fixation"	n/a	n/a	n/a	n/a	"NULL"	"NULL"	"NULL"	n/a	"<p style=\"color: black; font-size: 80px; padding-left: 17%; padding-right: 46%; padding-top: 5%; padding-bottom: 44%\">+</p>"	n/a	"1262"	n/a	n/a	n/a	n/a	n/a	n/a	n/a	n/a	n/a
n/a	"image-keyboard-response"	"9"	"27244"	"0.0-3.0-1.0-2.0-1.1"	"qh07hl"	"600"	"1366"	"chrome"	"108.0.0"	"FALSE"	"Windows 10"	"60.56"	n/a	n/a	n/a	n/a	n/a	n/a	"Trial"	n/a	n/a	n/a	n/a	"NULL"	"NULL"	"NULL"	"302"	"stimuli/Ebbinghaus_-100000_-1.4000.png"	"arrowright"	n/a	"Ebbinghaus"	"arrowright"	"1274"	"TRUE"	"Ebbinghaus"	"-10000000000"	"-1.400000000"	"1"	"2"
n/a	"html-keyboard-response"	"10"	"28295"	"0.0-3.0-1.0-2.0-0.2"	"qh07hl"	"600"	"1366"	"chrome"	"108.0.0"	"FALSE"	"Windows 10"	"60.56"	n/a	n/a	n/a	n/a	n/a	n/a	"fixation"	n/a	n/a	n/a	n/a	"NULL"	"NULL"	"NULL"	n/a	"<p style=\"color: black; font-size: 80px; padding-left: 48%; padding-right: 46%; padding-top: 12%; padding-bottom: 36%\">+</p>"	n/a	"1040"	n/a	n/a	n/a	n/a	n/a	n/a	n/a	n/a	n/a
n/a	"image-keyboard-response"	"11"	"28715"	"0.0-3.0-1.0-2.0-1.2"	"qh07hl"	"600"	"1366"	"chrome"	"108.0.0"	"FALSE"	"Windows 10"	"60.56"	n/a	n/a	n/a	n/a	n/a	n/a	"Trial"	n/a	n/a	n/a	n/a	"NULL"	"NULL"	"NULL"	"420"	"stimuli/Ebbinghaus_-100000_1.40000.png"	"arrowleft"	n/a	"Ebbinghaus"	"arrowleft"	"1051"	"TRUE"	"Ebbinghaus"	"-10000000000"	"1.4000000000"	"1"	"3"
n/a	"html-keyboard-response"	"12"	"30157"	"0.0-3.0-1.0-2.0-0.3"	"qh07hl"	"600"	"1366"	"chrome"	"108.0.0"	"FALSE"	"Windows 10"	"60.56"	n/a	n/a	n/a	n/a	n/a	n/a	"fixation"	n/a	n/a	n/a	n/a	"NULL"	"NULL"	"NULL"	n/a	"<p style=\"color: black; font-size: 80px; padding-left: 18%; padding-right: 44%; padding-top: 45%; padding-bottom: 39%\">+</p>"	n/a	"1425"	n/a	n/a	n/a	n/a	n/a	n/a	n/a	n/a	n/a
n/a	"image-keyboard-response"	"13"	"30637"	"0.0-3.0-1.0-2.0-1.3"	"qh07hl"	"600"	"1366"	"chrome"	"108.0.0"	"FALSE"	"Windows 10"	"60.56"	n/a	n/a	n/a	n/a	n/a	n/a	"Trial"	n/a	n/a	n/a	n/a	"NULL"	"NULL"	"NULL"	"478"	"stimuli/Ebbinghaus_0000000_1.40000.png"	"arrowleft"	n/a	"Ebbinghaus"	"arrowleft"	"1442"	"TRUE"	"Ebbinghaus"	"000000000000"	"1.4000000000"	"1"	"4"
n/a	"html-keyboard-response"	"14"	"31878"	"0.0-3.0-1.0-2.0-0.4"	"qh07hl"	"600"	"1366"	"chrome"	"108.0.0"	"FALSE"	"Windows 10"	"60.56"	n/a	n/a	n/a	n/a	n/a	n/a	"fixation"	n/a	n/a	n/a	n/a	"NULL"	"NULL"	"NULL"	n/a	"<p style=\"color: black; font-size: 80px; padding-left: 46%; padding-right: 11%; padding-top: 23%; padding-bottom: 3%\">+</p>"	n/a	"1233"	n/a	n/a	n/a	n/a	n/a	n/a	n/a	n/a	n/a
n/a	"image-keyboard-response"	"15"	"32205"	"0.0-3.0-1.0-2.0-1.4"	"qh07hl"	"600"	"1366"	"chrome"	"108.0.0"	"FALSE"	"Windows 10"	"60.56"	n/a	n/a	n/a	n/a	n/a	n/a	"Trial"	n/a	n/a	n/a	n/a	"NULL"	"NULL"	"NULL"	"325"	"stimuli/Ebbinghaus_1000000_1.40000.png"	"arrowleft"	n/a	"Ebbinghaus"	"arrowleft"	"1241"	"TRUE"	"Ebbinghaus"	"100000000000"	"1.4000000000"	"1"	"5"
n/a	"html-keyboard-response"	"16"	"33623"	"0.0-3.0-1.0-2.0-0.5"	"qh07hl"	"600"	"1366"	"chrome"	"108.0.0"	"FALSE"	"Windows 10"	"60.56"	n/a	n/a	n/a	n/a	n/a	n/a	"fixation"	n/a	n/a	n/a	n/a	"NULL"	"NULL"	"NULL"	n/a	"<p style=\"color: black; font-size: 80px; padding-left: 22%; padding-right: 10%; padding-top: 3%; padding-bottom: 41%\">+</p>"	n/a	"1399"	n/a	n/a	n/a	n/a	n/a	n/a	n/a	n/a	n/a
n/a	"image-keyboard-response"	"17"	"33971"	"0.0-3.0-1.0-2.0-1.5"	"qh07hl"	"600"	"1366"	"chrome"	"108.0.0"	"FALSE"	"Windows 10"	"60.56"	n/a	n/a	n/a	n/a	n/a	n/a	"Trial"	n/a	n/a	n/a	n/a	"NULL"	"NULL"	"NULL"	"347"	"stimuli/Ebbinghaus_1000000_-1.4000.png"	"arrowright"	n/a	"Ebbinghaus"	"arrowright"	"1418"	"TRUE"	"Ebbinghaus"	"100000000000"	"-1.400000000"	"1"	"6"
n/a	"html-button-response"	"18"	"36162"	"0.0-3.0-1.0-3.0"	"qh07hl"	"600"	"1366"	"chrome"	"108.0.0"	"FALSE"	"Windows 10"	"60.56"	n/a	n/a	n/a	n/a	n/a	n/a	"practice_block_results"	n/a	n/a	n/a	n/a	"NULL"	"NULL"	"NULL"	"2188"	"<p style='color:rgb(76,175,80);'> Correct Responses: <b>100.00%</b></p><hr><p style='color:rgb(233,30,99);'> Average Response Time: <b>392.00</b> ms.</p>"	"0"	n/a	n/a	n/a	n/a	n/a	n/a	n/a	n/a	n/a	n/a
"TRUE"	"preload"	"19"	"36683"	"0.0-3.0-2.0-0.0"	"qh07hl"	"600"	"1366"	"chrome"	"108.0.0"	"FALSE"	"Windows 10"	"60.56"	n/a	n/a	n/a	n/a	n/a	n/a	n/a	n/a	n/a	n/a	"FALSE"	"list()"	"list()"	"list()"	n/a	n/a	n/a	n/a	n/a	n/a	n/a	n/a	n/a	n/a	n/a	n/a	n/a
n/a	"html-keyboard-response"	"20"	"40557"	"0.0-3.0-2.0-1.0"	"qh07hl"	"600"	"1366"	"chrome"	"108.0.0"	"FALSE"	"Windows 10"	"60.56"	n/a	n/a	n/a	n/a	n/a	n/a	n/a	n/a	n/a	n/a	n/a	"NULL"	"NULL"	"NULL"	"3872"	"<p><b>Practice</b></p><p>In this part, two horizontal red lines will appear one above the other.</p><p>Your task is to select which <b>line is longer</b> in length as fast as you can, without making errors.</p><p>Don't get distracted by the surrounding black arrows at the end of the red lines!</p><p>Press <b>the UP or the DOWN arrow</b> to indicate where is the longer <b>red line.</b></p><div style='float: center'><img src='materials/instructions/MullerLyer_Demo.png' height='300'></img><p><img src='utils/answer/answer_updown_keyboard.PNG' height='150'></img></p><p class='small'>In this example, the correct answer is the <b>UP arrow</b>.</p></div><p>Are you ready? <b>Press ENTER to start</b></p>"	"enter"	n/a	n/a	n/a	n/a	n/a	n/a	n/a	n/a	n/a	n/a
n/a	"html-keyboard-response"	"21"	"42096"	"0.0-3.0-2.0-2.0-0.0"	"qh07hl"	"600"	"1366"	"chrome"	"108.0.0"	"FALSE"	"Windows 10"	"60.56"	n/a	n/a	n/a	n/a	n/a	n/a	"fixation"	n/a	n/a	n/a	n/a	"NULL"	"NULL"	"NULL"	n/a	"<p style=\"color: black; font-size: 80px; padding-left: 9%; padding-right: 50%; padding-top: 39%; padding-bottom: 45%\">+</p>"	n/a	"1005"	n/a	n/a	n/a	n/a	n/a	n/a	n/a	n/a	n/a
n/a	"image-keyboard-response"	"22"	"42572"	"0.0-3.0-2.0-2.0-1.0"	"qh07hl"	"600"	"1366"	"chrome"	"108.0.0"	"FALSE"	"Windows 10"	"60.56"	n/a	n/a	n/a	n/a	n/a	n/a	"Trial"	n/a	n/a	n/a	n/a	"NULL"	"NULL"	"NULL"	"473"	"stimuli/MullerLyer_2300000_-0.7000.png"	"arrowdown"	n/a	"MullerLyer"	"arrowdown"	"1539"	"TRUE"	"MullerLyer"	"230000000000"	"-0.700000000"	"1"	"7"
n/a	"html-keyboard-response"	"23"	"44019"	"0.0-3.0-2.0-2.0-0.1"	"qh07hl"	"600"	"1366"	"chrome"	"108.0.0"	"FALSE"	"Windows 10"	"60.56"	n/a	n/a	n/a	n/a	n/a	n/a	"fixation"	n/a	n/a	n/a	n/a	"NULL"	"NULL"	"NULL"	n/a	"<p style=\"color: black; font-size: 80px; padding-left: 1%; padding-right: 19%; padding-top: 43%; padding-bottom: 33%\">+</p>"	n/a	"1425"	n/a	n/a	n/a	n/a	n/a	n/a	n/a	n/a	n/a
n/a	"image-keyboard-response"	"24"	"44367"	"0.0-3.0-2.0-2.0-1.1"	"qh07hl"	"600"	"1366"	"chrome"	"108.0.0"	"FALSE"	"Windows 10"	"60.56"	n/a	n/a	n/a	n/a	n/a	n/a	"Trial"	n/a	n/a	n/a	n/a	"NULL"	"NULL"	"NULL"	"348"	"stimuli/MullerLyer_0000000_0.70000.png"	"arrowup"	n/a	"MullerLyer"	"arrowup"	"1447"	"TRUE"	"MullerLyer"	"000000000000"	"0.7000000000"	"1"	"8"
n/a	"html-keyboard-response"	"25"	"45478"	"0.0-3.0-2.0-2.0-0.2"	"qh07hl"	"600"	"1366"	"chrome"	"108.0.0"	"FALSE"	"Windows 10"	"60.56"	n/a	n/a	n/a	n/a	n/a	n/a	"fixation"	n/a	n/a	n/a	n/a	"NULL"	"NULL"	"NULL"	n/a	"<p style=\"color: black; font-size: 80px; padding-left: 28%; padding-right: 21%; padding-top: 21%; padding-bottom: 13%\">+</p>"	n/a	"1093"	n/a	n/a	n/a	n/a	n/a	n/a	n/a	n/a	n/a
n/a	"image-keyboard-response"	"26"	"45871"	"0.0-3.0-2.0-2.0-1.2"	"qh07hl"	"600"	"1366"	"chrome"	"108.0.0"	"FALSE"	"Windows 10"	"60.56"	n/a	n/a	n/a	n/a	n/a	n/a	"Trial"	n/a	n/a	n/a	n/a	"NULL"	"NULL"	"NULL"	"392"	"stimuli/MullerLyer_-230000_-0.7000.png"	"arrowdown"	n/a	"MullerLyer"	"arrowdown"	"1111"	"TRUE"	"MullerLyer"	"-23000000000"	"-0.700000000"	"1"	"9"
n/a	"html-keyboard-response"	"27"	"47351"	"0.0-3.0-2.0-2.0-0.3"	"qh07hl"	"600"	"1366"	"chrome"	"108.0.0"	"FALSE"	"Windows 10"	"60.56"	n/a	n/a	n/a	n/a	n/a	n/a	"fixation"	n/a	n/a	n/a	n/a	"NULL"	"NULL"	"NULL"	n/a	"<p style=\"color: black; font-size: 80px; padding-left: 43%; padding-right: 10%; padding-top: 17%; padding-bottom: 37%\">+</p>"	n/a	"1472"	n/a	n/a	n/a	n/a	n/a	n/a	n/a	n/a	n/a
n/a	"image-keyboard-response"	"28"	"47643"	"0.0-3.0-2.0-2.0-1.3"	"qh07hl"	"600"	"1366"	"chrome"	"108.0.0"	"FALSE"	"Windows 10"	"60.56"	n/a	n/a	n/a	n/a	n/a	n/a	"Trial"	n/a	n/a	n/a	n/a	"NULL"	"NULL"	"NULL"	"290"	"stimuli/MullerLyer_2300000_0.70000.png"	"arrowdown"	n/a	"MullerLyer"	"arrowup"	"1480"	"FALSE"	"MullerLyer"	"230000000000"	"0.7000000000"	"1"	"10"
n/a	"html-keyboard-response"	"29"	"48937"	"0.0-3.0-2.0-2.0-0.4"	"qh07hl"	"600"	"1366"	"chrome"	"108.0.0"	"FALSE"	"Windows 10"	"60.56"	n/a	n/a	n/a	n/a	n/a	n/a	"fixation"	n/a	n/a	n/a	n/a	"NULL"	"NULL"	"NULL"	n/a	"<p style=\"color: black; font-size: 80px; padding-left: 48%; padding-right: 12%; padding-top: 49%; padding-bottom: 22%\">+</p>"	n/a	"1287"	n/a	n/a	n/a	n/a	n/a	n/a	n/a	n/a	n/a
n/a	"image-keyboard-response"	"30"	"49332"	"0.0-3.0-2.0-2.0-1.4"	"qh07hl"	"600"	"1366"	"chrome"	"108.0.0"	"FALSE"	"Windows 10"	"60.56"	n/a	n/a	n/a	n/a	n/a	n/a	"Trial"	n/a	n/a	n/a	n/a	"NULL"	"NULL"	"NULL"	"393"	"stimuli/MullerLyer_0000000_-0.7000.png"	"arrowdown"	n/a	"MullerLyer"	"arrowdown"	"1294"	"TRUE"	"MullerLyer"	"000000000000"	"-0.700000000"	"1"	"11"
n/a	"html-keyboard-response"	"31"	"50458"	"0.0-3.0-2.0-2.0-0.5"	"qh07hl"	"600"	"1366"	"chrome"	"108.0.0"	"FALSE"	"Windows 10"	"60.56"	n/a	n/a	n/a	n/a	n/a	n/a	"fixation"	n/a	n/a	n/a	n/a	"NULL"	"NULL"	"NULL"	n/a	"<p style=\"color: black; font-size: 80px; padding-left: 28%; padding-right: 47%; padding-top: 30%; padding-bottom: 38%\">+</p>"	n/a	"1108"	n/a	n/a	n/a	n/a	n/a	n/a	n/a	n/a	n/a
n/a	"image-keyboard-response"	"32"	"50810"	"0.0-3.0-2.0-2.0-1.5"	"qh07hl"	"600"	"1366"	"chrome"	"108.0.0"	"FALSE"	"Windows 10"	"60.56"	n/a	n/a	n/a	n/a	n/a	n/a	"Trial"	n/a	n/a	n/a	n/a	"NULL"	"NULL"	"NULL"	"351"	"stimuli/MullerLyer_-230000_0.70000.png"	"arrowup"	n/a	"MullerLyer"	"arrowup"	"1126"	"TRUE"	"MullerLyer"	"-23000000000"	"0.7000000000"	"1"	"12"
n/a	"html-button-response"	"33"	"53628"	"0.0-3.0-2.0-3.0"	"qh07hl"	"600"	"1366"	"chrome"	"108.0.0"	"FALSE"	"Windows 10"	"60.56"	n/a	n/a	n/a	n/a	n/a	n/a	"practice_block_results"	n/a	n/a	n/a	n/a	"NULL"	"NULL"	"NULL"	"2816"	"<p style='color:rgb(76,175,80);'> Correct Responses: <b>83.33%</b></p><hr><p style='color:rgb(233,30,99);'> Average Response Time: <b>374.50</b> ms.</p>"	"0"	n/a	n/a	n/a	n/a	n/a	n/a	n/a	n/a	n/a	n/a
"TRUE"	"preload"	"34"	"54162"	"0.0-3.0-3.0-0.0"	"qh07hl"	"600"	"1366"	"chrome"	"108.0.0"	"FALSE"	"Windows 10"	"60.56"	n/a	n/a	n/a	n/a	n/a	n/a	n/a	n/a	n/a	n/a	"FALSE"	"list()"	"list()"	"list()"	n/a	n/a	n/a	n/a	n/a	n/a	n/a	n/a	n/a	n/a	n/a	n/a	n/a
n/a	"html-keyboard-response"	"35"	"57360"	"0.0-3.0-3.0-1.0"	"qh07hl"	"600"	"1366"	"chrome"	"108.0.0"	"FALSE"	"Windows 10"	"60.56"	n/a	n/a	n/a	n/a	n/a	n/a	n/a	n/a	n/a	n/a	n/a	"NULL"	"NULL"	"NULL"	"3197"	"<p><b>Practice</b></p><p>In this part, two red lines will appear side by side.</p><p>Your task is to tell <b>which line is longer</b> in length, regardless of their orientation, as fast as you can, and without making errors.</p><p>Don't get distracted by the orientation of the lines!</p><p>Press <b>the LEFT or the RIGHT arrow</b> to indicate which <b>line is the longer one.</b></p><div style='float: center'><img src='materials/instructions/VerticalHorizontal_Demo.png' height='300'></img><p><img src='utils/answer/answer_leftright_keyboard.PNG' height='150'></img></p><p class='small'>In this example, the correct answer is the <b>LEFT arrow</b>.</p></div><p>Are you ready? <b>Press ENTER to start</b></p>"	"enter"	n/a	n/a	n/a	n/a	n/a	n/a	n/a	n/a	n/a	n/a
n/a	"html-keyboard-response"	"36"	"59015"	"0.0-3.0-3.0-2.0-0.0"	"qh07hl"	"600"	"1366"	"chrome"	"108.0.0"	"FALSE"	"Windows 10"	"60.56"	n/a	n/a	n/a	n/a	n/a	n/a	"fixation"	n/a	n/a	n/a	n/a	"NULL"	"NULL"	"NULL"	n/a	"<p style=\"color: black; font-size: 80px; padding-left: 48%; padding-right: 13%; padding-top: 43%; padding-bottom: 50%\">+</p>"	n/a	"1128"	n/a	n/a	n/a	n/a	n/a	n/a	n/a	n/a	n/a
n/a	"image-keyboard-response"	"37"	"59406"	"0.0-3.0-3.0-2.0-1.0"	"qh07hl"	"600"	"1366"	"chrome"	"108.0.0"	"FALSE"	"Windows 10"	"60.56"	n/a	n/a	n/a	n/a	n/a	n/a	"Trial"	n/a	n/a	n/a	n/a	"NULL"	"NULL"	"NULL"	"390"	"stimuli/VerticalHorizontal_0000000_-0.9000.png"	"arrowright"	n/a	"VerticalHorizontal"	"arrowright"	"1655"	"TRUE"	"VerticalHorizontal"	"000000000000"	"-0.900000000"	"1"	"13"
n/a	"html-keyboard-response"	"38"	"60528"	"0.0-3.0-3.0-2.0-0.1"	"qh07hl"	"600"	"1366"	"chrome"	"108.0.0"	"FALSE"	"Windows 10"	"60.56"	n/a	n/a	n/a	n/a	n/a	n/a	"fixation"	n/a	n/a	n/a	n/a	"NULL"	"NULL"	"NULL"	n/a	"<p style=\"color: black; font-size: 80px; padding-left: 34%; padding-right: 18%; padding-top: 8%; padding-bottom: 18%\">+</p>"	n/a	"1113"	n/a	n/a	n/a	n/a	n/a	n/a	n/a	n/a	n/a
n/a	"image-keyboard-response"	"39"	"60877"	"0.0-3.0-3.0-2.0-1.1"	"qh07hl"	"600"	"1366"	"chrome"	"108.0.0"	"FALSE"	"Windows 10"	"60.56"	n/a	n/a	n/a	n/a	n/a	n/a	"Trial"	n/a	n/a	n/a	n/a	"NULL"	"NULL"	"NULL"	"348"	"stimuli/VerticalHorizontal_-330000_-0.9000.png"	"arrowright"	n/a	"VerticalHorizontal"	"arrowright"	"1122"	"TRUE"	"VerticalHorizontal"	"-33000000000"	"-0.900000000"	"1"	"14"
n/a	"html-keyboard-response"	"40"	"62001"	"0.0-3.0-3.0-2.0-0.2"	"qh07hl"	"600"	"1366"	"chrome"	"108.0.0"	"FALSE"	"Windows 10"	"60.56"	n/a	n/a	n/a	n/a	n/a	n/a	"fixation"	n/a	n/a	n/a	n/a	"NULL"	"NULL"	"NULL"	n/a	"<p style=\"color: black; font-size: 80px; padding-left: 35%; padding-right: 40%; padding-top: 6%; padding-bottom: 46%\">+</p>"	n/a	"1109"	n/a	n/a	n/a	n/a	n/a	n/a	n/a	n/a	n/a
n/a	"image-keyboard-response"	"41"	"62329"	"0.0-3.0-3.0-2.0-1.2"	"qh07hl"	"600"	"1366"	"chrome"	"108.0.0"	"FALSE"	"Windows 10"	"60.56"	n/a	n/a	n/a	n/a	n/a	n/a	"Trial"	n/a	n/a	n/a	n/a	"NULL"	"NULL"	"NULL"	"327"	"stimuli/VerticalHorizontal_-330000_0.90000.png"	"arrowleft"	n/a	"VerticalHorizontal"	"arrowleft"	"1124"	"TRUE"	"VerticalHorizontal"	"-33000000000"	"0.9000000000"	"1"	"15"
n/a	"html-keyboard-response"	"42"	"63485"	"0.0-3.0-3.0-2.0-0.3"	"qh07hl"	"600"	"1366"	"chrome"	"108.0.0"	"FALSE"	"Windows 10"	"60.56"	n/a	n/a	n/a	n/a	n/a	n/a	"fixation"	n/a	n/a	n/a	n/a	"NULL"	"NULL"	"NULL"	n/a	"<p style=\"color: black; font-size: 80px; padding-left: 26%; padding-right: 20%; padding-top: 1%; padding-bottom: 41%\">+</p>"	n/a	"1137"	n/a	n/a	n/a	n/a	n/a	n/a	n/a	n/a	n/a
n/a	"image-keyboard-response"	"43"	"63907"	"0.0-3.0-3.0-2.0-1.3"	"qh07hl"	"600"	"1366"	"chrome"	"108.0.0"	"FALSE"	"Windows 10"	"60.56"	n/a	n/a	n/a	n/a	n/a	n/a	"Trial"	n/a	n/a	n/a	n/a	"NULL"	"NULL"	"NULL"	"422"	"stimuli/VerticalHorizontal_3300000_0.90000.png"	"arrowleft"	n/a	"VerticalHorizontal"	"arrowleft"	"1156"	"TRUE"	"VerticalHorizontal"	"330000000000"	"0.9000000000"	"1"	"16"
n/a	"html-keyboard-response"	"44"	"65275"	"0.0-3.0-3.0-2.0-0.4"	"qh07hl"	"600"	"1366"	"chrome"	"108.0.0"	"FALSE"	"Windows 10"	"60.56"	n/a	n/a	n/a	n/a	n/a	n/a	"fixation"	n/a	n/a	n/a	n/a	"NULL"	"NULL"	"NULL"	n/a	"<p style=\"color: black; font-size: 80px; padding-left: 10%; padding-right: 14%; padding-top: 15%; padding-bottom: 0%\">+</p>"	n/a	"1348"	n/a	n/a	n/a	n/a	n/a	n/a	n/a	n/a	n/a
n/a	"image-keyboard-response"	"45"	"65652"	"0.0-3.0-3.0-2.0-1.4"	"qh07hl"	"600"	"1366"	"chrome"	"108.0.0"	"FALSE"	"Windows 10"	"60.56"	n/a	n/a	n/a	n/a	n/a	n/a	"Trial"	n/a	n/a	n/a	n/a	"NULL"	"NULL"	"NULL"	"376"	"stimuli/VerticalHorizontal_0000000_0.90000.png"	"arrowleft"	n/a	"VerticalHorizontal"	"arrowleft"	"1368"	"TRUE"	"VerticalHorizontal"	"000000000000"	"0.9000000000"	"1"	"17"
n/a	"html-keyboard-response"	"46"	"66827"	"0.0-3.0-3.0-2.0-0.5"	"qh07hl"	"600"	"1366"	"chrome"	"108.0.0"	"FALSE"	"Windows 10"	"60.56"	n/a	n/a	n/a	n/a	n/a	n/a	"fixation"	n/a	n/a	n/a	n/a	"NULL"	"NULL"	"NULL"	n/a	"<p style=\"color: black; font-size: 80px; padding-left: 29%; padding-right: 15%; padding-top: 47%; padding-bottom: 7%\">+</p>"	n/a	"1160"	n/a	n/a	n/a	n/a	n/a	n/a	n/a	n/a	n/a
n/a	"image-keyboard-response"	"47"	"67255"	"0.0-3.0-3.0-2.0-1.5"	"qh07hl"	"600"	"1366"	"chrome"	"108.0.0"	"FALSE"	"Windows 10"	"60.56"	n/a	n/a	n/a	n/a	n/a	n/a	"Trial"	n/a	n/a	n/a	n/a	"NULL"	"NULL"	"NULL"	"424"	"stimuli/VerticalHorizontal_3300000_-0.9000.png"	"arrowright"	n/a	"VerticalHorizontal"	"arrowright"	"1175"	"TRUE"	"VerticalHorizontal"	"330000000000"	"-0.900000000"	"1"	"18"
n/a	"html-button-response"	"48"	"69504"	"0.0-3.0-3.0-3.0"	"qh07hl"	"600"	"1366"	"chrome"	"108.0.0"	"FALSE"	"Windows 10"	"60.56"	n/a	n/a	n/a	n/a	n/a	n/a	"practice_block_results"	n/a	n/a	n/a	n/a	"NULL"	"NULL"	"NULL"	"2245"	"<p style='color:rgb(76,175,80);'> Correct Responses: <b>100.00%</b></p><hr><p style='color:rgb(233,30,99);'> Average Response Time: <b>381.17</b> ms.</p>"	"0"	n/a	n/a	n/a	n/a	n/a	n/a	n/a	n/a	n/a	n/a
n/a	"html-button-response"	"49"	"115177"	"0.0-3.0-4.0"	"qh07hl"	"600"	"1366"	"chrome"	"108.0.0"	"FALSE"	"Windows 10"	"60.56"	n/a	n/a	n/a	n/a	n/a	n/a	"practice_debrief"	n/a	n/a	n/a	n/a	"NULL"	"NULL"	"NULL"	"45159"	"<p><b>TRAINING COMPLETED</b></p><p>In the next phase, there will be more trials, and some might be harder too.<br> Moreover, after each illusion block, a <b>score</b> will be calculated based on speed (time you took to answer) and accuracy (number of errors).</p><p>Try to keep up a high score!</p><br><p>Note that it can be <i>really</i> challenging at times, so you will need to rely on your <b>intuition</b> and gut feeling to answer as fast as you can without making errors.</p><p>Each illusion block will be repeated two times (so that you have the opportunity to improve your score), but the order of the blocks is random.</p><p>Remember, your goal is to be as <b>fast</b> and <b>accurate</b> as possible. Good luck!</p><br>"	"0"	n/a	n/a	n/a	n/a	n/a	n/a	n/a	n/a	n/a	n/a
"TRUE"	"preload"	"50"	"115309"	"0.0-4.0-0.0"	"qh07hl"	"600"	"1366"	"chrome"	"108.0.0"	"FALSE"	"Windows 10"	"60.56"	n/a	n/a	n/a	n/a	n/a	n/a	n/a	n/a	n/a	n/a	"FALSE"	"list()"	"list()"	"list()"	n/a	n/a	n/a	n/a	n/a	n/a	n/a	n/a	n/a	n/a	n/a	n/a	n/a
n/a	"html-keyboard-response"	"51"	"120389"	"0.0-4.0-1.0"	"qh07hl"	"600"	"1366"	"chrome"	"108.0.0"	"FALSE"	"Windows 10"	"60.56"	n/a	n/a	n/a	n/a	n/a	n/a	n/a	n/a	n/a	n/a	n/a	"NULL"	"NULL"	"NULL"	"5079"	"<p><b>Part 1/6</b></p><p>In this part, two red circles will appear side by side on the screen.</p><p>Your task is to select which <b>red circle is bigger</b> in size as fast as you can, without making errors.</p><p>Don't get distracted by the surrounding black circles around the red circles!</p><p>Press <b>the LEFT or the RIGHT arrow</b> to indicate which is the bigger <b>red circle.</b></p><div style='float: center'><img src='materials/instructions/Ebbinghaus_Demo.png' height='300'></img><p><img src='utils/answer/answer_leftright_keyboard.PNG' height='150'></img></p><p class='small'>In this example, the correct answer is the <b>LEFT arrow</b>.</p></div><p>Are you ready? <b>Press ENTER to start</b></p>"	"enter"	n/a	n/a	n/a	n/a	n/a	n/a	n/a	n/a	n/a	n/a
n/a	"html-keyboard-response"	"52"	"122246"	"0.0-4.0-2.0-0.0"	"qh07hl"	"600"	"1366"	"chrome"	"108.0.0"	"FALSE"	"Windows 10"	"60.56"	n/a	n/a	n/a	n/a	n/a	n/a	"fixation"	n/a	n/a	n/a	n/a	"NULL"	"NULL"	"NULL"	n/a	"<p style=\"color: black; font-size: 80px; padding-left: 48%; padding-right: 21%; padding-top: 40%; padding-bottom: 49%\">+</p>"	n/a	"1344"	n/a	n/a	n/a	n/a	n/a	n/a	n/a	n/a	n/a
n/a	"image-keyboard-response"	"53"	"122764"	"0.0-4.0-2.0-1.0"	"qh07hl"	"600"	"1366"	"chrome"	"108.0.0"	"FALSE"	"Windows 10"	"60.56"	n/a	n/a	n/a	n/a	n/a	n/a	"Trial"	n/a	n/a	n/a	n/a	"NULL"	"NULL"	"NULL"	"515"	"stimuli/Ebbinghaus_-0.1000_-0.2800.png"	"arrowright"	n/a	"Ebbinghaus"	"arrowright"	"1857"	"TRUE"	"Ebbinghaus"	"-0.100000000"	"-0.280000000"	"1"	"19"
n/a	"html-keyboard-response"	"54"	"124235"	"0.0-4.0-2.0-0.1"	"qh07hl"	"600"	"1366"	"chrome"	"108.0.0"	"FALSE"	"Windows 10"	"60.56"	n/a	n/a	n/a	n/a	n/a	n/a	"fixation"	n/a	n/a	n/a	n/a	"NULL"	"NULL"	"NULL"	n/a	"<p style=\"color: black; font-size: 80px; padding-left: 39%; padding-right: 30%; padding-top: 15%; padding-bottom: 19%\">+</p>"	n/a	"1450"	n/a	n/a	n/a	n/a	n/a	n/a	n/a	n/a	n/a
n/a	"image-keyboard-response"	"55"	"124693"	"0.0-4.0-2.0-1.1"	"qh07hl"	"600"	"1366"	"chrome"	"108.0.0"	"FALSE"	"Windows 10"	"60.56"	n/a	n/a	n/a	n/a	n/a	n/a	"Trial"	n/a	n/a	n/a	n/a	"NULL"	"NULL"	"NULL"	"457"	"stimuli/Ebbinghaus_0.35714_-0.2150.png"	"arrowright"	n/a	"Ebbinghaus"	"arrowright"	"1471"	"TRUE"	"Ebbinghaus"	"0.3571400000"	"-0.215000000"	"1"	"20"
n/a	"html-keyboard-response"	"56"	"125942"	"0.0-4.0-2.0-0.2"	"qh07hl"	"600"	"1366"	"chrome"	"108.0.0"	"FALSE"	"Windows 10"	"60.56"	n/a	n/a	n/a	n/a	n/a	n/a	"fixation"	n/a	n/a	n/a	n/a	"NULL"	"NULL"	"NULL"	n/a	"<p style=\"color: black; font-size: 80px; padding-left: 11%; padding-right: 25%; padding-top: 46%; padding-bottom: 47%\">+</p>"	n/a	"1246"	n/a	n/a	n/a	n/a	n/a	n/a	n/a	n/a	n/a
n/a	"image-keyboard-response"	"57"	"126347"	"0.0-4.0-2.0-1.2"	"qh07hl"	"600"	"1366"	"chrome"	"108.0.0"	"FALSE"	"Windows 10"	"60.56"	n/a	n/a	n/a	n/a	n/a	n/a	"Trial"	n/a	n/a	n/a	n/a	"NULL"	"NULL"	"NULL"	"403"	"stimuli/Ebbinghaus_-0.1000_-0.15857.png"	"arrowright"	n/a	"Ebbinghaus"	"arrowright"	"1249"	"TRUE"	"Ebbinghaus"	"-0.100000000"	"-0.158570000"	"1"	"21"
n/a	"html-keyboard-response"	"58"	"127792"	"0.0-4.0-2.0-0.3"	"qh07hl"	"600"	"1366"	"chrome"	"108.0.0"	"FALSE"	"Windows 10"	"60.56"	n/a	n/a	n/a	n/a	n/a	n/a	"fixation"	n/a	n/a	n/a	n/a	"NULL"	"NULL"	"NULL"	n/a	"<p style=\"color: black; font-size: 80px; padding-left: 25%; padding-right: 34%; padding-top: 14%; padding-bottom: 41%\">+</p>"	n/a	"1433"	n/a	n/a	n/a	n/a	n/a	n/a	n/a	n/a	n/a
n/a	"image-keyboard-response"	"59"	"128191"	"0.0-4.0-2.0-1.3"	"qh07hl"	"600"	"1366"	"chrome"	"108.0.0"	"FALSE"	"Windows 10"	"60.56"	n/a	n/a	n/a	n/a	n/a	n/a	"Trial"	n/a	n/a	n/a	n/a	"NULL"	"NULL"	"NULL"	"396"	"stimuli/Ebbinghaus_-0.61429_0.28000.png"	"arrowleft"	n/a	"Ebbinghaus"	"arrowleft"	"1445"	"TRUE"	"Ebbinghaus"	"-0.614290000"	"0.2800000000"	"1"	"22"
n/a	"html-keyboard-response"	"60"	"129277"	"0.0-4.0-2.0-0.4"	"qh07hl"	"600"	"1366"	"chrome"	"108.0.0"	"FALSE"	"Windows 10"	"60.56"	n/a	n/a	n/a	n/a	n/a	n/a	"fixation"	n/a	n/a	n/a	n/a	"NULL"	"NULL"	"NULL"	n/a	"<p style=\"color: black; font-size: 80px; padding-left: 23%; padding-right: 27%; padding-top: 13%; padding-bottom: 10%\">+</p>"	n/a	"1072"	n/a	n/a	n/a	n/a	n/a	n/a	n/a	n/a	n/a
n/a	"image-keyboard-response"	"61"	"129793"	"0.0-4.0-2.0-1.4"	"qh07hl"	"600"	"1366"	"chrome"	"108.0.0"	"FALSE"	"Windows 10"	"60.56"	n/a	n/a	n/a	n/a	n/a	n/a	"Trial"	n/a	n/a	n/a	n/a	"NULL"	"NULL"	"NULL"	"510"	"stimuli/Ebbinghaus_0.87143_0.28000.png"	"arrowright"	n/a	"Ebbinghaus"	"arrowleft"	"1086"	"FALSE"	"Ebbinghaus"	"0.8714300000"	"0.2800000000"	"1"	"23"
n/a	"html-keyboard-response"	"62"	"131222"	"0.0-4.0-2.0-0.5"	"qh07hl"	"600"	"1366"	"chrome"	"108.0.0"	"FALSE"	"Windows 10"	"60.56"	n/a	n/a	n/a	n/a	n/a	n/a	"fixation"	n/a	n/a	n/a	n/a	"NULL"	"NULL"	"NULL"	n/a	"<p style=\"color: black; font-size: 80px; padding-left: 29%; padding-right: 4%; padding-top: 34%; padding-bottom: 31%\">+</p>"	n/a	"1425"	n/a	n/a	n/a	n/a	n/a	n/a	n/a	n/a	n/a
n/a	"image-keyboard-response"	"63"	"131650"	"0.0-4.0-2.0-1.5"	"qh07hl"	"600"	"1366"	"chrome"	"108.0.0"	"FALSE"	"Windows 10"	"60.56"	n/a	n/a	n/a	n/a	n/a	n/a	"Trial"	n/a	n/a	n/a	n/a	"NULL"	"NULL"	"NULL"	"427"	"stimuli/Ebbinghaus_0.61429_-0.11071.png"	"arrowright"	n/a	"Ebbinghaus"	"arrowright"	"1429"	"TRUE"	"Ebbinghaus"	"0.6142900000"	"-0.110710000"	"1"	"24"
n/a	"html-keyboard-response"	"64"	"132893"	"0.0-4.0-2.0-0.6"	"qh07hl"	"600"	"1366"	"chrome"	"108.0.0"	"FALSE"	"Windows 10"	"60.56"	n/a	n/a	n/a	n/a	n/a	n/a	"fixation"	n/a	n/a	n/a	n/a	"NULL"	"NULL"	"NULL"	n/a	"<p style=\"color: black; font-size: 80px; padding-left: 23%; padding-right: 5%; padding-top: 39%; padding-bottom: 7%\">+</p>"	n/a	"1232"	n/a	n/a	n/a	n/a	n/a	n/a	n/a	n/a	n/a
n/a	"image-keyboard-response"	"65"	"133316"	"0.0-4.0-2.0-1.6"	"qh07hl"	"600"	"1366"	"chrome"	"108.0.0"	"FALSE"	"Windows 10"	"60.56"	n/a	n/a	n/a	n/a	n/a	n/a	"Trial"	n/a	n/a	n/a	n/a	"NULL"	"NULL"	"NULL"	"423"	"stimuli/Ebbinghaus_0.61429_-0.2150.png"	"arrowright"	n/a	"Ebbinghaus"	"arrowright"	"1243"	"TRUE"	"Ebbinghaus"	"0.6142900000"	"-0.215000000"	"1"	"25"
n/a	"html-keyboard-response"	"66"	"134765"	"0.0-4.0-2.0-0.7"	"qh07hl"	"600"	"1366"	"chrome"	"108.0.0"	"FALSE"	"Windows 10"	"60.56"	n/a	n/a	n/a	n/a	n/a	n/a	"fixation"	n/a	n/a	n/a	n/a	"NULL"	"NULL"	"NULL"	n/a	"<p style=\"color: black; font-size: 80px; padding-left: 38%; padding-right: 2%; padding-top: 21%; padding-bottom: 34%\">+</p>"	n/a	"1430"	n/a	n/a	n/a	n/a	n/a	n/a	n/a	n/a	n/a
n/a	"image-keyboard-response"	"67"	"135282"	"0.0-4.0-2.0-1.7"	"qh07hl"	"600"	"1366"	"chrome"	"108.0.0"	"FALSE"	"Windows 10"	"60.56"	n/a	n/a	n/a	n/a	n/a	n/a	"Trial"	n/a	n/a	n/a	n/a	"NULL"	"NULL"	"NULL"	"516"	"stimuli/Ebbinghaus_-0.87143_0.11071.png"	"arrowleft"	n/a	"Ebbinghaus"	"arrowleft"	"1449"	"TRUE"	"Ebbinghaus"	"-0.871430000"	"0.1107100000"	"1"	"26"
n/a	"html-keyboard-response"	"68"	"136356"	"0.0-4.0-2.0-0.8"	"qh07hl"	"600"	"1366"	"chrome"	"108.0.0"	"FALSE"	"Windows 10"	"60.56"	n/a	n/a	n/a	n/a	n/a	n/a	"fixation"	n/a	n/a	n/a	n/a	"NULL"	"NULL"	"NULL"	n/a	"<p style=\"color: black; font-size: 80px; padding-left: 32%; padding-right: 3%; padding-top: 8%; padding-bottom: 10%\">+</p>"	n/a	"1057"	n/a	n/a	n/a	n/a	n/a	n/a	n/a	n/a	n/a
n/a	"image-keyboard-response"	"69"	"136718"	"0.0-4.0-2.0-1.8"	"qh07hl"	"600"	"1366"	"chrome"	"108.0.0"	"FALSE"	"Windows 10"	"60.56"	n/a	n/a	n/a	n/a	n/a	n/a	"Trial"	n/a	n/a	n/a	n/a	"NULL"	"NULL"	"NULL"	"360"	"stimuli/Ebbinghaus_-0.87143_0.28000.png"	"arrowleft"	n/a	"Ebbinghaus"	"arrowleft"	"1074"	"TRUE"	"Ebbinghaus"	"-0.871430000"	"0.2800000000"	"1"	"27"
n/a	"html-keyboard-response"	"70"	"137969"	"0.0-4.0-2.0-0.9"	"qh07hl"	"600"	"1366"	"chrome"	"108.0.0"	"FALSE"	"Windows 10"	"60.56"	n/a	n/a	n/a	n/a	n/a	n/a	"fixation"	n/a	n/a	n/a	n/a	"NULL"	"NULL"	"NULL"	n/a	"<p style=\"color: black; font-size: 80px; padding-left: 34%; padding-right: 5%; padding-top: 45%; padding-bottom: 35%\">+</p>"	n/a	"1229"	n/a	n/a	n/a	n/a	n/a	n/a	n/a	n/a	n/a
n/a	"image-keyboard-response"	"71"	"138435"	"0.0-4.0-2.0-1.9"	"qh07hl"	"600"	"1366"	"chrome"	"108.0.0"	"FALSE"	"Windows 10"	"60.56"	n/a	n/a	n/a	n/a	n/a	n/a	"Trial"	n/a	n/a	n/a	n/a	"NULL"	"NULL"	"NULL"	"462"	"stimuli/Ebbinghaus_-0.61429_-0.2150.png"	"arrowright"	n/a	"Ebbinghaus"	"arrowright"	"1251"	"TRUE"	"Ebbinghaus"	"-0.614290000"	"-0.215000000"	"1"	"28"
n/a	"html-keyboard-response"	"72"	"139803"	"0.0-4.0-2.0-0.10"	"qh07hl"	"600"	"1366"	"chrome"	"108.0.0"	"FALSE"	"Windows 10"	"60.56"	n/a	n/a	n/a	n/a	n/a	n/a	"fixation"	n/a	n/a	n/a	n/a	"NULL"	"NULL"	"NULL"	n/a	"<p style=\"color: black; font-size: 80px; padding-left: 0%; padding-right: 8%; padding-top: 30%; padding-bottom: 29%\">+</p>"	n/a	"1365"	n/a	n/a	n/a	n/a	n/a	n/a	n/a	n/a	n/a
n/a	"image-keyboard-response"	"73"	"140250"	"0.0-4.0-2.0-1.10"	"qh07hl"	"600"	"1366"	"chrome"	"108.0.0"	"FALSE"	"Windows 10"	"60.56"	n/a	n/a	n/a	n/a	n/a	n/a	"Trial"	n/a	n/a	n/a	n/a	"NULL"	"NULL"	"NULL"	"445"	"stimuli/Ebbinghaus_0.61429_0.21500.png"	"arrowleft"	n/a	"Ebbinghaus"	"arrowleft"	"1368"	"TRUE"	"Ebbinghaus"	"0.6142900000"	"0.2150000000"	"1"	"29"
n/a	"html-keyboard-response"	"74"	"141300"	"0.0-4.0-2.0-0.11"	"qh07hl"	"600"	"1366"	"chrome"	"108.0.0"	"FALSE"	"Windows 10"	"60.56"	n/a	n/a	n/a	n/a	n/a	n/a	"fixation"	n/a	n/a	n/a	n/a	"NULL"	"NULL"	"NULL"	n/a	"<p style=\"color: black; font-size: 80px; padding-left: 31%; padding-right: 44%; padding-top: 44%; padding-bottom: 28%\">+</p>"	n/a	"1037"	n/a	n/a	n/a	n/a	n/a	n/a	n/a	n/a	n/a
n/a	"image-keyboard-response"	"75"	"141714"	"0.0-4.0-2.0-1.11"	"qh07hl"	"600"	"1366"	"chrome"	"108.0.0"	"FALSE"	"Windows 10"	"60.56"	n/a	n/a	n/a	n/a	n/a	n/a	"Trial"	n/a	n/a	n/a	n/a	"NULL"	"NULL"	"NULL"	"413"	"stimuli/Ebbinghaus_0.10000_0.28000.png"	"arrowleft"	n/a	"Ebbinghaus"	"arrowleft"	"1050"	"TRUE"	"Ebbinghaus"	"0.1000000000"	"0.2800000000"	"1"	"30"
n/a	"html-keyboard-response"	"76"	"142838"	"0.0-4.0-2.0-0.12"	"qh07hl"	"600"	"1366"	"chrome"	"108.0.0"	"FALSE"	"Windows 10"	"60.56"	n/a	n/a	n/a	n/a	n/a	n/a	"fixation"	n/a	n/a	n/a	n/a	"NULL"	"NULL"	"NULL"	n/a	"<p style=\"color: black; font-size: 80px; padding-left: 40%; padding-right: 26%; padding-top: 39%; padding-bottom: 35%\">+</p>"	n/a	"1113"	n/a	n/a	n/a	n/a	n/a	n/a	n/a	n/a	n/a
n/a	"image-keyboard-response"	"77"	"143243"	"0.0-4.0-2.0-1.12"	"qh07hl"	"600"	"1366"	"chrome"	"108.0.0"	"FALSE"	"Windows 10"	"60.56"	n/a	n/a	n/a	n/a	n/a	n/a	"Trial"	n/a	n/a	n/a	n/a	"NULL"	"NULL"	"NULL"	"403"	"stimuli/Ebbinghaus_0.35714_0.15857.png"	"arrowleft"	n/a	"Ebbinghaus"	"arrowleft"	"1124"	"TRUE"	"Ebbinghaus"	"0.3571400000"	"0.1585700000"	"1"	"31"
n/a	"html-keyboard-response"	"78"	"144711"	"0.0-4.0-2.0-0.13"	"qh07hl"	"600"	"1366"	"chrome"	"108.0.0"	"FALSE"	"Windows 10"	"60.56"	n/a	n/a	n/a	n/a	n/a	n/a	"fixation"	n/a	n/a	n/a	n/a	"NULL"	"NULL"	"NULL"	n/a	"<p style=\"color: black; font-size: 80px; padding-left: 8%; padding-right: 40%; padding-top: 34%; padding-bottom: 28%\">+</p>"	n/a	"1451"	n/a	n/a	n/a	n/a	n/a	n/a	n/a	n/a	n/a
n/a	"image-keyboard-response"	"79"	"145150"	"0.0-4.0-2.0-1.13"	"qh07hl"	"600"	"1366"	"chrome"	"108.0.0"	"FALSE"	"Windows 10"	"60.56"	n/a	n/a	n/a	n/a	n/a	n/a	"Trial"	n/a	n/a	n/a	n/a	"NULL"	"NULL"	"NULL"	"437"	"stimuli/Ebbinghaus_-0.1000_0.15857.png"	"arrowleft"	n/a	"Ebbinghaus"	"arrowleft"	"1468"	"TRUE"	"Ebbinghaus"	"-0.100000000"	"0.1585700000"	"1"	"32"
n/a	"html-keyboard-response"	"80"	"146597"	"0.0-4.0-2.0-0.14"	"qh07hl"	"600"	"1366"	"chrome"	"108.0.0"	"FALSE"	"Windows 10"	"60.56"	n/a	n/a	n/a	n/a	n/a	n/a	"fixation"	n/a	n/a	n/a	n/a	"NULL"	"NULL"	"NULL"	n/a	"<p style=\"color: black; font-size: 80px; padding-left: 25%; padding-right: 9%; padding-top: 6%; padding-bottom: 38%\">+</p>"	n/a	"1437"	n/a	n/a	n/a	n/a	n/a	n/a	n/a	n/a	n/a
n/a	"image-keyboard-response"	"81"	"147039"	"0.0-4.0-2.0-1.14"	"qh07hl"	"600"	"1366"	"chrome"	"108.0.0"	"FALSE"	"Windows 10"	"60.56"	n/a	n/a	n/a	n/a	n/a	n/a	"Trial"	n/a	n/a	n/a	n/a	"NULL"	"NULL"	"NULL"	"440"	"stimuli/Ebbinghaus_-0.35714_0.11071.png"	"arrowleft"	n/a	"Ebbinghaus"	"arrowleft"	"1447"	"TRUE"	"Ebbinghaus"	"-0.357140000"	"0.1107100000"	"1"	"33"
n/a	"html-keyboard-response"	"82"	"148198"	"0.0-4.0-2.0-0.15"	"qh07hl"	"600"	"1366"	"chrome"	"108.0.0"	"FALSE"	"Windows 10"	"60.56"	n/a	n/a	n/a	n/a	n/a	n/a	"fixation"	n/a	n/a	n/a	n/a	"NULL"	"NULL"	"NULL"	n/a	"<p style=\"color: black; font-size: 80px; padding-left: 15%; padding-right: 48%; padding-top: 8%; padding-bottom: 7%\">+</p>"	n/a	"1155"	n/a	n/a	n/a	n/a	n/a	n/a	n/a	n/a	n/a
n/a	"image-keyboard-response"	"83"	"148601"	"0.0-4.0-2.0-1.15"	"qh07hl"	"600"	"1366"	"chrome"	"108.0.0"	"FALSE"	"Windows 10"	"60.56"	n/a	n/a	n/a	n/a	n/a	n/a	"Trial"	n/a	n/a	n/a	n/a	"NULL"	"NULL"	"NULL"	"401"	"stimuli/Ebbinghaus_-0.1000_0.21500.png"	"arrowleft"	n/a	"Ebbinghaus"	"arrowleft"	"1159"	"TRUE"	"Ebbinghaus"	"-0.100000000"	"0.2150000000"	"1"	"34"
n/a	"html-keyboard-response"	"84"	"149698"	"0.0-4.0-2.0-0.16"	"qh07hl"	"600"	"1366"	"chrome"	"108.0.0"	"FALSE"	"Windows 10"	"60.56"	n/a	n/a	n/a	n/a	n/a	n/a	"fixation"	n/a	n/a	n/a	n/a	"NULL"	"NULL"	"NULL"	n/a	"<p style=\"color: black; font-size: 80px; padding-left: 36%; padding-right: 13%; padding-top: 40%; padding-bottom: 27%\">+</p>"	n/a	"1074"	n/a	n/a	n/a	n/a	n/a	n/a	n/a	n/a	n/a
n/a	"image-keyboard-response"	"85"	"150184"	"0.0-4.0-2.0-1.16"	"qh07hl"	"600"	"1366"	"chrome"	"108.0.0"	"FALSE"	"Windows 10"	"60.56"	n/a	n/a	n/a	n/a	n/a	n/a	"Trial"	n/a	n/a	n/a	n/a	"NULL"	"NULL"	"NULL"	"485"	"stimuli/Ebbinghaus_-0.35714_-0.15857.png"	"arrowright"	n/a	"Ebbinghaus"	"arrowright"	"1097"	"TRUE"	"Ebbinghaus"	"-0.357140000"	"-0.158570000"	"1"	"35"
n/a	"html-keyboard-response"	"86"	"151375"	"0.0-4.0-2.0-0.17"	"qh07hl"	"600"	"1366"	"chrome"	"108.0.0"	"FALSE"	"Windows 10"	"60.56"	n/a	n/a	n/a	n/a	n/a	n/a	"fixation"	n/a	n/a	n/a	n/a	"NULL"	"NULL"	"NULL"	n/a	"<p style=\"color: black; font-size: 80px; padding-left: 45%; padding-right: 11%; padding-top: 3%; padding-bottom: 18%\">+</p>"	n/a	"1177"	n/a	n/a	n/a	n/a	n/a	n/a	n/a	n/a	n/a
n/a	"image-keyboard-response"	"87"	"151795"	"0.0-4.0-2.0-1.17"	"qh07hl"	"600"	"1366"	"chrome"	"108.0.0"	"FALSE"	"Windows 10"	"60.56"	n/a	n/a	n/a	n/a	n/a	n/a	"Trial"	n/a	n/a	n/a	n/a	"NULL"	"NULL"	"NULL"	"419"	"stimuli/Ebbinghaus_-0.87143_-0.2800.png"	"arrowright"	n/a	"Ebbinghaus"	"arrowright"	"1191"	"TRUE"	"Ebbinghaus"	"-0.871430000"	"-0.280000000"	"1"	"36"
n/a	"html-keyboard-response"	"88"	"153075"	"0.0-4.0-2.0-0.18"	"qh07hl"	"600"	"1366"	"chrome"	"108.0.0"	"FALSE"	"Windows 10"	"60.56"	n/a	n/a	n/a	n/a	n/a	n/a	"fixation"	n/a	n/a	n/a	n/a	"NULL"	"NULL"	"NULL"	n/a	"<p style=\"color: black; font-size: 80px; padding-left: 13%; padding-right: 36%; padding-top: 26%; padding-bottom: 31%\">+</p>"	n/a	"1266"	n/a	n/a	n/a	n/a	n/a	n/a	n/a	n/a	n/a
n/a	"image-keyboard-response"	"89"	"153464"	"0.0-4.0-2.0-1.18"	"qh07hl"	"600"	"1366"	"chrome"	"108.0.0"	"FALSE"	"Windows 10"	"60.56"	n/a	n/a	n/a	n/a	n/a	n/a	"Trial"	n/a	n/a	n/a	n/a	"NULL"	"NULL"	"NULL"	"389"	"stimuli/Ebbinghaus_0.87143_-0.15857.png"	"arrowright"	n/a	"Ebbinghaus"	"arrowright"	"1280"	"TRUE"	"Ebbinghaus"	"0.8714300000"	"-0.158570000"	"1"	"37"
n/a	"html-keyboard-response"	"90"	"154916"	"0.0-4.0-2.0-0.19"	"qh07hl"	"600"	"1366"	"chrome"	"108.0.0"	"FALSE"	"Windows 10"	"60.56"	n/a	n/a	n/a	n/a	n/a	n/a	"fixation"	n/a	n/a	n/a	n/a	"NULL"	"NULL"	"NULL"	n/a	"<p style=\"color: black; font-size: 80px; padding-left: 7%; padding-right: 22%; padding-top: 28%; padding-bottom: 30%\">+</p>"	n/a	"1428"	n/a	n/a	n/a	n/a	n/a	n/a	n/a	n/a	n/a
n/a	"image-keyboard-response"	"91"	"155337"	"0.0-4.0-2.0-1.19"	"qh07hl"	"600"	"1366"	"chrome"	"108.0.0"	"FALSE"	"Windows 10"	"60.56"	n/a	n/a	n/a	n/a	n/a	n/a	"Trial"	n/a	n/a	n/a	n/a	"NULL"	"NULL"	"NULL"	"417"	"stimuli/Ebbinghaus_-0.1000_-0.2150.png"	"arrowright"	n/a	"Ebbinghaus"	"arrowright"	"1452"	"TRUE"	"Ebbinghaus"	"-0.100000000"	"-0.215000000"	"1"	"38"
n/a	"html-keyboard-response"	"92"	"156522"	"0.0-4.0-2.0-0.20"	"qh07hl"	"600"	"1366"	"chrome"	"108.0.0"	"FALSE"	"Windows 10"	"60.56"	n/a	n/a	n/a	n/a	n/a	n/a	"fixation"	n/a	n/a	n/a	n/a	"NULL"	"NULL"	"NULL"	n/a	"<p style=\"color: black; font-size: 80px; padding-left: 17%; padding-right: 16%; padding-top: 9%; padding-bottom: 7%\">+</p>"	n/a	"1169"	n/a	n/a	n/a	n/a	n/a	n/a	n/a	n/a	n/a
n/a	"image-keyboard-response"	"93"	"156971"	"0.0-4.0-2.0-1.20"	"qh07hl"	"600"	"1366"	"chrome"	"108.0.0"	"FALSE"	"Windows 10"	"60.56"	n/a	n/a	n/a	n/a	n/a	n/a	"Trial"	n/a	n/a	n/a	n/a	"NULL"	"NULL"	"NULL"	"439"	"stimuli/Ebbinghaus_0.35714_-0.2800.png"	"arrowright"	n/a	"Ebbinghaus"	"arrowright"	"1185"	"TRUE"	"Ebbinghaus"	"0.3571400000"	"-0.280000000"	"1"	"39"
n/a	"html-keyboard-response"	"94"	"158244"	"0.0-4.0-2.0-0.21"	"qh07hl"	"600"	"1366"	"chrome"	"108.0.0"	"FALSE"	"Windows 10"	"60.56"	n/a	n/a	n/a	n/a	n/a	n/a	"fixation"	n/a	n/a	n/a	n/a	"NULL"	"NULL"	"NULL"	n/a	"<p style=\"color: black; font-size: 80px; padding-left: 6%; padding-right: 3%; padding-top: 7%; padding-bottom: 48%\">+</p>"	n/a	"1264"	n/a	n/a	n/a	n/a	n/a	n/a	n/a	n/a	n/a
n/a	"image-keyboard-response"	"95"	"158631"	"0.0-4.0-2.0-1.21"	"qh07hl"	"600"	"1366"	"chrome"	"108.0.0"	"FALSE"	"Windows 10"	"60.56"	n/a	n/a	n/a	n/a	n/a	n/a	"Trial"	n/a	n/a	n/a	n/a	"NULL"	"NULL"	"NULL"	"386"	"stimuli/Ebbinghaus_-0.35714_-0.11071.png"	"arrowright"	n/a	"Ebbinghaus"	"arrowright"	"1273"	"TRUE"	"Ebbinghaus"	"-0.357140000"	"-0.110710000"	"1"	"40"
n/a	"html-keyboard-response"	"96"	"160109"	"0.0-4.0-2.0-0.22"	"qh07hl"	"600"	"1366"	"chrome"	"108.0.0"	"FALSE"	"Windows 10"	"60.56"	n/a	n/a	n/a	n/a	n/a	n/a	"fixation"	n/a	n/a	n/a	n/a	"NULL"	"NULL"	"NULL"	n/a	"<p style=\"color: black; font-size: 80px; padding-left: 35%; padding-right: 17%; padding-top: 17%; padding-bottom: 6%\">+</p>"	n/a	"1468"	n/a	n/a	n/a	n/a	n/a	n/a	n/a	n/a	n/a
n/a	"image-keyboard-response"	"97"	"160577"	"0.0-4.0-2.0-1.22"	"qh07hl"	"600"	"1366"	"chrome"	"108.0.0"	"FALSE"	"Windows 10"	"60.56"	n/a	n/a	n/a	n/a	n/a	n/a	"Trial"	n/a	n/a	n/a	n/a	"NULL"	"NULL"	"NULL"	"467"	"stimuli/Ebbinghaus_0.61429_0.15857.png"	"arrowleft"	n/a	"Ebbinghaus"	"arrowleft"	"1478"	"TRUE"	"Ebbinghaus"	"0.6142900000"	"0.1585700000"	"1"	"41"
n/a	"html-keyboard-response"	"98"	"161901"	"0.0-4.0-2.0-0.23"	"qh07hl"	"600"	"1366"	"chrome"	"108.0.0"	"FALSE"	"Windows 10"	"60.56"	n/a	n/a	n/a	n/a	n/a	n/a	"fixation"	n/a	n/a	n/a	n/a	"NULL"	"NULL"	"NULL"	n/a	"<p style=\"color: black; font-size: 80px; padding-left: 29%; padding-right: 21%; padding-top: 12%; padding-bottom: 21%\">+</p>"	n/a	"1319"	n/a	n/a	n/a	n/a	n/a	n/a	n/a	n/a	n/a
n/a	"image-keyboard-response"	"99"	"162418"	"0.0-4.0-2.0-1.23"	"qh07hl"	"600"	"1366"	"chrome"	"108.0.0"	"FALSE"	"Windows 10"	"60.56"	n/a	n/a	n/a	n/a	n/a	n/a	"Trial"	n/a	n/a	n/a	n/a	"NULL"	"NULL"	"NULL"	"515"	"stimuli/Ebbinghaus_0.35714_-0.15857.png"	"arrowright"	n/a	"Ebbinghaus"	"arrowright"	"1324"	"TRUE"	"Ebbinghaus"	"0.3571400000"	"-0.158570000"	"1"	"42"
n/a	"html-keyboard-response"	"100"	"163594"	"0.0-4.0-2.0-0.24"	"qh07hl"	"600"	"1366"	"chrome"	"108.0.0"	"FALSE"	"Windows 10"	"60.56"	n/a	n/a	n/a	n/a	n/a	n/a	"fixation"	n/a	n/a	n/a	n/a	"NULL"	"NULL"	"NULL"	n/a	"<p style=\"color: black; font-size: 80px; padding-left: 35%; padding-right: 23%; padding-top: 9%; padding-bottom: 8%\">+</p>"	n/a	"1153"	n/a	n/a	n/a	n/a	n/a	n/a	n/a	n/a	n/a
n/a	"image-keyboard-response"	"101"	"164005"	"0.0-4.0-2.0-1.24"	"qh07hl"	"600"	"1366"	"chrome"	"108.0.0"	"FALSE"	"Windows 10"	"60.56"	n/a	n/a	n/a	n/a	n/a	n/a	"Trial"	n/a	n/a	n/a	n/a	"NULL"	"NULL"	"NULL"	"409"	"stimuli/Ebbinghaus_-0.35714_0.28000.png"	"arrowleft"	n/a	"Ebbinghaus"	"arrowleft"	"1176"	"TRUE"	"Ebbinghaus"	"-0.357140000"	"0.2800000000"	"1"	"43"
n/a	"html-keyboard-response"	"102"	"165367"	"0.0-4.0-2.0-0.25"	"qh07hl"	"600"	"1366"	"chrome"	"108.0.0"	"FALSE"	"Windows 10"	"60.56"	n/a	n/a	n/a	n/a	n/a	n/a	"fixation"	n/a	n/a	n/a	n/a	"NULL"	"NULL"	"NULL"	n/a	"<p style=\"color: black; font-size: 80px; padding-left: 1%; padding-right: 12%; padding-top: 37%; padding-bottom: 29%\">+</p>"	n/a	"1355"	n/a	n/a	n/a	n/a	n/a	n/a	n/a	n/a	n/a
n/a	"image-keyboard-response"	"103"	"165853"	"0.0-4.0-2.0-1.25"	"qh07hl"	"600"	"1366"	"chrome"	"108.0.0"	"FALSE"	"Windows 10"	"60.56"	n/a	n/a	n/a	n/a	n/a	n/a	"Trial"	n/a	n/a	n/a	n/a	"NULL"	"NULL"	"NULL"	"485"	"stimuli/Ebbinghaus_0.10000_-0.2150.png"	"arrowright"	n/a	"Ebbinghaus"	"arrowright"	"1362"	"TRUE"	"Ebbinghaus"	"0.1000000000"	"-0.215000000"	"1"	"44"
n/a	"html-keyboard-response"	"104"	"167049"	"0.0-4.0-2.0-0.26"	"qh07hl"	"600"	"1366"	"chrome"	"108.0.0"	"FALSE"	"Windows 10"	"60.56"	n/a	n/a	n/a	n/a	n/a	n/a	"fixation"	n/a	n/a	n/a	n/a	"NULL"	"NULL"	"NULL"	n/a	"<p style=\"color: black; font-size: 80px; padding-left: 13%; padding-right: 44%; padding-top: 32%; padding-bottom: 44%\">+</p>"	n/a	"1178"	n/a	n/a	n/a	n/a	n/a	n/a	n/a	n/a	n/a
n/a	"image-keyboard-response"	"105"	"167459"	"0.0-4.0-2.0-1.26"	"qh07hl"	"600"	"1366"	"chrome"	"108.0.0"	"FALSE"	"Windows 10"	"60.56"	n/a	n/a	n/a	n/a	n/a	n/a	"Trial"	n/a	n/a	n/a	n/a	"NULL"	"NULL"	"NULL"	"410"	"stimuli/Ebbinghaus_0.87143_0.21500.png"	"arrowleft"	n/a	"Ebbinghaus"	"arrowleft"	"1196"	"TRUE"	"Ebbinghaus"	"0.8714300000"	"0.2150000000"	"1"	"45"
n/a	"html-keyboard-response"	"106"	"168937"	"0.0-4.0-2.0-0.27"	"qh07hl"	"600"	"1366"	"chrome"	"108.0.0"	"FALSE"	"Windows 10"	"60.56"	n/a	n/a	n/a	n/a	n/a	n/a	"fixation"	n/a	n/a	n/a	n/a	"NULL"	"NULL"	"NULL"	n/a	"<p style=\"color: black; font-size: 80px; padding-left: 9%; padding-right: 5%; padding-top: 33%; padding-bottom: 26%\">+</p>"	n/a	"1456"	n/a	n/a	n/a	n/a	n/a	n/a	n/a	n/a	n/a
n/a	"image-keyboard-response"	"107"	"169376"	"0.0-4.0-2.0-1.27"	"qh07hl"	"600"	"1366"	"chrome"	"108.0.0"	"FALSE"	"Windows 10"	"60.56"	n/a	n/a	n/a	n/a	n/a	n/a	"Trial"	n/a	n/a	n/a	n/a	"NULL"	"NULL"	"NULL"	"436"	"stimuli/Ebbinghaus_-0.1000_0.28000.png"	"arrowleft"	n/a	"Ebbinghaus"	"arrowleft"	"1478"	"TRUE"	"Ebbinghaus"	"-0.100000000"	"0.2800000000"	"1"	"46"
n/a	"html-keyboard-response"	"108"	"170666"	"0.0-4.0-2.0-0.28"	"qh07hl"	"600"	"1366"	"chrome"	"108.0.0"	"FALSE"	"Windows 10"	"60.56"	n/a	n/a	n/a	n/a	n/a	n/a	"fixation"	n/a	n/a	n/a	n/a	"NULL"	"NULL"	"NULL"	n/a	"<p style=\"color: black; font-size: 80px; padding-left: 5%; padding-right: 4%; padding-top: 26%; padding-bottom: 10%\">+</p>"	n/a	"1278"	n/a	n/a	n/a	n/a	n/a	n/a	n/a	n/a	n/a
n/a	"image-keyboard-response"	"109"	"171074"	"0.0-4.0-2.0-1.28"	"qh07hl"	"600"	"1366"	"chrome"	"108.0.0"	"FALSE"	"Windows 10"	"60.56"	n/a	n/a	n/a	n/a	n/a	n/a	"Trial"	n/a	n/a	n/a	n/a	"NULL"	"NULL"	"NULL"	"406"	"stimuli/Ebbinghaus_0.10000_0.15857.png"	"arrowleft"	n/a	"Ebbinghaus"	"arrowleft"	"1290"	"TRUE"	"Ebbinghaus"	"0.1000000000"	"0.1585700000"	"1"	"47"
n/a	"html-keyboard-response"	"110"	"172316"	"0.0-4.0-2.0-0.29"	"qh07hl"	"600"	"1366"	"chrome"	"108.0.0"	"FALSE"	"Windows 10"	"60.56"	n/a	n/a	n/a	n/a	n/a	n/a	"fixation"	n/a	n/a	n/a	n/a	"NULL"	"NULL"	"NULL"	n/a	"<p style=\"color: black; font-size: 80px; padding-left: 12%; padding-right: 42%; padding-top: 43%; padding-bottom: 39%\">+</p>"	n/a	"1225"	n/a	n/a	n/a	n/a	n/a	n/a	n/a	n/a	n/a
n/a	"image-keyboard-response"	"111"	"172982"	"0.0-4.0-2.0-1.29"	"qh07hl"	"600"	"1366"	"chrome"	"108.0.0"	"FALSE"	"Windows 10"	"60.56"	n/a	n/a	n/a	n/a	n/a	n/a	"Trial"	n/a	n/a	n/a	n/a	"NULL"	"NULL"	"NULL"	"664"	"stimuli/Ebbinghaus_0.10000_-0.11071.png"	"arrowright"	n/a	"Ebbinghaus"	"arrowright"	"1242"	"TRUE"	"Ebbinghaus"	"0.1000000000"	"-0.110710000"	"1"	"48"
n/a	"html-keyboard-response"	"112"	"173997"	"0.0-4.0-2.0-0.30"	"qh07hl"	"600"	"1366"	"chrome"	"108.0.0"	"FALSE"	"Windows 10"	"60.56"	n/a	n/a	n/a	n/a	n/a	n/a	"fixation"	n/a	n/a	n/a	n/a	"NULL"	"NULL"	"NULL"	n/a	"<p style=\"color: black; font-size: 80px; padding-left: 7%; padding-right: 20%; padding-top: 44%; padding-bottom: 49%\">+</p>"	n/a	"1003"	n/a	n/a	n/a	n/a	n/a	n/a	n/a	n/a	n/a
n/a	"image-keyboard-response"	"113"	"174375"	"0.0-4.0-2.0-1.30"	"qh07hl"	"600"	"1366"	"chrome"	"108.0.0"	"FALSE"	"Windows 10"	"60.56"	n/a	n/a	n/a	n/a	n/a	n/a	"Trial"	n/a	n/a	n/a	n/a	"NULL"	"NULL"	"NULL"	"375"	"stimuli/Ebbinghaus_0.87143_-0.11071.png"	"arrowright"	n/a	"Ebbinghaus"	"arrowright"	"1015"	"TRUE"	"Ebbinghaus"	"0.8714300000"	"-0.110710000"	"1"	"49"
n/a	"html-keyboard-response"	"114"	"175820"	"0.0-4.0-2.0-0.31"	"qh07hl"	"600"	"1366"	"chrome"	"108.0.0"	"FALSE"	"Windows 10"	"60.56"	n/a	n/a	n/a	n/a	n/a	n/a	"fixation"	n/a	n/a	n/a	n/a	"NULL"	"NULL"	"NULL"	n/a	"<p style=\"color: black; font-size: 80px; padding-left: 47%; padding-right: 5%; padding-top: 7%; padding-bottom: 8%\">+</p>"	n/a	"1434"	n/a	n/a	n/a	n/a	n/a	n/a	n/a	n/a	n/a
n/a	"image-keyboard-response"	"115"	"176235"	"0.0-4.0-2.0-1.31"	"qh07hl"	"600"	"1366"	"chrome"	"108.0.0"	"FALSE"	"Windows 10"	"60.56"	n/a	n/a	n/a	n/a	n/a	n/a	"Trial"	n/a	n/a	n/a	n/a	"NULL"	"NULL"	"NULL"	"414"	"stimuli/Ebbinghaus_-0.35714_-0.2800.png"	"arrowright"	n/a	"Ebbinghaus"	"arrowright"	"1445"	"TRUE"	"Ebbinghaus"	"-0.357140000"	"-0.280000000"	"1"	"50"
n/a	"html-keyboard-response"	"116"	"177599"	"0.0-4.0-2.0-0.32"	"qh07hl"	"600"	"1366"	"chrome"	"108.0.0"	"FALSE"	"Windows 10"	"60.56"	n/a	n/a	n/a	n/a	n/a	n/a	"fixation"	n/a	n/a	n/a	n/a	"NULL"	"NULL"	"NULL"	n/a	"<p style=\"color: black; font-size: 80px; padding-left: 49%; padding-right: 40%; padding-top: 6%; padding-bottom: 10%\">+</p>"	n/a	"1359"	n/a	n/a	n/a	n/a	n/a	n/a	n/a	n/a	n/a
n/a	"image-keyboard-response"	"117"	"178057"	"0.0-4.0-2.0-1.32"	"qh07hl"	"600"	"1366"	"chrome"	"108.0.0"	"FALSE"	"Windows 10"	"60.56"	n/a	n/a	n/a	n/a	n/a	n/a	"Trial"	n/a	n/a	n/a	n/a	"NULL"	"NULL"	"NULL"	"457"	"stimuli/Ebbinghaus_0.10000_-0.2800.png"	"arrowright"	n/a	"Ebbinghaus"	"arrowright"	"1364"	"TRUE"	"Ebbinghaus"	"0.1000000000"	"-0.280000000"	"1"	"51"
n/a	"html-keyboard-response"	"118"	"179090"	"0.0-4.0-2.0-0.33"	"qh07hl"	"600"	"1366"	"chrome"	"108.0.0"	"FALSE"	"Windows 10"	"60.56"	n/a	n/a	n/a	n/a	n/a	n/a	"fixation"	n/a	n/a	n/a	n/a	"NULL"	"NULL"	"NULL"	n/a	"<p style=\"color: black; font-size: 80px; padding-left: 42%; padding-right: 18%; padding-top: 34%; padding-bottom: 18%\">+</p>"	n/a	"1023"	n/a	n/a	n/a	n/a	n/a	n/a	n/a	n/a	n/a
n/a	"image-keyboard-response"	"119"	"179565"	"0.0-4.0-2.0-1.33"	"qh07hl"	"600"	"1366"	"chrome"	"108.0.0"	"FALSE"	"Windows 10"	"60.56"	n/a	n/a	n/a	n/a	n/a	n/a	"Trial"	n/a	n/a	n/a	n/a	"NULL"	"NULL"	"NULL"	"475"	"stimuli/Ebbinghaus_-0.87143_-0.2150.png"	"arrowright"	n/a	"Ebbinghaus"	"arrowright"	"1033"	"TRUE"	"Ebbinghaus"	"-0.871430000"	"-0.215000000"	"1"	"52"
n/a	"html-keyboard-response"	"120"	"180771"	"0.0-4.0-2.0-0.34"	"qh07hl"	"600"	"1366"	"chrome"	"108.0.0"	"FALSE"	"Windows 10"	"60.56"	n/a	n/a	n/a	n/a	n/a	n/a	"fixation"	n/a	n/a	n/a	n/a	"NULL"	"NULL"	"NULL"	n/a	"<p style=\"color: black; font-size: 80px; padding-left: 15%; padding-right: 5%; padding-top: 41%; padding-bottom: 20%\">+</p>"	n/a	"1189"	n/a	n/a	n/a	n/a	n/a	n/a	n/a	n/a	n/a
n/a	"image-keyboard-response"	"121"	"181313"	"0.0-4.0-2.0-1.34"	"qh07hl"	"600"	"1366"	"chrome"	"108.0.0"	"FALSE"	"Windows 10"	"60.56"	n/a	n/a	n/a	n/a	n/a	n/a	"Trial"	n/a	n/a	n/a	n/a	"NULL"	"NULL"	"NULL"	"540"	"stimuli/Ebbinghaus_-0.35714_0.15857.png"	"arrowleft"	n/a	"Ebbinghaus"	"arrowleft"	"1206"	"TRUE"	"Ebbinghaus"	"-0.357140000"	"0.1585700000"	"1"	"53"
n/a	"html-keyboard-response"	"122"	"182497"	"0.0-4.0-2.0-0.35"	"qh07hl"	"600"	"1366"	"chrome"	"108.0.0"	"FALSE"	"Windows 10"	"60.56"	n/a	n/a	n/a	n/a	n/a	n/a	"fixation"	n/a	n/a	n/a	n/a	"NULL"	"NULL"	"NULL"	n/a	"<p style=\"color: black; font-size: 80px; padding-left: 37%; padding-right: 50%; padding-top: 26%; padding-bottom: 11%\">+</p>"	n/a	"1174"	n/a	n/a	n/a	n/a	n/a	n/a	n/a	n/a	n/a
n/a	"image-keyboard-response"	"123"	"182904"	"0.0-4.0-2.0-1.35"	"qh07hl"	"600"	"1366"	"chrome"	"108.0.0"	"FALSE"	"Windows 10"	"60.56"	n/a	n/a	n/a	n/a	n/a	n/a	"Trial"	n/a	n/a	n/a	n/a	"NULL"	"NULL"	"NULL"	"406"	"stimuli/Ebbinghaus_0.35714_0.21500.png"	"arrowleft"	n/a	"Ebbinghaus"	"arrowleft"	"1184"	"TRUE"	"Ebbinghaus"	"0.3571400000"	"0.2150000000"	"1"	"54"
n/a	"html-keyboard-response"	"124"	"184018"	"0.0-4.0-2.0-0.36"	"qh07hl"	"600"	"1366"	"chrome"	"108.0.0"	"FALSE"	"Windows 10"	"60.56"	n/a	n/a	n/a	n/a	n/a	n/a	"fixation"	n/a	n/a	n/a	n/a	"NULL"	"NULL"	"NULL"	n/a	"<p style=\"color: black; font-size: 80px; padding-left: 24%; padding-right: 44%; padding-top: 41%; padding-bottom: 46%\">+</p>"	n/a	"1098"	n/a	n/a	n/a	n/a	n/a	n/a	n/a	n/a	n/a
n/a	"image-keyboard-response"	"125"	"184425"	"0.0-4.0-2.0-1.36"	"qh07hl"	"600"	"1366"	"chrome"	"108.0.0"	"FALSE"	"Windows 10"	"60.56"	n/a	n/a	n/a	n/a	n/a	n/a	"Trial"	n/a	n/a	n/a	n/a	"NULL"	"NULL"	"NULL"	"401"	"stimuli/Ebbinghaus_-0.61429_0.21500.png"	"arrowleft"	n/a	"Ebbinghaus"	"arrowleft"	"1114"	"TRUE"	"Ebbinghaus"	"-0.614290000"	"0.2150000000"	"1"	"55"
n/a	"html-keyboard-response"	"126"	"185660"	"0.0-4.0-2.0-0.37"	"qh07hl"	"600"	"1366"	"chrome"	"108.0.0"	"FALSE"	"Windows 10"	"60.56"	n/a	n/a	n/a	n/a	n/a	n/a	"fixation"	n/a	n/a	n/a	n/a	"NULL"	"NULL"	"NULL"	n/a	"<p style=\"color: black; font-size: 80px; padding-left: 31%; padding-right: 33%; padding-top: 50%; padding-bottom: 24%\">+</p>"	n/a	"1220"	n/a	n/a	n/a	n/a	n/a	n/a	n/a	n/a	n/a
n/a	"image-keyboard-response"	"127"	"186178"	"0.0-4.0-2.0-1.37"	"qh07hl"	"600"	"1366"	"chrome"	"108.0.0"	"FALSE"	"Windows 10"	"60.56"	n/a	n/a	n/a	n/a	n/a	n/a	"Trial"	n/a	n/a	n/a	n/a	"NULL"	"NULL"	"NULL"	"518"	"stimuli/Ebbinghaus_0.87143_0.11071.png"	"arrowright"	n/a	"Ebbinghaus"	"arrowleft"	"1235"	"FALSE"	"Ebbinghaus"	"0.8714300000"	"0.1107100000"	"1"	"56"
n/a	"html-keyboard-response"	"128"	"187558"	"0.0-4.0-2.0-0.38"	"qh07hl"	"600"	"1366"	"chrome"	"108.0.0"	"FALSE"	"Windows 10"	"60.56"	n/a	n/a	n/a	n/a	n/a	n/a	"fixation"	n/a	n/a	n/a	n/a	"NULL"	"NULL"	"NULL"	n/a	"<p style=\"color: black; font-size: 80px; padding-left: 0%; padding-right: 25%; padding-top: 30%; padding-bottom: 46%\">+</p>"	n/a	"1371"	n/a	n/a	n/a	n/a	n/a	n/a	n/a	n/a	n/a
n/a	"image-keyboard-response"	"129"	"187967"	"0.0-4.0-2.0-1.38"	"qh07hl"	"600"	"1366"	"chrome"	"108.0.0"	"FALSE"	"Windows 10"	"60.56"	n/a	n/a	n/a	n/a	n/a	n/a	"Trial"	n/a	n/a	n/a	n/a	"NULL"	"NULL"	"NULL"	"400"	"stimuli/Ebbinghaus_-0.61429_-0.2800.png"	"arrowright"	n/a	"Ebbinghaus"	"arrowright"	"1380"	"TRUE"	"Ebbinghaus"	"-0.614290000"	"-0.280000000"	"1"	"57"
n/a	"html-keyboard-response"	"130"	"189304"	"0.0-4.0-2.0-0.39"	"qh07hl"	"600"	"1366"	"chrome"	"108.0.0"	"FALSE"	"Windows 10"	"60.56"	n/a	n/a	n/a	n/a	n/a	n/a	"fixation"	n/a	n/a	n/a	n/a	"NULL"	"NULL"	"NULL"	n/a	"<p style=\"color: black; font-size: 80px; padding-left: 38%; padding-right: 17%; padding-top: 49%; padding-bottom: 33%\">+</p>"	n/a	"1321"	n/a	n/a	n/a	n/a	n/a	n/a	n/a	n/a	n/a
n/a	"image-keyboard-response"	"131"	"189715"	"0.0-4.0-2.0-1.39"	"qh07hl"	"600"	"1366"	"chrome"	"108.0.0"	"FALSE"	"Windows 10"	"60.56"	n/a	n/a	n/a	n/a	n/a	n/a	"Trial"	n/a	n/a	n/a	n/a	"NULL"	"NULL"	"NULL"	"410"	"stimuli/Ebbinghaus_0.87143_-0.2800.png"	"arrowright"	n/a	"Ebbinghaus"	"arrowright"	"1337"	"TRUE"	"Ebbinghaus"	"0.8714300000"	"-0.280000000"	"1"	"58"
n/a	"html-keyboard-response"	"132"	"190774"	"0.0-4.0-2.0-0.40"	"qh07hl"	"600"	"1366"	"chrome"	"108.0.0"	"FALSE"	"Windows 10"	"60.56"	n/a	n/a	n/a	n/a	n/a	n/a	"fixation"	n/a	n/a	n/a	n/a	"NULL"	"NULL"	"NULL"	n/a	"<p style=\"color: black; font-size: 80px; padding-left: 34%; padding-right: 23%; padding-top: 13%; padding-bottom: 47%\">+</p>"	n/a	"1045"	n/a	n/a	n/a	n/a	n/a	n/a	n/a	n/a	n/a
n/a	"image-keyboard-response"	"133"	"191194"	"0.0-4.0-2.0-1.40"	"qh07hl"	"600"	"1366"	"chrome"	"108.0.0"	"FALSE"	"Windows 10"	"60.56"	n/a	n/a	n/a	n/a	n/a	n/a	"Trial"	n/a	n/a	n/a	n/a	"NULL"	"NULL"	"NULL"	"419"	"stimuli/Ebbinghaus_0.35714_0.11071.png"	"arrowright"	n/a	"Ebbinghaus"	"arrowleft"	"1059"	"FALSE"	"Ebbinghaus"	"0.3571400000"	"0.1107100000"	"1"	"59"
n/a	"html-keyboard-response"	"134"	"192268"	"0.0-4.0-2.0-0.41"	"qh07hl"	"600"	"1366"	"chrome"	"108.0.0"	"FALSE"	"Windows 10"	"60.56"	n/a	n/a	n/a	n/a	n/a	n/a	"fixation"	n/a	n/a	n/a	n/a	"NULL"	"NULL"	"NULL"	n/a	"<p style=\"color: black; font-size: 80px; padding-left: 20%; padding-right: 21%; padding-top: 49%; padding-bottom: 12%\">+</p>"	n/a	"1055"	n/a	n/a	n/a	n/a	n/a	n/a	n/a	n/a	n/a
n/a	"image-keyboard-response"	"135"	"192750"	"0.0-4.0-2.0-1.41"	"qh07hl"	"600"	"1366"	"chrome"	"108.0.0"	"FALSE"	"Windows 10"	"60.56"	n/a	n/a	n/a	n/a	n/a	n/a	"Trial"	n/a	n/a	n/a	n/a	"NULL"	"NULL"	"NULL"	"481"	"stimuli/Ebbinghaus_0.10000_-0.15857.png"	"arrowright"	n/a	"Ebbinghaus"	"arrowright"	"1074"	"TRUE"	"Ebbinghaus"	"0.1000000000"	"-0.158570000"	"1"	"60"
n/a	"html-keyboard-response"	"136"	"193779"	"0.0-4.0-2.0-0.42"	"qh07hl"	"600"	"1366"	"chrome"	"108.0.0"	"FALSE"	"Windows 10"	"60.56"	n/a	n/a	n/a	n/a	n/a	n/a	"fixation"	n/a	n/a	n/a	n/a	"NULL"	"NULL"	"NULL"	n/a	"<p style=\"color: black; font-size: 80px; padding-left: 14%; padding-right: 19%; padding-top: 32%; padding-bottom: 39%\">+</p>"	n/a	"1016"	n/a	n/a	n/a	n/a	n/a	n/a	n/a	n/a	n/a
n/a	"image-keyboard-response"	"137"	"194271"	"0.0-4.0-2.0-1.42"	"qh07hl"	"600"	"1366"	"chrome"	"108.0.0"	"FALSE"	"Windows 10"	"60.56"	n/a	n/a	n/a	n/a	n/a	n/a	"Trial"	n/a	n/a	n/a	n/a	"NULL"	"NULL"	"NULL"	"490"	"stimuli/Ebbinghaus_-0.61429_0.15857.png"	"arrowleft"	n/a	"Ebbinghaus"	"arrowleft"	"1029"	"TRUE"	"Ebbinghaus"	"-0.614290000"	"0.1585700000"	"1"	"61"
n/a	"html-keyboard-response"	"138"	"195326"	"0.0-4.0-2.0-0.43"	"qh07hl"	"600"	"1366"	"chrome"	"108.0.0"	"FALSE"	"Windows 10"	"60.56"	n/a	n/a	n/a	n/a	n/a	n/a	"fixation"	n/a	n/a	n/a	n/a	"NULL"	"NULL"	"NULL"	n/a	"<p style=\"color: black; font-size: 80px; padding-left: 5%; padding-right: 46%; padding-top: 9%; padding-bottom: 5%\">+</p>"	n/a	"1037"	n/a	n/a	n/a	n/a	n/a	n/a	n/a	n/a	n/a
n/a	"image-keyboard-response"	"139"	"195741"	"0.0-4.0-2.0-1.43"	"qh07hl"	"600"	"1366"	"chrome"	"108.0.0"	"FALSE"	"Windows 10"	"60.56"	n/a	n/a	n/a	n/a	n/a	n/a	"Trial"	n/a	n/a	n/a	n/a	"NULL"	"NULL"	"NULL"	"413"	"stimuli/Ebbinghaus_-0.61429_0.11071.png"	"arrowleft"	n/a	"Ebbinghaus"	"arrowleft"	"1055"	"TRUE"	"Ebbinghaus"	"-0.614290000"	"0.1107100000"	"1"	"62"
n/a	"html-keyboard-response"	"140"	"196851"	"0.0-4.0-2.0-0.44"	"qh07hl"	"600"	"1366"	"chrome"	"108.0.0"	"FALSE"	"Windows 10"	"60.56"	n/a	n/a	n/a	n/a	n/a	n/a	"fixation"	n/a	n/a	n/a	n/a	"NULL"	"NULL"	"NULL"	n/a	"<p style=\"color: black; font-size: 80px; padding-left: 6%; padding-right: 9%; padding-top: 29%; padding-bottom: 46%\">+</p>"	n/a	"1091"	n/a	n/a	n/a	n/a	n/a	n/a	n/a	n/a	n/a
n/a	"image-keyboard-response"	"141"	"197210"	"0.0-4.0-2.0-1.44"	"qh07hl"	"600"	"1366"	"chrome"	"108.0.0"	"FALSE"	"Windows 10"	"60.56"	n/a	n/a	n/a	n/a	n/a	n/a	"Trial"	n/a	n/a	n/a	n/a	"NULL"	"NULL"	"NULL"	"358"	"stimuli/Ebbinghaus_-0.35714_0.21500.png"	"arrowleft"	n/a	"Ebbinghaus"	"arrowleft"	"1110"	"TRUE"	"Ebbinghaus"	"-0.357140000"	"0.2150000000"	"1"	"63"
n/a	"html-keyboard-response"	"142"	"198443"	"0.0-4.0-2.0-0.45"	"qh07hl"	"600"	"1366"	"chrome"	"108.0.0"	"FALSE"	"Windows 10"	"60.56"	n/a	n/a	n/a	n/a	n/a	n/a	"fixation"	n/a	n/a	n/a	n/a	"NULL"	"NULL"	"NULL"	n/a	"<p style=\"color: black; font-size: 80px; padding-left: 6%; padding-right: 48%; padding-top: 45%; padding-bottom: 48%\">+</p>"	n/a	"1222"	n/a	n/a	n/a	n/a	n/a	n/a	n/a	n/a	n/a
n/a	"image-keyboard-response"	"143"	"198782"	"0.0-4.0-2.0-1.45"	"qh07hl"	"600"	"1366"	"chrome"	"108.0.0"	"FALSE"	"Windows 10"	"60.56"	n/a	n/a	n/a	n/a	n/a	n/a	"Trial"	n/a	n/a	n/a	n/a	"NULL"	"NULL"	"NULL"	"338"	"stimuli/Ebbinghaus_0.87143_0.15857.png"	"arrowleft"	n/a	"Ebbinghaus"	"arrowleft"	"1233"	"TRUE"	"Ebbinghaus"	"0.8714300000"	"0.1585700000"	"1"	"64"
n/a	"html-keyboard-response"	"144"	"199928"	"0.0-4.0-2.0-0.46"	"qh07hl"	"600"	"1366"	"chrome"	"108.0.0"	"FALSE"	"Windows 10"	"60.56"	n/a	n/a	n/a	n/a	n/a	n/a	"fixation"	n/a	n/a	n/a	n/a	"NULL"	"NULL"	"NULL"	n/a	"<p style=\"color: black; font-size: 80px; padding-left: 29%; padding-right: 29%; padding-top: 4%; padding-bottom: 12%\">+</p>"	n/a	"1132"	n/a	n/a	n/a	n/a	n/a	n/a	n/a	n/a	n/a
n/a	"image-keyboard-response"	"145"	"200348"	"0.0-4.0-2.0-1.46"	"qh07hl"	"600"	"1366"	"chrome"	"108.0.0"	"FALSE"	"Windows 10"	"60.56"	n/a	n/a	n/a	n/a	n/a	n/a	"Trial"	n/a	n/a	n/a	n/a	"NULL"	"NULL"	"NULL"	"418"	"stimuli/Ebbinghaus_-0.35714_-0.2150.png"	"arrowright"	n/a	"Ebbinghaus"	"arrowright"	"1146"	"TRUE"	"Ebbinghaus"	"-0.357140000"	"-0.215000000"	"1"	"65"
n/a	"html-keyboard-response"	"146"	"201370"	"0.0-4.0-2.0-0.47"	"qh07hl"	"600"	"1366"	"chrome"	"108.0.0"	"FALSE"	"Windows 10"	"60.56"	n/a	n/a	n/a	n/a	n/a	n/a	"fixation"	n/a	n/a	n/a	n/a	"NULL"	"NULL"	"NULL"	n/a	"<p style=\"color: black; font-size: 80px; padding-left: 0%; padding-right: 19%; padding-top: 47%; padding-bottom: 4%\">+</p>"	n/a	"1018"	n/a	n/a	n/a	n/a	n/a	n/a	n/a	n/a	n/a
n/a	"image-keyboard-response"	"147"	"201777"	"0.0-4.0-2.0-1.47"	"qh07hl"	"600"	"1366"	"chrome"	"108.0.0"	"FALSE"	"Windows 10"	"60.56"	n/a	n/a	n/a	n/a	n/a	n/a	"Trial"	n/a	n/a	n/a	n/a	"NULL"	"NULL"	"NULL"	"407"	"stimuli/Ebbinghaus_-0.87143_0.21500.png"	"arrowleft"	n/a	"Ebbinghaus"	"arrowleft"	"1022"	"TRUE"	"Ebbinghaus"	"-0.871430000"	"0.2150000000"	"1"	"66"
n/a	"html-keyboard-response"	"148"	"202802"	"0.0-4.0-2.0-0.48"	"qh07hl"	"600"	"1366"	"chrome"	"108.0.0"	"FALSE"	"Windows 10"	"60.56"	n/a	n/a	n/a	n/a	n/a	n/a	"fixation"	n/a	n/a	n/a	n/a	"NULL"	"NULL"	"NULL"	n/a	"<p style=\"color: black; font-size: 80px; padding-left: 17%; padding-right: 8%; padding-top: 40%; padding-bottom: 24%\">+</p>"	n/a	"1007"	n/a	n/a	n/a	n/a	n/a	n/a	n/a	n/a	n/a
n/a	"image-keyboard-response"	"149"	"203276"	"0.0-4.0-2.0-1.48"	"qh07hl"	"600"	"1366"	"chrome"	"108.0.0"	"FALSE"	"Windows 10"	"60.56"	n/a	n/a	n/a	n/a	n/a	n/a	"Trial"	n/a	n/a	n/a	n/a	"NULL"	"NULL"	"NULL"	"470"	"stimuli/Ebbinghaus_0.61429_0.11071.png"	"arrowright"	n/a	"Ebbinghaus"	"arrowleft"	"1025"	"FALSE"	"Ebbinghaus"	"0.6142900000"	"0.1107100000"	"1"	"67"
n/a	"html-keyboard-response"	"150"	"204524"	"0.0-4.0-2.0-0.49"	"qh07hl"	"600"	"1366"	"chrome"	"108.0.0"	"FALSE"	"Windows 10"	"60.56"	n/a	n/a	n/a	n/a	n/a	n/a	"fixation"	n/a	n/a	n/a	n/a	"NULL"	"NULL"	"NULL"	n/a	"<p style=\"color: black; font-size: 80px; padding-left: 41%; padding-right: 5%; padding-top: 33%; padding-bottom: 29%\">+</p>"	n/a	"1229"	n/a	n/a	n/a	n/a	n/a	n/a	n/a	n/a	n/a
n/a	"image-keyboard-response"	"151"	"204871"	"0.0-4.0-2.0-1.49"	"qh07hl"	"600"	"1366"	"chrome"	"108.0.0"	"FALSE"	"Windows 10"	"60.56"	n/a	n/a	n/a	n/a	n/a	n/a	"Trial"	n/a	n/a	n/a	n/a	"NULL"	"NULL"	"NULL"	"346"	"stimuli/Ebbinghaus_0.35714_0.28000.png"	"arrowleft"	n/a	"Ebbinghaus"	"arrowleft"	"1248"	"TRUE"	"Ebbinghaus"	"0.3571400000"	"0.2800000000"	"1"	"68"
n/a	"html-keyboard-response"	"152"	"206278"	"0.0-4.0-2.0-0.50"	"qh07hl"	"600"	"1366"	"chrome"	"108.0.0"	"FALSE"	"Windows 10"	"60.56"	n/a	n/a	n/a	n/a	n/a	n/a	"fixation"	n/a	n/a	n/a	n/a	"NULL"	"NULL"	"NULL"	n/a	"<p style=\"color: black; font-size: 80px; padding-left: 24%; padding-right: 21%; padding-top: 34%; padding-bottom: 48%\">+</p>"	n/a	"1390"	n/a	n/a	n/a	n/a	n/a	n/a	n/a	n/a	n/a
n/a	"image-keyboard-response"	"153"	"206667"	"0.0-4.0-2.0-1.50"	"qh07hl"	"600"	"1366"	"chrome"	"108.0.0"	"FALSE"	"Windows 10"	"60.56"	n/a	n/a	n/a	n/a	n/a	n/a	"Trial"	n/a	n/a	n/a	n/a	"NULL"	"NULL"	"NULL"	"388"	"stimuli/Ebbinghaus_0.87143_-0.2150.png"	"arrowright"	n/a	"Ebbinghaus"	"arrowright"	"1407"	"TRUE"	"Ebbinghaus"	"0.8714300000"	"-0.215000000"	"1"	"69"
n/a	"html-keyboard-response"	"154"	"207851"	"0.0-4.0-2.0-0.51"	"qh07hl"	"600"	"1366"	"chrome"	"108.0.0"	"FALSE"	"Windows 10"	"60.56"	n/a	n/a	n/a	n/a	n/a	n/a	"fixation"	n/a	n/a	n/a	n/a	"NULL"	"NULL"	"NULL"	n/a	"<p style=\"color: black; font-size: 80px; padding-left: 1%; padding-right: 43%; padding-top: 11%; padding-bottom: 15%\">+</p>"	n/a	"1180"	n/a	n/a	n/a	n/a	n/a	n/a	n/a	n/a	n/a
n/a	"image-keyboard-response"	"155"	"208280"	"0.0-4.0-2.0-1.51"	"qh07hl"	"600"	"1366"	"chrome"	"108.0.0"	"FALSE"	"Windows 10"	"60.56"	n/a	n/a	n/a	n/a	n/a	n/a	"Trial"	n/a	n/a	n/a	n/a	"NULL"	"NULL"	"NULL"	"428"	"stimuli/Ebbinghaus_-0.61429_-0.15857.png"	"arrowleft"	n/a	"Ebbinghaus"	"arrowright"	"1184"	"FALSE"	"Ebbinghaus"	"-0.614290000"	"-0.158570000"	"1"	"70"
n/a	"html-keyboard-response"	"156"	"209382"	"0.0-4.0-2.0-0.52"	"qh07hl"	"600"	"1366"	"chrome"	"108.0.0"	"FALSE"	"Windows 10"	"60.56"	n/a	n/a	n/a	n/a	n/a	n/a	"fixation"	n/a	n/a	n/a	n/a	"NULL"	"NULL"	"NULL"	n/a	"<p style=\"color: black; font-size: 80px; padding-left: 19%; padding-right: 44%; padding-top: 15%; padding-bottom: 45%\">+</p>"	n/a	"1089"	n/a	n/a	n/a	n/a	n/a	n/a	n/a	n/a	n/a
n/a	"image-keyboard-response"	"157"	"209871"	"0.0-4.0-2.0-1.52"	"qh07hl"	"600"	"1366"	"chrome"	"108.0.0"	"FALSE"	"Windows 10"	"60.56"	n/a	n/a	n/a	n/a	n/a	n/a	"Trial"	n/a	n/a	n/a	n/a	"NULL"	"NULL"	"NULL"	"488"	"stimuli/Ebbinghaus_0.35714_-0.11071.png"	"arrowright"	n/a	"Ebbinghaus"	"arrowright"	"1102"	"TRUE"	"Ebbinghaus"	"0.3571400000"	"-0.110710000"	"1"	"71"
n/a	"html-keyboard-response"	"158"	"210954"	"0.0-4.0-2.0-0.53"	"qh07hl"	"600"	"1366"	"chrome"	"108.0.0"	"FALSE"	"Windows 10"	"60.56"	n/a	n/a	n/a	n/a	n/a	n/a	"fixation"	n/a	n/a	n/a	n/a	"NULL"	"NULL"	"NULL"	n/a	"<p style=\"color: black; font-size: 80px; padding-left: 20%; padding-right: 46%; padding-top: 25%; padding-bottom: 12%\">+</p>"	n/a	"1076"	n/a	n/a	n/a	n/a	n/a	n/a	n/a	n/a	n/a
n/a	"image-keyboard-response"	"159"	"211327"	"0.0-4.0-2.0-1.53"	"qh07hl"	"600"	"1366"	"chrome"	"108.0.0"	"FALSE"	"Windows 10"	"60.56"	n/a	n/a	n/a	n/a	n/a	n/a	"Trial"	n/a	n/a	n/a	n/a	"NULL"	"NULL"	"NULL"	"371"	"stimuli/Ebbinghaus_0.61429_0.28000.png"	"arrowleft"	n/a	"Ebbinghaus"	"arrowleft"	"1083"	"TRUE"	"Ebbinghaus"	"0.6142900000"	"0.2800000000"	"1"	"72"
n/a	"html-keyboard-response"	"160"	"212758"	"0.0-4.0-2.0-0.54"	"qh07hl"	"600"	"1366"	"chrome"	"108.0.0"	"FALSE"	"Windows 10"	"60.56"	n/a	n/a	n/a	n/a	n/a	n/a	"fixation"	n/a	n/a	n/a	n/a	"NULL"	"NULL"	"NULL"	n/a	"<p style=\"color: black; font-size: 80px; padding-left: 39%; padding-right: 8%; padding-top: 31%; padding-bottom: 17%\">+</p>"	n/a	"1409"	n/a	n/a	n/a	n/a	n/a	n/a	n/a	n/a	n/a
n/a	"image-keyboard-response"	"161"	"213128"	"0.0-4.0-2.0-1.54"	"qh07hl"	"600"	"1366"	"chrome"	"108.0.0"	"FALSE"	"Windows 10"	"60.56"	n/a	n/a	n/a	n/a	n/a	n/a	"Trial"	n/a	n/a	n/a	n/a	"NULL"	"NULL"	"NULL"	"369"	"stimuli/Ebbinghaus_0.61429_-0.15857.png"	"arrowright"	n/a	"Ebbinghaus"	"arrowright"	"1431"	"TRUE"	"Ebbinghaus"	"0.6142900000"	"-0.158570000"	"1"	"73"
n/a	"html-keyboard-response"	"162"	"214151"	"0.0-4.0-2.0-0.55"	"qh07hl"	"600"	"1366"	"chrome"	"108.0.0"	"FALSE"	"Windows 10"	"60.56"	n/a	n/a	n/a	n/a	n/a	n/a	"fixation"	n/a	n/a	n/a	n/a	"NULL"	"NULL"	"NULL"	n/a	"<p style=\"color: black; font-size: 80px; padding-left: 29%; padding-right: 3%; padding-top: 28%; padding-bottom: 9%\">+</p>"	n/a	"1003"	n/a	n/a	n/a	n/a	n/a	n/a	n/a	n/a	n/a
n/a	"image-keyboard-response"	"163"	"214572"	"0.0-4.0-2.0-1.55"	"qh07hl"	"600"	"1366"	"chrome"	"108.0.0"	"FALSE"	"Windows 10"	"60.56"	n/a	n/a	n/a	n/a	n/a	n/a	"Trial"	n/a	n/a	n/a	n/a	"NULL"	"NULL"	"NULL"	"419"	"stimuli/Ebbinghaus_0.61429_-0.2800.png"	"arrowright"	n/a	"Ebbinghaus"	"arrowright"	"1023"	"TRUE"	"Ebbinghaus"	"0.6142900000"	"-0.280000000"	"1"	"74"
n/a	"html-keyboard-response"	"164"	"215917"	"0.0-4.0-2.0-0.56"	"qh07hl"	"600"	"1366"	"chrome"	"108.0.0"	"FALSE"	"Windows 10"	"60.56"	n/a	n/a	n/a	n/a	n/a	n/a	"fixation"	n/a	n/a	n/a	n/a	"NULL"	"NULL"	"NULL"	n/a	"<p style=\"color: black; font-size: 80px; padding-left: 0%; padding-right: 39%; padding-top: 41%; padding-bottom: 26%\">+</p>"	n/a	"1334"	n/a	n/a	n/a	n/a	n/a	n/a	n/a	n/a	n/a
n/a	"image-keyboard-response"	"165"	"216339"	"0.0-4.0-2.0-1.56"	"qh07hl"	"600"	"1366"	"chrome"	"108.0.0"	"FALSE"	"Windows 10"	"60.56"	n/a	n/a	n/a	n/a	n/a	n/a	"Trial"	n/a	n/a	n/a	n/a	"NULL"	"NULL"	"NULL"	"420"	"stimuli/Ebbinghaus_-0.1000_0.11071.png"	"arrowleft"	n/a	"Ebbinghaus"	"arrowleft"	"1345"	"TRUE"	"Ebbinghaus"	"-0.100000000"	"0.1107100000"	"1"	"75"
n/a	"html-keyboard-response"	"166"	"217411"	"0.0-4.0-2.0-0.57"	"qh07hl"	"600"	"1366"	"chrome"	"108.0.0"	"FALSE"	"Windows 10"	"60.56"	n/a	n/a	n/a	n/a	n/a	n/a	"fixation"	n/a	n/a	n/a	n/a	"NULL"	"NULL"	"NULL"	n/a	"<p style=\"color: black; font-size: 80px; padding-left: 15%; padding-right: 9%; padding-top: 22%; padding-bottom: 27%\">+</p>"	n/a	"1057"	n/a	n/a	n/a	n/a	n/a	n/a	n/a	n/a	n/a
n/a	"image-keyboard-response"	"167"	"217877"	"0.0-4.0-2.0-1.57"	"qh07hl"	"600"	"1366"	"chrome"	"108.0.0"	"FALSE"	"Windows 10"	"60.56"	n/a	n/a	n/a	n/a	n/a	n/a	"Trial"	n/a	n/a	n/a	n/a	"NULL"	"NULL"	"NULL"	"465"	"stimuli/Ebbinghaus_-0.61429_-0.11071.png"	"arrowright"	n/a	"Ebbinghaus"	"arrowright"	"1072"	"TRUE"	"Ebbinghaus"	"-0.614290000"	"-0.110710000"	"1"	"76"
n/a	"html-keyboard-response"	"168"	"219101"	"0.0-4.0-2.0-0.58"	"qh07hl"	"600"	"1366"	"chrome"	"108.0.0"	"FALSE"	"Windows 10"	"60.56"	n/a	n/a	n/a	n/a	n/a	n/a	"fixation"	n/a	n/a	n/a	n/a	"NULL"	"NULL"	"NULL"	n/a	"<p style=\"color: black; font-size: 80px; padding-left: 40%; padding-right: 11%; padding-top: 10%; padding-bottom: 48%\">+</p>"	n/a	"1210"	n/a	n/a	n/a	n/a	n/a	n/a	n/a	n/a	n/a
n/a	"image-keyboard-response"	"169"	"219506"	"0.0-4.0-2.0-1.58"	"qh07hl"	"600"	"1366"	"chrome"	"108.0.0"	"FALSE"	"Windows 10"	"60.56"	n/a	n/a	n/a	n/a	n/a	n/a	"Trial"	n/a	n/a	n/a	n/a	"NULL"	"NULL"	"NULL"	"404"	"stimuli/Ebbinghaus_0.10000_0.11071.png"	"arrowright"	n/a	"Ebbinghaus"	"arrowleft"	"1224"	"FALSE"	"Ebbinghaus"	"0.1000000000"	"0.1107100000"	"1"	"77"
n/a	"html-keyboard-response"	"170"	"220723"	"0.0-4.0-2.0-0.59"	"qh07hl"	"600"	"1366"	"chrome"	"108.0.0"	"FALSE"	"Windows 10"	"60.56"	n/a	n/a	n/a	n/a	n/a	n/a	"fixation"	n/a	n/a	n/a	n/a	"NULL"	"NULL"	"NULL"	n/a	"<p style=\"color: black; font-size: 80px; padding-left: 48%; padding-right: 5%; padding-top: 42%; padding-bottom: 10%\">+</p>"	n/a	"1206"	n/a	n/a	n/a	n/a	n/a	n/a	n/a	n/a	n/a
n/a	"image-keyboard-response"	"171"	"221101"	"0.0-4.0-2.0-1.59"	"qh07hl"	"600"	"1366"	"chrome"	"108.0.0"	"FALSE"	"Windows 10"	"60.56"	n/a	n/a	n/a	n/a	n/a	n/a	"Trial"	n/a	n/a	n/a	n/a	"NULL"	"NULL"	"NULL"	"377"	"stimuli/Ebbinghaus_0.10000_0.21500.png"	"arrowleft"	n/a	"Ebbinghaus"	"arrowleft"	"1217"	"TRUE"	"Ebbinghaus"	"0.1000000000"	"0.2150000000"	"1"	"78"
n/a	"html-keyboard-response"	"172"	"222276"	"0.0-4.0-2.0-0.60"	"qh07hl"	"600"	"1366"	"chrome"	"108.0.0"	"FALSE"	"Windows 10"	"60.56"	n/a	n/a	n/a	n/a	n/a	n/a	"fixation"	n/a	n/a	n/a	n/a	"NULL"	"NULL"	"NULL"	n/a	"<p style=\"color: black; font-size: 80px; padding-left: 3%; padding-right: 35%; padding-top: 15%; padding-bottom: 31%\">+</p>"	n/a	"1159"	n/a	n/a	n/a	n/a	n/a	n/a	n/a	n/a	n/a
n/a	"image-keyboard-response"	"173"	"222719"	"0.0-4.0-2.0-1.60"	"qh07hl"	"600"	"1366"	"chrome"	"108.0.0"	"FALSE"	"Windows 10"	"60.56"	n/a	n/a	n/a	n/a	n/a	n/a	"Trial"	n/a	n/a	n/a	n/a	"NULL"	"NULL"	"NULL"	"441"	"stimuli/Ebbinghaus_-0.87143_-0.15857.png"	"arrowright"	n/a	"Ebbinghaus"	"arrowright"	"1175"	"TRUE"	"Ebbinghaus"	"-0.871430000"	"-0.158570000"	"1"	"79"
n/a	"html-keyboard-response"	"174"	"224220"	"0.0-4.0-2.0-0.61"	"qh07hl"	"600"	"1366"	"chrome"	"108.0.0"	"FALSE"	"Windows 10"	"60.56"	n/a	n/a	n/a	n/a	n/a	n/a	"fixation"	n/a	n/a	n/a	n/a	"NULL"	"NULL"	"NULL"	n/a	"<p style=\"color: black; font-size: 80px; padding-left: 21%; padding-right: 2%; padding-top: 2%; padding-bottom: 6%\">+</p>"	n/a	"1496"	n/a	n/a	n/a	n/a	n/a	n/a	n/a	n/a	n/a
n/a	"image-keyboard-response"	"175"	"224680"	"0.0-4.0-2.0-1.61"	"qh07hl"	"600"	"1366"	"chrome"	"108.0.0"	"FALSE"	"Windows 10"	"60.56"	n/a	n/a	n/a	n/a	n/a	n/a	"Trial"	n/a	n/a	n/a	n/a	"NULL"	"NULL"	"NULL"	"458"	"stimuli/Ebbinghaus_-0.87143_0.15857.png"	"arrowleft"	n/a	"Ebbinghaus"	"arrowleft"	"1501"	"TRUE"	"Ebbinghaus"	"-0.871430000"	"0.1585700000"	"1"	"80"
n/a	"html-keyboard-response"	"176"	"226022"	"0.0-4.0-2.0-0.62"	"qh07hl"	"600"	"1366"	"chrome"	"108.0.0"	"FALSE"	"Windows 10"	"60.56"	n/a	n/a	n/a	n/a	n/a	n/a	"fixation"	n/a	n/a	n/a	n/a	"NULL"	"NULL"	"NULL"	n/a	"<p style=\"color: black; font-size: 80px; padding-left: 21%; padding-right: 5%; padding-top: 36%; padding-bottom: 34%\">+</p>"	n/a	"1325"	n/a	n/a	n/a	n/a	n/a	n/a	n/a	n/a	n/a
n/a	"image-keyboard-response"	"177"	"226416"	"0.0-4.0-2.0-1.62"	"qh07hl"	"600"	"1366"	"chrome"	"108.0.0"	"FALSE"	"Windows 10"	"60.56"	n/a	n/a	n/a	n/a	n/a	n/a	"Trial"	n/a	n/a	n/a	n/a	"NULL"	"NULL"	"NULL"	"392"	"stimuli/Ebbinghaus_-0.1000_-0.11071.png"	"arrowright"	n/a	"Ebbinghaus"	"arrowright"	"1342"	"TRUE"	"Ebbinghaus"	"-0.100000000"	"-0.110710000"	"1"	"81"
n/a	"html-keyboard-response"	"178"	"227886"	"0.0-4.0-2.0-0.63"	"qh07hl"	"600"	"1366"	"chrome"	"108.0.0"	"FALSE"	"Windows 10"	"60.56"	n/a	n/a	n/a	n/a	n/a	n/a	"fixation"	n/a	n/a	n/a	n/a	"NULL"	"NULL"	"NULL"	n/a	"<p style=\"color: black; font-size: 80px; padding-left: 26%; padding-right: 26%; padding-top: 9%; padding-bottom: 2%\">+</p>"	n/a	"1455"	n/a	n/a	n/a	n/a	n/a	n/a	n/a	n/a	n/a
n/a	"image-keyboard-response"	"179"	"228278"	"0.0-4.0-2.0-1.63"	"qh07hl"	"600"	"1366"	"chrome"	"108.0.0"	"FALSE"	"Windows 10"	"60.56"	n/a	n/a	n/a	n/a	n/a	n/a	"Trial"	n/a	n/a	n/a	n/a	"NULL"	"NULL"	"NULL"	"390"	"stimuli/Ebbinghaus_-0.87143_-0.11071.png"	"arrowright"	n/a	"Ebbinghaus"	"arrowright"	"1470"	"TRUE"	"Ebbinghaus"	"-0.871430000"	"-0.110710000"	"1"	"82"
n/a	"html-button-response"	"180"	"258924"	"0.0-4.0-3.0"	"qh07hl"	"600"	"1366"	"chrome"	"108.0.0"	"FALSE"	"Windows 10"	"60.56"	n/a	n/a	n/a	n/a	n/a	n/a	"block_results"	n/a	n/a	n/a	n/a	"NULL"	"NULL"	"NULL"	"30638"	"<p>Your score for this illusion is <p style=\"color: black; font-size: 48px; font-weight: bold;\">86.7 %</p><hr><p>Can you do better in the next illusion?</p>"	"0"	n/a	n/a	n/a	n/a	n/a	n/a	n/a	n/a	n/a	n/a
"TRUE"	"preload"	"181"	"259125"	"0.0-5.0-0.0"	"qh07hl"	"600"	"1366"	"chrome"	"108.0.0"	"FALSE"	"Windows 10"	"60.56"	n/a	n/a	n/a	n/a	n/a	n/a	n/a	n/a	n/a	n/a	"FALSE"	"list()"	"list()"	"list()"	n/a	n/a	n/a	n/a	n/a	n/a	n/a	n/a	n/a	n/a	n/a	n/a	n/a
n/a	"html-keyboard-response"	"182"	"262838"	"0.0-5.0-1.0"	"qh07hl"	"600"	"1366"	"chrome"	"108.0.0"	"FALSE"	"Windows 10"	"60.56"	n/a	n/a	n/a	n/a	n/a	n/a	n/a	n/a	n/a	n/a	n/a	"NULL"	"NULL"	"NULL"	"3712"	"<p><b>Part 2/6</b></p><p>In this part, two red lines will appear side by side.</p><p>Your task is to tell <b>which line is longer</b> in length, regardless of their orientation, as fast as you can, and without making errors.</p><p>Don't get distracted by the orientation of the lines!</p><p>Press <b>the LEFT or the RIGHT arrow</b> to indicate which <b>line is the longer one.</b></p><div style='float: center'><img src='materials/instructions/VerticalHorizontal_Demo.png' height='300'></img><p><img src='utils/answer/answer_leftright_keyboard.PNG' height='150'></img></p><p class='small'>In this example, the correct answer is the <b>LEFT arrow</b>.</p></div><p>Are you ready? <b>Press ENTER to start</b></p>"	"enter"	n/a	n/a	n/a	n/a	n/a	n/a	n/a	n/a	n/a	n/a
n/a	"html-keyboard-response"	"183"	"264430"	"0.0-5.0-2.0-0.0"	"qh07hl"	"600"	"1366"	"chrome"	"108.0.0"	"FALSE"	"Windows 10"	"60.56"	n/a	n/a	n/a	n/a	n/a	n/a	"fixation"	n/a	n/a	n/a	n/a	"NULL"	"NULL"	"NULL"	n/a	"<p style=\"color: black; font-size: 80px; padding-left: 5%; padding-right: 11%; padding-top: 18%; padding-bottom: 7%\">+</p>"	n/a	"1064"	n/a	n/a	n/a	n/a	n/a	n/a	n/a	n/a	n/a
n/a	"image-keyboard-response"	"184"	"264830"	"0.0-5.0-2.0-1.0"	"qh07hl"	"600"	"1366"	"chrome"	"108.0.0"	"FALSE"	"Windows 10"	"60.56"	n/a	n/a	n/a	n/a	n/a	n/a	"Trial"	n/a	n/a	n/a	n/a	"NULL"	"NULL"	"NULL"	"400"	"stimuli/VerticalHorizontal_28.75714_-0.16217.png"	"arrowleft"	n/a	"VerticalHorizontal"	"arrowright"	"1592"	"FALSE"	"VerticalHorizontal"	"28.757140000"	"-0.162170000"	"2"	"1"
n/a	"html-keyboard-response"	"185"	"265996"	"0.0-5.0-2.0-0.1"	"qh07hl"	"600"	"1366"	"chrome"	"108.0.0"	"FALSE"	"Windows 10"	"60.56"	n/a	n/a	n/a	n/a	n/a	n/a	"fixation"	n/a	n/a	n/a	n/a	"NULL"	"NULL"	"NULL"	n/a	"<p style=\"color: black; font-size: 80px; padding-left: 27%; padding-right: 34%; padding-top: 41%; padding-bottom: 6%\">+</p>"	n/a	"1151"	n/a	n/a	n/a	n/a	n/a	n/a	n/a	n/a	n/a
n/a	"image-keyboard-response"	"186"	"266551"	"0.0-5.0-2.0-1.1"	"qh07hl"	"600"	"1366"	"chrome"	"108.0.0"	"FALSE"	"Windows 10"	"60.56"	n/a	n/a	n/a	n/a	n/a	n/a	"Trial"	n/a	n/a	n/a	n/a	"NULL"	"NULL"	"NULL"	"551"	"stimuli/VerticalHorizontal_-11.78571_-0.0673.png"	"arrowright"	n/a	"VerticalHorizontal"	"arrowright"	"1166"	"TRUE"	"VerticalHorizontal"	"-11.78571000"	"-0.067300000"	"2"	"2"
n/a	"html-keyboard-response"	"187"	"267733"	"0.0-5.0-2.0-0.2"	"qh07hl"	"600"	"1366"	"chrome"	"108.0.0"	"FALSE"	"Windows 10"	"60.56"	n/a	n/a	n/a	n/a	n/a	n/a	"fixation"	n/a	n/a	n/a	n/a	"NULL"	"NULL"	"NULL"	n/a	"<p style=\"color: black; font-size: 80px; padding-left: 36%; padding-right: 42%; padding-top: 30%; padding-bottom: 18%\">+</p>"	n/a	"1169"	n/a	n/a	n/a	n/a	n/a	n/a	n/a	n/a	n/a
n/a	"image-keyboard-response"	"188"	"268126"	"0.0-5.0-2.0-1.2"	"qh07hl"	"600"	"1366"	"chrome"	"108.0.0"	"FALSE"	"Windows 10"	"60.56"	n/a	n/a	n/a	n/a	n/a	n/a	"Trial"	n/a	n/a	n/a	n/a	"NULL"	"NULL"	"NULL"	"390"	"stimuli/VerticalHorizontal_-3.3000_-0.2250.png"	"arrowright"	n/a	"VerticalHorizontal"	"arrowright"	"1182"	"TRUE"	"VerticalHorizontal"	"-3.300000000"	"-0.225000000"	"2"	"3"
n/a	"html-keyboard-response"	"189"	"269447"	"0.0-5.0-2.0-0.3"	"qh07hl"	"600"	"1366"	"chrome"	"108.0.0"	"FALSE"	"Windows 10"	"60.56"	n/a	n/a	n/a	n/a	n/a	n/a	"fixation"	n/a	n/a	n/a	n/a	"NULL"	"NULL"	"NULL"	n/a	"<p style=\"color: black; font-size: 80px; padding-left: 24%; padding-right: 26%; padding-top: 37%; padding-bottom: 26%\">+</p>"	n/a	"1318"	n/a	n/a	n/a	n/a	n/a	n/a	n/a	n/a	n/a
n/a	"image-keyboard-response"	"190"	"269775"	"0.0-5.0-2.0-1.3"	"qh07hl"	"600"	"1366"	"chrome"	"108.0.0"	"FALSE"	"Windows 10"	"60.56"	n/a	n/a	n/a	n/a	n/a	n/a	"Trial"	n/a	n/a	n/a	n/a	"NULL"	"NULL"	"NULL"	"326"	"stimuli/VerticalHorizontal_-28.75714_0.16217.png"	"arrowleft"	n/a	"VerticalHorizontal"	"arrowleft"	"1321"	"TRUE"	"VerticalHorizontal"	"-28.75714000"	"0.1621700000"	"2"	"4"
n/a	"html-keyboard-response"	"191"	"271059"	"0.0-5.0-2.0-0.4"	"qh07hl"	"600"	"1366"	"chrome"	"108.0.0"	"FALSE"	"Windows 10"	"60.56"	n/a	n/a	n/a	n/a	n/a	n/a	"fixation"	n/a	n/a	n/a	n/a	"NULL"	"NULL"	"NULL"	n/a	"<p style=\"color: black; font-size: 80px; padding-left: 37%; padding-right: 41%; padding-top: 6%; padding-bottom: 41%\">+</p>"	n/a	"1266"	n/a	n/a	n/a	n/a	n/a	n/a	n/a	n/a	n/a
n/a	"image-keyboard-response"	"192"	"271460"	"0.0-5.0-2.0-1.4"	"qh07hl"	"600"	"1366"	"chrome"	"108.0.0"	"FALSE"	"Windows 10"	"60.56"	n/a	n/a	n/a	n/a	n/a	n/a	"Trial"	n/a	n/a	n/a	n/a	"NULL"	"NULL"	"NULL"	"400"	"stimuli/VerticalHorizontal_20.27143_0.22500.png"	"arrowleft"	n/a	"VerticalHorizontal"	"arrowleft"	"1284"	"TRUE"	"VerticalHorizontal"	"20.271430000"	"0.2250000000"	"2"	"5"
n/a	"html-keyboard-response"	"193"	"272643"	"0.0-5.0-2.0-0.5"	"qh07hl"	"600"	"1366"	"chrome"	"108.0.0"	"FALSE"	"Windows 10"	"60.56"	n/a	n/a	n/a	n/a	n/a	n/a	"fixation"	n/a	n/a	n/a	n/a	"NULL"	"NULL"	"NULL"	n/a	"<p style=\"color: black; font-size: 80px; padding-left: 9%; padding-right: 37%; padding-top: 25%; padding-bottom: 5%\">+</p>"	n/a	"1176"	n/a	n/a	n/a	n/a	n/a	n/a	n/a	n/a	n/a
n/a	"image-keyboard-response"	"194"	"273033"	"0.0-5.0-2.0-1.5"	"qh07hl"	"600"	"1366"	"chrome"	"108.0.0"	"FALSE"	"Windows 10"	"60.56"	n/a	n/a	n/a	n/a	n/a	n/a	"Trial"	n/a	n/a	n/a	n/a	"NULL"	"NULL"	"NULL"	"389"	"stimuli/VerticalHorizontal_-20.27143_-0.16217.png"	"arrowright"	n/a	"VerticalHorizontal"	"arrowright"	"1183"	"TRUE"	"VerticalHorizontal"	"-20.27143000"	"-0.162170000"	"2"	"6"
n/a	"html-keyboard-response"	"195"	"274364"	"0.0-5.0-2.0-0.6"	"qh07hl"	"600"	"1366"	"chrome"	"108.0.0"	"FALSE"	"Windows 10"	"60.56"	n/a	n/a	n/a	n/a	n/a	n/a	"fixation"	n/a	n/a	n/a	n/a	"NULL"	"NULL"	"NULL"	n/a	"<p style=\"color: black; font-size: 80px; padding-left: 19%; padding-right: 19%; padding-top: 13%; padding-bottom: 17%\">+</p>"	n/a	"1320"	n/a	n/a	n/a	n/a	n/a	n/a	n/a	n/a	n/a
n/a	"image-keyboard-response"	"196"	"274780"	"0.0-5.0-2.0-1.6"	"qh07hl"	"600"	"1366"	"chrome"	"108.0.0"	"FALSE"	"Windows 10"	"60.56"	n/a	n/a	n/a	n/a	n/a	n/a	"Trial"	n/a	n/a	n/a	n/a	"NULL"	"NULL"	"NULL"	"415"	"stimuli/VerticalHorizontal_3.30000_-0.16217.png"	"arrowright"	n/a	"VerticalHorizontal"	"arrowright"	"1331"	"TRUE"	"VerticalHorizontal"	"3.3000000000"	"-0.162170000"	"2"	"7"
n/a	"html-keyboard-response"	"197"	"275826"	"0.0-5.0-2.0-0.7"	"qh07hl"	"600"	"1366"	"chrome"	"108.0.0"	"FALSE"	"Windows 10"	"60.56"	n/a	n/a	n/a	n/a	n/a	n/a	"fixation"	n/a	n/a	n/a	n/a	"NULL"	"NULL"	"NULL"	n/a	"<p style=\"color: black; font-size: 80px; padding-left: 42%; padding-right: 41%; padding-top: 1%; padding-bottom: 24%\">+</p>"	n/a	"1025"	n/a	n/a	n/a	n/a	n/a	n/a	n/a	n/a	n/a
n/a	"image-keyboard-response"	"198"	"276196"	"0.0-5.0-2.0-1.7"	"qh07hl"	"600"	"1366"	"chrome"	"108.0.0"	"FALSE"	"Windows 10"	"60.56"	n/a	n/a	n/a	n/a	n/a	n/a	"Trial"	n/a	n/a	n/a	n/a	"NULL"	"NULL"	"NULL"	"367"	"stimuli/VerticalHorizontal_-11.78571_0.22500.png"	"arrowleft"	n/a	"VerticalHorizontal"	"arrowleft"	"1046"	"TRUE"	"VerticalHorizontal"	"-11.78571000"	"0.2250000000"	"2"	"8"
n/a	"html-keyboard-response"	"199"	"277588"	"0.0-5.0-2.0-0.8"	"qh07hl"	"600"	"1366"	"chrome"	"108.0.0"	"FALSE"	"Windows 10"	"60.56"	n/a	n/a	n/a	n/a	n/a	n/a	"fixation"	n/a	n/a	n/a	n/a	"NULL"	"NULL"	"NULL"	n/a	"<p style=\"color: black; font-size: 80px; padding-left: 18%; padding-right: 29%; padding-top: 10%; padding-bottom: 22%\">+</p>"	n/a	"1380"	n/a	n/a	n/a	n/a	n/a	n/a	n/a	n/a	n/a
n/a	"image-keyboard-response"	"200"	"277916"	"0.0-5.0-2.0-1.8"	"qh07hl"	"600"	"1366"	"chrome"	"108.0.0"	"FALSE"	"Windows 10"	"60.56"	n/a	n/a	n/a	n/a	n/a	n/a	"Trial"	n/a	n/a	n/a	n/a	"NULL"	"NULL"	"NULL"	"326"	"stimuli/VerticalHorizontal_20.27143_-0.1096.png"	"arrowleft"	n/a	"VerticalHorizontal"	"arrowright"	"1392"	"FALSE"	"VerticalHorizontal"	"20.271430000"	"-0.109600000"	"2"	"9"
n/a	"html-keyboard-response"	"201"	"279024"	"0.0-5.0-2.0-0.9"	"qh07hl"	"600"	"1366"	"chrome"	"108.0.0"	"FALSE"	"Windows 10"	"60.56"	n/a	n/a	n/a	n/a	n/a	n/a	"fixation"	n/a	n/a	n/a	n/a	"NULL"	"NULL"	"NULL"	n/a	"<p style=\"color: black; font-size: 80px; padding-left: 26%; padding-right: 5%; padding-top: 11%; padding-bottom: 9%\">+</p>"	n/a	"1103"	n/a	n/a	n/a	n/a	n/a	n/a	n/a	n/a	n/a
n/a	"image-keyboard-response"	"202"	"279451"	"0.0-5.0-2.0-1.9"	"qh07hl"	"600"	"1366"	"chrome"	"108.0.0"	"FALSE"	"Windows 10"	"60.56"	n/a	n/a	n/a	n/a	n/a	n/a	"Trial"	n/a	n/a	n/a	n/a	"NULL"	"NULL"	"NULL"	"427"	"stimuli/VerticalHorizontal_-11.78571_0.06730.png"	"arrowleft"	n/a	"VerticalHorizontal"	"arrowleft"	"1108"	"TRUE"	"VerticalHorizontal"	"-11.78571000"	"0.0673000000"	"2"	"10"
n/a	"html-keyboard-response"	"203"	"280949"	"0.0-5.0-2.0-0.10"	"qh07hl"	"600"	"1366"	"chrome"	"108.0.0"	"FALSE"	"Windows 10"	"60.56"	n/a	n/a	n/a	n/a	n/a	n/a	"fixation"	n/a	n/a	n/a	n/a	"NULL"	"NULL"	"NULL"	n/a	"<p style=\"color: black; font-size: 80px; padding-left: 24%; padding-right: 30%; padding-top: 6%; padding-bottom: 15%\">+</p>"	n/a	"1477"	n/a	n/a	n/a	n/a	n/a	n/a	n/a	n/a	n/a
n/a	"image-keyboard-response"	"204"	"281347"	"0.0-5.0-2.0-1.10"	"qh07hl"	"600"	"1366"	"chrome"	"108.0.0"	"FALSE"	"Windows 10"	"60.56"	n/a	n/a	n/a	n/a	n/a	n/a	"Trial"	n/a	n/a	n/a	n/a	"NULL"	"NULL"	"NULL"	"397"	"stimuli/VerticalHorizontal_3.30000_-0.0673.png"	"arrowright"	n/a	"VerticalHorizontal"	"arrowright"	"1498"	"TRUE"	"VerticalHorizontal"	"3.3000000000"	"-0.067300000"	"2"	"11"
n/a	"html-keyboard-response"	"205"	"282438"	"0.0-5.0-2.0-0.11"	"qh07hl"	"600"	"1366"	"chrome"	"108.0.0"	"FALSE"	"Windows 10"	"60.56"	n/a	n/a	n/a	n/a	n/a	n/a	"fixation"	n/a	n/a	n/a	n/a	"NULL"	"NULL"	"NULL"	n/a	"<p style=\"color: black; font-size: 80px; padding-left: 39%; padding-right: 11%; padding-top: 36%; padding-bottom: 10%\">+</p>"	n/a	"1080"	n/a	n/a	n/a	n/a	n/a	n/a	n/a	n/a	n/a
n/a	"image-keyboard-response"	"206"	"282934"	"0.0-5.0-2.0-1.11"	"qh07hl"	"600"	"1366"	"chrome"	"108.0.0"	"FALSE"	"Windows 10"	"60.56"	n/a	n/a	n/a	n/a	n/a	n/a	"Trial"	n/a	n/a	n/a	n/a	"NULL"	"NULL"	"NULL"	"492"	"stimuli/VerticalHorizontal_11.78571_0.16217.png"	"arrowleft"	n/a	"VerticalHorizontal"	"arrowleft"	"1091"	"TRUE"	"VerticalHorizontal"	"11.785710000"	"0.1621700000"	"2"	"12"
n/a	"html-keyboard-response"	"207"	"283980"	"0.0-5.0-2.0-0.12"	"qh07hl"	"600"	"1366"	"chrome"	"108.0.0"	"FALSE"	"Windows 10"	"60.56"	n/a	n/a	n/a	n/a	n/a	n/a	"fixation"	n/a	n/a	n/a	n/a	"NULL"	"NULL"	"NULL"	n/a	"<p style=\"color: black; font-size: 80px; padding-left: 0%; padding-right: 2%; padding-top: 4%; padding-bottom: 44%\">+</p>"	n/a	"1028"	n/a	n/a	n/a	n/a	n/a	n/a	n/a	n/a	n/a
n/a	"image-keyboard-response"	"208"	"284357"	"0.0-5.0-2.0-1.12"	"qh07hl"	"600"	"1366"	"chrome"	"108.0.0"	"FALSE"	"Windows 10"	"60.56"	n/a	n/a	n/a	n/a	n/a	n/a	"Trial"	n/a	n/a	n/a	n/a	"NULL"	"NULL"	"NULL"	"376"	"stimuli/VerticalHorizontal_28.75714_-0.1096.png"	"arrowleft"	n/a	"VerticalHorizontal"	"arrowright"	"1046"	"FALSE"	"VerticalHorizontal"	"28.757140000"	"-0.109600000"	"2"	"13"
n/a	"html-keyboard-response"	"209"	"285604"	"0.0-5.0-2.0-0.13"	"qh07hl"	"600"	"1366"	"chrome"	"108.0.0"	"FALSE"	"Windows 10"	"60.56"	n/a	n/a	n/a	n/a	n/a	n/a	"fixation"	n/a	n/a	n/a	n/a	"NULL"	"NULL"	"NULL"	n/a	"<p style=\"color: black; font-size: 80px; padding-left: 13%; padding-right: 32%; padding-top: 8%; padding-bottom: 19%\">+</p>"	n/a	"1229"	n/a	n/a	n/a	n/a	n/a	n/a	n/a	n/a	n/a
n/a	"image-keyboard-response"	"210"	"286000"	"0.0-5.0-2.0-1.13"	"qh07hl"	"600"	"1366"	"chrome"	"108.0.0"	"FALSE"	"Windows 10"	"60.56"	n/a	n/a	n/a	n/a	n/a	n/a	"Trial"	n/a	n/a	n/a	n/a	"NULL"	"NULL"	"NULL"	"394"	"stimuli/VerticalHorizontal_-3.3000_-0.0673.png"	"arrowright"	n/a	"VerticalHorizontal"	"arrowright"	"1247"	"TRUE"	"VerticalHorizontal"	"-3.300000000"	"-0.067300000"	"2"	"14"
n/a	"html-keyboard-response"	"211"	"287045"	"0.0-5.0-2.0-0.14"	"qh07hl"	"600"	"1366"	"chrome"	"108.0.0"	"FALSE"	"Windows 10"	"60.56"	n/a	n/a	n/a	n/a	n/a	n/a	"fixation"	n/a	n/a	n/a	n/a	"NULL"	"NULL"	"NULL"	n/a	"<p style=\"color: black; font-size: 80px; padding-left: 25%; padding-right: 14%; padding-top: 32%; padding-bottom: 41%\">+</p>"	n/a	"1033"	n/a	n/a	n/a	n/a	n/a	n/a	n/a	n/a	n/a
n/a	"image-keyboard-response"	"212"	"287425"	"0.0-5.0-2.0-1.14"	"qh07hl"	"600"	"1366"	"chrome"	"108.0.0"	"FALSE"	"Windows 10"	"60.56"	n/a	n/a	n/a	n/a	n/a	n/a	"Trial"	n/a	n/a	n/a	n/a	"NULL"	"NULL"	"NULL"	"379"	"stimuli/VerticalHorizontal_11.78571_-0.1096.png"	"arrowleft"	n/a	"VerticalHorizontal"	"arrowright"	"1045"	"FALSE"	"VerticalHorizontal"	"11.785710000"	"-0.109600000"	"2"	"15"
n/a	"html-keyboard-response"	"213"	"288770"	"0.0-5.0-2.0-0.15"	"qh07hl"	"600"	"1366"	"chrome"	"108.0.0"	"FALSE"	"Windows 10"	"60.56"	n/a	n/a	n/a	n/a	n/a	n/a	"fixation"	n/a	n/a	n/a	n/a	"NULL"	"NULL"	"NULL"	n/a	"<p style=\"color: black; font-size: 80px; padding-left: 38%; padding-right: 36%; padding-top: 0%; padding-bottom: 35%\">+</p>"	n/a	"1335"	n/a	n/a	n/a	n/a	n/a	n/a	n/a	n/a	n/a
n/a	"image-keyboard-response"	"214"	"289176"	"0.0-5.0-2.0-1.15"	"qh07hl"	"600"	"1366"	"chrome"	"108.0.0"	"FALSE"	"Windows 10"	"60.56"	n/a	n/a	n/a	n/a	n/a	n/a	"Trial"	n/a	n/a	n/a	n/a	"NULL"	"NULL"	"NULL"	"402"	"stimuli/VerticalHorizontal_11.78571_-0.0673.png"	"arrowleft"	n/a	"VerticalHorizontal"	"arrowright"	"1345"	"FALSE"	"VerticalHorizontal"	"11.785710000"	"-0.067300000"	"2"	"16"
n/a	"html-keyboard-response"	"215"	"290567"	"0.0-5.0-2.0-0.16"	"qh07hl"	"600"	"1366"	"chrome"	"108.0.0"	"FALSE"	"Windows 10"	"60.56"	n/a	n/a	n/a	n/a	n/a	n/a	"fixation"	n/a	n/a	n/a	n/a	"NULL"	"NULL"	"NULL"	n/a	"<p style=\"color: black; font-size: 80px; padding-left: 16%; padding-right: 29%; padding-top: 18%; padding-bottom: 14%\">+</p>"	n/a	"1380"	n/a	n/a	n/a	n/a	n/a	n/a	n/a	n/a	n/a
n/a	"image-keyboard-response"	"216"	"290965"	"0.0-5.0-2.0-1.16"	"qh07hl"	"600"	"1366"	"chrome"	"108.0.0"	"FALSE"	"Windows 10"	"60.56"	n/a	n/a	n/a	n/a	n/a	n/a	"Trial"	n/a	n/a	n/a	n/a	"NULL"	"NULL"	"NULL"	"388"	"stimuli/VerticalHorizontal_28.75714_0.22500.png"	"arrowright"	n/a	"VerticalHorizontal"	"arrowleft"	"1391"	"FALSE"	"VerticalHorizontal"	"28.757140000"	"0.2250000000"	"2"	"17"
n/a	"html-keyboard-response"	"217"	"292246"	"0.0-5.0-2.0-0.17"	"qh07hl"	"600"	"1366"	"chrome"	"108.0.0"	"FALSE"	"Windows 10"	"60.56"	n/a	n/a	n/a	n/a	n/a	n/a	"fixation"	n/a	n/a	n/a	n/a	"NULL"	"NULL"	"NULL"	n/a	"<p style=\"color: black; font-size: 80px; padding-left: 14%; padding-right: 33%; padding-top: 25%; padding-bottom: 24%\">+</p>"	n/a	"1264"	n/a	n/a	n/a	n/a	n/a	n/a	n/a	n/a	n/a
n/a	"image-keyboard-response"	"218"	"292616"	"0.0-5.0-2.0-1.17"	"qh07hl"	"600"	"1366"	"chrome"	"108.0.0"	"FALSE"	"Windows 10"	"60.56"	n/a	n/a	n/a	n/a	n/a	n/a	"Trial"	n/a	n/a	n/a	n/a	"NULL"	"NULL"	"NULL"	"368"	"stimuli/VerticalHorizontal_28.75714_0.06730.png"	"arrowright"	n/a	"VerticalHorizontal"	"arrowleft"	"1281"	"FALSE"	"VerticalHorizontal"	"28.757140000"	"0.0673000000"	"2"	"18"
n/a	"html-keyboard-response"	"219"	"294055"	"0.0-5.0-2.0-0.18"	"qh07hl"	"600"	"1366"	"chrome"	"108.0.0"	"FALSE"	"Windows 10"	"60.56"	n/a	n/a	n/a	n/a	n/a	n/a	"fixation"	n/a	n/a	n/a	n/a	"NULL"	"NULL"	"NULL"	n/a	"<p style=\"color: black; font-size: 80px; padding-left: 37%; padding-right: 35%; padding-top: 11%; padding-bottom: 21%\">+</p>"	n/a	"1430"	n/a	n/a	n/a	n/a	n/a	n/a	n/a	n/a	n/a
n/a	"image-keyboard-response"	"220"	"294388"	"0.0-5.0-2.0-1.18"	"qh07hl"	"600"	"1366"	"chrome"	"108.0.0"	"FALSE"	"Windows 10"	"60.56"	n/a	n/a	n/a	n/a	n/a	n/a	"Trial"	n/a	n/a	n/a	n/a	"NULL"	"NULL"	"NULL"	"332"	"stimuli/VerticalHorizontal_-20.27143_0.22500.png"	"arrowleft"	n/a	"VerticalHorizontal"	"arrowleft"	"1439"	"TRUE"	"VerticalHorizontal"	"-20.27143000"	"0.2250000000"	"2"	"19"
n/a	"html-keyboard-response"	"221"	"295744"	"0.0-5.0-2.0-0.19"	"qh07hl"	"600"	"1366"	"chrome"	"108.0.0"	"FALSE"	"Windows 10"	"60.56"	n/a	n/a	n/a	n/a	n/a	n/a	"fixation"	n/a	n/a	n/a	n/a	"NULL"	"NULL"	"NULL"	n/a	"<p style=\"color: black; font-size: 80px; padding-left: 26%; padding-right: 45%; padding-top: 31%; padding-bottom: 38%\">+</p>"	n/a	"1341"	n/a	n/a	n/a	n/a	n/a	n/a	n/a	n/a	n/a
n/a	"image-keyboard-response"	"222"	"296123"	"0.0-5.0-2.0-1.19"	"qh07hl"	"600"	"1366"	"chrome"	"108.0.0"	"FALSE"	"Windows 10"	"60.56"	n/a	n/a	n/a	n/a	n/a	n/a	"Trial"	n/a	n/a	n/a	n/a	"NULL"	"NULL"	"NULL"	"377"	"stimuli/VerticalHorizontal_3.30000_0.22500.png"	"arrowleft"	n/a	"VerticalHorizontal"	"arrowleft"	"1356"	"TRUE"	"VerticalHorizontal"	"3.3000000000"	"0.2250000000"	"2"	"20"
n/a	"html-keyboard-response"	"223"	"297247"	"0.0-5.0-2.0-0.20"	"qh07hl"	"600"	"1366"	"chrome"	"108.0.0"	"FALSE"	"Windows 10"	"60.56"	n/a	n/a	n/a	n/a	n/a	n/a	"fixation"	n/a	n/a	n/a	n/a	"NULL"	"NULL"	"NULL"	n/a	"<p style=\"color: black; font-size: 80px; padding-left: 14%; padding-right: 15%; padding-top: 22%; padding-bottom: 43%\">+</p>"	n/a	"1121"	n/a	n/a	n/a	n/a	n/a	n/a	n/a	n/a	n/a
n/a	"image-keyboard-response"	"224"	"297712"	"0.0-5.0-2.0-1.20"	"qh07hl"	"600"	"1366"	"chrome"	"108.0.0"	"FALSE"	"Windows 10"	"60.56"	n/a	n/a	n/a	n/a	n/a	n/a	"Trial"	n/a	n/a	n/a	n/a	"NULL"	"NULL"	"NULL"	"463"	"stimuli/VerticalHorizontal_20.27143_0.10960.png"	"arrowright"	n/a	"VerticalHorizontal"	"arrowleft"	"1124"	"FALSE"	"VerticalHorizontal"	"20.271430000"	"0.1096000000"	"2"	"21"
n/a	"html-keyboard-response"	"225"	"298916"	"0.0-5.0-2.0-0.21"	"qh07hl"	"600"	"1366"	"chrome"	"108.0.0"	"FALSE"	"Windows 10"	"60.56"	n/a	n/a	n/a	n/a	n/a	n/a	"fixation"	n/a	n/a	n/a	n/a	"NULL"	"NULL"	"NULL"	n/a	"<p style=\"color: black; font-size: 80px; padding-left: 13%; padding-right: 37%; padding-top: 19%; padding-bottom: 42%\">+</p>"	n/a	"1195"	n/a	n/a	n/a	n/a	n/a	n/a	n/a	n/a	n/a
n/a	"image-keyboard-response"	"226"	"299282"	"0.0-5.0-2.0-1.21"	"qh07hl"	"600"	"1366"	"chrome"	"108.0.0"	"FALSE"	"Windows 10"	"60.56"	n/a	n/a	n/a	n/a	n/a	n/a	"Trial"	n/a	n/a	n/a	n/a	"NULL"	"NULL"	"NULL"	"364"	"stimuli/VerticalHorizontal_-20.27143_0.06730.png"	"arrowleft"	n/a	"VerticalHorizontal"	"arrowleft"	"1204"	"TRUE"	"VerticalHorizontal"	"-20.27143000"	"0.0673000000"	"2"	"22"
n/a	"html-keyboard-response"	"227"	"300592"	"0.0-5.0-2.0-0.22"	"qh07hl"	"600"	"1366"	"chrome"	"108.0.0"	"FALSE"	"Windows 10"	"60.56"	n/a	n/a	n/a	n/a	n/a	n/a	"fixation"	n/a	n/a	n/a	n/a	"NULL"	"NULL"	"NULL"	n/a	"<p style=\"color: black; font-size: 80px; padding-left: 21%; padding-right: 42%; padding-top: 11%; padding-bottom: 27%\">+</p>"	n/a	"1297"	n/a	n/a	n/a	n/a	n/a	n/a	n/a	n/a	n/a
n/a	"image-keyboard-response"	"228"	"300983"	"0.0-5.0-2.0-1.22"	"qh07hl"	"600"	"1366"	"chrome"	"108.0.0"	"FALSE"	"Windows 10"	"60.56"	n/a	n/a	n/a	n/a	n/a	n/a	"Trial"	n/a	n/a	n/a	n/a	"NULL"	"NULL"	"NULL"	"389"	"stimuli/VerticalHorizontal_-20.27143_-0.2250.png"	"arrowright"	n/a	"VerticalHorizontal"	"arrowright"	"1310"	"TRUE"	"VerticalHorizontal"	"-20.27143000"	"-0.225000000"	"2"	"23"
n/a	"html-keyboard-response"	"229"	"302270"	"0.0-5.0-2.0-0.23"	"qh07hl"	"600"	"1366"	"chrome"	"108.0.0"	"FALSE"	"Windows 10"	"60.56"	n/a	n/a	n/a	n/a	n/a	n/a	"fixation"	n/a	n/a	n/a	n/a	"NULL"	"NULL"	"NULL"	n/a	"<p style=\"color: black; font-size: 80px; padding-left: 6%; padding-right: 25%; padding-top: 28%; padding-bottom: 33%\">+</p>"	n/a	"1251"	n/a	n/a	n/a	n/a	n/a	n/a	n/a	n/a	n/a
n/a	"image-keyboard-response"	"230"	"302631"	"0.0-5.0-2.0-1.23"	"qh07hl"	"600"	"1366"	"chrome"	"108.0.0"	"FALSE"	"Windows 10"	"60.56"	n/a	n/a	n/a	n/a	n/a	n/a	"Trial"	n/a	n/a	n/a	n/a	"NULL"	"NULL"	"NULL"	"358"	"stimuli/VerticalHorizontal_20.27143_-0.0673.png"	"arrowleft"	n/a	"VerticalHorizontal"	"arrowright"	"1287"	"FALSE"	"VerticalHorizontal"	"20.271430000"	"-0.067300000"	"2"	"24"
n/a	"html-keyboard-response"	"231"	"304121"	"0.0-5.0-2.0-0.24"	"qh07hl"	"600"	"1366"	"chrome"	"108.0.0"	"FALSE"	"Windows 10"	"60.56"	n/a	n/a	n/a	n/a	n/a	n/a	"fixation"	n/a	n/a	n/a	n/a	"NULL"	"NULL"	"NULL"	n/a	"<p style=\"color: black; font-size: 80px; padding-left: 24%; padding-right: 37%; padding-top: 44%; padding-bottom: 18%\">+</p>"	n/a	"1473"	n/a	n/a	n/a	n/a	n/a	n/a	n/a	n/a	n/a
n/a	"image-keyboard-response"	"232"	"304567"	"0.0-5.0-2.0-1.24"	"qh07hl"	"600"	"1366"	"chrome"	"108.0.0"	"FALSE"	"Windows 10"	"60.56"	n/a	n/a	n/a	n/a	n/a	n/a	"Trial"	n/a	n/a	n/a	n/a	"NULL"	"NULL"	"NULL"	"444"	"stimuli/VerticalHorizontal_-3.3000_0.06730.png"	"arrowleft"	n/a	"VerticalHorizontal"	"arrowleft"	"1490"	"TRUE"	"VerticalHorizontal"	"-3.300000000"	"0.0673000000"	"2"	"25"
n/a	"html-keyboard-response"	"233"	"305817"	"0.0-5.0-2.0-0.25"	"qh07hl"	"600"	"1366"	"chrome"	"108.0.0"	"FALSE"	"Windows 10"	"60.56"	n/a	n/a	n/a	n/a	n/a	n/a	"fixation"	n/a	n/a	n/a	n/a	"NULL"	"NULL"	"NULL"	n/a	"<p style=\"color: black; font-size: 80px; padding-left: 17%; padding-right: 9%; padding-top: 33%; padding-bottom: 7%\">+</p>"	n/a	"1235"	n/a	n/a	n/a	n/a	n/a	n/a	n/a	n/a	n/a
n/a	"image-keyboard-response"	"234"	"306217"	"0.0-5.0-2.0-1.25"	"qh07hl"	"600"	"1366"	"chrome"	"108.0.0"	"FALSE"	"Windows 10"	"60.56"	n/a	n/a	n/a	n/a	n/a	n/a	"Trial"	n/a	n/a	n/a	n/a	"NULL"	"NULL"	"NULL"	"392"	"stimuli/VerticalHorizontal_3.30000_0.16217.png"	"arrowleft"	n/a	"VerticalHorizontal"	"arrowleft"	"1250"	"TRUE"	"VerticalHorizontal"	"3.3000000000"	"0.1621700000"	"2"	"26"
n/a	"html-keyboard-response"	"235"	"307712"	"0.0-5.0-2.0-0.26"	"qh07hl"	"600"	"1366"	"chrome"	"108.0.0"	"FALSE"	"Windows 10"	"60.56"	n/a	n/a	n/a	n/a	n/a	n/a	"fixation"	n/a	n/a	n/a	n/a	"NULL"	"NULL"	"NULL"	n/a	"<p style=\"color: black; font-size: 80px; padding-left: 41%; padding-right: 27%; padding-top: 33%; padding-bottom: 22%\">+</p>"	n/a	"1484"	n/a	n/a	n/a	n/a	n/a	n/a	n/a	n/a	n/a
n/a	"image-keyboard-response"	"236"	"308030"	"0.0-5.0-2.0-1.26"	"qh07hl"	"600"	"1366"	"chrome"	"108.0.0"	"FALSE"	"Windows 10"	"60.56"	n/a	n/a	n/a	n/a	n/a	n/a	"Trial"	n/a	n/a	n/a	n/a	"NULL"	"NULL"	"NULL"	"317"	"stimuli/VerticalHorizontal_-28.75714_0.10960.png"	"arrowleft"	n/a	"VerticalHorizontal"	"arrowleft"	"1495"	"TRUE"	"VerticalHorizontal"	"-28.75714000"	"0.1096000000"	"2"	"27"
n/a	"html-keyboard-response"	"237"	"309275"	"0.0-5.0-2.0-0.27"	"qh07hl"	"600"	"1366"	"chrome"	"108.0.0"	"FALSE"	"Windows 10"	"60.56"	n/a	n/a	n/a	n/a	n/a	n/a	"fixation"	n/a	n/a	n/a	n/a	"NULL"	"NULL"	"NULL"	n/a	"<p style=\"color: black; font-size: 80px; padding-left: 26%; padding-right: 22%; padding-top: 18%; padding-bottom: 5%\">+</p>"	n/a	"1231"	n/a	n/a	n/a	n/a	n/a	n/a	n/a	n/a	n/a
n/a	"image-keyboard-response"	"238"	"309642"	"0.0-5.0-2.0-1.27"	"qh07hl"	"600"	"1366"	"chrome"	"108.0.0"	"FALSE"	"Windows 10"	"60.56"	n/a	n/a	n/a	n/a	n/a	n/a	"Trial"	n/a	n/a	n/a	n/a	"NULL"	"NULL"	"NULL"	"365"	"stimuli/VerticalHorizontal_-28.75714_-0.1096.png"	"arrowright"	n/a	"VerticalHorizontal"	"arrowright"	"1245"	"TRUE"	"VerticalHorizontal"	"-28.75714000"	"-0.109600000"	"2"	"28"
n/a	"html-keyboard-response"	"239"	"310840"	"0.0-5.0-2.0-0.28"	"qh07hl"	"600"	"1366"	"chrome"	"108.0.0"	"FALSE"	"Windows 10"	"60.56"	n/a	n/a	n/a	n/a	n/a	n/a	"fixation"	n/a	n/a	n/a	n/a	"NULL"	"NULL"	"NULL"	n/a	"<p style=\"color: black; font-size: 80px; padding-left: 23%; padding-right: 25%; padding-top: 16%; padding-bottom: 4%\">+</p>"	n/a	"1188"	n/a	n/a	n/a	n/a	n/a	n/a	n/a	n/a	n/a
n/a	"image-keyboard-response"	"240"	"311165"	"0.0-5.0-2.0-1.28"	"qh07hl"	"600"	"1366"	"chrome"	"108.0.0"	"FALSE"	"Windows 10"	"60.56"	n/a	n/a	n/a	n/a	n/a	n/a	"Trial"	n/a	n/a	n/a	n/a	"NULL"	"NULL"	"NULL"	"324"	"stimuli/VerticalHorizontal_-11.78571_0.16217.png"	"arrowleft"	n/a	"VerticalHorizontal"	"arrowleft"	"1198"	"TRUE"	"VerticalHorizontal"	"-11.78571000"	"0.1621700000"	"2"	"29"
n/a	"html-keyboard-response"	"241"	"312490"	"0.0-5.0-2.0-0.29"	"qh07hl"	"600"	"1366"	"chrome"	"108.0.0"	"FALSE"	"Windows 10"	"60.56"	n/a	n/a	n/a	n/a	n/a	n/a	"fixation"	n/a	n/a	n/a	n/a	"NULL"	"NULL"	"NULL"	n/a	"<p style=\"color: black; font-size: 80px; padding-left: 25%; padding-right: 28%; padding-top: 13%; padding-bottom: 11%\">+</p>"	n/a	"1297"	n/a	n/a	n/a	n/a	n/a	n/a	n/a	n/a	n/a
n/a	"image-keyboard-response"	"242"	"312840"	"0.0-5.0-2.0-1.29"	"qh07hl"	"600"	"1366"	"chrome"	"108.0.0"	"FALSE"	"Windows 10"	"60.56"	n/a	n/a	n/a	n/a	n/a	n/a	"Trial"	n/a	n/a	n/a	n/a	"NULL"	"NULL"	"NULL"	"348"	"stimuli/VerticalHorizontal_-28.75714_-0.0673.png"	"arrowright"	n/a	"VerticalHorizontal"	"arrowright"	"1325"	"TRUE"	"VerticalHorizontal"	"-28.75714000"	"-0.067300000"	"2"	"30"
n/a	"html-keyboard-response"	"243"	"314229"	"0.0-5.0-2.0-0.30"	"qh07hl"	"600"	"1366"	"chrome"	"108.0.0"	"FALSE"	"Windows 10"	"60.56"	n/a	n/a	n/a	n/a	n/a	n/a	"fixation"	n/a	n/a	n/a	n/a	"NULL"	"NULL"	"NULL"	n/a	"<p style=\"color: black; font-size: 80px; padding-left: 30%; padding-right: 33%; padding-top: 18%; padding-bottom: 18%\">+</p>"	n/a	"1371"	n/a	n/a	n/a	n/a	n/a	n/a	n/a	n/a	n/a
n/a	"image-keyboard-response"	"244"	"314601"	"0.0-5.0-2.0-1.30"	"qh07hl"	"600"	"1366"	"chrome"	"108.0.0"	"FALSE"	"Windows 10"	"60.56"	n/a	n/a	n/a	n/a	n/a	n/a	"Trial"	n/a	n/a	n/a	n/a	"NULL"	"NULL"	"NULL"	"371"	"stimuli/VerticalHorizontal_28.75714_0.16217.png"	"arrowright"	n/a	"VerticalHorizontal"	"arrowleft"	"1389"	"FALSE"	"VerticalHorizontal"	"28.757140000"	"0.1621700000"	"2"	"31"
n/a	"html-keyboard-response"	"245"	"316080"	"0.0-5.0-2.0-0.31"	"qh07hl"	"600"	"1366"	"chrome"	"108.0.0"	"FALSE"	"Windows 10"	"60.56"	n/a	n/a	n/a	n/a	n/a	n/a	"fixation"	n/a	n/a	n/a	n/a	"NULL"	"NULL"	"NULL"	n/a	"<p style=\"color: black; font-size: 80px; padding-left: 15%; padding-right: 6%; padding-top: 47%; padding-bottom: 13%\">+</p>"	n/a	"1469"	n/a	n/a	n/a	n/a	n/a	n/a	n/a	n/a	n/a
n/a	"image-keyboard-response"	"246"	"316387"	"0.0-5.0-2.0-1.31"	"qh07hl"	"600"	"1366"	"chrome"	"108.0.0"	"FALSE"	"Windows 10"	"60.56"	n/a	n/a	n/a	n/a	n/a	n/a	"Trial"	n/a	n/a	n/a	n/a	"NULL"	"NULL"	"NULL"	"306"	"stimuli/VerticalHorizontal_-28.75714_0.06730.png"	"arrowleft"	n/a	"VerticalHorizontal"	"arrowleft"	"1479"	"TRUE"	"VerticalHorizontal"	"-28.75714000"	"0.0673000000"	"2"	"32"
n/a	"html-keyboard-response"	"247"	"317550"	"0.0-5.0-2.0-0.32"	"qh07hl"	"600"	"1366"	"chrome"	"108.0.0"	"FALSE"	"Windows 10"	"60.56"	n/a	n/a	n/a	n/a	n/a	n/a	"fixation"	n/a	n/a	n/a	n/a	"NULL"	"NULL"	"NULL"	n/a	"<p style=\"color: black; font-size: 80px; padding-left: 10%; padding-right: 15%; padding-top: 46%; padding-bottom: 39%\">+</p>"	n/a	"1156"	n/a	n/a	n/a	n/a	n/a	n/a	n/a	n/a	n/a
n/a	"image-keyboard-response"	"248"	"317934"	"0.0-5.0-2.0-1.32"	"qh07hl"	"600"	"1366"	"chrome"	"108.0.0"	"FALSE"	"Windows 10"	"60.56"	n/a	n/a	n/a	n/a	n/a	n/a	"Trial"	n/a	n/a	n/a	n/a	"NULL"	"NULL"	"NULL"	"383"	"stimuli/VerticalHorizontal_20.27143_-0.16217.png"	"arrowleft"	n/a	"VerticalHorizontal"	"arrowright"	"1163"	"FALSE"	"VerticalHorizontal"	"20.271430000"	"-0.162170000"	"2"	"33"
n/a	"html-keyboard-response"	"249"	"318967"	"0.0-5.0-2.0-0.33"	"qh07hl"	"600"	"1366"	"chrome"	"108.0.0"	"FALSE"	"Windows 10"	"60.56"	n/a	n/a	n/a	n/a	n/a	n/a	"fixation"	n/a	n/a	n/a	n/a	"NULL"	"NULL"	"NULL"	n/a	"<p style=\"color: black; font-size: 80px; padding-left: 27%; padding-right: 27%; padding-top: 4%; padding-bottom: 31%\">+</p>"	n/a	"1017"	n/a	n/a	n/a	n/a	n/a	n/a	n/a	n/a	n/a
n/a	"image-keyboard-response"	"250"	"319507"	"0.0-5.0-2.0-1.33"	"qh07hl"	"600"	"1366"	"chrome"	"108.0.0"	"FALSE"	"Windows 10"	"60.56"	n/a	n/a	n/a	n/a	n/a	n/a	"Trial"	n/a	n/a	n/a	n/a	"NULL"	"NULL"	"NULL"	"538"	"stimuli/VerticalHorizontal_-11.78571_-0.1096.png"	"arrowright"	n/a	"VerticalHorizontal"	"arrowright"	"1033"	"TRUE"	"VerticalHorizontal"	"-11.78571000"	"-0.109600000"	"2"	"34"
n/a	"html-keyboard-response"	"251"	"320534"	"0.0-5.0-2.0-0.34"	"qh07hl"	"600"	"1366"	"chrome"	"108.0.0"	"FALSE"	"Windows 10"	"60.56"	n/a	n/a	n/a	n/a	n/a	n/a	"fixation"	n/a	n/a	n/a	n/a	"NULL"	"NULL"	"NULL"	n/a	"<p style=\"color: black; font-size: 80px; padding-left: 4%; padding-right: 14%; padding-top: 21%; padding-bottom: 20%\">+</p>"	n/a	"1020"	n/a	n/a	n/a	n/a	n/a	n/a	n/a	n/a	n/a
n/a	"image-keyboard-response"	"252"	"320951"	"0.0-5.0-2.0-1.34"	"qh07hl"	"600"	"1366"	"chrome"	"108.0.0"	"FALSE"	"Windows 10"	"60.56"	n/a	n/a	n/a	n/a	n/a	n/a	"Trial"	n/a	n/a	n/a	n/a	"NULL"	"NULL"	"NULL"	"415"	"stimuli/VerticalHorizontal_3.30000_-0.2250.png"	"arrowright"	n/a	"VerticalHorizontal"	"arrowright"	"1027"	"TRUE"	"VerticalHorizontal"	"3.3000000000"	"-0.225000000"	"2"	"35"
n/a	"html-keyboard-response"	"253"	"322225"	"0.0-5.0-2.0-0.35"	"qh07hl"	"600"	"1366"	"chrome"	"108.0.0"	"FALSE"	"Windows 10"	"60.56"	n/a	n/a	n/a	n/a	n/a	n/a	"fixation"	n/a	n/a	n/a	n/a	"NULL"	"NULL"	"NULL"	n/a	"<p style=\"color: black; font-size: 80px; padding-left: 22%; padding-right: 31%; padding-top: 11%; padding-bottom: 14%\">+</p>"	n/a	"1267"	n/a	n/a	n/a	n/a	n/a	n/a	n/a	n/a	n/a
n/a	"image-keyboard-response"	"254"	"322761"	"0.0-5.0-2.0-1.35"	"qh07hl"	"600"	"1366"	"chrome"	"108.0.0"	"FALSE"	"Windows 10"	"60.56"	n/a	n/a	n/a	n/a	n/a	n/a	"Trial"	n/a	n/a	n/a	n/a	"NULL"	"NULL"	"NULL"	"535"	"stimuli/VerticalHorizontal_20.27143_-0.2250.png"	"arrowright"	n/a	"VerticalHorizontal"	"arrowright"	"1274"	"TRUE"	"VerticalHorizontal"	"20.271430000"	"-0.225000000"	"2"	"36"
n/a	"html-keyboard-response"	"255"	"324013"	"0.0-5.0-2.0-0.36"	"qh07hl"	"600"	"1366"	"chrome"	"108.0.0"	"FALSE"	"Windows 10"	"60.56"	n/a	n/a	n/a	n/a	n/a	n/a	"fixation"	n/a	n/a	n/a	n/a	"NULL"	"NULL"	"NULL"	n/a	"<p style=\"color: black; font-size: 80px; padding-left: 24%; padding-right: 14%; padding-top: 49%; padding-bottom: 17%\">+</p>"	n/a	"1222"	n/a	n/a	n/a	n/a	n/a	n/a	n/a	n/a	n/a
