"success"	"trial_type"	"trial_index"	"time_elapsed"	"internal_node_id"	"participant_id"	"screen_height"	"screen_width"	"browser"	"browser_version"	"mobile"	"os"	"vsync_rate"	"subject_id"	"width"	"height"	"webaudio"	"fullscreen"	"webcam"	"microphone"	"screen"	"version"	"date"	"time"	"rt"	"response"	"timeout"	"failed_images"	"failed_audio"	"failed_video"	"stimulus"	"trial_duration"	"block"	"correct_response"	"prestimulus_duration"	"correct"	"type"	"illusion_strength"	"illusion_difference"	"block_number"	"trial_number"
"TRUE"	"fullscreen"	"0"	"1304"	"0.0-0.0"	"vz5tyl"	"600"	"1366"	"chrome"	"111.0.0"	"FALSE"	"Windows 10"	"60.07"	"056"	n/a	n/a	n/a	n/a	n/a	n/a	n/a	n/a	n/a	n/a	n/a	"NULL"	n/a	"NULL"	"NULL"	"NULL"	n/a	n/a	n/a	n/a	n/a	n/a	n/a	n/a	n/a	n/a	n/a
n/a	"browser-check"	"1"	"2319"	"0.0-1.0"	"vz5tyl"	"600"	"1366"	"chrome"	"111.0.0"	"FALSE"	"Windows 10"	"60.07"	"056"	"1366"	"600"	"TRUE"	"TRUE"	"TRUE"	"TRUE"	"browser_info"	"1.0"	"22/03/2023"	"18:03:57"	n/a	"NULL"	n/a	"NULL"	"NULL"	"NULL"	n/a	n/a	n/a	n/a	n/a	n/a	n/a	n/a	n/a	n/a	n/a
n/a	"survey-text"	"2"	"5803"	"0.0-2.0"	"vz5tyl"	"600"	"1366"	"chrome"	"111.0.0"	"FALSE"	"Windows 10"	"60.07"	"056"	n/a	n/a	n/a	n/a	n/a	n/a	"subject_id"	n/a	n/a	n/a	"3480"	"list(subject_id = \"056\")"	n/a	"NULL"	"NULL"	"NULL"	n/a	n/a	n/a	n/a	n/a	n/a	n/a	n/a	n/a	n/a	n/a
"TRUE"	"preload"	"3"	"5817"	"0.0-3.0"	"vz5tyl"	"600"	"1366"	"chrome"	"111.0.0"	"FALSE"	"Windows 10"	"60.07"	"056"	n/a	n/a	n/a	n/a	n/a	n/a	n/a	n/a	n/a	n/a	n/a	"NULL"	"FALSE"	"list()"	"list()"	"list()"	n/a	n/a	n/a	n/a	n/a	n/a	n/a	n/a	n/a	n/a	n/a
n/a	"html-button-response"	"4"	"66044"	"0.0-4.0-0.0"	"vz5tyl"	"600"	"1366"	"chrome"	"111.0.0"	"FALSE"	"Windows 10"	"60.07"	"056"	n/a	n/a	n/a	n/a	n/a	n/a	"illusion_instructions"	n/a	n/a	n/a	"60226"	"0"	n/a	"NULL"	"NULL"	"NULL"	"<p><b>Illusion Game</b></p><p>In this game of speed and reflex, you will need to make <b>visual judgments</b> (for instance, which circle is the biggest, or which line is the longest), as fast and as correctly as possible, while <b>resisting different visual illusions</b>.</p><p>We are going to start with some examples of all the illusions you will encounter in the game.</p>"	n/a	n/a	n/a	n/a	n/a	n/a	n/a	n/a	n/a	n/a
"TRUE"	"preload"	"5"	"66069"	"0.0-4.0-1.0-0.0"	"vz5tyl"	"600"	"1366"	"chrome"	"111.0.0"	"FALSE"	"Windows 10"	"60.07"	"056"	n/a	n/a	n/a	n/a	n/a	n/a	n/a	n/a	n/a	n/a	n/a	"NULL"	"FALSE"	"list()"	"list()"	"list()"	n/a	n/a	n/a	n/a	n/a	n/a	n/a	n/a	n/a	n/a	n/a
n/a	"html-keyboard-response"	"6"	"79426"	"0.0-4.0-1.0-1.0"	"vz5tyl"	"600"	"1366"	"chrome"	"111.0.0"	"FALSE"	"Windows 10"	"60.07"	"056"	n/a	n/a	n/a	n/a	n/a	n/a	n/a	n/a	n/a	n/a	"13355"	"enter"	n/a	"NULL"	"NULL"	"NULL"	"<p><b>Practice</b></p><p>In this part, two red circles will appear side by side on the screen.</p><p>Your task is to select which <b>red circle is bigger</b> in size as fast as you can, without making errors.</p><p>Don't get distracted by the surrounding black circles around the red circles!</p><p>Press <b>the LEFT or the RIGHT arrow</b> to indicate which is the bigger <b>red circle.</b></p><div style='float: center'><img src='materials/instructions/Ebbinghaus_Demo.png' height='300'></img><p><img src='utils/answer/answer_leftright_keyboard.PNG' height='150'></img></p><p class='small'>In this example, the correct answer is the <b>LEFT arrow</b>.</p></div><p>Are you ready? <b>Press ENTER to start</b></p>"	n/a	n/a	n/a	n/a	n/a	n/a	n/a	n/a	n/a	n/a
n/a	"html-keyboard-response"	"7"	"81137"	"0.0-4.0-1.0-2.0-0.0"	"vz5tyl"	"600"	"1366"	"chrome"	"111.0.0"	"FALSE"	"Windows 10"	"60.07"	"056"	n/a	n/a	n/a	n/a	n/a	n/a	"fixation"	n/a	n/a	n/a	n/a	"NULL"	n/a	"NULL"	"NULL"	"NULL"	"<p style=\"color: black; font-size: 80px; padding-left: 18%; padding-right: 21%; padding-top: 29%; padding-bottom: 15%\">+</p>"	"1183"	n/a	n/a	n/a	n/a	n/a	n/a	n/a	n/a	n/a
n/a	"image-keyboard-response"	"8"	"81805"	"0.0-4.0-1.0-2.0-1.0"	"vz5tyl"	"600"	"1366"	"chrome"	"111.0.0"	"FALSE"	"Windows 10"	"60.07"	"056"	n/a	n/a	n/a	n/a	n/a	n/a	"Trial"	n/a	n/a	n/a	"659"	"arrowleft"	n/a	"NULL"	"NULL"	"NULL"	"stimuli/Ebbinghaus_1000000_1.40000.png"	n/a	"Ebbinghaus"	"arrowleft"	"1711"	"TRUE"	"Ebbinghaus"	"100000000000"	"1.4000000000"	"1"	"1"
n/a	"html-keyboard-response"	"9"	"82839"	"0.0-4.0-1.0-2.0-0.1"	"vz5tyl"	"600"	"1366"	"chrome"	"111.0.0"	"FALSE"	"Windows 10"	"60.07"	"056"	n/a	n/a	n/a	n/a	n/a	n/a	"fixation"	n/a	n/a	n/a	n/a	"NULL"	n/a	"NULL"	"NULL"	"NULL"	"<p style=\"color: black; font-size: 80px; padding-left: 44%; padding-right: 26%; padding-top: 9%; padding-bottom: 34%\">+</p>"	"1026"	n/a	n/a	n/a	n/a	n/a	n/a	n/a	n/a	n/a
n/a	"image-keyboard-response"	"10"	"83265"	"0.0-4.0-1.0-2.0-1.1"	"vz5tyl"	"600"	"1366"	"chrome"	"111.0.0"	"FALSE"	"Windows 10"	"60.07"	"056"	n/a	n/a	n/a	n/a	n/a	n/a	"Trial"	n/a	n/a	n/a	"425"	"arrowright"	n/a	"NULL"	"NULL"	"NULL"	"stimuli/Ebbinghaus_1000000_-1.4000.png"	n/a	"Ebbinghaus"	"arrowright"	"1034"	"TRUE"	"Ebbinghaus"	"100000000000"	"-1.400000000"	"1"	"2"
n/a	"html-keyboard-response"	"11"	"84360"	"0.0-4.0-1.0-2.0-0.2"	"vz5tyl"	"600"	"1366"	"chrome"	"111.0.0"	"FALSE"	"Windows 10"	"60.07"	"056"	n/a	n/a	n/a	n/a	n/a	n/a	"fixation"	n/a	n/a	n/a	n/a	"NULL"	n/a	"NULL"	"NULL"	"NULL"	"<p style=\"color: black; font-size: 80px; padding-left: 33%; padding-right: 31%; padding-top: 42%; padding-bottom: 47%\">+</p>"	"1092"	n/a	n/a	n/a	n/a	n/a	n/a	n/a	n/a	n/a
n/a	"image-keyboard-response"	"12"	"84771"	"0.0-4.0-1.0-2.0-1.2"	"vz5tyl"	"600"	"1366"	"chrome"	"111.0.0"	"FALSE"	"Windows 10"	"60.07"	"056"	n/a	n/a	n/a	n/a	n/a	n/a	"Trial"	n/a	n/a	n/a	"410"	"arrowright"	n/a	"NULL"	"NULL"	"NULL"	"stimuli/Ebbinghaus_-100000_-1.4000.png"	n/a	"Ebbinghaus"	"arrowright"	"1095"	"TRUE"	"Ebbinghaus"	"-10000000000"	"-1.400000000"	"1"	"3"
n/a	"html-keyboard-response"	"13"	"86287"	"0.0-4.0-1.0-2.0-0.3"	"vz5tyl"	"600"	"1366"	"chrome"	"111.0.0"	"FALSE"	"Windows 10"	"60.07"	"056"	n/a	n/a	n/a	n/a	n/a	n/a	"fixation"	n/a	n/a	n/a	n/a	"NULL"	n/a	"NULL"	"NULL"	"NULL"	"<p style=\"color: black; font-size: 80px; padding-left: 29%; padding-right: 17%; padding-top: 23%; padding-bottom: 15%\">+</p>"	"1500"	n/a	n/a	n/a	n/a	n/a	n/a	n/a	n/a	n/a
n/a	"image-keyboard-response"	"14"	"86737"	"0.0-4.0-1.0-2.0-1.3"	"vz5tyl"	"600"	"1366"	"chrome"	"111.0.0"	"FALSE"	"Windows 10"	"60.07"	"056"	n/a	n/a	n/a	n/a	n/a	n/a	"Trial"	n/a	n/a	n/a	"450"	"arrowleft"	n/a	"NULL"	"NULL"	"NULL"	"stimuli/Ebbinghaus_0000000_1.40000.png"	n/a	"Ebbinghaus"	"arrowleft"	"1516"	"TRUE"	"Ebbinghaus"	"000000000000"	"1.4000000000"	"1"	"4"
n/a	"html-keyboard-response"	"15"	"88086"	"0.0-4.0-1.0-2.0-0.4"	"vz5tyl"	"600"	"1366"	"chrome"	"111.0.0"	"FALSE"	"Windows 10"	"60.07"	"056"	n/a	n/a	n/a	n/a	n/a	n/a	"fixation"	n/a	n/a	n/a	n/a	"NULL"	n/a	"NULL"	"NULL"	"NULL"	"<p style=\"color: black; font-size: 80px; padding-left: 12%; padding-right: 40%; padding-top: 47%; padding-bottom: 24%\">+</p>"	"1344"	n/a	n/a	n/a	n/a	n/a	n/a	n/a	n/a	n/a
n/a	"image-keyboard-response"	"16"	"88512"	"0.0-4.0-1.0-2.0-1.4"	"vz5tyl"	"600"	"1366"	"chrome"	"111.0.0"	"FALSE"	"Windows 10"	"60.07"	"056"	n/a	n/a	n/a	n/a	n/a	n/a	"Trial"	n/a	n/a	n/a	"426"	"arrowright"	n/a	"NULL"	"NULL"	"NULL"	"stimuli/Ebbinghaus_0000000_-1.4000.png"	n/a	"Ebbinghaus"	"arrowright"	"1349"	"TRUE"	"Ebbinghaus"	"000000000000"	"-1.400000000"	"1"	"5"
n/a	"html-keyboard-response"	"17"	"89807"	"0.0-4.0-1.0-2.0-0.5"	"vz5tyl"	"600"	"1366"	"chrome"	"111.0.0"	"FALSE"	"Windows 10"	"60.07"	"056"	n/a	n/a	n/a	n/a	n/a	n/a	"fixation"	n/a	n/a	n/a	n/a	"NULL"	n/a	"NULL"	"NULL"	"NULL"	"<p style=\"color: black; font-size: 80px; padding-left: 6%; padding-right: 40%; padding-top: 18%; padding-bottom: 31%\">+</p>"	"1285"	n/a	n/a	n/a	n/a	n/a	n/a	n/a	n/a	n/a
n/a	"image-keyboard-response"	"18"	"90217"	"0.0-4.0-1.0-2.0-1.5"	"vz5tyl"	"600"	"1366"	"chrome"	"111.0.0"	"FALSE"	"Windows 10"	"60.07"	"056"	n/a	n/a	n/a	n/a	n/a	n/a	"Trial"	n/a	n/a	n/a	"409"	"arrowleft"	n/a	"NULL"	"NULL"	"NULL"	"stimuli/Ebbinghaus_-100000_1.40000.png"	n/a	"Ebbinghaus"	"arrowleft"	"1295"	"TRUE"	"Ebbinghaus"	"-10000000000"	"1.4000000000"	"1"	"6"
n/a	"html-button-response"	"19"	"93875"	"0.0-4.0-1.0-3.0"	"vz5tyl"	"600"	"1366"	"chrome"	"111.0.0"	"FALSE"	"Windows 10"	"60.07"	"056"	n/a	n/a	n/a	n/a	n/a	n/a	"practice_block_results"	n/a	n/a	n/a	"3657"	"0"	n/a	"NULL"	"NULL"	"NULL"	"<p style='color:rgb(76,175,80);'> Correct Responses: <b>100.00%</b></p><hr><p style='color:rgb(233,30,99);'> Average Response Time: <b>463.17</b> ms.</p>"	n/a	n/a	n/a	n/a	n/a	n/a	n/a	n/a	n/a	n/a
"TRUE"	"preload"	"20"	"94405"	"0.0-4.0-2.0-0.0"	"vz5tyl"	"600"	"1366"	"chrome"	"111.0.0"	"FALSE"	"Windows 10"	"60.07"	"056"	n/a	n/a	n/a	n/a	n/a	n/a	n/a	n/a	n/a	n/a	n/a	"NULL"	"FALSE"	"list()"	"list()"	"list()"	n/a	n/a	n/a	n/a	n/a	n/a	n/a	n/a	n/a	n/a	n/a
n/a	"html-keyboard-response"	"21"	"102550"	"0.0-4.0-2.0-1.0"	"vz5tyl"	"600"	"1366"	"chrome"	"111.0.0"	"FALSE"	"Windows 10"	"60.07"	"056"	n/a	n/a	n/a	n/a	n/a	n/a	n/a	n/a	n/a	n/a	"8143"	"enter"	n/a	"NULL"	"NULL"	"NULL"	"<p><b>Practice</b></p><p>In this part, two horizontal red lines will appear one above the other.</p><p>Your task is to select which <b>line is longer</b> in length as fast as you can, without making errors.</p><p>Don't get distracted by the surrounding black arrows at the end of the red lines!</p><p>Press <b>the UP or the DOWN arrow</b> to indicate where is the longer <b>red line.</b></p><div style='float: center'><img src='materials/instructions/MullerLyer_Demo.png' height='300'></img><p><img src='utils/answer/answer_updown_keyboard.PNG' height='150'></img></p><p class='small'>In this example, the correct answer is the <b>UP arrow</b>.</p></div><p>Are you ready? <b>Press ENTER to start</b></p>"	n/a	n/a	n/a	n/a	n/a	n/a	n/a	n/a	n/a	n/a
n/a	"html-keyboard-response"	"22"	"104495"	"0.0-4.0-2.0-2.0-0.0"	"vz5tyl"	"600"	"1366"	"chrome"	"111.0.0"	"FALSE"	"Windows 10"	"60.07"	"056"	n/a	n/a	n/a	n/a	n/a	n/a	"fixation"	n/a	n/a	n/a	n/a	"NULL"	n/a	"NULL"	"NULL"	"NULL"	"<p style=\"color: black; font-size: 80px; padding-left: 7%; padding-right: 25%; padding-top: 31%; padding-bottom: 7%\">+</p>"	"1430"	n/a	n/a	n/a	n/a	n/a	n/a	n/a	n/a	n/a
n/a	"image-keyboard-response"	"23"	"104969"	"0.0-4.0-2.0-2.0-1.0"	"vz5tyl"	"600"	"1366"	"chrome"	"111.0.0"	"FALSE"	"Windows 10"	"60.07"	"056"	n/a	n/a	n/a	n/a	n/a	n/a	"Trial"	n/a	n/a	n/a	"473"	"arrowdown"	n/a	"NULL"	"NULL"	"NULL"	"stimuli/MullerLyer_2300000_-0.7000.png"	n/a	"MullerLyer"	"arrowdown"	"1945"	"TRUE"	"MullerLyer"	"230000000000"	"-0.700000000"	"1"	"7"
n/a	"html-keyboard-response"	"24"	"106329"	"0.0-4.0-2.0-2.0-0.1"	"vz5tyl"	"600"	"1366"	"chrome"	"111.0.0"	"FALSE"	"Windows 10"	"60.07"	"056"	n/a	n/a	n/a	n/a	n/a	n/a	"fixation"	n/a	n/a	n/a	n/a	"NULL"	n/a	"NULL"	"NULL"	"NULL"	"<p style=\"color: black; font-size: 80px; padding-left: 12%; padding-right: 23%; padding-top: 2%; padding-bottom: 36%\">+</p>"	"1353"	n/a	n/a	n/a	n/a	n/a	n/a	n/a	n/a	n/a
n/a	"image-keyboard-response"	"25"	"106807"	"0.0-4.0-2.0-2.0-1.1"	"vz5tyl"	"600"	"1366"	"chrome"	"111.0.0"	"FALSE"	"Windows 10"	"60.07"	"056"	n/a	n/a	n/a	n/a	n/a	n/a	"Trial"	n/a	n/a	n/a	"477"	"arrowdown"	n/a	"NULL"	"NULL"	"NULL"	"stimuli/MullerLyer_-230000_-0.7000.png"	n/a	"MullerLyer"	"arrowdown"	"1360"	"TRUE"	"MullerLyer"	"-23000000000"	"-0.700000000"	"1"	"8"
n/a	"html-keyboard-response"	"26"	"108276"	"0.0-4.0-2.0-2.0-0.2"	"vz5tyl"	"600"	"1366"	"chrome"	"111.0.0"	"FALSE"	"Windows 10"	"60.07"	"056"	n/a	n/a	n/a	n/a	n/a	n/a	"fixation"	n/a	n/a	n/a	n/a	"NULL"	n/a	"NULL"	"NULL"	"NULL"	"<p style=\"color: black; font-size: 80px; padding-left: 24%; padding-right: 38%; padding-top: 22%; padding-bottom: 41%\">+</p>"	"1468"	n/a	n/a	n/a	n/a	n/a	n/a	n/a	n/a	n/a
n/a	"image-keyboard-response"	"27"	"108686"	"0.0-4.0-2.0-2.0-1.2"	"vz5tyl"	"600"	"1366"	"chrome"	"111.0.0"	"FALSE"	"Windows 10"	"60.07"	"056"	n/a	n/a	n/a	n/a	n/a	n/a	"Trial"	n/a	n/a	n/a	"410"	"arrowup"	n/a	"NULL"	"NULL"	"NULL"	"stimuli/MullerLyer_-230000_0.70000.png"	n/a	"MullerLyer"	"arrowup"	"1469"	"TRUE"	"MullerLyer"	"-23000000000"	"0.7000000000"	"1"	"9"
n/a	"html-keyboard-response"	"28"	"110170"	"0.0-4.0-2.0-2.0-0.3"	"vz5tyl"	"600"	"1366"	"chrome"	"111.0.0"	"FALSE"	"Windows 10"	"60.07"	"056"	n/a	n/a	n/a	n/a	n/a	n/a	"fixation"	n/a	n/a	n/a	n/a	"NULL"	n/a	"NULL"	"NULL"	"NULL"	"<p style=\"color: black; font-size: 80px; padding-left: 6%; padding-right: 24%; padding-top: 39%; padding-bottom: 1%\">+</p>"	"1476"	n/a	n/a	n/a	n/a	n/a	n/a	n/a	n/a	n/a
n/a	"image-keyboard-response"	"29"	"110552"	"0.0-4.0-2.0-2.0-1.3"	"vz5tyl"	"600"	"1366"	"chrome"	"111.0.0"	"FALSE"	"Windows 10"	"60.07"	"056"	n/a	n/a	n/a	n/a	n/a	n/a	"Trial"	n/a	n/a	n/a	"381"	"arrowdown"	n/a	"NULL"	"NULL"	"NULL"	"stimuli/MullerLyer_0000000_-0.7000.png"	n/a	"MullerLyer"	"arrowdown"	"1484"	"TRUE"	"MullerLyer"	"000000000000"	"-0.700000000"	"1"	"10"
n/a	"html-keyboard-response"	"30"	"111610"	"0.0-4.0-2.0-2.0-0.4"	"vz5tyl"	"600"	"1366"	"chrome"	"111.0.0"	"FALSE"	"Windows 10"	"60.07"	"056"	n/a	n/a	n/a	n/a	n/a	n/a	"fixation"	n/a	n/a	n/a	n/a	"NULL"	n/a	"NULL"	"NULL"	"NULL"	"<p style=\"color: black; font-size: 80px; padding-left: 7%; padding-right: 10%; padding-top: 27%; padding-bottom: 32%\">+</p>"	"1047"	n/a	n/a	n/a	n/a	n/a	n/a	n/a	n/a	n/a
n/a	"image-keyboard-response"	"31"	"111997"	"0.0-4.0-2.0-2.0-1.4"	"vz5tyl"	"600"	"1366"	"chrome"	"111.0.0"	"FALSE"	"Windows 10"	"60.07"	"056"	n/a	n/a	n/a	n/a	n/a	n/a	"Trial"	n/a	n/a	n/a	"387"	"arrowup"	n/a	"NULL"	"NULL"	"NULL"	"stimuli/MullerLyer_0000000_0.70000.png"	n/a	"MullerLyer"	"arrowup"	"1058"	"TRUE"	"MullerLyer"	"000000000000"	"0.7000000000"	"1"	"11"
n/a	"html-keyboard-response"	"32"	"113214"	"0.0-4.0-2.0-2.0-0.5"	"vz5tyl"	"600"	"1366"	"chrome"	"111.0.0"	"FALSE"	"Windows 10"	"60.07"	"056"	n/a	n/a	n/a	n/a	n/a	n/a	"fixation"	n/a	n/a	n/a	n/a	"NULL"	n/a	"NULL"	"NULL"	"NULL"	"<p style=\"color: black; font-size: 80px; padding-left: 24%; padding-right: 44%; padding-top: 21%; padding-bottom: 7%\">+</p>"	"1206"	n/a	n/a	n/a	n/a	n/a	n/a	n/a	n/a	n/a
n/a	"image-keyboard-response"	"33"	"113758"	"0.0-4.0-2.0-2.0-1.5"	"vz5tyl"	"600"	"1366"	"chrome"	"111.0.0"	"FALSE"	"Windows 10"	"60.07"	"056"	n/a	n/a	n/a	n/a	n/a	n/a	"Trial"	n/a	n/a	n/a	"543"	"arrowup"	n/a	"NULL"	"NULL"	"NULL"	"stimuli/MullerLyer_2300000_0.70000.png"	n/a	"MullerLyer"	"arrowup"	"1217"	"TRUE"	"MullerLyer"	"230000000000"	"0.7000000000"	"1"	"12"
n/a	"html-button-response"	"34"	"117964"	"0.0-4.0-2.0-3.0"	"vz5tyl"	"600"	"1366"	"chrome"	"111.0.0"	"FALSE"	"Windows 10"	"60.07"	"056"	n/a	n/a	n/a	n/a	n/a	n/a	"practice_block_results"	n/a	n/a	n/a	"4205"	"0"	n/a	"NULL"	"NULL"	"NULL"	"<p style='color:rgb(76,175,80);'> Correct Responses: <b>100.00%</b></p><hr><p style='color:rgb(233,30,99);'> Average Response Time: <b>445.17</b> ms.</p>"	n/a	n/a	n/a	n/a	n/a	n/a	n/a	n/a	n/a	n/a
"TRUE"	"preload"	"35"	"118500"	"0.0-4.0-3.0-0.0"	"vz5tyl"	"600"	"1366"	"chrome"	"111.0.0"	"FALSE"	"Windows 10"	"60.07"	"056"	n/a	n/a	n/a	n/a	n/a	n/a	n/a	n/a	n/a	n/a	n/a	"NULL"	"FALSE"	"list()"	"list()"	"list()"	n/a	n/a	n/a	n/a	n/a	n/a	n/a	n/a	n/a	n/a	n/a
n/a	"html-keyboard-response"	"36"	"123995"	"0.0-4.0-3.0-1.0"	"vz5tyl"	"600"	"1366"	"chrome"	"111.0.0"	"FALSE"	"Windows 10"	"60.07"	"056"	n/a	n/a	n/a	n/a	n/a	n/a	n/a	n/a	n/a	n/a	"5493"	"enter"	n/a	"NULL"	"NULL"	"NULL"	"<p><b>Practice</b></p><p>In this part, two red lines will appear side by side.</p><p>Your task is to tell <b>which line is longer</b> in length, regardless of their orientation, as fast as you can, and without making errors.</p><p>Don't get distracted by the orientation of the lines!</p><p>Press <b>the LEFT or the RIGHT arrow</b> to indicate which <b>line is the longer one.</b></p><div style='float: center'><img src='materials/instructions/VerticalHorizontal_Demo.png' height='300'></img><p><img src='utils/answer/answer_leftright_keyboard.PNG' height='150'></img></p><p class='small'>In this example, the correct answer is the <b>LEFT arrow</b>.</p></div><p>Are you ready? <b>Press ENTER to start</b></p>"	n/a	n/a	n/a	n/a	n/a	n/a	n/a	n/a	n/a	n/a
n/a	"html-keyboard-response"	"37"	"125933"	"0.0-4.0-3.0-2.0-0.0"	"vz5tyl"	"600"	"1366"	"chrome"	"111.0.0"	"FALSE"	"Windows 10"	"60.07"	"056"	n/a	n/a	n/a	n/a	n/a	n/a	"fixation"	n/a	n/a	n/a	n/a	"NULL"	n/a	"NULL"	"NULL"	"NULL"	"<p style=\"color: black; font-size: 80px; padding-left: 25%; padding-right: 19%; padding-top: 37%; padding-bottom: 15%\">+</p>"	"1423"	n/a	n/a	n/a	n/a	n/a	n/a	n/a	n/a	n/a
n/a	"image-keyboard-response"	"38"	"126309"	"0.0-4.0-3.0-2.0-1.0"	"vz5tyl"	"600"	"1366"	"chrome"	"111.0.0"	"FALSE"	"Windows 10"	"60.07"	"056"	n/a	n/a	n/a	n/a	n/a	n/a	"Trial"	n/a	n/a	n/a	"375"	"arrowleft"	n/a	"NULL"	"NULL"	"NULL"	"stimuli/VerticalHorizontal_-330000_0.90000.png"	n/a	"VerticalHorizontal"	"arrowleft"	"1938"	"TRUE"	"VerticalHorizontal"	"-33000000000"	"0.9000000000"	"1"	"13"
n/a	"html-keyboard-response"	"39"	"127774"	"0.0-4.0-3.0-2.0-0.1"	"vz5tyl"	"600"	"1366"	"chrome"	"111.0.0"	"FALSE"	"Windows 10"	"60.07"	"056"	n/a	n/a	n/a	n/a	n/a	n/a	"fixation"	n/a	n/a	n/a	n/a	"NULL"	n/a	"NULL"	"NULL"	"NULL"	"<p style=\"color: black; font-size: 80px; padding-left: 38%; padding-right: 6%; padding-top: 45%; padding-bottom: 33%\">+</p>"	"1457"	n/a	n/a	n/a	n/a	n/a	n/a	n/a	n/a	n/a
n/a	"image-keyboard-response"	"40"	"128099"	"0.0-4.0-3.0-2.0-1.1"	"vz5tyl"	"600"	"1366"	"chrome"	"111.0.0"	"FALSE"	"Windows 10"	"60.07"	"056"	n/a	n/a	n/a	n/a	n/a	n/a	"Trial"	n/a	n/a	n/a	"324"	"arrowright"	n/a	"NULL"	"NULL"	"NULL"	"stimuli/VerticalHorizontal_-330000_-0.9000.png"	n/a	"VerticalHorizontal"	"arrowright"	"1465"	"TRUE"	"VerticalHorizontal"	"-33000000000"	"-0.900000000"	"1"	"14"
n/a	"html-keyboard-response"	"41"	"129590"	"0.0-4.0-3.0-2.0-0.2"	"vz5tyl"	"600"	"1366"	"chrome"	"111.0.0"	"FALSE"	"Windows 10"	"60.07"	"056"	n/a	n/a	n/a	n/a	n/a	n/a	"fixation"	n/a	n/a	n/a	n/a	"NULL"	n/a	"NULL"	"NULL"	"NULL"	"<p style=\"color: black; font-size: 80px; padding-left: 16%; padding-right: 16%; padding-top: 44%; padding-bottom: 3%\">+</p>"	"1484"	n/a	n/a	n/a	n/a	n/a	n/a	n/a	n/a	n/a
n/a	"image-keyboard-response"	"42"	"130393"	"0.0-4.0-3.0-2.0-1.2"	"vz5tyl"	"600"	"1366"	"chrome"	"111.0.0"	"FALSE"	"Windows 10"	"60.07"	"056"	n/a	n/a	n/a	n/a	n/a	n/a	"Trial"	n/a	n/a	n/a	"803"	"arrowleft"	n/a	"NULL"	"NULL"	"NULL"	"stimuli/VerticalHorizontal_3300000_0.90000.png"	n/a	"VerticalHorizontal"	"arrowleft"	"1491"	"TRUE"	"VerticalHorizontal"	"330000000000"	"0.9000000000"	"1"	"15"
n/a	"html-keyboard-response"	"43"	"131511"	"0.0-4.0-3.0-2.0-0.3"	"vz5tyl"	"600"	"1366"	"chrome"	"111.0.0"	"FALSE"	"Windows 10"	"60.07"	"056"	n/a	n/a	n/a	n/a	n/a	n/a	"fixation"	n/a	n/a	n/a	n/a	"NULL"	n/a	"NULL"	"NULL"	"NULL"	"<p style=\"color: black; font-size: 80px; padding-left: 11%; padding-right: 38%; padding-top: 46%; padding-bottom: 11%\">+</p>"	"1108"	n/a	n/a	n/a	n/a	n/a	n/a	n/a	n/a	n/a
n/a	"image-keyboard-response"	"44"	"131951"	"0.0-4.0-3.0-2.0-1.3"	"vz5tyl"	"600"	"1366"	"chrome"	"111.0.0"	"FALSE"	"Windows 10"	"60.07"	"056"	n/a	n/a	n/a	n/a	n/a	n/a	"Trial"	n/a	n/a	n/a	"439"	"arrowright"	n/a	"NULL"	"NULL"	"NULL"	"stimuli/VerticalHorizontal_0000000_-0.9000.png"	n/a	"VerticalHorizontal"	"arrowright"	"1118"	"TRUE"	"VerticalHorizontal"	"000000000000"	"-0.900000000"	"1"	"16"
n/a	"html-keyboard-response"	"45"	"133214"	"0.0-4.0-3.0-2.0-0.4"	"vz5tyl"	"600"	"1366"	"chrome"	"111.0.0"	"FALSE"	"Windows 10"	"60.07"	"056"	n/a	n/a	n/a	n/a	n/a	n/a	"fixation"	n/a	n/a	n/a	n/a	"NULL"	n/a	"NULL"	"NULL"	"NULL"	"<p style=\"color: black; font-size: 80px; padding-left: 31%; padding-right: 13%; padding-top: 30%; padding-bottom: 40%\">+</p>"	"1262"	n/a	n/a	n/a	n/a	n/a	n/a	n/a	n/a	n/a
n/a	"image-keyboard-response"	"46"	"133715"	"0.0-4.0-3.0-2.0-1.4"	"vz5tyl"	"600"	"1366"	"chrome"	"111.0.0"	"FALSE"	"Windows 10"	"60.07"	"056"	n/a	n/a	n/a	n/a	n/a	n/a	"Trial"	n/a	n/a	n/a	"500"	"arrowright"	n/a	"NULL"	"NULL"	"NULL"	"stimuli/VerticalHorizontal_3300000_-0.9000.png"	n/a	"VerticalHorizontal"	"arrowright"	"1263"	"TRUE"	"VerticalHorizontal"	"330000000000"	"-0.900000000"	"1"	"17"
n/a	"html-keyboard-response"	"47"	"135152"	"0.0-4.0-3.0-2.0-0.5"	"vz5tyl"	"600"	"1366"	"chrome"	"111.0.0"	"FALSE"	"Windows 10"	"60.07"	"056"	n/a	n/a	n/a	n/a	n/a	n/a	"fixation"	n/a	n/a	n/a	n/a	"NULL"	n/a	"NULL"	"NULL"	"NULL"	"<p style=\"color: black; font-size: 80px; padding-left: 38%; padding-right: 31%; padding-top: 5%; padding-bottom: 1%\">+</p>"	"1431"	n/a	n/a	n/a	n/a	n/a	n/a	n/a	n/a	n/a
n/a	"image-keyboard-response"	"48"	"135577"	"0.0-4.0-3.0-2.0-1.5"	"vz5tyl"	"600"	"1366"	"chrome"	"111.0.0"	"FALSE"	"Windows 10"	"60.07"	"056"	n/a	n/a	n/a	n/a	n/a	n/a	"Trial"	n/a	n/a	n/a	"424"	"arrowleft"	n/a	"NULL"	"NULL"	"NULL"	"stimuli/VerticalHorizontal_0000000_0.90000.png"	n/a	"VerticalHorizontal"	"arrowleft"	"1437"	"TRUE"	"VerticalHorizontal"	"000000000000"	"0.9000000000"	"1"	"18"
n/a	"html-button-response"	"49"	"138644"	"0.0-4.0-3.0-3.0"	"vz5tyl"	"600"	"1366"	"chrome"	"111.0.0"	"FALSE"	"Windows 10"	"60.07"	"056"	n/a	n/a	n/a	n/a	n/a	n/a	"practice_block_results"	n/a	n/a	n/a	"3067"	"0"	n/a	"NULL"	"NULL"	"NULL"	"<p style='color:rgb(76,175,80);'> Correct Responses: <b>100.00%</b></p><hr><p style='color:rgb(233,30,99);'> Average Response Time: <b>477.50</b> ms.</p>"	n/a	n/a	n/a	n/a	n/a	n/a	n/a	n/a	n/a	n/a
n/a	"html-button-response"	"50"	"215077"	"0.0-4.0-4.0"	"vz5tyl"	"600"	"1366"	"chrome"	"111.0.0"	"FALSE"	"Windows 10"	"60.07"	"056"	n/a	n/a	n/a	n/a	n/a	n/a	"practice_debrief"	n/a	n/a	n/a	"75916"	"0"	n/a	"NULL"	"NULL"	"NULL"	"<p><b>TRAINING COMPLETED</b></p><p>In the next phase, there will be more trials, and some might be harder too.<br> Moreover, after each illusion block, a <b>score</b> will be calculated based on speed (time you took to answer) and accuracy (number of errors).</p><p>Try to keep up a high score!</p><br><p>Note that it can be <i>really</i> challenging at times, so you will need to rely on your <b>intuition</b> and gut feeling to answer as fast as you can without making errors.</p><p>Each illusion block will be repeated two times (so that you have the opportunity to improve your score), but the order of the blocks is random.</p><p>Remember, your goal is to be as <b>fast</b> and <b>accurate</b> as possible. Good luck!</p><br>"	n/a	n/a	n/a	n/a	n/a	n/a	n/a	n/a	n/a	n/a
"TRUE"	"preload"	"51"	"215293"	"0.0-5.0-0.0"	"vz5tyl"	"600"	"1366"	"chrome"	"111.0.0"	"FALSE"	"Windows 10"	"60.07"	"056"	n/a	n/a	n/a	n/a	n/a	n/a	n/a	n/a	n/a	n/a	n/a	"NULL"	"FALSE"	"list()"	"list()"	"list()"	n/a	n/a	n/a	n/a	n/a	n/a	n/a	n/a	n/a	n/a	n/a
n/a	"html-keyboard-response"	"52"	"219362"	"0.0-5.0-1.0"	"vz5tyl"	"600"	"1366"	"chrome"	"111.0.0"	"FALSE"	"Windows 10"	"60.07"	"056"	n/a	n/a	n/a	n/a	n/a	n/a	n/a	n/a	n/a	n/a	"4068"	"enter"	n/a	"NULL"	"NULL"	"NULL"	"<p><b>Part 1/6</b></p><p>In this part, two red circles will appear side by side on the screen.</p><p>Your task is to select which <b>red circle is bigger</b> in size as fast as you can, without making errors.</p><p>Don't get distracted by the surrounding black circles around the red circles!</p><p>Press <b>the LEFT or the RIGHT arrow</b> to indicate which is the bigger <b>red circle.</b></p><div style='float: center'><img src='materials/instructions/Ebbinghaus_Demo.png' height='300'></img><p><img src='utils/answer/answer_leftright_keyboard.PNG' height='150'></img></p><p class='small'>In this example, the correct answer is the <b>LEFT arrow</b>.</p></div><p>Are you ready? <b>Press ENTER to start</b></p>"	n/a	n/a	n/a	n/a	n/a	n/a	n/a	n/a	n/a	n/a
n/a	"html-keyboard-response"	"53"	"221078"	"0.0-5.0-2.0-0.0"	"vz5tyl"	"600"	"1366"	"chrome"	"111.0.0"	"FALSE"	"Windows 10"	"60.07"	"056"	n/a	n/a	n/a	n/a	n/a	n/a	"fixation"	n/a	n/a	n/a	n/a	"NULL"	n/a	"NULL"	"NULL"	"NULL"	"<p style=\"color: black; font-size: 80px; padding-left: 35%; padding-right: 6%; padding-top: 4%; padding-bottom: 13%\">+</p>"	"1190"	n/a	n/a	n/a	n/a	n/a	n/a	n/a	n/a	n/a
n/a	"image-keyboard-response"	"54"	"221607"	"0.0-5.0-2.0-1.0"	"vz5tyl"	"600"	"1366"	"chrome"	"111.0.0"	"FALSE"	"Windows 10"	"60.07"	"056"	n/a	n/a	n/a	n/a	n/a	n/a	"Trial"	n/a	n/a	n/a	"529"	"arrowleft"	n/a	"NULL"	"NULL"	"NULL"	"stimuli/Ebbinghaus_-0.61429_0.21500.png"	n/a	"Ebbinghaus"	"arrowleft"	"1716"	"TRUE"	"Ebbinghaus"	"-0.614290000"	"0.2150000000"	"1"	"19"
n/a	"html-keyboard-response"	"55"	"223076"	"0.0-5.0-2.0-0.1"	"vz5tyl"	"600"	"1366"	"chrome"	"111.0.0"	"FALSE"	"Windows 10"	"60.07"	"056"	n/a	n/a	n/a	n/a	n/a	n/a	"fixation"	n/a	n/a	n/a	n/a	"NULL"	n/a	"NULL"	"NULL"	"NULL"	"<p style=\"color: black; font-size: 80px; padding-left: 8%; padding-right: 16%; padding-top: 18%; padding-bottom: 43%\">+</p>"	"1458"	n/a	n/a	n/a	n/a	n/a	n/a	n/a	n/a	n/a
n/a	"image-keyboard-response"	"56"	"223984"	"0.0-5.0-2.0-1.1"	"vz5tyl"	"600"	"1366"	"chrome"	"111.0.0"	"FALSE"	"Windows 10"	"60.07"	"056"	n/a	n/a	n/a	n/a	n/a	n/a	"Trial"	n/a	n/a	n/a	"907"	"arrowright"	n/a	"NULL"	"NULL"	"NULL"	"stimuli/Ebbinghaus_0.35714_-0.15857.png"	n/a	"Ebbinghaus"	"arrowright"	"1469"	"TRUE"	"Ebbinghaus"	"0.3571400000"	"-0.158570000"	"1"	"20"
n/a	"html-keyboard-response"	"57"	"225061"	"0.0-5.0-2.0-0.2"	"vz5tyl"	"600"	"1366"	"chrome"	"111.0.0"	"FALSE"	"Windows 10"	"60.07"	"056"	n/a	n/a	n/a	n/a	n/a	n/a	"fixation"	n/a	n/a	n/a	n/a	"NULL"	n/a	"NULL"	"NULL"	"NULL"	"<p style=\"color: black; font-size: 80px; padding-left: 34%; padding-right: 1%; padding-top: 49%; padding-bottom: 42%\">+</p>"	"1069"	n/a	n/a	n/a	n/a	n/a	n/a	n/a	n/a	n/a
n/a	"image-keyboard-response"	"58"	"225518"	"0.0-5.0-2.0-1.2"	"vz5tyl"	"600"	"1366"	"chrome"	"111.0.0"	"FALSE"	"Windows 10"	"60.07"	"056"	n/a	n/a	n/a	n/a	n/a	n/a	"Trial"	n/a	n/a	n/a	"457"	"arrowleft"	n/a	"NULL"	"NULL"	"NULL"	"stimuli/Ebbinghaus_-0.61429_0.28000.png"	n/a	"Ebbinghaus"	"arrowleft"	"1077"	"TRUE"	"Ebbinghaus"	"-0.614290000"	"0.2800000000"	"1"	"21"
n/a	"html-keyboard-response"	"59"	"226522"	"0.0-5.0-2.0-0.3"	"vz5tyl"	"600"	"1366"	"chrome"	"111.0.0"	"FALSE"	"Windows 10"	"60.07"	"056"	n/a	n/a	n/a	n/a	n/a	n/a	"fixation"	n/a	n/a	n/a	n/a	"NULL"	n/a	"NULL"	"NULL"	"NULL"	"<p style=\"color: black; font-size: 80px; padding-left: 22%; padding-right: 41%; padding-top: 19%; padding-bottom: 6%\">+</p>"	"1003"	n/a	n/a	n/a	n/a	n/a	n/a	n/a	n/a	n/a
n/a	"image-keyboard-response"	"60"	"227073"	"0.0-5.0-2.0-1.3"	"vz5tyl"	"600"	"1366"	"chrome"	"111.0.0"	"FALSE"	"Windows 10"	"60.07"	"056"	n/a	n/a	n/a	n/a	n/a	n/a	"Trial"	n/a	n/a	n/a	"550"	"arrowleft"	n/a	"NULL"	"NULL"	"NULL"	"stimuli/Ebbinghaus_-0.87143_0.11071.png"	n/a	"Ebbinghaus"	"arrowleft"	"1004"	"TRUE"	"Ebbinghaus"	"-0.871430000"	"0.1107100000"	"1"	"22"
n/a	"html-keyboard-response"	"61"	"228462"	"0.0-5.0-2.0-0.4"	"vz5tyl"	"600"	"1366"	"chrome"	"111.0.0"	"FALSE"	"Windows 10"	"60.07"	"056"	n/a	n/a	n/a	n/a	n/a	n/a	"fixation"	n/a	n/a	n/a	n/a	"NULL"	n/a	"NULL"	"NULL"	"NULL"	"<p style=\"color: black; font-size: 80px; padding-left: 14%; padding-right: 30%; padding-top: 39%; padding-bottom: 42%\">+</p>"	"1388"	n/a	n/a	n/a	n/a	n/a	n/a	n/a	n/a	n/a
n/a	"image-keyboard-response"	"62"	"228918"	"0.0-5.0-2.0-1.4"	"vz5tyl"	"600"	"1366"	"chrome"	"111.0.0"	"FALSE"	"Windows 10"	"60.07"	"056"	n/a	n/a	n/a	n/a	n/a	n/a	"Trial"	n/a	n/a	n/a	"454"	"arrowleft"	n/a	"NULL"	"NULL"	"NULL"	"stimuli/Ebbinghaus_0.35714_0.15857.png"	n/a	"Ebbinghaus"	"arrowleft"	"1389"	"TRUE"	"Ebbinghaus"	"0.3571400000"	"0.1585700000"	"1"	"23"
n/a	"html-keyboard-response"	"63"	"230414"	"0.0-5.0-2.0-0.5"	"vz5tyl"	"600"	"1366"	"chrome"	"111.0.0"	"FALSE"	"Windows 10"	"60.07"	"056"	n/a	n/a	n/a	n/a	n/a	n/a	"fixation"	n/a	n/a	n/a	n/a	"NULL"	n/a	"NULL"	"NULL"	"NULL"	"<p style=\"color: black; font-size: 80px; padding-left: 31%; padding-right: 35%; padding-top: 42%; padding-bottom: 38%\">+</p>"	"1481"	n/a	n/a	n/a	n/a	n/a	n/a	n/a	n/a	n/a
n/a	"image-keyboard-response"	"64"	"230843"	"0.0-5.0-2.0-1.5"	"vz5tyl"	"600"	"1366"	"chrome"	"111.0.0"	"FALSE"	"Windows 10"	"60.07"	"056"	n/a	n/a	n/a	n/a	n/a	n/a	"Trial"	n/a	n/a	n/a	"428"	"arrowright"	n/a	"NULL"	"NULL"	"NULL"	"stimuli/Ebbinghaus_0.87143_-0.2800.png"	n/a	"Ebbinghaus"	"arrowright"	"1496"	"TRUE"	"Ebbinghaus"	"0.8714300000"	"-0.280000000"	"1"	"24"
n/a	"html-keyboard-response"	"65"	"232006"	"0.0-5.0-2.0-0.6"	"vz5tyl"	"600"	"1366"	"chrome"	"111.0.0"	"FALSE"	"Windows 10"	"60.07"	"056"	n/a	n/a	n/a	n/a	n/a	n/a	"fixation"	n/a	n/a	n/a	n/a	"NULL"	n/a	"NULL"	"NULL"	"NULL"	"<p style=\"color: black; font-size: 80px; padding-left: 48%; padding-right: 2%; padding-top: 19%; padding-bottom: 18%\">+</p>"	"1157"	n/a	n/a	n/a	n/a	n/a	n/a	n/a	n/a	n/a
n/a	"image-keyboard-response"	"66"	"232496"	"0.0-5.0-2.0-1.6"	"vz5tyl"	"600"	"1366"	"chrome"	"111.0.0"	"FALSE"	"Windows 10"	"60.07"	"056"	n/a	n/a	n/a	n/a	n/a	n/a	"Trial"	n/a	n/a	n/a	"489"	"arrowright"	n/a	"NULL"	"NULL"	"NULL"	"stimuli/Ebbinghaus_-0.87143_-0.2150.png"	n/a	"Ebbinghaus"	"arrowright"	"1163"	"TRUE"	"Ebbinghaus"	"-0.871430000"	"-0.215000000"	"1"	"25"
n/a	"html-keyboard-response"	"67"	"233720"	"0.0-5.0-2.0-0.7"	"vz5tyl"	"600"	"1366"	"chrome"	"111.0.0"	"FALSE"	"Windows 10"	"60.07"	"056"	n/a	n/a	n/a	n/a	n/a	n/a	"fixation"	n/a	n/a	n/a	n/a	"NULL"	n/a	"NULL"	"NULL"	"NULL"	"<p style=\"color: black; font-size: 80px; padding-left: 16%; padding-right: 15%; padding-top: 25%; padding-bottom: 13%\">+</p>"	"1213"	n/a	n/a	n/a	n/a	n/a	n/a	n/a	n/a	n/a
n/a	"image-keyboard-response"	"68"	"234155"	"0.0-5.0-2.0-1.7"	"vz5tyl"	"600"	"1366"	"chrome"	"111.0.0"	"FALSE"	"Windows 10"	"60.07"	"056"	n/a	n/a	n/a	n/a	n/a	n/a	"Trial"	n/a	n/a	n/a	"435"	"arrowleft"	n/a	"NULL"	"NULL"	"NULL"	"stimuli/Ebbinghaus_0.10000_0.28000.png"	n/a	"Ebbinghaus"	"arrowleft"	"1224"	"TRUE"	"Ebbinghaus"	"0.1000000000"	"0.2800000000"	"1"	"26"
n/a	"html-keyboard-response"	"69"	"235490"	"0.0-5.0-2.0-0.8"	"vz5tyl"	"600"	"1366"	"chrome"	"111.0.0"	"FALSE"	"Windows 10"	"60.07"	"056"	n/a	n/a	n/a	n/a	n/a	n/a	"fixation"	n/a	n/a	n/a	n/a	"NULL"	n/a	"NULL"	"NULL"	"NULL"	"<p style=\"color: black; font-size: 80px; padding-left: 48%; padding-right: 48%; padding-top: 48%; padding-bottom: 12%\">+</p>"	"1321"	n/a	n/a	n/a	n/a	n/a	n/a	n/a	n/a	n/a
n/a	"image-keyboard-response"	"70"	"235974"	"0.0-5.0-2.0-1.8"	"vz5tyl"	"600"	"1366"	"chrome"	"111.0.0"	"FALSE"	"Windows 10"	"60.07"	"056"	n/a	n/a	n/a	n/a	n/a	n/a	"Trial"	n/a	n/a	n/a	"483"	"arrowleft"	n/a	"NULL"	"NULL"	"NULL"	"stimuli/Ebbinghaus_-0.1000_0.28000.png"	n/a	"Ebbinghaus"	"arrowleft"	"1335"	"TRUE"	"Ebbinghaus"	"-0.100000000"	"0.2800000000"	"1"	"27"
n/a	"html-keyboard-response"	"71"	"237377"	"0.0-5.0-2.0-0.9"	"vz5tyl"	"600"	"1366"	"chrome"	"111.0.0"	"FALSE"	"Windows 10"	"60.07"	"056"	n/a	n/a	n/a	n/a	n/a	n/a	"fixation"	n/a	n/a	n/a	n/a	"NULL"	n/a	"NULL"	"NULL"	"NULL"	"<p style=\"color: black; font-size: 80px; padding-left: 26%; padding-right: 11%; padding-top: 18%; padding-bottom: 6%\">+</p>"	"1400"	n/a	n/a	n/a	n/a	n/a	n/a	n/a	n/a	n/a
n/a	"image-keyboard-response"	"72"	"237929"	"0.0-5.0-2.0-1.9"	"vz5tyl"	"600"	"1366"	"chrome"	"111.0.0"	"FALSE"	"Windows 10"	"60.07"	"056"	n/a	n/a	n/a	n/a	n/a	n/a	"Trial"	n/a	n/a	n/a	"552"	"arrowright"	n/a	"NULL"	"NULL"	"NULL"	"stimuli/Ebbinghaus_-0.1000_-0.15857.png"	n/a	"Ebbinghaus"	"arrowright"	"1403"	"TRUE"	"Ebbinghaus"	"-0.100000000"	"-0.158570000"	"1"	"28"
n/a	"html-keyboard-response"	"73"	"239245"	"0.0-5.0-2.0-0.10"	"vz5tyl"	"600"	"1366"	"chrome"	"111.0.0"	"FALSE"	"Windows 10"	"60.07"	"056"	n/a	n/a	n/a	n/a	n/a	n/a	"fixation"	n/a	n/a	n/a	n/a	"NULL"	n/a	"NULL"	"NULL"	"NULL"	"<p style=\"color: black; font-size: 80px; padding-left: 13%; padding-right: 48%; padding-top: 49%; padding-bottom: 28%\">+</p>"	"1304"	n/a	n/a	n/a	n/a	n/a	n/a	n/a	n/a	n/a
n/a	"image-keyboard-response"	"74"	"239820"	"0.0-5.0-2.0-1.10"	"vz5tyl"	"600"	"1366"	"chrome"	"111.0.0"	"FALSE"	"Windows 10"	"60.07"	"056"	n/a	n/a	n/a	n/a	n/a	n/a	"Trial"	n/a	n/a	n/a	"574"	"arrowleft"	n/a	"NULL"	"NULL"	"NULL"	"stimuli/Ebbinghaus_-0.1000_0.11071.png"	n/a	"Ebbinghaus"	"arrowleft"	"1316"	"TRUE"	"Ebbinghaus"	"-0.100000000"	"0.1107100000"	"1"	"29"
n/a	"html-keyboard-response"	"75"	"241088"	"0.0-5.0-2.0-0.11"	"vz5tyl"	"600"	"1366"	"chrome"	"111.0.0"	"FALSE"	"Windows 10"	"60.07"	"056"	n/a	n/a	n/a	n/a	n/a	n/a	"fixation"	n/a	n/a	n/a	n/a	"NULL"	n/a	"NULL"	"NULL"	"NULL"	"<p style=\"color: black; font-size: 80px; padding-left: 31%; padding-right: 24%; padding-top: 42%; padding-bottom: 40%\">+</p>"	"1259"	n/a	n/a	n/a	n/a	n/a	n/a	n/a	n/a	n/a
n/a	"image-keyboard-response"	"76"	"241684"	"0.0-5.0-2.0-1.11"	"vz5tyl"	"600"	"1366"	"chrome"	"111.0.0"	"FALSE"	"Windows 10"	"60.07"	"056"	n/a	n/a	n/a	n/a	n/a	n/a	"Trial"	n/a	n/a	n/a	"595"	"arrowright"	n/a	"NULL"	"NULL"	"NULL"	"stimuli/Ebbinghaus_-0.61429_-0.2800.png"	n/a	"Ebbinghaus"	"arrowright"	"1268"	"TRUE"	"Ebbinghaus"	"-0.614290000"	"-0.280000000"	"1"	"30"
n/a	"html-keyboard-response"	"77"	"242731"	"0.0-5.0-2.0-0.12"	"vz5tyl"	"600"	"1366"	"chrome"	"111.0.0"	"FALSE"	"Windows 10"	"60.07"	"056"	n/a	n/a	n/a	n/a	n/a	n/a	"fixation"	n/a	n/a	n/a	n/a	"NULL"	n/a	"NULL"	"NULL"	"NULL"	"<p style=\"color: black; font-size: 80px; padding-left: 49%; padding-right: 42%; padding-top: 26%; padding-bottom: 27%\">+</p>"	"1044"	n/a	n/a	n/a	n/a	n/a	n/a	n/a	n/a	n/a
n/a	"image-keyboard-response"	"78"	"243267"	"0.0-5.0-2.0-1.12"	"vz5tyl"	"600"	"1366"	"chrome"	"111.0.0"	"FALSE"	"Windows 10"	"60.07"	"056"	n/a	n/a	n/a	n/a	n/a	n/a	"Trial"	n/a	n/a	n/a	"536"	"arrowleft"	n/a	"NULL"	"NULL"	"NULL"	"stimuli/Ebbinghaus_0.61429_0.11071.png"	n/a	"Ebbinghaus"	"arrowleft"	"1047"	"TRUE"	"Ebbinghaus"	"0.6142900000"	"0.1107100000"	"1"	"31"
n/a	"html-keyboard-response"	"79"	"244589"	"0.0-5.0-2.0-0.13"	"vz5tyl"	"600"	"1366"	"chrome"	"111.0.0"	"FALSE"	"Windows 10"	"60.07"	"056"	n/a	n/a	n/a	n/a	n/a	n/a	"fixation"	n/a	n/a	n/a	n/a	"NULL"	n/a	"NULL"	"NULL"	"NULL"	"<p style=\"color: black; font-size: 80px; padding-left: 2%; padding-right: 17%; padding-top: 11%; padding-bottom: 45%\">+</p>"	"1310"	n/a	n/a	n/a	n/a	n/a	n/a	n/a	n/a	n/a
n/a	"image-keyboard-response"	"80"	"245091"	"0.0-5.0-2.0-1.13"	"vz5tyl"	"600"	"1366"	"chrome"	"111.0.0"	"FALSE"	"Windows 10"	"60.07"	"056"	n/a	n/a	n/a	n/a	n/a	n/a	"Trial"	n/a	n/a	n/a	"502"	"arrowright"	n/a	"NULL"	"NULL"	"NULL"	"stimuli/Ebbinghaus_-0.87143_-0.2800.png"	n/a	"Ebbinghaus"	"arrowright"	"1322"	"TRUE"	"Ebbinghaus"	"-0.871430000"	"-0.280000000"	"1"	"32"
n/a	"html-keyboard-response"	"81"	"246237"	"0.0-5.0-2.0-0.14"	"vz5tyl"	"600"	"1366"	"chrome"	"111.0.0"	"FALSE"	"Windows 10"	"60.07"	"056"	n/a	n/a	n/a	n/a	n/a	n/a	"fixation"	n/a	n/a	n/a	n/a	"NULL"	n/a	"NULL"	"NULL"	"NULL"	"<p style=\"color: black; font-size: 80px; padding-left: 2%; padding-right: 13%; padding-top: 9%; padding-bottom: 47%\">+</p>"	"1143"	n/a	n/a	n/a	n/a	n/a	n/a	n/a	n/a	n/a
n/a	"image-keyboard-response"	"82"	"246955"	"0.0-5.0-2.0-1.14"	"vz5tyl"	"600"	"1366"	"chrome"	"111.0.0"	"FALSE"	"Windows 10"	"60.07"	"056"	n/a	n/a	n/a	n/a	n/a	n/a	"Trial"	n/a	n/a	n/a	"717"	"arrowleft"	n/a	"NULL"	"NULL"	"NULL"	"stimuli/Ebbinghaus_0.61429_-0.11071.png"	n/a	"Ebbinghaus"	"arrowright"	"1146"	"FALSE"	"Ebbinghaus"	"0.6142900000"	"-0.110710000"	"1"	"33"
n/a	"html-keyboard-response"	"83"	"248307"	"0.0-5.0-2.0-0.15"	"vz5tyl"	"600"	"1366"	"chrome"	"111.0.0"	"FALSE"	"Windows 10"	"60.07"	"056"	n/a	n/a	n/a	n/a	n/a	n/a	"fixation"	n/a	n/a	n/a	n/a	"NULL"	n/a	"NULL"	"NULL"	"NULL"	"<p style=\"color: black; font-size: 80px; padding-left: 38%; padding-right: 23%; padding-top: 8%; padding-bottom: 23%\">+</p>"	"1340"	n/a	n/a	n/a	n/a	n/a	n/a	n/a	n/a	n/a
n/a	"image-keyboard-response"	"84"	"248855"	"0.0-5.0-2.0-1.15"	"vz5tyl"	"600"	"1366"	"chrome"	"111.0.0"	"FALSE"	"Windows 10"	"60.07"	"056"	n/a	n/a	n/a	n/a	n/a	n/a	"Trial"	n/a	n/a	n/a	"546"	"arrowleft"	n/a	"NULL"	"NULL"	"NULL"	"stimuli/Ebbinghaus_0.61429_0.21500.png"	n/a	"Ebbinghaus"	"arrowleft"	"1352"	"TRUE"	"Ebbinghaus"	"0.6142900000"	"0.2150000000"	"1"	"34"
n/a	"html-keyboard-response"	"85"	"249906"	"0.0-5.0-2.0-0.16"	"vz5tyl"	"600"	"1366"	"chrome"	"111.0.0"	"FALSE"	"Windows 10"	"60.07"	"056"	n/a	n/a	n/a	n/a	n/a	n/a	"fixation"	n/a	n/a	n/a	n/a	"NULL"	n/a	"NULL"	"NULL"	"NULL"	"<p style=\"color: black; font-size: 80px; padding-left: 8%; padding-right: 44%; padding-top: 27%; padding-bottom: 17%\">+</p>"	"1040"	n/a	n/a	n/a	n/a	n/a	n/a	n/a	n/a	n/a
n/a	"image-keyboard-response"	"86"	"250511"	"0.0-5.0-2.0-1.16"	"vz5tyl"	"600"	"1366"	"chrome"	"111.0.0"	"FALSE"	"Windows 10"	"60.07"	"056"	n/a	n/a	n/a	n/a	n/a	n/a	"Trial"	n/a	n/a	n/a	"604"	"arrowright"	n/a	"NULL"	"NULL"	"NULL"	"stimuli/Ebbinghaus_0.10000_-0.11071.png"	n/a	"Ebbinghaus"	"arrowright"	"1051"	"TRUE"	"Ebbinghaus"	"0.1000000000"	"-0.110710000"	"1"	"35"
n/a	"html-keyboard-response"	"87"	"251638"	"0.0-5.0-2.0-0.17"	"vz5tyl"	"600"	"1366"	"chrome"	"111.0.0"	"FALSE"	"Windows 10"	"60.07"	"056"	n/a	n/a	n/a	n/a	n/a	n/a	"fixation"	n/a	n/a	n/a	n/a	"NULL"	n/a	"NULL"	"NULL"	"NULL"	"<p style=\"color: black; font-size: 80px; padding-left: 42%; padding-right: 5%; padding-top: 24%; padding-bottom: 37%\">+</p>"	"1125"	n/a	n/a	n/a	n/a	n/a	n/a	n/a	n/a	n/a
n/a	"image-keyboard-response"	"88"	"252112"	"0.0-5.0-2.0-1.17"	"vz5tyl"	"600"	"1366"	"chrome"	"111.0.0"	"FALSE"	"Windows 10"	"60.07"	"056"	n/a	n/a	n/a	n/a	n/a	n/a	"Trial"	n/a	n/a	n/a	"472"	"arrowleft"	n/a	"NULL"	"NULL"	"NULL"	"stimuli/Ebbinghaus_0.87143_0.11071.png"	n/a	"Ebbinghaus"	"arrowleft"	"1127"	"TRUE"	"Ebbinghaus"	"0.8714300000"	"0.1107100000"	"1"	"36"
n/a	"html-keyboard-response"	"89"	"253355"	"0.0-5.0-2.0-0.18"	"vz5tyl"	"600"	"1366"	"chrome"	"111.0.0"	"FALSE"	"Windows 10"	"60.07"	"056"	n/a	n/a	n/a	n/a	n/a	n/a	"fixation"	n/a	n/a	n/a	n/a	"NULL"	n/a	"NULL"	"NULL"	"NULL"	"<p style=\"color: black; font-size: 80px; padding-left: 22%; padding-right: 7%; padding-top: 9%; padding-bottom: 17%\">+</p>"	"1238"	n/a	n/a	n/a	n/a	n/a	n/a	n/a	n/a	n/a
n/a	"image-keyboard-response"	"90"	"253960"	"0.0-5.0-2.0-1.18"	"vz5tyl"	"600"	"1366"	"chrome"	"111.0.0"	"FALSE"	"Windows 10"	"60.07"	"056"	n/a	n/a	n/a	n/a	n/a	n/a	"Trial"	n/a	n/a	n/a	"604"	"arrowleft"	n/a	"NULL"	"NULL"	"NULL"	"stimuli/Ebbinghaus_-0.87143_0.21500.png"	n/a	"Ebbinghaus"	"arrowleft"	"1243"	"TRUE"	"Ebbinghaus"	"-0.871430000"	"0.2150000000"	"1"	"37"
n/a	"html-keyboard-response"	"91"	"255303"	"0.0-5.0-2.0-0.19"	"vz5tyl"	"600"	"1366"	"chrome"	"111.0.0"	"FALSE"	"Windows 10"	"60.07"	"056"	n/a	n/a	n/a	n/a	n/a	n/a	"fixation"	n/a	n/a	n/a	n/a	"NULL"	n/a	"NULL"	"NULL"	"NULL"	"<p style=\"color: black; font-size: 80px; padding-left: 41%; padding-right: 25%; padding-top: 42%; padding-bottom: 32%\">+</p>"	"1333"	n/a	n/a	n/a	n/a	n/a	n/a	n/a	n/a	n/a
n/a	"image-keyboard-response"	"92"	"255771"	"0.0-5.0-2.0-1.19"	"vz5tyl"	"600"	"1366"	"chrome"	"111.0.0"	"FALSE"	"Windows 10"	"60.07"	"056"	n/a	n/a	n/a	n/a	n/a	n/a	"Trial"	n/a	n/a	n/a	"467"	"arrowleft"	n/a	"NULL"	"NULL"	"NULL"	"stimuli/Ebbinghaus_-0.61429_-0.2150.png"	n/a	"Ebbinghaus"	"arrowright"	"1343"	"FALSE"	"Ebbinghaus"	"-0.614290000"	"-0.215000000"	"1"	"38"
n/a	"html-keyboard-response"	"93"	"257006"	"0.0-5.0-2.0-0.20"	"vz5tyl"	"600"	"1366"	"chrome"	"111.0.0"	"FALSE"	"Windows 10"	"60.07"	"056"	n/a	n/a	n/a	n/a	n/a	n/a	"fixation"	n/a	n/a	n/a	n/a	"NULL"	n/a	"NULL"	"NULL"	"NULL"	"<p style=\"color: black; font-size: 80px; padding-left: 20%; padding-right: 28%; padding-top: 29%; padding-bottom: 19%\">+</p>"	"1232"	n/a	n/a	n/a	n/a	n/a	n/a	n/a	n/a	n/a
n/a	"image-keyboard-response"	"94"	"257606"	"0.0-5.0-2.0-1.20"	"vz5tyl"	"600"	"1366"	"chrome"	"111.0.0"	"FALSE"	"Windows 10"	"60.07"	"056"	n/a	n/a	n/a	n/a	n/a	n/a	"Trial"	n/a	n/a	n/a	"599"	"arrowright"	n/a	"NULL"	"NULL"	"NULL"	"stimuli/Ebbinghaus_0.10000_-0.2150.png"	n/a	"Ebbinghaus"	"arrowright"	"1235"	"TRUE"	"Ebbinghaus"	"0.1000000000"	"-0.215000000"	"1"	"39"
n/a	"html-keyboard-response"	"95"	"258978"	"0.0-5.0-2.0-0.21"	"vz5tyl"	"600"	"1366"	"chrome"	"111.0.0"	"FALSE"	"Windows 10"	"60.07"	"056"	n/a	n/a	n/a	n/a	n/a	n/a	"fixation"	n/a	n/a	n/a	n/a	"NULL"	n/a	"NULL"	"NULL"	"NULL"	"<p style=\"color: black; font-size: 80px; padding-left: 38%; padding-right: 44%; padding-top: 6%; padding-bottom: 44%\">+</p>"	"1366"	n/a	n/a	n/a	n/a	n/a	n/a	n/a	n/a	n/a
n/a	"image-keyboard-response"	"96"	"259470"	"0.0-5.0-2.0-1.21"	"vz5tyl"	"600"	"1366"	"chrome"	"111.0.0"	"FALSE"	"Windows 10"	"60.07"	"056"	n/a	n/a	n/a	n/a	n/a	n/a	"Trial"	n/a	n/a	n/a	"491"	"arrowleft"	n/a	"NULL"	"NULL"	"NULL"	"stimuli/Ebbinghaus_0.87143_0.15857.png"	n/a	"Ebbinghaus"	"arrowleft"	"1372"	"TRUE"	"Ebbinghaus"	"0.8714300000"	"0.1585700000"	"1"	"40"
n/a	"html-keyboard-response"	"97"	"260871"	"0.0-5.0-2.0-0.22"	"vz5tyl"	"600"	"1366"	"chrome"	"111.0.0"	"FALSE"	"Windows 10"	"60.07"	"056"	n/a	n/a	n/a	n/a	n/a	n/a	"fixation"	n/a	n/a	n/a	n/a	"NULL"	n/a	"NULL"	"NULL"	"NULL"	"<p style=\"color: black; font-size: 80px; padding-left: 45%; padding-right: 16%; padding-top: 34%; padding-bottom: 27%\">+</p>"	"1392"	n/a	n/a	n/a	n/a	n/a	n/a	n/a	n/a	n/a
n/a	"image-keyboard-response"	"98"	"261496"	"0.0-5.0-2.0-1.22"	"vz5tyl"	"600"	"1366"	"chrome"	"111.0.0"	"FALSE"	"Windows 10"	"60.07"	"056"	n/a	n/a	n/a	n/a	n/a	n/a	"Trial"	n/a	n/a	n/a	"624"	"arrowleft"	n/a	"NULL"	"NULL"	"NULL"	"stimuli/Ebbinghaus_-0.35714_0.21500.png"	n/a	"Ebbinghaus"	"arrowleft"	"1401"	"TRUE"	"Ebbinghaus"	"-0.357140000"	"0.2150000000"	"1"	"41"
n/a	"html-keyboard-response"	"99"	"262745"	"0.0-5.0-2.0-0.23"	"vz5tyl"	"600"	"1366"	"chrome"	"111.0.0"	"FALSE"	"Windows 10"	"60.07"	"056"	n/a	n/a	n/a	n/a	n/a	n/a	"fixation"	n/a	n/a	n/a	n/a	"NULL"	n/a	"NULL"	"NULL"	"NULL"	"<p style=\"color: black; font-size: 80px; padding-left: 39%; padding-right: 4%; padding-top: 34%; padding-bottom: 40%\">+</p>"	"1238"	n/a	n/a	n/a	n/a	n/a	n/a	n/a	n/a	n/a
n/a	"image-keyboard-response"	"100"	"263277"	"0.0-5.0-2.0-1.23"	"vz5tyl"	"600"	"1366"	"chrome"	"111.0.0"	"FALSE"	"Windows 10"	"60.07"	"056"	n/a	n/a	n/a	n/a	n/a	n/a	"Trial"	n/a	n/a	n/a	"531"	"arrowright"	n/a	"NULL"	"NULL"	"NULL"	"stimuli/Ebbinghaus_0.61429_-0.2800.png"	n/a	"Ebbinghaus"	"arrowright"	"1249"	"TRUE"	"Ebbinghaus"	"0.6142900000"	"-0.280000000"	"1"	"42"
n/a	"html-keyboard-response"	"101"	"264383"	"0.0-5.0-2.0-0.24"	"vz5tyl"	"600"	"1366"	"chrome"	"111.0.0"	"FALSE"	"Windows 10"	"60.07"	"056"	n/a	n/a	n/a	n/a	n/a	n/a	"fixation"	n/a	n/a	n/a	n/a	"NULL"	n/a	"NULL"	"NULL"	"NULL"	"<p style=\"color: black; font-size: 80px; padding-left: 46%; padding-right: 40%; padding-top: 1%; padding-bottom: 27%\">+</p>"	"1096"	n/a	n/a	n/a	n/a	n/a	n/a	n/a	n/a	n/a
n/a	"image-keyboard-response"	"102"	"264978"	"0.0-5.0-2.0-1.24"	"vz5tyl"	"600"	"1366"	"chrome"	"111.0.0"	"FALSE"	"Windows 10"	"60.07"	"056"	n/a	n/a	n/a	n/a	n/a	n/a	"Trial"	n/a	n/a	n/a	"594"	"arrowright"	n/a	"NULL"	"NULL"	"NULL"	"stimuli/Ebbinghaus_-0.35714_-0.2800.png"	n/a	"Ebbinghaus"	"arrowright"	"1106"	"TRUE"	"Ebbinghaus"	"-0.357140000"	"-0.280000000"	"1"	"43"
n/a	"html-keyboard-response"	"103"	"266214"	"0.0-5.0-2.0-0.25"	"vz5tyl"	"600"	"1366"	"chrome"	"111.0.0"	"FALSE"	"Windows 10"	"60.07"	"056"	n/a	n/a	n/a	n/a	n/a	n/a	"fixation"	n/a	n/a	n/a	n/a	"NULL"	n/a	"NULL"	"NULL"	"NULL"	"<p style=\"color: black; font-size: 80px; padding-left: 20%; padding-right: 24%; padding-top: 6%; padding-bottom: 17%\">+</p>"	"1232"	n/a	n/a	n/a	n/a	n/a	n/a	n/a	n/a	n/a
n/a	"image-keyboard-response"	"104"	"266844"	"0.0-5.0-2.0-1.25"	"vz5tyl"	"600"	"1366"	"chrome"	"111.0.0"	"FALSE"	"Windows 10"	"60.07"	"056"	n/a	n/a	n/a	n/a	n/a	n/a	"Trial"	n/a	n/a	n/a	"629"	"arrowleft"	n/a	"NULL"	"NULL"	"NULL"	"stimuli/Ebbinghaus_-0.1000_-0.2150.png"	n/a	"Ebbinghaus"	"arrowright"	"1236"	"FALSE"	"Ebbinghaus"	"-0.100000000"	"-0.215000000"	"1"	"44"
n/a	"html-keyboard-response"	"105"	"267931"	"0.0-5.0-2.0-0.26"	"vz5tyl"	"600"	"1366"	"chrome"	"111.0.0"	"FALSE"	"Windows 10"	"60.07"	"056"	n/a	n/a	n/a	n/a	n/a	n/a	"fixation"	n/a	n/a	n/a	n/a	"NULL"	n/a	"NULL"	"NULL"	"NULL"	"<p style=\"color: black; font-size: 80px; padding-left: 10%; padding-right: 48%; padding-top: 28%; padding-bottom: 11%\">+</p>"	"1071"	n/a	n/a	n/a	n/a	n/a	n/a	n/a	n/a	n/a
n/a	"image-keyboard-response"	"106"	"268638"	"0.0-5.0-2.0-1.26"	"vz5tyl"	"600"	"1366"	"chrome"	"111.0.0"	"FALSE"	"Windows 10"	"60.07"	"056"	n/a	n/a	n/a	n/a	n/a	n/a	"Trial"	n/a	n/a	n/a	"706"	"arrowleft"	n/a	"NULL"	"NULL"	"NULL"	"stimuli/Ebbinghaus_-0.1000_0.21500.png"	n/a	"Ebbinghaus"	"arrowleft"	"1087"	"TRUE"	"Ebbinghaus"	"-0.100000000"	"0.2150000000"	"1"	"45"
n/a	"html-keyboard-response"	"107"	"269776"	"0.0-5.0-2.0-0.27"	"vz5tyl"	"600"	"1366"	"chrome"	"111.0.0"	"FALSE"	"Windows 10"	"60.07"	"056"	n/a	n/a	n/a	n/a	n/a	n/a	"fixation"	n/a	n/a	n/a	n/a	"NULL"	n/a	"NULL"	"NULL"	"NULL"	"<p style=\"color: black; font-size: 80px; padding-left: 18%; padding-right: 28%; padding-top: 17%; padding-bottom: 50%\">+</p>"	"1130"	n/a	n/a	n/a	n/a	n/a	n/a	n/a	n/a	n/a
n/a	"image-keyboard-response"	"108"	"270346"	"0.0-5.0-2.0-1.27"	"vz5tyl"	"600"	"1366"	"chrome"	"111.0.0"	"FALSE"	"Windows 10"	"60.07"	"056"	n/a	n/a	n/a	n/a	n/a	n/a	"Trial"	n/a	n/a	n/a	"570"	"arrowright"	n/a	"NULL"	"NULL"	"NULL"	"stimuli/Ebbinghaus_-0.61429_-0.11071.png"	n/a	"Ebbinghaus"	"arrowright"	"1138"	"TRUE"	"Ebbinghaus"	"-0.614290000"	"-0.110710000"	"1"	"46"
n/a	"html-keyboard-response"	"109"	"271684"	"0.0-5.0-2.0-0.28"	"vz5tyl"	"600"	"1366"	"chrome"	"111.0.0"	"FALSE"	"Windows 10"	"60.07"	"056"	n/a	n/a	n/a	n/a	n/a	n/a	"fixation"	n/a	n/a	n/a	n/a	"NULL"	n/a	"NULL"	"NULL"	"NULL"	"<p style=\"color: black; font-size: 80px; padding-left: 24%; padding-right: 36%; padding-top: 36%; padding-bottom: 38%\">+</p>"	"1335"	n/a	n/a	n/a	n/a	n/a	n/a	n/a	n/a	n/a
n/a	"image-keyboard-response"	"110"	"272210"	"0.0-5.0-2.0-1.28"	"vz5tyl"	"600"	"1366"	"chrome"	"111.0.0"	"FALSE"	"Windows 10"	"60.07"	"056"	n/a	n/a	n/a	n/a	n/a	n/a	"Trial"	n/a	n/a	n/a	"525"	"arrowleft"	n/a	"NULL"	"NULL"	"NULL"	"stimuli/Ebbinghaus_0.61429_0.15857.png"	n/a	"Ebbinghaus"	"arrowleft"	"1338"	"TRUE"	"Ebbinghaus"	"0.6142900000"	"0.1585700000"	"1"	"47"
n/a	"html-keyboard-response"	"111"	"273369"	"0.0-5.0-2.0-0.29"	"vz5tyl"	"600"	"1366"	"chrome"	"111.0.0"	"FALSE"	"Windows 10"	"60.07"	"056"	n/a	n/a	n/a	n/a	n/a	n/a	"fixation"	n/a	n/a	n/a	n/a	"NULL"	n/a	"NULL"	"NULL"	"NULL"	"<p style=\"color: black; font-size: 80px; padding-left: 1%; padding-right: 10%; padding-top: 9%; padding-bottom: 21%\">+</p>"	"1153"	n/a	n/a	n/a	n/a	n/a	n/a	n/a	n/a	n/a
n/a	"image-keyboard-response"	"112"	"273894"	"0.0-5.0-2.0-1.29"	"vz5tyl"	"600"	"1366"	"chrome"	"111.0.0"	"FALSE"	"Windows 10"	"60.07"	"056"	n/a	n/a	n/a	n/a	n/a	n/a	"Trial"	n/a	n/a	n/a	"524"	"arrowleft"	n/a	"NULL"	"NULL"	"NULL"	"stimuli/Ebbinghaus_0.35714_0.21500.png"	n/a	"Ebbinghaus"	"arrowleft"	"1159"	"TRUE"	"Ebbinghaus"	"0.3571400000"	"0.2150000000"	"1"	"48"
n/a	"html-keyboard-response"	"113"	"275095"	"0.0-5.0-2.0-0.30"	"vz5tyl"	"600"	"1366"	"chrome"	"111.0.0"	"FALSE"	"Windows 10"	"60.07"	"056"	n/a	n/a	n/a	n/a	n/a	n/a	"fixation"	n/a	n/a	n/a	n/a	"NULL"	n/a	"NULL"	"NULL"	"NULL"	"<p style=\"color: black; font-size: 80px; padding-left: 3%; padding-right: 22%; padding-top: 38%; padding-bottom: 22%\">+</p>"	"1198"	n/a	n/a	n/a	n/a	n/a	n/a	n/a	n/a	n/a
n/a	"image-keyboard-response"	"114"	"275700"	"0.0-5.0-2.0-1.30"	"vz5tyl"	"600"	"1366"	"chrome"	"111.0.0"	"FALSE"	"Windows 10"	"60.07"	"056"	n/a	n/a	n/a	n/a	n/a	n/a	"Trial"	n/a	n/a	n/a	"605"	"arrowleft"	n/a	"NULL"	"NULL"	"NULL"	"stimuli/Ebbinghaus_-0.87143_0.15857.png"	n/a	"Ebbinghaus"	"arrowleft"	"1201"	"TRUE"	"Ebbinghaus"	"-0.871430000"	"0.1585700000"	"1"	"49"
n/a	"html-keyboard-response"	"115"	"276983"	"0.0-5.0-2.0-0.31"	"vz5tyl"	"600"	"1366"	"chrome"	"111.0.0"	"FALSE"	"Windows 10"	"60.07"	"056"	n/a	n/a	n/a	n/a	n/a	n/a	"fixation"	n/a	n/a	n/a	n/a	"NULL"	n/a	"NULL"	"NULL"	"NULL"	"<p style=\"color: black; font-size: 80px; padding-left: 37%; padding-right: 3%; padding-top: 46%; padding-bottom: 18%\">+</p>"	"1273"	n/a	n/a	n/a	n/a	n/a	n/a	n/a	n/a	n/a
n/a	"image-keyboard-response"	"116"	"277534"	"0.0-5.0-2.0-1.31"	"vz5tyl"	"600"	"1366"	"chrome"	"111.0.0"	"FALSE"	"Windows 10"	"60.07"	"056"	n/a	n/a	n/a	n/a	n/a	n/a	"Trial"	n/a	n/a	n/a	"550"	"arrowleft"	n/a	"NULL"	"NULL"	"NULL"	"stimuli/Ebbinghaus_-0.87143_0.28000.png"	n/a	"Ebbinghaus"	"arrowleft"	"1283"	"TRUE"	"Ebbinghaus"	"-0.871430000"	"0.2800000000"	"1"	"50"
n/a	"html-keyboard-response"	"117"	"278782"	"0.0-5.0-2.0-0.32"	"vz5tyl"	"600"	"1366"	"chrome"	"111.0.0"	"FALSE"	"Windows 10"	"60.07"	"056"	n/a	n/a	n/a	n/a	n/a	n/a	"fixation"	n/a	n/a	n/a	n/a	"NULL"	n/a	"NULL"	"NULL"	"NULL"	"<p style=\"color: black; font-size: 80px; padding-left: 9%; padding-right: 33%; padding-top: 10%; padding-bottom: 7%\">+</p>"	"1237"	n/a	n/a	n/a	n/a	n/a	n/a	n/a	n/a	n/a
n/a	"image-keyboard-response"	"118"	"279417"	"0.0-5.0-2.0-1.32"	"vz5tyl"	"600"	"1366"	"chrome"	"111.0.0"	"FALSE"	"Windows 10"	"60.07"	"056"	n/a	n/a	n/a	n/a	n/a	n/a	"Trial"	n/a	n/a	n/a	"635"	"arrowright"	n/a	"NULL"	"NULL"	"NULL"	"stimuli/Ebbinghaus_-0.61429_-0.15857.png"	n/a	"Ebbinghaus"	"arrowright"	"1248"	"TRUE"	"Ebbinghaus"	"-0.614290000"	"-0.158570000"	"1"	"51"
n/a	"html-keyboard-response"	"119"	"280818"	"0.0-5.0-2.0-0.33"	"vz5tyl"	"600"	"1366"	"chrome"	"111.0.0"	"FALSE"	"Windows 10"	"60.07"	"056"	n/a	n/a	n/a	n/a	n/a	n/a	"fixation"	n/a	n/a	n/a	n/a	"NULL"	n/a	"NULL"	"NULL"	"NULL"	"<p style=\"color: black; font-size: 80px; padding-left: 9%; padding-right: 44%; padding-top: 27%; padding-bottom: 11%\">+</p>"	"1396"	n/a	n/a	n/a	n/a	n/a	n/a	n/a	n/a	n/a
n/a	"image-keyboard-response"	"120"	"281321"	"0.0-5.0-2.0-1.33"	"vz5tyl"	"600"	"1366"	"chrome"	"111.0.0"	"FALSE"	"Windows 10"	"60.07"	"056"	n/a	n/a	n/a	n/a	n/a	n/a	"Trial"	n/a	n/a	n/a	"502"	"arrowleft"	n/a	"NULL"	"NULL"	"NULL"	"stimuli/Ebbinghaus_-0.1000_0.15857.png"	n/a	"Ebbinghaus"	"arrowleft"	"1401"	"TRUE"	"Ebbinghaus"	"-0.100000000"	"0.1585700000"	"1"	"52"
n/a	"html-keyboard-response"	"121"	"282735"	"0.0-5.0-2.0-0.34"	"vz5tyl"	"600"	"1366"	"chrome"	"111.0.0"	"FALSE"	"Windows 10"	"60.07"	"056"	n/a	n/a	n/a	n/a	n/a	n/a	"fixation"	n/a	n/a	n/a	n/a	"NULL"	n/a	"NULL"	"NULL"	"NULL"	"<p style=\"color: black; font-size: 80px; padding-left: 44%; padding-right: 2%; padding-top: 37%; padding-bottom: 34%\">+</p>"	"1407"	n/a	n/a	n/a	n/a	n/a	n/a	n/a	n/a	n/a
n/a	"image-keyboard-response"	"122"	"283201"	"0.0-5.0-2.0-1.34"	"vz5tyl"	"600"	"1366"	"chrome"	"111.0.0"	"FALSE"	"Windows 10"	"60.07"	"056"	n/a	n/a	n/a	n/a	n/a	n/a	"Trial"	n/a	n/a	n/a	"465"	"arrowright"	n/a	"NULL"	"NULL"	"NULL"	"stimuli/Ebbinghaus_-0.87143_-0.11071.png"	n/a	"Ebbinghaus"	"arrowright"	"1414"	"TRUE"	"Ebbinghaus"	"-0.871430000"	"-0.110710000"	"1"	"53"
n/a	"html-keyboard-response"	"123"	"284407"	"0.0-5.0-2.0-0.35"	"vz5tyl"	"600"	"1366"	"chrome"	"111.0.0"	"FALSE"	"Windows 10"	"60.07"	"056"	n/a	n/a	n/a	n/a	n/a	n/a	"fixation"	n/a	n/a	n/a	n/a	"NULL"	n/a	"NULL"	"NULL"	"NULL"	"<p style=\"color: black; font-size: 80px; padding-left: 18%; padding-right: 10%; padding-top: 23%; padding-bottom: 17%\">+</p>"	"1191"	n/a	n/a	n/a	n/a	n/a	n/a	n/a	n/a	n/a
n/a	"image-keyboard-response"	"124"	"284852"	"0.0-5.0-2.0-1.35"	"vz5tyl"	"600"	"1366"	"chrome"	"111.0.0"	"FALSE"	"Windows 10"	"60.07"	"056"	n/a	n/a	n/a	n/a	n/a	n/a	"Trial"	n/a	n/a	n/a	"445"	"arrowleft"	n/a	"NULL"	"NULL"	"NULL"	"stimuli/Ebbinghaus_0.35714_0.11071.png"	n/a	"Ebbinghaus"	"arrowleft"	"1206"	"TRUE"	"Ebbinghaus"	"0.3571400000"	"0.1107100000"	"1"	"54"
n/a	"html-keyboard-response"	"125"	"286107"	"0.0-5.0-2.0-0.36"	"vz5tyl"	"600"	"1366"	"chrome"	"111.0.0"	"FALSE"	"Windows 10"	"60.07"	"056"	n/a	n/a	n/a	n/a	n/a	n/a	"fixation"	n/a	n/a	n/a	n/a	"NULL"	n/a	"NULL"	"NULL"	"NULL"	"<p style=\"color: black; font-size: 80px; padding-left: 5%; padding-right: 39%; padding-top: 30%; padding-bottom: 50%\">+</p>"	"1254"	n/a	n/a	n/a	n/a	n/a	n/a	n/a	n/a	n/a
n/a	"image-keyboard-response"	"126"	"286799"	"0.0-5.0-2.0-1.36"	"vz5tyl"	"600"	"1366"	"chrome"	"111.0.0"	"FALSE"	"Windows 10"	"60.07"	"056"	n/a	n/a	n/a	n/a	n/a	n/a	"Trial"	n/a	n/a	n/a	"691"	"arrowright"	n/a	"NULL"	"NULL"	"NULL"	"stimuli/Ebbinghaus_-0.35714_-0.2150.png"	n/a	"Ebbinghaus"	"arrowright"	"1255"	"TRUE"	"Ebbinghaus"	"-0.357140000"	"-0.215000000"	"1"	"55"
n/a	"html-keyboard-response"	"127"	"287919"	"0.0-5.0-2.0-0.37"	"vz5tyl"	"600"	"1366"	"chrome"	"111.0.0"	"FALSE"	"Windows 10"	"60.07"	"056"	n/a	n/a	n/a	n/a	n/a	n/a	"fixation"	n/a	n/a	n/a	n/a	"NULL"	n/a	"NULL"	"NULL"	"NULL"	"<p style=\"color: black; font-size: 80px; padding-left: 10%; padding-right: 37%; padding-top: 10%; padding-bottom: 33%\">+</p>"	"1111"	n/a	n/a	n/a	n/a	n/a	n/a	n/a	n/a	n/a
n/a	"image-keyboard-response"	"128"	"288535"	"0.0-5.0-2.0-1.37"	"vz5tyl"	"600"	"1366"	"chrome"	"111.0.0"	"FALSE"	"Windows 10"	"60.07"	"056"	n/a	n/a	n/a	n/a	n/a	n/a	"Trial"	n/a	n/a	n/a	"615"	"arrowright"	n/a	"NULL"	"NULL"	"NULL"	"stimuli/Ebbinghaus_0.10000_-0.15857.png"	n/a	"Ebbinghaus"	"arrowright"	"1120"	"TRUE"	"Ebbinghaus"	"0.1000000000"	"-0.158570000"	"1"	"56"
n/a	"html-keyboard-response"	"129"	"289955"	"0.0-5.0-2.0-0.38"	"vz5tyl"	"600"	"1366"	"chrome"	"111.0.0"	"FALSE"	"Windows 10"	"60.07"	"056"	n/a	n/a	n/a	n/a	n/a	n/a	"fixation"	n/a	n/a	n/a	n/a	"NULL"	n/a	"NULL"	"NULL"	"NULL"	"<p style=\"color: black; font-size: 80px; padding-left: 5%; padding-right: 4%; padding-top: 8%; padding-bottom: 2%\">+</p>"	"1413"	n/a	n/a	n/a	n/a	n/a	n/a	n/a	n/a	n/a
n/a	"image-keyboard-response"	"130"	"290517"	"0.0-5.0-2.0-1.38"	"vz5tyl"	"600"	"1366"	"chrome"	"111.0.0"	"FALSE"	"Windows 10"	"60.07"	"056"	n/a	n/a	n/a	n/a	n/a	n/a	"Trial"	n/a	n/a	n/a	"561"	"arrowleft"	n/a	"NULL"	"NULL"	"NULL"	"stimuli/Ebbinghaus_-0.35714_0.15857.png"	n/a	"Ebbinghaus"	"arrowleft"	"1420"	"TRUE"	"Ebbinghaus"	"-0.357140000"	"0.1585700000"	"1"	"57"
n/a	"html-keyboard-response"	"131"	"291944"	"0.0-5.0-2.0-0.39"	"vz5tyl"	"600"	"1366"	"chrome"	"111.0.0"	"FALSE"	"Windows 10"	"60.07"	"056"	n/a	n/a	n/a	n/a	n/a	n/a	"fixation"	n/a	n/a	n/a	n/a	"NULL"	n/a	"NULL"	"NULL"	"NULL"	"<p style=\"color: black; font-size: 80px; padding-left: 42%; padding-right: 38%; padding-top: 41%; padding-bottom: 18%\">+</p>"	"1416"	n/a	n/a	n/a	n/a	n/a	n/a	n/a	n/a	n/a
n/a	"image-keyboard-response"	"132"	"292395"	"0.0-5.0-2.0-1.39"	"vz5tyl"	"600"	"1366"	"chrome"	"111.0.0"	"FALSE"	"Windows 10"	"60.07"	"056"	n/a	n/a	n/a	n/a	n/a	n/a	"Trial"	n/a	n/a	n/a	"450"	"arrowleft"	n/a	"NULL"	"NULL"	"NULL"	"stimuli/Ebbinghaus_0.87143_0.28000.png"	n/a	"Ebbinghaus"	"arrowleft"	"1427"	"TRUE"	"Ebbinghaus"	"0.8714300000"	"0.2800000000"	"1"	"58"
n/a	"html-keyboard-response"	"133"	"293762"	"0.0-5.0-2.0-0.40"	"vz5tyl"	"600"	"1366"	"chrome"	"111.0.0"	"FALSE"	"Windows 10"	"60.07"	"056"	n/a	n/a	n/a	n/a	n/a	n/a	"fixation"	n/a	n/a	n/a	n/a	"NULL"	n/a	"NULL"	"NULL"	"NULL"	"<p style=\"color: black; font-size: 80px; padding-left: 47%; padding-right: 25%; padding-top: 27%; padding-bottom: 3%\">+</p>"	"1363"	n/a	n/a	n/a	n/a	n/a	n/a	n/a	n/a	n/a
n/a	"image-keyboard-response"	"134"	"294507"	"0.0-5.0-2.0-1.40"	"vz5tyl"	"600"	"1366"	"chrome"	"111.0.0"	"FALSE"	"Windows 10"	"60.07"	"056"	n/a	n/a	n/a	n/a	n/a	n/a	"Trial"	n/a	n/a	n/a	"744"	"arrowright"	n/a	"NULL"	"NULL"	"NULL"	"stimuli/Ebbinghaus_0.61429_-0.15857.png"	n/a	"Ebbinghaus"	"arrowright"	"1367"	"TRUE"	"Ebbinghaus"	"0.6142900000"	"-0.158570000"	"1"	"59"
n/a	"html-keyboard-response"	"135"	"295646"	"0.0-5.0-2.0-0.41"	"vz5tyl"	"600"	"1366"	"chrome"	"111.0.0"	"FALSE"	"Windows 10"	"60.07"	"056"	n/a	n/a	n/a	n/a	n/a	n/a	"fixation"	n/a	n/a	n/a	n/a	"NULL"	n/a	"NULL"	"NULL"	"NULL"	"<p style=\"color: black; font-size: 80px; padding-left: 8%; padding-right: 36%; padding-top: 1%; padding-bottom: 15%\">+</p>"	"1122"	n/a	n/a	n/a	n/a	n/a	n/a	n/a	n/a	n/a
n/a	"image-keyboard-response"	"136"	"296161"	"0.0-5.0-2.0-1.41"	"vz5tyl"	"600"	"1366"	"chrome"	"111.0.0"	"FALSE"	"Windows 10"	"60.07"	"056"	n/a	n/a	n/a	n/a	n/a	n/a	"Trial"	n/a	n/a	n/a	"514"	"arrowleft"	n/a	"NULL"	"NULL"	"NULL"	"stimuli/Ebbinghaus_-0.1000_-0.11071.png"	n/a	"Ebbinghaus"	"arrowright"	"1139"	"FALSE"	"Ebbinghaus"	"-0.100000000"	"-0.110710000"	"1"	"60"
n/a	"html-keyboard-response"	"137"	"297388"	"0.0-5.0-2.0-0.42"	"vz5tyl"	"600"	"1366"	"chrome"	"111.0.0"	"FALSE"	"Windows 10"	"60.07"	"056"	n/a	n/a	n/a	n/a	n/a	n/a	"fixation"	n/a	n/a	n/a	n/a	"NULL"	n/a	"NULL"	"NULL"	"NULL"	"<p style=\"color: black; font-size: 80px; padding-left: 10%; padding-right: 19%; padding-top: 26%; padding-bottom: 46%\">+</p>"	"1211"	n/a	n/a	n/a	n/a	n/a	n/a	n/a	n/a	n/a
n/a	"image-keyboard-response"	"138"	"298391"	"0.0-5.0-2.0-1.42"	"vz5tyl"	"600"	"1366"	"chrome"	"111.0.0"	"FALSE"	"Windows 10"	"60.07"	"056"	n/a	n/a	n/a	n/a	n/a	n/a	"Trial"	n/a	n/a	n/a	"1003"	"arrowleft"	n/a	"NULL"	"NULL"	"NULL"	"stimuli/Ebbinghaus_0.10000_0.15857.png"	n/a	"Ebbinghaus"	"arrowleft"	"1227"	"TRUE"	"Ebbinghaus"	"0.1000000000"	"0.1585700000"	"1"	"61"
n/a	"html-keyboard-response"	"139"	"299547"	"0.0-5.0-2.0-0.43"	"vz5tyl"	"600"	"1366"	"chrome"	"111.0.0"	"FALSE"	"Windows 10"	"60.07"	"056"	n/a	n/a	n/a	n/a	n/a	n/a	"fixation"	n/a	n/a	n/a	n/a	"NULL"	n/a	"NULL"	"NULL"	"NULL"	"<p style=\"color: black; font-size: 80px; padding-left: 12%; padding-right: 24%; padding-top: 36%; padding-bottom: 20%\">+</p>"	"1144"	n/a	n/a	n/a	n/a	n/a	n/a	n/a	n/a	n/a
n/a	"image-keyboard-response"	"140"	"300083"	"0.0-5.0-2.0-1.43"	"vz5tyl"	"600"	"1366"	"chrome"	"111.0.0"	"FALSE"	"Windows 10"	"60.07"	"056"	n/a	n/a	n/a	n/a	n/a	n/a	"Trial"	n/a	n/a	n/a	"532"	"arrowright"	n/a	"NULL"	"NULL"	"NULL"	"stimuli/Ebbinghaus_-0.1000_-0.2800.png"	n/a	"Ebbinghaus"	"arrowright"	"1156"	"TRUE"	"Ebbinghaus"	"-0.100000000"	"-0.280000000"	"1"	"62"
n/a	"html-keyboard-response"	"141"	"301453"	"0.0-5.0-2.0-0.44"	"vz5tyl"	"600"	"1366"	"chrome"	"111.0.0"	"FALSE"	"Windows 10"	"60.07"	"056"	n/a	n/a	n/a	n/a	n/a	n/a	"fixation"	n/a	n/a	n/a	n/a	"NULL"	n/a	"NULL"	"NULL"	"NULL"	"<p style=\"color: black; font-size: 80px; padding-left: 20%; padding-right: 28%; padding-top: 33%; padding-bottom: 48%\">+</p>"	"1363"	n/a	n/a	n/a	n/a	n/a	n/a	n/a	n/a	n/a
n/a	"image-keyboard-response"	"142"	"302306"	"0.0-5.0-2.0-1.44"	"vz5tyl"	"600"	"1366"	"chrome"	"111.0.0"	"FALSE"	"Windows 10"	"60.07"	"056"	n/a	n/a	n/a	n/a	n/a	n/a	"Trial"	n/a	n/a	n/a	"852"	"arrowright"	n/a	"NULL"	"NULL"	"NULL"	"stimuli/Ebbinghaus_0.87143_-0.15857.png"	n/a	"Ebbinghaus"	"arrowright"	"1370"	"TRUE"	"Ebbinghaus"	"0.8714300000"	"-0.158570000"	"1"	"63"
n/a	"html-keyboard-response"	"143"	"303497"	"0.0-5.0-2.0-0.45"	"vz5tyl"	"600"	"1366"	"chrome"	"111.0.0"	"FALSE"	"Windows 10"	"60.07"	"056"	n/a	n/a	n/a	n/a	n/a	n/a	"fixation"	n/a	n/a	n/a	n/a	"NULL"	n/a	"NULL"	"NULL"	"NULL"	"<p style=\"color: black; font-size: 80px; padding-left: 41%; padding-right: 18%; padding-top: 42%; padding-bottom: 28%\">+</p>"	"1176"	n/a	n/a	n/a	n/a	n/a	n/a	n/a	n/a	n/a
n/a	"image-keyboard-response"	"144"	"304201"	"0.0-5.0-2.0-1.45"	"vz5tyl"	"600"	"1366"	"chrome"	"111.0.0"	"FALSE"	"Windows 10"	"60.07"	"056"	n/a	n/a	n/a	n/a	n/a	n/a	"Trial"	n/a	n/a	n/a	"703"	"arrowleft"	n/a	"NULL"	"NULL"	"NULL"	"stimuli/Ebbinghaus_0.87143_0.21500.png"	n/a	"Ebbinghaus"	"arrowleft"	"1191"	"TRUE"	"Ebbinghaus"	"0.8714300000"	"0.2150000000"	"1"	"64"
n/a	"html-keyboard-response"	"145"	"305404"	"0.0-5.0-2.0-0.46"	"vz5tyl"	"600"	"1366"	"chrome"	"111.0.0"	"FALSE"	"Windows 10"	"60.07"	"056"	n/a	n/a	n/a	n/a	n/a	n/a	"fixation"	n/a	n/a	n/a	n/a	"NULL"	n/a	"NULL"	"NULL"	"NULL"	"<p style=\"color: black; font-size: 80px; padding-left: 48%; padding-right: 31%; padding-top: 26%; padding-bottom: 34%\">+</p>"	"1188"	n/a	n/a	n/a	n/a	n/a	n/a	n/a	n/a	n/a
n/a	"image-keyboard-response"	"146"	"305975"	"0.0-5.0-2.0-1.46"	"vz5tyl"	"600"	"1366"	"chrome"	"111.0.0"	"FALSE"	"Windows 10"	"60.07"	"056"	n/a	n/a	n/a	n/a	n/a	n/a	"Trial"	n/a	n/a	n/a	"571"	"arrowright"	n/a	"NULL"	"NULL"	"NULL"	"stimuli/Ebbinghaus_0.35714_-0.2800.png"	n/a	"Ebbinghaus"	"arrowright"	"1203"	"TRUE"	"Ebbinghaus"	"0.3571400000"	"-0.280000000"	"1"	"65"
n/a	"html-keyboard-response"	"147"	"307214"	"0.0-5.0-2.0-0.47"	"vz5tyl"	"600"	"1366"	"chrome"	"111.0.0"	"FALSE"	"Windows 10"	"60.07"	"056"	n/a	n/a	n/a	n/a	n/a	n/a	"fixation"	n/a	n/a	n/a	n/a	"NULL"	n/a	"NULL"	"NULL"	"NULL"	"<p style=\"color: black; font-size: 80px; padding-left: 46%; padding-right: 39%; padding-top: 13%; padding-bottom: 6%\">+</p>"	"1230"	n/a	n/a	n/a	n/a	n/a	n/a	n/a	n/a	n/a
n/a	"image-keyboard-response"	"148"	"307851"	"0.0-5.0-2.0-1.47"	"vz5tyl"	"600"	"1366"	"chrome"	"111.0.0"	"FALSE"	"Windows 10"	"60.07"	"056"	n/a	n/a	n/a	n/a	n/a	n/a	"Trial"	n/a	n/a	n/a	"635"	"arrowleft"	n/a	"NULL"	"NULL"	"NULL"	"stimuli/Ebbinghaus_0.10000_0.21500.png"	n/a	"Ebbinghaus"	"arrowleft"	"1239"	"TRUE"	"Ebbinghaus"	"0.1000000000"	"0.2150000000"	"1"	"66"
n/a	"html-keyboard-response"	"149"	"308893"	"0.0-5.0-2.0-0.48"	"vz5tyl"	"600"	"1366"	"chrome"	"111.0.0"	"FALSE"	"Windows 10"	"60.07"	"056"	n/a	n/a	n/a	n/a	n/a	n/a	"fixation"	n/a	n/a	n/a	n/a	"NULL"	n/a	"NULL"	"NULL"	"NULL"	"<p style=\"color: black; font-size: 80px; padding-left: 18%; padding-right: 24%; padding-top: 26%; padding-bottom: 13%\">+</p>"	"1037"	n/a	n/a	n/a	n/a	n/a	n/a	n/a	n/a	n/a
n/a	"image-keyboard-response"	"150"	"309499"	"0.0-5.0-2.0-1.48"	"vz5tyl"	"600"	"1366"	"chrome"	"111.0.0"	"FALSE"	"Windows 10"	"60.07"	"056"	n/a	n/a	n/a	n/a	n/a	n/a	"Trial"	n/a	n/a	n/a	"605"	"arrowleft"	n/a	"NULL"	"NULL"	"NULL"	"stimuli/Ebbinghaus_0.61429_0.28000.png"	n/a	"Ebbinghaus"	"arrowleft"	"1042"	"TRUE"	"Ebbinghaus"	"0.6142900000"	"0.2800000000"	"1"	"67"
n/a	"html-keyboard-response"	"151"	"310748"	"0.0-5.0-2.0-0.49"	"vz5tyl"	"600"	"1366"	"chrome"	"111.0.0"	"FALSE"	"Windows 10"	"60.07"	"056"	n/a	n/a	n/a	n/a	n/a	n/a	"fixation"	n/a	n/a	n/a	n/a	"NULL"	n/a	"NULL"	"NULL"	"NULL"	"<p style=\"color: black; font-size: 80px; padding-left: 13%; padding-right: 36%; padding-top: 24%; padding-bottom: 16%\">+</p>"	"1244"	n/a	n/a	n/a	n/a	n/a	n/a	n/a	n/a	n/a
n/a	"image-keyboard-response"	"152"	"311604"	"0.0-5.0-2.0-1.49"	"vz5tyl"	"600"	"1366"	"chrome"	"111.0.0"	"FALSE"	"Windows 10"	"60.07"	"056"	n/a	n/a	n/a	n/a	n/a	n/a	"Trial"	n/a	n/a	n/a	"855"	"arrowright"	n/a	"NULL"	"NULL"	"NULL"	"stimuli/Ebbinghaus_0.35714_-0.11071.png"	n/a	"Ebbinghaus"	"arrowright"	"1249"	"TRUE"	"Ebbinghaus"	"0.3571400000"	"-0.110710000"	"1"	"68"
n/a	"html-keyboard-response"	"153"	"313072"	"0.0-5.0-2.0-0.50"	"vz5tyl"	"600"	"1366"	"chrome"	"111.0.0"	"FALSE"	"Windows 10"	"60.07"	"056"	n/a	n/a	n/a	n/a	n/a	n/a	"fixation"	n/a	n/a	n/a	n/a	"NULL"	n/a	"NULL"	"NULL"	"NULL"	"<p style=\"color: black; font-size: 80px; padding-left: 1%; padding-right: 20%; padding-top: 34%; padding-bottom: 7%\">+</p>"	"1459"	n/a	n/a	n/a	n/a	n/a	n/a	n/a	n/a	n/a
n/a	"image-keyboard-response"	"154"	"314230"	"0.0-5.0-2.0-1.50"	"vz5tyl"	"600"	"1366"	"chrome"	"111.0.0"	"FALSE"	"Windows 10"	"60.07"	"056"	n/a	n/a	n/a	n/a	n/a	n/a	"Trial"	n/a	n/a	n/a	"1157"	"arrowleft"	n/a	"NULL"	"NULL"	"NULL"	"stimuli/Ebbinghaus_0.87143_-0.11071.png"	n/a	"Ebbinghaus"	"arrowright"	"1468"	"FALSE"	"Ebbinghaus"	"0.8714300000"	"-0.110710000"	"1"	"69"
n/a	"html-keyboard-response"	"155"	"315591"	"0.0-5.0-2.0-0.51"	"vz5tyl"	"600"	"1366"	"chrome"	"111.0.0"	"FALSE"	"Windows 10"	"60.07"	"056"	n/a	n/a	n/a	n/a	n/a	n/a	"fixation"	n/a	n/a	n/a	n/a	"NULL"	n/a	"NULL"	"NULL"	"NULL"	"<p style=\"color: black; font-size: 80px; padding-left: 14%; padding-right: 25%; padding-top: 5%; padding-bottom: 34%\">+</p>"	"1346"	n/a	n/a	n/a	n/a	n/a	n/a	n/a	n/a	n/a
n/a	"image-keyboard-response"	"156"	"316447"	"0.0-5.0-2.0-1.51"	"vz5tyl"	"600"	"1366"	"chrome"	"111.0.0"	"FALSE"	"Windows 10"	"60.07"	"056"	n/a	n/a	n/a	n/a	n/a	n/a	"Trial"	n/a	n/a	n/a	"855"	"arrowright"	n/a	"NULL"	"NULL"	"NULL"	"stimuli/Ebbinghaus_0.61429_-0.2150.png"	n/a	"Ebbinghaus"	"arrowright"	"1361"	"TRUE"	"Ebbinghaus"	"0.6142900000"	"-0.215000000"	"1"	"70"
n/a	"html-keyboard-response"	"157"	"317817"	"0.0-5.0-2.0-0.52"	"vz5tyl"	"600"	"1366"	"chrome"	"111.0.0"	"FALSE"	"Windows 10"	"60.07"	"056"	n/a	n/a	n/a	n/a	n/a	n/a	"fixation"	n/a	n/a	n/a	n/a	"NULL"	n/a	"NULL"	"NULL"	"NULL"	"<p style=\"color: black; font-size: 80px; padding-left: 24%; padding-right: 4%; padding-top: 5%; padding-bottom: 20%\">+</p>"	"1366"	n/a	n/a	n/a	n/a	n/a	n/a	n/a	n/a	n/a
n/a	"image-keyboard-response"	"158"	"318558"	"0.0-5.0-2.0-1.52"	"vz5tyl"	"600"	"1366"	"chrome"	"111.0.0"	"FALSE"	"Windows 10"	"60.07"	"056"	n/a	n/a	n/a	n/a	n/a	n/a	"Trial"	n/a	n/a	n/a	"741"	"arrowright"	n/a	"NULL"	"NULL"	"NULL"	"stimuli/Ebbinghaus_-0.35714_-0.15857.png"	n/a	"Ebbinghaus"	"arrowright"	"1370"	"TRUE"	"Ebbinghaus"	"-0.357140000"	"-0.158570000"	"1"	"71"
n/a	"html-keyboard-response"	"159"	"319590"	"0.0-5.0-2.0-0.53"	"vz5tyl"	"600"	"1366"	"chrome"	"111.0.0"	"FALSE"	"Windows 10"	"60.07"	"056"	n/a	n/a	n/a	n/a	n/a	n/a	"fixation"	n/a	n/a	n/a	n/a	"NULL"	n/a	"NULL"	"NULL"	"NULL"	"<p style=\"color: black; font-size: 80px; padding-left: 24%; padding-right: 17%; padding-top: 35%; padding-bottom: 15%\">+</p>"	"1016"	n/a	n/a	n/a	n/a	n/a	n/a	n/a	n/a	n/a
n/a	"image-keyboard-response"	"160"	"320526"	"0.0-5.0-2.0-1.53"	"vz5tyl"	"600"	"1366"	"chrome"	"111.0.0"	"FALSE"	"Windows 10"	"60.07"	"056"	n/a	n/a	n/a	n/a	n/a	n/a	"Trial"	n/a	n/a	n/a	"936"	"arrowleft"	n/a	"NULL"	"NULL"	"NULL"	"stimuli/Ebbinghaus_-0.35714_0.11071.png"	n/a	"Ebbinghaus"	"arrowleft"	"1032"	"TRUE"	"Ebbinghaus"	"-0.357140000"	"0.1107100000"	"1"	"72"
n/a	"html-keyboard-response"	"161"	"321575"	"0.0-5.0-2.0-0.54"	"vz5tyl"	"600"	"1366"	"chrome"	"111.0.0"	"FALSE"	"Windows 10"	"60.07"	"056"	n/a	n/a	n/a	n/a	n/a	n/a	"fixation"	n/a	n/a	n/a	n/a	"NULL"	n/a	"NULL"	"NULL"	"NULL"	"<p style=\"color: black; font-size: 80px; padding-left: 27%; padding-right: 24%; padding-top: 3%; padding-bottom: 43%\">+</p>"	"1033"	n/a	n/a	n/a	n/a	n/a	n/a	n/a	n/a	n/a
n/a	"image-keyboard-response"	"162"	"322110"	"0.0-5.0-2.0-1.54"	"vz5tyl"	"600"	"1366"	"chrome"	"111.0.0"	"FALSE"	"Windows 10"	"60.07"	"056"	n/a	n/a	n/a	n/a	n/a	n/a	"Trial"	n/a	n/a	n/a	"534"	"arrowright"	n/a	"NULL"	"NULL"	"NULL"	"stimuli/Ebbinghaus_0.10000_-0.2800.png"	n/a	"Ebbinghaus"	"arrowright"	"1049"	"TRUE"	"Ebbinghaus"	"0.1000000000"	"-0.280000000"	"1"	"73"
n/a	"html-keyboard-response"	"163"	"323567"	"0.0-5.0-2.0-0.55"	"vz5tyl"	"600"	"1366"	"chrome"	"111.0.0"	"FALSE"	"Windows 10"	"60.07"	"056"	n/a	n/a	n/a	n/a	n/a	n/a	"fixation"	n/a	n/a	n/a	n/a	"NULL"	n/a	"NULL"	"NULL"	"NULL"	"<p style=\"color: black; font-size: 80px; padding-left: 24%; padding-right: 32%; padding-top: 23%; padding-bottom: 26%\">+</p>"	"1443"	n/a	n/a	n/a	n/a	n/a	n/a	n/a	n/a	n/a
n/a	"image-keyboard-response"	"164"	"324675"	"0.0-5.0-2.0-1.55"	"vz5tyl"	"600"	"1366"	"chrome"	"111.0.0"	"FALSE"	"Windows 10"	"60.07"	"056"	n/a	n/a	n/a	n/a	n/a	n/a	"Trial"	n/a	n/a	n/a	"1108"	"arrowleft"	n/a	"NULL"	"NULL"	"NULL"	"stimuli/Ebbinghaus_0.87143_-0.2150.png"	n/a	"Ebbinghaus"	"arrowright"	"1457"	"FALSE"	"Ebbinghaus"	"0.8714300000"	"-0.215000000"	"1"	"74"
n/a	"html-keyboard-response"	"165"	"326160"	"0.0-5.0-2.0-0.56"	"vz5tyl"	"600"	"1366"	"chrome"	"111.0.0"	"FALSE"	"Windows 10"	"60.07"	"056"	n/a	n/a	n/a	n/a	n/a	n/a	"fixation"	n/a	n/a	n/a	n/a	"NULL"	n/a	"NULL"	"NULL"	"NULL"	"<p style=\"color: black; font-size: 80px; padding-left: 10%; padding-right: 40%; padding-top: 34%; padding-bottom: 5%\">+</p>"	"1470"	n/a	n/a	n/a	n/a	n/a	n/a	n/a	n/a	n/a
n/a	"image-keyboard-response"	"166"	"327785"	"0.0-5.0-2.0-1.56"	"vz5tyl"	"600"	"1366"	"chrome"	"111.0.0"	"FALSE"	"Windows 10"	"60.07"	"056"	n/a	n/a	n/a	n/a	n/a	n/a	"Trial"	n/a	n/a	n/a	"1624"	"arrowright"	n/a	"NULL"	"NULL"	"NULL"	"stimuli/Ebbinghaus_-0.35714_-0.11071.png"	n/a	"Ebbinghaus"	"arrowright"	"1485"	"TRUE"	"Ebbinghaus"	"-0.357140000"	"-0.110710000"	"1"	"75"
n/a	"html-keyboard-response"	"167"	"329138"	"0.0-5.0-2.0-0.57"	"vz5tyl"	"600"	"1366"	"chrome"	"111.0.0"	"FALSE"	"Windows 10"	"60.07"	"056"	n/a	n/a	n/a	n/a	n/a	n/a	"fixation"	n/a	n/a	n/a	n/a	"NULL"	n/a	"NULL"	"NULL"	"NULL"	"<p style=\"color: black; font-size: 80px; padding-left: 43%; padding-right: 28%; padding-top: 12%; padding-bottom: 35%\">+</p>"	"1341"	n/a	n/a	n/a	n/a	n/a	n/a	n/a	n/a	n/a
n/a	"image-keyboard-response"	"168"	"329898"	"0.0-5.0-2.0-1.57"	"vz5tyl"	"600"	"1366"	"chrome"	"111.0.0"	"FALSE"	"Windows 10"	"60.07"	"056"	n/a	n/a	n/a	n/a	n/a	n/a	"Trial"	n/a	n/a	n/a	"759"	"arrowright"	n/a	"NULL"	"NULL"	"NULL"	"stimuli/Ebbinghaus_-0.87143_-0.15857.png"	n/a	"Ebbinghaus"	"arrowright"	"1353"	"TRUE"	"Ebbinghaus"	"-0.871430000"	"-0.158570000"	"1"	"76"
n/a	"html-keyboard-response"	"169"	"331387"	"0.0-5.0-2.0-0.58"	"vz5tyl"	"600"	"1366"	"chrome"	"111.0.0"	"FALSE"	"Windows 10"	"60.07"	"056"	n/a	n/a	n/a	n/a	n/a	n/a	"fixation"	n/a	n/a	n/a	n/a	"NULL"	n/a	"NULL"	"NULL"	"NULL"	"<p style=\"color: black; font-size: 80px; padding-left: 24%; padding-right: 1%; padding-top: 31%; padding-bottom: 17%\">+</p>"	"1480"	n/a	n/a	n/a	n/a	n/a	n/a	n/a	n/a	n/a
n/a	"image-keyboard-response"	"170"	"332281"	"0.0-5.0-2.0-1.58"	"vz5tyl"	"600"	"1366"	"chrome"	"111.0.0"	"FALSE"	"Windows 10"	"60.07"	"056"	n/a	n/a	n/a	n/a	n/a	n/a	"Trial"	n/a	n/a	n/a	"893"	"arrowleft"	n/a	"NULL"	"NULL"	"NULL"	"stimuli/Ebbinghaus_-0.61429_0.11071.png"	n/a	"Ebbinghaus"	"arrowleft"	"1489"	"TRUE"	"Ebbinghaus"	"-0.614290000"	"0.1107100000"	"1"	"77"
n/a	"html-keyboard-response"	"171"	"333350"	"0.0-5.0-2.0-0.59"	"vz5tyl"	"600"	"1366"	"chrome"	"111.0.0"	"FALSE"	"Windows 10"	"60.07"	"056"	n/a	n/a	n/a	n/a	n/a	n/a	"fixation"	n/a	n/a	n/a	n/a	"NULL"	n/a	"NULL"	"NULL"	"NULL"	"<p style=\"color: black; font-size: 80px; padding-left: 3%; padding-right: 49%; padding-top: 33%; padding-bottom: 32%\">+</p>"	"1057"	n/a	n/a	n/a	n/a	n/a	n/a	n/a	n/a	n/a
n/a	"image-keyboard-response"	"172"	"333949"	"0.0-5.0-2.0-1.59"	"vz5tyl"	"600"	"1366"	"chrome"	"111.0.0"	"FALSE"	"Windows 10"	"60.07"	"056"	n/a	n/a	n/a	n/a	n/a	n/a	"Trial"	n/a	n/a	n/a	"598"	"arrowleft"	n/a	"NULL"	"NULL"	"NULL"	"stimuli/Ebbinghaus_-0.61429_0.15857.png"	n/a	"Ebbinghaus"	"arrowleft"	"1069"	"TRUE"	"Ebbinghaus"	"-0.614290000"	"0.1585700000"	"1"	"78"
n/a	"html-keyboard-response"	"173"	"335197"	"0.0-5.0-2.0-0.60"	"vz5tyl"	"600"	"1366"	"chrome"	"111.0.0"	"FALSE"	"Windows 10"	"60.07"	"056"	n/a	n/a	n/a	n/a	n/a	n/a	"fixation"	n/a	n/a	n/a	n/a	"NULL"	n/a	"NULL"	"NULL"	"NULL"	"<p style=\"color: black; font-size: 80px; padding-left: 17%; padding-right: 47%; padding-top: 39%; padding-bottom: 9%\">+</p>"	"1233"	n/a	n/a	n/a	n/a	n/a	n/a	n/a	n/a	n/a
n/a	"image-keyboard-response"	"174"	"335964"	"0.0-5.0-2.0-1.60"	"vz5tyl"	"600"	"1366"	"chrome"	"111.0.0"	"FALSE"	"Windows 10"	"60.07"	"056"	n/a	n/a	n/a	n/a	n/a	n/a	"Trial"	n/a	n/a	n/a	"766"	"arrowright"	n/a	"NULL"	"NULL"	"NULL"	"stimuli/Ebbinghaus_0.35714_-0.2150.png"	n/a	"Ebbinghaus"	"arrowright"	"1248"	"TRUE"	"Ebbinghaus"	"0.3571400000"	"-0.215000000"	"1"	"79"
n/a	"html-keyboard-response"	"175"	"337433"	"0.0-5.0-2.0-0.61"	"vz5tyl"	"600"	"1366"	"chrome"	"111.0.0"	"FALSE"	"Windows 10"	"60.07"	"056"	n/a	n/a	n/a	n/a	n/a	n/a	"fixation"	n/a	n/a	n/a	n/a	"NULL"	n/a	"NULL"	"NULL"	"NULL"	"<p style=\"color: black; font-size: 80px; padding-left: 46%; padding-right: 32%; padding-top: 23%; padding-bottom: 25%\">+</p>"	"1459"	n/a	n/a	n/a	n/a	n/a	n/a	n/a	n/a	n/a
n/a	"image-keyboard-response"	"176"	"337948"	"0.0-5.0-2.0-1.61"	"vz5tyl"	"600"	"1366"	"chrome"	"111.0.0"	"FALSE"	"Windows 10"	"60.07"	"056"	n/a	n/a	n/a	n/a	n/a	n/a	"Trial"	n/a	n/a	n/a	"514"	"arrowleft"	n/a	"NULL"	"NULL"	"NULL"	"stimuli/Ebbinghaus_0.35714_0.28000.png"	n/a	"Ebbinghaus"	"arrowleft"	"1469"	"TRUE"	"Ebbinghaus"	"0.3571400000"	"0.2800000000"	"1"	"80"
n/a	"html-keyboard-response"	"177"	"339290"	"0.0-5.0-2.0-0.62"	"vz5tyl"	"600"	"1366"	"chrome"	"111.0.0"	"FALSE"	"Windows 10"	"60.07"	"056"	n/a	n/a	n/a	n/a	n/a	n/a	"fixation"	n/a	n/a	n/a	n/a	"NULL"	n/a	"NULL"	"NULL"	"NULL"	"<p style=\"color: black; font-size: 80px; padding-left: 35%; padding-right: 7%; padding-top: 37%; padding-bottom: 0%\">+</p>"	"1326"	n/a	n/a	n/a	n/a	n/a	n/a	n/a	n/a	n/a
n/a	"image-keyboard-response"	"178"	"339837"	"0.0-5.0-2.0-1.62"	"vz5tyl"	"600"	"1366"	"chrome"	"111.0.0"	"FALSE"	"Windows 10"	"60.07"	"056"	n/a	n/a	n/a	n/a	n/a	n/a	"Trial"	n/a	n/a	n/a	"546"	"arrowleft"	n/a	"NULL"	"NULL"	"NULL"	"stimuli/Ebbinghaus_-0.35714_0.28000.png"	n/a	"Ebbinghaus"	"arrowleft"	"1342"	"TRUE"	"Ebbinghaus"	"-0.357140000"	"0.2800000000"	"1"	"81"
n/a	"html-keyboard-response"	"179"	"340916"	"0.0-5.0-2.0-0.63"	"vz5tyl"	"600"	"1366"	"chrome"	"111.0.0"	"FALSE"	"Windows 10"	"60.07"	"056"	n/a	n/a	n/a	n/a	n/a	n/a	"fixation"	n/a	n/a	n/a	n/a	"NULL"	n/a	"NULL"	"NULL"	"NULL"	"<p style=\"color: black; font-size: 80px; padding-left: 26%; padding-right: 5%; padding-top: 8%; padding-bottom: 34%\">+</p>"	"1066"	n/a	n/a	n/a	n/a	n/a	n/a	n/a	n/a	n/a
n/a	"image-keyboard-response"	"180"	"341347"	"0.0-5.0-2.0-1.63"	"vz5tyl"	"600"	"1366"	"chrome"	"111.0.0"	"FALSE"	"Windows 10"	"60.07"	"056"	n/a	n/a	n/a	n/a	n/a	n/a	"Trial"	n/a	n/a	n/a	"430"	"arrowleft"	n/a	"NULL"	"NULL"	"NULL"	"stimuli/Ebbinghaus_0.10000_0.11071.png"	n/a	"Ebbinghaus"	"arrowleft"	"1079"	"TRUE"	"Ebbinghaus"	"0.1000000000"	"0.1107100000"	"1"	"82"
n/a	"html-button-response"	"181"	"346281"	"0.0-5.0-3.0"	"vz5tyl"	"600"	"1366"	"chrome"	"111.0.0"	"FALSE"	"Windows 10"	"60.07"	"056"	n/a	n/a	n/a	n/a	n/a	n/a	"block_results"	n/a	n/a	n/a	"4932"	"0"	n/a	"NULL"	"NULL"	"NULL"	"<p>Your score for this illusion is <p style=\"color: black; font-size: 48px; font-weight: bold;\">81 %</p><hr><p>Can you do better in the next illusion?</p>"	n/a	n/a	n/a	n/a	n/a	n/a	n/a	n/a	n/a	n/a
"TRUE"	"preload"	"182"	"346471"	"0.0-6.0-0.0"	"vz5tyl"	"600"	"1366"	"chrome"	"111.0.0"	"FALSE"	"Windows 10"	"60.07"	"056"	n/a	n/a	n/a	n/a	n/a	n/a	n/a	n/a	n/a	n/a	n/a	"NULL"	"FALSE"	"list()"	"list()"	"list()"	n/a	n/a	n/a	n/a	n/a	n/a	n/a	n/a	n/a	n/a	n/a
n/a	"html-keyboard-response"	"183"	"350417"	"0.0-6.0-1.0"	"vz5tyl"	"600"	"1366"	"chrome"	"111.0.0"	"FALSE"	"Windows 10"	"60.07"	"056"	n/a	n/a	n/a	n/a	n/a	n/a	n/a	n/a	n/a	n/a	"3945"	"enter"	n/a	"NULL"	"NULL"	"NULL"	"<p><b>Part 2/6</b></p><p>In this part, two red lines will appear side by side.</p><p>Your task is to tell <b>which line is longer</b> in length, regardless of their orientation, as fast as you can, and without making errors.</p><p>Don't get distracted by the orientation of the lines!</p><p>Press <b>the LEFT or the RIGHT arrow</b> to indicate which <b>line is the longer one.</b></p><div style='float: center'><img src='materials/instructions/VerticalHorizontal_Demo.png' height='300'></img><p><img src='utils/answer/answer_leftright_keyboard.PNG' height='150'></img></p><p class='small'>In this example, the correct answer is the <b>LEFT arrow</b>.</p></div><p>Are you ready? <b>Press ENTER to start</b></p>"	n/a	n/a	n/a	n/a	n/a	n/a	n/a	n/a	n/a	n/a
n/a	"html-keyboard-response"	"184"	"352331"	"0.0-6.0-2.0-0.0"	"vz5tyl"	"600"	"1366"	"chrome"	"111.0.0"	"FALSE"	"Windows 10"	"60.07"	"056"	n/a	n/a	n/a	n/a	n/a	n/a	"fixation"	n/a	n/a	n/a	n/a	"NULL"	n/a	"NULL"	"NULL"	"NULL"	"<p style=\"color: black; font-size: 80px; padding-left: 37%; padding-right: 9%; padding-top: 47%; padding-bottom: 43%\">+</p>"	"1406"	n/a	n/a	n/a	n/a	n/a	n/a	n/a	n/a	n/a
n/a	"image-keyboard-response"	"185"	"353048"	"0.0-6.0-2.0-1.0"	"vz5tyl"	"600"	"1366"	"chrome"	"111.0.0"	"FALSE"	"Windows 10"	"60.07"	"056"	n/a	n/a	n/a	n/a	n/a	n/a	"Trial"	n/a	n/a	n/a	"716"	"arrowright"	n/a	"NULL"	"NULL"	"NULL"	"stimuli/VerticalHorizontal_28.75714_-0.2250.png"	n/a	"VerticalHorizontal"	"arrowright"	"1914"	"TRUE"	"VerticalHorizontal"	"28.757140000"	"-0.225000000"	"2"	"1"
n/a	"html-keyboard-response"	"186"	"354128"	"0.0-6.0-2.0-0.1"	"vz5tyl"	"600"	"1366"	"chrome"	"111.0.0"	"FALSE"	"Windows 10"	"60.07"	"056"	n/a	n/a	n/a	n/a	n/a	n/a	"fixation"	n/a	n/a	n/a	n/a	"NULL"	n/a	"NULL"	"NULL"	"NULL"	"<p style=\"color: black; font-size: 80px; padding-left: 1%; padding-right: 39%; padding-top: 32%; padding-bottom: 33%\">+</p>"	"1075"	n/a	n/a	n/a	n/a	n/a	n/a	n/a	n/a	n/a
n/a	"image-keyboard-response"	"187"	"354730"	"0.0-6.0-2.0-1.1"	"vz5tyl"	"600"	"1366"	"chrome"	"111.0.0"	"FALSE"	"Windows 10"	"60.07"	"056"	n/a	n/a	n/a	n/a	n/a	n/a	"Trial"	n/a	n/a	n/a	"601"	"arrowleft"	n/a	"NULL"	"NULL"	"NULL"	"stimuli/VerticalHorizontal_28.75714_0.22500.png"	n/a	"VerticalHorizontal"	"arrowleft"	"1080"	"TRUE"	"VerticalHorizontal"	"28.757140000"	"0.2250000000"	"2"	"2"
n/a	"html-keyboard-response"	"188"	"355810"	"0.0-6.0-2.0-0.2"	"vz5tyl"	"600"	"1366"	"chrome"	"111.0.0"	"FALSE"	"Windows 10"	"60.07"	"056"	n/a	n/a	n/a	n/a	n/a	n/a	"fixation"	n/a	n/a	n/a	n/a	"NULL"	n/a	"NULL"	"NULL"	"NULL"	"<p style=\"color: black; font-size: 80px; padding-left: 12%; padding-right: 16%; padding-top: 11%; padding-bottom: 42%\">+</p>"	"1074"	n/a	n/a	n/a	n/a	n/a	n/a	n/a	n/a	n/a
n/a	"image-keyboard-response"	"189"	"356360"	"0.0-6.0-2.0-1.2"	"vz5tyl"	"600"	"1366"	"chrome"	"111.0.0"	"FALSE"	"Windows 10"	"60.07"	"056"	n/a	n/a	n/a	n/a	n/a	n/a	"Trial"	n/a	n/a	n/a	"548"	"arrowleft"	n/a	"NULL"	"NULL"	"NULL"	"stimuli/VerticalHorizontal_3.30000_0.22500.png"	n/a	"VerticalHorizontal"	"arrowleft"	"1080"	"TRUE"	"VerticalHorizontal"	"3.3000000000"	"0.2250000000"	"2"	"3"
n/a	"html-keyboard-response"	"190"	"357601"	"0.0-6.0-2.0-0.3"	"vz5tyl"	"600"	"1366"	"chrome"	"111.0.0"	"FALSE"	"Windows 10"	"60.07"	"056"	n/a	n/a	n/a	n/a	n/a	n/a	"fixation"	n/a	n/a	n/a	n/a	"NULL"	n/a	"NULL"	"NULL"	"NULL"	"<p style=\"color: black; font-size: 80px; padding-left: 9%; padding-right: 21%; padding-top: 44%; padding-bottom: 17%\">+</p>"	"1231"	n/a	n/a	n/a	n/a	n/a	n/a	n/a	n/a	n/a
n/a	"image-keyboard-response"	"191"	"358059"	"0.0-6.0-2.0-1.3"	"vz5tyl"	"600"	"1366"	"chrome"	"111.0.0"	"FALSE"	"Windows 10"	"60.07"	"056"	n/a	n/a	n/a	n/a	n/a	n/a	"Trial"	n/a	n/a	n/a	"457"	"arrowright"	n/a	"NULL"	"NULL"	"NULL"	"stimuli/VerticalHorizontal_-11.78571_-0.1096.png"	n/a	"VerticalHorizontal"	"arrowright"	"1241"	"TRUE"	"VerticalHorizontal"	"-11.78571000"	"-0.109600000"	"2"	"4"
n/a	"html-keyboard-response"	"192"	"359343"	"0.0-6.0-2.0-0.4"	"vz5tyl"	"600"	"1366"	"chrome"	"111.0.0"	"FALSE"	"Windows 10"	"60.07"	"056"	n/a	n/a	n/a	n/a	n/a	n/a	"fixation"	n/a	n/a	n/a	n/a	"NULL"	n/a	"NULL"	"NULL"	"NULL"	"<p style=\"color: black; font-size: 80px; padding-left: 10%; padding-right: 18%; padding-top: 24%; padding-bottom: 20%\">+</p>"	"1269"	n/a	n/a	n/a	n/a	n/a	n/a	n/a	n/a	n/a
n/a	"image-keyboard-response"	"193"	"360641"	"0.0-6.0-2.0-1.4"	"vz5tyl"	"600"	"1366"	"chrome"	"111.0.0"	"FALSE"	"Windows 10"	"60.07"	"056"	n/a	n/a	n/a	n/a	n/a	n/a	"Trial"	n/a	n/a	n/a	"1298"	"arrowright"	n/a	"NULL"	"NULL"	"NULL"	"stimuli/VerticalHorizontal_3.30000_-0.0673.png"	n/a	"VerticalHorizontal"	"arrowright"	"1284"	"TRUE"	"VerticalHorizontal"	"3.3000000000"	"-0.067300000"	"2"	"5"
n/a	"html-keyboard-response"	"194"	"361915"	"0.0-6.0-2.0-0.5"	"vz5tyl"	"600"	"1366"	"chrome"	"111.0.0"	"FALSE"	"Windows 10"	"60.07"	"056"	n/a	n/a	n/a	n/a	n/a	n/a	"fixation"	n/a	n/a	n/a	n/a	"NULL"	n/a	"NULL"	"NULL"	"NULL"	"<p style=\"color: black; font-size: 80px; padding-left: 7%; padding-right: 17%; padding-top: 17%; padding-bottom: 50%\">+</p>"	"1258"	n/a	n/a	n/a	n/a	n/a	n/a	n/a	n/a	n/a
n/a	"image-keyboard-response"	"195"	"362455"	"0.0-6.0-2.0-1.5"	"vz5tyl"	"600"	"1366"	"chrome"	"111.0.0"	"FALSE"	"Windows 10"	"60.07"	"056"	n/a	n/a	n/a	n/a	n/a	n/a	"Trial"	n/a	n/a	n/a	"539"	"arrowright"	n/a	"NULL"	"NULL"	"NULL"	"stimuli/VerticalHorizontal_-3.3000_-0.16217.png"	n/a	"VerticalHorizontal"	"arrowright"	"1274"	"TRUE"	"VerticalHorizontal"	"-3.300000000"	"-0.162170000"	"2"	"6"
n/a	"html-keyboard-response"	"196"	"363555"	"0.0-6.0-2.0-0.6"	"vz5tyl"	"600"	"1366"	"chrome"	"111.0.0"	"FALSE"	"Windows 10"	"60.07"	"056"	n/a	n/a	n/a	n/a	n/a	n/a	"fixation"	n/a	n/a	n/a	n/a	"NULL"	n/a	"NULL"	"NULL"	"NULL"	"<p style=\"color: black; font-size: 80px; padding-left: 25%; padding-right: 11%; padding-top: 23%; padding-bottom: 6%\">+</p>"	"1085"	n/a	n/a	n/a	n/a	n/a	n/a	n/a	n/a	n/a
n/a	"image-keyboard-response"	"197"	"364013"	"0.0-6.0-2.0-1.6"	"vz5tyl"	"600"	"1366"	"chrome"	"111.0.0"	"FALSE"	"Windows 10"	"60.07"	"056"	n/a	n/a	n/a	n/a	n/a	n/a	"Trial"	n/a	n/a	n/a	"457"	"arrowright"	n/a	"NULL"	"NULL"	"NULL"	"stimuli/VerticalHorizontal_-20.27143_-0.1096.png"	n/a	"VerticalHorizontal"	"arrowright"	"1100"	"TRUE"	"VerticalHorizontal"	"-20.27143000"	"-0.109600000"	"2"	"7"
n/a	"html-keyboard-response"	"198"	"365466"	"0.0-6.0-2.0-0.7"	"vz5tyl"	"600"	"1366"	"chrome"	"111.0.0"	"FALSE"	"Windows 10"	"60.07"	"056"	n/a	n/a	n/a	n/a	n/a	n/a	"fixation"	n/a	n/a	n/a	n/a	"NULL"	n/a	"NULL"	"NULL"	"NULL"	"<p style=\"color: black; font-size: 80px; padding-left: 6%; padding-right: 45%; padding-top: 33%; padding-bottom: 23%\">+</p>"	"1443"	n/a	n/a	n/a	n/a	n/a	n/a	n/a	n/a	n/a
n/a	"image-keyboard-response"	"199"	"366154"	"0.0-6.0-2.0-1.7"	"vz5tyl"	"600"	"1366"	"chrome"	"111.0.0"	"FALSE"	"Windows 10"	"60.07"	"056"	n/a	n/a	n/a	n/a	n/a	n/a	"Trial"	n/a	n/a	n/a	"688"	"arrowleft"	n/a	"NULL"	"NULL"	"NULL"	"stimuli/VerticalHorizontal_28.75714_0.10960.png"	n/a	"VerticalHorizontal"	"arrowleft"	"1453"	"TRUE"	"VerticalHorizontal"	"28.757140000"	"0.1096000000"	"2"	"8"
n/a	"html-keyboard-response"	"200"	"367309"	"0.0-6.0-2.0-0.8"	"vz5tyl"	"600"	"1366"	"chrome"	"111.0.0"	"FALSE"	"Windows 10"	"60.07"	"056"	n/a	n/a	n/a	n/a	n/a	n/a	"fixation"	n/a	n/a	n/a	n/a	"NULL"	n/a	"NULL"	"NULL"	"NULL"	"<p style=\"color: black; font-size: 80px; padding-left: 31%; padding-right: 8%; padding-top: 45%; padding-bottom: 4%\">+</p>"	"1143"	n/a	n/a	n/a	n/a	n/a	n/a	n/a	n/a	n/a
n/a	"image-keyboard-response"	"201"	"368080"	"0.0-6.0-2.0-1.8"	"vz5tyl"	"600"	"1366"	"chrome"	"111.0.0"	"FALSE"	"Windows 10"	"60.07"	"056"	n/a	n/a	n/a	n/a	n/a	n/a	"Trial"	n/a	n/a	n/a	"771"	"arrowright"	n/a	"NULL"	"NULL"	"NULL"	"stimuli/VerticalHorizontal_20.27143_-0.2250.png"	n/a	"VerticalHorizontal"	"arrowright"	"1155"	"TRUE"	"VerticalHorizontal"	"20.271430000"	"-0.225000000"	"2"	"9"
n/a	"html-keyboard-response"	"202"	"369339"	"0.0-6.0-2.0-0.9"	"vz5tyl"	"600"	"1366"	"chrome"	"111.0.0"	"FALSE"	"Windows 10"	"60.07"	"056"	n/a	n/a	n/a	n/a	n/a	n/a	"fixation"	n/a	n/a	n/a	n/a	"NULL"	n/a	"NULL"	"NULL"	"NULL"	"<p style=\"color: black; font-size: 80px; padding-left: 1%; padding-right: 34%; padding-top: 14%; padding-bottom: 4%\">+</p>"	"1256"	n/a	n/a	n/a	n/a	n/a	n/a	n/a	n/a	n/a
n/a	"image-keyboard-response"	"203"	"370025"	"0.0-6.0-2.0-1.9"	"vz5tyl"	"600"	"1366"	"chrome"	"111.0.0"	"FALSE"	"Windows 10"	"60.07"	"056"	n/a	n/a	n/a	n/a	n/a	n/a	"Trial"	n/a	n/a	n/a	"685"	"arrowright"	n/a	"NULL"	"NULL"	"NULL"	"stimuli/VerticalHorizontal_20.27143_-0.1096.png"	n/a	"VerticalHorizontal"	"arrowright"	"1259"	"TRUE"	"VerticalHorizontal"	"20.271430000"	"-0.109600000"	"2"	"10"
n/a	"html-keyboard-response"	"204"	"371327"	"0.0-6.0-2.0-0.10"	"vz5tyl"	"600"	"1366"	"chrome"	"111.0.0"	"FALSE"	"Windows 10"	"60.07"	"056"	n/a	n/a	n/a	n/a	n/a	n/a	"fixation"	n/a	n/a	n/a	n/a	"NULL"	n/a	"NULL"	"NULL"	"NULL"	"<p style=\"color: black; font-size: 80px; padding-left: 26%; padding-right: 42%; padding-top: 27%; padding-bottom: 35%\">+</p>"	"1286"	n/a	n/a	n/a	n/a	n/a	n/a	n/a	n/a	n/a
n/a	"image-keyboard-response"	"205"	"371882"	"0.0-6.0-2.0-1.10"	"vz5tyl"	"600"	"1366"	"chrome"	"111.0.0"	"FALSE"	"Windows 10"	"60.07"	"056"	n/a	n/a	n/a	n/a	n/a	n/a	"Trial"	n/a	n/a	n/a	"554"	"arrowright"	n/a	"NULL"	"NULL"	"NULL"	"stimuli/VerticalHorizontal_-11.78571_-0.2250.png"	n/a	"VerticalHorizontal"	"arrowright"	"1302"	"TRUE"	"VerticalHorizontal"	"-11.78571000"	"-0.225000000"	"2"	"11"
n/a	"html-keyboard-response"	"206"	"373111"	"0.0-6.0-2.0-0.11"	"vz5tyl"	"600"	"1366"	"chrome"	"111.0.0"	"FALSE"	"Windows 10"	"60.07"	"056"	n/a	n/a	n/a	n/a	n/a	n/a	"fixation"	n/a	n/a	n/a	n/a	"NULL"	n/a	"NULL"	"NULL"	"NULL"	"<p style=\"color: black; font-size: 80px; padding-left: 26%; padding-right: 13%; padding-top: 33%; padding-bottom: 13%\">+</p>"	"1214"	n/a	n/a	n/a	n/a	n/a	n/a	n/a	n/a	n/a
n/a	"image-keyboard-response"	"207"	"373660"	"0.0-6.0-2.0-1.11"	"vz5tyl"	"600"	"1366"	"chrome"	"111.0.0"	"FALSE"	"Windows 10"	"60.07"	"056"	n/a	n/a	n/a	n/a	n/a	n/a	"Trial"	n/a	n/a	n/a	"548"	"arrowleft"	n/a	"NULL"	"NULL"	"NULL"	"stimuli/VerticalHorizontal_-11.78571_0.06730.png"	n/a	"VerticalHorizontal"	"arrowleft"	"1229"	"TRUE"	"VerticalHorizontal"	"-11.78571000"	"0.0673000000"	"2"	"12"
n/a	"html-keyboard-response"	"208"	"374732"	"0.0-6.0-2.0-0.12"	"vz5tyl"	"600"	"1366"	"chrome"	"111.0.0"	"FALSE"	"Windows 10"	"60.07"	"056"	n/a	n/a	n/a	n/a	n/a	n/a	"fixation"	n/a	n/a	n/a	n/a	"NULL"	n/a	"NULL"	"NULL"	"NULL"	"<p style=\"color: black; font-size: 80px; padding-left: 12%; padding-right: 31%; padding-top: 27%; padding-bottom: 29%\">+</p>"	"1065"	n/a	n/a	n/a	n/a	n/a	n/a	n/a	n/a	n/a
n/a	"image-keyboard-response"	"209"	"375196"	"0.0-6.0-2.0-1.12"	"vz5tyl"	"600"	"1366"	"chrome"	"111.0.0"	"FALSE"	"Windows 10"	"60.07"	"056"	n/a	n/a	n/a	n/a	n/a	n/a	"Trial"	n/a	n/a	n/a	"464"	"arrowleft"	n/a	"NULL"	"NULL"	"NULL"	"stimuli/VerticalHorizontal_-3.3000_0.22500.png"	n/a	"VerticalHorizontal"	"arrowleft"	"1072"	"TRUE"	"VerticalHorizontal"	"-3.300000000"	"0.2250000000"	"2"	"13"
n/a	"html-keyboard-response"	"210"	"376293"	"0.0-6.0-2.0-0.13"	"vz5tyl"	"600"	"1366"	"chrome"	"111.0.0"	"FALSE"	"Windows 10"	"60.07"	"056"	n/a	n/a	n/a	n/a	n/a	n/a	"fixation"	n/a	n/a	n/a	n/a	"NULL"	n/a	"NULL"	"NULL"	"NULL"	"<p style=\"color: black; font-size: 80px; padding-left: 36%; padding-right: 19%; padding-top: 31%; padding-bottom: 39%\">+</p>"	"1083"	n/a	n/a	n/a	n/a	n/a	n/a	n/a	n/a	n/a
n/a	"image-keyboard-response"	"211"	"376870"	"0.0-6.0-2.0-1.13"	"vz5tyl"	"600"	"1366"	"chrome"	"111.0.0"	"FALSE"	"Windows 10"	"60.07"	"056"	n/a	n/a	n/a	n/a	n/a	n/a	"Trial"	n/a	n/a	n/a	"576"	"arrowleft"	n/a	"NULL"	"NULL"	"NULL"	"stimuli/VerticalHorizontal_11.78571_0.10960.png"	n/a	"VerticalHorizontal"	"arrowleft"	"1097"	"TRUE"	"VerticalHorizontal"	"11.785710000"	"0.1096000000"	"2"	"14"
n/a	"html-keyboard-response"	"212"	"377995"	"0.0-6.0-2.0-0.14"	"vz5tyl"	"600"	"1366"	"chrome"	"111.0.0"	"FALSE"	"Windows 10"	"60.07"	"056"	n/a	n/a	n/a	n/a	n/a	n/a	"fixation"	n/a	n/a	n/a	n/a	"NULL"	n/a	"NULL"	"NULL"	"NULL"	"<p style=\"color: black; font-size: 80px; padding-left: 3%; padding-right: 41%; padding-top: 14%; padding-bottom: 44%\">+</p>"	"1113"	n/a	n/a	n/a	n/a	n/a	n/a	n/a	n/a	n/a
n/a	"image-keyboard-response"	"213"	"378465"	"0.0-6.0-2.0-1.14"	"vz5tyl"	"600"	"1366"	"chrome"	"111.0.0"	"FALSE"	"Windows 10"	"60.07"	"056"	n/a	n/a	n/a	n/a	n/a	n/a	"Trial"	n/a	n/a	n/a	"468"	"arrowright"	n/a	"NULL"	"NULL"	"NULL"	"stimuli/VerticalHorizontal_-28.75714_-0.16217.png"	n/a	"VerticalHorizontal"	"arrowright"	"1125"	"TRUE"	"VerticalHorizontal"	"-28.75714000"	"-0.162170000"	"2"	"15"
n/a	"html-keyboard-response"	"214"	"379917"	"0.0-6.0-2.0-0.15"	"vz5tyl"	"600"	"1366"	"chrome"	"111.0.0"	"FALSE"	"Windows 10"	"60.07"	"056"	n/a	n/a	n/a	n/a	n/a	n/a	"fixation"	n/a	n/a	n/a	n/a	"NULL"	n/a	"NULL"	"NULL"	"NULL"	"<p style=\"color: black; font-size: 80px; padding-left: 40%; padding-right: 43%; padding-top: 14%; padding-bottom: 44%\">+</p>"	"1445"	n/a	n/a	n/a	n/a	n/a	n/a	n/a	n/a	n/a
n/a	"image-keyboard-response"	"215"	"380521"	"0.0-6.0-2.0-1.15"	"vz5tyl"	"600"	"1366"	"chrome"	"111.0.0"	"FALSE"	"Windows 10"	"60.07"	"056"	n/a	n/a	n/a	n/a	n/a	n/a	"Trial"	n/a	n/a	n/a	"603"	"arrowright"	n/a	"NULL"	"NULL"	"NULL"	"stimuli/VerticalHorizontal_3.30000_-0.16217.png"	n/a	"VerticalHorizontal"	"arrowright"	"1452"	"TRUE"	"VerticalHorizontal"	"3.3000000000"	"-0.162170000"	"2"	"16"
n/a	"html-keyboard-response"	"216"	"381676"	"0.0-6.0-2.0-0.16"	"vz5tyl"	"600"	"1366"	"chrome"	"111.0.0"	"FALSE"	"Windows 10"	"60.07"	"056"	n/a	n/a	n/a	n/a	n/a	n/a	"fixation"	n/a	n/a	n/a	n/a	"NULL"	n/a	"NULL"	"NULL"	"NULL"	"<p style=\"color: black; font-size: 80px; padding-left: 45%; padding-right: 39%; padding-top: 45%; padding-bottom: 38%\">+</p>"	"1147"	n/a	n/a	n/a	n/a	n/a	n/a	n/a	n/a	n/a
n/a	"image-keyboard-response"	"217"	"382147"	"0.0-6.0-2.0-1.16"	"vz5tyl"	"600"	"1366"	"chrome"	"111.0.0"	"FALSE"	"Windows 10"	"60.07"	"056"	n/a	n/a	n/a	n/a	n/a	n/a	"Trial"	n/a	n/a	n/a	"470"	"arrowleft"	n/a	"NULL"	"NULL"	"NULL"	"stimuli/VerticalHorizontal_11.78571_0.22500.png"	n/a	"VerticalHorizontal"	"arrowleft"	"1155"	"TRUE"	"VerticalHorizontal"	"11.785710000"	"0.2250000000"	"2"	"17"
n/a	"html-keyboard-response"	"218"	"383560"	"0.0-6.0-2.0-0.17"	"vz5tyl"	"600"	"1366"	"chrome"	"111.0.0"	"FALSE"	"Windows 10"	"60.07"	"056"	n/a	n/a	n/a	n/a	n/a	n/a	"fixation"	n/a	n/a	n/a	n/a	"NULL"	n/a	"NULL"	"NULL"	"NULL"	"<p style=\"color: black; font-size: 80px; padding-left: 41%; padding-right: 10%; padding-top: 48%; padding-bottom: 14%\">+</p>"	"1399"	n/a	n/a	n/a	n/a	n/a	n/a	n/a	n/a	n/a
n/a	"image-keyboard-response"	"219"	"384054"	"0.0-6.0-2.0-1.17"	"vz5tyl"	"600"	"1366"	"chrome"	"111.0.0"	"FALSE"	"Windows 10"	"60.07"	"056"	n/a	n/a	n/a	n/a	n/a	n/a	"Trial"	n/a	n/a	n/a	"494"	"arrowright"	n/a	"NULL"	"NULL"	"NULL"	"stimuli/VerticalHorizontal_20.27143_0.22500.png"	n/a	"VerticalHorizontal"	"arrowleft"	"1413"	"FALSE"	"VerticalHorizontal"	"20.271430000"	"0.2250000000"	"2"	"18"
n/a	"html-keyboard-response"	"220"	"385366"	"0.0-6.0-2.0-0.18"	"vz5tyl"	"600"	"1366"	"chrome"	"111.0.0"	"FALSE"	"Windows 10"	"60.07"	"056"	n/a	n/a	n/a	n/a	n/a	n/a	"fixation"	n/a	n/a	n/a	n/a	"NULL"	n/a	"NULL"	"NULL"	"NULL"	"<p style=\"color: black; font-size: 80px; padding-left: 15%; padding-right: 34%; padding-top: 16%; padding-bottom: 8%\">+</p>"	"1299"	n/a	n/a	n/a	n/a	n/a	n/a	n/a	n/a	n/a
n/a	"image-keyboard-response"	"221"	"387058"	"0.0-6.0-2.0-1.18"	"vz5tyl"	"600"	"1366"	"chrome"	"111.0.0"	"FALSE"	"Windows 10"	"60.07"	"056"	n/a	n/a	n/a	n/a	n/a	n/a	"Trial"	n/a	n/a	n/a	"1691"	"arrowright"	n/a	"NULL"	"NULL"	"NULL"	"stimuli/VerticalHorizontal_28.75714_-0.0673.png"	n/a	"VerticalHorizontal"	"arrowright"	"1312"	"TRUE"	"VerticalHorizontal"	"28.757140000"	"-0.067300000"	"2"	"19"
n/a	"html-keyboard-response"	"222"	"388066"	"0.0-6.0-2.0-0.19"	"vz5tyl"	"600"	"1366"	"chrome"	"111.0.0"	"FALSE"	"Windows 10"	"60.07"	"056"	n/a	n/a	n/a	n/a	n/a	n/a	"fixation"	n/a	n/a	n/a	n/a	"NULL"	n/a	"NULL"	"NULL"	"NULL"	"<p style=\"color: black; font-size: 80px; padding-left: 36%; padding-right: 1%; padding-top: 32%; padding-bottom: 12%\">+</p>"	"1004"	n/a	n/a	n/a	n/a	n/a	n/a	n/a	n/a	n/a
n/a	"image-keyboard-response"	"223"	"388600"	"0.0-6.0-2.0-1.19"	"vz5tyl"	"600"	"1366"	"chrome"	"111.0.0"	"FALSE"	"Windows 10"	"60.07"	"056"	n/a	n/a	n/a	n/a	n/a	n/a	"Trial"	n/a	n/a	n/a	"533"	"arrowleft"	n/a	"NULL"	"NULL"	"NULL"	"stimuli/VerticalHorizontal_-28.75714_0.16217.png"	n/a	"VerticalHorizontal"	"arrowleft"	"1008"	"TRUE"	"VerticalHorizontal"	"-28.75714000"	"0.1621700000"	"2"	"20"
n/a	"html-keyboard-response"	"224"	"389675"	"0.0-6.0-2.0-0.20"	"vz5tyl"	"600"	"1366"	"chrome"	"111.0.0"	"FALSE"	"Windows 10"	"60.07"	"056"	n/a	n/a	n/a	n/a	n/a	n/a	"fixation"	n/a	n/a	n/a	n/a	"NULL"	n/a	"NULL"	"NULL"	"NULL"	"<p style=\"color: black; font-size: 80px; padding-left: 21%; padding-right: 43%; padding-top: 32%; padding-bottom: 24%\">+</p>"	"1063"	n/a	n/a	n/a	n/a	n/a	n/a	n/a	n/a	n/a
n/a	"image-keyboard-response"	"225"	"391361"	"0.0-6.0-2.0-1.20"	"vz5tyl"	"600"	"1366"	"chrome"	"111.0.0"	"FALSE"	"Windows 10"	"60.07"	"056"	n/a	n/a	n/a	n/a	n/a	n/a	"Trial"	n/a	n/a	n/a	"1686"	"arrowleft"	n/a	"NULL"	"NULL"	"NULL"	"stimuli/VerticalHorizontal_28.75714_0.06730.png"	n/a	"VerticalHorizontal"	"arrowleft"	"1075"	"TRUE"	"VerticalHorizontal"	"28.757140000"	"0.0673000000"	"2"	"21"
n/a	"html-keyboard-response"	"226"	"392779"	"0.0-6.0-2.0-0.21"	"vz5tyl"	"600"	"1366"	"chrome"	"111.0.0"	"FALSE"	"Windows 10"	"60.07"	"056"	n/a	n/a	n/a	n/a	n/a	n/a	"fixation"	n/a	n/a	n/a	n/a	"NULL"	n/a	"NULL"	"NULL"	"NULL"	"<p style=\"color: black; font-size: 80px; padding-left: 10%; padding-right: 14%; padding-top: 21%; padding-bottom: 19%\">+</p>"	"1416"	n/a	n/a	n/a	n/a	n/a	n/a	n/a	n/a	n/a
n/a	"image-keyboard-response"	"227"	"393299"	"0.0-6.0-2.0-1.21"	"vz5tyl"	"600"	"1366"	"chrome"	"111.0.0"	"FALSE"	"Windows 10"	"60.07"	"056"	n/a	n/a	n/a	n/a	n/a	n/a	"Trial"	n/a	n/a	n/a	"519"	"arrowright"	n/a	"NULL"	"NULL"	"NULL"	"stimuli/VerticalHorizontal_-11.78571_-0.16217.png"	n/a	"VerticalHorizontal"	"arrowright"	"1418"	"TRUE"	"VerticalHorizontal"	"-11.78571000"	"-0.162170000"	"2"	"22"
n/a	"html-keyboard-response"	"228"	"394605"	"0.0-6.0-2.0-0.22"	"vz5tyl"	"600"	"1366"	"chrome"	"111.0.0"	"FALSE"	"Windows 10"	"60.07"	"056"	n/a	n/a	n/a	n/a	n/a	n/a	"fixation"	n/a	n/a	n/a	n/a	"NULL"	n/a	"NULL"	"NULL"	"NULL"	"<p style=\"color: black; font-size: 80px; padding-left: 21%; padding-right: 31%; padding-top: 35%; padding-bottom: 44%\">+</p>"	"1290"	n/a	n/a	n/a	n/a	n/a	n/a	n/a	n/a	n/a
n/a	"image-keyboard-response"	"229"	"395143"	"0.0-6.0-2.0-1.22"	"vz5tyl"	"600"	"1366"	"chrome"	"111.0.0"	"FALSE"	"Windows 10"	"60.07"	"056"	n/a	n/a	n/a	n/a	n/a	n/a	"Trial"	n/a	n/a	n/a	"535"	"arrowright"	n/a	"NULL"	"NULL"	"NULL"	"stimuli/VerticalHorizontal_-20.27143_-0.2250.png"	n/a	"VerticalHorizontal"	"arrowright"	"1306"	"TRUE"	"VerticalHorizontal"	"-20.27143000"	"-0.225000000"	"2"	"23"
n/a	"html-keyboard-response"	"230"	"396554"	"0.0-6.0-2.0-0.23"	"vz5tyl"	"600"	"1366"	"chrome"	"111.0.0"	"FALSE"	"Windows 10"	"60.07"	"056"	n/a	n/a	n/a	n/a	n/a	n/a	"fixation"	n/a	n/a	n/a	n/a	"NULL"	n/a	"NULL"	"NULL"	"NULL"	"<p style=\"color: black; font-size: 80px; padding-left: 1%; padding-right: 40%; padding-top: 3%; padding-bottom: 34%\">+</p>"	"1406"	n/a	n/a	n/a	n/a	n/a	n/a	n/a	n/a	n/a
n/a	"image-keyboard-response"	"231"	"397092"	"0.0-6.0-2.0-1.23"	"vz5tyl"	"600"	"1366"	"chrome"	"111.0.0"	"FALSE"	"Windows 10"	"60.07"	"056"	n/a	n/a	n/a	n/a	n/a	n/a	"Trial"	n/a	n/a	n/a	"537"	"arrowright"	n/a	"NULL"	"NULL"	"NULL"	"stimuli/VerticalHorizontal_-3.3000_-0.2250.png"	n/a	"VerticalHorizontal"	"arrowright"	"1411"	"TRUE"	"VerticalHorizontal"	"-3.300000000"	"-0.225000000"	"2"	"24"
n/a	"html-keyboard-response"	"232"	"398261"	"0.0-6.0-2.0-0.24"	"vz5tyl"	"600"	"1366"	"chrome"	"111.0.0"	"FALSE"	"Windows 10"	"60.07"	"056"	n/a	n/a	n/a	n/a	n/a	n/a	"fixation"	n/a	n/a	n/a	n/a	"NULL"	n/a	"NULL"	"NULL"	"NULL"	"<p style=\"color: black; font-size: 80px; padding-left: 38%; padding-right: 42%; padding-top: 35%; padding-bottom: 23%\">+</p>"	"1161"	n/a	n/a	n/a	n/a	n/a	n/a	n/a	n/a	n/a
n/a	"image-keyboard-response"	"233"	"399010"	"0.0-6.0-2.0-1.24"	"vz5tyl"	"600"	"1366"	"chrome"	"111.0.0"	"FALSE"	"Windows 10"	"60.07"	"056"	n/a	n/a	n/a	n/a	n/a	n/a	"Trial"	n/a	n/a	n/a	"748"	"arrowleft"	n/a	"NULL"	"NULL"	"NULL"	"stimuli/VerticalHorizontal_28.75714_0.16217.png"	n/a	"VerticalHorizontal"	"arrowleft"	"1169"	"TRUE"	"VerticalHorizontal"	"28.757140000"	"0.1621700000"	"2"	"25"
n/a	"html-keyboard-response"	"234"	"400466"	"0.0-6.0-2.0-0.25"	"vz5tyl"	"600"	"1366"	"chrome"	"111.0.0"	"FALSE"	"Windows 10"	"60.07"	"056"	n/a	n/a	n/a	n/a	n/a	n/a	"fixation"	n/a	n/a	n/a	n/a	"NULL"	n/a	"NULL"	"NULL"	"NULL"	"<p style=\"color: black; font-size: 80px; padding-left: 9%; padding-right: 26%; padding-top: 34%; padding-bottom: 36%\">+</p>"	"1442"	n/a	n/a	n/a	n/a	n/a	n/a	n/a	n/a	n/a
n/a	"image-keyboard-response"	"235"	"401018"	"0.0-6.0-2.0-1.25"	"vz5tyl"	"600"	"1366"	"chrome"	"111.0.0"	"FALSE"	"Windows 10"	"60.07"	"056"	n/a	n/a	n/a	n/a	n/a	n/a	"Trial"	n/a	n/a	n/a	"552"	"arrowleft"	n/a	"NULL"	"NULL"	"NULL"	"stimuli/VerticalHorizontal_20.27143_0.10960.png"	n/a	"VerticalHorizontal"	"arrowleft"	"1456"	"TRUE"	"VerticalHorizontal"	"20.271430000"	"0.1096000000"	"2"	"26"
n/a	"html-keyboard-response"	"236"	"402239"	"0.0-6.0-2.0-0.26"	"vz5tyl"	"600"	"1366"	"chrome"	"111.0.0"	"FALSE"	"Windows 10"	"60.07"	"056"	n/a	n/a	n/a	n/a	n/a	n/a	"fixation"	n/a	n/a	n/a	n/a	"NULL"	n/a	"NULL"	"NULL"	"NULL"	"<p style=\"color: black; font-size: 80px; padding-left: 45%; padding-right: 45%; padding-top: 42%; padding-bottom: 40%\">+</p>"	"1210"	n/a	n/a	n/a	n/a	n/a	n/a	n/a	n/a	n/a
n/a	"image-keyboard-response"	"237"	"402830"	"0.0-6.0-2.0-1.26"	"vz5tyl"	"600"	"1366"	"chrome"	"111.0.0"	"FALSE"	"Windows 10"	"60.07"	"056"	n/a	n/a	n/a	n/a	n/a	n/a	"Trial"	n/a	n/a	n/a	"589"	"arrowleft"	n/a	"NULL"	"NULL"	"NULL"	"stimuli/VerticalHorizontal_-11.78571_-0.0673.png"	n/a	"VerticalHorizontal"	"arrowright"	"1221"	"FALSE"	"VerticalHorizontal"	"-11.78571000"	"-0.067300000"	"2"	"27"
n/a	"html-keyboard-response"	"238"	"404007"	"0.0-6.0-2.0-0.27"	"vz5tyl"	"600"	"1366"	"chrome"	"111.0.0"	"FALSE"	"Windows 10"	"60.07"	"056"	n/a	n/a	n/a	n/a	n/a	n/a	"fixation"	n/a	n/a	n/a	n/a	"NULL"	n/a	"NULL"	"NULL"	"NULL"	"<p style=\"color: black; font-size: 80px; padding-left: 36%; padding-right: 38%; padding-top: 17%; padding-bottom: 39%\">+</p>"	"1163"	n/a	n/a	n/a	n/a	n/a	n/a	n/a	n/a	n/a
n/a	"image-keyboard-response"	"239"	"404925"	"0.0-6.0-2.0-1.27"	"vz5tyl"	"600"	"1366"	"chrome"	"111.0.0"	"FALSE"	"Windows 10"	"60.07"	"056"	n/a	n/a	n/a	n/a	n/a	n/a	"Trial"	n/a	n/a	n/a	"917"	"arrowright"	n/a	"NULL"	"NULL"	"NULL"	"stimuli/VerticalHorizontal_11.78571_-0.16217.png"	n/a	"VerticalHorizontal"	"arrowright"	"1177"	"TRUE"	"VerticalHorizontal"	"11.785710000"	"-0.162170000"	"2"	"28"
n/a	"html-keyboard-response"	"240"	"405972"	"0.0-6.0-2.0-0.28"	"vz5tyl"	"600"	"1366"	"chrome"	"111.0.0"	"FALSE"	"Windows 10"	"60.07"	"056"	n/a	n/a	n/a	n/a	n/a	n/a	"fixation"	n/a	n/a	n/a	n/a	"NULL"	n/a	"NULL"	"NULL"	"NULL"	"<p style=\"color: black; font-size: 80px; padding-left: 6%; padding-right: 6%; padding-top: 2%; padding-bottom: 9%\">+</p>"	"1038"	n/a	n/a	n/a	n/a	n/a	n/a	n/a	n/a	n/a
n/a	"image-keyboard-response"	"241"	"407286"	"0.0-6.0-2.0-1.28"	"vz5tyl"	"600"	"1366"	"chrome"	"111.0.0"	"FALSE"	"Windows 10"	"60.07"	"056"	n/a	n/a	n/a	n/a	n/a	n/a	"Trial"	n/a	n/a	n/a	"1313"	"arrowleft"	n/a	"NULL"	"NULL"	"NULL"	"stimuli/VerticalHorizontal_-3.3000_-0.0673.png"	n/a	"VerticalHorizontal"	"arrowright"	"1047"	"FALSE"	"VerticalHorizontal"	"-3.300000000"	"-0.067300000"	"2"	"29"
n/a	"html-keyboard-response"	"242"	"408637"	"0.0-6.0-2.0-0.29"	"vz5tyl"	"600"	"1366"	"chrome"	"111.0.0"	"FALSE"	"Windows 10"	"60.07"	"056"	n/a	n/a	n/a	n/a	n/a	n/a	"fixation"	n/a	n/a	n/a	n/a	"NULL"	n/a	"NULL"	"NULL"	"NULL"	"<p style=\"color: black; font-size: 80px; padding-left: 6%; padding-right: 17%; padding-top: 10%; padding-bottom: 37%\">+</p>"	"1345"	n/a	n/a	n/a	n/a	n/a	n/a	n/a	n/a	n/a
n/a	"image-keyboard-response"	"243"	"409247"	"0.0-6.0-2.0-1.29"	"vz5tyl"	"600"	"1366"	"chrome"	"111.0.0"	"FALSE"	"Windows 10"	"60.07"	"056"	n/a	n/a	n/a	n/a	n/a	n/a	"Trial"	n/a	n/a	n/a	"610"	"arrowright"	n/a	"NULL"	"NULL"	"NULL"	"stimuli/VerticalHorizontal_11.78571_-0.0673.png"	n/a	"VerticalHorizontal"	"arrowright"	"1351"	"TRUE"	"VerticalHorizontal"	"11.785710000"	"-0.067300000"	"2"	"30"
n/a	"html-keyboard-response"	"244"	"410714"	"0.0-6.0-2.0-0.30"	"vz5tyl"	"600"	"1366"	"chrome"	"111.0.0"	"FALSE"	"Windows 10"	"60.07"	"056"	n/a	n/a	n/a	n/a	n/a	n/a	"fixation"	n/a	n/a	n/a	n/a	"NULL"	n/a	"NULL"	"NULL"	"NULL"	"<p style=\"color: black; font-size: 80px; padding-left: 38%; padding-right: 2%; padding-top: 2%; padding-bottom: 0%\">+</p>"	"1462"	n/a	n/a	n/a	n/a	n/a	n/a	n/a	n/a	n/a
n/a	"image-keyboard-response"	"245"	"411440"	"0.0-6.0-2.0-1.30"	"vz5tyl"	"600"	"1366"	"chrome"	"111.0.0"	"FALSE"	"Windows 10"	"60.07"	"056"	n/a	n/a	n/a	n/a	n/a	n/a	"Trial"	n/a	n/a	n/a	"725"	"arrowleft"	n/a	"NULL"	"NULL"	"NULL"	"stimuli/VerticalHorizontal_11.78571_0.16217.png"	n/a	"VerticalHorizontal"	"arrowleft"	"1467"	"TRUE"	"VerticalHorizontal"	"11.785710000"	"0.1621700000"	"2"	"31"
n/a	"html-keyboard-response"	"246"	"412770"	"0.0-6.0-2.0-0.31"	"vz5tyl"	"600"	"1366"	"chrome"	"111.0.0"	"FALSE"	"Windows 10"	"60.07"	"056"	n/a	n/a	n/a	n/a	n/a	n/a	"fixation"	n/a	n/a	n/a	n/a	"NULL"	n/a	"NULL"	"NULL"	"NULL"	"<p style=\"color: black; font-size: 80px; padding-left: 35%; padding-right: 5%; padding-top: 30%; padding-bottom: 25%\">+</p>"	"1314"	n/a	n/a	n/a	n/a	n/a	n/a	n/a	n/a	n/a
n/a	"image-keyboard-response"	"247"	"413293"	"0.0-6.0-2.0-1.31"	"vz5tyl"	"600"	"1366"	"chrome"	"111.0.0"	"FALSE"	"Windows 10"	"60.07"	"056"	n/a	n/a	n/a	n/a	n/a	n/a	"Trial"	n/a	n/a	n/a	"523"	"arrowright"	n/a	"NULL"	"NULL"	"NULL"	"stimuli/VerticalHorizontal_-28.75714_-0.1096.png"	n/a	"VerticalHorizontal"	"arrowright"	"1330"	"TRUE"	"VerticalHorizontal"	"-28.75714000"	"-0.109600000"	"2"	"32"
n/a	"html-keyboard-response"	"248"	"414709"	"0.0-6.0-2.0-0.32"	"vz5tyl"	"600"	"1366"	"chrome"	"111.0.0"	"FALSE"	"Windows 10"	"60.07"	"056"	n/a	n/a	n/a	n/a	n/a	n/a	"fixation"	n/a	n/a	n/a	n/a	"NULL"	n/a	"NULL"	"NULL"	"NULL"	"<p style=\"color: black; font-size: 80px; padding-left: 28%; padding-right: 20%; padding-top: 34%; padding-bottom: 24%\">+</p>"	"1401"	n/a	n/a	n/a	n/a	n/a	n/a	n/a	n/a	n/a
n/a	"image-keyboard-response"	"249"	"415638"	"0.0-6.0-2.0-1.32"	"vz5tyl"	"600"	"1366"	"chrome"	"111.0.0"	"FALSE"	"Windows 10"	"60.07"	"056"	n/a	n/a	n/a	n/a	n/a	n/a	"Trial"	n/a	n/a	n/a	"928"	"arrowright"	n/a	"NULL"	"NULL"	"NULL"	"stimuli/VerticalHorizontal_20.27143_-0.0673.png"	n/a	"VerticalHorizontal"	"arrowright"	"1416"	"TRUE"	"VerticalHorizontal"	"20.271430000"	"-0.067300000"	"2"	"33"
n/a	"html-keyboard-response"	"250"	"417140"	"0.0-6.0-2.0-0.33"	"vz5tyl"	"600"	"1366"	"chrome"	"111.0.0"	"FALSE"	"Windows 10"	"60.07"	"056"	n/a	n/a	n/a	n/a	n/a	n/a	"fixation"	n/a	n/a	n/a	n/a	"NULL"	n/a	"NULL"	"NULL"	"NULL"	"<p style=\"color: black; font-size: 80px; padding-left: 33%; padding-right: 47%; padding-top: 11%; padding-bottom: 17%\">+</p>"	"1487"	n/a	n/a	n/a	n/a	n/a	n/a	n/a	n/a	n/a
