"success"	"trial_type"	"trial_index"	"time_elapsed"	"internal_node_id"	"participant_id"	"screen_height"	"screen_width"	"browser"	"browser_version"	"mobile"	"os"	"vsync_rate"	"subject_id"	"width"	"height"	"webaudio"	"fullscreen"	"webcam"	"microphone"	"screen"	"version"	"date"	"time"	"rt"	"response"	"timeout"	"failed_images"	"failed_audio"	"failed_video"	"stimulus"	"trial_duration"	"block"	"correct_response"	"prestimulus_duration"	"correct"	"type"	"illusion_strength"	"illusion_difference"	"block_number"	"trial_number"
"TRUE"	"fullscreen"	"0"	"2567"	"0.0-0.0"	"hl1zpr"	"563"	"1034"	"chrome"	"111.0.0"	"FALSE"	"Windows 10"	"60.66"	"050"	n/a	n/a	n/a	n/a	n/a	n/a	n/a	n/a	n/a	n/a	n/a	"NULL"	n/a	"NULL"	"NULL"	"NULL"	n/a	n/a	n/a	n/a	n/a	n/a	n/a	n/a	n/a	n/a	n/a
n/a	"browser-check"	"1"	"3565"	"0.0-1.0"	"hl1zpr"	"563"	"1034"	"chrome"	"111.0.0"	"FALSE"	"Windows 10"	"60.66"	"050"	"1034"	"563"	"TRUE"	"TRUE"	"TRUE"	"TRUE"	"browser_info"	"1.0"	"17/03/2023"	"17:45:19"	n/a	"NULL"	n/a	"NULL"	"NULL"	"NULL"	n/a	n/a	n/a	n/a	n/a	n/a	n/a	n/a	n/a	n/a	n/a
n/a	"survey-text"	"2"	"9699"	"0.0-2.0"	"hl1zpr"	"563"	"1034"	"chrome"	"111.0.0"	"FALSE"	"Windows 10"	"60.66"	"050"	n/a	n/a	n/a	n/a	n/a	n/a	"subject_id"	n/a	n/a	n/a	"6131"	"list(subject_id = \"050\")"	n/a	"NULL"	"NULL"	"NULL"	n/a	n/a	n/a	n/a	n/a	n/a	n/a	n/a	n/a	n/a	n/a
"TRUE"	"preload"	"3"	"9712"	"0.0-3.0"	"hl1zpr"	"563"	"1034"	"chrome"	"111.0.0"	"FALSE"	"Windows 10"	"60.66"	"050"	n/a	n/a	n/a	n/a	n/a	n/a	n/a	n/a	n/a	n/a	n/a	"NULL"	"FALSE"	"list()"	"list()"	"list()"	n/a	n/a	n/a	n/a	n/a	n/a	n/a	n/a	n/a	n/a	n/a
n/a	"html-button-response"	"4"	"51339"	"0.0-4.0-0.0"	"hl1zpr"	"563"	"1034"	"chrome"	"111.0.0"	"FALSE"	"Windows 10"	"60.66"	"050"	n/a	n/a	n/a	n/a	n/a	n/a	"illusion_instructions"	n/a	n/a	n/a	"41627"	"0"	n/a	"NULL"	"NULL"	"NULL"	"<p><b>Illusion Game</b></p><p>In this game of speed and reflex, you will need to make <b>visual judgments</b> (for instance, which circle is the biggest, or which line is the longest), as fast and as correctly as possible, while <b>resisting different visual illusions</b>.</p><p>We are going to start with some examples of all the illusions you will encounter in the game.</p>"	n/a	n/a	n/a	n/a	n/a	n/a	n/a	n/a	n/a	n/a
"TRUE"	"preload"	"5"	"51362"	"0.0-4.0-1.0-0.0"	"hl1zpr"	"563"	"1034"	"chrome"	"111.0.0"	"FALSE"	"Windows 10"	"60.66"	"050"	n/a	n/a	n/a	n/a	n/a	n/a	n/a	n/a	n/a	n/a	n/a	"NULL"	"FALSE"	"list()"	"list()"	"list()"	n/a	n/a	n/a	n/a	n/a	n/a	n/a	n/a	n/a	n/a	n/a
n/a	"html-keyboard-response"	"6"	"75061"	"0.0-4.0-1.0-1.0"	"hl1zpr"	"563"	"1034"	"chrome"	"111.0.0"	"FALSE"	"Windows 10"	"60.66"	"050"	n/a	n/a	n/a	n/a	n/a	n/a	n/a	n/a	n/a	n/a	"23697"	"enter"	n/a	"NULL"	"NULL"	"NULL"	"<p><b>Practice</b></p><p>In this part, two red circles will appear side by side on the screen.</p><p>Your task is to select which <b>red circle is bigger</b> in size as fast as you can, without making errors.</p><p>Don't get distracted by the surrounding black circles around the red circles!</p><p>Press <b>the LEFT or the RIGHT arrow</b> to indicate which is the bigger <b>red circle.</b></p><div style='float: center'><img src='materials/instructions/Ebbinghaus_Demo.png' height='300'></img><p><img src='utils/answer/answer_leftright_keyboard.PNG' height='150'></img></p><p class='small'>In this example, the correct answer is the <b>LEFT arrow</b>.</p></div><p>Are you ready? <b>Press ENTER to start</b></p>"	n/a	n/a	n/a	n/a	n/a	n/a	n/a	n/a	n/a	n/a
n/a	"html-keyboard-response"	"7"	"76768"	"0.0-4.0-1.0-2.0-0.0"	"hl1zpr"	"563"	"1034"	"chrome"	"111.0.0"	"FALSE"	"Windows 10"	"60.66"	"050"	n/a	n/a	n/a	n/a	n/a	n/a	"fixation"	n/a	n/a	n/a	n/a	"NULL"	n/a	"NULL"	"NULL"	"NULL"	"<p style=\"color: black; font-size: 80px; padding-left: 41%; padding-right: 50%; padding-top: 39%; padding-bottom: 14%\">+</p>"	"1196"	n/a	n/a	n/a	n/a	n/a	n/a	n/a	n/a	n/a
n/a	"image-keyboard-response"	"8"	"78520"	"0.0-4.0-1.0-2.0-1.0"	"hl1zpr"	"563"	"1034"	"chrome"	"111.0.0"	"FALSE"	"Windows 10"	"60.66"	"050"	n/a	n/a	n/a	n/a	n/a	n/a	"Trial"	n/a	n/a	n/a	"1710"	"arrowleft"	n/a	"NULL"	"NULL"	"NULL"	"stimuli/Ebbinghaus_0000000_1.40000.png"	n/a	"Ebbinghaus"	"arrowleft"	"1707"	"TRUE"	"Ebbinghaus"	"000000000000"	"1.4000000000"	"1"	"1"
n/a	"html-keyboard-response"	"9"	"79614"	"0.0-4.0-1.0-2.0-0.1"	"hl1zpr"	"563"	"1034"	"chrome"	"111.0.0"	"FALSE"	"Windows 10"	"60.66"	"050"	n/a	n/a	n/a	n/a	n/a	n/a	"fixation"	n/a	n/a	n/a	n/a	"NULL"	n/a	"NULL"	"NULL"	"NULL"	"<p style=\"color: black; font-size: 80px; padding-left: 14%; padding-right: 45%; padding-top: 7%; padding-bottom: 30%\">+</p>"	"1083"	n/a	n/a	n/a	n/a	n/a	n/a	n/a	n/a	n/a
n/a	"image-keyboard-response"	"10"	"80121"	"0.0-4.0-1.0-2.0-1.1"	"hl1zpr"	"563"	"1034"	"chrome"	"111.0.0"	"FALSE"	"Windows 10"	"60.66"	"050"	n/a	n/a	n/a	n/a	n/a	n/a	"Trial"	n/a	n/a	n/a	"506"	"arrowright"	n/a	"NULL"	"NULL"	"NULL"	"stimuli/Ebbinghaus_1000000_-1.4000.png"	n/a	"Ebbinghaus"	"arrowright"	"1094"	"TRUE"	"Ebbinghaus"	"100000000000"	"-1.400000000"	"1"	"2"
n/a	"html-keyboard-response"	"11"	"81621"	"0.0-4.0-1.0-2.0-0.2"	"hl1zpr"	"563"	"1034"	"chrome"	"111.0.0"	"FALSE"	"Windows 10"	"60.66"	"050"	n/a	n/a	n/a	n/a	n/a	n/a	"fixation"	n/a	n/a	n/a	n/a	"NULL"	n/a	"NULL"	"NULL"	"NULL"	"<p style=\"color: black; font-size: 80px; padding-left: 23%; padding-right: 30%; padding-top: 26%; padding-bottom: 15%\">+</p>"	"1495"	n/a	n/a	n/a	n/a	n/a	n/a	n/a	n/a	n/a
n/a	"image-keyboard-response"	"12"	"82203"	"0.0-4.0-1.0-2.0-1.2"	"hl1zpr"	"563"	"1034"	"chrome"	"111.0.0"	"FALSE"	"Windows 10"	"60.66"	"050"	n/a	n/a	n/a	n/a	n/a	n/a	"Trial"	n/a	n/a	n/a	"581"	"arrowright"	n/a	"NULL"	"NULL"	"NULL"	"stimuli/Ebbinghaus_0000000_-1.4000.png"	n/a	"Ebbinghaus"	"arrowright"	"1500"	"TRUE"	"Ebbinghaus"	"000000000000"	"-1.400000000"	"1"	"3"
n/a	"html-keyboard-response"	"13"	"83645"	"0.0-4.0-1.0-2.0-0.3"	"hl1zpr"	"563"	"1034"	"chrome"	"111.0.0"	"FALSE"	"Windows 10"	"60.66"	"050"	n/a	n/a	n/a	n/a	n/a	n/a	"fixation"	n/a	n/a	n/a	n/a	"NULL"	n/a	"NULL"	"NULL"	"NULL"	"<p style=\"color: black; font-size: 80px; padding-left: 28%; padding-right: 24%; padding-top: 35%; padding-bottom: 31%\">+</p>"	"1437"	n/a	n/a	n/a	n/a	n/a	n/a	n/a	n/a	n/a
n/a	"image-keyboard-response"	"14"	"84868"	"0.0-4.0-1.0-2.0-1.3"	"hl1zpr"	"563"	"1034"	"chrome"	"111.0.0"	"FALSE"	"Windows 10"	"60.66"	"050"	n/a	n/a	n/a	n/a	n/a	n/a	"Trial"	n/a	n/a	n/a	"1223"	"arrowright"	n/a	"NULL"	"NULL"	"NULL"	"stimuli/Ebbinghaus_-100000_-1.4000.png"	n/a	"Ebbinghaus"	"arrowright"	"1442"	"TRUE"	"Ebbinghaus"	"-10000000000"	"-1.400000000"	"1"	"4"
n/a	"html-keyboard-response"	"15"	"86077"	"0.0-4.0-1.0-2.0-0.4"	"hl1zpr"	"563"	"1034"	"chrome"	"111.0.0"	"FALSE"	"Windows 10"	"60.66"	"050"	n/a	n/a	n/a	n/a	n/a	n/a	"fixation"	n/a	n/a	n/a	n/a	"NULL"	n/a	"NULL"	"NULL"	"NULL"	"<p style=\"color: black; font-size: 80px; padding-left: 46%; padding-right: 2%; padding-top: 7%; padding-bottom: 30%\">+</p>"	"1203"	n/a	n/a	n/a	n/a	n/a	n/a	n/a	n/a	n/a
n/a	"image-keyboard-response"	"16"	"86560"	"0.0-4.0-1.0-2.0-1.4"	"hl1zpr"	"563"	"1034"	"chrome"	"111.0.0"	"FALSE"	"Windows 10"	"60.66"	"050"	n/a	n/a	n/a	n/a	n/a	n/a	"Trial"	n/a	n/a	n/a	"482"	"arrowleft"	n/a	"NULL"	"NULL"	"NULL"	"stimuli/Ebbinghaus_1000000_1.40000.png"	n/a	"Ebbinghaus"	"arrowleft"	"1209"	"TRUE"	"Ebbinghaus"	"100000000000"	"1.4000000000"	"1"	"5"
n/a	"html-keyboard-response"	"17"	"87853"	"0.0-4.0-1.0-2.0-0.5"	"hl1zpr"	"563"	"1034"	"chrome"	"111.0.0"	"FALSE"	"Windows 10"	"60.66"	"050"	n/a	n/a	n/a	n/a	n/a	n/a	"fixation"	n/a	n/a	n/a	n/a	"NULL"	n/a	"NULL"	"NULL"	"NULL"	"<p style=\"color: black; font-size: 80px; padding-left: 41%; padding-right: 16%; padding-top: 25%; padding-bottom: 22%\">+</p>"	"1289"	n/a	n/a	n/a	n/a	n/a	n/a	n/a	n/a	n/a
n/a	"image-keyboard-response"	"18"	"88363"	"0.0-4.0-1.0-2.0-1.5"	"hl1zpr"	"563"	"1034"	"chrome"	"111.0.0"	"FALSE"	"Windows 10"	"60.66"	"050"	n/a	n/a	n/a	n/a	n/a	n/a	"Trial"	n/a	n/a	n/a	"509"	"arrowright"	n/a	"NULL"	"NULL"	"NULL"	"stimuli/Ebbinghaus_-100000_1.40000.png"	n/a	"Ebbinghaus"	"arrowleft"	"1293"	"FALSE"	"Ebbinghaus"	"-10000000000"	"1.4000000000"	"1"	"6"
n/a	"html-button-response"	"19"	"93354"	"0.0-4.0-1.0-3.0"	"hl1zpr"	"563"	"1034"	"chrome"	"111.0.0"	"FALSE"	"Windows 10"	"60.66"	"050"	n/a	n/a	n/a	n/a	n/a	n/a	"practice_block_results"	n/a	n/a	n/a	"4989"	"0"	n/a	"NULL"	"NULL"	"NULL"	"<p style='color:rgb(76,175,80);'> Correct Responses: <b>83.33%</b></p><hr><p style='color:rgb(233,30,99);'> Average Response Time: <b>835.17</b> ms.</p>"	n/a	n/a	n/a	n/a	n/a	n/a	n/a	n/a	n/a	n/a
"TRUE"	"preload"	"20"	"93877"	"0.0-4.0-2.0-0.0"	"hl1zpr"	"563"	"1034"	"chrome"	"111.0.0"	"FALSE"	"Windows 10"	"60.66"	"050"	n/a	n/a	n/a	n/a	n/a	n/a	n/a	n/a	n/a	n/a	n/a	"NULL"	"FALSE"	"list()"	"list()"	"list()"	n/a	n/a	n/a	n/a	n/a	n/a	n/a	n/a	n/a	n/a	n/a
n/a	"html-keyboard-response"	"21"	"99255"	"0.0-4.0-2.0-1.0"	"hl1zpr"	"563"	"1034"	"chrome"	"111.0.0"	"FALSE"	"Windows 10"	"60.66"	"050"	n/a	n/a	n/a	n/a	n/a	n/a	n/a	n/a	n/a	n/a	"5377"	"enter"	n/a	"NULL"	"NULL"	"NULL"	"<p><b>Practice</b></p><p>In this part, two horizontal red lines will appear one above the other.</p><p>Your task is to select which <b>line is longer</b> in length as fast as you can, without making errors.</p><p>Don't get distracted by the surrounding black arrows at the end of the red lines!</p><p>Press <b>the UP or the DOWN arrow</b> to indicate where is the longer <b>red line.</b></p><div style='float: center'><img src='materials/instructions/MullerLyer_Demo.png' height='300'></img><p><img src='utils/answer/answer_updown_keyboard.PNG' height='150'></img></p><p class='small'>In this example, the correct answer is the <b>UP arrow</b>.</p></div><p>Are you ready? <b>Press ENTER to start</b></p>"	n/a	n/a	n/a	n/a	n/a	n/a	n/a	n/a	n/a	n/a
n/a	"html-keyboard-response"	"22"	"101239"	"0.0-4.0-2.0-2.0-0.0"	"hl1zpr"	"563"	"1034"	"chrome"	"111.0.0"	"FALSE"	"Windows 10"	"60.66"	"050"	n/a	n/a	n/a	n/a	n/a	n/a	"fixation"	n/a	n/a	n/a	n/a	"NULL"	n/a	"NULL"	"NULL"	"NULL"	"<p style=\"color: black; font-size: 80px; padding-left: 16%; padding-right: 47%; padding-top: 35%; padding-bottom: 4%\">+</p>"	"1469"	n/a	n/a	n/a	n/a	n/a	n/a	n/a	n/a	n/a
n/a	"image-keyboard-response"	"23"	"101984"	"0.0-4.0-2.0-2.0-1.0"	"hl1zpr"	"563"	"1034"	"chrome"	"111.0.0"	"FALSE"	"Windows 10"	"60.66"	"050"	n/a	n/a	n/a	n/a	n/a	n/a	"Trial"	n/a	n/a	n/a	"744"	"arrowdown"	n/a	"NULL"	"NULL"	"NULL"	"stimuli/MullerLyer_-230000_-0.7000.png"	n/a	"MullerLyer"	"arrowdown"	"1984"	"TRUE"	"MullerLyer"	"-23000000000"	"-0.700000000"	"1"	"7"
n/a	"html-keyboard-response"	"24"	"103347"	"0.0-4.0-2.0-2.0-0.1"	"hl1zpr"	"563"	"1034"	"chrome"	"111.0.0"	"FALSE"	"Windows 10"	"60.66"	"050"	n/a	n/a	n/a	n/a	n/a	n/a	"fixation"	n/a	n/a	n/a	n/a	"NULL"	n/a	"NULL"	"NULL"	"NULL"	"<p style=\"color: black; font-size: 80px; padding-left: 45%; padding-right: 41%; padding-top: 45%; padding-bottom: 43%\">+</p>"	"1351"	n/a	n/a	n/a	n/a	n/a	n/a	n/a	n/a	n/a
n/a	"image-keyboard-response"	"25"	"103832"	"0.0-4.0-2.0-2.0-1.1"	"hl1zpr"	"563"	"1034"	"chrome"	"111.0.0"	"FALSE"	"Windows 10"	"60.66"	"050"	n/a	n/a	n/a	n/a	n/a	n/a	"Trial"	n/a	n/a	n/a	"483"	"arrowup"	n/a	"NULL"	"NULL"	"NULL"	"stimuli/MullerLyer_0000000_0.70000.png"	n/a	"MullerLyer"	"arrowup"	"1363"	"TRUE"	"MullerLyer"	"000000000000"	"0.7000000000"	"1"	"8"
n/a	"html-keyboard-response"	"26"	"105098"	"0.0-4.0-2.0-2.0-0.2"	"hl1zpr"	"563"	"1034"	"chrome"	"111.0.0"	"FALSE"	"Windows 10"	"60.66"	"050"	n/a	n/a	n/a	n/a	n/a	n/a	"fixation"	n/a	n/a	n/a	n/a	"NULL"	n/a	"NULL"	"NULL"	"NULL"	"<p style=\"color: black; font-size: 80px; padding-left: 13%; padding-right: 3%; padding-top: 41%; padding-bottom: 6%\">+</p>"	"1257"	n/a	n/a	n/a	n/a	n/a	n/a	n/a	n/a	n/a
n/a	"image-keyboard-response"	"27"	"105584"	"0.0-4.0-2.0-2.0-1.2"	"hl1zpr"	"563"	"1034"	"chrome"	"111.0.0"	"FALSE"	"Windows 10"	"60.66"	"050"	n/a	n/a	n/a	n/a	n/a	n/a	"Trial"	n/a	n/a	n/a	"485"	"arrowup"	n/a	"NULL"	"NULL"	"NULL"	"stimuli/MullerLyer_-230000_0.70000.png"	n/a	"MullerLyer"	"arrowup"	"1266"	"TRUE"	"MullerLyer"	"-23000000000"	"0.7000000000"	"1"	"9"
n/a	"html-keyboard-response"	"28"	"107093"	"0.0-4.0-2.0-2.0-0.3"	"hl1zpr"	"563"	"1034"	"chrome"	"111.0.0"	"FALSE"	"Windows 10"	"60.66"	"050"	n/a	n/a	n/a	n/a	n/a	n/a	"fixation"	n/a	n/a	n/a	n/a	"NULL"	n/a	"NULL"	"NULL"	"NULL"	"<p style=\"color: black; font-size: 80px; padding-left: 2%; padding-right: 19%; padding-top: 34%; padding-bottom: 20%\">+</p>"	"1498"	n/a	n/a	n/a	n/a	n/a	n/a	n/a	n/a	n/a
n/a	"image-keyboard-response"	"29"	"107671"	"0.0-4.0-2.0-2.0-1.3"	"hl1zpr"	"563"	"1034"	"chrome"	"111.0.0"	"FALSE"	"Windows 10"	"60.66"	"050"	n/a	n/a	n/a	n/a	n/a	n/a	"Trial"	n/a	n/a	n/a	"577"	"arrowdown"	n/a	"NULL"	"NULL"	"NULL"	"stimuli/MullerLyer_2300000_-0.7000.png"	n/a	"MullerLyer"	"arrowdown"	"1509"	"TRUE"	"MullerLyer"	"230000000000"	"-0.700000000"	"1"	"10"
n/a	"html-keyboard-response"	"30"	"109020"	"0.0-4.0-2.0-2.0-0.4"	"hl1zpr"	"563"	"1034"	"chrome"	"111.0.0"	"FALSE"	"Windows 10"	"60.66"	"050"	n/a	n/a	n/a	n/a	n/a	n/a	"fixation"	n/a	n/a	n/a	n/a	"NULL"	n/a	"NULL"	"NULL"	"NULL"	"<p style=\"color: black; font-size: 80px; padding-left: 8%; padding-right: 6%; padding-top: 25%; padding-bottom: 48%\">+</p>"	"1347"	n/a	n/a	n/a	n/a	n/a	n/a	n/a	n/a	n/a
n/a	"image-keyboard-response"	"31"	"109613"	"0.0-4.0-2.0-2.0-1.4"	"hl1zpr"	"563"	"1034"	"chrome"	"111.0.0"	"FALSE"	"Windows 10"	"60.66"	"050"	n/a	n/a	n/a	n/a	n/a	n/a	"Trial"	n/a	n/a	n/a	"592"	"arrowdown"	n/a	"NULL"	"NULL"	"NULL"	"stimuli/MullerLyer_0000000_-0.7000.png"	n/a	"MullerLyer"	"arrowdown"	"1349"	"TRUE"	"MullerLyer"	"000000000000"	"-0.700000000"	"1"	"11"
n/a	"html-keyboard-response"	"32"	"111083"	"0.0-4.0-2.0-2.0-0.5"	"hl1zpr"	"563"	"1034"	"chrome"	"111.0.0"	"FALSE"	"Windows 10"	"60.66"	"050"	n/a	n/a	n/a	n/a	n/a	n/a	"fixation"	n/a	n/a	n/a	n/a	"NULL"	n/a	"NULL"	"NULL"	"NULL"	"<p style=\"color: black; font-size: 80px; padding-left: 13%; padding-right: 43%; padding-top: 22%; padding-bottom: 16%\">+</p>"	"1454"	n/a	n/a	n/a	n/a	n/a	n/a	n/a	n/a	n/a
n/a	"image-keyboard-response"	"33"	"111565"	"0.0-4.0-2.0-2.0-1.5"	"hl1zpr"	"563"	"1034"	"chrome"	"111.0.0"	"FALSE"	"Windows 10"	"60.66"	"050"	n/a	n/a	n/a	n/a	n/a	n/a	"Trial"	n/a	n/a	n/a	"481"	"arrowup"	n/a	"NULL"	"NULL"	"NULL"	"stimuli/MullerLyer_2300000_0.70000.png"	n/a	"MullerLyer"	"arrowup"	"1470"	"TRUE"	"MullerLyer"	"230000000000"	"0.7000000000"	"1"	"12"
n/a	"html-button-response"	"34"	"115090"	"0.0-4.0-2.0-3.0"	"hl1zpr"	"563"	"1034"	"chrome"	"111.0.0"	"FALSE"	"Windows 10"	"60.66"	"050"	n/a	n/a	n/a	n/a	n/a	n/a	"practice_block_results"	n/a	n/a	n/a	"3524"	"0"	n/a	"NULL"	"NULL"	"NULL"	"<p style='color:rgb(76,175,80);'> Correct Responses: <b>100.00%</b></p><hr><p style='color:rgb(233,30,99);'> Average Response Time: <b>560.33</b> ms.</p>"	n/a	n/a	n/a	n/a	n/a	n/a	n/a	n/a	n/a	n/a
"TRUE"	"preload"	"35"	"115615"	"0.0-4.0-3.0-0.0"	"hl1zpr"	"563"	"1034"	"chrome"	"111.0.0"	"FALSE"	"Windows 10"	"60.66"	"050"	n/a	n/a	n/a	n/a	n/a	n/a	n/a	n/a	n/a	n/a	n/a	"NULL"	"FALSE"	"list()"	"list()"	"list()"	n/a	n/a	n/a	n/a	n/a	n/a	n/a	n/a	n/a	n/a	n/a
n/a	"html-keyboard-response"	"36"	"123026"	"0.0-4.0-3.0-1.0"	"hl1zpr"	"563"	"1034"	"chrome"	"111.0.0"	"FALSE"	"Windows 10"	"60.66"	"050"	n/a	n/a	n/a	n/a	n/a	n/a	n/a	n/a	n/a	n/a	"7410"	"enter"	n/a	"NULL"	"NULL"	"NULL"	"<p><b>Practice</b></p><p>In this part, two red lines will appear side by side.</p><p>Your task is to tell <b>which line is longer</b> in length, regardless of their orientation, as fast as you can, and without making errors.</p><p>Don't get distracted by the orientation of the lines!</p><p>Press <b>the LEFT or the RIGHT arrow</b> to indicate which <b>line is the longer one.</b></p><div style='float: center'><img src='materials/instructions/VerticalHorizontal_Demo.png' height='300'></img><p><img src='utils/answer/answer_leftright_keyboard.PNG' height='150'></img></p><p class='small'>In this example, the correct answer is the <b>LEFT arrow</b>.</p></div><p>Are you ready? <b>Press ENTER to start</b></p>"	n/a	n/a	n/a	n/a	n/a	n/a	n/a	n/a	n/a	n/a
n/a	"html-keyboard-response"	"37"	"124676"	"0.0-4.0-3.0-2.0-0.0"	"hl1zpr"	"563"	"1034"	"chrome"	"111.0.0"	"FALSE"	"Windows 10"	"60.66"	"050"	n/a	n/a	n/a	n/a	n/a	n/a	"fixation"	n/a	n/a	n/a	n/a	"NULL"	n/a	"NULL"	"NULL"	"NULL"	"<p style=\"color: black; font-size: 80px; padding-left: 23%; padding-right: 4%; padding-top: 13%; padding-bottom: 7%\">+</p>"	"1138"	n/a	n/a	n/a	n/a	n/a	n/a	n/a	n/a	n/a
n/a	"image-keyboard-response"	"38"	"125281"	"0.0-4.0-3.0-2.0-1.0"	"hl1zpr"	"563"	"1034"	"chrome"	"111.0.0"	"FALSE"	"Windows 10"	"60.66"	"050"	n/a	n/a	n/a	n/a	n/a	n/a	"Trial"	n/a	n/a	n/a	"604"	"arrowright"	n/a	"NULL"	"NULL"	"NULL"	"stimuli/VerticalHorizontal_3300000_-0.9000.png"	n/a	"VerticalHorizontal"	"arrowright"	"1650"	"TRUE"	"VerticalHorizontal"	"330000000000"	"-0.900000000"	"1"	"13"
n/a	"html-keyboard-response"	"39"	"126443"	"0.0-4.0-3.0-2.0-0.1"	"hl1zpr"	"563"	"1034"	"chrome"	"111.0.0"	"FALSE"	"Windows 10"	"60.66"	"050"	n/a	n/a	n/a	n/a	n/a	n/a	"fixation"	n/a	n/a	n/a	n/a	"NULL"	n/a	"NULL"	"NULL"	"NULL"	"<p style=\"color: black; font-size: 80px; padding-left: 26%; padding-right: 22%; padding-top: 34%; padding-bottom: 20%\">+</p>"	"1146"	n/a	n/a	n/a	n/a	n/a	n/a	n/a	n/a	n/a
n/a	"image-keyboard-response"	"40"	"126844"	"0.0-4.0-3.0-2.0-1.1"	"hl1zpr"	"563"	"1034"	"chrome"	"111.0.0"	"FALSE"	"Windows 10"	"60.66"	"050"	n/a	n/a	n/a	n/a	n/a	n/a	"Trial"	n/a	n/a	n/a	"400"	"arrowleft"	n/a	"NULL"	"NULL"	"NULL"	"stimuli/VerticalHorizontal_0000000_0.90000.png"	n/a	"VerticalHorizontal"	"arrowleft"	"1162"	"TRUE"	"VerticalHorizontal"	"000000000000"	"0.9000000000"	"1"	"14"
n/a	"html-keyboard-response"	"41"	"128034"	"0.0-4.0-3.0-2.0-0.2"	"hl1zpr"	"563"	"1034"	"chrome"	"111.0.0"	"FALSE"	"Windows 10"	"60.66"	"050"	n/a	n/a	n/a	n/a	n/a	n/a	"fixation"	n/a	n/a	n/a	n/a	"NULL"	n/a	"NULL"	"NULL"	"NULL"	"<p style=\"color: black; font-size: 80px; padding-left: 43%; padding-right: 9%; padding-top: 16%; padding-bottom: 25%\">+</p>"	"1186"	n/a	n/a	n/a	n/a	n/a	n/a	n/a	n/a	n/a
n/a	"image-keyboard-response"	"42"	"128503"	"0.0-4.0-3.0-2.0-1.2"	"hl1zpr"	"563"	"1034"	"chrome"	"111.0.0"	"FALSE"	"Windows 10"	"60.66"	"050"	n/a	n/a	n/a	n/a	n/a	n/a	"Trial"	n/a	n/a	n/a	"468"	"arrowright"	n/a	"NULL"	"NULL"	"NULL"	"stimuli/VerticalHorizontal_0000000_-0.9000.png"	n/a	"VerticalHorizontal"	"arrowright"	"1190"	"TRUE"	"VerticalHorizontal"	"000000000000"	"-0.900000000"	"1"	"15"
n/a	"html-keyboard-response"	"43"	"129730"	"0.0-4.0-3.0-2.0-0.3"	"hl1zpr"	"563"	"1034"	"chrome"	"111.0.0"	"FALSE"	"Windows 10"	"60.66"	"050"	n/a	n/a	n/a	n/a	n/a	n/a	"fixation"	n/a	n/a	n/a	n/a	"NULL"	n/a	"NULL"	"NULL"	"NULL"	"<p style=\"color: black; font-size: 80px; padding-left: 0%; padding-right: 48%; padding-top: 15%; padding-bottom: 15%\">+</p>"	"1210"	n/a	n/a	n/a	n/a	n/a	n/a	n/a	n/a	n/a
n/a	"image-keyboard-response"	"44"	"130199"	"0.0-4.0-3.0-2.0-1.3"	"hl1zpr"	"563"	"1034"	"chrome"	"111.0.0"	"FALSE"	"Windows 10"	"60.66"	"050"	n/a	n/a	n/a	n/a	n/a	n/a	"Trial"	n/a	n/a	n/a	"468"	"arrowleft"	n/a	"NULL"	"NULL"	"NULL"	"stimuli/VerticalHorizontal_3300000_0.90000.png"	n/a	"VerticalHorizontal"	"arrowleft"	"1227"	"TRUE"	"VerticalHorizontal"	"330000000000"	"0.9000000000"	"1"	"16"
n/a	"html-keyboard-response"	"45"	"131316"	"0.0-4.0-3.0-2.0-0.4"	"hl1zpr"	"563"	"1034"	"chrome"	"111.0.0"	"FALSE"	"Windows 10"	"60.66"	"050"	n/a	n/a	n/a	n/a	n/a	n/a	"fixation"	n/a	n/a	n/a	n/a	"NULL"	n/a	"NULL"	"NULL"	"NULL"	"<p style=\"color: black; font-size: 80px; padding-left: 14%; padding-right: 44%; padding-top: 11%; padding-bottom: 48%\">+</p>"	"1105"	n/a	n/a	n/a	n/a	n/a	n/a	n/a	n/a	n/a
n/a	"image-keyboard-response"	"46"	"132096"	"0.0-4.0-3.0-2.0-1.4"	"hl1zpr"	"563"	"1034"	"chrome"	"111.0.0"	"FALSE"	"Windows 10"	"60.66"	"050"	n/a	n/a	n/a	n/a	n/a	n/a	"Trial"	n/a	n/a	n/a	"779"	"arrowright"	n/a	"NULL"	"NULL"	"NULL"	"stimuli/VerticalHorizontal_-330000_-0.9000.png"	n/a	"VerticalHorizontal"	"arrowright"	"1117"	"TRUE"	"VerticalHorizontal"	"-33000000000"	"-0.900000000"	"1"	"17"
n/a	"html-keyboard-response"	"47"	"133114"	"0.0-4.0-3.0-2.0-0.5"	"hl1zpr"	"563"	"1034"	"chrome"	"111.0.0"	"FALSE"	"Windows 10"	"60.66"	"050"	n/a	n/a	n/a	n/a	n/a	n/a	"fixation"	n/a	n/a	n/a	n/a	"NULL"	n/a	"NULL"	"NULL"	"NULL"	"<p style=\"color: black; font-size: 80px; padding-left: 45%; padding-right: 9%; padding-top: 6%; padding-bottom: 35%\">+</p>"	"1010"	n/a	n/a	n/a	n/a	n/a	n/a	n/a	n/a	n/a
n/a	"image-keyboard-response"	"48"	"133582"	"0.0-4.0-3.0-2.0-1.5"	"hl1zpr"	"563"	"1034"	"chrome"	"111.0.0"	"FALSE"	"Windows 10"	"60.66"	"050"	n/a	n/a	n/a	n/a	n/a	n/a	"Trial"	n/a	n/a	n/a	"467"	"arrowleft"	n/a	"NULL"	"NULL"	"NULL"	"stimuli/VerticalHorizontal_-330000_0.90000.png"	n/a	"VerticalHorizontal"	"arrowleft"	"1018"	"TRUE"	"VerticalHorizontal"	"-33000000000"	"0.9000000000"	"1"	"18"
n/a	"html-button-response"	"49"	"136395"	"0.0-4.0-3.0-3.0"	"hl1zpr"	"563"	"1034"	"chrome"	"111.0.0"	"FALSE"	"Windows 10"	"60.66"	"050"	n/a	n/a	n/a	n/a	n/a	n/a	"practice_block_results"	n/a	n/a	n/a	"2812"	"0"	n/a	"NULL"	"NULL"	"NULL"	"<p style='color:rgb(76,175,80);'> Correct Responses: <b>100.00%</b></p><hr><p style='color:rgb(233,30,99);'> Average Response Time: <b>531.00</b> ms.</p>"	n/a	n/a	n/a	n/a	n/a	n/a	n/a	n/a	n/a	n/a
n/a	"html-button-response"	"50"	"185082"	"0.0-4.0-4.0"	"hl1zpr"	"563"	"1034"	"chrome"	"111.0.0"	"FALSE"	"Windows 10"	"60.66"	"050"	n/a	n/a	n/a	n/a	n/a	n/a	"practice_debrief"	n/a	n/a	n/a	"48186"	"0"	n/a	"NULL"	"NULL"	"NULL"	"<p><b>TRAINING COMPLETED</b></p><p>In the next phase, there will be more trials, and some might be harder too.<br> Moreover, after each illusion block, a <b>score</b> will be calculated based on speed (time you took to answer) and accuracy (number of errors).</p><p>Try to keep up a high score!</p><br><p>Note that it can be <i>really</i> challenging at times, so you will need to rely on your <b>intuition</b> and gut feeling to answer as fast as you can without making errors.</p><p>Each illusion block will be repeated two times (so that you have the opportunity to improve your score), but the order of the blocks is random.</p><p>Remember, your goal is to be as <b>fast</b> and <b>accurate</b> as possible. Good luck!</p><br>"	n/a	n/a	n/a	n/a	n/a	n/a	n/a	n/a	n/a	n/a
"TRUE"	"preload"	"51"	"185261"	"0.0-5.0-0.0"	"hl1zpr"	"563"	"1034"	"chrome"	"111.0.0"	"FALSE"	"Windows 10"	"60.66"	"050"	n/a	n/a	n/a	n/a	n/a	n/a	n/a	n/a	n/a	n/a	n/a	"NULL"	"FALSE"	"list()"	"list()"	"list()"	n/a	n/a	n/a	n/a	n/a	n/a	n/a	n/a	n/a	n/a	n/a
n/a	"html-keyboard-response"	"52"	"188190"	"0.0-5.0-1.0"	"hl1zpr"	"563"	"1034"	"chrome"	"111.0.0"	"FALSE"	"Windows 10"	"60.66"	"050"	n/a	n/a	n/a	n/a	n/a	n/a	n/a	n/a	n/a	n/a	"2928"	"enter"	n/a	"NULL"	"NULL"	"NULL"	"<p><b>Part 1/6</b></p><p>In this part, two red lines will appear side by side.</p><p>Your task is to tell <b>which line is longer</b> in length, regardless of their orientation, as fast as you can, and without making errors.</p><p>Don't get distracted by the orientation of the lines!</p><p>Press <b>the LEFT or the RIGHT arrow</b> to indicate which <b>line is the longer one.</b></p><div style='float: center'><img src='materials/instructions/VerticalHorizontal_Demo.png' height='300'></img><p><img src='utils/answer/answer_leftright_keyboard.PNG' height='150'></img></p><p class='small'>In this example, the correct answer is the <b>LEFT arrow</b>.</p></div><p>Are you ready? <b>Press ENTER to start</b></p>"	n/a	n/a	n/a	n/a	n/a	n/a	n/a	n/a	n/a	n/a
n/a	"html-keyboard-response"	"53"	"189771"	"0.0-5.0-2.0-0.0"	"hl1zpr"	"563"	"1034"	"chrome"	"111.0.0"	"FALSE"	"Windows 10"	"60.66"	"050"	n/a	n/a	n/a	n/a	n/a	n/a	"fixation"	n/a	n/a	n/a	n/a	"NULL"	n/a	"NULL"	"NULL"	"NULL"	"<p style=\"color: black; font-size: 80px; padding-left: 4%; padding-right: 11%; padding-top: 42%; padding-bottom: 26%\">+</p>"	"1070"	n/a	n/a	n/a	n/a	n/a	n/a	n/a	n/a	n/a
n/a	"image-keyboard-response"	"54"	"190470"	"0.0-5.0-2.0-1.0"	"hl1zpr"	"563"	"1034"	"chrome"	"111.0.0"	"FALSE"	"Windows 10"	"60.66"	"050"	n/a	n/a	n/a	n/a	n/a	n/a	"Trial"	n/a	n/a	n/a	"699"	"arrowleft"	n/a	"NULL"	"NULL"	"NULL"	"stimuli/VerticalHorizontal_-3.3000_0.06730.png"	n/a	"VerticalHorizontal"	"arrowleft"	"1581"	"TRUE"	"VerticalHorizontal"	"-3.300000000"	"0.0673000000"	"1"	"19"
n/a	"html-keyboard-response"	"55"	"191724"	"0.0-5.0-2.0-0.1"	"hl1zpr"	"563"	"1034"	"chrome"	"111.0.0"	"FALSE"	"Windows 10"	"60.66"	"050"	n/a	n/a	n/a	n/a	n/a	n/a	"fixation"	n/a	n/a	n/a	n/a	"NULL"	n/a	"NULL"	"NULL"	"NULL"	"<p style=\"color: black; font-size: 80px; padding-left: 27%; padding-right: 34%; padding-top: 8%; padding-bottom: 21%\">+</p>"	"1243"	n/a	n/a	n/a	n/a	n/a	n/a	n/a	n/a	n/a
n/a	"image-keyboard-response"	"56"	"192352"	"0.0-5.0-2.0-1.1"	"hl1zpr"	"563"	"1034"	"chrome"	"111.0.0"	"FALSE"	"Windows 10"	"60.66"	"050"	n/a	n/a	n/a	n/a	n/a	n/a	"Trial"	n/a	n/a	n/a	"627"	"arrowright"	n/a	"NULL"	"NULL"	"NULL"	"stimuli/VerticalHorizontal_11.78571_-0.0673.png"	n/a	"VerticalHorizontal"	"arrowright"	"1254"	"TRUE"	"VerticalHorizontal"	"11.785710000"	"-0.067300000"	"1"	"20"
n/a	"html-keyboard-response"	"57"	"193505"	"0.0-5.0-2.0-0.2"	"hl1zpr"	"563"	"1034"	"chrome"	"111.0.0"	"FALSE"	"Windows 10"	"60.66"	"050"	n/a	n/a	n/a	n/a	n/a	n/a	"fixation"	n/a	n/a	n/a	n/a	"NULL"	n/a	"NULL"	"NULL"	"NULL"	"<p style=\"color: black; font-size: 80px; padding-left: 29%; padding-right: 4%; padding-top: 50%; padding-bottom: 21%\">+</p>"	"1139"	n/a	n/a	n/a	n/a	n/a	n/a	n/a	n/a	n/a
n/a	"image-keyboard-response"	"58"	"194319"	"0.0-5.0-2.0-1.2"	"hl1zpr"	"563"	"1034"	"chrome"	"111.0.0"	"FALSE"	"Windows 10"	"60.66"	"050"	n/a	n/a	n/a	n/a	n/a	n/a	"Trial"	n/a	n/a	n/a	"813"	"arrowright"	n/a	"NULL"	"NULL"	"NULL"	"stimuli/VerticalHorizontal_3.30000_0.06730.png"	n/a	"VerticalHorizontal"	"arrowleft"	"1153"	"FALSE"	"VerticalHorizontal"	"3.3000000000"	"0.0673000000"	"1"	"21"
n/a	"html-keyboard-response"	"59"	"195720"	"0.0-5.0-2.0-0.3"	"hl1zpr"	"563"	"1034"	"chrome"	"111.0.0"	"FALSE"	"Windows 10"	"60.66"	"050"	n/a	n/a	n/a	n/a	n/a	n/a	"fixation"	n/a	n/a	n/a	n/a	"NULL"	n/a	"NULL"	"NULL"	"NULL"	"<p style=\"color: black; font-size: 80px; padding-left: 29%; padding-right: 18%; padding-top: 36%; padding-bottom: 9%\">+</p>"	"1400"	n/a	n/a	n/a	n/a	n/a	n/a	n/a	n/a	n/a
n/a	"image-keyboard-response"	"60"	"196330"	"0.0-5.0-2.0-1.3"	"hl1zpr"	"563"	"1034"	"chrome"	"111.0.0"	"FALSE"	"Windows 10"	"60.66"	"050"	n/a	n/a	n/a	n/a	n/a	n/a	"Trial"	n/a	n/a	n/a	"609"	"arrowleft"	n/a	"NULL"	"NULL"	"NULL"	"stimuli/VerticalHorizontal_20.27143_-0.0673.png"	n/a	"VerticalHorizontal"	"arrowright"	"1401"	"FALSE"	"VerticalHorizontal"	"20.271430000"	"-0.067300000"	"1"	"22"
n/a	"html-keyboard-response"	"61"	"197644"	"0.0-5.0-2.0-0.4"	"hl1zpr"	"563"	"1034"	"chrome"	"111.0.0"	"FALSE"	"Windows 10"	"60.66"	"050"	n/a	n/a	n/a	n/a	n/a	n/a	"fixation"	n/a	n/a	n/a	n/a	"NULL"	n/a	"NULL"	"NULL"	"NULL"	"<p style=\"color: black; font-size: 80px; padding-left: 0%; padding-right: 26%; padding-top: 42%; padding-bottom: 17%\">+</p>"	"1311"	n/a	n/a	n/a	n/a	n/a	n/a	n/a	n/a	n/a
n/a	"image-keyboard-response"	"62"	"198206"	"0.0-5.0-2.0-1.4"	"hl1zpr"	"563"	"1034"	"chrome"	"111.0.0"	"FALSE"	"Windows 10"	"60.66"	"050"	n/a	n/a	n/a	n/a	n/a	n/a	"Trial"	n/a	n/a	n/a	"561"	"arrowleft"	n/a	"NULL"	"NULL"	"NULL"	"stimuli/VerticalHorizontal_-28.75714_0.16217.png"	n/a	"VerticalHorizontal"	"arrowleft"	"1314"	"TRUE"	"VerticalHorizontal"	"-28.75714000"	"0.1621700000"	"1"	"23"
n/a	"html-keyboard-response"	"63"	"199449"	"0.0-5.0-2.0-0.5"	"hl1zpr"	"563"	"1034"	"chrome"	"111.0.0"	"FALSE"	"Windows 10"	"60.66"	"050"	n/a	n/a	n/a	n/a	n/a	n/a	"fixation"	n/a	n/a	n/a	n/a	"NULL"	n/a	"NULL"	"NULL"	"NULL"	"<p style=\"color: black; font-size: 80px; padding-left: 14%; padding-right: 37%; padding-top: 41%; padding-bottom: 38%\">+</p>"	"1228"	n/a	n/a	n/a	n/a	n/a	n/a	n/a	n/a	n/a
n/a	"image-keyboard-response"	"64"	"200035"	"0.0-5.0-2.0-1.5"	"hl1zpr"	"563"	"1034"	"chrome"	"111.0.0"	"FALSE"	"Windows 10"	"60.66"	"050"	n/a	n/a	n/a	n/a	n/a	n/a	"Trial"	n/a	n/a	n/a	"586"	"arrowright"	n/a	"NULL"	"NULL"	"NULL"	"stimuli/VerticalHorizontal_11.78571_-0.16217.png"	n/a	"VerticalHorizontal"	"arrowright"	"1243"	"TRUE"	"VerticalHorizontal"	"11.785710000"	"-0.162170000"	"1"	"24"
n/a	"html-keyboard-response"	"65"	"201219"	"0.0-5.0-2.0-0.6"	"hl1zpr"	"563"	"1034"	"chrome"	"111.0.0"	"FALSE"	"Windows 10"	"60.66"	"050"	n/a	n/a	n/a	n/a	n/a	n/a	"fixation"	n/a	n/a	n/a	n/a	"NULL"	n/a	"NULL"	"NULL"	"NULL"	"<p style=\"color: black; font-size: 80px; padding-left: 16%; padding-right: 19%; padding-top: 3%; padding-bottom: 46%\">+</p>"	"1178"	n/a	n/a	n/a	n/a	n/a	n/a	n/a	n/a	n/a
n/a	"image-keyboard-response"	"66"	"201663"	"0.0-5.0-2.0-1.6"	"hl1zpr"	"563"	"1034"	"chrome"	"111.0.0"	"FALSE"	"Windows 10"	"60.66"	"050"	n/a	n/a	n/a	n/a	n/a	n/a	"Trial"	n/a	n/a	n/a	"443"	"arrowright"	n/a	"NULL"	"NULL"	"NULL"	"stimuli/VerticalHorizontal_-28.75714_-0.0673.png"	n/a	"VerticalHorizontal"	"arrowright"	"1184"	"TRUE"	"VerticalHorizontal"	"-28.75714000"	"-0.067300000"	"1"	"25"
n/a	"html-keyboard-response"	"67"	"203161"	"0.0-5.0-2.0-0.7"	"hl1zpr"	"563"	"1034"	"chrome"	"111.0.0"	"FALSE"	"Windows 10"	"60.66"	"050"	n/a	n/a	n/a	n/a	n/a	n/a	"fixation"	n/a	n/a	n/a	n/a	"NULL"	n/a	"NULL"	"NULL"	"NULL"	"<p style=\"color: black; font-size: 80px; padding-left: 24%; padding-right: 1%; padding-top: 37%; padding-bottom: 15%\">+</p>"	"1483"	n/a	n/a	n/a	n/a	n/a	n/a	n/a	n/a	n/a
n/a	"image-keyboard-response"	"68"	"203786"	"0.0-5.0-2.0-1.7"	"hl1zpr"	"563"	"1034"	"chrome"	"111.0.0"	"FALSE"	"Windows 10"	"60.66"	"050"	n/a	n/a	n/a	n/a	n/a	n/a	"Trial"	n/a	n/a	n/a	"625"	"arrowright"	n/a	"NULL"	"NULL"	"NULL"	"stimuli/VerticalHorizontal_11.78571_-0.1096.png"	n/a	"VerticalHorizontal"	"arrowright"	"1498"	"TRUE"	"VerticalHorizontal"	"11.785710000"	"-0.109600000"	"1"	"26"
n/a	"html-keyboard-response"	"69"	"204955"	"0.0-5.0-2.0-0.8"	"hl1zpr"	"563"	"1034"	"chrome"	"111.0.0"	"FALSE"	"Windows 10"	"60.66"	"050"	n/a	n/a	n/a	n/a	n/a	n/a	"fixation"	n/a	n/a	n/a	n/a	"NULL"	n/a	"NULL"	"NULL"	"NULL"	"<p style=\"color: black; font-size: 80px; padding-left: 24%; padding-right: 50%; padding-top: 37%; padding-bottom: 25%\">+</p>"	"1165"	n/a	n/a	n/a	n/a	n/a	n/a	n/a	n/a	n/a
n/a	"image-keyboard-response"	"70"	"205533"	"0.0-5.0-2.0-1.8"	"hl1zpr"	"563"	"1034"	"chrome"	"111.0.0"	"FALSE"	"Windows 10"	"60.66"	"050"	n/a	n/a	n/a	n/a	n/a	n/a	"Trial"	n/a	n/a	n/a	"576"	"arrowleft"	n/a	"NULL"	"NULL"	"NULL"	"stimuli/VerticalHorizontal_3.30000_0.22500.png"	n/a	"VerticalHorizontal"	"arrowleft"	"1169"	"TRUE"	"VerticalHorizontal"	"3.3000000000"	"0.2250000000"	"1"	"27"
n/a	"html-keyboard-response"	"71"	"207020"	"0.0-5.0-2.0-0.9"	"hl1zpr"	"563"	"1034"	"chrome"	"111.0.0"	"FALSE"	"Windows 10"	"60.66"	"050"	n/a	n/a	n/a	n/a	n/a	n/a	"fixation"	n/a	n/a	n/a	n/a	"NULL"	n/a	"NULL"	"NULL"	"NULL"	"<p style=\"color: black; font-size: 80px; padding-left: 18%; padding-right: 5%; padding-top: 40%; padding-bottom: 13%\">+</p>"	"1473"	n/a	n/a	n/a	n/a	n/a	n/a	n/a	n/a	n/a
n/a	"image-keyboard-response"	"72"	"207411"	"0.0-5.0-2.0-1.9"	"hl1zpr"	"563"	"1034"	"chrome"	"111.0.0"	"FALSE"	"Windows 10"	"60.66"	"050"	n/a	n/a	n/a	n/a	n/a	n/a	"Trial"	n/a	n/a	n/a	"391"	"arrowright"	n/a	"NULL"	"NULL"	"NULL"	"stimuli/VerticalHorizontal_-11.78571_-0.2250.png"	n/a	"VerticalHorizontal"	"arrowright"	"1487"	"TRUE"	"VerticalHorizontal"	"-11.78571000"	"-0.225000000"	"1"	"28"
n/a	"html-keyboard-response"	"73"	"208733"	"0.0-5.0-2.0-0.10"	"hl1zpr"	"563"	"1034"	"chrome"	"111.0.0"	"FALSE"	"Windows 10"	"60.66"	"050"	n/a	n/a	n/a	n/a	n/a	n/a	"fixation"	n/a	n/a	n/a	n/a	"NULL"	n/a	"NULL"	"NULL"	"NULL"	"<p style=\"color: black; font-size: 80px; padding-left: 41%; padding-right: 25%; padding-top: 10%; padding-bottom: 4%\">+</p>"	"1309"	n/a	n/a	n/a	n/a	n/a	n/a	n/a	n/a	n/a
n/a	"image-keyboard-response"	"74"	"209270"	"0.0-5.0-2.0-1.10"	"hl1zpr"	"563"	"1034"	"chrome"	"111.0.0"	"FALSE"	"Windows 10"	"60.66"	"050"	n/a	n/a	n/a	n/a	n/a	n/a	"Trial"	n/a	n/a	n/a	"536"	"arrowleft"	n/a	"NULL"	"NULL"	"NULL"	"stimuli/VerticalHorizontal_3.30000_0.10960.png"	n/a	"VerticalHorizontal"	"arrowleft"	"1322"	"TRUE"	"VerticalHorizontal"	"3.3000000000"	"0.1096000000"	"1"	"29"
n/a	"html-keyboard-response"	"75"	"210753"	"0.0-5.0-2.0-0.11"	"hl1zpr"	"563"	"1034"	"chrome"	"111.0.0"	"FALSE"	"Windows 10"	"60.66"	"050"	n/a	n/a	n/a	n/a	n/a	n/a	"fixation"	n/a	n/a	n/a	n/a	"NULL"	n/a	"NULL"	"NULL"	"NULL"	"<p style=\"color: black; font-size: 80px; padding-left: 35%; padding-right: 36%; padding-top: 29%; padding-bottom: 29%\">+</p>"	"1473"	n/a	n/a	n/a	n/a	n/a	n/a	n/a	n/a	n/a
n/a	"image-keyboard-response"	"76"	"211230"	"0.0-5.0-2.0-1.11"	"hl1zpr"	"563"	"1034"	"chrome"	"111.0.0"	"FALSE"	"Windows 10"	"60.66"	"050"	n/a	n/a	n/a	n/a	n/a	n/a	"Trial"	n/a	n/a	n/a	"477"	"arrowright"	n/a	"NULL"	"NULL"	"NULL"	"stimuli/VerticalHorizontal_20.27143_0.06730.png"	n/a	"VerticalHorizontal"	"arrowleft"	"1483"	"FALSE"	"VerticalHorizontal"	"20.271430000"	"0.0673000000"	"1"	"30"
n/a	"html-keyboard-response"	"77"	"212524"	"0.0-5.0-2.0-0.12"	"hl1zpr"	"563"	"1034"	"chrome"	"111.0.0"	"FALSE"	"Windows 10"	"60.66"	"050"	n/a	n/a	n/a	n/a	n/a	n/a	"fixation"	n/a	n/a	n/a	n/a	"NULL"	n/a	"NULL"	"NULL"	"NULL"	"<p style=\"color: black; font-size: 80px; padding-left: 36%; padding-right: 29%; padding-top: 5%; padding-bottom: 37%\">+</p>"	"1292"	n/a	n/a	n/a	n/a	n/a	n/a	n/a	n/a	n/a
n/a	"image-keyboard-response"	"78"	"213060"	"0.0-5.0-2.0-1.12"	"hl1zpr"	"563"	"1034"	"chrome"	"111.0.0"	"FALSE"	"Windows 10"	"60.66"	"050"	n/a	n/a	n/a	n/a	n/a	n/a	"Trial"	n/a	n/a	n/a	"536"	"arrowright"	n/a	"NULL"	"NULL"	"NULL"	"stimuli/VerticalHorizontal_-3.3000_-0.16217.png"	n/a	"VerticalHorizontal"	"arrowright"	"1294"	"TRUE"	"VerticalHorizontal"	"-3.300000000"	"-0.162170000"	"1"	"31"
n/a	"html-keyboard-response"	"79"	"214420"	"0.0-5.0-2.0-0.13"	"hl1zpr"	"563"	"1034"	"chrome"	"111.0.0"	"FALSE"	"Windows 10"	"60.66"	"050"	n/a	n/a	n/a	n/a	n/a	n/a	"fixation"	n/a	n/a	n/a	n/a	"NULL"	n/a	"NULL"	"NULL"	"NULL"	"<p style=\"color: black; font-size: 80px; padding-left: 25%; padding-right: 17%; padding-top: 47%; padding-bottom: 42%\">+</p>"	"1347"	n/a	n/a	n/a	n/a	n/a	n/a	n/a	n/a	n/a
n/a	"image-keyboard-response"	"80"	"214882"	"0.0-5.0-2.0-1.13"	"hl1zpr"	"563"	"1034"	"chrome"	"111.0.0"	"FALSE"	"Windows 10"	"60.66"	"050"	n/a	n/a	n/a	n/a	n/a	n/a	"Trial"	n/a	n/a	n/a	"461"	"arrowleft"	n/a	"NULL"	"NULL"	"NULL"	"stimuli/VerticalHorizontal_-11.78571_0.06730.png"	n/a	"VerticalHorizontal"	"arrowleft"	"1360"	"TRUE"	"VerticalHorizontal"	"-11.78571000"	"0.0673000000"	"1"	"32"
n/a	"html-keyboard-response"	"81"	"215998"	"0.0-5.0-2.0-0.14"	"hl1zpr"	"563"	"1034"	"chrome"	"111.0.0"	"FALSE"	"Windows 10"	"60.66"	"050"	n/a	n/a	n/a	n/a	n/a	n/a	"fixation"	n/a	n/a	n/a	n/a	"NULL"	n/a	"NULL"	"NULL"	"NULL"	"<p style=\"color: black; font-size: 80px; padding-left: 32%; padding-right: 34%; padding-top: 4%; padding-bottom: 26%\">+</p>"	"1102"	n/a	n/a	n/a	n/a	n/a	n/a	n/a	n/a	n/a
n/a	"image-keyboard-response"	"82"	"216474"	"0.0-5.0-2.0-1.14"	"hl1zpr"	"563"	"1034"	"chrome"	"111.0.0"	"FALSE"	"Windows 10"	"60.66"	"050"	n/a	n/a	n/a	n/a	n/a	n/a	"Trial"	n/a	n/a	n/a	"476"	"arrowright"	n/a	"NULL"	"NULL"	"NULL"	"stimuli/VerticalHorizontal_-20.27143_-0.16217.png"	n/a	"VerticalHorizontal"	"arrowright"	"1116"	"TRUE"	"VerticalHorizontal"	"-20.27143000"	"-0.162170000"	"1"	"33"
n/a	"html-keyboard-response"	"83"	"217516"	"0.0-5.0-2.0-0.15"	"hl1zpr"	"563"	"1034"	"chrome"	"111.0.0"	"FALSE"	"Windows 10"	"60.66"	"050"	n/a	n/a	n/a	n/a	n/a	n/a	"fixation"	n/a	n/a	n/a	n/a	"NULL"	n/a	"NULL"	"NULL"	"NULL"	"<p style=\"color: black; font-size: 80px; padding-left: 14%; padding-right: 8%; padding-top: 32%; padding-bottom: 46%\">+</p>"	"1026"	n/a	n/a	n/a	n/a	n/a	n/a	n/a	n/a	n/a
n/a	"image-keyboard-response"	"84"	"218172"	"0.0-5.0-2.0-1.15"	"hl1zpr"	"563"	"1034"	"chrome"	"111.0.0"	"FALSE"	"Windows 10"	"60.66"	"050"	n/a	n/a	n/a	n/a	n/a	n/a	"Trial"	n/a	n/a	n/a	"655"	"arrowright"	n/a	"NULL"	"NULL"	"NULL"	"stimuli/VerticalHorizontal_-3.3000_-0.0673.png"	n/a	"VerticalHorizontal"	"arrowright"	"1042"	"TRUE"	"VerticalHorizontal"	"-3.300000000"	"-0.067300000"	"1"	"34"
n/a	"html-keyboard-response"	"85"	"219667"	"0.0-5.0-2.0-0.16"	"hl1zpr"	"563"	"1034"	"chrome"	"111.0.0"	"FALSE"	"Windows 10"	"60.66"	"050"	n/a	n/a	n/a	n/a	n/a	n/a	"fixation"	n/a	n/a	n/a	n/a	"NULL"	n/a	"NULL"	"NULL"	"NULL"	"<p style=\"color: black; font-size: 80px; padding-left: 32%; padding-right: 8%; padding-top: 2%; padding-bottom: 41%\">+</p>"	"1479"	n/a	n/a	n/a	n/a	n/a	n/a	n/a	n/a	n/a
n/a	"image-keyboard-response"	"86"	"220137"	"0.0-5.0-2.0-1.16"	"hl1zpr"	"563"	"1034"	"chrome"	"111.0.0"	"FALSE"	"Windows 10"	"60.66"	"050"	n/a	n/a	n/a	n/a	n/a	n/a	"Trial"	n/a	n/a	n/a	"469"	"arrowright"	n/a	"NULL"	"NULL"	"NULL"	"stimuli/VerticalHorizontal_-28.75714_-0.1096.png"	n/a	"VerticalHorizontal"	"arrowright"	"1495"	"TRUE"	"VerticalHorizontal"	"-28.75714000"	"-0.109600000"	"1"	"35"
n/a	"html-keyboard-response"	"87"	"221286"	"0.0-5.0-2.0-0.17"	"hl1zpr"	"563"	"1034"	"chrome"	"111.0.0"	"FALSE"	"Windows 10"	"60.66"	"050"	n/a	n/a	n/a	n/a	n/a	n/a	"fixation"	n/a	n/a	n/a	n/a	"NULL"	n/a	"NULL"	"NULL"	"NULL"	"<p style=\"color: black; font-size: 80px; padding-left: 19%; padding-right: 37%; padding-top: 49%; padding-bottom: 42%\">+</p>"	"1135"	n/a	n/a	n/a	n/a	n/a	n/a	n/a	n/a	n/a
n/a	"image-keyboard-response"	"88"	"221849"	"0.0-5.0-2.0-1.17"	"hl1zpr"	"563"	"1034"	"chrome"	"111.0.0"	"FALSE"	"Windows 10"	"60.66"	"050"	n/a	n/a	n/a	n/a	n/a	n/a	"Trial"	n/a	n/a	n/a	"562"	"arrowleft"	n/a	"NULL"	"NULL"	"NULL"	"stimuli/VerticalHorizontal_-3.3000_0.10960.png"	n/a	"VerticalHorizontal"	"arrowleft"	"1149"	"TRUE"	"VerticalHorizontal"	"-3.300000000"	"0.1096000000"	"1"	"36"
n/a	"html-keyboard-response"	"89"	"223070"	"0.0-5.0-2.0-0.18"	"hl1zpr"	"563"	"1034"	"chrome"	"111.0.0"	"FALSE"	"Windows 10"	"60.66"	"050"	n/a	n/a	n/a	n/a	n/a	n/a	"fixation"	n/a	n/a	n/a	n/a	"NULL"	n/a	"NULL"	"NULL"	"NULL"	"<p style=\"color: black; font-size: 80px; padding-left: 30%; padding-right: 27%; padding-top: 17%; padding-bottom: 40%\">+</p>"	"1218"	n/a	n/a	n/a	n/a	n/a	n/a	n/a	n/a	n/a
n/a	"image-keyboard-response"	"90"	"223556"	"0.0-5.0-2.0-1.18"	"hl1zpr"	"563"	"1034"	"chrome"	"111.0.0"	"FALSE"	"Windows 10"	"60.66"	"050"	n/a	n/a	n/a	n/a	n/a	n/a	"Trial"	n/a	n/a	n/a	"486"	"arrowright"	n/a	"NULL"	"NULL"	"NULL"	"stimuli/VerticalHorizontal_3.30000_-0.16217.png"	n/a	"VerticalHorizontal"	"arrowright"	"1221"	"TRUE"	"VerticalHorizontal"	"3.3000000000"	"-0.162170000"	"1"	"37"
n/a	"html-keyboard-response"	"91"	"224818"	"0.0-5.0-2.0-0.19"	"hl1zpr"	"563"	"1034"	"chrome"	"111.0.0"	"FALSE"	"Windows 10"	"60.66"	"050"	n/a	n/a	n/a	n/a	n/a	n/a	"fixation"	n/a	n/a	n/a	n/a	"NULL"	n/a	"NULL"	"NULL"	"NULL"	"<p style=\"color: black; font-size: 80px; padding-left: 44%; padding-right: 28%; padding-top: 34%; padding-bottom: 19%\">+</p>"	"1245"	n/a	n/a	n/a	n/a	n/a	n/a	n/a	n/a	n/a
n/a	"image-keyboard-response"	"92"	"225349"	"0.0-5.0-2.0-1.19"	"hl1zpr"	"563"	"1034"	"chrome"	"111.0.0"	"FALSE"	"Windows 10"	"60.66"	"050"	n/a	n/a	n/a	n/a	n/a	n/a	"Trial"	n/a	n/a	n/a	"531"	"arrowright"	n/a	"NULL"	"NULL"	"NULL"	"stimuli/VerticalHorizontal_3.30000_-0.2250.png"	n/a	"VerticalHorizontal"	"arrowright"	"1262"	"TRUE"	"VerticalHorizontal"	"3.3000000000"	"-0.225000000"	"1"	"38"
n/a	"html-keyboard-response"	"93"	"226594"	"0.0-5.0-2.0-0.20"	"hl1zpr"	"563"	"1034"	"chrome"	"111.0.0"	"FALSE"	"Windows 10"	"60.66"	"050"	n/a	n/a	n/a	n/a	n/a	n/a	"fixation"	n/a	n/a	n/a	n/a	"NULL"	n/a	"NULL"	"NULL"	"NULL"	"<p style=\"color: black; font-size: 80px; padding-left: 7%; padding-right: 5%; padding-top: 37%; padding-bottom: 18%\">+</p>"	"1241"	n/a	n/a	n/a	n/a	n/a	n/a	n/a	n/a	n/a
n/a	"image-keyboard-response"	"94"	"227333"	"0.0-5.0-2.0-1.20"	"hl1zpr"	"563"	"1034"	"chrome"	"111.0.0"	"FALSE"	"Windows 10"	"60.66"	"050"	n/a	n/a	n/a	n/a	n/a	n/a	"Trial"	n/a	n/a	n/a	"737"	"arrowright"	n/a	"NULL"	"NULL"	"NULL"	"stimuli/VerticalHorizontal_28.75714_-0.16217.png"	n/a	"VerticalHorizontal"	"arrowright"	"1245"	"TRUE"	"VerticalHorizontal"	"28.757140000"	"-0.162170000"	"1"	"39"
n/a	"html-keyboard-response"	"95"	"228352"	"0.0-5.0-2.0-0.21"	"hl1zpr"	"563"	"1034"	"chrome"	"111.0.0"	"FALSE"	"Windows 10"	"60.66"	"050"	n/a	n/a	n/a	n/a	n/a	n/a	"fixation"	n/a	n/a	n/a	n/a	"NULL"	n/a	"NULL"	"NULL"	"NULL"	"<p style=\"color: black; font-size: 80px; padding-left: 3%; padding-right: 5%; padding-top: 33%; padding-bottom: 12%\">+</p>"	"1013"	n/a	n/a	n/a	n/a	n/a	n/a	n/a	n/a	n/a
n/a	"image-keyboard-response"	"96"	"229115"	"0.0-5.0-2.0-1.21"	"hl1zpr"	"563"	"1034"	"chrome"	"111.0.0"	"FALSE"	"Windows 10"	"60.66"	"050"	n/a	n/a	n/a	n/a	n/a	n/a	"Trial"	n/a	n/a	n/a	"762"	"arrowleft"	n/a	"NULL"	"NULL"	"NULL"	"stimuli/VerticalHorizontal_20.27143_0.22500.png"	n/a	"VerticalHorizontal"	"arrowleft"	"1019"	"TRUE"	"VerticalHorizontal"	"20.271430000"	"0.2250000000"	"1"	"40"
n/a	"html-keyboard-response"	"97"	"230278"	"0.0-5.0-2.0-0.22"	"hl1zpr"	"563"	"1034"	"chrome"	"111.0.0"	"FALSE"	"Windows 10"	"60.66"	"050"	n/a	n/a	n/a	n/a	n/a	n/a	"fixation"	n/a	n/a	n/a	n/a	"NULL"	n/a	"NULL"	"NULL"	"NULL"	"<p style=\"color: black; font-size: 80px; padding-left: 17%; padding-right: 26%; padding-top: 31%; padding-bottom: 36%\">+</p>"	"1160"	n/a	n/a	n/a	n/a	n/a	n/a	n/a	n/a	n/a
n/a	"image-keyboard-response"	"98"	"230784"	"0.0-5.0-2.0-1.22"	"hl1zpr"	"563"	"1034"	"chrome"	"111.0.0"	"FALSE"	"Windows 10"	"60.66"	"050"	n/a	n/a	n/a	n/a	n/a	n/a	"Trial"	n/a	n/a	n/a	"505"	"arrowright"	n/a	"NULL"	"NULL"	"NULL"	"stimuli/VerticalHorizontal_20.27143_-0.2250.png"	n/a	"VerticalHorizontal"	"arrowright"	"1163"	"TRUE"	"VerticalHorizontal"	"20.271430000"	"-0.225000000"	"1"	"41"
n/a	"html-keyboard-response"	"99"	"232019"	"0.0-5.0-2.0-0.23"	"hl1zpr"	"563"	"1034"	"chrome"	"111.0.0"	"FALSE"	"Windows 10"	"60.66"	"050"	n/a	n/a	n/a	n/a	n/a	n/a	"fixation"	n/a	n/a	n/a	n/a	"NULL"	n/a	"NULL"	"NULL"	"NULL"	"<p style=\"color: black; font-size: 80px; padding-left: 21%; padding-right: 16%; padding-top: 49%; padding-bottom: 3%\">+</p>"	"1228"	n/a	n/a	n/a	n/a	n/a	n/a	n/a	n/a	n/a
n/a	"image-keyboard-response"	"100"	"232473"	"0.0-5.0-2.0-1.23"	"hl1zpr"	"563"	"1034"	"chrome"	"111.0.0"	"FALSE"	"Windows 10"	"60.66"	"050"	n/a	n/a	n/a	n/a	n/a	n/a	"Trial"	n/a	n/a	n/a	"453"	"arrowright"	n/a	"NULL"	"NULL"	"NULL"	"stimuli/VerticalHorizontal_-11.78571_-0.16217.png"	n/a	"VerticalHorizontal"	"arrowright"	"1235"	"TRUE"	"VerticalHorizontal"	"-11.78571000"	"-0.162170000"	"1"	"42"
n/a	"html-keyboard-response"	"101"	"233520"	"0.0-5.0-2.0-0.24"	"hl1zpr"	"563"	"1034"	"chrome"	"111.0.0"	"FALSE"	"Windows 10"	"60.66"	"050"	n/a	n/a	n/a	n/a	n/a	n/a	"fixation"	n/a	n/a	n/a	n/a	"NULL"	n/a	"NULL"	"NULL"	"NULL"	"<p style=\"color: black; font-size: 80px; padding-left: 1%; padding-right: 49%; padding-top: 21%; padding-bottom: 39%\">+</p>"	"1033"	n/a	n/a	n/a	n/a	n/a	n/a	n/a	n/a	n/a
n/a	"image-keyboard-response"	"102"	"234042"	"0.0-5.0-2.0-1.24"	"hl1zpr"	"563"	"1034"	"chrome"	"111.0.0"	"FALSE"	"Windows 10"	"60.66"	"050"	n/a	n/a	n/a	n/a	n/a	n/a	"Trial"	n/a	n/a	n/a	"522"	"arrowright"	n/a	"NULL"	"NULL"	"NULL"	"stimuli/VerticalHorizontal_-20.27143_-0.2250.png"	n/a	"VerticalHorizontal"	"arrowright"	"1047"	"TRUE"	"VerticalHorizontal"	"-20.27143000"	"-0.225000000"	"1"	"43"
n/a	"html-keyboard-response"	"103"	"235213"	"0.0-5.0-2.0-0.25"	"hl1zpr"	"563"	"1034"	"chrome"	"111.0.0"	"FALSE"	"Windows 10"	"60.66"	"050"	n/a	n/a	n/a	n/a	n/a	n/a	"fixation"	n/a	n/a	n/a	n/a	"NULL"	n/a	"NULL"	"NULL"	"NULL"	"<p style=\"color: black; font-size: 80px; padding-left: 35%; padding-right: 22%; padding-top: 44%; padding-bottom: 45%\">+</p>"	"1160"	n/a	n/a	n/a	n/a	n/a	n/a	n/a	n/a	n/a
n/a	"image-keyboard-response"	"104"	"235678"	"0.0-5.0-2.0-1.25"	"hl1zpr"	"563"	"1034"	"chrome"	"111.0.0"	"FALSE"	"Windows 10"	"60.66"	"050"	n/a	n/a	n/a	n/a	n/a	n/a	"Trial"	n/a	n/a	n/a	"465"	"arrowright"	n/a	"NULL"	"NULL"	"NULL"	"stimuli/VerticalHorizontal_-28.75714_-0.16217.png"	n/a	"VerticalHorizontal"	"arrowright"	"1171"	"TRUE"	"VerticalHorizontal"	"-28.75714000"	"-0.162170000"	"1"	"44"
n/a	"html-keyboard-response"	"105"	"236692"	"0.0-5.0-2.0-0.26"	"hl1zpr"	"563"	"1034"	"chrome"	"111.0.0"	"FALSE"	"Windows 10"	"60.66"	"050"	n/a	n/a	n/a	n/a	n/a	n/a	"fixation"	n/a	n/a	n/a	n/a	"NULL"	n/a	"NULL"	"NULL"	"NULL"	"<p style=\"color: black; font-size: 80px; padding-left: 5%; padding-right: 4%; padding-top: 45%; padding-bottom: 24%\">+</p>"	"1012"	n/a	n/a	n/a	n/a	n/a	n/a	n/a	n/a	n/a
n/a	"image-keyboard-response"	"106"	"237242"	"0.0-5.0-2.0-1.26"	"hl1zpr"	"563"	"1034"	"chrome"	"111.0.0"	"FALSE"	"Windows 10"	"60.66"	"050"	n/a	n/a	n/a	n/a	n/a	n/a	"Trial"	n/a	n/a	n/a	"550"	"arrowleft"	n/a	"NULL"	"NULL"	"NULL"	"stimuli/VerticalHorizontal_-28.75714_0.22500.png"	n/a	"VerticalHorizontal"	"arrowleft"	"1014"	"TRUE"	"VerticalHorizontal"	"-28.75714000"	"0.2250000000"	"1"	"45"
n/a	"html-keyboard-response"	"107"	"238401"	"0.0-5.0-2.0-0.27"	"hl1zpr"	"563"	"1034"	"chrome"	"111.0.0"	"FALSE"	"Windows 10"	"60.66"	"050"	n/a	n/a	n/a	n/a	n/a	n/a	"fixation"	n/a	n/a	n/a	n/a	"NULL"	n/a	"NULL"	"NULL"	"NULL"	"<p style=\"color: black; font-size: 80px; padding-left: 44%; padding-right: 4%; padding-top: 20%; padding-bottom: 29%\">+</p>"	"1143"	n/a	n/a	n/a	n/a	n/a	n/a	n/a	n/a	n/a
n/a	"image-keyboard-response"	"108"	"239231"	"0.0-5.0-2.0-1.27"	"hl1zpr"	"563"	"1034"	"chrome"	"111.0.0"	"FALSE"	"Windows 10"	"60.66"	"050"	n/a	n/a	n/a	n/a	n/a	n/a	"Trial"	n/a	n/a	n/a	"830"	"arrowleft"	n/a	"NULL"	"NULL"	"NULL"	"stimuli/VerticalHorizontal_28.75714_-0.0673.png"	n/a	"VerticalHorizontal"	"arrowright"	"1159"	"FALSE"	"VerticalHorizontal"	"28.757140000"	"-0.067300000"	"1"	"46"
n/a	"html-keyboard-response"	"109"	"240609"	"0.0-5.0-2.0-0.28"	"hl1zpr"	"563"	"1034"	"chrome"	"111.0.0"	"FALSE"	"Windows 10"	"60.66"	"050"	n/a	n/a	n/a	n/a	n/a	n/a	"fixation"	n/a	n/a	n/a	n/a	"NULL"	n/a	"NULL"	"NULL"	"NULL"	"<p style=\"color: black; font-size: 80px; padding-left: 2%; padding-right: 36%; padding-top: 21%; padding-bottom: 48%\">+</p>"	"1364"	n/a	n/a	n/a	n/a	n/a	n/a	n/a	n/a	n/a
n/a	"image-keyboard-response"	"110"	"241090"	"0.0-5.0-2.0-1.28"	"hl1zpr"	"563"	"1034"	"chrome"	"111.0.0"	"FALSE"	"Windows 10"	"60.66"	"050"	n/a	n/a	n/a	n/a	n/a	n/a	"Trial"	n/a	n/a	n/a	"480"	"arrowleft"	n/a	"NULL"	"NULL"	"NULL"	"stimuli/VerticalHorizontal_-20.27143_0.06730.png"	n/a	"VerticalHorizontal"	"arrowleft"	"1378"	"TRUE"	"VerticalHorizontal"	"-20.27143000"	"0.0673000000"	"1"	"47"
n/a	"html-keyboard-response"	"111"	"242129"	"0.0-5.0-2.0-0.29"	"hl1zpr"	"563"	"1034"	"chrome"	"111.0.0"	"FALSE"	"Windows 10"	"60.66"	"050"	n/a	n/a	n/a	n/a	n/a	n/a	"fixation"	n/a	n/a	n/a	n/a	"NULL"	n/a	"NULL"	"NULL"	"NULL"	"<p style=\"color: black; font-size: 80px; padding-left: 46%; padding-right: 1%; padding-top: 45%; padding-bottom: 32%\">+</p>"	"1025"	n/a	n/a	n/a	n/a	n/a	n/a	n/a	n/a	n/a
n/a	"image-keyboard-response"	"112"	"242881"	"0.0-5.0-2.0-1.29"	"hl1zpr"	"563"	"1034"	"chrome"	"111.0.0"	"FALSE"	"Windows 10"	"60.66"	"050"	n/a	n/a	n/a	n/a	n/a	n/a	"Trial"	n/a	n/a	n/a	"752"	"arrowleft"	n/a	"NULL"	"NULL"	"NULL"	"stimuli/VerticalHorizontal_11.78571_0.22500.png"	n/a	"VerticalHorizontal"	"arrowleft"	"1039"	"TRUE"	"VerticalHorizontal"	"11.785710000"	"0.2250000000"	"1"	"48"
n/a	"html-keyboard-response"	"113"	"244326"	"0.0-5.0-2.0-0.30"	"hl1zpr"	"563"	"1034"	"chrome"	"111.0.0"	"FALSE"	"Windows 10"	"60.66"	"050"	n/a	n/a	n/a	n/a	n/a	n/a	"fixation"	n/a	n/a	n/a	n/a	"NULL"	n/a	"NULL"	"NULL"	"NULL"	"<p style=\"color: black; font-size: 80px; padding-left: 18%; padding-right: 38%; padding-top: 2%; padding-bottom: 34%\">+</p>"	"1438"	n/a	n/a	n/a	n/a	n/a	n/a	n/a	n/a	n/a
n/a	"image-keyboard-response"	"114"	"244820"	"0.0-5.0-2.0-1.30"	"hl1zpr"	"563"	"1034"	"chrome"	"111.0.0"	"FALSE"	"Windows 10"	"60.66"	"050"	n/a	n/a	n/a	n/a	n/a	n/a	"Trial"	n/a	n/a	n/a	"494"	"arrowleft"	n/a	"NULL"	"NULL"	"NULL"	"stimuli/VerticalHorizontal_-28.75714_0.10960.png"	n/a	"VerticalHorizontal"	"arrowleft"	"1445"	"TRUE"	"VerticalHorizontal"	"-28.75714000"	"0.1096000000"	"1"	"49"
n/a	"html-keyboard-response"	"115"	"245918"	"0.0-5.0-2.0-0.31"	"hl1zpr"	"563"	"1034"	"chrome"	"111.0.0"	"FALSE"	"Windows 10"	"60.66"	"050"	n/a	n/a	n/a	n/a	n/a	n/a	"fixation"	n/a	n/a	n/a	n/a	"NULL"	n/a	"NULL"	"NULL"	"NULL"	"<p style=\"color: black; font-size: 80px; padding-left: 4%; padding-right: 25%; padding-top: 41%; padding-bottom: 47%\">+</p>"	"1087"	n/a	n/a	n/a	n/a	n/a	n/a	n/a	n/a	n/a
n/a	"image-keyboard-response"	"116"	"246349"	"0.0-5.0-2.0-1.31"	"hl1zpr"	"563"	"1034"	"chrome"	"111.0.0"	"FALSE"	"Windows 10"	"60.66"	"050"	n/a	n/a	n/a	n/a	n/a	n/a	"Trial"	n/a	n/a	n/a	"431"	"arrowleft"	n/a	"NULL"	"NULL"	"NULL"	"stimuli/VerticalHorizontal_-3.3000_0.22500.png"	n/a	"VerticalHorizontal"	"arrowleft"	"1098"	"TRUE"	"VerticalHorizontal"	"-3.300000000"	"0.2250000000"	"1"	"50"
n/a	"html-keyboard-response"	"117"	"247771"	"0.0-5.0-2.0-0.32"	"hl1zpr"	"563"	"1034"	"chrome"	"111.0.0"	"FALSE"	"Windows 10"	"60.66"	"050"	n/a	n/a	n/a	n/a	n/a	n/a	"fixation"	n/a	n/a	n/a	n/a	"NULL"	n/a	"NULL"	"NULL"	"NULL"	"<p style=\"color: black; font-size: 80px; padding-left: 44%; padding-right: 43%; padding-top: 43%; padding-bottom: 43%\">+</p>"	"1412"	n/a	n/a	n/a	n/a	n/a	n/a	n/a	n/a	n/a
n/a	"image-keyboard-response"	"118"	"248298"	"0.0-5.0-2.0-1.32"	"hl1zpr"	"563"	"1034"	"chrome"	"111.0.0"	"FALSE"	"Windows 10"	"60.66"	"050"	n/a	n/a	n/a	n/a	n/a	n/a	"Trial"	n/a	n/a	n/a	"523"	"arrowright"	n/a	"NULL"	"NULL"	"NULL"	"stimuli/VerticalHorizontal_20.27143_0.16217.png"	n/a	"VerticalHorizontal"	"arrowleft"	"1422"	"FALSE"	"VerticalHorizontal"	"20.271430000"	"0.1621700000"	"1"	"51"
n/a	"html-keyboard-response"	"119"	"249525"	"0.0-5.0-2.0-0.33"	"hl1zpr"	"563"	"1034"	"chrome"	"111.0.0"	"FALSE"	"Windows 10"	"60.66"	"050"	n/a	n/a	n/a	n/a	n/a	n/a	"fixation"	n/a	n/a	n/a	n/a	"NULL"	n/a	"NULL"	"NULL"	"NULL"	"<p style=\"color: black; font-size: 80px; padding-left: 49%; padding-right: 33%; padding-top: 29%; padding-bottom: 37%\">+</p>"	"1214"	n/a	n/a	n/a	n/a	n/a	n/a	n/a	n/a	n/a
n/a	"image-keyboard-response"	"120"	"250028"	"0.0-5.0-2.0-1.33"	"hl1zpr"	"563"	"1034"	"chrome"	"111.0.0"	"FALSE"	"Windows 10"	"60.66"	"050"	n/a	n/a	n/a	n/a	n/a	n/a	"Trial"	n/a	n/a	n/a	"502"	"arrowright"	n/a	"NULL"	"NULL"	"NULL"	"stimuli/VerticalHorizontal_-20.27143_-0.0673.png"	n/a	"VerticalHorizontal"	"arrowright"	"1227"	"TRUE"	"VerticalHorizontal"	"-20.27143000"	"-0.067300000"	"1"	"52"
n/a	"html-keyboard-response"	"121"	"251068"	"0.0-5.0-2.0-0.34"	"hl1zpr"	"563"	"1034"	"chrome"	"111.0.0"	"FALSE"	"Windows 10"	"60.66"	"050"	n/a	n/a	n/a	n/a	n/a	n/a	"fixation"	n/a	n/a	n/a	n/a	"NULL"	n/a	"NULL"	"NULL"	"NULL"	"<p style=\"color: black; font-size: 80px; padding-left: 23%; padding-right: 10%; padding-top: 32%; padding-bottom: 9%\">+</p>"	"1029"	n/a	n/a	n/a	n/a	n/a	n/a	n/a	n/a	n/a
n/a	"image-keyboard-response"	"122"	"251541"	"0.0-5.0-2.0-1.34"	"hl1zpr"	"563"	"1034"	"chrome"	"111.0.0"	"FALSE"	"Windows 10"	"60.66"	"050"	n/a	n/a	n/a	n/a	n/a	n/a	"Trial"	n/a	n/a	n/a	"472"	"arrowleft"	n/a	"NULL"	"NULL"	"NULL"	"stimuli/VerticalHorizontal_-28.75714_0.06730.png"	n/a	"VerticalHorizontal"	"arrowleft"	"1040"	"TRUE"	"VerticalHorizontal"	"-28.75714000"	"0.0673000000"	"1"	"53"
n/a	"html-keyboard-response"	"123"	"252738"	"0.0-5.0-2.0-0.35"	"hl1zpr"	"563"	"1034"	"chrome"	"111.0.0"	"FALSE"	"Windows 10"	"60.66"	"050"	n/a	n/a	n/a	n/a	n/a	n/a	"fixation"	n/a	n/a	n/a	n/a	"NULL"	n/a	"NULL"	"NULL"	"NULL"	"<p style=\"color: black; font-size: 80px; padding-left: 16%; padding-right: 3%; padding-top: 26%; padding-bottom: 37%\">+</p>"	"1182"	n/a	n/a	n/a	n/a	n/a	n/a	n/a	n/a	n/a
n/a	"image-keyboard-response"	"124"	"253652"	"0.0-5.0-2.0-1.35"	"hl1zpr"	"563"	"1034"	"chrome"	"111.0.0"	"FALSE"	"Windows 10"	"60.66"	"050"	n/a	n/a	n/a	n/a	n/a	n/a	"Trial"	n/a	n/a	n/a	"914"	"arrowleft"	n/a	"NULL"	"NULL"	"NULL"	"stimuli/VerticalHorizontal_-3.3000_0.16217.png"	n/a	"VerticalHorizontal"	"arrowleft"	"1197"	"TRUE"	"VerticalHorizontal"	"-3.300000000"	"0.1621700000"	"1"	"54"
n/a	"html-keyboard-response"	"125"	"254804"	"0.0-5.0-2.0-0.36"	"hl1zpr"	"563"	"1034"	"chrome"	"111.0.0"	"FALSE"	"Windows 10"	"60.66"	"050"	n/a	n/a	n/a	n/a	n/a	n/a	"fixation"	n/a	n/a	n/a	n/a	"NULL"	n/a	"NULL"	"NULL"	"NULL"	"<p style=\"color: black; font-size: 80px; padding-left: 9%; padding-right: 14%; padding-top: 47%; padding-bottom: 45%\">+</p>"	"1147"	n/a	n/a	n/a	n/a	n/a	n/a	n/a	n/a	n/a
n/a	"image-keyboard-response"	"126"	"255264"	"0.0-5.0-2.0-1.36"	"hl1zpr"	"563"	"1034"	"chrome"	"111.0.0"	"FALSE"	"Windows 10"	"60.66"	"050"	n/a	n/a	n/a	n/a	n/a	n/a	"Trial"	n/a	n/a	n/a	"460"	"arrowright"	n/a	"NULL"	"NULL"	"NULL"	"stimuli/VerticalHorizontal_-20.27143_-0.1096.png"	n/a	"VerticalHorizontal"	"arrowright"	"1152"	"TRUE"	"VerticalHorizontal"	"-20.27143000"	"-0.109600000"	"1"	"55"
n/a	"html-keyboard-response"	"127"	"256387"	"0.0-5.0-2.0-0.37"	"hl1zpr"	"563"	"1034"	"chrome"	"111.0.0"	"FALSE"	"Windows 10"	"60.66"	"050"	n/a	n/a	n/a	n/a	n/a	n/a	"fixation"	n/a	n/a	n/a	n/a	"NULL"	n/a	"NULL"	"NULL"	"NULL"	"<p style=\"color: black; font-size: 80px; padding-left: 5%; padding-right: 1%; padding-top: 5%; padding-bottom: 22%\">+</p>"	"1116"	n/a	n/a	n/a	n/a	n/a	n/a	n/a	n/a	n/a
n/a	"image-keyboard-response"	"128"	"256831"	"0.0-5.0-2.0-1.37"	"hl1zpr"	"563"	"1034"	"chrome"	"111.0.0"	"FALSE"	"Windows 10"	"60.66"	"050"	n/a	n/a	n/a	n/a	n/a	n/a	"Trial"	n/a	n/a	n/a	"443"	"arrowright"	n/a	"NULL"	"NULL"	"NULL"	"stimuli/VerticalHorizontal_-11.78571_-0.1096.png"	n/a	"VerticalHorizontal"	"arrowright"	"1123"	"TRUE"	"VerticalHorizontal"	"-11.78571000"	"-0.109600000"	"1"	"56"
n/a	"html-keyboard-response"	"129"	"258318"	"0.0-5.0-2.0-0.38"	"hl1zpr"	"563"	"1034"	"chrome"	"111.0.0"	"FALSE"	"Windows 10"	"60.66"	"050"	n/a	n/a	n/a	n/a	n/a	n/a	"fixation"	n/a	n/a	n/a	n/a	"NULL"	n/a	"NULL"	"NULL"	"NULL"	"<p style=\"color: black; font-size: 80px; padding-left: 37%; padding-right: 15%; padding-top: 39%; padding-bottom: 8%\">+</p>"	"1479"	n/a	n/a	n/a	n/a	n/a	n/a	n/a	n/a	n/a
n/a	"image-keyboard-response"	"130"	"258687"	"0.0-5.0-2.0-1.38"	"hl1zpr"	"563"	"1034"	"chrome"	"111.0.0"	"FALSE"	"Windows 10"	"60.66"	"050"	n/a	n/a	n/a	n/a	n/a	n/a	"Trial"	n/a	n/a	n/a	"368"	"arrowright"	n/a	"NULL"	"NULL"	"NULL"	"stimuli/VerticalHorizontal_28.75714_0.10960.png"	n/a	"VerticalHorizontal"	"arrowleft"	"1487"	"FALSE"	"VerticalHorizontal"	"28.757140000"	"0.1096000000"	"1"	"57"
n/a	"html-keyboard-response"	"131"	"260040"	"0.0-5.0-2.0-0.39"	"hl1zpr"	"563"	"1034"	"chrome"	"111.0.0"	"FALSE"	"Windows 10"	"60.66"	"050"	n/a	n/a	n/a	n/a	n/a	n/a	"fixation"	n/a	n/a	n/a	n/a	"NULL"	n/a	"NULL"	"NULL"	"NULL"	"<p style=\"color: black; font-size: 80px; padding-left: 28%; padding-right: 45%; padding-top: 25%; padding-bottom: 16%\">+</p>"	"1352"	n/a	n/a	n/a	n/a	n/a	n/a	n/a	n/a	n/a
n/a	"image-keyboard-response"	"132"	"260570"	"0.0-5.0-2.0-1.39"	"hl1zpr"	"563"	"1034"	"chrome"	"111.0.0"	"FALSE"	"Windows 10"	"60.66"	"050"	n/a	n/a	n/a	n/a	n/a	n/a	"Trial"	n/a	n/a	n/a	"530"	"arrowleft"	n/a	"NULL"	"NULL"	"NULL"	"stimuli/VerticalHorizontal_11.78571_-0.2250.png"	n/a	"VerticalHorizontal"	"arrowright"	"1353"	"FALSE"	"VerticalHorizontal"	"11.785710000"	"-0.225000000"	"1"	"58"
n/a	"html-keyboard-response"	"133"	"261886"	"0.0-5.0-2.0-0.40"	"hl1zpr"	"563"	"1034"	"chrome"	"111.0.0"	"FALSE"	"Windows 10"	"60.66"	"050"	n/a	n/a	n/a	n/a	n/a	n/a	"fixation"	n/a	n/a	n/a	n/a	"NULL"	n/a	"NULL"	"NULL"	"NULL"	"<p style=\"color: black; font-size: 80px; padding-left: 21%; padding-right: 29%; padding-top: 0%; padding-bottom: 36%\">+</p>"	"1313"	n/a	n/a	n/a	n/a	n/a	n/a	n/a	n/a	n/a
n/a	"image-keyboard-response"	"134"	"262531"	"0.0-5.0-2.0-1.40"	"hl1zpr"	"563"	"1034"	"chrome"	"111.0.0"	"FALSE"	"Windows 10"	"60.66"	"050"	n/a	n/a	n/a	n/a	n/a	n/a	"Trial"	n/a	n/a	n/a	"641"	"arrowright"	n/a	"NULL"	"NULL"	"NULL"	"stimuli/VerticalHorizontal_28.75714_0.06730.png"	n/a	"VerticalHorizontal"	"arrowleft"	"1316"	"FALSE"	"VerticalHorizontal"	"28.757140000"	"0.0673000000"	"1"	"59"
n/a	"html-keyboard-response"	"135"	"263762"	"0.0-5.0-2.0-0.41"	"hl1zpr"	"563"	"1034"	"chrome"	"111.0.0"	"FALSE"	"Windows 10"	"60.66"	"050"	n/a	n/a	n/a	n/a	n/a	n/a	"fixation"	n/a	n/a	n/a	n/a	"NULL"	n/a	"NULL"	"NULL"	"NULL"	"<p style=\"color: black; font-size: 80px; padding-left: 32%; padding-right: 46%; padding-top: 18%; padding-bottom: 36%\">+</p>"	"1228"	n/a	n/a	n/a	n/a	n/a	n/a	n/a	n/a	n/a
n/a	"image-keyboard-response"	"136"	"264315"	"0.0-5.0-2.0-1.41"	"hl1zpr"	"563"	"1034"	"chrome"	"111.0.0"	"FALSE"	"Windows 10"	"60.66"	"050"	n/a	n/a	n/a	n/a	n/a	n/a	"Trial"	n/a	n/a	n/a	"552"	"arrowright"	n/a	"NULL"	"NULL"	"NULL"	"stimuli/VerticalHorizontal_3.30000_-0.0673.png"	n/a	"VerticalHorizontal"	"arrowright"	"1231"	"TRUE"	"VerticalHorizontal"	"3.3000000000"	"-0.067300000"	"1"	"60"
n/a	"html-keyboard-response"	"137"	"265652"	"0.0-5.0-2.0-0.42"	"hl1zpr"	"563"	"1034"	"chrome"	"111.0.0"	"FALSE"	"Windows 10"	"60.66"	"050"	n/a	n/a	n/a	n/a	n/a	n/a	"fixation"	n/a	n/a	n/a	n/a	"NULL"	n/a	"NULL"	"NULL"	"NULL"	"<p style=\"color: black; font-size: 80px; padding-left: 17%; padding-right: 24%; padding-top: 8%; padding-bottom: 31%\">+</p>"	"1327"	n/a	n/a	n/a	n/a	n/a	n/a	n/a	n/a	n/a
n/a	"image-keyboard-response"	"138"	"266194"	"0.0-5.0-2.0-1.42"	"hl1zpr"	"563"	"1034"	"chrome"	"111.0.0"	"FALSE"	"Windows 10"	"60.66"	"050"	n/a	n/a	n/a	n/a	n/a	n/a	"Trial"	n/a	n/a	n/a	"540"	"arrowright"	n/a	"NULL"	"NULL"	"NULL"	"stimuli/VerticalHorizontal_-11.78571_-0.0673.png"	n/a	"VerticalHorizontal"	"arrowright"	"1337"	"TRUE"	"VerticalHorizontal"	"-11.78571000"	"-0.067300000"	"1"	"61"
n/a	"html-keyboard-response"	"139"	"267482"	"0.0-5.0-2.0-0.43"	"hl1zpr"	"563"	"1034"	"chrome"	"111.0.0"	"FALSE"	"Windows 10"	"60.66"	"050"	n/a	n/a	n/a	n/a	n/a	n/a	"fixation"	n/a	n/a	n/a	n/a	"NULL"	n/a	"NULL"	"NULL"	"NULL"	"<p style=\"color: black; font-size: 80px; padding-left: 3%; padding-right: 23%; padding-top: 1%; padding-bottom: 20%\">+</p>"	"1275"	n/a	n/a	n/a	n/a	n/a	n/a	n/a	n/a	n/a
n/a	"image-keyboard-response"	"140"	"267987"	"0.0-5.0-2.0-1.43"	"hl1zpr"	"563"	"1034"	"chrome"	"111.0.0"	"FALSE"	"Windows 10"	"60.66"	"050"	n/a	n/a	n/a	n/a	n/a	n/a	"Trial"	n/a	n/a	n/a	"505"	"arrowright"	n/a	"NULL"	"NULL"	"NULL"	"stimuli/VerticalHorizontal_-3.3000_-0.2250.png"	n/a	"VerticalHorizontal"	"arrowright"	"1288"	"TRUE"	"VerticalHorizontal"	"-3.300000000"	"-0.225000000"	"1"	"62"
n/a	"html-keyboard-response"	"141"	"269098"	"0.0-5.0-2.0-0.44"	"hl1zpr"	"563"	"1034"	"chrome"	"111.0.0"	"FALSE"	"Windows 10"	"60.66"	"050"	n/a	n/a	n/a	n/a	n/a	n/a	"fixation"	n/a	n/a	n/a	n/a	"NULL"	n/a	"NULL"	"NULL"	"NULL"	"<p style=\"color: black; font-size: 80px; padding-left: 9%; padding-right: 15%; padding-top: 34%; padding-bottom: 12%\">+</p>"	"1099"	n/a	n/a	n/a	n/a	n/a	n/a	n/a	n/a	n/a
n/a	"image-keyboard-response"	"142"	"269994"	"0.0-5.0-2.0-1.44"	"hl1zpr"	"563"	"1034"	"chrome"	"111.0.0"	"FALSE"	"Windows 10"	"60.66"	"050"	n/a	n/a	n/a	n/a	n/a	n/a	"Trial"	n/a	n/a	n/a	"894"	"arrowright"	n/a	"NULL"	"NULL"	"NULL"	"stimuli/VerticalHorizontal_20.27143_-0.1096.png"	n/a	"VerticalHorizontal"	"arrowright"	"1111"	"TRUE"	"VerticalHorizontal"	"20.271430000"	"-0.109600000"	"1"	"63"
n/a	"html-keyboard-response"	"143"	"271472"	"0.0-5.0-2.0-0.45"	"hl1zpr"	"563"	"1034"	"chrome"	"111.0.0"	"FALSE"	"Windows 10"	"60.66"	"050"	n/a	n/a	n/a	n/a	n/a	n/a	"fixation"	n/a	n/a	n/a	n/a	"NULL"	n/a	"NULL"	"NULL"	"NULL"	"<p style=\"color: black; font-size: 80px; padding-left: 45%; padding-right: 20%; padding-top: 38%; padding-bottom: 47%\">+</p>"	"1474"	n/a	n/a	n/a	n/a	n/a	n/a	n/a	n/a	n/a
n/a	"image-keyboard-response"	"144"	"272452"	"0.0-5.0-2.0-1.45"	"hl1zpr"	"563"	"1034"	"chrome"	"111.0.0"	"FALSE"	"Windows 10"	"60.66"	"050"	n/a	n/a	n/a	n/a	n/a	n/a	"Trial"	n/a	n/a	n/a	"979"	"arrowleft"	n/a	"NULL"	"NULL"	"NULL"	"stimuli/VerticalHorizontal_3.30000_0.16217.png"	n/a	"VerticalHorizontal"	"arrowleft"	"1478"	"TRUE"	"VerticalHorizontal"	"3.3000000000"	"0.1621700000"	"1"	"64"
n/a	"html-keyboard-response"	"145"	"273606"	"0.0-5.0-2.0-0.46"	"hl1zpr"	"563"	"1034"	"chrome"	"111.0.0"	"FALSE"	"Windows 10"	"60.66"	"050"	n/a	n/a	n/a	n/a	n/a	n/a	"fixation"	n/a	n/a	n/a	n/a	"NULL"	n/a	"NULL"	"NULL"	"NULL"	"<p style=\"color: black; font-size: 80px; padding-left: 27%; padding-right: 23%; padding-top: 38%; padding-bottom: 5%\">+</p>"	"1146"	n/a	n/a	n/a	n/a	n/a	n/a	n/a	n/a	n/a
n/a	"image-keyboard-response"	"146"	"274203"	"0.0-5.0-2.0-1.46"	"hl1zpr"	"563"	"1034"	"chrome"	"111.0.0"	"FALSE"	"Windows 10"	"60.66"	"050"	n/a	n/a	n/a	n/a	n/a	n/a	"Trial"	n/a	n/a	n/a	"597"	"arrowright"	n/a	"NULL"	"NULL"	"NULL"	"stimuli/VerticalHorizontal_-28.75714_-0.2250.png"	n/a	"VerticalHorizontal"	"arrowright"	"1154"	"TRUE"	"VerticalHorizontal"	"-28.75714000"	"-0.225000000"	"1"	"65"
n/a	"html-keyboard-response"	"147"	"275612"	"0.0-5.0-2.0-0.47"	"hl1zpr"	"563"	"1034"	"chrome"	"111.0.0"	"FALSE"	"Windows 10"	"60.66"	"050"	n/a	n/a	n/a	n/a	n/a	n/a	"fixation"	n/a	n/a	n/a	n/a	"NULL"	n/a	"NULL"	"NULL"	"NULL"	"<p style=\"color: black; font-size: 80px; padding-left: 47%; padding-right: 46%; padding-top: 50%; padding-bottom: 40%\">+</p>"	"1393"	n/a	n/a	n/a	n/a	n/a	n/a	n/a	n/a	n/a
n/a	"image-keyboard-response"	"148"	"276515"	"0.0-5.0-2.0-1.47"	"hl1zpr"	"563"	"1034"	"chrome"	"111.0.0"	"FALSE"	"Windows 10"	"60.66"	"050"	n/a	n/a	n/a	n/a	n/a	n/a	"Trial"	n/a	n/a	n/a	"903"	"arrowleft"	n/a	"NULL"	"NULL"	"NULL"	"stimuli/VerticalHorizontal_-11.78571_0.22500.png"	n/a	"VerticalHorizontal"	"arrowleft"	"1409"	"TRUE"	"VerticalHorizontal"	"-11.78571000"	"0.2250000000"	"1"	"66"
n/a	"html-keyboard-response"	"149"	"277918"	"0.0-5.0-2.0-0.48"	"hl1zpr"	"563"	"1034"	"chrome"	"111.0.0"	"FALSE"	"Windows 10"	"60.66"	"050"	n/a	n/a	n/a	n/a	n/a	n/a	"fixation"	n/a	n/a	n/a	n/a	"NULL"	n/a	"NULL"	"NULL"	"NULL"	"<p style=\"color: black; font-size: 80px; padding-left: 40%; padding-right: 47%; padding-top: 16%; padding-bottom: 43%\">+</p>"	"1396"	n/a	n/a	n/a	n/a	n/a	n/a	n/a	n/a	n/a
n/a	"image-keyboard-response"	"150"	"278832"	"0.0-5.0-2.0-1.48"	"hl1zpr"	"563"	"1034"	"chrome"	"111.0.0"	"FALSE"	"Windows 10"	"60.66"	"050"	n/a	n/a	n/a	n/a	n/a	n/a	"Trial"	n/a	n/a	n/a	"913"	"arrowleft"	n/a	"NULL"	"NULL"	"NULL"	"stimuli/VerticalHorizontal_-20.27143_0.16217.png"	n/a	"VerticalHorizontal"	"arrowleft"	"1403"	"TRUE"	"VerticalHorizontal"	"-20.27143000"	"0.1621700000"	"1"	"67"
n/a	"html-keyboard-response"	"151"	"280295"	"0.0-5.0-2.0-0.49"	"hl1zpr"	"563"	"1034"	"chrome"	"111.0.0"	"FALSE"	"Windows 10"	"60.66"	"050"	n/a	n/a	n/a	n/a	n/a	n/a	"fixation"	n/a	n/a	n/a	n/a	"NULL"	n/a	"NULL"	"NULL"	"NULL"	"<p style=\"color: black; font-size: 80px; padding-left: 39%; padding-right: 4%; padding-top: 5%; padding-bottom: 48%\">+</p>"	"1447"	n/a	n/a	n/a	n/a	n/a	n/a	n/a	n/a	n/a
n/a	"image-keyboard-response"	"152"	"281013"	"0.0-5.0-2.0-1.49"	"hl1zpr"	"563"	"1034"	"chrome"	"111.0.0"	"FALSE"	"Windows 10"	"60.66"	"050"	n/a	n/a	n/a	n/a	n/a	n/a	"Trial"	n/a	n/a	n/a	"715"	"arrowright"	n/a	"NULL"	"NULL"	"NULL"	"stimuli/VerticalHorizontal_11.78571_0.06730.png"	n/a	"VerticalHorizontal"	"arrowleft"	"1463"	"FALSE"	"VerticalHorizontal"	"11.785710000"	"0.0673000000"	"1"	"68"
n/a	"html-keyboard-response"	"153"	"282110"	"0.0-5.0-2.0-0.50"	"hl1zpr"	"563"	"1034"	"chrome"	"111.0.0"	"FALSE"	"Windows 10"	"60.66"	"050"	n/a	n/a	n/a	n/a	n/a	n/a	"fixation"	n/a	n/a	n/a	n/a	"NULL"	n/a	"NULL"	"NULL"	"NULL"	"<p style=\"color: black; font-size: 80px; padding-left: 29%; padding-right: 47%; padding-top: 41%; padding-bottom: 10%\">+</p>"	"1089"	n/a	n/a	n/a	n/a	n/a	n/a	n/a	n/a	n/a
n/a	"image-keyboard-response"	"154"	"282839"	"0.0-5.0-2.0-1.50"	"hl1zpr"	"563"	"1034"	"chrome"	"111.0.0"	"FALSE"	"Windows 10"	"60.66"	"050"	n/a	n/a	n/a	n/a	n/a	n/a	"Trial"	n/a	n/a	n/a	"728"	"arrowleft"	n/a	"NULL"	"NULL"	"NULL"	"stimuli/VerticalHorizontal_-20.27143_0.22500.png"	n/a	"VerticalHorizontal"	"arrowleft"	"1097"	"TRUE"	"VerticalHorizontal"	"-20.27143000"	"0.2250000000"	"1"	"69"
n/a	"html-keyboard-response"	"155"	"284303"	"0.0-5.0-2.0-0.51"	"hl1zpr"	"563"	"1034"	"chrome"	"111.0.0"	"FALSE"	"Windows 10"	"60.66"	"050"	n/a	n/a	n/a	n/a	n/a	n/a	"fixation"	n/a	n/a	n/a	n/a	"NULL"	n/a	"NULL"	"NULL"	"NULL"	"<p style=\"color: black; font-size: 80px; padding-left: 18%; padding-right: 34%; padding-top: 30%; padding-bottom: 48%\">+</p>"	"1458"	n/a	n/a	n/a	n/a	n/a	n/a	n/a	n/a	n/a
n/a	"image-keyboard-response"	"156"	"284963"	"0.0-5.0-2.0-1.51"	"hl1zpr"	"563"	"1034"	"chrome"	"111.0.0"	"FALSE"	"Windows 10"	"60.66"	"050"	n/a	n/a	n/a	n/a	n/a	n/a	"Trial"	n/a	n/a	n/a	"659"	"arrowright"	n/a	"NULL"	"NULL"	"NULL"	"stimuli/VerticalHorizontal_-3.3000_-0.1096.png"	n/a	"VerticalHorizontal"	"arrowright"	"1464"	"TRUE"	"VerticalHorizontal"	"-3.300000000"	"-0.109600000"	"1"	"70"
n/a	"html-keyboard-response"	"157"	"286147"	"0.0-5.0-2.0-0.52"	"hl1zpr"	"563"	"1034"	"chrome"	"111.0.0"	"FALSE"	"Windows 10"	"60.66"	"050"	n/a	n/a	n/a	n/a	n/a	n/a	"fixation"	n/a	n/a	n/a	n/a	"NULL"	n/a	"NULL"	"NULL"	"NULL"	"<p style=\"color: black; font-size: 80px; padding-left: 25%; padding-right: 29%; padding-top: 3%; padding-bottom: 27%\">+</p>"	"1177"	n/a	n/a	n/a	n/a	n/a	n/a	n/a	n/a	n/a
n/a	"image-keyboard-response"	"158"	"286628"	"0.0-5.0-2.0-1.52"	"hl1zpr"	"563"	"1034"	"chrome"	"111.0.0"	"FALSE"	"Windows 10"	"60.66"	"050"	n/a	n/a	n/a	n/a	n/a	n/a	"Trial"	n/a	n/a	n/a	"481"	"arrowright"	n/a	"NULL"	"NULL"	"NULL"	"stimuli/VerticalHorizontal_28.75714_0.16217.png"	n/a	"VerticalHorizontal"	"arrowleft"	"1184"	"FALSE"	"VerticalHorizontal"	"28.757140000"	"0.1621700000"	"1"	"71"
n/a	"html-keyboard-response"	"159"	"287646"	"0.0-5.0-2.0-0.53"	"hl1zpr"	"563"	"1034"	"chrome"	"111.0.0"	"FALSE"	"Windows 10"	"60.66"	"050"	n/a	n/a	n/a	n/a	n/a	n/a	"fixation"	n/a	n/a	n/a	n/a	"NULL"	n/a	"NULL"	"NULL"	"NULL"	"<p style=\"color: black; font-size: 80px; padding-left: 9%; padding-right: 33%; padding-top: 11%; padding-bottom: 3%\">+</p>"	"1005"	n/a	n/a	n/a	n/a	n/a	n/a	n/a	n/a	n/a
n/a	"image-keyboard-response"	"160"	"288317"	"0.0-5.0-2.0-1.53"	"hl1zpr"	"563"	"1034"	"chrome"	"111.0.0"	"FALSE"	"Windows 10"	"60.66"	"050"	n/a	n/a	n/a	n/a	n/a	n/a	"Trial"	n/a	n/a	n/a	"671"	"arrowright"	n/a	"NULL"	"NULL"	"NULL"	"stimuli/VerticalHorizontal_11.78571_0.10960.png"	n/a	"VerticalHorizontal"	"arrowleft"	"1018"	"FALSE"	"VerticalHorizontal"	"11.785710000"	"0.1096000000"	"1"	"72"
n/a	"html-keyboard-response"	"161"	"289571"	"0.0-5.0-2.0-0.54"	"hl1zpr"	"563"	"1034"	"chrome"	"111.0.0"	"FALSE"	"Windows 10"	"60.66"	"050"	n/a	n/a	n/a	n/a	n/a	n/a	"fixation"	n/a	n/a	n/a	n/a	"NULL"	n/a	"NULL"	"NULL"	"NULL"	"<p style=\"color: black; font-size: 80px; padding-left: 24%; padding-right: 29%; padding-top: 29%; padding-bottom: 13%\">+</p>"	"1245"	n/a	n/a	n/a	n/a	n/a	n/a	n/a	n/a	n/a
n/a	"image-keyboard-response"	"162"	"290255"	"0.0-5.0-2.0-1.54"	"hl1zpr"	"563"	"1034"	"chrome"	"111.0.0"	"FALSE"	"Windows 10"	"60.66"	"050"	n/a	n/a	n/a	n/a	n/a	n/a	"Trial"	n/a	n/a	n/a	"684"	"arrowleft"	n/a	"NULL"	"NULL"	"NULL"	"stimuli/VerticalHorizontal_20.27143_-0.16217.png"	n/a	"VerticalHorizontal"	"arrowright"	"1254"	"FALSE"	"VerticalHorizontal"	"20.271430000"	"-0.162170000"	"1"	"73"
n/a	"html-keyboard-response"	"163"	"291655"	"0.0-5.0-2.0-0.55"	"hl1zpr"	"563"	"1034"	"chrome"	"111.0.0"	"FALSE"	"Windows 10"	"60.66"	"050"	n/a	n/a	n/a	n/a	n/a	n/a	"fixation"	n/a	n/a	n/a	n/a	"NULL"	n/a	"NULL"	"NULL"	"NULL"	"<p style=\"color: black; font-size: 80px; padding-left: 26%; padding-right: 29%; padding-top: 44%; padding-bottom: 2%\">+</p>"	"1388"	n/a	n/a	n/a	n/a	n/a	n/a	n/a	n/a	n/a
n/a	"image-keyboard-response"	"164"	"292075"	"0.0-5.0-2.0-1.55"	"hl1zpr"	"563"	"1034"	"chrome"	"111.0.0"	"FALSE"	"Windows 10"	"60.66"	"050"	n/a	n/a	n/a	n/a	n/a	n/a	"Trial"	n/a	n/a	n/a	"420"	"arrowright"	n/a	"NULL"	"NULL"	"NULL"	"stimuli/VerticalHorizontal_28.75714_0.22500.png"	n/a	"VerticalHorizontal"	"arrowleft"	"1400"	"FALSE"	"VerticalHorizontal"	"28.757140000"	"0.2250000000"	"1"	"74"
n/a	"html-keyboard-response"	"165"	"293387"	"0.0-5.0-2.0-0.56"	"hl1zpr"	"563"	"1034"	"chrome"	"111.0.0"	"FALSE"	"Windows 10"	"60.66"	"050"	n/a	n/a	n/a	n/a	n/a	n/a	"fixation"	n/a	n/a	n/a	n/a	"NULL"	n/a	"NULL"	"NULL"	"NULL"	"<p style=\"color: black; font-size: 80px; padding-left: 5%; padding-right: 28%; padding-top: 7%; padding-bottom: 5%\">+</p>"	"1311"	n/a	n/a	n/a	n/a	n/a	n/a	n/a	n/a	n/a
n/a	"image-keyboard-response"	"166"	"294195"	"0.0-5.0-2.0-1.56"	"hl1zpr"	"563"	"1034"	"chrome"	"111.0.0"	"FALSE"	"Windows 10"	"60.66"	"050"	n/a	n/a	n/a	n/a	n/a	n/a	"Trial"	n/a	n/a	n/a	"807"	"arrowright"	n/a	"NULL"	"NULL"	"NULL"	"stimuli/VerticalHorizontal_28.75714_-0.1096.png"	n/a	"VerticalHorizontal"	"arrowright"	"1312"	"TRUE"	"VerticalHorizontal"	"28.757140000"	"-0.109600000"	"1"	"75"
n/a	"html-keyboard-response"	"167"	"295457"	"0.0-5.0-2.0-0.57"	"hl1zpr"	"563"	"1034"	"chrome"	"111.0.0"	"FALSE"	"Windows 10"	"60.66"	"050"	n/a	n/a	n/a	n/a	n/a	n/a	"fixation"	n/a	n/a	n/a	n/a	"NULL"	n/a	"NULL"	"NULL"	"NULL"	"<p style=\"color: black; font-size: 80px; padding-left: 29%; padding-right: 43%; padding-top: 33%; padding-bottom: 21%\">+</p>"	"1251"	n/a	n/a	n/a	n/a	n/a	n/a	n/a	n/a	n/a
n/a	"image-keyboard-response"	"168"	"296034"	"0.0-5.0-2.0-1.57"	"hl1zpr"	"563"	"1034"	"chrome"	"111.0.0"	"FALSE"	"Windows 10"	"60.66"	"050"	n/a	n/a	n/a	n/a	n/a	n/a	"Trial"	n/a	n/a	n/a	"576"	"arrowleft"	n/a	"NULL"	"NULL"	"NULL"	"stimuli/VerticalHorizontal_-11.78571_0.10960.png"	n/a	"VerticalHorizontal"	"arrowleft"	"1262"	"TRUE"	"VerticalHorizontal"	"-11.78571000"	"0.1096000000"	"1"	"76"
n/a	"html-keyboard-response"	"169"	"297380"	"0.0-5.0-2.0-0.58"	"hl1zpr"	"563"	"1034"	"chrome"	"111.0.0"	"FALSE"	"Windows 10"	"60.66"	"050"	n/a	n/a	n/a	n/a	n/a	n/a	"fixation"	n/a	n/a	n/a	n/a	"NULL"	n/a	"NULL"	"NULL"	"NULL"	"<p style=\"color: black; font-size: 80px; padding-left: 10%; padding-right: 15%; padding-top: 13%; padding-bottom: 25%\">+</p>"	"1331"	n/a	n/a	n/a	n/a	n/a	n/a	n/a	n/a	n/a
n/a	"image-keyboard-response"	"170"	"297924"	"0.0-5.0-2.0-1.58"	"hl1zpr"	"563"	"1034"	"chrome"	"111.0.0"	"FALSE"	"Windows 10"	"60.66"	"050"	n/a	n/a	n/a	n/a	n/a	n/a	"Trial"	n/a	n/a	n/a	"543"	"arrowright"	n/a	"NULL"	"NULL"	"NULL"	"stimuli/VerticalHorizontal_28.75714_-0.2250.png"	n/a	"VerticalHorizontal"	"arrowright"	"1346"	"TRUE"	"VerticalHorizontal"	"28.757140000"	"-0.225000000"	"1"	"77"
n/a	"html-keyboard-response"	"171"	"299334"	"0.0-5.0-2.0-0.59"	"hl1zpr"	"563"	"1034"	"chrome"	"111.0.0"	"FALSE"	"Windows 10"	"60.66"	"050"	n/a	n/a	n/a	n/a	n/a	n/a	"fixation"	n/a	n/a	n/a	n/a	"NULL"	n/a	"NULL"	"NULL"	"NULL"	"<p style=\"color: black; font-size: 80px; padding-left: 11%; padding-right: 1%; padding-top: 47%; padding-bottom: 20%\">+</p>"	"1397"	n/a	n/a	n/a	n/a	n/a	n/a	n/a	n/a	n/a
n/a	"image-keyboard-response"	"172"	"299897"	"0.0-5.0-2.0-1.59"	"hl1zpr"	"563"	"1034"	"chrome"	"111.0.0"	"FALSE"	"Windows 10"	"60.66"	"050"	n/a	n/a	n/a	n/a	n/a	n/a	"Trial"	n/a	n/a	n/a	"562"	"arrowleft"	n/a	"NULL"	"NULL"	"NULL"	"stimuli/VerticalHorizontal_-11.78571_0.16217.png"	n/a	"VerticalHorizontal"	"arrowleft"	"1410"	"TRUE"	"VerticalHorizontal"	"-11.78571000"	"0.1621700000"	"1"	"78"
n/a	"html-keyboard-response"	"173"	"301180"	"0.0-5.0-2.0-0.60"	"hl1zpr"	"563"	"1034"	"chrome"	"111.0.0"	"FALSE"	"Windows 10"	"60.66"	"050"	n/a	n/a	n/a	n/a	n/a	n/a	"fixation"	n/a	n/a	n/a	n/a	"NULL"	n/a	"NULL"	"NULL"	"NULL"	"<p style=\"color: black; font-size: 80px; padding-left: 27%; padding-right: 12%; padding-top: 9%; padding-bottom: 49%\">+</p>"	"1275"	n/a	n/a	n/a	n/a	n/a	n/a	n/a	n/a	n/a
n/a	"image-keyboard-response"	"174"	"301986"	"0.0-5.0-2.0-1.60"	"hl1zpr"	"563"	"1034"	"chrome"	"111.0.0"	"FALSE"	"Windows 10"	"60.66"	"050"	n/a	n/a	n/a	n/a	n/a	n/a	"Trial"	n/a	n/a	n/a	"806"	"arrowleft"	n/a	"NULL"	"NULL"	"NULL"	"stimuli/VerticalHorizontal_11.78571_0.16217.png"	n/a	"VerticalHorizontal"	"arrowleft"	"1283"	"TRUE"	"VerticalHorizontal"	"11.785710000"	"0.1621700000"	"1"	"79"
n/a	"html-keyboard-response"	"175"	"303256"	"0.0-5.0-2.0-0.61"	"hl1zpr"	"563"	"1034"	"chrome"	"111.0.0"	"FALSE"	"Windows 10"	"60.66"	"050"	n/a	n/a	n/a	n/a	n/a	n/a	"fixation"	n/a	n/a	n/a	n/a	"NULL"	n/a	"NULL"	"NULL"	"NULL"	"<p style=\"color: black; font-size: 80px; padding-left: 28%; padding-right: 19%; padding-top: 18%; padding-bottom: 38%\">+</p>"	"1259"	n/a	n/a	n/a	n/a	n/a	n/a	n/a	n/a	n/a
n/a	"image-keyboard-response"	"176"	"303905"	"0.0-5.0-2.0-1.61"	"hl1zpr"	"563"	"1034"	"chrome"	"111.0.0"	"FALSE"	"Windows 10"	"60.66"	"050"	n/a	n/a	n/a	n/a	n/a	n/a	"Trial"	n/a	n/a	n/a	"648"	"arrowleft"	n/a	"NULL"	"NULL"	"NULL"	"stimuli/VerticalHorizontal_3.30000_-0.1096.png"	n/a	"VerticalHorizontal"	"arrowright"	"1270"	"FALSE"	"VerticalHorizontal"	"3.3000000000"	"-0.109600000"	"1"	"80"
n/a	"html-keyboard-response"	"177"	"305082"	"0.0-5.0-2.0-0.62"	"hl1zpr"	"563"	"1034"	"chrome"	"111.0.0"	"FALSE"	"Windows 10"	"60.66"	"050"	n/a	n/a	n/a	n/a	n/a	n/a	"fixation"	n/a	n/a	n/a	n/a	"NULL"	n/a	"NULL"	"NULL"	"NULL"	"<p style=\"color: black; font-size: 80px; padding-left: 14%; padding-right: 9%; padding-top: 41%; padding-bottom: 15%\">+</p>"	"1175"	n/a	n/a	n/a	n/a	n/a	n/a	n/a	n/a	n/a
n/a	"image-keyboard-response"	"178"	"305606"	"0.0-5.0-2.0-1.62"	"hl1zpr"	"563"	"1034"	"chrome"	"111.0.0"	"FALSE"	"Windows 10"	"60.66"	"050"	n/a	n/a	n/a	n/a	n/a	n/a	"Trial"	n/a	n/a	n/a	"523"	"arrowleft"	n/a	"NULL"	"NULL"	"NULL"	"stimuli/VerticalHorizontal_-20.27143_0.10960.png"	n/a	"VerticalHorizontal"	"arrowleft"	"1177"	"TRUE"	"VerticalHorizontal"	"-20.27143000"	"0.1096000000"	"1"	"81"
n/a	"html-keyboard-response"	"179"	"306928"	"0.0-5.0-2.0-0.63"	"hl1zpr"	"563"	"1034"	"chrome"	"111.0.0"	"FALSE"	"Windows 10"	"60.66"	"050"	n/a	n/a	n/a	n/a	n/a	n/a	"fixation"	n/a	n/a	n/a	n/a	"NULL"	n/a	"NULL"	"NULL"	"NULL"	"<p style=\"color: black; font-size: 80px; padding-left: 36%; padding-right: 29%; padding-top: 18%; padding-bottom: 17%\">+</p>"	"1320"	n/a	n/a	n/a	n/a	n/a	n/a	n/a	n/a	n/a
n/a	"image-keyboard-response"	"180"	"307543"	"0.0-5.0-2.0-1.63"	"hl1zpr"	"563"	"1034"	"chrome"	"111.0.0"	"FALSE"	"Windows 10"	"60.66"	"050"	n/a	n/a	n/a	n/a	n/a	n/a	"Trial"	n/a	n/a	n/a	"614"	"arrowright"	n/a	"NULL"	"NULL"	"NULL"	"stimuli/VerticalHorizontal_20.27143_0.10960.png"	n/a	"VerticalHorizontal"	"arrowleft"	"1322"	"FALSE"	"VerticalHorizontal"	"20.271430000"	"0.1096000000"	"1"	"82"
n/a	"html-button-response"	"181"	"328035"	"0.0-5.0-3.0"	"hl1zpr"	"563"	"1034"	"chrome"	"111.0.0"	"FALSE"	"Windows 10"	"60.66"	"050"	n/a	n/a	n/a	n/a	n/a	n/a	"block_results"	n/a	n/a	n/a	"20490"	"0"	n/a	"NULL"	"NULL"	"NULL"	"<p>Your score for this illusion is <p style=\"color: black; font-size: 48px; font-weight: bold;\">78.6 %</p><hr><p>Can you do better in the next illusion?</p>"	n/a	n/a	n/a	n/a	n/a	n/a	n/a	n/a	n/a	n/a
"TRUE"	"preload"	"182"	"328262"	"0.0-6.0-0.0"	"hl1zpr"	"563"	"1034"	"chrome"	"111.0.0"	"FALSE"	"Windows 10"	"60.66"	"050"	n/a	n/a	n/a	n/a	n/a	n/a	n/a	n/a	n/a	n/a	n/a	"NULL"	"FALSE"	"list()"	"list()"	"list()"	n/a	n/a	n/a	n/a	n/a	n/a	n/a	n/a	n/a	n/a	n/a
n/a	"html-keyboard-response"	"183"	"331510"	"0.0-6.0-1.0"	"hl1zpr"	"563"	"1034"	"chrome"	"111.0.0"	"FALSE"	"Windows 10"	"60.66"	"050"	n/a	n/a	n/a	n/a	n/a	n/a	n/a	n/a	n/a	n/a	"3247"	"enter"	n/a	"NULL"	"NULL"	"NULL"	"<p><b>Part 2/6</b></p><p>In this part, two red circles will appear side by side on the screen.</p><p>Your task is to select which <b>red circle is bigger</b> in size as fast as you can, without making errors.</p><p>Don't get distracted by the surrounding black circles around the red circles!</p><p>Press <b>the LEFT or the RIGHT arrow</b> to indicate which is the bigger <b>red circle.</b></p><div style='float: center'><img src='materials/instructions/Ebbinghaus_Demo.png' height='300'></img><p><img src='utils/answer/answer_leftright_keyboard.PNG' height='150'></img></p><p class='small'>In this example, the correct answer is the <b>LEFT arrow</b>.</p></div><p>Are you ready? <b>Press ENTER to start</b></p>"	n/a	n/a	n/a	n/a	n/a	n/a	n/a	n/a	n/a	n/a
n/a	"html-keyboard-response"	"184"	"333373"	"0.0-6.0-2.0-0.0"	"hl1zpr"	"563"	"1034"	"chrome"	"111.0.0"	"FALSE"	"Windows 10"	"60.66"	"050"	n/a	n/a	n/a	n/a	n/a	n/a	"fixation"	n/a	n/a	n/a	n/a	"NULL"	n/a	"NULL"	"NULL"	"NULL"	"<p style=\"color: black; font-size: 80px; padding-left: 48%; padding-right: 25%; padding-top: 24%; padding-bottom: 7%\">+</p>"	"1348"	n/a	n/a	n/a	n/a	n/a	n/a	n/a	n/a	n/a
n/a	"image-keyboard-response"	"185"	"334477"	"0.0-6.0-2.0-1.0"	"hl1zpr"	"563"	"1034"	"chrome"	"111.0.0"	"FALSE"	"Windows 10"	"60.66"	"050"	n/a	n/a	n/a	n/a	n/a	n/a	"Trial"	n/a	n/a	n/a	"1103"	"arrowleft"	n/a	"NULL"	"NULL"	"NULL"	"stimuli/Ebbinghaus_-0.61429_-0.2150.png"	n/a	"Ebbinghaus"	"arrowright"	"1863"	"FALSE"	"Ebbinghaus"	"-0.614290000"	"-0.215000000"	"2"	"1"
n/a	"html-keyboard-response"	"186"	"335518"	"0.0-6.0-2.0-0.1"	"hl1zpr"	"563"	"1034"	"chrome"	"111.0.0"	"FALSE"	"Windows 10"	"60.66"	"050"	n/a	n/a	n/a	n/a	n/a	n/a	"fixation"	n/a	n/a	n/a	n/a	"NULL"	n/a	"NULL"	"NULL"	"NULL"	"<p style=\"color: black; font-size: 80px; padding-left: 13%; padding-right: 37%; padding-top: 29%; padding-bottom: 36%\">+</p>"	"1026"	n/a	n/a	n/a	n/a	n/a	n/a	n/a	n/a	n/a
n/a	"image-keyboard-response"	"187"	"336062"	"0.0-6.0-2.0-1.1"	"hl1zpr"	"563"	"1034"	"chrome"	"111.0.0"	"FALSE"	"Windows 10"	"60.66"	"050"	n/a	n/a	n/a	n/a	n/a	n/a	"Trial"	n/a	n/a	n/a	"543"	"arrowright"	n/a	"NULL"	"NULL"	"NULL"	"stimuli/Ebbinghaus_0.35714_-0.2800.png"	n/a	"Ebbinghaus"	"arrowright"	"1041"	"TRUE"	"Ebbinghaus"	"0.3571400000"	"-0.280000000"	"2"	"2"
n/a	"html-keyboard-response"	"188"	"337545"	"0.0-6.0-2.0-0.2"	"hl1zpr"	"563"	"1034"	"chrome"	"111.0.0"	"FALSE"	"Windows 10"	"60.66"	"050"	n/a	n/a	n/a	n/a	n/a	n/a	"fixation"	n/a	n/a	n/a	n/a	"NULL"	n/a	"NULL"	"NULL"	"NULL"	"<p style=\"color: black; font-size: 80px; padding-left: 7%; padding-right: 24%; padding-top: 21%; padding-bottom: 44%\">+</p>"	"1473"	n/a	n/a	n/a	n/a	n/a	n/a	n/a	n/a	n/a
n/a	"image-keyboard-response"	"189"	"338064"	"0.0-6.0-2.0-1.2"	"hl1zpr"	"563"	"1034"	"chrome"	"111.0.0"	"FALSE"	"Windows 10"	"60.66"	"050"	n/a	n/a	n/a	n/a	n/a	n/a	"Trial"	n/a	n/a	n/a	"518"	"arrowleft"	n/a	"NULL"	"NULL"	"NULL"	"stimuli/Ebbinghaus_0.87143_0.21500.png"	n/a	"Ebbinghaus"	"arrowleft"	"1483"	"TRUE"	"Ebbinghaus"	"0.8714300000"	"0.2150000000"	"2"	"3"
n/a	"html-keyboard-response"	"190"	"339535"	"0.0-6.0-2.0-0.3"	"hl1zpr"	"563"	"1034"	"chrome"	"111.0.0"	"FALSE"	"Windows 10"	"60.66"	"050"	n/a	n/a	n/a	n/a	n/a	n/a	"fixation"	n/a	n/a	n/a	n/a	"NULL"	n/a	"NULL"	"NULL"	"NULL"	"<p style=\"color: black; font-size: 80px; padding-left: 41%; padding-right: 19%; padding-top: 33%; padding-bottom: 18%\">+</p>"	"1470"	n/a	n/a	n/a	n/a	n/a	n/a	n/a	n/a	n/a
n/a	"image-keyboard-response"	"191"	"340014"	"0.0-6.0-2.0-1.3"	"hl1zpr"	"563"	"1034"	"chrome"	"111.0.0"	"FALSE"	"Windows 10"	"60.66"	"050"	n/a	n/a	n/a	n/a	n/a	n/a	"Trial"	n/a	n/a	n/a	"478"	"arrowright"	n/a	"NULL"	"NULL"	"NULL"	"stimuli/Ebbinghaus_0.61429_-0.2150.png"	n/a	"Ebbinghaus"	"arrowright"	"1471"	"TRUE"	"Ebbinghaus"	"0.6142900000"	"-0.215000000"	"2"	"4"
n/a	"html-keyboard-response"	"192"	"341410"	"0.0-6.0-2.0-0.4"	"hl1zpr"	"563"	"1034"	"chrome"	"111.0.0"	"FALSE"	"Windows 10"	"60.66"	"050"	n/a	n/a	n/a	n/a	n/a	n/a	"fixation"	n/a	n/a	n/a	n/a	"NULL"	n/a	"NULL"	"NULL"	"NULL"	"<p style=\"color: black; font-size: 80px; padding-left: 34%; padding-right: 44%; padding-top: 2%; padding-bottom: 39%\">+</p>"	"1387"	n/a	n/a	n/a	n/a	n/a	n/a	n/a	n/a	n/a
n/a	"image-keyboard-response"	"193"	"341936"	"0.0-6.0-2.0-1.4"	"hl1zpr"	"563"	"1034"	"chrome"	"111.0.0"	"FALSE"	"Windows 10"	"60.66"	"050"	n/a	n/a	n/a	n/a	n/a	n/a	"Trial"	n/a	n/a	n/a	"525"	"arrowright"	n/a	"NULL"	"NULL"	"NULL"	"stimuli/Ebbinghaus_-0.87143_0.15857.png"	n/a	"Ebbinghaus"	"arrowleft"	"1396"	"FALSE"	"Ebbinghaus"	"-0.871430000"	"0.1585700000"	"2"	"5"
n/a	"html-keyboard-response"	"194"	"343411"	"0.0-6.0-2.0-0.5"	"hl1zpr"	"563"	"1034"	"chrome"	"111.0.0"	"FALSE"	"Windows 10"	"60.66"	"050"	n/a	n/a	n/a	n/a	n/a	n/a	"fixation"	n/a	n/a	n/a	n/a	"NULL"	n/a	"NULL"	"NULL"	"NULL"	"<p style=\"color: black; font-size: 80px; padding-left: 12%; padding-right: 19%; padding-top: 26%; padding-bottom: 43%\">+</p>"	"1460"	n/a	n/a	n/a	n/a	n/a	n/a	n/a	n/a	n/a
n/a	"image-keyboard-response"	"195"	"344044"	"0.0-6.0-2.0-1.5"	"hl1zpr"	"563"	"1034"	"chrome"	"111.0.0"	"FALSE"	"Windows 10"	"60.66"	"050"	n/a	n/a	n/a	n/a	n/a	n/a	"Trial"	n/a	n/a	n/a	"633"	"arrowleft"	n/a	"NULL"	"NULL"	"NULL"	"stimuli/Ebbinghaus_-0.1000_0.11071.png"	n/a	"Ebbinghaus"	"arrowleft"	"1475"	"TRUE"	"Ebbinghaus"	"-0.100000000"	"0.1107100000"	"2"	"6"
n/a	"html-keyboard-response"	"196"	"345442"	"0.0-6.0-2.0-0.6"	"hl1zpr"	"563"	"1034"	"chrome"	"111.0.0"	"FALSE"	"Windows 10"	"60.66"	"050"	n/a	n/a	n/a	n/a	n/a	n/a	"fixation"	n/a	n/a	n/a	n/a	"NULL"	n/a	"NULL"	"NULL"	"NULL"	"<p style=\"color: black; font-size: 80px; padding-left: 4%; padding-right: 6%; padding-top: 33%; padding-bottom: 46%\">+</p>"	"1395"	n/a	n/a	n/a	n/a	n/a	n/a	n/a	n/a	n/a
n/a	"image-keyboard-response"	"197"	"345966"	"0.0-6.0-2.0-1.6"	"hl1zpr"	"563"	"1034"	"chrome"	"111.0.0"	"FALSE"	"Windows 10"	"60.66"	"050"	n/a	n/a	n/a	n/a	n/a	n/a	"Trial"	n/a	n/a	n/a	"524"	"arrowleft"	n/a	"NULL"	"NULL"	"NULL"	"stimuli/Ebbinghaus_-0.1000_-0.15857.png"	n/a	"Ebbinghaus"	"arrowright"	"1398"	"FALSE"	"Ebbinghaus"	"-0.100000000"	"-0.158570000"	"2"	"7"
n/a	"html-keyboard-response"	"198"	"346977"	"0.0-6.0-2.0-0.7"	"hl1zpr"	"563"	"1034"	"chrome"	"111.0.0"	"FALSE"	"Windows 10"	"60.66"	"050"	n/a	n/a	n/a	n/a	n/a	n/a	"fixation"	n/a	n/a	n/a	n/a	"NULL"	n/a	"NULL"	"NULL"	"NULL"	"<p style=\"color: black; font-size: 80px; padding-left: 32%; padding-right: 5%; padding-top: 19%; padding-bottom: 24%\">+</p>"	"1003"	n/a	n/a	n/a	n/a	n/a	n/a	n/a	n/a	n/a
n/a	"image-keyboard-response"	"199"	"347470"	"0.0-6.0-2.0-1.7"	"hl1zpr"	"563"	"1034"	"chrome"	"111.0.0"	"FALSE"	"Windows 10"	"60.66"	"050"	n/a	n/a	n/a	n/a	n/a	n/a	"Trial"	n/a	n/a	n/a	"492"	"arrowright"	n/a	"NULL"	"NULL"	"NULL"	"stimuli/Ebbinghaus_0.61429_-0.15857.png"	n/a	"Ebbinghaus"	"arrowright"	"1011"	"TRUE"	"Ebbinghaus"	"0.6142900000"	"-0.158570000"	"2"	"8"
n/a	"html-keyboard-response"	"200"	"348488"	"0.0-6.0-2.0-0.8"	"hl1zpr"	"563"	"1034"	"chrome"	"111.0.0"	"FALSE"	"Windows 10"	"60.66"	"050"	n/a	n/a	n/a	n/a	n/a	n/a	"fixation"	n/a	n/a	n/a	n/a	"NULL"	n/a	"NULL"	"NULL"	"NULL"	"<p style=\"color: black; font-size: 80px; padding-left: 1%; padding-right: 42%; padding-top: 33%; padding-bottom: 13%\">+</p>"	"1016"	n/a	n/a	n/a	n/a	n/a	n/a	n/a	n/a	n/a
n/a	"image-keyboard-response"	"201"	"349048"	"0.0-6.0-2.0-1.8"	"hl1zpr"	"563"	"1034"	"chrome"	"111.0.0"	"FALSE"	"Windows 10"	"60.66"	"050"	n/a	n/a	n/a	n/a	n/a	n/a	"Trial"	n/a	n/a	n/a	"559"	"arrowleft"	n/a	"NULL"	"NULL"	"NULL"	"stimuli/Ebbinghaus_0.10000_0.21500.png"	n/a	"Ebbinghaus"	"arrowleft"	"1018"	"TRUE"	"Ebbinghaus"	"0.1000000000"	"0.2150000000"	"2"	"9"
n/a	"html-keyboard-response"	"202"	"350332"	"0.0-6.0-2.0-0.9"	"hl1zpr"	"563"	"1034"	"chrome"	"111.0.0"	"FALSE"	"Windows 10"	"60.66"	"050"	n/a	n/a	n/a	n/a	n/a	n/a	"fixation"	n/a	n/a	n/a	n/a	"NULL"	n/a	"NULL"	"NULL"	"NULL"	"<p style=\"color: black; font-size: 80px; padding-left: 49%; padding-right: 6%; padding-top: 9%; padding-bottom: 16%\">+</p>"	"1283"	n/a	n/a	n/a	n/a	n/a	n/a	n/a	n/a	n/a
n/a	"image-keyboard-response"	"203"	"350788"	"0.0-6.0-2.0-1.9"	"hl1zpr"	"563"	"1034"	"chrome"	"111.0.0"	"FALSE"	"Windows 10"	"60.66"	"050"	n/a	n/a	n/a	n/a	n/a	n/a	"Trial"	n/a	n/a	n/a	"455"	"arrowright"	n/a	"NULL"	"NULL"	"NULL"	"stimuli/Ebbinghaus_-0.61429_0.11071.png"	n/a	"Ebbinghaus"	"arrowleft"	"1284"	"FALSE"	"Ebbinghaus"	"-0.614290000"	"0.1107100000"	"2"	"10"
n/a	"html-keyboard-response"	"204"	"352097"	"0.0-6.0-2.0-0.10"	"hl1zpr"	"563"	"1034"	"chrome"	"111.0.0"	"FALSE"	"Windows 10"	"60.66"	"050"	n/a	n/a	n/a	n/a	n/a	n/a	"fixation"	n/a	n/a	n/a	n/a	"NULL"	n/a	"NULL"	"NULL"	"NULL"	"<p style=\"color: black; font-size: 80px; padding-left: 48%; padding-right: 20%; padding-top: 25%; padding-bottom: 41%\">+</p>"	"1295"	n/a	n/a	n/a	n/a	n/a	n/a	n/a	n/a	n/a
n/a	"image-keyboard-response"	"205"	"352607"	"0.0-6.0-2.0-1.10"	"hl1zpr"	"563"	"1034"	"chrome"	"111.0.0"	"FALSE"	"Windows 10"	"60.66"	"050"	n/a	n/a	n/a	n/a	n/a	n/a	"Trial"	n/a	n/a	n/a	"510"	"arrowleft"	n/a	"NULL"	"NULL"	"NULL"	"stimuli/Ebbinghaus_-0.87143_-0.2800.png"	n/a	"Ebbinghaus"	"arrowright"	"1309"	"FALSE"	"Ebbinghaus"	"-0.871430000"	"-0.280000000"	"2"	"11"
n/a	"html-keyboard-response"	"206"	"353629"	"0.0-6.0-2.0-0.11"	"hl1zpr"	"563"	"1034"	"chrome"	"111.0.0"	"FALSE"	"Windows 10"	"60.66"	"050"	n/a	n/a	n/a	n/a	n/a	n/a	"fixation"	n/a	n/a	n/a	n/a	"NULL"	n/a	"NULL"	"NULL"	"NULL"	"<p style=\"color: black; font-size: 80px; padding-left: 9%; padding-right: 34%; padding-top: 37%; padding-bottom: 23%\">+</p>"	"1013"	n/a	n/a	n/a	n/a	n/a	n/a	n/a	n/a	n/a
n/a	"image-keyboard-response"	"207"	"354161"	"0.0-6.0-2.0-1.11"	"hl1zpr"	"563"	"1034"	"chrome"	"111.0.0"	"FALSE"	"Windows 10"	"60.66"	"050"	n/a	n/a	n/a	n/a	n/a	n/a	"Trial"	n/a	n/a	n/a	"531"	"arrowright"	n/a	"NULL"	"NULL"	"NULL"	"stimuli/Ebbinghaus_-0.1000_0.21500.png"	n/a	"Ebbinghaus"	"arrowleft"	"1022"	"FALSE"	"Ebbinghaus"	"-0.100000000"	"0.2150000000"	"2"	"12"
n/a	"html-keyboard-response"	"208"	"355361"	"0.0-6.0-2.0-0.12"	"hl1zpr"	"563"	"1034"	"chrome"	"111.0.0"	"FALSE"	"Windows 10"	"60.66"	"050"	n/a	n/a	n/a	n/a	n/a	n/a	"fixation"	n/a	n/a	n/a	n/a	"NULL"	n/a	"NULL"	"NULL"	"NULL"	"<p style=\"color: black; font-size: 80px; padding-left: 9%; padding-right: 47%; padding-top: 28%; padding-bottom: 5%\">+</p>"	"1196"	n/a	n/a	n/a	n/a	n/a	n/a	n/a	n/a	n/a
n/a	"image-keyboard-response"	"209"	"355900"	"0.0-6.0-2.0-1.12"	"hl1zpr"	"563"	"1034"	"chrome"	"111.0.0"	"FALSE"	"Windows 10"	"60.66"	"050"	n/a	n/a	n/a	n/a	n/a	n/a	"Trial"	n/a	n/a	n/a	"538"	"arrowleft"	n/a	"NULL"	"NULL"	"NULL"	"stimuli/Ebbinghaus_-0.35714_-0.11071.png"	n/a	"Ebbinghaus"	"arrowright"	"1200"	"FALSE"	"Ebbinghaus"	"-0.357140000"	"-0.110710000"	"2"	"13"
n/a	"html-keyboard-response"	"210"	"357258"	"0.0-6.0-2.0-0.13"	"hl1zpr"	"563"	"1034"	"chrome"	"111.0.0"	"FALSE"	"Windows 10"	"60.66"	"050"	n/a	n/a	n/a	n/a	n/a	n/a	"fixation"	n/a	n/a	n/a	n/a	"NULL"	n/a	"NULL"	"NULL"	"NULL"	"<p style=\"color: black; font-size: 80px; padding-left: 13%; padding-right: 15%; padding-top: 24%; padding-bottom: 5%\">+</p>"	"1355"	n/a	n/a	n/a	n/a	n/a	n/a	n/a	n/a	n/a
n/a	"image-keyboard-response"	"211"	"358331"	"0.0-6.0-2.0-1.13"	"hl1zpr"	"563"	"1034"	"chrome"	"111.0.0"	"FALSE"	"Windows 10"	"60.66"	"050"	n/a	n/a	n/a	n/a	n/a	n/a	"Trial"	n/a	n/a	n/a	"1072"	"arrowleft"	n/a	"NULL"	"NULL"	"NULL"	"stimuli/Ebbinghaus_0.10000_0.11071.png"	n/a	"Ebbinghaus"	"arrowleft"	"1358"	"TRUE"	"Ebbinghaus"	"0.1000000000"	"0.1107100000"	"2"	"14"
n/a	"html-keyboard-response"	"212"	"359497"	"0.0-6.0-2.0-0.14"	"hl1zpr"	"563"	"1034"	"chrome"	"111.0.0"	"FALSE"	"Windows 10"	"60.66"	"050"	n/a	n/a	n/a	n/a	n/a	n/a	"fixation"	n/a	n/a	n/a	n/a	"NULL"	n/a	"NULL"	"NULL"	"NULL"	"<p style=\"color: black; font-size: 80px; padding-left: 13%; padding-right: 44%; padding-top: 9%; padding-bottom: 40%\">+</p>"	"1162"	n/a	n/a	n/a	n/a	n/a	n/a	n/a	n/a	n/a
n/a	"image-keyboard-response"	"213"	"360607"	"0.0-6.0-2.0-1.14"	"hl1zpr"	"563"	"1034"	"chrome"	"111.0.0"	"FALSE"	"Windows 10"	"60.66"	"050"	n/a	n/a	n/a	n/a	n/a	n/a	"Trial"	n/a	n/a	n/a	"1109"	"arrowleft"	n/a	"NULL"	"NULL"	"NULL"	"stimuli/Ebbinghaus_-0.35714_-0.2150.png"	n/a	"Ebbinghaus"	"arrowright"	"1166"	"FALSE"	"Ebbinghaus"	"-0.357140000"	"-0.215000000"	"2"	"15"
n/a	"html-keyboard-response"	"214"	"362059"	"0.0-6.0-2.0-0.15"	"hl1zpr"	"563"	"1034"	"chrome"	"111.0.0"	"FALSE"	"Windows 10"	"60.66"	"050"	n/a	n/a	n/a	n/a	n/a	n/a	"fixation"	n/a	n/a	n/a	n/a	"NULL"	n/a	"NULL"	"NULL"	"NULL"	"<p style=\"color: black; font-size: 80px; padding-left: 37%; padding-right: 50%; padding-top: 14%; padding-bottom: 47%\">+</p>"	"1440"	n/a	n/a	n/a	n/a	n/a	n/a	n/a	n/a	n/a
n/a	"image-keyboard-response"	"215"	"362551"	"0.0-6.0-2.0-1.15"	"hl1zpr"	"563"	"1034"	"chrome"	"111.0.0"	"FALSE"	"Windows 10"	"60.66"	"050"	n/a	n/a	n/a	n/a	n/a	n/a	"Trial"	n/a	n/a	n/a	"492"	"arrowright"	n/a	"NULL"	"NULL"	"NULL"	"stimuli/Ebbinghaus_0.61429_-0.2800.png"	n/a	"Ebbinghaus"	"arrowright"	"1452"	"TRUE"	"Ebbinghaus"	"0.6142900000"	"-0.280000000"	"2"	"16"
n/a	"html-keyboard-response"	"216"	"363921"	"0.0-6.0-2.0-0.16"	"hl1zpr"	"563"	"1034"	"chrome"	"111.0.0"	"FALSE"	"Windows 10"	"60.66"	"050"	n/a	n/a	n/a	n/a	n/a	n/a	"fixation"	n/a	n/a	n/a	n/a	"NULL"	n/a	"NULL"	"NULL"	"NULL"	"<p style=\"color: black; font-size: 80px; padding-left: 7%; padding-right: 38%; padding-top: 27%; padding-bottom: 31%\">+</p>"	"1353"	n/a	n/a	n/a	n/a	n/a	n/a	n/a	n/a	n/a
n/a	"image-keyboard-response"	"217"	"364559"	"0.0-6.0-2.0-1.16"	"hl1zpr"	"563"	"1034"	"chrome"	"111.0.0"	"FALSE"	"Windows 10"	"60.66"	"050"	n/a	n/a	n/a	n/a	n/a	n/a	"Trial"	n/a	n/a	n/a	"637"	"arrowright"	n/a	"NULL"	"NULL"	"NULL"	"stimuli/Ebbinghaus_-0.87143_0.21500.png"	n/a	"Ebbinghaus"	"arrowleft"	"1370"	"FALSE"	"Ebbinghaus"	"-0.871430000"	"0.2150000000"	"2"	"17"
n/a	"html-keyboard-response"	"218"	"365630"	"0.0-6.0-2.0-0.17"	"hl1zpr"	"563"	"1034"	"chrome"	"111.0.0"	"FALSE"	"Windows 10"	"60.66"	"050"	n/a	n/a	n/a	n/a	n/a	n/a	"fixation"	n/a	n/a	n/a	n/a	"NULL"	n/a	"NULL"	"NULL"	"NULL"	"<p style=\"color: black; font-size: 80px; padding-left: 37%; padding-right: 49%; padding-top: 46%; padding-bottom: 21%\">+</p>"	"1059"	n/a	n/a	n/a	n/a	n/a	n/a	n/a	n/a	n/a
n/a	"image-keyboard-response"	"219"	"366128"	"0.0-6.0-2.0-1.17"	"hl1zpr"	"563"	"1034"	"chrome"	"111.0.0"	"FALSE"	"Windows 10"	"60.66"	"050"	n/a	n/a	n/a	n/a	n/a	n/a	"Trial"	n/a	n/a	n/a	"498"	"arrowleft"	n/a	"NULL"	"NULL"	"NULL"	"stimuli/Ebbinghaus_-0.61429_-0.11071.png"	n/a	"Ebbinghaus"	"arrowright"	"1071"	"FALSE"	"Ebbinghaus"	"-0.614290000"	"-0.110710000"	"2"	"18"
n/a	"html-keyboard-response"	"220"	"367489"	"0.0-6.0-2.0-0.18"	"hl1zpr"	"563"	"1034"	"chrome"	"111.0.0"	"FALSE"	"Windows 10"	"60.66"	"050"	n/a	n/a	n/a	n/a	n/a	n/a	"fixation"	n/a	n/a	n/a	n/a	"NULL"	n/a	"NULL"	"NULL"	"NULL"	"<p style=\"color: black; font-size: 80px; padding-left: 18%; padding-right: 48%; padding-top: 3%; padding-bottom: 46%\">+</p>"	"1357"	n/a	n/a	n/a	n/a	n/a	n/a	n/a	n/a	n/a
n/a	"image-keyboard-response"	"221"	"368389"	"0.0-6.0-2.0-1.18"	"hl1zpr"	"563"	"1034"	"chrome"	"111.0.0"	"FALSE"	"Windows 10"	"60.66"	"050"	n/a	n/a	n/a	n/a	n/a	n/a	"Trial"	n/a	n/a	n/a	"900"	"arrowleft"	n/a	"NULL"	"NULL"	"NULL"	"stimuli/Ebbinghaus_0.10000_0.15857.png"	n/a	"Ebbinghaus"	"arrowleft"	"1361"	"TRUE"	"Ebbinghaus"	"0.1000000000"	"0.1585700000"	"2"	"19"
n/a	"html-keyboard-response"	"222"	"369600"	"0.0-6.0-2.0-0.19"	"hl1zpr"	"563"	"1034"	"chrome"	"111.0.0"	"FALSE"	"Windows 10"	"60.66"	"050"	n/a	n/a	n/a	n/a	n/a	n/a	"fixation"	n/a	n/a	n/a	n/a	"NULL"	n/a	"NULL"	"NULL"	"NULL"	"<p style=\"color: black; font-size: 80px; padding-left: 9%; padding-right: 36%; padding-top: 20%; padding-bottom: 49%\">+</p>"	"1203"	n/a	n/a	n/a	n/a	n/a	n/a	n/a	n/a	n/a
n/a	"image-keyboard-response"	"223"	"370143"	"0.0-6.0-2.0-1.19"	"hl1zpr"	"563"	"1034"	"chrome"	"111.0.0"	"FALSE"	"Windows 10"	"60.66"	"050"	n/a	n/a	n/a	n/a	n/a	n/a	"Trial"	n/a	n/a	n/a	"542"	"arrowleft"	n/a	"NULL"	"NULL"	"NULL"	"stimuli/Ebbinghaus_-0.87143_-0.15857.png"	n/a	"Ebbinghaus"	"arrowright"	"1211"	"FALSE"	"Ebbinghaus"	"-0.871430000"	"-0.158570000"	"2"	"20"
n/a	"html-keyboard-response"	"224"	"371192"	"0.0-6.0-2.0-0.20"	"hl1zpr"	"563"	"1034"	"chrome"	"111.0.0"	"FALSE"	"Windows 10"	"60.66"	"050"	n/a	n/a	n/a	n/a	n/a	n/a	"fixation"	n/a	n/a	n/a	n/a	"NULL"	n/a	"NULL"	"NULL"	"NULL"	"<p style=\"color: black; font-size: 80px; padding-left: 32%; padding-right: 4%; padding-top: 29%; padding-bottom: 47%\">+</p>"	"1038"	n/a	n/a	n/a	n/a	n/a	n/a	n/a	n/a	n/a
n/a	"image-keyboard-response"	"225"	"371707"	"0.0-6.0-2.0-1.20"	"hl1zpr"	"563"	"1034"	"chrome"	"111.0.0"	"FALSE"	"Windows 10"	"60.66"	"050"	n/a	n/a	n/a	n/a	n/a	n/a	"Trial"	n/a	n/a	n/a	"515"	"arrowright"	n/a	"NULL"	"NULL"	"NULL"	"stimuli/Ebbinghaus_0.10000_-0.15857.png"	n/a	"Ebbinghaus"	"arrowright"	"1049"	"TRUE"	"Ebbinghaus"	"0.1000000000"	"-0.158570000"	"2"	"21"
n/a	"html-keyboard-response"	"226"	"372909"	"0.0-6.0-2.0-0.21"	"hl1zpr"	"563"	"1034"	"chrome"	"111.0.0"	"FALSE"	"Windows 10"	"60.66"	"050"	n/a	n/a	n/a	n/a	n/a	n/a	"fixation"	n/a	n/a	n/a	n/a	"NULL"	n/a	"NULL"	"NULL"	"NULL"	"<p style=\"color: black; font-size: 80px; padding-left: 7%; padding-right: 29%; padding-top: 15%; padding-bottom: 27%\">+</p>"	"1199"	n/a	n/a	n/a	n/a	n/a	n/a	n/a	n/a	n/a
n/a	"image-keyboard-response"	"227"	"373465"	"0.0-6.0-2.0-1.21"	"hl1zpr"	"563"	"1034"	"chrome"	"111.0.0"	"FALSE"	"Windows 10"	"60.66"	"050"	n/a	n/a	n/a	n/a	n/a	n/a	"Trial"	n/a	n/a	n/a	"556"	"arrowright"	n/a	"NULL"	"NULL"	"NULL"	"stimuli/Ebbinghaus_0.87143_-0.11071.png"	n/a	"Ebbinghaus"	"arrowright"	"1202"	"TRUE"	"Ebbinghaus"	"0.8714300000"	"-0.110710000"	"2"	"22"
n/a	"html-keyboard-response"	"228"	"374921"	"0.0-6.0-2.0-0.22"	"hl1zpr"	"563"	"1034"	"chrome"	"111.0.0"	"FALSE"	"Windows 10"	"60.66"	"050"	n/a	n/a	n/a	n/a	n/a	n/a	"fixation"	n/a	n/a	n/a	n/a	"NULL"	n/a	"NULL"	"NULL"	"NULL"	"<p style=\"color: black; font-size: 80px; padding-left: 13%; padding-right: 42%; padding-top: 23%; padding-bottom: 14%\">+</p>"	"1452"	n/a	n/a	n/a	n/a	n/a	n/a	n/a	n/a	n/a
n/a	"image-keyboard-response"	"229"	"375444"	"0.0-6.0-2.0-1.22"	"hl1zpr"	"563"	"1034"	"chrome"	"111.0.0"	"FALSE"	"Windows 10"	"60.66"	"050"	n/a	n/a	n/a	n/a	n/a	n/a	"Trial"	n/a	n/a	n/a	"522"	"arrowright"	n/a	"NULL"	"NULL"	"NULL"	"stimuli/Ebbinghaus_0.10000_-0.11071.png"	n/a	"Ebbinghaus"	"arrowright"	"1456"	"TRUE"	"Ebbinghaus"	"0.1000000000"	"-0.110710000"	"2"	"23"
n/a	"html-keyboard-response"	"230"	"376559"	"0.0-6.0-2.0-0.23"	"hl1zpr"	"563"	"1034"	"chrome"	"111.0.0"	"FALSE"	"Windows 10"	"60.66"	"050"	n/a	n/a	n/a	n/a	n/a	n/a	"fixation"	n/a	n/a	n/a	n/a	"NULL"	n/a	"NULL"	"NULL"	"NULL"	"<p style=\"color: black; font-size: 80px; padding-left: 40%; padding-right: 21%; padding-top: 34%; padding-bottom: 43%\">+</p>"	"1104"	n/a	n/a	n/a	n/a	n/a	n/a	n/a	n/a	n/a
n/a	"image-keyboard-response"	"231"	"377143"	"0.0-6.0-2.0-1.23"	"hl1zpr"	"563"	"1034"	"chrome"	"111.0.0"	"FALSE"	"Windows 10"	"60.66"	"050"	n/a	n/a	n/a	n/a	n/a	n/a	"Trial"	n/a	n/a	n/a	"584"	"arrowleft"	n/a	"NULL"	"NULL"	"NULL"	"stimuli/Ebbinghaus_0.87143_0.15857.png"	n/a	"Ebbinghaus"	"arrowleft"	"1115"	"TRUE"	"Ebbinghaus"	"0.8714300000"	"0.1585700000"	"2"	"24"
n/a	"html-keyboard-response"	"232"	"378222"	"0.0-6.0-2.0-0.24"	"hl1zpr"	"563"	"1034"	"chrome"	"111.0.0"	"FALSE"	"Windows 10"	"60.66"	"050"	n/a	n/a	n/a	n/a	n/a	n/a	"fixation"	n/a	n/a	n/a	n/a	"NULL"	n/a	"NULL"	"NULL"	"NULL"	"<p style=\"color: black; font-size: 80px; padding-left: 42%; padding-right: 42%; padding-top: 3%; padding-bottom: 36%\">+</p>"	"1065"	n/a	n/a	n/a	n/a	n/a	n/a	n/a	n/a	n/a
n/a	"image-keyboard-response"	"233"	"378805"	"0.0-6.0-2.0-1.24"	"hl1zpr"	"563"	"1034"	"chrome"	"111.0.0"	"FALSE"	"Windows 10"	"60.66"	"050"	n/a	n/a	n/a	n/a	n/a	n/a	"Trial"	n/a	n/a	n/a	"583"	"arrowleft"	n/a	"NULL"	"NULL"	"NULL"	"stimuli/Ebbinghaus_0.35714_0.21500.png"	n/a	"Ebbinghaus"	"arrowleft"	"1079"	"TRUE"	"Ebbinghaus"	"0.3571400000"	"0.2150000000"	"2"	"25"
n/a	"html-keyboard-response"	"234"	"379924"	"0.0-6.0-2.0-0.25"	"hl1zpr"	"563"	"1034"	"chrome"	"111.0.0"	"FALSE"	"Windows 10"	"60.66"	"050"	n/a	n/a	n/a	n/a	n/a	n/a	"fixation"	n/a	n/a	n/a	n/a	"NULL"	n/a	"NULL"	"NULL"	"NULL"	"<p style=\"color: black; font-size: 80px; padding-left: 33%; padding-right: 19%; padding-top: 2%; padding-bottom: 7%\">+</p>"	"1106"	n/a	n/a	n/a	n/a	n/a	n/a	n/a	n/a	n/a
n/a	"image-keyboard-response"	"235"	"380395"	"0.0-6.0-2.0-1.25"	"hl1zpr"	"563"	"1034"	"chrome"	"111.0.0"	"FALSE"	"Windows 10"	"60.66"	"050"	n/a	n/a	n/a	n/a	n/a	n/a	"Trial"	n/a	n/a	n/a	"470"	"arrowright"	n/a	"NULL"	"NULL"	"NULL"	"stimuli/Ebbinghaus_0.87143_-0.2150.png"	n/a	"Ebbinghaus"	"arrowright"	"1119"	"TRUE"	"Ebbinghaus"	"0.8714300000"	"-0.215000000"	"2"	"26"
n/a	"html-keyboard-response"	"236"	"381753"	"0.0-6.0-2.0-0.26"	"hl1zpr"	"563"	"1034"	"chrome"	"111.0.0"	"FALSE"	"Windows 10"	"60.66"	"050"	n/a	n/a	n/a	n/a	n/a	n/a	"fixation"	n/a	n/a	n/a	n/a	"NULL"	n/a	"NULL"	"NULL"	"NULL"	"<p style=\"color: black; font-size: 80px; padding-left: 19%; padding-right: 14%; padding-top: 14%; padding-bottom: 33%\">+</p>"	"1345"	n/a	n/a	n/a	n/a	n/a	n/a	n/a	n/a	n/a
n/a	"image-keyboard-response"	"237"	"382316"	"0.0-6.0-2.0-1.26"	"hl1zpr"	"563"	"1034"	"chrome"	"111.0.0"	"FALSE"	"Windows 10"	"60.66"	"050"	n/a	n/a	n/a	n/a	n/a	n/a	"Trial"	n/a	n/a	n/a	"562"	"arrowleft"	n/a	"NULL"	"NULL"	"NULL"	"stimuli/Ebbinghaus_-0.1000_-0.2150.png"	n/a	"Ebbinghaus"	"arrowright"	"1358"	"FALSE"	"Ebbinghaus"	"-0.100000000"	"-0.215000000"	"2"	"27"
n/a	"html-keyboard-response"	"238"	"383630"	"0.0-6.0-2.0-0.27"	"hl1zpr"	"563"	"1034"	"chrome"	"111.0.0"	"FALSE"	"Windows 10"	"60.66"	"050"	n/a	n/a	n/a	n/a	n/a	n/a	"fixation"	n/a	n/a	n/a	n/a	"NULL"	n/a	"NULL"	"NULL"	"NULL"	"<p style=\"color: black; font-size: 80px; padding-left: 22%; padding-right: 19%; padding-top: 43%; padding-bottom: 3%\">+</p>"	"1297"	n/a	n/a	n/a	n/a	n/a	n/a	n/a	n/a	n/a
n/a	"image-keyboard-response"	"239"	"384254"	"0.0-6.0-2.0-1.27"	"hl1zpr"	"563"	"1034"	"chrome"	"111.0.0"	"FALSE"	"Windows 10"	"60.66"	"050"	n/a	n/a	n/a	n/a	n/a	n/a	"Trial"	n/a	n/a	n/a	"624"	"arrowright"	n/a	"NULL"	"NULL"	"NULL"	"stimuli/Ebbinghaus_-0.1000_-0.2800.png"	n/a	"Ebbinghaus"	"arrowright"	"1314"	"TRUE"	"Ebbinghaus"	"-0.100000000"	"-0.280000000"	"2"	"28"
n/a	"html-keyboard-response"	"240"	"385457"	"0.0-6.0-2.0-0.28"	"hl1zpr"	"563"	"1034"	"chrome"	"111.0.0"	"FALSE"	"Windows 10"	"60.66"	"050"	n/a	n/a	n/a	n/a	n/a	n/a	"fixation"	n/a	n/a	n/a	n/a	"NULL"	n/a	"NULL"	"NULL"	"NULL"	"<p style=\"color: black; font-size: 80px; padding-left: 31%; padding-right: 47%; padding-top: 40%; padding-bottom: 40%\">+</p>"	"1189"	n/a	n/a	n/a	n/a	n/a	n/a	n/a	n/a	n/a
n/a	"image-keyboard-response"	"241"	"386078"	"0.0-6.0-2.0-1.28"	"hl1zpr"	"563"	"1034"	"chrome"	"111.0.0"	"FALSE"	"Windows 10"	"60.66"	"050"	n/a	n/a	n/a	n/a	n/a	n/a	"Trial"	n/a	n/a	n/a	"620"	"arrowleft"	n/a	"NULL"	"NULL"	"NULL"	"stimuli/Ebbinghaus_-0.35714_-0.15857.png"	n/a	"Ebbinghaus"	"arrowright"	"1203"	"FALSE"	"Ebbinghaus"	"-0.357140000"	"-0.158570000"	"2"	"29"
n/a	"html-keyboard-response"	"242"	"387304"	"0.0-6.0-2.0-0.29"	"hl1zpr"	"563"	"1034"	"chrome"	"111.0.0"	"FALSE"	"Windows 10"	"60.66"	"050"	n/a	n/a	n/a	n/a	n/a	n/a	"fixation"	n/a	n/a	n/a	n/a	"NULL"	n/a	"NULL"	"NULL"	"NULL"	"<p style=\"color: black; font-size: 80px; padding-left: 14%; padding-right: 21%; padding-top: 50%; padding-bottom: 42%\">+</p>"	"1219"	n/a	n/a	n/a	n/a	n/a	n/a	n/a	n/a	n/a
n/a	"image-keyboard-response"	"243"	"387982"	"0.0-6.0-2.0-1.29"	"hl1zpr"	"563"	"1034"	"chrome"	"111.0.0"	"FALSE"	"Windows 10"	"60.66"	"050"	n/a	n/a	n/a	n/a	n/a	n/a	"Trial"	n/a	n/a	n/a	"678"	"arrowleft"	n/a	"NULL"	"NULL"	"NULL"	"stimuli/Ebbinghaus_-0.35714_0.28000.png"	n/a	"Ebbinghaus"	"arrowleft"	"1226"	"TRUE"	"Ebbinghaus"	"-0.357140000"	"0.2800000000"	"2"	"30"
n/a	"html-keyboard-response"	"244"	"389287"	"0.0-6.0-2.0-0.30"	"hl1zpr"	"563"	"1034"	"chrome"	"111.0.0"	"FALSE"	"Windows 10"	"60.66"	"050"	n/a	n/a	n/a	n/a	n/a	n/a	"fixation"	n/a	n/a	n/a	n/a	"NULL"	n/a	"NULL"	"NULL"	"NULL"	"<p style=\"color: black; font-size: 80px; padding-left: 21%; padding-right: 6%; padding-top: 46%; padding-bottom: 41%\">+</p>"	"1298"	n/a	n/a	n/a	n/a	n/a	n/a	n/a	n/a	n/a
n/a	"image-keyboard-response"	"245"	"389802"	"0.0-6.0-2.0-1.30"	"hl1zpr"	"563"	"1034"	"chrome"	"111.0.0"	"FALSE"	"Windows 10"	"60.66"	"050"	n/a	n/a	n/a	n/a	n/a	n/a	"Trial"	n/a	n/a	n/a	"515"	"arrowleft"	n/a	"NULL"	"NULL"	"NULL"	"stimuli/Ebbinghaus_0.87143_0.28000.png"	n/a	"Ebbinghaus"	"arrowleft"	"1305"	"TRUE"	"Ebbinghaus"	"0.8714300000"	"0.2800000000"	"2"	"31"
n/a	"html-keyboard-response"	"246"	"391037"	"0.0-6.0-2.0-0.31"	"hl1zpr"	"563"	"1034"	"chrome"	"111.0.0"	"FALSE"	"Windows 10"	"60.66"	"050"	n/a	n/a	n/a	n/a	n/a	n/a	"fixation"	n/a	n/a	n/a	n/a	"NULL"	n/a	"NULL"	"NULL"	"NULL"	"<p style=\"color: black; font-size: 80px; padding-left: 44%; padding-right: 28%; padding-top: 28%; padding-bottom: 43%\">+</p>"	"1219"	n/a	n/a	n/a	n/a	n/a	n/a	n/a	n/a	n/a
n/a	"image-keyboard-response"	"247"	"391522"	"0.0-6.0-2.0-1.31"	"hl1zpr"	"563"	"1034"	"chrome"	"111.0.0"	"FALSE"	"Windows 10"	"60.66"	"050"	n/a	n/a	n/a	n/a	n/a	n/a	"Trial"	n/a	n/a	n/a	"484"	"arrowright"	n/a	"NULL"	"NULL"	"NULL"	"stimuli/Ebbinghaus_0.35714_-0.15857.png"	n/a	"Ebbinghaus"	"arrowright"	"1235"	"TRUE"	"Ebbinghaus"	"0.3571400000"	"-0.158570000"	"2"	"32"
n/a	"html-keyboard-response"	"248"	"392571"	"0.0-6.0-2.0-0.32"	"hl1zpr"	"563"	"1034"	"chrome"	"111.0.0"	"FALSE"	"Windows 10"	"60.66"	"050"	n/a	n/a	n/a	n/a	n/a	n/a	"fixation"	n/a	n/a	n/a	n/a	"NULL"	n/a	"NULL"	"NULL"	"NULL"	"<p style=\"color: black; font-size: 80px; padding-left: 28%; padding-right: 1%; padding-top: 31%; padding-bottom: 15%\">+</p>"	"1034"	n/a	n/a	n/a	n/a	n/a	n/a	n/a	n/a	n/a
