"success"	"trial_type"	"trial_index"	"time_elapsed"	"internal_node_id"	"participant_id"	"screen_height"	"screen_width"	"browser"	"browser_version"	"mobile"	"os"	"vsync_rate"	"subject_id"	"width"	"height"	"webaudio"	"fullscreen"	"webcam"	"microphone"	"screen"	"version"	"date"	"time"	"rt"	"response"	"timeout"	"failed_images"	"failed_audio"	"failed_video"	"stimulus"	"trial_duration"	"block"	"correct_response"	"prestimulus_duration"	"correct"	"type"	"illusion_strength"	"illusion_difference"	"block_number"	"trial_number"
"TRUE"	"fullscreen"	"0"	"7939546"	"0.0-0.0"	"mdjbof"	"563"	"952"	"chrome"	"109.0.0"	"FALSE"	"Windows 10"	"60.9"	"011"	n/a	n/a	n/a	n/a	n/a	n/a	n/a	n/a	n/a	n/a	n/a	"NULL"	n/a	"NULL"	"NULL"	"NULL"	n/a	n/a	n/a	n/a	n/a	n/a	n/a	n/a	n/a	n/a	n/a
n/a	"browser-check"	"1"	"7940552"	"0.0-1.0"	"mdjbof"	"563"	"952"	"chrome"	"109.0.0"	"FALSE"	"Windows 10"	"60.9"	"011"	"952"	"563"	"TRUE"	"TRUE"	"TRUE"	"TRUE"	"browser_info"	"1.0"	"01/02/2023"	"08:44:18"	n/a	"NULL"	n/a	"NULL"	"NULL"	"NULL"	n/a	n/a	n/a	n/a	n/a	n/a	n/a	n/a	n/a	n/a	n/a
n/a	"survey-text"	"2"	"7943094"	"0.0-2.0"	"mdjbof"	"563"	"952"	"chrome"	"109.0.0"	"FALSE"	"Windows 10"	"60.9"	"011"	n/a	n/a	n/a	n/a	n/a	n/a	"subject_id"	n/a	n/a	n/a	"2531"	"list(subject_id = \"011\")"	n/a	"NULL"	"NULL"	"NULL"	n/a	n/a	n/a	n/a	n/a	n/a	n/a	n/a	n/a	n/a	n/a
"TRUE"	"preload"	"3"	"7943108"	"0.0-3.0"	"mdjbof"	"563"	"952"	"chrome"	"109.0.0"	"FALSE"	"Windows 10"	"60.9"	"011"	n/a	n/a	n/a	n/a	n/a	n/a	n/a	n/a	n/a	n/a	n/a	"NULL"	"FALSE"	"list()"	"list()"	"list()"	n/a	n/a	n/a	n/a	n/a	n/a	n/a	n/a	n/a	n/a	n/a
n/a	"html-button-response"	"4"	"7992024"	"0.0-4.0-0.0"	"mdjbof"	"563"	"952"	"chrome"	"109.0.0"	"FALSE"	"Windows 10"	"60.9"	"011"	n/a	n/a	n/a	n/a	n/a	n/a	"illusion_instructions"	n/a	n/a	n/a	"48915"	"0"	n/a	"NULL"	"NULL"	"NULL"	"<p><b>Illusion Game</b></p><p>In this game of speed and reflex, you will need to make <b>visual judgments</b> (for instance, which circle is the biggest, or which line is the longest), as fast and as correctly as possible, while <b>resisting different visual illusions</b>.</p><p>We are going to start with some examples of all the illusions you will encounter in the game.</p>"	n/a	n/a	n/a	n/a	n/a	n/a	n/a	n/a	n/a	n/a
"TRUE"	"preload"	"5"	"7992043"	"0.0-4.0-1.0-0.0"	"mdjbof"	"563"	"952"	"chrome"	"109.0.0"	"FALSE"	"Windows 10"	"60.9"	"011"	n/a	n/a	n/a	n/a	n/a	n/a	n/a	n/a	n/a	n/a	n/a	"NULL"	"FALSE"	"list()"	"list()"	"list()"	n/a	n/a	n/a	n/a	n/a	n/a	n/a	n/a	n/a	n/a	n/a
n/a	"html-keyboard-response"	"6"	"8019837"	"0.0-4.0-1.0-1.0"	"mdjbof"	"563"	"952"	"chrome"	"109.0.0"	"FALSE"	"Windows 10"	"60.9"	"011"	n/a	n/a	n/a	n/a	n/a	n/a	n/a	n/a	n/a	n/a	"27793"	"enter"	n/a	"NULL"	"NULL"	"NULL"	"<p><b>Practice</b></p><p>In this part, two red circles will appear side by side on the screen.</p><p>Your task is to select which <b>red circle is bigger</b> in size as fast as you can, without making errors.</p><p>Don't get distracted by the surrounding black circles around the red circles!</p><p>Press <b>the LEFT or the RIGHT arrow</b> to indicate which is the bigger <b>red circle.</b></p><div style='float: center'><img src='materials/instructions/Ebbinghaus_Demo.png' height='300'></img><p><img src='utils/answer/answer_leftright_keyboard.PNG' height='150'></img></p><p class='small'>In this example, the correct answer is the <b>LEFT arrow</b>.</p></div><p>Are you ready? <b>Press ENTER to start</b></p>"	n/a	n/a	n/a	n/a	n/a	n/a	n/a	n/a	n/a	n/a
n/a	"html-keyboard-response"	"7"	"8021608"	"0.0-4.0-1.0-2.0-0.0"	"mdjbof"	"563"	"952"	"chrome"	"109.0.0"	"FALSE"	"Windows 10"	"60.9"	"011"	n/a	n/a	n/a	n/a	n/a	n/a	"fixation"	n/a	n/a	n/a	n/a	"NULL"	n/a	"NULL"	"NULL"	"NULL"	"<p style=\"color: black; font-size: 80px; padding-left: 18%; padding-right: 39%; padding-top: 16%; padding-bottom: 24%\">+</p>"	"1245"	n/a	n/a	n/a	n/a	n/a	n/a	n/a	n/a	n/a
n/a	"image-keyboard-response"	"8"	"8022622"	"0.0-4.0-1.0-2.0-1.0"	"mdjbof"	"563"	"952"	"chrome"	"109.0.0"	"FALSE"	"Windows 10"	"60.9"	"011"	n/a	n/a	n/a	n/a	n/a	n/a	"Trial"	n/a	n/a	n/a	"1013"	"arrowright"	n/a	"NULL"	"NULL"	"NULL"	"stimuli/Ebbinghaus_0000000_-1.4000.png"	n/a	"Ebbinghaus"	"arrowright"	"1771"	"TRUE"	"Ebbinghaus"	"000000000000"	"-1.400000000"	"1"	"1"
n/a	"html-keyboard-response"	"9"	"8023966"	"0.0-4.0-1.0-2.0-0.1"	"mdjbof"	"563"	"952"	"chrome"	"109.0.0"	"FALSE"	"Windows 10"	"60.9"	"011"	n/a	n/a	n/a	n/a	n/a	n/a	"fixation"	n/a	n/a	n/a	n/a	"NULL"	n/a	"NULL"	"NULL"	"NULL"	"<p style=\"color: black; font-size: 80px; padding-left: 9%; padding-right: 18%; padding-top: 21%; padding-bottom: 39%\">+</p>"	"1327"	n/a	n/a	n/a	n/a	n/a	n/a	n/a	n/a	n/a
n/a	"image-keyboard-response"	"10"	"8024461"	"0.0-4.0-1.0-2.0-1.1"	"mdjbof"	"563"	"952"	"chrome"	"109.0.0"	"FALSE"	"Windows 10"	"60.9"	"011"	n/a	n/a	n/a	n/a	n/a	n/a	"Trial"	n/a	n/a	n/a	"493"	"arrowleft"	n/a	"NULL"	"NULL"	"NULL"	"stimuli/Ebbinghaus_0000000_1.40000.png"	n/a	"Ebbinghaus"	"arrowleft"	"1344"	"TRUE"	"Ebbinghaus"	"000000000000"	"1.4000000000"	"1"	"2"
n/a	"html-keyboard-response"	"11"	"8025592"	"0.0-4.0-1.0-2.0-0.2"	"mdjbof"	"563"	"952"	"chrome"	"109.0.0"	"FALSE"	"Windows 10"	"60.9"	"011"	n/a	n/a	n/a	n/a	n/a	n/a	"fixation"	n/a	n/a	n/a	n/a	"NULL"	n/a	"NULL"	"NULL"	"NULL"	"<p style=\"color: black; font-size: 80px; padding-left: 13%; padding-right: 37%; padding-top: 29%; padding-bottom: 18%\">+</p>"	"1124"	n/a	n/a	n/a	n/a	n/a	n/a	n/a	n/a	n/a
n/a	"image-keyboard-response"	"12"	"8026007"	"0.0-4.0-1.0-2.0-1.2"	"mdjbof"	"563"	"952"	"chrome"	"109.0.0"	"FALSE"	"Windows 10"	"60.9"	"011"	n/a	n/a	n/a	n/a	n/a	n/a	"Trial"	n/a	n/a	n/a	"412"	"arrowright"	n/a	"NULL"	"NULL"	"NULL"	"stimuli/Ebbinghaus_1000000_-1.4000.png"	n/a	"Ebbinghaus"	"arrowright"	"1131"	"TRUE"	"Ebbinghaus"	"100000000000"	"-1.400000000"	"1"	"3"
n/a	"html-keyboard-response"	"13"	"8027122"	"0.0-4.0-1.0-2.0-0.3"	"mdjbof"	"563"	"952"	"chrome"	"109.0.0"	"FALSE"	"Windows 10"	"60.9"	"011"	n/a	n/a	n/a	n/a	n/a	n/a	"fixation"	n/a	n/a	n/a	n/a	"NULL"	n/a	"NULL"	"NULL"	"NULL"	"<p style=\"color: black; font-size: 80px; padding-left: 7%; padding-right: 19%; padding-top: 38%; padding-bottom: 18%\">+</p>"	"1103"	n/a	n/a	n/a	n/a	n/a	n/a	n/a	n/a	n/a
n/a	"image-keyboard-response"	"14"	"8027540"	"0.0-4.0-1.0-2.0-1.3"	"mdjbof"	"563"	"952"	"chrome"	"109.0.0"	"FALSE"	"Windows 10"	"60.9"	"011"	n/a	n/a	n/a	n/a	n/a	n/a	"Trial"	n/a	n/a	n/a	"418"	"arrowleft"	n/a	"NULL"	"NULL"	"NULL"	"stimuli/Ebbinghaus_-100000_1.40000.png"	n/a	"Ebbinghaus"	"arrowleft"	"1115"	"TRUE"	"Ebbinghaus"	"-10000000000"	"1.4000000000"	"1"	"4"
n/a	"html-keyboard-response"	"15"	"8028813"	"0.0-4.0-1.0-2.0-0.4"	"mdjbof"	"563"	"952"	"chrome"	"109.0.0"	"FALSE"	"Windows 10"	"60.9"	"011"	n/a	n/a	n/a	n/a	n/a	n/a	"fixation"	n/a	n/a	n/a	n/a	"NULL"	n/a	"NULL"	"NULL"	"NULL"	"<p style=\"color: black; font-size: 80px; padding-left: 3%; padding-right: 41%; padding-top: 25%; padding-bottom: 31%\">+</p>"	"1265"	n/a	n/a	n/a	n/a	n/a	n/a	n/a	n/a	n/a
n/a	"image-keyboard-response"	"16"	"8029158"	"0.0-4.0-1.0-2.0-1.4"	"mdjbof"	"563"	"952"	"chrome"	"109.0.0"	"FALSE"	"Windows 10"	"60.9"	"011"	n/a	n/a	n/a	n/a	n/a	n/a	"Trial"	n/a	n/a	n/a	"343"	"arrowleft"	n/a	"NULL"	"NULL"	"NULL"	"stimuli/Ebbinghaus_1000000_1.40000.png"	n/a	"Ebbinghaus"	"arrowleft"	"1273"	"TRUE"	"Ebbinghaus"	"100000000000"	"1.4000000000"	"1"	"5"
n/a	"html-keyboard-response"	"17"	"8030608"	"0.0-4.0-1.0-2.0-0.5"	"mdjbof"	"563"	"952"	"chrome"	"109.0.0"	"FALSE"	"Windows 10"	"60.9"	"011"	n/a	n/a	n/a	n/a	n/a	n/a	"fixation"	n/a	n/a	n/a	n/a	"NULL"	n/a	"NULL"	"NULL"	"NULL"	"<p style=\"color: black; font-size: 80px; padding-left: 31%; padding-right: 10%; padding-top: 13%; padding-bottom: 13%\">+</p>"	"1442"	n/a	n/a	n/a	n/a	n/a	n/a	n/a	n/a	n/a
n/a	"image-keyboard-response"	"18"	"8031036"	"0.0-4.0-1.0-2.0-1.5"	"mdjbof"	"563"	"952"	"chrome"	"109.0.0"	"FALSE"	"Windows 10"	"60.9"	"011"	n/a	n/a	n/a	n/a	n/a	n/a	"Trial"	n/a	n/a	n/a	"427"	"arrowright"	n/a	"NULL"	"NULL"	"NULL"	"stimuli/Ebbinghaus_-100000_-1.4000.png"	n/a	"Ebbinghaus"	"arrowright"	"1450"	"TRUE"	"Ebbinghaus"	"-10000000000"	"-1.400000000"	"1"	"6"
n/a	"html-button-response"	"19"	"8034489"	"0.0-4.0-1.0-3.0"	"mdjbof"	"563"	"952"	"chrome"	"109.0.0"	"FALSE"	"Windows 10"	"60.9"	"011"	n/a	n/a	n/a	n/a	n/a	n/a	"practice_block_results"	n/a	n/a	n/a	"3452"	"0"	n/a	"NULL"	"NULL"	"NULL"	"<p style='color:rgb(76,175,80);'> Correct Responses: <b>100.00%</b></p><hr><p style='color:rgb(233,30,99);'> Average Response Time: <b>517.67</b> ms.</p>"	n/a	n/a	n/a	n/a	n/a	n/a	n/a	n/a	n/a	n/a
"TRUE"	"preload"	"20"	"8035026"	"0.0-4.0-2.0-0.0"	"mdjbof"	"563"	"952"	"chrome"	"109.0.0"	"FALSE"	"Windows 10"	"60.9"	"011"	n/a	n/a	n/a	n/a	n/a	n/a	n/a	n/a	n/a	n/a	n/a	"NULL"	"FALSE"	"list()"	"list()"	"list()"	n/a	n/a	n/a	n/a	n/a	n/a	n/a	n/a	n/a	n/a	n/a
n/a	"html-keyboard-response"	"21"	"8040934"	"0.0-4.0-2.0-1.0"	"mdjbof"	"563"	"952"	"chrome"	"109.0.0"	"FALSE"	"Windows 10"	"60.9"	"011"	n/a	n/a	n/a	n/a	n/a	n/a	n/a	n/a	n/a	n/a	"5908"	"enter"	n/a	"NULL"	"NULL"	"NULL"	"<p><b>Practice</b></p><p>In this part, two horizontal red lines will appear one above the other.</p><p>Your task is to select which <b>line is longer</b> in length as fast as you can, without making errors.</p><p>Don't get distracted by the surrounding black arrows at the end of the red lines!</p><p>Press <b>the UP or the DOWN arrow</b> to indicate where is the longer <b>red line.</b></p><div style='float: center'><img src='materials/instructions/MullerLyer_Demo.png' height='300'></img><p><img src='utils/answer/answer_updown_keyboard.PNG' height='150'></img></p><p class='small'>In this example, the correct answer is the <b>UP arrow</b>.</p></div><p>Are you ready? <b>Press ENTER to start</b></p>"	n/a	n/a	n/a	n/a	n/a	n/a	n/a	n/a	n/a	n/a
n/a	"html-keyboard-response"	"22"	"8042593"	"0.0-4.0-2.0-2.0-0.0"	"mdjbof"	"563"	"952"	"chrome"	"109.0.0"	"FALSE"	"Windows 10"	"60.9"	"011"	n/a	n/a	n/a	n/a	n/a	n/a	"fixation"	n/a	n/a	n/a	n/a	"NULL"	n/a	"NULL"	"NULL"	"NULL"	"<p style=\"color: black; font-size: 80px; padding-left: 1%; padding-right: 14%; padding-top: 37%; padding-bottom: 12%\">+</p>"	"1125"	n/a	n/a	n/a	n/a	n/a	n/a	n/a	n/a	n/a
n/a	"image-keyboard-response"	"23"	"8043274"	"0.0-4.0-2.0-2.0-1.0"	"mdjbof"	"563"	"952"	"chrome"	"109.0.0"	"FALSE"	"Windows 10"	"60.9"	"011"	n/a	n/a	n/a	n/a	n/a	n/a	"Trial"	n/a	n/a	n/a	"679"	"arrowdown"	n/a	"NULL"	"NULL"	"NULL"	"stimuli/MullerLyer_2300000_-0.7000.png"	n/a	"MullerLyer"	"arrowdown"	"1659"	"TRUE"	"MullerLyer"	"230000000000"	"-0.700000000"	"1"	"7"
n/a	"html-keyboard-response"	"24"	"8044387"	"0.0-4.0-2.0-2.0-0.1"	"mdjbof"	"563"	"952"	"chrome"	"109.0.0"	"FALSE"	"Windows 10"	"60.9"	"011"	n/a	n/a	n/a	n/a	n/a	n/a	"fixation"	n/a	n/a	n/a	n/a	"NULL"	n/a	"NULL"	"NULL"	"NULL"	"<p style=\"color: black; font-size: 80px; padding-left: 31%; padding-right: 30%; padding-top: 34%; padding-bottom: 14%\">+</p>"	"1103"	n/a	n/a	n/a	n/a	n/a	n/a	n/a	n/a	n/a
n/a	"image-keyboard-response"	"25"	"8044861"	"0.0-4.0-2.0-2.0-1.1"	"mdjbof"	"563"	"952"	"chrome"	"109.0.0"	"FALSE"	"Windows 10"	"60.9"	"011"	n/a	n/a	n/a	n/a	n/a	n/a	"Trial"	n/a	n/a	n/a	"472"	"arrowup"	n/a	"NULL"	"NULL"	"NULL"	"stimuli/MullerLyer_0000000_0.70000.png"	n/a	"MullerLyer"	"arrowup"	"1113"	"TRUE"	"MullerLyer"	"000000000000"	"0.7000000000"	"1"	"8"
n/a	"html-keyboard-response"	"26"	"8046209"	"0.0-4.0-2.0-2.0-0.2"	"mdjbof"	"563"	"952"	"chrome"	"109.0.0"	"FALSE"	"Windows 10"	"60.9"	"011"	n/a	n/a	n/a	n/a	n/a	n/a	"fixation"	n/a	n/a	n/a	n/a	"NULL"	n/a	"NULL"	"NULL"	"NULL"	"<p style=\"color: black; font-size: 80px; padding-left: 35%; padding-right: 45%; padding-top: 18%; padding-bottom: 43%\">+</p>"	"1338"	n/a	n/a	n/a	n/a	n/a	n/a	n/a	n/a	n/a
n/a	"image-keyboard-response"	"27"	"8046737"	"0.0-4.0-2.0-2.0-1.2"	"mdjbof"	"563"	"952"	"chrome"	"109.0.0"	"FALSE"	"Windows 10"	"60.9"	"011"	n/a	n/a	n/a	n/a	n/a	n/a	"Trial"	n/a	n/a	n/a	"526"	"arrowup"	n/a	"NULL"	"NULL"	"NULL"	"stimuli/MullerLyer_2300000_0.70000.png"	n/a	"MullerLyer"	"arrowup"	"1348"	"TRUE"	"MullerLyer"	"230000000000"	"0.7000000000"	"1"	"9"
n/a	"html-keyboard-response"	"28"	"8048161"	"0.0-4.0-2.0-2.0-0.3"	"mdjbof"	"563"	"952"	"chrome"	"109.0.0"	"FALSE"	"Windows 10"	"60.9"	"011"	n/a	n/a	n/a	n/a	n/a	n/a	"fixation"	n/a	n/a	n/a	n/a	"NULL"	n/a	"NULL"	"NULL"	"NULL"	"<p style=\"color: black; font-size: 80px; padding-left: 49%; padding-right: 27%; padding-top: 23%; padding-bottom: 34%\">+</p>"	"1411"	n/a	n/a	n/a	n/a	n/a	n/a	n/a	n/a	n/a
n/a	"image-keyboard-response"	"29"	"8048616"	"0.0-4.0-2.0-2.0-1.3"	"mdjbof"	"563"	"952"	"chrome"	"109.0.0"	"FALSE"	"Windows 10"	"60.9"	"011"	n/a	n/a	n/a	n/a	n/a	n/a	"Trial"	n/a	n/a	n/a	"455"	"arrowup"	n/a	"NULL"	"NULL"	"NULL"	"stimuli/MullerLyer_-230000_0.70000.png"	n/a	"MullerLyer"	"arrowup"	"1424"	"TRUE"	"MullerLyer"	"-23000000000"	"0.7000000000"	"1"	"10"
n/a	"html-keyboard-response"	"30"	"8050012"	"0.0-4.0-2.0-2.0-0.4"	"mdjbof"	"563"	"952"	"chrome"	"109.0.0"	"FALSE"	"Windows 10"	"60.9"	"011"	n/a	n/a	n/a	n/a	n/a	n/a	"fixation"	n/a	n/a	n/a	n/a	"NULL"	n/a	"NULL"	"NULL"	"NULL"	"<p style=\"color: black; font-size: 80px; padding-left: 6%; padding-right: 40%; padding-top: 31%; padding-bottom: 24%\">+</p>"	"1392"	n/a	n/a	n/a	n/a	n/a	n/a	n/a	n/a	n/a
n/a	"image-keyboard-response"	"31"	"8050458"	"0.0-4.0-2.0-2.0-1.4"	"mdjbof"	"563"	"952"	"chrome"	"109.0.0"	"FALSE"	"Windows 10"	"60.9"	"011"	n/a	n/a	n/a	n/a	n/a	n/a	"Trial"	n/a	n/a	n/a	"444"	"arrowdown"	n/a	"NULL"	"NULL"	"NULL"	"stimuli/MullerLyer_-230000_-0.7000.png"	n/a	"MullerLyer"	"arrowdown"	"1396"	"TRUE"	"MullerLyer"	"-23000000000"	"-0.700000000"	"1"	"11"
n/a	"html-keyboard-response"	"32"	"8051878"	"0.0-4.0-2.0-2.0-0.5"	"mdjbof"	"563"	"952"	"chrome"	"109.0.0"	"FALSE"	"Windows 10"	"60.9"	"011"	n/a	n/a	n/a	n/a	n/a	n/a	"fixation"	n/a	n/a	n/a	n/a	"NULL"	n/a	"NULL"	"NULL"	"NULL"	"<p style=\"color: black; font-size: 80px; padding-left: 5%; padding-right: 43%; padding-top: 20%; padding-bottom: 2%\">+</p>"	"1404"	n/a	n/a	n/a	n/a	n/a	n/a	n/a	n/a	n/a
n/a	"image-keyboard-response"	"33"	"8052386"	"0.0-4.0-2.0-2.0-1.5"	"mdjbof"	"563"	"952"	"chrome"	"109.0.0"	"FALSE"	"Windows 10"	"60.9"	"011"	n/a	n/a	n/a	n/a	n/a	n/a	"Trial"	n/a	n/a	n/a	"506"	"arrowdown"	n/a	"NULL"	"NULL"	"NULL"	"stimuli/MullerLyer_0000000_-0.7000.png"	n/a	"MullerLyer"	"arrowdown"	"1420"	"TRUE"	"MullerLyer"	"000000000000"	"-0.700000000"	"1"	"12"
n/a	"html-button-response"	"34"	"8054257"	"0.0-4.0-2.0-3.0"	"mdjbof"	"563"	"952"	"chrome"	"109.0.0"	"FALSE"	"Windows 10"	"60.9"	"011"	n/a	n/a	n/a	n/a	n/a	n/a	"practice_block_results"	n/a	n/a	n/a	"1870"	"0"	n/a	"NULL"	"NULL"	"NULL"	"<p style='color:rgb(76,175,80);'> Correct Responses: <b>100.00%</b></p><hr><p style='color:rgb(233,30,99);'> Average Response Time: <b>513.67</b> ms.</p>"	n/a	n/a	n/a	n/a	n/a	n/a	n/a	n/a	n/a	n/a
"TRUE"	"preload"	"35"	"8054793"	"0.0-4.0-3.0-0.0"	"mdjbof"	"563"	"952"	"chrome"	"109.0.0"	"FALSE"	"Windows 10"	"60.9"	"011"	n/a	n/a	n/a	n/a	n/a	n/a	n/a	n/a	n/a	n/a	n/a	"NULL"	"FALSE"	"list()"	"list()"	"list()"	n/a	n/a	n/a	n/a	n/a	n/a	n/a	n/a	n/a	n/a	n/a
n/a	"html-keyboard-response"	"36"	"8060024"	"0.0-4.0-3.0-1.0"	"mdjbof"	"563"	"952"	"chrome"	"109.0.0"	"FALSE"	"Windows 10"	"60.9"	"011"	n/a	n/a	n/a	n/a	n/a	n/a	n/a	n/a	n/a	n/a	"5230"	"enter"	n/a	"NULL"	"NULL"	"NULL"	"<p><b>Practice</b></p><p>In this part, two red lines will appear side by side.</p><p>Your task is to tell <b>which line is longer</b> in length, regardless of their orientation, as fast as you can, and without making errors.</p><p>Don't get distracted by the orientation of the lines!</p><p>Press <b>the LEFT or the RIGHT arrow</b> to indicate which <b>line is the longer one.</b></p><div style='float: center'><img src='materials/instructions/VerticalHorizontal_Demo.png' height='300'></img><p><img src='utils/answer/answer_leftright_keyboard.PNG' height='150'></img></p><p class='small'>In this example, the correct answer is the <b>LEFT arrow</b>.</p></div><p>Are you ready? <b>Press ENTER to start</b></p>"	n/a	n/a	n/a	n/a	n/a	n/a	n/a	n/a	n/a	n/a
n/a	"html-keyboard-response"	"37"	"8061826"	"0.0-4.0-3.0-2.0-0.0"	"mdjbof"	"563"	"952"	"chrome"	"109.0.0"	"FALSE"	"Windows 10"	"60.9"	"011"	n/a	n/a	n/a	n/a	n/a	n/a	"fixation"	n/a	n/a	n/a	n/a	"NULL"	n/a	"NULL"	"NULL"	"NULL"	"<p style=\"color: black; font-size: 80px; padding-left: 30%; padding-right: 14%; padding-top: 39%; padding-bottom: 2%\">+</p>"	"1276"	n/a	n/a	n/a	n/a	n/a	n/a	n/a	n/a	n/a
n/a	"image-keyboard-response"	"38"	"8062267"	"0.0-4.0-3.0-2.0-1.0"	"mdjbof"	"563"	"952"	"chrome"	"109.0.0"	"FALSE"	"Windows 10"	"60.9"	"011"	n/a	n/a	n/a	n/a	n/a	n/a	"Trial"	n/a	n/a	n/a	"440"	"arrowleft"	n/a	"NULL"	"NULL"	"NULL"	"stimuli/VerticalHorizontal_0000000_0.90000.png"	n/a	"VerticalHorizontal"	"arrowleft"	"1802"	"TRUE"	"VerticalHorizontal"	"000000000000"	"0.9000000000"	"1"	"13"
n/a	"html-keyboard-response"	"39"	"8063698"	"0.0-4.0-3.0-2.0-0.1"	"mdjbof"	"563"	"952"	"chrome"	"109.0.0"	"FALSE"	"Windows 10"	"60.9"	"011"	n/a	n/a	n/a	n/a	n/a	n/a	"fixation"	n/a	n/a	n/a	n/a	"NULL"	n/a	"NULL"	"NULL"	"NULL"	"<p style=\"color: black; font-size: 80px; padding-left: 39%; padding-right: 10%; padding-top: 42%; padding-bottom: 6%\">+</p>"	"1413"	n/a	n/a	n/a	n/a	n/a	n/a	n/a	n/a	n/a
n/a	"image-keyboard-response"	"40"	"8064049"	"0.0-4.0-3.0-2.0-1.1"	"mdjbof"	"563"	"952"	"chrome"	"109.0.0"	"FALSE"	"Windows 10"	"60.9"	"011"	n/a	n/a	n/a	n/a	n/a	n/a	"Trial"	n/a	n/a	n/a	"350"	"arrowleft"	n/a	"NULL"	"NULL"	"NULL"	"stimuli/VerticalHorizontal_3300000_-0.9000.png"	n/a	"VerticalHorizontal"	"arrowright"	"1431"	"FALSE"	"VerticalHorizontal"	"330000000000"	"-0.900000000"	"1"	"14"
n/a	"html-keyboard-response"	"41"	"8065066"	"0.0-4.0-3.0-2.0-0.2"	"mdjbof"	"563"	"952"	"chrome"	"109.0.0"	"FALSE"	"Windows 10"	"60.9"	"011"	n/a	n/a	n/a	n/a	n/a	n/a	"fixation"	n/a	n/a	n/a	n/a	"NULL"	n/a	"NULL"	"NULL"	"NULL"	"<p style=\"color: black; font-size: 80px; padding-left: 45%; padding-right: 18%; padding-top: 24%; padding-bottom: 8%\">+</p>"	"1009"	n/a	n/a	n/a	n/a	n/a	n/a	n/a	n/a	n/a
n/a	"image-keyboard-response"	"42"	"8065496"	"0.0-4.0-3.0-2.0-1.2"	"mdjbof"	"563"	"952"	"chrome"	"109.0.0"	"FALSE"	"Windows 10"	"60.9"	"011"	n/a	n/a	n/a	n/a	n/a	n/a	"Trial"	n/a	n/a	n/a	"429"	"arrowleft"	n/a	"NULL"	"NULL"	"NULL"	"stimuli/VerticalHorizontal_3300000_0.90000.png"	n/a	"VerticalHorizontal"	"arrowleft"	"1017"	"TRUE"	"VerticalHorizontal"	"330000000000"	"0.9000000000"	"1"	"15"
n/a	"html-keyboard-response"	"43"	"8066802"	"0.0-4.0-3.0-2.0-0.3"	"mdjbof"	"563"	"952"	"chrome"	"109.0.0"	"FALSE"	"Windows 10"	"60.9"	"011"	n/a	n/a	n/a	n/a	n/a	n/a	"fixation"	n/a	n/a	n/a	n/a	"NULL"	n/a	"NULL"	"NULL"	"NULL"	"<p style=\"color: black; font-size: 80px; padding-left: 13%; padding-right: 17%; padding-top: 18%; padding-bottom: 43%\">+</p>"	"1298"	n/a	n/a	n/a	n/a	n/a	n/a	n/a	n/a	n/a
n/a	"image-keyboard-response"	"44"	"8067139"	"0.0-4.0-3.0-2.0-1.3"	"mdjbof"	"563"	"952"	"chrome"	"109.0.0"	"FALSE"	"Windows 10"	"60.9"	"011"	n/a	n/a	n/a	n/a	n/a	n/a	"Trial"	n/a	n/a	n/a	"334"	"arrowright"	n/a	"NULL"	"NULL"	"NULL"	"stimuli/VerticalHorizontal_-330000_-0.9000.png"	n/a	"VerticalHorizontal"	"arrowright"	"1306"	"TRUE"	"VerticalHorizontal"	"-33000000000"	"-0.900000000"	"1"	"16"
n/a	"html-keyboard-response"	"45"	"8068591"	"0.0-4.0-3.0-2.0-0.4"	"mdjbof"	"563"	"952"	"chrome"	"109.0.0"	"FALSE"	"Windows 10"	"60.9"	"011"	n/a	n/a	n/a	n/a	n/a	n/a	"fixation"	n/a	n/a	n/a	n/a	"NULL"	n/a	"NULL"	"NULL"	"NULL"	"<p style=\"color: black; font-size: 80px; padding-left: 50%; padding-right: 36%; padding-top: 16%; padding-bottom: 19%\">+</p>"	"1446"	n/a	n/a	n/a	n/a	n/a	n/a	n/a	n/a	n/a
n/a	"image-keyboard-response"	"46"	"8068972"	"0.0-4.0-3.0-2.0-1.4"	"mdjbof"	"563"	"952"	"chrome"	"109.0.0"	"FALSE"	"Windows 10"	"60.9"	"011"	n/a	n/a	n/a	n/a	n/a	n/a	"Trial"	n/a	n/a	n/a	"380"	"arrowright"	n/a	"NULL"	"NULL"	"NULL"	"stimuli/VerticalHorizontal_0000000_-0.9000.png"	n/a	"VerticalHorizontal"	"arrowright"	"1452"	"TRUE"	"VerticalHorizontal"	"000000000000"	"-0.900000000"	"1"	"17"
n/a	"html-keyboard-response"	"47"	"8070235"	"0.0-4.0-3.0-2.0-0.5"	"mdjbof"	"563"	"952"	"chrome"	"109.0.0"	"FALSE"	"Windows 10"	"60.9"	"011"	n/a	n/a	n/a	n/a	n/a	n/a	"fixation"	n/a	n/a	n/a	n/a	"NULL"	n/a	"NULL"	"NULL"	"NULL"	"<p style=\"color: black; font-size: 80px; padding-left: 33%; padding-right: 22%; padding-top: 5%; padding-bottom: 12%\">+</p>"	"1250"	n/a	n/a	n/a	n/a	n/a	n/a	n/a	n/a	n/a
n/a	"image-keyboard-response"	"48"	"8070572"	"0.0-4.0-3.0-2.0-1.5"	"mdjbof"	"563"	"952"	"chrome"	"109.0.0"	"FALSE"	"Windows 10"	"60.9"	"011"	n/a	n/a	n/a	n/a	n/a	n/a	"Trial"	n/a	n/a	n/a	"336"	"arrowleft"	n/a	"NULL"	"NULL"	"NULL"	"stimuli/VerticalHorizontal_-330000_0.90000.png"	n/a	"VerticalHorizontal"	"arrowleft"	"1263"	"TRUE"	"VerticalHorizontal"	"-33000000000"	"0.9000000000"	"1"	"18"
n/a	"html-button-response"	"49"	"8072290"	"0.0-4.0-3.0-3.0"	"mdjbof"	"563"	"952"	"chrome"	"109.0.0"	"FALSE"	"Windows 10"	"60.9"	"011"	n/a	n/a	n/a	n/a	n/a	n/a	"practice_block_results"	n/a	n/a	n/a	"1716"	"0"	n/a	"NULL"	"NULL"	"NULL"	"<p style='color:rgb(76,175,80);'> Correct Responses: <b>83.33%</b></p><hr><p style='color:rgb(233,30,99);'> Average Response Time: <b>378.17</b> ms.</p>"	n/a	n/a	n/a	n/a	n/a	n/a	n/a	n/a	n/a	n/a
n/a	"html-button-response"	"50"	"8146993"	"0.0-4.0-4.0"	"mdjbof"	"563"	"952"	"chrome"	"109.0.0"	"FALSE"	"Windows 10"	"60.9"	"011"	n/a	n/a	n/a	n/a	n/a	n/a	"practice_debrief"	n/a	n/a	n/a	"74195"	"0"	n/a	"NULL"	"NULL"	"NULL"	"<p><b>TRAINING COMPLETED</b></p><p>In the next phase, there will be more trials, and some might be harder too.<br> Moreover, after each illusion block, a <b>score</b> will be calculated based on speed (time you took to answer) and accuracy (number of errors).</p><p>Try to keep up a high score!</p><br><p>Note that it can be <i>really</i> challenging at times, so you will need to rely on your <b>intuition</b> and gut feeling to answer as fast as you can without making errors.</p><p>Each illusion block will be repeated two times (so that you have the opportunity to improve your score), but the order of the blocks is random.</p><p>Remember, your goal is to be as <b>fast</b> and <b>accurate</b> as possible. Good luck!</p><br>"	n/a	n/a	n/a	n/a	n/a	n/a	n/a	n/a	n/a	n/a
"TRUE"	"preload"	"51"	"8147139"	"0.0-5.0-0.0"	"mdjbof"	"563"	"952"	"chrome"	"109.0.0"	"FALSE"	"Windows 10"	"60.9"	"011"	n/a	n/a	n/a	n/a	n/a	n/a	n/a	n/a	n/a	n/a	n/a	"NULL"	"FALSE"	"list()"	"list()"	"list()"	n/a	n/a	n/a	n/a	n/a	n/a	n/a	n/a	n/a	n/a	n/a
n/a	"html-keyboard-response"	"52"	"8150318"	"0.0-5.0-1.0"	"mdjbof"	"563"	"952"	"chrome"	"109.0.0"	"FALSE"	"Windows 10"	"60.9"	"011"	n/a	n/a	n/a	n/a	n/a	n/a	n/a	n/a	n/a	n/a	"3179"	"enter"	n/a	"NULL"	"NULL"	"NULL"	"<p><b>Part 1/6</b></p><p>In this part, two red lines will appear side by side.</p><p>Your task is to tell <b>which line is longer</b> in length, regardless of their orientation, as fast as you can, and without making errors.</p><p>Don't get distracted by the orientation of the lines!</p><p>Press <b>the LEFT or the RIGHT arrow</b> to indicate which <b>line is the longer one.</b></p><div style='float: center'><img src='materials/instructions/VerticalHorizontal_Demo.png' height='300'></img><p><img src='utils/answer/answer_leftright_keyboard.PNG' height='150'></img></p><p class='small'>In this example, the correct answer is the <b>LEFT arrow</b>.</p></div><p>Are you ready? <b>Press ENTER to start</b></p>"	n/a	n/a	n/a	n/a	n/a	n/a	n/a	n/a	n/a	n/a
n/a	"html-keyboard-response"	"53"	"8151899"	"0.0-5.0-2.0-0.0"	"mdjbof"	"563"	"952"	"chrome"	"109.0.0"	"FALSE"	"Windows 10"	"60.9"	"011"	n/a	n/a	n/a	n/a	n/a	n/a	"fixation"	n/a	n/a	n/a	n/a	"NULL"	n/a	"NULL"	"NULL"	"NULL"	"<p style=\"color: black; font-size: 80px; padding-left: 0%; padding-right: 8%; padding-top: 7%; padding-bottom: 45%\">+</p>"	"1051"	n/a	n/a	n/a	n/a	n/a	n/a	n/a	n/a	n/a
n/a	"image-keyboard-response"	"54"	"8152296"	"0.0-5.0-2.0-1.0"	"mdjbof"	"563"	"952"	"chrome"	"109.0.0"	"FALSE"	"Windows 10"	"60.9"	"011"	n/a	n/a	n/a	n/a	n/a	n/a	"Trial"	n/a	n/a	n/a	"396"	"arrowleft"	n/a	"NULL"	"NULL"	"NULL"	"stimuli/VerticalHorizontal_28.75714_-0.1096.png"	n/a	"VerticalHorizontal"	"arrowright"	"1581"	"FALSE"	"VerticalHorizontal"	"28.757140000"	"-0.109600000"	"1"	"19"
n/a	"html-keyboard-response"	"55"	"8153465"	"0.0-5.0-2.0-0.1"	"mdjbof"	"563"	"952"	"chrome"	"109.0.0"	"FALSE"	"Windows 10"	"60.9"	"011"	n/a	n/a	n/a	n/a	n/a	n/a	"fixation"	n/a	n/a	n/a	n/a	"NULL"	n/a	"NULL"	"NULL"	"NULL"	"<p style=\"color: black; font-size: 80px; padding-left: 34%; padding-right: 0%; padding-top: 43%; padding-bottom: 31%\">+</p>"	"1155"	n/a	n/a	n/a	n/a	n/a	n/a	n/a	n/a	n/a
n/a	"image-keyboard-response"	"56"	"8153841"	"0.0-5.0-2.0-1.1"	"mdjbof"	"563"	"952"	"chrome"	"109.0.0"	"FALSE"	"Windows 10"	"60.9"	"011"	n/a	n/a	n/a	n/a	n/a	n/a	"Trial"	n/a	n/a	n/a	"375"	"arrowleft"	n/a	"NULL"	"NULL"	"NULL"	"stimuli/VerticalHorizontal_28.75714_-0.16217.png"	n/a	"VerticalHorizontal"	"arrowright"	"1169"	"FALSE"	"VerticalHorizontal"	"28.757140000"	"-0.162170000"	"1"	"20"
n/a	"html-keyboard-response"	"57"	"8155331"	"0.0-5.0-2.0-0.2"	"mdjbof"	"563"	"952"	"chrome"	"109.0.0"	"FALSE"	"Windows 10"	"60.9"	"011"	n/a	n/a	n/a	n/a	n/a	n/a	"fixation"	n/a	n/a	n/a	n/a	"NULL"	n/a	"NULL"	"NULL"	"NULL"	"<p style=\"color: black; font-size: 80px; padding-left: 6%; padding-right: 23%; padding-top: 15%; padding-bottom: 31%\">+</p>"	"1471"	n/a	n/a	n/a	n/a	n/a	n/a	n/a	n/a	n/a
n/a	"image-keyboard-response"	"58"	"8155721"	"0.0-5.0-2.0-1.2"	"mdjbof"	"563"	"952"	"chrome"	"109.0.0"	"FALSE"	"Windows 10"	"60.9"	"011"	n/a	n/a	n/a	n/a	n/a	n/a	"Trial"	n/a	n/a	n/a	"389"	"arrowleft"	n/a	"NULL"	"NULL"	"NULL"	"stimuli/VerticalHorizontal_3.30000_0.16217.png"	n/a	"VerticalHorizontal"	"arrowleft"	"1490"	"TRUE"	"VerticalHorizontal"	"3.3000000000"	"0.1621700000"	"1"	"21"
n/a	"html-keyboard-response"	"59"	"8156949"	"0.0-5.0-2.0-0.3"	"mdjbof"	"563"	"952"	"chrome"	"109.0.0"	"FALSE"	"Windows 10"	"60.9"	"011"	n/a	n/a	n/a	n/a	n/a	n/a	"fixation"	n/a	n/a	n/a	n/a	"NULL"	n/a	"NULL"	"NULL"	"NULL"	"<p style=\"color: black; font-size: 80px; padding-left: 11%; padding-right: 10%; padding-top: 7%; padding-bottom: 43%\">+</p>"	"1226"	n/a	n/a	n/a	n/a	n/a	n/a	n/a	n/a	n/a
n/a	"image-keyboard-response"	"60"	"8157294"	"0.0-5.0-2.0-1.3"	"mdjbof"	"563"	"952"	"chrome"	"109.0.0"	"FALSE"	"Windows 10"	"60.9"	"011"	n/a	n/a	n/a	n/a	n/a	n/a	"Trial"	n/a	n/a	n/a	"344"	"arrowleft"	n/a	"NULL"	"NULL"	"NULL"	"stimuli/VerticalHorizontal_-20.27143_0.16217.png"	n/a	"VerticalHorizontal"	"arrowleft"	"1228"	"TRUE"	"VerticalHorizontal"	"-20.27143000"	"0.1621700000"	"1"	"22"
n/a	"html-keyboard-response"	"61"	"8158429"	"0.0-5.0-2.0-0.4"	"mdjbof"	"563"	"952"	"chrome"	"109.0.0"	"FALSE"	"Windows 10"	"60.9"	"011"	n/a	n/a	n/a	n/a	n/a	n/a	"fixation"	n/a	n/a	n/a	n/a	"NULL"	n/a	"NULL"	"NULL"	"NULL"	"<p style=\"color: black; font-size: 80px; padding-left: 33%; padding-right: 11%; padding-top: 20%; padding-bottom: 18%\">+</p>"	"1126"	n/a	n/a	n/a	n/a	n/a	n/a	n/a	n/a	n/a
n/a	"image-keyboard-response"	"62"	"8158781"	"0.0-5.0-2.0-1.4"	"mdjbof"	"563"	"952"	"chrome"	"109.0.0"	"FALSE"	"Windows 10"	"60.9"	"011"	n/a	n/a	n/a	n/a	n/a	n/a	"Trial"	n/a	n/a	n/a	"351"	"arrowright"	n/a	"NULL"	"NULL"	"NULL"	"stimuli/VerticalHorizontal_-20.27143_-0.2250.png"	n/a	"VerticalHorizontal"	"arrowright"	"1135"	"TRUE"	"VerticalHorizontal"	"-20.27143000"	"-0.225000000"	"1"	"23"
n/a	"html-keyboard-response"	"63"	"8160117"	"0.0-5.0-2.0-0.5"	"mdjbof"	"563"	"952"	"chrome"	"109.0.0"	"FALSE"	"Windows 10"	"60.9"	"011"	n/a	n/a	n/a	n/a	n/a	n/a	"fixation"	n/a	n/a	n/a	n/a	"NULL"	n/a	"NULL"	"NULL"	"NULL"	"<p style=\"color: black; font-size: 80px; padding-left: 4%; padding-right: 0%; padding-top: 8%; padding-bottom: 34%\">+</p>"	"1326"	n/a	n/a	n/a	n/a	n/a	n/a	n/a	n/a	n/a
n/a	"image-keyboard-response"	"64"	"8160472"	"0.0-5.0-2.0-1.5"	"mdjbof"	"563"	"952"	"chrome"	"109.0.0"	"FALSE"	"Windows 10"	"60.9"	"011"	n/a	n/a	n/a	n/a	n/a	n/a	"Trial"	n/a	n/a	n/a	"354"	"arrowright"	n/a	"NULL"	"NULL"	"NULL"	"stimuli/VerticalHorizontal_3.30000_0.06730.png"	n/a	"VerticalHorizontal"	"arrowleft"	"1336"	"FALSE"	"VerticalHorizontal"	"3.3000000000"	"0.0673000000"	"1"	"24"
n/a	"html-keyboard-response"	"65"	"8161499"	"0.0-5.0-2.0-0.6"	"mdjbof"	"563"	"952"	"chrome"	"109.0.0"	"FALSE"	"Windows 10"	"60.9"	"011"	n/a	n/a	n/a	n/a	n/a	n/a	"fixation"	n/a	n/a	n/a	n/a	"NULL"	n/a	"NULL"	"NULL"	"NULL"	"<p style=\"color: black; font-size: 80px; padding-left: 12%; padding-right: 10%; padding-top: 11%; padding-bottom: 19%\">+</p>"	"1008"	n/a	n/a	n/a	n/a	n/a	n/a	n/a	n/a	n/a
n/a	"image-keyboard-response"	"66"	"8161899"	"0.0-5.0-2.0-1.6"	"mdjbof"	"563"	"952"	"chrome"	"109.0.0"	"FALSE"	"Windows 10"	"60.9"	"011"	n/a	n/a	n/a	n/a	n/a	n/a	"Trial"	n/a	n/a	n/a	"399"	"arrowleft"	n/a	"NULL"	"NULL"	"NULL"	"stimuli/VerticalHorizontal_-20.27143_0.10960.png"	n/a	"VerticalHorizontal"	"arrowleft"	"1027"	"TRUE"	"VerticalHorizontal"	"-20.27143000"	"0.1096000000"	"1"	"25"
n/a	"html-keyboard-response"	"67"	"8162934"	"0.0-5.0-2.0-0.7"	"mdjbof"	"563"	"952"	"chrome"	"109.0.0"	"FALSE"	"Windows 10"	"60.9"	"011"	n/a	n/a	n/a	n/a	n/a	n/a	"fixation"	n/a	n/a	n/a	n/a	"NULL"	n/a	"NULL"	"NULL"	"NULL"	"<p style=\"color: black; font-size: 80px; padding-left: 49%; padding-right: 24%; padding-top: 27%; padding-bottom: 7%\">+</p>"	"1021"	n/a	n/a	n/a	n/a	n/a	n/a	n/a	n/a	n/a
n/a	"image-keyboard-response"	"68"	"8163323"	"0.0-5.0-2.0-1.7"	"mdjbof"	"563"	"952"	"chrome"	"109.0.0"	"FALSE"	"Windows 10"	"60.9"	"011"	n/a	n/a	n/a	n/a	n/a	n/a	"Trial"	n/a	n/a	n/a	"389"	"arrowright"	n/a	"NULL"	"NULL"	"NULL"	"stimuli/VerticalHorizontal_-20.27143_-0.1096.png"	n/a	"VerticalHorizontal"	"arrowright"	"1035"	"TRUE"	"VerticalHorizontal"	"-20.27143000"	"-0.109600000"	"1"	"26"
n/a	"html-keyboard-response"	"69"	"8164389"	"0.0-5.0-2.0-0.8"	"mdjbof"	"563"	"952"	"chrome"	"109.0.0"	"FALSE"	"Windows 10"	"60.9"	"011"	n/a	n/a	n/a	n/a	n/a	n/a	"fixation"	n/a	n/a	n/a	n/a	"NULL"	n/a	"NULL"	"NULL"	"NULL"	"<p style=\"color: black; font-size: 80px; padding-left: 3%; padding-right: 41%; padding-top: 15%; padding-bottom: 33%\">+</p>"	"1051"	n/a	n/a	n/a	n/a	n/a	n/a	n/a	n/a	n/a
n/a	"image-keyboard-response"	"70"	"8164815"	"0.0-5.0-2.0-1.8"	"mdjbof"	"563"	"952"	"chrome"	"109.0.0"	"FALSE"	"Windows 10"	"60.9"	"011"	n/a	n/a	n/a	n/a	n/a	n/a	"Trial"	n/a	n/a	n/a	"424"	"arrowright"	n/a	"NULL"	"NULL"	"NULL"	"stimuli/VerticalHorizontal_11.78571_0.10960.png"	n/a	"VerticalHorizontal"	"arrowleft"	"1066"	"FALSE"	"VerticalHorizontal"	"11.785710000"	"0.1096000000"	"1"	"27"
n/a	"html-keyboard-response"	"71"	"8166192"	"0.0-5.0-2.0-0.9"	"mdjbof"	"563"	"952"	"chrome"	"109.0.0"	"FALSE"	"Windows 10"	"60.9"	"011"	n/a	n/a	n/a	n/a	n/a	n/a	"fixation"	n/a	n/a	n/a	n/a	"NULL"	n/a	"NULL"	"NULL"	"NULL"	"<p style=\"color: black; font-size: 80px; padding-left: 7%; padding-right: 18%; padding-top: 17%; padding-bottom: 39%\">+</p>"	"1364"	n/a	n/a	n/a	n/a	n/a	n/a	n/a	n/a	n/a
n/a	"image-keyboard-response"	"72"	"8166640"	"0.0-5.0-2.0-1.9"	"mdjbof"	"563"	"952"	"chrome"	"109.0.0"	"FALSE"	"Windows 10"	"60.9"	"011"	n/a	n/a	n/a	n/a	n/a	n/a	"Trial"	n/a	n/a	n/a	"446"	"arrowleft"	n/a	"NULL"	"NULL"	"NULL"	"stimuli/VerticalHorizontal_-28.75714_0.16217.png"	n/a	"VerticalHorizontal"	"arrowleft"	"1377"	"TRUE"	"VerticalHorizontal"	"-28.75714000"	"0.1621700000"	"1"	"28"
n/a	"html-keyboard-response"	"73"	"8167873"	"0.0-5.0-2.0-0.10"	"mdjbof"	"563"	"952"	"chrome"	"109.0.0"	"FALSE"	"Windows 10"	"60.9"	"011"	n/a	n/a	n/a	n/a	n/a	n/a	"fixation"	n/a	n/a	n/a	n/a	"NULL"	n/a	"NULL"	"NULL"	"NULL"	"<p style=\"color: black; font-size: 80px; padding-left: 20%; padding-right: 40%; padding-top: 40%; padding-bottom: 47%\">+</p>"	"1224"	n/a	n/a	n/a	n/a	n/a	n/a	n/a	n/a	n/a
n/a	"image-keyboard-response"	"74"	"8168524"	"0.0-5.0-2.0-1.10"	"mdjbof"	"563"	"952"	"chrome"	"109.0.0"	"FALSE"	"Windows 10"	"60.9"	"011"	n/a	n/a	n/a	n/a	n/a	n/a	"Trial"	n/a	n/a	n/a	"649"	"arrowright"	n/a	"NULL"	"NULL"	"NULL"	"stimuli/VerticalHorizontal_3.30000_-0.16217.png"	n/a	"VerticalHorizontal"	"arrowright"	"1233"	"TRUE"	"VerticalHorizontal"	"3.3000000000"	"-0.162170000"	"1"	"29"
n/a	"html-keyboard-response"	"75"	"8169650"	"0.0-5.0-2.0-0.11"	"mdjbof"	"563"	"952"	"chrome"	"109.0.0"	"FALSE"	"Windows 10"	"60.9"	"011"	n/a	n/a	n/a	n/a	n/a	n/a	"fixation"	n/a	n/a	n/a	n/a	"NULL"	n/a	"NULL"	"NULL"	"NULL"	"<p style=\"color: black; font-size: 80px; padding-left: 35%; padding-right: 50%; padding-top: 24%; padding-bottom: 30%\">+</p>"	"1110"	n/a	n/a	n/a	n/a	n/a	n/a	n/a	n/a	n/a
n/a	"image-keyboard-response"	"76"	"8170272"	"0.0-5.0-2.0-1.11"	"mdjbof"	"563"	"952"	"chrome"	"109.0.0"	"FALSE"	"Windows 10"	"60.9"	"011"	n/a	n/a	n/a	n/a	n/a	n/a	"Trial"	n/a	n/a	n/a	"621"	"arrowright"	n/a	"NULL"	"NULL"	"NULL"	"stimuli/VerticalHorizontal_20.27143_0.06730.png"	n/a	"VerticalHorizontal"	"arrowleft"	"1126"	"FALSE"	"VerticalHorizontal"	"20.271430000"	"0.0673000000"	"1"	"30"
n/a	"html-keyboard-response"	"77"	"8171641"	"0.0-5.0-2.0-0.12"	"mdjbof"	"563"	"952"	"chrome"	"109.0.0"	"FALSE"	"Windows 10"	"60.9"	"011"	n/a	n/a	n/a	n/a	n/a	n/a	"fixation"	n/a	n/a	n/a	n/a	"NULL"	n/a	"NULL"	"NULL"	"NULL"	"<p style=\"color: black; font-size: 80px; padding-left: 44%; padding-right: 22%; padding-top: 33%; padding-bottom: 41%\">+</p>"	"1356"	n/a	n/a	n/a	n/a	n/a	n/a	n/a	n/a	n/a
n/a	"image-keyboard-response"	"78"	"8171986"	"0.0-5.0-2.0-1.12"	"mdjbof"	"563"	"952"	"chrome"	"109.0.0"	"FALSE"	"Windows 10"	"60.9"	"011"	n/a	n/a	n/a	n/a	n/a	n/a	"Trial"	n/a	n/a	n/a	"339"	"arrowright"	n/a	"NULL"	"NULL"	"NULL"	"stimuli/VerticalHorizontal_-28.75714_-0.0673.png"	n/a	"VerticalHorizontal"	"arrowright"	"1369"	"TRUE"	"VerticalHorizontal"	"-28.75714000"	"-0.067300000"	"1"	"31"
n/a	"html-keyboard-response"	"79"	"8173210"	"0.0-5.0-2.0-0.13"	"mdjbof"	"563"	"952"	"chrome"	"109.0.0"	"FALSE"	"Windows 10"	"60.9"	"011"	n/a	n/a	n/a	n/a	n/a	n/a	"fixation"	n/a	n/a	n/a	n/a	"NULL"	n/a	"NULL"	"NULL"	"NULL"	"<p style=\"color: black; font-size: 80px; padding-left: 45%; padding-right: 33%; padding-top: 0%; padding-bottom: 4%\">+</p>"	"1217"	n/a	n/a	n/a	n/a	n/a	n/a	n/a	n/a	n/a
n/a	"image-keyboard-response"	"80"	"8173534"	"0.0-5.0-2.0-1.13"	"mdjbof"	"563"	"952"	"chrome"	"109.0.0"	"FALSE"	"Windows 10"	"60.9"	"011"	n/a	n/a	n/a	n/a	n/a	n/a	"Trial"	n/a	n/a	n/a	"323"	"arrowright"	n/a	"NULL"	"NULL"	"NULL"	"stimuli/VerticalHorizontal_-28.75714_-0.2250.png"	n/a	"VerticalHorizontal"	"arrowright"	"1224"	"TRUE"	"VerticalHorizontal"	"-28.75714000"	"-0.225000000"	"1"	"32"
n/a	"html-keyboard-response"	"81"	"8174737"	"0.0-5.0-2.0-0.14"	"mdjbof"	"563"	"952"	"chrome"	"109.0.0"	"FALSE"	"Windows 10"	"60.9"	"011"	n/a	n/a	n/a	n/a	n/a	n/a	"fixation"	n/a	n/a	n/a	n/a	"NULL"	n/a	"NULL"	"NULL"	"NULL"	"<p style=\"color: black; font-size: 80px; padding-left: 3%; padding-right: 44%; padding-top: 43%; padding-bottom: 21%\">+</p>"	"1194"	n/a	n/a	n/a	n/a	n/a	n/a	n/a	n/a	n/a
n/a	"image-keyboard-response"	"82"	"8175132"	"0.0-5.0-2.0-1.14"	"mdjbof"	"563"	"952"	"chrome"	"109.0.0"	"FALSE"	"Windows 10"	"60.9"	"011"	n/a	n/a	n/a	n/a	n/a	n/a	"Trial"	n/a	n/a	n/a	"393"	"arrowleft"	n/a	"NULL"	"NULL"	"NULL"	"stimuli/VerticalHorizontal_-11.78571_0.16217.png"	n/a	"VerticalHorizontal"	"arrowleft"	"1203"	"TRUE"	"VerticalHorizontal"	"-11.78571000"	"0.1621700000"	"1"	"33"
n/a	"html-keyboard-response"	"83"	"8176465"	"0.0-5.0-2.0-0.15"	"mdjbof"	"563"	"952"	"chrome"	"109.0.0"	"FALSE"	"Windows 10"	"60.9"	"011"	n/a	n/a	n/a	n/a	n/a	n/a	"fixation"	n/a	n/a	n/a	n/a	"NULL"	n/a	"NULL"	"NULL"	"NULL"	"<p style=\"color: black; font-size: 80px; padding-left: 15%; padding-right: 10%; padding-top: 3%; padding-bottom: 26%\">+</p>"	"1310"	n/a	n/a	n/a	n/a	n/a	n/a	n/a	n/a	n/a
n/a	"image-keyboard-response"	"84"	"8176832"	"0.0-5.0-2.0-1.15"	"mdjbof"	"563"	"952"	"chrome"	"109.0.0"	"FALSE"	"Windows 10"	"60.9"	"011"	n/a	n/a	n/a	n/a	n/a	n/a	"Trial"	n/a	n/a	n/a	"365"	"arrowleft"	n/a	"NULL"	"NULL"	"NULL"	"stimuli/VerticalHorizontal_-11.78571_0.22500.png"	n/a	"VerticalHorizontal"	"arrowleft"	"1333"	"TRUE"	"VerticalHorizontal"	"-11.78571000"	"0.2250000000"	"1"	"34"
n/a	"html-keyboard-response"	"85"	"8178248"	"0.0-5.0-2.0-0.16"	"mdjbof"	"563"	"952"	"chrome"	"109.0.0"	"FALSE"	"Windows 10"	"60.9"	"011"	n/a	n/a	n/a	n/a	n/a	n/a	"fixation"	n/a	n/a	n/a	n/a	"NULL"	n/a	"NULL"	"NULL"	"NULL"	"<p style=\"color: black; font-size: 80px; padding-left: 34%; padding-right: 48%; padding-top: 37%; padding-bottom: 33%\">+</p>"	"1398"	n/a	n/a	n/a	n/a	n/a	n/a	n/a	n/a	n/a
n/a	"image-keyboard-response"	"86"	"8178666"	"0.0-5.0-2.0-1.16"	"mdjbof"	"563"	"952"	"chrome"	"109.0.0"	"FALSE"	"Windows 10"	"60.9"	"011"	n/a	n/a	n/a	n/a	n/a	n/a	"Trial"	n/a	n/a	n/a	"417"	"arrowright"	n/a	"NULL"	"NULL"	"NULL"	"stimuli/VerticalHorizontal_28.75714_0.16217.png"	n/a	"VerticalHorizontal"	"arrowleft"	"1416"	"FALSE"	"VerticalHorizontal"	"28.757140000"	"0.1621700000"	"1"	"35"
n/a	"html-keyboard-response"	"87"	"8179838"	"0.0-5.0-2.0-0.17"	"mdjbof"	"563"	"952"	"chrome"	"109.0.0"	"FALSE"	"Windows 10"	"60.9"	"011"	n/a	n/a	n/a	n/a	n/a	n/a	"fixation"	n/a	n/a	n/a	n/a	"NULL"	n/a	"NULL"	"NULL"	"NULL"	"<p style=\"color: black; font-size: 80px; padding-left: 26%; padding-right: 45%; padding-top: 18%; padding-bottom: 46%\">+</p>"	"1160"	n/a	n/a	n/a	n/a	n/a	n/a	n/a	n/a	n/a
n/a	"image-keyboard-response"	"88"	"8180354"	"0.0-5.0-2.0-1.17"	"mdjbof"	"563"	"952"	"chrome"	"109.0.0"	"FALSE"	"Windows 10"	"60.9"	"011"	n/a	n/a	n/a	n/a	n/a	n/a	"Trial"	n/a	n/a	n/a	"515"	"arrowright"	n/a	"NULL"	"NULL"	"NULL"	"stimuli/VerticalHorizontal_3.30000_-0.1096.png"	n/a	"VerticalHorizontal"	"arrowright"	"1172"	"TRUE"	"VerticalHorizontal"	"3.3000000000"	"-0.109600000"	"1"	"36"
n/a	"html-keyboard-response"	"89"	"8181752"	"0.0-5.0-2.0-0.18"	"mdjbof"	"563"	"952"	"chrome"	"109.0.0"	"FALSE"	"Windows 10"	"60.9"	"011"	n/a	n/a	n/a	n/a	n/a	n/a	"fixation"	n/a	n/a	n/a	n/a	"NULL"	n/a	"NULL"	"NULL"	"NULL"	"<p style=\"color: black; font-size: 80px; padding-left: 42%; padding-right: 36%; padding-top: 40%; padding-bottom: 15%\">+</p>"	"1385"	n/a	n/a	n/a	n/a	n/a	n/a	n/a	n/a	n/a
n/a	"image-keyboard-response"	"90"	"8182150"	"0.0-5.0-2.0-1.18"	"mdjbof"	"563"	"952"	"chrome"	"109.0.0"	"FALSE"	"Windows 10"	"60.9"	"011"	n/a	n/a	n/a	n/a	n/a	n/a	"Trial"	n/a	n/a	n/a	"397"	"arrowleft"	n/a	"NULL"	"NULL"	"NULL"	"stimuli/VerticalHorizontal_-28.75714_0.06730.png"	n/a	"VerticalHorizontal"	"arrowleft"	"1398"	"TRUE"	"VerticalHorizontal"	"-28.75714000"	"0.0673000000"	"1"	"37"
n/a	"html-keyboard-response"	"91"	"8183606"	"0.0-5.0-2.0-0.19"	"mdjbof"	"563"	"952"	"chrome"	"109.0.0"	"FALSE"	"Windows 10"	"60.9"	"011"	n/a	n/a	n/a	n/a	n/a	n/a	"fixation"	n/a	n/a	n/a	n/a	"NULL"	n/a	"NULL"	"NULL"	"NULL"	"<p style=\"color: black; font-size: 80px; padding-left: 4%; padding-right: 34%; padding-top: 16%; padding-bottom: 15%\">+</p>"	"1451"	n/a	n/a	n/a	n/a	n/a	n/a	n/a	n/a	n/a
n/a	"image-keyboard-response"	"92"	"8184068"	"0.0-5.0-2.0-1.19"	"mdjbof"	"563"	"952"	"chrome"	"109.0.0"	"FALSE"	"Windows 10"	"60.9"	"011"	n/a	n/a	n/a	n/a	n/a	n/a	"Trial"	n/a	n/a	n/a	"461"	"arrowright"	n/a	"NULL"	"NULL"	"NULL"	"stimuli/VerticalHorizontal_11.78571_-0.0673.png"	n/a	"VerticalHorizontal"	"arrowright"	"1456"	"TRUE"	"VerticalHorizontal"	"11.785710000"	"-0.067300000"	"1"	"38"
n/a	"html-keyboard-response"	"93"	"8185303"	"0.0-5.0-2.0-0.20"	"mdjbof"	"563"	"952"	"chrome"	"109.0.0"	"FALSE"	"Windows 10"	"60.9"	"011"	n/a	n/a	n/a	n/a	n/a	n/a	"fixation"	n/a	n/a	n/a	n/a	"NULL"	n/a	"NULL"	"NULL"	"NULL"	"<p style=\"color: black; font-size: 80px; padding-left: 43%; padding-right: 41%; padding-top: 36%; padding-bottom: 10%\">+</p>"	"1231"	n/a	n/a	n/a	n/a	n/a	n/a	n/a	n/a	n/a
n/a	"image-keyboard-response"	"94"	"8185784"	"0.0-5.0-2.0-1.20"	"mdjbof"	"563"	"952"	"chrome"	"109.0.0"	"FALSE"	"Windows 10"	"60.9"	"011"	n/a	n/a	n/a	n/a	n/a	n/a	"Trial"	n/a	n/a	n/a	"480"	"arrowleft"	n/a	"NULL"	"NULL"	"NULL"	"stimuli/VerticalHorizontal_-3.3000_0.16217.png"	n/a	"VerticalHorizontal"	"arrowleft"	"1235"	"TRUE"	"VerticalHorizontal"	"-3.300000000"	"0.1621700000"	"1"	"39"
n/a	"html-keyboard-response"	"95"	"8186974"	"0.0-5.0-2.0-0.21"	"mdjbof"	"563"	"952"	"chrome"	"109.0.0"	"FALSE"	"Windows 10"	"60.9"	"011"	n/a	n/a	n/a	n/a	n/a	n/a	"fixation"	n/a	n/a	n/a	n/a	"NULL"	n/a	"NULL"	"NULL"	"NULL"	"<p style=\"color: black; font-size: 80px; padding-left: 34%; padding-right: 20%; padding-top: 33%; padding-bottom: 10%\">+</p>"	"1178"	n/a	n/a	n/a	n/a	n/a	n/a	n/a	n/a	n/a
n/a	"image-keyboard-response"	"96"	"8187524"	"0.0-5.0-2.0-1.21"	"mdjbof"	"563"	"952"	"chrome"	"109.0.0"	"FALSE"	"Windows 10"	"60.9"	"011"	n/a	n/a	n/a	n/a	n/a	n/a	"Trial"	n/a	n/a	n/a	"550"	"arrowright"	n/a	"NULL"	"NULL"	"NULL"	"stimuli/VerticalHorizontal_20.27143_-0.1096.png"	n/a	"VerticalHorizontal"	"arrowright"	"1190"	"TRUE"	"VerticalHorizontal"	"20.271430000"	"-0.109600000"	"1"	"40"
n/a	"html-keyboard-response"	"97"	"8188694"	"0.0-5.0-2.0-0.22"	"mdjbof"	"563"	"952"	"chrome"	"109.0.0"	"FALSE"	"Windows 10"	"60.9"	"011"	n/a	n/a	n/a	n/a	n/a	n/a	"fixation"	n/a	n/a	n/a	n/a	"NULL"	n/a	"NULL"	"NULL"	"NULL"	"<p style=\"color: black; font-size: 80px; padding-left: 11%; padding-right: 6%; padding-top: 43%; padding-bottom: 33%\">+</p>"	"1165"	n/a	n/a	n/a	n/a	n/a	n/a	n/a	n/a	n/a
n/a	"image-keyboard-response"	"98"	"8189065"	"0.0-5.0-2.0-1.22"	"mdjbof"	"563"	"952"	"chrome"	"109.0.0"	"FALSE"	"Windows 10"	"60.9"	"011"	n/a	n/a	n/a	n/a	n/a	n/a	"Trial"	n/a	n/a	n/a	"370"	"arrowright"	n/a	"NULL"	"NULL"	"NULL"	"stimuli/VerticalHorizontal_-3.3000_-0.1096.png"	n/a	"VerticalHorizontal"	"arrowright"	"1170"	"TRUE"	"VerticalHorizontal"	"-3.300000000"	"-0.109600000"	"1"	"41"
n/a	"html-keyboard-response"	"99"	"8190114"	"0.0-5.0-2.0-0.23"	"mdjbof"	"563"	"952"	"chrome"	"109.0.0"	"FALSE"	"Windows 10"	"60.9"	"011"	n/a	n/a	n/a	n/a	n/a	n/a	"fixation"	n/a	n/a	n/a	n/a	"NULL"	n/a	"NULL"	"NULL"	"NULL"	"<p style=\"color: black; font-size: 80px; padding-left: 40%; padding-right: 38%; padding-top: 10%; padding-bottom: 34%\">+</p>"	"1028"	n/a	n/a	n/a	n/a	n/a	n/a	n/a	n/a	n/a
n/a	"image-keyboard-response"	"100"	"8190626"	"0.0-5.0-2.0-1.23"	"mdjbof"	"563"	"952"	"chrome"	"109.0.0"	"FALSE"	"Windows 10"	"60.9"	"011"	n/a	n/a	n/a	n/a	n/a	n/a	"Trial"	n/a	n/a	n/a	"511"	"arrowright"	n/a	"NULL"	"NULL"	"NULL"	"stimuli/VerticalHorizontal_-11.78571_0.10960.png"	n/a	"VerticalHorizontal"	"arrowleft"	"1049"	"FALSE"	"VerticalHorizontal"	"-11.78571000"	"0.1096000000"	"1"	"42"
n/a	"html-keyboard-response"	"101"	"8191888"	"0.0-5.0-2.0-0.24"	"mdjbof"	"563"	"952"	"chrome"	"109.0.0"	"FALSE"	"Windows 10"	"60.9"	"011"	n/a	n/a	n/a	n/a	n/a	n/a	"fixation"	n/a	n/a	n/a	n/a	"NULL"	n/a	"NULL"	"NULL"	"NULL"	"<p style=\"color: black; font-size: 80px; padding-left: 2%; padding-right: 17%; padding-top: 3%; padding-bottom: 16%\">+</p>"	"1252"	n/a	n/a	n/a	n/a	n/a	n/a	n/a	n/a	n/a
n/a	"image-keyboard-response"	"102"	"8192304"	"0.0-5.0-2.0-1.24"	"mdjbof"	"563"	"952"	"chrome"	"109.0.0"	"FALSE"	"Windows 10"	"60.9"	"011"	n/a	n/a	n/a	n/a	n/a	n/a	"Trial"	n/a	n/a	n/a	"415"	"arrowleft"	n/a	"NULL"	"NULL"	"NULL"	"stimuli/VerticalHorizontal_-3.3000_0.10960.png"	n/a	"VerticalHorizontal"	"arrowleft"	"1262"	"TRUE"	"VerticalHorizontal"	"-3.300000000"	"0.1096000000"	"1"	"43"
n/a	"html-keyboard-response"	"103"	"8193511"	"0.0-5.0-2.0-0.25"	"mdjbof"	"563"	"952"	"chrome"	"109.0.0"	"FALSE"	"Windows 10"	"60.9"	"011"	n/a	n/a	n/a	n/a	n/a	n/a	"fixation"	n/a	n/a	n/a	n/a	"NULL"	n/a	"NULL"	"NULL"	"NULL"	"<p style=\"color: black; font-size: 80px; padding-left: 17%; padding-right: 6%; padding-top: 21%; padding-bottom: 12%\">+</p>"	"1199"	n/a	n/a	n/a	n/a	n/a	n/a	n/a	n/a	n/a
n/a	"image-keyboard-response"	"104"	"8193942"	"0.0-5.0-2.0-1.25"	"mdjbof"	"563"	"952"	"chrome"	"109.0.0"	"FALSE"	"Windows 10"	"60.9"	"011"	n/a	n/a	n/a	n/a	n/a	n/a	"Trial"	n/a	n/a	n/a	"430"	"arrowright"	n/a	"NULL"	"NULL"	"NULL"	"stimuli/VerticalHorizontal_20.27143_0.16217.png"	n/a	"VerticalHorizontal"	"arrowleft"	"1207"	"FALSE"	"VerticalHorizontal"	"20.271430000"	"0.1621700000"	"1"	"44"
n/a	"html-keyboard-response"	"105"	"8195417"	"0.0-5.0-2.0-0.26"	"mdjbof"	"563"	"952"	"chrome"	"109.0.0"	"FALSE"	"Windows 10"	"60.9"	"011"	n/a	n/a	n/a	n/a	n/a	n/a	"fixation"	n/a	n/a	n/a	n/a	"NULL"	n/a	"NULL"	"NULL"	"NULL"	"<p style=\"color: black; font-size: 80px; padding-left: 28%; padding-right: 48%; padding-top: 20%; padding-bottom: 29%\">+</p>"	"1457"	n/a	n/a	n/a	n/a	n/a	n/a	n/a	n/a	n/a
n/a	"image-keyboard-response"	"106"	"8195869"	"0.0-5.0-2.0-1.26"	"mdjbof"	"563"	"952"	"chrome"	"109.0.0"	"FALSE"	"Windows 10"	"60.9"	"011"	n/a	n/a	n/a	n/a	n/a	n/a	"Trial"	n/a	n/a	n/a	"448"	"arrowright"	n/a	"NULL"	"NULL"	"NULL"	"stimuli/VerticalHorizontal_-11.78571_-0.2250.png"	n/a	"VerticalHorizontal"	"arrowright"	"1475"	"TRUE"	"VerticalHorizontal"	"-11.78571000"	"-0.225000000"	"1"	"45"
n/a	"html-keyboard-response"	"107"	"8197216"	"0.0-5.0-2.0-0.27"	"mdjbof"	"563"	"952"	"chrome"	"109.0.0"	"FALSE"	"Windows 10"	"60.9"	"011"	n/a	n/a	n/a	n/a	n/a	n/a	"fixation"	n/a	n/a	n/a	n/a	"NULL"	n/a	"NULL"	"NULL"	"NULL"	"<p style=\"color: black; font-size: 80px; padding-left: 7%; padding-right: 11%; padding-top: 26%; padding-bottom: 38%\">+</p>"	"1333"	n/a	n/a	n/a	n/a	n/a	n/a	n/a	n/a	n/a
n/a	"image-keyboard-response"	"108"	"8197609"	"0.0-5.0-2.0-1.27"	"mdjbof"	"563"	"952"	"chrome"	"109.0.0"	"FALSE"	"Windows 10"	"60.9"	"011"	n/a	n/a	n/a	n/a	n/a	n/a	"Trial"	n/a	n/a	n/a	"392"	"arrowright"	n/a	"NULL"	"NULL"	"NULL"	"stimuli/VerticalHorizontal_3.30000_-0.0673.png"	n/a	"VerticalHorizontal"	"arrowright"	"1347"	"TRUE"	"VerticalHorizontal"	"3.3000000000"	"-0.067300000"	"1"	"46"
n/a	"html-keyboard-response"	"109"	"8198917"	"0.0-5.0-2.0-0.28"	"mdjbof"	"563"	"952"	"chrome"	"109.0.0"	"FALSE"	"Windows 10"	"60.9"	"011"	n/a	n/a	n/a	n/a	n/a	n/a	"fixation"	n/a	n/a	n/a	n/a	"NULL"	n/a	"NULL"	"NULL"	"NULL"	"<p style=\"color: black; font-size: 80px; padding-left: 8%; padding-right: 7%; padding-top: 35%; padding-bottom: 45%\">+</p>"	"1306"	n/a	n/a	n/a	n/a	n/a	n/a	n/a	n/a	n/a
n/a	"image-keyboard-response"	"110"	"8199308"	"0.0-5.0-2.0-1.28"	"mdjbof"	"563"	"952"	"chrome"	"109.0.0"	"FALSE"	"Windows 10"	"60.9"	"011"	n/a	n/a	n/a	n/a	n/a	n/a	"Trial"	n/a	n/a	n/a	"389"	"arrowright"	n/a	"NULL"	"NULL"	"NULL"	"stimuli/VerticalHorizontal_11.78571_0.16217.png"	n/a	"VerticalHorizontal"	"arrowleft"	"1308"	"FALSE"	"VerticalHorizontal"	"11.785710000"	"0.1621700000"	"1"	"47"
n/a	"html-keyboard-response"	"111"	"8200575"	"0.0-5.0-2.0-0.29"	"mdjbof"	"563"	"952"	"chrome"	"109.0.0"	"FALSE"	"Windows 10"	"60.9"	"011"	n/a	n/a	n/a	n/a	n/a	n/a	"fixation"	n/a	n/a	n/a	n/a	"NULL"	n/a	"NULL"	"NULL"	"NULL"	"<p style=\"color: black; font-size: 80px; padding-left: 45%; padding-right: 11%; padding-top: 10%; padding-bottom: 44%\">+</p>"	"1251"	n/a	n/a	n/a	n/a	n/a	n/a	n/a	n/a	n/a
n/a	"image-keyboard-response"	"112"	"8201102"	"0.0-5.0-2.0-1.29"	"mdjbof"	"563"	"952"	"chrome"	"109.0.0"	"FALSE"	"Windows 10"	"60.9"	"011"	n/a	n/a	n/a	n/a	n/a	n/a	"Trial"	n/a	n/a	n/a	"525"	"arrowleft"	n/a	"NULL"	"NULL"	"NULL"	"stimuli/VerticalHorizontal_20.27143_0.22500.png"	n/a	"VerticalHorizontal"	"arrowleft"	"1267"	"TRUE"	"VerticalHorizontal"	"20.271430000"	"0.2250000000"	"1"	"48"
n/a	"html-keyboard-response"	"113"	"8202493"	"0.0-5.0-2.0-0.30"	"mdjbof"	"563"	"952"	"chrome"	"109.0.0"	"FALSE"	"Windows 10"	"60.9"	"011"	n/a	n/a	n/a	n/a	n/a	n/a	"fixation"	n/a	n/a	n/a	n/a	"NULL"	n/a	"NULL"	"NULL"	"NULL"	"<p style=\"color: black; font-size: 80px; padding-left: 14%; padding-right: 16%; padding-top: 37%; padding-bottom: 32%\">+</p>"	"1376"	n/a	n/a	n/a	n/a	n/a	n/a	n/a	n/a	n/a
n/a	"image-keyboard-response"	"114"	"8202995"	"0.0-5.0-2.0-1.30"	"mdjbof"	"563"	"952"	"chrome"	"109.0.0"	"FALSE"	"Windows 10"	"60.9"	"011"	n/a	n/a	n/a	n/a	n/a	n/a	"Trial"	n/a	n/a	n/a	"500"	"arrowright"	n/a	"NULL"	"NULL"	"NULL"	"stimuli/VerticalHorizontal_20.27143_-0.16217.png"	n/a	"VerticalHorizontal"	"arrowright"	"1391"	"TRUE"	"VerticalHorizontal"	"20.271430000"	"-0.162170000"	"1"	"49"
n/a	"html-keyboard-response"	"115"	"8204501"	"0.0-5.0-2.0-0.31"	"mdjbof"	"563"	"952"	"chrome"	"109.0.0"	"FALSE"	"Windows 10"	"60.9"	"011"	n/a	n/a	n/a	n/a	n/a	n/a	"fixation"	n/a	n/a	n/a	n/a	"NULL"	n/a	"NULL"	"NULL"	"NULL"	"<p style=\"color: black; font-size: 80px; padding-left: 45%; padding-right: 40%; padding-top: 29%; padding-bottom: 45%\">+</p>"	"1491"	n/a	n/a	n/a	n/a	n/a	n/a	n/a	n/a	n/a
n/a	"image-keyboard-response"	"116"	"8204839"	"0.0-5.0-2.0-1.31"	"mdjbof"	"563"	"952"	"chrome"	"109.0.0"	"FALSE"	"Windows 10"	"60.9"	"011"	n/a	n/a	n/a	n/a	n/a	n/a	"Trial"	n/a	n/a	n/a	"337"	"arrowleft"	n/a	"NULL"	"NULL"	"NULL"	"stimuli/VerticalHorizontal_-28.75714_0.10960.png"	n/a	"VerticalHorizontal"	"arrowleft"	"1506"	"TRUE"	"VerticalHorizontal"	"-28.75714000"	"0.1096000000"	"1"	"50"
n/a	"html-keyboard-response"	"117"	"8206058"	"0.0-5.0-2.0-0.32"	"mdjbof"	"563"	"952"	"chrome"	"109.0.0"	"FALSE"	"Windows 10"	"60.9"	"011"	n/a	n/a	n/a	n/a	n/a	n/a	"fixation"	n/a	n/a	n/a	n/a	"NULL"	n/a	"NULL"	"NULL"	"NULL"	"<p style=\"color: black; font-size: 80px; padding-left: 48%; padding-right: 19%; padding-top: 15%; padding-bottom: 3%\">+</p>"	"1204"	n/a	n/a	n/a	n/a	n/a	n/a	n/a	n/a	n/a
n/a	"image-keyboard-response"	"118"	"8206504"	"0.0-5.0-2.0-1.32"	"mdjbof"	"563"	"952"	"chrome"	"109.0.0"	"FALSE"	"Windows 10"	"60.9"	"011"	n/a	n/a	n/a	n/a	n/a	n/a	"Trial"	n/a	n/a	n/a	"445"	"arrowright"	n/a	"NULL"	"NULL"	"NULL"	"stimuli/VerticalHorizontal_20.27143_0.10960.png"	n/a	"VerticalHorizontal"	"arrowleft"	"1219"	"FALSE"	"VerticalHorizontal"	"20.271430000"	"0.1096000000"	"1"	"51"
n/a	"html-keyboard-response"	"119"	"8207671"	"0.0-5.0-2.0-0.33"	"mdjbof"	"563"	"952"	"chrome"	"109.0.0"	"FALSE"	"Windows 10"	"60.9"	"011"	n/a	n/a	n/a	n/a	n/a	n/a	"fixation"	n/a	n/a	n/a	n/a	"NULL"	n/a	"NULL"	"NULL"	"NULL"	"<p style=\"color: black; font-size: 80px; padding-left: 40%; padding-right: 34%; padding-top: 13%; padding-bottom: 29%\">+</p>"	"1163"	n/a	n/a	n/a	n/a	n/a	n/a	n/a	n/a	n/a
n/a	"image-keyboard-response"	"120"	"8208134"	"0.0-5.0-2.0-1.33"	"mdjbof"	"563"	"952"	"chrome"	"109.0.0"	"FALSE"	"Windows 10"	"60.9"	"011"	n/a	n/a	n/a	n/a	n/a	n/a	"Trial"	n/a	n/a	n/a	"461"	"arrowright"	n/a	"NULL"	"NULL"	"NULL"	"stimuli/VerticalHorizontal_-3.3000_-0.2250.png"	n/a	"VerticalHorizontal"	"arrowright"	"1167"	"TRUE"	"VerticalHorizontal"	"-3.300000000"	"-0.225000000"	"1"	"52"
n/a	"html-keyboard-response"	"121"	"8209215"	"0.0-5.0-2.0-0.34"	"mdjbof"	"563"	"952"	"chrome"	"109.0.0"	"FALSE"	"Windows 10"	"60.9"	"011"	n/a	n/a	n/a	n/a	n/a	n/a	"fixation"	n/a	n/a	n/a	n/a	"NULL"	n/a	"NULL"	"NULL"	"NULL"	"<p style=\"color: black; font-size: 80px; padding-left: 4%; padding-right: 39%; padding-top: 49%; padding-bottom: 38%\">+</p>"	"1065"	n/a	n/a	n/a	n/a	n/a	n/a	n/a	n/a	n/a
n/a	"image-keyboard-response"	"122"	"8209750"	"0.0-5.0-2.0-1.34"	"mdjbof"	"563"	"952"	"chrome"	"109.0.0"	"FALSE"	"Windows 10"	"60.9"	"011"	n/a	n/a	n/a	n/a	n/a	n/a	"Trial"	n/a	n/a	n/a	"535"	"arrowright"	n/a	"NULL"	"NULL"	"NULL"	"stimuli/VerticalHorizontal_-3.3000_0.06730.png"	n/a	"VerticalHorizontal"	"arrowleft"	"1081"	"FALSE"	"VerticalHorizontal"	"-3.300000000"	"0.0673000000"	"1"	"53"
n/a	"html-keyboard-response"	"123"	"8211216"	"0.0-5.0-2.0-0.35"	"mdjbof"	"563"	"952"	"chrome"	"109.0.0"	"FALSE"	"Windows 10"	"60.9"	"011"	n/a	n/a	n/a	n/a	n/a	n/a	"fixation"	n/a	n/a	n/a	n/a	"NULL"	n/a	"NULL"	"NULL"	"NULL"	"<p style=\"color: black; font-size: 80px; padding-left: 33%; padding-right: 40%; padding-top: 29%; padding-bottom: 3%\">+</p>"	"1454"	n/a	n/a	n/a	n/a	n/a	n/a	n/a	n/a	n/a
n/a	"image-keyboard-response"	"124"	"8211683"	"0.0-5.0-2.0-1.35"	"mdjbof"	"563"	"952"	"chrome"	"109.0.0"	"FALSE"	"Windows 10"	"60.9"	"011"	n/a	n/a	n/a	n/a	n/a	n/a	"Trial"	n/a	n/a	n/a	"465"	"arrowleft"	n/a	"NULL"	"NULL"	"NULL"	"stimuli/VerticalHorizontal_28.75714_-0.0673.png"	n/a	"VerticalHorizontal"	"arrowright"	"1466"	"FALSE"	"VerticalHorizontal"	"28.757140000"	"-0.067300000"	"1"	"54"
n/a	"html-keyboard-response"	"125"	"8213087"	"0.0-5.0-2.0-0.36"	"mdjbof"	"563"	"952"	"chrome"	"109.0.0"	"FALSE"	"Windows 10"	"60.9"	"011"	n/a	n/a	n/a	n/a	n/a	n/a	"fixation"	n/a	n/a	n/a	n/a	"NULL"	n/a	"NULL"	"NULL"	"NULL"	"<p style=\"color: black; font-size: 80px; padding-left: 18%; padding-right: 43%; padding-top: 37%; padding-bottom: 32%\">+</p>"	"1392"	n/a	n/a	n/a	n/a	n/a	n/a	n/a	n/a	n/a
n/a	"image-keyboard-response"	"126"	"8213523"	"0.0-5.0-2.0-1.36"	"mdjbof"	"563"	"952"	"chrome"	"109.0.0"	"FALSE"	"Windows 10"	"60.9"	"011"	n/a	n/a	n/a	n/a	n/a	n/a	"Trial"	n/a	n/a	n/a	"434"	"arrowright"	n/a	"NULL"	"NULL"	"NULL"	"stimuli/VerticalHorizontal_11.78571_-0.16217.png"	n/a	"VerticalHorizontal"	"arrowright"	"1404"	"TRUE"	"VerticalHorizontal"	"11.785710000"	"-0.162170000"	"1"	"55"
n/a	"html-keyboard-response"	"127"	"8215001"	"0.0-5.0-2.0-0.37"	"mdjbof"	"563"	"952"	"chrome"	"109.0.0"	"FALSE"	"Windows 10"	"60.9"	"011"	n/a	n/a	n/a	n/a	n/a	n/a	"fixation"	n/a	n/a	n/a	n/a	"NULL"	n/a	"NULL"	"NULL"	"NULL"	"<p style=\"color: black; font-size: 80px; padding-left: 20%; padding-right: 38%; padding-top: 5%; padding-bottom: 10%\">+</p>"	"1465"	n/a	n/a	n/a	n/a	n/a	n/a	n/a	n/a	n/a
n/a	"image-keyboard-response"	"128"	"8215359"	"0.0-5.0-2.0-1.37"	"mdjbof"	"563"	"952"	"chrome"	"109.0.0"	"FALSE"	"Windows 10"	"60.9"	"011"	n/a	n/a	n/a	n/a	n/a	n/a	"Trial"	n/a	n/a	n/a	"352"	"arrowright"	n/a	"NULL"	"NULL"	"NULL"	"stimuli/VerticalHorizontal_-11.78571_-0.1096.png"	n/a	"VerticalHorizontal"	"arrowright"	"1478"	"TRUE"	"VerticalHorizontal"	"-11.78571000"	"-0.109600000"	"1"	"56"
n/a	"html-keyboard-response"	"129"	"8216728"	"0.0-5.0-2.0-0.38"	"mdjbof"	"563"	"952"	"chrome"	"109.0.0"	"FALSE"	"Windows 10"	"60.9"	"011"	n/a	n/a	n/a	n/a	n/a	n/a	"fixation"	n/a	n/a	n/a	n/a	"NULL"	n/a	"NULL"	"NULL"	"NULL"	"<p style=\"color: black; font-size: 80px; padding-left: 42%; padding-right: 47%; padding-top: 5%; padding-bottom: 24%\">+</p>"	"1361"	n/a	n/a	n/a	n/a	n/a	n/a	n/a	n/a	n/a
n/a	"image-keyboard-response"	"130"	"8217074"	"0.0-5.0-2.0-1.38"	"mdjbof"	"563"	"952"	"chrome"	"109.0.0"	"FALSE"	"Windows 10"	"60.9"	"011"	n/a	n/a	n/a	n/a	n/a	n/a	"Trial"	n/a	n/a	n/a	"342"	"arrowright"	n/a	"NULL"	"NULL"	"NULL"	"stimuli/VerticalHorizontal_-20.27143_-0.16217.png"	n/a	"VerticalHorizontal"	"arrowright"	"1369"	"TRUE"	"VerticalHorizontal"	"-20.27143000"	"-0.162170000"	"1"	"57"
n/a	"html-keyboard-response"	"131"	"8218106"	"0.0-5.0-2.0-0.39"	"mdjbof"	"563"	"952"	"chrome"	"109.0.0"	"FALSE"	"Windows 10"	"60.9"	"011"	n/a	n/a	n/a	n/a	n/a	n/a	"fixation"	n/a	n/a	n/a	n/a	"NULL"	n/a	"NULL"	"NULL"	"NULL"	"<p style=\"color: black; font-size: 80px; padding-left: 4%; padding-right: 35%; padding-top: 38%; padding-bottom: 39%\">+</p>"	"1021"	n/a	n/a	n/a	n/a	n/a	n/a	n/a	n/a	n/a
n/a	"image-keyboard-response"	"132"	"8218516"	"0.0-5.0-2.0-1.39"	"mdjbof"	"563"	"952"	"chrome"	"109.0.0"	"FALSE"	"Windows 10"	"60.9"	"011"	n/a	n/a	n/a	n/a	n/a	n/a	"Trial"	n/a	n/a	n/a	"408"	"arrowleft"	n/a	"NULL"	"NULL"	"NULL"	"stimuli/VerticalHorizontal_-28.75714_0.22500.png"	n/a	"VerticalHorizontal"	"arrowleft"	"1032"	"TRUE"	"VerticalHorizontal"	"-28.75714000"	"0.2250000000"	"1"	"58"
n/a	"html-keyboard-response"	"133"	"8219996"	"0.0-5.0-2.0-0.40"	"mdjbof"	"563"	"952"	"chrome"	"109.0.0"	"FALSE"	"Windows 10"	"60.9"	"011"	n/a	n/a	n/a	n/a	n/a	n/a	"fixation"	n/a	n/a	n/a	n/a	"NULL"	n/a	"NULL"	"NULL"	"NULL"	"<p style=\"color: black; font-size: 80px; padding-left: 17%; padding-right: 46%; padding-top: 46%; padding-bottom: 0%\">+</p>"	"1458"	n/a	n/a	n/a	n/a	n/a	n/a	n/a	n/a	n/a
n/a	"image-keyboard-response"	"134"	"8220449"	"0.0-5.0-2.0-1.40"	"mdjbof"	"563"	"952"	"chrome"	"109.0.0"	"FALSE"	"Windows 10"	"60.9"	"011"	n/a	n/a	n/a	n/a	n/a	n/a	"Trial"	n/a	n/a	n/a	"451"	"arrowright"	n/a	"NULL"	"NULL"	"NULL"	"stimuli/VerticalHorizontal_11.78571_-0.1096.png"	n/a	"VerticalHorizontal"	"arrowright"	"1480"	"TRUE"	"VerticalHorizontal"	"11.785710000"	"-0.109600000"	"1"	"59"
n/a	"html-keyboard-response"	"135"	"8221925"	"0.0-5.0-2.0-0.41"	"mdjbof"	"563"	"952"	"chrome"	"109.0.0"	"FALSE"	"Windows 10"	"60.9"	"011"	n/a	n/a	n/a	n/a	n/a	n/a	"fixation"	n/a	n/a	n/a	n/a	"NULL"	n/a	"NULL"	"NULL"	"NULL"	"<p style=\"color: black; font-size: 80px; padding-left: 9%; padding-right: 1%; padding-top: 5%; padding-bottom: 43%\">+</p>"	"1474"	n/a	n/a	n/a	n/a	n/a	n/a	n/a	n/a	n/a
n/a	"image-keyboard-response"	"136"	"8222321"	"0.0-5.0-2.0-1.41"	"mdjbof"	"563"	"952"	"chrome"	"109.0.0"	"FALSE"	"Windows 10"	"60.9"	"011"	n/a	n/a	n/a	n/a	n/a	n/a	"Trial"	n/a	n/a	n/a	"396"	"arrowright"	n/a	"NULL"	"NULL"	"NULL"	"stimuli/VerticalHorizontal_-3.3000_-0.0673.png"	n/a	"VerticalHorizontal"	"arrowright"	"1476"	"TRUE"	"VerticalHorizontal"	"-3.300000000"	"-0.067300000"	"1"	"60"
n/a	"html-keyboard-response"	"137"	"8223716"	"0.0-5.0-2.0-0.42"	"mdjbof"	"563"	"952"	"chrome"	"109.0.0"	"FALSE"	"Windows 10"	"60.9"	"011"	n/a	n/a	n/a	n/a	n/a	n/a	"fixation"	n/a	n/a	n/a	n/a	"NULL"	n/a	"NULL"	"NULL"	"NULL"	"<p style=\"color: black; font-size: 80px; padding-left: 21%; padding-right: 27%; padding-top: 18%; padding-bottom: 21%\">+</p>"	"1390"	n/a	n/a	n/a	n/a	n/a	n/a	n/a	n/a	n/a
n/a	"image-keyboard-response"	"138"	"8224034"	"0.0-5.0-2.0-1.42"	"mdjbof"	"563"	"952"	"chrome"	"109.0.0"	"FALSE"	"Windows 10"	"60.9"	"011"	n/a	n/a	n/a	n/a	n/a	n/a	"Trial"	n/a	n/a	n/a	"317"	"arrowright"	n/a	"NULL"	"NULL"	"NULL"	"stimuli/VerticalHorizontal_28.75714_0.22500.png"	n/a	"VerticalHorizontal"	"arrowleft"	"1395"	"FALSE"	"VerticalHorizontal"	"28.757140000"	"0.2250000000"	"1"	"61"
n/a	"html-keyboard-response"	"139"	"8225092"	"0.0-5.0-2.0-0.43"	"mdjbof"	"563"	"952"	"chrome"	"109.0.0"	"FALSE"	"Windows 10"	"60.9"	"011"	n/a	n/a	n/a	n/a	n/a	n/a	"fixation"	n/a	n/a	n/a	n/a	"NULL"	n/a	"NULL"	"NULL"	"NULL"	"<p style=\"color: black; font-size: 80px; padding-left: 47%; padding-right: 35%; padding-top: 38%; padding-bottom: 48%\">+</p>"	"1037"	n/a	n/a	n/a	n/a	n/a	n/a	n/a	n/a	n/a
n/a	"image-keyboard-response"	"140"	"8225520"	"0.0-5.0-2.0-1.43"	"mdjbof"	"563"	"952"	"chrome"	"109.0.0"	"FALSE"	"Windows 10"	"60.9"	"011"	n/a	n/a	n/a	n/a	n/a	n/a	"Trial"	n/a	n/a	n/a	"427"	"arrowright"	n/a	"NULL"	"NULL"	"NULL"	"stimuli/VerticalHorizontal_-11.78571_-0.0673.png"	n/a	"VerticalHorizontal"	"arrowright"	"1058"	"TRUE"	"VerticalHorizontal"	"-11.78571000"	"-0.067300000"	"1"	"62"
n/a	"html-keyboard-response"	"141"	"8226959"	"0.0-5.0-2.0-0.44"	"mdjbof"	"563"	"952"	"chrome"	"109.0.0"	"FALSE"	"Windows 10"	"60.9"	"011"	n/a	n/a	n/a	n/a	n/a	n/a	"fixation"	n/a	n/a	n/a	n/a	"NULL"	n/a	"NULL"	"NULL"	"NULL"	"<p style=\"color: black; font-size: 80px; padding-left: 49%; padding-right: 42%; padding-top: 25%; padding-bottom: 25%\">+</p>"	"1431"	n/a	n/a	n/a	n/a	n/a	n/a	n/a	n/a	n/a
n/a	"image-keyboard-response"	"142"	"8227326"	"0.0-5.0-2.0-1.44"	"mdjbof"	"563"	"952"	"chrome"	"109.0.0"	"FALSE"	"Windows 10"	"60.9"	"011"	n/a	n/a	n/a	n/a	n/a	n/a	"Trial"	n/a	n/a	n/a	"367"	"arrowleft"	n/a	"NULL"	"NULL"	"NULL"	"stimuli/VerticalHorizontal_11.78571_0.22500.png"	n/a	"VerticalHorizontal"	"arrowleft"	"1439"	"TRUE"	"VerticalHorizontal"	"11.785710000"	"0.2250000000"	"1"	"63"
n/a	"html-keyboard-response"	"143"	"8228574"	"0.0-5.0-2.0-0.45"	"mdjbof"	"563"	"952"	"chrome"	"109.0.0"	"FALSE"	"Windows 10"	"60.9"	"011"	n/a	n/a	n/a	n/a	n/a	n/a	"fixation"	n/a	n/a	n/a	n/a	"NULL"	n/a	"NULL"	"NULL"	"NULL"	"<p style=\"color: black; font-size: 80px; padding-left: 36%; padding-right: 7%; padding-top: 25%; padding-bottom: 30%\">+</p>"	"1239"	n/a	n/a	n/a	n/a	n/a	n/a	n/a	n/a	n/a
n/a	"image-keyboard-response"	"144"	"8228926"	"0.0-5.0-2.0-1.45"	"mdjbof"	"563"	"952"	"chrome"	"109.0.0"	"FALSE"	"Windows 10"	"60.9"	"011"	n/a	n/a	n/a	n/a	n/a	n/a	"Trial"	n/a	n/a	n/a	"351"	"arrowright"	n/a	"NULL"	"NULL"	"NULL"	"stimuli/VerticalHorizontal_-11.78571_-0.16217.png"	n/a	"VerticalHorizontal"	"arrowright"	"1248"	"TRUE"	"VerticalHorizontal"	"-11.78571000"	"-0.162170000"	"1"	"64"
n/a	"html-keyboard-response"	"145"	"8229960"	"0.0-5.0-2.0-0.46"	"mdjbof"	"563"	"952"	"chrome"	"109.0.0"	"FALSE"	"Windows 10"	"60.9"	"011"	n/a	n/a	n/a	n/a	n/a	n/a	"fixation"	n/a	n/a	n/a	n/a	"NULL"	n/a	"NULL"	"NULL"	"NULL"	"<p style=\"color: black; font-size: 80px; padding-left: 8%; padding-right: 13%; padding-top: 41%; padding-bottom: 11%\">+</p>"	"1025"	n/a	n/a	n/a	n/a	n/a	n/a	n/a	n/a	n/a
n/a	"image-keyboard-response"	"146"	"8230319"	"0.0-5.0-2.0-1.46"	"mdjbof"	"563"	"952"	"chrome"	"109.0.0"	"FALSE"	"Windows 10"	"60.9"	"011"	n/a	n/a	n/a	n/a	n/a	n/a	"Trial"	n/a	n/a	n/a	"357"	"arrowleft"	n/a	"NULL"	"NULL"	"NULL"	"stimuli/VerticalHorizontal_20.27143_-0.0673.png"	n/a	"VerticalHorizontal"	"arrowright"	"1034"	"FALSE"	"VerticalHorizontal"	"20.271430000"	"-0.067300000"	"1"	"65"
n/a	"html-keyboard-response"	"147"	"8231513"	"0.0-5.0-2.0-0.47"	"mdjbof"	"563"	"952"	"chrome"	"109.0.0"	"FALSE"	"Windows 10"	"60.9"	"011"	n/a	n/a	n/a	n/a	n/a	n/a	"fixation"	n/a	n/a	n/a	n/a	"NULL"	n/a	"NULL"	"NULL"	"NULL"	"<p style=\"color: black; font-size: 80px; padding-left: 3%; padding-right: 25%; padding-top: 7%; padding-bottom: 34%\">+</p>"	"1180"	n/a	n/a	n/a	n/a	n/a	n/a	n/a	n/a	n/a
n/a	"image-keyboard-response"	"148"	"8231974"	"0.0-5.0-2.0-1.47"	"mdjbof"	"563"	"952"	"chrome"	"109.0.0"	"FALSE"	"Windows 10"	"60.9"	"011"	n/a	n/a	n/a	n/a	n/a	n/a	"Trial"	n/a	n/a	n/a	"458"	"arrowleft"	n/a	"NULL"	"NULL"	"NULL"	"stimuli/VerticalHorizontal_3.30000_0.22500.png"	n/a	"VerticalHorizontal"	"arrowleft"	"1194"	"TRUE"	"VerticalHorizontal"	"3.3000000000"	"0.2250000000"	"1"	"66"
n/a	"html-keyboard-response"	"149"	"8233078"	"0.0-5.0-2.0-0.48"	"mdjbof"	"563"	"952"	"chrome"	"109.0.0"	"FALSE"	"Windows 10"	"60.9"	"011"	n/a	n/a	n/a	n/a	n/a	n/a	"fixation"	n/a	n/a	n/a	n/a	"NULL"	n/a	"NULL"	"NULL"	"NULL"	"<p style=\"color: black; font-size: 80px; padding-left: 29%; padding-right: 12%; padding-top: 49%; padding-bottom: 35%\">+</p>"	"1099"	n/a	n/a	n/a	n/a	n/a	n/a	n/a	n/a	n/a
n/a	"image-keyboard-response"	"150"	"8233434"	"0.0-5.0-2.0-1.48"	"mdjbof"	"563"	"952"	"chrome"	"109.0.0"	"FALSE"	"Windows 10"	"60.9"	"011"	n/a	n/a	n/a	n/a	n/a	n/a	"Trial"	n/a	n/a	n/a	"355"	"arrowright"	n/a	"NULL"	"NULL"	"NULL"	"stimuli/VerticalHorizontal_28.75714_0.06730.png"	n/a	"VerticalHorizontal"	"arrowleft"	"1104"	"FALSE"	"VerticalHorizontal"	"28.757140000"	"0.0673000000"	"1"	"67"
n/a	"html-keyboard-response"	"151"	"8234618"	"0.0-5.0-2.0-0.49"	"mdjbof"	"563"	"952"	"chrome"	"109.0.0"	"FALSE"	"Windows 10"	"60.9"	"011"	n/a	n/a	n/a	n/a	n/a	n/a	"fixation"	n/a	n/a	n/a	n/a	"NULL"	n/a	"NULL"	"NULL"	"NULL"	"<p style=\"color: black; font-size: 80px; padding-left: 7%; padding-right: 42%; padding-top: 14%; padding-bottom: 28%\">+</p>"	"1164"	n/a	n/a	n/a	n/a	n/a	n/a	n/a	n/a	n/a
n/a	"image-keyboard-response"	"152"	"8235011"	"0.0-5.0-2.0-1.49"	"mdjbof"	"563"	"952"	"chrome"	"109.0.0"	"FALSE"	"Windows 10"	"60.9"	"011"	n/a	n/a	n/a	n/a	n/a	n/a	"Trial"	n/a	n/a	n/a	"392"	"arrowright"	n/a	"NULL"	"NULL"	"NULL"	"stimuli/VerticalHorizontal_11.78571_-0.2250.png"	n/a	"VerticalHorizontal"	"arrowright"	"1184"	"TRUE"	"VerticalHorizontal"	"11.785710000"	"-0.225000000"	"1"	"68"
n/a	"html-keyboard-response"	"153"	"8236486"	"0.0-5.0-2.0-0.50"	"mdjbof"	"563"	"952"	"chrome"	"109.0.0"	"FALSE"	"Windows 10"	"60.9"	"011"	n/a	n/a	n/a	n/a	n/a	n/a	"fixation"	n/a	n/a	n/a	n/a	"NULL"	n/a	"NULL"	"NULL"	"NULL"	"<p style=\"color: black; font-size: 80px; padding-left: 11%; padding-right: 43%; padding-top: 35%; padding-bottom: 45%\">+</p>"	"1465"	n/a	n/a	n/a	n/a	n/a	n/a	n/a	n/a	n/a
n/a	"image-keyboard-response"	"154"	"8236825"	"0.0-5.0-2.0-1.50"	"mdjbof"	"563"	"952"	"chrome"	"109.0.0"	"FALSE"	"Windows 10"	"60.9"	"011"	n/a	n/a	n/a	n/a	n/a	n/a	"Trial"	n/a	n/a	n/a	"338"	"arrowright"	n/a	"NULL"	"NULL"	"NULL"	"stimuli/VerticalHorizontal_-20.27143_-0.0673.png"	n/a	"VerticalHorizontal"	"arrowright"	"1475"	"TRUE"	"VerticalHorizontal"	"-20.27143000"	"-0.067300000"	"1"	"69"
n/a	"html-keyboard-response"	"155"	"8238202"	"0.0-5.0-2.0-0.51"	"mdjbof"	"563"	"952"	"chrome"	"109.0.0"	"FALSE"	"Windows 10"	"60.9"	"011"	n/a	n/a	n/a	n/a	n/a	n/a	"fixation"	n/a	n/a	n/a	n/a	"NULL"	n/a	"NULL"	"NULL"	"NULL"	"<p style=\"color: black; font-size: 80px; padding-left: 33%; padding-right: 10%; padding-top: 7%; padding-bottom: 47%\">+</p>"	"1359"	n/a	n/a	n/a	n/a	n/a	n/a	n/a	n/a	n/a
n/a	"image-keyboard-response"	"156"	"8238535"	"0.0-5.0-2.0-1.51"	"mdjbof"	"563"	"952"	"chrome"	"109.0.0"	"FALSE"	"Windows 10"	"60.9"	"011"	n/a	n/a	n/a	n/a	n/a	n/a	"Trial"	n/a	n/a	n/a	"330"	"arrowleft"	n/a	"NULL"	"NULL"	"NULL"	"stimuli/VerticalHorizontal_-3.3000_-0.16217.png"	n/a	"VerticalHorizontal"	"arrowright"	"1377"	"FALSE"	"VerticalHorizontal"	"-3.300000000"	"-0.162170000"	"1"	"70"
n/a	"html-keyboard-response"	"157"	"8239837"	"0.0-5.0-2.0-0.52"	"mdjbof"	"563"	"952"	"chrome"	"109.0.0"	"FALSE"	"Windows 10"	"60.9"	"011"	n/a	n/a	n/a	n/a	n/a	n/a	"fixation"	n/a	n/a	n/a	n/a	"NULL"	n/a	"NULL"	"NULL"	"NULL"	"<p style=\"color: black; font-size: 80px; padding-left: 29%; padding-right: 21%; padding-top: 24%; padding-bottom: 29%\">+</p>"	"1286"	n/a	n/a	n/a	n/a	n/a	n/a	n/a	n/a	n/a
n/a	"image-keyboard-response"	"158"	"8240186"	"0.0-5.0-2.0-1.52"	"mdjbof"	"563"	"952"	"chrome"	"109.0.0"	"FALSE"	"Windows 10"	"60.9"	"011"	n/a	n/a	n/a	n/a	n/a	n/a	"Trial"	n/a	n/a	n/a	"348"	"arrowright"	n/a	"NULL"	"NULL"	"NULL"	"stimuli/VerticalHorizontal_-28.75714_-0.1096.png"	n/a	"VerticalHorizontal"	"arrowright"	"1302"	"TRUE"	"VerticalHorizontal"	"-28.75714000"	"-0.109600000"	"1"	"71"
n/a	"html-keyboard-response"	"159"	"8241304"	"0.0-5.0-2.0-0.53"	"mdjbof"	"563"	"952"	"chrome"	"109.0.0"	"FALSE"	"Windows 10"	"60.9"	"011"	n/a	n/a	n/a	n/a	n/a	n/a	"fixation"	n/a	n/a	n/a	n/a	"NULL"	n/a	"NULL"	"NULL"	"NULL"	"<p style=\"color: black; font-size: 80px; padding-left: 9%; padding-right: 18%; padding-top: 31%; padding-bottom: 15%\">+</p>"	"1099"	n/a	n/a	n/a	n/a	n/a	n/a	n/a	n/a	n/a
n/a	"image-keyboard-response"	"160"	"8241695"	"0.0-5.0-2.0-1.53"	"mdjbof"	"563"	"952"	"chrome"	"109.0.0"	"FALSE"	"Windows 10"	"60.9"	"011"	n/a	n/a	n/a	n/a	n/a	n/a	"Trial"	n/a	n/a	n/a	"390"	"arrowleft"	n/a	"NULL"	"NULL"	"NULL"	"stimuli/VerticalHorizontal_-3.3000_0.22500.png"	n/a	"VerticalHorizontal"	"arrowleft"	"1118"	"TRUE"	"VerticalHorizontal"	"-3.300000000"	"0.2250000000"	"1"	"72"
n/a	"html-keyboard-response"	"161"	"8243092"	"0.0-5.0-2.0-0.54"	"mdjbof"	"563"	"952"	"chrome"	"109.0.0"	"FALSE"	"Windows 10"	"60.9"	"011"	n/a	n/a	n/a	n/a	n/a	n/a	"fixation"	n/a	n/a	n/a	n/a	"NULL"	n/a	"NULL"	"NULL"	"NULL"	"<p style=\"color: black; font-size: 80px; padding-left: 22%; padding-right: 28%; padding-top: 0%; padding-bottom: 11%\">+</p>"	"1393"	n/a	n/a	n/a	n/a	n/a	n/a	n/a	n/a	n/a
n/a	"image-keyboard-response"	"162"	"8243609"	"0.0-5.0-2.0-1.54"	"mdjbof"	"563"	"952"	"chrome"	"109.0.0"	"FALSE"	"Windows 10"	"60.9"	"011"	n/a	n/a	n/a	n/a	n/a	n/a	"Trial"	n/a	n/a	n/a	"514"	"arrowright"	n/a	"NULL"	"NULL"	"NULL"	"stimuli/VerticalHorizontal_20.27143_-0.2250.png"	n/a	"VerticalHorizontal"	"arrowright"	"1397"	"TRUE"	"VerticalHorizontal"	"20.271430000"	"-0.225000000"	"1"	"73"
n/a	"html-keyboard-response"	"163"	"8244665"	"0.0-5.0-2.0-0.55"	"mdjbof"	"563"	"952"	"chrome"	"109.0.0"	"FALSE"	"Windows 10"	"60.9"	"011"	n/a	n/a	n/a	n/a	n/a	n/a	"fixation"	n/a	n/a	n/a	n/a	"NULL"	n/a	"NULL"	"NULL"	"NULL"	"<p style=\"color: black; font-size: 80px; padding-left: 25%; padding-right: 30%; padding-top: 15%; padding-bottom: 47%\">+</p>"	"1042"	n/a	n/a	n/a	n/a	n/a	n/a	n/a	n/a	n/a
n/a	"image-keyboard-response"	"164"	"8245037"	"0.0-5.0-2.0-1.55"	"mdjbof"	"563"	"952"	"chrome"	"109.0.0"	"FALSE"	"Windows 10"	"60.9"	"011"	n/a	n/a	n/a	n/a	n/a	n/a	"Trial"	n/a	n/a	n/a	"371"	"arrowright"	n/a	"NULL"	"NULL"	"NULL"	"stimuli/VerticalHorizontal_-28.75714_-0.16217.png"	n/a	"VerticalHorizontal"	"arrowright"	"1056"	"TRUE"	"VerticalHorizontal"	"-28.75714000"	"-0.162170000"	"1"	"74"
n/a	"html-keyboard-response"	"165"	"8246371"	"0.0-5.0-2.0-0.56"	"mdjbof"	"563"	"952"	"chrome"	"109.0.0"	"FALSE"	"Windows 10"	"60.9"	"011"	n/a	n/a	n/a	n/a	n/a	n/a	"fixation"	n/a	n/a	n/a	n/a	"NULL"	n/a	"NULL"	"NULL"	"NULL"	"<p style=\"color: black; font-size: 80px; padding-left: 44%; padding-right: 29%; padding-top: 17%; padding-bottom: 2%\">+</p>"	"1319"	n/a	n/a	n/a	n/a	n/a	n/a	n/a	n/a	n/a
n/a	"image-keyboard-response"	"166"	"8246758"	"0.0-5.0-2.0-1.56"	"mdjbof"	"563"	"952"	"chrome"	"109.0.0"	"FALSE"	"Windows 10"	"60.9"	"011"	n/a	n/a	n/a	n/a	n/a	n/a	"Trial"	n/a	n/a	n/a	"379"	"arrowright"	n/a	"NULL"	"NULL"	"NULL"	"stimuli/VerticalHorizontal_3.30000_0.10960.png"	n/a	"VerticalHorizontal"	"arrowleft"	"1334"	"FALSE"	"VerticalHorizontal"	"3.3000000000"	"0.1096000000"	"1"	"75"
n/a	"html-keyboard-response"	"167"	"8248009"	"0.0-5.0-2.0-0.57"	"mdjbof"	"563"	"952"	"chrome"	"109.0.0"	"FALSE"	"Windows 10"	"60.9"	"011"	n/a	n/a	n/a	n/a	n/a	n/a	"fixation"	n/a	n/a	n/a	n/a	"NULL"	n/a	"NULL"	"NULL"	"NULL"	"<p style=\"color: black; font-size: 80px; padding-left: 5%; padding-right: 43%; padding-top: 15%; padding-bottom: 33%\">+</p>"	"1232"	n/a	n/a	n/a	n/a	n/a	n/a	n/a	n/a	n/a
n/a	"image-keyboard-response"	"168"	"8248349"	"0.0-5.0-2.0-1.57"	"mdjbof"	"563"	"952"	"chrome"	"109.0.0"	"FALSE"	"Windows 10"	"60.9"	"011"	n/a	n/a	n/a	n/a	n/a	n/a	"Trial"	n/a	n/a	n/a	"338"	"arrowleft"	n/a	"NULL"	"NULL"	"NULL"	"stimuli/VerticalHorizontal_-11.78571_0.06730.png"	n/a	"VerticalHorizontal"	"arrowleft"	"1251"	"TRUE"	"VerticalHorizontal"	"-11.78571000"	"0.0673000000"	"1"	"76"
n/a	"html-keyboard-response"	"169"	"8249628"	"0.0-5.0-2.0-0.58"	"mdjbof"	"563"	"952"	"chrome"	"109.0.0"	"FALSE"	"Windows 10"	"60.9"	"011"	n/a	n/a	n/a	n/a	n/a	n/a	"fixation"	n/a	n/a	n/a	n/a	"NULL"	n/a	"NULL"	"NULL"	"NULL"	"<p style=\"color: black; font-size: 80px; padding-left: 35%; padding-right: 50%; padding-top: 41%; padding-bottom: 24%\">+</p>"	"1258"	n/a	n/a	n/a	n/a	n/a	n/a	n/a	n/a	n/a
n/a	"image-keyboard-response"	"170"	"8249995"	"0.0-5.0-2.0-1.58"	"mdjbof"	"563"	"952"	"chrome"	"109.0.0"	"FALSE"	"Windows 10"	"60.9"	"011"	n/a	n/a	n/a	n/a	n/a	n/a	"Trial"	n/a	n/a	n/a	"365"	"arrowleft"	n/a	"NULL"	"NULL"	"NULL"	"stimuli/VerticalHorizontal_-20.27143_0.06730.png"	n/a	"VerticalHorizontal"	"arrowleft"	"1279"	"TRUE"	"VerticalHorizontal"	"-20.27143000"	"0.0673000000"	"1"	"77"
n/a	"html-keyboard-response"	"171"	"8251294"	"0.0-5.0-2.0-0.59"	"mdjbof"	"563"	"952"	"chrome"	"109.0.0"	"FALSE"	"Windows 10"	"60.9"	"011"	n/a	n/a	n/a	n/a	n/a	n/a	"fixation"	n/a	n/a	n/a	n/a	"NULL"	n/a	"NULL"	"NULL"	"NULL"	"<p style=\"color: black; font-size: 80px; padding-left: 34%; padding-right: 42%; padding-top: 34%; padding-bottom: 29%\">+</p>"	"1289"	n/a	n/a	n/a	n/a	n/a	n/a	n/a	n/a	n/a
n/a	"image-keyboard-response"	"172"	"8251657"	"0.0-5.0-2.0-1.59"	"mdjbof"	"563"	"952"	"chrome"	"109.0.0"	"FALSE"	"Windows 10"	"60.9"	"011"	n/a	n/a	n/a	n/a	n/a	n/a	"Trial"	n/a	n/a	n/a	"361"	"arrowright"	n/a	"NULL"	"NULL"	"NULL"	"stimuli/VerticalHorizontal_3.30000_-0.2250.png"	n/a	"VerticalHorizontal"	"arrowright"	"1299"	"TRUE"	"VerticalHorizontal"	"3.3000000000"	"-0.225000000"	"1"	"78"
n/a	"html-keyboard-response"	"173"	"8252702"	"0.0-5.0-2.0-0.60"	"mdjbof"	"563"	"952"	"chrome"	"109.0.0"	"FALSE"	"Windows 10"	"60.9"	"011"	n/a	n/a	n/a	n/a	n/a	n/a	"fixation"	n/a	n/a	n/a	n/a	"NULL"	n/a	"NULL"	"NULL"	"NULL"	"<p style=\"color: black; font-size: 80px; padding-left: 2%; padding-right: 15%; padding-top: 13%; padding-bottom: 23%\">+</p>"	"1032"	n/a	n/a	n/a	n/a	n/a	n/a	n/a	n/a	n/a
n/a	"image-keyboard-response"	"174"	"8253105"	"0.0-5.0-2.0-1.60"	"mdjbof"	"563"	"952"	"chrome"	"109.0.0"	"FALSE"	"Windows 10"	"60.9"	"011"	n/a	n/a	n/a	n/a	n/a	n/a	"Trial"	n/a	n/a	n/a	"401"	"arrowleft"	n/a	"NULL"	"NULL"	"NULL"	"stimuli/VerticalHorizontal_11.78571_0.06730.png"	n/a	"VerticalHorizontal"	"arrowleft"	"1045"	"TRUE"	"VerticalHorizontal"	"11.785710000"	"0.0673000000"	"1"	"79"
n/a	"html-keyboard-response"	"175"	"8254340"	"0.0-5.0-2.0-0.61"	"mdjbof"	"563"	"952"	"chrome"	"109.0.0"	"FALSE"	"Windows 10"	"60.9"	"011"	n/a	n/a	n/a	n/a	n/a	n/a	"fixation"	n/a	n/a	n/a	n/a	"NULL"	n/a	"NULL"	"NULL"	"NULL"	"<p style=\"color: black; font-size: 80px; padding-left: 31%; padding-right: 46%; padding-top: 35%; padding-bottom: 48%\">+</p>"	"1228"	n/a	n/a	n/a	n/a	n/a	n/a	n/a	n/a	n/a
n/a	"image-keyboard-response"	"176"	"8254702"	"0.0-5.0-2.0-1.61"	"mdjbof"	"563"	"952"	"chrome"	"109.0.0"	"FALSE"	"Windows 10"	"60.9"	"011"	n/a	n/a	n/a	n/a	n/a	n/a	"Trial"	n/a	n/a	n/a	"359"	"arrowright"	n/a	"NULL"	"NULL"	"NULL"	"stimuli/VerticalHorizontal_28.75714_0.10960.png"	n/a	"VerticalHorizontal"	"arrowleft"	"1235"	"FALSE"	"VerticalHorizontal"	"28.757140000"	"0.1096000000"	"1"	"80"
n/a	"html-keyboard-response"	"177"	"8255886"	"0.0-5.0-2.0-0.62"	"mdjbof"	"563"	"952"	"chrome"	"109.0.0"	"FALSE"	"Windows 10"	"60.9"	"011"	n/a	n/a	n/a	n/a	n/a	n/a	"fixation"	n/a	n/a	n/a	n/a	"NULL"	n/a	"NULL"	"NULL"	"NULL"	"<p style=\"color: black; font-size: 80px; padding-left: 8%; padding-right: 27%; padding-top: 49%; padding-bottom: 4%\">+</p>"	"1165"	n/a	n/a	n/a	n/a	n/a	n/a	n/a	n/a	n/a
n/a	"image-keyboard-response"	"178"	"8256299"	"0.0-5.0-2.0-1.62"	"mdjbof"	"563"	"952"	"chrome"	"109.0.0"	"FALSE"	"Windows 10"	"60.9"	"011"	n/a	n/a	n/a	n/a	n/a	n/a	"Trial"	n/a	n/a	n/a	"409"	"arrowleft"	n/a	"NULL"	"NULL"	"NULL"	"stimuli/VerticalHorizontal_28.75714_-0.2250.png"	n/a	"VerticalHorizontal"	"arrowright"	"1184"	"FALSE"	"VerticalHorizontal"	"28.757140000"	"-0.225000000"	"1"	"81"
n/a	"html-keyboard-response"	"179"	"8257319"	"0.0-5.0-2.0-0.63"	"mdjbof"	"563"	"952"	"chrome"	"109.0.0"	"FALSE"	"Windows 10"	"60.9"	"011"	n/a	n/a	n/a	n/a	n/a	n/a	"fixation"	n/a	n/a	n/a	n/a	"NULL"	n/a	"NULL"	"NULL"	"NULL"	"<p style=\"color: black; font-size: 80px; padding-left: 41%; padding-right: 13%; padding-top: 36%; padding-bottom: 22%\">+</p>"	"1010"	n/a	n/a	n/a	n/a	n/a	n/a	n/a	n/a	n/a
n/a	"image-keyboard-response"	"180"	"8257764"	"0.0-5.0-2.0-1.63"	"mdjbof"	"563"	"952"	"chrome"	"109.0.0"	"FALSE"	"Windows 10"	"60.9"	"011"	n/a	n/a	n/a	n/a	n/a	n/a	"Trial"	n/a	n/a	n/a	"444"	"arrowleft"	n/a	"NULL"	"NULL"	"NULL"	"stimuli/VerticalHorizontal_-20.27143_0.22500.png"	n/a	"VerticalHorizontal"	"arrowleft"	"1020"	"TRUE"	"VerticalHorizontal"	"-20.27143000"	"0.2250000000"	"1"	"82"
n/a	"html-button-response"	"181"	"8261801"	"0.0-5.0-3.0"	"mdjbof"	"563"	"952"	"chrome"	"109.0.0"	"FALSE"	"Windows 10"	"60.9"	"011"	n/a	n/a	n/a	n/a	n/a	n/a	"block_results"	n/a	n/a	n/a	"4032"	"0"	n/a	"NULL"	"NULL"	"NULL"	"<p>Your score for this illusion is <p style=\"color: black; font-size: 48px; font-weight: bold;\">83.7 %</p><hr><p>Can you do better in the next illusion?</p>"	n/a	n/a	n/a	n/a	n/a	n/a	n/a	n/a	n/a	n/a
"TRUE"	"preload"	"182"	"8261958"	"0.0-6.0-0.0"	"mdjbof"	"563"	"952"	"chrome"	"109.0.0"	"FALSE"	"Windows 10"	"60.9"	"011"	n/a	n/a	n/a	n/a	n/a	n/a	n/a	n/a	n/a	n/a	n/a	"NULL"	"FALSE"	"list()"	"list()"	"list()"	n/a	n/a	n/a	n/a	n/a	n/a	n/a	n/a	n/a	n/a	n/a
n/a	"html-keyboard-response"	"183"	"8264491"	"0.0-6.0-1.0"	"mdjbof"	"563"	"952"	"chrome"	"109.0.0"	"FALSE"	"Windows 10"	"60.9"	"011"	n/a	n/a	n/a	n/a	n/a	n/a	n/a	n/a	n/a	n/a	"2532"	"enter"	n/a	"NULL"	"NULL"	"NULL"	"<p><b>Part 2/6</b></p><p>In this part, two horizontal red lines will appear one above the other.</p><p>Your task is to select which <b>line is longer</b> in length as fast as you can, without making errors.</p><p>Don't get distracted by the surrounding black arrows at the end of the red lines!</p><p>Press <b>the UP or the DOWN arrow</b> to indicate where is the longer <b>red line.</b></p><div style='float: center'><img src='materials/instructions/MullerLyer_Demo.png' height='300'></img><p><img src='utils/answer/answer_updown_keyboard.PNG' height='150'></img></p><p class='small'>In this example, the correct answer is the <b>UP arrow</b>.</p></div><p>Are you ready? <b>Press ENTER to start</b></p>"	n/a	n/a	n/a	n/a	n/a	n/a	n/a	n/a	n/a	n/a
n/a	"html-keyboard-response"	"184"	"8266231"	"0.0-6.0-2.0-0.0"	"mdjbof"	"563"	"952"	"chrome"	"109.0.0"	"FALSE"	"Windows 10"	"60.9"	"011"	n/a	n/a	n/a	n/a	n/a	n/a	"fixation"	n/a	n/a	n/a	n/a	"NULL"	n/a	"NULL"	"NULL"	"NULL"	"<p style=\"color: black; font-size: 80px; padding-left: 14%; padding-right: 9%; padding-top: 23%; padding-bottom: 9%\">+</p>"	"1208"	n/a	n/a	n/a	n/a	n/a	n/a	n/a	n/a	n/a
n/a	"image-keyboard-response"	"185"	"8266714"	"0.0-6.0-2.0-1.0"	"mdjbof"	"563"	"952"	"chrome"	"109.0.0"	"FALSE"	"Windows 10"	"60.9"	"011"	n/a	n/a	n/a	n/a	n/a	n/a	"Trial"	n/a	n/a	n/a	"482"	"arrowdown"	n/a	"NULL"	"NULL"	"NULL"	"stimuli/MullerLyer_8.21429_-0.07627.png"	n/a	"MullerLyer"	"arrowdown"	"1740"	"TRUE"	"MullerLyer"	"8.2142900000"	"-0.076270000"	"2"	"1"
n/a	"html-keyboard-response"	"186"	"8267730"	"0.0-6.0-2.0-0.1"	"mdjbof"	"563"	"952"	"chrome"	"109.0.0"	"FALSE"	"Windows 10"	"60.9"	"011"	n/a	n/a	n/a	n/a	n/a	n/a	"fixation"	n/a	n/a	n/a	n/a	"NULL"	n/a	"NULL"	"NULL"	"NULL"	"<p style=\"color: black; font-size: 80px; padding-left: 15%; padding-right: 8%; padding-top: 14%; padding-bottom: 44%\">+</p>"	"1006"	n/a	n/a	n/a	n/a	n/a	n/a	n/a	n/a	n/a
n/a	"image-keyboard-response"	"187"	"8268214"	"0.0-6.0-2.0-1.1"	"mdjbof"	"563"	"952"	"chrome"	"109.0.0"	"FALSE"	"Windows 10"	"60.9"	"011"	n/a	n/a	n/a	n/a	n/a	n/a	"Trial"	n/a	n/a	n/a	"482"	"arrowup"	n/a	"NULL"	"NULL"	"NULL"	"stimuli/MullerLyer_20.04286_-0.07627.png"	n/a	"MullerLyer"	"arrowdown"	"1016"	"FALSE"	"MullerLyer"	"20.042860000"	"-0.076270000"	"2"	"2"
n/a	"html-keyboard-response"	"188"	"8269673"	"0.0-6.0-2.0-0.2"	"mdjbof"	"563"	"952"	"chrome"	"109.0.0"	"FALSE"	"Windows 10"	"60.9"	"011"	n/a	n/a	n/a	n/a	n/a	n/a	"fixation"	n/a	n/a	n/a	n/a	"NULL"	n/a	"NULL"	"NULL"	"NULL"	"<p style=\"color: black; font-size: 80px; padding-left: 16%; padding-right: 38%; padding-top: 26%; padding-bottom: 48%\">+</p>"	"1446"	n/a	n/a	n/a	n/a	n/a	n/a	n/a	n/a	n/a
n/a	"image-keyboard-response"	"189"	"8270095"	"0.0-6.0-2.0-1.2"	"mdjbof"	"563"	"952"	"chrome"	"109.0.0"	"FALSE"	"Windows 10"	"60.9"	"011"	n/a	n/a	n/a	n/a	n/a	n/a	"Trial"	n/a	n/a	n/a	"420"	"arrowdown"	n/a	"NULL"	"NULL"	"NULL"	"stimuli/MullerLyer_-2.3000_0.35000.png"	n/a	"MullerLyer"	"arrowup"	"1459"	"FALSE"	"MullerLyer"	"-2.300000000"	"0.3500000000"	"2"	"3"
n/a	"html-keyboard-response"	"190"	"8271263"	"0.0-6.0-2.0-0.3"	"mdjbof"	"563"	"952"	"chrome"	"109.0.0"	"FALSE"	"Windows 10"	"60.9"	"011"	n/a	n/a	n/a	n/a	n/a	n/a	"fixation"	n/a	n/a	n/a	n/a	"NULL"	n/a	"NULL"	"NULL"	"NULL"	"<p style=\"color: black; font-size: 80px; padding-left: 2%; padding-right: 10%; padding-top: 17%; padding-bottom: 20%\">+</p>"	"1147"	n/a	n/a	n/a	n/a	n/a	n/a	n/a	n/a	n/a
n/a	"image-keyboard-response"	"191"	"8272027"	"0.0-6.0-2.0-1.3"	"mdjbof"	"563"	"952"	"chrome"	"109.0.0"	"FALSE"	"Windows 10"	"60.9"	"011"	n/a	n/a	n/a	n/a	n/a	n/a	"Trial"	n/a	n/a	n/a	"763"	"arrowdown"	n/a	"NULL"	"NULL"	"NULL"	"stimuli/MullerLyer_-8.21429_-0.14541.png"	n/a	"MullerLyer"	"arrowdown"	"1168"	"TRUE"	"MullerLyer"	"-8.214290000"	"-0.145410000"	"2"	"4"
n/a	"html-keyboard-response"	"192"	"8273418"	"0.0-6.0-2.0-0.4"	"mdjbof"	"563"	"952"	"chrome"	"109.0.0"	"FALSE"	"Windows 10"	"60.9"	"011"	n/a	n/a	n/a	n/a	n/a	n/a	"fixation"	n/a	n/a	n/a	n/a	"NULL"	n/a	"NULL"	"NULL"	"NULL"	"<p style=\"color: black; font-size: 80px; padding-left: 22%; padding-right: 43%; padding-top: 21%; padding-bottom: 34%\">+</p>"	"1379"	n/a	n/a	n/a	n/a	n/a	n/a	n/a	n/a	n/a
n/a	"image-keyboard-response"	"193"	"8273891"	"0.0-6.0-2.0-1.4"	"mdjbof"	"563"	"952"	"chrome"	"109.0.0"	"FALSE"	"Windows 10"	"60.9"	"011"	n/a	n/a	n/a	n/a	n/a	n/a	"Trial"	n/a	n/a	n/a	"472"	"arrowdown"	n/a	"NULL"	"NULL"	"NULL"	"stimuli/MullerLyer_-20.04286_-0.3500.png"	n/a	"MullerLyer"	"arrowdown"	"1391"	"TRUE"	"MullerLyer"	"-20.04286000"	"-0.350000000"	"2"	"5"
n/a	"html-keyboard-response"	"194"	"8275390"	"0.0-6.0-2.0-0.5"	"mdjbof"	"563"	"952"	"chrome"	"109.0.0"	"FALSE"	"Windows 10"	"60.9"	"011"	n/a	n/a	n/a	n/a	n/a	n/a	"fixation"	n/a	n/a	n/a	n/a	"NULL"	n/a	"NULL"	"NULL"	"NULL"	"<p style=\"color: black; font-size: 80px; padding-left: 25%; padding-right: 32%; padding-top: 27%; padding-bottom: 30%\">+</p>"	"1489"	n/a	n/a	n/a	n/a	n/a	n/a	n/a	n/a	n/a
n/a	"image-keyboard-response"	"195"	"8275869"	"0.0-6.0-2.0-1.5"	"mdjbof"	"563"	"952"	"chrome"	"109.0.0"	"FALSE"	"Windows 10"	"60.9"	"011"	n/a	n/a	n/a	n/a	n/a	n/a	"Trial"	n/a	n/a	n/a	"477"	"arrowdown"	n/a	"NULL"	"NULL"	"NULL"	"stimuli/MullerLyer_-14.12857_-0.23665.png"	n/a	"MullerLyer"	"arrowdown"	"1499"	"TRUE"	"MullerLyer"	"-14.12857000"	"-0.236650000"	"2"	"6"
n/a	"html-keyboard-response"	"196"	"8277107"	"0.0-6.0-2.0-0.6"	"mdjbof"	"563"	"952"	"chrome"	"109.0.0"	"FALSE"	"Windows 10"	"60.9"	"011"	n/a	n/a	n/a	n/a	n/a	n/a	"fixation"	n/a	n/a	n/a	n/a	"NULL"	n/a	"NULL"	"NULL"	"NULL"	"<p style=\"color: black; font-size: 80px; padding-left: 47%; padding-right: 46%; padding-top: 29%; padding-bottom: 22%\">+</p>"	"1217"	n/a	n/a	n/a	n/a	n/a	n/a	n/a	n/a	n/a
n/a	"image-keyboard-response"	"197"	"8277621"	"0.0-6.0-2.0-1.6"	"mdjbof"	"563"	"952"	"chrome"	"109.0.0"	"FALSE"	"Windows 10"	"60.9"	"011"	n/a	n/a	n/a	n/a	n/a	n/a	"Trial"	n/a	n/a	n/a	"514"	"arrowup"	n/a	"NULL"	"NULL"	"NULL"	"stimuli/MullerLyer_20.04286_-0.14541.png"	n/a	"MullerLyer"	"arrowdown"	"1238"	"FALSE"	"MullerLyer"	"20.042860000"	"-0.145410000"	"2"	"7"
n/a	"html-keyboard-response"	"198"	"8279051"	"0.0-6.0-2.0-0.7"	"mdjbof"	"563"	"952"	"chrome"	"109.0.0"	"FALSE"	"Windows 10"	"60.9"	"011"	n/a	n/a	n/a	n/a	n/a	n/a	"fixation"	n/a	n/a	n/a	n/a	"NULL"	n/a	"NULL"	"NULL"	"NULL"	"<p style=\"color: black; font-size: 80px; padding-left: 45%; padding-right: 29%; padding-top: 36%; padding-bottom: 1%\">+</p>"	"1400"	n/a	n/a	n/a	n/a	n/a	n/a	n/a	n/a	n/a
n/a	"image-keyboard-response"	"199"	"8279529"	"0.0-6.0-2.0-1.7"	"mdjbof"	"563"	"952"	"chrome"	"109.0.0"	"FALSE"	"Windows 10"	"60.9"	"011"	n/a	n/a	n/a	n/a	n/a	n/a	"Trial"	n/a	n/a	n/a	"477"	"arrowup"	n/a	"NULL"	"NULL"	"NULL"	"stimuli/MullerLyer_8.21429_0.23665.png"	n/a	"MullerLyer"	"arrowup"	"1430"	"TRUE"	"MullerLyer"	"8.2142900000"	"0.2366500000"	"2"	"8"
n/a	"html-keyboard-response"	"200"	"8280590"	"0.0-6.0-2.0-0.8"	"mdjbof"	"563"	"952"	"chrome"	"109.0.0"	"FALSE"	"Windows 10"	"60.9"	"011"	n/a	n/a	n/a	n/a	n/a	n/a	"fixation"	n/a	n/a	n/a	n/a	"NULL"	n/a	"NULL"	"NULL"	"NULL"	"<p style=\"color: black; font-size: 80px; padding-left: 9%; padding-right: 34%; padding-top: 34%; padding-bottom: 34%\">+</p>"	"1047"	n/a	n/a	n/a	n/a	n/a	n/a	n/a	n/a	n/a
n/a	"image-keyboard-response"	"201"	"8281035"	"0.0-6.0-2.0-1.8"	"mdjbof"	"563"	"952"	"chrome"	"109.0.0"	"FALSE"	"Windows 10"	"60.9"	"011"	n/a	n/a	n/a	n/a	n/a	n/a	"Trial"	n/a	n/a	n/a	"443"	"arrowup"	n/a	"NULL"	"NULL"	"NULL"	"stimuli/MullerLyer_20.04286_-0.3500.png"	n/a	"MullerLyer"	"arrowdown"	"1061"	"FALSE"	"MullerLyer"	"20.042860000"	"-0.350000000"	"2"	"9"
n/a	"html-keyboard-response"	"202"	"8282057"	"0.0-6.0-2.0-0.9"	"mdjbof"	"563"	"952"	"chrome"	"109.0.0"	"FALSE"	"Windows 10"	"60.9"	"011"	n/a	n/a	n/a	n/a	n/a	n/a	"fixation"	n/a	n/a	n/a	n/a	"NULL"	n/a	"NULL"	"NULL"	"NULL"	"<p style=\"color: black; font-size: 80px; padding-left: 6%; padding-right: 21%; padding-top: 12%; padding-bottom: 20%\">+</p>"	"1013"	n/a	n/a	n/a	n/a	n/a	n/a	n/a	n/a	n/a
n/a	"image-keyboard-response"	"203"	"8282498"	"0.0-6.0-2.0-1.9"	"mdjbof"	"563"	"952"	"chrome"	"109.0.0"	"FALSE"	"Windows 10"	"60.9"	"011"	n/a	n/a	n/a	n/a	n/a	n/a	"Trial"	n/a	n/a	n/a	"439"	"arrowdown"	n/a	"NULL"	"NULL"	"NULL"	"stimuli/MullerLyer_2.30000_-0.07627.png"	n/a	"MullerLyer"	"arrowdown"	"1022"	"TRUE"	"MullerLyer"	"2.3000000000"	"-0.076270000"	"2"	"10"
n/a	"html-keyboard-response"	"204"	"8283523"	"0.0-6.0-2.0-0.10"	"mdjbof"	"563"	"952"	"chrome"	"109.0.0"	"FALSE"	"Windows 10"	"60.9"	"011"	n/a	n/a	n/a	n/a	n/a	n/a	"fixation"	n/a	n/a	n/a	n/a	"NULL"	n/a	"NULL"	"NULL"	"NULL"	"<p style=\"color: black; font-size: 80px; padding-left: 11%; padding-right: 10%; padding-top: 23%; padding-bottom: 0%\">+</p>"	"1016"	n/a	n/a	n/a	n/a	n/a	n/a	n/a	n/a	n/a
n/a	"image-keyboard-response"	"205"	"8283928"	"0.0-6.0-2.0-1.10"	"mdjbof"	"563"	"952"	"chrome"	"109.0.0"	"FALSE"	"Windows 10"	"60.9"	"011"	n/a	n/a	n/a	n/a	n/a	n/a	"Trial"	n/a	n/a	n/a	"403"	"arrowup"	n/a	"NULL"	"NULL"	"NULL"	"stimuli/MullerLyer_-14.12857_0.23665.png"	n/a	"MullerLyer"	"arrowup"	"1025"	"TRUE"	"MullerLyer"	"-14.12857000"	"0.2366500000"	"2"	"11"
n/a	"html-keyboard-response"	"206"	"8284967"	"0.0-6.0-2.0-0.11"	"mdjbof"	"563"	"952"	"chrome"	"109.0.0"	"FALSE"	"Windows 10"	"60.9"	"011"	n/a	n/a	n/a	n/a	n/a	n/a	"fixation"	n/a	n/a	n/a	n/a	"NULL"	n/a	"NULL"	"NULL"	"NULL"	"<p style=\"color: black; font-size: 80px; padding-left: 25%; padding-right: 47%; padding-top: 23%; padding-bottom: 5%\">+</p>"	"1023"	n/a	n/a	n/a	n/a	n/a	n/a	n/a	n/a	n/a
n/a	"image-keyboard-response"	"207"	"8285465"	"0.0-6.0-2.0-1.11"	"mdjbof"	"563"	"952"	"chrome"	"109.0.0"	"FALSE"	"Windows 10"	"60.9"	"011"	n/a	n/a	n/a	n/a	n/a	n/a	"Trial"	n/a	n/a	n/a	"498"	"arrowup"	n/a	"NULL"	"NULL"	"NULL"	"stimuli/MullerLyer_-2.3000_0.07627.png"	n/a	"MullerLyer"	"arrowup"	"1039"	"TRUE"	"MullerLyer"	"-2.300000000"	"0.0762700000"	"2"	"12"
n/a	"html-keyboard-response"	"208"	"8286545"	"0.0-6.0-2.0-0.12"	"mdjbof"	"563"	"952"	"chrome"	"109.0.0"	"FALSE"	"Windows 10"	"60.9"	"011"	n/a	n/a	n/a	n/a	n/a	n/a	"fixation"	n/a	n/a	n/a	n/a	"NULL"	n/a	"NULL"	"NULL"	"NULL"	"<p style=\"color: black; font-size: 80px; padding-left: 24%; padding-right: 13%; padding-top: 47%; padding-bottom: 42%\">+</p>"	"1072"	n/a	n/a	n/a	n/a	n/a	n/a	n/a	n/a	n/a
n/a	"image-keyboard-response"	"209"	"8287004"	"0.0-6.0-2.0-1.12"	"mdjbof"	"563"	"952"	"chrome"	"109.0.0"	"FALSE"	"Windows 10"	"60.9"	"011"	n/a	n/a	n/a	n/a	n/a	n/a	"Trial"	n/a	n/a	n/a	"459"	"arrowup"	n/a	"NULL"	"NULL"	"NULL"	"stimuli/MullerLyer_20.04286_0.23665.png"	n/a	"MullerLyer"	"arrowup"	"1080"	"TRUE"	"MullerLyer"	"20.042860000"	"0.2366500000"	"2"	"13"
n/a	"html-keyboard-response"	"210"	"8288354"	"0.0-6.0-2.0-0.13"	"mdjbof"	"563"	"952"	"chrome"	"109.0.0"	"FALSE"	"Windows 10"	"60.9"	"011"	n/a	n/a	n/a	n/a	n/a	n/a	"fixation"	n/a	n/a	n/a	n/a	"NULL"	n/a	"NULL"	"NULL"	"NULL"	"<p style=\"color: black; font-size: 80px; padding-left: 16%; padding-right: 31%; padding-top: 1%; padding-bottom: 3%\">+</p>"	"1331"	n/a	n/a	n/a	n/a	n/a	n/a	n/a	n/a	n/a
n/a	"image-keyboard-response"	"211"	"8288777"	"0.0-6.0-2.0-1.13"	"mdjbof"	"563"	"952"	"chrome"	"109.0.0"	"FALSE"	"Windows 10"	"60.9"	"011"	n/a	n/a	n/a	n/a	n/a	n/a	"Trial"	n/a	n/a	n/a	"422"	"arrowup"	n/a	"NULL"	"NULL"	"NULL"	"stimuli/MullerLyer_-2.3000_0.23665.png"	n/a	"MullerLyer"	"arrowup"	"1350"	"TRUE"	"MullerLyer"	"-2.300000000"	"0.2366500000"	"2"	"14"
n/a	"html-keyboard-response"	"212"	"8290225"	"0.0-6.0-2.0-0.14"	"mdjbof"	"563"	"952"	"chrome"	"109.0.0"	"FALSE"	"Windows 10"	"60.9"	"011"	n/a	n/a	n/a	n/a	n/a	n/a	"fixation"	n/a	n/a	n/a	n/a	"NULL"	n/a	"NULL"	"NULL"	"NULL"	"<p style=\"color: black; font-size: 80px; padding-left: 37%; padding-right: 28%; padding-top: 19%; padding-bottom: 36%\">+</p>"	"1429"	n/a	n/a	n/a	n/a	n/a	n/a	n/a	n/a	n/a
n/a	"image-keyboard-response"	"213"	"8290776"	"0.0-6.0-2.0-1.14"	"mdjbof"	"563"	"952"	"chrome"	"109.0.0"	"FALSE"	"Windows 10"	"60.9"	"011"	n/a	n/a	n/a	n/a	n/a	n/a	"Trial"	n/a	n/a	n/a	"550"	"arrowdown"	n/a	"NULL"	"NULL"	"NULL"	"stimuli/MullerLyer_2.30000_-0.3500.png"	n/a	"MullerLyer"	"arrowdown"	"1448"	"TRUE"	"MullerLyer"	"2.3000000000"	"-0.350000000"	"2"	"15"
n/a	"html-keyboard-response"	"214"	"8292231"	"0.0-6.0-2.0-0.15"	"mdjbof"	"563"	"952"	"chrome"	"109.0.0"	"FALSE"	"Windows 10"	"60.9"	"011"	n/a	n/a	n/a	n/a	n/a	n/a	"fixation"	n/a	n/a	n/a	n/a	"NULL"	n/a	"NULL"	"NULL"	"NULL"	"<p style=\"color: black; font-size: 80px; padding-left: 10%; padding-right: 38%; padding-top: 8%; padding-bottom: 42%\">+</p>"	"1449"	n/a	n/a	n/a	n/a	n/a	n/a	n/a	n/a	n/a
n/a	"image-keyboard-response"	"215"	"8292636"	"0.0-6.0-2.0-1.15"	"mdjbof"	"563"	"952"	"chrome"	"109.0.0"	"FALSE"	"Windows 10"	"60.9"	"011"	n/a	n/a	n/a	n/a	n/a	n/a	"Trial"	n/a	n/a	n/a	"402"	"arrowdown"	n/a	"NULL"	"NULL"	"NULL"	"stimuli/MullerLyer_-20.04286_-0.14541.png"	n/a	"MullerLyer"	"arrowdown"	"1455"	"TRUE"	"MullerLyer"	"-20.04286000"	"-0.145410000"	"2"	"16"
n/a	"html-keyboard-response"	"216"	"8293949"	"0.0-6.0-2.0-0.16"	"mdjbof"	"563"	"952"	"chrome"	"109.0.0"	"FALSE"	"Windows 10"	"60.9"	"011"	n/a	n/a	n/a	n/a	n/a	n/a	"fixation"	n/a	n/a	n/a	n/a	"NULL"	n/a	"NULL"	"NULL"	"NULL"	"<p style=\"color: black; font-size: 80px; padding-left: 24%; padding-right: 5%; padding-top: 35%; padding-bottom: 31%\">+</p>"	"1307"	n/a	n/a	n/a	n/a	n/a	n/a	n/a	n/a	n/a
n/a	"image-keyboard-response"	"217"	"8294297"	"0.0-6.0-2.0-1.16"	"mdjbof"	"563"	"952"	"chrome"	"109.0.0"	"FALSE"	"Windows 10"	"60.9"	"011"	n/a	n/a	n/a	n/a	n/a	n/a	"Trial"	n/a	n/a	n/a	"347"	"arrowup"	n/a	"NULL"	"NULL"	"NULL"	"stimuli/MullerLyer_-20.04286_0.07627.png"	n/a	"MullerLyer"	"arrowup"	"1313"	"TRUE"	"MullerLyer"	"-20.04286000"	"0.0762700000"	"2"	"17"
n/a	"html-keyboard-response"	"218"	"8295439"	"0.0-6.0-2.0-0.17"	"mdjbof"	"563"	"952"	"chrome"	"109.0.0"	"FALSE"	"Windows 10"	"60.9"	"011"	n/a	n/a	n/a	n/a	n/a	n/a	"fixation"	n/a	n/a	n/a	n/a	"NULL"	n/a	"NULL"	"NULL"	"NULL"	"<p style=\"color: black; font-size: 80px; padding-left: 48%; padding-right: 5%; padding-top: 32%; padding-bottom: 0%\">+</p>"	"1123"	n/a	n/a	n/a	n/a	n/a	n/a	n/a	n/a	n/a
n/a	"image-keyboard-response"	"219"	"8295923"	"0.0-6.0-2.0-1.17"	"mdjbof"	"563"	"952"	"chrome"	"109.0.0"	"FALSE"	"Windows 10"	"60.9"	"011"	n/a	n/a	n/a	n/a	n/a	n/a	"Trial"	n/a	n/a	n/a	"483"	"arrowdown"	n/a	"NULL"	"NULL"	"NULL"	"stimuli/MullerLyer_-20.04286_-0.23665.png"	n/a	"MullerLyer"	"arrowdown"	"1142"	"TRUE"	"MullerLyer"	"-20.04286000"	"-0.236650000"	"2"	"18"
n/a	"html-keyboard-response"	"220"	"8297221"	"0.0-6.0-2.0-0.18"	"mdjbof"	"563"	"952"	"chrome"	"109.0.0"	"FALSE"	"Windows 10"	"60.9"	"011"	n/a	n/a	n/a	n/a	n/a	n/a	"fixation"	n/a	n/a	n/a	n/a	"NULL"	n/a	"NULL"	"NULL"	"NULL"	"<p style=\"color: black; font-size: 80px; padding-left: 39%; padding-right: 12%; padding-top: 7%; padding-bottom: 1%\">+</p>"	"1286"	n/a	n/a	n/a	n/a	n/a	n/a	n/a	n/a	n/a
n/a	"image-keyboard-response"	"221"	"8297709"	"0.0-6.0-2.0-1.18"	"mdjbof"	"563"	"952"	"chrome"	"109.0.0"	"FALSE"	"Windows 10"	"60.9"	"011"	n/a	n/a	n/a	n/a	n/a	n/a	"Trial"	n/a	n/a	n/a	"487"	"arrowup"	n/a	"NULL"	"NULL"	"NULL"	"stimuli/MullerLyer_14.12857_-0.3500.png"	n/a	"MullerLyer"	"arrowdown"	"1298"	"FALSE"	"MullerLyer"	"14.128570000"	"-0.350000000"	"2"	"19"
n/a	"html-keyboard-response"	"222"	"8299184"	"0.0-6.0-2.0-0.19"	"mdjbof"	"563"	"952"	"chrome"	"109.0.0"	"FALSE"	"Windows 10"	"60.9"	"011"	n/a	n/a	n/a	n/a	n/a	n/a	"fixation"	n/a	n/a	n/a	n/a	"NULL"	n/a	"NULL"	"NULL"	"NULL"	"<p style=\"color: black; font-size: 80px; padding-left: 36%; padding-right: 5%; padding-top: 43%; padding-bottom: 0%\">+</p>"	"1466"	n/a	n/a	n/a	n/a	n/a	n/a	n/a	n/a	n/a
n/a	"image-keyboard-response"	"223"	"8299584"	"0.0-6.0-2.0-1.19"	"mdjbof"	"563"	"952"	"chrome"	"109.0.0"	"FALSE"	"Windows 10"	"60.9"	"011"	n/a	n/a	n/a	n/a	n/a	n/a	"Trial"	n/a	n/a	n/a	"399"	"arrowdown"	n/a	"NULL"	"NULL"	"NULL"	"stimuli/MullerLyer_2.30000_-0.23665.png"	n/a	"MullerLyer"	"arrowdown"	"1475"	"TRUE"	"MullerLyer"	"2.3000000000"	"-0.236650000"	"2"	"20"
n/a	"html-keyboard-response"	"224"	"8300737"	"0.0-6.0-2.0-0.20"	"mdjbof"	"563"	"952"	"chrome"	"109.0.0"	"FALSE"	"Windows 10"	"60.9"	"011"	n/a	n/a	n/a	n/a	n/a	n/a	"fixation"	n/a	n/a	n/a	n/a	"NULL"	n/a	"NULL"	"NULL"	"NULL"	"<p style=\"color: black; font-size: 80px; padding-left: 44%; padding-right: 38%; padding-top: 33%; padding-bottom: 33%\">+</p>"	"1146"	n/a	n/a	n/a	n/a	n/a	n/a	n/a	n/a	n/a
n/a	"image-keyboard-response"	"225"	"8301103"	"0.0-6.0-2.0-1.20"	"mdjbof"	"563"	"952"	"chrome"	"109.0.0"	"FALSE"	"Windows 10"	"60.9"	"011"	n/a	n/a	n/a	n/a	n/a	n/a	"Trial"	n/a	n/a	n/a	"365"	"arrowdown"	n/a	"NULL"	"NULL"	"NULL"	"stimuli/MullerLyer_-14.12857_-0.07627.png"	n/a	"MullerLyer"	"arrowdown"	"1153"	"TRUE"	"MullerLyer"	"-14.12857000"	"-0.076270000"	"2"	"21"
n/a	"html-keyboard-response"	"226"	"8302591"	"0.0-6.0-2.0-0.21"	"mdjbof"	"563"	"952"	"chrome"	"109.0.0"	"FALSE"	"Windows 10"	"60.9"	"011"	n/a	n/a	n/a	n/a	n/a	n/a	"fixation"	n/a	n/a	n/a	n/a	"NULL"	n/a	"NULL"	"NULL"	"NULL"	"<p style=\"color: black; font-size: 80px; padding-left: 15%; padding-right: 23%; padding-top: 47%; padding-bottom: 31%\">+</p>"	"1480"	n/a	n/a	n/a	n/a	n/a	n/a	n/a	n/a	n/a
n/a	"image-keyboard-response"	"227"	"8303068"	"0.0-6.0-2.0-1.21"	"mdjbof"	"563"	"952"	"chrome"	"109.0.0"	"FALSE"	"Windows 10"	"60.9"	"011"	n/a	n/a	n/a	n/a	n/a	n/a	"Trial"	n/a	n/a	n/a	"474"	"arrowdown"	n/a	"NULL"	"NULL"	"NULL"	"stimuli/MullerLyer_-8.21429_-0.3500.png"	n/a	"MullerLyer"	"arrowdown"	"1488"	"TRUE"	"MullerLyer"	"-8.214290000"	"-0.350000000"	"2"	"22"
n/a	"html-keyboard-response"	"228"	"8304134"	"0.0-6.0-2.0-0.22"	"mdjbof"	"563"	"952"	"chrome"	"109.0.0"	"FALSE"	"Windows 10"	"60.9"	"011"	n/a	n/a	n/a	n/a	n/a	n/a	"fixation"	n/a	n/a	n/a	n/a	"NULL"	n/a	"NULL"	"NULL"	"NULL"	"<p style=\"color: black; font-size: 80px; padding-left: 23%; padding-right: 16%; padding-top: 12%; padding-bottom: 45%\">+</p>"	"1062"	n/a	n/a	n/a	n/a	n/a	n/a	n/a	n/a	n/a
n/a	"image-keyboard-response"	"229"	"8304534"	"0.0-6.0-2.0-1.22"	"mdjbof"	"563"	"952"	"chrome"	"109.0.0"	"FALSE"	"Windows 10"	"60.9"	"011"	n/a	n/a	n/a	n/a	n/a	n/a	"Trial"	n/a	n/a	n/a	"398"	"arrowup"	n/a	"NULL"	"NULL"	"NULL"	"stimuli/MullerLyer_2.30000_0.07627.png"	n/a	"MullerLyer"	"arrowup"	"1066"	"TRUE"	"MullerLyer"	"2.3000000000"	"0.0762700000"	"2"	"23"
n/a	"html-keyboard-response"	"230"	"8305605"	"0.0-6.0-2.0-0.23"	"mdjbof"	"563"	"952"	"chrome"	"109.0.0"	"FALSE"	"Windows 10"	"60.9"	"011"	n/a	n/a	n/a	n/a	n/a	n/a	"fixation"	n/a	n/a	n/a	n/a	"NULL"	n/a	"NULL"	"NULL"	"NULL"	"<p style=\"color: black; font-size: 80px; padding-left: 16%; padding-right: 25%; padding-top: 38%; padding-bottom: 35%\">+</p>"	"1067"	n/a	n/a	n/a	n/a	n/a	n/a	n/a	n/a	n/a
n/a	"image-keyboard-response"	"231"	"8306011"	"0.0-6.0-2.0-1.23"	"mdjbof"	"563"	"952"	"chrome"	"109.0.0"	"FALSE"	"Windows 10"	"60.9"	"011"	n/a	n/a	n/a	n/a	n/a	n/a	"Trial"	n/a	n/a	n/a	"404"	"arrowdown"	n/a	"NULL"	"NULL"	"NULL"	"stimuli/MullerLyer_-8.21429_-0.07627.png"	n/a	"MullerLyer"	"arrowdown"	"1071"	"TRUE"	"MullerLyer"	"-8.214290000"	"-0.076270000"	"2"	"24"
n/a	"html-keyboard-response"	"232"	"8307278"	"0.0-6.0-2.0-0.24"	"mdjbof"	"563"	"952"	"chrome"	"109.0.0"	"FALSE"	"Windows 10"	"60.9"	"011"	n/a	n/a	n/a	n/a	n/a	n/a	"fixation"	n/a	n/a	n/a	n/a	"NULL"	n/a	"NULL"	"NULL"	"NULL"	"<p style=\"color: black; font-size: 80px; padding-left: 35%; padding-right: 34%; padding-top: 4%; padding-bottom: 36%\">+</p>"	"1263"	n/a	n/a	n/a	n/a	n/a	n/a	n/a	n/a	n/a
n/a	"image-keyboard-response"	"233"	"8307778"	"0.0-6.0-2.0-1.24"	"mdjbof"	"563"	"952"	"chrome"	"109.0.0"	"FALSE"	"Windows 10"	"60.9"	"011"	n/a	n/a	n/a	n/a	n/a	n/a	"Trial"	n/a	n/a	n/a	"499"	"arrowup"	n/a	"NULL"	"NULL"	"NULL"	"stimuli/MullerLyer_2.30000_0.35000.png"	n/a	"MullerLyer"	"arrowup"	"1267"	"TRUE"	"MullerLyer"	"2.3000000000"	"0.3500000000"	"2"	"25"
n/a	"html-keyboard-response"	"234"	"8308943"	"0.0-6.0-2.0-0.25"	"mdjbof"	"563"	"952"	"chrome"	"109.0.0"	"FALSE"	"Windows 10"	"60.9"	"011"	n/a	n/a	n/a	n/a	n/a	n/a	"fixation"	n/a	n/a	n/a	n/a	"NULL"	n/a	"NULL"	"NULL"	"NULL"	"<p style=\"color: black; font-size: 80px; padding-left: 28%; padding-right: 14%; padding-top: 17%; padding-bottom: 45%\">+</p>"	"1152"	n/a	n/a	n/a	n/a	n/a	n/a	n/a	n/a	n/a
n/a	"image-keyboard-response"	"235"	"8309371"	"0.0-6.0-2.0-1.25"	"mdjbof"	"563"	"952"	"chrome"	"109.0.0"	"FALSE"	"Windows 10"	"60.9"	"011"	n/a	n/a	n/a	n/a	n/a	n/a	"Trial"	n/a	n/a	n/a	"426"	"arrowup"	n/a	"NULL"	"NULL"	"NULL"	"stimuli/MullerLyer_-14.12857_0.07627.png"	n/a	"MullerLyer"	"arrowup"	"1165"	"TRUE"	"MullerLyer"	"-14.12857000"	"0.0762700000"	"2"	"26"
n/a	"html-keyboard-response"	"236"	"8310463"	"0.0-6.0-2.0-0.26"	"mdjbof"	"563"	"952"	"chrome"	"109.0.0"	"FALSE"	"Windows 10"	"60.9"	"011"	n/a	n/a	n/a	n/a	n/a	n/a	"fixation"	n/a	n/a	n/a	n/a	"NULL"	n/a	"NULL"	"NULL"	"NULL"	"<p style=\"color: black; font-size: 80px; padding-left: 34%; padding-right: 5%; padding-top: 47%; padding-bottom: 35%\">+</p>"	"1082"	n/a	n/a	n/a	n/a	n/a	n/a	n/a	n/a	n/a
n/a	"image-keyboard-response"	"237"	"8310849"	"0.0-6.0-2.0-1.26"	"mdjbof"	"563"	"952"	"chrome"	"109.0.0"	"FALSE"	"Windows 10"	"60.9"	"011"	n/a	n/a	n/a	n/a	n/a	n/a	"Trial"	n/a	n/a	n/a	"385"	"arrowup"	n/a	"NULL"	"NULL"	"NULL"	"stimuli/MullerLyer_-8.21429_0.14541.png"	n/a	"MullerLyer"	"arrowup"	"1092"	"TRUE"	"MullerLyer"	"-8.214290000"	"0.1454100000"	"2"	"27"
n/a	"html-keyboard-response"	"238"	"8311863"	"0.0-6.0-2.0-0.27"	"mdjbof"	"563"	"952"	"chrome"	"109.0.0"	"FALSE"	"Windows 10"	"60.9"	"011"	n/a	n/a	n/a	n/a	n/a	n/a	"fixation"	n/a	n/a	n/a	n/a	"NULL"	n/a	"NULL"	"NULL"	"NULL"	"<p style=\"color: black; font-size: 80px; padding-left: 7%; padding-right: 25%; padding-top: 11%; padding-bottom: 44%\">+</p>"	"1004"	n/a	n/a	n/a	n/a	n/a	n/a	n/a	n/a	n/a
n/a	"image-keyboard-response"	"239"	"8312243"	"0.0-6.0-2.0-1.27"	"mdjbof"	"563"	"952"	"chrome"	"109.0.0"	"FALSE"	"Windows 10"	"60.9"	"011"	n/a	n/a	n/a	n/a	n/a	n/a	"Trial"	n/a	n/a	n/a	"379"	"arrowup"	n/a	"NULL"	"NULL"	"NULL"	"stimuli/MullerLyer_-14.12857_0.35000.png"	n/a	"MullerLyer"	"arrowup"	"1014"	"TRUE"	"MullerLyer"	"-14.12857000"	"0.3500000000"	"2"	"28"
n/a	"html-keyboard-response"	"240"	"8313567"	"0.0-6.0-2.0-0.28"	"mdjbof"	"563"	"952"	"chrome"	"109.0.0"	"FALSE"	"Windows 10"	"60.9"	"011"	n/a	n/a	n/a	n/a	n/a	n/a	"fixation"	n/a	n/a	n/a	n/a	"NULL"	n/a	"NULL"	"NULL"	"NULL"	"<p style=\"color: black; font-size: 80px; padding-left: 26%; padding-right: 3%; padding-top: 46%; padding-bottom: 1%\">+</p>"	"1312"	n/a	n/a	n/a	n/a	n/a	n/a	n/a	n/a	n/a
n/a	"image-keyboard-response"	"241"	"8313923"	"0.0-6.0-2.0-1.28"	"mdjbof"	"563"	"952"	"chrome"	"109.0.0"	"FALSE"	"Windows 10"	"60.9"	"011"	n/a	n/a	n/a	n/a	n/a	n/a	"Trial"	n/a	n/a	n/a	"356"	"arrowup"	n/a	"NULL"	"NULL"	"NULL"	"stimuli/MullerLyer_-20.04286_0.23665.png"	n/a	"MullerLyer"	"arrowup"	"1324"	"TRUE"	"MullerLyer"	"-20.04286000"	"0.2366500000"	"2"	"29"
n/a	"html-keyboard-response"	"242"	"8314965"	"0.0-6.0-2.0-0.29"	"mdjbof"	"563"	"952"	"chrome"	"109.0.0"	"FALSE"	"Windows 10"	"60.9"	"011"	n/a	n/a	n/a	n/a	n/a	n/a	"fixation"	n/a	n/a	n/a	n/a	"NULL"	n/a	"NULL"	"NULL"	"NULL"	"<p style=\"color: black; font-size: 80px; padding-left: 34%; padding-right: 47%; padding-top: 42%; padding-bottom: 38%\">+</p>"	"1015"	n/a	n/a	n/a	n/a	n/a	n/a	n/a	n/a	n/a
n/a	"image-keyboard-response"	"243"	"8315305"	"0.0-6.0-2.0-1.29"	"mdjbof"	"563"	"952"	"chrome"	"109.0.0"	"FALSE"	"Windows 10"	"60.9"	"011"	n/a	n/a	n/a	n/a	n/a	n/a	"Trial"	n/a	n/a	n/a	"338"	"arrowup"	n/a	"NULL"	"NULL"	"NULL"	"stimuli/MullerLyer_-14.12857_0.14541.png"	n/a	"MullerLyer"	"arrowup"	"1042"	"TRUE"	"MullerLyer"	"-14.12857000"	"0.1454100000"	"2"	"30"
n/a	"html-keyboard-response"	"244"	"8316549"	"0.0-6.0-2.0-0.30"	"mdjbof"	"563"	"952"	"chrome"	"109.0.0"	"FALSE"	"Windows 10"	"60.9"	"011"	n/a	n/a	n/a	n/a	n/a	n/a	"fixation"	n/a	n/a	n/a	n/a	"NULL"	n/a	"NULL"	"NULL"	"NULL"	"<p style=\"color: black; font-size: 80px; padding-left: 13%; padding-right: 32%; padding-top: 38%; padding-bottom: 33%\">+</p>"	"1226"	n/a	n/a	n/a	n/a	n/a	n/a	n/a	n/a	n/a
n/a	"image-keyboard-response"	"245"	"8317010"	"0.0-6.0-2.0-1.30"	"mdjbof"	"563"	"952"	"chrome"	"109.0.0"	"FALSE"	"Windows 10"	"60.9"	"011"	n/a	n/a	n/a	n/a	n/a	n/a	"Trial"	n/a	n/a	n/a	"459"	"arrowdown"	n/a	"NULL"	"NULL"	"NULL"	"stimuli/MullerLyer_20.04286_0.07627.png"	n/a	"MullerLyer"	"arrowup"	"1244"	"FALSE"	"MullerLyer"	"20.042860000"	"0.0762700000"	"2"	"31"
n/a	"html-keyboard-response"	"246"	"8318154"	"0.0-6.0-2.0-0.31"	"mdjbof"	"563"	"952"	"chrome"	"109.0.0"	"FALSE"	"Windows 10"	"60.9"	"011"	n/a	n/a	n/a	n/a	n/a	n/a	"fixation"	n/a	n/a	n/a	n/a	"NULL"	n/a	"NULL"	"NULL"	"NULL"	"<p style=\"color: black; font-size: 80px; padding-left: 16%; padding-right: 25%; padding-top: 1%; padding-bottom: 26%\">+</p>"	"1136"	n/a	n/a	n/a	n/a	n/a	n/a	n/a	n/a	n/a
n/a	"image-keyboard-response"	"247"	"8318603"	"0.0-6.0-2.0-1.31"	"mdjbof"	"563"	"952"	"chrome"	"109.0.0"	"FALSE"	"Windows 10"	"60.9"	"011"	n/a	n/a	n/a	n/a	n/a	n/a	"Trial"	n/a	n/a	n/a	"447"	"arrowdown"	n/a	"NULL"	"NULL"	"NULL"	"stimuli/MullerLyer_8.21429_-0.14541.png"	n/a	"MullerLyer"	"arrowdown"	"1144"	"TRUE"	"MullerLyer"	"8.2142900000"	"-0.145410000"	"2"	"32"
n/a	"html-keyboard-response"	"248"	"8319847"	"0.0-6.0-2.0-0.32"	"mdjbof"	"563"	"952"	"chrome"	"109.0.0"	"FALSE"	"Windows 10"	"60.9"	"011"	n/a	n/a	n/a	n/a	n/a	n/a	"fixation"	n/a	n/a	n/a	n/a	"NULL"	n/a	"NULL"	"NULL"	"NULL"	"<p style=\"color: black; font-size: 80px; padding-left: 7%; padding-right: 29%; padding-top: 8%; padding-bottom: 16%\">+</p>"	"1238"	n/a	n/a	n/a	n/a	n/a	n/a	n/a	n/a	n/a
n/a	"image-keyboard-response"	"249"	"8320247"	"0.0-6.0-2.0-1.32"	"mdjbof"	"563"	"952"	"chrome"	"109.0.0"	"FALSE"	"Windows 10"	"60.9"	"011"	n/a	n/a	n/a	n/a	n/a	n/a	"Trial"	n/a	n/a	n/a	"397"	"arrowup"	n/a	"NULL"	"NULL"	"NULL"	"stimuli/MullerLyer_14.12857_-0.14541.png"	n/a	"MullerLyer"	"arrowdown"	"1244"	"FALSE"	"MullerLyer"	"14.128570000"	"-0.145410000"	"2"	"33"
