"success"	"trial_type"	"trial_index"	"time_elapsed"	"internal_node_id"	"participant_id"	"screen_height"	"screen_width"	"browser"	"browser_version"	"mobile"	"os"	"vsync_rate"	"subject_id"	"width"	"height"	"webaudio"	"fullscreen"	"webcam"	"microphone"	"screen"	"version"	"date"	"time"	"rt"	"response"	"timeout"	"failed_images"	"failed_audio"	"failed_video"	"stimulus"	"trial_duration"	"block"	"correct_response"	"prestimulus_duration"	"correct"	"type"	"illusion_strength"	"illusion_difference"	"block_number"	"trial_number"
"TRUE"	"fullscreen"	"0"	"2361"	"0.0-0.0"	"8hg7bp"	"600"	"1366"	"chrome"	"109.0.0"	"FALSE"	"Windows 10"	"60"	"021"	n/a	n/a	n/a	n/a	n/a	n/a	n/a	n/a	n/a	n/a	n/a	"NULL"	n/a	"NULL"	"NULL"	"NULL"	n/a	n/a	n/a	n/a	n/a	n/a	n/a	n/a	n/a	n/a	n/a
n/a	"browser-check"	"1"	"3368"	"0.0-1.0"	"8hg7bp"	"600"	"1366"	"chrome"	"109.0.0"	"FALSE"	"Windows 10"	"60"	"021"	"1366"	"600"	"TRUE"	"TRUE"	"TRUE"	"TRUE"	"browser_info"	"1.0"	"17/02/2023"	"15:40:41"	n/a	"NULL"	n/a	"NULL"	"NULL"	"NULL"	n/a	n/a	n/a	n/a	n/a	n/a	n/a	n/a	n/a	n/a	n/a
n/a	"survey-text"	"2"	"6277"	"0.0-2.0"	"8hg7bp"	"600"	"1366"	"chrome"	"109.0.0"	"FALSE"	"Windows 10"	"60"	"021"	n/a	n/a	n/a	n/a	n/a	n/a	"subject_id"	n/a	n/a	n/a	"2904"	"list(subject_id = \"021\")"	n/a	"NULL"	"NULL"	"NULL"	n/a	n/a	n/a	n/a	n/a	n/a	n/a	n/a	n/a	n/a	n/a
"TRUE"	"preload"	"3"	"6283"	"0.0-3.0"	"8hg7bp"	"600"	"1366"	"chrome"	"109.0.0"	"FALSE"	"Windows 10"	"60"	"021"	n/a	n/a	n/a	n/a	n/a	n/a	n/a	n/a	n/a	n/a	n/a	"NULL"	"FALSE"	"list()"	"list()"	"list()"	n/a	n/a	n/a	n/a	n/a	n/a	n/a	n/a	n/a	n/a	n/a
n/a	"html-button-response"	"4"	"35707"	"0.0-4.0-0.0"	"8hg7bp"	"600"	"1366"	"chrome"	"109.0.0"	"FALSE"	"Windows 10"	"60"	"021"	n/a	n/a	n/a	n/a	n/a	n/a	"illusion_instructions"	n/a	n/a	n/a	"29422"	"0"	n/a	"NULL"	"NULL"	"NULL"	"<p><b>Illusion Game</b></p><p>In this game of speed and reflex, you will need to make <b>visual judgments</b> (for instance, which circle is the biggest, or which line is the longest), as fast and as correctly as possible, while <b>resisting different visual illusions</b>.</p><p>We are going to start with some examples of all the illusions you will encounter in the game.</p>"	n/a	n/a	n/a	n/a	n/a	n/a	n/a	n/a	n/a	n/a
"TRUE"	"preload"	"5"	"35716"	"0.0-4.0-1.0-0.0"	"8hg7bp"	"600"	"1366"	"chrome"	"109.0.0"	"FALSE"	"Windows 10"	"60"	"021"	n/a	n/a	n/a	n/a	n/a	n/a	n/a	n/a	n/a	n/a	n/a	"NULL"	"FALSE"	"list()"	"list()"	"list()"	n/a	n/a	n/a	n/a	n/a	n/a	n/a	n/a	n/a	n/a	n/a
n/a	"html-keyboard-response"	"6"	"49275"	"0.0-4.0-1.0-1.0"	"8hg7bp"	"600"	"1366"	"chrome"	"109.0.0"	"FALSE"	"Windows 10"	"60"	"021"	n/a	n/a	n/a	n/a	n/a	n/a	n/a	n/a	n/a	n/a	"13557"	"enter"	n/a	"NULL"	"NULL"	"NULL"	"<p><b>Practice</b></p><p>In this part, two red circles will appear side by side on the screen.</p><p>Your task is to select which <b>red circle is bigger</b> in size as fast as you can, without making errors.</p><p>Don't get distracted by the surrounding black circles around the red circles!</p><p>Press <b>the LEFT or the RIGHT arrow</b> to indicate which is the bigger <b>red circle.</b></p><div style='float: center'><img src='materials/instructions/Ebbinghaus_Demo.png' height='300'></img><p><img src='utils/answer/answer_leftright_keyboard.PNG' height='150'></img></p><p class='small'>In this example, the correct answer is the <b>LEFT arrow</b>.</p></div><p>Are you ready? <b>Press ENTER to start</b></p>"	n/a	n/a	n/a	n/a	n/a	n/a	n/a	n/a	n/a	n/a
n/a	"html-keyboard-response"	"7"	"51146"	"0.0-4.0-1.0-2.0-0.0"	"8hg7bp"	"600"	"1366"	"chrome"	"109.0.0"	"FALSE"	"Windows 10"	"60"	"021"	n/a	n/a	n/a	n/a	n/a	n/a	"fixation"	n/a	n/a	n/a	n/a	"NULL"	n/a	"NULL"	"NULL"	"NULL"	"<p style=\"color: black; font-size: 80px; padding-left: 8%; padding-right: 20%; padding-top: 13%; padding-bottom: 46%\">+</p>"	"1339"	n/a	n/a	n/a	n/a	n/a	n/a	n/a	n/a	n/a
n/a	"image-keyboard-response"	"8"	"51615"	"0.0-4.0-1.0-2.0-1.0"	"8hg7bp"	"600"	"1366"	"chrome"	"109.0.0"	"FALSE"	"Windows 10"	"60"	"021"	n/a	n/a	n/a	n/a	n/a	n/a	"Trial"	n/a	n/a	n/a	"466"	"arrowright"	n/a	"NULL"	"NULL"	"NULL"	"stimuli/Ebbinghaus_1000000_-1.4000.png"	n/a	"Ebbinghaus"	"arrowright"	"1871"	"TRUE"	"Ebbinghaus"	"100000000000"	"-1.400000000"	"1"	"1"
n/a	"html-keyboard-response"	"9"	"52892"	"0.0-4.0-1.0-2.0-0.1"	"8hg7bp"	"600"	"1366"	"chrome"	"109.0.0"	"FALSE"	"Windows 10"	"60"	"021"	n/a	n/a	n/a	n/a	n/a	n/a	"fixation"	n/a	n/a	n/a	n/a	"NULL"	n/a	"NULL"	"NULL"	"NULL"	"<p style=\"color: black; font-size: 80px; padding-left: 40%; padding-right: 12%; padding-top: 12%; padding-bottom: 32%\">+</p>"	"1260"	n/a	n/a	n/a	n/a	n/a	n/a	n/a	n/a	n/a
n/a	"image-keyboard-response"	"10"	"53283"	"0.0-4.0-1.0-2.0-1.1"	"8hg7bp"	"600"	"1366"	"chrome"	"109.0.0"	"FALSE"	"Windows 10"	"60"	"021"	n/a	n/a	n/a	n/a	n/a	n/a	"Trial"	n/a	n/a	n/a	"389"	"arrowright"	n/a	"NULL"	"NULL"	"NULL"	"stimuli/Ebbinghaus_-100000_-1.4000.png"	n/a	"Ebbinghaus"	"arrowright"	"1277"	"TRUE"	"Ebbinghaus"	"-10000000000"	"-1.400000000"	"1"	"2"
n/a	"html-keyboard-response"	"11"	"54369"	"0.0-4.0-1.0-2.0-0.2"	"8hg7bp"	"600"	"1366"	"chrome"	"109.0.0"	"FALSE"	"Windows 10"	"60"	"021"	n/a	n/a	n/a	n/a	n/a	n/a	"fixation"	n/a	n/a	n/a	n/a	"NULL"	n/a	"NULL"	"NULL"	"NULL"	"<p style=\"color: black; font-size: 80px; padding-left: 49%; padding-right: 24%; padding-top: 25%; padding-bottom: 45%\">+</p>"	"1065"	n/a	n/a	n/a	n/a	n/a	n/a	n/a	n/a	n/a
n/a	"image-keyboard-response"	"12"	"54746"	"0.0-4.0-1.0-2.0-1.2"	"8hg7bp"	"600"	"1366"	"chrome"	"109.0.0"	"FALSE"	"Windows 10"	"60"	"021"	n/a	n/a	n/a	n/a	n/a	n/a	"Trial"	n/a	n/a	n/a	"376"	"arrowright"	n/a	"NULL"	"NULL"	"NULL"	"stimuli/Ebbinghaus_0000000_-1.4000.png"	n/a	"Ebbinghaus"	"arrowright"	"1086"	"TRUE"	"Ebbinghaus"	"000000000000"	"-1.400000000"	"1"	"3"
n/a	"html-keyboard-response"	"13"	"56130"	"0.0-4.0-1.0-2.0-0.3"	"8hg7bp"	"600"	"1366"	"chrome"	"109.0.0"	"FALSE"	"Windows 10"	"60"	"021"	n/a	n/a	n/a	n/a	n/a	n/a	"fixation"	n/a	n/a	n/a	n/a	"NULL"	n/a	"NULL"	"NULL"	"NULL"	"<p style=\"color: black; font-size: 80px; padding-left: 14%; padding-right: 8%; padding-top: 18%; padding-bottom: 22%\">+</p>"	"1367"	n/a	n/a	n/a	n/a	n/a	n/a	n/a	n/a	n/a
n/a	"image-keyboard-response"	"14"	"56575"	"0.0-4.0-1.0-2.0-1.3"	"8hg7bp"	"600"	"1366"	"chrome"	"109.0.0"	"FALSE"	"Windows 10"	"60"	"021"	n/a	n/a	n/a	n/a	n/a	n/a	"Trial"	n/a	n/a	n/a	"444"	"arrowleft"	n/a	"NULL"	"NULL"	"NULL"	"stimuli/Ebbinghaus_0000000_1.40000.png"	n/a	"Ebbinghaus"	"arrowleft"	"1384"	"TRUE"	"Ebbinghaus"	"000000000000"	"1.4000000000"	"1"	"4"
n/a	"html-keyboard-response"	"15"	"57726"	"0.0-4.0-1.0-2.0-0.4"	"8hg7bp"	"600"	"1366"	"chrome"	"109.0.0"	"FALSE"	"Windows 10"	"60"	"021"	n/a	n/a	n/a	n/a	n/a	n/a	"fixation"	n/a	n/a	n/a	n/a	"NULL"	n/a	"NULL"	"NULL"	"NULL"	"<p style=\"color: black; font-size: 80px; padding-left: 4%; padding-right: 38%; padding-top: 29%; padding-bottom: 11%\">+</p>"	"1137"	n/a	n/a	n/a	n/a	n/a	n/a	n/a	n/a	n/a
n/a	"image-keyboard-response"	"16"	"58078"	"0.0-4.0-1.0-2.0-1.4"	"8hg7bp"	"600"	"1366"	"chrome"	"109.0.0"	"FALSE"	"Windows 10"	"60"	"021"	n/a	n/a	n/a	n/a	n/a	n/a	"Trial"	n/a	n/a	n/a	"351"	"arrowleft"	n/a	"NULL"	"NULL"	"NULL"	"stimuli/Ebbinghaus_1000000_1.40000.png"	n/a	"Ebbinghaus"	"arrowleft"	"1151"	"TRUE"	"Ebbinghaus"	"100000000000"	"1.4000000000"	"1"	"5"
n/a	"html-keyboard-response"	"17"	"59241"	"0.0-4.0-1.0-2.0-0.5"	"8hg7bp"	"600"	"1366"	"chrome"	"109.0.0"	"FALSE"	"Windows 10"	"60"	"021"	n/a	n/a	n/a	n/a	n/a	n/a	"fixation"	n/a	n/a	n/a	n/a	"NULL"	n/a	"NULL"	"NULL"	"NULL"	"<p style=\"color: black; font-size: 80px; padding-left: 7%; padding-right: 4%; padding-top: 23%; padding-bottom: 17%\">+</p>"	"1148"	n/a	n/a	n/a	n/a	n/a	n/a	n/a	n/a	n/a
n/a	"image-keyboard-response"	"18"	"59614"	"0.0-4.0-1.0-2.0-1.5"	"8hg7bp"	"600"	"1366"	"chrome"	"109.0.0"	"FALSE"	"Windows 10"	"60"	"021"	n/a	n/a	n/a	n/a	n/a	n/a	"Trial"	n/a	n/a	n/a	"371"	"arrowleft"	n/a	"NULL"	"NULL"	"NULL"	"stimuli/Ebbinghaus_-100000_1.40000.png"	n/a	"Ebbinghaus"	"arrowleft"	"1163"	"TRUE"	"Ebbinghaus"	"-10000000000"	"1.4000000000"	"1"	"6"
n/a	"html-button-response"	"19"	"61805"	"0.0-4.0-1.0-3.0"	"8hg7bp"	"600"	"1366"	"chrome"	"109.0.0"	"FALSE"	"Windows 10"	"60"	"021"	n/a	n/a	n/a	n/a	n/a	n/a	"practice_block_results"	n/a	n/a	n/a	"2188"	"0"	n/a	"NULL"	"NULL"	"NULL"	"<p style='color:rgb(76,175,80);'> Correct Responses: <b>100.00%</b></p><hr><p style='color:rgb(233,30,99);'> Average Response Time: <b>399.50</b> ms.</p>"	n/a	n/a	n/a	n/a	n/a	n/a	n/a	n/a	n/a	n/a
"TRUE"	"preload"	"20"	"62325"	"0.0-4.0-2.0-0.0"	"8hg7bp"	"600"	"1366"	"chrome"	"109.0.0"	"FALSE"	"Windows 10"	"60"	"021"	n/a	n/a	n/a	n/a	n/a	n/a	n/a	n/a	n/a	n/a	n/a	"NULL"	"FALSE"	"list()"	"list()"	"list()"	n/a	n/a	n/a	n/a	n/a	n/a	n/a	n/a	n/a	n/a	n/a
n/a	"html-keyboard-response"	"21"	"68056"	"0.0-4.0-2.0-1.0"	"8hg7bp"	"600"	"1366"	"chrome"	"109.0.0"	"FALSE"	"Windows 10"	"60"	"021"	n/a	n/a	n/a	n/a	n/a	n/a	n/a	n/a	n/a	n/a	"5730"	"enter"	n/a	"NULL"	"NULL"	"NULL"	"<p><b>Practice</b></p><p>In this part, two horizontal red lines will appear one above the other.</p><p>Your task is to select which <b>line is longer</b> in length as fast as you can, without making errors.</p><p>Don't get distracted by the surrounding black arrows at the end of the red lines!</p><p>Press <b>the UP or the DOWN arrow</b> to indicate where is the longer <b>red line.</b></p><div style='float: center'><img src='materials/instructions/MullerLyer_Demo.png' height='300'></img><p><img src='utils/answer/answer_updown_keyboard.PNG' height='150'></img></p><p class='small'>In this example, the correct answer is the <b>UP arrow</b>.</p></div><p>Are you ready? <b>Press ENTER to start</b></p>"	n/a	n/a	n/a	n/a	n/a	n/a	n/a	n/a	n/a	n/a
n/a	"html-keyboard-response"	"22"	"69626"	"0.0-4.0-2.0-2.0-0.0"	"8hg7bp"	"600"	"1366"	"chrome"	"109.0.0"	"FALSE"	"Windows 10"	"60"	"021"	n/a	n/a	n/a	n/a	n/a	n/a	"fixation"	n/a	n/a	n/a	n/a	"NULL"	n/a	"NULL"	"NULL"	"NULL"	"<p style=\"color: black; font-size: 80px; padding-left: 33%; padding-right: 37%; padding-top: 44%; padding-bottom: 37%\">+</p>"	"1039"	n/a	n/a	n/a	n/a	n/a	n/a	n/a	n/a	n/a
n/a	"image-keyboard-response"	"23"	"70185"	"0.0-4.0-2.0-2.0-1.0"	"8hg7bp"	"600"	"1366"	"chrome"	"109.0.0"	"FALSE"	"Windows 10"	"60"	"021"	n/a	n/a	n/a	n/a	n/a	n/a	"Trial"	n/a	n/a	n/a	"558"	"arrowup"	n/a	"NULL"	"NULL"	"NULL"	"stimuli/MullerLyer_2300000_0.70000.png"	n/a	"MullerLyer"	"arrowup"	"1570"	"TRUE"	"MullerLyer"	"230000000000"	"0.7000000000"	"1"	"7"
n/a	"html-keyboard-response"	"24"	"71335"	"0.0-4.0-2.0-2.0-0.1"	"8hg7bp"	"600"	"1366"	"chrome"	"109.0.0"	"FALSE"	"Windows 10"	"60"	"021"	n/a	n/a	n/a	n/a	n/a	n/a	"fixation"	n/a	n/a	n/a	n/a	"NULL"	n/a	"NULL"	"NULL"	"NULL"	"<p style=\"color: black; font-size: 80px; padding-left: 28%; padding-right: 38%; padding-top: 21%; padding-bottom: 49%\">+</p>"	"1132"	n/a	n/a	n/a	n/a	n/a	n/a	n/a	n/a	n/a
n/a	"image-keyboard-response"	"25"	"71752"	"0.0-4.0-2.0-2.0-1.1"	"8hg7bp"	"600"	"1366"	"chrome"	"109.0.0"	"FALSE"	"Windows 10"	"60"	"021"	n/a	n/a	n/a	n/a	n/a	n/a	"Trial"	n/a	n/a	n/a	"415"	"arrowdown"	n/a	"NULL"	"NULL"	"NULL"	"stimuli/MullerLyer_-230000_-0.7000.png"	n/a	"MullerLyer"	"arrowdown"	"1150"	"TRUE"	"MullerLyer"	"-23000000000"	"-0.700000000"	"1"	"8"
n/a	"html-keyboard-response"	"26"	"73129"	"0.0-4.0-2.0-2.0-0.2"	"8hg7bp"	"600"	"1366"	"chrome"	"109.0.0"	"FALSE"	"Windows 10"	"60"	"021"	n/a	n/a	n/a	n/a	n/a	n/a	"fixation"	n/a	n/a	n/a	n/a	"NULL"	n/a	"NULL"	"NULL"	"NULL"	"<p style=\"color: black; font-size: 80px; padding-left: 47%; padding-right: 1%; padding-top: 41%; padding-bottom: 15%\">+</p>"	"1359"	n/a	n/a	n/a	n/a	n/a	n/a	n/a	n/a	n/a
n/a	"image-keyboard-response"	"27"	"73633"	"0.0-4.0-2.0-2.0-1.2"	"8hg7bp"	"600"	"1366"	"chrome"	"109.0.0"	"FALSE"	"Windows 10"	"60"	"021"	n/a	n/a	n/a	n/a	n/a	n/a	"Trial"	n/a	n/a	n/a	"503"	"arrowdown"	n/a	"NULL"	"NULL"	"NULL"	"stimuli/MullerLyer_2300000_-0.7000.png"	n/a	"MullerLyer"	"arrowdown"	"1377"	"TRUE"	"MullerLyer"	"230000000000"	"-0.700000000"	"1"	"9"
n/a	"html-keyboard-response"	"28"	"74995"	"0.0-4.0-2.0-2.0-0.3"	"8hg7bp"	"600"	"1366"	"chrome"	"109.0.0"	"FALSE"	"Windows 10"	"60"	"021"	n/a	n/a	n/a	n/a	n/a	n/a	"fixation"	n/a	n/a	n/a	n/a	"NULL"	n/a	"NULL"	"NULL"	"NULL"	"<p style=\"color: black; font-size: 80px; padding-left: 27%; padding-right: 12%; padding-top: 10%; padding-bottom: 40%\">+</p>"	"1340"	n/a	n/a	n/a	n/a	n/a	n/a	n/a	n/a	n/a
n/a	"image-keyboard-response"	"29"	"75408"	"0.0-4.0-2.0-2.0-1.3"	"8hg7bp"	"600"	"1366"	"chrome"	"109.0.0"	"FALSE"	"Windows 10"	"60"	"021"	n/a	n/a	n/a	n/a	n/a	n/a	"Trial"	n/a	n/a	n/a	"413"	"arrowup"	n/a	"NULL"	"NULL"	"NULL"	"stimuli/MullerLyer_0000000_0.70000.png"	n/a	"MullerLyer"	"arrowup"	"1362"	"TRUE"	"MullerLyer"	"000000000000"	"0.7000000000"	"1"	"10"
n/a	"html-keyboard-response"	"30"	"76505"	"0.0-4.0-2.0-2.0-0.4"	"8hg7bp"	"600"	"1366"	"chrome"	"109.0.0"	"FALSE"	"Windows 10"	"60"	"021"	n/a	n/a	n/a	n/a	n/a	n/a	"fixation"	n/a	n/a	n/a	n/a	"NULL"	n/a	"NULL"	"NULL"	"NULL"	"<p style=\"color: black; font-size: 80px; padding-left: 5%; padding-right: 0%; padding-top: 43%; padding-bottom: 26%\">+</p>"	"1081"	n/a	n/a	n/a	n/a	n/a	n/a	n/a	n/a	n/a
n/a	"image-keyboard-response"	"31"	"76936"	"0.0-4.0-2.0-2.0-1.4"	"8hg7bp"	"600"	"1366"	"chrome"	"109.0.0"	"FALSE"	"Windows 10"	"60"	"021"	n/a	n/a	n/a	n/a	n/a	n/a	"Trial"	n/a	n/a	n/a	"430"	"arrowup"	n/a	"NULL"	"NULL"	"NULL"	"stimuli/MullerLyer_-230000_0.70000.png"	n/a	"MullerLyer"	"arrowup"	"1097"	"TRUE"	"MullerLyer"	"-23000000000"	"0.7000000000"	"1"	"11"
n/a	"html-keyboard-response"	"32"	"78341"	"0.0-4.0-2.0-2.0-0.5"	"8hg7bp"	"600"	"1366"	"chrome"	"109.0.0"	"FALSE"	"Windows 10"	"60"	"021"	n/a	n/a	n/a	n/a	n/a	n/a	"fixation"	n/a	n/a	n/a	n/a	"NULL"	n/a	"NULL"	"NULL"	"NULL"	"<p style=\"color: black; font-size: 80px; padding-left: 36%; padding-right: 18%; padding-top: 36%; padding-bottom: 36%\">+</p>"	"1402"	n/a	n/a	n/a	n/a	n/a	n/a	n/a	n/a	n/a
n/a	"image-keyboard-response"	"33"	"78752"	"0.0-4.0-2.0-2.0-1.5"	"8hg7bp"	"600"	"1366"	"chrome"	"109.0.0"	"FALSE"	"Windows 10"	"60"	"021"	n/a	n/a	n/a	n/a	n/a	n/a	"Trial"	n/a	n/a	n/a	"410"	"arrowdown"	n/a	"NULL"	"NULL"	"NULL"	"stimuli/MullerLyer_0000000_-0.7000.png"	n/a	"MullerLyer"	"arrowdown"	"1405"	"TRUE"	"MullerLyer"	"000000000000"	"-0.700000000"	"1"	"12"
n/a	"html-button-response"	"34"	"80099"	"0.0-4.0-2.0-3.0"	"8hg7bp"	"600"	"1366"	"chrome"	"109.0.0"	"FALSE"	"Windows 10"	"60"	"021"	n/a	n/a	n/a	n/a	n/a	n/a	"practice_block_results"	n/a	n/a	n/a	"1344"	"0"	n/a	"NULL"	"NULL"	"NULL"	"<p style='color:rgb(76,175,80);'> Correct Responses: <b>100.00%</b></p><hr><p style='color:rgb(233,30,99);'> Average Response Time: <b>454.83</b> ms.</p>"	n/a	n/a	n/a	n/a	n/a	n/a	n/a	n/a	n/a	n/a
"TRUE"	"preload"	"35"	"80623"	"0.0-4.0-3.0-0.0"	"8hg7bp"	"600"	"1366"	"chrome"	"109.0.0"	"FALSE"	"Windows 10"	"60"	"021"	n/a	n/a	n/a	n/a	n/a	n/a	n/a	n/a	n/a	n/a	n/a	"NULL"	"FALSE"	"list()"	"list()"	"list()"	n/a	n/a	n/a	n/a	n/a	n/a	n/a	n/a	n/a	n/a	n/a
n/a	"html-keyboard-response"	"36"	"85146"	"0.0-4.0-3.0-1.0"	"8hg7bp"	"600"	"1366"	"chrome"	"109.0.0"	"FALSE"	"Windows 10"	"60"	"021"	n/a	n/a	n/a	n/a	n/a	n/a	n/a	n/a	n/a	n/a	"4522"	"enter"	n/a	"NULL"	"NULL"	"NULL"	"<p><b>Practice</b></p><p>In this part, two red lines will appear side by side.</p><p>Your task is to tell <b>which line is longer</b> in length, regardless of their orientation, as fast as you can, and without making errors.</p><p>Don't get distracted by the orientation of the lines!</p><p>Press <b>the LEFT or the RIGHT arrow</b> to indicate which <b>line is the longer one.</b></p><div style='float: center'><img src='materials/instructions/VerticalHorizontal_Demo.png' height='300'></img><p><img src='utils/answer/answer_leftright_keyboard.PNG' height='150'></img></p><p class='small'>In this example, the correct answer is the <b>LEFT arrow</b>.</p></div><p>Are you ready? <b>Press ENTER to start</b></p>"	n/a	n/a	n/a	n/a	n/a	n/a	n/a	n/a	n/a	n/a
n/a	"html-keyboard-response"	"37"	"86810"	"0.0-4.0-3.0-2.0-0.0"	"8hg7bp"	"600"	"1366"	"chrome"	"109.0.0"	"FALSE"	"Windows 10"	"60"	"021"	n/a	n/a	n/a	n/a	n/a	n/a	"fixation"	n/a	n/a	n/a	n/a	"NULL"	n/a	"NULL"	"NULL"	"NULL"	"<p style=\"color: black; font-size: 80px; padding-left: 9%; padding-right: 19%; padding-top: 15%; padding-bottom: 2%\">+</p>"	"1133"	n/a	n/a	n/a	n/a	n/a	n/a	n/a	n/a	n/a
n/a	"image-keyboard-response"	"38"	"87276"	"0.0-4.0-3.0-2.0-1.0"	"8hg7bp"	"600"	"1366"	"chrome"	"109.0.0"	"FALSE"	"Windows 10"	"60"	"021"	n/a	n/a	n/a	n/a	n/a	n/a	"Trial"	n/a	n/a	n/a	"464"	"arrowright"	n/a	"NULL"	"NULL"	"NULL"	"stimuli/VerticalHorizontal_-330000_-0.9000.png"	n/a	"VerticalHorizontal"	"arrowright"	"1664"	"TRUE"	"VerticalHorizontal"	"-33000000000"	"-0.900000000"	"1"	"13"
n/a	"html-keyboard-response"	"39"	"88738"	"0.0-4.0-3.0-2.0-0.1"	"8hg7bp"	"600"	"1366"	"chrome"	"109.0.0"	"FALSE"	"Windows 10"	"60"	"021"	n/a	n/a	n/a	n/a	n/a	n/a	"fixation"	n/a	n/a	n/a	n/a	"NULL"	n/a	"NULL"	"NULL"	"NULL"	"<p style=\"color: black; font-size: 80px; padding-left: 15%; padding-right: 1%; padding-top: 30%; padding-bottom: 2%\">+</p>"	"1441"	n/a	n/a	n/a	n/a	n/a	n/a	n/a	n/a	n/a
n/a	"image-keyboard-response"	"40"	"89139"	"0.0-4.0-3.0-2.0-1.1"	"8hg7bp"	"600"	"1366"	"chrome"	"109.0.0"	"FALSE"	"Windows 10"	"60"	"021"	n/a	n/a	n/a	n/a	n/a	n/a	"Trial"	n/a	n/a	n/a	"400"	"arrowleft"	n/a	"NULL"	"NULL"	"NULL"	"stimuli/VerticalHorizontal_-330000_0.90000.png"	n/a	"VerticalHorizontal"	"arrowleft"	"1462"	"TRUE"	"VerticalHorizontal"	"-33000000000"	"0.9000000000"	"1"	"14"
n/a	"html-keyboard-response"	"41"	"90288"	"0.0-4.0-3.0-2.0-0.2"	"8hg7bp"	"600"	"1366"	"chrome"	"109.0.0"	"FALSE"	"Windows 10"	"60"	"021"	n/a	n/a	n/a	n/a	n/a	n/a	"fixation"	n/a	n/a	n/a	n/a	"NULL"	n/a	"NULL"	"NULL"	"NULL"	"<p style=\"color: black; font-size: 80px; padding-left: 7%; padding-right: 23%; padding-top: 32%; padding-bottom: 48%\">+</p>"	"1139"	n/a	n/a	n/a	n/a	n/a	n/a	n/a	n/a	n/a
n/a	"image-keyboard-response"	"42"	"90664"	"0.0-4.0-3.0-2.0-1.2"	"8hg7bp"	"600"	"1366"	"chrome"	"109.0.0"	"FALSE"	"Windows 10"	"60"	"021"	n/a	n/a	n/a	n/a	n/a	n/a	"Trial"	n/a	n/a	n/a	"375"	"arrowright"	n/a	"NULL"	"NULL"	"NULL"	"stimuli/VerticalHorizontal_3300000_-0.9000.png"	n/a	"VerticalHorizontal"	"arrowright"	"1149"	"TRUE"	"VerticalHorizontal"	"330000000000"	"-0.900000000"	"1"	"15"
n/a	"html-keyboard-response"	"43"	"92050"	"0.0-4.0-3.0-2.0-0.3"	"8hg7bp"	"600"	"1366"	"chrome"	"109.0.0"	"FALSE"	"Windows 10"	"60"	"021"	n/a	n/a	n/a	n/a	n/a	n/a	"fixation"	n/a	n/a	n/a	n/a	"NULL"	n/a	"NULL"	"NULL"	"NULL"	"<p style=\"color: black; font-size: 80px; padding-left: 15%; padding-right: 16%; padding-top: 9%; padding-bottom: 41%\">+</p>"	"1374"	n/a	n/a	n/a	n/a	n/a	n/a	n/a	n/a	n/a
n/a	"image-keyboard-response"	"44"	"92436"	"0.0-4.0-3.0-2.0-1.3"	"8hg7bp"	"600"	"1366"	"chrome"	"109.0.0"	"FALSE"	"Windows 10"	"60"	"021"	n/a	n/a	n/a	n/a	n/a	n/a	"Trial"	n/a	n/a	n/a	"384"	"arrowleft"	n/a	"NULL"	"NULL"	"NULL"	"stimuli/VerticalHorizontal_0000000_0.90000.png"	n/a	"VerticalHorizontal"	"arrowleft"	"1386"	"TRUE"	"VerticalHorizontal"	"000000000000"	"0.9000000000"	"1"	"16"
n/a	"html-keyboard-response"	"45"	"93759"	"0.0-4.0-3.0-2.0-0.4"	"8hg7bp"	"600"	"1366"	"chrome"	"109.0.0"	"FALSE"	"Windows 10"	"60"	"021"	n/a	n/a	n/a	n/a	n/a	n/a	"fixation"	n/a	n/a	n/a	n/a	"NULL"	n/a	"NULL"	"NULL"	"NULL"	"<p style=\"color: black; font-size: 80px; padding-left: 39%; padding-right: 43%; padding-top: 7%; padding-bottom: 35%\">+</p>"	"1318"	n/a	n/a	n/a	n/a	n/a	n/a	n/a	n/a	n/a
n/a	"image-keyboard-response"	"46"	"94064"	"0.0-4.0-3.0-2.0-1.4"	"8hg7bp"	"600"	"1366"	"chrome"	"109.0.0"	"FALSE"	"Windows 10"	"60"	"021"	n/a	n/a	n/a	n/a	n/a	n/a	"Trial"	n/a	n/a	n/a	"304"	"arrowright"	n/a	"NULL"	"NULL"	"NULL"	"stimuli/VerticalHorizontal_0000000_-0.9000.png"	n/a	"VerticalHorizontal"	"arrowright"	"1323"	"TRUE"	"VerticalHorizontal"	"000000000000"	"-0.900000000"	"1"	"17"
n/a	"html-keyboard-response"	"47"	"95191"	"0.0-4.0-3.0-2.0-0.5"	"8hg7bp"	"600"	"1366"	"chrome"	"109.0.0"	"FALSE"	"Windows 10"	"60"	"021"	n/a	n/a	n/a	n/a	n/a	n/a	"fixation"	n/a	n/a	n/a	n/a	"NULL"	n/a	"NULL"	"NULL"	"NULL"	"<p style=\"color: black; font-size: 80px; padding-left: 3%; padding-right: 9%; padding-top: 17%; padding-bottom: 1%\">+</p>"	"1112"	n/a	n/a	n/a	n/a	n/a	n/a	n/a	n/a	n/a
n/a	"image-keyboard-response"	"48"	"95559"	"0.0-4.0-3.0-2.0-1.5"	"8hg7bp"	"600"	"1366"	"chrome"	"109.0.0"	"FALSE"	"Windows 10"	"60"	"021"	n/a	n/a	n/a	n/a	n/a	n/a	"Trial"	n/a	n/a	n/a	"367"	"arrowleft"	n/a	"NULL"	"NULL"	"NULL"	"stimuli/VerticalHorizontal_3300000_0.90000.png"	n/a	"VerticalHorizontal"	"arrowleft"	"1127"	"TRUE"	"VerticalHorizontal"	"330000000000"	"0.9000000000"	"1"	"18"
n/a	"html-button-response"	"49"	"96872"	"0.0-4.0-3.0-3.0"	"8hg7bp"	"600"	"1366"	"chrome"	"109.0.0"	"FALSE"	"Windows 10"	"60"	"021"	n/a	n/a	n/a	n/a	n/a	n/a	"practice_block_results"	n/a	n/a	n/a	"1310"	"0"	n/a	"NULL"	"NULL"	"NULL"	"<p style='color:rgb(76,175,80);'> Correct Responses: <b>100.00%</b></p><hr><p style='color:rgb(233,30,99);'> Average Response Time: <b>382.33</b> ms.</p>"	n/a	n/a	n/a	n/a	n/a	n/a	n/a	n/a	n/a	n/a
n/a	"html-button-response"	"50"	"106193"	"0.0-4.0-4.0"	"8hg7bp"	"600"	"1366"	"chrome"	"109.0.0"	"FALSE"	"Windows 10"	"60"	"021"	n/a	n/a	n/a	n/a	n/a	n/a	"practice_debrief"	n/a	n/a	n/a	"8810"	"0"	n/a	"NULL"	"NULL"	"NULL"	"<p><b>TRAINING COMPLETED</b></p><p>In the next phase, there will be more trials, and some might be harder too.<br> Moreover, after each illusion block, a <b>score</b> will be calculated based on speed (time you took to answer) and accuracy (number of errors).</p><p>Try to keep up a high score!</p><br><p>Note that it can be <i>really</i> challenging at times, so you will need to rely on your <b>intuition</b> and gut feeling to answer as fast as you can without making errors.</p><p>Each illusion block will be repeated two times (so that you have the opportunity to improve your score), but the order of the blocks is random.</p><p>Remember, your goal is to be as <b>fast</b> and <b>accurate</b> as possible. Good luck!</p><br>"	n/a	n/a	n/a	n/a	n/a	n/a	n/a	n/a	n/a	n/a
"TRUE"	"preload"	"51"	"106266"	"0.0-5.0-0.0"	"8hg7bp"	"600"	"1366"	"chrome"	"109.0.0"	"FALSE"	"Windows 10"	"60"	"021"	n/a	n/a	n/a	n/a	n/a	n/a	n/a	n/a	n/a	n/a	n/a	"NULL"	"FALSE"	"list()"	"list()"	"list()"	n/a	n/a	n/a	n/a	n/a	n/a	n/a	n/a	n/a	n/a	n/a
n/a	"html-keyboard-response"	"52"	"291172"	"0.0-5.0-1.0"	"8hg7bp"	"600"	"1366"	"chrome"	"109.0.0"	"FALSE"	"Windows 10"	"60"	"021"	n/a	n/a	n/a	n/a	n/a	n/a	n/a	n/a	n/a	n/a	"184905"	"enter"	n/a	"NULL"	"NULL"	"NULL"	"<p><b>Part 1/6</b></p><p>In this part, two horizontal red lines will appear one above the other.</p><p>Your task is to select which <b>line is longer</b> in length as fast as you can, without making errors.</p><p>Don't get distracted by the surrounding black arrows at the end of the red lines!</p><p>Press <b>the UP or the DOWN arrow</b> to indicate where is the longer <b>red line.</b></p><div style='float: center'><img src='materials/instructions/MullerLyer_Demo.png' height='300'></img><p><img src='utils/answer/answer_updown_keyboard.PNG' height='150'></img></p><p class='small'>In this example, the correct answer is the <b>UP arrow</b>.</p></div><p>Are you ready? <b>Press ENTER to start</b></p>"	n/a	n/a	n/a	n/a	n/a	n/a	n/a	n/a	n/a	n/a
n/a	"html-keyboard-response"	"53"	"293090"	"0.0-5.0-2.0-0.0"	"8hg7bp"	"600"	"1366"	"chrome"	"109.0.0"	"FALSE"	"Windows 10"	"60"	"021"	n/a	n/a	n/a	n/a	n/a	n/a	"fixation"	n/a	n/a	n/a	n/a	"NULL"	n/a	"NULL"	"NULL"	"NULL"	"<p style=\"color: black; font-size: 80px; padding-left: 47%; padding-right: 30%; padding-top: 33%; padding-bottom: 39%\">+</p>"	"1397"	n/a	n/a	n/a	n/a	n/a	n/a	n/a	n/a	n/a
n/a	"image-keyboard-response"	"54"	"293568"	"0.0-5.0-2.0-1.0"	"8hg7bp"	"600"	"1366"	"chrome"	"109.0.0"	"FALSE"	"Windows 10"	"60"	"021"	n/a	n/a	n/a	n/a	n/a	n/a	"Trial"	n/a	n/a	n/a	"476"	"arrowdown"	n/a	"NULL"	"NULL"	"NULL"	"stimuli/MullerLyer_-2.3000_-0.3500.png"	n/a	"MullerLyer"	"arrowdown"	"1918"	"TRUE"	"MullerLyer"	"-2.300000000"	"-0.350000000"	"1"	"19"
n/a	"html-keyboard-response"	"55"	"294971"	"0.0-5.0-2.0-0.1"	"8hg7bp"	"600"	"1366"	"chrome"	"109.0.0"	"FALSE"	"Windows 10"	"60"	"021"	n/a	n/a	n/a	n/a	n/a	n/a	"fixation"	n/a	n/a	n/a	n/a	"NULL"	n/a	"NULL"	"NULL"	"NULL"	"<p style=\"color: black; font-size: 80px; padding-left: 43%; padding-right: 25%; padding-top: 6%; padding-bottom: 46%\">+</p>"	"1392"	n/a	n/a	n/a	n/a	n/a	n/a	n/a	n/a	n/a
n/a	"image-keyboard-response"	"56"	"295417"	"0.0-5.0-2.0-1.1"	"8hg7bp"	"600"	"1366"	"chrome"	"109.0.0"	"FALSE"	"Windows 10"	"60"	"021"	n/a	n/a	n/a	n/a	n/a	n/a	"Trial"	n/a	n/a	n/a	"445"	"arrowup"	n/a	"NULL"	"NULL"	"NULL"	"stimuli/MullerLyer_2.30000_0.35000.png"	n/a	"MullerLyer"	"arrowup"	"1403"	"TRUE"	"MullerLyer"	"2.3000000000"	"0.3500000000"	"1"	"20"
n/a	"html-keyboard-response"	"57"	"296597"	"0.0-5.0-2.0-0.2"	"8hg7bp"	"600"	"1366"	"chrome"	"109.0.0"	"FALSE"	"Windows 10"	"60"	"021"	n/a	n/a	n/a	n/a	n/a	n/a	"fixation"	n/a	n/a	n/a	n/a	"NULL"	n/a	"NULL"	"NULL"	"NULL"	"<p style=\"color: black; font-size: 80px; padding-left: 22%; padding-right: 3%; padding-top: 28%; padding-bottom: 44%\">+</p>"	"1175"	n/a	n/a	n/a	n/a	n/a	n/a	n/a	n/a	n/a
n/a	"image-keyboard-response"	"58"	"297801"	"0.0-5.0-2.0-1.2"	"8hg7bp"	"600"	"1366"	"chrome"	"109.0.0"	"FALSE"	"Windows 10"	"60"	"021"	n/a	n/a	n/a	n/a	n/a	n/a	"Trial"	n/a	n/a	n/a	"1202"	"arrowdown"	n/a	"NULL"	"NULL"	"NULL"	"stimuli/MullerLyer_8.21429_-0.23665.png"	n/a	"MullerLyer"	"arrowdown"	"1180"	"TRUE"	"MullerLyer"	"8.2142900000"	"-0.236650000"	"1"	"21"
n/a	"html-keyboard-response"	"59"	"298987"	"0.0-5.0-2.0-0.3"	"8hg7bp"	"600"	"1366"	"chrome"	"109.0.0"	"FALSE"	"Windows 10"	"60"	"021"	n/a	n/a	n/a	n/a	n/a	n/a	"fixation"	n/a	n/a	n/a	n/a	"NULL"	n/a	"NULL"	"NULL"	"NULL"	"<p style=\"color: black; font-size: 80px; padding-left: 2%; padding-right: 15%; padding-top: 11%; padding-bottom: 14%\">+</p>"	"1173"	n/a	n/a	n/a	n/a	n/a	n/a	n/a	n/a	n/a
n/a	"image-keyboard-response"	"60"	"299435"	"0.0-5.0-2.0-1.3"	"8hg7bp"	"600"	"1366"	"chrome"	"109.0.0"	"FALSE"	"Windows 10"	"60"	"021"	n/a	n/a	n/a	n/a	n/a	n/a	"Trial"	n/a	n/a	n/a	"446"	"arrowup"	n/a	"NULL"	"NULL"	"NULL"	"stimuli/MullerLyer_14.12857_-0.23665.png"	n/a	"MullerLyer"	"arrowdown"	"1186"	"FALSE"	"MullerLyer"	"14.128570000"	"-0.236650000"	"1"	"22"
n/a	"html-keyboard-response"	"61"	"300721"	"0.0-5.0-2.0-0.4"	"8hg7bp"	"600"	"1366"	"chrome"	"109.0.0"	"FALSE"	"Windows 10"	"60"	"021"	n/a	n/a	n/a	n/a	n/a	n/a	"fixation"	n/a	n/a	n/a	n/a	"NULL"	n/a	"NULL"	"NULL"	"NULL"	"<p style=\"color: black; font-size: 80px; padding-left: 27%; padding-right: 13%; padding-top: 42%; padding-bottom: 24%\">+</p>"	"1273"	n/a	n/a	n/a	n/a	n/a	n/a	n/a	n/a	n/a
n/a	"image-keyboard-response"	"62"	"301193"	"0.0-5.0-2.0-1.4"	"8hg7bp"	"600"	"1366"	"chrome"	"109.0.0"	"FALSE"	"Windows 10"	"60"	"021"	n/a	n/a	n/a	n/a	n/a	n/a	"Trial"	n/a	n/a	n/a	"471"	"arrowdown"	n/a	"NULL"	"NULL"	"NULL"	"stimuli/MullerLyer_-14.12857_-0.23665.png"	n/a	"MullerLyer"	"arrowdown"	"1286"	"TRUE"	"MullerLyer"	"-14.12857000"	"-0.236650000"	"1"	"23"
n/a	"html-keyboard-response"	"63"	"302683"	"0.0-5.0-2.0-0.5"	"8hg7bp"	"600"	"1366"	"chrome"	"109.0.0"	"FALSE"	"Windows 10"	"60"	"021"	n/a	n/a	n/a	n/a	n/a	n/a	"fixation"	n/a	n/a	n/a	n/a	"NULL"	n/a	"NULL"	"NULL"	"NULL"	"<p style=\"color: black; font-size: 80px; padding-left: 34%; padding-right: 40%; padding-top: 33%; padding-bottom: 1%\">+</p>"	"1474"	n/a	n/a	n/a	n/a	n/a	n/a	n/a	n/a	n/a
n/a	"image-keyboard-response"	"64"	"303126"	"0.0-5.0-2.0-1.5"	"8hg7bp"	"600"	"1366"	"chrome"	"109.0.0"	"FALSE"	"Windows 10"	"60"	"021"	n/a	n/a	n/a	n/a	n/a	n/a	"Trial"	n/a	n/a	n/a	"441"	"arrowup"	n/a	"NULL"	"NULL"	"NULL"	"stimuli/MullerLyer_-20.04286_0.07627.png"	n/a	"MullerLyer"	"arrowup"	"1490"	"TRUE"	"MullerLyer"	"-20.04286000"	"0.0762700000"	"1"	"24"
n/a	"html-keyboard-response"	"65"	"304281"	"0.0-5.0-2.0-0.6"	"8hg7bp"	"600"	"1366"	"chrome"	"109.0.0"	"FALSE"	"Windows 10"	"60"	"021"	n/a	n/a	n/a	n/a	n/a	n/a	"fixation"	n/a	n/a	n/a	n/a	"NULL"	n/a	"NULL"	"NULL"	"NULL"	"<p style=\"color: black; font-size: 80px; padding-left: 46%; padding-right: 25%; padding-top: 5%; padding-bottom: 39%\">+</p>"	"1141"	n/a	n/a	n/a	n/a	n/a	n/a	n/a	n/a	n/a
n/a	"image-keyboard-response"	"66"	"304697"	"0.0-5.0-2.0-1.6"	"8hg7bp"	"600"	"1366"	"chrome"	"109.0.0"	"FALSE"	"Windows 10"	"60"	"021"	n/a	n/a	n/a	n/a	n/a	n/a	"Trial"	n/a	n/a	n/a	"414"	"arrowdown"	n/a	"NULL"	"NULL"	"NULL"	"stimuli/MullerLyer_-14.12857_-0.07627.png"	n/a	"MullerLyer"	"arrowdown"	"1155"	"TRUE"	"MullerLyer"	"-14.12857000"	"-0.076270000"	"1"	"25"
n/a	"html-keyboard-response"	"67"	"306096"	"0.0-5.0-2.0-0.7"	"8hg7bp"	"600"	"1366"	"chrome"	"109.0.0"	"FALSE"	"Windows 10"	"60"	"021"	n/a	n/a	n/a	n/a	n/a	n/a	"fixation"	n/a	n/a	n/a	n/a	"NULL"	n/a	"NULL"	"NULL"	"NULL"	"<p style=\"color: black; font-size: 80px; padding-left: 20%; padding-right: 41%; padding-top: 33%; padding-bottom: 34%\">+</p>"	"1390"	n/a	n/a	n/a	n/a	n/a	n/a	n/a	n/a	n/a
n/a	"image-keyboard-response"	"68"	"306536"	"0.0-5.0-2.0-1.7"	"8hg7bp"	"600"	"1366"	"chrome"	"109.0.0"	"FALSE"	"Windows 10"	"60"	"021"	n/a	n/a	n/a	n/a	n/a	n/a	"Trial"	n/a	n/a	n/a	"438"	"arrowdown"	n/a	"NULL"	"NULL"	"NULL"	"stimuli/MullerLyer_14.12857_0.07627.png"	n/a	"MullerLyer"	"arrowup"	"1399"	"FALSE"	"MullerLyer"	"14.128570000"	"0.0762700000"	"1"	"26"
n/a	"html-keyboard-response"	"69"	"307613"	"0.0-5.0-2.0-0.8"	"8hg7bp"	"600"	"1366"	"chrome"	"109.0.0"	"FALSE"	"Windows 10"	"60"	"021"	n/a	n/a	n/a	n/a	n/a	n/a	"fixation"	n/a	n/a	n/a	n/a	"NULL"	n/a	"NULL"	"NULL"	"NULL"	"<p style=\"color: black; font-size: 80px; padding-left: 26%; padding-right: 37%; padding-top: 35%; padding-bottom: 14%\">+</p>"	"1057"	n/a	n/a	n/a	n/a	n/a	n/a	n/a	n/a	n/a
n/a	"image-keyboard-response"	"70"	"308499"	"0.0-5.0-2.0-1.8"	"8hg7bp"	"600"	"1366"	"chrome"	"109.0.0"	"FALSE"	"Windows 10"	"60"	"021"	n/a	n/a	n/a	n/a	n/a	n/a	"Trial"	n/a	n/a	n/a	"885"	"arrowdown"	n/a	"NULL"	"NULL"	"NULL"	"stimuli/MullerLyer_14.12857_-0.3500.png"	n/a	"MullerLyer"	"arrowdown"	"1077"	"TRUE"	"MullerLyer"	"14.128570000"	"-0.350000000"	"1"	"27"
n/a	"html-keyboard-response"	"71"	"309887"	"0.0-5.0-2.0-0.9"	"8hg7bp"	"600"	"1366"	"chrome"	"109.0.0"	"FALSE"	"Windows 10"	"60"	"021"	n/a	n/a	n/a	n/a	n/a	n/a	"fixation"	n/a	n/a	n/a	n/a	"NULL"	n/a	"NULL"	"NULL"	"NULL"	"<p style=\"color: black; font-size: 80px; padding-left: 5%; padding-right: 39%; padding-top: 33%; padding-bottom: 4%\">+</p>"	"1370"	n/a	n/a	n/a	n/a	n/a	n/a	n/a	n/a	n/a
n/a	"image-keyboard-response"	"72"	"310364"	"0.0-5.0-2.0-1.9"	"8hg7bp"	"600"	"1366"	"chrome"	"109.0.0"	"FALSE"	"Windows 10"	"60"	"021"	n/a	n/a	n/a	n/a	n/a	n/a	"Trial"	n/a	n/a	n/a	"475"	"arrowdown"	n/a	"NULL"	"NULL"	"NULL"	"stimuli/MullerLyer_20.04286_0.23665.png"	n/a	"MullerLyer"	"arrowup"	"1388"	"FALSE"	"MullerLyer"	"20.042860000"	"0.2366500000"	"1"	"28"
n/a	"html-keyboard-response"	"73"	"311700"	"0.0-5.0-2.0-0.10"	"8hg7bp"	"600"	"1366"	"chrome"	"109.0.0"	"FALSE"	"Windows 10"	"60"	"021"	n/a	n/a	n/a	n/a	n/a	n/a	"fixation"	n/a	n/a	n/a	n/a	"NULL"	n/a	"NULL"	"NULL"	"NULL"	"<p style=\"color: black; font-size: 80px; padding-left: 9%; padding-right: 45%; padding-top: 22%; padding-bottom: 15%\">+</p>"	"1321"	n/a	n/a	n/a	n/a	n/a	n/a	n/a	n/a	n/a
n/a	"image-keyboard-response"	"74"	"312195"	"0.0-5.0-2.0-1.10"	"8hg7bp"	"600"	"1366"	"chrome"	"109.0.0"	"FALSE"	"Windows 10"	"60"	"021"	n/a	n/a	n/a	n/a	n/a	n/a	"Trial"	n/a	n/a	n/a	"493"	"arrowdown"	n/a	"NULL"	"NULL"	"NULL"	"stimuli/MullerLyer_-20.04286_-0.3500.png"	n/a	"MullerLyer"	"arrowdown"	"1336"	"TRUE"	"MullerLyer"	"-20.04286000"	"-0.350000000"	"1"	"29"
n/a	"html-keyboard-response"	"75"	"313640"	"0.0-5.0-2.0-0.11"	"8hg7bp"	"600"	"1366"	"chrome"	"109.0.0"	"FALSE"	"Windows 10"	"60"	"021"	n/a	n/a	n/a	n/a	n/a	n/a	"fixation"	n/a	n/a	n/a	n/a	"NULL"	n/a	"NULL"	"NULL"	"NULL"	"<p style=\"color: black; font-size: 80px; padding-left: 9%; padding-right: 34%; padding-top: 17%; padding-bottom: 39%\">+</p>"	"1437"	n/a	n/a	n/a	n/a	n/a	n/a	n/a	n/a	n/a
n/a	"image-keyboard-response"	"76"	"314091"	"0.0-5.0-2.0-1.11"	"8hg7bp"	"600"	"1366"	"chrome"	"109.0.0"	"FALSE"	"Windows 10"	"60"	"021"	n/a	n/a	n/a	n/a	n/a	n/a	"Trial"	n/a	n/a	n/a	"450"	"arrowup"	n/a	"NULL"	"NULL"	"NULL"	"stimuli/MullerLyer_20.04286_-0.07627.png"	n/a	"MullerLyer"	"arrowdown"	"1445"	"FALSE"	"MullerLyer"	"20.042860000"	"-0.076270000"	"1"	"30"
n/a	"html-keyboard-response"	"77"	"315134"	"0.0-5.0-2.0-0.12"	"8hg7bp"	"600"	"1366"	"chrome"	"109.0.0"	"FALSE"	"Windows 10"	"60"	"021"	n/a	n/a	n/a	n/a	n/a	n/a	"fixation"	n/a	n/a	n/a	n/a	"NULL"	n/a	"NULL"	"NULL"	"NULL"	"<p style=\"color: black; font-size: 80px; padding-left: 42%; padding-right: 7%; padding-top: 11%; padding-bottom: 25%\">+</p>"	"1034"	n/a	n/a	n/a	n/a	n/a	n/a	n/a	n/a	n/a
n/a	"image-keyboard-response"	"78"	"315761"	"0.0-5.0-2.0-1.12"	"8hg7bp"	"600"	"1366"	"chrome"	"109.0.0"	"FALSE"	"Windows 10"	"60"	"021"	n/a	n/a	n/a	n/a	n/a	n/a	"Trial"	n/a	n/a	n/a	"626"	"arrowup"	n/a	"NULL"	"NULL"	"NULL"	"stimuli/MullerLyer_8.21429_-0.14541.png"	n/a	"MullerLyer"	"arrowdown"	"1043"	"FALSE"	"MullerLyer"	"8.2142900000"	"-0.145410000"	"1"	"31"
n/a	"html-keyboard-response"	"79"	"317081"	"0.0-5.0-2.0-0.13"	"8hg7bp"	"600"	"1366"	"chrome"	"109.0.0"	"FALSE"	"Windows 10"	"60"	"021"	n/a	n/a	n/a	n/a	n/a	n/a	"fixation"	n/a	n/a	n/a	n/a	"NULL"	n/a	"NULL"	"NULL"	"NULL"	"<p style=\"color: black; font-size: 80px; padding-left: 13%; padding-right: 1%; padding-top: 9%; padding-bottom: 34%\">+</p>"	"1307"	n/a	n/a	n/a	n/a	n/a	n/a	n/a	n/a	n/a
n/a	"image-keyboard-response"	"80"	"317560"	"0.0-5.0-2.0-1.13"	"8hg7bp"	"600"	"1366"	"chrome"	"109.0.0"	"FALSE"	"Windows 10"	"60"	"021"	n/a	n/a	n/a	n/a	n/a	n/a	"Trial"	n/a	n/a	n/a	"478"	"arrowdown"	n/a	"NULL"	"NULL"	"NULL"	"stimuli/MullerLyer_-14.12857_-0.14541.png"	n/a	"MullerLyer"	"arrowdown"	"1320"	"TRUE"	"MullerLyer"	"-14.12857000"	"-0.145410000"	"1"	"32"
n/a	"html-keyboard-response"	"81"	"318832"	"0.0-5.0-2.0-0.14"	"8hg7bp"	"600"	"1366"	"chrome"	"109.0.0"	"FALSE"	"Windows 10"	"60"	"021"	n/a	n/a	n/a	n/a	n/a	n/a	"fixation"	n/a	n/a	n/a	n/a	"NULL"	n/a	"NULL"	"NULL"	"NULL"	"<p style=\"color: black; font-size: 80px; padding-left: 8%; padding-right: 29%; padding-top: 13%; padding-bottom: 3%\">+</p>"	"1255"	n/a	n/a	n/a	n/a	n/a	n/a	n/a	n/a	n/a
n/a	"image-keyboard-response"	"82"	"319255"	"0.0-5.0-2.0-1.14"	"8hg7bp"	"600"	"1366"	"chrome"	"109.0.0"	"FALSE"	"Windows 10"	"60"	"021"	n/a	n/a	n/a	n/a	n/a	n/a	"Trial"	n/a	n/a	n/a	"422"	"arrowup"	n/a	"NULL"	"NULL"	"NULL"	"stimuli/MullerLyer_-20.04286_0.23665.png"	n/a	"MullerLyer"	"arrowup"	"1272"	"TRUE"	"MullerLyer"	"-20.04286000"	"0.2366500000"	"1"	"33"
n/a	"html-keyboard-response"	"83"	"320320"	"0.0-5.0-2.0-0.15"	"8hg7bp"	"600"	"1366"	"chrome"	"109.0.0"	"FALSE"	"Windows 10"	"60"	"021"	n/a	n/a	n/a	n/a	n/a	n/a	"fixation"	n/a	n/a	n/a	n/a	"NULL"	n/a	"NULL"	"NULL"	"NULL"	"<p style=\"color: black; font-size: 80px; padding-left: 32%; padding-right: 8%; padding-top: 43%; padding-bottom: 17%\">+</p>"	"1055"	n/a	n/a	n/a	n/a	n/a	n/a	n/a	n/a	n/a
n/a	"image-keyboard-response"	"84"	"320738"	"0.0-5.0-2.0-1.15"	"8hg7bp"	"600"	"1366"	"chrome"	"109.0.0"	"FALSE"	"Windows 10"	"60"	"021"	n/a	n/a	n/a	n/a	n/a	n/a	"Trial"	n/a	n/a	n/a	"416"	"arrowup"	n/a	"NULL"	"NULL"	"NULL"	"stimuli/MullerLyer_-14.12857_0.35000.png"	n/a	"MullerLyer"	"arrowup"	"1065"	"TRUE"	"MullerLyer"	"-14.12857000"	"0.3500000000"	"1"	"34"
n/a	"html-keyboard-response"	"85"	"321760"	"0.0-5.0-2.0-0.16"	"8hg7bp"	"600"	"1366"	"chrome"	"109.0.0"	"FALSE"	"Windows 10"	"60"	"021"	n/a	n/a	n/a	n/a	n/a	n/a	"fixation"	n/a	n/a	n/a	n/a	"NULL"	n/a	"NULL"	"NULL"	"NULL"	"<p style=\"color: black; font-size: 80px; padding-left: 35%; padding-right: 3%; padding-top: 47%; padding-bottom: 16%\">+</p>"	"1005"	n/a	n/a	n/a	n/a	n/a	n/a	n/a	n/a	n/a
n/a	"image-keyboard-response"	"86"	"322246"	"0.0-5.0-2.0-1.16"	"8hg7bp"	"600"	"1366"	"chrome"	"109.0.0"	"FALSE"	"Windows 10"	"60"	"021"	n/a	n/a	n/a	n/a	n/a	n/a	"Trial"	n/a	n/a	n/a	"485"	"arrowup"	n/a	"NULL"	"NULL"	"NULL"	"stimuli/MullerLyer_20.04286_-0.14541.png"	n/a	"MullerLyer"	"arrowdown"	"1022"	"FALSE"	"MullerLyer"	"20.042860000"	"-0.145410000"	"1"	"35"
n/a	"html-keyboard-response"	"87"	"323351"	"0.0-5.0-2.0-0.17"	"8hg7bp"	"600"	"1366"	"chrome"	"109.0.0"	"FALSE"	"Windows 10"	"60"	"021"	n/a	n/a	n/a	n/a	n/a	n/a	"fixation"	n/a	n/a	n/a	n/a	"NULL"	n/a	"NULL"	"NULL"	"NULL"	"<p style=\"color: black; font-size: 80px; padding-left: 19%; padding-right: 3%; padding-top: 40%; padding-bottom: 32%\">+</p>"	"1085"	n/a	n/a	n/a	n/a	n/a	n/a	n/a	n/a	n/a
n/a	"image-keyboard-response"	"88"	"323733"	"0.0-5.0-2.0-1.17"	"8hg7bp"	"600"	"1366"	"chrome"	"109.0.0"	"FALSE"	"Windows 10"	"60"	"021"	n/a	n/a	n/a	n/a	n/a	n/a	"Trial"	n/a	n/a	n/a	"380"	"arrowup"	n/a	"NULL"	"NULL"	"NULL"	"stimuli/MullerLyer_-14.12857_0.14541.png"	n/a	"MullerLyer"	"arrowup"	"1105"	"TRUE"	"MullerLyer"	"-14.12857000"	"0.1454100000"	"1"	"36"
n/a	"html-keyboard-response"	"89"	"325225"	"0.0-5.0-2.0-0.18"	"8hg7bp"	"600"	"1366"	"chrome"	"109.0.0"	"FALSE"	"Windows 10"	"60"	"021"	n/a	n/a	n/a	n/a	n/a	n/a	"fixation"	n/a	n/a	n/a	n/a	"NULL"	n/a	"NULL"	"NULL"	"NULL"	"<p style=\"color: black; font-size: 80px; padding-left: 49%; padding-right: 25%; padding-top: 8%; padding-bottom: 12%\">+</p>"	"1471"	n/a	n/a	n/a	n/a	n/a	n/a	n/a	n/a	n/a
n/a	"image-keyboard-response"	"90"	"325648"	"0.0-5.0-2.0-1.18"	"8hg7bp"	"600"	"1366"	"chrome"	"109.0.0"	"FALSE"	"Windows 10"	"60"	"021"	n/a	n/a	n/a	n/a	n/a	n/a	"Trial"	n/a	n/a	n/a	"421"	"arrowup"	n/a	"NULL"	"NULL"	"NULL"	"stimuli/MullerLyer_-8.21429_0.23665.png"	n/a	"MullerLyer"	"arrowup"	"1492"	"TRUE"	"MullerLyer"	"-8.214290000"	"0.2366500000"	"1"	"37"
n/a	"html-keyboard-response"	"91"	"327037"	"0.0-5.0-2.0-0.19"	"8hg7bp"	"600"	"1366"	"chrome"	"109.0.0"	"FALSE"	"Windows 10"	"60"	"021"	n/a	n/a	n/a	n/a	n/a	n/a	"fixation"	n/a	n/a	n/a	n/a	"NULL"	n/a	"NULL"	"NULL"	"NULL"	"<p style=\"color: black; font-size: 80px; padding-left: 46%; padding-right: 32%; padding-top: 10%; padding-bottom: 8%\">+</p>"	"1380"	n/a	n/a	n/a	n/a	n/a	n/a	n/a	n/a	n/a
n/a	"image-keyboard-response"	"92"	"327449"	"0.0-5.0-2.0-1.19"	"8hg7bp"	"600"	"1366"	"chrome"	"109.0.0"	"FALSE"	"Windows 10"	"60"	"021"	n/a	n/a	n/a	n/a	n/a	n/a	"Trial"	n/a	n/a	n/a	"410"	"arrowdown"	n/a	"NULL"	"NULL"	"NULL"	"stimuli/MullerLyer_-20.04286_-0.07627.png"	n/a	"MullerLyer"	"arrowdown"	"1389"	"TRUE"	"MullerLyer"	"-20.04286000"	"-0.076270000"	"1"	"38"
n/a	"html-keyboard-response"	"93"	"328747"	"0.0-5.0-2.0-0.20"	"8hg7bp"	"600"	"1366"	"chrome"	"109.0.0"	"FALSE"	"Windows 10"	"60"	"021"	n/a	n/a	n/a	n/a	n/a	n/a	"fixation"	n/a	n/a	n/a	n/a	"NULL"	n/a	"NULL"	"NULL"	"NULL"	"<p style=\"color: black; font-size: 80px; padding-left: 27%; padding-right: 17%; padding-top: 14%; padding-bottom: 45%\">+</p>"	"1286"	n/a	n/a	n/a	n/a	n/a	n/a	n/a	n/a	n/a
n/a	"image-keyboard-response"	"94"	"329169"	"0.0-5.0-2.0-1.20"	"8hg7bp"	"600"	"1366"	"chrome"	"109.0.0"	"FALSE"	"Windows 10"	"60"	"021"	n/a	n/a	n/a	n/a	n/a	n/a	"Trial"	n/a	n/a	n/a	"421"	"arrowup"	n/a	"NULL"	"NULL"	"NULL"	"stimuli/MullerLyer_-14.12857_0.07627.png"	n/a	"MullerLyer"	"arrowup"	"1298"	"TRUE"	"MullerLyer"	"-14.12857000"	"0.0762700000"	"1"	"39"
n/a	"html-keyboard-response"	"95"	"330362"	"0.0-5.0-2.0-0.21"	"8hg7bp"	"600"	"1366"	"chrome"	"109.0.0"	"FALSE"	"Windows 10"	"60"	"021"	n/a	n/a	n/a	n/a	n/a	n/a	"fixation"	n/a	n/a	n/a	n/a	"NULL"	n/a	"NULL"	"NULL"	"NULL"	"<p style=\"color: black; font-size: 80px; padding-left: 41%; padding-right: 41%; padding-top: 15%; padding-bottom: 15%\">+</p>"	"1177"	n/a	n/a	n/a	n/a	n/a	n/a	n/a	n/a	n/a
n/a	"image-keyboard-response"	"96"	"330751"	"0.0-5.0-2.0-1.21"	"8hg7bp"	"600"	"1366"	"chrome"	"109.0.0"	"FALSE"	"Windows 10"	"60"	"021"	n/a	n/a	n/a	n/a	n/a	n/a	"Trial"	n/a	n/a	n/a	"388"	"arrowup"	n/a	"NULL"	"NULL"	"NULL"	"stimuli/MullerLyer_8.21429_0.35000.png"	n/a	"MullerLyer"	"arrowup"	"1193"	"TRUE"	"MullerLyer"	"8.2142900000"	"0.3500000000"	"1"	"40"
n/a	"html-keyboard-response"	"97"	"332086"	"0.0-5.0-2.0-0.22"	"8hg7bp"	"600"	"1366"	"chrome"	"109.0.0"	"FALSE"	"Windows 10"	"60"	"021"	n/a	n/a	n/a	n/a	n/a	n/a	"fixation"	n/a	n/a	n/a	n/a	"NULL"	n/a	"NULL"	"NULL"	"NULL"	"<p style=\"color: black; font-size: 80px; padding-left: 17%; padding-right: 29%; padding-top: 10%; padding-bottom: 14%\">+</p>"	"1316"	n/a	n/a	n/a	n/a	n/a	n/a	n/a	n/a	n/a
n/a	"image-keyboard-response"	"98"	"332670"	"0.0-5.0-2.0-1.22"	"8hg7bp"	"600"	"1366"	"chrome"	"109.0.0"	"FALSE"	"Windows 10"	"60"	"021"	n/a	n/a	n/a	n/a	n/a	n/a	"Trial"	n/a	n/a	n/a	"581"	"arrowdown"	n/a	"NULL"	"NULL"	"NULL"	"stimuli/MullerLyer_-2.3000_-0.23665.png"	n/a	"MullerLyer"	"arrowdown"	"1335"	"TRUE"	"MullerLyer"	"-2.300000000"	"-0.236650000"	"1"	"41"
n/a	"html-keyboard-response"	"99"	"334134"	"0.0-5.0-2.0-0.23"	"8hg7bp"	"600"	"1366"	"chrome"	"109.0.0"	"FALSE"	"Windows 10"	"60"	"021"	n/a	n/a	n/a	n/a	n/a	n/a	"fixation"	n/a	n/a	n/a	n/a	"NULL"	n/a	"NULL"	"NULL"	"NULL"	"<p style=\"color: black; font-size: 80px; padding-left: 26%; padding-right: 23%; padding-top: 19%; padding-bottom: 0%\">+</p>"	"1460"	n/a	n/a	n/a	n/a	n/a	n/a	n/a	n/a	n/a
n/a	"image-keyboard-response"	"100"	"334557"	"0.0-5.0-2.0-1.23"	"8hg7bp"	"600"	"1366"	"chrome"	"109.0.0"	"FALSE"	"Windows 10"	"60"	"021"	n/a	n/a	n/a	n/a	n/a	n/a	"Trial"	n/a	n/a	n/a	"421"	"arrowup"	n/a	"NULL"	"NULL"	"NULL"	"stimuli/MullerLyer_14.12857_-0.14541.png"	n/a	"MullerLyer"	"arrowdown"	"1464"	"FALSE"	"MullerLyer"	"14.128570000"	"-0.145410000"	"1"	"42"
n/a	"html-keyboard-response"	"101"	"335736"	"0.0-5.0-2.0-0.24"	"8hg7bp"	"600"	"1366"	"chrome"	"109.0.0"	"FALSE"	"Windows 10"	"60"	"021"	n/a	n/a	n/a	n/a	n/a	n/a	"fixation"	n/a	n/a	n/a	n/a	"NULL"	n/a	"NULL"	"NULL"	"NULL"	"<p style=\"color: black; font-size: 80px; padding-left: 48%; padding-right: 38%; padding-top: 20%; padding-bottom: 24%\">+</p>"	"1163"	n/a	n/a	n/a	n/a	n/a	n/a	n/a	n/a	n/a
n/a	"image-keyboard-response"	"102"	"336211"	"0.0-5.0-2.0-1.24"	"8hg7bp"	"600"	"1366"	"chrome"	"109.0.0"	"FALSE"	"Windows 10"	"60"	"021"	n/a	n/a	n/a	n/a	n/a	n/a	"Trial"	n/a	n/a	n/a	"473"	"arrowup"	n/a	"NULL"	"NULL"	"NULL"	"stimuli/MullerLyer_-20.04286_0.35000.png"	n/a	"MullerLyer"	"arrowup"	"1179"	"TRUE"	"MullerLyer"	"-20.04286000"	"0.3500000000"	"1"	"43"
n/a	"html-keyboard-response"	"103"	"337662"	"0.0-5.0-2.0-0.25"	"8hg7bp"	"600"	"1366"	"chrome"	"109.0.0"	"FALSE"	"Windows 10"	"60"	"021"	n/a	n/a	n/a	n/a	n/a	n/a	"fixation"	n/a	n/a	n/a	n/a	"NULL"	n/a	"NULL"	"NULL"	"NULL"	"<p style=\"color: black; font-size: 80px; padding-left: 0%; padding-right: 18%; padding-top: 46%; padding-bottom: 26%\">+</p>"	"1433"	n/a	n/a	n/a	n/a	n/a	n/a	n/a	n/a	n/a
n/a	"image-keyboard-response"	"104"	"338156"	"0.0-5.0-2.0-1.25"	"8hg7bp"	"600"	"1366"	"chrome"	"109.0.0"	"FALSE"	"Windows 10"	"60"	"021"	n/a	n/a	n/a	n/a	n/a	n/a	"Trial"	n/a	n/a	n/a	"493"	"arrowdown"	n/a	"NULL"	"NULL"	"NULL"	"stimuli/MullerLyer_8.21429_0.07627.png"	n/a	"MullerLyer"	"arrowup"	"1451"	"FALSE"	"MullerLyer"	"8.2142900000"	"0.0762700000"	"1"	"44"
n/a	"html-keyboard-response"	"105"	"339524"	"0.0-5.0-2.0-0.26"	"8hg7bp"	"600"	"1366"	"chrome"	"109.0.0"	"FALSE"	"Windows 10"	"60"	"021"	n/a	n/a	n/a	n/a	n/a	n/a	"fixation"	n/a	n/a	n/a	n/a	"NULL"	n/a	"NULL"	"NULL"	"NULL"	"<p style=\"color: black; font-size: 80px; padding-left: 4%; padding-right: 36%; padding-top: 46%; padding-bottom: 11%\">+</p>"	"1365"	n/a	n/a	n/a	n/a	n/a	n/a	n/a	n/a	n/a
n/a	"image-keyboard-response"	"106"	"339978"	"0.0-5.0-2.0-1.26"	"8hg7bp"	"600"	"1366"	"chrome"	"109.0.0"	"FALSE"	"Windows 10"	"60"	"021"	n/a	n/a	n/a	n/a	n/a	n/a	"Trial"	n/a	n/a	n/a	"452"	"arrowup"	n/a	"NULL"	"NULL"	"NULL"	"stimuli/MullerLyer_14.12857_-0.07627.png"	n/a	"MullerLyer"	"arrowdown"	"1368"	"FALSE"	"MullerLyer"	"14.128570000"	"-0.076270000"	"1"	"45"
n/a	"html-keyboard-response"	"107"	"341168"	"0.0-5.0-2.0-0.27"	"8hg7bp"	"600"	"1366"	"chrome"	"109.0.0"	"FALSE"	"Windows 10"	"60"	"021"	n/a	n/a	n/a	n/a	n/a	n/a	"fixation"	n/a	n/a	n/a	n/a	"NULL"	n/a	"NULL"	"NULL"	"NULL"	"<p style=\"color: black; font-size: 80px; padding-left: 9%; padding-right: 3%; padding-top: 48%; padding-bottom: 11%\">+</p>"	"1180"	n/a	n/a	n/a	n/a	n/a	n/a	n/a	n/a	n/a
n/a	"image-keyboard-response"	"108"	"341746"	"0.0-5.0-2.0-1.27"	"8hg7bp"	"600"	"1366"	"chrome"	"109.0.0"	"FALSE"	"Windows 10"	"60"	"021"	n/a	n/a	n/a	n/a	n/a	n/a	"Trial"	n/a	n/a	n/a	"577"	"arrowdown"	n/a	"NULL"	"NULL"	"NULL"	"stimuli/MullerLyer_14.12857_0.14541.png"	n/a	"MullerLyer"	"arrowup"	"1190"	"FALSE"	"MullerLyer"	"14.128570000"	"0.1454100000"	"1"	"46"
n/a	"html-keyboard-response"	"109"	"343183"	"0.0-5.0-2.0-0.28"	"8hg7bp"	"600"	"1366"	"chrome"	"109.0.0"	"FALSE"	"Windows 10"	"60"	"021"	n/a	n/a	n/a	n/a	n/a	n/a	"fixation"	n/a	n/a	n/a	n/a	"NULL"	n/a	"NULL"	"NULL"	"NULL"	"<p style=\"color: black; font-size: 80px; padding-left: 19%; padding-right: 17%; padding-top: 34%; padding-bottom: 46%\">+</p>"	"1418"	n/a	n/a	n/a	n/a	n/a	n/a	n/a	n/a	n/a
n/a	"image-keyboard-response"	"110"	"343638"	"0.0-5.0-2.0-1.28"	"8hg7bp"	"600"	"1366"	"chrome"	"109.0.0"	"FALSE"	"Windows 10"	"60"	"021"	n/a	n/a	n/a	n/a	n/a	n/a	"Trial"	n/a	n/a	n/a	"454"	"arrowdown"	n/a	"NULL"	"NULL"	"NULL"	"stimuli/MullerLyer_-20.04286_-0.23665.png"	n/a	"MullerLyer"	"arrowdown"	"1437"	"TRUE"	"MullerLyer"	"-20.04286000"	"-0.236650000"	"1"	"47"
n/a	"html-keyboard-response"	"111"	"344837"	"0.0-5.0-2.0-0.29"	"8hg7bp"	"600"	"1366"	"chrome"	"109.0.0"	"FALSE"	"Windows 10"	"60"	"021"	n/a	n/a	n/a	n/a	n/a	n/a	"fixation"	n/a	n/a	n/a	n/a	"NULL"	n/a	"NULL"	"NULL"	"NULL"	"<p style=\"color: black; font-size: 80px; padding-left: 1%; padding-right: 16%; padding-top: 47%; padding-bottom: 44%\">+</p>"	"1191"	n/a	n/a	n/a	n/a	n/a	n/a	n/a	n/a	n/a
n/a	"image-keyboard-response"	"112"	"345253"	"0.0-5.0-2.0-1.29"	"8hg7bp"	"600"	"1366"	"chrome"	"109.0.0"	"FALSE"	"Windows 10"	"60"	"021"	n/a	n/a	n/a	n/a	n/a	n/a	"Trial"	n/a	n/a	n/a	"415"	"arrowup"	n/a	"NULL"	"NULL"	"NULL"	"stimuli/MullerLyer_-14.12857_0.23665.png"	n/a	"MullerLyer"	"arrowup"	"1199"	"TRUE"	"MullerLyer"	"-14.12857000"	"0.2366500000"	"1"	"48"
n/a	"html-keyboard-response"	"113"	"346326"	"0.0-5.0-2.0-0.30"	"8hg7bp"	"600"	"1366"	"chrome"	"109.0.0"	"FALSE"	"Windows 10"	"60"	"021"	n/a	n/a	n/a	n/a	n/a	n/a	"fixation"	n/a	n/a	n/a	n/a	"NULL"	n/a	"NULL"	"NULL"	"NULL"	"<p style=\"color: black; font-size: 80px; padding-left: 35%; padding-right: 49%; padding-top: 14%; padding-bottom: 46%\">+</p>"	"1055"	n/a	n/a	n/a	n/a	n/a	n/a	n/a	n/a	n/a
n/a	"image-keyboard-response"	"114"	"346868"	"0.0-5.0-2.0-1.30"	"8hg7bp"	"600"	"1366"	"chrome"	"109.0.0"	"FALSE"	"Windows 10"	"60"	"021"	n/a	n/a	n/a	n/a	n/a	n/a	"Trial"	n/a	n/a	n/a	"541"	"arrowdown"	n/a	"NULL"	"NULL"	"NULL"	"stimuli/MullerLyer_8.21429_0.14541.png"	n/a	"MullerLyer"	"arrowup"	"1073"	"FALSE"	"MullerLyer"	"8.2142900000"	"0.1454100000"	"1"	"49"
n/a	"html-keyboard-response"	"115"	"347878"	"0.0-5.0-2.0-0.31"	"8hg7bp"	"600"	"1366"	"chrome"	"109.0.0"	"FALSE"	"Windows 10"	"60"	"021"	n/a	n/a	n/a	n/a	n/a	n/a	"fixation"	n/a	n/a	n/a	n/a	"NULL"	n/a	"NULL"	"NULL"	"NULL"	"<p style=\"color: black; font-size: 80px; padding-left: 41%; padding-right: 32%; padding-top: 6%; padding-bottom: 42%\">+</p>"	"1008"	n/a	n/a	n/a	n/a	n/a	n/a	n/a	n/a	n/a
n/a	"image-keyboard-response"	"116"	"348364"	"0.0-5.0-2.0-1.31"	"8hg7bp"	"600"	"1366"	"chrome"	"109.0.0"	"FALSE"	"Windows 10"	"60"	"021"	n/a	n/a	n/a	n/a	n/a	n/a	"Trial"	n/a	n/a	n/a	"485"	"arrowup"	n/a	"NULL"	"NULL"	"NULL"	"stimuli/MullerLyer_-8.21429_0.07627.png"	n/a	"MullerLyer"	"arrowup"	"1010"	"TRUE"	"MullerLyer"	"-8.214290000"	"0.0762700000"	"1"	"50"
n/a	"html-keyboard-response"	"117"	"349872"	"0.0-5.0-2.0-0.32"	"8hg7bp"	"600"	"1366"	"chrome"	"109.0.0"	"FALSE"	"Windows 10"	"60"	"021"	n/a	n/a	n/a	n/a	n/a	n/a	"fixation"	n/a	n/a	n/a	n/a	"NULL"	n/a	"NULL"	"NULL"	"NULL"	"<p style=\"color: black; font-size: 80px; padding-left: 36%; padding-right: 0%; padding-top: 34%; padding-bottom: 10%\">+</p>"	"1489"	n/a	n/a	n/a	n/a	n/a	n/a	n/a	n/a	n/a
n/a	"image-keyboard-response"	"118"	"350311"	"0.0-5.0-2.0-1.32"	"8hg7bp"	"600"	"1366"	"chrome"	"109.0.0"	"FALSE"	"Windows 10"	"60"	"021"	n/a	n/a	n/a	n/a	n/a	n/a	"Trial"	n/a	n/a	n/a	"437"	"arrowdown"	n/a	"NULL"	"NULL"	"NULL"	"stimuli/MullerLyer_2.30000_-0.23665.png"	n/a	"MullerLyer"	"arrowdown"	"1508"	"TRUE"	"MullerLyer"	"2.3000000000"	"-0.236650000"	"1"	"51"
n/a	"html-keyboard-response"	"119"	"351675"	"0.0-5.0-2.0-0.33"	"8hg7bp"	"600"	"1366"	"chrome"	"109.0.0"	"FALSE"	"Windows 10"	"60"	"021"	n/a	n/a	n/a	n/a	n/a	n/a	"fixation"	n/a	n/a	n/a	n/a	"NULL"	n/a	"NULL"	"NULL"	"NULL"	"<p style=\"color: black; font-size: 80px; padding-left: 47%; padding-right: 32%; padding-top: 9%; padding-bottom: 38%\">+</p>"	"1347"	n/a	n/a	n/a	n/a	n/a	n/a	n/a	n/a	n/a
n/a	"image-keyboard-response"	"120"	"352164"	"0.0-5.0-2.0-1.33"	"8hg7bp"	"600"	"1366"	"chrome"	"109.0.0"	"FALSE"	"Windows 10"	"60"	"021"	n/a	n/a	n/a	n/a	n/a	n/a	"Trial"	n/a	n/a	n/a	"488"	"arrowup"	n/a	"NULL"	"NULL"	"NULL"	"stimuli/MullerLyer_20.04286_-0.3500.png"	n/a	"MullerLyer"	"arrowdown"	"1364"	"FALSE"	"MullerLyer"	"20.042860000"	"-0.350000000"	"1"	"52"
n/a	"html-keyboard-response"	"121"	"353238"	"0.0-5.0-2.0-0.34"	"8hg7bp"	"600"	"1366"	"chrome"	"109.0.0"	"FALSE"	"Windows 10"	"60"	"021"	n/a	n/a	n/a	n/a	n/a	n/a	"fixation"	n/a	n/a	n/a	n/a	"NULL"	n/a	"NULL"	"NULL"	"NULL"	"<p style=\"color: black; font-size: 80px; padding-left: 30%; padding-right: 3%; padding-top: 30%; padding-bottom: 14%\">+</p>"	"1064"	n/a	n/a	n/a	n/a	n/a	n/a	n/a	n/a	n/a
n/a	"image-keyboard-response"	"122"	"353862"	"0.0-5.0-2.0-1.34"	"8hg7bp"	"600"	"1366"	"chrome"	"109.0.0"	"FALSE"	"Windows 10"	"60"	"021"	n/a	n/a	n/a	n/a	n/a	n/a	"Trial"	n/a	n/a	n/a	"622"	"arrowup"	n/a	"NULL"	"NULL"	"NULL"	"stimuli/MullerLyer_2.30000_0.14541.png"	n/a	"MullerLyer"	"arrowup"	"1074"	"TRUE"	"MullerLyer"	"2.3000000000"	"0.1454100000"	"1"	"53"
n/a	"html-keyboard-response"	"123"	"355201"	"0.0-5.0-2.0-0.35"	"8hg7bp"	"600"	"1366"	"chrome"	"109.0.0"	"FALSE"	"Windows 10"	"60"	"021"	n/a	n/a	n/a	n/a	n/a	n/a	"fixation"	n/a	n/a	n/a	n/a	"NULL"	n/a	"NULL"	"NULL"	"NULL"	"<p style=\"color: black; font-size: 80px; padding-left: 45%; padding-right: 7%; padding-top: 22%; padding-bottom: 17%\">+</p>"	"1332"	n/a	n/a	n/a	n/a	n/a	n/a	n/a	n/a	n/a
n/a	"image-keyboard-response"	"124"	"355716"	"0.0-5.0-2.0-1.35"	"8hg7bp"	"600"	"1366"	"chrome"	"109.0.0"	"FALSE"	"Windows 10"	"60"	"021"	n/a	n/a	n/a	n/a	n/a	n/a	"Trial"	n/a	n/a	n/a	"514"	"arrowup"	n/a	"NULL"	"NULL"	"NULL"	"stimuli/MullerLyer_2.30000_0.23665.png"	n/a	"MullerLyer"	"arrowup"	"1339"	"TRUE"	"MullerLyer"	"2.3000000000"	"0.2366500000"	"1"	"54"
n/a	"html-keyboard-response"	"125"	"356966"	"0.0-5.0-2.0-0.36"	"8hg7bp"	"600"	"1366"	"chrome"	"109.0.0"	"FALSE"	"Windows 10"	"60"	"021"	n/a	n/a	n/a	n/a	n/a	n/a	"fixation"	n/a	n/a	n/a	n/a	"NULL"	n/a	"NULL"	"NULL"	"NULL"	"<p style=\"color: black; font-size: 80px; padding-left: 8%; padding-right: 5%; padding-top: 28%; padding-bottom: 32%\">+</p>"	"1242"	n/a	n/a	n/a	n/a	n/a	n/a	n/a	n/a	n/a
n/a	"image-keyboard-response"	"126"	"357402"	"0.0-5.0-2.0-1.36"	"8hg7bp"	"600"	"1366"	"chrome"	"109.0.0"	"FALSE"	"Windows 10"	"60"	"021"	n/a	n/a	n/a	n/a	n/a	n/a	"Trial"	n/a	n/a	n/a	"435"	"arrowdown"	n/a	"NULL"	"NULL"	"NULL"	"stimuli/MullerLyer_-8.21429_-0.23665.png"	n/a	"MullerLyer"	"arrowdown"	"1250"	"TRUE"	"MullerLyer"	"-8.214290000"	"-0.236650000"	"1"	"55"
n/a	"html-keyboard-response"	"127"	"358567"	"0.0-5.0-2.0-0.37"	"8hg7bp"	"600"	"1366"	"chrome"	"109.0.0"	"FALSE"	"Windows 10"	"60"	"021"	n/a	n/a	n/a	n/a	n/a	n/a	"fixation"	n/a	n/a	n/a	n/a	"NULL"	n/a	"NULL"	"NULL"	"NULL"	"<p style=\"color: black; font-size: 80px; padding-left: 26%; padding-right: 48%; padding-top: 15%; padding-bottom: 22%\">+</p>"	"1144"	n/a	n/a	n/a	n/a	n/a	n/a	n/a	n/a	n/a
n/a	"image-keyboard-response"	"128"	"358992"	"0.0-5.0-2.0-1.37"	"8hg7bp"	"600"	"1366"	"chrome"	"109.0.0"	"FALSE"	"Windows 10"	"60"	"021"	n/a	n/a	n/a	n/a	n/a	n/a	"Trial"	n/a	n/a	n/a	"423"	"arrowup"	n/a	"NULL"	"NULL"	"NULL"	"stimuli/MullerLyer_-2.3000_0.35000.png"	n/a	"MullerLyer"	"arrowup"	"1165"	"TRUE"	"MullerLyer"	"-2.300000000"	"0.3500000000"	"1"	"56"
n/a	"html-keyboard-response"	"129"	"360300"	"0.0-5.0-2.0-0.38"	"8hg7bp"	"600"	"1366"	"chrome"	"109.0.0"	"FALSE"	"Windows 10"	"60"	"021"	n/a	n/a	n/a	n/a	n/a	n/a	"fixation"	n/a	n/a	n/a	n/a	"NULL"	n/a	"NULL"	"NULL"	"NULL"	"<p style=\"color: black; font-size: 80px; padding-left: 11%; padding-right: 20%; padding-top: 45%; padding-bottom: 31%\">+</p>"	"1297"	n/a	n/a	n/a	n/a	n/a	n/a	n/a	n/a	n/a
n/a	"image-keyboard-response"	"130"	"360793"	"0.0-5.0-2.0-1.38"	"8hg7bp"	"600"	"1366"	"chrome"	"109.0.0"	"FALSE"	"Windows 10"	"60"	"021"	n/a	n/a	n/a	n/a	n/a	n/a	"Trial"	n/a	n/a	n/a	"492"	"arrowdown"	n/a	"NULL"	"NULL"	"NULL"	"stimuli/MullerLyer_2.30000_-0.3500.png"	n/a	"MullerLyer"	"arrowdown"	"1308"	"TRUE"	"MullerLyer"	"2.3000000000"	"-0.350000000"	"1"	"57"
n/a	"html-keyboard-response"	"131"	"362272"	"0.0-5.0-2.0-0.39"	"8hg7bp"	"600"	"1366"	"chrome"	"109.0.0"	"FALSE"	"Windows 10"	"60"	"021"	n/a	n/a	n/a	n/a	n/a	n/a	"fixation"	n/a	n/a	n/a	n/a	"NULL"	n/a	"NULL"	"NULL"	"NULL"	"<p style=\"color: black; font-size: 80px; padding-left: 10%; padding-right: 6%; padding-top: 14%; padding-bottom: 22%\">+</p>"	"1472"	n/a	n/a	n/a	n/a	n/a	n/a	n/a	n/a	n/a
n/a	"image-keyboard-response"	"132"	"362879"	"0.0-5.0-2.0-1.39"	"8hg7bp"	"600"	"1366"	"chrome"	"109.0.0"	"FALSE"	"Windows 10"	"60"	"021"	n/a	n/a	n/a	n/a	n/a	n/a	"Trial"	n/a	n/a	n/a	"606"	"arrowdown"	n/a	"NULL"	"NULL"	"NULL"	"stimuli/MullerLyer_8.21429_-0.07627.png"	n/a	"MullerLyer"	"arrowdown"	"1479"	"TRUE"	"MullerLyer"	"8.2142900000"	"-0.076270000"	"1"	"58"
n/a	"html-keyboard-response"	"133"	"364068"	"0.0-5.0-2.0-0.40"	"8hg7bp"	"600"	"1366"	"chrome"	"109.0.0"	"FALSE"	"Windows 10"	"60"	"021"	n/a	n/a	n/a	n/a	n/a	n/a	"fixation"	n/a	n/a	n/a	n/a	"NULL"	n/a	"NULL"	"NULL"	"NULL"	"<p style=\"color: black; font-size: 80px; padding-left: 14%; padding-right: 22%; padding-top: 20%; padding-bottom: 26%\">+</p>"	"1180"	n/a	n/a	n/a	n/a	n/a	n/a	n/a	n/a	n/a
n/a	"image-keyboard-response"	"134"	"364700"	"0.0-5.0-2.0-1.40"	"8hg7bp"	"600"	"1366"	"chrome"	"109.0.0"	"FALSE"	"Windows 10"	"60"	"021"	n/a	n/a	n/a	n/a	n/a	n/a	"Trial"	n/a	n/a	n/a	"630"	"arrowdown"	n/a	"NULL"	"NULL"	"NULL"	"stimuli/MullerLyer_2.30000_-0.14541.png"	n/a	"MullerLyer"	"arrowdown"	"1189"	"TRUE"	"MullerLyer"	"2.3000000000"	"-0.145410000"	"1"	"59"
n/a	"html-keyboard-response"	"135"	"365975"	"0.0-5.0-2.0-0.41"	"8hg7bp"	"600"	"1366"	"chrome"	"109.0.0"	"FALSE"	"Windows 10"	"60"	"021"	n/a	n/a	n/a	n/a	n/a	n/a	"fixation"	n/a	n/a	n/a	n/a	"NULL"	n/a	"NULL"	"NULL"	"NULL"	"<p style=\"color: black; font-size: 80px; padding-left: 22%; padding-right: 46%; padding-top: 32%; padding-bottom: 16%\">+</p>"	"1270"	n/a	n/a	n/a	n/a	n/a	n/a	n/a	n/a	n/a
n/a	"image-keyboard-response"	"136"	"366523"	"0.0-5.0-2.0-1.41"	"8hg7bp"	"600"	"1366"	"chrome"	"109.0.0"	"FALSE"	"Windows 10"	"60"	"021"	n/a	n/a	n/a	n/a	n/a	n/a	"Trial"	n/a	n/a	n/a	"547"	"arrowup"	n/a	"NULL"	"NULL"	"NULL"	"stimuli/MullerLyer_-2.3000_0.23665.png"	n/a	"MullerLyer"	"arrowup"	"1275"	"TRUE"	"MullerLyer"	"-2.300000000"	"0.2366500000"	"1"	"60"
n/a	"html-keyboard-response"	"137"	"367914"	"0.0-5.0-2.0-0.42"	"8hg7bp"	"600"	"1366"	"chrome"	"109.0.0"	"FALSE"	"Windows 10"	"60"	"021"	n/a	n/a	n/a	n/a	n/a	n/a	"fixation"	n/a	n/a	n/a	n/a	"NULL"	n/a	"NULL"	"NULL"	"NULL"	"<p style=\"color: black; font-size: 80px; padding-left: 49%; padding-right: 25%; padding-top: 34%; padding-bottom: 49%\">+</p>"	"1374"	n/a	n/a	n/a	n/a	n/a	n/a	n/a	n/a	n/a
n/a	"image-keyboard-response"	"138"	"368368"	"0.0-5.0-2.0-1.42"	"8hg7bp"	"600"	"1366"	"chrome"	"109.0.0"	"FALSE"	"Windows 10"	"60"	"021"	n/a	n/a	n/a	n/a	n/a	n/a	"Trial"	n/a	n/a	n/a	"452"	"arrowdown"	n/a	"NULL"	"NULL"	"NULL"	"stimuli/MullerLyer_20.04286_0.07627.png"	n/a	"MullerLyer"	"arrowup"	"1391"	"FALSE"	"MullerLyer"	"20.042860000"	"0.0762700000"	"1"	"61"
n/a	"html-keyboard-response"	"139"	"369529"	"0.0-5.0-2.0-0.43"	"8hg7bp"	"600"	"1366"	"chrome"	"109.0.0"	"FALSE"	"Windows 10"	"60"	"021"	n/a	n/a	n/a	n/a	n/a	n/a	"fixation"	n/a	n/a	n/a	n/a	"NULL"	n/a	"NULL"	"NULL"	"NULL"	"<p style=\"color: black; font-size: 80px; padding-left: 24%; padding-right: 21%; padding-top: 12%; padding-bottom: 36%\">+</p>"	"1152"	n/a	n/a	n/a	n/a	n/a	n/a	n/a	n/a	n/a
n/a	"image-keyboard-response"	"140"	"370213"	"0.0-5.0-2.0-1.43"	"8hg7bp"	"600"	"1366"	"chrome"	"109.0.0"	"FALSE"	"Windows 10"	"60"	"021"	n/a	n/a	n/a	n/a	n/a	n/a	"Trial"	n/a	n/a	n/a	"683"	"arrowdown"	n/a	"NULL"	"NULL"	"NULL"	"stimuli/MullerLyer_14.12857_0.23665.png"	n/a	"MullerLyer"	"arrowup"	"1161"	"FALSE"	"MullerLyer"	"14.128570000"	"0.2366500000"	"1"	"62"
n/a	"html-keyboard-response"	"141"	"371318"	"0.0-5.0-2.0-0.44"	"8hg7bp"	"600"	"1366"	"chrome"	"109.0.0"	"FALSE"	"Windows 10"	"60"	"021"	n/a	n/a	n/a	n/a	n/a	n/a	"fixation"	n/a	n/a	n/a	n/a	"NULL"	n/a	"NULL"	"NULL"	"NULL"	"<p style=\"color: black; font-size: 80px; padding-left: 36%; padding-right: 8%; padding-top: 29%; padding-bottom: 46%\">+</p>"	"1090"	n/a	n/a	n/a	n/a	n/a	n/a	n/a	n/a	n/a
n/a	"image-keyboard-response"	"142"	"371806"	"0.0-5.0-2.0-1.44"	"8hg7bp"	"600"	"1366"	"chrome"	"109.0.0"	"FALSE"	"Windows 10"	"60"	"021"	n/a	n/a	n/a	n/a	n/a	n/a	"Trial"	n/a	n/a	n/a	"487"	"arrowdown"	n/a	"NULL"	"NULL"	"NULL"	"stimuli/MullerLyer_-8.21429_-0.3500.png"	n/a	"MullerLyer"	"arrowdown"	"1105"	"TRUE"	"MullerLyer"	"-8.214290000"	"-0.350000000"	"1"	"63"
n/a	"html-keyboard-response"	"143"	"373224"	"0.0-5.0-2.0-0.45"	"8hg7bp"	"600"	"1366"	"chrome"	"109.0.0"	"FALSE"	"Windows 10"	"60"	"021"	n/a	n/a	n/a	n/a	n/a	n/a	"fixation"	n/a	n/a	n/a	n/a	"NULL"	n/a	"NULL"	"NULL"	"NULL"	"<p style=\"color: black; font-size: 80px; padding-left: 44%; padding-right: 2%; padding-top: 0%; padding-bottom: 22%\">+</p>"	"1397"	n/a	n/a	n/a	n/a	n/a	n/a	n/a	n/a	n/a
n/a	"image-keyboard-response"	"144"	"373804"	"0.0-5.0-2.0-1.45"	"8hg7bp"	"600"	"1366"	"chrome"	"109.0.0"	"FALSE"	"Windows 10"	"60"	"021"	n/a	n/a	n/a	n/a	n/a	n/a	"Trial"	n/a	n/a	n/a	"579"	"arrowdown"	n/a	"NULL"	"NULL"	"NULL"	"stimuli/MullerLyer_-8.21429_-0.14541.png"	n/a	"MullerLyer"	"arrowdown"	"1418"	"TRUE"	"MullerLyer"	"-8.214290000"	"-0.145410000"	"1"	"64"
n/a	"html-keyboard-response"	"145"	"375163"	"0.0-5.0-2.0-0.46"	"8hg7bp"	"600"	"1366"	"chrome"	"109.0.0"	"FALSE"	"Windows 10"	"60"	"021"	n/a	n/a	n/a	n/a	n/a	n/a	"fixation"	n/a	n/a	n/a	n/a	"NULL"	n/a	"NULL"	"NULL"	"NULL"	"<p style=\"color: black; font-size: 80px; padding-left: 24%; padding-right: 44%; padding-top: 49%; padding-bottom: 50%\">+</p>"	"1350"	n/a	n/a	n/a	n/a	n/a	n/a	n/a	n/a	n/a
n/a	"image-keyboard-response"	"146"	"375709"	"0.0-5.0-2.0-1.46"	"8hg7bp"	"600"	"1366"	"chrome"	"109.0.0"	"FALSE"	"Windows 10"	"60"	"021"	n/a	n/a	n/a	n/a	n/a	n/a	"Trial"	n/a	n/a	n/a	"544"	"arrowup"	n/a	"NULL"	"NULL"	"NULL"	"stimuli/MullerLyer_20.04286_0.35000.png"	n/a	"MullerLyer"	"arrowup"	"1359"	"TRUE"	"MullerLyer"	"20.042860000"	"0.3500000000"	"1"	"65"
n/a	"html-keyboard-response"	"147"	"377083"	"0.0-5.0-2.0-0.47"	"8hg7bp"	"600"	"1366"	"chrome"	"109.0.0"	"FALSE"	"Windows 10"	"60"	"021"	n/a	n/a	n/a	n/a	n/a	n/a	"fixation"	n/a	n/a	n/a	n/a	"NULL"	n/a	"NULL"	"NULL"	"NULL"	"<p style=\"color: black; font-size: 80px; padding-left: 23%; padding-right: 25%; padding-top: 3%; padding-bottom: 12%\">+</p>"	"1358"	n/a	n/a	n/a	n/a	n/a	n/a	n/a	n/a	n/a
n/a	"image-keyboard-response"	"148"	"377625"	"0.0-5.0-2.0-1.47"	"8hg7bp"	"600"	"1366"	"chrome"	"109.0.0"	"FALSE"	"Windows 10"	"60"	"021"	n/a	n/a	n/a	n/a	n/a	n/a	"Trial"	n/a	n/a	n/a	"540"	"arrowup"	n/a	"NULL"	"NULL"	"NULL"	"stimuli/MullerLyer_14.12857_0.35000.png"	n/a	"MullerLyer"	"arrowup"	"1374"	"TRUE"	"MullerLyer"	"14.128570000"	"0.3500000000"	"1"	"66"
n/a	"html-keyboard-response"	"149"	"378651"	"0.0-5.0-2.0-0.48"	"8hg7bp"	"600"	"1366"	"chrome"	"109.0.0"	"FALSE"	"Windows 10"	"60"	"021"	n/a	n/a	n/a	n/a	n/a	n/a	"fixation"	n/a	n/a	n/a	n/a	"NULL"	n/a	"NULL"	"NULL"	"NULL"	"<p style=\"color: black; font-size: 80px; padding-left: 22%; padding-right: 14%; padding-top: 10%; padding-bottom: 46%\">+</p>"	"1013"	n/a	n/a	n/a	n/a	n/a	n/a	n/a	n/a	n/a
n/a	"image-keyboard-response"	"150"	"379397"	"0.0-5.0-2.0-1.48"	"8hg7bp"	"600"	"1366"	"chrome"	"109.0.0"	"FALSE"	"Windows 10"	"60"	"021"	n/a	n/a	n/a	n/a	n/a	n/a	"Trial"	n/a	n/a	n/a	"744"	"arrowup"	n/a	"NULL"	"NULL"	"NULL"	"stimuli/MullerLyer_-2.3000_0.07627.png"	n/a	"MullerLyer"	"arrowup"	"1026"	"TRUE"	"MullerLyer"	"-2.300000000"	"0.0762700000"	"1"	"67"
n/a	"html-keyboard-response"	"151"	"380590"	"0.0-5.0-2.0-0.49"	"8hg7bp"	"600"	"1366"	"chrome"	"109.0.0"	"FALSE"	"Windows 10"	"60"	"021"	n/a	n/a	n/a	n/a	n/a	n/a	"fixation"	n/a	n/a	n/a	n/a	"NULL"	n/a	"NULL"	"NULL"	"NULL"	"<p style=\"color: black; font-size: 80px; padding-left: 4%; padding-right: 43%; padding-top: 10%; padding-bottom: 0%\">+</p>"	"1176"	n/a	n/a	n/a	n/a	n/a	n/a	n/a	n/a	n/a
n/a	"image-keyboard-response"	"152"	"381647"	"0.0-5.0-2.0-1.49"	"8hg7bp"	"600"	"1366"	"chrome"	"109.0.0"	"FALSE"	"Windows 10"	"60"	"021"	n/a	n/a	n/a	n/a	n/a	n/a	"Trial"	n/a	n/a	n/a	"1055"	"arrowdown"	n/a	"NULL"	"NULL"	"NULL"	"stimuli/MullerLyer_-2.3000_-0.14541.png"	n/a	"MullerLyer"	"arrowdown"	"1193"	"TRUE"	"MullerLyer"	"-2.300000000"	"-0.145410000"	"1"	"68"
n/a	"html-keyboard-response"	"153"	"382930"	"0.0-5.0-2.0-0.50"	"8hg7bp"	"600"	"1366"	"chrome"	"109.0.0"	"FALSE"	"Windows 10"	"60"	"021"	n/a	n/a	n/a	n/a	n/a	n/a	"fixation"	n/a	n/a	n/a	n/a	"NULL"	n/a	"NULL"	"NULL"	"NULL"	"<p style=\"color: black; font-size: 80px; padding-left: 45%; padding-right: 17%; padding-top: 46%; padding-bottom: 38%\">+</p>"	"1273"	n/a	n/a	n/a	n/a	n/a	n/a	n/a	n/a	n/a
n/a	"image-keyboard-response"	"154"	"383424"	"0.0-5.0-2.0-1.50"	"8hg7bp"	"600"	"1366"	"chrome"	"109.0.0"	"FALSE"	"Windows 10"	"60"	"021"	n/a	n/a	n/a	n/a	n/a	n/a	"Trial"	n/a	n/a	n/a	"492"	"arrowdown"	n/a	"NULL"	"NULL"	"NULL"	"stimuli/MullerLyer_-20.04286_-0.14541.png"	n/a	"MullerLyer"	"arrowdown"	"1283"	"TRUE"	"MullerLyer"	"-20.04286000"	"-0.145410000"	"1"	"69"
n/a	"html-keyboard-response"	"155"	"384587"	"0.0-5.0-2.0-0.51"	"8hg7bp"	"600"	"1366"	"chrome"	"109.0.0"	"FALSE"	"Windows 10"	"60"	"021"	n/a	n/a	n/a	n/a	n/a	n/a	"fixation"	n/a	n/a	n/a	n/a	"NULL"	n/a	"NULL"	"NULL"	"NULL"	"<p style=\"color: black; font-size: 80px; padding-left: 13%; padding-right: 32%; padding-top: 23%; padding-bottom: 3%\">+</p>"	"1150"	n/a	n/a	n/a	n/a	n/a	n/a	n/a	n/a	n/a
n/a	"image-keyboard-response"	"156"	"385113"	"0.0-5.0-2.0-1.51"	"8hg7bp"	"600"	"1366"	"chrome"	"109.0.0"	"FALSE"	"Windows 10"	"60"	"021"	n/a	n/a	n/a	n/a	n/a	n/a	"Trial"	n/a	n/a	n/a	"525"	"arrowdown"	n/a	"NULL"	"NULL"	"NULL"	"stimuli/MullerLyer_8.21429_-0.3500.png"	n/a	"MullerLyer"	"arrowdown"	"1163"	"TRUE"	"MullerLyer"	"8.2142900000"	"-0.350000000"	"1"	"70"
n/a	"html-keyboard-response"	"157"	"386233"	"0.0-5.0-2.0-0.52"	"8hg7bp"	"600"	"1366"	"chrome"	"109.0.0"	"FALSE"	"Windows 10"	"60"	"021"	n/a	n/a	n/a	n/a	n/a	n/a	"fixation"	n/a	n/a	n/a	n/a	"NULL"	n/a	"NULL"	"NULL"	"NULL"	"<p style=\"color: black; font-size: 80px; padding-left: 46%; padding-right: 37%; padding-top: 3%; padding-bottom: 37%\">+</p>"	"1113"	n/a	n/a	n/a	n/a	n/a	n/a	n/a	n/a	n/a
n/a	"image-keyboard-response"	"158"	"387180"	"0.0-5.0-2.0-1.52"	"8hg7bp"	"600"	"1366"	"chrome"	"109.0.0"	"FALSE"	"Windows 10"	"60"	"021"	n/a	n/a	n/a	n/a	n/a	n/a	"Trial"	n/a	n/a	n/a	"945"	"arrowup"	n/a	"NULL"	"NULL"	"NULL"	"stimuli/MullerLyer_-2.3000_-0.07627.png"	n/a	"MullerLyer"	"arrowdown"	"1120"	"FALSE"	"MullerLyer"	"-2.300000000"	"-0.076270000"	"1"	"71"
n/a	"html-keyboard-response"	"159"	"388204"	"0.0-5.0-2.0-0.53"	"8hg7bp"	"600"	"1366"	"chrome"	"109.0.0"	"FALSE"	"Windows 10"	"60"	"021"	n/a	n/a	n/a	n/a	n/a	n/a	"fixation"	n/a	n/a	n/a	n/a	"NULL"	n/a	"NULL"	"NULL"	"NULL"	"<p style=\"color: black; font-size: 80px; padding-left: 32%; padding-right: 14%; padding-top: 16%; padding-bottom: 49%\">+</p>"	"1013"	n/a	n/a	n/a	n/a	n/a	n/a	n/a	n/a	n/a
n/a	"image-keyboard-response"	"160"	"388713"	"0.0-5.0-2.0-1.53"	"8hg7bp"	"600"	"1366"	"chrome"	"109.0.0"	"FALSE"	"Windows 10"	"60"	"021"	n/a	n/a	n/a	n/a	n/a	n/a	"Trial"	n/a	n/a	n/a	"508"	"arrowup"	n/a	"NULL"	"NULL"	"NULL"	"stimuli/MullerLyer_20.04286_-0.23665.png"	n/a	"MullerLyer"	"arrowdown"	"1024"	"FALSE"	"MullerLyer"	"20.042860000"	"-0.236650000"	"1"	"72"
n/a	"html-keyboard-response"	"161"	"389796"	"0.0-5.0-2.0-0.54"	"8hg7bp"	"600"	"1366"	"chrome"	"109.0.0"	"FALSE"	"Windows 10"	"60"	"021"	n/a	n/a	n/a	n/a	n/a	n/a	"fixation"	n/a	n/a	n/a	n/a	"NULL"	n/a	"NULL"	"NULL"	"NULL"	"<p style=\"color: black; font-size: 80px; padding-left: 33%; padding-right: 42%; padding-top: 7%; padding-bottom: 4%\">+</p>"	"1069"	n/a	n/a	n/a	n/a	n/a	n/a	n/a	n/a	n/a
n/a	"image-keyboard-response"	"162"	"390240"	"0.0-5.0-2.0-1.54"	"8hg7bp"	"600"	"1366"	"chrome"	"109.0.0"	"FALSE"	"Windows 10"	"60"	"021"	n/a	n/a	n/a	n/a	n/a	n/a	"Trial"	n/a	n/a	n/a	"442"	"arrowup"	n/a	"NULL"	"NULL"	"NULL"	"stimuli/MullerLyer_-20.04286_0.14541.png"	n/a	"MullerLyer"	"arrowup"	"1083"	"TRUE"	"MullerLyer"	"-20.04286000"	"0.1454100000"	"1"	"73"
n/a	"html-keyboard-response"	"163"	"391533"	"0.0-5.0-2.0-0.55"	"8hg7bp"	"600"	"1366"	"chrome"	"109.0.0"	"FALSE"	"Windows 10"	"60"	"021"	n/a	n/a	n/a	n/a	n/a	n/a	"fixation"	n/a	n/a	n/a	n/a	"NULL"	n/a	"NULL"	"NULL"	"NULL"	"<p style=\"color: black; font-size: 80px; padding-left: 28%; padding-right: 22%; padding-top: 33%; padding-bottom: 8%\">+</p>"	"1287"	n/a	n/a	n/a	n/a	n/a	n/a	n/a	n/a	n/a
n/a	"image-keyboard-response"	"164"	"391999"	"0.0-5.0-2.0-1.55"	"8hg7bp"	"600"	"1366"	"chrome"	"109.0.0"	"FALSE"	"Windows 10"	"60"	"021"	n/a	n/a	n/a	n/a	n/a	n/a	"Trial"	n/a	n/a	n/a	"464"	"arrowup"	n/a	"NULL"	"NULL"	"NULL"	"stimuli/MullerLyer_8.21429_0.23665.png"	n/a	"MullerLyer"	"arrowup"	"1293"	"TRUE"	"MullerLyer"	"8.2142900000"	"0.2366500000"	"1"	"74"
n/a	"html-keyboard-response"	"165"	"393453"	"0.0-5.0-2.0-0.56"	"8hg7bp"	"600"	"1366"	"chrome"	"109.0.0"	"FALSE"	"Windows 10"	"60"	"021"	n/a	n/a	n/a	n/a	n/a	n/a	"fixation"	n/a	n/a	n/a	n/a	"NULL"	n/a	"NULL"	"NULL"	"NULL"	"<p style=\"color: black; font-size: 80px; padding-left: 11%; padding-right: 25%; padding-top: 32%; padding-bottom: 20%\">+</p>"	"1439"	n/a	n/a	n/a	n/a	n/a	n/a	n/a	n/a	n/a
n/a	"image-keyboard-response"	"166"	"394308"	"0.0-5.0-2.0-1.56"	"8hg7bp"	"600"	"1366"	"chrome"	"109.0.0"	"FALSE"	"Windows 10"	"60"	"021"	n/a	n/a	n/a	n/a	n/a	n/a	"Trial"	n/a	n/a	n/a	"853"	"arrowup"	n/a	"NULL"	"NULL"	"NULL"	"stimuli/MullerLyer_2.30000_0.07627.png"	n/a	"MullerLyer"	"arrowup"	"1454"	"TRUE"	"MullerLyer"	"2.3000000000"	"0.0762700000"	"1"	"75"
n/a	"html-keyboard-response"	"167"	"395616"	"0.0-5.0-2.0-0.57"	"8hg7bp"	"600"	"1366"	"chrome"	"109.0.0"	"FALSE"	"Windows 10"	"60"	"021"	n/a	n/a	n/a	n/a	n/a	n/a	"fixation"	n/a	n/a	n/a	n/a	"NULL"	n/a	"NULL"	"NULL"	"NULL"	"<p style=\"color: black; font-size: 80px; padding-left: 25%; padding-right: 46%; padding-top: 49%; padding-bottom: 42%\">+</p>"	"1292"	n/a	n/a	n/a	n/a	n/a	n/a	n/a	n/a	n/a
n/a	"image-keyboard-response"	"168"	"396094"	"0.0-5.0-2.0-1.57"	"8hg7bp"	"600"	"1366"	"chrome"	"109.0.0"	"FALSE"	"Windows 10"	"60"	"021"	n/a	n/a	n/a	n/a	n/a	n/a	"Trial"	n/a	n/a	n/a	"476"	"arrowup"	n/a	"NULL"	"NULL"	"NULL"	"stimuli/MullerLyer_-2.3000_0.14541.png"	n/a	"MullerLyer"	"arrowup"	"1308"	"TRUE"	"MullerLyer"	"-2.300000000"	"0.1454100000"	"1"	"76"
n/a	"html-keyboard-response"	"169"	"397127"	"0.0-5.0-2.0-0.58"	"8hg7bp"	"600"	"1366"	"chrome"	"109.0.0"	"FALSE"	"Windows 10"	"60"	"021"	n/a	n/a	n/a	n/a	n/a	n/a	"fixation"	n/a	n/a	n/a	n/a	"NULL"	n/a	"NULL"	"NULL"	"NULL"	"<p style=\"color: black; font-size: 80px; padding-left: 28%; padding-right: 15%; padding-top: 22%; padding-bottom: 0%\">+</p>"	"1018"	n/a	n/a	n/a	n/a	n/a	n/a	n/a	n/a	n/a
n/a	"image-keyboard-response"	"170"	"397582"	"0.0-5.0-2.0-1.58"	"8hg7bp"	"600"	"1366"	"chrome"	"109.0.0"	"FALSE"	"Windows 10"	"60"	"021"	n/a	n/a	n/a	n/a	n/a	n/a	"Trial"	n/a	n/a	n/a	"453"	"arrowdown"	n/a	"NULL"	"NULL"	"NULL"	"stimuli/MullerLyer_20.04286_0.14541.png"	n/a	"MullerLyer"	"arrowup"	"1033"	"FALSE"	"MullerLyer"	"20.042860000"	"0.1454100000"	"1"	"77"
n/a	"html-keyboard-response"	"171"	"399094"	"0.0-5.0-2.0-0.59"	"8hg7bp"	"600"	"1366"	"chrome"	"109.0.0"	"FALSE"	"Windows 10"	"60"	"021"	n/a	n/a	n/a	n/a	n/a	n/a	"fixation"	n/a	n/a	n/a	n/a	"NULL"	n/a	"NULL"	"NULL"	"NULL"	"<p style=\"color: black; font-size: 80px; padding-left: 5%; padding-right: 47%; padding-top: 12%; padding-bottom: 40%\">+</p>"	"1497"	n/a	n/a	n/a	n/a	n/a	n/a	n/a	n/a	n/a
n/a	"image-keyboard-response"	"172"	"399562"	"0.0-5.0-2.0-1.59"	"8hg7bp"	"600"	"1366"	"chrome"	"109.0.0"	"FALSE"	"Windows 10"	"60"	"021"	n/a	n/a	n/a	n/a	n/a	n/a	"Trial"	n/a	n/a	n/a	"466"	"arrowup"	n/a	"NULL"	"NULL"	"NULL"	"stimuli/MullerLyer_-8.21429_0.14541.png"	n/a	"MullerLyer"	"arrowup"	"1512"	"TRUE"	"MullerLyer"	"-8.214290000"	"0.1454100000"	"1"	"78"
n/a	"html-keyboard-response"	"173"	"400856"	"0.0-5.0-2.0-0.60"	"8hg7bp"	"600"	"1366"	"chrome"	"109.0.0"	"FALSE"	"Windows 10"	"60"	"021"	n/a	n/a	n/a	n/a	n/a	n/a	"fixation"	n/a	n/a	n/a	n/a	"NULL"	n/a	"NULL"	"NULL"	"NULL"	"<p style=\"color: black; font-size: 80px; padding-left: 9%; padding-right: 47%; padding-top: 16%; padding-bottom: 45%\">+</p>"	"1273"	n/a	n/a	n/a	n/a	n/a	n/a	n/a	n/a	n/a
n/a	"image-keyboard-response"	"174"	"401347"	"0.0-5.0-2.0-1.60"	"8hg7bp"	"600"	"1366"	"chrome"	"109.0.0"	"FALSE"	"Windows 10"	"60"	"021"	n/a	n/a	n/a	n/a	n/a	n/a	"Trial"	n/a	n/a	n/a	"491"	"arrowdown"	n/a	"NULL"	"NULL"	"NULL"	"stimuli/MullerLyer_2.30000_-0.07627.png"	n/a	"MullerLyer"	"arrowdown"	"1294"	"TRUE"	"MullerLyer"	"2.3000000000"	"-0.076270000"	"1"	"79"
n/a	"html-keyboard-response"	"175"	"402473"	"0.0-5.0-2.0-0.61"	"8hg7bp"	"600"	"1366"	"chrome"	"109.0.0"	"FALSE"	"Windows 10"	"60"	"021"	n/a	n/a	n/a	n/a	n/a	n/a	"fixation"	n/a	n/a	n/a	n/a	"NULL"	n/a	"NULL"	"NULL"	"NULL"	"<p style=\"color: black; font-size: 80px; padding-left: 34%; padding-right: 26%; padding-top: 11%; padding-bottom: 17%\">+</p>"	"1103"	n/a	n/a	n/a	n/a	n/a	n/a	n/a	n/a	n/a
n/a	"image-keyboard-response"	"176"	"403060"	"0.0-5.0-2.0-1.61"	"8hg7bp"	"600"	"1366"	"chrome"	"109.0.0"	"FALSE"	"Windows 10"	"60"	"021"	n/a	n/a	n/a	n/a	n/a	n/a	"Trial"	n/a	n/a	n/a	"587"	"arrowdown"	n/a	"NULL"	"NULL"	"NULL"	"stimuli/MullerLyer_-8.21429_-0.07627.png"	n/a	"MullerLyer"	"arrowdown"	"1126"	"TRUE"	"MullerLyer"	"-8.214290000"	"-0.076270000"	"1"	"80"
n/a	"html-keyboard-response"	"177"	"404460"	"0.0-5.0-2.0-0.62"	"8hg7bp"	"600"	"1366"	"chrome"	"109.0.0"	"FALSE"	"Windows 10"	"60"	"021"	n/a	n/a	n/a	n/a	n/a	n/a	"fixation"	n/a	n/a	n/a	n/a	"NULL"	n/a	"NULL"	"NULL"	"NULL"	"<p style=\"color: black; font-size: 80px; padding-left: 19%; padding-right: 8%; padding-top: 13%; padding-bottom: 23%\">+</p>"	"1393"	n/a	n/a	n/a	n/a	n/a	n/a	n/a	n/a	n/a
n/a	"image-keyboard-response"	"178"	"404892"	"0.0-5.0-2.0-1.62"	"8hg7bp"	"600"	"1366"	"chrome"	"109.0.0"	"FALSE"	"Windows 10"	"60"	"021"	n/a	n/a	n/a	n/a	n/a	n/a	"Trial"	n/a	n/a	n/a	"430"	"arrowup"	n/a	"NULL"	"NULL"	"NULL"	"stimuli/MullerLyer_-8.21429_0.35000.png"	n/a	"MullerLyer"	"arrowup"	"1400"	"TRUE"	"MullerLyer"	"-8.214290000"	"0.3500000000"	"1"	"81"
n/a	"html-keyboard-response"	"179"	"406153"	"0.0-5.0-2.0-0.63"	"8hg7bp"	"600"	"1366"	"chrome"	"109.0.0"	"FALSE"	"Windows 10"	"60"	"021"	n/a	n/a	n/a	n/a	n/a	n/a	"fixation"	n/a	n/a	n/a	n/a	"NULL"	n/a	"NULL"	"NULL"	"NULL"	"<p style=\"color: black; font-size: 80px; padding-left: 39%; padding-right: 8%; padding-top: 22%; padding-bottom: 35%\">+</p>"	"1242"	n/a	n/a	n/a	n/a	n/a	n/a	n/a	n/a	n/a
n/a	"image-keyboard-response"	"180"	"406623"	"0.0-5.0-2.0-1.63"	"8hg7bp"	"600"	"1366"	"chrome"	"109.0.0"	"FALSE"	"Windows 10"	"60"	"021"	n/a	n/a	n/a	n/a	n/a	n/a	"Trial"	n/a	n/a	n/a	"469"	"arrowdown"	n/a	"NULL"	"NULL"	"NULL"	"stimuli/MullerLyer_-14.12857_-0.3500.png"	n/a	"MullerLyer"	"arrowdown"	"1261"	"TRUE"	"MullerLyer"	"-14.12857000"	"-0.350000000"	"1"	"82"
n/a	"html-button-response"	"181"	"409381"	"0.0-5.0-3.0"	"8hg7bp"	"600"	"1366"	"chrome"	"109.0.0"	"FALSE"	"Windows 10"	"60"	"021"	n/a	n/a	n/a	n/a	n/a	n/a	"block_results"	n/a	n/a	n/a	"2753"	"0"	n/a	"NULL"	"NULL"	"NULL"	"<p>Your score for this illusion is <p style=\"color: black; font-size: 48px; font-weight: bold;\">80.3 %</p><hr><p>Can you do better in the next illusion?</p>"	n/a	n/a	n/a	n/a	n/a	n/a	n/a	n/a	n/a	n/a
"TRUE"	"preload"	"182"	"409461"	"0.0-6.0-0.0"	"8hg7bp"	"600"	"1366"	"chrome"	"109.0.0"	"FALSE"	"Windows 10"	"60"	"021"	n/a	n/a	n/a	n/a	n/a	n/a	n/a	n/a	n/a	n/a	n/a	"NULL"	"FALSE"	"list()"	"list()"	"list()"	n/a	n/a	n/a	n/a	n/a	n/a	n/a	n/a	n/a	n/a	n/a
n/a	"html-keyboard-response"	"183"	"431667"	"0.0-6.0-1.0"	"8hg7bp"	"600"	"1366"	"chrome"	"109.0.0"	"FALSE"	"Windows 10"	"60"	"021"	n/a	n/a	n/a	n/a	n/a	n/a	n/a	n/a	n/a	n/a	"22205"	"enter"	n/a	"NULL"	"NULL"	"NULL"	"<p><b>Part 2/6</b></p><p>In this part, two red circles will appear side by side on the screen.</p><p>Your task is to select which <b>red circle is bigger</b> in size as fast as you can, without making errors.</p><p>Don't get distracted by the surrounding black circles around the red circles!</p><p>Press <b>the LEFT or the RIGHT arrow</b> to indicate which is the bigger <b>red circle.</b></p><div style='float: center'><img src='materials/instructions/Ebbinghaus_Demo.png' height='300'></img><p><img src='utils/answer/answer_leftright_keyboard.PNG' height='150'></img></p><p class='small'>In this example, the correct answer is the <b>LEFT arrow</b>.</p></div><p>Are you ready? <b>Press ENTER to start</b></p>"	n/a	n/a	n/a	n/a	n/a	n/a	n/a	n/a	n/a	n/a
n/a	"html-keyboard-response"	"184"	"433295"	"0.0-6.0-2.0-0.0"	"8hg7bp"	"600"	"1366"	"chrome"	"109.0.0"	"FALSE"	"Windows 10"	"60"	"021"	n/a	n/a	n/a	n/a	n/a	n/a	"fixation"	n/a	n/a	n/a	n/a	"NULL"	n/a	"NULL"	"NULL"	"NULL"	"<p style=\"color: black; font-size: 80px; padding-left: 32%; padding-right: 9%; padding-top: 40%; padding-bottom: 18%\">+</p>"	"1101"	n/a	n/a	n/a	n/a	n/a	n/a	n/a	n/a	n/a
n/a	"image-keyboard-response"	"185"	"433807"	"0.0-6.0-2.0-1.0"	"8hg7bp"	"600"	"1366"	"chrome"	"109.0.0"	"FALSE"	"Windows 10"	"60"	"021"	n/a	n/a	n/a	n/a	n/a	n/a	"Trial"	n/a	n/a	n/a	"510"	"arrowleft"	n/a	"NULL"	"NULL"	"NULL"	"stimuli/Ebbinghaus_0.87143_0.28000.png"	n/a	"Ebbinghaus"	"arrowleft"	"1628"	"TRUE"	"Ebbinghaus"	"0.8714300000"	"0.2800000000"	"2"	"1"
n/a	"html-keyboard-response"	"186"	"435040"	"0.0-6.0-2.0-0.1"	"8hg7bp"	"600"	"1366"	"chrome"	"109.0.0"	"FALSE"	"Windows 10"	"60"	"021"	n/a	n/a	n/a	n/a	n/a	n/a	"fixation"	n/a	n/a	n/a	n/a	"NULL"	n/a	"NULL"	"NULL"	"NULL"	"<p style=\"color: black; font-size: 80px; padding-left: 39%; padding-right: 30%; padding-top: 44%; padding-bottom: 21%\">+</p>"	"1212"	n/a	n/a	n/a	n/a	n/a	n/a	n/a	n/a	n/a
n/a	"image-keyboard-response"	"187"	"435485"	"0.0-6.0-2.0-1.1"	"8hg7bp"	"600"	"1366"	"chrome"	"109.0.0"	"FALSE"	"Windows 10"	"60"	"021"	n/a	n/a	n/a	n/a	n/a	n/a	"Trial"	n/a	n/a	n/a	"444"	"arrowright"	n/a	"NULL"	"NULL"	"NULL"	"stimuli/Ebbinghaus_0.61429_-0.2150.png"	n/a	"Ebbinghaus"	"arrowright"	"1233"	"TRUE"	"Ebbinghaus"	"0.6142900000"	"-0.215000000"	"2"	"2"
n/a	"html-keyboard-response"	"188"	"436704"	"0.0-6.0-2.0-0.2"	"8hg7bp"	"600"	"1366"	"chrome"	"109.0.0"	"FALSE"	"Windows 10"	"60"	"021"	n/a	n/a	n/a	n/a	n/a	n/a	"fixation"	n/a	n/a	n/a	n/a	"NULL"	n/a	"NULL"	"NULL"	"NULL"	"<p style=\"color: black; font-size: 80px; padding-left: 9%; padding-right: 41%; padding-top: 44%; padding-bottom: 8%\">+</p>"	"1198"	n/a	n/a	n/a	n/a	n/a	n/a	n/a	n/a	n/a
n/a	"image-keyboard-response"	"189"	"437373"	"0.0-6.0-2.0-1.2"	"8hg7bp"	"600"	"1366"	"chrome"	"109.0.0"	"FALSE"	"Windows 10"	"60"	"021"	n/a	n/a	n/a	n/a	n/a	n/a	"Trial"	n/a	n/a	n/a	"668"	"arrowright"	n/a	"NULL"	"NULL"	"NULL"	"stimuli/Ebbinghaus_-0.87143_-0.15857.png"	n/a	"Ebbinghaus"	"arrowright"	"1219"	"TRUE"	"Ebbinghaus"	"-0.871430000"	"-0.158570000"	"2"	"3"
n/a	"html-keyboard-response"	"190"	"438462"	"0.0-6.0-2.0-0.3"	"8hg7bp"	"600"	"1366"	"chrome"	"109.0.0"	"FALSE"	"Windows 10"	"60"	"021"	n/a	n/a	n/a	n/a	n/a	n/a	"fixation"	n/a	n/a	n/a	n/a	"NULL"	n/a	"NULL"	"NULL"	"NULL"	"<p style=\"color: black; font-size: 80px; padding-left: 33%; padding-right: 1%; padding-top: 31%; padding-bottom: 38%\">+</p>"	"1085"	n/a	n/a	n/a	n/a	n/a	n/a	n/a	n/a	n/a
n/a	"image-keyboard-response"	"191"	"438984"	"0.0-6.0-2.0-1.3"	"8hg7bp"	"600"	"1366"	"chrome"	"109.0.0"	"FALSE"	"Windows 10"	"60"	"021"	n/a	n/a	n/a	n/a	n/a	n/a	"Trial"	n/a	n/a	n/a	"521"	"arrowleft"	n/a	"NULL"	"NULL"	"NULL"	"stimuli/Ebbinghaus_0.10000_0.15857.png"	n/a	"Ebbinghaus"	"arrowleft"	"1089"	"TRUE"	"Ebbinghaus"	"0.1000000000"	"0.1585700000"	"2"	"4"
n/a	"html-keyboard-response"	"192"	"440202"	"0.0-6.0-2.0-0.4"	"8hg7bp"	"600"	"1366"	"chrome"	"109.0.0"	"FALSE"	"Windows 10"	"60"	"021"	n/a	n/a	n/a	n/a	n/a	n/a	"fixation"	n/a	n/a	n/a	n/a	"NULL"	n/a	"NULL"	"NULL"	"NULL"	"<p style=\"color: black; font-size: 80px; padding-left: 14%; padding-right: 45%; padding-top: 6%; padding-bottom: 10%\">+</p>"	"1209"	n/a	n/a	n/a	n/a	n/a	n/a	n/a	n/a	n/a
n/a	"image-keyboard-response"	"193"	"440661"	"0.0-6.0-2.0-1.4"	"8hg7bp"	"600"	"1366"	"chrome"	"109.0.0"	"FALSE"	"Windows 10"	"60"	"021"	n/a	n/a	n/a	n/a	n/a	n/a	"Trial"	n/a	n/a	n/a	"458"	"arrowright"	n/a	"NULL"	"NULL"	"NULL"	"stimuli/Ebbinghaus_-0.35714_-0.2150.png"	n/a	"Ebbinghaus"	"arrowright"	"1218"	"TRUE"	"Ebbinghaus"	"-0.357140000"	"-0.215000000"	"2"	"5"
n/a	"html-keyboard-response"	"194"	"442164"	"0.0-6.0-2.0-0.5"	"8hg7bp"	"600"	"1366"	"chrome"	"109.0.0"	"FALSE"	"Windows 10"	"60"	"021"	n/a	n/a	n/a	n/a	n/a	n/a	"fixation"	n/a	n/a	n/a	n/a	"NULL"	n/a	"NULL"	"NULL"	"NULL"	"<p style=\"color: black; font-size: 80px; padding-left: 30%; padding-right: 48%; padding-top: 15%; padding-bottom: 49%\">+</p>"	"1498"	n/a	n/a	n/a	n/a	n/a	n/a	n/a	n/a	n/a
n/a	"image-keyboard-response"	"195"	"442851"	"0.0-6.0-2.0-1.5"	"8hg7bp"	"600"	"1366"	"chrome"	"109.0.0"	"FALSE"	"Windows 10"	"60"	"021"	n/a	n/a	n/a	n/a	n/a	n/a	"Trial"	n/a	n/a	n/a	"685"	"arrowleft"	n/a	"NULL"	"NULL"	"NULL"	"stimuli/Ebbinghaus_-0.61429_0.15857.png"	n/a	"Ebbinghaus"	"arrowleft"	"1503"	"TRUE"	"Ebbinghaus"	"-0.614290000"	"0.1585700000"	"2"	"6"
n/a	"html-keyboard-response"	"196"	"443993"	"0.0-6.0-2.0-0.6"	"8hg7bp"	"600"	"1366"	"chrome"	"109.0.0"	"FALSE"	"Windows 10"	"60"	"021"	n/a	n/a	n/a	n/a	n/a	n/a	"fixation"	n/a	n/a	n/a	n/a	"NULL"	n/a	"NULL"	"NULL"	"NULL"	"<p style=\"color: black; font-size: 80px; padding-left: 49%; padding-right: 45%; padding-top: 11%; padding-bottom: 44%\">+</p>"	"1123"	n/a	n/a	n/a	n/a	n/a	n/a	n/a	n/a	n/a
n/a	"image-keyboard-response"	"197"	"444446"	"0.0-6.0-2.0-1.6"	"8hg7bp"	"600"	"1366"	"chrome"	"109.0.0"	"FALSE"	"Windows 10"	"60"	"021"	n/a	n/a	n/a	n/a	n/a	n/a	"Trial"	n/a	n/a	n/a	"451"	"arrowright"	n/a	"NULL"	"NULL"	"NULL"	"stimuli/Ebbinghaus_-0.1000_-0.2800.png"	n/a	"Ebbinghaus"	"arrowright"	"1142"	"TRUE"	"Ebbinghaus"	"-0.100000000"	"-0.280000000"	"2"	"7"
n/a	"html-keyboard-response"	"198"	"445557"	"0.0-6.0-2.0-0.7"	"8hg7bp"	"600"	"1366"	"chrome"	"109.0.0"	"FALSE"	"Windows 10"	"60"	"021"	n/a	n/a	n/a	n/a	n/a	n/a	"fixation"	n/a	n/a	n/a	n/a	"NULL"	n/a	"NULL"	"NULL"	"NULL"	"<p style=\"color: black; font-size: 80px; padding-left: 17%; padding-right: 42%; padding-top: 31%; padding-bottom: 5%\">+</p>"	"1102"	n/a	n/a	n/a	n/a	n/a	n/a	n/a	n/a	n/a
n/a	"image-keyboard-response"	"199"	"446012"	"0.0-6.0-2.0-1.7"	"8hg7bp"	"600"	"1366"	"chrome"	"109.0.0"	"FALSE"	"Windows 10"	"60"	"021"	n/a	n/a	n/a	n/a	n/a	n/a	"Trial"	n/a	n/a	n/a	"453"	"arrowright"	n/a	"NULL"	"NULL"	"NULL"	"stimuli/Ebbinghaus_0.10000_-0.2800.png"	n/a	"Ebbinghaus"	"arrowright"	"1111"	"TRUE"	"Ebbinghaus"	"0.1000000000"	"-0.280000000"	"2"	"8"
n/a	"html-keyboard-response"	"200"	"447229"	"0.0-6.0-2.0-0.8"	"8hg7bp"	"600"	"1366"	"chrome"	"109.0.0"	"FALSE"	"Windows 10"	"60"	"021"	n/a	n/a	n/a	n/a	n/a	n/a	"fixation"	n/a	n/a	n/a	n/a	"NULL"	n/a	"NULL"	"NULL"	"NULL"	"<p style=\"color: black; font-size: 80px; padding-left: 39%; padding-right: 34%; padding-top: 26%; padding-bottom: 26%\">+</p>"	"1208"	n/a	n/a	n/a	n/a	n/a	n/a	n/a	n/a	n/a
n/a	"image-keyboard-response"	"201"	"447735"	"0.0-6.0-2.0-1.8"	"8hg7bp"	"600"	"1366"	"chrome"	"109.0.0"	"FALSE"	"Windows 10"	"60"	"021"	n/a	n/a	n/a	n/a	n/a	n/a	"Trial"	n/a	n/a	n/a	"501"	"arrowleft"	n/a	"NULL"	"NULL"	"NULL"	"stimuli/Ebbinghaus_0.35714_0.21500.png"	n/a	"Ebbinghaus"	"arrowleft"	"1217"	"TRUE"	"Ebbinghaus"	"0.3571400000"	"0.2150000000"	"2"	"9"
n/a	"html-keyboard-response"	"202"	"448810"	"0.0-6.0-2.0-0.9"	"8hg7bp"	"600"	"1366"	"chrome"	"109.0.0"	"FALSE"	"Windows 10"	"60"	"021"	n/a	n/a	n/a	n/a	n/a	n/a	"fixation"	n/a	n/a	n/a	n/a	"NULL"	n/a	"NULL"	"NULL"	"NULL"	"<p style=\"color: black; font-size: 80px; padding-left: 27%; padding-right: 43%; padding-top: 45%; padding-bottom: 9%\">+</p>"	"1059"	n/a	n/a	n/a	n/a	n/a	n/a	n/a	n/a	n/a
n/a	"image-keyboard-response"	"203"	"449280"	"0.0-6.0-2.0-1.9"	"8hg7bp"	"600"	"1366"	"chrome"	"109.0.0"	"FALSE"	"Windows 10"	"60"	"021"	n/a	n/a	n/a	n/a	n/a	n/a	"Trial"	n/a	n/a	n/a	"468"	"arrowright"	n/a	"NULL"	"NULL"	"NULL"	"stimuli/Ebbinghaus_-0.1000_-0.2150.png"	n/a	"Ebbinghaus"	"arrowright"	"1075"	"TRUE"	"Ebbinghaus"	"-0.100000000"	"-0.215000000"	"2"	"10"
n/a	"html-keyboard-response"	"204"	"450657"	"0.0-6.0-2.0-0.10"	"8hg7bp"	"600"	"1366"	"chrome"	"109.0.0"	"FALSE"	"Windows 10"	"60"	"021"	n/a	n/a	n/a	n/a	n/a	n/a	"fixation"	n/a	n/a	n/a	n/a	"NULL"	n/a	"NULL"	"NULL"	"NULL"	"<p style=\"color: black; font-size: 80px; padding-left: 17%; padding-right: 16%; padding-top: 26%; padding-bottom: 34%\">+</p>"	"1355"	n/a	n/a	n/a	n/a	n/a	n/a	n/a	n/a	n/a
n/a	"image-keyboard-response"	"205"	"452038"	"0.0-6.0-2.0-1.10"	"8hg7bp"	"600"	"1366"	"chrome"	"109.0.0"	"FALSE"	"Windows 10"	"60"	"021"	n/a	n/a	n/a	n/a	n/a	n/a	"Trial"	n/a	n/a	n/a	"1379"	"arrowright"	n/a	"NULL"	"NULL"	"NULL"	"stimuli/Ebbinghaus_-0.1000_-0.11071.png"	n/a	"Ebbinghaus"	"arrowright"	"1377"	"TRUE"	"Ebbinghaus"	"-0.100000000"	"-0.110710000"	"2"	"11"
n/a	"html-keyboard-response"	"206"	"453422"	"0.0-6.0-2.0-0.11"	"8hg7bp"	"600"	"1366"	"chrome"	"109.0.0"	"FALSE"	"Windows 10"	"60"	"021"	n/a	n/a	n/a	n/a	n/a	n/a	"fixation"	n/a	n/a	n/a	n/a	"NULL"	n/a	"NULL"	"NULL"	"NULL"	"<p style=\"color: black; font-size: 80px; padding-left: 5%; padding-right: 31%; padding-top: 23%; padding-bottom: 5%\">+</p>"	"1378"	n/a	n/a	n/a	n/a	n/a	n/a	n/a	n/a	n/a
n/a	"image-keyboard-response"	"207"	"454078"	"0.0-6.0-2.0-1.11"	"8hg7bp"	"600"	"1366"	"chrome"	"109.0.0"	"FALSE"	"Windows 10"	"60"	"021"	n/a	n/a	n/a	n/a	n/a	n/a	"Trial"	n/a	n/a	n/a	"655"	"arrowleft"	n/a	"NULL"	"NULL"	"NULL"	"stimuli/Ebbinghaus_-0.87143_0.15857.png"	n/a	"Ebbinghaus"	"arrowleft"	"1384"	"TRUE"	"Ebbinghaus"	"-0.871430000"	"0.1585700000"	"2"	"12"
n/a	"html-keyboard-response"	"208"	"455443"	"0.0-6.0-2.0-0.12"	"8hg7bp"	"600"	"1366"	"chrome"	"109.0.0"	"FALSE"	"Windows 10"	"60"	"021"	n/a	n/a	n/a	n/a	n/a	n/a	"fixation"	n/a	n/a	n/a	n/a	"NULL"	n/a	"NULL"	"NULL"	"NULL"	"<p style=\"color: black; font-size: 80px; padding-left: 37%; padding-right: 35%; padding-top: 49%; padding-bottom: 23%\">+</p>"	"1344"	n/a	n/a	n/a	n/a	n/a	n/a	n/a	n/a	n/a
n/a	"image-keyboard-response"	"209"	"455953"	"0.0-6.0-2.0-1.12"	"8hg7bp"	"600"	"1366"	"chrome"	"109.0.0"	"FALSE"	"Windows 10"	"60"	"021"	n/a	n/a	n/a	n/a	n/a	n/a	"Trial"	n/a	n/a	n/a	"508"	"arrowright"	n/a	"NULL"	"NULL"	"NULL"	"stimuli/Ebbinghaus_0.10000_-0.15857.png"	n/a	"Ebbinghaus"	"arrowright"	"1365"	"TRUE"	"Ebbinghaus"	"0.1000000000"	"-0.158570000"	"2"	"13"
n/a	"html-keyboard-response"	"210"	"456987"	"0.0-6.0-2.0-0.13"	"8hg7bp"	"600"	"1366"	"chrome"	"109.0.0"	"FALSE"	"Windows 10"	"60"	"021"	n/a	n/a	n/a	n/a	n/a	n/a	"fixation"	n/a	n/a	n/a	n/a	"NULL"	n/a	"NULL"	"NULL"	"NULL"	"<p style=\"color: black; font-size: 80px; padding-left: 27%; padding-right: 44%; padding-top: 30%; padding-bottom: 30%\">+</p>"	"1023"	n/a	n/a	n/a	n/a	n/a	n/a	n/a	n/a	n/a
n/a	"image-keyboard-response"	"211"	"457494"	"0.0-6.0-2.0-1.13"	"8hg7bp"	"600"	"1366"	"chrome"	"109.0.0"	"FALSE"	"Windows 10"	"60"	"021"	n/a	n/a	n/a	n/a	n/a	n/a	"Trial"	n/a	n/a	n/a	"506"	"arrowleft"	n/a	"NULL"	"NULL"	"NULL"	"stimuli/Ebbinghaus_-0.1000_0.28000.png"	n/a	"Ebbinghaus"	"arrowleft"	"1034"	"TRUE"	"Ebbinghaus"	"-0.100000000"	"0.2800000000"	"2"	"14"
n/a	"html-keyboard-response"	"212"	"458692"	"0.0-6.0-2.0-0.14"	"8hg7bp"	"600"	"1366"	"chrome"	"109.0.0"	"FALSE"	"Windows 10"	"60"	"021"	n/a	n/a	n/a	n/a	n/a	n/a	"fixation"	n/a	n/a	n/a	n/a	"NULL"	n/a	"NULL"	"NULL"	"NULL"	"<p style=\"color: black; font-size: 80px; padding-left: 36%; padding-right: 37%; padding-top: 12%; padding-bottom: 8%\">+</p>"	"1175"	n/a	n/a	n/a	n/a	n/a	n/a	n/a	n/a	n/a
n/a	"image-keyboard-response"	"213"	"459160"	"0.0-6.0-2.0-1.14"	"8hg7bp"	"600"	"1366"	"chrome"	"109.0.0"	"FALSE"	"Windows 10"	"60"	"021"	n/a	n/a	n/a	n/a	n/a	n/a	"Trial"	n/a	n/a	n/a	"467"	"arrowright"	n/a	"NULL"	"NULL"	"NULL"	"stimuli/Ebbinghaus_0.61429_-0.2800.png"	n/a	"Ebbinghaus"	"arrowright"	"1198"	"TRUE"	"Ebbinghaus"	"0.6142900000"	"-0.280000000"	"2"	"15"
n/a	"html-keyboard-response"	"214"	"460321"	"0.0-6.0-2.0-0.15"	"8hg7bp"	"600"	"1366"	"chrome"	"109.0.0"	"FALSE"	"Windows 10"	"60"	"021"	n/a	n/a	n/a	n/a	n/a	n/a	"fixation"	n/a	n/a	n/a	n/a	"NULL"	n/a	"NULL"	"NULL"	"NULL"	"<p style=\"color: black; font-size: 80px; padding-left: 8%; padding-right: 13%; padding-top: 10%; padding-bottom: 35%\">+</p>"	"1149"	n/a	n/a	n/a	n/a	n/a	n/a	n/a	n/a	n/a
n/a	"image-keyboard-response"	"215"	"460782"	"0.0-6.0-2.0-1.15"	"8hg7bp"	"600"	"1366"	"chrome"	"109.0.0"	"FALSE"	"Windows 10"	"60"	"021"	n/a	n/a	n/a	n/a	n/a	n/a	"Trial"	n/a	n/a	n/a	"459"	"arrowleft"	n/a	"NULL"	"NULL"	"NULL"	"stimuli/Ebbinghaus_-0.87143_0.21500.png"	n/a	"Ebbinghaus"	"arrowleft"	"1161"	"TRUE"	"Ebbinghaus"	"-0.871430000"	"0.2150000000"	"2"	"16"
n/a	"html-keyboard-response"	"216"	"461827"	"0.0-6.0-2.0-0.16"	"8hg7bp"	"600"	"1366"	"chrome"	"109.0.0"	"FALSE"	"Windows 10"	"60"	"021"	n/a	n/a	n/a	n/a	n/a	n/a	"fixation"	n/a	n/a	n/a	n/a	"NULL"	n/a	"NULL"	"NULL"	"NULL"	"<p style=\"color: black; font-size: 80px; padding-left: 36%; padding-right: 28%; padding-top: 42%; padding-bottom: 7%\">+</p>"	"1033"	n/a	n/a	n/a	n/a	n/a	n/a	n/a	n/a	n/a
n/a	"image-keyboard-response"	"217"	"462289"	"0.0-6.0-2.0-1.16"	"8hg7bp"	"600"	"1366"	"chrome"	"109.0.0"	"FALSE"	"Windows 10"	"60"	"021"	n/a	n/a	n/a	n/a	n/a	n/a	"Trial"	n/a	n/a	n/a	"460"	"arrowleft"	n/a	"NULL"	"NULL"	"NULL"	"stimuli/Ebbinghaus_-0.61429_-0.15857.png"	n/a	"Ebbinghaus"	"arrowright"	"1045"	"FALSE"	"Ebbinghaus"	"-0.614290000"	"-0.158570000"	"2"	"17"
n/a	"html-keyboard-response"	"218"	"463767"	"0.0-6.0-2.0-0.17"	"8hg7bp"	"600"	"1366"	"chrome"	"109.0.0"	"FALSE"	"Windows 10"	"60"	"021"	n/a	n/a	n/a	n/a	n/a	n/a	"fixation"	n/a	n/a	n/a	n/a	"NULL"	n/a	"NULL"	"NULL"	"NULL"	"<p style=\"color: black; font-size: 80px; padding-left: 31%; padding-right: 17%; padding-top: 18%; padding-bottom: 3%\">+</p>"	"1459"	n/a	n/a	n/a	n/a	n/a	n/a	n/a	n/a	n/a
n/a	"image-keyboard-response"	"219"	"465022"	"0.0-6.0-2.0-1.17"	"8hg7bp"	"600"	"1366"	"chrome"	"109.0.0"	"FALSE"	"Windows 10"	"60"	"021"	n/a	n/a	n/a	n/a	n/a	n/a	"Trial"	n/a	n/a	n/a	"1253"	"arrowright"	n/a	"NULL"	"NULL"	"NULL"	"stimuli/Ebbinghaus_0.10000_-0.11071.png"	n/a	"Ebbinghaus"	"arrowright"	"1478"	"TRUE"	"Ebbinghaus"	"0.1000000000"	"-0.110710000"	"2"	"18"
n/a	"html-keyboard-response"	"220"	"466365"	"0.0-6.0-2.0-0.18"	"8hg7bp"	"600"	"1366"	"chrome"	"109.0.0"	"FALSE"	"Windows 10"	"60"	"021"	n/a	n/a	n/a	n/a	n/a	n/a	"fixation"	n/a	n/a	n/a	n/a	"NULL"	n/a	"NULL"	"NULL"	"NULL"	"<p style=\"color: black; font-size: 80px; padding-left: 32%; padding-right: 4%; padding-top: 15%; padding-bottom: 32%\">+</p>"	"1325"	n/a	n/a	n/a	n/a	n/a	n/a	n/a	n/a	n/a
n/a	"image-keyboard-response"	"221"	"467013"	"0.0-6.0-2.0-1.18"	"8hg7bp"	"600"	"1366"	"chrome"	"109.0.0"	"FALSE"	"Windows 10"	"60"	"021"	n/a	n/a	n/a	n/a	n/a	n/a	"Trial"	n/a	n/a	n/a	"646"	"arrowright"	n/a	"NULL"	"NULL"	"NULL"	"stimuli/Ebbinghaus_-0.87143_-0.2800.png"	n/a	"Ebbinghaus"	"arrowright"	"1343"	"TRUE"	"Ebbinghaus"	"-0.871430000"	"-0.280000000"	"2"	"19"
n/a	"html-keyboard-response"	"222"	"468105"	"0.0-6.0-2.0-0.19"	"8hg7bp"	"600"	"1366"	"chrome"	"109.0.0"	"FALSE"	"Windows 10"	"60"	"021"	n/a	n/a	n/a	n/a	n/a	n/a	"fixation"	n/a	n/a	n/a	n/a	"NULL"	n/a	"NULL"	"NULL"	"NULL"	"<p style=\"color: black; font-size: 80px; padding-left: 14%; padding-right: 7%; padding-top: 22%; padding-bottom: 26%\">+</p>"	"1083"	n/a	n/a	n/a	n/a	n/a	n/a	n/a	n/a	n/a
n/a	"image-keyboard-response"	"223"	"468741"	"0.0-6.0-2.0-1.19"	"8hg7bp"	"600"	"1366"	"chrome"	"109.0.0"	"FALSE"	"Windows 10"	"60"	"021"	n/a	n/a	n/a	n/a	n/a	n/a	"Trial"	n/a	n/a	n/a	"635"	"arrowright"	n/a	"NULL"	"NULL"	"NULL"	"stimuli/Ebbinghaus_-0.87143_-0.11071.png"	n/a	"Ebbinghaus"	"arrowright"	"1092"	"TRUE"	"Ebbinghaus"	"-0.871430000"	"-0.110710000"	"2"	"20"
n/a	"html-keyboard-response"	"224"	"470106"	"0.0-6.0-2.0-0.20"	"8hg7bp"	"600"	"1366"	"chrome"	"109.0.0"	"FALSE"	"Windows 10"	"60"	"021"	n/a	n/a	n/a	n/a	n/a	n/a	"fixation"	n/a	n/a	n/a	n/a	"NULL"	n/a	"NULL"	"NULL"	"NULL"	"<p style=\"color: black; font-size: 80px; padding-left: 36%; padding-right: 33%; padding-top: 40%; padding-bottom: 47%\">+</p>"	"1350"	n/a	n/a	n/a	n/a	n/a	n/a	n/a	n/a	n/a
n/a	"image-keyboard-response"	"225"	"470672"	"0.0-6.0-2.0-1.20"	"8hg7bp"	"600"	"1366"	"chrome"	"109.0.0"	"FALSE"	"Windows 10"	"60"	"021"	n/a	n/a	n/a	n/a	n/a	n/a	"Trial"	n/a	n/a	n/a	"564"	"arrowleft"	n/a	"NULL"	"NULL"	"NULL"	"stimuli/Ebbinghaus_0.87143_-0.11071.png"	n/a	"Ebbinghaus"	"arrowright"	"1365"	"FALSE"	"Ebbinghaus"	"0.8714300000"	"-0.110710000"	"2"	"21"
n/a	"html-keyboard-response"	"226"	"471753"	"0.0-6.0-2.0-0.21"	"8hg7bp"	"600"	"1366"	"chrome"	"109.0.0"	"FALSE"	"Windows 10"	"60"	"021"	n/a	n/a	n/a	n/a	n/a	n/a	"fixation"	n/a	n/a	n/a	n/a	"NULL"	n/a	"NULL"	"NULL"	"NULL"	"<p style=\"color: black; font-size: 80px; padding-left: 47%; padding-right: 37%; padding-top: 48%; padding-bottom: 33%\">+</p>"	"1074"	n/a	n/a	n/a	n/a	n/a	n/a	n/a	n/a	n/a
n/a	"image-keyboard-response"	"227"	"472197"	"0.0-6.0-2.0-1.21"	"8hg7bp"	"600"	"1366"	"chrome"	"109.0.0"	"FALSE"	"Windows 10"	"60"	"021"	n/a	n/a	n/a	n/a	n/a	n/a	"Trial"	n/a	n/a	n/a	"442"	"arrowleft"	n/a	"NULL"	"NULL"	"NULL"	"stimuli/Ebbinghaus_0.87143_0.21500.png"	n/a	"Ebbinghaus"	"arrowleft"	"1081"	"TRUE"	"Ebbinghaus"	"0.8714300000"	"0.2150000000"	"2"	"22"
n/a	"html-keyboard-response"	"228"	"473415"	"0.0-6.0-2.0-0.22"	"8hg7bp"	"600"	"1366"	"chrome"	"109.0.0"	"FALSE"	"Windows 10"	"60"	"021"	n/a	n/a	n/a	n/a	n/a	n/a	"fixation"	n/a	n/a	n/a	n/a	"NULL"	n/a	"NULL"	"NULL"	"NULL"	"<p style=\"color: black; font-size: 80px; padding-left: 2%; padding-right: 32%; padding-top: 44%; padding-bottom: 45%\">+</p>"	"1206"	n/a	n/a	n/a	n/a	n/a	n/a	n/a	n/a	n/a
n/a	"image-keyboard-response"	"229"	"473886"	"0.0-6.0-2.0-1.22"	"8hg7bp"	"600"	"1366"	"chrome"	"109.0.0"	"FALSE"	"Windows 10"	"60"	"021"	n/a	n/a	n/a	n/a	n/a	n/a	"Trial"	n/a	n/a	n/a	"469"	"arrowleft"	n/a	"NULL"	"NULL"	"NULL"	"stimuli/Ebbinghaus_0.61429_0.21500.png"	n/a	"Ebbinghaus"	"arrowleft"	"1218"	"TRUE"	"Ebbinghaus"	"0.6142900000"	"0.2150000000"	"2"	"23"
n/a	"html-keyboard-response"	"230"	"475218"	"0.0-6.0-2.0-0.23"	"8hg7bp"	"600"	"1366"	"chrome"	"109.0.0"	"FALSE"	"Windows 10"	"60"	"021"	n/a	n/a	n/a	n/a	n/a	n/a	"fixation"	n/a	n/a	n/a	n/a	"NULL"	n/a	"NULL"	"NULL"	"NULL"	"<p style=\"color: black; font-size: 80px; padding-left: 9%; padding-right: 30%; padding-top: 41%; padding-bottom: 44%\">+</p>"	"1323"	n/a	n/a	n/a	n/a	n/a	n/a	n/a	n/a	n/a
n/a	"image-keyboard-response"	"231"	"475722"	"0.0-6.0-2.0-1.23"	"8hg7bp"	"600"	"1366"	"chrome"	"109.0.0"	"FALSE"	"Windows 10"	"60"	"021"	n/a	n/a	n/a	n/a	n/a	n/a	"Trial"	n/a	n/a	n/a	"503"	"arrowright"	n/a	"NULL"	"NULL"	"NULL"	"stimuli/Ebbinghaus_0.10000_-0.2150.png"	n/a	"Ebbinghaus"	"arrowright"	"1332"	"TRUE"	"Ebbinghaus"	"0.1000000000"	"-0.215000000"	"2"	"24"
n/a	"html-keyboard-response"	"232"	"477063"	"0.0-6.0-2.0-0.24"	"8hg7bp"	"600"	"1366"	"chrome"	"109.0.0"	"FALSE"	"Windows 10"	"60"	"021"	n/a	n/a	n/a	n/a	n/a	n/a	"fixation"	n/a	n/a	n/a	n/a	"NULL"	n/a	"NULL"	"NULL"	"NULL"	"<p style=\"color: black; font-size: 80px; padding-left: 17%; padding-right: 25%; padding-top: 28%; padding-bottom: 17%\">+</p>"	"1323"	n/a	n/a	n/a	n/a	n/a	n/a	n/a	n/a	n/a
n/a	"image-keyboard-response"	"233"	"477471"	"0.0-6.0-2.0-1.24"	"8hg7bp"	"600"	"1366"	"chrome"	"109.0.0"	"FALSE"	"Windows 10"	"60"	"021"	n/a	n/a	n/a	n/a	n/a	n/a	"Trial"	n/a	n/a	n/a	"406"	"arrowright"	n/a	"NULL"	"NULL"	"NULL"	"stimuli/Ebbinghaus_-0.61429_0.28000.png"	n/a	"Ebbinghaus"	"arrowleft"	"1341"	"FALSE"	"Ebbinghaus"	"-0.614290000"	"0.2800000000"	"2"	"25"
n/a	"html-keyboard-response"	"234"	"478497"	"0.0-6.0-2.0-0.25"	"8hg7bp"	"600"	"1366"	"chrome"	"109.0.0"	"FALSE"	"Windows 10"	"60"	"021"	n/a	n/a	n/a	n/a	n/a	n/a	"fixation"	n/a	n/a	n/a	n/a	"NULL"	n/a	"NULL"	"NULL"	"NULL"	"<p style=\"color: black; font-size: 80px; padding-left: 42%; padding-right: 42%; padding-top: 3%; padding-bottom: 25%\">+</p>"	"1019"	n/a	n/a	n/a	n/a	n/a	n/a	n/a	n/a	n/a
n/a	"image-keyboard-response"	"235"	"479475"	"0.0-6.0-2.0-1.25"	"8hg7bp"	"600"	"1366"	"chrome"	"109.0.0"	"FALSE"	"Windows 10"	"60"	"021"	n/a	n/a	n/a	n/a	n/a	n/a	"Trial"	n/a	n/a	n/a	"977"	"arrowleft"	n/a	"NULL"	"NULL"	"NULL"	"stimuli/Ebbinghaus_0.61429_0.11071.png"	n/a	"Ebbinghaus"	"arrowleft"	"1026"	"TRUE"	"Ebbinghaus"	"0.6142900000"	"0.1107100000"	"2"	"26"
n/a	"html-keyboard-response"	"236"	"480959"	"0.0-6.0-2.0-0.26"	"8hg7bp"	"600"	"1366"	"chrome"	"109.0.0"	"FALSE"	"Windows 10"	"60"	"021"	n/a	n/a	n/a	n/a	n/a	n/a	"fixation"	n/a	n/a	n/a	n/a	"NULL"	n/a	"NULL"	"NULL"	"NULL"	"<p style=\"color: black; font-size: 80px; padding-left: 30%; padding-right: 11%; padding-top: 20%; padding-bottom: 34%\">+</p>"	"1463"	n/a	n/a	n/a	n/a	n/a	n/a	n/a	n/a	n/a
n/a	"image-keyboard-response"	"237"	"481515"	"0.0-6.0-2.0-1.26"	"8hg7bp"	"600"	"1366"	"chrome"	"109.0.0"	"FALSE"	"Windows 10"	"60"	"021"	n/a	n/a	n/a	n/a	n/a	n/a	"Trial"	n/a	n/a	n/a	"554"	"arrowright"	n/a	"NULL"	"NULL"	"NULL"	"stimuli/Ebbinghaus_-0.87143_-0.2150.png"	n/a	"Ebbinghaus"	"arrowright"	"1484"	"TRUE"	"Ebbinghaus"	"-0.871430000"	"-0.215000000"	"2"	"27"
n/a	"html-keyboard-response"	"238"	"482744"	"0.0-6.0-2.0-0.27"	"8hg7bp"	"600"	"1366"	"chrome"	"109.0.0"	"FALSE"	"Windows 10"	"60"	"021"	n/a	n/a	n/a	n/a	n/a	n/a	"fixation"	n/a	n/a	n/a	n/a	"NULL"	n/a	"NULL"	"NULL"	"NULL"	"<p style=\"color: black; font-size: 80px; padding-left: 35%; padding-right: 41%; padding-top: 9%; padding-bottom: 43%\">+</p>"	"1209"	n/a	n/a	n/a	n/a	n/a	n/a	n/a	n/a	n/a
n/a	"image-keyboard-response"	"239"	"483189"	"0.0-6.0-2.0-1.27"	"8hg7bp"	"600"	"1366"	"chrome"	"109.0.0"	"FALSE"	"Windows 10"	"60"	"021"	n/a	n/a	n/a	n/a	n/a	n/a	"Trial"	n/a	n/a	n/a	"444"	"arrowleft"	n/a	"NULL"	"NULL"	"NULL"	"stimuli/Ebbinghaus_-0.35714_0.28000.png"	n/a	"Ebbinghaus"	"arrowleft"	"1229"	"TRUE"	"Ebbinghaus"	"-0.357140000"	"0.2800000000"	"2"	"28"
n/a	"html-keyboard-response"	"240"	"484486"	"0.0-6.0-2.0-0.28"	"8hg7bp"	"600"	"1366"	"chrome"	"109.0.0"	"FALSE"	"Windows 10"	"60"	"021"	n/a	n/a	n/a	n/a	n/a	n/a	"fixation"	n/a	n/a	n/a	n/a	"NULL"	n/a	"NULL"	"NULL"	"NULL"	"<p style=\"color: black; font-size: 80px; padding-left: 31%; padding-right: 22%; padding-top: 29%; padding-bottom: 8%\">+</p>"	"1279"	n/a	n/a	n/a	n/a	n/a	n/a	n/a	n/a	n/a
n/a	"image-keyboard-response"	"241"	"484981"	"0.0-6.0-2.0-1.28"	"8hg7bp"	"600"	"1366"	"chrome"	"109.0.0"	"FALSE"	"Windows 10"	"60"	"021"	n/a	n/a	n/a	n/a	n/a	n/a	"Trial"	n/a	n/a	n/a	"493"	"arrowleft"	n/a	"NULL"	"NULL"	"NULL"	"stimuli/Ebbinghaus_-0.1000_-0.15857.png"	n/a	"Ebbinghaus"	"arrowright"	"1297"	"FALSE"	"Ebbinghaus"	"-0.100000000"	"-0.158570000"	"2"	"29"
n/a	"html-keyboard-response"	"242"	"486139"	"0.0-6.0-2.0-0.29"	"8hg7bp"	"600"	"1366"	"chrome"	"109.0.0"	"FALSE"	"Windows 10"	"60"	"021"	n/a	n/a	n/a	n/a	n/a	n/a	"fixation"	n/a	n/a	n/a	n/a	"NULL"	n/a	"NULL"	"NULL"	"NULL"	"<p style=\"color: black; font-size: 80px; padding-left: 10%; padding-right: 28%; padding-top: 24%; padding-bottom: 38%\">+</p>"	"1134"	n/a	n/a	n/a	n/a	n/a	n/a	n/a	n/a	n/a
n/a	"image-keyboard-response"	"243"	"486637"	"0.0-6.0-2.0-1.29"	"8hg7bp"	"600"	"1366"	"chrome"	"109.0.0"	"FALSE"	"Windows 10"	"60"	"021"	n/a	n/a	n/a	n/a	n/a	n/a	"Trial"	n/a	n/a	n/a	"497"	"arrowleft"	n/a	"NULL"	"NULL"	"NULL"	"stimuli/Ebbinghaus_0.10000_0.11071.png"	n/a	"Ebbinghaus"	"arrowleft"	"1158"	"TRUE"	"Ebbinghaus"	"0.1000000000"	"0.1107100000"	"2"	"30"
n/a	"html-keyboard-response"	"244"	"487814"	"0.0-6.0-2.0-0.30"	"8hg7bp"	"600"	"1366"	"chrome"	"109.0.0"	"FALSE"	"Windows 10"	"60"	"021"	n/a	n/a	n/a	n/a	n/a	n/a	"fixation"	n/a	n/a	n/a	n/a	"NULL"	n/a	"NULL"	"NULL"	"NULL"	"<p style=\"color: black; font-size: 80px; padding-left: 7%; padding-right: 8%; padding-top: 35%; padding-bottom: 28%\">+</p>"	"1167"	n/a	n/a	n/a	n/a	n/a	n/a	n/a	n/a	n/a
n/a	"image-keyboard-response"	"245"	"488389"	"0.0-6.0-2.0-1.30"	"8hg7bp"	"600"	"1366"	"chrome"	"109.0.0"	"FALSE"	"Windows 10"	"60"	"021"	n/a	n/a	n/a	n/a	n/a	n/a	"Trial"	n/a	n/a	n/a	"573"	"arrowleft"	n/a	"NULL"	"NULL"	"NULL"	"stimuli/Ebbinghaus_-0.35714_0.15857.png"	n/a	"Ebbinghaus"	"arrowleft"	"1177"	"TRUE"	"Ebbinghaus"	"-0.357140000"	"0.1585700000"	"2"	"31"
n/a	"html-keyboard-response"	"246"	"489647"	"0.0-6.0-2.0-0.31"	"8hg7bp"	"600"	"1366"	"chrome"	"109.0.0"	"FALSE"	"Windows 10"	"60"	"021"	n/a	n/a	n/a	n/a	n/a	n/a	"fixation"	n/a	n/a	n/a	n/a	"NULL"	n/a	"NULL"	"NULL"	"NULL"	"<p style=\"color: black; font-size: 80px; padding-left: 50%; padding-right: 13%; padding-top: 3%; padding-bottom: 37%\">+</p>"	"1244"	n/a	n/a	n/a	n/a	n/a	n/a	n/a	n/a	n/a
n/a	"image-keyboard-response"	"247"	"490168"	"0.0-6.0-2.0-1.31"	"8hg7bp"	"600"	"1366"	"chrome"	"109.0.0"	"FALSE"	"Windows 10"	"60"	"021"	n/a	n/a	n/a	n/a	n/a	n/a	"Trial"	n/a	n/a	n/a	"520"	"arrowleft"	n/a	"NULL"	"NULL"	"NULL"	"stimuli/Ebbinghaus_0.10000_0.21500.png"	n/a	"Ebbinghaus"	"arrowleft"	"1258"	"TRUE"	"Ebbinghaus"	"0.1000000000"	"0.2150000000"	"2"	"32"
n/a	"html-keyboard-response"	"248"	"491270"	"0.0-6.0-2.0-0.32"	"8hg7bp"	"600"	"1366"	"chrome"	"109.0.0"	"FALSE"	"Windows 10"	"60"	"021"	n/a	n/a	n/a	n/a	n/a	n/a	"fixation"	n/a	n/a	n/a	n/a	"NULL"	n/a	"NULL"	"NULL"	"NULL"	"<p style=\"color: black; font-size: 80px; padding-left: 49%; padding-right: 50%; padding-top: 7%; padding-bottom: 21%\">+</p>"	"1088"	n/a	n/a	n/a	n/a	n/a	n/a	n/a	n/a	n/a
n/a	"image-keyboard-response"	"249"	"491706"	"0.0-6.0-2.0-1.32"	"8hg7bp"	"600"	"1366"	"chrome"	"109.0.0"	"FALSE"	"Windows 10"	"60"	"021"	n/a	n/a	n/a	n/a	n/a	n/a	"Trial"	n/a	n/a	n/a	"434"	"arrowright"	n/a	"NULL"	"NULL"	"NULL"	"stimuli/Ebbinghaus_0.87143_-0.2800.png"	n/a	"Ebbinghaus"	"arrowright"	"1102"	"TRUE"	"Ebbinghaus"	"0.8714300000"	"-0.280000000"	"2"	"33"
n/a	"html-keyboard-response"	"250"	"493115"	"0.0-6.0-2.0-0.33"	"8hg7bp"	"600"	"1366"	"chrome"	"109.0.0"	"FALSE"	"Windows 10"	"60"	"021"	n/a	n/a	n/a	n/a	n/a	n/a	"fixation"	n/a	n/a	n/a	n/a	"NULL"	n/a	"NULL"	"NULL"	"NULL"	"<p style=\"color: black; font-size: 80px; padding-left: 39%; padding-right: 32%; padding-top: 39%; padding-bottom: 27%\">+</p>"	"1397"	n/a	n/a	n/a	n/a	n/a	n/a	n/a	n/a	n/a
n/a	"image-keyboard-response"	"251"	"493581"	"0.0-6.0-2.0-1.33"	"8hg7bp"	"600"	"1366"	"chrome"	"109.0.0"	"FALSE"	"Windows 10"	"60"	"021"	n/a	n/a	n/a	n/a	n/a	n/a	"Trial"	n/a	n/a	n/a	"465"	"arrowleft"	n/a	"NULL"	"NULL"	"NULL"	"stimuli/Ebbinghaus_0.87143_0.15857.png"	n/a	"Ebbinghaus"	"arrowleft"	"1409"	"TRUE"	"Ebbinghaus"	"0.8714300000"	"0.1585700000"	"2"	"34"
n/a	"html-keyboard-response"	"252"	"495023"	"0.0-6.0-2.0-0.34"	"8hg7bp"	"600"	"1366"	"chrome"	"109.0.0"	"FALSE"	"Windows 10"	"60"	"021"	n/a	n/a	n/a	n/a	n/a	n/a	"fixation"	n/a	n/a	n/a	n/a	"NULL"	n/a	"NULL"	"NULL"	"NULL"	"<p style=\"color: black; font-size: 80px; padding-left: 48%; padding-right: 6%; padding-top: 44%; padding-bottom: 16%\">+</p>"	"1426"	n/a	n/a	n/a	n/a	n/a	n/a	n/a	n/a	n/a
n/a	"image-keyboard-response"	"253"	"495587"	"0.0-6.0-2.0-1.34"	"8hg7bp"	"600"	"1366"	"chrome"	"109.0.0"	"FALSE"	"Windows 10"	"60"	"021"	n/a	n/a	n/a	n/a	n/a	n/a	"Trial"	n/a	n/a	n/a	"562"	"arrowright"	n/a	"NULL"	"NULL"	"NULL"	"stimuli/Ebbinghaus_-0.35714_-0.2800.png"	n/a	"Ebbinghaus"	"arrowright"	"1442"	"TRUE"	"Ebbinghaus"	"-0.357140000"	"-0.280000000"	"2"	"35"
n/a	"html-keyboard-response"	"254"	"496740"	"0.0-6.0-2.0-0.35"	"8hg7bp"	"600"	"1366"	"chrome"	"109.0.0"	"FALSE"	"Windows 10"	"60"	"021"	n/a	n/a	n/a	n/a	n/a	n/a	"fixation"	n/a	n/a	n/a	n/a	"NULL"	n/a	"NULL"	"NULL"	"NULL"	"<p style=\"color: black; font-size: 80px; padding-left: 1%; padding-right: 4%; padding-top: 22%; padding-bottom: 48%\">+</p>"	"1148"	n/a	n/a	n/a	n/a	n/a	n/a	n/a	n/a	n/a
n/a	"image-keyboard-response"	"255"	"497424"	"0.0-6.0-2.0-1.35"	"8hg7bp"	"600"	"1366"	"chrome"	"109.0.0"	"FALSE"	"Windows 10"	"60"	"021"	n/a	n/a	n/a	n/a	n/a	n/a	"Trial"	n/a	n/a	n/a	"682"	"arrowleft"	n/a	"NULL"	"NULL"	"NULL"	"stimuli/Ebbinghaus_0.35714_0.15857.png"	n/a	"Ebbinghaus"	"arrowleft"	"1153"	"TRUE"	"Ebbinghaus"	"0.3571400000"	"0.1585700000"	"2"	"36"
