"success"	"trial_type"	"trial_index"	"time_elapsed"	"internal_node_id"	"participant_id"	"screen_height"	"screen_width"	"browser"	"browser_version"	"mobile"	"os"	"vsync_rate"	"subject_id"	"width"	"height"	"webaudio"	"fullscreen"	"webcam"	"microphone"	"screen"	"version"	"date"	"time"	"rt"	"response"	"timeout"	"failed_images"	"failed_audio"	"failed_video"	"stimulus"	"trial_duration"	"block"	"correct_response"	"prestimulus_duration"	"correct"	"type"	"illusion_strength"	"illusion_difference"	"block_number"	"trial_number"
"TRUE"	"fullscreen"	"0"	"1502"	"0.0-0.0"	"qprclq"	"711"	"1366"	"chrome"	"109.0.0"	"FALSE"	"Windows 10"	"60.98"	"016"	n/a	n/a	n/a	n/a	n/a	n/a	n/a	n/a	n/a	n/a	n/a	"NULL"	n/a	"NULL"	"NULL"	"NULL"	n/a	n/a	n/a	n/a	n/a	n/a	n/a	n/a	n/a	n/a	n/a
n/a	"browser-check"	"1"	"2496"	"0.0-1.0"	"qprclq"	"711"	"1366"	"chrome"	"109.0.0"	"FALSE"	"Windows 10"	"60.98"	"016"	"1366"	"711"	"TRUE"	"TRUE"	"TRUE"	"TRUE"	"browser_info"	"1.0"	"11/02/2023"	"12:48:42"	n/a	"NULL"	n/a	"NULL"	"NULL"	"NULL"	n/a	n/a	n/a	n/a	n/a	n/a	n/a	n/a	n/a	n/a	n/a
n/a	"survey-text"	"2"	"7119"	"0.0-2.0"	"qprclq"	"711"	"1366"	"chrome"	"109.0.0"	"FALSE"	"Windows 10"	"60.98"	"016"	n/a	n/a	n/a	n/a	n/a	n/a	"subject_id"	n/a	n/a	n/a	"4618"	"list(subject_id = \"016\")"	n/a	"NULL"	"NULL"	"NULL"	n/a	n/a	n/a	n/a	n/a	n/a	n/a	n/a	n/a	n/a	n/a
"TRUE"	"preload"	"3"	"7150"	"0.0-3.0"	"qprclq"	"711"	"1366"	"chrome"	"109.0.0"	"FALSE"	"Windows 10"	"60.98"	"016"	n/a	n/a	n/a	n/a	n/a	n/a	n/a	n/a	n/a	n/a	n/a	"NULL"	"FALSE"	"list()"	"list()"	"list()"	n/a	n/a	n/a	n/a	n/a	n/a	n/a	n/a	n/a	n/a	n/a
n/a	"html-button-response"	"4"	"67035"	"0.0-4.0-0.0"	"qprclq"	"711"	"1366"	"chrome"	"109.0.0"	"FALSE"	"Windows 10"	"60.98"	"016"	n/a	n/a	n/a	n/a	n/a	n/a	"illusion_instructions"	n/a	n/a	n/a	"59883"	"0"	n/a	"NULL"	"NULL"	"NULL"	"<p><b>Illusion Game</b></p><p>In this game of speed and reflex, you will need to make <b>visual judgments</b> (for instance, which circle is the biggest, or which line is the longest), as fast and as correctly as possible, while <b>resisting different visual illusions</b>.</p><p>We are going to start with some examples of all the illusions you will encounter in the game.</p>"	n/a	n/a	n/a	n/a	n/a	n/a	n/a	n/a	n/a	n/a
"TRUE"	"preload"	"5"	"67064"	"0.0-4.0-1.0-0.0"	"qprclq"	"711"	"1366"	"chrome"	"109.0.0"	"FALSE"	"Windows 10"	"60.98"	"016"	n/a	n/a	n/a	n/a	n/a	n/a	n/a	n/a	n/a	n/a	n/a	"NULL"	"FALSE"	"list()"	"list()"	"list()"	n/a	n/a	n/a	n/a	n/a	n/a	n/a	n/a	n/a	n/a	n/a
n/a	"html-keyboard-response"	"6"	"94705"	"0.0-4.0-1.0-1.0"	"qprclq"	"711"	"1366"	"chrome"	"109.0.0"	"FALSE"	"Windows 10"	"60.98"	"016"	n/a	n/a	n/a	n/a	n/a	n/a	n/a	n/a	n/a	n/a	"27638"	"enter"	n/a	"NULL"	"NULL"	"NULL"	"<p><b>Practice</b></p><p>In this part, two red circles will appear side by side on the screen.</p><p>Your task is to select which <b>red circle is bigger</b> in size as fast as you can, without making errors.</p><p>Don't get distracted by the surrounding black circles around the red circles!</p><p>Press <b>the LEFT or the RIGHT arrow</b> to indicate which is the bigger <b>red circle.</b></p><div style='float: center'><img src='materials/instructions/Ebbinghaus_Demo.png' height='300'></img><p><img src='utils/answer/answer_leftright_keyboard.PNG' height='150'></img></p><p class='small'>In this example, the correct answer is the <b>LEFT arrow</b>.</p></div><p>Are you ready? <b>Press ENTER to start</b></p>"	n/a	n/a	n/a	n/a	n/a	n/a	n/a	n/a	n/a	n/a
n/a	"html-keyboard-response"	"7"	"96250"	"0.0-4.0-1.0-2.0-0.0"	"qprclq"	"711"	"1366"	"chrome"	"109.0.0"	"FALSE"	"Windows 10"	"60.98"	"016"	n/a	n/a	n/a	n/a	n/a	n/a	"fixation"	n/a	n/a	n/a	n/a	"NULL"	n/a	"NULL"	"NULL"	"NULL"	"<p style=\"color: black; font-size: 80px; padding-left: 23%; padding-right: 41%; padding-top: 22%; padding-bottom: 21%\">+</p>"	"1018"	n/a	n/a	n/a	n/a	n/a	n/a	n/a	n/a	n/a
n/a	"image-keyboard-response"	"8"	"97116"	"0.0-4.0-1.0-2.0-1.0"	"qprclq"	"711"	"1366"	"chrome"	"109.0.0"	"FALSE"	"Windows 10"	"60.98"	"016"	n/a	n/a	n/a	n/a	n/a	n/a	"Trial"	n/a	n/a	n/a	"845"	"arrowleft"	n/a	"NULL"	"NULL"	"NULL"	"stimuli/Ebbinghaus_0000000_1.40000.png"	n/a	"Ebbinghaus"	"arrowleft"	"1545"	"TRUE"	"Ebbinghaus"	"000000000000"	"1.4000000000"	"1"	"1"
n/a	"html-keyboard-response"	"9"	"98157"	"0.0-4.0-1.0-2.0-0.1"	"qprclq"	"711"	"1366"	"chrome"	"109.0.0"	"FALSE"	"Windows 10"	"60.98"	"016"	n/a	n/a	n/a	n/a	n/a	n/a	"fixation"	n/a	n/a	n/a	n/a	"NULL"	n/a	"NULL"	"NULL"	"NULL"	"<p style=\"color: black; font-size: 80px; padding-left: 41%; padding-right: 27%; padding-top: 39%; padding-bottom: 13%\">+</p>"	"1017"	n/a	n/a	n/a	n/a	n/a	n/a	n/a	n/a	n/a
n/a	"image-keyboard-response"	"10"	"98749"	"0.0-4.0-1.0-2.0-1.1"	"qprclq"	"711"	"1366"	"chrome"	"109.0.0"	"FALSE"	"Windows 10"	"60.98"	"016"	n/a	n/a	n/a	n/a	n/a	n/a	"Trial"	n/a	n/a	n/a	"591"	"arrowright"	n/a	"NULL"	"NULL"	"NULL"	"stimuli/Ebbinghaus_1000000_-1.4000.png"	n/a	"Ebbinghaus"	"arrowright"	"1041"	"TRUE"	"Ebbinghaus"	"100000000000"	"-1.400000000"	"1"	"2"
n/a	"html-keyboard-response"	"11"	"99905"	"0.0-4.0-1.0-2.0-0.2"	"qprclq"	"711"	"1366"	"chrome"	"109.0.0"	"FALSE"	"Windows 10"	"60.98"	"016"	n/a	n/a	n/a	n/a	n/a	n/a	"fixation"	n/a	n/a	n/a	n/a	"NULL"	n/a	"NULL"	"NULL"	"NULL"	"<p style=\"color: black; font-size: 80px; padding-left: 43%; padding-right: 38%; padding-top: 15%; padding-bottom: 38%\">+</p>"	"1150"	n/a	n/a	n/a	n/a	n/a	n/a	n/a	n/a	n/a
n/a	"image-keyboard-response"	"12"	"100381"	"0.0-4.0-1.0-2.0-1.2"	"qprclq"	"711"	"1366"	"chrome"	"109.0.0"	"FALSE"	"Windows 10"	"60.98"	"016"	n/a	n/a	n/a	n/a	n/a	n/a	"Trial"	n/a	n/a	n/a	"474"	"arrowleft"	n/a	"NULL"	"NULL"	"NULL"	"stimuli/Ebbinghaus_1000000_1.40000.png"	n/a	"Ebbinghaus"	"arrowleft"	"1156"	"TRUE"	"Ebbinghaus"	"100000000000"	"1.4000000000"	"1"	"3"
n/a	"html-keyboard-response"	"13"	"101489"	"0.0-4.0-1.0-2.0-0.3"	"qprclq"	"711"	"1366"	"chrome"	"109.0.0"	"FALSE"	"Windows 10"	"60.98"	"016"	n/a	n/a	n/a	n/a	n/a	n/a	"fixation"	n/a	n/a	n/a	n/a	"NULL"	n/a	"NULL"	"NULL"	"NULL"	"<p style=\"color: black; font-size: 80px; padding-left: 11%; padding-right: 28%; padding-top: 29%; padding-bottom: 37%\">+</p>"	"1098"	n/a	n/a	n/a	n/a	n/a	n/a	n/a	n/a	n/a
n/a	"image-keyboard-response"	"14"	"101905"	"0.0-4.0-1.0-2.0-1.3"	"qprclq"	"711"	"1366"	"chrome"	"109.0.0"	"FALSE"	"Windows 10"	"60.98"	"016"	n/a	n/a	n/a	n/a	n/a	n/a	"Trial"	n/a	n/a	n/a	"415"	"arrowright"	n/a	"NULL"	"NULL"	"NULL"	"stimuli/Ebbinghaus_-100000_-1.4000.png"	n/a	"Ebbinghaus"	"arrowright"	"1108"	"TRUE"	"Ebbinghaus"	"-10000000000"	"-1.400000000"	"1"	"4"
n/a	"html-keyboard-response"	"15"	"103379"	"0.0-4.0-1.0-2.0-0.4"	"qprclq"	"711"	"1366"	"chrome"	"109.0.0"	"FALSE"	"Windows 10"	"60.98"	"016"	n/a	n/a	n/a	n/a	n/a	n/a	"fixation"	n/a	n/a	n/a	n/a	"NULL"	n/a	"NULL"	"NULL"	"NULL"	"<p style=\"color: black; font-size: 80px; padding-left: 47%; padding-right: 31%; padding-top: 17%; padding-bottom: 33%\">+</p>"	"1458"	n/a	n/a	n/a	n/a	n/a	n/a	n/a	n/a	n/a
n/a	"image-keyboard-response"	"16"	"103805"	"0.0-4.0-1.0-2.0-1.4"	"qprclq"	"711"	"1366"	"chrome"	"109.0.0"	"FALSE"	"Windows 10"	"60.98"	"016"	n/a	n/a	n/a	n/a	n/a	n/a	"Trial"	n/a	n/a	n/a	"424"	"arrowleft"	n/a	"NULL"	"NULL"	"NULL"	"stimuli/Ebbinghaus_-100000_1.40000.png"	n/a	"Ebbinghaus"	"arrowleft"	"1474"	"TRUE"	"Ebbinghaus"	"-10000000000"	"1.4000000000"	"1"	"5"
n/a	"html-keyboard-response"	"17"	"105146"	"0.0-4.0-1.0-2.0-0.5"	"qprclq"	"711"	"1366"	"chrome"	"109.0.0"	"FALSE"	"Windows 10"	"60.98"	"016"	n/a	n/a	n/a	n/a	n/a	n/a	"fixation"	n/a	n/a	n/a	n/a	"NULL"	n/a	"NULL"	"NULL"	"NULL"	"<p style=\"color: black; font-size: 80px; padding-left: 2%; padding-right: 46%; padding-top: 47%; padding-bottom: 2%\">+</p>"	"1328"	n/a	n/a	n/a	n/a	n/a	n/a	n/a	n/a	n/a
n/a	"image-keyboard-response"	"18"	"105629"	"0.0-4.0-1.0-2.0-1.5"	"qprclq"	"711"	"1366"	"chrome"	"109.0.0"	"FALSE"	"Windows 10"	"60.98"	"016"	n/a	n/a	n/a	n/a	n/a	n/a	"Trial"	n/a	n/a	n/a	"481"	"arrowright"	n/a	"NULL"	"NULL"	"NULL"	"stimuli/Ebbinghaus_0000000_-1.4000.png"	n/a	"Ebbinghaus"	"arrowright"	"1341"	"TRUE"	"Ebbinghaus"	"000000000000"	"-1.400000000"	"1"	"6"
n/a	"html-button-response"	"19"	"111643"	"0.0-4.0-1.0-3.0"	"qprclq"	"711"	"1366"	"chrome"	"109.0.0"	"FALSE"	"Windows 10"	"60.98"	"016"	n/a	n/a	n/a	n/a	n/a	n/a	"practice_block_results"	n/a	n/a	n/a	"6011"	"0"	n/a	"NULL"	"NULL"	"NULL"	"<p style='color:rgb(76,175,80);'> Correct Responses: <b>100.00%</b></p><hr><p style='color:rgb(233,30,99);'> Average Response Time: <b>538.33</b> ms.</p>"	n/a	n/a	n/a	n/a	n/a	n/a	n/a	n/a	n/a	n/a
"TRUE"	"preload"	"20"	"112190"	"0.0-4.0-2.0-0.0"	"qprclq"	"711"	"1366"	"chrome"	"109.0.0"	"FALSE"	"Windows 10"	"60.98"	"016"	n/a	n/a	n/a	n/a	n/a	n/a	n/a	n/a	n/a	n/a	n/a	"NULL"	"FALSE"	"list()"	"list()"	"list()"	n/a	n/a	n/a	n/a	n/a	n/a	n/a	n/a	n/a	n/a	n/a
n/a	"html-keyboard-response"	"21"	"119889"	"0.0-4.0-2.0-1.0"	"qprclq"	"711"	"1366"	"chrome"	"109.0.0"	"FALSE"	"Windows 10"	"60.98"	"016"	n/a	n/a	n/a	n/a	n/a	n/a	n/a	n/a	n/a	n/a	"7698"	"enter"	n/a	"NULL"	"NULL"	"NULL"	"<p><b>Practice</b></p><p>In this part, two horizontal red lines will appear one above the other.</p><p>Your task is to select which <b>line is longer</b> in length as fast as you can, without making errors.</p><p>Don't get distracted by the surrounding black arrows at the end of the red lines!</p><p>Press <b>the UP or the DOWN arrow</b> to indicate where is the longer <b>red line.</b></p><div style='float: center'><img src='materials/instructions/MullerLyer_Demo.png' height='300'></img><p><img src='utils/answer/answer_updown_keyboard.PNG' height='150'></img></p><p class='small'>In this example, the correct answer is the <b>UP arrow</b>.</p></div><p>Are you ready? <b>Press ENTER to start</b></p>"	n/a	n/a	n/a	n/a	n/a	n/a	n/a	n/a	n/a	n/a
n/a	"html-keyboard-response"	"22"	"121906"	"0.0-4.0-2.0-2.0-0.0"	"qprclq"	"711"	"1366"	"chrome"	"109.0.0"	"FALSE"	"Windows 10"	"60.98"	"016"	n/a	n/a	n/a	n/a	n/a	n/a	"fixation"	n/a	n/a	n/a	n/a	"NULL"	n/a	"NULL"	"NULL"	"NULL"	"<p style=\"color: black; font-size: 80px; padding-left: 22%; padding-right: 6%; padding-top: 4%; padding-bottom: 11%\">+</p>"	"1493"	n/a	n/a	n/a	n/a	n/a	n/a	n/a	n/a	n/a
n/a	"image-keyboard-response"	"23"	"122557"	"0.0-4.0-2.0-2.0-1.0"	"qprclq"	"711"	"1366"	"chrome"	"109.0.0"	"FALSE"	"Windows 10"	"60.98"	"016"	n/a	n/a	n/a	n/a	n/a	n/a	"Trial"	n/a	n/a	n/a	"650"	"arrowdown"	n/a	"NULL"	"NULL"	"NULL"	"stimuli/MullerLyer_-230000_-0.7000.png"	n/a	"MullerLyer"	"arrowdown"	"2017"	"TRUE"	"MullerLyer"	"-23000000000"	"-0.700000000"	"1"	"7"
n/a	"html-keyboard-response"	"24"	"123874"	"0.0-4.0-2.0-2.0-0.1"	"qprclq"	"711"	"1366"	"chrome"	"109.0.0"	"FALSE"	"Windows 10"	"60.98"	"016"	n/a	n/a	n/a	n/a	n/a	n/a	"fixation"	n/a	n/a	n/a	n/a	"NULL"	n/a	"NULL"	"NULL"	"NULL"	"<p style=\"color: black; font-size: 80px; padding-left: 23%; padding-right: 8%; padding-top: 47%; padding-bottom: 8%\">+</p>"	"1301"	n/a	n/a	n/a	n/a	n/a	n/a	n/a	n/a	n/a
n/a	"image-keyboard-response"	"25"	"124368"	"0.0-4.0-2.0-2.0-1.1"	"qprclq"	"711"	"1366"	"chrome"	"109.0.0"	"FALSE"	"Windows 10"	"60.98"	"016"	n/a	n/a	n/a	n/a	n/a	n/a	"Trial"	n/a	n/a	n/a	"491"	"arrowup"	n/a	"NULL"	"NULL"	"NULL"	"stimuli/MullerLyer_-230000_0.70000.png"	n/a	"MullerLyer"	"arrowup"	"1317"	"TRUE"	"MullerLyer"	"-23000000000"	"0.7000000000"	"1"	"8"
n/a	"html-keyboard-response"	"26"	"125436"	"0.0-4.0-2.0-2.0-0.2"	"qprclq"	"711"	"1366"	"chrome"	"109.0.0"	"FALSE"	"Windows 10"	"60.98"	"016"	n/a	n/a	n/a	n/a	n/a	n/a	"fixation"	n/a	n/a	n/a	n/a	"NULL"	n/a	"NULL"	"NULL"	"NULL"	"<p style=\"color: black; font-size: 80px; padding-left: 6%; padding-right: 19%; padding-top: 22%; padding-bottom: 48%\">+</p>"	"1055"	n/a	n/a	n/a	n/a	n/a	n/a	n/a	n/a	n/a
n/a	"image-keyboard-response"	"27"	"125873"	"0.0-4.0-2.0-2.0-1.2"	"qprclq"	"711"	"1366"	"chrome"	"109.0.0"	"FALSE"	"Windows 10"	"60.98"	"016"	n/a	n/a	n/a	n/a	n/a	n/a	"Trial"	n/a	n/a	n/a	"436"	"arrowdown"	n/a	"NULL"	"NULL"	"NULL"	"stimuli/MullerLyer_0000000_-0.7000.png"	n/a	"MullerLyer"	"arrowdown"	"1068"	"TRUE"	"MullerLyer"	"000000000000"	"-0.700000000"	"1"	"9"
n/a	"html-keyboard-response"	"28"	"127133"	"0.0-4.0-2.0-2.0-0.3"	"qprclq"	"711"	"1366"	"chrome"	"109.0.0"	"FALSE"	"Windows 10"	"60.98"	"016"	n/a	n/a	n/a	n/a	n/a	n/a	"fixation"	n/a	n/a	n/a	n/a	"NULL"	n/a	"NULL"	"NULL"	"NULL"	"<p style=\"color: black; font-size: 80px; padding-left: 47%; padding-right: 15%; padding-top: 0%; padding-bottom: 24%\">+</p>"	"1248"	n/a	n/a	n/a	n/a	n/a	n/a	n/a	n/a	n/a
n/a	"image-keyboard-response"	"29"	"127488"	"0.0-4.0-2.0-2.0-1.3"	"qprclq"	"711"	"1366"	"chrome"	"109.0.0"	"FALSE"	"Windows 10"	"60.98"	"016"	n/a	n/a	n/a	n/a	n/a	n/a	"Trial"	n/a	n/a	n/a	"352"	"arrowup"	n/a	"NULL"	"NULL"	"NULL"	"stimuli/MullerLyer_0000000_0.70000.png"	n/a	"MullerLyer"	"arrowup"	"1260"	"TRUE"	"MullerLyer"	"000000000000"	"0.7000000000"	"1"	"10"
n/a	"html-keyboard-response"	"30"	"128895"	"0.0-4.0-2.0-2.0-0.4"	"qprclq"	"711"	"1366"	"chrome"	"109.0.0"	"FALSE"	"Windows 10"	"60.98"	"016"	n/a	n/a	n/a	n/a	n/a	n/a	"fixation"	n/a	n/a	n/a	n/a	"NULL"	n/a	"NULL"	"NULL"	"NULL"	"<p style=\"color: black; font-size: 80px; padding-left: 12%; padding-right: 33%; padding-top: 31%; padding-bottom: 35%\">+</p>"	"1396"	n/a	n/a	n/a	n/a	n/a	n/a	n/a	n/a	n/a
n/a	"image-keyboard-response"	"31"	"129385"	"0.0-4.0-2.0-2.0-1.4"	"qprclq"	"711"	"1366"	"chrome"	"109.0.0"	"FALSE"	"Windows 10"	"60.98"	"016"	n/a	n/a	n/a	n/a	n/a	n/a	"Trial"	n/a	n/a	n/a	"489"	"arrowup"	n/a	"NULL"	"NULL"	"NULL"	"stimuli/MullerLyer_2300000_0.70000.png"	n/a	"MullerLyer"	"arrowup"	"1407"	"TRUE"	"MullerLyer"	"230000000000"	"0.7000000000"	"1"	"11"
n/a	"html-keyboard-response"	"32"	"130749"	"0.0-4.0-2.0-2.0-0.5"	"qprclq"	"711"	"1366"	"chrome"	"109.0.0"	"FALSE"	"Windows 10"	"60.98"	"016"	n/a	n/a	n/a	n/a	n/a	n/a	"fixation"	n/a	n/a	n/a	n/a	"NULL"	n/a	"NULL"	"NULL"	"NULL"	"<p style=\"color: black; font-size: 80px; padding-left: 19%; padding-right: 19%; padding-top: 7%; padding-bottom: 48%\">+</p>"	"1347"	n/a	n/a	n/a	n/a	n/a	n/a	n/a	n/a	n/a
n/a	"image-keyboard-response"	"33"	"131376"	"0.0-4.0-2.0-2.0-1.5"	"qprclq"	"711"	"1366"	"chrome"	"109.0.0"	"FALSE"	"Windows 10"	"60.98"	"016"	n/a	n/a	n/a	n/a	n/a	n/a	"Trial"	n/a	n/a	n/a	"626"	"arrowdown"	n/a	"NULL"	"NULL"	"NULL"	"stimuli/MullerLyer_2300000_-0.7000.png"	n/a	"MullerLyer"	"arrowdown"	"1364"	"TRUE"	"MullerLyer"	"230000000000"	"-0.700000000"	"1"	"12"
n/a	"html-button-response"	"34"	"135157"	"0.0-4.0-2.0-3.0"	"qprclq"	"711"	"1366"	"chrome"	"109.0.0"	"FALSE"	"Windows 10"	"60.98"	"016"	n/a	n/a	n/a	n/a	n/a	n/a	"practice_block_results"	n/a	n/a	n/a	"3779"	"0"	n/a	"NULL"	"NULL"	"NULL"	"<p style='color:rgb(76,175,80);'> Correct Responses: <b>100.00%</b></p><hr><p style='color:rgb(233,30,99);'> Average Response Time: <b>507.33</b> ms.</p>"	n/a	n/a	n/a	n/a	n/a	n/a	n/a	n/a	n/a	n/a
"TRUE"	"preload"	"35"	"135693"	"0.0-4.0-3.0-0.0"	"qprclq"	"711"	"1366"	"chrome"	"109.0.0"	"FALSE"	"Windows 10"	"60.98"	"016"	n/a	n/a	n/a	n/a	n/a	n/a	n/a	n/a	n/a	n/a	n/a	"NULL"	"FALSE"	"list()"	"list()"	"list()"	n/a	n/a	n/a	n/a	n/a	n/a	n/a	n/a	n/a	n/a	n/a
n/a	"html-keyboard-response"	"36"	"140044"	"0.0-4.0-3.0-1.0"	"qprclq"	"711"	"1366"	"chrome"	"109.0.0"	"FALSE"	"Windows 10"	"60.98"	"016"	n/a	n/a	n/a	n/a	n/a	n/a	n/a	n/a	n/a	n/a	"4350"	"enter"	n/a	"NULL"	"NULL"	"NULL"	"<p><b>Practice</b></p><p>In this part, two red lines will appear side by side.</p><p>Your task is to tell <b>which line is longer</b> in length, regardless of their orientation, as fast as you can, and without making errors.</p><p>Don't get distracted by the orientation of the lines!</p><p>Press <b>the LEFT or the RIGHT arrow</b> to indicate which <b>line is the longer one.</b></p><div style='float: center'><img src='materials/instructions/VerticalHorizontal_Demo.png' height='300'></img><p><img src='utils/answer/answer_leftright_keyboard.PNG' height='150'></img></p><p class='small'>In this example, the correct answer is the <b>LEFT arrow</b>.</p></div><p>Are you ready? <b>Press ENTER to start</b></p>"	n/a	n/a	n/a	n/a	n/a	n/a	n/a	n/a	n/a	n/a
n/a	"html-keyboard-response"	"37"	"141854"	"0.0-4.0-3.0-2.0-0.0"	"qprclq"	"711"	"1366"	"chrome"	"109.0.0"	"FALSE"	"Windows 10"	"60.98"	"016"	n/a	n/a	n/a	n/a	n/a	n/a	"fixation"	n/a	n/a	n/a	n/a	"NULL"	n/a	"NULL"	"NULL"	"NULL"	"<p style=\"color: black; font-size: 80px; padding-left: 17%; padding-right: 5%; padding-top: 30%; padding-bottom: 2%\">+</p>"	"1278"	n/a	n/a	n/a	n/a	n/a	n/a	n/a	n/a	n/a
n/a	"image-keyboard-response"	"38"	"142310"	"0.0-4.0-3.0-2.0-1.0"	"qprclq"	"711"	"1366"	"chrome"	"109.0.0"	"FALSE"	"Windows 10"	"60.98"	"016"	n/a	n/a	n/a	n/a	n/a	n/a	"Trial"	n/a	n/a	n/a	"455"	"arrowleft"	n/a	"NULL"	"NULL"	"NULL"	"stimuli/VerticalHorizontal_-330000_0.90000.png"	n/a	"VerticalHorizontal"	"arrowleft"	"1810"	"TRUE"	"VerticalHorizontal"	"-33000000000"	"0.9000000000"	"1"	"13"
n/a	"html-keyboard-response"	"39"	"143436"	"0.0-4.0-3.0-2.0-0.1"	"qprclq"	"711"	"1366"	"chrome"	"109.0.0"	"FALSE"	"Windows 10"	"60.98"	"016"	n/a	n/a	n/a	n/a	n/a	n/a	"fixation"	n/a	n/a	n/a	n/a	"NULL"	n/a	"NULL"	"NULL"	"NULL"	"<p style=\"color: black; font-size: 80px; padding-left: 43%; padding-right: 17%; padding-top: 35%; padding-bottom: 18%\">+</p>"	"1115"	n/a	n/a	n/a	n/a	n/a	n/a	n/a	n/a	n/a
n/a	"image-keyboard-response"	"40"	"143850"	"0.0-4.0-3.0-2.0-1.1"	"qprclq"	"711"	"1366"	"chrome"	"109.0.0"	"FALSE"	"Windows 10"	"60.98"	"016"	n/a	n/a	n/a	n/a	n/a	n/a	"Trial"	n/a	n/a	n/a	"413"	"arrowright"	n/a	"NULL"	"NULL"	"NULL"	"stimuli/VerticalHorizontal_0000000_-0.9000.png"	n/a	"VerticalHorizontal"	"arrowright"	"1126"	"TRUE"	"VerticalHorizontal"	"000000000000"	"-0.900000000"	"1"	"14"
n/a	"html-keyboard-response"	"41"	"145202"	"0.0-4.0-3.0-2.0-0.2"	"qprclq"	"711"	"1366"	"chrome"	"109.0.0"	"FALSE"	"Windows 10"	"60.98"	"016"	n/a	n/a	n/a	n/a	n/a	n/a	"fixation"	n/a	n/a	n/a	n/a	"NULL"	n/a	"NULL"	"NULL"	"NULL"	"<p style=\"color: black; font-size: 80px; padding-left: 6%; padding-right: 34%; padding-top: 9%; padding-bottom: 33%\">+</p>"	"1332"	n/a	n/a	n/a	n/a	n/a	n/a	n/a	n/a	n/a
n/a	"image-keyboard-response"	"42"	"145684"	"0.0-4.0-3.0-2.0-1.2"	"qprclq"	"711"	"1366"	"chrome"	"109.0.0"	"FALSE"	"Windows 10"	"60.98"	"016"	n/a	n/a	n/a	n/a	n/a	n/a	"Trial"	n/a	n/a	n/a	"481"	"arrowleft"	n/a	"NULL"	"NULL"	"NULL"	"stimuli/VerticalHorizontal_3300000_0.90000.png"	n/a	"VerticalHorizontal"	"arrowleft"	"1352"	"TRUE"	"VerticalHorizontal"	"330000000000"	"0.9000000000"	"1"	"15"
n/a	"html-keyboard-response"	"43"	"146938"	"0.0-4.0-3.0-2.0-0.3"	"qprclq"	"711"	"1366"	"chrome"	"109.0.0"	"FALSE"	"Windows 10"	"60.98"	"016"	n/a	n/a	n/a	n/a	n/a	n/a	"fixation"	n/a	n/a	n/a	n/a	"NULL"	n/a	"NULL"	"NULL"	"NULL"	"<p style=\"color: black; font-size: 80px; padding-left: 26%; padding-right: 17%; padding-top: 22%; padding-bottom: 34%\">+</p>"	"1246"	n/a	n/a	n/a	n/a	n/a	n/a	n/a	n/a	n/a
n/a	"image-keyboard-response"	"44"	"147337"	"0.0-4.0-3.0-2.0-1.3"	"qprclq"	"711"	"1366"	"chrome"	"109.0.0"	"FALSE"	"Windows 10"	"60.98"	"016"	n/a	n/a	n/a	n/a	n/a	n/a	"Trial"	n/a	n/a	n/a	"398"	"arrowleft"	n/a	"NULL"	"NULL"	"NULL"	"stimuli/VerticalHorizontal_0000000_0.90000.png"	n/a	"VerticalHorizontal"	"arrowleft"	"1254"	"TRUE"	"VerticalHorizontal"	"000000000000"	"0.9000000000"	"1"	"16"
n/a	"html-keyboard-response"	"45"	"148702"	"0.0-4.0-3.0-2.0-0.4"	"qprclq"	"711"	"1366"	"chrome"	"109.0.0"	"FALSE"	"Windows 10"	"60.98"	"016"	n/a	n/a	n/a	n/a	n/a	n/a	"fixation"	n/a	n/a	n/a	n/a	"NULL"	n/a	"NULL"	"NULL"	"NULL"	"<p style=\"color: black; font-size: 80px; padding-left: 31%; padding-right: 18%; padding-top: 37%; padding-bottom: 7%\">+</p>"	"1356"	n/a	n/a	n/a	n/a	n/a	n/a	n/a	n/a	n/a
n/a	"image-keyboard-response"	"46"	"149158"	"0.0-4.0-3.0-2.0-1.4"	"qprclq"	"711"	"1366"	"chrome"	"109.0.0"	"FALSE"	"Windows 10"	"60.98"	"016"	n/a	n/a	n/a	n/a	n/a	n/a	"Trial"	n/a	n/a	n/a	"454"	"arrowright"	n/a	"NULL"	"NULL"	"NULL"	"stimuli/VerticalHorizontal_3300000_-0.9000.png"	n/a	"VerticalHorizontal"	"arrowright"	"1365"	"TRUE"	"VerticalHorizontal"	"330000000000"	"-0.900000000"	"1"	"17"
n/a	"html-keyboard-response"	"47"	"150543"	"0.0-4.0-3.0-2.0-0.5"	"qprclq"	"711"	"1366"	"chrome"	"109.0.0"	"FALSE"	"Windows 10"	"60.98"	"016"	n/a	n/a	n/a	n/a	n/a	n/a	"fixation"	n/a	n/a	n/a	n/a	"NULL"	n/a	"NULL"	"NULL"	"NULL"	"<p style=\"color: black; font-size: 80px; padding-left: 37%; padding-right: 11%; padding-top: 49%; padding-bottom: 11%\">+</p>"	"1367"	n/a	n/a	n/a	n/a	n/a	n/a	n/a	n/a	n/a
n/a	"image-keyboard-response"	"48"	"150987"	"0.0-4.0-3.0-2.0-1.5"	"qprclq"	"711"	"1366"	"chrome"	"109.0.0"	"FALSE"	"Windows 10"	"60.98"	"016"	n/a	n/a	n/a	n/a	n/a	n/a	"Trial"	n/a	n/a	n/a	"442"	"arrowright"	n/a	"NULL"	"NULL"	"NULL"	"stimuli/VerticalHorizontal_-330000_-0.9000.png"	n/a	"VerticalHorizontal"	"arrowright"	"1385"	"TRUE"	"VerticalHorizontal"	"-33000000000"	"-0.900000000"	"1"	"18"
n/a	"html-button-response"	"49"	"156056"	"0.0-4.0-3.0-3.0"	"qprclq"	"711"	"1366"	"chrome"	"109.0.0"	"FALSE"	"Windows 10"	"60.98"	"016"	n/a	n/a	n/a	n/a	n/a	n/a	"practice_block_results"	n/a	n/a	n/a	"5050"	"0"	n/a	"NULL"	"NULL"	"NULL"	"<p style='color:rgb(76,175,80);'> Correct Responses: <b>100.00%</b></p><hr><p style='color:rgb(233,30,99);'> Average Response Time: <b>440.50</b> ms.</p>"	n/a	n/a	n/a	n/a	n/a	n/a	n/a	n/a	n/a	n/a
n/a	"html-button-response"	"50"	"231050"	"0.0-4.0-4.0"	"qprclq"	"711"	"1366"	"chrome"	"109.0.0"	"FALSE"	"Windows 10"	"60.98"	"016"	n/a	n/a	n/a	n/a	n/a	n/a	"practice_debrief"	n/a	n/a	n/a	"74477"	"0"	n/a	"NULL"	"NULL"	"NULL"	"<p><b>TRAINING COMPLETED</b></p><p>In the next phase, there will be more trials, and some might be harder too.<br> Moreover, after each illusion block, a <b>score</b> will be calculated based on speed (time you took to answer) and accuracy (number of errors).</p><p>Try to keep up a high score!</p><br><p>Note that it can be <i>really</i> challenging at times, so you will need to rely on your <b>intuition</b> and gut feeling to answer as fast as you can without making errors.</p><p>Each illusion block will be repeated two times (so that you have the opportunity to improve your score), but the order of the blocks is random.</p><p>Remember, your goal is to be as <b>fast</b> and <b>accurate</b> as possible. Good luck!</p><br>"	n/a	n/a	n/a	n/a	n/a	n/a	n/a	n/a	n/a	n/a
"TRUE"	"preload"	"51"	"231272"	"0.0-5.0-0.0"	"qprclq"	"711"	"1366"	"chrome"	"109.0.0"	"FALSE"	"Windows 10"	"60.98"	"016"	n/a	n/a	n/a	n/a	n/a	n/a	n/a	n/a	n/a	n/a	n/a	"NULL"	"FALSE"	"list()"	"list()"	"list()"	n/a	n/a	n/a	n/a	n/a	n/a	n/a	n/a	n/a	n/a	n/a
n/a	"html-keyboard-response"	"52"	"235084"	"0.0-5.0-1.0"	"qprclq"	"711"	"1366"	"chrome"	"109.0.0"	"FALSE"	"Windows 10"	"60.98"	"016"	n/a	n/a	n/a	n/a	n/a	n/a	n/a	n/a	n/a	n/a	"3812"	"enter"	n/a	"NULL"	"NULL"	"NULL"	"<p><b>Part 1/6</b></p><p>In this part, two red circles will appear side by side on the screen.</p><p>Your task is to select which <b>red circle is bigger</b> in size as fast as you can, without making errors.</p><p>Don't get distracted by the surrounding black circles around the red circles!</p><p>Press <b>the LEFT or the RIGHT arrow</b> to indicate which is the bigger <b>red circle.</b></p><div style='float: center'><img src='materials/instructions/Ebbinghaus_Demo.png' height='300'></img><p><img src='utils/answer/answer_leftright_keyboard.PNG' height='150'></img></p><p class='small'>In this example, the correct answer is the <b>LEFT arrow</b>.</p></div><p>Are you ready? <b>Press ENTER to start</b></p>"	n/a	n/a	n/a	n/a	n/a	n/a	n/a	n/a	n/a	n/a
n/a	"html-keyboard-response"	"53"	"236904"	"0.0-5.0-2.0-0.0"	"qprclq"	"711"	"1366"	"chrome"	"109.0.0"	"FALSE"	"Windows 10"	"60.98"	"016"	n/a	n/a	n/a	n/a	n/a	n/a	"fixation"	n/a	n/a	n/a	n/a	"NULL"	n/a	"NULL"	"NULL"	"NULL"	"<p style=\"color: black; font-size: 80px; padding-left: 38%; padding-right: 28%; padding-top: 36%; padding-bottom: 24%\">+</p>"	"1306"	n/a	n/a	n/a	n/a	n/a	n/a	n/a	n/a	n/a
n/a	"image-keyboard-response"	"54"	"237954"	"0.0-5.0-2.0-1.0"	"qprclq"	"711"	"1366"	"chrome"	"109.0.0"	"FALSE"	"Windows 10"	"60.98"	"016"	n/a	n/a	n/a	n/a	n/a	n/a	"Trial"	n/a	n/a	n/a	"1048"	"arrowleft"	n/a	"NULL"	"NULL"	"NULL"	"stimuli/Ebbinghaus_-0.35714_0.21500.png"	n/a	"Ebbinghaus"	"arrowleft"	"1820"	"TRUE"	"Ebbinghaus"	"-0.357140000"	"0.2150000000"	"1"	"19"
n/a	"html-keyboard-response"	"55"	"239080"	"0.0-5.0-2.0-0.1"	"qprclq"	"711"	"1366"	"chrome"	"109.0.0"	"FALSE"	"Windows 10"	"60.98"	"016"	n/a	n/a	n/a	n/a	n/a	n/a	"fixation"	n/a	n/a	n/a	n/a	"NULL"	n/a	"NULL"	"NULL"	"NULL"	"<p style=\"color: black; font-size: 80px; padding-left: 8%; padding-right: 16%; padding-top: 10%; padding-bottom: 10%\">+</p>"	"1115"	n/a	n/a	n/a	n/a	n/a	n/a	n/a	n/a	n/a
n/a	"image-keyboard-response"	"56"	"239917"	"0.0-5.0-2.0-1.1"	"qprclq"	"711"	"1366"	"chrome"	"109.0.0"	"FALSE"	"Windows 10"	"60.98"	"016"	n/a	n/a	n/a	n/a	n/a	n/a	"Trial"	n/a	n/a	n/a	"836"	"arrowright"	n/a	"NULL"	"NULL"	"NULL"	"stimuli/Ebbinghaus_-0.87143_-0.11071.png"	n/a	"Ebbinghaus"	"arrowright"	"1126"	"TRUE"	"Ebbinghaus"	"-0.871430000"	"-0.110710000"	"1"	"20"
n/a	"html-keyboard-response"	"57"	"241374"	"0.0-5.0-2.0-0.2"	"qprclq"	"711"	"1366"	"chrome"	"109.0.0"	"FALSE"	"Windows 10"	"60.98"	"016"	n/a	n/a	n/a	n/a	n/a	n/a	"fixation"	n/a	n/a	n/a	n/a	"NULL"	n/a	"NULL"	"NULL"	"NULL"	"<p style=\"color: black; font-size: 80px; padding-left: 11%; padding-right: 12%; padding-top: 25%; padding-bottom: 2%\">+</p>"	"1445"	n/a	n/a	n/a	n/a	n/a	n/a	n/a	n/a	n/a
n/a	"image-keyboard-response"	"58"	"241953"	"0.0-5.0-2.0-1.2"	"qprclq"	"711"	"1366"	"chrome"	"109.0.0"	"FALSE"	"Windows 10"	"60.98"	"016"	n/a	n/a	n/a	n/a	n/a	n/a	"Trial"	n/a	n/a	n/a	"577"	"arrowright"	n/a	"NULL"	"NULL"	"NULL"	"stimuli/Ebbinghaus_-0.61429_-0.15857.png"	n/a	"Ebbinghaus"	"arrowright"	"1457"	"TRUE"	"Ebbinghaus"	"-0.614290000"	"-0.158570000"	"1"	"21"
n/a	"html-keyboard-response"	"59"	"243246"	"0.0-5.0-2.0-0.3"	"qprclq"	"711"	"1366"	"chrome"	"109.0.0"	"FALSE"	"Windows 10"	"60.98"	"016"	n/a	n/a	n/a	n/a	n/a	n/a	"fixation"	n/a	n/a	n/a	n/a	"NULL"	n/a	"NULL"	"NULL"	"NULL"	"<p style=\"color: black; font-size: 80px; padding-left: 1%; padding-right: 44%; padding-top: 31%; padding-bottom: 47%\">+</p>"	"1284"	n/a	n/a	n/a	n/a	n/a	n/a	n/a	n/a	n/a
n/a	"image-keyboard-response"	"60"	"244011"	"0.0-5.0-2.0-1.3"	"qprclq"	"711"	"1366"	"chrome"	"109.0.0"	"FALSE"	"Windows 10"	"60.98"	"016"	n/a	n/a	n/a	n/a	n/a	n/a	"Trial"	n/a	n/a	n/a	"763"	"arrowright"	n/a	"NULL"	"NULL"	"NULL"	"stimuli/Ebbinghaus_-0.61429_-0.11071.png"	n/a	"Ebbinghaus"	"arrowright"	"1293"	"TRUE"	"Ebbinghaus"	"-0.614290000"	"-0.110710000"	"1"	"22"
n/a	"html-keyboard-response"	"61"	"245203"	"0.0-5.0-2.0-0.4"	"qprclq"	"711"	"1366"	"chrome"	"109.0.0"	"FALSE"	"Windows 10"	"60.98"	"016"	n/a	n/a	n/a	n/a	n/a	n/a	"fixation"	n/a	n/a	n/a	n/a	"NULL"	n/a	"NULL"	"NULL"	"NULL"	"<p style=\"color: black; font-size: 80px; padding-left: 36%; padding-right: 44%; padding-top: 30%; padding-bottom: 37%\">+</p>"	"1181"	n/a	n/a	n/a	n/a	n/a	n/a	n/a	n/a	n/a
n/a	"image-keyboard-response"	"62"	"246057"	"0.0-5.0-2.0-1.4"	"qprclq"	"711"	"1366"	"chrome"	"109.0.0"	"FALSE"	"Windows 10"	"60.98"	"016"	n/a	n/a	n/a	n/a	n/a	n/a	"Trial"	n/a	n/a	n/a	"853"	"arrowleft"	n/a	"NULL"	"NULL"	"NULL"	"stimuli/Ebbinghaus_-0.35714_0.11071.png"	n/a	"Ebbinghaus"	"arrowleft"	"1192"	"TRUE"	"Ebbinghaus"	"-0.357140000"	"0.1107100000"	"1"	"23"
n/a	"html-keyboard-response"	"63"	"247282"	"0.0-5.0-2.0-0.5"	"qprclq"	"711"	"1366"	"chrome"	"109.0.0"	"FALSE"	"Windows 10"	"60.98"	"016"	n/a	n/a	n/a	n/a	n/a	n/a	"fixation"	n/a	n/a	n/a	n/a	"NULL"	n/a	"NULL"	"NULL"	"NULL"	"<p style=\"color: black; font-size: 80px; padding-left: 12%; padding-right: 33%; padding-top: 8%; padding-bottom: 3%\">+</p>"	"1220"	n/a	n/a	n/a	n/a	n/a	n/a	n/a	n/a	n/a
n/a	"image-keyboard-response"	"64"	"248405"	"0.0-5.0-2.0-1.5"	"qprclq"	"711"	"1366"	"chrome"	"109.0.0"	"FALSE"	"Windows 10"	"60.98"	"016"	n/a	n/a	n/a	n/a	n/a	n/a	"Trial"	n/a	n/a	n/a	"1123"	"arrowright"	n/a	"NULL"	"NULL"	"NULL"	"stimuli/Ebbinghaus_0.10000_0.11071.png"	n/a	"Ebbinghaus"	"arrowleft"	"1225"	"FALSE"	"Ebbinghaus"	"0.1000000000"	"0.1107100000"	"1"	"24"
n/a	"html-keyboard-response"	"65"	"249686"	"0.0-5.0-2.0-0.6"	"qprclq"	"711"	"1366"	"chrome"	"109.0.0"	"FALSE"	"Windows 10"	"60.98"	"016"	n/a	n/a	n/a	n/a	n/a	n/a	"fixation"	n/a	n/a	n/a	n/a	"NULL"	n/a	"NULL"	"NULL"	"NULL"	"<p style=\"color: black; font-size: 80px; padding-left: 32%; padding-right: 27%; padding-top: 3%; padding-bottom: 34%\">+</p>"	"1268"	n/a	n/a	n/a	n/a	n/a	n/a	n/a	n/a	n/a
n/a	"image-keyboard-response"	"66"	"250790"	"0.0-5.0-2.0-1.6"	"qprclq"	"711"	"1366"	"chrome"	"109.0.0"	"FALSE"	"Windows 10"	"60.98"	"016"	n/a	n/a	n/a	n/a	n/a	n/a	"Trial"	n/a	n/a	n/a	"1102"	"arrowright"	n/a	"NULL"	"NULL"	"NULL"	"stimuli/Ebbinghaus_-0.35714_-0.11071.png"	n/a	"Ebbinghaus"	"arrowright"	"1281"	"TRUE"	"Ebbinghaus"	"-0.357140000"	"-0.110710000"	"1"	"25"
n/a	"html-keyboard-response"	"67"	"251875"	"0.0-5.0-2.0-0.7"	"qprclq"	"711"	"1366"	"chrome"	"109.0.0"	"FALSE"	"Windows 10"	"60.98"	"016"	n/a	n/a	n/a	n/a	n/a	n/a	"fixation"	n/a	n/a	n/a	n/a	"NULL"	n/a	"NULL"	"NULL"	"NULL"	"<p style=\"color: black; font-size: 80px; padding-left: 27%; padding-right: 8%; padding-top: 40%; padding-bottom: 15%\">+</p>"	"1069"	n/a	n/a	n/a	n/a	n/a	n/a	n/a	n/a	n/a
n/a	"image-keyboard-response"	"68"	"252693"	"0.0-5.0-2.0-1.7"	"qprclq"	"711"	"1366"	"chrome"	"109.0.0"	"FALSE"	"Windows 10"	"60.98"	"016"	n/a	n/a	n/a	n/a	n/a	n/a	"Trial"	n/a	n/a	n/a	"816"	"arrowright"	n/a	"NULL"	"NULL"	"NULL"	"stimuli/Ebbinghaus_-0.35714_0.28000.png"	n/a	"Ebbinghaus"	"arrowleft"	"1085"	"FALSE"	"Ebbinghaus"	"-0.357140000"	"0.2800000000"	"1"	"26"
n/a	"html-keyboard-response"	"69"	"253922"	"0.0-5.0-2.0-0.8"	"qprclq"	"711"	"1366"	"chrome"	"109.0.0"	"FALSE"	"Windows 10"	"60.98"	"016"	n/a	n/a	n/a	n/a	n/a	n/a	"fixation"	n/a	n/a	n/a	n/a	"NULL"	n/a	"NULL"	"NULL"	"NULL"	"<p style=\"color: black; font-size: 80px; padding-left: 48%; padding-right: 45%; padding-top: 37%; padding-bottom: 39%\">+</p>"	"1216"	n/a	n/a	n/a	n/a	n/a	n/a	n/a	n/a	n/a
n/a	"image-keyboard-response"	"70"	"254482"	"0.0-5.0-2.0-1.8"	"qprclq"	"711"	"1366"	"chrome"	"109.0.0"	"FALSE"	"Windows 10"	"60.98"	"016"	n/a	n/a	n/a	n/a	n/a	n/a	"Trial"	n/a	n/a	n/a	"559"	"arrowright"	n/a	"NULL"	"NULL"	"NULL"	"stimuli/Ebbinghaus_0.87143_-0.2800.png"	n/a	"Ebbinghaus"	"arrowright"	"1229"	"TRUE"	"Ebbinghaus"	"0.8714300000"	"-0.280000000"	"1"	"27"
n/a	"html-keyboard-response"	"71"	"255825"	"0.0-5.0-2.0-0.9"	"qprclq"	"711"	"1366"	"chrome"	"109.0.0"	"FALSE"	"Windows 10"	"60.98"	"016"	n/a	n/a	n/a	n/a	n/a	n/a	"fixation"	n/a	n/a	n/a	n/a	"NULL"	n/a	"NULL"	"NULL"	"NULL"	"<p style=\"color: black; font-size: 80px; padding-left: 3%; padding-right: 32%; padding-top: 44%; padding-bottom: 14%\">+</p>"	"1333"	n/a	n/a	n/a	n/a	n/a	n/a	n/a	n/a	n/a
n/a	"image-keyboard-response"	"72"	"256523"	"0.0-5.0-2.0-1.9"	"qprclq"	"711"	"1366"	"chrome"	"109.0.0"	"FALSE"	"Windows 10"	"60.98"	"016"	n/a	n/a	n/a	n/a	n/a	n/a	"Trial"	n/a	n/a	n/a	"695"	"arrowleft"	n/a	"NULL"	"NULL"	"NULL"	"stimuli/Ebbinghaus_-0.87143_0.28000.png"	n/a	"Ebbinghaus"	"arrowleft"	"1343"	"TRUE"	"Ebbinghaus"	"-0.871430000"	"0.2800000000"	"1"	"28"
n/a	"html-keyboard-response"	"73"	"257784"	"0.0-5.0-2.0-0.10"	"qprclq"	"711"	"1366"	"chrome"	"109.0.0"	"FALSE"	"Windows 10"	"60.98"	"016"	n/a	n/a	n/a	n/a	n/a	n/a	"fixation"	n/a	n/a	n/a	n/a	"NULL"	n/a	"NULL"	"NULL"	"NULL"	"<p style=\"color: black; font-size: 80px; padding-left: 14%; padding-right: 3%; padding-top: 12%; padding-bottom: 31%\">+</p>"	"1258"	n/a	n/a	n/a	n/a	n/a	n/a	n/a	n/a	n/a
n/a	"image-keyboard-response"	"74"	"258295"	"0.0-5.0-2.0-1.10"	"qprclq"	"711"	"1366"	"chrome"	"109.0.0"	"FALSE"	"Windows 10"	"60.98"	"016"	n/a	n/a	n/a	n/a	n/a	n/a	"Trial"	n/a	n/a	n/a	"509"	"arrowright"	n/a	"NULL"	"NULL"	"NULL"	"stimuli/Ebbinghaus_0.10000_0.21500.png"	n/a	"Ebbinghaus"	"arrowleft"	"1261"	"FALSE"	"Ebbinghaus"	"0.1000000000"	"0.2150000000"	"1"	"29"
n/a	"html-keyboard-response"	"75"	"259669"	"0.0-5.0-2.0-0.11"	"qprclq"	"711"	"1366"	"chrome"	"109.0.0"	"FALSE"	"Windows 10"	"60.98"	"016"	n/a	n/a	n/a	n/a	n/a	n/a	"fixation"	n/a	n/a	n/a	n/a	"NULL"	n/a	"NULL"	"NULL"	"NULL"	"<p style=\"color: black; font-size: 80px; padding-left: 35%; padding-right: 49%; padding-top: 33%; padding-bottom: 27%\">+</p>"	"1355"	n/a	n/a	n/a	n/a	n/a	n/a	n/a	n/a	n/a
n/a	"image-keyboard-response"	"76"	"260267"	"0.0-5.0-2.0-1.11"	"qprclq"	"711"	"1366"	"chrome"	"109.0.0"	"FALSE"	"Windows 10"	"60.98"	"016"	n/a	n/a	n/a	n/a	n/a	n/a	"Trial"	n/a	n/a	n/a	"597"	"arrowright"	n/a	"NULL"	"NULL"	"NULL"	"stimuli/Ebbinghaus_0.61429_-0.15857.png"	n/a	"Ebbinghaus"	"arrowright"	"1374"	"TRUE"	"Ebbinghaus"	"0.6142900000"	"-0.158570000"	"1"	"30"
n/a	"html-keyboard-response"	"77"	"261766"	"0.0-5.0-2.0-0.12"	"qprclq"	"711"	"1366"	"chrome"	"109.0.0"	"FALSE"	"Windows 10"	"60.98"	"016"	n/a	n/a	n/a	n/a	n/a	n/a	"fixation"	n/a	n/a	n/a	n/a	"NULL"	n/a	"NULL"	"NULL"	"NULL"	"<p style=\"color: black; font-size: 80px; padding-left: 39%; padding-right: 0%; padding-top: 17%; padding-bottom: 31%\">+</p>"	"1489"	n/a	n/a	n/a	n/a	n/a	n/a	n/a	n/a	n/a
n/a	"image-keyboard-response"	"78"	"262302"	"0.0-5.0-2.0-1.12"	"qprclq"	"711"	"1366"	"chrome"	"109.0.0"	"FALSE"	"Windows 10"	"60.98"	"016"	n/a	n/a	n/a	n/a	n/a	n/a	"Trial"	n/a	n/a	n/a	"535"	"arrowleft"	n/a	"NULL"	"NULL"	"NULL"	"stimuli/Ebbinghaus_0.61429_0.28000.png"	n/a	"Ebbinghaus"	"arrowleft"	"1499"	"TRUE"	"Ebbinghaus"	"0.6142900000"	"0.2800000000"	"1"	"31"
n/a	"html-keyboard-response"	"79"	"263800"	"0.0-5.0-2.0-0.13"	"qprclq"	"711"	"1366"	"chrome"	"109.0.0"	"FALSE"	"Windows 10"	"60.98"	"016"	n/a	n/a	n/a	n/a	n/a	n/a	"fixation"	n/a	n/a	n/a	n/a	"NULL"	n/a	"NULL"	"NULL"	"NULL"	"<p style=\"color: black; font-size: 80px; padding-left: 42%; padding-right: 8%; padding-top: 5%; padding-bottom: 27%\">+</p>"	"1490"	n/a	n/a	n/a	n/a	n/a	n/a	n/a	n/a	n/a
n/a	"image-keyboard-response"	"80"	"264287"	"0.0-5.0-2.0-1.13"	"qprclq"	"711"	"1366"	"chrome"	"109.0.0"	"FALSE"	"Windows 10"	"60.98"	"016"	n/a	n/a	n/a	n/a	n/a	n/a	"Trial"	n/a	n/a	n/a	"486"	"arrowright"	n/a	"NULL"	"NULL"	"NULL"	"stimuli/Ebbinghaus_0.35714_-0.11071.png"	n/a	"Ebbinghaus"	"arrowright"	"1498"	"TRUE"	"Ebbinghaus"	"0.3571400000"	"-0.110710000"	"1"	"32"
n/a	"html-keyboard-response"	"81"	"265639"	"0.0-5.0-2.0-0.14"	"qprclq"	"711"	"1366"	"chrome"	"109.0.0"	"FALSE"	"Windows 10"	"60.98"	"016"	n/a	n/a	n/a	n/a	n/a	n/a	"fixation"	n/a	n/a	n/a	n/a	"NULL"	n/a	"NULL"	"NULL"	"NULL"	"<p style=\"color: black; font-size: 80px; padding-left: 1%; padding-right: 25%; padding-top: 9%; padding-bottom: 14%\">+</p>"	"1335"	n/a	n/a	n/a	n/a	n/a	n/a	n/a	n/a	n/a
n/a	"image-keyboard-response"	"82"	"266324"	"0.0-5.0-2.0-1.14"	"qprclq"	"711"	"1366"	"chrome"	"109.0.0"	"FALSE"	"Windows 10"	"60.98"	"016"	n/a	n/a	n/a	n/a	n/a	n/a	"Trial"	n/a	n/a	n/a	"684"	"arrowleft"	n/a	"NULL"	"NULL"	"NULL"	"stimuli/Ebbinghaus_0.61429_0.21500.png"	n/a	"Ebbinghaus"	"arrowleft"	"1352"	"TRUE"	"Ebbinghaus"	"0.6142900000"	"0.2150000000"	"1"	"33"
n/a	"html-keyboard-response"	"83"	"267789"	"0.0-5.0-2.0-0.15"	"qprclq"	"711"	"1366"	"chrome"	"109.0.0"	"FALSE"	"Windows 10"	"60.98"	"016"	n/a	n/a	n/a	n/a	n/a	n/a	"fixation"	n/a	n/a	n/a	n/a	"NULL"	n/a	"NULL"	"NULL"	"NULL"	"<p style=\"color: black; font-size: 80px; padding-left: 32%; padding-right: 47%; padding-top: 25%; padding-bottom: 22%\">+</p>"	"1449"	n/a	n/a	n/a	n/a	n/a	n/a	n/a	n/a	n/a
n/a	"image-keyboard-response"	"84"	"268350"	"0.0-5.0-2.0-1.15"	"qprclq"	"711"	"1366"	"chrome"	"109.0.0"	"FALSE"	"Windows 10"	"60.98"	"016"	n/a	n/a	n/a	n/a	n/a	n/a	"Trial"	n/a	n/a	n/a	"560"	"arrowright"	n/a	"NULL"	"NULL"	"NULL"	"stimuli/Ebbinghaus_-0.61429_0.21500.png"	n/a	"Ebbinghaus"	"arrowleft"	"1465"	"FALSE"	"Ebbinghaus"	"-0.614290000"	"0.2150000000"	"1"	"34"
n/a	"html-keyboard-response"	"85"	"269677"	"0.0-5.0-2.0-0.16"	"qprclq"	"711"	"1366"	"chrome"	"109.0.0"	"FALSE"	"Windows 10"	"60.98"	"016"	n/a	n/a	n/a	n/a	n/a	n/a	"fixation"	n/a	n/a	n/a	n/a	"NULL"	n/a	"NULL"	"NULL"	"NULL"	"<p style=\"color: black; font-size: 80px; padding-left: 17%; padding-right: 16%; padding-top: 22%; padding-bottom: 40%\">+</p>"	"1308"	n/a	n/a	n/a	n/a	n/a	n/a	n/a	n/a	n/a
n/a	"image-keyboard-response"	"86"	"270238"	"0.0-5.0-2.0-1.16"	"qprclq"	"711"	"1366"	"chrome"	"109.0.0"	"FALSE"	"Windows 10"	"60.98"	"016"	n/a	n/a	n/a	n/a	n/a	n/a	"Trial"	n/a	n/a	n/a	"557"	"arrowright"	n/a	"NULL"	"NULL"	"NULL"	"stimuli/Ebbinghaus_0.10000_-0.15857.png"	n/a	"Ebbinghaus"	"arrowright"	"1327"	"TRUE"	"Ebbinghaus"	"0.1000000000"	"-0.158570000"	"1"	"35"
n/a	"html-keyboard-response"	"87"	"271682"	"0.0-5.0-2.0-0.17"	"qprclq"	"711"	"1366"	"chrome"	"109.0.0"	"FALSE"	"Windows 10"	"60.98"	"016"	n/a	n/a	n/a	n/a	n/a	n/a	"fixation"	n/a	n/a	n/a	n/a	"NULL"	n/a	"NULL"	"NULL"	"NULL"	"<p style=\"color: black; font-size: 80px; padding-left: 48%; padding-right: 32%; padding-top: 16%; padding-bottom: 46%\">+</p>"	"1433"	n/a	n/a	n/a	n/a	n/a	n/a	n/a	n/a	n/a
n/a	"image-keyboard-response"	"88"	"272196"	"0.0-5.0-2.0-1.17"	"qprclq"	"711"	"1366"	"chrome"	"109.0.0"	"FALSE"	"Windows 10"	"60.98"	"016"	n/a	n/a	n/a	n/a	n/a	n/a	"Trial"	n/a	n/a	n/a	"508"	"arrowleft"	n/a	"NULL"	"NULL"	"NULL"	"stimuli/Ebbinghaus_0.35714_0.28000.png"	n/a	"Ebbinghaus"	"arrowleft"	"1444"	"TRUE"	"Ebbinghaus"	"0.3571400000"	"0.2800000000"	"1"	"36"
n/a	"html-keyboard-response"	"89"	"273500"	"0.0-5.0-2.0-0.18"	"qprclq"	"711"	"1366"	"chrome"	"109.0.0"	"FALSE"	"Windows 10"	"60.98"	"016"	n/a	n/a	n/a	n/a	n/a	n/a	"fixation"	n/a	n/a	n/a	n/a	"NULL"	n/a	"NULL"	"NULL"	"NULL"	"<p style=\"color: black; font-size: 80px; padding-left: 4%; padding-right: 40%; padding-top: 7%; padding-bottom: 33%\">+</p>"	"1287"	n/a	n/a	n/a	n/a	n/a	n/a	n/a	n/a	n/a
n/a	"image-keyboard-response"	"90"	"274064"	"0.0-5.0-2.0-1.18"	"qprclq"	"711"	"1366"	"chrome"	"109.0.0"	"FALSE"	"Windows 10"	"60.98"	"016"	n/a	n/a	n/a	n/a	n/a	n/a	"Trial"	n/a	n/a	n/a	"563"	"arrowright"	n/a	"NULL"	"NULL"	"NULL"	"stimuli/Ebbinghaus_-0.1000_0.28000.png"	n/a	"Ebbinghaus"	"arrowleft"	"1304"	"FALSE"	"Ebbinghaus"	"-0.100000000"	"0.2800000000"	"1"	"37"
n/a	"html-keyboard-response"	"91"	"275458"	"0.0-5.0-2.0-0.19"	"qprclq"	"711"	"1366"	"chrome"	"109.0.0"	"FALSE"	"Windows 10"	"60.98"	"016"	n/a	n/a	n/a	n/a	n/a	n/a	"fixation"	n/a	n/a	n/a	n/a	"NULL"	n/a	"NULL"	"NULL"	"NULL"	"<p style=\"color: black; font-size: 80px; padding-left: 14%; padding-right: 23%; padding-top: 45%; padding-bottom: 32%\">+</p>"	"1384"	n/a	n/a	n/a	n/a	n/a	n/a	n/a	n/a	n/a
n/a	"image-keyboard-response"	"92"	"276023"	"0.0-5.0-2.0-1.19"	"qprclq"	"711"	"1366"	"chrome"	"109.0.0"	"FALSE"	"Windows 10"	"60.98"	"016"	n/a	n/a	n/a	n/a	n/a	n/a	"Trial"	n/a	n/a	n/a	"564"	"arrowright"	n/a	"NULL"	"NULL"	"NULL"	"stimuli/Ebbinghaus_0.61429_-0.2150.png"	n/a	"Ebbinghaus"	"arrowright"	"1394"	"TRUE"	"Ebbinghaus"	"0.6142900000"	"-0.215000000"	"1"	"38"
n/a	"html-keyboard-response"	"93"	"277358"	"0.0-5.0-2.0-0.20"	"qprclq"	"711"	"1366"	"chrome"	"109.0.0"	"FALSE"	"Windows 10"	"60.98"	"016"	n/a	n/a	n/a	n/a	n/a	n/a	"fixation"	n/a	n/a	n/a	n/a	"NULL"	n/a	"NULL"	"NULL"	"NULL"	"<p style=\"color: black; font-size: 80px; padding-left: 7%; padding-right: 40%; padding-top: 4%; padding-bottom: 42%\">+</p>"	"1322"	n/a	n/a	n/a	n/a	n/a	n/a	n/a	n/a	n/a
n/a	"image-keyboard-response"	"94"	"278064"	"0.0-5.0-2.0-1.20"	"qprclq"	"711"	"1366"	"chrome"	"109.0.0"	"FALSE"	"Windows 10"	"60.98"	"016"	n/a	n/a	n/a	n/a	n/a	n/a	"Trial"	n/a	n/a	n/a	"705"	"arrowright"	n/a	"NULL"	"NULL"	"NULL"	"stimuli/Ebbinghaus_-0.1000_-0.15857.png"	n/a	"Ebbinghaus"	"arrowright"	"1335"	"TRUE"	"Ebbinghaus"	"-0.100000000"	"-0.158570000"	"1"	"39"
n/a	"html-keyboard-response"	"95"	"279314"	"0.0-5.0-2.0-0.21"	"qprclq"	"711"	"1366"	"chrome"	"109.0.0"	"FALSE"	"Windows 10"	"60.98"	"016"	n/a	n/a	n/a	n/a	n/a	n/a	"fixation"	n/a	n/a	n/a	n/a	"NULL"	n/a	"NULL"	"NULL"	"NULL"	"<p style=\"color: black; font-size: 80px; padding-left: 3%; padding-right: 7%; padding-top: 31%; padding-bottom: 47%\">+</p>"	"1239"	n/a	n/a	n/a	n/a	n/a	n/a	n/a	n/a	n/a
n/a	"image-keyboard-response"	"96"	"279838"	"0.0-5.0-2.0-1.21"	"qprclq"	"711"	"1366"	"chrome"	"109.0.0"	"FALSE"	"Windows 10"	"60.98"	"016"	n/a	n/a	n/a	n/a	n/a	n/a	"Trial"	n/a	n/a	n/a	"522"	"arrowleft"	n/a	"NULL"	"NULL"	"NULL"	"stimuli/Ebbinghaus_0.87143_0.28000.png"	n/a	"Ebbinghaus"	"arrowleft"	"1250"	"TRUE"	"Ebbinghaus"	"0.8714300000"	"0.2800000000"	"1"	"40"
n/a	"html-keyboard-response"	"97"	"281014"	"0.0-5.0-2.0-0.22"	"qprclq"	"711"	"1366"	"chrome"	"109.0.0"	"FALSE"	"Windows 10"	"60.98"	"016"	n/a	n/a	n/a	n/a	n/a	n/a	"fixation"	n/a	n/a	n/a	n/a	"NULL"	n/a	"NULL"	"NULL"	"NULL"	"<p style=\"color: black; font-size: 80px; padding-left: 5%; padding-right: 32%; padding-top: 47%; padding-bottom: 6%\">+</p>"	"1166"	n/a	n/a	n/a	n/a	n/a	n/a	n/a	n/a	n/a
n/a	"image-keyboard-response"	"98"	"281547"	"0.0-5.0-2.0-1.22"	"qprclq"	"711"	"1366"	"chrome"	"109.0.0"	"FALSE"	"Windows 10"	"60.98"	"016"	n/a	n/a	n/a	n/a	n/a	n/a	"Trial"	n/a	n/a	n/a	"532"	"arrowright"	n/a	"NULL"	"NULL"	"NULL"	"stimuli/Ebbinghaus_-0.61429_0.28000.png"	n/a	"Ebbinghaus"	"arrowleft"	"1176"	"FALSE"	"Ebbinghaus"	"-0.614290000"	"0.2800000000"	"1"	"41"
n/a	"html-keyboard-response"	"99"	"282858"	"0.0-5.0-2.0-0.23"	"qprclq"	"711"	"1366"	"chrome"	"109.0.0"	"FALSE"	"Windows 10"	"60.98"	"016"	n/a	n/a	n/a	n/a	n/a	n/a	"fixation"	n/a	n/a	n/a	n/a	"NULL"	n/a	"NULL"	"NULL"	"NULL"	"<p style=\"color: black; font-size: 80px; padding-left: 14%; padding-right: 27%; padding-top: 15%; padding-bottom: 25%\">+</p>"	"1304"	n/a	n/a	n/a	n/a	n/a	n/a	n/a	n/a	n/a
n/a	"image-keyboard-response"	"100"	"283635"	"0.0-5.0-2.0-1.23"	"qprclq"	"711"	"1366"	"chrome"	"109.0.0"	"FALSE"	"Windows 10"	"60.98"	"016"	n/a	n/a	n/a	n/a	n/a	n/a	"Trial"	n/a	n/a	n/a	"775"	"arrowright"	n/a	"NULL"	"NULL"	"NULL"	"stimuli/Ebbinghaus_-0.61429_0.15857.png"	n/a	"Ebbinghaus"	"arrowleft"	"1311"	"FALSE"	"Ebbinghaus"	"-0.614290000"	"0.1585700000"	"1"	"42"
n/a	"html-keyboard-response"	"101"	"284873"	"0.0-5.0-2.0-0.24"	"qprclq"	"711"	"1366"	"chrome"	"109.0.0"	"FALSE"	"Windows 10"	"60.98"	"016"	n/a	n/a	n/a	n/a	n/a	n/a	"fixation"	n/a	n/a	n/a	n/a	"NULL"	n/a	"NULL"	"NULL"	"NULL"	"<p style=\"color: black; font-size: 80px; padding-left: 23%; padding-right: 24%; padding-top: 33%; padding-bottom: 9%\">+</p>"	"1234"	n/a	n/a	n/a	n/a	n/a	n/a	n/a	n/a	n/a
n/a	"image-keyboard-response"	"102"	"285508"	"0.0-5.0-2.0-1.24"	"qprclq"	"711"	"1366"	"chrome"	"109.0.0"	"FALSE"	"Windows 10"	"60.98"	"016"	n/a	n/a	n/a	n/a	n/a	n/a	"Trial"	n/a	n/a	n/a	"634"	"arrowright"	n/a	"NULL"	"NULL"	"NULL"	"stimuli/Ebbinghaus_-0.1000_-0.11071.png"	n/a	"Ebbinghaus"	"arrowright"	"1238"	"TRUE"	"Ebbinghaus"	"-0.100000000"	"-0.110710000"	"1"	"43"
n/a	"html-keyboard-response"	"103"	"286937"	"0.0-5.0-2.0-0.25"	"qprclq"	"711"	"1366"	"chrome"	"109.0.0"	"FALSE"	"Windows 10"	"60.98"	"016"	n/a	n/a	n/a	n/a	n/a	n/a	"fixation"	n/a	n/a	n/a	n/a	"NULL"	n/a	"NULL"	"NULL"	"NULL"	"<p style=\"color: black; font-size: 80px; padding-left: 7%; padding-right: 22%; padding-top: 7%; padding-bottom: 17%\">+</p>"	"1410"	n/a	n/a	n/a	n/a	n/a	n/a	n/a	n/a	n/a
n/a	"image-keyboard-response"	"104"	"287392"	"0.0-5.0-2.0-1.25"	"qprclq"	"711"	"1366"	"chrome"	"109.0.0"	"FALSE"	"Windows 10"	"60.98"	"016"	n/a	n/a	n/a	n/a	n/a	n/a	"Trial"	n/a	n/a	n/a	"455"	"arrowright"	n/a	"NULL"	"NULL"	"NULL"	"stimuli/Ebbinghaus_-0.61429_-0.2150.png"	n/a	"Ebbinghaus"	"arrowright"	"1429"	"TRUE"	"Ebbinghaus"	"-0.614290000"	"-0.215000000"	"1"	"44"
n/a	"html-keyboard-response"	"105"	"288517"	"0.0-5.0-2.0-0.26"	"qprclq"	"711"	"1366"	"chrome"	"109.0.0"	"FALSE"	"Windows 10"	"60.98"	"016"	n/a	n/a	n/a	n/a	n/a	n/a	"fixation"	n/a	n/a	n/a	n/a	"NULL"	n/a	"NULL"	"NULL"	"NULL"	"<p style=\"color: black; font-size: 80px; padding-left: 18%; padding-right: 13%; padding-top: 48%; padding-bottom: 10%\">+</p>"	"1102"	n/a	n/a	n/a	n/a	n/a	n/a	n/a	n/a	n/a
n/a	"image-keyboard-response"	"106"	"289099"	"0.0-5.0-2.0-1.26"	"qprclq"	"711"	"1366"	"chrome"	"109.0.0"	"FALSE"	"Windows 10"	"60.98"	"016"	n/a	n/a	n/a	n/a	n/a	n/a	"Trial"	n/a	n/a	n/a	"581"	"arrowleft"	n/a	"NULL"	"NULL"	"NULL"	"stimuli/Ebbinghaus_0.10000_0.28000.png"	n/a	"Ebbinghaus"	"arrowleft"	"1125"	"TRUE"	"Ebbinghaus"	"0.1000000000"	"0.2800000000"	"1"	"45"
n/a	"html-keyboard-response"	"107"	"290140"	"0.0-5.0-2.0-0.27"	"qprclq"	"711"	"1366"	"chrome"	"109.0.0"	"FALSE"	"Windows 10"	"60.98"	"016"	n/a	n/a	n/a	n/a	n/a	n/a	"fixation"	n/a	n/a	n/a	n/a	"NULL"	n/a	"NULL"	"NULL"	"NULL"	"<p style=\"color: black; font-size: 80px; padding-left: 48%; padding-right: 32%; padding-top: 39%; padding-bottom: 31%\">+</p>"	"1033"	n/a	n/a	n/a	n/a	n/a	n/a	n/a	n/a	n/a
n/a	"image-keyboard-response"	"108"	"290659"	"0.0-5.0-2.0-1.27"	"qprclq"	"711"	"1366"	"chrome"	"109.0.0"	"FALSE"	"Windows 10"	"60.98"	"016"	n/a	n/a	n/a	n/a	n/a	n/a	"Trial"	n/a	n/a	n/a	"518"	"arrowright"	n/a	"NULL"	"NULL"	"NULL"	"stimuli/Ebbinghaus_0.10000_-0.2800.png"	n/a	"Ebbinghaus"	"arrowright"	"1041"	"TRUE"	"Ebbinghaus"	"0.1000000000"	"-0.280000000"	"1"	"46"
n/a	"html-keyboard-response"	"109"	"292091"	"0.0-5.0-2.0-0.28"	"qprclq"	"711"	"1366"	"chrome"	"109.0.0"	"FALSE"	"Windows 10"	"60.98"	"016"	n/a	n/a	n/a	n/a	n/a	n/a	"fixation"	n/a	n/a	n/a	n/a	"NULL"	n/a	"NULL"	"NULL"	"NULL"	"<p style=\"color: black; font-size: 80px; padding-left: 21%; padding-right: 12%; padding-top: 25%; padding-bottom: 3%\">+</p>"	"1411"	n/a	n/a	n/a	n/a	n/a	n/a	n/a	n/a	n/a
n/a	"image-keyboard-response"	"110"	"292648"	"0.0-5.0-2.0-1.28"	"qprclq"	"711"	"1366"	"chrome"	"109.0.0"	"FALSE"	"Windows 10"	"60.98"	"016"	n/a	n/a	n/a	n/a	n/a	n/a	"Trial"	n/a	n/a	n/a	"556"	"arrowleft"	n/a	"NULL"	"NULL"	"NULL"	"stimuli/Ebbinghaus_0.10000_0.15857.png"	n/a	"Ebbinghaus"	"arrowleft"	"1432"	"TRUE"	"Ebbinghaus"	"0.1000000000"	"0.1585700000"	"1"	"47"
n/a	"html-keyboard-response"	"111"	"293940"	"0.0-5.0-2.0-0.29"	"qprclq"	"711"	"1366"	"chrome"	"109.0.0"	"FALSE"	"Windows 10"	"60.98"	"016"	n/a	n/a	n/a	n/a	n/a	n/a	"fixation"	n/a	n/a	n/a	n/a	"NULL"	n/a	"NULL"	"NULL"	"NULL"	"<p style=\"color: black; font-size: 80px; padding-left: 12%; padding-right: 27%; padding-top: 42%; padding-bottom: 34%\">+</p>"	"1276"	n/a	n/a	n/a	n/a	n/a	n/a	n/a	n/a	n/a
n/a	"image-keyboard-response"	"112"	"294513"	"0.0-5.0-2.0-1.29"	"qprclq"	"711"	"1366"	"chrome"	"109.0.0"	"FALSE"	"Windows 10"	"60.98"	"016"	n/a	n/a	n/a	n/a	n/a	n/a	"Trial"	n/a	n/a	n/a	"572"	"arrowleft"	n/a	"NULL"	"NULL"	"NULL"	"stimuli/Ebbinghaus_0.87143_0.15857.png"	n/a	"Ebbinghaus"	"arrowleft"	"1292"	"TRUE"	"Ebbinghaus"	"0.8714300000"	"0.1585700000"	"1"	"48"
n/a	"html-keyboard-response"	"113"	"295833"	"0.0-5.0-2.0-0.30"	"qprclq"	"711"	"1366"	"chrome"	"109.0.0"	"FALSE"	"Windows 10"	"60.98"	"016"	n/a	n/a	n/a	n/a	n/a	n/a	"fixation"	n/a	n/a	n/a	n/a	"NULL"	n/a	"NULL"	"NULL"	"NULL"	"<p style=\"color: black; font-size: 80px; padding-left: 47%; padding-right: 23%; padding-top: 27%; padding-bottom: 4%\">+</p>"	"1301"	n/a	n/a	n/a	n/a	n/a	n/a	n/a	n/a	n/a
n/a	"image-keyboard-response"	"114"	"296326"	"0.0-5.0-2.0-1.30"	"qprclq"	"711"	"1366"	"chrome"	"109.0.0"	"FALSE"	"Windows 10"	"60.98"	"016"	n/a	n/a	n/a	n/a	n/a	n/a	"Trial"	n/a	n/a	n/a	"492"	"arrowright"	n/a	"NULL"	"NULL"	"NULL"	"stimuli/Ebbinghaus_0.35714_-0.2150.png"	n/a	"Ebbinghaus"	"arrowright"	"1320"	"TRUE"	"Ebbinghaus"	"0.3571400000"	"-0.215000000"	"1"	"49"
n/a	"html-keyboard-response"	"115"	"297694"	"0.0-5.0-2.0-0.31"	"qprclq"	"711"	"1366"	"chrome"	"109.0.0"	"FALSE"	"Windows 10"	"60.98"	"016"	n/a	n/a	n/a	n/a	n/a	n/a	"fixation"	n/a	n/a	n/a	n/a	"NULL"	n/a	"NULL"	"NULL"	"NULL"	"<p style=\"color: black; font-size: 80px; padding-left: 20%; padding-right: 13%; padding-top: 33%; padding-bottom: 36%\">+</p>"	"1347"	n/a	n/a	n/a	n/a	n/a	n/a	n/a	n/a	n/a
n/a	"image-keyboard-response"	"116"	"298125"	"0.0-5.0-2.0-1.31"	"qprclq"	"711"	"1366"	"chrome"	"109.0.0"	"FALSE"	"Windows 10"	"60.98"	"016"	n/a	n/a	n/a	n/a	n/a	n/a	"Trial"	n/a	n/a	n/a	"430"	"arrowleft"	n/a	"NULL"	"NULL"	"NULL"	"stimuli/Ebbinghaus_-0.87143_-0.2800.png"	n/a	"Ebbinghaus"	"arrowright"	"1368"	"FALSE"	"Ebbinghaus"	"-0.871430000"	"-0.280000000"	"1"	"50"
n/a	"html-keyboard-response"	"117"	"299627"	"0.0-5.0-2.0-0.32"	"qprclq"	"711"	"1366"	"chrome"	"109.0.0"	"FALSE"	"Windows 10"	"60.98"	"016"	n/a	n/a	n/a	n/a	n/a	n/a	"fixation"	n/a	n/a	n/a	n/a	"NULL"	n/a	"NULL"	"NULL"	"NULL"	"<p style=\"color: black; font-size: 80px; padding-left: 32%; padding-right: 42%; padding-top: 46%; padding-bottom: 22%\">+</p>"	"1481"	n/a	n/a	n/a	n/a	n/a	n/a	n/a	n/a	n/a
n/a	"image-keyboard-response"	"118"	"300323"	"0.0-5.0-2.0-1.32"	"qprclq"	"711"	"1366"	"chrome"	"109.0.0"	"FALSE"	"Windows 10"	"60.98"	"016"	n/a	n/a	n/a	n/a	n/a	n/a	"Trial"	n/a	n/a	n/a	"694"	"arrowright"	n/a	"NULL"	"NULL"	"NULL"	"stimuli/Ebbinghaus_0.10000_-0.11071.png"	n/a	"Ebbinghaus"	"arrowright"	"1502"	"TRUE"	"Ebbinghaus"	"0.1000000000"	"-0.110710000"	"1"	"51"
n/a	"html-keyboard-response"	"119"	"301561"	"0.0-5.0-2.0-0.33"	"qprclq"	"711"	"1366"	"chrome"	"109.0.0"	"FALSE"	"Windows 10"	"60.98"	"016"	n/a	n/a	n/a	n/a	n/a	n/a	"fixation"	n/a	n/a	n/a	n/a	"NULL"	n/a	"NULL"	"NULL"	"NULL"	"<p style=\"color: black; font-size: 80px; padding-left: 9%; padding-right: 3%; padding-top: 8%; padding-bottom: 29%\">+</p>"	"1231"	n/a	n/a	n/a	n/a	n/a	n/a	n/a	n/a	n/a
n/a	"image-keyboard-response"	"120"	"302105"	"0.0-5.0-2.0-1.33"	"qprclq"	"711"	"1366"	"chrome"	"109.0.0"	"FALSE"	"Windows 10"	"60.98"	"016"	n/a	n/a	n/a	n/a	n/a	n/a	"Trial"	n/a	n/a	n/a	"543"	"arrowleft"	n/a	"NULL"	"NULL"	"NULL"	"stimuli/Ebbinghaus_-0.1000_0.15857.png"	n/a	"Ebbinghaus"	"arrowleft"	"1238"	"TRUE"	"Ebbinghaus"	"-0.100000000"	"0.1585700000"	"1"	"52"
n/a	"html-keyboard-response"	"121"	"303458"	"0.0-5.0-2.0-0.34"	"qprclq"	"711"	"1366"	"chrome"	"109.0.0"	"FALSE"	"Windows 10"	"60.98"	"016"	n/a	n/a	n/a	n/a	n/a	n/a	"fixation"	n/a	n/a	n/a	n/a	"NULL"	n/a	"NULL"	"NULL"	"NULL"	"<p style=\"color: black; font-size: 80px; padding-left: 35%; padding-right: 38%; padding-top: 50%; padding-bottom: 6%\">+</p>"	"1344"	n/a	n/a	n/a	n/a	n/a	n/a	n/a	n/a	n/a
n/a	"image-keyboard-response"	"122"	"304145"	"0.0-5.0-2.0-1.34"	"qprclq"	"711"	"1366"	"chrome"	"109.0.0"	"FALSE"	"Windows 10"	"60.98"	"016"	n/a	n/a	n/a	n/a	n/a	n/a	"Trial"	n/a	n/a	n/a	"686"	"arrowleft"	n/a	"NULL"	"NULL"	"NULL"	"stimuli/Ebbinghaus_-0.35714_0.15857.png"	n/a	"Ebbinghaus"	"arrowleft"	"1353"	"TRUE"	"Ebbinghaus"	"-0.357140000"	"0.1585700000"	"1"	"53"
n/a	"html-keyboard-response"	"123"	"305383"	"0.0-5.0-2.0-0.35"	"qprclq"	"711"	"1366"	"chrome"	"109.0.0"	"FALSE"	"Windows 10"	"60.98"	"016"	n/a	n/a	n/a	n/a	n/a	n/a	"fixation"	n/a	n/a	n/a	n/a	"NULL"	n/a	"NULL"	"NULL"	"NULL"	"<p style=\"color: black; font-size: 80px; padding-left: 3%; padding-right: 42%; padding-top: 13%; padding-bottom: 31%\">+</p>"	"1235"	n/a	n/a	n/a	n/a	n/a	n/a	n/a	n/a	n/a
n/a	"image-keyboard-response"	"124"	"305982"	"0.0-5.0-2.0-1.35"	"qprclq"	"711"	"1366"	"chrome"	"109.0.0"	"FALSE"	"Windows 10"	"60.98"	"016"	n/a	n/a	n/a	n/a	n/a	n/a	"Trial"	n/a	n/a	n/a	"598"	"arrowright"	n/a	"NULL"	"NULL"	"NULL"	"stimuli/Ebbinghaus_-0.61429_0.11071.png"	n/a	"Ebbinghaus"	"arrowleft"	"1238"	"FALSE"	"Ebbinghaus"	"-0.614290000"	"0.1107100000"	"1"	"54"
n/a	"html-keyboard-response"	"125"	"307095"	"0.0-5.0-2.0-0.36"	"qprclq"	"711"	"1366"	"chrome"	"109.0.0"	"FALSE"	"Windows 10"	"60.98"	"016"	n/a	n/a	n/a	n/a	n/a	n/a	"fixation"	n/a	n/a	n/a	n/a	"NULL"	n/a	"NULL"	"NULL"	"NULL"	"<p style=\"color: black; font-size: 80px; padding-left: 11%; padding-right: 26%; padding-top: 28%; padding-bottom: 29%\">+</p>"	"1105"	n/a	n/a	n/a	n/a	n/a	n/a	n/a	n/a	n/a
n/a	"image-keyboard-response"	"126"	"307697"	"0.0-5.0-2.0-1.36"	"qprclq"	"711"	"1366"	"chrome"	"109.0.0"	"FALSE"	"Windows 10"	"60.98"	"016"	n/a	n/a	n/a	n/a	n/a	n/a	"Trial"	n/a	n/a	n/a	"602"	"arrowright"	n/a	"NULL"	"NULL"	"NULL"	"stimuli/Ebbinghaus_0.87143_-0.15857.png"	n/a	"Ebbinghaus"	"arrowright"	"1113"	"TRUE"	"Ebbinghaus"	"0.8714300000"	"-0.158570000"	"1"	"55"
n/a	"html-keyboard-response"	"127"	"308797"	"0.0-5.0-2.0-0.37"	"qprclq"	"711"	"1366"	"chrome"	"109.0.0"	"FALSE"	"Windows 10"	"60.98"	"016"	n/a	n/a	n/a	n/a	n/a	n/a	"fixation"	n/a	n/a	n/a	n/a	"NULL"	n/a	"NULL"	"NULL"	"NULL"	"<p style=\"color: black; font-size: 80px; padding-left: 39%; padding-right: 16%; padding-top: 28%; padding-bottom: 17%\">+</p>"	"1081"	n/a	n/a	n/a	n/a	n/a	n/a	n/a	n/a	n/a
n/a	"image-keyboard-response"	"128"	"309642"	"0.0-5.0-2.0-1.37"	"qprclq"	"711"	"1366"	"chrome"	"109.0.0"	"FALSE"	"Windows 10"	"60.98"	"016"	n/a	n/a	n/a	n/a	n/a	n/a	"Trial"	n/a	n/a	n/a	"844"	"arrowleft"	n/a	"NULL"	"NULL"	"NULL"	"stimuli/Ebbinghaus_0.35714_0.11071.png"	n/a	"Ebbinghaus"	"arrowleft"	"1100"	"TRUE"	"Ebbinghaus"	"0.3571400000"	"0.1107100000"	"1"	"56"
n/a	"html-keyboard-response"	"129"	"310993"	"0.0-5.0-2.0-0.38"	"qprclq"	"711"	"1366"	"chrome"	"109.0.0"	"FALSE"	"Windows 10"	"60.98"	"016"	n/a	n/a	n/a	n/a	n/a	n/a	"fixation"	n/a	n/a	n/a	n/a	"NULL"	n/a	"NULL"	"NULL"	"NULL"	"<p style=\"color: black; font-size: 80px; padding-left: 2%; padding-right: 18%; padding-top: 8%; padding-bottom: 31%\">+</p>"	"1331"	n/a	n/a	n/a	n/a	n/a	n/a	n/a	n/a	n/a
n/a	"image-keyboard-response"	"130"	"311718"	"0.0-5.0-2.0-1.38"	"qprclq"	"711"	"1366"	"chrome"	"109.0.0"	"FALSE"	"Windows 10"	"60.98"	"016"	n/a	n/a	n/a	n/a	n/a	n/a	"Trial"	n/a	n/a	n/a	"724"	"arrowleft"	n/a	"NULL"	"NULL"	"NULL"	"stimuli/Ebbinghaus_-0.87143_0.21500.png"	n/a	"Ebbinghaus"	"arrowleft"	"1351"	"TRUE"	"Ebbinghaus"	"-0.871430000"	"0.2150000000"	"1"	"57"
n/a	"html-keyboard-response"	"131"	"313140"	"0.0-5.0-2.0-0.39"	"qprclq"	"711"	"1366"	"chrome"	"109.0.0"	"FALSE"	"Windows 10"	"60.98"	"016"	n/a	n/a	n/a	n/a	n/a	n/a	"fixation"	n/a	n/a	n/a	n/a	"NULL"	n/a	"NULL"	"NULL"	"NULL"	"<p style=\"color: black; font-size: 80px; padding-left: 28%; padding-right: 43%; padding-top: 5%; padding-bottom: 11%\">+</p>"	"1411"	n/a	n/a	n/a	n/a	n/a	n/a	n/a	n/a	n/a
n/a	"image-keyboard-response"	"132"	"313933"	"0.0-5.0-2.0-1.39"	"qprclq"	"711"	"1366"	"chrome"	"109.0.0"	"FALSE"	"Windows 10"	"60.98"	"016"	n/a	n/a	n/a	n/a	n/a	n/a	"Trial"	n/a	n/a	n/a	"793"	"arrowright"	n/a	"NULL"	"NULL"	"NULL"	"stimuli/Ebbinghaus_0.87143_0.11071.png"	n/a	"Ebbinghaus"	"arrowleft"	"1422"	"FALSE"	"Ebbinghaus"	"0.8714300000"	"0.1107100000"	"1"	"58"
n/a	"html-keyboard-response"	"133"	"315308"	"0.0-5.0-2.0-0.40"	"qprclq"	"711"	"1366"	"chrome"	"109.0.0"	"FALSE"	"Windows 10"	"60.98"	"016"	n/a	n/a	n/a	n/a	n/a	n/a	"fixation"	n/a	n/a	n/a	n/a	"NULL"	n/a	"NULL"	"NULL"	"NULL"	"<p style=\"color: black; font-size: 80px; padding-left: 50%; padding-right: 39%; padding-top: 33%; padding-bottom: 4%\">+</p>"	"1360"	n/a	n/a	n/a	n/a	n/a	n/a	n/a	n/a	n/a
n/a	"image-keyboard-response"	"134"	"316109"	"0.0-5.0-2.0-1.40"	"qprclq"	"711"	"1366"	"chrome"	"109.0.0"	"FALSE"	"Windows 10"	"60.98"	"016"	n/a	n/a	n/a	n/a	n/a	n/a	"Trial"	n/a	n/a	n/a	"799"	"arrowright"	n/a	"NULL"	"NULL"	"NULL"	"stimuli/Ebbinghaus_-0.1000_-0.2150.png"	n/a	"Ebbinghaus"	"arrowright"	"1375"	"TRUE"	"Ebbinghaus"	"-0.100000000"	"-0.215000000"	"1"	"59"
n/a	"html-keyboard-response"	"135"	"317197"	"0.0-5.0-2.0-0.41"	"qprclq"	"711"	"1366"	"chrome"	"109.0.0"	"FALSE"	"Windows 10"	"60.98"	"016"	n/a	n/a	n/a	n/a	n/a	n/a	"fixation"	n/a	n/a	n/a	n/a	"NULL"	n/a	"NULL"	"NULL"	"NULL"	"<p style=\"color: black; font-size: 80px; padding-left: 15%; padding-right: 15%; padding-top: 33%; padding-bottom: 42%\">+</p>"	"1070"	n/a	n/a	n/a	n/a	n/a	n/a	n/a	n/a	n/a
n/a	"image-keyboard-response"	"136"	"317803"	"0.0-5.0-2.0-1.41"	"qprclq"	"711"	"1366"	"chrome"	"109.0.0"	"FALSE"	"Windows 10"	"60.98"	"016"	n/a	n/a	n/a	n/a	n/a	n/a	"Trial"	n/a	n/a	n/a	"605"	"arrowright"	n/a	"NULL"	"NULL"	"NULL"	"stimuli/Ebbinghaus_-0.35714_-0.15857.png"	n/a	"Ebbinghaus"	"arrowright"	"1088"	"TRUE"	"Ebbinghaus"	"-0.357140000"	"-0.158570000"	"1"	"60"
n/a	"html-keyboard-response"	"137"	"318917"	"0.0-5.0-2.0-0.42"	"qprclq"	"711"	"1366"	"chrome"	"109.0.0"	"FALSE"	"Windows 10"	"60.98"	"016"	n/a	n/a	n/a	n/a	n/a	n/a	"fixation"	n/a	n/a	n/a	n/a	"NULL"	n/a	"NULL"	"NULL"	"NULL"	"<p style=\"color: black; font-size: 80px; padding-left: 3%; padding-right: 50%; padding-top: 45%; padding-bottom: 47%\">+</p>"	"1093"	n/a	n/a	n/a	n/a	n/a	n/a	n/a	n/a	n/a
n/a	"image-keyboard-response"	"138"	"319853"	"0.0-5.0-2.0-1.42"	"qprclq"	"711"	"1366"	"chrome"	"109.0.0"	"FALSE"	"Windows 10"	"60.98"	"016"	n/a	n/a	n/a	n/a	n/a	n/a	"Trial"	n/a	n/a	n/a	"933"	"arrowright"	n/a	"NULL"	"NULL"	"NULL"	"stimuli/Ebbinghaus_-0.1000_0.11071.png"	n/a	"Ebbinghaus"	"arrowleft"	"1114"	"FALSE"	"Ebbinghaus"	"-0.100000000"	"0.1107100000"	"1"	"61"
n/a	"html-keyboard-response"	"139"	"321346"	"0.0-5.0-2.0-0.43"	"qprclq"	"711"	"1366"	"chrome"	"109.0.0"	"FALSE"	"Windows 10"	"60.98"	"016"	n/a	n/a	n/a	n/a	n/a	n/a	"fixation"	n/a	n/a	n/a	n/a	"NULL"	n/a	"NULL"	"NULL"	"NULL"	"<p style=\"color: black; font-size: 80px; padding-left: 22%; padding-right: 43%; padding-top: 21%; padding-bottom: 4%\">+</p>"	"1480"	n/a	n/a	n/a	n/a	n/a	n/a	n/a	n/a	n/a
n/a	"image-keyboard-response"	"140"	"322051"	"0.0-5.0-2.0-1.43"	"qprclq"	"711"	"1366"	"chrome"	"109.0.0"	"FALSE"	"Windows 10"	"60.98"	"016"	n/a	n/a	n/a	n/a	n/a	n/a	"Trial"	n/a	n/a	n/a	"703"	"arrowright"	n/a	"NULL"	"NULL"	"NULL"	"stimuli/Ebbinghaus_-0.87143_-0.2150.png"	n/a	"Ebbinghaus"	"arrowright"	"1493"	"TRUE"	"Ebbinghaus"	"-0.871430000"	"-0.215000000"	"1"	"62"
n/a	"html-keyboard-response"	"141"	"323202"	"0.0-5.0-2.0-0.44"	"qprclq"	"711"	"1366"	"chrome"	"109.0.0"	"FALSE"	"Windows 10"	"60.98"	"016"	n/a	n/a	n/a	n/a	n/a	n/a	"fixation"	n/a	n/a	n/a	n/a	"NULL"	n/a	"NULL"	"NULL"	"NULL"	"<p style=\"color: black; font-size: 80px; padding-left: 18%; padding-right: 26%; padding-top: 41%; padding-bottom: 11%\">+</p>"	"1143"	n/a	n/a	n/a	n/a	n/a	n/a	n/a	n/a	n/a
n/a	"image-keyboard-response"	"142"	"323738"	"0.0-5.0-2.0-1.44"	"qprclq"	"711"	"1366"	"chrome"	"109.0.0"	"FALSE"	"Windows 10"	"60.98"	"016"	n/a	n/a	n/a	n/a	n/a	n/a	"Trial"	n/a	n/a	n/a	"535"	"arrowright"	n/a	"NULL"	"NULL"	"NULL"	"stimuli/Ebbinghaus_-0.35714_-0.2150.png"	n/a	"Ebbinghaus"	"arrowright"	"1151"	"TRUE"	"Ebbinghaus"	"-0.357140000"	"-0.215000000"	"1"	"63"
n/a	"html-keyboard-response"	"143"	"325032"	"0.0-5.0-2.0-0.45"	"qprclq"	"711"	"1366"	"chrome"	"109.0.0"	"FALSE"	"Windows 10"	"60.98"	"016"	n/a	n/a	n/a	n/a	n/a	n/a	"fixation"	n/a	n/a	n/a	n/a	"NULL"	n/a	"NULL"	"NULL"	"NULL"	"<p style=\"color: black; font-size: 80px; padding-left: 49%; padding-right: 17%; padding-top: 3%; padding-bottom: 7%\">+</p>"	"1278"	n/a	n/a	n/a	n/a	n/a	n/a	n/a	n/a	n/a
n/a	"image-keyboard-response"	"144"	"325523"	"0.0-5.0-2.0-1.45"	"qprclq"	"711"	"1366"	"chrome"	"109.0.0"	"FALSE"	"Windows 10"	"60.98"	"016"	n/a	n/a	n/a	n/a	n/a	n/a	"Trial"	n/a	n/a	n/a	"489"	"arrowright"	n/a	"NULL"	"NULL"	"NULL"	"stimuli/Ebbinghaus_-0.87143_-0.15857.png"	n/a	"Ebbinghaus"	"arrowright"	"1294"	"TRUE"	"Ebbinghaus"	"-0.871430000"	"-0.158570000"	"1"	"64"
n/a	"html-keyboard-response"	"145"	"326751"	"0.0-5.0-2.0-0.46"	"qprclq"	"711"	"1366"	"chrome"	"109.0.0"	"FALSE"	"Windows 10"	"60.98"	"016"	n/a	n/a	n/a	n/a	n/a	n/a	"fixation"	n/a	n/a	n/a	n/a	"NULL"	n/a	"NULL"	"NULL"	"NULL"	"<p style=\"color: black; font-size: 80px; padding-left: 13%; padding-right: 45%; padding-top: 40%; padding-bottom: 50%\">+</p>"	"1212"	n/a	n/a	n/a	n/a	n/a	n/a	n/a	n/a	n/a
n/a	"image-keyboard-response"	"146"	"327253"	"0.0-5.0-2.0-1.46"	"qprclq"	"711"	"1366"	"chrome"	"109.0.0"	"FALSE"	"Windows 10"	"60.98"	"016"	n/a	n/a	n/a	n/a	n/a	n/a	"Trial"	n/a	n/a	n/a	"500"	"arrowright"	n/a	"NULL"	"NULL"	"NULL"	"stimuli/Ebbinghaus_0.35714_-0.2800.png"	n/a	"Ebbinghaus"	"arrowright"	"1228"	"TRUE"	"Ebbinghaus"	"0.3571400000"	"-0.280000000"	"1"	"65"
n/a	"html-keyboard-response"	"147"	"328326"	"0.0-5.0-2.0-0.47"	"qprclq"	"711"	"1366"	"chrome"	"109.0.0"	"FALSE"	"Windows 10"	"60.98"	"016"	n/a	n/a	n/a	n/a	n/a	n/a	"fixation"	n/a	n/a	n/a	n/a	"NULL"	n/a	"NULL"	"NULL"	"NULL"	"<p style=\"color: black; font-size: 80px; padding-left: 14%; padding-right: 32%; padding-top: 17%; padding-bottom: 13%\">+</p>"	"1061"	n/a	n/a	n/a	n/a	n/a	n/a	n/a	n/a	n/a
n/a	"image-keyboard-response"	"148"	"328797"	"0.0-5.0-2.0-1.47"	"qprclq"	"711"	"1366"	"chrome"	"109.0.0"	"FALSE"	"Windows 10"	"60.98"	"016"	n/a	n/a	n/a	n/a	n/a	n/a	"Trial"	n/a	n/a	n/a	"469"	"arrowright"	n/a	"NULL"	"NULL"	"NULL"	"stimuli/Ebbinghaus_-0.35714_-0.2800.png"	n/a	"Ebbinghaus"	"arrowright"	"1073"	"TRUE"	"Ebbinghaus"	"-0.357140000"	"-0.280000000"	"1"	"66"
n/a	"html-keyboard-response"	"149"	"329970"	"0.0-5.0-2.0-0.48"	"qprclq"	"711"	"1366"	"chrome"	"109.0.0"	"FALSE"	"Windows 10"	"60.98"	"016"	n/a	n/a	n/a	n/a	n/a	n/a	"fixation"	n/a	n/a	n/a	n/a	"NULL"	n/a	"NULL"	"NULL"	"NULL"	"<p style=\"color: black; font-size: 80px; padding-left: 20%; padding-right: 39%; padding-top: 40%; padding-bottom: 34%\">+</p>"	"1154"	n/a	n/a	n/a	n/a	n/a	n/a	n/a	n/a	n/a
n/a	"image-keyboard-response"	"150"	"330395"	"0.0-5.0-2.0-1.48"	"qprclq"	"711"	"1366"	"chrome"	"109.0.0"	"FALSE"	"Windows 10"	"60.98"	"016"	n/a	n/a	n/a	n/a	n/a	n/a	"Trial"	n/a	n/a	n/a	"423"	"arrowright"	n/a	"NULL"	"NULL"	"NULL"	"stimuli/Ebbinghaus_0.10000_-0.2150.png"	n/a	"Ebbinghaus"	"arrowright"	"1173"	"TRUE"	"Ebbinghaus"	"0.1000000000"	"-0.215000000"	"1"	"67"
n/a	"html-keyboard-response"	"151"	"331640"	"0.0-5.0-2.0-0.49"	"qprclq"	"711"	"1366"	"chrome"	"109.0.0"	"FALSE"	"Windows 10"	"60.98"	"016"	n/a	n/a	n/a	n/a	n/a	n/a	"fixation"	n/a	n/a	n/a	n/a	"NULL"	n/a	"NULL"	"NULL"	"NULL"	"<p style=\"color: black; font-size: 80px; padding-left: 31%; padding-right: 39%; padding-top: 27%; padding-bottom: 19%\">+</p>"	"1241"	n/a	n/a	n/a	n/a	n/a	n/a	n/a	n/a	n/a
n/a	"image-keyboard-response"	"152"	"332185"	"0.0-5.0-2.0-1.49"	"qprclq"	"711"	"1366"	"chrome"	"109.0.0"	"FALSE"	"Windows 10"	"60.98"	"016"	n/a	n/a	n/a	n/a	n/a	n/a	"Trial"	n/a	n/a	n/a	"543"	"arrowleft"	n/a	"NULL"	"NULL"	"NULL"	"stimuli/Ebbinghaus_0.61429_0.15857.png"	n/a	"Ebbinghaus"	"arrowleft"	"1245"	"TRUE"	"Ebbinghaus"	"0.6142900000"	"0.1585700000"	"1"	"68"
n/a	"html-keyboard-response"	"153"	"333325"	"0.0-5.0-2.0-0.50"	"qprclq"	"711"	"1366"	"chrome"	"109.0.0"	"FALSE"	"Windows 10"	"60.98"	"016"	n/a	n/a	n/a	n/a	n/a	n/a	"fixation"	n/a	n/a	n/a	n/a	"NULL"	n/a	"NULL"	"NULL"	"NULL"	"<p style=\"color: black; font-size: 80px; padding-left: 22%; padding-right: 38%; padding-top: 17%; padding-bottom: 40%\">+</p>"	"1132"	n/a	n/a	n/a	n/a	n/a	n/a	n/a	n/a	n/a
n/a	"image-keyboard-response"	"154"	"333791"	"0.0-5.0-2.0-1.50"	"qprclq"	"711"	"1366"	"chrome"	"109.0.0"	"FALSE"	"Windows 10"	"60.98"	"016"	n/a	n/a	n/a	n/a	n/a	n/a	"Trial"	n/a	n/a	n/a	"465"	"arrowright"	n/a	"NULL"	"NULL"	"NULL"	"stimuli/Ebbinghaus_-0.1000_-0.2800.png"	n/a	"Ebbinghaus"	"arrowright"	"1140"	"TRUE"	"Ebbinghaus"	"-0.100000000"	"-0.280000000"	"1"	"69"
n/a	"html-keyboard-response"	"155"	"335258"	"0.0-5.0-2.0-0.51"	"qprclq"	"711"	"1366"	"chrome"	"109.0.0"	"FALSE"	"Windows 10"	"60.98"	"016"	n/a	n/a	n/a	n/a	n/a	n/a	"fixation"	n/a	n/a	n/a	n/a	"NULL"	n/a	"NULL"	"NULL"	"NULL"	"<p style=\"color: black; font-size: 80px; padding-left: 19%; padding-right: 30%; padding-top: 46%; padding-bottom: 37%\">+</p>"	"1460"	n/a	n/a	n/a	n/a	n/a	n/a	n/a	n/a	n/a
n/a	"image-keyboard-response"	"156"	"335954"	"0.0-5.0-2.0-1.51"	"qprclq"	"711"	"1366"	"chrome"	"109.0.0"	"FALSE"	"Windows 10"	"60.98"	"016"	n/a	n/a	n/a	n/a	n/a	n/a	"Trial"	n/a	n/a	n/a	"695"	"arrowleft"	n/a	"NULL"	"NULL"	"NULL"	"stimuli/Ebbinghaus_-0.1000_0.21500.png"	n/a	"Ebbinghaus"	"arrowleft"	"1467"	"TRUE"	"Ebbinghaus"	"-0.100000000"	"0.2150000000"	"1"	"70"
n/a	"html-keyboard-response"	"157"	"337322"	"0.0-5.0-2.0-0.52"	"qprclq"	"711"	"1366"	"chrome"	"109.0.0"	"FALSE"	"Windows 10"	"60.98"	"016"	n/a	n/a	n/a	n/a	n/a	n/a	"fixation"	n/a	n/a	n/a	n/a	"NULL"	n/a	"NULL"	"NULL"	"NULL"	"<p style=\"color: black; font-size: 80px; padding-left: 23%; padding-right: 0%; padding-top: 26%; padding-bottom: 35%\">+</p>"	"1347"	n/a	n/a	n/a	n/a	n/a	n/a	n/a	n/a	n/a
n/a	"image-keyboard-response"	"158"	"337767"	"0.0-5.0-2.0-1.52"	"qprclq"	"711"	"1366"	"chrome"	"109.0.0"	"FALSE"	"Windows 10"	"60.98"	"016"	n/a	n/a	n/a	n/a	n/a	n/a	"Trial"	n/a	n/a	n/a	"444"	"arrowright"	n/a	"NULL"	"NULL"	"NULL"	"stimuli/Ebbinghaus_0.61429_-0.2800.png"	n/a	"Ebbinghaus"	"arrowright"	"1368"	"TRUE"	"Ebbinghaus"	"0.6142900000"	"-0.280000000"	"1"	"71"
n/a	"html-keyboard-response"	"159"	"338919"	"0.0-5.0-2.0-0.53"	"qprclq"	"711"	"1366"	"chrome"	"109.0.0"	"FALSE"	"Windows 10"	"60.98"	"016"	n/a	n/a	n/a	n/a	n/a	n/a	"fixation"	n/a	n/a	n/a	n/a	"NULL"	n/a	"NULL"	"NULL"	"NULL"	"<p style=\"color: black; font-size: 80px; padding-left: 37%; padding-right: 33%; padding-top: 19%; padding-bottom: 21%\">+</p>"	"1135"	n/a	n/a	n/a	n/a	n/a	n/a	n/a	n/a	n/a
n/a	"image-keyboard-response"	"160"	"339600"	"0.0-5.0-2.0-1.53"	"qprclq"	"711"	"1366"	"chrome"	"109.0.0"	"FALSE"	"Windows 10"	"60.98"	"016"	n/a	n/a	n/a	n/a	n/a	n/a	"Trial"	n/a	n/a	n/a	"678"	"arrowleft"	n/a	"NULL"	"NULL"	"NULL"	"stimuli/Ebbinghaus_-0.87143_0.11071.png"	n/a	"Ebbinghaus"	"arrowleft"	"1152"	"TRUE"	"Ebbinghaus"	"-0.871430000"	"0.1107100000"	"1"	"72"
n/a	"html-keyboard-response"	"161"	"340655"	"0.0-5.0-2.0-0.54"	"qprclq"	"711"	"1366"	"chrome"	"109.0.0"	"FALSE"	"Windows 10"	"60.98"	"016"	n/a	n/a	n/a	n/a	n/a	n/a	"fixation"	n/a	n/a	n/a	n/a	"NULL"	n/a	"NULL"	"NULL"	"NULL"	"<p style=\"color: black; font-size: 80px; padding-left: 21%; padding-right: 33%; padding-top: 35%; padding-bottom: 2%\">+</p>"	"1052"	n/a	n/a	n/a	n/a	n/a	n/a	n/a	n/a	n/a
n/a	"image-keyboard-response"	"162"	"341443"	"0.0-5.0-2.0-1.54"	"qprclq"	"711"	"1366"	"chrome"	"109.0.0"	"FALSE"	"Windows 10"	"60.98"	"016"	n/a	n/a	n/a	n/a	n/a	n/a	"Trial"	n/a	n/a	n/a	"786"	"arrowleft"	n/a	"NULL"	"NULL"	"NULL"	"stimuli/Ebbinghaus_0.35714_0.21500.png"	n/a	"Ebbinghaus"	"arrowleft"	"1055"	"TRUE"	"Ebbinghaus"	"0.3571400000"	"0.2150000000"	"1"	"73"
n/a	"html-keyboard-response"	"163"	"342672"	"0.0-5.0-2.0-0.55"	"qprclq"	"711"	"1366"	"chrome"	"109.0.0"	"FALSE"	"Windows 10"	"60.98"	"016"	n/a	n/a	n/a	n/a	n/a	n/a	"fixation"	n/a	n/a	n/a	n/a	"NULL"	n/a	"NULL"	"NULL"	"NULL"	"<p style=\"color: black; font-size: 80px; padding-left: 48%; padding-right: 41%; padding-top: 28%; padding-bottom: 42%\">+</p>"	"1217"	n/a	n/a	n/a	n/a	n/a	n/a	n/a	n/a	n/a
n/a	"image-keyboard-response"	"164"	"343387"	"0.0-5.0-2.0-1.55"	"qprclq"	"711"	"1366"	"chrome"	"109.0.0"	"FALSE"	"Windows 10"	"60.98"	"016"	n/a	n/a	n/a	n/a	n/a	n/a	"Trial"	n/a	n/a	n/a	"715"	"arrowright"	n/a	"NULL"	"NULL"	"NULL"	"stimuli/Ebbinghaus_0.35714_0.15857.png"	n/a	"Ebbinghaus"	"arrowleft"	"1229"	"FALSE"	"Ebbinghaus"	"0.3571400000"	"0.1585700000"	"1"	"74"
n/a	"html-keyboard-response"	"165"	"344820"	"0.0-5.0-2.0-0.56"	"qprclq"	"711"	"1366"	"chrome"	"109.0.0"	"FALSE"	"Windows 10"	"60.98"	"016"	n/a	n/a	n/a	n/a	n/a	n/a	"fixation"	n/a	n/a	n/a	n/a	"NULL"	n/a	"NULL"	"NULL"	"NULL"	"<p style=\"color: black; font-size: 80px; padding-left: 18%; padding-right: 14%; padding-top: 22%; padding-bottom: 15%\">+</p>"	"1417"	n/a	n/a	n/a	n/a	n/a	n/a	n/a	n/a	n/a
n/a	"image-keyboard-response"	"166"	"345369"	"0.0-5.0-2.0-1.56"	"qprclq"	"711"	"1366"	"chrome"	"109.0.0"	"FALSE"	"Windows 10"	"60.98"	"016"	n/a	n/a	n/a	n/a	n/a	n/a	"Trial"	n/a	n/a	n/a	"548"	"arrowleft"	n/a	"NULL"	"NULL"	"NULL"	"stimuli/Ebbinghaus_0.87143_0.21500.png"	n/a	"Ebbinghaus"	"arrowleft"	"1433"	"TRUE"	"Ebbinghaus"	"0.8714300000"	"0.2150000000"	"1"	"75"
n/a	"html-keyboard-response"	"167"	"346844"	"0.0-5.0-2.0-0.57"	"qprclq"	"711"	"1366"	"chrome"	"109.0.0"	"FALSE"	"Windows 10"	"60.98"	"016"	n/a	n/a	n/a	n/a	n/a	n/a	"fixation"	n/a	n/a	n/a	n/a	"NULL"	n/a	"NULL"	"NULL"	"NULL"	"<p style=\"color: black; font-size: 80px; padding-left: 50%; padding-right: 21%; padding-top: 20%; padding-bottom: 3%\">+</p>"	"1466"	n/a	n/a	n/a	n/a	n/a	n/a	n/a	n/a	n/a
n/a	"image-keyboard-response"	"168"	"347599"	"0.0-5.0-2.0-1.57"	"qprclq"	"711"	"1366"	"chrome"	"109.0.0"	"FALSE"	"Windows 10"	"60.98"	"016"	n/a	n/a	n/a	n/a	n/a	n/a	"Trial"	n/a	n/a	n/a	"753"	"arrowleft"	n/a	"NULL"	"NULL"	"NULL"	"stimuli/Ebbinghaus_0.61429_0.11071.png"	n/a	"Ebbinghaus"	"arrowleft"	"1475"	"TRUE"	"Ebbinghaus"	"0.6142900000"	"0.1107100000"	"1"	"76"
n/a	"html-keyboard-response"	"169"	"348844"	"0.0-5.0-2.0-0.58"	"qprclq"	"711"	"1366"	"chrome"	"109.0.0"	"FALSE"	"Windows 10"	"60.98"	"016"	n/a	n/a	n/a	n/a	n/a	n/a	"fixation"	n/a	n/a	n/a	n/a	"NULL"	n/a	"NULL"	"NULL"	"NULL"	"<p style=\"color: black; font-size: 80px; padding-left: 43%; padding-right: 15%; padding-top: 7%; padding-bottom: 37%\">+</p>"	"1235"	n/a	n/a	n/a	n/a	n/a	n/a	n/a	n/a	n/a
n/a	"image-keyboard-response"	"170"	"349499"	"0.0-5.0-2.0-1.58"	"qprclq"	"711"	"1366"	"chrome"	"109.0.0"	"FALSE"	"Windows 10"	"60.98"	"016"	n/a	n/a	n/a	n/a	n/a	n/a	"Trial"	n/a	n/a	n/a	"654"	"arrowleft"	n/a	"NULL"	"NULL"	"NULL"	"stimuli/Ebbinghaus_-0.87143_0.15857.png"	n/a	"Ebbinghaus"	"arrowleft"	"1245"	"TRUE"	"Ebbinghaus"	"-0.871430000"	"0.1585700000"	"1"	"77"
n/a	"html-keyboard-response"	"171"	"350890"	"0.0-5.0-2.0-0.59"	"qprclq"	"711"	"1366"	"chrome"	"109.0.0"	"FALSE"	"Windows 10"	"60.98"	"016"	n/a	n/a	n/a	n/a	n/a	n/a	"fixation"	n/a	n/a	n/a	n/a	"NULL"	n/a	"NULL"	"NULL"	"NULL"	"<p style=\"color: black; font-size: 80px; padding-left: 12%; padding-right: 34%; padding-top: 27%; padding-bottom: 10%\">+</p>"	"1372"	n/a	n/a	n/a	n/a	n/a	n/a	n/a	n/a	n/a
n/a	"image-keyboard-response"	"172"	"351386"	"0.0-5.0-2.0-1.59"	"qprclq"	"711"	"1366"	"chrome"	"109.0.0"	"FALSE"	"Windows 10"	"60.98"	"016"	n/a	n/a	n/a	n/a	n/a	n/a	"Trial"	n/a	n/a	n/a	"494"	"arrowright"	n/a	"NULL"	"NULL"	"NULL"	"stimuli/Ebbinghaus_-0.61429_-0.2800.png"	n/a	"Ebbinghaus"	"arrowright"	"1391"	"TRUE"	"Ebbinghaus"	"-0.614290000"	"-0.280000000"	"1"	"78"
n/a	"html-keyboard-response"	"173"	"352762"	"0.0-5.0-2.0-0.60"	"qprclq"	"711"	"1366"	"chrome"	"109.0.0"	"FALSE"	"Windows 10"	"60.98"	"016"	n/a	n/a	n/a	n/a	n/a	n/a	"fixation"	n/a	n/a	n/a	n/a	"NULL"	n/a	"NULL"	"NULL"	"NULL"	"<p style=\"color: black; font-size: 80px; padding-left: 3%; padding-right: 14%; padding-top: 9%; padding-bottom: 23%\">+</p>"	"1360"	n/a	n/a	n/a	n/a	n/a	n/a	n/a	n/a	n/a
n/a	"image-keyboard-response"	"174"	"353510"	"0.0-5.0-2.0-1.60"	"qprclq"	"711"	"1366"	"chrome"	"109.0.0"	"FALSE"	"Windows 10"	"60.98"	"016"	n/a	n/a	n/a	n/a	n/a	n/a	"Trial"	n/a	n/a	n/a	"747"	"arrowright"	n/a	"NULL"	"NULL"	"NULL"	"stimuli/Ebbinghaus_0.87143_-0.2150.png"	n/a	"Ebbinghaus"	"arrowright"	"1376"	"TRUE"	"Ebbinghaus"	"0.8714300000"	"-0.215000000"	"1"	"79"
n/a	"html-keyboard-response"	"175"	"354983"	"0.0-5.0-2.0-0.61"	"qprclq"	"711"	"1366"	"chrome"	"109.0.0"	"FALSE"	"Windows 10"	"60.98"	"016"	n/a	n/a	n/a	n/a	n/a	n/a	"fixation"	n/a	n/a	n/a	n/a	"NULL"	n/a	"NULL"	"NULL"	"NULL"	"<p style=\"color: black; font-size: 80px; padding-left: 21%; padding-right: 48%; padding-top: 5%; padding-bottom: 41%\">+</p>"	"1455"	n/a	n/a	n/a	n/a	n/a	n/a	n/a	n/a	n/a
n/a	"image-keyboard-response"	"176"	"355465"	"0.0-5.0-2.0-1.61"	"qprclq"	"711"	"1366"	"chrome"	"109.0.0"	"FALSE"	"Windows 10"	"60.98"	"016"	n/a	n/a	n/a	n/a	n/a	n/a	"Trial"	n/a	n/a	n/a	"482"	"arrowright"	n/a	"NULL"	"NULL"	"NULL"	"stimuli/Ebbinghaus_0.87143_-0.11071.png"	n/a	"Ebbinghaus"	"arrowright"	"1473"	"TRUE"	"Ebbinghaus"	"0.8714300000"	"-0.110710000"	"1"	"80"
n/a	"html-keyboard-response"	"177"	"356708"	"0.0-5.0-2.0-0.62"	"qprclq"	"711"	"1366"	"chrome"	"109.0.0"	"FALSE"	"Windows 10"	"60.98"	"016"	n/a	n/a	n/a	n/a	n/a	n/a	"fixation"	n/a	n/a	n/a	n/a	"NULL"	n/a	"NULL"	"NULL"	"NULL"	"<p style=\"color: black; font-size: 80px; padding-left: 12%; padding-right: 14%; padding-top: 28%; padding-bottom: 38%\">+</p>"	"1225"	n/a	n/a	n/a	n/a	n/a	n/a	n/a	n/a	n/a
n/a	"image-keyboard-response"	"178"	"357441"	"0.0-5.0-2.0-1.62"	"qprclq"	"711"	"1366"	"chrome"	"109.0.0"	"FALSE"	"Windows 10"	"60.98"	"016"	n/a	n/a	n/a	n/a	n/a	n/a	"Trial"	n/a	n/a	n/a	"731"	"arrowright"	n/a	"NULL"	"NULL"	"NULL"	"stimuli/Ebbinghaus_0.61429_-0.11071.png"	n/a	"Ebbinghaus"	"arrowright"	"1243"	"TRUE"	"Ebbinghaus"	"0.6142900000"	"-0.110710000"	"1"	"81"
n/a	"html-keyboard-response"	"179"	"358763"	"0.0-5.0-2.0-0.63"	"qprclq"	"711"	"1366"	"chrome"	"109.0.0"	"FALSE"	"Windows 10"	"60.98"	"016"	n/a	n/a	n/a	n/a	n/a	n/a	"fixation"	n/a	n/a	n/a	n/a	"NULL"	n/a	"NULL"	"NULL"	"NULL"	"<p style=\"color: black; font-size: 80px; padding-left: 39%; padding-right: 18%; padding-top: 21%; padding-bottom: 9%\">+</p>"	"1301"	n/a	n/a	n/a	n/a	n/a	n/a	n/a	n/a	n/a
n/a	"image-keyboard-response"	"180"	"359258"	"0.0-5.0-2.0-1.63"	"qprclq"	"711"	"1366"	"chrome"	"109.0.0"	"FALSE"	"Windows 10"	"60.98"	"016"	n/a	n/a	n/a	n/a	n/a	n/a	"Trial"	n/a	n/a	n/a	"493"	"arrowright"	n/a	"NULL"	"NULL"	"NULL"	"stimuli/Ebbinghaus_0.35714_-0.15857.png"	n/a	"Ebbinghaus"	"arrowright"	"1322"	"TRUE"	"Ebbinghaus"	"0.3571400000"	"-0.158570000"	"1"	"82"
n/a	"html-button-response"	"181"	"364081"	"0.0-5.0-3.0"	"qprclq"	"711"	"1366"	"chrome"	"109.0.0"	"FALSE"	"Windows 10"	"60.98"	"016"	n/a	n/a	n/a	n/a	n/a	n/a	"block_results"	n/a	n/a	n/a	"4820"	"0"	n/a	"NULL"	"NULL"	"NULL"	"<p>Your score for this illusion is <p style=\"color: black; font-size: 48px; font-weight: bold;\">78.7 %</p><hr><p>Can you do better in the next illusion?</p>"	n/a	n/a	n/a	n/a	n/a	n/a	n/a	n/a	n/a	n/a
"TRUE"	"preload"	"182"	"364282"	"0.0-6.0-0.0"	"qprclq"	"711"	"1366"	"chrome"	"109.0.0"	"FALSE"	"Windows 10"	"60.98"	"016"	n/a	n/a	n/a	n/a	n/a	n/a	n/a	n/a	n/a	n/a	n/a	"NULL"	"FALSE"	"list()"	"list()"	"list()"	n/a	n/a	n/a	n/a	n/a	n/a	n/a	n/a	n/a	n/a	n/a
n/a	"html-keyboard-response"	"183"	"369307"	"0.0-6.0-1.0"	"qprclq"	"711"	"1366"	"chrome"	"109.0.0"	"FALSE"	"Windows 10"	"60.98"	"016"	n/a	n/a	n/a	n/a	n/a	n/a	n/a	n/a	n/a	n/a	"5023"	"enter"	n/a	"NULL"	"NULL"	"NULL"	"<p><b>Part 2/6</b></p><p>In this part, two horizontal red lines will appear one above the other.</p><p>Your task is to select which <b>line is longer</b> in length as fast as you can, without making errors.</p><p>Don't get distracted by the surrounding black arrows at the end of the red lines!</p><p>Press <b>the UP or the DOWN arrow</b> to indicate where is the longer <b>red line.</b></p><div style='float: center'><img src='materials/instructions/MullerLyer_Demo.png' height='300'></img><p><img src='utils/answer/answer_updown_keyboard.PNG' height='150'></img></p><p class='small'>In this example, the correct answer is the <b>UP arrow</b>.</p></div><p>Are you ready? <b>Press ENTER to start</b></p>"	n/a	n/a	n/a	n/a	n/a	n/a	n/a	n/a	n/a	n/a
n/a	"html-keyboard-response"	"184"	"371235"	"0.0-6.0-2.0-0.0"	"qprclq"	"711"	"1366"	"chrome"	"109.0.0"	"FALSE"	"Windows 10"	"60.98"	"016"	n/a	n/a	n/a	n/a	n/a	n/a	"fixation"	n/a	n/a	n/a	n/a	"NULL"	n/a	"NULL"	"NULL"	"NULL"	"<p style=\"color: black; font-size: 80px; padding-left: 6%; padding-right: 9%; padding-top: 50%; padding-bottom: 40%\">+</p>"	"1389"	n/a	n/a	n/a	n/a	n/a	n/a	n/a	n/a	n/a
n/a	"image-keyboard-response"	"185"	"371810"	"0.0-6.0-2.0-1.0"	"qprclq"	"711"	"1366"	"chrome"	"109.0.0"	"FALSE"	"Windows 10"	"60.98"	"016"	n/a	n/a	n/a	n/a	n/a	n/a	"Trial"	n/a	n/a	n/a	"573"	"arrowup"	n/a	"NULL"	"NULL"	"NULL"	"stimuli/MullerLyer_14.12857_0.35000.png"	n/a	"MullerLyer"	"arrowup"	"1928"	"TRUE"	"MullerLyer"	"14.128570000"	"0.3500000000"	"2"	"1"
n/a	"html-keyboard-response"	"186"	"373156"	"0.0-6.0-2.0-0.1"	"qprclq"	"711"	"1366"	"chrome"	"109.0.0"	"FALSE"	"Windows 10"	"60.98"	"016"	n/a	n/a	n/a	n/a	n/a	n/a	"fixation"	n/a	n/a	n/a	n/a	"NULL"	n/a	"NULL"	"NULL"	"NULL"	"<p style=\"color: black; font-size: 80px; padding-left: 37%; padding-right: 19%; padding-top: 6%; padding-bottom: 13%\">+</p>"	"1337"	n/a	n/a	n/a	n/a	n/a	n/a	n/a	n/a	n/a
n/a	"image-keyboard-response"	"187"	"373876"	"0.0-6.0-2.0-1.1"	"qprclq"	"711"	"1366"	"chrome"	"109.0.0"	"FALSE"	"Windows 10"	"60.98"	"016"	n/a	n/a	n/a	n/a	n/a	n/a	"Trial"	n/a	n/a	n/a	"719"	"arrowdown"	n/a	"NULL"	"NULL"	"NULL"	"stimuli/MullerLyer_20.04286_0.23665.png"	n/a	"MullerLyer"	"arrowup"	"1346"	"FALSE"	"MullerLyer"	"20.042860000"	"0.2366500000"	"2"	"2"
n/a	"html-keyboard-response"	"188"	"375188"	"0.0-6.0-2.0-0.2"	"qprclq"	"711"	"1366"	"chrome"	"109.0.0"	"FALSE"	"Windows 10"	"60.98"	"016"	n/a	n/a	n/a	n/a	n/a	n/a	"fixation"	n/a	n/a	n/a	n/a	"NULL"	n/a	"NULL"	"NULL"	"NULL"	"<p style=\"color: black; font-size: 80px; padding-left: 38%; padding-right: 35%; padding-top: 37%; padding-bottom: 39%\">+</p>"	"1298"	n/a	n/a	n/a	n/a	n/a	n/a	n/a	n/a	n/a
n/a	"image-keyboard-response"	"189"	"375926"	"0.0-6.0-2.0-1.2"	"qprclq"	"711"	"1366"	"chrome"	"109.0.0"	"FALSE"	"Windows 10"	"60.98"	"016"	n/a	n/a	n/a	n/a	n/a	n/a	"Trial"	n/a	n/a	n/a	"737"	"arrowup"	n/a	"NULL"	"NULL"	"NULL"	"stimuli/MullerLyer_8.21429_-0.14541.png"	n/a	"MullerLyer"	"arrowdown"	"1312"	"FALSE"	"MullerLyer"	"8.2142900000"	"-0.145410000"	"2"	"3"
n/a	"html-keyboard-response"	"190"	"377019"	"0.0-6.0-2.0-0.3"	"qprclq"	"711"	"1366"	"chrome"	"109.0.0"	"FALSE"	"Windows 10"	"60.98"	"016"	n/a	n/a	n/a	n/a	n/a	n/a	"fixation"	n/a	n/a	n/a	n/a	"NULL"	n/a	"NULL"	"NULL"	"NULL"	"<p style=\"color: black; font-size: 80px; padding-left: 35%; padding-right: 31%; padding-top: 36%; padding-bottom: 20%\">+</p>"	"1073"	n/a	n/a	n/a	n/a	n/a	n/a	n/a	n/a	n/a
n/a	"image-keyboard-response"	"191"	"377650"	"0.0-6.0-2.0-1.3"	"qprclq"	"711"	"1366"	"chrome"	"109.0.0"	"FALSE"	"Windows 10"	"60.98"	"016"	n/a	n/a	n/a	n/a	n/a	n/a	"Trial"	n/a	n/a	n/a	"629"	"arrowup"	n/a	"NULL"	"NULL"	"NULL"	"stimuli/MullerLyer_-8.21429_0.23665.png"	n/a	"MullerLyer"	"arrowup"	"1093"	"TRUE"	"MullerLyer"	"-8.214290000"	"0.2366500000"	"2"	"4"
n/a	"html-keyboard-response"	"192"	"378830"	"0.0-6.0-2.0-0.4"	"qprclq"	"711"	"1366"	"chrome"	"109.0.0"	"FALSE"	"Windows 10"	"60.98"	"016"	n/a	n/a	n/a	n/a	n/a	n/a	"fixation"	n/a	n/a	n/a	n/a	"NULL"	n/a	"NULL"	"NULL"	"NULL"	"<p style=\"color: black; font-size: 80px; padding-left: 17%; padding-right: 50%; padding-top: 21%; padding-bottom: 2%\">+</p>"	"1165"	n/a	n/a	n/a	n/a	n/a	n/a	n/a	n/a	n/a
n/a	"image-keyboard-response"	"193"	"379389"	"0.0-6.0-2.0-1.4"	"qprclq"	"711"	"1366"	"chrome"	"109.0.0"	"FALSE"	"Windows 10"	"60.98"	"016"	n/a	n/a	n/a	n/a	n/a	n/a	"Trial"	n/a	n/a	n/a	"558"	"arrowup"	n/a	"NULL"	"NULL"	"NULL"	"stimuli/MullerLyer_-14.12857_0.23665.png"	n/a	"MullerLyer"	"arrowup"	"1180"	"TRUE"	"MullerLyer"	"-14.12857000"	"0.2366500000"	"2"	"5"
n/a	"html-keyboard-response"	"194"	"380471"	"0.0-6.0-2.0-0.5"	"qprclq"	"711"	"1366"	"chrome"	"109.0.0"	"FALSE"	"Windows 10"	"60.98"	"016"	n/a	n/a	n/a	n/a	n/a	n/a	"fixation"	n/a	n/a	n/a	n/a	"NULL"	n/a	"NULL"	"NULL"	"NULL"	"<p style=\"color: black; font-size: 80px; padding-left: 39%; padding-right: 47%; padding-top: 39%; padding-bottom: 36%\">+</p>"	"1078"	n/a	n/a	n/a	n/a	n/a	n/a	n/a	n/a	n/a
n/a	"image-keyboard-response"	"195"	"381041"	"0.0-6.0-2.0-1.5"	"qprclq"	"711"	"1366"	"chrome"	"109.0.0"	"FALSE"	"Windows 10"	"60.98"	"016"	n/a	n/a	n/a	n/a	n/a	n/a	"Trial"	n/a	n/a	n/a	"560"	"arrowdown"	n/a	"NULL"	"NULL"	"NULL"	"stimuli/MullerLyer_-8.21429_-0.3500.png"	n/a	"MullerLyer"	"arrowdown"	"1082"	"TRUE"	"MullerLyer"	"-8.214290000"	"-0.350000000"	"2"	"6"
n/a	"html-keyboard-response"	"196"	"382177"	"0.0-6.0-2.0-0.6"	"qprclq"	"711"	"1366"	"chrome"	"109.0.0"	"FALSE"	"Windows 10"	"60.98"	"016"	n/a	n/a	n/a	n/a	n/a	n/a	"fixation"	n/a	n/a	n/a	n/a	"NULL"	n/a	"NULL"	"NULL"	"NULL"	"<p style=\"color: black; font-size: 80px; padding-left: 39%; padding-right: 22%; padding-top: 45%; padding-bottom: 41%\">+</p>"	"1121"	n/a	n/a	n/a	n/a	n/a	n/a	n/a	n/a	n/a
n/a	"image-keyboard-response"	"197"	"382867"	"0.0-6.0-2.0-1.6"	"qprclq"	"711"	"1366"	"chrome"	"109.0.0"	"FALSE"	"Windows 10"	"60.98"	"016"	n/a	n/a	n/a	n/a	n/a	n/a	"Trial"	n/a	n/a	n/a	"690"	"arrowdown"	n/a	"NULL"	"NULL"	"NULL"	"stimuli/MullerLyer_14.12857_-0.3500.png"	n/a	"MullerLyer"	"arrowdown"	"1136"	"TRUE"	"MullerLyer"	"14.128570000"	"-0.350000000"	"2"	"7"
n/a	"html-keyboard-response"	"198"	"384111"	"0.0-6.0-2.0-0.7"	"qprclq"	"711"	"1366"	"chrome"	"109.0.0"	"FALSE"	"Windows 10"	"60.98"	"016"	n/a	n/a	n/a	n/a	n/a	n/a	"fixation"	n/a	n/a	n/a	n/a	"NULL"	n/a	"NULL"	"NULL"	"NULL"	"<p style=\"color: black; font-size: 80px; padding-left: 15%; padding-right: 38%; padding-top: 34%; padding-bottom: 13%\">+</p>"	"1237"	n/a	n/a	n/a	n/a	n/a	n/a	n/a	n/a	n/a
n/a	"image-keyboard-response"	"199"	"384965"	"0.0-6.0-2.0-1.7"	"qprclq"	"711"	"1366"	"chrome"	"109.0.0"	"FALSE"	"Windows 10"	"60.98"	"016"	n/a	n/a	n/a	n/a	n/a	n/a	"Trial"	n/a	n/a	n/a	"853"	"arrowup"	n/a	"NULL"	"NULL"	"NULL"	"stimuli/MullerLyer_2.30000_-0.14541.png"	n/a	"MullerLyer"	"arrowdown"	"1244"	"FALSE"	"MullerLyer"	"2.3000000000"	"-0.145410000"	"2"	"8"
n/a	"html-keyboard-response"	"200"	"386327"	"0.0-6.0-2.0-0.8"	"qprclq"	"711"	"1366"	"chrome"	"109.0.0"	"FALSE"	"Windows 10"	"60.98"	"016"	n/a	n/a	n/a	n/a	n/a	n/a	"fixation"	n/a	n/a	n/a	n/a	"NULL"	n/a	"NULL"	"NULL"	"NULL"	"<p style=\"color: black; font-size: 80px; padding-left: 27%; padding-right: 46%; padding-top: 30%; padding-bottom: 42%\">+</p>"	"1354"	n/a	n/a	n/a	n/a	n/a	n/a	n/a	n/a	n/a
n/a	"image-keyboard-response"	"201"	"387056"	"0.0-6.0-2.0-1.8"	"qprclq"	"711"	"1366"	"chrome"	"109.0.0"	"FALSE"	"Windows 10"	"60.98"	"016"	n/a	n/a	n/a	n/a	n/a	n/a	"Trial"	n/a	n/a	n/a	"727"	"arrowdown"	n/a	"NULL"	"NULL"	"NULL"	"stimuli/MullerLyer_8.21429_-0.3500.png"	n/a	"MullerLyer"	"arrowdown"	"1362"	"TRUE"	"MullerLyer"	"8.2142900000"	"-0.350000000"	"2"	"9"
n/a	"html-keyboard-response"	"202"	"388301"	"0.0-6.0-2.0-0.9"	"qprclq"	"711"	"1366"	"chrome"	"109.0.0"	"FALSE"	"Windows 10"	"60.98"	"016"	n/a	n/a	n/a	n/a	n/a	n/a	"fixation"	n/a	n/a	n/a	n/a	"NULL"	n/a	"NULL"	"NULL"	"NULL"	"<p style=\"color: black; font-size: 80px; padding-left: 36%; padding-right: 28%; padding-top: 25%; padding-bottom: 38%\">+</p>"	"1231"	n/a	n/a	n/a	n/a	n/a	n/a	n/a	n/a	n/a
n/a	"image-keyboard-response"	"203"	"389089"	"0.0-6.0-2.0-1.9"	"qprclq"	"711"	"1366"	"chrome"	"109.0.0"	"FALSE"	"Windows 10"	"60.98"	"016"	n/a	n/a	n/a	n/a	n/a	n/a	"Trial"	n/a	n/a	n/a	"785"	"arrowup"	n/a	"NULL"	"NULL"	"NULL"	"stimuli/MullerLyer_20.04286_0.35000.png"	n/a	"MullerLyer"	"arrowup"	"1245"	"TRUE"	"MullerLyer"	"20.042860000"	"0.3500000000"	"2"	"10"
n/a	"html-keyboard-response"	"204"	"390287"	"0.0-6.0-2.0-0.10"	"qprclq"	"711"	"1366"	"chrome"	"109.0.0"	"FALSE"	"Windows 10"	"60.98"	"016"	n/a	n/a	n/a	n/a	n/a	n/a	"fixation"	n/a	n/a	n/a	n/a	"NULL"	n/a	"NULL"	"NULL"	"NULL"	"<p style=\"color: black; font-size: 80px; padding-left: 14%; padding-right: 30%; padding-top: 24%; padding-bottom: 31%\">+</p>"	"1191"	n/a	n/a	n/a	n/a	n/a	n/a	n/a	n/a	n/a
n/a	"image-keyboard-response"	"205"	"391048"	"0.0-6.0-2.0-1.10"	"qprclq"	"711"	"1366"	"chrome"	"109.0.0"	"FALSE"	"Windows 10"	"60.98"	"016"	n/a	n/a	n/a	n/a	n/a	n/a	"Trial"	n/a	n/a	n/a	"760"	"arrowup"	n/a	"NULL"	"NULL"	"NULL"	"stimuli/MullerLyer_20.04286_-0.3500.png"	n/a	"MullerLyer"	"arrowdown"	"1198"	"FALSE"	"MullerLyer"	"20.042860000"	"-0.350000000"	"2"	"11"
n/a	"html-keyboard-response"	"206"	"392437"	"0.0-6.0-2.0-0.11"	"qprclq"	"711"	"1366"	"chrome"	"109.0.0"	"FALSE"	"Windows 10"	"60.98"	"016"	n/a	n/a	n/a	n/a	n/a	n/a	"fixation"	n/a	n/a	n/a	n/a	"NULL"	n/a	"NULL"	"NULL"	"NULL"	"<p style=\"color: black; font-size: 80px; padding-left: 23%; padding-right: 43%; padding-top: 32%; padding-bottom: 5%\">+</p>"	"1374"	n/a	n/a	n/a	n/a	n/a	n/a	n/a	n/a	n/a
n/a	"image-keyboard-response"	"207"	"393021"	"0.0-6.0-2.0-1.11"	"qprclq"	"711"	"1366"	"chrome"	"109.0.0"	"FALSE"	"Windows 10"	"60.98"	"016"	n/a	n/a	n/a	n/a	n/a	n/a	"Trial"	n/a	n/a	n/a	"584"	"arrowup"	n/a	"NULL"	"NULL"	"NULL"	"stimuli/MullerLyer_14.12857_-0.07627.png"	n/a	"MullerLyer"	"arrowdown"	"1389"	"FALSE"	"MullerLyer"	"14.128570000"	"-0.076270000"	"2"	"12"
n/a	"html-keyboard-response"	"208"	"394319"	"0.0-6.0-2.0-0.12"	"qprclq"	"711"	"1366"	"chrome"	"109.0.0"	"FALSE"	"Windows 10"	"60.98"	"016"	n/a	n/a	n/a	n/a	n/a	n/a	"fixation"	n/a	n/a	n/a	n/a	"NULL"	n/a	"NULL"	"NULL"	"NULL"	"<p style=\"color: black; font-size: 80px; padding-left: 20%; padding-right: 29%; padding-top: 17%; padding-bottom: 28%\">+</p>"	"1290"	n/a	n/a	n/a	n/a	n/a	n/a	n/a	n/a	n/a
n/a	"image-keyboard-response"	"209"	"394757"	"0.0-6.0-2.0-1.12"	"qprclq"	"711"	"1366"	"chrome"	"109.0.0"	"FALSE"	"Windows 10"	"60.98"	"016"	n/a	n/a	n/a	n/a	n/a	n/a	"Trial"	n/a	n/a	n/a	"437"	"arrowup"	n/a	"NULL"	"NULL"	"NULL"	"stimuli/MullerLyer_-2.3000_0.35000.png"	n/a	"MullerLyer"	"arrowup"	"1298"	"TRUE"	"MullerLyer"	"-2.300000000"	"0.3500000000"	"2"	"13"
n/a	"html-keyboard-response"	"210"	"396213"	"0.0-6.0-2.0-0.13"	"qprclq"	"711"	"1366"	"chrome"	"109.0.0"	"FALSE"	"Windows 10"	"60.98"	"016"	n/a	n/a	n/a	n/a	n/a	n/a	"fixation"	n/a	n/a	n/a	n/a	"NULL"	n/a	"NULL"	"NULL"	"NULL"	"<p style=\"color: black; font-size: 80px; padding-left: 16%; padding-right: 34%; padding-top: 12%; padding-bottom: 4%\">+</p>"	"1435"	n/a	n/a	n/a	n/a	n/a	n/a	n/a	n/a	n/a
n/a	"image-keyboard-response"	"211"	"396769"	"0.0-6.0-2.0-1.13"	"qprclq"	"711"	"1366"	"chrome"	"109.0.0"	"FALSE"	"Windows 10"	"60.98"	"016"	n/a	n/a	n/a	n/a	n/a	n/a	"Trial"	n/a	n/a	n/a	"554"	"arrowdown"	n/a	"NULL"	"NULL"	"NULL"	"stimuli/MullerLyer_-2.3000_-0.14541.png"	n/a	"MullerLyer"	"arrowdown"	"1456"	"TRUE"	"MullerLyer"	"-2.300000000"	"-0.145410000"	"2"	"14"
n/a	"html-keyboard-response"	"212"	"398250"	"0.0-6.0-2.0-0.14"	"qprclq"	"711"	"1366"	"chrome"	"109.0.0"	"FALSE"	"Windows 10"	"60.98"	"016"	n/a	n/a	n/a	n/a	n/a	n/a	"fixation"	n/a	n/a	n/a	n/a	"NULL"	n/a	"NULL"	"NULL"	"NULL"	"<p style=\"color: black; font-size: 80px; padding-left: 44%; padding-right: 43%; padding-top: 8%; padding-bottom: 2%\">+</p>"	"1464"	n/a	n/a	n/a	n/a	n/a	n/a	n/a	n/a	n/a
n/a	"image-keyboard-response"	"213"	"398857"	"0.0-6.0-2.0-1.14"	"qprclq"	"711"	"1366"	"chrome"	"109.0.0"	"FALSE"	"Windows 10"	"60.98"	"016"	n/a	n/a	n/a	n/a	n/a	n/a	"Trial"	n/a	n/a	n/a	"602"	"arrowdown"	n/a	"NULL"	"NULL"	"NULL"	"stimuli/MullerLyer_-20.04286_-0.14541.png"	n/a	"MullerLyer"	"arrowdown"	"1481"	"TRUE"	"MullerLyer"	"-20.04286000"	"-0.145410000"	"2"	"15"
n/a	"html-keyboard-response"	"214"	"399966"	"0.0-6.0-2.0-0.15"	"qprclq"	"711"	"1366"	"chrome"	"109.0.0"	"FALSE"	"Windows 10"	"60.98"	"016"	n/a	n/a	n/a	n/a	n/a	n/a	"fixation"	n/a	n/a	n/a	n/a	"NULL"	n/a	"NULL"	"NULL"	"NULL"	"<p style=\"color: black; font-size: 80px; padding-left: 0%; padding-right: 29%; padding-top: 19%; padding-bottom: 28%\">+</p>"	"1102"	n/a	n/a	n/a	n/a	n/a	n/a	n/a	n/a	n/a
n/a	"image-keyboard-response"	"215"	"400517"	"0.0-6.0-2.0-1.15"	"qprclq"	"711"	"1366"	"chrome"	"109.0.0"	"FALSE"	"Windows 10"	"60.98"	"016"	n/a	n/a	n/a	n/a	n/a	n/a	"Trial"	n/a	n/a	n/a	"548"	"arrowup"	n/a	"NULL"	"NULL"	"NULL"	"stimuli/MullerLyer_-20.04286_0.07627.png"	n/a	"MullerLyer"	"arrowup"	"1109"	"TRUE"	"MullerLyer"	"-20.04286000"	"0.0762700000"	"2"	"16"
n/a	"html-keyboard-response"	"216"	"401553"	"0.0-6.0-2.0-0.16"	"qprclq"	"711"	"1366"	"chrome"	"109.0.0"	"FALSE"	"Windows 10"	"60.98"	"016"	n/a	n/a	n/a	n/a	n/a	n/a	"fixation"	n/a	n/a	n/a	n/a	"NULL"	n/a	"NULL"	"NULL"	"NULL"	"<p style=\"color: black; font-size: 80px; padding-left: 25%; padding-right: 9%; padding-top: 30%; padding-bottom: 29%\">+</p>"	"1026"	n/a	n/a	n/a	n/a	n/a	n/a	n/a	n/a	n/a
n/a	"image-keyboard-response"	"217"	"402260"	"0.0-6.0-2.0-1.16"	"qprclq"	"711"	"1366"	"chrome"	"109.0.0"	"FALSE"	"Windows 10"	"60.98"	"016"	n/a	n/a	n/a	n/a	n/a	n/a	"Trial"	n/a	n/a	n/a	"706"	"arrowup"	n/a	"NULL"	"NULL"	"NULL"	"stimuli/MullerLyer_-8.21429_0.14541.png"	n/a	"MullerLyer"	"arrowup"	"1036"	"TRUE"	"MullerLyer"	"-8.214290000"	"0.1454100000"	"2"	"17"
n/a	"html-keyboard-response"	"218"	"403611"	"0.0-6.0-2.0-0.17"	"qprclq"	"711"	"1366"	"chrome"	"109.0.0"	"FALSE"	"Windows 10"	"60.98"	"016"	n/a	n/a	n/a	n/a	n/a	n/a	"fixation"	n/a	n/a	n/a	n/a	"NULL"	n/a	"NULL"	"NULL"	"NULL"	"<p style=\"color: black; font-size: 80px; padding-left: 34%; padding-right: 17%; padding-top: 21%; padding-bottom: 50%\">+</p>"	"1344"	n/a	n/a	n/a	n/a	n/a	n/a	n/a	n/a	n/a
n/a	"image-keyboard-response"	"219"	"404223"	"0.0-6.0-2.0-1.17"	"qprclq"	"711"	"1366"	"chrome"	"109.0.0"	"FALSE"	"Windows 10"	"60.98"	"016"	n/a	n/a	n/a	n/a	n/a	n/a	"Trial"	n/a	n/a	n/a	"611"	"arrowdown"	n/a	"NULL"	"NULL"	"NULL"	"stimuli/MullerLyer_14.12857_0.07627.png"	n/a	"MullerLyer"	"arrowup"	"1351"	"FALSE"	"MullerLyer"	"14.128570000"	"0.0762700000"	"2"	"18"
n/a	"html-keyboard-response"	"220"	"405688"	"0.0-6.0-2.0-0.18"	"qprclq"	"711"	"1366"	"chrome"	"109.0.0"	"FALSE"	"Windows 10"	"60.98"	"016"	n/a	n/a	n/a	n/a	n/a	n/a	"fixation"	n/a	n/a	n/a	n/a	"NULL"	n/a	"NULL"	"NULL"	"NULL"	"<p style=\"color: black; font-size: 80px; padding-left: 3%; padding-right: 3%; padding-top: 15%; padding-bottom: 32%\">+</p>"	"1461"	n/a	n/a	n/a	n/a	n/a	n/a	n/a	n/a	n/a
n/a	"image-keyboard-response"	"221"	"406206"	"0.0-6.0-2.0-1.18"	"qprclq"	"711"	"1366"	"chrome"	"109.0.0"	"FALSE"	"Windows 10"	"60.98"	"016"	n/a	n/a	n/a	n/a	n/a	n/a	"Trial"	n/a	n/a	n/a	"518"	"arrowup"	n/a	"NULL"	"NULL"	"NULL"	"stimuli/MullerLyer_20.04286_-0.07627.png"	n/a	"MullerLyer"	"arrowdown"	"1465"	"FALSE"	"MullerLyer"	"20.042860000"	"-0.076270000"	"2"	"19"
n/a	"html-keyboard-response"	"222"	"407381"	"0.0-6.0-2.0-0.19"	"qprclq"	"711"	"1366"	"chrome"	"109.0.0"	"FALSE"	"Windows 10"	"60.98"	"016"	n/a	n/a	n/a	n/a	n/a	n/a	"fixation"	n/a	n/a	n/a	n/a	"NULL"	n/a	"NULL"	"NULL"	"NULL"	"<p style=\"color: black; font-size: 80px; padding-left: 7%; padding-right: 27%; padding-top: 11%; padding-bottom: 1%\">+</p>"	"1161"	n/a	n/a	n/a	n/a	n/a	n/a	n/a	n/a	n/a
n/a	"image-keyboard-response"	"223"	"407971"	"0.0-6.0-2.0-1.19"	"qprclq"	"711"	"1366"	"chrome"	"109.0.0"	"FALSE"	"Windows 10"	"60.98"	"016"	n/a	n/a	n/a	n/a	n/a	n/a	"Trial"	n/a	n/a	n/a	"589"	"arrowup"	n/a	"NULL"	"NULL"	"NULL"	"stimuli/MullerLyer_-2.3000_0.23665.png"	n/a	"MullerLyer"	"arrowup"	"1175"	"TRUE"	"MullerLyer"	"-2.300000000"	"0.2366500000"	"2"	"20"
n/a	"html-keyboard-response"	"224"	"409124"	"0.0-6.0-2.0-0.20"	"qprclq"	"711"	"1366"	"chrome"	"109.0.0"	"FALSE"	"Windows 10"	"60.98"	"016"	n/a	n/a	n/a	n/a	n/a	n/a	"fixation"	n/a	n/a	n/a	n/a	"NULL"	n/a	"NULL"	"NULL"	"NULL"	"<p style=\"color: black; font-size: 80px; padding-left: 8%; padding-right: 21%; padding-top: 40%; padding-bottom: 14%\">+</p>"	"1142"	n/a	n/a	n/a	n/a	n/a	n/a	n/a	n/a	n/a
n/a	"image-keyboard-response"	"225"	"409688"	"0.0-6.0-2.0-1.20"	"qprclq"	"711"	"1366"	"chrome"	"109.0.0"	"FALSE"	"Windows 10"	"60.98"	"016"	n/a	n/a	n/a	n/a	n/a	n/a	"Trial"	n/a	n/a	n/a	"561"	"arrowdown"	n/a	"NULL"	"NULL"	"NULL"	"stimuli/MullerLyer_2.30000_-0.07627.png"	n/a	"MullerLyer"	"arrowdown"	"1153"	"TRUE"	"MullerLyer"	"2.3000000000"	"-0.076270000"	"2"	"21"
n/a	"html-keyboard-response"	"226"	"411110"	"0.0-6.0-2.0-0.21"	"qprclq"	"711"	"1366"	"chrome"	"109.0.0"	"FALSE"	"Windows 10"	"60.98"	"016"	n/a	n/a	n/a	n/a	n/a	n/a	"fixation"	n/a	n/a	n/a	n/a	"NULL"	n/a	"NULL"	"NULL"	"NULL"	"<p style=\"color: black; font-size: 80px; padding-left: 9%; padding-right: 23%; padding-top: 21%; padding-bottom: 39%\">+</p>"	"1409"	n/a	n/a	n/a	n/a	n/a	n/a	n/a	n/a	n/a
n/a	"image-keyboard-response"	"227"	"411643"	"0.0-6.0-2.0-1.21"	"qprclq"	"711"	"1366"	"chrome"	"109.0.0"	"FALSE"	"Windows 10"	"60.98"	"016"	n/a	n/a	n/a	n/a	n/a	n/a	"Trial"	n/a	n/a	n/a	"532"	"arrowdown"	n/a	"NULL"	"NULL"	"NULL"	"stimuli/MullerLyer_-20.04286_-0.23665.png"	n/a	"MullerLyer"	"arrowdown"	"1422"	"TRUE"	"MullerLyer"	"-20.04286000"	"-0.236650000"	"2"	"22"
n/a	"html-keyboard-response"	"228"	"413127"	"0.0-6.0-2.0-0.22"	"qprclq"	"711"	"1366"	"chrome"	"109.0.0"	"FALSE"	"Windows 10"	"60.98"	"016"	n/a	n/a	n/a	n/a	n/a	n/a	"fixation"	n/a	n/a	n/a	n/a	"NULL"	n/a	"NULL"	"NULL"	"NULL"	"<p style=\"color: black; font-size: 80px; padding-left: 25%; padding-right: 13%; padding-top: 24%; padding-bottom: 21%\">+</p>"	"1468"	n/a	n/a	n/a	n/a	n/a	n/a	n/a	n/a	n/a
n/a	"image-keyboard-response"	"229"	"413635"	"0.0-6.0-2.0-1.22"	"qprclq"	"711"	"1366"	"chrome"	"109.0.0"	"FALSE"	"Windows 10"	"60.98"	"016"	n/a	n/a	n/a	n/a	n/a	n/a	"Trial"	n/a	n/a	n/a	"507"	"arrowdown"	n/a	"NULL"	"NULL"	"NULL"	"stimuli/MullerLyer_-8.21429_-0.23665.png"	n/a	"MullerLyer"	"arrowdown"	"1484"	"TRUE"	"MullerLyer"	"-8.214290000"	"-0.236650000"	"2"	"23"
n/a	"html-keyboard-response"	"230"	"414718"	"0.0-6.0-2.0-0.23"	"qprclq"	"711"	"1366"	"chrome"	"109.0.0"	"FALSE"	"Windows 10"	"60.98"	"016"	n/a	n/a	n/a	n/a	n/a	n/a	"fixation"	n/a	n/a	n/a	n/a	"NULL"	n/a	"NULL"	"NULL"	"NULL"	"<p style=\"color: black; font-size: 80px; padding-left: 31%; padding-right: 3%; padding-top: 10%; padding-bottom: 24%\">+</p>"	"1077"	n/a	n/a	n/a	n/a	n/a	n/a	n/a	n/a	n/a
n/a	"image-keyboard-response"	"231"	"415331"	"0.0-6.0-2.0-1.23"	"qprclq"	"711"	"1366"	"chrome"	"109.0.0"	"FALSE"	"Windows 10"	"60.98"	"016"	n/a	n/a	n/a	n/a	n/a	n/a	"Trial"	n/a	n/a	n/a	"612"	"arrowdown"	n/a	"NULL"	"NULL"	"NULL"	"stimuli/MullerLyer_8.21429_-0.23665.png"	n/a	"MullerLyer"	"arrowdown"	"1083"	"TRUE"	"MullerLyer"	"8.2142900000"	"-0.236650000"	"2"	"24"
n/a	"html-keyboard-response"	"232"	"416469"	"0.0-6.0-2.0-0.24"	"qprclq"	"711"	"1366"	"chrome"	"109.0.0"	"FALSE"	"Windows 10"	"60.98"	"016"	n/a	n/a	n/a	n/a	n/a	n/a	"fixation"	n/a	n/a	n/a	n/a	"NULL"	n/a	"NULL"	"NULL"	"NULL"	"<p style=\"color: black; font-size: 80px; padding-left: 8%; padding-right: 38%; padding-top: 26%; padding-bottom: 39%\">+</p>"	"1121"	n/a	n/a	n/a	n/a	n/a	n/a	n/a	n/a	n/a
n/a	"image-keyboard-response"	"233"	"417036"	"0.0-6.0-2.0-1.24"	"qprclq"	"711"	"1366"	"chrome"	"109.0.0"	"FALSE"	"Windows 10"	"60.98"	"016"	n/a	n/a	n/a	n/a	n/a	n/a	"Trial"	n/a	n/a	n/a	"567"	"arrowup"	n/a	"NULL"	"NULL"	"NULL"	"stimuli/MullerLyer_20.04286_-0.14541.png"	n/a	"MullerLyer"	"arrowdown"	"1138"	"FALSE"	"MullerLyer"	"20.042860000"	"-0.145410000"	"2"	"25"
n/a	"html-keyboard-response"	"234"	"418109"	"0.0-6.0-2.0-0.25"	"qprclq"	"711"	"1366"	"chrome"	"109.0.0"	"FALSE"	"Windows 10"	"60.98"	"016"	n/a	n/a	n/a	n/a	n/a	n/a	"fixation"	n/a	n/a	n/a	n/a	"NULL"	n/a	"NULL"	"NULL"	"NULL"	"<p style=\"color: black; font-size: 80px; padding-left: 10%; padding-right: 6%; padding-top: 44%; padding-bottom: 28%\">+</p>"	"1064"	n/a	n/a	n/a	n/a	n/a	n/a	n/a	n/a	n/a
n/a	"image-keyboard-response"	"235"	"418592"	"0.0-6.0-2.0-1.25"	"qprclq"	"711"	"1366"	"chrome"	"109.0.0"	"FALSE"	"Windows 10"	"60.98"	"016"	n/a	n/a	n/a	n/a	n/a	n/a	"Trial"	n/a	n/a	n/a	"482"	"arrowdown"	n/a	"NULL"	"NULL"	"NULL"	"stimuli/MullerLyer_-14.12857_-0.3500.png"	n/a	"MullerLyer"	"arrowdown"	"1073"	"TRUE"	"MullerLyer"	"-14.12857000"	"-0.350000000"	"2"	"26"
n/a	"html-keyboard-response"	"236"	"419900"	"0.0-6.0-2.0-0.26"	"qprclq"	"711"	"1366"	"chrome"	"109.0.0"	"FALSE"	"Windows 10"	"60.98"	"016"	n/a	n/a	n/a	n/a	n/a	n/a	"fixation"	n/a	n/a	n/a	n/a	"NULL"	n/a	"NULL"	"NULL"	"NULL"	"<p style=\"color: black; font-size: 80px; padding-left: 32%; padding-right: 14%; padding-top: 7%; padding-bottom: 36%\">+</p>"	"1290"	n/a	n/a	n/a	n/a	n/a	n/a	n/a	n/a	n/a
n/a	"image-keyboard-response"	"237"	"420528"	"0.0-6.0-2.0-1.26"	"qprclq"	"711"	"1366"	"chrome"	"109.0.0"	"FALSE"	"Windows 10"	"60.98"	"016"	n/a	n/a	n/a	n/a	n/a	n/a	"Trial"	n/a	n/a	n/a	"627"	"arrowup"	n/a	"NULL"	"NULL"	"NULL"	"stimuli/MullerLyer_-8.21429_0.07627.png"	n/a	"MullerLyer"	"arrowup"	"1308"	"TRUE"	"MullerLyer"	"-8.214290000"	"0.0762700000"	"2"	"27"
n/a	"html-keyboard-response"	"238"	"421649"	"0.0-6.0-2.0-0.27"	"qprclq"	"711"	"1366"	"chrome"	"109.0.0"	"FALSE"	"Windows 10"	"60.98"	"016"	n/a	n/a	n/a	n/a	n/a	n/a	"fixation"	n/a	n/a	n/a	n/a	"NULL"	n/a	"NULL"	"NULL"	"NULL"	"<p style=\"color: black; font-size: 80px; padding-left: 20%; padding-right: 49%; padding-top: 37%; padding-bottom: 12%\">+</p>"	"1104"	n/a	n/a	n/a	n/a	n/a	n/a	n/a	n/a	n/a
n/a	"image-keyboard-response"	"239"	"422385"	"0.0-6.0-2.0-1.27"	"qprclq"	"711"	"1366"	"chrome"	"109.0.0"	"FALSE"	"Windows 10"	"60.98"	"016"	n/a	n/a	n/a	n/a	n/a	n/a	"Trial"	n/a	n/a	n/a	"735"	"arrowup"	n/a	"NULL"	"NULL"	"NULL"	"stimuli/MullerLyer_2.30000_0.07627.png"	n/a	"MullerLyer"	"arrowup"	"1121"	"TRUE"	"MullerLyer"	"2.3000000000"	"0.0762700000"	"2"	"28"
n/a	"html-keyboard-response"	"240"	"423611"	"0.0-6.0-2.0-0.28"	"qprclq"	"711"	"1366"	"chrome"	"109.0.0"	"FALSE"	"Windows 10"	"60.98"	"016"	n/a	n/a	n/a	n/a	n/a	n/a	"fixation"	n/a	n/a	n/a	n/a	"NULL"	n/a	"NULL"	"NULL"	"NULL"	"<p style=\"color: black; font-size: 80px; padding-left: 35%; padding-right: 12%; padding-top: 3%; padding-bottom: 32%\">+</p>"	"1208"	n/a	n/a	n/a	n/a	n/a	n/a	n/a	n/a	n/a
n/a	"image-keyboard-response"	"241"	"424262"	"0.0-6.0-2.0-1.28"	"qprclq"	"711"	"1366"	"chrome"	"109.0.0"	"FALSE"	"Windows 10"	"60.98"	"016"	n/a	n/a	n/a	n/a	n/a	n/a	"Trial"	n/a	n/a	n/a	"650"	"arrowup"	n/a	"NULL"	"NULL"	"NULL"	"stimuli/MullerLyer_-20.04286_0.35000.png"	n/a	"MullerLyer"	"arrowup"	"1226"	"TRUE"	"MullerLyer"	"-20.04286000"	"0.3500000000"	"2"	"29"
n/a	"html-keyboard-response"	"242"	"425610"	"0.0-6.0-2.0-0.29"	"qprclq"	"711"	"1366"	"chrome"	"109.0.0"	"FALSE"	"Windows 10"	"60.98"	"016"	n/a	n/a	n/a	n/a	n/a	n/a	"fixation"	n/a	n/a	n/a	n/a	"NULL"	n/a	"NULL"	"NULL"	"NULL"	"<p style=\"color: black; font-size: 80px; padding-left: 45%; padding-right: 34%; padding-top: 41%; padding-bottom: 43%\">+</p>"	"1337"	n/a	n/a	n/a	n/a	n/a	n/a	n/a	n/a	n/a
n/a	"image-keyboard-response"	"243"	"426198"	"0.0-6.0-2.0-1.29"	"qprclq"	"711"	"1366"	"chrome"	"109.0.0"	"FALSE"	"Windows 10"	"60.98"	"016"	n/a	n/a	n/a	n/a	n/a	n/a	"Trial"	n/a	n/a	n/a	"586"	"arrowdown"	n/a	"NULL"	"NULL"	"NULL"	"stimuli/MullerLyer_8.21429_0.14541.png"	n/a	"MullerLyer"	"arrowup"	"1348"	"FALSE"	"MullerLyer"	"8.2142900000"	"0.1454100000"	"2"	"30"
n/a	"html-keyboard-response"	"244"	"427447"	"0.0-6.0-2.0-0.30"	"qprclq"	"711"	"1366"	"chrome"	"109.0.0"	"FALSE"	"Windows 10"	"60.98"	"016"	n/a	n/a	n/a	n/a	n/a	n/a	"fixation"	n/a	n/a	n/a	n/a	"NULL"	n/a	"NULL"	"NULL"	"NULL"	"<p style=\"color: black; font-size: 80px; padding-left: 30%; padding-right: 31%; padding-top: 31%; padding-bottom: 3%\">+</p>"	"1242"	n/a	n/a	n/a	n/a	n/a	n/a	n/a	n/a	n/a
n/a	"image-keyboard-response"	"245"	"428084"	"0.0-6.0-2.0-1.30"	"qprclq"	"711"	"1366"	"chrome"	"109.0.0"	"FALSE"	"Windows 10"	"60.98"	"016"	n/a	n/a	n/a	n/a	n/a	n/a	"Trial"	n/a	n/a	n/a	"636"	"arrowdown"	n/a	"NULL"	"NULL"	"NULL"	"stimuli/MullerLyer_-14.12857_-0.07627.png"	n/a	"MullerLyer"	"arrowdown"	"1249"	"TRUE"	"MullerLyer"	"-14.12857000"	"-0.076270000"	"2"	"31"
n/a	"html-keyboard-response"	"246"	"429299"	"0.0-6.0-2.0-0.31"	"qprclq"	"711"	"1366"	"chrome"	"109.0.0"	"FALSE"	"Windows 10"	"60.98"	"016"	n/a	n/a	n/a	n/a	n/a	n/a	"fixation"	n/a	n/a	n/a	n/a	"NULL"	n/a	"NULL"	"NULL"	"NULL"	"<p style=\"color: black; font-size: 80px; padding-left: 7%; padding-right: 41%; padding-top: 7%; padding-bottom: 11%\">+</p>"	"1203"	n/a	n/a	n/a	n/a	n/a	n/a	n/a	n/a	n/a
n/a	"image-keyboard-response"	"247"	"429924"	"0.0-6.0-2.0-1.31"	"qprclq"	"711"	"1366"	"chrome"	"109.0.0"	"FALSE"	"Windows 10"	"60.98"	"016"	n/a	n/a	n/a	n/a	n/a	n/a	"Trial"	n/a	n/a	n/a	"624"	"arrowup"	n/a	"NULL"	"NULL"	"NULL"	"stimuli/MullerLyer_8.21429_0.23665.png"	n/a	"MullerLyer"	"arrowup"	"1215"	"TRUE"	"MullerLyer"	"8.2142900000"	"0.2366500000"	"2"	"32"
n/a	"html-keyboard-response"	"248"	"431342"	"0.0-6.0-2.0-0.32"	"qprclq"	"711"	"1366"	"chrome"	"109.0.0"	"FALSE"	"Windows 10"	"60.98"	"016"	n/a	n/a	n/a	n/a	n/a	n/a	"fixation"	n/a	n/a	n/a	n/a	"NULL"	n/a	"NULL"	"NULL"	"NULL"	"<p style=\"color: black; font-size: 80px; padding-left: 11%; padding-right: 30%; padding-top: 9%; padding-bottom: 43%\">+</p>"	"1405"	n/a	n/a	n/a	n/a	n/a	n/a	n/a	n/a	n/a
n/a	"image-keyboard-response"	"249"	"431905"	"0.0-6.0-2.0-1.32"	"qprclq"	"711"	"1366"	"chrome"	"109.0.0"	"FALSE"	"Windows 10"	"60.98"	"016"	n/a	n/a	n/a	n/a	n/a	n/a	"Trial"	n/a	n/a	n/a	"562"	"arrowup"	n/a	"NULL"	"NULL"	"NULL"	"stimuli/MullerLyer_14.12857_-0.23665.png"	n/a	"MullerLyer"	"arrowdown"	"1418"	"FALSE"	"MullerLyer"	"14.128570000"	"-0.236650000"	"2"	"33"
n/a	"html-keyboard-response"	"250"	"433356"	"0.0-6.0-2.0-0.33"	"qprclq"	"711"	"1366"	"chrome"	"109.0.0"	"FALSE"	"Windows 10"	"60.98"	"016"	n/a	n/a	n/a	n/a	n/a	n/a	"fixation"	n/a	n/a	n/a	n/a	"NULL"	n/a	"NULL"	"NULL"	"NULL"	"<p style=\"color: black; font-size: 80px; padding-left: 18%; padding-right: 36%; padding-top: 46%; padding-bottom: 35%\">+</p>"	"1429"	n/a	n/a	n/a	n/a	n/a	n/a	n/a	n/a	n/a
n/a	"image-keyboard-response"	"251"	"434056"	"0.0-6.0-2.0-1.33"	"qprclq"	"711"	"1366"	"chrome"	"109.0.0"	"FALSE"	"Windows 10"	"60.98"	"016"	n/a	n/a	n/a	n/a	n/a	n/a	"Trial"	n/a	n/a	n/a	"699"	"arrowup"	n/a	"NULL"	"NULL"	"NULL"	"stimuli/MullerLyer_2.30000_0.35000.png"	n/a	"MullerLyer"	"arrowup"	"1451"	"TRUE"	"MullerLyer"	"2.3000000000"	"0.3500000000"	"2"	"34"
n/a	"html-keyboard-response"	"252"	"435561"	"0.0-6.0-2.0-0.34"	"qprclq"	"711"	"1366"	"chrome"	"109.0.0"	"FALSE"	"Windows 10"	"60.98"	"016"	n/a	n/a	n/a	n/a	n/a	n/a	"fixation"	n/a	n/a	n/a	n/a	"NULL"	n/a	"NULL"	"NULL"	"NULL"	"<p style=\"color: black; font-size: 80px; padding-left: 25%; padding-right: 28%; padding-top: 7%; padding-bottom: 39%\">+</p>"	"1488"	n/a	n/a	n/a	n/a	n/a	n/a	n/a	n/a	n/a
n/a	"image-keyboard-response"	"253"	"436280"	"0.0-6.0-2.0-1.34"	"qprclq"	"711"	"1366"	"chrome"	"109.0.0"	"FALSE"	"Windows 10"	"60.98"	"016"	n/a	n/a	n/a	n/a	n/a	n/a	"Trial"	n/a	n/a	n/a	"718"	"arrowup"	n/a	"NULL"	"NULL"	"NULL"	"stimuli/MullerLyer_20.04286_-0.23665.png"	n/a	"MullerLyer"	"arrowdown"	"1505"	"FALSE"	"MullerLyer"	"20.042860000"	"-0.236650000"	"2"	"35"
