"success"	"trial_type"	"trial_index"	"time_elapsed"	"internal_node_id"	"participant_id"	"screen_height"	"screen_width"	"browser"	"browser_version"	"mobile"	"os"	"vsync_rate"	"subject_id"	"width"	"height"	"webaudio"	"fullscreen"	"webcam"	"microphone"	"screen"	"version"	"date"	"time"	"rt"	"response"	"timeout"	"failed_images"	"failed_audio"	"failed_video"	"stimulus"	"trial_duration"	"block"	"correct_response"	"prestimulus_duration"	"correct"	"type"	"illusion_strength"	"illusion_difference"	"block_number"	"trial_number"
"TRUE"	"fullscreen"	"0"	"2228"	"0.0-0.0"	"d401oh"	"600"	"1366"	"chrome"	"111.0.0"	"FALSE"	"Windows 10"	"60.31"	"059"	n/a	n/a	n/a	n/a	n/a	n/a	n/a	n/a	n/a	n/a	n/a	"NULL"	n/a	"NULL"	"NULL"	"NULL"	n/a	n/a	n/a	n/a	n/a	n/a	n/a	n/a	n/a	n/a	n/a
n/a	"browser-check"	"1"	"3243"	"0.0-1.0"	"d401oh"	"600"	"1366"	"chrome"	"111.0.0"	"FALSE"	"Windows 10"	"60.31"	"059"	"1366"	"600"	"TRUE"	"TRUE"	"TRUE"	"TRUE"	"browser_info"	"1.0"	"27/03/2023"	"10:55:01"	n/a	"NULL"	n/a	"NULL"	"NULL"	"NULL"	n/a	n/a	n/a	n/a	n/a	n/a	n/a	n/a	n/a	n/a	n/a
n/a	"survey-text"	"2"	"10603"	"0.0-2.0"	"d401oh"	"600"	"1366"	"chrome"	"111.0.0"	"FALSE"	"Windows 10"	"60.31"	"059"	n/a	n/a	n/a	n/a	n/a	n/a	"subject_id"	n/a	n/a	n/a	"7356"	"list(subject_id = \"059\")"	n/a	"NULL"	"NULL"	"NULL"	n/a	n/a	n/a	n/a	n/a	n/a	n/a	n/a	n/a	n/a	n/a
"TRUE"	"preload"	"3"	"10614"	"0.0-3.0"	"d401oh"	"600"	"1366"	"chrome"	"111.0.0"	"FALSE"	"Windows 10"	"60.31"	"059"	n/a	n/a	n/a	n/a	n/a	n/a	n/a	n/a	n/a	n/a	n/a	"NULL"	"FALSE"	"list()"	"list()"	"list()"	n/a	n/a	n/a	n/a	n/a	n/a	n/a	n/a	n/a	n/a	n/a
n/a	"html-button-response"	"4"	"86480"	"0.0-4.0-0.0"	"d401oh"	"600"	"1366"	"chrome"	"111.0.0"	"FALSE"	"Windows 10"	"60.31"	"059"	n/a	n/a	n/a	n/a	n/a	n/a	"illusion_instructions"	n/a	n/a	n/a	"75853"	"0"	n/a	"NULL"	"NULL"	"NULL"	"<p><b>Illusion Game</b></p><p>In this game of speed and reflex, you will need to make <b>visual judgments</b> (for instance, which circle is the biggest, or which line is the longest), as fast and as correctly as possible, while <b>resisting different visual illusions</b>.</p><p>We are going to start with some examples of all the illusions you will encounter in the game.</p>"	n/a	n/a	n/a	n/a	n/a	n/a	n/a	n/a	n/a	n/a
"TRUE"	"preload"	"5"	"86505"	"0.0-4.0-1.0-0.0"	"d401oh"	"600"	"1366"	"chrome"	"111.0.0"	"FALSE"	"Windows 10"	"60.31"	"059"	n/a	n/a	n/a	n/a	n/a	n/a	n/a	n/a	n/a	n/a	n/a	"NULL"	"FALSE"	"list()"	"list()"	"list()"	n/a	n/a	n/a	n/a	n/a	n/a	n/a	n/a	n/a	n/a	n/a
n/a	"html-keyboard-response"	"6"	"108569"	"0.0-4.0-1.0-1.0"	"d401oh"	"600"	"1366"	"chrome"	"111.0.0"	"FALSE"	"Windows 10"	"60.31"	"059"	n/a	n/a	n/a	n/a	n/a	n/a	n/a	n/a	n/a	n/a	"22062"	"enter"	n/a	"NULL"	"NULL"	"NULL"	"<p><b>Practice</b></p><p>In this part, two red circles will appear side by side on the screen.</p><p>Your task is to select which <b>red circle is bigger</b> in size as fast as you can, without making errors.</p><p>Don't get distracted by the surrounding black circles around the red circles!</p><p>Press <b>the LEFT or the RIGHT arrow</b> to indicate which is the bigger <b>red circle.</b></p><div style='float: center'><img src='materials/instructions/Ebbinghaus_Demo.png' height='300'></img><p><img src='utils/answer/answer_leftright_keyboard.PNG' height='150'></img></p><p class='small'>In this example, the correct answer is the <b>LEFT arrow</b>.</p></div><p>Are you ready? <b>Press ENTER to start</b></p>"	n/a	n/a	n/a	n/a	n/a	n/a	n/a	n/a	n/a	n/a
n/a	"html-keyboard-response"	"7"	"110546"	"0.0-4.0-1.0-2.0-0.0"	"d401oh"	"600"	"1366"	"chrome"	"111.0.0"	"FALSE"	"Windows 10"	"60.31"	"059"	n/a	n/a	n/a	n/a	n/a	n/a	"fixation"	n/a	n/a	n/a	n/a	"NULL"	n/a	"NULL"	"NULL"	"NULL"	"<p style=\"color: black; font-size: 80px; padding-left: 33%; padding-right: 42%; padding-top: 8%; padding-bottom: 32%\">+</p>"	"1459"	n/a	n/a	n/a	n/a	n/a	n/a	n/a	n/a	n/a
n/a	"image-keyboard-response"	"8"	"111445"	"0.0-4.0-1.0-2.0-1.0"	"d401oh"	"600"	"1366"	"chrome"	"111.0.0"	"FALSE"	"Windows 10"	"60.31"	"059"	n/a	n/a	n/a	n/a	n/a	n/a	"Trial"	n/a	n/a	n/a	"889"	"arrowleft"	n/a	"NULL"	"NULL"	"NULL"	"stimuli/Ebbinghaus_1000000_1.40000.png"	n/a	"Ebbinghaus"	"arrowleft"	"1977"	"TRUE"	"Ebbinghaus"	"100000000000"	"1.4000000000"	"1"	"1"
n/a	"html-keyboard-response"	"9"	"112560"	"0.0-4.0-1.0-2.0-0.1"	"d401oh"	"600"	"1366"	"chrome"	"111.0.0"	"FALSE"	"Windows 10"	"60.31"	"059"	n/a	n/a	n/a	n/a	n/a	n/a	"fixation"	n/a	n/a	n/a	n/a	"NULL"	n/a	"NULL"	"NULL"	"NULL"	"<p style=\"color: black; font-size: 80px; padding-left: 35%; padding-right: 2%; padding-top: 45%; padding-bottom: 14%\">+</p>"	"1100"	n/a	n/a	n/a	n/a	n/a	n/a	n/a	n/a	n/a
n/a	"image-keyboard-response"	"10"	"113464"	"0.0-4.0-1.0-2.0-1.1"	"d401oh"	"600"	"1366"	"chrome"	"111.0.0"	"FALSE"	"Windows 10"	"60.31"	"059"	n/a	n/a	n/a	n/a	n/a	n/a	"Trial"	n/a	n/a	n/a	"903"	"arrowleft"	n/a	"NULL"	"NULL"	"NULL"	"stimuli/Ebbinghaus_-100000_1.40000.png"	n/a	"Ebbinghaus"	"arrowleft"	"1115"	"TRUE"	"Ebbinghaus"	"-10000000000"	"1.4000000000"	"1"	"2"
n/a	"html-keyboard-response"	"11"	"114835"	"0.0-4.0-1.0-2.0-0.2"	"d401oh"	"600"	"1366"	"chrome"	"111.0.0"	"FALSE"	"Windows 10"	"60.31"	"059"	n/a	n/a	n/a	n/a	n/a	n/a	"fixation"	n/a	n/a	n/a	n/a	"NULL"	n/a	"NULL"	"NULL"	"NULL"	"<p style=\"color: black; font-size: 80px; padding-left: 5%; padding-right: 46%; padding-top: 28%; padding-bottom: 14%\">+</p>"	"1365"	n/a	n/a	n/a	n/a	n/a	n/a	n/a	n/a	n/a
n/a	"image-keyboard-response"	"12"	"115418"	"0.0-4.0-1.0-2.0-1.2"	"d401oh"	"600"	"1366"	"chrome"	"111.0.0"	"FALSE"	"Windows 10"	"60.31"	"059"	n/a	n/a	n/a	n/a	n/a	n/a	"Trial"	n/a	n/a	n/a	"583"	"arrowleft"	n/a	"NULL"	"NULL"	"NULL"	"stimuli/Ebbinghaus_0000000_1.40000.png"	n/a	"Ebbinghaus"	"arrowleft"	"1371"	"TRUE"	"Ebbinghaus"	"000000000000"	"1.4000000000"	"1"	"3"
n/a	"html-keyboard-response"	"13"	"116640"	"0.0-4.0-1.0-2.0-0.3"	"d401oh"	"600"	"1366"	"chrome"	"111.0.0"	"FALSE"	"Windows 10"	"60.31"	"059"	n/a	n/a	n/a	n/a	n/a	n/a	"fixation"	n/a	n/a	n/a	n/a	"NULL"	n/a	"NULL"	"NULL"	"NULL"	"<p style=\"color: black; font-size: 80px; padding-left: 6%; padding-right: 1%; padding-top: 29%; padding-bottom: 16%\">+</p>"	"1214"	n/a	n/a	n/a	n/a	n/a	n/a	n/a	n/a	n/a
n/a	"image-keyboard-response"	"14"	"117188"	"0.0-4.0-1.0-2.0-1.3"	"d401oh"	"600"	"1366"	"chrome"	"111.0.0"	"FALSE"	"Windows 10"	"60.31"	"059"	n/a	n/a	n/a	n/a	n/a	n/a	"Trial"	n/a	n/a	n/a	"548"	"arrowright"	n/a	"NULL"	"NULL"	"NULL"	"stimuli/Ebbinghaus_0000000_-1.4000.png"	n/a	"Ebbinghaus"	"arrowright"	"1222"	"TRUE"	"Ebbinghaus"	"000000000000"	"-1.400000000"	"1"	"4"
n/a	"html-keyboard-response"	"15"	"118566"	"0.0-4.0-1.0-2.0-0.4"	"d401oh"	"600"	"1366"	"chrome"	"111.0.0"	"FALSE"	"Windows 10"	"60.31"	"059"	n/a	n/a	n/a	n/a	n/a	n/a	"fixation"	n/a	n/a	n/a	n/a	"NULL"	n/a	"NULL"	"NULL"	"NULL"	"<p style=\"color: black; font-size: 80px; padding-left: 17%; padding-right: 14%; padding-top: 18%; padding-bottom: 38%\">+</p>"	"1375"	n/a	n/a	n/a	n/a	n/a	n/a	n/a	n/a	n/a
n/a	"image-keyboard-response"	"16"	"119235"	"0.0-4.0-1.0-2.0-1.4"	"d401oh"	"600"	"1366"	"chrome"	"111.0.0"	"FALSE"	"Windows 10"	"60.31"	"059"	n/a	n/a	n/a	n/a	n/a	n/a	"Trial"	n/a	n/a	n/a	"657"	"arrowright"	n/a	"NULL"	"NULL"	"NULL"	"stimuli/Ebbinghaus_-100000_-1.4000.png"	n/a	"Ebbinghaus"	"arrowright"	"1378"	"TRUE"	"Ebbinghaus"	"-10000000000"	"-1.400000000"	"1"	"5"
n/a	"html-keyboard-response"	"17"	"120603"	"0.0-4.0-1.0-2.0-0.5"	"d401oh"	"600"	"1366"	"chrome"	"111.0.0"	"FALSE"	"Windows 10"	"60.31"	"059"	n/a	n/a	n/a	n/a	n/a	n/a	"fixation"	n/a	n/a	n/a	n/a	"NULL"	n/a	"NULL"	"NULL"	"NULL"	"<p style=\"color: black; font-size: 80px; padding-left: 37%; padding-right: 17%; padding-top: 6%; padding-bottom: 36%\">+</p>"	"1356"	n/a	n/a	n/a	n/a	n/a	n/a	n/a	n/a	n/a
n/a	"image-keyboard-response"	"18"	"121094"	"0.0-4.0-1.0-2.0-1.5"	"d401oh"	"600"	"1366"	"chrome"	"111.0.0"	"FALSE"	"Windows 10"	"60.31"	"059"	n/a	n/a	n/a	n/a	n/a	n/a	"Trial"	n/a	n/a	n/a	"490"	"arrowright"	n/a	"NULL"	"NULL"	"NULL"	"stimuli/Ebbinghaus_1000000_-1.4000.png"	n/a	"Ebbinghaus"	"arrowright"	"1368"	"TRUE"	"Ebbinghaus"	"100000000000"	"-1.400000000"	"1"	"6"
n/a	"html-button-response"	"19"	"128599"	"0.0-4.0-1.0-3.0"	"d401oh"	"600"	"1366"	"chrome"	"111.0.0"	"FALSE"	"Windows 10"	"60.31"	"059"	n/a	n/a	n/a	n/a	n/a	n/a	"practice_block_results"	n/a	n/a	n/a	"7504"	"0"	n/a	"NULL"	"NULL"	"NULL"	"<p style='color:rgb(76,175,80);'> Correct Responses: <b>100.00%</b></p><hr><p style='color:rgb(233,30,99);'> Average Response Time: <b>678.33</b> ms.</p>"	n/a	n/a	n/a	n/a	n/a	n/a	n/a	n/a	n/a	n/a
"TRUE"	"preload"	"20"	"129123"	"0.0-4.0-2.0-0.0"	"d401oh"	"600"	"1366"	"chrome"	"111.0.0"	"FALSE"	"Windows 10"	"60.31"	"059"	n/a	n/a	n/a	n/a	n/a	n/a	n/a	n/a	n/a	n/a	n/a	"NULL"	"FALSE"	"list()"	"list()"	"list()"	n/a	n/a	n/a	n/a	n/a	n/a	n/a	n/a	n/a	n/a	n/a
n/a	"html-keyboard-response"	"21"	"135903"	"0.0-4.0-2.0-1.0"	"d401oh"	"600"	"1366"	"chrome"	"111.0.0"	"FALSE"	"Windows 10"	"60.31"	"059"	n/a	n/a	n/a	n/a	n/a	n/a	n/a	n/a	n/a	n/a	"6779"	"enter"	n/a	"NULL"	"NULL"	"NULL"	"<p><b>Practice</b></p><p>In this part, two horizontal red lines will appear one above the other.</p><p>Your task is to select which <b>line is longer</b> in length as fast as you can, without making errors.</p><p>Don't get distracted by the surrounding black arrows at the end of the red lines!</p><p>Press <b>the UP or the DOWN arrow</b> to indicate where is the longer <b>red line.</b></p><div style='float: center'><img src='materials/instructions/MullerLyer_Demo.png' height='300'></img><p><img src='utils/answer/answer_updown_keyboard.PNG' height='150'></img></p><p class='small'>In this example, the correct answer is the <b>UP arrow</b>.</p></div><p>Are you ready? <b>Press ENTER to start</b></p>"	n/a	n/a	n/a	n/a	n/a	n/a	n/a	n/a	n/a	n/a
n/a	"html-keyboard-response"	"22"	"137913"	"0.0-4.0-2.0-2.0-0.0"	"d401oh"	"600"	"1366"	"chrome"	"111.0.0"	"FALSE"	"Windows 10"	"60.31"	"059"	n/a	n/a	n/a	n/a	n/a	n/a	"fixation"	n/a	n/a	n/a	n/a	"NULL"	n/a	"NULL"	"NULL"	"NULL"	"<p style=\"color: black; font-size: 80px; padding-left: 9%; padding-right: 19%; padding-top: 13%; padding-bottom: 7%\">+</p>"	"1499"	n/a	n/a	n/a	n/a	n/a	n/a	n/a	n/a	n/a
n/a	"image-keyboard-response"	"23"	"139620"	"0.0-4.0-2.0-2.0-1.0"	"d401oh"	"600"	"1366"	"chrome"	"111.0.0"	"FALSE"	"Windows 10"	"60.31"	"059"	n/a	n/a	n/a	n/a	n/a	n/a	"Trial"	n/a	n/a	n/a	"1706"	"arrowdown"	n/a	"NULL"	"NULL"	"NULL"	"stimuli/MullerLyer_2300000_-0.7000.png"	n/a	"MullerLyer"	"arrowdown"	"2010"	"TRUE"	"MullerLyer"	"230000000000"	"-0.700000000"	"1"	"7"
n/a	"html-keyboard-response"	"24"	"141098"	"0.0-4.0-2.0-2.0-0.1"	"d401oh"	"600"	"1366"	"chrome"	"111.0.0"	"FALSE"	"Windows 10"	"60.31"	"059"	n/a	n/a	n/a	n/a	n/a	n/a	"fixation"	n/a	n/a	n/a	n/a	"NULL"	n/a	"NULL"	"NULL"	"NULL"	"<p style=\"color: black; font-size: 80px; padding-left: 14%; padding-right: 16%; padding-top: 10%; padding-bottom: 49%\">+</p>"	"1463"	n/a	n/a	n/a	n/a	n/a	n/a	n/a	n/a	n/a
n/a	"image-keyboard-response"	"25"	"141797"	"0.0-4.0-2.0-2.0-1.1"	"d401oh"	"600"	"1366"	"chrome"	"111.0.0"	"FALSE"	"Windows 10"	"60.31"	"059"	n/a	n/a	n/a	n/a	n/a	n/a	"Trial"	n/a	n/a	n/a	"698"	"arrowup"	n/a	"NULL"	"NULL"	"NULL"	"stimuli/MullerLyer_-230000_0.70000.png"	n/a	"MullerLyer"	"arrowup"	"1478"	"TRUE"	"MullerLyer"	"-23000000000"	"0.7000000000"	"1"	"8"
n/a	"html-keyboard-response"	"26"	"142897"	"0.0-4.0-2.0-2.0-0.2"	"d401oh"	"600"	"1366"	"chrome"	"111.0.0"	"FALSE"	"Windows 10"	"60.31"	"059"	n/a	n/a	n/a	n/a	n/a	n/a	"fixation"	n/a	n/a	n/a	n/a	"NULL"	n/a	"NULL"	"NULL"	"NULL"	"<p style=\"color: black; font-size: 80px; padding-left: 40%; padding-right: 25%; padding-top: 16%; padding-bottom: 40%\">+</p>"	"1087"	n/a	n/a	n/a	n/a	n/a	n/a	n/a	n/a	n/a
n/a	"image-keyboard-response"	"27"	"143861"	"0.0-4.0-2.0-2.0-1.2"	"d401oh"	"600"	"1366"	"chrome"	"111.0.0"	"FALSE"	"Windows 10"	"60.31"	"059"	n/a	n/a	n/a	n/a	n/a	n/a	"Trial"	n/a	n/a	n/a	"963"	"arrowup"	n/a	"NULL"	"NULL"	"NULL"	"stimuli/MullerLyer_0000000_0.70000.png"	n/a	"MullerLyer"	"arrowup"	"1100"	"TRUE"	"MullerLyer"	"000000000000"	"0.7000000000"	"1"	"9"
n/a	"html-keyboard-response"	"28"	"145333"	"0.0-4.0-2.0-2.0-0.3"	"d401oh"	"600"	"1366"	"chrome"	"111.0.0"	"FALSE"	"Windows 10"	"60.31"	"059"	n/a	n/a	n/a	n/a	n/a	n/a	"fixation"	n/a	n/a	n/a	n/a	"NULL"	n/a	"NULL"	"NULL"	"NULL"	"<p style=\"color: black; font-size: 80px; padding-left: 49%; padding-right: 6%; padding-top: 39%; padding-bottom: 31%\">+</p>"	"1458"	n/a	n/a	n/a	n/a	n/a	n/a	n/a	n/a	n/a
n/a	"image-keyboard-response"	"29"	"145975"	"0.0-4.0-2.0-2.0-1.3"	"d401oh"	"600"	"1366"	"chrome"	"111.0.0"	"FALSE"	"Windows 10"	"60.31"	"059"	n/a	n/a	n/a	n/a	n/a	n/a	"Trial"	n/a	n/a	n/a	"641"	"arrowup"	n/a	"NULL"	"NULL"	"NULL"	"stimuli/MullerLyer_2300000_0.70000.png"	n/a	"MullerLyer"	"arrowup"	"1472"	"TRUE"	"MullerLyer"	"230000000000"	"0.7000000000"	"1"	"10"
n/a	"html-keyboard-response"	"30"	"147062"	"0.0-4.0-2.0-2.0-0.4"	"d401oh"	"600"	"1366"	"chrome"	"111.0.0"	"FALSE"	"Windows 10"	"60.31"	"059"	n/a	n/a	n/a	n/a	n/a	n/a	"fixation"	n/a	n/a	n/a	n/a	"NULL"	n/a	"NULL"	"NULL"	"NULL"	"<p style=\"color: black; font-size: 80px; padding-left: 22%; padding-right: 28%; padding-top: 33%; padding-bottom: 11%\">+</p>"	"1077"	n/a	n/a	n/a	n/a	n/a	n/a	n/a	n/a	n/a
n/a	"image-keyboard-response"	"31"	"147651"	"0.0-4.0-2.0-2.0-1.4"	"d401oh"	"600"	"1366"	"chrome"	"111.0.0"	"FALSE"	"Windows 10"	"60.31"	"059"	n/a	n/a	n/a	n/a	n/a	n/a	"Trial"	n/a	n/a	n/a	"588"	"arrowdown"	n/a	"NULL"	"NULL"	"NULL"	"stimuli/MullerLyer_-230000_-0.7000.png"	n/a	"MullerLyer"	"arrowdown"	"1087"	"TRUE"	"MullerLyer"	"-23000000000"	"-0.700000000"	"1"	"11"
n/a	"html-keyboard-response"	"32"	"148678"	"0.0-4.0-2.0-2.0-0.5"	"d401oh"	"600"	"1366"	"chrome"	"111.0.0"	"FALSE"	"Windows 10"	"60.31"	"059"	n/a	n/a	n/a	n/a	n/a	n/a	"fixation"	n/a	n/a	n/a	n/a	"NULL"	n/a	"NULL"	"NULL"	"NULL"	"<p style=\"color: black; font-size: 80px; padding-left: 8%; padding-right: 43%; padding-top: 35%; padding-bottom: 23%\">+</p>"	"1011"	n/a	n/a	n/a	n/a	n/a	n/a	n/a	n/a	n/a
n/a	"image-keyboard-response"	"33"	"149285"	"0.0-4.0-2.0-2.0-1.5"	"d401oh"	"600"	"1366"	"chrome"	"111.0.0"	"FALSE"	"Windows 10"	"60.31"	"059"	n/a	n/a	n/a	n/a	n/a	n/a	"Trial"	n/a	n/a	n/a	"607"	"arrowdown"	n/a	"NULL"	"NULL"	"NULL"	"stimuli/MullerLyer_0000000_-0.7000.png"	n/a	"MullerLyer"	"arrowdown"	"1027"	"TRUE"	"MullerLyer"	"000000000000"	"-0.700000000"	"1"	"12"
n/a	"html-button-response"	"34"	"155162"	"0.0-4.0-2.0-3.0"	"d401oh"	"600"	"1366"	"chrome"	"111.0.0"	"FALSE"	"Windows 10"	"60.31"	"059"	n/a	n/a	n/a	n/a	n/a	n/a	"practice_block_results"	n/a	n/a	n/a	"5876"	"0"	n/a	"NULL"	"NULL"	"NULL"	"<p style='color:rgb(76,175,80);'> Correct Responses: <b>100.00%</b></p><hr><p style='color:rgb(233,30,99);'> Average Response Time: <b>867.17</b> ms.</p>"	n/a	n/a	n/a	n/a	n/a	n/a	n/a	n/a	n/a	n/a
"TRUE"	"preload"	"35"	"155695"	"0.0-4.0-3.0-0.0"	"d401oh"	"600"	"1366"	"chrome"	"111.0.0"	"FALSE"	"Windows 10"	"60.31"	"059"	n/a	n/a	n/a	n/a	n/a	n/a	n/a	n/a	n/a	n/a	n/a	"NULL"	"FALSE"	"list()"	"list()"	"list()"	n/a	n/a	n/a	n/a	n/a	n/a	n/a	n/a	n/a	n/a	n/a
n/a	"html-keyboard-response"	"36"	"162740"	"0.0-4.0-3.0-1.0"	"d401oh"	"600"	"1366"	"chrome"	"111.0.0"	"FALSE"	"Windows 10"	"60.31"	"059"	n/a	n/a	n/a	n/a	n/a	n/a	n/a	n/a	n/a	n/a	"7044"	"enter"	n/a	"NULL"	"NULL"	"NULL"	"<p><b>Practice</b></p><p>In this part, two red lines will appear side by side.</p><p>Your task is to tell <b>which line is longer</b> in length, regardless of their orientation, as fast as you can, and without making errors.</p><p>Don't get distracted by the orientation of the lines!</p><p>Press <b>the LEFT or the RIGHT arrow</b> to indicate which <b>line is the longer one.</b></p><div style='float: center'><img src='materials/instructions/VerticalHorizontal_Demo.png' height='300'></img><p><img src='utils/answer/answer_leftright_keyboard.PNG' height='150'></img></p><p class='small'>In this example, the correct answer is the <b>LEFT arrow</b>.</p></div><p>Are you ready? <b>Press ENTER to start</b></p>"	n/a	n/a	n/a	n/a	n/a	n/a	n/a	n/a	n/a	n/a
n/a	"html-keyboard-response"	"37"	"164724"	"0.0-4.0-3.0-2.0-0.0"	"d401oh"	"600"	"1366"	"chrome"	"111.0.0"	"FALSE"	"Windows 10"	"60.31"	"059"	n/a	n/a	n/a	n/a	n/a	n/a	"fixation"	n/a	n/a	n/a	n/a	"NULL"	n/a	"NULL"	"NULL"	"NULL"	"<p style=\"color: black; font-size: 80px; padding-left: 20%; padding-right: 24%; padding-top: 35%; padding-bottom: 23%\">+</p>"	"1467"	n/a	n/a	n/a	n/a	n/a	n/a	n/a	n/a	n/a
n/a	"image-keyboard-response"	"38"	"165303"	"0.0-4.0-3.0-2.0-1.0"	"d401oh"	"600"	"1366"	"chrome"	"111.0.0"	"FALSE"	"Windows 10"	"60.31"	"059"	n/a	n/a	n/a	n/a	n/a	n/a	"Trial"	n/a	n/a	n/a	"578"	"arrowright"	n/a	"NULL"	"NULL"	"NULL"	"stimuli/VerticalHorizontal_0000000_-0.9000.png"	n/a	"VerticalHorizontal"	"arrowright"	"1984"	"TRUE"	"VerticalHorizontal"	"000000000000"	"-0.900000000"	"1"	"13"
n/a	"html-keyboard-response"	"39"	"166744"	"0.0-4.0-3.0-2.0-0.1"	"d401oh"	"600"	"1366"	"chrome"	"111.0.0"	"FALSE"	"Windows 10"	"60.31"	"059"	n/a	n/a	n/a	n/a	n/a	n/a	"fixation"	n/a	n/a	n/a	n/a	"NULL"	n/a	"NULL"	"NULL"	"NULL"	"<p style=\"color: black; font-size: 80px; padding-left: 9%; padding-right: 31%; padding-top: 1%; padding-bottom: 41%\">+</p>"	"1432"	n/a	n/a	n/a	n/a	n/a	n/a	n/a	n/a	n/a
n/a	"image-keyboard-response"	"40"	"167231"	"0.0-4.0-3.0-2.0-1.1"	"d401oh"	"600"	"1366"	"chrome"	"111.0.0"	"FALSE"	"Windows 10"	"60.31"	"059"	n/a	n/a	n/a	n/a	n/a	n/a	"Trial"	n/a	n/a	n/a	"486"	"arrowright"	n/a	"NULL"	"NULL"	"NULL"	"stimuli/VerticalHorizontal_-330000_-0.9000.png"	n/a	"VerticalHorizontal"	"arrowright"	"1441"	"TRUE"	"VerticalHorizontal"	"-33000000000"	"-0.900000000"	"1"	"14"
n/a	"html-keyboard-response"	"41"	"168399"	"0.0-4.0-3.0-2.0-0.2"	"d401oh"	"600"	"1366"	"chrome"	"111.0.0"	"FALSE"	"Windows 10"	"60.31"	"059"	n/a	n/a	n/a	n/a	n/a	n/a	"fixation"	n/a	n/a	n/a	n/a	"NULL"	n/a	"NULL"	"NULL"	"NULL"	"<p style=\"color: black; font-size: 80px; padding-left: 15%; padding-right: 5%; padding-top: 46%; padding-bottom: 45%\">+</p>"	"1155"	n/a	n/a	n/a	n/a	n/a	n/a	n/a	n/a	n/a
n/a	"image-keyboard-response"	"42"	"168984"	"0.0-4.0-3.0-2.0-1.2"	"d401oh"	"600"	"1366"	"chrome"	"111.0.0"	"FALSE"	"Windows 10"	"60.31"	"059"	n/a	n/a	n/a	n/a	n/a	n/a	"Trial"	n/a	n/a	n/a	"584"	"arrowright"	n/a	"NULL"	"NULL"	"NULL"	"stimuli/VerticalHorizontal_3300000_-0.9000.png"	n/a	"VerticalHorizontal"	"arrowright"	"1168"	"TRUE"	"VerticalHorizontal"	"330000000000"	"-0.900000000"	"1"	"15"
n/a	"html-keyboard-response"	"43"	"170334"	"0.0-4.0-3.0-2.0-0.3"	"d401oh"	"600"	"1366"	"chrome"	"111.0.0"	"FALSE"	"Windows 10"	"60.31"	"059"	n/a	n/a	n/a	n/a	n/a	n/a	"fixation"	n/a	n/a	n/a	n/a	"NULL"	n/a	"NULL"	"NULL"	"NULL"	"<p style=\"color: black; font-size: 80px; padding-left: 49%; padding-right: 31%; padding-top: 39%; padding-bottom: 24%\">+</p>"	"1346"	n/a	n/a	n/a	n/a	n/a	n/a	n/a	n/a	n/a
n/a	"image-keyboard-response"	"44"	"170898"	"0.0-4.0-3.0-2.0-1.3"	"d401oh"	"600"	"1366"	"chrome"	"111.0.0"	"FALSE"	"Windows 10"	"60.31"	"059"	n/a	n/a	n/a	n/a	n/a	n/a	"Trial"	n/a	n/a	n/a	"564"	"arrowleft"	n/a	"NULL"	"NULL"	"NULL"	"stimuli/VerticalHorizontal_0000000_0.90000.png"	n/a	"VerticalHorizontal"	"arrowleft"	"1350"	"TRUE"	"VerticalHorizontal"	"000000000000"	"0.9000000000"	"1"	"16"
n/a	"html-keyboard-response"	"45"	"172089"	"0.0-4.0-3.0-2.0-0.4"	"d401oh"	"600"	"1366"	"chrome"	"111.0.0"	"FALSE"	"Windows 10"	"60.31"	"059"	n/a	n/a	n/a	n/a	n/a	n/a	"fixation"	n/a	n/a	n/a	n/a	"NULL"	n/a	"NULL"	"NULL"	"NULL"	"<p style=\"color: black; font-size: 80px; padding-left: 4%; padding-right: 17%; padding-top: 27%; padding-bottom: 12%\">+</p>"	"1190"	n/a	n/a	n/a	n/a	n/a	n/a	n/a	n/a	n/a
n/a	"image-keyboard-response"	"46"	"172582"	"0.0-4.0-3.0-2.0-1.4"	"d401oh"	"600"	"1366"	"chrome"	"111.0.0"	"FALSE"	"Windows 10"	"60.31"	"059"	n/a	n/a	n/a	n/a	n/a	n/a	"Trial"	n/a	n/a	n/a	"493"	"arrowleft"	n/a	"NULL"	"NULL"	"NULL"	"stimuli/VerticalHorizontal_-330000_0.90000.png"	n/a	"VerticalHorizontal"	"arrowleft"	"1191"	"TRUE"	"VerticalHorizontal"	"-33000000000"	"0.9000000000"	"1"	"17"
n/a	"html-keyboard-response"	"47"	"173625"	"0.0-4.0-3.0-2.0-0.5"	"d401oh"	"600"	"1366"	"chrome"	"111.0.0"	"FALSE"	"Windows 10"	"60.31"	"059"	n/a	n/a	n/a	n/a	n/a	n/a	"fixation"	n/a	n/a	n/a	n/a	"NULL"	n/a	"NULL"	"NULL"	"NULL"	"<p style=\"color: black; font-size: 80px; padding-left: 41%; padding-right: 36%; padding-top: 43%; padding-bottom: 4%\">+</p>"	"1035"	n/a	n/a	n/a	n/a	n/a	n/a	n/a	n/a	n/a
n/a	"image-keyboard-response"	"48"	"174246"	"0.0-4.0-3.0-2.0-1.5"	"d401oh"	"600"	"1366"	"chrome"	"111.0.0"	"FALSE"	"Windows 10"	"60.31"	"059"	n/a	n/a	n/a	n/a	n/a	n/a	"Trial"	n/a	n/a	n/a	"621"	"arrowleft"	n/a	"NULL"	"NULL"	"NULL"	"stimuli/VerticalHorizontal_3300000_0.90000.png"	n/a	"VerticalHorizontal"	"arrowleft"	"1043"	"TRUE"	"VerticalHorizontal"	"330000000000"	"0.9000000000"	"1"	"18"
n/a	"html-button-response"	"49"	"180062"	"0.0-4.0-3.0-3.0"	"d401oh"	"600"	"1366"	"chrome"	"111.0.0"	"FALSE"	"Windows 10"	"60.31"	"059"	n/a	n/a	n/a	n/a	n/a	n/a	"practice_block_results"	n/a	n/a	n/a	"5814"	"0"	n/a	"NULL"	"NULL"	"NULL"	"<p style='color:rgb(76,175,80);'> Correct Responses: <b>100.00%</b></p><hr><p style='color:rgb(233,30,99);'> Average Response Time: <b>554.33</b> ms.</p>"	n/a	n/a	n/a	n/a	n/a	n/a	n/a	n/a	n/a	n/a
n/a	"html-button-response"	"50"	"249258"	"0.0-4.0-4.0"	"d401oh"	"600"	"1366"	"chrome"	"111.0.0"	"FALSE"	"Windows 10"	"60.31"	"059"	n/a	n/a	n/a	n/a	n/a	n/a	"practice_debrief"	n/a	n/a	n/a	"68685"	"0"	n/a	"NULL"	"NULL"	"NULL"	"<p><b>TRAINING COMPLETED</b></p><p>In the next phase, there will be more trials, and some might be harder too.<br> Moreover, after each illusion block, a <b>score</b> will be calculated based on speed (time you took to answer) and accuracy (number of errors).</p><p>Try to keep up a high score!</p><br><p>Note that it can be <i>really</i> challenging at times, so you will need to rely on your <b>intuition</b> and gut feeling to answer as fast as you can without making errors.</p><p>Each illusion block will be repeated two times (so that you have the opportunity to improve your score), but the order of the blocks is random.</p><p>Remember, your goal is to be as <b>fast</b> and <b>accurate</b> as possible. Good luck!</p><br>"	n/a	n/a	n/a	n/a	n/a	n/a	n/a	n/a	n/a	n/a
"TRUE"	"preload"	"51"	"249441"	"0.0-5.0-0.0"	"d401oh"	"600"	"1366"	"chrome"	"111.0.0"	"FALSE"	"Windows 10"	"60.31"	"059"	n/a	n/a	n/a	n/a	n/a	n/a	n/a	n/a	n/a	n/a	n/a	"NULL"	"FALSE"	"list()"	"list()"	"list()"	n/a	n/a	n/a	n/a	n/a	n/a	n/a	n/a	n/a	n/a	n/a
n/a	"html-keyboard-response"	"52"	"252830"	"0.0-5.0-1.0"	"d401oh"	"600"	"1366"	"chrome"	"111.0.0"	"FALSE"	"Windows 10"	"60.31"	"059"	n/a	n/a	n/a	n/a	n/a	n/a	n/a	n/a	n/a	n/a	"3388"	"enter"	n/a	"NULL"	"NULL"	"NULL"	"<p><b>Part 1/6</b></p><p>In this part, two red lines will appear side by side.</p><p>Your task is to tell <b>which line is longer</b> in length, regardless of their orientation, as fast as you can, and without making errors.</p><p>Don't get distracted by the orientation of the lines!</p><p>Press <b>the LEFT or the RIGHT arrow</b> to indicate which <b>line is the longer one.</b></p><div style='float: center'><img src='materials/instructions/VerticalHorizontal_Demo.png' height='300'></img><p><img src='utils/answer/answer_leftright_keyboard.PNG' height='150'></img></p><p class='small'>In this example, the correct answer is the <b>LEFT arrow</b>.</p></div><p>Are you ready? <b>Press ENTER to start</b></p>"	n/a	n/a	n/a	n/a	n/a	n/a	n/a	n/a	n/a	n/a
n/a	"html-keyboard-response"	"53"	"254511"	"0.0-5.0-2.0-0.0"	"d401oh"	"600"	"1366"	"chrome"	"111.0.0"	"FALSE"	"Windows 10"	"60.31"	"059"	n/a	n/a	n/a	n/a	n/a	n/a	"fixation"	n/a	n/a	n/a	n/a	"NULL"	n/a	"NULL"	"NULL"	"NULL"	"<p style=\"color: black; font-size: 80px; padding-left: 34%; padding-right: 34%; padding-top: 39%; padding-bottom: 10%\">+</p>"	"1152"	n/a	n/a	n/a	n/a	n/a	n/a	n/a	n/a	n/a
n/a	"image-keyboard-response"	"54"	"254910"	"0.0-5.0-2.0-1.0"	"d401oh"	"600"	"1366"	"chrome"	"111.0.0"	"FALSE"	"Windows 10"	"60.31"	"059"	n/a	n/a	n/a	n/a	n/a	n/a	"Trial"	n/a	n/a	n/a	"398"	"arrowright"	n/a	"NULL"	"NULL"	"NULL"	"stimuli/VerticalHorizontal_-11.78571_-0.2250.png"	n/a	"VerticalHorizontal"	"arrowright"	"1681"	"TRUE"	"VerticalHorizontal"	"-11.78571000"	"-0.225000000"	"1"	"19"
n/a	"html-keyboard-response"	"55"	"256119"	"0.0-5.0-2.0-0.1"	"d401oh"	"600"	"1366"	"chrome"	"111.0.0"	"FALSE"	"Windows 10"	"60.31"	"059"	n/a	n/a	n/a	n/a	n/a	n/a	"fixation"	n/a	n/a	n/a	n/a	"NULL"	n/a	"NULL"	"NULL"	"NULL"	"<p style=\"color: black; font-size: 80px; padding-left: 31%; padding-right: 5%; padding-top: 32%; padding-bottom: 46%\">+</p>"	"1195"	n/a	n/a	n/a	n/a	n/a	n/a	n/a	n/a	n/a
n/a	"image-keyboard-response"	"56"	"256904"	"0.0-5.0-2.0-1.1"	"d401oh"	"600"	"1366"	"chrome"	"111.0.0"	"FALSE"	"Windows 10"	"60.31"	"059"	n/a	n/a	n/a	n/a	n/a	n/a	"Trial"	n/a	n/a	n/a	"784"	"arrowright"	n/a	"NULL"	"NULL"	"NULL"	"stimuli/VerticalHorizontal_20.27143_-0.1096.png"	n/a	"VerticalHorizontal"	"arrowright"	"1209"	"TRUE"	"VerticalHorizontal"	"20.271430000"	"-0.109600000"	"1"	"20"
n/a	"html-keyboard-response"	"57"	"258312"	"0.0-5.0-2.0-0.2"	"d401oh"	"600"	"1366"	"chrome"	"111.0.0"	"FALSE"	"Windows 10"	"60.31"	"059"	n/a	n/a	n/a	n/a	n/a	n/a	"fixation"	n/a	n/a	n/a	n/a	"NULL"	n/a	"NULL"	"NULL"	"NULL"	"<p style=\"color: black; font-size: 80px; padding-left: 38%; padding-right: 45%; padding-top: 30%; padding-bottom: 10%\">+</p>"	"1397"	n/a	n/a	n/a	n/a	n/a	n/a	n/a	n/a	n/a
n/a	"image-keyboard-response"	"58"	"258794"	"0.0-5.0-2.0-1.2"	"d401oh"	"600"	"1366"	"chrome"	"111.0.0"	"FALSE"	"Windows 10"	"60.31"	"059"	n/a	n/a	n/a	n/a	n/a	n/a	"Trial"	n/a	n/a	n/a	"481"	"arrowright"	n/a	"NULL"	"NULL"	"NULL"	"stimuli/VerticalHorizontal_11.78571_-0.16217.png"	n/a	"VerticalHorizontal"	"arrowright"	"1408"	"TRUE"	"VerticalHorizontal"	"11.785710000"	"-0.162170000"	"1"	"21"
n/a	"html-keyboard-response"	"59"	"259862"	"0.0-5.0-2.0-0.3"	"d401oh"	"600"	"1366"	"chrome"	"111.0.0"	"FALSE"	"Windows 10"	"60.31"	"059"	n/a	n/a	n/a	n/a	n/a	n/a	"fixation"	n/a	n/a	n/a	n/a	"NULL"	n/a	"NULL"	"NULL"	"NULL"	"<p style=\"color: black; font-size: 80px; padding-left: 41%; padding-right: 33%; padding-top: 5%; padding-bottom: 38%\">+</p>"	"1057"	n/a	n/a	n/a	n/a	n/a	n/a	n/a	n/a	n/a
n/a	"image-keyboard-response"	"60"	"260329"	"0.0-5.0-2.0-1.3"	"d401oh"	"600"	"1366"	"chrome"	"111.0.0"	"FALSE"	"Windows 10"	"60.31"	"059"	n/a	n/a	n/a	n/a	n/a	n/a	"Trial"	n/a	n/a	n/a	"466"	"arrowright"	n/a	"NULL"	"NULL"	"NULL"	"stimuli/VerticalHorizontal_-20.27143_-0.2250.png"	n/a	"VerticalHorizontal"	"arrowright"	"1068"	"TRUE"	"VerticalHorizontal"	"-20.27143000"	"-0.225000000"	"1"	"22"
n/a	"html-keyboard-response"	"61"	"261714"	"0.0-5.0-2.0-0.4"	"d401oh"	"600"	"1366"	"chrome"	"111.0.0"	"FALSE"	"Windows 10"	"60.31"	"059"	n/a	n/a	n/a	n/a	n/a	n/a	"fixation"	n/a	n/a	n/a	n/a	"NULL"	n/a	"NULL"	"NULL"	"NULL"	"<p style=\"color: black; font-size: 80px; padding-left: 48%; padding-right: 14%; padding-top: 29%; padding-bottom: 15%\">+</p>"	"1379"	n/a	n/a	n/a	n/a	n/a	n/a	n/a	n/a	n/a
n/a	"image-keyboard-response"	"62"	"262241"	"0.0-5.0-2.0-1.4"	"d401oh"	"600"	"1366"	"chrome"	"111.0.0"	"FALSE"	"Windows 10"	"60.31"	"059"	n/a	n/a	n/a	n/a	n/a	n/a	"Trial"	n/a	n/a	n/a	"526"	"arrowleft"	n/a	"NULL"	"NULL"	"NULL"	"stimuli/VerticalHorizontal_-28.75714_0.16217.png"	n/a	"VerticalHorizontal"	"arrowleft"	"1385"	"TRUE"	"VerticalHorizontal"	"-28.75714000"	"0.1621700000"	"1"	"23"
n/a	"html-keyboard-response"	"63"	"263699"	"0.0-5.0-2.0-0.5"	"d401oh"	"600"	"1366"	"chrome"	"111.0.0"	"FALSE"	"Windows 10"	"60.31"	"059"	n/a	n/a	n/a	n/a	n/a	n/a	"fixation"	n/a	n/a	n/a	n/a	"NULL"	n/a	"NULL"	"NULL"	"NULL"	"<p style=\"color: black; font-size: 80px; padding-left: 31%; padding-right: 22%; padding-top: 22%; padding-bottom: 40%\">+</p>"	"1445"	n/a	n/a	n/a	n/a	n/a	n/a	n/a	n/a	n/a
n/a	"image-keyboard-response"	"64"	"264343"	"0.0-5.0-2.0-1.5"	"d401oh"	"600"	"1366"	"chrome"	"111.0.0"	"FALSE"	"Windows 10"	"60.31"	"059"	n/a	n/a	n/a	n/a	n/a	n/a	"Trial"	n/a	n/a	n/a	"643"	"arrowright"	n/a	"NULL"	"NULL"	"NULL"	"stimuli/VerticalHorizontal_20.27143_-0.0673.png"	n/a	"VerticalHorizontal"	"arrowright"	"1458"	"TRUE"	"VerticalHorizontal"	"20.271430000"	"-0.067300000"	"1"	"24"
n/a	"html-keyboard-response"	"65"	"265837"	"0.0-5.0-2.0-0.6"	"d401oh"	"600"	"1366"	"chrome"	"111.0.0"	"FALSE"	"Windows 10"	"60.31"	"059"	n/a	n/a	n/a	n/a	n/a	n/a	"fixation"	n/a	n/a	n/a	n/a	"NULL"	n/a	"NULL"	"NULL"	"NULL"	"<p style=\"color: black; font-size: 80px; padding-left: 10%; padding-right: 19%; padding-top: 41%; padding-bottom: 40%\">+</p>"	"1478"	n/a	n/a	n/a	n/a	n/a	n/a	n/a	n/a	n/a
n/a	"image-keyboard-response"	"66"	"266542"	"0.0-5.0-2.0-1.6"	"d401oh"	"600"	"1366"	"chrome"	"111.0.0"	"FALSE"	"Windows 10"	"60.31"	"059"	n/a	n/a	n/a	n/a	n/a	n/a	"Trial"	n/a	n/a	n/a	"704"	"arrowleft"	n/a	"NULL"	"NULL"	"NULL"	"stimuli/VerticalHorizontal_-11.78571_0.10960.png"	n/a	"VerticalHorizontal"	"arrowleft"	"1494"	"TRUE"	"VerticalHorizontal"	"-11.78571000"	"0.1096000000"	"1"	"25"
n/a	"html-keyboard-response"	"67"	"267687"	"0.0-5.0-2.0-0.7"	"d401oh"	"600"	"1366"	"chrome"	"111.0.0"	"FALSE"	"Windows 10"	"60.31"	"059"	n/a	n/a	n/a	n/a	n/a	n/a	"fixation"	n/a	n/a	n/a	n/a	"NULL"	n/a	"NULL"	"NULL"	"NULL"	"<p style=\"color: black; font-size: 80px; padding-left: 2%; padding-right: 20%; padding-top: 13%; padding-bottom: 28%\">+</p>"	"1134"	n/a	n/a	n/a	n/a	n/a	n/a	n/a	n/a	n/a
n/a	"image-keyboard-response"	"68"	"268466"	"0.0-5.0-2.0-1.7"	"d401oh"	"600"	"1366"	"chrome"	"111.0.0"	"FALSE"	"Windows 10"	"60.31"	"059"	n/a	n/a	n/a	n/a	n/a	n/a	"Trial"	n/a	n/a	n/a	"779"	"arrowright"	n/a	"NULL"	"NULL"	"NULL"	"stimuli/VerticalHorizontal_3.30000_-0.0673.png"	n/a	"VerticalHorizontal"	"arrowright"	"1145"	"TRUE"	"VerticalHorizontal"	"3.3000000000"	"-0.067300000"	"1"	"26"
n/a	"html-keyboard-response"	"69"	"269838"	"0.0-5.0-2.0-0.8"	"d401oh"	"600"	"1366"	"chrome"	"111.0.0"	"FALSE"	"Windows 10"	"60.31"	"059"	n/a	n/a	n/a	n/a	n/a	n/a	"fixation"	n/a	n/a	n/a	n/a	"NULL"	n/a	"NULL"	"NULL"	"NULL"	"<p style=\"color: black; font-size: 80px; padding-left: 50%; padding-right: 13%; padding-top: 12%; padding-bottom: 24%\">+</p>"	"1360"	n/a	n/a	n/a	n/a	n/a	n/a	n/a	n/a	n/a
n/a	"image-keyboard-response"	"70"	"270400"	"0.0-5.0-2.0-1.8"	"d401oh"	"600"	"1366"	"chrome"	"111.0.0"	"FALSE"	"Windows 10"	"60.31"	"059"	n/a	n/a	n/a	n/a	n/a	n/a	"Trial"	n/a	n/a	n/a	"560"	"arrowleft"	n/a	"NULL"	"NULL"	"NULL"	"stimuli/VerticalHorizontal_-20.27143_0.22500.png"	n/a	"VerticalHorizontal"	"arrowleft"	"1372"	"TRUE"	"VerticalHorizontal"	"-20.27143000"	"0.2250000000"	"1"	"27"
n/a	"html-keyboard-response"	"71"	"271651"	"0.0-5.0-2.0-0.9"	"d401oh"	"600"	"1366"	"chrome"	"111.0.0"	"FALSE"	"Windows 10"	"60.31"	"059"	n/a	n/a	n/a	n/a	n/a	n/a	"fixation"	n/a	n/a	n/a	n/a	"NULL"	n/a	"NULL"	"NULL"	"NULL"	"<p style=\"color: black; font-size: 80px; padding-left: 45%; padding-right: 9%; padding-top: 28%; padding-bottom: 2%\">+</p>"	"1246"	n/a	n/a	n/a	n/a	n/a	n/a	n/a	n/a	n/a
n/a	"image-keyboard-response"	"72"	"272629"	"0.0-5.0-2.0-1.9"	"d401oh"	"600"	"1366"	"chrome"	"111.0.0"	"FALSE"	"Windows 10"	"60.31"	"059"	n/a	n/a	n/a	n/a	n/a	n/a	"Trial"	n/a	n/a	n/a	"977"	"arrowright"	n/a	"NULL"	"NULL"	"NULL"	"stimuli/VerticalHorizontal_11.78571_0.06730.png"	n/a	"VerticalHorizontal"	"arrowleft"	"1251"	"FALSE"	"VerticalHorizontal"	"11.785710000"	"0.0673000000"	"1"	"28"
n/a	"html-keyboard-response"	"73"	"273824"	"0.0-5.0-2.0-0.10"	"d401oh"	"600"	"1366"	"chrome"	"111.0.0"	"FALSE"	"Windows 10"	"60.31"	"059"	n/a	n/a	n/a	n/a	n/a	n/a	"fixation"	n/a	n/a	n/a	n/a	"NULL"	n/a	"NULL"	"NULL"	"NULL"	"<p style=\"color: black; font-size: 80px; padding-left: 0%; padding-right: 23%; padding-top: 39%; padding-bottom: 18%\">+</p>"	"1187"	n/a	n/a	n/a	n/a	n/a	n/a	n/a	n/a	n/a
n/a	"image-keyboard-response"	"74"	"274486"	"0.0-5.0-2.0-1.10"	"d401oh"	"600"	"1366"	"chrome"	"111.0.0"	"FALSE"	"Windows 10"	"60.31"	"059"	n/a	n/a	n/a	n/a	n/a	n/a	"Trial"	n/a	n/a	n/a	"662"	"arrowright"	n/a	"NULL"	"NULL"	"NULL"	"stimuli/VerticalHorizontal_20.27143_-0.2250.png"	n/a	"VerticalHorizontal"	"arrowright"	"1195"	"TRUE"	"VerticalHorizontal"	"20.271430000"	"-0.225000000"	"1"	"29"
n/a	"html-keyboard-response"	"75"	"275744"	"0.0-5.0-2.0-0.11"	"d401oh"	"600"	"1366"	"chrome"	"111.0.0"	"FALSE"	"Windows 10"	"60.31"	"059"	n/a	n/a	n/a	n/a	n/a	n/a	"fixation"	n/a	n/a	n/a	n/a	"NULL"	n/a	"NULL"	"NULL"	"NULL"	"<p style=\"color: black; font-size: 80px; padding-left: 25%; padding-right: 15%; padding-top: 44%; padding-bottom: 8%\">+</p>"	"1256"	n/a	n/a	n/a	n/a	n/a	n/a	n/a	n/a	n/a
n/a	"image-keyboard-response"	"76"	"276337"	"0.0-5.0-2.0-1.11"	"d401oh"	"600"	"1366"	"chrome"	"111.0.0"	"FALSE"	"Windows 10"	"60.31"	"059"	n/a	n/a	n/a	n/a	n/a	n/a	"Trial"	n/a	n/a	n/a	"593"	"arrowright"	n/a	"NULL"	"NULL"	"NULL"	"stimuli/VerticalHorizontal_-28.75714_-0.0673.png"	n/a	"VerticalHorizontal"	"arrowright"	"1258"	"TRUE"	"VerticalHorizontal"	"-28.75714000"	"-0.067300000"	"1"	"30"
n/a	"html-keyboard-response"	"77"	"277415"	"0.0-5.0-2.0-0.12"	"d401oh"	"600"	"1366"	"chrome"	"111.0.0"	"FALSE"	"Windows 10"	"60.31"	"059"	n/a	n/a	n/a	n/a	n/a	n/a	"fixation"	n/a	n/a	n/a	n/a	"NULL"	n/a	"NULL"	"NULL"	"NULL"	"<p style=\"color: black; font-size: 80px; padding-left: 4%; padding-right: 36%; padding-top: 10%; padding-bottom: 46%\">+</p>"	"1073"	n/a	n/a	n/a	n/a	n/a	n/a	n/a	n/a	n/a
n/a	"image-keyboard-response"	"78"	"277910"	"0.0-5.0-2.0-1.12"	"d401oh"	"600"	"1366"	"chrome"	"111.0.0"	"FALSE"	"Windows 10"	"60.31"	"059"	n/a	n/a	n/a	n/a	n/a	n/a	"Trial"	n/a	n/a	n/a	"494"	"arrowright"	n/a	"NULL"	"NULL"	"NULL"	"stimuli/VerticalHorizontal_3.30000_-0.16217.png"	n/a	"VerticalHorizontal"	"arrowright"	"1078"	"TRUE"	"VerticalHorizontal"	"3.3000000000"	"-0.162170000"	"1"	"31"
n/a	"html-keyboard-response"	"79"	"279233"	"0.0-5.0-2.0-0.13"	"d401oh"	"600"	"1366"	"chrome"	"111.0.0"	"FALSE"	"Windows 10"	"60.31"	"059"	n/a	n/a	n/a	n/a	n/a	n/a	"fixation"	n/a	n/a	n/a	n/a	"NULL"	n/a	"NULL"	"NULL"	"NULL"	"<p style=\"color: black; font-size: 80px; padding-left: 15%; padding-right: 46%; padding-top: 31%; padding-bottom: 23%\">+</p>"	"1312"	n/a	n/a	n/a	n/a	n/a	n/a	n/a	n/a	n/a
n/a	"image-keyboard-response"	"80"	"279657"	"0.0-5.0-2.0-1.13"	"d401oh"	"600"	"1366"	"chrome"	"111.0.0"	"FALSE"	"Windows 10"	"60.31"	"059"	n/a	n/a	n/a	n/a	n/a	n/a	"Trial"	n/a	n/a	n/a	"424"	"arrowright"	n/a	"NULL"	"NULL"	"NULL"	"stimuli/VerticalHorizontal_-11.78571_-0.16217.png"	n/a	"VerticalHorizontal"	"arrowright"	"1323"	"TRUE"	"VerticalHorizontal"	"-11.78571000"	"-0.162170000"	"1"	"32"
n/a	"html-keyboard-response"	"81"	"280738"	"0.0-5.0-2.0-0.14"	"d401oh"	"600"	"1366"	"chrome"	"111.0.0"	"FALSE"	"Windows 10"	"60.31"	"059"	n/a	n/a	n/a	n/a	n/a	n/a	"fixation"	n/a	n/a	n/a	n/a	"NULL"	n/a	"NULL"	"NULL"	"NULL"	"<p style=\"color: black; font-size: 80px; padding-left: 13%; padding-right: 47%; padding-top: 27%; padding-bottom: 44%\">+</p>"	"1078"	n/a	n/a	n/a	n/a	n/a	n/a	n/a	n/a	n/a
n/a	"image-keyboard-response"	"82"	"281263"	"0.0-5.0-2.0-1.14"	"d401oh"	"600"	"1366"	"chrome"	"111.0.0"	"FALSE"	"Windows 10"	"60.31"	"059"	n/a	n/a	n/a	n/a	n/a	n/a	"Trial"	n/a	n/a	n/a	"523"	"arrowleft"	n/a	"NULL"	"NULL"	"NULL"	"stimuli/VerticalHorizontal_28.75714_-0.0673.png"	n/a	"VerticalHorizontal"	"arrowright"	"1081"	"FALSE"	"VerticalHorizontal"	"28.757140000"	"-0.067300000"	"1"	"33"
n/a	"html-keyboard-response"	"83"	"282355"	"0.0-5.0-2.0-0.15"	"d401oh"	"600"	"1366"	"chrome"	"111.0.0"	"FALSE"	"Windows 10"	"60.31"	"059"	n/a	n/a	n/a	n/a	n/a	n/a	"fixation"	n/a	n/a	n/a	n/a	"NULL"	n/a	"NULL"	"NULL"	"NULL"	"<p style=\"color: black; font-size: 80px; padding-left: 6%; padding-right: 50%; padding-top: 3%; padding-bottom: 28%\">+</p>"	"1077"	n/a	n/a	n/a	n/a	n/a	n/a	n/a	n/a	n/a
n/a	"image-keyboard-response"	"84"	"283191"	"0.0-5.0-2.0-1.15"	"d401oh"	"600"	"1366"	"chrome"	"111.0.0"	"FALSE"	"Windows 10"	"60.31"	"059"	n/a	n/a	n/a	n/a	n/a	n/a	"Trial"	n/a	n/a	n/a	"835"	"arrowleft"	n/a	"NULL"	"NULL"	"NULL"	"stimuli/VerticalHorizontal_20.27143_0.06730.png"	n/a	"VerticalHorizontal"	"arrowleft"	"1092"	"TRUE"	"VerticalHorizontal"	"20.271430000"	"0.0673000000"	"1"	"34"
n/a	"html-keyboard-response"	"85"	"284322"	"0.0-5.0-2.0-0.16"	"d401oh"	"600"	"1366"	"chrome"	"111.0.0"	"FALSE"	"Windows 10"	"60.31"	"059"	n/a	n/a	n/a	n/a	n/a	n/a	"fixation"	n/a	n/a	n/a	n/a	"NULL"	n/a	"NULL"	"NULL"	"NULL"	"<p style=\"color: black; font-size: 80px; padding-left: 10%; padding-right: 20%; padding-top: 24%; padding-bottom: 31%\">+</p>"	"1125"	n/a	n/a	n/a	n/a	n/a	n/a	n/a	n/a	n/a
n/a	"image-keyboard-response"	"86"	"284855"	"0.0-5.0-2.0-1.16"	"d401oh"	"600"	"1366"	"chrome"	"111.0.0"	"FALSE"	"Windows 10"	"60.31"	"059"	n/a	n/a	n/a	n/a	n/a	n/a	"Trial"	n/a	n/a	n/a	"529"	"arrowright"	n/a	"NULL"	"NULL"	"NULL"	"stimuli/VerticalHorizontal_28.75714_0.06730.png"	n/a	"VerticalHorizontal"	"arrowleft"	"1131"	"FALSE"	"VerticalHorizontal"	"28.757140000"	"0.0673000000"	"1"	"35"
n/a	"html-keyboard-response"	"87"	"286163"	"0.0-5.0-2.0-0.17"	"d401oh"	"600"	"1366"	"chrome"	"111.0.0"	"FALSE"	"Windows 10"	"60.31"	"059"	n/a	n/a	n/a	n/a	n/a	n/a	"fixation"	n/a	n/a	n/a	n/a	"NULL"	n/a	"NULL"	"NULL"	"NULL"	"<p style=\"color: black; font-size: 80px; padding-left: 35%; padding-right: 7%; padding-top: 46%; padding-bottom: 39%\">+</p>"	"1292"	n/a	n/a	n/a	n/a	n/a	n/a	n/a	n/a	n/a
n/a	"image-keyboard-response"	"88"	"286766"	"0.0-5.0-2.0-1.17"	"d401oh"	"600"	"1366"	"chrome"	"111.0.0"	"FALSE"	"Windows 10"	"60.31"	"059"	n/a	n/a	n/a	n/a	n/a	n/a	"Trial"	n/a	n/a	n/a	"602"	"arrowleft"	n/a	"NULL"	"NULL"	"NULL"	"stimuli/VerticalHorizontal_3.30000_0.16217.png"	n/a	"VerticalHorizontal"	"arrowleft"	"1308"	"TRUE"	"VerticalHorizontal"	"3.3000000000"	"0.1621700000"	"1"	"36"
n/a	"html-keyboard-response"	"89"	"288025"	"0.0-5.0-2.0-0.18"	"d401oh"	"600"	"1366"	"chrome"	"111.0.0"	"FALSE"	"Windows 10"	"60.31"	"059"	n/a	n/a	n/a	n/a	n/a	n/a	"fixation"	n/a	n/a	n/a	n/a	"NULL"	n/a	"NULL"	"NULL"	"NULL"	"<p style=\"color: black; font-size: 80px; padding-left: 10%; padding-right: 32%; padding-top: 5%; padding-bottom: 16%\">+</p>"	"1251"	n/a	n/a	n/a	n/a	n/a	n/a	n/a	n/a	n/a
n/a	"image-keyboard-response"	"90"	"288544"	"0.0-5.0-2.0-1.18"	"d401oh"	"600"	"1366"	"chrome"	"111.0.0"	"FALSE"	"Windows 10"	"60.31"	"059"	n/a	n/a	n/a	n/a	n/a	n/a	"Trial"	n/a	n/a	n/a	"518"	"arrowleft"	n/a	"NULL"	"NULL"	"NULL"	"stimuli/VerticalHorizontal_11.78571_0.16217.png"	n/a	"VerticalHorizontal"	"arrowleft"	"1259"	"TRUE"	"VerticalHorizontal"	"11.785710000"	"0.1621700000"	"1"	"37"
n/a	"html-keyboard-response"	"91"	"290035"	"0.0-5.0-2.0-0.19"	"d401oh"	"600"	"1366"	"chrome"	"111.0.0"	"FALSE"	"Windows 10"	"60.31"	"059"	n/a	n/a	n/a	n/a	n/a	n/a	"fixation"	n/a	n/a	n/a	n/a	"NULL"	n/a	"NULL"	"NULL"	"NULL"	"<p style=\"color: black; font-size: 80px; padding-left: 0%; padding-right: 35%; padding-top: 49%; padding-bottom: 45%\">+</p>"	"1481"	n/a	n/a	n/a	n/a	n/a	n/a	n/a	n/a	n/a
n/a	"image-keyboard-response"	"92"	"290559"	"0.0-5.0-2.0-1.19"	"d401oh"	"600"	"1366"	"chrome"	"111.0.0"	"FALSE"	"Windows 10"	"60.31"	"059"	n/a	n/a	n/a	n/a	n/a	n/a	"Trial"	n/a	n/a	n/a	"523"	"arrowright"	n/a	"NULL"	"NULL"	"NULL"	"stimuli/VerticalHorizontal_28.75714_-0.1096.png"	n/a	"VerticalHorizontal"	"arrowright"	"1491"	"TRUE"	"VerticalHorizontal"	"28.757140000"	"-0.109600000"	"1"	"38"
n/a	"html-keyboard-response"	"93"	"291792"	"0.0-5.0-2.0-0.20"	"d401oh"	"600"	"1366"	"chrome"	"111.0.0"	"FALSE"	"Windows 10"	"60.31"	"059"	n/a	n/a	n/a	n/a	n/a	n/a	"fixation"	n/a	n/a	n/a	n/a	"NULL"	n/a	"NULL"	"NULL"	"NULL"	"<p style=\"color: black; font-size: 80px; padding-left: 50%; padding-right: 27%; padding-top: 44%; padding-bottom: 17%\">+</p>"	"1223"	n/a	n/a	n/a	n/a	n/a	n/a	n/a	n/a	n/a
n/a	"image-keyboard-response"	"94"	"292361"	"0.0-5.0-2.0-1.20"	"d401oh"	"600"	"1366"	"chrome"	"111.0.0"	"FALSE"	"Windows 10"	"60.31"	"059"	n/a	n/a	n/a	n/a	n/a	n/a	"Trial"	n/a	n/a	n/a	"568"	"arrowright"	n/a	"NULL"	"NULL"	"NULL"	"stimuli/VerticalHorizontal_-11.78571_-0.1096.png"	n/a	"VerticalHorizontal"	"arrowright"	"1233"	"TRUE"	"VerticalHorizontal"	"-11.78571000"	"-0.109600000"	"1"	"39"
n/a	"html-keyboard-response"	"95"	"293573"	"0.0-5.0-2.0-0.21"	"d401oh"	"600"	"1366"	"chrome"	"111.0.0"	"FALSE"	"Windows 10"	"60.31"	"059"	n/a	n/a	n/a	n/a	n/a	n/a	"fixation"	n/a	n/a	n/a	n/a	"NULL"	n/a	"NULL"	"NULL"	"NULL"	"<p style=\"color: black; font-size: 80px; padding-left: 15%; padding-right: 24%; padding-top: 13%; padding-bottom: 48%\">+</p>"	"1198"	n/a	n/a	n/a	n/a	n/a	n/a	n/a	n/a	n/a
n/a	"image-keyboard-response"	"96"	"294044"	"0.0-5.0-2.0-1.21"	"d401oh"	"600"	"1366"	"chrome"	"111.0.0"	"FALSE"	"Windows 10"	"60.31"	"059"	n/a	n/a	n/a	n/a	n/a	n/a	"Trial"	n/a	n/a	n/a	"470"	"arrowleft"	n/a	"NULL"	"NULL"	"NULL"	"stimuli/VerticalHorizontal_20.27143_0.16217.png"	n/a	"VerticalHorizontal"	"arrowleft"	"1212"	"TRUE"	"VerticalHorizontal"	"20.271430000"	"0.1621700000"	"1"	"40"
n/a	"html-keyboard-response"	"97"	"295453"	"0.0-5.0-2.0-0.22"	"d401oh"	"600"	"1366"	"chrome"	"111.0.0"	"FALSE"	"Windows 10"	"60.31"	"059"	n/a	n/a	n/a	n/a	n/a	n/a	"fixation"	n/a	n/a	n/a	n/a	"NULL"	n/a	"NULL"	"NULL"	"NULL"	"<p style=\"color: black; font-size: 80px; padding-left: 3%; padding-right: 25%; padding-top: 40%; padding-bottom: 25%\">+</p>"	"1401"	n/a	n/a	n/a	n/a	n/a	n/a	n/a	n/a	n/a
n/a	"image-keyboard-response"	"98"	"295988"	"0.0-5.0-2.0-1.22"	"d401oh"	"600"	"1366"	"chrome"	"111.0.0"	"FALSE"	"Windows 10"	"60.31"	"059"	n/a	n/a	n/a	n/a	n/a	n/a	"Trial"	n/a	n/a	n/a	"534"	"arrowright"	n/a	"NULL"	"NULL"	"NULL"	"stimuli/VerticalHorizontal_28.75714_-0.2250.png"	n/a	"VerticalHorizontal"	"arrowright"	"1409"	"TRUE"	"VerticalHorizontal"	"28.757140000"	"-0.225000000"	"1"	"41"
n/a	"html-keyboard-response"	"99"	"297453"	"0.0-5.0-2.0-0.23"	"d401oh"	"600"	"1366"	"chrome"	"111.0.0"	"FALSE"	"Windows 10"	"60.31"	"059"	n/a	n/a	n/a	n/a	n/a	n/a	"fixation"	n/a	n/a	n/a	n/a	"NULL"	n/a	"NULL"	"NULL"	"NULL"	"<p style=\"color: black; font-size: 80px; padding-left: 2%; padding-right: 25%; padding-top: 32%; padding-bottom: 43%\">+</p>"	"1462"	n/a	n/a	n/a	n/a	n/a	n/a	n/a	n/a	n/a
n/a	"image-keyboard-response"	"100"	"298099"	"0.0-5.0-2.0-1.23"	"d401oh"	"600"	"1366"	"chrome"	"111.0.0"	"FALSE"	"Windows 10"	"60.31"	"059"	n/a	n/a	n/a	n/a	n/a	n/a	"Trial"	n/a	n/a	n/a	"646"	"arrowleft"	n/a	"NULL"	"NULL"	"NULL"	"stimuli/VerticalHorizontal_11.78571_0.22500.png"	n/a	"VerticalHorizontal"	"arrowleft"	"1465"	"TRUE"	"VerticalHorizontal"	"11.785710000"	"0.2250000000"	"1"	"42"
n/a	"html-keyboard-response"	"101"	"299136"	"0.0-5.0-2.0-0.24"	"d401oh"	"600"	"1366"	"chrome"	"111.0.0"	"FALSE"	"Windows 10"	"60.31"	"059"	n/a	n/a	n/a	n/a	n/a	n/a	"fixation"	n/a	n/a	n/a	n/a	"NULL"	n/a	"NULL"	"NULL"	"NULL"	"<p style=\"color: black; font-size: 80px; padding-left: 17%; padding-right: 36%; padding-top: 23%; padding-bottom: 49%\">+</p>"	"1032"	n/a	n/a	n/a	n/a	n/a	n/a	n/a	n/a	n/a
n/a	"image-keyboard-response"	"102"	"299720"	"0.0-5.0-2.0-1.24"	"d401oh"	"600"	"1366"	"chrome"	"111.0.0"	"FALSE"	"Windows 10"	"60.31"	"059"	n/a	n/a	n/a	n/a	n/a	n/a	"Trial"	n/a	n/a	n/a	"583"	"arrowright"	n/a	"NULL"	"NULL"	"NULL"	"stimuli/VerticalHorizontal_-11.78571_-0.0673.png"	n/a	"VerticalHorizontal"	"arrowright"	"1037"	"TRUE"	"VerticalHorizontal"	"-11.78571000"	"-0.067300000"	"1"	"43"
n/a	"html-keyboard-response"	"103"	"300886"	"0.0-5.0-2.0-0.25"	"d401oh"	"600"	"1366"	"chrome"	"111.0.0"	"FALSE"	"Windows 10"	"60.31"	"059"	n/a	n/a	n/a	n/a	n/a	n/a	"fixation"	n/a	n/a	n/a	n/a	"NULL"	n/a	"NULL"	"NULL"	"NULL"	"<p style=\"color: black; font-size: 80px; padding-left: 28%; padding-right: 16%; padding-top: 33%; padding-bottom: 34%\">+</p>"	"1152"	n/a	n/a	n/a	n/a	n/a	n/a	n/a	n/a	n/a
n/a	"image-keyboard-response"	"104"	"301555"	"0.0-5.0-2.0-1.25"	"d401oh"	"600"	"1366"	"chrome"	"111.0.0"	"FALSE"	"Windows 10"	"60.31"	"059"	n/a	n/a	n/a	n/a	n/a	n/a	"Trial"	n/a	n/a	n/a	"668"	"arrowright"	n/a	"NULL"	"NULL"	"NULL"	"stimuli/VerticalHorizontal_-3.3000_-0.0673.png"	n/a	"VerticalHorizontal"	"arrowright"	"1166"	"TRUE"	"VerticalHorizontal"	"-3.300000000"	"-0.067300000"	"1"	"44"
n/a	"html-keyboard-response"	"105"	"302850"	"0.0-5.0-2.0-0.26"	"d401oh"	"600"	"1366"	"chrome"	"111.0.0"	"FALSE"	"Windows 10"	"60.31"	"059"	n/a	n/a	n/a	n/a	n/a	n/a	"fixation"	n/a	n/a	n/a	n/a	"NULL"	n/a	"NULL"	"NULL"	"NULL"	"<p style=\"color: black; font-size: 80px; padding-left: 50%; padding-right: 49%; padding-top: 31%; padding-bottom: 2%\">+</p>"	"1284"	n/a	n/a	n/a	n/a	n/a	n/a	n/a	n/a	n/a
n/a	"image-keyboard-response"	"106"	"303307"	"0.0-5.0-2.0-1.26"	"d401oh"	"600"	"1366"	"chrome"	"111.0.0"	"FALSE"	"Windows 10"	"60.31"	"059"	n/a	n/a	n/a	n/a	n/a	n/a	"Trial"	n/a	n/a	n/a	"456"	"arrowleft"	n/a	"NULL"	"NULL"	"NULL"	"stimuli/VerticalHorizontal_28.75714_0.22500.png"	n/a	"VerticalHorizontal"	"arrowleft"	"1295"	"TRUE"	"VerticalHorizontal"	"28.757140000"	"0.2250000000"	"1"	"45"
n/a	"html-keyboard-response"	"107"	"304689"	"0.0-5.0-2.0-0.27"	"d401oh"	"600"	"1366"	"chrome"	"111.0.0"	"FALSE"	"Windows 10"	"60.31"	"059"	n/a	n/a	n/a	n/a	n/a	n/a	"fixation"	n/a	n/a	n/a	n/a	"NULL"	n/a	"NULL"	"NULL"	"NULL"	"<p style=\"color: black; font-size: 80px; padding-left: 38%; padding-right: 23%; padding-top: 14%; padding-bottom: 41%\">+</p>"	"1374"	n/a	n/a	n/a	n/a	n/a	n/a	n/a	n/a	n/a
n/a	"image-keyboard-response"	"108"	"305071"	"0.0-5.0-2.0-1.27"	"d401oh"	"600"	"1366"	"chrome"	"111.0.0"	"FALSE"	"Windows 10"	"60.31"	"059"	n/a	n/a	n/a	n/a	n/a	n/a	"Trial"	n/a	n/a	n/a	"380"	"arrowright"	n/a	"NULL"	"NULL"	"NULL"	"stimuli/VerticalHorizontal_-28.75714_-0.1096.png"	n/a	"VerticalHorizontal"	"arrowright"	"1382"	"TRUE"	"VerticalHorizontal"	"-28.75714000"	"-0.109600000"	"1"	"46"
n/a	"html-keyboard-response"	"109"	"306506"	"0.0-5.0-2.0-0.28"	"d401oh"	"600"	"1366"	"chrome"	"111.0.0"	"FALSE"	"Windows 10"	"60.31"	"059"	n/a	n/a	n/a	n/a	n/a	n/a	"fixation"	n/a	n/a	n/a	n/a	"NULL"	n/a	"NULL"	"NULL"	"NULL"	"<p style=\"color: black; font-size: 80px; padding-left: 25%; padding-right: 41%; padding-top: 34%; padding-bottom: 27%\">+</p>"	"1421"	n/a	n/a	n/a	n/a	n/a	n/a	n/a	n/a	n/a
n/a	"image-keyboard-response"	"110"	"307063"	"0.0-5.0-2.0-1.28"	"d401oh"	"600"	"1366"	"chrome"	"111.0.0"	"FALSE"	"Windows 10"	"60.31"	"059"	n/a	n/a	n/a	n/a	n/a	n/a	"Trial"	n/a	n/a	n/a	"557"	"arrowleft"	n/a	"NULL"	"NULL"	"NULL"	"stimuli/VerticalHorizontal_28.75714_-0.16217.png"	n/a	"VerticalHorizontal"	"arrowright"	"1435"	"FALSE"	"VerticalHorizontal"	"28.757140000"	"-0.162170000"	"1"	"47"
n/a	"html-keyboard-response"	"111"	"308573"	"0.0-5.0-2.0-0.29"	"d401oh"	"600"	"1366"	"chrome"	"111.0.0"	"FALSE"	"Windows 10"	"60.31"	"059"	n/a	n/a	n/a	n/a	n/a	n/a	"fixation"	n/a	n/a	n/a	n/a	"NULL"	n/a	"NULL"	"NULL"	"NULL"	"<p style=\"color: black; font-size: 80px; padding-left: 49%; padding-right: 12%; padding-top: 41%; padding-bottom: 10%\">+</p>"	"1499"	n/a	n/a	n/a	n/a	n/a	n/a	n/a	n/a	n/a
n/a	"image-keyboard-response"	"112"	"309046"	"0.0-5.0-2.0-1.29"	"d401oh"	"600"	"1366"	"chrome"	"111.0.0"	"FALSE"	"Windows 10"	"60.31"	"059"	n/a	n/a	n/a	n/a	n/a	n/a	"Trial"	n/a	n/a	n/a	"472"	"arrowright"	n/a	"NULL"	"NULL"	"NULL"	"stimuli/VerticalHorizontal_3.30000_-0.1096.png"	n/a	"VerticalHorizontal"	"arrowright"	"1510"	"TRUE"	"VerticalHorizontal"	"3.3000000000"	"-0.109600000"	"1"	"48"
n/a	"html-keyboard-response"	"113"	"310277"	"0.0-5.0-2.0-0.30"	"d401oh"	"600"	"1366"	"chrome"	"111.0.0"	"FALSE"	"Windows 10"	"60.31"	"059"	n/a	n/a	n/a	n/a	n/a	n/a	"fixation"	n/a	n/a	n/a	n/a	"NULL"	n/a	"NULL"	"NULL"	"NULL"	"<p style=\"color: black; font-size: 80px; padding-left: 47%; padding-right: 15%; padding-top: 39%; padding-bottom: 16%\">+</p>"	"1224"	n/a	n/a	n/a	n/a	n/a	n/a	n/a	n/a	n/a
n/a	"image-keyboard-response"	"114"	"310822"	"0.0-5.0-2.0-1.30"	"d401oh"	"600"	"1366"	"chrome"	"111.0.0"	"FALSE"	"Windows 10"	"60.31"	"059"	n/a	n/a	n/a	n/a	n/a	n/a	"Trial"	n/a	n/a	n/a	"544"	"arrowleft"	n/a	"NULL"	"NULL"	"NULL"	"stimuli/VerticalHorizontal_-20.27143_0.16217.png"	n/a	"VerticalHorizontal"	"arrowleft"	"1231"	"TRUE"	"VerticalHorizontal"	"-20.27143000"	"0.1621700000"	"1"	"49"
n/a	"html-keyboard-response"	"115"	"311932"	"0.0-5.0-2.0-0.31"	"d401oh"	"600"	"1366"	"chrome"	"111.0.0"	"FALSE"	"Windows 10"	"60.31"	"059"	n/a	n/a	n/a	n/a	n/a	n/a	"fixation"	n/a	n/a	n/a	n/a	"NULL"	n/a	"NULL"	"NULL"	"NULL"	"<p style=\"color: black; font-size: 80px; padding-left: 37%; padding-right: 23%; padding-top: 31%; padding-bottom: 41%\">+</p>"	"1107"	n/a	n/a	n/a	n/a	n/a	n/a	n/a	n/a	n/a
n/a	"image-keyboard-response"	"116"	"312795"	"0.0-5.0-2.0-1.31"	"d401oh"	"600"	"1366"	"chrome"	"111.0.0"	"FALSE"	"Windows 10"	"60.31"	"059"	n/a	n/a	n/a	n/a	n/a	n/a	"Trial"	n/a	n/a	n/a	"862"	"arrowleft"	n/a	"NULL"	"NULL"	"NULL"	"stimuli/VerticalHorizontal_11.78571_0.10960.png"	n/a	"VerticalHorizontal"	"arrowleft"	"1110"	"TRUE"	"VerticalHorizontal"	"11.785710000"	"0.1096000000"	"1"	"50"
n/a	"html-keyboard-response"	"117"	"313886"	"0.0-5.0-2.0-0.32"	"d401oh"	"600"	"1366"	"chrome"	"111.0.0"	"FALSE"	"Windows 10"	"60.31"	"059"	n/a	n/a	n/a	n/a	n/a	n/a	"fixation"	n/a	n/a	n/a	n/a	"NULL"	n/a	"NULL"	"NULL"	"NULL"	"<p style=\"color: black; font-size: 80px; padding-left: 50%; padding-right: 18%; padding-top: 10%; padding-bottom: 50%\">+</p>"	"1079"	n/a	n/a	n/a	n/a	n/a	n/a	n/a	n/a	n/a
n/a	"image-keyboard-response"	"118"	"314552"	"0.0-5.0-2.0-1.32"	"d401oh"	"600"	"1366"	"chrome"	"111.0.0"	"FALSE"	"Windows 10"	"60.31"	"059"	n/a	n/a	n/a	n/a	n/a	n/a	"Trial"	n/a	n/a	n/a	"666"	"arrowright"	n/a	"NULL"	"NULL"	"NULL"	"stimuli/VerticalHorizontal_20.27143_0.10960.png"	n/a	"VerticalHorizontal"	"arrowleft"	"1091"	"FALSE"	"VerticalHorizontal"	"20.271430000"	"0.1096000000"	"1"	"51"
n/a	"html-keyboard-response"	"119"	"315840"	"0.0-5.0-2.0-0.33"	"d401oh"	"600"	"1366"	"chrome"	"111.0.0"	"FALSE"	"Windows 10"	"60.31"	"059"	n/a	n/a	n/a	n/a	n/a	n/a	"fixation"	n/a	n/a	n/a	n/a	"NULL"	n/a	"NULL"	"NULL"	"NULL"	"<p style=\"color: black; font-size: 80px; padding-left: 31%; padding-right: 10%; padding-top: 11%; padding-bottom: 47%\">+</p>"	"1280"	n/a	n/a	n/a	n/a	n/a	n/a	n/a	n/a	n/a
n/a	"image-keyboard-response"	"120"	"316429"	"0.0-5.0-2.0-1.33"	"d401oh"	"600"	"1366"	"chrome"	"111.0.0"	"FALSE"	"Windows 10"	"60.31"	"059"	n/a	n/a	n/a	n/a	n/a	n/a	"Trial"	n/a	n/a	n/a	"589"	"arrowleft"	n/a	"NULL"	"NULL"	"NULL"	"stimuli/VerticalHorizontal_-3.3000_0.22500.png"	n/a	"VerticalHorizontal"	"arrowleft"	"1288"	"TRUE"	"VerticalHorizontal"	"-3.300000000"	"0.2250000000"	"1"	"52"
n/a	"html-keyboard-response"	"121"	"317856"	"0.0-5.0-2.0-0.34"	"d401oh"	"600"	"1366"	"chrome"	"111.0.0"	"FALSE"	"Windows 10"	"60.31"	"059"	n/a	n/a	n/a	n/a	n/a	n/a	"fixation"	n/a	n/a	n/a	n/a	"NULL"	n/a	"NULL"	"NULL"	"NULL"	"<p style=\"color: black; font-size: 80px; padding-left: 43%; padding-right: 14%; padding-top: 38%; padding-bottom: 36%\">+</p>"	"1423"	n/a	n/a	n/a	n/a	n/a	n/a	n/a	n/a	n/a
n/a	"image-keyboard-response"	"122"	"318369"	"0.0-5.0-2.0-1.34"	"d401oh"	"600"	"1366"	"chrome"	"111.0.0"	"FALSE"	"Windows 10"	"60.31"	"059"	n/a	n/a	n/a	n/a	n/a	n/a	"Trial"	n/a	n/a	n/a	"512"	"arrowleft"	n/a	"NULL"	"NULL"	"NULL"	"stimuli/VerticalHorizontal_28.75714_0.16217.png"	n/a	"VerticalHorizontal"	"arrowleft"	"1427"	"TRUE"	"VerticalHorizontal"	"28.757140000"	"0.1621700000"	"1"	"53"
n/a	"html-keyboard-response"	"123"	"319779"	"0.0-5.0-2.0-0.35"	"d401oh"	"600"	"1366"	"chrome"	"111.0.0"	"FALSE"	"Windows 10"	"60.31"	"059"	n/a	n/a	n/a	n/a	n/a	n/a	"fixation"	n/a	n/a	n/a	n/a	"NULL"	n/a	"NULL"	"NULL"	"NULL"	"<p style=\"color: black; font-size: 80px; padding-left: 46%; padding-right: 33%; padding-top: 23%; padding-bottom: 10%\">+</p>"	"1394"	n/a	n/a	n/a	n/a	n/a	n/a	n/a	n/a	n/a
n/a	"image-keyboard-response"	"124"	"320404"	"0.0-5.0-2.0-1.35"	"d401oh"	"600"	"1366"	"chrome"	"111.0.0"	"FALSE"	"Windows 10"	"60.31"	"059"	n/a	n/a	n/a	n/a	n/a	n/a	"Trial"	n/a	n/a	n/a	"624"	"arrowleft"	n/a	"NULL"	"NULL"	"NULL"	"stimuli/VerticalHorizontal_-3.3000_0.16217.png"	n/a	"VerticalHorizontal"	"arrowleft"	"1410"	"TRUE"	"VerticalHorizontal"	"-3.300000000"	"0.1621700000"	"1"	"54"
n/a	"html-keyboard-response"	"125"	"321855"	"0.0-5.0-2.0-0.36"	"d401oh"	"600"	"1366"	"chrome"	"111.0.0"	"FALSE"	"Windows 10"	"60.31"	"059"	n/a	n/a	n/a	n/a	n/a	n/a	"fixation"	n/a	n/a	n/a	n/a	"NULL"	n/a	"NULL"	"NULL"	"NULL"	"<p style=\"color: black; font-size: 80px; padding-left: 4%; padding-right: 10%; padding-top: 47%; padding-bottom: 48%\">+</p>"	"1449"	n/a	n/a	n/a	n/a	n/a	n/a	n/a	n/a	n/a
n/a	"image-keyboard-response"	"126"	"322374"	"0.0-5.0-2.0-1.36"	"d401oh"	"600"	"1366"	"chrome"	"111.0.0"	"FALSE"	"Windows 10"	"60.31"	"059"	n/a	n/a	n/a	n/a	n/a	n/a	"Trial"	n/a	n/a	n/a	"519"	"arrowleft"	n/a	"NULL"	"NULL"	"NULL"	"stimuli/VerticalHorizontal_-11.78571_0.16217.png"	n/a	"VerticalHorizontal"	"arrowleft"	"1451"	"TRUE"	"VerticalHorizontal"	"-11.78571000"	"0.1621700000"	"1"	"55"
n/a	"html-keyboard-response"	"127"	"323833"	"0.0-5.0-2.0-0.37"	"d401oh"	"600"	"1366"	"chrome"	"111.0.0"	"FALSE"	"Windows 10"	"60.31"	"059"	n/a	n/a	n/a	n/a	n/a	n/a	"fixation"	n/a	n/a	n/a	n/a	"NULL"	n/a	"NULL"	"NULL"	"NULL"	"<p style=\"color: black; font-size: 80px; padding-left: 35%; padding-right: 44%; padding-top: 38%; padding-bottom: 37%\">+</p>"	"1445"	n/a	n/a	n/a	n/a	n/a	n/a	n/a	n/a	n/a
n/a	"image-keyboard-response"	"128"	"324309"	"0.0-5.0-2.0-1.37"	"d401oh"	"600"	"1366"	"chrome"	"111.0.0"	"FALSE"	"Windows 10"	"60.31"	"059"	n/a	n/a	n/a	n/a	n/a	n/a	"Trial"	n/a	n/a	n/a	"474"	"arrowright"	n/a	"NULL"	"NULL"	"NULL"	"stimuli/VerticalHorizontal_11.78571_-0.1096.png"	n/a	"VerticalHorizontal"	"arrowright"	"1459"	"TRUE"	"VerticalHorizontal"	"11.785710000"	"-0.109600000"	"1"	"56"
n/a	"html-keyboard-response"	"129"	"325332"	"0.0-5.0-2.0-0.38"	"d401oh"	"600"	"1366"	"chrome"	"111.0.0"	"FALSE"	"Windows 10"	"60.31"	"059"	n/a	n/a	n/a	n/a	n/a	n/a	"fixation"	n/a	n/a	n/a	n/a	"NULL"	n/a	"NULL"	"NULL"	"NULL"	"<p style=\"color: black; font-size: 80px; padding-left: 29%; padding-right: 11%; padding-top: 15%; padding-bottom: 43%\">+</p>"	"1008"	n/a	n/a	n/a	n/a	n/a	n/a	n/a	n/a	n/a
n/a	"image-keyboard-response"	"130"	"325842"	"0.0-5.0-2.0-1.38"	"d401oh"	"600"	"1366"	"chrome"	"111.0.0"	"FALSE"	"Windows 10"	"60.31"	"059"	n/a	n/a	n/a	n/a	n/a	n/a	"Trial"	n/a	n/a	n/a	"509"	"arrowright"	n/a	"NULL"	"NULL"	"NULL"	"stimuli/VerticalHorizontal_11.78571_-0.0673.png"	n/a	"VerticalHorizontal"	"arrowright"	"1023"	"TRUE"	"VerticalHorizontal"	"11.785710000"	"-0.067300000"	"1"	"57"
n/a	"html-keyboard-response"	"131"	"326894"	"0.0-5.0-2.0-0.39"	"d401oh"	"600"	"1366"	"chrome"	"111.0.0"	"FALSE"	"Windows 10"	"60.31"	"059"	n/a	n/a	n/a	n/a	n/a	n/a	"fixation"	n/a	n/a	n/a	n/a	"NULL"	n/a	"NULL"	"NULL"	"NULL"	"<p style=\"color: black; font-size: 80px; padding-left: 31%; padding-right: 43%; padding-top: 17%; padding-bottom: 36%\">+</p>"	"1046"	n/a	n/a	n/a	n/a	n/a	n/a	n/a	n/a	n/a
n/a	"image-keyboard-response"	"132"	"327542"	"0.0-5.0-2.0-1.39"	"d401oh"	"600"	"1366"	"chrome"	"111.0.0"	"FALSE"	"Windows 10"	"60.31"	"059"	n/a	n/a	n/a	n/a	n/a	n/a	"Trial"	n/a	n/a	n/a	"647"	"arrowright"	n/a	"NULL"	"NULL"	"NULL"	"stimuli/VerticalHorizontal_20.27143_-0.16217.png"	n/a	"VerticalHorizontal"	"arrowright"	"1052"	"TRUE"	"VerticalHorizontal"	"20.271430000"	"-0.162170000"	"1"	"58"
n/a	"html-keyboard-response"	"133"	"328949"	"0.0-5.0-2.0-0.40"	"d401oh"	"600"	"1366"	"chrome"	"111.0.0"	"FALSE"	"Windows 10"	"60.31"	"059"	n/a	n/a	n/a	n/a	n/a	n/a	"fixation"	n/a	n/a	n/a	n/a	"NULL"	n/a	"NULL"	"NULL"	"NULL"	"<p style=\"color: black; font-size: 80px; padding-left: 26%; padding-right: 27%; padding-top: 47%; padding-bottom: 1%\">+</p>"	"1404"	n/a	n/a	n/a	n/a	n/a	n/a	n/a	n/a	n/a
n/a	"image-keyboard-response"	"134"	"329410"	"0.0-5.0-2.0-1.40"	"d401oh"	"600"	"1366"	"chrome"	"111.0.0"	"FALSE"	"Windows 10"	"60.31"	"059"	n/a	n/a	n/a	n/a	n/a	n/a	"Trial"	n/a	n/a	n/a	"460"	"arrowleft"	n/a	"NULL"	"NULL"	"NULL"	"stimuli/VerticalHorizontal_-11.78571_0.22500.png"	n/a	"VerticalHorizontal"	"arrowleft"	"1407"	"TRUE"	"VerticalHorizontal"	"-11.78571000"	"0.2250000000"	"1"	"59"
n/a	"html-keyboard-response"	"135"	"330724"	"0.0-5.0-2.0-0.41"	"d401oh"	"600"	"1366"	"chrome"	"111.0.0"	"FALSE"	"Windows 10"	"60.31"	"059"	n/a	n/a	n/a	n/a	n/a	n/a	"fixation"	n/a	n/a	n/a	n/a	"NULL"	n/a	"NULL"	"NULL"	"NULL"	"<p style=\"color: black; font-size: 80px; padding-left: 41%; padding-right: 48%; padding-top: 19%; padding-bottom: 41%\">+</p>"	"1311"	n/a	n/a	n/a	n/a	n/a	n/a	n/a	n/a	n/a
n/a	"image-keyboard-response"	"136"	"331236"	"0.0-5.0-2.0-1.41"	"d401oh"	"600"	"1366"	"chrome"	"111.0.0"	"FALSE"	"Windows 10"	"60.31"	"059"	n/a	n/a	n/a	n/a	n/a	n/a	"Trial"	n/a	n/a	n/a	"511"	"arrowright"	n/a	"NULL"	"NULL"	"NULL"	"stimuli/VerticalHorizontal_-20.27143_-0.16217.png"	n/a	"VerticalHorizontal"	"arrowright"	"1314"	"TRUE"	"VerticalHorizontal"	"-20.27143000"	"-0.162170000"	"1"	"60"
n/a	"html-keyboard-response"	"137"	"332659"	"0.0-5.0-2.0-0.42"	"d401oh"	"600"	"1366"	"chrome"	"111.0.0"	"FALSE"	"Windows 10"	"60.31"	"059"	n/a	n/a	n/a	n/a	n/a	n/a	"fixation"	n/a	n/a	n/a	n/a	"NULL"	n/a	"NULL"	"NULL"	"NULL"	"<p style=\"color: black; font-size: 80px; padding-left: 8%; padding-right: 26%; padding-top: 47%; padding-bottom: 2%\">+</p>"	"1408"	n/a	n/a	n/a	n/a	n/a	n/a	n/a	n/a	n/a
n/a	"image-keyboard-response"	"138"	"333096"	"0.0-5.0-2.0-1.42"	"d401oh"	"600"	"1366"	"chrome"	"111.0.0"	"FALSE"	"Windows 10"	"60.31"	"059"	n/a	n/a	n/a	n/a	n/a	n/a	"Trial"	n/a	n/a	n/a	"435"	"arrowright"	n/a	"NULL"	"NULL"	"NULL"	"stimuli/VerticalHorizontal_-28.75714_-0.2250.png"	n/a	"VerticalHorizontal"	"arrowright"	"1423"	"TRUE"	"VerticalHorizontal"	"-28.75714000"	"-0.225000000"	"1"	"61"
n/a	"html-keyboard-response"	"139"	"334402"	"0.0-5.0-2.0-0.43"	"d401oh"	"600"	"1366"	"chrome"	"111.0.0"	"FALSE"	"Windows 10"	"60.31"	"059"	n/a	n/a	n/a	n/a	n/a	n/a	"fixation"	n/a	n/a	n/a	n/a	"NULL"	n/a	"NULL"	"NULL"	"NULL"	"<p style=\"color: black; font-size: 80px; padding-left: 26%; padding-right: 35%; padding-top: 36%; padding-bottom: 42%\">+</p>"	"1299"	n/a	n/a	n/a	n/a	n/a	n/a	n/a	n/a	n/a
n/a	"image-keyboard-response"	"140"	"334906"	"0.0-5.0-2.0-1.43"	"d401oh"	"600"	"1366"	"chrome"	"111.0.0"	"FALSE"	"Windows 10"	"60.31"	"059"	n/a	n/a	n/a	n/a	n/a	n/a	"Trial"	n/a	n/a	n/a	"503"	"arrowright"	n/a	"NULL"	"NULL"	"NULL"	"stimuli/VerticalHorizontal_-3.3000_-0.16217.png"	n/a	"VerticalHorizontal"	"arrowright"	"1306"	"TRUE"	"VerticalHorizontal"	"-3.300000000"	"-0.162170000"	"1"	"62"
n/a	"html-keyboard-response"	"141"	"336090"	"0.0-5.0-2.0-0.44"	"d401oh"	"600"	"1366"	"chrome"	"111.0.0"	"FALSE"	"Windows 10"	"60.31"	"059"	n/a	n/a	n/a	n/a	n/a	n/a	"fixation"	n/a	n/a	n/a	n/a	"NULL"	n/a	"NULL"	"NULL"	"NULL"	"<p style=\"color: black; font-size: 80px; padding-left: 34%; padding-right: 24%; padding-top: 3%; padding-bottom: 0%\">+</p>"	"1170"	n/a	n/a	n/a	n/a	n/a	n/a	n/a	n/a	n/a
n/a	"image-keyboard-response"	"142"	"336592"	"0.0-5.0-2.0-1.44"	"d401oh"	"600"	"1366"	"chrome"	"111.0.0"	"FALSE"	"Windows 10"	"60.31"	"059"	n/a	n/a	n/a	n/a	n/a	n/a	"Trial"	n/a	n/a	n/a	"501"	"arrowleft"	n/a	"NULL"	"NULL"	"NULL"	"stimuli/VerticalHorizontal_-28.75714_0.06730.png"	n/a	"VerticalHorizontal"	"arrowleft"	"1184"	"TRUE"	"VerticalHorizontal"	"-28.75714000"	"0.0673000000"	"1"	"63"
n/a	"html-keyboard-response"	"143"	"337895"	"0.0-5.0-2.0-0.45"	"d401oh"	"600"	"1366"	"chrome"	"111.0.0"	"FALSE"	"Windows 10"	"60.31"	"059"	n/a	n/a	n/a	n/a	n/a	n/a	"fixation"	n/a	n/a	n/a	n/a	"NULL"	n/a	"NULL"	"NULL"	"NULL"	"<p style=\"color: black; font-size: 80px; padding-left: 14%; padding-right: 4%; padding-top: 8%; padding-bottom: 9%\">+</p>"	"1291"	n/a	n/a	n/a	n/a	n/a	n/a	n/a	n/a	n/a
n/a	"image-keyboard-response"	"144"	"338456"	"0.0-5.0-2.0-1.45"	"d401oh"	"600"	"1366"	"chrome"	"111.0.0"	"FALSE"	"Windows 10"	"60.31"	"059"	n/a	n/a	n/a	n/a	n/a	n/a	"Trial"	n/a	n/a	n/a	"560"	"arrowleft"	n/a	"NULL"	"NULL"	"NULL"	"stimuli/VerticalHorizontal_20.27143_0.22500.png"	n/a	"VerticalHorizontal"	"arrowleft"	"1303"	"TRUE"	"VerticalHorizontal"	"20.271430000"	"0.2250000000"	"1"	"64"
n/a	"html-keyboard-response"	"145"	"339604"	"0.0-5.0-2.0-0.46"	"d401oh"	"600"	"1366"	"chrome"	"111.0.0"	"FALSE"	"Windows 10"	"60.31"	"059"	n/a	n/a	n/a	n/a	n/a	n/a	"fixation"	n/a	n/a	n/a	n/a	"NULL"	n/a	"NULL"	"NULL"	"NULL"	"<p style=\"color: black; font-size: 80px; padding-left: 8%; padding-right: 43%; padding-top: 12%; padding-bottom: 24%\">+</p>"	"1138"	n/a	n/a	n/a	n/a	n/a	n/a	n/a	n/a	n/a
n/a	"image-keyboard-response"	"146"	"340022"	"0.0-5.0-2.0-1.46"	"d401oh"	"600"	"1366"	"chrome"	"111.0.0"	"FALSE"	"Windows 10"	"60.31"	"059"	n/a	n/a	n/a	n/a	n/a	n/a	"Trial"	n/a	n/a	n/a	"417"	"arrowleft"	n/a	"NULL"	"NULL"	"NULL"	"stimuli/VerticalHorizontal_-28.75714_0.10960.png"	n/a	"VerticalHorizontal"	"arrowleft"	"1148"	"TRUE"	"VerticalHorizontal"	"-28.75714000"	"0.1096000000"	"1"	"65"
n/a	"html-keyboard-response"	"147"	"341478"	"0.0-5.0-2.0-0.47"	"d401oh"	"600"	"1366"	"chrome"	"111.0.0"	"FALSE"	"Windows 10"	"60.31"	"059"	n/a	n/a	n/a	n/a	n/a	n/a	"fixation"	n/a	n/a	n/a	n/a	"NULL"	n/a	"NULL"	"NULL"	"NULL"	"<p style=\"color: black; font-size: 80px; padding-left: 20%; padding-right: 5%; padding-top: 32%; padding-bottom: 24%\">+</p>"	"1446"	n/a	n/a	n/a	n/a	n/a	n/a	n/a	n/a	n/a
n/a	"image-keyboard-response"	"148"	"341872"	"0.0-5.0-2.0-1.47"	"d401oh"	"600"	"1366"	"chrome"	"111.0.0"	"FALSE"	"Windows 10"	"60.31"	"059"	n/a	n/a	n/a	n/a	n/a	n/a	"Trial"	n/a	n/a	n/a	"393"	"arrowright"	n/a	"NULL"	"NULL"	"NULL"	"stimuli/VerticalHorizontal_-28.75714_0.22500.png"	n/a	"VerticalHorizontal"	"arrowleft"	"1456"	"FALSE"	"VerticalHorizontal"	"-28.75714000"	"0.2250000000"	"1"	"66"
n/a	"html-keyboard-response"	"149"	"343345"	"0.0-5.0-2.0-0.48"	"d401oh"	"600"	"1366"	"chrome"	"111.0.0"	"FALSE"	"Windows 10"	"60.31"	"059"	n/a	n/a	n/a	n/a	n/a	n/a	"fixation"	n/a	n/a	n/a	n/a	"NULL"	n/a	"NULL"	"NULL"	"NULL"	"<p style=\"color: black; font-size: 80px; padding-left: 15%; padding-right: 24%; padding-top: 22%; padding-bottom: 7%\">+</p>"	"1467"	n/a	n/a	n/a	n/a	n/a	n/a	n/a	n/a	n/a
n/a	"image-keyboard-response"	"150"	"343764"	"0.0-5.0-2.0-1.48"	"d401oh"	"600"	"1366"	"chrome"	"111.0.0"	"FALSE"	"Windows 10"	"60.31"	"059"	n/a	n/a	n/a	n/a	n/a	n/a	"Trial"	n/a	n/a	n/a	"417"	"arrowleft"	n/a	"NULL"	"NULL"	"NULL"	"stimuli/VerticalHorizontal_3.30000_0.10960.png"	n/a	"VerticalHorizontal"	"arrowleft"	"1473"	"TRUE"	"VerticalHorizontal"	"3.3000000000"	"0.1096000000"	"1"	"67"
n/a	"html-keyboard-response"	"151"	"344949"	"0.0-5.0-2.0-0.49"	"d401oh"	"600"	"1366"	"chrome"	"111.0.0"	"FALSE"	"Windows 10"	"60.31"	"059"	n/a	n/a	n/a	n/a	n/a	n/a	"fixation"	n/a	n/a	n/a	n/a	"NULL"	n/a	"NULL"	"NULL"	"NULL"	"<p style=\"color: black; font-size: 80px; padding-left: 24%; padding-right: 8%; padding-top: 34%; padding-bottom: 2%\">+</p>"	"1180"	n/a	n/a	n/a	n/a	n/a	n/a	n/a	n/a	n/a
n/a	"image-keyboard-response"	"152"	"345408"	"0.0-5.0-2.0-1.49"	"d401oh"	"600"	"1366"	"chrome"	"111.0.0"	"FALSE"	"Windows 10"	"60.31"	"059"	n/a	n/a	n/a	n/a	n/a	n/a	"Trial"	n/a	n/a	n/a	"459"	"arrowright"	n/a	"NULL"	"NULL"	"NULL"	"stimuli/VerticalHorizontal_-3.3000_-0.2250.png"	n/a	"VerticalHorizontal"	"arrowright"	"1185"	"TRUE"	"VerticalHorizontal"	"-3.300000000"	"-0.225000000"	"1"	"68"
n/a	"html-keyboard-response"	"153"	"346716"	"0.0-5.0-2.0-0.50"	"d401oh"	"600"	"1366"	"chrome"	"111.0.0"	"FALSE"	"Windows 10"	"60.31"	"059"	n/a	n/a	n/a	n/a	n/a	n/a	"fixation"	n/a	n/a	n/a	n/a	"NULL"	n/a	"NULL"	"NULL"	"NULL"	"<p style=\"color: black; font-size: 80px; padding-left: 48%; padding-right: 2%; padding-top: 43%; padding-bottom: 14%\">+</p>"	"1298"	n/a	n/a	n/a	n/a	n/a	n/a	n/a	n/a	n/a
n/a	"image-keyboard-response"	"154"	"347156"	"0.0-5.0-2.0-1.50"	"d401oh"	"600"	"1366"	"chrome"	"111.0.0"	"FALSE"	"Windows 10"	"60.31"	"059"	n/a	n/a	n/a	n/a	n/a	n/a	"Trial"	n/a	n/a	n/a	"437"	"arrowleft"	n/a	"NULL"	"NULL"	"NULL"	"stimuli/VerticalHorizontal_28.75714_0.10960.png"	n/a	"VerticalHorizontal"	"arrowleft"	"1308"	"TRUE"	"VerticalHorizontal"	"28.757140000"	"0.1096000000"	"1"	"69"
n/a	"html-keyboard-response"	"155"	"348599"	"0.0-5.0-2.0-0.51"	"d401oh"	"600"	"1366"	"chrome"	"111.0.0"	"FALSE"	"Windows 10"	"60.31"	"059"	n/a	n/a	n/a	n/a	n/a	n/a	"fixation"	n/a	n/a	n/a	n/a	"NULL"	n/a	"NULL"	"NULL"	"NULL"	"<p style=\"color: black; font-size: 80px; padding-left: 49%; padding-right: 35%; padding-top: 45%; padding-bottom: 41%\">+</p>"	"1431"	n/a	n/a	n/a	n/a	n/a	n/a	n/a	n/a	n/a
n/a	"image-keyboard-response"	"156"	"348990"	"0.0-5.0-2.0-1.51"	"d401oh"	"600"	"1366"	"chrome"	"111.0.0"	"FALSE"	"Windows 10"	"60.31"	"059"	n/a	n/a	n/a	n/a	n/a	n/a	"Trial"	n/a	n/a	n/a	"390"	"arrowleft"	n/a	"NULL"	"NULL"	"NULL"	"stimuli/VerticalHorizontal_-20.27143_0.06730.png"	n/a	"VerticalHorizontal"	"arrowleft"	"1443"	"TRUE"	"VerticalHorizontal"	"-20.27143000"	"0.0673000000"	"1"	"70"
n/a	"html-keyboard-response"	"157"	"350024"	"0.0-5.0-2.0-0.52"	"d401oh"	"600"	"1366"	"chrome"	"111.0.0"	"FALSE"	"Windows 10"	"60.31"	"059"	n/a	n/a	n/a	n/a	n/a	n/a	"fixation"	n/a	n/a	n/a	n/a	"NULL"	n/a	"NULL"	"NULL"	"NULL"	"<p style=\"color: black; font-size: 80px; padding-left: 29%; padding-right: 7%; padding-top: 45%; padding-bottom: 25%\">+</p>"	"1027"	n/a	n/a	n/a	n/a	n/a	n/a	n/a	n/a	n/a
n/a	"image-keyboard-response"	"158"	"350492"	"0.0-5.0-2.0-1.52"	"d401oh"	"600"	"1366"	"chrome"	"111.0.0"	"FALSE"	"Windows 10"	"60.31"	"059"	n/a	n/a	n/a	n/a	n/a	n/a	"Trial"	n/a	n/a	n/a	"467"	"arrowleft"	n/a	"NULL"	"NULL"	"NULL"	"stimuli/VerticalHorizontal_-3.3000_0.10960.png"	n/a	"VerticalHorizontal"	"arrowleft"	"1034"	"TRUE"	"VerticalHorizontal"	"-3.300000000"	"0.1096000000"	"1"	"71"
n/a	"html-keyboard-response"	"159"	"351776"	"0.0-5.0-2.0-0.53"	"d401oh"	"600"	"1366"	"chrome"	"111.0.0"	"FALSE"	"Windows 10"	"60.31"	"059"	n/a	n/a	n/a	n/a	n/a	n/a	"fixation"	n/a	n/a	n/a	n/a	"NULL"	n/a	"NULL"	"NULL"	"NULL"	"<p style=\"color: black; font-size: 80px; padding-left: 16%; padding-right: 9%; padding-top: 50%; padding-bottom: 45%\">+</p>"	"1280"	n/a	n/a	n/a	n/a	n/a	n/a	n/a	n/a	n/a
n/a	"image-keyboard-response"	"160"	"352275"	"0.0-5.0-2.0-1.53"	"d401oh"	"600"	"1366"	"chrome"	"111.0.0"	"FALSE"	"Windows 10"	"60.31"	"059"	n/a	n/a	n/a	n/a	n/a	n/a	"Trial"	n/a	n/a	n/a	"498"	"arrowleft"	n/a	"NULL"	"NULL"	"NULL"	"stimuli/VerticalHorizontal_-11.78571_0.06730.png"	n/a	"VerticalHorizontal"	"arrowleft"	"1284"	"TRUE"	"VerticalHorizontal"	"-11.78571000"	"0.0673000000"	"1"	"72"
n/a	"html-keyboard-response"	"161"	"353753"	"0.0-5.0-2.0-0.54"	"d401oh"	"600"	"1366"	"chrome"	"111.0.0"	"FALSE"	"Windows 10"	"60.31"	"059"	n/a	n/a	n/a	n/a	n/a	n/a	"fixation"	n/a	n/a	n/a	n/a	"NULL"	n/a	"NULL"	"NULL"	"NULL"	"<p style=\"color: black; font-size: 80px; padding-left: 30%; padding-right: 35%; padding-top: 47%; padding-bottom: 19%\">+</p>"	"1469"	n/a	n/a	n/a	n/a	n/a	n/a	n/a	n/a	n/a
n/a	"image-keyboard-response"	"162"	"354179"	"0.0-5.0-2.0-1.54"	"d401oh"	"600"	"1366"	"chrome"	"111.0.0"	"FALSE"	"Windows 10"	"60.31"	"059"	n/a	n/a	n/a	n/a	n/a	n/a	"Trial"	n/a	n/a	n/a	"425"	"arrowleft"	n/a	"NULL"	"NULL"	"NULL"	"stimuli/VerticalHorizontal_-20.27143_0.10960.png"	n/a	"VerticalHorizontal"	"arrowleft"	"1478"	"TRUE"	"VerticalHorizontal"	"-20.27143000"	"0.1096000000"	"1"	"73"
n/a	"html-keyboard-response"	"163"	"355526"	"0.0-5.0-2.0-0.55"	"d401oh"	"600"	"1366"	"chrome"	"111.0.0"	"FALSE"	"Windows 10"	"60.31"	"059"	n/a	n/a	n/a	n/a	n/a	n/a	"fixation"	n/a	n/a	n/a	n/a	"NULL"	n/a	"NULL"	"NULL"	"NULL"	"<p style=\"color: black; font-size: 80px; padding-left: 20%; padding-right: 7%; padding-top: 10%; padding-bottom: 36%\">+</p>"	"1335"	n/a	n/a	n/a	n/a	n/a	n/a	n/a	n/a	n/a
n/a	"image-keyboard-response"	"164"	"356037"	"0.0-5.0-2.0-1.55"	"d401oh"	"600"	"1366"	"chrome"	"111.0.0"	"FALSE"	"Windows 10"	"60.31"	"059"	n/a	n/a	n/a	n/a	n/a	n/a	"Trial"	n/a	n/a	n/a	"510"	"arrowright"	n/a	"NULL"	"NULL"	"NULL"	"stimuli/VerticalHorizontal_-20.27143_-0.0673.png"	n/a	"VerticalHorizontal"	"arrowright"	"1347"	"TRUE"	"VerticalHorizontal"	"-20.27143000"	"-0.067300000"	"1"	"74"
n/a	"html-keyboard-response"	"165"	"357235"	"0.0-5.0-2.0-0.56"	"d401oh"	"600"	"1366"	"chrome"	"111.0.0"	"FALSE"	"Windows 10"	"60.31"	"059"	n/a	n/a	n/a	n/a	n/a	n/a	"fixation"	n/a	n/a	n/a	n/a	"NULL"	n/a	"NULL"	"NULL"	"NULL"	"<p style=\"color: black; font-size: 80px; padding-left: 23%; padding-right: 7%; padding-top: 44%; padding-bottom: 21%\">+</p>"	"1191"	n/a	n/a	n/a	n/a	n/a	n/a	n/a	n/a	n/a
n/a	"image-keyboard-response"	"166"	"357831"	"0.0-5.0-2.0-1.56"	"d401oh"	"600"	"1366"	"chrome"	"111.0.0"	"FALSE"	"Windows 10"	"60.31"	"059"	n/a	n/a	n/a	n/a	n/a	n/a	"Trial"	n/a	n/a	n/a	"596"	"arrowleft"	n/a	"NULL"	"NULL"	"NULL"	"stimuli/VerticalHorizontal_3.30000_0.06730.png"	n/a	"VerticalHorizontal"	"arrowleft"	"1198"	"TRUE"	"VerticalHorizontal"	"3.3000000000"	"0.0673000000"	"1"	"75"
n/a	"html-keyboard-response"	"167"	"359152"	"0.0-5.0-2.0-0.57"	"d401oh"	"600"	"1366"	"chrome"	"111.0.0"	"FALSE"	"Windows 10"	"60.31"	"059"	n/a	n/a	n/a	n/a	n/a	n/a	"fixation"	n/a	n/a	n/a	n/a	"NULL"	n/a	"NULL"	"NULL"	"NULL"	"<p style=\"color: black; font-size: 80px; padding-left: 44%; padding-right: 22%; padding-top: 13%; padding-bottom: 8%\">+</p>"	"1319"	n/a	n/a	n/a	n/a	n/a	n/a	n/a	n/a	n/a
n/a	"image-keyboard-response"	"168"	"359562"	"0.0-5.0-2.0-1.57"	"d401oh"	"600"	"1366"	"chrome"	"111.0.0"	"FALSE"	"Windows 10"	"60.31"	"059"	n/a	n/a	n/a	n/a	n/a	n/a	"Trial"	n/a	n/a	n/a	"410"	"arrowright"	n/a	"NULL"	"NULL"	"NULL"	"stimuli/VerticalHorizontal_-28.75714_-0.16217.png"	n/a	"VerticalHorizontal"	"arrowright"	"1321"	"TRUE"	"VerticalHorizontal"	"-28.75714000"	"-0.162170000"	"1"	"76"
n/a	"html-keyboard-response"	"169"	"360794"	"0.0-5.0-2.0-0.58"	"d401oh"	"600"	"1366"	"chrome"	"111.0.0"	"FALSE"	"Windows 10"	"60.31"	"059"	n/a	n/a	n/a	n/a	n/a	n/a	"fixation"	n/a	n/a	n/a	n/a	"NULL"	n/a	"NULL"	"NULL"	"NULL"	"<p style=\"color: black; font-size: 80px; padding-left: 15%; padding-right: 3%; padding-top: 46%; padding-bottom: 3%\">+</p>"	"1220"	n/a	n/a	n/a	n/a	n/a	n/a	n/a	n/a	n/a
n/a	"image-keyboard-response"	"170"	"361233"	"0.0-5.0-2.0-1.58"	"d401oh"	"600"	"1366"	"chrome"	"111.0.0"	"FALSE"	"Windows 10"	"60.31"	"059"	n/a	n/a	n/a	n/a	n/a	n/a	"Trial"	n/a	n/a	n/a	"438"	"arrowright"	n/a	"NULL"	"NULL"	"NULL"	"stimuli/VerticalHorizontal_3.30000_-0.2250.png"	n/a	"VerticalHorizontal"	"arrowright"	"1232"	"TRUE"	"VerticalHorizontal"	"3.3000000000"	"-0.225000000"	"1"	"77"
n/a	"html-keyboard-response"	"171"	"362372"	"0.0-5.0-2.0-0.59"	"d401oh"	"600"	"1366"	"chrome"	"111.0.0"	"FALSE"	"Windows 10"	"60.31"	"059"	n/a	n/a	n/a	n/a	n/a	n/a	"fixation"	n/a	n/a	n/a	n/a	"NULL"	n/a	"NULL"	"NULL"	"NULL"	"<p style=\"color: black; font-size: 80px; padding-left: 14%; padding-right: 20%; padding-top: 47%; padding-bottom: 3%\">+</p>"	"1137"	n/a	n/a	n/a	n/a	n/a	n/a	n/a	n/a	n/a
n/a	"image-keyboard-response"	"172"	"362850"	"0.0-5.0-2.0-1.59"	"d401oh"	"600"	"1366"	"chrome"	"111.0.0"	"FALSE"	"Windows 10"	"60.31"	"059"	n/a	n/a	n/a	n/a	n/a	n/a	"Trial"	n/a	n/a	n/a	"477"	"arrowleft"	n/a	"NULL"	"NULL"	"NULL"	"stimuli/VerticalHorizontal_3.30000_0.22500.png"	n/a	"VerticalHorizontal"	"arrowleft"	"1139"	"TRUE"	"VerticalHorizontal"	"3.3000000000"	"0.2250000000"	"1"	"78"
n/a	"html-keyboard-response"	"173"	"364102"	"0.0-5.0-2.0-0.60"	"d401oh"	"600"	"1366"	"chrome"	"111.0.0"	"FALSE"	"Windows 10"	"60.31"	"059"	n/a	n/a	n/a	n/a	n/a	n/a	"fixation"	n/a	n/a	n/a	n/a	"NULL"	n/a	"NULL"	"NULL"	"NULL"	"<p style=\"color: black; font-size: 80px; padding-left: 33%; padding-right: 34%; padding-top: 24%; padding-bottom: 7%\">+</p>"	"1243"	n/a	n/a	n/a	n/a	n/a	n/a	n/a	n/a	n/a
n/a	"image-keyboard-response"	"174"	"364665"	"0.0-5.0-2.0-1.60"	"d401oh"	"600"	"1366"	"chrome"	"111.0.0"	"FALSE"	"Windows 10"	"60.31"	"059"	n/a	n/a	n/a	n/a	n/a	n/a	"Trial"	n/a	n/a	n/a	"563"	"arrowright"	n/a	"NULL"	"NULL"	"NULL"	"stimuli/VerticalHorizontal_-3.3000_0.06730.png"	n/a	"VerticalHorizontal"	"arrowleft"	"1252"	"FALSE"	"VerticalHorizontal"	"-3.300000000"	"0.0673000000"	"1"	"79"
n/a	"html-keyboard-response"	"175"	"365994"	"0.0-5.0-2.0-0.61"	"d401oh"	"600"	"1366"	"chrome"	"111.0.0"	"FALSE"	"Windows 10"	"60.31"	"059"	n/a	n/a	n/a	n/a	n/a	n/a	"fixation"	n/a	n/a	n/a	n/a	"NULL"	n/a	"NULL"	"NULL"	"NULL"	"<p style=\"color: black; font-size: 80px; padding-left: 37%; padding-right: 47%; padding-top: 34%; padding-bottom: 43%\">+</p>"	"1314"	n/a	n/a	n/a	n/a	n/a	n/a	n/a	n/a	n/a
n/a	"image-keyboard-response"	"176"	"366500"	"0.0-5.0-2.0-1.61"	"d401oh"	"600"	"1366"	"chrome"	"111.0.0"	"FALSE"	"Windows 10"	"60.31"	"059"	n/a	n/a	n/a	n/a	n/a	n/a	"Trial"	n/a	n/a	n/a	"505"	"arrowright"	n/a	"NULL"	"NULL"	"NULL"	"stimuli/VerticalHorizontal_-3.3000_-0.1096.png"	n/a	"VerticalHorizontal"	"arrowright"	"1329"	"TRUE"	"VerticalHorizontal"	"-3.300000000"	"-0.109600000"	"1"	"80"
n/a	"html-keyboard-response"	"177"	"367875"	"0.0-5.0-2.0-0.62"	"d401oh"	"600"	"1366"	"chrome"	"111.0.0"	"FALSE"	"Windows 10"	"60.31"	"059"	n/a	n/a	n/a	n/a	n/a	n/a	"fixation"	n/a	n/a	n/a	n/a	"NULL"	n/a	"NULL"	"NULL"	"NULL"	"<p style=\"color: black; font-size: 80px; padding-left: 49%; padding-right: 44%; padding-top: 50%; padding-bottom: 28%\">+</p>"	"1373"	n/a	n/a	n/a	n/a	n/a	n/a	n/a	n/a	n/a
n/a	"image-keyboard-response"	"178"	"368398"	"0.0-5.0-2.0-1.62"	"d401oh"	"600"	"1366"	"chrome"	"111.0.0"	"FALSE"	"Windows 10"	"60.31"	"059"	n/a	n/a	n/a	n/a	n/a	n/a	"Trial"	n/a	n/a	n/a	"522"	"arrowright"	n/a	"NULL"	"NULL"	"NULL"	"stimuli/VerticalHorizontal_-20.27143_-0.1096.png"	n/a	"VerticalHorizontal"	"arrowright"	"1375"	"TRUE"	"VerticalHorizontal"	"-20.27143000"	"-0.109600000"	"1"	"81"
n/a	"html-keyboard-response"	"179"	"369660"	"0.0-5.0-2.0-0.63"	"d401oh"	"600"	"1366"	"chrome"	"111.0.0"	"FALSE"	"Windows 10"	"60.31"	"059"	n/a	n/a	n/a	n/a	n/a	n/a	"fixation"	n/a	n/a	n/a	n/a	"NULL"	n/a	"NULL"	"NULL"	"NULL"	"<p style=\"color: black; font-size: 80px; padding-left: 13%; padding-right: 8%; padding-top: 1%; padding-bottom: 22%\">+</p>"	"1258"	n/a	n/a	n/a	n/a	n/a	n/a	n/a	n/a	n/a
n/a	"image-keyboard-response"	"180"	"370133"	"0.0-5.0-2.0-1.63"	"d401oh"	"600"	"1366"	"chrome"	"111.0.0"	"FALSE"	"Windows 10"	"60.31"	"059"	n/a	n/a	n/a	n/a	n/a	n/a	"Trial"	n/a	n/a	n/a	"473"	"arrowright"	n/a	"NULL"	"NULL"	"NULL"	"stimuli/VerticalHorizontal_11.78571_-0.2250.png"	n/a	"VerticalHorizontal"	"arrowright"	"1262"	"TRUE"	"VerticalHorizontal"	"11.785710000"	"-0.225000000"	"1"	"82"
n/a	"html-button-response"	"181"	"387880"	"0.0-5.0-3.0"	"d401oh"	"600"	"1366"	"chrome"	"111.0.0"	"FALSE"	"Windows 10"	"60.31"	"059"	n/a	n/a	n/a	n/a	n/a	n/a	"block_results"	n/a	n/a	n/a	"17745"	"0"	n/a	"NULL"	"NULL"	"NULL"	"<p>Your score for this illusion is <p style=\"color: black; font-size: 48px; font-weight: bold;\">83 %</p><hr><p>Can you do better in the next illusion?</p>"	n/a	n/a	n/a	n/a	n/a	n/a	n/a	n/a	n/a	n/a
"TRUE"	"preload"	"182"	"388400"	"0.0-6.0-0.0"	"d401oh"	"600"	"1366"	"chrome"	"111.0.0"	"FALSE"	"Windows 10"	"60.31"	"059"	n/a	n/a	n/a	n/a	n/a	n/a	n/a	n/a	n/a	n/a	n/a	"NULL"	"FALSE"	"list()"	"list()"	"list()"	n/a	n/a	n/a	n/a	n/a	n/a	n/a	n/a	n/a	n/a	n/a
n/a	"html-keyboard-response"	"183"	"393494"	"0.0-6.0-1.0"	"d401oh"	"600"	"1366"	"chrome"	"111.0.0"	"FALSE"	"Windows 10"	"60.31"	"059"	n/a	n/a	n/a	n/a	n/a	n/a	n/a	n/a	n/a	n/a	"5093"	"enter"	n/a	"NULL"	"NULL"	"NULL"	"<p><b>Part 2/6</b></p><p>In this part, two red circles will appear side by side on the screen.</p><p>Your task is to select which <b>red circle is bigger</b> in size as fast as you can, without making errors.</p><p>Don't get distracted by the surrounding black circles around the red circles!</p><p>Press <b>the LEFT or the RIGHT arrow</b> to indicate which is the bigger <b>red circle.</b></p><div style='float: center'><img src='materials/instructions/Ebbinghaus_Demo.png' height='300'></img><p><img src='utils/answer/answer_leftright_keyboard.PNG' height='150'></img></p><p class='small'>In this example, the correct answer is the <b>LEFT arrow</b>.</p></div><p>Are you ready? <b>Press ENTER to start</b></p>"	n/a	n/a	n/a	n/a	n/a	n/a	n/a	n/a	n/a	n/a
n/a	"html-keyboard-response"	"184"	"395237"	"0.0-6.0-2.0-0.0"	"d401oh"	"600"	"1366"	"chrome"	"111.0.0"	"FALSE"	"Windows 10"	"60.31"	"059"	n/a	n/a	n/a	n/a	n/a	n/a	"fixation"	n/a	n/a	n/a	n/a	"NULL"	n/a	"NULL"	"NULL"	"NULL"	"<p style=\"color: black; font-size: 80px; padding-left: 47%; padding-right: 28%; padding-top: 9%; padding-bottom: 7%\">+</p>"	"1216"	n/a	n/a	n/a	n/a	n/a	n/a	n/a	n/a	n/a
n/a	"image-keyboard-response"	"185"	"396067"	"0.0-6.0-2.0-1.0"	"d401oh"	"600"	"1366"	"chrome"	"111.0.0"	"FALSE"	"Windows 10"	"60.31"	"059"	n/a	n/a	n/a	n/a	n/a	n/a	"Trial"	n/a	n/a	n/a	"830"	"arrowright"	n/a	"NULL"	"NULL"	"NULL"	"stimuli/Ebbinghaus_-0.35714_-0.15857.png"	n/a	"Ebbinghaus"	"arrowright"	"1743"	"TRUE"	"Ebbinghaus"	"-0.357140000"	"-0.158570000"	"2"	"1"
n/a	"html-keyboard-response"	"186"	"397429"	"0.0-6.0-2.0-0.1"	"d401oh"	"600"	"1366"	"chrome"	"111.0.0"	"FALSE"	"Windows 10"	"60.31"	"059"	n/a	n/a	n/a	n/a	n/a	n/a	"fixation"	n/a	n/a	n/a	n/a	"NULL"	n/a	"NULL"	"NULL"	"NULL"	"<p style=\"color: black; font-size: 80px; padding-left: 3%; padding-right: 33%; padding-top: 32%; padding-bottom: 28%\">+</p>"	"1358"	n/a	n/a	n/a	n/a	n/a	n/a	n/a	n/a	n/a
n/a	"image-keyboard-response"	"187"	"397999"	"0.0-6.0-2.0-1.1"	"d401oh"	"600"	"1366"	"chrome"	"111.0.0"	"FALSE"	"Windows 10"	"60.31"	"059"	n/a	n/a	n/a	n/a	n/a	n/a	"Trial"	n/a	n/a	n/a	"570"	"arrowleft"	n/a	"NULL"	"NULL"	"NULL"	"stimuli/Ebbinghaus_-0.87143_0.15857.png"	n/a	"Ebbinghaus"	"arrowleft"	"1362"	"TRUE"	"Ebbinghaus"	"-0.871430000"	"0.1585700000"	"2"	"2"
n/a	"html-keyboard-response"	"188"	"399377"	"0.0-6.0-2.0-0.2"	"d401oh"	"600"	"1366"	"chrome"	"111.0.0"	"FALSE"	"Windows 10"	"60.31"	"059"	n/a	n/a	n/a	n/a	n/a	n/a	"fixation"	n/a	n/a	n/a	n/a	"NULL"	n/a	"NULL"	"NULL"	"NULL"	"<p style=\"color: black; font-size: 80px; padding-left: 41%; padding-right: 7%; padding-top: 44%; padding-bottom: 47%\">+</p>"	"1373"	n/a	n/a	n/a	n/a	n/a	n/a	n/a	n/a	n/a
n/a	"image-keyboard-response"	"189"	"399881"	"0.0-6.0-2.0-1.2"	"d401oh"	"600"	"1366"	"chrome"	"111.0.0"	"FALSE"	"Windows 10"	"60.31"	"059"	n/a	n/a	n/a	n/a	n/a	n/a	"Trial"	n/a	n/a	n/a	"504"	"arrowright"	n/a	"NULL"	"NULL"	"NULL"	"stimuli/Ebbinghaus_-0.1000_-0.2800.png"	n/a	"Ebbinghaus"	"arrowright"	"1378"	"TRUE"	"Ebbinghaus"	"-0.100000000"	"-0.280000000"	"2"	"3"
n/a	"html-keyboard-response"	"190"	"400972"	"0.0-6.0-2.0-0.3"	"d401oh"	"600"	"1366"	"chrome"	"111.0.0"	"FALSE"	"Windows 10"	"60.31"	"059"	n/a	n/a	n/a	n/a	n/a	n/a	"fixation"	n/a	n/a	n/a	n/a	"NULL"	n/a	"NULL"	"NULL"	"NULL"	"<p style=\"color: black; font-size: 80px; padding-left: 32%; padding-right: 46%; padding-top: 25%; padding-bottom: 26%\">+</p>"	"1089"	n/a	n/a	n/a	n/a	n/a	n/a	n/a	n/a	n/a
n/a	"image-keyboard-response"	"191"	"401540"	"0.0-6.0-2.0-1.3"	"d401oh"	"600"	"1366"	"chrome"	"111.0.0"	"FALSE"	"Windows 10"	"60.31"	"059"	n/a	n/a	n/a	n/a	n/a	n/a	"Trial"	n/a	n/a	n/a	"567"	"arrowright"	n/a	"NULL"	"NULL"	"NULL"	"stimuli/Ebbinghaus_-0.87143_-0.11071.png"	n/a	"Ebbinghaus"	"arrowright"	"1091"	"TRUE"	"Ebbinghaus"	"-0.871430000"	"-0.110710000"	"2"	"4"
n/a	"html-keyboard-response"	"192"	"402822"	"0.0-6.0-2.0-0.4"	"d401oh"	"600"	"1366"	"chrome"	"111.0.0"	"FALSE"	"Windows 10"	"60.31"	"059"	n/a	n/a	n/a	n/a	n/a	n/a	"fixation"	n/a	n/a	n/a	n/a	"NULL"	n/a	"NULL"	"NULL"	"NULL"	"<p style=\"color: black; font-size: 80px; padding-left: 22%; padding-right: 17%; padding-top: 28%; padding-bottom: 21%\">+</p>"	"1273"	n/a	n/a	n/a	n/a	n/a	n/a	n/a	n/a	n/a
n/a	"image-keyboard-response"	"193"	"403276"	"0.0-6.0-2.0-1.4"	"d401oh"	"600"	"1366"	"chrome"	"111.0.0"	"FALSE"	"Windows 10"	"60.31"	"059"	n/a	n/a	n/a	n/a	n/a	n/a	"Trial"	n/a	n/a	n/a	"453"	"arrowright"	n/a	"NULL"	"NULL"	"NULL"	"stimuli/Ebbinghaus_0.10000_-0.11071.png"	n/a	"Ebbinghaus"	"arrowright"	"1282"	"TRUE"	"Ebbinghaus"	"0.1000000000"	"-0.110710000"	"2"	"5"
n/a	"html-keyboard-response"	"194"	"404473"	"0.0-6.0-2.0-0.5"	"d401oh"	"600"	"1366"	"chrome"	"111.0.0"	"FALSE"	"Windows 10"	"60.31"	"059"	n/a	n/a	n/a	n/a	n/a	n/a	"fixation"	n/a	n/a	n/a	n/a	"NULL"	n/a	"NULL"	"NULL"	"NULL"	"<p style=\"color: black; font-size: 80px; padding-left: 26%; padding-right: 22%; padding-top: 23%; padding-bottom: 23%\">+</p>"	"1189"	n/a	n/a	n/a	n/a	n/a	n/a	n/a	n/a	n/a
n/a	"image-keyboard-response"	"195"	"404996"	"0.0-6.0-2.0-1.5"	"d401oh"	"600"	"1366"	"chrome"	"111.0.0"	"FALSE"	"Windows 10"	"60.31"	"059"	n/a	n/a	n/a	n/a	n/a	n/a	"Trial"	n/a	n/a	n/a	"522"	"arrowright"	n/a	"NULL"	"NULL"	"NULL"	"stimuli/Ebbinghaus_0.87143_-0.2150.png"	n/a	"Ebbinghaus"	"arrowright"	"1197"	"TRUE"	"Ebbinghaus"	"0.8714300000"	"-0.215000000"	"2"	"6"
n/a	"html-keyboard-response"	"196"	"406323"	"0.0-6.0-2.0-0.6"	"d401oh"	"600"	"1366"	"chrome"	"111.0.0"	"FALSE"	"Windows 10"	"60.31"	"059"	n/a	n/a	n/a	n/a	n/a	n/a	"fixation"	n/a	n/a	n/a	n/a	"NULL"	n/a	"NULL"	"NULL"	"NULL"	"<p style=\"color: black; font-size: 80px; padding-left: 27%; padding-right: 18%; padding-top: 1%; padding-bottom: 10%\">+</p>"	"1315"	n/a	n/a	n/a	n/a	n/a	n/a	n/a	n/a	n/a
n/a	"image-keyboard-response"	"197"	"407046"	"0.0-6.0-2.0-1.6"	"d401oh"	"600"	"1366"	"chrome"	"111.0.0"	"FALSE"	"Windows 10"	"60.31"	"059"	n/a	n/a	n/a	n/a	n/a	n/a	"Trial"	n/a	n/a	n/a	"722"	"arrowleft"	n/a	"NULL"	"NULL"	"NULL"	"stimuli/Ebbinghaus_0.35714_0.11071.png"	n/a	"Ebbinghaus"	"arrowleft"	"1327"	"TRUE"	"Ebbinghaus"	"0.3571400000"	"0.1107100000"	"2"	"7"
n/a	"html-keyboard-response"	"198"	"408422"	"0.0-6.0-2.0-0.7"	"d401oh"	"600"	"1366"	"chrome"	"111.0.0"	"FALSE"	"Windows 10"	"60.31"	"059"	n/a	n/a	n/a	n/a	n/a	n/a	"fixation"	n/a	n/a	n/a	n/a	"NULL"	n/a	"NULL"	"NULL"	"NULL"	"<p style=\"color: black; font-size: 80px; padding-left: 8%; padding-right: 39%; padding-top: 46%; padding-bottom: 24%\">+</p>"	"1364"	n/a	n/a	n/a	n/a	n/a	n/a	n/a	n/a	n/a
n/a	"image-keyboard-response"	"199"	"409057"	"0.0-6.0-2.0-1.7"	"d401oh"	"600"	"1366"	"chrome"	"111.0.0"	"FALSE"	"Windows 10"	"60.31"	"059"	n/a	n/a	n/a	n/a	n/a	n/a	"Trial"	n/a	n/a	n/a	"634"	"arrowleft"	n/a	"NULL"	"NULL"	"NULL"	"stimuli/Ebbinghaus_-0.87143_0.21500.png"	n/a	"Ebbinghaus"	"arrowleft"	"1376"	"TRUE"	"Ebbinghaus"	"-0.871430000"	"0.2150000000"	"2"	"8"
n/a	"html-keyboard-response"	"200"	"410402"	"0.0-6.0-2.0-0.8"	"d401oh"	"600"	"1366"	"chrome"	"111.0.0"	"FALSE"	"Windows 10"	"60.31"	"059"	n/a	n/a	n/a	n/a	n/a	n/a	"fixation"	n/a	n/a	n/a	n/a	"NULL"	n/a	"NULL"	"NULL"	"NULL"	"<p style=\"color: black; font-size: 80px; padding-left: 23%; padding-right: 3%; padding-top: 31%; padding-bottom: 6%\">+</p>"	"1337"	n/a	n/a	n/a	n/a	n/a	n/a	n/a	n/a	n/a
n/a	"image-keyboard-response"	"201"	"411179"	"0.0-6.0-2.0-1.8"	"d401oh"	"600"	"1366"	"chrome"	"111.0.0"	"FALSE"	"Windows 10"	"60.31"	"059"	n/a	n/a	n/a	n/a	n/a	n/a	"Trial"	n/a	n/a	n/a	"776"	"arrowleft"	n/a	"NULL"	"NULL"	"NULL"	"stimuli/Ebbinghaus_-0.61429_0.11071.png"	n/a	"Ebbinghaus"	"arrowleft"	"1345"	"TRUE"	"Ebbinghaus"	"-0.614290000"	"0.1107100000"	"2"	"9"
n/a	"html-keyboard-response"	"202"	"412585"	"0.0-6.0-2.0-0.9"	"d401oh"	"600"	"1366"	"chrome"	"111.0.0"	"FALSE"	"Windows 10"	"60.31"	"059"	n/a	n/a	n/a	n/a	n/a	n/a	"fixation"	n/a	n/a	n/a	n/a	"NULL"	n/a	"NULL"	"NULL"	"NULL"	"<p style=\"color: black; font-size: 80px; padding-left: 8%; padding-right: 32%; padding-top: 28%; padding-bottom: 49%\">+</p>"	"1403"	n/a	n/a	n/a	n/a	n/a	n/a	n/a	n/a	n/a
n/a	"image-keyboard-response"	"203"	"413099"	"0.0-6.0-2.0-1.9"	"d401oh"	"600"	"1366"	"chrome"	"111.0.0"	"FALSE"	"Windows 10"	"60.31"	"059"	n/a	n/a	n/a	n/a	n/a	n/a	"Trial"	n/a	n/a	n/a	"512"	"arrowright"	n/a	"NULL"	"NULL"	"NULL"	"stimuli/Ebbinghaus_0.87143_-0.11071.png"	n/a	"Ebbinghaus"	"arrowright"	"1406"	"TRUE"	"Ebbinghaus"	"0.8714300000"	"-0.110710000"	"2"	"10"
n/a	"html-keyboard-response"	"204"	"414430"	"0.0-6.0-2.0-0.10"	"d401oh"	"600"	"1366"	"chrome"	"111.0.0"	"FALSE"	"Windows 10"	"60.31"	"059"	n/a	n/a	n/a	n/a	n/a	n/a	"fixation"	n/a	n/a	n/a	n/a	"NULL"	n/a	"NULL"	"NULL"	"NULL"	"<p style=\"color: black; font-size: 80px; padding-left: 17%; padding-right: 4%; padding-top: 25%; padding-bottom: 27%\">+</p>"	"1328"	n/a	n/a	n/a	n/a	n/a	n/a	n/a	n/a	n/a
n/a	"image-keyboard-response"	"205"	"415104"	"0.0-6.0-2.0-1.10"	"d401oh"	"600"	"1366"	"chrome"	"111.0.0"	"FALSE"	"Windows 10"	"60.31"	"059"	n/a	n/a	n/a	n/a	n/a	n/a	"Trial"	n/a	n/a	n/a	"673"	"arrowright"	n/a	"NULL"	"NULL"	"NULL"	"stimuli/Ebbinghaus_0.10000_-0.15857.png"	n/a	"Ebbinghaus"	"arrowright"	"1331"	"TRUE"	"Ebbinghaus"	"0.1000000000"	"-0.158570000"	"2"	"11"
n/a	"html-keyboard-response"	"206"	"416590"	"0.0-6.0-2.0-0.11"	"d401oh"	"600"	"1366"	"chrome"	"111.0.0"	"FALSE"	"Windows 10"	"60.31"	"059"	n/a	n/a	n/a	n/a	n/a	n/a	"fixation"	n/a	n/a	n/a	n/a	"NULL"	n/a	"NULL"	"NULL"	"NULL"	"<p style=\"color: black; font-size: 80px; padding-left: 2%; padding-right: 37%; padding-top: 40%; padding-bottom: 1%\">+</p>"	"1482"	n/a	n/a	n/a	n/a	n/a	n/a	n/a	n/a	n/a
n/a	"image-keyboard-response"	"207"	"417163"	"0.0-6.0-2.0-1.11"	"d401oh"	"600"	"1366"	"chrome"	"111.0.0"	"FALSE"	"Windows 10"	"60.31"	"059"	n/a	n/a	n/a	n/a	n/a	n/a	"Trial"	n/a	n/a	n/a	"569"	"arrowleft"	n/a	"NULL"	"NULL"	"NULL"	"stimuli/Ebbinghaus_0.87143_0.28000.png"	n/a	"Ebbinghaus"	"arrowleft"	"1486"	"TRUE"	"Ebbinghaus"	"0.8714300000"	"0.2800000000"	"2"	"12"
n/a	"html-keyboard-response"	"208"	"418322"	"0.0-6.0-2.0-0.12"	"d401oh"	"600"	"1366"	"chrome"	"111.0.0"	"FALSE"	"Windows 10"	"60.31"	"059"	n/a	n/a	n/a	n/a	n/a	n/a	"fixation"	n/a	n/a	n/a	n/a	"NULL"	n/a	"NULL"	"NULL"	"NULL"	"<p style=\"color: black; font-size: 80px; padding-left: 42%; padding-right: 40%; padding-top: 50%; padding-bottom: 21%\">+</p>"	"1158"	n/a	n/a	n/a	n/a	n/a	n/a	n/a	n/a	n/a
n/a	"image-keyboard-response"	"209"	"419087"	"0.0-6.0-2.0-1.12"	"d401oh"	"600"	"1366"	"chrome"	"111.0.0"	"FALSE"	"Windows 10"	"60.31"	"059"	n/a	n/a	n/a	n/a	n/a	n/a	"Trial"	n/a	n/a	n/a	"764"	"arrowright"	n/a	"NULL"	"NULL"	"NULL"	"stimuli/Ebbinghaus_0.35714_-0.2150.png"	n/a	"Ebbinghaus"	"arrowright"	"1159"	"TRUE"	"Ebbinghaus"	"0.3571400000"	"-0.215000000"	"2"	"13"
n/a	"html-keyboard-response"	"210"	"420516"	"0.0-6.0-2.0-0.13"	"d401oh"	"600"	"1366"	"chrome"	"111.0.0"	"FALSE"	"Windows 10"	"60.31"	"059"	n/a	n/a	n/a	n/a	n/a	n/a	"fixation"	n/a	n/a	n/a	n/a	"NULL"	n/a	"NULL"	"NULL"	"NULL"	"<p style=\"color: black; font-size: 80px; padding-left: 15%; padding-right: 27%; padding-top: 26%; padding-bottom: 7%\">+</p>"	"1422"	n/a	n/a	n/a	n/a	n/a	n/a	n/a	n/a	n/a
n/a	"image-keyboard-response"	"211"	"421243"	"0.0-6.0-2.0-1.13"	"d401oh"	"600"	"1366"	"chrome"	"111.0.0"	"FALSE"	"Windows 10"	"60.31"	"059"	n/a	n/a	n/a	n/a	n/a	n/a	"Trial"	n/a	n/a	n/a	"726"	"arrowright"	n/a	"NULL"	"NULL"	"NULL"	"stimuli/Ebbinghaus_0.61429_0.21500.png"	n/a	"Ebbinghaus"	"arrowleft"	"1429"	"FALSE"	"Ebbinghaus"	"0.6142900000"	"0.2150000000"	"2"	"14"
n/a	"html-keyboard-response"	"212"	"422742"	"0.0-6.0-2.0-0.14"	"d401oh"	"600"	"1366"	"chrome"	"111.0.0"	"FALSE"	"Windows 10"	"60.31"	"059"	n/a	n/a	n/a	n/a	n/a	n/a	"fixation"	n/a	n/a	n/a	n/a	"NULL"	n/a	"NULL"	"NULL"	"NULL"	"<p style=\"color: black; font-size: 80px; padding-left: 22%; padding-right: 49%; padding-top: 8%; padding-bottom: 47%\">+</p>"	"1493"	n/a	n/a	n/a	n/a	n/a	n/a	n/a	n/a	n/a
n/a	"image-keyboard-response"	"213"	"423389"	"0.0-6.0-2.0-1.14"	"d401oh"	"600"	"1366"	"chrome"	"111.0.0"	"FALSE"	"Windows 10"	"60.31"	"059"	n/a	n/a	n/a	n/a	n/a	n/a	"Trial"	n/a	n/a	n/a	"646"	"arrowright"	n/a	"NULL"	"NULL"	"NULL"	"stimuli/Ebbinghaus_0.61429_-0.2800.png"	n/a	"Ebbinghaus"	"arrowright"	"1499"	"TRUE"	"Ebbinghaus"	"0.6142900000"	"-0.280000000"	"2"	"15"
n/a	"html-keyboard-response"	"214"	"424864"	"0.0-6.0-2.0-0.15"	"d401oh"	"600"	"1366"	"chrome"	"111.0.0"	"FALSE"	"Windows 10"	"60.31"	"059"	n/a	n/a	n/a	n/a	n/a	n/a	"fixation"	n/a	n/a	n/a	n/a	"NULL"	n/a	"NULL"	"NULL"	"NULL"	"<p style=\"color: black; font-size: 80px; padding-left: 45%; padding-right: 49%; padding-top: 40%; padding-bottom: 9%\">+</p>"	"1464"	n/a	n/a	n/a	n/a	n/a	n/a	n/a	n/a	n/a
n/a	"image-keyboard-response"	"215"	"425450"	"0.0-6.0-2.0-1.15"	"d401oh"	"600"	"1366"	"chrome"	"111.0.0"	"FALSE"	"Windows 10"	"60.31"	"059"	n/a	n/a	n/a	n/a	n/a	n/a	"Trial"	n/a	n/a	n/a	"585"	"arrowright"	n/a	"NULL"	"NULL"	"NULL"	"stimuli/Ebbinghaus_-0.61429_-0.2800.png"	n/a	"Ebbinghaus"	"arrowright"	"1475"	"TRUE"	"Ebbinghaus"	"-0.614290000"	"-0.280000000"	"2"	"16"
n/a	"html-keyboard-response"	"216"	"426866"	"0.0-6.0-2.0-0.16"	"d401oh"	"600"	"1366"	"chrome"	"111.0.0"	"FALSE"	"Windows 10"	"60.31"	"059"	n/a	n/a	n/a	n/a	n/a	n/a	"fixation"	n/a	n/a	n/a	n/a	"NULL"	n/a	"NULL"	"NULL"	"NULL"	"<p style=\"color: black; font-size: 80px; padding-left: 20%; padding-right: 22%; padding-top: 22%; padding-bottom: 49%\">+</p>"	"1406"	n/a	n/a	n/a	n/a	n/a	n/a	n/a	n/a	n/a
n/a	"image-keyboard-response"	"217"	"427623"	"0.0-6.0-2.0-1.16"	"d401oh"	"600"	"1366"	"chrome"	"111.0.0"	"FALSE"	"Windows 10"	"60.31"	"059"	n/a	n/a	n/a	n/a	n/a	n/a	"Trial"	n/a	n/a	n/a	"756"	"arrowleft"	n/a	"NULL"	"NULL"	"NULL"	"stimuli/Ebbinghaus_-0.87143_0.11071.png"	n/a	"Ebbinghaus"	"arrowleft"	"1416"	"TRUE"	"Ebbinghaus"	"-0.871430000"	"0.1107100000"	"2"	"17"
n/a	"html-keyboard-response"	"218"	"428952"	"0.0-6.0-2.0-0.17"	"d401oh"	"600"	"1366"	"chrome"	"111.0.0"	"FALSE"	"Windows 10"	"60.31"	"059"	n/a	n/a	n/a	n/a	n/a	n/a	"fixation"	n/a	n/a	n/a	n/a	"NULL"	n/a	"NULL"	"NULL"	"NULL"	"<p style=\"color: black; font-size: 80px; padding-left: 14%; padding-right: 21%; padding-top: 46%; padding-bottom: 21%\">+</p>"	"1314"	n/a	n/a	n/a	n/a	n/a	n/a	n/a	n/a	n/a
n/a	"image-keyboard-response"	"219"	"429795"	"0.0-6.0-2.0-1.17"	"d401oh"	"600"	"1366"	"chrome"	"111.0.0"	"FALSE"	"Windows 10"	"60.31"	"059"	n/a	n/a	n/a	n/a	n/a	n/a	"Trial"	n/a	n/a	n/a	"842"	"arrowleft"	n/a	"NULL"	"NULL"	"NULL"	"stimuli/Ebbinghaus_0.10000_0.21500.png"	n/a	"Ebbinghaus"	"arrowleft"	"1329"	"TRUE"	"Ebbinghaus"	"0.1000000000"	"0.2150000000"	"2"	"18"
n/a	"html-keyboard-response"	"220"	"431066"	"0.0-6.0-2.0-0.18"	"d401oh"	"600"	"1366"	"chrome"	"111.0.0"	"FALSE"	"Windows 10"	"60.31"	"059"	n/a	n/a	n/a	n/a	n/a	n/a	"fixation"	n/a	n/a	n/a	n/a	"NULL"	n/a	"NULL"	"NULL"	"NULL"	"<p style=\"color: black; font-size: 80px; padding-left: 13%; padding-right: 30%; padding-top: 3%; padding-bottom: 26%\">+</p>"	"1258"	n/a	n/a	n/a	n/a	n/a	n/a	n/a	n/a	n/a
n/a	"image-keyboard-response"	"221"	"431967"	"0.0-6.0-2.0-1.18"	"d401oh"	"600"	"1366"	"chrome"	"111.0.0"	"FALSE"	"Windows 10"	"60.31"	"059"	n/a	n/a	n/a	n/a	n/a	n/a	"Trial"	n/a	n/a	n/a	"900"	"arrowleft"	n/a	"NULL"	"NULL"	"NULL"	"stimuli/Ebbinghaus_0.61429_0.15857.png"	n/a	"Ebbinghaus"	"arrowleft"	"1271"	"TRUE"	"Ebbinghaus"	"0.6142900000"	"0.1585700000"	"2"	"19"
n/a	"html-keyboard-response"	"222"	"433057"	"0.0-6.0-2.0-0.19"	"d401oh"	"600"	"1366"	"chrome"	"111.0.0"	"FALSE"	"Windows 10"	"60.31"	"059"	n/a	n/a	n/a	n/a	n/a	n/a	"fixation"	n/a	n/a	n/a	n/a	"NULL"	n/a	"NULL"	"NULL"	"NULL"	"<p style=\"color: black; font-size: 80px; padding-left: 20%; padding-right: 35%; padding-top: 50%; padding-bottom: 19%\">+</p>"	"1089"	n/a	n/a	n/a	n/a	n/a	n/a	n/a	n/a	n/a
n/a	"image-keyboard-response"	"223"	"433723"	"0.0-6.0-2.0-1.19"	"d401oh"	"600"	"1366"	"chrome"	"111.0.0"	"FALSE"	"Windows 10"	"60.31"	"059"	n/a	n/a	n/a	n/a	n/a	n/a	"Trial"	n/a	n/a	n/a	"662"	"arrowright"	n/a	"NULL"	"NULL"	"NULL"	"stimuli/Ebbinghaus_0.87143_0.15857.png"	n/a	"Ebbinghaus"	"arrowleft"	"1090"	"FALSE"	"Ebbinghaus"	"0.8714300000"	"0.1585700000"	"2"	"20"
n/a	"html-keyboard-response"	"224"	"434994"	"0.0-6.0-2.0-0.20"	"d401oh"	"600"	"1366"	"chrome"	"111.0.0"	"FALSE"	"Windows 10"	"60.31"	"059"	n/a	n/a	n/a	n/a	n/a	n/a	"fixation"	n/a	n/a	n/a	n/a	"NULL"	n/a	"NULL"	"NULL"	"NULL"	"<p style=\"color: black; font-size: 80px; padding-left: 2%; padding-right: 2%; padding-top: 45%; padding-bottom: 30%\">+</p>"	"1264"	n/a	n/a	n/a	n/a	n/a	n/a	n/a	n/a	n/a
n/a	"image-keyboard-response"	"225"	"435764"	"0.0-6.0-2.0-1.20"	"d401oh"	"600"	"1366"	"chrome"	"111.0.0"	"FALSE"	"Windows 10"	"60.31"	"059"	n/a	n/a	n/a	n/a	n/a	n/a	"Trial"	n/a	n/a	n/a	"770"	"arrowright"	n/a	"NULL"	"NULL"	"NULL"	"stimuli/Ebbinghaus_0.35714_0.21500.png"	n/a	"Ebbinghaus"	"arrowleft"	"1271"	"FALSE"	"Ebbinghaus"	"0.3571400000"	"0.2150000000"	"2"	"21"
n/a	"html-keyboard-response"	"226"	"436916"	"0.0-6.0-2.0-0.21"	"d401oh"	"600"	"1366"	"chrome"	"111.0.0"	"FALSE"	"Windows 10"	"60.31"	"059"	n/a	n/a	n/a	n/a	n/a	n/a	"fixation"	n/a	n/a	n/a	n/a	"NULL"	n/a	"NULL"	"NULL"	"NULL"	"<p style=\"color: black; font-size: 80px; padding-left: 15%; padding-right: 40%; padding-top: 2%; padding-bottom: 21%\">+</p>"	"1140"	n/a	n/a	n/a	n/a	n/a	n/a	n/a	n/a	n/a
n/a	"image-keyboard-response"	"227"	"437593"	"0.0-6.0-2.0-1.21"	"d401oh"	"600"	"1366"	"chrome"	"111.0.0"	"FALSE"	"Windows 10"	"60.31"	"059"	n/a	n/a	n/a	n/a	n/a	n/a	"Trial"	n/a	n/a	n/a	"675"	"arrowright"	n/a	"NULL"	"NULL"	"NULL"	"stimuli/Ebbinghaus_-0.1000_0.11071.png"	n/a	"Ebbinghaus"	"arrowleft"	"1152"	"FALSE"	"Ebbinghaus"	"-0.100000000"	"0.1107100000"	"2"	"22"
n/a	"html-keyboard-response"	"228"	"438856"	"0.0-6.0-2.0-0.22"	"d401oh"	"600"	"1366"	"chrome"	"111.0.0"	"FALSE"	"Windows 10"	"60.31"	"059"	n/a	n/a	n/a	n/a	n/a	n/a	"fixation"	n/a	n/a	n/a	n/a	"NULL"	n/a	"NULL"	"NULL"	"NULL"	"<p style=\"color: black; font-size: 80px; padding-left: 19%; padding-right: 45%; padding-top: 38%; padding-bottom: 29%\">+</p>"	"1253"	n/a	n/a	n/a	n/a	n/a	n/a	n/a	n/a	n/a
n/a	"image-keyboard-response"	"229"	"439826"	"0.0-6.0-2.0-1.22"	"d401oh"	"600"	"1366"	"chrome"	"111.0.0"	"FALSE"	"Windows 10"	"60.31"	"059"	n/a	n/a	n/a	n/a	n/a	n/a	"Trial"	n/a	n/a	n/a	"970"	"arrowright"	n/a	"NULL"	"NULL"	"NULL"	"stimuli/Ebbinghaus_-0.35714_0.11071.png"	n/a	"Ebbinghaus"	"arrowleft"	"1263"	"FALSE"	"Ebbinghaus"	"-0.357140000"	"0.1107100000"	"2"	"23"
n/a	"html-keyboard-response"	"230"	"441073"	"0.0-6.0-2.0-0.23"	"d401oh"	"600"	"1366"	"chrome"	"111.0.0"	"FALSE"	"Windows 10"	"60.31"	"059"	n/a	n/a	n/a	n/a	n/a	n/a	"fixation"	n/a	n/a	n/a	n/a	"NULL"	n/a	"NULL"	"NULL"	"NULL"	"<p style=\"color: black; font-size: 80px; padding-left: 36%; padding-right: 18%; padding-top: 10%; padding-bottom: 18%\">+</p>"	"1239"	n/a	n/a	n/a	n/a	n/a	n/a	n/a	n/a	n/a
n/a	"image-keyboard-response"	"231"	"441794"	"0.0-6.0-2.0-1.23"	"d401oh"	"600"	"1366"	"chrome"	"111.0.0"	"FALSE"	"Windows 10"	"60.31"	"059"	n/a	n/a	n/a	n/a	n/a	n/a	"Trial"	n/a	n/a	n/a	"721"	"arrowright"	n/a	"NULL"	"NULL"	"NULL"	"stimuli/Ebbinghaus_0.87143_-0.2800.png"	n/a	"Ebbinghaus"	"arrowright"	"1247"	"TRUE"	"Ebbinghaus"	"0.8714300000"	"-0.280000000"	"2"	"24"
n/a	"html-keyboard-response"	"232"	"442954"	"0.0-6.0-2.0-0.24"	"d401oh"	"600"	"1366"	"chrome"	"111.0.0"	"FALSE"	"Windows 10"	"60.31"	"059"	n/a	n/a	n/a	n/a	n/a	n/a	"fixation"	n/a	n/a	n/a	n/a	"NULL"	n/a	"NULL"	"NULL"	"NULL"	"<p style=\"color: black; font-size: 80px; padding-left: 41%; padding-right: 18%; padding-top: 1%; padding-bottom: 33%\">+</p>"	"1154"	n/a	n/a	n/a	n/a	n/a	n/a	n/a	n/a	n/a
n/a	"image-keyboard-response"	"233"	"443805"	"0.0-6.0-2.0-1.24"	"d401oh"	"600"	"1366"	"chrome"	"111.0.0"	"FALSE"	"Windows 10"	"60.31"	"059"	n/a	n/a	n/a	n/a	n/a	n/a	"Trial"	n/a	n/a	n/a	"850"	"arrowleft"	n/a	"NULL"	"NULL"	"NULL"	"stimuli/Ebbinghaus_0.35714_-0.11071.png"	n/a	"Ebbinghaus"	"arrowright"	"1160"	"FALSE"	"Ebbinghaus"	"0.3571400000"	"-0.110710000"	"2"	"25"
n/a	"html-keyboard-response"	"234"	"444815"	"0.0-6.0-2.0-0.25"	"d401oh"	"600"	"1366"	"chrome"	"111.0.0"	"FALSE"	"Windows 10"	"60.31"	"059"	n/a	n/a	n/a	n/a	n/a	n/a	"fixation"	n/a	n/a	n/a	n/a	"NULL"	n/a	"NULL"	"NULL"	"NULL"	"<p style=\"color: black; font-size: 80px; padding-left: 25%; padding-right: 43%; padding-top: 2%; padding-bottom: 7%\">+</p>"	"1005"	n/a	n/a	n/a	n/a	n/a	n/a	n/a	n/a	n/a
n/a	"image-keyboard-response"	"235"	"445430"	"0.0-6.0-2.0-1.25"	"d401oh"	"600"	"1366"	"chrome"	"111.0.0"	"FALSE"	"Windows 10"	"60.31"	"059"	n/a	n/a	n/a	n/a	n/a	n/a	"Trial"	n/a	n/a	n/a	"615"	"arrowright"	n/a	"NULL"	"NULL"	"NULL"	"stimuli/Ebbinghaus_-0.87143_-0.2800.png"	n/a	"Ebbinghaus"	"arrowright"	"1010"	"TRUE"	"Ebbinghaus"	"-0.871430000"	"-0.280000000"	"2"	"26"
n/a	"html-keyboard-response"	"236"	"446838"	"0.0-6.0-2.0-0.26"	"d401oh"	"600"	"1366"	"chrome"	"111.0.0"	"FALSE"	"Windows 10"	"60.31"	"059"	n/a	n/a	n/a	n/a	n/a	n/a	"fixation"	n/a	n/a	n/a	n/a	"NULL"	n/a	"NULL"	"NULL"	"NULL"	"<p style=\"color: black; font-size: 80px; padding-left: 44%; padding-right: 5%; padding-top: 28%; padding-bottom: 23%\">+</p>"	"1396"	n/a	n/a	n/a	n/a	n/a	n/a	n/a	n/a	n/a
n/a	"image-keyboard-response"	"237"	"447812"	"0.0-6.0-2.0-1.26"	"d401oh"	"600"	"1366"	"chrome"	"111.0.0"	"FALSE"	"Windows 10"	"60.31"	"059"	n/a	n/a	n/a	n/a	n/a	n/a	"Trial"	n/a	n/a	n/a	"973"	"arrowleft"	n/a	"NULL"	"NULL"	"NULL"	"stimuli/Ebbinghaus_0.10000_0.15857.png"	n/a	"Ebbinghaus"	"arrowleft"	"1408"	"TRUE"	"Ebbinghaus"	"0.1000000000"	"0.1585700000"	"2"	"27"
n/a	"html-keyboard-response"	"238"	"449213"	"0.0-6.0-2.0-0.27"	"d401oh"	"600"	"1366"	"chrome"	"111.0.0"	"FALSE"	"Windows 10"	"60.31"	"059"	n/a	n/a	n/a	n/a	n/a	n/a	"fixation"	n/a	n/a	n/a	n/a	"NULL"	n/a	"NULL"	"NULL"	"NULL"	"<p style=\"color: black; font-size: 80px; padding-left: 28%; padding-right: 28%; padding-top: 34%; padding-bottom: 18%\">+</p>"	"1392"	n/a	n/a	n/a	n/a	n/a	n/a	n/a	n/a	n/a
n/a	"image-keyboard-response"	"239"	"449777"	"0.0-6.0-2.0-1.27"	"d401oh"	"600"	"1366"	"chrome"	"111.0.0"	"FALSE"	"Windows 10"	"60.31"	"059"	n/a	n/a	n/a	n/a	n/a	n/a	"Trial"	n/a	n/a	n/a	"561"	"arrowright"	n/a	"NULL"	"NULL"	"NULL"	"stimuli/Ebbinghaus_-0.61429_-0.15857.png"	n/a	"Ebbinghaus"	"arrowright"	"1401"	"TRUE"	"Ebbinghaus"	"-0.614290000"	"-0.158570000"	"2"	"28"
n/a	"html-keyboard-response"	"240"	"450887"	"0.0-6.0-2.0-0.28"	"d401oh"	"600"	"1366"	"chrome"	"111.0.0"	"FALSE"	"Windows 10"	"60.31"	"059"	n/a	n/a	n/a	n/a	n/a	n/a	"fixation"	n/a	n/a	n/a	n/a	"NULL"	n/a	"NULL"	"NULL"	"NULL"	"<p style=\"color: black; font-size: 80px; padding-left: 7%; padding-right: 17%; padding-top: 32%; padding-bottom: 46%\">+</p>"	"1094"	n/a	n/a	n/a	n/a	n/a	n/a	n/a	n/a	n/a
n/a	"image-keyboard-response"	"241"	"451778"	"0.0-6.0-2.0-1.28"	"d401oh"	"600"	"1366"	"chrome"	"111.0.0"	"FALSE"	"Windows 10"	"60.31"	"059"	n/a	n/a	n/a	n/a	n/a	n/a	"Trial"	n/a	n/a	n/a	"890"	"arrowleft"	n/a	"NULL"	"NULL"	"NULL"	"stimuli/Ebbinghaus_-0.35714_0.15857.png"	n/a	"Ebbinghaus"	"arrowleft"	"1110"	"TRUE"	"Ebbinghaus"	"-0.357140000"	"0.1585700000"	"2"	"29"
n/a	"html-keyboard-response"	"242"	"452855"	"0.0-6.0-2.0-0.29"	"d401oh"	"600"	"1366"	"chrome"	"111.0.0"	"FALSE"	"Windows 10"	"60.31"	"059"	n/a	n/a	n/a	n/a	n/a	n/a	"fixation"	n/a	n/a	n/a	n/a	"NULL"	n/a	"NULL"	"NULL"	"NULL"	"<p style=\"color: black; font-size: 80px; padding-left: 44%; padding-right: 45%; padding-top: 50%; padding-bottom: 25%\">+</p>"	"1069"	n/a	n/a	n/a	n/a	n/a	n/a	n/a	n/a	n/a
n/a	"image-keyboard-response"	"243"	"453644"	"0.0-6.0-2.0-1.29"	"d401oh"	"600"	"1366"	"chrome"	"111.0.0"	"FALSE"	"Windows 10"	"60.31"	"059"	n/a	n/a	n/a	n/a	n/a	n/a	"Trial"	n/a	n/a	n/a	"788"	"arrowright"	n/a	"NULL"	"NULL"	"NULL"	"stimuli/Ebbinghaus_0.87143_0.11071.png"	n/a	"Ebbinghaus"	"arrowleft"	"1077"	"FALSE"	"Ebbinghaus"	"0.8714300000"	"0.1107100000"	"2"	"30"
n/a	"html-keyboard-response"	"244"	"454918"	"0.0-6.0-2.0-0.30"	"d401oh"	"600"	"1366"	"chrome"	"111.0.0"	"FALSE"	"Windows 10"	"60.31"	"059"	n/a	n/a	n/a	n/a	n/a	n/a	"fixation"	n/a	n/a	n/a	n/a	"NULL"	n/a	"NULL"	"NULL"	"NULL"	"<p style=\"color: black; font-size: 80px; padding-left: 7%; padding-right: 1%; padding-top: 26%; padding-bottom: 11%\">+</p>"	"1261"	n/a	n/a	n/a	n/a	n/a	n/a	n/a	n/a	n/a
n/a	"image-keyboard-response"	"245"	"455960"	"0.0-6.0-2.0-1.30"	"d401oh"	"600"	"1366"	"chrome"	"111.0.0"	"FALSE"	"Windows 10"	"60.31"	"059"	n/a	n/a	n/a	n/a	n/a	n/a	"Trial"	n/a	n/a	n/a	"1041"	"arrowright"	n/a	"NULL"	"NULL"	"NULL"	"stimuli/Ebbinghaus_0.10000_0.11071.png"	n/a	"Ebbinghaus"	"arrowleft"	"1274"	"FALSE"	"Ebbinghaus"	"0.1000000000"	"0.1107100000"	"2"	"31"
n/a	"html-keyboard-response"	"246"	"457446"	"0.0-6.0-2.0-0.31"	"d401oh"	"600"	"1366"	"chrome"	"111.0.0"	"FALSE"	"Windows 10"	"60.31"	"059"	n/a	n/a	n/a	n/a	n/a	n/a	"fixation"	n/a	n/a	n/a	n/a	"NULL"	n/a	"NULL"	"NULL"	"NULL"	"<p style=\"color: black; font-size: 80px; padding-left: 13%; padding-right: 25%; padding-top: 33%; padding-bottom: 8%\">+</p>"	"1470"	n/a	n/a	n/a	n/a	n/a	n/a	n/a	n/a	n/a
n/a	"image-keyboard-response"	"247"	"458175"	"0.0-6.0-2.0-1.31"	"d401oh"	"600"	"1366"	"chrome"	"111.0.0"	"FALSE"	"Windows 10"	"60.31"	"059"	n/a	n/a	n/a	n/a	n/a	n/a	"Trial"	n/a	n/a	n/a	"728"	"arrowright"	n/a	"NULL"	"NULL"	"NULL"	"stimuli/Ebbinghaus_0.10000_-0.2800.png"	n/a	"Ebbinghaus"	"arrowright"	"1486"	"TRUE"	"Ebbinghaus"	"0.1000000000"	"-0.280000000"	"2"	"32"
n/a	"html-keyboard-response"	"248"	"459401"	"0.0-6.0-2.0-0.32"	"d401oh"	"600"	"1366"	"chrome"	"111.0.0"	"FALSE"	"Windows 10"	"60.31"	"059"	n/a	n/a	n/a	n/a	n/a	n/a	"fixation"	n/a	n/a	n/a	n/a	"NULL"	n/a	"NULL"	"NULL"	"NULL"	"<p style=\"color: black; font-size: 80px; padding-left: 29%; padding-right: 38%; padding-top: 40%; padding-bottom: 7%\">+</p>"	"1221"	n/a	n/a	n/a	n/a	n/a	n/a	n/a	n/a	n/a
