"success"	"trial_type"	"trial_index"	"time_elapsed"	"internal_node_id"	"participant_id"	"screen_height"	"screen_width"	"browser"	"browser_version"	"mobile"	"os"	"vsync_rate"	"subject_id"	"width"	"height"	"webaudio"	"fullscreen"	"webcam"	"microphone"	"screen"	"version"	"date"	"time"	"rt"	"response"	"timeout"	"failed_images"	"failed_audio"	"failed_video"	"stimulus"	"trial_duration"	"block"	"correct_response"	"prestimulus_duration"	"correct"	"type"	"illusion_strength"	"illusion_difference"	"block_number"	"trial_number"
"TRUE"	"fullscreen"	"0"	"2316"	"0.0-0.0"	"s97b2r"	"600"	"1366"	"chrome"	"111.0.0"	"FALSE"	"Windows 10"	"60.1"	"052"	n/a	n/a	n/a	n/a	n/a	n/a	n/a	n/a	n/a	n/a	n/a	"NULL"	n/a	"NULL"	"NULL"	"NULL"	n/a	n/a	n/a	n/a	n/a	n/a	n/a	n/a	n/a	n/a	n/a
n/a	"browser-check"	"1"	"3326"	"0.0-1.0"	"s97b2r"	"600"	"1366"	"chrome"	"111.0.0"	"FALSE"	"Windows 10"	"60.1"	"052"	"1366"	"600"	"TRUE"	"TRUE"	"TRUE"	"TRUE"	"browser_info"	"1.0"	"20/03/2023"	"17:38:43"	n/a	"NULL"	n/a	"NULL"	"NULL"	"NULL"	n/a	n/a	n/a	n/a	n/a	n/a	n/a	n/a	n/a	n/a	n/a
n/a	"survey-text"	"2"	"6086"	"0.0-2.0"	"s97b2r"	"600"	"1366"	"chrome"	"111.0.0"	"FALSE"	"Windows 10"	"60.1"	"052"	n/a	n/a	n/a	n/a	n/a	n/a	"subject_id"	n/a	n/a	n/a	"2758"	"list(subject_id = \"052\")"	n/a	"NULL"	"NULL"	"NULL"	n/a	n/a	n/a	n/a	n/a	n/a	n/a	n/a	n/a	n/a	n/a
"TRUE"	"preload"	"3"	"6096"	"0.0-3.0"	"s97b2r"	"600"	"1366"	"chrome"	"111.0.0"	"FALSE"	"Windows 10"	"60.1"	"052"	n/a	n/a	n/a	n/a	n/a	n/a	n/a	n/a	n/a	n/a	n/a	"NULL"	"FALSE"	"list()"	"list()"	"list()"	n/a	n/a	n/a	n/a	n/a	n/a	n/a	n/a	n/a	n/a	n/a
n/a	"html-button-response"	"4"	"74056"	"0.0-4.0-0.0"	"s97b2r"	"600"	"1366"	"chrome"	"111.0.0"	"FALSE"	"Windows 10"	"60.1"	"052"	n/a	n/a	n/a	n/a	n/a	n/a	"illusion_instructions"	n/a	n/a	n/a	"67955"	"0"	n/a	"NULL"	"NULL"	"NULL"	"<p><b>Illusion Game</b></p><p>In this game of speed and reflex, you will need to make <b>visual judgments</b> (for instance, which circle is the biggest, or which line is the longest), as fast and as correctly as possible, while <b>resisting different visual illusions</b>.</p><p>We are going to start with some examples of all the illusions you will encounter in the game.</p>"	n/a	n/a	n/a	n/a	n/a	n/a	n/a	n/a	n/a	n/a
"TRUE"	"preload"	"5"	"74070"	"0.0-4.0-1.0-0.0"	"s97b2r"	"600"	"1366"	"chrome"	"111.0.0"	"FALSE"	"Windows 10"	"60.1"	"052"	n/a	n/a	n/a	n/a	n/a	n/a	n/a	n/a	n/a	n/a	n/a	"NULL"	"FALSE"	"list()"	"list()"	"list()"	n/a	n/a	n/a	n/a	n/a	n/a	n/a	n/a	n/a	n/a	n/a
n/a	"html-keyboard-response"	"6"	"90059"	"0.0-4.0-1.0-1.0"	"s97b2r"	"600"	"1366"	"chrome"	"111.0.0"	"FALSE"	"Windows 10"	"60.1"	"052"	n/a	n/a	n/a	n/a	n/a	n/a	n/a	n/a	n/a	n/a	"15988"	"enter"	n/a	"NULL"	"NULL"	"NULL"	"<p><b>Practice</b></p><p>In this part, two red circles will appear side by side on the screen.</p><p>Your task is to select which <b>red circle is bigger</b> in size as fast as you can, without making errors.</p><p>Don't get distracted by the surrounding black circles around the red circles!</p><p>Press <b>the LEFT or the RIGHT arrow</b> to indicate which is the bigger <b>red circle.</b></p><div style='float: center'><img src='materials/instructions/Ebbinghaus_Demo.png' height='300'></img><p><img src='utils/answer/answer_leftright_keyboard.PNG' height='150'></img></p><p class='small'>In this example, the correct answer is the <b>LEFT arrow</b>.</p></div><p>Are you ready? <b>Press ENTER to start</b></p>"	n/a	n/a	n/a	n/a	n/a	n/a	n/a	n/a	n/a	n/a
n/a	"html-keyboard-response"	"7"	"91666"	"0.0-4.0-1.0-2.0-0.0"	"s97b2r"	"600"	"1366"	"chrome"	"111.0.0"	"FALSE"	"Windows 10"	"60.1"	"052"	n/a	n/a	n/a	n/a	n/a	n/a	"fixation"	n/a	n/a	n/a	n/a	"NULL"	n/a	"NULL"	"NULL"	"NULL"	"<p style=\"color: black; font-size: 80px; padding-left: 18%; padding-right: 11%; padding-top: 47%; padding-bottom: 36%\">+</p>"	"1089"	n/a	n/a	n/a	n/a	n/a	n/a	n/a	n/a	n/a
n/a	"image-keyboard-response"	"8"	"92192"	"0.0-4.0-1.0-2.0-1.0"	"s97b2r"	"600"	"1366"	"chrome"	"111.0.0"	"FALSE"	"Windows 10"	"60.1"	"052"	n/a	n/a	n/a	n/a	n/a	n/a	"Trial"	n/a	n/a	n/a	"524"	"arrowleft"	n/a	"NULL"	"NULL"	"NULL"	"stimuli/Ebbinghaus_1000000_1.40000.png"	n/a	"Ebbinghaus"	"arrowleft"	"1607"	"TRUE"	"Ebbinghaus"	"100000000000"	"1.4000000000"	"1"	"1"
n/a	"html-keyboard-response"	"9"	"93457"	"0.0-4.0-1.0-2.0-0.1"	"s97b2r"	"600"	"1366"	"chrome"	"111.0.0"	"FALSE"	"Windows 10"	"60.1"	"052"	n/a	n/a	n/a	n/a	n/a	n/a	"fixation"	n/a	n/a	n/a	n/a	"NULL"	n/a	"NULL"	"NULL"	"NULL"	"<p style=\"color: black; font-size: 80px; padding-left: 33%; padding-right: 14%; padding-top: 44%; padding-bottom: 8%\">+</p>"	"1256"	n/a	n/a	n/a	n/a	n/a	n/a	n/a	n/a	n/a
n/a	"image-keyboard-response"	"10"	"93929"	"0.0-4.0-1.0-2.0-1.1"	"s97b2r"	"600"	"1366"	"chrome"	"111.0.0"	"FALSE"	"Windows 10"	"60.1"	"052"	n/a	n/a	n/a	n/a	n/a	n/a	"Trial"	n/a	n/a	n/a	"471"	"arrowleft"	n/a	"NULL"	"NULL"	"NULL"	"stimuli/Ebbinghaus_0000000_1.40000.png"	n/a	"Ebbinghaus"	"arrowleft"	"1265"	"TRUE"	"Ebbinghaus"	"000000000000"	"1.4000000000"	"1"	"2"
n/a	"html-keyboard-response"	"11"	"95135"	"0.0-4.0-1.0-2.0-0.2"	"s97b2r"	"600"	"1366"	"chrome"	"111.0.0"	"FALSE"	"Windows 10"	"60.1"	"052"	n/a	n/a	n/a	n/a	n/a	n/a	"fixation"	n/a	n/a	n/a	n/a	"NULL"	n/a	"NULL"	"NULL"	"NULL"	"<p style=\"color: black; font-size: 80px; padding-left: 38%; padding-right: 50%; padding-top: 24%; padding-bottom: 22%\">+</p>"	"1190"	n/a	n/a	n/a	n/a	n/a	n/a	n/a	n/a	n/a
n/a	"image-keyboard-response"	"12"	"95536"	"0.0-4.0-1.0-2.0-1.2"	"s97b2r"	"600"	"1366"	"chrome"	"111.0.0"	"FALSE"	"Windows 10"	"60.1"	"052"	n/a	n/a	n/a	n/a	n/a	n/a	"Trial"	n/a	n/a	n/a	"400"	"arrowright"	n/a	"NULL"	"NULL"	"NULL"	"stimuli/Ebbinghaus_-100000_-1.4000.png"	n/a	"Ebbinghaus"	"arrowright"	"1206"	"TRUE"	"Ebbinghaus"	"-10000000000"	"-1.400000000"	"1"	"3"
n/a	"html-keyboard-response"	"13"	"96788"	"0.0-4.0-1.0-2.0-0.3"	"s97b2r"	"600"	"1366"	"chrome"	"111.0.0"	"FALSE"	"Windows 10"	"60.1"	"052"	n/a	n/a	n/a	n/a	n/a	n/a	"fixation"	n/a	n/a	n/a	n/a	"NULL"	n/a	"NULL"	"NULL"	"NULL"	"<p style=\"color: black; font-size: 80px; padding-left: 12%; padding-right: 32%; padding-top: 11%; padding-bottom: 0%\">+</p>"	"1247"	n/a	n/a	n/a	n/a	n/a	n/a	n/a	n/a	n/a
n/a	"image-keyboard-response"	"14"	"97221"	"0.0-4.0-1.0-2.0-1.3"	"s97b2r"	"600"	"1366"	"chrome"	"111.0.0"	"FALSE"	"Windows 10"	"60.1"	"052"	n/a	n/a	n/a	n/a	n/a	n/a	"Trial"	n/a	n/a	n/a	"432"	"arrowleft"	n/a	"NULL"	"NULL"	"NULL"	"stimuli/Ebbinghaus_-100000_1.40000.png"	n/a	"Ebbinghaus"	"arrowleft"	"1252"	"TRUE"	"Ebbinghaus"	"-10000000000"	"1.4000000000"	"1"	"4"
n/a	"html-keyboard-response"	"15"	"98263"	"0.0-4.0-1.0-2.0-0.4"	"s97b2r"	"600"	"1366"	"chrome"	"111.0.0"	"FALSE"	"Windows 10"	"60.1"	"052"	n/a	n/a	n/a	n/a	n/a	n/a	"fixation"	n/a	n/a	n/a	n/a	"NULL"	n/a	"NULL"	"NULL"	"NULL"	"<p style=\"color: black; font-size: 80px; padding-left: 8%; padding-right: 6%; padding-top: 39%; padding-bottom: 34%\">+</p>"	"1035"	n/a	n/a	n/a	n/a	n/a	n/a	n/a	n/a	n/a
n/a	"image-keyboard-response"	"16"	"98579"	"0.0-4.0-1.0-2.0-1.4"	"s97b2r"	"600"	"1366"	"chrome"	"111.0.0"	"FALSE"	"Windows 10"	"60.1"	"052"	n/a	n/a	n/a	n/a	n/a	n/a	"Trial"	n/a	n/a	n/a	"315"	"arrowright"	n/a	"NULL"	"NULL"	"NULL"	"stimuli/Ebbinghaus_0000000_-1.4000.png"	n/a	"Ebbinghaus"	"arrowright"	"1042"	"TRUE"	"Ebbinghaus"	"000000000000"	"-1.400000000"	"1"	"5"
n/a	"html-keyboard-response"	"17"	"99883"	"0.0-4.0-1.0-2.0-0.5"	"s97b2r"	"600"	"1366"	"chrome"	"111.0.0"	"FALSE"	"Windows 10"	"60.1"	"052"	n/a	n/a	n/a	n/a	n/a	n/a	"fixation"	n/a	n/a	n/a	n/a	"NULL"	n/a	"NULL"	"NULL"	"NULL"	"<p style=\"color: black; font-size: 80px; padding-left: 12%; padding-right: 11%; padding-top: 47%; padding-bottom: 9%\">+</p>"	"1294"	n/a	n/a	n/a	n/a	n/a	n/a	n/a	n/a	n/a
n/a	"image-keyboard-response"	"18"	"100305"	"0.0-4.0-1.0-2.0-1.5"	"s97b2r"	"600"	"1366"	"chrome"	"111.0.0"	"FALSE"	"Windows 10"	"60.1"	"052"	n/a	n/a	n/a	n/a	n/a	n/a	"Trial"	n/a	n/a	n/a	"422"	"arrowright"	n/a	"NULL"	"NULL"	"NULL"	"stimuli/Ebbinghaus_1000000_-1.4000.png"	n/a	"Ebbinghaus"	"arrowright"	"1304"	"TRUE"	"Ebbinghaus"	"100000000000"	"-1.400000000"	"1"	"6"
n/a	"html-button-response"	"19"	"104583"	"0.0-4.0-1.0-3.0"	"s97b2r"	"600"	"1366"	"chrome"	"111.0.0"	"FALSE"	"Windows 10"	"60.1"	"052"	n/a	n/a	n/a	n/a	n/a	n/a	"practice_block_results"	n/a	n/a	n/a	"4276"	"0"	n/a	"NULL"	"NULL"	"NULL"	"<p style='color:rgb(76,175,80);'> Correct Responses: <b>100.00%</b></p><hr><p style='color:rgb(233,30,99);'> Average Response Time: <b>427.33</b> ms.</p>"	n/a	n/a	n/a	n/a	n/a	n/a	n/a	n/a	n/a	n/a
"TRUE"	"preload"	"20"	"105112"	"0.0-4.0-2.0-0.0"	"s97b2r"	"600"	"1366"	"chrome"	"111.0.0"	"FALSE"	"Windows 10"	"60.1"	"052"	n/a	n/a	n/a	n/a	n/a	n/a	n/a	n/a	n/a	n/a	n/a	"NULL"	"FALSE"	"list()"	"list()"	"list()"	n/a	n/a	n/a	n/a	n/a	n/a	n/a	n/a	n/a	n/a	n/a
n/a	"html-keyboard-response"	"21"	"111492"	"0.0-4.0-2.0-1.0"	"s97b2r"	"600"	"1366"	"chrome"	"111.0.0"	"FALSE"	"Windows 10"	"60.1"	"052"	n/a	n/a	n/a	n/a	n/a	n/a	n/a	n/a	n/a	n/a	"6379"	"enter"	n/a	"NULL"	"NULL"	"NULL"	"<p><b>Practice</b></p><p>In this part, two horizontal red lines will appear one above the other.</p><p>Your task is to select which <b>line is longer</b> in length as fast as you can, without making errors.</p><p>Don't get distracted by the surrounding black arrows at the end of the red lines!</p><p>Press <b>the UP or the DOWN arrow</b> to indicate where is the longer <b>red line.</b></p><div style='float: center'><img src='materials/instructions/MullerLyer_Demo.png' height='300'></img><p><img src='utils/answer/answer_updown_keyboard.PNG' height='150'></img></p><p class='small'>In this example, the correct answer is the <b>UP arrow</b>.</p></div><p>Are you ready? <b>Press ENTER to start</b></p>"	n/a	n/a	n/a	n/a	n/a	n/a	n/a	n/a	n/a	n/a
n/a	"html-keyboard-response"	"22"	"113193"	"0.0-4.0-2.0-2.0-0.0"	"s97b2r"	"600"	"1366"	"chrome"	"111.0.0"	"FALSE"	"Windows 10"	"60.1"	"052"	n/a	n/a	n/a	n/a	n/a	n/a	"fixation"	n/a	n/a	n/a	n/a	"NULL"	n/a	"NULL"	"NULL"	"NULL"	"<p style=\"color: black; font-size: 80px; padding-left: 38%; padding-right: 44%; padding-top: 13%; padding-bottom: 0%\">+</p>"	"1197"	n/a	n/a	n/a	n/a	n/a	n/a	n/a	n/a	n/a
n/a	"image-keyboard-response"	"23"	"113702"	"0.0-4.0-2.0-2.0-1.0"	"s97b2r"	"600"	"1366"	"chrome"	"111.0.0"	"FALSE"	"Windows 10"	"60.1"	"052"	n/a	n/a	n/a	n/a	n/a	n/a	"Trial"	n/a	n/a	n/a	"508"	"arrowup"	n/a	"NULL"	"NULL"	"NULL"	"stimuli/MullerLyer_-230000_0.70000.png"	n/a	"MullerLyer"	"arrowup"	"1701"	"TRUE"	"MullerLyer"	"-23000000000"	"0.7000000000"	"1"	"7"
n/a	"html-keyboard-response"	"24"	"115089"	"0.0-4.0-2.0-2.0-0.1"	"s97b2r"	"600"	"1366"	"chrome"	"111.0.0"	"FALSE"	"Windows 10"	"60.1"	"052"	n/a	n/a	n/a	n/a	n/a	n/a	"fixation"	n/a	n/a	n/a	n/a	"NULL"	n/a	"NULL"	"NULL"	"NULL"	"<p style=\"color: black; font-size: 80px; padding-left: 10%; padding-right: 49%; padding-top: 14%; padding-bottom: 47%\">+</p>"	"1378"	n/a	n/a	n/a	n/a	n/a	n/a	n/a	n/a	n/a
n/a	"image-keyboard-response"	"25"	"115949"	"0.0-4.0-2.0-2.0-1.1"	"s97b2r"	"600"	"1366"	"chrome"	"111.0.0"	"FALSE"	"Windows 10"	"60.1"	"052"	n/a	n/a	n/a	n/a	n/a	n/a	"Trial"	n/a	n/a	n/a	"860"	"arrowup"	n/a	"NULL"	"NULL"	"NULL"	"stimuli/MullerLyer_2300000_0.70000.png"	n/a	"MullerLyer"	"arrowup"	"1387"	"TRUE"	"MullerLyer"	"230000000000"	"0.7000000000"	"1"	"8"
n/a	"html-keyboard-response"	"26"	"117166"	"0.0-4.0-2.0-2.0-0.2"	"s97b2r"	"600"	"1366"	"chrome"	"111.0.0"	"FALSE"	"Windows 10"	"60.1"	"052"	n/a	n/a	n/a	n/a	n/a	n/a	"fixation"	n/a	n/a	n/a	n/a	"NULL"	n/a	"NULL"	"NULL"	"NULL"	"<p style=\"color: black; font-size: 80px; padding-left: 20%; padding-right: 4%; padding-top: 42%; padding-bottom: 41%\">+</p>"	"1213"	n/a	n/a	n/a	n/a	n/a	n/a	n/a	n/a	n/a
n/a	"image-keyboard-response"	"27"	"117636"	"0.0-4.0-2.0-2.0-1.2"	"s97b2r"	"600"	"1366"	"chrome"	"111.0.0"	"FALSE"	"Windows 10"	"60.1"	"052"	n/a	n/a	n/a	n/a	n/a	n/a	"Trial"	n/a	n/a	n/a	"470"	"arrowdown"	n/a	"NULL"	"NULL"	"NULL"	"stimuli/MullerLyer_-230000_-0.7000.png"	n/a	"MullerLyer"	"arrowdown"	"1217"	"TRUE"	"MullerLyer"	"-23000000000"	"-0.700000000"	"1"	"9"
n/a	"html-keyboard-response"	"28"	"118658"	"0.0-4.0-2.0-2.0-0.3"	"s97b2r"	"600"	"1366"	"chrome"	"111.0.0"	"FALSE"	"Windows 10"	"60.1"	"052"	n/a	n/a	n/a	n/a	n/a	n/a	"fixation"	n/a	n/a	n/a	n/a	"NULL"	n/a	"NULL"	"NULL"	"NULL"	"<p style=\"color: black; font-size: 80px; padding-left: 14%; padding-right: 28%; padding-top: 15%; padding-bottom: 0%\">+</p>"	"1016"	n/a	n/a	n/a	n/a	n/a	n/a	n/a	n/a	n/a
n/a	"image-keyboard-response"	"29"	"119070"	"0.0-4.0-2.0-2.0-1.3"	"s97b2r"	"600"	"1366"	"chrome"	"111.0.0"	"FALSE"	"Windows 10"	"60.1"	"052"	n/a	n/a	n/a	n/a	n/a	n/a	"Trial"	n/a	n/a	n/a	"412"	"arrowdown"	n/a	"NULL"	"NULL"	"NULL"	"stimuli/MullerLyer_2300000_-0.7000.png"	n/a	"MullerLyer"	"arrowdown"	"1022"	"TRUE"	"MullerLyer"	"230000000000"	"-0.700000000"	"1"	"10"
n/a	"html-keyboard-response"	"30"	"120095"	"0.0-4.0-2.0-2.0-0.4"	"s97b2r"	"600"	"1366"	"chrome"	"111.0.0"	"FALSE"	"Windows 10"	"60.1"	"052"	n/a	n/a	n/a	n/a	n/a	n/a	"fixation"	n/a	n/a	n/a	n/a	"NULL"	n/a	"NULL"	"NULL"	"NULL"	"<p style=\"color: black; font-size: 80px; padding-left: 47%; padding-right: 7%; padding-top: 1%; padding-bottom: 4%\">+</p>"	"1010"	n/a	n/a	n/a	n/a	n/a	n/a	n/a	n/a	n/a
n/a	"image-keyboard-response"	"31"	"120554"	"0.0-4.0-2.0-2.0-1.4"	"s97b2r"	"600"	"1366"	"chrome"	"111.0.0"	"FALSE"	"Windows 10"	"60.1"	"052"	n/a	n/a	n/a	n/a	n/a	n/a	"Trial"	n/a	n/a	n/a	"458"	"arrowdown"	n/a	"NULL"	"NULL"	"NULL"	"stimuli/MullerLyer_0000000_-0.7000.png"	n/a	"MullerLyer"	"arrowdown"	"1025"	"TRUE"	"MullerLyer"	"000000000000"	"-0.700000000"	"1"	"11"
n/a	"html-keyboard-response"	"32"	"121796"	"0.0-4.0-2.0-2.0-0.5"	"s97b2r"	"600"	"1366"	"chrome"	"111.0.0"	"FALSE"	"Windows 10"	"60.1"	"052"	n/a	n/a	n/a	n/a	n/a	n/a	"fixation"	n/a	n/a	n/a	n/a	"NULL"	n/a	"NULL"	"NULL"	"NULL"	"<p style=\"color: black; font-size: 80px; padding-left: 47%; padding-right: 42%; padding-top: 1%; padding-bottom: 32%\">+</p>"	"1229"	n/a	n/a	n/a	n/a	n/a	n/a	n/a	n/a	n/a
n/a	"image-keyboard-response"	"33"	"122239"	"0.0-4.0-2.0-2.0-1.5"	"s97b2r"	"600"	"1366"	"chrome"	"111.0.0"	"FALSE"	"Windows 10"	"60.1"	"052"	n/a	n/a	n/a	n/a	n/a	n/a	"Trial"	n/a	n/a	n/a	"442"	"arrowup"	n/a	"NULL"	"NULL"	"NULL"	"stimuli/MullerLyer_0000000_0.70000.png"	n/a	"MullerLyer"	"arrowup"	"1242"	"TRUE"	"MullerLyer"	"000000000000"	"0.7000000000"	"1"	"12"
n/a	"html-button-response"	"34"	"123927"	"0.0-4.0-2.0-3.0"	"s97b2r"	"600"	"1366"	"chrome"	"111.0.0"	"FALSE"	"Windows 10"	"60.1"	"052"	n/a	n/a	n/a	n/a	n/a	n/a	"practice_block_results"	n/a	n/a	n/a	"1686"	"0"	n/a	"NULL"	"NULL"	"NULL"	"<p style='color:rgb(76,175,80);'> Correct Responses: <b>100.00%</b></p><hr><p style='color:rgb(233,30,99);'> Average Response Time: <b>525.00</b> ms.</p>"	n/a	n/a	n/a	n/a	n/a	n/a	n/a	n/a	n/a	n/a
"TRUE"	"preload"	"35"	"124443"	"0.0-4.0-3.0-0.0"	"s97b2r"	"600"	"1366"	"chrome"	"111.0.0"	"FALSE"	"Windows 10"	"60.1"	"052"	n/a	n/a	n/a	n/a	n/a	n/a	n/a	n/a	n/a	n/a	n/a	"NULL"	"FALSE"	"list()"	"list()"	"list()"	n/a	n/a	n/a	n/a	n/a	n/a	n/a	n/a	n/a	n/a	n/a
n/a	"html-keyboard-response"	"36"	"130859"	"0.0-4.0-3.0-1.0"	"s97b2r"	"600"	"1366"	"chrome"	"111.0.0"	"FALSE"	"Windows 10"	"60.1"	"052"	n/a	n/a	n/a	n/a	n/a	n/a	n/a	n/a	n/a	n/a	"6416"	"enter"	n/a	"NULL"	"NULL"	"NULL"	"<p><b>Practice</b></p><p>In this part, two red lines will appear side by side.</p><p>Your task is to tell <b>which line is longer</b> in length, regardless of their orientation, as fast as you can, and without making errors.</p><p>Don't get distracted by the orientation of the lines!</p><p>Press <b>the LEFT or the RIGHT arrow</b> to indicate which <b>line is the longer one.</b></p><div style='float: center'><img src='materials/instructions/VerticalHorizontal_Demo.png' height='300'></img><p><img src='utils/answer/answer_leftright_keyboard.PNG' height='150'></img></p><p class='small'>In this example, the correct answer is the <b>LEFT arrow</b>.</p></div><p>Are you ready? <b>Press ENTER to start</b></p>"	n/a	n/a	n/a	n/a	n/a	n/a	n/a	n/a	n/a	n/a
n/a	"html-keyboard-response"	"37"	"132636"	"0.0-4.0-3.0-2.0-0.0"	"s97b2r"	"600"	"1366"	"chrome"	"111.0.0"	"FALSE"	"Windows 10"	"60.1"	"052"	n/a	n/a	n/a	n/a	n/a	n/a	"fixation"	n/a	n/a	n/a	n/a	"NULL"	n/a	"NULL"	"NULL"	"NULL"	"<p style=\"color: black; font-size: 80px; padding-left: 48%; padding-right: 26%; padding-top: 6%; padding-bottom: 1%\">+</p>"	"1262"	n/a	n/a	n/a	n/a	n/a	n/a	n/a	n/a	n/a
n/a	"image-keyboard-response"	"38"	"133097"	"0.0-4.0-3.0-2.0-1.0"	"s97b2r"	"600"	"1366"	"chrome"	"111.0.0"	"FALSE"	"Windows 10"	"60.1"	"052"	n/a	n/a	n/a	n/a	n/a	n/a	"Trial"	n/a	n/a	n/a	"460"	"arrowright"	n/a	"NULL"	"NULL"	"NULL"	"stimuli/VerticalHorizontal_0000000_-0.9000.png"	n/a	"VerticalHorizontal"	"arrowright"	"1777"	"TRUE"	"VerticalHorizontal"	"000000000000"	"-0.900000000"	"1"	"13"
n/a	"html-keyboard-response"	"39"	"134247"	"0.0-4.0-3.0-2.0-0.1"	"s97b2r"	"600"	"1366"	"chrome"	"111.0.0"	"FALSE"	"Windows 10"	"60.1"	"052"	n/a	n/a	n/a	n/a	n/a	n/a	"fixation"	n/a	n/a	n/a	n/a	"NULL"	n/a	"NULL"	"NULL"	"NULL"	"<p style=\"color: black; font-size: 80px; padding-left: 27%; padding-right: 14%; padding-top: 49%; padding-bottom: 45%\">+</p>"	"1137"	n/a	n/a	n/a	n/a	n/a	n/a	n/a	n/a	n/a
n/a	"image-keyboard-response"	"40"	"134688"	"0.0-4.0-3.0-2.0-1.1"	"s97b2r"	"600"	"1366"	"chrome"	"111.0.0"	"FALSE"	"Windows 10"	"60.1"	"052"	n/a	n/a	n/a	n/a	n/a	n/a	"Trial"	n/a	n/a	n/a	"440"	"arrowright"	n/a	"NULL"	"NULL"	"NULL"	"stimuli/VerticalHorizontal_3300000_-0.9000.png"	n/a	"VerticalHorizontal"	"arrowright"	"1150"	"TRUE"	"VerticalHorizontal"	"330000000000"	"-0.900000000"	"1"	"14"
n/a	"html-keyboard-response"	"41"	"136081"	"0.0-4.0-3.0-2.0-0.2"	"s97b2r"	"600"	"1366"	"chrome"	"111.0.0"	"FALSE"	"Windows 10"	"60.1"	"052"	n/a	n/a	n/a	n/a	n/a	n/a	"fixation"	n/a	n/a	n/a	n/a	"NULL"	n/a	"NULL"	"NULL"	"NULL"	"<p style=\"color: black; font-size: 80px; padding-left: 19%; padding-right: 1%; padding-top: 27%; padding-bottom: 10%\">+</p>"	"1388"	n/a	n/a	n/a	n/a	n/a	n/a	n/a	n/a	n/a
n/a	"image-keyboard-response"	"42"	"136509"	"0.0-4.0-3.0-2.0-1.2"	"s97b2r"	"600"	"1366"	"chrome"	"111.0.0"	"FALSE"	"Windows 10"	"60.1"	"052"	n/a	n/a	n/a	n/a	n/a	n/a	"Trial"	n/a	n/a	n/a	"427"	"arrowleft"	n/a	"NULL"	"NULL"	"NULL"	"stimuli/VerticalHorizontal_3300000_0.90000.png"	n/a	"VerticalHorizontal"	"arrowleft"	"1393"	"TRUE"	"VerticalHorizontal"	"330000000000"	"0.9000000000"	"1"	"15"
n/a	"html-keyboard-response"	"43"	"137671"	"0.0-4.0-3.0-2.0-0.3"	"s97b2r"	"600"	"1366"	"chrome"	"111.0.0"	"FALSE"	"Windows 10"	"60.1"	"052"	n/a	n/a	n/a	n/a	n/a	n/a	"fixation"	n/a	n/a	n/a	n/a	"NULL"	n/a	"NULL"	"NULL"	"NULL"	"<p style=\"color: black; font-size: 80px; padding-left: 21%; padding-right: 10%; padding-top: 35%; padding-bottom: 28%\">+</p>"	"1149"	n/a	n/a	n/a	n/a	n/a	n/a	n/a	n/a	n/a
n/a	"image-keyboard-response"	"44"	"138067"	"0.0-4.0-3.0-2.0-1.3"	"s97b2r"	"600"	"1366"	"chrome"	"111.0.0"	"FALSE"	"Windows 10"	"60.1"	"052"	n/a	n/a	n/a	n/a	n/a	n/a	"Trial"	n/a	n/a	n/a	"394"	"arrowleft"	n/a	"NULL"	"NULL"	"NULL"	"stimuli/VerticalHorizontal_-330000_0.90000.png"	n/a	"VerticalHorizontal"	"arrowleft"	"1162"	"TRUE"	"VerticalHorizontal"	"-33000000000"	"0.9000000000"	"1"	"16"
n/a	"html-keyboard-response"	"45"	"139106"	"0.0-4.0-3.0-2.0-0.4"	"s97b2r"	"600"	"1366"	"chrome"	"111.0.0"	"FALSE"	"Windows 10"	"60.1"	"052"	n/a	n/a	n/a	n/a	n/a	n/a	"fixation"	n/a	n/a	n/a	n/a	"NULL"	n/a	"NULL"	"NULL"	"NULL"	"<p style=\"color: black; font-size: 80px; padding-left: 32%; padding-right: 33%; padding-top: 49%; padding-bottom: 35%\">+</p>"	"1025"	n/a	n/a	n/a	n/a	n/a	n/a	n/a	n/a	n/a
n/a	"image-keyboard-response"	"46"	"139473"	"0.0-4.0-3.0-2.0-1.4"	"s97b2r"	"600"	"1366"	"chrome"	"111.0.0"	"FALSE"	"Windows 10"	"60.1"	"052"	n/a	n/a	n/a	n/a	n/a	n/a	"Trial"	n/a	n/a	n/a	"366"	"arrowleft"	n/a	"NULL"	"NULL"	"NULL"	"stimuli/VerticalHorizontal_0000000_0.90000.png"	n/a	"VerticalHorizontal"	"arrowleft"	"1039"	"TRUE"	"VerticalHorizontal"	"000000000000"	"0.9000000000"	"1"	"17"
n/a	"html-keyboard-response"	"47"	"140607"	"0.0-4.0-3.0-2.0-0.5"	"s97b2r"	"600"	"1366"	"chrome"	"111.0.0"	"FALSE"	"Windows 10"	"60.1"	"052"	n/a	n/a	n/a	n/a	n/a	n/a	"fixation"	n/a	n/a	n/a	n/a	"NULL"	n/a	"NULL"	"NULL"	"NULL"	"<p style=\"color: black; font-size: 80px; padding-left: 15%; padding-right: 12%; padding-top: 41%; padding-bottom: 11%\">+</p>"	"1131"	n/a	n/a	n/a	n/a	n/a	n/a	n/a	n/a	n/a
n/a	"image-keyboard-response"	"48"	"140920"	"0.0-4.0-3.0-2.0-1.5"	"s97b2r"	"600"	"1366"	"chrome"	"111.0.0"	"FALSE"	"Windows 10"	"60.1"	"052"	n/a	n/a	n/a	n/a	n/a	n/a	"Trial"	n/a	n/a	n/a	"312"	"arrowright"	n/a	"NULL"	"NULL"	"NULL"	"stimuli/VerticalHorizontal_-330000_-0.9000.png"	n/a	"VerticalHorizontal"	"arrowright"	"1134"	"TRUE"	"VerticalHorizontal"	"-33000000000"	"-0.900000000"	"1"	"18"
n/a	"html-button-response"	"49"	"143250"	"0.0-4.0-3.0-3.0"	"s97b2r"	"600"	"1366"	"chrome"	"111.0.0"	"FALSE"	"Windows 10"	"60.1"	"052"	n/a	n/a	n/a	n/a	n/a	n/a	"practice_block_results"	n/a	n/a	n/a	"2329"	"0"	n/a	"NULL"	"NULL"	"NULL"	"<p style='color:rgb(76,175,80);'> Correct Responses: <b>100.00%</b></p><hr><p style='color:rgb(233,30,99);'> Average Response Time: <b>399.83</b> ms.</p>"	n/a	n/a	n/a	n/a	n/a	n/a	n/a	n/a	n/a	n/a
n/a	"html-button-response"	"50"	"199621"	"0.0-4.0-4.0"	"s97b2r"	"600"	"1366"	"chrome"	"111.0.0"	"FALSE"	"Windows 10"	"60.1"	"052"	n/a	n/a	n/a	n/a	n/a	n/a	"practice_debrief"	n/a	n/a	n/a	"55856"	"0"	n/a	"NULL"	"NULL"	"NULL"	"<p><b>TRAINING COMPLETED</b></p><p>In the next phase, there will be more trials, and some might be harder too.<br> Moreover, after each illusion block, a <b>score</b> will be calculated based on speed (time you took to answer) and accuracy (number of errors).</p><p>Try to keep up a high score!</p><br><p>Note that it can be <i>really</i> challenging at times, so you will need to rely on your <b>intuition</b> and gut feeling to answer as fast as you can without making errors.</p><p>Each illusion block will be repeated two times (so that you have the opportunity to improve your score), but the order of the blocks is random.</p><p>Remember, your goal is to be as <b>fast</b> and <b>accurate</b> as possible. Good luck!</p><br>"	n/a	n/a	n/a	n/a	n/a	n/a	n/a	n/a	n/a	n/a
"TRUE"	"preload"	"51"	"199777"	"0.0-5.0-0.0"	"s97b2r"	"600"	"1366"	"chrome"	"111.0.0"	"FALSE"	"Windows 10"	"60.1"	"052"	n/a	n/a	n/a	n/a	n/a	n/a	n/a	n/a	n/a	n/a	n/a	"NULL"	"FALSE"	"list()"	"list()"	"list()"	n/a	n/a	n/a	n/a	n/a	n/a	n/a	n/a	n/a	n/a	n/a
n/a	"html-keyboard-response"	"52"	"206500"	"0.0-5.0-1.0"	"s97b2r"	"600"	"1366"	"chrome"	"111.0.0"	"FALSE"	"Windows 10"	"60.1"	"052"	n/a	n/a	n/a	n/a	n/a	n/a	n/a	n/a	n/a	n/a	"6722"	"enter"	n/a	"NULL"	"NULL"	"NULL"	"<p><b>Part 1/6</b></p><p>In this part, two red circles will appear side by side on the screen.</p><p>Your task is to select which <b>red circle is bigger</b> in size as fast as you can, without making errors.</p><p>Don't get distracted by the surrounding black circles around the red circles!</p><p>Press <b>the LEFT or the RIGHT arrow</b> to indicate which is the bigger <b>red circle.</b></p><div style='float: center'><img src='materials/instructions/Ebbinghaus_Demo.png' height='300'></img><p><img src='utils/answer/answer_leftright_keyboard.PNG' height='150'></img></p><p class='small'>In this example, the correct answer is the <b>LEFT arrow</b>.</p></div><p>Are you ready? <b>Press ENTER to start</b></p>"	n/a	n/a	n/a	n/a	n/a	n/a	n/a	n/a	n/a	n/a
n/a	"html-keyboard-response"	"53"	"208436"	"0.0-5.0-2.0-0.0"	"s97b2r"	"600"	"1366"	"chrome"	"111.0.0"	"FALSE"	"Windows 10"	"60.1"	"052"	n/a	n/a	n/a	n/a	n/a	n/a	"fixation"	n/a	n/a	n/a	n/a	"NULL"	n/a	"NULL"	"NULL"	"NULL"	"<p style=\"color: black; font-size: 80px; padding-left: 42%; padding-right: 35%; padding-top: 13%; padding-bottom: 13%\">+</p>"	"1415"	n/a	n/a	n/a	n/a	n/a	n/a	n/a	n/a	n/a
n/a	"image-keyboard-response"	"54"	"208902"	"0.0-5.0-2.0-1.0"	"s97b2r"	"600"	"1366"	"chrome"	"111.0.0"	"FALSE"	"Windows 10"	"60.1"	"052"	n/a	n/a	n/a	n/a	n/a	n/a	"Trial"	n/a	n/a	n/a	"465"	"arrowright"	n/a	"NULL"	"NULL"	"NULL"	"stimuli/Ebbinghaus_0.10000_-0.2800.png"	n/a	"Ebbinghaus"	"arrowright"	"1936"	"TRUE"	"Ebbinghaus"	"0.1000000000"	"-0.280000000"	"1"	"19"
n/a	"html-keyboard-response"	"55"	"210236"	"0.0-5.0-2.0-0.1"	"s97b2r"	"600"	"1366"	"chrome"	"111.0.0"	"FALSE"	"Windows 10"	"60.1"	"052"	n/a	n/a	n/a	n/a	n/a	n/a	"fixation"	n/a	n/a	n/a	n/a	"NULL"	n/a	"NULL"	"NULL"	"NULL"	"<p style=\"color: black; font-size: 80px; padding-left: 30%; padding-right: 46%; padding-top: 47%; padding-bottom: 30%\">+</p>"	"1330"	n/a	n/a	n/a	n/a	n/a	n/a	n/a	n/a	n/a
n/a	"image-keyboard-response"	"56"	"210652"	"0.0-5.0-2.0-1.1"	"s97b2r"	"600"	"1366"	"chrome"	"111.0.0"	"FALSE"	"Windows 10"	"60.1"	"052"	n/a	n/a	n/a	n/a	n/a	n/a	"Trial"	n/a	n/a	n/a	"415"	"arrowleft"	n/a	"NULL"	"NULL"	"NULL"	"stimuli/Ebbinghaus_0.61429_0.11071.png"	n/a	"Ebbinghaus"	"arrowleft"	"1334"	"TRUE"	"Ebbinghaus"	"0.6142900000"	"0.1107100000"	"1"	"20"
n/a	"html-keyboard-response"	"57"	"211860"	"0.0-5.0-2.0-0.2"	"s97b2r"	"600"	"1366"	"chrome"	"111.0.0"	"FALSE"	"Windows 10"	"60.1"	"052"	n/a	n/a	n/a	n/a	n/a	n/a	"fixation"	n/a	n/a	n/a	n/a	"NULL"	n/a	"NULL"	"NULL"	"NULL"	"<p style=\"color: black; font-size: 80px; padding-left: 29%; padding-right: 49%; padding-top: 38%; padding-bottom: 11%\">+</p>"	"1199"	n/a	n/a	n/a	n/a	n/a	n/a	n/a	n/a	n/a
n/a	"image-keyboard-response"	"58"	"212450"	"0.0-5.0-2.0-1.2"	"s97b2r"	"600"	"1366"	"chrome"	"111.0.0"	"FALSE"	"Windows 10"	"60.1"	"052"	n/a	n/a	n/a	n/a	n/a	n/a	"Trial"	n/a	n/a	n/a	"590"	"arrowright"	n/a	"NULL"	"NULL"	"NULL"	"stimuli/Ebbinghaus_-0.61429_-0.11071.png"	n/a	"Ebbinghaus"	"arrowright"	"1208"	"TRUE"	"Ebbinghaus"	"-0.614290000"	"-0.110710000"	"1"	"21"
n/a	"html-keyboard-response"	"59"	"213640"	"0.0-5.0-2.0-0.3"	"s97b2r"	"600"	"1366"	"chrome"	"111.0.0"	"FALSE"	"Windows 10"	"60.1"	"052"	n/a	n/a	n/a	n/a	n/a	n/a	"fixation"	n/a	n/a	n/a	n/a	"NULL"	n/a	"NULL"	"NULL"	"NULL"	"<p style=\"color: black; font-size: 80px; padding-left: 25%; padding-right: 49%; padding-top: 48%; padding-bottom: 36%\">+</p>"	"1177"	n/a	n/a	n/a	n/a	n/a	n/a	n/a	n/a	n/a
n/a	"image-keyboard-response"	"60"	"214068"	"0.0-5.0-2.0-1.3"	"s97b2r"	"600"	"1366"	"chrome"	"111.0.0"	"FALSE"	"Windows 10"	"60.1"	"052"	n/a	n/a	n/a	n/a	n/a	n/a	"Trial"	n/a	n/a	n/a	"427"	"arrowright"	n/a	"NULL"	"NULL"	"NULL"	"stimuli/Ebbinghaus_0.10000_-0.2150.png"	n/a	"Ebbinghaus"	"arrowright"	"1190"	"TRUE"	"Ebbinghaus"	"0.1000000000"	"-0.215000000"	"1"	"22"
n/a	"html-keyboard-response"	"61"	"215499"	"0.0-5.0-2.0-0.4"	"s97b2r"	"600"	"1366"	"chrome"	"111.0.0"	"FALSE"	"Windows 10"	"60.1"	"052"	n/a	n/a	n/a	n/a	n/a	n/a	"fixation"	n/a	n/a	n/a	n/a	"NULL"	n/a	"NULL"	"NULL"	"NULL"	"<p style=\"color: black; font-size: 80px; padding-left: 12%; padding-right: 2%; padding-top: 47%; padding-bottom: 41%\">+</p>"	"1422"	n/a	n/a	n/a	n/a	n/a	n/a	n/a	n/a	n/a
n/a	"image-keyboard-response"	"62"	"216107"	"0.0-5.0-2.0-1.4"	"s97b2r"	"600"	"1366"	"chrome"	"111.0.0"	"FALSE"	"Windows 10"	"60.1"	"052"	n/a	n/a	n/a	n/a	n/a	n/a	"Trial"	n/a	n/a	n/a	"607"	"arrowleft"	n/a	"NULL"	"NULL"	"NULL"	"stimuli/Ebbinghaus_0.61429_-0.11071.png"	n/a	"Ebbinghaus"	"arrowright"	"1431"	"FALSE"	"Ebbinghaus"	"0.6142900000"	"-0.110710000"	"1"	"23"
n/a	"html-keyboard-response"	"63"	"217190"	"0.0-5.0-2.0-0.5"	"s97b2r"	"600"	"1366"	"chrome"	"111.0.0"	"FALSE"	"Windows 10"	"60.1"	"052"	n/a	n/a	n/a	n/a	n/a	n/a	"fixation"	n/a	n/a	n/a	n/a	"NULL"	n/a	"NULL"	"NULL"	"NULL"	"<p style=\"color: black; font-size: 80px; padding-left: 47%; padding-right: 34%; padding-top: 49%; padding-bottom: 29%\">+</p>"	"1080"	n/a	n/a	n/a	n/a	n/a	n/a	n/a	n/a	n/a
n/a	"image-keyboard-response"	"64"	"217590"	"0.0-5.0-2.0-1.5"	"s97b2r"	"600"	"1366"	"chrome"	"111.0.0"	"FALSE"	"Windows 10"	"60.1"	"052"	n/a	n/a	n/a	n/a	n/a	n/a	"Trial"	n/a	n/a	n/a	"399"	"arrowright"	n/a	"NULL"	"NULL"	"NULL"	"stimuli/Ebbinghaus_-0.87143_-0.2150.png"	n/a	"Ebbinghaus"	"arrowright"	"1083"	"TRUE"	"Ebbinghaus"	"-0.871430000"	"-0.215000000"	"1"	"24"
n/a	"html-keyboard-response"	"65"	"218977"	"0.0-5.0-2.0-0.6"	"s97b2r"	"600"	"1366"	"chrome"	"111.0.0"	"FALSE"	"Windows 10"	"60.1"	"052"	n/a	n/a	n/a	n/a	n/a	n/a	"fixation"	n/a	n/a	n/a	n/a	"NULL"	n/a	"NULL"	"NULL"	"NULL"	"<p style=\"color: black; font-size: 80px; padding-left: 49%; padding-right: 22%; padding-top: 21%; padding-bottom: 9%\">+</p>"	"1371"	n/a	n/a	n/a	n/a	n/a	n/a	n/a	n/a	n/a
n/a	"image-keyboard-response"	"66"	"219579"	"0.0-5.0-2.0-1.6"	"s97b2r"	"600"	"1366"	"chrome"	"111.0.0"	"FALSE"	"Windows 10"	"60.1"	"052"	n/a	n/a	n/a	n/a	n/a	n/a	"Trial"	n/a	n/a	n/a	"602"	"arrowleft"	n/a	"NULL"	"NULL"	"NULL"	"stimuli/Ebbinghaus_0.10000_0.15857.png"	n/a	"Ebbinghaus"	"arrowleft"	"1387"	"TRUE"	"Ebbinghaus"	"0.1000000000"	"0.1585700000"	"1"	"25"
n/a	"html-keyboard-response"	"67"	"220626"	"0.0-5.0-2.0-0.7"	"s97b2r"	"600"	"1366"	"chrome"	"111.0.0"	"FALSE"	"Windows 10"	"60.1"	"052"	n/a	n/a	n/a	n/a	n/a	n/a	"fixation"	n/a	n/a	n/a	n/a	"NULL"	n/a	"NULL"	"NULL"	"NULL"	"<p style=\"color: black; font-size: 80px; padding-left: 45%; padding-right: 25%; padding-top: 13%; padding-bottom: 39%\">+</p>"	"1036"	n/a	n/a	n/a	n/a	n/a	n/a	n/a	n/a	n/a
n/a	"image-keyboard-response"	"68"	"221160"	"0.0-5.0-2.0-1.7"	"s97b2r"	"600"	"1366"	"chrome"	"111.0.0"	"FALSE"	"Windows 10"	"60.1"	"052"	n/a	n/a	n/a	n/a	n/a	n/a	"Trial"	n/a	n/a	n/a	"533"	"arrowright"	n/a	"NULL"	"NULL"	"NULL"	"stimuli/Ebbinghaus_0.10000_-0.15857.png"	n/a	"Ebbinghaus"	"arrowright"	"1047"	"TRUE"	"Ebbinghaus"	"0.1000000000"	"-0.158570000"	"1"	"26"
n/a	"html-keyboard-response"	"69"	"222572"	"0.0-5.0-2.0-0.8"	"s97b2r"	"600"	"1366"	"chrome"	"111.0.0"	"FALSE"	"Windows 10"	"60.1"	"052"	n/a	n/a	n/a	n/a	n/a	n/a	"fixation"	n/a	n/a	n/a	n/a	"NULL"	n/a	"NULL"	"NULL"	"NULL"	"<p style=\"color: black; font-size: 80px; padding-left: 46%; padding-right: 20%; padding-top: 48%; padding-bottom: 19%\">+</p>"	"1406"	n/a	n/a	n/a	n/a	n/a	n/a	n/a	n/a	n/a
n/a	"image-keyboard-response"	"70"	"223066"	"0.0-5.0-2.0-1.8"	"s97b2r"	"600"	"1366"	"chrome"	"111.0.0"	"FALSE"	"Windows 10"	"60.1"	"052"	n/a	n/a	n/a	n/a	n/a	n/a	"Trial"	n/a	n/a	n/a	"492"	"arrowleft"	n/a	"NULL"	"NULL"	"NULL"	"stimuli/Ebbinghaus_0.35714_0.15857.png"	n/a	"Ebbinghaus"	"arrowleft"	"1412"	"TRUE"	"Ebbinghaus"	"0.3571400000"	"0.1585700000"	"1"	"27"
n/a	"html-keyboard-response"	"71"	"224562"	"0.0-5.0-2.0-0.9"	"s97b2r"	"600"	"1366"	"chrome"	"111.0.0"	"FALSE"	"Windows 10"	"60.1"	"052"	n/a	n/a	n/a	n/a	n/a	n/a	"fixation"	n/a	n/a	n/a	n/a	"NULL"	n/a	"NULL"	"NULL"	"NULL"	"<p style=\"color: black; font-size: 80px; padding-left: 7%; padding-right: 33%; padding-top: 46%; padding-bottom: 40%\">+</p>"	"1490"	n/a	n/a	n/a	n/a	n/a	n/a	n/a	n/a	n/a
n/a	"image-keyboard-response"	"72"	"225022"	"0.0-5.0-2.0-1.9"	"s97b2r"	"600"	"1366"	"chrome"	"111.0.0"	"FALSE"	"Windows 10"	"60.1"	"052"	n/a	n/a	n/a	n/a	n/a	n/a	"Trial"	n/a	n/a	n/a	"459"	"arrowright"	n/a	"NULL"	"NULL"	"NULL"	"stimuli/Ebbinghaus_-0.87143_-0.11071.png"	n/a	"Ebbinghaus"	"arrowright"	"1496"	"TRUE"	"Ebbinghaus"	"-0.871430000"	"-0.110710000"	"1"	"28"
n/a	"html-keyboard-response"	"73"	"226399"	"0.0-5.0-2.0-0.10"	"s97b2r"	"600"	"1366"	"chrome"	"111.0.0"	"FALSE"	"Windows 10"	"60.1"	"052"	n/a	n/a	n/a	n/a	n/a	n/a	"fixation"	n/a	n/a	n/a	n/a	"NULL"	n/a	"NULL"	"NULL"	"NULL"	"<p style=\"color: black; font-size: 80px; padding-left: 14%; padding-right: 35%; padding-top: 49%; padding-bottom: 11%\">+</p>"	"1372"	n/a	n/a	n/a	n/a	n/a	n/a	n/a	n/a	n/a
n/a	"image-keyboard-response"	"74"	"227046"	"0.0-5.0-2.0-1.10"	"s97b2r"	"600"	"1366"	"chrome"	"111.0.0"	"FALSE"	"Windows 10"	"60.1"	"052"	n/a	n/a	n/a	n/a	n/a	n/a	"Trial"	n/a	n/a	n/a	"647"	"arrowright"	n/a	"NULL"	"NULL"	"NULL"	"stimuli/Ebbinghaus_0.35714_-0.11071.png"	n/a	"Ebbinghaus"	"arrowright"	"1377"	"TRUE"	"Ebbinghaus"	"0.3571400000"	"-0.110710000"	"1"	"29"
n/a	"html-keyboard-response"	"75"	"228344"	"0.0-5.0-2.0-0.11"	"s97b2r"	"600"	"1366"	"chrome"	"111.0.0"	"FALSE"	"Windows 10"	"60.1"	"052"	n/a	n/a	n/a	n/a	n/a	n/a	"fixation"	n/a	n/a	n/a	n/a	"NULL"	n/a	"NULL"	"NULL"	"NULL"	"<p style=\"color: black; font-size: 80px; padding-left: 39%; padding-right: 29%; padding-top: 14%; padding-bottom: 39%\">+</p>"	"1289"	n/a	n/a	n/a	n/a	n/a	n/a	n/a	n/a	n/a
n/a	"image-keyboard-response"	"76"	"228905"	"0.0-5.0-2.0-1.11"	"s97b2r"	"600"	"1366"	"chrome"	"111.0.0"	"FALSE"	"Windows 10"	"60.1"	"052"	n/a	n/a	n/a	n/a	n/a	n/a	"Trial"	n/a	n/a	n/a	"561"	"arrowright"	n/a	"NULL"	"NULL"	"NULL"	"stimuli/Ebbinghaus_-0.35714_-0.2150.png"	n/a	"Ebbinghaus"	"arrowright"	"1298"	"TRUE"	"Ebbinghaus"	"-0.357140000"	"-0.215000000"	"1"	"30"
n/a	"html-keyboard-response"	"77"	"230121"	"0.0-5.0-2.0-0.12"	"s97b2r"	"600"	"1366"	"chrome"	"111.0.0"	"FALSE"	"Windows 10"	"60.1"	"052"	n/a	n/a	n/a	n/a	n/a	n/a	"fixation"	n/a	n/a	n/a	n/a	"NULL"	n/a	"NULL"	"NULL"	"NULL"	"<p style=\"color: black; font-size: 80px; padding-left: 35%; padding-right: 44%; padding-top: 48%; padding-bottom: 44%\">+</p>"	"1205"	n/a	n/a	n/a	n/a	n/a	n/a	n/a	n/a	n/a
n/a	"image-keyboard-response"	"78"	"230640"	"0.0-5.0-2.0-1.12"	"s97b2r"	"600"	"1366"	"chrome"	"111.0.0"	"FALSE"	"Windows 10"	"60.1"	"052"	n/a	n/a	n/a	n/a	n/a	n/a	"Trial"	n/a	n/a	n/a	"518"	"arrowleft"	n/a	"NULL"	"NULL"	"NULL"	"stimuli/Ebbinghaus_0.87143_0.21500.png"	n/a	"Ebbinghaus"	"arrowleft"	"1216"	"TRUE"	"Ebbinghaus"	"0.8714300000"	"0.2150000000"	"1"	"31"
n/a	"html-keyboard-response"	"79"	"231740"	"0.0-5.0-2.0-0.13"	"s97b2r"	"600"	"1366"	"chrome"	"111.0.0"	"FALSE"	"Windows 10"	"60.1"	"052"	n/a	n/a	n/a	n/a	n/a	n/a	"fixation"	n/a	n/a	n/a	n/a	"NULL"	n/a	"NULL"	"NULL"	"NULL"	"<p style=\"color: black; font-size: 80px; padding-left: 37%; padding-right: 9%; padding-top: 31%; padding-bottom: 23%\">+</p>"	"1091"	n/a	n/a	n/a	n/a	n/a	n/a	n/a	n/a	n/a
n/a	"image-keyboard-response"	"80"	"232442"	"0.0-5.0-2.0-1.13"	"s97b2r"	"600"	"1366"	"chrome"	"111.0.0"	"FALSE"	"Windows 10"	"60.1"	"052"	n/a	n/a	n/a	n/a	n/a	n/a	"Trial"	n/a	n/a	n/a	"701"	"arrowleft"	n/a	"NULL"	"NULL"	"NULL"	"stimuli/Ebbinghaus_-0.1000_0.11071.png"	n/a	"Ebbinghaus"	"arrowleft"	"1100"	"TRUE"	"Ebbinghaus"	"-0.100000000"	"0.1107100000"	"1"	"32"
n/a	"html-keyboard-response"	"81"	"233625"	"0.0-5.0-2.0-0.14"	"s97b2r"	"600"	"1366"	"chrome"	"111.0.0"	"FALSE"	"Windows 10"	"60.1"	"052"	n/a	n/a	n/a	n/a	n/a	n/a	"fixation"	n/a	n/a	n/a	n/a	"NULL"	n/a	"NULL"	"NULL"	"NULL"	"<p style=\"color: black; font-size: 80px; padding-left: 8%; padding-right: 21%; padding-top: 37%; padding-bottom: 47%\">+</p>"	"1178"	n/a	n/a	n/a	n/a	n/a	n/a	n/a	n/a	n/a
n/a	"image-keyboard-response"	"82"	"234166"	"0.0-5.0-2.0-1.14"	"s97b2r"	"600"	"1366"	"chrome"	"111.0.0"	"FALSE"	"Windows 10"	"60.1"	"052"	n/a	n/a	n/a	n/a	n/a	n/a	"Trial"	n/a	n/a	n/a	"541"	"arrowleft"	n/a	"NULL"	"NULL"	"NULL"	"stimuli/Ebbinghaus_0.35714_0.21500.png"	n/a	"Ebbinghaus"	"arrowleft"	"1183"	"TRUE"	"Ebbinghaus"	"0.3571400000"	"0.2150000000"	"1"	"33"
n/a	"html-keyboard-response"	"83"	"235221"	"0.0-5.0-2.0-0.15"	"s97b2r"	"600"	"1366"	"chrome"	"111.0.0"	"FALSE"	"Windows 10"	"60.1"	"052"	n/a	n/a	n/a	n/a	n/a	n/a	"fixation"	n/a	n/a	n/a	n/a	"NULL"	n/a	"NULL"	"NULL"	"NULL"	"<p style=\"color: black; font-size: 80px; padding-left: 13%; padding-right: 29%; padding-top: 27%; padding-bottom: 30%\">+</p>"	"1045"	n/a	n/a	n/a	n/a	n/a	n/a	n/a	n/a	n/a
n/a	"image-keyboard-response"	"84"	"235707"	"0.0-5.0-2.0-1.15"	"s97b2r"	"600"	"1366"	"chrome"	"111.0.0"	"FALSE"	"Windows 10"	"60.1"	"052"	n/a	n/a	n/a	n/a	n/a	n/a	"Trial"	n/a	n/a	n/a	"485"	"arrowleft"	n/a	"NULL"	"NULL"	"NULL"	"stimuli/Ebbinghaus_-0.87143_0.11071.png"	n/a	"Ebbinghaus"	"arrowleft"	"1055"	"TRUE"	"Ebbinghaus"	"-0.871430000"	"0.1107100000"	"1"	"34"
n/a	"html-keyboard-response"	"85"	"237112"	"0.0-5.0-2.0-0.16"	"s97b2r"	"600"	"1366"	"chrome"	"111.0.0"	"FALSE"	"Windows 10"	"60.1"	"052"	n/a	n/a	n/a	n/a	n/a	n/a	"fixation"	n/a	n/a	n/a	n/a	"NULL"	n/a	"NULL"	"NULL"	"NULL"	"<p style=\"color: black; font-size: 80px; padding-left: 10%; padding-right: 31%; padding-top: 4%; padding-bottom: 40%\">+</p>"	"1400"	n/a	n/a	n/a	n/a	n/a	n/a	n/a	n/a	n/a
n/a	"image-keyboard-response"	"86"	"237637"	"0.0-5.0-2.0-1.16"	"s97b2r"	"600"	"1366"	"chrome"	"111.0.0"	"FALSE"	"Windows 10"	"60.1"	"052"	n/a	n/a	n/a	n/a	n/a	n/a	"Trial"	n/a	n/a	n/a	"525"	"arrowright"	n/a	"NULL"	"NULL"	"NULL"	"stimuli/Ebbinghaus_-0.35714_-0.2800.png"	n/a	"Ebbinghaus"	"arrowright"	"1405"	"TRUE"	"Ebbinghaus"	"-0.357140000"	"-0.280000000"	"1"	"35"
n/a	"html-keyboard-response"	"87"	"239108"	"0.0-5.0-2.0-0.17"	"s97b2r"	"600"	"1366"	"chrome"	"111.0.0"	"FALSE"	"Windows 10"	"60.1"	"052"	n/a	n/a	n/a	n/a	n/a	n/a	"fixation"	n/a	n/a	n/a	n/a	"NULL"	n/a	"NULL"	"NULL"	"NULL"	"<p style=\"color: black; font-size: 80px; padding-left: 7%; padding-right: 35%; padding-top: 1%; padding-bottom: 46%\">+</p>"	"1467"	n/a	n/a	n/a	n/a	n/a	n/a	n/a	n/a	n/a
n/a	"image-keyboard-response"	"88"	"239654"	"0.0-5.0-2.0-1.17"	"s97b2r"	"600"	"1366"	"chrome"	"111.0.0"	"FALSE"	"Windows 10"	"60.1"	"052"	n/a	n/a	n/a	n/a	n/a	n/a	"Trial"	n/a	n/a	n/a	"545"	"arrowright"	n/a	"NULL"	"NULL"	"NULL"	"stimuli/Ebbinghaus_-0.87143_-0.2800.png"	n/a	"Ebbinghaus"	"arrowright"	"1471"	"TRUE"	"Ebbinghaus"	"-0.871430000"	"-0.280000000"	"1"	"36"
n/a	"html-keyboard-response"	"89"	"240951"	"0.0-5.0-2.0-0.18"	"s97b2r"	"600"	"1366"	"chrome"	"111.0.0"	"FALSE"	"Windows 10"	"60.1"	"052"	n/a	n/a	n/a	n/a	n/a	n/a	"fixation"	n/a	n/a	n/a	n/a	"NULL"	n/a	"NULL"	"NULL"	"NULL"	"<p style=\"color: black; font-size: 80px; padding-left: 28%; padding-right: 17%; padding-top: 19%; padding-bottom: 20%\">+</p>"	"1292"	n/a	n/a	n/a	n/a	n/a	n/a	n/a	n/a	n/a
n/a	"image-keyboard-response"	"90"	"241471"	"0.0-5.0-2.0-1.18"	"s97b2r"	"600"	"1366"	"chrome"	"111.0.0"	"FALSE"	"Windows 10"	"60.1"	"052"	n/a	n/a	n/a	n/a	n/a	n/a	"Trial"	n/a	n/a	n/a	"520"	"arrowright"	n/a	"NULL"	"NULL"	"NULL"	"stimuli/Ebbinghaus_0.61429_-0.15857.png"	n/a	"Ebbinghaus"	"arrowright"	"1297"	"TRUE"	"Ebbinghaus"	"0.6142900000"	"-0.158570000"	"1"	"37"
n/a	"html-keyboard-response"	"91"	"242881"	"0.0-5.0-2.0-0.19"	"s97b2r"	"600"	"1366"	"chrome"	"111.0.0"	"FALSE"	"Windows 10"	"60.1"	"052"	n/a	n/a	n/a	n/a	n/a	n/a	"fixation"	n/a	n/a	n/a	n/a	"NULL"	n/a	"NULL"	"NULL"	"NULL"	"<p style=\"color: black; font-size: 80px; padding-left: 12%; padding-right: 48%; padding-top: 35%; padding-bottom: 3%\">+</p>"	"1398"	n/a	n/a	n/a	n/a	n/a	n/a	n/a	n/a	n/a
n/a	"image-keyboard-response"	"92"	"243554"	"0.0-5.0-2.0-1.19"	"s97b2r"	"600"	"1366"	"chrome"	"111.0.0"	"FALSE"	"Windows 10"	"60.1"	"052"	n/a	n/a	n/a	n/a	n/a	n/a	"Trial"	n/a	n/a	n/a	"673"	"arrowright"	n/a	"NULL"	"NULL"	"NULL"	"stimuli/Ebbinghaus_0.10000_-0.11071.png"	n/a	"Ebbinghaus"	"arrowright"	"1410"	"TRUE"	"Ebbinghaus"	"0.1000000000"	"-0.110710000"	"1"	"38"
n/a	"html-keyboard-response"	"93"	"244844"	"0.0-5.0-2.0-0.20"	"s97b2r"	"600"	"1366"	"chrome"	"111.0.0"	"FALSE"	"Windows 10"	"60.1"	"052"	n/a	n/a	n/a	n/a	n/a	n/a	"fixation"	n/a	n/a	n/a	n/a	"NULL"	n/a	"NULL"	"NULL"	"NULL"	"<p style=\"color: black; font-size: 80px; padding-left: 1%; padding-right: 13%; padding-top: 14%; padding-bottom: 8%\">+</p>"	"1282"	n/a	n/a	n/a	n/a	n/a	n/a	n/a	n/a	n/a
n/a	"image-keyboard-response"	"94"	"245414"	"0.0-5.0-2.0-1.20"	"s97b2r"	"600"	"1366"	"chrome"	"111.0.0"	"FALSE"	"Windows 10"	"60.1"	"052"	n/a	n/a	n/a	n/a	n/a	n/a	"Trial"	n/a	n/a	n/a	"570"	"arrowleft"	n/a	"NULL"	"NULL"	"NULL"	"stimuli/Ebbinghaus_-0.1000_0.21500.png"	n/a	"Ebbinghaus"	"arrowleft"	"1290"	"TRUE"	"Ebbinghaus"	"-0.100000000"	"0.2150000000"	"1"	"39"
n/a	"html-keyboard-response"	"95"	"246538"	"0.0-5.0-2.0-0.21"	"s97b2r"	"600"	"1366"	"chrome"	"111.0.0"	"FALSE"	"Windows 10"	"60.1"	"052"	n/a	n/a	n/a	n/a	n/a	n/a	"fixation"	n/a	n/a	n/a	n/a	"NULL"	n/a	"NULL"	"NULL"	"NULL"	"<p style=\"color: black; font-size: 80px; padding-left: 22%; padding-right: 47%; padding-top: 20%; padding-bottom: 11%\">+</p>"	"1108"	n/a	n/a	n/a	n/a	n/a	n/a	n/a	n/a	n/a
n/a	"image-keyboard-response"	"96"	"247093"	"0.0-5.0-2.0-1.21"	"s97b2r"	"600"	"1366"	"chrome"	"111.0.0"	"FALSE"	"Windows 10"	"60.1"	"052"	n/a	n/a	n/a	n/a	n/a	n/a	"Trial"	n/a	n/a	n/a	"554"	"arrowright"	n/a	"NULL"	"NULL"	"NULL"	"stimuli/Ebbinghaus_-0.61429_-0.15857.png"	n/a	"Ebbinghaus"	"arrowright"	"1124"	"TRUE"	"Ebbinghaus"	"-0.614290000"	"-0.158570000"	"1"	"40"
n/a	"html-keyboard-response"	"97"	"248310"	"0.0-5.0-2.0-0.22"	"s97b2r"	"600"	"1366"	"chrome"	"111.0.0"	"FALSE"	"Windows 10"	"60.1"	"052"	n/a	n/a	n/a	n/a	n/a	n/a	"fixation"	n/a	n/a	n/a	n/a	"NULL"	n/a	"NULL"	"NULL"	"NULL"	"<p style=\"color: black; font-size: 80px; padding-left: 40%; padding-right: 31%; padding-top: 20%; padding-bottom: 46%\">+</p>"	"1210"	n/a	n/a	n/a	n/a	n/a	n/a	n/a	n/a	n/a
n/a	"image-keyboard-response"	"98"	"248963"	"0.0-5.0-2.0-1.22"	"s97b2r"	"600"	"1366"	"chrome"	"111.0.0"	"FALSE"	"Windows 10"	"60.1"	"052"	n/a	n/a	n/a	n/a	n/a	n/a	"Trial"	n/a	n/a	n/a	"653"	"arrowleft"	n/a	"NULL"	"NULL"	"NULL"	"stimuli/Ebbinghaus_0.61429_0.15857.png"	n/a	"Ebbinghaus"	"arrowleft"	"1217"	"TRUE"	"Ebbinghaus"	"0.6142900000"	"0.1585700000"	"1"	"41"
n/a	"html-keyboard-response"	"99"	"250143"	"0.0-5.0-2.0-0.23"	"s97b2r"	"600"	"1366"	"chrome"	"111.0.0"	"FALSE"	"Windows 10"	"60.1"	"052"	n/a	n/a	n/a	n/a	n/a	n/a	"fixation"	n/a	n/a	n/a	n/a	"NULL"	n/a	"NULL"	"NULL"	"NULL"	"<p style=\"color: black; font-size: 80px; padding-left: 1%; padding-right: 40%; padding-top: 18%; padding-bottom: 11%\">+</p>"	"1174"	n/a	n/a	n/a	n/a	n/a	n/a	n/a	n/a	n/a
n/a	"image-keyboard-response"	"100"	"250821"	"0.0-5.0-2.0-1.23"	"s97b2r"	"600"	"1366"	"chrome"	"111.0.0"	"FALSE"	"Windows 10"	"60.1"	"052"	n/a	n/a	n/a	n/a	n/a	n/a	"Trial"	n/a	n/a	n/a	"678"	"arrowleft"	n/a	"NULL"	"NULL"	"NULL"	"stimuli/Ebbinghaus_-0.61429_0.28000.png"	n/a	"Ebbinghaus"	"arrowleft"	"1180"	"TRUE"	"Ebbinghaus"	"-0.614290000"	"0.2800000000"	"1"	"42"
n/a	"html-keyboard-response"	"101"	"252102"	"0.0-5.0-2.0-0.24"	"s97b2r"	"600"	"1366"	"chrome"	"111.0.0"	"FALSE"	"Windows 10"	"60.1"	"052"	n/a	n/a	n/a	n/a	n/a	n/a	"fixation"	n/a	n/a	n/a	n/a	"NULL"	n/a	"NULL"	"NULL"	"NULL"	"<p style=\"color: black; font-size: 80px; padding-left: 23%; padding-right: 23%; padding-top: 43%; padding-bottom: 48%\">+</p>"	"1269"	n/a	n/a	n/a	n/a	n/a	n/a	n/a	n/a	n/a
n/a	"image-keyboard-response"	"102"	"252590"	"0.0-5.0-2.0-1.24"	"s97b2r"	"600"	"1366"	"chrome"	"111.0.0"	"FALSE"	"Windows 10"	"60.1"	"052"	n/a	n/a	n/a	n/a	n/a	n/a	"Trial"	n/a	n/a	n/a	"488"	"arrowright"	n/a	"NULL"	"NULL"	"NULL"	"stimuli/Ebbinghaus_0.87143_-0.2800.png"	n/a	"Ebbinghaus"	"arrowright"	"1281"	"TRUE"	"Ebbinghaus"	"0.8714300000"	"-0.280000000"	"1"	"43"
n/a	"html-keyboard-response"	"103"	"253631"	"0.0-5.0-2.0-0.25"	"s97b2r"	"600"	"1366"	"chrome"	"111.0.0"	"FALSE"	"Windows 10"	"60.1"	"052"	n/a	n/a	n/a	n/a	n/a	n/a	"fixation"	n/a	n/a	n/a	n/a	"NULL"	n/a	"NULL"	"NULL"	"NULL"	"<p style=\"color: black; font-size: 80px; padding-left: 2%; padding-right: 35%; padding-top: 44%; padding-bottom: 14%\">+</p>"	"1029"	n/a	n/a	n/a	n/a	n/a	n/a	n/a	n/a	n/a
n/a	"image-keyboard-response"	"104"	"254180"	"0.0-5.0-2.0-1.25"	"s97b2r"	"600"	"1366"	"chrome"	"111.0.0"	"FALSE"	"Windows 10"	"60.1"	"052"	n/a	n/a	n/a	n/a	n/a	n/a	"Trial"	n/a	n/a	n/a	"548"	"arrowright"	n/a	"NULL"	"NULL"	"NULL"	"stimuli/Ebbinghaus_0.87143_-0.2150.png"	n/a	"Ebbinghaus"	"arrowright"	"1041"	"TRUE"	"Ebbinghaus"	"0.8714300000"	"-0.215000000"	"1"	"44"
n/a	"html-keyboard-response"	"105"	"255501"	"0.0-5.0-2.0-0.26"	"s97b2r"	"600"	"1366"	"chrome"	"111.0.0"	"FALSE"	"Windows 10"	"60.1"	"052"	n/a	n/a	n/a	n/a	n/a	n/a	"fixation"	n/a	n/a	n/a	n/a	"NULL"	n/a	"NULL"	"NULL"	"NULL"	"<p style=\"color: black; font-size: 80px; padding-left: 39%; padding-right: 49%; padding-top: 41%; padding-bottom: 34%\">+</p>"	"1318"	n/a	n/a	n/a	n/a	n/a	n/a	n/a	n/a	n/a
n/a	"image-keyboard-response"	"106"	"256225"	"0.0-5.0-2.0-1.26"	"s97b2r"	"600"	"1366"	"chrome"	"111.0.0"	"FALSE"	"Windows 10"	"60.1"	"052"	n/a	n/a	n/a	n/a	n/a	n/a	"Trial"	n/a	n/a	n/a	"721"	"arrowright"	n/a	"NULL"	"NULL"	"NULL"	"stimuli/Ebbinghaus_-0.1000_-0.15857.png"	n/a	"Ebbinghaus"	"arrowright"	"1321"	"TRUE"	"Ebbinghaus"	"-0.100000000"	"-0.158570000"	"1"	"45"
n/a	"html-keyboard-response"	"107"	"257690"	"0.0-5.0-2.0-0.27"	"s97b2r"	"600"	"1366"	"chrome"	"111.0.0"	"FALSE"	"Windows 10"	"60.1"	"052"	n/a	n/a	n/a	n/a	n/a	n/a	"fixation"	n/a	n/a	n/a	n/a	"NULL"	n/a	"NULL"	"NULL"	"NULL"	"<p style=\"color: black; font-size: 80px; padding-left: 14%; padding-right: 9%; padding-top: 3%; padding-bottom: 20%\">+</p>"	"1462"	n/a	n/a	n/a	n/a	n/a	n/a	n/a	n/a	n/a
n/a	"image-keyboard-response"	"108"	"258174"	"0.0-5.0-2.0-1.27"	"s97b2r"	"600"	"1366"	"chrome"	"111.0.0"	"FALSE"	"Windows 10"	"60.1"	"052"	n/a	n/a	n/a	n/a	n/a	n/a	"Trial"	n/a	n/a	n/a	"483"	"arrowright"	n/a	"NULL"	"NULL"	"NULL"	"stimuli/Ebbinghaus_0.61429_-0.2800.png"	n/a	"Ebbinghaus"	"arrowright"	"1465"	"TRUE"	"Ebbinghaus"	"0.6142900000"	"-0.280000000"	"1"	"46"
n/a	"html-keyboard-response"	"109"	"259250"	"0.0-5.0-2.0-0.28"	"s97b2r"	"600"	"1366"	"chrome"	"111.0.0"	"FALSE"	"Windows 10"	"60.1"	"052"	n/a	n/a	n/a	n/a	n/a	n/a	"fixation"	n/a	n/a	n/a	n/a	"NULL"	n/a	"NULL"	"NULL"	"NULL"	"<p style=\"color: black; font-size: 80px; padding-left: 9%; padding-right: 46%; padding-top: 22%; padding-bottom: 2%\">+</p>"	"1073"	n/a	n/a	n/a	n/a	n/a	n/a	n/a	n/a	n/a
n/a	"image-keyboard-response"	"110"	"259755"	"0.0-5.0-2.0-1.28"	"s97b2r"	"600"	"1366"	"chrome"	"111.0.0"	"FALSE"	"Windows 10"	"60.1"	"052"	n/a	n/a	n/a	n/a	n/a	n/a	"Trial"	n/a	n/a	n/a	"504"	"arrowright"	n/a	"NULL"	"NULL"	"NULL"	"stimuli/Ebbinghaus_-0.1000_-0.2150.png"	n/a	"Ebbinghaus"	"arrowright"	"1076"	"TRUE"	"Ebbinghaus"	"-0.100000000"	"-0.215000000"	"1"	"47"
n/a	"html-keyboard-response"	"111"	"261228"	"0.0-5.0-2.0-0.29"	"s97b2r"	"600"	"1366"	"chrome"	"111.0.0"	"FALSE"	"Windows 10"	"60.1"	"052"	n/a	n/a	n/a	n/a	n/a	n/a	"fixation"	n/a	n/a	n/a	n/a	"NULL"	n/a	"NULL"	"NULL"	"NULL"	"<p style=\"color: black; font-size: 80px; padding-left: 22%; padding-right: 2%; padding-top: 47%; padding-bottom: 31%\">+</p>"	"1470"	n/a	n/a	n/a	n/a	n/a	n/a	n/a	n/a	n/a
n/a	"image-keyboard-response"	"112"	"261759"	"0.0-5.0-2.0-1.29"	"s97b2r"	"600"	"1366"	"chrome"	"111.0.0"	"FALSE"	"Windows 10"	"60.1"	"052"	n/a	n/a	n/a	n/a	n/a	n/a	"Trial"	n/a	n/a	n/a	"531"	"arrowright"	n/a	"NULL"	"NULL"	"NULL"	"stimuli/Ebbinghaus_-0.87143_-0.15857.png"	n/a	"Ebbinghaus"	"arrowright"	"1473"	"TRUE"	"Ebbinghaus"	"-0.871430000"	"-0.158570000"	"1"	"48"
n/a	"html-keyboard-response"	"113"	"263143"	"0.0-5.0-2.0-0.30"	"s97b2r"	"600"	"1366"	"chrome"	"111.0.0"	"FALSE"	"Windows 10"	"60.1"	"052"	n/a	n/a	n/a	n/a	n/a	n/a	"fixation"	n/a	n/a	n/a	n/a	"NULL"	n/a	"NULL"	"NULL"	"NULL"	"<p style=\"color: black; font-size: 80px; padding-left: 46%; padding-right: 14%; padding-top: 26%; padding-bottom: 37%\">+</p>"	"1368"	n/a	n/a	n/a	n/a	n/a	n/a	n/a	n/a	n/a
n/a	"image-keyboard-response"	"114"	"263687"	"0.0-5.0-2.0-1.30"	"s97b2r"	"600"	"1366"	"chrome"	"111.0.0"	"FALSE"	"Windows 10"	"60.1"	"052"	n/a	n/a	n/a	n/a	n/a	n/a	"Trial"	n/a	n/a	n/a	"543"	"arrowleft"	n/a	"NULL"	"NULL"	"NULL"	"stimuli/Ebbinghaus_-0.35714_0.28000.png"	n/a	"Ebbinghaus"	"arrowleft"	"1384"	"TRUE"	"Ebbinghaus"	"-0.357140000"	"0.2800000000"	"1"	"49"
n/a	"html-keyboard-response"	"115"	"264799"	"0.0-5.0-2.0-0.31"	"s97b2r"	"600"	"1366"	"chrome"	"111.0.0"	"FALSE"	"Windows 10"	"60.1"	"052"	n/a	n/a	n/a	n/a	n/a	n/a	"fixation"	n/a	n/a	n/a	n/a	"NULL"	n/a	"NULL"	"NULL"	"NULL"	"<p style=\"color: black; font-size: 80px; padding-left: 8%; padding-right: 0%; padding-top: 49%; padding-bottom: 49%\">+</p>"	"1107"	n/a	n/a	n/a	n/a	n/a	n/a	n/a	n/a	n/a
n/a	"image-keyboard-response"	"116"	"265412"	"0.0-5.0-2.0-1.31"	"s97b2r"	"600"	"1366"	"chrome"	"111.0.0"	"FALSE"	"Windows 10"	"60.1"	"052"	n/a	n/a	n/a	n/a	n/a	n/a	"Trial"	n/a	n/a	n/a	"613"	"arrowleft"	n/a	"NULL"	"NULL"	"NULL"	"stimuli/Ebbinghaus_-0.87143_0.21500.png"	n/a	"Ebbinghaus"	"arrowleft"	"1112"	"TRUE"	"Ebbinghaus"	"-0.871430000"	"0.2150000000"	"1"	"50"
n/a	"html-keyboard-response"	"117"	"266513"	"0.0-5.0-2.0-0.32"	"s97b2r"	"600"	"1366"	"chrome"	"111.0.0"	"FALSE"	"Windows 10"	"60.1"	"052"	n/a	n/a	n/a	n/a	n/a	n/a	"fixation"	n/a	n/a	n/a	n/a	"NULL"	n/a	"NULL"	"NULL"	"NULL"	"<p style=\"color: black; font-size: 80px; padding-left: 18%; padding-right: 27%; padding-top: 27%; padding-bottom: 23%\">+</p>"	"1085"	n/a	n/a	n/a	n/a	n/a	n/a	n/a	n/a	n/a
n/a	"image-keyboard-response"	"118"	"267081"	"0.0-5.0-2.0-1.32"	"s97b2r"	"600"	"1366"	"chrome"	"111.0.0"	"FALSE"	"Windows 10"	"60.1"	"052"	n/a	n/a	n/a	n/a	n/a	n/a	"Trial"	n/a	n/a	n/a	"568"	"arrowright"	n/a	"NULL"	"NULL"	"NULL"	"stimuli/Ebbinghaus_-0.61429_-0.2800.png"	n/a	"Ebbinghaus"	"arrowright"	"1101"	"TRUE"	"Ebbinghaus"	"-0.614290000"	"-0.280000000"	"1"	"51"
n/a	"html-keyboard-response"	"119"	"268395"	"0.0-5.0-2.0-0.33"	"s97b2r"	"600"	"1366"	"chrome"	"111.0.0"	"FALSE"	"Windows 10"	"60.1"	"052"	n/a	n/a	n/a	n/a	n/a	n/a	"fixation"	n/a	n/a	n/a	n/a	"NULL"	n/a	"NULL"	"NULL"	"NULL"	"<p style=\"color: black; font-size: 80px; padding-left: 33%; padding-right: 40%; padding-top: 10%; padding-bottom: 2%\">+</p>"	"1303"	n/a	n/a	n/a	n/a	n/a	n/a	n/a	n/a	n/a
n/a	"image-keyboard-response"	"120"	"269131"	"0.0-5.0-2.0-1.33"	"s97b2r"	"600"	"1366"	"chrome"	"111.0.0"	"FALSE"	"Windows 10"	"60.1"	"052"	n/a	n/a	n/a	n/a	n/a	n/a	"Trial"	n/a	n/a	n/a	"736"	"arrowright"	n/a	"NULL"	"NULL"	"NULL"	"stimuli/Ebbinghaus_-0.35714_-0.15857.png"	n/a	"Ebbinghaus"	"arrowright"	"1314"	"TRUE"	"Ebbinghaus"	"-0.357140000"	"-0.158570000"	"1"	"52"
n/a	"html-keyboard-response"	"121"	"270280"	"0.0-5.0-2.0-0.34"	"s97b2r"	"600"	"1366"	"chrome"	"111.0.0"	"FALSE"	"Windows 10"	"60.1"	"052"	n/a	n/a	n/a	n/a	n/a	n/a	"fixation"	n/a	n/a	n/a	n/a	"NULL"	n/a	"NULL"	"NULL"	"NULL"	"<p style=\"color: black; font-size: 80px; padding-left: 21%; padding-right: 23%; padding-top: 49%; padding-bottom: 37%\">+</p>"	"1136"	n/a	n/a	n/a	n/a	n/a	n/a	n/a	n/a	n/a
n/a	"image-keyboard-response"	"122"	"270779"	"0.0-5.0-2.0-1.34"	"s97b2r"	"600"	"1366"	"chrome"	"111.0.0"	"FALSE"	"Windows 10"	"60.1"	"052"	n/a	n/a	n/a	n/a	n/a	n/a	"Trial"	n/a	n/a	n/a	"498"	"arrowright"	n/a	"NULL"	"NULL"	"NULL"	"stimuli/Ebbinghaus_0.61429_-0.2150.png"	n/a	"Ebbinghaus"	"arrowright"	"1149"	"TRUE"	"Ebbinghaus"	"0.6142900000"	"-0.215000000"	"1"	"53"
n/a	"html-keyboard-response"	"123"	"271847"	"0.0-5.0-2.0-0.35"	"s97b2r"	"600"	"1366"	"chrome"	"111.0.0"	"FALSE"	"Windows 10"	"60.1"	"052"	n/a	n/a	n/a	n/a	n/a	n/a	"fixation"	n/a	n/a	n/a	n/a	"NULL"	n/a	"NULL"	"NULL"	"NULL"	"<p style=\"color: black; font-size: 80px; padding-left: 20%; padding-right: 32%; padding-top: 27%; padding-bottom: 19%\">+</p>"	"1052"	n/a	n/a	n/a	n/a	n/a	n/a	n/a	n/a	n/a
n/a	"image-keyboard-response"	"124"	"272427"	"0.0-5.0-2.0-1.35"	"s97b2r"	"600"	"1366"	"chrome"	"111.0.0"	"FALSE"	"Windows 10"	"60.1"	"052"	n/a	n/a	n/a	n/a	n/a	n/a	"Trial"	n/a	n/a	n/a	"579"	"arrowleft"	n/a	"NULL"	"NULL"	"NULL"	"stimuli/Ebbinghaus_0.61429_0.21500.png"	n/a	"Ebbinghaus"	"arrowleft"	"1068"	"TRUE"	"Ebbinghaus"	"0.6142900000"	"0.2150000000"	"1"	"54"
n/a	"html-keyboard-response"	"125"	"273824"	"0.0-5.0-2.0-0.36"	"s97b2r"	"600"	"1366"	"chrome"	"111.0.0"	"FALSE"	"Windows 10"	"60.1"	"052"	n/a	n/a	n/a	n/a	n/a	n/a	"fixation"	n/a	n/a	n/a	n/a	"NULL"	n/a	"NULL"	"NULL"	"NULL"	"<p style=\"color: black; font-size: 80px; padding-left: 47%; padding-right: 23%; padding-top: 48%; padding-bottom: 15%\">+</p>"	"1387"	n/a	n/a	n/a	n/a	n/a	n/a	n/a	n/a	n/a
n/a	"image-keyboard-response"	"126"	"274582"	"0.0-5.0-2.0-1.36"	"s97b2r"	"600"	"1366"	"chrome"	"111.0.0"	"FALSE"	"Windows 10"	"60.1"	"052"	n/a	n/a	n/a	n/a	n/a	n/a	"Trial"	n/a	n/a	n/a	"757"	"arrowleft"	n/a	"NULL"	"NULL"	"NULL"	"stimuli/Ebbinghaus_0.87143_-0.11071.png"	n/a	"Ebbinghaus"	"arrowright"	"1397"	"FALSE"	"Ebbinghaus"	"0.8714300000"	"-0.110710000"	"1"	"55"
n/a	"html-keyboard-response"	"127"	"276009"	"0.0-5.0-2.0-0.37"	"s97b2r"	"600"	"1366"	"chrome"	"111.0.0"	"FALSE"	"Windows 10"	"60.1"	"052"	n/a	n/a	n/a	n/a	n/a	n/a	"fixation"	n/a	n/a	n/a	n/a	"NULL"	n/a	"NULL"	"NULL"	"NULL"	"<p style=\"color: black; font-size: 80px; padding-left: 2%; padding-right: 37%; padding-top: 38%; padding-bottom: 10%\">+</p>"	"1424"	n/a	n/a	n/a	n/a	n/a	n/a	n/a	n/a	n/a
n/a	"image-keyboard-response"	"128"	"276675"	"0.0-5.0-2.0-1.37"	"s97b2r"	"600"	"1366"	"chrome"	"111.0.0"	"FALSE"	"Windows 10"	"60.1"	"052"	n/a	n/a	n/a	n/a	n/a	n/a	"Trial"	n/a	n/a	n/a	"665"	"arrowleft"	n/a	"NULL"	"NULL"	"NULL"	"stimuli/Ebbinghaus_-0.35714_0.11071.png"	n/a	"Ebbinghaus"	"arrowleft"	"1427"	"TRUE"	"Ebbinghaus"	"-0.357140000"	"0.1107100000"	"1"	"56"
n/a	"html-keyboard-response"	"129"	"277814"	"0.0-5.0-2.0-0.38"	"s97b2r"	"600"	"1366"	"chrome"	"111.0.0"	"FALSE"	"Windows 10"	"60.1"	"052"	n/a	n/a	n/a	n/a	n/a	n/a	"fixation"	n/a	n/a	n/a	n/a	"NULL"	n/a	"NULL"	"NULL"	"NULL"	"<p style=\"color: black; font-size: 80px; padding-left: 29%; padding-right: 40%; padding-top: 48%; padding-bottom: 18%\">+</p>"	"1125"	n/a	n/a	n/a	n/a	n/a	n/a	n/a	n/a	n/a
n/a	"image-keyboard-response"	"130"	"278566"	"0.0-5.0-2.0-1.38"	"s97b2r"	"600"	"1366"	"chrome"	"111.0.0"	"FALSE"	"Windows 10"	"60.1"	"052"	n/a	n/a	n/a	n/a	n/a	n/a	"Trial"	n/a	n/a	n/a	"751"	"arrowleft"	n/a	"NULL"	"NULL"	"NULL"	"stimuli/Ebbinghaus_-0.61429_0.11071.png"	n/a	"Ebbinghaus"	"arrowleft"	"1139"	"TRUE"	"Ebbinghaus"	"-0.614290000"	"0.1107100000"	"1"	"57"
n/a	"html-keyboard-response"	"131"	"279819"	"0.0-5.0-2.0-0.39"	"s97b2r"	"600"	"1366"	"chrome"	"111.0.0"	"FALSE"	"Windows 10"	"60.1"	"052"	n/a	n/a	n/a	n/a	n/a	n/a	"fixation"	n/a	n/a	n/a	n/a	"NULL"	n/a	"NULL"	"NULL"	"NULL"	"<p style=\"color: black; font-size: 80px; padding-left: 20%; padding-right: 8%; padding-top: 30%; padding-bottom: 4%\">+</p>"	"1242"	n/a	n/a	n/a	n/a	n/a	n/a	n/a	n/a	n/a
n/a	"image-keyboard-response"	"132"	"280373"	"0.0-5.0-2.0-1.39"	"s97b2r"	"600"	"1366"	"chrome"	"111.0.0"	"FALSE"	"Windows 10"	"60.1"	"052"	n/a	n/a	n/a	n/a	n/a	n/a	"Trial"	n/a	n/a	n/a	"553"	"arrowleft"	n/a	"NULL"	"NULL"	"NULL"	"stimuli/Ebbinghaus_-0.61429_0.21500.png"	n/a	"Ebbinghaus"	"arrowleft"	"1253"	"TRUE"	"Ebbinghaus"	"-0.614290000"	"0.2150000000"	"1"	"58"
n/a	"html-keyboard-response"	"133"	"281714"	"0.0-5.0-2.0-0.40"	"s97b2r"	"600"	"1366"	"chrome"	"111.0.0"	"FALSE"	"Windows 10"	"60.1"	"052"	n/a	n/a	n/a	n/a	n/a	n/a	"fixation"	n/a	n/a	n/a	n/a	"NULL"	n/a	"NULL"	"NULL"	"NULL"	"<p style=\"color: black; font-size: 80px; padding-left: 22%; padding-right: 39%; padding-top: 5%; padding-bottom: 29%\">+</p>"	"1337"	n/a	n/a	n/a	n/a	n/a	n/a	n/a	n/a	n/a
n/a	"image-keyboard-response"	"134"	"282373"	"0.0-5.0-2.0-1.40"	"s97b2r"	"600"	"1366"	"chrome"	"111.0.0"	"FALSE"	"Windows 10"	"60.1"	"052"	n/a	n/a	n/a	n/a	n/a	n/a	"Trial"	n/a	n/a	n/a	"659"	"arrowright"	n/a	"NULL"	"NULL"	"NULL"	"stimuli/Ebbinghaus_-0.61429_-0.2150.png"	n/a	"Ebbinghaus"	"arrowright"	"1341"	"TRUE"	"Ebbinghaus"	"-0.614290000"	"-0.215000000"	"1"	"59"
n/a	"html-keyboard-response"	"135"	"283814"	"0.0-5.0-2.0-0.41"	"s97b2r"	"600"	"1366"	"chrome"	"111.0.0"	"FALSE"	"Windows 10"	"60.1"	"052"	n/a	n/a	n/a	n/a	n/a	n/a	"fixation"	n/a	n/a	n/a	n/a	"NULL"	n/a	"NULL"	"NULL"	"NULL"	"<p style=\"color: black; font-size: 80px; padding-left: 27%; padding-right: 32%; padding-top: 10%; padding-bottom: 23%\">+</p>"	"1425"	n/a	n/a	n/a	n/a	n/a	n/a	n/a	n/a	n/a
n/a	"image-keyboard-response"	"136"	"284334"	"0.0-5.0-2.0-1.41"	"s97b2r"	"600"	"1366"	"chrome"	"111.0.0"	"FALSE"	"Windows 10"	"60.1"	"052"	n/a	n/a	n/a	n/a	n/a	n/a	"Trial"	n/a	n/a	n/a	"519"	"arrowright"	n/a	"NULL"	"NULL"	"NULL"	"stimuli/Ebbinghaus_-0.1000_-0.2800.png"	n/a	"Ebbinghaus"	"arrowright"	"1441"	"TRUE"	"Ebbinghaus"	"-0.100000000"	"-0.280000000"	"1"	"60"
n/a	"html-keyboard-response"	"137"	"285371"	"0.0-5.0-2.0-0.42"	"s97b2r"	"600"	"1366"	"chrome"	"111.0.0"	"FALSE"	"Windows 10"	"60.1"	"052"	n/a	n/a	n/a	n/a	n/a	n/a	"fixation"	n/a	n/a	n/a	n/a	"NULL"	n/a	"NULL"	"NULL"	"NULL"	"<p style=\"color: black; font-size: 80px; padding-left: 6%; padding-right: 40%; padding-top: 29%; padding-bottom: 2%\">+</p>"	"1035"	n/a	n/a	n/a	n/a	n/a	n/a	n/a	n/a	n/a
n/a	"image-keyboard-response"	"138"	"285979"	"0.0-5.0-2.0-1.42"	"s97b2r"	"600"	"1366"	"chrome"	"111.0.0"	"FALSE"	"Windows 10"	"60.1"	"052"	n/a	n/a	n/a	n/a	n/a	n/a	"Trial"	n/a	n/a	n/a	"607"	"arrowright"	n/a	"NULL"	"NULL"	"NULL"	"stimuli/Ebbinghaus_-0.35714_-0.11071.png"	n/a	"Ebbinghaus"	"arrowright"	"1037"	"TRUE"	"Ebbinghaus"	"-0.357140000"	"-0.110710000"	"1"	"61"
n/a	"html-keyboard-response"	"139"	"287137"	"0.0-5.0-2.0-0.43"	"s97b2r"	"600"	"1366"	"chrome"	"111.0.0"	"FALSE"	"Windows 10"	"60.1"	"052"	n/a	n/a	n/a	n/a	n/a	n/a	"fixation"	n/a	n/a	n/a	n/a	"NULL"	n/a	"NULL"	"NULL"	"NULL"	"<p style=\"color: black; font-size: 80px; padding-left: 35%; padding-right: 34%; padding-top: 44%; padding-bottom: 27%\">+</p>"	"1143"	n/a	n/a	n/a	n/a	n/a	n/a	n/a	n/a	n/a
n/a	"image-keyboard-response"	"140"	"287777"	"0.0-5.0-2.0-1.43"	"s97b2r"	"600"	"1366"	"chrome"	"111.0.0"	"FALSE"	"Windows 10"	"60.1"	"052"	n/a	n/a	n/a	n/a	n/a	n/a	"Trial"	n/a	n/a	n/a	"639"	"arrowleft"	n/a	"NULL"	"NULL"	"NULL"	"stimuli/Ebbinghaus_0.87143_0.15857.png"	n/a	"Ebbinghaus"	"arrowleft"	"1158"	"TRUE"	"Ebbinghaus"	"0.8714300000"	"0.1585700000"	"1"	"62"
n/a	"html-keyboard-response"	"141"	"289069"	"0.0-5.0-2.0-0.44"	"s97b2r"	"600"	"1366"	"chrome"	"111.0.0"	"FALSE"	"Windows 10"	"60.1"	"052"	n/a	n/a	n/a	n/a	n/a	n/a	"fixation"	n/a	n/a	n/a	n/a	"NULL"	n/a	"NULL"	"NULL"	"NULL"	"<p style=\"color: black; font-size: 80px; padding-left: 20%; padding-right: 6%; padding-top: 43%; padding-bottom: 24%\">+</p>"	"1276"	n/a	n/a	n/a	n/a	n/a	n/a	n/a	n/a	n/a
n/a	"image-keyboard-response"	"142"	"289823"	"0.0-5.0-2.0-1.44"	"s97b2r"	"600"	"1366"	"chrome"	"111.0.0"	"FALSE"	"Windows 10"	"60.1"	"052"	n/a	n/a	n/a	n/a	n/a	n/a	"Trial"	n/a	n/a	n/a	"754"	"arrowright"	n/a	"NULL"	"NULL"	"NULL"	"stimuli/Ebbinghaus_-0.1000_-0.11071.png"	n/a	"Ebbinghaus"	"arrowright"	"1292"	"TRUE"	"Ebbinghaus"	"-0.100000000"	"-0.110710000"	"1"	"63"
n/a	"html-keyboard-response"	"143"	"290882"	"0.0-5.0-2.0-0.45"	"s97b2r"	"600"	"1366"	"chrome"	"111.0.0"	"FALSE"	"Windows 10"	"60.1"	"052"	n/a	n/a	n/a	n/a	n/a	n/a	"fixation"	n/a	n/a	n/a	n/a	"NULL"	n/a	"NULL"	"NULL"	"NULL"	"<p style=\"color: black; font-size: 80px; padding-left: 15%; padding-right: 36%; padding-top: 23%; padding-bottom: 48%\">+</p>"	"1054"	n/a	n/a	n/a	n/a	n/a	n/a	n/a	n/a	n/a
n/a	"image-keyboard-response"	"144"	"291588"	"0.0-5.0-2.0-1.45"	"s97b2r"	"600"	"1366"	"chrome"	"111.0.0"	"FALSE"	"Windows 10"	"60.1"	"052"	n/a	n/a	n/a	n/a	n/a	n/a	"Trial"	n/a	n/a	n/a	"705"	"arrowright"	n/a	"NULL"	"NULL"	"NULL"	"stimuli/Ebbinghaus_0.35714_-0.2150.png"	n/a	"Ebbinghaus"	"arrowright"	"1059"	"TRUE"	"Ebbinghaus"	"0.3571400000"	"-0.215000000"	"1"	"64"
n/a	"html-keyboard-response"	"145"	"293015"	"0.0-5.0-2.0-0.46"	"s97b2r"	"600"	"1366"	"chrome"	"111.0.0"	"FALSE"	"Windows 10"	"60.1"	"052"	n/a	n/a	n/a	n/a	n/a	n/a	"fixation"	n/a	n/a	n/a	n/a	"NULL"	n/a	"NULL"	"NULL"	"NULL"	"<p style=\"color: black; font-size: 80px; padding-left: 35%; padding-right: 48%; padding-top: 40%; padding-bottom: 37%\">+</p>"	"1411"	n/a	n/a	n/a	n/a	n/a	n/a	n/a	n/a	n/a
n/a	"image-keyboard-response"	"146"	"293616"	"0.0-5.0-2.0-1.46"	"s97b2r"	"600"	"1366"	"chrome"	"111.0.0"	"FALSE"	"Windows 10"	"60.1"	"052"	n/a	n/a	n/a	n/a	n/a	n/a	"Trial"	n/a	n/a	n/a	"601"	"arrowleft"	n/a	"NULL"	"NULL"	"NULL"	"stimuli/Ebbinghaus_0.10000_0.11071.png"	n/a	"Ebbinghaus"	"arrowleft"	"1427"	"TRUE"	"Ebbinghaus"	"0.1000000000"	"0.1107100000"	"1"	"65"
n/a	"html-keyboard-response"	"147"	"294724"	"0.0-5.0-2.0-0.47"	"s97b2r"	"600"	"1366"	"chrome"	"111.0.0"	"FALSE"	"Windows 10"	"60.1"	"052"	n/a	n/a	n/a	n/a	n/a	n/a	"fixation"	n/a	n/a	n/a	n/a	"NULL"	n/a	"NULL"	"NULL"	"NULL"	"<p style=\"color: black; font-size: 80px; padding-left: 29%; padding-right: 50%; padding-top: 7%; padding-bottom: 9%\">+</p>"	"1100"	n/a	n/a	n/a	n/a	n/a	n/a	n/a	n/a	n/a
n/a	"image-keyboard-response"	"148"	"295283"	"0.0-5.0-2.0-1.47"	"s97b2r"	"600"	"1366"	"chrome"	"111.0.0"	"FALSE"	"Windows 10"	"60.1"	"052"	n/a	n/a	n/a	n/a	n/a	n/a	"Trial"	n/a	n/a	n/a	"558"	"arrowleft"	n/a	"NULL"	"NULL"	"NULL"	"stimuli/Ebbinghaus_0.61429_0.28000.png"	n/a	"Ebbinghaus"	"arrowleft"	"1108"	"TRUE"	"Ebbinghaus"	"0.6142900000"	"0.2800000000"	"1"	"66"
n/a	"html-keyboard-response"	"149"	"296494"	"0.0-5.0-2.0-0.48"	"s97b2r"	"600"	"1366"	"chrome"	"111.0.0"	"FALSE"	"Windows 10"	"60.1"	"052"	n/a	n/a	n/a	n/a	n/a	n/a	"fixation"	n/a	n/a	n/a	n/a	"NULL"	n/a	"NULL"	"NULL"	"NULL"	"<p style=\"color: black; font-size: 80px; padding-left: 39%; padding-right: 10%; padding-top: 15%; padding-bottom: 14%\">+</p>"	"1209"	n/a	n/a	n/a	n/a	n/a	n/a	n/a	n/a	n/a
n/a	"image-keyboard-response"	"150"	"296977"	"0.0-5.0-2.0-1.48"	"s97b2r"	"600"	"1366"	"chrome"	"111.0.0"	"FALSE"	"Windows 10"	"60.1"	"052"	n/a	n/a	n/a	n/a	n/a	n/a	"Trial"	n/a	n/a	n/a	"479"	"arrowleft"	n/a	"NULL"	"NULL"	"NULL"	"stimuli/Ebbinghaus_-0.1000_0.28000.png"	n/a	"Ebbinghaus"	"arrowleft"	"1211"	"TRUE"	"Ebbinghaus"	"-0.100000000"	"0.2800000000"	"1"	"67"
n/a	"html-keyboard-response"	"151"	"298152"	"0.0-5.0-2.0-0.49"	"s97b2r"	"600"	"1366"	"chrome"	"111.0.0"	"FALSE"	"Windows 10"	"60.1"	"052"	n/a	n/a	n/a	n/a	n/a	n/a	"fixation"	n/a	n/a	n/a	n/a	"NULL"	n/a	"NULL"	"NULL"	"NULL"	"<p style=\"color: black; font-size: 80px; padding-left: 36%; padding-right: 15%; padding-top: 6%; padding-bottom: 32%\">+</p>"	"1173"	n/a	n/a	n/a	n/a	n/a	n/a	n/a	n/a	n/a
n/a	"image-keyboard-response"	"152"	"299128"	"0.0-5.0-2.0-1.49"	"s97b2r"	"600"	"1366"	"chrome"	"111.0.0"	"FALSE"	"Windows 10"	"60.1"	"052"	n/a	n/a	n/a	n/a	n/a	n/a	"Trial"	n/a	n/a	n/a	"975"	"arrowleft"	n/a	"NULL"	"NULL"	"NULL"	"stimuli/Ebbinghaus_-0.61429_0.15857.png"	n/a	"Ebbinghaus"	"arrowleft"	"1175"	"TRUE"	"Ebbinghaus"	"-0.614290000"	"0.1585700000"	"1"	"68"
n/a	"html-keyboard-response"	"153"	"300273"	"0.0-5.0-2.0-0.50"	"s97b2r"	"600"	"1366"	"chrome"	"111.0.0"	"FALSE"	"Windows 10"	"60.1"	"052"	n/a	n/a	n/a	n/a	n/a	n/a	"fixation"	n/a	n/a	n/a	n/a	"NULL"	n/a	"NULL"	"NULL"	"NULL"	"<p style=\"color: black; font-size: 80px; padding-left: 9%; padding-right: 44%; padding-top: 25%; padding-bottom: 20%\">+</p>"	"1140"	n/a	n/a	n/a	n/a	n/a	n/a	n/a	n/a	n/a
n/a	"image-keyboard-response"	"154"	"300845"	"0.0-5.0-2.0-1.50"	"s97b2r"	"600"	"1366"	"chrome"	"111.0.0"	"FALSE"	"Windows 10"	"60.1"	"052"	n/a	n/a	n/a	n/a	n/a	n/a	"Trial"	n/a	n/a	n/a	"571"	"arrowright"	n/a	"NULL"	"NULL"	"NULL"	"stimuli/Ebbinghaus_0.87143_-0.15857.png"	n/a	"Ebbinghaus"	"arrowright"	"1145"	"TRUE"	"Ebbinghaus"	"0.8714300000"	"-0.158570000"	"1"	"69"
n/a	"html-keyboard-response"	"155"	"302288"	"0.0-5.0-2.0-0.51"	"s97b2r"	"600"	"1366"	"chrome"	"111.0.0"	"FALSE"	"Windows 10"	"60.1"	"052"	n/a	n/a	n/a	n/a	n/a	n/a	"fixation"	n/a	n/a	n/a	n/a	"NULL"	n/a	"NULL"	"NULL"	"NULL"	"<p style=\"color: black; font-size: 80px; padding-left: 5%; padding-right: 6%; padding-top: 44%; padding-bottom: 19%\">+</p>"	"1440"	n/a	n/a	n/a	n/a	n/a	n/a	n/a	n/a	n/a
n/a	"image-keyboard-response"	"156"	"302858"	"0.0-5.0-2.0-1.51"	"s97b2r"	"600"	"1366"	"chrome"	"111.0.0"	"FALSE"	"Windows 10"	"60.1"	"052"	n/a	n/a	n/a	n/a	n/a	n/a	"Trial"	n/a	n/a	n/a	"569"	"arrowleft"	n/a	"NULL"	"NULL"	"NULL"	"stimuli/Ebbinghaus_-0.35714_0.15857.png"	n/a	"Ebbinghaus"	"arrowleft"	"1443"	"TRUE"	"Ebbinghaus"	"-0.357140000"	"0.1585700000"	"1"	"70"
n/a	"html-keyboard-response"	"157"	"304289"	"0.0-5.0-2.0-0.52"	"s97b2r"	"600"	"1366"	"chrome"	"111.0.0"	"FALSE"	"Windows 10"	"60.1"	"052"	n/a	n/a	n/a	n/a	n/a	n/a	"fixation"	n/a	n/a	n/a	n/a	"NULL"	n/a	"NULL"	"NULL"	"NULL"	"<p style=\"color: black; font-size: 80px; padding-left: 46%; padding-right: 45%; padding-top: 38%; padding-bottom: 8%\">+</p>"	"1423"	n/a	n/a	n/a	n/a	n/a	n/a	n/a	n/a	n/a
n/a	"image-keyboard-response"	"158"	"304776"	"0.0-5.0-2.0-1.52"	"s97b2r"	"600"	"1366"	"chrome"	"111.0.0"	"FALSE"	"Windows 10"	"60.1"	"052"	n/a	n/a	n/a	n/a	n/a	n/a	"Trial"	n/a	n/a	n/a	"485"	"arrowright"	n/a	"NULL"	"NULL"	"NULL"	"stimuli/Ebbinghaus_0.35714_-0.2800.png"	n/a	"Ebbinghaus"	"arrowright"	"1431"	"TRUE"	"Ebbinghaus"	"0.3571400000"	"-0.280000000"	"1"	"71"
n/a	"html-keyboard-response"	"159"	"306124"	"0.0-5.0-2.0-0.53"	"s97b2r"	"600"	"1366"	"chrome"	"111.0.0"	"FALSE"	"Windows 10"	"60.1"	"052"	n/a	n/a	n/a	n/a	n/a	n/a	"fixation"	n/a	n/a	n/a	n/a	"NULL"	n/a	"NULL"	"NULL"	"NULL"	"<p style=\"color: black; font-size: 80px; padding-left: 18%; padding-right: 8%; padding-top: 16%; padding-bottom: 42%\">+</p>"	"1344"	n/a	n/a	n/a	n/a	n/a	n/a	n/a	n/a	n/a
n/a	"image-keyboard-response"	"160"	"306799"	"0.0-5.0-2.0-1.53"	"s97b2r"	"600"	"1366"	"chrome"	"111.0.0"	"FALSE"	"Windows 10"	"60.1"	"052"	n/a	n/a	n/a	n/a	n/a	n/a	"Trial"	n/a	n/a	n/a	"674"	"arrowright"	n/a	"NULL"	"NULL"	"NULL"	"stimuli/Ebbinghaus_0.35714_0.11071.png"	n/a	"Ebbinghaus"	"arrowleft"	"1348"	"FALSE"	"Ebbinghaus"	"0.3571400000"	"0.1107100000"	"1"	"72"
n/a	"html-keyboard-response"	"161"	"308128"	"0.0-5.0-2.0-0.54"	"s97b2r"	"600"	"1366"	"chrome"	"111.0.0"	"FALSE"	"Windows 10"	"60.1"	"052"	n/a	n/a	n/a	n/a	n/a	n/a	"fixation"	n/a	n/a	n/a	n/a	"NULL"	n/a	"NULL"	"NULL"	"NULL"	"<p style=\"color: black; font-size: 80px; padding-left: 19%; padding-right: 38%; padding-top: 47%; padding-bottom: 36%\">+</p>"	"1312"	n/a	n/a	n/a	n/a	n/a	n/a	n/a	n/a	n/a
n/a	"image-keyboard-response"	"162"	"308749"	"0.0-5.0-2.0-1.54"	"s97b2r"	"600"	"1366"	"chrome"	"111.0.0"	"FALSE"	"Windows 10"	"60.1"	"052"	n/a	n/a	n/a	n/a	n/a	n/a	"Trial"	n/a	n/a	n/a	"621"	"arrowleft"	n/a	"NULL"	"NULL"	"NULL"	"stimuli/Ebbinghaus_-0.87143_0.15857.png"	n/a	"Ebbinghaus"	"arrowleft"	"1329"	"TRUE"	"Ebbinghaus"	"-0.871430000"	"0.1585700000"	"1"	"73"
n/a	"html-keyboard-response"	"163"	"310259"	"0.0-5.0-2.0-0.55"	"s97b2r"	"600"	"1366"	"chrome"	"111.0.0"	"FALSE"	"Windows 10"	"60.1"	"052"	n/a	n/a	n/a	n/a	n/a	n/a	"fixation"	n/a	n/a	n/a	n/a	"NULL"	n/a	"NULL"	"NULL"	"NULL"	"<p style=\"color: black; font-size: 80px; padding-left: 39%; padding-right: 35%; padding-top: 30%; padding-bottom: 32%\">+</p>"	"1499"	n/a	n/a	n/a	n/a	n/a	n/a	n/a	n/a	n/a
n/a	"image-keyboard-response"	"164"	"310764"	"0.0-5.0-2.0-1.55"	"s97b2r"	"600"	"1366"	"chrome"	"111.0.0"	"FALSE"	"Windows 10"	"60.1"	"052"	n/a	n/a	n/a	n/a	n/a	n/a	"Trial"	n/a	n/a	n/a	"504"	"arrowright"	n/a	"NULL"	"NULL"	"NULL"	"stimuli/Ebbinghaus_0.35714_-0.15857.png"	n/a	"Ebbinghaus"	"arrowright"	"1510"	"TRUE"	"Ebbinghaus"	"0.3571400000"	"-0.158570000"	"1"	"74"
n/a	"html-keyboard-response"	"165"	"312264"	"0.0-5.0-2.0-0.56"	"s97b2r"	"600"	"1366"	"chrome"	"111.0.0"	"FALSE"	"Windows 10"	"60.1"	"052"	n/a	n/a	n/a	n/a	n/a	n/a	"fixation"	n/a	n/a	n/a	n/a	"NULL"	n/a	"NULL"	"NULL"	"NULL"	"<p style=\"color: black; font-size: 80px; padding-left: 9%; padding-right: 6%; padding-top: 36%; padding-bottom: 13%\">+</p>"	"1489"	n/a	n/a	n/a	n/a	n/a	n/a	n/a	n/a	n/a
n/a	"image-keyboard-response"	"166"	"312994"	"0.0-5.0-2.0-1.56"	"s97b2r"	"600"	"1366"	"chrome"	"111.0.0"	"FALSE"	"Windows 10"	"60.1"	"052"	n/a	n/a	n/a	n/a	n/a	n/a	"Trial"	n/a	n/a	n/a	"729"	"arrowright"	n/a	"NULL"	"NULL"	"NULL"	"stimuli/Ebbinghaus_0.87143_0.11071.png"	n/a	"Ebbinghaus"	"arrowleft"	"1500"	"FALSE"	"Ebbinghaus"	"0.8714300000"	"0.1107100000"	"1"	"75"
n/a	"html-keyboard-response"	"167"	"314111"	"0.0-5.0-2.0-0.57"	"s97b2r"	"600"	"1366"	"chrome"	"111.0.0"	"FALSE"	"Windows 10"	"60.1"	"052"	n/a	n/a	n/a	n/a	n/a	n/a	"fixation"	n/a	n/a	n/a	n/a	"NULL"	n/a	"NULL"	"NULL"	"NULL"	"<p style=\"color: black; font-size: 80px; padding-left: 34%; padding-right: 45%; padding-top: 41%; padding-bottom: 13%\">+</p>"	"1110"	n/a	n/a	n/a	n/a	n/a	n/a	n/a	n/a	n/a
n/a	"image-keyboard-response"	"168"	"314660"	"0.0-5.0-2.0-1.57"	"s97b2r"	"600"	"1366"	"chrome"	"111.0.0"	"FALSE"	"Windows 10"	"60.1"	"052"	n/a	n/a	n/a	n/a	n/a	n/a	"Trial"	n/a	n/a	n/a	"549"	"arrowleft"	n/a	"NULL"	"NULL"	"NULL"	"stimuli/Ebbinghaus_-0.35714_0.21500.png"	n/a	"Ebbinghaus"	"arrowleft"	"1117"	"TRUE"	"Ebbinghaus"	"-0.357140000"	"0.2150000000"	"1"	"76"
n/a	"html-keyboard-response"	"169"	"315769"	"0.0-5.0-2.0-0.58"	"s97b2r"	"600"	"1366"	"chrome"	"111.0.0"	"FALSE"	"Windows 10"	"60.1"	"052"	n/a	n/a	n/a	n/a	n/a	n/a	"fixation"	n/a	n/a	n/a	n/a	"NULL"	n/a	"NULL"	"NULL"	"NULL"	"<p style=\"color: black; font-size: 80px; padding-left: 10%; padding-right: 8%; padding-top: 41%; padding-bottom: 19%\">+</p>"	"1093"	n/a	n/a	n/a	n/a	n/a	n/a	n/a	n/a	n/a
n/a	"image-keyboard-response"	"170"	"316304"	"0.0-5.0-2.0-1.58"	"s97b2r"	"600"	"1366"	"chrome"	"111.0.0"	"FALSE"	"Windows 10"	"60.1"	"052"	n/a	n/a	n/a	n/a	n/a	n/a	"Trial"	n/a	n/a	n/a	"534"	"arrowleft"	n/a	"NULL"	"NULL"	"NULL"	"stimuli/Ebbinghaus_0.35714_0.28000.png"	n/a	"Ebbinghaus"	"arrowleft"	"1109"	"TRUE"	"Ebbinghaus"	"0.3571400000"	"0.2800000000"	"1"	"77"
n/a	"html-keyboard-response"	"171"	"317659"	"0.0-5.0-2.0-0.59"	"s97b2r"	"600"	"1366"	"chrome"	"111.0.0"	"FALSE"	"Windows 10"	"60.1"	"052"	n/a	n/a	n/a	n/a	n/a	n/a	"fixation"	n/a	n/a	n/a	n/a	"NULL"	n/a	"NULL"	"NULL"	"NULL"	"<p style=\"color: black; font-size: 80px; padding-left: 2%; padding-right: 33%; padding-top: 35%; padding-bottom: 25%\">+</p>"	"1349"	n/a	n/a	n/a	n/a	n/a	n/a	n/a	n/a	n/a
n/a	"image-keyboard-response"	"172"	"318139"	"0.0-5.0-2.0-1.59"	"s97b2r"	"600"	"1366"	"chrome"	"111.0.0"	"FALSE"	"Windows 10"	"60.1"	"052"	n/a	n/a	n/a	n/a	n/a	n/a	"Trial"	n/a	n/a	n/a	"480"	"arrowleft"	n/a	"NULL"	"NULL"	"NULL"	"stimuli/Ebbinghaus_-0.87143_0.28000.png"	n/a	"Ebbinghaus"	"arrowleft"	"1355"	"TRUE"	"Ebbinghaus"	"-0.871430000"	"0.2800000000"	"1"	"78"
n/a	"html-keyboard-response"	"173"	"319367"	"0.0-5.0-2.0-0.60"	"s97b2r"	"600"	"1366"	"chrome"	"111.0.0"	"FALSE"	"Windows 10"	"60.1"	"052"	n/a	n/a	n/a	n/a	n/a	n/a	"fixation"	n/a	n/a	n/a	n/a	"NULL"	n/a	"NULL"	"NULL"	"NULL"	"<p style=\"color: black; font-size: 80px; padding-left: 43%; padding-right: 23%; padding-top: 40%; padding-bottom: 7%\">+</p>"	"1217"	n/a	n/a	n/a	n/a	n/a	n/a	n/a	n/a	n/a
n/a	"image-keyboard-response"	"174"	"320012"	"0.0-5.0-2.0-1.60"	"s97b2r"	"600"	"1366"	"chrome"	"111.0.0"	"FALSE"	"Windows 10"	"60.1"	"052"	n/a	n/a	n/a	n/a	n/a	n/a	"Trial"	n/a	n/a	n/a	"645"	"arrowleft"	n/a	"NULL"	"NULL"	"NULL"	"stimuli/Ebbinghaus_0.10000_0.21500.png"	n/a	"Ebbinghaus"	"arrowleft"	"1228"	"TRUE"	"Ebbinghaus"	"0.1000000000"	"0.2150000000"	"1"	"79"
n/a	"html-keyboard-response"	"175"	"321195"	"0.0-5.0-2.0-0.61"	"s97b2r"	"600"	"1366"	"chrome"	"111.0.0"	"FALSE"	"Windows 10"	"60.1"	"052"	n/a	n/a	n/a	n/a	n/a	n/a	"fixation"	n/a	n/a	n/a	n/a	"NULL"	n/a	"NULL"	"NULL"	"NULL"	"<p style=\"color: black; font-size: 80px; padding-left: 23%; padding-right: 42%; padding-top: 23%; padding-bottom: 24%\">+</p>"	"1168"	n/a	n/a	n/a	n/a	n/a	n/a	n/a	n/a	n/a
n/a	"image-keyboard-response"	"176"	"321792"	"0.0-5.0-2.0-1.61"	"s97b2r"	"600"	"1366"	"chrome"	"111.0.0"	"FALSE"	"Windows 10"	"60.1"	"052"	n/a	n/a	n/a	n/a	n/a	n/a	"Trial"	n/a	n/a	n/a	"596"	"arrowleft"	n/a	"NULL"	"NULL"	"NULL"	"stimuli/Ebbinghaus_0.87143_0.28000.png"	n/a	"Ebbinghaus"	"arrowleft"	"1183"	"TRUE"	"Ebbinghaus"	"0.8714300000"	"0.2800000000"	"1"	"80"
n/a	"html-keyboard-response"	"177"	"323096"	"0.0-5.0-2.0-0.62"	"s97b2r"	"600"	"1366"	"chrome"	"111.0.0"	"FALSE"	"Windows 10"	"60.1"	"052"	n/a	n/a	n/a	n/a	n/a	n/a	"fixation"	n/a	n/a	n/a	n/a	"NULL"	n/a	"NULL"	"NULL"	"NULL"	"<p style=\"color: black; font-size: 80px; padding-left: 39%; padding-right: 50%; padding-top: 7%; padding-bottom: 36%\">+</p>"	"1302"	n/a	n/a	n/a	n/a	n/a	n/a	n/a	n/a	n/a
n/a	"image-keyboard-response"	"178"	"323879"	"0.0-5.0-2.0-1.62"	"s97b2r"	"600"	"1366"	"chrome"	"111.0.0"	"FALSE"	"Windows 10"	"60.1"	"052"	n/a	n/a	n/a	n/a	n/a	n/a	"Trial"	n/a	n/a	n/a	"782"	"arrowleft"	n/a	"NULL"	"NULL"	"NULL"	"stimuli/Ebbinghaus_0.10000_0.28000.png"	n/a	"Ebbinghaus"	"arrowleft"	"1304"	"TRUE"	"Ebbinghaus"	"0.1000000000"	"0.2800000000"	"1"	"81"
n/a	"html-keyboard-response"	"179"	"325361"	"0.0-5.0-2.0-0.63"	"s97b2r"	"600"	"1366"	"chrome"	"111.0.0"	"FALSE"	"Windows 10"	"60.1"	"052"	n/a	n/a	n/a	n/a	n/a	n/a	"fixation"	n/a	n/a	n/a	n/a	"NULL"	n/a	"NULL"	"NULL"	"NULL"	"<p style=\"color: black; font-size: 80px; padding-left: 37%; padding-right: 22%; padding-top: 2%; padding-bottom: 41%\">+</p>"	"1480"	n/a	n/a	n/a	n/a	n/a	n/a	n/a	n/a	n/a
n/a	"image-keyboard-response"	"180"	"326127"	"0.0-5.0-2.0-1.63"	"s97b2r"	"600"	"1366"	"chrome"	"111.0.0"	"FALSE"	"Windows 10"	"60.1"	"052"	n/a	n/a	n/a	n/a	n/a	n/a	"Trial"	n/a	n/a	n/a	"765"	"arrowleft"	n/a	"NULL"	"NULL"	"NULL"	"stimuli/Ebbinghaus_-0.1000_0.15857.png"	n/a	"Ebbinghaus"	"arrowleft"	"1482"	"TRUE"	"Ebbinghaus"	"-0.100000000"	"0.1585700000"	"1"	"82"
n/a	"html-button-response"	"181"	"331025"	"0.0-5.0-3.0"	"s97b2r"	"600"	"1366"	"chrome"	"111.0.0"	"FALSE"	"Windows 10"	"60.1"	"052"	n/a	n/a	n/a	n/a	n/a	n/a	"block_results"	n/a	n/a	n/a	"4895"	"0"	n/a	"NULL"	"NULL"	"NULL"	"<p>Your score for this illusion is <p style=\"color: black; font-size: 48px; font-weight: bold;\">82.8 %</p><hr><p>Can you do better in the next illusion?</p>"	n/a	n/a	n/a	n/a	n/a	n/a	n/a	n/a	n/a	n/a
"TRUE"	"preload"	"182"	"331162"	"0.0-6.0-0.0"	"s97b2r"	"600"	"1366"	"chrome"	"111.0.0"	"FALSE"	"Windows 10"	"60.1"	"052"	n/a	n/a	n/a	n/a	n/a	n/a	n/a	n/a	n/a	n/a	n/a	"NULL"	"FALSE"	"list()"	"list()"	"list()"	n/a	n/a	n/a	n/a	n/a	n/a	n/a	n/a	n/a	n/a	n/a
n/a	"html-keyboard-response"	"183"	"336291"	"0.0-6.0-1.0"	"s97b2r"	"600"	"1366"	"chrome"	"111.0.0"	"FALSE"	"Windows 10"	"60.1"	"052"	n/a	n/a	n/a	n/a	n/a	n/a	n/a	n/a	n/a	n/a	"5127"	"enter"	n/a	"NULL"	"NULL"	"NULL"	"<p><b>Part 2/6</b></p><p>In this part, two red lines will appear side by side.</p><p>Your task is to tell <b>which line is longer</b> in length, regardless of their orientation, as fast as you can, and without making errors.</p><p>Don't get distracted by the orientation of the lines!</p><p>Press <b>the LEFT or the RIGHT arrow</b> to indicate which <b>line is the longer one.</b></p><div style='float: center'><img src='materials/instructions/VerticalHorizontal_Demo.png' height='300'></img><p><img src='utils/answer/answer_leftright_keyboard.PNG' height='150'></img></p><p class='small'>In this example, the correct answer is the <b>LEFT arrow</b>.</p></div><p>Are you ready? <b>Press ENTER to start</b></p>"	n/a	n/a	n/a	n/a	n/a	n/a	n/a	n/a	n/a	n/a
n/a	"html-keyboard-response"	"184"	"338005"	"0.0-6.0-2.0-0.0"	"s97b2r"	"600"	"1366"	"chrome"	"111.0.0"	"FALSE"	"Windows 10"	"60.1"	"052"	n/a	n/a	n/a	n/a	n/a	n/a	"fixation"	n/a	n/a	n/a	n/a	"NULL"	n/a	"NULL"	"NULL"	"NULL"	"<p style=\"color: black; font-size: 80px; padding-left: 33%; padding-right: 6%; padding-top: 24%; padding-bottom: 3%\">+</p>"	"1203"	n/a	n/a	n/a	n/a	n/a	n/a	n/a	n/a	n/a
n/a	"image-keyboard-response"	"185"	"338624"	"0.0-6.0-2.0-1.0"	"s97b2r"	"600"	"1366"	"chrome"	"111.0.0"	"FALSE"	"Windows 10"	"60.1"	"052"	n/a	n/a	n/a	n/a	n/a	n/a	"Trial"	n/a	n/a	n/a	"618"	"arrowleft"	n/a	"NULL"	"NULL"	"NULL"	"stimuli/VerticalHorizontal_-11.78571_0.22500.png"	n/a	"VerticalHorizontal"	"arrowleft"	"1714"	"TRUE"	"VerticalHorizontal"	"-11.78571000"	"0.2250000000"	"2"	"1"
n/a	"html-keyboard-response"	"186"	"340001"	"0.0-6.0-2.0-0.1"	"s97b2r"	"600"	"1366"	"chrome"	"111.0.0"	"FALSE"	"Windows 10"	"60.1"	"052"	n/a	n/a	n/a	n/a	n/a	n/a	"fixation"	n/a	n/a	n/a	n/a	"NULL"	n/a	"NULL"	"NULL"	"NULL"	"<p style=\"color: black; font-size: 80px; padding-left: 44%; padding-right: 39%; padding-top: 39%; padding-bottom: 13%\">+</p>"	"1365"	n/a	n/a	n/a	n/a	n/a	n/a	n/a	n/a	n/a
n/a	"image-keyboard-response"	"187"	"340749"	"0.0-6.0-2.0-1.1"	"s97b2r"	"600"	"1366"	"chrome"	"111.0.0"	"FALSE"	"Windows 10"	"60.1"	"052"	n/a	n/a	n/a	n/a	n/a	n/a	"Trial"	n/a	n/a	n/a	"747"	"arrowright"	n/a	"NULL"	"NULL"	"NULL"	"stimuli/VerticalHorizontal_-20.27143_-0.1096.png"	n/a	"VerticalHorizontal"	"arrowright"	"1377"	"TRUE"	"VerticalHorizontal"	"-20.27143000"	"-0.109600000"	"2"	"2"
n/a	"html-keyboard-response"	"188"	"342050"	"0.0-6.0-2.0-0.2"	"s97b2r"	"600"	"1366"	"chrome"	"111.0.0"	"FALSE"	"Windows 10"	"60.1"	"052"	n/a	n/a	n/a	n/a	n/a	n/a	"fixation"	n/a	n/a	n/a	n/a	"NULL"	n/a	"NULL"	"NULL"	"NULL"	"<p style=\"color: black; font-size: 80px; padding-left: 1%; padding-right: 48%; padding-top: 10%; padding-bottom: 9%\">+</p>"	"1289"	n/a	n/a	n/a	n/a	n/a	n/a	n/a	n/a	n/a
n/a	"image-keyboard-response"	"189"	"342601"	"0.0-6.0-2.0-1.2"	"s97b2r"	"600"	"1366"	"chrome"	"111.0.0"	"FALSE"	"Windows 10"	"60.1"	"052"	n/a	n/a	n/a	n/a	n/a	n/a	"Trial"	n/a	n/a	n/a	"550"	"arrowright"	n/a	"NULL"	"NULL"	"NULL"	"stimuli/VerticalHorizontal_11.78571_0.10960.png"	n/a	"VerticalHorizontal"	"arrowleft"	"1301"	"FALSE"	"VerticalHorizontal"	"11.785710000"	"0.1096000000"	"2"	"3"
n/a	"html-keyboard-response"	"190"	"343798"	"0.0-6.0-2.0-0.3"	"s97b2r"	"600"	"1366"	"chrome"	"111.0.0"	"FALSE"	"Windows 10"	"60.1"	"052"	n/a	n/a	n/a	n/a	n/a	n/a	"fixation"	n/a	n/a	n/a	n/a	"NULL"	n/a	"NULL"	"NULL"	"NULL"	"<p style=\"color: black; font-size: 80px; padding-left: 2%; padding-right: 30%; padding-top: 45%; padding-bottom: 32%\">+</p>"	"1192"	n/a	n/a	n/a	n/a	n/a	n/a	n/a	n/a	n/a
n/a	"image-keyboard-response"	"191"	"344283"	"0.0-6.0-2.0-1.3"	"s97b2r"	"600"	"1366"	"chrome"	"111.0.0"	"FALSE"	"Windows 10"	"60.1"	"052"	n/a	n/a	n/a	n/a	n/a	n/a	"Trial"	n/a	n/a	n/a	"484"	"arrowright"	n/a	"NULL"	"NULL"	"NULL"	"stimuli/VerticalHorizontal_-3.3000_-0.0673.png"	n/a	"VerticalHorizontal"	"arrowright"	"1197"	"TRUE"	"VerticalHorizontal"	"-3.300000000"	"-0.067300000"	"2"	"4"
n/a	"html-keyboard-response"	"192"	"345445"	"0.0-6.0-2.0-0.4"	"s97b2r"	"600"	"1366"	"chrome"	"111.0.0"	"FALSE"	"Windows 10"	"60.1"	"052"	n/a	n/a	n/a	n/a	n/a	n/a	"fixation"	n/a	n/a	n/a	n/a	"NULL"	n/a	"NULL"	"NULL"	"NULL"	"<p style=\"color: black; font-size: 80px; padding-left: 25%; padding-right: 32%; padding-top: 24%; padding-bottom: 45%\">+</p>"	"1152"	n/a	n/a	n/a	n/a	n/a	n/a	n/a	n/a	n/a
n/a	"image-keyboard-response"	"193"	"346226"	"0.0-6.0-2.0-1.4"	"s97b2r"	"600"	"1366"	"chrome"	"111.0.0"	"FALSE"	"Windows 10"	"60.1"	"052"	n/a	n/a	n/a	n/a	n/a	n/a	"Trial"	n/a	n/a	n/a	"780"	"arrowleft"	n/a	"NULL"	"NULL"	"NULL"	"stimuli/VerticalHorizontal_28.75714_-0.0673.png"	n/a	"VerticalHorizontal"	"arrowright"	"1162"	"FALSE"	"VerticalHorizontal"	"28.757140000"	"-0.067300000"	"2"	"5"
n/a	"html-keyboard-response"	"194"	"347374"	"0.0-6.0-2.0-0.5"	"s97b2r"	"600"	"1366"	"chrome"	"111.0.0"	"FALSE"	"Windows 10"	"60.1"	"052"	n/a	n/a	n/a	n/a	n/a	n/a	"fixation"	n/a	n/a	n/a	n/a	"NULL"	n/a	"NULL"	"NULL"	"NULL"	"<p style=\"color: black; font-size: 80px; padding-left: 30%; padding-right: 34%; padding-top: 34%; padding-bottom: 38%\">+</p>"	"1140"	n/a	n/a	n/a	n/a	n/a	n/a	n/a	n/a	n/a
n/a	"image-keyboard-response"	"195"	"347873"	"0.0-6.0-2.0-1.5"	"s97b2r"	"600"	"1366"	"chrome"	"111.0.0"	"FALSE"	"Windows 10"	"60.1"	"052"	n/a	n/a	n/a	n/a	n/a	n/a	"Trial"	n/a	n/a	n/a	"498"	"arrowleft"	n/a	"NULL"	"NULL"	"NULL"	"stimuli/VerticalHorizontal_-11.78571_0.10960.png"	n/a	"VerticalHorizontal"	"arrowleft"	"1148"	"TRUE"	"VerticalHorizontal"	"-11.78571000"	"0.1096000000"	"2"	"6"
n/a	"html-keyboard-response"	"196"	"349177"	"0.0-6.0-2.0-0.6"	"s97b2r"	"600"	"1366"	"chrome"	"111.0.0"	"FALSE"	"Windows 10"	"60.1"	"052"	n/a	n/a	n/a	n/a	n/a	n/a	"fixation"	n/a	n/a	n/a	n/a	"NULL"	n/a	"NULL"	"NULL"	"NULL"	"<p style=\"color: black; font-size: 80px; padding-left: 29%; padding-right: 25%; padding-top: 50%; padding-bottom: 36%\">+</p>"	"1301"	n/a	n/a	n/a	n/a	n/a	n/a	n/a	n/a	n/a
n/a	"image-keyboard-response"	"197"	"349929"	"0.0-6.0-2.0-1.6"	"s97b2r"	"600"	"1366"	"chrome"	"111.0.0"	"FALSE"	"Windows 10"	"60.1"	"052"	n/a	n/a	n/a	n/a	n/a	n/a	"Trial"	n/a	n/a	n/a	"751"	"arrowright"	n/a	"NULL"	"NULL"	"NULL"	"stimuli/VerticalHorizontal_20.27143_-0.0673.png"	n/a	"VerticalHorizontal"	"arrowright"	"1304"	"TRUE"	"VerticalHorizontal"	"20.271430000"	"-0.067300000"	"2"	"7"
n/a	"html-keyboard-response"	"198"	"350969"	"0.0-6.0-2.0-0.7"	"s97b2r"	"600"	"1366"	"chrome"	"111.0.0"	"FALSE"	"Windows 10"	"60.1"	"052"	n/a	n/a	n/a	n/a	n/a	n/a	"fixation"	n/a	n/a	n/a	n/a	"NULL"	n/a	"NULL"	"NULL"	"NULL"	"<p style=\"color: black; font-size: 80px; padding-left: 6%; padding-right: 11%; padding-top: 33%; padding-bottom: 40%\">+</p>"	"1037"	n/a	n/a	n/a	n/a	n/a	n/a	n/a	n/a	n/a
n/a	"image-keyboard-response"	"199"	"351526"	"0.0-6.0-2.0-1.7"	"s97b2r"	"600"	"1366"	"chrome"	"111.0.0"	"FALSE"	"Windows 10"	"60.1"	"052"	n/a	n/a	n/a	n/a	n/a	n/a	"Trial"	n/a	n/a	n/a	"556"	"arrowright"	n/a	"NULL"	"NULL"	"NULL"	"stimuli/VerticalHorizontal_-11.78571_-0.16217.png"	n/a	"VerticalHorizontal"	"arrowright"	"1040"	"TRUE"	"VerticalHorizontal"	"-11.78571000"	"-0.162170000"	"2"	"8"
n/a	"html-keyboard-response"	"200"	"352812"	"0.0-6.0-2.0-0.8"	"s97b2r"	"600"	"1366"	"chrome"	"111.0.0"	"FALSE"	"Windows 10"	"60.1"	"052"	n/a	n/a	n/a	n/a	n/a	n/a	"fixation"	n/a	n/a	n/a	n/a	"NULL"	n/a	"NULL"	"NULL"	"NULL"	"<p style=\"color: black; font-size: 80px; padding-left: 8%; padding-right: 36%; padding-top: 10%; padding-bottom: 31%\">+</p>"	"1278"	n/a	n/a	n/a	n/a	n/a	n/a	n/a	n/a	n/a
n/a	"image-keyboard-response"	"201"	"353579"	"0.0-6.0-2.0-1.8"	"s97b2r"	"600"	"1366"	"chrome"	"111.0.0"	"FALSE"	"Windows 10"	"60.1"	"052"	n/a	n/a	n/a	n/a	n/a	n/a	"Trial"	n/a	n/a	n/a	"766"	"arrowright"	n/a	"NULL"	"NULL"	"NULL"	"stimuli/VerticalHorizontal_20.27143_-0.16217.png"	n/a	"VerticalHorizontal"	"arrowright"	"1286"	"TRUE"	"VerticalHorizontal"	"20.271430000"	"-0.162170000"	"2"	"9"
n/a	"html-keyboard-response"	"202"	"354650"	"0.0-6.0-2.0-0.9"	"s97b2r"	"600"	"1366"	"chrome"	"111.0.0"	"FALSE"	"Windows 10"	"60.1"	"052"	n/a	n/a	n/a	n/a	n/a	n/a	"fixation"	n/a	n/a	n/a	n/a	"NULL"	n/a	"NULL"	"NULL"	"NULL"	"<p style=\"color: black; font-size: 80px; padding-left: 9%; padding-right: 3%; padding-top: 32%; padding-bottom: 41%\">+</p>"	"1055"	n/a	n/a	n/a	n/a	n/a	n/a	n/a	n/a	n/a
n/a	"image-keyboard-response"	"203"	"355198"	"0.0-6.0-2.0-1.9"	"s97b2r"	"600"	"1366"	"chrome"	"111.0.0"	"FALSE"	"Windows 10"	"60.1"	"052"	n/a	n/a	n/a	n/a	n/a	n/a	"Trial"	n/a	n/a	n/a	"547"	"arrowleft"	n/a	"NULL"	"NULL"	"NULL"	"stimuli/VerticalHorizontal_11.78571_0.22500.png"	n/a	"VerticalHorizontal"	"arrowleft"	"1071"	"TRUE"	"VerticalHorizontal"	"11.785710000"	"0.2250000000"	"2"	"10"
n/a	"html-keyboard-response"	"204"	"356238"	"0.0-6.0-2.0-0.10"	"s97b2r"	"600"	"1366"	"chrome"	"111.0.0"	"FALSE"	"Windows 10"	"60.1"	"052"	n/a	n/a	n/a	n/a	n/a	n/a	"fixation"	n/a	n/a	n/a	n/a	"NULL"	n/a	"NULL"	"NULL"	"NULL"	"<p style=\"color: black; font-size: 80px; padding-left: 25%; padding-right: 23%; padding-top: 14%; padding-bottom: 37%\">+</p>"	"1029"	n/a	n/a	n/a	n/a	n/a	n/a	n/a	n/a	n/a
n/a	"image-keyboard-response"	"205"	"356730"	"0.0-6.0-2.0-1.10"	"s97b2r"	"600"	"1366"	"chrome"	"111.0.0"	"FALSE"	"Windows 10"	"60.1"	"052"	n/a	n/a	n/a	n/a	n/a	n/a	"Trial"	n/a	n/a	n/a	"490"	"arrowright"	n/a	"NULL"	"NULL"	"NULL"	"stimuli/VerticalHorizontal_-11.78571_-0.1096.png"	n/a	"VerticalHorizontal"	"arrowright"	"1040"	"TRUE"	"VerticalHorizontal"	"-11.78571000"	"-0.109600000"	"2"	"11"
n/a	"html-keyboard-response"	"206"	"357982"	"0.0-6.0-2.0-0.11"	"s97b2r"	"600"	"1366"	"chrome"	"111.0.0"	"FALSE"	"Windows 10"	"60.1"	"052"	n/a	n/a	n/a	n/a	n/a	n/a	"fixation"	n/a	n/a	n/a	n/a	"NULL"	n/a	"NULL"	"NULL"	"NULL"	"<p style=\"color: black; font-size: 80px; padding-left: 6%; padding-right: 14%; padding-top: 27%; padding-bottom: 1%\">+</p>"	"1246"	n/a	n/a	n/a	n/a	n/a	n/a	n/a	n/a	n/a
n/a	"image-keyboard-response"	"207"	"358609"	"0.0-6.0-2.0-1.11"	"s97b2r"	"600"	"1366"	"chrome"	"111.0.0"	"FALSE"	"Windows 10"	"60.1"	"052"	n/a	n/a	n/a	n/a	n/a	n/a	"Trial"	n/a	n/a	n/a	"626"	"arrowright"	n/a	"NULL"	"NULL"	"NULL"	"stimuli/VerticalHorizontal_11.78571_-0.2250.png"	n/a	"VerticalHorizontal"	"arrowright"	"1252"	"TRUE"	"VerticalHorizontal"	"11.785710000"	"-0.225000000"	"2"	"12"
n/a	"html-keyboard-response"	"208"	"359625"	"0.0-6.0-2.0-0.12"	"s97b2r"	"600"	"1366"	"chrome"	"111.0.0"	"FALSE"	"Windows 10"	"60.1"	"052"	n/a	n/a	n/a	n/a	n/a	n/a	"fixation"	n/a	n/a	n/a	n/a	"NULL"	n/a	"NULL"	"NULL"	"NULL"	"<p style=\"color: black; font-size: 80px; padding-left: 40%; padding-right: 11%; padding-top: 44%; padding-bottom: 5%\">+</p>"	"1013"	n/a	n/a	n/a	n/a	n/a	n/a	n/a	n/a	n/a
n/a	"image-keyboard-response"	"209"	"360128"	"0.0-6.0-2.0-1.12"	"s97b2r"	"600"	"1366"	"chrome"	"111.0.0"	"FALSE"	"Windows 10"	"60.1"	"052"	n/a	n/a	n/a	n/a	n/a	n/a	"Trial"	n/a	n/a	n/a	"503"	"arrowright"	n/a	"NULL"	"NULL"	"NULL"	"stimuli/VerticalHorizontal_-11.78571_-0.0673.png"	n/a	"VerticalHorizontal"	"arrowright"	"1016"	"TRUE"	"VerticalHorizontal"	"-11.78571000"	"-0.067300000"	"2"	"13"
n/a	"html-keyboard-response"	"210"	"361518"	"0.0-6.0-2.0-0.13"	"s97b2r"	"600"	"1366"	"chrome"	"111.0.0"	"FALSE"	"Windows 10"	"60.1"	"052"	n/a	n/a	n/a	n/a	n/a	n/a	"fixation"	n/a	n/a	n/a	n/a	"NULL"	n/a	"NULL"	"NULL"	"NULL"	"<p style=\"color: black; font-size: 80px; padding-left: 13%; padding-right: 33%; padding-top: 1%; padding-bottom: 26%\">+</p>"	"1386"	n/a	n/a	n/a	n/a	n/a	n/a	n/a	n/a	n/a
n/a	"image-keyboard-response"	"211"	"361925"	"0.0-6.0-2.0-1.13"	"s97b2r"	"600"	"1366"	"chrome"	"111.0.0"	"FALSE"	"Windows 10"	"60.1"	"052"	n/a	n/a	n/a	n/a	n/a	n/a	"Trial"	n/a	n/a	n/a	"406"	"arrowleft"	n/a	"NULL"	"NULL"	"NULL"	"stimuli/VerticalHorizontal_-28.75714_0.06730.png"	n/a	"VerticalHorizontal"	"arrowleft"	"1390"	"TRUE"	"VerticalHorizontal"	"-28.75714000"	"0.0673000000"	"2"	"14"
n/a	"html-keyboard-response"	"212"	"363136"	"0.0-6.0-2.0-0.14"	"s97b2r"	"600"	"1366"	"chrome"	"111.0.0"	"FALSE"	"Windows 10"	"60.1"	"052"	n/a	n/a	n/a	n/a	n/a	n/a	"fixation"	n/a	n/a	n/a	n/a	"NULL"	n/a	"NULL"	"NULL"	"NULL"	"<p style=\"color: black; font-size: 80px; padding-left: 36%; padding-right: 35%; padding-top: 7%; padding-bottom: 38%\">+</p>"	"1204"	n/a	n/a	n/a	n/a	n/a	n/a	n/a	n/a	n/a
n/a	"image-keyboard-response"	"213"	"363758"	"0.0-6.0-2.0-1.14"	"s97b2r"	"600"	"1366"	"chrome"	"111.0.0"	"FALSE"	"Windows 10"	"60.1"	"052"	n/a	n/a	n/a	n/a	n/a	n/a	"Trial"	n/a	n/a	n/a	"621"	"arrowleft"	n/a	"NULL"	"NULL"	"NULL"	"stimuli/VerticalHorizontal_-3.3000_0.16217.png"	n/a	"VerticalHorizontal"	"arrowleft"	"1211"	"TRUE"	"VerticalHorizontal"	"-3.300000000"	"0.1621700000"	"2"	"15"
n/a	"html-keyboard-response"	"214"	"365230"	"0.0-6.0-2.0-0.15"	"s97b2r"	"600"	"1366"	"chrome"	"111.0.0"	"FALSE"	"Windows 10"	"60.1"	"052"	n/a	n/a	n/a	n/a	n/a	n/a	"fixation"	n/a	n/a	n/a	n/a	"NULL"	n/a	"NULL"	"NULL"	"NULL"	"<p style=\"color: black; font-size: 80px; padding-left: 33%; padding-right: 30%; padding-top: 25%; padding-bottom: 35%\">+</p>"	"1460"	n/a	n/a	n/a	n/a	n/a	n/a	n/a	n/a	n/a
n/a	"image-keyboard-response"	"215"	"366015"	"0.0-6.0-2.0-1.15"	"s97b2r"	"600"	"1366"	"chrome"	"111.0.0"	"FALSE"	"Windows 10"	"60.1"	"052"	n/a	n/a	n/a	n/a	n/a	n/a	"Trial"	n/a	n/a	n/a	"784"	"arrowleft"	n/a	"NULL"	"NULL"	"NULL"	"stimuli/VerticalHorizontal_-11.78571_0.06730.png"	n/a	"VerticalHorizontal"	"arrowleft"	"1472"	"TRUE"	"VerticalHorizontal"	"-11.78571000"	"0.0673000000"	"2"	"16"
n/a	"html-keyboard-response"	"216"	"367370"	"0.0-6.0-2.0-0.16"	"s97b2r"	"600"	"1366"	"chrome"	"111.0.0"	"FALSE"	"Windows 10"	"60.1"	"052"	n/a	n/a	n/a	n/a	n/a	n/a	"fixation"	n/a	n/a	n/a	n/a	"NULL"	n/a	"NULL"	"NULL"	"NULL"	"<p style=\"color: black; font-size: 80px; padding-left: 17%; padding-right: 34%; padding-top: 7%; padding-bottom: 27%\">+</p>"	"1350"	n/a	n/a	n/a	n/a	n/a	n/a	n/a	n/a	n/a
n/a	"image-keyboard-response"	"217"	"367816"	"0.0-6.0-2.0-1.16"	"s97b2r"	"600"	"1366"	"chrome"	"111.0.0"	"FALSE"	"Windows 10"	"60.1"	"052"	n/a	n/a	n/a	n/a	n/a	n/a	"Trial"	n/a	n/a	n/a	"446"	"arrowright"	n/a	"NULL"	"NULL"	"NULL"	"stimuli/VerticalHorizontal_28.75714_0.22500.png"	n/a	"VerticalHorizontal"	"arrowleft"	"1355"	"FALSE"	"VerticalHorizontal"	"28.757140000"	"0.2250000000"	"2"	"17"
n/a	"html-keyboard-response"	"218"	"369223"	"0.0-6.0-2.0-0.17"	"s97b2r"	"600"	"1366"	"chrome"	"111.0.0"	"FALSE"	"Windows 10"	"60.1"	"052"	n/a	n/a	n/a	n/a	n/a	n/a	"fixation"	n/a	n/a	n/a	n/a	"NULL"	n/a	"NULL"	"NULL"	"NULL"	"<p style=\"color: black; font-size: 80px; padding-left: 46%; padding-right: 36%; padding-top: 0%; padding-bottom: 15%\">+</p>"	"1400"	n/a	n/a	n/a	n/a	n/a	n/a	n/a	n/a	n/a
n/a	"image-keyboard-response"	"219"	"369774"	"0.0-6.0-2.0-1.17"	"s97b2r"	"600"	"1366"	"chrome"	"111.0.0"	"FALSE"	"Windows 10"	"60.1"	"052"	n/a	n/a	n/a	n/a	n/a	n/a	"Trial"	n/a	n/a	n/a	"550"	"arrowright"	n/a	"NULL"	"NULL"	"NULL"	"stimuli/VerticalHorizontal_-3.3000_-0.2250.png"	n/a	"VerticalHorizontal"	"arrowright"	"1407"	"TRUE"	"VerticalHorizontal"	"-3.300000000"	"-0.225000000"	"2"	"18"
n/a	"html-keyboard-response"	"220"	"371254"	"0.0-6.0-2.0-0.18"	"s97b2r"	"600"	"1366"	"chrome"	"111.0.0"	"FALSE"	"Windows 10"	"60.1"	"052"	n/a	n/a	n/a	n/a	n/a	n/a	"fixation"	n/a	n/a	n/a	n/a	"NULL"	n/a	"NULL"	"NULL"	"NULL"	"<p style=\"color: black; font-size: 80px; padding-left: 12%; padding-right: 6%; padding-top: 48%; padding-bottom: 43%\">+</p>"	"1475"	n/a	n/a	n/a	n/a	n/a	n/a	n/a	n/a	n/a
n/a	"image-keyboard-response"	"221"	"371876"	"0.0-6.0-2.0-1.18"	"s97b2r"	"600"	"1366"	"chrome"	"111.0.0"	"FALSE"	"Windows 10"	"60.1"	"052"	n/a	n/a	n/a	n/a	n/a	n/a	"Trial"	n/a	n/a	n/a	"622"	"arrowleft"	n/a	"NULL"	"NULL"	"NULL"	"stimuli/VerticalHorizontal_20.27143_0.22500.png"	n/a	"VerticalHorizontal"	"arrowleft"	"1480"	"TRUE"	"VerticalHorizontal"	"20.271430000"	"0.2250000000"	"2"	"19"
n/a	"html-keyboard-response"	"222"	"372946"	"0.0-6.0-2.0-0.19"	"s97b2r"	"600"	"1366"	"chrome"	"111.0.0"	"FALSE"	"Windows 10"	"60.1"	"052"	n/a	n/a	n/a	n/a	n/a	n/a	"fixation"	n/a	n/a	n/a	n/a	"NULL"	n/a	"NULL"	"NULL"	"NULL"	"<p style=\"color: black; font-size: 80px; padding-left: 6%; padding-right: 10%; padding-top: 47%; padding-bottom: 10%\">+</p>"	"1055"	n/a	n/a	n/a	n/a	n/a	n/a	n/a	n/a	n/a
n/a	"image-keyboard-response"	"223"	"373450"	"0.0-6.0-2.0-1.19"	"s97b2r"	"600"	"1366"	"chrome"	"111.0.0"	"FALSE"	"Windows 10"	"60.1"	"052"	n/a	n/a	n/a	n/a	n/a	n/a	"Trial"	n/a	n/a	n/a	"503"	"arrowright"	n/a	"NULL"	"NULL"	"NULL"	"stimuli/VerticalHorizontal_-3.3000_-0.16217.png"	n/a	"VerticalHorizontal"	"arrowright"	"1070"	"TRUE"	"VerticalHorizontal"	"-3.300000000"	"-0.162170000"	"2"	"20"
n/a	"html-keyboard-response"	"224"	"374853"	"0.0-6.0-2.0-0.20"	"s97b2r"	"600"	"1366"	"chrome"	"111.0.0"	"FALSE"	"Windows 10"	"60.1"	"052"	n/a	n/a	n/a	n/a	n/a	n/a	"fixation"	n/a	n/a	n/a	n/a	"NULL"	n/a	"NULL"	"NULL"	"NULL"	"<p style=\"color: black; font-size: 80px; padding-left: 33%; padding-right: 43%; padding-top: 44%; padding-bottom: 48%\">+</p>"	"1400"	n/a	n/a	n/a	n/a	n/a	n/a	n/a	n/a	n/a
n/a	"image-keyboard-response"	"225"	"375315"	"0.0-6.0-2.0-1.20"	"s97b2r"	"600"	"1366"	"chrome"	"111.0.0"	"FALSE"	"Windows 10"	"60.1"	"052"	n/a	n/a	n/a	n/a	n/a	n/a	"Trial"	n/a	n/a	n/a	"462"	"arrowright"	n/a	"NULL"	"NULL"	"NULL"	"stimuli/VerticalHorizontal_-20.27143_-0.16217.png"	n/a	"VerticalHorizontal"	"arrowright"	"1403"	"TRUE"	"VerticalHorizontal"	"-20.27143000"	"-0.162170000"	"2"	"21"
n/a	"html-keyboard-response"	"226"	"376740"	"0.0-6.0-2.0-0.21"	"s97b2r"	"600"	"1366"	"chrome"	"111.0.0"	"FALSE"	"Windows 10"	"60.1"	"052"	n/a	n/a	n/a	n/a	n/a	n/a	"fixation"	n/a	n/a	n/a	n/a	"NULL"	n/a	"NULL"	"NULL"	"NULL"	"<p style=\"color: black; font-size: 80px; padding-left: 29%; padding-right: 49%; padding-top: 5%; padding-bottom: 19%\">+</p>"	"1421"	n/a	n/a	n/a	n/a	n/a	n/a	n/a	n/a	n/a
n/a	"image-keyboard-response"	"227"	"377165"	"0.0-6.0-2.0-1.21"	"s97b2r"	"600"	"1366"	"chrome"	"111.0.0"	"FALSE"	"Windows 10"	"60.1"	"052"	n/a	n/a	n/a	n/a	n/a	n/a	"Trial"	n/a	n/a	n/a	"424"	"arrowright"	n/a	"NULL"	"NULL"	"NULL"	"stimuli/VerticalHorizontal_-28.75714_-0.1096.png"	n/a	"VerticalHorizontal"	"arrowright"	"1425"	"TRUE"	"VerticalHorizontal"	"-28.75714000"	"-0.109600000"	"2"	"22"
n/a	"html-keyboard-response"	"228"	"378360"	"0.0-6.0-2.0-0.22"	"s97b2r"	"600"	"1366"	"chrome"	"111.0.0"	"FALSE"	"Windows 10"	"60.1"	"052"	n/a	n/a	n/a	n/a	n/a	n/a	"fixation"	n/a	n/a	n/a	n/a	"NULL"	n/a	"NULL"	"NULL"	"NULL"	"<p style=\"color: black; font-size: 80px; padding-left: 37%; padding-right: 25%; padding-top: 49%; padding-bottom: 17%\">+</p>"	"1190"	n/a	n/a	n/a	n/a	n/a	n/a	n/a	n/a	n/a
n/a	"image-keyboard-response"	"229"	"379057"	"0.0-6.0-2.0-1.22"	"s97b2r"	"600"	"1366"	"chrome"	"111.0.0"	"FALSE"	"Windows 10"	"60.1"	"052"	n/a	n/a	n/a	n/a	n/a	n/a	"Trial"	n/a	n/a	n/a	"696"	"arrowleft"	n/a	"NULL"	"NULL"	"NULL"	"stimuli/VerticalHorizontal_3.30000_0.10960.png"	n/a	"VerticalHorizontal"	"arrowleft"	"1195"	"TRUE"	"VerticalHorizontal"	"3.3000000000"	"0.1096000000"	"2"	"23"
n/a	"html-keyboard-response"	"230"	"380503"	"0.0-6.0-2.0-0.23"	"s97b2r"	"600"	"1366"	"chrome"	"111.0.0"	"FALSE"	"Windows 10"	"60.1"	"052"	n/a	n/a	n/a	n/a	n/a	n/a	"fixation"	n/a	n/a	n/a	n/a	"NULL"	n/a	"NULL"	"NULL"	"NULL"	"<p style=\"color: black; font-size: 80px; padding-left: 7%; padding-right: 48%; padding-top: 22%; padding-bottom: 19%\">+</p>"	"1428"	n/a	n/a	n/a	n/a	n/a	n/a	n/a	n/a	n/a
n/a	"image-keyboard-response"	"231"	"381027"	"0.0-6.0-2.0-1.23"	"s97b2r"	"600"	"1366"	"chrome"	"111.0.0"	"FALSE"	"Windows 10"	"60.1"	"052"	n/a	n/a	n/a	n/a	n/a	n/a	"Trial"	n/a	n/a	n/a	"523"	"arrowleft"	n/a	"NULL"	"NULL"	"NULL"	"stimuli/VerticalHorizontal_-28.75714_0.16217.png"	n/a	"VerticalHorizontal"	"arrowleft"	"1446"	"TRUE"	"VerticalHorizontal"	"-28.75714000"	"0.1621700000"	"2"	"24"
n/a	"html-keyboard-response"	"232"	"382415"	"0.0-6.0-2.0-0.24"	"s97b2r"	"600"	"1366"	"chrome"	"111.0.0"	"FALSE"	"Windows 10"	"60.1"	"052"	n/a	n/a	n/a	n/a	n/a	n/a	"fixation"	n/a	n/a	n/a	n/a	"NULL"	n/a	"NULL"	"NULL"	"NULL"	"<p style=\"color: black; font-size: 80px; padding-left: 44%; padding-right: 35%; padding-top: 25%; padding-bottom: 18%\">+</p>"	"1377"	n/a	n/a	n/a	n/a	n/a	n/a	n/a	n/a	n/a
n/a	"image-keyboard-response"	"233"	"382865"	"0.0-6.0-2.0-1.24"	"s97b2r"	"600"	"1366"	"chrome"	"111.0.0"	"FALSE"	"Windows 10"	"60.1"	"052"	n/a	n/a	n/a	n/a	n/a	n/a	"Trial"	n/a	n/a	n/a	"449"	"arrowright"	n/a	"NULL"	"NULL"	"NULL"	"stimuli/VerticalHorizontal_-11.78571_-0.2250.png"	n/a	"VerticalHorizontal"	"arrowright"	"1388"	"TRUE"	"VerticalHorizontal"	"-11.78571000"	"-0.225000000"	"2"	"25"
n/a	"html-keyboard-response"	"234"	"384002"	"0.0-6.0-2.0-0.25"	"s97b2r"	"600"	"1366"	"chrome"	"111.0.0"	"FALSE"	"Windows 10"	"60.1"	"052"	n/a	n/a	n/a	n/a	n/a	n/a	"fixation"	n/a	n/a	n/a	n/a	"NULL"	n/a	"NULL"	"NULL"	"NULL"	"<p style=\"color: black; font-size: 80px; padding-left: 43%; padding-right: 30%; padding-top: 30%; padding-bottom: 35%\">+</p>"	"1128"	n/a	n/a	n/a	n/a	n/a	n/a	n/a	n/a	n/a
n/a	"image-keyboard-response"	"235"	"384492"	"0.0-6.0-2.0-1.25"	"s97b2r"	"600"	"1366"	"chrome"	"111.0.0"	"FALSE"	"Windows 10"	"60.1"	"052"	n/a	n/a	n/a	n/a	n/a	n/a	"Trial"	n/a	n/a	n/a	"490"	"arrowleft"	n/a	"NULL"	"NULL"	"NULL"	"stimuli/VerticalHorizontal_-11.78571_0.16217.png"	n/a	"VerticalHorizontal"	"arrowleft"	"1137"	"TRUE"	"VerticalHorizontal"	"-11.78571000"	"0.1621700000"	"2"	"26"
n/a	"html-keyboard-response"	"236"	"385982"	"0.0-6.0-2.0-0.26"	"s97b2r"	"600"	"1366"	"chrome"	"111.0.0"	"FALSE"	"Windows 10"	"60.1"	"052"	n/a	n/a	n/a	n/a	n/a	n/a	"fixation"	n/a	n/a	n/a	n/a	"NULL"	n/a	"NULL"	"NULL"	"NULL"	"<p style=\"color: black; font-size: 80px; padding-left: 18%; padding-right: 43%; padding-top: 30%; padding-bottom: 45%\">+</p>"	"1474"	n/a	n/a	n/a	n/a	n/a	n/a	n/a	n/a	n/a
n/a	"image-keyboard-response"	"237"	"386607"	"0.0-6.0-2.0-1.26"	"s97b2r"	"600"	"1366"	"chrome"	"111.0.0"	"FALSE"	"Windows 10"	"60.1"	"052"	n/a	n/a	n/a	n/a	n/a	n/a	"Trial"	n/a	n/a	n/a	"625"	"arrowright"	n/a	"NULL"	"NULL"	"NULL"	"stimuli/VerticalHorizontal_3.30000_-0.0673.png"	n/a	"VerticalHorizontal"	"arrowright"	"1490"	"TRUE"	"VerticalHorizontal"	"3.3000000000"	"-0.067300000"	"2"	"27"
n/a	"html-keyboard-response"	"238"	"387847"	"0.0-6.0-2.0-0.27"	"s97b2r"	"600"	"1366"	"chrome"	"111.0.0"	"FALSE"	"Windows 10"	"60.1"	"052"	n/a	n/a	n/a	n/a	n/a	n/a	"fixation"	n/a	n/a	n/a	n/a	"NULL"	n/a	"NULL"	"NULL"	"NULL"	"<p style=\"color: black; font-size: 80px; padding-left: 34%; padding-right: 3%; padding-top: 43%; padding-bottom: 30%\">+</p>"	"1231"	n/a	n/a	n/a	n/a	n/a	n/a	n/a	n/a	n/a
n/a	"image-keyboard-response"	"239"	"388791"	"0.0-6.0-2.0-1.27"	"s97b2r"	"600"	"1366"	"chrome"	"111.0.0"	"FALSE"	"Windows 10"	"60.1"	"052"	n/a	n/a	n/a	n/a	n/a	n/a	"Trial"	n/a	n/a	n/a	"943"	"arrowleft"	n/a	"NULL"	"NULL"	"NULL"	"stimuli/VerticalHorizontal_3.30000_0.16217.png"	n/a	"VerticalHorizontal"	"arrowleft"	"1240"	"TRUE"	"VerticalHorizontal"	"3.3000000000"	"0.1621700000"	"2"	"28"
n/a	"html-keyboard-response"	"240"	"390094"	"0.0-6.0-2.0-0.28"	"s97b2r"	"600"	"1366"	"chrome"	"111.0.0"	"FALSE"	"Windows 10"	"60.1"	"052"	n/a	n/a	n/a	n/a	n/a	n/a	"fixation"	n/a	n/a	n/a	n/a	"NULL"	n/a	"NULL"	"NULL"	"NULL"	"<p style=\"color: black; font-size: 80px; padding-left: 43%; padding-right: 31%; padding-top: 10%; padding-bottom: 25%\">+</p>"	"1296"	n/a	n/a	n/a	n/a	n/a	n/a	n/a	n/a	n/a
n/a	"image-keyboard-response"	"241"	"390522"	"0.0-6.0-2.0-1.28"	"s97b2r"	"600"	"1366"	"chrome"	"111.0.0"	"FALSE"	"Windows 10"	"60.1"	"052"	n/a	n/a	n/a	n/a	n/a	n/a	"Trial"	n/a	n/a	n/a	"427"	"arrowright"	n/a	"NULL"	"NULL"	"NULL"	"stimuli/VerticalHorizontal_-28.75714_-0.0673.png"	n/a	"VerticalHorizontal"	"arrowright"	"1303"	"TRUE"	"VerticalHorizontal"	"-28.75714000"	"-0.067300000"	"2"	"29"
n/a	"html-keyboard-response"	"242"	"391747"	"0.0-6.0-2.0-0.29"	"s97b2r"	"600"	"1366"	"chrome"	"111.0.0"	"FALSE"	"Windows 10"	"60.1"	"052"	n/a	n/a	n/a	n/a	n/a	n/a	"fixation"	n/a	n/a	n/a	n/a	"NULL"	n/a	"NULL"	"NULL"	"NULL"	"<p style=\"color: black; font-size: 80px; padding-left: 42%; padding-right: 46%; padding-top: 18%; padding-bottom: 26%\">+</p>"	"1216"	n/a	n/a	n/a	n/a	n/a	n/a	n/a	n/a	n/a
n/a	"image-keyboard-response"	"243"	"392541"	"0.0-6.0-2.0-1.29"	"s97b2r"	"600"	"1366"	"chrome"	"111.0.0"	"FALSE"	"Windows 10"	"60.1"	"052"	n/a	n/a	n/a	n/a	n/a	n/a	"Trial"	n/a	n/a	n/a	"794"	"arrowright"	n/a	"NULL"	"NULL"	"NULL"	"stimuli/VerticalHorizontal_28.75714_-0.1096.png"	n/a	"VerticalHorizontal"	"arrowright"	"1225"	"TRUE"	"VerticalHorizontal"	"28.757140000"	"-0.109600000"	"2"	"30"
n/a	"html-keyboard-response"	"244"	"393675"	"0.0-6.0-2.0-0.30"	"s97b2r"	"600"	"1366"	"chrome"	"111.0.0"	"FALSE"	"Windows 10"	"60.1"	"052"	n/a	n/a	n/a	n/a	n/a	n/a	"fixation"	n/a	n/a	n/a	n/a	"NULL"	n/a	"NULL"	"NULL"	"NULL"	"<p style=\"color: black; font-size: 80px; padding-left: 12%; padding-right: 26%; padding-top: 34%; padding-bottom: 6%\">+</p>"	"1122"	n/a	n/a	n/a	n/a	n/a	n/a	n/a	n/a	n/a
n/a	"image-keyboard-response"	"245"	"394248"	"0.0-6.0-2.0-1.30"	"s97b2r"	"600"	"1366"	"chrome"	"111.0.0"	"FALSE"	"Windows 10"	"60.1"	"052"	n/a	n/a	n/a	n/a	n/a	n/a	"Trial"	n/a	n/a	n/a	"572"	"arrowright"	n/a	"NULL"	"NULL"	"NULL"	"stimuli/VerticalHorizontal_-20.27143_-0.0673.png"	n/a	"VerticalHorizontal"	"arrowright"	"1134"	"TRUE"	"VerticalHorizontal"	"-20.27143000"	"-0.067300000"	"2"	"31"
n/a	"html-keyboard-response"	"246"	"395304"	"0.0-6.0-2.0-0.31"	"s97b2r"	"600"	"1366"	"chrome"	"111.0.0"	"FALSE"	"Windows 10"	"60.1"	"052"	n/a	n/a	n/a	n/a	n/a	n/a	"fixation"	n/a	n/a	n/a	n/a	"NULL"	n/a	"NULL"	"NULL"	"NULL"	"<p style=\"color: black; font-size: 80px; padding-left: 16%; padding-right: 10%; padding-top: 19%; padding-bottom: 5%\">+</p>"	"1052"	n/a	n/a	n/a	n/a	n/a	n/a	n/a	n/a	n/a
n/a	"image-keyboard-response"	"247"	"396142"	"0.0-6.0-2.0-1.31"	"s97b2r"	"600"	"1366"	"chrome"	"111.0.0"	"FALSE"	"Windows 10"	"60.1"	"052"	n/a	n/a	n/a	n/a	n/a	n/a	"Trial"	n/a	n/a	n/a	"838"	"arrowleft"	n/a	"NULL"	"NULL"	"NULL"	"stimuli/VerticalHorizontal_28.75714_0.16217.png"	n/a	"VerticalHorizontal"	"arrowleft"	"1056"	"TRUE"	"VerticalHorizontal"	"28.757140000"	"0.1621700000"	"2"	"32"
n/a	"html-keyboard-response"	"248"	"397392"	"0.0-6.0-2.0-0.32"	"s97b2r"	"600"	"1366"	"chrome"	"111.0.0"	"FALSE"	"Windows 10"	"60.1"	"052"	n/a	n/a	n/a	n/a	n/a	n/a	"fixation"	n/a	n/a	n/a	n/a	"NULL"	n/a	"NULL"	"NULL"	"NULL"	"<p style=\"color: black; font-size: 80px; padding-left: 3%; padding-right: 33%; padding-top: 34%; padding-bottom: 23%\">+</p>"	"1242"	n/a	n/a	n/a	n/a	n/a	n/a	n/a	n/a	n/a
n/a	"image-keyboard-response"	"249"	"397948"	"0.0-6.0-2.0-1.32"	"s97b2r"	"600"	"1366"	"chrome"	"111.0.0"	"FALSE"	"Windows 10"	"60.1"	"052"	n/a	n/a	n/a	n/a	n/a	n/a	"Trial"	n/a	n/a	n/a	"556"	"arrowright"	n/a	"NULL"	"NULL"	"NULL"	"stimuli/VerticalHorizontal_-3.3000_-0.1096.png"	n/a	"VerticalHorizontal"	"arrowright"	"1250"	"TRUE"	"VerticalHorizontal"	"-3.300000000"	"-0.109600000"	"2"	"33"
n/a	"html-keyboard-response"	"250"	"399020"	"0.0-6.0-2.0-0.33"	"s97b2r"	"600"	"1366"	"chrome"	"111.0.0"	"FALSE"	"Windows 10"	"60.1"	"052"	n/a	n/a	n/a	n/a	n/a	n/a	"fixation"	n/a	n/a	n/a	n/a	"NULL"	n/a	"NULL"	"NULL"	"NULL"	"<p style=\"color: black; font-size: 80px; padding-left: 3%; padding-right: 35%; padding-top: 8%; padding-bottom: 6%\">+</p>"	"1058"	n/a	n/a	n/a	n/a	n/a	n/a	n/a	n/a	n/a
n/a	"image-keyboard-response"	"251"	"399479"	"0.0-6.0-2.0-1.33"	"s97b2r"	"600"	"1366"	"chrome"	"111.0.0"	"FALSE"	"Windows 10"	"60.1"	"052"	n/a	n/a	n/a	n/a	n/a	n/a	"Trial"	n/a	n/a	n/a	"458"	"arrowright"	n/a	"NULL"	"NULL"	"NULL"	"stimuli/VerticalHorizontal_-20.27143_-0.2250.png"	n/a	"VerticalHorizontal"	"arrowright"	"1072"	"TRUE"	"VerticalHorizontal"	"-20.27143000"	"-0.225000000"	"2"	"34"
