"success"	"trial_type"	"trial_index"	"time_elapsed"	"internal_node_id"	"participant_id"	"screen_height"	"screen_width"	"browser"	"browser_version"	"mobile"	"os"	"vsync_rate"	"subject_id"	"width"	"height"	"webaudio"	"fullscreen"	"webcam"	"microphone"	"screen"	"version"	"date"	"time"	"rt"	"response"	"timeout"	"failed_images"	"failed_audio"	"failed_video"	"stimulus"	"trial_duration"	"block"	"correct_response"	"prestimulus_duration"	"correct"	"type"	"illusion_strength"	"illusion_difference"	"block_number"	"trial_number"
"TRUE"	"fullscreen"	"0"	"4037"	"0.0-0.0"	"oy7aww"	"600"	"1366"	"chrome"	"108.0.0"	"FALSE"	"Windows 10"	"60.59"	"122"	n/a	n/a	n/a	n/a	n/a	n/a	n/a	n/a	n/a	n/a	n/a	"NULL"	n/a	"NULL"	"NULL"	"NULL"	n/a	n/a	n/a	n/a	n/a	n/a	n/a	n/a	n/a	n/a	n/a
n/a	"browser-check"	"1"	"5039"	"0.0-1.0"	"oy7aww"	"600"	"1366"	"chrome"	"108.0.0"	"FALSE"	"Windows 10"	"60.59"	"122"	"1366"	"600"	"TRUE"	"TRUE"	"TRUE"	"TRUE"	"browser_info"	"1.0"	"30/12/2022"	"10:27:14"	n/a	"NULL"	n/a	"NULL"	"NULL"	"NULL"	n/a	n/a	n/a	n/a	n/a	n/a	n/a	n/a	n/a	n/a	n/a
n/a	"survey-text"	"2"	"8395"	"0.0-2.0"	"oy7aww"	"600"	"1366"	"chrome"	"108.0.0"	"FALSE"	"Windows 10"	"60.59"	"122"	n/a	n/a	n/a	n/a	n/a	n/a	"subject_id"	n/a	n/a	n/a	"3352"	"list(subject_id = \"122\")"	n/a	"NULL"	"NULL"	"NULL"	n/a	n/a	n/a	n/a	n/a	n/a	n/a	n/a	n/a	n/a	n/a
"TRUE"	"preload"	"3"	"8409"	"0.0-3.0"	"oy7aww"	"600"	"1366"	"chrome"	"108.0.0"	"FALSE"	"Windows 10"	"60.59"	"122"	n/a	n/a	n/a	n/a	n/a	n/a	n/a	n/a	n/a	n/a	n/a	"NULL"	"FALSE"	"list()"	"list()"	"list()"	n/a	n/a	n/a	n/a	n/a	n/a	n/a	n/a	n/a	n/a	n/a
n/a	"html-button-response"	"4"	"21203"	"0.0-4.0-0.0"	"oy7aww"	"600"	"1366"	"chrome"	"108.0.0"	"FALSE"	"Windows 10"	"60.59"	"122"	n/a	n/a	n/a	n/a	n/a	n/a	"illusion_instructions"	n/a	n/a	n/a	"12793"	"0"	n/a	"NULL"	"NULL"	"NULL"	"<p><b>Illusion Game</b></p><p>In this game of speed and reflex, you will need to make <b>visual judgments</b> (for instance, which circle is the biggest, or which line is the longest), as fast and as correctly as possible, while <b>resisting different visual illusions</b>.</p><p>We are going to start with some examples of all the illusions you will encounter in the game.</p>"	n/a	n/a	n/a	n/a	n/a	n/a	n/a	n/a	n/a	n/a
"TRUE"	"preload"	"5"	"21228"	"0.0-4.0-1.0-0.0"	"oy7aww"	"600"	"1366"	"chrome"	"108.0.0"	"FALSE"	"Windows 10"	"60.59"	"122"	n/a	n/a	n/a	n/a	n/a	n/a	n/a	n/a	n/a	n/a	n/a	"NULL"	"FALSE"	"list()"	"list()"	"list()"	n/a	n/a	n/a	n/a	n/a	n/a	n/a	n/a	n/a	n/a	n/a
n/a	"html-keyboard-response"	"6"	"49423"	"0.0-4.0-1.0-1.0"	"oy7aww"	"600"	"1366"	"chrome"	"108.0.0"	"FALSE"	"Windows 10"	"60.59"	"122"	n/a	n/a	n/a	n/a	n/a	n/a	n/a	n/a	n/a	n/a	"28194"	"enter"	n/a	"NULL"	"NULL"	"NULL"	"<p><b>Practice</b></p><p>In this part, two red circles will appear side by side on the screen.</p><p>Your task is to select which <b>red circle is bigger</b> in size as fast as you can, without making errors.</p><p>Don't get distracted by the surrounding black circles around the red circles!</p><p>Press <b>the LEFT or the RIGHT arrow</b> to indicate which is the bigger <b>red circle.</b></p><div style='float: center'><img src='materials/instructions/Ebbinghaus_Demo.png' height='300'></img><p><img src='utils/answer/answer_leftright_keyboard.PNG' height='150'></img></p><p class='small'>In this example, the correct answer is the <b>LEFT arrow</b>.</p></div><p>Are you ready? <b>Press ENTER to start</b></p>"	n/a	n/a	n/a	n/a	n/a	n/a	n/a	n/a	n/a	n/a
n/a	"html-keyboard-response"	"7"	"51266"	"0.0-4.0-1.0-2.0-0.0"	"oy7aww"	"600"	"1366"	"chrome"	"108.0.0"	"FALSE"	"Windows 10"	"60.59"	"122"	n/a	n/a	n/a	n/a	n/a	n/a	"fixation"	n/a	n/a	n/a	n/a	"NULL"	n/a	"NULL"	"NULL"	"NULL"	"<p style=\"color: black; font-size: 80px; padding-left: 38%; padding-right: 27%; padding-top: 21%; padding-bottom: 8%\">+</p>"	"1312"	n/a	n/a	n/a	n/a	n/a	n/a	n/a	n/a	n/a
n/a	"image-keyboard-response"	"8"	"52872"	"0.0-4.0-1.0-2.0-1.0"	"oy7aww"	"600"	"1366"	"chrome"	"108.0.0"	"FALSE"	"Windows 10"	"60.59"	"122"	n/a	n/a	n/a	n/a	n/a	n/a	"Trial"	n/a	n/a	n/a	"1594"	"arrowleft"	n/a	"NULL"	"NULL"	"NULL"	"stimuli/Ebbinghaus_-100000_1.40000.png"	n/a	"Ebbinghaus"	"arrowleft"	"1843"	"TRUE"	"Ebbinghaus"	"-10000000000"	"1.4000000000"	"1"	"1"
n/a	"html-keyboard-response"	"9"	"54292"	"0.0-4.0-1.0-2.0-0.1"	"oy7aww"	"600"	"1366"	"chrome"	"108.0.0"	"FALSE"	"Windows 10"	"60.59"	"122"	n/a	n/a	n/a	n/a	n/a	n/a	"fixation"	n/a	n/a	n/a	n/a	"NULL"	n/a	"NULL"	"NULL"	"NULL"	"<p style=\"color: black; font-size: 80px; padding-left: 8%; padding-right: 34%; padding-top: 39%; padding-bottom: 33%\">+</p>"	"1409"	n/a	n/a	n/a	n/a	n/a	n/a	n/a	n/a	n/a
n/a	"image-keyboard-response"	"10"	"55239"	"0.0-4.0-1.0-2.0-1.1"	"oy7aww"	"600"	"1366"	"chrome"	"108.0.0"	"FALSE"	"Windows 10"	"60.59"	"122"	n/a	n/a	n/a	n/a	n/a	n/a	"Trial"	n/a	n/a	n/a	"946"	"arrowright"	n/a	"NULL"	"NULL"	"NULL"	"stimuli/Ebbinghaus_-100000_-1.4000.png"	n/a	"Ebbinghaus"	"arrowright"	"1420"	"TRUE"	"Ebbinghaus"	"-10000000000"	"-1.400000000"	"1"	"2"
n/a	"html-keyboard-response"	"11"	"56264"	"0.0-4.0-1.0-2.0-0.2"	"oy7aww"	"600"	"1366"	"chrome"	"108.0.0"	"FALSE"	"Windows 10"	"60.59"	"122"	n/a	n/a	n/a	n/a	n/a	n/a	"fixation"	n/a	n/a	n/a	n/a	"NULL"	n/a	"NULL"	"NULL"	"NULL"	"<p style=\"color: black; font-size: 80px; padding-left: 5%; padding-right: 46%; padding-top: 20%; padding-bottom: 19%\">+</p>"	"1023"	n/a	n/a	n/a	n/a	n/a	n/a	n/a	n/a	n/a
n/a	"image-keyboard-response"	"12"	"56831"	"0.0-4.0-1.0-2.0-1.2"	"oy7aww"	"600"	"1366"	"chrome"	"108.0.0"	"FALSE"	"Windows 10"	"60.59"	"122"	n/a	n/a	n/a	n/a	n/a	n/a	"Trial"	n/a	n/a	n/a	"566"	"arrowleft"	n/a	"NULL"	"NULL"	"NULL"	"stimuli/Ebbinghaus_0000000_1.40000.png"	n/a	"Ebbinghaus"	"arrowleft"	"1025"	"TRUE"	"Ebbinghaus"	"000000000000"	"1.4000000000"	"1"	"3"
n/a	"html-keyboard-response"	"13"	"57905"	"0.0-4.0-1.0-2.0-0.3"	"oy7aww"	"600"	"1366"	"chrome"	"108.0.0"	"FALSE"	"Windows 10"	"60.59"	"122"	n/a	n/a	n/a	n/a	n/a	n/a	"fixation"	n/a	n/a	n/a	n/a	"NULL"	n/a	"NULL"	"NULL"	"NULL"	"<p style=\"color: black; font-size: 80px; padding-left: 37%; padding-right: 35%; padding-top: 15%; padding-bottom: 4%\">+</p>"	"1057"	n/a	n/a	n/a	n/a	n/a	n/a	n/a	n/a	n/a
n/a	"image-keyboard-response"	"14"	"58435"	"0.0-4.0-1.0-2.0-1.3"	"oy7aww"	"600"	"1366"	"chrome"	"108.0.0"	"FALSE"	"Windows 10"	"60.59"	"122"	n/a	n/a	n/a	n/a	n/a	n/a	"Trial"	n/a	n/a	n/a	"529"	"arrowright"	n/a	"NULL"	"NULL"	"NULL"	"stimuli/Ebbinghaus_1000000_-1.4000.png"	n/a	"Ebbinghaus"	"arrowright"	"1074"	"TRUE"	"Ebbinghaus"	"100000000000"	"-1.400000000"	"1"	"4"
n/a	"html-keyboard-response"	"15"	"59928"	"0.0-4.0-1.0-2.0-0.4"	"oy7aww"	"600"	"1366"	"chrome"	"108.0.0"	"FALSE"	"Windows 10"	"60.59"	"122"	n/a	n/a	n/a	n/a	n/a	n/a	"fixation"	n/a	n/a	n/a	n/a	"NULL"	n/a	"NULL"	"NULL"	"NULL"	"<p style=\"color: black; font-size: 80px; padding-left: 23%; padding-right: 46%; padding-top: 49%; padding-bottom: 16%\">+</p>"	"1478"	n/a	n/a	n/a	n/a	n/a	n/a	n/a	n/a	n/a
n/a	"image-keyboard-response"	"16"	"60795"	"0.0-4.0-1.0-2.0-1.4"	"oy7aww"	"600"	"1366"	"chrome"	"108.0.0"	"FALSE"	"Windows 10"	"60.59"	"122"	n/a	n/a	n/a	n/a	n/a	n/a	"Trial"	n/a	n/a	n/a	"864"	"arrowleft"	n/a	"NULL"	"NULL"	"NULL"	"stimuli/Ebbinghaus_1000000_1.40000.png"	n/a	"Ebbinghaus"	"arrowleft"	"1493"	"TRUE"	"Ebbinghaus"	"100000000000"	"1.4000000000"	"1"	"5"
n/a	"html-keyboard-response"	"17"	"62140"	"0.0-4.0-1.0-2.0-0.5"	"oy7aww"	"600"	"1366"	"chrome"	"108.0.0"	"FALSE"	"Windows 10"	"60.59"	"122"	n/a	n/a	n/a	n/a	n/a	n/a	"fixation"	n/a	n/a	n/a	n/a	"NULL"	n/a	"NULL"	"NULL"	"NULL"	"<p style=\"color: black; font-size: 80px; padding-left: 17%; padding-right: 14%; padding-top: 16%; padding-bottom: 7%\">+</p>"	"1337"	n/a	n/a	n/a	n/a	n/a	n/a	n/a	n/a	n/a
n/a	"image-keyboard-response"	"18"	"62990"	"0.0-4.0-1.0-2.0-1.5"	"oy7aww"	"600"	"1366"	"chrome"	"108.0.0"	"FALSE"	"Windows 10"	"60.59"	"122"	n/a	n/a	n/a	n/a	n/a	n/a	"Trial"	n/a	n/a	n/a	"849"	"arrowright"	n/a	"NULL"	"NULL"	"NULL"	"stimuli/Ebbinghaus_0000000_-1.4000.png"	n/a	"Ebbinghaus"	"arrowright"	"1345"	"TRUE"	"Ebbinghaus"	"000000000000"	"-1.400000000"	"1"	"6"
n/a	"html-button-response"	"19"	"68890"	"0.0-4.0-1.0-3.0"	"oy7aww"	"600"	"1366"	"chrome"	"108.0.0"	"FALSE"	"Windows 10"	"60.59"	"122"	n/a	n/a	n/a	n/a	n/a	n/a	"practice_block_results"	n/a	n/a	n/a	"5898"	"0"	n/a	"NULL"	"NULL"	"NULL"	"<p style='color:rgb(76,175,80);'> Correct Responses: <b>100.00%</b></p><hr><p style='color:rgb(233,30,99);'> Average Response Time: <b>891.33</b> ms.</p>"	n/a	n/a	n/a	n/a	n/a	n/a	n/a	n/a	n/a	n/a
"TRUE"	"preload"	"20"	"69412"	"0.0-4.0-2.0-0.0"	"oy7aww"	"600"	"1366"	"chrome"	"108.0.0"	"FALSE"	"Windows 10"	"60.59"	"122"	n/a	n/a	n/a	n/a	n/a	n/a	n/a	n/a	n/a	n/a	n/a	"NULL"	"FALSE"	"list()"	"list()"	"list()"	n/a	n/a	n/a	n/a	n/a	n/a	n/a	n/a	n/a	n/a	n/a
n/a	"html-keyboard-response"	"21"	"82159"	"0.0-4.0-2.0-1.0"	"oy7aww"	"600"	"1366"	"chrome"	"108.0.0"	"FALSE"	"Windows 10"	"60.59"	"122"	n/a	n/a	n/a	n/a	n/a	n/a	n/a	n/a	n/a	n/a	"12746"	"enter"	n/a	"NULL"	"NULL"	"NULL"	"<p><b>Practice</b></p><p>In this part, two horizontal red lines will appear one above the other.</p><p>Your task is to select which <b>line is longer</b> in length as fast as you can, without making errors.</p><p>Don't get distracted by the surrounding black arrows at the end of the red lines!</p><p>Press <b>the UP or the DOWN arrow</b> to indicate where is the longer <b>red line.</b></p><div style='float: center'><img src='materials/instructions/MullerLyer_Demo.png' height='300'></img><p><img src='utils/answer/answer_updown_keyboard.PNG' height='150'></img></p><p class='small'>In this example, the correct answer is the <b>UP arrow</b>.</p></div><p>Are you ready? <b>Press ENTER to start</b></p>"	n/a	n/a	n/a	n/a	n/a	n/a	n/a	n/a	n/a	n/a
n/a	"html-keyboard-response"	"22"	"84115"	"0.0-4.0-2.0-2.0-0.0"	"oy7aww"	"600"	"1366"	"chrome"	"108.0.0"	"FALSE"	"Windows 10"	"60.59"	"122"	n/a	n/a	n/a	n/a	n/a	n/a	"fixation"	n/a	n/a	n/a	n/a	"NULL"	n/a	"NULL"	"NULL"	"NULL"	"<p style=\"color: black; font-size: 80px; padding-left: 18%; padding-right: 14%; padding-top: 11%; padding-bottom: 2%\">+</p>"	"1423"	n/a	n/a	n/a	n/a	n/a	n/a	n/a	n/a	n/a
n/a	"image-keyboard-response"	"23"	"84868"	"0.0-4.0-2.0-2.0-1.0"	"oy7aww"	"600"	"1366"	"chrome"	"108.0.0"	"FALSE"	"Windows 10"	"60.59"	"122"	n/a	n/a	n/a	n/a	n/a	n/a	"Trial"	n/a	n/a	n/a	"752"	"arrowup"	n/a	"NULL"	"NULL"	"NULL"	"stimuli/MullerLyer_0000000_0.70000.png"	n/a	"MullerLyer"	"arrowup"	"1956"	"TRUE"	"MullerLyer"	"000000000000"	"0.7000000000"	"1"	"7"
n/a	"html-keyboard-response"	"24"	"86026"	"0.0-4.0-2.0-2.0-0.1"	"oy7aww"	"600"	"1366"	"chrome"	"108.0.0"	"FALSE"	"Windows 10"	"60.59"	"122"	n/a	n/a	n/a	n/a	n/a	n/a	"fixation"	n/a	n/a	n/a	n/a	"NULL"	n/a	"NULL"	"NULL"	"NULL"	"<p style=\"color: black; font-size: 80px; padding-left: 29%; padding-right: 9%; padding-top: 17%; padding-bottom: 28%\">+</p>"	"1139"	n/a	n/a	n/a	n/a	n/a	n/a	n/a	n/a	n/a
n/a	"image-keyboard-response"	"25"	"86507"	"0.0-4.0-2.0-2.0-1.1"	"oy7aww"	"600"	"1366"	"chrome"	"108.0.0"	"FALSE"	"Windows 10"	"60.59"	"122"	n/a	n/a	n/a	n/a	n/a	n/a	"Trial"	n/a	n/a	n/a	"480"	"arrowup"	n/a	"NULL"	"NULL"	"NULL"	"stimuli/MullerLyer_2300000_-0.7000.png"	n/a	"MullerLyer"	"arrowdown"	"1158"	"FALSE"	"MullerLyer"	"230000000000"	"-0.700000000"	"1"	"8"
n/a	"html-keyboard-response"	"26"	"87875"	"0.0-4.0-2.0-2.0-0.2"	"oy7aww"	"600"	"1366"	"chrome"	"108.0.0"	"FALSE"	"Windows 10"	"60.59"	"122"	n/a	n/a	n/a	n/a	n/a	n/a	"fixation"	n/a	n/a	n/a	n/a	"NULL"	n/a	"NULL"	"NULL"	"NULL"	"<p style=\"color: black; font-size: 80px; padding-left: 42%; padding-right: 42%; padding-top: 7%; padding-bottom: 27%\">+</p>"	"1358"	n/a	n/a	n/a	n/a	n/a	n/a	n/a	n/a	n/a
n/a	"image-keyboard-response"	"27"	"88372"	"0.0-4.0-2.0-2.0-1.2"	"oy7aww"	"600"	"1366"	"chrome"	"108.0.0"	"FALSE"	"Windows 10"	"60.59"	"122"	n/a	n/a	n/a	n/a	n/a	n/a	"Trial"	n/a	n/a	n/a	"496"	"arrowdown"	n/a	"NULL"	"NULL"	"NULL"	"stimuli/MullerLyer_-230000_-0.7000.png"	n/a	"MullerLyer"	"arrowdown"	"1368"	"TRUE"	"MullerLyer"	"-23000000000"	"-0.700000000"	"1"	"9"
n/a	"html-keyboard-response"	"28"	"89865"	"0.0-4.0-2.0-2.0-0.3"	"oy7aww"	"600"	"1366"	"chrome"	"108.0.0"	"FALSE"	"Windows 10"	"60.59"	"122"	n/a	n/a	n/a	n/a	n/a	n/a	"fixation"	n/a	n/a	n/a	n/a	"NULL"	n/a	"NULL"	"NULL"	"NULL"	"<p style=\"color: black; font-size: 80px; padding-left: 21%; padding-right: 49%; padding-top: 38%; padding-bottom: 21%\">+</p>"	"1475"	n/a	n/a	n/a	n/a	n/a	n/a	n/a	n/a	n/a
n/a	"image-keyboard-response"	"29"	"90392"	"0.0-4.0-2.0-2.0-1.3"	"oy7aww"	"600"	"1366"	"chrome"	"108.0.0"	"FALSE"	"Windows 10"	"60.59"	"122"	n/a	n/a	n/a	n/a	n/a	n/a	"Trial"	n/a	n/a	n/a	"526"	"arrowup"	n/a	"NULL"	"NULL"	"NULL"	"stimuli/MullerLyer_2300000_0.70000.png"	n/a	"MullerLyer"	"arrowup"	"1493"	"TRUE"	"MullerLyer"	"230000000000"	"0.7000000000"	"1"	"10"
n/a	"html-keyboard-response"	"30"	"91719"	"0.0-4.0-2.0-2.0-0.4"	"oy7aww"	"600"	"1366"	"chrome"	"108.0.0"	"FALSE"	"Windows 10"	"60.59"	"122"	n/a	n/a	n/a	n/a	n/a	n/a	"fixation"	n/a	n/a	n/a	n/a	"NULL"	n/a	"NULL"	"NULL"	"NULL"	"<p style=\"color: black; font-size: 80px; padding-left: 48%; padding-right: 29%; padding-top: 28%; padding-bottom: 11%\">+</p>"	"1326"	n/a	n/a	n/a	n/a	n/a	n/a	n/a	n/a	n/a
n/a	"image-keyboard-response"	"31"	"92229"	"0.0-4.0-2.0-2.0-1.4"	"oy7aww"	"600"	"1366"	"chrome"	"108.0.0"	"FALSE"	"Windows 10"	"60.59"	"122"	n/a	n/a	n/a	n/a	n/a	n/a	"Trial"	n/a	n/a	n/a	"509"	"arrowup"	n/a	"NULL"	"NULL"	"NULL"	"stimuli/MullerLyer_-230000_0.70000.png"	n/a	"MullerLyer"	"arrowup"	"1327"	"TRUE"	"MullerLyer"	"-23000000000"	"0.7000000000"	"1"	"11"
n/a	"html-keyboard-response"	"32"	"93670"	"0.0-4.0-2.0-2.0-0.5"	"oy7aww"	"600"	"1366"	"chrome"	"108.0.0"	"FALSE"	"Windows 10"	"60.59"	"122"	n/a	n/a	n/a	n/a	n/a	n/a	"fixation"	n/a	n/a	n/a	n/a	"NULL"	n/a	"NULL"	"NULL"	"NULL"	"<p style=\"color: black; font-size: 80px; padding-left: 42%; padding-right: 49%; padding-top: 5%; padding-bottom: 42%\">+</p>"	"1427"	n/a	n/a	n/a	n/a	n/a	n/a	n/a	n/a	n/a
n/a	"image-keyboard-response"	"33"	"94155"	"0.0-4.0-2.0-2.0-1.5"	"oy7aww"	"600"	"1366"	"chrome"	"108.0.0"	"FALSE"	"Windows 10"	"60.59"	"122"	n/a	n/a	n/a	n/a	n/a	n/a	"Trial"	n/a	n/a	n/a	"483"	"arrowdown"	n/a	"NULL"	"NULL"	"NULL"	"stimuli/MullerLyer_0000000_-0.7000.png"	n/a	"MullerLyer"	"arrowdown"	"1441"	"TRUE"	"MullerLyer"	"000000000000"	"-0.700000000"	"1"	"12"
n/a	"html-button-response"	"34"	"97576"	"0.0-4.0-2.0-3.0"	"oy7aww"	"600"	"1366"	"chrome"	"108.0.0"	"FALSE"	"Windows 10"	"60.59"	"122"	n/a	n/a	n/a	n/a	n/a	n/a	"practice_block_results"	n/a	n/a	n/a	"3419"	"0"	n/a	"NULL"	"NULL"	"NULL"	"<p style='color:rgb(76,175,80);'> Correct Responses: <b>83.33%</b></p><hr><p style='color:rgb(233,30,99);'> Average Response Time: <b>541.00</b> ms.</p>"	n/a	n/a	n/a	n/a	n/a	n/a	n/a	n/a	n/a	n/a
"TRUE"	"preload"	"35"	"98108"	"0.0-4.0-3.0-0.0"	"oy7aww"	"600"	"1366"	"chrome"	"108.0.0"	"FALSE"	"Windows 10"	"60.59"	"122"	n/a	n/a	n/a	n/a	n/a	n/a	n/a	n/a	n/a	n/a	n/a	"NULL"	"FALSE"	"list()"	"list()"	"list()"	n/a	n/a	n/a	n/a	n/a	n/a	n/a	n/a	n/a	n/a	n/a
n/a	"html-keyboard-response"	"36"	"104114"	"0.0-4.0-3.0-1.0"	"oy7aww"	"600"	"1366"	"chrome"	"108.0.0"	"FALSE"	"Windows 10"	"60.59"	"122"	n/a	n/a	n/a	n/a	n/a	n/a	n/a	n/a	n/a	n/a	"6005"	"enter"	n/a	"NULL"	"NULL"	"NULL"	"<p><b>Practice</b></p><p>In this part, two red lines will appear side by side.</p><p>Your task is to tell <b>which line is longer</b> in length, regardless of their orientation, as fast as you can, and without making errors.</p><p>Don't get distracted by the orientation of the lines!</p><p>Press <b>the LEFT or the RIGHT arrow</b> to indicate which <b>line is the longer one.</b></p><div style='float: center'><img src='materials/instructions/VerticalHorizontal_Demo.png' height='300'></img><p><img src='utils/answer/answer_leftright_keyboard.PNG' height='150'></img></p><p class='small'>In this example, the correct answer is the <b>LEFT arrow</b>.</p></div><p>Are you ready? <b>Press ENTER to start</b></p>"	n/a	n/a	n/a	n/a	n/a	n/a	n/a	n/a	n/a	n/a
n/a	"html-keyboard-response"	"37"	"105875"	"0.0-4.0-3.0-2.0-0.0"	"oy7aww"	"600"	"1366"	"chrome"	"108.0.0"	"FALSE"	"Windows 10"	"60.59"	"122"	n/a	n/a	n/a	n/a	n/a	n/a	"fixation"	n/a	n/a	n/a	n/a	"NULL"	n/a	"NULL"	"NULL"	"NULL"	"<p style=\"color: black; font-size: 80px; padding-left: 13%; padding-right: 31%; padding-top: 27%; padding-bottom: 11%\">+</p>"	"1234"	n/a	n/a	n/a	n/a	n/a	n/a	n/a	n/a	n/a
n/a	"image-keyboard-response"	"38"	"106477"	"0.0-4.0-3.0-2.0-1.0"	"oy7aww"	"600"	"1366"	"chrome"	"108.0.0"	"FALSE"	"Windows 10"	"60.59"	"122"	n/a	n/a	n/a	n/a	n/a	n/a	"Trial"	n/a	n/a	n/a	"601"	"arrowright"	n/a	"NULL"	"NULL"	"NULL"	"stimuli/VerticalHorizontal_0000000_-0.9000.png"	n/a	"VerticalHorizontal"	"arrowright"	"1761"	"TRUE"	"VerticalHorizontal"	"000000000000"	"-0.900000000"	"1"	"13"
n/a	"html-keyboard-response"	"39"	"107830"	"0.0-4.0-3.0-2.0-0.1"	"oy7aww"	"600"	"1366"	"chrome"	"108.0.0"	"FALSE"	"Windows 10"	"60.59"	"122"	n/a	n/a	n/a	n/a	n/a	n/a	"fixation"	n/a	n/a	n/a	n/a	"NULL"	n/a	"NULL"	"NULL"	"NULL"	"<p style=\"color: black; font-size: 80px; padding-left: 35%; padding-right: 16%; padding-top: 44%; padding-bottom: 11%\">+</p>"	"1345"	n/a	n/a	n/a	n/a	n/a	n/a	n/a	n/a	n/a
n/a	"image-keyboard-response"	"40"	"108238"	"0.0-4.0-3.0-2.0-1.1"	"oy7aww"	"600"	"1366"	"chrome"	"108.0.0"	"FALSE"	"Windows 10"	"60.59"	"122"	n/a	n/a	n/a	n/a	n/a	n/a	"Trial"	n/a	n/a	n/a	"406"	"arrowleft"	n/a	"NULL"	"NULL"	"NULL"	"stimuli/VerticalHorizontal_0000000_0.90000.png"	n/a	"VerticalHorizontal"	"arrowleft"	"1353"	"TRUE"	"VerticalHorizontal"	"000000000000"	"0.9000000000"	"1"	"14"
n/a	"html-keyboard-response"	"41"	"109499"	"0.0-4.0-3.0-2.0-0.2"	"oy7aww"	"600"	"1366"	"chrome"	"108.0.0"	"FALSE"	"Windows 10"	"60.59"	"122"	n/a	n/a	n/a	n/a	n/a	n/a	"fixation"	n/a	n/a	n/a	n/a	"NULL"	n/a	"NULL"	"NULL"	"NULL"	"<p style=\"color: black; font-size: 80px; padding-left: 27%; padding-right: 45%; padding-top: 41%; padding-bottom: 45%\">+</p>"	"1253"	n/a	n/a	n/a	n/a	n/a	n/a	n/a	n/a	n/a
n/a	"image-keyboard-response"	"42"	"109866"	"0.0-4.0-3.0-2.0-1.2"	"oy7aww"	"600"	"1366"	"chrome"	"108.0.0"	"FALSE"	"Windows 10"	"60.59"	"122"	n/a	n/a	n/a	n/a	n/a	n/a	"Trial"	n/a	n/a	n/a	"366"	"arrowright"	n/a	"NULL"	"NULL"	"NULL"	"stimuli/VerticalHorizontal_-330000_-0.9000.png"	n/a	"VerticalHorizontal"	"arrowright"	"1261"	"TRUE"	"VerticalHorizontal"	"-33000000000"	"-0.900000000"	"1"	"15"
n/a	"html-keyboard-response"	"43"	"110981"	"0.0-4.0-3.0-2.0-0.3"	"oy7aww"	"600"	"1366"	"chrome"	"108.0.0"	"FALSE"	"Windows 10"	"60.59"	"122"	n/a	n/a	n/a	n/a	n/a	n/a	"fixation"	n/a	n/a	n/a	n/a	"NULL"	n/a	"NULL"	"NULL"	"NULL"	"<p style=\"color: black; font-size: 80px; padding-left: 36%; padding-right: 17%; padding-top: 9%; padding-bottom: 13%\">+</p>"	"1094"	n/a	n/a	n/a	n/a	n/a	n/a	n/a	n/a	n/a
n/a	"image-keyboard-response"	"44"	"111369"	"0.0-4.0-3.0-2.0-1.3"	"oy7aww"	"600"	"1366"	"chrome"	"108.0.0"	"FALSE"	"Windows 10"	"60.59"	"122"	n/a	n/a	n/a	n/a	n/a	n/a	"Trial"	n/a	n/a	n/a	"387"	"arrowleft"	n/a	"NULL"	"NULL"	"NULL"	"stimuli/VerticalHorizontal_-330000_0.90000.png"	n/a	"VerticalHorizontal"	"arrowleft"	"1115"	"TRUE"	"VerticalHorizontal"	"-33000000000"	"0.9000000000"	"1"	"16"
n/a	"html-keyboard-response"	"45"	"112514"	"0.0-4.0-3.0-2.0-0.4"	"oy7aww"	"600"	"1366"	"chrome"	"108.0.0"	"FALSE"	"Windows 10"	"60.59"	"122"	n/a	n/a	n/a	n/a	n/a	n/a	"fixation"	n/a	n/a	n/a	n/a	"NULL"	n/a	"NULL"	"NULL"	"NULL"	"<p style=\"color: black; font-size: 80px; padding-left: 22%; padding-right: 12%; padding-top: 41%; padding-bottom: 24%\">+</p>"	"1129"	n/a	n/a	n/a	n/a	n/a	n/a	n/a	n/a	n/a
n/a	"image-keyboard-response"	"46"	"112914"	"0.0-4.0-3.0-2.0-1.4"	"oy7aww"	"600"	"1366"	"chrome"	"108.0.0"	"FALSE"	"Windows 10"	"60.59"	"122"	n/a	n/a	n/a	n/a	n/a	n/a	"Trial"	n/a	n/a	n/a	"399"	"arrowright"	n/a	"NULL"	"NULL"	"NULL"	"stimuli/VerticalHorizontal_3300000_-0.9000.png"	n/a	"VerticalHorizontal"	"arrowright"	"1145"	"TRUE"	"VerticalHorizontal"	"330000000000"	"-0.900000000"	"1"	"17"
n/a	"html-keyboard-response"	"47"	"114015"	"0.0-4.0-3.0-2.0-0.5"	"oy7aww"	"600"	"1366"	"chrome"	"108.0.0"	"FALSE"	"Windows 10"	"60.59"	"122"	n/a	n/a	n/a	n/a	n/a	n/a	"fixation"	n/a	n/a	n/a	n/a	"NULL"	n/a	"NULL"	"NULL"	"NULL"	"<p style=\"color: black; font-size: 80px; padding-left: 4%; padding-right: 43%; padding-top: 18%; padding-bottom: 12%\">+</p>"	"1088"	n/a	n/a	n/a	n/a	n/a	n/a	n/a	n/a	n/a
n/a	"image-keyboard-response"	"48"	"114494"	"0.0-4.0-3.0-2.0-1.5"	"oy7aww"	"600"	"1366"	"chrome"	"108.0.0"	"FALSE"	"Windows 10"	"60.59"	"122"	n/a	n/a	n/a	n/a	n/a	n/a	"Trial"	n/a	n/a	n/a	"477"	"arrowleft"	n/a	"NULL"	"NULL"	"NULL"	"stimuli/VerticalHorizontal_3300000_0.90000.png"	n/a	"VerticalHorizontal"	"arrowleft"	"1101"	"TRUE"	"VerticalHorizontal"	"330000000000"	"0.9000000000"	"1"	"18"
n/a	"html-button-response"	"49"	"118025"	"0.0-4.0-3.0-3.0"	"oy7aww"	"600"	"1366"	"chrome"	"108.0.0"	"FALSE"	"Windows 10"	"60.59"	"122"	n/a	n/a	n/a	n/a	n/a	n/a	"practice_block_results"	n/a	n/a	n/a	"3525"	"0"	n/a	"NULL"	"NULL"	"NULL"	"<p style='color:rgb(76,175,80);'> Correct Responses: <b>100.00%</b></p><hr><p style='color:rgb(233,30,99);'> Average Response Time: <b>439.33</b> ms.</p>"	n/a	n/a	n/a	n/a	n/a	n/a	n/a	n/a	n/a	n/a
n/a	"html-button-response"	"50"	"194810"	"0.0-4.0-4.0"	"oy7aww"	"600"	"1366"	"chrome"	"108.0.0"	"FALSE"	"Windows 10"	"60.59"	"122"	n/a	n/a	n/a	n/a	n/a	n/a	"practice_debrief"	n/a	n/a	n/a	"76269"	"0"	n/a	"NULL"	"NULL"	"NULL"	"<p><b>TRAINING COMPLETED</b></p><p>In the next phase, there will be more trials, and some might be harder too.<br> Moreover, after each illusion block, a <b>score</b> will be calculated based on speed (time you took to answer) and accuracy (number of errors).</p><p>Try to keep up a high score!</p><br><p>Note that it can be <i>really</i> challenging at times, so you will need to rely on your <b>intuition</b> and gut feeling to answer as fast as you can without making errors.</p><p>Each illusion block will be repeated two times (so that you have the opportunity to improve your score), but the order of the blocks is random.</p><p>Remember, your goal is to be as <b>fast</b> and <b>accurate</b> as possible. Good luck!</p><br>"	n/a	n/a	n/a	n/a	n/a	n/a	n/a	n/a	n/a	n/a
"TRUE"	"preload"	"51"	"195278"	"0.0-5.0-0.0"	"oy7aww"	"600"	"1366"	"chrome"	"108.0.0"	"FALSE"	"Windows 10"	"60.59"	"122"	n/a	n/a	n/a	n/a	n/a	n/a	n/a	n/a	n/a	n/a	n/a	"NULL"	"FALSE"	"list()"	"list()"	"list()"	n/a	n/a	n/a	n/a	n/a	n/a	n/a	n/a	n/a	n/a	n/a
n/a	"html-keyboard-response"	"52"	"199198"	"0.0-5.0-1.0"	"oy7aww"	"600"	"1366"	"chrome"	"108.0.0"	"FALSE"	"Windows 10"	"60.59"	"122"	n/a	n/a	n/a	n/a	n/a	n/a	n/a	n/a	n/a	n/a	"3920"	"enter"	n/a	"NULL"	"NULL"	"NULL"	"<p><b>Part 1/6</b></p><p>In this part, two horizontal red lines will appear one above the other.</p><p>Your task is to select which <b>line is longer</b> in length as fast as you can, without making errors.</p><p>Don't get distracted by the surrounding black arrows at the end of the red lines!</p><p>Press <b>the UP or the DOWN arrow</b> to indicate where is the longer <b>red line.</b></p><div style='float: center'><img src='materials/instructions/MullerLyer_Demo.png' height='300'></img><p><img src='utils/answer/answer_updown_keyboard.PNG' height='150'></img></p><p class='small'>In this example, the correct answer is the <b>UP arrow</b>.</p></div><p>Are you ready? <b>Press ENTER to start</b></p>"	n/a	n/a	n/a	n/a	n/a	n/a	n/a	n/a	n/a	n/a
n/a	"html-keyboard-response"	"53"	"200844"	"0.0-5.0-2.0-0.0"	"oy7aww"	"600"	"1366"	"chrome"	"108.0.0"	"FALSE"	"Windows 10"	"60.59"	"122"	n/a	n/a	n/a	n/a	n/a	n/a	"fixation"	n/a	n/a	n/a	n/a	"NULL"	n/a	"NULL"	"NULL"	"NULL"	"<p style=\"color: black; font-size: 80px; padding-left: 6%; padding-right: 42%; padding-top: 34%; padding-bottom: 35%\">+</p>"	"1119"	n/a	n/a	n/a	n/a	n/a	n/a	n/a	n/a	n/a
n/a	"image-keyboard-response"	"54"	"202588"	"0.0-5.0-2.0-1.0"	"oy7aww"	"600"	"1366"	"chrome"	"108.0.0"	"FALSE"	"Windows 10"	"60.59"	"122"	n/a	n/a	n/a	n/a	n/a	n/a	"Trial"	n/a	n/a	n/a	"1743"	"arrowup"	n/a	"NULL"	"NULL"	"NULL"	"stimuli/MullerLyer_14.12857_-0.14541.png"	n/a	"MullerLyer"	"arrowdown"	"1646"	"FALSE"	"MullerLyer"	"14.128570000"	"-0.145410000"	"1"	"19"
n/a	"html-keyboard-response"	"55"	"203850"	"0.0-5.0-2.0-0.1"	"oy7aww"	"600"	"1366"	"chrome"	"108.0.0"	"FALSE"	"Windows 10"	"60.59"	"122"	n/a	n/a	n/a	n/a	n/a	n/a	"fixation"	n/a	n/a	n/a	n/a	"NULL"	n/a	"NULL"	"NULL"	"NULL"	"<p style=\"color: black; font-size: 80px; padding-left: 36%; padding-right: 13%; padding-top: 36%; padding-bottom: 39%\">+</p>"	"1247"	n/a	n/a	n/a	n/a	n/a	n/a	n/a	n/a	n/a
n/a	"image-keyboard-response"	"56"	"204605"	"0.0-5.0-2.0-1.1"	"oy7aww"	"600"	"1366"	"chrome"	"108.0.0"	"FALSE"	"Windows 10"	"60.59"	"122"	n/a	n/a	n/a	n/a	n/a	n/a	"Trial"	n/a	n/a	n/a	"754"	"arrowdown"	n/a	"NULL"	"NULL"	"NULL"	"stimuli/MullerLyer_20.04286_0.14541.png"	n/a	"MullerLyer"	"arrowup"	"1262"	"FALSE"	"MullerLyer"	"20.042860000"	"0.1454100000"	"1"	"20"
n/a	"html-keyboard-response"	"57"	"205663"	"0.0-5.0-2.0-0.2"	"oy7aww"	"600"	"1366"	"chrome"	"108.0.0"	"FALSE"	"Windows 10"	"60.59"	"122"	n/a	n/a	n/a	n/a	n/a	n/a	"fixation"	n/a	n/a	n/a	n/a	"NULL"	n/a	"NULL"	"NULL"	"NULL"	"<p style=\"color: black; font-size: 80px; padding-left: 27%; padding-right: 40%; padding-top: 41%; padding-bottom: 18%\">+</p>"	"1045"	n/a	n/a	n/a	n/a	n/a	n/a	n/a	n/a	n/a
n/a	"image-keyboard-response"	"58"	"206390"	"0.0-5.0-2.0-1.2"	"oy7aww"	"600"	"1366"	"chrome"	"108.0.0"	"FALSE"	"Windows 10"	"60.59"	"122"	n/a	n/a	n/a	n/a	n/a	n/a	"Trial"	n/a	n/a	n/a	"727"	"arrowdown"	n/a	"NULL"	"NULL"	"NULL"	"stimuli/MullerLyer_-2.3000_-0.14541.png"	n/a	"MullerLyer"	"arrowdown"	"1058"	"TRUE"	"MullerLyer"	"-2.300000000"	"-0.145410000"	"1"	"21"
n/a	"html-keyboard-response"	"59"	"207754"	"0.0-5.0-2.0-0.3"	"oy7aww"	"600"	"1366"	"chrome"	"108.0.0"	"FALSE"	"Windows 10"	"60.59"	"122"	n/a	n/a	n/a	n/a	n/a	n/a	"fixation"	n/a	n/a	n/a	n/a	"NULL"	n/a	"NULL"	"NULL"	"NULL"	"<p style=\"color: black; font-size: 80px; padding-left: 17%; padding-right: 45%; padding-top: 7%; padding-bottom: 5%\">+</p>"	"1360"	n/a	n/a	n/a	n/a	n/a	n/a	n/a	n/a	n/a
n/a	"image-keyboard-response"	"60"	"208253"	"0.0-5.0-2.0-1.3"	"oy7aww"	"600"	"1366"	"chrome"	"108.0.0"	"FALSE"	"Windows 10"	"60.59"	"122"	n/a	n/a	n/a	n/a	n/a	n/a	"Trial"	n/a	n/a	n/a	"497"	"arrowdown"	n/a	"NULL"	"NULL"	"NULL"	"stimuli/MullerLyer_14.12857_0.07627.png"	n/a	"MullerLyer"	"arrowup"	"1364"	"FALSE"	"MullerLyer"	"14.128570000"	"0.0762700000"	"1"	"22"
n/a	"html-keyboard-response"	"61"	"209324"	"0.0-5.0-2.0-0.4"	"oy7aww"	"600"	"1366"	"chrome"	"108.0.0"	"FALSE"	"Windows 10"	"60.59"	"122"	n/a	n/a	n/a	n/a	n/a	n/a	"fixation"	n/a	n/a	n/a	n/a	"NULL"	n/a	"NULL"	"NULL"	"NULL"	"<p style=\"color: black; font-size: 80px; padding-left: 25%; padding-right: 47%; padding-top: 43%; padding-bottom: 33%\">+</p>"	"1065"	n/a	n/a	n/a	n/a	n/a	n/a	n/a	n/a	n/a
n/a	"image-keyboard-response"	"62"	"209889"	"0.0-5.0-2.0-1.4"	"oy7aww"	"600"	"1366"	"chrome"	"108.0.0"	"FALSE"	"Windows 10"	"60.59"	"122"	n/a	n/a	n/a	n/a	n/a	n/a	"Trial"	n/a	n/a	n/a	"564"	"arrowup"	n/a	"NULL"	"NULL"	"NULL"	"stimuli/MullerLyer_-8.21429_0.07627.png"	n/a	"MullerLyer"	"arrowup"	"1071"	"TRUE"	"MullerLyer"	"-8.214290000"	"0.0762700000"	"1"	"23"
n/a	"html-keyboard-response"	"63"	"211375"	"0.0-5.0-2.0-0.5"	"oy7aww"	"600"	"1366"	"chrome"	"108.0.0"	"FALSE"	"Windows 10"	"60.59"	"122"	n/a	n/a	n/a	n/a	n/a	n/a	"fixation"	n/a	n/a	n/a	n/a	"NULL"	n/a	"NULL"	"NULL"	"NULL"	"<p style=\"color: black; font-size: 80px; padding-left: 16%; padding-right: 31%; padding-top: 44%; padding-bottom: 21%\">+</p>"	"1477"	n/a	n/a	n/a	n/a	n/a	n/a	n/a	n/a	n/a
n/a	"image-keyboard-response"	"64"	"211910"	"0.0-5.0-2.0-1.5"	"oy7aww"	"600"	"1366"	"chrome"	"108.0.0"	"FALSE"	"Windows 10"	"60.59"	"122"	n/a	n/a	n/a	n/a	n/a	n/a	"Trial"	n/a	n/a	n/a	"534"	"arrowup"	n/a	"NULL"	"NULL"	"NULL"	"stimuli/MullerLyer_-2.3000_0.23665.png"	n/a	"MullerLyer"	"arrowup"	"1486"	"TRUE"	"MullerLyer"	"-2.300000000"	"0.2366500000"	"1"	"24"
n/a	"html-keyboard-response"	"65"	"212984"	"0.0-5.0-2.0-0.6"	"oy7aww"	"600"	"1366"	"chrome"	"108.0.0"	"FALSE"	"Windows 10"	"60.59"	"122"	n/a	n/a	n/a	n/a	n/a	n/a	"fixation"	n/a	n/a	n/a	n/a	"NULL"	n/a	"NULL"	"NULL"	"NULL"	"<p style=\"color: black; font-size: 80px; padding-left: 43%; padding-right: 26%; padding-top: 5%; padding-bottom: 41%\">+</p>"	"1066"	n/a	n/a	n/a	n/a	n/a	n/a	n/a	n/a	n/a
n/a	"image-keyboard-response"	"66"	"213483"	"0.0-5.0-2.0-1.6"	"oy7aww"	"600"	"1366"	"chrome"	"108.0.0"	"FALSE"	"Windows 10"	"60.59"	"122"	n/a	n/a	n/a	n/a	n/a	n/a	"Trial"	n/a	n/a	n/a	"498"	"arrowdown"	n/a	"NULL"	"NULL"	"NULL"	"stimuli/MullerLyer_8.21429_0.07627.png"	n/a	"MullerLyer"	"arrowup"	"1074"	"FALSE"	"MullerLyer"	"8.2142900000"	"0.0762700000"	"1"	"25"
n/a	"html-keyboard-response"	"67"	"214545"	"0.0-5.0-2.0-0.7"	"oy7aww"	"600"	"1366"	"chrome"	"108.0.0"	"FALSE"	"Windows 10"	"60.59"	"122"	n/a	n/a	n/a	n/a	n/a	n/a	"fixation"	n/a	n/a	n/a	n/a	"NULL"	n/a	"NULL"	"NULL"	"NULL"	"<p style=\"color: black; font-size: 80px; padding-left: 42%; padding-right: 9%; padding-top: 45%; padding-bottom: 15%\">+</p>"	"1049"	n/a	n/a	n/a	n/a	n/a	n/a	n/a	n/a	n/a
n/a	"image-keyboard-response"	"68"	"215036"	"0.0-5.0-2.0-1.7"	"oy7aww"	"600"	"1366"	"chrome"	"108.0.0"	"FALSE"	"Windows 10"	"60.59"	"122"	n/a	n/a	n/a	n/a	n/a	n/a	"Trial"	n/a	n/a	n/a	"491"	"arrowup"	n/a	"NULL"	"NULL"	"NULL"	"stimuli/MullerLyer_20.04286_-0.14541.png"	n/a	"MullerLyer"	"arrowdown"	"1062"	"FALSE"	"MullerLyer"	"20.042860000"	"-0.145410000"	"1"	"26"
n/a	"html-keyboard-response"	"69"	"216260"	"0.0-5.0-2.0-0.8"	"oy7aww"	"600"	"1366"	"chrome"	"108.0.0"	"FALSE"	"Windows 10"	"60.59"	"122"	n/a	n/a	n/a	n/a	n/a	n/a	"fixation"	n/a	n/a	n/a	n/a	"NULL"	n/a	"NULL"	"NULL"	"NULL"	"<p style=\"color: black; font-size: 80px; padding-left: 14%; padding-right: 0%; padding-top: 23%; padding-bottom: 44%\">+</p>"	"1213"	n/a	n/a	n/a	n/a	n/a	n/a	n/a	n/a	n/a
n/a	"image-keyboard-response"	"70"	"216983"	"0.0-5.0-2.0-1.8"	"oy7aww"	"600"	"1366"	"chrome"	"108.0.0"	"FALSE"	"Windows 10"	"60.59"	"122"	n/a	n/a	n/a	n/a	n/a	n/a	"Trial"	n/a	n/a	n/a	"722"	"arrowup"	n/a	"NULL"	"NULL"	"NULL"	"stimuli/MullerLyer_8.21429_0.14541.png"	n/a	"MullerLyer"	"arrowup"	"1224"	"TRUE"	"MullerLyer"	"8.2142900000"	"0.1454100000"	"1"	"27"
n/a	"html-keyboard-response"	"71"	"218048"	"0.0-5.0-2.0-0.9"	"oy7aww"	"600"	"1366"	"chrome"	"108.0.0"	"FALSE"	"Windows 10"	"60.59"	"122"	n/a	n/a	n/a	n/a	n/a	n/a	"fixation"	n/a	n/a	n/a	n/a	"NULL"	n/a	"NULL"	"NULL"	"NULL"	"<p style=\"color: black; font-size: 80px; padding-left: 27%; padding-right: 4%; padding-top: 32%; padding-bottom: 43%\">+</p>"	"1058"	n/a	n/a	n/a	n/a	n/a	n/a	n/a	n/a	n/a
n/a	"image-keyboard-response"	"72"	"218622"	"0.0-5.0-2.0-1.9"	"oy7aww"	"600"	"1366"	"chrome"	"108.0.0"	"FALSE"	"Windows 10"	"60.59"	"122"	n/a	n/a	n/a	n/a	n/a	n/a	"Trial"	n/a	n/a	n/a	"573"	"arrowup"	n/a	"NULL"	"NULL"	"NULL"	"stimuli/MullerLyer_-14.12857_0.35000.png"	n/a	"MullerLyer"	"arrowup"	"1065"	"TRUE"	"MullerLyer"	"-14.12857000"	"0.3500000000"	"1"	"28"
n/a	"html-keyboard-response"	"73"	"220040"	"0.0-5.0-2.0-0.10"	"oy7aww"	"600"	"1366"	"chrome"	"108.0.0"	"FALSE"	"Windows 10"	"60.59"	"122"	n/a	n/a	n/a	n/a	n/a	n/a	"fixation"	n/a	n/a	n/a	n/a	"NULL"	n/a	"NULL"	"NULL"	"NULL"	"<p style=\"color: black; font-size: 80px; padding-left: 2%; padding-right: 27%; padding-top: 26%; padding-bottom: 3%\">+</p>"	"1404"	n/a	n/a	n/a	n/a	n/a	n/a	n/a	n/a	n/a
n/a	"image-keyboard-response"	"74"	"220592"	"0.0-5.0-2.0-1.10"	"oy7aww"	"600"	"1366"	"chrome"	"108.0.0"	"FALSE"	"Windows 10"	"60.59"	"122"	n/a	n/a	n/a	n/a	n/a	n/a	"Trial"	n/a	n/a	n/a	"551"	"arrowup"	n/a	"NULL"	"NULL"	"NULL"	"stimuli/MullerLyer_-14.12857_0.07627.png"	n/a	"MullerLyer"	"arrowup"	"1418"	"TRUE"	"MullerLyer"	"-14.12857000"	"0.0762700000"	"1"	"29"
n/a	"html-keyboard-response"	"75"	"221852"	"0.0-5.0-2.0-0.11"	"oy7aww"	"600"	"1366"	"chrome"	"108.0.0"	"FALSE"	"Windows 10"	"60.59"	"122"	n/a	n/a	n/a	n/a	n/a	n/a	"fixation"	n/a	n/a	n/a	n/a	"NULL"	n/a	"NULL"	"NULL"	"NULL"	"<p style=\"color: black; font-size: 80px; padding-left: 14%; padding-right: 35%; padding-top: 22%; padding-bottom: 15%\">+</p>"	"1246"	n/a	n/a	n/a	n/a	n/a	n/a	n/a	n/a	n/a
n/a	"image-keyboard-response"	"76"	"222347"	"0.0-5.0-2.0-1.11"	"oy7aww"	"600"	"1366"	"chrome"	"108.0.0"	"FALSE"	"Windows 10"	"60.59"	"122"	n/a	n/a	n/a	n/a	n/a	n/a	"Trial"	n/a	n/a	n/a	"494"	"arrowdown"	n/a	"NULL"	"NULL"	"NULL"	"stimuli/MullerLyer_-8.21429_-0.14541.png"	n/a	"MullerLyer"	"arrowdown"	"1260"	"TRUE"	"MullerLyer"	"-8.214290000"	"-0.145410000"	"1"	"30"
n/a	"html-keyboard-response"	"77"	"223562"	"0.0-5.0-2.0-0.12"	"oy7aww"	"600"	"1366"	"chrome"	"108.0.0"	"FALSE"	"Windows 10"	"60.59"	"122"	n/a	n/a	n/a	n/a	n/a	n/a	"fixation"	n/a	n/a	n/a	n/a	"NULL"	n/a	"NULL"	"NULL"	"NULL"	"<p style=\"color: black; font-size: 80px; padding-left: 8%; padding-right: 42%; padding-top: 50%; padding-bottom: 3%\">+</p>"	"1202"	n/a	n/a	n/a	n/a	n/a	n/a	n/a	n/a	n/a
n/a	"image-keyboard-response"	"78"	"224039"	"0.0-5.0-2.0-1.12"	"oy7aww"	"600"	"1366"	"chrome"	"108.0.0"	"FALSE"	"Windows 10"	"60.59"	"122"	n/a	n/a	n/a	n/a	n/a	n/a	"Trial"	n/a	n/a	n/a	"476"	"arrowup"	n/a	"NULL"	"NULL"	"NULL"	"stimuli/MullerLyer_2.30000_0.14541.png"	n/a	"MullerLyer"	"arrowup"	"1215"	"TRUE"	"MullerLyer"	"2.3000000000"	"0.1454100000"	"1"	"31"
n/a	"html-keyboard-response"	"79"	"225285"	"0.0-5.0-2.0-0.13"	"oy7aww"	"600"	"1366"	"chrome"	"108.0.0"	"FALSE"	"Windows 10"	"60.59"	"122"	n/a	n/a	n/a	n/a	n/a	n/a	"fixation"	n/a	n/a	n/a	n/a	"NULL"	n/a	"NULL"	"NULL"	"NULL"	"<p style=\"color: black; font-size: 80px; padding-left: 15%; padding-right: 33%; padding-top: 1%; padding-bottom: 10%\">+</p>"	"1234"	n/a	n/a	n/a	n/a	n/a	n/a	n/a	n/a	n/a
n/a	"image-keyboard-response"	"80"	"225775"	"0.0-5.0-2.0-1.13"	"oy7aww"	"600"	"1366"	"chrome"	"108.0.0"	"FALSE"	"Windows 10"	"60.59"	"122"	n/a	n/a	n/a	n/a	n/a	n/a	"Trial"	n/a	n/a	n/a	"489"	"arrowdown"	n/a	"NULL"	"NULL"	"NULL"	"stimuli/MullerLyer_-14.12857_-0.3500.png"	n/a	"MullerLyer"	"arrowdown"	"1246"	"TRUE"	"MullerLyer"	"-14.12857000"	"-0.350000000"	"1"	"32"
n/a	"html-keyboard-response"	"81"	"226937"	"0.0-5.0-2.0-0.14"	"oy7aww"	"600"	"1366"	"chrome"	"108.0.0"	"FALSE"	"Windows 10"	"60.59"	"122"	n/a	n/a	n/a	n/a	n/a	n/a	"fixation"	n/a	n/a	n/a	n/a	"NULL"	n/a	"NULL"	"NULL"	"NULL"	"<p style=\"color: black; font-size: 80px; padding-left: 38%; padding-right: 22%; padding-top: 20%; padding-bottom: 42%\">+</p>"	"1147"	n/a	n/a	n/a	n/a	n/a	n/a	n/a	n/a	n/a
n/a	"image-keyboard-response"	"82"	"227491"	"0.0-5.0-2.0-1.14"	"oy7aww"	"600"	"1366"	"chrome"	"108.0.0"	"FALSE"	"Windows 10"	"60.59"	"122"	n/a	n/a	n/a	n/a	n/a	n/a	"Trial"	n/a	n/a	n/a	"552"	"arrowdown"	n/a	"NULL"	"NULL"	"NULL"	"stimuli/MullerLyer_-2.3000_-0.07627.png"	n/a	"MullerLyer"	"arrowdown"	"1162"	"TRUE"	"MullerLyer"	"-2.300000000"	"-0.076270000"	"1"	"33"
n/a	"html-keyboard-response"	"83"	"228981"	"0.0-5.0-2.0-0.15"	"oy7aww"	"600"	"1366"	"chrome"	"108.0.0"	"FALSE"	"Windows 10"	"60.59"	"122"	n/a	n/a	n/a	n/a	n/a	n/a	"fixation"	n/a	n/a	n/a	n/a	"NULL"	n/a	"NULL"	"NULL"	"NULL"	"<p style=\"color: black; font-size: 80px; padding-left: 24%; padding-right: 50%; padding-top: 6%; padding-bottom: 32%\">+</p>"	"1470"	n/a	n/a	n/a	n/a	n/a	n/a	n/a	n/a	n/a
n/a	"image-keyboard-response"	"84"	"230082"	"0.0-5.0-2.0-1.15"	"oy7aww"	"600"	"1366"	"chrome"	"108.0.0"	"FALSE"	"Windows 10"	"60.59"	"122"	n/a	n/a	n/a	n/a	n/a	n/a	"Trial"	n/a	n/a	n/a	"1100"	"arrowdown"	n/a	"NULL"	"NULL"	"NULL"	"stimuli/MullerLyer_14.12857_-0.3500.png"	n/a	"MullerLyer"	"arrowdown"	"1490"	"TRUE"	"MullerLyer"	"14.128570000"	"-0.350000000"	"1"	"34"
n/a	"html-keyboard-response"	"85"	"231228"	"0.0-5.0-2.0-0.16"	"oy7aww"	"600"	"1366"	"chrome"	"108.0.0"	"FALSE"	"Windows 10"	"60.59"	"122"	n/a	n/a	n/a	n/a	n/a	n/a	"fixation"	n/a	n/a	n/a	n/a	"NULL"	n/a	"NULL"	"NULL"	"NULL"	"<p style=\"color: black; font-size: 80px; padding-left: 4%; padding-right: 7%; padding-top: 2%; padding-bottom: 2%\">+</p>"	"1128"	n/a	n/a	n/a	n/a	n/a	n/a	n/a	n/a	n/a
n/a	"image-keyboard-response"	"86"	"233445"	"0.0-5.0-2.0-1.16"	"oy7aww"	"600"	"1366"	"chrome"	"108.0.0"	"FALSE"	"Windows 10"	"60.59"	"122"	n/a	n/a	n/a	n/a	n/a	n/a	"Trial"	n/a	n/a	n/a	"2216"	"arrowup"	n/a	"NULL"	"NULL"	"NULL"	"stimuli/MullerLyer_20.04286_0.23665.png"	n/a	"MullerLyer"	"arrowup"	"1146"	"TRUE"	"MullerLyer"	"20.042860000"	"0.2366500000"	"1"	"35"
n/a	"html-keyboard-response"	"87"	"234917"	"0.0-5.0-2.0-0.17"	"oy7aww"	"600"	"1366"	"chrome"	"108.0.0"	"FALSE"	"Windows 10"	"60.59"	"122"	n/a	n/a	n/a	n/a	n/a	n/a	"fixation"	n/a	n/a	n/a	n/a	"NULL"	n/a	"NULL"	"NULL"	"NULL"	"<p style=\"color: black; font-size: 80px; padding-left: 4%; padding-right: 46%; padding-top: 16%; padding-bottom: 13%\">+</p>"	"1454"	n/a	n/a	n/a	n/a	n/a	n/a	n/a	n/a	n/a
n/a	"image-keyboard-response"	"88"	"235560"	"0.0-5.0-2.0-1.17"	"oy7aww"	"600"	"1366"	"chrome"	"108.0.0"	"FALSE"	"Windows 10"	"60.59"	"122"	n/a	n/a	n/a	n/a	n/a	n/a	"Trial"	n/a	n/a	n/a	"643"	"arrowup"	n/a	"NULL"	"NULL"	"NULL"	"stimuli/MullerLyer_-20.04286_0.23665.png"	n/a	"MullerLyer"	"arrowup"	"1472"	"TRUE"	"MullerLyer"	"-20.04286000"	"0.2366500000"	"1"	"36"
n/a	"html-keyboard-response"	"89"	"236656"	"0.0-5.0-2.0-0.18"	"oy7aww"	"600"	"1366"	"chrome"	"108.0.0"	"FALSE"	"Windows 10"	"60.59"	"122"	n/a	n/a	n/a	n/a	n/a	n/a	"fixation"	n/a	n/a	n/a	n/a	"NULL"	n/a	"NULL"	"NULL"	"NULL"	"<p style=\"color: black; font-size: 80px; padding-left: 22%; padding-right: 48%; padding-top: 26%; padding-bottom: 8%\">+</p>"	"1090"	n/a	n/a	n/a	n/a	n/a	n/a	n/a	n/a	n/a
n/a	"image-keyboard-response"	"90"	"238666"	"0.0-5.0-2.0-1.18"	"oy7aww"	"600"	"1366"	"chrome"	"108.0.0"	"FALSE"	"Windows 10"	"60.59"	"122"	n/a	n/a	n/a	n/a	n/a	n/a	"Trial"	n/a	n/a	n/a	"2010"	"arrowdown"	n/a	"NULL"	"NULL"	"NULL"	"stimuli/MullerLyer_2.30000_-0.07627.png"	n/a	"MullerLyer"	"arrowdown"	"1096"	"TRUE"	"MullerLyer"	"2.3000000000"	"-0.076270000"	"1"	"37"
n/a	"html-keyboard-response"	"91"	"240000"	"0.0-5.0-2.0-0.19"	"oy7aww"	"600"	"1366"	"chrome"	"108.0.0"	"FALSE"	"Windows 10"	"60.59"	"122"	n/a	n/a	n/a	n/a	n/a	n/a	"fixation"	n/a	n/a	n/a	n/a	"NULL"	n/a	"NULL"	"NULL"	"NULL"	"<p style=\"color: black; font-size: 80px; padding-left: 50%; padding-right: 0%; padding-top: 9%; padding-bottom: 41%\">+</p>"	"1325"	n/a	n/a	n/a	n/a	n/a	n/a	n/a	n/a	n/a
n/a	"image-keyboard-response"	"92"	"240460"	"0.0-5.0-2.0-1.19"	"oy7aww"	"600"	"1366"	"chrome"	"108.0.0"	"FALSE"	"Windows 10"	"60.59"	"122"	n/a	n/a	n/a	n/a	n/a	n/a	"Trial"	n/a	n/a	n/a	"459"	"arrowdown"	n/a	"NULL"	"NULL"	"NULL"	"stimuli/MullerLyer_-2.3000_-0.3500.png"	n/a	"MullerLyer"	"arrowdown"	"1334"	"TRUE"	"MullerLyer"	"-2.300000000"	"-0.350000000"	"1"	"38"
n/a	"html-keyboard-response"	"93"	"241835"	"0.0-5.0-2.0-0.20"	"oy7aww"	"600"	"1366"	"chrome"	"108.0.0"	"FALSE"	"Windows 10"	"60.59"	"122"	n/a	n/a	n/a	n/a	n/a	n/a	"fixation"	n/a	n/a	n/a	n/a	"NULL"	n/a	"NULL"	"NULL"	"NULL"	"<p style=\"color: black; font-size: 80px; padding-left: 38%; padding-right: 9%; padding-top: 45%; padding-bottom: 47%\">+</p>"	"1356"	n/a	n/a	n/a	n/a	n/a	n/a	n/a	n/a	n/a
n/a	"image-keyboard-response"	"94"	"242439"	"0.0-5.0-2.0-1.20"	"oy7aww"	"600"	"1366"	"chrome"	"108.0.0"	"FALSE"	"Windows 10"	"60.59"	"122"	n/a	n/a	n/a	n/a	n/a	n/a	"Trial"	n/a	n/a	n/a	"604"	"arrowup"	n/a	"NULL"	"NULL"	"NULL"	"stimuli/MullerLyer_-2.3000_0.35000.png"	n/a	"MullerLyer"	"arrowup"	"1375"	"TRUE"	"MullerLyer"	"-2.300000000"	"0.3500000000"	"1"	"39"
n/a	"html-keyboard-response"	"95"	"243839"	"0.0-5.0-2.0-0.21"	"oy7aww"	"600"	"1366"	"chrome"	"108.0.0"	"FALSE"	"Windows 10"	"60.59"	"122"	n/a	n/a	n/a	n/a	n/a	n/a	"fixation"	n/a	n/a	n/a	n/a	"NULL"	n/a	"NULL"	"NULL"	"NULL"	"<p style=\"color: black; font-size: 80px; padding-left: 21%; padding-right: 3%; padding-top: 31%; padding-bottom: 32%\">+</p>"	"1394"	n/a	n/a	n/a	n/a	n/a	n/a	n/a	n/a	n/a
n/a	"image-keyboard-response"	"96"	"244349"	"0.0-5.0-2.0-1.21"	"oy7aww"	"600"	"1366"	"chrome"	"108.0.0"	"FALSE"	"Windows 10"	"60.59"	"122"	n/a	n/a	n/a	n/a	n/a	n/a	"Trial"	n/a	n/a	n/a	"509"	"arrowdown"	n/a	"NULL"	"NULL"	"NULL"	"stimuli/MullerLyer_20.04286_0.07627.png"	n/a	"MullerLyer"	"arrowup"	"1400"	"FALSE"	"MullerLyer"	"20.042860000"	"0.0762700000"	"1"	"40"
n/a	"html-keyboard-response"	"97"	"245848"	"0.0-5.0-2.0-0.22"	"oy7aww"	"600"	"1366"	"chrome"	"108.0.0"	"FALSE"	"Windows 10"	"60.59"	"122"	n/a	n/a	n/a	n/a	n/a	n/a	"fixation"	n/a	n/a	n/a	n/a	"NULL"	n/a	"NULL"	"NULL"	"NULL"	"<p style=\"color: black; font-size: 80px; padding-left: 1%; padding-right: 41%; padding-top: 13%; padding-bottom: 21%\">+</p>"	"1488"	n/a	n/a	n/a	n/a	n/a	n/a	n/a	n/a	n/a
n/a	"image-keyboard-response"	"98"	"247121"	"0.0-5.0-2.0-1.22"	"oy7aww"	"600"	"1366"	"chrome"	"108.0.0"	"FALSE"	"Windows 10"	"60.59"	"122"	n/a	n/a	n/a	n/a	n/a	n/a	"Trial"	n/a	n/a	n/a	"1272"	"arrowdown"	n/a	"NULL"	"NULL"	"NULL"	"stimuli/MullerLyer_20.04286_-0.3500.png"	n/a	"MullerLyer"	"arrowdown"	"1499"	"TRUE"	"MullerLyer"	"20.042860000"	"-0.350000000"	"1"	"41"
n/a	"html-keyboard-response"	"99"	"248442"	"0.0-5.0-2.0-0.23"	"oy7aww"	"600"	"1366"	"chrome"	"108.0.0"	"FALSE"	"Windows 10"	"60.59"	"122"	n/a	n/a	n/a	n/a	n/a	n/a	"fixation"	n/a	n/a	n/a	n/a	"NULL"	n/a	"NULL"	"NULL"	"NULL"	"<p style=\"color: black; font-size: 80px; padding-left: 34%; padding-right: 19%; padding-top: 15%; padding-bottom: 40%\">+</p>"	"1307"	n/a	n/a	n/a	n/a	n/a	n/a	n/a	n/a	n/a
n/a	"image-keyboard-response"	"100"	"249065"	"0.0-5.0-2.0-1.23"	"oy7aww"	"600"	"1366"	"chrome"	"108.0.0"	"FALSE"	"Windows 10"	"60.59"	"122"	n/a	n/a	n/a	n/a	n/a	n/a	"Trial"	n/a	n/a	n/a	"623"	"arrowdown"	n/a	"NULL"	"NULL"	"NULL"	"stimuli/MullerLyer_8.21429_-0.23665.png"	n/a	"MullerLyer"	"arrowdown"	"1321"	"TRUE"	"MullerLyer"	"8.2142900000"	"-0.236650000"	"1"	"42"
n/a	"html-keyboard-response"	"101"	"250318"	"0.0-5.0-2.0-0.24"	"oy7aww"	"600"	"1366"	"chrome"	"108.0.0"	"FALSE"	"Windows 10"	"60.59"	"122"	n/a	n/a	n/a	n/a	n/a	n/a	"fixation"	n/a	n/a	n/a	n/a	"NULL"	n/a	"NULL"	"NULL"	"NULL"	"<p style=\"color: black; font-size: 80px; padding-left: 17%; padding-right: 49%; padding-top: 35%; padding-bottom: 13%\">+</p>"	"1236"	n/a	n/a	n/a	n/a	n/a	n/a	n/a	n/a	n/a
n/a	"image-keyboard-response"	"102"	"251044"	"0.0-5.0-2.0-1.24"	"oy7aww"	"600"	"1366"	"chrome"	"108.0.0"	"FALSE"	"Windows 10"	"60.59"	"122"	n/a	n/a	n/a	n/a	n/a	n/a	"Trial"	n/a	n/a	n/a	"724"	"arrowup"	n/a	"NULL"	"NULL"	"NULL"	"stimuli/MullerLyer_-20.04286_0.07627.png"	n/a	"MullerLyer"	"arrowup"	"1253"	"TRUE"	"MullerLyer"	"-20.04286000"	"0.0762700000"	"1"	"43"
n/a	"html-keyboard-response"	"103"	"252409"	"0.0-5.0-2.0-0.25"	"oy7aww"	"600"	"1366"	"chrome"	"108.0.0"	"FALSE"	"Windows 10"	"60.59"	"122"	n/a	n/a	n/a	n/a	n/a	n/a	"fixation"	n/a	n/a	n/a	n/a	"NULL"	n/a	"NULL"	"NULL"	"NULL"	"<p style=\"color: black; font-size: 80px; padding-left: 29%; padding-right: 42%; padding-top: 45%; padding-bottom: 43%\">+</p>"	"1361"	n/a	n/a	n/a	n/a	n/a	n/a	n/a	n/a	n/a
n/a	"image-keyboard-response"	"104"	"252929"	"0.0-5.0-2.0-1.25"	"oy7aww"	"600"	"1366"	"chrome"	"108.0.0"	"FALSE"	"Windows 10"	"60.59"	"122"	n/a	n/a	n/a	n/a	n/a	n/a	"Trial"	n/a	n/a	n/a	"519"	"arrowdown"	n/a	"NULL"	"NULL"	"NULL"	"stimuli/MullerLyer_-14.12857_-0.07627.png"	n/a	"MullerLyer"	"arrowdown"	"1365"	"TRUE"	"MullerLyer"	"-14.12857000"	"-0.076270000"	"1"	"44"
n/a	"html-keyboard-response"	"105"	"254087"	"0.0-5.0-2.0-0.26"	"oy7aww"	"600"	"1366"	"chrome"	"108.0.0"	"FALSE"	"Windows 10"	"60.59"	"122"	n/a	n/a	n/a	n/a	n/a	n/a	"fixation"	n/a	n/a	n/a	n/a	"NULL"	n/a	"NULL"	"NULL"	"NULL"	"<p style=\"color: black; font-size: 80px; padding-left: 44%; padding-right: 2%; padding-top: 29%; padding-bottom: 3%\">+</p>"	"1144"	n/a	n/a	n/a	n/a	n/a	n/a	n/a	n/a	n/a
n/a	"image-keyboard-response"	"106"	"254657"	"0.0-5.0-2.0-1.26"	"oy7aww"	"600"	"1366"	"chrome"	"108.0.0"	"FALSE"	"Windows 10"	"60.59"	"122"	n/a	n/a	n/a	n/a	n/a	n/a	"Trial"	n/a	n/a	n/a	"570"	"arrowup"	n/a	"NULL"	"NULL"	"NULL"	"stimuli/MullerLyer_14.12857_-0.07627.png"	n/a	"MullerLyer"	"arrowdown"	"1158"	"FALSE"	"MullerLyer"	"14.128570000"	"-0.076270000"	"1"	"45"
n/a	"html-keyboard-response"	"107"	"255856"	"0.0-5.0-2.0-0.27"	"oy7aww"	"600"	"1366"	"chrome"	"108.0.0"	"FALSE"	"Windows 10"	"60.59"	"122"	n/a	n/a	n/a	n/a	n/a	n/a	"fixation"	n/a	n/a	n/a	n/a	"NULL"	n/a	"NULL"	"NULL"	"NULL"	"<p style=\"color: black; font-size: 80px; padding-left: 31%; padding-right: 44%; padding-top: 12%; padding-bottom: 12%\">+</p>"	"1181"	n/a	n/a	n/a	n/a	n/a	n/a	n/a	n/a	n/a
n/a	"image-keyboard-response"	"108"	"256505"	"0.0-5.0-2.0-1.27"	"oy7aww"	"600"	"1366"	"chrome"	"108.0.0"	"FALSE"	"Windows 10"	"60.59"	"122"	n/a	n/a	n/a	n/a	n/a	n/a	"Trial"	n/a	n/a	n/a	"648"	"arrowup"	n/a	"NULL"	"NULL"	"NULL"	"stimuli/MullerLyer_-2.3000_0.07627.png"	n/a	"MullerLyer"	"arrowup"	"1199"	"TRUE"	"MullerLyer"	"-2.300000000"	"0.0762700000"	"1"	"46"
n/a	"html-keyboard-response"	"109"	"257969"	"0.0-5.0-2.0-0.28"	"oy7aww"	"600"	"1366"	"chrome"	"108.0.0"	"FALSE"	"Windows 10"	"60.59"	"122"	n/a	n/a	n/a	n/a	n/a	n/a	"fixation"	n/a	n/a	n/a	n/a	"NULL"	n/a	"NULL"	"NULL"	"NULL"	"<p style=\"color: black; font-size: 80px; padding-left: 49%; padding-right: 5%; padding-top: 37%; padding-bottom: 5%\">+</p>"	"1450"	n/a	n/a	n/a	n/a	n/a	n/a	n/a	n/a	n/a
n/a	"image-keyboard-response"	"110"	"258396"	"0.0-5.0-2.0-1.28"	"oy7aww"	"600"	"1366"	"chrome"	"108.0.0"	"FALSE"	"Windows 10"	"60.59"	"122"	n/a	n/a	n/a	n/a	n/a	n/a	"Trial"	n/a	n/a	n/a	"426"	"arrowup"	n/a	"NULL"	"NULL"	"NULL"	"stimuli/MullerLyer_-20.04286_0.14541.png"	n/a	"MullerLyer"	"arrowup"	"1464"	"TRUE"	"MullerLyer"	"-20.04286000"	"0.1454100000"	"1"	"47"
n/a	"html-keyboard-response"	"111"	"259580"	"0.0-5.0-2.0-0.29"	"oy7aww"	"600"	"1366"	"chrome"	"108.0.0"	"FALSE"	"Windows 10"	"60.59"	"122"	n/a	n/a	n/a	n/a	n/a	n/a	"fixation"	n/a	n/a	n/a	n/a	"NULL"	n/a	"NULL"	"NULL"	"NULL"	"<p style=\"color: black; font-size: 80px; padding-left: 46%; padding-right: 21%; padding-top: 4%; padding-bottom: 29%\">+</p>"	"1171"	n/a	n/a	n/a	n/a	n/a	n/a	n/a	n/a	n/a
n/a	"image-keyboard-response"	"112"	"259966"	"0.0-5.0-2.0-1.29"	"oy7aww"	"600"	"1366"	"chrome"	"108.0.0"	"FALSE"	"Windows 10"	"60.59"	"122"	n/a	n/a	n/a	n/a	n/a	n/a	"Trial"	n/a	n/a	n/a	"385"	"arrowup"	n/a	"NULL"	"NULL"	"NULL"	"stimuli/MullerLyer_-14.12857_-0.14541.png"	n/a	"MullerLyer"	"arrowdown"	"1184"	"FALSE"	"MullerLyer"	"-14.12857000"	"-0.145410000"	"1"	"48"
n/a	"html-keyboard-response"	"113"	"261478"	"0.0-5.0-2.0-0.30"	"oy7aww"	"600"	"1366"	"chrome"	"108.0.0"	"FALSE"	"Windows 10"	"60.59"	"122"	n/a	n/a	n/a	n/a	n/a	n/a	"fixation"	n/a	n/a	n/a	n/a	"NULL"	n/a	"NULL"	"NULL"	"NULL"	"<p style=\"color: black; font-size: 80px; padding-left: 11%; padding-right: 29%; padding-top: 8%; padding-bottom: 29%\">+</p>"	"1496"	n/a	n/a	n/a	n/a	n/a	n/a	n/a	n/a	n/a
n/a	"image-keyboard-response"	"114"	"261936"	"0.0-5.0-2.0-1.30"	"oy7aww"	"600"	"1366"	"chrome"	"108.0.0"	"FALSE"	"Windows 10"	"60.59"	"122"	n/a	n/a	n/a	n/a	n/a	n/a	"Trial"	n/a	n/a	n/a	"456"	"arrowdown"	n/a	"NULL"	"NULL"	"NULL"	"stimuli/MullerLyer_-20.04286_-0.3500.png"	n/a	"MullerLyer"	"arrowdown"	"1512"	"TRUE"	"MullerLyer"	"-20.04286000"	"-0.350000000"	"1"	"49"
n/a	"html-keyboard-response"	"115"	"262968"	"0.0-5.0-2.0-0.31"	"oy7aww"	"600"	"1366"	"chrome"	"108.0.0"	"FALSE"	"Windows 10"	"60.59"	"122"	n/a	n/a	n/a	n/a	n/a	n/a	"fixation"	n/a	n/a	n/a	n/a	"NULL"	n/a	"NULL"	"NULL"	"NULL"	"<p style=\"color: black; font-size: 80px; padding-left: 28%; padding-right: 13%; padding-top: 5%; padding-bottom: 33%\">+</p>"	"1020"	n/a	n/a	n/a	n/a	n/a	n/a	n/a	n/a	n/a
n/a	"image-keyboard-response"	"116"	"263506"	"0.0-5.0-2.0-1.31"	"oy7aww"	"600"	"1366"	"chrome"	"108.0.0"	"FALSE"	"Windows 10"	"60.59"	"122"	n/a	n/a	n/a	n/a	n/a	n/a	"Trial"	n/a	n/a	n/a	"537"	"arrowdown"	n/a	"NULL"	"NULL"	"NULL"	"stimuli/MullerLyer_2.30000_-0.3500.png"	n/a	"MullerLyer"	"arrowdown"	"1032"	"TRUE"	"MullerLyer"	"2.3000000000"	"-0.350000000"	"1"	"50"
n/a	"html-keyboard-response"	"117"	"264819"	"0.0-5.0-2.0-0.32"	"oy7aww"	"600"	"1366"	"chrome"	"108.0.0"	"FALSE"	"Windows 10"	"60.59"	"122"	n/a	n/a	n/a	n/a	n/a	n/a	"fixation"	n/a	n/a	n/a	n/a	"NULL"	n/a	"NULL"	"NULL"	"NULL"	"<p style=\"color: black; font-size: 80px; padding-left: 21%; padding-right: 15%; padding-top: 41%; padding-bottom: 15%\">+</p>"	"1297"	n/a	n/a	n/a	n/a	n/a	n/a	n/a	n/a	n/a
n/a	"image-keyboard-response"	"118"	"265261"	"0.0-5.0-2.0-1.32"	"oy7aww"	"600"	"1366"	"chrome"	"108.0.0"	"FALSE"	"Windows 10"	"60.59"	"122"	n/a	n/a	n/a	n/a	n/a	n/a	"Trial"	n/a	n/a	n/a	"440"	"arrowdown"	n/a	"NULL"	"NULL"	"NULL"	"stimuli/MullerLyer_-20.04286_-0.14541.png"	n/a	"MullerLyer"	"arrowdown"	"1313"	"TRUE"	"MullerLyer"	"-20.04286000"	"-0.145410000"	"1"	"51"
n/a	"html-keyboard-response"	"119"	"266620"	"0.0-5.0-2.0-0.33"	"oy7aww"	"600"	"1366"	"chrome"	"108.0.0"	"FALSE"	"Windows 10"	"60.59"	"122"	n/a	n/a	n/a	n/a	n/a	n/a	"fixation"	n/a	n/a	n/a	n/a	"NULL"	n/a	"NULL"	"NULL"	"NULL"	"<p style=\"color: black; font-size: 80px; padding-left: 26%; padding-right: 42%; padding-top: 20%; padding-bottom: 47%\">+</p>"	"1341"	n/a	n/a	n/a	n/a	n/a	n/a	n/a	n/a	n/a
n/a	"image-keyboard-response"	"120"	"266987"	"0.0-5.0-2.0-1.33"	"oy7aww"	"600"	"1366"	"chrome"	"108.0.0"	"FALSE"	"Windows 10"	"60.59"	"122"	n/a	n/a	n/a	n/a	n/a	n/a	"Trial"	n/a	n/a	n/a	"366"	"arrowdown"	n/a	"NULL"	"NULL"	"NULL"	"stimuli/MullerLyer_20.04286_0.35000.png"	n/a	"MullerLyer"	"arrowup"	"1359"	"FALSE"	"MullerLyer"	"20.042860000"	"0.3500000000"	"1"	"52"
n/a	"html-keyboard-response"	"121"	"268027"	"0.0-5.0-2.0-0.34"	"oy7aww"	"600"	"1366"	"chrome"	"108.0.0"	"FALSE"	"Windows 10"	"60.59"	"122"	n/a	n/a	n/a	n/a	n/a	n/a	"fixation"	n/a	n/a	n/a	n/a	"NULL"	n/a	"NULL"	"NULL"	"NULL"	"<p style=\"color: black; font-size: 80px; padding-left: 13%; padding-right: 17%; padding-top: 43%; padding-bottom: 41%\">+</p>"	"1024"	n/a	n/a	n/a	n/a	n/a	n/a	n/a	n/a	n/a
n/a	"image-keyboard-response"	"122"	"268639"	"0.0-5.0-2.0-1.34"	"oy7aww"	"600"	"1366"	"chrome"	"108.0.0"	"FALSE"	"Windows 10"	"60.59"	"122"	n/a	n/a	n/a	n/a	n/a	n/a	"Trial"	n/a	n/a	n/a	"611"	"arrowup"	n/a	"NULL"	"NULL"	"NULL"	"stimuli/MullerLyer_-20.04286_0.35000.png"	n/a	"MullerLyer"	"arrowup"	"1040"	"TRUE"	"MullerLyer"	"-20.04286000"	"0.3500000000"	"1"	"53"
n/a	"html-keyboard-response"	"123"	"269780"	"0.0-5.0-2.0-0.35"	"oy7aww"	"600"	"1366"	"chrome"	"108.0.0"	"FALSE"	"Windows 10"	"60.59"	"122"	n/a	n/a	n/a	n/a	n/a	n/a	"fixation"	n/a	n/a	n/a	n/a	"NULL"	n/a	"NULL"	"NULL"	"NULL"	"<p style=\"color: black; font-size: 80px; padding-left: 43%; padding-right: 26%; padding-top: 25%; padding-bottom: 27%\">+</p>"	"1135"	n/a	n/a	n/a	n/a	n/a	n/a	n/a	n/a	n/a
n/a	"image-keyboard-response"	"124"	"270490"	"0.0-5.0-2.0-1.35"	"oy7aww"	"600"	"1366"	"chrome"	"108.0.0"	"FALSE"	"Windows 10"	"60.59"	"122"	n/a	n/a	n/a	n/a	n/a	n/a	"Trial"	n/a	n/a	n/a	"710"	"arrowup"	n/a	"NULL"	"NULL"	"NULL"	"stimuli/MullerLyer_2.30000_0.07627.png"	n/a	"MullerLyer"	"arrowup"	"1141"	"TRUE"	"MullerLyer"	"2.3000000000"	"0.0762700000"	"1"	"54"
n/a	"html-keyboard-response"	"125"	"271750"	"0.0-5.0-2.0-0.36"	"oy7aww"	"600"	"1366"	"chrome"	"108.0.0"	"FALSE"	"Windows 10"	"60.59"	"122"	n/a	n/a	n/a	n/a	n/a	n/a	"fixation"	n/a	n/a	n/a	n/a	"NULL"	n/a	"NULL"	"NULL"	"NULL"	"<p style=\"color: black; font-size: 80px; padding-left: 34%; padding-right: 19%; padding-top: 46%; padding-bottom: 6%\">+</p>"	"1252"	n/a	n/a	n/a	n/a	n/a	n/a	n/a	n/a	n/a
n/a	"image-keyboard-response"	"126"	"272312"	"0.0-5.0-2.0-1.36"	"oy7aww"	"600"	"1366"	"chrome"	"108.0.0"	"FALSE"	"Windows 10"	"60.59"	"122"	n/a	n/a	n/a	n/a	n/a	n/a	"Trial"	n/a	n/a	n/a	"561"	"arrowdown"	n/a	"NULL"	"NULL"	"NULL"	"stimuli/MullerLyer_-2.3000_-0.23665.png"	n/a	"MullerLyer"	"arrowdown"	"1260"	"TRUE"	"MullerLyer"	"-2.300000000"	"-0.236650000"	"1"	"55"
n/a	"html-keyboard-response"	"127"	"273797"	"0.0-5.0-2.0-0.37"	"oy7aww"	"600"	"1366"	"chrome"	"108.0.0"	"FALSE"	"Windows 10"	"60.59"	"122"	n/a	n/a	n/a	n/a	n/a	n/a	"fixation"	n/a	n/a	n/a	n/a	"NULL"	n/a	"NULL"	"NULL"	"NULL"	"<p style=\"color: black; font-size: 80px; padding-left: 22%; padding-right: 30%; padding-top: 16%; padding-bottom: 12%\">+</p>"	"1467"	n/a	n/a	n/a	n/a	n/a	n/a	n/a	n/a	n/a
n/a	"image-keyboard-response"	"128"	"274601"	"0.0-5.0-2.0-1.37"	"oy7aww"	"600"	"1366"	"chrome"	"108.0.0"	"FALSE"	"Windows 10"	"60.59"	"122"	n/a	n/a	n/a	n/a	n/a	n/a	"Trial"	n/a	n/a	n/a	"803"	"arrowup"	n/a	"NULL"	"NULL"	"NULL"	"stimuli/MullerLyer_14.12857_0.23665.png"	n/a	"MullerLyer"	"arrowup"	"1485"	"TRUE"	"MullerLyer"	"14.128570000"	"0.2366500000"	"1"	"56"
n/a	"html-keyboard-response"	"129"	"275997"	"0.0-5.0-2.0-0.38"	"oy7aww"	"600"	"1366"	"chrome"	"108.0.0"	"FALSE"	"Windows 10"	"60.59"	"122"	n/a	n/a	n/a	n/a	n/a	n/a	"fixation"	n/a	n/a	n/a	n/a	"NULL"	n/a	"NULL"	"NULL"	"NULL"	"<p style=\"color: black; font-size: 80px; padding-left: 8%; padding-right: 26%; padding-top: 28%; padding-bottom: 6%\">+</p>"	"1383"	n/a	n/a	n/a	n/a	n/a	n/a	n/a	n/a	n/a
n/a	"image-keyboard-response"	"130"	"276508"	"0.0-5.0-2.0-1.38"	"oy7aww"	"600"	"1366"	"chrome"	"108.0.0"	"FALSE"	"Windows 10"	"60.59"	"122"	n/a	n/a	n/a	n/a	n/a	n/a	"Trial"	n/a	n/a	n/a	"510"	"arrowup"	n/a	"NULL"	"NULL"	"NULL"	"stimuli/MullerLyer_-8.21429_0.23665.png"	n/a	"MullerLyer"	"arrowup"	"1396"	"TRUE"	"MullerLyer"	"-8.214290000"	"0.2366500000"	"1"	"57"
n/a	"html-keyboard-response"	"131"	"277984"	"0.0-5.0-2.0-0.39"	"oy7aww"	"600"	"1366"	"chrome"	"108.0.0"	"FALSE"	"Windows 10"	"60.59"	"122"	n/a	n/a	n/a	n/a	n/a	n/a	"fixation"	n/a	n/a	n/a	n/a	"NULL"	n/a	"NULL"	"NULL"	"NULL"	"<p style=\"color: black; font-size: 80px; padding-left: 47%; padding-right: 35%; padding-top: 9%; padding-bottom: 46%\">+</p>"	"1466"	n/a	n/a	n/a	n/a	n/a	n/a	n/a	n/a	n/a
n/a	"image-keyboard-response"	"132"	"278442"	"0.0-5.0-2.0-1.39"	"oy7aww"	"600"	"1366"	"chrome"	"108.0.0"	"FALSE"	"Windows 10"	"60.59"	"122"	n/a	n/a	n/a	n/a	n/a	n/a	"Trial"	n/a	n/a	n/a	"457"	"arrowup"	n/a	"NULL"	"NULL"	"NULL"	"stimuli/MullerLyer_2.30000_0.35000.png"	n/a	"MullerLyer"	"arrowup"	"1476"	"TRUE"	"MullerLyer"	"2.3000000000"	"0.3500000000"	"1"	"58"
n/a	"html-keyboard-response"	"133"	"279469"	"0.0-5.0-2.0-0.40"	"oy7aww"	"600"	"1366"	"chrome"	"108.0.0"	"FALSE"	"Windows 10"	"60.59"	"122"	n/a	n/a	n/a	n/a	n/a	n/a	"fixation"	n/a	n/a	n/a	n/a	"NULL"	n/a	"NULL"	"NULL"	"NULL"	"<p style=\"color: black; font-size: 80px; padding-left: 20%; padding-right: 23%; padding-top: 32%; padding-bottom: 43%\">+</p>"	"1013"	n/a	n/a	n/a	n/a	n/a	n/a	n/a	n/a	n/a
n/a	"image-keyboard-response"	"134"	"280060"	"0.0-5.0-2.0-1.40"	"oy7aww"	"600"	"1366"	"chrome"	"108.0.0"	"FALSE"	"Windows 10"	"60.59"	"122"	n/a	n/a	n/a	n/a	n/a	n/a	"Trial"	n/a	n/a	n/a	"590"	"arrowup"	n/a	"NULL"	"NULL"	"NULL"	"stimuli/MullerLyer_-14.12857_0.14541.png"	n/a	"MullerLyer"	"arrowup"	"1027"	"TRUE"	"MullerLyer"	"-14.12857000"	"0.1454100000"	"1"	"59"
n/a	"html-keyboard-response"	"135"	"281536"	"0.0-5.0-2.0-0.41"	"oy7aww"	"600"	"1366"	"chrome"	"108.0.0"	"FALSE"	"Windows 10"	"60.59"	"122"	n/a	n/a	n/a	n/a	n/a	n/a	"fixation"	n/a	n/a	n/a	n/a	"NULL"	n/a	"NULL"	"NULL"	"NULL"	"<p style=\"color: black; font-size: 80px; padding-left: 10%; padding-right: 19%; padding-top: 24%; padding-bottom: 29%\">+</p>"	"1461"	n/a	n/a	n/a	n/a	n/a	n/a	n/a	n/a	n/a
n/a	"image-keyboard-response"	"136"	"281961"	"0.0-5.0-2.0-1.41"	"oy7aww"	"600"	"1366"	"chrome"	"108.0.0"	"FALSE"	"Windows 10"	"60.59"	"122"	n/a	n/a	n/a	n/a	n/a	n/a	"Trial"	n/a	n/a	n/a	"424"	"arrowup"	n/a	"NULL"	"NULL"	"NULL"	"stimuli/MullerLyer_8.21429_0.23665.png"	n/a	"MullerLyer"	"arrowup"	"1476"	"TRUE"	"MullerLyer"	"8.2142900000"	"0.2366500000"	"1"	"60"
n/a	"html-keyboard-response"	"137"	"283273"	"0.0-5.0-2.0-0.42"	"oy7aww"	"600"	"1366"	"chrome"	"108.0.0"	"FALSE"	"Windows 10"	"60.59"	"122"	n/a	n/a	n/a	n/a	n/a	n/a	"fixation"	n/a	n/a	n/a	n/a	"NULL"	n/a	"NULL"	"NULL"	"NULL"	"<p style=\"color: black; font-size: 80px; padding-left: 26%; padding-right: 34%; padding-top: 10%; padding-bottom: 9%\">+</p>"	"1295"	n/a	n/a	n/a	n/a	n/a	n/a	n/a	n/a	n/a
n/a	"image-keyboard-response"	"138"	"283662"	"0.0-5.0-2.0-1.42"	"oy7aww"	"600"	"1366"	"chrome"	"108.0.0"	"FALSE"	"Windows 10"	"60.59"	"122"	n/a	n/a	n/a	n/a	n/a	n/a	"Trial"	n/a	n/a	n/a	"388"	"arrowup"	n/a	"NULL"	"NULL"	"NULL"	"stimuli/MullerLyer_8.21429_0.35000.png"	n/a	"MullerLyer"	"arrowup"	"1312"	"TRUE"	"MullerLyer"	"8.2142900000"	"0.3500000000"	"1"	"61"
n/a	"html-keyboard-response"	"139"	"285170"	"0.0-5.0-2.0-0.43"	"oy7aww"	"600"	"1366"	"chrome"	"108.0.0"	"FALSE"	"Windows 10"	"60.59"	"122"	n/a	n/a	n/a	n/a	n/a	n/a	"fixation"	n/a	n/a	n/a	n/a	"NULL"	n/a	"NULL"	"NULL"	"NULL"	"<p style=\"color: black; font-size: 80px; padding-left: 46%; padding-right: 41%; padding-top: 29%; padding-bottom: 5%\">+</p>"	"1492"	n/a	n/a	n/a	n/a	n/a	n/a	n/a	n/a	n/a
n/a	"image-keyboard-response"	"140"	"286626"	"0.0-5.0-2.0-1.43"	"oy7aww"	"600"	"1366"	"chrome"	"108.0.0"	"FALSE"	"Windows 10"	"60.59"	"122"	n/a	n/a	n/a	n/a	n/a	n/a	"Trial"	n/a	n/a	n/a	"1456"	"arrowdown"	n/a	"NULL"	"NULL"	"NULL"	"stimuli/MullerLyer_-20.04286_-0.23665.png"	n/a	"MullerLyer"	"arrowdown"	"1508"	"TRUE"	"MullerLyer"	"-20.04286000"	"-0.236650000"	"1"	"62"
n/a	"html-keyboard-response"	"141"	"287672"	"0.0-5.0-2.0-0.44"	"oy7aww"	"600"	"1366"	"chrome"	"108.0.0"	"FALSE"	"Windows 10"	"60.59"	"122"	n/a	n/a	n/a	n/a	n/a	n/a	"fixation"	n/a	n/a	n/a	n/a	"NULL"	n/a	"NULL"	"NULL"	"NULL"	"<p style=\"color: black; font-size: 80px; padding-left: 12%; padding-right: 41%; padding-top: 2%; padding-bottom: 2%\">+</p>"	"1036"	n/a	n/a	n/a	n/a	n/a	n/a	n/a	n/a	n/a
n/a	"image-keyboard-response"	"142"	"288210"	"0.0-5.0-2.0-1.44"	"oy7aww"	"600"	"1366"	"chrome"	"108.0.0"	"FALSE"	"Windows 10"	"60.59"	"122"	n/a	n/a	n/a	n/a	n/a	n/a	"Trial"	n/a	n/a	n/a	"537"	"arrowdown"	n/a	"NULL"	"NULL"	"NULL"	"stimuli/MullerLyer_-20.04286_-0.07627.png"	n/a	"MullerLyer"	"arrowdown"	"1046"	"TRUE"	"MullerLyer"	"-20.04286000"	"-0.076270000"	"1"	"63"
n/a	"html-keyboard-response"	"143"	"289568"	"0.0-5.0-2.0-0.45"	"oy7aww"	"600"	"1366"	"chrome"	"108.0.0"	"FALSE"	"Windows 10"	"60.59"	"122"	n/a	n/a	n/a	n/a	n/a	n/a	"fixation"	n/a	n/a	n/a	n/a	"NULL"	n/a	"NULL"	"NULL"	"NULL"	"<p style=\"color: black; font-size: 80px; padding-left: 43%; padding-right: 21%; padding-top: 15%; padding-bottom: 18%\">+</p>"	"1352"	n/a	n/a	n/a	n/a	n/a	n/a	n/a	n/a	n/a
n/a	"image-keyboard-response"	"144"	"290156"	"0.0-5.0-2.0-1.45"	"oy7aww"	"600"	"1366"	"chrome"	"108.0.0"	"FALSE"	"Windows 10"	"60.59"	"122"	n/a	n/a	n/a	n/a	n/a	n/a	"Trial"	n/a	n/a	n/a	"587"	"arrowdown"	n/a	"NULL"	"NULL"	"NULL"	"stimuli/MullerLyer_-8.21429_-0.07627.png"	n/a	"MullerLyer"	"arrowdown"	"1358"	"TRUE"	"MullerLyer"	"-8.214290000"	"-0.076270000"	"1"	"64"
n/a	"html-keyboard-response"	"145"	"291442"	"0.0-5.0-2.0-0.46"	"oy7aww"	"600"	"1366"	"chrome"	"108.0.0"	"FALSE"	"Windows 10"	"60.59"	"122"	n/a	n/a	n/a	n/a	n/a	n/a	"fixation"	n/a	n/a	n/a	n/a	"NULL"	n/a	"NULL"	"NULL"	"NULL"	"<p style=\"color: black; font-size: 80px; padding-left: 38%; padding-right: 4%; padding-top: 25%; padding-bottom: 48%\">+</p>"	"1275"	n/a	n/a	n/a	n/a	n/a	n/a	n/a	n/a	n/a
n/a	"image-keyboard-response"	"146"	"292016"	"0.0-5.0-2.0-1.46"	"oy7aww"	"600"	"1366"	"chrome"	"108.0.0"	"FALSE"	"Windows 10"	"60.59"	"122"	n/a	n/a	n/a	n/a	n/a	n/a	"Trial"	n/a	n/a	n/a	"573"	"arrowup"	n/a	"NULL"	"NULL"	"NULL"	"stimuli/MullerLyer_-14.12857_0.23665.png"	n/a	"MullerLyer"	"arrowup"	"1286"	"TRUE"	"MullerLyer"	"-14.12857000"	"0.2366500000"	"1"	"65"
n/a	"html-keyboard-response"	"147"	"293290"	"0.0-5.0-2.0-0.47"	"oy7aww"	"600"	"1366"	"chrome"	"108.0.0"	"FALSE"	"Windows 10"	"60.59"	"122"	n/a	n/a	n/a	n/a	n/a	n/a	"fixation"	n/a	n/a	n/a	n/a	"NULL"	n/a	"NULL"	"NULL"	"NULL"	"<p style=\"color: black; font-size: 80px; padding-left: 15%; padding-right: 48%; padding-top: 32%; padding-bottom: 17%\">+</p>"	"1260"	n/a	n/a	n/a	n/a	n/a	n/a	n/a	n/a	n/a
n/a	"image-keyboard-response"	"148"	"294681"	"0.0-5.0-2.0-1.47"	"oy7aww"	"600"	"1366"	"chrome"	"108.0.0"	"FALSE"	"Windows 10"	"60.59"	"122"	n/a	n/a	n/a	n/a	n/a	n/a	"Trial"	n/a	n/a	n/a	"1391"	"arrowdown"	n/a	"NULL"	"NULL"	"NULL"	"stimuli/MullerLyer_2.30000_-0.23665.png"	n/a	"MullerLyer"	"arrowdown"	"1274"	"TRUE"	"MullerLyer"	"2.3000000000"	"-0.236650000"	"1"	"66"
n/a	"html-keyboard-response"	"149"	"295977"	"0.0-5.0-2.0-0.48"	"oy7aww"	"600"	"1366"	"chrome"	"108.0.0"	"FALSE"	"Windows 10"	"60.59"	"122"	n/a	n/a	n/a	n/a	n/a	n/a	"fixation"	n/a	n/a	n/a	n/a	"NULL"	n/a	"NULL"	"NULL"	"NULL"	"<p style=\"color: black; font-size: 80px; padding-left: 26%; padding-right: 33%; padding-top: 9%; padding-bottom: 9%\">+</p>"	"1290"	n/a	n/a	n/a	n/a	n/a	n/a	n/a	n/a	n/a
n/a	"image-keyboard-response"	"150"	"296835"	"0.0-5.0-2.0-1.48"	"oy7aww"	"600"	"1366"	"chrome"	"108.0.0"	"FALSE"	"Windows 10"	"60.59"	"122"	n/a	n/a	n/a	n/a	n/a	n/a	"Trial"	n/a	n/a	n/a	"857"	"arrowdown"	n/a	"NULL"	"NULL"	"NULL"	"stimuli/MullerLyer_2.30000_-0.14541.png"	n/a	"MullerLyer"	"arrowdown"	"1296"	"TRUE"	"MullerLyer"	"2.3000000000"	"-0.145410000"	"1"	"67"
n/a	"html-keyboard-response"	"151"	"298304"	"0.0-5.0-2.0-0.49"	"oy7aww"	"600"	"1366"	"chrome"	"108.0.0"	"FALSE"	"Windows 10"	"60.59"	"122"	n/a	n/a	n/a	n/a	n/a	n/a	"fixation"	n/a	n/a	n/a	n/a	"NULL"	n/a	"NULL"	"NULL"	"NULL"	"<p style=\"color: black; font-size: 80px; padding-left: 13%; padding-right: 33%; padding-top: 31%; padding-bottom: 2%\">+</p>"	"1465"	n/a	n/a	n/a	n/a	n/a	n/a	n/a	n/a	n/a
n/a	"image-keyboard-response"	"152"	"298942"	"0.0-5.0-2.0-1.49"	"oy7aww"	"600"	"1366"	"chrome"	"108.0.0"	"FALSE"	"Windows 10"	"60.59"	"122"	n/a	n/a	n/a	n/a	n/a	n/a	"Trial"	n/a	n/a	n/a	"637"	"arrowup"	n/a	"NULL"	"NULL"	"NULL"	"stimuli/MullerLyer_20.04286_-0.07627.png"	n/a	"MullerLyer"	"arrowdown"	"1469"	"FALSE"	"MullerLyer"	"20.042860000"	"-0.076270000"	"1"	"68"
n/a	"html-keyboard-response"	"153"	"300429"	"0.0-5.0-2.0-0.50"	"oy7aww"	"600"	"1366"	"chrome"	"108.0.0"	"FALSE"	"Windows 10"	"60.59"	"122"	n/a	n/a	n/a	n/a	n/a	n/a	"fixation"	n/a	n/a	n/a	n/a	"NULL"	n/a	"NULL"	"NULL"	"NULL"	"<p style=\"color: black; font-size: 80px; padding-left: 48%; padding-right: 36%; padding-top: 49%; padding-bottom: 45%\">+</p>"	"1468"	n/a	n/a	n/a	n/a	n/a	n/a	n/a	n/a	n/a
n/a	"image-keyboard-response"	"154"	"300889"	"0.0-5.0-2.0-1.50"	"oy7aww"	"600"	"1366"	"chrome"	"108.0.0"	"FALSE"	"Windows 10"	"60.59"	"122"	n/a	n/a	n/a	n/a	n/a	n/a	"Trial"	n/a	n/a	n/a	"460"	"arrowup"	n/a	"NULL"	"NULL"	"NULL"	"stimuli/MullerLyer_-8.21429_0.35000.png"	n/a	"MullerLyer"	"arrowup"	"1487"	"TRUE"	"MullerLyer"	"-8.214290000"	"0.3500000000"	"1"	"69"
n/a	"html-keyboard-response"	"155"	"302071"	"0.0-5.0-2.0-0.51"	"oy7aww"	"600"	"1366"	"chrome"	"108.0.0"	"FALSE"	"Windows 10"	"60.59"	"122"	n/a	n/a	n/a	n/a	n/a	n/a	"fixation"	n/a	n/a	n/a	n/a	"NULL"	n/a	"NULL"	"NULL"	"NULL"	"<p style=\"color: black; font-size: 80px; padding-left: 47%; padding-right: 10%; padding-top: 0%; padding-bottom: 42%\">+</p>"	"1169"	n/a	n/a	n/a	n/a	n/a	n/a	n/a	n/a	n/a
n/a	"image-keyboard-response"	"156"	"303441"	"0.0-5.0-2.0-1.51"	"oy7aww"	"600"	"1366"	"chrome"	"108.0.0"	"FALSE"	"Windows 10"	"60.59"	"122"	n/a	n/a	n/a	n/a	n/a	n/a	"Trial"	n/a	n/a	n/a	"1368"	"arrowup"	n/a	"NULL"	"NULL"	"NULL"	"stimuli/MullerLyer_20.04286_-0.23665.png"	n/a	"MullerLyer"	"arrowdown"	"1182"	"FALSE"	"MullerLyer"	"20.042860000"	"-0.236650000"	"1"	"70"
n/a	"html-keyboard-response"	"157"	"304886"	"0.0-5.0-2.0-0.52"	"oy7aww"	"600"	"1366"	"chrome"	"108.0.0"	"FALSE"	"Windows 10"	"60.59"	"122"	n/a	n/a	n/a	n/a	n/a	n/a	"fixation"	n/a	n/a	n/a	n/a	"NULL"	n/a	"NULL"	"NULL"	"NULL"	"<p style=\"color: black; font-size: 80px; padding-left: 31%; padding-right: 25%; padding-top: 5%; padding-bottom: 49%\">+</p>"	"1426"	n/a	n/a	n/a	n/a	n/a	n/a	n/a	n/a	n/a
n/a	"image-keyboard-response"	"158"	"305408"	"0.0-5.0-2.0-1.52"	"oy7aww"	"600"	"1366"	"chrome"	"108.0.0"	"FALSE"	"Windows 10"	"60.59"	"122"	n/a	n/a	n/a	n/a	n/a	n/a	"Trial"	n/a	n/a	n/a	"521"	"arrowup"	n/a	"NULL"	"NULL"	"NULL"	"stimuli/MullerLyer_2.30000_0.23665.png"	n/a	"MullerLyer"	"arrowup"	"1445"	"TRUE"	"MullerLyer"	"2.3000000000"	"0.2366500000"	"1"	"71"
n/a	"html-keyboard-response"	"159"	"306460"	"0.0-5.0-2.0-0.53"	"oy7aww"	"600"	"1366"	"chrome"	"108.0.0"	"FALSE"	"Windows 10"	"60.59"	"122"	n/a	n/a	n/a	n/a	n/a	n/a	"fixation"	n/a	n/a	n/a	n/a	"NULL"	n/a	"NULL"	"NULL"	"NULL"	"<p style=\"color: black; font-size: 80px; padding-left: 36%; padding-right: 39%; padding-top: 24%; padding-bottom: 46%\">+</p>"	"1039"	n/a	n/a	n/a	n/a	n/a	n/a	n/a	n/a	n/a
n/a	"image-keyboard-response"	"160"	"307564"	"0.0-5.0-2.0-1.53"	"oy7aww"	"600"	"1366"	"chrome"	"108.0.0"	"FALSE"	"Windows 10"	"60.59"	"122"	n/a	n/a	n/a	n/a	n/a	n/a	"Trial"	n/a	n/a	n/a	"1103"	"arrowdown"	n/a	"NULL"	"NULL"	"NULL"	"stimuli/MullerLyer_8.21429_-0.3500.png"	n/a	"MullerLyer"	"arrowdown"	"1052"	"TRUE"	"MullerLyer"	"8.2142900000"	"-0.350000000"	"1"	"72"
n/a	"html-keyboard-response"	"161"	"308715"	"0.0-5.0-2.0-0.54"	"oy7aww"	"600"	"1366"	"chrome"	"108.0.0"	"FALSE"	"Windows 10"	"60.59"	"122"	n/a	n/a	n/a	n/a	n/a	n/a	"fixation"	n/a	n/a	n/a	n/a	"NULL"	n/a	"NULL"	"NULL"	"NULL"	"<p style=\"color: black; font-size: 80px; padding-left: 43%; padding-right: 37%; padding-top: 25%; padding-bottom: 27%\">+</p>"	"1137"	n/a	n/a	n/a	n/a	n/a	n/a	n/a	n/a	n/a
n/a	"image-keyboard-response"	"162"	"309324"	"0.0-5.0-2.0-1.54"	"oy7aww"	"600"	"1366"	"chrome"	"108.0.0"	"FALSE"	"Windows 10"	"60.59"	"122"	n/a	n/a	n/a	n/a	n/a	n/a	"Trial"	n/a	n/a	n/a	"608"	"arrowup"	n/a	"NULL"	"NULL"	"NULL"	"stimuli/MullerLyer_-8.21429_0.14541.png"	n/a	"MullerLyer"	"arrowup"	"1151"	"TRUE"	"MullerLyer"	"-8.214290000"	"0.1454100000"	"1"	"73"
n/a	"html-keyboard-response"	"163"	"310590"	"0.0-5.0-2.0-0.55"	"oy7aww"	"600"	"1366"	"chrome"	"108.0.0"	"FALSE"	"Windows 10"	"60.59"	"122"	n/a	n/a	n/a	n/a	n/a	n/a	"fixation"	n/a	n/a	n/a	n/a	"NULL"	n/a	"NULL"	"NULL"	"NULL"	"<p style=\"color: black; font-size: 80px; padding-left: 47%; padding-right: 15%; padding-top: 25%; padding-bottom: 3%\">+</p>"	"1251"	n/a	n/a	n/a	n/a	n/a	n/a	n/a	n/a	n/a
n/a	"image-keyboard-response"	"164"	"312975"	"0.0-5.0-2.0-1.55"	"oy7aww"	"600"	"1366"	"chrome"	"108.0.0"	"FALSE"	"Windows 10"	"60.59"	"122"	n/a	n/a	n/a	n/a	n/a	n/a	"Trial"	n/a	n/a	n/a	"2385"	"arrowdown"	n/a	"NULL"	"NULL"	"NULL"	"stimuli/MullerLyer_8.21429_-0.14541.png"	n/a	"MullerLyer"	"arrowdown"	"1266"	"TRUE"	"MullerLyer"	"8.2142900000"	"-0.145410000"	"1"	"74"
n/a	"html-keyboard-response"	"165"	"314212"	"0.0-5.0-2.0-0.56"	"oy7aww"	"600"	"1366"	"chrome"	"108.0.0"	"FALSE"	"Windows 10"	"60.59"	"122"	n/a	n/a	n/a	n/a	n/a	n/a	"fixation"	n/a	n/a	n/a	n/a	"NULL"	n/a	"NULL"	"NULL"	"NULL"	"<p style=\"color: black; font-size: 80px; padding-left: 3%; padding-right: 26%; padding-top: 23%; padding-bottom: 39%\">+</p>"	"1229"	n/a	n/a	n/a	n/a	n/a	n/a	n/a	n/a	n/a
n/a	"image-keyboard-response"	"166"	"314751"	"0.0-5.0-2.0-1.56"	"oy7aww"	"600"	"1366"	"chrome"	"108.0.0"	"FALSE"	"Windows 10"	"60.59"	"122"	n/a	n/a	n/a	n/a	n/a	n/a	"Trial"	n/a	n/a	n/a	"537"	"arrowup"	n/a	"NULL"	"NULL"	"NULL"	"stimuli/MullerLyer_-2.3000_0.14541.png"	n/a	"MullerLyer"	"arrowup"	"1237"	"TRUE"	"MullerLyer"	"-2.300000000"	"0.1454100000"	"1"	"75"
n/a	"html-keyboard-response"	"167"	"316030"	"0.0-5.0-2.0-0.57"	"oy7aww"	"600"	"1366"	"chrome"	"108.0.0"	"FALSE"	"Windows 10"	"60.59"	"122"	n/a	n/a	n/a	n/a	n/a	n/a	"fixation"	n/a	n/a	n/a	n/a	"NULL"	n/a	"NULL"	"NULL"	"NULL"	"<p style=\"color: black; font-size: 80px; padding-left: 16%; padding-right: 19%; padding-top: 9%; padding-bottom: 23%\">+</p>"	"1267"	n/a	n/a	n/a	n/a	n/a	n/a	n/a	n/a	n/a
n/a	"image-keyboard-response"	"168"	"316664"	"0.0-5.0-2.0-1.57"	"oy7aww"	"600"	"1366"	"chrome"	"108.0.0"	"FALSE"	"Windows 10"	"60.59"	"122"	n/a	n/a	n/a	n/a	n/a	n/a	"Trial"	n/a	n/a	n/a	"633"	"arrowup"	n/a	"NULL"	"NULL"	"NULL"	"stimuli/MullerLyer_14.12857_0.35000.png"	n/a	"MullerLyer"	"arrowup"	"1279"	"TRUE"	"MullerLyer"	"14.128570000"	"0.3500000000"	"1"	"76"
n/a	"html-keyboard-response"	"169"	"317937"	"0.0-5.0-2.0-0.58"	"oy7aww"	"600"	"1366"	"chrome"	"108.0.0"	"FALSE"	"Windows 10"	"60.59"	"122"	n/a	n/a	n/a	n/a	n/a	n/a	"fixation"	n/a	n/a	n/a	n/a	"NULL"	n/a	"NULL"	"NULL"	"NULL"	"<p style=\"color: black; font-size: 80px; padding-left: 49%; padding-right: 49%; padding-top: 37%; padding-bottom: 32%\">+</p>"	"1270"	n/a	n/a	n/a	n/a	n/a	n/a	n/a	n/a	n/a
n/a	"image-keyboard-response"	"170"	"318526"	"0.0-5.0-2.0-1.58"	"oy7aww"	"600"	"1366"	"chrome"	"108.0.0"	"FALSE"	"Windows 10"	"60.59"	"122"	n/a	n/a	n/a	n/a	n/a	n/a	"Trial"	n/a	n/a	n/a	"589"	"arrowdown"	n/a	"NULL"	"NULL"	"NULL"	"stimuli/MullerLyer_-14.12857_-0.23665.png"	n/a	"MullerLyer"	"arrowdown"	"1273"	"TRUE"	"MullerLyer"	"-14.12857000"	"-0.236650000"	"1"	"77"
n/a	"html-keyboard-response"	"171"	"319789"	"0.0-5.0-2.0-0.59"	"oy7aww"	"600"	"1366"	"chrome"	"108.0.0"	"FALSE"	"Windows 10"	"60.59"	"122"	n/a	n/a	n/a	n/a	n/a	n/a	"fixation"	n/a	n/a	n/a	n/a	"NULL"	n/a	"NULL"	"NULL"	"NULL"	"<p style=\"color: black; font-size: 80px; padding-left: 39%; padding-right: 9%; padding-top: 1%; padding-bottom: 17%\">+</p>"	"1252"	n/a	n/a	n/a	n/a	n/a	n/a	n/a	n/a	n/a
n/a	"image-keyboard-response"	"172"	"320341"	"0.0-5.0-2.0-1.59"	"oy7aww"	"600"	"1366"	"chrome"	"108.0.0"	"FALSE"	"Windows 10"	"60.59"	"122"	n/a	n/a	n/a	n/a	n/a	n/a	"Trial"	n/a	n/a	n/a	"551"	"arrowdown"	n/a	"NULL"	"NULL"	"NULL"	"stimuli/MullerLyer_-8.21429_-0.3500.png"	n/a	"MullerLyer"	"arrowdown"	"1263"	"TRUE"	"MullerLyer"	"-8.214290000"	"-0.350000000"	"1"	"78"
n/a	"html-keyboard-response"	"173"	"321558"	"0.0-5.0-2.0-0.60"	"oy7aww"	"600"	"1366"	"chrome"	"108.0.0"	"FALSE"	"Windows 10"	"60.59"	"122"	n/a	n/a	n/a	n/a	n/a	n/a	"fixation"	n/a	n/a	n/a	n/a	"NULL"	n/a	"NULL"	"NULL"	"NULL"	"<p style=\"color: black; font-size: 80px; padding-left: 37%; padding-right: 41%; padding-top: 26%; padding-bottom: 7%\">+</p>"	"1208"	n/a	n/a	n/a	n/a	n/a	n/a	n/a	n/a	n/a
n/a	"image-keyboard-response"	"174"	"322642"	"0.0-5.0-2.0-1.60"	"oy7aww"	"600"	"1366"	"chrome"	"108.0.0"	"FALSE"	"Windows 10"	"60.59"	"122"	n/a	n/a	n/a	n/a	n/a	n/a	"Trial"	n/a	n/a	n/a	"1083"	"arrowup"	n/a	"NULL"	"NULL"	"NULL"	"stimuli/MullerLyer_14.12857_-0.23665.png"	n/a	"MullerLyer"	"arrowdown"	"1217"	"FALSE"	"MullerLyer"	"14.128570000"	"-0.236650000"	"1"	"79"
n/a	"html-keyboard-response"	"175"	"323936"	"0.0-5.0-2.0-0.61"	"oy7aww"	"600"	"1366"	"chrome"	"108.0.0"	"FALSE"	"Windows 10"	"60.59"	"122"	n/a	n/a	n/a	n/a	n/a	n/a	"fixation"	n/a	n/a	n/a	n/a	"NULL"	n/a	"NULL"	"NULL"	"NULL"	"<p style=\"color: black; font-size: 80px; padding-left: 24%; padding-right: 7%; padding-top: 15%; padding-bottom: 29%\">+</p>"	"1282"	n/a	n/a	n/a	n/a	n/a	n/a	n/a	n/a	n/a
n/a	"image-keyboard-response"	"176"	"324831"	"0.0-5.0-2.0-1.61"	"oy7aww"	"600"	"1366"	"chrome"	"108.0.0"	"FALSE"	"Windows 10"	"60.59"	"122"	n/a	n/a	n/a	n/a	n/a	n/a	"Trial"	n/a	n/a	n/a	"894"	"arrowup"	n/a	"NULL"	"NULL"	"NULL"	"stimuli/MullerLyer_8.21429_-0.07627.png"	n/a	"MullerLyer"	"arrowdown"	"1294"	"FALSE"	"MullerLyer"	"8.2142900000"	"-0.076270000"	"1"	"80"
n/a	"html-keyboard-response"	"177"	"326132"	"0.0-5.0-2.0-0.62"	"oy7aww"	"600"	"1366"	"chrome"	"108.0.0"	"FALSE"	"Windows 10"	"60.59"	"122"	n/a	n/a	n/a	n/a	n/a	n/a	"fixation"	n/a	n/a	n/a	n/a	"NULL"	n/a	"NULL"	"NULL"	"NULL"	"<p style=\"color: black; font-size: 80px; padding-left: 23%; padding-right: 44%; padding-top: 4%; padding-bottom: 47%\">+</p>"	"1293"	n/a	n/a	n/a	n/a	n/a	n/a	n/a	n/a	n/a
n/a	"image-keyboard-response"	"178"	"327345"	"0.0-5.0-2.0-1.62"	"oy7aww"	"600"	"1366"	"chrome"	"108.0.0"	"FALSE"	"Windows 10"	"60.59"	"122"	n/a	n/a	n/a	n/a	n/a	n/a	"Trial"	n/a	n/a	n/a	"1212"	"arrowdown"	n/a	"NULL"	"NULL"	"NULL"	"stimuli/MullerLyer_14.12857_0.14541.png"	n/a	"MullerLyer"	"arrowup"	"1301"	"FALSE"	"MullerLyer"	"14.128570000"	"0.1454100000"	"1"	"81"
n/a	"html-keyboard-response"	"179"	"328557"	"0.0-5.0-2.0-0.63"	"oy7aww"	"600"	"1366"	"chrome"	"108.0.0"	"FALSE"	"Windows 10"	"60.59"	"122"	n/a	n/a	n/a	n/a	n/a	n/a	"fixation"	n/a	n/a	n/a	n/a	"NULL"	n/a	"NULL"	"NULL"	"NULL"	"<p style=\"color: black; font-size: 80px; padding-left: 31%; padding-right: 16%; padding-top: 10%; padding-bottom: 9%\">+</p>"	"1195"	n/a	n/a	n/a	n/a	n/a	n/a	n/a	n/a	n/a
n/a	"image-keyboard-response"	"180"	"329125"	"0.0-5.0-2.0-1.63"	"oy7aww"	"600"	"1366"	"chrome"	"108.0.0"	"FALSE"	"Windows 10"	"60.59"	"122"	n/a	n/a	n/a	n/a	n/a	n/a	"Trial"	n/a	n/a	n/a	"568"	"arrowdown"	n/a	"NULL"	"NULL"	"NULL"	"stimuli/MullerLyer_-8.21429_-0.23665.png"	n/a	"MullerLyer"	"arrowdown"	"1212"	"TRUE"	"MullerLyer"	"-8.214290000"	"-0.236650000"	"1"	"82"
n/a	"html-button-response"	"181"	"350235"	"0.0-5.0-3.0"	"oy7aww"	"600"	"1366"	"chrome"	"108.0.0"	"FALSE"	"Windows 10"	"60.59"	"122"	n/a	n/a	n/a	n/a	n/a	n/a	"block_results"	n/a	n/a	n/a	"21107"	"0"	n/a	"NULL"	"NULL"	"NULL"	"<p>Your score for this illusion is <p style=\"color: black; font-size: 48px; font-weight: bold;\">73.9 %</p><hr><p>Can you do better in the next illusion?</p>"	n/a	n/a	n/a	n/a	n/a	n/a	n/a	n/a	n/a	n/a
"TRUE"	"preload"	"182"	"350538"	"0.0-6.0-0.0"	"oy7aww"	"600"	"1366"	"chrome"	"108.0.0"	"FALSE"	"Windows 10"	"60.59"	"122"	n/a	n/a	n/a	n/a	n/a	n/a	n/a	n/a	n/a	n/a	n/a	"NULL"	"FALSE"	"list()"	"list()"	"list()"	n/a	n/a	n/a	n/a	n/a	n/a	n/a	n/a	n/a	n/a	n/a
n/a	"html-keyboard-response"	"183"	"355172"	"0.0-6.0-1.0"	"oy7aww"	"600"	"1366"	"chrome"	"108.0.0"	"FALSE"	"Windows 10"	"60.59"	"122"	n/a	n/a	n/a	n/a	n/a	n/a	n/a	n/a	n/a	n/a	"4634"	"enter"	n/a	"NULL"	"NULL"	"NULL"	"<p><b>Part 2/6</b></p><p>In this part, two red circles will appear side by side on the screen.</p><p>Your task is to select which <b>red circle is bigger</b> in size as fast as you can, without making errors.</p><p>Don't get distracted by the surrounding black circles around the red circles!</p><p>Press <b>the LEFT or the RIGHT arrow</b> to indicate which is the bigger <b>red circle.</b></p><div style='float: center'><img src='materials/instructions/Ebbinghaus_Demo.png' height='300'></img><p><img src='utils/answer/answer_leftright_keyboard.PNG' height='150'></img></p><p class='small'>In this example, the correct answer is the <b>LEFT arrow</b>.</p></div><p>Are you ready? <b>Press ENTER to start</b></p>"	n/a	n/a	n/a	n/a	n/a	n/a	n/a	n/a	n/a	n/a
n/a	"html-keyboard-response"	"184"	"357134"	"0.0-6.0-2.0-0.0"	"oy7aww"	"600"	"1366"	"chrome"	"108.0.0"	"FALSE"	"Windows 10"	"60.59"	"122"	n/a	n/a	n/a	n/a	n/a	n/a	"fixation"	n/a	n/a	n/a	n/a	"NULL"	n/a	"NULL"	"NULL"	"NULL"	"<p style=\"color: black; font-size: 80px; padding-left: 35%; padding-right: 30%; padding-top: 27%; padding-bottom: 36%\">+</p>"	"1427"	n/a	n/a	n/a	n/a	n/a	n/a	n/a	n/a	n/a
n/a	"image-keyboard-response"	"185"	"359517"	"0.0-6.0-2.0-1.0"	"oy7aww"	"600"	"1366"	"chrome"	"108.0.0"	"FALSE"	"Windows 10"	"60.59"	"122"	n/a	n/a	n/a	n/a	n/a	n/a	"Trial"	n/a	n/a	n/a	"2382"	"arrowleft"	n/a	"NULL"	"NULL"	"NULL"	"stimuli/Ebbinghaus_0.87143_-0.15857.png"	n/a	"Ebbinghaus"	"arrowright"	"1962"	"FALSE"	"Ebbinghaus"	"0.8714300000"	"-0.158570000"	"2"	"1"
n/a	"html-keyboard-response"	"186"	"360688"	"0.0-6.0-2.0-0.1"	"oy7aww"	"600"	"1366"	"chrome"	"108.0.0"	"FALSE"	"Windows 10"	"60.59"	"122"	n/a	n/a	n/a	n/a	n/a	n/a	"fixation"	n/a	n/a	n/a	n/a	"NULL"	n/a	"NULL"	"NULL"	"NULL"	"<p style=\"color: black; font-size: 80px; padding-left: 37%; padding-right: 44%; padding-top: 6%; padding-bottom: 11%\">+</p>"	"1156"	n/a	n/a	n/a	n/a	n/a	n/a	n/a	n/a	n/a
n/a	"image-keyboard-response"	"187"	"361656"	"0.0-6.0-2.0-1.1"	"oy7aww"	"600"	"1366"	"chrome"	"108.0.0"	"FALSE"	"Windows 10"	"60.59"	"122"	n/a	n/a	n/a	n/a	n/a	n/a	"Trial"	n/a	n/a	n/a	"967"	"arrowleft"	n/a	"NULL"	"NULL"	"NULL"	"stimuli/Ebbinghaus_0.35714_0.28000.png"	n/a	"Ebbinghaus"	"arrowleft"	"1171"	"TRUE"	"Ebbinghaus"	"0.3571400000"	"0.2800000000"	"2"	"2"
n/a	"html-keyboard-response"	"188"	"362694"	"0.0-6.0-2.0-0.2"	"oy7aww"	"600"	"1366"	"chrome"	"108.0.0"	"FALSE"	"Windows 10"	"60.59"	"122"	n/a	n/a	n/a	n/a	n/a	n/a	"fixation"	n/a	n/a	n/a	n/a	"NULL"	n/a	"NULL"	"NULL"	"NULL"	"<p style=\"color: black; font-size: 80px; padding-left: 13%; padding-right: 17%; padding-top: 34%; padding-bottom: 33%\">+</p>"	"1023"	n/a	n/a	n/a	n/a	n/a	n/a	n/a	n/a	n/a
n/a	"image-keyboard-response"	"189"	"363924"	"0.0-6.0-2.0-1.2"	"oy7aww"	"600"	"1366"	"chrome"	"108.0.0"	"FALSE"	"Windows 10"	"60.59"	"122"	n/a	n/a	n/a	n/a	n/a	n/a	"Trial"	n/a	n/a	n/a	"1229"	"arrowleft"	n/a	"NULL"	"NULL"	"NULL"	"stimuli/Ebbinghaus_-0.61429_0.15857.png"	n/a	"Ebbinghaus"	"arrowleft"	"1038"	"TRUE"	"Ebbinghaus"	"-0.614290000"	"0.1585700000"	"2"	"3"
n/a	"html-keyboard-response"	"190"	"364962"	"0.0-6.0-2.0-0.3"	"oy7aww"	"600"	"1366"	"chrome"	"108.0.0"	"FALSE"	"Windows 10"	"60.59"	"122"	n/a	n/a	n/a	n/a	n/a	n/a	"fixation"	n/a	n/a	n/a	n/a	"NULL"	n/a	"NULL"	"NULL"	"NULL"	"<p style=\"color: black; font-size: 80px; padding-left: 45%; padding-right: 27%; padding-top: 49%; padding-bottom: 11%\">+</p>"	"1034"	n/a	n/a	n/a	n/a	n/a	n/a	n/a	n/a	n/a
n/a	"image-keyboard-response"	"191"	"366370"	"0.0-6.0-2.0-1.3"	"oy7aww"	"600"	"1366"	"chrome"	"108.0.0"	"FALSE"	"Windows 10"	"60.59"	"122"	n/a	n/a	n/a	n/a	n/a	n/a	"Trial"	n/a	n/a	n/a	"1406"	"arrowleft"	n/a	"NULL"	"NULL"	"NULL"	"stimuli/Ebbinghaus_0.35714_0.15857.png"	n/a	"Ebbinghaus"	"arrowleft"	"1038"	"TRUE"	"Ebbinghaus"	"0.3571400000"	"0.1585700000"	"2"	"4"
n/a	"html-keyboard-response"	"192"	"367718"	"0.0-6.0-2.0-0.4"	"oy7aww"	"600"	"1366"	"chrome"	"108.0.0"	"FALSE"	"Windows 10"	"60.59"	"122"	n/a	n/a	n/a	n/a	n/a	n/a	"fixation"	n/a	n/a	n/a	n/a	"NULL"	n/a	"NULL"	"NULL"	"NULL"	"<p style=\"color: black; font-size: 80px; padding-left: 39%; padding-right: 21%; padding-top: 2%; padding-bottom: 22%\">+</p>"	"1329"	n/a	n/a	n/a	n/a	n/a	n/a	n/a	n/a	n/a
n/a	"image-keyboard-response"	"193"	"369173"	"0.0-6.0-2.0-1.4"	"oy7aww"	"600"	"1366"	"chrome"	"108.0.0"	"FALSE"	"Windows 10"	"60.59"	"122"	n/a	n/a	n/a	n/a	n/a	n/a	"Trial"	n/a	n/a	n/a	"1454"	"arrowleft"	n/a	"NULL"	"NULL"	"NULL"	"stimuli/Ebbinghaus_-0.35714_0.11071.png"	n/a	"Ebbinghaus"	"arrowleft"	"1348"	"TRUE"	"Ebbinghaus"	"-0.357140000"	"0.1107100000"	"2"	"5"
n/a	"html-keyboard-response"	"194"	"370594"	"0.0-6.0-2.0-0.5"	"oy7aww"	"600"	"1366"	"chrome"	"108.0.0"	"FALSE"	"Windows 10"	"60.59"	"122"	n/a	n/a	n/a	n/a	n/a	n/a	"fixation"	n/a	n/a	n/a	n/a	"NULL"	n/a	"NULL"	"NULL"	"NULL"	"<p style=\"color: black; font-size: 80px; padding-left: 23%; padding-right: 5%; padding-top: 36%; padding-bottom: 13%\">+</p>"	"1413"	n/a	n/a	n/a	n/a	n/a	n/a	n/a	n/a	n/a
n/a	"image-keyboard-response"	"195"	"371291"	"0.0-6.0-2.0-1.5"	"oy7aww"	"600"	"1366"	"chrome"	"108.0.0"	"FALSE"	"Windows 10"	"60.59"	"122"	n/a	n/a	n/a	n/a	n/a	n/a	"Trial"	n/a	n/a	n/a	"696"	"arrowright"	n/a	"NULL"	"NULL"	"NULL"	"stimuli/Ebbinghaus_-0.1000_-0.2800.png"	n/a	"Ebbinghaus"	"arrowright"	"1421"	"TRUE"	"Ebbinghaus"	"-0.100000000"	"-0.280000000"	"2"	"6"
n/a	"html-keyboard-response"	"196"	"372325"	"0.0-6.0-2.0-0.6"	"oy7aww"	"600"	"1366"	"chrome"	"108.0.0"	"FALSE"	"Windows 10"	"60.59"	"122"	n/a	n/a	n/a	n/a	n/a	n/a	"fixation"	n/a	n/a	n/a	n/a	"NULL"	n/a	"NULL"	"NULL"	"NULL"	"<p style=\"color: black; font-size: 80px; padding-left: 6%; padding-right: 43%; padding-top: 2%; padding-bottom: 29%\">+</p>"	"1024"	n/a	n/a	n/a	n/a	n/a	n/a	n/a	n/a	n/a
n/a	"image-keyboard-response"	"197"	"372907"	"0.0-6.0-2.0-1.6"	"oy7aww"	"600"	"1366"	"chrome"	"108.0.0"	"FALSE"	"Windows 10"	"60.59"	"122"	n/a	n/a	n/a	n/a	n/a	n/a	"Trial"	n/a	n/a	n/a	"581"	"arrowleft"	n/a	"NULL"	"NULL"	"NULL"	"stimuli/Ebbinghaus_-0.87143_0.28000.png"	n/a	"Ebbinghaus"	"arrowleft"	"1034"	"TRUE"	"Ebbinghaus"	"-0.871430000"	"0.2800000000"	"2"	"7"
n/a	"html-keyboard-response"	"198"	"373922"	"0.0-6.0-2.0-0.7"	"oy7aww"	"600"	"1366"	"chrome"	"108.0.0"	"FALSE"	"Windows 10"	"60.59"	"122"	n/a	n/a	n/a	n/a	n/a	n/a	"fixation"	n/a	n/a	n/a	n/a	"NULL"	n/a	"NULL"	"NULL"	"NULL"	"<p style=\"color: black; font-size: 80px; padding-left: 11%; padding-right: 15%; padding-top: 18%; padding-bottom: 26%\">+</p>"	"1003"	n/a	n/a	n/a	n/a	n/a	n/a	n/a	n/a	n/a
n/a	"image-keyboard-response"	"199"	"374495"	"0.0-6.0-2.0-1.7"	"oy7aww"	"600"	"1366"	"chrome"	"108.0.0"	"FALSE"	"Windows 10"	"60.59"	"122"	n/a	n/a	n/a	n/a	n/a	n/a	"Trial"	n/a	n/a	n/a	"572"	"arrowright"	n/a	"NULL"	"NULL"	"NULL"	"stimuli/Ebbinghaus_0.35714_-0.2150.png"	n/a	"Ebbinghaus"	"arrowright"	"1015"	"TRUE"	"Ebbinghaus"	"0.3571400000"	"-0.215000000"	"2"	"8"
n/a	"html-keyboard-response"	"200"	"375811"	"0.0-6.0-2.0-0.8"	"oy7aww"	"600"	"1366"	"chrome"	"108.0.0"	"FALSE"	"Windows 10"	"60.59"	"122"	n/a	n/a	n/a	n/a	n/a	n/a	"fixation"	n/a	n/a	n/a	n/a	"NULL"	n/a	"NULL"	"NULL"	"NULL"	"<p style=\"color: black; font-size: 80px; padding-left: 13%; padding-right: 45%; padding-top: 38%; padding-bottom: 41%\">+</p>"	"1306"	n/a	n/a	n/a	n/a	n/a	n/a	n/a	n/a	n/a
n/a	"image-keyboard-response"	"201"	"376688"	"0.0-6.0-2.0-1.8"	"oy7aww"	"600"	"1366"	"chrome"	"108.0.0"	"FALSE"	"Windows 10"	"60.59"	"122"	n/a	n/a	n/a	n/a	n/a	n/a	"Trial"	n/a	n/a	n/a	"877"	"arrowright"	n/a	"NULL"	"NULL"	"NULL"	"stimuli/Ebbinghaus_0.87143_-0.2150.png"	n/a	"Ebbinghaus"	"arrowright"	"1316"	"TRUE"	"Ebbinghaus"	"0.8714300000"	"-0.215000000"	"2"	"9"
n/a	"html-keyboard-response"	"202"	"378108"	"0.0-6.0-2.0-0.9"	"oy7aww"	"600"	"1366"	"chrome"	"108.0.0"	"FALSE"	"Windows 10"	"60.59"	"122"	n/a	n/a	n/a	n/a	n/a	n/a	"fixation"	n/a	n/a	n/a	n/a	"NULL"	n/a	"NULL"	"NULL"	"NULL"	"<p style=\"color: black; font-size: 80px; padding-left: 46%; padding-right: 42%; padding-top: 16%; padding-bottom: 44%\">+</p>"	"1410"	n/a	n/a	n/a	n/a	n/a	n/a	n/a	n/a	n/a
n/a	"image-keyboard-response"	"203"	"378702"	"0.0-6.0-2.0-1.9"	"oy7aww"	"600"	"1366"	"chrome"	"108.0.0"	"FALSE"	"Windows 10"	"60.59"	"122"	n/a	n/a	n/a	n/a	n/a	n/a	"Trial"	n/a	n/a	n/a	"594"	"arrowleft"	n/a	"NULL"	"NULL"	"NULL"	"stimuli/Ebbinghaus_0.10000_0.15857.png"	n/a	"Ebbinghaus"	"arrowleft"	"1420"	"TRUE"	"Ebbinghaus"	"0.1000000000"	"0.1585700000"	"2"	"10"
n/a	"html-keyboard-response"	"204"	"379947"	"0.0-6.0-2.0-0.10"	"oy7aww"	"600"	"1366"	"chrome"	"108.0.0"	"FALSE"	"Windows 10"	"60.59"	"122"	n/a	n/a	n/a	n/a	n/a	n/a	"fixation"	n/a	n/a	n/a	n/a	"NULL"	n/a	"NULL"	"NULL"	"NULL"	"<p style=\"color: black; font-size: 80px; padding-left: 34%; padding-right: 13%; padding-top: 7%; padding-bottom: 6%\">+</p>"	"1239"	n/a	n/a	n/a	n/a	n/a	n/a	n/a	n/a	n/a
n/a	"image-keyboard-response"	"205"	"380581"	"0.0-6.0-2.0-1.10"	"oy7aww"	"600"	"1366"	"chrome"	"108.0.0"	"FALSE"	"Windows 10"	"60.59"	"122"	n/a	n/a	n/a	n/a	n/a	n/a	"Trial"	n/a	n/a	n/a	"633"	"arrowright"	n/a	"NULL"	"NULL"	"NULL"	"stimuli/Ebbinghaus_-0.61429_-0.2800.png"	n/a	"Ebbinghaus"	"arrowright"	"1245"	"TRUE"	"Ebbinghaus"	"-0.614290000"	"-0.280000000"	"2"	"11"
n/a	"html-keyboard-response"	"206"	"381711"	"0.0-6.0-2.0-0.11"	"oy7aww"	"600"	"1366"	"chrome"	"108.0.0"	"FALSE"	"Windows 10"	"60.59"	"122"	n/a	n/a	n/a	n/a	n/a	n/a	"fixation"	n/a	n/a	n/a	n/a	"NULL"	n/a	"NULL"	"NULL"	"NULL"	"<p style=\"color: black; font-size: 80px; padding-left: 31%; padding-right: 6%; padding-top: 41%; padding-bottom: 18%\">+</p>"	"1116"	n/a	n/a	n/a	n/a	n/a	n/a	n/a	n/a	n/a
n/a	"image-keyboard-response"	"207"	"382228"	"0.0-6.0-2.0-1.11"	"oy7aww"	"600"	"1366"	"chrome"	"108.0.0"	"FALSE"	"Windows 10"	"60.59"	"122"	n/a	n/a	n/a	n/a	n/a	n/a	"Trial"	n/a	n/a	n/a	"516"	"arrowright"	n/a	"NULL"	"NULL"	"NULL"	"stimuli/Ebbinghaus_-0.35714_-0.2150.png"	n/a	"Ebbinghaus"	"arrowright"	"1130"	"TRUE"	"Ebbinghaus"	"-0.357140000"	"-0.215000000"	"2"	"12"
n/a	"html-keyboard-response"	"208"	"383613"	"0.0-6.0-2.0-0.12"	"oy7aww"	"600"	"1366"	"chrome"	"108.0.0"	"FALSE"	"Windows 10"	"60.59"	"122"	n/a	n/a	n/a	n/a	n/a	n/a	"fixation"	n/a	n/a	n/a	n/a	"NULL"	n/a	"NULL"	"NULL"	"NULL"	"<p style=\"color: black; font-size: 80px; padding-left: 11%; padding-right: 11%; padding-top: 20%; padding-bottom: 17%\">+</p>"	"1369"	n/a	n/a	n/a	n/a	n/a	n/a	n/a	n/a	n/a
n/a	"image-keyboard-response"	"209"	"384145"	"0.0-6.0-2.0-1.12"	"oy7aww"	"600"	"1366"	"chrome"	"108.0.0"	"FALSE"	"Windows 10"	"60.59"	"122"	n/a	n/a	n/a	n/a	n/a	n/a	"Trial"	n/a	n/a	n/a	"531"	"arrowleft"	n/a	"NULL"	"NULL"	"NULL"	"stimuli/Ebbinghaus_-0.87143_0.15857.png"	n/a	"Ebbinghaus"	"arrowleft"	"1385"	"TRUE"	"Ebbinghaus"	"-0.871430000"	"0.1585700000"	"2"	"13"
n/a	"html-keyboard-response"	"210"	"385587"	"0.0-6.0-2.0-0.13"	"oy7aww"	"600"	"1366"	"chrome"	"108.0.0"	"FALSE"	"Windows 10"	"60.59"	"122"	n/a	n/a	n/a	n/a	n/a	n/a	"fixation"	n/a	n/a	n/a	n/a	"NULL"	n/a	"NULL"	"NULL"	"NULL"	"<p style=\"color: black; font-size: 80px; padding-left: 43%; padding-right: 2%; padding-top: 2%; padding-bottom: 9%\">+</p>"	"1427"	n/a	n/a	n/a	n/a	n/a	n/a	n/a	n/a	n/a
n/a	"image-keyboard-response"	"211"	"386269"	"0.0-6.0-2.0-1.13"	"oy7aww"	"600"	"1366"	"chrome"	"108.0.0"	"FALSE"	"Windows 10"	"60.59"	"122"	n/a	n/a	n/a	n/a	n/a	n/a	"Trial"	n/a	n/a	n/a	"682"	"arrowright"	n/a	"NULL"	"NULL"	"NULL"	"stimuli/Ebbinghaus_-0.35714_-0.2800.png"	n/a	"Ebbinghaus"	"arrowright"	"1442"	"TRUE"	"Ebbinghaus"	"-0.357140000"	"-0.280000000"	"2"	"14"
n/a	"html-keyboard-response"	"212"	"387719"	"0.0-6.0-2.0-0.14"	"oy7aww"	"600"	"1366"	"chrome"	"108.0.0"	"FALSE"	"Windows 10"	"60.59"	"122"	n/a	n/a	n/a	n/a	n/a	n/a	"fixation"	n/a	n/a	n/a	n/a	"NULL"	n/a	"NULL"	"NULL"	"NULL"	"<p style=\"color: black; font-size: 80px; padding-left: 2%; padding-right: 36%; padding-top: 16%; padding-bottom: 2%\">+</p>"	"1445"	n/a	n/a	n/a	n/a	n/a	n/a	n/a	n/a	n/a
n/a	"image-keyboard-response"	"213"	"388252"	"0.0-6.0-2.0-1.14"	"oy7aww"	"600"	"1366"	"chrome"	"108.0.0"	"FALSE"	"Windows 10"	"60.59"	"122"	n/a	n/a	n/a	n/a	n/a	n/a	"Trial"	n/a	n/a	n/a	"532"	"arrowright"	n/a	"NULL"	"NULL"	"NULL"	"stimuli/Ebbinghaus_0.10000_-0.2800.png"	n/a	"Ebbinghaus"	"arrowright"	"1450"	"TRUE"	"Ebbinghaus"	"0.1000000000"	"-0.280000000"	"2"	"15"
n/a	"html-keyboard-response"	"214"	"389537"	"0.0-6.0-2.0-0.15"	"oy7aww"	"600"	"1366"	"chrome"	"108.0.0"	"FALSE"	"Windows 10"	"60.59"	"122"	n/a	n/a	n/a	n/a	n/a	n/a	"fixation"	n/a	n/a	n/a	n/a	"NULL"	n/a	"NULL"	"NULL"	"NULL"	"<p style=\"color: black; font-size: 80px; padding-left: 2%; padding-right: 36%; padding-top: 15%; padding-bottom: 17%\">+</p>"	"1282"	n/a	n/a	n/a	n/a	n/a	n/a	n/a	n/a	n/a
n/a	"image-keyboard-response"	"215"	"390050"	"0.0-6.0-2.0-1.15"	"oy7aww"	"600"	"1366"	"chrome"	"108.0.0"	"FALSE"	"Windows 10"	"60.59"	"122"	n/a	n/a	n/a	n/a	n/a	n/a	"Trial"	n/a	n/a	n/a	"512"	"arrowleft"	n/a	"NULL"	"NULL"	"NULL"	"stimuli/Ebbinghaus_-0.35714_-0.15857.png"	n/a	"Ebbinghaus"	"arrowright"	"1285"	"FALSE"	"Ebbinghaus"	"-0.357140000"	"-0.158570000"	"2"	"16"
n/a	"html-keyboard-response"	"216"	"391367"	"0.0-6.0-2.0-0.16"	"oy7aww"	"600"	"1366"	"chrome"	"108.0.0"	"FALSE"	"Windows 10"	"60.59"	"122"	n/a	n/a	n/a	n/a	n/a	n/a	"fixation"	n/a	n/a	n/a	n/a	"NULL"	n/a	"NULL"	"NULL"	"NULL"	"<p style=\"color: black; font-size: 80px; padding-left: 16%; padding-right: 22%; padding-top: 14%; padding-bottom: 1%\">+</p>"	"1307"	n/a	n/a	n/a	n/a	n/a	n/a	n/a	n/a	n/a
n/a	"image-keyboard-response"	"217"	"392335"	"0.0-6.0-2.0-1.16"	"oy7aww"	"600"	"1366"	"chrome"	"108.0.0"	"FALSE"	"Windows 10"	"60.59"	"122"	n/a	n/a	n/a	n/a	n/a	n/a	"Trial"	n/a	n/a	n/a	"967"	"arrowright"	n/a	"NULL"	"NULL"	"NULL"	"stimuli/Ebbinghaus_0.87143_-0.11071.png"	n/a	"Ebbinghaus"	"arrowright"	"1317"	"TRUE"	"Ebbinghaus"	"0.8714300000"	"-0.110710000"	"2"	"17"
n/a	"html-keyboard-response"	"218"	"393666"	"0.0-6.0-2.0-0.17"	"oy7aww"	"600"	"1366"	"chrome"	"108.0.0"	"FALSE"	"Windows 10"	"60.59"	"122"	n/a	n/a	n/a	n/a	n/a	n/a	"fixation"	n/a	n/a	n/a	n/a	"NULL"	n/a	"NULL"	"NULL"	"NULL"	"<p style=\"color: black; font-size: 80px; padding-left: 24%; padding-right: 3%; padding-top: 4%; padding-bottom: 50%\">+</p>"	"1312"	n/a	n/a	n/a	n/a	n/a	n/a	n/a	n/a	n/a
n/a	"image-keyboard-response"	"219"	"394754"	"0.0-6.0-2.0-1.17"	"oy7aww"	"600"	"1366"	"chrome"	"108.0.0"	"FALSE"	"Windows 10"	"60.59"	"122"	n/a	n/a	n/a	n/a	n/a	n/a	"Trial"	n/a	n/a	n/a	"1086"	"arrowright"	n/a	"NULL"	"NULL"	"NULL"	"stimuli/Ebbinghaus_0.61429_-0.11071.png"	n/a	"Ebbinghaus"	"arrowright"	"1331"	"TRUE"	"Ebbinghaus"	"0.6142900000"	"-0.110710000"	"2"	"18"
n/a	"html-keyboard-response"	"220"	"396087"	"0.0-6.0-2.0-0.18"	"oy7aww"	"600"	"1366"	"chrome"	"108.0.0"	"FALSE"	"Windows 10"	"60.59"	"122"	n/a	n/a	n/a	n/a	n/a	n/a	"fixation"	n/a	n/a	n/a	n/a	"NULL"	n/a	"NULL"	"NULL"	"NULL"	"<p style=\"color: black; font-size: 80px; padding-left: 22%; padding-right: 14%; padding-top: 26%; padding-bottom: 19%\">+</p>"	"1325"	n/a	n/a	n/a	n/a	n/a	n/a	n/a	n/a	n/a
n/a	"image-keyboard-response"	"221"	"396789"	"0.0-6.0-2.0-1.18"	"oy7aww"	"600"	"1366"	"chrome"	"108.0.0"	"FALSE"	"Windows 10"	"60.59"	"122"	n/a	n/a	n/a	n/a	n/a	n/a	"Trial"	n/a	n/a	n/a	"701"	"arrowright"	n/a	"NULL"	"NULL"	"NULL"	"stimuli/Ebbinghaus_-0.1000_-0.2150.png"	n/a	"Ebbinghaus"	"arrowright"	"1333"	"TRUE"	"Ebbinghaus"	"-0.100000000"	"-0.215000000"	"2"	"19"
n/a	"html-keyboard-response"	"222"	"398113"	"0.0-6.0-2.0-0.19"	"oy7aww"	"600"	"1366"	"chrome"	"108.0.0"	"FALSE"	"Windows 10"	"60.59"	"122"	n/a	n/a	n/a	n/a	n/a	n/a	"fixation"	n/a	n/a	n/a	n/a	"NULL"	n/a	"NULL"	"NULL"	"NULL"	"<p style=\"color: black; font-size: 80px; padding-left: 23%; padding-right: 37%; padding-top: 18%; padding-bottom: 44%\">+</p>"	"1322"	n/a	n/a	n/a	n/a	n/a	n/a	n/a	n/a	n/a
n/a	"image-keyboard-response"	"223"	"399067"	"0.0-6.0-2.0-1.19"	"oy7aww"	"600"	"1366"	"chrome"	"108.0.0"	"FALSE"	"Windows 10"	"60.59"	"122"	n/a	n/a	n/a	n/a	n/a	n/a	"Trial"	n/a	n/a	n/a	"954"	"arrowright"	n/a	"NULL"	"NULL"	"NULL"	"stimuli/Ebbinghaus_-0.35714_-0.11071.png"	n/a	"Ebbinghaus"	"arrowright"	"1324"	"TRUE"	"Ebbinghaus"	"-0.357140000"	"-0.110710000"	"2"	"20"
n/a	"html-keyboard-response"	"224"	"400438"	"0.0-6.0-2.0-0.20"	"oy7aww"	"600"	"1366"	"chrome"	"108.0.0"	"FALSE"	"Windows 10"	"60.59"	"122"	n/a	n/a	n/a	n/a	n/a	n/a	"fixation"	n/a	n/a	n/a	n/a	"NULL"	n/a	"NULL"	"NULL"	"NULL"	"<p style=\"color: black; font-size: 80px; padding-left: 18%; padding-right: 20%; padding-top: 40%; padding-bottom: 16%\">+</p>"	"1362"	n/a	n/a	n/a	n/a	n/a	n/a	n/a	n/a	n/a
n/a	"image-keyboard-response"	"225"	"401153"	"0.0-6.0-2.0-1.20"	"oy7aww"	"600"	"1366"	"chrome"	"108.0.0"	"FALSE"	"Windows 10"	"60.59"	"122"	n/a	n/a	n/a	n/a	n/a	n/a	"Trial"	n/a	n/a	n/a	"714"	"arrowleft"	n/a	"NULL"	"NULL"	"NULL"	"stimuli/Ebbinghaus_0.35714_0.11071.png"	n/a	"Ebbinghaus"	"arrowleft"	"1371"	"TRUE"	"Ebbinghaus"	"0.3571400000"	"0.1107100000"	"2"	"21"
n/a	"html-keyboard-response"	"226"	"402214"	"0.0-6.0-2.0-0.21"	"oy7aww"	"600"	"1366"	"chrome"	"108.0.0"	"FALSE"	"Windows 10"	"60.59"	"122"	n/a	n/a	n/a	n/a	n/a	n/a	"fixation"	n/a	n/a	n/a	n/a	"NULL"	n/a	"NULL"	"NULL"	"NULL"	"<p style=\"color: black; font-size: 80px; padding-left: 4%; padding-right: 45%; padding-top: 10%; padding-bottom: 24%\">+</p>"	"1048"	n/a	n/a	n/a	n/a	n/a	n/a	n/a	n/a	n/a
n/a	"image-keyboard-response"	"227"	"402868"	"0.0-6.0-2.0-1.21"	"oy7aww"	"600"	"1366"	"chrome"	"108.0.0"	"FALSE"	"Windows 10"	"60.59"	"122"	n/a	n/a	n/a	n/a	n/a	n/a	"Trial"	n/a	n/a	n/a	"653"	"arrowright"	n/a	"NULL"	"NULL"	"NULL"	"stimuli/Ebbinghaus_-0.87143_-0.2800.png"	n/a	"Ebbinghaus"	"arrowright"	"1061"	"TRUE"	"Ebbinghaus"	"-0.871430000"	"-0.280000000"	"2"	"22"
n/a	"html-keyboard-response"	"228"	"404326"	"0.0-6.0-2.0-0.22"	"oy7aww"	"600"	"1366"	"chrome"	"108.0.0"	"FALSE"	"Windows 10"	"60.59"	"122"	n/a	n/a	n/a	n/a	n/a	n/a	"fixation"	n/a	n/a	n/a	n/a	"NULL"	n/a	"NULL"	"NULL"	"NULL"	"<p style=\"color: black; font-size: 80px; padding-left: 45%; padding-right: 28%; padding-top: 7%; padding-bottom: 31%\">+</p>"	"1447"	n/a	n/a	n/a	n/a	n/a	n/a	n/a	n/a	n/a
n/a	"image-keyboard-response"	"229"	"404982"	"0.0-6.0-2.0-1.22"	"oy7aww"	"600"	"1366"	"chrome"	"108.0.0"	"FALSE"	"Windows 10"	"60.59"	"122"	n/a	n/a	n/a	n/a	n/a	n/a	"Trial"	n/a	n/a	n/a	"655"	"arrowleft"	n/a	"NULL"	"NULL"	"NULL"	"stimuli/Ebbinghaus_-0.1000_0.28000.png"	n/a	"Ebbinghaus"	"arrowleft"	"1458"	"TRUE"	"Ebbinghaus"	"-0.100000000"	"0.2800000000"	"2"	"23"
n/a	"html-keyboard-response"	"230"	"406261"	"0.0-6.0-2.0-0.23"	"oy7aww"	"600"	"1366"	"chrome"	"108.0.0"	"FALSE"	"Windows 10"	"60.59"	"122"	n/a	n/a	n/a	n/a	n/a	n/a	"fixation"	n/a	n/a	n/a	n/a	"NULL"	n/a	"NULL"	"NULL"	"NULL"	"<p style=\"color: black; font-size: 80px; padding-left: 16%; padding-right: 26%; padding-top: 24%; padding-bottom: 50%\">+</p>"	"1258"	n/a	n/a	n/a	n/a	n/a	n/a	n/a	n/a	n/a
n/a	"image-keyboard-response"	"231"	"406855"	"0.0-6.0-2.0-1.23"	"oy7aww"	"600"	"1366"	"chrome"	"108.0.0"	"FALSE"	"Windows 10"	"60.59"	"122"	n/a	n/a	n/a	n/a	n/a	n/a	"Trial"	n/a	n/a	n/a	"593"	"arrowleft"	n/a	"NULL"	"NULL"	"NULL"	"stimuli/Ebbinghaus_-0.87143_0.21500.png"	n/a	"Ebbinghaus"	"arrowleft"	"1279"	"TRUE"	"Ebbinghaus"	"-0.871430000"	"0.2150000000"	"2"	"24"
n/a	"html-keyboard-response"	"232"	"408170"	"0.0-6.0-2.0-0.24"	"oy7aww"	"600"	"1366"	"chrome"	"108.0.0"	"FALSE"	"Windows 10"	"60.59"	"122"	n/a	n/a	n/a	n/a	n/a	n/a	"fixation"	n/a	n/a	n/a	n/a	"NULL"	n/a	"NULL"	"NULL"	"NULL"	"<p style=\"color: black; font-size: 80px; padding-left: 35%; padding-right: 9%; padding-top: 0%; padding-bottom: 45%\">+</p>"	"1291"	n/a	n/a	n/a	n/a	n/a	n/a	n/a	n/a	n/a
n/a	"image-keyboard-response"	"233"	"409208"	"0.0-6.0-2.0-1.24"	"oy7aww"	"600"	"1366"	"chrome"	"108.0.0"	"FALSE"	"Windows 10"	"60.59"	"122"	n/a	n/a	n/a	n/a	n/a	n/a	"Trial"	n/a	n/a	n/a	"1037"	"arrowleft"	n/a	"NULL"	"NULL"	"NULL"	"stimuli/Ebbinghaus_-0.1000_0.15857.png"	n/a	"Ebbinghaus"	"arrowleft"	"1315"	"TRUE"	"Ebbinghaus"	"-0.100000000"	"0.1585700000"	"2"	"25"
n/a	"html-keyboard-response"	"234"	"410451"	"0.0-6.0-2.0-0.25"	"oy7aww"	"600"	"1366"	"chrome"	"108.0.0"	"FALSE"	"Windows 10"	"60.59"	"122"	n/a	n/a	n/a	n/a	n/a	n/a	"fixation"	n/a	n/a	n/a	n/a	"NULL"	n/a	"NULL"	"NULL"	"NULL"	"<p style=\"color: black; font-size: 80px; padding-left: 17%; padding-right: 6%; padding-top: 5%; padding-bottom: 1%\">+</p>"	"1229"	n/a	n/a	n/a	n/a	n/a	n/a	n/a	n/a	n/a
n/a	"image-keyboard-response"	"235"	"411214"	"0.0-6.0-2.0-1.25"	"oy7aww"	"600"	"1366"	"chrome"	"108.0.0"	"FALSE"	"Windows 10"	"60.59"	"122"	n/a	n/a	n/a	n/a	n/a	n/a	"Trial"	n/a	n/a	n/a	"761"	"arrowleft"	n/a	"NULL"	"NULL"	"NULL"	"stimuli/Ebbinghaus_-0.35714_0.21500.png"	n/a	"Ebbinghaus"	"arrowleft"	"1243"	"TRUE"	"Ebbinghaus"	"-0.357140000"	"0.2150000000"	"2"	"26"
n/a	"html-keyboard-response"	"236"	"412468"	"0.0-6.0-2.0-0.26"	"oy7aww"	"600"	"1366"	"chrome"	"108.0.0"	"FALSE"	"Windows 10"	"60.59"	"122"	n/a	n/a	n/a	n/a	n/a	n/a	"fixation"	n/a	n/a	n/a	n/a	"NULL"	n/a	"NULL"	"NULL"	"NULL"	"<p style=\"color: black; font-size: 80px; padding-left: 11%; padding-right: 0%; padding-top: 4%; padding-bottom: 22%\">+</p>"	"1247"	n/a	n/a	n/a	n/a	n/a	n/a	n/a	n/a	n/a
n/a	"image-keyboard-response"	"237"	"413210"	"0.0-6.0-2.0-1.26"	"oy7aww"	"600"	"1366"	"chrome"	"108.0.0"	"FALSE"	"Windows 10"	"60.59"	"122"	n/a	n/a	n/a	n/a	n/a	n/a	"Trial"	n/a	n/a	n/a	"741"	"arrowright"	n/a	"NULL"	"NULL"	"NULL"	"stimuli/Ebbinghaus_0.10000_-0.11071.png"	n/a	"Ebbinghaus"	"arrowright"	"1254"	"TRUE"	"Ebbinghaus"	"0.1000000000"	"-0.110710000"	"2"	"27"
n/a	"html-keyboard-response"	"238"	"414341"	"0.0-6.0-2.0-0.27"	"oy7aww"	"600"	"1366"	"chrome"	"108.0.0"	"FALSE"	"Windows 10"	"60.59"	"122"	n/a	n/a	n/a	n/a	n/a	n/a	"fixation"	n/a	n/a	n/a	n/a	"NULL"	n/a	"NULL"	"NULL"	"NULL"	"<p style=\"color: black; font-size: 80px; padding-left: 15%; padding-right: 26%; padding-top: 43%; padding-bottom: 34%\">+</p>"	"1123"	n/a	n/a	n/a	n/a	n/a	n/a	n/a	n/a	n/a
n/a	"image-keyboard-response"	"239"	"414946"	"0.0-6.0-2.0-1.27"	"oy7aww"	"600"	"1366"	"chrome"	"108.0.0"	"FALSE"	"Windows 10"	"60.59"	"122"	n/a	n/a	n/a	n/a	n/a	n/a	"Trial"	n/a	n/a	n/a	"604"	"arrowright"	n/a	"NULL"	"NULL"	"NULL"	"stimuli/Ebbinghaus_0.61429_-0.15857.png"	n/a	"Ebbinghaus"	"arrowright"	"1131"	"TRUE"	"Ebbinghaus"	"0.6142900000"	"-0.158570000"	"2"	"28"
n/a	"html-keyboard-response"	"240"	"416051"	"0.0-6.0-2.0-0.28"	"oy7aww"	"600"	"1366"	"chrome"	"108.0.0"	"FALSE"	"Windows 10"	"60.59"	"122"	n/a	n/a	n/a	n/a	n/a	n/a	"fixation"	n/a	n/a	n/a	n/a	"NULL"	n/a	"NULL"	"NULL"	"NULL"	"<p style=\"color: black; font-size: 80px; padding-left: 42%; padding-right: 12%; padding-top: 24%; padding-bottom: 34%\">+</p>"	"1097"	n/a	n/a	n/a	n/a	n/a	n/a	n/a	n/a	n/a
n/a	"image-keyboard-response"	"241"	"416527"	"0.0-6.0-2.0-1.28"	"oy7aww"	"600"	"1366"	"chrome"	"108.0.0"	"FALSE"	"Windows 10"	"60.59"	"122"	n/a	n/a	n/a	n/a	n/a	n/a	"Trial"	n/a	n/a	n/a	"476"	"arrowright"	n/a	"NULL"	"NULL"	"NULL"	"stimuli/Ebbinghaus_0.35714_-0.11071.png"	n/a	"Ebbinghaus"	"arrowright"	"1105"	"TRUE"	"Ebbinghaus"	"0.3571400000"	"-0.110710000"	"2"	"29"
n/a	"html-keyboard-response"	"242"	"417867"	"0.0-6.0-2.0-0.29"	"oy7aww"	"600"	"1366"	"chrome"	"108.0.0"	"FALSE"	"Windows 10"	"60.59"	"122"	n/a	n/a	n/a	n/a	n/a	n/a	"fixation"	n/a	n/a	n/a	n/a	"NULL"	n/a	"NULL"	"NULL"	"NULL"	"<p style=\"color: black; font-size: 80px; padding-left: 15%; padding-right: 50%; padding-top: 43%; padding-bottom: 50%\">+</p>"	"1332"	n/a	n/a	n/a	n/a	n/a	n/a	n/a	n/a	n/a
n/a	"image-keyboard-response"	"243"	"418403"	"0.0-6.0-2.0-1.29"	"oy7aww"	"600"	"1366"	"chrome"	"108.0.0"	"FALSE"	"Windows 10"	"60.59"	"122"	n/a	n/a	n/a	n/a	n/a	n/a	"Trial"	n/a	n/a	n/a	"534"	"arrowright"	n/a	"NULL"	"NULL"	"NULL"	"stimuli/Ebbinghaus_0.87143_-0.2800.png"	n/a	"Ebbinghaus"	"arrowright"	"1340"	"TRUE"	"Ebbinghaus"	"0.8714300000"	"-0.280000000"	"2"	"30"
n/a	"html-keyboard-response"	"244"	"419514"	"0.0-6.0-2.0-0.30"	"oy7aww"	"600"	"1366"	"chrome"	"108.0.0"	"FALSE"	"Windows 10"	"60.59"	"122"	n/a	n/a	n/a	n/a	n/a	n/a	"fixation"	n/a	n/a	n/a	n/a	"NULL"	n/a	"NULL"	"NULL"	"NULL"	"<p style=\"color: black; font-size: 80px; padding-left: 13%; padding-right: 23%; padding-top: 14%; padding-bottom: 15%\">+</p>"	"1105"	n/a	n/a	n/a	n/a	n/a	n/a	n/a	n/a	n/a
n/a	"image-keyboard-response"	"245"	"420154"	"0.0-6.0-2.0-1.30"	"oy7aww"	"600"	"1366"	"chrome"	"108.0.0"	"FALSE"	"Windows 10"	"60.59"	"122"	n/a	n/a	n/a	n/a	n/a	n/a	"Trial"	n/a	n/a	n/a	"639"	"arrowright"	n/a	"NULL"	"NULL"	"NULL"	"stimuli/Ebbinghaus_0.61429_-0.2800.png"	n/a	"Ebbinghaus"	"arrowright"	"1111"	"TRUE"	"Ebbinghaus"	"0.6142900000"	"-0.280000000"	"2"	"31"
n/a	"html-keyboard-response"	"246"	"421376"	"0.0-6.0-2.0-0.31"	"oy7aww"	"600"	"1366"	"chrome"	"108.0.0"	"FALSE"	"Windows 10"	"60.59"	"122"	n/a	n/a	n/a	n/a	n/a	n/a	"fixation"	n/a	n/a	n/a	n/a	"NULL"	n/a	"NULL"	"NULL"	"NULL"	"<p style=\"color: black; font-size: 80px; padding-left: 16%; padding-right: 5%; padding-top: 7%; padding-bottom: 5%\">+</p>"	"1210"	n/a	n/a	n/a	n/a	n/a	n/a	n/a	n/a	n/a
n/a	"image-keyboard-response"	"247"	"422386"	"0.0-6.0-2.0-1.31"	"oy7aww"	"600"	"1366"	"chrome"	"108.0.0"	"FALSE"	"Windows 10"	"60.59"	"122"	n/a	n/a	n/a	n/a	n/a	n/a	"Trial"	n/a	n/a	n/a	"1009"	"arrowright"	n/a	"NULL"	"NULL"	"NULL"	"stimuli/Ebbinghaus_0.10000_-0.2150.png"	n/a	"Ebbinghaus"	"arrowright"	"1222"	"TRUE"	"Ebbinghaus"	"0.1000000000"	"-0.215000000"	"2"	"32"
n/a	"html-keyboard-response"	"248"	"423400"	"0.0-6.0-2.0-0.32"	"oy7aww"	"600"	"1366"	"chrome"	"108.0.0"	"FALSE"	"Windows 10"	"60.59"	"122"	n/a	n/a	n/a	n/a	n/a	n/a	"fixation"	n/a	n/a	n/a	n/a	"NULL"	n/a	"NULL"	"NULL"	"NULL"	"<p style=\"color: black; font-size: 80px; padding-left: 31%; padding-right: 46%; padding-top: 16%; padding-bottom: 48%\">+</p>"	"1002"	n/a	n/a	n/a	n/a	n/a	n/a	n/a	n/a	n/a
n/a	"image-keyboard-response"	"249"	"424246"	"0.0-6.0-2.0-1.32"	"oy7aww"	"600"	"1366"	"chrome"	"108.0.0"	"FALSE"	"Windows 10"	"60.59"	"122"	n/a	n/a	n/a	n/a	n/a	n/a	"Trial"	n/a	n/a	n/a	"845"	"arrowright"	n/a	"NULL"	"NULL"	"NULL"	"stimuli/Ebbinghaus_-0.87143_-0.11071.png"	n/a	"Ebbinghaus"	"arrowright"	"1014"	"TRUE"	"Ebbinghaus"	"-0.871430000"	"-0.110710000"	"2"	"33"
n/a	"html-keyboard-response"	"250"	"425485"	"0.0-6.0-2.0-0.33"	"oy7aww"	"600"	"1366"	"chrome"	"108.0.0"	"FALSE"	"Windows 10"	"60.59"	"122"	n/a	n/a	n/a	n/a	n/a	n/a	"fixation"	n/a	n/a	n/a	n/a	"NULL"	n/a	"NULL"	"NULL"	"NULL"	"<p style=\"color: black; font-size: 80px; padding-left: 13%; padding-right: 10%; padding-top: 46%; padding-bottom: 30%\">+</p>"	"1221"	n/a	n/a	n/a	n/a	n/a	n/a	n/a	n/a	n/a
n/a	"image-keyboard-response"	"251"	"426217"	"0.0-6.0-2.0-1.33"	"oy7aww"	"600"	"1366"	"chrome"	"108.0.0"	"FALSE"	"Windows 10"	"60.59"	"122"	n/a	n/a	n/a	n/a	n/a	n/a	"Trial"	n/a	n/a	n/a	"730"	"arrowright"	n/a	"NULL"	"NULL"	"NULL"	"stimuli/Ebbinghaus_-0.1000_-0.11071.png"	n/a	"Ebbinghaus"	"arrowright"	"1239"	"TRUE"	"Ebbinghaus"	"-0.100000000"	"-0.110710000"	"2"	"34"
n/a	"html-keyboard-response"	"252"	"427470"	"0.0-6.0-2.0-0.34"	"oy7aww"	"600"	"1366"	"chrome"	"108.0.0"	"FALSE"	"Windows 10"	"60.59"	"122"	n/a	n/a	n/a	n/a	n/a	n/a	"fixation"	n/a	n/a	n/a	n/a	"NULL"	n/a	"NULL"	"NULL"	"NULL"	"<p style=\"color: black; font-size: 80px; padding-left: 29%; padding-right: 1%; padding-top: 3%; padding-bottom: 13%\">+</p>"	"1245"	n/a	n/a	n/a	n/a	n/a	n/a	n/a	n/a	n/a
n/a	"image-keyboard-response"	"253"	"428059"	"0.0-6.0-2.0-1.34"	"oy7aww"	"600"	"1366"	"chrome"	"108.0.0"	"FALSE"	"Windows 10"	"60.59"	"122"	n/a	n/a	n/a	n/a	n/a	n/a	"Trial"	n/a	n/a	n/a	"588"	"arrowleft"	n/a	"NULL"	"NULL"	"NULL"	"stimuli/Ebbinghaus_0.87143_0.15857.png"	n/a	"Ebbinghaus"	"arrowleft"	"1253"	"TRUE"	"Ebbinghaus"	"0.8714300000"	"0.1585700000"	"2"	"35"
