"success"	"trial_type"	"trial_index"	"time_elapsed"	"internal_node_id"	"participant_id"	"screen_height"	"screen_width"	"browser"	"browser_version"	"mobile"	"os"	"vsync_rate"	"subject_id"	"width"	"height"	"webaudio"	"fullscreen"	"webcam"	"microphone"	"screen"	"version"	"date"	"time"	"rt"	"response"	"timeout"	"failed_images"	"failed_audio"	"failed_video"	"stimulus"	"trial_duration"	"block"	"correct_response"	"prestimulus_duration"	"correct"	"type"	"illusion_strength"	"illusion_difference"	"block_number"	"trial_number"
"TRUE"	"fullscreen"	"0"	"45513"	"0.0-0.0"	"01o4y6"	"600"	"1366"	"chrome"	"109.0.0"	"FALSE"	"Windows 10"	"60.56"	"024"	n/a	n/a	n/a	n/a	n/a	n/a	n/a	n/a	n/a	n/a	n/a	"NULL"	n/a	"NULL"	"NULL"	"NULL"	n/a	n/a	n/a	n/a	n/a	n/a	n/a	n/a	n/a	n/a	n/a
n/a	"browser-check"	"1"	"46518"	"0.0-1.0"	"01o4y6"	"600"	"1366"	"chrome"	"109.0.0"	"FALSE"	"Windows 10"	"60.56"	"024"	"1366"	"600"	"TRUE"	"TRUE"	"TRUE"	"TRUE"	"browser_info"	"1.0"	"23/02/2023"	"18:44:06"	n/a	"NULL"	n/a	"NULL"	"NULL"	"NULL"	n/a	n/a	n/a	n/a	n/a	n/a	n/a	n/a	n/a	n/a	n/a
n/a	"survey-text"	"2"	"51383"	"0.0-2.0"	"01o4y6"	"600"	"1366"	"chrome"	"109.0.0"	"FALSE"	"Windows 10"	"60.56"	"024"	n/a	n/a	n/a	n/a	n/a	n/a	"subject_id"	n/a	n/a	n/a	"4862"	"list(subject_id = \"024\")"	n/a	"NULL"	"NULL"	"NULL"	n/a	n/a	n/a	n/a	n/a	n/a	n/a	n/a	n/a	n/a	n/a
"TRUE"	"preload"	"3"	"51392"	"0.0-3.0"	"01o4y6"	"600"	"1366"	"chrome"	"109.0.0"	"FALSE"	"Windows 10"	"60.56"	"024"	n/a	n/a	n/a	n/a	n/a	n/a	n/a	n/a	n/a	n/a	n/a	"NULL"	"FALSE"	"list()"	"list()"	"list()"	n/a	n/a	n/a	n/a	n/a	n/a	n/a	n/a	n/a	n/a	n/a
n/a	"html-button-response"	"4"	"122096"	"0.0-4.0-0.0"	"01o4y6"	"600"	"1366"	"chrome"	"109.0.0"	"FALSE"	"Windows 10"	"60.56"	"024"	n/a	n/a	n/a	n/a	n/a	n/a	"illusion_instructions"	n/a	n/a	n/a	"70702"	"0"	n/a	"NULL"	"NULL"	"NULL"	"<p><b>Illusion Game</b></p><p>In this game of speed and reflex, you will need to make <b>visual judgments</b> (for instance, which circle is the biggest, or which line is the longest), as fast and as correctly as possible, while <b>resisting different visual illusions</b>.</p><p>We are going to start with some examples of all the illusions you will encounter in the game.</p>"	n/a	n/a	n/a	n/a	n/a	n/a	n/a	n/a	n/a	n/a
"TRUE"	"preload"	"5"	"122114"	"0.0-4.0-1.0-0.0"	"01o4y6"	"600"	"1366"	"chrome"	"109.0.0"	"FALSE"	"Windows 10"	"60.56"	"024"	n/a	n/a	n/a	n/a	n/a	n/a	n/a	n/a	n/a	n/a	n/a	"NULL"	"FALSE"	"list()"	"list()"	"list()"	n/a	n/a	n/a	n/a	n/a	n/a	n/a	n/a	n/a	n/a	n/a
n/a	"html-keyboard-response"	"6"	"136805"	"0.0-4.0-1.0-1.0"	"01o4y6"	"600"	"1366"	"chrome"	"109.0.0"	"FALSE"	"Windows 10"	"60.56"	"024"	n/a	n/a	n/a	n/a	n/a	n/a	n/a	n/a	n/a	n/a	"14689"	"enter"	n/a	"NULL"	"NULL"	"NULL"	"<p><b>Practice</b></p><p>In this part, two red circles will appear side by side on the screen.</p><p>Your task is to select which <b>red circle is bigger</b> in size as fast as you can, without making errors.</p><p>Don't get distracted by the surrounding black circles around the red circles!</p><p>Press <b>the LEFT or the RIGHT arrow</b> to indicate which is the bigger <b>red circle.</b></p><div style='float: center'><img src='materials/instructions/Ebbinghaus_Demo.png' height='300'></img><p><img src='utils/answer/answer_leftright_keyboard.PNG' height='150'></img></p><p class='small'>In this example, the correct answer is the <b>LEFT arrow</b>.</p></div><p>Are you ready? <b>Press ENTER to start</b></p>"	n/a	n/a	n/a	n/a	n/a	n/a	n/a	n/a	n/a	n/a
n/a	"html-keyboard-response"	"7"	"138357"	"0.0-4.0-1.0-2.0-0.0"	"01o4y6"	"600"	"1366"	"chrome"	"109.0.0"	"FALSE"	"Windows 10"	"60.56"	"024"	n/a	n/a	n/a	n/a	n/a	n/a	"fixation"	n/a	n/a	n/a	n/a	"NULL"	n/a	"NULL"	"NULL"	"NULL"	"<p style=\"color: black; font-size: 80px; padding-left: 45%; padding-right: 41%; padding-top: 34%; padding-bottom: 22%\">+</p>"	"1017"	n/a	n/a	n/a	n/a	n/a	n/a	n/a	n/a	n/a
n/a	"image-keyboard-response"	"8"	"138847"	"0.0-4.0-1.0-2.0-1.0"	"01o4y6"	"600"	"1366"	"chrome"	"109.0.0"	"FALSE"	"Windows 10"	"60.56"	"024"	n/a	n/a	n/a	n/a	n/a	n/a	"Trial"	n/a	n/a	n/a	"480"	"arrowleft"	n/a	"NULL"	"NULL"	"NULL"	"stimuli/Ebbinghaus_1000000_1.40000.png"	n/a	"Ebbinghaus"	"arrowleft"	"1552"	"TRUE"	"Ebbinghaus"	"100000000000"	"1.4000000000"	"1"	"1"
n/a	"html-keyboard-response"	"9"	"140014"	"0.0-4.0-1.0-2.0-0.1"	"01o4y6"	"600"	"1366"	"chrome"	"109.0.0"	"FALSE"	"Windows 10"	"60.56"	"024"	n/a	n/a	n/a	n/a	n/a	n/a	"fixation"	n/a	n/a	n/a	n/a	"NULL"	n/a	"NULL"	"NULL"	"NULL"	"<p style=\"color: black; font-size: 80px; padding-left: 21%; padding-right: 10%; padding-top: 8%; padding-bottom: 2%\">+</p>"	"1155"	n/a	n/a	n/a	n/a	n/a	n/a	n/a	n/a	n/a
n/a	"image-keyboard-response"	"10"	"140467"	"0.0-4.0-1.0-2.0-1.1"	"01o4y6"	"600"	"1366"	"chrome"	"109.0.0"	"FALSE"	"Windows 10"	"60.56"	"024"	n/a	n/a	n/a	n/a	n/a	n/a	"Trial"	n/a	n/a	n/a	"452"	"arrowleft"	n/a	"NULL"	"NULL"	"NULL"	"stimuli/Ebbinghaus_-100000_1.40000.png"	n/a	"Ebbinghaus"	"arrowleft"	"1167"	"TRUE"	"Ebbinghaus"	"-10000000000"	"1.4000000000"	"1"	"2"
n/a	"html-keyboard-response"	"11"	"141782"	"0.0-4.0-1.0-2.0-0.2"	"01o4y6"	"600"	"1366"	"chrome"	"109.0.0"	"FALSE"	"Windows 10"	"60.56"	"024"	n/a	n/a	n/a	n/a	n/a	n/a	"fixation"	n/a	n/a	n/a	n/a	"NULL"	n/a	"NULL"	"NULL"	"NULL"	"<p style=\"color: black; font-size: 80px; padding-left: 13%; padding-right: 43%; padding-top: 42%; padding-bottom: 10%\">+</p>"	"1295"	n/a	n/a	n/a	n/a	n/a	n/a	n/a	n/a	n/a
n/a	"image-keyboard-response"	"12"	"142179"	"0.0-4.0-1.0-2.0-1.2"	"01o4y6"	"600"	"1366"	"chrome"	"109.0.0"	"FALSE"	"Windows 10"	"60.56"	"024"	n/a	n/a	n/a	n/a	n/a	n/a	"Trial"	n/a	n/a	n/a	"396"	"arrowright"	n/a	"NULL"	"NULL"	"NULL"	"stimuli/Ebbinghaus_0000000_-1.4000.png"	n/a	"Ebbinghaus"	"arrowright"	"1315"	"TRUE"	"Ebbinghaus"	"000000000000"	"-1.400000000"	"1"	"3"
n/a	"html-keyboard-response"	"13"	"143240"	"0.0-4.0-1.0-2.0-0.3"	"01o4y6"	"600"	"1366"	"chrome"	"109.0.0"	"FALSE"	"Windows 10"	"60.56"	"024"	n/a	n/a	n/a	n/a	n/a	n/a	"fixation"	n/a	n/a	n/a	n/a	"NULL"	n/a	"NULL"	"NULL"	"NULL"	"<p style=\"color: black; font-size: 80px; padding-left: 1%; padding-right: 13%; padding-top: 45%; padding-bottom: 42%\">+</p>"	"1046"	n/a	n/a	n/a	n/a	n/a	n/a	n/a	n/a	n/a
n/a	"image-keyboard-response"	"14"	"143624"	"0.0-4.0-1.0-2.0-1.3"	"01o4y6"	"600"	"1366"	"chrome"	"109.0.0"	"FALSE"	"Windows 10"	"60.56"	"024"	n/a	n/a	n/a	n/a	n/a	n/a	"Trial"	n/a	n/a	n/a	"384"	"arrowright"	n/a	"NULL"	"NULL"	"NULL"	"stimuli/Ebbinghaus_-100000_-1.4000.png"	n/a	"Ebbinghaus"	"arrowright"	"1061"	"TRUE"	"Ebbinghaus"	"-10000000000"	"-1.400000000"	"1"	"4"
n/a	"html-keyboard-response"	"15"	"145028"	"0.0-4.0-1.0-2.0-0.4"	"01o4y6"	"600"	"1366"	"chrome"	"109.0.0"	"FALSE"	"Windows 10"	"60.56"	"024"	n/a	n/a	n/a	n/a	n/a	n/a	"fixation"	n/a	n/a	n/a	n/a	"NULL"	n/a	"NULL"	"NULL"	"NULL"	"<p style=\"color: black; font-size: 80px; padding-left: 7%; padding-right: 45%; padding-top: 32%; padding-bottom: 2%\">+</p>"	"1388"	n/a	n/a	n/a	n/a	n/a	n/a	n/a	n/a	n/a
n/a	"image-keyboard-response"	"16"	"145459"	"0.0-4.0-1.0-2.0-1.4"	"01o4y6"	"600"	"1366"	"chrome"	"109.0.0"	"FALSE"	"Windows 10"	"60.56"	"024"	n/a	n/a	n/a	n/a	n/a	n/a	"Trial"	n/a	n/a	n/a	"430"	"arrowright"	n/a	"NULL"	"NULL"	"NULL"	"stimuli/Ebbinghaus_1000000_-1.4000.png"	n/a	"Ebbinghaus"	"arrowright"	"1404"	"TRUE"	"Ebbinghaus"	"100000000000"	"-1.400000000"	"1"	"5"
n/a	"html-keyboard-response"	"17"	"146579"	"0.0-4.0-1.0-2.0-0.5"	"01o4y6"	"600"	"1366"	"chrome"	"109.0.0"	"FALSE"	"Windows 10"	"60.56"	"024"	n/a	n/a	n/a	n/a	n/a	n/a	"fixation"	n/a	n/a	n/a	n/a	"NULL"	n/a	"NULL"	"NULL"	"NULL"	"<p style=\"color: black; font-size: 80px; padding-left: 38%; padding-right: 41%; padding-top: 1%; padding-bottom: 34%\">+</p>"	"1110"	n/a	n/a	n/a	n/a	n/a	n/a	n/a	n/a	n/a
n/a	"image-keyboard-response"	"18"	"146967"	"0.0-4.0-1.0-2.0-1.5"	"01o4y6"	"600"	"1366"	"chrome"	"109.0.0"	"FALSE"	"Windows 10"	"60.56"	"024"	n/a	n/a	n/a	n/a	n/a	n/a	"Trial"	n/a	n/a	n/a	"387"	"arrowleft"	n/a	"NULL"	"NULL"	"NULL"	"stimuli/Ebbinghaus_0000000_1.40000.png"	n/a	"Ebbinghaus"	"arrowleft"	"1120"	"TRUE"	"Ebbinghaus"	"000000000000"	"1.4000000000"	"1"	"6"
n/a	"html-button-response"	"19"	"152103"	"0.0-4.0-1.0-3.0"	"01o4y6"	"600"	"1366"	"chrome"	"109.0.0"	"FALSE"	"Windows 10"	"60.56"	"024"	n/a	n/a	n/a	n/a	n/a	n/a	"practice_block_results"	n/a	n/a	n/a	"5134"	"0"	n/a	"NULL"	"NULL"	"NULL"	"<p style='color:rgb(76,175,80);'> Correct Responses: <b>100.00%</b></p><hr><p style='color:rgb(233,30,99);'> Average Response Time: <b>421.50</b> ms.</p>"	n/a	n/a	n/a	n/a	n/a	n/a	n/a	n/a	n/a	n/a
"TRUE"	"preload"	"20"	"152639"	"0.0-4.0-2.0-0.0"	"01o4y6"	"600"	"1366"	"chrome"	"109.0.0"	"FALSE"	"Windows 10"	"60.56"	"024"	n/a	n/a	n/a	n/a	n/a	n/a	n/a	n/a	n/a	n/a	n/a	"NULL"	"FALSE"	"list()"	"list()"	"list()"	n/a	n/a	n/a	n/a	n/a	n/a	n/a	n/a	n/a	n/a	n/a
n/a	"html-keyboard-response"	"21"	"168044"	"0.0-4.0-2.0-1.0"	"01o4y6"	"600"	"1366"	"chrome"	"109.0.0"	"FALSE"	"Windows 10"	"60.56"	"024"	n/a	n/a	n/a	n/a	n/a	n/a	n/a	n/a	n/a	n/a	"15404"	"enter"	n/a	"NULL"	"NULL"	"NULL"	"<p><b>Practice</b></p><p>In this part, two horizontal red lines will appear one above the other.</p><p>Your task is to select which <b>line is longer</b> in length as fast as you can, without making errors.</p><p>Don't get distracted by the surrounding black arrows at the end of the red lines!</p><p>Press <b>the UP or the DOWN arrow</b> to indicate where is the longer <b>red line.</b></p><div style='float: center'><img src='materials/instructions/MullerLyer_Demo.png' height='300'></img><p><img src='utils/answer/answer_updown_keyboard.PNG' height='150'></img></p><p class='small'>In this example, the correct answer is the <b>UP arrow</b>.</p></div><p>Are you ready? <b>Press ENTER to start</b></p>"	n/a	n/a	n/a	n/a	n/a	n/a	n/a	n/a	n/a	n/a
n/a	"html-keyboard-response"	"22"	"169823"	"0.0-4.0-2.0-2.0-0.0"	"01o4y6"	"600"	"1366"	"chrome"	"109.0.0"	"FALSE"	"Windows 10"	"60.56"	"024"	n/a	n/a	n/a	n/a	n/a	n/a	"fixation"	n/a	n/a	n/a	n/a	"NULL"	n/a	"NULL"	"NULL"	"NULL"	"<p style=\"color: black; font-size: 80px; padding-left: 18%; padding-right: 43%; padding-top: 2%; padding-bottom: 14%\">+</p>"	"1256"	n/a	n/a	n/a	n/a	n/a	n/a	n/a	n/a	n/a
n/a	"image-keyboard-response"	"23"	"170505"	"0.0-4.0-2.0-2.0-1.0"	"01o4y6"	"600"	"1366"	"chrome"	"109.0.0"	"FALSE"	"Windows 10"	"60.56"	"024"	n/a	n/a	n/a	n/a	n/a	n/a	"Trial"	n/a	n/a	n/a	"681"	"arrowdown"	n/a	"NULL"	"NULL"	"NULL"	"stimuli/MullerLyer_0000000_-0.7000.png"	n/a	"MullerLyer"	"arrowdown"	"1779"	"TRUE"	"MullerLyer"	"000000000000"	"-0.700000000"	"1"	"7"
n/a	"html-keyboard-response"	"24"	"171639"	"0.0-4.0-2.0-2.0-0.1"	"01o4y6"	"600"	"1366"	"chrome"	"109.0.0"	"FALSE"	"Windows 10"	"60.56"	"024"	n/a	n/a	n/a	n/a	n/a	n/a	"fixation"	n/a	n/a	n/a	n/a	"NULL"	n/a	"NULL"	"NULL"	"NULL"	"<p style=\"color: black; font-size: 80px; padding-left: 6%; padding-right: 38%; padding-top: 38%; padding-bottom: 4%\">+</p>"	"1111"	n/a	n/a	n/a	n/a	n/a	n/a	n/a	n/a	n/a
n/a	"image-keyboard-response"	"25"	"172124"	"0.0-4.0-2.0-2.0-1.1"	"01o4y6"	"600"	"1366"	"chrome"	"109.0.0"	"FALSE"	"Windows 10"	"60.56"	"024"	n/a	n/a	n/a	n/a	n/a	n/a	"Trial"	n/a	n/a	n/a	"484"	"arrowup"	n/a	"NULL"	"NULL"	"NULL"	"stimuli/MullerLyer_-230000_0.70000.png"	n/a	"MullerLyer"	"arrowup"	"1134"	"TRUE"	"MullerLyer"	"-23000000000"	"0.7000000000"	"1"	"8"
n/a	"html-keyboard-response"	"26"	"173216"	"0.0-4.0-2.0-2.0-0.2"	"01o4y6"	"600"	"1366"	"chrome"	"109.0.0"	"FALSE"	"Windows 10"	"60.56"	"024"	n/a	n/a	n/a	n/a	n/a	n/a	"fixation"	n/a	n/a	n/a	n/a	"NULL"	n/a	"NULL"	"NULL"	"NULL"	"<p style=\"color: black; font-size: 80px; padding-left: 46%; padding-right: 31%; padding-top: 32%; padding-bottom: 34%\">+</p>"	"1075"	n/a	n/a	n/a	n/a	n/a	n/a	n/a	n/a	n/a
n/a	"image-keyboard-response"	"27"	"173620"	"0.0-4.0-2.0-2.0-1.2"	"01o4y6"	"600"	"1366"	"chrome"	"109.0.0"	"FALSE"	"Windows 10"	"60.56"	"024"	n/a	n/a	n/a	n/a	n/a	n/a	"Trial"	n/a	n/a	n/a	"403"	"arrowup"	n/a	"NULL"	"NULL"	"NULL"	"stimuli/MullerLyer_0000000_0.70000.png"	n/a	"MullerLyer"	"arrowup"	"1092"	"TRUE"	"MullerLyer"	"000000000000"	"0.7000000000"	"1"	"9"
n/a	"html-keyboard-response"	"28"	"174919"	"0.0-4.0-2.0-2.0-0.3"	"01o4y6"	"600"	"1366"	"chrome"	"109.0.0"	"FALSE"	"Windows 10"	"60.56"	"024"	n/a	n/a	n/a	n/a	n/a	n/a	"fixation"	n/a	n/a	n/a	n/a	"NULL"	n/a	"NULL"	"NULL"	"NULL"	"<p style=\"color: black; font-size: 80px; padding-left: 46%; padding-right: 48%; padding-top: 1%; padding-bottom: 11%\">+</p>"	"1287"	n/a	n/a	n/a	n/a	n/a	n/a	n/a	n/a	n/a
n/a	"image-keyboard-response"	"29"	"175485"	"0.0-4.0-2.0-2.0-1.3"	"01o4y6"	"600"	"1366"	"chrome"	"109.0.0"	"FALSE"	"Windows 10"	"60.56"	"024"	n/a	n/a	n/a	n/a	n/a	n/a	"Trial"	n/a	n/a	n/a	"566"	"arrowdown"	n/a	"NULL"	"NULL"	"NULL"	"stimuli/MullerLyer_2300000_-0.7000.png"	n/a	"MullerLyer"	"arrowdown"	"1299"	"TRUE"	"MullerLyer"	"230000000000"	"-0.700000000"	"1"	"10"
n/a	"html-keyboard-response"	"30"	"176791"	"0.0-4.0-2.0-2.0-0.4"	"01o4y6"	"600"	"1366"	"chrome"	"109.0.0"	"FALSE"	"Windows 10"	"60.56"	"024"	n/a	n/a	n/a	n/a	n/a	n/a	"fixation"	n/a	n/a	n/a	n/a	"NULL"	n/a	"NULL"	"NULL"	"NULL"	"<p style=\"color: black; font-size: 80px; padding-left: 39%; padding-right: 27%; padding-top: 47%; padding-bottom: 38%\">+</p>"	"1297"	n/a	n/a	n/a	n/a	n/a	n/a	n/a	n/a	n/a
n/a	"image-keyboard-response"	"31"	"177311"	"0.0-4.0-2.0-2.0-1.4"	"01o4y6"	"600"	"1366"	"chrome"	"109.0.0"	"FALSE"	"Windows 10"	"60.56"	"024"	n/a	n/a	n/a	n/a	n/a	n/a	"Trial"	n/a	n/a	n/a	"520"	"arrowup"	n/a	"NULL"	"NULL"	"NULL"	"stimuli/MullerLyer_2300000_0.70000.png"	n/a	"MullerLyer"	"arrowup"	"1306"	"TRUE"	"MullerLyer"	"230000000000"	"0.7000000000"	"1"	"11"
n/a	"html-keyboard-response"	"32"	"178358"	"0.0-4.0-2.0-2.0-0.5"	"01o4y6"	"600"	"1366"	"chrome"	"109.0.0"	"FALSE"	"Windows 10"	"60.56"	"024"	n/a	n/a	n/a	n/a	n/a	n/a	"fixation"	n/a	n/a	n/a	n/a	"NULL"	n/a	"NULL"	"NULL"	"NULL"	"<p style=\"color: black; font-size: 80px; padding-left: 28%; padding-right: 7%; padding-top: 30%; padding-bottom: 1%\">+</p>"	"1034"	n/a	n/a	n/a	n/a	n/a	n/a	n/a	n/a	n/a
n/a	"image-keyboard-response"	"33"	"178797"	"0.0-4.0-2.0-2.0-1.5"	"01o4y6"	"600"	"1366"	"chrome"	"109.0.0"	"FALSE"	"Windows 10"	"60.56"	"024"	n/a	n/a	n/a	n/a	n/a	n/a	"Trial"	n/a	n/a	n/a	"439"	"arrowdown"	n/a	"NULL"	"NULL"	"NULL"	"stimuli/MullerLyer_-230000_-0.7000.png"	n/a	"MullerLyer"	"arrowdown"	"1047"	"TRUE"	"MullerLyer"	"-23000000000"	"-0.700000000"	"1"	"12"
n/a	"html-button-response"	"34"	"181527"	"0.0-4.0-2.0-3.0"	"01o4y6"	"600"	"1366"	"chrome"	"109.0.0"	"FALSE"	"Windows 10"	"60.56"	"024"	n/a	n/a	n/a	n/a	n/a	n/a	"practice_block_results"	n/a	n/a	n/a	"2729"	"0"	n/a	"NULL"	"NULL"	"NULL"	"<p style='color:rgb(76,175,80);'> Correct Responses: <b>100.00%</b></p><hr><p style='color:rgb(233,30,99);'> Average Response Time: <b>515.50</b> ms.</p>"	n/a	n/a	n/a	n/a	n/a	n/a	n/a	n/a	n/a	n/a
"TRUE"	"preload"	"35"	"182048"	"0.0-4.0-3.0-0.0"	"01o4y6"	"600"	"1366"	"chrome"	"109.0.0"	"FALSE"	"Windows 10"	"60.56"	"024"	n/a	n/a	n/a	n/a	n/a	n/a	n/a	n/a	n/a	n/a	n/a	"NULL"	"FALSE"	"list()"	"list()"	"list()"	n/a	n/a	n/a	n/a	n/a	n/a	n/a	n/a	n/a	n/a	n/a
n/a	"html-keyboard-response"	"36"	"186194"	"0.0-4.0-3.0-1.0"	"01o4y6"	"600"	"1366"	"chrome"	"109.0.0"	"FALSE"	"Windows 10"	"60.56"	"024"	n/a	n/a	n/a	n/a	n/a	n/a	n/a	n/a	n/a	n/a	"4145"	"enter"	n/a	"NULL"	"NULL"	"NULL"	"<p><b>Practice</b></p><p>In this part, two red lines will appear side by side.</p><p>Your task is to tell <b>which line is longer</b> in length, regardless of their orientation, as fast as you can, and without making errors.</p><p>Don't get distracted by the orientation of the lines!</p><p>Press <b>the LEFT or the RIGHT arrow</b> to indicate which <b>line is the longer one.</b></p><div style='float: center'><img src='materials/instructions/VerticalHorizontal_Demo.png' height='300'></img><p><img src='utils/answer/answer_leftright_keyboard.PNG' height='150'></img></p><p class='small'>In this example, the correct answer is the <b>LEFT arrow</b>.</p></div><p>Are you ready? <b>Press ENTER to start</b></p>"	n/a	n/a	n/a	n/a	n/a	n/a	n/a	n/a	n/a	n/a
n/a	"html-keyboard-response"	"37"	"187903"	"0.0-4.0-3.0-2.0-0.0"	"01o4y6"	"600"	"1366"	"chrome"	"109.0.0"	"FALSE"	"Windows 10"	"60.56"	"024"	n/a	n/a	n/a	n/a	n/a	n/a	"fixation"	n/a	n/a	n/a	n/a	"NULL"	n/a	"NULL"	"NULL"	"NULL"	"<p style=\"color: black; font-size: 80px; padding-left: 11%; padding-right: 26%; padding-top: 31%; padding-bottom: 19%\">+</p>"	"1184"	n/a	n/a	n/a	n/a	n/a	n/a	n/a	n/a	n/a
n/a	"image-keyboard-response"	"38"	"188433"	"0.0-4.0-3.0-2.0-1.0"	"01o4y6"	"600"	"1366"	"chrome"	"109.0.0"	"FALSE"	"Windows 10"	"60.56"	"024"	n/a	n/a	n/a	n/a	n/a	n/a	"Trial"	n/a	n/a	n/a	"529"	"arrowleft"	n/a	"NULL"	"NULL"	"NULL"	"stimuli/VerticalHorizontal_0000000_0.90000.png"	n/a	"VerticalHorizontal"	"arrowleft"	"1709"	"TRUE"	"VerticalHorizontal"	"000000000000"	"0.9000000000"	"1"	"13"
n/a	"html-keyboard-response"	"39"	"189471"	"0.0-4.0-3.0-2.0-0.1"	"01o4y6"	"600"	"1366"	"chrome"	"109.0.0"	"FALSE"	"Windows 10"	"60.56"	"024"	n/a	n/a	n/a	n/a	n/a	n/a	"fixation"	n/a	n/a	n/a	n/a	"NULL"	n/a	"NULL"	"NULL"	"NULL"	"<p style=\"color: black; font-size: 80px; padding-left: 10%; padding-right: 38%; padding-top: 8%; padding-bottom: 21%\">+</p>"	"1027"	n/a	n/a	n/a	n/a	n/a	n/a	n/a	n/a	n/a
n/a	"image-keyboard-response"	"40"	"189888"	"0.0-4.0-3.0-2.0-1.1"	"01o4y6"	"600"	"1366"	"chrome"	"109.0.0"	"FALSE"	"Windows 10"	"60.56"	"024"	n/a	n/a	n/a	n/a	n/a	n/a	"Trial"	n/a	n/a	n/a	"416"	"arrowright"	n/a	"NULL"	"NULL"	"NULL"	"stimuli/VerticalHorizontal_3300000_-0.9000.png"	n/a	"VerticalHorizontal"	"arrowright"	"1038"	"TRUE"	"VerticalHorizontal"	"330000000000"	"-0.900000000"	"1"	"14"
n/a	"html-keyboard-response"	"41"	"190949"	"0.0-4.0-3.0-2.0-0.2"	"01o4y6"	"600"	"1366"	"chrome"	"109.0.0"	"FALSE"	"Windows 10"	"60.56"	"024"	n/a	n/a	n/a	n/a	n/a	n/a	"fixation"	n/a	n/a	n/a	n/a	"NULL"	n/a	"NULL"	"NULL"	"NULL"	"<p style=\"color: black; font-size: 80px; padding-left: 36%; padding-right: 7%; padding-top: 20%; padding-bottom: 16%\">+</p>"	"1045"	n/a	n/a	n/a	n/a	n/a	n/a	n/a	n/a	n/a
n/a	"image-keyboard-response"	"42"	"191315"	"0.0-4.0-3.0-2.0-1.2"	"01o4y6"	"600"	"1366"	"chrome"	"109.0.0"	"FALSE"	"Windows 10"	"60.56"	"024"	n/a	n/a	n/a	n/a	n/a	n/a	"Trial"	n/a	n/a	n/a	"365"	"arrowright"	n/a	"NULL"	"NULL"	"NULL"	"stimuli/VerticalHorizontal_0000000_-0.9000.png"	n/a	"VerticalHorizontal"	"arrowright"	"1061"	"TRUE"	"VerticalHorizontal"	"000000000000"	"-0.900000000"	"1"	"15"
n/a	"html-keyboard-response"	"43"	"192628"	"0.0-4.0-3.0-2.0-0.3"	"01o4y6"	"600"	"1366"	"chrome"	"109.0.0"	"FALSE"	"Windows 10"	"60.56"	"024"	n/a	n/a	n/a	n/a	n/a	n/a	"fixation"	n/a	n/a	n/a	n/a	"NULL"	n/a	"NULL"	"NULL"	"NULL"	"<p style=\"color: black; font-size: 80px; padding-left: 27%; padding-right: 23%; padding-top: 12%; padding-bottom: 41%\">+</p>"	"1294"	n/a	n/a	n/a	n/a	n/a	n/a	n/a	n/a	n/a
n/a	"image-keyboard-response"	"44"	"192997"	"0.0-4.0-3.0-2.0-1.3"	"01o4y6"	"600"	"1366"	"chrome"	"109.0.0"	"FALSE"	"Windows 10"	"60.56"	"024"	n/a	n/a	n/a	n/a	n/a	n/a	"Trial"	n/a	n/a	n/a	"368"	"arrowleft"	n/a	"NULL"	"NULL"	"NULL"	"stimuli/VerticalHorizontal_-330000_0.90000.png"	n/a	"VerticalHorizontal"	"arrowleft"	"1313"	"TRUE"	"VerticalHorizontal"	"-33000000000"	"0.9000000000"	"1"	"16"
n/a	"html-keyboard-response"	"45"	"194262"	"0.0-4.0-3.0-2.0-0.4"	"01o4y6"	"600"	"1366"	"chrome"	"109.0.0"	"FALSE"	"Windows 10"	"60.56"	"024"	n/a	n/a	n/a	n/a	n/a	n/a	"fixation"	n/a	n/a	n/a	n/a	"NULL"	n/a	"NULL"	"NULL"	"NULL"	"<p style=\"color: black; font-size: 80px; padding-left: 34%; padding-right: 3%; padding-top: 7%; padding-bottom: 38%\">+</p>"	"1250"	n/a	n/a	n/a	n/a	n/a	n/a	n/a	n/a	n/a
n/a	"image-keyboard-response"	"46"	"194596"	"0.0-4.0-3.0-2.0-1.4"	"01o4y6"	"600"	"1366"	"chrome"	"109.0.0"	"FALSE"	"Windows 10"	"60.56"	"024"	n/a	n/a	n/a	n/a	n/a	n/a	"Trial"	n/a	n/a	n/a	"334"	"arrowright"	n/a	"NULL"	"NULL"	"NULL"	"stimuli/VerticalHorizontal_-330000_-0.9000.png"	n/a	"VerticalHorizontal"	"arrowright"	"1265"	"TRUE"	"VerticalHorizontal"	"-33000000000"	"-0.900000000"	"1"	"17"
n/a	"html-keyboard-response"	"47"	"196055"	"0.0-4.0-3.0-2.0-0.5"	"01o4y6"	"600"	"1366"	"chrome"	"109.0.0"	"FALSE"	"Windows 10"	"60.56"	"024"	n/a	n/a	n/a	n/a	n/a	n/a	"fixation"	n/a	n/a	n/a	n/a	"NULL"	n/a	"NULL"	"NULL"	"NULL"	"<p style=\"color: black; font-size: 80px; padding-left: 14%; padding-right: 1%; padding-top: 22%; padding-bottom: 2%\">+</p>"	"1436"	n/a	n/a	n/a	n/a	n/a	n/a	n/a	n/a	n/a
n/a	"image-keyboard-response"	"48"	"196468"	"0.0-4.0-3.0-2.0-1.5"	"01o4y6"	"600"	"1366"	"chrome"	"109.0.0"	"FALSE"	"Windows 10"	"60.56"	"024"	n/a	n/a	n/a	n/a	n/a	n/a	"Trial"	n/a	n/a	n/a	"412"	"arrowleft"	n/a	"NULL"	"NULL"	"NULL"	"stimuli/VerticalHorizontal_3300000_0.90000.png"	n/a	"VerticalHorizontal"	"arrowleft"	"1459"	"TRUE"	"VerticalHorizontal"	"330000000000"	"0.9000000000"	"1"	"18"
n/a	"html-button-response"	"49"	"198512"	"0.0-4.0-3.0-3.0"	"01o4y6"	"600"	"1366"	"chrome"	"109.0.0"	"FALSE"	"Windows 10"	"60.56"	"024"	n/a	n/a	n/a	n/a	n/a	n/a	"practice_block_results"	n/a	n/a	n/a	"2042"	"0"	n/a	"NULL"	"NULL"	"NULL"	"<p style='color:rgb(76,175,80);'> Correct Responses: <b>100.00%</b></p><hr><p style='color:rgb(233,30,99);'> Average Response Time: <b>404.00</b> ms.</p>"	n/a	n/a	n/a	n/a	n/a	n/a	n/a	n/a	n/a	n/a
n/a	"html-button-response"	"50"	"327570"	"0.0-4.0-4.0"	"01o4y6"	"600"	"1366"	"chrome"	"109.0.0"	"FALSE"	"Windows 10"	"60.56"	"024"	n/a	n/a	n/a	n/a	n/a	n/a	"practice_debrief"	n/a	n/a	n/a	"128552"	"0"	n/a	"NULL"	"NULL"	"NULL"	"<p><b>TRAINING COMPLETED</b></p><p>In the next phase, there will be more trials, and some might be harder too.<br> Moreover, after each illusion block, a <b>score</b> will be calculated based on speed (time you took to answer) and accuracy (number of errors).</p><p>Try to keep up a high score!</p><br><p>Note that it can be <i>really</i> challenging at times, so you will need to rely on your <b>intuition</b> and gut feeling to answer as fast as you can without making errors.</p><p>Each illusion block will be repeated two times (so that you have the opportunity to improve your score), but the order of the blocks is random.</p><p>Remember, your goal is to be as <b>fast</b> and <b>accurate</b> as possible. Good luck!</p><br>"	n/a	n/a	n/a	n/a	n/a	n/a	n/a	n/a	n/a	n/a
"TRUE"	"preload"	"51"	"327732"	"0.0-5.0-0.0"	"01o4y6"	"600"	"1366"	"chrome"	"109.0.0"	"FALSE"	"Windows 10"	"60.56"	"024"	n/a	n/a	n/a	n/a	n/a	n/a	n/a	n/a	n/a	n/a	n/a	"NULL"	"FALSE"	"list()"	"list()"	"list()"	n/a	n/a	n/a	n/a	n/a	n/a	n/a	n/a	n/a	n/a	n/a
n/a	"html-keyboard-response"	"52"	"332862"	"0.0-5.0-1.0"	"01o4y6"	"600"	"1366"	"chrome"	"109.0.0"	"FALSE"	"Windows 10"	"60.56"	"024"	n/a	n/a	n/a	n/a	n/a	n/a	n/a	n/a	n/a	n/a	"5129"	"enter"	n/a	"NULL"	"NULL"	"NULL"	"<p><b>Part 1/6</b></p><p>In this part, two red lines will appear side by side.</p><p>Your task is to tell <b>which line is longer</b> in length, regardless of their orientation, as fast as you can, and without making errors.</p><p>Don't get distracted by the orientation of the lines!</p><p>Press <b>the LEFT or the RIGHT arrow</b> to indicate which <b>line is the longer one.</b></p><div style='float: center'><img src='materials/instructions/VerticalHorizontal_Demo.png' height='300'></img><p><img src='utils/answer/answer_leftright_keyboard.PNG' height='150'></img></p><p class='small'>In this example, the correct answer is the <b>LEFT arrow</b>.</p></div><p>Are you ready? <b>Press ENTER to start</b></p>"	n/a	n/a	n/a	n/a	n/a	n/a	n/a	n/a	n/a	n/a
n/a	"html-keyboard-response"	"53"	"334435"	"0.0-5.0-2.0-0.0"	"01o4y6"	"600"	"1366"	"chrome"	"109.0.0"	"FALSE"	"Windows 10"	"60.56"	"024"	n/a	n/a	n/a	n/a	n/a	n/a	"fixation"	n/a	n/a	n/a	n/a	"NULL"	n/a	"NULL"	"NULL"	"NULL"	"<p style=\"color: black; font-size: 80px; padding-left: 3%; padding-right: 8%; padding-top: 25%; padding-bottom: 0%\">+</p>"	"1045"	n/a	n/a	n/a	n/a	n/a	n/a	n/a	n/a	n/a
n/a	"image-keyboard-response"	"54"	"334848"	"0.0-5.0-2.0-1.0"	"01o4y6"	"600"	"1366"	"chrome"	"109.0.0"	"FALSE"	"Windows 10"	"60.56"	"024"	n/a	n/a	n/a	n/a	n/a	n/a	"Trial"	n/a	n/a	n/a	"412"	"arrowright"	n/a	"NULL"	"NULL"	"NULL"	"stimuli/VerticalHorizontal_-11.78571_-0.16217.png"	n/a	"VerticalHorizontal"	"arrowright"	"1573"	"TRUE"	"VerticalHorizontal"	"-11.78571000"	"-0.162170000"	"1"	"19"
n/a	"html-keyboard-response"	"55"	"336194"	"0.0-5.0-2.0-0.1"	"01o4y6"	"600"	"1366"	"chrome"	"109.0.0"	"FALSE"	"Windows 10"	"60.56"	"024"	n/a	n/a	n/a	n/a	n/a	n/a	"fixation"	n/a	n/a	n/a	n/a	"NULL"	n/a	"NULL"	"NULL"	"NULL"	"<p style=\"color: black; font-size: 80px; padding-left: 24%; padding-right: 35%; padding-top: 10%; padding-bottom: 8%\">+</p>"	"1331"	n/a	n/a	n/a	n/a	n/a	n/a	n/a	n/a	n/a
n/a	"image-keyboard-response"	"56"	"336612"	"0.0-5.0-2.0-1.1"	"01o4y6"	"600"	"1366"	"chrome"	"109.0.0"	"FALSE"	"Windows 10"	"60.56"	"024"	n/a	n/a	n/a	n/a	n/a	n/a	"Trial"	n/a	n/a	n/a	"418"	"arrowright"	n/a	"NULL"	"NULL"	"NULL"	"stimuli/VerticalHorizontal_-3.3000_-0.1096.png"	n/a	"VerticalHorizontal"	"arrowright"	"1346"	"TRUE"	"VerticalHorizontal"	"-3.300000000"	"-0.109600000"	"1"	"20"
n/a	"html-keyboard-response"	"57"	"337736"	"0.0-5.0-2.0-0.2"	"01o4y6"	"600"	"1366"	"chrome"	"109.0.0"	"FALSE"	"Windows 10"	"60.56"	"024"	n/a	n/a	n/a	n/a	n/a	n/a	"fixation"	n/a	n/a	n/a	n/a	"NULL"	n/a	"NULL"	"NULL"	"NULL"	"<p style=\"color: black; font-size: 80px; padding-left: 11%; padding-right: 19%; padding-top: 4%; padding-bottom: 44%\">+</p>"	"1108"	n/a	n/a	n/a	n/a	n/a	n/a	n/a	n/a	n/a
n/a	"image-keyboard-response"	"58"	"338185"	"0.0-5.0-2.0-1.2"	"01o4y6"	"600"	"1366"	"chrome"	"109.0.0"	"FALSE"	"Windows 10"	"60.56"	"024"	n/a	n/a	n/a	n/a	n/a	n/a	"Trial"	n/a	n/a	n/a	"449"	"arrowright"	n/a	"NULL"	"NULL"	"NULL"	"stimuli/VerticalHorizontal_3.30000_-0.16217.png"	n/a	"VerticalHorizontal"	"arrowright"	"1124"	"TRUE"	"VerticalHorizontal"	"3.3000000000"	"-0.162170000"	"1"	"21"
n/a	"html-keyboard-response"	"59"	"339476"	"0.0-5.0-2.0-0.3"	"01o4y6"	"600"	"1366"	"chrome"	"109.0.0"	"FALSE"	"Windows 10"	"60.56"	"024"	n/a	n/a	n/a	n/a	n/a	n/a	"fixation"	n/a	n/a	n/a	n/a	"NULL"	n/a	"NULL"	"NULL"	"NULL"	"<p style=\"color: black; font-size: 80px; padding-left: 24%; padding-right: 21%; padding-top: 16%; padding-bottom: 12%\">+</p>"	"1281"	n/a	n/a	n/a	n/a	n/a	n/a	n/a	n/a	n/a
n/a	"image-keyboard-response"	"60"	"339931"	"0.0-5.0-2.0-1.3"	"01o4y6"	"600"	"1366"	"chrome"	"109.0.0"	"FALSE"	"Windows 10"	"60.56"	"024"	n/a	n/a	n/a	n/a	n/a	n/a	"Trial"	n/a	n/a	n/a	"454"	"arrowright"	n/a	"NULL"	"NULL"	"NULL"	"stimuli/VerticalHorizontal_20.27143_0.10960.png"	n/a	"VerticalHorizontal"	"arrowleft"	"1291"	"FALSE"	"VerticalHorizontal"	"20.271430000"	"0.1096000000"	"1"	"22"
n/a	"html-keyboard-response"	"61"	"341223"	"0.0-5.0-2.0-0.4"	"01o4y6"	"600"	"1366"	"chrome"	"109.0.0"	"FALSE"	"Windows 10"	"60.56"	"024"	n/a	n/a	n/a	n/a	n/a	n/a	"fixation"	n/a	n/a	n/a	n/a	"NULL"	n/a	"NULL"	"NULL"	"NULL"	"<p style=\"color: black; font-size: 80px; padding-left: 22%; padding-right: 43%; padding-top: 17%; padding-bottom: 33%\">+</p>"	"1281"	n/a	n/a	n/a	n/a	n/a	n/a	n/a	n/a	n/a
n/a	"image-keyboard-response"	"62"	"341618"	"0.0-5.0-2.0-1.4"	"01o4y6"	"600"	"1366"	"chrome"	"109.0.0"	"FALSE"	"Windows 10"	"60.56"	"024"	n/a	n/a	n/a	n/a	n/a	n/a	"Trial"	n/a	n/a	n/a	"395"	"arrowleft"	n/a	"NULL"	"NULL"	"NULL"	"stimuli/VerticalHorizontal_28.75714_-0.16217.png"	n/a	"VerticalHorizontal"	"arrowright"	"1292"	"FALSE"	"VerticalHorizontal"	"28.757140000"	"-0.162170000"	"1"	"23"
n/a	"html-keyboard-response"	"63"	"342824"	"0.0-5.0-2.0-0.5"	"01o4y6"	"600"	"1366"	"chrome"	"109.0.0"	"FALSE"	"Windows 10"	"60.56"	"024"	n/a	n/a	n/a	n/a	n/a	n/a	"fixation"	n/a	n/a	n/a	n/a	"NULL"	n/a	"NULL"	"NULL"	"NULL"	"<p style=\"color: black; font-size: 80px; padding-left: 19%; padding-right: 14%; padding-top: 21%; padding-bottom: 43%\">+</p>"	"1198"	n/a	n/a	n/a	n/a	n/a	n/a	n/a	n/a	n/a
n/a	"image-keyboard-response"	"64"	"343329"	"0.0-5.0-2.0-1.5"	"01o4y6"	"600"	"1366"	"chrome"	"109.0.0"	"FALSE"	"Windows 10"	"60.56"	"024"	n/a	n/a	n/a	n/a	n/a	n/a	"Trial"	n/a	n/a	n/a	"504"	"arrowleft"	n/a	"NULL"	"NULL"	"NULL"	"stimuli/VerticalHorizontal_3.30000_0.22500.png"	n/a	"VerticalHorizontal"	"arrowleft"	"1206"	"TRUE"	"VerticalHorizontal"	"3.3000000000"	"0.2250000000"	"1"	"24"
n/a	"html-keyboard-response"	"65"	"344622"	"0.0-5.0-2.0-0.6"	"01o4y6"	"600"	"1366"	"chrome"	"109.0.0"	"FALSE"	"Windows 10"	"60.56"	"024"	n/a	n/a	n/a	n/a	n/a	n/a	"fixation"	n/a	n/a	n/a	n/a	"NULL"	n/a	"NULL"	"NULL"	"NULL"	"<p style=\"color: black; font-size: 80px; padding-left: 40%; padding-right: 2%; padding-top: 26%; padding-bottom: 44%\">+</p>"	"1284"	n/a	n/a	n/a	n/a	n/a	n/a	n/a	n/a	n/a
n/a	"image-keyboard-response"	"66"	"345038"	"0.0-5.0-2.0-1.6"	"01o4y6"	"600"	"1366"	"chrome"	"109.0.0"	"FALSE"	"Windows 10"	"60.56"	"024"	n/a	n/a	n/a	n/a	n/a	n/a	"Trial"	n/a	n/a	n/a	"415"	"arrowleft"	n/a	"NULL"	"NULL"	"NULL"	"stimuli/VerticalHorizontal_-11.78571_0.16217.png"	n/a	"VerticalHorizontal"	"arrowleft"	"1293"	"TRUE"	"VerticalHorizontal"	"-11.78571000"	"0.1621700000"	"1"	"25"
n/a	"html-keyboard-response"	"67"	"346167"	"0.0-5.0-2.0-0.7"	"01o4y6"	"600"	"1366"	"chrome"	"109.0.0"	"FALSE"	"Windows 10"	"60.56"	"024"	n/a	n/a	n/a	n/a	n/a	n/a	"fixation"	n/a	n/a	n/a	n/a	"NULL"	n/a	"NULL"	"NULL"	"NULL"	"<p style=\"color: black; font-size: 80px; padding-left: 15%; padding-right: 38%; padding-top: 41%; padding-bottom: 11%\">+</p>"	"1113"	n/a	n/a	n/a	n/a	n/a	n/a	n/a	n/a	n/a
n/a	"image-keyboard-response"	"68"	"346775"	"0.0-5.0-2.0-1.7"	"01o4y6"	"600"	"1366"	"chrome"	"109.0.0"	"FALSE"	"Windows 10"	"60.56"	"024"	n/a	n/a	n/a	n/a	n/a	n/a	"Trial"	n/a	n/a	n/a	"608"	"arrowright"	n/a	"NULL"	"NULL"	"NULL"	"stimuli/VerticalHorizontal_20.27143_0.06730.png"	n/a	"VerticalHorizontal"	"arrowleft"	"1129"	"FALSE"	"VerticalHorizontal"	"20.271430000"	"0.0673000000"	"1"	"26"
n/a	"html-keyboard-response"	"69"	"348076"	"0.0-5.0-2.0-0.8"	"01o4y6"	"600"	"1366"	"chrome"	"109.0.0"	"FALSE"	"Windows 10"	"60.56"	"024"	n/a	n/a	n/a	n/a	n/a	n/a	"fixation"	n/a	n/a	n/a	n/a	"NULL"	n/a	"NULL"	"NULL"	"NULL"	"<p style=\"color: black; font-size: 80px; padding-left: 7%; padding-right: 16%; padding-top: 27%; padding-bottom: 22%\">+</p>"	"1289"	n/a	n/a	n/a	n/a	n/a	n/a	n/a	n/a	n/a
n/a	"image-keyboard-response"	"70"	"348629"	"0.0-5.0-2.0-1.8"	"01o4y6"	"600"	"1366"	"chrome"	"109.0.0"	"FALSE"	"Windows 10"	"60.56"	"024"	n/a	n/a	n/a	n/a	n/a	n/a	"Trial"	n/a	n/a	n/a	"552"	"arrowleft"	n/a	"NULL"	"NULL"	"NULL"	"stimuli/VerticalHorizontal_28.75714_0.22500.png"	n/a	"VerticalHorizontal"	"arrowleft"	"1301"	"TRUE"	"VerticalHorizontal"	"28.757140000"	"0.2250000000"	"1"	"27"
n/a	"html-keyboard-response"	"71"	"350109"	"0.0-5.0-2.0-0.9"	"01o4y6"	"600"	"1366"	"chrome"	"109.0.0"	"FALSE"	"Windows 10"	"60.56"	"024"	n/a	n/a	n/a	n/a	n/a	n/a	"fixation"	n/a	n/a	n/a	n/a	"NULL"	n/a	"NULL"	"NULL"	"NULL"	"<p style=\"color: black; font-size: 80px; padding-left: 16%; padding-right: 7%; padding-top: 12%; padding-bottom: 16%\">+</p>"	"1472"	n/a	n/a	n/a	n/a	n/a	n/a	n/a	n/a	n/a
n/a	"image-keyboard-response"	"72"	"350537"	"0.0-5.0-2.0-1.9"	"01o4y6"	"600"	"1366"	"chrome"	"109.0.0"	"FALSE"	"Windows 10"	"60.56"	"024"	n/a	n/a	n/a	n/a	n/a	n/a	"Trial"	n/a	n/a	n/a	"428"	"arrowleft"	n/a	"NULL"	"NULL"	"NULL"	"stimuli/VerticalHorizontal_-3.3000_0.22500.png"	n/a	"VerticalHorizontal"	"arrowleft"	"1480"	"TRUE"	"VerticalHorizontal"	"-3.300000000"	"0.2250000000"	"1"	"28"
n/a	"html-keyboard-response"	"73"	"351588"	"0.0-5.0-2.0-0.10"	"01o4y6"	"600"	"1366"	"chrome"	"109.0.0"	"FALSE"	"Windows 10"	"60.56"	"024"	n/a	n/a	n/a	n/a	n/a	n/a	"fixation"	n/a	n/a	n/a	n/a	"NULL"	n/a	"NULL"	"NULL"	"NULL"	"<p style=\"color: black; font-size: 80px; padding-left: 2%; padding-right: 41%; padding-top: 26%; padding-bottom: 21%\">+</p>"	"1033"	n/a	n/a	n/a	n/a	n/a	n/a	n/a	n/a	n/a
n/a	"image-keyboard-response"	"74"	"351958"	"0.0-5.0-2.0-1.10"	"01o4y6"	"600"	"1366"	"chrome"	"109.0.0"	"FALSE"	"Windows 10"	"60.56"	"024"	n/a	n/a	n/a	n/a	n/a	n/a	"Trial"	n/a	n/a	n/a	"369"	"arrowleft"	n/a	"NULL"	"NULL"	"NULL"	"stimuli/VerticalHorizontal_-20.27143_0.06730.png"	n/a	"VerticalHorizontal"	"arrowleft"	"1051"	"TRUE"	"VerticalHorizontal"	"-20.27143000"	"0.0673000000"	"1"	"29"
n/a	"html-keyboard-response"	"75"	"353146"	"0.0-5.0-2.0-0.11"	"01o4y6"	"600"	"1366"	"chrome"	"109.0.0"	"FALSE"	"Windows 10"	"60.56"	"024"	n/a	n/a	n/a	n/a	n/a	n/a	"fixation"	n/a	n/a	n/a	n/a	"NULL"	n/a	"NULL"	"NULL"	"NULL"	"<p style=\"color: black; font-size: 80px; padding-left: 3%; padding-right: 34%; padding-top: 35%; padding-bottom: 35%\">+</p>"	"1180"	n/a	n/a	n/a	n/a	n/a	n/a	n/a	n/a	n/a
n/a	"image-keyboard-response"	"76"	"353604"	"0.0-5.0-2.0-1.11"	"01o4y6"	"600"	"1366"	"chrome"	"109.0.0"	"FALSE"	"Windows 10"	"60.56"	"024"	n/a	n/a	n/a	n/a	n/a	n/a	"Trial"	n/a	n/a	n/a	"457"	"arrowleft"	n/a	"NULL"	"NULL"	"NULL"	"stimuli/VerticalHorizontal_-11.78571_0.22500.png"	n/a	"VerticalHorizontal"	"arrowleft"	"1188"	"TRUE"	"VerticalHorizontal"	"-11.78571000"	"0.2250000000"	"1"	"30"
n/a	"html-keyboard-response"	"77"	"354894"	"0.0-5.0-2.0-0.12"	"01o4y6"	"600"	"1366"	"chrome"	"109.0.0"	"FALSE"	"Windows 10"	"60.56"	"024"	n/a	n/a	n/a	n/a	n/a	n/a	"fixation"	n/a	n/a	n/a	n/a	"NULL"	n/a	"NULL"	"NULL"	"NULL"	"<p style=\"color: black; font-size: 80px; padding-left: 19%; padding-right: 35%; padding-top: 15%; padding-bottom: 28%\">+</p>"	"1277"	n/a	n/a	n/a	n/a	n/a	n/a	n/a	n/a	n/a
n/a	"image-keyboard-response"	"78"	"355322"	"0.0-5.0-2.0-1.12"	"01o4y6"	"600"	"1366"	"chrome"	"109.0.0"	"FALSE"	"Windows 10"	"60.56"	"024"	n/a	n/a	n/a	n/a	n/a	n/a	"Trial"	n/a	n/a	n/a	"427"	"arrowright"	n/a	"NULL"	"NULL"	"NULL"	"stimuli/VerticalHorizontal_-28.75714_-0.16217.png"	n/a	"VerticalHorizontal"	"arrowright"	"1290"	"TRUE"	"VerticalHorizontal"	"-28.75714000"	"-0.162170000"	"1"	"31"
n/a	"html-keyboard-response"	"79"	"356512"	"0.0-5.0-2.0-0.13"	"01o4y6"	"600"	"1366"	"chrome"	"109.0.0"	"FALSE"	"Windows 10"	"60.56"	"024"	n/a	n/a	n/a	n/a	n/a	n/a	"fixation"	n/a	n/a	n/a	n/a	"NULL"	n/a	"NULL"	"NULL"	"NULL"	"<p style=\"color: black; font-size: 80px; padding-left: 47%; padding-right: 31%; padding-top: 26%; padding-bottom: 2%\">+</p>"	"1174"	n/a	n/a	n/a	n/a	n/a	n/a	n/a	n/a	n/a
n/a	"image-keyboard-response"	"80"	"357137"	"0.0-5.0-2.0-1.13"	"01o4y6"	"600"	"1366"	"chrome"	"109.0.0"	"FALSE"	"Windows 10"	"60.56"	"024"	n/a	n/a	n/a	n/a	n/a	n/a	"Trial"	n/a	n/a	n/a	"624"	"arrowright"	n/a	"NULL"	"NULL"	"NULL"	"stimuli/VerticalHorizontal_-3.3000_-0.0673.png"	n/a	"VerticalHorizontal"	"arrowright"	"1190"	"TRUE"	"VerticalHorizontal"	"-3.300000000"	"-0.067300000"	"1"	"32"
n/a	"html-keyboard-response"	"81"	"358177"	"0.0-5.0-2.0-0.14"	"01o4y6"	"600"	"1366"	"chrome"	"109.0.0"	"FALSE"	"Windows 10"	"60.56"	"024"	n/a	n/a	n/a	n/a	n/a	n/a	"fixation"	n/a	n/a	n/a	n/a	"NULL"	n/a	"NULL"	"NULL"	"NULL"	"<p style=\"color: black; font-size: 80px; padding-left: 50%; padding-right: 34%; padding-top: 4%; padding-bottom: 1%\">+</p>"	"1034"	n/a	n/a	n/a	n/a	n/a	n/a	n/a	n/a	n/a
n/a	"image-keyboard-response"	"82"	"358671"	"0.0-5.0-2.0-1.14"	"01o4y6"	"600"	"1366"	"chrome"	"109.0.0"	"FALSE"	"Windows 10"	"60.56"	"024"	n/a	n/a	n/a	n/a	n/a	n/a	"Trial"	n/a	n/a	n/a	"493"	"arrowleft"	n/a	"NULL"	"NULL"	"NULL"	"stimuli/VerticalHorizontal_11.78571_0.22500.png"	n/a	"VerticalHorizontal"	"arrowleft"	"1040"	"TRUE"	"VerticalHorizontal"	"11.785710000"	"0.2250000000"	"1"	"33"
n/a	"html-keyboard-response"	"83"	"359810"	"0.0-5.0-2.0-0.15"	"01o4y6"	"600"	"1366"	"chrome"	"109.0.0"	"FALSE"	"Windows 10"	"60.56"	"024"	n/a	n/a	n/a	n/a	n/a	n/a	"fixation"	n/a	n/a	n/a	n/a	"NULL"	n/a	"NULL"	"NULL"	"NULL"	"<p style=\"color: black; font-size: 80px; padding-left: 3%; padding-right: 48%; padding-top: 7%; padding-bottom: 14%\">+</p>"	"1126"	n/a	n/a	n/a	n/a	n/a	n/a	n/a	n/a	n/a
n/a	"image-keyboard-response"	"84"	"360226"	"0.0-5.0-2.0-1.15"	"01o4y6"	"600"	"1366"	"chrome"	"109.0.0"	"FALSE"	"Windows 10"	"60.56"	"024"	n/a	n/a	n/a	n/a	n/a	n/a	"Trial"	n/a	n/a	n/a	"416"	"arrowleft"	n/a	"NULL"	"NULL"	"NULL"	"stimuli/VerticalHorizontal_-11.78571_0.10960.png"	n/a	"VerticalHorizontal"	"arrowleft"	"1139"	"TRUE"	"VerticalHorizontal"	"-11.78571000"	"0.1096000000"	"1"	"34"
n/a	"html-keyboard-response"	"85"	"361682"	"0.0-5.0-2.0-0.16"	"01o4y6"	"600"	"1366"	"chrome"	"109.0.0"	"FALSE"	"Windows 10"	"60.56"	"024"	n/a	n/a	n/a	n/a	n/a	n/a	"fixation"	n/a	n/a	n/a	n/a	"NULL"	n/a	"NULL"	"NULL"	"NULL"	"<p style=\"color: black; font-size: 80px; padding-left: 5%; padding-right: 48%; padding-top: 1%; padding-bottom: 45%\">+</p>"	"1446"	n/a	n/a	n/a	n/a	n/a	n/a	n/a	n/a	n/a
n/a	"image-keyboard-response"	"86"	"362072"	"0.0-5.0-2.0-1.16"	"01o4y6"	"600"	"1366"	"chrome"	"109.0.0"	"FALSE"	"Windows 10"	"60.56"	"024"	n/a	n/a	n/a	n/a	n/a	n/a	"Trial"	n/a	n/a	n/a	"388"	"arrowright"	n/a	"NULL"	"NULL"	"NULL"	"stimuli/VerticalHorizontal_-20.27143_-0.1096.png"	n/a	"VerticalHorizontal"	"arrowright"	"1456"	"TRUE"	"VerticalHorizontal"	"-20.27143000"	"-0.109600000"	"1"	"35"
n/a	"html-keyboard-response"	"87"	"363151"	"0.0-5.0-2.0-0.17"	"01o4y6"	"600"	"1366"	"chrome"	"109.0.0"	"FALSE"	"Windows 10"	"60.56"	"024"	n/a	n/a	n/a	n/a	n/a	n/a	"fixation"	n/a	n/a	n/a	n/a	"NULL"	n/a	"NULL"	"NULL"	"NULL"	"<p style=\"color: black; font-size: 80px; padding-left: 18%; padding-right: 49%; padding-top: 50%; padding-bottom: 23%\">+</p>"	"1057"	n/a	n/a	n/a	n/a	n/a	n/a	n/a	n/a	n/a
n/a	"image-keyboard-response"	"88"	"363560"	"0.0-5.0-2.0-1.17"	"01o4y6"	"600"	"1366"	"chrome"	"109.0.0"	"FALSE"	"Windows 10"	"60.56"	"024"	n/a	n/a	n/a	n/a	n/a	n/a	"Trial"	n/a	n/a	n/a	"408"	"arrowleft"	n/a	"NULL"	"NULL"	"NULL"	"stimuli/VerticalHorizontal_-28.75714_0.22500.png"	n/a	"VerticalHorizontal"	"arrowleft"	"1079"	"TRUE"	"VerticalHorizontal"	"-28.75714000"	"0.2250000000"	"1"	"36"
n/a	"html-keyboard-response"	"89"	"365004"	"0.0-5.0-2.0-0.18"	"01o4y6"	"600"	"1366"	"chrome"	"109.0.0"	"FALSE"	"Windows 10"	"60.56"	"024"	n/a	n/a	n/a	n/a	n/a	n/a	"fixation"	n/a	n/a	n/a	n/a	"NULL"	n/a	"NULL"	"NULL"	"NULL"	"<p style=\"color: black; font-size: 80px; padding-left: 50%; padding-right: 43%; padding-top: 4%; padding-bottom: 47%\">+</p>"	"1433"	n/a	n/a	n/a	n/a	n/a	n/a	n/a	n/a	n/a
n/a	"image-keyboard-response"	"90"	"365496"	"0.0-5.0-2.0-1.18"	"01o4y6"	"600"	"1366"	"chrome"	"109.0.0"	"FALSE"	"Windows 10"	"60.56"	"024"	n/a	n/a	n/a	n/a	n/a	n/a	"Trial"	n/a	n/a	n/a	"491"	"arrowleft"	n/a	"NULL"	"NULL"	"NULL"	"stimuli/VerticalHorizontal_-3.3000_0.06730.png"	n/a	"VerticalHorizontal"	"arrowleft"	"1444"	"TRUE"	"VerticalHorizontal"	"-3.300000000"	"0.0673000000"	"1"	"37"
n/a	"html-keyboard-response"	"91"	"366842"	"0.0-5.0-2.0-0.19"	"01o4y6"	"600"	"1366"	"chrome"	"109.0.0"	"FALSE"	"Windows 10"	"60.56"	"024"	n/a	n/a	n/a	n/a	n/a	n/a	"fixation"	n/a	n/a	n/a	n/a	"NULL"	n/a	"NULL"	"NULL"	"NULL"	"<p style=\"color: black; font-size: 80px; padding-left: 11%; padding-right: 50%; padding-top: 20%; padding-bottom: 10%\">+</p>"	"1329"	n/a	n/a	n/a	n/a	n/a	n/a	n/a	n/a	n/a
n/a	"image-keyboard-response"	"92"	"367473"	"0.0-5.0-2.0-1.19"	"01o4y6"	"600"	"1366"	"chrome"	"109.0.0"	"FALSE"	"Windows 10"	"60.56"	"024"	n/a	n/a	n/a	n/a	n/a	n/a	"Trial"	n/a	n/a	n/a	"630"	"arrowright"	n/a	"NULL"	"NULL"	"NULL"	"stimuli/VerticalHorizontal_20.27143_-0.16217.png"	n/a	"VerticalHorizontal"	"arrowright"	"1346"	"TRUE"	"VerticalHorizontal"	"20.271430000"	"-0.162170000"	"1"	"38"
n/a	"html-keyboard-response"	"93"	"368560"	"0.0-5.0-2.0-0.20"	"01o4y6"	"600"	"1366"	"chrome"	"109.0.0"	"FALSE"	"Windows 10"	"60.56"	"024"	n/a	n/a	n/a	n/a	n/a	n/a	"fixation"	n/a	n/a	n/a	n/a	"NULL"	n/a	"NULL"	"NULL"	"NULL"	"<p style=\"color: black; font-size: 80px; padding-left: 49%; padding-right: 19%; padding-top: 30%; padding-bottom: 12%\">+</p>"	"1069"	n/a	n/a	n/a	n/a	n/a	n/a	n/a	n/a	n/a
n/a	"image-keyboard-response"	"94"	"369077"	"0.0-5.0-2.0-1.20"	"01o4y6"	"600"	"1366"	"chrome"	"109.0.0"	"FALSE"	"Windows 10"	"60.56"	"024"	n/a	n/a	n/a	n/a	n/a	n/a	"Trial"	n/a	n/a	n/a	"517"	"arrowleft"	n/a	"NULL"	"NULL"	"NULL"	"stimuli/VerticalHorizontal_11.78571_-0.16217.png"	n/a	"VerticalHorizontal"	"arrowright"	"1087"	"FALSE"	"VerticalHorizontal"	"11.785710000"	"-0.162170000"	"1"	"39"
n/a	"html-keyboard-response"	"95"	"370138"	"0.0-5.0-2.0-0.21"	"01o4y6"	"600"	"1366"	"chrome"	"109.0.0"	"FALSE"	"Windows 10"	"60.56"	"024"	n/a	n/a	n/a	n/a	n/a	n/a	"fixation"	n/a	n/a	n/a	n/a	"NULL"	n/a	"NULL"	"NULL"	"NULL"	"<p style=\"color: black; font-size: 80px; padding-left: 30%; padding-right: 40%; padding-top: 39%; padding-bottom: 27%\">+</p>"	"1048"	n/a	n/a	n/a	n/a	n/a	n/a	n/a	n/a	n/a
n/a	"image-keyboard-response"	"96"	"370648"	"0.0-5.0-2.0-1.21"	"01o4y6"	"600"	"1366"	"chrome"	"109.0.0"	"FALSE"	"Windows 10"	"60.56"	"024"	n/a	n/a	n/a	n/a	n/a	n/a	"Trial"	n/a	n/a	n/a	"509"	"arrowleft"	n/a	"NULL"	"NULL"	"NULL"	"stimuli/VerticalHorizontal_-3.3000_0.16217.png"	n/a	"VerticalHorizontal"	"arrowleft"	"1061"	"TRUE"	"VerticalHorizontal"	"-3.300000000"	"0.1621700000"	"1"	"40"
n/a	"html-keyboard-response"	"97"	"371795"	"0.0-5.0-2.0-0.22"	"01o4y6"	"600"	"1366"	"chrome"	"109.0.0"	"FALSE"	"Windows 10"	"60.56"	"024"	n/a	n/a	n/a	n/a	n/a	n/a	"fixation"	n/a	n/a	n/a	n/a	"NULL"	n/a	"NULL"	"NULL"	"NULL"	"<p style=\"color: black; font-size: 80px; padding-left: 27%; padding-right: 34%; padding-top: 31%; padding-bottom: 14%\">+</p>"	"1129"	n/a	n/a	n/a	n/a	n/a	n/a	n/a	n/a	n/a
n/a	"image-keyboard-response"	"98"	"372396"	"0.0-5.0-2.0-1.22"	"01o4y6"	"600"	"1366"	"chrome"	"109.0.0"	"FALSE"	"Windows 10"	"60.56"	"024"	n/a	n/a	n/a	n/a	n/a	n/a	"Trial"	n/a	n/a	n/a	"600"	"arrowleft"	n/a	"NULL"	"NULL"	"NULL"	"stimuli/VerticalHorizontal_20.27143_0.22500.png"	n/a	"VerticalHorizontal"	"arrowleft"	"1147"	"TRUE"	"VerticalHorizontal"	"20.271430000"	"0.2250000000"	"1"	"41"
n/a	"html-keyboard-response"	"99"	"373728"	"0.0-5.0-2.0-0.23"	"01o4y6"	"600"	"1366"	"chrome"	"109.0.0"	"FALSE"	"Windows 10"	"60.56"	"024"	n/a	n/a	n/a	n/a	n/a	n/a	"fixation"	n/a	n/a	n/a	n/a	"NULL"	n/a	"NULL"	"NULL"	"NULL"	"<p style=\"color: black; font-size: 80px; padding-left: 12%; padding-right: 17%; padding-top: 1%; padding-bottom: 10%\">+</p>"	"1321"	n/a	n/a	n/a	n/a	n/a	n/a	n/a	n/a	n/a
n/a	"image-keyboard-response"	"100"	"374228"	"0.0-5.0-2.0-1.23"	"01o4y6"	"600"	"1366"	"chrome"	"109.0.0"	"FALSE"	"Windows 10"	"60.56"	"024"	n/a	n/a	n/a	n/a	n/a	n/a	"Trial"	n/a	n/a	n/a	"499"	"arrowright"	n/a	"NULL"	"NULL"	"NULL"	"stimuli/VerticalHorizontal_11.78571_-0.2250.png"	n/a	"VerticalHorizontal"	"arrowright"	"1332"	"TRUE"	"VerticalHorizontal"	"11.785710000"	"-0.225000000"	"1"	"42"
n/a	"html-keyboard-response"	"101"	"375614"	"0.0-5.0-2.0-0.24"	"01o4y6"	"600"	"1366"	"chrome"	"109.0.0"	"FALSE"	"Windows 10"	"60.56"	"024"	n/a	n/a	n/a	n/a	n/a	n/a	"fixation"	n/a	n/a	n/a	n/a	"NULL"	n/a	"NULL"	"NULL"	"NULL"	"<p style=\"color: black; font-size: 80px; padding-left: 7%; padding-right: 14%; padding-top: 31%; padding-bottom: 49%\">+</p>"	"1369"	n/a	n/a	n/a	n/a	n/a	n/a	n/a	n/a	n/a
n/a	"image-keyboard-response"	"102"	"376140"	"0.0-5.0-2.0-1.24"	"01o4y6"	"600"	"1366"	"chrome"	"109.0.0"	"FALSE"	"Windows 10"	"60.56"	"024"	n/a	n/a	n/a	n/a	n/a	n/a	"Trial"	n/a	n/a	n/a	"525"	"arrowright"	n/a	"NULL"	"NULL"	"NULL"	"stimuli/VerticalHorizontal_-11.78571_-0.2250.png"	n/a	"VerticalHorizontal"	"arrowright"	"1386"	"TRUE"	"VerticalHorizontal"	"-11.78571000"	"-0.225000000"	"1"	"43"
n/a	"html-keyboard-response"	"103"	"377354"	"0.0-5.0-2.0-0.25"	"01o4y6"	"600"	"1366"	"chrome"	"109.0.0"	"FALSE"	"Windows 10"	"60.56"	"024"	n/a	n/a	n/a	n/a	n/a	n/a	"fixation"	n/a	n/a	n/a	n/a	"NULL"	n/a	"NULL"	"NULL"	"NULL"	"<p style=\"color: black; font-size: 80px; padding-left: 24%; padding-right: 32%; padding-top: 17%; padding-bottom: 1%\">+</p>"	"1198"	n/a	n/a	n/a	n/a	n/a	n/a	n/a	n/a	n/a
n/a	"image-keyboard-response"	"104"	"377871"	"0.0-5.0-2.0-1.25"	"01o4y6"	"600"	"1366"	"chrome"	"109.0.0"	"FALSE"	"Windows 10"	"60.56"	"024"	n/a	n/a	n/a	n/a	n/a	n/a	"Trial"	n/a	n/a	n/a	"516"	"arrowright"	n/a	"NULL"	"NULL"	"NULL"	"stimuli/VerticalHorizontal_-20.27143_-0.2250.png"	n/a	"VerticalHorizontal"	"arrowright"	"1214"	"TRUE"	"VerticalHorizontal"	"-20.27143000"	"-0.225000000"	"1"	"44"
n/a	"html-keyboard-response"	"105"	"379365"	"0.0-5.0-2.0-0.26"	"01o4y6"	"600"	"1366"	"chrome"	"109.0.0"	"FALSE"	"Windows 10"	"60.56"	"024"	n/a	n/a	n/a	n/a	n/a	n/a	"fixation"	n/a	n/a	n/a	n/a	"NULL"	n/a	"NULL"	"NULL"	"NULL"	"<p style=\"color: black; font-size: 80px; padding-left: 1%; padding-right: 45%; padding-top: 30%; padding-bottom: 31%\">+</p>"	"1475"	n/a	n/a	n/a	n/a	n/a	n/a	n/a	n/a	n/a
n/a	"image-keyboard-response"	"106"	"379865"	"0.0-5.0-2.0-1.26"	"01o4y6"	"600"	"1366"	"chrome"	"109.0.0"	"FALSE"	"Windows 10"	"60.56"	"024"	n/a	n/a	n/a	n/a	n/a	n/a	"Trial"	n/a	n/a	n/a	"499"	"arrowleft"	n/a	"NULL"	"NULL"	"NULL"	"stimuli/VerticalHorizontal_3.30000_0.10960.png"	n/a	"VerticalHorizontal"	"arrowleft"	"1494"	"TRUE"	"VerticalHorizontal"	"3.3000000000"	"0.1096000000"	"1"	"45"
n/a	"html-keyboard-response"	"107"	"381286"	"0.0-5.0-2.0-0.27"	"01o4y6"	"600"	"1366"	"chrome"	"109.0.0"	"FALSE"	"Windows 10"	"60.56"	"024"	n/a	n/a	n/a	n/a	n/a	n/a	"fixation"	n/a	n/a	n/a	n/a	"NULL"	n/a	"NULL"	"NULL"	"NULL"	"<p style=\"color: black; font-size: 80px; padding-left: 44%; padding-right: 22%; padding-top: 10%; padding-bottom: 5%\">+</p>"	"1414"	n/a	n/a	n/a	n/a	n/a	n/a	n/a	n/a	n/a
n/a	"image-keyboard-response"	"108"	"381832"	"0.0-5.0-2.0-1.27"	"01o4y6"	"600"	"1366"	"chrome"	"109.0.0"	"FALSE"	"Windows 10"	"60.56"	"024"	n/a	n/a	n/a	n/a	n/a	n/a	"Trial"	n/a	n/a	n/a	"545"	"arrowleft"	n/a	"NULL"	"NULL"	"NULL"	"stimuli/VerticalHorizontal_11.78571_0.06730.png"	n/a	"VerticalHorizontal"	"arrowleft"	"1421"	"TRUE"	"VerticalHorizontal"	"11.785710000"	"0.0673000000"	"1"	"46"
n/a	"html-keyboard-response"	"109"	"383198"	"0.0-5.0-2.0-0.28"	"01o4y6"	"600"	"1366"	"chrome"	"109.0.0"	"FALSE"	"Windows 10"	"60.56"	"024"	n/a	n/a	n/a	n/a	n/a	n/a	"fixation"	n/a	n/a	n/a	n/a	"NULL"	n/a	"NULL"	"NULL"	"NULL"	"<p style=\"color: black; font-size: 80px; padding-left: 10%; padding-right: 41%; padding-top: 32%; padding-bottom: 1%\">+</p>"	"1349"	n/a	n/a	n/a	n/a	n/a	n/a	n/a	n/a	n/a
n/a	"image-keyboard-response"	"110"	"383816"	"0.0-5.0-2.0-1.28"	"01o4y6"	"600"	"1366"	"chrome"	"109.0.0"	"FALSE"	"Windows 10"	"60.56"	"024"	n/a	n/a	n/a	n/a	n/a	n/a	"Trial"	n/a	n/a	n/a	"617"	"arrowright"	n/a	"NULL"	"NULL"	"NULL"	"stimuli/VerticalHorizontal_20.27143_-0.2250.png"	n/a	"VerticalHorizontal"	"arrowright"	"1366"	"TRUE"	"VerticalHorizontal"	"20.271430000"	"-0.225000000"	"1"	"47"
n/a	"html-keyboard-response"	"111"	"385326"	"0.0-5.0-2.0-0.29"	"01o4y6"	"600"	"1366"	"chrome"	"109.0.0"	"FALSE"	"Windows 10"	"60.56"	"024"	n/a	n/a	n/a	n/a	n/a	n/a	"fixation"	n/a	n/a	n/a	n/a	"NULL"	n/a	"NULL"	"NULL"	"NULL"	"<p style=\"color: black; font-size: 80px; padding-left: 43%; padding-right: 16%; padding-top: 17%; padding-bottom: 3%\">+</p>"	"1491"	n/a	n/a	n/a	n/a	n/a	n/a	n/a	n/a	n/a
n/a	"image-keyboard-response"	"112"	"385795"	"0.0-5.0-2.0-1.29"	"01o4y6"	"600"	"1366"	"chrome"	"109.0.0"	"FALSE"	"Windows 10"	"60.56"	"024"	n/a	n/a	n/a	n/a	n/a	n/a	"Trial"	n/a	n/a	n/a	"468"	"arrowleft"	n/a	"NULL"	"NULL"	"NULL"	"stimuli/VerticalHorizontal_11.78571_0.16217.png"	n/a	"VerticalHorizontal"	"arrowleft"	"1510"	"TRUE"	"VerticalHorizontal"	"11.785710000"	"0.1621700000"	"1"	"48"
n/a	"html-keyboard-response"	"113"	"387139"	"0.0-5.0-2.0-0.30"	"01o4y6"	"600"	"1366"	"chrome"	"109.0.0"	"FALSE"	"Windows 10"	"60.56"	"024"	n/a	n/a	n/a	n/a	n/a	n/a	"fixation"	n/a	n/a	n/a	n/a	"NULL"	n/a	"NULL"	"NULL"	"NULL"	"<p style=\"color: black; font-size: 80px; padding-left: 41%; padding-right: 31%; padding-top: 44%; padding-bottom: 3%\">+</p>"	"1333"	n/a	n/a	n/a	n/a	n/a	n/a	n/a	n/a	n/a
n/a	"image-keyboard-response"	"114"	"387540"	"0.0-5.0-2.0-1.30"	"01o4y6"	"600"	"1366"	"chrome"	"109.0.0"	"FALSE"	"Windows 10"	"60.56"	"024"	n/a	n/a	n/a	n/a	n/a	n/a	"Trial"	n/a	n/a	n/a	"400"	"arrowright"	n/a	"NULL"	"NULL"	"NULL"	"stimuli/VerticalHorizontal_-20.27143_-0.16217.png"	n/a	"VerticalHorizontal"	"arrowright"	"1344"	"TRUE"	"VerticalHorizontal"	"-20.27143000"	"-0.162170000"	"1"	"49"
n/a	"html-keyboard-response"	"115"	"388737"	"0.0-5.0-2.0-0.31"	"01o4y6"	"600"	"1366"	"chrome"	"109.0.0"	"FALSE"	"Windows 10"	"60.56"	"024"	n/a	n/a	n/a	n/a	n/a	n/a	"fixation"	n/a	n/a	n/a	n/a	"NULL"	n/a	"NULL"	"NULL"	"NULL"	"<p style=\"color: black; font-size: 80px; padding-left: 30%; padding-right: 20%; padding-top: 40%; padding-bottom: 6%\">+</p>"	"1183"	n/a	n/a	n/a	n/a	n/a	n/a	n/a	n/a	n/a
n/a	"image-keyboard-response"	"116"	"389174"	"0.0-5.0-2.0-1.31"	"01o4y6"	"600"	"1366"	"chrome"	"109.0.0"	"FALSE"	"Windows 10"	"60.56"	"024"	n/a	n/a	n/a	n/a	n/a	n/a	"Trial"	n/a	n/a	n/a	"437"	"arrowleft"	n/a	"NULL"	"NULL"	"NULL"	"stimuli/VerticalHorizontal_28.75714_-0.1096.png"	n/a	"VerticalHorizontal"	"arrowright"	"1197"	"FALSE"	"VerticalHorizontal"	"28.757140000"	"-0.109600000"	"1"	"50"
n/a	"html-keyboard-response"	"117"	"390201"	"0.0-5.0-2.0-0.32"	"01o4y6"	"600"	"1366"	"chrome"	"109.0.0"	"FALSE"	"Windows 10"	"60.56"	"024"	n/a	n/a	n/a	n/a	n/a	n/a	"fixation"	n/a	n/a	n/a	n/a	"NULL"	n/a	"NULL"	"NULL"	"NULL"	"<p style=\"color: black; font-size: 80px; padding-left: 21%; padding-right: 19%; padding-top: 36%; padding-bottom: 30%\">+</p>"	"1010"	n/a	n/a	n/a	n/a	n/a	n/a	n/a	n/a	n/a
n/a	"image-keyboard-response"	"118"	"390667"	"0.0-5.0-2.0-1.32"	"01o4y6"	"600"	"1366"	"chrome"	"109.0.0"	"FALSE"	"Windows 10"	"60.56"	"024"	n/a	n/a	n/a	n/a	n/a	n/a	"Trial"	n/a	n/a	n/a	"466"	"arrowright"	n/a	"NULL"	"NULL"	"NULL"	"stimuli/VerticalHorizontal_3.30000_-0.1096.png"	n/a	"VerticalHorizontal"	"arrowright"	"1027"	"TRUE"	"VerticalHorizontal"	"3.3000000000"	"-0.109600000"	"1"	"51"
n/a	"html-keyboard-response"	"119"	"391747"	"0.0-5.0-2.0-0.33"	"01o4y6"	"600"	"1366"	"chrome"	"109.0.0"	"FALSE"	"Windows 10"	"60.56"	"024"	n/a	n/a	n/a	n/a	n/a	n/a	"fixation"	n/a	n/a	n/a	n/a	"NULL"	n/a	"NULL"	"NULL"	"NULL"	"<p style=\"color: black; font-size: 80px; padding-left: 7%; padding-right: 41%; padding-top: 19%; padding-bottom: 14%\">+</p>"	"1072"	n/a	n/a	n/a	n/a	n/a	n/a	n/a	n/a	n/a
n/a	"image-keyboard-response"	"120"	"392144"	"0.0-5.0-2.0-1.33"	"01o4y6"	"600"	"1366"	"chrome"	"109.0.0"	"FALSE"	"Windows 10"	"60.56"	"024"	n/a	n/a	n/a	n/a	n/a	n/a	"Trial"	n/a	n/a	n/a	"396"	"arrowleft"	n/a	"NULL"	"NULL"	"NULL"	"stimuli/VerticalHorizontal_-28.75714_0.10960.png"	n/a	"VerticalHorizontal"	"arrowleft"	"1080"	"TRUE"	"VerticalHorizontal"	"-28.75714000"	"0.1096000000"	"1"	"52"
n/a	"html-keyboard-response"	"121"	"393155"	"0.0-5.0-2.0-0.34"	"01o4y6"	"600"	"1366"	"chrome"	"109.0.0"	"FALSE"	"Windows 10"	"60.56"	"024"	n/a	n/a	n/a	n/a	n/a	n/a	"fixation"	n/a	n/a	n/a	n/a	"NULL"	n/a	"NULL"	"NULL"	"NULL"	"<p style=\"color: black; font-size: 80px; padding-left: 21%; padding-right: 16%; padding-top: 46%; padding-bottom: 25%\">+</p>"	"1005"	n/a	n/a	n/a	n/a	n/a	n/a	n/a	n/a	n/a
n/a	"image-keyboard-response"	"122"	"393902"	"0.0-5.0-2.0-1.34"	"01o4y6"	"600"	"1366"	"chrome"	"109.0.0"	"FALSE"	"Windows 10"	"60.56"	"024"	n/a	n/a	n/a	n/a	n/a	n/a	"Trial"	n/a	n/a	n/a	"746"	"arrowright"	n/a	"NULL"	"NULL"	"NULL"	"stimuli/VerticalHorizontal_-11.78571_-0.1096.png"	n/a	"VerticalHorizontal"	"arrowright"	"1011"	"TRUE"	"VerticalHorizontal"	"-11.78571000"	"-0.109600000"	"1"	"53"
n/a	"html-keyboard-response"	"123"	"395115"	"0.0-5.0-2.0-0.35"	"01o4y6"	"600"	"1366"	"chrome"	"109.0.0"	"FALSE"	"Windows 10"	"60.56"	"024"	n/a	n/a	n/a	n/a	n/a	n/a	"fixation"	n/a	n/a	n/a	n/a	"NULL"	n/a	"NULL"	"NULL"	"NULL"	"<p style=\"color: black; font-size: 80px; padding-left: 12%; padding-right: 48%; padding-top: 48%; padding-bottom: 49%\">+</p>"	"1208"	n/a	n/a	n/a	n/a	n/a	n/a	n/a	n/a	n/a
n/a	"image-keyboard-response"	"124"	"395549"	"0.0-5.0-2.0-1.35"	"01o4y6"	"600"	"1366"	"chrome"	"109.0.0"	"FALSE"	"Windows 10"	"60.56"	"024"	n/a	n/a	n/a	n/a	n/a	n/a	"Trial"	n/a	n/a	n/a	"433"	"arrowleft"	n/a	"NULL"	"NULL"	"NULL"	"stimuli/VerticalHorizontal_-20.27143_0.22500.png"	n/a	"VerticalHorizontal"	"arrowleft"	"1213"	"TRUE"	"VerticalHorizontal"	"-20.27143000"	"0.2250000000"	"1"	"54"
n/a	"html-keyboard-response"	"125"	"396936"	"0.0-5.0-2.0-0.36"	"01o4y6"	"600"	"1366"	"chrome"	"109.0.0"	"FALSE"	"Windows 10"	"60.56"	"024"	n/a	n/a	n/a	n/a	n/a	n/a	"fixation"	n/a	n/a	n/a	n/a	"NULL"	n/a	"NULL"	"NULL"	"NULL"	"<p style=\"color: black; font-size: 80px; padding-left: 33%; padding-right: 11%; padding-top: 18%; padding-bottom: 33%\">+</p>"	"1372"	n/a	n/a	n/a	n/a	n/a	n/a	n/a	n/a	n/a
n/a	"image-keyboard-response"	"126"	"397484"	"0.0-5.0-2.0-1.36"	"01o4y6"	"600"	"1366"	"chrome"	"109.0.0"	"FALSE"	"Windows 10"	"60.56"	"024"	n/a	n/a	n/a	n/a	n/a	n/a	"Trial"	n/a	n/a	n/a	"547"	"arrowleft"	n/a	"NULL"	"NULL"	"NULL"	"stimuli/VerticalHorizontal_3.30000_0.06730.png"	n/a	"VerticalHorizontal"	"arrowleft"	"1387"	"TRUE"	"VerticalHorizontal"	"3.3000000000"	"0.0673000000"	"1"	"55"
n/a	"html-keyboard-response"	"127"	"398623"	"0.0-5.0-2.0-0.37"	"01o4y6"	"600"	"1366"	"chrome"	"109.0.0"	"FALSE"	"Windows 10"	"60.56"	"024"	n/a	n/a	n/a	n/a	n/a	n/a	"fixation"	n/a	n/a	n/a	n/a	"NULL"	n/a	"NULL"	"NULL"	"NULL"	"<p style=\"color: black; font-size: 80px; padding-left: 19%; padding-right: 23%; padding-top: 29%; padding-bottom: 21%\">+</p>"	"1117"	n/a	n/a	n/a	n/a	n/a	n/a	n/a	n/a	n/a
n/a	"image-keyboard-response"	"128"	"399157"	"0.0-5.0-2.0-1.37"	"01o4y6"	"600"	"1366"	"chrome"	"109.0.0"	"FALSE"	"Windows 10"	"60.56"	"024"	n/a	n/a	n/a	n/a	n/a	n/a	"Trial"	n/a	n/a	n/a	"533"	"arrowleft"	n/a	"NULL"	"NULL"	"NULL"	"stimuli/VerticalHorizontal_28.75714_-0.0673.png"	n/a	"VerticalHorizontal"	"arrowright"	"1139"	"FALSE"	"VerticalHorizontal"	"28.757140000"	"-0.067300000"	"1"	"56"
n/a	"html-keyboard-response"	"129"	"400627"	"0.0-5.0-2.0-0.38"	"01o4y6"	"600"	"1366"	"chrome"	"109.0.0"	"FALSE"	"Windows 10"	"60.56"	"024"	n/a	n/a	n/a	n/a	n/a	n/a	"fixation"	n/a	n/a	n/a	n/a	"NULL"	n/a	"NULL"	"NULL"	"NULL"	"<p style=\"color: black; font-size: 80px; padding-left: 12%; padding-right: 36%; padding-top: 14%; padding-bottom: 35%\">+</p>"	"1462"	n/a	n/a	n/a	n/a	n/a	n/a	n/a	n/a	n/a
n/a	"image-keyboard-response"	"130"	"401149"	"0.0-5.0-2.0-1.38"	"01o4y6"	"600"	"1366"	"chrome"	"109.0.0"	"FALSE"	"Windows 10"	"60.56"	"024"	n/a	n/a	n/a	n/a	n/a	n/a	"Trial"	n/a	n/a	n/a	"521"	"arrowright"	n/a	"NULL"	"NULL"	"NULL"	"stimuli/VerticalHorizontal_-11.78571_-0.0673.png"	n/a	"VerticalHorizontal"	"arrowright"	"1470"	"TRUE"	"VerticalHorizontal"	"-11.78571000"	"-0.067300000"	"1"	"57"
n/a	"html-keyboard-response"	"131"	"402249"	"0.0-5.0-2.0-0.39"	"01o4y6"	"600"	"1366"	"chrome"	"109.0.0"	"FALSE"	"Windows 10"	"60.56"	"024"	n/a	n/a	n/a	n/a	n/a	n/a	"fixation"	n/a	n/a	n/a	n/a	"NULL"	n/a	"NULL"	"NULL"	"NULL"	"<p style=\"color: black; font-size: 80px; padding-left: 23%; padding-right: 23%; padding-top: 2%; padding-bottom: 1%\">+</p>"	"1092"	n/a	n/a	n/a	n/a	n/a	n/a	n/a	n/a	n/a
n/a	"image-keyboard-response"	"132"	"402851"	"0.0-5.0-2.0-1.39"	"01o4y6"	"600"	"1366"	"chrome"	"109.0.0"	"FALSE"	"Windows 10"	"60.56"	"024"	n/a	n/a	n/a	n/a	n/a	n/a	"Trial"	n/a	n/a	n/a	"601"	"arrowright"	n/a	"NULL"	"NULL"	"NULL"	"stimuli/VerticalHorizontal_-3.3000_-0.2250.png"	n/a	"VerticalHorizontal"	"arrowright"	"1100"	"TRUE"	"VerticalHorizontal"	"-3.300000000"	"-0.225000000"	"1"	"58"
n/a	"html-keyboard-response"	"133"	"404307"	"0.0-5.0-2.0-0.40"	"01o4y6"	"600"	"1366"	"chrome"	"109.0.0"	"FALSE"	"Windows 10"	"60.56"	"024"	n/a	n/a	n/a	n/a	n/a	n/a	"fixation"	n/a	n/a	n/a	n/a	"NULL"	n/a	"NULL"	"NULL"	"NULL"	"<p style=\"color: black; font-size: 80px; padding-left: 22%; padding-right: 18%; padding-top: 29%; padding-bottom: 44%\">+</p>"	"1451"	n/a	n/a	n/a	n/a	n/a	n/a	n/a	n/a	n/a
n/a	"image-keyboard-response"	"134"	"404833"	"0.0-5.0-2.0-1.40"	"01o4y6"	"600"	"1366"	"chrome"	"109.0.0"	"FALSE"	"Windows 10"	"60.56"	"024"	n/a	n/a	n/a	n/a	n/a	n/a	"Trial"	n/a	n/a	n/a	"525"	"arrowright"	n/a	"NULL"	"NULL"	"NULL"	"stimuli/VerticalHorizontal_-28.75714_-0.1096.png"	n/a	"VerticalHorizontal"	"arrowright"	"1456"	"TRUE"	"VerticalHorizontal"	"-28.75714000"	"-0.109600000"	"1"	"59"
n/a	"html-keyboard-response"	"135"	"405869"	"0.0-5.0-2.0-0.41"	"01o4y6"	"600"	"1366"	"chrome"	"109.0.0"	"FALSE"	"Windows 10"	"60.56"	"024"	n/a	n/a	n/a	n/a	n/a	n/a	"fixation"	n/a	n/a	n/a	n/a	"NULL"	n/a	"NULL"	"NULL"	"NULL"	"<p style=\"color: black; font-size: 80px; padding-left: 30%; padding-right: 31%; padding-top: 32%; padding-bottom: 33%\">+</p>"	"1024"	n/a	n/a	n/a	n/a	n/a	n/a	n/a	n/a	n/a
n/a	"image-keyboard-response"	"136"	"406327"	"0.0-5.0-2.0-1.41"	"01o4y6"	"600"	"1366"	"chrome"	"109.0.0"	"FALSE"	"Windows 10"	"60.56"	"024"	n/a	n/a	n/a	n/a	n/a	n/a	"Trial"	n/a	n/a	n/a	"457"	"arrowleft"	n/a	"NULL"	"NULL"	"NULL"	"stimuli/VerticalHorizontal_-11.78571_0.06730.png"	n/a	"VerticalHorizontal"	"arrowleft"	"1036"	"TRUE"	"VerticalHorizontal"	"-11.78571000"	"0.0673000000"	"1"	"60"
n/a	"html-keyboard-response"	"137"	"407793"	"0.0-5.0-2.0-0.42"	"01o4y6"	"600"	"1366"	"chrome"	"109.0.0"	"FALSE"	"Windows 10"	"60.56"	"024"	n/a	n/a	n/a	n/a	n/a	n/a	"fixation"	n/a	n/a	n/a	n/a	"NULL"	n/a	"NULL"	"NULL"	"NULL"	"<p style=\"color: black; font-size: 80px; padding-left: 36%; padding-right: 39%; padding-top: 15%; padding-bottom: 1%\">+</p>"	"1462"	n/a	n/a	n/a	n/a	n/a	n/a	n/a	n/a	n/a
n/a	"image-keyboard-response"	"138"	"408261"	"0.0-5.0-2.0-1.42"	"01o4y6"	"600"	"1366"	"chrome"	"109.0.0"	"FALSE"	"Windows 10"	"60.56"	"024"	n/a	n/a	n/a	n/a	n/a	n/a	"Trial"	n/a	n/a	n/a	"468"	"arrowleft"	n/a	"NULL"	"NULL"	"NULL"	"stimuli/VerticalHorizontal_-20.27143_0.10960.png"	n/a	"VerticalHorizontal"	"arrowleft"	"1466"	"TRUE"	"VerticalHorizontal"	"-20.27143000"	"0.1096000000"	"1"	"61"
n/a	"html-keyboard-response"	"139"	"409367"	"0.0-5.0-2.0-0.43"	"01o4y6"	"600"	"1366"	"chrome"	"109.0.0"	"FALSE"	"Windows 10"	"60.56"	"024"	n/a	n/a	n/a	n/a	n/a	n/a	"fixation"	n/a	n/a	n/a	n/a	"NULL"	n/a	"NULL"	"NULL"	"NULL"	"<p style=\"color: black; font-size: 80px; padding-left: 47%; padding-right: 42%; padding-top: 33%; padding-bottom: 16%\">+</p>"	"1090"	n/a	n/a	n/a	n/a	n/a	n/a	n/a	n/a	n/a
n/a	"image-keyboard-response"	"140"	"409910"	"0.0-5.0-2.0-1.43"	"01o4y6"	"600"	"1366"	"chrome"	"109.0.0"	"FALSE"	"Windows 10"	"60.56"	"024"	n/a	n/a	n/a	n/a	n/a	n/a	"Trial"	n/a	n/a	n/a	"542"	"arrowright"	n/a	"NULL"	"NULL"	"NULL"	"stimuli/VerticalHorizontal_20.27143_-0.1096.png"	n/a	"VerticalHorizontal"	"arrowright"	"1106"	"TRUE"	"VerticalHorizontal"	"20.271430000"	"-0.109600000"	"1"	"62"
n/a	"html-keyboard-response"	"141"	"410993"	"0.0-5.0-2.0-0.44"	"01o4y6"	"600"	"1366"	"chrome"	"109.0.0"	"FALSE"	"Windows 10"	"60.56"	"024"	n/a	n/a	n/a	n/a	n/a	n/a	"fixation"	n/a	n/a	n/a	n/a	"NULL"	n/a	"NULL"	"NULL"	"NULL"	"<p style=\"color: black; font-size: 80px; padding-left: 38%; padding-right: 2%; padding-top: 15%; padding-bottom: 38%\">+</p>"	"1077"	n/a	n/a	n/a	n/a	n/a	n/a	n/a	n/a	n/a
n/a	"image-keyboard-response"	"142"	"411430"	"0.0-5.0-2.0-1.44"	"01o4y6"	"600"	"1366"	"chrome"	"109.0.0"	"FALSE"	"Windows 10"	"60.56"	"024"	n/a	n/a	n/a	n/a	n/a	n/a	"Trial"	n/a	n/a	n/a	"437"	"arrowleft"	n/a	"NULL"	"NULL"	"NULL"	"stimuli/VerticalHorizontal_-28.75714_0.06730.png"	n/a	"VerticalHorizontal"	"arrowleft"	"1083"	"TRUE"	"VerticalHorizontal"	"-28.75714000"	"0.0673000000"	"1"	"63"
n/a	"html-keyboard-response"	"143"	"412766"	"0.0-5.0-2.0-0.45"	"01o4y6"	"600"	"1366"	"chrome"	"109.0.0"	"FALSE"	"Windows 10"	"60.56"	"024"	n/a	n/a	n/a	n/a	n/a	n/a	"fixation"	n/a	n/a	n/a	n/a	"NULL"	n/a	"NULL"	"NULL"	"NULL"	"<p style=\"color: black; font-size: 80px; padding-left: 7%; padding-right: 4%; padding-top: 37%; padding-bottom: 28%\">+</p>"	"1328"	n/a	n/a	n/a	n/a	n/a	n/a	n/a	n/a	n/a
n/a	"image-keyboard-response"	"144"	"413480"	"0.0-5.0-2.0-1.45"	"01o4y6"	"600"	"1366"	"chrome"	"109.0.0"	"FALSE"	"Windows 10"	"60.56"	"024"	n/a	n/a	n/a	n/a	n/a	n/a	"Trial"	n/a	n/a	n/a	"713"	"arrowleft"	n/a	"NULL"	"NULL"	"NULL"	"stimuli/VerticalHorizontal_28.75714_0.16217.png"	n/a	"VerticalHorizontal"	"arrowleft"	"1336"	"TRUE"	"VerticalHorizontal"	"28.757140000"	"0.1621700000"	"1"	"64"
n/a	"html-keyboard-response"	"145"	"414625"	"0.0-5.0-2.0-0.46"	"01o4y6"	"600"	"1366"	"chrome"	"109.0.0"	"FALSE"	"Windows 10"	"60.56"	"024"	n/a	n/a	n/a	n/a	n/a	n/a	"fixation"	n/a	n/a	n/a	n/a	"NULL"	n/a	"NULL"	"NULL"	"NULL"	"<p style=\"color: black; font-size: 80px; padding-left: 38%; padding-right: 11%; padding-top: 16%; padding-bottom: 24%\">+</p>"	"1132"	n/a	n/a	n/a	n/a	n/a	n/a	n/a	n/a	n/a
n/a	"image-keyboard-response"	"146"	"415112"	"0.0-5.0-2.0-1.46"	"01o4y6"	"600"	"1366"	"chrome"	"109.0.0"	"FALSE"	"Windows 10"	"60.56"	"024"	n/a	n/a	n/a	n/a	n/a	n/a	"Trial"	n/a	n/a	n/a	"486"	"arrowleft"	n/a	"NULL"	"NULL"	"NULL"	"stimuli/VerticalHorizontal_11.78571_0.10960.png"	n/a	"VerticalHorizontal"	"arrowleft"	"1145"	"TRUE"	"VerticalHorizontal"	"11.785710000"	"0.1096000000"	"1"	"65"
n/a	"html-keyboard-response"	"147"	"416591"	"0.0-5.0-2.0-0.47"	"01o4y6"	"600"	"1366"	"chrome"	"109.0.0"	"FALSE"	"Windows 10"	"60.56"	"024"	n/a	n/a	n/a	n/a	n/a	n/a	"fixation"	n/a	n/a	n/a	n/a	"NULL"	n/a	"NULL"	"NULL"	"NULL"	"<p style=\"color: black; font-size: 80px; padding-left: 34%; padding-right: 40%; padding-top: 22%; padding-bottom: 20%\">+</p>"	"1459"	n/a	n/a	n/a	n/a	n/a	n/a	n/a	n/a	n/a
n/a	"image-keyboard-response"	"148"	"417226"	"0.0-5.0-2.0-1.47"	"01o4y6"	"600"	"1366"	"chrome"	"109.0.0"	"FALSE"	"Windows 10"	"60.56"	"024"	n/a	n/a	n/a	n/a	n/a	n/a	"Trial"	n/a	n/a	n/a	"635"	"arrowright"	n/a	"NULL"	"NULL"	"NULL"	"stimuli/VerticalHorizontal_20.27143_-0.0673.png"	n/a	"VerticalHorizontal"	"arrowright"	"1479"	"TRUE"	"VerticalHorizontal"	"20.271430000"	"-0.067300000"	"1"	"66"
n/a	"html-keyboard-response"	"149"	"418410"	"0.0-5.0-2.0-0.48"	"01o4y6"	"600"	"1366"	"chrome"	"109.0.0"	"FALSE"	"Windows 10"	"60.56"	"024"	n/a	n/a	n/a	n/a	n/a	n/a	"fixation"	n/a	n/a	n/a	n/a	"NULL"	n/a	"NULL"	"NULL"	"NULL"	"<p style=\"color: black; font-size: 80px; padding-left: 15%; padding-right: 22%; padding-top: 38%; padding-bottom: 8%\">+</p>"	"1174"	n/a	n/a	n/a	n/a	n/a	n/a	n/a	n/a	n/a
n/a	"image-keyboard-response"	"150"	"418941"	"0.0-5.0-2.0-1.48"	"01o4y6"	"600"	"1366"	"chrome"	"109.0.0"	"FALSE"	"Windows 10"	"60.56"	"024"	n/a	n/a	n/a	n/a	n/a	n/a	"Trial"	n/a	n/a	n/a	"530"	"arrowleft"	n/a	"NULL"	"NULL"	"NULL"	"stimuli/VerticalHorizontal_3.30000_0.16217.png"	n/a	"VerticalHorizontal"	"arrowleft"	"1184"	"TRUE"	"VerticalHorizontal"	"3.3000000000"	"0.1621700000"	"1"	"67"
n/a	"html-keyboard-response"	"151"	"420404"	"0.0-5.0-2.0-0.49"	"01o4y6"	"600"	"1366"	"chrome"	"109.0.0"	"FALSE"	"Windows 10"	"60.56"	"024"	n/a	n/a	n/a	n/a	n/a	n/a	"fixation"	n/a	n/a	n/a	n/a	"NULL"	n/a	"NULL"	"NULL"	"NULL"	"<p style=\"color: black; font-size: 80px; padding-left: 40%; padding-right: 37%; padding-top: 2%; padding-bottom: 14%\">+</p>"	"1453"	n/a	n/a	n/a	n/a	n/a	n/a	n/a	n/a	n/a
n/a	"image-keyboard-response"	"152"	"421042"	"0.0-5.0-2.0-1.49"	"01o4y6"	"600"	"1366"	"chrome"	"109.0.0"	"FALSE"	"Windows 10"	"60.56"	"024"	n/a	n/a	n/a	n/a	n/a	n/a	"Trial"	n/a	n/a	n/a	"637"	"arrowright"	n/a	"NULL"	"NULL"	"NULL"	"stimuli/VerticalHorizontal_3.30000_-0.0673.png"	n/a	"VerticalHorizontal"	"arrowright"	"1463"	"TRUE"	"VerticalHorizontal"	"3.3000000000"	"-0.067300000"	"1"	"68"
n/a	"html-keyboard-response"	"153"	"422467"	"0.0-5.0-2.0-0.50"	"01o4y6"	"600"	"1366"	"chrome"	"109.0.0"	"FALSE"	"Windows 10"	"60.56"	"024"	n/a	n/a	n/a	n/a	n/a	n/a	"fixation"	n/a	n/a	n/a	n/a	"NULL"	n/a	"NULL"	"NULL"	"NULL"	"<p style=\"color: black; font-size: 80px; padding-left: 33%; padding-right: 2%; padding-top: 9%; padding-bottom: 28%\">+</p>"	"1408"	n/a	n/a	n/a	n/a	n/a	n/a	n/a	n/a	n/a
n/a	"image-keyboard-response"	"154"	"423060"	"0.0-5.0-2.0-1.50"	"01o4y6"	"600"	"1366"	"chrome"	"109.0.0"	"FALSE"	"Windows 10"	"60.56"	"024"	n/a	n/a	n/a	n/a	n/a	n/a	"Trial"	n/a	n/a	n/a	"592"	"arrowright"	n/a	"NULL"	"NULL"	"NULL"	"stimuli/VerticalHorizontal_28.75714_-0.2250.png"	n/a	"VerticalHorizontal"	"arrowright"	"1425"	"TRUE"	"VerticalHorizontal"	"28.757140000"	"-0.225000000"	"1"	"69"
n/a	"html-keyboard-response"	"155"	"424201"	"0.0-5.0-2.0-0.51"	"01o4y6"	"600"	"1366"	"chrome"	"109.0.0"	"FALSE"	"Windows 10"	"60.56"	"024"	n/a	n/a	n/a	n/a	n/a	n/a	"fixation"	n/a	n/a	n/a	n/a	"NULL"	n/a	"NULL"	"NULL"	"NULL"	"<p style=\"color: black; font-size: 80px; padding-left: 30%; padding-right: 37%; padding-top: 44%; padding-bottom: 10%\">+</p>"	"1138"	n/a	n/a	n/a	n/a	n/a	n/a	n/a	n/a	n/a
n/a	"image-keyboard-response"	"156"	"424962"	"0.0-5.0-2.0-1.51"	"01o4y6"	"600"	"1366"	"chrome"	"109.0.0"	"FALSE"	"Windows 10"	"60.56"	"024"	n/a	n/a	n/a	n/a	n/a	n/a	"Trial"	n/a	n/a	n/a	"760"	"arrowright"	n/a	"NULL"	"NULL"	"NULL"	"stimuli/VerticalHorizontal_11.78571_-0.1096.png"	n/a	"VerticalHorizontal"	"arrowright"	"1141"	"TRUE"	"VerticalHorizontal"	"11.785710000"	"-0.109600000"	"1"	"70"
n/a	"html-keyboard-response"	"157"	"426447"	"0.0-5.0-2.0-0.52"	"01o4y6"	"600"	"1366"	"chrome"	"109.0.0"	"FALSE"	"Windows 10"	"60.56"	"024"	n/a	n/a	n/a	n/a	n/a	n/a	"fixation"	n/a	n/a	n/a	n/a	"NULL"	n/a	"NULL"	"NULL"	"NULL"	"<p style=\"color: black; font-size: 80px; padding-left: 12%; padding-right: 41%; padding-top: 32%; padding-bottom: 41%\">+</p>"	"1473"	n/a	n/a	n/a	n/a	n/a	n/a	n/a	n/a	n/a
n/a	"image-keyboard-response"	"158"	"427122"	"0.0-5.0-2.0-1.52"	"01o4y6"	"600"	"1366"	"chrome"	"109.0.0"	"FALSE"	"Windows 10"	"60.56"	"024"	n/a	n/a	n/a	n/a	n/a	n/a	"Trial"	n/a	n/a	n/a	"675"	"arrowleft"	n/a	"NULL"	"NULL"	"NULL"	"stimuli/VerticalHorizontal_28.75714_0.10960.png"	n/a	"VerticalHorizontal"	"arrowleft"	"1485"	"TRUE"	"VerticalHorizontal"	"28.757140000"	"0.1096000000"	"1"	"71"
n/a	"html-keyboard-response"	"159"	"428347"	"0.0-5.0-2.0-0.53"	"01o4y6"	"600"	"1366"	"chrome"	"109.0.0"	"FALSE"	"Windows 10"	"60.56"	"024"	n/a	n/a	n/a	n/a	n/a	n/a	"fixation"	n/a	n/a	n/a	n/a	"NULL"	n/a	"NULL"	"NULL"	"NULL"	"<p style=\"color: black; font-size: 80px; padding-left: 3%; padding-right: 18%; padding-top: 19%; padding-bottom: 11%\">+</p>"	"1215"	n/a	n/a	n/a	n/a	n/a	n/a	n/a	n/a	n/a
n/a	"image-keyboard-response"	"160"	"428927"	"0.0-5.0-2.0-1.53"	"01o4y6"	"600"	"1366"	"chrome"	"109.0.0"	"FALSE"	"Windows 10"	"60.56"	"024"	n/a	n/a	n/a	n/a	n/a	n/a	"Trial"	n/a	n/a	n/a	"579"	"arrowright"	n/a	"NULL"	"NULL"	"NULL"	"stimuli/VerticalHorizontal_-28.75714_-0.2250.png"	n/a	"VerticalHorizontal"	"arrowright"	"1225"	"TRUE"	"VerticalHorizontal"	"-28.75714000"	"-0.225000000"	"1"	"72"
n/a	"html-keyboard-response"	"161"	"430136"	"0.0-5.0-2.0-0.54"	"01o4y6"	"600"	"1366"	"chrome"	"109.0.0"	"FALSE"	"Windows 10"	"60.56"	"024"	n/a	n/a	n/a	n/a	n/a	n/a	"fixation"	n/a	n/a	n/a	n/a	"NULL"	n/a	"NULL"	"NULL"	"NULL"	"<p style=\"color: black; font-size: 80px; padding-left: 27%; padding-right: 34%; padding-top: 36%; padding-bottom: 1%\">+</p>"	"1190"	n/a	n/a	n/a	n/a	n/a	n/a	n/a	n/a	n/a
n/a	"image-keyboard-response"	"162"	"430787"	"0.0-5.0-2.0-1.54"	"01o4y6"	"600"	"1366"	"chrome"	"109.0.0"	"FALSE"	"Windows 10"	"60.56"	"024"	n/a	n/a	n/a	n/a	n/a	n/a	"Trial"	n/a	n/a	n/a	"651"	"arrowleft"	n/a	"NULL"	"NULL"	"NULL"	"stimuli/VerticalHorizontal_28.75714_0.06730.png"	n/a	"VerticalHorizontal"	"arrowleft"	"1209"	"TRUE"	"VerticalHorizontal"	"28.757140000"	"0.0673000000"	"1"	"73"
n/a	"html-keyboard-response"	"163"	"431976"	"0.0-5.0-2.0-0.55"	"01o4y6"	"600"	"1366"	"chrome"	"109.0.0"	"FALSE"	"Windows 10"	"60.56"	"024"	n/a	n/a	n/a	n/a	n/a	n/a	"fixation"	n/a	n/a	n/a	n/a	"NULL"	n/a	"NULL"	"NULL"	"NULL"	"<p style=\"color: black; font-size: 80px; padding-left: 25%; padding-right: 16%; padding-top: 46%; padding-bottom: 10%\">+</p>"	"1179"	n/a	n/a	n/a	n/a	n/a	n/a	n/a	n/a	n/a
n/a	"image-keyboard-response"	"164"	"432519"	"0.0-5.0-2.0-1.55"	"01o4y6"	"600"	"1366"	"chrome"	"109.0.0"	"FALSE"	"Windows 10"	"60.56"	"024"	n/a	n/a	n/a	n/a	n/a	n/a	"Trial"	n/a	n/a	n/a	"540"	"arrowleft"	n/a	"NULL"	"NULL"	"NULL"	"stimuli/VerticalHorizontal_-3.3000_0.10960.png"	n/a	"VerticalHorizontal"	"arrowleft"	"1189"	"TRUE"	"VerticalHorizontal"	"-3.300000000"	"0.1096000000"	"1"	"74"
n/a	"html-keyboard-response"	"165"	"433857"	"0.0-5.0-2.0-0.56"	"01o4y6"	"600"	"1366"	"chrome"	"109.0.0"	"FALSE"	"Windows 10"	"60.56"	"024"	n/a	n/a	n/a	n/a	n/a	n/a	"fixation"	n/a	n/a	n/a	n/a	"NULL"	n/a	"NULL"	"NULL"	"NULL"	"<p style=\"color: black; font-size: 80px; padding-left: 1%; padding-right: 27%; padding-top: 42%; padding-bottom: 15%\">+</p>"	"1323"	n/a	n/a	n/a	n/a	n/a	n/a	n/a	n/a	n/a
n/a	"image-keyboard-response"	"166"	"434354"	"0.0-5.0-2.0-1.56"	"01o4y6"	"600"	"1366"	"chrome"	"109.0.0"	"FALSE"	"Windows 10"	"60.56"	"024"	n/a	n/a	n/a	n/a	n/a	n/a	"Trial"	n/a	n/a	n/a	"496"	"arrowright"	n/a	"NULL"	"NULL"	"NULL"	"stimuli/VerticalHorizontal_-28.75714_-0.0673.png"	n/a	"VerticalHorizontal"	"arrowright"	"1338"	"TRUE"	"VerticalHorizontal"	"-28.75714000"	"-0.067300000"	"1"	"75"
n/a	"html-keyboard-response"	"167"	"435858"	"0.0-5.0-2.0-0.57"	"01o4y6"	"600"	"1366"	"chrome"	"109.0.0"	"FALSE"	"Windows 10"	"60.56"	"024"	n/a	n/a	n/a	n/a	n/a	n/a	"fixation"	n/a	n/a	n/a	n/a	"NULL"	n/a	"NULL"	"NULL"	"NULL"	"<p style=\"color: black; font-size: 80px; padding-left: 13%; padding-right: 10%; padding-top: 8%; padding-bottom: 43%\">+</p>"	"1499"	n/a	n/a	n/a	n/a	n/a	n/a	n/a	n/a	n/a
n/a	"image-keyboard-response"	"168"	"436273"	"0.0-5.0-2.0-1.57"	"01o4y6"	"600"	"1366"	"chrome"	"109.0.0"	"FALSE"	"Windows 10"	"60.56"	"024"	n/a	n/a	n/a	n/a	n/a	n/a	"Trial"	n/a	n/a	n/a	"415"	"arrowleft"	n/a	"NULL"	"NULL"	"NULL"	"stimuli/VerticalHorizontal_-20.27143_0.16217.png"	n/a	"VerticalHorizontal"	"arrowleft"	"1504"	"TRUE"	"VerticalHorizontal"	"-20.27143000"	"0.1621700000"	"1"	"76"
n/a	"html-keyboard-response"	"169"	"437611"	"0.0-5.0-2.0-0.58"	"01o4y6"	"600"	"1366"	"chrome"	"109.0.0"	"FALSE"	"Windows 10"	"60.56"	"024"	n/a	n/a	n/a	n/a	n/a	n/a	"fixation"	n/a	n/a	n/a	n/a	"NULL"	n/a	"NULL"	"NULL"	"NULL"	"<p style=\"color: black; font-size: 80px; padding-left: 23%; padding-right: 5%; padding-top: 4%; padding-bottom: 3%\">+</p>"	"1319"	n/a	n/a	n/a	n/a	n/a	n/a	n/a	n/a	n/a
n/a	"image-keyboard-response"	"170"	"438171"	"0.0-5.0-2.0-1.58"	"01o4y6"	"600"	"1366"	"chrome"	"109.0.0"	"FALSE"	"Windows 10"	"60.56"	"024"	n/a	n/a	n/a	n/a	n/a	n/a	"Trial"	n/a	n/a	n/a	"559"	"arrowright"	n/a	"NULL"	"NULL"	"NULL"	"stimuli/VerticalHorizontal_11.78571_-0.0673.png"	n/a	"VerticalHorizontal"	"arrowright"	"1338"	"TRUE"	"VerticalHorizontal"	"11.785710000"	"-0.067300000"	"1"	"77"
n/a	"html-keyboard-response"	"171"	"439231"	"0.0-5.0-2.0-0.59"	"01o4y6"	"600"	"1366"	"chrome"	"109.0.0"	"FALSE"	"Windows 10"	"60.56"	"024"	n/a	n/a	n/a	n/a	n/a	n/a	"fixation"	n/a	n/a	n/a	n/a	"NULL"	n/a	"NULL"	"NULL"	"NULL"	"<p style=\"color: black; font-size: 80px; padding-left: 47%; padding-right: 26%; padding-top: 22%; padding-bottom: 39%\">+</p>"	"1040"	n/a	n/a	n/a	n/a	n/a	n/a	n/a	n/a	n/a
n/a	"image-keyboard-response"	"172"	"439780"	"0.0-5.0-2.0-1.59"	"01o4y6"	"600"	"1366"	"chrome"	"109.0.0"	"FALSE"	"Windows 10"	"60.56"	"024"	n/a	n/a	n/a	n/a	n/a	n/a	"Trial"	n/a	n/a	n/a	"548"	"arrowright"	n/a	"NULL"	"NULL"	"NULL"	"stimuli/VerticalHorizontal_3.30000_-0.2250.png"	n/a	"VerticalHorizontal"	"arrowright"	"1060"	"TRUE"	"VerticalHorizontal"	"3.3000000000"	"-0.225000000"	"1"	"78"
n/a	"html-keyboard-response"	"173"	"440984"	"0.0-5.0-2.0-0.60"	"01o4y6"	"600"	"1366"	"chrome"	"109.0.0"	"FALSE"	"Windows 10"	"60.56"	"024"	n/a	n/a	n/a	n/a	n/a	n/a	"fixation"	n/a	n/a	n/a	n/a	"NULL"	n/a	"NULL"	"NULL"	"NULL"	"<p style=\"color: black; font-size: 80px; padding-left: 11%; padding-right: 29%; padding-top: 44%; padding-bottom: 29%\">+</p>"	"1188"	n/a	n/a	n/a	n/a	n/a	n/a	n/a	n/a	n/a
n/a	"image-keyboard-response"	"174"	"441771"	"0.0-5.0-2.0-1.60"	"01o4y6"	"600"	"1366"	"chrome"	"109.0.0"	"FALSE"	"Windows 10"	"60.56"	"024"	n/a	n/a	n/a	n/a	n/a	n/a	"Trial"	n/a	n/a	n/a	"786"	"arrowright"	n/a	"NULL"	"NULL"	"NULL"	"stimuli/VerticalHorizontal_-20.27143_-0.0673.png"	n/a	"VerticalHorizontal"	"arrowright"	"1204"	"TRUE"	"VerticalHorizontal"	"-20.27143000"	"-0.067300000"	"1"	"79"
n/a	"html-keyboard-response"	"175"	"443210"	"0.0-5.0-2.0-0.61"	"01o4y6"	"600"	"1366"	"chrome"	"109.0.0"	"FALSE"	"Windows 10"	"60.56"	"024"	n/a	n/a	n/a	n/a	n/a	n/a	"fixation"	n/a	n/a	n/a	n/a	"NULL"	n/a	"NULL"	"NULL"	"NULL"	"<p style=\"color: black; font-size: 80px; padding-left: 36%; padding-right: 44%; padding-top: 22%; padding-bottom: 7%\">+</p>"	"1424"	n/a	n/a	n/a	n/a	n/a	n/a	n/a	n/a	n/a
n/a	"image-keyboard-response"	"176"	"443669"	"0.0-5.0-2.0-1.61"	"01o4y6"	"600"	"1366"	"chrome"	"109.0.0"	"FALSE"	"Windows 10"	"60.56"	"024"	n/a	n/a	n/a	n/a	n/a	n/a	"Trial"	n/a	n/a	n/a	"459"	"arrowleft"	n/a	"NULL"	"NULL"	"NULL"	"stimuli/VerticalHorizontal_-28.75714_0.16217.png"	n/a	"VerticalHorizontal"	"arrowleft"	"1439"	"TRUE"	"VerticalHorizontal"	"-28.75714000"	"0.1621700000"	"1"	"80"
n/a	"html-keyboard-response"	"177"	"444721"	"0.0-5.0-2.0-0.62"	"01o4y6"	"600"	"1366"	"chrome"	"109.0.0"	"FALSE"	"Windows 10"	"60.56"	"024"	n/a	n/a	n/a	n/a	n/a	n/a	"fixation"	n/a	n/a	n/a	n/a	"NULL"	n/a	"NULL"	"NULL"	"NULL"	"<p style=\"color: black; font-size: 80px; padding-left: 8%; padding-right: 8%; padding-top: 23%; padding-bottom: 47%\">+</p>"	"1046"	n/a	n/a	n/a	n/a	n/a	n/a	n/a	n/a	n/a
n/a	"image-keyboard-response"	"178"	"445222"	"0.0-5.0-2.0-1.62"	"01o4y6"	"600"	"1366"	"chrome"	"109.0.0"	"FALSE"	"Windows 10"	"60.56"	"024"	n/a	n/a	n/a	n/a	n/a	n/a	"Trial"	n/a	n/a	n/a	"500"	"arrowright"	n/a	"NULL"	"NULL"	"NULL"	"stimuli/VerticalHorizontal_-3.3000_-0.16217.png"	n/a	"VerticalHorizontal"	"arrowright"	"1052"	"TRUE"	"VerticalHorizontal"	"-3.300000000"	"-0.162170000"	"1"	"81"
n/a	"html-keyboard-response"	"179"	"446259"	"0.0-5.0-2.0-0.63"	"01o4y6"	"600"	"1366"	"chrome"	"109.0.0"	"FALSE"	"Windows 10"	"60.56"	"024"	n/a	n/a	n/a	n/a	n/a	n/a	"fixation"	n/a	n/a	n/a	n/a	"NULL"	n/a	"NULL"	"NULL"	"NULL"	"<p style=\"color: black; font-size: 80px; padding-left: 25%; padding-right: 17%; padding-top: 40%; padding-bottom: 34%\">+</p>"	"1029"	n/a	n/a	n/a	n/a	n/a	n/a	n/a	n/a	n/a
n/a	"image-keyboard-response"	"180"	"446762"	"0.0-5.0-2.0-1.63"	"01o4y6"	"600"	"1366"	"chrome"	"109.0.0"	"FALSE"	"Windows 10"	"60.56"	"024"	n/a	n/a	n/a	n/a	n/a	n/a	"Trial"	n/a	n/a	n/a	"502"	"arrowleft"	n/a	"NULL"	"NULL"	"NULL"	"stimuli/VerticalHorizontal_20.27143_0.16217.png"	n/a	"VerticalHorizontal"	"arrowleft"	"1037"	"TRUE"	"VerticalHorizontal"	"20.271430000"	"0.1621700000"	"1"	"82"
n/a	"html-button-response"	"181"	"463048"	"0.0-5.0-3.0"	"01o4y6"	"600"	"1366"	"chrome"	"109.0.0"	"FALSE"	"Windows 10"	"60.56"	"024"	n/a	n/a	n/a	n/a	n/a	n/a	"block_results"	n/a	n/a	n/a	"16284"	"0"	n/a	"NULL"	"NULL"	"NULL"	"<p>Your score for this illusion is <p style=\"color: black; font-size: 48px; font-weight: bold;\">84 %</p><hr><p>Can you do better in the next illusion?</p>"	n/a	n/a	n/a	n/a	n/a	n/a	n/a	n/a	n/a	n/a
"TRUE"	"preload"	"182"	"463207"	"0.0-6.0-0.0"	"01o4y6"	"600"	"1366"	"chrome"	"109.0.0"	"FALSE"	"Windows 10"	"60.56"	"024"	n/a	n/a	n/a	n/a	n/a	n/a	n/a	n/a	n/a	n/a	n/a	"NULL"	"FALSE"	"list()"	"list()"	"list()"	n/a	n/a	n/a	n/a	n/a	n/a	n/a	n/a	n/a	n/a	n/a
n/a	"html-keyboard-response"	"183"	"470796"	"0.0-6.0-1.0"	"01o4y6"	"600"	"1366"	"chrome"	"109.0.0"	"FALSE"	"Windows 10"	"60.56"	"024"	n/a	n/a	n/a	n/a	n/a	n/a	n/a	n/a	n/a	n/a	"7589"	"enter"	n/a	"NULL"	"NULL"	"NULL"	"<p><b>Part 2/6</b></p><p>In this part, two red circles will appear side by side on the screen.</p><p>Your task is to select which <b>red circle is bigger</b> in size as fast as you can, without making errors.</p><p>Don't get distracted by the surrounding black circles around the red circles!</p><p>Press <b>the LEFT or the RIGHT arrow</b> to indicate which is the bigger <b>red circle.</b></p><div style='float: center'><img src='materials/instructions/Ebbinghaus_Demo.png' height='300'></img><p><img src='utils/answer/answer_leftright_keyboard.PNG' height='150'></img></p><p class='small'>In this example, the correct answer is the <b>LEFT arrow</b>.</p></div><p>Are you ready? <b>Press ENTER to start</b></p>"	n/a	n/a	n/a	n/a	n/a	n/a	n/a	n/a	n/a	n/a
n/a	"html-keyboard-response"	"184"	"472400"	"0.0-6.0-2.0-0.0"	"01o4y6"	"600"	"1366"	"chrome"	"109.0.0"	"FALSE"	"Windows 10"	"60.56"	"024"	n/a	n/a	n/a	n/a	n/a	n/a	"fixation"	n/a	n/a	n/a	n/a	"NULL"	n/a	"NULL"	"NULL"	"NULL"	"<p style=\"color: black; font-size: 80px; padding-left: 3%; padding-right: 36%; padding-top: 49%; padding-bottom: 9%\">+</p>"	"1088"	n/a	n/a	n/a	n/a	n/a	n/a	n/a	n/a	n/a
n/a	"image-keyboard-response"	"185"	"473007"	"0.0-6.0-2.0-1.0"	"01o4y6"	"600"	"1366"	"chrome"	"109.0.0"	"FALSE"	"Windows 10"	"60.56"	"024"	n/a	n/a	n/a	n/a	n/a	n/a	"Trial"	n/a	n/a	n/a	"607"	"arrowright"	n/a	"NULL"	"NULL"	"NULL"	"stimuli/Ebbinghaus_-0.35714_-0.15857.png"	n/a	"Ebbinghaus"	"arrowright"	"1604"	"TRUE"	"Ebbinghaus"	"-0.357140000"	"-0.158570000"	"2"	"1"
n/a	"html-keyboard-response"	"186"	"474106"	"0.0-6.0-2.0-0.1"	"01o4y6"	"600"	"1366"	"chrome"	"109.0.0"	"FALSE"	"Windows 10"	"60.56"	"024"	n/a	n/a	n/a	n/a	n/a	n/a	"fixation"	n/a	n/a	n/a	n/a	"NULL"	n/a	"NULL"	"NULL"	"NULL"	"<p style=\"color: black; font-size: 80px; padding-left: 49%; padding-right: 5%; padding-top: 24%; padding-bottom: 49%\">+</p>"	"1082"	n/a	n/a	n/a	n/a	n/a	n/a	n/a	n/a	n/a
n/a	"image-keyboard-response"	"187"	"474608"	"0.0-6.0-2.0-1.1"	"01o4y6"	"600"	"1366"	"chrome"	"109.0.0"	"FALSE"	"Windows 10"	"60.56"	"024"	n/a	n/a	n/a	n/a	n/a	n/a	"Trial"	n/a	n/a	n/a	"501"	"arrowright"	n/a	"NULL"	"NULL"	"NULL"	"stimuli/Ebbinghaus_-0.87143_-0.2800.png"	n/a	"Ebbinghaus"	"arrowright"	"1099"	"TRUE"	"Ebbinghaus"	"-0.871430000"	"-0.280000000"	"2"	"2"
n/a	"html-keyboard-response"	"188"	"476052"	"0.0-6.0-2.0-0.2"	"01o4y6"	"600"	"1366"	"chrome"	"109.0.0"	"FALSE"	"Windows 10"	"60.56"	"024"	n/a	n/a	n/a	n/a	n/a	n/a	"fixation"	n/a	n/a	n/a	n/a	"NULL"	n/a	"NULL"	"NULL"	"NULL"	"<p style=\"color: black; font-size: 80px; padding-left: 1%; padding-right: 20%; padding-top: 15%; padding-bottom: 24%\">+</p>"	"1425"	n/a	n/a	n/a	n/a	n/a	n/a	n/a	n/a	n/a
n/a	"image-keyboard-response"	"189"	"476560"	"0.0-6.0-2.0-1.2"	"01o4y6"	"600"	"1366"	"chrome"	"109.0.0"	"FALSE"	"Windows 10"	"60.56"	"024"	n/a	n/a	n/a	n/a	n/a	n/a	"Trial"	n/a	n/a	n/a	"508"	"arrowleft"	n/a	"NULL"	"NULL"	"NULL"	"stimuli/Ebbinghaus_-0.61429_0.21500.png"	n/a	"Ebbinghaus"	"arrowleft"	"1444"	"TRUE"	"Ebbinghaus"	"-0.614290000"	"0.2150000000"	"2"	"3"
n/a	"html-keyboard-response"	"190"	"478001"	"0.0-6.0-2.0-0.3"	"01o4y6"	"600"	"1366"	"chrome"	"109.0.0"	"FALSE"	"Windows 10"	"60.56"	"024"	n/a	n/a	n/a	n/a	n/a	n/a	"fixation"	n/a	n/a	n/a	n/a	"NULL"	n/a	"NULL"	"NULL"	"NULL"	"<p style=\"color: black; font-size: 80px; padding-left: 23%; padding-right: 7%; padding-top: 10%; padding-bottom: 1%\">+</p>"	"1433"	n/a	n/a	n/a	n/a	n/a	n/a	n/a	n/a	n/a
n/a	"image-keyboard-response"	"191"	"478586"	"0.0-6.0-2.0-1.3"	"01o4y6"	"600"	"1366"	"chrome"	"109.0.0"	"FALSE"	"Windows 10"	"60.56"	"024"	n/a	n/a	n/a	n/a	n/a	n/a	"Trial"	n/a	n/a	n/a	"584"	"arrowright"	n/a	"NULL"	"NULL"	"NULL"	"stimuli/Ebbinghaus_0.87143_0.11071.png"	n/a	"Ebbinghaus"	"arrowleft"	"1441"	"FALSE"	"Ebbinghaus"	"0.8714300000"	"0.1107100000"	"2"	"4"
n/a	"html-keyboard-response"	"192"	"480005"	"0.0-6.0-2.0-0.4"	"01o4y6"	"600"	"1366"	"chrome"	"109.0.0"	"FALSE"	"Windows 10"	"60.56"	"024"	n/a	n/a	n/a	n/a	n/a	n/a	"fixation"	n/a	n/a	n/a	n/a	"NULL"	n/a	"NULL"	"NULL"	"NULL"	"<p style=\"color: black; font-size: 80px; padding-left: 43%; padding-right: 30%; padding-top: 4%; padding-bottom: 7%\">+</p>"	"1409"	n/a	n/a	n/a	n/a	n/a	n/a	n/a	n/a	n/a
n/a	"image-keyboard-response"	"193"	"480559"	"0.0-6.0-2.0-1.4"	"01o4y6"	"600"	"1366"	"chrome"	"109.0.0"	"FALSE"	"Windows 10"	"60.56"	"024"	n/a	n/a	n/a	n/a	n/a	n/a	"Trial"	n/a	n/a	n/a	"553"	"arrowright"	n/a	"NULL"	"NULL"	"NULL"	"stimuli/Ebbinghaus_0.87143_-0.11071.png"	n/a	"Ebbinghaus"	"arrowright"	"1419"	"TRUE"	"Ebbinghaus"	"0.8714300000"	"-0.110710000"	"2"	"5"
n/a	"html-keyboard-response"	"194"	"482006"	"0.0-6.0-2.0-0.5"	"01o4y6"	"600"	"1366"	"chrome"	"109.0.0"	"FALSE"	"Windows 10"	"60.56"	"024"	n/a	n/a	n/a	n/a	n/a	n/a	"fixation"	n/a	n/a	n/a	n/a	"NULL"	n/a	"NULL"	"NULL"	"NULL"	"<p style=\"color: black; font-size: 80px; padding-left: 27%; padding-right: 47%; padding-top: 20%; padding-bottom: 48%\">+</p>"	"1440"	n/a	n/a	n/a	n/a	n/a	n/a	n/a	n/a	n/a
n/a	"image-keyboard-response"	"195"	"482515"	"0.0-6.0-2.0-1.5"	"01o4y6"	"600"	"1366"	"chrome"	"109.0.0"	"FALSE"	"Windows 10"	"60.56"	"024"	n/a	n/a	n/a	n/a	n/a	n/a	"Trial"	n/a	n/a	n/a	"508"	"arrowleft"	n/a	"NULL"	"NULL"	"NULL"	"stimuli/Ebbinghaus_-0.1000_0.28000.png"	n/a	"Ebbinghaus"	"arrowleft"	"1447"	"TRUE"	"Ebbinghaus"	"-0.100000000"	"0.2800000000"	"2"	"6"
n/a	"html-keyboard-response"	"196"	"483844"	"0.0-6.0-2.0-0.6"	"01o4y6"	"600"	"1366"	"chrome"	"109.0.0"	"FALSE"	"Windows 10"	"60.56"	"024"	n/a	n/a	n/a	n/a	n/a	n/a	"fixation"	n/a	n/a	n/a	n/a	"NULL"	n/a	"NULL"	"NULL"	"NULL"	"<p style=\"color: black; font-size: 80px; padding-left: 46%; padding-right: 29%; padding-top: 40%; padding-bottom: 40%\">+</p>"	"1324"	n/a	n/a	n/a	n/a	n/a	n/a	n/a	n/a	n/a
n/a	"image-keyboard-response"	"197"	"484478"	"0.0-6.0-2.0-1.6"	"01o4y6"	"600"	"1366"	"chrome"	"109.0.0"	"FALSE"	"Windows 10"	"60.56"	"024"	n/a	n/a	n/a	n/a	n/a	n/a	"Trial"	n/a	n/a	n/a	"634"	"arrowleft"	n/a	"NULL"	"NULL"	"NULL"	"stimuli/Ebbinghaus_-0.87143_0.21500.png"	n/a	"Ebbinghaus"	"arrowleft"	"1329"	"TRUE"	"Ebbinghaus"	"-0.871430000"	"0.2150000000"	"2"	"7"
n/a	"html-keyboard-response"	"198"	"485499"	"0.0-6.0-2.0-0.7"	"01o4y6"	"600"	"1366"	"chrome"	"109.0.0"	"FALSE"	"Windows 10"	"60.56"	"024"	n/a	n/a	n/a	n/a	n/a	n/a	"fixation"	n/a	n/a	n/a	n/a	"NULL"	n/a	"NULL"	"NULL"	"NULL"	"<p style=\"color: black; font-size: 80px; padding-left: 23%; padding-right: 4%; padding-top: 23%; padding-bottom: 30%\">+</p>"	"1010"	n/a	n/a	n/a	n/a	n/a	n/a	n/a	n/a	n/a
n/a	"image-keyboard-response"	"199"	"486051"	"0.0-6.0-2.0-1.7"	"01o4y6"	"600"	"1366"	"chrome"	"109.0.0"	"FALSE"	"Windows 10"	"60.56"	"024"	n/a	n/a	n/a	n/a	n/a	n/a	"Trial"	n/a	n/a	n/a	"550"	"arrowleft"	n/a	"NULL"	"NULL"	"NULL"	"stimuli/Ebbinghaus_-0.61429_0.28000.png"	n/a	"Ebbinghaus"	"arrowleft"	"1021"	"TRUE"	"Ebbinghaus"	"-0.614290000"	"0.2800000000"	"2"	"8"
n/a	"html-keyboard-response"	"200"	"487388"	"0.0-6.0-2.0-0.8"	"01o4y6"	"600"	"1366"	"chrome"	"109.0.0"	"FALSE"	"Windows 10"	"60.56"	"024"	n/a	n/a	n/a	n/a	n/a	n/a	"fixation"	n/a	n/a	n/a	n/a	"NULL"	n/a	"NULL"	"NULL"	"NULL"	"<p style=\"color: black; font-size: 80px; padding-left: 7%; padding-right: 16%; padding-top: 24%; padding-bottom: 28%\">+</p>"	"1319"	n/a	n/a	n/a	n/a	n/a	n/a	n/a	n/a	n/a
n/a	"image-keyboard-response"	"201"	"488002"	"0.0-6.0-2.0-1.8"	"01o4y6"	"600"	"1366"	"chrome"	"109.0.0"	"FALSE"	"Windows 10"	"60.56"	"024"	n/a	n/a	n/a	n/a	n/a	n/a	"Trial"	n/a	n/a	n/a	"613"	"arrowright"	n/a	"NULL"	"NULL"	"NULL"	"stimuli/Ebbinghaus_0.61429_-0.2800.png"	n/a	"Ebbinghaus"	"arrowright"	"1337"	"TRUE"	"Ebbinghaus"	"0.6142900000"	"-0.280000000"	"2"	"9"
n/a	"html-keyboard-response"	"202"	"489349"	"0.0-6.0-2.0-0.9"	"01o4y6"	"600"	"1366"	"chrome"	"109.0.0"	"FALSE"	"Windows 10"	"60.56"	"024"	n/a	n/a	n/a	n/a	n/a	n/a	"fixation"	n/a	n/a	n/a	n/a	"NULL"	n/a	"NULL"	"NULL"	"NULL"	"<p style=\"color: black; font-size: 80px; padding-left: 10%; padding-right: 13%; padding-top: 36%; padding-bottom: 18%\">+</p>"	"1332"	n/a	n/a	n/a	n/a	n/a	n/a	n/a	n/a	n/a
n/a	"image-keyboard-response"	"203"	"489959"	"0.0-6.0-2.0-1.9"	"01o4y6"	"600"	"1366"	"chrome"	"109.0.0"	"FALSE"	"Windows 10"	"60.56"	"024"	n/a	n/a	n/a	n/a	n/a	n/a	"Trial"	n/a	n/a	n/a	"610"	"arrowright"	n/a	"NULL"	"NULL"	"NULL"	"stimuli/Ebbinghaus_-0.61429_-0.2800.png"	n/a	"Ebbinghaus"	"arrowright"	"1347"	"TRUE"	"Ebbinghaus"	"-0.614290000"	"-0.280000000"	"2"	"10"
n/a	"html-keyboard-response"	"204"	"491096"	"0.0-6.0-2.0-0.10"	"01o4y6"	"600"	"1366"	"chrome"	"109.0.0"	"FALSE"	"Windows 10"	"60.56"	"024"	n/a	n/a	n/a	n/a	n/a	n/a	"fixation"	n/a	n/a	n/a	n/a	"NULL"	n/a	"NULL"	"NULL"	"NULL"	"<p style=\"color: black; font-size: 80px; padding-left: 13%; padding-right: 34%; padding-top: 6%; padding-bottom: 1%\">+</p>"	"1123"	n/a	n/a	n/a	n/a	n/a	n/a	n/a	n/a	n/a
n/a	"image-keyboard-response"	"205"	"491787"	"0.0-6.0-2.0-1.10"	"01o4y6"	"600"	"1366"	"chrome"	"109.0.0"	"FALSE"	"Windows 10"	"60.56"	"024"	n/a	n/a	n/a	n/a	n/a	n/a	"Trial"	n/a	n/a	n/a	"690"	"arrowleft"	n/a	"NULL"	"NULL"	"NULL"	"stimuli/Ebbinghaus_-0.1000_-0.11071.png"	n/a	"Ebbinghaus"	"arrowright"	"1137"	"FALSE"	"Ebbinghaus"	"-0.100000000"	"-0.110710000"	"2"	"11"
n/a	"html-keyboard-response"	"206"	"492915"	"0.0-6.0-2.0-0.11"	"01o4y6"	"600"	"1366"	"chrome"	"109.0.0"	"FALSE"	"Windows 10"	"60.56"	"024"	n/a	n/a	n/a	n/a	n/a	n/a	"fixation"	n/a	n/a	n/a	n/a	"NULL"	n/a	"NULL"	"NULL"	"NULL"	"<p style=\"color: black; font-size: 80px; padding-left: 33%; padding-right: 33%; padding-top: 2%; padding-bottom: 24%\">+</p>"	"1113"	n/a	n/a	n/a	n/a	n/a	n/a	n/a	n/a	n/a
n/a	"image-keyboard-response"	"207"	"493417"	"0.0-6.0-2.0-1.11"	"01o4y6"	"600"	"1366"	"chrome"	"109.0.0"	"FALSE"	"Windows 10"	"60.56"	"024"	n/a	n/a	n/a	n/a	n/a	n/a	"Trial"	n/a	n/a	n/a	"501"	"arrowleft"	n/a	"NULL"	"NULL"	"NULL"	"stimuli/Ebbinghaus_0.10000_0.15857.png"	n/a	"Ebbinghaus"	"arrowleft"	"1128"	"TRUE"	"Ebbinghaus"	"0.1000000000"	"0.1585700000"	"2"	"12"
n/a	"html-keyboard-response"	"208"	"494702"	"0.0-6.0-2.0-0.12"	"01o4y6"	"600"	"1366"	"chrome"	"109.0.0"	"FALSE"	"Windows 10"	"60.56"	"024"	n/a	n/a	n/a	n/a	n/a	n/a	"fixation"	n/a	n/a	n/a	n/a	"NULL"	n/a	"NULL"	"NULL"	"NULL"	"<p style=\"color: black; font-size: 80px; padding-left: 12%; padding-right: 14%; padding-top: 44%; padding-bottom: 47%\">+</p>"	"1277"	n/a	n/a	n/a	n/a	n/a	n/a	n/a	n/a	n/a
n/a	"image-keyboard-response"	"209"	"495406"	"0.0-6.0-2.0-1.12"	"01o4y6"	"600"	"1366"	"chrome"	"109.0.0"	"FALSE"	"Windows 10"	"60.56"	"024"	n/a	n/a	n/a	n/a	n/a	n/a	"Trial"	n/a	n/a	n/a	"703"	"arrowleft"	n/a	"NULL"	"NULL"	"NULL"	"stimuli/Ebbinghaus_0.10000_0.11071.png"	n/a	"Ebbinghaus"	"arrowleft"	"1285"	"TRUE"	"Ebbinghaus"	"0.1000000000"	"0.1107100000"	"2"	"13"
n/a	"html-keyboard-response"	"210"	"496485"	"0.0-6.0-2.0-0.13"	"01o4y6"	"600"	"1366"	"chrome"	"109.0.0"	"FALSE"	"Windows 10"	"60.56"	"024"	n/a	n/a	n/a	n/a	n/a	n/a	"fixation"	n/a	n/a	n/a	n/a	"NULL"	n/a	"NULL"	"NULL"	"NULL"	"<p style=\"color: black; font-size: 80px; padding-left: 8%; padding-right: 50%; padding-top: 50%; padding-bottom: 24%\">+</p>"	"1066"	n/a	n/a	n/a	n/a	n/a	n/a	n/a	n/a	n/a
n/a	"image-keyboard-response"	"211"	"497063"	"0.0-6.0-2.0-1.13"	"01o4y6"	"600"	"1366"	"chrome"	"109.0.0"	"FALSE"	"Windows 10"	"60.56"	"024"	n/a	n/a	n/a	n/a	n/a	n/a	"Trial"	n/a	n/a	n/a	"577"	"arrowleft"	n/a	"NULL"	"NULL"	"NULL"	"stimuli/Ebbinghaus_-0.1000_0.21500.png"	n/a	"Ebbinghaus"	"arrowleft"	"1079"	"TRUE"	"Ebbinghaus"	"-0.100000000"	"0.2150000000"	"2"	"14"
n/a	"html-keyboard-response"	"212"	"498091"	"0.0-6.0-2.0-0.14"	"01o4y6"	"600"	"1366"	"chrome"	"109.0.0"	"FALSE"	"Windows 10"	"60.56"	"024"	n/a	n/a	n/a	n/a	n/a	n/a	"fixation"	n/a	n/a	n/a	n/a	"NULL"	n/a	"NULL"	"NULL"	"NULL"	"<p style=\"color: black; font-size: 80px; padding-left: 27%; padding-right: 26%; padding-top: 9%; padding-bottom: 3%\">+</p>"	"1018"	n/a	n/a	n/a	n/a	n/a	n/a	n/a	n/a	n/a
n/a	"image-keyboard-response"	"213"	"498903"	"0.0-6.0-2.0-1.14"	"01o4y6"	"600"	"1366"	"chrome"	"109.0.0"	"FALSE"	"Windows 10"	"60.56"	"024"	n/a	n/a	n/a	n/a	n/a	n/a	"Trial"	n/a	n/a	n/a	"811"	"arrowleft"	n/a	"NULL"	"NULL"	"NULL"	"stimuli/Ebbinghaus_0.87143_0.28000.png"	n/a	"Ebbinghaus"	"arrowleft"	"1028"	"TRUE"	"Ebbinghaus"	"0.8714300000"	"0.2800000000"	"2"	"15"
n/a	"html-keyboard-response"	"214"	"500085"	"0.0-6.0-2.0-0.15"	"01o4y6"	"600"	"1366"	"chrome"	"109.0.0"	"FALSE"	"Windows 10"	"60.56"	"024"	n/a	n/a	n/a	n/a	n/a	n/a	"fixation"	n/a	n/a	n/a	n/a	"NULL"	n/a	"NULL"	"NULL"	"NULL"	"<p style=\"color: black; font-size: 80px; padding-left: 14%; padding-right: 46%; padding-top: 4%; padding-bottom: 8%\">+</p>"	"1172"	n/a	n/a	n/a	n/a	n/a	n/a	n/a	n/a	n/a
n/a	"image-keyboard-response"	"215"	"500626"	"0.0-6.0-2.0-1.15"	"01o4y6"	"600"	"1366"	"chrome"	"109.0.0"	"FALSE"	"Windows 10"	"60.56"	"024"	n/a	n/a	n/a	n/a	n/a	n/a	"Trial"	n/a	n/a	n/a	"540"	"arrowright"	n/a	"NULL"	"NULL"	"NULL"	"stimuli/Ebbinghaus_0.61429_-0.15857.png"	n/a	"Ebbinghaus"	"arrowright"	"1182"	"TRUE"	"Ebbinghaus"	"0.6142900000"	"-0.158570000"	"2"	"16"
n/a	"html-keyboard-response"	"216"	"502053"	"0.0-6.0-2.0-0.16"	"01o4y6"	"600"	"1366"	"chrome"	"109.0.0"	"FALSE"	"Windows 10"	"60.56"	"024"	n/a	n/a	n/a	n/a	n/a	n/a	"fixation"	n/a	n/a	n/a	n/a	"NULL"	n/a	"NULL"	"NULL"	"NULL"	"<p style=\"color: black; font-size: 80px; padding-left: 34%; padding-right: 20%; padding-top: 41%; padding-bottom: 10%\">+</p>"	"1415"	n/a	n/a	n/a	n/a	n/a	n/a	n/a	n/a	n/a
n/a	"image-keyboard-response"	"217"	"502741"	"0.0-6.0-2.0-1.16"	"01o4y6"	"600"	"1366"	"chrome"	"109.0.0"	"FALSE"	"Windows 10"	"60.56"	"024"	n/a	n/a	n/a	n/a	n/a	n/a	"Trial"	n/a	n/a	n/a	"687"	"arrowright"	n/a	"NULL"	"NULL"	"NULL"	"stimuli/Ebbinghaus_0.87143_-0.2800.png"	n/a	"Ebbinghaus"	"arrowright"	"1427"	"TRUE"	"Ebbinghaus"	"0.8714300000"	"-0.280000000"	"2"	"17"
n/a	"html-keyboard-response"	"218"	"503812"	"0.0-6.0-2.0-0.17"	"01o4y6"	"600"	"1366"	"chrome"	"109.0.0"	"FALSE"	"Windows 10"	"60.56"	"024"	n/a	n/a	n/a	n/a	n/a	n/a	"fixation"	n/a	n/a	n/a	n/a	"NULL"	n/a	"NULL"	"NULL"	"NULL"	"<p style=\"color: black; font-size: 80px; padding-left: 33%; padding-right: 10%; padding-top: 45%; padding-bottom: 35%\">+</p>"	"1062"	n/a	n/a	n/a	n/a	n/a	n/a	n/a	n/a	n/a
n/a	"image-keyboard-response"	"219"	"504402"	"0.0-6.0-2.0-1.17"	"01o4y6"	"600"	"1366"	"chrome"	"109.0.0"	"FALSE"	"Windows 10"	"60.56"	"024"	n/a	n/a	n/a	n/a	n/a	n/a	"Trial"	n/a	n/a	n/a	"589"	"arrowright"	n/a	"NULL"	"NULL"	"NULL"	"stimuli/Ebbinghaus_0.35714_-0.2150.png"	n/a	"Ebbinghaus"	"arrowright"	"1071"	"TRUE"	"Ebbinghaus"	"0.3571400000"	"-0.215000000"	"2"	"18"
n/a	"html-keyboard-response"	"220"	"505527"	"0.0-6.0-2.0-0.18"	"01o4y6"	"600"	"1366"	"chrome"	"109.0.0"	"FALSE"	"Windows 10"	"60.56"	"024"	n/a	n/a	n/a	n/a	n/a	n/a	"fixation"	n/a	n/a	n/a	n/a	"NULL"	n/a	"NULL"	"NULL"	"NULL"	"<p style=\"color: black; font-size: 80px; padding-left: 32%; padding-right: 18%; padding-top: 7%; padding-bottom: 50%\">+</p>"	"1109"	n/a	n/a	n/a	n/a	n/a	n/a	n/a	n/a	n/a
n/a	"image-keyboard-response"	"221"	"506117"	"0.0-6.0-2.0-1.18"	"01o4y6"	"600"	"1366"	"chrome"	"109.0.0"	"FALSE"	"Windows 10"	"60.56"	"024"	n/a	n/a	n/a	n/a	n/a	n/a	"Trial"	n/a	n/a	n/a	"589"	"arrowright"	n/a	"NULL"	"NULL"	"NULL"	"stimuli/Ebbinghaus_0.61429_-0.11071.png"	n/a	"Ebbinghaus"	"arrowright"	"1125"	"TRUE"	"Ebbinghaus"	"0.6142900000"	"-0.110710000"	"2"	"19"
n/a	"html-keyboard-response"	"222"	"507509"	"0.0-6.0-2.0-0.19"	"01o4y6"	"600"	"1366"	"chrome"	"109.0.0"	"FALSE"	"Windows 10"	"60.56"	"024"	n/a	n/a	n/a	n/a	n/a	n/a	"fixation"	n/a	n/a	n/a	n/a	"NULL"	n/a	"NULL"	"NULL"	"NULL"	"<p style=\"color: black; font-size: 80px; padding-left: 11%; padding-right: 26%; padding-top: 22%; padding-bottom: 41%\">+</p>"	"1382"	n/a	n/a	n/a	n/a	n/a	n/a	n/a	n/a	n/a
n/a	"image-keyboard-response"	"223"	"508242"	"0.0-6.0-2.0-1.19"	"01o4y6"	"600"	"1366"	"chrome"	"109.0.0"	"FALSE"	"Windows 10"	"60.56"	"024"	n/a	n/a	n/a	n/a	n/a	n/a	"Trial"	n/a	n/a	n/a	"732"	"arrowleft"	n/a	"NULL"	"NULL"	"NULL"	"stimuli/Ebbinghaus_-0.1000_-0.2150.png"	n/a	"Ebbinghaus"	"arrowright"	"1392"	"FALSE"	"Ebbinghaus"	"-0.100000000"	"-0.215000000"	"2"	"20"
n/a	"html-keyboard-response"	"224"	"509530"	"0.0-6.0-2.0-0.20"	"01o4y6"	"600"	"1366"	"chrome"	"109.0.0"	"FALSE"	"Windows 10"	"60.56"	"024"	n/a	n/a	n/a	n/a	n/a	n/a	"fixation"	n/a	n/a	n/a	n/a	"NULL"	n/a	"NULL"	"NULL"	"NULL"	"<p style=\"color: black; font-size: 80px; padding-left: 38%; padding-right: 0%; padding-top: 41%; padding-bottom: 42%\">+</p>"	"1272"	n/a	n/a	n/a	n/a	n/a	n/a	n/a	n/a	n/a
n/a	"image-keyboard-response"	"225"	"510387"	"0.0-6.0-2.0-1.20"	"01o4y6"	"600"	"1366"	"chrome"	"109.0.0"	"FALSE"	"Windows 10"	"60.56"	"024"	n/a	n/a	n/a	n/a	n/a	n/a	"Trial"	n/a	n/a	n/a	"856"	"arrowleft"	n/a	"NULL"	"NULL"	"NULL"	"stimuli/Ebbinghaus_-0.61429_0.11071.png"	n/a	"Ebbinghaus"	"arrowleft"	"1288"	"TRUE"	"Ebbinghaus"	"-0.614290000"	"0.1107100000"	"2"	"21"
n/a	"html-keyboard-response"	"226"	"511685"	"0.0-6.0-2.0-0.21"	"01o4y6"	"600"	"1366"	"chrome"	"109.0.0"	"FALSE"	"Windows 10"	"60.56"	"024"	n/a	n/a	n/a	n/a	n/a	n/a	"fixation"	n/a	n/a	n/a	n/a	"NULL"	n/a	"NULL"	"NULL"	"NULL"	"<p style=\"color: black; font-size: 80px; padding-left: 22%; padding-right: 26%; padding-top: 18%; padding-bottom: 41%\">+</p>"	"1286"	n/a	n/a	n/a	n/a	n/a	n/a	n/a	n/a	n/a
n/a	"image-keyboard-response"	"227"	"512205"	"0.0-6.0-2.0-1.21"	"01o4y6"	"600"	"1366"	"chrome"	"109.0.0"	"FALSE"	"Windows 10"	"60.56"	"024"	n/a	n/a	n/a	n/a	n/a	n/a	"Trial"	n/a	n/a	n/a	"520"	"arrowleft"	n/a	"NULL"	"NULL"	"NULL"	"stimuli/Ebbinghaus_0.35714_0.21500.png"	n/a	"Ebbinghaus"	"arrowleft"	"1298"	"TRUE"	"Ebbinghaus"	"0.3571400000"	"0.2150000000"	"2"	"22"
n/a	"html-keyboard-response"	"228"	"513611"	"0.0-6.0-2.0-0.22"	"01o4y6"	"600"	"1366"	"chrome"	"109.0.0"	"FALSE"	"Windows 10"	"60.56"	"024"	n/a	n/a	n/a	n/a	n/a	n/a	"fixation"	n/a	n/a	n/a	n/a	"NULL"	n/a	"NULL"	"NULL"	"NULL"	"<p style=\"color: black; font-size: 80px; padding-left: 29%; padding-right: 49%; padding-top: 9%; padding-bottom: 21%\">+</p>"	"1392"	n/a	n/a	n/a	n/a	n/a	n/a	n/a	n/a	n/a
n/a	"image-keyboard-response"	"229"	"514276"	"0.0-6.0-2.0-1.22"	"01o4y6"	"600"	"1366"	"chrome"	"109.0.0"	"FALSE"	"Windows 10"	"60.56"	"024"	n/a	n/a	n/a	n/a	n/a	n/a	"Trial"	n/a	n/a	n/a	"663"	"arrowleft"	n/a	"NULL"	"NULL"	"NULL"	"stimuli/Ebbinghaus_-0.87143_0.11071.png"	n/a	"Ebbinghaus"	"arrowleft"	"1406"	"TRUE"	"Ebbinghaus"	"-0.871430000"	"0.1107100000"	"2"	"23"
n/a	"html-keyboard-response"	"230"	"515685"	"0.0-6.0-2.0-0.23"	"01o4y6"	"600"	"1366"	"chrome"	"109.0.0"	"FALSE"	"Windows 10"	"60.56"	"024"	n/a	n/a	n/a	n/a	n/a	n/a	"fixation"	n/a	n/a	n/a	n/a	"NULL"	n/a	"NULL"	"NULL"	"NULL"	"<p style=\"color: black; font-size: 80px; padding-left: 3%; padding-right: 5%; padding-top: 35%; padding-bottom: 48%\">+</p>"	"1397"	n/a	n/a	n/a	n/a	n/a	n/a	n/a	n/a	n/a
n/a	"image-keyboard-response"	"231"	"516277"	"0.0-6.0-2.0-1.23"	"01o4y6"	"600"	"1366"	"chrome"	"109.0.0"	"FALSE"	"Windows 10"	"60.56"	"024"	n/a	n/a	n/a	n/a	n/a	n/a	"Trial"	n/a	n/a	n/a	"590"	"arrowright"	n/a	"NULL"	"NULL"	"NULL"	"stimuli/Ebbinghaus_0.87143_-0.15857.png"	n/a	"Ebbinghaus"	"arrowright"	"1409"	"TRUE"	"Ebbinghaus"	"0.8714300000"	"-0.158570000"	"2"	"24"
n/a	"html-keyboard-response"	"232"	"517371"	"0.0-6.0-2.0-0.24"	"01o4y6"	"600"	"1366"	"chrome"	"109.0.0"	"FALSE"	"Windows 10"	"60.56"	"024"	n/a	n/a	n/a	n/a	n/a	n/a	"fixation"	n/a	n/a	n/a	n/a	"NULL"	n/a	"NULL"	"NULL"	"NULL"	"<p style=\"color: black; font-size: 80px; padding-left: 23%; padding-right: 49%; padding-top: 42%; padding-bottom: 38%\">+</p>"	"1085"	n/a	n/a	n/a	n/a	n/a	n/a	n/a	n/a	n/a
n/a	"image-keyboard-response"	"233"	"517866"	"0.0-6.0-2.0-1.24"	"01o4y6"	"600"	"1366"	"chrome"	"109.0.0"	"FALSE"	"Windows 10"	"60.56"	"024"	n/a	n/a	n/a	n/a	n/a	n/a	"Trial"	n/a	n/a	n/a	"494"	"arrowleft"	n/a	"NULL"	"NULL"	"NULL"	"stimuli/Ebbinghaus_0.61429_0.11071.png"	n/a	"Ebbinghaus"	"arrowleft"	"1094"	"TRUE"	"Ebbinghaus"	"0.6142900000"	"0.1107100000"	"2"	"25"
n/a	"html-keyboard-response"	"234"	"519026"	"0.0-6.0-2.0-0.25"	"01o4y6"	"600"	"1366"	"chrome"	"109.0.0"	"FALSE"	"Windows 10"	"60.56"	"024"	n/a	n/a	n/a	n/a	n/a	n/a	"fixation"	n/a	n/a	n/a	n/a	"NULL"	n/a	"NULL"	"NULL"	"NULL"	"<p style=\"color: black; font-size: 80px; padding-left: 26%; padding-right: 15%; padding-top: 43%; padding-bottom: 39%\">+</p>"	"1146"	n/a	n/a	n/a	n/a	n/a	n/a	n/a	n/a	n/a
n/a	"image-keyboard-response"	"235"	"519578"	"0.0-6.0-2.0-1.25"	"01o4y6"	"600"	"1366"	"chrome"	"109.0.0"	"FALSE"	"Windows 10"	"60.56"	"024"	n/a	n/a	n/a	n/a	n/a	n/a	"Trial"	n/a	n/a	n/a	"548"	"arrowright"	n/a	"NULL"	"NULL"	"NULL"	"stimuli/Ebbinghaus_0.61429_-0.2150.png"	n/a	"Ebbinghaus"	"arrowright"	"1160"	"TRUE"	"Ebbinghaus"	"0.6142900000"	"-0.215000000"	"2"	"26"
n/a	"html-keyboard-response"	"236"	"520704"	"0.0-6.0-2.0-0.26"	"01o4y6"	"600"	"1366"	"chrome"	"109.0.0"	"FALSE"	"Windows 10"	"60.56"	"024"	n/a	n/a	n/a	n/a	n/a	n/a	"fixation"	n/a	n/a	n/a	n/a	"NULL"	n/a	"NULL"	"NULL"	"NULL"	"<p style=\"color: black; font-size: 80px; padding-left: 28%; padding-right: 34%; padding-top: 31%; padding-bottom: 11%\">+</p>"	"1110"	n/a	n/a	n/a	n/a	n/a	n/a	n/a	n/a	n/a
n/a	"image-keyboard-response"	"237"	"521276"	"0.0-6.0-2.0-1.26"	"01o4y6"	"600"	"1366"	"chrome"	"109.0.0"	"FALSE"	"Windows 10"	"60.56"	"024"	n/a	n/a	n/a	n/a	n/a	n/a	"Trial"	n/a	n/a	n/a	"570"	"arrowleft"	n/a	"NULL"	"NULL"	"NULL"	"stimuli/Ebbinghaus_0.61429_0.21500.png"	n/a	"Ebbinghaus"	"arrowleft"	"1126"	"TRUE"	"Ebbinghaus"	"0.6142900000"	"0.2150000000"	"2"	"27"
n/a	"html-keyboard-response"	"238"	"522389"	"0.0-6.0-2.0-0.27"	"01o4y6"	"600"	"1366"	"chrome"	"109.0.0"	"FALSE"	"Windows 10"	"60.56"	"024"	n/a	n/a	n/a	n/a	n/a	n/a	"fixation"	n/a	n/a	n/a	n/a	"NULL"	n/a	"NULL"	"NULL"	"NULL"	"<p style=\"color: black; font-size: 80px; padding-left: 29%; padding-right: 48%; padding-top: 25%; padding-bottom: 15%\">+</p>"	"1104"	n/a	n/a	n/a	n/a	n/a	n/a	n/a	n/a	n/a
n/a	"image-keyboard-response"	"239"	"522994"	"0.0-6.0-2.0-1.27"	"01o4y6"	"600"	"1366"	"chrome"	"109.0.0"	"FALSE"	"Windows 10"	"60.56"	"024"	n/a	n/a	n/a	n/a	n/a	n/a	"Trial"	n/a	n/a	n/a	"604"	"arrowleft"	n/a	"NULL"	"NULL"	"NULL"	"stimuli/Ebbinghaus_0.35714_0.28000.png"	n/a	"Ebbinghaus"	"arrowleft"	"1113"	"TRUE"	"Ebbinghaus"	"0.3571400000"	"0.2800000000"	"2"	"28"
n/a	"html-keyboard-response"	"240"	"524109"	"0.0-6.0-2.0-0.28"	"01o4y6"	"600"	"1366"	"chrome"	"109.0.0"	"FALSE"	"Windows 10"	"60.56"	"024"	n/a	n/a	n/a	n/a	n/a	n/a	"fixation"	n/a	n/a	n/a	n/a	"NULL"	n/a	"NULL"	"NULL"	"NULL"	"<p style=\"color: black; font-size: 80px; padding-left: 11%; padding-right: 49%; padding-top: 16%; padding-bottom: 29%\">+</p>"	"1100"	n/a	n/a	n/a	n/a	n/a	n/a	n/a	n/a	n/a
n/a	"image-keyboard-response"	"241"	"524779"	"0.0-6.0-2.0-1.28"	"01o4y6"	"600"	"1366"	"chrome"	"109.0.0"	"FALSE"	"Windows 10"	"60.56"	"024"	n/a	n/a	n/a	n/a	n/a	n/a	"Trial"	n/a	n/a	n/a	"669"	"arrowright"	n/a	"NULL"	"NULL"	"NULL"	"stimuli/Ebbinghaus_-0.61429_-0.2150.png"	n/a	"Ebbinghaus"	"arrowright"	"1115"	"TRUE"	"Ebbinghaus"	"-0.614290000"	"-0.215000000"	"2"	"29"
n/a	"html-keyboard-response"	"242"	"526120"	"0.0-6.0-2.0-0.29"	"01o4y6"	"600"	"1366"	"chrome"	"109.0.0"	"FALSE"	"Windows 10"	"60.56"	"024"	n/a	n/a	n/a	n/a	n/a	n/a	"fixation"	n/a	n/a	n/a	n/a	"NULL"	n/a	"NULL"	"NULL"	"NULL"	"<p style=\"color: black; font-size: 80px; padding-left: 38%; padding-right: 13%; padding-top: 22%; padding-bottom: 42%\">+</p>"	"1333"	n/a	n/a	n/a	n/a	n/a	n/a	n/a	n/a	n/a
n/a	"image-keyboard-response"	"243"	"526690"	"0.0-6.0-2.0-1.29"	"01o4y6"	"600"	"1366"	"chrome"	"109.0.0"	"FALSE"	"Windows 10"	"60.56"	"024"	n/a	n/a	n/a	n/a	n/a	n/a	"Trial"	n/a	n/a	n/a	"569"	"arrowleft"	n/a	"NULL"	"NULL"	"NULL"	"stimuli/Ebbinghaus_-0.87143_0.15857.png"	n/a	"Ebbinghaus"	"arrowleft"	"1341"	"TRUE"	"Ebbinghaus"	"-0.871430000"	"0.1585700000"	"2"	"30"
n/a	"html-keyboard-response"	"244"	"528135"	"0.0-6.0-2.0-0.30"	"01o4y6"	"600"	"1366"	"chrome"	"109.0.0"	"FALSE"	"Windows 10"	"60.56"	"024"	n/a	n/a	n/a	n/a	n/a	n/a	"fixation"	n/a	n/a	n/a	n/a	"NULL"	n/a	"NULL"	"NULL"	"NULL"	"<p style=\"color: black; font-size: 80px; padding-left: 27%; padding-right: 40%; padding-top: 29%; padding-bottom: 15%\">+</p>"	"1428"	n/a	n/a	n/a	n/a	n/a	n/a	n/a	n/a	n/a
n/a	"image-keyboard-response"	"245"	"528676"	"0.0-6.0-2.0-1.30"	"01o4y6"	"600"	"1366"	"chrome"	"109.0.0"	"FALSE"	"Windows 10"	"60.56"	"024"	n/a	n/a	n/a	n/a	n/a	n/a	"Trial"	n/a	n/a	n/a	"540"	"arrowleft"	n/a	"NULL"	"NULL"	"NULL"	"stimuli/Ebbinghaus_-0.1000_0.15857.png"	n/a	"Ebbinghaus"	"arrowleft"	"1445"	"TRUE"	"Ebbinghaus"	"-0.100000000"	"0.1585700000"	"2"	"31"
n/a	"html-keyboard-response"	"246"	"530108"	"0.0-6.0-2.0-0.31"	"01o4y6"	"600"	"1366"	"chrome"	"109.0.0"	"FALSE"	"Windows 10"	"60.56"	"024"	n/a	n/a	n/a	n/a	n/a	n/a	"fixation"	n/a	n/a	n/a	n/a	"NULL"	n/a	"NULL"	"NULL"	"NULL"	"<p style=\"color: black; font-size: 80px; padding-left: 19%; padding-right: 31%; padding-top: 37%; padding-bottom: 15%\">+</p>"	"1419"	n/a	n/a	n/a	n/a	n/a	n/a	n/a	n/a	n/a
n/a	"image-keyboard-response"	"247"	"530592"	"0.0-6.0-2.0-1.31"	"01o4y6"	"600"	"1366"	"chrome"	"109.0.0"	"FALSE"	"Windows 10"	"60.56"	"024"	n/a	n/a	n/a	n/a	n/a	n/a	"Trial"	n/a	n/a	n/a	"483"	"arrowleft"	n/a	"NULL"	"NULL"	"NULL"	"stimuli/Ebbinghaus_-0.35714_0.15857.png"	n/a	"Ebbinghaus"	"arrowleft"	"1432"	"TRUE"	"Ebbinghaus"	"-0.357140000"	"0.1585700000"	"2"	"32"
n/a	"html-keyboard-response"	"248"	"531628"	"0.0-6.0-2.0-0.32"	"01o4y6"	"600"	"1366"	"chrome"	"109.0.0"	"FALSE"	"Windows 10"	"60.56"	"024"	n/a	n/a	n/a	n/a	n/a	n/a	"fixation"	n/a	n/a	n/a	n/a	"NULL"	n/a	"NULL"	"NULL"	"NULL"	"<p style=\"color: black; font-size: 80px; padding-left: 2%; padding-right: 15%; padding-top: 0%; padding-bottom: 30%\">+</p>"	"1023"	n/a	n/a	n/a	n/a	n/a	n/a	n/a	n/a	n/a
