"success"	"trial_type"	"trial_index"	"time_elapsed"	"internal_node_id"	"participant_id"	"screen_height"	"screen_width"	"browser"	"browser_version"	"mobile"	"os"	"vsync_rate"	"subject_id"	"width"	"height"	"webaudio"	"fullscreen"	"webcam"	"microphone"	"screen"	"version"	"date"	"time"	"rt"	"response"	"timeout"	"failed_images"	"failed_audio"	"failed_video"	"stimulus"	"trial_duration"	"block"	"correct_response"	"prestimulus_duration"	"correct"	"type"	"illusion_strength"	"illusion_difference"	"block_number"	"trial_number"
"TRUE"	"fullscreen"	"0"	"6632227"	"0.0-0.0"	"z7pjh0"	"563"	"1199"	"chrome"	"110.0.0"	"FALSE"	"Windows 10"	"60.44"	"036"	n/a	n/a	n/a	n/a	n/a	n/a	n/a	n/a	n/a	n/a	n/a	"NULL"	n/a	"NULL"	"NULL"	"NULL"	n/a	n/a	n/a	n/a	n/a	n/a	n/a	n/a	n/a	n/a	n/a
n/a	"browser-check"	"1"	"6633234"	"0.0-1.0"	"z7pjh0"	"563"	"1199"	"chrome"	"110.0.0"	"FALSE"	"Windows 10"	"60.44"	"036"	"1199"	"563"	"TRUE"	"TRUE"	"TRUE"	"TRUE"	"browser_info"	"1.0"	"06/03/2023"	"08:50:10"	n/a	"NULL"	n/a	"NULL"	"NULL"	"NULL"	n/a	n/a	n/a	n/a	n/a	n/a	n/a	n/a	n/a	n/a	n/a
n/a	"survey-text"	"2"	"6637338"	"0.0-2.0"	"z7pjh0"	"563"	"1199"	"chrome"	"110.0.0"	"FALSE"	"Windows 10"	"60.44"	"036"	n/a	n/a	n/a	n/a	n/a	n/a	"subject_id"	n/a	n/a	n/a	"4102"	"list(subject_id = \"036\")"	n/a	"NULL"	"NULL"	"NULL"	n/a	n/a	n/a	n/a	n/a	n/a	n/a	n/a	n/a	n/a	n/a
"TRUE"	"preload"	"3"	"6637348"	"0.0-3.0"	"z7pjh0"	"563"	"1199"	"chrome"	"110.0.0"	"FALSE"	"Windows 10"	"60.44"	"036"	n/a	n/a	n/a	n/a	n/a	n/a	n/a	n/a	n/a	n/a	n/a	"NULL"	"FALSE"	"list()"	"list()"	"list()"	n/a	n/a	n/a	n/a	n/a	n/a	n/a	n/a	n/a	n/a	n/a
n/a	"html-button-response"	"4"	"6677650"	"0.0-4.0-0.0"	"z7pjh0"	"563"	"1199"	"chrome"	"110.0.0"	"FALSE"	"Windows 10"	"60.44"	"036"	n/a	n/a	n/a	n/a	n/a	n/a	"illusion_instructions"	n/a	n/a	n/a	"40301"	"0"	n/a	"NULL"	"NULL"	"NULL"	"<p><b>Illusion Game</b></p><p>In this game of speed and reflex, you will need to make <b>visual judgments</b> (for instance, which circle is the biggest, or which line is the longest), as fast and as correctly as possible, while <b>resisting different visual illusions</b>.</p><p>We are going to start with some examples of all the illusions you will encounter in the game.</p>"	n/a	n/a	n/a	n/a	n/a	n/a	n/a	n/a	n/a	n/a
"TRUE"	"preload"	"5"	"6677664"	"0.0-4.0-1.0-0.0"	"z7pjh0"	"563"	"1199"	"chrome"	"110.0.0"	"FALSE"	"Windows 10"	"60.44"	"036"	n/a	n/a	n/a	n/a	n/a	n/a	n/a	n/a	n/a	n/a	n/a	"NULL"	"FALSE"	"list()"	"list()"	"list()"	n/a	n/a	n/a	n/a	n/a	n/a	n/a	n/a	n/a	n/a	n/a
n/a	"html-keyboard-response"	"6"	"6707776"	"0.0-4.0-1.0-1.0"	"z7pjh0"	"563"	"1199"	"chrome"	"110.0.0"	"FALSE"	"Windows 10"	"60.44"	"036"	n/a	n/a	n/a	n/a	n/a	n/a	n/a	n/a	n/a	n/a	"30111"	"enter"	n/a	"NULL"	"NULL"	"NULL"	"<p><b>Practice</b></p><p>In this part, two red circles will appear side by side on the screen.</p><p>Your task is to select which <b>red circle is bigger</b> in size as fast as you can, without making errors.</p><p>Don't get distracted by the surrounding black circles around the red circles!</p><p>Press <b>the LEFT or the RIGHT arrow</b> to indicate which is the bigger <b>red circle.</b></p><div style='float: center'><img src='materials/instructions/Ebbinghaus_Demo.png' height='300'></img><p><img src='utils/answer/answer_leftright_keyboard.PNG' height='150'></img></p><p class='small'>In this example, the correct answer is the <b>LEFT arrow</b>.</p></div><p>Are you ready? <b>Press ENTER to start</b></p>"	n/a	n/a	n/a	n/a	n/a	n/a	n/a	n/a	n/a	n/a
n/a	"html-keyboard-response"	"7"	"6709779"	"0.0-4.0-1.0-2.0-0.0"	"z7pjh0"	"563"	"1199"	"chrome"	"110.0.0"	"FALSE"	"Windows 10"	"60.44"	"036"	n/a	n/a	n/a	n/a	n/a	n/a	"fixation"	n/a	n/a	n/a	n/a	"NULL"	n/a	"NULL"	"NULL"	"NULL"	"<p style=\"color: black; font-size: 80px; padding-left: 29%; padding-right: 34%; padding-top: 14%; padding-bottom: 3%\">+</p>"	"1483"	n/a	n/a	n/a	n/a	n/a	n/a	n/a	n/a	n/a
n/a	"image-keyboard-response"	"8"	"6710608"	"0.0-4.0-1.0-2.0-1.0"	"z7pjh0"	"563"	"1199"	"chrome"	"110.0.0"	"FALSE"	"Windows 10"	"60.44"	"036"	n/a	n/a	n/a	n/a	n/a	n/a	"Trial"	n/a	n/a	n/a	"829"	"arrowleft"	n/a	"NULL"	"NULL"	"NULL"	"stimuli/Ebbinghaus_-100000_1.40000.png"	n/a	"Ebbinghaus"	"arrowleft"	"2003"	"TRUE"	"Ebbinghaus"	"-10000000000"	"1.4000000000"	"1"	"1"
n/a	"html-keyboard-response"	"9"	"6711787"	"0.0-4.0-1.0-2.0-0.1"	"z7pjh0"	"563"	"1199"	"chrome"	"110.0.0"	"FALSE"	"Windows 10"	"60.44"	"036"	n/a	n/a	n/a	n/a	n/a	n/a	"fixation"	n/a	n/a	n/a	n/a	"NULL"	n/a	"NULL"	"NULL"	"NULL"	"<p style=\"color: black; font-size: 80px; padding-left: 45%; padding-right: 39%; padding-top: 40%; padding-bottom: 48%\">+</p>"	"1177"	n/a	n/a	n/a	n/a	n/a	n/a	n/a	n/a	n/a
n/a	"image-keyboard-response"	"10"	"6712667"	"0.0-4.0-1.0-2.0-1.1"	"z7pjh0"	"563"	"1199"	"chrome"	"110.0.0"	"FALSE"	"Windows 10"	"60.44"	"036"	n/a	n/a	n/a	n/a	n/a	n/a	"Trial"	n/a	n/a	n/a	"880"	"arrowleft"	n/a	"NULL"	"NULL"	"NULL"	"stimuli/Ebbinghaus_0000000_1.40000.png"	n/a	"Ebbinghaus"	"arrowleft"	"1179"	"TRUE"	"Ebbinghaus"	"000000000000"	"1.4000000000"	"1"	"2"
n/a	"html-keyboard-response"	"11"	"6714059"	"0.0-4.0-1.0-2.0-0.2"	"z7pjh0"	"563"	"1199"	"chrome"	"110.0.0"	"FALSE"	"Windows 10"	"60.44"	"036"	n/a	n/a	n/a	n/a	n/a	n/a	"fixation"	n/a	n/a	n/a	n/a	"NULL"	n/a	"NULL"	"NULL"	"NULL"	"<p style=\"color: black; font-size: 80px; padding-left: 6%; padding-right: 26%; padding-top: 15%; padding-bottom: 4%\">+</p>"	"1376"	n/a	n/a	n/a	n/a	n/a	n/a	n/a	n/a	n/a
n/a	"image-keyboard-response"	"12"	"6714783"	"0.0-4.0-1.0-2.0-1.2"	"z7pjh0"	"563"	"1199"	"chrome"	"110.0.0"	"FALSE"	"Windows 10"	"60.44"	"036"	n/a	n/a	n/a	n/a	n/a	n/a	"Trial"	n/a	n/a	n/a	"723"	"arrowright"	n/a	"NULL"	"NULL"	"NULL"	"stimuli/Ebbinghaus_0000000_-1.4000.png"	n/a	"Ebbinghaus"	"arrowright"	"1392"	"TRUE"	"Ebbinghaus"	"000000000000"	"-1.400000000"	"1"	"3"
n/a	"html-keyboard-response"	"13"	"6716283"	"0.0-4.0-1.0-2.0-0.3"	"z7pjh0"	"563"	"1199"	"chrome"	"110.0.0"	"FALSE"	"Windows 10"	"60.44"	"036"	n/a	n/a	n/a	n/a	n/a	n/a	"fixation"	n/a	n/a	n/a	n/a	"NULL"	n/a	"NULL"	"NULL"	"NULL"	"<p style=\"color: black; font-size: 80px; padding-left: 32%; padding-right: 38%; padding-top: 22%; padding-bottom: 6%\">+</p>"	"1489"	n/a	n/a	n/a	n/a	n/a	n/a	n/a	n/a	n/a
n/a	"image-keyboard-response"	"14"	"6716904"	"0.0-4.0-1.0-2.0-1.3"	"z7pjh0"	"563"	"1199"	"chrome"	"110.0.0"	"FALSE"	"Windows 10"	"60.44"	"036"	n/a	n/a	n/a	n/a	n/a	n/a	"Trial"	n/a	n/a	n/a	"620"	"arrowleft"	n/a	"NULL"	"NULL"	"NULL"	"stimuli/Ebbinghaus_1000000_1.40000.png"	n/a	"Ebbinghaus"	"arrowleft"	"1500"	"TRUE"	"Ebbinghaus"	"100000000000"	"1.4000000000"	"1"	"4"
n/a	"html-keyboard-response"	"15"	"6718244"	"0.0-4.0-1.0-2.0-0.4"	"z7pjh0"	"563"	"1199"	"chrome"	"110.0.0"	"FALSE"	"Windows 10"	"60.44"	"036"	n/a	n/a	n/a	n/a	n/a	n/a	"fixation"	n/a	n/a	n/a	n/a	"NULL"	n/a	"NULL"	"NULL"	"NULL"	"<p style=\"color: black; font-size: 80px; padding-left: 28%; padding-right: 36%; padding-top: 10%; padding-bottom: 28%\">+</p>"	"1329"	n/a	n/a	n/a	n/a	n/a	n/a	n/a	n/a	n/a
n/a	"image-keyboard-response"	"16"	"6718916"	"0.0-4.0-1.0-2.0-1.4"	"z7pjh0"	"563"	"1199"	"chrome"	"110.0.0"	"FALSE"	"Windows 10"	"60.44"	"036"	n/a	n/a	n/a	n/a	n/a	n/a	"Trial"	n/a	n/a	n/a	"671"	"arrowright"	n/a	"NULL"	"NULL"	"NULL"	"stimuli/Ebbinghaus_1000000_-1.4000.png"	n/a	"Ebbinghaus"	"arrowright"	"1340"	"TRUE"	"Ebbinghaus"	"100000000000"	"-1.400000000"	"1"	"5"
n/a	"html-keyboard-response"	"17"	"6720023"	"0.0-4.0-1.0-2.0-0.5"	"z7pjh0"	"563"	"1199"	"chrome"	"110.0.0"	"FALSE"	"Windows 10"	"60.44"	"036"	n/a	n/a	n/a	n/a	n/a	n/a	"fixation"	n/a	n/a	n/a	n/a	"NULL"	n/a	"NULL"	"NULL"	"NULL"	"<p style=\"color: black; font-size: 80px; padding-left: 12%; padding-right: 49%; padding-top: 40%; padding-bottom: 41%\">+</p>"	"1105"	n/a	n/a	n/a	n/a	n/a	n/a	n/a	n/a	n/a
n/a	"image-keyboard-response"	"18"	"6720707"	"0.0-4.0-1.0-2.0-1.5"	"z7pjh0"	"563"	"1199"	"chrome"	"110.0.0"	"FALSE"	"Windows 10"	"60.44"	"036"	n/a	n/a	n/a	n/a	n/a	n/a	"Trial"	n/a	n/a	n/a	"683"	"arrowright"	n/a	"NULL"	"NULL"	"NULL"	"stimuli/Ebbinghaus_-100000_-1.4000.png"	n/a	"Ebbinghaus"	"arrowright"	"1107"	"TRUE"	"Ebbinghaus"	"-10000000000"	"-1.400000000"	"1"	"6"
n/a	"html-button-response"	"19"	"6726042"	"0.0-4.0-1.0-3.0"	"z7pjh0"	"563"	"1199"	"chrome"	"110.0.0"	"FALSE"	"Windows 10"	"60.44"	"036"	n/a	n/a	n/a	n/a	n/a	n/a	"practice_block_results"	n/a	n/a	n/a	"5334"	"0"	n/a	"NULL"	"NULL"	"NULL"	"<p style='color:rgb(76,175,80);'> Correct Responses: <b>100.00%</b></p><hr><p style='color:rgb(233,30,99);'> Average Response Time: <b>734.33</b> ms.</p>"	n/a	n/a	n/a	n/a	n/a	n/a	n/a	n/a	n/a	n/a
"TRUE"	"preload"	"20"	"6726565"	"0.0-4.0-2.0-0.0"	"z7pjh0"	"563"	"1199"	"chrome"	"110.0.0"	"FALSE"	"Windows 10"	"60.44"	"036"	n/a	n/a	n/a	n/a	n/a	n/a	n/a	n/a	n/a	n/a	n/a	"NULL"	"FALSE"	"list()"	"list()"	"list()"	n/a	n/a	n/a	n/a	n/a	n/a	n/a	n/a	n/a	n/a	n/a
n/a	"html-keyboard-response"	"21"	"6746161"	"0.0-4.0-2.0-1.0"	"z7pjh0"	"563"	"1199"	"chrome"	"110.0.0"	"FALSE"	"Windows 10"	"60.44"	"036"	n/a	n/a	n/a	n/a	n/a	n/a	n/a	n/a	n/a	n/a	"19595"	"enter"	n/a	"NULL"	"NULL"	"NULL"	"<p><b>Practice</b></p><p>In this part, two horizontal red lines will appear one above the other.</p><p>Your task is to select which <b>line is longer</b> in length as fast as you can, without making errors.</p><p>Don't get distracted by the surrounding black arrows at the end of the red lines!</p><p>Press <b>the UP or the DOWN arrow</b> to indicate where is the longer <b>red line.</b></p><div style='float: center'><img src='materials/instructions/MullerLyer_Demo.png' height='300'></img><p><img src='utils/answer/answer_updown_keyboard.PNG' height='150'></img></p><p class='small'>In this example, the correct answer is the <b>UP arrow</b>.</p></div><p>Are you ready? <b>Press ENTER to start</b></p>"	n/a	n/a	n/a	n/a	n/a	n/a	n/a	n/a	n/a	n/a
n/a	"html-keyboard-response"	"22"	"6747758"	"0.0-4.0-2.0-2.0-0.0"	"z7pjh0"	"563"	"1199"	"chrome"	"110.0.0"	"FALSE"	"Windows 10"	"60.44"	"036"	n/a	n/a	n/a	n/a	n/a	n/a	"fixation"	n/a	n/a	n/a	n/a	"NULL"	n/a	"NULL"	"NULL"	"NULL"	"<p style=\"color: black; font-size: 80px; padding-left: 39%; padding-right: 14%; padding-top: 32%; padding-bottom: 37%\">+</p>"	"1068"	n/a	n/a	n/a	n/a	n/a	n/a	n/a	n/a	n/a
n/a	"image-keyboard-response"	"23"	"6748583"	"0.0-4.0-2.0-2.0-1.0"	"z7pjh0"	"563"	"1199"	"chrome"	"110.0.0"	"FALSE"	"Windows 10"	"60.44"	"036"	n/a	n/a	n/a	n/a	n/a	n/a	"Trial"	n/a	n/a	n/a	"824"	"arrowdown"	n/a	"NULL"	"NULL"	"NULL"	"stimuli/MullerLyer_0000000_-0.7000.png"	n/a	"MullerLyer"	"arrowdown"	"1597"	"TRUE"	"MullerLyer"	"000000000000"	"-0.700000000"	"1"	"7"
n/a	"html-keyboard-response"	"24"	"6749922"	"0.0-4.0-2.0-2.0-0.1"	"z7pjh0"	"563"	"1199"	"chrome"	"110.0.0"	"FALSE"	"Windows 10"	"60.44"	"036"	n/a	n/a	n/a	n/a	n/a	n/a	"fixation"	n/a	n/a	n/a	n/a	"NULL"	n/a	"NULL"	"NULL"	"NULL"	"<p style=\"color: black; font-size: 80px; padding-left: 23%; padding-right: 23%; padding-top: 10%; padding-bottom: 38%\">+</p>"	"1330"	n/a	n/a	n/a	n/a	n/a	n/a	n/a	n/a	n/a
n/a	"image-keyboard-response"	"25"	"6751067"	"0.0-4.0-2.0-2.0-1.1"	"z7pjh0"	"563"	"1199"	"chrome"	"110.0.0"	"FALSE"	"Windows 10"	"60.44"	"036"	n/a	n/a	n/a	n/a	n/a	n/a	"Trial"	n/a	n/a	n/a	"1144"	"arrowdown"	n/a	"NULL"	"NULL"	"NULL"	"stimuli/MullerLyer_2300000_-0.7000.png"	n/a	"MullerLyer"	"arrowdown"	"1339"	"TRUE"	"MullerLyer"	"230000000000"	"-0.700000000"	"1"	"8"
n/a	"html-keyboard-response"	"26"	"6752301"	"0.0-4.0-2.0-2.0-0.2"	"z7pjh0"	"563"	"1199"	"chrome"	"110.0.0"	"FALSE"	"Windows 10"	"60.44"	"036"	n/a	n/a	n/a	n/a	n/a	n/a	"fixation"	n/a	n/a	n/a	n/a	"NULL"	n/a	"NULL"	"NULL"	"NULL"	"<p style=\"color: black; font-size: 80px; padding-left: 44%; padding-right: 2%; padding-top: 27%; padding-bottom: 36%\">+</p>"	"1227"	n/a	n/a	n/a	n/a	n/a	n/a	n/a	n/a	n/a
n/a	"image-keyboard-response"	"27"	"6753123"	"0.0-4.0-2.0-2.0-1.2"	"z7pjh0"	"563"	"1199"	"chrome"	"110.0.0"	"FALSE"	"Windows 10"	"60.44"	"036"	n/a	n/a	n/a	n/a	n/a	n/a	"Trial"	n/a	n/a	n/a	"821"	"arrowup"	n/a	"NULL"	"NULL"	"NULL"	"stimuli/MullerLyer_0000000_0.70000.png"	n/a	"MullerLyer"	"arrowup"	"1234"	"TRUE"	"MullerLyer"	"000000000000"	"0.7000000000"	"1"	"9"
n/a	"html-keyboard-response"	"28"	"6754137"	"0.0-4.0-2.0-2.0-0.3"	"z7pjh0"	"563"	"1199"	"chrome"	"110.0.0"	"FALSE"	"Windows 10"	"60.44"	"036"	n/a	n/a	n/a	n/a	n/a	n/a	"fixation"	n/a	n/a	n/a	n/a	"NULL"	n/a	"NULL"	"NULL"	"NULL"	"<p style=\"color: black; font-size: 80px; padding-left: 24%; padding-right: 29%; padding-top: 45%; padding-bottom: 33%\">+</p>"	"1007"	n/a	n/a	n/a	n/a	n/a	n/a	n/a	n/a	n/a
n/a	"image-keyboard-response"	"29"	"6754956"	"0.0-4.0-2.0-2.0-1.3"	"z7pjh0"	"563"	"1199"	"chrome"	"110.0.0"	"FALSE"	"Windows 10"	"60.44"	"036"	n/a	n/a	n/a	n/a	n/a	n/a	"Trial"	n/a	n/a	n/a	"819"	"arrowdown"	n/a	"NULL"	"NULL"	"NULL"	"stimuli/MullerLyer_-230000_-0.7000.png"	n/a	"MullerLyer"	"arrowdown"	"1014"	"TRUE"	"MullerLyer"	"-23000000000"	"-0.700000000"	"1"	"10"
n/a	"html-keyboard-response"	"30"	"6756302"	"0.0-4.0-2.0-2.0-0.4"	"z7pjh0"	"563"	"1199"	"chrome"	"110.0.0"	"FALSE"	"Windows 10"	"60.44"	"036"	n/a	n/a	n/a	n/a	n/a	n/a	"fixation"	n/a	n/a	n/a	n/a	"NULL"	n/a	"NULL"	"NULL"	"NULL"	"<p style=\"color: black; font-size: 80px; padding-left: 12%; padding-right: 32%; padding-top: 19%; padding-bottom: 1%\">+</p>"	"1345"	n/a	n/a	n/a	n/a	n/a	n/a	n/a	n/a	n/a
n/a	"image-keyboard-response"	"31"	"6757245"	"0.0-4.0-2.0-2.0-1.4"	"z7pjh0"	"563"	"1199"	"chrome"	"110.0.0"	"FALSE"	"Windows 10"	"60.44"	"036"	n/a	n/a	n/a	n/a	n/a	n/a	"Trial"	n/a	n/a	n/a	"942"	"arrowup"	n/a	"NULL"	"NULL"	"NULL"	"stimuli/MullerLyer_2300000_0.70000.png"	n/a	"MullerLyer"	"arrowup"	"1346"	"TRUE"	"MullerLyer"	"230000000000"	"0.7000000000"	"1"	"11"
n/a	"html-keyboard-response"	"32"	"6758614"	"0.0-4.0-2.0-2.0-0.5"	"z7pjh0"	"563"	"1199"	"chrome"	"110.0.0"	"FALSE"	"Windows 10"	"60.44"	"036"	n/a	n/a	n/a	n/a	n/a	n/a	"fixation"	n/a	n/a	n/a	n/a	"NULL"	n/a	"NULL"	"NULL"	"NULL"	"<p style=\"color: black; font-size: 80px; padding-left: 4%; padding-right: 18%; padding-top: 22%; padding-bottom: 13%\">+</p>"	"1356"	n/a	n/a	n/a	n/a	n/a	n/a	n/a	n/a	n/a
n/a	"image-keyboard-response"	"33"	"6759652"	"0.0-4.0-2.0-2.0-1.5"	"z7pjh0"	"563"	"1199"	"chrome"	"110.0.0"	"FALSE"	"Windows 10"	"60.44"	"036"	n/a	n/a	n/a	n/a	n/a	n/a	"Trial"	n/a	n/a	n/a	"1037"	"arrowup"	n/a	"NULL"	"NULL"	"NULL"	"stimuli/MullerLyer_-230000_0.70000.png"	n/a	"MullerLyer"	"arrowup"	"1369"	"TRUE"	"MullerLyer"	"-23000000000"	"0.7000000000"	"1"	"12"
n/a	"html-button-response"	"34"	"6766122"	"0.0-4.0-2.0-3.0"	"z7pjh0"	"563"	"1199"	"chrome"	"110.0.0"	"FALSE"	"Windows 10"	"60.44"	"036"	n/a	n/a	n/a	n/a	n/a	n/a	"practice_block_results"	n/a	n/a	n/a	"6470"	"0"	n/a	"NULL"	"NULL"	"NULL"	"<p style='color:rgb(76,175,80);'> Correct Responses: <b>100.00%</b></p><hr><p style='color:rgb(233,30,99);'> Average Response Time: <b>931.17</b> ms.</p>"	n/a	n/a	n/a	n/a	n/a	n/a	n/a	n/a	n/a	n/a
"TRUE"	"preload"	"35"	"6766636"	"0.0-4.0-3.0-0.0"	"z7pjh0"	"563"	"1199"	"chrome"	"110.0.0"	"FALSE"	"Windows 10"	"60.44"	"036"	n/a	n/a	n/a	n/a	n/a	n/a	n/a	n/a	n/a	n/a	n/a	"NULL"	"FALSE"	"list()"	"list()"	"list()"	n/a	n/a	n/a	n/a	n/a	n/a	n/a	n/a	n/a	n/a	n/a
n/a	"html-keyboard-response"	"36"	"6784531"	"0.0-4.0-3.0-1.0"	"z7pjh0"	"563"	"1199"	"chrome"	"110.0.0"	"FALSE"	"Windows 10"	"60.44"	"036"	n/a	n/a	n/a	n/a	n/a	n/a	n/a	n/a	n/a	n/a	"17894"	"enter"	n/a	"NULL"	"NULL"	"NULL"	"<p><b>Practice</b></p><p>In this part, two red lines will appear side by side.</p><p>Your task is to tell <b>which line is longer</b> in length, regardless of their orientation, as fast as you can, and without making errors.</p><p>Don't get distracted by the orientation of the lines!</p><p>Press <b>the LEFT or the RIGHT arrow</b> to indicate which <b>line is the longer one.</b></p><div style='float: center'><img src='materials/instructions/VerticalHorizontal_Demo.png' height='300'></img><p><img src='utils/answer/answer_leftright_keyboard.PNG' height='150'></img></p><p class='small'>In this example, the correct answer is the <b>LEFT arrow</b>.</p></div><p>Are you ready? <b>Press ENTER to start</b></p>"	n/a	n/a	n/a	n/a	n/a	n/a	n/a	n/a	n/a	n/a
n/a	"html-keyboard-response"	"37"	"6786126"	"0.0-4.0-3.0-2.0-0.0"	"z7pjh0"	"563"	"1199"	"chrome"	"110.0.0"	"FALSE"	"Windows 10"	"60.44"	"036"	n/a	n/a	n/a	n/a	n/a	n/a	"fixation"	n/a	n/a	n/a	n/a	"NULL"	n/a	"NULL"	"NULL"	"NULL"	"<p style=\"color: black; font-size: 80px; padding-left: 24%; padding-right: 0%; padding-top: 49%; padding-bottom: 35%\">+</p>"	"1087"	n/a	n/a	n/a	n/a	n/a	n/a	n/a	n/a	n/a
n/a	"image-keyboard-response"	"38"	"6786763"	"0.0-4.0-3.0-2.0-1.0"	"z7pjh0"	"563"	"1199"	"chrome"	"110.0.0"	"FALSE"	"Windows 10"	"60.44"	"036"	n/a	n/a	n/a	n/a	n/a	n/a	"Trial"	n/a	n/a	n/a	"635"	"arrowright"	n/a	"NULL"	"NULL"	"NULL"	"stimuli/VerticalHorizontal_0000000_-0.9000.png"	n/a	"VerticalHorizontal"	"arrowright"	"1595"	"TRUE"	"VerticalHorizontal"	"000000000000"	"-0.900000000"	"1"	"13"
n/a	"html-keyboard-response"	"39"	"6787829"	"0.0-4.0-3.0-2.0-0.1"	"z7pjh0"	"563"	"1199"	"chrome"	"110.0.0"	"FALSE"	"Windows 10"	"60.44"	"036"	n/a	n/a	n/a	n/a	n/a	n/a	"fixation"	n/a	n/a	n/a	n/a	"NULL"	n/a	"NULL"	"NULL"	"NULL"	"<p style=\"color: black; font-size: 80px; padding-left: 47%; padding-right: 16%; padding-top: 27%; padding-bottom: 29%\">+</p>"	"1057"	n/a	n/a	n/a	n/a	n/a	n/a	n/a	n/a	n/a
n/a	"image-keyboard-response"	"40"	"6788517"	"0.0-4.0-3.0-2.0-1.1"	"z7pjh0"	"563"	"1199"	"chrome"	"110.0.0"	"FALSE"	"Windows 10"	"60.44"	"036"	n/a	n/a	n/a	n/a	n/a	n/a	"Trial"	n/a	n/a	n/a	"687"	"arrowleft"	n/a	"NULL"	"NULL"	"NULL"	"stimuli/VerticalHorizontal_3300000_0.90000.png"	n/a	"VerticalHorizontal"	"arrowleft"	"1066"	"TRUE"	"VerticalHorizontal"	"330000000000"	"0.9000000000"	"1"	"14"
n/a	"html-keyboard-response"	"41"	"6789561"	"0.0-4.0-3.0-2.0-0.2"	"z7pjh0"	"563"	"1199"	"chrome"	"110.0.0"	"FALSE"	"Windows 10"	"60.44"	"036"	n/a	n/a	n/a	n/a	n/a	n/a	"fixation"	n/a	n/a	n/a	n/a	"NULL"	n/a	"NULL"	"NULL"	"NULL"	"<p style=\"color: black; font-size: 80px; padding-left: 42%; padding-right: 23%; padding-top: 50%; padding-bottom: 30%\">+</p>"	"1043"	n/a	n/a	n/a	n/a	n/a	n/a	n/a	n/a	n/a
n/a	"image-keyboard-response"	"42"	"6790143"	"0.0-4.0-3.0-2.0-1.2"	"z7pjh0"	"563"	"1199"	"chrome"	"110.0.0"	"FALSE"	"Windows 10"	"60.44"	"036"	n/a	n/a	n/a	n/a	n/a	n/a	"Trial"	n/a	n/a	n/a	"580"	"arrowleft"	n/a	"NULL"	"NULL"	"NULL"	"stimuli/VerticalHorizontal_-330000_0.90000.png"	n/a	"VerticalHorizontal"	"arrowleft"	"1044"	"TRUE"	"VerticalHorizontal"	"-33000000000"	"0.9000000000"	"1"	"15"
n/a	"html-keyboard-response"	"43"	"6791644"	"0.0-4.0-3.0-2.0-0.3"	"z7pjh0"	"563"	"1199"	"chrome"	"110.0.0"	"FALSE"	"Windows 10"	"60.44"	"036"	n/a	n/a	n/a	n/a	n/a	n/a	"fixation"	n/a	n/a	n/a	n/a	"NULL"	n/a	"NULL"	"NULL"	"NULL"	"<p style=\"color: black; font-size: 80px; padding-left: 33%; padding-right: 23%; padding-top: 33%; padding-bottom: 9%\">+</p>"	"1487"	n/a	n/a	n/a	n/a	n/a	n/a	n/a	n/a	n/a
n/a	"image-keyboard-response"	"44"	"6792121"	"0.0-4.0-3.0-2.0-1.3"	"z7pjh0"	"563"	"1199"	"chrome"	"110.0.0"	"FALSE"	"Windows 10"	"60.44"	"036"	n/a	n/a	n/a	n/a	n/a	n/a	"Trial"	n/a	n/a	n/a	"477"	"arrowleft"	n/a	"NULL"	"NULL"	"NULL"	"stimuli/VerticalHorizontal_0000000_0.90000.png"	n/a	"VerticalHorizontal"	"arrowleft"	"1501"	"TRUE"	"VerticalHorizontal"	"000000000000"	"0.9000000000"	"1"	"16"
n/a	"html-keyboard-response"	"45"	"6793596"	"0.0-4.0-3.0-2.0-0.4"	"z7pjh0"	"563"	"1199"	"chrome"	"110.0.0"	"FALSE"	"Windows 10"	"60.44"	"036"	n/a	n/a	n/a	n/a	n/a	n/a	"fixation"	n/a	n/a	n/a	n/a	"NULL"	n/a	"NULL"	"NULL"	"NULL"	"<p style=\"color: black; font-size: 80px; padding-left: 27%; padding-right: 3%; padding-top: 3%; padding-bottom: 22%\">+</p>"	"1474"	n/a	n/a	n/a	n/a	n/a	n/a	n/a	n/a	n/a
n/a	"image-keyboard-response"	"46"	"6794092"	"0.0-4.0-3.0-2.0-1.4"	"z7pjh0"	"563"	"1199"	"chrome"	"110.0.0"	"FALSE"	"Windows 10"	"60.44"	"036"	n/a	n/a	n/a	n/a	n/a	n/a	"Trial"	n/a	n/a	n/a	"495"	"arrowright"	n/a	"NULL"	"NULL"	"NULL"	"stimuli/VerticalHorizontal_3300000_-0.9000.png"	n/a	"VerticalHorizontal"	"arrowright"	"1475"	"TRUE"	"VerticalHorizontal"	"330000000000"	"-0.900000000"	"1"	"17"
n/a	"html-keyboard-response"	"47"	"6795111"	"0.0-4.0-3.0-2.0-0.5"	"z7pjh0"	"563"	"1199"	"chrome"	"110.0.0"	"FALSE"	"Windows 10"	"60.44"	"036"	n/a	n/a	n/a	n/a	n/a	n/a	"fixation"	n/a	n/a	n/a	n/a	"NULL"	n/a	"NULL"	"NULL"	"NULL"	"<p style=\"color: black; font-size: 80px; padding-left: 3%; padding-right: 42%; padding-top: 23%; padding-bottom: 15%\">+</p>"	"1017"	n/a	n/a	n/a	n/a	n/a	n/a	n/a	n/a	n/a
n/a	"image-keyboard-response"	"48"	"6795551"	"0.0-4.0-3.0-2.0-1.5"	"z7pjh0"	"563"	"1199"	"chrome"	"110.0.0"	"FALSE"	"Windows 10"	"60.44"	"036"	n/a	n/a	n/a	n/a	n/a	n/a	"Trial"	n/a	n/a	n/a	"439"	"arrowright"	n/a	"NULL"	"NULL"	"NULL"	"stimuli/VerticalHorizontal_-330000_-0.9000.png"	n/a	"VerticalHorizontal"	"arrowright"	"1019"	"TRUE"	"VerticalHorizontal"	"-33000000000"	"-0.900000000"	"1"	"18"
n/a	"html-button-response"	"49"	"6802754"	"0.0-4.0-3.0-3.0"	"z7pjh0"	"563"	"1199"	"chrome"	"110.0.0"	"FALSE"	"Windows 10"	"60.44"	"036"	n/a	n/a	n/a	n/a	n/a	n/a	"practice_block_results"	n/a	n/a	n/a	"7202"	"0"	n/a	"NULL"	"NULL"	"NULL"	"<p style='color:rgb(76,175,80);'> Correct Responses: <b>100.00%</b></p><hr><p style='color:rgb(233,30,99);'> Average Response Time: <b>552.17</b> ms.</p>"	n/a	n/a	n/a	n/a	n/a	n/a	n/a	n/a	n/a	n/a
n/a	"html-button-response"	"50"	"6881721"	"0.0-4.0-4.0"	"z7pjh0"	"563"	"1199"	"chrome"	"110.0.0"	"FALSE"	"Windows 10"	"60.44"	"036"	n/a	n/a	n/a	n/a	n/a	n/a	"practice_debrief"	n/a	n/a	n/a	"78451"	"0"	n/a	"NULL"	"NULL"	"NULL"	"<p><b>TRAINING COMPLETED</b></p><p>In the next phase, there will be more trials, and some might be harder too.<br> Moreover, after each illusion block, a <b>score</b> will be calculated based on speed (time you took to answer) and accuracy (number of errors).</p><p>Try to keep up a high score!</p><br><p>Note that it can be <i>really</i> challenging at times, so you will need to rely on your <b>intuition</b> and gut feeling to answer as fast as you can without making errors.</p><p>Each illusion block will be repeated two times (so that you have the opportunity to improve your score), but the order of the blocks is random.</p><p>Remember, your goal is to be as <b>fast</b> and <b>accurate</b> as possible. Good luck!</p><br>"	n/a	n/a	n/a	n/a	n/a	n/a	n/a	n/a	n/a	n/a
"TRUE"	"preload"	"51"	"6881866"	"0.0-5.0-0.0"	"z7pjh0"	"563"	"1199"	"chrome"	"110.0.0"	"FALSE"	"Windows 10"	"60.44"	"036"	n/a	n/a	n/a	n/a	n/a	n/a	n/a	n/a	n/a	n/a	n/a	"NULL"	"FALSE"	"list()"	"list()"	"list()"	n/a	n/a	n/a	n/a	n/a	n/a	n/a	n/a	n/a	n/a	n/a
n/a	"html-keyboard-response"	"52"	"6888193"	"0.0-5.0-1.0"	"z7pjh0"	"563"	"1199"	"chrome"	"110.0.0"	"FALSE"	"Windows 10"	"60.44"	"036"	n/a	n/a	n/a	n/a	n/a	n/a	n/a	n/a	n/a	n/a	"6326"	"enter"	n/a	"NULL"	"NULL"	"NULL"	"<p><b>Part 1/6</b></p><p>In this part, two red lines will appear side by side.</p><p>Your task is to tell <b>which line is longer</b> in length, regardless of their orientation, as fast as you can, and without making errors.</p><p>Don't get distracted by the orientation of the lines!</p><p>Press <b>the LEFT or the RIGHT arrow</b> to indicate which <b>line is the longer one.</b></p><div style='float: center'><img src='materials/instructions/VerticalHorizontal_Demo.png' height='300'></img><p><img src='utils/answer/answer_leftright_keyboard.PNG' height='150'></img></p><p class='small'>In this example, the correct answer is the <b>LEFT arrow</b>.</p></div><p>Are you ready? <b>Press ENTER to start</b></p>"	n/a	n/a	n/a	n/a	n/a	n/a	n/a	n/a	n/a	n/a
n/a	"html-keyboard-response"	"53"	"6889939"	"0.0-5.0-2.0-0.0"	"z7pjh0"	"563"	"1199"	"chrome"	"110.0.0"	"FALSE"	"Windows 10"	"60.44"	"036"	n/a	n/a	n/a	n/a	n/a	n/a	"fixation"	n/a	n/a	n/a	n/a	"NULL"	n/a	"NULL"	"NULL"	"NULL"	"<p style=\"color: black; font-size: 80px; padding-left: 23%; padding-right: 9%; padding-top: 2%; padding-bottom: 5%\">+</p>"	"1226"	n/a	n/a	n/a	n/a	n/a	n/a	n/a	n/a	n/a
n/a	"image-keyboard-response"	"54"	"6890448"	"0.0-5.0-2.0-1.0"	"z7pjh0"	"563"	"1199"	"chrome"	"110.0.0"	"FALSE"	"Windows 10"	"60.44"	"036"	n/a	n/a	n/a	n/a	n/a	n/a	"Trial"	n/a	n/a	n/a	"508"	"arrowright"	n/a	"NULL"	"NULL"	"NULL"	"stimuli/VerticalHorizontal_11.78571_0.06730.png"	n/a	"VerticalHorizontal"	"arrowleft"	"1746"	"FALSE"	"VerticalHorizontal"	"11.785710000"	"0.0673000000"	"1"	"19"
n/a	"html-keyboard-response"	"55"	"6891721"	"0.0-5.0-2.0-0.1"	"z7pjh0"	"563"	"1199"	"chrome"	"110.0.0"	"FALSE"	"Windows 10"	"60.44"	"036"	n/a	n/a	n/a	n/a	n/a	n/a	"fixation"	n/a	n/a	n/a	n/a	"NULL"	n/a	"NULL"	"NULL"	"NULL"	"<p style=\"color: black; font-size: 80px; padding-left: 9%; padding-right: 47%; padding-top: 13%; padding-bottom: 20%\">+</p>"	"1267"	n/a	n/a	n/a	n/a	n/a	n/a	n/a	n/a	n/a
n/a	"image-keyboard-response"	"56"	"6892376"	"0.0-5.0-2.0-1.1"	"z7pjh0"	"563"	"1199"	"chrome"	"110.0.0"	"FALSE"	"Windows 10"	"60.44"	"036"	n/a	n/a	n/a	n/a	n/a	n/a	"Trial"	n/a	n/a	n/a	"654"	"arrowright"	n/a	"NULL"	"NULL"	"NULL"	"stimuli/VerticalHorizontal_11.78571_-0.1096.png"	n/a	"VerticalHorizontal"	"arrowright"	"1273"	"TRUE"	"VerticalHorizontal"	"11.785710000"	"-0.109600000"	"1"	"20"
n/a	"html-keyboard-response"	"57"	"6893614"	"0.0-5.0-2.0-0.2"	"z7pjh0"	"563"	"1199"	"chrome"	"110.0.0"	"FALSE"	"Windows 10"	"60.44"	"036"	n/a	n/a	n/a	n/a	n/a	n/a	"fixation"	n/a	n/a	n/a	n/a	"NULL"	n/a	"NULL"	"NULL"	"NULL"	"<p style=\"color: black; font-size: 80px; padding-left: 42%; padding-right: 42%; padding-top: 14%; padding-bottom: 44%\">+</p>"	"1222"	n/a	n/a	n/a	n/a	n/a	n/a	n/a	n/a	n/a
n/a	"image-keyboard-response"	"58"	"6894508"	"0.0-5.0-2.0-1.2"	"z7pjh0"	"563"	"1199"	"chrome"	"110.0.0"	"FALSE"	"Windows 10"	"60.44"	"036"	n/a	n/a	n/a	n/a	n/a	n/a	"Trial"	n/a	n/a	n/a	"893"	"arrowleft"	n/a	"NULL"	"NULL"	"NULL"	"stimuli/VerticalHorizontal_28.75714_0.16217.png"	n/a	"VerticalHorizontal"	"arrowleft"	"1238"	"TRUE"	"VerticalHorizontal"	"28.757140000"	"0.1621700000"	"1"	"21"
n/a	"html-keyboard-response"	"59"	"6895791"	"0.0-5.0-2.0-0.3"	"z7pjh0"	"563"	"1199"	"chrome"	"110.0.0"	"FALSE"	"Windows 10"	"60.44"	"036"	n/a	n/a	n/a	n/a	n/a	n/a	"fixation"	n/a	n/a	n/a	n/a	"NULL"	n/a	"NULL"	"NULL"	"NULL"	"<p style=\"color: black; font-size: 80px; padding-left: 15%; padding-right: 14%; padding-top: 4%; padding-bottom: 24%\">+</p>"	"1268"	n/a	n/a	n/a	n/a	n/a	n/a	n/a	n/a	n/a
n/a	"image-keyboard-response"	"60"	"6896553"	"0.0-5.0-2.0-1.3"	"z7pjh0"	"563"	"1199"	"chrome"	"110.0.0"	"FALSE"	"Windows 10"	"60.44"	"036"	n/a	n/a	n/a	n/a	n/a	n/a	"Trial"	n/a	n/a	n/a	"761"	"arrowright"	n/a	"NULL"	"NULL"	"NULL"	"stimuli/VerticalHorizontal_-28.75714_-0.1096.png"	n/a	"VerticalHorizontal"	"arrowright"	"1283"	"TRUE"	"VerticalHorizontal"	"-28.75714000"	"-0.109600000"	"1"	"22"
n/a	"html-keyboard-response"	"61"	"6897907"	"0.0-5.0-2.0-0.4"	"z7pjh0"	"563"	"1199"	"chrome"	"110.0.0"	"FALSE"	"Windows 10"	"60.44"	"036"	n/a	n/a	n/a	n/a	n/a	n/a	"fixation"	n/a	n/a	n/a	n/a	"NULL"	n/a	"NULL"	"NULL"	"NULL"	"<p style=\"color: black; font-size: 80px; padding-left: 30%; padding-right: 16%; padding-top: 30%; padding-bottom: 42%\">+</p>"	"1350"	n/a	n/a	n/a	n/a	n/a	n/a	n/a	n/a	n/a
n/a	"image-keyboard-response"	"62"	"6898703"	"0.0-5.0-2.0-1.4"	"z7pjh0"	"563"	"1199"	"chrome"	"110.0.0"	"FALSE"	"Windows 10"	"60.44"	"036"	n/a	n/a	n/a	n/a	n/a	n/a	"Trial"	n/a	n/a	n/a	"795"	"arrowleft"	n/a	"NULL"	"NULL"	"NULL"	"stimuli/VerticalHorizontal_11.78571_0.22500.png"	n/a	"VerticalHorizontal"	"arrowleft"	"1354"	"TRUE"	"VerticalHorizontal"	"11.785710000"	"0.2250000000"	"1"	"23"
n/a	"html-keyboard-response"	"63"	"6899752"	"0.0-5.0-2.0-0.5"	"z7pjh0"	"563"	"1199"	"chrome"	"110.0.0"	"FALSE"	"Windows 10"	"60.44"	"036"	n/a	n/a	n/a	n/a	n/a	n/a	"fixation"	n/a	n/a	n/a	n/a	"NULL"	n/a	"NULL"	"NULL"	"NULL"	"<p style=\"color: black; font-size: 80px; padding-left: 41%; padding-right: 38%; padding-top: 19%; padding-bottom: 49%\">+</p>"	"1048"	n/a	n/a	n/a	n/a	n/a	n/a	n/a	n/a	n/a
n/a	"image-keyboard-response"	"64"	"6900739"	"0.0-5.0-2.0-1.5"	"z7pjh0"	"563"	"1199"	"chrome"	"110.0.0"	"FALSE"	"Windows 10"	"60.44"	"036"	n/a	n/a	n/a	n/a	n/a	n/a	"Trial"	n/a	n/a	n/a	"986"	"arrowright"	n/a	"NULL"	"NULL"	"NULL"	"stimuli/VerticalHorizontal_-20.27143_0.06730.png"	n/a	"VerticalHorizontal"	"arrowleft"	"1049"	"FALSE"	"VerticalHorizontal"	"-20.27143000"	"0.0673000000"	"1"	"24"
n/a	"html-keyboard-response"	"65"	"6901942"	"0.0-5.0-2.0-0.6"	"z7pjh0"	"563"	"1199"	"chrome"	"110.0.0"	"FALSE"	"Windows 10"	"60.44"	"036"	n/a	n/a	n/a	n/a	n/a	n/a	"fixation"	n/a	n/a	n/a	n/a	"NULL"	n/a	"NULL"	"NULL"	"NULL"	"<p style=\"color: black; font-size: 80px; padding-left: 43%; padding-right: 14%; padding-top: 42%; padding-bottom: 37%\">+</p>"	"1201"	n/a	n/a	n/a	n/a	n/a	n/a	n/a	n/a	n/a
n/a	"image-keyboard-response"	"66"	"6902915"	"0.0-5.0-2.0-1.6"	"z7pjh0"	"563"	"1199"	"chrome"	"110.0.0"	"FALSE"	"Windows 10"	"60.44"	"036"	n/a	n/a	n/a	n/a	n/a	n/a	"Trial"	n/a	n/a	n/a	"972"	"arrowright"	n/a	"NULL"	"NULL"	"NULL"	"stimuli/VerticalHorizontal_28.75714_0.10960.png"	n/a	"VerticalHorizontal"	"arrowleft"	"1203"	"FALSE"	"VerticalHorizontal"	"28.757140000"	"0.1096000000"	"1"	"25"
n/a	"html-keyboard-response"	"67"	"6904290"	"0.0-5.0-2.0-0.7"	"z7pjh0"	"563"	"1199"	"chrome"	"110.0.0"	"FALSE"	"Windows 10"	"60.44"	"036"	n/a	n/a	n/a	n/a	n/a	n/a	"fixation"	n/a	n/a	n/a	n/a	"NULL"	n/a	"NULL"	"NULL"	"NULL"	"<p style=\"color: black; font-size: 80px; padding-left: 6%; padding-right: 40%; padding-top: 1%; padding-bottom: 15%\">+</p>"	"1359"	n/a	n/a	n/a	n/a	n/a	n/a	n/a	n/a	n/a
n/a	"image-keyboard-response"	"68"	"6905229"	"0.0-5.0-2.0-1.7"	"z7pjh0"	"563"	"1199"	"chrome"	"110.0.0"	"FALSE"	"Windows 10"	"60.44"	"036"	n/a	n/a	n/a	n/a	n/a	n/a	"Trial"	n/a	n/a	n/a	"936"	"arrowright"	n/a	"NULL"	"NULL"	"NULL"	"stimuli/VerticalHorizontal_11.78571_-0.16217.png"	n/a	"VerticalHorizontal"	"arrowright"	"1375"	"TRUE"	"VerticalHorizontal"	"11.785710000"	"-0.162170000"	"1"	"26"
n/a	"html-keyboard-response"	"69"	"6906602"	"0.0-5.0-2.0-0.8"	"z7pjh0"	"563"	"1199"	"chrome"	"110.0.0"	"FALSE"	"Windows 10"	"60.44"	"036"	n/a	n/a	n/a	n/a	n/a	n/a	"fixation"	n/a	n/a	n/a	n/a	"NULL"	n/a	"NULL"	"NULL"	"NULL"	"<p style=\"color: black; font-size: 80px; padding-left: 39%; padding-right: 17%; padding-top: 46%; padding-bottom: 11%\">+</p>"	"1368"	n/a	n/a	n/a	n/a	n/a	n/a	n/a	n/a	n/a
n/a	"image-keyboard-response"	"70"	"6907645"	"0.0-5.0-2.0-1.8"	"z7pjh0"	"563"	"1199"	"chrome"	"110.0.0"	"FALSE"	"Windows 10"	"60.44"	"036"	n/a	n/a	n/a	n/a	n/a	n/a	"Trial"	n/a	n/a	n/a	"1040"	"arrowright"	n/a	"NULL"	"NULL"	"NULL"	"stimuli/VerticalHorizontal_20.27143_-0.16217.png"	n/a	"VerticalHorizontal"	"arrowright"	"1373"	"TRUE"	"VerticalHorizontal"	"20.271430000"	"-0.162170000"	"1"	"27"
n/a	"html-keyboard-response"	"71"	"6908878"	"0.0-5.0-2.0-0.9"	"z7pjh0"	"563"	"1199"	"chrome"	"110.0.0"	"FALSE"	"Windows 10"	"60.44"	"036"	n/a	n/a	n/a	n/a	n/a	n/a	"fixation"	n/a	n/a	n/a	n/a	"NULL"	n/a	"NULL"	"NULL"	"NULL"	"<p style=\"color: black; font-size: 80px; padding-left: 25%; padding-right: 8%; padding-top: 31%; padding-bottom: 16%\">+</p>"	"1221"	n/a	n/a	n/a	n/a	n/a	n/a	n/a	n/a	n/a
n/a	"image-keyboard-response"	"72"	"6909943"	"0.0-5.0-2.0-1.9"	"z7pjh0"	"563"	"1199"	"chrome"	"110.0.0"	"FALSE"	"Windows 10"	"60.44"	"036"	n/a	n/a	n/a	n/a	n/a	n/a	"Trial"	n/a	n/a	n/a	"1065"	"arrowright"	n/a	"NULL"	"NULL"	"NULL"	"stimuli/VerticalHorizontal_3.30000_-0.0673.png"	n/a	"VerticalHorizontal"	"arrowright"	"1233"	"TRUE"	"VerticalHorizontal"	"3.3000000000"	"-0.067300000"	"1"	"28"
n/a	"html-keyboard-response"	"73"	"6911349"	"0.0-5.0-2.0-0.10"	"z7pjh0"	"563"	"1199"	"chrome"	"110.0.0"	"FALSE"	"Windows 10"	"60.44"	"036"	n/a	n/a	n/a	n/a	n/a	n/a	"fixation"	n/a	n/a	n/a	n/a	"NULL"	n/a	"NULL"	"NULL"	"NULL"	"<p style=\"color: black; font-size: 80px; padding-left: 1%; padding-right: 26%; padding-top: 22%; padding-bottom: 49%\">+</p>"	"1396"	n/a	n/a	n/a	n/a	n/a	n/a	n/a	n/a	n/a
n/a	"image-keyboard-response"	"74"	"6912233"	"0.0-5.0-2.0-1.10"	"z7pjh0"	"563"	"1199"	"chrome"	"110.0.0"	"FALSE"	"Windows 10"	"60.44"	"036"	n/a	n/a	n/a	n/a	n/a	n/a	"Trial"	n/a	n/a	n/a	"882"	"arrowright"	n/a	"NULL"	"NULL"	"NULL"	"stimuli/VerticalHorizontal_-20.27143_-0.2250.png"	n/a	"VerticalHorizontal"	"arrowright"	"1406"	"TRUE"	"VerticalHorizontal"	"-20.27143000"	"-0.225000000"	"1"	"29"
n/a	"html-keyboard-response"	"75"	"6913446"	"0.0-5.0-2.0-0.11"	"z7pjh0"	"563"	"1199"	"chrome"	"110.0.0"	"FALSE"	"Windows 10"	"60.44"	"036"	n/a	n/a	n/a	n/a	n/a	n/a	"fixation"	n/a	n/a	n/a	n/a	"NULL"	n/a	"NULL"	"NULL"	"NULL"	"<p style=\"color: black; font-size: 80px; padding-left: 22%; padding-right: 35%; padding-top: 48%; padding-bottom: 46%\">+</p>"	"1203"	n/a	n/a	n/a	n/a	n/a	n/a	n/a	n/a	n/a
n/a	"image-keyboard-response"	"76"	"6914343"	"0.0-5.0-2.0-1.11"	"z7pjh0"	"563"	"1199"	"chrome"	"110.0.0"	"FALSE"	"Windows 10"	"60.44"	"036"	n/a	n/a	n/a	n/a	n/a	n/a	"Trial"	n/a	n/a	n/a	"897"	"arrowleft"	n/a	"NULL"	"NULL"	"NULL"	"stimuli/VerticalHorizontal_11.78571_0.16217.png"	n/a	"VerticalHorizontal"	"arrowleft"	"1213"	"TRUE"	"VerticalHorizontal"	"11.785710000"	"0.1621700000"	"1"	"30"
n/a	"html-keyboard-response"	"77"	"6915580"	"0.0-5.0-2.0-0.12"	"z7pjh0"	"563"	"1199"	"chrome"	"110.0.0"	"FALSE"	"Windows 10"	"60.44"	"036"	n/a	n/a	n/a	n/a	n/a	n/a	"fixation"	n/a	n/a	n/a	n/a	"NULL"	n/a	"NULL"	"NULL"	"NULL"	"<p style=\"color: black; font-size: 80px; padding-left: 17%; padding-right: 31%; padding-top: 40%; padding-bottom: 1%\">+</p>"	"1222"	n/a	n/a	n/a	n/a	n/a	n/a	n/a	n/a	n/a
n/a	"image-keyboard-response"	"78"	"6916544"	"0.0-5.0-2.0-1.12"	"z7pjh0"	"563"	"1199"	"chrome"	"110.0.0"	"FALSE"	"Windows 10"	"60.44"	"036"	n/a	n/a	n/a	n/a	n/a	n/a	"Trial"	n/a	n/a	n/a	"963"	"arrowright"	n/a	"NULL"	"NULL"	"NULL"	"stimuli/VerticalHorizontal_-11.78571_-0.16217.png"	n/a	"VerticalHorizontal"	"arrowright"	"1237"	"TRUE"	"VerticalHorizontal"	"-11.78571000"	"-0.162170000"	"1"	"31"
n/a	"html-keyboard-response"	"79"	"6917986"	"0.0-5.0-2.0-0.13"	"z7pjh0"	"563"	"1199"	"chrome"	"110.0.0"	"FALSE"	"Windows 10"	"60.44"	"036"	n/a	n/a	n/a	n/a	n/a	n/a	"fixation"	n/a	n/a	n/a	n/a	"NULL"	n/a	"NULL"	"NULL"	"NULL"	"<p style=\"color: black; font-size: 80px; padding-left: 35%; padding-right: 24%; padding-top: 50%; padding-bottom: 12%\">+</p>"	"1428"	n/a	n/a	n/a	n/a	n/a	n/a	n/a	n/a	n/a
n/a	"image-keyboard-response"	"80"	"6918912"	"0.0-5.0-2.0-1.13"	"z7pjh0"	"563"	"1199"	"chrome"	"110.0.0"	"FALSE"	"Windows 10"	"60.44"	"036"	n/a	n/a	n/a	n/a	n/a	n/a	"Trial"	n/a	n/a	n/a	"925"	"arrowleft"	n/a	"NULL"	"NULL"	"NULL"	"stimuli/VerticalHorizontal_-20.27143_0.22500.png"	n/a	"VerticalHorizontal"	"arrowleft"	"1442"	"TRUE"	"VerticalHorizontal"	"-20.27143000"	"0.2250000000"	"1"	"32"
n/a	"html-keyboard-response"	"81"	"6919952"	"0.0-5.0-2.0-0.14"	"z7pjh0"	"563"	"1199"	"chrome"	"110.0.0"	"FALSE"	"Windows 10"	"60.44"	"036"	n/a	n/a	n/a	n/a	n/a	n/a	"fixation"	n/a	n/a	n/a	n/a	"NULL"	n/a	"NULL"	"NULL"	"NULL"	"<p style=\"color: black; font-size: 80px; padding-left: 13%; padding-right: 7%; padding-top: 47%; padding-bottom: 0%\">+</p>"	"1027"	n/a	n/a	n/a	n/a	n/a	n/a	n/a	n/a	n/a
n/a	"image-keyboard-response"	"82"	"6920961"	"0.0-5.0-2.0-1.14"	"z7pjh0"	"563"	"1199"	"chrome"	"110.0.0"	"FALSE"	"Windows 10"	"60.44"	"036"	n/a	n/a	n/a	n/a	n/a	n/a	"Trial"	n/a	n/a	n/a	"1007"	"arrowleft"	n/a	"NULL"	"NULL"	"NULL"	"stimuli/VerticalHorizontal_-3.3000_0.16217.png"	n/a	"VerticalHorizontal"	"arrowleft"	"1040"	"TRUE"	"VerticalHorizontal"	"-3.300000000"	"0.1621700000"	"1"	"33"
n/a	"html-keyboard-response"	"83"	"6922015"	"0.0-5.0-2.0-0.15"	"z7pjh0"	"563"	"1199"	"chrome"	"110.0.0"	"FALSE"	"Windows 10"	"60.44"	"036"	n/a	n/a	n/a	n/a	n/a	n/a	"fixation"	n/a	n/a	n/a	n/a	"NULL"	n/a	"NULL"	"NULL"	"NULL"	"<p style=\"color: black; font-size: 80px; padding-left: 25%; padding-right: 7%; padding-top: 42%; padding-bottom: 35%\">+</p>"	"1044"	n/a	n/a	n/a	n/a	n/a	n/a	n/a	n/a	n/a
n/a	"image-keyboard-response"	"84"	"6923153"	"0.0-5.0-2.0-1.15"	"z7pjh0"	"563"	"1199"	"chrome"	"110.0.0"	"FALSE"	"Windows 10"	"60.44"	"036"	n/a	n/a	n/a	n/a	n/a	n/a	"Trial"	n/a	n/a	n/a	"1135"	"arrowright"	n/a	"NULL"	"NULL"	"NULL"	"stimuli/VerticalHorizontal_-28.75714_-0.0673.png"	n/a	"VerticalHorizontal"	"arrowright"	"1054"	"TRUE"	"VerticalHorizontal"	"-28.75714000"	"-0.067300000"	"1"	"34"
n/a	"html-keyboard-response"	"85"	"6924659"	"0.0-5.0-2.0-0.16"	"z7pjh0"	"563"	"1199"	"chrome"	"110.0.0"	"FALSE"	"Windows 10"	"60.44"	"036"	n/a	n/a	n/a	n/a	n/a	n/a	"fixation"	n/a	n/a	n/a	n/a	"NULL"	n/a	"NULL"	"NULL"	"NULL"	"<p style=\"color: black; font-size: 80px; padding-left: 37%; padding-right: 48%; padding-top: 16%; padding-bottom: 4%\">+</p>"	"1500"	n/a	n/a	n/a	n/a	n/a	n/a	n/a	n/a	n/a
n/a	"image-keyboard-response"	"86"	"6925647"	"0.0-5.0-2.0-1.16"	"z7pjh0"	"563"	"1199"	"chrome"	"110.0.0"	"FALSE"	"Windows 10"	"60.44"	"036"	n/a	n/a	n/a	n/a	n/a	n/a	"Trial"	n/a	n/a	n/a	"987"	"arrowright"	n/a	"NULL"	"NULL"	"NULL"	"stimuli/VerticalHorizontal_-20.27143_-0.1096.png"	n/a	"VerticalHorizontal"	"arrowright"	"1506"	"TRUE"	"VerticalHorizontal"	"-20.27143000"	"-0.109600000"	"1"	"35"
n/a	"html-keyboard-response"	"87"	"6926970"	"0.0-5.0-2.0-0.17"	"z7pjh0"	"563"	"1199"	"chrome"	"110.0.0"	"FALSE"	"Windows 10"	"60.44"	"036"	n/a	n/a	n/a	n/a	n/a	n/a	"fixation"	n/a	n/a	n/a	n/a	"NULL"	n/a	"NULL"	"NULL"	"NULL"	"<p style=\"color: black; font-size: 80px; padding-left: 10%; padding-right: 40%; padding-top: 27%; padding-bottom: 48%\">+</p>"	"1318"	n/a	n/a	n/a	n/a	n/a	n/a	n/a	n/a	n/a
n/a	"image-keyboard-response"	"88"	"6927958"	"0.0-5.0-2.0-1.17"	"z7pjh0"	"563"	"1199"	"chrome"	"110.0.0"	"FALSE"	"Windows 10"	"60.44"	"036"	n/a	n/a	n/a	n/a	n/a	n/a	"Trial"	n/a	n/a	n/a	"987"	"arrowright"	n/a	"NULL"	"NULL"	"NULL"	"stimuli/VerticalHorizontal_3.30000_-0.1096.png"	n/a	"VerticalHorizontal"	"arrowright"	"1323"	"TRUE"	"VerticalHorizontal"	"3.3000000000"	"-0.109600000"	"1"	"36"
n/a	"html-keyboard-response"	"89"	"6929080"	"0.0-5.0-2.0-0.18"	"z7pjh0"	"563"	"1199"	"chrome"	"110.0.0"	"FALSE"	"Windows 10"	"60.44"	"036"	n/a	n/a	n/a	n/a	n/a	n/a	"fixation"	n/a	n/a	n/a	n/a	"NULL"	n/a	"NULL"	"NULL"	"NULL"	"<p style=\"color: black; font-size: 80px; padding-left: 48%; padding-right: 23%; padding-top: 18%; padding-bottom: 3%\">+</p>"	"1114"	n/a	n/a	n/a	n/a	n/a	n/a	n/a	n/a	n/a
n/a	"image-keyboard-response"	"90"	"6930095"	"0.0-5.0-2.0-1.18"	"z7pjh0"	"563"	"1199"	"chrome"	"110.0.0"	"FALSE"	"Windows 10"	"60.44"	"036"	n/a	n/a	n/a	n/a	n/a	n/a	"Trial"	n/a	n/a	n/a	"1015"	"arrowleft"	n/a	"NULL"	"NULL"	"NULL"	"stimuli/VerticalHorizontal_-20.27143_0.10960.png"	n/a	"VerticalHorizontal"	"arrowleft"	"1122"	"TRUE"	"VerticalHorizontal"	"-20.27143000"	"0.1096000000"	"1"	"37"
n/a	"html-keyboard-response"	"91"	"6931220"	"0.0-5.0-2.0-0.19"	"z7pjh0"	"563"	"1199"	"chrome"	"110.0.0"	"FALSE"	"Windows 10"	"60.44"	"036"	n/a	n/a	n/a	n/a	n/a	n/a	"fixation"	n/a	n/a	n/a	n/a	"NULL"	n/a	"NULL"	"NULL"	"NULL"	"<p style=\"color: black; font-size: 80px; padding-left: 44%; padding-right: 32%; padding-top: 2%; padding-bottom: 40%\">+</p>"	"1117"	n/a	n/a	n/a	n/a	n/a	n/a	n/a	n/a	n/a
n/a	"image-keyboard-response"	"92"	"6932319"	"0.0-5.0-2.0-1.19"	"z7pjh0"	"563"	"1199"	"chrome"	"110.0.0"	"FALSE"	"Windows 10"	"60.44"	"036"	n/a	n/a	n/a	n/a	n/a	n/a	"Trial"	n/a	n/a	n/a	"1099"	"arrowleft"	n/a	"NULL"	"NULL"	"NULL"	"stimuli/VerticalHorizontal_11.78571_0.10960.png"	n/a	"VerticalHorizontal"	"arrowleft"	"1125"	"TRUE"	"VerticalHorizontal"	"11.785710000"	"0.1096000000"	"1"	"38"
n/a	"html-keyboard-response"	"93"	"6933829"	"0.0-5.0-2.0-0.20"	"z7pjh0"	"563"	"1199"	"chrome"	"110.0.0"	"FALSE"	"Windows 10"	"60.44"	"036"	n/a	n/a	n/a	n/a	n/a	n/a	"fixation"	n/a	n/a	n/a	n/a	"NULL"	n/a	"NULL"	"NULL"	"NULL"	"<p style=\"color: black; font-size: 80px; padding-left: 38%; padding-right: 30%; padding-top: 24%; padding-bottom: 9%\">+</p>"	"1497"	n/a	n/a	n/a	n/a	n/a	n/a	n/a	n/a	n/a
n/a	"image-keyboard-response"	"94"	"6934933"	"0.0-5.0-2.0-1.20"	"z7pjh0"	"563"	"1199"	"chrome"	"110.0.0"	"FALSE"	"Windows 10"	"60.44"	"036"	n/a	n/a	n/a	n/a	n/a	n/a	"Trial"	n/a	n/a	n/a	"1103"	"arrowleft"	n/a	"NULL"	"NULL"	"NULL"	"stimuli/VerticalHorizontal_20.27143_0.10960.png"	n/a	"VerticalHorizontal"	"arrowleft"	"1510"	"TRUE"	"VerticalHorizontal"	"20.271430000"	"0.1096000000"	"1"	"39"
n/a	"html-keyboard-response"	"95"	"6936337"	"0.0-5.0-2.0-0.21"	"z7pjh0"	"563"	"1199"	"chrome"	"110.0.0"	"FALSE"	"Windows 10"	"60.44"	"036"	n/a	n/a	n/a	n/a	n/a	n/a	"fixation"	n/a	n/a	n/a	n/a	"NULL"	n/a	"NULL"	"NULL"	"NULL"	"<p style=\"color: black; font-size: 80px; padding-left: 30%; padding-right: 30%; padding-top: 38%; padding-bottom: 23%\">+</p>"	"1398"	n/a	n/a	n/a	n/a	n/a	n/a	n/a	n/a	n/a
n/a	"image-keyboard-response"	"96"	"6937409"	"0.0-5.0-2.0-1.21"	"z7pjh0"	"563"	"1199"	"chrome"	"110.0.0"	"FALSE"	"Windows 10"	"60.44"	"036"	n/a	n/a	n/a	n/a	n/a	n/a	"Trial"	n/a	n/a	n/a	"1071"	"arrowright"	n/a	"NULL"	"NULL"	"NULL"	"stimuli/VerticalHorizontal_20.27143_-0.1096.png"	n/a	"VerticalHorizontal"	"arrowright"	"1404"	"TRUE"	"VerticalHorizontal"	"20.271430000"	"-0.109600000"	"1"	"40"
n/a	"html-keyboard-response"	"97"	"6938736"	"0.0-5.0-2.0-0.22"	"z7pjh0"	"563"	"1199"	"chrome"	"110.0.0"	"FALSE"	"Windows 10"	"60.44"	"036"	n/a	n/a	n/a	n/a	n/a	n/a	"fixation"	n/a	n/a	n/a	n/a	"NULL"	n/a	"NULL"	"NULL"	"NULL"	"<p style=\"color: black; font-size: 80px; padding-left: 47%; padding-right: 30%; padding-top: 23%; padding-bottom: 40%\">+</p>"	"1321"	n/a	n/a	n/a	n/a	n/a	n/a	n/a	n/a	n/a
n/a	"image-keyboard-response"	"98"	"6939807"	"0.0-5.0-2.0-1.22"	"z7pjh0"	"563"	"1199"	"chrome"	"110.0.0"	"FALSE"	"Windows 10"	"60.44"	"036"	n/a	n/a	n/a	n/a	n/a	n/a	"Trial"	n/a	n/a	n/a	"1071"	"arrowleft"	n/a	"NULL"	"NULL"	"NULL"	"stimuli/VerticalHorizontal_-11.78571_0.16217.png"	n/a	"VerticalHorizontal"	"arrowleft"	"1327"	"TRUE"	"VerticalHorizontal"	"-11.78571000"	"0.1621700000"	"1"	"41"
n/a	"html-keyboard-response"	"99"	"6940862"	"0.0-5.0-2.0-0.23"	"z7pjh0"	"563"	"1199"	"chrome"	"110.0.0"	"FALSE"	"Windows 10"	"60.44"	"036"	n/a	n/a	n/a	n/a	n/a	n/a	"fixation"	n/a	n/a	n/a	n/a	"NULL"	n/a	"NULL"	"NULL"	"NULL"	"<p style=\"color: black; font-size: 80px; padding-left: 5%; padding-right: 0%; padding-top: 37%; padding-bottom: 21%\">+</p>"	"1047"	n/a	n/a	n/a	n/a	n/a	n/a	n/a	n/a	n/a
n/a	"image-keyboard-response"	"100"	"6942133"	"0.0-5.0-2.0-1.23"	"z7pjh0"	"563"	"1199"	"chrome"	"110.0.0"	"FALSE"	"Windows 10"	"60.44"	"036"	n/a	n/a	n/a	n/a	n/a	n/a	"Trial"	n/a	n/a	n/a	"1270"	"arrowleft"	n/a	"NULL"	"NULL"	"NULL"	"stimuli/VerticalHorizontal_28.75714_-0.1096.png"	n/a	"VerticalHorizontal"	"arrowright"	"1055"	"FALSE"	"VerticalHorizontal"	"28.757140000"	"-0.109600000"	"1"	"42"
n/a	"html-keyboard-response"	"101"	"6943315"	"0.0-5.0-2.0-0.24"	"z7pjh0"	"563"	"1199"	"chrome"	"110.0.0"	"FALSE"	"Windows 10"	"60.44"	"036"	n/a	n/a	n/a	n/a	n/a	n/a	"fixation"	n/a	n/a	n/a	n/a	"NULL"	n/a	"NULL"	"NULL"	"NULL"	"<p style=\"color: black; font-size: 80px; padding-left: 4%; padding-right: 39%; padding-top: 22%; padding-bottom: 24%\">+</p>"	"1171"	n/a	n/a	n/a	n/a	n/a	n/a	n/a	n/a	n/a
n/a	"image-keyboard-response"	"102"	"6944461"	"0.0-5.0-2.0-1.24"	"z7pjh0"	"563"	"1199"	"chrome"	"110.0.0"	"FALSE"	"Windows 10"	"60.44"	"036"	n/a	n/a	n/a	n/a	n/a	n/a	"Trial"	n/a	n/a	n/a	"1145"	"arrowright"	n/a	"NULL"	"NULL"	"NULL"	"stimuli/VerticalHorizontal_3.30000_-0.2250.png"	n/a	"VerticalHorizontal"	"arrowright"	"1182"	"TRUE"	"VerticalHorizontal"	"3.3000000000"	"-0.225000000"	"1"	"43"
n/a	"html-keyboard-response"	"103"	"6945916"	"0.0-5.0-2.0-0.25"	"z7pjh0"	"563"	"1199"	"chrome"	"110.0.0"	"FALSE"	"Windows 10"	"60.44"	"036"	n/a	n/a	n/a	n/a	n/a	n/a	"fixation"	n/a	n/a	n/a	n/a	"NULL"	n/a	"NULL"	"NULL"	"NULL"	"<p style=\"color: black; font-size: 80px; padding-left: 43%; padding-right: 35%; padding-top: 3%; padding-bottom: 4%\">+</p>"	"1443"	n/a	n/a	n/a	n/a	n/a	n/a	n/a	n/a	n/a
n/a	"image-keyboard-response"	"104"	"6946964"	"0.0-5.0-2.0-1.25"	"z7pjh0"	"563"	"1199"	"chrome"	"110.0.0"	"FALSE"	"Windows 10"	"60.44"	"036"	n/a	n/a	n/a	n/a	n/a	n/a	"Trial"	n/a	n/a	n/a	"1047"	"arrowright"	n/a	"NULL"	"NULL"	"NULL"	"stimuli/VerticalHorizontal_-20.27143_-0.16217.png"	n/a	"VerticalHorizontal"	"arrowright"	"1455"	"TRUE"	"VerticalHorizontal"	"-20.27143000"	"-0.162170000"	"1"	"44"
n/a	"html-keyboard-response"	"105"	"6948399"	"0.0-5.0-2.0-0.26"	"z7pjh0"	"563"	"1199"	"chrome"	"110.0.0"	"FALSE"	"Windows 10"	"60.44"	"036"	n/a	n/a	n/a	n/a	n/a	n/a	"fixation"	n/a	n/a	n/a	n/a	"NULL"	n/a	"NULL"	"NULL"	"NULL"	"<p style=\"color: black; font-size: 80px; padding-left: 4%; padding-right: 36%; padding-top: 39%; padding-bottom: 49%\">+</p>"	"1433"	n/a	n/a	n/a	n/a	n/a	n/a	n/a	n/a	n/a
n/a	"image-keyboard-response"	"106"	"6949433"	"0.0-5.0-2.0-1.26"	"z7pjh0"	"563"	"1199"	"chrome"	"110.0.0"	"FALSE"	"Windows 10"	"60.44"	"036"	n/a	n/a	n/a	n/a	n/a	n/a	"Trial"	n/a	n/a	n/a	"1033"	"arrowleft"	n/a	"NULL"	"NULL"	"NULL"	"stimuli/VerticalHorizontal_3.30000_0.22500.png"	n/a	"VerticalHorizontal"	"arrowleft"	"1435"	"TRUE"	"VerticalHorizontal"	"3.3000000000"	"0.2250000000"	"1"	"45"
n/a	"html-keyboard-response"	"107"	"6950501"	"0.0-5.0-2.0-0.27"	"z7pjh0"	"563"	"1199"	"chrome"	"110.0.0"	"FALSE"	"Windows 10"	"60.44"	"036"	n/a	n/a	n/a	n/a	n/a	n/a	"fixation"	n/a	n/a	n/a	n/a	"NULL"	n/a	"NULL"	"NULL"	"NULL"	"<p style=\"color: black; font-size: 80px; padding-left: 23%; padding-right: 48%; padding-top: 36%; padding-bottom: 27%\">+</p>"	"1055"	n/a	n/a	n/a	n/a	n/a	n/a	n/a	n/a	n/a
n/a	"image-keyboard-response"	"108"	"6951665"	"0.0-5.0-2.0-1.27"	"z7pjh0"	"563"	"1199"	"chrome"	"110.0.0"	"FALSE"	"Windows 10"	"60.44"	"036"	n/a	n/a	n/a	n/a	n/a	n/a	"Trial"	n/a	n/a	n/a	"1163"	"arrowright"	n/a	"NULL"	"NULL"	"NULL"	"stimuli/VerticalHorizontal_20.27143_-0.2250.png"	n/a	"VerticalHorizontal"	"arrowright"	"1068"	"TRUE"	"VerticalHorizontal"	"20.271430000"	"-0.225000000"	"1"	"46"
n/a	"html-keyboard-response"	"109"	"6952939"	"0.0-5.0-2.0-0.28"	"z7pjh0"	"563"	"1199"	"chrome"	"110.0.0"	"FALSE"	"Windows 10"	"60.44"	"036"	n/a	n/a	n/a	n/a	n/a	n/a	"fixation"	n/a	n/a	n/a	n/a	"NULL"	n/a	"NULL"	"NULL"	"NULL"	"<p style=\"color: black; font-size: 80px; padding-left: 33%; padding-right: 40%; padding-top: 41%; padding-bottom: 0%\">+</p>"	"1270"	n/a	n/a	n/a	n/a	n/a	n/a	n/a	n/a	n/a
n/a	"image-keyboard-response"	"110"	"6954243"	"0.0-5.0-2.0-1.28"	"z7pjh0"	"563"	"1199"	"chrome"	"110.0.0"	"FALSE"	"Windows 10"	"60.44"	"036"	n/a	n/a	n/a	n/a	n/a	n/a	"Trial"	n/a	n/a	n/a	"1302"	"arrowleft"	n/a	"NULL"	"NULL"	"NULL"	"stimuli/VerticalHorizontal_28.75714_-0.0673.png"	n/a	"VerticalHorizontal"	"arrowright"	"1274"	"FALSE"	"VerticalHorizontal"	"28.757140000"	"-0.067300000"	"1"	"47"
n/a	"html-keyboard-response"	"111"	"6955271"	"0.0-5.0-2.0-0.29"	"z7pjh0"	"563"	"1199"	"chrome"	"110.0.0"	"FALSE"	"Windows 10"	"60.44"	"036"	n/a	n/a	n/a	n/a	n/a	n/a	"fixation"	n/a	n/a	n/a	n/a	"NULL"	n/a	"NULL"	"NULL"	"NULL"	"<p style=\"color: black; font-size: 80px; padding-left: 38%; padding-right: 2%; padding-top: 10%; padding-bottom: 1%\">+</p>"	"1025"	n/a	n/a	n/a	n/a	n/a	n/a	n/a	n/a	n/a
n/a	"image-keyboard-response"	"112"	"6956445"	"0.0-5.0-2.0-1.29"	"z7pjh0"	"563"	"1199"	"chrome"	"110.0.0"	"FALSE"	"Windows 10"	"60.44"	"036"	n/a	n/a	n/a	n/a	n/a	n/a	"Trial"	n/a	n/a	n/a	"1172"	"arrowleft"	n/a	"NULL"	"NULL"	"NULL"	"stimuli/VerticalHorizontal_-28.75714_0.10960.png"	n/a	"VerticalHorizontal"	"arrowleft"	"1028"	"TRUE"	"VerticalHorizontal"	"-28.75714000"	"0.1096000000"	"1"	"48"
n/a	"html-keyboard-response"	"113"	"6957896"	"0.0-5.0-2.0-0.30"	"z7pjh0"	"563"	"1199"	"chrome"	"110.0.0"	"FALSE"	"Windows 10"	"60.44"	"036"	n/a	n/a	n/a	n/a	n/a	n/a	"fixation"	n/a	n/a	n/a	n/a	"NULL"	n/a	"NULL"	"NULL"	"NULL"	"<p style=\"color: black; font-size: 80px; padding-left: 28%; padding-right: 22%; padding-top: 43%; padding-bottom: 48%\">+</p>"	"1446"	n/a	n/a	n/a	n/a	n/a	n/a	n/a	n/a	n/a
n/a	"image-keyboard-response"	"114"	"6958993"	"0.0-5.0-2.0-1.30"	"z7pjh0"	"563"	"1199"	"chrome"	"110.0.0"	"FALSE"	"Windows 10"	"60.44"	"036"	n/a	n/a	n/a	n/a	n/a	n/a	"Trial"	n/a	n/a	n/a	"1096"	"arrowright"	n/a	"NULL"	"NULL"	"NULL"	"stimuli/VerticalHorizontal_-11.78571_-0.1096.png"	n/a	"VerticalHorizontal"	"arrowright"	"1451"	"TRUE"	"VerticalHorizontal"	"-11.78571000"	"-0.109600000"	"1"	"49"
n/a	"html-keyboard-response"	"115"	"6960376"	"0.0-5.0-2.0-0.31"	"z7pjh0"	"563"	"1199"	"chrome"	"110.0.0"	"FALSE"	"Windows 10"	"60.44"	"036"	n/a	n/a	n/a	n/a	n/a	n/a	"fixation"	n/a	n/a	n/a	n/a	"NULL"	n/a	"NULL"	"NULL"	"NULL"	"<p style=\"color: black; font-size: 80px; padding-left: 19%; padding-right: 19%; padding-top: 39%; padding-bottom: 41%\">+</p>"	"1379"	n/a	n/a	n/a	n/a	n/a	n/a	n/a	n/a	n/a
n/a	"image-keyboard-response"	"116"	"6961625"	"0.0-5.0-2.0-1.31"	"z7pjh0"	"563"	"1199"	"chrome"	"110.0.0"	"FALSE"	"Windows 10"	"60.44"	"036"	n/a	n/a	n/a	n/a	n/a	n/a	"Trial"	n/a	n/a	n/a	"1249"	"arrowright"	n/a	"NULL"	"NULL"	"NULL"	"stimuli/VerticalHorizontal_28.75714_-0.16217.png"	n/a	"VerticalHorizontal"	"arrowright"	"1383"	"TRUE"	"VerticalHorizontal"	"28.757140000"	"-0.162170000"	"1"	"50"
n/a	"html-keyboard-response"	"117"	"6962820"	"0.0-5.0-2.0-0.32"	"z7pjh0"	"563"	"1199"	"chrome"	"110.0.0"	"FALSE"	"Windows 10"	"60.44"	"036"	n/a	n/a	n/a	n/a	n/a	n/a	"fixation"	n/a	n/a	n/a	n/a	"NULL"	n/a	"NULL"	"NULL"	"NULL"	"<p style=\"color: black; font-size: 80px; padding-left: 13%; padding-right: 22%; padding-top: 43%; padding-bottom: 41%\">+</p>"	"1191"	n/a	n/a	n/a	n/a	n/a	n/a	n/a	n/a	n/a
n/a	"image-keyboard-response"	"118"	"6964286"	"0.0-5.0-2.0-1.32"	"z7pjh0"	"563"	"1199"	"chrome"	"110.0.0"	"FALSE"	"Windows 10"	"60.44"	"036"	n/a	n/a	n/a	n/a	n/a	n/a	"Trial"	n/a	n/a	n/a	"1465"	"arrowright"	n/a	"NULL"	"NULL"	"NULL"	"stimuli/VerticalHorizontal_-20.27143_-0.0673.png"	n/a	"VerticalHorizontal"	"arrowright"	"1195"	"TRUE"	"VerticalHorizontal"	"-20.27143000"	"-0.067300000"	"1"	"51"
n/a	"html-keyboard-response"	"119"	"6965642"	"0.0-5.0-2.0-0.33"	"z7pjh0"	"563"	"1199"	"chrome"	"110.0.0"	"FALSE"	"Windows 10"	"60.44"	"036"	n/a	n/a	n/a	n/a	n/a	n/a	"fixation"	n/a	n/a	n/a	n/a	"NULL"	n/a	"NULL"	"NULL"	"NULL"	"<p style=\"color: black; font-size: 80px; padding-left: 6%; padding-right: 14%; padding-top: 26%; padding-bottom: 22%\">+</p>"	"1350"	n/a	n/a	n/a	n/a	n/a	n/a	n/a	n/a	n/a
n/a	"image-keyboard-response"	"120"	"6966877"	"0.0-5.0-2.0-1.33"	"z7pjh0"	"563"	"1199"	"chrome"	"110.0.0"	"FALSE"	"Windows 10"	"60.44"	"036"	n/a	n/a	n/a	n/a	n/a	n/a	"Trial"	n/a	n/a	n/a	"1234"	"arrowleft"	n/a	"NULL"	"NULL"	"NULL"	"stimuli/VerticalHorizontal_-3.3000_0.10960.png"	n/a	"VerticalHorizontal"	"arrowleft"	"1356"	"TRUE"	"VerticalHorizontal"	"-3.300000000"	"0.1096000000"	"1"	"52"
n/a	"html-keyboard-response"	"121"	"6968253"	"0.0-5.0-2.0-0.34"	"z7pjh0"	"563"	"1199"	"chrome"	"110.0.0"	"FALSE"	"Windows 10"	"60.44"	"036"	n/a	n/a	n/a	n/a	n/a	n/a	"fixation"	n/a	n/a	n/a	n/a	"NULL"	n/a	"NULL"	"NULL"	"NULL"	"<p style=\"color: black; font-size: 80px; padding-left: 10%; padding-right: 41%; padding-top: 11%; padding-bottom: 4%\">+</p>"	"1362"	n/a	n/a	n/a	n/a	n/a	n/a	n/a	n/a	n/a
n/a	"image-keyboard-response"	"122"	"6969338"	"0.0-5.0-2.0-1.34"	"z7pjh0"	"563"	"1199"	"chrome"	"110.0.0"	"FALSE"	"Windows 10"	"60.44"	"036"	n/a	n/a	n/a	n/a	n/a	n/a	"Trial"	n/a	n/a	n/a	"1084"	"arrowright"	n/a	"NULL"	"NULL"	"NULL"	"stimuli/VerticalHorizontal_-3.3000_-0.1096.png"	n/a	"VerticalHorizontal"	"arrowright"	"1376"	"TRUE"	"VerticalHorizontal"	"-3.300000000"	"-0.109600000"	"1"	"53"
n/a	"html-keyboard-response"	"123"	"6970439"	"0.0-5.0-2.0-0.35"	"z7pjh0"	"563"	"1199"	"chrome"	"110.0.0"	"FALSE"	"Windows 10"	"60.44"	"036"	n/a	n/a	n/a	n/a	n/a	n/a	"fixation"	n/a	n/a	n/a	n/a	"NULL"	n/a	"NULL"	"NULL"	"NULL"	"<p style=\"color: black; font-size: 80px; padding-left: 41%; padding-right: 4%; padding-top: 10%; padding-bottom: 24%\">+</p>"	"1093"	n/a	n/a	n/a	n/a	n/a	n/a	n/a	n/a	n/a
n/a	"image-keyboard-response"	"124"	"6971594"	"0.0-5.0-2.0-1.35"	"z7pjh0"	"563"	"1199"	"chrome"	"110.0.0"	"FALSE"	"Windows 10"	"60.44"	"036"	n/a	n/a	n/a	n/a	n/a	n/a	"Trial"	n/a	n/a	n/a	"1154"	"arrowleft"	n/a	"NULL"	"NULL"	"NULL"	"stimuli/VerticalHorizontal_3.30000_0.16217.png"	n/a	"VerticalHorizontal"	"arrowleft"	"1101"	"TRUE"	"VerticalHorizontal"	"3.3000000000"	"0.1621700000"	"1"	"54"
n/a	"html-keyboard-response"	"125"	"6972800"	"0.0-5.0-2.0-0.36"	"z7pjh0"	"563"	"1199"	"chrome"	"110.0.0"	"FALSE"	"Windows 10"	"60.44"	"036"	n/a	n/a	n/a	n/a	n/a	n/a	"fixation"	n/a	n/a	n/a	n/a	"NULL"	n/a	"NULL"	"NULL"	"NULL"	"<p style=\"color: black; font-size: 80px; padding-left: 14%; padding-right: 3%; padding-top: 15%; padding-bottom: 33%\">+</p>"	"1195"	n/a	n/a	n/a	n/a	n/a	n/a	n/a	n/a	n/a
n/a	"image-keyboard-response"	"126"	"6973917"	"0.0-5.0-2.0-1.36"	"z7pjh0"	"563"	"1199"	"chrome"	"110.0.0"	"FALSE"	"Windows 10"	"60.44"	"036"	n/a	n/a	n/a	n/a	n/a	n/a	"Trial"	n/a	n/a	n/a	"1117"	"arrowleft"	n/a	"NULL"	"NULL"	"NULL"	"stimuli/VerticalHorizontal_-28.75714_0.16217.png"	n/a	"VerticalHorizontal"	"arrowleft"	"1206"	"TRUE"	"VerticalHorizontal"	"-28.75714000"	"0.1621700000"	"1"	"55"
n/a	"html-keyboard-response"	"127"	"6974944"	"0.0-5.0-2.0-0.37"	"z7pjh0"	"563"	"1199"	"chrome"	"110.0.0"	"FALSE"	"Windows 10"	"60.44"	"036"	n/a	n/a	n/a	n/a	n/a	n/a	"fixation"	n/a	n/a	n/a	n/a	"NULL"	n/a	"NULL"	"NULL"	"NULL"	"<p style=\"color: black; font-size: 80px; padding-left: 26%; padding-right: 42%; padding-top: 30%; padding-bottom: 44%\">+</p>"	"1022"	n/a	n/a	n/a	n/a	n/a	n/a	n/a	n/a	n/a
n/a	"image-keyboard-response"	"128"	"6976098"	"0.0-5.0-2.0-1.37"	"z7pjh0"	"563"	"1199"	"chrome"	"110.0.0"	"FALSE"	"Windows 10"	"60.44"	"036"	n/a	n/a	n/a	n/a	n/a	n/a	"Trial"	n/a	n/a	n/a	"1153"	"arrowright"	n/a	"NULL"	"NULL"	"NULL"	"stimuli/VerticalHorizontal_-11.78571_-0.2250.png"	n/a	"VerticalHorizontal"	"arrowright"	"1027"	"TRUE"	"VerticalHorizontal"	"-11.78571000"	"-0.225000000"	"1"	"56"
n/a	"html-keyboard-response"	"129"	"6977257"	"0.0-5.0-2.0-0.38"	"z7pjh0"	"563"	"1199"	"chrome"	"110.0.0"	"FALSE"	"Windows 10"	"60.44"	"036"	n/a	n/a	n/a	n/a	n/a	n/a	"fixation"	n/a	n/a	n/a	n/a	"NULL"	n/a	"NULL"	"NULL"	"NULL"	"<p style=\"color: black; font-size: 80px; padding-left: 47%; padding-right: 19%; padding-top: 25%; padding-bottom: 42%\">+</p>"	"1147"	n/a	n/a	n/a	n/a	n/a	n/a	n/a	n/a	n/a
n/a	"image-keyboard-response"	"130"	"6978352"	"0.0-5.0-2.0-1.38"	"z7pjh0"	"563"	"1199"	"chrome"	"110.0.0"	"FALSE"	"Windows 10"	"60.44"	"036"	n/a	n/a	n/a	n/a	n/a	n/a	"Trial"	n/a	n/a	n/a	"1095"	"arrowleft"	n/a	"NULL"	"NULL"	"NULL"	"stimuli/VerticalHorizontal_-11.78571_0.22500.png"	n/a	"VerticalHorizontal"	"arrowleft"	"1159"	"TRUE"	"VerticalHorizontal"	"-11.78571000"	"0.2250000000"	"1"	"57"
n/a	"html-keyboard-response"	"131"	"6979784"	"0.0-5.0-2.0-0.39"	"z7pjh0"	"563"	"1199"	"chrome"	"110.0.0"	"FALSE"	"Windows 10"	"60.44"	"036"	n/a	n/a	n/a	n/a	n/a	n/a	"fixation"	n/a	n/a	n/a	n/a	"NULL"	n/a	"NULL"	"NULL"	"NULL"	"<p style=\"color: black; font-size: 80px; padding-left: 7%; padding-right: 43%; padding-top: 18%; padding-bottom: 6%\">+</p>"	"1414"	n/a	n/a	n/a	n/a	n/a	n/a	n/a	n/a	n/a
n/a	"image-keyboard-response"	"132"	"6980915"	"0.0-5.0-2.0-1.39"	"z7pjh0"	"563"	"1199"	"chrome"	"110.0.0"	"FALSE"	"Windows 10"	"60.44"	"036"	n/a	n/a	n/a	n/a	n/a	n/a	"Trial"	n/a	n/a	n/a	"1131"	"arrowright"	n/a	"NULL"	"NULL"	"NULL"	"stimuli/VerticalHorizontal_-3.3000_-0.16217.png"	n/a	"VerticalHorizontal"	"arrowright"	"1432"	"TRUE"	"VerticalHorizontal"	"-3.300000000"	"-0.162170000"	"1"	"58"
n/a	"html-keyboard-response"	"133"	"6982056"	"0.0-5.0-2.0-0.40"	"z7pjh0"	"563"	"1199"	"chrome"	"110.0.0"	"FALSE"	"Windows 10"	"60.44"	"036"	n/a	n/a	n/a	n/a	n/a	n/a	"fixation"	n/a	n/a	n/a	n/a	"NULL"	n/a	"NULL"	"NULL"	"NULL"	"<p style=\"color: black; font-size: 80px; padding-left: 19%; padding-right: 27%; padding-top: 27%; padding-bottom: 3%\">+</p>"	"1127"	n/a	n/a	n/a	n/a	n/a	n/a	n/a	n/a	n/a
n/a	"image-keyboard-response"	"134"	"6983111"	"0.0-5.0-2.0-1.40"	"z7pjh0"	"563"	"1199"	"chrome"	"110.0.0"	"FALSE"	"Windows 10"	"60.44"	"036"	n/a	n/a	n/a	n/a	n/a	n/a	"Trial"	n/a	n/a	n/a	"1054"	"arrowright"	n/a	"NULL"	"NULL"	"NULL"	"stimuli/VerticalHorizontal_3.30000_-0.16217.png"	n/a	"VerticalHorizontal"	"arrowright"	"1141"	"TRUE"	"VerticalHorizontal"	"3.3000000000"	"-0.162170000"	"1"	"59"
n/a	"html-keyboard-response"	"135"	"6984502"	"0.0-5.0-2.0-0.41"	"z7pjh0"	"563"	"1199"	"chrome"	"110.0.0"	"FALSE"	"Windows 10"	"60.44"	"036"	n/a	n/a	n/a	n/a	n/a	n/a	"fixation"	n/a	n/a	n/a	n/a	"NULL"	n/a	"NULL"	"NULL"	"NULL"	"<p style=\"color: black; font-size: 80px; padding-left: 7%; padding-right: 38%; padding-top: 43%; padding-bottom: 22%\">+</p>"	"1375"	n/a	n/a	n/a	n/a	n/a	n/a	n/a	n/a	n/a
n/a	"image-keyboard-response"	"136"	"6985517"	"0.0-5.0-2.0-1.41"	"z7pjh0"	"563"	"1199"	"chrome"	"110.0.0"	"FALSE"	"Windows 10"	"60.44"	"036"	n/a	n/a	n/a	n/a	n/a	n/a	"Trial"	n/a	n/a	n/a	"1014"	"arrowright"	n/a	"NULL"	"NULL"	"NULL"	"stimuli/VerticalHorizontal_-3.3000_-0.2250.png"	n/a	"VerticalHorizontal"	"arrowright"	"1391"	"TRUE"	"VerticalHorizontal"	"-3.300000000"	"-0.225000000"	"1"	"60"
n/a	"html-keyboard-response"	"137"	"6986756"	"0.0-5.0-2.0-0.42"	"z7pjh0"	"563"	"1199"	"chrome"	"110.0.0"	"FALSE"	"Windows 10"	"60.44"	"036"	n/a	n/a	n/a	n/a	n/a	n/a	"fixation"	n/a	n/a	n/a	n/a	"NULL"	n/a	"NULL"	"NULL"	"NULL"	"<p style=\"color: black; font-size: 80px; padding-left: 10%; padding-right: 2%; padding-top: 9%; padding-bottom: 31%\">+</p>"	"1227"	n/a	n/a	n/a	n/a	n/a	n/a	n/a	n/a	n/a
n/a	"image-keyboard-response"	"138"	"6987838"	"0.0-5.0-2.0-1.42"	"z7pjh0"	"563"	"1199"	"chrome"	"110.0.0"	"FALSE"	"Windows 10"	"60.44"	"036"	n/a	n/a	n/a	n/a	n/a	n/a	"Trial"	n/a	n/a	n/a	"1081"	"arrowright"	n/a	"NULL"	"NULL"	"NULL"	"stimuli/VerticalHorizontal_-11.78571_-0.0673.png"	n/a	"VerticalHorizontal"	"arrowright"	"1239"	"TRUE"	"VerticalHorizontal"	"-11.78571000"	"-0.067300000"	"1"	"61"
n/a	"html-keyboard-response"	"139"	"6989049"	"0.0-5.0-2.0-0.43"	"z7pjh0"	"563"	"1199"	"chrome"	"110.0.0"	"FALSE"	"Windows 10"	"60.44"	"036"	n/a	n/a	n/a	n/a	n/a	n/a	"fixation"	n/a	n/a	n/a	n/a	"NULL"	n/a	"NULL"	"NULL"	"NULL"	"<p style=\"color: black; font-size: 80px; padding-left: 3%; padding-right: 33%; padding-top: 31%; padding-bottom: 9%\">+</p>"	"1203"	n/a	n/a	n/a	n/a	n/a	n/a	n/a	n/a	n/a
n/a	"image-keyboard-response"	"140"	"6990062"	"0.0-5.0-2.0-1.43"	"z7pjh0"	"563"	"1199"	"chrome"	"110.0.0"	"FALSE"	"Windows 10"	"60.44"	"036"	n/a	n/a	n/a	n/a	n/a	n/a	"Trial"	n/a	n/a	n/a	"1012"	"arrowleft"	n/a	"NULL"	"NULL"	"NULL"	"stimuli/VerticalHorizontal_20.27143_0.22500.png"	n/a	"VerticalHorizontal"	"arrowleft"	"1211"	"TRUE"	"VerticalHorizontal"	"20.271430000"	"0.2250000000"	"1"	"62"
n/a	"html-keyboard-response"	"141"	"6991109"	"0.0-5.0-2.0-0.44"	"z7pjh0"	"563"	"1199"	"chrome"	"110.0.0"	"FALSE"	"Windows 10"	"60.44"	"036"	n/a	n/a	n/a	n/a	n/a	n/a	"fixation"	n/a	n/a	n/a	n/a	"NULL"	n/a	"NULL"	"NULL"	"NULL"	"<p style=\"color: black; font-size: 80px; padding-left: 27%; padding-right: 32%; padding-top: 30%; padding-bottom: 12%\">+</p>"	"1046"	n/a	n/a	n/a	n/a	n/a	n/a	n/a	n/a	n/a
n/a	"image-keyboard-response"	"142"	"6992213"	"0.0-5.0-2.0-1.44"	"z7pjh0"	"563"	"1199"	"chrome"	"110.0.0"	"FALSE"	"Windows 10"	"60.44"	"036"	n/a	n/a	n/a	n/a	n/a	n/a	"Trial"	n/a	n/a	n/a	"1104"	"arrowleft"	n/a	"NULL"	"NULL"	"NULL"	"stimuli/VerticalHorizontal_-11.78571_0.10960.png"	n/a	"VerticalHorizontal"	"arrowleft"	"1047"	"TRUE"	"VerticalHorizontal"	"-11.78571000"	"0.1096000000"	"1"	"63"
n/a	"html-keyboard-response"	"143"	"6993575"	"0.0-5.0-2.0-0.45"	"z7pjh0"	"563"	"1199"	"chrome"	"110.0.0"	"FALSE"	"Windows 10"	"60.44"	"036"	n/a	n/a	n/a	n/a	n/a	n/a	"fixation"	n/a	n/a	n/a	n/a	"NULL"	n/a	"NULL"	"NULL"	"NULL"	"<p style=\"color: black; font-size: 80px; padding-left: 39%; padding-right: 14%; padding-top: 23%; padding-bottom: 28%\">+</p>"	"1357"	n/a	n/a	n/a	n/a	n/a	n/a	n/a	n/a	n/a
n/a	"image-keyboard-response"	"144"	"6994649"	"0.0-5.0-2.0-1.45"	"z7pjh0"	"563"	"1199"	"chrome"	"110.0.0"	"FALSE"	"Windows 10"	"60.44"	"036"	n/a	n/a	n/a	n/a	n/a	n/a	"Trial"	n/a	n/a	n/a	"1074"	"arrowright"	n/a	"NULL"	"NULL"	"NULL"	"stimuli/VerticalHorizontal_20.27143_-0.0673.png"	n/a	"VerticalHorizontal"	"arrowright"	"1362"	"TRUE"	"VerticalHorizontal"	"20.271430000"	"-0.067300000"	"1"	"64"
n/a	"html-keyboard-response"	"145"	"6996081"	"0.0-5.0-2.0-0.46"	"z7pjh0"	"563"	"1199"	"chrome"	"110.0.0"	"FALSE"	"Windows 10"	"60.44"	"036"	n/a	n/a	n/a	n/a	n/a	n/a	"fixation"	n/a	n/a	n/a	n/a	"NULL"	n/a	"NULL"	"NULL"	"NULL"	"<p style=\"color: black; font-size: 80px; padding-left: 48%; padding-right: 17%; padding-top: 27%; padding-bottom: 26%\">+</p>"	"1425"	n/a	n/a	n/a	n/a	n/a	n/a	n/a	n/a	n/a
n/a	"image-keyboard-response"	"146"	"6997029"	"0.0-5.0-2.0-1.46"	"z7pjh0"	"563"	"1199"	"chrome"	"110.0.0"	"FALSE"	"Windows 10"	"60.44"	"036"	n/a	n/a	n/a	n/a	n/a	n/a	"Trial"	n/a	n/a	n/a	"947"	"arrowleft"	n/a	"NULL"	"NULL"	"NULL"	"stimuli/VerticalHorizontal_-20.27143_0.16217.png"	n/a	"VerticalHorizontal"	"arrowleft"	"1432"	"TRUE"	"VerticalHorizontal"	"-20.27143000"	"0.1621700000"	"1"	"65"
n/a	"html-keyboard-response"	"147"	"6998476"	"0.0-5.0-2.0-0.47"	"z7pjh0"	"563"	"1199"	"chrome"	"110.0.0"	"FALSE"	"Windows 10"	"60.44"	"036"	n/a	n/a	n/a	n/a	n/a	n/a	"fixation"	n/a	n/a	n/a	n/a	"NULL"	n/a	"NULL"	"NULL"	"NULL"	"<p style=\"color: black; font-size: 80px; padding-left: 44%; padding-right: 49%; padding-top: 39%; padding-bottom: 41%\">+</p>"	"1431"	n/a	n/a	n/a	n/a	n/a	n/a	n/a	n/a	n/a
n/a	"image-keyboard-response"	"148"	"6999662"	"0.0-5.0-2.0-1.47"	"z7pjh0"	"563"	"1199"	"chrome"	"110.0.0"	"FALSE"	"Windows 10"	"60.44"	"036"	n/a	n/a	n/a	n/a	n/a	n/a	"Trial"	n/a	n/a	n/a	"1184"	"arrowleft"	n/a	"NULL"	"NULL"	"NULL"	"stimuli/VerticalHorizontal_-3.3000_0.06730.png"	n/a	"VerticalHorizontal"	"arrowleft"	"1447"	"TRUE"	"VerticalHorizontal"	"-3.300000000"	"0.0673000000"	"1"	"66"
n/a	"html-keyboard-response"	"149"	"7000971"	"0.0-5.0-2.0-0.48"	"z7pjh0"	"563"	"1199"	"chrome"	"110.0.0"	"FALSE"	"Windows 10"	"60.44"	"036"	n/a	n/a	n/a	n/a	n/a	n/a	"fixation"	n/a	n/a	n/a	n/a	"NULL"	n/a	"NULL"	"NULL"	"NULL"	"<p style=\"color: black; font-size: 80px; padding-left: 7%; padding-right: 23%; padding-top: 42%; padding-bottom: 38%\">+</p>"	"1305"	n/a	n/a	n/a	n/a	n/a	n/a	n/a	n/a	n/a
n/a	"image-keyboard-response"	"150"	"7002217"	"0.0-5.0-2.0-1.48"	"z7pjh0"	"563"	"1199"	"chrome"	"110.0.0"	"FALSE"	"Windows 10"	"60.44"	"036"	n/a	n/a	n/a	n/a	n/a	n/a	"Trial"	n/a	n/a	n/a	"1246"	"arrowleft"	n/a	"NULL"	"NULL"	"NULL"	"stimuli/VerticalHorizontal_-28.75714_0.22500.png"	n/a	"VerticalHorizontal"	"arrowleft"	"1309"	"TRUE"	"VerticalHorizontal"	"-28.75714000"	"0.2250000000"	"1"	"67"
n/a	"html-keyboard-response"	"151"	"7003309"	"0.0-5.0-2.0-0.49"	"z7pjh0"	"563"	"1199"	"chrome"	"110.0.0"	"FALSE"	"Windows 10"	"60.44"	"036"	n/a	n/a	n/a	n/a	n/a	n/a	"fixation"	n/a	n/a	n/a	n/a	"NULL"	n/a	"NULL"	"NULL"	"NULL"	"<p style=\"color: black; font-size: 80px; padding-left: 11%; padding-right: 7%; padding-top: 47%; padding-bottom: 25%\">+</p>"	"1085"	n/a	n/a	n/a	n/a	n/a	n/a	n/a	n/a	n/a
n/a	"image-keyboard-response"	"152"	"7004678"	"0.0-5.0-2.0-1.49"	"z7pjh0"	"563"	"1199"	"chrome"	"110.0.0"	"FALSE"	"Windows 10"	"60.44"	"036"	n/a	n/a	n/a	n/a	n/a	n/a	"Trial"	n/a	n/a	n/a	"1368"	"arrowleft"	n/a	"NULL"	"NULL"	"NULL"	"stimuli/VerticalHorizontal_-3.3000_-0.0673.png"	n/a	"VerticalHorizontal"	"arrowright"	"1092"	"FALSE"	"VerticalHorizontal"	"-3.300000000"	"-0.067300000"	"1"	"68"
n/a	"html-keyboard-response"	"153"	"7006129"	"0.0-5.0-2.0-0.50"	"z7pjh0"	"563"	"1199"	"chrome"	"110.0.0"	"FALSE"	"Windows 10"	"60.44"	"036"	n/a	n/a	n/a	n/a	n/a	n/a	"fixation"	n/a	n/a	n/a	n/a	"NULL"	n/a	"NULL"	"NULL"	"NULL"	"<p style=\"color: black; font-size: 80px; padding-left: 41%; padding-right: 48%; padding-top: 5%; padding-bottom: 10%\">+</p>"	"1449"	n/a	n/a	n/a	n/a	n/a	n/a	n/a	n/a	n/a
n/a	"image-keyboard-response"	"154"	"7007328"	"0.0-5.0-2.0-1.50"	"z7pjh0"	"563"	"1199"	"chrome"	"110.0.0"	"FALSE"	"Windows 10"	"60.44"	"036"	n/a	n/a	n/a	n/a	n/a	n/a	"Trial"	n/a	n/a	n/a	"1199"	"arrowright"	n/a	"NULL"	"NULL"	"NULL"	"stimuli/VerticalHorizontal_-28.75714_-0.16217.png"	n/a	"VerticalHorizontal"	"arrowright"	"1451"	"TRUE"	"VerticalHorizontal"	"-28.75714000"	"-0.162170000"	"1"	"69"
n/a	"html-keyboard-response"	"155"	"7008782"	"0.0-5.0-2.0-0.51"	"z7pjh0"	"563"	"1199"	"chrome"	"110.0.0"	"FALSE"	"Windows 10"	"60.44"	"036"	n/a	n/a	n/a	n/a	n/a	n/a	"fixation"	n/a	n/a	n/a	n/a	"NULL"	n/a	"NULL"	"NULL"	"NULL"	"<p style=\"color: black; font-size: 80px; padding-left: 2%; padding-right: 7%; padding-top: 29%; padding-bottom: 12%\">+</p>"	"1447"	n/a	n/a	n/a	n/a	n/a	n/a	n/a	n/a	n/a
n/a	"image-keyboard-response"	"156"	"7009873"	"0.0-5.0-2.0-1.51"	"z7pjh0"	"563"	"1199"	"chrome"	"110.0.0"	"FALSE"	"Windows 10"	"60.44"	"036"	n/a	n/a	n/a	n/a	n/a	n/a	"Trial"	n/a	n/a	n/a	"1090"	"arrowleft"	n/a	"NULL"	"NULL"	"NULL"	"stimuli/VerticalHorizontal_-3.3000_0.22500.png"	n/a	"VerticalHorizontal"	"arrowleft"	"1454"	"TRUE"	"VerticalHorizontal"	"-3.300000000"	"0.2250000000"	"1"	"70"
n/a	"html-keyboard-response"	"157"	"7011342"	"0.0-5.0-2.0-0.52"	"z7pjh0"	"563"	"1199"	"chrome"	"110.0.0"	"FALSE"	"Windows 10"	"60.44"	"036"	n/a	n/a	n/a	n/a	n/a	n/a	"fixation"	n/a	n/a	n/a	n/a	"NULL"	n/a	"NULL"	"NULL"	"NULL"	"<p style=\"color: black; font-size: 80px; padding-left: 27%; padding-right: 39%; padding-top: 11%; padding-bottom: 32%\">+</p>"	"1465"	n/a	n/a	n/a	n/a	n/a	n/a	n/a	n/a	n/a
n/a	"image-keyboard-response"	"158"	"7012478"	"0.0-5.0-2.0-1.52"	"z7pjh0"	"563"	"1199"	"chrome"	"110.0.0"	"FALSE"	"Windows 10"	"60.44"	"036"	n/a	n/a	n/a	n/a	n/a	n/a	"Trial"	n/a	n/a	n/a	"1135"	"arrowleft"	n/a	"NULL"	"NULL"	"NULL"	"stimuli/VerticalHorizontal_28.75714_0.22500.png"	n/a	"VerticalHorizontal"	"arrowleft"	"1469"	"TRUE"	"VerticalHorizontal"	"28.757140000"	"0.2250000000"	"1"	"71"
n/a	"html-keyboard-response"	"159"	"7013833"	"0.0-5.0-2.0-0.53"	"z7pjh0"	"563"	"1199"	"chrome"	"110.0.0"	"FALSE"	"Windows 10"	"60.44"	"036"	n/a	n/a	n/a	n/a	n/a	n/a	"fixation"	n/a	n/a	n/a	n/a	"NULL"	n/a	"NULL"	"NULL"	"NULL"	"<p style=\"color: black; font-size: 80px; padding-left: 26%; padding-right: 39%; padding-top: 29%; padding-bottom: 18%\">+</p>"	"1339"	n/a	n/a	n/a	n/a	n/a	n/a	n/a	n/a	n/a
n/a	"image-keyboard-response"	"160"	"7015016"	"0.0-5.0-2.0-1.53"	"z7pjh0"	"563"	"1199"	"chrome"	"110.0.0"	"FALSE"	"Windows 10"	"60.44"	"036"	n/a	n/a	n/a	n/a	n/a	n/a	"Trial"	n/a	n/a	n/a	"1182"	"arrowright"	n/a	"NULL"	"NULL"	"NULL"	"stimuli/VerticalHorizontal_-28.75714_-0.2250.png"	n/a	"VerticalHorizontal"	"arrowright"	"1355"	"TRUE"	"VerticalHorizontal"	"-28.75714000"	"-0.225000000"	"1"	"72"
n/a	"html-keyboard-response"	"161"	"7016395"	"0.0-5.0-2.0-0.54"	"z7pjh0"	"563"	"1199"	"chrome"	"110.0.0"	"FALSE"	"Windows 10"	"60.44"	"036"	n/a	n/a	n/a	n/a	n/a	n/a	"fixation"	n/a	n/a	n/a	n/a	"NULL"	n/a	"NULL"	"NULL"	"NULL"	"<p style=\"color: black; font-size: 80px; padding-left: 1%; padding-right: 42%; padding-top: 29%; padding-bottom: 17%\">+</p>"	"1373"	n/a	n/a	n/a	n/a	n/a	n/a	n/a	n/a	n/a
n/a	"image-keyboard-response"	"162"	"7017776"	"0.0-5.0-2.0-1.54"	"z7pjh0"	"563"	"1199"	"chrome"	"110.0.0"	"FALSE"	"Windows 10"	"60.44"	"036"	n/a	n/a	n/a	n/a	n/a	n/a	"Trial"	n/a	n/a	n/a	"1380"	"arrowleft"	n/a	"NULL"	"NULL"	"NULL"	"stimuli/VerticalHorizontal_20.27143_0.16217.png"	n/a	"VerticalHorizontal"	"arrowleft"	"1379"	"TRUE"	"VerticalHorizontal"	"20.271430000"	"0.1621700000"	"1"	"73"
n/a	"html-keyboard-response"	"163"	"7019042"	"0.0-5.0-2.0-0.55"	"z7pjh0"	"563"	"1199"	"chrome"	"110.0.0"	"FALSE"	"Windows 10"	"60.44"	"036"	n/a	n/a	n/a	n/a	n/a	n/a	"fixation"	n/a	n/a	n/a	n/a	"NULL"	n/a	"NULL"	"NULL"	"NULL"	"<p style=\"color: black; font-size: 80px; padding-left: 1%; padding-right: 48%; padding-top: 44%; padding-bottom: 22%\">+</p>"	"1265"	n/a	n/a	n/a	n/a	n/a	n/a	n/a	n/a	n/a
n/a	"image-keyboard-response"	"164"	"7020399"	"0.0-5.0-2.0-1.55"	"z7pjh0"	"563"	"1199"	"chrome"	"110.0.0"	"FALSE"	"Windows 10"	"60.44"	"036"	n/a	n/a	n/a	n/a	n/a	n/a	"Trial"	n/a	n/a	n/a	"1356"	"arrowleft"	n/a	"NULL"	"NULL"	"NULL"	"stimuli/VerticalHorizontal_20.27143_0.06730.png"	n/a	"VerticalHorizontal"	"arrowleft"	"1266"	"TRUE"	"VerticalHorizontal"	"20.271430000"	"0.0673000000"	"1"	"74"
n/a	"html-keyboard-response"	"165"	"7021815"	"0.0-5.0-2.0-0.56"	"z7pjh0"	"563"	"1199"	"chrome"	"110.0.0"	"FALSE"	"Windows 10"	"60.44"	"036"	n/a	n/a	n/a	n/a	n/a	n/a	"fixation"	n/a	n/a	n/a	n/a	"NULL"	n/a	"NULL"	"NULL"	"NULL"	"<p style=\"color: black; font-size: 80px; padding-left: 39%; padding-right: 10%; padding-top: 3%; padding-bottom: 50%\">+</p>"	"1409"	n/a	n/a	n/a	n/a	n/a	n/a	n/a	n/a	n/a
n/a	"image-keyboard-response"	"166"	"7023230"	"0.0-5.0-2.0-1.56"	"z7pjh0"	"563"	"1199"	"chrome"	"110.0.0"	"FALSE"	"Windows 10"	"60.44"	"036"	n/a	n/a	n/a	n/a	n/a	n/a	"Trial"	n/a	n/a	n/a	"1414"	"arrowleft"	n/a	"NULL"	"NULL"	"NULL"	"stimuli/VerticalHorizontal_28.75714_0.06730.png"	n/a	"VerticalHorizontal"	"arrowleft"	"1416"	"TRUE"	"VerticalHorizontal"	"28.757140000"	"0.0673000000"	"1"	"75"
n/a	"html-keyboard-response"	"167"	"7024283"	"0.0-5.0-2.0-0.57"	"z7pjh0"	"563"	"1199"	"chrome"	"110.0.0"	"FALSE"	"Windows 10"	"60.44"	"036"	n/a	n/a	n/a	n/a	n/a	n/a	"fixation"	n/a	n/a	n/a	n/a	"NULL"	n/a	"NULL"	"NULL"	"NULL"	"<p style=\"color: black; font-size: 80px; padding-left: 35%; padding-right: 37%; padding-top: 33%; padding-bottom: 43%\">+</p>"	"1050"	n/a	n/a	n/a	n/a	n/a	n/a	n/a	n/a	n/a
n/a	"image-keyboard-response"	"168"	"7025533"	"0.0-5.0-2.0-1.57"	"z7pjh0"	"563"	"1199"	"chrome"	"110.0.0"	"FALSE"	"Windows 10"	"60.44"	"036"	n/a	n/a	n/a	n/a	n/a	n/a	"Trial"	n/a	n/a	n/a	"1250"	"arrowright"	n/a	"NULL"	"NULL"	"NULL"	"stimuli/VerticalHorizontal_11.78571_-0.0673.png"	n/a	"VerticalHorizontal"	"arrowright"	"1053"	"TRUE"	"VerticalHorizontal"	"11.785710000"	"-0.067300000"	"1"	"76"
n/a	"html-keyboard-response"	"169"	"7026642"	"0.0-5.0-2.0-0.58"	"z7pjh0"	"563"	"1199"	"chrome"	"110.0.0"	"FALSE"	"Windows 10"	"60.44"	"036"	n/a	n/a	n/a	n/a	n/a	n/a	"fixation"	n/a	n/a	n/a	n/a	"NULL"	n/a	"NULL"	"NULL"	"NULL"	"<p style=\"color: black; font-size: 80px; padding-left: 37%; padding-right: 44%; padding-top: 39%; padding-bottom: 29%\">+</p>"	"1102"	n/a	n/a	n/a	n/a	n/a	n/a	n/a	n/a	n/a
n/a	"image-keyboard-response"	"170"	"7028088"	"0.0-5.0-2.0-1.58"	"z7pjh0"	"563"	"1199"	"chrome"	"110.0.0"	"FALSE"	"Windows 10"	"60.44"	"036"	n/a	n/a	n/a	n/a	n/a	n/a	"Trial"	n/a	n/a	n/a	"1445"	"arrowleft"	n/a	"NULL"	"NULL"	"NULL"	"stimuli/VerticalHorizontal_-28.75714_0.06730.png"	n/a	"VerticalHorizontal"	"arrowleft"	"1109"	"TRUE"	"VerticalHorizontal"	"-28.75714000"	"0.0673000000"	"1"	"77"
n/a	"html-keyboard-response"	"171"	"7029112"	"0.0-5.0-2.0-0.59"	"z7pjh0"	"563"	"1199"	"chrome"	"110.0.0"	"FALSE"	"Windows 10"	"60.44"	"036"	n/a	n/a	n/a	n/a	n/a	n/a	"fixation"	n/a	n/a	n/a	n/a	"NULL"	n/a	"NULL"	"NULL"	"NULL"	"<p style=\"color: black; font-size: 80px; padding-left: 19%; padding-right: 38%; padding-top: 17%; padding-bottom: 24%\">+</p>"	"1008"	n/a	n/a	n/a	n/a	n/a	n/a	n/a	n/a	n/a
n/a	"image-keyboard-response"	"172"	"7030398"	"0.0-5.0-2.0-1.59"	"z7pjh0"	"563"	"1199"	"chrome"	"110.0.0"	"FALSE"	"Windows 10"	"60.44"	"036"	n/a	n/a	n/a	n/a	n/a	n/a	"Trial"	n/a	n/a	n/a	"1285"	"arrowleft"	n/a	"NULL"	"NULL"	"NULL"	"stimuli/VerticalHorizontal_3.30000_0.10960.png"	n/a	"VerticalHorizontal"	"arrowleft"	"1024"	"TRUE"	"VerticalHorizontal"	"3.3000000000"	"0.1096000000"	"1"	"78"
n/a	"html-keyboard-response"	"173"	"7031739"	"0.0-5.0-2.0-0.60"	"z7pjh0"	"563"	"1199"	"chrome"	"110.0.0"	"FALSE"	"Windows 10"	"60.44"	"036"	n/a	n/a	n/a	n/a	n/a	n/a	"fixation"	n/a	n/a	n/a	n/a	"NULL"	n/a	"NULL"	"NULL"	"NULL"	"<p style=\"color: black; font-size: 80px; padding-left: 43%; padding-right: 33%; padding-top: 9%; padding-bottom: 12%\">+</p>"	"1340"	n/a	n/a	n/a	n/a	n/a	n/a	n/a	n/a	n/a
n/a	"image-keyboard-response"	"174"	"7032968"	"0.0-5.0-2.0-1.60"	"z7pjh0"	"563"	"1199"	"chrome"	"110.0.0"	"FALSE"	"Windows 10"	"60.44"	"036"	n/a	n/a	n/a	n/a	n/a	n/a	"Trial"	n/a	n/a	n/a	"1228"	"arrowleft"	n/a	"NULL"	"NULL"	"NULL"	"stimuli/VerticalHorizontal_3.30000_0.06730.png"	n/a	"VerticalHorizontal"	"arrowleft"	"1341"	"TRUE"	"VerticalHorizontal"	"3.3000000000"	"0.0673000000"	"1"	"79"
n/a	"html-keyboard-response"	"175"	"7034178"	"0.0-5.0-2.0-0.61"	"z7pjh0"	"563"	"1199"	"chrome"	"110.0.0"	"FALSE"	"Windows 10"	"60.44"	"036"	n/a	n/a	n/a	n/a	n/a	n/a	"fixation"	n/a	n/a	n/a	n/a	"NULL"	n/a	"NULL"	"NULL"	"NULL"	"<p style=\"color: black; font-size: 80px; padding-left: 7%; padding-right: 32%; padding-top: 26%; padding-bottom: 5%\">+</p>"	"1208"	n/a	n/a	n/a	n/a	n/a	n/a	n/a	n/a	n/a
n/a	"image-keyboard-response"	"176"	"7035441"	"0.0-5.0-2.0-1.61"	"z7pjh0"	"563"	"1199"	"chrome"	"110.0.0"	"FALSE"	"Windows 10"	"60.44"	"036"	n/a	n/a	n/a	n/a	n/a	n/a	"Trial"	n/a	n/a	n/a	"1262"	"arrowleft"	n/a	"NULL"	"NULL"	"NULL"	"stimuli/VerticalHorizontal_-11.78571_0.06730.png"	n/a	"VerticalHorizontal"	"arrowleft"	"1210"	"TRUE"	"VerticalHorizontal"	"-11.78571000"	"0.0673000000"	"1"	"80"
n/a	"html-keyboard-response"	"177"	"7036625"	"0.0-5.0-2.0-0.62"	"z7pjh0"	"563"	"1199"	"chrome"	"110.0.0"	"FALSE"	"Windows 10"	"60.44"	"036"	n/a	n/a	n/a	n/a	n/a	n/a	"fixation"	n/a	n/a	n/a	n/a	"NULL"	n/a	"NULL"	"NULL"	"NULL"	"<p style=\"color: black; font-size: 80px; padding-left: 20%; padding-right: 42%; padding-top: 23%; padding-bottom: 27%\">+</p>"	"1171"	n/a	n/a	n/a	n/a	n/a	n/a	n/a	n/a	n/a
n/a	"image-keyboard-response"	"178"	"7037813"	"0.0-5.0-2.0-1.62"	"z7pjh0"	"563"	"1199"	"chrome"	"110.0.0"	"FALSE"	"Windows 10"	"60.44"	"036"	n/a	n/a	n/a	n/a	n/a	n/a	"Trial"	n/a	n/a	n/a	"1187"	"arrowright"	n/a	"NULL"	"NULL"	"NULL"	"stimuli/VerticalHorizontal_28.75714_-0.2250.png"	n/a	"VerticalHorizontal"	"arrowright"	"1184"	"TRUE"	"VerticalHorizontal"	"28.757140000"	"-0.225000000"	"1"	"81"
n/a	"html-keyboard-response"	"179"	"7039286"	"0.0-5.0-2.0-0.63"	"z7pjh0"	"563"	"1199"	"chrome"	"110.0.0"	"FALSE"	"Windows 10"	"60.44"	"036"	n/a	n/a	n/a	n/a	n/a	n/a	"fixation"	n/a	n/a	n/a	n/a	"NULL"	n/a	"NULL"	"NULL"	"NULL"	"<p style=\"color: black; font-size: 80px; padding-left: 34%; padding-right: 0%; padding-top: 39%; padding-bottom: 36%\">+</p>"	"1462"	n/a	n/a	n/a	n/a	n/a	n/a	n/a	n/a	n/a
n/a	"image-keyboard-response"	"180"	"7040567"	"0.0-5.0-2.0-1.63"	"z7pjh0"	"563"	"1199"	"chrome"	"110.0.0"	"FALSE"	"Windows 10"	"60.44"	"036"	n/a	n/a	n/a	n/a	n/a	n/a	"Trial"	n/a	n/a	n/a	"1280"	"arrowright"	n/a	"NULL"	"NULL"	"NULL"	"stimuli/VerticalHorizontal_11.78571_-0.2250.png"	n/a	"VerticalHorizontal"	"arrowright"	"1473"	"TRUE"	"VerticalHorizontal"	"11.785710000"	"-0.225000000"	"1"	"82"
n/a	"html-button-response"	"181"	"7060786"	"0.0-5.0-3.0"	"z7pjh0"	"563"	"1199"	"chrome"	"110.0.0"	"FALSE"	"Windows 10"	"60.44"	"036"	n/a	n/a	n/a	n/a	n/a	n/a	"block_results"	n/a	n/a	n/a	"20217"	"0"	n/a	"NULL"	"NULL"	"NULL"	"<p>Your score for this illusion is <p style=\"color: black; font-size: 48px; font-weight: bold;\">67.1 %</p><hr><p>Can you do better in the next illusion?</p>"	n/a	n/a	n/a	n/a	n/a	n/a	n/a	n/a	n/a	n/a
"TRUE"	"preload"	"182"	"7060938"	"0.0-6.0-0.0"	"z7pjh0"	"563"	"1199"	"chrome"	"110.0.0"	"FALSE"	"Windows 10"	"60.44"	"036"	n/a	n/a	n/a	n/a	n/a	n/a	n/a	n/a	n/a	n/a	n/a	"NULL"	"FALSE"	"list()"	"list()"	"list()"	n/a	n/a	n/a	n/a	n/a	n/a	n/a	n/a	n/a	n/a	n/a
n/a	"html-keyboard-response"	"183"	"7071130"	"0.0-6.0-1.0"	"z7pjh0"	"563"	"1199"	"chrome"	"110.0.0"	"FALSE"	"Windows 10"	"60.44"	"036"	n/a	n/a	n/a	n/a	n/a	n/a	n/a	n/a	n/a	n/a	"10191"	"enter"	n/a	"NULL"	"NULL"	"NULL"	"<p><b>Part 2/6</b></p><p>In this part, two horizontal red lines will appear one above the other.</p><p>Your task is to select which <b>line is longer</b> in length as fast as you can, without making errors.</p><p>Don't get distracted by the surrounding black arrows at the end of the red lines!</p><p>Press <b>the UP or the DOWN arrow</b> to indicate where is the longer <b>red line.</b></p><div style='float: center'><img src='materials/instructions/MullerLyer_Demo.png' height='300'></img><p><img src='utils/answer/answer_updown_keyboard.PNG' height='150'></img></p><p class='small'>In this example, the correct answer is the <b>UP arrow</b>.</p></div><p>Are you ready? <b>Press ENTER to start</b></p>"	n/a	n/a	n/a	n/a	n/a	n/a	n/a	n/a	n/a	n/a
n/a	"html-keyboard-response"	"184"	"7073047"	"0.0-6.0-2.0-0.0"	"z7pjh0"	"563"	"1199"	"chrome"	"110.0.0"	"FALSE"	"Windows 10"	"60.44"	"036"	n/a	n/a	n/a	n/a	n/a	n/a	"fixation"	n/a	n/a	n/a	n/a	"NULL"	n/a	"NULL"	"NULL"	"NULL"	"<p style=\"color: black; font-size: 80px; padding-left: 25%; padding-right: 35%; padding-top: 41%; padding-bottom: 34%\">+</p>"	"1394"	n/a	n/a	n/a	n/a	n/a	n/a	n/a	n/a	n/a
n/a	"image-keyboard-response"	"185"	"7073679"	"0.0-6.0-2.0-1.0"	"z7pjh0"	"563"	"1199"	"chrome"	"110.0.0"	"FALSE"	"Windows 10"	"60.44"	"036"	n/a	n/a	n/a	n/a	n/a	n/a	"Trial"	n/a	n/a	n/a	"631"	"arrowdown"	n/a	"NULL"	"NULL"	"NULL"	"stimuli/MullerLyer_-20.04286_-0.14541.png"	n/a	"MullerLyer"	"arrowdown"	"1917"	"TRUE"	"MullerLyer"	"-20.04286000"	"-0.145410000"	"2"	"1"
n/a	"html-keyboard-response"	"186"	"7075148"	"0.0-6.0-2.0-0.1"	"z7pjh0"	"563"	"1199"	"chrome"	"110.0.0"	"FALSE"	"Windows 10"	"60.44"	"036"	n/a	n/a	n/a	n/a	n/a	n/a	"fixation"	n/a	n/a	n/a	n/a	"NULL"	n/a	"NULL"	"NULL"	"NULL"	"<p style=\"color: black; font-size: 80px; padding-left: 38%; padding-right: 11%; padding-top: 33%; padding-bottom: 37%\">+</p>"	"1465"	n/a	n/a	n/a	n/a	n/a	n/a	n/a	n/a	n/a
n/a	"image-keyboard-response"	"187"	"7076117"	"0.0-6.0-2.0-1.1"	"z7pjh0"	"563"	"1199"	"chrome"	"110.0.0"	"FALSE"	"Windows 10"	"60.44"	"036"	n/a	n/a	n/a	n/a	n/a	n/a	"Trial"	n/a	n/a	n/a	"968"	"arrowup"	n/a	"NULL"	"NULL"	"NULL"	"stimuli/MullerLyer_-14.12857_0.14541.png"	n/a	"MullerLyer"	"arrowup"	"1469"	"TRUE"	"MullerLyer"	"-14.12857000"	"0.1454100000"	"2"	"2"
n/a	"html-keyboard-response"	"188"	"7077452"	"0.0-6.0-2.0-0.2"	"z7pjh0"	"563"	"1199"	"chrome"	"110.0.0"	"FALSE"	"Windows 10"	"60.44"	"036"	n/a	n/a	n/a	n/a	n/a	n/a	"fixation"	n/a	n/a	n/a	n/a	"NULL"	n/a	"NULL"	"NULL"	"NULL"	"<p style=\"color: black; font-size: 80px; padding-left: 4%; padding-right: 19%; padding-top: 13%; padding-bottom: 23%\">+</p>"	"1331"	n/a	n/a	n/a	n/a	n/a	n/a	n/a	n/a	n/a
n/a	"image-keyboard-response"	"189"	"7078542"	"0.0-6.0-2.0-1.2"	"z7pjh0"	"563"	"1199"	"chrome"	"110.0.0"	"FALSE"	"Windows 10"	"60.44"	"036"	n/a	n/a	n/a	n/a	n/a	n/a	"Trial"	n/a	n/a	n/a	"1089"	"arrowup"	n/a	"NULL"	"NULL"	"NULL"	"stimuli/MullerLyer_20.04286_-0.14541.png"	n/a	"MullerLyer"	"arrowdown"	"1335"	"FALSE"	"MullerLyer"	"20.042860000"	"-0.145410000"	"2"	"3"
n/a	"html-keyboard-response"	"190"	"7079969"	"0.0-6.0-2.0-0.3"	"z7pjh0"	"563"	"1199"	"chrome"	"110.0.0"	"FALSE"	"Windows 10"	"60.44"	"036"	n/a	n/a	n/a	n/a	n/a	n/a	"fixation"	n/a	n/a	n/a	n/a	"NULL"	n/a	"NULL"	"NULL"	"NULL"	"<p style=\"color: black; font-size: 80px; padding-left: 43%; padding-right: 21%; padding-top: 47%; padding-bottom: 23%\">+</p>"	"1417"	n/a	n/a	n/a	n/a	n/a	n/a	n/a	n/a	n/a
n/a	"image-keyboard-response"	"191"	"7081143"	"0.0-6.0-2.0-1.3"	"z7pjh0"	"563"	"1199"	"chrome"	"110.0.0"	"FALSE"	"Windows 10"	"60.44"	"036"	n/a	n/a	n/a	n/a	n/a	n/a	"Trial"	n/a	n/a	n/a	"1174"	"arrowdown"	n/a	"NULL"	"NULL"	"NULL"	"stimuli/MullerLyer_8.21429_-0.23665.png"	n/a	"MullerLyer"	"arrowdown"	"1427"	"TRUE"	"MullerLyer"	"8.2142900000"	"-0.236650000"	"2"	"4"
n/a	"html-keyboard-response"	"192"	"7082344"	"0.0-6.0-2.0-0.4"	"z7pjh0"	"563"	"1199"	"chrome"	"110.0.0"	"FALSE"	"Windows 10"	"60.44"	"036"	n/a	n/a	n/a	n/a	n/a	n/a	"fixation"	n/a	n/a	n/a	n/a	"NULL"	n/a	"NULL"	"NULL"	"NULL"	"<p style=\"color: black; font-size: 80px; padding-left: 44%; padding-right: 32%; padding-top: 44%; padding-bottom: 10%\">+</p>"	"1189"	n/a	n/a	n/a	n/a	n/a	n/a	n/a	n/a	n/a
n/a	"image-keyboard-response"	"193"	"7083208"	"0.0-6.0-2.0-1.4"	"z7pjh0"	"563"	"1199"	"chrome"	"110.0.0"	"FALSE"	"Windows 10"	"60.44"	"036"	n/a	n/a	n/a	n/a	n/a	n/a	"Trial"	n/a	n/a	n/a	"864"	"arrowup"	n/a	"NULL"	"NULL"	"NULL"	"stimuli/MullerLyer_-20.04286_0.23665.png"	n/a	"MullerLyer"	"arrowup"	"1201"	"TRUE"	"MullerLyer"	"-20.04286000"	"0.2366500000"	"2"	"5"
n/a	"html-keyboard-response"	"194"	"7084222"	"0.0-6.0-2.0-0.5"	"z7pjh0"	"563"	"1199"	"chrome"	"110.0.0"	"FALSE"	"Windows 10"	"60.44"	"036"	n/a	n/a	n/a	n/a	n/a	n/a	"fixation"	n/a	n/a	n/a	n/a	"NULL"	n/a	"NULL"	"NULL"	"NULL"	"<p style=\"color: black; font-size: 80px; padding-left: 41%; padding-right: 3%; padding-top: 16%; padding-bottom: 41%\">+</p>"	"1003"	n/a	n/a	n/a	n/a	n/a	n/a	n/a	n/a	n/a
n/a	"image-keyboard-response"	"195"	"7085224"	"0.0-6.0-2.0-1.5"	"z7pjh0"	"563"	"1199"	"chrome"	"110.0.0"	"FALSE"	"Windows 10"	"60.44"	"036"	n/a	n/a	n/a	n/a	n/a	n/a	"Trial"	n/a	n/a	n/a	"1002"	"arrowdown"	n/a	"NULL"	"NULL"	"NULL"	"stimuli/MullerLyer_14.12857_-0.23665.png"	n/a	"MullerLyer"	"arrowdown"	"1014"	"TRUE"	"MullerLyer"	"14.128570000"	"-0.236650000"	"2"	"6"
n/a	"html-keyboard-response"	"196"	"7086626"	"0.0-6.0-2.0-0.6"	"z7pjh0"	"563"	"1199"	"chrome"	"110.0.0"	"FALSE"	"Windows 10"	"60.44"	"036"	n/a	n/a	n/a	n/a	n/a	n/a	"fixation"	n/a	n/a	n/a	n/a	"NULL"	n/a	"NULL"	"NULL"	"NULL"	"<p style=\"color: black; font-size: 80px; padding-left: 26%; padding-right: 38%; padding-top: 8%; padding-bottom: 18%\">+</p>"	"1394"	n/a	n/a	n/a	n/a	n/a	n/a	n/a	n/a	n/a
n/a	"image-keyboard-response"	"197"	"7087755"	"0.0-6.0-2.0-1.6"	"z7pjh0"	"563"	"1199"	"chrome"	"110.0.0"	"FALSE"	"Windows 10"	"60.44"	"036"	n/a	n/a	n/a	n/a	n/a	n/a	"Trial"	n/a	n/a	n/a	"1128"	"arrowup"	n/a	"NULL"	"NULL"	"NULL"	"stimuli/MullerLyer_-8.21429_0.07627.png"	n/a	"MullerLyer"	"arrowup"	"1402"	"TRUE"	"MullerLyer"	"-8.214290000"	"0.0762700000"	"2"	"7"
n/a	"html-keyboard-response"	"198"	"7089237"	"0.0-6.0-2.0-0.7"	"z7pjh0"	"563"	"1199"	"chrome"	"110.0.0"	"FALSE"	"Windows 10"	"60.44"	"036"	n/a	n/a	n/a	n/a	n/a	n/a	"fixation"	n/a	n/a	n/a	n/a	"NULL"	n/a	"NULL"	"NULL"	"NULL"	"<p style=\"color: black; font-size: 80px; padding-left: 43%; padding-right: 17%; padding-top: 9%; padding-bottom: 13%\">+</p>"	"1468"	n/a	n/a	n/a	n/a	n/a	n/a	n/a	n/a	n/a
n/a	"image-keyboard-response"	"199"	"7089994"	"0.0-6.0-2.0-1.7"	"z7pjh0"	"563"	"1199"	"chrome"	"110.0.0"	"FALSE"	"Windows 10"	"60.44"	"036"	n/a	n/a	n/a	n/a	n/a	n/a	"Trial"	n/a	n/a	n/a	"756"	"arrowup"	n/a	"NULL"	"NULL"	"NULL"	"stimuli/MullerLyer_-20.04286_0.35000.png"	n/a	"MullerLyer"	"arrowup"	"1482"	"TRUE"	"MullerLyer"	"-20.04286000"	"0.3500000000"	"2"	"8"
n/a	"html-keyboard-response"	"200"	"7091314"	"0.0-6.0-2.0-0.8"	"z7pjh0"	"563"	"1199"	"chrome"	"110.0.0"	"FALSE"	"Windows 10"	"60.44"	"036"	n/a	n/a	n/a	n/a	n/a	n/a	"fixation"	n/a	n/a	n/a	n/a	"NULL"	n/a	"NULL"	"NULL"	"NULL"	"<p style=\"color: black; font-size: 80px; padding-left: 35%; padding-right: 43%; padding-top: 9%; padding-bottom: 35%\">+</p>"	"1310"	n/a	n/a	n/a	n/a	n/a	n/a	n/a	n/a	n/a
n/a	"image-keyboard-response"	"201"	"7092190"	"0.0-6.0-2.0-1.8"	"z7pjh0"	"563"	"1199"	"chrome"	"110.0.0"	"FALSE"	"Windows 10"	"60.44"	"036"	n/a	n/a	n/a	n/a	n/a	n/a	"Trial"	n/a	n/a	n/a	"875"	"arrowdown"	n/a	"NULL"	"NULL"	"NULL"	"stimuli/MullerLyer_-8.21429_-0.14541.png"	n/a	"MullerLyer"	"arrowdown"	"1320"	"TRUE"	"MullerLyer"	"-8.214290000"	"-0.145410000"	"2"	"9"
n/a	"html-keyboard-response"	"202"	"7093316"	"0.0-6.0-2.0-0.9"	"z7pjh0"	"563"	"1199"	"chrome"	"110.0.0"	"FALSE"	"Windows 10"	"60.44"	"036"	n/a	n/a	n/a	n/a	n/a	n/a	"fixation"	n/a	n/a	n/a	n/a	"NULL"	n/a	"NULL"	"NULL"	"NULL"	"<p style=\"color: black; font-size: 80px; padding-left: 16%; padding-right: 15%; padding-top: 42%; padding-bottom: 16%\">+</p>"	"1124"	n/a	n/a	n/a	n/a	n/a	n/a	n/a	n/a	n/a
n/a	"image-keyboard-response"	"203"	"7094172"	"0.0-6.0-2.0-1.9"	"z7pjh0"	"563"	"1199"	"chrome"	"110.0.0"	"FALSE"	"Windows 10"	"60.44"	"036"	n/a	n/a	n/a	n/a	n/a	n/a	"Trial"	n/a	n/a	n/a	"855"	"arrowup"	n/a	"NULL"	"NULL"	"NULL"	"stimuli/MullerLyer_14.12857_0.35000.png"	n/a	"MullerLyer"	"arrowup"	"1126"	"TRUE"	"MullerLyer"	"14.128570000"	"0.3500000000"	"2"	"10"
n/a	"html-keyboard-response"	"204"	"7095410"	"0.0-6.0-2.0-0.10"	"z7pjh0"	"563"	"1199"	"chrome"	"110.0.0"	"FALSE"	"Windows 10"	"60.44"	"036"	n/a	n/a	n/a	n/a	n/a	n/a	"fixation"	n/a	n/a	n/a	n/a	"NULL"	n/a	"NULL"	"NULL"	"NULL"	"<p style=\"color: black; font-size: 80px; padding-left: 42%; padding-right: 39%; padding-top: 35%; padding-bottom: 50%\">+</p>"	"1228"	n/a	n/a	n/a	n/a	n/a	n/a	n/a	n/a	n/a
n/a	"image-keyboard-response"	"205"	"7096689"	"0.0-6.0-2.0-1.10"	"z7pjh0"	"563"	"1199"	"chrome"	"110.0.0"	"FALSE"	"Windows 10"	"60.44"	"036"	n/a	n/a	n/a	n/a	n/a	n/a	"Trial"	n/a	n/a	n/a	"1278"	"arrowdown"	n/a	"NULL"	"NULL"	"NULL"	"stimuli/MullerLyer_20.04286_-0.23665.png"	n/a	"MullerLyer"	"arrowdown"	"1238"	"TRUE"	"MullerLyer"	"20.042860000"	"-0.236650000"	"2"	"11"
n/a	"html-keyboard-response"	"206"	"7097763"	"0.0-6.0-2.0-0.11"	"z7pjh0"	"563"	"1199"	"chrome"	"110.0.0"	"FALSE"	"Windows 10"	"60.44"	"036"	n/a	n/a	n/a	n/a	n/a	n/a	"fixation"	n/a	n/a	n/a	n/a	"NULL"	n/a	"NULL"	"NULL"	"NULL"	"<p style=\"color: black; font-size: 80px; padding-left: 13%; padding-right: 47%; padding-top: 5%; padding-bottom: 7%\">+</p>"	"1059"	n/a	n/a	n/a	n/a	n/a	n/a	n/a	n/a	n/a
n/a	"image-keyboard-response"	"207"	"7098745"	"0.0-6.0-2.0-1.11"	"z7pjh0"	"563"	"1199"	"chrome"	"110.0.0"	"FALSE"	"Windows 10"	"60.44"	"036"	n/a	n/a	n/a	n/a	n/a	n/a	"Trial"	n/a	n/a	n/a	"982"	"arrowdown"	n/a	"NULL"	"NULL"	"NULL"	"stimuli/MullerLyer_2.30000_-0.23665.png"	n/a	"MullerLyer"	"arrowdown"	"1074"	"TRUE"	"MullerLyer"	"2.3000000000"	"-0.236650000"	"2"	"12"
n/a	"html-keyboard-response"	"208"	"7100124"	"0.0-6.0-2.0-0.12"	"z7pjh0"	"563"	"1199"	"chrome"	"110.0.0"	"FALSE"	"Windows 10"	"60.44"	"036"	n/a	n/a	n/a	n/a	n/a	n/a	"fixation"	n/a	n/a	n/a	n/a	"NULL"	n/a	"NULL"	"NULL"	"NULL"	"<p style=\"color: black; font-size: 80px; padding-left: 3%; padding-right: 26%; padding-top: 39%; padding-bottom: 43%\">+</p>"	"1377"	n/a	n/a	n/a	n/a	n/a	n/a	n/a	n/a	n/a
n/a	"image-keyboard-response"	"209"	"7101086"	"0.0-6.0-2.0-1.12"	"z7pjh0"	"563"	"1199"	"chrome"	"110.0.0"	"FALSE"	"Windows 10"	"60.44"	"036"	n/a	n/a	n/a	n/a	n/a	n/a	"Trial"	n/a	n/a	n/a	"961"	"arrowup"	n/a	"NULL"	"NULL"	"NULL"	"stimuli/MullerLyer_2.30000_0.07627.png"	n/a	"MullerLyer"	"arrowup"	"1379"	"TRUE"	"MullerLyer"	"2.3000000000"	"0.0762700000"	"2"	"13"
n/a	"html-keyboard-response"	"210"	"7102459"	"0.0-6.0-2.0-0.13"	"z7pjh0"	"563"	"1199"	"chrome"	"110.0.0"	"FALSE"	"Windows 10"	"60.44"	"036"	n/a	n/a	n/a	n/a	n/a	n/a	"fixation"	n/a	n/a	n/a	n/a	"NULL"	n/a	"NULL"	"NULL"	"NULL"	"<p style=\"color: black; font-size: 80px; padding-left: 12%; padding-right: 1%; padding-top: 36%; padding-bottom: 15%\">+</p>"	"1364"	n/a	n/a	n/a	n/a	n/a	n/a	n/a	n/a	n/a
n/a	"image-keyboard-response"	"211"	"7103817"	"0.0-6.0-2.0-1.13"	"z7pjh0"	"563"	"1199"	"chrome"	"110.0.0"	"FALSE"	"Windows 10"	"60.44"	"036"	n/a	n/a	n/a	n/a	n/a	n/a	"Trial"	n/a	n/a	n/a	"1357"	"arrowup"	n/a	"NULL"	"NULL"	"NULL"	"stimuli/MullerLyer_-20.04286_0.07627.png"	n/a	"MullerLyer"	"arrowup"	"1373"	"TRUE"	"MullerLyer"	"-20.04286000"	"0.0762700000"	"2"	"14"
n/a	"html-keyboard-response"	"212"	"7105012"	"0.0-6.0-2.0-0.14"	"z7pjh0"	"563"	"1199"	"chrome"	"110.0.0"	"FALSE"	"Windows 10"	"60.44"	"036"	n/a	n/a	n/a	n/a	n/a	n/a	"fixation"	n/a	n/a	n/a	n/a	"NULL"	n/a	"NULL"	"NULL"	"NULL"	"<p style=\"color: black; font-size: 80px; padding-left: 15%; padding-right: 34%; padding-top: 2%; padding-bottom: 43%\">+</p>"	"1185"	n/a	n/a	n/a	n/a	n/a	n/a	n/a	n/a	n/a
n/a	"image-keyboard-response"	"213"	"7106203"	"0.0-6.0-2.0-1.14"	"z7pjh0"	"563"	"1199"	"chrome"	"110.0.0"	"FALSE"	"Windows 10"	"60.44"	"036"	n/a	n/a	n/a	n/a	n/a	n/a	"Trial"	n/a	n/a	n/a	"1191"	"arrowup"	n/a	"NULL"	"NULL"	"NULL"	"stimuli/MullerLyer_-8.21429_0.14541.png"	n/a	"MullerLyer"	"arrowup"	"1195"	"TRUE"	"MullerLyer"	"-8.214290000"	"0.1454100000"	"2"	"15"
n/a	"html-keyboard-response"	"214"	"7107409"	"0.0-6.0-2.0-0.15"	"z7pjh0"	"563"	"1199"	"chrome"	"110.0.0"	"FALSE"	"Windows 10"	"60.44"	"036"	n/a	n/a	n/a	n/a	n/a	n/a	"fixation"	n/a	n/a	n/a	n/a	"NULL"	n/a	"NULL"	"NULL"	"NULL"	"<p style=\"color: black; font-size: 80px; padding-left: 43%; padding-right: 6%; padding-top: 47%; padding-bottom: 46%\">+</p>"	"1189"	n/a	n/a	n/a	n/a	n/a	n/a	n/a	n/a	n/a
n/a	"image-keyboard-response"	"215"	"7108294"	"0.0-6.0-2.0-1.15"	"z7pjh0"	"563"	"1199"	"chrome"	"110.0.0"	"FALSE"	"Windows 10"	"60.44"	"036"	n/a	n/a	n/a	n/a	n/a	n/a	"Trial"	n/a	n/a	n/a	"885"	"arrowdown"	n/a	"NULL"	"NULL"	"NULL"	"stimuli/MullerLyer_2.30000_-0.3500.png"	n/a	"MullerLyer"	"arrowdown"	"1206"	"TRUE"	"MullerLyer"	"2.3000000000"	"-0.350000000"	"2"	"16"
n/a	"html-keyboard-response"	"216"	"7109558"	"0.0-6.0-2.0-0.16"	"z7pjh0"	"563"	"1199"	"chrome"	"110.0.0"	"FALSE"	"Windows 10"	"60.44"	"036"	n/a	n/a	n/a	n/a	n/a	n/a	"fixation"	n/a	n/a	n/a	n/a	"NULL"	n/a	"NULL"	"NULL"	"NULL"	"<p style=\"color: black; font-size: 80px; padding-left: 27%; padding-right: 46%; padding-top: 44%; padding-bottom: 40%\">+</p>"	"1262"	n/a	n/a	n/a	n/a	n/a	n/a	n/a	n/a	n/a
n/a	"image-keyboard-response"	"217"	"7110824"	"0.0-6.0-2.0-1.16"	"z7pjh0"	"563"	"1199"	"chrome"	"110.0.0"	"FALSE"	"Windows 10"	"60.44"	"036"	n/a	n/a	n/a	n/a	n/a	n/a	"Trial"	n/a	n/a	n/a	"1266"	"arrowup"	n/a	"NULL"	"NULL"	"NULL"	"stimuli/MullerLyer_8.21429_0.14541.png"	n/a	"MullerLyer"	"arrowup"	"1264"	"TRUE"	"MullerLyer"	"8.2142900000"	"0.1454100000"	"2"	"17"
n/a	"html-keyboard-response"	"218"	"7112157"	"0.0-6.0-2.0-0.17"	"z7pjh0"	"563"	"1199"	"chrome"	"110.0.0"	"FALSE"	"Windows 10"	"60.44"	"036"	n/a	n/a	n/a	n/a	n/a	n/a	"fixation"	n/a	n/a	n/a	n/a	"NULL"	n/a	"NULL"	"NULL"	"NULL"	"<p style=\"color: black; font-size: 80px; padding-left: 5%; padding-right: 34%; padding-top: 16%; padding-bottom: 48%\">+</p>"	"1318"	n/a	n/a	n/a	n/a	n/a	n/a	n/a	n/a	n/a
n/a	"image-keyboard-response"	"219"	"7113533"	"0.0-6.0-2.0-1.17"	"z7pjh0"	"563"	"1199"	"chrome"	"110.0.0"	"FALSE"	"Windows 10"	"60.44"	"036"	n/a	n/a	n/a	n/a	n/a	n/a	"Trial"	n/a	n/a	n/a	"1375"	"arrowup"	n/a	"NULL"	"NULL"	"NULL"	"stimuli/MullerLyer_14.12857_0.14541.png"	n/a	"MullerLyer"	"arrowup"	"1333"	"TRUE"	"MullerLyer"	"14.128570000"	"0.1454100000"	"2"	"18"
n/a	"html-keyboard-response"	"220"	"7114815"	"0.0-6.0-2.0-0.18"	"z7pjh0"	"563"	"1199"	"chrome"	"110.0.0"	"FALSE"	"Windows 10"	"60.44"	"036"	n/a	n/a	n/a	n/a	n/a	n/a	"fixation"	n/a	n/a	n/a	n/a	"NULL"	n/a	"NULL"	"NULL"	"NULL"	"<p style=\"color: black; font-size: 80px; padding-left: 29%; padding-right: 43%; padding-top: 9%; padding-bottom: 50%\">+</p>"	"1269"	n/a	n/a	n/a	n/a	n/a	n/a	n/a	n/a	n/a
n/a	"image-keyboard-response"	"221"	"7115804"	"0.0-6.0-2.0-1.18"	"z7pjh0"	"563"	"1199"	"chrome"	"110.0.0"	"FALSE"	"Windows 10"	"60.44"	"036"	n/a	n/a	n/a	n/a	n/a	n/a	"Trial"	n/a	n/a	n/a	"988"	"arrowup"	n/a	"NULL"	"NULL"	"NULL"	"stimuli/MullerLyer_-2.3000_0.23665.png"	n/a	"MullerLyer"	"arrowup"	"1282"	"TRUE"	"MullerLyer"	"-2.300000000"	"0.2366500000"	"2"	"19"
n/a	"html-keyboard-response"	"222"	"7117111"	"0.0-6.0-2.0-0.19"	"z7pjh0"	"563"	"1199"	"chrome"	"110.0.0"	"FALSE"	"Windows 10"	"60.44"	"036"	n/a	n/a	n/a	n/a	n/a	n/a	"fixation"	n/a	n/a	n/a	n/a	"NULL"	n/a	"NULL"	"NULL"	"NULL"	"<p style=\"color: black; font-size: 80px; padding-left: 39%; padding-right: 1%; padding-top: 37%; padding-bottom: 48%\">+</p>"	"1298"	n/a	n/a	n/a	n/a	n/a	n/a	n/a	n/a	n/a
n/a	"image-keyboard-response"	"223"	"7118411"	"0.0-6.0-2.0-1.19"	"z7pjh0"	"563"	"1199"	"chrome"	"110.0.0"	"FALSE"	"Windows 10"	"60.44"	"036"	n/a	n/a	n/a	n/a	n/a	n/a	"Trial"	n/a	n/a	n/a	"1299"	"arrowup"	n/a	"NULL"	"NULL"	"NULL"	"stimuli/MullerLyer_8.21429_-0.07627.png"	n/a	"MullerLyer"	"arrowdown"	"1307"	"FALSE"	"MullerLyer"	"8.2142900000"	"-0.076270000"	"2"	"20"
n/a	"html-keyboard-response"	"224"	"7119642"	"0.0-6.0-2.0-0.20"	"z7pjh0"	"563"	"1199"	"chrome"	"110.0.0"	"FALSE"	"Windows 10"	"60.44"	"036"	n/a	n/a	n/a	n/a	n/a	n/a	"fixation"	n/a	n/a	n/a	n/a	"NULL"	n/a	"NULL"	"NULL"	"NULL"	"<p style=\"color: black; font-size: 80px; padding-left: 40%; padding-right: 40%; padding-top: 17%; padding-bottom: 17%\">+</p>"	"1227"	n/a	n/a	n/a	n/a	n/a	n/a	n/a	n/a	n/a
n/a	"image-keyboard-response"	"225"	"7120397"	"0.0-6.0-2.0-1.20"	"z7pjh0"	"563"	"1199"	"chrome"	"110.0.0"	"FALSE"	"Windows 10"	"60.44"	"036"	n/a	n/a	n/a	n/a	n/a	n/a	"Trial"	n/a	n/a	n/a	"754"	"arrowup"	n/a	"NULL"	"NULL"	"NULL"	"stimuli/MullerLyer_-14.12857_0.35000.png"	n/a	"MullerLyer"	"arrowup"	"1231"	"TRUE"	"MullerLyer"	"-14.12857000"	"0.3500000000"	"2"	"21"
n/a	"html-keyboard-response"	"226"	"7121553"	"0.0-6.0-2.0-0.21"	"z7pjh0"	"563"	"1199"	"chrome"	"110.0.0"	"FALSE"	"Windows 10"	"60.44"	"036"	n/a	n/a	n/a	n/a	n/a	n/a	"fixation"	n/a	n/a	n/a	n/a	"NULL"	n/a	"NULL"	"NULL"	"NULL"	"<p style=\"color: black; font-size: 80px; padding-left: 31%; padding-right: 10%; padding-top: 16%; padding-bottom: 7%\">+</p>"	"1150"	n/a	n/a	n/a	n/a	n/a	n/a	n/a	n/a	n/a
n/a	"image-keyboard-response"	"227"	"7122345"	"0.0-6.0-2.0-1.21"	"z7pjh0"	"563"	"1199"	"chrome"	"110.0.0"	"FALSE"	"Windows 10"	"60.44"	"036"	n/a	n/a	n/a	n/a	n/a	n/a	"Trial"	n/a	n/a	n/a	"791"	"arrowdown"	n/a	"NULL"	"NULL"	"NULL"	"stimuli/MullerLyer_-8.21429_-0.23665.png"	n/a	"MullerLyer"	"arrowdown"	"1156"	"TRUE"	"MullerLyer"	"-8.214290000"	"-0.236650000"	"2"	"22"
n/a	"html-keyboard-response"	"228"	"7123844"	"0.0-6.0-2.0-0.22"	"z7pjh0"	"563"	"1199"	"chrome"	"110.0.0"	"FALSE"	"Windows 10"	"60.44"	"036"	n/a	n/a	n/a	n/a	n/a	n/a	"fixation"	n/a	n/a	n/a	n/a	"NULL"	n/a	"NULL"	"NULL"	"NULL"	"<p style=\"color: black; font-size: 80px; padding-left: 6%; padding-right: 1%; padding-top: 47%; padding-bottom: 14%\">+</p>"	"1493"	n/a	n/a	n/a	n/a	n/a	n/a	n/a	n/a	n/a
n/a	"image-keyboard-response"	"229"	"7125017"	"0.0-6.0-2.0-1.22"	"z7pjh0"	"563"	"1199"	"chrome"	"110.0.0"	"FALSE"	"Windows 10"	"60.44"	"036"	n/a	n/a	n/a	n/a	n/a	n/a	"Trial"	n/a	n/a	n/a	"1172"	"arrowup"	n/a	"NULL"	"NULL"	"NULL"	"stimuli/MullerLyer_14.12857_0.23665.png"	n/a	"MullerLyer"	"arrowup"	"1499"	"TRUE"	"MullerLyer"	"14.128570000"	"0.2366500000"	"2"	"23"
n/a	"html-keyboard-response"	"230"	"7126159"	"0.0-6.0-2.0-0.23"	"z7pjh0"	"563"	"1199"	"chrome"	"110.0.0"	"FALSE"	"Windows 10"	"60.44"	"036"	n/a	n/a	n/a	n/a	n/a	n/a	"fixation"	n/a	n/a	n/a	n/a	"NULL"	n/a	"NULL"	"NULL"	"NULL"	"<p style=\"color: black; font-size: 80px; padding-left: 44%; padding-right: 22%; padding-top: 46%; padding-bottom: 12%\">+</p>"	"1129"	n/a	n/a	n/a	n/a	n/a	n/a	n/a	n/a	n/a
n/a	"image-keyboard-response"	"231"	"7126992"	"0.0-6.0-2.0-1.23"	"z7pjh0"	"563"	"1199"	"chrome"	"110.0.0"	"FALSE"	"Windows 10"	"60.44"	"036"	n/a	n/a	n/a	n/a	n/a	n/a	"Trial"	n/a	n/a	n/a	"832"	"arrowdown"	n/a	"NULL"	"NULL"	"NULL"	"stimuli/MullerLyer_-2.3000_-0.3500.png"	n/a	"MullerLyer"	"arrowdown"	"1142"	"TRUE"	"MullerLyer"	"-2.300000000"	"-0.350000000"	"2"	"24"
n/a	"html-keyboard-response"	"232"	"7128226"	"0.0-6.0-2.0-0.24"	"z7pjh0"	"563"	"1199"	"chrome"	"110.0.0"	"FALSE"	"Windows 10"	"60.44"	"036"	n/a	n/a	n/a	n/a	n/a	n/a	"fixation"	n/a	n/a	n/a	n/a	"NULL"	n/a	"NULL"	"NULL"	"NULL"	"<p style=\"color: black; font-size: 80px; padding-left: 6%; padding-right: 15%; padding-top: 28%; padding-bottom: 10%\">+</p>"	"1228"	n/a	n/a	n/a	n/a	n/a	n/a	n/a	n/a	n/a
n/a	"image-keyboard-response"	"233"	"7129258"	"0.0-6.0-2.0-1.24"	"z7pjh0"	"563"	"1199"	"chrome"	"110.0.0"	"FALSE"	"Windows 10"	"60.44"	"036"	n/a	n/a	n/a	n/a	n/a	n/a	"Trial"	n/a	n/a	n/a	"1031"	"arrowdown"	n/a	"NULL"	"NULL"	"NULL"	"stimuli/MullerLyer_2.30000_-0.14541.png"	n/a	"MullerLyer"	"arrowdown"	"1234"	"TRUE"	"MullerLyer"	"2.3000000000"	"-0.145410000"	"2"	"25"
n/a	"html-keyboard-response"	"234"	"7130611"	"0.0-6.0-2.0-0.25"	"z7pjh0"	"563"	"1199"	"chrome"	"110.0.0"	"FALSE"	"Windows 10"	"60.44"	"036"	n/a	n/a	n/a	n/a	n/a	n/a	"fixation"	n/a	n/a	n/a	n/a	"NULL"	n/a	"NULL"	"NULL"	"NULL"	"<p style=\"color: black; font-size: 80px; padding-left: 48%; padding-right: 34%; padding-top: 2%; padding-bottom: 26%\">+</p>"	"1348"	n/a	n/a	n/a	n/a	n/a	n/a	n/a	n/a	n/a
n/a	"image-keyboard-response"	"235"	"7131302"	"0.0-6.0-2.0-1.25"	"z7pjh0"	"563"	"1199"	"chrome"	"110.0.0"	"FALSE"	"Windows 10"	"60.44"	"036"	n/a	n/a	n/a	n/a	n/a	n/a	"Trial"	n/a	n/a	n/a	"690"	"arrowup"	n/a	"NULL"	"NULL"	"NULL"	"stimuli/MullerLyer_-14.12857_0.23665.png"	n/a	"MullerLyer"	"arrowup"	"1353"	"TRUE"	"MullerLyer"	"-14.12857000"	"0.2366500000"	"2"	"26"
n/a	"html-keyboard-response"	"236"	"7132509"	"0.0-6.0-2.0-0.26"	"z7pjh0"	"563"	"1199"	"chrome"	"110.0.0"	"FALSE"	"Windows 10"	"60.44"	"036"	n/a	n/a	n/a	n/a	n/a	n/a	"fixation"	n/a	n/a	n/a	n/a	"NULL"	n/a	"NULL"	"NULL"	"NULL"	"<p style=\"color: black; font-size: 80px; padding-left: 34%; padding-right: 45%; padding-top: 46%; padding-bottom: 7%\">+</p>"	"1196"	n/a	n/a	n/a	n/a	n/a	n/a	n/a	n/a	n/a
n/a	"image-keyboard-response"	"237"	"7134061"	"0.0-6.0-2.0-1.26"	"z7pjh0"	"563"	"1199"	"chrome"	"110.0.0"	"FALSE"	"Windows 10"	"60.44"	"036"	n/a	n/a	n/a	n/a	n/a	n/a	"Trial"	n/a	n/a	n/a	"1552"	"arrowup"	n/a	"NULL"	"NULL"	"NULL"	"stimuli/MullerLyer_-8.21429_0.23665.png"	n/a	"MullerLyer"	"arrowup"	"1207"	"TRUE"	"MullerLyer"	"-8.214290000"	"0.2366500000"	"2"	"27"
n/a	"html-keyboard-response"	"238"	"7135170"	"0.0-6.0-2.0-0.27"	"z7pjh0"	"563"	"1199"	"chrome"	"110.0.0"	"FALSE"	"Windows 10"	"60.44"	"036"	n/a	n/a	n/a	n/a	n/a	n/a	"fixation"	n/a	n/a	n/a	n/a	"NULL"	n/a	"NULL"	"NULL"	"NULL"	"<p style=\"color: black; font-size: 80px; padding-left: 29%; padding-right: 11%; padding-top: 5%; padding-bottom: 4%\">+</p>"	"1095"	n/a	n/a	n/a	n/a	n/a	n/a	n/a	n/a	n/a
n/a	"image-keyboard-response"	"239"	"7136470"	"0.0-6.0-2.0-1.27"	"z7pjh0"	"563"	"1199"	"chrome"	"110.0.0"	"FALSE"	"Windows 10"	"60.44"	"036"	n/a	n/a	n/a	n/a	n/a	n/a	"Trial"	n/a	n/a	n/a	"1299"	"arrowdown"	n/a	"NULL"	"NULL"	"NULL"	"stimuli/MullerLyer_-2.3000_-0.23665.png"	n/a	"MullerLyer"	"arrowdown"	"1109"	"TRUE"	"MullerLyer"	"-2.300000000"	"-0.236650000"	"2"	"28"
n/a	"html-keyboard-response"	"240"	"7137764"	"0.0-6.0-2.0-0.28"	"z7pjh0"	"563"	"1199"	"chrome"	"110.0.0"	"FALSE"	"Windows 10"	"60.44"	"036"	n/a	n/a	n/a	n/a	n/a	n/a	"fixation"	n/a	n/a	n/a	n/a	"NULL"	n/a	"NULL"	"NULL"	"NULL"	"<p style=\"color: black; font-size: 80px; padding-left: 43%; padding-right: 1%; padding-top: 15%; padding-bottom: 16%\">+</p>"	"1290"	n/a	n/a	n/a	n/a	n/a	n/a	n/a	n/a	n/a
n/a	"image-keyboard-response"	"241"	"7138745"	"0.0-6.0-2.0-1.28"	"z7pjh0"	"563"	"1199"	"chrome"	"110.0.0"	"FALSE"	"Windows 10"	"60.44"	"036"	n/a	n/a	n/a	n/a	n/a	n/a	"Trial"	n/a	n/a	n/a	"980"	"arrowdown"	n/a	"NULL"	"NULL"	"NULL"	"stimuli/MullerLyer_-14.12857_-0.3500.png"	n/a	"MullerLyer"	"arrowdown"	"1294"	"TRUE"	"MullerLyer"	"-14.12857000"	"-0.350000000"	"2"	"29"
n/a	"html-keyboard-response"	"242"	"7140192"	"0.0-6.0-2.0-0.29"	"z7pjh0"	"563"	"1199"	"chrome"	"110.0.0"	"FALSE"	"Windows 10"	"60.44"	"036"	n/a	n/a	n/a	n/a	n/a	n/a	"fixation"	n/a	n/a	n/a	n/a	"NULL"	n/a	"NULL"	"NULL"	"NULL"	"<p style=\"color: black; font-size: 80px; padding-left: 20%; padding-right: 27%; padding-top: 46%; padding-bottom: 27%\">+</p>"	"1440"	n/a	n/a	n/a	n/a	n/a	n/a	n/a	n/a	n/a
n/a	"image-keyboard-response"	"243"	"7141501"	"0.0-6.0-2.0-1.29"	"z7pjh0"	"563"	"1199"	"chrome"	"110.0.0"	"FALSE"	"Windows 10"	"60.44"	"036"	n/a	n/a	n/a	n/a	n/a	n/a	"Trial"	n/a	n/a	n/a	"1308"	"arrowdown"	n/a	"NULL"	"NULL"	"NULL"	"stimuli/MullerLyer_2.30000_-0.07627.png"	n/a	"MullerLyer"	"arrowdown"	"1447"	"TRUE"	"MullerLyer"	"2.3000000000"	"-0.076270000"	"2"	"30"
n/a	"html-keyboard-response"	"244"	"7142840"	"0.0-6.0-2.0-0.30"	"z7pjh0"	"563"	"1199"	"chrome"	"110.0.0"	"FALSE"	"Windows 10"	"60.44"	"036"	n/a	n/a	n/a	n/a	n/a	n/a	"fixation"	n/a	n/a	n/a	n/a	"NULL"	n/a	"NULL"	"NULL"	"NULL"	"<p style=\"color: black; font-size: 80px; padding-left: 14%; padding-right: 41%; padding-top: 33%; padding-bottom: 48%\">+</p>"	"1338"	n/a	n/a	n/a	n/a	n/a	n/a	n/a	n/a	n/a
n/a	"image-keyboard-response"	"245"	"7144216"	"0.0-6.0-2.0-1.30"	"z7pjh0"	"563"	"1199"	"chrome"	"110.0.0"	"FALSE"	"Windows 10"	"60.44"	"036"	n/a	n/a	n/a	n/a	n/a	n/a	"Trial"	n/a	n/a	n/a	"1376"	"arrowdown"	n/a	"NULL"	"NULL"	"NULL"	"stimuli/MullerLyer_-20.04286_-0.07627.png"	n/a	"MullerLyer"	"arrowdown"	"1339"	"TRUE"	"MullerLyer"	"-20.04286000"	"-0.076270000"	"2"	"31"
n/a	"html-keyboard-response"	"246"	"7145368"	"0.0-6.0-2.0-0.31"	"z7pjh0"	"563"	"1199"	"chrome"	"110.0.0"	"FALSE"	"Windows 10"	"60.44"	"036"	n/a	n/a	n/a	n/a	n/a	n/a	"fixation"	n/a	n/a	n/a	n/a	"NULL"	n/a	"NULL"	"NULL"	"NULL"	"<p style=\"color: black; font-size: 80px; padding-left: 25%; padding-right: 12%; padding-top: 35%; padding-bottom: 35%\">+</p>"	"1143"	n/a	n/a	n/a	n/a	n/a	n/a	n/a	n/a	n/a
n/a	"image-keyboard-response"	"247"	"7146808"	"0.0-6.0-2.0-1.31"	"z7pjh0"	"563"	"1199"	"chrome"	"110.0.0"	"FALSE"	"Windows 10"	"60.44"	"036"	n/a	n/a	n/a	n/a	n/a	n/a	"Trial"	n/a	n/a	n/a	"1439"	"arrowdown"	n/a	"NULL"	"NULL"	"NULL"	"stimuli/MullerLyer_8.21429_0.07627.png"	n/a	"MullerLyer"	"arrowup"	"1152"	"FALSE"	"MullerLyer"	"8.2142900000"	"0.0762700000"	"2"	"32"
n/a	"html-keyboard-response"	"248"	"7147826"	"0.0-6.0-2.0-0.32"	"z7pjh0"	"563"	"1199"	"chrome"	"110.0.0"	"FALSE"	"Windows 10"	"60.44"	"036"	n/a	n/a	n/a	n/a	n/a	n/a	"fixation"	n/a	n/a	n/a	n/a	"NULL"	n/a	"NULL"	"NULL"	"NULL"	"<p style=\"color: black; font-size: 80px; padding-left: 10%; padding-right: 4%; padding-top: 45%; padding-bottom: 17%\">+</p>"	"1006"	n/a	n/a	n/a	n/a	n/a	n/a	n/a	n/a	n/a
