"success"	"trial_type"	"trial_index"	"time_elapsed"	"internal_node_id"	"participant_id"	"screen_height"	"screen_width"	"browser"	"browser_version"	"mobile"	"os"	"vsync_rate"	"subject_id"	"width"	"height"	"webaudio"	"fullscreen"	"webcam"	"microphone"	"screen"	"version"	"date"	"time"	"rt"	"response"	"timeout"	"failed_images"	"failed_audio"	"failed_video"	"stimulus"	"trial_duration"	"block"	"correct_response"	"prestimulus_duration"	"correct"	"type"	"illusion_strength"	"illusion_difference"	"block_number"	"trial_number"
"TRUE"	"fullscreen"	"0"	"6250"	"0.0-0.0"	"uggt7m"	"657"	"1366"	"chrome"	"109.0.0"	"FALSE"	"Windows 10"	"60.45"	"140"	n/a	n/a	n/a	n/a	n/a	n/a	n/a	n/a	n/a	n/a	n/a	"NULL"	n/a	"NULL"	"NULL"	"NULL"	n/a	n/a	n/a	n/a	n/a	n/a	n/a	n/a	n/a	n/a	n/a
n/a	"browser-check"	"1"	"7264"	"0.0-1.0"	"uggt7m"	"657"	"1366"	"chrome"	"109.0.0"	"FALSE"	"Windows 10"	"60.45"	"140"	"1366"	"657"	"TRUE"	"TRUE"	"TRUE"	"TRUE"	"browser_info"	"1.0"	"18/01/2023"	"11:04:58"	n/a	"NULL"	n/a	"NULL"	"NULL"	"NULL"	n/a	n/a	n/a	n/a	n/a	n/a	n/a	n/a	n/a	n/a	n/a
n/a	"survey-text"	"2"	"11195"	"0.0-2.0"	"uggt7m"	"657"	"1366"	"chrome"	"109.0.0"	"FALSE"	"Windows 10"	"60.45"	"140"	n/a	n/a	n/a	n/a	n/a	n/a	"subject_id"	n/a	n/a	n/a	"3924"	"list(subject_id = \"140\")"	n/a	"NULL"	"NULL"	"NULL"	n/a	n/a	n/a	n/a	n/a	n/a	n/a	n/a	n/a	n/a	n/a
"TRUE"	"preload"	"3"	"11213"	"0.0-3.0"	"uggt7m"	"657"	"1366"	"chrome"	"109.0.0"	"FALSE"	"Windows 10"	"60.45"	"140"	n/a	n/a	n/a	n/a	n/a	n/a	n/a	n/a	n/a	n/a	n/a	"NULL"	"FALSE"	"list()"	"list()"	"list()"	n/a	n/a	n/a	n/a	n/a	n/a	n/a	n/a	n/a	n/a	n/a
n/a	"html-button-response"	"4"	"61648"	"0.0-4.0-0.0"	"uggt7m"	"657"	"1366"	"chrome"	"109.0.0"	"FALSE"	"Windows 10"	"60.45"	"140"	n/a	n/a	n/a	n/a	n/a	n/a	"illusion_instructions"	n/a	n/a	n/a	"50433"	"0"	n/a	"NULL"	"NULL"	"NULL"	"<p><b>Illusion Game</b></p><p>In this game of speed and reflex, you will need to make <b>visual judgments</b> (for instance, which circle is the biggest, or which line is the longest), as fast and as correctly as possible, while <b>resisting different visual illusions</b>.</p><p>We are going to start with some examples of all the illusions you will encounter in the game.</p>"	n/a	n/a	n/a	n/a	n/a	n/a	n/a	n/a	n/a	n/a
"TRUE"	"preload"	"5"	"61674"	"0.0-4.0-1.0-0.0"	"uggt7m"	"657"	"1366"	"chrome"	"109.0.0"	"FALSE"	"Windows 10"	"60.45"	"140"	n/a	n/a	n/a	n/a	n/a	n/a	n/a	n/a	n/a	n/a	n/a	"NULL"	"FALSE"	"list()"	"list()"	"list()"	n/a	n/a	n/a	n/a	n/a	n/a	n/a	n/a	n/a	n/a	n/a
n/a	"html-keyboard-response"	"6"	"86630"	"0.0-4.0-1.0-1.0"	"uggt7m"	"657"	"1366"	"chrome"	"109.0.0"	"FALSE"	"Windows 10"	"60.45"	"140"	n/a	n/a	n/a	n/a	n/a	n/a	n/a	n/a	n/a	n/a	"24955"	"enter"	n/a	"NULL"	"NULL"	"NULL"	"<p><b>Practice</b></p><p>In this part, two red circles will appear side by side on the screen.</p><p>Your task is to select which <b>red circle is bigger</b> in size as fast as you can, without making errors.</p><p>Don't get distracted by the surrounding black circles around the red circles!</p><p>Press <b>the LEFT or the RIGHT arrow</b> to indicate which is the bigger <b>red circle.</b></p><div style='float: center'><img src='materials/instructions/Ebbinghaus_Demo.png' height='300'></img><p><img src='utils/answer/answer_leftright_keyboard.PNG' height='150'></img></p><p class='small'>In this example, the correct answer is the <b>LEFT arrow</b>.</p></div><p>Are you ready? <b>Press ENTER to start</b></p>"	n/a	n/a	n/a	n/a	n/a	n/a	n/a	n/a	n/a	n/a
n/a	"html-keyboard-response"	"7"	"88187"	"0.0-4.0-1.0-2.0-0.0"	"uggt7m"	"657"	"1366"	"chrome"	"109.0.0"	"FALSE"	"Windows 10"	"60.45"	"140"	n/a	n/a	n/a	n/a	n/a	n/a	"fixation"	n/a	n/a	n/a	n/a	"NULL"	n/a	"NULL"	"NULL"	"NULL"	"<p style=\"color: black; font-size: 80px; padding-left: 20%; padding-right: 44%; padding-top: 0%; padding-bottom: 46%\">+</p>"	"1031"	n/a	n/a	n/a	n/a	n/a	n/a	n/a	n/a	n/a
n/a	"image-keyboard-response"	"8"	"89193"	"0.0-4.0-1.0-2.0-1.0"	"uggt7m"	"657"	"1366"	"chrome"	"109.0.0"	"FALSE"	"Windows 10"	"60.45"	"140"	n/a	n/a	n/a	n/a	n/a	n/a	"Trial"	n/a	n/a	n/a	"992"	"arrowleft"	n/a	"NULL"	"NULL"	"NULL"	"stimuli/Ebbinghaus_-100000_1.40000.png"	n/a	"Ebbinghaus"	"arrowleft"	"1557"	"TRUE"	"Ebbinghaus"	"-10000000000"	"1.4000000000"	"1"	"1"
n/a	"html-keyboard-response"	"9"	"90477"	"0.0-4.0-1.0-2.0-0.1"	"uggt7m"	"657"	"1366"	"chrome"	"109.0.0"	"FALSE"	"Windows 10"	"60.45"	"140"	n/a	n/a	n/a	n/a	n/a	n/a	"fixation"	n/a	n/a	n/a	n/a	"NULL"	n/a	"NULL"	"NULL"	"NULL"	"<p style=\"color: black; font-size: 80px; padding-left: 8%; padding-right: 44%; padding-top: 9%; padding-bottom: 1%\">+</p>"	"1276"	n/a	n/a	n/a	n/a	n/a	n/a	n/a	n/a	n/a
n/a	"image-keyboard-response"	"10"	"91186"	"0.0-4.0-1.0-2.0-1.1"	"uggt7m"	"657"	"1366"	"chrome"	"109.0.0"	"FALSE"	"Windows 10"	"60.45"	"140"	n/a	n/a	n/a	n/a	n/a	n/a	"Trial"	n/a	n/a	n/a	"707"	"arrowright"	n/a	"NULL"	"NULL"	"NULL"	"stimuli/Ebbinghaus_-100000_-1.4000.png"	n/a	"Ebbinghaus"	"arrowright"	"1284"	"TRUE"	"Ebbinghaus"	"-10000000000"	"-1.400000000"	"1"	"2"
n/a	"html-keyboard-response"	"11"	"92370"	"0.0-4.0-1.0-2.0-0.2"	"uggt7m"	"657"	"1366"	"chrome"	"109.0.0"	"FALSE"	"Windows 10"	"60.45"	"140"	n/a	n/a	n/a	n/a	n/a	n/a	"fixation"	n/a	n/a	n/a	n/a	"NULL"	n/a	"NULL"	"NULL"	"NULL"	"<p style=\"color: black; font-size: 80px; padding-left: 18%; padding-right: 8%; padding-top: 44%; padding-bottom: 41%\">+</p>"	"1173"	n/a	n/a	n/a	n/a	n/a	n/a	n/a	n/a	n/a
n/a	"image-keyboard-response"	"12"	"92883"	"0.0-4.0-1.0-2.0-1.2"	"uggt7m"	"657"	"1366"	"chrome"	"109.0.0"	"FALSE"	"Windows 10"	"60.45"	"140"	n/a	n/a	n/a	n/a	n/a	n/a	"Trial"	n/a	n/a	n/a	"512"	"arrowleft"	n/a	"NULL"	"NULL"	"NULL"	"stimuli/Ebbinghaus_1000000_1.40000.png"	n/a	"Ebbinghaus"	"arrowleft"	"1184"	"TRUE"	"Ebbinghaus"	"100000000000"	"1.4000000000"	"1"	"3"
n/a	"html-keyboard-response"	"13"	"93893"	"0.0-4.0-1.0-2.0-0.3"	"uggt7m"	"657"	"1366"	"chrome"	"109.0.0"	"FALSE"	"Windows 10"	"60.45"	"140"	n/a	n/a	n/a	n/a	n/a	n/a	"fixation"	n/a	n/a	n/a	n/a	"NULL"	n/a	"NULL"	"NULL"	"NULL"	"<p style=\"color: black; font-size: 80px; padding-left: 33%; padding-right: 14%; padding-top: 34%; padding-bottom: 25%\">+</p>"	"1001"	n/a	n/a	n/a	n/a	n/a	n/a	n/a	n/a	n/a
n/a	"image-keyboard-response"	"14"	"94922"	"0.0-4.0-1.0-2.0-1.3"	"uggt7m"	"657"	"1366"	"chrome"	"109.0.0"	"FALSE"	"Windows 10"	"60.45"	"140"	n/a	n/a	n/a	n/a	n/a	n/a	"Trial"	n/a	n/a	n/a	"1027"	"arrowright"	n/a	"NULL"	"NULL"	"NULL"	"stimuli/Ebbinghaus_1000000_-1.4000.png"	n/a	"Ebbinghaus"	"arrowright"	"1010"	"TRUE"	"Ebbinghaus"	"100000000000"	"-1.400000000"	"1"	"4"
n/a	"html-keyboard-response"	"15"	"96072"	"0.0-4.0-1.0-2.0-0.4"	"uggt7m"	"657"	"1366"	"chrome"	"109.0.0"	"FALSE"	"Windows 10"	"60.45"	"140"	n/a	n/a	n/a	n/a	n/a	n/a	"fixation"	n/a	n/a	n/a	n/a	"NULL"	n/a	"NULL"	"NULL"	"NULL"	"<p style=\"color: black; font-size: 80px; padding-left: 19%; padding-right: 41%; padding-top: 6%; padding-bottom: 14%\">+</p>"	"1145"	n/a	n/a	n/a	n/a	n/a	n/a	n/a	n/a	n/a
n/a	"image-keyboard-response"	"16"	"96587"	"0.0-4.0-1.0-2.0-1.4"	"uggt7m"	"657"	"1366"	"chrome"	"109.0.0"	"FALSE"	"Windows 10"	"60.45"	"140"	n/a	n/a	n/a	n/a	n/a	n/a	"Trial"	n/a	n/a	n/a	"514"	"arrowright"	n/a	"NULL"	"NULL"	"NULL"	"stimuli/Ebbinghaus_0000000_-1.4000.png"	n/a	"Ebbinghaus"	"arrowright"	"1150"	"TRUE"	"Ebbinghaus"	"000000000000"	"-1.400000000"	"1"	"5"
n/a	"html-keyboard-response"	"17"	"97608"	"0.0-4.0-1.0-2.0-0.5"	"uggt7m"	"657"	"1366"	"chrome"	"109.0.0"	"FALSE"	"Windows 10"	"60.45"	"140"	n/a	n/a	n/a	n/a	n/a	n/a	"fixation"	n/a	n/a	n/a	n/a	"NULL"	n/a	"NULL"	"NULL"	"NULL"	"<p style=\"color: black; font-size: 80px; padding-left: 39%; padding-right: 39%; padding-top: 10%; padding-bottom: 34%\">+</p>"	"1014"	n/a	n/a	n/a	n/a	n/a	n/a	n/a	n/a	n/a
n/a	"image-keyboard-response"	"18"	"98150"	"0.0-4.0-1.0-2.0-1.5"	"uggt7m"	"657"	"1366"	"chrome"	"109.0.0"	"FALSE"	"Windows 10"	"60.45"	"140"	n/a	n/a	n/a	n/a	n/a	n/a	"Trial"	n/a	n/a	n/a	"542"	"arrowleft"	n/a	"NULL"	"NULL"	"NULL"	"stimuli/Ebbinghaus_0000000_1.40000.png"	n/a	"Ebbinghaus"	"arrowleft"	"1021"	"TRUE"	"Ebbinghaus"	"000000000000"	"1.4000000000"	"1"	"6"
n/a	"html-button-response"	"19"	"101373"	"0.0-4.0-1.0-3.0"	"uggt7m"	"657"	"1366"	"chrome"	"109.0.0"	"FALSE"	"Windows 10"	"60.45"	"140"	n/a	n/a	n/a	n/a	n/a	n/a	"practice_block_results"	n/a	n/a	n/a	"3220"	"0"	n/a	"NULL"	"NULL"	"NULL"	"<p style='color:rgb(76,175,80);'> Correct Responses: <b>100.00%</b></p><hr><p style='color:rgb(233,30,99);'> Average Response Time: <b>715.67</b> ms.</p>"	n/a	n/a	n/a	n/a	n/a	n/a	n/a	n/a	n/a	n/a
"TRUE"	"preload"	"20"	"101913"	"0.0-4.0-2.0-0.0"	"uggt7m"	"657"	"1366"	"chrome"	"109.0.0"	"FALSE"	"Windows 10"	"60.45"	"140"	n/a	n/a	n/a	n/a	n/a	n/a	n/a	n/a	n/a	n/a	n/a	"NULL"	"FALSE"	"list()"	"list()"	"list()"	n/a	n/a	n/a	n/a	n/a	n/a	n/a	n/a	n/a	n/a	n/a
n/a	"html-keyboard-response"	"21"	"112399"	"0.0-4.0-2.0-1.0"	"uggt7m"	"657"	"1366"	"chrome"	"109.0.0"	"FALSE"	"Windows 10"	"60.45"	"140"	n/a	n/a	n/a	n/a	n/a	n/a	n/a	n/a	n/a	n/a	"10485"	"enter"	n/a	"NULL"	"NULL"	"NULL"	"<p><b>Practice</b></p><p>In this part, two horizontal red lines will appear one above the other.</p><p>Your task is to select which <b>line is longer</b> in length as fast as you can, without making errors.</p><p>Don't get distracted by the surrounding black arrows at the end of the red lines!</p><p>Press <b>the UP or the DOWN arrow</b> to indicate where is the longer <b>red line.</b></p><div style='float: center'><img src='materials/instructions/MullerLyer_Demo.png' height='300'></img><p><img src='utils/answer/answer_updown_keyboard.PNG' height='150'></img></p><p class='small'>In this example, the correct answer is the <b>UP arrow</b>.</p></div><p>Are you ready? <b>Press ENTER to start</b></p>"	n/a	n/a	n/a	n/a	n/a	n/a	n/a	n/a	n/a	n/a
n/a	"html-keyboard-response"	"22"	"114090"	"0.0-4.0-2.0-2.0-0.0"	"uggt7m"	"657"	"1366"	"chrome"	"109.0.0"	"FALSE"	"Windows 10"	"60.45"	"140"	n/a	n/a	n/a	n/a	n/a	n/a	"fixation"	n/a	n/a	n/a	n/a	"NULL"	n/a	"NULL"	"NULL"	"NULL"	"<p style=\"color: black; font-size: 80px; padding-left: 2%; padding-right: 45%; padding-top: 24%; padding-bottom: 26%\">+</p>"	"1167"	n/a	n/a	n/a	n/a	n/a	n/a	n/a	n/a	n/a
n/a	"image-keyboard-response"	"23"	"115110"	"0.0-4.0-2.0-2.0-1.0"	"uggt7m"	"657"	"1366"	"chrome"	"109.0.0"	"FALSE"	"Windows 10"	"60.45"	"140"	n/a	n/a	n/a	n/a	n/a	n/a	"Trial"	n/a	n/a	n/a	"1018"	"arrowup"	n/a	"NULL"	"NULL"	"NULL"	"stimuli/MullerLyer_0000000_0.70000.png"	n/a	"MullerLyer"	"arrowup"	"1691"	"TRUE"	"MullerLyer"	"000000000000"	"0.7000000000"	"1"	"7"
n/a	"html-keyboard-response"	"24"	"116419"	"0.0-4.0-2.0-2.0-0.1"	"uggt7m"	"657"	"1366"	"chrome"	"109.0.0"	"FALSE"	"Windows 10"	"60.45"	"140"	n/a	n/a	n/a	n/a	n/a	n/a	"fixation"	n/a	n/a	n/a	n/a	"NULL"	n/a	"NULL"	"NULL"	"NULL"	"<p style=\"color: black; font-size: 80px; padding-left: 9%; padding-right: 14%; padding-top: 36%; padding-bottom: 35%\">+</p>"	"1286"	n/a	n/a	n/a	n/a	n/a	n/a	n/a	n/a	n/a
n/a	"image-keyboard-response"	"25"	"117246"	"0.0-4.0-2.0-2.0-1.1"	"uggt7m"	"657"	"1366"	"chrome"	"109.0.0"	"FALSE"	"Windows 10"	"60.45"	"140"	n/a	n/a	n/a	n/a	n/a	n/a	"Trial"	n/a	n/a	n/a	"827"	"arrowup"	n/a	"NULL"	"NULL"	"NULL"	"stimuli/MullerLyer_2300000_-0.7000.png"	n/a	"MullerLyer"	"arrowdown"	"1309"	"FALSE"	"MullerLyer"	"230000000000"	"-0.700000000"	"1"	"8"
n/a	"html-keyboard-response"	"26"	"118586"	"0.0-4.0-2.0-2.0-0.2"	"uggt7m"	"657"	"1366"	"chrome"	"109.0.0"	"FALSE"	"Windows 10"	"60.45"	"140"	n/a	n/a	n/a	n/a	n/a	n/a	"fixation"	n/a	n/a	n/a	n/a	"NULL"	n/a	"NULL"	"NULL"	"NULL"	"<p style=\"color: black; font-size: 80px; padding-left: 0%; padding-right: 39%; padding-top: 24%; padding-bottom: 22%\">+</p>"	"1323"	n/a	n/a	n/a	n/a	n/a	n/a	n/a	n/a	n/a
n/a	"image-keyboard-response"	"27"	"119118"	"0.0-4.0-2.0-2.0-1.2"	"uggt7m"	"657"	"1366"	"chrome"	"109.0.0"	"FALSE"	"Windows 10"	"60.45"	"140"	n/a	n/a	n/a	n/a	n/a	n/a	"Trial"	n/a	n/a	n/a	"530"	"arrowdown"	n/a	"NULL"	"NULL"	"NULL"	"stimuli/MullerLyer_0000000_-0.7000.png"	n/a	"MullerLyer"	"arrowdown"	"1340"	"TRUE"	"MullerLyer"	"000000000000"	"-0.700000000"	"1"	"9"
n/a	"html-keyboard-response"	"28"	"120495"	"0.0-4.0-2.0-2.0-0.3"	"uggt7m"	"657"	"1366"	"chrome"	"109.0.0"	"FALSE"	"Windows 10"	"60.45"	"140"	n/a	n/a	n/a	n/a	n/a	n/a	"fixation"	n/a	n/a	n/a	n/a	"NULL"	n/a	"NULL"	"NULL"	"NULL"	"<p style=\"color: black; font-size: 80px; padding-left: 36%; padding-right: 6%; padding-top: 32%; padding-bottom: 32%\">+</p>"	"1371"	n/a	n/a	n/a	n/a	n/a	n/a	n/a	n/a	n/a
n/a	"image-keyboard-response"	"29"	"120936"	"0.0-4.0-2.0-2.0-1.3"	"uggt7m"	"657"	"1366"	"chrome"	"109.0.0"	"FALSE"	"Windows 10"	"60.45"	"140"	n/a	n/a	n/a	n/a	n/a	n/a	"Trial"	n/a	n/a	n/a	"441"	"arrowup"	n/a	"NULL"	"NULL"	"NULL"	"stimuli/MullerLyer_-230000_0.70000.png"	n/a	"MullerLyer"	"arrowup"	"1377"	"TRUE"	"MullerLyer"	"-23000000000"	"0.7000000000"	"1"	"10"
n/a	"html-keyboard-response"	"30"	"122139"	"0.0-4.0-2.0-2.0-0.4"	"uggt7m"	"657"	"1366"	"chrome"	"109.0.0"	"FALSE"	"Windows 10"	"60.45"	"140"	n/a	n/a	n/a	n/a	n/a	n/a	"fixation"	n/a	n/a	n/a	n/a	"NULL"	n/a	"NULL"	"NULL"	"NULL"	"<p style=\"color: black; font-size: 80px; padding-left: 6%; padding-right: 20%; padding-top: 41%; padding-bottom: 45%\">+</p>"	"1179"	n/a	n/a	n/a	n/a	n/a	n/a	n/a	n/a	n/a
n/a	"image-keyboard-response"	"31"	"122569"	"0.0-4.0-2.0-2.0-1.4"	"uggt7m"	"657"	"1366"	"chrome"	"109.0.0"	"FALSE"	"Windows 10"	"60.45"	"140"	n/a	n/a	n/a	n/a	n/a	n/a	"Trial"	n/a	n/a	n/a	"429"	"arrowdown"	n/a	"NULL"	"NULL"	"NULL"	"stimuli/MullerLyer_-230000_-0.7000.png"	n/a	"MullerLyer"	"arrowdown"	"1203"	"TRUE"	"MullerLyer"	"-23000000000"	"-0.700000000"	"1"	"11"
n/a	"html-keyboard-response"	"32"	"123633"	"0.0-4.0-2.0-2.0-0.5"	"uggt7m"	"657"	"1366"	"chrome"	"109.0.0"	"FALSE"	"Windows 10"	"60.45"	"140"	n/a	n/a	n/a	n/a	n/a	n/a	"fixation"	n/a	n/a	n/a	n/a	"NULL"	n/a	"NULL"	"NULL"	"NULL"	"<p style=\"color: black; font-size: 80px; padding-left: 12%; padding-right: 24%; padding-top: 17%; padding-bottom: 19%\">+</p>"	"1059"	n/a	n/a	n/a	n/a	n/a	n/a	n/a	n/a	n/a
n/a	"image-keyboard-response"	"33"	"124083"	"0.0-4.0-2.0-2.0-1.5"	"uggt7m"	"657"	"1366"	"chrome"	"109.0.0"	"FALSE"	"Windows 10"	"60.45"	"140"	n/a	n/a	n/a	n/a	n/a	n/a	"Trial"	n/a	n/a	n/a	"449"	"arrowup"	n/a	"NULL"	"NULL"	"NULL"	"stimuli/MullerLyer_2300000_0.70000.png"	n/a	"MullerLyer"	"arrowup"	"1064"	"TRUE"	"MullerLyer"	"230000000000"	"0.7000000000"	"1"	"12"
n/a	"html-button-response"	"34"	"126149"	"0.0-4.0-2.0-3.0"	"uggt7m"	"657"	"1366"	"chrome"	"109.0.0"	"FALSE"	"Windows 10"	"60.45"	"140"	n/a	n/a	n/a	n/a	n/a	n/a	"practice_block_results"	n/a	n/a	n/a	"2054"	"0"	n/a	"NULL"	"NULL"	"NULL"	"<p style='color:rgb(76,175,80);'> Correct Responses: <b>83.33%</b></p><hr><p style='color:rgb(233,30,99);'> Average Response Time: <b>615.67</b> ms.</p>"	n/a	n/a	n/a	n/a	n/a	n/a	n/a	n/a	n/a	n/a
"TRUE"	"preload"	"35"	"126688"	"0.0-4.0-3.0-0.0"	"uggt7m"	"657"	"1366"	"chrome"	"109.0.0"	"FALSE"	"Windows 10"	"60.45"	"140"	n/a	n/a	n/a	n/a	n/a	n/a	n/a	n/a	n/a	n/a	n/a	"NULL"	"FALSE"	"list()"	"list()"	"list()"	n/a	n/a	n/a	n/a	n/a	n/a	n/a	n/a	n/a	n/a	n/a
n/a	"html-keyboard-response"	"36"	"131156"	"0.0-4.0-3.0-1.0"	"uggt7m"	"657"	"1366"	"chrome"	"109.0.0"	"FALSE"	"Windows 10"	"60.45"	"140"	n/a	n/a	n/a	n/a	n/a	n/a	n/a	n/a	n/a	n/a	"4467"	"enter"	n/a	"NULL"	"NULL"	"NULL"	"<p><b>Practice</b></p><p>In this part, two red lines will appear side by side.</p><p>Your task is to tell <b>which line is longer</b> in length, regardless of their orientation, as fast as you can, and without making errors.</p><p>Don't get distracted by the orientation of the lines!</p><p>Press <b>the LEFT or the RIGHT arrow</b> to indicate which <b>line is the longer one.</b></p><div style='float: center'><img src='materials/instructions/VerticalHorizontal_Demo.png' height='300'></img><p><img src='utils/answer/answer_leftright_keyboard.PNG' height='150'></img></p><p class='small'>In this example, the correct answer is the <b>LEFT arrow</b>.</p></div><p>Are you ready? <b>Press ENTER to start</b></p>"	n/a	n/a	n/a	n/a	n/a	n/a	n/a	n/a	n/a	n/a
n/a	"html-keyboard-response"	"37"	"132952"	"0.0-4.0-3.0-2.0-0.0"	"uggt7m"	"657"	"1366"	"chrome"	"109.0.0"	"FALSE"	"Windows 10"	"60.45"	"140"	n/a	n/a	n/a	n/a	n/a	n/a	"fixation"	n/a	n/a	n/a	n/a	"NULL"	n/a	"NULL"	"NULL"	"NULL"	"<p style=\"color: black; font-size: 80px; padding-left: 15%; padding-right: 13%; padding-top: 40%; padding-bottom: 25%\">+</p>"	"1275"	n/a	n/a	n/a	n/a	n/a	n/a	n/a	n/a	n/a
n/a	"image-keyboard-response"	"38"	"133321"	"0.0-4.0-3.0-2.0-1.0"	"uggt7m"	"657"	"1366"	"chrome"	"109.0.0"	"FALSE"	"Windows 10"	"60.45"	"140"	n/a	n/a	n/a	n/a	n/a	n/a	"Trial"	n/a	n/a	n/a	"368"	"arrowleft"	n/a	"NULL"	"NULL"	"NULL"	"stimuli/VerticalHorizontal_-330000_0.90000.png"	n/a	"VerticalHorizontal"	"arrowleft"	"1796"	"TRUE"	"VerticalHorizontal"	"-33000000000"	"0.9000000000"	"1"	"13"
n/a	"html-keyboard-response"	"39"	"134492"	"0.0-4.0-3.0-2.0-0.1"	"uggt7m"	"657"	"1366"	"chrome"	"109.0.0"	"FALSE"	"Windows 10"	"60.45"	"140"	n/a	n/a	n/a	n/a	n/a	n/a	"fixation"	n/a	n/a	n/a	n/a	"NULL"	n/a	"NULL"	"NULL"	"NULL"	"<p style=\"color: black; font-size: 80px; padding-left: 45%; padding-right: 49%; padding-top: 36%; padding-bottom: 14%\">+</p>"	"1158"	n/a	n/a	n/a	n/a	n/a	n/a	n/a	n/a	n/a
n/a	"image-keyboard-response"	"40"	"134996"	"0.0-4.0-3.0-2.0-1.1"	"uggt7m"	"657"	"1366"	"chrome"	"109.0.0"	"FALSE"	"Windows 10"	"60.45"	"140"	n/a	n/a	n/a	n/a	n/a	n/a	"Trial"	n/a	n/a	n/a	"503"	"arrowleft"	n/a	"NULL"	"NULL"	"NULL"	"stimuli/VerticalHorizontal_3300000_0.90000.png"	n/a	"VerticalHorizontal"	"arrowleft"	"1171"	"TRUE"	"VerticalHorizontal"	"330000000000"	"0.9000000000"	"1"	"14"
n/a	"html-keyboard-response"	"41"	"136354"	"0.0-4.0-3.0-2.0-0.2"	"uggt7m"	"657"	"1366"	"chrome"	"109.0.0"	"FALSE"	"Windows 10"	"60.45"	"140"	n/a	n/a	n/a	n/a	n/a	n/a	"fixation"	n/a	n/a	n/a	n/a	"NULL"	n/a	"NULL"	"NULL"	"NULL"	"<p style=\"color: black; font-size: 80px; padding-left: 15%; padding-right: 45%; padding-top: 25%; padding-bottom: 36%\">+</p>"	"1348"	n/a	n/a	n/a	n/a	n/a	n/a	n/a	n/a	n/a
n/a	"image-keyboard-response"	"42"	"136738"	"0.0-4.0-3.0-2.0-1.2"	"uggt7m"	"657"	"1366"	"chrome"	"109.0.0"	"FALSE"	"Windows 10"	"60.45"	"140"	n/a	n/a	n/a	n/a	n/a	n/a	"Trial"	n/a	n/a	n/a	"382"	"arrowright"	n/a	"NULL"	"NULL"	"NULL"	"stimuli/VerticalHorizontal_3300000_-0.9000.png"	n/a	"VerticalHorizontal"	"arrowright"	"1358"	"TRUE"	"VerticalHorizontal"	"330000000000"	"-0.900000000"	"1"	"15"
n/a	"html-keyboard-response"	"43"	"137931"	"0.0-4.0-3.0-2.0-0.3"	"uggt7m"	"657"	"1366"	"chrome"	"109.0.0"	"FALSE"	"Windows 10"	"60.45"	"140"	n/a	n/a	n/a	n/a	n/a	n/a	"fixation"	n/a	n/a	n/a	n/a	"NULL"	n/a	"NULL"	"NULL"	"NULL"	"<p style=\"color: black; font-size: 80px; padding-left: 1%; padding-right: 37%; padding-top: 23%; padding-bottom: 12%\">+</p>"	"1174"	n/a	n/a	n/a	n/a	n/a	n/a	n/a	n/a	n/a
n/a	"image-keyboard-response"	"44"	"138325"	"0.0-4.0-3.0-2.0-1.3"	"uggt7m"	"657"	"1366"	"chrome"	"109.0.0"	"FALSE"	"Windows 10"	"60.45"	"140"	n/a	n/a	n/a	n/a	n/a	n/a	"Trial"	n/a	n/a	n/a	"393"	"arrowright"	n/a	"NULL"	"NULL"	"NULL"	"stimuli/VerticalHorizontal_-330000_-0.9000.png"	n/a	"VerticalHorizontal"	"arrowright"	"1193"	"TRUE"	"VerticalHorizontal"	"-33000000000"	"-0.900000000"	"1"	"16"
n/a	"html-keyboard-response"	"45"	"139401"	"0.0-4.0-3.0-2.0-0.4"	"uggt7m"	"657"	"1366"	"chrome"	"109.0.0"	"FALSE"	"Windows 10"	"60.45"	"140"	n/a	n/a	n/a	n/a	n/a	n/a	"fixation"	n/a	n/a	n/a	n/a	"NULL"	n/a	"NULL"	"NULL"	"NULL"	"<p style=\"color: black; font-size: 80px; padding-left: 47%; padding-right: 18%; padding-top: 18%; padding-bottom: 23%\">+</p>"	"1056"	n/a	n/a	n/a	n/a	n/a	n/a	n/a	n/a	n/a
n/a	"image-keyboard-response"	"46"	"139804"	"0.0-4.0-3.0-2.0-1.4"	"uggt7m"	"657"	"1366"	"chrome"	"109.0.0"	"FALSE"	"Windows 10"	"60.45"	"140"	n/a	n/a	n/a	n/a	n/a	n/a	"Trial"	n/a	n/a	n/a	"402"	"arrowleft"	n/a	"NULL"	"NULL"	"NULL"	"stimuli/VerticalHorizontal_0000000_0.90000.png"	n/a	"VerticalHorizontal"	"arrowleft"	"1076"	"TRUE"	"VerticalHorizontal"	"000000000000"	"0.9000000000"	"1"	"17"
n/a	"html-keyboard-response"	"47"	"140981"	"0.0-4.0-3.0-2.0-0.5"	"uggt7m"	"657"	"1366"	"chrome"	"109.0.0"	"FALSE"	"Windows 10"	"60.45"	"140"	n/a	n/a	n/a	n/a	n/a	n/a	"fixation"	n/a	n/a	n/a	n/a	"NULL"	n/a	"NULL"	"NULL"	"NULL"	"<p style=\"color: black; font-size: 80px; padding-left: 13%; padding-right: 38%; padding-top: 7%; padding-bottom: 35%\">+</p>"	"1160"	n/a	n/a	n/a	n/a	n/a	n/a	n/a	n/a	n/a
n/a	"image-keyboard-response"	"48"	"141410"	"0.0-4.0-3.0-2.0-1.5"	"uggt7m"	"657"	"1366"	"chrome"	"109.0.0"	"FALSE"	"Windows 10"	"60.45"	"140"	n/a	n/a	n/a	n/a	n/a	n/a	"Trial"	n/a	n/a	n/a	"427"	"arrowright"	n/a	"NULL"	"NULL"	"NULL"	"stimuli/VerticalHorizontal_0000000_-0.9000.png"	n/a	"VerticalHorizontal"	"arrowright"	"1177"	"TRUE"	"VerticalHorizontal"	"000000000000"	"-0.900000000"	"1"	"18"
n/a	"html-button-response"	"49"	"143528"	"0.0-4.0-3.0-3.0"	"uggt7m"	"657"	"1366"	"chrome"	"109.0.0"	"FALSE"	"Windows 10"	"60.45"	"140"	n/a	n/a	n/a	n/a	n/a	n/a	"practice_block_results"	n/a	n/a	n/a	"2117"	"0"	n/a	"NULL"	"NULL"	"NULL"	"<p style='color:rgb(76,175,80);'> Correct Responses: <b>100.00%</b></p><hr><p style='color:rgb(233,30,99);'> Average Response Time: <b>412.50</b> ms.</p>"	n/a	n/a	n/a	n/a	n/a	n/a	n/a	n/a	n/a	n/a
n/a	"html-button-response"	"50"	"214191"	"0.0-4.0-4.0"	"uggt7m"	"657"	"1366"	"chrome"	"109.0.0"	"FALSE"	"Windows 10"	"60.45"	"140"	n/a	n/a	n/a	n/a	n/a	n/a	"practice_debrief"	n/a	n/a	n/a	"70147"	"0"	n/a	"NULL"	"NULL"	"NULL"	"<p><b>TRAINING COMPLETED</b></p><p>In the next phase, there will be more trials, and some might be harder too.<br> Moreover, after each illusion block, a <b>score</b> will be calculated based on speed (time you took to answer) and accuracy (number of errors).</p><p>Try to keep up a high score!</p><br><p>Note that it can be <i>really</i> challenging at times, so you will need to rely on your <b>intuition</b> and gut feeling to answer as fast as you can without making errors.</p><p>Each illusion block will be repeated two times (so that you have the opportunity to improve your score), but the order of the blocks is random.</p><p>Remember, your goal is to be as <b>fast</b> and <b>accurate</b> as possible. Good luck!</p><br>"	n/a	n/a	n/a	n/a	n/a	n/a	n/a	n/a	n/a	n/a
"TRUE"	"preload"	"51"	"214409"	"0.0-5.0-0.0"	"uggt7m"	"657"	"1366"	"chrome"	"109.0.0"	"FALSE"	"Windows 10"	"60.45"	"140"	n/a	n/a	n/a	n/a	n/a	n/a	n/a	n/a	n/a	n/a	n/a	"NULL"	"FALSE"	"list()"	"list()"	"list()"	n/a	n/a	n/a	n/a	n/a	n/a	n/a	n/a	n/a	n/a	n/a
n/a	"html-keyboard-response"	"52"	"218414"	"0.0-5.0-1.0"	"uggt7m"	"657"	"1366"	"chrome"	"109.0.0"	"FALSE"	"Windows 10"	"60.45"	"140"	n/a	n/a	n/a	n/a	n/a	n/a	n/a	n/a	n/a	n/a	"4004"	"enter"	n/a	"NULL"	"NULL"	"NULL"	"<p><b>Part 1/6</b></p><p>In this part, two red circles will appear side by side on the screen.</p><p>Your task is to select which <b>red circle is bigger</b> in size as fast as you can, without making errors.</p><p>Don't get distracted by the surrounding black circles around the red circles!</p><p>Press <b>the LEFT or the RIGHT arrow</b> to indicate which is the bigger <b>red circle.</b></p><div style='float: center'><img src='materials/instructions/Ebbinghaus_Demo.png' height='300'></img><p><img src='utils/answer/answer_leftright_keyboard.PNG' height='150'></img></p><p class='small'>In this example, the correct answer is the <b>LEFT arrow</b>.</p></div><p>Are you ready? <b>Press ENTER to start</b></p>"	n/a	n/a	n/a	n/a	n/a	n/a	n/a	n/a	n/a	n/a
n/a	"html-keyboard-response"	"53"	"220057"	"0.0-5.0-2.0-0.0"	"uggt7m"	"657"	"1366"	"chrome"	"109.0.0"	"FALSE"	"Windows 10"	"60.45"	"140"	n/a	n/a	n/a	n/a	n/a	n/a	"fixation"	n/a	n/a	n/a	n/a	"NULL"	n/a	"NULL"	"NULL"	"NULL"	"<p style=\"color: black; font-size: 80px; padding-left: 39%; padding-right: 24%; padding-top: 16%; padding-bottom: 12%\">+</p>"	"1119"	n/a	n/a	n/a	n/a	n/a	n/a	n/a	n/a	n/a
n/a	"image-keyboard-response"	"54"	"220603"	"0.0-5.0-2.0-1.0"	"uggt7m"	"657"	"1366"	"chrome"	"109.0.0"	"FALSE"	"Windows 10"	"60.45"	"140"	n/a	n/a	n/a	n/a	n/a	n/a	"Trial"	n/a	n/a	n/a	"544"	"arrowleft"	n/a	"NULL"	"NULL"	"NULL"	"stimuli/Ebbinghaus_-0.35714_0.28000.png"	n/a	"Ebbinghaus"	"arrowleft"	"1643"	"TRUE"	"Ebbinghaus"	"-0.357140000"	"0.2800000000"	"1"	"19"
n/a	"html-keyboard-response"	"55"	"221757"	"0.0-5.0-2.0-0.1"	"uggt7m"	"657"	"1366"	"chrome"	"109.0.0"	"FALSE"	"Windows 10"	"60.45"	"140"	n/a	n/a	n/a	n/a	n/a	n/a	"fixation"	n/a	n/a	n/a	n/a	"NULL"	n/a	"NULL"	"NULL"	"NULL"	"<p style=\"color: black; font-size: 80px; padding-left: 43%; padding-right: 8%; padding-top: 10%; padding-bottom: 34%\">+</p>"	"1151"	n/a	n/a	n/a	n/a	n/a	n/a	n/a	n/a	n/a
n/a	"image-keyboard-response"	"56"	"223640"	"0.0-5.0-2.0-1.1"	"uggt7m"	"657"	"1366"	"chrome"	"109.0.0"	"FALSE"	"Windows 10"	"60.45"	"140"	n/a	n/a	n/a	n/a	n/a	n/a	"Trial"	n/a	n/a	n/a	"1881"	"arrowright"	n/a	"NULL"	"NULL"	"NULL"	"stimuli/Ebbinghaus_0.87143_0.11071.png"	n/a	"Ebbinghaus"	"arrowleft"	"1154"	"FALSE"	"Ebbinghaus"	"0.8714300000"	"0.1107100000"	"1"	"20"
n/a	"html-keyboard-response"	"57"	"224991"	"0.0-5.0-2.0-0.2"	"uggt7m"	"657"	"1366"	"chrome"	"109.0.0"	"FALSE"	"Windows 10"	"60.45"	"140"	n/a	n/a	n/a	n/a	n/a	n/a	"fixation"	n/a	n/a	n/a	n/a	"NULL"	n/a	"NULL"	"NULL"	"NULL"	"<p style=\"color: black; font-size: 80px; padding-left: 48%; padding-right: 19%; padding-top: 34%; padding-bottom: 35%\">+</p>"	"1333"	n/a	n/a	n/a	n/a	n/a	n/a	n/a	n/a	n/a
n/a	"image-keyboard-response"	"58"	"225971"	"0.0-5.0-2.0-1.2"	"uggt7m"	"657"	"1366"	"chrome"	"109.0.0"	"FALSE"	"Windows 10"	"60.45"	"140"	n/a	n/a	n/a	n/a	n/a	n/a	"Trial"	n/a	n/a	n/a	"978"	"arrowleft"	n/a	"NULL"	"NULL"	"NULL"	"stimuli/Ebbinghaus_-0.35714_0.15857.png"	n/a	"Ebbinghaus"	"arrowleft"	"1351"	"TRUE"	"Ebbinghaus"	"-0.357140000"	"0.1585700000"	"1"	"21"
n/a	"html-keyboard-response"	"59"	"227386"	"0.0-5.0-2.0-0.3"	"uggt7m"	"657"	"1366"	"chrome"	"109.0.0"	"FALSE"	"Windows 10"	"60.45"	"140"	n/a	n/a	n/a	n/a	n/a	n/a	"fixation"	n/a	n/a	n/a	n/a	"NULL"	n/a	"NULL"	"NULL"	"NULL"	"<p style=\"color: black; font-size: 80px; padding-left: 16%; padding-right: 27%; padding-top: 46%; padding-bottom: 11%\">+</p>"	"1392"	n/a	n/a	n/a	n/a	n/a	n/a	n/a	n/a	n/a
n/a	"image-keyboard-response"	"60"	"228515"	"0.0-5.0-2.0-1.3"	"uggt7m"	"657"	"1366"	"chrome"	"109.0.0"	"FALSE"	"Windows 10"	"60.45"	"140"	n/a	n/a	n/a	n/a	n/a	n/a	"Trial"	n/a	n/a	n/a	"1128"	"arrowleft"	n/a	"NULL"	"NULL"	"NULL"	"stimuli/Ebbinghaus_-0.87143_0.11071.png"	n/a	"Ebbinghaus"	"arrowleft"	"1415"	"TRUE"	"Ebbinghaus"	"-0.871430000"	"0.1107100000"	"1"	"22"
n/a	"html-keyboard-response"	"61"	"229646"	"0.0-5.0-2.0-0.4"	"uggt7m"	"657"	"1366"	"chrome"	"109.0.0"	"FALSE"	"Windows 10"	"60.45"	"140"	n/a	n/a	n/a	n/a	n/a	n/a	"fixation"	n/a	n/a	n/a	n/a	"NULL"	n/a	"NULL"	"NULL"	"NULL"	"<p style=\"color: black; font-size: 80px; padding-left: 12%; padding-right: 13%; padding-top: 27%; padding-bottom: 35%\">+</p>"	"1118"	n/a	n/a	n/a	n/a	n/a	n/a	n/a	n/a	n/a
n/a	"image-keyboard-response"	"62"	"231074"	"0.0-5.0-2.0-1.4"	"uggt7m"	"657"	"1366"	"chrome"	"109.0.0"	"FALSE"	"Windows 10"	"60.45"	"140"	n/a	n/a	n/a	n/a	n/a	n/a	"Trial"	n/a	n/a	n/a	"1427"	"arrowright"	n/a	"NULL"	"NULL"	"NULL"	"stimuli/Ebbinghaus_0.35714_-0.15857.png"	n/a	"Ebbinghaus"	"arrowright"	"1131"	"TRUE"	"Ebbinghaus"	"0.3571400000"	"-0.158570000"	"1"	"23"
n/a	"html-keyboard-response"	"63"	"232116"	"0.0-5.0-2.0-0.5"	"uggt7m"	"657"	"1366"	"chrome"	"109.0.0"	"FALSE"	"Windows 10"	"60.45"	"140"	n/a	n/a	n/a	n/a	n/a	n/a	"fixation"	n/a	n/a	n/a	n/a	"NULL"	n/a	"NULL"	"NULL"	"NULL"	"<p style=\"color: black; font-size: 80px; padding-left: 28%; padding-right: 41%; padding-top: 2%; padding-bottom: 37%\">+</p>"	"1030"	n/a	n/a	n/a	n/a	n/a	n/a	n/a	n/a	n/a
n/a	"image-keyboard-response"	"64"	"233432"	"0.0-5.0-2.0-1.5"	"uggt7m"	"657"	"1366"	"chrome"	"109.0.0"	"FALSE"	"Windows 10"	"60.45"	"140"	n/a	n/a	n/a	n/a	n/a	n/a	"Trial"	n/a	n/a	n/a	"1315"	"arrowright"	n/a	"NULL"	"NULL"	"NULL"	"stimuli/Ebbinghaus_-0.1000_-0.15857.png"	n/a	"Ebbinghaus"	"arrowright"	"1042"	"TRUE"	"Ebbinghaus"	"-0.100000000"	"-0.158570000"	"1"	"24"
n/a	"html-keyboard-response"	"65"	"234462"	"0.0-5.0-2.0-0.6"	"uggt7m"	"657"	"1366"	"chrome"	"109.0.0"	"FALSE"	"Windows 10"	"60.45"	"140"	n/a	n/a	n/a	n/a	n/a	n/a	"fixation"	n/a	n/a	n/a	n/a	"NULL"	n/a	"NULL"	"NULL"	"NULL"	"<p style=\"color: black; font-size: 80px; padding-left: 40%; padding-right: 28%; padding-top: 48%; padding-bottom: 11%\">+</p>"	"1020"	n/a	n/a	n/a	n/a	n/a	n/a	n/a	n/a	n/a
n/a	"image-keyboard-response"	"66"	"236019"	"0.0-5.0-2.0-1.6"	"uggt7m"	"657"	"1366"	"chrome"	"109.0.0"	"FALSE"	"Windows 10"	"60.45"	"140"	n/a	n/a	n/a	n/a	n/a	n/a	"Trial"	n/a	n/a	n/a	"1556"	"arrowleft"	n/a	"NULL"	"NULL"	"NULL"	"stimuli/Ebbinghaus_-0.35714_0.21500.png"	n/a	"Ebbinghaus"	"arrowleft"	"1030"	"TRUE"	"Ebbinghaus"	"-0.357140000"	"0.2150000000"	"1"	"25"
n/a	"html-keyboard-response"	"67"	"237081"	"0.0-5.0-2.0-0.7"	"uggt7m"	"657"	"1366"	"chrome"	"109.0.0"	"FALSE"	"Windows 10"	"60.45"	"140"	n/a	n/a	n/a	n/a	n/a	n/a	"fixation"	n/a	n/a	n/a	n/a	"NULL"	n/a	"NULL"	"NULL"	"NULL"	"<p style=\"color: black; font-size: 80px; padding-left: 5%; padding-right: 44%; padding-top: 46%; padding-bottom: 5%\">+</p>"	"1049"	n/a	n/a	n/a	n/a	n/a	n/a	n/a	n/a	n/a
n/a	"image-keyboard-response"	"68"	"237799"	"0.0-5.0-2.0-1.7"	"uggt7m"	"657"	"1366"	"chrome"	"109.0.0"	"FALSE"	"Windows 10"	"60.45"	"140"	n/a	n/a	n/a	n/a	n/a	n/a	"Trial"	n/a	n/a	n/a	"717"	"arrowright"	n/a	"NULL"	"NULL"	"NULL"	"stimuli/Ebbinghaus_-0.87143_-0.2150.png"	n/a	"Ebbinghaus"	"arrowright"	"1062"	"TRUE"	"Ebbinghaus"	"-0.871430000"	"-0.215000000"	"1"	"26"
n/a	"html-keyboard-response"	"69"	"239229"	"0.0-5.0-2.0-0.8"	"uggt7m"	"657"	"1366"	"chrome"	"109.0.0"	"FALSE"	"Windows 10"	"60.45"	"140"	n/a	n/a	n/a	n/a	n/a	n/a	"fixation"	n/a	n/a	n/a	n/a	"NULL"	n/a	"NULL"	"NULL"	"NULL"	"<p style=\"color: black; font-size: 80px; padding-left: 39%; padding-right: 15%; padding-top: 30%; padding-bottom: 19%\">+</p>"	"1426"	n/a	n/a	n/a	n/a	n/a	n/a	n/a	n/a	n/a
n/a	"image-keyboard-response"	"70"	"239942"	"0.0-5.0-2.0-1.8"	"uggt7m"	"657"	"1366"	"chrome"	"109.0.0"	"FALSE"	"Windows 10"	"60.45"	"140"	n/a	n/a	n/a	n/a	n/a	n/a	"Trial"	n/a	n/a	n/a	"711"	"arrowleft"	n/a	"NULL"	"NULL"	"NULL"	"stimuli/Ebbinghaus_-0.61429_0.21500.png"	n/a	"Ebbinghaus"	"arrowleft"	"1430"	"TRUE"	"Ebbinghaus"	"-0.614290000"	"0.2150000000"	"1"	"27"
n/a	"html-keyboard-response"	"71"	"241396"	"0.0-5.0-2.0-0.9"	"uggt7m"	"657"	"1366"	"chrome"	"109.0.0"	"FALSE"	"Windows 10"	"60.45"	"140"	n/a	n/a	n/a	n/a	n/a	n/a	"fixation"	n/a	n/a	n/a	n/a	"NULL"	n/a	"NULL"	"NULL"	"NULL"	"<p style=\"color: black; font-size: 80px; padding-left: 4%; padding-right: 44%; padding-top: 44%; padding-bottom: 47%\">+</p>"	"1453"	n/a	n/a	n/a	n/a	n/a	n/a	n/a	n/a	n/a
n/a	"image-keyboard-response"	"72"	"242230"	"0.0-5.0-2.0-1.9"	"uggt7m"	"657"	"1366"	"chrome"	"109.0.0"	"FALSE"	"Windows 10"	"60.45"	"140"	n/a	n/a	n/a	n/a	n/a	n/a	"Trial"	n/a	n/a	n/a	"833"	"arrowright"	n/a	"NULL"	"NULL"	"NULL"	"stimuli/Ebbinghaus_0.10000_-0.2150.png"	n/a	"Ebbinghaus"	"arrowright"	"1454"	"TRUE"	"Ebbinghaus"	"0.1000000000"	"-0.215000000"	"1"	"28"
n/a	"html-keyboard-response"	"73"	"243376"	"0.0-5.0-2.0-0.10"	"uggt7m"	"657"	"1366"	"chrome"	"109.0.0"	"FALSE"	"Windows 10"	"60.45"	"140"	n/a	n/a	n/a	n/a	n/a	n/a	"fixation"	n/a	n/a	n/a	n/a	"NULL"	n/a	"NULL"	"NULL"	"NULL"	"<p style=\"color: black; font-size: 80px; padding-left: 5%; padding-right: 15%; padding-top: 7%; padding-bottom: 45%\">+</p>"	"1137"	n/a	n/a	n/a	n/a	n/a	n/a	n/a	n/a	n/a
n/a	"image-keyboard-response"	"74"	"244158"	"0.0-5.0-2.0-1.10"	"uggt7m"	"657"	"1366"	"chrome"	"109.0.0"	"FALSE"	"Windows 10"	"60.45"	"140"	n/a	n/a	n/a	n/a	n/a	n/a	"Trial"	n/a	n/a	n/a	"781"	"arrowleft"	n/a	"NULL"	"NULL"	"NULL"	"stimuli/Ebbinghaus_-0.35714_0.11071.png"	n/a	"Ebbinghaus"	"arrowleft"	"1146"	"TRUE"	"Ebbinghaus"	"-0.357140000"	"0.1107100000"	"1"	"29"
n/a	"html-keyboard-response"	"75"	"245619"	"0.0-5.0-2.0-0.11"	"uggt7m"	"657"	"1366"	"chrome"	"109.0.0"	"FALSE"	"Windows 10"	"60.45"	"140"	n/a	n/a	n/a	n/a	n/a	n/a	"fixation"	n/a	n/a	n/a	n/a	"NULL"	n/a	"NULL"	"NULL"	"NULL"	"<p style=\"color: black; font-size: 80px; padding-left: 8%; padding-right: 46%; padding-top: 0%; padding-bottom: 19%\">+</p>"	"1439"	n/a	n/a	n/a	n/a	n/a	n/a	n/a	n/a	n/a
n/a	"image-keyboard-response"	"76"	"246636"	"0.0-5.0-2.0-1.11"	"uggt7m"	"657"	"1366"	"chrome"	"109.0.0"	"FALSE"	"Windows 10"	"60.45"	"140"	n/a	n/a	n/a	n/a	n/a	n/a	"Trial"	n/a	n/a	n/a	"1016"	"arrowright"	n/a	"NULL"	"NULL"	"NULL"	"stimuli/Ebbinghaus_0.87143_-0.15857.png"	n/a	"Ebbinghaus"	"arrowright"	"1461"	"TRUE"	"Ebbinghaus"	"0.8714300000"	"-0.158570000"	"1"	"30"
n/a	"html-keyboard-response"	"77"	"248058"	"0.0-5.0-2.0-0.12"	"uggt7m"	"657"	"1366"	"chrome"	"109.0.0"	"FALSE"	"Windows 10"	"60.45"	"140"	n/a	n/a	n/a	n/a	n/a	n/a	"fixation"	n/a	n/a	n/a	n/a	"NULL"	n/a	"NULL"	"NULL"	"NULL"	"<p style=\"color: black; font-size: 80px; padding-left: 30%; padding-right: 42%; padding-top: 49%; padding-bottom: 20%\">+</p>"	"1400"	n/a	n/a	n/a	n/a	n/a	n/a	n/a	n/a	n/a
n/a	"image-keyboard-response"	"78"	"248996"	"0.0-5.0-2.0-1.12"	"uggt7m"	"657"	"1366"	"chrome"	"109.0.0"	"FALSE"	"Windows 10"	"60.45"	"140"	n/a	n/a	n/a	n/a	n/a	n/a	"Trial"	n/a	n/a	n/a	"937"	"arrowleft"	n/a	"NULL"	"NULL"	"NULL"	"stimuli/Ebbinghaus_0.87143_-0.11071.png"	n/a	"Ebbinghaus"	"arrowright"	"1422"	"FALSE"	"Ebbinghaus"	"0.8714300000"	"-0.110710000"	"1"	"31"
n/a	"html-keyboard-response"	"79"	"250224"	"0.0-5.0-2.0-0.13"	"uggt7m"	"657"	"1366"	"chrome"	"109.0.0"	"FALSE"	"Windows 10"	"60.45"	"140"	n/a	n/a	n/a	n/a	n/a	n/a	"fixation"	n/a	n/a	n/a	n/a	"NULL"	n/a	"NULL"	"NULL"	"NULL"	"<p style=\"color: black; font-size: 80px; padding-left: 30%; padding-right: 17%; padding-top: 45%; padding-bottom: 35%\">+</p>"	"1222"	n/a	n/a	n/a	n/a	n/a	n/a	n/a	n/a	n/a
n/a	"image-keyboard-response"	"80"	"251393"	"0.0-5.0-2.0-1.13"	"uggt7m"	"657"	"1366"	"chrome"	"109.0.0"	"FALSE"	"Windows 10"	"60.45"	"140"	n/a	n/a	n/a	n/a	n/a	n/a	"Trial"	n/a	n/a	n/a	"1168"	"arrowleft"	n/a	"NULL"	"NULL"	"NULL"	"stimuli/Ebbinghaus_0.87143_0.15857.png"	n/a	"Ebbinghaus"	"arrowleft"	"1228"	"TRUE"	"Ebbinghaus"	"0.8714300000"	"0.1585700000"	"1"	"32"
n/a	"html-keyboard-response"	"81"	"252830"	"0.0-5.0-2.0-0.14"	"uggt7m"	"657"	"1366"	"chrome"	"109.0.0"	"FALSE"	"Windows 10"	"60.45"	"140"	n/a	n/a	n/a	n/a	n/a	n/a	"fixation"	n/a	n/a	n/a	n/a	"NULL"	n/a	"NULL"	"NULL"	"NULL"	"<p style=\"color: black; font-size: 80px; padding-left: 13%; padding-right: 44%; padding-top: 43%; padding-bottom: 17%\">+</p>"	"1425"	n/a	n/a	n/a	n/a	n/a	n/a	n/a	n/a	n/a
n/a	"image-keyboard-response"	"82"	"253776"	"0.0-5.0-2.0-1.14"	"uggt7m"	"657"	"1366"	"chrome"	"109.0.0"	"FALSE"	"Windows 10"	"60.45"	"140"	n/a	n/a	n/a	n/a	n/a	n/a	"Trial"	n/a	n/a	n/a	"945"	"arrowright"	n/a	"NULL"	"NULL"	"NULL"	"stimuli/Ebbinghaus_0.10000_-0.15857.png"	n/a	"Ebbinghaus"	"arrowright"	"1437"	"TRUE"	"Ebbinghaus"	"0.1000000000"	"-0.158570000"	"1"	"33"
n/a	"html-keyboard-response"	"83"	"254790"	"0.0-5.0-2.0-0.15"	"uggt7m"	"657"	"1366"	"chrome"	"109.0.0"	"FALSE"	"Windows 10"	"60.45"	"140"	n/a	n/a	n/a	n/a	n/a	n/a	"fixation"	n/a	n/a	n/a	n/a	"NULL"	n/a	"NULL"	"NULL"	"NULL"	"<p style=\"color: black; font-size: 80px; padding-left: 6%; padding-right: 27%; padding-top: 28%; padding-bottom: 45%\">+</p>"	"1005"	n/a	n/a	n/a	n/a	n/a	n/a	n/a	n/a	n/a
n/a	"image-keyboard-response"	"84"	"255764"	"0.0-5.0-2.0-1.15"	"uggt7m"	"657"	"1366"	"chrome"	"109.0.0"	"FALSE"	"Windows 10"	"60.45"	"140"	n/a	n/a	n/a	n/a	n/a	n/a	"Trial"	n/a	n/a	n/a	"968"	"arrowright"	n/a	"NULL"	"NULL"	"NULL"	"stimuli/Ebbinghaus_-0.35714_-0.15857.png"	n/a	"Ebbinghaus"	"arrowright"	"1014"	"TRUE"	"Ebbinghaus"	"-0.357140000"	"-0.158570000"	"1"	"34"
n/a	"html-keyboard-response"	"85"	"257270"	"0.0-5.0-2.0-0.16"	"uggt7m"	"657"	"1366"	"chrome"	"109.0.0"	"FALSE"	"Windows 10"	"60.45"	"140"	n/a	n/a	n/a	n/a	n/a	n/a	"fixation"	n/a	n/a	n/a	n/a	"NULL"	n/a	"NULL"	"NULL"	"NULL"	"<p style=\"color: black; font-size: 80px; padding-left: 17%; padding-right: 23%; padding-top: 7%; padding-bottom: 35%\">+</p>"	"1498"	n/a	n/a	n/a	n/a	n/a	n/a	n/a	n/a	n/a
n/a	"image-keyboard-response"	"86"	"258057"	"0.0-5.0-2.0-1.16"	"uggt7m"	"657"	"1366"	"chrome"	"109.0.0"	"FALSE"	"Windows 10"	"60.45"	"140"	n/a	n/a	n/a	n/a	n/a	n/a	"Trial"	n/a	n/a	n/a	"786"	"arrowright"	n/a	"NULL"	"NULL"	"NULL"	"stimuli/Ebbinghaus_-0.87143_-0.15857.png"	n/a	"Ebbinghaus"	"arrowright"	"1506"	"TRUE"	"Ebbinghaus"	"-0.871430000"	"-0.158570000"	"1"	"35"
n/a	"html-keyboard-response"	"87"	"259324"	"0.0-5.0-2.0-0.17"	"uggt7m"	"657"	"1366"	"chrome"	"109.0.0"	"FALSE"	"Windows 10"	"60.45"	"140"	n/a	n/a	n/a	n/a	n/a	n/a	"fixation"	n/a	n/a	n/a	n/a	"NULL"	n/a	"NULL"	"NULL"	"NULL"	"<p style=\"color: black; font-size: 80px; padding-left: 27%; padding-right: 8%; padding-top: 12%; padding-bottom: 39%\">+</p>"	"1252"	n/a	n/a	n/a	n/a	n/a	n/a	n/a	n/a	n/a
n/a	"image-keyboard-response"	"88"	"260379"	"0.0-5.0-2.0-1.17"	"uggt7m"	"657"	"1366"	"chrome"	"109.0.0"	"FALSE"	"Windows 10"	"60.45"	"140"	n/a	n/a	n/a	n/a	n/a	n/a	"Trial"	n/a	n/a	n/a	"1054"	"arrowleft"	n/a	"NULL"	"NULL"	"NULL"	"stimuli/Ebbinghaus_0.35714_0.15857.png"	n/a	"Ebbinghaus"	"arrowleft"	"1267"	"TRUE"	"Ebbinghaus"	"0.3571400000"	"0.1585700000"	"1"	"36"
n/a	"html-keyboard-response"	"89"	"261838"	"0.0-5.0-2.0-0.18"	"uggt7m"	"657"	"1366"	"chrome"	"109.0.0"	"FALSE"	"Windows 10"	"60.45"	"140"	n/a	n/a	n/a	n/a	n/a	n/a	"fixation"	n/a	n/a	n/a	n/a	"NULL"	n/a	"NULL"	"NULL"	"NULL"	"<p style=\"color: black; font-size: 80px; padding-left: 38%; padding-right: 0%; padding-top: 39%; padding-bottom: 4%\">+</p>"	"1449"	n/a	n/a	n/a	n/a	n/a	n/a	n/a	n/a	n/a
n/a	"image-keyboard-response"	"90"	"262732"	"0.0-5.0-2.0-1.18"	"uggt7m"	"657"	"1366"	"chrome"	"109.0.0"	"FALSE"	"Windows 10"	"60.45"	"140"	n/a	n/a	n/a	n/a	n/a	n/a	"Trial"	n/a	n/a	n/a	"893"	"arrowleft"	n/a	"NULL"	"NULL"	"NULL"	"stimuli/Ebbinghaus_-0.61429_0.15857.png"	n/a	"Ebbinghaus"	"arrowleft"	"1459"	"TRUE"	"Ebbinghaus"	"-0.614290000"	"0.1585700000"	"1"	"37"
n/a	"html-keyboard-response"	"91"	"263842"	"0.0-5.0-2.0-0.19"	"uggt7m"	"657"	"1366"	"chrome"	"109.0.0"	"FALSE"	"Windows 10"	"60.45"	"140"	n/a	n/a	n/a	n/a	n/a	n/a	"fixation"	n/a	n/a	n/a	n/a	"NULL"	n/a	"NULL"	"NULL"	"NULL"	"<p style=\"color: black; font-size: 80px; padding-left: 19%; padding-right: 29%; padding-top: 0%; padding-bottom: 49%\">+</p>"	"1102"	n/a	n/a	n/a	n/a	n/a	n/a	n/a	n/a	n/a
n/a	"image-keyboard-response"	"92"	"265117"	"0.0-5.0-2.0-1.19"	"uggt7m"	"657"	"1366"	"chrome"	"109.0.0"	"FALSE"	"Windows 10"	"60.45"	"140"	n/a	n/a	n/a	n/a	n/a	n/a	"Trial"	n/a	n/a	n/a	"1274"	"arrowright"	n/a	"NULL"	"NULL"	"NULL"	"stimuli/Ebbinghaus_0.61429_-0.11071.png"	n/a	"Ebbinghaus"	"arrowright"	"1110"	"TRUE"	"Ebbinghaus"	"0.6142900000"	"-0.110710000"	"1"	"38"
n/a	"html-keyboard-response"	"93"	"266229"	"0.0-5.0-2.0-0.20"	"uggt7m"	"657"	"1366"	"chrome"	"109.0.0"	"FALSE"	"Windows 10"	"60.45"	"140"	n/a	n/a	n/a	n/a	n/a	n/a	"fixation"	n/a	n/a	n/a	n/a	"NULL"	n/a	"NULL"	"NULL"	"NULL"	"<p style=\"color: black; font-size: 80px; padding-left: 20%; padding-right: 8%; padding-top: 45%; padding-bottom: 14%\">+</p>"	"1101"	n/a	n/a	n/a	n/a	n/a	n/a	n/a	n/a	n/a
n/a	"image-keyboard-response"	"94"	"267117"	"0.0-5.0-2.0-1.20"	"uggt7m"	"657"	"1366"	"chrome"	"109.0.0"	"FALSE"	"Windows 10"	"60.45"	"140"	n/a	n/a	n/a	n/a	n/a	n/a	"Trial"	n/a	n/a	n/a	"886"	"arrowright"	n/a	"NULL"	"NULL"	"NULL"	"stimuli/Ebbinghaus_-0.1000_-0.11071.png"	n/a	"Ebbinghaus"	"arrowright"	"1112"	"TRUE"	"Ebbinghaus"	"-0.100000000"	"-0.110710000"	"1"	"39"
n/a	"html-keyboard-response"	"95"	"268582"	"0.0-5.0-2.0-0.21"	"uggt7m"	"657"	"1366"	"chrome"	"109.0.0"	"FALSE"	"Windows 10"	"60.45"	"140"	n/a	n/a	n/a	n/a	n/a	n/a	"fixation"	n/a	n/a	n/a	n/a	"NULL"	n/a	"NULL"	"NULL"	"NULL"	"<p style=\"color: black; font-size: 80px; padding-left: 5%; padding-right: 41%; padding-top: 44%; padding-bottom: 21%\">+</p>"	"1456"	n/a	n/a	n/a	n/a	n/a	n/a	n/a	n/a	n/a
n/a	"image-keyboard-response"	"96"	"270095"	"0.0-5.0-2.0-1.21"	"uggt7m"	"657"	"1366"	"chrome"	"109.0.0"	"FALSE"	"Windows 10"	"60.45"	"140"	n/a	n/a	n/a	n/a	n/a	n/a	"Trial"	n/a	n/a	n/a	"1512"	"arrowright"	n/a	"NULL"	"NULL"	"NULL"	"stimuli/Ebbinghaus_-0.1000_-0.2150.png"	n/a	"Ebbinghaus"	"arrowright"	"1465"	"TRUE"	"Ebbinghaus"	"-0.100000000"	"-0.215000000"	"1"	"40"
n/a	"html-keyboard-response"	"97"	"271590"	"0.0-5.0-2.0-0.22"	"uggt7m"	"657"	"1366"	"chrome"	"109.0.0"	"FALSE"	"Windows 10"	"60.45"	"140"	n/a	n/a	n/a	n/a	n/a	n/a	"fixation"	n/a	n/a	n/a	n/a	"NULL"	n/a	"NULL"	"NULL"	"NULL"	"<p style=\"color: black; font-size: 80px; padding-left: 42%; padding-right: 14%; padding-top: 28%; padding-bottom: 16%\">+</p>"	"1486"	n/a	n/a	n/a	n/a	n/a	n/a	n/a	n/a	n/a
n/a	"image-keyboard-response"	"98"	"272410"	"0.0-5.0-2.0-1.22"	"uggt7m"	"657"	"1366"	"chrome"	"109.0.0"	"FALSE"	"Windows 10"	"60.45"	"140"	n/a	n/a	n/a	n/a	n/a	n/a	"Trial"	n/a	n/a	n/a	"818"	"arrowleft"	n/a	"NULL"	"NULL"	"NULL"	"stimuli/Ebbinghaus_-0.1000_0.28000.png"	n/a	"Ebbinghaus"	"arrowleft"	"1495"	"TRUE"	"Ebbinghaus"	"-0.100000000"	"0.2800000000"	"1"	"41"
n/a	"html-keyboard-response"	"99"	"273823"	"0.0-5.0-2.0-0.23"	"uggt7m"	"657"	"1366"	"chrome"	"109.0.0"	"FALSE"	"Windows 10"	"60.45"	"140"	n/a	n/a	n/a	n/a	n/a	n/a	"fixation"	n/a	n/a	n/a	n/a	"NULL"	n/a	"NULL"	"NULL"	"NULL"	"<p style=\"color: black; font-size: 80px; padding-left: 45%; padding-right: 24%; padding-top: 37%; padding-bottom: 25%\">+</p>"	"1408"	n/a	n/a	n/a	n/a	n/a	n/a	n/a	n/a	n/a
n/a	"image-keyboard-response"	"100"	"274735"	"0.0-5.0-2.0-1.23"	"uggt7m"	"657"	"1366"	"chrome"	"109.0.0"	"FALSE"	"Windows 10"	"60.45"	"140"	n/a	n/a	n/a	n/a	n/a	n/a	"Trial"	n/a	n/a	n/a	"911"	"arrowleft"	n/a	"NULL"	"NULL"	"NULL"	"stimuli/Ebbinghaus_-0.61429_0.11071.png"	n/a	"Ebbinghaus"	"arrowleft"	"1413"	"TRUE"	"Ebbinghaus"	"-0.614290000"	"0.1107100000"	"1"	"42"
n/a	"html-keyboard-response"	"101"	"275794"	"0.0-5.0-2.0-0.24"	"uggt7m"	"657"	"1366"	"chrome"	"109.0.0"	"FALSE"	"Windows 10"	"60.45"	"140"	n/a	n/a	n/a	n/a	n/a	n/a	"fixation"	n/a	n/a	n/a	n/a	"NULL"	n/a	"NULL"	"NULL"	"NULL"	"<p style=\"color: black; font-size: 80px; padding-left: 36%; padding-right: 15%; padding-top: 22%; padding-bottom: 8%\">+</p>"	"1049"	n/a	n/a	n/a	n/a	n/a	n/a	n/a	n/a	n/a
n/a	"image-keyboard-response"	"102"	"276443"	"0.0-5.0-2.0-1.24"	"uggt7m"	"657"	"1366"	"chrome"	"109.0.0"	"FALSE"	"Windows 10"	"60.45"	"140"	n/a	n/a	n/a	n/a	n/a	n/a	"Trial"	n/a	n/a	n/a	"641"	"arrowright"	n/a	"NULL"	"NULL"	"NULL"	"stimuli/Ebbinghaus_-0.61429_-0.2800.png"	n/a	"Ebbinghaus"	"arrowright"	"1059"	"TRUE"	"Ebbinghaus"	"-0.614290000"	"-0.280000000"	"1"	"43"
n/a	"html-keyboard-response"	"103"	"277930"	"0.0-5.0-2.0-0.25"	"uggt7m"	"657"	"1366"	"chrome"	"109.0.0"	"FALSE"	"Windows 10"	"60.45"	"140"	n/a	n/a	n/a	n/a	n/a	n/a	"fixation"	n/a	n/a	n/a	n/a	"NULL"	n/a	"NULL"	"NULL"	"NULL"	"<p style=\"color: black; font-size: 80px; padding-left: 8%; padding-right: 23%; padding-top: 27%; padding-bottom: 0%\">+</p>"	"1466"	n/a	n/a	n/a	n/a	n/a	n/a	n/a	n/a	n/a
n/a	"image-keyboard-response"	"104"	"278577"	"0.0-5.0-2.0-1.25"	"uggt7m"	"657"	"1366"	"chrome"	"109.0.0"	"FALSE"	"Windows 10"	"60.45"	"140"	n/a	n/a	n/a	n/a	n/a	n/a	"Trial"	n/a	n/a	n/a	"646"	"arrowright"	n/a	"NULL"	"NULL"	"NULL"	"stimuli/Ebbinghaus_-0.35714_-0.2150.png"	n/a	"Ebbinghaus"	"arrowright"	"1487"	"TRUE"	"Ebbinghaus"	"-0.357140000"	"-0.215000000"	"1"	"44"
n/a	"html-keyboard-response"	"105"	"280034"	"0.0-5.0-2.0-0.26"	"uggt7m"	"657"	"1366"	"chrome"	"109.0.0"	"FALSE"	"Windows 10"	"60.45"	"140"	n/a	n/a	n/a	n/a	n/a	n/a	"fixation"	n/a	n/a	n/a	n/a	"NULL"	n/a	"NULL"	"NULL"	"NULL"	"<p style=\"color: black; font-size: 80px; padding-left: 42%; padding-right: 43%; padding-top: 4%; padding-bottom: 23%\">+</p>"	"1440"	n/a	n/a	n/a	n/a	n/a	n/a	n/a	n/a	n/a
n/a	"image-keyboard-response"	"106"	"280639"	"0.0-5.0-2.0-1.26"	"uggt7m"	"657"	"1366"	"chrome"	"109.0.0"	"FALSE"	"Windows 10"	"60.45"	"140"	n/a	n/a	n/a	n/a	n/a	n/a	"Trial"	n/a	n/a	n/a	"605"	"arrowleft"	n/a	"NULL"	"NULL"	"NULL"	"stimuli/Ebbinghaus_0.10000_0.21500.png"	n/a	"Ebbinghaus"	"arrowleft"	"1457"	"TRUE"	"Ebbinghaus"	"0.1000000000"	"0.2150000000"	"1"	"45"
n/a	"html-keyboard-response"	"107"	"281928"	"0.0-5.0-2.0-0.27"	"uggt7m"	"657"	"1366"	"chrome"	"109.0.0"	"FALSE"	"Windows 10"	"60.45"	"140"	n/a	n/a	n/a	n/a	n/a	n/a	"fixation"	n/a	n/a	n/a	n/a	"NULL"	n/a	"NULL"	"NULL"	"NULL"	"<p style=\"color: black; font-size: 80px; padding-left: 45%; padding-right: 33%; padding-top: 30%; padding-bottom: 24%\">+</p>"	"1273"	n/a	n/a	n/a	n/a	n/a	n/a	n/a	n/a	n/a
n/a	"image-keyboard-response"	"108"	"282624"	"0.0-5.0-2.0-1.27"	"uggt7m"	"657"	"1366"	"chrome"	"109.0.0"	"FALSE"	"Windows 10"	"60.45"	"140"	n/a	n/a	n/a	n/a	n/a	n/a	"Trial"	n/a	n/a	n/a	"694"	"arrowright"	n/a	"NULL"	"NULL"	"NULL"	"stimuli/Ebbinghaus_0.10000_-0.11071.png"	n/a	"Ebbinghaus"	"arrowright"	"1289"	"TRUE"	"Ebbinghaus"	"0.1000000000"	"-0.110710000"	"1"	"46"
n/a	"html-keyboard-response"	"109"	"283823"	"0.0-5.0-2.0-0.28"	"uggt7m"	"657"	"1366"	"chrome"	"109.0.0"	"FALSE"	"Windows 10"	"60.45"	"140"	n/a	n/a	n/a	n/a	n/a	n/a	"fixation"	n/a	n/a	n/a	n/a	"NULL"	n/a	"NULL"	"NULL"	"NULL"	"<p style=\"color: black; font-size: 80px; padding-left: 0%; padding-right: 0%; padding-top: 12%; padding-bottom: 10%\">+</p>"	"1184"	n/a	n/a	n/a	n/a	n/a	n/a	n/a	n/a	n/a
n/a	"image-keyboard-response"	"110"	"284457"	"0.0-5.0-2.0-1.28"	"uggt7m"	"657"	"1366"	"chrome"	"109.0.0"	"FALSE"	"Windows 10"	"60.45"	"140"	n/a	n/a	n/a	n/a	n/a	n/a	"Trial"	n/a	n/a	n/a	"633"	"arrowright"	n/a	"NULL"	"NULL"	"NULL"	"stimuli/Ebbinghaus_-0.87143_-0.11071.png"	n/a	"Ebbinghaus"	"arrowright"	"1199"	"TRUE"	"Ebbinghaus"	"-0.871430000"	"-0.110710000"	"1"	"47"
n/a	"html-keyboard-response"	"111"	"285948"	"0.0-5.0-2.0-0.29"	"uggt7m"	"657"	"1366"	"chrome"	"109.0.0"	"FALSE"	"Windows 10"	"60.45"	"140"	n/a	n/a	n/a	n/a	n/a	n/a	"fixation"	n/a	n/a	n/a	n/a	"NULL"	n/a	"NULL"	"NULL"	"NULL"	"<p style=\"color: black; font-size: 80px; padding-left: 13%; padding-right: 34%; padding-top: 21%; padding-bottom: 41%\">+</p>"	"1477"	n/a	n/a	n/a	n/a	n/a	n/a	n/a	n/a	n/a
n/a	"image-keyboard-response"	"112"	"287308"	"0.0-5.0-2.0-1.29"	"uggt7m"	"657"	"1366"	"chrome"	"109.0.0"	"FALSE"	"Windows 10"	"60.45"	"140"	n/a	n/a	n/a	n/a	n/a	n/a	"Trial"	n/a	n/a	n/a	"1359"	"arrowleft"	n/a	"NULL"	"NULL"	"NULL"	"stimuli/Ebbinghaus_0.61429_0.15857.png"	n/a	"Ebbinghaus"	"arrowleft"	"1491"	"TRUE"	"Ebbinghaus"	"0.6142900000"	"0.1585700000"	"1"	"48"
n/a	"html-keyboard-response"	"113"	"288331"	"0.0-5.0-2.0-0.30"	"uggt7m"	"657"	"1366"	"chrome"	"109.0.0"	"FALSE"	"Windows 10"	"60.45"	"140"	n/a	n/a	n/a	n/a	n/a	n/a	"fixation"	n/a	n/a	n/a	n/a	"NULL"	n/a	"NULL"	"NULL"	"NULL"	"<p style=\"color: black; font-size: 80px; padding-left: 15%; padding-right: 43%; padding-top: 23%; padding-bottom: 3%\">+</p>"	"1011"	n/a	n/a	n/a	n/a	n/a	n/a	n/a	n/a	n/a
n/a	"image-keyboard-response"	"114"	"289028"	"0.0-5.0-2.0-1.30"	"uggt7m"	"657"	"1366"	"chrome"	"109.0.0"	"FALSE"	"Windows 10"	"60.45"	"140"	n/a	n/a	n/a	n/a	n/a	n/a	"Trial"	n/a	n/a	n/a	"696"	"arrowright"	n/a	"NULL"	"NULL"	"NULL"	"stimuli/Ebbinghaus_0.35714_-0.2800.png"	n/a	"Ebbinghaus"	"arrowright"	"1023"	"TRUE"	"Ebbinghaus"	"0.3571400000"	"-0.280000000"	"1"	"49"
n/a	"html-keyboard-response"	"115"	"290316"	"0.0-5.0-2.0-0.31"	"uggt7m"	"657"	"1366"	"chrome"	"109.0.0"	"FALSE"	"Windows 10"	"60.45"	"140"	n/a	n/a	n/a	n/a	n/a	n/a	"fixation"	n/a	n/a	n/a	n/a	"NULL"	n/a	"NULL"	"NULL"	"NULL"	"<p style=\"color: black; font-size: 80px; padding-left: 3%; padding-right: 5%; padding-top: 20%; padding-bottom: 44%\">+</p>"	"1272"	n/a	n/a	n/a	n/a	n/a	n/a	n/a	n/a	n/a
n/a	"image-keyboard-response"	"116"	"291170"	"0.0-5.0-2.0-1.31"	"uggt7m"	"657"	"1366"	"chrome"	"109.0.0"	"FALSE"	"Windows 10"	"60.45"	"140"	n/a	n/a	n/a	n/a	n/a	n/a	"Trial"	n/a	n/a	n/a	"853"	"arrowleft"	n/a	"NULL"	"NULL"	"NULL"	"stimuli/Ebbinghaus_0.10000_0.11071.png"	n/a	"Ebbinghaus"	"arrowleft"	"1288"	"TRUE"	"Ebbinghaus"	"0.1000000000"	"0.1107100000"	"1"	"50"
n/a	"html-keyboard-response"	"117"	"292339"	"0.0-5.0-2.0-0.32"	"uggt7m"	"657"	"1366"	"chrome"	"109.0.0"	"FALSE"	"Windows 10"	"60.45"	"140"	n/a	n/a	n/a	n/a	n/a	n/a	"fixation"	n/a	n/a	n/a	n/a	"NULL"	n/a	"NULL"	"NULL"	"NULL"	"<p style=\"color: black; font-size: 80px; padding-left: 45%; padding-right: 9%; padding-top: 46%; padding-bottom: 24%\">+</p>"	"1155"	n/a	n/a	n/a	n/a	n/a	n/a	n/a	n/a	n/a
n/a	"image-keyboard-response"	"118"	"293052"	"0.0-5.0-2.0-1.32"	"uggt7m"	"657"	"1366"	"chrome"	"109.0.0"	"FALSE"	"Windows 10"	"60.45"	"140"	n/a	n/a	n/a	n/a	n/a	n/a	"Trial"	n/a	n/a	n/a	"712"	"arrowleft"	n/a	"NULL"	"NULL"	"NULL"	"stimuli/Ebbinghaus_0.10000_0.15857.png"	n/a	"Ebbinghaus"	"arrowleft"	"1169"	"TRUE"	"Ebbinghaus"	"0.1000000000"	"0.1585700000"	"1"	"51"
n/a	"html-keyboard-response"	"119"	"294245"	"0.0-5.0-2.0-0.33"	"uggt7m"	"657"	"1366"	"chrome"	"109.0.0"	"FALSE"	"Windows 10"	"60.45"	"140"	n/a	n/a	n/a	n/a	n/a	n/a	"fixation"	n/a	n/a	n/a	n/a	"NULL"	n/a	"NULL"	"NULL"	"NULL"	"<p style=\"color: black; font-size: 80px; padding-left: 21%; padding-right: 7%; padding-top: 46%; padding-bottom: 27%\">+</p>"	"1183"	n/a	n/a	n/a	n/a	n/a	n/a	n/a	n/a	n/a
n/a	"image-keyboard-response"	"120"	"295003"	"0.0-5.0-2.0-1.33"	"uggt7m"	"657"	"1366"	"chrome"	"109.0.0"	"FALSE"	"Windows 10"	"60.45"	"140"	n/a	n/a	n/a	n/a	n/a	n/a	"Trial"	n/a	n/a	n/a	"755"	"arrowright"	n/a	"NULL"	"NULL"	"NULL"	"stimuli/Ebbinghaus_0.61429_-0.2800.png"	n/a	"Ebbinghaus"	"arrowright"	"1193"	"TRUE"	"Ebbinghaus"	"0.6142900000"	"-0.280000000"	"1"	"52"
n/a	"html-keyboard-response"	"121"	"296120"	"0.0-5.0-2.0-0.34"	"uggt7m"	"657"	"1366"	"chrome"	"109.0.0"	"FALSE"	"Windows 10"	"60.45"	"140"	n/a	n/a	n/a	n/a	n/a	n/a	"fixation"	n/a	n/a	n/a	n/a	"NULL"	n/a	"NULL"	"NULL"	"NULL"	"<p style=\"color: black; font-size: 80px; padding-left: 12%; padding-right: 31%; padding-top: 40%; padding-bottom: 10%\">+</p>"	"1098"	n/a	n/a	n/a	n/a	n/a	n/a	n/a	n/a	n/a
n/a	"image-keyboard-response"	"122"	"296780"	"0.0-5.0-2.0-1.34"	"uggt7m"	"657"	"1366"	"chrome"	"109.0.0"	"FALSE"	"Windows 10"	"60.45"	"140"	n/a	n/a	n/a	n/a	n/a	n/a	"Trial"	n/a	n/a	n/a	"659"	"arrowleft"	n/a	"NULL"	"NULL"	"NULL"	"stimuli/Ebbinghaus_-0.61429_0.28000.png"	n/a	"Ebbinghaus"	"arrowleft"	"1117"	"TRUE"	"Ebbinghaus"	"-0.614290000"	"0.2800000000"	"1"	"53"
n/a	"html-keyboard-response"	"123"	"298019"	"0.0-5.0-2.0-0.35"	"uggt7m"	"657"	"1366"	"chrome"	"109.0.0"	"FALSE"	"Windows 10"	"60.45"	"140"	n/a	n/a	n/a	n/a	n/a	n/a	"fixation"	n/a	n/a	n/a	n/a	"NULL"	n/a	"NULL"	"NULL"	"NULL"	"<p style=\"color: black; font-size: 80px; padding-left: 15%; padding-right: 23%; padding-top: 34%; padding-bottom: 18%\">+</p>"	"1224"	n/a	n/a	n/a	n/a	n/a	n/a	n/a	n/a	n/a
n/a	"image-keyboard-response"	"124"	"298671"	"0.0-5.0-2.0-1.35"	"uggt7m"	"657"	"1366"	"chrome"	"109.0.0"	"FALSE"	"Windows 10"	"60.45"	"140"	n/a	n/a	n/a	n/a	n/a	n/a	"Trial"	n/a	n/a	n/a	"650"	"arrowright"	n/a	"NULL"	"NULL"	"NULL"	"stimuli/Ebbinghaus_0.35714_-0.2150.png"	n/a	"Ebbinghaus"	"arrowright"	"1239"	"TRUE"	"Ebbinghaus"	"0.3571400000"	"-0.215000000"	"1"	"54"
n/a	"html-keyboard-response"	"125"	"299747"	"0.0-5.0-2.0-0.36"	"uggt7m"	"657"	"1366"	"chrome"	"109.0.0"	"FALSE"	"Windows 10"	"60.45"	"140"	n/a	n/a	n/a	n/a	n/a	n/a	"fixation"	n/a	n/a	n/a	n/a	"NULL"	n/a	"NULL"	"NULL"	"NULL"	"<p style=\"color: black; font-size: 80px; padding-left: 50%; padding-right: 34%; padding-top: 44%; padding-bottom: 24%\">+</p>"	"1060"	n/a	n/a	n/a	n/a	n/a	n/a	n/a	n/a	n/a
n/a	"image-keyboard-response"	"126"	"300424"	"0.0-5.0-2.0-1.36"	"uggt7m"	"657"	"1366"	"chrome"	"109.0.0"	"FALSE"	"Windows 10"	"60.45"	"140"	n/a	n/a	n/a	n/a	n/a	n/a	"Trial"	n/a	n/a	n/a	"677"	"arrowleft"	n/a	"NULL"	"NULL"	"NULL"	"stimuli/Ebbinghaus_0.87143_-0.2150.png"	n/a	"Ebbinghaus"	"arrowright"	"1076"	"FALSE"	"Ebbinghaus"	"0.8714300000"	"-0.215000000"	"1"	"55"
n/a	"html-keyboard-response"	"127"	"301652"	"0.0-5.0-2.0-0.37"	"uggt7m"	"657"	"1366"	"chrome"	"109.0.0"	"FALSE"	"Windows 10"	"60.45"	"140"	n/a	n/a	n/a	n/a	n/a	n/a	"fixation"	n/a	n/a	n/a	n/a	"NULL"	n/a	"NULL"	"NULL"	"NULL"	"<p style=\"color: black; font-size: 80px; padding-left: 33%; padding-right: 26%; padding-top: 1%; padding-bottom: 42%\">+</p>"	"1221"	n/a	n/a	n/a	n/a	n/a	n/a	n/a	n/a	n/a
n/a	"image-keyboard-response"	"128"	"302212"	"0.0-5.0-2.0-1.37"	"uggt7m"	"657"	"1366"	"chrome"	"109.0.0"	"FALSE"	"Windows 10"	"60.45"	"140"	n/a	n/a	n/a	n/a	n/a	n/a	"Trial"	n/a	n/a	n/a	"559"	"arrowright"	n/a	"NULL"	"NULL"	"NULL"	"stimuli/Ebbinghaus_-0.87143_-0.2800.png"	n/a	"Ebbinghaus"	"arrowright"	"1228"	"TRUE"	"Ebbinghaus"	"-0.871430000"	"-0.280000000"	"1"	"56"
n/a	"html-keyboard-response"	"129"	"303434"	"0.0-5.0-2.0-0.38"	"uggt7m"	"657"	"1366"	"chrome"	"109.0.0"	"FALSE"	"Windows 10"	"60.45"	"140"	n/a	n/a	n/a	n/a	n/a	n/a	"fixation"	n/a	n/a	n/a	n/a	"NULL"	n/a	"NULL"	"NULL"	"NULL"	"<p style=\"color: black; font-size: 80px; padding-left: 35%; padding-right: 28%; padding-top: 43%; padding-bottom: 34%\">+</p>"	"1207"	n/a	n/a	n/a	n/a	n/a	n/a	n/a	n/a	n/a
n/a	"image-keyboard-response"	"130"	"304001"	"0.0-5.0-2.0-1.38"	"uggt7m"	"657"	"1366"	"chrome"	"109.0.0"	"FALSE"	"Windows 10"	"60.45"	"140"	n/a	n/a	n/a	n/a	n/a	n/a	"Trial"	n/a	n/a	n/a	"567"	"arrowleft"	n/a	"NULL"	"NULL"	"NULL"	"stimuli/Ebbinghaus_-0.87143_0.15857.png"	n/a	"Ebbinghaus"	"arrowleft"	"1222"	"TRUE"	"Ebbinghaus"	"-0.871430000"	"0.1585700000"	"1"	"57"
n/a	"html-keyboard-response"	"131"	"305309"	"0.0-5.0-2.0-0.39"	"uggt7m"	"657"	"1366"	"chrome"	"109.0.0"	"FALSE"	"Windows 10"	"60.45"	"140"	n/a	n/a	n/a	n/a	n/a	n/a	"fixation"	n/a	n/a	n/a	n/a	"NULL"	n/a	"NULL"	"NULL"	"NULL"	"<p style=\"color: black; font-size: 80px; padding-left: 0%; padding-right: 38%; padding-top: 10%; padding-bottom: 45%\">+</p>"	"1293"	n/a	n/a	n/a	n/a	n/a	n/a	n/a	n/a	n/a
n/a	"image-keyboard-response"	"132"	"306249"	"0.0-5.0-2.0-1.39"	"uggt7m"	"657"	"1366"	"chrome"	"109.0.0"	"FALSE"	"Windows 10"	"60.45"	"140"	n/a	n/a	n/a	n/a	n/a	n/a	"Trial"	n/a	n/a	n/a	"940"	"arrowright"	n/a	"NULL"	"NULL"	"NULL"	"stimuli/Ebbinghaus_0.35714_0.11071.png"	n/a	"Ebbinghaus"	"arrowleft"	"1308"	"FALSE"	"Ebbinghaus"	"0.3571400000"	"0.1107100000"	"1"	"58"
n/a	"html-keyboard-response"	"133"	"307650"	"0.0-5.0-2.0-0.40"	"uggt7m"	"657"	"1366"	"chrome"	"109.0.0"	"FALSE"	"Windows 10"	"60.45"	"140"	n/a	n/a	n/a	n/a	n/a	n/a	"fixation"	n/a	n/a	n/a	n/a	"NULL"	n/a	"NULL"	"NULL"	"NULL"	"<p style=\"color: black; font-size: 80px; padding-left: 18%; padding-right: 36%; padding-top: 1%; padding-bottom: 36%\">+</p>"	"1387"	n/a	n/a	n/a	n/a	n/a	n/a	n/a	n/a	n/a
n/a	"image-keyboard-response"	"134"	"308263"	"0.0-5.0-2.0-1.40"	"uggt7m"	"657"	"1366"	"chrome"	"109.0.0"	"FALSE"	"Windows 10"	"60.45"	"140"	n/a	n/a	n/a	n/a	n/a	n/a	"Trial"	n/a	n/a	n/a	"612"	"arrowright"	n/a	"NULL"	"NULL"	"NULL"	"stimuli/Ebbinghaus_-0.61429_-0.2150.png"	n/a	"Ebbinghaus"	"arrowright"	"1401"	"TRUE"	"Ebbinghaus"	"-0.614290000"	"-0.215000000"	"1"	"59"
n/a	"html-keyboard-response"	"135"	"309748"	"0.0-5.0-2.0-0.41"	"uggt7m"	"657"	"1366"	"chrome"	"109.0.0"	"FALSE"	"Windows 10"	"60.45"	"140"	n/a	n/a	n/a	n/a	n/a	n/a	"fixation"	n/a	n/a	n/a	n/a	"NULL"	n/a	"NULL"	"NULL"	"NULL"	"<p style=\"color: black; font-size: 80px; padding-left: 46%; padding-right: 17%; padding-top: 19%; padding-bottom: 34%\">+</p>"	"1472"	n/a	n/a	n/a	n/a	n/a	n/a	n/a	n/a	n/a
n/a	"image-keyboard-response"	"136"	"310304"	"0.0-5.0-2.0-1.41"	"uggt7m"	"657"	"1366"	"chrome"	"109.0.0"	"FALSE"	"Windows 10"	"60.45"	"140"	n/a	n/a	n/a	n/a	n/a	n/a	"Trial"	n/a	n/a	n/a	"555"	"arrowleft"	n/a	"NULL"	"NULL"	"NULL"	"stimuli/Ebbinghaus_0.35714_0.28000.png"	n/a	"Ebbinghaus"	"arrowleft"	"1485"	"TRUE"	"Ebbinghaus"	"0.3571400000"	"0.2800000000"	"1"	"60"
n/a	"html-keyboard-response"	"137"	"311391"	"0.0-5.0-2.0-0.42"	"uggt7m"	"657"	"1366"	"chrome"	"109.0.0"	"FALSE"	"Windows 10"	"60.45"	"140"	n/a	n/a	n/a	n/a	n/a	n/a	"fixation"	n/a	n/a	n/a	n/a	"NULL"	n/a	"NULL"	"NULL"	"NULL"	"<p style=\"color: black; font-size: 80px; padding-left: 1%; padding-right: 26%; padding-top: 26%; padding-bottom: 29%\">+</p>"	"1083"	n/a	n/a	n/a	n/a	n/a	n/a	n/a	n/a	n/a
n/a	"image-keyboard-response"	"138"	"312306"	"0.0-5.0-2.0-1.42"	"uggt7m"	"657"	"1366"	"chrome"	"109.0.0"	"FALSE"	"Windows 10"	"60.45"	"140"	n/a	n/a	n/a	n/a	n/a	n/a	"Trial"	n/a	n/a	n/a	"915"	"arrowleft"	n/a	"NULL"	"NULL"	"NULL"	"stimuli/Ebbinghaus_-0.1000_0.21500.png"	n/a	"Ebbinghaus"	"arrowleft"	"1087"	"TRUE"	"Ebbinghaus"	"-0.100000000"	"0.2150000000"	"1"	"61"
n/a	"html-keyboard-response"	"139"	"313478"	"0.0-5.0-2.0-0.43"	"uggt7m"	"657"	"1366"	"chrome"	"109.0.0"	"FALSE"	"Windows 10"	"60.45"	"140"	n/a	n/a	n/a	n/a	n/a	n/a	"fixation"	n/a	n/a	n/a	n/a	"NULL"	n/a	"NULL"	"NULL"	"NULL"	"<p style=\"color: black; font-size: 80px; padding-left: 50%; padding-right: 21%; padding-top: 18%; padding-bottom: 13%\">+</p>"	"1168"	n/a	n/a	n/a	n/a	n/a	n/a	n/a	n/a	n/a
n/a	"image-keyboard-response"	"140"	"314490"	"0.0-5.0-2.0-1.43"	"uggt7m"	"657"	"1366"	"chrome"	"109.0.0"	"FALSE"	"Windows 10"	"60.45"	"140"	n/a	n/a	n/a	n/a	n/a	n/a	"Trial"	n/a	n/a	n/a	"1010"	"arrowleft"	n/a	"NULL"	"NULL"	"NULL"	"stimuli/Ebbinghaus_0.61429_0.11071.png"	n/a	"Ebbinghaus"	"arrowleft"	"1172"	"TRUE"	"Ebbinghaus"	"0.6142900000"	"0.1107100000"	"1"	"62"
n/a	"html-keyboard-response"	"141"	"315530"	"0.0-5.0-2.0-0.44"	"uggt7m"	"657"	"1366"	"chrome"	"109.0.0"	"FALSE"	"Windows 10"	"60.45"	"140"	n/a	n/a	n/a	n/a	n/a	n/a	"fixation"	n/a	n/a	n/a	n/a	"NULL"	n/a	"NULL"	"NULL"	"NULL"	"<p style=\"color: black; font-size: 80px; padding-left: 44%; padding-right: 10%; padding-top: 21%; padding-bottom: 6%\">+</p>"	"1030"	n/a	n/a	n/a	n/a	n/a	n/a	n/a	n/a	n/a
n/a	"image-keyboard-response"	"142"	"316201"	"0.0-5.0-2.0-1.44"	"uggt7m"	"657"	"1366"	"chrome"	"109.0.0"	"FALSE"	"Windows 10"	"60.45"	"140"	n/a	n/a	n/a	n/a	n/a	n/a	"Trial"	n/a	n/a	n/a	"670"	"arrowleft"	n/a	"NULL"	"NULL"	"NULL"	"stimuli/Ebbinghaus_-0.87143_0.21500.png"	n/a	"Ebbinghaus"	"arrowleft"	"1040"	"TRUE"	"Ebbinghaus"	"-0.871430000"	"0.2150000000"	"1"	"63"
n/a	"html-keyboard-response"	"143"	"317337"	"0.0-5.0-2.0-0.45"	"uggt7m"	"657"	"1366"	"chrome"	"109.0.0"	"FALSE"	"Windows 10"	"60.45"	"140"	n/a	n/a	n/a	n/a	n/a	n/a	"fixation"	n/a	n/a	n/a	n/a	"NULL"	n/a	"NULL"	"NULL"	"NULL"	"<p style=\"color: black; font-size: 80px; padding-left: 3%; padding-right: 5%; padding-top: 39%; padding-bottom: 11%\">+</p>"	"1122"	n/a	n/a	n/a	n/a	n/a	n/a	n/a	n/a	n/a
n/a	"image-keyboard-response"	"144"	"318044"	"0.0-5.0-2.0-1.45"	"uggt7m"	"657"	"1366"	"chrome"	"109.0.0"	"FALSE"	"Windows 10"	"60.45"	"140"	n/a	n/a	n/a	n/a	n/a	n/a	"Trial"	n/a	n/a	n/a	"707"	"arrowleft"	n/a	"NULL"	"NULL"	"NULL"	"stimuli/Ebbinghaus_0.35714_0.21500.png"	n/a	"Ebbinghaus"	"arrowleft"	"1136"	"TRUE"	"Ebbinghaus"	"0.3571400000"	"0.2150000000"	"1"	"64"
n/a	"html-keyboard-response"	"145"	"319299"	"0.0-5.0-2.0-0.46"	"uggt7m"	"657"	"1366"	"chrome"	"109.0.0"	"FALSE"	"Windows 10"	"60.45"	"140"	n/a	n/a	n/a	n/a	n/a	n/a	"fixation"	n/a	n/a	n/a	n/a	"NULL"	n/a	"NULL"	"NULL"	"NULL"	"<p style=\"color: black; font-size: 80px; padding-left: 49%; padding-right: 42%; padding-top: 18%; padding-bottom: 38%\">+</p>"	"1231"	n/a	n/a	n/a	n/a	n/a	n/a	n/a	n/a	n/a
n/a	"image-keyboard-response"	"146"	"319834"	"0.0-5.0-2.0-1.46"	"uggt7m"	"657"	"1366"	"chrome"	"109.0.0"	"FALSE"	"Windows 10"	"60.45"	"140"	n/a	n/a	n/a	n/a	n/a	n/a	"Trial"	n/a	n/a	n/a	"533"	"arrowright"	n/a	"NULL"	"NULL"	"NULL"	"stimuli/Ebbinghaus_-0.1000_-0.2800.png"	n/a	"Ebbinghaus"	"arrowright"	"1255"	"TRUE"	"Ebbinghaus"	"-0.100000000"	"-0.280000000"	"1"	"65"
n/a	"html-keyboard-response"	"147"	"321152"	"0.0-5.0-2.0-0.47"	"uggt7m"	"657"	"1366"	"chrome"	"109.0.0"	"FALSE"	"Windows 10"	"60.45"	"140"	n/a	n/a	n/a	n/a	n/a	n/a	"fixation"	n/a	n/a	n/a	n/a	"NULL"	n/a	"NULL"	"NULL"	"NULL"	"<p style=\"color: black; font-size: 80px; padding-left: 6%; padding-right: 14%; padding-top: 21%; padding-bottom: 27%\">+</p>"	"1305"	n/a	n/a	n/a	n/a	n/a	n/a	n/a	n/a	n/a
n/a	"image-keyboard-response"	"148"	"321807"	"0.0-5.0-2.0-1.47"	"uggt7m"	"657"	"1366"	"chrome"	"109.0.0"	"FALSE"	"Windows 10"	"60.45"	"140"	n/a	n/a	n/a	n/a	n/a	n/a	"Trial"	n/a	n/a	n/a	"653"	"arrowleft"	n/a	"NULL"	"NULL"	"NULL"	"stimuli/Ebbinghaus_0.61429_-0.15857.png"	n/a	"Ebbinghaus"	"arrowright"	"1318"	"FALSE"	"Ebbinghaus"	"0.6142900000"	"-0.158570000"	"1"	"66"
n/a	"html-keyboard-response"	"149"	"323177"	"0.0-5.0-2.0-0.48"	"uggt7m"	"657"	"1366"	"chrome"	"109.0.0"	"FALSE"	"Windows 10"	"60.45"	"140"	n/a	n/a	n/a	n/a	n/a	n/a	"fixation"	n/a	n/a	n/a	n/a	"NULL"	n/a	"NULL"	"NULL"	"NULL"	"<p style=\"color: black; font-size: 80px; padding-left: 26%; padding-right: 35%; padding-top: 40%; padding-bottom: 12%\">+</p>"	"1352"	n/a	n/a	n/a	n/a	n/a	n/a	n/a	n/a	n/a
n/a	"image-keyboard-response"	"150"	"323738"	"0.0-5.0-2.0-1.48"	"uggt7m"	"657"	"1366"	"chrome"	"109.0.0"	"FALSE"	"Windows 10"	"60.45"	"140"	n/a	n/a	n/a	n/a	n/a	n/a	"Trial"	n/a	n/a	n/a	"561"	"arrowleft"	n/a	"NULL"	"NULL"	"NULL"	"stimuli/Ebbinghaus_-0.1000_0.11071.png"	n/a	"Ebbinghaus"	"arrowleft"	"1370"	"TRUE"	"Ebbinghaus"	"-0.100000000"	"0.1107100000"	"1"	"67"
n/a	"html-keyboard-response"	"151"	"325010"	"0.0-5.0-2.0-0.49"	"uggt7m"	"657"	"1366"	"chrome"	"109.0.0"	"FALSE"	"Windows 10"	"60.45"	"140"	n/a	n/a	n/a	n/a	n/a	n/a	"fixation"	n/a	n/a	n/a	n/a	"NULL"	n/a	"NULL"	"NULL"	"NULL"	"<p style=\"color: black; font-size: 80px; padding-left: 18%; padding-right: 45%; padding-top: 2%; padding-bottom: 27%\">+</p>"	"1258"	n/a	n/a	n/a	n/a	n/a	n/a	n/a	n/a	n/a
n/a	"image-keyboard-response"	"152"	"325557"	"0.0-5.0-2.0-1.49"	"uggt7m"	"657"	"1366"	"chrome"	"109.0.0"	"FALSE"	"Windows 10"	"60.45"	"140"	n/a	n/a	n/a	n/a	n/a	n/a	"Trial"	n/a	n/a	n/a	"546"	"arrowright"	n/a	"NULL"	"NULL"	"NULL"	"stimuli/Ebbinghaus_0.10000_-0.2800.png"	n/a	"Ebbinghaus"	"arrowright"	"1272"	"TRUE"	"Ebbinghaus"	"0.1000000000"	"-0.280000000"	"1"	"68"
n/a	"html-keyboard-response"	"153"	"327051"	"0.0-5.0-2.0-0.50"	"uggt7m"	"657"	"1366"	"chrome"	"109.0.0"	"FALSE"	"Windows 10"	"60.45"	"140"	n/a	n/a	n/a	n/a	n/a	n/a	"fixation"	n/a	n/a	n/a	n/a	"NULL"	n/a	"NULL"	"NULL"	"NULL"	"<p style=\"color: black; font-size: 80px; padding-left: 20%; padding-right: 27%; padding-top: 24%; padding-bottom: 13%\">+</p>"	"1484"	n/a	n/a	n/a	n/a	n/a	n/a	n/a	n/a	n/a
n/a	"image-keyboard-response"	"154"	"327603"	"0.0-5.0-2.0-1.50"	"uggt7m"	"657"	"1366"	"chrome"	"109.0.0"	"FALSE"	"Windows 10"	"60.45"	"140"	n/a	n/a	n/a	n/a	n/a	n/a	"Trial"	n/a	n/a	n/a	"551"	"arrowleft"	n/a	"NULL"	"NULL"	"NULL"	"stimuli/Ebbinghaus_0.10000_0.28000.png"	n/a	"Ebbinghaus"	"arrowleft"	"1494"	"TRUE"	"Ebbinghaus"	"0.1000000000"	"0.2800000000"	"1"	"69"
n/a	"html-keyboard-response"	"155"	"328906"	"0.0-5.0-2.0-0.51"	"uggt7m"	"657"	"1366"	"chrome"	"109.0.0"	"FALSE"	"Windows 10"	"60.45"	"140"	n/a	n/a	n/a	n/a	n/a	n/a	"fixation"	n/a	n/a	n/a	n/a	"NULL"	n/a	"NULL"	"NULL"	"NULL"	"<p style=\"color: black; font-size: 80px; padding-left: 45%; padding-right: 9%; padding-top: 11%; padding-bottom: 26%\">+</p>"	"1287"	n/a	n/a	n/a	n/a	n/a	n/a	n/a	n/a	n/a
n/a	"image-keyboard-response"	"156"	"329485"	"0.0-5.0-2.0-1.51"	"uggt7m"	"657"	"1366"	"chrome"	"109.0.0"	"FALSE"	"Windows 10"	"60.45"	"140"	n/a	n/a	n/a	n/a	n/a	n/a	"Trial"	n/a	n/a	n/a	"577"	"arrowleft"	n/a	"NULL"	"NULL"	"NULL"	"stimuli/Ebbinghaus_-0.61429_-0.11071.png"	n/a	"Ebbinghaus"	"arrowright"	"1303"	"FALSE"	"Ebbinghaus"	"-0.614290000"	"-0.110710000"	"1"	"70"
n/a	"html-keyboard-response"	"157"	"330704"	"0.0-5.0-2.0-0.52"	"uggt7m"	"657"	"1366"	"chrome"	"109.0.0"	"FALSE"	"Windows 10"	"60.45"	"140"	n/a	n/a	n/a	n/a	n/a	n/a	"fixation"	n/a	n/a	n/a	n/a	"NULL"	n/a	"NULL"	"NULL"	"NULL"	"<p style=\"color: black; font-size: 80px; padding-left: 24%; padding-right: 36%; padding-top: 39%; padding-bottom: 42%\">+</p>"	"1212"	n/a	n/a	n/a	n/a	n/a	n/a	n/a	n/a	n/a
n/a	"image-keyboard-response"	"158"	"331360"	"0.0-5.0-2.0-1.52"	"uggt7m"	"657"	"1366"	"chrome"	"109.0.0"	"FALSE"	"Windows 10"	"60.45"	"140"	n/a	n/a	n/a	n/a	n/a	n/a	"Trial"	n/a	n/a	n/a	"656"	"arrowleft"	n/a	"NULL"	"NULL"	"NULL"	"stimuli/Ebbinghaus_-0.1000_0.15857.png"	n/a	"Ebbinghaus"	"arrowleft"	"1219"	"TRUE"	"Ebbinghaus"	"-0.100000000"	"0.1585700000"	"1"	"71"
n/a	"html-keyboard-response"	"159"	"332547"	"0.0-5.0-2.0-0.53"	"uggt7m"	"657"	"1366"	"chrome"	"109.0.0"	"FALSE"	"Windows 10"	"60.45"	"140"	n/a	n/a	n/a	n/a	n/a	n/a	"fixation"	n/a	n/a	n/a	n/a	"NULL"	n/a	"NULL"	"NULL"	"NULL"	"<p style=\"color: black; font-size: 80px; padding-left: 17%; padding-right: 38%; padding-top: 6%; padding-bottom: 5%\">+</p>"	"1165"	n/a	n/a	n/a	n/a	n/a	n/a	n/a	n/a	n/a
n/a	"image-keyboard-response"	"160"	"333173"	"0.0-5.0-2.0-1.53"	"uggt7m"	"657"	"1366"	"chrome"	"109.0.0"	"FALSE"	"Windows 10"	"60.45"	"140"	n/a	n/a	n/a	n/a	n/a	n/a	"Trial"	n/a	n/a	n/a	"624"	"arrowright"	n/a	"NULL"	"NULL"	"NULL"	"stimuli/Ebbinghaus_-0.35714_-0.2800.png"	n/a	"Ebbinghaus"	"arrowright"	"1187"	"TRUE"	"Ebbinghaus"	"-0.357140000"	"-0.280000000"	"1"	"72"
n/a	"html-keyboard-response"	"161"	"334338"	"0.0-5.0-2.0-0.54"	"uggt7m"	"657"	"1366"	"chrome"	"109.0.0"	"FALSE"	"Windows 10"	"60.45"	"140"	n/a	n/a	n/a	n/a	n/a	n/a	"fixation"	n/a	n/a	n/a	n/a	"NULL"	n/a	"NULL"	"NULL"	"NULL"	"<p style=\"color: black; font-size: 80px; padding-left: 25%; padding-right: 3%; padding-top: 4%; padding-bottom: 15%\">+</p>"	"1145"	n/a	n/a	n/a	n/a	n/a	n/a	n/a	n/a	n/a
n/a	"image-keyboard-response"	"162"	"334855"	"0.0-5.0-2.0-1.54"	"uggt7m"	"657"	"1366"	"chrome"	"109.0.0"	"FALSE"	"Windows 10"	"60.45"	"140"	n/a	n/a	n/a	n/a	n/a	n/a	"Trial"	n/a	n/a	n/a	"516"	"arrowleft"	n/a	"NULL"	"NULL"	"NULL"	"stimuli/Ebbinghaus_-0.87143_0.28000.png"	n/a	"Ebbinghaus"	"arrowleft"	"1165"	"TRUE"	"Ebbinghaus"	"-0.871430000"	"0.2800000000"	"1"	"73"
n/a	"html-keyboard-response"	"163"	"336239"	"0.0-5.0-2.0-0.55"	"uggt7m"	"657"	"1366"	"chrome"	"109.0.0"	"FALSE"	"Windows 10"	"60.45"	"140"	n/a	n/a	n/a	n/a	n/a	n/a	"fixation"	n/a	n/a	n/a	n/a	"NULL"	n/a	"NULL"	"NULL"	"NULL"	"<p style=\"color: black; font-size: 80px; padding-left: 42%; padding-right: 49%; padding-top: 30%; padding-bottom: 19%\">+</p>"	"1369"	n/a	n/a	n/a	n/a	n/a	n/a	n/a	n/a	n/a
n/a	"image-keyboard-response"	"164"	"336987"	"0.0-5.0-2.0-1.55"	"uggt7m"	"657"	"1366"	"chrome"	"109.0.0"	"FALSE"	"Windows 10"	"60.45"	"140"	n/a	n/a	n/a	n/a	n/a	n/a	"Trial"	n/a	n/a	n/a	"747"	"arrowleft"	n/a	"NULL"	"NULL"	"NULL"	"stimuli/Ebbinghaus_0.87143_0.21500.png"	n/a	"Ebbinghaus"	"arrowleft"	"1384"	"TRUE"	"Ebbinghaus"	"0.8714300000"	"0.2150000000"	"1"	"74"
n/a	"html-keyboard-response"	"165"	"338496"	"0.0-5.0-2.0-0.56"	"uggt7m"	"657"	"1366"	"chrome"	"109.0.0"	"FALSE"	"Windows 10"	"60.45"	"140"	n/a	n/a	n/a	n/a	n/a	n/a	"fixation"	n/a	n/a	n/a	n/a	"NULL"	n/a	"NULL"	"NULL"	"NULL"	"<p style=\"color: black; font-size: 80px; padding-left: 47%; padding-right: 17%; padding-top: 8%; padding-bottom: 22%\">+</p>"	"1491"	n/a	n/a	n/a	n/a	n/a	n/a	n/a	n/a	n/a
n/a	"image-keyboard-response"	"166"	"339202"	"0.0-5.0-2.0-1.56"	"uggt7m"	"657"	"1366"	"chrome"	"109.0.0"	"FALSE"	"Windows 10"	"60.45"	"140"	n/a	n/a	n/a	n/a	n/a	n/a	"Trial"	n/a	n/a	n/a	"706"	"arrowright"	n/a	"NULL"	"NULL"	"NULL"	"stimuli/Ebbinghaus_0.61429_0.21500.png"	n/a	"Ebbinghaus"	"arrowleft"	"1509"	"FALSE"	"Ebbinghaus"	"0.6142900000"	"0.2150000000"	"1"	"75"
n/a	"html-keyboard-response"	"167"	"340648"	"0.0-5.0-2.0-0.57"	"uggt7m"	"657"	"1366"	"chrome"	"109.0.0"	"FALSE"	"Windows 10"	"60.45"	"140"	n/a	n/a	n/a	n/a	n/a	n/a	"fixation"	n/a	n/a	n/a	n/a	"NULL"	n/a	"NULL"	"NULL"	"NULL"	"<p style=\"color: black; font-size: 80px; padding-left: 0%; padding-right: 24%; padding-top: 24%; padding-bottom: 48%\">+</p>"	"1440"	n/a	n/a	n/a	n/a	n/a	n/a	n/a	n/a	n/a
n/a	"image-keyboard-response"	"168"	"341202"	"0.0-5.0-2.0-1.57"	"uggt7m"	"657"	"1366"	"chrome"	"109.0.0"	"FALSE"	"Windows 10"	"60.45"	"140"	n/a	n/a	n/a	n/a	n/a	n/a	"Trial"	n/a	n/a	n/a	"553"	"arrowright"	n/a	"NULL"	"NULL"	"NULL"	"stimuli/Ebbinghaus_0.35714_-0.11071.png"	n/a	"Ebbinghaus"	"arrowright"	"1446"	"TRUE"	"Ebbinghaus"	"0.3571400000"	"-0.110710000"	"1"	"76"
n/a	"html-keyboard-response"	"169"	"342244"	"0.0-5.0-2.0-0.58"	"uggt7m"	"657"	"1366"	"chrome"	"109.0.0"	"FALSE"	"Windows 10"	"60.45"	"140"	n/a	n/a	n/a	n/a	n/a	n/a	"fixation"	n/a	n/a	n/a	n/a	"NULL"	n/a	"NULL"	"NULL"	"NULL"	"<p style=\"color: black; font-size: 80px; padding-left: 6%; padding-right: 17%; padding-top: 37%; padding-bottom: 13%\">+</p>"	"1040"	n/a	n/a	n/a	n/a	n/a	n/a	n/a	n/a	n/a
n/a	"image-keyboard-response"	"170"	"342982"	"0.0-5.0-2.0-1.58"	"uggt7m"	"657"	"1366"	"chrome"	"109.0.0"	"FALSE"	"Windows 10"	"60.45"	"140"	n/a	n/a	n/a	n/a	n/a	n/a	"Trial"	n/a	n/a	n/a	"736"	"arrowright"	n/a	"NULL"	"NULL"	"NULL"	"stimuli/Ebbinghaus_-0.35714_-0.11071.png"	n/a	"Ebbinghaus"	"arrowright"	"1042"	"TRUE"	"Ebbinghaus"	"-0.357140000"	"-0.110710000"	"1"	"77"
n/a	"html-keyboard-response"	"171"	"344004"	"0.0-5.0-2.0-0.59"	"uggt7m"	"657"	"1366"	"chrome"	"109.0.0"	"FALSE"	"Windows 10"	"60.45"	"140"	n/a	n/a	n/a	n/a	n/a	n/a	"fixation"	n/a	n/a	n/a	n/a	"NULL"	n/a	"NULL"	"NULL"	"NULL"	"<p style=\"color: black; font-size: 80px; padding-left: 44%; padding-right: 44%; padding-top: 17%; padding-bottom: 15%\">+</p>"	"1014"	n/a	n/a	n/a	n/a	n/a	n/a	n/a	n/a	n/a
n/a	"image-keyboard-response"	"172"	"345158"	"0.0-5.0-2.0-1.59"	"uggt7m"	"657"	"1366"	"chrome"	"109.0.0"	"FALSE"	"Windows 10"	"60.45"	"140"	n/a	n/a	n/a	n/a	n/a	n/a	"Trial"	n/a	n/a	n/a	"1152"	"arrowleft"	n/a	"NULL"	"NULL"	"NULL"	"stimuli/Ebbinghaus_0.61429_0.28000.png"	n/a	"Ebbinghaus"	"arrowleft"	"1022"	"TRUE"	"Ebbinghaus"	"0.6142900000"	"0.2800000000"	"1"	"78"
n/a	"html-keyboard-response"	"173"	"346620"	"0.0-5.0-2.0-0.60"	"uggt7m"	"657"	"1366"	"chrome"	"109.0.0"	"FALSE"	"Windows 10"	"60.45"	"140"	n/a	n/a	n/a	n/a	n/a	n/a	"fixation"	n/a	n/a	n/a	n/a	"NULL"	n/a	"NULL"	"NULL"	"NULL"	"<p style=\"color: black; font-size: 80px; padding-left: 11%; padding-right: 26%; padding-top: 21%; padding-bottom: 5%\">+</p>"	"1451"	n/a	n/a	n/a	n/a	n/a	n/a	n/a	n/a	n/a
n/a	"image-keyboard-response"	"174"	"347268"	"0.0-5.0-2.0-1.60"	"uggt7m"	"657"	"1366"	"chrome"	"109.0.0"	"FALSE"	"Windows 10"	"60.45"	"140"	n/a	n/a	n/a	n/a	n/a	n/a	"Trial"	n/a	n/a	n/a	"648"	"arrowright"	n/a	"NULL"	"NULL"	"NULL"	"stimuli/Ebbinghaus_-0.61429_-0.15857.png"	n/a	"Ebbinghaus"	"arrowright"	"1462"	"TRUE"	"Ebbinghaus"	"-0.614290000"	"-0.158570000"	"1"	"79"
n/a	"html-keyboard-response"	"175"	"348621"	"0.0-5.0-2.0-0.61"	"uggt7m"	"657"	"1366"	"chrome"	"109.0.0"	"FALSE"	"Windows 10"	"60.45"	"140"	n/a	n/a	n/a	n/a	n/a	n/a	"fixation"	n/a	n/a	n/a	n/a	"NULL"	n/a	"NULL"	"NULL"	"NULL"	"<p style=\"color: black; font-size: 80px; padding-left: 35%; padding-right: 1%; padding-top: 20%; padding-bottom: 38%\">+</p>"	"1350"	n/a	n/a	n/a	n/a	n/a	n/a	n/a	n/a	n/a
n/a	"image-keyboard-response"	"176"	"349519"	"0.0-5.0-2.0-1.61"	"uggt7m"	"657"	"1366"	"chrome"	"109.0.0"	"FALSE"	"Windows 10"	"60.45"	"140"	n/a	n/a	n/a	n/a	n/a	n/a	"Trial"	n/a	n/a	n/a	"898"	"arrowleft"	n/a	"NULL"	"NULL"	"NULL"	"stimuli/Ebbinghaus_0.87143_0.28000.png"	n/a	"Ebbinghaus"	"arrowleft"	"1353"	"TRUE"	"Ebbinghaus"	"0.8714300000"	"0.2800000000"	"1"	"80"
n/a	"html-keyboard-response"	"177"	"350639"	"0.0-5.0-2.0-0.62"	"uggt7m"	"657"	"1366"	"chrome"	"109.0.0"	"FALSE"	"Windows 10"	"60.45"	"140"	n/a	n/a	n/a	n/a	n/a	n/a	"fixation"	n/a	n/a	n/a	n/a	"NULL"	n/a	"NULL"	"NULL"	"NULL"	"<p style=\"color: black; font-size: 80px; padding-left: 17%; padding-right: 35%; padding-top: 23%; padding-bottom: 25%\">+</p>"	"1106"	n/a	n/a	n/a	n/a	n/a	n/a	n/a	n/a	n/a
n/a	"image-keyboard-response"	"178"	"351627"	"0.0-5.0-2.0-1.62"	"uggt7m"	"657"	"1366"	"chrome"	"109.0.0"	"FALSE"	"Windows 10"	"60.45"	"140"	n/a	n/a	n/a	n/a	n/a	n/a	"Trial"	n/a	n/a	n/a	"988"	"arrowright"	n/a	"NULL"	"NULL"	"NULL"	"stimuli/Ebbinghaus_0.61429_-0.2150.png"	n/a	"Ebbinghaus"	"arrowright"	"1120"	"TRUE"	"Ebbinghaus"	"0.6142900000"	"-0.215000000"	"1"	"81"
n/a	"html-keyboard-response"	"179"	"352728"	"0.0-5.0-2.0-0.63"	"uggt7m"	"657"	"1366"	"chrome"	"109.0.0"	"FALSE"	"Windows 10"	"60.45"	"140"	n/a	n/a	n/a	n/a	n/a	n/a	"fixation"	n/a	n/a	n/a	n/a	"NULL"	n/a	"NULL"	"NULL"	"NULL"	"<p style=\"color: black; font-size: 80px; padding-left: 21%; padding-right: 47%; padding-top: 13%; padding-bottom: 7%\">+</p>"	"1092"	n/a	n/a	n/a	n/a	n/a	n/a	n/a	n/a	n/a
n/a	"image-keyboard-response"	"180"	"353625"	"0.0-5.0-2.0-1.63"	"uggt7m"	"657"	"1366"	"chrome"	"109.0.0"	"FALSE"	"Windows 10"	"60.45"	"140"	n/a	n/a	n/a	n/a	n/a	n/a	"Trial"	n/a	n/a	n/a	"896"	"arrowleft"	n/a	"NULL"	"NULL"	"NULL"	"stimuli/Ebbinghaus_0.87143_-0.2800.png"	n/a	"Ebbinghaus"	"arrowright"	"1101"	"FALSE"	"Ebbinghaus"	"0.8714300000"	"-0.280000000"	"1"	"82"
n/a	"html-button-response"	"181"	"379142"	"0.0-5.0-3.0"	"uggt7m"	"657"	"1366"	"chrome"	"109.0.0"	"FALSE"	"Windows 10"	"60.45"	"140"	n/a	n/a	n/a	n/a	n/a	n/a	"block_results"	n/a	n/a	n/a	"25514"	"0"	n/a	"NULL"	"NULL"	"NULL"	"<p>Your score for this illusion is <p style=\"color: black; font-size: 48px; font-weight: bold;\">73.6 %</p><hr><p>Can you do better in the next illusion?</p>"	n/a	n/a	n/a	n/a	n/a	n/a	n/a	n/a	n/a	n/a
"TRUE"	"preload"	"182"	"379328"	"0.0-6.0-0.0"	"uggt7m"	"657"	"1366"	"chrome"	"109.0.0"	"FALSE"	"Windows 10"	"60.45"	"140"	n/a	n/a	n/a	n/a	n/a	n/a	n/a	n/a	n/a	n/a	n/a	"NULL"	"FALSE"	"list()"	"list()"	"list()"	n/a	n/a	n/a	n/a	n/a	n/a	n/a	n/a	n/a	n/a	n/a
n/a	"html-keyboard-response"	"183"	"382095"	"0.0-6.0-1.0"	"uggt7m"	"657"	"1366"	"chrome"	"109.0.0"	"FALSE"	"Windows 10"	"60.45"	"140"	n/a	n/a	n/a	n/a	n/a	n/a	n/a	n/a	n/a	n/a	"2766"	"enter"	n/a	"NULL"	"NULL"	"NULL"	"<p><b>Part 2/6</b></p><p>In this part, two red lines will appear side by side.</p><p>Your task is to tell <b>which line is longer</b> in length, regardless of their orientation, as fast as you can, and without making errors.</p><p>Don't get distracted by the orientation of the lines!</p><p>Press <b>the LEFT or the RIGHT arrow</b> to indicate which <b>line is the longer one.</b></p><div style='float: center'><img src='materials/instructions/VerticalHorizontal_Demo.png' height='300'></img><p><img src='utils/answer/answer_leftright_keyboard.PNG' height='150'></img></p><p class='small'>In this example, the correct answer is the <b>LEFT arrow</b>.</p></div><p>Are you ready? <b>Press ENTER to start</b></p>"	n/a	n/a	n/a	n/a	n/a	n/a	n/a	n/a	n/a	n/a
n/a	"html-keyboard-response"	"184"	"384040"	"0.0-6.0-2.0-0.0"	"uggt7m"	"657"	"1366"	"chrome"	"109.0.0"	"FALSE"	"Windows 10"	"60.45"	"140"	n/a	n/a	n/a	n/a	n/a	n/a	"fixation"	n/a	n/a	n/a	n/a	"NULL"	n/a	"NULL"	"NULL"	"NULL"	"<p style=\"color: black; font-size: 80px; padding-left: 49%; padding-right: 49%; padding-top: 16%; padding-bottom: 11%\">+</p>"	"1427"	n/a	n/a	n/a	n/a	n/a	n/a	n/a	n/a	n/a
n/a	"image-keyboard-response"	"185"	"384667"	"0.0-6.0-2.0-1.0"	"uggt7m"	"657"	"1366"	"chrome"	"109.0.0"	"FALSE"	"Windows 10"	"60.45"	"140"	n/a	n/a	n/a	n/a	n/a	n/a	"Trial"	n/a	n/a	n/a	"626"	"arrowright"	n/a	"NULL"	"NULL"	"NULL"	"stimuli/VerticalHorizontal_-20.27143_-0.1096.png"	n/a	"VerticalHorizontal"	"arrowright"	"1945"	"TRUE"	"VerticalHorizontal"	"-20.27143000"	"-0.109600000"	"2"	"1"
n/a	"html-keyboard-response"	"186"	"385744"	"0.0-6.0-2.0-0.1"	"uggt7m"	"657"	"1366"	"chrome"	"109.0.0"	"FALSE"	"Windows 10"	"60.45"	"140"	n/a	n/a	n/a	n/a	n/a	n/a	"fixation"	n/a	n/a	n/a	n/a	"NULL"	n/a	"NULL"	"NULL"	"NULL"	"<p style=\"color: black; font-size: 80px; padding-left: 5%; padding-right: 20%; padding-top: 33%; padding-bottom: 33%\">+</p>"	"1068"	n/a	n/a	n/a	n/a	n/a	n/a	n/a	n/a	n/a
n/a	"image-keyboard-response"	"187"	"386190"	"0.0-6.0-2.0-1.1"	"uggt7m"	"657"	"1366"	"chrome"	"109.0.0"	"FALSE"	"Windows 10"	"60.45"	"140"	n/a	n/a	n/a	n/a	n/a	n/a	"Trial"	n/a	n/a	n/a	"445"	"arrowleft"	n/a	"NULL"	"NULL"	"NULL"	"stimuli/VerticalHorizontal_3.30000_0.10960.png"	n/a	"VerticalHorizontal"	"arrowleft"	"1077"	"TRUE"	"VerticalHorizontal"	"3.3000000000"	"0.1096000000"	"2"	"2"
n/a	"html-keyboard-response"	"188"	"387299"	"0.0-6.0-2.0-0.2"	"uggt7m"	"657"	"1366"	"chrome"	"109.0.0"	"FALSE"	"Windows 10"	"60.45"	"140"	n/a	n/a	n/a	n/a	n/a	n/a	"fixation"	n/a	n/a	n/a	n/a	"NULL"	n/a	"NULL"	"NULL"	"NULL"	"<p style=\"color: black; font-size: 80px; padding-left: 5%; padding-right: 44%; padding-top: 38%; padding-bottom: 26%\">+</p>"	"1098"	n/a	n/a	n/a	n/a	n/a	n/a	n/a	n/a	n/a
n/a	"image-keyboard-response"	"189"	"387749"	"0.0-6.0-2.0-1.2"	"uggt7m"	"657"	"1366"	"chrome"	"109.0.0"	"FALSE"	"Windows 10"	"60.45"	"140"	n/a	n/a	n/a	n/a	n/a	n/a	"Trial"	n/a	n/a	n/a	"449"	"arrowright"	n/a	"NULL"	"NULL"	"NULL"	"stimuli/VerticalHorizontal_-3.3000_-0.2250.png"	n/a	"VerticalHorizontal"	"arrowright"	"1109"	"TRUE"	"VerticalHorizontal"	"-3.300000000"	"-0.225000000"	"2"	"3"
n/a	"html-keyboard-response"	"190"	"388900"	"0.0-6.0-2.0-0.3"	"uggt7m"	"657"	"1366"	"chrome"	"109.0.0"	"FALSE"	"Windows 10"	"60.45"	"140"	n/a	n/a	n/a	n/a	n/a	n/a	"fixation"	n/a	n/a	n/a	n/a	"NULL"	n/a	"NULL"	"NULL"	"NULL"	"<p style=\"color: black; font-size: 80px; padding-left: 17%; padding-right: 14%; padding-top: 30%; padding-bottom: 47%\">+</p>"	"1146"	n/a	n/a	n/a	n/a	n/a	n/a	n/a	n/a	n/a
n/a	"image-keyboard-response"	"191"	"389300"	"0.0-6.0-2.0-1.3"	"uggt7m"	"657"	"1366"	"chrome"	"109.0.0"	"FALSE"	"Windows 10"	"60.45"	"140"	n/a	n/a	n/a	n/a	n/a	n/a	"Trial"	n/a	n/a	n/a	"399"	"arrowright"	n/a	"NULL"	"NULL"	"NULL"	"stimuli/VerticalHorizontal_28.75714_0.16217.png"	n/a	"VerticalHorizontal"	"arrowleft"	"1151"	"FALSE"	"VerticalHorizontal"	"28.757140000"	"0.1621700000"	"2"	"4"
n/a	"html-keyboard-response"	"192"	"390478"	"0.0-6.0-2.0-0.4"	"uggt7m"	"657"	"1366"	"chrome"	"109.0.0"	"FALSE"	"Windows 10"	"60.45"	"140"	n/a	n/a	n/a	n/a	n/a	n/a	"fixation"	n/a	n/a	n/a	n/a	"NULL"	n/a	"NULL"	"NULL"	"NULL"	"<p style=\"color: black; font-size: 80px; padding-left: 26%; padding-right: 7%; padding-top: 38%; padding-bottom: 40%\">+</p>"	"1166"	n/a	n/a	n/a	n/a	n/a	n/a	n/a	n/a	n/a
n/a	"image-keyboard-response"	"193"	"390922"	"0.0-6.0-2.0-1.4"	"uggt7m"	"657"	"1366"	"chrome"	"109.0.0"	"FALSE"	"Windows 10"	"60.45"	"140"	n/a	n/a	n/a	n/a	n/a	n/a	"Trial"	n/a	n/a	n/a	"443"	"arrowleft"	n/a	"NULL"	"NULL"	"NULL"	"stimuli/VerticalHorizontal_28.75714_-0.2250.png"	n/a	"VerticalHorizontal"	"arrowright"	"1178"	"FALSE"	"VerticalHorizontal"	"28.757140000"	"-0.225000000"	"2"	"5"
n/a	"html-keyboard-response"	"194"	"392370"	"0.0-6.0-2.0-0.5"	"uggt7m"	"657"	"1366"	"chrome"	"109.0.0"	"FALSE"	"Windows 10"	"60.45"	"140"	n/a	n/a	n/a	n/a	n/a	n/a	"fixation"	n/a	n/a	n/a	n/a	"NULL"	n/a	"NULL"	"NULL"	"NULL"	"<p style=\"color: black; font-size: 80px; padding-left: 3%; padding-right: 31%; padding-top: 41%; padding-bottom: 23%\">+</p>"	"1429"	n/a	n/a	n/a	n/a	n/a	n/a	n/a	n/a	n/a
n/a	"image-keyboard-response"	"195"	"392870"	"0.0-6.0-2.0-1.5"	"uggt7m"	"657"	"1366"	"chrome"	"109.0.0"	"FALSE"	"Windows 10"	"60.45"	"140"	n/a	n/a	n/a	n/a	n/a	n/a	"Trial"	n/a	n/a	n/a	"499"	"arrowright"	n/a	"NULL"	"NULL"	"NULL"	"stimuli/VerticalHorizontal_11.78571_-0.2250.png"	n/a	"VerticalHorizontal"	"arrowright"	"1448"	"TRUE"	"VerticalHorizontal"	"11.785710000"	"-0.225000000"	"2"	"6"
n/a	"html-keyboard-response"	"196"	"394356"	"0.0-6.0-2.0-0.6"	"uggt7m"	"657"	"1366"	"chrome"	"109.0.0"	"FALSE"	"Windows 10"	"60.45"	"140"	n/a	n/a	n/a	n/a	n/a	n/a	"fixation"	n/a	n/a	n/a	n/a	"NULL"	n/a	"NULL"	"NULL"	"NULL"	"<p style=\"color: black; font-size: 80px; padding-left: 27%; padding-right: 31%; padding-top: 42%; padding-bottom: 48%\">+</p>"	"1473"	n/a	n/a	n/a	n/a	n/a	n/a	n/a	n/a	n/a
n/a	"image-keyboard-response"	"197"	"394784"	"0.0-6.0-2.0-1.6"	"uggt7m"	"657"	"1366"	"chrome"	"109.0.0"	"FALSE"	"Windows 10"	"60.45"	"140"	n/a	n/a	n/a	n/a	n/a	n/a	"Trial"	n/a	n/a	n/a	"427"	"arrowright"	n/a	"NULL"	"NULL"	"NULL"	"stimuli/VerticalHorizontal_20.27143_0.10960.png"	n/a	"VerticalHorizontal"	"arrowleft"	"1486"	"FALSE"	"VerticalHorizontal"	"20.271430000"	"0.1096000000"	"2"	"7"
n/a	"html-keyboard-response"	"198"	"395882"	"0.0-6.0-2.0-0.7"	"uggt7m"	"657"	"1366"	"chrome"	"109.0.0"	"FALSE"	"Windows 10"	"60.45"	"140"	n/a	n/a	n/a	n/a	n/a	n/a	"fixation"	n/a	n/a	n/a	n/a	"NULL"	n/a	"NULL"	"NULL"	"NULL"	"<p style=\"color: black; font-size: 80px; padding-left: 43%; padding-right: 33%; padding-top: 26%; padding-bottom: 25%\">+</p>"	"1086"	n/a	n/a	n/a	n/a	n/a	n/a	n/a	n/a	n/a
n/a	"image-keyboard-response"	"199"	"396374"	"0.0-6.0-2.0-1.7"	"uggt7m"	"657"	"1366"	"chrome"	"109.0.0"	"FALSE"	"Windows 10"	"60.45"	"140"	n/a	n/a	n/a	n/a	n/a	n/a	"Trial"	n/a	n/a	n/a	"490"	"arrowleft"	n/a	"NULL"	"NULL"	"NULL"	"stimuli/VerticalHorizontal_-20.27143_0.22500.png"	n/a	"VerticalHorizontal"	"arrowleft"	"1098"	"TRUE"	"VerticalHorizontal"	"-20.27143000"	"0.2250000000"	"2"	"8"
n/a	"html-keyboard-response"	"200"	"397436"	"0.0-6.0-2.0-0.8"	"uggt7m"	"657"	"1366"	"chrome"	"109.0.0"	"FALSE"	"Windows 10"	"60.45"	"140"	n/a	n/a	n/a	n/a	n/a	n/a	"fixation"	n/a	n/a	n/a	n/a	"NULL"	n/a	"NULL"	"NULL"	"NULL"	"<p style=\"color: black; font-size: 80px; padding-left: 26%; padding-right: 46%; padding-top: 23%; padding-bottom: 6%\">+</p>"	"1045"	n/a	n/a	n/a	n/a	n/a	n/a	n/a	n/a	n/a
n/a	"image-keyboard-response"	"201"	"397841"	"0.0-6.0-2.0-1.8"	"uggt7m"	"657"	"1366"	"chrome"	"109.0.0"	"FALSE"	"Windows 10"	"60.45"	"140"	n/a	n/a	n/a	n/a	n/a	n/a	"Trial"	n/a	n/a	n/a	"404"	"arrowright"	n/a	"NULL"	"NULL"	"NULL"	"stimuli/VerticalHorizontal_28.75714_0.10960.png"	n/a	"VerticalHorizontal"	"arrowleft"	"1062"	"FALSE"	"VerticalHorizontal"	"28.757140000"	"0.1096000000"	"2"	"9"
n/a	"html-keyboard-response"	"202"	"398995"	"0.0-6.0-2.0-0.9"	"uggt7m"	"657"	"1366"	"chrome"	"109.0.0"	"FALSE"	"Windows 10"	"60.45"	"140"	n/a	n/a	n/a	n/a	n/a	n/a	"fixation"	n/a	n/a	n/a	n/a	"NULL"	n/a	"NULL"	"NULL"	"NULL"	"<p style=\"color: black; font-size: 80px; padding-left: 6%; padding-right: 22%; padding-top: 26%; padding-bottom: 20%\">+</p>"	"1141"	n/a	n/a	n/a	n/a	n/a	n/a	n/a	n/a	n/a
n/a	"image-keyboard-response"	"203"	"399901"	"0.0-6.0-2.0-1.9"	"uggt7m"	"657"	"1366"	"chrome"	"109.0.0"	"FALSE"	"Windows 10"	"60.45"	"140"	n/a	n/a	n/a	n/a	n/a	n/a	"Trial"	n/a	n/a	n/a	"905"	"arrowright"	n/a	"NULL"	"NULL"	"NULL"	"stimuli/VerticalHorizontal_20.27143_-0.1096.png"	n/a	"VerticalHorizontal"	"arrowright"	"1154"	"TRUE"	"VerticalHorizontal"	"20.271430000"	"-0.109600000"	"2"	"10"
n/a	"html-keyboard-response"	"204"	"400953"	"0.0-6.0-2.0-0.10"	"uggt7m"	"657"	"1366"	"chrome"	"109.0.0"	"FALSE"	"Windows 10"	"60.45"	"140"	n/a	n/a	n/a	n/a	n/a	n/a	"fixation"	n/a	n/a	n/a	n/a	"NULL"	n/a	"NULL"	"NULL"	"NULL"	"<p style=\"color: black; font-size: 80px; padding-left: 7%; padding-right: 20%; padding-top: 28%; padding-bottom: 50%\">+</p>"	"1044"	n/a	n/a	n/a	n/a	n/a	n/a	n/a	n/a	n/a
n/a	"image-keyboard-response"	"205"	"401389"	"0.0-6.0-2.0-1.10"	"uggt7m"	"657"	"1366"	"chrome"	"109.0.0"	"FALSE"	"Windows 10"	"60.45"	"140"	n/a	n/a	n/a	n/a	n/a	n/a	"Trial"	n/a	n/a	n/a	"434"	"arrowright"	n/a	"NULL"	"NULL"	"NULL"	"stimuli/VerticalHorizontal_-28.75714_-0.1096.png"	n/a	"VerticalHorizontal"	"arrowright"	"1052"	"TRUE"	"VerticalHorizontal"	"-28.75714000"	"-0.109600000"	"2"	"11"
n/a	"html-keyboard-response"	"206"	"402683"	"0.0-6.0-2.0-0.11"	"uggt7m"	"657"	"1366"	"chrome"	"109.0.0"	"FALSE"	"Windows 10"	"60.45"	"140"	n/a	n/a	n/a	n/a	n/a	n/a	"fixation"	n/a	n/a	n/a	n/a	"NULL"	n/a	"NULL"	"NULL"	"NULL"	"<p style=\"color: black; font-size: 80px; padding-left: 23%; padding-right: 21%; padding-top: 41%; padding-bottom: 33%\">+</p>"	"1282"	n/a	n/a	n/a	n/a	n/a	n/a	n/a	n/a	n/a
n/a	"image-keyboard-response"	"207"	"403142"	"0.0-6.0-2.0-1.11"	"uggt7m"	"657"	"1366"	"chrome"	"109.0.0"	"FALSE"	"Windows 10"	"60.45"	"140"	n/a	n/a	n/a	n/a	n/a	n/a	"Trial"	n/a	n/a	n/a	"459"	"arrowright"	n/a	"NULL"	"NULL"	"NULL"	"stimuli/VerticalHorizontal_-28.75714_-0.16217.png"	n/a	"VerticalHorizontal"	"arrowright"	"1294"	"TRUE"	"VerticalHorizontal"	"-28.75714000"	"-0.162170000"	"2"	"12"
n/a	"html-keyboard-response"	"208"	"404391"	"0.0-6.0-2.0-0.12"	"uggt7m"	"657"	"1366"	"chrome"	"109.0.0"	"FALSE"	"Windows 10"	"60.45"	"140"	n/a	n/a	n/a	n/a	n/a	n/a	"fixation"	n/a	n/a	n/a	n/a	"NULL"	n/a	"NULL"	"NULL"	"NULL"	"<p style=\"color: black; font-size: 80px; padding-left: 13%; padding-right: 16%; padding-top: 47%; padding-bottom: 8%\">+</p>"	"1245"	n/a	n/a	n/a	n/a	n/a	n/a	n/a	n/a	n/a
n/a	"image-keyboard-response"	"209"	"404830"	"0.0-6.0-2.0-1.12"	"uggt7m"	"657"	"1366"	"chrome"	"109.0.0"	"FALSE"	"Windows 10"	"60.45"	"140"	n/a	n/a	n/a	n/a	n/a	n/a	"Trial"	n/a	n/a	n/a	"437"	"arrowright"	n/a	"NULL"	"NULL"	"NULL"	"stimuli/VerticalHorizontal_-11.78571_-0.1096.png"	n/a	"VerticalHorizontal"	"arrowright"	"1249"	"TRUE"	"VerticalHorizontal"	"-11.78571000"	"-0.109600000"	"2"	"13"
n/a	"html-keyboard-response"	"210"	"405990"	"0.0-6.0-2.0-0.13"	"uggt7m"	"657"	"1366"	"chrome"	"109.0.0"	"FALSE"	"Windows 10"	"60.45"	"140"	n/a	n/a	n/a	n/a	n/a	n/a	"fixation"	n/a	n/a	n/a	n/a	"NULL"	n/a	"NULL"	"NULL"	"NULL"	"<p style=\"color: black; font-size: 80px; padding-left: 26%; padding-right: 38%; padding-top: 13%; padding-bottom: 41%\">+</p>"	"1142"	n/a	n/a	n/a	n/a	n/a	n/a	n/a	n/a	n/a
n/a	"image-keyboard-response"	"211"	"406445"	"0.0-6.0-2.0-1.13"	"uggt7m"	"657"	"1366"	"chrome"	"109.0.0"	"FALSE"	"Windows 10"	"60.45"	"140"	n/a	n/a	n/a	n/a	n/a	n/a	"Trial"	n/a	n/a	n/a	"454"	"arrowleft"	n/a	"NULL"	"NULL"	"NULL"	"stimuli/VerticalHorizontal_-28.75714_0.16217.png"	n/a	"VerticalHorizontal"	"arrowleft"	"1160"	"TRUE"	"VerticalHorizontal"	"-28.75714000"	"0.1621700000"	"2"	"14"
n/a	"html-keyboard-response"	"212"	"407571"	"0.0-6.0-2.0-0.14"	"uggt7m"	"657"	"1366"	"chrome"	"109.0.0"	"FALSE"	"Windows 10"	"60.45"	"140"	n/a	n/a	n/a	n/a	n/a	n/a	"fixation"	n/a	n/a	n/a	n/a	"NULL"	n/a	"NULL"	"NULL"	"NULL"	"<p style=\"color: black; font-size: 80px; padding-left: 1%; padding-right: 24%; padding-top: 9%; padding-bottom: 11%\">+</p>"	"1107"	n/a	n/a	n/a	n/a	n/a	n/a	n/a	n/a	n/a
n/a	"image-keyboard-response"	"213"	"408064"	"0.0-6.0-2.0-1.14"	"uggt7m"	"657"	"1366"	"chrome"	"109.0.0"	"FALSE"	"Windows 10"	"60.45"	"140"	n/a	n/a	n/a	n/a	n/a	n/a	"Trial"	n/a	n/a	n/a	"492"	"arrowleft"	n/a	"NULL"	"NULL"	"NULL"	"stimuli/VerticalHorizontal_-11.78571_0.22500.png"	n/a	"VerticalHorizontal"	"arrowleft"	"1126"	"TRUE"	"VerticalHorizontal"	"-11.78571000"	"0.2250000000"	"2"	"15"
n/a	"html-keyboard-response"	"214"	"409574"	"0.0-6.0-2.0-0.15"	"uggt7m"	"657"	"1366"	"chrome"	"109.0.0"	"FALSE"	"Windows 10"	"60.45"	"140"	n/a	n/a	n/a	n/a	n/a	n/a	"fixation"	n/a	n/a	n/a	n/a	"NULL"	n/a	"NULL"	"NULL"	"NULL"	"<p style=\"color: black; font-size: 80px; padding-left: 14%; padding-right: 34%; padding-top: 48%; padding-bottom: 11%\">+</p>"	"1498"	n/a	n/a	n/a	n/a	n/a	n/a	n/a	n/a	n/a
n/a	"image-keyboard-response"	"215"	"409953"	"0.0-6.0-2.0-1.15"	"uggt7m"	"657"	"1366"	"chrome"	"109.0.0"	"FALSE"	"Windows 10"	"60.45"	"140"	n/a	n/a	n/a	n/a	n/a	n/a	"Trial"	n/a	n/a	n/a	"378"	"arrowright"	n/a	"NULL"	"NULL"	"NULL"	"stimuli/VerticalHorizontal_28.75714_0.22500.png"	n/a	"VerticalHorizontal"	"arrowleft"	"1510"	"FALSE"	"VerticalHorizontal"	"28.757140000"	"0.2250000000"	"2"	"16"
n/a	"html-keyboard-response"	"216"	"411121"	"0.0-6.0-2.0-0.16"	"uggt7m"	"657"	"1366"	"chrome"	"109.0.0"	"FALSE"	"Windows 10"	"60.45"	"140"	n/a	n/a	n/a	n/a	n/a	n/a	"fixation"	n/a	n/a	n/a	n/a	"NULL"	n/a	"NULL"	"NULL"	"NULL"	"<p style=\"color: black; font-size: 80px; padding-left: 20%; padding-right: 32%; padding-top: 20%; padding-bottom: 10%\">+</p>"	"1161"	n/a	n/a	n/a	n/a	n/a	n/a	n/a	n/a	n/a
n/a	"image-keyboard-response"	"217"	"411693"	"0.0-6.0-2.0-1.16"	"uggt7m"	"657"	"1366"	"chrome"	"109.0.0"	"FALSE"	"Windows 10"	"60.45"	"140"	n/a	n/a	n/a	n/a	n/a	n/a	"Trial"	n/a	n/a	n/a	"569"	"arrowright"	n/a	"NULL"	"NULL"	"NULL"	"stimuli/VerticalHorizontal_20.27143_-0.2250.png"	n/a	"VerticalHorizontal"	"arrowright"	"1168"	"TRUE"	"VerticalHorizontal"	"20.271430000"	"-0.225000000"	"2"	"17"
n/a	"html-keyboard-response"	"218"	"412894"	"0.0-6.0-2.0-0.17"	"uggt7m"	"657"	"1366"	"chrome"	"109.0.0"	"FALSE"	"Windows 10"	"60.45"	"140"	n/a	n/a	n/a	n/a	n/a	n/a	"fixation"	n/a	n/a	n/a	n/a	"NULL"	n/a	"NULL"	"NULL"	"NULL"	"<p style=\"color: black; font-size: 80px; padding-left: 33%; padding-right: 0%; padding-top: 4%; padding-bottom: 21%\">+</p>"	"1196"	n/a	n/a	n/a	n/a	n/a	n/a	n/a	n/a	n/a
n/a	"image-keyboard-response"	"219"	"413279"	"0.0-6.0-2.0-1.17"	"uggt7m"	"657"	"1366"	"chrome"	"109.0.0"	"FALSE"	"Windows 10"	"60.45"	"140"	n/a	n/a	n/a	n/a	n/a	n/a	"Trial"	n/a	n/a	n/a	"383"	"arrowright"	n/a	"NULL"	"NULL"	"NULL"	"stimuli/VerticalHorizontal_-20.27143_-0.2250.png"	n/a	"VerticalHorizontal"	"arrowright"	"1201"	"TRUE"	"VerticalHorizontal"	"-20.27143000"	"-0.225000000"	"2"	"18"
n/a	"html-keyboard-response"	"220"	"414323"	"0.0-6.0-2.0-0.18"	"uggt7m"	"657"	"1366"	"chrome"	"109.0.0"	"FALSE"	"Windows 10"	"60.45"	"140"	n/a	n/a	n/a	n/a	n/a	n/a	"fixation"	n/a	n/a	n/a	n/a	"NULL"	n/a	"NULL"	"NULL"	"NULL"	"<p style=\"color: black; font-size: 80px; padding-left: 19%; padding-right: 5%; padding-top: 41%; padding-bottom: 4%\">+</p>"	"1035"	n/a	n/a	n/a	n/a	n/a	n/a	n/a	n/a	n/a
n/a	"image-keyboard-response"	"221"	"414743"	"0.0-6.0-2.0-1.18"	"uggt7m"	"657"	"1366"	"chrome"	"109.0.0"	"FALSE"	"Windows 10"	"60.45"	"140"	n/a	n/a	n/a	n/a	n/a	n/a	"Trial"	n/a	n/a	n/a	"419"	"arrowright"	n/a	"NULL"	"NULL"	"NULL"	"stimuli/VerticalHorizontal_-28.75714_-0.0673.png"	n/a	"VerticalHorizontal"	"arrowright"	"1044"	"TRUE"	"VerticalHorizontal"	"-28.75714000"	"-0.067300000"	"2"	"19"
n/a	"html-keyboard-response"	"222"	"415808"	"0.0-6.0-2.0-0.19"	"uggt7m"	"657"	"1366"	"chrome"	"109.0.0"	"FALSE"	"Windows 10"	"60.45"	"140"	n/a	n/a	n/a	n/a	n/a	n/a	"fixation"	n/a	n/a	n/a	n/a	"NULL"	n/a	"NULL"	"NULL"	"NULL"	"<p style=\"color: black; font-size: 80px; padding-left: 15%; padding-right: 35%; padding-top: 22%; padding-bottom: 36%\">+</p>"	"1052"	n/a	n/a	n/a	n/a	n/a	n/a	n/a	n/a	n/a
n/a	"image-keyboard-response"	"223"	"416273"	"0.0-6.0-2.0-1.19"	"uggt7m"	"657"	"1366"	"chrome"	"109.0.0"	"FALSE"	"Windows 10"	"60.45"	"140"	n/a	n/a	n/a	n/a	n/a	n/a	"Trial"	n/a	n/a	n/a	"464"	"arrowleft"	n/a	"NULL"	"NULL"	"NULL"	"stimuli/VerticalHorizontal_-3.3000_0.06730.png"	n/a	"VerticalHorizontal"	"arrowleft"	"1065"	"TRUE"	"VerticalHorizontal"	"-3.300000000"	"0.0673000000"	"2"	"20"
n/a	"html-keyboard-response"	"224"	"417427"	"0.0-6.0-2.0-0.20"	"uggt7m"	"657"	"1366"	"chrome"	"109.0.0"	"FALSE"	"Windows 10"	"60.45"	"140"	n/a	n/a	n/a	n/a	n/a	n/a	"fixation"	n/a	n/a	n/a	n/a	"NULL"	n/a	"NULL"	"NULL"	"NULL"	"<p style=\"color: black; font-size: 80px; padding-left: 1%; padding-right: 32%; padding-top: 42%; padding-bottom: 10%\">+</p>"	"1140"	n/a	n/a	n/a	n/a	n/a	n/a	n/a	n/a	n/a
n/a	"image-keyboard-response"	"225"	"418024"	"0.0-6.0-2.0-1.20"	"uggt7m"	"657"	"1366"	"chrome"	"109.0.0"	"FALSE"	"Windows 10"	"60.45"	"140"	n/a	n/a	n/a	n/a	n/a	n/a	"Trial"	n/a	n/a	n/a	"596"	"arrowright"	n/a	"NULL"	"NULL"	"NULL"	"stimuli/VerticalHorizontal_3.30000_-0.16217.png"	n/a	"VerticalHorizontal"	"arrowright"	"1154"	"TRUE"	"VerticalHorizontal"	"3.3000000000"	"-0.162170000"	"2"	"21"
n/a	"html-keyboard-response"	"226"	"419505"	"0.0-6.0-2.0-0.21"	"uggt7m"	"657"	"1366"	"chrome"	"109.0.0"	"FALSE"	"Windows 10"	"60.45"	"140"	n/a	n/a	n/a	n/a	n/a	n/a	"fixation"	n/a	n/a	n/a	n/a	"NULL"	n/a	"NULL"	"NULL"	"NULL"	"<p style=\"color: black; font-size: 80px; padding-left: 32%; padding-right: 49%; padding-top: 43%; padding-bottom: 20%\">+</p>"	"1460"	n/a	n/a	n/a	n/a	n/a	n/a	n/a	n/a	n/a
n/a	"image-keyboard-response"	"227"	"420757"	"0.0-6.0-2.0-1.21"	"uggt7m"	"657"	"1366"	"chrome"	"109.0.0"	"FALSE"	"Windows 10"	"60.45"	"140"	n/a	n/a	n/a	n/a	n/a	n/a	"Trial"	n/a	n/a	n/a	"1252"	"arrowright"	n/a	"NULL"	"NULL"	"NULL"	"stimuli/VerticalHorizontal_28.75714_-0.16217.png"	n/a	"VerticalHorizontal"	"arrowright"	"1481"	"TRUE"	"VerticalHorizontal"	"28.757140000"	"-0.162170000"	"2"	"22"
n/a	"html-keyboard-response"	"228"	"422093"	"0.0-6.0-2.0-0.22"	"uggt7m"	"657"	"1366"	"chrome"	"109.0.0"	"FALSE"	"Windows 10"	"60.45"	"140"	n/a	n/a	n/a	n/a	n/a	n/a	"fixation"	n/a	n/a	n/a	n/a	"NULL"	n/a	"NULL"	"NULL"	"NULL"	"<p style=\"color: black; font-size: 80px; padding-left: 15%; padding-right: 35%; padding-top: 18%; padding-bottom: 26%\">+</p>"	"1333"	n/a	n/a	n/a	n/a	n/a	n/a	n/a	n/a	n/a
n/a	"image-keyboard-response"	"229"	"422583"	"0.0-6.0-2.0-1.22"	"uggt7m"	"657"	"1366"	"chrome"	"109.0.0"	"FALSE"	"Windows 10"	"60.45"	"140"	n/a	n/a	n/a	n/a	n/a	n/a	"Trial"	n/a	n/a	n/a	"490"	"arrowright"	n/a	"NULL"	"NULL"	"NULL"	"stimuli/VerticalHorizontal_11.78571_-0.16217.png"	n/a	"VerticalHorizontal"	"arrowright"	"1336"	"TRUE"	"VerticalHorizontal"	"11.785710000"	"-0.162170000"	"2"	"23"
n/a	"html-keyboard-response"	"230"	"424054"	"0.0-6.0-2.0-0.23"	"uggt7m"	"657"	"1366"	"chrome"	"109.0.0"	"FALSE"	"Windows 10"	"60.45"	"140"	n/a	n/a	n/a	n/a	n/a	n/a	"fixation"	n/a	n/a	n/a	n/a	"NULL"	n/a	"NULL"	"NULL"	"NULL"	"<p style=\"color: black; font-size: 80px; padding-left: 49%; padding-right: 41%; padding-top: 16%; padding-bottom: 18%\">+</p>"	"1453"	n/a	n/a	n/a	n/a	n/a	n/a	n/a	n/a	n/a
n/a	"image-keyboard-response"	"231"	"424679"	"0.0-6.0-2.0-1.23"	"uggt7m"	"657"	"1366"	"chrome"	"109.0.0"	"FALSE"	"Windows 10"	"60.45"	"140"	n/a	n/a	n/a	n/a	n/a	n/a	"Trial"	n/a	n/a	n/a	"623"	"arrowleft"	n/a	"NULL"	"NULL"	"NULL"	"stimuli/VerticalHorizontal_-3.3000_0.10960.png"	n/a	"VerticalHorizontal"	"arrowleft"	"1471"	"TRUE"	"VerticalHorizontal"	"-3.300000000"	"0.1096000000"	"2"	"24"
n/a	"html-keyboard-response"	"232"	"425807"	"0.0-6.0-2.0-0.24"	"uggt7m"	"657"	"1366"	"chrome"	"109.0.0"	"FALSE"	"Windows 10"	"60.45"	"140"	n/a	n/a	n/a	n/a	n/a	n/a	"fixation"	n/a	n/a	n/a	n/a	"NULL"	n/a	"NULL"	"NULL"	"NULL"	"<p style=\"color: black; font-size: 80px; padding-left: 9%; padding-right: 1%; padding-top: 45%; padding-bottom: 47%\">+</p>"	"1111"	n/a	n/a	n/a	n/a	n/a	n/a	n/a	n/a	n/a
n/a	"image-keyboard-response"	"233"	"426392"	"0.0-6.0-2.0-1.24"	"uggt7m"	"657"	"1366"	"chrome"	"109.0.0"	"FALSE"	"Windows 10"	"60.45"	"140"	n/a	n/a	n/a	n/a	n/a	n/a	"Trial"	n/a	n/a	n/a	"583"	"arrowleft"	n/a	"NULL"	"NULL"	"NULL"	"stimuli/VerticalHorizontal_-11.78571_0.10960.png"	n/a	"VerticalHorizontal"	"arrowleft"	"1128"	"TRUE"	"VerticalHorizontal"	"-11.78571000"	"0.1096000000"	"2"	"25"
n/a	"html-keyboard-response"	"234"	"427728"	"0.0-6.0-2.0-0.25"	"uggt7m"	"657"	"1366"	"chrome"	"109.0.0"	"FALSE"	"Windows 10"	"60.45"	"140"	n/a	n/a	n/a	n/a	n/a	n/a	"fixation"	n/a	n/a	n/a	n/a	"NULL"	n/a	"NULL"	"NULL"	"NULL"	"<p style=\"color: black; font-size: 80px; padding-left: 24%; padding-right: 14%; padding-top: 24%; padding-bottom: 48%\">+</p>"	"1330"	n/a	n/a	n/a	n/a	n/a	n/a	n/a	n/a	n/a
n/a	"image-keyboard-response"	"235"	"428123"	"0.0-6.0-2.0-1.25"	"uggt7m"	"657"	"1366"	"chrome"	"109.0.0"	"FALSE"	"Windows 10"	"60.45"	"140"	n/a	n/a	n/a	n/a	n/a	n/a	"Trial"	n/a	n/a	n/a	"394"	"arrowright"	n/a	"NULL"	"NULL"	"NULL"	"stimuli/VerticalHorizontal_-20.27143_-0.16217.png"	n/a	"VerticalHorizontal"	"arrowright"	"1336"	"TRUE"	"VerticalHorizontal"	"-20.27143000"	"-0.162170000"	"2"	"26"
n/a	"html-keyboard-response"	"236"	"429453"	"0.0-6.0-2.0-0.26"	"uggt7m"	"657"	"1366"	"chrome"	"109.0.0"	"FALSE"	"Windows 10"	"60.45"	"140"	n/a	n/a	n/a	n/a	n/a	n/a	"fixation"	n/a	n/a	n/a	n/a	"NULL"	n/a	"NULL"	"NULL"	"NULL"	"<p style=\"color: black; font-size: 80px; padding-left: 44%; padding-right: 18%; padding-top: 9%; padding-bottom: 48%\">+</p>"	"1313"	n/a	n/a	n/a	n/a	n/a	n/a	n/a	n/a	n/a
n/a	"image-keyboard-response"	"237"	"429871"	"0.0-6.0-2.0-1.26"	"uggt7m"	"657"	"1366"	"chrome"	"109.0.0"	"FALSE"	"Windows 10"	"60.45"	"140"	n/a	n/a	n/a	n/a	n/a	n/a	"Trial"	n/a	n/a	n/a	"417"	"arrowleft"	n/a	"NULL"	"NULL"	"NULL"	"stimuli/VerticalHorizontal_-28.75714_0.06730.png"	n/a	"VerticalHorizontal"	"arrowleft"	"1330"	"TRUE"	"VerticalHorizontal"	"-28.75714000"	"0.0673000000"	"2"	"27"
n/a	"html-keyboard-response"	"238"	"431011"	"0.0-6.0-2.0-0.27"	"uggt7m"	"657"	"1366"	"chrome"	"109.0.0"	"FALSE"	"Windows 10"	"60.45"	"140"	n/a	n/a	n/a	n/a	n/a	n/a	"fixation"	n/a	n/a	n/a	n/a	"NULL"	n/a	"NULL"	"NULL"	"NULL"	"<p style=\"color: black; font-size: 80px; padding-left: 14%; padding-right: 17%; padding-top: 18%; padding-bottom: 46%\">+</p>"	"1128"	n/a	n/a	n/a	n/a	n/a	n/a	n/a	n/a	n/a
n/a	"image-keyboard-response"	"239"	"431481"	"0.0-6.0-2.0-1.27"	"uggt7m"	"657"	"1366"	"chrome"	"109.0.0"	"FALSE"	"Windows 10"	"60.45"	"140"	n/a	n/a	n/a	n/a	n/a	n/a	"Trial"	n/a	n/a	n/a	"469"	"arrowright"	n/a	"NULL"	"NULL"	"NULL"	"stimuli/VerticalHorizontal_3.30000_-0.1096.png"	n/a	"VerticalHorizontal"	"arrowright"	"1140"	"TRUE"	"VerticalHorizontal"	"3.3000000000"	"-0.109600000"	"2"	"28"
n/a	"html-keyboard-response"	"240"	"432902"	"0.0-6.0-2.0-0.28"	"uggt7m"	"657"	"1366"	"chrome"	"109.0.0"	"FALSE"	"Windows 10"	"60.45"	"140"	n/a	n/a	n/a	n/a	n/a	n/a	"fixation"	n/a	n/a	n/a	n/a	"NULL"	n/a	"NULL"	"NULL"	"NULL"	"<p style=\"color: black; font-size: 80px; padding-left: 46%; padding-right: 39%; padding-top: 45%; padding-bottom: 11%\">+</p>"	"1408"	n/a	n/a	n/a	n/a	n/a	n/a	n/a	n/a	n/a
n/a	"image-keyboard-response"	"241"	"433416"	"0.0-6.0-2.0-1.28"	"uggt7m"	"657"	"1366"	"chrome"	"109.0.0"	"FALSE"	"Windows 10"	"60.45"	"140"	n/a	n/a	n/a	n/a	n/a	n/a	"Trial"	n/a	n/a	n/a	"512"	"arrowright"	n/a	"NULL"	"NULL"	"NULL"	"stimuli/VerticalHorizontal_20.27143_0.06730.png"	n/a	"VerticalHorizontal"	"arrowleft"	"1421"	"FALSE"	"VerticalHorizontal"	"20.271430000"	"0.0673000000"	"2"	"29"
n/a	"html-keyboard-response"	"242"	"434489"	"0.0-6.0-2.0-0.29"	"uggt7m"	"657"	"1366"	"chrome"	"109.0.0"	"FALSE"	"Windows 10"	"60.45"	"140"	n/a	n/a	n/a	n/a	n/a	n/a	"fixation"	n/a	n/a	n/a	n/a	"NULL"	n/a	"NULL"	"NULL"	"NULL"	"<p style=\"color: black; font-size: 80px; padding-left: 48%; padding-right: 39%; padding-top: 17%; padding-bottom: 2%\">+</p>"	"1053"	n/a	n/a	n/a	n/a	n/a	n/a	n/a	n/a	n/a
n/a	"image-keyboard-response"	"243"	"435150"	"0.0-6.0-2.0-1.29"	"uggt7m"	"657"	"1366"	"chrome"	"109.0.0"	"FALSE"	"Windows 10"	"60.45"	"140"	n/a	n/a	n/a	n/a	n/a	n/a	"Trial"	n/a	n/a	n/a	"661"	"arrowleft"	n/a	"NULL"	"NULL"	"NULL"	"stimuli/VerticalHorizontal_-3.3000_0.22500.png"	n/a	"VerticalHorizontal"	"arrowleft"	"1073"	"TRUE"	"VerticalHorizontal"	"-3.300000000"	"0.2250000000"	"2"	"30"
n/a	"html-keyboard-response"	"244"	"436212"	"0.0-6.0-2.0-0.30"	"uggt7m"	"657"	"1366"	"chrome"	"109.0.0"	"FALSE"	"Windows 10"	"60.45"	"140"	n/a	n/a	n/a	n/a	n/a	n/a	"fixation"	n/a	n/a	n/a	n/a	"NULL"	n/a	"NULL"	"NULL"	"NULL"	"<p style=\"color: black; font-size: 80px; padding-left: 31%; padding-right: 41%; padding-top: 23%; padding-bottom: 13%\">+</p>"	"1043"	n/a	n/a	n/a	n/a	n/a	n/a	n/a	n/a	n/a
n/a	"image-keyboard-response"	"245"	"436781"	"0.0-6.0-2.0-1.30"	"uggt7m"	"657"	"1366"	"chrome"	"109.0.0"	"FALSE"	"Windows 10"	"60.45"	"140"	n/a	n/a	n/a	n/a	n/a	n/a	"Trial"	n/a	n/a	n/a	"568"	"arrowright"	n/a	"NULL"	"NULL"	"NULL"	"stimuli/VerticalHorizontal_11.78571_-0.1096.png"	n/a	"VerticalHorizontal"	"arrowright"	"1062"	"TRUE"	"VerticalHorizontal"	"11.785710000"	"-0.109600000"	"2"	"31"
n/a	"html-keyboard-response"	"246"	"437970"	"0.0-6.0-2.0-0.31"	"uggt7m"	"657"	"1366"	"chrome"	"109.0.0"	"FALSE"	"Windows 10"	"60.45"	"140"	n/a	n/a	n/a	n/a	n/a	n/a	"fixation"	n/a	n/a	n/a	n/a	"NULL"	n/a	"NULL"	"NULL"	"NULL"	"<p style=\"color: black; font-size: 80px; padding-left: 35%; padding-right: 21%; padding-top: 9%; padding-bottom: 40%\">+</p>"	"1179"	n/a	n/a	n/a	n/a	n/a	n/a	n/a	n/a	n/a
n/a	"image-keyboard-response"	"247"	"438425"	"0.0-6.0-2.0-1.31"	"uggt7m"	"657"	"1366"	"chrome"	"109.0.0"	"FALSE"	"Windows 10"	"60.45"	"140"	n/a	n/a	n/a	n/a	n/a	n/a	"Trial"	n/a	n/a	n/a	"454"	"arrowleft"	n/a	"NULL"	"NULL"	"NULL"	"stimuli/VerticalHorizontal_-11.78571_0.16217.png"	n/a	"VerticalHorizontal"	"arrowleft"	"1189"	"TRUE"	"VerticalHorizontal"	"-11.78571000"	"0.1621700000"	"2"	"32"
n/a	"html-keyboard-response"	"248"	"439497"	"0.0-6.0-2.0-0.32"	"uggt7m"	"657"	"1366"	"chrome"	"109.0.0"	"FALSE"	"Windows 10"	"60.45"	"140"	n/a	n/a	n/a	n/a	n/a	n/a	"fixation"	n/a	n/a	n/a	n/a	"NULL"	n/a	"NULL"	"NULL"	"NULL"	"<p style=\"color: black; font-size: 80px; padding-left: 25%; padding-right: 28%; padding-top: 39%; padding-bottom: 47%\">+</p>"	"1063"	n/a	n/a	n/a	n/a	n/a	n/a	n/a	n/a	n/a
n/a	"image-keyboard-response"	"249"	"439940"	"0.0-6.0-2.0-1.32"	"uggt7m"	"657"	"1366"	"chrome"	"109.0.0"	"FALSE"	"Windows 10"	"60.45"	"140"	n/a	n/a	n/a	n/a	n/a	n/a	"Trial"	n/a	n/a	n/a	"442"	"arrowright"	n/a	"NULL"	"NULL"	"NULL"	"stimuli/VerticalHorizontal_20.27143_0.22500.png"	n/a	"VerticalHorizontal"	"arrowleft"	"1072"	"FALSE"	"VerticalHorizontal"	"20.271430000"	"0.2250000000"	"2"	"33"
n/a	"html-keyboard-response"	"250"	"441384"	"0.0-6.0-2.0-0.33"	"uggt7m"	"657"	"1366"	"chrome"	"109.0.0"	"FALSE"	"Windows 10"	"60.45"	"140"	n/a	n/a	n/a	n/a	n/a	n/a	"fixation"	n/a	n/a	n/a	n/a	"NULL"	n/a	"NULL"	"NULL"	"NULL"	"<p style=\"color: black; font-size: 80px; padding-left: 47%; padding-right: 14%; padding-top: 2%; padding-bottom: 15%\">+</p>"	"1430"	n/a	n/a	n/a	n/a	n/a	n/a	n/a	n/a	n/a
