"success"	"trial_type"	"trial_index"	"time_elapsed"	"internal_node_id"	"participant_id"	"screen_height"	"screen_width"	"browser"	"browser_version"	"mobile"	"os"	"vsync_rate"	"width"	"height"	"webaudio"	"fullscreen"	"webcam"	"microphone"	"screen"	"version"	"date"	"time"	"timeout"	"failed_images"	"failed_audio"	"failed_video"	"rt"	"stimulus"	"response"	"trial_duration"	"block"	"correct_response"	"prestimulus_duration"	"correct"	"type"	"illusion_strength"	"illusion_difference"	"block_number"	"trial_number"
"TRUE"	"fullscreen"	"0"	"1697"	"0.0-0.0"	"00fl9o"	"600"	"1366"	"chrome"	"108.0.0"	"FALSE"	"Windows 10"	"60.72"	n/a	n/a	n/a	n/a	n/a	n/a	n/a	n/a	n/a	n/a	n/a	"NULL"	"NULL"	"NULL"	n/a	n/a	n/a	n/a	n/a	n/a	n/a	n/a	n/a	n/a	n/a	n/a	n/a
n/a	"browser-check"	"1"	"2703"	"0.0-1.0"	"00fl9o"	"600"	"1366"	"chrome"	"108.0.0"	"FALSE"	"Windows 10"	"60.72"	"1366"	"600"	"TRUE"	"TRUE"	"TRUE"	"TRUE"	"browser_info"	"1.0"	"21/12/2022"	"10:28:22"	n/a	"NULL"	"NULL"	"NULL"	n/a	n/a	n/a	n/a	n/a	n/a	n/a	n/a	n/a	n/a	n/a	n/a	n/a
"TRUE"	"preload"	"2"	"2716"	"0.0-2.0"	"00fl9o"	"600"	"1366"	"chrome"	"108.0.0"	"FALSE"	"Windows 10"	"60.72"	n/a	n/a	n/a	n/a	n/a	n/a	n/a	n/a	n/a	n/a	"FALSE"	"list()"	"list()"	"list()"	n/a	n/a	n/a	n/a	n/a	n/a	n/a	n/a	n/a	n/a	n/a	n/a	n/a
n/a	"html-button-response"	"3"	"13255"	"0.0-3.0-0.0"	"00fl9o"	"600"	"1366"	"chrome"	"108.0.0"	"FALSE"	"Windows 10"	"60.72"	n/a	n/a	n/a	n/a	n/a	n/a	"illusion_instructions"	n/a	n/a	n/a	n/a	"NULL"	"NULL"	"NULL"	"10539"	"<p><b>Illusion Game</b></p><p>In this game of speed and reflex, you will need to make <b>visual judgments</b> (for instance, which circle is the biggest, or which line is the longest), as fast and as correctly as possible, while <b>resisting different visual illusions</b>.</p><p>We are going to start with some examples of all the illusions you will encounter in the game.</p>"	"0"	n/a	n/a	n/a	n/a	n/a	n/a	n/a	n/a	n/a	n/a
"TRUE"	"preload"	"4"	"13276"	"0.0-3.0-1.0-0.0"	"00fl9o"	"600"	"1366"	"chrome"	"108.0.0"	"FALSE"	"Windows 10"	"60.72"	n/a	n/a	n/a	n/a	n/a	n/a	n/a	n/a	n/a	n/a	"FALSE"	"list()"	"list()"	"list()"	n/a	n/a	n/a	n/a	n/a	n/a	n/a	n/a	n/a	n/a	n/a	n/a	n/a
n/a	"html-keyboard-response"	"5"	"29746"	"0.0-3.0-1.0-1.0"	"00fl9o"	"600"	"1366"	"chrome"	"108.0.0"	"FALSE"	"Windows 10"	"60.72"	n/a	n/a	n/a	n/a	n/a	n/a	n/a	n/a	n/a	n/a	n/a	"NULL"	"NULL"	"NULL"	"16469"	"<p><b>Practice</b></p><p>In this part, two red circles will appear side by side on the screen.</p><p>Your task is to select which <b>red circle is bigger</b> in size as fast as you can, without making errors.</p><p>Don't get distracted by the surrounding black circles around the red circles!</p><p>Press <b>the LEFT or the RIGHT arrow</b> to indicate which is the bigger <b>red circle.</b></p><div style='float: center'><img src='materials/instructions/Ebbinghaus_Demo.png' height='300'></img><p><img src='utils/answer/answer_leftright_keyboard.PNG' height='150'></img></p><p class='small'>In this example, the correct answer is the <b>LEFT arrow</b>.</p></div><p>Are you ready? <b>Press ENTER to start</b></p>"	"enter"	n/a	n/a	n/a	n/a	n/a	n/a	n/a	n/a	n/a	n/a
n/a	"html-keyboard-response"	"6"	"31577"	"0.0-3.0-1.0-2.0-0.0"	"00fl9o"	"600"	"1366"	"chrome"	"108.0.0"	"FALSE"	"Windows 10"	"60.72"	n/a	n/a	n/a	n/a	n/a	n/a	"fixation"	n/a	n/a	n/a	n/a	"NULL"	"NULL"	"NULL"	n/a	"<p style=\"color: black; font-size: 80px; padding-left: 19%; padding-right: 17%; padding-top: 39%; padding-bottom: 37%\">+</p>"	n/a	"1306"	n/a	n/a	n/a	n/a	n/a	n/a	n/a	n/a	n/a
n/a	"image-keyboard-response"	"7"	"32713"	"0.0-3.0-1.0-2.0-1.0"	"00fl9o"	"600"	"1366"	"chrome"	"108.0.0"	"FALSE"	"Windows 10"	"60.72"	n/a	n/a	n/a	n/a	n/a	n/a	"Trial"	n/a	n/a	n/a	n/a	"NULL"	"NULL"	"NULL"	"1123"	"stimuli/Ebbinghaus_-100000_1.40000.png"	"arrowleft"	n/a	"Ebbinghaus"	"arrowleft"	"1831"	"TRUE"	"Ebbinghaus"	"-10000000000"	"1.4000000000"	"1"	"1"
n/a	"html-keyboard-response"	"8"	"33852"	"0.0-3.0-1.0-2.0-0.1"	"00fl9o"	"600"	"1366"	"chrome"	"108.0.0"	"FALSE"	"Windows 10"	"60.72"	n/a	n/a	n/a	n/a	n/a	n/a	"fixation"	n/a	n/a	n/a	n/a	"NULL"	"NULL"	"NULL"	n/a	"<p style=\"color: black; font-size: 80px; padding-left: 13%; padding-right: 33%; padding-top: 38%; padding-bottom: 48%\">+</p>"	n/a	"1129"	n/a	n/a	n/a	n/a	n/a	n/a	n/a	n/a	n/a
n/a	"image-keyboard-response"	"9"	"34361"	"0.0-3.0-1.0-2.0-1.1"	"00fl9o"	"600"	"1366"	"chrome"	"108.0.0"	"FALSE"	"Windows 10"	"60.72"	n/a	n/a	n/a	n/a	n/a	n/a	"Trial"	n/a	n/a	n/a	n/a	"NULL"	"NULL"	"NULL"	"507"	"stimuli/Ebbinghaus_0000000_-1.4000.png"	"arrowright"	n/a	"Ebbinghaus"	"arrowright"	"1139"	"TRUE"	"Ebbinghaus"	"000000000000"	"-1.400000000"	"1"	"2"
n/a	"html-keyboard-response"	"10"	"35623"	"0.0-3.0-1.0-2.0-0.2"	"00fl9o"	"600"	"1366"	"chrome"	"108.0.0"	"FALSE"	"Windows 10"	"60.72"	n/a	n/a	n/a	n/a	n/a	n/a	"fixation"	n/a	n/a	n/a	n/a	"NULL"	"NULL"	"NULL"	n/a	"<p style=\"color: black; font-size: 80px; padding-left: 8%; padding-right: 23%; padding-top: 34%; padding-bottom: 18%\">+</p>"	n/a	"1252"	n/a	n/a	n/a	n/a	n/a	n/a	n/a	n/a	n/a
n/a	"image-keyboard-response"	"11"	"36034"	"0.0-3.0-1.0-2.0-1.2"	"00fl9o"	"600"	"1366"	"chrome"	"108.0.0"	"FALSE"	"Windows 10"	"60.72"	n/a	n/a	n/a	n/a	n/a	n/a	"Trial"	n/a	n/a	n/a	n/a	"NULL"	"NULL"	"NULL"	"409"	"stimuli/Ebbinghaus_-100000_-1.4000.png"	"arrowright"	n/a	"Ebbinghaus"	"arrowright"	"1262"	"TRUE"	"Ebbinghaus"	"-10000000000"	"-1.400000000"	"1"	"3"
n/a	"html-keyboard-response"	"12"	"37452"	"0.0-3.0-1.0-2.0-0.3"	"00fl9o"	"600"	"1366"	"chrome"	"108.0.0"	"FALSE"	"Windows 10"	"60.72"	n/a	n/a	n/a	n/a	n/a	n/a	"fixation"	n/a	n/a	n/a	n/a	"NULL"	"NULL"	"NULL"	n/a	"<p style=\"color: black; font-size: 80px; padding-left: 12%; padding-right: 6%; padding-top: 25%; padding-bottom: 40%\">+</p>"	n/a	"1408"	n/a	n/a	n/a	n/a	n/a	n/a	n/a	n/a	n/a
n/a	"image-keyboard-response"	"13"	"37902"	"0.0-3.0-1.0-2.0-1.3"	"00fl9o"	"600"	"1366"	"chrome"	"108.0.0"	"FALSE"	"Windows 10"	"60.72"	n/a	n/a	n/a	n/a	n/a	n/a	"Trial"	n/a	n/a	n/a	n/a	"NULL"	"NULL"	"NULL"	"449"	"stimuli/Ebbinghaus_1000000_1.40000.png"	"arrowleft"	n/a	"Ebbinghaus"	"arrowleft"	"1418"	"TRUE"	"Ebbinghaus"	"100000000000"	"1.4000000000"	"1"	"4"
n/a	"html-keyboard-response"	"14"	"39129"	"0.0-3.0-1.0-2.0-0.4"	"00fl9o"	"600"	"1366"	"chrome"	"108.0.0"	"FALSE"	"Windows 10"	"60.72"	n/a	n/a	n/a	n/a	n/a	n/a	"fixation"	n/a	n/a	n/a	n/a	"NULL"	"NULL"	"NULL"	n/a	"<p style=\"color: black; font-size: 80px; padding-left: 33%; padding-right: 40%; padding-top: 11%; padding-bottom: 4%\">+</p>"	n/a	"1217"	n/a	n/a	n/a	n/a	n/a	n/a	n/a	n/a	n/a
n/a	"image-keyboard-response"	"15"	"39632"	"0.0-3.0-1.0-2.0-1.4"	"00fl9o"	"600"	"1366"	"chrome"	"108.0.0"	"FALSE"	"Windows 10"	"60.72"	n/a	n/a	n/a	n/a	n/a	n/a	"Trial"	n/a	n/a	n/a	n/a	"NULL"	"NULL"	"NULL"	"502"	"stimuli/Ebbinghaus_0000000_1.40000.png"	"arrowleft"	n/a	"Ebbinghaus"	"arrowleft"	"1227"	"TRUE"	"Ebbinghaus"	"000000000000"	"1.4000000000"	"1"	"5"
n/a	"html-keyboard-response"	"16"	"40790"	"0.0-3.0-1.0-2.0-0.5"	"00fl9o"	"600"	"1366"	"chrome"	"108.0.0"	"FALSE"	"Windows 10"	"60.72"	n/a	n/a	n/a	n/a	n/a	n/a	"fixation"	n/a	n/a	n/a	n/a	"NULL"	"NULL"	"NULL"	n/a	"<p style=\"color: black; font-size: 80px; padding-left: 23%; padding-right: 42%; padding-top: 37%; padding-bottom: 26%\">+</p>"	n/a	"1145"	n/a	n/a	n/a	n/a	n/a	n/a	n/a	n/a	n/a
n/a	"image-keyboard-response"	"17"	"41118"	"0.0-3.0-1.0-2.0-1.5"	"00fl9o"	"600"	"1366"	"chrome"	"108.0.0"	"FALSE"	"Windows 10"	"60.72"	n/a	n/a	n/a	n/a	n/a	n/a	"Trial"	n/a	n/a	n/a	n/a	"NULL"	"NULL"	"NULL"	"327"	"stimuli/Ebbinghaus_1000000_-1.4000.png"	"arrowright"	n/a	"Ebbinghaus"	"arrowright"	"1158"	"TRUE"	"Ebbinghaus"	"100000000000"	"-1.400000000"	"1"	"6"
n/a	"html-button-response"	"18"	"43880"	"0.0-3.0-1.0-3.0"	"00fl9o"	"600"	"1366"	"chrome"	"108.0.0"	"FALSE"	"Windows 10"	"60.72"	n/a	n/a	n/a	n/a	n/a	n/a	"practice_block_results"	n/a	n/a	n/a	n/a	"NULL"	"NULL"	"NULL"	"2761"	"<p style='color:rgb(76,175,80);'> Correct Responses: <b>100.00%</b></p><hr><p style='color:rgb(233,30,99);'> Average Response Time: <b>552.83</b> ms.</p>"	"0"	n/a	n/a	n/a	n/a	n/a	n/a	n/a	n/a	n/a	n/a
"TRUE"	"preload"	"19"	"44400"	"0.0-3.0-2.0-0.0"	"00fl9o"	"600"	"1366"	"chrome"	"108.0.0"	"FALSE"	"Windows 10"	"60.72"	n/a	n/a	n/a	n/a	n/a	n/a	n/a	n/a	n/a	n/a	"FALSE"	"list()"	"list()"	"list()"	n/a	n/a	n/a	n/a	n/a	n/a	n/a	n/a	n/a	n/a	n/a	n/a	n/a
n/a	"html-keyboard-response"	"20"	"53598"	"0.0-3.0-2.0-1.0"	"00fl9o"	"600"	"1366"	"chrome"	"108.0.0"	"FALSE"	"Windows 10"	"60.72"	n/a	n/a	n/a	n/a	n/a	n/a	n/a	n/a	n/a	n/a	n/a	"NULL"	"NULL"	"NULL"	"9198"	"<p><b>Practice</b></p><p>In this part, two horizontal red lines will appear one above the other.</p><p>Your task is to select which <b>line is longer</b> in length as fast as you can, without making errors.</p><p>Don't get distracted by the surrounding black arrows at the end of the red lines!</p><p>Press <b>the UP or the DOWN arrow</b> to indicate where is the longer <b>red line.</b></p><div style='float: center'><img src='materials/instructions/MullerLyer_Demo.png' height='300'></img><p><img src='utils/answer/answer_updown_keyboard.PNG' height='150'></img></p><p class='small'>In this example, the correct answer is the <b>UP arrow</b>.</p></div><p>Are you ready? <b>Press ENTER to start</b></p>"	"enter"	n/a	n/a	n/a	n/a	n/a	n/a	n/a	n/a	n/a	n/a
n/a	"html-keyboard-response"	"21"	"55501"	"0.0-3.0-2.0-2.0-0.0"	"00fl9o"	"600"	"1366"	"chrome"	"108.0.0"	"FALSE"	"Windows 10"	"60.72"	n/a	n/a	n/a	n/a	n/a	n/a	"fixation"	n/a	n/a	n/a	n/a	"NULL"	"NULL"	"NULL"	n/a	"<p style=\"color: black; font-size: 80px; padding-left: 8%; padding-right: 41%; padding-top: 18%; padding-bottom: 28%\">+</p>"	n/a	"1388"	n/a	n/a	n/a	n/a	n/a	n/a	n/a	n/a	n/a
n/a	"image-keyboard-response"	"22"	"56016"	"0.0-3.0-2.0-2.0-1.0"	"00fl9o"	"600"	"1366"	"chrome"	"108.0.0"	"FALSE"	"Windows 10"	"60.72"	n/a	n/a	n/a	n/a	n/a	n/a	"Trial"	n/a	n/a	n/a	n/a	"NULL"	"NULL"	"NULL"	"514"	"stimuli/MullerLyer_0000000_0.70000.png"	"arrowup"	n/a	"MullerLyer"	"arrowup"	"1903"	"TRUE"	"MullerLyer"	"000000000000"	"0.7000000000"	"1"	"7"
n/a	"html-keyboard-response"	"23"	"57106"	"0.0-3.0-2.0-2.0-0.1"	"00fl9o"	"600"	"1366"	"chrome"	"108.0.0"	"FALSE"	"Windows 10"	"60.72"	n/a	n/a	n/a	n/a	n/a	n/a	"fixation"	n/a	n/a	n/a	n/a	"NULL"	"NULL"	"NULL"	n/a	"<p style=\"color: black; font-size: 80px; padding-left: 49%; padding-right: 25%; padding-top: 3%; padding-bottom: 37%\">+</p>"	n/a	"1074"	n/a	n/a	n/a	n/a	n/a	n/a	n/a	n/a	n/a
n/a	"image-keyboard-response"	"24"	"57471"	"0.0-3.0-2.0-2.0-1.1"	"00fl9o"	"600"	"1366"	"chrome"	"108.0.0"	"FALSE"	"Windows 10"	"60.72"	n/a	n/a	n/a	n/a	n/a	n/a	"Trial"	n/a	n/a	n/a	n/a	"NULL"	"NULL"	"NULL"	"364"	"stimuli/MullerLyer_0000000_-0.7000.png"	"arrowdown"	n/a	"MullerLyer"	"arrowdown"	"1090"	"TRUE"	"MullerLyer"	"000000000000"	"-0.700000000"	"1"	"8"
n/a	"html-keyboard-response"	"25"	"58812"	"0.0-3.0-2.0-2.0-0.2"	"00fl9o"	"600"	"1366"	"chrome"	"108.0.0"	"FALSE"	"Windows 10"	"60.72"	n/a	n/a	n/a	n/a	n/a	n/a	"fixation"	n/a	n/a	n/a	n/a	"NULL"	"NULL"	"NULL"	n/a	"<p style=\"color: black; font-size: 80px; padding-left: 30%; padding-right: 14%; padding-top: 37%; padding-bottom: 33%\">+</p>"	n/a	"1333"	n/a	n/a	n/a	n/a	n/a	n/a	n/a	n/a	n/a
n/a	"image-keyboard-response"	"26"	"59466"	"0.0-3.0-2.0-2.0-1.2"	"00fl9o"	"600"	"1366"	"chrome"	"108.0.0"	"FALSE"	"Windows 10"	"60.72"	n/a	n/a	n/a	n/a	n/a	n/a	"Trial"	n/a	n/a	n/a	n/a	"NULL"	"NULL"	"NULL"	"653"	"stimuli/MullerLyer_2300000_-0.7000.png"	"arrowdown"	n/a	"MullerLyer"	"arrowdown"	"1341"	"TRUE"	"MullerLyer"	"230000000000"	"-0.700000000"	"1"	"9"
n/a	"html-keyboard-response"	"27"	"60776"	"0.0-3.0-2.0-2.0-0.3"	"00fl9o"	"600"	"1366"	"chrome"	"108.0.0"	"FALSE"	"Windows 10"	"60.72"	n/a	n/a	n/a	n/a	n/a	n/a	"fixation"	n/a	n/a	n/a	n/a	"NULL"	"NULL"	"NULL"	n/a	"<p style=\"color: black; font-size: 80px; padding-left: 3%; padding-right: 40%; padding-top: 43%; padding-bottom: 37%\">+</p>"	n/a	"1304"	n/a	n/a	n/a	n/a	n/a	n/a	n/a	n/a	n/a
n/a	"image-keyboard-response"	"28"	"61179"	"0.0-3.0-2.0-2.0-1.3"	"00fl9o"	"600"	"1366"	"chrome"	"108.0.0"	"FALSE"	"Windows 10"	"60.72"	n/a	n/a	n/a	n/a	n/a	n/a	"Trial"	n/a	n/a	n/a	n/a	"NULL"	"NULL"	"NULL"	"402"	"stimuli/MullerLyer_2300000_0.70000.png"	"arrowup"	n/a	"MullerLyer"	"arrowup"	"1310"	"TRUE"	"MullerLyer"	"230000000000"	"0.7000000000"	"1"	"10"
n/a	"html-keyboard-response"	"29"	"62393"	"0.0-3.0-2.0-2.0-0.4"	"00fl9o"	"600"	"1366"	"chrome"	"108.0.0"	"FALSE"	"Windows 10"	"60.72"	n/a	n/a	n/a	n/a	n/a	n/a	"fixation"	n/a	n/a	n/a	n/a	"NULL"	"NULL"	"NULL"	n/a	"<p style=\"color: black; font-size: 80px; padding-left: 26%; padding-right: 45%; padding-top: 32%; padding-bottom: 34%\">+</p>"	n/a	"1197"	n/a	n/a	n/a	n/a	n/a	n/a	n/a	n/a	n/a
n/a	"image-keyboard-response"	"30"	"62824"	"0.0-3.0-2.0-2.0-1.4"	"00fl9o"	"600"	"1366"	"chrome"	"108.0.0"	"FALSE"	"Windows 10"	"60.72"	n/a	n/a	n/a	n/a	n/a	n/a	"Trial"	n/a	n/a	n/a	n/a	"NULL"	"NULL"	"NULL"	"430"	"stimuli/MullerLyer_-230000_0.70000.png"	"arrowup"	n/a	"MullerLyer"	"arrowup"	"1214"	"TRUE"	"MullerLyer"	"-23000000000"	"0.7000000000"	"1"	"11"
n/a	"html-keyboard-response"	"31"	"63966"	"0.0-3.0-2.0-2.0-0.5"	"00fl9o"	"600"	"1366"	"chrome"	"108.0.0"	"FALSE"	"Windows 10"	"60.72"	n/a	n/a	n/a	n/a	n/a	n/a	"fixation"	n/a	n/a	n/a	n/a	"NULL"	"NULL"	"NULL"	n/a	"<p style=\"color: black; font-size: 80px; padding-left: 7%; padding-right: 50%; padding-top: 11%; padding-bottom: 41%\">+</p>"	n/a	"1125"	n/a	n/a	n/a	n/a	n/a	n/a	n/a	n/a	n/a
n/a	"image-keyboard-response"	"32"	"64348"	"0.0-3.0-2.0-2.0-1.5"	"00fl9o"	"600"	"1366"	"chrome"	"108.0.0"	"FALSE"	"Windows 10"	"60.72"	n/a	n/a	n/a	n/a	n/a	n/a	"Trial"	n/a	n/a	n/a	n/a	"NULL"	"NULL"	"NULL"	"381"	"stimuli/MullerLyer_-230000_-0.7000.png"	"arrowdown"	n/a	"MullerLyer"	"arrowdown"	"1142"	"TRUE"	"MullerLyer"	"-23000000000"	"-0.700000000"	"1"	"12"
n/a	"html-button-response"	"33"	"66472"	"0.0-3.0-2.0-3.0"	"00fl9o"	"600"	"1366"	"chrome"	"108.0.0"	"FALSE"	"Windows 10"	"60.72"	n/a	n/a	n/a	n/a	n/a	n/a	"practice_block_results"	n/a	n/a	n/a	n/a	"NULL"	"NULL"	"NULL"	"2122"	"<p style='color:rgb(76,175,80);'> Correct Responses: <b>100.00%</b></p><hr><p style='color:rgb(233,30,99);'> Average Response Time: <b>457.33</b> ms.</p>"	"0"	n/a	n/a	n/a	n/a	n/a	n/a	n/a	n/a	n/a	n/a
"TRUE"	"preload"	"34"	"67016"	"0.0-3.0-3.0-0.0"	"00fl9o"	"600"	"1366"	"chrome"	"108.0.0"	"FALSE"	"Windows 10"	"60.72"	n/a	n/a	n/a	n/a	n/a	n/a	n/a	n/a	n/a	n/a	"FALSE"	"list()"	"list()"	"list()"	n/a	n/a	n/a	n/a	n/a	n/a	n/a	n/a	n/a	n/a	n/a	n/a	n/a
n/a	"html-keyboard-response"	"35"	"75246"	"0.0-3.0-3.0-1.0"	"00fl9o"	"600"	"1366"	"chrome"	"108.0.0"	"FALSE"	"Windows 10"	"60.72"	n/a	n/a	n/a	n/a	n/a	n/a	n/a	n/a	n/a	n/a	n/a	"NULL"	"NULL"	"NULL"	"8229"	"<p><b>Practice</b></p><p>In this part, two red lines will appear side by side.</p><p>Your task is to tell <b>which line is longer</b> in length, regardless of their orientation, as fast as you can, and without making errors.</p><p>Don't get distracted by the orientation of the lines!</p><p>Press <b>the LEFT or the RIGHT arrow</b> to indicate which <b>line is the longer one.</b></p><div style='float: center'><img src='materials/instructions/VerticalHorizontal_Demo.png' height='300'></img><p><img src='utils/answer/answer_leftright_keyboard.PNG' height='150'></img></p><p class='small'>In this example, the correct answer is the <b>LEFT arrow</b>.</p></div><p>Are you ready? <b>Press ENTER to start</b></p>"	"enter"	n/a	n/a	n/a	n/a	n/a	n/a	n/a	n/a	n/a	n/a
n/a	"html-keyboard-response"	"36"	"76801"	"0.0-3.0-3.0-2.0-0.0"	"00fl9o"	"600"	"1366"	"chrome"	"108.0.0"	"FALSE"	"Windows 10"	"60.72"	n/a	n/a	n/a	n/a	n/a	n/a	"fixation"	n/a	n/a	n/a	n/a	"NULL"	"NULL"	"NULL"	n/a	"<p style=\"color: black; font-size: 80px; padding-left: 42%; padding-right: 19%; padding-top: 45%; padding-bottom: 21%\">+</p>"	n/a	"1038"	n/a	n/a	n/a	n/a	n/a	n/a	n/a	n/a	n/a
n/a	"image-keyboard-response"	"37"	"77382"	"0.0-3.0-3.0-2.0-1.0"	"00fl9o"	"600"	"1366"	"chrome"	"108.0.0"	"FALSE"	"Windows 10"	"60.72"	n/a	n/a	n/a	n/a	n/a	n/a	"Trial"	n/a	n/a	n/a	n/a	"NULL"	"NULL"	"NULL"	"580"	"stimuli/VerticalHorizontal_3300000_-0.9000.png"	"arrowright"	n/a	"VerticalHorizontal"	"arrowright"	"1555"	"TRUE"	"VerticalHorizontal"	"330000000000"	"-0.900000000"	"1"	"13"
n/a	"html-keyboard-response"	"38"	"78592"	"0.0-3.0-3.0-2.0-0.1"	"00fl9o"	"600"	"1366"	"chrome"	"108.0.0"	"FALSE"	"Windows 10"	"60.72"	n/a	n/a	n/a	n/a	n/a	n/a	"fixation"	n/a	n/a	n/a	n/a	"NULL"	"NULL"	"NULL"	n/a	"<p style=\"color: black; font-size: 80px; padding-left: 26%; padding-right: 30%; padding-top: 3%; padding-bottom: 8%\">+</p>"	n/a	"1196"	n/a	n/a	n/a	n/a	n/a	n/a	n/a	n/a	n/a
n/a	"image-keyboard-response"	"39"	"78907"	"0.0-3.0-3.0-2.0-1.1"	"00fl9o"	"600"	"1366"	"chrome"	"108.0.0"	"FALSE"	"Windows 10"	"60.72"	n/a	n/a	n/a	n/a	n/a	n/a	"Trial"	n/a	n/a	n/a	n/a	"NULL"	"NULL"	"NULL"	"314"	"stimuli/VerticalHorizontal_-330000_0.90000.png"	"arrowleft"	n/a	"VerticalHorizontal"	"arrowleft"	"1210"	"TRUE"	"VerticalHorizontal"	"-33000000000"	"0.9000000000"	"1"	"14"
n/a	"html-keyboard-response"	"40"	"80284"	"0.0-3.0-3.0-2.0-0.2"	"00fl9o"	"600"	"1366"	"chrome"	"108.0.0"	"FALSE"	"Windows 10"	"60.72"	n/a	n/a	n/a	n/a	n/a	n/a	"fixation"	n/a	n/a	n/a	n/a	"NULL"	"NULL"	"NULL"	n/a	"<p style=\"color: black; font-size: 80px; padding-left: 11%; padding-right: 12%; padding-top: 10%; padding-bottom: 7%\">+</p>"	n/a	"1361"	n/a	n/a	n/a	n/a	n/a	n/a	n/a	n/a	n/a
n/a	"image-keyboard-response"	"41"	"80597"	"0.0-3.0-3.0-2.0-1.2"	"00fl9o"	"600"	"1366"	"chrome"	"108.0.0"	"FALSE"	"Windows 10"	"60.72"	n/a	n/a	n/a	n/a	n/a	n/a	"Trial"	n/a	n/a	n/a	n/a	"NULL"	"NULL"	"NULL"	"311"	"stimuli/VerticalHorizontal_-330000_-0.9000.png"	"arrowright"	n/a	"VerticalHorizontal"	"arrowright"	"1377"	"TRUE"	"VerticalHorizontal"	"-33000000000"	"-0.900000000"	"1"	"15"
n/a	"html-keyboard-response"	"42"	"81827"	"0.0-3.0-3.0-2.0-0.3"	"00fl9o"	"600"	"1366"	"chrome"	"108.0.0"	"FALSE"	"Windows 10"	"60.72"	n/a	n/a	n/a	n/a	n/a	n/a	"fixation"	n/a	n/a	n/a	n/a	"NULL"	"NULL"	"NULL"	n/a	"<p style=\"color: black; font-size: 80px; padding-left: 38%; padding-right: 30%; padding-top: 39%; padding-bottom: 10%\">+</p>"	n/a	"1216"	n/a	n/a	n/a	n/a	n/a	n/a	n/a	n/a	n/a
n/a	"image-keyboard-response"	"43"	"82143"	"0.0-3.0-3.0-2.0-1.3"	"00fl9o"	"600"	"1366"	"chrome"	"108.0.0"	"FALSE"	"Windows 10"	"60.72"	n/a	n/a	n/a	n/a	n/a	n/a	"Trial"	n/a	n/a	n/a	n/a	"NULL"	"NULL"	"NULL"	"315"	"stimuli/VerticalHorizontal_3300000_0.90000.png"	"arrowleft"	n/a	"VerticalHorizontal"	"arrowleft"	"1230"	"TRUE"	"VerticalHorizontal"	"330000000000"	"0.9000000000"	"1"	"16"
n/a	"html-keyboard-response"	"44"	"83529"	"0.0-3.0-3.0-2.0-0.4"	"00fl9o"	"600"	"1366"	"chrome"	"108.0.0"	"FALSE"	"Windows 10"	"60.72"	n/a	n/a	n/a	n/a	n/a	n/a	"fixation"	n/a	n/a	n/a	n/a	"NULL"	"NULL"	"NULL"	n/a	"<p style=\"color: black; font-size: 80px; padding-left: 14%; padding-right: 41%; padding-top: 43%; padding-bottom: 34%\">+</p>"	n/a	"1371"	n/a	n/a	n/a	n/a	n/a	n/a	n/a	n/a	n/a
n/a	"image-keyboard-response"	"45"	"83784"	"0.0-3.0-3.0-2.0-1.4"	"00fl9o"	"600"	"1366"	"chrome"	"108.0.0"	"FALSE"	"Windows 10"	"60.72"	n/a	n/a	n/a	n/a	n/a	n/a	"Trial"	n/a	n/a	n/a	n/a	"NULL"	"NULL"	"NULL"	"253"	"stimuli/VerticalHorizontal_0000000_-0.9000.png"	"arrowright"	n/a	"VerticalHorizontal"	"arrowright"	"1386"	"TRUE"	"VerticalHorizontal"	"000000000000"	"-0.900000000"	"1"	"17"
n/a	"html-keyboard-response"	"46"	"85078"	"0.0-3.0-3.0-2.0-0.5"	"00fl9o"	"600"	"1366"	"chrome"	"108.0.0"	"FALSE"	"Windows 10"	"60.72"	n/a	n/a	n/a	n/a	n/a	n/a	"fixation"	n/a	n/a	n/a	n/a	"NULL"	"NULL"	"NULL"	n/a	"<p style=\"color: black; font-size: 80px; padding-left: 27%; padding-right: 30%; padding-top: 7%; padding-bottom: 24%\">+</p>"	n/a	"1277"	n/a	n/a	n/a	n/a	n/a	n/a	n/a	n/a	n/a
n/a	"image-keyboard-response"	"47"	"85374"	"0.0-3.0-3.0-2.0-1.5"	"00fl9o"	"600"	"1366"	"chrome"	"108.0.0"	"FALSE"	"Windows 10"	"60.72"	n/a	n/a	n/a	n/a	n/a	n/a	"Trial"	n/a	n/a	n/a	n/a	"NULL"	"NULL"	"NULL"	"296"	"stimuli/VerticalHorizontal_0000000_0.90000.png"	"arrowleft"	n/a	"VerticalHorizontal"	"arrowleft"	"1294"	"TRUE"	"VerticalHorizontal"	"000000000000"	"0.9000000000"	"1"	"18"
n/a	"html-button-response"	"48"	"87608"	"0.0-3.0-3.0-3.0"	"00fl9o"	"600"	"1366"	"chrome"	"108.0.0"	"FALSE"	"Windows 10"	"60.72"	n/a	n/a	n/a	n/a	n/a	n/a	"practice_block_results"	n/a	n/a	n/a	n/a	"NULL"	"NULL"	"NULL"	"2232"	"<p style='color:rgb(76,175,80);'> Correct Responses: <b>100.00%</b></p><hr><p style='color:rgb(233,30,99);'> Average Response Time: <b>344.83</b> ms.</p>"	"0"	n/a	n/a	n/a	n/a	n/a	n/a	n/a	n/a	n/a	n/a
n/a	"html-button-response"	"49"	"131816"	"0.0-3.0-4.0"	"00fl9o"	"600"	"1366"	"chrome"	"108.0.0"	"FALSE"	"Windows 10"	"60.72"	n/a	n/a	n/a	n/a	n/a	n/a	"practice_debrief"	n/a	n/a	n/a	n/a	"NULL"	"NULL"	"NULL"	"43705"	"<p><b>TRAINING COMPLETED</b></p><p>In the next phase, there will be more trials, and some might be harder too.<br> Moreover, after each illusion block, a <b>score</b> will be calculated based on speed (time you took to answer) and accuracy (number of errors).</p><p>Try to keep up a high score!</p><br><p>Note that it can be <i>really</i> challenging at times, so you will need to rely on your <b>intuition</b> and gut feeling to answer as fast as you can without making errors.</p><p>Each illusion block will be repeated two times (so that you have the opportunity to improve your score), but the order of the blocks is random.</p><p>Remember, your goal is to be as <b>fast</b> and <b>accurate</b> as possible. Good luck!</p><br>"	"0"	n/a	n/a	n/a	n/a	n/a	n/a	n/a	n/a	n/a	n/a
"TRUE"	"preload"	"50"	"131971"	"0.0-4.0-0.0"	"00fl9o"	"600"	"1366"	"chrome"	"108.0.0"	"FALSE"	"Windows 10"	"60.72"	n/a	n/a	n/a	n/a	n/a	n/a	n/a	n/a	n/a	n/a	"FALSE"	"list()"	"list()"	"list()"	n/a	n/a	n/a	n/a	n/a	n/a	n/a	n/a	n/a	n/a	n/a	n/a	n/a
n/a	"html-keyboard-response"	"51"	"151220"	"0.0-4.0-1.0"	"00fl9o"	"600"	"1366"	"chrome"	"108.0.0"	"FALSE"	"Windows 10"	"60.72"	n/a	n/a	n/a	n/a	n/a	n/a	n/a	n/a	n/a	n/a	n/a	"NULL"	"NULL"	"NULL"	"19248"	"<p><b>Part 1/6</b></p><p>In this part, two red circles will appear side by side on the screen.</p><p>Your task is to select which <b>red circle is bigger</b> in size as fast as you can, without making errors.</p><p>Don't get distracted by the surrounding black circles around the red circles!</p><p>Press <b>the LEFT or the RIGHT arrow</b> to indicate which is the bigger <b>red circle.</b></p><div style='float: center'><img src='materials/instructions/Ebbinghaus_Demo.png' height='300'></img><p><img src='utils/answer/answer_leftright_keyboard.PNG' height='150'></img></p><p class='small'>In this example, the correct answer is the <b>LEFT arrow</b>.</p></div><p>Are you ready? <b>Press ENTER to start</b></p>"	"enter"	n/a	n/a	n/a	n/a	n/a	n/a	n/a	n/a	n/a	n/a
n/a	"html-keyboard-response"	"52"	"152864"	"0.0-4.0-2.0-0.0"	"00fl9o"	"600"	"1366"	"chrome"	"108.0.0"	"FALSE"	"Windows 10"	"60.72"	n/a	n/a	n/a	n/a	n/a	n/a	"fixation"	n/a	n/a	n/a	n/a	"NULL"	"NULL"	"NULL"	n/a	"<p style=\"color: black; font-size: 80px; padding-left: 16%; padding-right: 21%; padding-top: 13%; padding-bottom: 17%\">+</p>"	n/a	"1124"	n/a	n/a	n/a	n/a	n/a	n/a	n/a	n/a	n/a
n/a	"image-keyboard-response"	"53"	"153283"	"0.0-4.0-2.0-1.0"	"00fl9o"	"600"	"1366"	"chrome"	"108.0.0"	"FALSE"	"Windows 10"	"60.72"	n/a	n/a	n/a	n/a	n/a	n/a	"Trial"	n/a	n/a	n/a	n/a	"NULL"	"NULL"	"NULL"	"417"	"stimuli/Ebbinghaus_0.35714_-0.2800.png"	"arrowright"	n/a	"Ebbinghaus"	"arrowright"	"1644"	"TRUE"	"Ebbinghaus"	"0.3571400000"	"-0.280000000"	"1"	"19"
n/a	"html-keyboard-response"	"54"	"154670"	"0.0-4.0-2.0-0.1"	"00fl9o"	"600"	"1366"	"chrome"	"108.0.0"	"FALSE"	"Windows 10"	"60.72"	n/a	n/a	n/a	n/a	n/a	n/a	"fixation"	n/a	n/a	n/a	n/a	"NULL"	"NULL"	"NULL"	n/a	"<p style=\"color: black; font-size: 80px; padding-left: 22%; padding-right: 14%; padding-top: 7%; padding-bottom: 36%\">+</p>"	n/a	"1372"	n/a	n/a	n/a	n/a	n/a	n/a	n/a	n/a	n/a
n/a	"image-keyboard-response"	"55"	"155061"	"0.0-4.0-2.0-1.1"	"00fl9o"	"600"	"1366"	"chrome"	"108.0.0"	"FALSE"	"Windows 10"	"60.72"	n/a	n/a	n/a	n/a	n/a	n/a	"Trial"	n/a	n/a	n/a	n/a	"NULL"	"NULL"	"NULL"	"389"	"stimuli/Ebbinghaus_0.10000_-0.2800.png"	"arrowright"	n/a	"Ebbinghaus"	"arrowright"	"1387"	"TRUE"	"Ebbinghaus"	"0.1000000000"	"-0.280000000"	"1"	"20"
n/a	"html-keyboard-response"	"56"	"156356"	"0.0-4.0-2.0-0.2"	"00fl9o"	"600"	"1366"	"chrome"	"108.0.0"	"FALSE"	"Windows 10"	"60.72"	n/a	n/a	n/a	n/a	n/a	n/a	"fixation"	n/a	n/a	n/a	n/a	"NULL"	"NULL"	"NULL"	n/a	"<p style=\"color: black; font-size: 80px; padding-left: 34%; padding-right: 22%; padding-top: 41%; padding-bottom: 1%\">+</p>"	n/a	"1287"	n/a	n/a	n/a	n/a	n/a	n/a	n/a	n/a	n/a
n/a	"image-keyboard-response"	"57"	"156634"	"0.0-4.0-2.0-1.2"	"00fl9o"	"600"	"1366"	"chrome"	"108.0.0"	"FALSE"	"Windows 10"	"60.72"	n/a	n/a	n/a	n/a	n/a	n/a	"Trial"	n/a	n/a	n/a	n/a	"NULL"	"NULL"	"NULL"	"277"	"stimuli/Ebbinghaus_0.61429_-0.15857.png"	"arrowleft"	n/a	"Ebbinghaus"	"arrowright"	"1295"	"FALSE"	"Ebbinghaus"	"0.6142900000"	"-0.158570000"	"1"	"21"
n/a	"html-keyboard-response"	"58"	"158072"	"0.0-4.0-2.0-0.3"	"00fl9o"	"600"	"1366"	"chrome"	"108.0.0"	"FALSE"	"Windows 10"	"60.72"	n/a	n/a	n/a	n/a	n/a	n/a	"fixation"	n/a	n/a	n/a	n/a	"NULL"	"NULL"	"NULL"	n/a	"<p style=\"color: black; font-size: 80px; padding-left: 35%; padding-right: 12%; padding-top: 10%; padding-bottom: 4%\">+</p>"	n/a	"1428"	n/a	n/a	n/a	n/a	n/a	n/a	n/a	n/a	n/a
n/a	"image-keyboard-response"	"59"	"158470"	"0.0-4.0-2.0-1.3"	"00fl9o"	"600"	"1366"	"chrome"	"108.0.0"	"FALSE"	"Windows 10"	"60.72"	n/a	n/a	n/a	n/a	n/a	n/a	"Trial"	n/a	n/a	n/a	n/a	"NULL"	"NULL"	"NULL"	"397"	"stimuli/Ebbinghaus_0.10000_-0.2150.png"	"arrowright"	n/a	"Ebbinghaus"	"arrowright"	"1438"	"TRUE"	"Ebbinghaus"	"0.1000000000"	"-0.215000000"	"1"	"22"
n/a	"html-keyboard-response"	"60"	"159579"	"0.0-4.0-2.0-0.4"	"00fl9o"	"600"	"1366"	"chrome"	"108.0.0"	"FALSE"	"Windows 10"	"60.72"	n/a	n/a	n/a	n/a	n/a	n/a	"fixation"	n/a	n/a	n/a	n/a	"NULL"	"NULL"	"NULL"	n/a	"<p style=\"color: black; font-size: 80px; padding-left: 47%; padding-right: 18%; padding-top: 49%; padding-bottom: 9%\">+</p>"	n/a	"1097"	n/a	n/a	n/a	n/a	n/a	n/a	n/a	n/a	n/a
n/a	"image-keyboard-response"	"61"	"160053"	"0.0-4.0-2.0-1.4"	"00fl9o"	"600"	"1366"	"chrome"	"108.0.0"	"FALSE"	"Windows 10"	"60.72"	n/a	n/a	n/a	n/a	n/a	n/a	"Trial"	n/a	n/a	n/a	n/a	"NULL"	"NULL"	"NULL"	"472"	"stimuli/Ebbinghaus_-0.1000_0.15857.png"	"arrowleft"	n/a	"Ebbinghaus"	"arrowleft"	"1109"	"TRUE"	"Ebbinghaus"	"-0.100000000"	"0.1585700000"	"1"	"23"
n/a	"html-keyboard-response"	"62"	"161074"	"0.0-4.0-2.0-0.5"	"00fl9o"	"600"	"1366"	"chrome"	"108.0.0"	"FALSE"	"Windows 10"	"60.72"	n/a	n/a	n/a	n/a	n/a	n/a	"fixation"	n/a	n/a	n/a	n/a	"NULL"	"NULL"	"NULL"	n/a	"<p style=\"color: black; font-size: 80px; padding-left: 11%; padding-right: 44%; padding-top: 19%; padding-bottom: 25%\">+</p>"	n/a	"1004"	n/a	n/a	n/a	n/a	n/a	n/a	n/a	n/a	n/a
n/a	"image-keyboard-response"	"63"	"161592"	"0.0-4.0-2.0-1.5"	"00fl9o"	"600"	"1366"	"chrome"	"108.0.0"	"FALSE"	"Windows 10"	"60.72"	n/a	n/a	n/a	n/a	n/a	n/a	"Trial"	n/a	n/a	n/a	n/a	"NULL"	"NULL"	"NULL"	"518"	"stimuli/Ebbinghaus_-0.87143_-0.2800.png"	"arrowright"	n/a	"Ebbinghaus"	"arrowright"	"1021"	"TRUE"	"Ebbinghaus"	"-0.871430000"	"-0.280000000"	"1"	"24"
n/a	"html-keyboard-response"	"64"	"162754"	"0.0-4.0-2.0-0.6"	"00fl9o"	"600"	"1366"	"chrome"	"108.0.0"	"FALSE"	"Windows 10"	"60.72"	n/a	n/a	n/a	n/a	n/a	n/a	"fixation"	n/a	n/a	n/a	n/a	"NULL"	"NULL"	"NULL"	n/a	"<p style=\"color: black; font-size: 80px; padding-left: 43%; padding-right: 15%; padding-top: 21%; padding-bottom: 14%\">+</p>"	n/a	"1153"	n/a	n/a	n/a	n/a	n/a	n/a	n/a	n/a	n/a
n/a	"image-keyboard-response"	"65"	"163148"	"0.0-4.0-2.0-1.6"	"00fl9o"	"600"	"1366"	"chrome"	"108.0.0"	"FALSE"	"Windows 10"	"60.72"	n/a	n/a	n/a	n/a	n/a	n/a	"Trial"	n/a	n/a	n/a	n/a	"NULL"	"NULL"	"NULL"	"388"	"stimuli/Ebbinghaus_0.87143_0.21500.png"	"arrowleft"	n/a	"Ebbinghaus"	"arrowleft"	"1162"	"TRUE"	"Ebbinghaus"	"0.8714300000"	"0.2150000000"	"1"	"25"
n/a	"html-keyboard-response"	"66"	"164294"	"0.0-4.0-2.0-0.7"	"00fl9o"	"600"	"1366"	"chrome"	"108.0.0"	"FALSE"	"Windows 10"	"60.72"	n/a	n/a	n/a	n/a	n/a	n/a	"fixation"	n/a	n/a	n/a	n/a	"NULL"	"NULL"	"NULL"	n/a	"<p style=\"color: black; font-size: 80px; padding-left: 20%; padding-right: 3%; padding-top: 17%; padding-bottom: 41%\">+</p>"	n/a	"1139"	n/a	n/a	n/a	n/a	n/a	n/a	n/a	n/a	n/a
n/a	"image-keyboard-response"	"67"	"164709"	"0.0-4.0-2.0-1.7"	"00fl9o"	"600"	"1366"	"chrome"	"108.0.0"	"FALSE"	"Windows 10"	"60.72"	n/a	n/a	n/a	n/a	n/a	n/a	"Trial"	n/a	n/a	n/a	n/a	"NULL"	"NULL"	"NULL"	"413"	"stimuli/Ebbinghaus_-0.1000_-0.2800.png"	"arrowright"	n/a	"Ebbinghaus"	"arrowright"	"1146"	"TRUE"	"Ebbinghaus"	"-0.100000000"	"-0.280000000"	"1"	"26"
n/a	"html-keyboard-response"	"68"	"165826"	"0.0-4.0-2.0-0.8"	"00fl9o"	"600"	"1366"	"chrome"	"108.0.0"	"FALSE"	"Windows 10"	"60.72"	n/a	n/a	n/a	n/a	n/a	n/a	"fixation"	n/a	n/a	n/a	n/a	"NULL"	"NULL"	"NULL"	n/a	"<p style=\"color: black; font-size: 80px; padding-left: 5%; padding-right: 41%; padding-top: 15%; padding-bottom: 11%\">+</p>"	n/a	"1102"	n/a	n/a	n/a	n/a	n/a	n/a	n/a	n/a	n/a
n/a	"image-keyboard-response"	"69"	"166271"	"0.0-4.0-2.0-1.8"	"00fl9o"	"600"	"1366"	"chrome"	"108.0.0"	"FALSE"	"Windows 10"	"60.72"	n/a	n/a	n/a	n/a	n/a	n/a	"Trial"	n/a	n/a	n/a	n/a	"NULL"	"NULL"	"NULL"	"443"	"stimuli/Ebbinghaus_-0.35714_-0.15857.png"	"arrowright"	n/a	"Ebbinghaus"	"arrowright"	"1117"	"TRUE"	"Ebbinghaus"	"-0.357140000"	"-0.158570000"	"1"	"27"
n/a	"html-keyboard-response"	"70"	"167614"	"0.0-4.0-2.0-0.9"	"00fl9o"	"600"	"1366"	"chrome"	"108.0.0"	"FALSE"	"Windows 10"	"60.72"	n/a	n/a	n/a	n/a	n/a	n/a	"fixation"	n/a	n/a	n/a	n/a	"NULL"	"NULL"	"NULL"	n/a	"<p style=\"color: black; font-size: 80px; padding-left: 31%; padding-right: 9%; padding-top: 11%; padding-bottom: 49%\">+</p>"	n/a	"1338"	n/a	n/a	n/a	n/a	n/a	n/a	n/a	n/a	n/a
n/a	"image-keyboard-response"	"71"	"168092"	"0.0-4.0-2.0-1.9"	"00fl9o"	"600"	"1366"	"chrome"	"108.0.0"	"FALSE"	"Windows 10"	"60.72"	n/a	n/a	n/a	n/a	n/a	n/a	"Trial"	n/a	n/a	n/a	n/a	"NULL"	"NULL"	"NULL"	"477"	"stimuli/Ebbinghaus_-0.61429_-0.11071.png"	"arrowright"	n/a	"Ebbinghaus"	"arrowright"	"1343"	"TRUE"	"Ebbinghaus"	"-0.614290000"	"-0.110710000"	"1"	"28"
n/a	"html-keyboard-response"	"72"	"169440"	"0.0-4.0-2.0-0.10"	"00fl9o"	"600"	"1366"	"chrome"	"108.0.0"	"FALSE"	"Windows 10"	"60.72"	n/a	n/a	n/a	n/a	n/a	n/a	"fixation"	n/a	n/a	n/a	n/a	"NULL"	"NULL"	"NULL"	n/a	"<p style=\"color: black; font-size: 80px; padding-left: 19%; padding-right: 31%; padding-top: 36%; padding-bottom: 46%\">+</p>"	n/a	"1335"	n/a	n/a	n/a	n/a	n/a	n/a	n/a	n/a	n/a
n/a	"image-keyboard-response"	"73"	"169843"	"0.0-4.0-2.0-1.10"	"00fl9o"	"600"	"1366"	"chrome"	"108.0.0"	"FALSE"	"Windows 10"	"60.72"	n/a	n/a	n/a	n/a	n/a	n/a	"Trial"	n/a	n/a	n/a	n/a	"NULL"	"NULL"	"NULL"	"402"	"stimuli/Ebbinghaus_0.87143_0.15857.png"	"arrowright"	n/a	"Ebbinghaus"	"arrowleft"	"1348"	"FALSE"	"Ebbinghaus"	"0.8714300000"	"0.1585700000"	"1"	"29"
n/a	"html-keyboard-response"	"74"	"170969"	"0.0-4.0-2.0-0.11"	"00fl9o"	"600"	"1366"	"chrome"	"108.0.0"	"FALSE"	"Windows 10"	"60.72"	n/a	n/a	n/a	n/a	n/a	n/a	"fixation"	n/a	n/a	n/a	n/a	"NULL"	"NULL"	"NULL"	n/a	"<p style=\"color: black; font-size: 80px; padding-left: 49%; padding-right: 25%; padding-top: 21%; padding-bottom: 37%\">+</p>"	n/a	"1112"	n/a	n/a	n/a	n/a	n/a	n/a	n/a	n/a	n/a
n/a	"image-keyboard-response"	"75"	"171312"	"0.0-4.0-2.0-1.11"	"00fl9o"	"600"	"1366"	"chrome"	"108.0.0"	"FALSE"	"Windows 10"	"60.72"	n/a	n/a	n/a	n/a	n/a	n/a	"Trial"	n/a	n/a	n/a	n/a	"NULL"	"NULL"	"NULL"	"341"	"stimuli/Ebbinghaus_-0.1000_-0.2150.png"	"arrowright"	n/a	"Ebbinghaus"	"arrowright"	"1126"	"TRUE"	"Ebbinghaus"	"-0.100000000"	"-0.215000000"	"1"	"30"
n/a	"html-keyboard-response"	"76"	"172420"	"0.0-4.0-2.0-0.12"	"00fl9o"	"600"	"1366"	"chrome"	"108.0.0"	"FALSE"	"Windows 10"	"60.72"	n/a	n/a	n/a	n/a	n/a	n/a	"fixation"	n/a	n/a	n/a	n/a	"NULL"	"NULL"	"NULL"	n/a	"<p style=\"color: black; font-size: 80px; padding-left: 33%; padding-right: 11%; padding-top: 34%; padding-bottom: 30%\">+</p>"	n/a	"1090"	n/a	n/a	n/a	n/a	n/a	n/a	n/a	n/a	n/a
n/a	"image-keyboard-response"	"77"	"172852"	"0.0-4.0-2.0-1.12"	"00fl9o"	"600"	"1366"	"chrome"	"108.0.0"	"FALSE"	"Windows 10"	"60.72"	n/a	n/a	n/a	n/a	n/a	n/a	"Trial"	n/a	n/a	n/a	n/a	"NULL"	"NULL"	"NULL"	"431"	"stimuli/Ebbinghaus_-0.35714_0.15857.png"	"arrowright"	n/a	"Ebbinghaus"	"arrowleft"	"1108"	"FALSE"	"Ebbinghaus"	"-0.357140000"	"0.1585700000"	"1"	"31"
n/a	"html-keyboard-response"	"78"	"174212"	"0.0-4.0-2.0-0.13"	"00fl9o"	"600"	"1366"	"chrome"	"108.0.0"	"FALSE"	"Windows 10"	"60.72"	n/a	n/a	n/a	n/a	n/a	n/a	"fixation"	n/a	n/a	n/a	n/a	"NULL"	"NULL"	"NULL"	n/a	"<p style=\"color: black; font-size: 80px; padding-left: 11%; padding-right: 44%; padding-top: 48%; padding-bottom: 37%\">+</p>"	n/a	"1351"	n/a	n/a	n/a	n/a	n/a	n/a	n/a	n/a	n/a
n/a	"image-keyboard-response"	"79"	"174656"	"0.0-4.0-2.0-1.13"	"00fl9o"	"600"	"1366"	"chrome"	"108.0.0"	"FALSE"	"Windows 10"	"60.72"	n/a	n/a	n/a	n/a	n/a	n/a	"Trial"	n/a	n/a	n/a	n/a	"NULL"	"NULL"	"NULL"	"443"	"stimuli/Ebbinghaus_-0.87143_0.15857.png"	"arrowright"	n/a	"Ebbinghaus"	"arrowleft"	"1360"	"FALSE"	"Ebbinghaus"	"-0.871430000"	"0.1585700000"	"1"	"32"
n/a	"html-keyboard-response"	"80"	"175815"	"0.0-4.0-2.0-0.14"	"00fl9o"	"600"	"1366"	"chrome"	"108.0.0"	"FALSE"	"Windows 10"	"60.72"	n/a	n/a	n/a	n/a	n/a	n/a	"fixation"	n/a	n/a	n/a	n/a	"NULL"	"NULL"	"NULL"	n/a	"<p style=\"color: black; font-size: 80px; padding-left: 31%; padding-right: 42%; padding-top: 48%; padding-bottom: 1%\">+</p>"	n/a	"1140"	n/a	n/a	n/a	n/a	n/a	n/a	n/a	n/a	n/a
n/a	"image-keyboard-response"	"81"	"176594"	"0.0-4.0-2.0-1.14"	"00fl9o"	"600"	"1366"	"chrome"	"108.0.0"	"FALSE"	"Windows 10"	"60.72"	n/a	n/a	n/a	n/a	n/a	n/a	"Trial"	n/a	n/a	n/a	n/a	"NULL"	"NULL"	"NULL"	"778"	"stimuli/Ebbinghaus_-0.35714_0.21500.png"	"arrowleft"	n/a	"Ebbinghaus"	"arrowleft"	"1159"	"TRUE"	"Ebbinghaus"	"-0.357140000"	"0.2150000000"	"1"	"33"
n/a	"html-keyboard-response"	"82"	"177666"	"0.0-4.0-2.0-0.15"	"00fl9o"	"600"	"1366"	"chrome"	"108.0.0"	"FALSE"	"Windows 10"	"60.72"	n/a	n/a	n/a	n/a	n/a	n/a	"fixation"	n/a	n/a	n/a	n/a	"NULL"	"NULL"	"NULL"	n/a	"<p style=\"color: black; font-size: 80px; padding-left: 18%; padding-right: 6%; padding-top: 29%; padding-bottom: 44%\">+</p>"	n/a	"1065"	n/a	n/a	n/a	n/a	n/a	n/a	n/a	n/a	n/a
n/a	"image-keyboard-response"	"83"	"178168"	"0.0-4.0-2.0-1.15"	"00fl9o"	"600"	"1366"	"chrome"	"108.0.0"	"FALSE"	"Windows 10"	"60.72"	n/a	n/a	n/a	n/a	n/a	n/a	"Trial"	n/a	n/a	n/a	n/a	"NULL"	"NULL"	"NULL"	"500"	"stimuli/Ebbinghaus_0.10000_-0.11071.png"	"arrowright"	n/a	"Ebbinghaus"	"arrowright"	"1072"	"TRUE"	"Ebbinghaus"	"0.1000000000"	"-0.110710000"	"1"	"34"
n/a	"html-keyboard-response"	"84"	"179522"	"0.0-4.0-2.0-0.16"	"00fl9o"	"600"	"1366"	"chrome"	"108.0.0"	"FALSE"	"Windows 10"	"60.72"	n/a	n/a	n/a	n/a	n/a	n/a	"fixation"	n/a	n/a	n/a	n/a	"NULL"	"NULL"	"NULL"	n/a	"<p style=\"color: black; font-size: 80px; padding-left: 0%; padding-right: 8%; padding-top: 38%; padding-bottom: 39%\">+</p>"	n/a	"1338"	n/a	n/a	n/a	n/a	n/a	n/a	n/a	n/a	n/a
n/a	"image-keyboard-response"	"85"	"180061"	"0.0-4.0-2.0-1.16"	"00fl9o"	"600"	"1366"	"chrome"	"108.0.0"	"FALSE"	"Windows 10"	"60.72"	n/a	n/a	n/a	n/a	n/a	n/a	"Trial"	n/a	n/a	n/a	n/a	"NULL"	"NULL"	"NULL"	"537"	"stimuli/Ebbinghaus_0.10000_-0.15857.png"	"arrowright"	n/a	"Ebbinghaus"	"arrowright"	"1354"	"TRUE"	"Ebbinghaus"	"0.1000000000"	"-0.158570000"	"1"	"35"
n/a	"html-keyboard-response"	"86"	"181309"	"0.0-4.0-2.0-0.17"	"00fl9o"	"600"	"1366"	"chrome"	"108.0.0"	"FALSE"	"Windows 10"	"60.72"	n/a	n/a	n/a	n/a	n/a	n/a	"fixation"	n/a	n/a	n/a	n/a	"NULL"	"NULL"	"NULL"	n/a	"<p style=\"color: black; font-size: 80px; padding-left: 23%; padding-right: 48%; padding-top: 24%; padding-bottom: 30%\">+</p>"	n/a	"1232"	n/a	n/a	n/a	n/a	n/a	n/a	n/a	n/a	n/a
n/a	"image-keyboard-response"	"87"	"182214"	"0.0-4.0-2.0-1.17"	"00fl9o"	"600"	"1366"	"chrome"	"108.0.0"	"FALSE"	"Windows 10"	"60.72"	n/a	n/a	n/a	n/a	n/a	n/a	"Trial"	n/a	n/a	n/a	n/a	"NULL"	"NULL"	"NULL"	"903"	"stimuli/Ebbinghaus_0.61429_-0.11071.png"	"arrowright"	n/a	"Ebbinghaus"	"arrowright"	"1248"	"TRUE"	"Ebbinghaus"	"0.6142900000"	"-0.110710000"	"1"	"36"
n/a	"html-keyboard-response"	"88"	"183624"	"0.0-4.0-2.0-0.18"	"00fl9o"	"600"	"1366"	"chrome"	"108.0.0"	"FALSE"	"Windows 10"	"60.72"	n/a	n/a	n/a	n/a	n/a	n/a	"fixation"	n/a	n/a	n/a	n/a	"NULL"	"NULL"	"NULL"	n/a	"<p style=\"color: black; font-size: 80px; padding-left: 13%; padding-right: 14%; padding-top: 34%; padding-bottom: 44%\">+</p>"	n/a	"1404"	n/a	n/a	n/a	n/a	n/a	n/a	n/a	n/a	n/a
n/a	"image-keyboard-response"	"89"	"184290"	"0.0-4.0-2.0-1.18"	"00fl9o"	"600"	"1366"	"chrome"	"108.0.0"	"FALSE"	"Windows 10"	"60.72"	n/a	n/a	n/a	n/a	n/a	n/a	"Trial"	n/a	n/a	n/a	n/a	"NULL"	"NULL"	"NULL"	"665"	"stimuli/Ebbinghaus_-0.61429_0.21500.png"	"arrowleft"	n/a	"Ebbinghaus"	"arrowleft"	"1410"	"TRUE"	"Ebbinghaus"	"-0.614290000"	"0.2150000000"	"1"	"37"
n/a	"html-keyboard-response"	"90"	"185599"	"0.0-4.0-2.0-0.19"	"00fl9o"	"600"	"1366"	"chrome"	"108.0.0"	"FALSE"	"Windows 10"	"60.72"	n/a	n/a	n/a	n/a	n/a	n/a	"fixation"	n/a	n/a	n/a	n/a	"NULL"	"NULL"	"NULL"	n/a	"<p style=\"color: black; font-size: 80px; padding-left: 41%; padding-right: 42%; padding-top: 30%; padding-bottom: 13%\">+</p>"	n/a	"1303"	n/a	n/a	n/a	n/a	n/a	n/a	n/a	n/a	n/a
n/a	"image-keyboard-response"	"91"	"186302"	"0.0-4.0-2.0-1.19"	"00fl9o"	"600"	"1366"	"chrome"	"108.0.0"	"FALSE"	"Windows 10"	"60.72"	n/a	n/a	n/a	n/a	n/a	n/a	"Trial"	n/a	n/a	n/a	n/a	"NULL"	"NULL"	"NULL"	"701"	"stimuli/Ebbinghaus_0.61429_0.28000.png"	"arrowleft"	n/a	"Ebbinghaus"	"arrowleft"	"1309"	"TRUE"	"Ebbinghaus"	"0.6142900000"	"0.2800000000"	"1"	"38"
n/a	"html-keyboard-response"	"92"	"187671"	"0.0-4.0-2.0-0.20"	"00fl9o"	"600"	"1366"	"chrome"	"108.0.0"	"FALSE"	"Windows 10"	"60.72"	n/a	n/a	n/a	n/a	n/a	n/a	"fixation"	n/a	n/a	n/a	n/a	"NULL"	"NULL"	"NULL"	n/a	"<p style=\"color: black; font-size: 80px; padding-left: 7%; padding-right: 5%; padding-top: 49%; padding-bottom: 18%\">+</p>"	n/a	"1351"	n/a	n/a	n/a	n/a	n/a	n/a	n/a	n/a	n/a
n/a	"image-keyboard-response"	"93"	"188213"	"0.0-4.0-2.0-1.20"	"00fl9o"	"600"	"1366"	"chrome"	"108.0.0"	"FALSE"	"Windows 10"	"60.72"	n/a	n/a	n/a	n/a	n/a	n/a	"Trial"	n/a	n/a	n/a	n/a	"NULL"	"NULL"	"NULL"	"541"	"stimuli/Ebbinghaus_0.35714_-0.15857.png"	"arrowright"	n/a	"Ebbinghaus"	"arrowright"	"1369"	"TRUE"	"Ebbinghaus"	"0.3571400000"	"-0.158570000"	"1"	"39"
n/a	"html-keyboard-response"	"94"	"189467"	"0.0-4.0-2.0-0.21"	"00fl9o"	"600"	"1366"	"chrome"	"108.0.0"	"FALSE"	"Windows 10"	"60.72"	n/a	n/a	n/a	n/a	n/a	n/a	"fixation"	n/a	n/a	n/a	n/a	"NULL"	"NULL"	"NULL"	n/a	"<p style=\"color: black; font-size: 80px; padding-left: 45%; padding-right: 33%; padding-top: 31%; padding-bottom: 46%\">+</p>"	n/a	"1241"	n/a	n/a	n/a	n/a	n/a	n/a	n/a	n/a	n/a
n/a	"image-keyboard-response"	"95"	"190176"	"0.0-4.0-2.0-1.21"	"00fl9o"	"600"	"1366"	"chrome"	"108.0.0"	"FALSE"	"Windows 10"	"60.72"	n/a	n/a	n/a	n/a	n/a	n/a	"Trial"	n/a	n/a	n/a	n/a	"NULL"	"NULL"	"NULL"	"708"	"stimuli/Ebbinghaus_0.10000_0.28000.png"	"arrowleft"	n/a	"Ebbinghaus"	"arrowleft"	"1254"	"TRUE"	"Ebbinghaus"	"0.1000000000"	"0.2800000000"	"1"	"40"
n/a	"html-keyboard-response"	"96"	"191289"	"0.0-4.0-2.0-0.22"	"00fl9o"	"600"	"1366"	"chrome"	"108.0.0"	"FALSE"	"Windows 10"	"60.72"	n/a	n/a	n/a	n/a	n/a	n/a	"fixation"	n/a	n/a	n/a	n/a	"NULL"	"NULL"	"NULL"	n/a	"<p style=\"color: black; font-size: 80px; padding-left: 17%; padding-right: 24%; padding-top: 11%; padding-bottom: 45%\">+</p>"	n/a	"1102"	n/a	n/a	n/a	n/a	n/a	n/a	n/a	n/a	n/a
n/a	"image-keyboard-response"	"97"	"191755"	"0.0-4.0-2.0-1.22"	"00fl9o"	"600"	"1366"	"chrome"	"108.0.0"	"FALSE"	"Windows 10"	"60.72"	n/a	n/a	n/a	n/a	n/a	n/a	"Trial"	n/a	n/a	n/a	n/a	"NULL"	"NULL"	"NULL"	"464"	"stimuli/Ebbinghaus_0.87143_-0.15857.png"	"arrowright"	n/a	"Ebbinghaus"	"arrowright"	"1113"	"TRUE"	"Ebbinghaus"	"0.8714300000"	"-0.158570000"	"1"	"41"
n/a	"html-keyboard-response"	"98"	"192843"	"0.0-4.0-2.0-0.23"	"00fl9o"	"600"	"1366"	"chrome"	"108.0.0"	"FALSE"	"Windows 10"	"60.72"	n/a	n/a	n/a	n/a	n/a	n/a	"fixation"	n/a	n/a	n/a	n/a	"NULL"	"NULL"	"NULL"	n/a	"<p style=\"color: black; font-size: 80px; padding-left: 37%; padding-right: 39%; padding-top: 19%; padding-bottom: 24%\">+</p>"	n/a	"1067"	n/a	n/a	n/a	n/a	n/a	n/a	n/a	n/a	n/a
n/a	"image-keyboard-response"	"99"	"193358"	"0.0-4.0-2.0-1.23"	"00fl9o"	"600"	"1366"	"chrome"	"108.0.0"	"FALSE"	"Windows 10"	"60.72"	n/a	n/a	n/a	n/a	n/a	n/a	"Trial"	n/a	n/a	n/a	n/a	"NULL"	"NULL"	"NULL"	"508"	"stimuli/Ebbinghaus_0.35714_0.11071.png"	"arrowleft"	n/a	"Ebbinghaus"	"arrowleft"	"1088"	"TRUE"	"Ebbinghaus"	"0.3571400000"	"0.1107100000"	"1"	"42"
n/a	"html-keyboard-response"	"100"	"194411"	"0.0-4.0-2.0-0.24"	"00fl9o"	"600"	"1366"	"chrome"	"108.0.0"	"FALSE"	"Windows 10"	"60.72"	n/a	n/a	n/a	n/a	n/a	n/a	"fixation"	n/a	n/a	n/a	n/a	"NULL"	"NULL"	"NULL"	n/a	"<p style=\"color: black; font-size: 80px; padding-left: 47%; padding-right: 15%; padding-top: 47%; padding-bottom: 11%\">+</p>"	n/a	"1040"	n/a	n/a	n/a	n/a	n/a	n/a	n/a	n/a	n/a
n/a	"image-keyboard-response"	"101"	"195005"	"0.0-4.0-2.0-1.24"	"00fl9o"	"600"	"1366"	"chrome"	"108.0.0"	"FALSE"	"Windows 10"	"60.72"	n/a	n/a	n/a	n/a	n/a	n/a	"Trial"	n/a	n/a	n/a	n/a	"NULL"	"NULL"	"NULL"	"594"	"stimuli/Ebbinghaus_-0.35714_0.28000.png"	"arrowleft"	n/a	"Ebbinghaus"	"arrowleft"	"1053"	"TRUE"	"Ebbinghaus"	"-0.357140000"	"0.2800000000"	"1"	"43"
n/a	"html-keyboard-response"	"102"	"196437"	"0.0-4.0-2.0-0.25"	"00fl9o"	"600"	"1366"	"chrome"	"108.0.0"	"FALSE"	"Windows 10"	"60.72"	n/a	n/a	n/a	n/a	n/a	n/a	"fixation"	n/a	n/a	n/a	n/a	"NULL"	"NULL"	"NULL"	n/a	"<p style=\"color: black; font-size: 80px; padding-left: 10%; padding-right: 19%; padding-top: 6%; padding-bottom: 42%\">+</p>"	n/a	"1423"	n/a	n/a	n/a	n/a	n/a	n/a	n/a	n/a	n/a
n/a	"image-keyboard-response"	"103"	"197206"	"0.0-4.0-2.0-1.25"	"00fl9o"	"600"	"1366"	"chrome"	"108.0.0"	"FALSE"	"Windows 10"	"60.72"	n/a	n/a	n/a	n/a	n/a	n/a	"Trial"	n/a	n/a	n/a	n/a	"NULL"	"NULL"	"NULL"	"768"	"stimuli/Ebbinghaus_0.61429_0.11071.png"	"arrowright"	n/a	"Ebbinghaus"	"arrowleft"	"1432"	"FALSE"	"Ebbinghaus"	"0.6142900000"	"0.1107100000"	"1"	"44"
n/a	"html-keyboard-response"	"104"	"198599"	"0.0-4.0-2.0-0.26"	"00fl9o"	"600"	"1366"	"chrome"	"108.0.0"	"FALSE"	"Windows 10"	"60.72"	n/a	n/a	n/a	n/a	n/a	n/a	"fixation"	n/a	n/a	n/a	n/a	"NULL"	"NULL"	"NULL"	n/a	"<p style=\"color: black; font-size: 80px; padding-left: 44%; padding-right: 33%; padding-top: 7%; padding-bottom: 27%\">+</p>"	n/a	"1384"	n/a	n/a	n/a	n/a	n/a	n/a	n/a	n/a	n/a
n/a	"image-keyboard-response"	"105"	"199252"	"0.0-4.0-2.0-1.26"	"00fl9o"	"600"	"1366"	"chrome"	"108.0.0"	"FALSE"	"Windows 10"	"60.72"	n/a	n/a	n/a	n/a	n/a	n/a	"Trial"	n/a	n/a	n/a	n/a	"NULL"	"NULL"	"NULL"	"651"	"stimuli/Ebbinghaus_0.87143_0.11071.png"	"arrowright"	n/a	"Ebbinghaus"	"arrowleft"	"1393"	"FALSE"	"Ebbinghaus"	"0.8714300000"	"0.1107100000"	"1"	"45"
n/a	"html-keyboard-response"	"106"	"200498"	"0.0-4.0-2.0-0.27"	"00fl9o"	"600"	"1366"	"chrome"	"108.0.0"	"FALSE"	"Windows 10"	"60.72"	n/a	n/a	n/a	n/a	n/a	n/a	"fixation"	n/a	n/a	n/a	n/a	"NULL"	"NULL"	"NULL"	n/a	"<p style=\"color: black; font-size: 80px; padding-left: 34%; padding-right: 26%; padding-top: 10%; padding-bottom: 21%\">+</p>"	n/a	"1236"	n/a	n/a	n/a	n/a	n/a	n/a	n/a	n/a	n/a
n/a	"image-keyboard-response"	"107"	"201192"	"0.0-4.0-2.0-1.27"	"00fl9o"	"600"	"1366"	"chrome"	"108.0.0"	"FALSE"	"Windows 10"	"60.72"	n/a	n/a	n/a	n/a	n/a	n/a	"Trial"	n/a	n/a	n/a	n/a	"NULL"	"NULL"	"NULL"	"693"	"stimuli/Ebbinghaus_-0.1000_0.21500.png"	"arrowleft"	n/a	"Ebbinghaus"	"arrowleft"	"1246"	"TRUE"	"Ebbinghaus"	"-0.100000000"	"0.2150000000"	"1"	"46"
n/a	"html-keyboard-response"	"108"	"202535"	"0.0-4.0-2.0-0.28"	"00fl9o"	"600"	"1366"	"chrome"	"108.0.0"	"FALSE"	"Windows 10"	"60.72"	n/a	n/a	n/a	n/a	n/a	n/a	"fixation"	n/a	n/a	n/a	n/a	"NULL"	"NULL"	"NULL"	n/a	"<p style=\"color: black; font-size: 80px; padding-left: 11%; padding-right: 15%; padding-top: 31%; padding-bottom: 47%\">+</p>"	n/a	"1339"	n/a	n/a	n/a	n/a	n/a	n/a	n/a	n/a	n/a
n/a	"image-keyboard-response"	"109"	"203028"	"0.0-4.0-2.0-1.28"	"00fl9o"	"600"	"1366"	"chrome"	"108.0.0"	"FALSE"	"Windows 10"	"60.72"	n/a	n/a	n/a	n/a	n/a	n/a	"Trial"	n/a	n/a	n/a	n/a	"NULL"	"NULL"	"NULL"	"492"	"stimuli/Ebbinghaus_0.61429_-0.2150.png"	"arrowright"	n/a	"Ebbinghaus"	"arrowright"	"1343"	"TRUE"	"Ebbinghaus"	"0.6142900000"	"-0.215000000"	"1"	"47"
n/a	"html-keyboard-response"	"110"	"204230"	"0.0-4.0-2.0-0.29"	"00fl9o"	"600"	"1366"	"chrome"	"108.0.0"	"FALSE"	"Windows 10"	"60.72"	n/a	n/a	n/a	n/a	n/a	n/a	"fixation"	n/a	n/a	n/a	n/a	"NULL"	"NULL"	"NULL"	n/a	"<p style=\"color: black; font-size: 80px; padding-left: 36%; padding-right: 43%; padding-top: 13%; padding-bottom: 45%\">+</p>"	n/a	"1196"	n/a	n/a	n/a	n/a	n/a	n/a	n/a	n/a	n/a
n/a	"image-keyboard-response"	"111"	"204743"	"0.0-4.0-2.0-1.29"	"00fl9o"	"600"	"1366"	"chrome"	"108.0.0"	"FALSE"	"Windows 10"	"60.72"	n/a	n/a	n/a	n/a	n/a	n/a	"Trial"	n/a	n/a	n/a	n/a	"NULL"	"NULL"	"NULL"	"512"	"stimuli/Ebbinghaus_-0.87143_-0.11071.png"	"arrowright"	n/a	"Ebbinghaus"	"arrowright"	"1202"	"TRUE"	"Ebbinghaus"	"-0.871430000"	"-0.110710000"	"1"	"48"
n/a	"html-keyboard-response"	"112"	"206065"	"0.0-4.0-2.0-0.30"	"00fl9o"	"600"	"1366"	"chrome"	"108.0.0"	"FALSE"	"Windows 10"	"60.72"	n/a	n/a	n/a	n/a	n/a	n/a	"fixation"	n/a	n/a	n/a	n/a	"NULL"	"NULL"	"NULL"	n/a	"<p style=\"color: black; font-size: 80px; padding-left: 36%; padding-right: 2%; padding-top: 21%; padding-bottom: 49%\">+</p>"	n/a	"1313"	n/a	n/a	n/a	n/a	n/a	n/a	n/a	n/a	n/a
n/a	"image-keyboard-response"	"113"	"206581"	"0.0-4.0-2.0-1.30"	"00fl9o"	"600"	"1366"	"chrome"	"108.0.0"	"FALSE"	"Windows 10"	"60.72"	n/a	n/a	n/a	n/a	n/a	n/a	"Trial"	n/a	n/a	n/a	n/a	"NULL"	"NULL"	"NULL"	"514"	"stimuli/Ebbinghaus_-0.1000_-0.15857.png"	"arrowright"	n/a	"Ebbinghaus"	"arrowright"	"1322"	"TRUE"	"Ebbinghaus"	"-0.100000000"	"-0.158570000"	"1"	"49"
n/a	"html-keyboard-response"	"114"	"207920"	"0.0-4.0-2.0-0.31"	"00fl9o"	"600"	"1366"	"chrome"	"108.0.0"	"FALSE"	"Windows 10"	"60.72"	n/a	n/a	n/a	n/a	n/a	n/a	"fixation"	n/a	n/a	n/a	n/a	"NULL"	"NULL"	"NULL"	n/a	"<p style=\"color: black; font-size: 80px; padding-left: 12%; padding-right: 13%; padding-top: 44%; padding-bottom: 30%\">+</p>"	n/a	"1326"	n/a	n/a	n/a	n/a	n/a	n/a	n/a	n/a	n/a
n/a	"image-keyboard-response"	"115"	"208398"	"0.0-4.0-2.0-1.31"	"00fl9o"	"600"	"1366"	"chrome"	"108.0.0"	"FALSE"	"Windows 10"	"60.72"	n/a	n/a	n/a	n/a	n/a	n/a	"Trial"	n/a	n/a	n/a	n/a	"NULL"	"NULL"	"NULL"	"477"	"stimuli/Ebbinghaus_-0.87143_-0.15857.png"	"arrowright"	n/a	"Ebbinghaus"	"arrowright"	"1339"	"TRUE"	"Ebbinghaus"	"-0.871430000"	"-0.158570000"	"1"	"50"
n/a	"html-keyboard-response"	"116"	"209781"	"0.0-4.0-2.0-0.32"	"00fl9o"	"600"	"1366"	"chrome"	"108.0.0"	"FALSE"	"Windows 10"	"60.72"	n/a	n/a	n/a	n/a	n/a	n/a	"fixation"	n/a	n/a	n/a	n/a	"NULL"	"NULL"	"NULL"	n/a	"<p style=\"color: black; font-size: 80px; padding-left: 30%; padding-right: 46%; padding-top: 42%; padding-bottom: 32%\">+</p>"	n/a	"1373"	n/a	n/a	n/a	n/a	n/a	n/a	n/a	n/a	n/a
n/a	"image-keyboard-response"	"117"	"210403"	"0.0-4.0-2.0-1.32"	"00fl9o"	"600"	"1366"	"chrome"	"108.0.0"	"FALSE"	"Windows 10"	"60.72"	n/a	n/a	n/a	n/a	n/a	n/a	"Trial"	n/a	n/a	n/a	n/a	"NULL"	"NULL"	"NULL"	"621"	"stimuli/Ebbinghaus_-0.35714_0.11071.png"	"arrowleft"	n/a	"Ebbinghaus"	"arrowleft"	"1383"	"TRUE"	"Ebbinghaus"	"-0.357140000"	"0.1107100000"	"1"	"51"
n/a	"html-keyboard-response"	"118"	"211561"	"0.0-4.0-2.0-0.33"	"00fl9o"	"600"	"1366"	"chrome"	"108.0.0"	"FALSE"	"Windows 10"	"60.72"	n/a	n/a	n/a	n/a	n/a	n/a	"fixation"	n/a	n/a	n/a	n/a	"NULL"	"NULL"	"NULL"	n/a	"<p style=\"color: black; font-size: 80px; padding-left: 3%; padding-right: 24%; padding-top: 44%; padding-bottom: 14%\">+</p>"	n/a	"1140"	n/a	n/a	n/a	n/a	n/a	n/a	n/a	n/a	n/a
n/a	"image-keyboard-response"	"119"	"212007"	"0.0-4.0-2.0-1.33"	"00fl9o"	"600"	"1366"	"chrome"	"108.0.0"	"FALSE"	"Windows 10"	"60.72"	n/a	n/a	n/a	n/a	n/a	n/a	"Trial"	n/a	n/a	n/a	n/a	"NULL"	"NULL"	"NULL"	"445"	"stimuli/Ebbinghaus_-0.35714_-0.2150.png"	"arrowright"	n/a	"Ebbinghaus"	"arrowright"	"1158"	"TRUE"	"Ebbinghaus"	"-0.357140000"	"-0.215000000"	"1"	"52"
n/a	"html-keyboard-response"	"120"	"213353"	"0.0-4.0-2.0-0.34"	"00fl9o"	"600"	"1366"	"chrome"	"108.0.0"	"FALSE"	"Windows 10"	"60.72"	n/a	n/a	n/a	n/a	n/a	n/a	"fixation"	n/a	n/a	n/a	n/a	"NULL"	"NULL"	"NULL"	n/a	"<p style=\"color: black; font-size: 80px; padding-left: 14%; padding-right: 9%; padding-top: 23%; padding-bottom: 14%\">+</p>"	n/a	"1339"	n/a	n/a	n/a	n/a	n/a	n/a	n/a	n/a	n/a
n/a	"image-keyboard-response"	"121"	"213917"	"0.0-4.0-2.0-1.34"	"00fl9o"	"600"	"1366"	"chrome"	"108.0.0"	"FALSE"	"Windows 10"	"60.72"	n/a	n/a	n/a	n/a	n/a	n/a	"Trial"	n/a	n/a	n/a	n/a	"NULL"	"NULL"	"NULL"	"562"	"stimuli/Ebbinghaus_-0.87143_0.11071.png"	"arrowleft"	n/a	"Ebbinghaus"	"arrowleft"	"1346"	"TRUE"	"Ebbinghaus"	"-0.871430000"	"0.1107100000"	"1"	"53"
n/a	"html-keyboard-response"	"122"	"215340"	"0.0-4.0-2.0-0.35"	"00fl9o"	"600"	"1366"	"chrome"	"108.0.0"	"FALSE"	"Windows 10"	"60.72"	n/a	n/a	n/a	n/a	n/a	n/a	"fixation"	n/a	n/a	n/a	n/a	"NULL"	"NULL"	"NULL"	n/a	"<p style=\"color: black; font-size: 80px; padding-left: 49%; padding-right: 46%; padding-top: 2%; padding-bottom: 3%\">+</p>"	n/a	"1415"	n/a	n/a	n/a	n/a	n/a	n/a	n/a	n/a	n/a
n/a	"image-keyboard-response"	"123"	"215978"	"0.0-4.0-2.0-1.35"	"00fl9o"	"600"	"1366"	"chrome"	"108.0.0"	"FALSE"	"Windows 10"	"60.72"	n/a	n/a	n/a	n/a	n/a	n/a	"Trial"	n/a	n/a	n/a	n/a	"NULL"	"NULL"	"NULL"	"636"	"stimuli/Ebbinghaus_0.35714_0.21500.png"	"arrowleft"	n/a	"Ebbinghaus"	"arrowleft"	"1423"	"TRUE"	"Ebbinghaus"	"0.3571400000"	"0.2150000000"	"1"	"54"
n/a	"html-keyboard-response"	"124"	"217342"	"0.0-4.0-2.0-0.36"	"00fl9o"	"600"	"1366"	"chrome"	"108.0.0"	"FALSE"	"Windows 10"	"60.72"	n/a	n/a	n/a	n/a	n/a	n/a	"fixation"	n/a	n/a	n/a	n/a	"NULL"	"NULL"	"NULL"	n/a	"<p style=\"color: black; font-size: 80px; padding-left: 9%; padding-right: 11%; padding-top: 13%; padding-bottom: 26%\">+</p>"	n/a	"1348"	n/a	n/a	n/a	n/a	n/a	n/a	n/a	n/a	n/a
n/a	"image-keyboard-response"	"125"	"217833"	"0.0-4.0-2.0-1.36"	"00fl9o"	"600"	"1366"	"chrome"	"108.0.0"	"FALSE"	"Windows 10"	"60.72"	n/a	n/a	n/a	n/a	n/a	n/a	"Trial"	n/a	n/a	n/a	n/a	"NULL"	"NULL"	"NULL"	"490"	"stimuli/Ebbinghaus_0.35714_-0.11071.png"	"arrowright"	n/a	"Ebbinghaus"	"arrowright"	"1364"	"TRUE"	"Ebbinghaus"	"0.3571400000"	"-0.110710000"	"1"	"55"
n/a	"html-keyboard-response"	"126"	"219155"	"0.0-4.0-2.0-0.37"	"00fl9o"	"600"	"1366"	"chrome"	"108.0.0"	"FALSE"	"Windows 10"	"60.72"	n/a	n/a	n/a	n/a	n/a	n/a	"fixation"	n/a	n/a	n/a	n/a	"NULL"	"NULL"	"NULL"	n/a	"<p style=\"color: black; font-size: 80px; padding-left: 17%; padding-right: 17%; padding-top: 19%; padding-bottom: 5%\">+</p>"	n/a	"1302"	n/a	n/a	n/a	n/a	n/a	n/a	n/a	n/a	n/a
n/a	"image-keyboard-response"	"127"	"219864"	"0.0-4.0-2.0-1.37"	"00fl9o"	"600"	"1366"	"chrome"	"108.0.0"	"FALSE"	"Windows 10"	"60.72"	n/a	n/a	n/a	n/a	n/a	n/a	"Trial"	n/a	n/a	n/a	n/a	"NULL"	"NULL"	"NULL"	"708"	"stimuli/Ebbinghaus_0.10000_0.15857.png"	"arrowleft"	n/a	"Ebbinghaus"	"arrowleft"	"1322"	"TRUE"	"Ebbinghaus"	"0.1000000000"	"0.1585700000"	"1"	"56"
n/a	"html-keyboard-response"	"128"	"221334"	"0.0-4.0-2.0-0.38"	"00fl9o"	"600"	"1366"	"chrome"	"108.0.0"	"FALSE"	"Windows 10"	"60.72"	n/a	n/a	n/a	n/a	n/a	n/a	"fixation"	n/a	n/a	n/a	n/a	"NULL"	"NULL"	"NULL"	n/a	"<p style=\"color: black; font-size: 80px; padding-left: 24%; padding-right: 22%; padding-top: 45%; padding-bottom: 38%\">+</p>"	n/a	"1467"	n/a	n/a	n/a	n/a	n/a	n/a	n/a	n/a	n/a
n/a	"image-keyboard-response"	"129"	"221833"	"0.0-4.0-2.0-1.38"	"00fl9o"	"600"	"1366"	"chrome"	"108.0.0"	"FALSE"	"Windows 10"	"60.72"	n/a	n/a	n/a	n/a	n/a	n/a	"Trial"	n/a	n/a	n/a	n/a	"NULL"	"NULL"	"NULL"	"498"	"stimuli/Ebbinghaus_-0.61429_-0.2150.png"	"arrowright"	n/a	"Ebbinghaus"	"arrowright"	"1470"	"TRUE"	"Ebbinghaus"	"-0.614290000"	"-0.215000000"	"1"	"57"
n/a	"html-keyboard-response"	"130"	"223147"	"0.0-4.0-2.0-0.39"	"00fl9o"	"600"	"1366"	"chrome"	"108.0.0"	"FALSE"	"Windows 10"	"60.72"	n/a	n/a	n/a	n/a	n/a	n/a	"fixation"	n/a	n/a	n/a	n/a	"NULL"	"NULL"	"NULL"	n/a	"<p style=\"color: black; font-size: 80px; padding-left: 14%; padding-right: 17%; padding-top: 49%; padding-bottom: 34%\">+</p>"	n/a	"1295"	n/a	n/a	n/a	n/a	n/a	n/a	n/a	n/a	n/a
n/a	"image-keyboard-response"	"131"	"223654"	"0.0-4.0-2.0-1.39"	"00fl9o"	"600"	"1366"	"chrome"	"108.0.0"	"FALSE"	"Windows 10"	"60.72"	n/a	n/a	n/a	n/a	n/a	n/a	"Trial"	n/a	n/a	n/a	n/a	"NULL"	"NULL"	"NULL"	"506"	"stimuli/Ebbinghaus_-0.1000_0.28000.png"	"arrowleft"	n/a	"Ebbinghaus"	"arrowleft"	"1314"	"TRUE"	"Ebbinghaus"	"-0.100000000"	"0.2800000000"	"1"	"58"
n/a	"html-keyboard-response"	"132"	"225107"	"0.0-4.0-2.0-0.40"	"00fl9o"	"600"	"1366"	"chrome"	"108.0.0"	"FALSE"	"Windows 10"	"60.72"	n/a	n/a	n/a	n/a	n/a	n/a	"fixation"	n/a	n/a	n/a	n/a	"NULL"	"NULL"	"NULL"	n/a	"<p style=\"color: black; font-size: 80px; padding-left: 11%; padding-right: 23%; padding-top: 20%; padding-bottom: 35%\">+</p>"	n/a	"1437"	n/a	n/a	n/a	n/a	n/a	n/a	n/a	n/a	n/a
n/a	"image-keyboard-response"	"133"	"225541"	"0.0-4.0-2.0-1.40"	"00fl9o"	"600"	"1366"	"chrome"	"108.0.0"	"FALSE"	"Windows 10"	"60.72"	n/a	n/a	n/a	n/a	n/a	n/a	"Trial"	n/a	n/a	n/a	n/a	"NULL"	"NULL"	"NULL"	"433"	"stimuli/Ebbinghaus_-0.61429_-0.2800.png"	"arrowright"	n/a	"Ebbinghaus"	"arrowright"	"1453"	"TRUE"	"Ebbinghaus"	"-0.614290000"	"-0.280000000"	"1"	"59"
n/a	"html-keyboard-response"	"134"	"226748"	"0.0-4.0-2.0-0.41"	"00fl9o"	"600"	"1366"	"chrome"	"108.0.0"	"FALSE"	"Windows 10"	"60.72"	n/a	n/a	n/a	n/a	n/a	n/a	"fixation"	n/a	n/a	n/a	n/a	"NULL"	"NULL"	"NULL"	n/a	"<p style=\"color: black; font-size: 80px; padding-left: 13%; padding-right: 44%; padding-top: 25%; padding-bottom: 27%\">+</p>"	n/a	"1194"	n/a	n/a	n/a	n/a	n/a	n/a	n/a	n/a	n/a
n/a	"image-keyboard-response"	"135"	"227237"	"0.0-4.0-2.0-1.41"	"00fl9o"	"600"	"1366"	"chrome"	"108.0.0"	"FALSE"	"Windows 10"	"60.72"	n/a	n/a	n/a	n/a	n/a	n/a	"Trial"	n/a	n/a	n/a	n/a	"NULL"	"NULL"	"NULL"	"487"	"stimuli/Ebbinghaus_0.87143_0.28000.png"	"arrowleft"	n/a	"Ebbinghaus"	"arrowleft"	"1207"	"TRUE"	"Ebbinghaus"	"0.8714300000"	"0.2800000000"	"1"	"60"
n/a	"html-keyboard-response"	"136"	"228744"	"0.0-4.0-2.0-0.42"	"00fl9o"	"600"	"1366"	"chrome"	"108.0.0"	"FALSE"	"Windows 10"	"60.72"	n/a	n/a	n/a	n/a	n/a	n/a	"fixation"	n/a	n/a	n/a	n/a	"NULL"	"NULL"	"NULL"	n/a	"<p style=\"color: black; font-size: 80px; padding-left: 22%; padding-right: 31%; padding-top: 25%; padding-bottom: 24%\">+</p>"	n/a	"1492"	n/a	n/a	n/a	n/a	n/a	n/a	n/a	n/a	n/a
n/a	"image-keyboard-response"	"137"	"229291"	"0.0-4.0-2.0-1.42"	"00fl9o"	"600"	"1366"	"chrome"	"108.0.0"	"FALSE"	"Windows 10"	"60.72"	n/a	n/a	n/a	n/a	n/a	n/a	"Trial"	n/a	n/a	n/a	n/a	"NULL"	"NULL"	"NULL"	"547"	"stimuli/Ebbinghaus_-0.61429_0.28000.png"	"arrowleft"	n/a	"Ebbinghaus"	"arrowleft"	"1507"	"TRUE"	"Ebbinghaus"	"-0.614290000"	"0.2800000000"	"1"	"61"
n/a	"html-keyboard-response"	"138"	"230740"	"0.0-4.0-2.0-0.43"	"00fl9o"	"600"	"1366"	"chrome"	"108.0.0"	"FALSE"	"Windows 10"	"60.72"	n/a	n/a	n/a	n/a	n/a	n/a	"fixation"	n/a	n/a	n/a	n/a	"NULL"	"NULL"	"NULL"	n/a	"<p style=\"color: black; font-size: 80px; padding-left: 25%; padding-right: 23%; padding-top: 19%; padding-bottom: 43%\">+</p>"	n/a	"1437"	n/a	n/a	n/a	n/a	n/a	n/a	n/a	n/a	n/a
n/a	"image-keyboard-response"	"139"	"231181"	"0.0-4.0-2.0-1.43"	"00fl9o"	"600"	"1366"	"chrome"	"108.0.0"	"FALSE"	"Windows 10"	"60.72"	n/a	n/a	n/a	n/a	n/a	n/a	"Trial"	n/a	n/a	n/a	n/a	"NULL"	"NULL"	"NULL"	"440"	"stimuli/Ebbinghaus_-0.61429_0.11071.png"	"arrowright"	n/a	"Ebbinghaus"	"arrowleft"	"1449"	"FALSE"	"Ebbinghaus"	"-0.614290000"	"0.1107100000"	"1"	"62"
n/a	"html-keyboard-response"	"140"	"232657"	"0.0-4.0-2.0-0.44"	"00fl9o"	"600"	"1366"	"chrome"	"108.0.0"	"FALSE"	"Windows 10"	"60.72"	n/a	n/a	n/a	n/a	n/a	n/a	"fixation"	n/a	n/a	n/a	n/a	"NULL"	"NULL"	"NULL"	n/a	"<p style=\"color: black; font-size: 80px; padding-left: 2%; padding-right: 18%; padding-top: 23%; padding-bottom: 26%\">+</p>"	n/a	"1463"	n/a	n/a	n/a	n/a	n/a	n/a	n/a	n/a	n/a
n/a	"image-keyboard-response"	"141"	"233348"	"0.0-4.0-2.0-1.44"	"00fl9o"	"600"	"1366"	"chrome"	"108.0.0"	"FALSE"	"Windows 10"	"60.72"	n/a	n/a	n/a	n/a	n/a	n/a	"Trial"	n/a	n/a	n/a	n/a	"NULL"	"NULL"	"NULL"	"690"	"stimuli/Ebbinghaus_-0.1000_0.11071.png"	"arrowleft"	n/a	"Ebbinghaus"	"arrowleft"	"1476"	"TRUE"	"Ebbinghaus"	"-0.100000000"	"0.1107100000"	"1"	"63"
n/a	"html-keyboard-response"	"142"	"234532"	"0.0-4.0-2.0-0.45"	"00fl9o"	"600"	"1366"	"chrome"	"108.0.0"	"FALSE"	"Windows 10"	"60.72"	n/a	n/a	n/a	n/a	n/a	n/a	"fixation"	n/a	n/a	n/a	n/a	"NULL"	"NULL"	"NULL"	n/a	"<p style=\"color: black; font-size: 80px; padding-left: 33%; padding-right: 26%; padding-top: 26%; padding-bottom: 38%\">+</p>"	n/a	"1164"	n/a	n/a	n/a	n/a	n/a	n/a	n/a	n/a	n/a
n/a	"image-keyboard-response"	"143"	"235111"	"0.0-4.0-2.0-1.45"	"00fl9o"	"600"	"1366"	"chrome"	"108.0.0"	"FALSE"	"Windows 10"	"60.72"	n/a	n/a	n/a	n/a	n/a	n/a	"Trial"	n/a	n/a	n/a	n/a	"NULL"	"NULL"	"NULL"	"577"	"stimuli/Ebbinghaus_0.10000_0.11071.png"	"arrowright"	n/a	"Ebbinghaus"	"arrowleft"	"1184"	"FALSE"	"Ebbinghaus"	"0.1000000000"	"0.1107100000"	"1"	"64"
n/a	"html-keyboard-response"	"144"	"236608"	"0.0-4.0-2.0-0.46"	"00fl9o"	"600"	"1366"	"chrome"	"108.0.0"	"FALSE"	"Windows 10"	"60.72"	n/a	n/a	n/a	n/a	n/a	n/a	"fixation"	n/a	n/a	n/a	n/a	"NULL"	"NULL"	"NULL"	n/a	"<p style=\"color: black; font-size: 80px; padding-left: 18%; padding-right: 44%; padding-top: 21%; padding-bottom: 36%\">+</p>"	n/a	"1486"	n/a	n/a	n/a	n/a	n/a	n/a	n/a	n/a	n/a
n/a	"image-keyboard-response"	"145"	"237367"	"0.0-4.0-2.0-1.46"	"00fl9o"	"600"	"1366"	"chrome"	"108.0.0"	"FALSE"	"Windows 10"	"60.72"	n/a	n/a	n/a	n/a	n/a	n/a	"Trial"	n/a	n/a	n/a	n/a	"NULL"	"NULL"	"NULL"	"758"	"stimuli/Ebbinghaus_0.35714_0.28000.png"	"arrowleft"	n/a	"Ebbinghaus"	"arrowleft"	"1497"	"TRUE"	"Ebbinghaus"	"0.3571400000"	"0.2800000000"	"1"	"65"
n/a	"html-keyboard-response"	"146"	"238455"	"0.0-4.0-2.0-0.47"	"00fl9o"	"600"	"1366"	"chrome"	"108.0.0"	"FALSE"	"Windows 10"	"60.72"	n/a	n/a	n/a	n/a	n/a	n/a	"fixation"	n/a	n/a	n/a	n/a	"NULL"	"NULL"	"NULL"	n/a	"<p style=\"color: black; font-size: 80px; padding-left: 23%; padding-right: 26%; padding-top: 18%; padding-bottom: 18%\">+</p>"	n/a	"1075"	n/a	n/a	n/a	n/a	n/a	n/a	n/a	n/a	n/a
n/a	"image-keyboard-response"	"147"	"239385"	"0.0-4.0-2.0-1.47"	"00fl9o"	"600"	"1366"	"chrome"	"108.0.0"	"FALSE"	"Windows 10"	"60.72"	n/a	n/a	n/a	n/a	n/a	n/a	"Trial"	n/a	n/a	n/a	n/a	"NULL"	"NULL"	"NULL"	"930"	"stimuli/Ebbinghaus_0.35714_0.15857.png"	"arrowleft"	n/a	"Ebbinghaus"	"arrowleft"	"1088"	"TRUE"	"Ebbinghaus"	"0.3571400000"	"0.1585700000"	"1"	"66"
n/a	"html-keyboard-response"	"148"	"240481"	"0.0-4.0-2.0-0.48"	"00fl9o"	"600"	"1366"	"chrome"	"108.0.0"	"FALSE"	"Windows 10"	"60.72"	n/a	n/a	n/a	n/a	n/a	n/a	"fixation"	n/a	n/a	n/a	n/a	"NULL"	"NULL"	"NULL"	n/a	"<p style=\"color: black; font-size: 80px; padding-left: 48%; padding-right: 6%; padding-top: 49%; padding-bottom: 6%\">+</p>"	n/a	"1078"	n/a	n/a	n/a	n/a	n/a	n/a	n/a	n/a	n/a
n/a	"image-keyboard-response"	"149"	"241064"	"0.0-4.0-2.0-1.48"	"00fl9o"	"600"	"1366"	"chrome"	"108.0.0"	"FALSE"	"Windows 10"	"60.72"	n/a	n/a	n/a	n/a	n/a	n/a	"Trial"	n/a	n/a	n/a	n/a	"NULL"	"NULL"	"NULL"	"582"	"stimuli/Ebbinghaus_0.61429_0.21500.png"	"arrowright"	n/a	"Ebbinghaus"	"arrowleft"	"1096"	"FALSE"	"Ebbinghaus"	"0.6142900000"	"0.2150000000"	"1"	"67"
n/a	"html-keyboard-response"	"150"	"242120"	"0.0-4.0-2.0-0.49"	"00fl9o"	"600"	"1366"	"chrome"	"108.0.0"	"FALSE"	"Windows 10"	"60.72"	n/a	n/a	n/a	n/a	n/a	n/a	"fixation"	n/a	n/a	n/a	n/a	"NULL"	"NULL"	"NULL"	n/a	"<p style=\"color: black; font-size: 80px; padding-left: 15%; padding-right: 45%; padding-top: 8%; padding-bottom: 48%\">+</p>"	n/a	"1043"	n/a	n/a	n/a	n/a	n/a	n/a	n/a	n/a	n/a
n/a	"image-keyboard-response"	"151"	"242724"	"0.0-4.0-2.0-1.49"	"00fl9o"	"600"	"1366"	"chrome"	"108.0.0"	"FALSE"	"Windows 10"	"60.72"	n/a	n/a	n/a	n/a	n/a	n/a	"Trial"	n/a	n/a	n/a	n/a	"NULL"	"NULL"	"NULL"	"603"	"stimuli/Ebbinghaus_0.61429_0.15857.png"	"arrowright"	n/a	"Ebbinghaus"	"arrowleft"	"1056"	"FALSE"	"Ebbinghaus"	"0.6142900000"	"0.1585700000"	"1"	"68"
n/a	"html-keyboard-response"	"152"	"243913"	"0.0-4.0-2.0-0.50"	"00fl9o"	"600"	"1366"	"chrome"	"108.0.0"	"FALSE"	"Windows 10"	"60.72"	n/a	n/a	n/a	n/a	n/a	n/a	"fixation"	n/a	n/a	n/a	n/a	"NULL"	"NULL"	"NULL"	n/a	"<p style=\"color: black; font-size: 80px; padding-left: 22%; padding-right: 46%; padding-top: 14%; padding-bottom: 13%\">+</p>"	n/a	"1179"	n/a	n/a	n/a	n/a	n/a	n/a	n/a	n/a	n/a
n/a	"image-keyboard-response"	"153"	"244459"	"0.0-4.0-2.0-1.50"	"00fl9o"	"600"	"1366"	"chrome"	"108.0.0"	"FALSE"	"Windows 10"	"60.72"	n/a	n/a	n/a	n/a	n/a	n/a	"Trial"	n/a	n/a	n/a	n/a	"NULL"	"NULL"	"NULL"	"545"	"stimuli/Ebbinghaus_-0.35714_-0.2800.png"	"arrowright"	n/a	"Ebbinghaus"	"arrowright"	"1189"	"TRUE"	"Ebbinghaus"	"-0.357140000"	"-0.280000000"	"1"	"69"
n/a	"html-keyboard-response"	"154"	"245562"	"0.0-4.0-2.0-0.51"	"00fl9o"	"600"	"1366"	"chrome"	"108.0.0"	"FALSE"	"Windows 10"	"60.72"	n/a	n/a	n/a	n/a	n/a	n/a	"fixation"	n/a	n/a	n/a	n/a	"NULL"	"NULL"	"NULL"	n/a	"<p style=\"color: black; font-size: 80px; padding-left: 41%; padding-right: 20%; padding-top: 18%; padding-bottom: 38%\">+</p>"	n/a	"1090"	n/a	n/a	n/a	n/a	n/a	n/a	n/a	n/a	n/a
n/a	"image-keyboard-response"	"155"	"246468"	"0.0-4.0-2.0-1.51"	"00fl9o"	"600"	"1366"	"chrome"	"108.0.0"	"FALSE"	"Windows 10"	"60.72"	n/a	n/a	n/a	n/a	n/a	n/a	"Trial"	n/a	n/a	n/a	n/a	"NULL"	"NULL"	"NULL"	"904"	"stimuli/Ebbinghaus_-0.61429_-0.15857.png"	"arrowright"	n/a	"Ebbinghaus"	"arrowright"	"1103"	"TRUE"	"Ebbinghaus"	"-0.614290000"	"-0.158570000"	"1"	"70"
n/a	"html-keyboard-response"	"156"	"247625"	"0.0-4.0-2.0-0.52"	"00fl9o"	"600"	"1366"	"chrome"	"108.0.0"	"FALSE"	"Windows 10"	"60.72"	n/a	n/a	n/a	n/a	n/a	n/a	"fixation"	n/a	n/a	n/a	n/a	"NULL"	"NULL"	"NULL"	n/a	"<p style=\"color: black; font-size: 80px; padding-left: 1%; padding-right: 15%; padding-top: 7%; padding-bottom: 45%\">+</p>"	n/a	"1151"	n/a	n/a	n/a	n/a	n/a	n/a	n/a	n/a	n/a
n/a	"image-keyboard-response"	"157"	"248151"	"0.0-4.0-2.0-1.52"	"00fl9o"	"600"	"1366"	"chrome"	"108.0.0"	"FALSE"	"Windows 10"	"60.72"	n/a	n/a	n/a	n/a	n/a	n/a	"Trial"	n/a	n/a	n/a	n/a	"NULL"	"NULL"	"NULL"	"525"	"stimuli/Ebbinghaus_-0.87143_0.28000.png"	"arrowleft"	n/a	"Ebbinghaus"	"arrowleft"	"1157"	"TRUE"	"Ebbinghaus"	"-0.871430000"	"0.2800000000"	"1"	"71"
n/a	"html-keyboard-response"	"158"	"249387"	"0.0-4.0-2.0-0.53"	"00fl9o"	"600"	"1366"	"chrome"	"108.0.0"	"FALSE"	"Windows 10"	"60.72"	n/a	n/a	n/a	n/a	n/a	n/a	"fixation"	n/a	n/a	n/a	n/a	"NULL"	"NULL"	"NULL"	n/a	"<p style=\"color: black; font-size: 80px; padding-left: 16%; padding-right: 9%; padding-top: 0%; padding-bottom: 31%\">+</p>"	n/a	"1215"	n/a	n/a	n/a	n/a	n/a	n/a	n/a	n/a	n/a
n/a	"image-keyboard-response"	"159"	"249948"	"0.0-4.0-2.0-1.53"	"00fl9o"	"600"	"1366"	"chrome"	"108.0.0"	"FALSE"	"Windows 10"	"60.72"	n/a	n/a	n/a	n/a	n/a	n/a	"Trial"	n/a	n/a	n/a	n/a	"NULL"	"NULL"	"NULL"	"560"	"stimuli/Ebbinghaus_-0.61429_0.15857.png"	"arrowleft"	n/a	"Ebbinghaus"	"arrowleft"	"1236"	"TRUE"	"Ebbinghaus"	"-0.614290000"	"0.1585700000"	"1"	"72"
n/a	"html-keyboard-response"	"160"	"251034"	"0.0-4.0-2.0-0.54"	"00fl9o"	"600"	"1366"	"chrome"	"108.0.0"	"FALSE"	"Windows 10"	"60.72"	n/a	n/a	n/a	n/a	n/a	n/a	"fixation"	n/a	n/a	n/a	n/a	"NULL"	"NULL"	"NULL"	n/a	"<p style=\"color: black; font-size: 80px; padding-left: 10%; padding-right: 5%; padding-top: 37%; padding-bottom: 45%\">+</p>"	n/a	"1072"	n/a	n/a	n/a	n/a	n/a	n/a	n/a	n/a	n/a
n/a	"image-keyboard-response"	"161"	"252027"	"0.0-4.0-2.0-1.54"	"00fl9o"	"600"	"1366"	"chrome"	"108.0.0"	"FALSE"	"Windows 10"	"60.72"	n/a	n/a	n/a	n/a	n/a	n/a	"Trial"	n/a	n/a	n/a	n/a	"NULL"	"NULL"	"NULL"	"993"	"stimuli/Ebbinghaus_-0.1000_-0.11071.png"	"arrowright"	n/a	"Ebbinghaus"	"arrowright"	"1086"	"TRUE"	"Ebbinghaus"	"-0.100000000"	"-0.110710000"	"1"	"73"
n/a	"html-keyboard-response"	"162"	"253250"	"0.0-4.0-2.0-0.55"	"00fl9o"	"600"	"1366"	"chrome"	"108.0.0"	"FALSE"	"Windows 10"	"60.72"	n/a	n/a	n/a	n/a	n/a	n/a	"fixation"	n/a	n/a	n/a	n/a	"NULL"	"NULL"	"NULL"	n/a	"<p style=\"color: black; font-size: 80px; padding-left: 13%; padding-right: 39%; padding-top: 8%; padding-bottom: 27%\">+</p>"	n/a	"1206"	n/a	n/a	n/a	n/a	n/a	n/a	n/a	n/a	n/a
n/a	"image-keyboard-response"	"163"	"253818"	"0.0-4.0-2.0-1.55"	"00fl9o"	"600"	"1366"	"chrome"	"108.0.0"	"FALSE"	"Windows 10"	"60.72"	n/a	n/a	n/a	n/a	n/a	n/a	"Trial"	n/a	n/a	n/a	n/a	"NULL"	"NULL"	"NULL"	"567"	"stimuli/Ebbinghaus_0.87143_-0.2800.png"	"arrowright"	n/a	"Ebbinghaus"	"arrowright"	"1223"	"TRUE"	"Ebbinghaus"	"0.8714300000"	"-0.280000000"	"1"	"74"
n/a	"html-keyboard-response"	"164"	"255172"	"0.0-4.0-2.0-0.56"	"00fl9o"	"600"	"1366"	"chrome"	"108.0.0"	"FALSE"	"Windows 10"	"60.72"	n/a	n/a	n/a	n/a	n/a	n/a	"fixation"	n/a	n/a	n/a	n/a	"NULL"	"NULL"	"NULL"	n/a	"<p style=\"color: black; font-size: 80px; padding-left: 22%; padding-right: 22%; padding-top: 6%; padding-bottom: 44%\">+</p>"	n/a	"1334"	n/a	n/a	n/a	n/a	n/a	n/a	n/a	n/a	n/a
n/a	"image-keyboard-response"	"165"	"255685"	"0.0-4.0-2.0-1.56"	"00fl9o"	"600"	"1366"	"chrome"	"108.0.0"	"FALSE"	"Windows 10"	"60.72"	n/a	n/a	n/a	n/a	n/a	n/a	"Trial"	n/a	n/a	n/a	n/a	"NULL"	"NULL"	"NULL"	"512"	"stimuli/Ebbinghaus_-0.87143_-0.2150.png"	"arrowright"	n/a	"Ebbinghaus"	"arrowright"	"1354"	"TRUE"	"Ebbinghaus"	"-0.871430000"	"-0.215000000"	"1"	"75"
n/a	"html-keyboard-response"	"166"	"256837"	"0.0-4.0-2.0-0.57"	"00fl9o"	"600"	"1366"	"chrome"	"108.0.0"	"FALSE"	"Windows 10"	"60.72"	n/a	n/a	n/a	n/a	n/a	n/a	"fixation"	n/a	n/a	n/a	n/a	"NULL"	"NULL"	"NULL"	n/a	"<p style=\"color: black; font-size: 80px; padding-left: 26%; padding-right: 26%; padding-top: 10%; padding-bottom: 38%\">+</p>"	n/a	"1139"	n/a	n/a	n/a	n/a	n/a	n/a	n/a	n/a	n/a
n/a	"image-keyboard-response"	"167"	"257301"	"0.0-4.0-2.0-1.57"	"00fl9o"	"600"	"1366"	"chrome"	"108.0.0"	"FALSE"	"Windows 10"	"60.72"	n/a	n/a	n/a	n/a	n/a	n/a	"Trial"	n/a	n/a	n/a	n/a	"NULL"	"NULL"	"NULL"	"463"	"stimuli/Ebbinghaus_0.10000_0.21500.png"	"arrowleft"	n/a	"Ebbinghaus"	"arrowleft"	"1152"	"TRUE"	"Ebbinghaus"	"0.1000000000"	"0.2150000000"	"1"	"76"
n/a	"html-keyboard-response"	"168"	"258716"	"0.0-4.0-2.0-0.58"	"00fl9o"	"600"	"1366"	"chrome"	"108.0.0"	"FALSE"	"Windows 10"	"60.72"	n/a	n/a	n/a	n/a	n/a	n/a	"fixation"	n/a	n/a	n/a	n/a	"NULL"	"NULL"	"NULL"	n/a	"<p style=\"color: black; font-size: 80px; padding-left: 43%; padding-right: 31%; padding-top: 25%; padding-bottom: 11%\">+</p>"	n/a	"1403"	n/a	n/a	n/a	n/a	n/a	n/a	n/a	n/a	n/a
n/a	"image-keyboard-response"	"169"	"259555"	"0.0-4.0-2.0-1.58"	"00fl9o"	"600"	"1366"	"chrome"	"108.0.0"	"FALSE"	"Windows 10"	"60.72"	n/a	n/a	n/a	n/a	n/a	n/a	"Trial"	n/a	n/a	n/a	n/a	"NULL"	"NULL"	"NULL"	"839"	"stimuli/Ebbinghaus_0.61429_-0.2800.png"	"arrowright"	n/a	"Ebbinghaus"	"arrowright"	"1415"	"TRUE"	"Ebbinghaus"	"0.6142900000"	"-0.280000000"	"1"	"77"
n/a	"html-keyboard-response"	"170"	"260746"	"0.0-4.0-2.0-0.59"	"00fl9o"	"600"	"1366"	"chrome"	"108.0.0"	"FALSE"	"Windows 10"	"60.72"	n/a	n/a	n/a	n/a	n/a	n/a	"fixation"	n/a	n/a	n/a	n/a	"NULL"	"NULL"	"NULL"	n/a	"<p style=\"color: black; font-size: 80px; padding-left: 34%; padding-right: 0%; padding-top: 33%; padding-bottom: 21%\">+</p>"	n/a	"1171"	n/a	n/a	n/a	n/a	n/a	n/a	n/a	n/a	n/a
n/a	"image-keyboard-response"	"171"	"261251"	"0.0-4.0-2.0-1.59"	"00fl9o"	"600"	"1366"	"chrome"	"108.0.0"	"FALSE"	"Windows 10"	"60.72"	n/a	n/a	n/a	n/a	n/a	n/a	"Trial"	n/a	n/a	n/a	n/a	"NULL"	"NULL"	"NULL"	"504"	"stimuli/Ebbinghaus_-0.87143_0.21500.png"	"arrowleft"	n/a	"Ebbinghaus"	"arrowleft"	"1191"	"TRUE"	"Ebbinghaus"	"-0.871430000"	"0.2150000000"	"1"	"78"
n/a	"html-keyboard-response"	"172"	"262691"	"0.0-4.0-2.0-0.60"	"00fl9o"	"600"	"1366"	"chrome"	"108.0.0"	"FALSE"	"Windows 10"	"60.72"	n/a	n/a	n/a	n/a	n/a	n/a	"fixation"	n/a	n/a	n/a	n/a	"NULL"	"NULL"	"NULL"	n/a	"<p style=\"color: black; font-size: 80px; padding-left: 3%; padding-right: 43%; padding-top: 43%; padding-bottom: 24%\">+</p>"	n/a	"1423"	n/a	n/a	n/a	n/a	n/a	n/a	n/a	n/a	n/a
n/a	"image-keyboard-response"	"173"	"263254"	"0.0-4.0-2.0-1.60"	"00fl9o"	"600"	"1366"	"chrome"	"108.0.0"	"FALSE"	"Windows 10"	"60.72"	n/a	n/a	n/a	n/a	n/a	n/a	"Trial"	n/a	n/a	n/a	n/a	"NULL"	"NULL"	"NULL"	"562"	"stimuli/Ebbinghaus_0.87143_-0.2150.png"	"arrowright"	n/a	"Ebbinghaus"	"arrowright"	"1440"	"TRUE"	"Ebbinghaus"	"0.8714300000"	"-0.215000000"	"1"	"79"
n/a	"html-keyboard-response"	"174"	"264401"	"0.0-4.0-2.0-0.61"	"00fl9o"	"600"	"1366"	"chrome"	"108.0.0"	"FALSE"	"Windows 10"	"60.72"	n/a	n/a	n/a	n/a	n/a	n/a	"fixation"	n/a	n/a	n/a	n/a	"NULL"	"NULL"	"NULL"	n/a	"<p style=\"color: black; font-size: 80px; padding-left: 42%; padding-right: 11%; padding-top: 9%; padding-bottom: 25%\">+</p>"	n/a	"1133"	n/a	n/a	n/a	n/a	n/a	n/a	n/a	n/a	n/a
n/a	"image-keyboard-response"	"175"	"264921"	"0.0-4.0-2.0-1.61"	"00fl9o"	"600"	"1366"	"chrome"	"108.0.0"	"FALSE"	"Windows 10"	"60.72"	n/a	n/a	n/a	n/a	n/a	n/a	"Trial"	n/a	n/a	n/a	n/a	"NULL"	"NULL"	"NULL"	"518"	"stimuli/Ebbinghaus_0.35714_-0.2150.png"	"arrowright"	n/a	"Ebbinghaus"	"arrowright"	"1147"	"TRUE"	"Ebbinghaus"	"0.3571400000"	"-0.215000000"	"1"	"80"
n/a	"html-keyboard-response"	"176"	"266326"	"0.0-4.0-2.0-0.62"	"00fl9o"	"600"	"1366"	"chrome"	"108.0.0"	"FALSE"	"Windows 10"	"60.72"	n/a	n/a	n/a	n/a	n/a	n/a	"fixation"	n/a	n/a	n/a	n/a	"NULL"	"NULL"	"NULL"	n/a	"<p style=\"color: black; font-size: 80px; padding-left: 32%; padding-right: 13%; padding-top: 8%; padding-bottom: 14%\">+</p>"	n/a	"1398"	n/a	n/a	n/a	n/a	n/a	n/a	n/a	n/a	n/a
n/a	"image-keyboard-response"	"177"	"266853"	"0.0-4.0-2.0-1.62"	"00fl9o"	"600"	"1366"	"chrome"	"108.0.0"	"FALSE"	"Windows 10"	"60.72"	n/a	n/a	n/a	n/a	n/a	n/a	"Trial"	n/a	n/a	n/a	n/a	"NULL"	"NULL"	"NULL"	"526"	"stimuli/Ebbinghaus_-0.35714_-0.11071.png"	"arrowright"	n/a	"Ebbinghaus"	"arrowright"	"1405"	"TRUE"	"Ebbinghaus"	"-0.357140000"	"-0.110710000"	"1"	"81"
n/a	"html-keyboard-response"	"178"	"268001"	"0.0-4.0-2.0-0.63"	"00fl9o"	"600"	"1366"	"chrome"	"108.0.0"	"FALSE"	"Windows 10"	"60.72"	n/a	n/a	n/a	n/a	n/a	n/a	"fixation"	n/a	n/a	n/a	n/a	"NULL"	"NULL"	"NULL"	n/a	"<p style=\"color: black; font-size: 80px; padding-left: 31%; padding-right: 13%; padding-top: 26%; padding-bottom: 11%\">+</p>"	n/a	"1129"	n/a	n/a	n/a	n/a	n/a	n/a	n/a	n/a	n/a
n/a	"image-keyboard-response"	"179"	"268606"	"0.0-4.0-2.0-1.63"	"00fl9o"	"600"	"1366"	"chrome"	"108.0.0"	"FALSE"	"Windows 10"	"60.72"	n/a	n/a	n/a	n/a	n/a	n/a	"Trial"	n/a	n/a	n/a	n/a	"NULL"	"NULL"	"NULL"	"604"	"stimuli/Ebbinghaus_0.87143_-0.11071.png"	"arrowleft"	n/a	"Ebbinghaus"	"arrowright"	"1148"	"FALSE"	"Ebbinghaus"	"0.8714300000"	"-0.110710000"	"1"	"82"
n/a	"html-button-response"	"180"	"272024"	"0.0-4.0-3.0"	"00fl9o"	"600"	"1366"	"chrome"	"108.0.0"	"FALSE"	"Windows 10"	"60.72"	n/a	n/a	n/a	n/a	n/a	n/a	"block_results"	n/a	n/a	n/a	n/a	"NULL"	"NULL"	"NULL"	"3416"	"<p>Your score for this illusion is <p style=\"color: black; font-size: 48px; font-weight: bold;\">80.8 %</p><hr><p>Can you do better in the next illusion?</p>"	"0"	n/a	n/a	n/a	n/a	n/a	n/a	n/a	n/a	n/a	n/a
"TRUE"	"preload"	"181"	"272173"	"0.0-5.0-0.0"	"00fl9o"	"600"	"1366"	"chrome"	"108.0.0"	"FALSE"	"Windows 10"	"60.72"	n/a	n/a	n/a	n/a	n/a	n/a	n/a	n/a	n/a	n/a	"FALSE"	"list()"	"list()"	"list()"	n/a	n/a	n/a	n/a	n/a	n/a	n/a	n/a	n/a	n/a	n/a	n/a	n/a
n/a	"html-keyboard-response"	"182"	"278951"	"0.0-5.0-1.0"	"00fl9o"	"600"	"1366"	"chrome"	"108.0.0"	"FALSE"	"Windows 10"	"60.72"	n/a	n/a	n/a	n/a	n/a	n/a	n/a	n/a	n/a	n/a	n/a	"NULL"	"NULL"	"NULL"	"6778"	"<p><b>Part 2/6</b></p><p>In this part, two horizontal red lines will appear one above the other.</p><p>Your task is to select which <b>line is longer</b> in length as fast as you can, without making errors.</p><p>Don't get distracted by the surrounding black arrows at the end of the red lines!</p><p>Press <b>the UP or the DOWN arrow</b> to indicate where is the longer <b>red line.</b></p><div style='float: center'><img src='materials/instructions/MullerLyer_Demo.png' height='300'></img><p><img src='utils/answer/answer_updown_keyboard.PNG' height='150'></img></p><p class='small'>In this example, the correct answer is the <b>UP arrow</b>.</p></div><p>Are you ready? <b>Press ENTER to start</b></p>"	"enter"	n/a	n/a	n/a	n/a	n/a	n/a	n/a	n/a	n/a	n/a
n/a	"html-keyboard-response"	"183"	"280952"	"0.0-5.0-2.0-0.0"	"00fl9o"	"600"	"1366"	"chrome"	"108.0.0"	"FALSE"	"Windows 10"	"60.72"	n/a	n/a	n/a	n/a	n/a	n/a	"fixation"	n/a	n/a	n/a	n/a	"NULL"	"NULL"	"NULL"	n/a	"<p style=\"color: black; font-size: 80px; padding-left: 36%; padding-right: 41%; padding-top: 20%; padding-bottom: 28%\">+</p>"	n/a	"1477"	n/a	n/a	n/a	n/a	n/a	n/a	n/a	n/a	n/a
n/a	"image-keyboard-response"	"184"	"281580"	"0.0-5.0-2.0-1.0"	"00fl9o"	"600"	"1366"	"chrome"	"108.0.0"	"FALSE"	"Windows 10"	"60.72"	n/a	n/a	n/a	n/a	n/a	n/a	"Trial"	n/a	n/a	n/a	n/a	"NULL"	"NULL"	"NULL"	"627"	"stimuli/MullerLyer_-8.21429_0.23665.png"	"arrowup"	n/a	"MullerLyer"	"arrowup"	"2001"	"TRUE"	"MullerLyer"	"-8.214290000"	"0.2366500000"	"2"	"1"
n/a	"html-keyboard-response"	"185"	"282795"	"0.0-5.0-2.0-0.1"	"00fl9o"	"600"	"1366"	"chrome"	"108.0.0"	"FALSE"	"Windows 10"	"60.72"	n/a	n/a	n/a	n/a	n/a	n/a	"fixation"	n/a	n/a	n/a	n/a	"NULL"	"NULL"	"NULL"	n/a	"<p style=\"color: black; font-size: 80px; padding-left: 3%; padding-right: 1%; padding-top: 3%; padding-bottom: 31%\">+</p>"	n/a	"1199"	n/a	n/a	n/a	n/a	n/a	n/a	n/a	n/a	n/a
n/a	"image-keyboard-response"	"186"	"283248"	"0.0-5.0-2.0-1.1"	"00fl9o"	"600"	"1366"	"chrome"	"108.0.0"	"FALSE"	"Windows 10"	"60.72"	n/a	n/a	n/a	n/a	n/a	n/a	"Trial"	n/a	n/a	n/a	n/a	"NULL"	"NULL"	"NULL"	"452"	"stimuli/MullerLyer_-14.12857_-0.3500.png"	"arrowdown"	n/a	"MullerLyer"	"arrowdown"	"1215"	"TRUE"	"MullerLyer"	"-14.12857000"	"-0.350000000"	"2"	"2"
n/a	"html-keyboard-response"	"187"	"284545"	"0.0-5.0-2.0-0.2"	"00fl9o"	"600"	"1366"	"chrome"	"108.0.0"	"FALSE"	"Windows 10"	"60.72"	n/a	n/a	n/a	n/a	n/a	n/a	"fixation"	n/a	n/a	n/a	n/a	"NULL"	"NULL"	"NULL"	n/a	"<p style=\"color: black; font-size: 80px; padding-left: 44%; padding-right: 24%; padding-top: 8%; padding-bottom: 4%\">+</p>"	n/a	"1282"	n/a	n/a	n/a	n/a	n/a	n/a	n/a	n/a	n/a
n/a	"image-keyboard-response"	"188"	"285130"	"0.0-5.0-2.0-1.2"	"00fl9o"	"600"	"1366"	"chrome"	"108.0.0"	"FALSE"	"Windows 10"	"60.72"	n/a	n/a	n/a	n/a	n/a	n/a	"Trial"	n/a	n/a	n/a	n/a	"NULL"	"NULL"	"NULL"	"583"	"stimuli/MullerLyer_-8.21429_-0.07627.png"	"arrowdown"	n/a	"MullerLyer"	"arrowdown"	"1297"	"TRUE"	"MullerLyer"	"-8.214290000"	"-0.076270000"	"2"	"3"
n/a	"html-keyboard-response"	"189"	"286278"	"0.0-5.0-2.0-0.3"	"00fl9o"	"600"	"1366"	"chrome"	"108.0.0"	"FALSE"	"Windows 10"	"60.72"	n/a	n/a	n/a	n/a	n/a	n/a	"fixation"	n/a	n/a	n/a	n/a	"NULL"	"NULL"	"NULL"	n/a	"<p style=\"color: black; font-size: 80px; padding-left: 49%; padding-right: 30%; padding-top: 42%; padding-bottom: 24%\">+</p>"	n/a	"1138"	n/a	n/a	n/a	n/a	n/a	n/a	n/a	n/a	n/a
n/a	"image-keyboard-response"	"190"	"286691"	"0.0-5.0-2.0-1.3"	"00fl9o"	"600"	"1366"	"chrome"	"108.0.0"	"FALSE"	"Windows 10"	"60.72"	n/a	n/a	n/a	n/a	n/a	n/a	"Trial"	n/a	n/a	n/a	n/a	"NULL"	"NULL"	"NULL"	"412"	"stimuli/MullerLyer_-14.12857_-0.14541.png"	"arrowdown"	n/a	"MullerLyer"	"arrowdown"	"1148"	"TRUE"	"MullerLyer"	"-14.12857000"	"-0.145410000"	"2"	"4"
n/a	"html-keyboard-response"	"191"	"287773"	"0.0-5.0-2.0-0.4"	"00fl9o"	"600"	"1366"	"chrome"	"108.0.0"	"FALSE"	"Windows 10"	"60.72"	n/a	n/a	n/a	n/a	n/a	n/a	"fixation"	n/a	n/a	n/a	n/a	"NULL"	"NULL"	"NULL"	n/a	"<p style=\"color: black; font-size: 80px; padding-left: 3%; padding-right: 3%; padding-top: 25%; padding-bottom: 3%\">+</p>"	n/a	"1073"	n/a	n/a	n/a	n/a	n/a	n/a	n/a	n/a	n/a
n/a	"image-keyboard-response"	"192"	"288241"	"0.0-5.0-2.0-1.4"	"00fl9o"	"600"	"1366"	"chrome"	"108.0.0"	"FALSE"	"Windows 10"	"60.72"	n/a	n/a	n/a	n/a	n/a	n/a	"Trial"	n/a	n/a	n/a	n/a	"NULL"	"NULL"	"NULL"	"467"	"stimuli/MullerLyer_-20.04286_-0.23665.png"	"arrowdown"	n/a	"MullerLyer"	"arrowdown"	"1082"	"TRUE"	"MullerLyer"	"-20.04286000"	"-0.236650000"	"2"	"5"
n/a	"html-keyboard-response"	"193"	"289515"	"0.0-5.0-2.0-0.5"	"00fl9o"	"600"	"1366"	"chrome"	"108.0.0"	"FALSE"	"Windows 10"	"60.72"	n/a	n/a	n/a	n/a	n/a	n/a	"fixation"	n/a	n/a	n/a	n/a	"NULL"	"NULL"	"NULL"	n/a	"<p style=\"color: black; font-size: 80px; padding-left: 3%; padding-right: 2%; padding-top: 15%; padding-bottom: 48%\">+</p>"	n/a	"1265"	n/a	n/a	n/a	n/a	n/a	n/a	n/a	n/a	n/a
n/a	"image-keyboard-response"	"194"	"290089"	"0.0-5.0-2.0-1.5"	"00fl9o"	"600"	"1366"	"chrome"	"108.0.0"	"FALSE"	"Windows 10"	"60.72"	n/a	n/a	n/a	n/a	n/a	n/a	"Trial"	n/a	n/a	n/a	n/a	"NULL"	"NULL"	"NULL"	"572"	"stimuli/MullerLyer_14.12857_0.23665.png"	"arrowup"	n/a	"MullerLyer"	"arrowup"	"1274"	"TRUE"	"MullerLyer"	"14.128570000"	"0.2366500000"	"2"	"6"
n/a	"html-keyboard-response"	"195"	"291259"	"0.0-5.0-2.0-0.6"	"00fl9o"	"600"	"1366"	"chrome"	"108.0.0"	"FALSE"	"Windows 10"	"60.72"	n/a	n/a	n/a	n/a	n/a	n/a	"fixation"	n/a	n/a	n/a	n/a	"NULL"	"NULL"	"NULL"	n/a	"<p style=\"color: black; font-size: 80px; padding-left: 8%; padding-right: 20%; padding-top: 13%; padding-bottom: 14%\">+</p>"	n/a	"1152"	n/a	n/a	n/a	n/a	n/a	n/a	n/a	n/a	n/a
n/a	"image-keyboard-response"	"196"	"291726"	"0.0-5.0-2.0-1.6"	"00fl9o"	"600"	"1366"	"chrome"	"108.0.0"	"FALSE"	"Windows 10"	"60.72"	n/a	n/a	n/a	n/a	n/a	n/a	"Trial"	n/a	n/a	n/a	n/a	"NULL"	"NULL"	"NULL"	"467"	"stimuli/MullerLyer_20.04286_-0.07627.png"	"arrowup"	n/a	"MullerLyer"	"arrowdown"	"1170"	"FALSE"	"MullerLyer"	"20.042860000"	"-0.076270000"	"2"	"7"
n/a	"html-keyboard-response"	"197"	"292770"	"0.0-5.0-2.0-0.7"	"00fl9o"	"600"	"1366"	"chrome"	"108.0.0"	"FALSE"	"Windows 10"	"60.72"	n/a	n/a	n/a	n/a	n/a	n/a	"fixation"	n/a	n/a	n/a	n/a	"NULL"	"NULL"	"NULL"	n/a	"<p style=\"color: black; font-size: 80px; padding-left: 26%; padding-right: 29%; padding-top: 6%; padding-bottom: 26%\">+</p>"	n/a	"1026"	n/a	n/a	n/a	n/a	n/a	n/a	n/a	n/a	n/a
n/a	"image-keyboard-response"	"198"	"293777"	"0.0-5.0-2.0-1.7"	"00fl9o"	"600"	"1366"	"chrome"	"108.0.0"	"FALSE"	"Windows 10"	"60.72"	n/a	n/a	n/a	n/a	n/a	n/a	"Trial"	n/a	n/a	n/a	n/a	"NULL"	"NULL"	"NULL"	"1006"	"stimuli/MullerLyer_20.04286_0.23665.png"	"arrowdown"	n/a	"MullerLyer"	"arrowup"	"1044"	"FALSE"	"MullerLyer"	"20.042860000"	"0.2366500000"	"2"	"8"
n/a	"html-keyboard-response"	"199"	"294849"	"0.0-5.0-2.0-0.8"	"00fl9o"	"600"	"1366"	"chrome"	"108.0.0"	"FALSE"	"Windows 10"	"60.72"	n/a	n/a	n/a	n/a	n/a	n/a	"fixation"	n/a	n/a	n/a	n/a	"NULL"	"NULL"	"NULL"	n/a	"<p style=\"color: black; font-size: 80px; padding-left: 21%; padding-right: 31%; padding-top: 42%; padding-bottom: 25%\">+</p>"	n/a	"1060"	n/a	n/a	n/a	n/a	n/a	n/a	n/a	n/a	n/a
n/a	"image-keyboard-response"	"200"	"295420"	"0.0-5.0-2.0-1.8"	"00fl9o"	"600"	"1366"	"chrome"	"108.0.0"	"FALSE"	"Windows 10"	"60.72"	n/a	n/a	n/a	n/a	n/a	n/a	"Trial"	n/a	n/a	n/a	n/a	"NULL"	"NULL"	"NULL"	"570"	"stimuli/MullerLyer_-8.21429_-0.14541.png"	"arrowdown"	n/a	"MullerLyer"	"arrowdown"	"1072"	"TRUE"	"MullerLyer"	"-8.214290000"	"-0.145410000"	"2"	"9"
n/a	"html-keyboard-response"	"201"	"296688"	"0.0-5.0-2.0-0.9"	"00fl9o"	"600"	"1366"	"chrome"	"108.0.0"	"FALSE"	"Windows 10"	"60.72"	n/a	n/a	n/a	n/a	n/a	n/a	"fixation"	n/a	n/a	n/a	n/a	"NULL"	"NULL"	"NULL"	n/a	"<p style=\"color: black; font-size: 80px; padding-left: 11%; padding-right: 50%; padding-top: 35%; padding-bottom: 20%\">+</p>"	n/a	"1258"	n/a	n/a	n/a	n/a	n/a	n/a	n/a	n/a	n/a
n/a	"image-keyboard-response"	"202"	"297295"	"0.0-5.0-2.0-1.9"	"00fl9o"	"600"	"1366"	"chrome"	"108.0.0"	"FALSE"	"Windows 10"	"60.72"	n/a	n/a	n/a	n/a	n/a	n/a	"Trial"	n/a	n/a	n/a	n/a	"NULL"	"NULL"	"NULL"	"606"	"stimuli/MullerLyer_2.30000_-0.07627.png"	"arrowup"	n/a	"MullerLyer"	"arrowdown"	"1268"	"FALSE"	"MullerLyer"	"2.3000000000"	"-0.076270000"	"2"	"10"
n/a	"html-keyboard-response"	"203"	"298344"	"0.0-5.0-2.0-0.10"	"00fl9o"	"600"	"1366"	"chrome"	"108.0.0"	"FALSE"	"Windows 10"	"60.72"	n/a	n/a	n/a	n/a	n/a	n/a	"fixation"	n/a	n/a	n/a	n/a	"NULL"	"NULL"	"NULL"	n/a	"<p style=\"color: black; font-size: 80px; padding-left: 48%; padding-right: 7%; padding-top: 7%; padding-bottom: 35%\">+</p>"	n/a	"1035"	n/a	n/a	n/a	n/a	n/a	n/a	n/a	n/a	n/a
n/a	"image-keyboard-response"	"204"	"298817"	"0.0-5.0-2.0-1.10"	"00fl9o"	"600"	"1366"	"chrome"	"108.0.0"	"FALSE"	"Windows 10"	"60.72"	n/a	n/a	n/a	n/a	n/a	n/a	"Trial"	n/a	n/a	n/a	n/a	"NULL"	"NULL"	"NULL"	"473"	"stimuli/MullerLyer_2.30000_0.07627.png"	"arrowup"	n/a	"MullerLyer"	"arrowup"	"1049"	"TRUE"	"MullerLyer"	"2.3000000000"	"0.0762700000"	"2"	"11"
n/a	"html-keyboard-response"	"205"	"299856"	"0.0-5.0-2.0-0.11"	"00fl9o"	"600"	"1366"	"chrome"	"108.0.0"	"FALSE"	"Windows 10"	"60.72"	n/a	n/a	n/a	n/a	n/a	n/a	"fixation"	n/a	n/a	n/a	n/a	"NULL"	"NULL"	"NULL"	n/a	"<p style=\"color: black; font-size: 80px; padding-left: 44%; padding-right: 11%; padding-top: 10%; padding-bottom: 47%\">+</p>"	n/a	"1032"	n/a	n/a	n/a	n/a	n/a	n/a	n/a	n/a	n/a
n/a	"image-keyboard-response"	"206"	"300287"	"0.0-5.0-2.0-1.11"	"00fl9o"	"600"	"1366"	"chrome"	"108.0.0"	"FALSE"	"Windows 10"	"60.72"	n/a	n/a	n/a	n/a	n/a	n/a	"Trial"	n/a	n/a	n/a	n/a	"NULL"	"NULL"	"NULL"	"429"	"stimuli/MullerLyer_20.04286_0.14541.png"	"arrowup"	n/a	"MullerLyer"	"arrowup"	"1039"	"TRUE"	"MullerLyer"	"20.042860000"	"0.1454100000"	"2"	"12"
n/a	"html-keyboard-response"	"207"	"301337"	"0.0-5.0-2.0-0.12"	"00fl9o"	"600"	"1366"	"chrome"	"108.0.0"	"FALSE"	"Windows 10"	"60.72"	n/a	n/a	n/a	n/a	n/a	n/a	"fixation"	n/a	n/a	n/a	n/a	"NULL"	"NULL"	"NULL"	n/a	"<p style=\"color: black; font-size: 80px; padding-left: 27%; padding-right: 21%; padding-top: 8%; padding-bottom: 46%\">+</p>"	n/a	"1042"	n/a	n/a	n/a	n/a	n/a	n/a	n/a	n/a	n/a
n/a	"image-keyboard-response"	"208"	"301840"	"0.0-5.0-2.0-1.12"	"00fl9o"	"600"	"1366"	"chrome"	"108.0.0"	"FALSE"	"Windows 10"	"60.72"	n/a	n/a	n/a	n/a	n/a	n/a	"Trial"	n/a	n/a	n/a	n/a	"NULL"	"NULL"	"NULL"	"503"	"stimuli/MullerLyer_-20.04286_0.07627.png"	"arrowup"	n/a	"MullerLyer"	"arrowup"	"1050"	"TRUE"	"MullerLyer"	"-20.04286000"	"0.0762700000"	"2"	"13"
n/a	"html-keyboard-response"	"209"	"303160"	"0.0-5.0-2.0-0.13"	"00fl9o"	"600"	"1366"	"chrome"	"108.0.0"	"FALSE"	"Windows 10"	"60.72"	n/a	n/a	n/a	n/a	n/a	n/a	"fixation"	n/a	n/a	n/a	n/a	"NULL"	"NULL"	"NULL"	n/a	"<p style=\"color: black; font-size: 80px; padding-left: 43%; padding-right: 40%; padding-top: 33%; padding-bottom: 1%\">+</p>"	n/a	"1315"	n/a	n/a	n/a	n/a	n/a	n/a	n/a	n/a	n/a
n/a	"image-keyboard-response"	"210"	"303989"	"0.0-5.0-2.0-1.13"	"00fl9o"	"600"	"1366"	"chrome"	"108.0.0"	"FALSE"	"Windows 10"	"60.72"	n/a	n/a	n/a	n/a	n/a	n/a	"Trial"	n/a	n/a	n/a	n/a	"NULL"	"NULL"	"NULL"	"828"	"stimuli/MullerLyer_20.04286_-0.23665.png"	"arrowdown"	n/a	"MullerLyer"	"arrowdown"	"1320"	"TRUE"	"MullerLyer"	"20.042860000"	"-0.236650000"	"2"	"14"
n/a	"html-keyboard-response"	"211"	"305307"	"0.0-5.0-2.0-0.14"	"00fl9o"	"600"	"1366"	"chrome"	"108.0.0"	"FALSE"	"Windows 10"	"60.72"	n/a	n/a	n/a	n/a	n/a	n/a	"fixation"	n/a	n/a	n/a	n/a	"NULL"	"NULL"	"NULL"	n/a	"<p style=\"color: black; font-size: 80px; padding-left: 12%; padding-right: 22%; padding-top: 20%; padding-bottom: 2%\">+</p>"	n/a	"1298"	n/a	n/a	n/a	n/a	n/a	n/a	n/a	n/a	n/a
n/a	"image-keyboard-response"	"212"	"305777"	"0.0-5.0-2.0-1.14"	"00fl9o"	"600"	"1366"	"chrome"	"108.0.0"	"FALSE"	"Windows 10"	"60.72"	n/a	n/a	n/a	n/a	n/a	n/a	"Trial"	n/a	n/a	n/a	n/a	"NULL"	"NULL"	"NULL"	"470"	"stimuli/MullerLyer_-20.04286_0.14541.png"	"arrowup"	n/a	"MullerLyer"	"arrowup"	"1318"	"TRUE"	"MullerLyer"	"-20.04286000"	"0.1454100000"	"2"	"15"
n/a	"html-keyboard-response"	"213"	"306997"	"0.0-5.0-2.0-0.15"	"00fl9o"	"600"	"1366"	"chrome"	"108.0.0"	"FALSE"	"Windows 10"	"60.72"	n/a	n/a	n/a	n/a	n/a	n/a	"fixation"	n/a	n/a	n/a	n/a	"NULL"	"NULL"	"NULL"	n/a	"<p style=\"color: black; font-size: 80px; padding-left: 48%; padding-right: 4%; padding-top: 19%; padding-bottom: 33%\">+</p>"	n/a	"1210"	n/a	n/a	n/a	n/a	n/a	n/a	n/a	n/a	n/a
n/a	"image-keyboard-response"	"214"	"307409"	"0.0-5.0-2.0-1.15"	"00fl9o"	"600"	"1366"	"chrome"	"108.0.0"	"FALSE"	"Windows 10"	"60.72"	n/a	n/a	n/a	n/a	n/a	n/a	"Trial"	n/a	n/a	n/a	n/a	"NULL"	"NULL"	"NULL"	"411"	"stimuli/MullerLyer_14.12857_-0.14541.png"	"arrowup"	n/a	"MullerLyer"	"arrowdown"	"1220"	"FALSE"	"MullerLyer"	"14.128570000"	"-0.145410000"	"2"	"16"
n/a	"html-keyboard-response"	"215"	"308454"	"0.0-5.0-2.0-0.16"	"00fl9o"	"600"	"1366"	"chrome"	"108.0.0"	"FALSE"	"Windows 10"	"60.72"	n/a	n/a	n/a	n/a	n/a	n/a	"fixation"	n/a	n/a	n/a	n/a	"NULL"	"NULL"	"NULL"	n/a	"<p style=\"color: black; font-size: 80px; padding-left: 20%; padding-right: 4%; padding-top: 5%; padding-bottom: 14%\">+</p>"	n/a	"1042"	n/a	n/a	n/a	n/a	n/a	n/a	n/a	n/a	n/a
n/a	"image-keyboard-response"	"216"	"309007"	"0.0-5.0-2.0-1.16"	"00fl9o"	"600"	"1366"	"chrome"	"108.0.0"	"FALSE"	"Windows 10"	"60.72"	n/a	n/a	n/a	n/a	n/a	n/a	"Trial"	n/a	n/a	n/a	n/a	"NULL"	"NULL"	"NULL"	"552"	"stimuli/MullerLyer_8.21429_-0.07627.png"	"arrowup"	n/a	"MullerLyer"	"arrowdown"	"1045"	"FALSE"	"MullerLyer"	"8.2142900000"	"-0.076270000"	"2"	"17"
n/a	"html-keyboard-response"	"217"	"310354"	"0.0-5.0-2.0-0.17"	"00fl9o"	"600"	"1366"	"chrome"	"108.0.0"	"FALSE"	"Windows 10"	"60.72"	n/a	n/a	n/a	n/a	n/a	n/a	"fixation"	n/a	n/a	n/a	n/a	"NULL"	"NULL"	"NULL"	n/a	"<p style=\"color: black; font-size: 80px; padding-left: 21%; padding-right: 30%; padding-top: 24%; padding-bottom: 45%\">+</p>"	n/a	"1326"	n/a	n/a	n/a	n/a	n/a	n/a	n/a	n/a	n/a
n/a	"image-keyboard-response"	"218"	"310798"	"0.0-5.0-2.0-1.17"	"00fl9o"	"600"	"1366"	"chrome"	"108.0.0"	"FALSE"	"Windows 10"	"60.72"	n/a	n/a	n/a	n/a	n/a	n/a	"Trial"	n/a	n/a	n/a	n/a	"NULL"	"NULL"	"NULL"	"443"	"stimuli/MullerLyer_-8.21429_0.14541.png"	"arrowup"	n/a	"MullerLyer"	"arrowup"	"1347"	"TRUE"	"MullerLyer"	"-8.214290000"	"0.1454100000"	"2"	"18"
n/a	"html-keyboard-response"	"219"	"312308"	"0.0-5.0-2.0-0.18"	"00fl9o"	"600"	"1366"	"chrome"	"108.0.0"	"FALSE"	"Windows 10"	"60.72"	n/a	n/a	n/a	n/a	n/a	n/a	"fixation"	n/a	n/a	n/a	n/a	"NULL"	"NULL"	"NULL"	n/a	"<p style=\"color: black; font-size: 80px; padding-left: 8%; padding-right: 17%; padding-top: 36%; padding-bottom: 16%\">+</p>"	n/a	"1494"	n/a	n/a	n/a	n/a	n/a	n/a	n/a	n/a	n/a
n/a	"image-keyboard-response"	"220"	"312897"	"0.0-5.0-2.0-1.18"	"00fl9o"	"600"	"1366"	"chrome"	"108.0.0"	"FALSE"	"Windows 10"	"60.72"	n/a	n/a	n/a	n/a	n/a	n/a	"Trial"	n/a	n/a	n/a	n/a	"NULL"	"NULL"	"NULL"	"588"	"stimuli/MullerLyer_-2.3000_0.14541.png"	"arrowup"	n/a	"MullerLyer"	"arrowup"	"1510"	"TRUE"	"MullerLyer"	"-2.300000000"	"0.1454100000"	"2"	"19"
n/a	"html-keyboard-response"	"221"	"313934"	"0.0-5.0-2.0-0.19"	"00fl9o"	"600"	"1366"	"chrome"	"108.0.0"	"FALSE"	"Windows 10"	"60.72"	n/a	n/a	n/a	n/a	n/a	n/a	"fixation"	n/a	n/a	n/a	n/a	"NULL"	"NULL"	"NULL"	n/a	"<p style=\"color: black; font-size: 80px; padding-left: 3%; padding-right: 33%; padding-top: 27%; padding-bottom: 38%\">+</p>"	n/a	"1034"	n/a	n/a	n/a	n/a	n/a	n/a	n/a	n/a	n/a
n/a	"image-keyboard-response"	"222"	"314342"	"0.0-5.0-2.0-1.19"	"00fl9o"	"600"	"1366"	"chrome"	"108.0.0"	"FALSE"	"Windows 10"	"60.72"	n/a	n/a	n/a	n/a	n/a	n/a	"Trial"	n/a	n/a	n/a	n/a	"NULL"	"NULL"	"NULL"	"401"	"stimuli/MullerLyer_-14.12857_0.23665.png"	"arrowup"	n/a	"MullerLyer"	"arrowup"	"1037"	"TRUE"	"MullerLyer"	"-14.12857000"	"0.2366500000"	"2"	"20"
n/a	"html-keyboard-response"	"223"	"315387"	"0.0-5.0-2.0-0.20"	"00fl9o"	"600"	"1366"	"chrome"	"108.0.0"	"FALSE"	"Windows 10"	"60.72"	n/a	n/a	n/a	n/a	n/a	n/a	"fixation"	n/a	n/a	n/a	n/a	"NULL"	"NULL"	"NULL"	n/a	"<p style=\"color: black; font-size: 80px; padding-left: 36%; padding-right: 22%; padding-top: 14%; padding-bottom: 15%\">+</p>"	n/a	"1025"	n/a	n/a	n/a	n/a	n/a	n/a	n/a	n/a	n/a
n/a	"image-keyboard-response"	"224"	"315940"	"0.0-5.0-2.0-1.20"	"00fl9o"	"600"	"1366"	"chrome"	"108.0.0"	"FALSE"	"Windows 10"	"60.72"	n/a	n/a	n/a	n/a	n/a	n/a	"Trial"	n/a	n/a	n/a	n/a	"NULL"	"NULL"	"NULL"	"552"	"stimuli/MullerLyer_-2.3000_-0.14541.png"	"arrowdown"	n/a	"MullerLyer"	"arrowdown"	"1045"	"TRUE"	"MullerLyer"	"-2.300000000"	"-0.145410000"	"2"	"21"
n/a	"html-keyboard-response"	"225"	"316989"	"0.0-5.0-2.0-0.21"	"00fl9o"	"600"	"1366"	"chrome"	"108.0.0"	"FALSE"	"Windows 10"	"60.72"	n/a	n/a	n/a	n/a	n/a	n/a	"fixation"	n/a	n/a	n/a	n/a	"NULL"	"NULL"	"NULL"	n/a	"<p style=\"color: black; font-size: 80px; padding-left: 18%; padding-right: 4%; padding-top: 5%; padding-bottom: 27%\">+</p>"	n/a	"1035"	n/a	n/a	n/a	n/a	n/a	n/a	n/a	n/a	n/a
n/a	"image-keyboard-response"	"226"	"317503"	"0.0-5.0-2.0-1.21"	"00fl9o"	"600"	"1366"	"chrome"	"108.0.0"	"FALSE"	"Windows 10"	"60.72"	n/a	n/a	n/a	n/a	n/a	n/a	"Trial"	n/a	n/a	n/a	n/a	"NULL"	"NULL"	"NULL"	"512"	"stimuli/MullerLyer_20.04286_0.35000.png"	"arrowup"	n/a	"MullerLyer"	"arrowup"	"1049"	"TRUE"	"MullerLyer"	"20.042860000"	"0.3500000000"	"2"	"22"
n/a	"html-keyboard-response"	"227"	"318701"	"0.0-5.0-2.0-0.22"	"00fl9o"	"600"	"1366"	"chrome"	"108.0.0"	"FALSE"	"Windows 10"	"60.72"	n/a	n/a	n/a	n/a	n/a	n/a	"fixation"	n/a	n/a	n/a	n/a	"NULL"	"NULL"	"NULL"	n/a	"<p style=\"color: black; font-size: 80px; padding-left: 19%; padding-right: 36%; padding-top: 2%; padding-bottom: 40%\">+</p>"	n/a	"1197"	n/a	n/a	n/a	n/a	n/a	n/a	n/a	n/a	n/a
n/a	"image-keyboard-response"	"228"	"319152"	"0.0-5.0-2.0-1.22"	"00fl9o"	"600"	"1366"	"chrome"	"108.0.0"	"FALSE"	"Windows 10"	"60.72"	n/a	n/a	n/a	n/a	n/a	n/a	"Trial"	n/a	n/a	n/a	n/a	"NULL"	"NULL"	"NULL"	"449"	"stimuli/MullerLyer_-20.04286_-0.3500.png"	"arrowdown"	n/a	"MullerLyer"	"arrowdown"	"1198"	"TRUE"	"MullerLyer"	"-20.04286000"	"-0.350000000"	"2"	"23"
n/a	"html-keyboard-response"	"229"	"320203"	"0.0-5.0-2.0-0.23"	"00fl9o"	"600"	"1366"	"chrome"	"108.0.0"	"FALSE"	"Windows 10"	"60.72"	n/a	n/a	n/a	n/a	n/a	n/a	"fixation"	n/a	n/a	n/a	n/a	"NULL"	"NULL"	"NULL"	n/a	"<p style=\"color: black; font-size: 80px; padding-left: 14%; padding-right: 49%; padding-top: 8%; padding-bottom: 44%\">+</p>"	n/a	"1038"	n/a	n/a	n/a	n/a	n/a	n/a	n/a	n/a	n/a
n/a	"image-keyboard-response"	"230"	"320737"	"0.0-5.0-2.0-1.23"	"00fl9o"	"600"	"1366"	"chrome"	"108.0.0"	"FALSE"	"Windows 10"	"60.72"	n/a	n/a	n/a	n/a	n/a	n/a	"Trial"	n/a	n/a	n/a	n/a	"NULL"	"NULL"	"NULL"	"533"	"stimuli/MullerLyer_-2.3000_0.07627.png"	"arrowup"	n/a	"MullerLyer"	"arrowup"	"1051"	"TRUE"	"MullerLyer"	"-2.300000000"	"0.0762700000"	"2"	"24"
n/a	"html-keyboard-response"	"231"	"322179"	"0.0-5.0-2.0-0.24"	"00fl9o"	"600"	"1366"	"chrome"	"108.0.0"	"FALSE"	"Windows 10"	"60.72"	n/a	n/a	n/a	n/a	n/a	n/a	"fixation"	n/a	n/a	n/a	n/a	"NULL"	"NULL"	"NULL"	n/a	"<p style=\"color: black; font-size: 80px; padding-left: 1%; padding-right: 9%; padding-top: 25%; padding-bottom: 1%\">+</p>"	n/a	"1427"	n/a	n/a	n/a	n/a	n/a	n/a	n/a	n/a	n/a
n/a	"image-keyboard-response"	"232"	"322886"	"0.0-5.0-2.0-1.24"	"00fl9o"	"600"	"1366"	"chrome"	"108.0.0"	"FALSE"	"Windows 10"	"60.72"	n/a	n/a	n/a	n/a	n/a	n/a	"Trial"	n/a	n/a	n/a	n/a	"NULL"	"NULL"	"NULL"	"706"	"stimuli/MullerLyer_8.21429_0.14541.png"	"arrowdown"	n/a	"MullerLyer"	"arrowup"	"1442"	"FALSE"	"MullerLyer"	"8.2142900000"	"0.1454100000"	"2"	"25"
n/a	"html-keyboard-response"	"233"	"324184"	"0.0-5.0-2.0-0.25"	"00fl9o"	"600"	"1366"	"chrome"	"108.0.0"	"FALSE"	"Windows 10"	"60.72"	n/a	n/a	n/a	n/a	n/a	n/a	"fixation"	n/a	n/a	n/a	n/a	"NULL"	"NULL"	"NULL"	n/a	"<p style=\"color: black; font-size: 80px; padding-left: 12%; padding-right: 48%; padding-top: 39%; padding-bottom: 24%\">+</p>"	n/a	"1283"	n/a	n/a	n/a	n/a	n/a	n/a	n/a	n/a	n/a
n/a	"image-keyboard-response"	"234"	"324632"	"0.0-5.0-2.0-1.25"	"00fl9o"	"600"	"1366"	"chrome"	"108.0.0"	"FALSE"	"Windows 10"	"60.72"	n/a	n/a	n/a	n/a	n/a	n/a	"Trial"	n/a	n/a	n/a	n/a	"NULL"	"NULL"	"NULL"	"448"	"stimuli/MullerLyer_-8.21429_0.35000.png"	"arrowup"	n/a	"MullerLyer"	"arrowup"	"1298"	"TRUE"	"MullerLyer"	"-8.214290000"	"0.3500000000"	"2"	"26"
n/a	"html-keyboard-response"	"235"	"325975"	"0.0-5.0-2.0-0.26"	"00fl9o"	"600"	"1366"	"chrome"	"108.0.0"	"FALSE"	"Windows 10"	"60.72"	n/a	n/a	n/a	n/a	n/a	n/a	"fixation"	n/a	n/a	n/a	n/a	"NULL"	"NULL"	"NULL"	n/a	"<p style=\"color: black; font-size: 80px; padding-left: 40%; padding-right: 28%; padding-top: 8%; padding-bottom: 21%\">+</p>"	n/a	"1336"	n/a	n/a	n/a	n/a	n/a	n/a	n/a	n/a	n/a
n/a	"image-keyboard-response"	"236"	"326387"	"0.0-5.0-2.0-1.26"	"00fl9o"	"600"	"1366"	"chrome"	"108.0.0"	"FALSE"	"Windows 10"	"60.72"	n/a	n/a	n/a	n/a	n/a	n/a	"Trial"	n/a	n/a	n/a	n/a	"NULL"	"NULL"	"NULL"	"410"	"stimuli/MullerLyer_-20.04286_0.35000.png"	"arrowup"	n/a	"MullerLyer"	"arrowup"	"1343"	"TRUE"	"MullerLyer"	"-20.04286000"	"0.3500000000"	"2"	"27"
n/a	"html-keyboard-response"	"237"	"327623"	"0.0-5.0-2.0-0.27"	"00fl9o"	"600"	"1366"	"chrome"	"108.0.0"	"FALSE"	"Windows 10"	"60.72"	n/a	n/a	n/a	n/a	n/a	n/a	"fixation"	n/a	n/a	n/a	n/a	"NULL"	"NULL"	"NULL"	n/a	"<p style=\"color: black; font-size: 80px; padding-left: 3%; padding-right: 5%; padding-top: 43%; padding-bottom: 24%\">+</p>"	n/a	"1228"	n/a	n/a	n/a	n/a	n/a	n/a	n/a	n/a	n/a
n/a	"image-keyboard-response"	"238"	"328266"	"0.0-5.0-2.0-1.27"	"00fl9o"	"600"	"1366"	"chrome"	"108.0.0"	"FALSE"	"Windows 10"	"60.72"	n/a	n/a	n/a	n/a	n/a	n/a	"Trial"	n/a	n/a	n/a	n/a	"NULL"	"NULL"	"NULL"	"642"	"stimuli/MullerLyer_8.21429_-0.23665.png"	"arrowdown"	n/a	"MullerLyer"	"arrowdown"	"1236"	"TRUE"	"MullerLyer"	"8.2142900000"	"-0.236650000"	"2"	"28"
n/a	"html-keyboard-response"	"239"	"329621"	"0.0-5.0-2.0-0.28"	"00fl9o"	"600"	"1366"	"chrome"	"108.0.0"	"FALSE"	"Windows 10"	"60.72"	n/a	n/a	n/a	n/a	n/a	n/a	"fixation"	n/a	n/a	n/a	n/a	"NULL"	"NULL"	"NULL"	n/a	"<p style=\"color: black; font-size: 80px; padding-left: 47%; padding-right: 18%; padding-top: 12%; padding-bottom: 28%\">+</p>"	n/a	"1339"	n/a	n/a	n/a	n/a	n/a	n/a	n/a	n/a	n/a
n/a	"image-keyboard-response"	"240"	"330101"	"0.0-5.0-2.0-1.28"	"00fl9o"	"600"	"1366"	"chrome"	"108.0.0"	"FALSE"	"Windows 10"	"60.72"	n/a	n/a	n/a	n/a	n/a	n/a	"Trial"	n/a	n/a	n/a	n/a	"NULL"	"NULL"	"NULL"	"479"	"stimuli/MullerLyer_-8.21429_-0.3500.png"	"arrowdown"	n/a	"MullerLyer"	"arrowdown"	"1355"	"TRUE"	"MullerLyer"	"-8.214290000"	"-0.350000000"	"2"	"29"
n/a	"html-keyboard-response"	"241"	"331216"	"0.0-5.0-2.0-0.29"	"00fl9o"	"600"	"1366"	"chrome"	"108.0.0"	"FALSE"	"Windows 10"	"60.72"	n/a	n/a	n/a	n/a	n/a	n/a	"fixation"	n/a	n/a	n/a	n/a	"NULL"	"NULL"	"NULL"	n/a	"<p style=\"color: black; font-size: 80px; padding-left: 40%; padding-right: 2%; padding-top: 26%; padding-bottom: 48%\">+</p>"	n/a	"1108"	n/a	n/a	n/a	n/a	n/a	n/a	n/a	n/a	n/a
n/a	"image-keyboard-response"	"242"	"331651"	"0.0-5.0-2.0-1.29"	"00fl9o"	"600"	"1366"	"chrome"	"108.0.0"	"FALSE"	"Windows 10"	"60.72"	n/a	n/a	n/a	n/a	n/a	n/a	"Trial"	n/a	n/a	n/a	n/a	"NULL"	"NULL"	"NULL"	"433"	"stimuli/MullerLyer_-2.3000_-0.3500.png"	"arrowdown"	n/a	"MullerLyer"	"arrowdown"	"1115"	"TRUE"	"MullerLyer"	"-2.300000000"	"-0.350000000"	"2"	"30"
n/a	"html-keyboard-response"	"243"	"332779"	"0.0-5.0-2.0-0.30"	"00fl9o"	"600"	"1366"	"chrome"	"108.0.0"	"FALSE"	"Windows 10"	"60.72"	n/a	n/a	n/a	n/a	n/a	n/a	"fixation"	n/a	n/a	n/a	n/a	"NULL"	"NULL"	"NULL"	n/a	"<p style=\"color: black; font-size: 80px; padding-left: 13%; padding-right: 30%; padding-top: 44%; padding-bottom: 46%\">+</p>"	n/a	"1117"	n/a	n/a	n/a	n/a	n/a	n/a	n/a	n/a	n/a
n/a	"image-keyboard-response"	"244"	"333295"	"0.0-5.0-2.0-1.30"	"00fl9o"	"600"	"1366"	"chrome"	"108.0.0"	"FALSE"	"Windows 10"	"60.72"	n/a	n/a	n/a	n/a	n/a	n/a	"Trial"	n/a	n/a	n/a	n/a	"NULL"	"NULL"	"NULL"	"516"	"stimuli/MullerLyer_2.30000_-0.14541.png"	"arrowdown"	n/a	"MullerLyer"	"arrowdown"	"1128"	"TRUE"	"MullerLyer"	"2.3000000000"	"-0.145410000"	"2"	"31"
n/a	"html-keyboard-response"	"245"	"334702"	"0.0-5.0-2.0-0.31"	"00fl9o"	"600"	"1366"	"chrome"	"108.0.0"	"FALSE"	"Windows 10"	"60.72"	n/a	n/a	n/a	n/a	n/a	n/a	"fixation"	n/a	n/a	n/a	n/a	"NULL"	"NULL"	"NULL"	n/a	"<p style=\"color: black; font-size: 80px; padding-left: 40%; padding-right: 3%; padding-top: 11%; padding-bottom: 39%\">+</p>"	n/a	"1400"	n/a	n/a	n/a	n/a	n/a	n/a	n/a	n/a	n/a
n/a	"image-keyboard-response"	"246"	"335234"	"0.0-5.0-2.0-1.31"	"00fl9o"	"600"	"1366"	"chrome"	"108.0.0"	"FALSE"	"Windows 10"	"60.72"	n/a	n/a	n/a	n/a	n/a	n/a	"Trial"	n/a	n/a	n/a	n/a	"NULL"	"NULL"	"NULL"	"531"	"stimuli/MullerLyer_-2.3000_-0.23665.png"	"arrowdown"	n/a	"MullerLyer"	"arrowdown"	"1407"	"TRUE"	"MullerLyer"	"-2.300000000"	"-0.236650000"	"2"	"32"
n/a	"html-keyboard-response"	"247"	"336715"	"0.0-5.0-2.0-0.32"	"00fl9o"	"600"	"1366"	"chrome"	"108.0.0"	"FALSE"	"Windows 10"	"60.72"	n/a	n/a	n/a	n/a	n/a	n/a	"fixation"	n/a	n/a	n/a	n/a	"NULL"	"NULL"	"NULL"	n/a	"<p style=\"color: black; font-size: 80px; padding-left: 0%; padding-right: 32%; padding-top: 38%; padding-bottom: 42%\">+</p>"	n/a	"1467"	n/a	n/a	n/a	n/a	n/a	n/a	n/a	n/a	n/a
n/a	"image-keyboard-response"	"248"	"337208"	"0.0-5.0-2.0-1.32"	"00fl9o"	"600"	"1366"	"chrome"	"108.0.0"	"FALSE"	"Windows 10"	"60.72"	n/a	n/a	n/a	n/a	n/a	n/a	"Trial"	n/a	n/a	n/a	n/a	"NULL"	"NULL"	"NULL"	"493"	"stimuli/MullerLyer_2.30000_0.35000.png"	"arrowup"	n/a	"MullerLyer"	"arrowup"	"1481"	"TRUE"	"MullerLyer"	"2.3000000000"	"0.3500000000"	"2"	"33"
n/a	"html-keyboard-response"	"249"	"338425"	"0.0-5.0-2.0-0.33"	"00fl9o"	"600"	"1366"	"chrome"	"108.0.0"	"FALSE"	"Windows 10"	"60.72"	n/a	n/a	n/a	n/a	n/a	n/a	"fixation"	n/a	n/a	n/a	n/a	"NULL"	"NULL"	"NULL"	n/a	"<p style=\"color: black; font-size: 80px; padding-left: 0%; padding-right: 19%; padding-top: 5%; padding-bottom: 46%\">+</p>"	n/a	"1201"	n/a	n/a	n/a	n/a	n/a	n/a	n/a	n/a	n/a
n/a	"image-keyboard-response"	"250"	"338940"	"0.0-5.0-2.0-1.33"	"00fl9o"	"600"	"1366"	"chrome"	"108.0.0"	"FALSE"	"Windows 10"	"60.72"	n/a	n/a	n/a	n/a	n/a	n/a	"Trial"	n/a	n/a	n/a	n/a	"NULL"	"NULL"	"NULL"	"513"	"stimuli/MullerLyer_-20.04286_-0.07627.png"	"arrowdown"	n/a	"MullerLyer"	"arrowdown"	"1217"	"TRUE"	"MullerLyer"	"-20.04286000"	"-0.076270000"	"2"	"34"
n/a	"html-keyboard-response"	"251"	"340295"	"0.0-5.0-2.0-0.34"	"00fl9o"	"600"	"1366"	"chrome"	"108.0.0"	"FALSE"	"Windows 10"	"60.72"	n/a	n/a	n/a	n/a	n/a	n/a	"fixation"	n/a	n/a	n/a	n/a	"NULL"	"NULL"	"NULL"	n/a	"<p style=\"color: black; font-size: 80px; padding-left: 24%; padding-right: 36%; padding-top: 11%; padding-bottom: 20%\">+</p>"	n/a	"1343"	n/a	n/a	n/a	n/a	n/a	n/a	n/a	n/a	n/a
n/a	"image-keyboard-response"	"252"	"340637"	"0.0-5.0-2.0-1.34"	"00fl9o"	"600"	"1366"	"chrome"	"108.0.0"	"FALSE"	"Windows 10"	"60.72"	n/a	n/a	n/a	n/a	n/a	n/a	"Trial"	n/a	n/a	n/a	n/a	"NULL"	"NULL"	"NULL"	"340"	"stimuli/MullerLyer_14.12857_0.14541.png"	"arrowup"	n/a	"MullerLyer"	"arrowup"	"1355"	"TRUE"	"MullerLyer"	"14.128570000"	"0.1454100000"	"2"	"35"
n/a	"html-keyboard-response"	"253"	"341949"	"0.0-5.0-2.0-0.35"	"00fl9o"	"600"	"1366"	"chrome"	"108.0.0"	"FALSE"	"Windows 10"	"60.72"	n/a	n/a	n/a	n/a	n/a	n/a	"fixation"	n/a	n/a	n/a	n/a	"NULL"	"NULL"	"NULL"	n/a	"<p style=\"color: black; font-size: 80px; padding-left: 35%; padding-right: 46%; padding-top: 26%; padding-bottom: 27%\">+</p>"	n/a	"1308"	n/a	n/a	n/a	n/a	n/a	n/a	n/a	n/a	n/a
n/a	"image-keyboard-response"	"254"	"342402"	"0.0-5.0-2.0-1.35"	"00fl9o"	"600"	"1366"	"chrome"	"108.0.0"	"FALSE"	"Windows 10"	"60.72"	n/a	n/a	n/a	n/a	n/a	n/a	"Trial"	n/a	n/a	n/a	n/a	"NULL"	"NULL"	"NULL"	"451"	"stimuli/MullerLyer_-8.21429_0.07627.png"	"arrowup"	n/a	"MullerLyer"	"arrowup"	"1312"	"TRUE"	"MullerLyer"	"-8.214290000"	"0.0762700000"	"2"	"36"
n/a	"html-keyboard-response"	"255"	"343699"	"0.0-5.0-2.0-0.36"	"00fl9o"	"600"	"1366"	"chrome"	"108.0.0"	"FALSE"	"Windows 10"	"60.72"	n/a	n/a	n/a	n/a	n/a	n/a	"fixation"	n/a	n/a	n/a	n/a	"NULL"	"NULL"	"NULL"	n/a	"<p style=\"color: black; font-size: 80px; padding-left: 4%; padding-right: 38%; padding-top: 24%; padding-bottom: 10%\">+</p>"	n/a	"1279"	n/a	n/a	n/a	n/a	n/a	n/a	n/a	n/a	n/a
n/a	"image-keyboard-response"	"256"	"344165"	"0.0-5.0-2.0-1.36"	"00fl9o"	"600"	"1366"	"chrome"	"108.0.0"	"FALSE"	"Windows 10"	"60.72"	n/a	n/a	n/a	n/a	n/a	n/a	"Trial"	n/a	n/a	n/a	n/a	"NULL"	"NULL"	"NULL"	"466"	"stimuli/MullerLyer_8.21429_0.07627.png"	"arrowdown"	n/a	"MullerLyer"	"arrowup"	"1297"	"FALSE"	"MullerLyer"	"8.2142900000"	"0.0762700000"	"2"	"37"
n/a	"html-keyboard-response"	"257"	"345575"	"0.0-5.0-2.0-0.37"	"00fl9o"	"600"	"1366"	"chrome"	"108.0.0"	"FALSE"	"Windows 10"	"60.72"	n/a	n/a	n/a	n/a	n/a	n/a	"fixation"	n/a	n/a	n/a	n/a	"NULL"	"NULL"	"NULL"	n/a	"<p style=\"color: black; font-size: 80px; padding-left: 47%; padding-right: 16%; padding-top: 31%; padding-bottom: 6%\">+</p>"	n/a	"1395"	n/a	n/a	n/a	n/a	n/a	n/a	n/a	n/a	n/a
n/a	"image-keyboard-response"	"258"	"346027"	"0.0-5.0-2.0-1.37"	"00fl9o"	"600"	"1366"	"chrome"	"108.0.0"	"FALSE"	"Windows 10"	"60.72"	n/a	n/a	n/a	n/a	n/a	n/a	"Trial"	n/a	n/a	n/a	n/a	"NULL"	"NULL"	"NULL"	"450"	"stimuli/MullerLyer_2.30000_-0.23665.png"	"arrowdown"	n/a	"MullerLyer"	"arrowdown"	"1410"	"TRUE"	"MullerLyer"	"2.3000000000"	"-0.236650000"	"2"	"38"
