"success"	"trial_type"	"trial_index"	"time_elapsed"	"internal_node_id"	"participant_id"	"screen_height"	"screen_width"	"browser"	"browser_version"	"mobile"	"os"	"vsync_rate"	"subject_id"	"width"	"height"	"webaudio"	"fullscreen"	"webcam"	"microphone"	"screen"	"version"	"date"	"time"	"rt"	"response"	"timeout"	"failed_images"	"failed_audio"	"failed_video"	"stimulus"	"trial_duration"	"block"	"correct_response"	"prestimulus_duration"	"correct"	"type"	"illusion_strength"	"illusion_difference"	"block_number"	"trial_number"
"TRUE"	"fullscreen"	"0"	"1193"	"0.0-0.0"	"9pyfsz"	"600"	"1366"	"chrome"	"111.0.0"	"FALSE"	"Windows 10"	"60.09"	"053"	n/a	n/a	n/a	n/a	n/a	n/a	n/a	n/a	n/a	n/a	n/a	"NULL"	n/a	"NULL"	"NULL"	"NULL"	n/a	n/a	n/a	n/a	n/a	n/a	n/a	n/a	n/a	n/a	n/a
n/a	"browser-check"	"1"	"2203"	"0.0-1.0"	"9pyfsz"	"600"	"1366"	"chrome"	"111.0.0"	"FALSE"	"Windows 10"	"60.09"	"053"	"1366"	"600"	"TRUE"	"TRUE"	"TRUE"	"TRUE"	"browser_info"	"1.0"	"21/03/2023"	"10:43:58"	n/a	"NULL"	n/a	"NULL"	"NULL"	"NULL"	n/a	n/a	n/a	n/a	n/a	n/a	n/a	n/a	n/a	n/a	n/a
n/a	"survey-text"	"2"	"5856"	"0.0-2.0"	"9pyfsz"	"600"	"1366"	"chrome"	"111.0.0"	"FALSE"	"Windows 10"	"60.09"	"053"	n/a	n/a	n/a	n/a	n/a	n/a	"subject_id"	n/a	n/a	n/a	"3648"	"list(subject_id = \"053\")"	n/a	"NULL"	"NULL"	"NULL"	n/a	n/a	n/a	n/a	n/a	n/a	n/a	n/a	n/a	n/a	n/a
"TRUE"	"preload"	"3"	"5868"	"0.0-3.0"	"9pyfsz"	"600"	"1366"	"chrome"	"111.0.0"	"FALSE"	"Windows 10"	"60.09"	"053"	n/a	n/a	n/a	n/a	n/a	n/a	n/a	n/a	n/a	n/a	n/a	"NULL"	"FALSE"	"list()"	"list()"	"list()"	n/a	n/a	n/a	n/a	n/a	n/a	n/a	n/a	n/a	n/a	n/a
n/a	"html-button-response"	"4"	"25759"	"0.0-4.0-0.0"	"9pyfsz"	"600"	"1366"	"chrome"	"111.0.0"	"FALSE"	"Windows 10"	"60.09"	"053"	n/a	n/a	n/a	n/a	n/a	n/a	"illusion_instructions"	n/a	n/a	n/a	"19890"	"0"	n/a	"NULL"	"NULL"	"NULL"	"<p><b>Illusion Game</b></p><p>In this game of speed and reflex, you will need to make <b>visual judgments</b> (for instance, which circle is the biggest, or which line is the longest), as fast and as correctly as possible, while <b>resisting different visual illusions</b>.</p><p>We are going to start with some examples of all the illusions you will encounter in the game.</p>"	n/a	n/a	n/a	n/a	n/a	n/a	n/a	n/a	n/a	n/a
"TRUE"	"preload"	"5"	"25784"	"0.0-4.0-1.0-0.0"	"9pyfsz"	"600"	"1366"	"chrome"	"111.0.0"	"FALSE"	"Windows 10"	"60.09"	"053"	n/a	n/a	n/a	n/a	n/a	n/a	n/a	n/a	n/a	n/a	n/a	"NULL"	"FALSE"	"list()"	"list()"	"list()"	n/a	n/a	n/a	n/a	n/a	n/a	n/a	n/a	n/a	n/a	n/a
n/a	"html-keyboard-response"	"6"	"50958"	"0.0-4.0-1.0-1.0"	"9pyfsz"	"600"	"1366"	"chrome"	"111.0.0"	"FALSE"	"Windows 10"	"60.09"	"053"	n/a	n/a	n/a	n/a	n/a	n/a	n/a	n/a	n/a	n/a	"25172"	"enter"	n/a	"NULL"	"NULL"	"NULL"	"<p><b>Practice</b></p><p>In this part, two red circles will appear side by side on the screen.</p><p>Your task is to select which <b>red circle is bigger</b> in size as fast as you can, without making errors.</p><p>Don't get distracted by the surrounding black circles around the red circles!</p><p>Press <b>the LEFT or the RIGHT arrow</b> to indicate which is the bigger <b>red circle.</b></p><div style='float: center'><img src='materials/instructions/Ebbinghaus_Demo.png' height='300'></img><p><img src='utils/answer/answer_leftright_keyboard.PNG' height='150'></img></p><p class='small'>In this example, the correct answer is the <b>LEFT arrow</b>.</p></div><p>Are you ready? <b>Press ENTER to start</b></p>"	n/a	n/a	n/a	n/a	n/a	n/a	n/a	n/a	n/a	n/a
n/a	"html-keyboard-response"	"7"	"52645"	"0.0-4.0-1.0-2.0-0.0"	"9pyfsz"	"600"	"1366"	"chrome"	"111.0.0"	"FALSE"	"Windows 10"	"60.09"	"053"	n/a	n/a	n/a	n/a	n/a	n/a	"fixation"	n/a	n/a	n/a	n/a	"NULL"	n/a	"NULL"	"NULL"	"NULL"	"<p style=\"color: black; font-size: 80px; padding-left: 31%; padding-right: 17%; padding-top: 35%; padding-bottom: 45%\">+</p>"	"1182"	n/a	n/a	n/a	n/a	n/a	n/a	n/a	n/a	n/a
n/a	"image-keyboard-response"	"8"	"53502"	"0.0-4.0-1.0-2.0-1.0"	"9pyfsz"	"600"	"1366"	"chrome"	"111.0.0"	"FALSE"	"Windows 10"	"60.09"	"053"	n/a	n/a	n/a	n/a	n/a	n/a	"Trial"	n/a	n/a	n/a	"758"	"arrowright"	n/a	"NULL"	"NULL"	"NULL"	"stimuli/Ebbinghaus_0000000_-1.4000.png"	n/a	"Ebbinghaus"	"arrowright"	"1687"	"TRUE"	"Ebbinghaus"	"000000000000"	"-1.400000000"	"1"	"1"
n/a	"html-keyboard-response"	"9"	"54830"	"0.0-4.0-1.0-2.0-0.1"	"9pyfsz"	"600"	"1366"	"chrome"	"111.0.0"	"FALSE"	"Windows 10"	"60.09"	"053"	n/a	n/a	n/a	n/a	n/a	n/a	"fixation"	n/a	n/a	n/a	n/a	"NULL"	n/a	"NULL"	"NULL"	"NULL"	"<p style=\"color: black; font-size: 80px; padding-left: 23%; padding-right: 29%; padding-top: 11%; padding-bottom: 19%\">+</p>"	"1318"	n/a	n/a	n/a	n/a	n/a	n/a	n/a	n/a	n/a
n/a	"image-keyboard-response"	"10"	"55381"	"0.0-4.0-1.0-2.0-1.1"	"9pyfsz"	"600"	"1366"	"chrome"	"111.0.0"	"FALSE"	"Windows 10"	"60.09"	"053"	n/a	n/a	n/a	n/a	n/a	n/a	"Trial"	n/a	n/a	n/a	"550"	"arrowleft"	n/a	"NULL"	"NULL"	"NULL"	"stimuli/Ebbinghaus_-100000_1.40000.png"	n/a	"Ebbinghaus"	"arrowleft"	"1328"	"TRUE"	"Ebbinghaus"	"-10000000000"	"1.4000000000"	"1"	"2"
n/a	"html-keyboard-response"	"11"	"56862"	"0.0-4.0-1.0-2.0-0.2"	"9pyfsz"	"600"	"1366"	"chrome"	"111.0.0"	"FALSE"	"Windows 10"	"60.09"	"053"	n/a	n/a	n/a	n/a	n/a	n/a	"fixation"	n/a	n/a	n/a	n/a	"NULL"	n/a	"NULL"	"NULL"	"NULL"	"<p style=\"color: black; font-size: 80px; padding-left: 10%; padding-right: 4%; padding-top: 16%; padding-bottom: 21%\">+</p>"	"1466"	n/a	n/a	n/a	n/a	n/a	n/a	n/a	n/a	n/a
n/a	"image-keyboard-response"	"12"	"57347"	"0.0-4.0-1.0-2.0-1.2"	"9pyfsz"	"600"	"1366"	"chrome"	"111.0.0"	"FALSE"	"Windows 10"	"60.09"	"053"	n/a	n/a	n/a	n/a	n/a	n/a	"Trial"	n/a	n/a	n/a	"484"	"arrowright"	n/a	"NULL"	"NULL"	"NULL"	"stimuli/Ebbinghaus_1000000_-1.4000.png"	n/a	"Ebbinghaus"	"arrowright"	"1481"	"TRUE"	"Ebbinghaus"	"100000000000"	"-1.400000000"	"1"	"3"
n/a	"html-keyboard-response"	"13"	"58641"	"0.0-4.0-1.0-2.0-0.3"	"9pyfsz"	"600"	"1366"	"chrome"	"111.0.0"	"FALSE"	"Windows 10"	"60.09"	"053"	n/a	n/a	n/a	n/a	n/a	n/a	"fixation"	n/a	n/a	n/a	n/a	"NULL"	n/a	"NULL"	"NULL"	"NULL"	"<p style=\"color: black; font-size: 80px; padding-left: 13%; padding-right: 40%; padding-top: 7%; padding-bottom: 7%\">+</p>"	"1280"	n/a	n/a	n/a	n/a	n/a	n/a	n/a	n/a	n/a
n/a	"image-keyboard-response"	"14"	"59092"	"0.0-4.0-1.0-2.0-1.3"	"9pyfsz"	"600"	"1366"	"chrome"	"111.0.0"	"FALSE"	"Windows 10"	"60.09"	"053"	n/a	n/a	n/a	n/a	n/a	n/a	"Trial"	n/a	n/a	n/a	"450"	"arrowleft"	n/a	"NULL"	"NULL"	"NULL"	"stimuli/Ebbinghaus_0000000_1.40000.png"	n/a	"Ebbinghaus"	"arrowleft"	"1294"	"TRUE"	"Ebbinghaus"	"000000000000"	"1.4000000000"	"1"	"4"
n/a	"html-keyboard-response"	"15"	"60597"	"0.0-4.0-1.0-2.0-0.4"	"9pyfsz"	"600"	"1366"	"chrome"	"111.0.0"	"FALSE"	"Windows 10"	"60.09"	"053"	n/a	n/a	n/a	n/a	n/a	n/a	"fixation"	n/a	n/a	n/a	n/a	"NULL"	n/a	"NULL"	"NULL"	"NULL"	"<p style=\"color: black; font-size: 80px; padding-left: 23%; padding-right: 28%; padding-top: 48%; padding-bottom: 1%\">+</p>"	"1490"	n/a	n/a	n/a	n/a	n/a	n/a	n/a	n/a	n/a
n/a	"image-keyboard-response"	"16"	"61133"	"0.0-4.0-1.0-2.0-1.4"	"9pyfsz"	"600"	"1366"	"chrome"	"111.0.0"	"FALSE"	"Windows 10"	"60.09"	"053"	n/a	n/a	n/a	n/a	n/a	n/a	"Trial"	n/a	n/a	n/a	"536"	"arrowright"	n/a	"NULL"	"NULL"	"NULL"	"stimuli/Ebbinghaus_-100000_-1.4000.png"	n/a	"Ebbinghaus"	"arrowright"	"1505"	"TRUE"	"Ebbinghaus"	"-10000000000"	"-1.400000000"	"1"	"5"
n/a	"html-keyboard-response"	"17"	"62185"	"0.0-4.0-1.0-2.0-0.5"	"9pyfsz"	"600"	"1366"	"chrome"	"111.0.0"	"FALSE"	"Windows 10"	"60.09"	"053"	n/a	n/a	n/a	n/a	n/a	n/a	"fixation"	n/a	n/a	n/a	n/a	"NULL"	n/a	"NULL"	"NULL"	"NULL"	"<p style=\"color: black; font-size: 80px; padding-left: 48%; padding-right: 29%; padding-top: 32%; padding-bottom: 30%\">+</p>"	"1045"	n/a	n/a	n/a	n/a	n/a	n/a	n/a	n/a	n/a
n/a	"image-keyboard-response"	"18"	"62648"	"0.0-4.0-1.0-2.0-1.5"	"9pyfsz"	"600"	"1366"	"chrome"	"111.0.0"	"FALSE"	"Windows 10"	"60.09"	"053"	n/a	n/a	n/a	n/a	n/a	n/a	"Trial"	n/a	n/a	n/a	"462"	"arrowleft"	n/a	"NULL"	"NULL"	"NULL"	"stimuli/Ebbinghaus_1000000_1.40000.png"	n/a	"Ebbinghaus"	"arrowleft"	"1052"	"TRUE"	"Ebbinghaus"	"100000000000"	"1.4000000000"	"1"	"6"
n/a	"html-button-response"	"19"	"68945"	"0.0-4.0-1.0-3.0"	"9pyfsz"	"600"	"1366"	"chrome"	"111.0.0"	"FALSE"	"Windows 10"	"60.09"	"053"	n/a	n/a	n/a	n/a	n/a	n/a	"practice_block_results"	n/a	n/a	n/a	"6295"	"0"	n/a	"NULL"	"NULL"	"NULL"	"<p style='color:rgb(76,175,80);'> Correct Responses: <b>100.00%</b></p><hr><p style='color:rgb(233,30,99);'> Average Response Time: <b>540.00</b> ms.</p>"	n/a	n/a	n/a	n/a	n/a	n/a	n/a	n/a	n/a	n/a
"TRUE"	"preload"	"20"	"69465"	"0.0-4.0-2.0-0.0"	"9pyfsz"	"600"	"1366"	"chrome"	"111.0.0"	"FALSE"	"Windows 10"	"60.09"	"053"	n/a	n/a	n/a	n/a	n/a	n/a	n/a	n/a	n/a	n/a	n/a	"NULL"	"FALSE"	"list()"	"list()"	"list()"	n/a	n/a	n/a	n/a	n/a	n/a	n/a	n/a	n/a	n/a	n/a
n/a	"html-keyboard-response"	"21"	"83035"	"0.0-4.0-2.0-1.0"	"9pyfsz"	"600"	"1366"	"chrome"	"111.0.0"	"FALSE"	"Windows 10"	"60.09"	"053"	n/a	n/a	n/a	n/a	n/a	n/a	n/a	n/a	n/a	n/a	"13569"	"enter"	n/a	"NULL"	"NULL"	"NULL"	"<p><b>Practice</b></p><p>In this part, two horizontal red lines will appear one above the other.</p><p>Your task is to select which <b>line is longer</b> in length as fast as you can, without making errors.</p><p>Don't get distracted by the surrounding black arrows at the end of the red lines!</p><p>Press <b>the UP or the DOWN arrow</b> to indicate where is the longer <b>red line.</b></p><div style='float: center'><img src='materials/instructions/MullerLyer_Demo.png' height='300'></img><p><img src='utils/answer/answer_updown_keyboard.PNG' height='150'></img></p><p class='small'>In this example, the correct answer is the <b>UP arrow</b>.</p></div><p>Are you ready? <b>Press ENTER to start</b></p>"	n/a	n/a	n/a	n/a	n/a	n/a	n/a	n/a	n/a	n/a
n/a	"html-keyboard-response"	"22"	"84933"	"0.0-4.0-2.0-2.0-0.0"	"9pyfsz"	"600"	"1366"	"chrome"	"111.0.0"	"FALSE"	"Windows 10"	"60.09"	"053"	n/a	n/a	n/a	n/a	n/a	n/a	"fixation"	n/a	n/a	n/a	n/a	"NULL"	n/a	"NULL"	"NULL"	"NULL"	"<p style=\"color: black; font-size: 80px; padding-left: 33%; padding-right: 7%; padding-top: 45%; padding-bottom: 48%\">+</p>"	"1374"	n/a	n/a	n/a	n/a	n/a	n/a	n/a	n/a	n/a
n/a	"image-keyboard-response"	"23"	"85506"	"0.0-4.0-2.0-2.0-1.0"	"9pyfsz"	"600"	"1366"	"chrome"	"111.0.0"	"FALSE"	"Windows 10"	"60.09"	"053"	n/a	n/a	n/a	n/a	n/a	n/a	"Trial"	n/a	n/a	n/a	"572"	"arrowdown"	n/a	"NULL"	"NULL"	"NULL"	"stimuli/MullerLyer_-230000_-0.7000.png"	n/a	"MullerLyer"	"arrowdown"	"1898"	"TRUE"	"MullerLyer"	"-23000000000"	"-0.700000000"	"1"	"7"
n/a	"html-keyboard-response"	"24"	"86682"	"0.0-4.0-2.0-2.0-0.1"	"9pyfsz"	"600"	"1366"	"chrome"	"111.0.0"	"FALSE"	"Windows 10"	"60.09"	"053"	n/a	n/a	n/a	n/a	n/a	n/a	"fixation"	n/a	n/a	n/a	n/a	"NULL"	n/a	"NULL"	"NULL"	"NULL"	"<p style=\"color: black; font-size: 80px; padding-left: 14%; padding-right: 22%; padding-top: 35%; padding-bottom: 35%\">+</p>"	"1165"	n/a	n/a	n/a	n/a	n/a	n/a	n/a	n/a	n/a
n/a	"image-keyboard-response"	"25"	"87179"	"0.0-4.0-2.0-2.0-1.1"	"9pyfsz"	"600"	"1366"	"chrome"	"111.0.0"	"FALSE"	"Windows 10"	"60.09"	"053"	n/a	n/a	n/a	n/a	n/a	n/a	"Trial"	n/a	n/a	n/a	"496"	"arrowup"	n/a	"NULL"	"NULL"	"NULL"	"stimuli/MullerLyer_2300000_0.70000.png"	n/a	"MullerLyer"	"arrowup"	"1176"	"TRUE"	"MullerLyer"	"230000000000"	"0.7000000000"	"1"	"8"
n/a	"html-keyboard-response"	"26"	"88608"	"0.0-4.0-2.0-2.0-0.2"	"9pyfsz"	"600"	"1366"	"chrome"	"111.0.0"	"FALSE"	"Windows 10"	"60.09"	"053"	n/a	n/a	n/a	n/a	n/a	n/a	"fixation"	n/a	n/a	n/a	n/a	"NULL"	n/a	"NULL"	"NULL"	"NULL"	"<p style=\"color: black; font-size: 80px; padding-left: 29%; padding-right: 42%; padding-top: 10%; padding-bottom: 7%\">+</p>"	"1426"	n/a	n/a	n/a	n/a	n/a	n/a	n/a	n/a	n/a
n/a	"image-keyboard-response"	"27"	"89214"	"0.0-4.0-2.0-2.0-1.2"	"9pyfsz"	"600"	"1366"	"chrome"	"111.0.0"	"FALSE"	"Windows 10"	"60.09"	"053"	n/a	n/a	n/a	n/a	n/a	n/a	"Trial"	n/a	n/a	n/a	"606"	"arrowup"	n/a	"NULL"	"NULL"	"NULL"	"stimuli/MullerLyer_0000000_0.70000.png"	n/a	"MullerLyer"	"arrowup"	"1429"	"TRUE"	"MullerLyer"	"000000000000"	"0.7000000000"	"1"	"9"
n/a	"html-keyboard-response"	"28"	"90323"	"0.0-4.0-2.0-2.0-0.3"	"9pyfsz"	"600"	"1366"	"chrome"	"111.0.0"	"FALSE"	"Windows 10"	"60.09"	"053"	n/a	n/a	n/a	n/a	n/a	n/a	"fixation"	n/a	n/a	n/a	n/a	"NULL"	n/a	"NULL"	"NULL"	"NULL"	"<p style=\"color: black; font-size: 80px; padding-left: 40%; padding-right: 29%; padding-top: 48%; padding-bottom: 15%\">+</p>"	"1093"	n/a	n/a	n/a	n/a	n/a	n/a	n/a	n/a	n/a
n/a	"image-keyboard-response"	"29"	"90889"	"0.0-4.0-2.0-2.0-1.3"	"9pyfsz"	"600"	"1366"	"chrome"	"111.0.0"	"FALSE"	"Windows 10"	"60.09"	"053"	n/a	n/a	n/a	n/a	n/a	n/a	"Trial"	n/a	n/a	n/a	"565"	"arrowdown"	n/a	"NULL"	"NULL"	"NULL"	"stimuli/MullerLyer_0000000_-0.7000.png"	n/a	"MullerLyer"	"arrowdown"	"1109"	"TRUE"	"MullerLyer"	"000000000000"	"-0.700000000"	"1"	"10"
n/a	"html-keyboard-response"	"30"	"92227"	"0.0-4.0-2.0-2.0-0.4"	"9pyfsz"	"600"	"1366"	"chrome"	"111.0.0"	"FALSE"	"Windows 10"	"60.09"	"053"	n/a	n/a	n/a	n/a	n/a	n/a	"fixation"	n/a	n/a	n/a	n/a	"NULL"	n/a	"NULL"	"NULL"	"NULL"	"<p style=\"color: black; font-size: 80px; padding-left: 43%; padding-right: 30%; padding-top: 6%; padding-bottom: 19%\">+</p>"	"1325"	n/a	n/a	n/a	n/a	n/a	n/a	n/a	n/a	n/a
n/a	"image-keyboard-response"	"31"	"92660"	"0.0-4.0-2.0-2.0-1.4"	"9pyfsz"	"600"	"1366"	"chrome"	"111.0.0"	"FALSE"	"Windows 10"	"60.09"	"053"	n/a	n/a	n/a	n/a	n/a	n/a	"Trial"	n/a	n/a	n/a	"433"	"arrowup"	n/a	"NULL"	"NULL"	"NULL"	"stimuli/MullerLyer_-230000_0.70000.png"	n/a	"MullerLyer"	"arrowup"	"1338"	"TRUE"	"MullerLyer"	"-23000000000"	"0.7000000000"	"1"	"11"
n/a	"html-keyboard-response"	"32"	"94056"	"0.0-4.0-2.0-2.0-0.5"	"9pyfsz"	"600"	"1366"	"chrome"	"111.0.0"	"FALSE"	"Windows 10"	"60.09"	"053"	n/a	n/a	n/a	n/a	n/a	n/a	"fixation"	n/a	n/a	n/a	n/a	"NULL"	n/a	"NULL"	"NULL"	"NULL"	"<p style=\"color: black; font-size: 80px; padding-left: 30%; padding-right: 6%; padding-top: 34%; padding-bottom: 6%\">+</p>"	"1387"	n/a	n/a	n/a	n/a	n/a	n/a	n/a	n/a	n/a
n/a	"image-keyboard-response"	"33"	"94562"	"0.0-4.0-2.0-2.0-1.5"	"9pyfsz"	"600"	"1366"	"chrome"	"111.0.0"	"FALSE"	"Windows 10"	"60.09"	"053"	n/a	n/a	n/a	n/a	n/a	n/a	"Trial"	n/a	n/a	n/a	"506"	"arrowdown"	n/a	"NULL"	"NULL"	"NULL"	"stimuli/MullerLyer_2300000_-0.7000.png"	n/a	"MullerLyer"	"arrowdown"	"1396"	"TRUE"	"MullerLyer"	"230000000000"	"-0.700000000"	"1"	"12"
n/a	"html-button-response"	"34"	"99147"	"0.0-4.0-2.0-3.0"	"9pyfsz"	"600"	"1366"	"chrome"	"111.0.0"	"FALSE"	"Windows 10"	"60.09"	"053"	n/a	n/a	n/a	n/a	n/a	n/a	"practice_block_results"	n/a	n/a	n/a	"4583"	"0"	n/a	"NULL"	"NULL"	"NULL"	"<p style='color:rgb(76,175,80);'> Correct Responses: <b>100.00%</b></p><hr><p style='color:rgb(233,30,99);'> Average Response Time: <b>529.67</b> ms.</p>"	n/a	n/a	n/a	n/a	n/a	n/a	n/a	n/a	n/a	n/a
"TRUE"	"preload"	"35"	"99668"	"0.0-4.0-3.0-0.0"	"9pyfsz"	"600"	"1366"	"chrome"	"111.0.0"	"FALSE"	"Windows 10"	"60.09"	"053"	n/a	n/a	n/a	n/a	n/a	n/a	n/a	n/a	n/a	n/a	n/a	"NULL"	"FALSE"	"list()"	"list()"	"list()"	n/a	n/a	n/a	n/a	n/a	n/a	n/a	n/a	n/a	n/a	n/a
n/a	"html-keyboard-response"	"36"	"110990"	"0.0-4.0-3.0-1.0"	"9pyfsz"	"600"	"1366"	"chrome"	"111.0.0"	"FALSE"	"Windows 10"	"60.09"	"053"	n/a	n/a	n/a	n/a	n/a	n/a	n/a	n/a	n/a	n/a	"11322"	"enter"	n/a	"NULL"	"NULL"	"NULL"	"<p><b>Practice</b></p><p>In this part, two red lines will appear side by side.</p><p>Your task is to tell <b>which line is longer</b> in length, regardless of their orientation, as fast as you can, and without making errors.</p><p>Don't get distracted by the orientation of the lines!</p><p>Press <b>the LEFT or the RIGHT arrow</b> to indicate which <b>line is the longer one.</b></p><div style='float: center'><img src='materials/instructions/VerticalHorizontal_Demo.png' height='300'></img><p><img src='utils/answer/answer_leftright_keyboard.PNG' height='150'></img></p><p class='small'>In this example, the correct answer is the <b>LEFT arrow</b>.</p></div><p>Are you ready? <b>Press ENTER to start</b></p>"	n/a	n/a	n/a	n/a	n/a	n/a	n/a	n/a	n/a	n/a
n/a	"html-keyboard-response"	"37"	"112924"	"0.0-4.0-3.0-2.0-0.0"	"9pyfsz"	"600"	"1366"	"chrome"	"111.0.0"	"FALSE"	"Windows 10"	"60.09"	"053"	n/a	n/a	n/a	n/a	n/a	n/a	"fixation"	n/a	n/a	n/a	n/a	"NULL"	n/a	"NULL"	"NULL"	"NULL"	"<p style=\"color: black; font-size: 80px; padding-left: 19%; padding-right: 9%; padding-top: 38%; padding-bottom: 3%\">+</p>"	"1413"	n/a	n/a	n/a	n/a	n/a	n/a	n/a	n/a	n/a
n/a	"image-keyboard-response"	"38"	"113306"	"0.0-4.0-3.0-2.0-1.0"	"9pyfsz"	"600"	"1366"	"chrome"	"111.0.0"	"FALSE"	"Windows 10"	"60.09"	"053"	n/a	n/a	n/a	n/a	n/a	n/a	"Trial"	n/a	n/a	n/a	"382"	"arrowright"	n/a	"NULL"	"NULL"	"NULL"	"stimuli/VerticalHorizontal_-330000_-0.9000.png"	n/a	"VerticalHorizontal"	"arrowright"	"1934"	"TRUE"	"VerticalHorizontal"	"-33000000000"	"-0.900000000"	"1"	"13"
n/a	"html-keyboard-response"	"39"	"114370"	"0.0-4.0-3.0-2.0-0.1"	"9pyfsz"	"600"	"1366"	"chrome"	"111.0.0"	"FALSE"	"Windows 10"	"60.09"	"053"	n/a	n/a	n/a	n/a	n/a	n/a	"fixation"	n/a	n/a	n/a	n/a	"NULL"	n/a	"NULL"	"NULL"	"NULL"	"<p style=\"color: black; font-size: 80px; padding-left: 9%; padding-right: 5%; padding-top: 24%; padding-bottom: 29%\">+</p>"	"1063"	n/a	n/a	n/a	n/a	n/a	n/a	n/a	n/a	n/a
n/a	"image-keyboard-response"	"40"	"114880"	"0.0-4.0-3.0-2.0-1.1"	"9pyfsz"	"600"	"1366"	"chrome"	"111.0.0"	"FALSE"	"Windows 10"	"60.09"	"053"	n/a	n/a	n/a	n/a	n/a	n/a	"Trial"	n/a	n/a	n/a	"509"	"arrowright"	n/a	"NULL"	"NULL"	"NULL"	"stimuli/VerticalHorizontal_0000000_-0.9000.png"	n/a	"VerticalHorizontal"	"arrowright"	"1064"	"TRUE"	"VerticalHorizontal"	"000000000000"	"-0.900000000"	"1"	"14"
n/a	"html-keyboard-response"	"41"	"116195"	"0.0-4.0-3.0-2.0-0.2"	"9pyfsz"	"600"	"1366"	"chrome"	"111.0.0"	"FALSE"	"Windows 10"	"60.09"	"053"	n/a	n/a	n/a	n/a	n/a	n/a	"fixation"	n/a	n/a	n/a	n/a	"NULL"	n/a	"NULL"	"NULL"	"NULL"	"<p style=\"color: black; font-size: 80px; padding-left: 49%; padding-right: 33%; padding-top: 45%; padding-bottom: 46%\">+</p>"	"1310"	n/a	n/a	n/a	n/a	n/a	n/a	n/a	n/a	n/a
n/a	"image-keyboard-response"	"42"	"116648"	"0.0-4.0-3.0-2.0-1.2"	"9pyfsz"	"600"	"1366"	"chrome"	"111.0.0"	"FALSE"	"Windows 10"	"60.09"	"053"	n/a	n/a	n/a	n/a	n/a	n/a	"Trial"	n/a	n/a	n/a	"452"	"arrowleft"	n/a	"NULL"	"NULL"	"NULL"	"stimuli/VerticalHorizontal_3300000_0.90000.png"	n/a	"VerticalHorizontal"	"arrowleft"	"1315"	"TRUE"	"VerticalHorizontal"	"330000000000"	"0.9000000000"	"1"	"15"
n/a	"html-keyboard-response"	"43"	"118136"	"0.0-4.0-3.0-2.0-0.3"	"9pyfsz"	"600"	"1366"	"chrome"	"111.0.0"	"FALSE"	"Windows 10"	"60.09"	"053"	n/a	n/a	n/a	n/a	n/a	n/a	"fixation"	n/a	n/a	n/a	n/a	"NULL"	n/a	"NULL"	"NULL"	"NULL"	"<p style=\"color: black; font-size: 80px; padding-left: 19%; padding-right: 15%; padding-top: 25%; padding-bottom: 3%\">+</p>"	"1479"	n/a	n/a	n/a	n/a	n/a	n/a	n/a	n/a	n/a
n/a	"image-keyboard-response"	"44"	"118682"	"0.0-4.0-3.0-2.0-1.3"	"9pyfsz"	"600"	"1366"	"chrome"	"111.0.0"	"FALSE"	"Windows 10"	"60.09"	"053"	n/a	n/a	n/a	n/a	n/a	n/a	"Trial"	n/a	n/a	n/a	"545"	"arrowright"	n/a	"NULL"	"NULL"	"NULL"	"stimuli/VerticalHorizontal_3300000_-0.9000.png"	n/a	"VerticalHorizontal"	"arrowright"	"1488"	"TRUE"	"VerticalHorizontal"	"330000000000"	"-0.900000000"	"1"	"16"
n/a	"html-keyboard-response"	"45"	"119845"	"0.0-4.0-3.0-2.0-0.4"	"9pyfsz"	"600"	"1366"	"chrome"	"111.0.0"	"FALSE"	"Windows 10"	"60.09"	"053"	n/a	n/a	n/a	n/a	n/a	n/a	"fixation"	n/a	n/a	n/a	n/a	"NULL"	n/a	"NULL"	"NULL"	"NULL"	"<p style=\"color: black; font-size: 80px; padding-left: 13%; padding-right: 25%; padding-top: 43%; padding-bottom: 27%\">+</p>"	"1151"	n/a	n/a	n/a	n/a	n/a	n/a	n/a	n/a	n/a
n/a	"image-keyboard-response"	"46"	"120202"	"0.0-4.0-3.0-2.0-1.4"	"9pyfsz"	"600"	"1366"	"chrome"	"111.0.0"	"FALSE"	"Windows 10"	"60.09"	"053"	n/a	n/a	n/a	n/a	n/a	n/a	"Trial"	n/a	n/a	n/a	"355"	"arrowleft"	n/a	"NULL"	"NULL"	"NULL"	"stimuli/VerticalHorizontal_-330000_0.90000.png"	n/a	"VerticalHorizontal"	"arrowleft"	"1163"	"TRUE"	"VerticalHorizontal"	"-33000000000"	"0.9000000000"	"1"	"17"
n/a	"html-keyboard-response"	"47"	"121397"	"0.0-4.0-3.0-2.0-0.5"	"9pyfsz"	"600"	"1366"	"chrome"	"111.0.0"	"FALSE"	"Windows 10"	"60.09"	"053"	n/a	n/a	n/a	n/a	n/a	n/a	"fixation"	n/a	n/a	n/a	n/a	"NULL"	n/a	"NULL"	"NULL"	"NULL"	"<p style=\"color: black; font-size: 80px; padding-left: 35%; padding-right: 39%; padding-top: 36%; padding-bottom: 9%\">+</p>"	"1183"	n/a	n/a	n/a	n/a	n/a	n/a	n/a	n/a	n/a
n/a	"image-keyboard-response"	"48"	"121826"	"0.0-4.0-3.0-2.0-1.5"	"9pyfsz"	"600"	"1366"	"chrome"	"111.0.0"	"FALSE"	"Windows 10"	"60.09"	"053"	n/a	n/a	n/a	n/a	n/a	n/a	"Trial"	n/a	n/a	n/a	"428"	"arrowleft"	n/a	"NULL"	"NULL"	"NULL"	"stimuli/VerticalHorizontal_0000000_0.90000.png"	n/a	"VerticalHorizontal"	"arrowleft"	"1195"	"TRUE"	"VerticalHorizontal"	"000000000000"	"0.9000000000"	"1"	"18"
n/a	"html-button-response"	"49"	"126133"	"0.0-4.0-3.0-3.0"	"9pyfsz"	"600"	"1366"	"chrome"	"111.0.0"	"FALSE"	"Windows 10"	"60.09"	"053"	n/a	n/a	n/a	n/a	n/a	n/a	"practice_block_results"	n/a	n/a	n/a	"4307"	"0"	n/a	"NULL"	"NULL"	"NULL"	"<p style='color:rgb(76,175,80);'> Correct Responses: <b>100.00%</b></p><hr><p style='color:rgb(233,30,99);'> Average Response Time: <b>445.17</b> ms.</p>"	n/a	n/a	n/a	n/a	n/a	n/a	n/a	n/a	n/a	n/a
n/a	"html-button-response"	"50"	"216219"	"0.0-4.0-4.0"	"9pyfsz"	"600"	"1366"	"chrome"	"111.0.0"	"FALSE"	"Windows 10"	"60.09"	"053"	n/a	n/a	n/a	n/a	n/a	n/a	"practice_debrief"	n/a	n/a	n/a	"89571"	"0"	n/a	"NULL"	"NULL"	"NULL"	"<p><b>TRAINING COMPLETED</b></p><p>In the next phase, there will be more trials, and some might be harder too.<br> Moreover, after each illusion block, a <b>score</b> will be calculated based on speed (time you took to answer) and accuracy (number of errors).</p><p>Try to keep up a high score!</p><br><p>Note that it can be <i>really</i> challenging at times, so you will need to rely on your <b>intuition</b> and gut feeling to answer as fast as you can without making errors.</p><p>Each illusion block will be repeated two times (so that you have the opportunity to improve your score), but the order of the blocks is random.</p><p>Remember, your goal is to be as <b>fast</b> and <b>accurate</b> as possible. Good luck!</p><br>"	n/a	n/a	n/a	n/a	n/a	n/a	n/a	n/a	n/a	n/a
"TRUE"	"preload"	"51"	"216363"	"0.0-5.0-0.0"	"9pyfsz"	"600"	"1366"	"chrome"	"111.0.0"	"FALSE"	"Windows 10"	"60.09"	"053"	n/a	n/a	n/a	n/a	n/a	n/a	n/a	n/a	n/a	n/a	n/a	"NULL"	"FALSE"	"list()"	"list()"	"list()"	n/a	n/a	n/a	n/a	n/a	n/a	n/a	n/a	n/a	n/a	n/a
n/a	"html-keyboard-response"	"52"	"219950"	"0.0-5.0-1.0"	"9pyfsz"	"600"	"1366"	"chrome"	"111.0.0"	"FALSE"	"Windows 10"	"60.09"	"053"	n/a	n/a	n/a	n/a	n/a	n/a	n/a	n/a	n/a	n/a	"3586"	"enter"	n/a	"NULL"	"NULL"	"NULL"	"<p><b>Part 1/6</b></p><p>In this part, two red lines will appear side by side.</p><p>Your task is to tell <b>which line is longer</b> in length, regardless of their orientation, as fast as you can, and without making errors.</p><p>Don't get distracted by the orientation of the lines!</p><p>Press <b>the LEFT or the RIGHT arrow</b> to indicate which <b>line is the longer one.</b></p><div style='float: center'><img src='materials/instructions/VerticalHorizontal_Demo.png' height='300'></img><p><img src='utils/answer/answer_leftright_keyboard.PNG' height='150'></img></p><p class='small'>In this example, the correct answer is the <b>LEFT arrow</b>.</p></div><p>Are you ready? <b>Press ENTER to start</b></p>"	n/a	n/a	n/a	n/a	n/a	n/a	n/a	n/a	n/a	n/a
n/a	"html-keyboard-response"	"53"	"221796"	"0.0-5.0-2.0-0.0"	"9pyfsz"	"600"	"1366"	"chrome"	"111.0.0"	"FALSE"	"Windows 10"	"60.09"	"053"	n/a	n/a	n/a	n/a	n/a	n/a	"fixation"	n/a	n/a	n/a	n/a	"NULL"	n/a	"NULL"	"NULL"	"NULL"	"<p style=\"color: black; font-size: 80px; padding-left: 36%; padding-right: 33%; padding-top: 28%; padding-bottom: 10%\">+</p>"	"1332"	n/a	n/a	n/a	n/a	n/a	n/a	n/a	n/a	n/a
n/a	"image-keyboard-response"	"54"	"222249"	"0.0-5.0-2.0-1.0"	"9pyfsz"	"600"	"1366"	"chrome"	"111.0.0"	"FALSE"	"Windows 10"	"60.09"	"053"	n/a	n/a	n/a	n/a	n/a	n/a	"Trial"	n/a	n/a	n/a	"452"	"arrowright"	n/a	"NULL"	"NULL"	"NULL"	"stimuli/VerticalHorizontal_20.27143_0.06730.png"	n/a	"VerticalHorizontal"	"arrowleft"	"1846"	"FALSE"	"VerticalHorizontal"	"20.271430000"	"0.0673000000"	"1"	"19"
n/a	"html-keyboard-response"	"55"	"223366"	"0.0-5.0-2.0-0.1"	"9pyfsz"	"600"	"1366"	"chrome"	"111.0.0"	"FALSE"	"Windows 10"	"60.09"	"053"	n/a	n/a	n/a	n/a	n/a	n/a	"fixation"	n/a	n/a	n/a	n/a	"NULL"	n/a	"NULL"	"NULL"	"NULL"	"<p style=\"color: black; font-size: 80px; padding-left: 16%; padding-right: 2%; padding-top: 26%; padding-bottom: 17%\">+</p>"	"1109"	n/a	n/a	n/a	n/a	n/a	n/a	n/a	n/a	n/a
n/a	"image-keyboard-response"	"56"	"223846"	"0.0-5.0-2.0-1.1"	"9pyfsz"	"600"	"1366"	"chrome"	"111.0.0"	"FALSE"	"Windows 10"	"60.09"	"053"	n/a	n/a	n/a	n/a	n/a	n/a	"Trial"	n/a	n/a	n/a	"480"	"arrowright"	n/a	"NULL"	"NULL"	"NULL"	"stimuli/VerticalHorizontal_-20.27143_-0.1096.png"	n/a	"VerticalHorizontal"	"arrowright"	"1117"	"TRUE"	"VerticalHorizontal"	"-20.27143000"	"-0.109600000"	"1"	"20"
n/a	"html-keyboard-response"	"57"	"225259"	"0.0-5.0-2.0-0.2"	"9pyfsz"	"600"	"1366"	"chrome"	"111.0.0"	"FALSE"	"Windows 10"	"60.09"	"053"	n/a	n/a	n/a	n/a	n/a	n/a	"fixation"	n/a	n/a	n/a	n/a	"NULL"	n/a	"NULL"	"NULL"	"NULL"	"<p style=\"color: black; font-size: 80px; padding-left: 22%; padding-right: 28%; padding-top: 19%; padding-bottom: 28%\">+</p>"	"1405"	n/a	n/a	n/a	n/a	n/a	n/a	n/a	n/a	n/a
n/a	"image-keyboard-response"	"58"	"226162"	"0.0-5.0-2.0-1.2"	"9pyfsz"	"600"	"1366"	"chrome"	"111.0.0"	"FALSE"	"Windows 10"	"60.09"	"053"	n/a	n/a	n/a	n/a	n/a	n/a	"Trial"	n/a	n/a	n/a	"902"	"arrowleft"	n/a	"NULL"	"NULL"	"NULL"	"stimuli/VerticalHorizontal_-3.3000_0.10960.png"	n/a	"VerticalHorizontal"	"arrowleft"	"1413"	"TRUE"	"VerticalHorizontal"	"-3.300000000"	"0.1096000000"	"1"	"21"
n/a	"html-keyboard-response"	"59"	"227618"	"0.0-5.0-2.0-0.3"	"9pyfsz"	"600"	"1366"	"chrome"	"111.0.0"	"FALSE"	"Windows 10"	"60.09"	"053"	n/a	n/a	n/a	n/a	n/a	n/a	"fixation"	n/a	n/a	n/a	n/a	"NULL"	n/a	"NULL"	"NULL"	"NULL"	"<p style=\"color: black; font-size: 80px; padding-left: 38%; padding-right: 6%; padding-top: 19%; padding-bottom: 16%\">+</p>"	"1442"	n/a	n/a	n/a	n/a	n/a	n/a	n/a	n/a	n/a
n/a	"image-keyboard-response"	"60"	"228245"	"0.0-5.0-2.0-1.3"	"9pyfsz"	"600"	"1366"	"chrome"	"111.0.0"	"FALSE"	"Windows 10"	"60.09"	"053"	n/a	n/a	n/a	n/a	n/a	n/a	"Trial"	n/a	n/a	n/a	"627"	"arrowright"	n/a	"NULL"	"NULL"	"NULL"	"stimuli/VerticalHorizontal_-3.3000_-0.1096.png"	n/a	"VerticalHorizontal"	"arrowright"	"1456"	"TRUE"	"VerticalHorizontal"	"-3.300000000"	"-0.109600000"	"1"	"22"
n/a	"html-keyboard-response"	"61"	"229556"	"0.0-5.0-2.0-0.4"	"9pyfsz"	"600"	"1366"	"chrome"	"111.0.0"	"FALSE"	"Windows 10"	"60.09"	"053"	n/a	n/a	n/a	n/a	n/a	n/a	"fixation"	n/a	n/a	n/a	n/a	"NULL"	n/a	"NULL"	"NULL"	"NULL"	"<p style=\"color: black; font-size: 80px; padding-left: 50%; padding-right: 6%; padding-top: 44%; padding-bottom: 35%\">+</p>"	"1297"	n/a	n/a	n/a	n/a	n/a	n/a	n/a	n/a	n/a
n/a	"image-keyboard-response"	"62"	"230818"	"0.0-5.0-2.0-1.4"	"9pyfsz"	"600"	"1366"	"chrome"	"111.0.0"	"FALSE"	"Windows 10"	"60.09"	"053"	n/a	n/a	n/a	n/a	n/a	n/a	"Trial"	n/a	n/a	n/a	"1262"	"arrowleft"	n/a	"NULL"	"NULL"	"NULL"	"stimuli/VerticalHorizontal_28.75714_-0.1096.png"	n/a	"VerticalHorizontal"	"arrowright"	"1311"	"FALSE"	"VerticalHorizontal"	"28.757140000"	"-0.109600000"	"1"	"23"
n/a	"html-keyboard-response"	"63"	"232217"	"0.0-5.0-2.0-0.5"	"9pyfsz"	"600"	"1366"	"chrome"	"111.0.0"	"FALSE"	"Windows 10"	"60.09"	"053"	n/a	n/a	n/a	n/a	n/a	n/a	"fixation"	n/a	n/a	n/a	n/a	"NULL"	n/a	"NULL"	"NULL"	"NULL"	"<p style=\"color: black; font-size: 80px; padding-left: 43%; padding-right: 3%; padding-top: 7%; padding-bottom: 31%\">+</p>"	"1397"	n/a	n/a	n/a	n/a	n/a	n/a	n/a	n/a	n/a
n/a	"image-keyboard-response"	"64"	"233156"	"0.0-5.0-2.0-1.5"	"9pyfsz"	"600"	"1366"	"chrome"	"111.0.0"	"FALSE"	"Windows 10"	"60.09"	"053"	n/a	n/a	n/a	n/a	n/a	n/a	"Trial"	n/a	n/a	n/a	"937"	"arrowright"	n/a	"NULL"	"NULL"	"NULL"	"stimuli/VerticalHorizontal_-11.78571_-0.0673.png"	n/a	"VerticalHorizontal"	"arrowright"	"1399"	"TRUE"	"VerticalHorizontal"	"-11.78571000"	"-0.067300000"	"1"	"24"
n/a	"html-keyboard-response"	"65"	"234502"	"0.0-5.0-2.0-0.6"	"9pyfsz"	"600"	"1366"	"chrome"	"111.0.0"	"FALSE"	"Windows 10"	"60.09"	"053"	n/a	n/a	n/a	n/a	n/a	n/a	"fixation"	n/a	n/a	n/a	n/a	"NULL"	n/a	"NULL"	"NULL"	"NULL"	"<p style=\"color: black; font-size: 80px; padding-left: 39%; padding-right: 25%; padding-top: 31%; padding-bottom: 42%\">+</p>"	"1344"	n/a	n/a	n/a	n/a	n/a	n/a	n/a	n/a	n/a
n/a	"image-keyboard-response"	"66"	"235828"	"0.0-5.0-2.0-1.6"	"9pyfsz"	"600"	"1366"	"chrome"	"111.0.0"	"FALSE"	"Windows 10"	"60.09"	"053"	n/a	n/a	n/a	n/a	n/a	n/a	"Trial"	n/a	n/a	n/a	"1323"	"arrowleft"	n/a	"NULL"	"NULL"	"NULL"	"stimuli/VerticalHorizontal_20.27143_0.10960.png"	n/a	"VerticalHorizontal"	"arrowleft"	"1346"	"TRUE"	"VerticalHorizontal"	"20.271430000"	"0.1096000000"	"1"	"25"
n/a	"html-keyboard-response"	"67"	"236919"	"0.0-5.0-2.0-0.7"	"9pyfsz"	"600"	"1366"	"chrome"	"111.0.0"	"FALSE"	"Windows 10"	"60.09"	"053"	n/a	n/a	n/a	n/a	n/a	n/a	"fixation"	n/a	n/a	n/a	n/a	"NULL"	n/a	"NULL"	"NULL"	"NULL"	"<p style=\"color: black; font-size: 80px; padding-left: 12%; padding-right: 49%; padding-top: 35%; padding-bottom: 38%\">+</p>"	"1089"	n/a	n/a	n/a	n/a	n/a	n/a	n/a	n/a	n/a
n/a	"image-keyboard-response"	"68"	"238071"	"0.0-5.0-2.0-1.7"	"9pyfsz"	"600"	"1366"	"chrome"	"111.0.0"	"FALSE"	"Windows 10"	"60.09"	"053"	n/a	n/a	n/a	n/a	n/a	n/a	"Trial"	n/a	n/a	n/a	"1151"	"arrowleft"	n/a	"NULL"	"NULL"	"NULL"	"stimuli/VerticalHorizontal_-11.78571_0.16217.png"	n/a	"VerticalHorizontal"	"arrowleft"	"1091"	"TRUE"	"VerticalHorizontal"	"-11.78571000"	"0.1621700000"	"1"	"26"
n/a	"html-keyboard-response"	"69"	"239286"	"0.0-5.0-2.0-0.8"	"9pyfsz"	"600"	"1366"	"chrome"	"111.0.0"	"FALSE"	"Windows 10"	"60.09"	"053"	n/a	n/a	n/a	n/a	n/a	n/a	"fixation"	n/a	n/a	n/a	n/a	"NULL"	n/a	"NULL"	"NULL"	"NULL"	"<p style=\"color: black; font-size: 80px; padding-left: 40%; padding-right: 18%; padding-top: 6%; padding-bottom: 39%\">+</p>"	"1205"	n/a	n/a	n/a	n/a	n/a	n/a	n/a	n/a	n/a
n/a	"image-keyboard-response"	"70"	"240006"	"0.0-5.0-2.0-1.8"	"9pyfsz"	"600"	"1366"	"chrome"	"111.0.0"	"FALSE"	"Windows 10"	"60.09"	"053"	n/a	n/a	n/a	n/a	n/a	n/a	"Trial"	n/a	n/a	n/a	"719"	"arrowright"	n/a	"NULL"	"NULL"	"NULL"	"stimuli/VerticalHorizontal_3.30000_-0.2250.png"	n/a	"VerticalHorizontal"	"arrowright"	"1215"	"TRUE"	"VerticalHorizontal"	"3.3000000000"	"-0.225000000"	"1"	"27"
n/a	"html-keyboard-response"	"71"	"241045"	"0.0-5.0-2.0-0.9"	"9pyfsz"	"600"	"1366"	"chrome"	"111.0.0"	"FALSE"	"Windows 10"	"60.09"	"053"	n/a	n/a	n/a	n/a	n/a	n/a	"fixation"	n/a	n/a	n/a	n/a	"NULL"	n/a	"NULL"	"NULL"	"NULL"	"<p style=\"color: black; font-size: 80px; padding-left: 47%; padding-right: 24%; padding-top: 6%; padding-bottom: 50%\">+</p>"	"1037"	n/a	n/a	n/a	n/a	n/a	n/a	n/a	n/a	n/a
n/a	"image-keyboard-response"	"72"	"242500"	"0.0-5.0-2.0-1.9"	"9pyfsz"	"600"	"1366"	"chrome"	"111.0.0"	"FALSE"	"Windows 10"	"60.09"	"053"	n/a	n/a	n/a	n/a	n/a	n/a	"Trial"	n/a	n/a	n/a	"1454"	"arrowleft"	n/a	"NULL"	"NULL"	"NULL"	"stimuli/VerticalHorizontal_28.75714_0.16217.png"	n/a	"VerticalHorizontal"	"arrowleft"	"1039"	"TRUE"	"VerticalHorizontal"	"28.757140000"	"0.1621700000"	"1"	"28"
n/a	"html-keyboard-response"	"73"	"243880"	"0.0-5.0-2.0-0.10"	"9pyfsz"	"600"	"1366"	"chrome"	"111.0.0"	"FALSE"	"Windows 10"	"60.09"	"053"	n/a	n/a	n/a	n/a	n/a	n/a	"fixation"	n/a	n/a	n/a	n/a	"NULL"	n/a	"NULL"	"NULL"	"NULL"	"<p style=\"color: black; font-size: 80px; padding-left: 33%; padding-right: 37%; padding-top: 15%; padding-bottom: 20%\">+</p>"	"1366"	n/a	n/a	n/a	n/a	n/a	n/a	n/a	n/a	n/a
n/a	"image-keyboard-response"	"74"	"245646"	"0.0-5.0-2.0-1.10"	"9pyfsz"	"600"	"1366"	"chrome"	"111.0.0"	"FALSE"	"Windows 10"	"60.09"	"053"	n/a	n/a	n/a	n/a	n/a	n/a	"Trial"	n/a	n/a	n/a	"1766"	"arrowright"	n/a	"NULL"	"NULL"	"NULL"	"stimuli/VerticalHorizontal_28.75714_0.06730.png"	n/a	"VerticalHorizontal"	"arrowleft"	"1380"	"FALSE"	"VerticalHorizontal"	"28.757140000"	"0.0673000000"	"1"	"29"
n/a	"html-keyboard-response"	"75"	"247119"	"0.0-5.0-2.0-0.11"	"9pyfsz"	"600"	"1366"	"chrome"	"111.0.0"	"FALSE"	"Windows 10"	"60.09"	"053"	n/a	n/a	n/a	n/a	n/a	n/a	"fixation"	n/a	n/a	n/a	n/a	"NULL"	n/a	"NULL"	"NULL"	"NULL"	"<p style=\"color: black; font-size: 80px; padding-left: 29%; padding-right: 5%; padding-top: 28%; padding-bottom: 43%\">+</p>"	"1468"	n/a	n/a	n/a	n/a	n/a	n/a	n/a	n/a	n/a
n/a	"image-keyboard-response"	"76"	"247829"	"0.0-5.0-2.0-1.11"	"9pyfsz"	"600"	"1366"	"chrome"	"111.0.0"	"FALSE"	"Windows 10"	"60.09"	"053"	n/a	n/a	n/a	n/a	n/a	n/a	"Trial"	n/a	n/a	n/a	"709"	"arrowright"	n/a	"NULL"	"NULL"	"NULL"	"stimuli/VerticalHorizontal_-28.75714_-0.1096.png"	n/a	"VerticalHorizontal"	"arrowright"	"1473"	"TRUE"	"VerticalHorizontal"	"-28.75714000"	"-0.109600000"	"1"	"30"
n/a	"html-keyboard-response"	"77"	"249193"	"0.0-5.0-2.0-0.12"	"9pyfsz"	"600"	"1366"	"chrome"	"111.0.0"	"FALSE"	"Windows 10"	"60.09"	"053"	n/a	n/a	n/a	n/a	n/a	n/a	"fixation"	n/a	n/a	n/a	n/a	"NULL"	n/a	"NULL"	"NULL"	"NULL"	"<p style=\"color: black; font-size: 80px; padding-left: 37%; padding-right: 48%; padding-top: 36%; padding-bottom: 49%\">+</p>"	"1355"	n/a	n/a	n/a	n/a	n/a	n/a	n/a	n/a	n/a
n/a	"image-keyboard-response"	"78"	"249935"	"0.0-5.0-2.0-1.12"	"9pyfsz"	"600"	"1366"	"chrome"	"111.0.0"	"FALSE"	"Windows 10"	"60.09"	"053"	n/a	n/a	n/a	n/a	n/a	n/a	"Trial"	n/a	n/a	n/a	"742"	"arrowleft"	n/a	"NULL"	"NULL"	"NULL"	"stimuli/VerticalHorizontal_-20.27143_0.22500.png"	n/a	"VerticalHorizontal"	"arrowleft"	"1364"	"TRUE"	"VerticalHorizontal"	"-20.27143000"	"0.2250000000"	"1"	"31"
n/a	"html-keyboard-response"	"79"	"251118"	"0.0-5.0-2.0-0.13"	"9pyfsz"	"600"	"1366"	"chrome"	"111.0.0"	"FALSE"	"Windows 10"	"60.09"	"053"	n/a	n/a	n/a	n/a	n/a	n/a	"fixation"	n/a	n/a	n/a	n/a	"NULL"	n/a	"NULL"	"NULL"	"NULL"	"<p style=\"color: black; font-size: 80px; padding-left: 41%; padding-right: 27%; padding-top: 14%; padding-bottom: 11%\">+</p>"	"1169"	n/a	n/a	n/a	n/a	n/a	n/a	n/a	n/a	n/a
n/a	"image-keyboard-response"	"80"	"252008"	"0.0-5.0-2.0-1.13"	"9pyfsz"	"600"	"1366"	"chrome"	"111.0.0"	"FALSE"	"Windows 10"	"60.09"	"053"	n/a	n/a	n/a	n/a	n/a	n/a	"Trial"	n/a	n/a	n/a	"890"	"arrowleft"	n/a	"NULL"	"NULL"	"NULL"	"stimuli/VerticalHorizontal_20.27143_0.22500.png"	n/a	"VerticalHorizontal"	"arrowleft"	"1183"	"TRUE"	"VerticalHorizontal"	"20.271430000"	"0.2250000000"	"1"	"32"
n/a	"html-keyboard-response"	"81"	"253408"	"0.0-5.0-2.0-0.14"	"9pyfsz"	"600"	"1366"	"chrome"	"111.0.0"	"FALSE"	"Windows 10"	"60.09"	"053"	n/a	n/a	n/a	n/a	n/a	n/a	"fixation"	n/a	n/a	n/a	n/a	"NULL"	n/a	"NULL"	"NULL"	"NULL"	"<p style=\"color: black; font-size: 80px; padding-left: 4%; padding-right: 16%; padding-top: 22%; padding-bottom: 28%\">+</p>"	"1385"	n/a	n/a	n/a	n/a	n/a	n/a	n/a	n/a	n/a
n/a	"image-keyboard-response"	"82"	"255018"	"0.0-5.0-2.0-1.14"	"9pyfsz"	"600"	"1366"	"chrome"	"111.0.0"	"FALSE"	"Windows 10"	"60.09"	"053"	n/a	n/a	n/a	n/a	n/a	n/a	"Trial"	n/a	n/a	n/a	"1610"	"arrowleft"	n/a	"NULL"	"NULL"	"NULL"	"stimuli/VerticalHorizontal_20.27143_-0.0673.png"	n/a	"VerticalHorizontal"	"arrowright"	"1400"	"FALSE"	"VerticalHorizontal"	"20.271430000"	"-0.067300000"	"1"	"33"
n/a	"html-keyboard-response"	"83"	"256355"	"0.0-5.0-2.0-0.15"	"9pyfsz"	"600"	"1366"	"chrome"	"111.0.0"	"FALSE"	"Windows 10"	"60.09"	"053"	n/a	n/a	n/a	n/a	n/a	n/a	"fixation"	n/a	n/a	n/a	n/a	"NULL"	n/a	"NULL"	"NULL"	"NULL"	"<p style=\"color: black; font-size: 80px; padding-left: 6%; padding-right: 27%; padding-top: 40%; padding-bottom: 36%\">+</p>"	"1323"	n/a	n/a	n/a	n/a	n/a	n/a	n/a	n/a	n/a
n/a	"image-keyboard-response"	"84"	"257093"	"0.0-5.0-2.0-1.15"	"9pyfsz"	"600"	"1366"	"chrome"	"111.0.0"	"FALSE"	"Windows 10"	"60.09"	"053"	n/a	n/a	n/a	n/a	n/a	n/a	"Trial"	n/a	n/a	n/a	"737"	"arrowright"	n/a	"NULL"	"NULL"	"NULL"	"stimuli/VerticalHorizontal_-28.75714_-0.2250.png"	n/a	"VerticalHorizontal"	"arrowright"	"1337"	"TRUE"	"VerticalHorizontal"	"-28.75714000"	"-0.225000000"	"1"	"34"
n/a	"html-keyboard-response"	"85"	"258300"	"0.0-5.0-2.0-0.16"	"9pyfsz"	"600"	"1366"	"chrome"	"111.0.0"	"FALSE"	"Windows 10"	"60.09"	"053"	n/a	n/a	n/a	n/a	n/a	n/a	"fixation"	n/a	n/a	n/a	n/a	"NULL"	n/a	"NULL"	"NULL"	"NULL"	"<p style=\"color: black; font-size: 80px; padding-left: 48%; padding-right: 13%; padding-top: 8%; padding-bottom: 17%\">+</p>"	"1201"	n/a	n/a	n/a	n/a	n/a	n/a	n/a	n/a	n/a
n/a	"image-keyboard-response"	"86"	"259037"	"0.0-5.0-2.0-1.16"	"9pyfsz"	"600"	"1366"	"chrome"	"111.0.0"	"FALSE"	"Windows 10"	"60.09"	"053"	n/a	n/a	n/a	n/a	n/a	n/a	"Trial"	n/a	n/a	n/a	"736"	"arrowleft"	n/a	"NULL"	"NULL"	"NULL"	"stimuli/VerticalHorizontal_-20.27143_0.16217.png"	n/a	"VerticalHorizontal"	"arrowleft"	"1207"	"TRUE"	"VerticalHorizontal"	"-20.27143000"	"0.1621700000"	"1"	"35"
n/a	"html-keyboard-response"	"87"	"260068"	"0.0-5.0-2.0-0.17"	"9pyfsz"	"600"	"1366"	"chrome"	"111.0.0"	"FALSE"	"Windows 10"	"60.09"	"053"	n/a	n/a	n/a	n/a	n/a	n/a	"fixation"	n/a	n/a	n/a	n/a	"NULL"	n/a	"NULL"	"NULL"	"NULL"	"<p style=\"color: black; font-size: 80px; padding-left: 11%; padding-right: 14%; padding-top: 7%; padding-bottom: 5%\">+</p>"	"1018"	n/a	n/a	n/a	n/a	n/a	n/a	n/a	n/a	n/a
n/a	"image-keyboard-response"	"88"	"260836"	"0.0-5.0-2.0-1.17"	"9pyfsz"	"600"	"1366"	"chrome"	"111.0.0"	"FALSE"	"Windows 10"	"60.09"	"053"	n/a	n/a	n/a	n/a	n/a	n/a	"Trial"	n/a	n/a	n/a	"767"	"arrowleft"	n/a	"NULL"	"NULL"	"NULL"	"stimuli/VerticalHorizontal_-3.3000_0.22500.png"	n/a	"VerticalHorizontal"	"arrowleft"	"1031"	"TRUE"	"VerticalHorizontal"	"-3.300000000"	"0.2250000000"	"1"	"36"
n/a	"html-keyboard-response"	"89"	"262019"	"0.0-5.0-2.0-0.18"	"9pyfsz"	"600"	"1366"	"chrome"	"111.0.0"	"FALSE"	"Windows 10"	"60.09"	"053"	n/a	n/a	n/a	n/a	n/a	n/a	"fixation"	n/a	n/a	n/a	n/a	"NULL"	n/a	"NULL"	"NULL"	"NULL"	"<p style=\"color: black; font-size: 80px; padding-left: 2%; padding-right: 17%; padding-top: 11%; padding-bottom: 46%\">+</p>"	"1176"	n/a	n/a	n/a	n/a	n/a	n/a	n/a	n/a	n/a
n/a	"image-keyboard-response"	"90"	"262946"	"0.0-5.0-2.0-1.18"	"9pyfsz"	"600"	"1366"	"chrome"	"111.0.0"	"FALSE"	"Windows 10"	"60.09"	"053"	n/a	n/a	n/a	n/a	n/a	n/a	"Trial"	n/a	n/a	n/a	"926"	"arrowleft"	n/a	"NULL"	"NULL"	"NULL"	"stimuli/VerticalHorizontal_3.30000_0.22500.png"	n/a	"VerticalHorizontal"	"arrowleft"	"1183"	"TRUE"	"VerticalHorizontal"	"3.3000000000"	"0.2250000000"	"1"	"37"
n/a	"html-keyboard-response"	"91"	"263970"	"0.0-5.0-2.0-0.19"	"9pyfsz"	"600"	"1366"	"chrome"	"111.0.0"	"FALSE"	"Windows 10"	"60.09"	"053"	n/a	n/a	n/a	n/a	n/a	n/a	"fixation"	n/a	n/a	n/a	n/a	"NULL"	n/a	"NULL"	"NULL"	"NULL"	"<p style=\"color: black; font-size: 80px; padding-left: 39%; padding-right: 19%; padding-top: 1%; padding-bottom: 12%\">+</p>"	"1021"	n/a	n/a	n/a	n/a	n/a	n/a	n/a	n/a	n/a
n/a	"image-keyboard-response"	"92"	"264936"	"0.0-5.0-2.0-1.19"	"9pyfsz"	"600"	"1366"	"chrome"	"111.0.0"	"FALSE"	"Windows 10"	"60.09"	"053"	n/a	n/a	n/a	n/a	n/a	n/a	"Trial"	n/a	n/a	n/a	"966"	"arrowleft"	n/a	"NULL"	"NULL"	"NULL"	"stimuli/VerticalHorizontal_11.78571_0.10960.png"	n/a	"VerticalHorizontal"	"arrowleft"	"1024"	"TRUE"	"VerticalHorizontal"	"11.785710000"	"0.1096000000"	"1"	"38"
n/a	"html-keyboard-response"	"93"	"266111"	"0.0-5.0-2.0-0.20"	"9pyfsz"	"600"	"1366"	"chrome"	"111.0.0"	"FALSE"	"Windows 10"	"60.09"	"053"	n/a	n/a	n/a	n/a	n/a	n/a	"fixation"	n/a	n/a	n/a	n/a	"NULL"	n/a	"NULL"	"NULL"	"NULL"	"<p style=\"color: black; font-size: 80px; padding-left: 49%; padding-right: 5%; padding-top: 22%; padding-bottom: 31%\">+</p>"	"1158"	n/a	n/a	n/a	n/a	n/a	n/a	n/a	n/a	n/a
n/a	"image-keyboard-response"	"94"	"267625"	"0.0-5.0-2.0-1.20"	"9pyfsz"	"600"	"1366"	"chrome"	"111.0.0"	"FALSE"	"Windows 10"	"60.09"	"053"	n/a	n/a	n/a	n/a	n/a	n/a	"Trial"	n/a	n/a	n/a	"1514"	"arrowright"	n/a	"NULL"	"NULL"	"NULL"	"stimuli/VerticalHorizontal_28.75714_-0.2250.png"	n/a	"VerticalHorizontal"	"arrowright"	"1175"	"TRUE"	"VerticalHorizontal"	"28.757140000"	"-0.225000000"	"1"	"39"
n/a	"html-keyboard-response"	"95"	"268874"	"0.0-5.0-2.0-0.21"	"9pyfsz"	"600"	"1366"	"chrome"	"111.0.0"	"FALSE"	"Windows 10"	"60.09"	"053"	n/a	n/a	n/a	n/a	n/a	n/a	"fixation"	n/a	n/a	n/a	n/a	"NULL"	n/a	"NULL"	"NULL"	"NULL"	"<p style=\"color: black; font-size: 80px; padding-left: 20%; padding-right: 33%; padding-top: 15%; padding-bottom: 32%\">+</p>"	"1237"	n/a	n/a	n/a	n/a	n/a	n/a	n/a	n/a	n/a
n/a	"image-keyboard-response"	"96"	"271602"	"0.0-5.0-2.0-1.21"	"9pyfsz"	"600"	"1366"	"chrome"	"111.0.0"	"FALSE"	"Windows 10"	"60.09"	"053"	n/a	n/a	n/a	n/a	n/a	n/a	"Trial"	n/a	n/a	n/a	"2727"	"arrowright"	n/a	"NULL"	"NULL"	"NULL"	"stimuli/VerticalHorizontal_11.78571_-0.0673.png"	n/a	"VerticalHorizontal"	"arrowright"	"1249"	"TRUE"	"VerticalHorizontal"	"11.785710000"	"-0.067300000"	"1"	"40"
n/a	"html-keyboard-response"	"97"	"272751"	"0.0-5.0-2.0-0.22"	"9pyfsz"	"600"	"1366"	"chrome"	"111.0.0"	"FALSE"	"Windows 10"	"60.09"	"053"	n/a	n/a	n/a	n/a	n/a	n/a	"fixation"	n/a	n/a	n/a	n/a	"NULL"	n/a	"NULL"	"NULL"	"NULL"	"<p style=\"color: black; font-size: 80px; padding-left: 25%; padding-right: 34%; padding-top: 5%; padding-bottom: 13%\">+</p>"	"1142"	n/a	n/a	n/a	n/a	n/a	n/a	n/a	n/a	n/a
n/a	"image-keyboard-response"	"98"	"273532"	"0.0-5.0-2.0-1.22"	"9pyfsz"	"600"	"1366"	"chrome"	"111.0.0"	"FALSE"	"Windows 10"	"60.09"	"053"	n/a	n/a	n/a	n/a	n/a	n/a	"Trial"	n/a	n/a	n/a	"780"	"arrowright"	n/a	"NULL"	"NULL"	"NULL"	"stimuli/VerticalHorizontal_-20.27143_-0.16217.png"	n/a	"VerticalHorizontal"	"arrowright"	"1149"	"TRUE"	"VerticalHorizontal"	"-20.27143000"	"-0.162170000"	"1"	"41"
n/a	"html-keyboard-response"	"99"	"274885"	"0.0-5.0-2.0-0.23"	"9pyfsz"	"600"	"1366"	"chrome"	"111.0.0"	"FALSE"	"Windows 10"	"60.09"	"053"	n/a	n/a	n/a	n/a	n/a	n/a	"fixation"	n/a	n/a	n/a	n/a	"NULL"	n/a	"NULL"	"NULL"	"NULL"	"<p style=\"color: black; font-size: 80px; padding-left: 33%; padding-right: 19%; padding-top: 11%; padding-bottom: 26%\">+</p>"	"1346"	n/a	n/a	n/a	n/a	n/a	n/a	n/a	n/a	n/a
n/a	"image-keyboard-response"	"100"	"276165"	"0.0-5.0-2.0-1.23"	"9pyfsz"	"600"	"1366"	"chrome"	"111.0.0"	"FALSE"	"Windows 10"	"60.09"	"053"	n/a	n/a	n/a	n/a	n/a	n/a	"Trial"	n/a	n/a	n/a	"1279"	"arrowleft"	n/a	"NULL"	"NULL"	"NULL"	"stimuli/VerticalHorizontal_-28.75714_0.06730.png"	n/a	"VerticalHorizontal"	"arrowleft"	"1353"	"TRUE"	"VerticalHorizontal"	"-28.75714000"	"0.0673000000"	"1"	"42"
n/a	"html-keyboard-response"	"101"	"277291"	"0.0-5.0-2.0-0.24"	"9pyfsz"	"600"	"1366"	"chrome"	"111.0.0"	"FALSE"	"Windows 10"	"60.09"	"053"	n/a	n/a	n/a	n/a	n/a	n/a	"fixation"	n/a	n/a	n/a	n/a	"NULL"	n/a	"NULL"	"NULL"	"NULL"	"<p style=\"color: black; font-size: 80px; padding-left: 14%; padding-right: 24%; padding-top: 1%; padding-bottom: 49%\">+</p>"	"1124"	n/a	n/a	n/a	n/a	n/a	n/a	n/a	n/a	n/a
n/a	"image-keyboard-response"	"102"	"278035"	"0.0-5.0-2.0-1.24"	"9pyfsz"	"600"	"1366"	"chrome"	"111.0.0"	"FALSE"	"Windows 10"	"60.09"	"053"	n/a	n/a	n/a	n/a	n/a	n/a	"Trial"	n/a	n/a	n/a	"743"	"arrowright"	n/a	"NULL"	"NULL"	"NULL"	"stimuli/VerticalHorizontal_-11.78571_-0.2250.png"	n/a	"VerticalHorizontal"	"arrowright"	"1126"	"TRUE"	"VerticalHorizontal"	"-11.78571000"	"-0.225000000"	"1"	"43"
n/a	"html-keyboard-response"	"103"	"279475"	"0.0-5.0-2.0-0.25"	"9pyfsz"	"600"	"1366"	"chrome"	"111.0.0"	"FALSE"	"Windows 10"	"60.09"	"053"	n/a	n/a	n/a	n/a	n/a	n/a	"fixation"	n/a	n/a	n/a	n/a	"NULL"	n/a	"NULL"	"NULL"	"NULL"	"<p style=\"color: black; font-size: 80px; padding-left: 5%; padding-right: 22%; padding-top: 35%; padding-bottom: 45%\">+</p>"	"1433"	n/a	n/a	n/a	n/a	n/a	n/a	n/a	n/a	n/a
n/a	"image-keyboard-response"	"104"	"280722"	"0.0-5.0-2.0-1.25"	"9pyfsz"	"600"	"1366"	"chrome"	"111.0.0"	"FALSE"	"Windows 10"	"60.09"	"053"	n/a	n/a	n/a	n/a	n/a	n/a	"Trial"	n/a	n/a	n/a	"1246"	"arrowleft"	n/a	"NULL"	"NULL"	"NULL"	"stimuli/VerticalHorizontal_3.30000_0.06730.png"	n/a	"VerticalHorizontal"	"arrowleft"	"1440"	"TRUE"	"VerticalHorizontal"	"3.3000000000"	"0.0673000000"	"1"	"44"
n/a	"html-keyboard-response"	"105"	"282142"	"0.0-5.0-2.0-0.26"	"9pyfsz"	"600"	"1366"	"chrome"	"111.0.0"	"FALSE"	"Windows 10"	"60.09"	"053"	n/a	n/a	n/a	n/a	n/a	n/a	"fixation"	n/a	n/a	n/a	n/a	"NULL"	n/a	"NULL"	"NULL"	"NULL"	"<p style=\"color: black; font-size: 80px; padding-left: 47%; padding-right: 8%; padding-top: 21%; padding-bottom: 6%\">+</p>"	"1418"	n/a	n/a	n/a	n/a	n/a	n/a	n/a	n/a	n/a
n/a	"image-keyboard-response"	"106"	"283101"	"0.0-5.0-2.0-1.26"	"9pyfsz"	"600"	"1366"	"chrome"	"111.0.0"	"FALSE"	"Windows 10"	"60.09"	"053"	n/a	n/a	n/a	n/a	n/a	n/a	"Trial"	n/a	n/a	n/a	"958"	"arrowleft"	n/a	"NULL"	"NULL"	"NULL"	"stimuli/VerticalHorizontal_-11.78571_0.22500.png"	n/a	"VerticalHorizontal"	"arrowleft"	"1420"	"TRUE"	"VerticalHorizontal"	"-11.78571000"	"0.2250000000"	"1"	"45"
n/a	"html-keyboard-response"	"107"	"284487"	"0.0-5.0-2.0-0.27"	"9pyfsz"	"600"	"1366"	"chrome"	"111.0.0"	"FALSE"	"Windows 10"	"60.09"	"053"	n/a	n/a	n/a	n/a	n/a	n/a	"fixation"	n/a	n/a	n/a	n/a	"NULL"	n/a	"NULL"	"NULL"	"NULL"	"<p style=\"color: black; font-size: 80px; padding-left: 15%; padding-right: 11%; padding-top: 33%; padding-bottom: 3%\">+</p>"	"1374"	n/a	n/a	n/a	n/a	n/a	n/a	n/a	n/a	n/a
n/a	"image-keyboard-response"	"108"	"286007"	"0.0-5.0-2.0-1.27"	"9pyfsz"	"600"	"1366"	"chrome"	"111.0.0"	"FALSE"	"Windows 10"	"60.09"	"053"	n/a	n/a	n/a	n/a	n/a	n/a	"Trial"	n/a	n/a	n/a	"1519"	"arrowright"	n/a	"NULL"	"NULL"	"NULL"	"stimuli/VerticalHorizontal_3.30000_-0.1096.png"	n/a	"VerticalHorizontal"	"arrowright"	"1386"	"TRUE"	"VerticalHorizontal"	"3.3000000000"	"-0.109600000"	"1"	"46"
n/a	"html-keyboard-response"	"109"	"287516"	"0.0-5.0-2.0-0.28"	"9pyfsz"	"600"	"1366"	"chrome"	"111.0.0"	"FALSE"	"Windows 10"	"60.09"	"053"	n/a	n/a	n/a	n/a	n/a	n/a	"fixation"	n/a	n/a	n/a	n/a	"NULL"	n/a	"NULL"	"NULL"	"NULL"	"<p style=\"color: black; font-size: 80px; padding-left: 16%; padding-right: 21%; padding-top: 14%; padding-bottom: 33%\">+</p>"	"1493"	n/a	n/a	n/a	n/a	n/a	n/a	n/a	n/a	n/a
n/a	"image-keyboard-response"	"110"	"288710"	"0.0-5.0-2.0-1.28"	"9pyfsz"	"600"	"1366"	"chrome"	"111.0.0"	"FALSE"	"Windows 10"	"60.09"	"053"	n/a	n/a	n/a	n/a	n/a	n/a	"Trial"	n/a	n/a	n/a	"1193"	"arrowright"	n/a	"NULL"	"NULL"	"NULL"	"stimuli/VerticalHorizontal_-28.75714_-0.0673.png"	n/a	"VerticalHorizontal"	"arrowright"	"1509"	"TRUE"	"VerticalHorizontal"	"-28.75714000"	"-0.067300000"	"1"	"47"
n/a	"html-keyboard-response"	"111"	"289863"	"0.0-5.0-2.0-0.29"	"9pyfsz"	"600"	"1366"	"chrome"	"111.0.0"	"FALSE"	"Windows 10"	"60.09"	"053"	n/a	n/a	n/a	n/a	n/a	n/a	"fixation"	n/a	n/a	n/a	n/a	"NULL"	n/a	"NULL"	"NULL"	"NULL"	"<p style=\"color: black; font-size: 80px; padding-left: 22%; padding-right: 18%; padding-top: 30%; padding-bottom: 13%\">+</p>"	"1140"	n/a	n/a	n/a	n/a	n/a	n/a	n/a	n/a	n/a
n/a	"image-keyboard-response"	"112"	"291832"	"0.0-5.0-2.0-1.29"	"9pyfsz"	"600"	"1366"	"chrome"	"111.0.0"	"FALSE"	"Windows 10"	"60.09"	"053"	n/a	n/a	n/a	n/a	n/a	n/a	"Trial"	n/a	n/a	n/a	"1968"	"arrowright"	n/a	"NULL"	"NULL"	"NULL"	"stimuli/VerticalHorizontal_20.27143_-0.16217.png"	n/a	"VerticalHorizontal"	"arrowright"	"1153"	"TRUE"	"VerticalHorizontal"	"20.271430000"	"-0.162170000"	"1"	"48"
n/a	"html-keyboard-response"	"113"	"293330"	"0.0-5.0-2.0-0.30"	"9pyfsz"	"600"	"1366"	"chrome"	"111.0.0"	"FALSE"	"Windows 10"	"60.09"	"053"	n/a	n/a	n/a	n/a	n/a	n/a	"fixation"	n/a	n/a	n/a	n/a	"NULL"	n/a	"NULL"	"NULL"	"NULL"	"<p style=\"color: black; font-size: 80px; padding-left: 15%; padding-right: 44%; padding-top: 18%; padding-bottom: 34%\">+</p>"	"1495"	n/a	n/a	n/a	n/a	n/a	n/a	n/a	n/a	n/a
n/a	"image-keyboard-response"	"114"	"294779"	"0.0-5.0-2.0-1.30"	"9pyfsz"	"600"	"1366"	"chrome"	"111.0.0"	"FALSE"	"Windows 10"	"60.09"	"053"	n/a	n/a	n/a	n/a	n/a	n/a	"Trial"	n/a	n/a	n/a	"1445"	"arrowright"	n/a	"NULL"	"NULL"	"NULL"	"stimuli/VerticalHorizontal_20.27143_-0.2250.png"	n/a	"VerticalHorizontal"	"arrowright"	"1498"	"TRUE"	"VerticalHorizontal"	"20.271430000"	"-0.225000000"	"1"	"49"
n/a	"html-keyboard-response"	"115"	"296212"	"0.0-5.0-2.0-0.31"	"9pyfsz"	"600"	"1366"	"chrome"	"111.0.0"	"FALSE"	"Windows 10"	"60.09"	"053"	n/a	n/a	n/a	n/a	n/a	n/a	"fixation"	n/a	n/a	n/a	n/a	"NULL"	n/a	"NULL"	"NULL"	"NULL"	"<p style=\"color: black; font-size: 80px; padding-left: 35%; padding-right: 23%; padding-top: 42%; padding-bottom: 18%\">+</p>"	"1421"	n/a	n/a	n/a	n/a	n/a	n/a	n/a	n/a	n/a
n/a	"image-keyboard-response"	"116"	"296977"	"0.0-5.0-2.0-1.31"	"9pyfsz"	"600"	"1366"	"chrome"	"111.0.0"	"FALSE"	"Windows 10"	"60.09"	"053"	n/a	n/a	n/a	n/a	n/a	n/a	"Trial"	n/a	n/a	n/a	"764"	"arrowright"	n/a	"NULL"	"NULL"	"NULL"	"stimuli/VerticalHorizontal_-11.78571_-0.16217.png"	n/a	"VerticalHorizontal"	"arrowright"	"1433"	"TRUE"	"VerticalHorizontal"	"-11.78571000"	"-0.162170000"	"1"	"50"
n/a	"html-keyboard-response"	"117"	"298144"	"0.0-5.0-2.0-0.32"	"9pyfsz"	"600"	"1366"	"chrome"	"111.0.0"	"FALSE"	"Windows 10"	"60.09"	"053"	n/a	n/a	n/a	n/a	n/a	n/a	"fixation"	n/a	n/a	n/a	n/a	"NULL"	n/a	"NULL"	"NULL"	"NULL"	"<p style=\"color: black; font-size: 80px; padding-left: 5%; padding-right: 39%; padding-top: 36%; padding-bottom: 12%\">+</p>"	"1155"	n/a	n/a	n/a	n/a	n/a	n/a	n/a	n/a	n/a
n/a	"image-keyboard-response"	"118"	"299646"	"0.0-5.0-2.0-1.32"	"9pyfsz"	"600"	"1366"	"chrome"	"111.0.0"	"FALSE"	"Windows 10"	"60.09"	"053"	n/a	n/a	n/a	n/a	n/a	n/a	"Trial"	n/a	n/a	n/a	"1501"	"arrowright"	n/a	"NULL"	"NULL"	"NULL"	"stimuli/VerticalHorizontal_-11.78571_-0.1096.png"	n/a	"VerticalHorizontal"	"arrowright"	"1167"	"TRUE"	"VerticalHorizontal"	"-11.78571000"	"-0.109600000"	"1"	"51"
n/a	"html-keyboard-response"	"119"	"300744"	"0.0-5.0-2.0-0.33"	"9pyfsz"	"600"	"1366"	"chrome"	"111.0.0"	"FALSE"	"Windows 10"	"60.09"	"053"	n/a	n/a	n/a	n/a	n/a	n/a	"fixation"	n/a	n/a	n/a	n/a	"NULL"	n/a	"NULL"	"NULL"	"NULL"	"<p style=\"color: black; font-size: 80px; padding-left: 19%; padding-right: 45%; padding-top: 5%; padding-bottom: 44%\">+</p>"	"1097"	n/a	n/a	n/a	n/a	n/a	n/a	n/a	n/a	n/a
n/a	"image-keyboard-response"	"120"	"303507"	"0.0-5.0-2.0-1.33"	"9pyfsz"	"600"	"1366"	"chrome"	"111.0.0"	"FALSE"	"Windows 10"	"60.09"	"053"	n/a	n/a	n/a	n/a	n/a	n/a	"Trial"	n/a	n/a	n/a	"2763"	"arrowleft"	n/a	"NULL"	"NULL"	"NULL"	"stimuli/VerticalHorizontal_28.75714_0.10960.png"	n/a	"VerticalHorizontal"	"arrowleft"	"1098"	"TRUE"	"VerticalHorizontal"	"28.757140000"	"0.1096000000"	"1"	"52"
n/a	"html-keyboard-response"	"121"	"304800"	"0.0-5.0-2.0-0.34"	"9pyfsz"	"600"	"1366"	"chrome"	"111.0.0"	"FALSE"	"Windows 10"	"60.09"	"053"	n/a	n/a	n/a	n/a	n/a	n/a	"fixation"	n/a	n/a	n/a	n/a	"NULL"	n/a	"NULL"	"NULL"	"NULL"	"<p style=\"color: black; font-size: 80px; padding-left: 2%; padding-right: 47%; padding-top: 4%; padding-bottom: 22%\">+</p>"	"1280"	n/a	n/a	n/a	n/a	n/a	n/a	n/a	n/a	n/a
n/a	"image-keyboard-response"	"122"	"306252"	"0.0-5.0-2.0-1.34"	"9pyfsz"	"600"	"1366"	"chrome"	"111.0.0"	"FALSE"	"Windows 10"	"60.09"	"053"	n/a	n/a	n/a	n/a	n/a	n/a	"Trial"	n/a	n/a	n/a	"1451"	"arrowright"	n/a	"NULL"	"NULL"	"NULL"	"stimuli/VerticalHorizontal_3.30000_-0.0673.png"	n/a	"VerticalHorizontal"	"arrowright"	"1293"	"TRUE"	"VerticalHorizontal"	"3.3000000000"	"-0.067300000"	"1"	"53"
n/a	"html-keyboard-response"	"123"	"307483"	"0.0-5.0-2.0-0.35"	"9pyfsz"	"600"	"1366"	"chrome"	"111.0.0"	"FALSE"	"Windows 10"	"60.09"	"053"	n/a	n/a	n/a	n/a	n/a	n/a	"fixation"	n/a	n/a	n/a	n/a	"NULL"	n/a	"NULL"	"NULL"	"NULL"	"<p style=\"color: black; font-size: 80px; padding-left: 43%; padding-right: 2%; padding-top: 4%; padding-bottom: 30%\">+</p>"	"1221"	n/a	n/a	n/a	n/a	n/a	n/a	n/a	n/a	n/a
n/a	"image-keyboard-response"	"124"	"308552"	"0.0-5.0-2.0-1.35"	"9pyfsz"	"600"	"1366"	"chrome"	"111.0.0"	"FALSE"	"Windows 10"	"60.09"	"053"	n/a	n/a	n/a	n/a	n/a	n/a	"Trial"	n/a	n/a	n/a	"1069"	"arrowleft"	n/a	"NULL"	"NULL"	"NULL"	"stimuli/VerticalHorizontal_-11.78571_0.06730.png"	n/a	"VerticalHorizontal"	"arrowleft"	"1231"	"TRUE"	"VerticalHorizontal"	"-11.78571000"	"0.0673000000"	"1"	"54"
n/a	"html-keyboard-response"	"125"	"309941"	"0.0-5.0-2.0-0.36"	"9pyfsz"	"600"	"1366"	"chrome"	"111.0.0"	"FALSE"	"Windows 10"	"60.09"	"053"	n/a	n/a	n/a	n/a	n/a	n/a	"fixation"	n/a	n/a	n/a	n/a	"NULL"	n/a	"NULL"	"NULL"	"NULL"	"<p style=\"color: black; font-size: 80px; padding-left: 17%; padding-right: 34%; padding-top: 45%; padding-bottom: 42%\">+</p>"	"1379"	n/a	n/a	n/a	n/a	n/a	n/a	n/a	n/a	n/a
n/a	"image-keyboard-response"	"126"	"311219"	"0.0-5.0-2.0-1.36"	"9pyfsz"	"600"	"1366"	"chrome"	"111.0.0"	"FALSE"	"Windows 10"	"60.09"	"053"	n/a	n/a	n/a	n/a	n/a	n/a	"Trial"	n/a	n/a	n/a	"1277"	"arrowleft"	n/a	"NULL"	"NULL"	"NULL"	"stimuli/VerticalHorizontal_11.78571_0.16217.png"	n/a	"VerticalHorizontal"	"arrowleft"	"1389"	"TRUE"	"VerticalHorizontal"	"11.785710000"	"0.1621700000"	"1"	"55"
n/a	"html-keyboard-response"	"127"	"312527"	"0.0-5.0-2.0-0.37"	"9pyfsz"	"600"	"1366"	"chrome"	"111.0.0"	"FALSE"	"Windows 10"	"60.09"	"053"	n/a	n/a	n/a	n/a	n/a	n/a	"fixation"	n/a	n/a	n/a	n/a	"NULL"	n/a	"NULL"	"NULL"	"NULL"	"<p style=\"color: black; font-size: 80px; padding-left: 38%; padding-right: 30%; padding-top: 25%; padding-bottom: 42%\">+</p>"	"1294"	n/a	n/a	n/a	n/a	n/a	n/a	n/a	n/a	n/a
n/a	"image-keyboard-response"	"128"	"314079"	"0.0-5.0-2.0-1.37"	"9pyfsz"	"600"	"1366"	"chrome"	"111.0.0"	"FALSE"	"Windows 10"	"60.09"	"053"	n/a	n/a	n/a	n/a	n/a	n/a	"Trial"	n/a	n/a	n/a	"1551"	"arrowleft"	n/a	"NULL"	"NULL"	"NULL"	"stimuli/VerticalHorizontal_3.30000_0.10960.png"	n/a	"VerticalHorizontal"	"arrowleft"	"1308"	"TRUE"	"VerticalHorizontal"	"3.3000000000"	"0.1096000000"	"1"	"56"
n/a	"html-keyboard-response"	"129"	"315456"	"0.0-5.0-2.0-0.38"	"9pyfsz"	"600"	"1366"	"chrome"	"111.0.0"	"FALSE"	"Windows 10"	"60.09"	"053"	n/a	n/a	n/a	n/a	n/a	n/a	"fixation"	n/a	n/a	n/a	n/a	"NULL"	n/a	"NULL"	"NULL"	"NULL"	"<p style=\"color: black; font-size: 80px; padding-left: 30%; padding-right: 18%; padding-top: 22%; padding-bottom: 35%\">+</p>"	"1367"	n/a	n/a	n/a	n/a	n/a	n/a	n/a	n/a	n/a
n/a	"image-keyboard-response"	"130"	"316492"	"0.0-5.0-2.0-1.38"	"9pyfsz"	"600"	"1366"	"chrome"	"111.0.0"	"FALSE"	"Windows 10"	"60.09"	"053"	n/a	n/a	n/a	n/a	n/a	n/a	"Trial"	n/a	n/a	n/a	"1035"	"arrowleft"	n/a	"NULL"	"NULL"	"NULL"	"stimuli/VerticalHorizontal_11.78571_0.22500.png"	n/a	"VerticalHorizontal"	"arrowleft"	"1377"	"TRUE"	"VerticalHorizontal"	"11.785710000"	"0.2250000000"	"1"	"57"
n/a	"html-keyboard-response"	"131"	"317780"	"0.0-5.0-2.0-0.39"	"9pyfsz"	"600"	"1366"	"chrome"	"111.0.0"	"FALSE"	"Windows 10"	"60.09"	"053"	n/a	n/a	n/a	n/a	n/a	n/a	"fixation"	n/a	n/a	n/a	n/a	"NULL"	n/a	"NULL"	"NULL"	"NULL"	"<p style=\"color: black; font-size: 80px; padding-left: 44%; padding-right: 3%; padding-top: 32%; padding-bottom: 33%\">+</p>"	"1280"	n/a	n/a	n/a	n/a	n/a	n/a	n/a	n/a	n/a
n/a	"image-keyboard-response"	"132"	"318858"	"0.0-5.0-2.0-1.39"	"9pyfsz"	"600"	"1366"	"chrome"	"111.0.0"	"FALSE"	"Windows 10"	"60.09"	"053"	n/a	n/a	n/a	n/a	n/a	n/a	"Trial"	n/a	n/a	n/a	"1077"	"arrowright"	n/a	"NULL"	"NULL"	"NULL"	"stimuli/VerticalHorizontal_-20.27143_-0.0673.png"	n/a	"VerticalHorizontal"	"arrowright"	"1288"	"TRUE"	"VerticalHorizontal"	"-20.27143000"	"-0.067300000"	"1"	"58"
n/a	"html-keyboard-response"	"133"	"320083"	"0.0-5.0-2.0-0.40"	"9pyfsz"	"600"	"1366"	"chrome"	"111.0.0"	"FALSE"	"Windows 10"	"60.09"	"053"	n/a	n/a	n/a	n/a	n/a	n/a	"fixation"	n/a	n/a	n/a	n/a	"NULL"	n/a	"NULL"	"NULL"	"NULL"	"<p style=\"color: black; font-size: 80px; padding-left: 10%; padding-right: 43%; padding-top: 42%; padding-bottom: 21%\">+</p>"	"1217"	n/a	n/a	n/a	n/a	n/a	n/a	n/a	n/a	n/a
n/a	"image-keyboard-response"	"134"	"321679"	"0.0-5.0-2.0-1.40"	"9pyfsz"	"600"	"1366"	"chrome"	"111.0.0"	"FALSE"	"Windows 10"	"60.09"	"053"	n/a	n/a	n/a	n/a	n/a	n/a	"Trial"	n/a	n/a	n/a	"1595"	"arrowleft"	n/a	"NULL"	"NULL"	"NULL"	"stimuli/VerticalHorizontal_28.75714_0.22500.png"	n/a	"VerticalHorizontal"	"arrowleft"	"1225"	"TRUE"	"VerticalHorizontal"	"28.757140000"	"0.2250000000"	"1"	"59"
n/a	"html-keyboard-response"	"135"	"322853"	"0.0-5.0-2.0-0.41"	"9pyfsz"	"600"	"1366"	"chrome"	"111.0.0"	"FALSE"	"Windows 10"	"60.09"	"053"	n/a	n/a	n/a	n/a	n/a	n/a	"fixation"	n/a	n/a	n/a	n/a	"NULL"	n/a	"NULL"	"NULL"	"NULL"	"<p style=\"color: black; font-size: 80px; padding-left: 39%; padding-right: 29%; padding-top: 36%; padding-bottom: 8%\">+</p>"	"1166"	n/a	n/a	n/a	n/a	n/a	n/a	n/a	n/a	n/a
n/a	"image-keyboard-response"	"136"	"326713"	"0.0-5.0-2.0-1.41"	"9pyfsz"	"600"	"1366"	"chrome"	"111.0.0"	"FALSE"	"Windows 10"	"60.09"	"053"	n/a	n/a	n/a	n/a	n/a	n/a	"Trial"	n/a	n/a	n/a	"3860"	"arrowleft"	n/a	"NULL"	"NULL"	"NULL"	"stimuli/VerticalHorizontal_28.75714_-0.0673.png"	n/a	"VerticalHorizontal"	"arrowright"	"1174"	"FALSE"	"VerticalHorizontal"	"28.757140000"	"-0.067300000"	"1"	"60"
n/a	"html-keyboard-response"	"137"	"327735"	"0.0-5.0-2.0-0.42"	"9pyfsz"	"600"	"1366"	"chrome"	"111.0.0"	"FALSE"	"Windows 10"	"60.09"	"053"	n/a	n/a	n/a	n/a	n/a	n/a	"fixation"	n/a	n/a	n/a	n/a	"NULL"	n/a	"NULL"	"NULL"	"NULL"	"<p style=\"color: black; font-size: 80px; padding-left: 35%; padding-right: 20%; padding-top: 25%; padding-bottom: 32%\">+</p>"	"1014"	n/a	n/a	n/a	n/a	n/a	n/a	n/a	n/a	n/a
n/a	"image-keyboard-response"	"138"	"331537"	"0.0-5.0-2.0-1.42"	"9pyfsz"	"600"	"1366"	"chrome"	"111.0.0"	"FALSE"	"Windows 10"	"60.09"	"053"	n/a	n/a	n/a	n/a	n/a	n/a	"Trial"	n/a	n/a	n/a	"3801"	"arrowleft"	n/a	"NULL"	"NULL"	"NULL"	"stimuli/VerticalHorizontal_20.27143_0.16217.png"	n/a	"VerticalHorizontal"	"arrowleft"	"1022"	"TRUE"	"VerticalHorizontal"	"20.271430000"	"0.1621700000"	"1"	"61"
n/a	"html-keyboard-response"	"139"	"332802"	"0.0-5.0-2.0-0.43"	"9pyfsz"	"600"	"1366"	"chrome"	"111.0.0"	"FALSE"	"Windows 10"	"60.09"	"053"	n/a	n/a	n/a	n/a	n/a	n/a	"fixation"	n/a	n/a	n/a	n/a	"NULL"	n/a	"NULL"	"NULL"	"NULL"	"<p style=\"color: black; font-size: 80px; padding-left: 16%; padding-right: 33%; padding-top: 12%; padding-bottom: 25%\">+</p>"	"1258"	n/a	n/a	n/a	n/a	n/a	n/a	n/a	n/a	n/a
n/a	"image-keyboard-response"	"140"	"334201"	"0.0-5.0-2.0-1.43"	"9pyfsz"	"600"	"1366"	"chrome"	"111.0.0"	"FALSE"	"Windows 10"	"60.09"	"053"	n/a	n/a	n/a	n/a	n/a	n/a	"Trial"	n/a	n/a	n/a	"1398"	"arrowleft"	n/a	"NULL"	"NULL"	"NULL"	"stimuli/VerticalHorizontal_-28.75714_0.10960.png"	n/a	"VerticalHorizontal"	"arrowleft"	"1265"	"TRUE"	"VerticalHorizontal"	"-28.75714000"	"0.1096000000"	"1"	"62"
n/a	"html-keyboard-response"	"141"	"335474"	"0.0-5.0-2.0-0.44"	"9pyfsz"	"600"	"1366"	"chrome"	"111.0.0"	"FALSE"	"Windows 10"	"60.09"	"053"	n/a	n/a	n/a	n/a	n/a	n/a	"fixation"	n/a	n/a	n/a	n/a	"NULL"	n/a	"NULL"	"NULL"	"NULL"	"<p style=\"color: black; font-size: 80px; padding-left: 48%; padding-right: 17%; padding-top: 4%; padding-bottom: 22%\">+</p>"	"1259"	n/a	n/a	n/a	n/a	n/a	n/a	n/a	n/a	n/a
n/a	"image-keyboard-response"	"142"	"336824"	"0.0-5.0-2.0-1.44"	"9pyfsz"	"600"	"1366"	"chrome"	"111.0.0"	"FALSE"	"Windows 10"	"60.09"	"053"	n/a	n/a	n/a	n/a	n/a	n/a	"Trial"	n/a	n/a	n/a	"1349"	"arrowright"	n/a	"NULL"	"NULL"	"NULL"	"stimuli/VerticalHorizontal_28.75714_-0.16217.png"	n/a	"VerticalHorizontal"	"arrowright"	"1273"	"TRUE"	"VerticalHorizontal"	"28.757140000"	"-0.162170000"	"1"	"63"
n/a	"html-keyboard-response"	"143"	"337932"	"0.0-5.0-2.0-0.45"	"9pyfsz"	"600"	"1366"	"chrome"	"111.0.0"	"FALSE"	"Windows 10"	"60.09"	"053"	n/a	n/a	n/a	n/a	n/a	n/a	"fixation"	n/a	n/a	n/a	n/a	"NULL"	n/a	"NULL"	"NULL"	"NULL"	"<p style=\"color: black; font-size: 80px; padding-left: 2%; padding-right: 41%; padding-top: 36%; padding-bottom: 3%\">+</p>"	"1102"	n/a	n/a	n/a	n/a	n/a	n/a	n/a	n/a	n/a
n/a	"image-keyboard-response"	"144"	"338789"	"0.0-5.0-2.0-1.45"	"9pyfsz"	"600"	"1366"	"chrome"	"111.0.0"	"FALSE"	"Windows 10"	"60.09"	"053"	n/a	n/a	n/a	n/a	n/a	n/a	"Trial"	n/a	n/a	n/a	"856"	"arrowright"	n/a	"NULL"	"NULL"	"NULL"	"stimuli/VerticalHorizontal_3.30000_-0.16217.png"	n/a	"VerticalHorizontal"	"arrowright"	"1108"	"TRUE"	"VerticalHorizontal"	"3.3000000000"	"-0.162170000"	"1"	"64"
n/a	"html-keyboard-response"	"145"	"340268"	"0.0-5.0-2.0-0.46"	"9pyfsz"	"600"	"1366"	"chrome"	"111.0.0"	"FALSE"	"Windows 10"	"60.09"	"053"	n/a	n/a	n/a	n/a	n/a	n/a	"fixation"	n/a	n/a	n/a	n/a	"NULL"	n/a	"NULL"	"NULL"	"NULL"	"<p style=\"color: black; font-size: 80px; padding-left: 17%; padding-right: 5%; padding-top: 33%; padding-bottom: 34%\">+</p>"	"1473"	n/a	n/a	n/a	n/a	n/a	n/a	n/a	n/a	n/a
n/a	"image-keyboard-response"	"146"	"341966"	"0.0-5.0-2.0-1.46"	"9pyfsz"	"600"	"1366"	"chrome"	"111.0.0"	"FALSE"	"Windows 10"	"60.09"	"053"	n/a	n/a	n/a	n/a	n/a	n/a	"Trial"	n/a	n/a	n/a	"1697"	"arrowleft"	n/a	"NULL"	"NULL"	"NULL"	"stimuli/VerticalHorizontal_-3.3000_0.06730.png"	n/a	"VerticalHorizontal"	"arrowleft"	"1479"	"TRUE"	"VerticalHorizontal"	"-3.300000000"	"0.0673000000"	"1"	"65"
n/a	"html-keyboard-response"	"147"	"343202"	"0.0-5.0-2.0-0.47"	"9pyfsz"	"600"	"1366"	"chrome"	"111.0.0"	"FALSE"	"Windows 10"	"60.09"	"053"	n/a	n/a	n/a	n/a	n/a	n/a	"fixation"	n/a	n/a	n/a	n/a	"NULL"	n/a	"NULL"	"NULL"	"NULL"	"<p style=\"color: black; font-size: 80px; padding-left: 13%; padding-right: 6%; padding-top: 8%; padding-bottom: 36%\">+</p>"	"1235"	n/a	n/a	n/a	n/a	n/a	n/a	n/a	n/a	n/a
n/a	"image-keyboard-response"	"148"	"343980"	"0.0-5.0-2.0-1.47"	"9pyfsz"	"600"	"1366"	"chrome"	"111.0.0"	"FALSE"	"Windows 10"	"60.09"	"053"	n/a	n/a	n/a	n/a	n/a	n/a	"Trial"	n/a	n/a	n/a	"777"	"arrowleft"	n/a	"NULL"	"NULL"	"NULL"	"stimuli/VerticalHorizontal_-20.27143_0.10960.png"	n/a	"VerticalHorizontal"	"arrowleft"	"1236"	"TRUE"	"VerticalHorizontal"	"-20.27143000"	"0.1096000000"	"1"	"66"
n/a	"html-keyboard-response"	"149"	"345284"	"0.0-5.0-2.0-0.48"	"9pyfsz"	"600"	"1366"	"chrome"	"111.0.0"	"FALSE"	"Windows 10"	"60.09"	"053"	n/a	n/a	n/a	n/a	n/a	n/a	"fixation"	n/a	n/a	n/a	n/a	"NULL"	n/a	"NULL"	"NULL"	"NULL"	"<p style=\"color: black; font-size: 80px; padding-left: 33%; padding-right: 43%; padding-top: 18%; padding-bottom: 7%\">+</p>"	"1288"	n/a	n/a	n/a	n/a	n/a	n/a	n/a	n/a	n/a
n/a	"image-keyboard-response"	"150"	"345930"	"0.0-5.0-2.0-1.48"	"9pyfsz"	"600"	"1366"	"chrome"	"111.0.0"	"FALSE"	"Windows 10"	"60.09"	"053"	n/a	n/a	n/a	n/a	n/a	n/a	"Trial"	n/a	n/a	n/a	"646"	"arrowright"	n/a	"NULL"	"NULL"	"NULL"	"stimuli/VerticalHorizontal_-20.27143_-0.2250.png"	n/a	"VerticalHorizontal"	"arrowright"	"1304"	"TRUE"	"VerticalHorizontal"	"-20.27143000"	"-0.225000000"	"1"	"67"
n/a	"html-keyboard-response"	"151"	"347042"	"0.0-5.0-2.0-0.49"	"9pyfsz"	"600"	"1366"	"chrome"	"111.0.0"	"FALSE"	"Windows 10"	"60.09"	"053"	n/a	n/a	n/a	n/a	n/a	n/a	"fixation"	n/a	n/a	n/a	n/a	"NULL"	n/a	"NULL"	"NULL"	"NULL"	"<p style=\"color: black; font-size: 80px; padding-left: 14%; padding-right: 29%; padding-top: 1%; padding-bottom: 13%\">+</p>"	"1100"	n/a	n/a	n/a	n/a	n/a	n/a	n/a	n/a	n/a
n/a	"image-keyboard-response"	"152"	"348157"	"0.0-5.0-2.0-1.49"	"9pyfsz"	"600"	"1366"	"chrome"	"111.0.0"	"FALSE"	"Windows 10"	"60.09"	"053"	n/a	n/a	n/a	n/a	n/a	n/a	"Trial"	n/a	n/a	n/a	"1114"	"arrowleft"	n/a	"NULL"	"NULL"	"NULL"	"stimuli/VerticalHorizontal_11.78571_0.06730.png"	n/a	"VerticalHorizontal"	"arrowleft"	"1112"	"TRUE"	"VerticalHorizontal"	"11.785710000"	"0.0673000000"	"1"	"68"
n/a	"html-keyboard-response"	"153"	"349347"	"0.0-5.0-2.0-0.50"	"9pyfsz"	"600"	"1366"	"chrome"	"111.0.0"	"FALSE"	"Windows 10"	"60.09"	"053"	n/a	n/a	n/a	n/a	n/a	n/a	"fixation"	n/a	n/a	n/a	n/a	"NULL"	n/a	"NULL"	"NULL"	"NULL"	"<p style=\"color: black; font-size: 80px; padding-left: 18%; padding-right: 29%; padding-top: 23%; padding-bottom: 7%\">+</p>"	"1180"	n/a	n/a	n/a	n/a	n/a	n/a	n/a	n/a	n/a
n/a	"image-keyboard-response"	"154"	"350117"	"0.0-5.0-2.0-1.50"	"9pyfsz"	"600"	"1366"	"chrome"	"111.0.0"	"FALSE"	"Windows 10"	"60.09"	"053"	n/a	n/a	n/a	n/a	n/a	n/a	"Trial"	n/a	n/a	n/a	"769"	"arrowright"	n/a	"NULL"	"NULL"	"NULL"	"stimuli/VerticalHorizontal_-3.3000_-0.2250.png"	n/a	"VerticalHorizontal"	"arrowright"	"1190"	"TRUE"	"VerticalHorizontal"	"-3.300000000"	"-0.225000000"	"1"	"69"
n/a	"html-keyboard-response"	"155"	"351502"	"0.0-5.0-2.0-0.51"	"9pyfsz"	"600"	"1366"	"chrome"	"111.0.0"	"FALSE"	"Windows 10"	"60.09"	"053"	n/a	n/a	n/a	n/a	n/a	n/a	"fixation"	n/a	n/a	n/a	n/a	"NULL"	n/a	"NULL"	"NULL"	"NULL"	"<p style=\"color: black; font-size: 80px; padding-left: 38%; padding-right: 45%; padding-top: 37%; padding-bottom: 15%\">+</p>"	"1382"	n/a	n/a	n/a	n/a	n/a	n/a	n/a	n/a	n/a
n/a	"image-keyboard-response"	"156"	"352117"	"0.0-5.0-2.0-1.51"	"9pyfsz"	"600"	"1366"	"chrome"	"111.0.0"	"FALSE"	"Windows 10"	"60.09"	"053"	n/a	n/a	n/a	n/a	n/a	n/a	"Trial"	n/a	n/a	n/a	"615"	"arrowleft"	n/a	"NULL"	"NULL"	"NULL"	"stimuli/VerticalHorizontal_3.30000_0.16217.png"	n/a	"VerticalHorizontal"	"arrowleft"	"1385"	"TRUE"	"VerticalHorizontal"	"3.3000000000"	"0.1621700000"	"1"	"70"
n/a	"html-keyboard-response"	"157"	"353563"	"0.0-5.0-2.0-0.52"	"9pyfsz"	"600"	"1366"	"chrome"	"111.0.0"	"FALSE"	"Windows 10"	"60.09"	"053"	n/a	n/a	n/a	n/a	n/a	n/a	"fixation"	n/a	n/a	n/a	n/a	"NULL"	n/a	"NULL"	"NULL"	"NULL"	"<p style=\"color: black; font-size: 80px; padding-left: 19%; padding-right: 11%; padding-top: 33%; padding-bottom: 26%\">+</p>"	"1430"	n/a	n/a	n/a	n/a	n/a	n/a	n/a	n/a	n/a
n/a	"image-keyboard-response"	"158"	"354436"	"0.0-5.0-2.0-1.52"	"9pyfsz"	"600"	"1366"	"chrome"	"111.0.0"	"FALSE"	"Windows 10"	"60.09"	"053"	n/a	n/a	n/a	n/a	n/a	n/a	"Trial"	n/a	n/a	n/a	"872"	"arrowleft"	n/a	"NULL"	"NULL"	"NULL"	"stimuli/VerticalHorizontal_-28.75714_0.16217.png"	n/a	"VerticalHorizontal"	"arrowleft"	"1446"	"TRUE"	"VerticalHorizontal"	"-28.75714000"	"0.1621700000"	"1"	"71"
n/a	"html-keyboard-response"	"159"	"355619"	"0.0-5.0-2.0-0.53"	"9pyfsz"	"600"	"1366"	"chrome"	"111.0.0"	"FALSE"	"Windows 10"	"60.09"	"053"	n/a	n/a	n/a	n/a	n/a	n/a	"fixation"	n/a	n/a	n/a	n/a	"NULL"	n/a	"NULL"	"NULL"	"NULL"	"<p style=\"color: black; font-size: 80px; padding-left: 31%; padding-right: 50%; padding-top: 36%; padding-bottom: 9%\">+</p>"	"1161"	n/a	n/a	n/a	n/a	n/a	n/a	n/a	n/a	n/a
n/a	"image-keyboard-response"	"160"	"356303"	"0.0-5.0-2.0-1.53"	"9pyfsz"	"600"	"1366"	"chrome"	"111.0.0"	"FALSE"	"Windows 10"	"60.09"	"053"	n/a	n/a	n/a	n/a	n/a	n/a	"Trial"	n/a	n/a	n/a	"683"	"arrowleft"	n/a	"NULL"	"NULL"	"NULL"	"stimuli/VerticalHorizontal_-28.75714_0.22500.png"	n/a	"VerticalHorizontal"	"arrowleft"	"1183"	"TRUE"	"VerticalHorizontal"	"-28.75714000"	"0.2250000000"	"1"	"72"
n/a	"html-keyboard-response"	"161"	"357809"	"0.0-5.0-2.0-0.54"	"9pyfsz"	"600"	"1366"	"chrome"	"111.0.0"	"FALSE"	"Windows 10"	"60.09"	"053"	n/a	n/a	n/a	n/a	n/a	n/a	"fixation"	n/a	n/a	n/a	n/a	"NULL"	n/a	"NULL"	"NULL"	"NULL"	"<p style=\"color: black; font-size: 80px; padding-left: 44%; padding-right: 10%; padding-top: 39%; padding-bottom: 24%\">+</p>"	"1492"	n/a	n/a	n/a	n/a	n/a	n/a	n/a	n/a	n/a
n/a	"image-keyboard-response"	"162"	"358956"	"0.0-5.0-2.0-1.54"	"9pyfsz"	"600"	"1366"	"chrome"	"111.0.0"	"FALSE"	"Windows 10"	"60.09"	"053"	n/a	n/a	n/a	n/a	n/a	n/a	"Trial"	n/a	n/a	n/a	"1146"	"arrowright"	n/a	"NULL"	"NULL"	"NULL"	"stimuli/VerticalHorizontal_-3.3000_-0.0673.png"	n/a	"VerticalHorizontal"	"arrowright"	"1506"	"TRUE"	"VerticalHorizontal"	"-3.300000000"	"-0.067300000"	"1"	"73"
n/a	"html-keyboard-response"	"163"	"360407"	"0.0-5.0-2.0-0.55"	"9pyfsz"	"600"	"1366"	"chrome"	"111.0.0"	"FALSE"	"Windows 10"	"60.09"	"053"	n/a	n/a	n/a	n/a	n/a	n/a	"fixation"	n/a	n/a	n/a	n/a	"NULL"	n/a	"NULL"	"NULL"	"NULL"	"<p style=\"color: black; font-size: 80px; padding-left: 44%; padding-right: 44%; padding-top: 27%; padding-bottom: 26%\">+</p>"	"1442"	n/a	n/a	n/a	n/a	n/a	n/a	n/a	n/a	n/a
n/a	"image-keyboard-response"	"164"	"361033"	"0.0-5.0-2.0-1.55"	"9pyfsz"	"600"	"1366"	"chrome"	"111.0.0"	"FALSE"	"Windows 10"	"60.09"	"053"	n/a	n/a	n/a	n/a	n/a	n/a	"Trial"	n/a	n/a	n/a	"625"	"arrowright"	n/a	"NULL"	"NULL"	"NULL"	"stimuli/VerticalHorizontal_-28.75714_-0.16217.png"	n/a	"VerticalHorizontal"	"arrowright"	"1451"	"TRUE"	"VerticalHorizontal"	"-28.75714000"	"-0.162170000"	"1"	"74"
n/a	"html-keyboard-response"	"165"	"362479"	"0.0-5.0-2.0-0.56"	"9pyfsz"	"600"	"1366"	"chrome"	"111.0.0"	"FALSE"	"Windows 10"	"60.09"	"053"	n/a	n/a	n/a	n/a	n/a	n/a	"fixation"	n/a	n/a	n/a	n/a	"NULL"	n/a	"NULL"	"NULL"	"NULL"	"<p style=\"color: black; font-size: 80px; padding-left: 22%; padding-right: 32%; padding-top: 47%; padding-bottom: 43%\">+</p>"	"1439"	n/a	n/a	n/a	n/a	n/a	n/a	n/a	n/a	n/a
n/a	"image-keyboard-response"	"166"	"363577"	"0.0-5.0-2.0-1.56"	"9pyfsz"	"600"	"1366"	"chrome"	"111.0.0"	"FALSE"	"Windows 10"	"60.09"	"053"	n/a	n/a	n/a	n/a	n/a	n/a	"Trial"	n/a	n/a	n/a	"1097"	"arrowright"	n/a	"NULL"	"NULL"	"NULL"	"stimuli/VerticalHorizontal_-3.3000_-0.16217.png"	n/a	"VerticalHorizontal"	"arrowright"	"1446"	"TRUE"	"VerticalHorizontal"	"-3.300000000"	"-0.162170000"	"1"	"75"
n/a	"html-keyboard-response"	"167"	"364707"	"0.0-5.0-2.0-0.57"	"9pyfsz"	"600"	"1366"	"chrome"	"111.0.0"	"FALSE"	"Windows 10"	"60.09"	"053"	n/a	n/a	n/a	n/a	n/a	n/a	"fixation"	n/a	n/a	n/a	n/a	"NULL"	n/a	"NULL"	"NULL"	"NULL"	"<p style=\"color: black; font-size: 80px; padding-left: 23%; padding-right: 30%; padding-top: 10%; padding-bottom: 28%\">+</p>"	"1117"	n/a	n/a	n/a	n/a	n/a	n/a	n/a	n/a	n/a
n/a	"image-keyboard-response"	"168"	"367180"	"0.0-5.0-2.0-1.57"	"9pyfsz"	"600"	"1366"	"chrome"	"111.0.0"	"FALSE"	"Windows 10"	"60.09"	"053"	n/a	n/a	n/a	n/a	n/a	n/a	"Trial"	n/a	n/a	n/a	"2472"	"arrowright"	n/a	"NULL"	"NULL"	"NULL"	"stimuli/VerticalHorizontal_20.27143_-0.1096.png"	n/a	"VerticalHorizontal"	"arrowright"	"1130"	"TRUE"	"VerticalHorizontal"	"20.271430000"	"-0.109600000"	"1"	"76"
n/a	"html-keyboard-response"	"169"	"368376"	"0.0-5.0-2.0-0.58"	"9pyfsz"	"600"	"1366"	"chrome"	"111.0.0"	"FALSE"	"Windows 10"	"60.09"	"053"	n/a	n/a	n/a	n/a	n/a	n/a	"fixation"	n/a	n/a	n/a	n/a	"NULL"	n/a	"NULL"	"NULL"	"NULL"	"<p style=\"color: black; font-size: 80px; padding-left: 24%; padding-right: 25%; padding-top: 2%; padding-bottom: 5%\">+</p>"	"1181"	n/a	n/a	n/a	n/a	n/a	n/a	n/a	n/a	n/a
n/a	"image-keyboard-response"	"170"	"370321"	"0.0-5.0-2.0-1.58"	"9pyfsz"	"600"	"1366"	"chrome"	"111.0.0"	"FALSE"	"Windows 10"	"60.09"	"053"	n/a	n/a	n/a	n/a	n/a	n/a	"Trial"	n/a	n/a	n/a	"1944"	"arrowright"	n/a	"NULL"	"NULL"	"NULL"	"stimuli/VerticalHorizontal_11.78571_-0.1096.png"	n/a	"VerticalHorizontal"	"arrowright"	"1196"	"TRUE"	"VerticalHorizontal"	"11.785710000"	"-0.109600000"	"1"	"77"
n/a	"html-keyboard-response"	"171"	"371379"	"0.0-5.0-2.0-0.59"	"9pyfsz"	"600"	"1366"	"chrome"	"111.0.0"	"FALSE"	"Windows 10"	"60.09"	"053"	n/a	n/a	n/a	n/a	n/a	n/a	"fixation"	n/a	n/a	n/a	n/a	"NULL"	n/a	"NULL"	"NULL"	"NULL"	"<p style=\"color: black; font-size: 80px; padding-left: 31%; padding-right: 42%; padding-top: 35%; padding-bottom: 17%\">+</p>"	"1053"	n/a	n/a	n/a	n/a	n/a	n/a	n/a	n/a	n/a
n/a	"image-keyboard-response"	"172"	"372827"	"0.0-5.0-2.0-1.59"	"9pyfsz"	"600"	"1366"	"chrome"	"111.0.0"	"FALSE"	"Windows 10"	"60.09"	"053"	n/a	n/a	n/a	n/a	n/a	n/a	"Trial"	n/a	n/a	n/a	"1447"	"arrowright"	n/a	"NULL"	"NULL"	"NULL"	"stimuli/VerticalHorizontal_11.78571_-0.16217.png"	n/a	"VerticalHorizontal"	"arrowright"	"1058"	"TRUE"	"VerticalHorizontal"	"11.785710000"	"-0.162170000"	"1"	"78"
n/a	"html-keyboard-response"	"173"	"374259"	"0.0-5.0-2.0-0.60"	"9pyfsz"	"600"	"1366"	"chrome"	"111.0.0"	"FALSE"	"Windows 10"	"60.09"	"053"	n/a	n/a	n/a	n/a	n/a	n/a	"fixation"	n/a	n/a	n/a	n/a	"NULL"	n/a	"NULL"	"NULL"	"NULL"	"<p style=\"color: black; font-size: 80px; padding-left: 14%; padding-right: 4%; padding-top: 11%; padding-bottom: 17%\">+</p>"	"1424"	n/a	n/a	n/a	n/a	n/a	n/a	n/a	n/a	n/a
n/a	"image-keyboard-response"	"174"	"375226"	"0.0-5.0-2.0-1.60"	"9pyfsz"	"600"	"1366"	"chrome"	"111.0.0"	"FALSE"	"Windows 10"	"60.09"	"053"	n/a	n/a	n/a	n/a	n/a	n/a	"Trial"	n/a	n/a	n/a	"966"	"arrowleft"	n/a	"NULL"	"NULL"	"NULL"	"stimuli/VerticalHorizontal_-11.78571_0.10960.png"	n/a	"VerticalHorizontal"	"arrowleft"	"1432"	"TRUE"	"VerticalHorizontal"	"-11.78571000"	"0.1096000000"	"1"	"79"
n/a	"html-keyboard-response"	"175"	"376550"	"0.0-5.0-2.0-0.61"	"9pyfsz"	"600"	"1366"	"chrome"	"111.0.0"	"FALSE"	"Windows 10"	"60.09"	"053"	n/a	n/a	n/a	n/a	n/a	n/a	"fixation"	n/a	n/a	n/a	n/a	"NULL"	n/a	"NULL"	"NULL"	"NULL"	"<p style=\"color: black; font-size: 80px; padding-left: 43%; padding-right: 14%; padding-top: 22%; padding-bottom: 8%\">+</p>"	"1309"	n/a	n/a	n/a	n/a	n/a	n/a	n/a	n/a	n/a
n/a	"image-keyboard-response"	"176"	"377702"	"0.0-5.0-2.0-1.61"	"9pyfsz"	"600"	"1366"	"chrome"	"111.0.0"	"FALSE"	"Windows 10"	"60.09"	"053"	n/a	n/a	n/a	n/a	n/a	n/a	"Trial"	n/a	n/a	n/a	"1152"	"arrowleft"	n/a	"NULL"	"NULL"	"NULL"	"stimuli/VerticalHorizontal_-3.3000_0.16217.png"	n/a	"VerticalHorizontal"	"arrowleft"	"1324"	"TRUE"	"VerticalHorizontal"	"-3.300000000"	"0.1621700000"	"1"	"80"
n/a	"html-keyboard-response"	"177"	"379100"	"0.0-5.0-2.0-0.62"	"9pyfsz"	"600"	"1366"	"chrome"	"111.0.0"	"FALSE"	"Windows 10"	"60.09"	"053"	n/a	n/a	n/a	n/a	n/a	n/a	"fixation"	n/a	n/a	n/a	n/a	"NULL"	n/a	"NULL"	"NULL"	"NULL"	"<p style=\"color: black; font-size: 80px; padding-left: 38%; padding-right: 47%; padding-top: 48%; padding-bottom: 36%\">+</p>"	"1386"	n/a	n/a	n/a	n/a	n/a	n/a	n/a	n/a	n/a
n/a	"image-keyboard-response"	"178"	"380463"	"0.0-5.0-2.0-1.62"	"9pyfsz"	"600"	"1366"	"chrome"	"111.0.0"	"FALSE"	"Windows 10"	"60.09"	"053"	n/a	n/a	n/a	n/a	n/a	n/a	"Trial"	n/a	n/a	n/a	"1362"	"arrowleft"	n/a	"NULL"	"NULL"	"NULL"	"stimuli/VerticalHorizontal_-20.27143_0.06730.png"	n/a	"VerticalHorizontal"	"arrowleft"	"1398"	"TRUE"	"VerticalHorizontal"	"-20.27143000"	"0.0673000000"	"1"	"81"
n/a	"html-keyboard-response"	"179"	"381737"	"0.0-5.0-2.0-0.63"	"9pyfsz"	"600"	"1366"	"chrome"	"111.0.0"	"FALSE"	"Windows 10"	"60.09"	"053"	n/a	n/a	n/a	n/a	n/a	n/a	"fixation"	n/a	n/a	n/a	n/a	"NULL"	n/a	"NULL"	"NULL"	"NULL"	"<p style=\"color: black; font-size: 80px; padding-left: 31%; padding-right: 45%; padding-top: 42%; padding-bottom: 36%\">+</p>"	"1259"	n/a	n/a	n/a	n/a	n/a	n/a	n/a	n/a	n/a
n/a	"image-keyboard-response"	"180"	"382798"	"0.0-5.0-2.0-1.63"	"9pyfsz"	"600"	"1366"	"chrome"	"111.0.0"	"FALSE"	"Windows 10"	"60.09"	"053"	n/a	n/a	n/a	n/a	n/a	n/a	"Trial"	n/a	n/a	n/a	"1060"	"arrowright"	n/a	"NULL"	"NULL"	"NULL"	"stimuli/VerticalHorizontal_11.78571_-0.2250.png"	n/a	"VerticalHorizontal"	"arrowright"	"1274"	"TRUE"	"VerticalHorizontal"	"11.785710000"	"-0.225000000"	"1"	"82"
n/a	"html-button-response"	"181"	"398924"	"0.0-5.0-3.0"	"9pyfsz"	"600"	"1366"	"chrome"	"111.0.0"	"FALSE"	"Windows 10"	"60.09"	"053"	n/a	n/a	n/a	n/a	n/a	n/a	"block_results"	n/a	n/a	n/a	"16124"	"0"	n/a	"NULL"	"NULL"	"NULL"	"<p>Your score for this illusion is <p style=\"color: black; font-size: 48px; font-weight: bold;\">65 %</p><hr><p>Can you do better in the next illusion?</p>"	n/a	n/a	n/a	n/a	n/a	n/a	n/a	n/a	n/a	n/a
"TRUE"	"preload"	"182"	"399701"	"0.0-6.0-0.0"	"9pyfsz"	"600"	"1366"	"chrome"	"111.0.0"	"FALSE"	"Windows 10"	"60.09"	"053"	n/a	n/a	n/a	n/a	n/a	n/a	n/a	n/a	n/a	n/a	n/a	"NULL"	"FALSE"	"list()"	"list()"	"list()"	n/a	n/a	n/a	n/a	n/a	n/a	n/a	n/a	n/a	n/a	n/a
n/a	"html-keyboard-response"	"183"	"404123"	"0.0-6.0-1.0"	"9pyfsz"	"600"	"1366"	"chrome"	"111.0.0"	"FALSE"	"Windows 10"	"60.09"	"053"	n/a	n/a	n/a	n/a	n/a	n/a	n/a	n/a	n/a	n/a	"4421"	"enter"	n/a	"NULL"	"NULL"	"NULL"	"<p><b>Part 2/6</b></p><p>In this part, two red circles will appear side by side on the screen.</p><p>Your task is to select which <b>red circle is bigger</b> in size as fast as you can, without making errors.</p><p>Don't get distracted by the surrounding black circles around the red circles!</p><p>Press <b>the LEFT or the RIGHT arrow</b> to indicate which is the bigger <b>red circle.</b></p><div style='float: center'><img src='materials/instructions/Ebbinghaus_Demo.png' height='300'></img><p><img src='utils/answer/answer_leftright_keyboard.PNG' height='150'></img></p><p class='small'>In this example, the correct answer is the <b>LEFT arrow</b>.</p></div><p>Are you ready? <b>Press ENTER to start</b></p>"	n/a	n/a	n/a	n/a	n/a	n/a	n/a	n/a	n/a	n/a
n/a	"html-keyboard-response"	"184"	"405772"	"0.0-6.0-2.0-0.0"	"9pyfsz"	"600"	"1366"	"chrome"	"111.0.0"	"FALSE"	"Windows 10"	"60.09"	"053"	n/a	n/a	n/a	n/a	n/a	n/a	"fixation"	n/a	n/a	n/a	n/a	"NULL"	n/a	"NULL"	"NULL"	"NULL"	"<p style=\"color: black; font-size: 80px; padding-left: 37%; padding-right: 13%; padding-top: 46%; padding-bottom: 25%\">+</p>"	"1140"	n/a	n/a	n/a	n/a	n/a	n/a	n/a	n/a	n/a
n/a	"image-keyboard-response"	"185"	"406385"	"0.0-6.0-2.0-1.0"	"9pyfsz"	"600"	"1366"	"chrome"	"111.0.0"	"FALSE"	"Windows 10"	"60.09"	"053"	n/a	n/a	n/a	n/a	n/a	n/a	"Trial"	n/a	n/a	n/a	"612"	"arrowright"	n/a	"NULL"	"NULL"	"NULL"	"stimuli/Ebbinghaus_-0.35714_-0.2150.png"	n/a	"Ebbinghaus"	"arrowright"	"1649"	"TRUE"	"Ebbinghaus"	"-0.357140000"	"-0.215000000"	"2"	"1"
n/a	"html-keyboard-response"	"186"	"407748"	"0.0-6.0-2.0-0.1"	"9pyfsz"	"600"	"1366"	"chrome"	"111.0.0"	"FALSE"	"Windows 10"	"60.09"	"053"	n/a	n/a	n/a	n/a	n/a	n/a	"fixation"	n/a	n/a	n/a	n/a	"NULL"	n/a	"NULL"	"NULL"	"NULL"	"<p style=\"color: black; font-size: 80px; padding-left: 31%; padding-right: 26%; padding-top: 31%; padding-bottom: 3%\">+</p>"	"1357"	n/a	n/a	n/a	n/a	n/a	n/a	n/a	n/a	n/a
n/a	"image-keyboard-response"	"187"	"408508"	"0.0-6.0-2.0-1.1"	"9pyfsz"	"600"	"1366"	"chrome"	"111.0.0"	"FALSE"	"Windows 10"	"60.09"	"053"	n/a	n/a	n/a	n/a	n/a	n/a	"Trial"	n/a	n/a	n/a	"758"	"arrowleft"	n/a	"NULL"	"NULL"	"NULL"	"stimuli/Ebbinghaus_0.87143_0.28000.png"	n/a	"Ebbinghaus"	"arrowleft"	"1363"	"TRUE"	"Ebbinghaus"	"0.8714300000"	"0.2800000000"	"2"	"2"
n/a	"html-keyboard-response"	"188"	"409774"	"0.0-6.0-2.0-0.2"	"9pyfsz"	"600"	"1366"	"chrome"	"111.0.0"	"FALSE"	"Windows 10"	"60.09"	"053"	n/a	n/a	n/a	n/a	n/a	n/a	"fixation"	n/a	n/a	n/a	n/a	"NULL"	n/a	"NULL"	"NULL"	"NULL"	"<p style=\"color: black; font-size: 80px; padding-left: 20%; padding-right: 12%; padding-top: 22%; padding-bottom: 37%\">+</p>"	"1266"	n/a	n/a	n/a	n/a	n/a	n/a	n/a	n/a	n/a
n/a	"image-keyboard-response"	"189"	"410646"	"0.0-6.0-2.0-1.2"	"9pyfsz"	"600"	"1366"	"chrome"	"111.0.0"	"FALSE"	"Windows 10"	"60.09"	"053"	n/a	n/a	n/a	n/a	n/a	n/a	"Trial"	n/a	n/a	n/a	"871"	"arrowleft"	n/a	"NULL"	"NULL"	"NULL"	"stimuli/Ebbinghaus_-0.87143_0.21500.png"	n/a	"Ebbinghaus"	"arrowleft"	"1266"	"TRUE"	"Ebbinghaus"	"-0.871430000"	"0.2150000000"	"2"	"3"
n/a	"html-keyboard-response"	"190"	"412000"	"0.0-6.0-2.0-0.3"	"9pyfsz"	"600"	"1366"	"chrome"	"111.0.0"	"FALSE"	"Windows 10"	"60.09"	"053"	n/a	n/a	n/a	n/a	n/a	n/a	"fixation"	n/a	n/a	n/a	n/a	"NULL"	n/a	"NULL"	"NULL"	"NULL"	"<p style=\"color: black; font-size: 80px; padding-left: 27%; padding-right: 11%; padding-top: 5%; padding-bottom: 22%\">+</p>"	"1343"	n/a	n/a	n/a	n/a	n/a	n/a	n/a	n/a	n/a
n/a	"image-keyboard-response"	"191"	"413175"	"0.0-6.0-2.0-1.3"	"9pyfsz"	"600"	"1366"	"chrome"	"111.0.0"	"FALSE"	"Windows 10"	"60.09"	"053"	n/a	n/a	n/a	n/a	n/a	n/a	"Trial"	n/a	n/a	n/a	"1174"	"arrowright"	n/a	"NULL"	"NULL"	"NULL"	"stimuli/Ebbinghaus_-0.1000_-0.11071.png"	n/a	"Ebbinghaus"	"arrowright"	"1354"	"TRUE"	"Ebbinghaus"	"-0.100000000"	"-0.110710000"	"2"	"4"
n/a	"html-keyboard-response"	"192"	"414416"	"0.0-6.0-2.0-0.4"	"9pyfsz"	"600"	"1366"	"chrome"	"111.0.0"	"FALSE"	"Windows 10"	"60.09"	"053"	n/a	n/a	n/a	n/a	n/a	n/a	"fixation"	n/a	n/a	n/a	n/a	"NULL"	n/a	"NULL"	"NULL"	"NULL"	"<p style=\"color: black; font-size: 80px; padding-left: 42%; padding-right: 30%; padding-top: 43%; padding-bottom: 19%\">+</p>"	"1229"	n/a	n/a	n/a	n/a	n/a	n/a	n/a	n/a	n/a
n/a	"image-keyboard-response"	"193"	"415123"	"0.0-6.0-2.0-1.4"	"9pyfsz"	"600"	"1366"	"chrome"	"111.0.0"	"FALSE"	"Windows 10"	"60.09"	"053"	n/a	n/a	n/a	n/a	n/a	n/a	"Trial"	n/a	n/a	n/a	"706"	"arrowright"	n/a	"NULL"	"NULL"	"NULL"	"stimuli/Ebbinghaus_-0.35714_-0.2800.png"	n/a	"Ebbinghaus"	"arrowright"	"1241"	"TRUE"	"Ebbinghaus"	"-0.357140000"	"-0.280000000"	"2"	"5"
n/a	"html-keyboard-response"	"194"	"416447"	"0.0-6.0-2.0-0.5"	"9pyfsz"	"600"	"1366"	"chrome"	"111.0.0"	"FALSE"	"Windows 10"	"60.09"	"053"	n/a	n/a	n/a	n/a	n/a	n/a	"fixation"	n/a	n/a	n/a	n/a	"NULL"	n/a	"NULL"	"NULL"	"NULL"	"<p style=\"color: black; font-size: 80px; padding-left: 37%; padding-right: 48%; padding-top: 42%; padding-bottom: 30%\">+</p>"	"1319"	n/a	n/a	n/a	n/a	n/a	n/a	n/a	n/a	n/a
n/a	"image-keyboard-response"	"195"	"417339"	"0.0-6.0-2.0-1.5"	"9pyfsz"	"600"	"1366"	"chrome"	"111.0.0"	"FALSE"	"Windows 10"	"60.09"	"053"	n/a	n/a	n/a	n/a	n/a	n/a	"Trial"	n/a	n/a	n/a	"891"	"arrowleft"	n/a	"NULL"	"NULL"	"NULL"	"stimuli/Ebbinghaus_-0.61429_0.21500.png"	n/a	"Ebbinghaus"	"arrowleft"	"1324"	"TRUE"	"Ebbinghaus"	"-0.614290000"	"0.2150000000"	"2"	"6"
n/a	"html-keyboard-response"	"196"	"418658"	"0.0-6.0-2.0-0.6"	"9pyfsz"	"600"	"1366"	"chrome"	"111.0.0"	"FALSE"	"Windows 10"	"60.09"	"053"	n/a	n/a	n/a	n/a	n/a	n/a	"fixation"	n/a	n/a	n/a	n/a	"NULL"	n/a	"NULL"	"NULL"	"NULL"	"<p style=\"color: black; font-size: 80px; padding-left: 40%; padding-right: 40%; padding-top: 16%; padding-bottom: 23%\">+</p>"	"1305"	n/a	n/a	n/a	n/a	n/a	n/a	n/a	n/a	n/a
n/a	"image-keyboard-response"	"197"	"419520"	"0.0-6.0-2.0-1.6"	"9pyfsz"	"600"	"1366"	"chrome"	"111.0.0"	"FALSE"	"Windows 10"	"60.09"	"053"	n/a	n/a	n/a	n/a	n/a	n/a	"Trial"	n/a	n/a	n/a	"862"	"arrowleft"	n/a	"NULL"	"NULL"	"NULL"	"stimuli/Ebbinghaus_-0.87143_0.28000.png"	n/a	"Ebbinghaus"	"arrowleft"	"1319"	"TRUE"	"Ebbinghaus"	"-0.871430000"	"0.2800000000"	"2"	"7"
n/a	"html-keyboard-response"	"198"	"421001"	"0.0-6.0-2.0-0.7"	"9pyfsz"	"600"	"1366"	"chrome"	"111.0.0"	"FALSE"	"Windows 10"	"60.09"	"053"	n/a	n/a	n/a	n/a	n/a	n/a	"fixation"	n/a	n/a	n/a	n/a	"NULL"	n/a	"NULL"	"NULL"	"NULL"	"<p style=\"color: black; font-size: 80px; padding-left: 28%; padding-right: 0%; padding-top: 30%; padding-bottom: 12%\">+</p>"	"1470"	n/a	n/a	n/a	n/a	n/a	n/a	n/a	n/a	n/a
n/a	"image-keyboard-response"	"199"	"422066"	"0.0-6.0-2.0-1.7"	"9pyfsz"	"600"	"1366"	"chrome"	"111.0.0"	"FALSE"	"Windows 10"	"60.09"	"053"	n/a	n/a	n/a	n/a	n/a	n/a	"Trial"	n/a	n/a	n/a	"1064"	"arrowright"	n/a	"NULL"	"NULL"	"NULL"	"stimuli/Ebbinghaus_0.35714_-0.2800.png"	n/a	"Ebbinghaus"	"arrowright"	"1481"	"TRUE"	"Ebbinghaus"	"0.3571400000"	"-0.280000000"	"2"	"8"
n/a	"html-keyboard-response"	"200"	"423574"	"0.0-6.0-2.0-0.8"	"9pyfsz"	"600"	"1366"	"chrome"	"111.0.0"	"FALSE"	"Windows 10"	"60.09"	"053"	n/a	n/a	n/a	n/a	n/a	n/a	"fixation"	n/a	n/a	n/a	n/a	"NULL"	n/a	"NULL"	"NULL"	"NULL"	"<p style=\"color: black; font-size: 80px; padding-left: 45%; padding-right: 3%; padding-top: 48%; padding-bottom: 22%\">+</p>"	"1496"	n/a	n/a	n/a	n/a	n/a	n/a	n/a	n/a	n/a
n/a	"image-keyboard-response"	"201"	"424930"	"0.0-6.0-2.0-1.8"	"9pyfsz"	"600"	"1366"	"chrome"	"111.0.0"	"FALSE"	"Windows 10"	"60.09"	"053"	n/a	n/a	n/a	n/a	n/a	n/a	"Trial"	n/a	n/a	n/a	"1355"	"arrowleft"	n/a	"NULL"	"NULL"	"NULL"	"stimuli/Ebbinghaus_-0.1000_0.15857.png"	n/a	"Ebbinghaus"	"arrowleft"	"1508"	"TRUE"	"Ebbinghaus"	"-0.100000000"	"0.1585700000"	"2"	"9"
n/a	"html-keyboard-response"	"202"	"425976"	"0.0-6.0-2.0-0.9"	"9pyfsz"	"600"	"1366"	"chrome"	"111.0.0"	"FALSE"	"Windows 10"	"60.09"	"053"	n/a	n/a	n/a	n/a	n/a	n/a	"fixation"	n/a	n/a	n/a	n/a	"NULL"	n/a	"NULL"	"NULL"	"NULL"	"<p style=\"color: black; font-size: 80px; padding-left: 3%; padding-right: 17%; padding-top: 8%; padding-bottom: 33%\">+</p>"	"1043"	n/a	n/a	n/a	n/a	n/a	n/a	n/a	n/a	n/a
n/a	"image-keyboard-response"	"203"	"427099"	"0.0-6.0-2.0-1.9"	"9pyfsz"	"600"	"1366"	"chrome"	"111.0.0"	"FALSE"	"Windows 10"	"60.09"	"053"	n/a	n/a	n/a	n/a	n/a	n/a	"Trial"	n/a	n/a	n/a	"1122"	"arrowright"	n/a	"NULL"	"NULL"	"NULL"	"stimuli/Ebbinghaus_-0.1000_-0.2150.png"	n/a	"Ebbinghaus"	"arrowright"	"1046"	"TRUE"	"Ebbinghaus"	"-0.100000000"	"-0.215000000"	"2"	"10"
n/a	"html-keyboard-response"	"204"	"428286"	"0.0-6.0-2.0-0.10"	"9pyfsz"	"600"	"1366"	"chrome"	"111.0.0"	"FALSE"	"Windows 10"	"60.09"	"053"	n/a	n/a	n/a	n/a	n/a	n/a	"fixation"	n/a	n/a	n/a	n/a	"NULL"	n/a	"NULL"	"NULL"	"NULL"	"<p style=\"color: black; font-size: 80px; padding-left: 6%; padding-right: 32%; padding-top: 14%; padding-bottom: 13%\">+</p>"	"1174"	n/a	n/a	n/a	n/a	n/a	n/a	n/a	n/a	n/a
n/a	"image-keyboard-response"	"205"	"430686"	"0.0-6.0-2.0-1.10"	"9pyfsz"	"600"	"1366"	"chrome"	"111.0.0"	"FALSE"	"Windows 10"	"60.09"	"053"	n/a	n/a	n/a	n/a	n/a	n/a	"Trial"	n/a	n/a	n/a	"2400"	"arrowright"	n/a	"NULL"	"NULL"	"NULL"	"stimuli/Ebbinghaus_0.61429_-0.11071.png"	n/a	"Ebbinghaus"	"arrowright"	"1187"	"TRUE"	"Ebbinghaus"	"0.6142900000"	"-0.110710000"	"2"	"11"
n/a	"html-keyboard-response"	"206"	"431908"	"0.0-6.0-2.0-0.11"	"9pyfsz"	"600"	"1366"	"chrome"	"111.0.0"	"FALSE"	"Windows 10"	"60.09"	"053"	n/a	n/a	n/a	n/a	n/a	n/a	"fixation"	n/a	n/a	n/a	n/a	"NULL"	n/a	"NULL"	"NULL"	"NULL"	"<p style=\"color: black; font-size: 80px; padding-left: 48%; padding-right: 28%; padding-top: 5%; padding-bottom: 50%\">+</p>"	"1218"	n/a	n/a	n/a	n/a	n/a	n/a	n/a	n/a	n/a
n/a	"image-keyboard-response"	"207"	"433947"	"0.0-6.0-2.0-1.11"	"9pyfsz"	"600"	"1366"	"chrome"	"111.0.0"	"FALSE"	"Windows 10"	"60.09"	"053"	n/a	n/a	n/a	n/a	n/a	n/a	"Trial"	n/a	n/a	n/a	"2038"	"arrowright"	n/a	"NULL"	"NULL"	"NULL"	"stimuli/Ebbinghaus_0.87143_-0.2150.png"	n/a	"Ebbinghaus"	"arrowright"	"1222"	"TRUE"	"Ebbinghaus"	"0.8714300000"	"-0.215000000"	"2"	"12"
n/a	"html-keyboard-response"	"208"	"435237"	"0.0-6.0-2.0-0.12"	"9pyfsz"	"600"	"1366"	"chrome"	"111.0.0"	"FALSE"	"Windows 10"	"60.09"	"053"	n/a	n/a	n/a	n/a	n/a	n/a	"fixation"	n/a	n/a	n/a	n/a	"NULL"	n/a	"NULL"	"NULL"	"NULL"	"<p style=\"color: black; font-size: 80px; padding-left: 48%; padding-right: 15%; padding-top: 43%; padding-bottom: 26%\">+</p>"	"1280"	n/a	n/a	n/a	n/a	n/a	n/a	n/a	n/a	n/a
n/a	"image-keyboard-response"	"209"	"436229"	"0.0-6.0-2.0-1.12"	"9pyfsz"	"600"	"1366"	"chrome"	"111.0.0"	"FALSE"	"Windows 10"	"60.09"	"053"	n/a	n/a	n/a	n/a	n/a	n/a	"Trial"	n/a	n/a	n/a	"991"	"arrowleft"	n/a	"NULL"	"NULL"	"NULL"	"stimuli/Ebbinghaus_-0.35714_0.11071.png"	n/a	"Ebbinghaus"	"arrowleft"	"1290"	"TRUE"	"Ebbinghaus"	"-0.357140000"	"0.1107100000"	"2"	"13"
n/a	"html-keyboard-response"	"210"	"437345"	"0.0-6.0-2.0-0.13"	"9pyfsz"	"600"	"1366"	"chrome"	"111.0.0"	"FALSE"	"Windows 10"	"60.09"	"053"	n/a	n/a	n/a	n/a	n/a	n/a	"fixation"	n/a	n/a	n/a	n/a	"NULL"	n/a	"NULL"	"NULL"	"NULL"	"<p style=\"color: black; font-size: 80px; padding-left: 27%; padding-right: 3%; padding-top: 36%; padding-bottom: 29%\">+</p>"	"1103"	n/a	n/a	n/a	n/a	n/a	n/a	n/a	n/a	n/a
n/a	"image-keyboard-response"	"211"	"438237"	"0.0-6.0-2.0-1.13"	"9pyfsz"	"600"	"1366"	"chrome"	"111.0.0"	"FALSE"	"Windows 10"	"60.09"	"053"	n/a	n/a	n/a	n/a	n/a	n/a	"Trial"	n/a	n/a	n/a	"891"	"arrowright"	n/a	"NULL"	"NULL"	"NULL"	"stimuli/Ebbinghaus_-0.35714_-0.11071.png"	n/a	"Ebbinghaus"	"arrowright"	"1116"	"TRUE"	"Ebbinghaus"	"-0.357140000"	"-0.110710000"	"2"	"14"
n/a	"html-keyboard-response"	"212"	"439742"	"0.0-6.0-2.0-0.14"	"9pyfsz"	"600"	"1366"	"chrome"	"111.0.0"	"FALSE"	"Windows 10"	"60.09"	"053"	n/a	n/a	n/a	n/a	n/a	n/a	"fixation"	n/a	n/a	n/a	n/a	"NULL"	n/a	"NULL"	"NULL"	"NULL"	"<p style=\"color: black; font-size: 80px; padding-left: 28%; padding-right: 40%; padding-top: 20%; padding-bottom: 26%\">+</p>"	"1493"	n/a	n/a	n/a	n/a	n/a	n/a	n/a	n/a	n/a
n/a	"image-keyboard-response"	"213"	"441171"	"0.0-6.0-2.0-1.14"	"9pyfsz"	"600"	"1366"	"chrome"	"111.0.0"	"FALSE"	"Windows 10"	"60.09"	"053"	n/a	n/a	n/a	n/a	n/a	n/a	"Trial"	n/a	n/a	n/a	"1428"	"arrowright"	n/a	"NULL"	"NULL"	"NULL"	"stimuli/Ebbinghaus_0.10000_-0.2150.png"	n/a	"Ebbinghaus"	"arrowright"	"1505"	"TRUE"	"Ebbinghaus"	"0.1000000000"	"-0.215000000"	"2"	"15"
n/a	"html-keyboard-response"	"214"	"442183"	"0.0-6.0-2.0-0.15"	"9pyfsz"	"600"	"1366"	"chrome"	"111.0.0"	"FALSE"	"Windows 10"	"60.09"	"053"	n/a	n/a	n/a	n/a	n/a	n/a	"fixation"	n/a	n/a	n/a	n/a	"NULL"	n/a	"NULL"	"NULL"	"NULL"	"<p style=\"color: black; font-size: 80px; padding-left: 39%; padding-right: 5%; padding-top: 17%; padding-bottom: 50%\">+</p>"	"1009"	n/a	n/a	n/a	n/a	n/a	n/a	n/a	n/a	n/a
n/a	"image-keyboard-response"	"215"	"443027"	"0.0-6.0-2.0-1.15"	"9pyfsz"	"600"	"1366"	"chrome"	"111.0.0"	"FALSE"	"Windows 10"	"60.09"	"053"	n/a	n/a	n/a	n/a	n/a	n/a	"Trial"	n/a	n/a	n/a	"843"	"arrowleft"	n/a	"NULL"	"NULL"	"NULL"	"stimuli/Ebbinghaus_-0.61429_0.11071.png"	n/a	"Ebbinghaus"	"arrowleft"	"1012"	"TRUE"	"Ebbinghaus"	"-0.614290000"	"0.1107100000"	"2"	"16"
n/a	"html-keyboard-response"	"216"	"444310"	"0.0-6.0-2.0-0.16"	"9pyfsz"	"600"	"1366"	"chrome"	"111.0.0"	"FALSE"	"Windows 10"	"60.09"	"053"	n/a	n/a	n/a	n/a	n/a	n/a	"fixation"	n/a	n/a	n/a	n/a	"NULL"	n/a	"NULL"	"NULL"	"NULL"	"<p style=\"color: black; font-size: 80px; padding-left: 1%; padding-right: 41%; padding-top: 12%; padding-bottom: 15%\">+</p>"	"1281"	n/a	n/a	n/a	n/a	n/a	n/a	n/a	n/a	n/a
n/a	"image-keyboard-response"	"217"	"445456"	"0.0-6.0-2.0-1.16"	"9pyfsz"	"600"	"1366"	"chrome"	"111.0.0"	"FALSE"	"Windows 10"	"60.09"	"053"	n/a	n/a	n/a	n/a	n/a	n/a	"Trial"	n/a	n/a	n/a	"1146"	"arrowright"	n/a	"NULL"	"NULL"	"NULL"	"stimuli/Ebbinghaus_0.61429_-0.2150.png"	n/a	"Ebbinghaus"	"arrowright"	"1283"	"TRUE"	"Ebbinghaus"	"0.6142900000"	"-0.215000000"	"2"	"17"
n/a	"html-keyboard-response"	"218"	"446648"	"0.0-6.0-2.0-0.17"	"9pyfsz"	"600"	"1366"	"chrome"	"111.0.0"	"FALSE"	"Windows 10"	"60.09"	"053"	n/a	n/a	n/a	n/a	n/a	n/a	"fixation"	n/a	n/a	n/a	n/a	"NULL"	n/a	"NULL"	"NULL"	"NULL"	"<p style=\"color: black; font-size: 80px; padding-left: 16%; padding-right: 22%; padding-top: 27%; padding-bottom: 32%\">+</p>"	"1179"	n/a	n/a	n/a	n/a	n/a	n/a	n/a	n/a	n/a
n/a	"image-keyboard-response"	"219"	"447862"	"0.0-6.0-2.0-1.17"	"9pyfsz"	"600"	"1366"	"chrome"	"111.0.0"	"FALSE"	"Windows 10"	"60.09"	"053"	n/a	n/a	n/a	n/a	n/a	n/a	"Trial"	n/a	n/a	n/a	"1213"	"arrowright"	n/a	"NULL"	"NULL"	"NULL"	"stimuli/Ebbinghaus_-0.35714_-0.15857.png"	n/a	"Ebbinghaus"	"arrowright"	"1192"	"TRUE"	"Ebbinghaus"	"-0.357140000"	"-0.158570000"	"2"	"18"
n/a	"html-keyboard-response"	"220"	"449204"	"0.0-6.0-2.0-0.18"	"9pyfsz"	"600"	"1366"	"chrome"	"111.0.0"	"FALSE"	"Windows 10"	"60.09"	"053"	n/a	n/a	n/a	n/a	n/a	n/a	"fixation"	n/a	n/a	n/a	n/a	"NULL"	n/a	"NULL"	"NULL"	"NULL"	"<p style=\"color: black; font-size: 80px; padding-left: 26%; padding-right: 31%; padding-top: 23%; padding-bottom: 10%\">+</p>"	"1332"	n/a	n/a	n/a	n/a	n/a	n/a	n/a	n/a	n/a
n/a	"image-keyboard-response"	"221"	"450182"	"0.0-6.0-2.0-1.18"	"9pyfsz"	"600"	"1366"	"chrome"	"111.0.0"	"FALSE"	"Windows 10"	"60.09"	"053"	n/a	n/a	n/a	n/a	n/a	n/a	"Trial"	n/a	n/a	n/a	"978"	"arrowright"	n/a	"NULL"	"NULL"	"NULL"	"stimuli/Ebbinghaus_0.10000_-0.2800.png"	n/a	"Ebbinghaus"	"arrowright"	"1342"	"TRUE"	"Ebbinghaus"	"0.1000000000"	"-0.280000000"	"2"	"19"
n/a	"html-keyboard-response"	"222"	"451297"	"0.0-6.0-2.0-0.19"	"9pyfsz"	"600"	"1366"	"chrome"	"111.0.0"	"FALSE"	"Windows 10"	"60.09"	"053"	n/a	n/a	n/a	n/a	n/a	n/a	"fixation"	n/a	n/a	n/a	n/a	"NULL"	n/a	"NULL"	"NULL"	"NULL"	"<p style=\"color: black; font-size: 80px; padding-left: 26%; padding-right: 37%; padding-top: 28%; padding-bottom: 5%\">+</p>"	"1108"	n/a	n/a	n/a	n/a	n/a	n/a	n/a	n/a	n/a
n/a	"image-keyboard-response"	"223"	"451979"	"0.0-6.0-2.0-1.19"	"9pyfsz"	"600"	"1366"	"chrome"	"111.0.0"	"FALSE"	"Windows 10"	"60.09"	"053"	n/a	n/a	n/a	n/a	n/a	n/a	"Trial"	n/a	n/a	n/a	"682"	"arrowleft"	n/a	"NULL"	"NULL"	"NULL"	"stimuli/Ebbinghaus_0.61429_0.21500.png"	n/a	"Ebbinghaus"	"arrowleft"	"1115"	"TRUE"	"Ebbinghaus"	"0.6142900000"	"0.2150000000"	"2"	"20"
n/a	"html-keyboard-response"	"224"	"453114"	"0.0-6.0-2.0-0.20"	"9pyfsz"	"600"	"1366"	"chrome"	"111.0.0"	"FALSE"	"Windows 10"	"60.09"	"053"	n/a	n/a	n/a	n/a	n/a	n/a	"fixation"	n/a	n/a	n/a	n/a	"NULL"	n/a	"NULL"	"NULL"	"NULL"	"<p style=\"color: black; font-size: 80px; padding-left: 7%; padding-right: 44%; padding-top: 19%; padding-bottom: 10%\">+</p>"	"1121"	n/a	n/a	n/a	n/a	n/a	n/a	n/a	n/a	n/a
n/a	"image-keyboard-response"	"225"	"454152"	"0.0-6.0-2.0-1.20"	"9pyfsz"	"600"	"1366"	"chrome"	"111.0.0"	"FALSE"	"Windows 10"	"60.09"	"053"	n/a	n/a	n/a	n/a	n/a	n/a	"Trial"	n/a	n/a	n/a	"1037"	"arrowleft"	n/a	"NULL"	"NULL"	"NULL"	"stimuli/Ebbinghaus_0.35714_0.28000.png"	n/a	"Ebbinghaus"	"arrowleft"	"1135"	"TRUE"	"Ebbinghaus"	"0.3571400000"	"0.2800000000"	"2"	"21"
n/a	"html-keyboard-response"	"226"	"455447"	"0.0-6.0-2.0-0.21"	"9pyfsz"	"600"	"1366"	"chrome"	"111.0.0"	"FALSE"	"Windows 10"	"60.09"	"053"	n/a	n/a	n/a	n/a	n/a	n/a	"fixation"	n/a	n/a	n/a	n/a	"NULL"	n/a	"NULL"	"NULL"	"NULL"	"<p style=\"color: black; font-size: 80px; padding-left: 0%; padding-right: 30%; padding-top: 12%; padding-bottom: 38%\">+</p>"	"1292"	n/a	n/a	n/a	n/a	n/a	n/a	n/a	n/a	n/a
n/a	"image-keyboard-response"	"227"	"456576"	"0.0-6.0-2.0-1.21"	"9pyfsz"	"600"	"1366"	"chrome"	"111.0.0"	"FALSE"	"Windows 10"	"60.09"	"053"	n/a	n/a	n/a	n/a	n/a	n/a	"Trial"	n/a	n/a	n/a	"1129"	"arrowright"	n/a	"NULL"	"NULL"	"NULL"	"stimuli/Ebbinghaus_0.87143_-0.2800.png"	n/a	"Ebbinghaus"	"arrowright"	"1295"	"TRUE"	"Ebbinghaus"	"0.8714300000"	"-0.280000000"	"2"	"22"
n/a	"html-keyboard-response"	"228"	"457908"	"0.0-6.0-2.0-0.22"	"9pyfsz"	"600"	"1366"	"chrome"	"111.0.0"	"FALSE"	"Windows 10"	"60.09"	"053"	n/a	n/a	n/a	n/a	n/a	n/a	"fixation"	n/a	n/a	n/a	n/a	"NULL"	n/a	"NULL"	"NULL"	"NULL"	"<p style=\"color: black; font-size: 80px; padding-left: 22%; padding-right: 1%; padding-top: 45%; padding-bottom: 21%\">+</p>"	"1326"	n/a	n/a	n/a	n/a	n/a	n/a	n/a	n/a	n/a
n/a	"image-keyboard-response"	"229"	"459151"	"0.0-6.0-2.0-1.22"	"9pyfsz"	"600"	"1366"	"chrome"	"111.0.0"	"FALSE"	"Windows 10"	"60.09"	"053"	n/a	n/a	n/a	n/a	n/a	n/a	"Trial"	n/a	n/a	n/a	"1242"	"arrowright"	n/a	"NULL"	"NULL"	"NULL"	"stimuli/Ebbinghaus_0.35714_-0.15857.png"	n/a	"Ebbinghaus"	"arrowright"	"1332"	"TRUE"	"Ebbinghaus"	"0.3571400000"	"-0.158570000"	"2"	"23"
n/a	"html-keyboard-response"	"230"	"460342"	"0.0-6.0-2.0-0.23"	"9pyfsz"	"600"	"1366"	"chrome"	"111.0.0"	"FALSE"	"Windows 10"	"60.09"	"053"	n/a	n/a	n/a	n/a	n/a	n/a	"fixation"	n/a	n/a	n/a	n/a	"NULL"	n/a	"NULL"	"NULL"	"NULL"	"<p style=\"color: black; font-size: 80px; padding-left: 28%; padding-right: 38%; padding-top: 16%; padding-bottom: 10%\">+</p>"	"1179"	n/a	n/a	n/a	n/a	n/a	n/a	n/a	n/a	n/a
n/a	"image-keyboard-response"	"231"	"461718"	"0.0-6.0-2.0-1.23"	"9pyfsz"	"600"	"1366"	"chrome"	"111.0.0"	"FALSE"	"Windows 10"	"60.09"	"053"	n/a	n/a	n/a	n/a	n/a	n/a	"Trial"	n/a	n/a	n/a	"1376"	"arrowright"	n/a	"NULL"	"NULL"	"NULL"	"stimuli/Ebbinghaus_0.87143_-0.15857.png"	n/a	"Ebbinghaus"	"arrowright"	"1191"	"TRUE"	"Ebbinghaus"	"0.8714300000"	"-0.158570000"	"2"	"24"
n/a	"html-keyboard-response"	"232"	"463112"	"0.0-6.0-2.0-0.24"	"9pyfsz"	"600"	"1366"	"chrome"	"111.0.0"	"FALSE"	"Windows 10"	"60.09"	"053"	n/a	n/a	n/a	n/a	n/a	n/a	"fixation"	n/a	n/a	n/a	n/a	"NULL"	n/a	"NULL"	"NULL"	"NULL"	"<p style=\"color: black; font-size: 80px; padding-left: 2%; padding-right: 49%; padding-top: 50%; padding-bottom: 30%\">+</p>"	"1392"	n/a	n/a	n/a	n/a	n/a	n/a	n/a	n/a	n/a
n/a	"image-keyboard-response"	"233"	"463886"	"0.0-6.0-2.0-1.24"	"9pyfsz"	"600"	"1366"	"chrome"	"111.0.0"	"FALSE"	"Windows 10"	"60.09"	"053"	n/a	n/a	n/a	n/a	n/a	n/a	"Trial"	n/a	n/a	n/a	"773"	"arrowleft"	n/a	"NULL"	"NULL"	"NULL"	"stimuli/Ebbinghaus_-0.61429_0.15857.png"	n/a	"Ebbinghaus"	"arrowleft"	"1394"	"TRUE"	"Ebbinghaus"	"-0.614290000"	"0.1585700000"	"2"	"25"
n/a	"html-keyboard-response"	"234"	"464964"	"0.0-6.0-2.0-0.25"	"9pyfsz"	"600"	"1366"	"chrome"	"111.0.0"	"FALSE"	"Windows 10"	"60.09"	"053"	n/a	n/a	n/a	n/a	n/a	n/a	"fixation"	n/a	n/a	n/a	n/a	"NULL"	n/a	"NULL"	"NULL"	"NULL"	"<p style=\"color: black; font-size: 80px; padding-left: 11%; padding-right: 32%; padding-top: 7%; padding-bottom: 39%\">+</p>"	"1076"	n/a	n/a	n/a	n/a	n/a	n/a	n/a	n/a	n/a
n/a	"image-keyboard-response"	"235"	"465592"	"0.0-6.0-2.0-1.25"	"9pyfsz"	"600"	"1366"	"chrome"	"111.0.0"	"FALSE"	"Windows 10"	"60.09"	"053"	n/a	n/a	n/a	n/a	n/a	n/a	"Trial"	n/a	n/a	n/a	"627"	"arrowright"	n/a	"NULL"	"NULL"	"NULL"	"stimuli/Ebbinghaus_-0.61429_-0.2800.png"	n/a	"Ebbinghaus"	"arrowright"	"1078"	"TRUE"	"Ebbinghaus"	"-0.614290000"	"-0.280000000"	"2"	"26"
n/a	"html-keyboard-response"	"236"	"467045"	"0.0-6.0-2.0-0.26"	"9pyfsz"	"600"	"1366"	"chrome"	"111.0.0"	"FALSE"	"Windows 10"	"60.09"	"053"	n/a	n/a	n/a	n/a	n/a	n/a	"fixation"	n/a	n/a	n/a	n/a	"NULL"	n/a	"NULL"	"NULL"	"NULL"	"<p style=\"color: black; font-size: 80px; padding-left: 11%; padding-right: 1%; padding-top: 4%; padding-bottom: 16%\">+</p>"	"1451"	n/a	n/a	n/a	n/a	n/a	n/a	n/a	n/a	n/a
n/a	"image-keyboard-response"	"237"	"468442"	"0.0-6.0-2.0-1.26"	"9pyfsz"	"600"	"1366"	"chrome"	"111.0.0"	"FALSE"	"Windows 10"	"60.09"	"053"	n/a	n/a	n/a	n/a	n/a	n/a	"Trial"	n/a	n/a	n/a	"1396"	"arrowleft"	n/a	"NULL"	"NULL"	"NULL"	"stimuli/Ebbinghaus_-0.1000_0.11071.png"	n/a	"Ebbinghaus"	"arrowleft"	"1453"	"TRUE"	"Ebbinghaus"	"-0.100000000"	"0.1107100000"	"2"	"27"
n/a	"html-keyboard-response"	"238"	"469759"	"0.0-6.0-2.0-0.27"	"9pyfsz"	"600"	"1366"	"chrome"	"111.0.0"	"FALSE"	"Windows 10"	"60.09"	"053"	n/a	n/a	n/a	n/a	n/a	n/a	"fixation"	n/a	n/a	n/a	n/a	"NULL"	n/a	"NULL"	"NULL"	"NULL"	"<p style=\"color: black; font-size: 80px; padding-left: 43%; padding-right: 28%; padding-top: 1%; padding-bottom: 4%\">+</p>"	"1307"	n/a	n/a	n/a	n/a	n/a	n/a	n/a	n/a	n/a
n/a	"image-keyboard-response"	"239"	"470657"	"0.0-6.0-2.0-1.27"	"9pyfsz"	"600"	"1366"	"chrome"	"111.0.0"	"FALSE"	"Windows 10"	"60.09"	"053"	n/a	n/a	n/a	n/a	n/a	n/a	"Trial"	n/a	n/a	n/a	"898"	"arrowright"	n/a	"NULL"	"NULL"	"NULL"	"stimuli/Ebbinghaus_-0.61429_-0.2150.png"	n/a	"Ebbinghaus"	"arrowright"	"1317"	"TRUE"	"Ebbinghaus"	"-0.614290000"	"-0.215000000"	"2"	"28"
n/a	"html-keyboard-response"	"240"	"471737"	"0.0-6.0-2.0-0.28"	"9pyfsz"	"600"	"1366"	"chrome"	"111.0.0"	"FALSE"	"Windows 10"	"60.09"	"053"	n/a	n/a	n/a	n/a	n/a	n/a	"fixation"	n/a	n/a	n/a	n/a	"NULL"	n/a	"NULL"	"NULL"	"NULL"	"<p style=\"color: black; font-size: 80px; padding-left: 8%; padding-right: 45%; padding-top: 9%; padding-bottom: 45%\">+</p>"	"1070"	n/a	n/a	n/a	n/a	n/a	n/a	n/a	n/a	n/a
n/a	"image-keyboard-response"	"241"	"472582"	"0.0-6.0-2.0-1.28"	"9pyfsz"	"600"	"1366"	"chrome"	"111.0.0"	"FALSE"	"Windows 10"	"60.09"	"053"	n/a	n/a	n/a	n/a	n/a	n/a	"Trial"	n/a	n/a	n/a	"845"	"arrowleft"	n/a	"NULL"	"NULL"	"NULL"	"stimuli/Ebbinghaus_0.10000_0.11071.png"	n/a	"Ebbinghaus"	"arrowleft"	"1080"	"TRUE"	"Ebbinghaus"	"0.1000000000"	"0.1107100000"	"2"	"29"
n/a	"html-keyboard-response"	"242"	"473801"	"0.0-6.0-2.0-0.29"	"9pyfsz"	"600"	"1366"	"chrome"	"111.0.0"	"FALSE"	"Windows 10"	"60.09"	"053"	n/a	n/a	n/a	n/a	n/a	n/a	"fixation"	n/a	n/a	n/a	n/a	"NULL"	n/a	"NULL"	"NULL"	"NULL"	"<p style=\"color: black; font-size: 80px; padding-left: 46%; padding-right: 7%; padding-top: 5%; padding-bottom: 24%\">+</p>"	"1205"	n/a	n/a	n/a	n/a	n/a	n/a	n/a	n/a	n/a
n/a	"image-keyboard-response"	"243"	"474554"	"0.0-6.0-2.0-1.29"	"9pyfsz"	"600"	"1366"	"chrome"	"111.0.0"	"FALSE"	"Windows 10"	"60.09"	"053"	n/a	n/a	n/a	n/a	n/a	n/a	"Trial"	n/a	n/a	n/a	"752"	"arrowright"	n/a	"NULL"	"NULL"	"NULL"	"stimuli/Ebbinghaus_-0.87143_-0.2150.png"	n/a	"Ebbinghaus"	"arrowright"	"1219"	"TRUE"	"Ebbinghaus"	"-0.871430000"	"-0.215000000"	"2"	"30"
n/a	"html-keyboard-response"	"244"	"475683"	"0.0-6.0-2.0-0.30"	"9pyfsz"	"600"	"1366"	"chrome"	"111.0.0"	"FALSE"	"Windows 10"	"60.09"	"053"	n/a	n/a	n/a	n/a	n/a	n/a	"fixation"	n/a	n/a	n/a	n/a	"NULL"	n/a	"NULL"	"NULL"	"NULL"	"<p style=\"color: black; font-size: 80px; padding-left: 26%; padding-right: 29%; padding-top: 11%; padding-bottom: 41%\">+</p>"	"1121"	n/a	n/a	n/a	n/a	n/a	n/a	n/a	n/a	n/a
n/a	"image-keyboard-response"	"245"	"476581"	"0.0-6.0-2.0-1.30"	"9pyfsz"	"600"	"1366"	"chrome"	"111.0.0"	"FALSE"	"Windows 10"	"60.09"	"053"	n/a	n/a	n/a	n/a	n/a	n/a	"Trial"	n/a	n/a	n/a	"898"	"arrowright"	n/a	"NULL"	"NULL"	"NULL"	"stimuli/Ebbinghaus_-0.1000_-0.15857.png"	n/a	"Ebbinghaus"	"arrowright"	"1129"	"TRUE"	"Ebbinghaus"	"-0.100000000"	"-0.158570000"	"2"	"31"
n/a	"html-keyboard-response"	"246"	"477735"	"0.0-6.0-2.0-0.31"	"9pyfsz"	"600"	"1366"	"chrome"	"111.0.0"	"FALSE"	"Windows 10"	"60.09"	"053"	n/a	n/a	n/a	n/a	n/a	n/a	"fixation"	n/a	n/a	n/a	n/a	"NULL"	n/a	"NULL"	"NULL"	"NULL"	"<p style=\"color: black; font-size: 80px; padding-left: 37%; padding-right: 23%; padding-top: 37%; padding-bottom: 32%\">+</p>"	"1137"	n/a	n/a	n/a	n/a	n/a	n/a	n/a	n/a	n/a
n/a	"image-keyboard-response"	"247"	"478543"	"0.0-6.0-2.0-1.31"	"9pyfsz"	"600"	"1366"	"chrome"	"111.0.0"	"FALSE"	"Windows 10"	"60.09"	"053"	n/a	n/a	n/a	n/a	n/a	n/a	"Trial"	n/a	n/a	n/a	"808"	"arrowleft"	n/a	"NULL"	"NULL"	"NULL"	"stimuli/Ebbinghaus_0.35714_0.15857.png"	n/a	"Ebbinghaus"	"arrowleft"	"1154"	"TRUE"	"Ebbinghaus"	"0.3571400000"	"0.1585700000"	"2"	"32"
n/a	"html-keyboard-response"	"248"	"479786"	"0.0-6.0-2.0-0.32"	"9pyfsz"	"600"	"1366"	"chrome"	"111.0.0"	"FALSE"	"Windows 10"	"60.09"	"053"	n/a	n/a	n/a	n/a	n/a	n/a	"fixation"	n/a	n/a	n/a	n/a	"NULL"	n/a	"NULL"	"NULL"	"NULL"	"<p style=\"color: black; font-size: 80px; padding-left: 45%; padding-right: 43%; padding-top: 33%; padding-bottom: 13%\">+</p>"	"1227"	n/a	n/a	n/a	n/a	n/a	n/a	n/a	n/a	n/a
