"success"	"trial_type"	"trial_index"	"time_elapsed"	"internal_node_id"	"participant_id"	"screen_height"	"screen_width"	"browser"	"browser_version"	"mobile"	"os"	"vsync_rate"	"subject_id"	"width"	"height"	"webaudio"	"fullscreen"	"webcam"	"microphone"	"screen"	"version"	"date"	"time"	"rt"	"response"	"timeout"	"failed_images"	"failed_audio"	"failed_video"	"stimulus"	"trial_duration"	"block"	"correct_response"	"prestimulus_duration"	"correct"	"type"	"illusion_strength"	"illusion_difference"	"block_number"	"trial_number"
"TRUE"	"fullscreen"	"0"	"6324"	"0.0-0.0"	"kyydnu"	"657"	"1366"	"chrome"	"109.0.0"	"FALSE"	"Windows 10"	"60.16"	"003"	n/a	n/a	n/a	n/a	n/a	n/a	n/a	n/a	n/a	n/a	n/a	"NULL"	n/a	"NULL"	"NULL"	"NULL"	n/a	n/a	n/a	n/a	n/a	n/a	n/a	n/a	n/a	n/a	n/a
n/a	"browser-check"	"1"	"7337"	"0.0-1.0"	"kyydnu"	"657"	"1366"	"chrome"	"109.0.0"	"FALSE"	"Windows 10"	"60.16"	"003"	"1366"	"657"	"TRUE"	"TRUE"	"TRUE"	"TRUE"	"browser_info"	"1.0"	"19/01/2023"	"14:37:45"	n/a	"NULL"	n/a	"NULL"	"NULL"	"NULL"	n/a	n/a	n/a	n/a	n/a	n/a	n/a	n/a	n/a	n/a	n/a
n/a	"survey-text"	"2"	"12219"	"0.0-2.0"	"kyydnu"	"657"	"1366"	"chrome"	"109.0.0"	"FALSE"	"Windows 10"	"60.16"	"003"	n/a	n/a	n/a	n/a	n/a	n/a	"subject_id"	n/a	n/a	n/a	"4878"	"list(subject_id = \"003\")"	n/a	"NULL"	"NULL"	"NULL"	n/a	n/a	n/a	n/a	n/a	n/a	n/a	n/a	n/a	n/a	n/a
"TRUE"	"preload"	"3"	"12230"	"0.0-3.0"	"kyydnu"	"657"	"1366"	"chrome"	"109.0.0"	"FALSE"	"Windows 10"	"60.16"	"003"	n/a	n/a	n/a	n/a	n/a	n/a	n/a	n/a	n/a	n/a	n/a	"NULL"	"FALSE"	"list()"	"list()"	"list()"	n/a	n/a	n/a	n/a	n/a	n/a	n/a	n/a	n/a	n/a	n/a
n/a	"html-button-response"	"4"	"13435"	"0.0-4.0-0.0"	"kyydnu"	"657"	"1366"	"chrome"	"109.0.0"	"FALSE"	"Windows 10"	"60.16"	"003"	n/a	n/a	n/a	n/a	n/a	n/a	"illusion_instructions"	n/a	n/a	n/a	"1204"	"0"	n/a	"NULL"	"NULL"	"NULL"	"<p><b>Illusion Game</b></p><p>In this game of speed and reflex, you will need to make <b>visual judgments</b> (for instance, which circle is the biggest, or which line is the longest), as fast and as correctly as possible, while <b>resisting different visual illusions</b>.</p><p>We are going to start with some examples of all the illusions you will encounter in the game.</p>"	n/a	n/a	n/a	n/a	n/a	n/a	n/a	n/a	n/a	n/a
"TRUE"	"preload"	"5"	"13451"	"0.0-4.0-1.0-0.0"	"kyydnu"	"657"	"1366"	"chrome"	"109.0.0"	"FALSE"	"Windows 10"	"60.16"	"003"	n/a	n/a	n/a	n/a	n/a	n/a	n/a	n/a	n/a	n/a	n/a	"NULL"	"FALSE"	"list()"	"list()"	"list()"	n/a	n/a	n/a	n/a	n/a	n/a	n/a	n/a	n/a	n/a	n/a
n/a	"html-keyboard-response"	"6"	"14557"	"0.0-4.0-1.0-1.0"	"kyydnu"	"657"	"1366"	"chrome"	"109.0.0"	"FALSE"	"Windows 10"	"60.16"	"003"	n/a	n/a	n/a	n/a	n/a	n/a	n/a	n/a	n/a	n/a	"1105"	"enter"	n/a	"NULL"	"NULL"	"NULL"	"<p><b>Practice</b></p><p>In this part, two red circles will appear side by side on the screen.</p><p>Your task is to select which <b>red circle is bigger</b> in size as fast as you can, without making errors.</p><p>Don't get distracted by the surrounding black circles around the red circles!</p><p>Press <b>the LEFT or the RIGHT arrow</b> to indicate which is the bigger <b>red circle.</b></p><div style='float: center'><img src='materials/instructions/Ebbinghaus_Demo.png' height='300'></img><p><img src='utils/answer/answer_leftright_keyboard.PNG' height='150'></img></p><p class='small'>In this example, the correct answer is the <b>LEFT arrow</b>.</p></div><p>Are you ready? <b>Press ENTER to start</b></p>"	n/a	n/a	n/a	n/a	n/a	n/a	n/a	n/a	n/a	n/a
n/a	"html-keyboard-response"	"7"	"16399"	"0.0-4.0-1.0-2.0-0.0"	"kyydnu"	"657"	"1366"	"chrome"	"109.0.0"	"FALSE"	"Windows 10"	"60.16"	"003"	n/a	n/a	n/a	n/a	n/a	n/a	"fixation"	n/a	n/a	n/a	n/a	"NULL"	n/a	"NULL"	"NULL"	"NULL"	"<p style=\"color: black; font-size: 80px; padding-left: 41%; padding-right: 0%; padding-top: 42%; padding-bottom: 7%\">+</p>"	"1314"	n/a	n/a	n/a	n/a	n/a	n/a	n/a	n/a	n/a
n/a	"image-keyboard-response"	"8"	"16507"	"0.0-4.0-1.0-2.0-1.0"	"kyydnu"	"657"	"1366"	"chrome"	"109.0.0"	"FALSE"	"Windows 10"	"60.16"	"003"	n/a	n/a	n/a	n/a	n/a	n/a	"Trial"	n/a	n/a	n/a	"105"	"arrowright"	n/a	"NULL"	"NULL"	"NULL"	"stimuli/Ebbinghaus_-100000_1.40000.png"	n/a	"Ebbinghaus"	"arrowleft"	"1842"	"FALSE"	"Ebbinghaus"	"-10000000000"	"1.4000000000"	"1"	"1"
n/a	"html-keyboard-response"	"9"	"17858"	"0.0-4.0-1.0-2.0-0.1"	"kyydnu"	"657"	"1366"	"chrome"	"109.0.0"	"FALSE"	"Windows 10"	"60.16"	"003"	n/a	n/a	n/a	n/a	n/a	n/a	"fixation"	n/a	n/a	n/a	n/a	"NULL"	n/a	"NULL"	"NULL"	"NULL"	"<p style=\"color: black; font-size: 80px; padding-left: 4%; padding-right: 30%; padding-top: 40%; padding-bottom: 4%\">+</p>"	"1346"	n/a	n/a	n/a	n/a	n/a	n/a	n/a	n/a	n/a
n/a	"image-keyboard-response"	"10"	"17975"	"0.0-4.0-1.0-2.0-1.1"	"kyydnu"	"657"	"1366"	"chrome"	"109.0.0"	"FALSE"	"Windows 10"	"60.16"	"003"	n/a	n/a	n/a	n/a	n/a	n/a	"Trial"	n/a	n/a	n/a	"115"	"arrowright"	n/a	"NULL"	"NULL"	"NULL"	"stimuli/Ebbinghaus_0000000_1.40000.png"	n/a	"Ebbinghaus"	"arrowleft"	"1351"	"FALSE"	"Ebbinghaus"	"000000000000"	"1.4000000000"	"1"	"2"
n/a	"html-keyboard-response"	"11"	"19124"	"0.0-4.0-1.0-2.0-0.2"	"kyydnu"	"657"	"1366"	"chrome"	"109.0.0"	"FALSE"	"Windows 10"	"60.16"	"003"	n/a	n/a	n/a	n/a	n/a	n/a	"fixation"	n/a	n/a	n/a	n/a	"NULL"	n/a	"NULL"	"NULL"	"NULL"	"<p style=\"color: black; font-size: 80px; padding-left: 11%; padding-right: 25%; padding-top: 36%; padding-bottom: 17%\">+</p>"	"1145"	n/a	n/a	n/a	n/a	n/a	n/a	n/a	n/a	n/a
n/a	"image-keyboard-response"	"12"	"19192"	"0.0-4.0-1.0-2.0-1.2"	"kyydnu"	"657"	"1366"	"chrome"	"109.0.0"	"FALSE"	"Windows 10"	"60.16"	"003"	n/a	n/a	n/a	n/a	n/a	n/a	"Trial"	n/a	n/a	n/a	"68"	"arrowright"	n/a	"NULL"	"NULL"	"NULL"	"stimuli/Ebbinghaus_-100000_-1.4000.png"	n/a	"Ebbinghaus"	"arrowright"	"1149"	"TRUE"	"Ebbinghaus"	"-10000000000"	"-1.400000000"	"1"	"3"
n/a	"html-keyboard-response"	"13"	"20644"	"0.0-4.0-1.0-2.0-0.3"	"kyydnu"	"657"	"1366"	"chrome"	"109.0.0"	"FALSE"	"Windows 10"	"60.16"	"003"	n/a	n/a	n/a	n/a	n/a	n/a	"fixation"	n/a	n/a	n/a	n/a	"NULL"	n/a	"NULL"	"NULL"	"NULL"	"<p style=\"color: black; font-size: 80px; padding-left: 13%; padding-right: 8%; padding-top: 30%; padding-bottom: 15%\">+</p>"	"1441"	n/a	n/a	n/a	n/a	n/a	n/a	n/a	n/a	n/a
n/a	"image-keyboard-response"	"14"	"20759"	"0.0-4.0-1.0-2.0-1.3"	"kyydnu"	"657"	"1366"	"chrome"	"109.0.0"	"FALSE"	"Windows 10"	"60.16"	"003"	n/a	n/a	n/a	n/a	n/a	n/a	"Trial"	n/a	n/a	n/a	"113"	"arrowright"	n/a	"NULL"	"NULL"	"NULL"	"stimuli/Ebbinghaus_0000000_-1.4000.png"	n/a	"Ebbinghaus"	"arrowright"	"1452"	"TRUE"	"Ebbinghaus"	"000000000000"	"-1.400000000"	"1"	"4"
n/a	"html-keyboard-response"	"15"	"22238"	"0.0-4.0-1.0-2.0-0.4"	"kyydnu"	"657"	"1366"	"chrome"	"109.0.0"	"FALSE"	"Windows 10"	"60.16"	"003"	n/a	n/a	n/a	n/a	n/a	n/a	"fixation"	n/a	n/a	n/a	n/a	"NULL"	n/a	"NULL"	"NULL"	"NULL"	"<p style=\"color: black; font-size: 80px; padding-left: 7%; padding-right: 34%; padding-top: 47%; padding-bottom: 21%\">+</p>"	"1459"	n/a	n/a	n/a	n/a	n/a	n/a	n/a	n/a	n/a
n/a	"image-keyboard-response"	"16"	"22252"	"0.0-4.0-1.0-2.0-1.4"	"kyydnu"	"657"	"1366"	"chrome"	"109.0.0"	"FALSE"	"Windows 10"	"60.16"	"003"	n/a	n/a	n/a	n/a	n/a	n/a	"Trial"	n/a	n/a	n/a	"13"	"arrowright"	n/a	"NULL"	"NULL"	"NULL"	"stimuli/Ebbinghaus_1000000_1.40000.png"	n/a	"Ebbinghaus"	"arrowleft"	"1479"	"FALSE"	"Ebbinghaus"	"100000000000"	"1.4000000000"	"1"	"5"
n/a	"html-keyboard-response"	"17"	"23342"	"0.0-4.0-1.0-2.0-0.5"	"kyydnu"	"657"	"1366"	"chrome"	"109.0.0"	"FALSE"	"Windows 10"	"60.16"	"003"	n/a	n/a	n/a	n/a	n/a	n/a	"fixation"	n/a	n/a	n/a	n/a	"NULL"	n/a	"NULL"	"NULL"	"NULL"	"<p style=\"color: black; font-size: 80px; padding-left: 40%; padding-right: 30%; padding-top: 43%; padding-bottom: 19%\">+</p>"	"1074"	n/a	n/a	n/a	n/a	n/a	n/a	n/a	n/a	n/a
n/a	"image-keyboard-response"	"18"	"23410"	"0.0-4.0-1.0-2.0-1.5"	"kyydnu"	"657"	"1366"	"chrome"	"109.0.0"	"FALSE"	"Windows 10"	"60.16"	"003"	n/a	n/a	n/a	n/a	n/a	n/a	"Trial"	n/a	n/a	n/a	"66"	"arrowright"	n/a	"NULL"	"NULL"	"NULL"	"stimuli/Ebbinghaus_1000000_-1.4000.png"	n/a	"Ebbinghaus"	"arrowright"	"1090"	"TRUE"	"Ebbinghaus"	"100000000000"	"-1.400000000"	"1"	"6"
n/a	"html-button-response"	"19"	"25842"	"0.0-4.0-1.0-3.0"	"kyydnu"	"657"	"1366"	"chrome"	"109.0.0"	"FALSE"	"Windows 10"	"60.16"	"003"	n/a	n/a	n/a	n/a	n/a	n/a	"practice_block_results"	n/a	n/a	n/a	"2430"	"0"	n/a	"NULL"	"NULL"	"NULL"	"<p style='color:rgb(76,175,80);'> Correct Responses: <b>50.00%</b></p><hr><p style='color:rgb(233,30,99);'> Average Response Time: <b>80.00</b> ms.</p>"	n/a	n/a	n/a	n/a	n/a	n/a	n/a	n/a	n/a	n/a
"TRUE"	"preload"	"20"	"26390"	"0.0-4.0-2.0-0.0"	"kyydnu"	"657"	"1366"	"chrome"	"109.0.0"	"FALSE"	"Windows 10"	"60.16"	"003"	n/a	n/a	n/a	n/a	n/a	n/a	n/a	n/a	n/a	n/a	n/a	"NULL"	"FALSE"	"list()"	"list()"	"list()"	n/a	n/a	n/a	n/a	n/a	n/a	n/a	n/a	n/a	n/a	n/a
n/a	"html-keyboard-response"	"21"	"28448"	"0.0-4.0-2.0-1.0"	"kyydnu"	"657"	"1366"	"chrome"	"109.0.0"	"FALSE"	"Windows 10"	"60.16"	"003"	n/a	n/a	n/a	n/a	n/a	n/a	n/a	n/a	n/a	n/a	"2056"	"enter"	n/a	"NULL"	"NULL"	"NULL"	"<p><b>Practice</b></p><p>In this part, two horizontal red lines will appear one above the other.</p><p>Your task is to select which <b>line is longer</b> in length as fast as you can, without making errors.</p><p>Don't get distracted by the surrounding black arrows at the end of the red lines!</p><p>Press <b>the UP or the DOWN arrow</b> to indicate where is the longer <b>red line.</b></p><div style='float: center'><img src='materials/instructions/MullerLyer_Demo.png' height='300'></img><p><img src='utils/answer/answer_updown_keyboard.PNG' height='150'></img></p><p class='small'>In this example, the correct answer is the <b>UP arrow</b>.</p></div><p>Are you ready? <b>Press ENTER to start</b></p>"	n/a	n/a	n/a	n/a	n/a	n/a	n/a	n/a	n/a	n/a
n/a	"html-keyboard-response"	"22"	"30352"	"0.0-4.0-2.0-2.0-0.0"	"kyydnu"	"657"	"1366"	"chrome"	"109.0.0"	"FALSE"	"Windows 10"	"60.16"	"003"	n/a	n/a	n/a	n/a	n/a	n/a	"fixation"	n/a	n/a	n/a	n/a	"NULL"	n/a	"NULL"	"NULL"	"NULL"	"<p style=\"color: black; font-size: 80px; padding-left: 0%; padding-right: 19%; padding-top: 20%; padding-bottom: 25%\">+</p>"	"1388"	n/a	n/a	n/a	n/a	n/a	n/a	n/a	n/a	n/a
n/a	"image-keyboard-response"	"23"	"30925"	"0.0-4.0-2.0-2.0-1.0"	"kyydnu"	"657"	"1366"	"chrome"	"109.0.0"	"FALSE"	"Windows 10"	"60.16"	"003"	n/a	n/a	n/a	n/a	n/a	n/a	"Trial"	n/a	n/a	n/a	"572"	"arrowdown"	n/a	"NULL"	"NULL"	"NULL"	"stimuli/MullerLyer_2300000_-0.7000.png"	n/a	"MullerLyer"	"arrowdown"	"1904"	"TRUE"	"MullerLyer"	"230000000000"	"-0.700000000"	"1"	"7"
n/a	"html-keyboard-response"	"24"	"31955"	"0.0-4.0-2.0-2.0-0.1"	"kyydnu"	"657"	"1366"	"chrome"	"109.0.0"	"FALSE"	"Windows 10"	"60.16"	"003"	n/a	n/a	n/a	n/a	n/a	n/a	"fixation"	n/a	n/a	n/a	n/a	"NULL"	n/a	"NULL"	"NULL"	"NULL"	"<p style=\"color: black; font-size: 80px; padding-left: 3%; padding-right: 28%; padding-top: 8%; padding-bottom: 44%\">+</p>"	"1015"	n/a	n/a	n/a	n/a	n/a	n/a	n/a	n/a	n/a
n/a	"image-keyboard-response"	"25"	"31964"	"0.0-4.0-2.0-2.0-1.1"	"kyydnu"	"657"	"1366"	"chrome"	"109.0.0"	"FALSE"	"Windows 10"	"60.16"	"003"	n/a	n/a	n/a	n/a	n/a	n/a	"Trial"	n/a	n/a	n/a	"8"	"arrowdown"	n/a	"NULL"	"NULL"	"NULL"	"stimuli/MullerLyer_-230000_0.70000.png"	n/a	"MullerLyer"	"arrowup"	"1030"	"FALSE"	"MullerLyer"	"-23000000000"	"0.7000000000"	"1"	"8"
n/a	"html-keyboard-response"	"26"	"33480"	"0.0-4.0-2.0-2.0-0.2"	"kyydnu"	"657"	"1366"	"chrome"	"109.0.0"	"FALSE"	"Windows 10"	"60.16"	"003"	n/a	n/a	n/a	n/a	n/a	n/a	"fixation"	n/a	n/a	n/a	n/a	"NULL"	n/a	"NULL"	"NULL"	"NULL"	"<p style=\"color: black; font-size: 80px; padding-left: 29%; padding-right: 16%; padding-top: 30%; padding-bottom: 40%\">+</p>"	"1497"	n/a	n/a	n/a	n/a	n/a	n/a	n/a	n/a	n/a
n/a	"image-keyboard-response"	"27"	"33608"	"0.0-4.0-2.0-2.0-1.2"	"kyydnu"	"657"	"1366"	"chrome"	"109.0.0"	"FALSE"	"Windows 10"	"60.16"	"003"	n/a	n/a	n/a	n/a	n/a	n/a	"Trial"	n/a	n/a	n/a	"126"	"arrowdown"	n/a	"NULL"	"NULL"	"NULL"	"stimuli/MullerLyer_0000000_0.70000.png"	n/a	"MullerLyer"	"arrowup"	"1516"	"FALSE"	"MullerLyer"	"000000000000"	"0.7000000000"	"1"	"9"
n/a	"html-keyboard-response"	"28"	"34879"	"0.0-4.0-2.0-2.0-0.3"	"kyydnu"	"657"	"1366"	"chrome"	"109.0.0"	"FALSE"	"Windows 10"	"60.16"	"003"	n/a	n/a	n/a	n/a	n/a	n/a	"fixation"	n/a	n/a	n/a	n/a	"NULL"	n/a	"NULL"	"NULL"	"NULL"	"<p style=\"color: black; font-size: 80px; padding-left: 16%; padding-right: 46%; padding-top: 27%; padding-bottom: 14%\">+</p>"	"1256"	n/a	n/a	n/a	n/a	n/a	n/a	n/a	n/a	n/a
n/a	"image-keyboard-response"	"29"	"34975"	"0.0-4.0-2.0-2.0-1.3"	"kyydnu"	"657"	"1366"	"chrome"	"109.0.0"	"FALSE"	"Windows 10"	"60.16"	"003"	n/a	n/a	n/a	n/a	n/a	n/a	"Trial"	n/a	n/a	n/a	"95"	"arrowdown"	n/a	"NULL"	"NULL"	"NULL"	"stimuli/MullerLyer_2300000_0.70000.png"	n/a	"MullerLyer"	"arrowup"	"1271"	"FALSE"	"MullerLyer"	"230000000000"	"0.7000000000"	"1"	"10"
n/a	"html-keyboard-response"	"30"	"36412"	"0.0-4.0-2.0-2.0-0.4"	"kyydnu"	"657"	"1366"	"chrome"	"109.0.0"	"FALSE"	"Windows 10"	"60.16"	"003"	n/a	n/a	n/a	n/a	n/a	n/a	"fixation"	n/a	n/a	n/a	n/a	"NULL"	n/a	"NULL"	"NULL"	"NULL"	"<p style=\"color: black; font-size: 80px; padding-left: 21%; padding-right: 46%; padding-top: 34%; padding-bottom: 14%\">+</p>"	"1427"	n/a	n/a	n/a	n/a	n/a	n/a	n/a	n/a	n/a
n/a	"image-keyboard-response"	"31"	"36580"	"0.0-4.0-2.0-2.0-1.4"	"kyydnu"	"657"	"1366"	"chrome"	"109.0.0"	"FALSE"	"Windows 10"	"60.16"	"003"	n/a	n/a	n/a	n/a	n/a	n/a	"Trial"	n/a	n/a	n/a	"166"	"arrowdown"	n/a	"NULL"	"NULL"	"NULL"	"stimuli/MullerLyer_0000000_-0.7000.png"	n/a	"MullerLyer"	"arrowdown"	"1437"	"TRUE"	"MullerLyer"	"000000000000"	"-0.700000000"	"1"	"11"
n/a	"html-keyboard-response"	"32"	"37777"	"0.0-4.0-2.0-2.0-0.5"	"kyydnu"	"657"	"1366"	"chrome"	"109.0.0"	"FALSE"	"Windows 10"	"60.16"	"003"	n/a	n/a	n/a	n/a	n/a	n/a	"fixation"	n/a	n/a	n/a	n/a	"NULL"	n/a	"NULL"	"NULL"	"NULL"	"<p style=\"color: black; font-size: 80px; padding-left: 29%; padding-right: 26%; padding-top: 32%; padding-bottom: 25%\">+</p>"	"1183"	n/a	n/a	n/a	n/a	n/a	n/a	n/a	n/a	n/a
n/a	"image-keyboard-response"	"33"	"37810"	"0.0-4.0-2.0-2.0-1.5"	"kyydnu"	"657"	"1366"	"chrome"	"109.0.0"	"FALSE"	"Windows 10"	"60.16"	"003"	n/a	n/a	n/a	n/a	n/a	n/a	"Trial"	n/a	n/a	n/a	"32"	"arrowdown"	n/a	"NULL"	"NULL"	"NULL"	"stimuli/MullerLyer_-230000_-0.7000.png"	n/a	"MullerLyer"	"arrowdown"	"1197"	"TRUE"	"MullerLyer"	"-23000000000"	"-0.700000000"	"1"	"12"
n/a	"html-button-response"	"34"	"39946"	"0.0-4.0-2.0-3.0"	"kyydnu"	"657"	"1366"	"chrome"	"109.0.0"	"FALSE"	"Windows 10"	"60.16"	"003"	n/a	n/a	n/a	n/a	n/a	n/a	"practice_block_results"	n/a	n/a	n/a	"2134"	"0"	n/a	"NULL"	"NULL"	"NULL"	"<p style='color:rgb(76,175,80);'> Correct Responses: <b>50.00%</b></p><hr><p style='color:rgb(233,30,99);'> Average Response Time: <b>166.50</b> ms.</p>"	n/a	n/a	n/a	n/a	n/a	n/a	n/a	n/a	n/a	n/a
"TRUE"	"preload"	"35"	"40471"	"0.0-4.0-3.0-0.0"	"kyydnu"	"657"	"1366"	"chrome"	"109.0.0"	"FALSE"	"Windows 10"	"60.16"	"003"	n/a	n/a	n/a	n/a	n/a	n/a	n/a	n/a	n/a	n/a	n/a	"NULL"	"FALSE"	"list()"	"list()"	"list()"	n/a	n/a	n/a	n/a	n/a	n/a	n/a	n/a	n/a	n/a	n/a
n/a	"html-keyboard-response"	"36"	"41392"	"0.0-4.0-3.0-1.0"	"kyydnu"	"657"	"1366"	"chrome"	"109.0.0"	"FALSE"	"Windows 10"	"60.16"	"003"	n/a	n/a	n/a	n/a	n/a	n/a	n/a	n/a	n/a	n/a	"921"	"enter"	n/a	"NULL"	"NULL"	"NULL"	"<p><b>Practice</b></p><p>In this part, two red lines will appear side by side.</p><p>Your task is to tell <b>which line is longer</b> in length, regardless of their orientation, as fast as you can, and without making errors.</p><p>Don't get distracted by the orientation of the lines!</p><p>Press <b>the LEFT or the RIGHT arrow</b> to indicate which <b>line is the longer one.</b></p><div style='float: center'><img src='materials/instructions/VerticalHorizontal_Demo.png' height='300'></img><p><img src='utils/answer/answer_leftright_keyboard.PNG' height='150'></img></p><p class='small'>In this example, the correct answer is the <b>LEFT arrow</b>.</p></div><p>Are you ready? <b>Press ENTER to start</b></p>"	n/a	n/a	n/a	n/a	n/a	n/a	n/a	n/a	n/a	n/a
n/a	"html-keyboard-response"	"37"	"42987"	"0.0-4.0-3.0-2.0-0.0"	"kyydnu"	"657"	"1366"	"chrome"	"109.0.0"	"FALSE"	"Windows 10"	"60.16"	"003"	n/a	n/a	n/a	n/a	n/a	n/a	"fixation"	n/a	n/a	n/a	n/a	"NULL"	n/a	"NULL"	"NULL"	"NULL"	"<p style=\"color: black; font-size: 80px; padding-left: 3%; padding-right: 21%; padding-top: 42%; padding-bottom: 5%\">+</p>"	"1064"	n/a	n/a	n/a	n/a	n/a	n/a	n/a	n/a	n/a
n/a	"image-keyboard-response"	"38"	"43065"	"0.0-4.0-3.0-2.0-1.0"	"kyydnu"	"657"	"1366"	"chrome"	"109.0.0"	"FALSE"	"Windows 10"	"60.16"	"003"	n/a	n/a	n/a	n/a	n/a	n/a	"Trial"	n/a	n/a	n/a	"77"	"arrowright"	n/a	"NULL"	"NULL"	"NULL"	"stimuli/VerticalHorizontal_-330000_0.90000.png"	n/a	"VerticalHorizontal"	"arrowleft"	"1595"	"FALSE"	"VerticalHorizontal"	"-33000000000"	"0.9000000000"	"1"	"13"
n/a	"html-keyboard-response"	"39"	"44433"	"0.0-4.0-3.0-2.0-0.1"	"kyydnu"	"657"	"1366"	"chrome"	"109.0.0"	"FALSE"	"Windows 10"	"60.16"	"003"	n/a	n/a	n/a	n/a	n/a	n/a	"fixation"	n/a	n/a	n/a	n/a	"NULL"	n/a	"NULL"	"NULL"	"NULL"	"<p style=\"color: black; font-size: 80px; padding-left: 15%; padding-right: 34%; padding-top: 7%; padding-bottom: 38%\">+</p>"	"1358"	n/a	n/a	n/a	n/a	n/a	n/a	n/a	n/a	n/a
n/a	"image-keyboard-response"	"40"	"44447"	"0.0-4.0-3.0-2.0-1.1"	"kyydnu"	"657"	"1366"	"chrome"	"109.0.0"	"FALSE"	"Windows 10"	"60.16"	"003"	n/a	n/a	n/a	n/a	n/a	n/a	"Trial"	n/a	n/a	n/a	"13"	"arrowright"	n/a	"NULL"	"NULL"	"NULL"	"stimuli/VerticalHorizontal_0000000_0.90000.png"	n/a	"VerticalHorizontal"	"arrowleft"	"1368"	"FALSE"	"VerticalHorizontal"	"000000000000"	"0.9000000000"	"1"	"14"
n/a	"html-keyboard-response"	"41"	"45824"	"0.0-4.0-3.0-2.0-0.2"	"kyydnu"	"657"	"1366"	"chrome"	"109.0.0"	"FALSE"	"Windows 10"	"60.16"	"003"	n/a	n/a	n/a	n/a	n/a	n/a	"fixation"	n/a	n/a	n/a	n/a	"NULL"	n/a	"NULL"	"NULL"	"NULL"	"<p style=\"color: black; font-size: 80px; padding-left: 42%; padding-right: 1%; padding-top: 23%; padding-bottom: 40%\">+</p>"	"1357"	n/a	n/a	n/a	n/a	n/a	n/a	n/a	n/a	n/a
n/a	"image-keyboard-response"	"42"	"45920"	"0.0-4.0-3.0-2.0-1.2"	"kyydnu"	"657"	"1366"	"chrome"	"109.0.0"	"FALSE"	"Windows 10"	"60.16"	"003"	n/a	n/a	n/a	n/a	n/a	n/a	"Trial"	n/a	n/a	n/a	"95"	"arrowright"	n/a	"NULL"	"NULL"	"NULL"	"stimuli/VerticalHorizontal_3300000_0.90000.png"	n/a	"VerticalHorizontal"	"arrowleft"	"1377"	"FALSE"	"VerticalHorizontal"	"330000000000"	"0.9000000000"	"1"	"15"
n/a	"html-keyboard-response"	"43"	"47371"	"0.0-4.0-3.0-2.0-0.3"	"kyydnu"	"657"	"1366"	"chrome"	"109.0.0"	"FALSE"	"Windows 10"	"60.16"	"003"	n/a	n/a	n/a	n/a	n/a	n/a	"fixation"	n/a	n/a	n/a	n/a	"NULL"	n/a	"NULL"	"NULL"	"NULL"	"<p style=\"color: black; font-size: 80px; padding-left: 19%; padding-right: 48%; padding-top: 25%; padding-bottom: 35%\">+</p>"	"1445"	n/a	n/a	n/a	n/a	n/a	n/a	n/a	n/a	n/a
n/a	"image-keyboard-response"	"44"	"47486"	"0.0-4.0-3.0-2.0-1.3"	"kyydnu"	"657"	"1366"	"chrome"	"109.0.0"	"FALSE"	"Windows 10"	"60.16"	"003"	n/a	n/a	n/a	n/a	n/a	n/a	"Trial"	n/a	n/a	n/a	"113"	"arrowright"	n/a	"NULL"	"NULL"	"NULL"	"stimuli/VerticalHorizontal_-330000_-0.9000.png"	n/a	"VerticalHorizontal"	"arrowright"	"1451"	"TRUE"	"VerticalHorizontal"	"-33000000000"	"-0.900000000"	"1"	"16"
n/a	"html-keyboard-response"	"45"	"48761"	"0.0-4.0-3.0-2.0-0.4"	"kyydnu"	"657"	"1366"	"chrome"	"109.0.0"	"FALSE"	"Windows 10"	"60.16"	"003"	n/a	n/a	n/a	n/a	n/a	n/a	"fixation"	n/a	n/a	n/a	n/a	"NULL"	n/a	"NULL"	"NULL"	"NULL"	"<p style=\"color: black; font-size: 80px; padding-left: 44%; padding-right: 12%; padding-top: 3%; padding-bottom: 37%\">+</p>"	"1265"	n/a	n/a	n/a	n/a	n/a	n/a	n/a	n/a	n/a
n/a	"image-keyboard-response"	"46"	"48818"	"0.0-4.0-3.0-2.0-1.4"	"kyydnu"	"657"	"1366"	"chrome"	"109.0.0"	"FALSE"	"Windows 10"	"60.16"	"003"	n/a	n/a	n/a	n/a	n/a	n/a	"Trial"	n/a	n/a	n/a	"56"	"arrowright"	n/a	"NULL"	"NULL"	"NULL"	"stimuli/VerticalHorizontal_0000000_-0.9000.png"	n/a	"VerticalHorizontal"	"arrowright"	"1275"	"TRUE"	"VerticalHorizontal"	"000000000000"	"-0.900000000"	"1"	"17"
n/a	"html-keyboard-response"	"47"	"49923"	"0.0-4.0-3.0-2.0-0.5"	"kyydnu"	"657"	"1366"	"chrome"	"109.0.0"	"FALSE"	"Windows 10"	"60.16"	"003"	n/a	n/a	n/a	n/a	n/a	n/a	"fixation"	n/a	n/a	n/a	n/a	"NULL"	n/a	"NULL"	"NULL"	"NULL"	"<p style=\"color: black; font-size: 80px; padding-left: 6%; padding-right: 9%; padding-top: 3%; padding-bottom: 18%\">+</p>"	"1095"	n/a	n/a	n/a	n/a	n/a	n/a	n/a	n/a	n/a
n/a	"image-keyboard-response"	"48"	"50013"	"0.0-4.0-3.0-2.0-1.5"	"kyydnu"	"657"	"1366"	"chrome"	"109.0.0"	"FALSE"	"Windows 10"	"60.16"	"003"	n/a	n/a	n/a	n/a	n/a	n/a	"Trial"	n/a	n/a	n/a	"88"	"arrowright"	n/a	"NULL"	"NULL"	"NULL"	"stimuli/VerticalHorizontal_3300000_-0.9000.png"	n/a	"VerticalHorizontal"	"arrowright"	"1105"	"TRUE"	"VerticalHorizontal"	"330000000000"	"-0.900000000"	"1"	"18"
n/a	"html-button-response"	"49"	"51913"	"0.0-4.0-3.0-3.0"	"kyydnu"	"657"	"1366"	"chrome"	"109.0.0"	"FALSE"	"Windows 10"	"60.16"	"003"	n/a	n/a	n/a	n/a	n/a	n/a	"practice_block_results"	n/a	n/a	n/a	"1898"	"0"	n/a	"NULL"	"NULL"	"NULL"	"<p style='color:rgb(76,175,80);'> Correct Responses: <b>50.00%</b></p><hr><p style='color:rgb(233,30,99);'> Average Response Time: <b>73.67</b> ms.</p>"	n/a	n/a	n/a	n/a	n/a	n/a	n/a	n/a	n/a	n/a
n/a	"html-button-response"	"50"	"73882"	"0.0-4.0-4.0"	"kyydnu"	"657"	"1366"	"chrome"	"109.0.0"	"FALSE"	"Windows 10"	"60.16"	"003"	n/a	n/a	n/a	n/a	n/a	n/a	"practice_debrief"	n/a	n/a	n/a	"21455"	"0"	n/a	"NULL"	"NULL"	"NULL"	"<p><b>TRAINING COMPLETED</b></p><p>In the next phase, there will be more trials, and some might be harder too.<br> Moreover, after each illusion block, a <b>score</b> will be calculated based on speed (time you took to answer) and accuracy (number of errors).</p><p>Try to keep up a high score!</p><br><p>Note that it can be <i>really</i> challenging at times, so you will need to rely on your <b>intuition</b> and gut feeling to answer as fast as you can without making errors.</p><p>Each illusion block will be repeated two times (so that you have the opportunity to improve your score), but the order of the blocks is random.</p><p>Remember, your goal is to be as <b>fast</b> and <b>accurate</b> as possible. Good luck!</p><br>"	n/a	n/a	n/a	n/a	n/a	n/a	n/a	n/a	n/a	n/a
"TRUE"	"preload"	"51"	"74025"	"0.0-5.0-0.0"	"kyydnu"	"657"	"1366"	"chrome"	"109.0.0"	"FALSE"	"Windows 10"	"60.16"	"003"	n/a	n/a	n/a	n/a	n/a	n/a	n/a	n/a	n/a	n/a	n/a	"NULL"	"FALSE"	"list()"	"list()"	"list()"	n/a	n/a	n/a	n/a	n/a	n/a	n/a	n/a	n/a	n/a	n/a
n/a	"html-keyboard-response"	"52"	"104368"	"0.0-5.0-1.0"	"kyydnu"	"657"	"1366"	"chrome"	"109.0.0"	"FALSE"	"Windows 10"	"60.16"	"003"	n/a	n/a	n/a	n/a	n/a	n/a	n/a	n/a	n/a	n/a	"30343"	"enter"	n/a	"NULL"	"NULL"	"NULL"	"<p><b>Part 1/6</b></p><p>In this part, two horizontal red lines will appear one above the other.</p><p>Your task is to select which <b>line is longer</b> in length as fast as you can, without making errors.</p><p>Don't get distracted by the surrounding black arrows at the end of the red lines!</p><p>Press <b>the UP or the DOWN arrow</b> to indicate where is the longer <b>red line.</b></p><div style='float: center'><img src='materials/instructions/MullerLyer_Demo.png' height='300'></img><p><img src='utils/answer/answer_updown_keyboard.PNG' height='150'></img></p><p class='small'>In this example, the correct answer is the <b>UP arrow</b>.</p></div><p>Are you ready? <b>Press ENTER to start</b></p>"	n/a	n/a	n/a	n/a	n/a	n/a	n/a	n/a	n/a	n/a
n/a	"html-keyboard-response"	"53"	"105940"	"0.0-5.0-2.0-0.0"	"kyydnu"	"657"	"1366"	"chrome"	"109.0.0"	"FALSE"	"Windows 10"	"60.16"	"003"	n/a	n/a	n/a	n/a	n/a	n/a	"fixation"	n/a	n/a	n/a	n/a	"NULL"	n/a	"NULL"	"NULL"	"NULL"	"<p style=\"color: black; font-size: 80px; padding-left: 16%; padding-right: 27%; padding-top: 12%; padding-bottom: 7%\">+</p>"	"1053"	n/a	n/a	n/a	n/a	n/a	n/a	n/a	n/a	n/a
n/a	"image-keyboard-response"	"54"	"106661"	"0.0-5.0-2.0-1.0"	"kyydnu"	"657"	"1366"	"chrome"	"109.0.0"	"FALSE"	"Windows 10"	"60.16"	"003"	n/a	n/a	n/a	n/a	n/a	n/a	"Trial"	n/a	n/a	n/a	"719"	"arrowdown"	n/a	"NULL"	"NULL"	"NULL"	"stimuli/MullerLyer_14.12857_-0.23665.png"	n/a	"MullerLyer"	"arrowdown"	"1572"	"TRUE"	"MullerLyer"	"14.128570000"	"-0.236650000"	"1"	"19"
n/a	"html-keyboard-response"	"55"	"107761"	"0.0-5.0-2.0-0.1"	"kyydnu"	"657"	"1366"	"chrome"	"109.0.0"	"FALSE"	"Windows 10"	"60.16"	"003"	n/a	n/a	n/a	n/a	n/a	n/a	"fixation"	n/a	n/a	n/a	n/a	"NULL"	n/a	"NULL"	"NULL"	"NULL"	"<p style=\"color: black; font-size: 80px; padding-left: 42%; padding-right: 20%; padding-top: 4%; padding-bottom: 30%\">+</p>"	"1091"	n/a	n/a	n/a	n/a	n/a	n/a	n/a	n/a	n/a
n/a	"image-keyboard-response"	"56"	"108239"	"0.0-5.0-2.0-1.1"	"kyydnu"	"657"	"1366"	"chrome"	"109.0.0"	"FALSE"	"Windows 10"	"60.16"	"003"	n/a	n/a	n/a	n/a	n/a	n/a	"Trial"	n/a	n/a	n/a	"477"	"arrowdown"	n/a	"NULL"	"NULL"	"NULL"	"stimuli/MullerLyer_-20.04286_-0.14541.png"	n/a	"MullerLyer"	"arrowdown"	"1100"	"TRUE"	"MullerLyer"	"-20.04286000"	"-0.145410000"	"1"	"20"
n/a	"html-keyboard-response"	"57"	"109674"	"0.0-5.0-2.0-0.2"	"kyydnu"	"657"	"1366"	"chrome"	"109.0.0"	"FALSE"	"Windows 10"	"60.16"	"003"	n/a	n/a	n/a	n/a	n/a	n/a	"fixation"	n/a	n/a	n/a	n/a	"NULL"	n/a	"NULL"	"NULL"	"NULL"	"<p style=\"color: black; font-size: 80px; padding-left: 25%; padding-right: 7%; padding-top: 18%; padding-bottom: 38%\">+</p>"	"1424"	n/a	n/a	n/a	n/a	n/a	n/a	n/a	n/a	n/a
n/a	"image-keyboard-response"	"58"	"110130"	"0.0-5.0-2.0-1.2"	"kyydnu"	"657"	"1366"	"chrome"	"109.0.0"	"FALSE"	"Windows 10"	"60.16"	"003"	n/a	n/a	n/a	n/a	n/a	n/a	"Trial"	n/a	n/a	n/a	"454"	"arrowup"	n/a	"NULL"	"NULL"	"NULL"	"stimuli/MullerLyer_8.21429_-0.07627.png"	n/a	"MullerLyer"	"arrowdown"	"1435"	"FALSE"	"MullerLyer"	"8.2142900000"	"-0.076270000"	"1"	"21"
n/a	"html-keyboard-response"	"59"	"111294"	"0.0-5.0-2.0-0.3"	"kyydnu"	"657"	"1366"	"chrome"	"109.0.0"	"FALSE"	"Windows 10"	"60.16"	"003"	n/a	n/a	n/a	n/a	n/a	n/a	"fixation"	n/a	n/a	n/a	n/a	"NULL"	n/a	"NULL"	"NULL"	"NULL"	"<p style=\"color: black; font-size: 80px; padding-left: 15%; padding-right: 6%; padding-top: 5%; padding-bottom: 14%\">+</p>"	"1155"	n/a	n/a	n/a	n/a	n/a	n/a	n/a	n/a	n/a
n/a	"image-keyboard-response"	"60"	"111699"	"0.0-5.0-2.0-1.3"	"kyydnu"	"657"	"1366"	"chrome"	"109.0.0"	"FALSE"	"Windows 10"	"60.16"	"003"	n/a	n/a	n/a	n/a	n/a	n/a	"Trial"	n/a	n/a	n/a	"403"	"arrowdown"	n/a	"NULL"	"NULL"	"NULL"	"stimuli/MullerLyer_-14.12857_-0.23665.png"	n/a	"MullerLyer"	"arrowdown"	"1164"	"TRUE"	"MullerLyer"	"-14.12857000"	"-0.236650000"	"1"	"22"
n/a	"html-keyboard-response"	"61"	"112969"	"0.0-5.0-2.0-0.4"	"kyydnu"	"657"	"1366"	"chrome"	"109.0.0"	"FALSE"	"Windows 10"	"60.16"	"003"	n/a	n/a	n/a	n/a	n/a	n/a	"fixation"	n/a	n/a	n/a	n/a	"NULL"	n/a	"NULL"	"NULL"	"NULL"	"<p style=\"color: black; font-size: 80px; padding-left: 29%; padding-right: 10%; padding-top: 17%; padding-bottom: 33%\">+</p>"	"1250"	n/a	n/a	n/a	n/a	n/a	n/a	n/a	n/a	n/a
n/a	"image-keyboard-response"	"62"	"113336"	"0.0-5.0-2.0-1.4"	"kyydnu"	"657"	"1366"	"chrome"	"109.0.0"	"FALSE"	"Windows 10"	"60.16"	"003"	n/a	n/a	n/a	n/a	n/a	n/a	"Trial"	n/a	n/a	n/a	"365"	"arrowup"	n/a	"NULL"	"NULL"	"NULL"	"stimuli/MullerLyer_-2.3000_-0.14541.png"	n/a	"MullerLyer"	"arrowdown"	"1270"	"FALSE"	"MullerLyer"	"-2.300000000"	"-0.145410000"	"1"	"23"
n/a	"html-keyboard-response"	"63"	"114455"	"0.0-5.0-2.0-0.5"	"kyydnu"	"657"	"1366"	"chrome"	"109.0.0"	"FALSE"	"Windows 10"	"60.16"	"003"	n/a	n/a	n/a	n/a	n/a	n/a	"fixation"	n/a	n/a	n/a	n/a	"NULL"	n/a	"NULL"	"NULL"	"NULL"	"<p style=\"color: black; font-size: 80px; padding-left: 14%; padding-right: 15%; padding-top: 46%; padding-bottom: 39%\">+</p>"	"1107"	n/a	n/a	n/a	n/a	n/a	n/a	n/a	n/a	n/a
n/a	"image-keyboard-response"	"64"	"114999"	"0.0-5.0-2.0-1.5"	"kyydnu"	"657"	"1366"	"chrome"	"109.0.0"	"FALSE"	"Windows 10"	"60.16"	"003"	n/a	n/a	n/a	n/a	n/a	n/a	"Trial"	n/a	n/a	n/a	"543"	"arrowup"	n/a	"NULL"	"NULL"	"NULL"	"stimuli/MullerLyer_2.30000_-0.07627.png"	n/a	"MullerLyer"	"arrowdown"	"1119"	"FALSE"	"MullerLyer"	"2.3000000000"	"-0.076270000"	"1"	"24"
n/a	"html-keyboard-response"	"65"	"116324"	"0.0-5.0-2.0-0.6"	"kyydnu"	"657"	"1366"	"chrome"	"109.0.0"	"FALSE"	"Windows 10"	"60.16"	"003"	n/a	n/a	n/a	n/a	n/a	n/a	"fixation"	n/a	n/a	n/a	n/a	"NULL"	n/a	"NULL"	"NULL"	"NULL"	"<p style=\"color: black; font-size: 80px; padding-left: 45%; padding-right: 34%; padding-top: 2%; padding-bottom: 3%\">+</p>"	"1317"	n/a	n/a	n/a	n/a	n/a	n/a	n/a	n/a	n/a
n/a	"image-keyboard-response"	"66"	"116799"	"0.0-5.0-2.0-1.6"	"kyydnu"	"657"	"1366"	"chrome"	"109.0.0"	"FALSE"	"Windows 10"	"60.16"	"003"	n/a	n/a	n/a	n/a	n/a	n/a	"Trial"	n/a	n/a	n/a	"473"	"arrowup"	n/a	"NULL"	"NULL"	"NULL"	"stimuli/MullerLyer_20.04286_0.35000.png"	n/a	"MullerLyer"	"arrowup"	"1325"	"TRUE"	"MullerLyer"	"20.042860000"	"0.3500000000"	"1"	"25"
n/a	"html-keyboard-response"	"67"	"117938"	"0.0-5.0-2.0-0.7"	"kyydnu"	"657"	"1366"	"chrome"	"109.0.0"	"FALSE"	"Windows 10"	"60.16"	"003"	n/a	n/a	n/a	n/a	n/a	n/a	"fixation"	n/a	n/a	n/a	n/a	"NULL"	n/a	"NULL"	"NULL"	"NULL"	"<p style=\"color: black; font-size: 80px; padding-left: 1%; padding-right: 31%; padding-top: 45%; padding-bottom: 24%\">+</p>"	"1129"	n/a	n/a	n/a	n/a	n/a	n/a	n/a	n/a	n/a
n/a	"image-keyboard-response"	"68"	"118472"	"0.0-5.0-2.0-1.7"	"kyydnu"	"657"	"1366"	"chrome"	"109.0.0"	"FALSE"	"Windows 10"	"60.16"	"003"	n/a	n/a	n/a	n/a	n/a	n/a	"Trial"	n/a	n/a	n/a	"533"	"arrowup"	n/a	"NULL"	"NULL"	"NULL"	"stimuli/MullerLyer_-2.3000_0.14541.png"	n/a	"MullerLyer"	"arrowup"	"1139"	"TRUE"	"MullerLyer"	"-2.300000000"	"0.1454100000"	"1"	"26"
n/a	"html-keyboard-response"	"69"	"119761"	"0.0-5.0-2.0-0.8"	"kyydnu"	"657"	"1366"	"chrome"	"109.0.0"	"FALSE"	"Windows 10"	"60.16"	"003"	n/a	n/a	n/a	n/a	n/a	n/a	"fixation"	n/a	n/a	n/a	n/a	"NULL"	n/a	"NULL"	"NULL"	"NULL"	"<p style=\"color: black; font-size: 80px; padding-left: 19%; padding-right: 33%; padding-top: 2%; padding-bottom: 28%\">+</p>"	"1268"	n/a	n/a	n/a	n/a	n/a	n/a	n/a	n/a	n/a
n/a	"image-keyboard-response"	"70"	"120230"	"0.0-5.0-2.0-1.8"	"kyydnu"	"657"	"1366"	"chrome"	"109.0.0"	"FALSE"	"Windows 10"	"60.16"	"003"	n/a	n/a	n/a	n/a	n/a	n/a	"Trial"	n/a	n/a	n/a	"466"	"arrowdown"	n/a	"NULL"	"NULL"	"NULL"	"stimuli/MullerLyer_-8.21429_-0.14541.png"	n/a	"MullerLyer"	"arrowdown"	"1289"	"TRUE"	"MullerLyer"	"-8.214290000"	"-0.145410000"	"1"	"27"
n/a	"html-keyboard-response"	"71"	"121644"	"0.0-5.0-2.0-0.9"	"kyydnu"	"657"	"1366"	"chrome"	"109.0.0"	"FALSE"	"Windows 10"	"60.16"	"003"	n/a	n/a	n/a	n/a	n/a	n/a	"fixation"	n/a	n/a	n/a	n/a	"NULL"	n/a	"NULL"	"NULL"	"NULL"	"<p style=\"color: black; font-size: 80px; padding-left: 26%; padding-right: 29%; padding-top: 40%; padding-bottom: 11%\">+</p>"	"1400"	n/a	n/a	n/a	n/a	n/a	n/a	n/a	n/a	n/a
n/a	"image-keyboard-response"	"72"	"122044"	"0.0-5.0-2.0-1.9"	"kyydnu"	"657"	"1366"	"chrome"	"109.0.0"	"FALSE"	"Windows 10"	"60.16"	"003"	n/a	n/a	n/a	n/a	n/a	n/a	"Trial"	n/a	n/a	n/a	"398"	"arrowup"	n/a	"NULL"	"NULL"	"NULL"	"stimuli/MullerLyer_20.04286_0.07627.png"	n/a	"MullerLyer"	"arrowup"	"1414"	"TRUE"	"MullerLyer"	"20.042860000"	"0.0762700000"	"1"	"28"
n/a	"html-keyboard-response"	"73"	"123062"	"0.0-5.0-2.0-0.10"	"kyydnu"	"657"	"1366"	"chrome"	"109.0.0"	"FALSE"	"Windows 10"	"60.16"	"003"	n/a	n/a	n/a	n/a	n/a	n/a	"fixation"	n/a	n/a	n/a	n/a	"NULL"	n/a	"NULL"	"NULL"	"NULL"	"<p style=\"color: black; font-size: 80px; padding-left: 40%; padding-right: 24%; padding-top: 35%; padding-bottom: 50%\">+</p>"	"1002"	n/a	n/a	n/a	n/a	n/a	n/a	n/a	n/a	n/a
n/a	"image-keyboard-response"	"74"	"123560"	"0.0-5.0-2.0-1.10"	"kyydnu"	"657"	"1366"	"chrome"	"109.0.0"	"FALSE"	"Windows 10"	"60.16"	"003"	n/a	n/a	n/a	n/a	n/a	n/a	"Trial"	n/a	n/a	n/a	"496"	"arrowup"	n/a	"NULL"	"NULL"	"NULL"	"stimuli/MullerLyer_-2.3000_0.23665.png"	n/a	"MullerLyer"	"arrowup"	"1018"	"TRUE"	"MullerLyer"	"-2.300000000"	"0.2366500000"	"1"	"29"
n/a	"html-keyboard-response"	"75"	"124627"	"0.0-5.0-2.0-0.11"	"kyydnu"	"657"	"1366"	"chrome"	"109.0.0"	"FALSE"	"Windows 10"	"60.16"	"003"	n/a	n/a	n/a	n/a	n/a	n/a	"fixation"	n/a	n/a	n/a	n/a	"NULL"	n/a	"NULL"	"NULL"	"NULL"	"<p style=\"color: black; font-size: 80px; padding-left: 25%; padding-right: 33%; padding-top: 33%; padding-bottom: 18%\">+</p>"	"1053"	n/a	n/a	n/a	n/a	n/a	n/a	n/a	n/a	n/a
n/a	"image-keyboard-response"	"76"	"125151"	"0.0-5.0-2.0-1.11"	"kyydnu"	"657"	"1366"	"chrome"	"109.0.0"	"FALSE"	"Windows 10"	"60.16"	"003"	n/a	n/a	n/a	n/a	n/a	n/a	"Trial"	n/a	n/a	n/a	"522"	"arrowup"	n/a	"NULL"	"NULL"	"NULL"	"stimuli/MullerLyer_-20.04286_0.35000.png"	n/a	"MullerLyer"	"arrowup"	"1067"	"TRUE"	"MullerLyer"	"-20.04286000"	"0.3500000000"	"1"	"30"
n/a	"html-keyboard-response"	"77"	"126559"	"0.0-5.0-2.0-0.12"	"kyydnu"	"657"	"1366"	"chrome"	"109.0.0"	"FALSE"	"Windows 10"	"60.16"	"003"	n/a	n/a	n/a	n/a	n/a	n/a	"fixation"	n/a	n/a	n/a	n/a	"NULL"	n/a	"NULL"	"NULL"	"NULL"	"<p style=\"color: black; font-size: 80px; padding-left: 46%; padding-right: 41%; padding-top: 46%; padding-bottom: 28%\">+</p>"	"1396"	n/a	n/a	n/a	n/a	n/a	n/a	n/a	n/a	n/a
n/a	"image-keyboard-response"	"78"	"127003"	"0.0-5.0-2.0-1.12"	"kyydnu"	"657"	"1366"	"chrome"	"109.0.0"	"FALSE"	"Windows 10"	"60.16"	"003"	n/a	n/a	n/a	n/a	n/a	n/a	"Trial"	n/a	n/a	n/a	"443"	"arrowdown"	n/a	"NULL"	"NULL"	"NULL"	"stimuli/MullerLyer_-14.12857_-0.3500.png"	n/a	"MullerLyer"	"arrowdown"	"1408"	"TRUE"	"MullerLyer"	"-14.12857000"	"-0.350000000"	"1"	"31"
n/a	"html-keyboard-response"	"79"	"128229"	"0.0-5.0-2.0-0.13"	"kyydnu"	"657"	"1366"	"chrome"	"109.0.0"	"FALSE"	"Windows 10"	"60.16"	"003"	n/a	n/a	n/a	n/a	n/a	n/a	"fixation"	n/a	n/a	n/a	n/a	"NULL"	n/a	"NULL"	"NULL"	"NULL"	"<p style=\"color: black; font-size: 80px; padding-left: 42%; padding-right: 44%; padding-top: 16%; padding-bottom: 18%\">+</p>"	"1207"	n/a	n/a	n/a	n/a	n/a	n/a	n/a	n/a	n/a
n/a	"image-keyboard-response"	"80"	"128805"	"0.0-5.0-2.0-1.13"	"kyydnu"	"657"	"1366"	"chrome"	"109.0.0"	"FALSE"	"Windows 10"	"60.16"	"003"	n/a	n/a	n/a	n/a	n/a	n/a	"Trial"	n/a	n/a	n/a	"575"	"arrowdown"	n/a	"NULL"	"NULL"	"NULL"	"stimuli/MullerLyer_2.30000_-0.23665.png"	n/a	"MullerLyer"	"arrowdown"	"1226"	"TRUE"	"MullerLyer"	"2.3000000000"	"-0.236650000"	"1"	"32"
n/a	"html-keyboard-response"	"81"	"130172"	"0.0-5.0-2.0-0.14"	"kyydnu"	"657"	"1366"	"chrome"	"109.0.0"	"FALSE"	"Windows 10"	"60.16"	"003"	n/a	n/a	n/a	n/a	n/a	n/a	"fixation"	n/a	n/a	n/a	n/a	"NULL"	n/a	"NULL"	"NULL"	"NULL"	"<p style=\"color: black; font-size: 80px; padding-left: 28%; padding-right: 44%; padding-top: 13%; padding-bottom: 7%\">+</p>"	"1358"	n/a	n/a	n/a	n/a	n/a	n/a	n/a	n/a	n/a
n/a	"image-keyboard-response"	"82"	"130637"	"0.0-5.0-2.0-1.14"	"kyydnu"	"657"	"1366"	"chrome"	"109.0.0"	"FALSE"	"Windows 10"	"60.16"	"003"	n/a	n/a	n/a	n/a	n/a	n/a	"Trial"	n/a	n/a	n/a	"464"	"arrowdown"	n/a	"NULL"	"NULL"	"NULL"	"stimuli/MullerLyer_-14.12857_-0.14541.png"	n/a	"MullerLyer"	"arrowdown"	"1367"	"TRUE"	"MullerLyer"	"-14.12857000"	"-0.145410000"	"1"	"33"
n/a	"html-keyboard-response"	"83"	"132031"	"0.0-5.0-2.0-0.15"	"kyydnu"	"657"	"1366"	"chrome"	"109.0.0"	"FALSE"	"Windows 10"	"60.16"	"003"	n/a	n/a	n/a	n/a	n/a	n/a	"fixation"	n/a	n/a	n/a	n/a	"NULL"	n/a	"NULL"	"NULL"	"NULL"	"<p style=\"color: black; font-size: 80px; padding-left: 27%; padding-right: 33%; padding-top: 39%; padding-bottom: 16%\">+</p>"	"1382"	n/a	n/a	n/a	n/a	n/a	n/a	n/a	n/a	n/a
n/a	"image-keyboard-response"	"84"	"132473"	"0.0-5.0-2.0-1.15"	"kyydnu"	"657"	"1366"	"chrome"	"109.0.0"	"FALSE"	"Windows 10"	"60.16"	"003"	n/a	n/a	n/a	n/a	n/a	n/a	"Trial"	n/a	n/a	n/a	"440"	"arrowup"	n/a	"NULL"	"NULL"	"NULL"	"stimuli/MullerLyer_20.04286_-0.07627.png"	n/a	"MullerLyer"	"arrowdown"	"1394"	"FALSE"	"MullerLyer"	"20.042860000"	"-0.076270000"	"1"	"34"
n/a	"html-keyboard-response"	"85"	"133780"	"0.0-5.0-2.0-0.16"	"kyydnu"	"657"	"1366"	"chrome"	"109.0.0"	"FALSE"	"Windows 10"	"60.16"	"003"	n/a	n/a	n/a	n/a	n/a	n/a	"fixation"	n/a	n/a	n/a	n/a	"NULL"	n/a	"NULL"	"NULL"	"NULL"	"<p style=\"color: black; font-size: 80px; padding-left: 19%; padding-right: 45%; padding-top: 11%; padding-bottom: 32%\">+</p>"	"1293"	n/a	n/a	n/a	n/a	n/a	n/a	n/a	n/a	n/a
n/a	"image-keyboard-response"	"86"	"134253"	"0.0-5.0-2.0-1.16"	"kyydnu"	"657"	"1366"	"chrome"	"109.0.0"	"FALSE"	"Windows 10"	"60.16"	"003"	n/a	n/a	n/a	n/a	n/a	n/a	"Trial"	n/a	n/a	n/a	"471"	"arrowup"	n/a	"NULL"	"NULL"	"NULL"	"stimuli/MullerLyer_-2.3000_0.35000.png"	n/a	"MullerLyer"	"arrowup"	"1307"	"TRUE"	"MullerLyer"	"-2.300000000"	"0.3500000000"	"1"	"35"
n/a	"html-keyboard-response"	"87"	"135581"	"0.0-5.0-2.0-0.17"	"kyydnu"	"657"	"1366"	"chrome"	"109.0.0"	"FALSE"	"Windows 10"	"60.16"	"003"	n/a	n/a	n/a	n/a	n/a	n/a	"fixation"	n/a	n/a	n/a	n/a	"NULL"	n/a	"NULL"	"NULL"	"NULL"	"<p style=\"color: black; font-size: 80px; padding-left: 35%; padding-right: 46%; padding-top: 10%; padding-bottom: 11%\">+</p>"	"1310"	n/a	n/a	n/a	n/a	n/a	n/a	n/a	n/a	n/a
n/a	"image-keyboard-response"	"88"	"136154"	"0.0-5.0-2.0-1.17"	"kyydnu"	"657"	"1366"	"chrome"	"109.0.0"	"FALSE"	"Windows 10"	"60.16"	"003"	n/a	n/a	n/a	n/a	n/a	n/a	"Trial"	n/a	n/a	n/a	"571"	"arrowup"	n/a	"NULL"	"NULL"	"NULL"	"stimuli/MullerLyer_-2.3000_0.07627.png"	n/a	"MullerLyer"	"arrowup"	"1328"	"TRUE"	"MullerLyer"	"-2.300000000"	"0.0762700000"	"1"	"36"
n/a	"html-keyboard-response"	"89"	"137630"	"0.0-5.0-2.0-0.18"	"kyydnu"	"657"	"1366"	"chrome"	"109.0.0"	"FALSE"	"Windows 10"	"60.16"	"003"	n/a	n/a	n/a	n/a	n/a	n/a	"fixation"	n/a	n/a	n/a	n/a	"NULL"	n/a	"NULL"	"NULL"	"NULL"	"<p style=\"color: black; font-size: 80px; padding-left: 9%; padding-right: 8%; padding-top: 40%; padding-bottom: 37%\">+</p>"	"1459"	n/a	n/a	n/a	n/a	n/a	n/a	n/a	n/a	n/a
n/a	"image-keyboard-response"	"90"	"138010"	"0.0-5.0-2.0-1.18"	"kyydnu"	"657"	"1366"	"chrome"	"109.0.0"	"FALSE"	"Windows 10"	"60.16"	"003"	n/a	n/a	n/a	n/a	n/a	n/a	"Trial"	n/a	n/a	n/a	"379"	"arrowdown"	n/a	"NULL"	"NULL"	"NULL"	"stimuli/MullerLyer_2.30000_-0.3500.png"	n/a	"MullerLyer"	"arrowdown"	"1476"	"TRUE"	"MullerLyer"	"2.3000000000"	"-0.350000000"	"1"	"37"
n/a	"html-keyboard-response"	"91"	"139303"	"0.0-5.0-2.0-0.19"	"kyydnu"	"657"	"1366"	"chrome"	"109.0.0"	"FALSE"	"Windows 10"	"60.16"	"003"	n/a	n/a	n/a	n/a	n/a	n/a	"fixation"	n/a	n/a	n/a	n/a	"NULL"	n/a	"NULL"	"NULL"	"NULL"	"<p style=\"color: black; font-size: 80px; padding-left: 34%; padding-right: 33%; padding-top: 36%; padding-bottom: 25%\">+</p>"	"1275"	n/a	n/a	n/a	n/a	n/a	n/a	n/a	n/a	n/a
n/a	"image-keyboard-response"	"92"	"139632"	"0.0-5.0-2.0-1.19"	"kyydnu"	"657"	"1366"	"chrome"	"109.0.0"	"FALSE"	"Windows 10"	"60.16"	"003"	n/a	n/a	n/a	n/a	n/a	n/a	"Trial"	n/a	n/a	n/a	"327"	"arrowup"	n/a	"NULL"	"NULL"	"NULL"	"stimuli/MullerLyer_-20.04286_0.23665.png"	n/a	"MullerLyer"	"arrowup"	"1293"	"TRUE"	"MullerLyer"	"-20.04286000"	"0.2366500000"	"1"	"38"
n/a	"html-keyboard-response"	"93"	"141080"	"0.0-5.0-2.0-0.20"	"kyydnu"	"657"	"1366"	"chrome"	"109.0.0"	"FALSE"	"Windows 10"	"60.16"	"003"	n/a	n/a	n/a	n/a	n/a	n/a	"fixation"	n/a	n/a	n/a	n/a	"NULL"	n/a	"NULL"	"NULL"	"NULL"	"<p style=\"color: black; font-size: 80px; padding-left: 26%; padding-right: 44%; padding-top: 39%; padding-bottom: 50%\">+</p>"	"1426"	n/a	n/a	n/a	n/a	n/a	n/a	n/a	n/a	n/a
n/a	"image-keyboard-response"	"94"	"141473"	"0.0-5.0-2.0-1.20"	"kyydnu"	"657"	"1366"	"chrome"	"109.0.0"	"FALSE"	"Windows 10"	"60.16"	"003"	n/a	n/a	n/a	n/a	n/a	n/a	"Trial"	n/a	n/a	n/a	"392"	"arrowup"	n/a	"NULL"	"NULL"	"NULL"	"stimuli/MullerLyer_2.30000_0.23665.png"	n/a	"MullerLyer"	"arrowup"	"1448"	"TRUE"	"MullerLyer"	"2.3000000000"	"0.2366500000"	"1"	"39"
n/a	"html-keyboard-response"	"95"	"142724"	"0.0-5.0-2.0-0.21"	"kyydnu"	"657"	"1366"	"chrome"	"109.0.0"	"FALSE"	"Windows 10"	"60.16"	"003"	n/a	n/a	n/a	n/a	n/a	n/a	"fixation"	n/a	n/a	n/a	n/a	"NULL"	n/a	"NULL"	"NULL"	"NULL"	"<p style=\"color: black; font-size: 80px; padding-left: 20%; padding-right: 20%; padding-top: 13%; padding-bottom: 41%\">+</p>"	"1237"	n/a	n/a	n/a	n/a	n/a	n/a	n/a	n/a	n/a
n/a	"image-keyboard-response"	"96"	"143179"	"0.0-5.0-2.0-1.21"	"kyydnu"	"657"	"1366"	"chrome"	"109.0.0"	"FALSE"	"Windows 10"	"60.16"	"003"	n/a	n/a	n/a	n/a	n/a	n/a	"Trial"	n/a	n/a	n/a	"454"	"arrowup"	n/a	"NULL"	"NULL"	"NULL"	"stimuli/MullerLyer_8.21429_0.14541.png"	n/a	"MullerLyer"	"arrowup"	"1251"	"TRUE"	"MullerLyer"	"8.2142900000"	"0.1454100000"	"1"	"40"
n/a	"html-keyboard-response"	"97"	"144610"	"0.0-5.0-2.0-0.22"	"kyydnu"	"657"	"1366"	"chrome"	"109.0.0"	"FALSE"	"Windows 10"	"60.16"	"003"	n/a	n/a	n/a	n/a	n/a	n/a	"fixation"	n/a	n/a	n/a	n/a	"NULL"	n/a	"NULL"	"NULL"	"NULL"	"<p style=\"color: black; font-size: 80px; padding-left: 38%; padding-right: 45%; padding-top: 44%; padding-bottom: 31%\">+</p>"	"1419"	n/a	n/a	n/a	n/a	n/a	n/a	n/a	n/a	n/a
n/a	"image-keyboard-response"	"98"	"144961"	"0.0-5.0-2.0-1.22"	"kyydnu"	"657"	"1366"	"chrome"	"109.0.0"	"FALSE"	"Windows 10"	"60.16"	"003"	n/a	n/a	n/a	n/a	n/a	n/a	"Trial"	n/a	n/a	n/a	"349"	"arrowup"	n/a	"NULL"	"NULL"	"NULL"	"stimuli/MullerLyer_8.21429_0.07627.png"	n/a	"MullerLyer"	"arrowup"	"1431"	"TRUE"	"MullerLyer"	"8.2142900000"	"0.0762700000"	"1"	"41"
n/a	"html-keyboard-response"	"99"	"146345"	"0.0-5.0-2.0-0.23"	"kyydnu"	"657"	"1366"	"chrome"	"109.0.0"	"FALSE"	"Windows 10"	"60.16"	"003"	n/a	n/a	n/a	n/a	n/a	n/a	"fixation"	n/a	n/a	n/a	n/a	"NULL"	n/a	"NULL"	"NULL"	"NULL"	"<p style=\"color: black; font-size: 80px; padding-left: 37%; padding-right: 11%; padding-top: 41%; padding-bottom: 25%\">+</p>"	"1368"	n/a	n/a	n/a	n/a	n/a	n/a	n/a	n/a	n/a
n/a	"image-keyboard-response"	"100"	"146778"	"0.0-5.0-2.0-1.23"	"kyydnu"	"657"	"1366"	"chrome"	"109.0.0"	"FALSE"	"Windows 10"	"60.16"	"003"	n/a	n/a	n/a	n/a	n/a	n/a	"Trial"	n/a	n/a	n/a	"430"	"arrowdown"	n/a	"NULL"	"NULL"	"NULL"	"stimuli/MullerLyer_-2.3000_-0.3500.png"	n/a	"MullerLyer"	"arrowdown"	"1384"	"TRUE"	"MullerLyer"	"-2.300000000"	"-0.350000000"	"1"	"42"
n/a	"html-keyboard-response"	"101"	"147949"	"0.0-5.0-2.0-0.24"	"kyydnu"	"657"	"1366"	"chrome"	"109.0.0"	"FALSE"	"Windows 10"	"60.16"	"003"	n/a	n/a	n/a	n/a	n/a	n/a	"fixation"	n/a	n/a	n/a	n/a	"NULL"	n/a	"NULL"	"NULL"	"NULL"	"<p style=\"color: black; font-size: 80px; padding-left: 16%; padding-right: 13%; padding-top: 9%; padding-bottom: 0%\">+</p>"	"1155"	n/a	n/a	n/a	n/a	n/a	n/a	n/a	n/a	n/a
n/a	"image-keyboard-response"	"102"	"148482"	"0.0-5.0-2.0-1.24"	"kyydnu"	"657"	"1366"	"chrome"	"109.0.0"	"FALSE"	"Windows 10"	"60.16"	"003"	n/a	n/a	n/a	n/a	n/a	n/a	"Trial"	n/a	n/a	n/a	"531"	"arrowup"	n/a	"NULL"	"NULL"	"NULL"	"stimuli/MullerLyer_20.04286_0.23665.png"	n/a	"MullerLyer"	"arrowup"	"1171"	"TRUE"	"MullerLyer"	"20.042860000"	"0.2366500000"	"1"	"43"
n/a	"html-keyboard-response"	"103"	"149610"	"0.0-5.0-2.0-0.25"	"kyydnu"	"657"	"1366"	"chrome"	"109.0.0"	"FALSE"	"Windows 10"	"60.16"	"003"	n/a	n/a	n/a	n/a	n/a	n/a	"fixation"	n/a	n/a	n/a	n/a	"NULL"	n/a	"NULL"	"NULL"	"NULL"	"<p style=\"color: black; font-size: 80px; padding-left: 14%; padding-right: 36%; padding-top: 13%; padding-bottom: 15%\">+</p>"	"1106"	n/a	n/a	n/a	n/a	n/a	n/a	n/a	n/a	n/a
n/a	"image-keyboard-response"	"104"	"150030"	"0.0-5.0-2.0-1.25"	"kyydnu"	"657"	"1366"	"chrome"	"109.0.0"	"FALSE"	"Windows 10"	"60.16"	"003"	n/a	n/a	n/a	n/a	n/a	n/a	"Trial"	n/a	n/a	n/a	"419"	"arrowup"	n/a	"NULL"	"NULL"	"NULL"	"stimuli/MullerLyer_8.21429_0.35000.png"	n/a	"MullerLyer"	"arrowup"	"1128"	"TRUE"	"MullerLyer"	"8.2142900000"	"0.3500000000"	"1"	"44"
n/a	"html-keyboard-response"	"105"	"151111"	"0.0-5.0-2.0-0.26"	"kyydnu"	"657"	"1366"	"chrome"	"109.0.0"	"FALSE"	"Windows 10"	"60.16"	"003"	n/a	n/a	n/a	n/a	n/a	n/a	"fixation"	n/a	n/a	n/a	n/a	"NULL"	n/a	"NULL"	"NULL"	"NULL"	"<p style=\"color: black; font-size: 80px; padding-left: 13%; padding-right: 38%; padding-top: 13%; padding-bottom: 38%\">+</p>"	"1060"	n/a	n/a	n/a	n/a	n/a	n/a	n/a	n/a	n/a
n/a	"image-keyboard-response"	"106"	"151482"	"0.0-5.0-2.0-1.26"	"kyydnu"	"657"	"1366"	"chrome"	"109.0.0"	"FALSE"	"Windows 10"	"60.16"	"003"	n/a	n/a	n/a	n/a	n/a	n/a	"Trial"	n/a	n/a	n/a	"369"	"arrowup"	n/a	"NULL"	"NULL"	"NULL"	"stimuli/MullerLyer_-20.04286_0.14541.png"	n/a	"MullerLyer"	"arrowup"	"1081"	"TRUE"	"MullerLyer"	"-20.04286000"	"0.1454100000"	"1"	"45"
n/a	"html-keyboard-response"	"107"	"152806"	"0.0-5.0-2.0-0.27"	"kyydnu"	"657"	"1366"	"chrome"	"109.0.0"	"FALSE"	"Windows 10"	"60.16"	"003"	n/a	n/a	n/a	n/a	n/a	n/a	"fixation"	n/a	n/a	n/a	n/a	"NULL"	n/a	"NULL"	"NULL"	"NULL"	"<p style=\"color: black; font-size: 80px; padding-left: 3%; padding-right: 44%; padding-top: 31%; padding-bottom: 46%\">+</p>"	"1319"	n/a	n/a	n/a	n/a	n/a	n/a	n/a	n/a	n/a
n/a	"image-keyboard-response"	"108"	"153196"	"0.0-5.0-2.0-1.27"	"kyydnu"	"657"	"1366"	"chrome"	"109.0.0"	"FALSE"	"Windows 10"	"60.16"	"003"	n/a	n/a	n/a	n/a	n/a	n/a	"Trial"	n/a	n/a	n/a	"388"	"arrowup"	n/a	"NULL"	"NULL"	"NULL"	"stimuli/MullerLyer_2.30000_0.35000.png"	n/a	"MullerLyer"	"arrowup"	"1324"	"TRUE"	"MullerLyer"	"2.3000000000"	"0.3500000000"	"1"	"46"
n/a	"html-keyboard-response"	"109"	"154374"	"0.0-5.0-2.0-0.28"	"kyydnu"	"657"	"1366"	"chrome"	"109.0.0"	"FALSE"	"Windows 10"	"60.16"	"003"	n/a	n/a	n/a	n/a	n/a	n/a	"fixation"	n/a	n/a	n/a	n/a	"NULL"	n/a	"NULL"	"NULL"	"NULL"	"<p style=\"color: black; font-size: 80px; padding-left: 37%; padding-right: 1%; padding-top: 34%; padding-bottom: 29%\">+</p>"	"1159"	n/a	n/a	n/a	n/a	n/a	n/a	n/a	n/a	n/a
n/a	"image-keyboard-response"	"110"	"154881"	"0.0-5.0-2.0-1.28"	"kyydnu"	"657"	"1366"	"chrome"	"109.0.0"	"FALSE"	"Windows 10"	"60.16"	"003"	n/a	n/a	n/a	n/a	n/a	n/a	"Trial"	n/a	n/a	n/a	"505"	"arrowdown"	n/a	"NULL"	"NULL"	"NULL"	"stimuli/MullerLyer_-20.04286_-0.07627.png"	n/a	"MullerLyer"	"arrowdown"	"1178"	"TRUE"	"MullerLyer"	"-20.04286000"	"-0.076270000"	"1"	"47"
n/a	"html-keyboard-response"	"111"	"156122"	"0.0-5.0-2.0-0.29"	"kyydnu"	"657"	"1366"	"chrome"	"109.0.0"	"FALSE"	"Windows 10"	"60.16"	"003"	n/a	n/a	n/a	n/a	n/a	n/a	"fixation"	n/a	n/a	n/a	n/a	"NULL"	n/a	"NULL"	"NULL"	"NULL"	"<p style=\"color: black; font-size: 80px; padding-left: 20%; padding-right: 34%; padding-top: 35%; padding-bottom: 10%\">+</p>"	"1216"	n/a	n/a	n/a	n/a	n/a	n/a	n/a	n/a	n/a
n/a	"image-keyboard-response"	"112"	"156511"	"0.0-5.0-2.0-1.29"	"kyydnu"	"657"	"1366"	"chrome"	"109.0.0"	"FALSE"	"Windows 10"	"60.16"	"003"	n/a	n/a	n/a	n/a	n/a	n/a	"Trial"	n/a	n/a	n/a	"387"	"arrowup"	n/a	"NULL"	"NULL"	"NULL"	"stimuli/MullerLyer_20.04286_0.14541.png"	n/a	"MullerLyer"	"arrowup"	"1241"	"TRUE"	"MullerLyer"	"20.042860000"	"0.1454100000"	"1"	"48"
n/a	"html-keyboard-response"	"113"	"157824"	"0.0-5.0-2.0-0.30"	"kyydnu"	"657"	"1366"	"chrome"	"109.0.0"	"FALSE"	"Windows 10"	"60.16"	"003"	n/a	n/a	n/a	n/a	n/a	n/a	"fixation"	n/a	n/a	n/a	n/a	"NULL"	n/a	"NULL"	"NULL"	"NULL"	"<p style=\"color: black; font-size: 80px; padding-left: 21%; padding-right: 32%; padding-top: 36%; padding-bottom: 27%\">+</p>"	"1299"	n/a	n/a	n/a	n/a	n/a	n/a	n/a	n/a	n/a
n/a	"image-keyboard-response"	"114"	"158235"	"0.0-5.0-2.0-1.30"	"kyydnu"	"657"	"1366"	"chrome"	"109.0.0"	"FALSE"	"Windows 10"	"60.16"	"003"	n/a	n/a	n/a	n/a	n/a	n/a	"Trial"	n/a	n/a	n/a	"409"	"arrowup"	n/a	"NULL"	"NULL"	"NULL"	"stimuli/MullerLyer_-14.12857_0.14541.png"	n/a	"MullerLyer"	"arrowup"	"1313"	"TRUE"	"MullerLyer"	"-14.12857000"	"0.1454100000"	"1"	"49"
n/a	"html-keyboard-response"	"115"	"159296"	"0.0-5.0-2.0-0.31"	"kyydnu"	"657"	"1366"	"chrome"	"109.0.0"	"FALSE"	"Windows 10"	"60.16"	"003"	n/a	n/a	n/a	n/a	n/a	n/a	"fixation"	n/a	n/a	n/a	n/a	"NULL"	n/a	"NULL"	"NULL"	"NULL"	"<p style=\"color: black; font-size: 80px; padding-left: 3%; padding-right: 10%; padding-top: 8%; padding-bottom: 11%\">+</p>"	"1051"	n/a	n/a	n/a	n/a	n/a	n/a	n/a	n/a	n/a
n/a	"image-keyboard-response"	"116"	"159813"	"0.0-5.0-2.0-1.31"	"kyydnu"	"657"	"1366"	"chrome"	"109.0.0"	"FALSE"	"Windows 10"	"60.16"	"003"	n/a	n/a	n/a	n/a	n/a	n/a	"Trial"	n/a	n/a	n/a	"515"	"arrowdown"	n/a	"NULL"	"NULL"	"NULL"	"stimuli/MullerLyer_8.21429_-0.23665.png"	n/a	"MullerLyer"	"arrowdown"	"1061"	"TRUE"	"MullerLyer"	"8.2142900000"	"-0.236650000"	"1"	"50"
n/a	"html-keyboard-response"	"117"	"161170"	"0.0-5.0-2.0-0.32"	"kyydnu"	"657"	"1366"	"chrome"	"109.0.0"	"FALSE"	"Windows 10"	"60.16"	"003"	n/a	n/a	n/a	n/a	n/a	n/a	"fixation"	n/a	n/a	n/a	n/a	"NULL"	n/a	"NULL"	"NULL"	"NULL"	"<p style=\"color: black; font-size: 80px; padding-left: 9%; padding-right: 21%; padding-top: 2%; padding-bottom: 46%\">+</p>"	"1345"	n/a	n/a	n/a	n/a	n/a	n/a	n/a	n/a	n/a
n/a	"image-keyboard-response"	"118"	"161688"	"0.0-5.0-2.0-1.32"	"kyydnu"	"657"	"1366"	"chrome"	"109.0.0"	"FALSE"	"Windows 10"	"60.16"	"003"	n/a	n/a	n/a	n/a	n/a	n/a	"Trial"	n/a	n/a	n/a	"516"	"arrowdown"	n/a	"NULL"	"NULL"	"NULL"	"stimuli/MullerLyer_8.21429_-0.3500.png"	n/a	"MullerLyer"	"arrowdown"	"1357"	"TRUE"	"MullerLyer"	"8.2142900000"	"-0.350000000"	"1"	"51"
n/a	"html-keyboard-response"	"119"	"163006"	"0.0-5.0-2.0-0.33"	"kyydnu"	"657"	"1366"	"chrome"	"109.0.0"	"FALSE"	"Windows 10"	"60.16"	"003"	n/a	n/a	n/a	n/a	n/a	n/a	"fixation"	n/a	n/a	n/a	n/a	"NULL"	n/a	"NULL"	"NULL"	"NULL"	"<p style=\"color: black; font-size: 80px; padding-left: 47%; padding-right: 25%; padding-top: 34%; padding-bottom: 1%\">+</p>"	"1297"	n/a	n/a	n/a	n/a	n/a	n/a	n/a	n/a	n/a
n/a	"image-keyboard-response"	"120"	"163392"	"0.0-5.0-2.0-1.33"	"kyydnu"	"657"	"1366"	"chrome"	"109.0.0"	"FALSE"	"Windows 10"	"60.16"	"003"	n/a	n/a	n/a	n/a	n/a	n/a	"Trial"	n/a	n/a	n/a	"384"	"arrowup"	n/a	"NULL"	"NULL"	"NULL"	"stimuli/MullerLyer_-14.12857_0.23665.png"	n/a	"MullerLyer"	"arrowup"	"1318"	"TRUE"	"MullerLyer"	"-14.12857000"	"0.2366500000"	"1"	"52"
n/a	"html-keyboard-response"	"121"	"164901"	"0.0-5.0-2.0-0.34"	"kyydnu"	"657"	"1366"	"chrome"	"109.0.0"	"FALSE"	"Windows 10"	"60.16"	"003"	n/a	n/a	n/a	n/a	n/a	n/a	"fixation"	n/a	n/a	n/a	n/a	"NULL"	n/a	"NULL"	"NULL"	"NULL"	"<p style=\"color: black; font-size: 80px; padding-left: 14%; padding-right: 31%; padding-top: 43%; padding-bottom: 15%\">+</p>"	"1493"	n/a	n/a	n/a	n/a	n/a	n/a	n/a	n/a	n/a
n/a	"image-keyboard-response"	"122"	"165388"	"0.0-5.0-2.0-1.34"	"kyydnu"	"657"	"1366"	"chrome"	"109.0.0"	"FALSE"	"Windows 10"	"60.16"	"003"	n/a	n/a	n/a	n/a	n/a	n/a	"Trial"	n/a	n/a	n/a	"485"	"arrowdown"	n/a	"NULL"	"NULL"	"NULL"	"stimuli/MullerLyer_14.12857_-0.3500.png"	n/a	"MullerLyer"	"arrowdown"	"1509"	"TRUE"	"MullerLyer"	"14.128570000"	"-0.350000000"	"1"	"53"
n/a	"html-keyboard-response"	"123"	"166867"	"0.0-5.0-2.0-0.35"	"kyydnu"	"657"	"1366"	"chrome"	"109.0.0"	"FALSE"	"Windows 10"	"60.16"	"003"	n/a	n/a	n/a	n/a	n/a	n/a	"fixation"	n/a	n/a	n/a	n/a	"NULL"	n/a	"NULL"	"NULL"	"NULL"	"<p style=\"color: black; font-size: 80px; padding-left: 20%; padding-right: 12%; padding-top: 13%; padding-bottom: 37%\">+</p>"	"1462"	n/a	n/a	n/a	n/a	n/a	n/a	n/a	n/a	n/a
n/a	"image-keyboard-response"	"124"	"167260"	"0.0-5.0-2.0-1.35"	"kyydnu"	"657"	"1366"	"chrome"	"109.0.0"	"FALSE"	"Windows 10"	"60.16"	"003"	n/a	n/a	n/a	n/a	n/a	n/a	"Trial"	n/a	n/a	n/a	"391"	"arrowup"	n/a	"NULL"	"NULL"	"NULL"	"stimuli/MullerLyer_20.04286_-0.3500.png"	n/a	"MullerLyer"	"arrowdown"	"1479"	"FALSE"	"MullerLyer"	"20.042860000"	"-0.350000000"	"1"	"54"
n/a	"html-keyboard-response"	"125"	"168645"	"0.0-5.0-2.0-0.36"	"kyydnu"	"657"	"1366"	"chrome"	"109.0.0"	"FALSE"	"Windows 10"	"60.16"	"003"	n/a	n/a	n/a	n/a	n/a	n/a	"fixation"	n/a	n/a	n/a	n/a	"NULL"	n/a	"NULL"	"NULL"	"NULL"	"<p style=\"color: black; font-size: 80px; padding-left: 7%; padding-right: 3%; padding-top: 10%; padding-bottom: 26%\">+</p>"	"1374"	n/a	n/a	n/a	n/a	n/a	n/a	n/a	n/a	n/a
n/a	"image-keyboard-response"	"126"	"169169"	"0.0-5.0-2.0-1.36"	"kyydnu"	"657"	"1366"	"chrome"	"109.0.0"	"FALSE"	"Windows 10"	"60.16"	"003"	n/a	n/a	n/a	n/a	n/a	n/a	"Trial"	n/a	n/a	n/a	"522"	"arrowup"	n/a	"NULL"	"NULL"	"NULL"	"stimuli/MullerLyer_2.30000_0.14541.png"	n/a	"MullerLyer"	"arrowup"	"1385"	"TRUE"	"MullerLyer"	"2.3000000000"	"0.1454100000"	"1"	"55"
n/a	"html-keyboard-response"	"127"	"170637"	"0.0-5.0-2.0-0.37"	"kyydnu"	"657"	"1366"	"chrome"	"109.0.0"	"FALSE"	"Windows 10"	"60.16"	"003"	n/a	n/a	n/a	n/a	n/a	n/a	"fixation"	n/a	n/a	n/a	n/a	"NULL"	n/a	"NULL"	"NULL"	"NULL"	"<p style=\"color: black; font-size: 80px; padding-left: 23%; padding-right: 48%; padding-top: 34%; padding-bottom: 8%\">+</p>"	"1452"	n/a	n/a	n/a	n/a	n/a	n/a	n/a	n/a	n/a
n/a	"image-keyboard-response"	"128"	"171073"	"0.0-5.0-2.0-1.37"	"kyydnu"	"657"	"1366"	"chrome"	"109.0.0"	"FALSE"	"Windows 10"	"60.16"	"003"	n/a	n/a	n/a	n/a	n/a	n/a	"Trial"	n/a	n/a	n/a	"435"	"arrowup"	n/a	"NULL"	"NULL"	"NULL"	"stimuli/MullerLyer_14.12857_-0.07627.png"	n/a	"MullerLyer"	"arrowdown"	"1468"	"FALSE"	"MullerLyer"	"14.128570000"	"-0.076270000"	"1"	"56"
n/a	"html-keyboard-response"	"129"	"172194"	"0.0-5.0-2.0-0.38"	"kyydnu"	"657"	"1366"	"chrome"	"109.0.0"	"FALSE"	"Windows 10"	"60.16"	"003"	n/a	n/a	n/a	n/a	n/a	n/a	"fixation"	n/a	n/a	n/a	n/a	"NULL"	n/a	"NULL"	"NULL"	"NULL"	"<p style=\"color: black; font-size: 80px; padding-left: 23%; padding-right: 22%; padding-top: 11%; padding-bottom: 15%\">+</p>"	"1100"	n/a	n/a	n/a	n/a	n/a	n/a	n/a	n/a	n/a
n/a	"image-keyboard-response"	"130"	"172700"	"0.0-5.0-2.0-1.38"	"kyydnu"	"657"	"1366"	"chrome"	"109.0.0"	"FALSE"	"Windows 10"	"60.16"	"003"	n/a	n/a	n/a	n/a	n/a	n/a	"Trial"	n/a	n/a	n/a	"505"	"arrowup"	n/a	"NULL"	"NULL"	"NULL"	"stimuli/MullerLyer_2.30000_0.07627.png"	n/a	"MullerLyer"	"arrowup"	"1121"	"TRUE"	"MullerLyer"	"2.3000000000"	"0.0762700000"	"1"	"57"
n/a	"html-keyboard-response"	"131"	"173914"	"0.0-5.0-2.0-0.39"	"kyydnu"	"657"	"1366"	"chrome"	"109.0.0"	"FALSE"	"Windows 10"	"60.16"	"003"	n/a	n/a	n/a	n/a	n/a	n/a	"fixation"	n/a	n/a	n/a	n/a	"NULL"	n/a	"NULL"	"NULL"	"NULL"	"<p style=\"color: black; font-size: 80px; padding-left: 40%; padding-right: 7%; padding-top: 40%; padding-bottom: 12%\">+</p>"	"1192"	n/a	n/a	n/a	n/a	n/a	n/a	n/a	n/a	n/a
n/a	"image-keyboard-response"	"132"	"174340"	"0.0-5.0-2.0-1.39"	"kyydnu"	"657"	"1366"	"chrome"	"109.0.0"	"FALSE"	"Windows 10"	"60.16"	"003"	n/a	n/a	n/a	n/a	n/a	n/a	"Trial"	n/a	n/a	n/a	"424"	"arrowup"	n/a	"NULL"	"NULL"	"NULL"	"stimuli/MullerLyer_-20.04286_0.07627.png"	n/a	"MullerLyer"	"arrowup"	"1214"	"TRUE"	"MullerLyer"	"-20.04286000"	"0.0762700000"	"1"	"58"
n/a	"html-keyboard-response"	"133"	"175548"	"0.0-5.0-2.0-0.40"	"kyydnu"	"657"	"1366"	"chrome"	"109.0.0"	"FALSE"	"Windows 10"	"60.16"	"003"	n/a	n/a	n/a	n/a	n/a	n/a	"fixation"	n/a	n/a	n/a	n/a	"NULL"	n/a	"NULL"	"NULL"	"NULL"	"<p style=\"color: black; font-size: 80px; padding-left: 10%; padding-right: 33%; padding-top: 3%; padding-bottom: 33%\">+</p>"	"1199"	n/a	n/a	n/a	n/a	n/a	n/a	n/a	n/a	n/a
n/a	"image-keyboard-response"	"134"	"175964"	"0.0-5.0-2.0-1.40"	"kyydnu"	"657"	"1366"	"chrome"	"109.0.0"	"FALSE"	"Windows 10"	"60.16"	"003"	n/a	n/a	n/a	n/a	n/a	n/a	"Trial"	n/a	n/a	n/a	"414"	"arrowup"	n/a	"NULL"	"NULL"	"NULL"	"stimuli/MullerLyer_-8.21429_0.23665.png"	n/a	"MullerLyer"	"arrowup"	"1208"	"TRUE"	"MullerLyer"	"-8.214290000"	"0.2366500000"	"1"	"59"
n/a	"html-keyboard-response"	"135"	"177412"	"0.0-5.0-2.0-0.41"	"kyydnu"	"657"	"1366"	"chrome"	"109.0.0"	"FALSE"	"Windows 10"	"60.16"	"003"	n/a	n/a	n/a	n/a	n/a	n/a	"fixation"	n/a	n/a	n/a	n/a	"NULL"	n/a	"NULL"	"NULL"	"NULL"	"<p style=\"color: black; font-size: 80px; padding-left: 30%; padding-right: 38%; padding-top: 49%; padding-bottom: 47%\">+</p>"	"1432"	n/a	n/a	n/a	n/a	n/a	n/a	n/a	n/a	n/a
n/a	"image-keyboard-response"	"136"	"177918"	"0.0-5.0-2.0-1.41"	"kyydnu"	"657"	"1366"	"chrome"	"109.0.0"	"FALSE"	"Windows 10"	"60.16"	"003"	n/a	n/a	n/a	n/a	n/a	n/a	"Trial"	n/a	n/a	n/a	"503"	"arrowdown"	n/a	"NULL"	"NULL"	"NULL"	"stimuli/MullerLyer_-2.3000_-0.07627.png"	n/a	"MullerLyer"	"arrowdown"	"1448"	"TRUE"	"MullerLyer"	"-2.300000000"	"-0.076270000"	"1"	"60"
n/a	"html-keyboard-response"	"137"	"179279"	"0.0-5.0-2.0-0.42"	"kyydnu"	"657"	"1366"	"chrome"	"109.0.0"	"FALSE"	"Windows 10"	"60.16"	"003"	n/a	n/a	n/a	n/a	n/a	n/a	"fixation"	n/a	n/a	n/a	n/a	"NULL"	n/a	"NULL"	"NULL"	"NULL"	"<p style=\"color: black; font-size: 80px; padding-left: 12%; padding-right: 20%; padding-top: 22%; padding-bottom: 30%\">+</p>"	"1345"	n/a	n/a	n/a	n/a	n/a	n/a	n/a	n/a	n/a
n/a	"image-keyboard-response"	"138"	"179718"	"0.0-5.0-2.0-1.42"	"kyydnu"	"657"	"1366"	"chrome"	"109.0.0"	"FALSE"	"Windows 10"	"60.16"	"003"	n/a	n/a	n/a	n/a	n/a	n/a	"Trial"	n/a	n/a	n/a	"437"	"arrowup"	n/a	"NULL"	"NULL"	"NULL"	"stimuli/MullerLyer_-14.12857_0.07627.png"	n/a	"MullerLyer"	"arrowup"	"1361"	"TRUE"	"MullerLyer"	"-14.12857000"	"0.0762700000"	"1"	"61"
n/a	"html-keyboard-response"	"139"	"180863"	"0.0-5.0-2.0-0.43"	"kyydnu"	"657"	"1366"	"chrome"	"109.0.0"	"FALSE"	"Windows 10"	"60.16"	"003"	n/a	n/a	n/a	n/a	n/a	n/a	"fixation"	n/a	n/a	n/a	n/a	"NULL"	n/a	"NULL"	"NULL"	"NULL"	"<p style=\"color: black; font-size: 80px; padding-left: 25%; padding-right: 40%; padding-top: 40%; padding-bottom: 22%\">+</p>"	"1136"	n/a	n/a	n/a	n/a	n/a	n/a	n/a	n/a	n/a
n/a	"image-keyboard-response"	"140"	"181512"	"0.0-5.0-2.0-1.43"	"kyydnu"	"657"	"1366"	"chrome"	"109.0.0"	"FALSE"	"Windows 10"	"60.16"	"003"	n/a	n/a	n/a	n/a	n/a	n/a	"Trial"	n/a	n/a	n/a	"647"	"arrowdown"	n/a	"NULL"	"NULL"	"NULL"	"stimuli/MullerLyer_20.04286_-0.23665.png"	n/a	"MullerLyer"	"arrowdown"	"1145"	"TRUE"	"MullerLyer"	"20.042860000"	"-0.236650000"	"1"	"62"
n/a	"html-keyboard-response"	"141"	"182816"	"0.0-5.0-2.0-0.44"	"kyydnu"	"657"	"1366"	"chrome"	"109.0.0"	"FALSE"	"Windows 10"	"60.16"	"003"	n/a	n/a	n/a	n/a	n/a	n/a	"fixation"	n/a	n/a	n/a	n/a	"NULL"	n/a	"NULL"	"NULL"	"NULL"	"<p style=\"color: black; font-size: 80px; padding-left: 6%; padding-right: 40%; padding-top: 27%; padding-bottom: 1%\">+</p>"	"1286"	n/a	n/a	n/a	n/a	n/a	n/a	n/a	n/a	n/a
n/a	"image-keyboard-response"	"142"	"183262"	"0.0-5.0-2.0-1.44"	"kyydnu"	"657"	"1366"	"chrome"	"109.0.0"	"FALSE"	"Windows 10"	"60.16"	"003"	n/a	n/a	n/a	n/a	n/a	n/a	"Trial"	n/a	n/a	n/a	"445"	"arrowup"	n/a	"NULL"	"NULL"	"NULL"	"stimuli/MullerLyer_8.21429_0.23665.png"	n/a	"MullerLyer"	"arrowup"	"1304"	"TRUE"	"MullerLyer"	"8.2142900000"	"0.2366500000"	"1"	"63"
n/a	"html-keyboard-response"	"143"	"184458"	"0.0-5.0-2.0-0.45"	"kyydnu"	"657"	"1366"	"chrome"	"109.0.0"	"FALSE"	"Windows 10"	"60.16"	"003"	n/a	n/a	n/a	n/a	n/a	n/a	"fixation"	n/a	n/a	n/a	n/a	"NULL"	n/a	"NULL"	"NULL"	"NULL"	"<p style=\"color: black; font-size: 80px; padding-left: 32%; padding-right: 13%; padding-top: 45%; padding-bottom: 37%\">+</p>"	"1172"	n/a	n/a	n/a	n/a	n/a	n/a	n/a	n/a	n/a
n/a	"image-keyboard-response"	"144"	"184933"	"0.0-5.0-2.0-1.45"	"kyydnu"	"657"	"1366"	"chrome"	"109.0.0"	"FALSE"	"Windows 10"	"60.16"	"003"	n/a	n/a	n/a	n/a	n/a	n/a	"Trial"	n/a	n/a	n/a	"473"	"arrowdown"	n/a	"NULL"	"NULL"	"NULL"	"stimuli/MullerLyer_-20.04286_-0.23665.png"	n/a	"MullerLyer"	"arrowdown"	"1196"	"TRUE"	"MullerLyer"	"-20.04286000"	"-0.236650000"	"1"	"64"
n/a	"html-keyboard-response"	"145"	"186181"	"0.0-5.0-2.0-0.46"	"kyydnu"	"657"	"1366"	"chrome"	"109.0.0"	"FALSE"	"Windows 10"	"60.16"	"003"	n/a	n/a	n/a	n/a	n/a	n/a	"fixation"	n/a	n/a	n/a	n/a	"NULL"	n/a	"NULL"	"NULL"	"NULL"	"<p style=\"color: black; font-size: 80px; padding-left: 44%; padding-right: 2%; padding-top: 10%; padding-bottom: 40%\">+</p>"	"1236"	n/a	n/a	n/a	n/a	n/a	n/a	n/a	n/a	n/a
n/a	"image-keyboard-response"	"146"	"186598"	"0.0-5.0-2.0-1.46"	"kyydnu"	"657"	"1366"	"chrome"	"109.0.0"	"FALSE"	"Windows 10"	"60.16"	"003"	n/a	n/a	n/a	n/a	n/a	n/a	"Trial"	n/a	n/a	n/a	"416"	"arrowup"	n/a	"NULL"	"NULL"	"NULL"	"stimuli/MullerLyer_14.12857_0.23665.png"	n/a	"MullerLyer"	"arrowup"	"1248"	"TRUE"	"MullerLyer"	"14.128570000"	"0.2366500000"	"1"	"65"
n/a	"html-keyboard-response"	"147"	"187653"	"0.0-5.0-2.0-0.47"	"kyydnu"	"657"	"1366"	"chrome"	"109.0.0"	"FALSE"	"Windows 10"	"60.16"	"003"	n/a	n/a	n/a	n/a	n/a	n/a	"fixation"	n/a	n/a	n/a	n/a	"NULL"	n/a	"NULL"	"NULL"	"NULL"	"<p style=\"color: black; font-size: 80px; padding-left: 31%; padding-right: 14%; padding-top: 27%; padding-bottom: 22%\">+</p>"	"1037"	n/a	n/a	n/a	n/a	n/a	n/a	n/a	n/a	n/a
n/a	"image-keyboard-response"	"148"	"188165"	"0.0-5.0-2.0-1.47"	"kyydnu"	"657"	"1366"	"chrome"	"109.0.0"	"FALSE"	"Windows 10"	"60.16"	"003"	n/a	n/a	n/a	n/a	n/a	n/a	"Trial"	n/a	n/a	n/a	"511"	"arrowup"	n/a	"NULL"	"NULL"	"NULL"	"stimuli/MullerLyer_14.12857_0.35000.png"	n/a	"MullerLyer"	"arrowup"	"1055"	"TRUE"	"MullerLyer"	"14.128570000"	"0.3500000000"	"1"	"66"
n/a	"html-keyboard-response"	"149"	"189423"	"0.0-5.0-2.0-0.48"	"kyydnu"	"657"	"1366"	"chrome"	"109.0.0"	"FALSE"	"Windows 10"	"60.16"	"003"	n/a	n/a	n/a	n/a	n/a	n/a	"fixation"	n/a	n/a	n/a	n/a	"NULL"	n/a	"NULL"	"NULL"	"NULL"	"<p style=\"color: black; font-size: 80px; padding-left: 45%; padding-right: 39%; padding-top: 34%; padding-bottom: 44%\">+</p>"	"1250"	n/a	n/a	n/a	n/a	n/a	n/a	n/a	n/a	n/a
n/a	"image-keyboard-response"	"150"	"189940"	"0.0-5.0-2.0-1.48"	"kyydnu"	"657"	"1366"	"chrome"	"109.0.0"	"FALSE"	"Windows 10"	"60.16"	"003"	n/a	n/a	n/a	n/a	n/a	n/a	"Trial"	n/a	n/a	n/a	"515"	"arrowdown"	n/a	"NULL"	"NULL"	"NULL"	"stimuli/MullerLyer_-8.21429_-0.3500.png"	n/a	"MullerLyer"	"arrowdown"	"1258"	"TRUE"	"MullerLyer"	"-8.214290000"	"-0.350000000"	"1"	"67"
n/a	"html-keyboard-response"	"151"	"191211"	"0.0-5.0-2.0-0.49"	"kyydnu"	"657"	"1366"	"chrome"	"109.0.0"	"FALSE"	"Windows 10"	"60.16"	"003"	n/a	n/a	n/a	n/a	n/a	n/a	"fixation"	n/a	n/a	n/a	n/a	"NULL"	n/a	"NULL"	"NULL"	"NULL"	"<p style=\"color: black; font-size: 80px; padding-left: 48%; padding-right: 49%; padding-top: 28%; padding-bottom: 39%\">+</p>"	"1245"	n/a	n/a	n/a	n/a	n/a	n/a	n/a	n/a	n/a
n/a	"image-keyboard-response"	"152"	"191612"	"0.0-5.0-2.0-1.49"	"kyydnu"	"657"	"1366"	"chrome"	"109.0.0"	"FALSE"	"Windows 10"	"60.16"	"003"	n/a	n/a	n/a	n/a	n/a	n/a	"Trial"	n/a	n/a	n/a	"400"	"arrowup"	n/a	"NULL"	"NULL"	"NULL"	"stimuli/MullerLyer_-8.21429_0.07627.png"	n/a	"MullerLyer"	"arrowup"	"1271"	"TRUE"	"MullerLyer"	"-8.214290000"	"0.0762700000"	"1"	"68"
n/a	"html-keyboard-response"	"153"	"193109"	"0.0-5.0-2.0-0.50"	"kyydnu"	"657"	"1366"	"chrome"	"109.0.0"	"FALSE"	"Windows 10"	"60.16"	"003"	n/a	n/a	n/a	n/a	n/a	n/a	"fixation"	n/a	n/a	n/a	n/a	"NULL"	n/a	"NULL"	"NULL"	"NULL"	"<p style=\"color: black; font-size: 80px; padding-left: 24%; padding-right: 35%; padding-top: 2%; padding-bottom: 32%\">+</p>"	"1480"	n/a	n/a	n/a	n/a	n/a	n/a	n/a	n/a	n/a
n/a	"image-keyboard-response"	"154"	"193648"	"0.0-5.0-2.0-1.50"	"kyydnu"	"657"	"1366"	"chrome"	"109.0.0"	"FALSE"	"Windows 10"	"60.16"	"003"	n/a	n/a	n/a	n/a	n/a	n/a	"Trial"	n/a	n/a	n/a	"536"	"arrowdown"	n/a	"NULL"	"NULL"	"NULL"	"stimuli/MullerLyer_-2.3000_-0.23665.png"	n/a	"MullerLyer"	"arrowdown"	"1497"	"TRUE"	"MullerLyer"	"-2.300000000"	"-0.236650000"	"1"	"69"
n/a	"html-keyboard-response"	"155"	"194958"	"0.0-5.0-2.0-0.51"	"kyydnu"	"657"	"1366"	"chrome"	"109.0.0"	"FALSE"	"Windows 10"	"60.16"	"003"	n/a	n/a	n/a	n/a	n/a	n/a	"fixation"	n/a	n/a	n/a	n/a	"NULL"	n/a	"NULL"	"NULL"	"NULL"	"<p style=\"color: black; font-size: 80px; padding-left: 25%; padding-right: 7%; padding-top: 14%; padding-bottom: 28%\">+</p>"	"1303"	n/a	n/a	n/a	n/a	n/a	n/a	n/a	n/a	n/a
n/a	"image-keyboard-response"	"156"	"195391"	"0.0-5.0-2.0-1.51"	"kyydnu"	"657"	"1366"	"chrome"	"109.0.0"	"FALSE"	"Windows 10"	"60.16"	"003"	n/a	n/a	n/a	n/a	n/a	n/a	"Trial"	n/a	n/a	n/a	"431"	"arrowup"	n/a	"NULL"	"NULL"	"NULL"	"stimuli/MullerLyer_-14.12857_0.35000.png"	n/a	"MullerLyer"	"arrowup"	"1310"	"TRUE"	"MullerLyer"	"-14.12857000"	"0.3500000000"	"1"	"70"
n/a	"html-keyboard-response"	"157"	"196857"	"0.0-5.0-2.0-0.52"	"kyydnu"	"657"	"1366"	"chrome"	"109.0.0"	"FALSE"	"Windows 10"	"60.16"	"003"	n/a	n/a	n/a	n/a	n/a	n/a	"fixation"	n/a	n/a	n/a	n/a	"NULL"	n/a	"NULL"	"NULL"	"NULL"	"<p style=\"color: black; font-size: 80px; padding-left: 30%; padding-right: 40%; padding-top: 45%; padding-bottom: 6%\">+</p>"	"1445"	n/a	n/a	n/a	n/a	n/a	n/a	n/a	n/a	n/a
n/a	"image-keyboard-response"	"158"	"197396"	"0.0-5.0-2.0-1.52"	"kyydnu"	"657"	"1366"	"chrome"	"109.0.0"	"FALSE"	"Windows 10"	"60.16"	"003"	n/a	n/a	n/a	n/a	n/a	n/a	"Trial"	n/a	n/a	n/a	"538"	"arrowup"	n/a	"NULL"	"NULL"	"NULL"	"stimuli/MullerLyer_20.04286_-0.14541.png"	n/a	"MullerLyer"	"arrowdown"	"1466"	"FALSE"	"MullerLyer"	"20.042860000"	"-0.145410000"	"1"	"71"
n/a	"html-keyboard-response"	"159"	"198646"	"0.0-5.0-2.0-0.53"	"kyydnu"	"657"	"1366"	"chrome"	"109.0.0"	"FALSE"	"Windows 10"	"60.16"	"003"	n/a	n/a	n/a	n/a	n/a	n/a	"fixation"	n/a	n/a	n/a	n/a	"NULL"	n/a	"NULL"	"NULL"	"NULL"	"<p style=\"color: black; font-size: 80px; padding-left: 3%; padding-right: 45%; padding-top: 8%; padding-bottom: 40%\">+</p>"	"1241"	n/a	n/a	n/a	n/a	n/a	n/a	n/a	n/a	n/a
n/a	"image-keyboard-response"	"160"	"199268"	"0.0-5.0-2.0-1.53"	"kyydnu"	"657"	"1366"	"chrome"	"109.0.0"	"FALSE"	"Windows 10"	"60.16"	"003"	n/a	n/a	n/a	n/a	n/a	n/a	"Trial"	n/a	n/a	n/a	"620"	"arrowup"	n/a	"NULL"	"NULL"	"NULL"	"stimuli/MullerLyer_14.12857_-0.14541.png"	n/a	"MullerLyer"	"arrowdown"	"1250"	"FALSE"	"MullerLyer"	"14.128570000"	"-0.145410000"	"1"	"72"
n/a	"html-keyboard-response"	"161"	"200682"	"0.0-5.0-2.0-0.54"	"kyydnu"	"657"	"1366"	"chrome"	"109.0.0"	"FALSE"	"Windows 10"	"60.16"	"003"	n/a	n/a	n/a	n/a	n/a	n/a	"fixation"	n/a	n/a	n/a	n/a	"NULL"	n/a	"NULL"	"NULL"	"NULL"	"<p style=\"color: black; font-size: 80px; padding-left: 37%; padding-right: 28%; padding-top: 27%; padding-bottom: 38%\">+</p>"	"1400"	n/a	n/a	n/a	n/a	n/a	n/a	n/a	n/a	n/a
n/a	"image-keyboard-response"	"162"	"201205"	"0.0-5.0-2.0-1.54"	"kyydnu"	"657"	"1366"	"chrome"	"109.0.0"	"FALSE"	"Windows 10"	"60.16"	"003"	n/a	n/a	n/a	n/a	n/a	n/a	"Trial"	n/a	n/a	n/a	"521"	"arrowdown"	n/a	"NULL"	"NULL"	"NULL"	"stimuli/MullerLyer_-8.21429_-0.23665.png"	n/a	"MullerLyer"	"arrowdown"	"1414"	"TRUE"	"MullerLyer"	"-8.214290000"	"-0.236650000"	"1"	"73"
n/a	"html-keyboard-response"	"163"	"202528"	"0.0-5.0-2.0-0.55"	"kyydnu"	"657"	"1366"	"chrome"	"109.0.0"	"FALSE"	"Windows 10"	"60.16"	"003"	n/a	n/a	n/a	n/a	n/a	n/a	"fixation"	n/a	n/a	n/a	n/a	"NULL"	n/a	"NULL"	"NULL"	"NULL"	"<p style=\"color: black; font-size: 80px; padding-left: 29%; padding-right: 15%; padding-top: 21%; padding-bottom: 21%\">+</p>"	"1307"	n/a	n/a	n/a	n/a	n/a	n/a	n/a	n/a	n/a
n/a	"image-keyboard-response"	"164"	"202996"	"0.0-5.0-2.0-1.55"	"kyydnu"	"657"	"1366"	"chrome"	"109.0.0"	"FALSE"	"Windows 10"	"60.16"	"003"	n/a	n/a	n/a	n/a	n/a	n/a	"Trial"	n/a	n/a	n/a	"467"	"arrowdown"	n/a	"NULL"	"NULL"	"NULL"	"stimuli/MullerLyer_-20.04286_-0.3500.png"	n/a	"MullerLyer"	"arrowdown"	"1323"	"TRUE"	"MullerLyer"	"-20.04286000"	"-0.350000000"	"1"	"74"
n/a	"html-keyboard-response"	"165"	"204034"	"0.0-5.0-2.0-0.56"	"kyydnu"	"657"	"1366"	"chrome"	"109.0.0"	"FALSE"	"Windows 10"	"60.16"	"003"	n/a	n/a	n/a	n/a	n/a	n/a	"fixation"	n/a	n/a	n/a	n/a	"NULL"	n/a	"NULL"	"NULL"	"NULL"	"<p style=\"color: black; font-size: 80px; padding-left: 25%; padding-right: 7%; padding-top: 41%; padding-bottom: 23%\">+</p>"	"1006"	n/a	n/a	n/a	n/a	n/a	n/a	n/a	n/a	n/a
n/a	"image-keyboard-response"	"166"	"204542"	"0.0-5.0-2.0-1.56"	"kyydnu"	"657"	"1366"	"chrome"	"109.0.0"	"FALSE"	"Windows 10"	"60.16"	"003"	n/a	n/a	n/a	n/a	n/a	n/a	"Trial"	n/a	n/a	n/a	"506"	"arrowdown"	n/a	"NULL"	"NULL"	"NULL"	"stimuli/MullerLyer_-14.12857_-0.07627.png"	n/a	"MullerLyer"	"arrowdown"	"1038"	"TRUE"	"MullerLyer"	"-14.12857000"	"-0.076270000"	"1"	"75"
n/a	"html-keyboard-response"	"167"	"205942"	"0.0-5.0-2.0-0.57"	"kyydnu"	"657"	"1366"	"chrome"	"109.0.0"	"FALSE"	"Windows 10"	"60.16"	"003"	n/a	n/a	n/a	n/a	n/a	n/a	"fixation"	n/a	n/a	n/a	n/a	"NULL"	n/a	"NULL"	"NULL"	"NULL"	"<p style=\"color: black; font-size: 80px; padding-left: 16%; padding-right: 45%; padding-top: 44%; padding-bottom: 20%\">+</p>"	"1390"	n/a	n/a	n/a	n/a	n/a	n/a	n/a	n/a	n/a
n/a	"image-keyboard-response"	"168"	"206516"	"0.0-5.0-2.0-1.57"	"kyydnu"	"657"	"1366"	"chrome"	"109.0.0"	"FALSE"	"Windows 10"	"60.16"	"003"	n/a	n/a	n/a	n/a	n/a	n/a	"Trial"	n/a	n/a	n/a	"572"	"arrowdown"	n/a	"NULL"	"NULL"	"NULL"	"stimuli/MullerLyer_-8.21429_-0.07627.png"	n/a	"MullerLyer"	"arrowdown"	"1400"	"TRUE"	"MullerLyer"	"-8.214290000"	"-0.076270000"	"1"	"76"
n/a	"html-keyboard-response"	"169"	"207852"	"0.0-5.0-2.0-0.58"	"kyydnu"	"657"	"1366"	"chrome"	"109.0.0"	"FALSE"	"Windows 10"	"60.16"	"003"	n/a	n/a	n/a	n/a	n/a	n/a	"fixation"	n/a	n/a	n/a	n/a	"NULL"	n/a	"NULL"	"NULL"	"NULL"	"<p style=\"color: black; font-size: 80px; padding-left: 35%; padding-right: 15%; padding-top: 22%; padding-bottom: 49%\">+</p>"	"1327"	n/a	n/a	n/a	n/a	n/a	n/a	n/a	n/a	n/a
n/a	"image-keyboard-response"	"170"	"208565"	"0.0-5.0-2.0-1.58"	"kyydnu"	"657"	"1366"	"chrome"	"109.0.0"	"FALSE"	"Windows 10"	"60.16"	"003"	n/a	n/a	n/a	n/a	n/a	n/a	"Trial"	n/a	n/a	n/a	"711"	"arrowdown"	n/a	"NULL"	"NULL"	"NULL"	"stimuli/MullerLyer_14.12857_0.14541.png"	n/a	"MullerLyer"	"arrowup"	"1336"	"FALSE"	"MullerLyer"	"14.128570000"	"0.1454100000"	"1"	"77"
n/a	"html-keyboard-response"	"171"	"209616"	"0.0-5.0-2.0-0.59"	"kyydnu"	"657"	"1366"	"chrome"	"109.0.0"	"FALSE"	"Windows 10"	"60.16"	"003"	n/a	n/a	n/a	n/a	n/a	n/a	"fixation"	n/a	n/a	n/a	n/a	"NULL"	n/a	"NULL"	"NULL"	"NULL"	"<p style=\"color: black; font-size: 80px; padding-left: 35%; padding-right: 43%; padding-top: 24%; padding-bottom: 1%\">+</p>"	"1044"	n/a	n/a	n/a	n/a	n/a	n/a	n/a	n/a	n/a
n/a	"image-keyboard-response"	"172"	"210189"	"0.0-5.0-2.0-1.59"	"kyydnu"	"657"	"1366"	"chrome"	"109.0.0"	"FALSE"	"Windows 10"	"60.16"	"003"	n/a	n/a	n/a	n/a	n/a	n/a	"Trial"	n/a	n/a	n/a	"572"	"arrowdown"	n/a	"NULL"	"NULL"	"NULL"	"stimuli/MullerLyer_2.30000_-0.14541.png"	n/a	"MullerLyer"	"arrowdown"	"1051"	"TRUE"	"MullerLyer"	"2.3000000000"	"-0.145410000"	"1"	"78"
n/a	"html-keyboard-response"	"173"	"211676"	"0.0-5.0-2.0-0.60"	"kyydnu"	"657"	"1366"	"chrome"	"109.0.0"	"FALSE"	"Windows 10"	"60.16"	"003"	n/a	n/a	n/a	n/a	n/a	n/a	"fixation"	n/a	n/a	n/a	n/a	"NULL"	n/a	"NULL"	"NULL"	"NULL"	"<p style=\"color: black; font-size: 80px; padding-left: 20%; padding-right: 24%; padding-top: 43%; padding-bottom: 21%\">+</p>"	"1472"	n/a	n/a	n/a	n/a	n/a	n/a	n/a	n/a	n/a
n/a	"image-keyboard-response"	"174"	"212346"	"0.0-5.0-2.0-1.60"	"kyydnu"	"657"	"1366"	"chrome"	"109.0.0"	"FALSE"	"Windows 10"	"60.16"	"003"	n/a	n/a	n/a	n/a	n/a	n/a	"Trial"	n/a	n/a	n/a	"668"	"arrowup"	n/a	"NULL"	"NULL"	"NULL"	"stimuli/MullerLyer_14.12857_0.07627.png"	n/a	"MullerLyer"	"arrowup"	"1487"	"TRUE"	"MullerLyer"	"14.128570000"	"0.0762700000"	"1"	"79"
n/a	"html-keyboard-response"	"175"	"213724"	"0.0-5.0-2.0-0.61"	"kyydnu"	"657"	"1366"	"chrome"	"109.0.0"	"FALSE"	"Windows 10"	"60.16"	"003"	n/a	n/a	n/a	n/a	n/a	n/a	"fixation"	n/a	n/a	n/a	n/a	"NULL"	n/a	"NULL"	"NULL"	"NULL"	"<p style=\"color: black; font-size: 80px; padding-left: 17%; padding-right: 31%; padding-top: 43%; padding-bottom: 44%\">+</p>"	"1374"	n/a	n/a	n/a	n/a	n/a	n/a	n/a	n/a	n/a
n/a	"image-keyboard-response"	"176"	"214457"	"0.0-5.0-2.0-1.61"	"kyydnu"	"657"	"1366"	"chrome"	"109.0.0"	"FALSE"	"Windows 10"	"60.16"	"003"	n/a	n/a	n/a	n/a	n/a	n/a	"Trial"	n/a	n/a	n/a	"731"	"arrowup"	n/a	"NULL"	"NULL"	"NULL"	"stimuli/MullerLyer_8.21429_-0.14541.png"	n/a	"MullerLyer"	"arrowdown"	"1378"	"FALSE"	"MullerLyer"	"8.2142900000"	"-0.145410000"	"1"	"80"
n/a	"html-keyboard-response"	"177"	"215951"	"0.0-5.0-2.0-0.62"	"kyydnu"	"657"	"1366"	"chrome"	"109.0.0"	"FALSE"	"Windows 10"	"60.16"	"003"	n/a	n/a	n/a	n/a	n/a	n/a	"fixation"	n/a	n/a	n/a	n/a	"NULL"	n/a	"NULL"	"NULL"	"NULL"	"<p style=\"color: black; font-size: 80px; padding-left: 36%; padding-right: 28%; padding-top: 39%; padding-bottom: 7%\">+</p>"	"1478"	n/a	n/a	n/a	n/a	n/a	n/a	n/a	n/a	n/a
n/a	"image-keyboard-response"	"178"	"216466"	"0.0-5.0-2.0-1.62"	"kyydnu"	"657"	"1366"	"chrome"	"109.0.0"	"FALSE"	"Windows 10"	"60.16"	"003"	n/a	n/a	n/a	n/a	n/a	n/a	"Trial"	n/a	n/a	n/a	"513"	"arrowup"	n/a	"NULL"	"NULL"	"NULL"	"stimuli/MullerLyer_-8.21429_0.35000.png"	n/a	"MullerLyer"	"arrowup"	"1494"	"TRUE"	"MullerLyer"	"-8.214290000"	"0.3500000000"	"1"	"81"
n/a	"html-keyboard-response"	"179"	"217752"	"0.0-5.0-2.0-0.63"	"kyydnu"	"657"	"1366"	"chrome"	"109.0.0"	"FALSE"	"Windows 10"	"60.16"	"003"	n/a	n/a	n/a	n/a	n/a	n/a	"fixation"	n/a	n/a	n/a	n/a	"NULL"	n/a	"NULL"	"NULL"	"NULL"	"<p style=\"color: black; font-size: 80px; padding-left: 26%; padding-right: 26%; padding-top: 6%; padding-bottom: 45%\">+</p>"	"1266"	n/a	n/a	n/a	n/a	n/a	n/a	n/a	n/a	n/a
n/a	"image-keyboard-response"	"180"	"218207"	"0.0-5.0-2.0-1.63"	"kyydnu"	"657"	"1366"	"chrome"	"109.0.0"	"FALSE"	"Windows 10"	"60.16"	"003"	n/a	n/a	n/a	n/a	n/a	n/a	"Trial"	n/a	n/a	n/a	"454"	"arrowup"	n/a	"NULL"	"NULL"	"NULL"	"stimuli/MullerLyer_-8.21429_0.14541.png"	n/a	"MullerLyer"	"arrowup"	"1286"	"TRUE"	"MullerLyer"	"-8.214290000"	"0.1454100000"	"1"	"82"
n/a	"html-button-response"	"181"	"231253"	"0.0-5.0-3.0"	"kyydnu"	"657"	"1366"	"chrome"	"109.0.0"	"FALSE"	"Windows 10"	"60.16"	"003"	n/a	n/a	n/a	n/a	n/a	n/a	"block_results"	n/a	n/a	n/a	"13039"	"0"	n/a	"NULL"	"NULL"	"NULL"	"<p>Your score for this illusion is <p style=\"color: black; font-size: 48px; font-weight: bold;\">83.7 %</p><hr><p>Can you do better in the next illusion?</p>"	n/a	n/a	n/a	n/a	n/a	n/a	n/a	n/a	n/a	n/a
"TRUE"	"preload"	"182"	"231400"	"0.0-6.0-0.0"	"kyydnu"	"657"	"1366"	"chrome"	"109.0.0"	"FALSE"	"Windows 10"	"60.16"	"003"	n/a	n/a	n/a	n/a	n/a	n/a	n/a	n/a	n/a	n/a	n/a	"NULL"	"FALSE"	"list()"	"list()"	"list()"	n/a	n/a	n/a	n/a	n/a	n/a	n/a	n/a	n/a	n/a	n/a
n/a	"html-keyboard-response"	"183"	"233740"	"0.0-6.0-1.0"	"kyydnu"	"657"	"1366"	"chrome"	"109.0.0"	"FALSE"	"Windows 10"	"60.16"	"003"	n/a	n/a	n/a	n/a	n/a	n/a	n/a	n/a	n/a	n/a	"2340"	"enter"	n/a	"NULL"	"NULL"	"NULL"	"<p><b>Part 2/6</b></p><p>In this part, two red circles will appear side by side on the screen.</p><p>Your task is to select which <b>red circle is bigger</b> in size as fast as you can, without making errors.</p><p>Don't get distracted by the surrounding black circles around the red circles!</p><p>Press <b>the LEFT or the RIGHT arrow</b> to indicate which is the bigger <b>red circle.</b></p><div style='float: center'><img src='materials/instructions/Ebbinghaus_Demo.png' height='300'></img><p><img src='utils/answer/answer_leftright_keyboard.PNG' height='150'></img></p><p class='small'>In this example, the correct answer is the <b>LEFT arrow</b>.</p></div><p>Are you ready? <b>Press ENTER to start</b></p>"	n/a	n/a	n/a	n/a	n/a	n/a	n/a	n/a	n/a	n/a
n/a	"html-keyboard-response"	"184"	"235440"	"0.0-6.0-2.0-0.0"	"kyydnu"	"657"	"1366"	"chrome"	"109.0.0"	"FALSE"	"Windows 10"	"60.16"	"003"	n/a	n/a	n/a	n/a	n/a	n/a	"fixation"	n/a	n/a	n/a	n/a	"NULL"	n/a	"NULL"	"NULL"	"NULL"	"<p style=\"color: black; font-size: 80px; padding-left: 6%; padding-right: 2%; padding-top: 30%; padding-bottom: 34%\">+</p>"	"1172"	n/a	n/a	n/a	n/a	n/a	n/a	n/a	n/a	n/a
n/a	"image-keyboard-response"	"185"	"236220"	"0.0-6.0-2.0-1.0"	"kyydnu"	"657"	"1366"	"chrome"	"109.0.0"	"FALSE"	"Windows 10"	"60.16"	"003"	n/a	n/a	n/a	n/a	n/a	n/a	"Trial"	n/a	n/a	n/a	"778"	"arrowleft"	n/a	"NULL"	"NULL"	"NULL"	"stimuli/Ebbinghaus_0.87143_-0.15857.png"	n/a	"Ebbinghaus"	"arrowright"	"1700"	"FALSE"	"Ebbinghaus"	"0.8714300000"	"-0.158570000"	"2"	"1"
n/a	"html-keyboard-response"	"186"	"237732"	"0.0-6.0-2.0-0.1"	"kyydnu"	"657"	"1366"	"chrome"	"109.0.0"	"FALSE"	"Windows 10"	"60.16"	"003"	n/a	n/a	n/a	n/a	n/a	n/a	"fixation"	n/a	n/a	n/a	n/a	"NULL"	n/a	"NULL"	"NULL"	"NULL"	"<p style=\"color: black; font-size: 80px; padding-left: 49%; padding-right: 23%; padding-top: 22%; padding-bottom: 27%\">+</p>"	"1498"	n/a	n/a	n/a	n/a	n/a	n/a	n/a	n/a	n/a
n/a	"image-keyboard-response"	"187"	"238271"	"0.0-6.0-2.0-1.1"	"kyydnu"	"657"	"1366"	"chrome"	"109.0.0"	"FALSE"	"Windows 10"	"60.16"	"003"	n/a	n/a	n/a	n/a	n/a	n/a	"Trial"	n/a	n/a	n/a	"538"	"arrowleft"	n/a	"NULL"	"NULL"	"NULL"	"stimuli/Ebbinghaus_-0.61429_0.21500.png"	n/a	"Ebbinghaus"	"arrowleft"	"1512"	"TRUE"	"Ebbinghaus"	"-0.614290000"	"0.2150000000"	"2"	"2"
n/a	"html-keyboard-response"	"188"	"239391"	"0.0-6.0-2.0-0.2"	"kyydnu"	"657"	"1366"	"chrome"	"109.0.0"	"FALSE"	"Windows 10"	"60.16"	"003"	n/a	n/a	n/a	n/a	n/a	n/a	"fixation"	n/a	n/a	n/a	n/a	"NULL"	n/a	"NULL"	"NULL"	"NULL"	"<p style=\"color: black; font-size: 80px; padding-left: 29%; padding-right: 10%; padding-top: 2%; padding-bottom: 47%\">+</p>"	"1110"	n/a	n/a	n/a	n/a	n/a	n/a	n/a	n/a	n/a
n/a	"image-keyboard-response"	"189"	"239922"	"0.0-6.0-2.0-1.2"	"kyydnu"	"657"	"1366"	"chrome"	"109.0.0"	"FALSE"	"Windows 10"	"60.16"	"003"	n/a	n/a	n/a	n/a	n/a	n/a	"Trial"	n/a	n/a	n/a	"530"	"arrowleft"	n/a	"NULL"	"NULL"	"NULL"	"stimuli/Ebbinghaus_-0.1000_0.28000.png"	n/a	"Ebbinghaus"	"arrowleft"	"1120"	"TRUE"	"Ebbinghaus"	"-0.100000000"	"0.2800000000"	"2"	"3"
n/a	"html-keyboard-response"	"190"	"241422"	"0.0-6.0-2.0-0.3"	"kyydnu"	"657"	"1366"	"chrome"	"109.0.0"	"FALSE"	"Windows 10"	"60.16"	"003"	n/a	n/a	n/a	n/a	n/a	n/a	"fixation"	n/a	n/a	n/a	n/a	"NULL"	n/a	"NULL"	"NULL"	"NULL"	"<p style=\"color: black; font-size: 80px; padding-left: 42%; padding-right: 30%; padding-top: 37%; padding-bottom: 2%\">+</p>"	"1487"	n/a	n/a	n/a	n/a	n/a	n/a	n/a	n/a	n/a
n/a	"image-keyboard-response"	"191"	"241891"	"0.0-6.0-2.0-1.3"	"kyydnu"	"657"	"1366"	"chrome"	"109.0.0"	"FALSE"	"Windows 10"	"60.16"	"003"	n/a	n/a	n/a	n/a	n/a	n/a	"Trial"	n/a	n/a	n/a	"468"	"arrowright"	n/a	"NULL"	"NULL"	"NULL"	"stimuli/Ebbinghaus_-0.35714_-0.15857.png"	n/a	"Ebbinghaus"	"arrowright"	"1500"	"TRUE"	"Ebbinghaus"	"-0.357140000"	"-0.158570000"	"2"	"4"
n/a	"html-keyboard-response"	"192"	"243233"	"0.0-6.0-2.0-0.4"	"kyydnu"	"657"	"1366"	"chrome"	"109.0.0"	"FALSE"	"Windows 10"	"60.16"	"003"	n/a	n/a	n/a	n/a	n/a	n/a	"fixation"	n/a	n/a	n/a	n/a	"NULL"	n/a	"NULL"	"NULL"	"NULL"	"<p style=\"color: black; font-size: 80px; padding-left: 22%; padding-right: 42%; padding-top: 44%; padding-bottom: 37%\">+</p>"	"1334"	n/a	n/a	n/a	n/a	n/a	n/a	n/a	n/a	n/a
n/a	"image-keyboard-response"	"193"	"243782"	"0.0-6.0-2.0-1.4"	"kyydnu"	"657"	"1366"	"chrome"	"109.0.0"	"FALSE"	"Windows 10"	"60.16"	"003"	n/a	n/a	n/a	n/a	n/a	n/a	"Trial"	n/a	n/a	n/a	"548"	"arrowright"	n/a	"NULL"	"NULL"	"NULL"	"stimuli/Ebbinghaus_-0.35714_-0.11071.png"	n/a	"Ebbinghaus"	"arrowright"	"1342"	"TRUE"	"Ebbinghaus"	"-0.357140000"	"-0.110710000"	"2"	"5"
n/a	"html-keyboard-response"	"194"	"245051"	"0.0-6.0-2.0-0.5"	"kyydnu"	"657"	"1366"	"chrome"	"109.0.0"	"FALSE"	"Windows 10"	"60.16"	"003"	n/a	n/a	n/a	n/a	n/a	n/a	"fixation"	n/a	n/a	n/a	n/a	"NULL"	n/a	"NULL"	"NULL"	"NULL"	"<p style=\"color: black; font-size: 80px; padding-left: 18%; padding-right: 39%; padding-top: 43%; padding-bottom: 18%\">+</p>"	"1253"	n/a	n/a	n/a	n/a	n/a	n/a	n/a	n/a	n/a
n/a	"image-keyboard-response"	"195"	"245511"	"0.0-6.0-2.0-1.5"	"kyydnu"	"657"	"1366"	"chrome"	"109.0.0"	"FALSE"	"Windows 10"	"60.16"	"003"	n/a	n/a	n/a	n/a	n/a	n/a	"Trial"	n/a	n/a	n/a	"459"	"arrowleft"	n/a	"NULL"	"NULL"	"NULL"	"stimuli/Ebbinghaus_0.10000_0.21500.png"	n/a	"Ebbinghaus"	"arrowleft"	"1269"	"TRUE"	"Ebbinghaus"	"0.1000000000"	"0.2150000000"	"2"	"6"
n/a	"html-keyboard-response"	"196"	"246999"	"0.0-6.0-2.0-0.6"	"kyydnu"	"657"	"1366"	"chrome"	"109.0.0"	"FALSE"	"Windows 10"	"60.16"	"003"	n/a	n/a	n/a	n/a	n/a	n/a	"fixation"	n/a	n/a	n/a	n/a	"NULL"	n/a	"NULL"	"NULL"	"NULL"	"<p style=\"color: black; font-size: 80px; padding-left: 20%; padding-right: 41%; padding-top: 25%; padding-bottom: 7%\">+</p>"	"1466"	n/a	n/a	n/a	n/a	n/a	n/a	n/a	n/a	n/a
n/a	"image-keyboard-response"	"197"	"247534"	"0.0-6.0-2.0-1.6"	"kyydnu"	"657"	"1366"	"chrome"	"109.0.0"	"FALSE"	"Windows 10"	"60.16"	"003"	n/a	n/a	n/a	n/a	n/a	n/a	"Trial"	n/a	n/a	n/a	"534"	"arrowright"	n/a	"NULL"	"NULL"	"NULL"	"stimuli/Ebbinghaus_0.10000_-0.11071.png"	n/a	"Ebbinghaus"	"arrowright"	"1488"	"TRUE"	"Ebbinghaus"	"0.1000000000"	"-0.110710000"	"2"	"7"
n/a	"html-keyboard-response"	"198"	"248728"	"0.0-6.0-2.0-0.7"	"kyydnu"	"657"	"1366"	"chrome"	"109.0.0"	"FALSE"	"Windows 10"	"60.16"	"003"	n/a	n/a	n/a	n/a	n/a	n/a	"fixation"	n/a	n/a	n/a	n/a	"NULL"	n/a	"NULL"	"NULL"	"NULL"	"<p style=\"color: black; font-size: 80px; padding-left: 29%; padding-right: 43%; padding-top: 38%; padding-bottom: 3%\">+</p>"	"1186"	n/a	n/a	n/a	n/a	n/a	n/a	n/a	n/a	n/a
n/a	"image-keyboard-response"	"199"	"249217"	"0.0-6.0-2.0-1.7"	"kyydnu"	"657"	"1366"	"chrome"	"109.0.0"	"FALSE"	"Windows 10"	"60.16"	"003"	n/a	n/a	n/a	n/a	n/a	n/a	"Trial"	n/a	n/a	n/a	"488"	"arrowleft"	n/a	"NULL"	"NULL"	"NULL"	"stimuli/Ebbinghaus_-0.87143_0.28000.png"	n/a	"Ebbinghaus"	"arrowleft"	"1194"	"TRUE"	"Ebbinghaus"	"-0.871430000"	"0.2800000000"	"2"	"8"
n/a	"html-keyboard-response"	"200"	"250627"	"0.0-6.0-2.0-0.8"	"kyydnu"	"657"	"1366"	"chrome"	"109.0.0"	"FALSE"	"Windows 10"	"60.16"	"003"	n/a	n/a	n/a	n/a	n/a	n/a	"fixation"	n/a	n/a	n/a	n/a	"NULL"	n/a	"NULL"	"NULL"	"NULL"	"<p style=\"color: black; font-size: 80px; padding-left: 2%; padding-right: 4%; padding-top: 17%; padding-bottom: 8%\">+</p>"	"1385"	n/a	n/a	n/a	n/a	n/a	n/a	n/a	n/a	n/a
n/a	"image-keyboard-response"	"201"	"251159"	"0.0-6.0-2.0-1.8"	"kyydnu"	"657"	"1366"	"chrome"	"109.0.0"	"FALSE"	"Windows 10"	"60.16"	"003"	n/a	n/a	n/a	n/a	n/a	n/a	"Trial"	n/a	n/a	n/a	"531"	"arrowright"	n/a	"NULL"	"NULL"	"NULL"	"stimuli/Ebbinghaus_0.35714_-0.11071.png"	n/a	"Ebbinghaus"	"arrowright"	"1410"	"TRUE"	"Ebbinghaus"	"0.3571400000"	"-0.110710000"	"2"	"9"
n/a	"html-keyboard-response"	"202"	"252240"	"0.0-6.0-2.0-0.9"	"kyydnu"	"657"	"1366"	"chrome"	"109.0.0"	"FALSE"	"Windows 10"	"60.16"	"003"	n/a	n/a	n/a	n/a	n/a	n/a	"fixation"	n/a	n/a	n/a	n/a	"NULL"	n/a	"NULL"	"NULL"	"NULL"	"<p style=\"color: black; font-size: 80px; padding-left: 43%; padding-right: 38%; padding-top: 29%; padding-bottom: 46%\">+</p>"	"1066"	n/a	n/a	n/a	n/a	n/a	n/a	n/a	n/a	n/a
n/a	"image-keyboard-response"	"203"	"252733"	"0.0-6.0-2.0-1.9"	"kyydnu"	"657"	"1366"	"chrome"	"109.0.0"	"FALSE"	"Windows 10"	"60.16"	"003"	n/a	n/a	n/a	n/a	n/a	n/a	"Trial"	n/a	n/a	n/a	"492"	"arrowleft"	n/a	"NULL"	"NULL"	"NULL"	"stimuli/Ebbinghaus_0.35714_0.15857.png"	n/a	"Ebbinghaus"	"arrowleft"	"1081"	"TRUE"	"Ebbinghaus"	"0.3571400000"	"0.1585700000"	"2"	"10"
n/a	"html-keyboard-response"	"204"	"253837"	"0.0-6.0-2.0-0.10"	"kyydnu"	"657"	"1366"	"chrome"	"109.0.0"	"FALSE"	"Windows 10"	"60.16"	"003"	n/a	n/a	n/a	n/a	n/a	n/a	"fixation"	n/a	n/a	n/a	n/a	"NULL"	n/a	"NULL"	"NULL"	"NULL"	"<p style=\"color: black; font-size: 80px; padding-left: 25%; padding-right: 7%; padding-top: 4%; padding-bottom: 15%\">+</p>"	"1094"	n/a	n/a	n/a	n/a	n/a	n/a	n/a	n/a	n/a
n/a	"image-keyboard-response"	"205"	"254353"	"0.0-6.0-2.0-1.10"	"kyydnu"	"657"	"1366"	"chrome"	"109.0.0"	"FALSE"	"Windows 10"	"60.16"	"003"	n/a	n/a	n/a	n/a	n/a	n/a	"Trial"	n/a	n/a	n/a	"515"	"arrowright"	n/a	"NULL"	"NULL"	"NULL"	"stimuli/Ebbinghaus_-0.87143_-0.2800.png"	n/a	"Ebbinghaus"	"arrowright"	"1104"	"TRUE"	"Ebbinghaus"	"-0.871430000"	"-0.280000000"	"2"	"11"
n/a	"html-keyboard-response"	"206"	"255748"	"0.0-6.0-2.0-0.11"	"kyydnu"	"657"	"1366"	"chrome"	"109.0.0"	"FALSE"	"Windows 10"	"60.16"	"003"	n/a	n/a	n/a	n/a	n/a	n/a	"fixation"	n/a	n/a	n/a	n/a	"NULL"	n/a	"NULL"	"NULL"	"NULL"	"<p style=\"color: black; font-size: 80px; padding-left: 37%; padding-right: 38%; padding-top: 14%; padding-bottom: 12%\">+</p>"	"1379"	n/a	n/a	n/a	n/a	n/a	n/a	n/a	n/a	n/a
n/a	"image-keyboard-response"	"207"	"256209"	"0.0-6.0-2.0-1.11"	"kyydnu"	"657"	"1366"	"chrome"	"109.0.0"	"FALSE"	"Windows 10"	"60.16"	"003"	n/a	n/a	n/a	n/a	n/a	n/a	"Trial"	n/a	n/a	n/a	"460"	"arrowleft"	n/a	"NULL"	"NULL"	"NULL"	"stimuli/Ebbinghaus_-0.35714_0.28000.png"	n/a	"Ebbinghaus"	"arrowleft"	"1395"	"TRUE"	"Ebbinghaus"	"-0.357140000"	"0.2800000000"	"2"	"12"
n/a	"html-keyboard-response"	"208"	"257432"	"0.0-6.0-2.0-0.12"	"kyydnu"	"657"	"1366"	"chrome"	"109.0.0"	"FALSE"	"Windows 10"	"60.16"	"003"	n/a	n/a	n/a	n/a	n/a	n/a	"fixation"	n/a	n/a	n/a	n/a	"NULL"	n/a	"NULL"	"NULL"	"NULL"	"<p style=\"color: black; font-size: 80px; padding-left: 1%; padding-right: 33%; padding-top: 39%; padding-bottom: 9%\">+</p>"	"1211"	n/a	n/a	n/a	n/a	n/a	n/a	n/a	n/a	n/a
n/a	"image-keyboard-response"	"209"	"257924"	"0.0-6.0-2.0-1.12"	"kyydnu"	"657"	"1366"	"chrome"	"109.0.0"	"FALSE"	"Windows 10"	"60.16"	"003"	n/a	n/a	n/a	n/a	n/a	n/a	"Trial"	n/a	n/a	n/a	"490"	"arrowleft"	n/a	"NULL"	"NULL"	"NULL"	"stimuli/Ebbinghaus_0.61429_0.28000.png"	n/a	"Ebbinghaus"	"arrowleft"	"1223"	"TRUE"	"Ebbinghaus"	"0.6142900000"	"0.2800000000"	"2"	"13"
n/a	"html-keyboard-response"	"210"	"259093"	"0.0-6.0-2.0-0.13"	"kyydnu"	"657"	"1366"	"chrome"	"109.0.0"	"FALSE"	"Windows 10"	"60.16"	"003"	n/a	n/a	n/a	n/a	n/a	n/a	"fixation"	n/a	n/a	n/a	n/a	"NULL"	n/a	"NULL"	"NULL"	"NULL"	"<p style=\"color: black; font-size: 80px; padding-left: 13%; padding-right: 32%; padding-top: 31%; padding-bottom: 43%\">+</p>"	"1153"	n/a	n/a	n/a	n/a	n/a	n/a	n/a	n/a	n/a
n/a	"image-keyboard-response"	"211"	"259706"	"0.0-6.0-2.0-1.13"	"kyydnu"	"657"	"1366"	"chrome"	"109.0.0"	"FALSE"	"Windows 10"	"60.16"	"003"	n/a	n/a	n/a	n/a	n/a	n/a	"Trial"	n/a	n/a	n/a	"612"	"arrowleft"	n/a	"NULL"	"NULL"	"NULL"	"stimuli/Ebbinghaus_-0.1000_0.21500.png"	n/a	"Ebbinghaus"	"arrowleft"	"1169"	"TRUE"	"Ebbinghaus"	"-0.100000000"	"0.2150000000"	"2"	"14"
n/a	"html-keyboard-response"	"212"	"261150"	"0.0-6.0-2.0-0.14"	"kyydnu"	"657"	"1366"	"chrome"	"109.0.0"	"FALSE"	"Windows 10"	"60.16"	"003"	n/a	n/a	n/a	n/a	n/a	n/a	"fixation"	n/a	n/a	n/a	n/a	"NULL"	n/a	"NULL"	"NULL"	"NULL"	"<p style=\"color: black; font-size: 80px; padding-left: 48%; padding-right: 36%; padding-top: 4%; padding-bottom: 47%\">+</p>"	"1437"	n/a	n/a	n/a	n/a	n/a	n/a	n/a	n/a	n/a
n/a	"image-keyboard-response"	"213"	"261649"	"0.0-6.0-2.0-1.14"	"kyydnu"	"657"	"1366"	"chrome"	"109.0.0"	"FALSE"	"Windows 10"	"60.16"	"003"	n/a	n/a	n/a	n/a	n/a	n/a	"Trial"	n/a	n/a	n/a	"497"	"arrowright"	n/a	"NULL"	"NULL"	"NULL"	"stimuli/Ebbinghaus_0.61429_-0.2800.png"	n/a	"Ebbinghaus"	"arrowright"	"1444"	"TRUE"	"Ebbinghaus"	"0.6142900000"	"-0.280000000"	"2"	"15"
n/a	"html-keyboard-response"	"214"	"262855"	"0.0-6.0-2.0-0.15"	"kyydnu"	"657"	"1366"	"chrome"	"109.0.0"	"FALSE"	"Windows 10"	"60.16"	"003"	n/a	n/a	n/a	n/a	n/a	n/a	"fixation"	n/a	n/a	n/a	n/a	"NULL"	n/a	"NULL"	"NULL"	"NULL"	"<p style=\"color: black; font-size: 80px; padding-left: 37%; padding-right: 44%; padding-top: 21%; padding-bottom: 48%\">+</p>"	"1195"	n/a	n/a	n/a	n/a	n/a	n/a	n/a	n/a	n/a
n/a	"image-keyboard-response"	"215"	"263330"	"0.0-6.0-2.0-1.15"	"kyydnu"	"657"	"1366"	"chrome"	"109.0.0"	"FALSE"	"Windows 10"	"60.16"	"003"	n/a	n/a	n/a	n/a	n/a	n/a	"Trial"	n/a	n/a	n/a	"474"	"arrowleft"	n/a	"NULL"	"NULL"	"NULL"	"stimuli/Ebbinghaus_0.10000_0.11071.png"	n/a	"Ebbinghaus"	"arrowleft"	"1206"	"TRUE"	"Ebbinghaus"	"0.1000000000"	"0.1107100000"	"2"	"16"
n/a	"html-keyboard-response"	"216"	"264832"	"0.0-6.0-2.0-0.16"	"kyydnu"	"657"	"1366"	"chrome"	"109.0.0"	"FALSE"	"Windows 10"	"60.16"	"003"	n/a	n/a	n/a	n/a	n/a	n/a	"fixation"	n/a	n/a	n/a	n/a	"NULL"	n/a	"NULL"	"NULL"	"NULL"	"<p style=\"color: black; font-size: 80px; padding-left: 8%; padding-right: 30%; padding-top: 34%; padding-bottom: 13%\">+</p>"	"1484"	n/a	n/a	n/a	n/a	n/a	n/a	n/a	n/a	n/a
n/a	"image-keyboard-response"	"217"	"265357"	"0.0-6.0-2.0-1.16"	"kyydnu"	"657"	"1366"	"chrome"	"109.0.0"	"FALSE"	"Windows 10"	"60.16"	"003"	n/a	n/a	n/a	n/a	n/a	n/a	"Trial"	n/a	n/a	n/a	"524"	"arrowright"	n/a	"NULL"	"NULL"	"NULL"	"stimuli/Ebbinghaus_-0.61429_-0.2150.png"	n/a	"Ebbinghaus"	"arrowright"	"1502"	"TRUE"	"Ebbinghaus"	"-0.614290000"	"-0.215000000"	"2"	"17"
n/a	"html-keyboard-response"	"218"	"266487"	"0.0-6.0-2.0-0.17"	"kyydnu"	"657"	"1366"	"chrome"	"109.0.0"	"FALSE"	"Windows 10"	"60.16"	"003"	n/a	n/a	n/a	n/a	n/a	n/a	"fixation"	n/a	n/a	n/a	n/a	"NULL"	n/a	"NULL"	"NULL"	"NULL"	"<p style=\"color: black; font-size: 80px; padding-left: 36%; padding-right: 33%; padding-top: 15%; padding-bottom: 49%\">+</p>"	"1122"	n/a	n/a	n/a	n/a	n/a	n/a	n/a	n/a	n/a
n/a	"image-keyboard-response"	"219"	"267064"	"0.0-6.0-2.0-1.17"	"kyydnu"	"657"	"1366"	"chrome"	"109.0.0"	"FALSE"	"Windows 10"	"60.16"	"003"	n/a	n/a	n/a	n/a	n/a	n/a	"Trial"	n/a	n/a	n/a	"576"	"arrowright"	n/a	"NULL"	"NULL"	"NULL"	"stimuli/Ebbinghaus_-0.61429_-0.15857.png"	n/a	"Ebbinghaus"	"arrowright"	"1130"	"TRUE"	"Ebbinghaus"	"-0.614290000"	"-0.158570000"	"2"	"18"
n/a	"html-keyboard-response"	"220"	"268172"	"0.0-6.0-2.0-0.18"	"kyydnu"	"657"	"1366"	"chrome"	"109.0.0"	"FALSE"	"Windows 10"	"60.16"	"003"	n/a	n/a	n/a	n/a	n/a	n/a	"fixation"	n/a	n/a	n/a	n/a	"NULL"	n/a	"NULL"	"NULL"	"NULL"	"<p style=\"color: black; font-size: 80px; padding-left: 30%; padding-right: 19%; padding-top: 35%; padding-bottom: 22%\">+</p>"	"1103"	n/a	n/a	n/a	n/a	n/a	n/a	n/a	n/a	n/a
n/a	"image-keyboard-response"	"221"	"268916"	"0.0-6.0-2.0-1.18"	"kyydnu"	"657"	"1366"	"chrome"	"109.0.0"	"FALSE"	"Windows 10"	"60.16"	"003"	n/a	n/a	n/a	n/a	n/a	n/a	"Trial"	n/a	n/a	n/a	"743"	"arrowright"	n/a	"NULL"	"NULL"	"NULL"	"stimuli/Ebbinghaus_0.87143_0.21500.png"	n/a	"Ebbinghaus"	"arrowleft"	"1108"	"FALSE"	"Ebbinghaus"	"0.8714300000"	"0.2150000000"	"2"	"19"
n/a	"html-keyboard-response"	"222"	"270003"	"0.0-6.0-2.0-0.19"	"kyydnu"	"657"	"1366"	"chrome"	"109.0.0"	"FALSE"	"Windows 10"	"60.16"	"003"	n/a	n/a	n/a	n/a	n/a	n/a	"fixation"	n/a	n/a	n/a	n/a	"NULL"	n/a	"NULL"	"NULL"	"NULL"	"<p style=\"color: black; font-size: 80px; padding-left: 34%; padding-right: 25%; padding-top: 8%; padding-bottom: 38%\">+</p>"	"1074"	n/a	n/a	n/a	n/a	n/a	n/a	n/a	n/a	n/a
n/a	"image-keyboard-response"	"223"	"270499"	"0.0-6.0-2.0-1.19"	"kyydnu"	"657"	"1366"	"chrome"	"109.0.0"	"FALSE"	"Windows 10"	"60.16"	"003"	n/a	n/a	n/a	n/a	n/a	n/a	"Trial"	n/a	n/a	n/a	"493"	"arrowleft"	n/a	"NULL"	"NULL"	"NULL"	"stimuli/Ebbinghaus_0.87143_0.28000.png"	n/a	"Ebbinghaus"	"arrowleft"	"1087"	"TRUE"	"Ebbinghaus"	"0.8714300000"	"0.2800000000"	"2"	"20"
n/a	"html-keyboard-response"	"224"	"271564"	"0.0-6.0-2.0-0.20"	"kyydnu"	"657"	"1366"	"chrome"	"109.0.0"	"FALSE"	"Windows 10"	"60.16"	"003"	n/a	n/a	n/a	n/a	n/a	n/a	"fixation"	n/a	n/a	n/a	n/a	"NULL"	n/a	"NULL"	"NULL"	"NULL"	"<p style=\"color: black; font-size: 80px; padding-left: 35%; padding-right: 49%; padding-top: 39%; padding-bottom: 49%\">+</p>"	"1061"	n/a	n/a	n/a	n/a	n/a	n/a	n/a	n/a	n/a
n/a	"image-keyboard-response"	"225"	"272384"	"0.0-6.0-2.0-1.20"	"kyydnu"	"657"	"1366"	"chrome"	"109.0.0"	"FALSE"	"Windows 10"	"60.16"	"003"	n/a	n/a	n/a	n/a	n/a	n/a	"Trial"	n/a	n/a	n/a	"819"	"arrowright"	n/a	"NULL"	"NULL"	"NULL"	"stimuli/Ebbinghaus_0.61429_0.15857.png"	n/a	"Ebbinghaus"	"arrowleft"	"1065"	"FALSE"	"Ebbinghaus"	"0.6142900000"	"0.1585700000"	"2"	"21"
n/a	"html-keyboard-response"	"226"	"273868"	"0.0-6.0-2.0-0.21"	"kyydnu"	"657"	"1366"	"chrome"	"109.0.0"	"FALSE"	"Windows 10"	"60.16"	"003"	n/a	n/a	n/a	n/a	n/a	n/a	"fixation"	n/a	n/a	n/a	n/a	"NULL"	n/a	"NULL"	"NULL"	"NULL"	"<p style=\"color: black; font-size: 80px; padding-left: 20%; padding-right: 45%; padding-top: 46%; padding-bottom: 16%\">+</p>"	"1473"	n/a	n/a	n/a	n/a	n/a	n/a	n/a	n/a	n/a
n/a	"image-keyboard-response"	"227"	"274421"	"0.0-6.0-2.0-1.21"	"kyydnu"	"657"	"1366"	"chrome"	"109.0.0"	"FALSE"	"Windows 10"	"60.16"	"003"	n/a	n/a	n/a	n/a	n/a	n/a	"Trial"	n/a	n/a	n/a	"552"	"arrowright"	n/a	"NULL"	"NULL"	"NULL"	"stimuli/Ebbinghaus_-0.1000_-0.11071.png"	n/a	"Ebbinghaus"	"arrowright"	"1484"	"TRUE"	"Ebbinghaus"	"-0.100000000"	"-0.110710000"	"2"	"22"
n/a	"html-keyboard-response"	"228"	"275470"	"0.0-6.0-2.0-0.22"	"kyydnu"	"657"	"1366"	"chrome"	"109.0.0"	"FALSE"	"Windows 10"	"60.16"	"003"	n/a	n/a	n/a	n/a	n/a	n/a	"fixation"	n/a	n/a	n/a	n/a	"NULL"	n/a	"NULL"	"NULL"	"NULL"	"<p style=\"color: black; font-size: 80px; padding-left: 31%; padding-right: 34%; padding-top: 40%; padding-bottom: 21%\">+</p>"	"1036"	n/a	n/a	n/a	n/a	n/a	n/a	n/a	n/a	n/a
n/a	"image-keyboard-response"	"229"	"276103"	"0.0-6.0-2.0-1.22"	"kyydnu"	"657"	"1366"	"chrome"	"109.0.0"	"FALSE"	"Windows 10"	"60.16"	"003"	n/a	n/a	n/a	n/a	n/a	n/a	"Trial"	n/a	n/a	n/a	"632"	"arrowright"	n/a	"NULL"	"NULL"	"NULL"	"stimuli/Ebbinghaus_0.61429_-0.2150.png"	n/a	"Ebbinghaus"	"arrowright"	"1049"	"TRUE"	"Ebbinghaus"	"0.6142900000"	"-0.215000000"	"2"	"23"
n/a	"html-keyboard-response"	"230"	"277393"	"0.0-6.0-2.0-0.23"	"kyydnu"	"657"	"1366"	"chrome"	"109.0.0"	"FALSE"	"Windows 10"	"60.16"	"003"	n/a	n/a	n/a	n/a	n/a	n/a	"fixation"	n/a	n/a	n/a	n/a	"NULL"	n/a	"NULL"	"NULL"	"NULL"	"<p style=\"color: black; font-size: 80px; padding-left: 23%; padding-right: 2%; padding-top: 36%; padding-bottom: 16%\">+</p>"	"1270"	n/a	n/a	n/a	n/a	n/a	n/a	n/a	n/a	n/a
n/a	"image-keyboard-response"	"231"	"277887"	"0.0-6.0-2.0-1.23"	"kyydnu"	"657"	"1366"	"chrome"	"109.0.0"	"FALSE"	"Windows 10"	"60.16"	"003"	n/a	n/a	n/a	n/a	n/a	n/a	"Trial"	n/a	n/a	n/a	"492"	"arrowleft"	n/a	"NULL"	"NULL"	"NULL"	"stimuli/Ebbinghaus_-0.61429_0.15857.png"	n/a	"Ebbinghaus"	"arrowleft"	"1290"	"TRUE"	"Ebbinghaus"	"-0.614290000"	"0.1585700000"	"2"	"24"
n/a	"html-keyboard-response"	"232"	"279026"	"0.0-6.0-2.0-0.24"	"kyydnu"	"657"	"1366"	"chrome"	"109.0.0"	"FALSE"	"Windows 10"	"60.16"	"003"	n/a	n/a	n/a	n/a	n/a	n/a	"fixation"	n/a	n/a	n/a	n/a	"NULL"	n/a	"NULL"	"NULL"	"NULL"	"<p style=\"color: black; font-size: 80px; padding-left: 21%; padding-right: 31%; padding-top: 48%; padding-bottom: 20%\">+</p>"	"1122"	n/a	n/a	n/a	n/a	n/a	n/a	n/a	n/a	n/a
n/a	"image-keyboard-response"	"233"	"279556"	"0.0-6.0-2.0-1.24"	"kyydnu"	"657"	"1366"	"chrome"	"109.0.0"	"FALSE"	"Windows 10"	"60.16"	"003"	n/a	n/a	n/a	n/a	n/a	n/a	"Trial"	n/a	n/a	n/a	"527"	"arrowleft"	n/a	"NULL"	"NULL"	"NULL"	"stimuli/Ebbinghaus_-0.1000_0.15857.png"	n/a	"Ebbinghaus"	"arrowleft"	"1139"	"TRUE"	"Ebbinghaus"	"-0.100000000"	"0.1585700000"	"2"	"25"
n/a	"html-keyboard-response"	"234"	"280761"	"0.0-6.0-2.0-0.25"	"kyydnu"	"657"	"1366"	"chrome"	"109.0.0"	"FALSE"	"Windows 10"	"60.16"	"003"	n/a	n/a	n/a	n/a	n/a	n/a	"fixation"	n/a	n/a	n/a	n/a	"NULL"	n/a	"NULL"	"NULL"	"NULL"	"<p style=\"color: black; font-size: 80px; padding-left: 3%; padding-right: 16%; padding-top: 44%; padding-bottom: 12%\">+</p>"	"1195"	n/a	n/a	n/a	n/a	n/a	n/a	n/a	n/a	n/a
n/a	"image-keyboard-response"	"235"	"281311"	"0.0-6.0-2.0-1.25"	"kyydnu"	"657"	"1366"	"chrome"	"109.0.0"	"FALSE"	"Windows 10"	"60.16"	"003"	n/a	n/a	n/a	n/a	n/a	n/a	"Trial"	n/a	n/a	n/a	"548"	"arrowleft"	n/a	"NULL"	"NULL"	"NULL"	"stimuli/Ebbinghaus_-0.87143_0.11071.png"	n/a	"Ebbinghaus"	"arrowleft"	"1205"	"TRUE"	"Ebbinghaus"	"-0.871430000"	"0.1107100000"	"2"	"26"
n/a	"html-keyboard-response"	"236"	"282389"	"0.0-6.0-2.0-0.26"	"kyydnu"	"657"	"1366"	"chrome"	"109.0.0"	"FALSE"	"Windows 10"	"60.16"	"003"	n/a	n/a	n/a	n/a	n/a	n/a	"fixation"	n/a	n/a	n/a	n/a	"NULL"	n/a	"NULL"	"NULL"	"NULL"	"<p style=\"color: black; font-size: 80px; padding-left: 34%; padding-right: 27%; padding-top: 30%; padding-bottom: 25%\">+</p>"	"1065"	n/a	n/a	n/a	n/a	n/a	n/a	n/a	n/a	n/a
n/a	"image-keyboard-response"	"237"	"282961"	"0.0-6.0-2.0-1.26"	"kyydnu"	"657"	"1366"	"chrome"	"109.0.0"	"FALSE"	"Windows 10"	"60.16"	"003"	n/a	n/a	n/a	n/a	n/a	n/a	"Trial"	n/a	n/a	n/a	"571"	"arrowright"	n/a	"NULL"	"NULL"	"NULL"	"stimuli/Ebbinghaus_0.87143_0.11071.png"	n/a	"Ebbinghaus"	"arrowleft"	"1078"	"FALSE"	"Ebbinghaus"	"0.8714300000"	"0.1107100000"	"2"	"27"
n/a	"html-keyboard-response"	"238"	"284387"	"0.0-6.0-2.0-0.27"	"kyydnu"	"657"	"1366"	"chrome"	"109.0.0"	"FALSE"	"Windows 10"	"60.16"	"003"	n/a	n/a	n/a	n/a	n/a	n/a	"fixation"	n/a	n/a	n/a	n/a	"NULL"	n/a	"NULL"	"NULL"	"NULL"	"<p style=\"color: black; font-size: 80px; padding-left: 2%; padding-right: 25%; padding-top: 1%; padding-bottom: 34%\">+</p>"	"1417"	n/a	n/a	n/a	n/a	n/a	n/a	n/a	n/a	n/a
n/a	"image-keyboard-response"	"239"	"284950"	"0.0-6.0-2.0-1.27"	"kyydnu"	"657"	"1366"	"chrome"	"109.0.0"	"FALSE"	"Windows 10"	"60.16"	"003"	n/a	n/a	n/a	n/a	n/a	n/a	"Trial"	n/a	n/a	n/a	"561"	"arrowleft"	n/a	"NULL"	"NULL"	"NULL"	"stimuli/Ebbinghaus_-0.35714_0.15857.png"	n/a	"Ebbinghaus"	"arrowleft"	"1426"	"TRUE"	"Ebbinghaus"	"-0.357140000"	"0.1585700000"	"2"	"28"
n/a	"html-keyboard-response"	"240"	"285974"	"0.0-6.0-2.0-0.28"	"kyydnu"	"657"	"1366"	"chrome"	"109.0.0"	"FALSE"	"Windows 10"	"60.16"	"003"	n/a	n/a	n/a	n/a	n/a	n/a	"fixation"	n/a	n/a	n/a	n/a	"NULL"	n/a	"NULL"	"NULL"	"NULL"	"<p style=\"color: black; font-size: 80px; padding-left: 42%; padding-right: 29%; padding-top: 36%; padding-bottom: 10%\">+</p>"	"1015"	n/a	n/a	n/a	n/a	n/a	n/a	n/a	n/a	n/a
n/a	"image-keyboard-response"	"241"	"286546"	"0.0-6.0-2.0-1.28"	"kyydnu"	"657"	"1366"	"chrome"	"109.0.0"	"FALSE"	"Windows 10"	"60.16"	"003"	n/a	n/a	n/a	n/a	n/a	n/a	"Trial"	n/a	n/a	n/a	"570"	"arrowright"	n/a	"NULL"	"NULL"	"NULL"	"stimuli/Ebbinghaus_-0.61429_-0.2800.png"	n/a	"Ebbinghaus"	"arrowright"	"1024"	"TRUE"	"Ebbinghaus"	"-0.614290000"	"-0.280000000"	"2"	"29"
n/a	"html-keyboard-response"	"242"	"288026"	"0.0-6.0-2.0-0.29"	"kyydnu"	"657"	"1366"	"chrome"	"109.0.0"	"FALSE"	"Windows 10"	"60.16"	"003"	n/a	n/a	n/a	n/a	n/a	n/a	"fixation"	n/a	n/a	n/a	n/a	"NULL"	n/a	"NULL"	"NULL"	"NULL"	"<p style=\"color: black; font-size: 80px; padding-left: 45%; padding-right: 43%; padding-top: 10%; padding-bottom: 37%\">+</p>"	"1470"	n/a	n/a	n/a	n/a	n/a	n/a	n/a	n/a	n/a
n/a	"image-keyboard-response"	"243"	"288906"	"0.0-6.0-2.0-1.29"	"kyydnu"	"657"	"1366"	"chrome"	"109.0.0"	"FALSE"	"Windows 10"	"60.16"	"003"	n/a	n/a	n/a	n/a	n/a	n/a	"Trial"	n/a	n/a	n/a	"879"	"arrowleft"	n/a	"NULL"	"NULL"	"NULL"	"stimuli/Ebbinghaus_0.35714_-0.2800.png"	n/a	"Ebbinghaus"	"arrowright"	"1480"	"FALSE"	"Ebbinghaus"	"0.3571400000"	"-0.280000000"	"2"	"30"
n/a	"html-keyboard-response"	"244"	"290009"	"0.0-6.0-2.0-0.30"	"kyydnu"	"657"	"1366"	"chrome"	"109.0.0"	"FALSE"	"Windows 10"	"60.16"	"003"	n/a	n/a	n/a	n/a	n/a	n/a	"fixation"	n/a	n/a	n/a	n/a	"NULL"	n/a	"NULL"	"NULL"	"NULL"	"<p style=\"color: black; font-size: 80px; padding-left: 48%; padding-right: 20%; padding-top: 20%; padding-bottom: 29%\">+</p>"	"1088"	n/a	n/a	n/a	n/a	n/a	n/a	n/a	n/a	n/a
n/a	"image-keyboard-response"	"245"	"290532"	"0.0-6.0-2.0-1.30"	"kyydnu"	"657"	"1366"	"chrome"	"109.0.0"	"FALSE"	"Windows 10"	"60.16"	"003"	n/a	n/a	n/a	n/a	n/a	n/a	"Trial"	n/a	n/a	n/a	"521"	"arrowleft"	n/a	"NULL"	"NULL"	"NULL"	"stimuli/Ebbinghaus_-0.87143_0.21500.png"	n/a	"Ebbinghaus"	"arrowleft"	"1103"	"TRUE"	"Ebbinghaus"	"-0.871430000"	"0.2150000000"	"2"	"31"
n/a	"html-keyboard-response"	"246"	"291611"	"0.0-6.0-2.0-0.31"	"kyydnu"	"657"	"1366"	"chrome"	"109.0.0"	"FALSE"	"Windows 10"	"60.16"	"003"	n/a	n/a	n/a	n/a	n/a	n/a	"fixation"	n/a	n/a	n/a	n/a	"NULL"	n/a	"NULL"	"NULL"	"NULL"	"<p style=\"color: black; font-size: 80px; padding-left: 41%; padding-right: 13%; padding-top: 9%; padding-bottom: 25%\">+</p>"	"1057"	n/a	n/a	n/a	n/a	n/a	n/a	n/a	n/a	n/a
n/a	"image-keyboard-response"	"247"	"292087"	"0.0-6.0-2.0-1.31"	"kyydnu"	"657"	"1366"	"chrome"	"109.0.0"	"FALSE"	"Windows 10"	"60.16"	"003"	n/a	n/a	n/a	n/a	n/a	n/a	"Trial"	n/a	n/a	n/a	"474"	"arrowleft"	n/a	"NULL"	"NULL"	"NULL"	"stimuli/Ebbinghaus_0.87143_0.15857.png"	n/a	"Ebbinghaus"	"arrowleft"	"1079"	"TRUE"	"Ebbinghaus"	"0.8714300000"	"0.1585700000"	"2"	"32"
n/a	"html-keyboard-response"	"248"	"293404"	"0.0-6.0-2.0-0.32"	"kyydnu"	"657"	"1366"	"chrome"	"109.0.0"	"FALSE"	"Windows 10"	"60.16"	"003"	n/a	n/a	n/a	n/a	n/a	n/a	"fixation"	n/a	n/a	n/a	n/a	"NULL"	n/a	"NULL"	"NULL"	"NULL"	"<p style=\"color: black; font-size: 80px; padding-left: 33%; padding-right: 42%; padding-top: 12%; padding-bottom: 41%\">+</p>"	"1312"	n/a	n/a	n/a	n/a	n/a	n/a	n/a	n/a	n/a
n/a	"image-keyboard-response"	"249"	"293946"	"0.0-6.0-2.0-1.32"	"kyydnu"	"657"	"1366"	"chrome"	"109.0.0"	"FALSE"	"Windows 10"	"60.16"	"003"	n/a	n/a	n/a	n/a	n/a	n/a	"Trial"	n/a	n/a	n/a	"540"	"arrowright"	n/a	"NULL"	"NULL"	"NULL"	"stimuli/Ebbinghaus_-0.1000_-0.15857.png"	n/a	"Ebbinghaus"	"arrowright"	"1317"	"TRUE"	"Ebbinghaus"	"-0.100000000"	"-0.158570000"	"2"	"33"
n/a	"html-keyboard-response"	"250"	"295327"	"0.0-6.0-2.0-0.33"	"kyydnu"	"657"	"1366"	"chrome"	"109.0.0"	"FALSE"	"Windows 10"	"60.16"	"003"	n/a	n/a	n/a	n/a	n/a	n/a	"fixation"	n/a	n/a	n/a	n/a	"NULL"	n/a	"NULL"	"NULL"	"NULL"	"<p style=\"color: black; font-size: 80px; padding-left: 17%; padding-right: 22%; padding-top: 37%; padding-bottom: 44%\">+</p>"	"1371"	n/a	n/a	n/a	n/a	n/a	n/a	n/a	n/a	n/a
n/a	"image-keyboard-response"	"251"	"295831"	"0.0-6.0-2.0-1.33"	"kyydnu"	"657"	"1366"	"chrome"	"109.0.0"	"FALSE"	"Windows 10"	"60.16"	"003"	n/a	n/a	n/a	n/a	n/a	n/a	"Trial"	n/a	n/a	n/a	"502"	"arrowleft"	n/a	"NULL"	"NULL"	"NULL"	"stimuli/Ebbinghaus_0.35714_-0.15857.png"	n/a	"Ebbinghaus"	"arrowright"	"1381"	"FALSE"	"Ebbinghaus"	"0.3571400000"	"-0.158570000"	"2"	"34"
n/a	"html-keyboard-response"	"252"	"297339"	"0.0-6.0-2.0-0.34"	"kyydnu"	"657"	"1366"	"chrome"	"109.0.0"	"FALSE"	"Windows 10"	"60.16"	"003"	n/a	n/a	n/a	n/a	n/a	n/a	"fixation"	n/a	n/a	n/a	n/a	"NULL"	n/a	"NULL"	"NULL"	"NULL"	"<p style=\"color: black; font-size: 80px; padding-left: 31%; padding-right: 6%; padding-top: 27%; padding-bottom: 25%\">+</p>"	"1491"	n/a	n/a	n/a	n/a	n/a	n/a	n/a	n/a	n/a
n/a	"image-keyboard-response"	"253"	"297852"	"0.0-6.0-2.0-1.34"	"kyydnu"	"657"	"1366"	"chrome"	"109.0.0"	"FALSE"	"Windows 10"	"60.16"	"003"	n/a	n/a	n/a	n/a	n/a	n/a	"Trial"	n/a	n/a	n/a	"511"	"arrowleft"	n/a	"NULL"	"NULL"	"NULL"	"stimuli/Ebbinghaus_-0.87143_0.15857.png"	n/a	"Ebbinghaus"	"arrowleft"	"1508"	"TRUE"	"Ebbinghaus"	"-0.871430000"	"0.1585700000"	"2"	"35"
