"success"	"trial_type"	"trial_index"	"time_elapsed"	"internal_node_id"	"participant_id"	"screen_height"	"screen_width"	"browser"	"browser_version"	"mobile"	"os"	"vsync_rate"	"subject_id"	"width"	"height"	"webaudio"	"fullscreen"	"webcam"	"microphone"	"screen"	"version"	"date"	"time"	"rt"	"response"	"timeout"	"failed_images"	"failed_audio"	"failed_video"	"stimulus"	"trial_duration"	"block"	"correct_response"	"prestimulus_duration"	"correct"	"type"	"illusion_strength"	"illusion_difference"	"block_number"	"trial_number"
"TRUE"	"fullscreen"	"0"	"1920"	"0.0-0.0"	"negn55"	"600"	"1366"	"chrome"	"110.0.0"	"FALSE"	"Windows 10"	"60.53"	"034"	n/a	n/a	n/a	n/a	n/a	n/a	n/a	n/a	n/a	n/a	n/a	"NULL"	n/a	"NULL"	"NULL"	"NULL"	n/a	n/a	n/a	n/a	n/a	n/a	n/a	n/a	n/a	n/a	n/a
n/a	"browser-check"	"1"	"2924"	"0.0-1.0"	"negn55"	"600"	"1366"	"chrome"	"110.0.0"	"FALSE"	"Windows 10"	"60.53"	"034"	"1366"	"600"	"TRUE"	"TRUE"	"TRUE"	"TRUE"	"browser_info"	"1.0"	"03/03/2023"	"17:52:16"	n/a	"NULL"	n/a	"NULL"	"NULL"	"NULL"	n/a	n/a	n/a	n/a	n/a	n/a	n/a	n/a	n/a	n/a	n/a
n/a	"survey-text"	"2"	"5440"	"0.0-2.0"	"negn55"	"600"	"1366"	"chrome"	"110.0.0"	"FALSE"	"Windows 10"	"60.53"	"034"	n/a	n/a	n/a	n/a	n/a	n/a	"subject_id"	n/a	n/a	n/a	"2512"	"list(subject_id = \"034\")"	n/a	"NULL"	"NULL"	"NULL"	n/a	n/a	n/a	n/a	n/a	n/a	n/a	n/a	n/a	n/a	n/a
"TRUE"	"preload"	"3"	"5453"	"0.0-3.0"	"negn55"	"600"	"1366"	"chrome"	"110.0.0"	"FALSE"	"Windows 10"	"60.53"	"034"	n/a	n/a	n/a	n/a	n/a	n/a	n/a	n/a	n/a	n/a	n/a	"NULL"	"FALSE"	"list()"	"list()"	"list()"	n/a	n/a	n/a	n/a	n/a	n/a	n/a	n/a	n/a	n/a	n/a
n/a	"html-button-response"	"4"	"34794"	"0.0-4.0-0.0"	"negn55"	"600"	"1366"	"chrome"	"110.0.0"	"FALSE"	"Windows 10"	"60.53"	"034"	n/a	n/a	n/a	n/a	n/a	n/a	"illusion_instructions"	n/a	n/a	n/a	"29340"	"0"	n/a	"NULL"	"NULL"	"NULL"	"<p><b>Illusion Game</b></p><p>In this game of speed and reflex, you will need to make <b>visual judgments</b> (for instance, which circle is the biggest, or which line is the longest), as fast and as correctly as possible, while <b>resisting different visual illusions</b>.</p><p>We are going to start with some examples of all the illusions you will encounter in the game.</p>"	n/a	n/a	n/a	n/a	n/a	n/a	n/a	n/a	n/a	n/a
"TRUE"	"preload"	"5"	"34810"	"0.0-4.0-1.0-0.0"	"negn55"	"600"	"1366"	"chrome"	"110.0.0"	"FALSE"	"Windows 10"	"60.53"	"034"	n/a	n/a	n/a	n/a	n/a	n/a	n/a	n/a	n/a	n/a	n/a	"NULL"	"FALSE"	"list()"	"list()"	"list()"	n/a	n/a	n/a	n/a	n/a	n/a	n/a	n/a	n/a	n/a	n/a
n/a	"html-keyboard-response"	"6"	"61137"	"0.0-4.0-1.0-1.0"	"negn55"	"600"	"1366"	"chrome"	"110.0.0"	"FALSE"	"Windows 10"	"60.53"	"034"	n/a	n/a	n/a	n/a	n/a	n/a	n/a	n/a	n/a	n/a	"26326"	"enter"	n/a	"NULL"	"NULL"	"NULL"	"<p><b>Practice</b></p><p>In this part, two red circles will appear side by side on the screen.</p><p>Your task is to select which <b>red circle is bigger</b> in size as fast as you can, without making errors.</p><p>Don't get distracted by the surrounding black circles around the red circles!</p><p>Press <b>the LEFT or the RIGHT arrow</b> to indicate which is the bigger <b>red circle.</b></p><div style='float: center'><img src='materials/instructions/Ebbinghaus_Demo.png' height='300'></img><p><img src='utils/answer/answer_leftright_keyboard.PNG' height='150'></img></p><p class='small'>In this example, the correct answer is the <b>LEFT arrow</b>.</p></div><p>Are you ready? <b>Press ENTER to start</b></p>"	n/a	n/a	n/a	n/a	n/a	n/a	n/a	n/a	n/a	n/a
n/a	"html-keyboard-response"	"7"	"62896"	"0.0-4.0-1.0-2.0-0.0"	"negn55"	"600"	"1366"	"chrome"	"110.0.0"	"FALSE"	"Windows 10"	"60.53"	"034"	n/a	n/a	n/a	n/a	n/a	n/a	"fixation"	n/a	n/a	n/a	n/a	"NULL"	n/a	"NULL"	"NULL"	"NULL"	"<p style=\"color: black; font-size: 80px; padding-left: 20%; padding-right: 31%; padding-top: 28%; padding-bottom: 26%\">+</p>"	"1247"	n/a	n/a	n/a	n/a	n/a	n/a	n/a	n/a	n/a
n/a	"image-keyboard-response"	"8"	"66180"	"0.0-4.0-1.0-2.0-1.0"	"negn55"	"600"	"1366"	"chrome"	"110.0.0"	"FALSE"	"Windows 10"	"60.53"	"034"	n/a	n/a	n/a	n/a	n/a	n/a	"Trial"	n/a	n/a	n/a	"3275"	"arrowright"	n/a	"NULL"	"NULL"	"NULL"	"stimuli/Ebbinghaus_1000000_-1.4000.png"	n/a	"Ebbinghaus"	"arrowright"	"1759"	"TRUE"	"Ebbinghaus"	"100000000000"	"-1.400000000"	"1"	"1"
n/a	"html-keyboard-response"	"9"	"67664"	"0.0-4.0-1.0-2.0-0.1"	"negn55"	"600"	"1366"	"chrome"	"110.0.0"	"FALSE"	"Windows 10"	"60.53"	"034"	n/a	n/a	n/a	n/a	n/a	n/a	"fixation"	n/a	n/a	n/a	n/a	"NULL"	n/a	"NULL"	"NULL"	"NULL"	"<p style=\"color: black; font-size: 80px; padding-left: 37%; padding-right: 3%; padding-top: 15%; padding-bottom: 3%\">+</p>"	"1481"	n/a	n/a	n/a	n/a	n/a	n/a	n/a	n/a	n/a
n/a	"image-keyboard-response"	"10"	"68574"	"0.0-4.0-1.0-2.0-1.1"	"negn55"	"600"	"1366"	"chrome"	"110.0.0"	"FALSE"	"Windows 10"	"60.53"	"034"	n/a	n/a	n/a	n/a	n/a	n/a	"Trial"	n/a	n/a	n/a	"909"	"arrowright"	n/a	"NULL"	"NULL"	"NULL"	"stimuli/Ebbinghaus_-100000_-1.4000.png"	n/a	"Ebbinghaus"	"arrowright"	"1484"	"TRUE"	"Ebbinghaus"	"-10000000000"	"-1.400000000"	"1"	"2"
n/a	"html-keyboard-response"	"11"	"70002"	"0.0-4.0-1.0-2.0-0.2"	"negn55"	"600"	"1366"	"chrome"	"110.0.0"	"FALSE"	"Windows 10"	"60.53"	"034"	n/a	n/a	n/a	n/a	n/a	n/a	"fixation"	n/a	n/a	n/a	n/a	"NULL"	n/a	"NULL"	"NULL"	"NULL"	"<p style=\"color: black; font-size: 80px; padding-left: 27%; padding-right: 18%; padding-top: 14%; padding-bottom: 47%\">+</p>"	"1415"	n/a	n/a	n/a	n/a	n/a	n/a	n/a	n/a	n/a
n/a	"image-keyboard-response"	"12"	"70452"	"0.0-4.0-1.0-2.0-1.2"	"negn55"	"600"	"1366"	"chrome"	"110.0.0"	"FALSE"	"Windows 10"	"60.53"	"034"	n/a	n/a	n/a	n/a	n/a	n/a	"Trial"	n/a	n/a	n/a	"450"	"arrowleft"	n/a	"NULL"	"NULL"	"NULL"	"stimuli/Ebbinghaus_1000000_1.40000.png"	n/a	"Ebbinghaus"	"arrowleft"	"1428"	"TRUE"	"Ebbinghaus"	"100000000000"	"1.4000000000"	"1"	"3"
n/a	"html-keyboard-response"	"13"	"71511"	"0.0-4.0-1.0-2.0-0.3"	"negn55"	"600"	"1366"	"chrome"	"110.0.0"	"FALSE"	"Windows 10"	"60.53"	"034"	n/a	n/a	n/a	n/a	n/a	n/a	"fixation"	n/a	n/a	n/a	n/a	"NULL"	n/a	"NULL"	"NULL"	"NULL"	"<p style=\"color: black; font-size: 80px; padding-left: 41%; padding-right: 29%; padding-top: 49%; padding-bottom: 35%\">+</p>"	"1042"	n/a	n/a	n/a	n/a	n/a	n/a	n/a	n/a	n/a
n/a	"image-keyboard-response"	"14"	"72228"	"0.0-4.0-1.0-2.0-1.3"	"negn55"	"600"	"1366"	"chrome"	"110.0.0"	"FALSE"	"Windows 10"	"60.53"	"034"	n/a	n/a	n/a	n/a	n/a	n/a	"Trial"	n/a	n/a	n/a	"717"	"arrowleft"	n/a	"NULL"	"NULL"	"NULL"	"stimuli/Ebbinghaus_-100000_1.40000.png"	n/a	"Ebbinghaus"	"arrowleft"	"1059"	"TRUE"	"Ebbinghaus"	"-10000000000"	"1.4000000000"	"1"	"4"
n/a	"html-keyboard-response"	"15"	"73302"	"0.0-4.0-1.0-2.0-0.4"	"negn55"	"600"	"1366"	"chrome"	"110.0.0"	"FALSE"	"Windows 10"	"60.53"	"034"	n/a	n/a	n/a	n/a	n/a	n/a	"fixation"	n/a	n/a	n/a	n/a	"NULL"	n/a	"NULL"	"NULL"	"NULL"	"<p style=\"color: black; font-size: 80px; padding-left: 4%; padding-right: 22%; padding-top: 15%; padding-bottom: 46%\">+</p>"	"1069"	n/a	n/a	n/a	n/a	n/a	n/a	n/a	n/a	n/a
n/a	"image-keyboard-response"	"16"	"73735"	"0.0-4.0-1.0-2.0-1.4"	"negn55"	"600"	"1366"	"chrome"	"110.0.0"	"FALSE"	"Windows 10"	"60.53"	"034"	n/a	n/a	n/a	n/a	n/a	n/a	"Trial"	n/a	n/a	n/a	"432"	"arrowleft"	n/a	"NULL"	"NULL"	"NULL"	"stimuli/Ebbinghaus_0000000_1.40000.png"	n/a	"Ebbinghaus"	"arrowleft"	"1074"	"TRUE"	"Ebbinghaus"	"000000000000"	"1.4000000000"	"1"	"5"
n/a	"html-keyboard-response"	"17"	"75032"	"0.0-4.0-1.0-2.0-0.5"	"negn55"	"600"	"1366"	"chrome"	"110.0.0"	"FALSE"	"Windows 10"	"60.53"	"034"	n/a	n/a	n/a	n/a	n/a	n/a	"fixation"	n/a	n/a	n/a	n/a	"NULL"	n/a	"NULL"	"NULL"	"NULL"	"<p style=\"color: black; font-size: 80px; padding-left: 21%; padding-right: 44%; padding-top: 45%; padding-bottom: 29%\">+</p>"	"1291"	n/a	n/a	n/a	n/a	n/a	n/a	n/a	n/a	n/a
n/a	"image-keyboard-response"	"18"	"75460"	"0.0-4.0-1.0-2.0-1.5"	"negn55"	"600"	"1366"	"chrome"	"110.0.0"	"FALSE"	"Windows 10"	"60.53"	"034"	n/a	n/a	n/a	n/a	n/a	n/a	"Trial"	n/a	n/a	n/a	"427"	"arrowright"	n/a	"NULL"	"NULL"	"NULL"	"stimuli/Ebbinghaus_0000000_-1.4000.png"	n/a	"Ebbinghaus"	"arrowright"	"1297"	"TRUE"	"Ebbinghaus"	"000000000000"	"-1.400000000"	"1"	"6"
n/a	"html-button-response"	"19"	"88289"	"0.0-4.0-1.0-3.0"	"negn55"	"600"	"1366"	"chrome"	"110.0.0"	"FALSE"	"Windows 10"	"60.53"	"034"	n/a	n/a	n/a	n/a	n/a	n/a	"practice_block_results"	n/a	n/a	n/a	"12827"	"0"	n/a	"NULL"	"NULL"	"NULL"	"<p style='color:rgb(76,175,80);'> Correct Responses: <b>100.00%</b></p><hr><p style='color:rgb(233,30,99);'> Average Response Time: <b>1035.00</b> ms.</p>"	n/a	n/a	n/a	n/a	n/a	n/a	n/a	n/a	n/a	n/a
"TRUE"	"preload"	"20"	"88804"	"0.0-4.0-2.0-0.0"	"negn55"	"600"	"1366"	"chrome"	"110.0.0"	"FALSE"	"Windows 10"	"60.53"	"034"	n/a	n/a	n/a	n/a	n/a	n/a	n/a	n/a	n/a	n/a	n/a	"NULL"	"FALSE"	"list()"	"list()"	"list()"	n/a	n/a	n/a	n/a	n/a	n/a	n/a	n/a	n/a	n/a	n/a
n/a	"html-keyboard-response"	"21"	"96386"	"0.0-4.0-2.0-1.0"	"negn55"	"600"	"1366"	"chrome"	"110.0.0"	"FALSE"	"Windows 10"	"60.53"	"034"	n/a	n/a	n/a	n/a	n/a	n/a	n/a	n/a	n/a	n/a	"7581"	"enter"	n/a	"NULL"	"NULL"	"NULL"	"<p><b>Practice</b></p><p>In this part, two horizontal red lines will appear one above the other.</p><p>Your task is to select which <b>line is longer</b> in length as fast as you can, without making errors.</p><p>Don't get distracted by the surrounding black arrows at the end of the red lines!</p><p>Press <b>the UP or the DOWN arrow</b> to indicate where is the longer <b>red line.</b></p><div style='float: center'><img src='materials/instructions/MullerLyer_Demo.png' height='300'></img><p><img src='utils/answer/answer_updown_keyboard.PNG' height='150'></img></p><p class='small'>In this example, the correct answer is the <b>UP arrow</b>.</p></div><p>Are you ready? <b>Press ENTER to start</b></p>"	n/a	n/a	n/a	n/a	n/a	n/a	n/a	n/a	n/a	n/a
n/a	"html-keyboard-response"	"22"	"98048"	"0.0-4.0-2.0-2.0-0.0"	"negn55"	"600"	"1366"	"chrome"	"110.0.0"	"FALSE"	"Windows 10"	"60.53"	"034"	n/a	n/a	n/a	n/a	n/a	n/a	"fixation"	n/a	n/a	n/a	n/a	"NULL"	n/a	"NULL"	"NULL"	"NULL"	"<p style=\"color: black; font-size: 80px; padding-left: 29%; padding-right: 17%; padding-top: 38%; padding-bottom: 47%\">+</p>"	"1149"	n/a	n/a	n/a	n/a	n/a	n/a	n/a	n/a	n/a
n/a	"image-keyboard-response"	"23"	"98634"	"0.0-4.0-2.0-2.0-1.0"	"negn55"	"600"	"1366"	"chrome"	"110.0.0"	"FALSE"	"Windows 10"	"60.53"	"034"	n/a	n/a	n/a	n/a	n/a	n/a	"Trial"	n/a	n/a	n/a	"585"	"arrowup"	n/a	"NULL"	"NULL"	"NULL"	"stimuli/MullerLyer_0000000_0.70000.png"	n/a	"MullerLyer"	"arrowup"	"1662"	"TRUE"	"MullerLyer"	"000000000000"	"0.7000000000"	"1"	"7"
n/a	"html-keyboard-response"	"24"	"100030"	"0.0-4.0-2.0-2.0-0.1"	"negn55"	"600"	"1366"	"chrome"	"110.0.0"	"FALSE"	"Windows 10"	"60.53"	"034"	n/a	n/a	n/a	n/a	n/a	n/a	"fixation"	n/a	n/a	n/a	n/a	"NULL"	n/a	"NULL"	"NULL"	"NULL"	"<p style=\"color: black; font-size: 80px; padding-left: 29%; padding-right: 42%; padding-top: 21%; padding-bottom: 22%\">+</p>"	"1380"	n/a	n/a	n/a	n/a	n/a	n/a	n/a	n/a	n/a
n/a	"image-keyboard-response"	"25"	"100643"	"0.0-4.0-2.0-2.0-1.1"	"negn55"	"600"	"1366"	"chrome"	"110.0.0"	"FALSE"	"Windows 10"	"60.53"	"034"	n/a	n/a	n/a	n/a	n/a	n/a	"Trial"	n/a	n/a	n/a	"613"	"arrowdown"	n/a	"NULL"	"NULL"	"NULL"	"stimuli/MullerLyer_2300000_-0.7000.png"	n/a	"MullerLyer"	"arrowdown"	"1396"	"TRUE"	"MullerLyer"	"230000000000"	"-0.700000000"	"1"	"8"
n/a	"html-keyboard-response"	"26"	"102060"	"0.0-4.0-2.0-2.0-0.2"	"negn55"	"600"	"1366"	"chrome"	"110.0.0"	"FALSE"	"Windows 10"	"60.53"	"034"	n/a	n/a	n/a	n/a	n/a	n/a	"fixation"	n/a	n/a	n/a	n/a	"NULL"	n/a	"NULL"	"NULL"	"NULL"	"<p style=\"color: black; font-size: 80px; padding-left: 43%; padding-right: 4%; padding-top: 29%; padding-bottom: 9%\">+</p>"	"1400"	n/a	n/a	n/a	n/a	n/a	n/a	n/a	n/a	n/a
n/a	"image-keyboard-response"	"27"	"102645"	"0.0-4.0-2.0-2.0-1.2"	"negn55"	"600"	"1366"	"chrome"	"110.0.0"	"FALSE"	"Windows 10"	"60.53"	"034"	n/a	n/a	n/a	n/a	n/a	n/a	"Trial"	n/a	n/a	n/a	"585"	"arrowdown"	n/a	"NULL"	"NULL"	"NULL"	"stimuli/MullerLyer_-230000_-0.7000.png"	n/a	"MullerLyer"	"arrowdown"	"1417"	"TRUE"	"MullerLyer"	"-23000000000"	"-0.700000000"	"1"	"9"
n/a	"html-keyboard-response"	"28"	"103917"	"0.0-4.0-2.0-2.0-0.3"	"negn55"	"600"	"1366"	"chrome"	"110.0.0"	"FALSE"	"Windows 10"	"60.53"	"034"	n/a	n/a	n/a	n/a	n/a	n/a	"fixation"	n/a	n/a	n/a	n/a	"NULL"	n/a	"NULL"	"NULL"	"NULL"	"<p style=\"color: black; font-size: 80px; padding-left: 13%; padding-right: 32%; padding-top: 43%; padding-bottom: 13%\">+</p>"	"1263"	n/a	n/a	n/a	n/a	n/a	n/a	n/a	n/a	n/a
n/a	"image-keyboard-response"	"29"	"104425"	"0.0-4.0-2.0-2.0-1.3"	"negn55"	"600"	"1366"	"chrome"	"110.0.0"	"FALSE"	"Windows 10"	"60.53"	"034"	n/a	n/a	n/a	n/a	n/a	n/a	"Trial"	n/a	n/a	n/a	"508"	"arrowup"	n/a	"NULL"	"NULL"	"NULL"	"stimuli/MullerLyer_2300000_0.70000.png"	n/a	"MullerLyer"	"arrowup"	"1272"	"TRUE"	"MullerLyer"	"230000000000"	"0.7000000000"	"1"	"10"
n/a	"html-keyboard-response"	"30"	"105458"	"0.0-4.0-2.0-2.0-0.4"	"negn55"	"600"	"1366"	"chrome"	"110.0.0"	"FALSE"	"Windows 10"	"60.53"	"034"	n/a	n/a	n/a	n/a	n/a	n/a	"fixation"	n/a	n/a	n/a	n/a	"NULL"	n/a	"NULL"	"NULL"	"NULL"	"<p style=\"color: black; font-size: 80px; padding-left: 35%; padding-right: 35%; padding-top: 2%; padding-bottom: 20%\">+</p>"	"1027"	n/a	n/a	n/a	n/a	n/a	n/a	n/a	n/a	n/a
n/a	"image-keyboard-response"	"31"	"105922"	"0.0-4.0-2.0-2.0-1.4"	"negn55"	"600"	"1366"	"chrome"	"110.0.0"	"FALSE"	"Windows 10"	"60.53"	"034"	n/a	n/a	n/a	n/a	n/a	n/a	"Trial"	n/a	n/a	n/a	"463"	"arrowdown"	n/a	"NULL"	"NULL"	"NULL"	"stimuli/MullerLyer_0000000_-0.7000.png"	n/a	"MullerLyer"	"arrowdown"	"1033"	"TRUE"	"MullerLyer"	"000000000000"	"-0.700000000"	"1"	"11"
n/a	"html-keyboard-response"	"32"	"106966"	"0.0-4.0-2.0-2.0-0.5"	"negn55"	"600"	"1366"	"chrome"	"110.0.0"	"FALSE"	"Windows 10"	"60.53"	"034"	n/a	n/a	n/a	n/a	n/a	n/a	"fixation"	n/a	n/a	n/a	n/a	"NULL"	n/a	"NULL"	"NULL"	"NULL"	"<p style=\"color: black; font-size: 80px; padding-left: 5%; padding-right: 30%; padding-top: 0%; padding-bottom: 36%\">+</p>"	"1040"	n/a	n/a	n/a	n/a	n/a	n/a	n/a	n/a	n/a
n/a	"image-keyboard-response"	"33"	"107368"	"0.0-4.0-2.0-2.0-1.5"	"negn55"	"600"	"1366"	"chrome"	"110.0.0"	"FALSE"	"Windows 10"	"60.53"	"034"	n/a	n/a	n/a	n/a	n/a	n/a	"Trial"	n/a	n/a	n/a	"402"	"arrowup"	n/a	"NULL"	"NULL"	"NULL"	"stimuli/MullerLyer_-230000_0.70000.png"	n/a	"MullerLyer"	"arrowup"	"1044"	"TRUE"	"MullerLyer"	"-23000000000"	"0.7000000000"	"1"	"12"
n/a	"html-button-response"	"34"	"110592"	"0.0-4.0-2.0-3.0"	"negn55"	"600"	"1366"	"chrome"	"110.0.0"	"FALSE"	"Windows 10"	"60.53"	"034"	n/a	n/a	n/a	n/a	n/a	n/a	"practice_block_results"	n/a	n/a	n/a	"3223"	"0"	n/a	"NULL"	"NULL"	"NULL"	"<p style='color:rgb(76,175,80);'> Correct Responses: <b>100.00%</b></p><hr><p style='color:rgb(233,30,99);'> Average Response Time: <b>526.00</b> ms.</p>"	n/a	n/a	n/a	n/a	n/a	n/a	n/a	n/a	n/a	n/a
"TRUE"	"preload"	"35"	"111117"	"0.0-4.0-3.0-0.0"	"negn55"	"600"	"1366"	"chrome"	"110.0.0"	"FALSE"	"Windows 10"	"60.53"	"034"	n/a	n/a	n/a	n/a	n/a	n/a	n/a	n/a	n/a	n/a	n/a	"NULL"	"FALSE"	"list()"	"list()"	"list()"	n/a	n/a	n/a	n/a	n/a	n/a	n/a	n/a	n/a	n/a	n/a
n/a	"html-keyboard-response"	"36"	"116141"	"0.0-4.0-3.0-1.0"	"negn55"	"600"	"1366"	"chrome"	"110.0.0"	"FALSE"	"Windows 10"	"60.53"	"034"	n/a	n/a	n/a	n/a	n/a	n/a	n/a	n/a	n/a	n/a	"5024"	"enter"	n/a	"NULL"	"NULL"	"NULL"	"<p><b>Practice</b></p><p>In this part, two red lines will appear side by side.</p><p>Your task is to tell <b>which line is longer</b> in length, regardless of their orientation, as fast as you can, and without making errors.</p><p>Don't get distracted by the orientation of the lines!</p><p>Press <b>the LEFT or the RIGHT arrow</b> to indicate which <b>line is the longer one.</b></p><div style='float: center'><img src='materials/instructions/VerticalHorizontal_Demo.png' height='300'></img><p><img src='utils/answer/answer_leftright_keyboard.PNG' height='150'></img></p><p class='small'>In this example, the correct answer is the <b>LEFT arrow</b>.</p></div><p>Are you ready? <b>Press ENTER to start</b></p>"	n/a	n/a	n/a	n/a	n/a	n/a	n/a	n/a	n/a	n/a
n/a	"html-keyboard-response"	"37"	"117681"	"0.0-4.0-3.0-2.0-0.0"	"negn55"	"600"	"1366"	"chrome"	"110.0.0"	"FALSE"	"Windows 10"	"60.53"	"034"	n/a	n/a	n/a	n/a	n/a	n/a	"fixation"	n/a	n/a	n/a	n/a	"NULL"	n/a	"NULL"	"NULL"	"NULL"	"<p style=\"color: black; font-size: 80px; padding-left: 18%; padding-right: 48%; padding-top: 2%; padding-bottom: 11%\">+</p>"	"1020"	n/a	n/a	n/a	n/a	n/a	n/a	n/a	n/a	n/a
n/a	"image-keyboard-response"	"38"	"118273"	"0.0-4.0-3.0-2.0-1.0"	"negn55"	"600"	"1366"	"chrome"	"110.0.0"	"FALSE"	"Windows 10"	"60.53"	"034"	n/a	n/a	n/a	n/a	n/a	n/a	"Trial"	n/a	n/a	n/a	"591"	"arrowleft"	n/a	"NULL"	"NULL"	"NULL"	"stimuli/VerticalHorizontal_3300000_0.90000.png"	n/a	"VerticalHorizontal"	"arrowleft"	"1540"	"TRUE"	"VerticalHorizontal"	"330000000000"	"0.9000000000"	"1"	"13"
n/a	"html-keyboard-response"	"39"	"119574"	"0.0-4.0-3.0-2.0-0.1"	"negn55"	"600"	"1366"	"chrome"	"110.0.0"	"FALSE"	"Windows 10"	"60.53"	"034"	n/a	n/a	n/a	n/a	n/a	n/a	"fixation"	n/a	n/a	n/a	n/a	"NULL"	n/a	"NULL"	"NULL"	"NULL"	"<p style=\"color: black; font-size: 80px; padding-left: 3%; padding-right: 2%; padding-top: 1%; padding-bottom: 42%\">+</p>"	"1297"	n/a	n/a	n/a	n/a	n/a	n/a	n/a	n/a	n/a
n/a	"image-keyboard-response"	"40"	"120050"	"0.0-4.0-3.0-2.0-1.1"	"negn55"	"600"	"1366"	"chrome"	"110.0.0"	"FALSE"	"Windows 10"	"60.53"	"034"	n/a	n/a	n/a	n/a	n/a	n/a	"Trial"	n/a	n/a	n/a	"475"	"arrowright"	n/a	"NULL"	"NULL"	"NULL"	"stimuli/VerticalHorizontal_3300000_-0.9000.png"	n/a	"VerticalHorizontal"	"arrowright"	"1301"	"TRUE"	"VerticalHorizontal"	"330000000000"	"-0.900000000"	"1"	"14"
n/a	"html-keyboard-response"	"41"	"121282"	"0.0-4.0-3.0-2.0-0.2"	"negn55"	"600"	"1366"	"chrome"	"110.0.0"	"FALSE"	"Windows 10"	"60.53"	"034"	n/a	n/a	n/a	n/a	n/a	n/a	"fixation"	n/a	n/a	n/a	n/a	"NULL"	n/a	"NULL"	"NULL"	"NULL"	"<p style=\"color: black; font-size: 80px; padding-left: 35%; padding-right: 13%; padding-top: 33%; padding-bottom: 11%\">+</p>"	"1230"	n/a	n/a	n/a	n/a	n/a	n/a	n/a	n/a	n/a
n/a	"image-keyboard-response"	"42"	"121684"	"0.0-4.0-3.0-2.0-1.2"	"negn55"	"600"	"1366"	"chrome"	"110.0.0"	"FALSE"	"Windows 10"	"60.53"	"034"	n/a	n/a	n/a	n/a	n/a	n/a	"Trial"	n/a	n/a	n/a	"402"	"arrowleft"	n/a	"NULL"	"NULL"	"NULL"	"stimuli/VerticalHorizontal_-330000_0.90000.png"	n/a	"VerticalHorizontal"	"arrowleft"	"1232"	"TRUE"	"VerticalHorizontal"	"-33000000000"	"0.9000000000"	"1"	"15"
n/a	"html-keyboard-response"	"43"	"122715"	"0.0-4.0-3.0-2.0-0.3"	"negn55"	"600"	"1366"	"chrome"	"110.0.0"	"FALSE"	"Windows 10"	"60.53"	"034"	n/a	n/a	n/a	n/a	n/a	n/a	"fixation"	n/a	n/a	n/a	n/a	"NULL"	n/a	"NULL"	"NULL"	"NULL"	"<p style=\"color: black; font-size: 80px; padding-left: 34%; padding-right: 47%; padding-top: 40%; padding-bottom: 46%\">+</p>"	"1024"	n/a	n/a	n/a	n/a	n/a	n/a	n/a	n/a	n/a
n/a	"image-keyboard-response"	"44"	"123192"	"0.0-4.0-3.0-2.0-1.3"	"negn55"	"600"	"1366"	"chrome"	"110.0.0"	"FALSE"	"Windows 10"	"60.53"	"034"	n/a	n/a	n/a	n/a	n/a	n/a	"Trial"	n/a	n/a	n/a	"477"	"arrowleft"	n/a	"NULL"	"NULL"	"NULL"	"stimuli/VerticalHorizontal_0000000_0.90000.png"	n/a	"VerticalHorizontal"	"arrowleft"	"1031"	"TRUE"	"VerticalHorizontal"	"000000000000"	"0.9000000000"	"1"	"16"
n/a	"html-keyboard-response"	"45"	"124315"	"0.0-4.0-3.0-2.0-0.4"	"negn55"	"600"	"1366"	"chrome"	"110.0.0"	"FALSE"	"Windows 10"	"60.53"	"034"	n/a	n/a	n/a	n/a	n/a	n/a	"fixation"	n/a	n/a	n/a	n/a	"NULL"	n/a	"NULL"	"NULL"	"NULL"	"<p style=\"color: black; font-size: 80px; padding-left: 46%; padding-right: 8%; padding-top: 9%; padding-bottom: 5%\">+</p>"	"1115"	n/a	n/a	n/a	n/a	n/a	n/a	n/a	n/a	n/a
n/a	"image-keyboard-response"	"46"	"124715"	"0.0-4.0-3.0-2.0-1.4"	"negn55"	"600"	"1366"	"chrome"	"110.0.0"	"FALSE"	"Windows 10"	"60.53"	"034"	n/a	n/a	n/a	n/a	n/a	n/a	"Trial"	n/a	n/a	n/a	"399"	"arrowright"	n/a	"NULL"	"NULL"	"NULL"	"stimuli/VerticalHorizontal_-330000_-0.9000.png"	n/a	"VerticalHorizontal"	"arrowright"	"1123"	"TRUE"	"VerticalHorizontal"	"-33000000000"	"-0.900000000"	"1"	"17"
n/a	"html-keyboard-response"	"47"	"125949"	"0.0-4.0-3.0-2.0-0.5"	"negn55"	"600"	"1366"	"chrome"	"110.0.0"	"FALSE"	"Windows 10"	"60.53"	"034"	n/a	n/a	n/a	n/a	n/a	n/a	"fixation"	n/a	n/a	n/a	n/a	"NULL"	n/a	"NULL"	"NULL"	"NULL"	"<p style=\"color: black; font-size: 80px; padding-left: 14%; padding-right: 36%; padding-top: 34%; padding-bottom: 47%\">+</p>"	"1220"	n/a	n/a	n/a	n/a	n/a	n/a	n/a	n/a	n/a
n/a	"image-keyboard-response"	"48"	"126405"	"0.0-4.0-3.0-2.0-1.5"	"negn55"	"600"	"1366"	"chrome"	"110.0.0"	"FALSE"	"Windows 10"	"60.53"	"034"	n/a	n/a	n/a	n/a	n/a	n/a	"Trial"	n/a	n/a	n/a	"455"	"arrowright"	n/a	"NULL"	"NULL"	"NULL"	"stimuli/VerticalHorizontal_0000000_-0.9000.png"	n/a	"VerticalHorizontal"	"arrowright"	"1234"	"TRUE"	"VerticalHorizontal"	"000000000000"	"-0.900000000"	"1"	"18"
n/a	"html-button-response"	"49"	"129025"	"0.0-4.0-3.0-3.0"	"negn55"	"600"	"1366"	"chrome"	"110.0.0"	"FALSE"	"Windows 10"	"60.53"	"034"	n/a	n/a	n/a	n/a	n/a	n/a	"practice_block_results"	n/a	n/a	n/a	"2619"	"0"	n/a	"NULL"	"NULL"	"NULL"	"<p style='color:rgb(76,175,80);'> Correct Responses: <b>100.00%</b></p><hr><p style='color:rgb(233,30,99);'> Average Response Time: <b>466.50</b> ms.</p>"	n/a	n/a	n/a	n/a	n/a	n/a	n/a	n/a	n/a	n/a
n/a	"html-button-response"	"50"	"208713"	"0.0-4.0-4.0"	"negn55"	"600"	"1366"	"chrome"	"110.0.0"	"FALSE"	"Windows 10"	"60.53"	"034"	n/a	n/a	n/a	n/a	n/a	n/a	"practice_debrief"	n/a	n/a	n/a	"79184"	"0"	n/a	"NULL"	"NULL"	"NULL"	"<p><b>TRAINING COMPLETED</b></p><p>In the next phase, there will be more trials, and some might be harder too.<br> Moreover, after each illusion block, a <b>score</b> will be calculated based on speed (time you took to answer) and accuracy (number of errors).</p><p>Try to keep up a high score!</p><br><p>Note that it can be <i>really</i> challenging at times, so you will need to rely on your <b>intuition</b> and gut feeling to answer as fast as you can without making errors.</p><p>Each illusion block will be repeated two times (so that you have the opportunity to improve your score), but the order of the blocks is random.</p><p>Remember, your goal is to be as <b>fast</b> and <b>accurate</b> as possible. Good luck!</p><br>"	n/a	n/a	n/a	n/a	n/a	n/a	n/a	n/a	n/a	n/a
"TRUE"	"preload"	"51"	"208854"	"0.0-5.0-0.0"	"negn55"	"600"	"1366"	"chrome"	"110.0.0"	"FALSE"	"Windows 10"	"60.53"	"034"	n/a	n/a	n/a	n/a	n/a	n/a	n/a	n/a	n/a	n/a	n/a	"NULL"	"FALSE"	"list()"	"list()"	"list()"	n/a	n/a	n/a	n/a	n/a	n/a	n/a	n/a	n/a	n/a	n/a
n/a	"html-keyboard-response"	"52"	"214043"	"0.0-5.0-1.0"	"negn55"	"600"	"1366"	"chrome"	"110.0.0"	"FALSE"	"Windows 10"	"60.53"	"034"	n/a	n/a	n/a	n/a	n/a	n/a	n/a	n/a	n/a	n/a	"5188"	"enter"	n/a	"NULL"	"NULL"	"NULL"	"<p><b>Part 1/6</b></p><p>In this part, two red lines will appear side by side.</p><p>Your task is to tell <b>which line is longer</b> in length, regardless of their orientation, as fast as you can, and without making errors.</p><p>Don't get distracted by the orientation of the lines!</p><p>Press <b>the LEFT or the RIGHT arrow</b> to indicate which <b>line is the longer one.</b></p><div style='float: center'><img src='materials/instructions/VerticalHorizontal_Demo.png' height='300'></img><p><img src='utils/answer/answer_leftright_keyboard.PNG' height='150'></img></p><p class='small'>In this example, the correct answer is the <b>LEFT arrow</b>.</p></div><p>Are you ready? <b>Press ENTER to start</b></p>"	n/a	n/a	n/a	n/a	n/a	n/a	n/a	n/a	n/a	n/a
n/a	"html-keyboard-response"	"53"	"216031"	"0.0-5.0-2.0-0.0"	"negn55"	"600"	"1366"	"chrome"	"110.0.0"	"FALSE"	"Windows 10"	"60.53"	"034"	n/a	n/a	n/a	n/a	n/a	n/a	"fixation"	n/a	n/a	n/a	n/a	"NULL"	n/a	"NULL"	"NULL"	"NULL"	"<p style=\"color: black; font-size: 80px; padding-left: 27%; padding-right: 49%; padding-top: 1%; padding-bottom: 13%\">+</p>"	"1463"	n/a	n/a	n/a	n/a	n/a	n/a	n/a	n/a	n/a
n/a	"image-keyboard-response"	"54"	"216748"	"0.0-5.0-2.0-1.0"	"negn55"	"600"	"1366"	"chrome"	"110.0.0"	"FALSE"	"Windows 10"	"60.53"	"034"	n/a	n/a	n/a	n/a	n/a	n/a	"Trial"	n/a	n/a	n/a	"716"	"arrowright"	n/a	"NULL"	"NULL"	"NULL"	"stimuli/VerticalHorizontal_-3.3000_-0.2250.png"	n/a	"VerticalHorizontal"	"arrowright"	"1988"	"TRUE"	"VerticalHorizontal"	"-3.300000000"	"-0.225000000"	"1"	"19"
n/a	"html-keyboard-response"	"55"	"217760"	"0.0-5.0-2.0-0.1"	"negn55"	"600"	"1366"	"chrome"	"110.0.0"	"FALSE"	"Windows 10"	"60.53"	"034"	n/a	n/a	n/a	n/a	n/a	n/a	"fixation"	n/a	n/a	n/a	n/a	"NULL"	n/a	"NULL"	"NULL"	"NULL"	"<p style=\"color: black; font-size: 80px; padding-left: 34%; padding-right: 30%; padding-top: 16%; padding-bottom: 9%\">+</p>"	"1004"	n/a	n/a	n/a	n/a	n/a	n/a	n/a	n/a	n/a
n/a	"image-keyboard-response"	"56"	"218408"	"0.0-5.0-2.0-1.1"	"negn55"	"600"	"1366"	"chrome"	"110.0.0"	"FALSE"	"Windows 10"	"60.53"	"034"	n/a	n/a	n/a	n/a	n/a	n/a	"Trial"	n/a	n/a	n/a	"647"	"arrowright"	n/a	"NULL"	"NULL"	"NULL"	"stimuli/VerticalHorizontal_3.30000_-0.16217.png"	n/a	"VerticalHorizontal"	"arrowright"	"1012"	"TRUE"	"VerticalHorizontal"	"3.3000000000"	"-0.162170000"	"1"	"20"
n/a	"html-keyboard-response"	"57"	"219437"	"0.0-5.0-2.0-0.2"	"negn55"	"600"	"1366"	"chrome"	"110.0.0"	"FALSE"	"Windows 10"	"60.53"	"034"	n/a	n/a	n/a	n/a	n/a	n/a	"fixation"	n/a	n/a	n/a	n/a	"NULL"	n/a	"NULL"	"NULL"	"NULL"	"<p style=\"color: black; font-size: 80px; padding-left: 8%; padding-right: 34%; padding-top: 42%; padding-bottom: 27%\">+</p>"	"1023"	n/a	n/a	n/a	n/a	n/a	n/a	n/a	n/a	n/a
n/a	"image-keyboard-response"	"58"	"219875"	"0.0-5.0-2.0-1.2"	"negn55"	"600"	"1366"	"chrome"	"110.0.0"	"FALSE"	"Windows 10"	"60.53"	"034"	n/a	n/a	n/a	n/a	n/a	n/a	"Trial"	n/a	n/a	n/a	"436"	"arrowright"	n/a	"NULL"	"NULL"	"NULL"	"stimuli/VerticalHorizontal_-20.27143_-0.0673.png"	n/a	"VerticalHorizontal"	"arrowright"	"1029"	"TRUE"	"VerticalHorizontal"	"-20.27143000"	"-0.067300000"	"1"	"21"
n/a	"html-keyboard-response"	"59"	"221168"	"0.0-5.0-2.0-0.3"	"negn55"	"600"	"1366"	"chrome"	"110.0.0"	"FALSE"	"Windows 10"	"60.53"	"034"	n/a	n/a	n/a	n/a	n/a	n/a	"fixation"	n/a	n/a	n/a	n/a	"NULL"	n/a	"NULL"	"NULL"	"NULL"	"<p style=\"color: black; font-size: 80px; padding-left: 17%; padding-right: 27%; padding-top: 16%; padding-bottom: 12%\">+</p>"	"1291"	n/a	n/a	n/a	n/a	n/a	n/a	n/a	n/a	n/a
n/a	"image-keyboard-response"	"60"	"221675"	"0.0-5.0-2.0-1.3"	"negn55"	"600"	"1366"	"chrome"	"110.0.0"	"FALSE"	"Windows 10"	"60.53"	"034"	n/a	n/a	n/a	n/a	n/a	n/a	"Trial"	n/a	n/a	n/a	"506"	"arrowright"	n/a	"NULL"	"NULL"	"NULL"	"stimuli/VerticalHorizontal_-20.27143_-0.1096.png"	n/a	"VerticalHorizontal"	"arrowright"	"1293"	"TRUE"	"VerticalHorizontal"	"-20.27143000"	"-0.109600000"	"1"	"22"
n/a	"html-keyboard-response"	"61"	"222702"	"0.0-5.0-2.0-0.4"	"negn55"	"600"	"1366"	"chrome"	"110.0.0"	"FALSE"	"Windows 10"	"60.53"	"034"	n/a	n/a	n/a	n/a	n/a	n/a	"fixation"	n/a	n/a	n/a	n/a	"NULL"	n/a	"NULL"	"NULL"	"NULL"	"<p style=\"color: black; font-size: 80px; padding-left: 33%; padding-right: 38%; padding-top: 48%; padding-bottom: 3%\">+</p>"	"1025"	n/a	n/a	n/a	n/a	n/a	n/a	n/a	n/a	n/a
n/a	"image-keyboard-response"	"62"	"223265"	"0.0-5.0-2.0-1.4"	"negn55"	"600"	"1366"	"chrome"	"110.0.0"	"FALSE"	"Windows 10"	"60.53"	"034"	n/a	n/a	n/a	n/a	n/a	n/a	"Trial"	n/a	n/a	n/a	"562"	"arrowright"	n/a	"NULL"	"NULL"	"NULL"	"stimuli/VerticalHorizontal_-11.78571_-0.0673.png"	n/a	"VerticalHorizontal"	"arrowright"	"1027"	"TRUE"	"VerticalHorizontal"	"-11.78571000"	"-0.067300000"	"1"	"23"
n/a	"html-keyboard-response"	"63"	"224484"	"0.0-5.0-2.0-0.5"	"negn55"	"600"	"1366"	"chrome"	"110.0.0"	"FALSE"	"Windows 10"	"60.53"	"034"	n/a	n/a	n/a	n/a	n/a	n/a	"fixation"	n/a	n/a	n/a	n/a	"NULL"	n/a	"NULL"	"NULL"	"NULL"	"<p style=\"color: black; font-size: 80px; padding-left: 7%; padding-right: 32%; padding-top: 9%; padding-bottom: 15%\">+</p>"	"1204"	n/a	n/a	n/a	n/a	n/a	n/a	n/a	n/a	n/a
n/a	"image-keyboard-response"	"64"	"224947"	"0.0-5.0-2.0-1.5"	"negn55"	"600"	"1366"	"chrome"	"110.0.0"	"FALSE"	"Windows 10"	"60.53"	"034"	n/a	n/a	n/a	n/a	n/a	n/a	"Trial"	n/a	n/a	n/a	"462"	"arrowright"	n/a	"NULL"	"NULL"	"NULL"	"stimuli/VerticalHorizontal_28.75714_0.06730.png"	n/a	"VerticalHorizontal"	"arrowleft"	"1219"	"FALSE"	"VerticalHorizontal"	"28.757140000"	"0.0673000000"	"1"	"24"
n/a	"html-keyboard-response"	"65"	"226310"	"0.0-5.0-2.0-0.6"	"negn55"	"600"	"1366"	"chrome"	"110.0.0"	"FALSE"	"Windows 10"	"60.53"	"034"	n/a	n/a	n/a	n/a	n/a	n/a	"fixation"	n/a	n/a	n/a	n/a	"NULL"	n/a	"NULL"	"NULL"	"NULL"	"<p style=\"color: black; font-size: 80px; padding-left: 48%; padding-right: 12%; padding-top: 40%; padding-bottom: 22%\">+</p>"	"1350"	n/a	n/a	n/a	n/a	n/a	n/a	n/a	n/a	n/a
n/a	"image-keyboard-response"	"66"	"226797"	"0.0-5.0-2.0-1.6"	"negn55"	"600"	"1366"	"chrome"	"110.0.0"	"FALSE"	"Windows 10"	"60.53"	"034"	n/a	n/a	n/a	n/a	n/a	n/a	"Trial"	n/a	n/a	n/a	"486"	"arrowleft"	n/a	"NULL"	"NULL"	"NULL"	"stimuli/VerticalHorizontal_20.27143_-0.0673.png"	n/a	"VerticalHorizontal"	"arrowright"	"1363"	"FALSE"	"VerticalHorizontal"	"20.271430000"	"-0.067300000"	"1"	"25"
n/a	"html-keyboard-response"	"67"	"228091"	"0.0-5.0-2.0-0.7"	"negn55"	"600"	"1366"	"chrome"	"110.0.0"	"FALSE"	"Windows 10"	"60.53"	"034"	n/a	n/a	n/a	n/a	n/a	n/a	"fixation"	n/a	n/a	n/a	n/a	"NULL"	n/a	"NULL"	"NULL"	"NULL"	"<p style=\"color: black; font-size: 80px; padding-left: 13%; padding-right: 23%; padding-top: 16%; padding-bottom: 37%\">+</p>"	"1281"	n/a	n/a	n/a	n/a	n/a	n/a	n/a	n/a	n/a
n/a	"image-keyboard-response"	"68"	"228690"	"0.0-5.0-2.0-1.7"	"negn55"	"600"	"1366"	"chrome"	"110.0.0"	"FALSE"	"Windows 10"	"60.53"	"034"	n/a	n/a	n/a	n/a	n/a	n/a	"Trial"	n/a	n/a	n/a	"599"	"arrowleft"	n/a	"NULL"	"NULL"	"NULL"	"stimuli/VerticalHorizontal_11.78571_0.10960.png"	n/a	"VerticalHorizontal"	"arrowleft"	"1294"	"TRUE"	"VerticalHorizontal"	"11.785710000"	"0.1096000000"	"1"	"26"
n/a	"html-keyboard-response"	"69"	"230014"	"0.0-5.0-2.0-0.8"	"negn55"	"600"	"1366"	"chrome"	"110.0.0"	"FALSE"	"Windows 10"	"60.53"	"034"	n/a	n/a	n/a	n/a	n/a	n/a	"fixation"	n/a	n/a	n/a	n/a	"NULL"	n/a	"NULL"	"NULL"	"NULL"	"<p style=\"color: black; font-size: 80px; padding-left: 22%; padding-right: 22%; padding-top: 28%; padding-bottom: 11%\">+</p>"	"1317"	n/a	n/a	n/a	n/a	n/a	n/a	n/a	n/a	n/a
n/a	"image-keyboard-response"	"70"	"230626"	"0.0-5.0-2.0-1.8"	"negn55"	"600"	"1366"	"chrome"	"110.0.0"	"FALSE"	"Windows 10"	"60.53"	"034"	n/a	n/a	n/a	n/a	n/a	n/a	"Trial"	n/a	n/a	n/a	"611"	"arrowright"	n/a	"NULL"	"NULL"	"NULL"	"stimuli/VerticalHorizontal_28.75714_0.10960.png"	n/a	"VerticalHorizontal"	"arrowleft"	"1324"	"FALSE"	"VerticalHorizontal"	"28.757140000"	"0.1096000000"	"1"	"27"
n/a	"html-keyboard-response"	"71"	"231772"	"0.0-5.0-2.0-0.9"	"negn55"	"600"	"1366"	"chrome"	"110.0.0"	"FALSE"	"Windows 10"	"60.53"	"034"	n/a	n/a	n/a	n/a	n/a	n/a	"fixation"	n/a	n/a	n/a	n/a	"NULL"	n/a	"NULL"	"NULL"	"NULL"	"<p style=\"color: black; font-size: 80px; padding-left: 27%; padding-right: 17%; padding-top: 6%; padding-bottom: 41%\">+</p>"	"1139"	n/a	n/a	n/a	n/a	n/a	n/a	n/a	n/a	n/a
n/a	"image-keyboard-response"	"72"	"232357"	"0.0-5.0-2.0-1.9"	"negn55"	"600"	"1366"	"chrome"	"110.0.0"	"FALSE"	"Windows 10"	"60.53"	"034"	n/a	n/a	n/a	n/a	n/a	n/a	"Trial"	n/a	n/a	n/a	"585"	"arrowleft"	n/a	"NULL"	"NULL"	"NULL"	"stimuli/VerticalHorizontal_-11.78571_0.06730.png"	n/a	"VerticalHorizontal"	"arrowleft"	"1146"	"TRUE"	"VerticalHorizontal"	"-11.78571000"	"0.0673000000"	"1"	"28"
n/a	"html-keyboard-response"	"73"	"233527"	"0.0-5.0-2.0-0.10"	"negn55"	"600"	"1366"	"chrome"	"110.0.0"	"FALSE"	"Windows 10"	"60.53"	"034"	n/a	n/a	n/a	n/a	n/a	n/a	"fixation"	n/a	n/a	n/a	n/a	"NULL"	n/a	"NULL"	"NULL"	"NULL"	"<p style=\"color: black; font-size: 80px; padding-left: 26%; padding-right: 39%; padding-top: 49%; padding-bottom: 16%\">+</p>"	"1165"	n/a	n/a	n/a	n/a	n/a	n/a	n/a	n/a	n/a
n/a	"image-keyboard-response"	"74"	"234086"	"0.0-5.0-2.0-1.10"	"negn55"	"600"	"1366"	"chrome"	"110.0.0"	"FALSE"	"Windows 10"	"60.53"	"034"	n/a	n/a	n/a	n/a	n/a	n/a	"Trial"	n/a	n/a	n/a	"558"	"arrowright"	n/a	"NULL"	"NULL"	"NULL"	"stimuli/VerticalHorizontal_28.75714_0.22500.png"	n/a	"VerticalHorizontal"	"arrowleft"	"1170"	"FALSE"	"VerticalHorizontal"	"28.757140000"	"0.2250000000"	"1"	"29"
n/a	"html-keyboard-response"	"75"	"235446"	"0.0-5.0-2.0-0.11"	"negn55"	"600"	"1366"	"chrome"	"110.0.0"	"FALSE"	"Windows 10"	"60.53"	"034"	n/a	n/a	n/a	n/a	n/a	n/a	"fixation"	n/a	n/a	n/a	n/a	"NULL"	n/a	"NULL"	"NULL"	"NULL"	"<p style=\"color: black; font-size: 80px; padding-left: 46%; padding-right: 27%; padding-top: 12%; padding-bottom: 1%\">+</p>"	"1345"	n/a	n/a	n/a	n/a	n/a	n/a	n/a	n/a	n/a
n/a	"image-keyboard-response"	"76"	"236151"	"0.0-5.0-2.0-1.11"	"negn55"	"600"	"1366"	"chrome"	"110.0.0"	"FALSE"	"Windows 10"	"60.53"	"034"	n/a	n/a	n/a	n/a	n/a	n/a	"Trial"	n/a	n/a	n/a	"703"	"arrowleft"	n/a	"NULL"	"NULL"	"NULL"	"stimuli/VerticalHorizontal_11.78571_-0.1096.png"	n/a	"VerticalHorizontal"	"arrowright"	"1360"	"FALSE"	"VerticalHorizontal"	"11.785710000"	"-0.109600000"	"1"	"30"
n/a	"html-keyboard-response"	"77"	"237245"	"0.0-5.0-2.0-0.12"	"negn55"	"600"	"1366"	"chrome"	"110.0.0"	"FALSE"	"Windows 10"	"60.53"	"034"	n/a	n/a	n/a	n/a	n/a	n/a	"fixation"	n/a	n/a	n/a	n/a	"NULL"	n/a	"NULL"	"NULL"	"NULL"	"<p style=\"color: black; font-size: 80px; padding-left: 2%; padding-right: 7%; padding-top: 1%; padding-bottom: 40%\">+</p>"	"1090"	n/a	n/a	n/a	n/a	n/a	n/a	n/a	n/a	n/a
n/a	"image-keyboard-response"	"78"	"237944"	"0.0-5.0-2.0-1.12"	"negn55"	"600"	"1366"	"chrome"	"110.0.0"	"FALSE"	"Windows 10"	"60.53"	"034"	n/a	n/a	n/a	n/a	n/a	n/a	"Trial"	n/a	n/a	n/a	"699"	"arrowleft"	n/a	"NULL"	"NULL"	"NULL"	"stimuli/VerticalHorizontal_-3.3000_0.06730.png"	n/a	"VerticalHorizontal"	"arrowleft"	"1094"	"TRUE"	"VerticalHorizontal"	"-3.300000000"	"0.0673000000"	"1"	"31"
n/a	"html-keyboard-response"	"79"	"239176"	"0.0-5.0-2.0-0.13"	"negn55"	"600"	"1366"	"chrome"	"110.0.0"	"FALSE"	"Windows 10"	"60.53"	"034"	n/a	n/a	n/a	n/a	n/a	n/a	"fixation"	n/a	n/a	n/a	n/a	"NULL"	n/a	"NULL"	"NULL"	"NULL"	"<p style=\"color: black; font-size: 80px; padding-left: 28%; padding-right: 2%; padding-top: 36%; padding-bottom: 2%\">+</p>"	"1221"	n/a	n/a	n/a	n/a	n/a	n/a	n/a	n/a	n/a
n/a	"image-keyboard-response"	"80"	"239702"	"0.0-5.0-2.0-1.13"	"negn55"	"600"	"1366"	"chrome"	"110.0.0"	"FALSE"	"Windows 10"	"60.53"	"034"	n/a	n/a	n/a	n/a	n/a	n/a	"Trial"	n/a	n/a	n/a	"525"	"arrowright"	n/a	"NULL"	"NULL"	"NULL"	"stimuli/VerticalHorizontal_-11.78571_-0.2250.png"	n/a	"VerticalHorizontal"	"arrowright"	"1232"	"TRUE"	"VerticalHorizontal"	"-11.78571000"	"-0.225000000"	"1"	"32"
n/a	"html-keyboard-response"	"81"	"240965"	"0.0-5.0-2.0-0.14"	"negn55"	"600"	"1366"	"chrome"	"110.0.0"	"FALSE"	"Windows 10"	"60.53"	"034"	n/a	n/a	n/a	n/a	n/a	n/a	"fixation"	n/a	n/a	n/a	n/a	"NULL"	n/a	"NULL"	"NULL"	"NULL"	"<p style=\"color: black; font-size: 80px; padding-left: 0%; padding-right: 30%; padding-top: 44%; padding-bottom: 20%\">+</p>"	"1258"	n/a	n/a	n/a	n/a	n/a	n/a	n/a	n/a	n/a
n/a	"image-keyboard-response"	"82"	"241447"	"0.0-5.0-2.0-1.14"	"negn55"	"600"	"1366"	"chrome"	"110.0.0"	"FALSE"	"Windows 10"	"60.53"	"034"	n/a	n/a	n/a	n/a	n/a	n/a	"Trial"	n/a	n/a	n/a	"481"	"arrowleft"	n/a	"NULL"	"NULL"	"NULL"	"stimuli/VerticalHorizontal_-11.78571_0.22500.png"	n/a	"VerticalHorizontal"	"arrowleft"	"1263"	"TRUE"	"VerticalHorizontal"	"-11.78571000"	"0.2250000000"	"1"	"33"
n/a	"html-keyboard-response"	"83"	"242802"	"0.0-5.0-2.0-0.15"	"negn55"	"600"	"1366"	"chrome"	"110.0.0"	"FALSE"	"Windows 10"	"60.53"	"034"	n/a	n/a	n/a	n/a	n/a	n/a	"fixation"	n/a	n/a	n/a	n/a	"NULL"	n/a	"NULL"	"NULL"	"NULL"	"<p style=\"color: black; font-size: 80px; padding-left: 30%; padding-right: 37%; padding-top: 36%; padding-bottom: 27%\">+</p>"	"1345"	n/a	n/a	n/a	n/a	n/a	n/a	n/a	n/a	n/a
n/a	"image-keyboard-response"	"84"	"243231"	"0.0-5.0-2.0-1.15"	"negn55"	"600"	"1366"	"chrome"	"110.0.0"	"FALSE"	"Windows 10"	"60.53"	"034"	n/a	n/a	n/a	n/a	n/a	n/a	"Trial"	n/a	n/a	n/a	"429"	"arrowleft"	n/a	"NULL"	"NULL"	"NULL"	"stimuli/VerticalHorizontal_-28.75714_0.16217.png"	n/a	"VerticalHorizontal"	"arrowleft"	"1355"	"TRUE"	"VerticalHorizontal"	"-28.75714000"	"0.1621700000"	"1"	"34"
n/a	"html-keyboard-response"	"85"	"244600"	"0.0-5.0-2.0-0.16"	"negn55"	"600"	"1366"	"chrome"	"110.0.0"	"FALSE"	"Windows 10"	"60.53"	"034"	n/a	n/a	n/a	n/a	n/a	n/a	"fixation"	n/a	n/a	n/a	n/a	"NULL"	n/a	"NULL"	"NULL"	"NULL"	"<p style=\"color: black; font-size: 80px; padding-left: 3%; padding-right: 14%; padding-top: 30%; padding-bottom: 3%\">+</p>"	"1367"	n/a	n/a	n/a	n/a	n/a	n/a	n/a	n/a	n/a
n/a	"image-keyboard-response"	"86"	"245034"	"0.0-5.0-2.0-1.16"	"negn55"	"600"	"1366"	"chrome"	"110.0.0"	"FALSE"	"Windows 10"	"60.53"	"034"	n/a	n/a	n/a	n/a	n/a	n/a	"Trial"	n/a	n/a	n/a	"433"	"arrowright"	n/a	"NULL"	"NULL"	"NULL"	"stimuli/VerticalHorizontal_20.27143_0.10960.png"	n/a	"VerticalHorizontal"	"arrowleft"	"1369"	"FALSE"	"VerticalHorizontal"	"20.271430000"	"0.1096000000"	"1"	"35"
n/a	"html-keyboard-response"	"87"	"246442"	"0.0-5.0-2.0-0.17"	"negn55"	"600"	"1366"	"chrome"	"110.0.0"	"FALSE"	"Windows 10"	"60.53"	"034"	n/a	n/a	n/a	n/a	n/a	n/a	"fixation"	n/a	n/a	n/a	n/a	"NULL"	n/a	"NULL"	"NULL"	"NULL"	"<p style=\"color: black; font-size: 80px; padding-left: 7%; padding-right: 43%; padding-top: 47%; padding-bottom: 25%\">+</p>"	"1395"	n/a	n/a	n/a	n/a	n/a	n/a	n/a	n/a	n/a
n/a	"image-keyboard-response"	"88"	"247028"	"0.0-5.0-2.0-1.17"	"negn55"	"600"	"1366"	"chrome"	"110.0.0"	"FALSE"	"Windows 10"	"60.53"	"034"	n/a	n/a	n/a	n/a	n/a	n/a	"Trial"	n/a	n/a	n/a	"585"	"arrowright"	n/a	"NULL"	"NULL"	"NULL"	"stimuli/VerticalHorizontal_-3.3000_-0.0673.png"	n/a	"VerticalHorizontal"	"arrowright"	"1408"	"TRUE"	"VerticalHorizontal"	"-3.300000000"	"-0.067300000"	"1"	"36"
n/a	"html-keyboard-response"	"89"	"248276"	"0.0-5.0-2.0-0.18"	"negn55"	"600"	"1366"	"chrome"	"110.0.0"	"FALSE"	"Windows 10"	"60.53"	"034"	n/a	n/a	n/a	n/a	n/a	n/a	"fixation"	n/a	n/a	n/a	n/a	"NULL"	n/a	"NULL"	"NULL"	"NULL"	"<p style=\"color: black; font-size: 80px; padding-left: 34%; padding-right: 21%; padding-top: 47%; padding-bottom: 46%\">+</p>"	"1242"	n/a	n/a	n/a	n/a	n/a	n/a	n/a	n/a	n/a
n/a	"image-keyboard-response"	"90"	"248870"	"0.0-5.0-2.0-1.18"	"negn55"	"600"	"1366"	"chrome"	"110.0.0"	"FALSE"	"Windows 10"	"60.53"	"034"	n/a	n/a	n/a	n/a	n/a	n/a	"Trial"	n/a	n/a	n/a	"594"	"arrowright"	n/a	"NULL"	"NULL"	"NULL"	"stimuli/VerticalHorizontal_20.27143_-0.2250.png"	n/a	"VerticalHorizontal"	"arrowright"	"1248"	"TRUE"	"VerticalHorizontal"	"20.271430000"	"-0.225000000"	"1"	"37"
n/a	"html-keyboard-response"	"91"	"250089"	"0.0-5.0-2.0-0.19"	"negn55"	"600"	"1366"	"chrome"	"110.0.0"	"FALSE"	"Windows 10"	"60.53"	"034"	n/a	n/a	n/a	n/a	n/a	n/a	"fixation"	n/a	n/a	n/a	n/a	"NULL"	n/a	"NULL"	"NULL"	"NULL"	"<p style=\"color: black; font-size: 80px; padding-left: 11%; padding-right: 41%; padding-top: 14%; padding-bottom: 23%\">+</p>"	"1208"	n/a	n/a	n/a	n/a	n/a	n/a	n/a	n/a	n/a
n/a	"image-keyboard-response"	"92"	"250561"	"0.0-5.0-2.0-1.19"	"negn55"	"600"	"1366"	"chrome"	"110.0.0"	"FALSE"	"Windows 10"	"60.53"	"034"	n/a	n/a	n/a	n/a	n/a	n/a	"Trial"	n/a	n/a	n/a	"471"	"arrowleft"	n/a	"NULL"	"NULL"	"NULL"	"stimuli/VerticalHorizontal_-20.27143_0.16217.png"	n/a	"VerticalHorizontal"	"arrowleft"	"1219"	"TRUE"	"VerticalHorizontal"	"-20.27143000"	"0.1621700000"	"1"	"38"
n/a	"html-keyboard-response"	"93"	"252021"	"0.0-5.0-2.0-0.20"	"negn55"	"600"	"1366"	"chrome"	"110.0.0"	"FALSE"	"Windows 10"	"60.53"	"034"	n/a	n/a	n/a	n/a	n/a	n/a	"fixation"	n/a	n/a	n/a	n/a	"NULL"	n/a	"NULL"	"NULL"	"NULL"	"<p style=\"color: black; font-size: 80px; padding-left: 15%; padding-right: 40%; padding-top: 8%; padding-bottom: 21%\">+</p>"	"1456"	n/a	n/a	n/a	n/a	n/a	n/a	n/a	n/a	n/a
n/a	"image-keyboard-response"	"94"	"252734"	"0.0-5.0-2.0-1.20"	"negn55"	"600"	"1366"	"chrome"	"110.0.0"	"FALSE"	"Windows 10"	"60.53"	"034"	n/a	n/a	n/a	n/a	n/a	n/a	"Trial"	n/a	n/a	n/a	"713"	"arrowleft"	n/a	"NULL"	"NULL"	"NULL"	"stimuli/VerticalHorizontal_3.30000_0.06730.png"	n/a	"VerticalHorizontal"	"arrowleft"	"1460"	"TRUE"	"VerticalHorizontal"	"3.3000000000"	"0.0673000000"	"1"	"39"
n/a	"html-keyboard-response"	"95"	"254224"	"0.0-5.0-2.0-0.21"	"negn55"	"600"	"1366"	"chrome"	"110.0.0"	"FALSE"	"Windows 10"	"60.53"	"034"	n/a	n/a	n/a	n/a	n/a	n/a	"fixation"	n/a	n/a	n/a	n/a	"NULL"	n/a	"NULL"	"NULL"	"NULL"	"<p style=\"color: black; font-size: 80px; padding-left: 9%; padding-right: 48%; padding-top: 43%; padding-bottom: 1%\">+</p>"	"1479"	n/a	n/a	n/a	n/a	n/a	n/a	n/a	n/a	n/a
n/a	"image-keyboard-response"	"96"	"255059"	"0.0-5.0-2.0-1.21"	"negn55"	"600"	"1366"	"chrome"	"110.0.0"	"FALSE"	"Windows 10"	"60.53"	"034"	n/a	n/a	n/a	n/a	n/a	n/a	"Trial"	n/a	n/a	n/a	"835"	"arrowleft"	n/a	"NULL"	"NULL"	"NULL"	"stimuli/VerticalHorizontal_28.75714_-0.1096.png"	n/a	"VerticalHorizontal"	"arrowright"	"1490"	"FALSE"	"VerticalHorizontal"	"28.757140000"	"-0.109600000"	"1"	"40"
n/a	"html-keyboard-response"	"97"	"256371"	"0.0-5.0-2.0-0.22"	"negn55"	"600"	"1366"	"chrome"	"110.0.0"	"FALSE"	"Windows 10"	"60.53"	"034"	n/a	n/a	n/a	n/a	n/a	n/a	"fixation"	n/a	n/a	n/a	n/a	"NULL"	n/a	"NULL"	"NULL"	"NULL"	"<p style=\"color: black; font-size: 80px; padding-left: 23%; padding-right: 48%; padding-top: 15%; padding-bottom: 48%\">+</p>"	"1299"	n/a	n/a	n/a	n/a	n/a	n/a	n/a	n/a	n/a
n/a	"image-keyboard-response"	"98"	"256934"	"0.0-5.0-2.0-1.22"	"negn55"	"600"	"1366"	"chrome"	"110.0.0"	"FALSE"	"Windows 10"	"60.53"	"034"	n/a	n/a	n/a	n/a	n/a	n/a	"Trial"	n/a	n/a	n/a	"562"	"arrowright"	n/a	"NULL"	"NULL"	"NULL"	"stimuli/VerticalHorizontal_11.78571_-0.16217.png"	n/a	"VerticalHorizontal"	"arrowright"	"1312"	"TRUE"	"VerticalHorizontal"	"11.785710000"	"-0.162170000"	"1"	"41"
n/a	"html-keyboard-response"	"99"	"257965"	"0.0-5.0-2.0-0.23"	"negn55"	"600"	"1366"	"chrome"	"110.0.0"	"FALSE"	"Windows 10"	"60.53"	"034"	n/a	n/a	n/a	n/a	n/a	n/a	"fixation"	n/a	n/a	n/a	n/a	"NULL"	n/a	"NULL"	"NULL"	"NULL"	"<p style=\"color: black; font-size: 80px; padding-left: 22%; padding-right: 35%; padding-top: 7%; padding-bottom: 38%\">+</p>"	"1024"	n/a	n/a	n/a	n/a	n/a	n/a	n/a	n/a	n/a
n/a	"image-keyboard-response"	"100"	"258769"	"0.0-5.0-2.0-1.23"	"negn55"	"600"	"1366"	"chrome"	"110.0.0"	"FALSE"	"Windows 10"	"60.53"	"034"	n/a	n/a	n/a	n/a	n/a	n/a	"Trial"	n/a	n/a	n/a	"804"	"arrowright"	n/a	"NULL"	"NULL"	"NULL"	"stimuli/VerticalHorizontal_3.30000_-0.1096.png"	n/a	"VerticalHorizontal"	"arrowright"	"1031"	"TRUE"	"VerticalHorizontal"	"3.3000000000"	"-0.109600000"	"1"	"42"
n/a	"html-keyboard-response"	"101"	"260091"	"0.0-5.0-2.0-0.24"	"negn55"	"600"	"1366"	"chrome"	"110.0.0"	"FALSE"	"Windows 10"	"60.53"	"034"	n/a	n/a	n/a	n/a	n/a	n/a	"fixation"	n/a	n/a	n/a	n/a	"NULL"	n/a	"NULL"	"NULL"	"NULL"	"<p style=\"color: black; font-size: 80px; padding-left: 23%; padding-right: 15%; padding-top: 12%; padding-bottom: 17%\">+</p>"	"1306"	n/a	n/a	n/a	n/a	n/a	n/a	n/a	n/a	n/a
n/a	"image-keyboard-response"	"102"	"260603"	"0.0-5.0-2.0-1.24"	"negn55"	"600"	"1366"	"chrome"	"110.0.0"	"FALSE"	"Windows 10"	"60.53"	"034"	n/a	n/a	n/a	n/a	n/a	n/a	"Trial"	n/a	n/a	n/a	"511"	"arrowleft"	n/a	"NULL"	"NULL"	"NULL"	"stimuli/VerticalHorizontal_-20.27143_0.22500.png"	n/a	"VerticalHorizontal"	"arrowleft"	"1322"	"TRUE"	"VerticalHorizontal"	"-20.27143000"	"0.2250000000"	"1"	"43"
n/a	"html-keyboard-response"	"103"	"261638"	"0.0-5.0-2.0-0.25"	"negn55"	"600"	"1366"	"chrome"	"110.0.0"	"FALSE"	"Windows 10"	"60.53"	"034"	n/a	n/a	n/a	n/a	n/a	n/a	"fixation"	n/a	n/a	n/a	n/a	"NULL"	n/a	"NULL"	"NULL"	"NULL"	"<p style=\"color: black; font-size: 80px; padding-left: 8%; padding-right: 23%; padding-top: 6%; padding-bottom: 0%\">+</p>"	"1021"	n/a	n/a	n/a	n/a	n/a	n/a	n/a	n/a	n/a
n/a	"image-keyboard-response"	"104"	"262200"	"0.0-5.0-2.0-1.25"	"negn55"	"600"	"1366"	"chrome"	"110.0.0"	"FALSE"	"Windows 10"	"60.53"	"034"	n/a	n/a	n/a	n/a	n/a	n/a	"Trial"	n/a	n/a	n/a	"560"	"arrowleft"	n/a	"NULL"	"NULL"	"NULL"	"stimuli/VerticalHorizontal_-11.78571_0.16217.png"	n/a	"VerticalHorizontal"	"arrowleft"	"1035"	"TRUE"	"VerticalHorizontal"	"-11.78571000"	"0.1621700000"	"1"	"44"
n/a	"html-keyboard-response"	"105"	"263678"	"0.0-5.0-2.0-0.26"	"negn55"	"600"	"1366"	"chrome"	"110.0.0"	"FALSE"	"Windows 10"	"60.53"	"034"	n/a	n/a	n/a	n/a	n/a	n/a	"fixation"	n/a	n/a	n/a	n/a	"NULL"	n/a	"NULL"	"NULL"	"NULL"	"<p style=\"color: black; font-size: 80px; padding-left: 6%; padding-right: 5%; padding-top: 37%; padding-bottom: 32%\">+</p>"	"1466"	n/a	n/a	n/a	n/a	n/a	n/a	n/a	n/a	n/a
n/a	"image-keyboard-response"	"106"	"264218"	"0.0-5.0-2.0-1.26"	"negn55"	"600"	"1366"	"chrome"	"110.0.0"	"FALSE"	"Windows 10"	"60.53"	"034"	n/a	n/a	n/a	n/a	n/a	n/a	"Trial"	n/a	n/a	n/a	"539"	"arrowright"	n/a	"NULL"	"NULL"	"NULL"	"stimuli/VerticalHorizontal_11.78571_0.06730.png"	n/a	"VerticalHorizontal"	"arrowleft"	"1478"	"FALSE"	"VerticalHorizontal"	"11.785710000"	"0.0673000000"	"1"	"45"
n/a	"html-keyboard-response"	"107"	"265345"	"0.0-5.0-2.0-0.27"	"negn55"	"600"	"1366"	"chrome"	"110.0.0"	"FALSE"	"Windows 10"	"60.53"	"034"	n/a	n/a	n/a	n/a	n/a	n/a	"fixation"	n/a	n/a	n/a	n/a	"NULL"	n/a	"NULL"	"NULL"	"NULL"	"<p style=\"color: black; font-size: 80px; padding-left: 17%; padding-right: 49%; padding-top: 12%; padding-bottom: 9%\">+</p>"	"1112"	n/a	n/a	n/a	n/a	n/a	n/a	n/a	n/a	n/a
n/a	"image-keyboard-response"	"108"	"265936"	"0.0-5.0-2.0-1.27"	"negn55"	"600"	"1366"	"chrome"	"110.0.0"	"FALSE"	"Windows 10"	"60.53"	"034"	n/a	n/a	n/a	n/a	n/a	n/a	"Trial"	n/a	n/a	n/a	"590"	"arrowleft"	n/a	"NULL"	"NULL"	"NULL"	"stimuli/VerticalHorizontal_28.75714_-0.16217.png"	n/a	"VerticalHorizontal"	"arrowright"	"1127"	"FALSE"	"VerticalHorizontal"	"28.757140000"	"-0.162170000"	"1"	"46"
n/a	"html-keyboard-response"	"109"	"267027"	"0.0-5.0-2.0-0.28"	"negn55"	"600"	"1366"	"chrome"	"110.0.0"	"FALSE"	"Windows 10"	"60.53"	"034"	n/a	n/a	n/a	n/a	n/a	n/a	"fixation"	n/a	n/a	n/a	n/a	"NULL"	n/a	"NULL"	"NULL"	"NULL"	"<p style=\"color: black; font-size: 80px; padding-left: 29%; padding-right: 23%; padding-top: 35%; padding-bottom: 9%\">+</p>"	"1080"	n/a	n/a	n/a	n/a	n/a	n/a	n/a	n/a	n/a
n/a	"image-keyboard-response"	"110"	"267520"	"0.0-5.0-2.0-1.28"	"negn55"	"600"	"1366"	"chrome"	"110.0.0"	"FALSE"	"Windows 10"	"60.53"	"034"	n/a	n/a	n/a	n/a	n/a	n/a	"Trial"	n/a	n/a	n/a	"492"	"arrowleft"	n/a	"NULL"	"NULL"	"NULL"	"stimuli/VerticalHorizontal_20.27143_0.22500.png"	n/a	"VerticalHorizontal"	"arrowleft"	"1091"	"TRUE"	"VerticalHorizontal"	"20.271430000"	"0.2250000000"	"1"	"47"
n/a	"html-keyboard-response"	"111"	"268770"	"0.0-5.0-2.0-0.29"	"negn55"	"600"	"1366"	"chrome"	"110.0.0"	"FALSE"	"Windows 10"	"60.53"	"034"	n/a	n/a	n/a	n/a	n/a	n/a	"fixation"	n/a	n/a	n/a	n/a	"NULL"	n/a	"NULL"	"NULL"	"NULL"	"<p style=\"color: black; font-size: 80px; padding-left: 20%; padding-right: 13%; padding-top: 28%; padding-bottom: 26%\">+</p>"	"1248"	n/a	n/a	n/a	n/a	n/a	n/a	n/a	n/a	n/a
n/a	"image-keyboard-response"	"112"	"269589"	"0.0-5.0-2.0-1.29"	"negn55"	"600"	"1366"	"chrome"	"110.0.0"	"FALSE"	"Windows 10"	"60.53"	"034"	n/a	n/a	n/a	n/a	n/a	n/a	"Trial"	n/a	n/a	n/a	"818"	"arrowright"	n/a	"NULL"	"NULL"	"NULL"	"stimuli/VerticalHorizontal_20.27143_-0.1096.png"	n/a	"VerticalHorizontal"	"arrowright"	"1250"	"TRUE"	"VerticalHorizontal"	"20.271430000"	"-0.109600000"	"1"	"48"
n/a	"html-keyboard-response"	"113"	"270727"	"0.0-5.0-2.0-0.30"	"negn55"	"600"	"1366"	"chrome"	"110.0.0"	"FALSE"	"Windows 10"	"60.53"	"034"	n/a	n/a	n/a	n/a	n/a	n/a	"fixation"	n/a	n/a	n/a	n/a	"NULL"	n/a	"NULL"	"NULL"	"NULL"	"<p style=\"color: black; font-size: 80px; padding-left: 48%; padding-right: 13%; padding-top: 1%; padding-bottom: 14%\">+</p>"	"1128"	n/a	n/a	n/a	n/a	n/a	n/a	n/a	n/a	n/a
n/a	"image-keyboard-response"	"114"	"271460"	"0.0-5.0-2.0-1.30"	"negn55"	"600"	"1366"	"chrome"	"110.0.0"	"FALSE"	"Windows 10"	"60.53"	"034"	n/a	n/a	n/a	n/a	n/a	n/a	"Trial"	n/a	n/a	n/a	"733"	"arrowright"	n/a	"NULL"	"NULL"	"NULL"	"stimuli/VerticalHorizontal_-20.27143_-0.16217.png"	n/a	"VerticalHorizontal"	"arrowright"	"1138"	"TRUE"	"VerticalHorizontal"	"-20.27143000"	"-0.162170000"	"1"	"49"
n/a	"html-keyboard-response"	"115"	"272940"	"0.0-5.0-2.0-0.31"	"negn55"	"600"	"1366"	"chrome"	"110.0.0"	"FALSE"	"Windows 10"	"60.53"	"034"	n/a	n/a	n/a	n/a	n/a	n/a	"fixation"	n/a	n/a	n/a	n/a	"NULL"	n/a	"NULL"	"NULL"	"NULL"	"<p style=\"color: black; font-size: 80px; padding-left: 38%; padding-right: 0%; padding-top: 4%; padding-bottom: 14%\">+</p>"	"1471"	n/a	n/a	n/a	n/a	n/a	n/a	n/a	n/a	n/a
n/a	"image-keyboard-response"	"116"	"273653"	"0.0-5.0-2.0-1.31"	"negn55"	"600"	"1366"	"chrome"	"110.0.0"	"FALSE"	"Windows 10"	"60.53"	"034"	n/a	n/a	n/a	n/a	n/a	n/a	"Trial"	n/a	n/a	n/a	"712"	"arrowleft"	n/a	"NULL"	"NULL"	"NULL"	"stimuli/VerticalHorizontal_20.27143_0.06730.png"	n/a	"VerticalHorizontal"	"arrowleft"	"1480"	"TRUE"	"VerticalHorizontal"	"20.271430000"	"0.0673000000"	"1"	"50"
n/a	"html-keyboard-response"	"117"	"274843"	"0.0-5.0-2.0-0.32"	"negn55"	"600"	"1366"	"chrome"	"110.0.0"	"FALSE"	"Windows 10"	"60.53"	"034"	n/a	n/a	n/a	n/a	n/a	n/a	"fixation"	n/a	n/a	n/a	n/a	"NULL"	n/a	"NULL"	"NULL"	"NULL"	"<p style=\"color: black; font-size: 80px; padding-left: 15%; padding-right: 10%; padding-top: 42%; padding-bottom: 10%\">+</p>"	"1175"	n/a	n/a	n/a	n/a	n/a	n/a	n/a	n/a	n/a
n/a	"image-keyboard-response"	"118"	"275541"	"0.0-5.0-2.0-1.32"	"negn55"	"600"	"1366"	"chrome"	"110.0.0"	"FALSE"	"Windows 10"	"60.53"	"034"	n/a	n/a	n/a	n/a	n/a	n/a	"Trial"	n/a	n/a	n/a	"697"	"arrowleft"	n/a	"NULL"	"NULL"	"NULL"	"stimuli/VerticalHorizontal_11.78571_0.16217.png"	n/a	"VerticalHorizontal"	"arrowleft"	"1190"	"TRUE"	"VerticalHorizontal"	"11.785710000"	"0.1621700000"	"1"	"51"
n/a	"html-keyboard-response"	"119"	"276747"	"0.0-5.0-2.0-0.33"	"negn55"	"600"	"1366"	"chrome"	"110.0.0"	"FALSE"	"Windows 10"	"60.53"	"034"	n/a	n/a	n/a	n/a	n/a	n/a	"fixation"	n/a	n/a	n/a	n/a	"NULL"	n/a	"NULL"	"NULL"	"NULL"	"<p style=\"color: black; font-size: 80px; padding-left: 0%; padding-right: 36%; padding-top: 26%; padding-bottom: 13%\">+</p>"	"1201"	n/a	n/a	n/a	n/a	n/a	n/a	n/a	n/a	n/a
n/a	"image-keyboard-response"	"120"	"277373"	"0.0-5.0-2.0-1.33"	"negn55"	"600"	"1366"	"chrome"	"110.0.0"	"FALSE"	"Windows 10"	"60.53"	"034"	n/a	n/a	n/a	n/a	n/a	n/a	"Trial"	n/a	n/a	n/a	"625"	"arrowleft"	n/a	"NULL"	"NULL"	"NULL"	"stimuli/VerticalHorizontal_-3.3000_0.10960.png"	n/a	"VerticalHorizontal"	"arrowleft"	"1206"	"TRUE"	"VerticalHorizontal"	"-3.300000000"	"0.1096000000"	"1"	"52"
n/a	"html-keyboard-response"	"121"	"278603"	"0.0-5.0-2.0-0.34"	"negn55"	"600"	"1366"	"chrome"	"110.0.0"	"FALSE"	"Windows 10"	"60.53"	"034"	n/a	n/a	n/a	n/a	n/a	n/a	"fixation"	n/a	n/a	n/a	n/a	"NULL"	n/a	"NULL"	"NULL"	"NULL"	"<p style=\"color: black; font-size: 80px; padding-left: 49%; padding-right: 48%; padding-top: 11%; padding-bottom: 18%\">+</p>"	"1215"	n/a	n/a	n/a	n/a	n/a	n/a	n/a	n/a	n/a
n/a	"image-keyboard-response"	"122"	"279304"	"0.0-5.0-2.0-1.34"	"negn55"	"600"	"1366"	"chrome"	"110.0.0"	"FALSE"	"Windows 10"	"60.53"	"034"	n/a	n/a	n/a	n/a	n/a	n/a	"Trial"	n/a	n/a	n/a	"701"	"arrowright"	n/a	"NULL"	"NULL"	"NULL"	"stimuli/VerticalHorizontal_-3.3000_-0.1096.png"	n/a	"VerticalHorizontal"	"arrowright"	"1230"	"TRUE"	"VerticalHorizontal"	"-3.300000000"	"-0.109600000"	"1"	"53"
n/a	"html-keyboard-response"	"123"	"280636"	"0.0-5.0-2.0-0.35"	"negn55"	"600"	"1366"	"chrome"	"110.0.0"	"FALSE"	"Windows 10"	"60.53"	"034"	n/a	n/a	n/a	n/a	n/a	n/a	"fixation"	n/a	n/a	n/a	n/a	"NULL"	n/a	"NULL"	"NULL"	"NULL"	"<p style=\"color: black; font-size: 80px; padding-left: 23%; padding-right: 18%; padding-top: 29%; padding-bottom: 17%\">+</p>"	"1321"	n/a	n/a	n/a	n/a	n/a	n/a	n/a	n/a	n/a
n/a	"image-keyboard-response"	"124"	"281220"	"0.0-5.0-2.0-1.35"	"negn55"	"600"	"1366"	"chrome"	"110.0.0"	"FALSE"	"Windows 10"	"60.53"	"034"	n/a	n/a	n/a	n/a	n/a	n/a	"Trial"	n/a	n/a	n/a	"583"	"arrowright"	n/a	"NULL"	"NULL"	"NULL"	"stimuli/VerticalHorizontal_-11.78571_-0.16217.png"	n/a	"VerticalHorizontal"	"arrowright"	"1332"	"TRUE"	"VerticalHorizontal"	"-11.78571000"	"-0.162170000"	"1"	"54"
n/a	"html-keyboard-response"	"125"	"282602"	"0.0-5.0-2.0-0.36"	"negn55"	"600"	"1366"	"chrome"	"110.0.0"	"FALSE"	"Windows 10"	"60.53"	"034"	n/a	n/a	n/a	n/a	n/a	n/a	"fixation"	n/a	n/a	n/a	n/a	"NULL"	n/a	"NULL"	"NULL"	"NULL"	"<p style=\"color: black; font-size: 80px; padding-left: 24%; padding-right: 26%; padding-top: 18%; padding-bottom: 35%\">+</p>"	"1380"	n/a	n/a	n/a	n/a	n/a	n/a	n/a	n/a	n/a
n/a	"image-keyboard-response"	"126"	"283105"	"0.0-5.0-2.0-1.36"	"negn55"	"600"	"1366"	"chrome"	"110.0.0"	"FALSE"	"Windows 10"	"60.53"	"034"	n/a	n/a	n/a	n/a	n/a	n/a	"Trial"	n/a	n/a	n/a	"502"	"arrowleft"	n/a	"NULL"	"NULL"	"NULL"	"stimuli/VerticalHorizontal_-28.75714_0.10960.png"	n/a	"VerticalHorizontal"	"arrowleft"	"1382"	"TRUE"	"VerticalHorizontal"	"-28.75714000"	"0.1096000000"	"1"	"55"
n/a	"html-keyboard-response"	"127"	"284337"	"0.0-5.0-2.0-0.37"	"negn55"	"600"	"1366"	"chrome"	"110.0.0"	"FALSE"	"Windows 10"	"60.53"	"034"	n/a	n/a	n/a	n/a	n/a	n/a	"fixation"	n/a	n/a	n/a	n/a	"NULL"	n/a	"NULL"	"NULL"	"NULL"	"<p style=\"color: black; font-size: 80px; padding-left: 4%; padding-right: 29%; padding-top: 4%; padding-bottom: 38%\">+</p>"	"1224"	n/a	n/a	n/a	n/a	n/a	n/a	n/a	n/a	n/a
n/a	"image-keyboard-response"	"128"	"284992"	"0.0-5.0-2.0-1.37"	"negn55"	"600"	"1366"	"chrome"	"110.0.0"	"FALSE"	"Windows 10"	"60.53"	"034"	n/a	n/a	n/a	n/a	n/a	n/a	"Trial"	n/a	n/a	n/a	"655"	"arrowright"	n/a	"NULL"	"NULL"	"NULL"	"stimuli/VerticalHorizontal_20.27143_-0.16217.png"	n/a	"VerticalHorizontal"	"arrowright"	"1232"	"TRUE"	"VerticalHorizontal"	"20.271430000"	"-0.162170000"	"1"	"56"
n/a	"html-keyboard-response"	"129"	"286137"	"0.0-5.0-2.0-0.38"	"negn55"	"600"	"1366"	"chrome"	"110.0.0"	"FALSE"	"Windows 10"	"60.53"	"034"	n/a	n/a	n/a	n/a	n/a	n/a	"fixation"	n/a	n/a	n/a	n/a	"NULL"	n/a	"NULL"	"NULL"	"NULL"	"<p style=\"color: black; font-size: 80px; padding-left: 28%; padding-right: 26%; padding-top: 8%; padding-bottom: 46%\">+</p>"	"1138"	n/a	n/a	n/a	n/a	n/a	n/a	n/a	n/a	n/a
n/a	"image-keyboard-response"	"130"	"286760"	"0.0-5.0-2.0-1.38"	"negn55"	"600"	"1366"	"chrome"	"110.0.0"	"FALSE"	"Windows 10"	"60.53"	"034"	n/a	n/a	n/a	n/a	n/a	n/a	"Trial"	n/a	n/a	n/a	"623"	"arrowright"	n/a	"NULL"	"NULL"	"NULL"	"stimuli/VerticalHorizontal_11.78571_-0.0673.png"	n/a	"VerticalHorizontal"	"arrowright"	"1145"	"TRUE"	"VerticalHorizontal"	"11.785710000"	"-0.067300000"	"1"	"57"
n/a	"html-keyboard-response"	"131"	"287921"	"0.0-5.0-2.0-0.39"	"negn55"	"600"	"1366"	"chrome"	"110.0.0"	"FALSE"	"Windows 10"	"60.53"	"034"	n/a	n/a	n/a	n/a	n/a	n/a	"fixation"	n/a	n/a	n/a	n/a	"NULL"	n/a	"NULL"	"NULL"	"NULL"	"<p style=\"color: black; font-size: 80px; padding-left: 44%; padding-right: 32%; padding-top: 45%; padding-bottom: 36%\">+</p>"	"1148"	n/a	n/a	n/a	n/a	n/a	n/a	n/a	n/a	n/a
n/a	"image-keyboard-response"	"132"	"288465"	"0.0-5.0-2.0-1.39"	"negn55"	"600"	"1366"	"chrome"	"110.0.0"	"FALSE"	"Windows 10"	"60.53"	"034"	n/a	n/a	n/a	n/a	n/a	n/a	"Trial"	n/a	n/a	n/a	"544"	"arrowright"	n/a	"NULL"	"NULL"	"NULL"	"stimuli/VerticalHorizontal_11.78571_-0.2250.png"	n/a	"VerticalHorizontal"	"arrowright"	"1161"	"TRUE"	"VerticalHorizontal"	"11.785710000"	"-0.225000000"	"1"	"58"
n/a	"html-keyboard-response"	"133"	"289855"	"0.0-5.0-2.0-0.40"	"negn55"	"600"	"1366"	"chrome"	"110.0.0"	"FALSE"	"Windows 10"	"60.53"	"034"	n/a	n/a	n/a	n/a	n/a	n/a	"fixation"	n/a	n/a	n/a	n/a	"NULL"	n/a	"NULL"	"NULL"	"NULL"	"<p style=\"color: black; font-size: 80px; padding-left: 13%; padding-right: 17%; padding-top: 40%; padding-bottom: 13%\">+</p>"	"1385"	n/a	n/a	n/a	n/a	n/a	n/a	n/a	n/a	n/a
n/a	"image-keyboard-response"	"134"	"290360"	"0.0-5.0-2.0-1.40"	"negn55"	"600"	"1366"	"chrome"	"110.0.0"	"FALSE"	"Windows 10"	"60.53"	"034"	n/a	n/a	n/a	n/a	n/a	n/a	"Trial"	n/a	n/a	n/a	"504"	"arrowleft"	n/a	"NULL"	"NULL"	"NULL"	"stimuli/VerticalHorizontal_-20.27143_0.10960.png"	n/a	"VerticalHorizontal"	"arrowleft"	"1390"	"TRUE"	"VerticalHorizontal"	"-20.27143000"	"0.1096000000"	"1"	"59"
n/a	"html-keyboard-response"	"135"	"291403"	"0.0-5.0-2.0-0.41"	"negn55"	"600"	"1366"	"chrome"	"110.0.0"	"FALSE"	"Windows 10"	"60.53"	"034"	n/a	n/a	n/a	n/a	n/a	n/a	"fixation"	n/a	n/a	n/a	n/a	"NULL"	n/a	"NULL"	"NULL"	"NULL"	"<p style=\"color: black; font-size: 80px; padding-left: 5%; padding-right: 42%; padding-top: 46%; padding-bottom: 6%\">+</p>"	"1032"	n/a	n/a	n/a	n/a	n/a	n/a	n/a	n/a	n/a
n/a	"image-keyboard-response"	"136"	"291998"	"0.0-5.0-2.0-1.41"	"negn55"	"600"	"1366"	"chrome"	"110.0.0"	"FALSE"	"Windows 10"	"60.53"	"034"	n/a	n/a	n/a	n/a	n/a	n/a	"Trial"	n/a	n/a	n/a	"594"	"arrowleft"	n/a	"NULL"	"NULL"	"NULL"	"stimuli/VerticalHorizontal_3.30000_0.10960.png"	n/a	"VerticalHorizontal"	"arrowleft"	"1043"	"TRUE"	"VerticalHorizontal"	"3.3000000000"	"0.1096000000"	"1"	"60"
n/a	"html-keyboard-response"	"137"	"293149"	"0.0-5.0-2.0-0.42"	"negn55"	"600"	"1366"	"chrome"	"110.0.0"	"FALSE"	"Windows 10"	"60.53"	"034"	n/a	n/a	n/a	n/a	n/a	n/a	"fixation"	n/a	n/a	n/a	n/a	"NULL"	n/a	"NULL"	"NULL"	"NULL"	"<p style=\"color: black; font-size: 80px; padding-left: 31%; padding-right: 41%; padding-top: 29%; padding-bottom: 31%\">+</p>"	"1147"	n/a	n/a	n/a	n/a	n/a	n/a	n/a	n/a	n/a
n/a	"image-keyboard-response"	"138"	"293614"	"0.0-5.0-2.0-1.42"	"negn55"	"600"	"1366"	"chrome"	"110.0.0"	"FALSE"	"Windows 10"	"60.53"	"034"	n/a	n/a	n/a	n/a	n/a	n/a	"Trial"	n/a	n/a	n/a	"465"	"arrowright"	n/a	"NULL"	"NULL"	"NULL"	"stimuli/VerticalHorizontal_-28.75714_-0.2250.png"	n/a	"VerticalHorizontal"	"arrowright"	"1151"	"TRUE"	"VerticalHorizontal"	"-28.75714000"	"-0.225000000"	"1"	"61"
n/a	"html-keyboard-response"	"139"	"294690"	"0.0-5.0-2.0-0.43"	"negn55"	"600"	"1366"	"chrome"	"110.0.0"	"FALSE"	"Windows 10"	"60.53"	"034"	n/a	n/a	n/a	n/a	n/a	n/a	"fixation"	n/a	n/a	n/a	n/a	"NULL"	n/a	"NULL"	"NULL"	"NULL"	"<p style=\"color: black; font-size: 80px; padding-left: 29%; padding-right: 50%; padding-top: 39%; padding-bottom: 21%\">+</p>"	"1074"	n/a	n/a	n/a	n/a	n/a	n/a	n/a	n/a	n/a
n/a	"image-keyboard-response"	"140"	"295242"	"0.0-5.0-2.0-1.43"	"negn55"	"600"	"1366"	"chrome"	"110.0.0"	"FALSE"	"Windows 10"	"60.53"	"034"	n/a	n/a	n/a	n/a	n/a	n/a	"Trial"	n/a	n/a	n/a	"549"	"arrowright"	n/a	"NULL"	"NULL"	"NULL"	"stimuli/VerticalHorizontal_-28.75714_-0.0673.png"	n/a	"VerticalHorizontal"	"arrowright"	"1076"	"TRUE"	"VerticalHorizontal"	"-28.75714000"	"-0.067300000"	"1"	"62"
n/a	"html-keyboard-response"	"141"	"296440"	"0.0-5.0-2.0-0.44"	"negn55"	"600"	"1366"	"chrome"	"110.0.0"	"FALSE"	"Windows 10"	"60.53"	"034"	n/a	n/a	n/a	n/a	n/a	n/a	"fixation"	n/a	n/a	n/a	n/a	"NULL"	n/a	"NULL"	"NULL"	"NULL"	"<p style=\"color: black; font-size: 80px; padding-left: 44%; padding-right: 7%; padding-top: 38%; padding-bottom: 1%\">+</p>"	"1184"	n/a	n/a	n/a	n/a	n/a	n/a	n/a	n/a	n/a
n/a	"image-keyboard-response"	"142"	"296917"	"0.0-5.0-2.0-1.44"	"negn55"	"600"	"1366"	"chrome"	"110.0.0"	"FALSE"	"Windows 10"	"60.53"	"034"	n/a	n/a	n/a	n/a	n/a	n/a	"Trial"	n/a	n/a	n/a	"476"	"arrowleft"	n/a	"NULL"	"NULL"	"NULL"	"stimuli/VerticalHorizontal_-20.27143_0.06730.png"	n/a	"VerticalHorizontal"	"arrowleft"	"1198"	"TRUE"	"VerticalHorizontal"	"-20.27143000"	"0.0673000000"	"1"	"63"
n/a	"html-keyboard-response"	"143"	"297935"	"0.0-5.0-2.0-0.45"	"negn55"	"600"	"1366"	"chrome"	"110.0.0"	"FALSE"	"Windows 10"	"60.53"	"034"	n/a	n/a	n/a	n/a	n/a	n/a	"fixation"	n/a	n/a	n/a	n/a	"NULL"	n/a	"NULL"	"NULL"	"NULL"	"<p style=\"color: black; font-size: 80px; padding-left: 6%; padding-right: 6%; padding-top: 17%; padding-bottom: 45%\">+</p>"	"1005"	n/a	n/a	n/a	n/a	n/a	n/a	n/a	n/a	n/a
n/a	"image-keyboard-response"	"144"	"298628"	"0.0-5.0-2.0-1.45"	"negn55"	"600"	"1366"	"chrome"	"110.0.0"	"FALSE"	"Windows 10"	"60.53"	"034"	n/a	n/a	n/a	n/a	n/a	n/a	"Trial"	n/a	n/a	n/a	"693"	"arrowright"	n/a	"NULL"	"NULL"	"NULL"	"stimuli/VerticalHorizontal_28.75714_0.16217.png"	n/a	"VerticalHorizontal"	"arrowleft"	"1018"	"FALSE"	"VerticalHorizontal"	"28.757140000"	"0.1621700000"	"1"	"64"
n/a	"html-keyboard-response"	"145"	"300007"	"0.0-5.0-2.0-0.46"	"negn55"	"600"	"1366"	"chrome"	"110.0.0"	"FALSE"	"Windows 10"	"60.53"	"034"	n/a	n/a	n/a	n/a	n/a	n/a	"fixation"	n/a	n/a	n/a	n/a	"NULL"	n/a	"NULL"	"NULL"	"NULL"	"<p style=\"color: black; font-size: 80px; padding-left: 24%; padding-right: 41%; padding-top: 36%; padding-bottom: 35%\">+</p>"	"1369"	n/a	n/a	n/a	n/a	n/a	n/a	n/a	n/a	n/a
n/a	"image-keyboard-response"	"146"	"300492"	"0.0-5.0-2.0-1.46"	"negn55"	"600"	"1366"	"chrome"	"110.0.0"	"FALSE"	"Windows 10"	"60.53"	"034"	n/a	n/a	n/a	n/a	n/a	n/a	"Trial"	n/a	n/a	n/a	"484"	"arrowright"	n/a	"NULL"	"NULL"	"NULL"	"stimuli/VerticalHorizontal_-20.27143_-0.2250.png"	n/a	"VerticalHorizontal"	"arrowright"	"1379"	"TRUE"	"VerticalHorizontal"	"-20.27143000"	"-0.225000000"	"1"	"65"
n/a	"html-keyboard-response"	"147"	"301809"	"0.0-5.0-2.0-0.47"	"negn55"	"600"	"1366"	"chrome"	"110.0.0"	"FALSE"	"Windows 10"	"60.53"	"034"	n/a	n/a	n/a	n/a	n/a	n/a	"fixation"	n/a	n/a	n/a	n/a	"NULL"	n/a	"NULL"	"NULL"	"NULL"	"<p style=\"color: black; font-size: 80px; padding-left: 22%; padding-right: 12%; padding-top: 20%; padding-bottom: 22%\">+</p>"	"1305"	n/a	n/a	n/a	n/a	n/a	n/a	n/a	n/a	n/a
n/a	"image-keyboard-response"	"148"	"302308"	"0.0-5.0-2.0-1.47"	"negn55"	"600"	"1366"	"chrome"	"110.0.0"	"FALSE"	"Windows 10"	"60.53"	"034"	n/a	n/a	n/a	n/a	n/a	n/a	"Trial"	n/a	n/a	n/a	"498"	"arrowleft"	n/a	"NULL"	"NULL"	"NULL"	"stimuli/VerticalHorizontal_-11.78571_0.10960.png"	n/a	"VerticalHorizontal"	"arrowleft"	"1317"	"TRUE"	"VerticalHorizontal"	"-11.78571000"	"0.1096000000"	"1"	"66"
n/a	"html-keyboard-response"	"149"	"303480"	"0.0-5.0-2.0-0.48"	"negn55"	"600"	"1366"	"chrome"	"110.0.0"	"FALSE"	"Windows 10"	"60.53"	"034"	n/a	n/a	n/a	n/a	n/a	n/a	"fixation"	n/a	n/a	n/a	n/a	"NULL"	n/a	"NULL"	"NULL"	"NULL"	"<p style=\"color: black; font-size: 80px; padding-left: 10%; padding-right: 39%; padding-top: 27%; padding-bottom: 47%\">+</p>"	"1164"	n/a	n/a	n/a	n/a	n/a	n/a	n/a	n/a	n/a
n/a	"image-keyboard-response"	"150"	"303933"	"0.0-5.0-2.0-1.48"	"negn55"	"600"	"1366"	"chrome"	"110.0.0"	"FALSE"	"Windows 10"	"60.53"	"034"	n/a	n/a	n/a	n/a	n/a	n/a	"Trial"	n/a	n/a	n/a	"452"	"arrowright"	n/a	"NULL"	"NULL"	"NULL"	"stimuli/VerticalHorizontal_-28.75714_-0.1096.png"	n/a	"VerticalHorizontal"	"arrowright"	"1172"	"TRUE"	"VerticalHorizontal"	"-28.75714000"	"-0.109600000"	"1"	"67"
n/a	"html-keyboard-response"	"151"	"305278"	"0.0-5.0-2.0-0.49"	"negn55"	"600"	"1366"	"chrome"	"110.0.0"	"FALSE"	"Windows 10"	"60.53"	"034"	n/a	n/a	n/a	n/a	n/a	n/a	"fixation"	n/a	n/a	n/a	n/a	"NULL"	n/a	"NULL"	"NULL"	"NULL"	"<p style=\"color: black; font-size: 80px; padding-left: 46%; padding-right: 4%; padding-top: 21%; padding-bottom: 31%\">+</p>"	"1337"	n/a	n/a	n/a	n/a	n/a	n/a	n/a	n/a	n/a
n/a	"image-keyboard-response"	"152"	"305728"	"0.0-5.0-2.0-1.49"	"negn55"	"600"	"1366"	"chrome"	"110.0.0"	"FALSE"	"Windows 10"	"60.53"	"034"	n/a	n/a	n/a	n/a	n/a	n/a	"Trial"	n/a	n/a	n/a	"450"	"arrowright"	n/a	"NULL"	"NULL"	"NULL"	"stimuli/VerticalHorizontal_-28.75714_-0.16217.png"	n/a	"VerticalHorizontal"	"arrowright"	"1345"	"TRUE"	"VerticalHorizontal"	"-28.75714000"	"-0.162170000"	"1"	"68"
n/a	"html-keyboard-response"	"153"	"306783"	"0.0-5.0-2.0-0.50"	"negn55"	"600"	"1366"	"chrome"	"110.0.0"	"FALSE"	"Windows 10"	"60.53"	"034"	n/a	n/a	n/a	n/a	n/a	n/a	"fixation"	n/a	n/a	n/a	n/a	"NULL"	n/a	"NULL"	"NULL"	"NULL"	"<p style=\"color: black; font-size: 80px; padding-left: 42%; padding-right: 38%; padding-top: 40%; padding-bottom: 17%\">+</p>"	"1052"	n/a	n/a	n/a	n/a	n/a	n/a	n/a	n/a	n/a
n/a	"image-keyboard-response"	"154"	"307341"	"0.0-5.0-2.0-1.50"	"negn55"	"600"	"1366"	"chrome"	"110.0.0"	"FALSE"	"Windows 10"	"60.53"	"034"	n/a	n/a	n/a	n/a	n/a	n/a	"Trial"	n/a	n/a	n/a	"557"	"arrowleft"	n/a	"NULL"	"NULL"	"NULL"	"stimuli/VerticalHorizontal_-3.3000_-0.16217.png"	n/a	"VerticalHorizontal"	"arrowright"	"1055"	"FALSE"	"VerticalHorizontal"	"-3.300000000"	"-0.162170000"	"1"	"69"
n/a	"html-keyboard-response"	"155"	"308718"	"0.0-5.0-2.0-0.51"	"negn55"	"600"	"1366"	"chrome"	"110.0.0"	"FALSE"	"Windows 10"	"60.53"	"034"	n/a	n/a	n/a	n/a	n/a	n/a	"fixation"	n/a	n/a	n/a	n/a	"NULL"	n/a	"NULL"	"NULL"	"NULL"	"<p style=\"color: black; font-size: 80px; padding-left: 45%; padding-right: 21%; padding-top: 13%; padding-bottom: 14%\">+</p>"	"1371"	n/a	n/a	n/a	n/a	n/a	n/a	n/a	n/a	n/a
n/a	"image-keyboard-response"	"156"	"309691"	"0.0-5.0-2.0-1.51"	"negn55"	"600"	"1366"	"chrome"	"110.0.0"	"FALSE"	"Windows 10"	"60.53"	"034"	n/a	n/a	n/a	n/a	n/a	n/a	"Trial"	n/a	n/a	n/a	"969"	"arrowright"	n/a	"NULL"	"NULL"	"NULL"	"stimuli/VerticalHorizontal_-11.78571_-0.1096.png"	n/a	"VerticalHorizontal"	"arrowright"	"1377"	"TRUE"	"VerticalHorizontal"	"-11.78571000"	"-0.109600000"	"1"	"70"
n/a	"html-keyboard-response"	"157"	"311010"	"0.0-5.0-2.0-0.52"	"negn55"	"600"	"1366"	"chrome"	"110.0.0"	"FALSE"	"Windows 10"	"60.53"	"034"	n/a	n/a	n/a	n/a	n/a	n/a	"fixation"	n/a	n/a	n/a	n/a	"NULL"	n/a	"NULL"	"NULL"	"NULL"	"<p style=\"color: black; font-size: 80px; padding-left: 8%; padding-right: 3%; padding-top: 4%; padding-bottom: 31%\">+</p>"	"1315"	n/a	n/a	n/a	n/a	n/a	n/a	n/a	n/a	n/a
n/a	"image-keyboard-response"	"158"	"311646"	"0.0-5.0-2.0-1.52"	"negn55"	"600"	"1366"	"chrome"	"110.0.0"	"FALSE"	"Windows 10"	"60.53"	"034"	n/a	n/a	n/a	n/a	n/a	n/a	"Trial"	n/a	n/a	n/a	"635"	"arrowright"	n/a	"NULL"	"NULL"	"NULL"	"stimuli/VerticalHorizontal_3.30000_-0.0673.png"	n/a	"VerticalHorizontal"	"arrowright"	"1319"	"TRUE"	"VerticalHorizontal"	"3.3000000000"	"-0.067300000"	"1"	"71"
n/a	"html-keyboard-response"	"159"	"312901"	"0.0-5.0-2.0-0.53"	"negn55"	"600"	"1366"	"chrome"	"110.0.0"	"FALSE"	"Windows 10"	"60.53"	"034"	n/a	n/a	n/a	n/a	n/a	n/a	"fixation"	n/a	n/a	n/a	n/a	"NULL"	n/a	"NULL"	"NULL"	"NULL"	"<p style=\"color: black; font-size: 80px; padding-left: 21%; padding-right: 46%; padding-top: 48%; padding-bottom: 5%\">+</p>"	"1250"	n/a	n/a	n/a	n/a	n/a	n/a	n/a	n/a	n/a
n/a	"image-keyboard-response"	"160"	"313356"	"0.0-5.0-2.0-1.53"	"negn55"	"600"	"1366"	"chrome"	"110.0.0"	"FALSE"	"Windows 10"	"60.53"	"034"	n/a	n/a	n/a	n/a	n/a	n/a	"Trial"	n/a	n/a	n/a	"454"	"arrowleft"	n/a	"NULL"	"NULL"	"NULL"	"stimuli/VerticalHorizontal_3.30000_0.22500.png"	n/a	"VerticalHorizontal"	"arrowleft"	"1255"	"TRUE"	"VerticalHorizontal"	"3.3000000000"	"0.2250000000"	"1"	"72"
n/a	"html-keyboard-response"	"161"	"314447"	"0.0-5.0-2.0-0.54"	"negn55"	"600"	"1366"	"chrome"	"110.0.0"	"FALSE"	"Windows 10"	"60.53"	"034"	n/a	n/a	n/a	n/a	n/a	n/a	"fixation"	n/a	n/a	n/a	n/a	"NULL"	n/a	"NULL"	"NULL"	"NULL"	"<p style=\"color: black; font-size: 80px; padding-left: 25%; padding-right: 9%; padding-top: 25%; padding-bottom: 7%\">+</p>"	"1080"	n/a	n/a	n/a	n/a	n/a	n/a	n/a	n/a	n/a
n/a	"image-keyboard-response"	"162"	"314994"	"0.0-5.0-2.0-1.54"	"negn55"	"600"	"1366"	"chrome"	"110.0.0"	"FALSE"	"Windows 10"	"60.53"	"034"	n/a	n/a	n/a	n/a	n/a	n/a	"Trial"	n/a	n/a	n/a	"546"	"arrowleft"	n/a	"NULL"	"NULL"	"NULL"	"stimuli/VerticalHorizontal_-3.3000_0.16217.png"	n/a	"VerticalHorizontal"	"arrowleft"	"1091"	"TRUE"	"VerticalHorizontal"	"-3.300000000"	"0.1621700000"	"1"	"73"
n/a	"html-keyboard-response"	"163"	"316433"	"0.0-5.0-2.0-0.55"	"negn55"	"600"	"1366"	"chrome"	"110.0.0"	"FALSE"	"Windows 10"	"60.53"	"034"	n/a	n/a	n/a	n/a	n/a	n/a	"fixation"	n/a	n/a	n/a	n/a	"NULL"	n/a	"NULL"	"NULL"	"NULL"	"<p style=\"color: black; font-size: 80px; padding-left: 22%; padding-right: 41%; padding-top: 11%; padding-bottom: 41%\">+</p>"	"1436"	n/a	n/a	n/a	n/a	n/a	n/a	n/a	n/a	n/a
n/a	"image-keyboard-response"	"164"	"316926"	"0.0-5.0-2.0-1.55"	"negn55"	"600"	"1366"	"chrome"	"110.0.0"	"FALSE"	"Windows 10"	"60.53"	"034"	n/a	n/a	n/a	n/a	n/a	n/a	"Trial"	n/a	n/a	n/a	"492"	"arrowright"	n/a	"NULL"	"NULL"	"NULL"	"stimuli/VerticalHorizontal_3.30000_-0.2250.png"	n/a	"VerticalHorizontal"	"arrowright"	"1439"	"TRUE"	"VerticalHorizontal"	"3.3000000000"	"-0.225000000"	"1"	"74"
n/a	"html-keyboard-response"	"165"	"318399"	"0.0-5.0-2.0-0.56"	"negn55"	"600"	"1366"	"chrome"	"110.0.0"	"FALSE"	"Windows 10"	"60.53"	"034"	n/a	n/a	n/a	n/a	n/a	n/a	"fixation"	n/a	n/a	n/a	n/a	"NULL"	n/a	"NULL"	"NULL"	"NULL"	"<p style=\"color: black; font-size: 80px; padding-left: 43%; padding-right: 18%; padding-top: 28%; padding-bottom: 30%\">+</p>"	"1464"	n/a	n/a	n/a	n/a	n/a	n/a	n/a	n/a	n/a
n/a	"image-keyboard-response"	"166"	"318887"	"0.0-5.0-2.0-1.56"	"negn55"	"600"	"1366"	"chrome"	"110.0.0"	"FALSE"	"Windows 10"	"60.53"	"034"	n/a	n/a	n/a	n/a	n/a	n/a	"Trial"	n/a	n/a	n/a	"486"	"arrowleft"	n/a	"NULL"	"NULL"	"NULL"	"stimuli/VerticalHorizontal_11.78571_0.22500.png"	n/a	"VerticalHorizontal"	"arrowleft"	"1473"	"TRUE"	"VerticalHorizontal"	"11.785710000"	"0.2250000000"	"1"	"75"
n/a	"html-keyboard-response"	"167"	"320233"	"0.0-5.0-2.0-0.57"	"negn55"	"600"	"1366"	"chrome"	"110.0.0"	"FALSE"	"Windows 10"	"60.53"	"034"	n/a	n/a	n/a	n/a	n/a	n/a	"fixation"	n/a	n/a	n/a	n/a	"NULL"	n/a	"NULL"	"NULL"	"NULL"	"<p style=\"color: black; font-size: 80px; padding-left: 39%; padding-right: 29%; padding-top: 13%; padding-bottom: 26%\">+</p>"	"1337"	n/a	n/a	n/a	n/a	n/a	n/a	n/a	n/a	n/a
n/a	"image-keyboard-response"	"168"	"320920"	"0.0-5.0-2.0-1.57"	"negn55"	"600"	"1366"	"chrome"	"110.0.0"	"FALSE"	"Windows 10"	"60.53"	"034"	n/a	n/a	n/a	n/a	n/a	n/a	"Trial"	n/a	n/a	n/a	"686"	"arrowright"	n/a	"NULL"	"NULL"	"NULL"	"stimuli/VerticalHorizontal_20.27143_0.16217.png"	n/a	"VerticalHorizontal"	"arrowleft"	"1346"	"FALSE"	"VerticalHorizontal"	"20.271430000"	"0.1621700000"	"1"	"76"
n/a	"html-keyboard-response"	"169"	"321996"	"0.0-5.0-2.0-0.58"	"negn55"	"600"	"1366"	"chrome"	"110.0.0"	"FALSE"	"Windows 10"	"60.53"	"034"	n/a	n/a	n/a	n/a	n/a	n/a	"fixation"	n/a	n/a	n/a	n/a	"NULL"	n/a	"NULL"	"NULL"	"NULL"	"<p style=\"color: black; font-size: 80px; padding-left: 36%; padding-right: 23%; padding-top: 25%; padding-bottom: 16%\">+</p>"	"1069"	n/a	n/a	n/a	n/a	n/a	n/a	n/a	n/a	n/a
n/a	"image-keyboard-response"	"170"	"322581"	"0.0-5.0-2.0-1.58"	"negn55"	"600"	"1366"	"chrome"	"110.0.0"	"FALSE"	"Windows 10"	"60.53"	"034"	n/a	n/a	n/a	n/a	n/a	n/a	"Trial"	n/a	n/a	n/a	"583"	"arrowleft"	n/a	"NULL"	"NULL"	"NULL"	"stimuli/VerticalHorizontal_-3.3000_0.22500.png"	n/a	"VerticalHorizontal"	"arrowleft"	"1076"	"TRUE"	"VerticalHorizontal"	"-3.300000000"	"0.2250000000"	"1"	"77"
n/a	"html-keyboard-response"	"171"	"323699"	"0.0-5.0-2.0-0.59"	"negn55"	"600"	"1366"	"chrome"	"110.0.0"	"FALSE"	"Windows 10"	"60.53"	"034"	n/a	n/a	n/a	n/a	n/a	n/a	"fixation"	n/a	n/a	n/a	n/a	"NULL"	n/a	"NULL"	"NULL"	"NULL"	"<p style=\"color: black; font-size: 80px; padding-left: 33%; padding-right: 1%; padding-top: 44%; padding-bottom: 40%\">+</p>"	"1105"	n/a	n/a	n/a	n/a	n/a	n/a	n/a	n/a	n/a
n/a	"image-keyboard-response"	"172"	"324310"	"0.0-5.0-2.0-1.59"	"negn55"	"600"	"1366"	"chrome"	"110.0.0"	"FALSE"	"Windows 10"	"60.53"	"034"	n/a	n/a	n/a	n/a	n/a	n/a	"Trial"	n/a	n/a	n/a	"611"	"arrowleft"	n/a	"NULL"	"NULL"	"NULL"	"stimuli/VerticalHorizontal_-28.75714_0.22500.png"	n/a	"VerticalHorizontal"	"arrowleft"	"1118"	"TRUE"	"VerticalHorizontal"	"-28.75714000"	"0.2250000000"	"1"	"78"
n/a	"html-keyboard-response"	"173"	"325319"	"0.0-5.0-2.0-0.60"	"negn55"	"600"	"1366"	"chrome"	"110.0.0"	"FALSE"	"Windows 10"	"60.53"	"034"	n/a	n/a	n/a	n/a	n/a	n/a	"fixation"	n/a	n/a	n/a	n/a	"NULL"	n/a	"NULL"	"NULL"	"NULL"	"<p style=\"color: black; font-size: 80px; padding-left: 28%; padding-right: 5%; padding-top: 8%; padding-bottom: 19%\">+</p>"	"1006"	n/a	n/a	n/a	n/a	n/a	n/a	n/a	n/a	n/a
n/a	"image-keyboard-response"	"174"	"325929"	"0.0-5.0-2.0-1.60"	"negn55"	"600"	"1366"	"chrome"	"110.0.0"	"FALSE"	"Windows 10"	"60.53"	"034"	n/a	n/a	n/a	n/a	n/a	n/a	"Trial"	n/a	n/a	n/a	"608"	"arrowleft"	n/a	"NULL"	"NULL"	"NULL"	"stimuli/VerticalHorizontal_3.30000_0.16217.png"	n/a	"VerticalHorizontal"	"arrowleft"	"1009"	"TRUE"	"VerticalHorizontal"	"3.3000000000"	"0.1621700000"	"1"	"79"
n/a	"html-keyboard-response"	"175"	"327095"	"0.0-5.0-2.0-0.61"	"negn55"	"600"	"1366"	"chrome"	"110.0.0"	"FALSE"	"Windows 10"	"60.53"	"034"	n/a	n/a	n/a	n/a	n/a	n/a	"fixation"	n/a	n/a	n/a	n/a	"NULL"	n/a	"NULL"	"NULL"	"NULL"	"<p style=\"color: black; font-size: 80px; padding-left: 26%; padding-right: 14%; padding-top: 17%; padding-bottom: 15%\">+</p>"	"1166"	n/a	n/a	n/a	n/a	n/a	n/a	n/a	n/a	n/a
n/a	"image-keyboard-response"	"176"	"328162"	"0.0-5.0-2.0-1.61"	"negn55"	"600"	"1366"	"chrome"	"110.0.0"	"FALSE"	"Windows 10"	"60.53"	"034"	n/a	n/a	n/a	n/a	n/a	n/a	"Trial"	n/a	n/a	n/a	"1066"	"arrowright"	n/a	"NULL"	"NULL"	"NULL"	"stimuli/VerticalHorizontal_28.75714_-0.2250.png"	n/a	"VerticalHorizontal"	"arrowright"	"1166"	"TRUE"	"VerticalHorizontal"	"28.757140000"	"-0.225000000"	"1"	"80"
n/a	"html-keyboard-response"	"177"	"329183"	"0.0-5.0-2.0-0.62"	"negn55"	"600"	"1366"	"chrome"	"110.0.0"	"FALSE"	"Windows 10"	"60.53"	"034"	n/a	n/a	n/a	n/a	n/a	n/a	"fixation"	n/a	n/a	n/a	n/a	"NULL"	n/a	"NULL"	"NULL"	"NULL"	"<p style=\"color: black; font-size: 80px; padding-left: 13%; padding-right: 29%; padding-top: 39%; padding-bottom: 35%\">+</p>"	"1013"	n/a	n/a	n/a	n/a	n/a	n/a	n/a	n/a	n/a
n/a	"image-keyboard-response"	"178"	"330029"	"0.0-5.0-2.0-1.62"	"negn55"	"600"	"1366"	"chrome"	"110.0.0"	"FALSE"	"Windows 10"	"60.53"	"034"	n/a	n/a	n/a	n/a	n/a	n/a	"Trial"	n/a	n/a	n/a	"846"	"arrowleft"	n/a	"NULL"	"NULL"	"NULL"	"stimuli/VerticalHorizontal_28.75714_-0.0673.png"	n/a	"VerticalHorizontal"	"arrowright"	"1021"	"FALSE"	"VerticalHorizontal"	"28.757140000"	"-0.067300000"	"1"	"81"
n/a	"html-keyboard-response"	"179"	"331078"	"0.0-5.0-2.0-0.63"	"negn55"	"600"	"1366"	"chrome"	"110.0.0"	"FALSE"	"Windows 10"	"60.53"	"034"	n/a	n/a	n/a	n/a	n/a	n/a	"fixation"	n/a	n/a	n/a	n/a	"NULL"	n/a	"NULL"	"NULL"	"NULL"	"<p style=\"color: black; font-size: 80px; padding-left: 27%; padding-right: 35%; padding-top: 41%; padding-bottom: 17%\">+</p>"	"1048"	n/a	n/a	n/a	n/a	n/a	n/a	n/a	n/a	n/a
n/a	"image-keyboard-response"	"180"	"331670"	"0.0-5.0-2.0-1.63"	"negn55"	"600"	"1366"	"chrome"	"110.0.0"	"FALSE"	"Windows 10"	"60.53"	"034"	n/a	n/a	n/a	n/a	n/a	n/a	"Trial"	n/a	n/a	n/a	"591"	"arrowleft"	n/a	"NULL"	"NULL"	"NULL"	"stimuli/VerticalHorizontal_-28.75714_0.06730.png"	n/a	"VerticalHorizontal"	"arrowleft"	"1049"	"TRUE"	"VerticalHorizontal"	"-28.75714000"	"0.0673000000"	"1"	"82"
n/a	"html-button-response"	"181"	"346097"	"0.0-5.0-3.0"	"negn55"	"600"	"1366"	"chrome"	"110.0.0"	"FALSE"	"Windows 10"	"60.53"	"034"	n/a	n/a	n/a	n/a	n/a	n/a	"block_results"	n/a	n/a	n/a	"14423"	"0"	n/a	"NULL"	"NULL"	"NULL"	"<p>Your score for this illusion is <p style=\"color: black; font-size: 48px; font-weight: bold;\">79.7 %</p><hr><p>Can you do better in the next illusion?</p>"	n/a	n/a	n/a	n/a	n/a	n/a	n/a	n/a	n/a	n/a
"TRUE"	"preload"	"182"	"346242"	"0.0-6.0-0.0"	"negn55"	"600"	"1366"	"chrome"	"110.0.0"	"FALSE"	"Windows 10"	"60.53"	"034"	n/a	n/a	n/a	n/a	n/a	n/a	n/a	n/a	n/a	n/a	n/a	"NULL"	"FALSE"	"list()"	"list()"	"list()"	n/a	n/a	n/a	n/a	n/a	n/a	n/a	n/a	n/a	n/a	n/a
n/a	"html-keyboard-response"	"183"	"350724"	"0.0-6.0-1.0"	"negn55"	"600"	"1366"	"chrome"	"110.0.0"	"FALSE"	"Windows 10"	"60.53"	"034"	n/a	n/a	n/a	n/a	n/a	n/a	n/a	n/a	n/a	n/a	"4482"	"enter"	n/a	"NULL"	"NULL"	"NULL"	"<p><b>Part 2/6</b></p><p>In this part, two horizontal red lines will appear one above the other.</p><p>Your task is to select which <b>line is longer</b> in length as fast as you can, without making errors.</p><p>Don't get distracted by the surrounding black arrows at the end of the red lines!</p><p>Press <b>the UP or the DOWN arrow</b> to indicate where is the longer <b>red line.</b></p><div style='float: center'><img src='materials/instructions/MullerLyer_Demo.png' height='300'></img><p><img src='utils/answer/answer_updown_keyboard.PNG' height='150'></img></p><p class='small'>In this example, the correct answer is the <b>UP arrow</b>.</p></div><p>Are you ready? <b>Press ENTER to start</b></p>"	n/a	n/a	n/a	n/a	n/a	n/a	n/a	n/a	n/a	n/a
n/a	"html-keyboard-response"	"184"	"352616"	"0.0-6.0-2.0-0.0"	"negn55"	"600"	"1366"	"chrome"	"110.0.0"	"FALSE"	"Windows 10"	"60.53"	"034"	n/a	n/a	n/a	n/a	n/a	n/a	"fixation"	n/a	n/a	n/a	n/a	"NULL"	n/a	"NULL"	"NULL"	"NULL"	"<p style=\"color: black; font-size: 80px; padding-left: 37%; padding-right: 11%; padding-top: 40%; padding-bottom: 35%\">+</p>"	"1381"	n/a	n/a	n/a	n/a	n/a	n/a	n/a	n/a	n/a
n/a	"image-keyboard-response"	"185"	"353373"	"0.0-6.0-2.0-1.0"	"negn55"	"600"	"1366"	"chrome"	"110.0.0"	"FALSE"	"Windows 10"	"60.53"	"034"	n/a	n/a	n/a	n/a	n/a	n/a	"Trial"	n/a	n/a	n/a	"756"	"arrowdown"	n/a	"NULL"	"NULL"	"NULL"	"stimuli/MullerLyer_-14.12857_-0.23665.png"	n/a	"MullerLyer"	"arrowdown"	"1892"	"TRUE"	"MullerLyer"	"-14.12857000"	"-0.236650000"	"2"	"1"
n/a	"html-keyboard-response"	"186"	"354593"	"0.0-6.0-2.0-0.1"	"negn55"	"600"	"1366"	"chrome"	"110.0.0"	"FALSE"	"Windows 10"	"60.53"	"034"	n/a	n/a	n/a	n/a	n/a	n/a	"fixation"	n/a	n/a	n/a	n/a	"NULL"	n/a	"NULL"	"NULL"	"NULL"	"<p style=\"color: black; font-size: 80px; padding-left: 45%; padding-right: 8%; padding-top: 16%; padding-bottom: 1%\">+</p>"	"1217"	n/a	n/a	n/a	n/a	n/a	n/a	n/a	n/a	n/a
n/a	"image-keyboard-response"	"187"	"355145"	"0.0-6.0-2.0-1.1"	"negn55"	"600"	"1366"	"chrome"	"110.0.0"	"FALSE"	"Windows 10"	"60.53"	"034"	n/a	n/a	n/a	n/a	n/a	n/a	"Trial"	n/a	n/a	n/a	"551"	"arrowup"	n/a	"NULL"	"NULL"	"NULL"	"stimuli/MullerLyer_8.21429_0.35000.png"	n/a	"MullerLyer"	"arrowup"	"1220"	"TRUE"	"MullerLyer"	"8.2142900000"	"0.3500000000"	"2"	"2"
n/a	"html-keyboard-response"	"188"	"356591"	"0.0-6.0-2.0-0.2"	"negn55"	"600"	"1366"	"chrome"	"110.0.0"	"FALSE"	"Windows 10"	"60.53"	"034"	n/a	n/a	n/a	n/a	n/a	n/a	"fixation"	n/a	n/a	n/a	n/a	"NULL"	n/a	"NULL"	"NULL"	"NULL"	"<p style=\"color: black; font-size: 80px; padding-left: 17%; padding-right: 41%; padding-top: 13%; padding-bottom: 45%\">+</p>"	"1445"	n/a	n/a	n/a	n/a	n/a	n/a	n/a	n/a	n/a
n/a	"image-keyboard-response"	"189"	"357092"	"0.0-6.0-2.0-1.2"	"negn55"	"600"	"1366"	"chrome"	"110.0.0"	"FALSE"	"Windows 10"	"60.53"	"034"	n/a	n/a	n/a	n/a	n/a	n/a	"Trial"	n/a	n/a	n/a	"499"	"arrowdown"	n/a	"NULL"	"NULL"	"NULL"	"stimuli/MullerLyer_-14.12857_-0.3500.png"	n/a	"MullerLyer"	"arrowdown"	"1446"	"TRUE"	"MullerLyer"	"-14.12857000"	"-0.350000000"	"2"	"3"
n/a	"html-keyboard-response"	"190"	"358580"	"0.0-6.0-2.0-0.3"	"negn55"	"600"	"1366"	"chrome"	"110.0.0"	"FALSE"	"Windows 10"	"60.53"	"034"	n/a	n/a	n/a	n/a	n/a	n/a	"fixation"	n/a	n/a	n/a	n/a	"NULL"	n/a	"NULL"	"NULL"	"NULL"	"<p style=\"color: black; font-size: 80px; padding-left: 0%; padding-right: 27%; padding-top: 34%; padding-bottom: 38%\">+</p>"	"1474"	n/a	n/a	n/a	n/a	n/a	n/a	n/a	n/a	n/a
n/a	"image-keyboard-response"	"191"	"359167"	"0.0-6.0-2.0-1.3"	"negn55"	"600"	"1366"	"chrome"	"110.0.0"	"FALSE"	"Windows 10"	"60.53"	"034"	n/a	n/a	n/a	n/a	n/a	n/a	"Trial"	n/a	n/a	n/a	"587"	"arrowup"	n/a	"NULL"	"NULL"	"NULL"	"stimuli/MullerLyer_20.04286_-0.23665.png"	n/a	"MullerLyer"	"arrowdown"	"1488"	"FALSE"	"MullerLyer"	"20.042860000"	"-0.236650000"	"2"	"4"
n/a	"html-keyboard-response"	"192"	"360216"	"0.0-6.0-2.0-0.4"	"negn55"	"600"	"1366"	"chrome"	"110.0.0"	"FALSE"	"Windows 10"	"60.53"	"034"	n/a	n/a	n/a	n/a	n/a	n/a	"fixation"	n/a	n/a	n/a	n/a	"NULL"	n/a	"NULL"	"NULL"	"NULL"	"<p style=\"color: black; font-size: 80px; padding-left: 49%; padding-right: 40%; padding-top: 41%; padding-bottom: 23%\">+</p>"	"1039"	n/a	n/a	n/a	n/a	n/a	n/a	n/a	n/a	n/a
n/a	"image-keyboard-response"	"193"	"360755"	"0.0-6.0-2.0-1.4"	"negn55"	"600"	"1366"	"chrome"	"110.0.0"	"FALSE"	"Windows 10"	"60.53"	"034"	n/a	n/a	n/a	n/a	n/a	n/a	"Trial"	n/a	n/a	n/a	"538"	"arrowup"	n/a	"NULL"	"NULL"	"NULL"	"stimuli/MullerLyer_-8.21429_0.23665.png"	n/a	"MullerLyer"	"arrowup"	"1049"	"TRUE"	"MullerLyer"	"-8.214290000"	"0.2366500000"	"2"	"5"
n/a	"html-keyboard-response"	"194"	"362177"	"0.0-6.0-2.0-0.5"	"negn55"	"600"	"1366"	"chrome"	"110.0.0"	"FALSE"	"Windows 10"	"60.53"	"034"	n/a	n/a	n/a	n/a	n/a	n/a	"fixation"	n/a	n/a	n/a	n/a	"NULL"	n/a	"NULL"	"NULL"	"NULL"	"<p style=\"color: black; font-size: 80px; padding-left: 23%; padding-right: 27%; padding-top: 3%; padding-bottom: 1%\">+</p>"	"1408"	n/a	n/a	n/a	n/a	n/a	n/a	n/a	n/a	n/a
n/a	"image-keyboard-response"	"195"	"362628"	"0.0-6.0-2.0-1.5"	"negn55"	"600"	"1366"	"chrome"	"110.0.0"	"FALSE"	"Windows 10"	"60.53"	"034"	n/a	n/a	n/a	n/a	n/a	n/a	"Trial"	n/a	n/a	n/a	"450"	"arrowup"	n/a	"NULL"	"NULL"	"NULL"	"stimuli/MullerLyer_-14.12857_0.14541.png"	n/a	"MullerLyer"	"arrowup"	"1422"	"TRUE"	"MullerLyer"	"-14.12857000"	"0.1454100000"	"2"	"6"
n/a	"html-keyboard-response"	"196"	"363793"	"0.0-6.0-2.0-0.6"	"negn55"	"600"	"1366"	"chrome"	"110.0.0"	"FALSE"	"Windows 10"	"60.53"	"034"	n/a	n/a	n/a	n/a	n/a	n/a	"fixation"	n/a	n/a	n/a	n/a	"NULL"	n/a	"NULL"	"NULL"	"NULL"	"<p style=\"color: black; font-size: 80px; padding-left: 40%; padding-right: 24%; padding-top: 12%; padding-bottom: 31%\">+</p>"	"1156"	n/a	n/a	n/a	n/a	n/a	n/a	n/a	n/a	n/a
n/a	"image-keyboard-response"	"197"	"364600"	"0.0-6.0-2.0-1.6"	"negn55"	"600"	"1366"	"chrome"	"110.0.0"	"FALSE"	"Windows 10"	"60.53"	"034"	n/a	n/a	n/a	n/a	n/a	n/a	"Trial"	n/a	n/a	n/a	"807"	"arrowup"	n/a	"NULL"	"NULL"	"NULL"	"stimuli/MullerLyer_-8.21429_0.07627.png"	n/a	"MullerLyer"	"arrowup"	"1165"	"TRUE"	"MullerLyer"	"-8.214290000"	"0.0762700000"	"2"	"7"
n/a	"html-keyboard-response"	"198"	"365684"	"0.0-6.0-2.0-0.7"	"negn55"	"600"	"1366"	"chrome"	"110.0.0"	"FALSE"	"Windows 10"	"60.53"	"034"	n/a	n/a	n/a	n/a	n/a	n/a	"fixation"	n/a	n/a	n/a	n/a	"NULL"	n/a	"NULL"	"NULL"	"NULL"	"<p style=\"color: black; font-size: 80px; padding-left: 46%; padding-right: 17%; padding-top: 30%; padding-bottom: 39%\">+</p>"	"1070"	n/a	n/a	n/a	n/a	n/a	n/a	n/a	n/a	n/a
n/a	"image-keyboard-response"	"199"	"366242"	"0.0-6.0-2.0-1.7"	"negn55"	"600"	"1366"	"chrome"	"110.0.0"	"FALSE"	"Windows 10"	"60.53"	"034"	n/a	n/a	n/a	n/a	n/a	n/a	"Trial"	n/a	n/a	n/a	"557"	"arrowdown"	n/a	"NULL"	"NULL"	"NULL"	"stimuli/MullerLyer_-2.3000_-0.07627.png"	n/a	"MullerLyer"	"arrowdown"	"1084"	"TRUE"	"MullerLyer"	"-2.300000000"	"-0.076270000"	"2"	"8"
n/a	"html-keyboard-response"	"200"	"367493"	"0.0-6.0-2.0-0.8"	"negn55"	"600"	"1366"	"chrome"	"110.0.0"	"FALSE"	"Windows 10"	"60.53"	"034"	n/a	n/a	n/a	n/a	n/a	n/a	"fixation"	n/a	n/a	n/a	n/a	"NULL"	n/a	"NULL"	"NULL"	"NULL"	"<p style=\"color: black; font-size: 80px; padding-left: 28%; padding-right: 42%; padding-top: 34%; padding-bottom: 13%\">+</p>"	"1243"	n/a	n/a	n/a	n/a	n/a	n/a	n/a	n/a	n/a
n/a	"image-keyboard-response"	"201"	"368131"	"0.0-6.0-2.0-1.8"	"negn55"	"600"	"1366"	"chrome"	"110.0.0"	"FALSE"	"Windows 10"	"60.53"	"034"	n/a	n/a	n/a	n/a	n/a	n/a	"Trial"	n/a	n/a	n/a	"634"	"arrowup"	n/a	"NULL"	"NULL"	"NULL"	"stimuli/MullerLyer_8.21429_-0.07627.png"	n/a	"MullerLyer"	"arrowdown"	"1251"	"FALSE"	"MullerLyer"	"8.2142900000"	"-0.076270000"	"2"	"9"
n/a	"html-keyboard-response"	"202"	"369356"	"0.0-6.0-2.0-0.9"	"negn55"	"600"	"1366"	"chrome"	"110.0.0"	"FALSE"	"Windows 10"	"60.53"	"034"	n/a	n/a	n/a	n/a	n/a	n/a	"fixation"	n/a	n/a	n/a	n/a	"NULL"	n/a	"NULL"	"NULL"	"NULL"	"<p style=\"color: black; font-size: 80px; padding-left: 3%; padding-right: 24%; padding-top: 18%; padding-bottom: 31%\">+</p>"	"1209"	n/a	n/a	n/a	n/a	n/a	n/a	n/a	n/a	n/a
n/a	"image-keyboard-response"	"203"	"369903"	"0.0-6.0-2.0-1.9"	"negn55"	"600"	"1366"	"chrome"	"110.0.0"	"FALSE"	"Windows 10"	"60.53"	"034"	n/a	n/a	n/a	n/a	n/a	n/a	"Trial"	n/a	n/a	n/a	"546"	"arrowdown"	n/a	"NULL"	"NULL"	"NULL"	"stimuli/MullerLyer_2.30000_-0.07627.png"	n/a	"MullerLyer"	"arrowdown"	"1225"	"TRUE"	"MullerLyer"	"2.3000000000"	"-0.076270000"	"2"	"10"
n/a	"html-keyboard-response"	"204"	"370964"	"0.0-6.0-2.0-0.10"	"negn55"	"600"	"1366"	"chrome"	"110.0.0"	"FALSE"	"Windows 10"	"60.53"	"034"	n/a	n/a	n/a	n/a	n/a	n/a	"fixation"	n/a	n/a	n/a	n/a	"NULL"	n/a	"NULL"	"NULL"	"NULL"	"<p style=\"color: black; font-size: 80px; padding-left: 39%; padding-right: 15%; padding-top: 32%; padding-bottom: 27%\">+</p>"	"1049"	n/a	n/a	n/a	n/a	n/a	n/a	n/a	n/a	n/a
n/a	"image-keyboard-response"	"205"	"371522"	"0.0-6.0-2.0-1.10"	"negn55"	"600"	"1366"	"chrome"	"110.0.0"	"FALSE"	"Windows 10"	"60.53"	"034"	n/a	n/a	n/a	n/a	n/a	n/a	"Trial"	n/a	n/a	n/a	"558"	"arrowup"	n/a	"NULL"	"NULL"	"NULL"	"stimuli/MullerLyer_8.21429_0.23665.png"	n/a	"MullerLyer"	"arrowup"	"1061"	"TRUE"	"MullerLyer"	"8.2142900000"	"0.2366500000"	"2"	"11"
n/a	"html-keyboard-response"	"206"	"372716"	"0.0-6.0-2.0-0.11"	"negn55"	"600"	"1366"	"chrome"	"110.0.0"	"FALSE"	"Windows 10"	"60.53"	"034"	n/a	n/a	n/a	n/a	n/a	n/a	"fixation"	n/a	n/a	n/a	n/a	"NULL"	n/a	"NULL"	"NULL"	"NULL"	"<p style=\"color: black; font-size: 80px; padding-left: 38%; padding-right: 44%; padding-top: 32%; padding-bottom: 44%\">+</p>"	"1187"	n/a	n/a	n/a	n/a	n/a	n/a	n/a	n/a	n/a
n/a	"image-keyboard-response"	"207"	"373274"	"0.0-6.0-2.0-1.11"	"negn55"	"600"	"1366"	"chrome"	"110.0.0"	"FALSE"	"Windows 10"	"60.53"	"034"	n/a	n/a	n/a	n/a	n/a	n/a	"Trial"	n/a	n/a	n/a	"558"	"arrowdown"	n/a	"NULL"	"NULL"	"NULL"	"stimuli/MullerLyer_-8.21429_-0.07627.png"	n/a	"MullerLyer"	"arrowdown"	"1194"	"TRUE"	"MullerLyer"	"-8.214290000"	"-0.076270000"	"2"	"12"
n/a	"html-keyboard-response"	"208"	"374606"	"0.0-6.0-2.0-0.12"	"negn55"	"600"	"1366"	"chrome"	"110.0.0"	"FALSE"	"Windows 10"	"60.53"	"034"	n/a	n/a	n/a	n/a	n/a	n/a	"fixation"	n/a	n/a	n/a	n/a	"NULL"	n/a	"NULL"	"NULL"	"NULL"	"<p style=\"color: black; font-size: 80px; padding-left: 21%; padding-right: 18%; padding-top: 30%; padding-bottom: 34%\">+</p>"	"1320"	n/a	n/a	n/a	n/a	n/a	n/a	n/a	n/a	n/a
n/a	"image-keyboard-response"	"209"	"375120"	"0.0-6.0-2.0-1.12"	"negn55"	"600"	"1366"	"chrome"	"110.0.0"	"FALSE"	"Windows 10"	"60.53"	"034"	n/a	n/a	n/a	n/a	n/a	n/a	"Trial"	n/a	n/a	n/a	"514"	"arrowdown"	n/a	"NULL"	"NULL"	"NULL"	"stimuli/MullerLyer_20.04286_-0.3500.png"	n/a	"MullerLyer"	"arrowdown"	"1332"	"TRUE"	"MullerLyer"	"20.042860000"	"-0.350000000"	"2"	"13"
n/a	"html-keyboard-response"	"210"	"376476"	"0.0-6.0-2.0-0.13"	"negn55"	"600"	"1366"	"chrome"	"110.0.0"	"FALSE"	"Windows 10"	"60.53"	"034"	n/a	n/a	n/a	n/a	n/a	n/a	"fixation"	n/a	n/a	n/a	n/a	"NULL"	n/a	"NULL"	"NULL"	"NULL"	"<p style=\"color: black; font-size: 80px; padding-left: 32%; padding-right: 2%; padding-top: 11%; padding-bottom: 18%\">+</p>"	"1352"	n/a	n/a	n/a	n/a	n/a	n/a	n/a	n/a	n/a
n/a	"image-keyboard-response"	"211"	"377021"	"0.0-6.0-2.0-1.13"	"negn55"	"600"	"1366"	"chrome"	"110.0.0"	"FALSE"	"Windows 10"	"60.53"	"034"	n/a	n/a	n/a	n/a	n/a	n/a	"Trial"	n/a	n/a	n/a	"545"	"arrowdown"	n/a	"NULL"	"NULL"	"NULL"	"stimuli/MullerLyer_14.12857_-0.3500.png"	n/a	"MullerLyer"	"arrowdown"	"1356"	"TRUE"	"MullerLyer"	"14.128570000"	"-0.350000000"	"2"	"14"
n/a	"html-keyboard-response"	"212"	"378526"	"0.0-6.0-2.0-0.14"	"negn55"	"600"	"1366"	"chrome"	"110.0.0"	"FALSE"	"Windows 10"	"60.53"	"034"	n/a	n/a	n/a	n/a	n/a	n/a	"fixation"	n/a	n/a	n/a	n/a	"NULL"	n/a	"NULL"	"NULL"	"NULL"	"<p style=\"color: black; font-size: 80px; padding-left: 18%; padding-right: 20%; padding-top: 42%; padding-bottom: 27%\">+</p>"	"1495"	n/a	n/a	n/a	n/a	n/a	n/a	n/a	n/a	n/a
n/a	"image-keyboard-response"	"213"	"379121"	"0.0-6.0-2.0-1.14"	"negn55"	"600"	"1366"	"chrome"	"110.0.0"	"FALSE"	"Windows 10"	"60.53"	"034"	n/a	n/a	n/a	n/a	n/a	n/a	"Trial"	n/a	n/a	n/a	"595"	"arrowup"	n/a	"NULL"	"NULL"	"NULL"	"stimuli/MullerLyer_14.12857_0.23665.png"	n/a	"MullerLyer"	"arrowup"	"1505"	"TRUE"	"MullerLyer"	"14.128570000"	"0.2366500000"	"2"	"15"
n/a	"html-keyboard-response"	"214"	"380444"	"0.0-6.0-2.0-0.15"	"negn55"	"600"	"1366"	"chrome"	"110.0.0"	"FALSE"	"Windows 10"	"60.53"	"034"	n/a	n/a	n/a	n/a	n/a	n/a	"fixation"	n/a	n/a	n/a	n/a	"NULL"	n/a	"NULL"	"NULL"	"NULL"	"<p style=\"color: black; font-size: 80px; padding-left: 13%; padding-right: 30%; padding-top: 37%; padding-bottom: 3%\">+</p>"	"1310"	n/a	n/a	n/a	n/a	n/a	n/a	n/a	n/a	n/a
n/a	"image-keyboard-response"	"215"	"381078"	"0.0-6.0-2.0-1.15"	"negn55"	"600"	"1366"	"chrome"	"110.0.0"	"FALSE"	"Windows 10"	"60.53"	"034"	n/a	n/a	n/a	n/a	n/a	n/a	"Trial"	n/a	n/a	n/a	"634"	"arrowup"	n/a	"NULL"	"NULL"	"NULL"	"stimuli/MullerLyer_2.30000_0.14541.png"	n/a	"MullerLyer"	"arrowup"	"1323"	"TRUE"	"MullerLyer"	"2.3000000000"	"0.1454100000"	"2"	"16"
n/a	"html-keyboard-response"	"216"	"382540"	"0.0-6.0-2.0-0.16"	"negn55"	"600"	"1366"	"chrome"	"110.0.0"	"FALSE"	"Windows 10"	"60.53"	"034"	n/a	n/a	n/a	n/a	n/a	n/a	"fixation"	n/a	n/a	n/a	n/a	"NULL"	n/a	"NULL"	"NULL"	"NULL"	"<p style=\"color: black; font-size: 80px; padding-left: 41%; padding-right: 8%; padding-top: 25%; padding-bottom: 42%\">+</p>"	"1449"	n/a	n/a	n/a	n/a	n/a	n/a	n/a	n/a	n/a
n/a	"image-keyboard-response"	"217"	"383068"	"0.0-6.0-2.0-1.16"	"negn55"	"600"	"1366"	"chrome"	"110.0.0"	"FALSE"	"Windows 10"	"60.53"	"034"	n/a	n/a	n/a	n/a	n/a	n/a	"Trial"	n/a	n/a	n/a	"527"	"arrowup"	n/a	"NULL"	"NULL"	"NULL"	"stimuli/MullerLyer_14.12857_0.35000.png"	n/a	"MullerLyer"	"arrowup"	"1462"	"TRUE"	"MullerLyer"	"14.128570000"	"0.3500000000"	"2"	"17"
n/a	"html-keyboard-response"	"218"	"384415"	"0.0-6.0-2.0-0.17"	"negn55"	"600"	"1366"	"chrome"	"110.0.0"	"FALSE"	"Windows 10"	"60.53"	"034"	n/a	n/a	n/a	n/a	n/a	n/a	"fixation"	n/a	n/a	n/a	n/a	"NULL"	n/a	"NULL"	"NULL"	"NULL"	"<p style=\"color: black; font-size: 80px; padding-left: 7%; padding-right: 29%; padding-top: 43%; padding-bottom: 3%\">+</p>"	"1342"	n/a	n/a	n/a	n/a	n/a	n/a	n/a	n/a	n/a
n/a	"image-keyboard-response"	"219"	"384896"	"0.0-6.0-2.0-1.17"	"negn55"	"600"	"1366"	"chrome"	"110.0.0"	"FALSE"	"Windows 10"	"60.53"	"034"	n/a	n/a	n/a	n/a	n/a	n/a	"Trial"	n/a	n/a	n/a	"480"	"arrowup"	n/a	"NULL"	"NULL"	"NULL"	"stimuli/MullerLyer_-14.12857_0.23665.png"	n/a	"MullerLyer"	"arrowup"	"1347"	"TRUE"	"MullerLyer"	"-14.12857000"	"0.2366500000"	"2"	"18"
n/a	"html-keyboard-response"	"220"	"386270"	"0.0-6.0-2.0-0.18"	"negn55"	"600"	"1366"	"chrome"	"110.0.0"	"FALSE"	"Windows 10"	"60.53"	"034"	n/a	n/a	n/a	n/a	n/a	n/a	"fixation"	n/a	n/a	n/a	n/a	"NULL"	n/a	"NULL"	"NULL"	"NULL"	"<p style=\"color: black; font-size: 80px; padding-left: 28%; padding-right: 49%; padding-top: 36%; padding-bottom: 24%\">+</p>"	"1370"	n/a	n/a	n/a	n/a	n/a	n/a	n/a	n/a	n/a
n/a	"image-keyboard-response"	"221"	"386734"	"0.0-6.0-2.0-1.18"	"negn55"	"600"	"1366"	"chrome"	"110.0.0"	"FALSE"	"Windows 10"	"60.53"	"034"	n/a	n/a	n/a	n/a	n/a	n/a	"Trial"	n/a	n/a	n/a	"463"	"arrowup"	n/a	"NULL"	"NULL"	"NULL"	"stimuli/MullerLyer_-20.04286_0.14541.png"	n/a	"MullerLyer"	"arrowup"	"1374"	"TRUE"	"MullerLyer"	"-20.04286000"	"0.1454100000"	"2"	"19"
n/a	"html-keyboard-response"	"222"	"387963"	"0.0-6.0-2.0-0.19"	"negn55"	"600"	"1366"	"chrome"	"110.0.0"	"FALSE"	"Windows 10"	"60.53"	"034"	n/a	n/a	n/a	n/a	n/a	n/a	"fixation"	n/a	n/a	n/a	n/a	"NULL"	n/a	"NULL"	"NULL"	"NULL"	"<p style=\"color: black; font-size: 80px; padding-left: 34%; padding-right: 40%; padding-top: 39%; padding-bottom: 30%\">+</p>"	"1216"	n/a	n/a	n/a	n/a	n/a	n/a	n/a	n/a	n/a
n/a	"image-keyboard-response"	"223"	"388438"	"0.0-6.0-2.0-1.19"	"negn55"	"600"	"1366"	"chrome"	"110.0.0"	"FALSE"	"Windows 10"	"60.53"	"034"	n/a	n/a	n/a	n/a	n/a	n/a	"Trial"	n/a	n/a	n/a	"474"	"arrowup"	n/a	"NULL"	"NULL"	"NULL"	"stimuli/MullerLyer_-2.3000_0.35000.png"	n/a	"MullerLyer"	"arrowup"	"1229"	"TRUE"	"MullerLyer"	"-2.300000000"	"0.3500000000"	"2"	"20"
n/a	"html-keyboard-response"	"224"	"389671"	"0.0-6.0-2.0-0.20"	"negn55"	"600"	"1366"	"chrome"	"110.0.0"	"FALSE"	"Windows 10"	"60.53"	"034"	n/a	n/a	n/a	n/a	n/a	n/a	"fixation"	n/a	n/a	n/a	n/a	"NULL"	n/a	"NULL"	"NULL"	"NULL"	"<p style=\"color: black; font-size: 80px; padding-left: 22%; padding-right: 19%; padding-top: 31%; padding-bottom: 9%\">+</p>"	"1224"	n/a	n/a	n/a	n/a	n/a	n/a	n/a	n/a	n/a
n/a	"image-keyboard-response"	"225"	"390128"	"0.0-6.0-2.0-1.20"	"negn55"	"600"	"1366"	"chrome"	"110.0.0"	"FALSE"	"Windows 10"	"60.53"	"034"	n/a	n/a	n/a	n/a	n/a	n/a	"Trial"	n/a	n/a	n/a	"456"	"arrowup"	n/a	"NULL"	"NULL"	"NULL"	"stimuli/MullerLyer_-14.12857_0.07627.png"	n/a	"MullerLyer"	"arrowup"	"1233"	"TRUE"	"MullerLyer"	"-14.12857000"	"0.0762700000"	"2"	"21"
n/a	"html-keyboard-response"	"226"	"391579"	"0.0-6.0-2.0-0.21"	"negn55"	"600"	"1366"	"chrome"	"110.0.0"	"FALSE"	"Windows 10"	"60.53"	"034"	n/a	n/a	n/a	n/a	n/a	n/a	"fixation"	n/a	n/a	n/a	n/a	"NULL"	n/a	"NULL"	"NULL"	"NULL"	"<p style=\"color: black; font-size: 80px; padding-left: 19%; padding-right: 13%; padding-top: 17%; padding-bottom: 42%\">+</p>"	"1437"	n/a	n/a	n/a	n/a	n/a	n/a	n/a	n/a	n/a
n/a	"image-keyboard-response"	"227"	"392155"	"0.0-6.0-2.0-1.21"	"negn55"	"600"	"1366"	"chrome"	"110.0.0"	"FALSE"	"Windows 10"	"60.53"	"034"	n/a	n/a	n/a	n/a	n/a	n/a	"Trial"	n/a	n/a	n/a	"575"	"arrowup"	n/a	"NULL"	"NULL"	"NULL"	"stimuli/MullerLyer_14.12857_-0.07627.png"	n/a	"MullerLyer"	"arrowdown"	"1451"	"FALSE"	"MullerLyer"	"14.128570000"	"-0.076270000"	"2"	"22"
n/a	"html-keyboard-response"	"228"	"393262"	"0.0-6.0-2.0-0.22"	"negn55"	"600"	"1366"	"chrome"	"110.0.0"	"FALSE"	"Windows 10"	"60.53"	"034"	n/a	n/a	n/a	n/a	n/a	n/a	"fixation"	n/a	n/a	n/a	n/a	"NULL"	n/a	"NULL"	"NULL"	"NULL"	"<p style=\"color: black; font-size: 80px; padding-left: 23%; padding-right: 18%; padding-top: 48%; padding-bottom: 40%\">+</p>"	"1099"	n/a	n/a	n/a	n/a	n/a	n/a	n/a	n/a	n/a
n/a	"image-keyboard-response"	"229"	"393814"	"0.0-6.0-2.0-1.22"	"negn55"	"600"	"1366"	"chrome"	"110.0.0"	"FALSE"	"Windows 10"	"60.53"	"034"	n/a	n/a	n/a	n/a	n/a	n/a	"Trial"	n/a	n/a	n/a	"551"	"arrowdown"	n/a	"NULL"	"NULL"	"NULL"	"stimuli/MullerLyer_-2.3000_-0.23665.png"	n/a	"MullerLyer"	"arrowdown"	"1107"	"TRUE"	"MullerLyer"	"-2.300000000"	"-0.236650000"	"2"	"23"
n/a	"html-keyboard-response"	"230"	"395055"	"0.0-6.0-2.0-0.23"	"negn55"	"600"	"1366"	"chrome"	"110.0.0"	"FALSE"	"Windows 10"	"60.53"	"034"	n/a	n/a	n/a	n/a	n/a	n/a	"fixation"	n/a	n/a	n/a	n/a	"NULL"	n/a	"NULL"	"NULL"	"NULL"	"<p style=\"color: black; font-size: 80px; padding-left: 29%; padding-right: 46%; padding-top: 3%; padding-bottom: 5%\">+</p>"	"1238"	n/a	n/a	n/a	n/a	n/a	n/a	n/a	n/a	n/a
n/a	"image-keyboard-response"	"231"	"395500"	"0.0-6.0-2.0-1.23"	"negn55"	"600"	"1366"	"chrome"	"110.0.0"	"FALSE"	"Windows 10"	"60.53"	"034"	n/a	n/a	n/a	n/a	n/a	n/a	"Trial"	n/a	n/a	n/a	"444"	"arrowdown"	n/a	"NULL"	"NULL"	"NULL"	"stimuli/MullerLyer_-20.04286_-0.23665.png"	n/a	"MullerLyer"	"arrowdown"	"1241"	"TRUE"	"MullerLyer"	"-20.04286000"	"-0.236650000"	"2"	"24"
n/a	"html-keyboard-response"	"232"	"396652"	"0.0-6.0-2.0-0.24"	"negn55"	"600"	"1366"	"chrome"	"110.0.0"	"FALSE"	"Windows 10"	"60.53"	"034"	n/a	n/a	n/a	n/a	n/a	n/a	"fixation"	n/a	n/a	n/a	n/a	"NULL"	n/a	"NULL"	"NULL"	"NULL"	"<p style=\"color: black; font-size: 80px; padding-left: 7%; padding-right: 49%; padding-top: 3%; padding-bottom: 17%\">+</p>"	"1140"	n/a	n/a	n/a	n/a	n/a	n/a	n/a	n/a	n/a
n/a	"image-keyboard-response"	"233"	"397122"	"0.0-6.0-2.0-1.24"	"negn55"	"600"	"1366"	"chrome"	"110.0.0"	"FALSE"	"Windows 10"	"60.53"	"034"	n/a	n/a	n/a	n/a	n/a	n/a	"Trial"	n/a	n/a	n/a	"469"	"arrowup"	n/a	"NULL"	"NULL"	"NULL"	"stimuli/MullerLyer_-8.21429_0.35000.png"	n/a	"MullerLyer"	"arrowup"	"1152"	"TRUE"	"MullerLyer"	"-8.214290000"	"0.3500000000"	"2"	"25"
n/a	"html-keyboard-response"	"234"	"398167"	"0.0-6.0-2.0-0.25"	"negn55"	"600"	"1366"	"chrome"	"110.0.0"	"FALSE"	"Windows 10"	"60.53"	"034"	n/a	n/a	n/a	n/a	n/a	n/a	"fixation"	n/a	n/a	n/a	n/a	"NULL"	n/a	"NULL"	"NULL"	"NULL"	"<p style=\"color: black; font-size: 80px; padding-left: 15%; padding-right: 34%; padding-top: 3%; padding-bottom: 24%\">+</p>"	"1033"	n/a	n/a	n/a	n/a	n/a	n/a	n/a	n/a	n/a
n/a	"image-keyboard-response"	"235"	"398700"	"0.0-6.0-2.0-1.25"	"negn55"	"600"	"1366"	"chrome"	"110.0.0"	"FALSE"	"Windows 10"	"60.53"	"034"	n/a	n/a	n/a	n/a	n/a	n/a	"Trial"	n/a	n/a	n/a	"531"	"arrowdown"	n/a	"NULL"	"NULL"	"NULL"	"stimuli/MullerLyer_20.04286_0.07627.png"	n/a	"MullerLyer"	"arrowup"	"1045"	"FALSE"	"MullerLyer"	"20.042860000"	"0.0762700000"	"2"	"26"
n/a	"html-keyboard-response"	"236"	"399795"	"0.0-6.0-2.0-0.26"	"negn55"	"600"	"1366"	"chrome"	"110.0.0"	"FALSE"	"Windows 10"	"60.53"	"034"	n/a	n/a	n/a	n/a	n/a	n/a	"fixation"	n/a	n/a	n/a	n/a	"NULL"	n/a	"NULL"	"NULL"	"NULL"	"<p style=\"color: black; font-size: 80px; padding-left: 21%; padding-right: 4%; padding-top: 24%; padding-bottom: 49%\">+</p>"	"1082"	n/a	n/a	n/a	n/a	n/a	n/a	n/a	n/a	n/a
n/a	"image-keyboard-response"	"237"	"400328"	"0.0-6.0-2.0-1.26"	"negn55"	"600"	"1366"	"chrome"	"110.0.0"	"FALSE"	"Windows 10"	"60.53"	"034"	n/a	n/a	n/a	n/a	n/a	n/a	"Trial"	n/a	n/a	n/a	"532"	"arrowdown"	n/a	"NULL"	"NULL"	"NULL"	"stimuli/MullerLyer_2.30000_-0.14541.png"	n/a	"MullerLyer"	"arrowdown"	"1095"	"TRUE"	"MullerLyer"	"2.3000000000"	"-0.145410000"	"2"	"27"
n/a	"html-keyboard-response"	"238"	"401553"	"0.0-6.0-2.0-0.27"	"negn55"	"600"	"1366"	"chrome"	"110.0.0"	"FALSE"	"Windows 10"	"60.53"	"034"	n/a	n/a	n/a	n/a	n/a	n/a	"fixation"	n/a	n/a	n/a	n/a	"NULL"	n/a	"NULL"	"NULL"	"NULL"	"<p style=\"color: black; font-size: 80px; padding-left: 43%; padding-right: 4%; padding-top: 24%; padding-bottom: 46%\">+</p>"	"1217"	n/a	n/a	n/a	n/a	n/a	n/a	n/a	n/a	n/a
n/a	"image-keyboard-response"	"239"	"402068"	"0.0-6.0-2.0-1.27"	"negn55"	"600"	"1366"	"chrome"	"110.0.0"	"FALSE"	"Windows 10"	"60.53"	"034"	n/a	n/a	n/a	n/a	n/a	n/a	"Trial"	n/a	n/a	n/a	"514"	"arrowdown"	n/a	"NULL"	"NULL"	"NULL"	"stimuli/MullerLyer_2.30000_-0.3500.png"	n/a	"MullerLyer"	"arrowdown"	"1225"	"TRUE"	"MullerLyer"	"2.3000000000"	"-0.350000000"	"2"	"28"
n/a	"html-keyboard-response"	"240"	"403543"	"0.0-6.0-2.0-0.28"	"negn55"	"600"	"1366"	"chrome"	"110.0.0"	"FALSE"	"Windows 10"	"60.53"	"034"	n/a	n/a	n/a	n/a	n/a	n/a	"fixation"	n/a	n/a	n/a	n/a	"NULL"	n/a	"NULL"	"NULL"	"NULL"	"<p style=\"color: black; font-size: 80px; padding-left: 42%; padding-right: 26%; padding-top: 21%; padding-bottom: 34%\">+</p>"	"1461"	n/a	n/a	n/a	n/a	n/a	n/a	n/a	n/a	n/a
n/a	"image-keyboard-response"	"241"	"404054"	"0.0-6.0-2.0-1.28"	"negn55"	"600"	"1366"	"chrome"	"110.0.0"	"FALSE"	"Windows 10"	"60.53"	"034"	n/a	n/a	n/a	n/a	n/a	n/a	"Trial"	n/a	n/a	n/a	"511"	"arrowup"	n/a	"NULL"	"NULL"	"NULL"	"stimuli/MullerLyer_-2.3000_0.14541.png"	n/a	"MullerLyer"	"arrowup"	"1475"	"TRUE"	"MullerLyer"	"-2.300000000"	"0.1454100000"	"2"	"29"
n/a	"html-keyboard-response"	"242"	"405369"	"0.0-6.0-2.0-0.29"	"negn55"	"600"	"1366"	"chrome"	"110.0.0"	"FALSE"	"Windows 10"	"60.53"	"034"	n/a	n/a	n/a	n/a	n/a	n/a	"fixation"	n/a	n/a	n/a	n/a	"NULL"	n/a	"NULL"	"NULL"	"NULL"	"<p style=\"color: black; font-size: 80px; padding-left: 1%; padding-right: 19%; padding-top: 17%; padding-bottom: 13%\">+</p>"	"1312"	n/a	n/a	n/a	n/a	n/a	n/a	n/a	n/a	n/a
n/a	"image-keyboard-response"	"243"	"405780"	"0.0-6.0-2.0-1.29"	"negn55"	"600"	"1366"	"chrome"	"110.0.0"	"FALSE"	"Windows 10"	"60.53"	"034"	n/a	n/a	n/a	n/a	n/a	n/a	"Trial"	n/a	n/a	n/a	"410"	"arrowup"	n/a	"NULL"	"NULL"	"NULL"	"stimuli/MullerLyer_-20.04286_0.07627.png"	n/a	"MullerLyer"	"arrowup"	"1315"	"TRUE"	"MullerLyer"	"-20.04286000"	"0.0762700000"	"2"	"30"
n/a	"html-keyboard-response"	"244"	"407085"	"0.0-6.0-2.0-0.30"	"negn55"	"600"	"1366"	"chrome"	"110.0.0"	"FALSE"	"Windows 10"	"60.53"	"034"	n/a	n/a	n/a	n/a	n/a	n/a	"fixation"	n/a	n/a	n/a	n/a	"NULL"	n/a	"NULL"	"NULL"	"NULL"	"<p style=\"color: black; font-size: 80px; padding-left: 7%; padding-right: 12%; padding-top: 43%; padding-bottom: 1%\">+</p>"	"1304"	n/a	n/a	n/a	n/a	n/a	n/a	n/a	n/a	n/a
n/a	"image-keyboard-response"	"245"	"407523"	"0.0-6.0-2.0-1.30"	"negn55"	"600"	"1366"	"chrome"	"110.0.0"	"FALSE"	"Windows 10"	"60.53"	"034"	n/a	n/a	n/a	n/a	n/a	n/a	"Trial"	n/a	n/a	n/a	"437"	"arrowdown"	n/a	"NULL"	"NULL"	"NULL"	"stimuli/MullerLyer_8.21429_-0.3500.png"	n/a	"MullerLyer"	"arrowdown"	"1305"	"TRUE"	"MullerLyer"	"8.2142900000"	"-0.350000000"	"2"	"31"
n/a	"html-keyboard-response"	"246"	"408965"	"0.0-6.0-2.0-0.31"	"negn55"	"600"	"1366"	"chrome"	"110.0.0"	"FALSE"	"Windows 10"	"60.53"	"034"	n/a	n/a	n/a	n/a	n/a	n/a	"fixation"	n/a	n/a	n/a	n/a	"NULL"	n/a	"NULL"	"NULL"	"NULL"	"<p style=\"color: black; font-size: 80px; padding-left: 9%; padding-right: 37%; padding-top: 19%; padding-bottom: 25%\">+</p>"	"1428"	n/a	n/a	n/a	n/a	n/a	n/a	n/a	n/a	n/a
n/a	"image-keyboard-response"	"247"	"409443"	"0.0-6.0-2.0-1.31"	"negn55"	"600"	"1366"	"chrome"	"110.0.0"	"FALSE"	"Windows 10"	"60.53"	"034"	n/a	n/a	n/a	n/a	n/a	n/a	"Trial"	n/a	n/a	n/a	"478"	"arrowdown"	n/a	"NULL"	"NULL"	"NULL"	"stimuli/MullerLyer_-20.04286_-0.14541.png"	n/a	"MullerLyer"	"arrowdown"	"1442"	"TRUE"	"MullerLyer"	"-20.04286000"	"-0.145410000"	"2"	"32"
n/a	"html-keyboard-response"	"248"	"410530"	"0.0-6.0-2.0-0.32"	"negn55"	"600"	"1366"	"chrome"	"110.0.0"	"FALSE"	"Windows 10"	"60.53"	"034"	n/a	n/a	n/a	n/a	n/a	n/a	"fixation"	n/a	n/a	n/a	n/a	"NULL"	n/a	"NULL"	"NULL"	"NULL"	"<p style=\"color: black; font-size: 80px; padding-left: 1%; padding-right: 30%; padding-top: 8%; padding-bottom: 32%\">+</p>"	"1076"	n/a	n/a	n/a	n/a	n/a	n/a	n/a	n/a	n/a
n/a	"image-keyboard-response"	"249"	"410941"	"0.0-6.0-2.0-1.32"	"negn55"	"600"	"1366"	"chrome"	"110.0.0"	"FALSE"	"Windows 10"	"60.53"	"034"	n/a	n/a	n/a	n/a	n/a	n/a	"Trial"	n/a	n/a	n/a	"410"	"arrowup"	n/a	"NULL"	"NULL"	"NULL"	"stimuli/MullerLyer_-8.21429_0.14541.png"	n/a	"MullerLyer"	"arrowup"	"1087"	"TRUE"	"MullerLyer"	"-8.214290000"	"0.1454100000"	"2"	"33"
