"success"	"trial_type"	"trial_index"	"time_elapsed"	"internal_node_id"	"participant_id"	"screen_height"	"screen_width"	"browser"	"browser_version"	"mobile"	"os"	"vsync_rate"	"subject_id"	"width"	"height"	"webaudio"	"fullscreen"	"webcam"	"microphone"	"screen"	"version"	"date"	"time"	"rt"	"response"	"timeout"	"failed_images"	"failed_audio"	"failed_video"	"stimulus"	"trial_duration"	"block"	"correct_response"	"prestimulus_duration"	"correct"	"type"	"illusion_strength"	"illusion_difference"	"block_number"	"trial_number"
"TRUE"	"fullscreen"	"0"	"3268"	"0.0-0.0"	"nej63f"	"600"	"1366"	"chrome"	"110.0.0"	"FALSE"	"Windows 10"	"60.07"	"037"	n/a	n/a	n/a	n/a	n/a	n/a	n/a	n/a	n/a	n/a	n/a	"NULL"	n/a	"NULL"	"NULL"	"NULL"	n/a	n/a	n/a	n/a	n/a	n/a	n/a	n/a	n/a	n/a	n/a
n/a	"browser-check"	"1"	"4280"	"0.0-1.0"	"nej63f"	"600"	"1366"	"chrome"	"110.0.0"	"FALSE"	"Windows 10"	"60.07"	"037"	"1366"	"600"	"TRUE"	"TRUE"	"TRUE"	"TRUE"	"browser_info"	"1.0"	"06/03/2023"	"18:17:24"	n/a	"NULL"	n/a	"NULL"	"NULL"	"NULL"	n/a	n/a	n/a	n/a	n/a	n/a	n/a	n/a	n/a	n/a	n/a
n/a	"survey-text"	"2"	"7183"	"0.0-2.0"	"nej63f"	"600"	"1366"	"chrome"	"110.0.0"	"FALSE"	"Windows 10"	"60.07"	"037"	n/a	n/a	n/a	n/a	n/a	n/a	"subject_id"	n/a	n/a	n/a	"2901"	"list(subject_id = \"037\")"	n/a	"NULL"	"NULL"	"NULL"	n/a	n/a	n/a	n/a	n/a	n/a	n/a	n/a	n/a	n/a	n/a
"TRUE"	"preload"	"3"	"7192"	"0.0-3.0"	"nej63f"	"600"	"1366"	"chrome"	"110.0.0"	"FALSE"	"Windows 10"	"60.07"	"037"	n/a	n/a	n/a	n/a	n/a	n/a	n/a	n/a	n/a	n/a	n/a	"NULL"	"FALSE"	"list()"	"list()"	"list()"	n/a	n/a	n/a	n/a	n/a	n/a	n/a	n/a	n/a	n/a	n/a
n/a	"html-button-response"	"4"	"48539"	"0.0-4.0-0.0"	"nej63f"	"600"	"1366"	"chrome"	"110.0.0"	"FALSE"	"Windows 10"	"60.07"	"037"	n/a	n/a	n/a	n/a	n/a	n/a	"illusion_instructions"	n/a	n/a	n/a	"41345"	"0"	n/a	"NULL"	"NULL"	"NULL"	"<p><b>Illusion Game</b></p><p>In this game of speed and reflex, you will need to make <b>visual judgments</b> (for instance, which circle is the biggest, or which line is the longest), as fast and as correctly as possible, while <b>resisting different visual illusions</b>.</p><p>We are going to start with some examples of all the illusions you will encounter in the game.</p>"	n/a	n/a	n/a	n/a	n/a	n/a	n/a	n/a	n/a	n/a
"TRUE"	"preload"	"5"	"48554"	"0.0-4.0-1.0-0.0"	"nej63f"	"600"	"1366"	"chrome"	"110.0.0"	"FALSE"	"Windows 10"	"60.07"	"037"	n/a	n/a	n/a	n/a	n/a	n/a	n/a	n/a	n/a	n/a	n/a	"NULL"	"FALSE"	"list()"	"list()"	"list()"	n/a	n/a	n/a	n/a	n/a	n/a	n/a	n/a	n/a	n/a	n/a
n/a	"html-keyboard-response"	"6"	"68084"	"0.0-4.0-1.0-1.0"	"nej63f"	"600"	"1366"	"chrome"	"110.0.0"	"FALSE"	"Windows 10"	"60.07"	"037"	n/a	n/a	n/a	n/a	n/a	n/a	n/a	n/a	n/a	n/a	"19523"	"enter"	n/a	"NULL"	"NULL"	"NULL"	"<p><b>Practice</b></p><p>In this part, two red circles will appear side by side on the screen.</p><p>Your task is to select which <b>red circle is bigger</b> in size as fast as you can, without making errors.</p><p>Don't get distracted by the surrounding black circles around the red circles!</p><p>Press <b>the LEFT or the RIGHT arrow</b> to indicate which is the bigger <b>red circle.</b></p><div style='float: center'><img src='materials/instructions/Ebbinghaus_Demo.png' height='300'></img><p><img src='utils/answer/answer_leftright_keyboard.PNG' height='150'></img></p><p class='small'>In this example, the correct answer is the <b>LEFT arrow</b>.</p></div><p>Are you ready? <b>Press ENTER to start</b></p>"	n/a	n/a	n/a	n/a	n/a	n/a	n/a	n/a	n/a	n/a
n/a	"html-keyboard-response"	"7"	"69682"	"0.0-4.0-1.0-2.0-0.0"	"nej63f"	"600"	"1366"	"chrome"	"110.0.0"	"FALSE"	"Windows 10"	"60.07"	"037"	n/a	n/a	n/a	n/a	n/a	n/a	"fixation"	n/a	n/a	n/a	n/a	"NULL"	n/a	"NULL"	"NULL"	"NULL"	"<p style=\"color: black; font-size: 80px; padding-left: 44%; padding-right: 42%; padding-top: 6%; padding-bottom: 12%\">+</p>"	"1084"	n/a	n/a	n/a	n/a	n/a	n/a	n/a	n/a	n/a
n/a	"image-keyboard-response"	"8"	"72272"	"0.0-4.0-1.0-2.0-1.0"	"nej63f"	"600"	"1366"	"chrome"	"110.0.0"	"FALSE"	"Windows 10"	"60.07"	"037"	n/a	n/a	n/a	n/a	n/a	n/a	"Trial"	n/a	n/a	n/a	"2589"	"arrowright"	n/a	"NULL"	"NULL"	"NULL"	"stimuli/Ebbinghaus_-100000_1.40000.png"	n/a	"Ebbinghaus"	"arrowleft"	"1598"	"FALSE"	"Ebbinghaus"	"-10000000000"	"1.4000000000"	"1"	"1"
n/a	"html-keyboard-response"	"9"	"73604"	"0.0-4.0-1.0-2.0-0.1"	"nej63f"	"600"	"1366"	"chrome"	"110.0.0"	"FALSE"	"Windows 10"	"60.07"	"037"	n/a	n/a	n/a	n/a	n/a	n/a	"fixation"	n/a	n/a	n/a	n/a	"NULL"	n/a	"NULL"	"NULL"	"NULL"	"<p style=\"color: black; font-size: 80px; padding-left: 23%; padding-right: 20%; padding-top: 24%; padding-bottom: 45%\">+</p>"	"1328"	n/a	n/a	n/a	n/a	n/a	n/a	n/a	n/a	n/a
n/a	"image-keyboard-response"	"10"	"74139"	"0.0-4.0-1.0-2.0-1.1"	"nej63f"	"600"	"1366"	"chrome"	"110.0.0"	"FALSE"	"Windows 10"	"60.07"	"037"	n/a	n/a	n/a	n/a	n/a	n/a	"Trial"	n/a	n/a	n/a	"535"	"arrowright"	n/a	"NULL"	"NULL"	"NULL"	"stimuli/Ebbinghaus_1000000_-1.4000.png"	n/a	"Ebbinghaus"	"arrowright"	"1332"	"TRUE"	"Ebbinghaus"	"100000000000"	"-1.400000000"	"1"	"2"
n/a	"html-keyboard-response"	"11"	"75467"	"0.0-4.0-1.0-2.0-0.2"	"nej63f"	"600"	"1366"	"chrome"	"110.0.0"	"FALSE"	"Windows 10"	"60.07"	"037"	n/a	n/a	n/a	n/a	n/a	n/a	"fixation"	n/a	n/a	n/a	n/a	"NULL"	n/a	"NULL"	"NULL"	"NULL"	"<p style=\"color: black; font-size: 80px; padding-left: 0%; padding-right: 20%; padding-top: 25%; padding-bottom: 43%\">+</p>"	"1321"	n/a	n/a	n/a	n/a	n/a	n/a	n/a	n/a	n/a
n/a	"image-keyboard-response"	"12"	"76013"	"0.0-4.0-1.0-2.0-1.2"	"nej63f"	"600"	"1366"	"chrome"	"110.0.0"	"FALSE"	"Windows 10"	"60.07"	"037"	n/a	n/a	n/a	n/a	n/a	n/a	"Trial"	n/a	n/a	n/a	"545"	"arrowleft"	n/a	"NULL"	"NULL"	"NULL"	"stimuli/Ebbinghaus_1000000_1.40000.png"	n/a	"Ebbinghaus"	"arrowleft"	"1328"	"TRUE"	"Ebbinghaus"	"100000000000"	"1.4000000000"	"1"	"3"
n/a	"html-keyboard-response"	"13"	"77306"	"0.0-4.0-1.0-2.0-0.3"	"nej63f"	"600"	"1366"	"chrome"	"110.0.0"	"FALSE"	"Windows 10"	"60.07"	"037"	n/a	n/a	n/a	n/a	n/a	n/a	"fixation"	n/a	n/a	n/a	n/a	"NULL"	n/a	"NULL"	"NULL"	"NULL"	"<p style=\"color: black; font-size: 80px; padding-left: 41%; padding-right: 23%; padding-top: 46%; padding-bottom: 4%\">+</p>"	"1279"	n/a	n/a	n/a	n/a	n/a	n/a	n/a	n/a	n/a
n/a	"image-keyboard-response"	"14"	"77793"	"0.0-4.0-1.0-2.0-1.3"	"nej63f"	"600"	"1366"	"chrome"	"110.0.0"	"FALSE"	"Windows 10"	"60.07"	"037"	n/a	n/a	n/a	n/a	n/a	n/a	"Trial"	n/a	n/a	n/a	"486"	"arrowleft"	n/a	"NULL"	"NULL"	"NULL"	"stimuli/Ebbinghaus_0000000_1.40000.png"	n/a	"Ebbinghaus"	"arrowleft"	"1293"	"TRUE"	"Ebbinghaus"	"000000000000"	"1.4000000000"	"1"	"4"
n/a	"html-keyboard-response"	"15"	"79273"	"0.0-4.0-1.0-2.0-0.4"	"nej63f"	"600"	"1366"	"chrome"	"110.0.0"	"FALSE"	"Windows 10"	"60.07"	"037"	n/a	n/a	n/a	n/a	n/a	n/a	"fixation"	n/a	n/a	n/a	n/a	"NULL"	n/a	"NULL"	"NULL"	"NULL"	"<p style=\"color: black; font-size: 80px; padding-left: 25%; padding-right: 48%; padding-top: 3%; padding-bottom: 16%\">+</p>"	"1469"	n/a	n/a	n/a	n/a	n/a	n/a	n/a	n/a	n/a
n/a	"image-keyboard-response"	"16"	"79763"	"0.0-4.0-1.0-2.0-1.4"	"nej63f"	"600"	"1366"	"chrome"	"110.0.0"	"FALSE"	"Windows 10"	"60.07"	"037"	n/a	n/a	n/a	n/a	n/a	n/a	"Trial"	n/a	n/a	n/a	"488"	"arrowright"	n/a	"NULL"	"NULL"	"NULL"	"stimuli/Ebbinghaus_0000000_-1.4000.png"	n/a	"Ebbinghaus"	"arrowright"	"1480"	"TRUE"	"Ebbinghaus"	"000000000000"	"-1.400000000"	"1"	"5"
n/a	"html-keyboard-response"	"17"	"80823"	"0.0-4.0-1.0-2.0-0.5"	"nej63f"	"600"	"1366"	"chrome"	"110.0.0"	"FALSE"	"Windows 10"	"60.07"	"037"	n/a	n/a	n/a	n/a	n/a	n/a	"fixation"	n/a	n/a	n/a	n/a	"NULL"	n/a	"NULL"	"NULL"	"NULL"	"<p style=\"color: black; font-size: 80px; padding-left: 14%; padding-right: 12%; padding-top: 35%; padding-bottom: 5%\">+</p>"	"1050"	n/a	n/a	n/a	n/a	n/a	n/a	n/a	n/a	n/a
n/a	"image-keyboard-response"	"18"	"81400"	"0.0-4.0-1.0-2.0-1.5"	"nej63f"	"600"	"1366"	"chrome"	"110.0.0"	"FALSE"	"Windows 10"	"60.07"	"037"	n/a	n/a	n/a	n/a	n/a	n/a	"Trial"	n/a	n/a	n/a	"576"	"arrowleft"	n/a	"NULL"	"NULL"	"NULL"	"stimuli/Ebbinghaus_-100000_-1.4000.png"	n/a	"Ebbinghaus"	"arrowright"	"1060"	"FALSE"	"Ebbinghaus"	"-10000000000"	"-1.400000000"	"1"	"6"
n/a	"html-button-response"	"19"	"85257"	"0.0-4.0-1.0-3.0"	"nej63f"	"600"	"1366"	"chrome"	"110.0.0"	"FALSE"	"Windows 10"	"60.07"	"037"	n/a	n/a	n/a	n/a	n/a	n/a	"practice_block_results"	n/a	n/a	n/a	"3854"	"0"	n/a	"NULL"	"NULL"	"NULL"	"<p style='color:rgb(76,175,80);'> Correct Responses: <b>66.67%</b></p><hr><p style='color:rgb(233,30,99);'> Average Response Time: <b>869.83</b> ms.</p>"	n/a	n/a	n/a	n/a	n/a	n/a	n/a	n/a	n/a	n/a
"TRUE"	"preload"	"20"	"85777"	"0.0-4.0-2.0-0.0"	"nej63f"	"600"	"1366"	"chrome"	"110.0.0"	"FALSE"	"Windows 10"	"60.07"	"037"	n/a	n/a	n/a	n/a	n/a	n/a	n/a	n/a	n/a	n/a	n/a	"NULL"	"FALSE"	"list()"	"list()"	"list()"	n/a	n/a	n/a	n/a	n/a	n/a	n/a	n/a	n/a	n/a	n/a
n/a	"html-keyboard-response"	"21"	"94230"	"0.0-4.0-2.0-1.0"	"nej63f"	"600"	"1366"	"chrome"	"110.0.0"	"FALSE"	"Windows 10"	"60.07"	"037"	n/a	n/a	n/a	n/a	n/a	n/a	n/a	n/a	n/a	n/a	"8452"	"enter"	n/a	"NULL"	"NULL"	"NULL"	"<p><b>Practice</b></p><p>In this part, two horizontal red lines will appear one above the other.</p><p>Your task is to select which <b>line is longer</b> in length as fast as you can, without making errors.</p><p>Don't get distracted by the surrounding black arrows at the end of the red lines!</p><p>Press <b>the UP or the DOWN arrow</b> to indicate where is the longer <b>red line.</b></p><div style='float: center'><img src='materials/instructions/MullerLyer_Demo.png' height='300'></img><p><img src='utils/answer/answer_updown_keyboard.PNG' height='150'></img></p><p class='small'>In this example, the correct answer is the <b>UP arrow</b>.</p></div><p>Are you ready? <b>Press ENTER to start</b></p>"	n/a	n/a	n/a	n/a	n/a	n/a	n/a	n/a	n/a	n/a
n/a	"html-keyboard-response"	"22"	"95799"	"0.0-4.0-2.0-2.0-0.0"	"nej63f"	"600"	"1366"	"chrome"	"110.0.0"	"FALSE"	"Windows 10"	"60.07"	"037"	n/a	n/a	n/a	n/a	n/a	n/a	"fixation"	n/a	n/a	n/a	n/a	"NULL"	n/a	"NULL"	"NULL"	"NULL"	"<p style=\"color: black; font-size: 80px; padding-left: 21%; padding-right: 5%; padding-top: 12%; padding-bottom: 20%\">+</p>"	"1063"	n/a	n/a	n/a	n/a	n/a	n/a	n/a	n/a	n/a
n/a	"image-keyboard-response"	"23"	"96448"	"0.0-4.0-2.0-2.0-1.0"	"nej63f"	"600"	"1366"	"chrome"	"110.0.0"	"FALSE"	"Windows 10"	"60.07"	"037"	n/a	n/a	n/a	n/a	n/a	n/a	"Trial"	n/a	n/a	n/a	"648"	"arrowdown"	n/a	"NULL"	"NULL"	"NULL"	"stimuli/MullerLyer_0000000_-0.7000.png"	n/a	"MullerLyer"	"arrowdown"	"1569"	"TRUE"	"MullerLyer"	"000000000000"	"-0.700000000"	"1"	"7"
n/a	"html-keyboard-response"	"24"	"97899"	"0.0-4.0-2.0-2.0-0.1"	"nej63f"	"600"	"1366"	"chrome"	"110.0.0"	"FALSE"	"Windows 10"	"60.07"	"037"	n/a	n/a	n/a	n/a	n/a	n/a	"fixation"	n/a	n/a	n/a	n/a	"NULL"	n/a	"NULL"	"NULL"	"NULL"	"<p style=\"color: black; font-size: 80px; padding-left: 21%; padding-right: 20%; padding-top: 42%; padding-bottom: 44%\">+</p>"	"1445"	n/a	n/a	n/a	n/a	n/a	n/a	n/a	n/a	n/a
n/a	"image-keyboard-response"	"25"	"98302"	"0.0-4.0-2.0-2.0-1.1"	"nej63f"	"600"	"1366"	"chrome"	"110.0.0"	"FALSE"	"Windows 10"	"60.07"	"037"	n/a	n/a	n/a	n/a	n/a	n/a	"Trial"	n/a	n/a	n/a	"402"	"arrowup"	n/a	"NULL"	"NULL"	"NULL"	"stimuli/MullerLyer_0000000_0.70000.png"	n/a	"MullerLyer"	"arrowup"	"1451"	"TRUE"	"MullerLyer"	"000000000000"	"0.7000000000"	"1"	"8"
n/a	"html-keyboard-response"	"26"	"99541"	"0.0-4.0-2.0-2.0-0.2"	"nej63f"	"600"	"1366"	"chrome"	"110.0.0"	"FALSE"	"Windows 10"	"60.07"	"037"	n/a	n/a	n/a	n/a	n/a	n/a	"fixation"	n/a	n/a	n/a	n/a	"NULL"	n/a	"NULL"	"NULL"	"NULL"	"<p style=\"color: black; font-size: 80px; padding-left: 16%; padding-right: 24%; padding-top: 30%; padding-bottom: 15%\">+</p>"	"1225"	n/a	n/a	n/a	n/a	n/a	n/a	n/a	n/a	n/a
n/a	"image-keyboard-response"	"27"	"100132"	"0.0-4.0-2.0-2.0-1.2"	"nej63f"	"600"	"1366"	"chrome"	"110.0.0"	"FALSE"	"Windows 10"	"60.07"	"037"	n/a	n/a	n/a	n/a	n/a	n/a	"Trial"	n/a	n/a	n/a	"591"	"arrowup"	n/a	"NULL"	"NULL"	"NULL"	"stimuli/MullerLyer_2300000_0.70000.png"	n/a	"MullerLyer"	"arrowup"	"1239"	"TRUE"	"MullerLyer"	"230000000000"	"0.7000000000"	"1"	"9"
n/a	"html-keyboard-response"	"28"	"101191"	"0.0-4.0-2.0-2.0-0.3"	"nej63f"	"600"	"1366"	"chrome"	"110.0.0"	"FALSE"	"Windows 10"	"60.07"	"037"	n/a	n/a	n/a	n/a	n/a	n/a	"fixation"	n/a	n/a	n/a	n/a	"NULL"	n/a	"NULL"	"NULL"	"NULL"	"<p style=\"color: black; font-size: 80px; padding-left: 31%; padding-right: 40%; padding-top: 23%; padding-bottom: 35%\">+</p>"	"1043"	n/a	n/a	n/a	n/a	n/a	n/a	n/a	n/a	n/a
n/a	"image-keyboard-response"	"29"	"101654"	"0.0-4.0-2.0-2.0-1.3"	"nej63f"	"600"	"1366"	"chrome"	"110.0.0"	"FALSE"	"Windows 10"	"60.07"	"037"	n/a	n/a	n/a	n/a	n/a	n/a	"Trial"	n/a	n/a	n/a	"463"	"arrowup"	n/a	"NULL"	"NULL"	"NULL"	"stimuli/MullerLyer_-230000_0.70000.png"	n/a	"MullerLyer"	"arrowup"	"1059"	"TRUE"	"MullerLyer"	"-23000000000"	"0.7000000000"	"1"	"10"
n/a	"html-keyboard-response"	"30"	"102733"	"0.0-4.0-2.0-2.0-0.4"	"nej63f"	"600"	"1366"	"chrome"	"110.0.0"	"FALSE"	"Windows 10"	"60.07"	"037"	n/a	n/a	n/a	n/a	n/a	n/a	"fixation"	n/a	n/a	n/a	n/a	"NULL"	n/a	"NULL"	"NULL"	"NULL"	"<p style=\"color: black; font-size: 80px; padding-left: 6%; padding-right: 13%; padding-top: 23%; padding-bottom: 20%\">+</p>"	"1078"	n/a	n/a	n/a	n/a	n/a	n/a	n/a	n/a	n/a
n/a	"image-keyboard-response"	"31"	"103246"	"0.0-4.0-2.0-2.0-1.4"	"nej63f"	"600"	"1366"	"chrome"	"110.0.0"	"FALSE"	"Windows 10"	"60.07"	"037"	n/a	n/a	n/a	n/a	n/a	n/a	"Trial"	n/a	n/a	n/a	"512"	"arrowdown"	n/a	"NULL"	"NULL"	"NULL"	"stimuli/MullerLyer_-230000_-0.7000.png"	n/a	"MullerLyer"	"arrowdown"	"1079"	"TRUE"	"MullerLyer"	"-23000000000"	"-0.700000000"	"1"	"11"
n/a	"html-keyboard-response"	"32"	"104571"	"0.0-4.0-2.0-2.0-0.5"	"nej63f"	"600"	"1366"	"chrome"	"110.0.0"	"FALSE"	"Windows 10"	"60.07"	"037"	n/a	n/a	n/a	n/a	n/a	n/a	"fixation"	n/a	n/a	n/a	n/a	"NULL"	n/a	"NULL"	"NULL"	"NULL"	"<p style=\"color: black; font-size: 80px; padding-left: 1%; padding-right: 41%; padding-top: 50%; padding-bottom: 29%\">+</p>"	"1321"	n/a	n/a	n/a	n/a	n/a	n/a	n/a	n/a	n/a
n/a	"image-keyboard-response"	"33"	"105147"	"0.0-4.0-2.0-2.0-1.5"	"nej63f"	"600"	"1366"	"chrome"	"110.0.0"	"FALSE"	"Windows 10"	"60.07"	"037"	n/a	n/a	n/a	n/a	n/a	n/a	"Trial"	n/a	n/a	n/a	"575"	"arrowdown"	n/a	"NULL"	"NULL"	"NULL"	"stimuli/MullerLyer_2300000_-0.7000.png"	n/a	"MullerLyer"	"arrowdown"	"1325"	"TRUE"	"MullerLyer"	"230000000000"	"-0.700000000"	"1"	"12"
n/a	"html-button-response"	"34"	"109697"	"0.0-4.0-2.0-3.0"	"nej63f"	"600"	"1366"	"chrome"	"110.0.0"	"FALSE"	"Windows 10"	"60.07"	"037"	n/a	n/a	n/a	n/a	n/a	n/a	"practice_block_results"	n/a	n/a	n/a	"4549"	"0"	n/a	"NULL"	"NULL"	"NULL"	"<p style='color:rgb(76,175,80);'> Correct Responses: <b>100.00%</b></p><hr><p style='color:rgb(233,30,99);'> Average Response Time: <b>531.83</b> ms.</p>"	n/a	n/a	n/a	n/a	n/a	n/a	n/a	n/a	n/a	n/a
"TRUE"	"preload"	"35"	"110211"	"0.0-4.0-3.0-0.0"	"nej63f"	"600"	"1366"	"chrome"	"110.0.0"	"FALSE"	"Windows 10"	"60.07"	"037"	n/a	n/a	n/a	n/a	n/a	n/a	n/a	n/a	n/a	n/a	n/a	"NULL"	"FALSE"	"list()"	"list()"	"list()"	n/a	n/a	n/a	n/a	n/a	n/a	n/a	n/a	n/a	n/a	n/a
n/a	"html-keyboard-response"	"36"	"114925"	"0.0-4.0-3.0-1.0"	"nej63f"	"600"	"1366"	"chrome"	"110.0.0"	"FALSE"	"Windows 10"	"60.07"	"037"	n/a	n/a	n/a	n/a	n/a	n/a	n/a	n/a	n/a	n/a	"4707"	"enter"	n/a	"NULL"	"NULL"	"NULL"	"<p><b>Practice</b></p><p>In this part, two red lines will appear side by side.</p><p>Your task is to tell <b>which line is longer</b> in length, regardless of their orientation, as fast as you can, and without making errors.</p><p>Don't get distracted by the orientation of the lines!</p><p>Press <b>the LEFT or the RIGHT arrow</b> to indicate which <b>line is the longer one.</b></p><div style='float: center'><img src='materials/instructions/VerticalHorizontal_Demo.png' height='300'></img><p><img src='utils/answer/answer_leftright_keyboard.PNG' height='150'></img></p><p class='small'>In this example, the correct answer is the <b>LEFT arrow</b>.</p></div><p>Are you ready? <b>Press ENTER to start</b></p>"	n/a	n/a	n/a	n/a	n/a	n/a	n/a	n/a	n/a	n/a
n/a	"html-keyboard-response"	"37"	"116804"	"0.0-4.0-3.0-2.0-0.0"	"nej63f"	"600"	"1366"	"chrome"	"110.0.0"	"FALSE"	"Windows 10"	"60.07"	"037"	n/a	n/a	n/a	n/a	n/a	n/a	"fixation"	n/a	n/a	n/a	n/a	"NULL"	n/a	"NULL"	"NULL"	"NULL"	"<p style=\"color: black; font-size: 80px; padding-left: 47%; padding-right: 10%; padding-top: 12%; padding-bottom: 15%\">+</p>"	"1362"	n/a	n/a	n/a	n/a	n/a	n/a	n/a	n/a	n/a
n/a	"image-keyboard-response"	"38"	"117235"	"0.0-4.0-3.0-2.0-1.0"	"nej63f"	"600"	"1366"	"chrome"	"110.0.0"	"FALSE"	"Windows 10"	"60.07"	"037"	n/a	n/a	n/a	n/a	n/a	n/a	"Trial"	n/a	n/a	n/a	"431"	"arrowright"	n/a	"NULL"	"NULL"	"NULL"	"stimuli/VerticalHorizontal_0000000_-0.9000.png"	n/a	"VerticalHorizontal"	"arrowright"	"1879"	"TRUE"	"VerticalHorizontal"	"000000000000"	"-0.900000000"	"1"	"13"
n/a	"html-keyboard-response"	"39"	"118369"	"0.0-4.0-3.0-2.0-0.1"	"nej63f"	"600"	"1366"	"chrome"	"110.0.0"	"FALSE"	"Windows 10"	"60.07"	"037"	n/a	n/a	n/a	n/a	n/a	n/a	"fixation"	n/a	n/a	n/a	n/a	"NULL"	n/a	"NULL"	"NULL"	"NULL"	"<p style=\"color: black; font-size: 80px; padding-left: 42%; padding-right: 50%; padding-top: 8%; padding-bottom: 12%\">+</p>"	"1123"	n/a	n/a	n/a	n/a	n/a	n/a	n/a	n/a	n/a
n/a	"image-keyboard-response"	"40"	"118746"	"0.0-4.0-3.0-2.0-1.1"	"nej63f"	"600"	"1366"	"chrome"	"110.0.0"	"FALSE"	"Windows 10"	"60.07"	"037"	n/a	n/a	n/a	n/a	n/a	n/a	"Trial"	n/a	n/a	n/a	"376"	"arrowleft"	n/a	"NULL"	"NULL"	"NULL"	"stimuli/VerticalHorizontal_-330000_0.90000.png"	n/a	"VerticalHorizontal"	"arrowleft"	"1134"	"TRUE"	"VerticalHorizontal"	"-33000000000"	"0.9000000000"	"1"	"14"
n/a	"html-keyboard-response"	"41"	"120144"	"0.0-4.0-3.0-2.0-0.2"	"nej63f"	"600"	"1366"	"chrome"	"110.0.0"	"FALSE"	"Windows 10"	"60.07"	"037"	n/a	n/a	n/a	n/a	n/a	n/a	"fixation"	n/a	n/a	n/a	n/a	"NULL"	n/a	"NULL"	"NULL"	"NULL"	"<p style=\"color: black; font-size: 80px; padding-left: 36%; padding-right: 47%; padding-top: 29%; padding-bottom: 32%\">+</p>"	"1393"	n/a	n/a	n/a	n/a	n/a	n/a	n/a	n/a	n/a
n/a	"image-keyboard-response"	"42"	"120547"	"0.0-4.0-3.0-2.0-1.2"	"nej63f"	"600"	"1366"	"chrome"	"110.0.0"	"FALSE"	"Windows 10"	"60.07"	"037"	n/a	n/a	n/a	n/a	n/a	n/a	"Trial"	n/a	n/a	n/a	"402"	"arrowleft"	n/a	"NULL"	"NULL"	"NULL"	"stimuli/VerticalHorizontal_0000000_0.90000.png"	n/a	"VerticalHorizontal"	"arrowleft"	"1398"	"TRUE"	"VerticalHorizontal"	"000000000000"	"0.9000000000"	"1"	"15"
n/a	"html-keyboard-response"	"43"	"121860"	"0.0-4.0-3.0-2.0-0.3"	"nej63f"	"600"	"1366"	"chrome"	"110.0.0"	"FALSE"	"Windows 10"	"60.07"	"037"	n/a	n/a	n/a	n/a	n/a	n/a	"fixation"	n/a	n/a	n/a	n/a	"NULL"	n/a	"NULL"	"NULL"	"NULL"	"<p style=\"color: black; font-size: 80px; padding-left: 14%; padding-right: 14%; padding-top: 39%; padding-bottom: 4%\">+</p>"	"1302"	n/a	n/a	n/a	n/a	n/a	n/a	n/a	n/a	n/a
n/a	"image-keyboard-response"	"44"	"122257"	"0.0-4.0-3.0-2.0-1.3"	"nej63f"	"600"	"1366"	"chrome"	"110.0.0"	"FALSE"	"Windows 10"	"60.07"	"037"	n/a	n/a	n/a	n/a	n/a	n/a	"Trial"	n/a	n/a	n/a	"396"	"arrowright"	n/a	"NULL"	"NULL"	"NULL"	"stimuli/VerticalHorizontal_-330000_-0.9000.png"	n/a	"VerticalHorizontal"	"arrowright"	"1313"	"TRUE"	"VerticalHorizontal"	"-33000000000"	"-0.900000000"	"1"	"16"
n/a	"html-keyboard-response"	"45"	"123280"	"0.0-4.0-3.0-2.0-0.4"	"nej63f"	"600"	"1366"	"chrome"	"110.0.0"	"FALSE"	"Windows 10"	"60.07"	"037"	n/a	n/a	n/a	n/a	n/a	n/a	"fixation"	n/a	n/a	n/a	n/a	"NULL"	n/a	"NULL"	"NULL"	"NULL"	"<p style=\"color: black; font-size: 80px; padding-left: 43%; padding-right: 2%; padding-top: 36%; padding-bottom: 16%\">+</p>"	"1012"	n/a	n/a	n/a	n/a	n/a	n/a	n/a	n/a	n/a
n/a	"image-keyboard-response"	"46"	"123649"	"0.0-4.0-3.0-2.0-1.4"	"nej63f"	"600"	"1366"	"chrome"	"110.0.0"	"FALSE"	"Windows 10"	"60.07"	"037"	n/a	n/a	n/a	n/a	n/a	n/a	"Trial"	n/a	n/a	n/a	"368"	"arrowleft"	n/a	"NULL"	"NULL"	"NULL"	"stimuli/VerticalHorizontal_3300000_0.90000.png"	n/a	"VerticalHorizontal"	"arrowleft"	"1023"	"TRUE"	"VerticalHorizontal"	"330000000000"	"0.9000000000"	"1"	"17"
n/a	"html-keyboard-response"	"47"	"124702"	"0.0-4.0-3.0-2.0-0.5"	"nej63f"	"600"	"1366"	"chrome"	"110.0.0"	"FALSE"	"Windows 10"	"60.07"	"037"	n/a	n/a	n/a	n/a	n/a	n/a	"fixation"	n/a	n/a	n/a	n/a	"NULL"	n/a	"NULL"	"NULL"	"NULL"	"<p style=\"color: black; font-size: 80px; padding-left: 42%; padding-right: 10%; padding-top: 35%; padding-bottom: 11%\">+</p>"	"1049"	n/a	n/a	n/a	n/a	n/a	n/a	n/a	n/a	n/a
n/a	"image-keyboard-response"	"48"	"125088"	"0.0-4.0-3.0-2.0-1.5"	"nej63f"	"600"	"1366"	"chrome"	"110.0.0"	"FALSE"	"Windows 10"	"60.07"	"037"	n/a	n/a	n/a	n/a	n/a	n/a	"Trial"	n/a	n/a	n/a	"385"	"arrowright"	n/a	"NULL"	"NULL"	"NULL"	"stimuli/VerticalHorizontal_3300000_-0.9000.png"	n/a	"VerticalHorizontal"	"arrowright"	"1053"	"TRUE"	"VerticalHorizontal"	"330000000000"	"-0.900000000"	"1"	"18"
n/a	"html-button-response"	"49"	"129014"	"0.0-4.0-3.0-3.0"	"nej63f"	"600"	"1366"	"chrome"	"110.0.0"	"FALSE"	"Windows 10"	"60.07"	"037"	n/a	n/a	n/a	n/a	n/a	n/a	"practice_block_results"	n/a	n/a	n/a	"3925"	"0"	n/a	"NULL"	"NULL"	"NULL"	"<p style='color:rgb(76,175,80);'> Correct Responses: <b>100.00%</b></p><hr><p style='color:rgb(233,30,99);'> Average Response Time: <b>393.00</b> ms.</p>"	n/a	n/a	n/a	n/a	n/a	n/a	n/a	n/a	n/a	n/a
n/a	"html-button-response"	"50"	"202618"	"0.0-4.0-4.0"	"nej63f"	"600"	"1366"	"chrome"	"110.0.0"	"FALSE"	"Windows 10"	"60.07"	"037"	n/a	n/a	n/a	n/a	n/a	n/a	"practice_debrief"	n/a	n/a	n/a	"73097"	"0"	n/a	"NULL"	"NULL"	"NULL"	"<p><b>TRAINING COMPLETED</b></p><p>In the next phase, there will be more trials, and some might be harder too.<br> Moreover, after each illusion block, a <b>score</b> will be calculated based on speed (time you took to answer) and accuracy (number of errors).</p><p>Try to keep up a high score!</p><br><p>Note that it can be <i>really</i> challenging at times, so you will need to rely on your <b>intuition</b> and gut feeling to answer as fast as you can without making errors.</p><p>Each illusion block will be repeated two times (so that you have the opportunity to improve your score), but the order of the blocks is random.</p><p>Remember, your goal is to be as <b>fast</b> and <b>accurate</b> as possible. Good luck!</p><br>"	n/a	n/a	n/a	n/a	n/a	n/a	n/a	n/a	n/a	n/a
"TRUE"	"preload"	"51"	"202762"	"0.0-5.0-0.0"	"nej63f"	"600"	"1366"	"chrome"	"110.0.0"	"FALSE"	"Windows 10"	"60.07"	"037"	n/a	n/a	n/a	n/a	n/a	n/a	n/a	n/a	n/a	n/a	n/a	"NULL"	"FALSE"	"list()"	"list()"	"list()"	n/a	n/a	n/a	n/a	n/a	n/a	n/a	n/a	n/a	n/a	n/a
n/a	"html-keyboard-response"	"52"	"206951"	"0.0-5.0-1.0"	"nej63f"	"600"	"1366"	"chrome"	"110.0.0"	"FALSE"	"Windows 10"	"60.07"	"037"	n/a	n/a	n/a	n/a	n/a	n/a	n/a	n/a	n/a	n/a	"4188"	"enter"	n/a	"NULL"	"NULL"	"NULL"	"<p><b>Part 1/6</b></p><p>In this part, two red circles will appear side by side on the screen.</p><p>Your task is to select which <b>red circle is bigger</b> in size as fast as you can, without making errors.</p><p>Don't get distracted by the surrounding black circles around the red circles!</p><p>Press <b>the LEFT or the RIGHT arrow</b> to indicate which is the bigger <b>red circle.</b></p><div style='float: center'><img src='materials/instructions/Ebbinghaus_Demo.png' height='300'></img><p><img src='utils/answer/answer_leftright_keyboard.PNG' height='150'></img></p><p class='small'>In this example, the correct answer is the <b>LEFT arrow</b>.</p></div><p>Are you ready? <b>Press ENTER to start</b></p>"	n/a	n/a	n/a	n/a	n/a	n/a	n/a	n/a	n/a	n/a
n/a	"html-keyboard-response"	"53"	"208809"	"0.0-5.0-2.0-0.0"	"nej63f"	"600"	"1366"	"chrome"	"110.0.0"	"FALSE"	"Windows 10"	"60.07"	"037"	n/a	n/a	n/a	n/a	n/a	n/a	"fixation"	n/a	n/a	n/a	n/a	"NULL"	n/a	"NULL"	"NULL"	"NULL"	"<p style=\"color: black; font-size: 80px; padding-left: 18%; padding-right: 36%; padding-top: 22%; padding-bottom: 43%\">+</p>"	"1343"	n/a	n/a	n/a	n/a	n/a	n/a	n/a	n/a	n/a
n/a	"image-keyboard-response"	"54"	"209259"	"0.0-5.0-2.0-1.0"	"nej63f"	"600"	"1366"	"chrome"	"110.0.0"	"FALSE"	"Windows 10"	"60.07"	"037"	n/a	n/a	n/a	n/a	n/a	n/a	"Trial"	n/a	n/a	n/a	"449"	"arrowright"	n/a	"NULL"	"NULL"	"NULL"	"stimuli/Ebbinghaus_0.35714_-0.2150.png"	n/a	"Ebbinghaus"	"arrowright"	"1858"	"TRUE"	"Ebbinghaus"	"0.3571400000"	"-0.215000000"	"1"	"19"
n/a	"html-keyboard-response"	"55"	"210444"	"0.0-5.0-2.0-0.1"	"nej63f"	"600"	"1366"	"chrome"	"110.0.0"	"FALSE"	"Windows 10"	"60.07"	"037"	n/a	n/a	n/a	n/a	n/a	n/a	"fixation"	n/a	n/a	n/a	n/a	"NULL"	n/a	"NULL"	"NULL"	"NULL"	"<p style=\"color: black; font-size: 80px; padding-left: 47%; padding-right: 14%; padding-top: 1%; padding-bottom: 37%\">+</p>"	"1172"	n/a	n/a	n/a	n/a	n/a	n/a	n/a	n/a	n/a
n/a	"image-keyboard-response"	"56"	"210878"	"0.0-5.0-2.0-1.1"	"nej63f"	"600"	"1366"	"chrome"	"110.0.0"	"FALSE"	"Windows 10"	"60.07"	"037"	n/a	n/a	n/a	n/a	n/a	n/a	"Trial"	n/a	n/a	n/a	"434"	"arrowleft"	n/a	"NULL"	"NULL"	"NULL"	"stimuli/Ebbinghaus_-0.87143_-0.15857.png"	n/a	"Ebbinghaus"	"arrowright"	"1185"	"FALSE"	"Ebbinghaus"	"-0.871430000"	"-0.158570000"	"1"	"20"
n/a	"html-keyboard-response"	"57"	"212002"	"0.0-5.0-2.0-0.2"	"nej63f"	"600"	"1366"	"chrome"	"110.0.0"	"FALSE"	"Windows 10"	"60.07"	"037"	n/a	n/a	n/a	n/a	n/a	n/a	"fixation"	n/a	n/a	n/a	n/a	"NULL"	n/a	"NULL"	"NULL"	"NULL"	"<p style=\"color: black; font-size: 80px; padding-left: 26%; padding-right: 18%; padding-top: 25%; padding-bottom: 15%\">+</p>"	"1122"	n/a	n/a	n/a	n/a	n/a	n/a	n/a	n/a	n/a
n/a	"image-keyboard-response"	"58"	"212481"	"0.0-5.0-2.0-1.2"	"nej63f"	"600"	"1366"	"chrome"	"110.0.0"	"FALSE"	"Windows 10"	"60.07"	"037"	n/a	n/a	n/a	n/a	n/a	n/a	"Trial"	n/a	n/a	n/a	"478"	"arrowright"	n/a	"NULL"	"NULL"	"NULL"	"stimuli/Ebbinghaus_0.10000_0.15857.png"	n/a	"Ebbinghaus"	"arrowleft"	"1124"	"FALSE"	"Ebbinghaus"	"0.1000000000"	"0.1585700000"	"1"	"21"
n/a	"html-keyboard-response"	"59"	"213566"	"0.0-5.0-2.0-0.3"	"nej63f"	"600"	"1366"	"chrome"	"110.0.0"	"FALSE"	"Windows 10"	"60.07"	"037"	n/a	n/a	n/a	n/a	n/a	n/a	"fixation"	n/a	n/a	n/a	n/a	"NULL"	n/a	"NULL"	"NULL"	"NULL"	"<p style=\"color: black; font-size: 80px; padding-left: 8%; padding-right: 1%; padding-top: 19%; padding-bottom: 6%\">+</p>"	"1084"	n/a	n/a	n/a	n/a	n/a	n/a	n/a	n/a	n/a
n/a	"image-keyboard-response"	"60"	"213999"	"0.0-5.0-2.0-1.3"	"nej63f"	"600"	"1366"	"chrome"	"110.0.0"	"FALSE"	"Windows 10"	"60.07"	"037"	n/a	n/a	n/a	n/a	n/a	n/a	"Trial"	n/a	n/a	n/a	"432"	"arrowleft"	n/a	"NULL"	"NULL"	"NULL"	"stimuli/Ebbinghaus_-0.87143_-0.2150.png"	n/a	"Ebbinghaus"	"arrowright"	"1085"	"FALSE"	"Ebbinghaus"	"-0.871430000"	"-0.215000000"	"1"	"22"
n/a	"html-keyboard-response"	"61"	"215238"	"0.0-5.0-2.0-0.4"	"nej63f"	"600"	"1366"	"chrome"	"110.0.0"	"FALSE"	"Windows 10"	"60.07"	"037"	n/a	n/a	n/a	n/a	n/a	n/a	"fixation"	n/a	n/a	n/a	n/a	"NULL"	n/a	"NULL"	"NULL"	"NULL"	"<p style=\"color: black; font-size: 80px; padding-left: 33%; padding-right: 36%; padding-top: 42%; padding-bottom: 6%\">+</p>"	"1238"	n/a	n/a	n/a	n/a	n/a	n/a	n/a	n/a	n/a
n/a	"image-keyboard-response"	"62"	"215698"	"0.0-5.0-2.0-1.4"	"nej63f"	"600"	"1366"	"chrome"	"110.0.0"	"FALSE"	"Windows 10"	"60.07"	"037"	n/a	n/a	n/a	n/a	n/a	n/a	"Trial"	n/a	n/a	n/a	"459"	"arrowright"	n/a	"NULL"	"NULL"	"NULL"	"stimuli/Ebbinghaus_-0.61429_0.15857.png"	n/a	"Ebbinghaus"	"arrowleft"	"1239"	"FALSE"	"Ebbinghaus"	"-0.614290000"	"0.1585700000"	"1"	"23"
n/a	"html-keyboard-response"	"63"	"216762"	"0.0-5.0-2.0-0.5"	"nej63f"	"600"	"1366"	"chrome"	"110.0.0"	"FALSE"	"Windows 10"	"60.07"	"037"	n/a	n/a	n/a	n/a	n/a	n/a	"fixation"	n/a	n/a	n/a	n/a	"NULL"	n/a	"NULL"	"NULL"	"NULL"	"<p style=\"color: black; font-size: 80px; padding-left: 0%; padding-right: 48%; padding-top: 2%; padding-bottom: 44%\">+</p>"	"1049"	n/a	n/a	n/a	n/a	n/a	n/a	n/a	n/a	n/a
n/a	"image-keyboard-response"	"64"	"217179"	"0.0-5.0-2.0-1.5"	"nej63f"	"600"	"1366"	"chrome"	"110.0.0"	"FALSE"	"Windows 10"	"60.07"	"037"	n/a	n/a	n/a	n/a	n/a	n/a	"Trial"	n/a	n/a	n/a	"416"	"arrowright"	n/a	"NULL"	"NULL"	"NULL"	"stimuli/Ebbinghaus_-0.87143_0.15857.png"	n/a	"Ebbinghaus"	"arrowleft"	"1064"	"FALSE"	"Ebbinghaus"	"-0.871430000"	"0.1585700000"	"1"	"24"
n/a	"html-keyboard-response"	"65"	"218493"	"0.0-5.0-2.0-0.6"	"nej63f"	"600"	"1366"	"chrome"	"110.0.0"	"FALSE"	"Windows 10"	"60.07"	"037"	n/a	n/a	n/a	n/a	n/a	n/a	"fixation"	n/a	n/a	n/a	n/a	"NULL"	n/a	"NULL"	"NULL"	"NULL"	"<p style=\"color: black; font-size: 80px; padding-left: 5%; padding-right: 18%; padding-top: 50%; padding-bottom: 17%\">+</p>"	"1311"	n/a	n/a	n/a	n/a	n/a	n/a	n/a	n/a	n/a
n/a	"image-keyboard-response"	"66"	"218989"	"0.0-5.0-2.0-1.6"	"nej63f"	"600"	"1366"	"chrome"	"110.0.0"	"FALSE"	"Windows 10"	"60.07"	"037"	n/a	n/a	n/a	n/a	n/a	n/a	"Trial"	n/a	n/a	n/a	"495"	"arrowleft"	n/a	"NULL"	"NULL"	"NULL"	"stimuli/Ebbinghaus_-0.1000_-0.11071.png"	n/a	"Ebbinghaus"	"arrowright"	"1314"	"FALSE"	"Ebbinghaus"	"-0.100000000"	"-0.110710000"	"1"	"25"
n/a	"html-keyboard-response"	"67"	"220463"	"0.0-5.0-2.0-0.7"	"nej63f"	"600"	"1366"	"chrome"	"110.0.0"	"FALSE"	"Windows 10"	"60.07"	"037"	n/a	n/a	n/a	n/a	n/a	n/a	"fixation"	n/a	n/a	n/a	n/a	"NULL"	n/a	"NULL"	"NULL"	"NULL"	"<p style=\"color: black; font-size: 80px; padding-left: 42%; padding-right: 39%; padding-top: 18%; padding-bottom: 9%\">+</p>"	"1469"	n/a	n/a	n/a	n/a	n/a	n/a	n/a	n/a	n/a
n/a	"image-keyboard-response"	"68"	"220899"	"0.0-5.0-2.0-1.7"	"nej63f"	"600"	"1366"	"chrome"	"110.0.0"	"FALSE"	"Windows 10"	"60.07"	"037"	n/a	n/a	n/a	n/a	n/a	n/a	"Trial"	n/a	n/a	n/a	"435"	"arrowright"	n/a	"NULL"	"NULL"	"NULL"	"stimuli/Ebbinghaus_0.35714_-0.15857.png"	n/a	"Ebbinghaus"	"arrowright"	"1474"	"TRUE"	"Ebbinghaus"	"0.3571400000"	"-0.158570000"	"1"	"26"
n/a	"html-keyboard-response"	"69"	"222385"	"0.0-5.0-2.0-0.8"	"nej63f"	"600"	"1366"	"chrome"	"110.0.0"	"FALSE"	"Windows 10"	"60.07"	"037"	n/a	n/a	n/a	n/a	n/a	n/a	"fixation"	n/a	n/a	n/a	n/a	"NULL"	n/a	"NULL"	"NULL"	"NULL"	"<p style=\"color: black; font-size: 80px; padding-left: 14%; padding-right: 50%; padding-top: 2%; padding-bottom: 46%\">+</p>"	"1479"	n/a	n/a	n/a	n/a	n/a	n/a	n/a	n/a	n/a
n/a	"image-keyboard-response"	"70"	"222859"	"0.0-5.0-2.0-1.8"	"nej63f"	"600"	"1366"	"chrome"	"110.0.0"	"FALSE"	"Windows 10"	"60.07"	"037"	n/a	n/a	n/a	n/a	n/a	n/a	"Trial"	n/a	n/a	n/a	"473"	"arrowright"	n/a	"NULL"	"NULL"	"NULL"	"stimuli/Ebbinghaus_0.10000_-0.11071.png"	n/a	"Ebbinghaus"	"arrowright"	"1486"	"TRUE"	"Ebbinghaus"	"0.1000000000"	"-0.110710000"	"1"	"27"
n/a	"html-keyboard-response"	"71"	"224190"	"0.0-5.0-2.0-0.9"	"nej63f"	"600"	"1366"	"chrome"	"110.0.0"	"FALSE"	"Windows 10"	"60.07"	"037"	n/a	n/a	n/a	n/a	n/a	n/a	"fixation"	n/a	n/a	n/a	n/a	"NULL"	n/a	"NULL"	"NULL"	"NULL"	"<p style=\"color: black; font-size: 80px; padding-left: 32%; padding-right: 42%; padding-top: 28%; padding-bottom: 27%\">+</p>"	"1321"	n/a	n/a	n/a	n/a	n/a	n/a	n/a	n/a	n/a
n/a	"image-keyboard-response"	"72"	"224681"	"0.0-5.0-2.0-1.9"	"nej63f"	"600"	"1366"	"chrome"	"110.0.0"	"FALSE"	"Windows 10"	"60.07"	"037"	n/a	n/a	n/a	n/a	n/a	n/a	"Trial"	n/a	n/a	n/a	"490"	"arrowright"	n/a	"NULL"	"NULL"	"NULL"	"stimuli/Ebbinghaus_0.35714_-0.2800.png"	n/a	"Ebbinghaus"	"arrowright"	"1331"	"TRUE"	"Ebbinghaus"	"0.3571400000"	"-0.280000000"	"1"	"28"
n/a	"html-keyboard-response"	"73"	"226127"	"0.0-5.0-2.0-0.10"	"nej63f"	"600"	"1366"	"chrome"	"110.0.0"	"FALSE"	"Windows 10"	"60.07"	"037"	n/a	n/a	n/a	n/a	n/a	n/a	"fixation"	n/a	n/a	n/a	n/a	"NULL"	n/a	"NULL"	"NULL"	"NULL"	"<p style=\"color: black; font-size: 80px; padding-left: 24%; padding-right: 21%; padding-top: 30%; padding-bottom: 26%\">+</p>"	"1431"	n/a	n/a	n/a	n/a	n/a	n/a	n/a	n/a	n/a
n/a	"image-keyboard-response"	"74"	"226681"	"0.0-5.0-2.0-1.10"	"nej63f"	"600"	"1366"	"chrome"	"110.0.0"	"FALSE"	"Windows 10"	"60.07"	"037"	n/a	n/a	n/a	n/a	n/a	n/a	"Trial"	n/a	n/a	n/a	"553"	"arrowleft"	n/a	"NULL"	"NULL"	"NULL"	"stimuli/Ebbinghaus_-0.1000_0.28000.png"	n/a	"Ebbinghaus"	"arrowleft"	"1446"	"TRUE"	"Ebbinghaus"	"-0.100000000"	"0.2800000000"	"1"	"29"
n/a	"html-keyboard-response"	"75"	"227857"	"0.0-5.0-2.0-0.11"	"nej63f"	"600"	"1366"	"chrome"	"110.0.0"	"FALSE"	"Windows 10"	"60.07"	"037"	n/a	n/a	n/a	n/a	n/a	n/a	"fixation"	n/a	n/a	n/a	n/a	"NULL"	n/a	"NULL"	"NULL"	"NULL"	"<p style=\"color: black; font-size: 80px; padding-left: 27%; padding-right: 26%; padding-top: 20%; padding-bottom: 24%\">+</p>"	"1167"	n/a	n/a	n/a	n/a	n/a	n/a	n/a	n/a	n/a
n/a	"image-keyboard-response"	"76"	"228420"	"0.0-5.0-2.0-1.11"	"nej63f"	"600"	"1366"	"chrome"	"110.0.0"	"FALSE"	"Windows 10"	"60.07"	"037"	n/a	n/a	n/a	n/a	n/a	n/a	"Trial"	n/a	n/a	n/a	"562"	"arrowleft"	n/a	"NULL"	"NULL"	"NULL"	"stimuli/Ebbinghaus_0.10000_0.21500.png"	n/a	"Ebbinghaus"	"arrowleft"	"1176"	"TRUE"	"Ebbinghaus"	"0.1000000000"	"0.2150000000"	"1"	"30"
n/a	"html-keyboard-response"	"77"	"229644"	"0.0-5.0-2.0-0.12"	"nej63f"	"600"	"1366"	"chrome"	"110.0.0"	"FALSE"	"Windows 10"	"60.07"	"037"	n/a	n/a	n/a	n/a	n/a	n/a	"fixation"	n/a	n/a	n/a	n/a	"NULL"	n/a	"NULL"	"NULL"	"NULL"	"<p style=\"color: black; font-size: 80px; padding-left: 4%; padding-right: 13%; padding-top: 25%; padding-bottom: 35%\">+</p>"	"1215"	n/a	n/a	n/a	n/a	n/a	n/a	n/a	n/a	n/a
n/a	"image-keyboard-response"	"78"	"230097"	"0.0-5.0-2.0-1.12"	"nej63f"	"600"	"1366"	"chrome"	"110.0.0"	"FALSE"	"Windows 10"	"60.07"	"037"	n/a	n/a	n/a	n/a	n/a	n/a	"Trial"	n/a	n/a	n/a	"453"	"arrowleft"	n/a	"NULL"	"NULL"	"NULL"	"stimuli/Ebbinghaus_0.87143_0.28000.png"	n/a	"Ebbinghaus"	"arrowleft"	"1224"	"TRUE"	"Ebbinghaus"	"0.8714300000"	"0.2800000000"	"1"	"31"
n/a	"html-keyboard-response"	"79"	"231518"	"0.0-5.0-2.0-0.13"	"nej63f"	"600"	"1366"	"chrome"	"110.0.0"	"FALSE"	"Windows 10"	"60.07"	"037"	n/a	n/a	n/a	n/a	n/a	n/a	"fixation"	n/a	n/a	n/a	n/a	"NULL"	n/a	"NULL"	"NULL"	"NULL"	"<p style=\"color: black; font-size: 80px; padding-left: 43%; padding-right: 16%; padding-top: 26%; padding-bottom: 9%\">+</p>"	"1407"	n/a	n/a	n/a	n/a	n/a	n/a	n/a	n/a	n/a
n/a	"image-keyboard-response"	"80"	"231899"	"0.0-5.0-2.0-1.13"	"nej63f"	"600"	"1366"	"chrome"	"110.0.0"	"FALSE"	"Windows 10"	"60.07"	"037"	n/a	n/a	n/a	n/a	n/a	n/a	"Trial"	n/a	n/a	n/a	"380"	"arrowleft"	n/a	"NULL"	"NULL"	"NULL"	"stimuli/Ebbinghaus_0.61429_0.11071.png"	n/a	"Ebbinghaus"	"arrowleft"	"1421"	"TRUE"	"Ebbinghaus"	"0.6142900000"	"0.1107100000"	"1"	"32"
n/a	"html-keyboard-response"	"81"	"233025"	"0.0-5.0-2.0-0.14"	"nej63f"	"600"	"1366"	"chrome"	"110.0.0"	"FALSE"	"Windows 10"	"60.07"	"037"	n/a	n/a	n/a	n/a	n/a	n/a	"fixation"	n/a	n/a	n/a	n/a	"NULL"	n/a	"NULL"	"NULL"	"NULL"	"<p style=\"color: black; font-size: 80px; padding-left: 5%; padding-right: 13%; padding-top: 31%; padding-bottom: 30%\">+</p>"	"1111"	n/a	n/a	n/a	n/a	n/a	n/a	n/a	n/a	n/a
n/a	"image-keyboard-response"	"82"	"233527"	"0.0-5.0-2.0-1.14"	"nej63f"	"600"	"1366"	"chrome"	"110.0.0"	"FALSE"	"Windows 10"	"60.07"	"037"	n/a	n/a	n/a	n/a	n/a	n/a	"Trial"	n/a	n/a	n/a	"501"	"arrowright"	n/a	"NULL"	"NULL"	"NULL"	"stimuli/Ebbinghaus_-0.35714_0.11071.png"	n/a	"Ebbinghaus"	"arrowleft"	"1126"	"FALSE"	"Ebbinghaus"	"-0.357140000"	"0.1107100000"	"1"	"33"
n/a	"html-keyboard-response"	"83"	"234864"	"0.0-5.0-2.0-0.15"	"nej63f"	"600"	"1366"	"chrome"	"110.0.0"	"FALSE"	"Windows 10"	"60.07"	"037"	n/a	n/a	n/a	n/a	n/a	n/a	"fixation"	n/a	n/a	n/a	n/a	"NULL"	n/a	"NULL"	"NULL"	"NULL"	"<p style=\"color: black; font-size: 80px; padding-left: 12%; padding-right: 16%; padding-top: 35%; padding-bottom: 31%\">+</p>"	"1326"	n/a	n/a	n/a	n/a	n/a	n/a	n/a	n/a	n/a
n/a	"image-keyboard-response"	"84"	"235356"	"0.0-5.0-2.0-1.15"	"nej63f"	"600"	"1366"	"chrome"	"110.0.0"	"FALSE"	"Windows 10"	"60.07"	"037"	n/a	n/a	n/a	n/a	n/a	n/a	"Trial"	n/a	n/a	n/a	"491"	"arrowright"	n/a	"NULL"	"NULL"	"NULL"	"stimuli/Ebbinghaus_0.10000_-0.15857.png"	n/a	"Ebbinghaus"	"arrowright"	"1337"	"TRUE"	"Ebbinghaus"	"0.1000000000"	"-0.158570000"	"1"	"34"
n/a	"html-keyboard-response"	"85"	"236437"	"0.0-5.0-2.0-0.16"	"nej63f"	"600"	"1366"	"chrome"	"110.0.0"	"FALSE"	"Windows 10"	"60.07"	"037"	n/a	n/a	n/a	n/a	n/a	n/a	"fixation"	n/a	n/a	n/a	n/a	"NULL"	n/a	"NULL"	"NULL"	"NULL"	"<p style=\"color: black; font-size: 80px; padding-left: 50%; padding-right: 8%; padding-top: 25%; padding-bottom: 34%\">+</p>"	"1067"	n/a	n/a	n/a	n/a	n/a	n/a	n/a	n/a	n/a
n/a	"image-keyboard-response"	"86"	"236930"	"0.0-5.0-2.0-1.16"	"nej63f"	"600"	"1366"	"chrome"	"110.0.0"	"FALSE"	"Windows 10"	"60.07"	"037"	n/a	n/a	n/a	n/a	n/a	n/a	"Trial"	n/a	n/a	n/a	"493"	"arrowleft"	n/a	"NULL"	"NULL"	"NULL"	"stimuli/Ebbinghaus_-0.61429_-0.11071.png"	n/a	"Ebbinghaus"	"arrowright"	"1081"	"FALSE"	"Ebbinghaus"	"-0.614290000"	"-0.110710000"	"1"	"35"
n/a	"html-keyboard-response"	"87"	"238269"	"0.0-5.0-2.0-0.17"	"nej63f"	"600"	"1366"	"chrome"	"110.0.0"	"FALSE"	"Windows 10"	"60.07"	"037"	n/a	n/a	n/a	n/a	n/a	n/a	"fixation"	n/a	n/a	n/a	n/a	"NULL"	n/a	"NULL"	"NULL"	"NULL"	"<p style=\"color: black; font-size: 80px; padding-left: 2%; padding-right: 12%; padding-top: 8%; padding-bottom: 25%\">+</p>"	"1330"	n/a	n/a	n/a	n/a	n/a	n/a	n/a	n/a	n/a
n/a	"image-keyboard-response"	"88"	"238686"	"0.0-5.0-2.0-1.17"	"nej63f"	"600"	"1366"	"chrome"	"110.0.0"	"FALSE"	"Windows 10"	"60.07"	"037"	n/a	n/a	n/a	n/a	n/a	n/a	"Trial"	n/a	n/a	n/a	"416"	"arrowleft"	n/a	"NULL"	"NULL"	"NULL"	"stimuli/Ebbinghaus_0.35714_0.28000.png"	n/a	"Ebbinghaus"	"arrowleft"	"1339"	"TRUE"	"Ebbinghaus"	"0.3571400000"	"0.2800000000"	"1"	"36"
n/a	"html-keyboard-response"	"89"	"240188"	"0.0-5.0-2.0-0.18"	"nej63f"	"600"	"1366"	"chrome"	"110.0.0"	"FALSE"	"Windows 10"	"60.07"	"037"	n/a	n/a	n/a	n/a	n/a	n/a	"fixation"	n/a	n/a	n/a	n/a	"NULL"	n/a	"NULL"	"NULL"	"NULL"	"<p style=\"color: black; font-size: 80px; padding-left: 20%; padding-right: 36%; padding-top: 9%; padding-bottom: 8%\">+</p>"	"1493"	n/a	n/a	n/a	n/a	n/a	n/a	n/a	n/a	n/a
n/a	"image-keyboard-response"	"90"	"240723"	"0.0-5.0-2.0-1.18"	"nej63f"	"600"	"1366"	"chrome"	"110.0.0"	"FALSE"	"Windows 10"	"60.07"	"037"	n/a	n/a	n/a	n/a	n/a	n/a	"Trial"	n/a	n/a	n/a	"535"	"arrowright"	n/a	"NULL"	"NULL"	"NULL"	"stimuli/Ebbinghaus_-0.87143_0.11071.png"	n/a	"Ebbinghaus"	"arrowleft"	"1502"	"FALSE"	"Ebbinghaus"	"-0.871430000"	"0.1107100000"	"1"	"37"
n/a	"html-keyboard-response"	"91"	"241931"	"0.0-5.0-2.0-0.19"	"nej63f"	"600"	"1366"	"chrome"	"110.0.0"	"FALSE"	"Windows 10"	"60.07"	"037"	n/a	n/a	n/a	n/a	n/a	n/a	"fixation"	n/a	n/a	n/a	n/a	"NULL"	n/a	"NULL"	"NULL"	"NULL"	"<p style=\"color: black; font-size: 80px; padding-left: 16%; padding-right: 38%; padding-top: 13%; padding-bottom: 42%\">+</p>"	"1195"	n/a	n/a	n/a	n/a	n/a	n/a	n/a	n/a	n/a
n/a	"image-keyboard-response"	"92"	"242342"	"0.0-5.0-2.0-1.19"	"nej63f"	"600"	"1366"	"chrome"	"110.0.0"	"FALSE"	"Windows 10"	"60.07"	"037"	n/a	n/a	n/a	n/a	n/a	n/a	"Trial"	n/a	n/a	n/a	"410"	"arrowright"	n/a	"NULL"	"NULL"	"NULL"	"stimuli/Ebbinghaus_0.87143_-0.11071.png"	n/a	"Ebbinghaus"	"arrowright"	"1208"	"TRUE"	"Ebbinghaus"	"0.8714300000"	"-0.110710000"	"1"	"38"
n/a	"html-keyboard-response"	"93"	"243785"	"0.0-5.0-2.0-0.20"	"nej63f"	"600"	"1366"	"chrome"	"110.0.0"	"FALSE"	"Windows 10"	"60.07"	"037"	n/a	n/a	n/a	n/a	n/a	n/a	"fixation"	n/a	n/a	n/a	n/a	"NULL"	n/a	"NULL"	"NULL"	"NULL"	"<p style=\"color: black; font-size: 80px; padding-left: 35%; padding-right: 50%; padding-top: 34%; padding-bottom: 43%\">+</p>"	"1432"	n/a	n/a	n/a	n/a	n/a	n/a	n/a	n/a	n/a
n/a	"image-keyboard-response"	"94"	"244174"	"0.0-5.0-2.0-1.20"	"nej63f"	"600"	"1366"	"chrome"	"110.0.0"	"FALSE"	"Windows 10"	"60.07"	"037"	n/a	n/a	n/a	n/a	n/a	n/a	"Trial"	n/a	n/a	n/a	"388"	"arrowright"	n/a	"NULL"	"NULL"	"NULL"	"stimuli/Ebbinghaus_0.87143_0.11071.png"	n/a	"Ebbinghaus"	"arrowleft"	"1443"	"FALSE"	"Ebbinghaus"	"0.8714300000"	"0.1107100000"	"1"	"39"
n/a	"html-keyboard-response"	"95"	"245389"	"0.0-5.0-2.0-0.21"	"nej63f"	"600"	"1366"	"chrome"	"110.0.0"	"FALSE"	"Windows 10"	"60.07"	"037"	n/a	n/a	n/a	n/a	n/a	n/a	"fixation"	n/a	n/a	n/a	n/a	"NULL"	n/a	"NULL"	"NULL"	"NULL"	"<p style=\"color: black; font-size: 80px; padding-left: 28%; padding-right: 43%; padding-top: 47%; padding-bottom: 41%\">+</p>"	"1210"	n/a	n/a	n/a	n/a	n/a	n/a	n/a	n/a	n/a
n/a	"image-keyboard-response"	"96"	"245915"	"0.0-5.0-2.0-1.21"	"nej63f"	"600"	"1366"	"chrome"	"110.0.0"	"FALSE"	"Windows 10"	"60.07"	"037"	n/a	n/a	n/a	n/a	n/a	n/a	"Trial"	n/a	n/a	n/a	"526"	"arrowright"	n/a	"NULL"	"NULL"	"NULL"	"stimuli/Ebbinghaus_0.87143_-0.2800.png"	n/a	"Ebbinghaus"	"arrowright"	"1215"	"TRUE"	"Ebbinghaus"	"0.8714300000"	"-0.280000000"	"1"	"40"
n/a	"html-keyboard-response"	"97"	"247259"	"0.0-5.0-2.0-0.22"	"nej63f"	"600"	"1366"	"chrome"	"110.0.0"	"FALSE"	"Windows 10"	"60.07"	"037"	n/a	n/a	n/a	n/a	n/a	n/a	"fixation"	n/a	n/a	n/a	n/a	"NULL"	n/a	"NULL"	"NULL"	"NULL"	"<p style=\"color: black; font-size: 80px; padding-left: 9%; padding-right: 6%; padding-top: 45%; padding-bottom: 18%\">+</p>"	"1341"	n/a	n/a	n/a	n/a	n/a	n/a	n/a	n/a	n/a
n/a	"image-keyboard-response"	"98"	"247753"	"0.0-5.0-2.0-1.22"	"nej63f"	"600"	"1366"	"chrome"	"110.0.0"	"FALSE"	"Windows 10"	"60.07"	"037"	n/a	n/a	n/a	n/a	n/a	n/a	"Trial"	n/a	n/a	n/a	"493"	"arrowleft"	n/a	"NULL"	"NULL"	"NULL"	"stimuli/Ebbinghaus_-0.1000_-0.2150.png"	n/a	"Ebbinghaus"	"arrowright"	"1344"	"FALSE"	"Ebbinghaus"	"-0.100000000"	"-0.215000000"	"1"	"41"
n/a	"html-keyboard-response"	"99"	"249145"	"0.0-5.0-2.0-0.23"	"nej63f"	"600"	"1366"	"chrome"	"110.0.0"	"FALSE"	"Windows 10"	"60.07"	"037"	n/a	n/a	n/a	n/a	n/a	n/a	"fixation"	n/a	n/a	n/a	n/a	"NULL"	n/a	"NULL"	"NULL"	"NULL"	"<p style=\"color: black; font-size: 80px; padding-left: 9%; padding-right: 29%; padding-top: 8%; padding-bottom: 44%\">+</p>"	"1389"	n/a	n/a	n/a	n/a	n/a	n/a	n/a	n/a	n/a
n/a	"image-keyboard-response"	"100"	"249621"	"0.0-5.0-2.0-1.23"	"nej63f"	"600"	"1366"	"chrome"	"110.0.0"	"FALSE"	"Windows 10"	"60.07"	"037"	n/a	n/a	n/a	n/a	n/a	n/a	"Trial"	n/a	n/a	n/a	"476"	"arrowleft"	n/a	"NULL"	"NULL"	"NULL"	"stimuli/Ebbinghaus_0.35714_0.15857.png"	n/a	"Ebbinghaus"	"arrowleft"	"1392"	"TRUE"	"Ebbinghaus"	"0.3571400000"	"0.1585700000"	"1"	"42"
n/a	"html-keyboard-response"	"101"	"250870"	"0.0-5.0-2.0-0.24"	"nej63f"	"600"	"1366"	"chrome"	"110.0.0"	"FALSE"	"Windows 10"	"60.07"	"037"	n/a	n/a	n/a	n/a	n/a	n/a	"fixation"	n/a	n/a	n/a	n/a	"NULL"	n/a	"NULL"	"NULL"	"NULL"	"<p style=\"color: black; font-size: 80px; padding-left: 49%; padding-right: 29%; padding-top: 44%; padding-bottom: 32%\">+</p>"	"1234"	n/a	n/a	n/a	n/a	n/a	n/a	n/a	n/a	n/a
n/a	"image-keyboard-response"	"102"	"251420"	"0.0-5.0-2.0-1.24"	"nej63f"	"600"	"1366"	"chrome"	"110.0.0"	"FALSE"	"Windows 10"	"60.07"	"037"	n/a	n/a	n/a	n/a	n/a	n/a	"Trial"	n/a	n/a	n/a	"550"	"arrowright"	n/a	"NULL"	"NULL"	"NULL"	"stimuli/Ebbinghaus_-0.1000_-0.2800.png"	n/a	"Ebbinghaus"	"arrowright"	"1249"	"TRUE"	"Ebbinghaus"	"-0.100000000"	"-0.280000000"	"1"	"43"
n/a	"html-keyboard-response"	"103"	"252491"	"0.0-5.0-2.0-0.25"	"nej63f"	"600"	"1366"	"chrome"	"110.0.0"	"FALSE"	"Windows 10"	"60.07"	"037"	n/a	n/a	n/a	n/a	n/a	n/a	"fixation"	n/a	n/a	n/a	n/a	"NULL"	n/a	"NULL"	"NULL"	"NULL"	"<p style=\"color: black; font-size: 80px; padding-left: 41%; padding-right: 38%; padding-top: 21%; padding-bottom: 27%\">+</p>"	"1062"	n/a	n/a	n/a	n/a	n/a	n/a	n/a	n/a	n/a
n/a	"image-keyboard-response"	"104"	"252932"	"0.0-5.0-2.0-1.25"	"nej63f"	"600"	"1366"	"chrome"	"110.0.0"	"FALSE"	"Windows 10"	"60.07"	"037"	n/a	n/a	n/a	n/a	n/a	n/a	"Trial"	n/a	n/a	n/a	"441"	"arrowleft"	n/a	"NULL"	"NULL"	"NULL"	"stimuli/Ebbinghaus_0.61429_0.21500.png"	n/a	"Ebbinghaus"	"arrowleft"	"1071"	"TRUE"	"Ebbinghaus"	"0.6142900000"	"0.2150000000"	"1"	"44"
n/a	"html-keyboard-response"	"105"	"254377"	"0.0-5.0-2.0-0.26"	"nej63f"	"600"	"1366"	"chrome"	"110.0.0"	"FALSE"	"Windows 10"	"60.07"	"037"	n/a	n/a	n/a	n/a	n/a	n/a	"fixation"	n/a	n/a	n/a	n/a	"NULL"	n/a	"NULL"	"NULL"	"NULL"	"<p style=\"color: black; font-size: 80px; padding-left: 20%; padding-right: 42%; padding-top: 10%; padding-bottom: 18%\">+</p>"	"1436"	n/a	n/a	n/a	n/a	n/a	n/a	n/a	n/a	n/a
n/a	"image-keyboard-response"	"106"	"254712"	"0.0-5.0-2.0-1.26"	"nej63f"	"600"	"1366"	"chrome"	"110.0.0"	"FALSE"	"Windows 10"	"60.07"	"037"	n/a	n/a	n/a	n/a	n/a	n/a	"Trial"	n/a	n/a	n/a	"334"	"arrowleft"	n/a	"NULL"	"NULL"	"NULL"	"stimuli/Ebbinghaus_-0.61429_-0.15857.png"	n/a	"Ebbinghaus"	"arrowright"	"1445"	"FALSE"	"Ebbinghaus"	"-0.614290000"	"-0.158570000"	"1"	"45"
n/a	"html-keyboard-response"	"107"	"255957"	"0.0-5.0-2.0-0.27"	"nej63f"	"600"	"1366"	"chrome"	"110.0.0"	"FALSE"	"Windows 10"	"60.07"	"037"	n/a	n/a	n/a	n/a	n/a	n/a	"fixation"	n/a	n/a	n/a	n/a	"NULL"	n/a	"NULL"	"NULL"	"NULL"	"<p style=\"color: black; font-size: 80px; padding-left: 27%; padding-right: 17%; padding-top: 30%; padding-bottom: 39%\">+</p>"	"1233"	n/a	n/a	n/a	n/a	n/a	n/a	n/a	n/a	n/a
n/a	"image-keyboard-response"	"108"	"256288"	"0.0-5.0-2.0-1.27"	"nej63f"	"600"	"1366"	"chrome"	"110.0.0"	"FALSE"	"Windows 10"	"60.07"	"037"	n/a	n/a	n/a	n/a	n/a	n/a	"Trial"	n/a	n/a	n/a	"331"	"arrowleft"	n/a	"NULL"	"NULL"	"NULL"	"stimuli/Ebbinghaus_0.61429_-0.2150.png"	n/a	"Ebbinghaus"	"arrowright"	"1245"	"FALSE"	"Ebbinghaus"	"0.6142900000"	"-0.215000000"	"1"	"46"
n/a	"html-keyboard-response"	"109"	"257473"	"0.0-5.0-2.0-0.28"	"nej63f"	"600"	"1366"	"chrome"	"110.0.0"	"FALSE"	"Windows 10"	"60.07"	"037"	n/a	n/a	n/a	n/a	n/a	n/a	"fixation"	n/a	n/a	n/a	n/a	"NULL"	n/a	"NULL"	"NULL"	"NULL"	"<p style=\"color: black; font-size: 80px; padding-left: 7%; padding-right: 11%; padding-top: 41%; padding-bottom: 2%\">+</p>"	"1177"	n/a	n/a	n/a	n/a	n/a	n/a	n/a	n/a	n/a
n/a	"image-keyboard-response"	"110"	"257877"	"0.0-5.0-2.0-1.28"	"nej63f"	"600"	"1366"	"chrome"	"110.0.0"	"FALSE"	"Windows 10"	"60.07"	"037"	n/a	n/a	n/a	n/a	n/a	n/a	"Trial"	n/a	n/a	n/a	"404"	"arrowright"	n/a	"NULL"	"NULL"	"NULL"	"stimuli/Ebbinghaus_0.61429_-0.11071.png"	n/a	"Ebbinghaus"	"arrowright"	"1185"	"TRUE"	"Ebbinghaus"	"0.6142900000"	"-0.110710000"	"1"	"47"
n/a	"html-keyboard-response"	"111"	"258933"	"0.0-5.0-2.0-0.29"	"nej63f"	"600"	"1366"	"chrome"	"110.0.0"	"FALSE"	"Windows 10"	"60.07"	"037"	n/a	n/a	n/a	n/a	n/a	n/a	"fixation"	n/a	n/a	n/a	n/a	"NULL"	n/a	"NULL"	"NULL"	"NULL"	"<p style=\"color: black; font-size: 80px; padding-left: 4%; padding-right: 39%; padding-top: 25%; padding-bottom: 49%\">+</p>"	"1049"	n/a	n/a	n/a	n/a	n/a	n/a	n/a	n/a	n/a
n/a	"image-keyboard-response"	"112"	"259384"	"0.0-5.0-2.0-1.29"	"nej63f"	"600"	"1366"	"chrome"	"110.0.0"	"FALSE"	"Windows 10"	"60.07"	"037"	n/a	n/a	n/a	n/a	n/a	n/a	"Trial"	n/a	n/a	n/a	"450"	"arrowleft"	n/a	"NULL"	"NULL"	"NULL"	"stimuli/Ebbinghaus_-0.61429_-0.2150.png"	n/a	"Ebbinghaus"	"arrowright"	"1056"	"FALSE"	"Ebbinghaus"	"-0.614290000"	"-0.215000000"	"1"	"48"
n/a	"html-keyboard-response"	"113"	"260839"	"0.0-5.0-2.0-0.30"	"nej63f"	"600"	"1366"	"chrome"	"110.0.0"	"FALSE"	"Windows 10"	"60.07"	"037"	n/a	n/a	n/a	n/a	n/a	n/a	"fixation"	n/a	n/a	n/a	n/a	"NULL"	n/a	"NULL"	"NULL"	"NULL"	"<p style=\"color: black; font-size: 80px; padding-left: 8%; padding-right: 4%; padding-top: 29%; padding-bottom: 31%\">+</p>"	"1447"	n/a	n/a	n/a	n/a	n/a	n/a	n/a	n/a	n/a
n/a	"image-keyboard-response"	"114"	"261313"	"0.0-5.0-2.0-1.30"	"nej63f"	"600"	"1366"	"chrome"	"110.0.0"	"FALSE"	"Windows 10"	"60.07"	"037"	n/a	n/a	n/a	n/a	n/a	n/a	"Trial"	n/a	n/a	n/a	"474"	"arrowleft"	n/a	"NULL"	"NULL"	"NULL"	"stimuli/Ebbinghaus_0.87143_0.21500.png"	n/a	"Ebbinghaus"	"arrowleft"	"1455"	"TRUE"	"Ebbinghaus"	"0.8714300000"	"0.2150000000"	"1"	"49"
n/a	"html-keyboard-response"	"115"	"262760"	"0.0-5.0-2.0-0.31"	"nej63f"	"600"	"1366"	"chrome"	"110.0.0"	"FALSE"	"Windows 10"	"60.07"	"037"	n/a	n/a	n/a	n/a	n/a	n/a	"fixation"	n/a	n/a	n/a	n/a	"NULL"	n/a	"NULL"	"NULL"	"NULL"	"<p style=\"color: black; font-size: 80px; padding-left: 43%; padding-right: 50%; padding-top: 40%; padding-bottom: 12%\">+</p>"	"1439"	n/a	n/a	n/a	n/a	n/a	n/a	n/a	n/a	n/a
n/a	"image-keyboard-response"	"116"	"263266"	"0.0-5.0-2.0-1.31"	"nej63f"	"600"	"1366"	"chrome"	"110.0.0"	"FALSE"	"Windows 10"	"60.07"	"037"	n/a	n/a	n/a	n/a	n/a	n/a	"Trial"	n/a	n/a	n/a	"505"	"arrowleft"	n/a	"NULL"	"NULL"	"NULL"	"stimuli/Ebbinghaus_0.10000_0.28000.png"	n/a	"Ebbinghaus"	"arrowleft"	"1447"	"TRUE"	"Ebbinghaus"	"0.1000000000"	"0.2800000000"	"1"	"50"
n/a	"html-keyboard-response"	"117"	"264316"	"0.0-5.0-2.0-0.32"	"nej63f"	"600"	"1366"	"chrome"	"110.0.0"	"FALSE"	"Windows 10"	"60.07"	"037"	n/a	n/a	n/a	n/a	n/a	n/a	"fixation"	n/a	n/a	n/a	n/a	"NULL"	n/a	"NULL"	"NULL"	"NULL"	"<p style=\"color: black; font-size: 80px; padding-left: 44%; padding-right: 36%; padding-top: 29%; padding-bottom: 30%\">+</p>"	"1039"	n/a	n/a	n/a	n/a	n/a	n/a	n/a	n/a	n/a
n/a	"image-keyboard-response"	"118"	"264891"	"0.0-5.0-2.0-1.32"	"nej63f"	"600"	"1366"	"chrome"	"110.0.0"	"FALSE"	"Windows 10"	"60.07"	"037"	n/a	n/a	n/a	n/a	n/a	n/a	"Trial"	n/a	n/a	n/a	"573"	"arrowleft"	n/a	"NULL"	"NULL"	"NULL"	"stimuli/Ebbinghaus_-0.1000_-0.15857.png"	n/a	"Ebbinghaus"	"arrowright"	"1050"	"FALSE"	"Ebbinghaus"	"-0.100000000"	"-0.158570000"	"1"	"51"
n/a	"html-keyboard-response"	"119"	"266203"	"0.0-5.0-2.0-0.33"	"nej63f"	"600"	"1366"	"chrome"	"110.0.0"	"FALSE"	"Windows 10"	"60.07"	"037"	n/a	n/a	n/a	n/a	n/a	n/a	"fixation"	n/a	n/a	n/a	n/a	"NULL"	n/a	"NULL"	"NULL"	"NULL"	"<p style=\"color: black; font-size: 80px; padding-left: 38%; padding-right: 12%; padding-top: 20%; padding-bottom: 33%\">+</p>"	"1300"	n/a	n/a	n/a	n/a	n/a	n/a	n/a	n/a	n/a
n/a	"image-keyboard-response"	"120"	"266697"	"0.0-5.0-2.0-1.33"	"nej63f"	"600"	"1366"	"chrome"	"110.0.0"	"FALSE"	"Windows 10"	"60.07"	"037"	n/a	n/a	n/a	n/a	n/a	n/a	"Trial"	n/a	n/a	n/a	"493"	"arrowleft"	n/a	"NULL"	"NULL"	"NULL"	"stimuli/Ebbinghaus_-0.35714_-0.2150.png"	n/a	"Ebbinghaus"	"arrowright"	"1312"	"FALSE"	"Ebbinghaus"	"-0.357140000"	"-0.215000000"	"1"	"52"
n/a	"html-keyboard-response"	"121"	"268080"	"0.0-5.0-2.0-0.34"	"nej63f"	"600"	"1366"	"chrome"	"110.0.0"	"FALSE"	"Windows 10"	"60.07"	"037"	n/a	n/a	n/a	n/a	n/a	n/a	"fixation"	n/a	n/a	n/a	n/a	"NULL"	n/a	"NULL"	"NULL"	"NULL"	"<p style=\"color: black; font-size: 80px; padding-left: 4%; padding-right: 4%; padding-top: 49%; padding-bottom: 7%\">+</p>"	"1377"	n/a	n/a	n/a	n/a	n/a	n/a	n/a	n/a	n/a
n/a	"image-keyboard-response"	"122"	"268579"	"0.0-5.0-2.0-1.34"	"nej63f"	"600"	"1366"	"chrome"	"110.0.0"	"FALSE"	"Windows 10"	"60.07"	"037"	n/a	n/a	n/a	n/a	n/a	n/a	"Trial"	n/a	n/a	n/a	"498"	"arrowright"	n/a	"NULL"	"NULL"	"NULL"	"stimuli/Ebbinghaus_0.10000_-0.2800.png"	n/a	"Ebbinghaus"	"arrowright"	"1383"	"TRUE"	"Ebbinghaus"	"0.1000000000"	"-0.280000000"	"1"	"53"
n/a	"html-keyboard-response"	"123"	"269938"	"0.0-5.0-2.0-0.35"	"nej63f"	"600"	"1366"	"chrome"	"110.0.0"	"FALSE"	"Windows 10"	"60.07"	"037"	n/a	n/a	n/a	n/a	n/a	n/a	"fixation"	n/a	n/a	n/a	n/a	"NULL"	n/a	"NULL"	"NULL"	"NULL"	"<p style=\"color: black; font-size: 80px; padding-left: 5%; padding-right: 49%; padding-top: 48%; padding-bottom: 8%\">+</p>"	"1350"	n/a	n/a	n/a	n/a	n/a	n/a	n/a	n/a	n/a
n/a	"image-keyboard-response"	"124"	"270427"	"0.0-5.0-2.0-1.35"	"nej63f"	"600"	"1366"	"chrome"	"110.0.0"	"FALSE"	"Windows 10"	"60.07"	"037"	n/a	n/a	n/a	n/a	n/a	n/a	"Trial"	n/a	n/a	n/a	"488"	"arrowright"	n/a	"NULL"	"NULL"	"NULL"	"stimuli/Ebbinghaus_-0.35714_0.28000.png"	n/a	"Ebbinghaus"	"arrowleft"	"1359"	"FALSE"	"Ebbinghaus"	"-0.357140000"	"0.2800000000"	"1"	"54"
n/a	"html-keyboard-response"	"125"	"271515"	"0.0-5.0-2.0-0.36"	"nej63f"	"600"	"1366"	"chrome"	"110.0.0"	"FALSE"	"Windows 10"	"60.07"	"037"	n/a	n/a	n/a	n/a	n/a	n/a	"fixation"	n/a	n/a	n/a	n/a	"NULL"	n/a	"NULL"	"NULL"	"NULL"	"<p style=\"color: black; font-size: 80px; padding-left: 29%; padding-right: 27%; padding-top: 19%; padding-bottom: 39%\">+</p>"	"1085"	n/a	n/a	n/a	n/a	n/a	n/a	n/a	n/a	n/a
n/a	"image-keyboard-response"	"126"	"271979"	"0.0-5.0-2.0-1.36"	"nej63f"	"600"	"1366"	"chrome"	"110.0.0"	"FALSE"	"Windows 10"	"60.07"	"037"	n/a	n/a	n/a	n/a	n/a	n/a	"Trial"	n/a	n/a	n/a	"463"	"arrowleft"	n/a	"NULL"	"NULL"	"NULL"	"stimuli/Ebbinghaus_-0.35714_-0.2800.png"	n/a	"Ebbinghaus"	"arrowright"	"1088"	"FALSE"	"Ebbinghaus"	"-0.357140000"	"-0.280000000"	"1"	"55"
n/a	"html-keyboard-response"	"127"	"273385"	"0.0-5.0-2.0-0.37"	"nej63f"	"600"	"1366"	"chrome"	"110.0.0"	"FALSE"	"Windows 10"	"60.07"	"037"	n/a	n/a	n/a	n/a	n/a	n/a	"fixation"	n/a	n/a	n/a	n/a	"NULL"	n/a	"NULL"	"NULL"	"NULL"	"<p style=\"color: black; font-size: 80px; padding-left: 32%; padding-right: 15%; padding-top: 7%; padding-bottom: 28%\">+</p>"	"1397"	n/a	n/a	n/a	n/a	n/a	n/a	n/a	n/a	n/a
n/a	"image-keyboard-response"	"128"	"273768"	"0.0-5.0-2.0-1.37"	"nej63f"	"600"	"1366"	"chrome"	"110.0.0"	"FALSE"	"Windows 10"	"60.07"	"037"	n/a	n/a	n/a	n/a	n/a	n/a	"Trial"	n/a	n/a	n/a	"382"	"arrowleft"	n/a	"NULL"	"NULL"	"NULL"	"stimuli/Ebbinghaus_-0.1000_0.21500.png"	n/a	"Ebbinghaus"	"arrowleft"	"1406"	"TRUE"	"Ebbinghaus"	"-0.100000000"	"0.2150000000"	"1"	"56"
n/a	"html-keyboard-response"	"129"	"274971"	"0.0-5.0-2.0-0.38"	"nej63f"	"600"	"1366"	"chrome"	"110.0.0"	"FALSE"	"Windows 10"	"60.07"	"037"	n/a	n/a	n/a	n/a	n/a	n/a	"fixation"	n/a	n/a	n/a	n/a	"NULL"	n/a	"NULL"	"NULL"	"NULL"	"<p style=\"color: black; font-size: 80px; padding-left: 16%; padding-right: 0%; padding-top: 42%; padding-bottom: 26%\">+</p>"	"1190"	n/a	n/a	n/a	n/a	n/a	n/a	n/a	n/a	n/a
n/a	"image-keyboard-response"	"130"	"275575"	"0.0-5.0-2.0-1.38"	"nej63f"	"600"	"1366"	"chrome"	"110.0.0"	"FALSE"	"Windows 10"	"60.07"	"037"	n/a	n/a	n/a	n/a	n/a	n/a	"Trial"	n/a	n/a	n/a	"604"	"arrowleft"	n/a	"NULL"	"NULL"	"NULL"	"stimuli/Ebbinghaus_-0.35714_-0.15857.png"	n/a	"Ebbinghaus"	"arrowright"	"1203"	"FALSE"	"Ebbinghaus"	"-0.357140000"	"-0.158570000"	"1"	"57"
n/a	"html-keyboard-response"	"131"	"276737"	"0.0-5.0-2.0-0.39"	"nej63f"	"600"	"1366"	"chrome"	"110.0.0"	"FALSE"	"Windows 10"	"60.07"	"037"	n/a	n/a	n/a	n/a	n/a	n/a	"fixation"	n/a	n/a	n/a	n/a	"NULL"	n/a	"NULL"	"NULL"	"NULL"	"<p style=\"color: black; font-size: 80px; padding-left: 4%; padding-right: 17%; padding-top: 33%; padding-bottom: 13%\">+</p>"	"1158"	n/a	n/a	n/a	n/a	n/a	n/a	n/a	n/a	n/a
n/a	"image-keyboard-response"	"132"	"277275"	"0.0-5.0-2.0-1.39"	"nej63f"	"600"	"1366"	"chrome"	"110.0.0"	"FALSE"	"Windows 10"	"60.07"	"037"	n/a	n/a	n/a	n/a	n/a	n/a	"Trial"	n/a	n/a	n/a	"537"	"arrowright"	n/a	"NULL"	"NULL"	"NULL"	"stimuli/Ebbinghaus_-0.87143_0.28000.png"	n/a	"Ebbinghaus"	"arrowleft"	"1162"	"FALSE"	"Ebbinghaus"	"-0.871430000"	"0.2800000000"	"1"	"58"
n/a	"html-keyboard-response"	"133"	"278738"	"0.0-5.0-2.0-0.40"	"nej63f"	"600"	"1366"	"chrome"	"110.0.0"	"FALSE"	"Windows 10"	"60.07"	"037"	n/a	n/a	n/a	n/a	n/a	n/a	"fixation"	n/a	n/a	n/a	n/a	"NULL"	n/a	"NULL"	"NULL"	"NULL"	"<p style=\"color: black; font-size: 80px; padding-left: 31%; padding-right: 33%; padding-top: 42%; padding-bottom: 21%\">+</p>"	"1447"	n/a	n/a	n/a	n/a	n/a	n/a	n/a	n/a	n/a
n/a	"image-keyboard-response"	"134"	"279225"	"0.0-5.0-2.0-1.40"	"nej63f"	"600"	"1366"	"chrome"	"110.0.0"	"FALSE"	"Windows 10"	"60.07"	"037"	n/a	n/a	n/a	n/a	n/a	n/a	"Trial"	n/a	n/a	n/a	"486"	"arrowleft"	n/a	"NULL"	"NULL"	"NULL"	"stimuli/Ebbinghaus_0.61429_0.15857.png"	n/a	"Ebbinghaus"	"arrowleft"	"1463"	"TRUE"	"Ebbinghaus"	"0.6142900000"	"0.1585700000"	"1"	"59"
n/a	"html-keyboard-response"	"135"	"280426"	"0.0-5.0-2.0-0.41"	"nej63f"	"600"	"1366"	"chrome"	"110.0.0"	"FALSE"	"Windows 10"	"60.07"	"037"	n/a	n/a	n/a	n/a	n/a	n/a	"fixation"	n/a	n/a	n/a	n/a	"NULL"	n/a	"NULL"	"NULL"	"NULL"	"<p style=\"color: black; font-size: 80px; padding-left: 35%; padding-right: 41%; padding-top: 11%; padding-bottom: 7%\">+</p>"	"1200"	n/a	n/a	n/a	n/a	n/a	n/a	n/a	n/a	n/a
n/a	"image-keyboard-response"	"136"	"280940"	"0.0-5.0-2.0-1.41"	"nej63f"	"600"	"1366"	"chrome"	"110.0.0"	"FALSE"	"Windows 10"	"60.07"	"037"	n/a	n/a	n/a	n/a	n/a	n/a	"Trial"	n/a	n/a	n/a	"510"	"arrowright"	n/a	"NULL"	"NULL"	"NULL"	"stimuli/Ebbinghaus_-0.35714_0.15857.png"	n/a	"Ebbinghaus"	"arrowleft"	"1201"	"FALSE"	"Ebbinghaus"	"-0.357140000"	"0.1585700000"	"1"	"60"
n/a	"html-keyboard-response"	"137"	"282092"	"0.0-5.0-2.0-0.42"	"nej63f"	"600"	"1366"	"chrome"	"110.0.0"	"FALSE"	"Windows 10"	"60.07"	"037"	n/a	n/a	n/a	n/a	n/a	n/a	"fixation"	n/a	n/a	n/a	n/a	"NULL"	n/a	"NULL"	"NULL"	"NULL"	"<p style=\"color: black; font-size: 80px; padding-left: 3%; padding-right: 39%; padding-top: 16%; padding-bottom: 46%\">+</p>"	"1149"	n/a	n/a	n/a	n/a	n/a	n/a	n/a	n/a	n/a
n/a	"image-keyboard-response"	"138"	"282598"	"0.0-5.0-2.0-1.42"	"nej63f"	"600"	"1366"	"chrome"	"110.0.0"	"FALSE"	"Windows 10"	"60.07"	"037"	n/a	n/a	n/a	n/a	n/a	n/a	"Trial"	n/a	n/a	n/a	"505"	"arrowleft"	n/a	"NULL"	"NULL"	"NULL"	"stimuli/Ebbinghaus_-0.1000_0.11071.png"	n/a	"Ebbinghaus"	"arrowleft"	"1152"	"TRUE"	"Ebbinghaus"	"-0.100000000"	"0.1107100000"	"1"	"61"
n/a	"html-keyboard-response"	"139"	"283708"	"0.0-5.0-2.0-0.43"	"nej63f"	"600"	"1366"	"chrome"	"110.0.0"	"FALSE"	"Windows 10"	"60.07"	"037"	n/a	n/a	n/a	n/a	n/a	n/a	"fixation"	n/a	n/a	n/a	n/a	"NULL"	n/a	"NULL"	"NULL"	"NULL"	"<p style=\"color: black; font-size: 80px; padding-left: 11%; padding-right: 0%; padding-top: 47%; padding-bottom: 18%\">+</p>"	"1094"	n/a	n/a	n/a	n/a	n/a	n/a	n/a	n/a	n/a
n/a	"image-keyboard-response"	"140"	"284246"	"0.0-5.0-2.0-1.43"	"nej63f"	"600"	"1366"	"chrome"	"110.0.0"	"FALSE"	"Windows 10"	"60.07"	"037"	n/a	n/a	n/a	n/a	n/a	n/a	"Trial"	n/a	n/a	n/a	"538"	"arrowleft"	n/a	"NULL"	"NULL"	"NULL"	"stimuli/Ebbinghaus_-0.35714_-0.11071.png"	n/a	"Ebbinghaus"	"arrowright"	"1110"	"FALSE"	"Ebbinghaus"	"-0.357140000"	"-0.110710000"	"1"	"62"
n/a	"html-keyboard-response"	"141"	"285534"	"0.0-5.0-2.0-0.44"	"nej63f"	"600"	"1366"	"chrome"	"110.0.0"	"FALSE"	"Windows 10"	"60.07"	"037"	n/a	n/a	n/a	n/a	n/a	n/a	"fixation"	n/a	n/a	n/a	n/a	"NULL"	n/a	"NULL"	"NULL"	"NULL"	"<p style=\"color: black; font-size: 80px; padding-left: 28%; padding-right: 15%; padding-top: 24%; padding-bottom: 27%\">+</p>"	"1281"	n/a	n/a	n/a	n/a	n/a	n/a	n/a	n/a	n/a
n/a	"image-keyboard-response"	"142"	"286137"	"0.0-5.0-2.0-1.44"	"nej63f"	"600"	"1366"	"chrome"	"110.0.0"	"FALSE"	"Windows 10"	"60.07"	"037"	n/a	n/a	n/a	n/a	n/a	n/a	"Trial"	n/a	n/a	n/a	"602"	"arrowright"	n/a	"NULL"	"NULL"	"NULL"	"stimuli/Ebbinghaus_-0.61429_0.11071.png"	n/a	"Ebbinghaus"	"arrowleft"	"1288"	"FALSE"	"Ebbinghaus"	"-0.614290000"	"0.1107100000"	"1"	"63"
n/a	"html-keyboard-response"	"143"	"287171"	"0.0-5.0-2.0-0.45"	"nej63f"	"600"	"1366"	"chrome"	"110.0.0"	"FALSE"	"Windows 10"	"60.07"	"037"	n/a	n/a	n/a	n/a	n/a	n/a	"fixation"	n/a	n/a	n/a	n/a	"NULL"	n/a	"NULL"	"NULL"	"NULL"	"<p style=\"color: black; font-size: 80px; padding-left: 36%; padding-right: 14%; padding-top: 49%; padding-bottom: 40%\">+</p>"	"1020"	n/a	n/a	n/a	n/a	n/a	n/a	n/a	n/a	n/a
n/a	"image-keyboard-response"	"144"	"287646"	"0.0-5.0-2.0-1.45"	"nej63f"	"600"	"1366"	"chrome"	"110.0.0"	"FALSE"	"Windows 10"	"60.07"	"037"	n/a	n/a	n/a	n/a	n/a	n/a	"Trial"	n/a	n/a	n/a	"474"	"arrowright"	n/a	"NULL"	"NULL"	"NULL"	"stimuli/Ebbinghaus_0.35714_-0.11071.png"	n/a	"Ebbinghaus"	"arrowright"	"1034"	"TRUE"	"Ebbinghaus"	"0.3571400000"	"-0.110710000"	"1"	"64"
n/a	"html-keyboard-response"	"145"	"288720"	"0.0-5.0-2.0-0.46"	"nej63f"	"600"	"1366"	"chrome"	"110.0.0"	"FALSE"	"Windows 10"	"60.07"	"037"	n/a	n/a	n/a	n/a	n/a	n/a	"fixation"	n/a	n/a	n/a	n/a	"NULL"	n/a	"NULL"	"NULL"	"NULL"	"<p style=\"color: black; font-size: 80px; padding-left: 34%; padding-right: 25%; padding-top: 43%; padding-bottom: 9%\">+</p>"	"1064"	n/a	n/a	n/a	n/a	n/a	n/a	n/a	n/a	n/a
n/a	"image-keyboard-response"	"146"	"289190"	"0.0-5.0-2.0-1.46"	"nej63f"	"600"	"1366"	"chrome"	"110.0.0"	"FALSE"	"Windows 10"	"60.07"	"037"	n/a	n/a	n/a	n/a	n/a	n/a	"Trial"	n/a	n/a	n/a	"469"	"arrowleft"	n/a	"NULL"	"NULL"	"NULL"	"stimuli/Ebbinghaus_-0.87143_-0.2800.png"	n/a	"Ebbinghaus"	"arrowright"	"1074"	"FALSE"	"Ebbinghaus"	"-0.871430000"	"-0.280000000"	"1"	"65"
n/a	"html-keyboard-response"	"147"	"290221"	"0.0-5.0-2.0-0.47"	"nej63f"	"600"	"1366"	"chrome"	"110.0.0"	"FALSE"	"Windows 10"	"60.07"	"037"	n/a	n/a	n/a	n/a	n/a	n/a	"fixation"	n/a	n/a	n/a	n/a	"NULL"	n/a	"NULL"	"NULL"	"NULL"	"<p style=\"color: black; font-size: 80px; padding-left: 42%; padding-right: 33%; padding-top: 37%; padding-bottom: 7%\">+</p>"	"1028"	n/a	n/a	n/a	n/a	n/a	n/a	n/a	n/a	n/a
n/a	"image-keyboard-response"	"148"	"290673"	"0.0-5.0-2.0-1.47"	"nej63f"	"600"	"1366"	"chrome"	"110.0.0"	"FALSE"	"Windows 10"	"60.07"	"037"	n/a	n/a	n/a	n/a	n/a	n/a	"Trial"	n/a	n/a	n/a	"452"	"arrowright"	n/a	"NULL"	"NULL"	"NULL"	"stimuli/Ebbinghaus_0.87143_-0.15857.png"	n/a	"Ebbinghaus"	"arrowright"	"1031"	"TRUE"	"Ebbinghaus"	"0.8714300000"	"-0.158570000"	"1"	"66"
n/a	"html-keyboard-response"	"149"	"291921"	"0.0-5.0-2.0-0.48"	"nej63f"	"600"	"1366"	"chrome"	"110.0.0"	"FALSE"	"Windows 10"	"60.07"	"037"	n/a	n/a	n/a	n/a	n/a	n/a	"fixation"	n/a	n/a	n/a	n/a	"NULL"	n/a	"NULL"	"NULL"	"NULL"	"<p style=\"color: black; font-size: 80px; padding-left: 29%; padding-right: 30%; padding-top: 9%; padding-bottom: 1%\">+</p>"	"1242"	n/a	n/a	n/a	n/a	n/a	n/a	n/a	n/a	n/a
n/a	"image-keyboard-response"	"150"	"292312"	"0.0-5.0-2.0-1.48"	"nej63f"	"600"	"1366"	"chrome"	"110.0.0"	"FALSE"	"Windows 10"	"60.07"	"037"	n/a	n/a	n/a	n/a	n/a	n/a	"Trial"	n/a	n/a	n/a	"389"	"arrowleft"	n/a	"NULL"	"NULL"	"NULL"	"stimuli/Ebbinghaus_0.35714_0.21500.png"	n/a	"Ebbinghaus"	"arrowleft"	"1248"	"TRUE"	"Ebbinghaus"	"0.3571400000"	"0.2150000000"	"1"	"67"
n/a	"html-keyboard-response"	"151"	"293342"	"0.0-5.0-2.0-0.49"	"nej63f"	"600"	"1366"	"chrome"	"110.0.0"	"FALSE"	"Windows 10"	"60.07"	"037"	n/a	n/a	n/a	n/a	n/a	n/a	"fixation"	n/a	n/a	n/a	n/a	"NULL"	n/a	"NULL"	"NULL"	"NULL"	"<p style=\"color: black; font-size: 80px; padding-left: 40%; padding-right: 42%; padding-top: 37%; padding-bottom: 22%\">+</p>"	"1025"	n/a	n/a	n/a	n/a	n/a	n/a	n/a	n/a	n/a
n/a	"image-keyboard-response"	"152"	"293894"	"0.0-5.0-2.0-1.49"	"nej63f"	"600"	"1366"	"chrome"	"110.0.0"	"FALSE"	"Windows 10"	"60.07"	"037"	n/a	n/a	n/a	n/a	n/a	n/a	"Trial"	n/a	n/a	n/a	"550"	"arrowright"	n/a	"NULL"	"NULL"	"NULL"	"stimuli/Ebbinghaus_-0.1000_0.15857.png"	n/a	"Ebbinghaus"	"arrowleft"	"1030"	"FALSE"	"Ebbinghaus"	"-0.100000000"	"0.1585700000"	"1"	"68"
n/a	"html-keyboard-response"	"153"	"295066"	"0.0-5.0-2.0-0.50"	"nej63f"	"600"	"1366"	"chrome"	"110.0.0"	"FALSE"	"Windows 10"	"60.07"	"037"	n/a	n/a	n/a	n/a	n/a	n/a	"fixation"	n/a	n/a	n/a	n/a	"NULL"	n/a	"NULL"	"NULL"	"NULL"	"<p style=\"color: black; font-size: 80px; padding-left: 40%; padding-right: 18%; padding-top: 20%; padding-bottom: 10%\">+</p>"	"1161"	n/a	n/a	n/a	n/a	n/a	n/a	n/a	n/a	n/a
n/a	"image-keyboard-response"	"154"	"295513"	"0.0-5.0-2.0-1.50"	"nej63f"	"600"	"1366"	"chrome"	"110.0.0"	"FALSE"	"Windows 10"	"60.07"	"037"	n/a	n/a	n/a	n/a	n/a	n/a	"Trial"	n/a	n/a	n/a	"446"	"arrowleft"	n/a	"NULL"	"NULL"	"NULL"	"stimuli/Ebbinghaus_-0.87143_-0.11071.png"	n/a	"Ebbinghaus"	"arrowright"	"1172"	"FALSE"	"Ebbinghaus"	"-0.871430000"	"-0.110710000"	"1"	"69"
n/a	"html-keyboard-response"	"155"	"296649"	"0.0-5.0-2.0-0.51"	"nej63f"	"600"	"1366"	"chrome"	"110.0.0"	"FALSE"	"Windows 10"	"60.07"	"037"	n/a	n/a	n/a	n/a	n/a	n/a	"fixation"	n/a	n/a	n/a	n/a	"NULL"	n/a	"NULL"	"NULL"	"NULL"	"<p style=\"color: black; font-size: 80px; padding-left: 24%; padding-right: 46%; padding-top: 34%; padding-bottom: 7%\">+</p>"	"1125"	n/a	n/a	n/a	n/a	n/a	n/a	n/a	n/a	n/a
n/a	"image-keyboard-response"	"156"	"297113"	"0.0-5.0-2.0-1.51"	"nej63f"	"600"	"1366"	"chrome"	"110.0.0"	"FALSE"	"Windows 10"	"60.07"	"037"	n/a	n/a	n/a	n/a	n/a	n/a	"Trial"	n/a	n/a	n/a	"463"	"arrowleft"	n/a	"NULL"	"NULL"	"NULL"	"stimuli/Ebbinghaus_0.61429_0.28000.png"	n/a	"Ebbinghaus"	"arrowleft"	"1136"	"TRUE"	"Ebbinghaus"	"0.6142900000"	"0.2800000000"	"1"	"70"
n/a	"html-keyboard-response"	"157"	"298254"	"0.0-5.0-2.0-0.52"	"nej63f"	"600"	"1366"	"chrome"	"110.0.0"	"FALSE"	"Windows 10"	"60.07"	"037"	n/a	n/a	n/a	n/a	n/a	n/a	"fixation"	n/a	n/a	n/a	n/a	"NULL"	n/a	"NULL"	"NULL"	"NULL"	"<p style=\"color: black; font-size: 80px; padding-left: 39%; padding-right: 27%; padding-top: 15%; padding-bottom: 3%\">+</p>"	"1138"	n/a	n/a	n/a	n/a	n/a	n/a	n/a	n/a	n/a
n/a	"image-keyboard-response"	"158"	"298803"	"0.0-5.0-2.0-1.52"	"nej63f"	"600"	"1366"	"chrome"	"110.0.0"	"FALSE"	"Windows 10"	"60.07"	"037"	n/a	n/a	n/a	n/a	n/a	n/a	"Trial"	n/a	n/a	n/a	"549"	"arrowright"	n/a	"NULL"	"NULL"	"NULL"	"stimuli/Ebbinghaus_0.61429_-0.2800.png"	n/a	"Ebbinghaus"	"arrowright"	"1141"	"TRUE"	"Ebbinghaus"	"0.6142900000"	"-0.280000000"	"1"	"71"
n/a	"html-keyboard-response"	"159"	"299984"	"0.0-5.0-2.0-0.53"	"nej63f"	"600"	"1366"	"chrome"	"110.0.0"	"FALSE"	"Windows 10"	"60.07"	"037"	n/a	n/a	n/a	n/a	n/a	n/a	"fixation"	n/a	n/a	n/a	n/a	"NULL"	n/a	"NULL"	"NULL"	"NULL"	"<p style=\"color: black; font-size: 80px; padding-left: 37%; padding-right: 14%; padding-top: 27%; padding-bottom: 11%\">+</p>"	"1168"	n/a	n/a	n/a	n/a	n/a	n/a	n/a	n/a	n/a
n/a	"image-keyboard-response"	"160"	"300509"	"0.0-5.0-2.0-1.53"	"nej63f"	"600"	"1366"	"chrome"	"110.0.0"	"FALSE"	"Windows 10"	"60.07"	"037"	n/a	n/a	n/a	n/a	n/a	n/a	"Trial"	n/a	n/a	n/a	"524"	"arrowleft"	n/a	"NULL"	"NULL"	"NULL"	"stimuli/Ebbinghaus_0.10000_0.11071.png"	n/a	"Ebbinghaus"	"arrowleft"	"1181"	"TRUE"	"Ebbinghaus"	"0.1000000000"	"0.1107100000"	"1"	"72"
n/a	"html-keyboard-response"	"161"	"301753"	"0.0-5.0-2.0-0.54"	"nej63f"	"600"	"1366"	"chrome"	"110.0.0"	"FALSE"	"Windows 10"	"60.07"	"037"	n/a	n/a	n/a	n/a	n/a	n/a	"fixation"	n/a	n/a	n/a	n/a	"NULL"	n/a	"NULL"	"NULL"	"NULL"	"<p style=\"color: black; font-size: 80px; padding-left: 43%; padding-right: 23%; padding-top: 10%; padding-bottom: 15%\">+</p>"	"1239"	n/a	n/a	n/a	n/a	n/a	n/a	n/a	n/a	n/a
n/a	"image-keyboard-response"	"162"	"302212"	"0.0-5.0-2.0-1.54"	"nej63f"	"600"	"1366"	"chrome"	"110.0.0"	"FALSE"	"Windows 10"	"60.07"	"037"	n/a	n/a	n/a	n/a	n/a	n/a	"Trial"	n/a	n/a	n/a	"458"	"arrowleft"	n/a	"NULL"	"NULL"	"NULL"	"stimuli/Ebbinghaus_0.35714_0.11071.png"	n/a	"Ebbinghaus"	"arrowleft"	"1244"	"TRUE"	"Ebbinghaus"	"0.3571400000"	"0.1107100000"	"1"	"73"
n/a	"html-keyboard-response"	"163"	"303645"	"0.0-5.0-2.0-0.55"	"nej63f"	"600"	"1366"	"chrome"	"110.0.0"	"FALSE"	"Windows 10"	"60.07"	"037"	n/a	n/a	n/a	n/a	n/a	n/a	"fixation"	n/a	n/a	n/a	n/a	"NULL"	n/a	"NULL"	"NULL"	"NULL"	"<p style=\"color: black; font-size: 80px; padding-left: 31%; padding-right: 37%; padding-top: 26%; padding-bottom: 3%\">+</p>"	"1425"	n/a	n/a	n/a	n/a	n/a	n/a	n/a	n/a	n/a
n/a	"image-keyboard-response"	"164"	"304016"	"0.0-5.0-2.0-1.55"	"nej63f"	"600"	"1366"	"chrome"	"110.0.0"	"FALSE"	"Windows 10"	"60.07"	"037"	n/a	n/a	n/a	n/a	n/a	n/a	"Trial"	n/a	n/a	n/a	"371"	"arrowleft"	n/a	"NULL"	"NULL"	"NULL"	"stimuli/Ebbinghaus_-0.61429_0.21500.png"	n/a	"Ebbinghaus"	"arrowleft"	"1433"	"TRUE"	"Ebbinghaus"	"-0.614290000"	"0.2150000000"	"1"	"74"
n/a	"html-keyboard-response"	"165"	"305346"	"0.0-5.0-2.0-0.56"	"nej63f"	"600"	"1366"	"chrome"	"110.0.0"	"FALSE"	"Windows 10"	"60.07"	"037"	n/a	n/a	n/a	n/a	n/a	n/a	"fixation"	n/a	n/a	n/a	n/a	"NULL"	n/a	"NULL"	"NULL"	"NULL"	"<p style=\"color: black; font-size: 80px; padding-left: 14%; padding-right: 35%; padding-top: 1%; padding-bottom: 49%\">+</p>"	"1327"	n/a	n/a	n/a	n/a	n/a	n/a	n/a	n/a	n/a
n/a	"image-keyboard-response"	"166"	"306068"	"0.0-5.0-2.0-1.56"	"nej63f"	"600"	"1366"	"chrome"	"110.0.0"	"FALSE"	"Windows 10"	"60.07"	"037"	n/a	n/a	n/a	n/a	n/a	n/a	"Trial"	n/a	n/a	n/a	"722"	"arrowright"	n/a	"NULL"	"NULL"	"NULL"	"stimuli/Ebbinghaus_0.87143_-0.2150.png"	n/a	"Ebbinghaus"	"arrowright"	"1330"	"TRUE"	"Ebbinghaus"	"0.8714300000"	"-0.215000000"	"1"	"75"
n/a	"html-keyboard-response"	"167"	"307478"	"0.0-5.0-2.0-0.57"	"nej63f"	"600"	"1366"	"chrome"	"110.0.0"	"FALSE"	"Windows 10"	"60.07"	"037"	n/a	n/a	n/a	n/a	n/a	n/a	"fixation"	n/a	n/a	n/a	n/a	"NULL"	n/a	"NULL"	"NULL"	"NULL"	"<p style=\"color: black; font-size: 80px; padding-left: 38%; padding-right: 16%; padding-top: 13%; padding-bottom: 42%\">+</p>"	"1394"	n/a	n/a	n/a	n/a	n/a	n/a	n/a	n/a	n/a
n/a	"image-keyboard-response"	"168"	"308056"	"0.0-5.0-2.0-1.57"	"nej63f"	"600"	"1366"	"chrome"	"110.0.0"	"FALSE"	"Windows 10"	"60.07"	"037"	n/a	n/a	n/a	n/a	n/a	n/a	"Trial"	n/a	n/a	n/a	"578"	"arrowright"	n/a	"NULL"	"NULL"	"NULL"	"stimuli/Ebbinghaus_-0.61429_0.28000.png"	n/a	"Ebbinghaus"	"arrowleft"	"1410"	"FALSE"	"Ebbinghaus"	"-0.614290000"	"0.2800000000"	"1"	"76"
n/a	"html-keyboard-response"	"169"	"309553"	"0.0-5.0-2.0-0.58"	"nej63f"	"600"	"1366"	"chrome"	"110.0.0"	"FALSE"	"Windows 10"	"60.07"	"037"	n/a	n/a	n/a	n/a	n/a	n/a	"fixation"	n/a	n/a	n/a	n/a	"NULL"	n/a	"NULL"	"NULL"	"NULL"	"<p style=\"color: black; font-size: 80px; padding-left: 18%; padding-right: 30%; padding-top: 47%; padding-bottom: 25%\">+</p>"	"1491"	n/a	n/a	n/a	n/a	n/a	n/a	n/a	n/a	n/a
n/a	"image-keyboard-response"	"170"	"310099"	"0.0-5.0-2.0-1.58"	"nej63f"	"600"	"1366"	"chrome"	"110.0.0"	"FALSE"	"Windows 10"	"60.07"	"037"	n/a	n/a	n/a	n/a	n/a	n/a	"Trial"	n/a	n/a	n/a	"545"	"arrowleft"	n/a	"NULL"	"NULL"	"NULL"	"stimuli/Ebbinghaus_-0.61429_-0.2800.png"	n/a	"Ebbinghaus"	"arrowright"	"1497"	"FALSE"	"Ebbinghaus"	"-0.614290000"	"-0.280000000"	"1"	"77"
n/a	"html-keyboard-response"	"171"	"311223"	"0.0-5.0-2.0-0.59"	"nej63f"	"600"	"1366"	"chrome"	"110.0.0"	"FALSE"	"Windows 10"	"60.07"	"037"	n/a	n/a	n/a	n/a	n/a	n/a	"fixation"	n/a	n/a	n/a	n/a	"NULL"	n/a	"NULL"	"NULL"	"NULL"	"<p style=\"color: black; font-size: 80px; padding-left: 12%; padding-right: 32%; padding-top: 22%; padding-bottom: 18%\">+</p>"	"1109"	n/a	n/a	n/a	n/a	n/a	n/a	n/a	n/a	n/a
n/a	"image-keyboard-response"	"172"	"311748"	"0.0-5.0-2.0-1.59"	"nej63f"	"600"	"1366"	"chrome"	"110.0.0"	"FALSE"	"Windows 10"	"60.07"	"037"	n/a	n/a	n/a	n/a	n/a	n/a	"Trial"	n/a	n/a	n/a	"525"	"arrowright"	n/a	"NULL"	"NULL"	"NULL"	"stimuli/Ebbinghaus_-0.87143_0.21500.png"	n/a	"Ebbinghaus"	"arrowleft"	"1124"	"FALSE"	"Ebbinghaus"	"-0.871430000"	"0.2150000000"	"1"	"78"
n/a	"html-keyboard-response"	"173"	"313149"	"0.0-5.0-2.0-0.60"	"nej63f"	"600"	"1366"	"chrome"	"110.0.0"	"FALSE"	"Windows 10"	"60.07"	"037"	n/a	n/a	n/a	n/a	n/a	n/a	"fixation"	n/a	n/a	n/a	n/a	"NULL"	n/a	"NULL"	"NULL"	"NULL"	"<p style=\"color: black; font-size: 80px; padding-left: 4%; padding-right: 2%; padding-top: 48%; padding-bottom: 14%\">+</p>"	"1396"	n/a	n/a	n/a	n/a	n/a	n/a	n/a	n/a	n/a
n/a	"image-keyboard-response"	"174"	"313676"	"0.0-5.0-2.0-1.60"	"nej63f"	"600"	"1366"	"chrome"	"110.0.0"	"FALSE"	"Windows 10"	"60.07"	"037"	n/a	n/a	n/a	n/a	n/a	n/a	"Trial"	n/a	n/a	n/a	"526"	"arrowleft"	n/a	"NULL"	"NULL"	"NULL"	"stimuli/Ebbinghaus_0.87143_0.15857.png"	n/a	"Ebbinghaus"	"arrowleft"	"1401"	"TRUE"	"Ebbinghaus"	"0.8714300000"	"0.1585700000"	"1"	"79"
n/a	"html-keyboard-response"	"175"	"314972"	"0.0-5.0-2.0-0.61"	"nej63f"	"600"	"1366"	"chrome"	"110.0.0"	"FALSE"	"Windows 10"	"60.07"	"037"	n/a	n/a	n/a	n/a	n/a	n/a	"fixation"	n/a	n/a	n/a	n/a	"NULL"	n/a	"NULL"	"NULL"	"NULL"	"<p style=\"color: black; font-size: 80px; padding-left: 4%; padding-right: 17%; padding-top: 39%; padding-bottom: 33%\">+</p>"	"1293"	n/a	n/a	n/a	n/a	n/a	n/a	n/a	n/a	n/a
n/a	"image-keyboard-response"	"176"	"315493"	"0.0-5.0-2.0-1.61"	"nej63f"	"600"	"1366"	"chrome"	"110.0.0"	"FALSE"	"Windows 10"	"60.07"	"037"	n/a	n/a	n/a	n/a	n/a	n/a	"Trial"	n/a	n/a	n/a	"520"	"arrowright"	n/a	"NULL"	"NULL"	"NULL"	"stimuli/Ebbinghaus_0.10000_-0.2150.png"	n/a	"Ebbinghaus"	"arrowright"	"1296"	"TRUE"	"Ebbinghaus"	"0.1000000000"	"-0.215000000"	"1"	"80"
n/a	"html-keyboard-response"	"177"	"316589"	"0.0-5.0-2.0-0.62"	"nej63f"	"600"	"1366"	"chrome"	"110.0.0"	"FALSE"	"Windows 10"	"60.07"	"037"	n/a	n/a	n/a	n/a	n/a	n/a	"fixation"	n/a	n/a	n/a	n/a	"NULL"	n/a	"NULL"	"NULL"	"NULL"	"<p style=\"color: black; font-size: 80px; padding-left: 50%; padding-right: 10%; padding-top: 21%; padding-bottom: 19%\">+</p>"	"1082"	n/a	n/a	n/a	n/a	n/a	n/a	n/a	n/a	n/a
n/a	"image-keyboard-response"	"178"	"317122"	"0.0-5.0-2.0-1.62"	"nej63f"	"600"	"1366"	"chrome"	"110.0.0"	"FALSE"	"Windows 10"	"60.07"	"037"	n/a	n/a	n/a	n/a	n/a	n/a	"Trial"	n/a	n/a	n/a	"533"	"arrowright"	n/a	"NULL"	"NULL"	"NULL"	"stimuli/Ebbinghaus_-0.35714_0.21500.png"	n/a	"Ebbinghaus"	"arrowleft"	"1096"	"FALSE"	"Ebbinghaus"	"-0.357140000"	"0.2150000000"	"1"	"81"
n/a	"html-keyboard-response"	"179"	"318185"	"0.0-5.0-2.0-0.63"	"nej63f"	"600"	"1366"	"chrome"	"110.0.0"	"FALSE"	"Windows 10"	"60.07"	"037"	n/a	n/a	n/a	n/a	n/a	n/a	"fixation"	n/a	n/a	n/a	n/a	"NULL"	n/a	"NULL"	"NULL"	"NULL"	"<p style=\"color: black; font-size: 80px; padding-left: 14%; padding-right: 49%; padding-top: 19%; padding-bottom: 34%\">+</p>"	"1051"	n/a	n/a	n/a	n/a	n/a	n/a	n/a	n/a	n/a
n/a	"image-keyboard-response"	"180"	"318644"	"0.0-5.0-2.0-1.63"	"nej63f"	"600"	"1366"	"chrome"	"110.0.0"	"FALSE"	"Windows 10"	"60.07"	"037"	n/a	n/a	n/a	n/a	n/a	n/a	"Trial"	n/a	n/a	n/a	"459"	"arrowright"	n/a	"NULL"	"NULL"	"NULL"	"stimuli/Ebbinghaus_0.61429_-0.15857.png"	n/a	"Ebbinghaus"	"arrowright"	"1063"	"TRUE"	"Ebbinghaus"	"0.6142900000"	"-0.158570000"	"1"	"82"
n/a	"html-button-response"	"181"	"336490"	"0.0-5.0-3.0"	"nej63f"	"600"	"1366"	"chrome"	"110.0.0"	"FALSE"	"Windows 10"	"60.07"	"037"	n/a	n/a	n/a	n/a	n/a	n/a	"block_results"	n/a	n/a	n/a	"17844"	"0"	n/a	"NULL"	"NULL"	"NULL"	"<p>Your score for this illusion is <p style=\"color: black; font-size: 48px; font-weight: bold;\">74.6 %</p><hr><p>Can you do better in the next illusion?</p>"	n/a	n/a	n/a	n/a	n/a	n/a	n/a	n/a	n/a	n/a
"TRUE"	"preload"	"182"	"336650"	"0.0-6.0-0.0"	"nej63f"	"600"	"1366"	"chrome"	"110.0.0"	"FALSE"	"Windows 10"	"60.07"	"037"	n/a	n/a	n/a	n/a	n/a	n/a	n/a	n/a	n/a	n/a	n/a	"NULL"	"FALSE"	"list()"	"list()"	"list()"	n/a	n/a	n/a	n/a	n/a	n/a	n/a	n/a	n/a	n/a	n/a
n/a	"html-keyboard-response"	"183"	"342823"	"0.0-6.0-1.0"	"nej63f"	"600"	"1366"	"chrome"	"110.0.0"	"FALSE"	"Windows 10"	"60.07"	"037"	n/a	n/a	n/a	n/a	n/a	n/a	n/a	n/a	n/a	n/a	"6172"	"enter"	n/a	"NULL"	"NULL"	"NULL"	"<p><b>Part 2/6</b></p><p>In this part, two horizontal red lines will appear one above the other.</p><p>Your task is to select which <b>line is longer</b> in length as fast as you can, without making errors.</p><p>Don't get distracted by the surrounding black arrows at the end of the red lines!</p><p>Press <b>the UP or the DOWN arrow</b> to indicate where is the longer <b>red line.</b></p><div style='float: center'><img src='materials/instructions/MullerLyer_Demo.png' height='300'></img><p><img src='utils/answer/answer_updown_keyboard.PNG' height='150'></img></p><p class='small'>In this example, the correct answer is the <b>UP arrow</b>.</p></div><p>Are you ready? <b>Press ENTER to start</b></p>"	n/a	n/a	n/a	n/a	n/a	n/a	n/a	n/a	n/a	n/a
n/a	"html-keyboard-response"	"184"	"344684"	"0.0-6.0-2.0-0.0"	"nej63f"	"600"	"1366"	"chrome"	"110.0.0"	"FALSE"	"Windows 10"	"60.07"	"037"	n/a	n/a	n/a	n/a	n/a	n/a	"fixation"	n/a	n/a	n/a	n/a	"NULL"	n/a	"NULL"	"NULL"	"NULL"	"<p style=\"color: black; font-size: 80px; padding-left: 4%; padding-right: 28%; padding-top: 45%; padding-bottom: 50%\">+</p>"	"1343"	n/a	n/a	n/a	n/a	n/a	n/a	n/a	n/a	n/a
n/a	"image-keyboard-response"	"185"	"345282"	"0.0-6.0-2.0-1.0"	"nej63f"	"600"	"1366"	"chrome"	"110.0.0"	"FALSE"	"Windows 10"	"60.07"	"037"	n/a	n/a	n/a	n/a	n/a	n/a	"Trial"	n/a	n/a	n/a	"598"	"arrowdown"	n/a	"NULL"	"NULL"	"NULL"	"stimuli/MullerLyer_14.12857_0.07627.png"	n/a	"MullerLyer"	"arrowup"	"1861"	"FALSE"	"MullerLyer"	"14.128570000"	"0.0762700000"	"2"	"1"
n/a	"html-keyboard-response"	"186"	"346610"	"0.0-6.0-2.0-0.1"	"nej63f"	"600"	"1366"	"chrome"	"110.0.0"	"FALSE"	"Windows 10"	"60.07"	"037"	n/a	n/a	n/a	n/a	n/a	n/a	"fixation"	n/a	n/a	n/a	n/a	"NULL"	n/a	"NULL"	"NULL"	"NULL"	"<p style=\"color: black; font-size: 80px; padding-left: 21%; padding-right: 46%; padding-top: 44%; padding-bottom: 28%\">+</p>"	"1319"	n/a	n/a	n/a	n/a	n/a	n/a	n/a	n/a	n/a
n/a	"image-keyboard-response"	"187"	"347104"	"0.0-6.0-2.0-1.1"	"nej63f"	"600"	"1366"	"chrome"	"110.0.0"	"FALSE"	"Windows 10"	"60.07"	"037"	n/a	n/a	n/a	n/a	n/a	n/a	"Trial"	n/a	n/a	n/a	"494"	"arrowup"	n/a	"NULL"	"NULL"	"NULL"	"stimuli/MullerLyer_2.30000_0.35000.png"	n/a	"MullerLyer"	"arrowup"	"1328"	"TRUE"	"MullerLyer"	"2.3000000000"	"0.3500000000"	"2"	"2"
n/a	"html-keyboard-response"	"188"	"348497"	"0.0-6.0-2.0-0.2"	"nej63f"	"600"	"1366"	"chrome"	"110.0.0"	"FALSE"	"Windows 10"	"60.07"	"037"	n/a	n/a	n/a	n/a	n/a	n/a	"fixation"	n/a	n/a	n/a	n/a	"NULL"	n/a	"NULL"	"NULL"	"NULL"	"<p style=\"color: black; font-size: 80px; padding-left: 29%; padding-right: 36%; padding-top: 0%; padding-bottom: 22%\">+</p>"	"1392"	n/a	n/a	n/a	n/a	n/a	n/a	n/a	n/a	n/a
n/a	"image-keyboard-response"	"189"	"349040"	"0.0-6.0-2.0-1.2"	"nej63f"	"600"	"1366"	"chrome"	"110.0.0"	"FALSE"	"Windows 10"	"60.07"	"037"	n/a	n/a	n/a	n/a	n/a	n/a	"Trial"	n/a	n/a	n/a	"542"	"arrowup"	n/a	"NULL"	"NULL"	"NULL"	"stimuli/MullerLyer_-14.12857_0.35000.png"	n/a	"MullerLyer"	"arrowup"	"1393"	"TRUE"	"MullerLyer"	"-14.12857000"	"0.3500000000"	"2"	"3"
n/a	"html-keyboard-response"	"190"	"350174"	"0.0-6.0-2.0-0.3"	"nej63f"	"600"	"1366"	"chrome"	"110.0.0"	"FALSE"	"Windows 10"	"60.07"	"037"	n/a	n/a	n/a	n/a	n/a	n/a	"fixation"	n/a	n/a	n/a	n/a	"NULL"	n/a	"NULL"	"NULL"	"NULL"	"<p style=\"color: black; font-size: 80px; padding-left: 6%; padding-right: 42%; padding-top: 35%; padding-bottom: 33%\">+</p>"	"1128"	n/a	n/a	n/a	n/a	n/a	n/a	n/a	n/a	n/a
n/a	"image-keyboard-response"	"191"	"350831"	"0.0-6.0-2.0-1.3"	"nej63f"	"600"	"1366"	"chrome"	"110.0.0"	"FALSE"	"Windows 10"	"60.07"	"037"	n/a	n/a	n/a	n/a	n/a	n/a	"Trial"	n/a	n/a	n/a	"657"	"arrowdown"	n/a	"NULL"	"NULL"	"NULL"	"stimuli/MullerLyer_-2.3000_-0.07627.png"	n/a	"MullerLyer"	"arrowdown"	"1134"	"TRUE"	"MullerLyer"	"-2.300000000"	"-0.076270000"	"2"	"4"
n/a	"html-keyboard-response"	"192"	"352192"	"0.0-6.0-2.0-0.4"	"nej63f"	"600"	"1366"	"chrome"	"110.0.0"	"FALSE"	"Windows 10"	"60.07"	"037"	n/a	n/a	n/a	n/a	n/a	n/a	"fixation"	n/a	n/a	n/a	n/a	"NULL"	n/a	"NULL"	"NULL"	"NULL"	"<p style=\"color: black; font-size: 80px; padding-left: 29%; padding-right: 50%; padding-top: 46%; padding-bottom: 37%\">+</p>"	"1358"	n/a	n/a	n/a	n/a	n/a	n/a	n/a	n/a	n/a
n/a	"image-keyboard-response"	"193"	"352625"	"0.0-6.0-2.0-1.4"	"nej63f"	"600"	"1366"	"chrome"	"110.0.0"	"FALSE"	"Windows 10"	"60.07"	"037"	n/a	n/a	n/a	n/a	n/a	n/a	"Trial"	n/a	n/a	n/a	"433"	"arrowup"	n/a	"NULL"	"NULL"	"NULL"	"stimuli/MullerLyer_20.04286_-0.14541.png"	n/a	"MullerLyer"	"arrowdown"	"1361"	"FALSE"	"MullerLyer"	"20.042860000"	"-0.145410000"	"2"	"5"
n/a	"html-keyboard-response"	"194"	"353970"	"0.0-6.0-2.0-0.5"	"nej63f"	"600"	"1366"	"chrome"	"110.0.0"	"FALSE"	"Windows 10"	"60.07"	"037"	n/a	n/a	n/a	n/a	n/a	n/a	"fixation"	n/a	n/a	n/a	n/a	"NULL"	n/a	"NULL"	"NULL"	"NULL"	"<p style=\"color: black; font-size: 80px; padding-left: 30%; padding-right: 36%; padding-top: 8%; padding-bottom: 29%\">+</p>"	"1342"	n/a	n/a	n/a	n/a	n/a	n/a	n/a	n/a	n/a
n/a	"image-keyboard-response"	"195"	"354594"	"0.0-6.0-2.0-1.5"	"nej63f"	"600"	"1366"	"chrome"	"110.0.0"	"FALSE"	"Windows 10"	"60.07"	"037"	n/a	n/a	n/a	n/a	n/a	n/a	"Trial"	n/a	n/a	n/a	"623"	"arrowdown"	n/a	"NULL"	"NULL"	"NULL"	"stimuli/MullerLyer_14.12857_0.23665.png"	n/a	"MullerLyer"	"arrowup"	"1345"	"FALSE"	"MullerLyer"	"14.128570000"	"0.2366500000"	"2"	"6"
n/a	"html-keyboard-response"	"196"	"355971"	"0.0-6.0-2.0-0.6"	"nej63f"	"600"	"1366"	"chrome"	"110.0.0"	"FALSE"	"Windows 10"	"60.07"	"037"	n/a	n/a	n/a	n/a	n/a	n/a	"fixation"	n/a	n/a	n/a	n/a	"NULL"	n/a	"NULL"	"NULL"	"NULL"	"<p style=\"color: black; font-size: 80px; padding-left: 41%; padding-right: 15%; padding-top: 24%; padding-bottom: 1%\">+</p>"	"1366"	n/a	n/a	n/a	n/a	n/a	n/a	n/a	n/a	n/a
n/a	"image-keyboard-response"	"197"	"356483"	"0.0-6.0-2.0-1.6"	"nej63f"	"600"	"1366"	"chrome"	"110.0.0"	"FALSE"	"Windows 10"	"60.07"	"037"	n/a	n/a	n/a	n/a	n/a	n/a	"Trial"	n/a	n/a	n/a	"511"	"arrowdown"	n/a	"NULL"	"NULL"	"NULL"	"stimuli/MullerLyer_-20.04286_-0.14541.png"	n/a	"MullerLyer"	"arrowdown"	"1377"	"TRUE"	"MullerLyer"	"-20.04286000"	"-0.145410000"	"2"	"7"
n/a	"html-keyboard-response"	"198"	"357753"	"0.0-6.0-2.0-0.7"	"nej63f"	"600"	"1366"	"chrome"	"110.0.0"	"FALSE"	"Windows 10"	"60.07"	"037"	n/a	n/a	n/a	n/a	n/a	n/a	"fixation"	n/a	n/a	n/a	n/a	"NULL"	n/a	"NULL"	"NULL"	"NULL"	"<p style=\"color: black; font-size: 80px; padding-left: 20%; padding-right: 5%; padding-top: 6%; padding-bottom: 22%\">+</p>"	"1263"	n/a	n/a	n/a	n/a	n/a	n/a	n/a	n/a	n/a
n/a	"image-keyboard-response"	"199"	"358375"	"0.0-6.0-2.0-1.7"	"nej63f"	"600"	"1366"	"chrome"	"110.0.0"	"FALSE"	"Windows 10"	"60.07"	"037"	n/a	n/a	n/a	n/a	n/a	n/a	"Trial"	n/a	n/a	n/a	"622"	"arrowdown"	n/a	"NULL"	"NULL"	"NULL"	"stimuli/MullerLyer_2.30000_-0.14541.png"	n/a	"MullerLyer"	"arrowdown"	"1270"	"TRUE"	"MullerLyer"	"2.3000000000"	"-0.145410000"	"2"	"8"
n/a	"html-keyboard-response"	"200"	"359673"	"0.0-6.0-2.0-0.8"	"nej63f"	"600"	"1366"	"chrome"	"110.0.0"	"FALSE"	"Windows 10"	"60.07"	"037"	n/a	n/a	n/a	n/a	n/a	n/a	"fixation"	n/a	n/a	n/a	n/a	"NULL"	n/a	"NULL"	"NULL"	"NULL"	"<p style=\"color: black; font-size: 80px; padding-left: 7%; padding-right: 44%; padding-top: 26%; padding-bottom: 28%\">+</p>"	"1288"	n/a	n/a	n/a	n/a	n/a	n/a	n/a	n/a	n/a
n/a	"image-keyboard-response"	"201"	"360183"	"0.0-6.0-2.0-1.8"	"nej63f"	"600"	"1366"	"chrome"	"110.0.0"	"FALSE"	"Windows 10"	"60.07"	"037"	n/a	n/a	n/a	n/a	n/a	n/a	"Trial"	n/a	n/a	n/a	"509"	"arrowdown"	n/a	"NULL"	"NULL"	"NULL"	"stimuli/MullerLyer_2.30000_-0.07627.png"	n/a	"MullerLyer"	"arrowdown"	"1298"	"TRUE"	"MullerLyer"	"2.3000000000"	"-0.076270000"	"2"	"9"
n/a	"html-keyboard-response"	"202"	"361378"	"0.0-6.0-2.0-0.9"	"nej63f"	"600"	"1366"	"chrome"	"110.0.0"	"FALSE"	"Windows 10"	"60.07"	"037"	n/a	n/a	n/a	n/a	n/a	n/a	"fixation"	n/a	n/a	n/a	n/a	"NULL"	n/a	"NULL"	"NULL"	"NULL"	"<p style=\"color: black; font-size: 80px; padding-left: 28%; padding-right: 23%; padding-top: 28%; padding-bottom: 35%\">+</p>"	"1182"	n/a	n/a	n/a	n/a	n/a	n/a	n/a	n/a	n/a
n/a	"image-keyboard-response"	"203"	"361832"	"0.0-6.0-2.0-1.9"	"nej63f"	"600"	"1366"	"chrome"	"110.0.0"	"FALSE"	"Windows 10"	"60.07"	"037"	n/a	n/a	n/a	n/a	n/a	n/a	"Trial"	n/a	n/a	n/a	"453"	"arrowup"	n/a	"NULL"	"NULL"	"NULL"	"stimuli/MullerLyer_-20.04286_0.07627.png"	n/a	"MullerLyer"	"arrowup"	"1195"	"TRUE"	"MullerLyer"	"-20.04286000"	"0.0762700000"	"2"	"10"
n/a	"html-keyboard-response"	"204"	"363026"	"0.0-6.0-2.0-0.10"	"nej63f"	"600"	"1366"	"chrome"	"110.0.0"	"FALSE"	"Windows 10"	"60.07"	"037"	n/a	n/a	n/a	n/a	n/a	n/a	"fixation"	n/a	n/a	n/a	n/a	"NULL"	n/a	"NULL"	"NULL"	"NULL"	"<p style=\"color: black; font-size: 80px; padding-left: 18%; padding-right: 40%; padding-top: 36%; padding-bottom: 28%\">+</p>"	"1185"	n/a	n/a	n/a	n/a	n/a	n/a	n/a	n/a	n/a
n/a	"image-keyboard-response"	"205"	"363435"	"0.0-6.0-2.0-1.10"	"nej63f"	"600"	"1366"	"chrome"	"110.0.0"	"FALSE"	"Windows 10"	"60.07"	"037"	n/a	n/a	n/a	n/a	n/a	n/a	"Trial"	n/a	n/a	n/a	"409"	"arrowup"	n/a	"NULL"	"NULL"	"NULL"	"stimuli/MullerLyer_8.21429_0.07627.png"	n/a	"MullerLyer"	"arrowup"	"1194"	"TRUE"	"MullerLyer"	"8.2142900000"	"0.0762700000"	"2"	"11"
n/a	"html-keyboard-response"	"206"	"364830"	"0.0-6.0-2.0-0.11"	"nej63f"	"600"	"1366"	"chrome"	"110.0.0"	"FALSE"	"Windows 10"	"60.07"	"037"	n/a	n/a	n/a	n/a	n/a	n/a	"fixation"	n/a	n/a	n/a	n/a	"NULL"	n/a	"NULL"	"NULL"	"NULL"	"<p style=\"color: black; font-size: 80px; padding-left: 31%; padding-right: 13%; padding-top: 22%; padding-bottom: 11%\">+</p>"	"1381"	n/a	n/a	n/a	n/a	n/a	n/a	n/a	n/a	n/a
n/a	"image-keyboard-response"	"207"	"365406"	"0.0-6.0-2.0-1.11"	"nej63f"	"600"	"1366"	"chrome"	"110.0.0"	"FALSE"	"Windows 10"	"60.07"	"037"	n/a	n/a	n/a	n/a	n/a	n/a	"Trial"	n/a	n/a	n/a	"575"	"arrowup"	n/a	"NULL"	"NULL"	"NULL"	"stimuli/MullerLyer_14.12857_-0.07627.png"	n/a	"MullerLyer"	"arrowdown"	"1395"	"FALSE"	"MullerLyer"	"14.128570000"	"-0.076270000"	"2"	"12"
n/a	"html-keyboard-response"	"208"	"366885"	"0.0-6.0-2.0-0.12"	"nej63f"	"600"	"1366"	"chrome"	"110.0.0"	"FALSE"	"Windows 10"	"60.07"	"037"	n/a	n/a	n/a	n/a	n/a	n/a	"fixation"	n/a	n/a	n/a	n/a	"NULL"	n/a	"NULL"	"NULL"	"NULL"	"<p style=\"color: black; font-size: 80px; padding-left: 18%; padding-right: 1%; padding-top: 46%; padding-bottom: 26%\">+</p>"	"1468"	n/a	n/a	n/a	n/a	n/a	n/a	n/a	n/a	n/a
n/a	"image-keyboard-response"	"209"	"367398"	"0.0-6.0-2.0-1.12"	"nej63f"	"600"	"1366"	"chrome"	"110.0.0"	"FALSE"	"Windows 10"	"60.07"	"037"	n/a	n/a	n/a	n/a	n/a	n/a	"Trial"	n/a	n/a	n/a	"513"	"arrowdown"	n/a	"NULL"	"NULL"	"NULL"	"stimuli/MullerLyer_-8.21429_-0.3500.png"	n/a	"MullerLyer"	"arrowdown"	"1479"	"TRUE"	"MullerLyer"	"-8.214290000"	"-0.350000000"	"2"	"13"
n/a	"html-keyboard-response"	"210"	"368550"	"0.0-6.0-2.0-0.13"	"nej63f"	"600"	"1366"	"chrome"	"110.0.0"	"FALSE"	"Windows 10"	"60.07"	"037"	n/a	n/a	n/a	n/a	n/a	n/a	"fixation"	n/a	n/a	n/a	n/a	"NULL"	n/a	"NULL"	"NULL"	"NULL"	"<p style=\"color: black; font-size: 80px; padding-left: 20%; padding-right: 14%; padding-top: 19%; padding-bottom: 12%\">+</p>"	"1140"	n/a	n/a	n/a	n/a	n/a	n/a	n/a	n/a	n/a
n/a	"image-keyboard-response"	"211"	"369231"	"0.0-6.0-2.0-1.13"	"nej63f"	"600"	"1366"	"chrome"	"110.0.0"	"FALSE"	"Windows 10"	"60.07"	"037"	n/a	n/a	n/a	n/a	n/a	n/a	"Trial"	n/a	n/a	n/a	"681"	"arrowup"	n/a	"NULL"	"NULL"	"NULL"	"stimuli/MullerLyer_20.04286_-0.3500.png"	n/a	"MullerLyer"	"arrowdown"	"1152"	"FALSE"	"MullerLyer"	"20.042860000"	"-0.350000000"	"2"	"14"
n/a	"html-keyboard-response"	"212"	"370641"	"0.0-6.0-2.0-0.14"	"nej63f"	"600"	"1366"	"chrome"	"110.0.0"	"FALSE"	"Windows 10"	"60.07"	"037"	n/a	n/a	n/a	n/a	n/a	n/a	"fixation"	n/a	n/a	n/a	n/a	"NULL"	n/a	"NULL"	"NULL"	"NULL"	"<p style=\"color: black; font-size: 80px; padding-left: 35%; padding-right: 23%; padding-top: 22%; padding-bottom: 23%\">+</p>"	"1397"	n/a	n/a	n/a	n/a	n/a	n/a	n/a	n/a	n/a
n/a	"image-keyboard-response"	"213"	"371281"	"0.0-6.0-2.0-1.14"	"nej63f"	"600"	"1366"	"chrome"	"110.0.0"	"FALSE"	"Windows 10"	"60.07"	"037"	n/a	n/a	n/a	n/a	n/a	n/a	"Trial"	n/a	n/a	n/a	"639"	"arrowup"	n/a	"NULL"	"NULL"	"NULL"	"stimuli/MullerLyer_-2.3000_0.23665.png"	n/a	"MullerLyer"	"arrowup"	"1410"	"TRUE"	"MullerLyer"	"-2.300000000"	"0.2366500000"	"2"	"15"
n/a	"html-keyboard-response"	"214"	"372746"	"0.0-6.0-2.0-0.15"	"nej63f"	"600"	"1366"	"chrome"	"110.0.0"	"FALSE"	"Windows 10"	"60.07"	"037"	n/a	n/a	n/a	n/a	n/a	n/a	"fixation"	n/a	n/a	n/a	n/a	"NULL"	n/a	"NULL"	"NULL"	"NULL"	"<p style=\"color: black; font-size: 80px; padding-left: 8%; padding-right: 12%; padding-top: 0%; padding-bottom: 49%\">+</p>"	"1461"	n/a	n/a	n/a	n/a	n/a	n/a	n/a	n/a	n/a
n/a	"image-keyboard-response"	"215"	"373222"	"0.0-6.0-2.0-1.15"	"nej63f"	"600"	"1366"	"chrome"	"110.0.0"	"FALSE"	"Windows 10"	"60.07"	"037"	n/a	n/a	n/a	n/a	n/a	n/a	"Trial"	n/a	n/a	n/a	"475"	"arrowup"	n/a	"NULL"	"NULL"	"NULL"	"stimuli/MullerLyer_2.30000_0.23665.png"	n/a	"MullerLyer"	"arrowup"	"1465"	"TRUE"	"MullerLyer"	"2.3000000000"	"0.2366500000"	"2"	"16"
n/a	"html-keyboard-response"	"216"	"374362"	"0.0-6.0-2.0-0.16"	"nej63f"	"600"	"1366"	"chrome"	"110.0.0"	"FALSE"	"Windows 10"	"60.07"	"037"	n/a	n/a	n/a	n/a	n/a	n/a	"fixation"	n/a	n/a	n/a	n/a	"NULL"	n/a	"NULL"	"NULL"	"NULL"	"<p style=\"color: black; font-size: 80px; padding-left: 2%; padding-right: 21%; padding-top: 35%; padding-bottom: 31%\">+</p>"	"1134"	n/a	n/a	n/a	n/a	n/a	n/a	n/a	n/a	n/a
n/a	"image-keyboard-response"	"217"	"374962"	"0.0-6.0-2.0-1.16"	"nej63f"	"600"	"1366"	"chrome"	"110.0.0"	"FALSE"	"Windows 10"	"60.07"	"037"	n/a	n/a	n/a	n/a	n/a	n/a	"Trial"	n/a	n/a	n/a	"599"	"arrowup"	n/a	"NULL"	"NULL"	"NULL"	"stimuli/MullerLyer_14.12857_-0.14541.png"	n/a	"MullerLyer"	"arrowdown"	"1140"	"FALSE"	"MullerLyer"	"14.128570000"	"-0.145410000"	"2"	"17"
n/a	"html-keyboard-response"	"218"	"376306"	"0.0-6.0-2.0-0.17"	"nej63f"	"600"	"1366"	"chrome"	"110.0.0"	"FALSE"	"Windows 10"	"60.07"	"037"	n/a	n/a	n/a	n/a	n/a	n/a	"fixation"	n/a	n/a	n/a	n/a	"NULL"	n/a	"NULL"	"NULL"	"NULL"	"<p style=\"color: black; font-size: 80px; padding-left: 9%; padding-right: 1%; padding-top: 10%; padding-bottom: 22%\">+</p>"	"1336"	n/a	n/a	n/a	n/a	n/a	n/a	n/a	n/a	n/a
n/a	"image-keyboard-response"	"219"	"376888"	"0.0-6.0-2.0-1.17"	"nej63f"	"600"	"1366"	"chrome"	"110.0.0"	"FALSE"	"Windows 10"	"60.07"	"037"	n/a	n/a	n/a	n/a	n/a	n/a	"Trial"	n/a	n/a	n/a	"581"	"arrowup"	n/a	"NULL"	"NULL"	"NULL"	"stimuli/MullerLyer_-8.21429_0.23665.png"	n/a	"MullerLyer"	"arrowup"	"1344"	"TRUE"	"MullerLyer"	"-8.214290000"	"0.2366500000"	"2"	"18"
n/a	"html-keyboard-response"	"220"	"378313"	"0.0-6.0-2.0-0.18"	"nej63f"	"600"	"1366"	"chrome"	"110.0.0"	"FALSE"	"Windows 10"	"60.07"	"037"	n/a	n/a	n/a	n/a	n/a	n/a	"fixation"	n/a	n/a	n/a	n/a	"NULL"	n/a	"NULL"	"NULL"	"NULL"	"<p style=\"color: black; font-size: 80px; padding-left: 13%; padding-right: 4%; padding-top: 36%; padding-bottom: 9%\">+</p>"	"1418"	n/a	n/a	n/a	n/a	n/a	n/a	n/a	n/a	n/a
n/a	"image-keyboard-response"	"221"	"378864"	"0.0-6.0-2.0-1.18"	"nej63f"	"600"	"1366"	"chrome"	"110.0.0"	"FALSE"	"Windows 10"	"60.07"	"037"	n/a	n/a	n/a	n/a	n/a	n/a	"Trial"	n/a	n/a	n/a	"550"	"arrowup"	n/a	"NULL"	"NULL"	"NULL"	"stimuli/MullerLyer_14.12857_0.35000.png"	n/a	"MullerLyer"	"arrowup"	"1425"	"TRUE"	"MullerLyer"	"14.128570000"	"0.3500000000"	"2"	"19"
n/a	"html-keyboard-response"	"222"	"380087"	"0.0-6.0-2.0-0.19"	"nej63f"	"600"	"1366"	"chrome"	"110.0.0"	"FALSE"	"Windows 10"	"60.07"	"037"	n/a	n/a	n/a	n/a	n/a	n/a	"fixation"	n/a	n/a	n/a	n/a	"NULL"	n/a	"NULL"	"NULL"	"NULL"	"<p style=\"color: black; font-size: 80px; padding-left: 7%; padding-right: 7%; padding-top: 39%; padding-bottom: 30%\">+</p>"	"1209"	n/a	n/a	n/a	n/a	n/a	n/a	n/a	n/a	n/a
n/a	"image-keyboard-response"	"223"	"380678"	"0.0-6.0-2.0-1.19"	"nej63f"	"600"	"1366"	"chrome"	"110.0.0"	"FALSE"	"Windows 10"	"60.07"	"037"	n/a	n/a	n/a	n/a	n/a	n/a	"Trial"	n/a	n/a	n/a	"590"	"arrowup"	n/a	"NULL"	"NULL"	"NULL"	"stimuli/MullerLyer_20.04286_-0.07627.png"	n/a	"MullerLyer"	"arrowdown"	"1223"	"FALSE"	"MullerLyer"	"20.042860000"	"-0.076270000"	"2"	"20"
n/a	"html-keyboard-response"	"224"	"381833"	"0.0-6.0-2.0-0.20"	"nej63f"	"600"	"1366"	"chrome"	"110.0.0"	"FALSE"	"Windows 10"	"60.07"	"037"	n/a	n/a	n/a	n/a	n/a	n/a	"fixation"	n/a	n/a	n/a	n/a	"NULL"	n/a	"NULL"	"NULL"	"NULL"	"<p style=\"color: black; font-size: 80px; padding-left: 31%; padding-right: 5%; padding-top: 27%; padding-bottom: 9%\">+</p>"	"1140"	n/a	n/a	n/a	n/a	n/a	n/a	n/a	n/a	n/a
n/a	"image-keyboard-response"	"225"	"382769"	"0.0-6.0-2.0-1.20"	"nej63f"	"600"	"1366"	"chrome"	"110.0.0"	"FALSE"	"Windows 10"	"60.07"	"037"	n/a	n/a	n/a	n/a	n/a	n/a	"Trial"	n/a	n/a	n/a	"936"	"arrowdown"	n/a	"NULL"	"NULL"	"NULL"	"stimuli/MullerLyer_8.21429_0.14541.png"	n/a	"MullerLyer"	"arrowup"	"1155"	"FALSE"	"MullerLyer"	"8.2142900000"	"0.1454100000"	"2"	"21"
n/a	"html-keyboard-response"	"226"	"383868"	"0.0-6.0-2.0-0.21"	"nej63f"	"600"	"1366"	"chrome"	"110.0.0"	"FALSE"	"Windows 10"	"60.07"	"037"	n/a	n/a	n/a	n/a	n/a	n/a	"fixation"	n/a	n/a	n/a	n/a	"NULL"	n/a	"NULL"	"NULL"	"NULL"	"<p style=\"color: black; font-size: 80px; padding-left: 21%; padding-right: 12%; padding-top: 46%; padding-bottom: 13%\">+</p>"	"1088"	n/a	n/a	n/a	n/a	n/a	n/a	n/a	n/a	n/a
n/a	"image-keyboard-response"	"227"	"384447"	"0.0-6.0-2.0-1.21"	"nej63f"	"600"	"1366"	"chrome"	"110.0.0"	"FALSE"	"Windows 10"	"60.07"	"037"	n/a	n/a	n/a	n/a	n/a	n/a	"Trial"	n/a	n/a	n/a	"577"	"arrowdown"	n/a	"NULL"	"NULL"	"NULL"	"stimuli/MullerLyer_14.12857_0.14541.png"	n/a	"MullerLyer"	"arrowup"	"1099"	"FALSE"	"MullerLyer"	"14.128570000"	"0.1454100000"	"2"	"22"
n/a	"html-keyboard-response"	"228"	"385873"	"0.0-6.0-2.0-0.22"	"nej63f"	"600"	"1366"	"chrome"	"110.0.0"	"FALSE"	"Windows 10"	"60.07"	"037"	n/a	n/a	n/a	n/a	n/a	n/a	"fixation"	n/a	n/a	n/a	n/a	"NULL"	n/a	"NULL"	"NULL"	"NULL"	"<p style=\"color: black; font-size: 80px; padding-left: 28%; padding-right: 30%; padding-top: 42%; padding-bottom: 31%\">+</p>"	"1418"	n/a	n/a	n/a	n/a	n/a	n/a	n/a	n/a	n/a
n/a	"image-keyboard-response"	"229"	"386298"	"0.0-6.0-2.0-1.22"	"nej63f"	"600"	"1366"	"chrome"	"110.0.0"	"FALSE"	"Windows 10"	"60.07"	"037"	n/a	n/a	n/a	n/a	n/a	n/a	"Trial"	n/a	n/a	n/a	"425"	"arrowup"	n/a	"NULL"	"NULL"	"NULL"	"stimuli/MullerLyer_-8.21429_0.35000.png"	n/a	"MullerLyer"	"arrowup"	"1426"	"TRUE"	"MullerLyer"	"-8.214290000"	"0.3500000000"	"2"	"23"
n/a	"html-keyboard-response"	"230"	"387599"	"0.0-6.0-2.0-0.23"	"nej63f"	"600"	"1366"	"chrome"	"110.0.0"	"FALSE"	"Windows 10"	"60.07"	"037"	n/a	n/a	n/a	n/a	n/a	n/a	"fixation"	n/a	n/a	n/a	n/a	"NULL"	n/a	"NULL"	"NULL"	"NULL"	"<p style=\"color: black; font-size: 80px; padding-left: 24%; padding-right: 9%; padding-top: 31%; padding-bottom: 38%\">+</p>"	"1285"	n/a	n/a	n/a	n/a	n/a	n/a	n/a	n/a	n/a
n/a	"image-keyboard-response"	"231"	"388150"	"0.0-6.0-2.0-1.23"	"nej63f"	"600"	"1366"	"chrome"	"110.0.0"	"FALSE"	"Windows 10"	"60.07"	"037"	n/a	n/a	n/a	n/a	n/a	n/a	"Trial"	n/a	n/a	n/a	"550"	"arrowdown"	n/a	"NULL"	"NULL"	"NULL"	"stimuli/MullerLyer_2.30000_-0.3500.png"	n/a	"MullerLyer"	"arrowdown"	"1301"	"TRUE"	"MullerLyer"	"2.3000000000"	"-0.350000000"	"2"	"24"
n/a	"html-keyboard-response"	"232"	"389435"	"0.0-6.0-2.0-0.24"	"nej63f"	"600"	"1366"	"chrome"	"110.0.0"	"FALSE"	"Windows 10"	"60.07"	"037"	n/a	n/a	n/a	n/a	n/a	n/a	"fixation"	n/a	n/a	n/a	n/a	"NULL"	n/a	"NULL"	"NULL"	"NULL"	"<p style=\"color: black; font-size: 80px; padding-left: 36%; padding-right: 41%; padding-top: 27%; padding-bottom: 16%\">+</p>"	"1277"	n/a	n/a	n/a	n/a	n/a	n/a	n/a	n/a	n/a
n/a	"image-keyboard-response"	"233"	"390028"	"0.0-6.0-2.0-1.24"	"nej63f"	"600"	"1366"	"chrome"	"110.0.0"	"FALSE"	"Windows 10"	"60.07"	"037"	n/a	n/a	n/a	n/a	n/a	n/a	"Trial"	n/a	n/a	n/a	"592"	"arrowdown"	n/a	"NULL"	"NULL"	"NULL"	"stimuli/MullerLyer_8.21429_-0.14541.png"	n/a	"MullerLyer"	"arrowdown"	"1285"	"TRUE"	"MullerLyer"	"8.2142900000"	"-0.145410000"	"2"	"25"
n/a	"html-keyboard-response"	"234"	"391419"	"0.0-6.0-2.0-0.25"	"nej63f"	"600"	"1366"	"chrome"	"110.0.0"	"FALSE"	"Windows 10"	"60.07"	"037"	n/a	n/a	n/a	n/a	n/a	n/a	"fixation"	n/a	n/a	n/a	n/a	"NULL"	n/a	"NULL"	"NULL"	"NULL"	"<p style=\"color: black; font-size: 80px; padding-left: 28%; padding-right: 14%; padding-top: 44%; padding-bottom: 44%\">+</p>"	"1382"	n/a	n/a	n/a	n/a	n/a	n/a	n/a	n/a	n/a
n/a	"image-keyboard-response"	"235"	"391833"	"0.0-6.0-2.0-1.25"	"nej63f"	"600"	"1366"	"chrome"	"110.0.0"	"FALSE"	"Windows 10"	"60.07"	"037"	n/a	n/a	n/a	n/a	n/a	n/a	"Trial"	n/a	n/a	n/a	"413"	"arrowup"	n/a	"NULL"	"NULL"	"NULL"	"stimuli/MullerLyer_8.21429_-0.23665.png"	n/a	"MullerLyer"	"arrowdown"	"1391"	"FALSE"	"MullerLyer"	"8.2142900000"	"-0.236650000"	"2"	"26"
n/a	"html-keyboard-response"	"236"	"392947"	"0.0-6.0-2.0-0.26"	"nej63f"	"600"	"1366"	"chrome"	"110.0.0"	"FALSE"	"Windows 10"	"60.07"	"037"	n/a	n/a	n/a	n/a	n/a	n/a	"fixation"	n/a	n/a	n/a	n/a	"NULL"	n/a	"NULL"	"NULL"	"NULL"	"<p style=\"color: black; font-size: 80px; padding-left: 40%; padding-right: 27%; padding-top: 49%; padding-bottom: 23%\">+</p>"	"1107"	n/a	n/a	n/a	n/a	n/a	n/a	n/a	n/a	n/a
n/a	"image-keyboard-response"	"237"	"393817"	"0.0-6.0-2.0-1.26"	"nej63f"	"600"	"1366"	"chrome"	"110.0.0"	"FALSE"	"Windows 10"	"60.07"	"037"	n/a	n/a	n/a	n/a	n/a	n/a	"Trial"	n/a	n/a	n/a	"869"	"arrowup"	n/a	"NULL"	"NULL"	"NULL"	"stimuli/MullerLyer_2.30000_0.07627.png"	n/a	"MullerLyer"	"arrowup"	"1114"	"TRUE"	"MullerLyer"	"2.3000000000"	"0.0762700000"	"2"	"27"
n/a	"html-keyboard-response"	"238"	"394838"	"0.0-6.0-2.0-0.27"	"nej63f"	"600"	"1366"	"chrome"	"110.0.0"	"FALSE"	"Windows 10"	"60.07"	"037"	n/a	n/a	n/a	n/a	n/a	n/a	"fixation"	n/a	n/a	n/a	n/a	"NULL"	n/a	"NULL"	"NULL"	"NULL"	"<p style=\"color: black; font-size: 80px; padding-left: 28%; padding-right: 2%; padding-top: 19%; padding-bottom: 26%\">+</p>"	"1009"	n/a	n/a	n/a	n/a	n/a	n/a	n/a	n/a	n/a
n/a	"image-keyboard-response"	"239"	"395427"	"0.0-6.0-2.0-1.27"	"nej63f"	"600"	"1366"	"chrome"	"110.0.0"	"FALSE"	"Windows 10"	"60.07"	"037"	n/a	n/a	n/a	n/a	n/a	n/a	"Trial"	n/a	n/a	n/a	"588"	"arrowdown"	n/a	"NULL"	"NULL"	"NULL"	"stimuli/MullerLyer_-14.12857_-0.23665.png"	n/a	"MullerLyer"	"arrowdown"	"1021"	"TRUE"	"MullerLyer"	"-14.12857000"	"-0.236650000"	"2"	"28"
n/a	"html-keyboard-response"	"240"	"396721"	"0.0-6.0-2.0-0.28"	"nej63f"	"600"	"1366"	"chrome"	"110.0.0"	"FALSE"	"Windows 10"	"60.07"	"037"	n/a	n/a	n/a	n/a	n/a	n/a	"fixation"	n/a	n/a	n/a	n/a	"NULL"	n/a	"NULL"	"NULL"	"NULL"	"<p style=\"color: black; font-size: 80px; padding-left: 39%; padding-right: 36%; padding-top: 44%; padding-bottom: 10%\">+</p>"	"1286"	n/a	n/a	n/a	n/a	n/a	n/a	n/a	n/a	n/a
n/a	"image-keyboard-response"	"241"	"397460"	"0.0-6.0-2.0-1.28"	"nej63f"	"600"	"1366"	"chrome"	"110.0.0"	"FALSE"	"Windows 10"	"60.07"	"037"	n/a	n/a	n/a	n/a	n/a	n/a	"Trial"	n/a	n/a	n/a	"738"	"arrowdown"	n/a	"NULL"	"NULL"	"NULL"	"stimuli/MullerLyer_2.30000_-0.23665.png"	n/a	"MullerLyer"	"arrowdown"	"1294"	"TRUE"	"MullerLyer"	"2.3000000000"	"-0.236650000"	"2"	"29"
n/a	"html-keyboard-response"	"242"	"398753"	"0.0-6.0-2.0-0.29"	"nej63f"	"600"	"1366"	"chrome"	"110.0.0"	"FALSE"	"Windows 10"	"60.07"	"037"	n/a	n/a	n/a	n/a	n/a	n/a	"fixation"	n/a	n/a	n/a	n/a	"NULL"	n/a	"NULL"	"NULL"	"NULL"	"<p style=\"color: black; font-size: 80px; padding-left: 4%; padding-right: 33%; padding-top: 31%; padding-bottom: 46%\">+</p>"	"1290"	n/a	n/a	n/a	n/a	n/a	n/a	n/a	n/a	n/a
n/a	"image-keyboard-response"	"243"	"399219"	"0.0-6.0-2.0-1.29"	"nej63f"	"600"	"1366"	"chrome"	"110.0.0"	"FALSE"	"Windows 10"	"60.07"	"037"	n/a	n/a	n/a	n/a	n/a	n/a	"Trial"	n/a	n/a	n/a	"465"	"arrowdown"	n/a	"NULL"	"NULL"	"NULL"	"stimuli/MullerLyer_-20.04286_-0.23665.png"	n/a	"MullerLyer"	"arrowdown"	"1293"	"TRUE"	"MullerLyer"	"-20.04286000"	"-0.236650000"	"2"	"30"
n/a	"html-keyboard-response"	"244"	"400475"	"0.0-6.0-2.0-0.30"	"nej63f"	"600"	"1366"	"chrome"	"110.0.0"	"FALSE"	"Windows 10"	"60.07"	"037"	n/a	n/a	n/a	n/a	n/a	n/a	"fixation"	n/a	n/a	n/a	n/a	"NULL"	n/a	"NULL"	"NULL"	"NULL"	"<p style=\"color: black; font-size: 80px; padding-left: 22%; padding-right: 31%; padding-top: 3%; padding-bottom: 1%\">+</p>"	"1242"	n/a	n/a	n/a	n/a	n/a	n/a	n/a	n/a	n/a
n/a	"image-keyboard-response"	"245"	"400963"	"0.0-6.0-2.0-1.30"	"nej63f"	"600"	"1366"	"chrome"	"110.0.0"	"FALSE"	"Windows 10"	"60.07"	"037"	n/a	n/a	n/a	n/a	n/a	n/a	"Trial"	n/a	n/a	n/a	"488"	"arrowdown"	n/a	"NULL"	"NULL"	"NULL"	"stimuli/MullerLyer_-20.04286_-0.07627.png"	n/a	"MullerLyer"	"arrowdown"	"1256"	"TRUE"	"MullerLyer"	"-20.04286000"	"-0.076270000"	"2"	"31"
n/a	"html-keyboard-response"	"246"	"402034"	"0.0-6.0-2.0-0.31"	"nej63f"	"600"	"1366"	"chrome"	"110.0.0"	"FALSE"	"Windows 10"	"60.07"	"037"	n/a	n/a	n/a	n/a	n/a	n/a	"fixation"	n/a	n/a	n/a	n/a	"NULL"	n/a	"NULL"	"NULL"	"NULL"	"<p style=\"color: black; font-size: 80px; padding-left: 28%; padding-right: 28%; padding-top: 28%; padding-bottom: 37%\">+</p>"	"1056"	n/a	n/a	n/a	n/a	n/a	n/a	n/a	n/a	n/a
n/a	"image-keyboard-response"	"247"	"402594"	"0.0-6.0-2.0-1.31"	"nej63f"	"600"	"1366"	"chrome"	"110.0.0"	"FALSE"	"Windows 10"	"60.07"	"037"	n/a	n/a	n/a	n/a	n/a	n/a	"Trial"	n/a	n/a	n/a	"559"	"arrowup"	n/a	"NULL"	"NULL"	"NULL"	"stimuli/MullerLyer_-8.21429_0.07627.png"	n/a	"MullerLyer"	"arrowup"	"1071"	"TRUE"	"MullerLyer"	"-8.214290000"	"0.0762700000"	"2"	"32"
n/a	"html-keyboard-response"	"248"	"403826"	"0.0-6.0-2.0-0.32"	"nej63f"	"600"	"1366"	"chrome"	"110.0.0"	"FALSE"	"Windows 10"	"60.07"	"037"	n/a	n/a	n/a	n/a	n/a	n/a	"fixation"	n/a	n/a	n/a	n/a	"NULL"	n/a	"NULL"	"NULL"	"NULL"	"<p style=\"color: black; font-size: 80px; padding-left: 36%; padding-right: 7%; padding-top: 5%; padding-bottom: 4%\">+</p>"	"1223"	n/a	n/a	n/a	n/a	n/a	n/a	n/a	n/a	n/a
n/a	"image-keyboard-response"	"249"	"404247"	"0.0-6.0-2.0-1.32"	"nej63f"	"600"	"1366"	"chrome"	"110.0.0"	"FALSE"	"Windows 10"	"60.07"	"037"	n/a	n/a	n/a	n/a	n/a	n/a	"Trial"	n/a	n/a	n/a	"420"	"arrowup"	n/a	"NULL"	"NULL"	"NULL"	"stimuli/MullerLyer_-14.12857_0.07627.png"	n/a	"MullerLyer"	"arrowup"	"1232"	"TRUE"	"MullerLyer"	"-14.12857000"	"0.0762700000"	"2"	"33"
n/a	"html-keyboard-response"	"250"	"405257"	"0.0-6.0-2.0-0.33"	"nej63f"	"600"	"1366"	"chrome"	"110.0.0"	"FALSE"	"Windows 10"	"60.07"	"037"	n/a	n/a	n/a	n/a	n/a	n/a	"fixation"	n/a	n/a	n/a	n/a	"NULL"	n/a	"NULL"	"NULL"	"NULL"	"<p style=\"color: black; font-size: 80px; padding-left: 31%; padding-right: 41%; padding-top: 8%; padding-bottom: 18%\">+</p>"	"1008"	n/a	n/a	n/a	n/a	n/a	n/a	n/a	n/a	n/a
n/a	"image-keyboard-response"	"251"	"405656"	"0.0-6.0-2.0-1.33"	"nej63f"	"600"	"1366"	"chrome"	"110.0.0"	"FALSE"	"Windows 10"	"60.07"	"037"	n/a	n/a	n/a	n/a	n/a	n/a	"Trial"	n/a	n/a	n/a	"398"	"arrowup"	n/a	"NULL"	"NULL"	"NULL"	"stimuli/MullerLyer_8.21429_0.35000.png"	n/a	"MullerLyer"	"arrowup"	"1010"	"TRUE"	"MullerLyer"	"8.2142900000"	"0.3500000000"	"2"	"34"
n/a	"html-keyboard-response"	"252"	"407033"	"0.0-6.0-2.0-0.34"	"nej63f"	"600"	"1366"	"chrome"	"110.0.0"	"FALSE"	"Windows 10"	"60.07"	"037"	n/a	n/a	n/a	n/a	n/a	n/a	"fixation"	n/a	n/a	n/a	n/a	"NULL"	n/a	"NULL"	"NULL"	"NULL"	"<p style=\"color: black; font-size: 80px; padding-left: 7%; padding-right: 29%; padding-top: 38%; padding-bottom: 25%\">+</p>"	"1362"	n/a	n/a	n/a	n/a	n/a	n/a	n/a	n/a	n/a
n/a	"image-keyboard-response"	"253"	"407380"	"0.0-6.0-2.0-1.34"	"nej63f"	"600"	"1366"	"chrome"	"110.0.0"	"FALSE"	"Windows 10"	"60.07"	"037"	n/a	n/a	n/a	n/a	n/a	n/a	"Trial"	n/a	n/a	n/a	"346"	"arrowup"	n/a	"NULL"	"NULL"	"NULL"	"stimuli/MullerLyer_-2.3000_-0.23665.png"	n/a	"MullerLyer"	"arrowdown"	"1377"	"FALSE"	"MullerLyer"	"-2.300000000"	"-0.236650000"	"2"	"35"
