"success"	"trial_type"	"trial_index"	"time_elapsed"	"internal_node_id"	"participant_id"	"screen_height"	"screen_width"	"browser"	"browser_version"	"mobile"	"os"	"vsync_rate"	"subject_id"	"width"	"height"	"webaudio"	"fullscreen"	"webcam"	"microphone"	"screen"	"version"	"date"	"time"	"rt"	"response"	"timeout"	"failed_images"	"failed_audio"	"failed_video"	"stimulus"	"trial_duration"	"block"	"correct_response"	"prestimulus_duration"	"correct"	"type"	"illusion_strength"	"illusion_difference"	"block_number"	"trial_number"
"TRUE"	"fullscreen"	"0"	"40300"	"0.0-0.0"	"sj4e3e"	"600"	"1366"	"chrome"	"110.0.0"	"FALSE"	"Windows 10"	"61.03"	"031"	n/a	n/a	n/a	n/a	n/a	n/a	n/a	n/a	n/a	n/a	n/a	"NULL"	n/a	"NULL"	"NULL"	"NULL"	n/a	n/a	n/a	n/a	n/a	n/a	n/a	n/a	n/a	n/a	n/a
n/a	"browser-check"	"1"	"41295"	"0.0-1.0"	"sj4e3e"	"600"	"1366"	"chrome"	"110.0.0"	"FALSE"	"Windows 10"	"61.03"	"031"	"1366"	"600"	"TRUE"	"TRUE"	"TRUE"	"TRUE"	"browser_info"	"1.0"	"02/03/2023"	"14:55:37"	n/a	"NULL"	n/a	"NULL"	"NULL"	"NULL"	n/a	n/a	n/a	n/a	n/a	n/a	n/a	n/a	n/a	n/a	n/a
n/a	"survey-text"	"2"	"45517"	"0.0-2.0"	"sj4e3e"	"600"	"1366"	"chrome"	"110.0.0"	"FALSE"	"Windows 10"	"61.03"	"031"	n/a	n/a	n/a	n/a	n/a	n/a	"subject_id"	n/a	n/a	n/a	"4219"	"list(subject_id = \"031\")"	n/a	"NULL"	"NULL"	"NULL"	n/a	n/a	n/a	n/a	n/a	n/a	n/a	n/a	n/a	n/a	n/a
"TRUE"	"preload"	"3"	"45530"	"0.0-3.0"	"sj4e3e"	"600"	"1366"	"chrome"	"110.0.0"	"FALSE"	"Windows 10"	"61.03"	"031"	n/a	n/a	n/a	n/a	n/a	n/a	n/a	n/a	n/a	n/a	n/a	"NULL"	"FALSE"	"list()"	"list()"	"list()"	n/a	n/a	n/a	n/a	n/a	n/a	n/a	n/a	n/a	n/a	n/a
n/a	"html-button-response"	"4"	"81087"	"0.0-4.0-0.0"	"sj4e3e"	"600"	"1366"	"chrome"	"110.0.0"	"FALSE"	"Windows 10"	"61.03"	"031"	n/a	n/a	n/a	n/a	n/a	n/a	"illusion_instructions"	n/a	n/a	n/a	"35556"	"0"	n/a	"NULL"	"NULL"	"NULL"	"<p><b>Illusion Game</b></p><p>In this game of speed and reflex, you will need to make <b>visual judgments</b> (for instance, which circle is the biggest, or which line is the longest), as fast and as correctly as possible, while <b>resisting different visual illusions</b>.</p><p>We are going to start with some examples of all the illusions you will encounter in the game.</p>"	n/a	n/a	n/a	n/a	n/a	n/a	n/a	n/a	n/a	n/a
"TRUE"	"preload"	"5"	"81104"	"0.0-4.0-1.0-0.0"	"sj4e3e"	"600"	"1366"	"chrome"	"110.0.0"	"FALSE"	"Windows 10"	"61.03"	"031"	n/a	n/a	n/a	n/a	n/a	n/a	n/a	n/a	n/a	n/a	n/a	"NULL"	"FALSE"	"list()"	"list()"	"list()"	n/a	n/a	n/a	n/a	n/a	n/a	n/a	n/a	n/a	n/a	n/a
n/a	"html-keyboard-response"	"6"	"103197"	"0.0-4.0-1.0-1.0"	"sj4e3e"	"600"	"1366"	"chrome"	"110.0.0"	"FALSE"	"Windows 10"	"61.03"	"031"	n/a	n/a	n/a	n/a	n/a	n/a	n/a	n/a	n/a	n/a	"22091"	"enter"	n/a	"NULL"	"NULL"	"NULL"	"<p><b>Practice</b></p><p>In this part, two red circles will appear side by side on the screen.</p><p>Your task is to select which <b>red circle is bigger</b> in size as fast as you can, without making errors.</p><p>Don't get distracted by the surrounding black circles around the red circles!</p><p>Press <b>the LEFT or the RIGHT arrow</b> to indicate which is the bigger <b>red circle.</b></p><div style='float: center'><img src='materials/instructions/Ebbinghaus_Demo.png' height='300'></img><p><img src='utils/answer/answer_leftright_keyboard.PNG' height='150'></img></p><p class='small'>In this example, the correct answer is the <b>LEFT arrow</b>.</p></div><p>Are you ready? <b>Press ENTER to start</b></p>"	n/a	n/a	n/a	n/a	n/a	n/a	n/a	n/a	n/a	n/a
n/a	"html-keyboard-response"	"7"	"104985"	"0.0-4.0-1.0-2.0-0.0"	"sj4e3e"	"600"	"1366"	"chrome"	"110.0.0"	"FALSE"	"Windows 10"	"61.03"	"031"	n/a	n/a	n/a	n/a	n/a	n/a	"fixation"	n/a	n/a	n/a	n/a	"NULL"	n/a	"NULL"	"NULL"	"NULL"	"<p style=\"color: black; font-size: 80px; padding-left: 35%; padding-right: 38%; padding-top: 26%; padding-bottom: 16%\">+</p>"	"1259"	n/a	n/a	n/a	n/a	n/a	n/a	n/a	n/a	n/a
n/a	"image-keyboard-response"	"8"	"106052"	"0.0-4.0-1.0-2.0-1.0"	"sj4e3e"	"600"	"1366"	"chrome"	"110.0.0"	"FALSE"	"Windows 10"	"61.03"	"031"	n/a	n/a	n/a	n/a	n/a	n/a	"Trial"	n/a	n/a	n/a	"1058"	"arrowright"	n/a	"NULL"	"NULL"	"NULL"	"stimuli/Ebbinghaus_1000000_-1.4000.png"	n/a	"Ebbinghaus"	"arrowright"	"1788"	"TRUE"	"Ebbinghaus"	"100000000000"	"-1.400000000"	"1"	"1"
n/a	"html-keyboard-response"	"9"	"107551"	"0.0-4.0-1.0-2.0-0.1"	"sj4e3e"	"600"	"1366"	"chrome"	"110.0.0"	"FALSE"	"Windows 10"	"61.03"	"031"	n/a	n/a	n/a	n/a	n/a	n/a	"fixation"	n/a	n/a	n/a	n/a	"NULL"	n/a	"NULL"	"NULL"	"NULL"	"<p style=\"color: black; font-size: 80px; padding-left: 28%; padding-right: 6%; padding-top: 28%; padding-bottom: 42%\">+</p>"	"1496"	n/a	n/a	n/a	n/a	n/a	n/a	n/a	n/a	n/a
n/a	"image-keyboard-response"	"10"	"108170"	"0.0-4.0-1.0-2.0-1.1"	"sj4e3e"	"600"	"1366"	"chrome"	"110.0.0"	"FALSE"	"Windows 10"	"61.03"	"031"	n/a	n/a	n/a	n/a	n/a	n/a	"Trial"	n/a	n/a	n/a	"619"	"arrowleft"	n/a	"NULL"	"NULL"	"NULL"	"stimuli/Ebbinghaus_0000000_1.40000.png"	n/a	"Ebbinghaus"	"arrowleft"	"1499"	"TRUE"	"Ebbinghaus"	"000000000000"	"1.4000000000"	"1"	"2"
n/a	"html-keyboard-response"	"11"	"109346"	"0.0-4.0-1.0-2.0-0.2"	"sj4e3e"	"600"	"1366"	"chrome"	"110.0.0"	"FALSE"	"Windows 10"	"61.03"	"031"	n/a	n/a	n/a	n/a	n/a	n/a	"fixation"	n/a	n/a	n/a	n/a	"NULL"	n/a	"NULL"	"NULL"	"NULL"	"<p style=\"color: black; font-size: 80px; padding-left: 4%; padding-right: 9%; padding-top: 32%; padding-bottom: 18%\">+</p>"	"1160"	n/a	n/a	n/a	n/a	n/a	n/a	n/a	n/a	n/a
n/a	"image-keyboard-response"	"12"	"110039"	"0.0-4.0-1.0-2.0-1.2"	"sj4e3e"	"600"	"1366"	"chrome"	"110.0.0"	"FALSE"	"Windows 10"	"61.03"	"031"	n/a	n/a	n/a	n/a	n/a	n/a	"Trial"	n/a	n/a	n/a	"692"	"arrowleft"	n/a	"NULL"	"NULL"	"NULL"	"stimuli/Ebbinghaus_-100000_1.40000.png"	n/a	"Ebbinghaus"	"arrowleft"	"1176"	"TRUE"	"Ebbinghaus"	"-10000000000"	"1.4000000000"	"1"	"3"
n/a	"html-keyboard-response"	"13"	"111405"	"0.0-4.0-1.0-2.0-0.3"	"sj4e3e"	"600"	"1366"	"chrome"	"110.0.0"	"FALSE"	"Windows 10"	"61.03"	"031"	n/a	n/a	n/a	n/a	n/a	n/a	"fixation"	n/a	n/a	n/a	n/a	"NULL"	n/a	"NULL"	"NULL"	"NULL"	"<p style=\"color: black; font-size: 80px; padding-left: 11%; padding-right: 10%; padding-top: 2%; padding-bottom: 19%\">+</p>"	"1356"	n/a	n/a	n/a	n/a	n/a	n/a	n/a	n/a	n/a
n/a	"image-keyboard-response"	"14"	"112232"	"0.0-4.0-1.0-2.0-1.3"	"sj4e3e"	"600"	"1366"	"chrome"	"110.0.0"	"FALSE"	"Windows 10"	"61.03"	"031"	n/a	n/a	n/a	n/a	n/a	n/a	"Trial"	n/a	n/a	n/a	"826"	"arrowleft"	n/a	"NULL"	"NULL"	"NULL"	"stimuli/Ebbinghaus_1000000_1.40000.png"	n/a	"Ebbinghaus"	"arrowleft"	"1366"	"TRUE"	"Ebbinghaus"	"100000000000"	"1.4000000000"	"1"	"4"
n/a	"html-keyboard-response"	"15"	"113735"	"0.0-4.0-1.0-2.0-0.4"	"sj4e3e"	"600"	"1366"	"chrome"	"110.0.0"	"FALSE"	"Windows 10"	"61.03"	"031"	n/a	n/a	n/a	n/a	n/a	n/a	"fixation"	n/a	n/a	n/a	n/a	"NULL"	n/a	"NULL"	"NULL"	"NULL"	"<p style=\"color: black; font-size: 80px; padding-left: 31%; padding-right: 9%; padding-top: 32%; padding-bottom: 31%\">+</p>"	"1497"	n/a	n/a	n/a	n/a	n/a	n/a	n/a	n/a	n/a
n/a	"image-keyboard-response"	"16"	"114246"	"0.0-4.0-1.0-2.0-1.4"	"sj4e3e"	"600"	"1366"	"chrome"	"110.0.0"	"FALSE"	"Windows 10"	"61.03"	"031"	n/a	n/a	n/a	n/a	n/a	n/a	"Trial"	n/a	n/a	n/a	"510"	"arrowright"	n/a	"NULL"	"NULL"	"NULL"	"stimuli/Ebbinghaus_-100000_-1.4000.png"	n/a	"Ebbinghaus"	"arrowright"	"1503"	"TRUE"	"Ebbinghaus"	"-10000000000"	"-1.400000000"	"1"	"5"
n/a	"html-keyboard-response"	"17"	"115655"	"0.0-4.0-1.0-2.0-0.5"	"sj4e3e"	"600"	"1366"	"chrome"	"110.0.0"	"FALSE"	"Windows 10"	"61.03"	"031"	n/a	n/a	n/a	n/a	n/a	n/a	"fixation"	n/a	n/a	n/a	n/a	"NULL"	n/a	"NULL"	"NULL"	"NULL"	"<p style=\"color: black; font-size: 80px; padding-left: 24%; padding-right: 19%; padding-top: 40%; padding-bottom: 27%\">+</p>"	"1396"	n/a	n/a	n/a	n/a	n/a	n/a	n/a	n/a	n/a
n/a	"image-keyboard-response"	"18"	"116500"	"0.0-4.0-1.0-2.0-1.5"	"sj4e3e"	"600"	"1366"	"chrome"	"110.0.0"	"FALSE"	"Windows 10"	"61.03"	"031"	n/a	n/a	n/a	n/a	n/a	n/a	"Trial"	n/a	n/a	n/a	"844"	"arrowright"	n/a	"NULL"	"NULL"	"NULL"	"stimuli/Ebbinghaus_0000000_-1.4000.png"	n/a	"Ebbinghaus"	"arrowright"	"1409"	"TRUE"	"Ebbinghaus"	"000000000000"	"-1.400000000"	"1"	"6"
n/a	"html-button-response"	"19"	"119710"	"0.0-4.0-1.0-3.0"	"sj4e3e"	"600"	"1366"	"chrome"	"110.0.0"	"FALSE"	"Windows 10"	"61.03"	"031"	n/a	n/a	n/a	n/a	n/a	n/a	"practice_block_results"	n/a	n/a	n/a	"3208"	"0"	n/a	"NULL"	"NULL"	"NULL"	"<p style='color:rgb(76,175,80);'> Correct Responses: <b>100.00%</b></p><hr><p style='color:rgb(233,30,99);'> Average Response Time: <b>758.17</b> ms.</p>"	n/a	n/a	n/a	n/a	n/a	n/a	n/a	n/a	n/a	n/a
"TRUE"	"preload"	"20"	"120228"	"0.0-4.0-2.0-0.0"	"sj4e3e"	"600"	"1366"	"chrome"	"110.0.0"	"FALSE"	"Windows 10"	"61.03"	"031"	n/a	n/a	n/a	n/a	n/a	n/a	n/a	n/a	n/a	n/a	n/a	"NULL"	"FALSE"	"list()"	"list()"	"list()"	n/a	n/a	n/a	n/a	n/a	n/a	n/a	n/a	n/a	n/a	n/a
n/a	"html-keyboard-response"	"21"	"131402"	"0.0-4.0-2.0-1.0"	"sj4e3e"	"600"	"1366"	"chrome"	"110.0.0"	"FALSE"	"Windows 10"	"61.03"	"031"	n/a	n/a	n/a	n/a	n/a	n/a	n/a	n/a	n/a	n/a	"11173"	"enter"	n/a	"NULL"	"NULL"	"NULL"	"<p><b>Practice</b></p><p>In this part, two horizontal red lines will appear one above the other.</p><p>Your task is to select which <b>line is longer</b> in length as fast as you can, without making errors.</p><p>Don't get distracted by the surrounding black arrows at the end of the red lines!</p><p>Press <b>the UP or the DOWN arrow</b> to indicate where is the longer <b>red line.</b></p><div style='float: center'><img src='materials/instructions/MullerLyer_Demo.png' height='300'></img><p><img src='utils/answer/answer_updown_keyboard.PNG' height='150'></img></p><p class='small'>In this example, the correct answer is the <b>UP arrow</b>.</p></div><p>Are you ready? <b>Press ENTER to start</b></p>"	n/a	n/a	n/a	n/a	n/a	n/a	n/a	n/a	n/a	n/a
n/a	"html-keyboard-response"	"22"	"133219"	"0.0-4.0-2.0-2.0-0.0"	"sj4e3e"	"600"	"1366"	"chrome"	"110.0.0"	"FALSE"	"Windows 10"	"61.03"	"031"	n/a	n/a	n/a	n/a	n/a	n/a	"fixation"	n/a	n/a	n/a	n/a	"NULL"	n/a	"NULL"	"NULL"	"NULL"	"<p style=\"color: black; font-size: 80px; padding-left: 5%; padding-right: 2%; padding-top: 25%; padding-bottom: 35%\">+</p>"	"1301"	n/a	n/a	n/a	n/a	n/a	n/a	n/a	n/a	n/a
n/a	"image-keyboard-response"	"23"	"133953"	"0.0-4.0-2.0-2.0-1.0"	"sj4e3e"	"600"	"1366"	"chrome"	"110.0.0"	"FALSE"	"Windows 10"	"61.03"	"031"	n/a	n/a	n/a	n/a	n/a	n/a	"Trial"	n/a	n/a	n/a	"733"	"arrowdown"	n/a	"NULL"	"NULL"	"NULL"	"stimuli/MullerLyer_-230000_-0.7000.png"	n/a	"MullerLyer"	"arrowdown"	"1817"	"TRUE"	"MullerLyer"	"-23000000000"	"-0.700000000"	"1"	"7"
n/a	"html-keyboard-response"	"24"	"135237"	"0.0-4.0-2.0-2.0-0.1"	"sj4e3e"	"600"	"1366"	"chrome"	"110.0.0"	"FALSE"	"Windows 10"	"61.03"	"031"	n/a	n/a	n/a	n/a	n/a	n/a	"fixation"	n/a	n/a	n/a	n/a	"NULL"	n/a	"NULL"	"NULL"	"NULL"	"<p style=\"color: black; font-size: 80px; padding-left: 19%; padding-right: 14%; padding-top: 39%; padding-bottom: 45%\">+</p>"	"1274"	n/a	n/a	n/a	n/a	n/a	n/a	n/a	n/a	n/a
n/a	"image-keyboard-response"	"25"	"136252"	"0.0-4.0-2.0-2.0-1.1"	"sj4e3e"	"600"	"1366"	"chrome"	"110.0.0"	"FALSE"	"Windows 10"	"61.03"	"031"	n/a	n/a	n/a	n/a	n/a	n/a	"Trial"	n/a	n/a	n/a	"1014"	"arrowdown"	n/a	"NULL"	"NULL"	"NULL"	"stimuli/MullerLyer_2300000_-0.7000.png"	n/a	"MullerLyer"	"arrowdown"	"1284"	"TRUE"	"MullerLyer"	"230000000000"	"-0.700000000"	"1"	"8"
n/a	"html-keyboard-response"	"26"	"137511"	"0.0-4.0-2.0-2.0-0.2"	"sj4e3e"	"600"	"1366"	"chrome"	"110.0.0"	"FALSE"	"Windows 10"	"61.03"	"031"	n/a	n/a	n/a	n/a	n/a	n/a	"fixation"	n/a	n/a	n/a	n/a	"NULL"	n/a	"NULL"	"NULL"	"NULL"	"<p style=\"color: black; font-size: 80px; padding-left: 44%; padding-right: 9%; padding-top: 39%; padding-bottom: 2%\">+</p>"	"1250"	n/a	n/a	n/a	n/a	n/a	n/a	n/a	n/a	n/a
n/a	"image-keyboard-response"	"27"	"138131"	"0.0-4.0-2.0-2.0-1.2"	"sj4e3e"	"600"	"1366"	"chrome"	"110.0.0"	"FALSE"	"Windows 10"	"61.03"	"031"	n/a	n/a	n/a	n/a	n/a	n/a	"Trial"	n/a	n/a	n/a	"619"	"arrowup"	n/a	"NULL"	"NULL"	"NULL"	"stimuli/MullerLyer_0000000_0.70000.png"	n/a	"MullerLyer"	"arrowup"	"1259"	"TRUE"	"MullerLyer"	"000000000000"	"0.7000000000"	"1"	"9"
n/a	"html-keyboard-response"	"28"	"139320"	"0.0-4.0-2.0-2.0-0.3"	"sj4e3e"	"600"	"1366"	"chrome"	"110.0.0"	"FALSE"	"Windows 10"	"61.03"	"031"	n/a	n/a	n/a	n/a	n/a	n/a	"fixation"	n/a	n/a	n/a	n/a	"NULL"	n/a	"NULL"	"NULL"	"NULL"	"<p style=\"color: black; font-size: 80px; padding-left: 8%; padding-right: 24%; padding-top: 3%; padding-bottom: 1%\">+</p>"	"1175"	n/a	n/a	n/a	n/a	n/a	n/a	n/a	n/a	n/a
n/a	"image-keyboard-response"	"29"	"140307"	"0.0-4.0-2.0-2.0-1.3"	"sj4e3e"	"600"	"1366"	"chrome"	"110.0.0"	"FALSE"	"Windows 10"	"61.03"	"031"	n/a	n/a	n/a	n/a	n/a	n/a	"Trial"	n/a	n/a	n/a	"986"	"arrowup"	n/a	"NULL"	"NULL"	"NULL"	"stimuli/MullerLyer_2300000_0.70000.png"	n/a	"MullerLyer"	"arrowup"	"1189"	"TRUE"	"MullerLyer"	"230000000000"	"0.7000000000"	"1"	"10"
n/a	"html-keyboard-response"	"30"	"141539"	"0.0-4.0-2.0-2.0-0.4"	"sj4e3e"	"600"	"1366"	"chrome"	"110.0.0"	"FALSE"	"Windows 10"	"61.03"	"031"	n/a	n/a	n/a	n/a	n/a	n/a	"fixation"	n/a	n/a	n/a	n/a	"NULL"	n/a	"NULL"	"NULL"	"NULL"	"<p style=\"color: black; font-size: 80px; padding-left: 26%; padding-right: 17%; padding-top: 13%; padding-bottom: 33%\">+</p>"	"1220"	n/a	n/a	n/a	n/a	n/a	n/a	n/a	n/a	n/a
n/a	"image-keyboard-response"	"31"	"142057"	"0.0-4.0-2.0-2.0-1.4"	"sj4e3e"	"600"	"1366"	"chrome"	"110.0.0"	"FALSE"	"Windows 10"	"61.03"	"031"	n/a	n/a	n/a	n/a	n/a	n/a	"Trial"	n/a	n/a	n/a	"517"	"arrowdown"	n/a	"NULL"	"NULL"	"NULL"	"stimuli/MullerLyer_0000000_-0.7000.png"	n/a	"MullerLyer"	"arrowdown"	"1232"	"TRUE"	"MullerLyer"	"000000000000"	"-0.700000000"	"1"	"11"
n/a	"html-keyboard-response"	"32"	"143126"	"0.0-4.0-2.0-2.0-0.5"	"sj4e3e"	"600"	"1366"	"chrome"	"110.0.0"	"FALSE"	"Windows 10"	"61.03"	"031"	n/a	n/a	n/a	n/a	n/a	n/a	"fixation"	n/a	n/a	n/a	n/a	"NULL"	n/a	"NULL"	"NULL"	"NULL"	"<p style=\"color: black; font-size: 80px; padding-left: 43%; padding-right: 43%; padding-top: 36%; padding-bottom: 35%\">+</p>"	"1059"	n/a	n/a	n/a	n/a	n/a	n/a	n/a	n/a	n/a
n/a	"image-keyboard-response"	"33"	"143586"	"0.0-4.0-2.0-2.0-1.5"	"sj4e3e"	"600"	"1366"	"chrome"	"110.0.0"	"FALSE"	"Windows 10"	"61.03"	"031"	n/a	n/a	n/a	n/a	n/a	n/a	"Trial"	n/a	n/a	n/a	"459"	"arrowup"	n/a	"NULL"	"NULL"	"NULL"	"stimuli/MullerLyer_-230000_0.70000.png"	n/a	"MullerLyer"	"arrowup"	"1069"	"TRUE"	"MullerLyer"	"-23000000000"	"0.7000000000"	"1"	"12"
n/a	"html-button-response"	"34"	"145527"	"0.0-4.0-2.0-3.0"	"sj4e3e"	"600"	"1366"	"chrome"	"110.0.0"	"FALSE"	"Windows 10"	"61.03"	"031"	n/a	n/a	n/a	n/a	n/a	n/a	"practice_block_results"	n/a	n/a	n/a	"1940"	"0"	n/a	"NULL"	"NULL"	"NULL"	"<p style='color:rgb(76,175,80);'> Correct Responses: <b>100.00%</b></p><hr><p style='color:rgb(233,30,99);'> Average Response Time: <b>721.33</b> ms.</p>"	n/a	n/a	n/a	n/a	n/a	n/a	n/a	n/a	n/a	n/a
"TRUE"	"preload"	"35"	"146041"	"0.0-4.0-3.0-0.0"	"sj4e3e"	"600"	"1366"	"chrome"	"110.0.0"	"FALSE"	"Windows 10"	"61.03"	"031"	n/a	n/a	n/a	n/a	n/a	n/a	n/a	n/a	n/a	n/a	n/a	"NULL"	"FALSE"	"list()"	"list()"	"list()"	n/a	n/a	n/a	n/a	n/a	n/a	n/a	n/a	n/a	n/a	n/a
n/a	"html-keyboard-response"	"36"	"152217"	"0.0-4.0-3.0-1.0"	"sj4e3e"	"600"	"1366"	"chrome"	"110.0.0"	"FALSE"	"Windows 10"	"61.03"	"031"	n/a	n/a	n/a	n/a	n/a	n/a	n/a	n/a	n/a	n/a	"6175"	"enter"	n/a	"NULL"	"NULL"	"NULL"	"<p><b>Practice</b></p><p>In this part, two red lines will appear side by side.</p><p>Your task is to tell <b>which line is longer</b> in length, regardless of their orientation, as fast as you can, and without making errors.</p><p>Don't get distracted by the orientation of the lines!</p><p>Press <b>the LEFT or the RIGHT arrow</b> to indicate which <b>line is the longer one.</b></p><div style='float: center'><img src='materials/instructions/VerticalHorizontal_Demo.png' height='300'></img><p><img src='utils/answer/answer_leftright_keyboard.PNG' height='150'></img></p><p class='small'>In this example, the correct answer is the <b>LEFT arrow</b>.</p></div><p>Are you ready? <b>Press ENTER to start</b></p>"	n/a	n/a	n/a	n/a	n/a	n/a	n/a	n/a	n/a	n/a
n/a	"html-keyboard-response"	"37"	"154191"	"0.0-4.0-3.0-2.0-0.0"	"sj4e3e"	"600"	"1366"	"chrome"	"110.0.0"	"FALSE"	"Windows 10"	"61.03"	"031"	n/a	n/a	n/a	n/a	n/a	n/a	"fixation"	n/a	n/a	n/a	n/a	"NULL"	n/a	"NULL"	"NULL"	"NULL"	"<p style=\"color: black; font-size: 80px; padding-left: 21%; padding-right: 27%; padding-top: 34%; padding-bottom: 29%\">+</p>"	"1466"	n/a	n/a	n/a	n/a	n/a	n/a	n/a	n/a	n/a
n/a	"image-keyboard-response"	"38"	"154698"	"0.0-4.0-3.0-2.0-1.0"	"sj4e3e"	"600"	"1366"	"chrome"	"110.0.0"	"FALSE"	"Windows 10"	"61.03"	"031"	n/a	n/a	n/a	n/a	n/a	n/a	"Trial"	n/a	n/a	n/a	"506"	"arrowright"	n/a	"NULL"	"NULL"	"NULL"	"stimuli/VerticalHorizontal_3300000_-0.9000.png"	n/a	"VerticalHorizontal"	"arrowright"	"1974"	"TRUE"	"VerticalHorizontal"	"330000000000"	"-0.900000000"	"1"	"13"
n/a	"html-keyboard-response"	"39"	"155861"	"0.0-4.0-3.0-2.0-0.1"	"sj4e3e"	"600"	"1366"	"chrome"	"110.0.0"	"FALSE"	"Windows 10"	"61.03"	"031"	n/a	n/a	n/a	n/a	n/a	n/a	"fixation"	n/a	n/a	n/a	n/a	"NULL"	n/a	"NULL"	"NULL"	"NULL"	"<p style=\"color: black; font-size: 80px; padding-left: 19%; padding-right: 38%; padding-top: 22%; padding-bottom: 50%\">+</p>"	"1160"	n/a	n/a	n/a	n/a	n/a	n/a	n/a	n/a	n/a
n/a	"image-keyboard-response"	"40"	"156364"	"0.0-4.0-3.0-2.0-1.1"	"sj4e3e"	"600"	"1366"	"chrome"	"110.0.0"	"FALSE"	"Windows 10"	"61.03"	"031"	n/a	n/a	n/a	n/a	n/a	n/a	"Trial"	n/a	n/a	n/a	"502"	"arrowleft"	n/a	"NULL"	"NULL"	"NULL"	"stimuli/VerticalHorizontal_3300000_0.90000.png"	n/a	"VerticalHorizontal"	"arrowleft"	"1163"	"TRUE"	"VerticalHorizontal"	"330000000000"	"0.9000000000"	"1"	"14"
n/a	"html-keyboard-response"	"41"	"157837"	"0.0-4.0-3.0-2.0-0.2"	"sj4e3e"	"600"	"1366"	"chrome"	"110.0.0"	"FALSE"	"Windows 10"	"61.03"	"031"	n/a	n/a	n/a	n/a	n/a	n/a	"fixation"	n/a	n/a	n/a	n/a	"NULL"	n/a	"NULL"	"NULL"	"NULL"	"<p style=\"color: black; font-size: 80px; padding-left: 30%; padding-right: 27%; padding-top: 3%; padding-bottom: 11%\">+</p>"	"1464"	n/a	n/a	n/a	n/a	n/a	n/a	n/a	n/a	n/a
n/a	"image-keyboard-response"	"42"	"158263"	"0.0-4.0-3.0-2.0-1.2"	"sj4e3e"	"600"	"1366"	"chrome"	"110.0.0"	"FALSE"	"Windows 10"	"61.03"	"031"	n/a	n/a	n/a	n/a	n/a	n/a	"Trial"	n/a	n/a	n/a	"426"	"arrowleft"	n/a	"NULL"	"NULL"	"NULL"	"stimuli/VerticalHorizontal_-330000_0.90000.png"	n/a	"VerticalHorizontal"	"arrowleft"	"1473"	"TRUE"	"VerticalHorizontal"	"-33000000000"	"0.9000000000"	"1"	"15"
n/a	"html-keyboard-response"	"43"	"159271"	"0.0-4.0-3.0-2.0-0.3"	"sj4e3e"	"600"	"1366"	"chrome"	"110.0.0"	"FALSE"	"Windows 10"	"61.03"	"031"	n/a	n/a	n/a	n/a	n/a	n/a	"fixation"	n/a	n/a	n/a	n/a	"NULL"	n/a	"NULL"	"NULL"	"NULL"	"<p style=\"color: black; font-size: 80px; padding-left: 44%; padding-right: 33%; padding-top: 28%; padding-bottom: 47%\">+</p>"	"1004"	n/a	n/a	n/a	n/a	n/a	n/a	n/a	n/a	n/a
n/a	"image-keyboard-response"	"44"	"159886"	"0.0-4.0-3.0-2.0-1.3"	"sj4e3e"	"600"	"1366"	"chrome"	"110.0.0"	"FALSE"	"Windows 10"	"61.03"	"031"	n/a	n/a	n/a	n/a	n/a	n/a	"Trial"	n/a	n/a	n/a	"615"	"arrowleft"	n/a	"NULL"	"NULL"	"NULL"	"stimuli/VerticalHorizontal_0000000_0.90000.png"	n/a	"VerticalHorizontal"	"arrowleft"	"1008"	"TRUE"	"VerticalHorizontal"	"000000000000"	"0.9000000000"	"1"	"16"
n/a	"html-keyboard-response"	"45"	"161221"	"0.0-4.0-3.0-2.0-0.4"	"sj4e3e"	"600"	"1366"	"chrome"	"110.0.0"	"FALSE"	"Windows 10"	"61.03"	"031"	n/a	n/a	n/a	n/a	n/a	n/a	"fixation"	n/a	n/a	n/a	n/a	"NULL"	n/a	"NULL"	"NULL"	"NULL"	"<p style=\"color: black; font-size: 80px; padding-left: 4%; padding-right: 1%; padding-top: 3%; padding-bottom: 9%\">+</p>"	"1327"	n/a	n/a	n/a	n/a	n/a	n/a	n/a	n/a	n/a
n/a	"image-keyboard-response"	"46"	"161673"	"0.0-4.0-3.0-2.0-1.4"	"sj4e3e"	"600"	"1366"	"chrome"	"110.0.0"	"FALSE"	"Windows 10"	"61.03"	"031"	n/a	n/a	n/a	n/a	n/a	n/a	"Trial"	n/a	n/a	n/a	"451"	"arrowright"	n/a	"NULL"	"NULL"	"NULL"	"stimuli/VerticalHorizontal_0000000_-0.9000.png"	n/a	"VerticalHorizontal"	"arrowright"	"1335"	"TRUE"	"VerticalHorizontal"	"000000000000"	"-0.900000000"	"1"	"17"
n/a	"html-keyboard-response"	"47"	"163126"	"0.0-4.0-3.0-2.0-0.5"	"sj4e3e"	"600"	"1366"	"chrome"	"110.0.0"	"FALSE"	"Windows 10"	"61.03"	"031"	n/a	n/a	n/a	n/a	n/a	n/a	"fixation"	n/a	n/a	n/a	n/a	"NULL"	n/a	"NULL"	"NULL"	"NULL"	"<p style=\"color: black; font-size: 80px; padding-left: 46%; padding-right: 8%; padding-top: 38%; padding-bottom: 36%\">+</p>"	"1445"	n/a	n/a	n/a	n/a	n/a	n/a	n/a	n/a	n/a
n/a	"image-keyboard-response"	"48"	"163576"	"0.0-4.0-3.0-2.0-1.5"	"sj4e3e"	"600"	"1366"	"chrome"	"110.0.0"	"FALSE"	"Windows 10"	"61.03"	"031"	n/a	n/a	n/a	n/a	n/a	n/a	"Trial"	n/a	n/a	n/a	"449"	"arrowright"	n/a	"NULL"	"NULL"	"NULL"	"stimuli/VerticalHorizontal_-330000_-0.9000.png"	n/a	"VerticalHorizontal"	"arrowright"	"1453"	"TRUE"	"VerticalHorizontal"	"-33000000000"	"-0.900000000"	"1"	"18"
n/a	"html-button-response"	"49"	"165671"	"0.0-4.0-3.0-3.0"	"sj4e3e"	"600"	"1366"	"chrome"	"110.0.0"	"FALSE"	"Windows 10"	"61.03"	"031"	n/a	n/a	n/a	n/a	n/a	n/a	"practice_block_results"	n/a	n/a	n/a	"2094"	"0"	n/a	"NULL"	"NULL"	"NULL"	"<p style='color:rgb(76,175,80);'> Correct Responses: <b>100.00%</b></p><hr><p style='color:rgb(233,30,99);'> Average Response Time: <b>491.50</b> ms.</p>"	n/a	n/a	n/a	n/a	n/a	n/a	n/a	n/a	n/a	n/a
n/a	"html-button-response"	"50"	"239278"	"0.0-4.0-4.0"	"sj4e3e"	"600"	"1366"	"chrome"	"110.0.0"	"FALSE"	"Windows 10"	"61.03"	"031"	n/a	n/a	n/a	n/a	n/a	n/a	"practice_debrief"	n/a	n/a	n/a	"73106"	"0"	n/a	"NULL"	"NULL"	"NULL"	"<p><b>TRAINING COMPLETED</b></p><p>In the next phase, there will be more trials, and some might be harder too.<br> Moreover, after each illusion block, a <b>score</b> will be calculated based on speed (time you took to answer) and accuracy (number of errors).</p><p>Try to keep up a high score!</p><br><p>Note that it can be <i>really</i> challenging at times, so you will need to rely on your <b>intuition</b> and gut feeling to answer as fast as you can without making errors.</p><p>Each illusion block will be repeated two times (so that you have the opportunity to improve your score), but the order of the blocks is random.</p><p>Remember, your goal is to be as <b>fast</b> and <b>accurate</b> as possible. Good luck!</p><br>"	n/a	n/a	n/a	n/a	n/a	n/a	n/a	n/a	n/a	n/a
"TRUE"	"preload"	"51"	"239431"	"0.0-5.0-0.0"	"sj4e3e"	"600"	"1366"	"chrome"	"110.0.0"	"FALSE"	"Windows 10"	"61.03"	"031"	n/a	n/a	n/a	n/a	n/a	n/a	n/a	n/a	n/a	n/a	n/a	"NULL"	"FALSE"	"list()"	"list()"	"list()"	n/a	n/a	n/a	n/a	n/a	n/a	n/a	n/a	n/a	n/a	n/a
n/a	"html-keyboard-response"	"52"	"242794"	"0.0-5.0-1.0"	"sj4e3e"	"600"	"1366"	"chrome"	"110.0.0"	"FALSE"	"Windows 10"	"61.03"	"031"	n/a	n/a	n/a	n/a	n/a	n/a	n/a	n/a	n/a	n/a	"3363"	"enter"	n/a	"NULL"	"NULL"	"NULL"	"<p><b>Part 1/6</b></p><p>In this part, two red circles will appear side by side on the screen.</p><p>Your task is to select which <b>red circle is bigger</b> in size as fast as you can, without making errors.</p><p>Don't get distracted by the surrounding black circles around the red circles!</p><p>Press <b>the LEFT or the RIGHT arrow</b> to indicate which is the bigger <b>red circle.</b></p><div style='float: center'><img src='materials/instructions/Ebbinghaus_Demo.png' height='300'></img><p><img src='utils/answer/answer_leftright_keyboard.PNG' height='150'></img></p><p class='small'>In this example, the correct answer is the <b>LEFT arrow</b>.</p></div><p>Are you ready? <b>Press ENTER to start</b></p>"	n/a	n/a	n/a	n/a	n/a	n/a	n/a	n/a	n/a	n/a
n/a	"html-keyboard-response"	"53"	"244677"	"0.0-5.0-2.0-0.0"	"sj4e3e"	"600"	"1366"	"chrome"	"110.0.0"	"FALSE"	"Windows 10"	"61.03"	"031"	n/a	n/a	n/a	n/a	n/a	n/a	"fixation"	n/a	n/a	n/a	n/a	"NULL"	n/a	"NULL"	"NULL"	"NULL"	"<p style=\"color: black; font-size: 80px; padding-left: 21%; padding-right: 31%; padding-top: 20%; padding-bottom: 48%\">+</p>"	"1369"	n/a	n/a	n/a	n/a	n/a	n/a	n/a	n/a	n/a
n/a	"image-keyboard-response"	"54"	"245476"	"0.0-5.0-2.0-1.0"	"sj4e3e"	"600"	"1366"	"chrome"	"110.0.0"	"FALSE"	"Windows 10"	"61.03"	"031"	n/a	n/a	n/a	n/a	n/a	n/a	"Trial"	n/a	n/a	n/a	"799"	"arrowleft"	n/a	"NULL"	"NULL"	"NULL"	"stimuli/Ebbinghaus_0.87143_-0.11071.png"	n/a	"Ebbinghaus"	"arrowright"	"1883"	"FALSE"	"Ebbinghaus"	"0.8714300000"	"-0.110710000"	"1"	"19"
n/a	"html-keyboard-response"	"55"	"246739"	"0.0-5.0-2.0-0.1"	"sj4e3e"	"600"	"1366"	"chrome"	"110.0.0"	"FALSE"	"Windows 10"	"61.03"	"031"	n/a	n/a	n/a	n/a	n/a	n/a	"fixation"	n/a	n/a	n/a	n/a	"NULL"	n/a	"NULL"	"NULL"	"NULL"	"<p style=\"color: black; font-size: 80px; padding-left: 10%; padding-right: 3%; padding-top: 24%; padding-bottom: 17%\">+</p>"	"1260"	n/a	n/a	n/a	n/a	n/a	n/a	n/a	n/a	n/a
n/a	"image-keyboard-response"	"56"	"247665"	"0.0-5.0-2.0-1.1"	"sj4e3e"	"600"	"1366"	"chrome"	"110.0.0"	"FALSE"	"Windows 10"	"61.03"	"031"	n/a	n/a	n/a	n/a	n/a	n/a	"Trial"	n/a	n/a	n/a	"925"	"arrowleft"	n/a	"NULL"	"NULL"	"NULL"	"stimuli/Ebbinghaus_0.87143_0.21500.png"	n/a	"Ebbinghaus"	"arrowleft"	"1263"	"TRUE"	"Ebbinghaus"	"0.8714300000"	"0.2150000000"	"1"	"20"
n/a	"html-keyboard-response"	"57"	"249046"	"0.0-5.0-2.0-0.2"	"sj4e3e"	"600"	"1366"	"chrome"	"110.0.0"	"FALSE"	"Windows 10"	"61.03"	"031"	n/a	n/a	n/a	n/a	n/a	n/a	"fixation"	n/a	n/a	n/a	n/a	"NULL"	n/a	"NULL"	"NULL"	"NULL"	"<p style=\"color: black; font-size: 80px; padding-left: 46%; padding-right: 45%; padding-top: 11%; padding-bottom: 1%\">+</p>"	"1376"	n/a	n/a	n/a	n/a	n/a	n/a	n/a	n/a	n/a
n/a	"image-keyboard-response"	"58"	"249936"	"0.0-5.0-2.0-1.2"	"sj4e3e"	"600"	"1366"	"chrome"	"110.0.0"	"FALSE"	"Windows 10"	"61.03"	"031"	n/a	n/a	n/a	n/a	n/a	n/a	"Trial"	n/a	n/a	n/a	"888"	"arrowright"	n/a	"NULL"	"NULL"	"NULL"	"stimuli/Ebbinghaus_0.35714_0.15857.png"	n/a	"Ebbinghaus"	"arrowleft"	"1381"	"FALSE"	"Ebbinghaus"	"0.3571400000"	"0.1585700000"	"1"	"21"
n/a	"html-keyboard-response"	"59"	"251271"	"0.0-5.0-2.0-0.3"	"sj4e3e"	"600"	"1366"	"chrome"	"110.0.0"	"FALSE"	"Windows 10"	"61.03"	"031"	n/a	n/a	n/a	n/a	n/a	n/a	"fixation"	n/a	n/a	n/a	n/a	"NULL"	n/a	"NULL"	"NULL"	"NULL"	"<p style=\"color: black; font-size: 80px; padding-left: 15%; padding-right: 34%; padding-top: 10%; padding-bottom: 2%\">+</p>"	"1333"	n/a	n/a	n/a	n/a	n/a	n/a	n/a	n/a	n/a
n/a	"image-keyboard-response"	"60"	"252174"	"0.0-5.0-2.0-1.3"	"sj4e3e"	"600"	"1366"	"chrome"	"110.0.0"	"FALSE"	"Windows 10"	"61.03"	"031"	n/a	n/a	n/a	n/a	n/a	n/a	"Trial"	n/a	n/a	n/a	"903"	"arrowleft"	n/a	"NULL"	"NULL"	"NULL"	"stimuli/Ebbinghaus_-0.61429_0.21500.png"	n/a	"Ebbinghaus"	"arrowleft"	"1335"	"TRUE"	"Ebbinghaus"	"-0.614290000"	"0.2150000000"	"1"	"22"
n/a	"html-keyboard-response"	"61"	"253555"	"0.0-5.0-2.0-0.4"	"sj4e3e"	"600"	"1366"	"chrome"	"110.0.0"	"FALSE"	"Windows 10"	"61.03"	"031"	n/a	n/a	n/a	n/a	n/a	n/a	"fixation"	n/a	n/a	n/a	n/a	"NULL"	n/a	"NULL"	"NULL"	"NULL"	"<p style=\"color: black; font-size: 80px; padding-left: 5%; padding-right: 8%; padding-top: 50%; padding-bottom: 4%\">+</p>"	"1378"	n/a	n/a	n/a	n/a	n/a	n/a	n/a	n/a	n/a
n/a	"image-keyboard-response"	"62"	"254685"	"0.0-5.0-2.0-1.4"	"sj4e3e"	"600"	"1366"	"chrome"	"110.0.0"	"FALSE"	"Windows 10"	"61.03"	"031"	n/a	n/a	n/a	n/a	n/a	n/a	"Trial"	n/a	n/a	n/a	"1129"	"arrowright"	n/a	"NULL"	"NULL"	"NULL"	"stimuli/Ebbinghaus_0.10000_-0.11071.png"	n/a	"Ebbinghaus"	"arrowright"	"1381"	"TRUE"	"Ebbinghaus"	"0.1000000000"	"-0.110710000"	"1"	"23"
n/a	"html-keyboard-response"	"63"	"256124"	"0.0-5.0-2.0-0.5"	"sj4e3e"	"600"	"1366"	"chrome"	"110.0.0"	"FALSE"	"Windows 10"	"61.03"	"031"	n/a	n/a	n/a	n/a	n/a	n/a	"fixation"	n/a	n/a	n/a	n/a	"NULL"	n/a	"NULL"	"NULL"	"NULL"	"<p style=\"color: black; font-size: 80px; padding-left: 38%; padding-right: 44%; padding-top: 40%; padding-bottom: 31%\">+</p>"	"1436"	n/a	n/a	n/a	n/a	n/a	n/a	n/a	n/a	n/a
n/a	"image-keyboard-response"	"64"	"256759"	"0.0-5.0-2.0-1.5"	"sj4e3e"	"600"	"1366"	"chrome"	"110.0.0"	"FALSE"	"Windows 10"	"61.03"	"031"	n/a	n/a	n/a	n/a	n/a	n/a	"Trial"	n/a	n/a	n/a	"634"	"arrowleft"	n/a	"NULL"	"NULL"	"NULL"	"stimuli/Ebbinghaus_-0.35714_0.21500.png"	n/a	"Ebbinghaus"	"arrowleft"	"1439"	"TRUE"	"Ebbinghaus"	"-0.357140000"	"0.2150000000"	"1"	"24"
n/a	"html-keyboard-response"	"65"	"257945"	"0.0-5.0-2.0-0.6"	"sj4e3e"	"600"	"1366"	"chrome"	"110.0.0"	"FALSE"	"Windows 10"	"61.03"	"031"	n/a	n/a	n/a	n/a	n/a	n/a	"fixation"	n/a	n/a	n/a	n/a	"NULL"	n/a	"NULL"	"NULL"	"NULL"	"<p style=\"color: black; font-size: 80px; padding-left: 44%; padding-right: 3%; padding-top: 29%; padding-bottom: 10%\">+</p>"	"1169"	n/a	n/a	n/a	n/a	n/a	n/a	n/a	n/a	n/a
n/a	"image-keyboard-response"	"66"	"258635"	"0.0-5.0-2.0-1.6"	"sj4e3e"	"600"	"1366"	"chrome"	"110.0.0"	"FALSE"	"Windows 10"	"61.03"	"031"	n/a	n/a	n/a	n/a	n/a	n/a	"Trial"	n/a	n/a	n/a	"690"	"arrowright"	n/a	"NULL"	"NULL"	"NULL"	"stimuli/Ebbinghaus_-0.1000_-0.2800.png"	n/a	"Ebbinghaus"	"arrowright"	"1186"	"TRUE"	"Ebbinghaus"	"-0.100000000"	"-0.280000000"	"1"	"25"
n/a	"html-keyboard-response"	"67"	"259899"	"0.0-5.0-2.0-0.7"	"sj4e3e"	"600"	"1366"	"chrome"	"110.0.0"	"FALSE"	"Windows 10"	"61.03"	"031"	n/a	n/a	n/a	n/a	n/a	n/a	"fixation"	n/a	n/a	n/a	n/a	"NULL"	n/a	"NULL"	"NULL"	"NULL"	"<p style=\"color: black; font-size: 80px; padding-left: 12%; padding-right: 34%; padding-top: 6%; padding-bottom: 16%\">+</p>"	"1252"	n/a	n/a	n/a	n/a	n/a	n/a	n/a	n/a	n/a
n/a	"image-keyboard-response"	"68"	"260593"	"0.0-5.0-2.0-1.7"	"sj4e3e"	"600"	"1366"	"chrome"	"110.0.0"	"FALSE"	"Windows 10"	"61.03"	"031"	n/a	n/a	n/a	n/a	n/a	n/a	"Trial"	n/a	n/a	n/a	"693"	"arrowright"	n/a	"NULL"	"NULL"	"NULL"	"stimuli/Ebbinghaus_-0.87143_-0.2800.png"	n/a	"Ebbinghaus"	"arrowright"	"1264"	"TRUE"	"Ebbinghaus"	"-0.871430000"	"-0.280000000"	"1"	"26"
n/a	"html-keyboard-response"	"69"	"261937"	"0.0-5.0-2.0-0.8"	"sj4e3e"	"600"	"1366"	"chrome"	"110.0.0"	"FALSE"	"Windows 10"	"61.03"	"031"	n/a	n/a	n/a	n/a	n/a	n/a	"fixation"	n/a	n/a	n/a	n/a	"NULL"	n/a	"NULL"	"NULL"	"NULL"	"<p style=\"color: black; font-size: 80px; padding-left: 31%; padding-right: 3%; padding-top: 37%; padding-bottom: 43%\">+</p>"	"1338"	n/a	n/a	n/a	n/a	n/a	n/a	n/a	n/a	n/a
n/a	"image-keyboard-response"	"70"	"262546"	"0.0-5.0-2.0-1.8"	"sj4e3e"	"600"	"1366"	"chrome"	"110.0.0"	"FALSE"	"Windows 10"	"61.03"	"031"	n/a	n/a	n/a	n/a	n/a	n/a	"Trial"	n/a	n/a	n/a	"608"	"arrowleft"	n/a	"NULL"	"NULL"	"NULL"	"stimuli/Ebbinghaus_-0.61429_0.28000.png"	n/a	"Ebbinghaus"	"arrowleft"	"1344"	"TRUE"	"Ebbinghaus"	"-0.614290000"	"0.2800000000"	"1"	"27"
n/a	"html-keyboard-response"	"71"	"263876"	"0.0-5.0-2.0-0.9"	"sj4e3e"	"600"	"1366"	"chrome"	"110.0.0"	"FALSE"	"Windows 10"	"61.03"	"031"	n/a	n/a	n/a	n/a	n/a	n/a	"fixation"	n/a	n/a	n/a	n/a	"NULL"	n/a	"NULL"	"NULL"	"NULL"	"<p style=\"color: black; font-size: 80px; padding-left: 16%; padding-right: 5%; padding-top: 49%; padding-bottom: 40%\">+</p>"	"1325"	n/a	n/a	n/a	n/a	n/a	n/a	n/a	n/a	n/a
n/a	"image-keyboard-response"	"72"	"264535"	"0.0-5.0-2.0-1.9"	"sj4e3e"	"600"	"1366"	"chrome"	"110.0.0"	"FALSE"	"Windows 10"	"61.03"	"031"	n/a	n/a	n/a	n/a	n/a	n/a	"Trial"	n/a	n/a	n/a	"658"	"arrowright"	n/a	"NULL"	"NULL"	"NULL"	"stimuli/Ebbinghaus_0.87143_0.15857.png"	n/a	"Ebbinghaus"	"arrowleft"	"1330"	"FALSE"	"Ebbinghaus"	"0.8714300000"	"0.1585700000"	"1"	"28"
n/a	"html-keyboard-response"	"73"	"265659"	"0.0-5.0-2.0-0.10"	"sj4e3e"	"600"	"1366"	"chrome"	"110.0.0"	"FALSE"	"Windows 10"	"61.03"	"031"	n/a	n/a	n/a	n/a	n/a	n/a	"fixation"	n/a	n/a	n/a	n/a	"NULL"	n/a	"NULL"	"NULL"	"NULL"	"<p style=\"color: black; font-size: 80px; padding-left: 37%; padding-right: 45%; padding-top: 4%; padding-bottom: 23%\">+</p>"	"1116"	n/a	n/a	n/a	n/a	n/a	n/a	n/a	n/a	n/a
n/a	"image-keyboard-response"	"74"	"266743"	"0.0-5.0-2.0-1.10"	"sj4e3e"	"600"	"1366"	"chrome"	"110.0.0"	"FALSE"	"Windows 10"	"61.03"	"031"	n/a	n/a	n/a	n/a	n/a	n/a	"Trial"	n/a	n/a	n/a	"1082"	"arrowleft"	n/a	"NULL"	"NULL"	"NULL"	"stimuli/Ebbinghaus_0.87143_-0.15857.png"	n/a	"Ebbinghaus"	"arrowright"	"1124"	"FALSE"	"Ebbinghaus"	"0.8714300000"	"-0.158570000"	"1"	"29"
n/a	"html-keyboard-response"	"75"	"267960"	"0.0-5.0-2.0-0.11"	"sj4e3e"	"600"	"1366"	"chrome"	"110.0.0"	"FALSE"	"Windows 10"	"61.03"	"031"	n/a	n/a	n/a	n/a	n/a	n/a	"fixation"	n/a	n/a	n/a	n/a	"NULL"	n/a	"NULL"	"NULL"	"NULL"	"<p style=\"color: black; font-size: 80px; padding-left: 46%; padding-right: 15%; padding-top: 19%; padding-bottom: 9%\">+</p>"	"1202"	n/a	n/a	n/a	n/a	n/a	n/a	n/a	n/a	n/a
n/a	"image-keyboard-response"	"76"	"268667"	"0.0-5.0-2.0-1.11"	"sj4e3e"	"600"	"1366"	"chrome"	"110.0.0"	"FALSE"	"Windows 10"	"61.03"	"031"	n/a	n/a	n/a	n/a	n/a	n/a	"Trial"	n/a	n/a	n/a	"707"	"arrowleft"	n/a	"NULL"	"NULL"	"NULL"	"stimuli/Ebbinghaus_-0.1000_0.15857.png"	n/a	"Ebbinghaus"	"arrowleft"	"1217"	"TRUE"	"Ebbinghaus"	"-0.100000000"	"0.1585700000"	"1"	"30"
n/a	"html-keyboard-response"	"77"	"270125"	"0.0-5.0-2.0-0.12"	"sj4e3e"	"600"	"1366"	"chrome"	"110.0.0"	"FALSE"	"Windows 10"	"61.03"	"031"	n/a	n/a	n/a	n/a	n/a	n/a	"fixation"	n/a	n/a	n/a	n/a	"NULL"	n/a	"NULL"	"NULL"	"NULL"	"<p style=\"color: black; font-size: 80px; padding-left: 9%; padding-right: 33%; padding-top: 39%; padding-bottom: 43%\">+</p>"	"1454"	n/a	n/a	n/a	n/a	n/a	n/a	n/a	n/a	n/a
n/a	"image-keyboard-response"	"78"	"270957"	"0.0-5.0-2.0-1.12"	"sj4e3e"	"600"	"1366"	"chrome"	"110.0.0"	"FALSE"	"Windows 10"	"61.03"	"031"	n/a	n/a	n/a	n/a	n/a	n/a	"Trial"	n/a	n/a	n/a	"831"	"arrowright"	n/a	"NULL"	"NULL"	"NULL"	"stimuli/Ebbinghaus_0.10000_-0.2800.png"	n/a	"Ebbinghaus"	"arrowright"	"1458"	"TRUE"	"Ebbinghaus"	"0.1000000000"	"-0.280000000"	"1"	"31"
n/a	"html-keyboard-response"	"79"	"272089"	"0.0-5.0-2.0-0.13"	"sj4e3e"	"600"	"1366"	"chrome"	"110.0.0"	"FALSE"	"Windows 10"	"61.03"	"031"	n/a	n/a	n/a	n/a	n/a	n/a	"fixation"	n/a	n/a	n/a	n/a	"NULL"	n/a	"NULL"	"NULL"	"NULL"	"<p style=\"color: black; font-size: 80px; padding-left: 48%; padding-right: 4%; padding-top: 50%; padding-bottom: 30%\">+</p>"	"1131"	n/a	n/a	n/a	n/a	n/a	n/a	n/a	n/a	n/a
n/a	"image-keyboard-response"	"80"	"272854"	"0.0-5.0-2.0-1.13"	"sj4e3e"	"600"	"1366"	"chrome"	"110.0.0"	"FALSE"	"Windows 10"	"61.03"	"031"	n/a	n/a	n/a	n/a	n/a	n/a	"Trial"	n/a	n/a	n/a	"763"	"arrowleft"	n/a	"NULL"	"NULL"	"NULL"	"stimuli/Ebbinghaus_-0.87143_0.28000.png"	n/a	"Ebbinghaus"	"arrowleft"	"1132"	"TRUE"	"Ebbinghaus"	"-0.871430000"	"0.2800000000"	"1"	"32"
n/a	"html-keyboard-response"	"81"	"274009"	"0.0-5.0-2.0-0.14"	"sj4e3e"	"600"	"1366"	"chrome"	"110.0.0"	"FALSE"	"Windows 10"	"61.03"	"031"	n/a	n/a	n/a	n/a	n/a	n/a	"fixation"	n/a	n/a	n/a	n/a	"NULL"	n/a	"NULL"	"NULL"	"NULL"	"<p style=\"color: black; font-size: 80px; padding-left: 7%; padding-right: 14%; padding-top: 44%; padding-bottom: 15%\">+</p>"	"1152"	n/a	n/a	n/a	n/a	n/a	n/a	n/a	n/a	n/a
n/a	"image-keyboard-response"	"82"	"274630"	"0.0-5.0-2.0-1.14"	"sj4e3e"	"600"	"1366"	"chrome"	"110.0.0"	"FALSE"	"Windows 10"	"61.03"	"031"	n/a	n/a	n/a	n/a	n/a	n/a	"Trial"	n/a	n/a	n/a	"620"	"arrowright"	n/a	"NULL"	"NULL"	"NULL"	"stimuli/Ebbinghaus_-0.35714_-0.2150.png"	n/a	"Ebbinghaus"	"arrowright"	"1155"	"TRUE"	"Ebbinghaus"	"-0.357140000"	"-0.215000000"	"1"	"33"
n/a	"html-keyboard-response"	"83"	"275723"	"0.0-5.0-2.0-0.15"	"sj4e3e"	"600"	"1366"	"chrome"	"110.0.0"	"FALSE"	"Windows 10"	"61.03"	"031"	n/a	n/a	n/a	n/a	n/a	n/a	"fixation"	n/a	n/a	n/a	n/a	"NULL"	n/a	"NULL"	"NULL"	"NULL"	"<p style=\"color: black; font-size: 80px; padding-left: 6%; padding-right: 49%; padding-top: 22%; padding-bottom: 22%\">+</p>"	"1085"	n/a	n/a	n/a	n/a	n/a	n/a	n/a	n/a	n/a
n/a	"image-keyboard-response"	"84"	"276131"	"0.0-5.0-2.0-1.15"	"sj4e3e"	"600"	"1366"	"chrome"	"110.0.0"	"FALSE"	"Windows 10"	"61.03"	"031"	n/a	n/a	n/a	n/a	n/a	n/a	"Trial"	n/a	n/a	n/a	"406"	"arrowleft"	n/a	"NULL"	"NULL"	"NULL"	"stimuli/Ebbinghaus_0.10000_0.28000.png"	n/a	"Ebbinghaus"	"arrowleft"	"1093"	"TRUE"	"Ebbinghaus"	"0.1000000000"	"0.2800000000"	"1"	"34"
n/a	"html-keyboard-response"	"85"	"277496"	"0.0-5.0-2.0-0.16"	"sj4e3e"	"600"	"1366"	"chrome"	"110.0.0"	"FALSE"	"Windows 10"	"61.03"	"031"	n/a	n/a	n/a	n/a	n/a	n/a	"fixation"	n/a	n/a	n/a	n/a	"NULL"	n/a	"NULL"	"NULL"	"NULL"	"<p style=\"color: black; font-size: 80px; padding-left: 30%; padding-right: 33%; padding-top: 39%; padding-bottom: 42%\">+</p>"	"1352"	n/a	n/a	n/a	n/a	n/a	n/a	n/a	n/a	n/a
n/a	"image-keyboard-response"	"86"	"278246"	"0.0-5.0-2.0-1.16"	"sj4e3e"	"600"	"1366"	"chrome"	"110.0.0"	"FALSE"	"Windows 10"	"61.03"	"031"	n/a	n/a	n/a	n/a	n/a	n/a	"Trial"	n/a	n/a	n/a	"748"	"arrowleft"	n/a	"NULL"	"NULL"	"NULL"	"stimuli/Ebbinghaus_0.61429_0.15857.png"	n/a	"Ebbinghaus"	"arrowleft"	"1365"	"TRUE"	"Ebbinghaus"	"0.6142900000"	"0.1585700000"	"1"	"35"
n/a	"html-keyboard-response"	"87"	"279564"	"0.0-5.0-2.0-0.17"	"sj4e3e"	"600"	"1366"	"chrome"	"110.0.0"	"FALSE"	"Windows 10"	"61.03"	"031"	n/a	n/a	n/a	n/a	n/a	n/a	"fixation"	n/a	n/a	n/a	n/a	"NULL"	n/a	"NULL"	"NULL"	"NULL"	"<p style=\"color: black; font-size: 80px; padding-left: 25%; padding-right: 19%; padding-top: 14%; padding-bottom: 24%\">+</p>"	"1315"	n/a	n/a	n/a	n/a	n/a	n/a	n/a	n/a	n/a
n/a	"image-keyboard-response"	"88"	"280261"	"0.0-5.0-2.0-1.17"	"sj4e3e"	"600"	"1366"	"chrome"	"110.0.0"	"FALSE"	"Windows 10"	"61.03"	"031"	n/a	n/a	n/a	n/a	n/a	n/a	"Trial"	n/a	n/a	n/a	"697"	"arrowright"	n/a	"NULL"	"NULL"	"NULL"	"stimuli/Ebbinghaus_-0.35714_-0.11071.png"	n/a	"Ebbinghaus"	"arrowright"	"1318"	"TRUE"	"Ebbinghaus"	"-0.357140000"	"-0.110710000"	"1"	"36"
n/a	"html-keyboard-response"	"89"	"281593"	"0.0-5.0-2.0-0.18"	"sj4e3e"	"600"	"1366"	"chrome"	"110.0.0"	"FALSE"	"Windows 10"	"61.03"	"031"	n/a	n/a	n/a	n/a	n/a	n/a	"fixation"	n/a	n/a	n/a	n/a	"NULL"	n/a	"NULL"	"NULL"	"NULL"	"<p style=\"color: black; font-size: 80px; padding-left: 31%; padding-right: 44%; padding-top: 22%; padding-bottom: 35%\">+</p>"	"1320"	n/a	n/a	n/a	n/a	n/a	n/a	n/a	n/a	n/a
n/a	"image-keyboard-response"	"90"	"282247"	"0.0-5.0-2.0-1.18"	"sj4e3e"	"600"	"1366"	"chrome"	"110.0.0"	"FALSE"	"Windows 10"	"61.03"	"031"	n/a	n/a	n/a	n/a	n/a	n/a	"Trial"	n/a	n/a	n/a	"653"	"arrowleft"	n/a	"NULL"	"NULL"	"NULL"	"stimuli/Ebbinghaus_0.35714_0.21500.png"	n/a	"Ebbinghaus"	"arrowleft"	"1332"	"TRUE"	"Ebbinghaus"	"0.3571400000"	"0.2150000000"	"1"	"37"
n/a	"html-keyboard-response"	"91"	"283718"	"0.0-5.0-2.0-0.19"	"sj4e3e"	"600"	"1366"	"chrome"	"110.0.0"	"FALSE"	"Windows 10"	"61.03"	"031"	n/a	n/a	n/a	n/a	n/a	n/a	"fixation"	n/a	n/a	n/a	n/a	"NULL"	n/a	"NULL"	"NULL"	"NULL"	"<p style=\"color: black; font-size: 80px; padding-left: 4%; padding-right: 43%; padding-top: 36%; padding-bottom: 26%\">+</p>"	"1458"	n/a	n/a	n/a	n/a	n/a	n/a	n/a	n/a	n/a
n/a	"image-keyboard-response"	"92"	"284314"	"0.0-5.0-2.0-1.19"	"sj4e3e"	"600"	"1366"	"chrome"	"110.0.0"	"FALSE"	"Windows 10"	"61.03"	"031"	n/a	n/a	n/a	n/a	n/a	n/a	"Trial"	n/a	n/a	n/a	"595"	"arrowleft"	n/a	"NULL"	"NULL"	"NULL"	"stimuli/Ebbinghaus_-0.61429_0.15857.png"	n/a	"Ebbinghaus"	"arrowleft"	"1471"	"TRUE"	"Ebbinghaus"	"-0.614290000"	"0.1585700000"	"1"	"38"
n/a	"html-keyboard-response"	"93"	"285625"	"0.0-5.0-2.0-0.20"	"sj4e3e"	"600"	"1366"	"chrome"	"110.0.0"	"FALSE"	"Windows 10"	"61.03"	"031"	n/a	n/a	n/a	n/a	n/a	n/a	"fixation"	n/a	n/a	n/a	n/a	"NULL"	n/a	"NULL"	"NULL"	"NULL"	"<p style=\"color: black; font-size: 80px; padding-left: 42%; padding-right: 29%; padding-top: 47%; padding-bottom: 10%\">+</p>"	"1300"	n/a	n/a	n/a	n/a	n/a	n/a	n/a	n/a	n/a
n/a	"image-keyboard-response"	"94"	"286353"	"0.0-5.0-2.0-1.20"	"sj4e3e"	"600"	"1366"	"chrome"	"110.0.0"	"FALSE"	"Windows 10"	"61.03"	"031"	n/a	n/a	n/a	n/a	n/a	n/a	"Trial"	n/a	n/a	n/a	"727"	"arrowright"	n/a	"NULL"	"NULL"	"NULL"	"stimuli/Ebbinghaus_0.10000_-0.15857.png"	n/a	"Ebbinghaus"	"arrowright"	"1311"	"TRUE"	"Ebbinghaus"	"0.1000000000"	"-0.158570000"	"1"	"39"
n/a	"html-keyboard-response"	"95"	"287732"	"0.0-5.0-2.0-0.21"	"sj4e3e"	"600"	"1366"	"chrome"	"110.0.0"	"FALSE"	"Windows 10"	"61.03"	"031"	n/a	n/a	n/a	n/a	n/a	n/a	"fixation"	n/a	n/a	n/a	n/a	"NULL"	n/a	"NULL"	"NULL"	"NULL"	"<p style=\"color: black; font-size: 80px; padding-left: 39%; padding-right: 3%; padding-top: 5%; padding-bottom: 28%\">+</p>"	"1377"	n/a	n/a	n/a	n/a	n/a	n/a	n/a	n/a	n/a
n/a	"image-keyboard-response"	"96"	"288263"	"0.0-5.0-2.0-1.21"	"sj4e3e"	"600"	"1366"	"chrome"	"110.0.0"	"FALSE"	"Windows 10"	"61.03"	"031"	n/a	n/a	n/a	n/a	n/a	n/a	"Trial"	n/a	n/a	n/a	"530"	"arrowright"	n/a	"NULL"	"NULL"	"NULL"	"stimuli/Ebbinghaus_-0.61429_-0.2800.png"	n/a	"Ebbinghaus"	"arrowright"	"1379"	"TRUE"	"Ebbinghaus"	"-0.614290000"	"-0.280000000"	"1"	"40"
n/a	"html-keyboard-response"	"97"	"289578"	"0.0-5.0-2.0-0.22"	"sj4e3e"	"600"	"1366"	"chrome"	"110.0.0"	"FALSE"	"Windows 10"	"61.03"	"031"	n/a	n/a	n/a	n/a	n/a	n/a	"fixation"	n/a	n/a	n/a	n/a	"NULL"	n/a	"NULL"	"NULL"	"NULL"	"<p style=\"color: black; font-size: 80px; padding-left: 38%; padding-right: 45%; padding-top: 4%; padding-bottom: 43%\">+</p>"	"1302"	n/a	n/a	n/a	n/a	n/a	n/a	n/a	n/a	n/a
n/a	"image-keyboard-response"	"98"	"290451"	"0.0-5.0-2.0-1.22"	"sj4e3e"	"600"	"1366"	"chrome"	"110.0.0"	"FALSE"	"Windows 10"	"61.03"	"031"	n/a	n/a	n/a	n/a	n/a	n/a	"Trial"	n/a	n/a	n/a	"872"	"arrowright"	n/a	"NULL"	"NULL"	"NULL"	"stimuli/Ebbinghaus_0.87143_0.11071.png"	n/a	"Ebbinghaus"	"arrowleft"	"1315"	"FALSE"	"Ebbinghaus"	"0.8714300000"	"0.1107100000"	"1"	"41"
n/a	"html-keyboard-response"	"99"	"291876"	"0.0-5.0-2.0-0.23"	"sj4e3e"	"600"	"1366"	"chrome"	"110.0.0"	"FALSE"	"Windows 10"	"61.03"	"031"	n/a	n/a	n/a	n/a	n/a	n/a	"fixation"	n/a	n/a	n/a	n/a	"NULL"	n/a	"NULL"	"NULL"	"NULL"	"<p style=\"color: black; font-size: 80px; padding-left: 48%; padding-right: 30%; padding-top: 6%; padding-bottom: 24%\">+</p>"	"1409"	n/a	n/a	n/a	n/a	n/a	n/a	n/a	n/a	n/a
n/a	"image-keyboard-response"	"100"	"292474"	"0.0-5.0-2.0-1.23"	"sj4e3e"	"600"	"1366"	"chrome"	"110.0.0"	"FALSE"	"Windows 10"	"61.03"	"031"	n/a	n/a	n/a	n/a	n/a	n/a	"Trial"	n/a	n/a	n/a	"598"	"arrowright"	n/a	"NULL"	"NULL"	"NULL"	"stimuli/Ebbinghaus_0.35714_-0.11071.png"	n/a	"Ebbinghaus"	"arrowright"	"1425"	"TRUE"	"Ebbinghaus"	"0.3571400000"	"-0.110710000"	"1"	"42"
n/a	"html-keyboard-response"	"101"	"293629"	"0.0-5.0-2.0-0.24"	"sj4e3e"	"600"	"1366"	"chrome"	"110.0.0"	"FALSE"	"Windows 10"	"61.03"	"031"	n/a	n/a	n/a	n/a	n/a	n/a	"fixation"	n/a	n/a	n/a	n/a	"NULL"	n/a	"NULL"	"NULL"	"NULL"	"<p style=\"color: black; font-size: 80px; padding-left: 28%; padding-right: 9%; padding-top: 2%; padding-bottom: 48%\">+</p>"	"1144"	n/a	n/a	n/a	n/a	n/a	n/a	n/a	n/a	n/a
n/a	"image-keyboard-response"	"102"	"294153"	"0.0-5.0-2.0-1.24"	"sj4e3e"	"600"	"1366"	"chrome"	"110.0.0"	"FALSE"	"Windows 10"	"61.03"	"031"	n/a	n/a	n/a	n/a	n/a	n/a	"Trial"	n/a	n/a	n/a	"522"	"arrowleft"	n/a	"NULL"	"NULL"	"NULL"	"stimuli/Ebbinghaus_0.35714_-0.2150.png"	n/a	"Ebbinghaus"	"arrowright"	"1155"	"FALSE"	"Ebbinghaus"	"0.3571400000"	"-0.215000000"	"1"	"43"
n/a	"html-keyboard-response"	"103"	"295203"	"0.0-5.0-2.0-0.25"	"sj4e3e"	"600"	"1366"	"chrome"	"110.0.0"	"FALSE"	"Windows 10"	"61.03"	"031"	n/a	n/a	n/a	n/a	n/a	n/a	"fixation"	n/a	n/a	n/a	n/a	"NULL"	n/a	"NULL"	"NULL"	"NULL"	"<p style=\"color: black; font-size: 80px; padding-left: 25%; padding-right: 32%; padding-top: 1%; padding-bottom: 4%\">+</p>"	"1046"	n/a	n/a	n/a	n/a	n/a	n/a	n/a	n/a	n/a
n/a	"image-keyboard-response"	"104"	"295675"	"0.0-5.0-2.0-1.25"	"sj4e3e"	"600"	"1366"	"chrome"	"110.0.0"	"FALSE"	"Windows 10"	"61.03"	"031"	n/a	n/a	n/a	n/a	n/a	n/a	"Trial"	n/a	n/a	n/a	"472"	"arrowleft"	n/a	"NULL"	"NULL"	"NULL"	"stimuli/Ebbinghaus_0.61429_-0.15857.png"	n/a	"Ebbinghaus"	"arrowright"	"1050"	"FALSE"	"Ebbinghaus"	"0.6142900000"	"-0.158570000"	"1"	"44"
n/a	"html-keyboard-response"	"105"	"297094"	"0.0-5.0-2.0-0.26"	"sj4e3e"	"600"	"1366"	"chrome"	"110.0.0"	"FALSE"	"Windows 10"	"61.03"	"031"	n/a	n/a	n/a	n/a	n/a	n/a	"fixation"	n/a	n/a	n/a	n/a	"NULL"	n/a	"NULL"	"NULL"	"NULL"	"<p style=\"color: black; font-size: 80px; padding-left: 15%; padding-right: 49%; padding-top: 40%; padding-bottom: 39%\">+</p>"	"1413"	n/a	n/a	n/a	n/a	n/a	n/a	n/a	n/a	n/a
n/a	"image-keyboard-response"	"106"	"297505"	"0.0-5.0-2.0-1.26"	"sj4e3e"	"600"	"1366"	"chrome"	"110.0.0"	"FALSE"	"Windows 10"	"61.03"	"031"	n/a	n/a	n/a	n/a	n/a	n/a	"Trial"	n/a	n/a	n/a	"411"	"arrowleft"	n/a	"NULL"	"NULL"	"NULL"	"stimuli/Ebbinghaus_-0.1000_0.28000.png"	n/a	"Ebbinghaus"	"arrowleft"	"1419"	"TRUE"	"Ebbinghaus"	"-0.100000000"	"0.2800000000"	"1"	"45"
n/a	"html-keyboard-response"	"107"	"298853"	"0.0-5.0-2.0-0.27"	"sj4e3e"	"600"	"1366"	"chrome"	"110.0.0"	"FALSE"	"Windows 10"	"61.03"	"031"	n/a	n/a	n/a	n/a	n/a	n/a	"fixation"	n/a	n/a	n/a	n/a	"NULL"	n/a	"NULL"	"NULL"	"NULL"	"<p style=\"color: black; font-size: 80px; padding-left: 14%; padding-right: 4%; padding-top: 50%; padding-bottom: 46%\">+</p>"	"1342"	n/a	n/a	n/a	n/a	n/a	n/a	n/a	n/a	n/a
n/a	"image-keyboard-response"	"108"	"299466"	"0.0-5.0-2.0-1.27"	"sj4e3e"	"600"	"1366"	"chrome"	"110.0.0"	"FALSE"	"Windows 10"	"61.03"	"031"	n/a	n/a	n/a	n/a	n/a	n/a	"Trial"	n/a	n/a	n/a	"612"	"arrowright"	n/a	"NULL"	"NULL"	"NULL"	"stimuli/Ebbinghaus_-0.87143_-0.2150.png"	n/a	"Ebbinghaus"	"arrowright"	"1348"	"TRUE"	"Ebbinghaus"	"-0.871430000"	"-0.215000000"	"1"	"46"
n/a	"html-keyboard-response"	"109"	"300709"	"0.0-5.0-2.0-0.28"	"sj4e3e"	"600"	"1366"	"chrome"	"110.0.0"	"FALSE"	"Windows 10"	"61.03"	"031"	n/a	n/a	n/a	n/a	n/a	n/a	"fixation"	n/a	n/a	n/a	n/a	"NULL"	n/a	"NULL"	"NULL"	"NULL"	"<p style=\"color: black; font-size: 80px; padding-left: 45%; padding-right: 19%; padding-top: 44%; padding-bottom: 9%\">+</p>"	"1233"	n/a	n/a	n/a	n/a	n/a	n/a	n/a	n/a	n/a
n/a	"image-keyboard-response"	"110"	"301484"	"0.0-5.0-2.0-1.28"	"sj4e3e"	"600"	"1366"	"chrome"	"110.0.0"	"FALSE"	"Windows 10"	"61.03"	"031"	n/a	n/a	n/a	n/a	n/a	n/a	"Trial"	n/a	n/a	n/a	"774"	"arrowright"	n/a	"NULL"	"NULL"	"NULL"	"stimuli/Ebbinghaus_0.35714_-0.2800.png"	n/a	"Ebbinghaus"	"arrowright"	"1243"	"TRUE"	"Ebbinghaus"	"0.3571400000"	"-0.280000000"	"1"	"47"
n/a	"html-keyboard-response"	"111"	"302796"	"0.0-5.0-2.0-0.29"	"sj4e3e"	"600"	"1366"	"chrome"	"110.0.0"	"FALSE"	"Windows 10"	"61.03"	"031"	n/a	n/a	n/a	n/a	n/a	n/a	"fixation"	n/a	n/a	n/a	n/a	"NULL"	n/a	"NULL"	"NULL"	"NULL"	"<p style=\"color: black; font-size: 80px; padding-left: 35%; padding-right: 41%; padding-top: 45%; padding-bottom: 26%\">+</p>"	"1301"	n/a	n/a	n/a	n/a	n/a	n/a	n/a	n/a	n/a
n/a	"image-keyboard-response"	"112"	"303389"	"0.0-5.0-2.0-1.29"	"sj4e3e"	"600"	"1366"	"chrome"	"110.0.0"	"FALSE"	"Windows 10"	"61.03"	"031"	n/a	n/a	n/a	n/a	n/a	n/a	"Trial"	n/a	n/a	n/a	"592"	"arrowleft"	n/a	"NULL"	"NULL"	"NULL"	"stimuli/Ebbinghaus_-0.61429_0.11071.png"	n/a	"Ebbinghaus"	"arrowleft"	"1312"	"TRUE"	"Ebbinghaus"	"-0.614290000"	"0.1107100000"	"1"	"48"
n/a	"html-keyboard-response"	"113"	"304876"	"0.0-5.0-2.0-0.30"	"sj4e3e"	"600"	"1366"	"chrome"	"110.0.0"	"FALSE"	"Windows 10"	"61.03"	"031"	n/a	n/a	n/a	n/a	n/a	n/a	"fixation"	n/a	n/a	n/a	n/a	"NULL"	n/a	"NULL"	"NULL"	"NULL"	"<p style=\"color: black; font-size: 80px; padding-left: 9%; padding-right: 45%; padding-top: 0%; padding-bottom: 42%\">+</p>"	"1474"	n/a	n/a	n/a	n/a	n/a	n/a	n/a	n/a	n/a
n/a	"image-keyboard-response"	"114"	"305375"	"0.0-5.0-2.0-1.30"	"sj4e3e"	"600"	"1366"	"chrome"	"110.0.0"	"FALSE"	"Windows 10"	"61.03"	"031"	n/a	n/a	n/a	n/a	n/a	n/a	"Trial"	n/a	n/a	n/a	"499"	"arrowright"	n/a	"NULL"	"NULL"	"NULL"	"stimuli/Ebbinghaus_0.87143_-0.2150.png"	n/a	"Ebbinghaus"	"arrowright"	"1487"	"TRUE"	"Ebbinghaus"	"0.8714300000"	"-0.215000000"	"1"	"49"
n/a	"html-keyboard-response"	"115"	"306702"	"0.0-5.0-2.0-0.31"	"sj4e3e"	"600"	"1366"	"chrome"	"110.0.0"	"FALSE"	"Windows 10"	"61.03"	"031"	n/a	n/a	n/a	n/a	n/a	n/a	"fixation"	n/a	n/a	n/a	n/a	"NULL"	n/a	"NULL"	"NULL"	"NULL"	"<p style=\"color: black; font-size: 80px; padding-left: 3%; padding-right: 42%; padding-top: 29%; padding-bottom: 23%\">+</p>"	"1319"	n/a	n/a	n/a	n/a	n/a	n/a	n/a	n/a	n/a
n/a	"image-keyboard-response"	"116"	"307230"	"0.0-5.0-2.0-1.31"	"sj4e3e"	"600"	"1366"	"chrome"	"110.0.0"	"FALSE"	"Windows 10"	"61.03"	"031"	n/a	n/a	n/a	n/a	n/a	n/a	"Trial"	n/a	n/a	n/a	"527"	"arrowleft"	n/a	"NULL"	"NULL"	"NULL"	"stimuli/Ebbinghaus_-0.1000_0.11071.png"	n/a	"Ebbinghaus"	"arrowleft"	"1327"	"TRUE"	"Ebbinghaus"	"-0.100000000"	"0.1107100000"	"1"	"50"
n/a	"html-keyboard-response"	"117"	"308249"	"0.0-5.0-2.0-0.32"	"sj4e3e"	"600"	"1366"	"chrome"	"110.0.0"	"FALSE"	"Windows 10"	"61.03"	"031"	n/a	n/a	n/a	n/a	n/a	n/a	"fixation"	n/a	n/a	n/a	n/a	"NULL"	n/a	"NULL"	"NULL"	"NULL"	"<p style=\"color: black; font-size: 80px; padding-left: 36%; padding-right: 23%; padding-top: 18%; padding-bottom: 10%\">+</p>"	"1009"	n/a	n/a	n/a	n/a	n/a	n/a	n/a	n/a	n/a
n/a	"image-keyboard-response"	"118"	"308915"	"0.0-5.0-2.0-1.32"	"sj4e3e"	"600"	"1366"	"chrome"	"110.0.0"	"FALSE"	"Windows 10"	"61.03"	"031"	n/a	n/a	n/a	n/a	n/a	n/a	"Trial"	n/a	n/a	n/a	"664"	"arrowright"	n/a	"NULL"	"NULL"	"NULL"	"stimuli/Ebbinghaus_-0.35714_-0.15857.png"	n/a	"Ebbinghaus"	"arrowright"	"1019"	"TRUE"	"Ebbinghaus"	"-0.357140000"	"-0.158570000"	"1"	"51"
n/a	"html-keyboard-response"	"119"	"310327"	"0.0-5.0-2.0-0.33"	"sj4e3e"	"600"	"1366"	"chrome"	"110.0.0"	"FALSE"	"Windows 10"	"61.03"	"031"	n/a	n/a	n/a	n/a	n/a	n/a	"fixation"	n/a	n/a	n/a	n/a	"NULL"	n/a	"NULL"	"NULL"	"NULL"	"<p style=\"color: black; font-size: 80px; padding-left: 7%; padding-right: 33%; padding-top: 2%; padding-bottom: 14%\">+</p>"	"1409"	n/a	n/a	n/a	n/a	n/a	n/a	n/a	n/a	n/a
n/a	"image-keyboard-response"	"120"	"310796"	"0.0-5.0-2.0-1.33"	"sj4e3e"	"600"	"1366"	"chrome"	"110.0.0"	"FALSE"	"Windows 10"	"61.03"	"031"	n/a	n/a	n/a	n/a	n/a	n/a	"Trial"	n/a	n/a	n/a	"466"	"arrowleft"	n/a	"NULL"	"NULL"	"NULL"	"stimuli/Ebbinghaus_0.87143_0.28000.png"	n/a	"Ebbinghaus"	"arrowleft"	"1412"	"TRUE"	"Ebbinghaus"	"0.8714300000"	"0.2800000000"	"1"	"52"
n/a	"html-keyboard-response"	"121"	"311953"	"0.0-5.0-2.0-0.34"	"sj4e3e"	"600"	"1366"	"chrome"	"110.0.0"	"FALSE"	"Windows 10"	"61.03"	"031"	n/a	n/a	n/a	n/a	n/a	n/a	"fixation"	n/a	n/a	n/a	n/a	"NULL"	n/a	"NULL"	"NULL"	"NULL"	"<p style=\"color: black; font-size: 80px; padding-left: 2%; padding-right: 21%; padding-top: 31%; padding-bottom: 47%\">+</p>"	"1142"	n/a	n/a	n/a	n/a	n/a	n/a	n/a	n/a	n/a
n/a	"image-keyboard-response"	"122"	"312579"	"0.0-5.0-2.0-1.34"	"sj4e3e"	"600"	"1366"	"chrome"	"110.0.0"	"FALSE"	"Windows 10"	"61.03"	"031"	n/a	n/a	n/a	n/a	n/a	n/a	"Trial"	n/a	n/a	n/a	"625"	"arrowright"	n/a	"NULL"	"NULL"	"NULL"	"stimuli/Ebbinghaus_-0.87143_-0.11071.png"	n/a	"Ebbinghaus"	"arrowright"	"1157"	"TRUE"	"Ebbinghaus"	"-0.871430000"	"-0.110710000"	"1"	"53"
n/a	"html-keyboard-response"	"123"	"313846"	"0.0-5.0-2.0-0.35"	"sj4e3e"	"600"	"1366"	"chrome"	"110.0.0"	"FALSE"	"Windows 10"	"61.03"	"031"	n/a	n/a	n/a	n/a	n/a	n/a	"fixation"	n/a	n/a	n/a	n/a	"NULL"	n/a	"NULL"	"NULL"	"NULL"	"<p style=\"color: black; font-size: 80px; padding-left: 41%; padding-right: 46%; padding-top: 28%; padding-bottom: 18%\">+</p>"	"1257"	n/a	n/a	n/a	n/a	n/a	n/a	n/a	n/a	n/a
n/a	"image-keyboard-response"	"124"	"314292"	"0.0-5.0-2.0-1.35"	"sj4e3e"	"600"	"1366"	"chrome"	"110.0.0"	"FALSE"	"Windows 10"	"61.03"	"031"	n/a	n/a	n/a	n/a	n/a	n/a	"Trial"	n/a	n/a	n/a	"445"	"arrowleft"	n/a	"NULL"	"NULL"	"NULL"	"stimuli/Ebbinghaus_-0.1000_-0.15857.png"	n/a	"Ebbinghaus"	"arrowright"	"1267"	"FALSE"	"Ebbinghaus"	"-0.100000000"	"-0.158570000"	"1"	"54"
n/a	"html-keyboard-response"	"125"	"315348"	"0.0-5.0-2.0-0.36"	"sj4e3e"	"600"	"1366"	"chrome"	"110.0.0"	"FALSE"	"Windows 10"	"61.03"	"031"	n/a	n/a	n/a	n/a	n/a	n/a	"fixation"	n/a	n/a	n/a	n/a	"NULL"	n/a	"NULL"	"NULL"	"NULL"	"<p style=\"color: black; font-size: 80px; padding-left: 49%; padding-right: 19%; padding-top: 8%; padding-bottom: 36%\">+</p>"	"1044"	n/a	n/a	n/a	n/a	n/a	n/a	n/a	n/a	n/a
n/a	"image-keyboard-response"	"126"	"315757"	"0.0-5.0-2.0-1.36"	"sj4e3e"	"600"	"1366"	"chrome"	"110.0.0"	"FALSE"	"Windows 10"	"61.03"	"031"	n/a	n/a	n/a	n/a	n/a	n/a	"Trial"	n/a	n/a	n/a	"409"	"arrowleft"	n/a	"NULL"	"NULL"	"NULL"	"stimuli/Ebbinghaus_0.61429_0.21500.png"	n/a	"Ebbinghaus"	"arrowleft"	"1056"	"TRUE"	"Ebbinghaus"	"0.6142900000"	"0.2150000000"	"1"	"55"
n/a	"html-keyboard-response"	"127"	"317235"	"0.0-5.0-2.0-0.37"	"sj4e3e"	"600"	"1366"	"chrome"	"110.0.0"	"FALSE"	"Windows 10"	"61.03"	"031"	n/a	n/a	n/a	n/a	n/a	n/a	"fixation"	n/a	n/a	n/a	n/a	"NULL"	n/a	"NULL"	"NULL"	"NULL"	"<p style=\"color: black; font-size: 80px; padding-left: 40%; padding-right: 8%; padding-top: 21%; padding-bottom: 10%\">+</p>"	"1466"	n/a	n/a	n/a	n/a	n/a	n/a	n/a	n/a	n/a
n/a	"image-keyboard-response"	"128"	"317727"	"0.0-5.0-2.0-1.37"	"sj4e3e"	"600"	"1366"	"chrome"	"110.0.0"	"FALSE"	"Windows 10"	"61.03"	"031"	n/a	n/a	n/a	n/a	n/a	n/a	"Trial"	n/a	n/a	n/a	"490"	"arrowleft"	n/a	"NULL"	"NULL"	"NULL"	"stimuli/Ebbinghaus_0.10000_0.15857.png"	n/a	"Ebbinghaus"	"arrowleft"	"1478"	"TRUE"	"Ebbinghaus"	"0.1000000000"	"0.1585700000"	"1"	"56"
n/a	"html-keyboard-response"	"129"	"319063"	"0.0-5.0-2.0-0.38"	"sj4e3e"	"600"	"1366"	"chrome"	"110.0.0"	"FALSE"	"Windows 10"	"61.03"	"031"	n/a	n/a	n/a	n/a	n/a	n/a	"fixation"	n/a	n/a	n/a	n/a	"NULL"	n/a	"NULL"	"NULL"	"NULL"	"<p style=\"color: black; font-size: 80px; padding-left: 6%; padding-right: 24%; padding-top: 15%; padding-bottom: 17%\">+</p>"	"1330"	n/a	n/a	n/a	n/a	n/a	n/a	n/a	n/a	n/a
n/a	"image-keyboard-response"	"130"	"319730"	"0.0-5.0-2.0-1.38"	"sj4e3e"	"600"	"1366"	"chrome"	"110.0.0"	"FALSE"	"Windows 10"	"61.03"	"031"	n/a	n/a	n/a	n/a	n/a	n/a	"Trial"	n/a	n/a	n/a	"666"	"arrowright"	n/a	"NULL"	"NULL"	"NULL"	"stimuli/Ebbinghaus_0.87143_-0.2800.png"	n/a	"Ebbinghaus"	"arrowright"	"1336"	"TRUE"	"Ebbinghaus"	"0.8714300000"	"-0.280000000"	"1"	"57"
n/a	"html-keyboard-response"	"131"	"321091"	"0.0-5.0-2.0-0.39"	"sj4e3e"	"600"	"1366"	"chrome"	"110.0.0"	"FALSE"	"Windows 10"	"61.03"	"031"	n/a	n/a	n/a	n/a	n/a	n/a	"fixation"	n/a	n/a	n/a	n/a	"NULL"	n/a	"NULL"	"NULL"	"NULL"	"<p style=\"color: black; font-size: 80px; padding-left: 25%; padding-right: 7%; padding-top: 50%; padding-bottom: 5%\">+</p>"	"1355"	n/a	n/a	n/a	n/a	n/a	n/a	n/a	n/a	n/a
n/a	"image-keyboard-response"	"132"	"321612"	"0.0-5.0-2.0-1.39"	"sj4e3e"	"600"	"1366"	"chrome"	"110.0.0"	"FALSE"	"Windows 10"	"61.03"	"031"	n/a	n/a	n/a	n/a	n/a	n/a	"Trial"	n/a	n/a	n/a	"520"	"arrowleft"	n/a	"NULL"	"NULL"	"NULL"	"stimuli/Ebbinghaus_-0.1000_0.21500.png"	n/a	"Ebbinghaus"	"arrowleft"	"1361"	"TRUE"	"Ebbinghaus"	"-0.100000000"	"0.2150000000"	"1"	"58"
n/a	"html-keyboard-response"	"133"	"322627"	"0.0-5.0-2.0-0.40"	"sj4e3e"	"600"	"1366"	"chrome"	"110.0.0"	"FALSE"	"Windows 10"	"61.03"	"031"	n/a	n/a	n/a	n/a	n/a	n/a	"fixation"	n/a	n/a	n/a	n/a	"NULL"	n/a	"NULL"	"NULL"	"NULL"	"<p style=\"color: black; font-size: 80px; padding-left: 46%; padding-right: 41%; padding-top: 5%; padding-bottom: 12%\">+</p>"	"1012"	n/a	n/a	n/a	n/a	n/a	n/a	n/a	n/a	n/a
n/a	"image-keyboard-response"	"134"	"323245"	"0.0-5.0-2.0-1.40"	"sj4e3e"	"600"	"1366"	"chrome"	"110.0.0"	"FALSE"	"Windows 10"	"61.03"	"031"	n/a	n/a	n/a	n/a	n/a	n/a	"Trial"	n/a	n/a	n/a	"617"	"arrowright"	n/a	"NULL"	"NULL"	"NULL"	"stimuli/Ebbinghaus_-0.35714_-0.2800.png"	n/a	"Ebbinghaus"	"arrowright"	"1015"	"TRUE"	"Ebbinghaus"	"-0.357140000"	"-0.280000000"	"1"	"59"
n/a	"html-keyboard-response"	"135"	"324594"	"0.0-5.0-2.0-0.41"	"sj4e3e"	"600"	"1366"	"chrome"	"110.0.0"	"FALSE"	"Windows 10"	"61.03"	"031"	n/a	n/a	n/a	n/a	n/a	n/a	"fixation"	n/a	n/a	n/a	n/a	"NULL"	n/a	"NULL"	"NULL"	"NULL"	"<p style=\"color: black; font-size: 80px; padding-left: 21%; padding-right: 43%; padding-top: 46%; padding-bottom: 20%\">+</p>"	"1340"	n/a	n/a	n/a	n/a	n/a	n/a	n/a	n/a	n/a
n/a	"image-keyboard-response"	"136"	"325212"	"0.0-5.0-2.0-1.41"	"sj4e3e"	"600"	"1366"	"chrome"	"110.0.0"	"FALSE"	"Windows 10"	"61.03"	"031"	n/a	n/a	n/a	n/a	n/a	n/a	"Trial"	n/a	n/a	n/a	"618"	"arrowright"	n/a	"NULL"	"NULL"	"NULL"	"stimuli/Ebbinghaus_0.61429_-0.2800.png"	n/a	"Ebbinghaus"	"arrowright"	"1349"	"TRUE"	"Ebbinghaus"	"0.6142900000"	"-0.280000000"	"1"	"60"
n/a	"html-keyboard-response"	"137"	"326437"	"0.0-5.0-2.0-0.42"	"sj4e3e"	"600"	"1366"	"chrome"	"110.0.0"	"FALSE"	"Windows 10"	"61.03"	"031"	n/a	n/a	n/a	n/a	n/a	n/a	"fixation"	n/a	n/a	n/a	n/a	"NULL"	n/a	"NULL"	"NULL"	"NULL"	"<p style=\"color: black; font-size: 80px; padding-left: 41%; padding-right: 34%; padding-top: 32%; padding-bottom: 44%\">+</p>"	"1223"	n/a	n/a	n/a	n/a	n/a	n/a	n/a	n/a	n/a
n/a	"image-keyboard-response"	"138"	"326966"	"0.0-5.0-2.0-1.42"	"sj4e3e"	"600"	"1366"	"chrome"	"110.0.0"	"FALSE"	"Windows 10"	"61.03"	"031"	n/a	n/a	n/a	n/a	n/a	n/a	"Trial"	n/a	n/a	n/a	"528"	"arrowright"	n/a	"NULL"	"NULL"	"NULL"	"stimuli/Ebbinghaus_0.10000_-0.2150.png"	n/a	"Ebbinghaus"	"arrowright"	"1225"	"TRUE"	"Ebbinghaus"	"0.1000000000"	"-0.215000000"	"1"	"61"
n/a	"html-keyboard-response"	"139"	"328324"	"0.0-5.0-2.0-0.43"	"sj4e3e"	"600"	"1366"	"chrome"	"110.0.0"	"FALSE"	"Windows 10"	"61.03"	"031"	n/a	n/a	n/a	n/a	n/a	n/a	"fixation"	n/a	n/a	n/a	n/a	"NULL"	n/a	"NULL"	"NULL"	"NULL"	"<p style=\"color: black; font-size: 80px; padding-left: 2%; padding-right: 22%; padding-top: 8%; padding-bottom: 16%\">+</p>"	"1347"	n/a	n/a	n/a	n/a	n/a	n/a	n/a	n/a	n/a
n/a	"image-keyboard-response"	"140"	"328777"	"0.0-5.0-2.0-1.43"	"sj4e3e"	"600"	"1366"	"chrome"	"110.0.0"	"FALSE"	"Windows 10"	"61.03"	"031"	n/a	n/a	n/a	n/a	n/a	n/a	"Trial"	n/a	n/a	n/a	"452"	"arrowleft"	n/a	"NULL"	"NULL"	"NULL"	"stimuli/Ebbinghaus_-0.35714_0.11071.png"	n/a	"Ebbinghaus"	"arrowleft"	"1358"	"TRUE"	"Ebbinghaus"	"-0.357140000"	"0.1107100000"	"1"	"62"
n/a	"html-keyboard-response"	"141"	"330281"	"0.0-5.0-2.0-0.44"	"sj4e3e"	"600"	"1366"	"chrome"	"110.0.0"	"FALSE"	"Windows 10"	"61.03"	"031"	n/a	n/a	n/a	n/a	n/a	n/a	"fixation"	n/a	n/a	n/a	n/a	"NULL"	n/a	"NULL"	"NULL"	"NULL"	"<p style=\"color: black; font-size: 80px; padding-left: 38%; padding-right: 37%; padding-top: 30%; padding-bottom: 8%\">+</p>"	"1496"	n/a	n/a	n/a	n/a	n/a	n/a	n/a	n/a	n/a
n/a	"image-keyboard-response"	"142"	"330579"	"0.0-5.0-2.0-1.44"	"sj4e3e"	"600"	"1366"	"chrome"	"110.0.0"	"FALSE"	"Windows 10"	"61.03"	"031"	n/a	n/a	n/a	n/a	n/a	n/a	"Trial"	n/a	n/a	n/a	"298"	"arrowleft"	n/a	"NULL"	"NULL"	"NULL"	"stimuli/Ebbinghaus_-0.35714_0.15857.png"	n/a	"Ebbinghaus"	"arrowleft"	"1504"	"TRUE"	"Ebbinghaus"	"-0.357140000"	"0.1585700000"	"1"	"63"
n/a	"html-keyboard-response"	"143"	"331917"	"0.0-5.0-2.0-0.45"	"sj4e3e"	"600"	"1366"	"chrome"	"110.0.0"	"FALSE"	"Windows 10"	"61.03"	"031"	n/a	n/a	n/a	n/a	n/a	n/a	"fixation"	n/a	n/a	n/a	n/a	"NULL"	n/a	"NULL"	"NULL"	"NULL"	"<p style=\"color: black; font-size: 80px; padding-left: 16%; padding-right: 8%; padding-top: 24%; padding-bottom: 31%\">+</p>"	"1333"	n/a	n/a	n/a	n/a	n/a	n/a	n/a	n/a	n/a
n/a	"image-keyboard-response"	"144"	"332257"	"0.0-5.0-2.0-1.45"	"sj4e3e"	"600"	"1366"	"chrome"	"110.0.0"	"FALSE"	"Windows 10"	"61.03"	"031"	n/a	n/a	n/a	n/a	n/a	n/a	"Trial"	n/a	n/a	n/a	"339"	"arrowleft"	n/a	"NULL"	"NULL"	"NULL"	"stimuli/Ebbinghaus_-0.1000_-0.2150.png"	n/a	"Ebbinghaus"	"arrowright"	"1338"	"FALSE"	"Ebbinghaus"	"-0.100000000"	"-0.215000000"	"1"	"64"
n/a	"html-keyboard-response"	"145"	"333576"	"0.0-5.0-2.0-0.46"	"sj4e3e"	"600"	"1366"	"chrome"	"110.0.0"	"FALSE"	"Windows 10"	"61.03"	"031"	n/a	n/a	n/a	n/a	n/a	n/a	"fixation"	n/a	n/a	n/a	n/a	"NULL"	n/a	"NULL"	"NULL"	"NULL"	"<p style=\"color: black; font-size: 80px; padding-left: 8%; padding-right: 38%; padding-top: 18%; padding-bottom: 15%\">+</p>"	"1308"	n/a	n/a	n/a	n/a	n/a	n/a	n/a	n/a	n/a
n/a	"image-keyboard-response"	"146"	"334020"	"0.0-5.0-2.0-1.46"	"sj4e3e"	"600"	"1366"	"chrome"	"110.0.0"	"FALSE"	"Windows 10"	"61.03"	"031"	n/a	n/a	n/a	n/a	n/a	n/a	"Trial"	n/a	n/a	n/a	"443"	"arrowleft"	n/a	"NULL"	"NULL"	"NULL"	"stimuli/Ebbinghaus_-0.35714_0.28000.png"	n/a	"Ebbinghaus"	"arrowleft"	"1319"	"TRUE"	"Ebbinghaus"	"-0.357140000"	"0.2800000000"	"1"	"65"
n/a	"html-keyboard-response"	"147"	"335483"	"0.0-5.0-2.0-0.47"	"sj4e3e"	"600"	"1366"	"chrome"	"110.0.0"	"FALSE"	"Windows 10"	"61.03"	"031"	n/a	n/a	n/a	n/a	n/a	n/a	"fixation"	n/a	n/a	n/a	n/a	"NULL"	n/a	"NULL"	"NULL"	"NULL"	"<p style=\"color: black; font-size: 80px; padding-left: 41%; padding-right: 28%; padding-top: 38%; padding-bottom: 2%\">+</p>"	"1460"	n/a	n/a	n/a	n/a	n/a	n/a	n/a	n/a	n/a
n/a	"image-keyboard-response"	"148"	"336121"	"0.0-5.0-2.0-1.47"	"sj4e3e"	"600"	"1366"	"chrome"	"110.0.0"	"FALSE"	"Windows 10"	"61.03"	"031"	n/a	n/a	n/a	n/a	n/a	n/a	"Trial"	n/a	n/a	n/a	"637"	"arrowright"	n/a	"NULL"	"NULL"	"NULL"	"stimuli/Ebbinghaus_-0.87143_-0.15857.png"	n/a	"Ebbinghaus"	"arrowright"	"1463"	"TRUE"	"Ebbinghaus"	"-0.871430000"	"-0.158570000"	"1"	"66"
n/a	"html-keyboard-response"	"149"	"337572"	"0.0-5.0-2.0-0.48"	"sj4e3e"	"600"	"1366"	"chrome"	"110.0.0"	"FALSE"	"Windows 10"	"61.03"	"031"	n/a	n/a	n/a	n/a	n/a	n/a	"fixation"	n/a	n/a	n/a	n/a	"NULL"	n/a	"NULL"	"NULL"	"NULL"	"<p style=\"color: black; font-size: 80px; padding-left: 49%; padding-right: 10%; padding-top: 10%; padding-bottom: 34%\">+</p>"	"1438"	n/a	n/a	n/a	n/a	n/a	n/a	n/a	n/a	n/a
n/a	"image-keyboard-response"	"150"	"338084"	"0.0-5.0-2.0-1.48"	"sj4e3e"	"600"	"1366"	"chrome"	"110.0.0"	"FALSE"	"Windows 10"	"61.03"	"031"	n/a	n/a	n/a	n/a	n/a	n/a	"Trial"	n/a	n/a	n/a	"511"	"arrowright"	n/a	"NULL"	"NULL"	"NULL"	"stimuli/Ebbinghaus_-0.61429_-0.11071.png"	n/a	"Ebbinghaus"	"arrowright"	"1451"	"TRUE"	"Ebbinghaus"	"-0.614290000"	"-0.110710000"	"1"	"67"
n/a	"html-keyboard-response"	"151"	"339579"	"0.0-5.0-2.0-0.49"	"sj4e3e"	"600"	"1366"	"chrome"	"110.0.0"	"FALSE"	"Windows 10"	"61.03"	"031"	n/a	n/a	n/a	n/a	n/a	n/a	"fixation"	n/a	n/a	n/a	n/a	"NULL"	n/a	"NULL"	"NULL"	"NULL"	"<p style=\"color: black; font-size: 80px; padding-left: 44%; padding-right: 35%; padding-top: 25%; padding-bottom: 18%\">+</p>"	"1488"	n/a	n/a	n/a	n/a	n/a	n/a	n/a	n/a	n/a
n/a	"image-keyboard-response"	"152"	"340100"	"0.0-5.0-2.0-1.49"	"sj4e3e"	"600"	"1366"	"chrome"	"110.0.0"	"FALSE"	"Windows 10"	"61.03"	"031"	n/a	n/a	n/a	n/a	n/a	n/a	"Trial"	n/a	n/a	n/a	"520"	"arrowleft"	n/a	"NULL"	"NULL"	"NULL"	"stimuli/Ebbinghaus_-0.87143_0.15857.png"	n/a	"Ebbinghaus"	"arrowleft"	"1495"	"TRUE"	"Ebbinghaus"	"-0.871430000"	"0.1585700000"	"1"	"68"
n/a	"html-keyboard-response"	"153"	"341545"	"0.0-5.0-2.0-0.50"	"sj4e3e"	"600"	"1366"	"chrome"	"110.0.0"	"FALSE"	"Windows 10"	"61.03"	"031"	n/a	n/a	n/a	n/a	n/a	n/a	"fixation"	n/a	n/a	n/a	n/a	"NULL"	n/a	"NULL"	"NULL"	"NULL"	"<p style=\"color: black; font-size: 80px; padding-left: 17%; padding-right: 31%; padding-top: 21%; padding-bottom: 45%\">+</p>"	"1438"	n/a	n/a	n/a	n/a	n/a	n/a	n/a	n/a	n/a
n/a	"image-keyboard-response"	"154"	"341937"	"0.0-5.0-2.0-1.50"	"sj4e3e"	"600"	"1366"	"chrome"	"110.0.0"	"FALSE"	"Windows 10"	"61.03"	"031"	n/a	n/a	n/a	n/a	n/a	n/a	"Trial"	n/a	n/a	n/a	"392"	"arrowleft"	n/a	"NULL"	"NULL"	"NULL"	"stimuli/Ebbinghaus_0.10000_0.21500.png"	n/a	"Ebbinghaus"	"arrowleft"	"1445"	"TRUE"	"Ebbinghaus"	"0.1000000000"	"0.2150000000"	"1"	"69"
n/a	"html-keyboard-response"	"155"	"343314"	"0.0-5.0-2.0-0.51"	"sj4e3e"	"600"	"1366"	"chrome"	"110.0.0"	"FALSE"	"Windows 10"	"61.03"	"031"	n/a	n/a	n/a	n/a	n/a	n/a	"fixation"	n/a	n/a	n/a	n/a	"NULL"	n/a	"NULL"	"NULL"	"NULL"	"<p style=\"color: black; font-size: 80px; padding-left: 45%; padding-right: 6%; padding-top: 29%; padding-bottom: 28%\">+</p>"	"1361"	n/a	n/a	n/a	n/a	n/a	n/a	n/a	n/a	n/a
n/a	"image-keyboard-response"	"156"	"344091"	"0.0-5.0-2.0-1.51"	"sj4e3e"	"600"	"1366"	"chrome"	"110.0.0"	"FALSE"	"Windows 10"	"61.03"	"031"	n/a	n/a	n/a	n/a	n/a	n/a	"Trial"	n/a	n/a	n/a	"776"	"arrowleft"	n/a	"NULL"	"NULL"	"NULL"	"stimuli/Ebbinghaus_0.61429_-0.2150.png"	n/a	"Ebbinghaus"	"arrowright"	"1377"	"FALSE"	"Ebbinghaus"	"0.6142900000"	"-0.215000000"	"1"	"70"
n/a	"html-keyboard-response"	"157"	"345282"	"0.0-5.0-2.0-0.52"	"sj4e3e"	"600"	"1366"	"chrome"	"110.0.0"	"FALSE"	"Windows 10"	"61.03"	"031"	n/a	n/a	n/a	n/a	n/a	n/a	"fixation"	n/a	n/a	n/a	n/a	"NULL"	n/a	"NULL"	"NULL"	"NULL"	"<p style=\"color: black; font-size: 80px; padding-left: 29%; padding-right: 34%; padding-top: 32%; padding-bottom: 33%\">+</p>"	"1188"	n/a	n/a	n/a	n/a	n/a	n/a	n/a	n/a	n/a
n/a	"image-keyboard-response"	"158"	"345771"	"0.0-5.0-2.0-1.52"	"sj4e3e"	"600"	"1366"	"chrome"	"110.0.0"	"FALSE"	"Windows 10"	"61.03"	"031"	n/a	n/a	n/a	n/a	n/a	n/a	"Trial"	n/a	n/a	n/a	"488"	"arrowleft"	n/a	"NULL"	"NULL"	"NULL"	"stimuli/Ebbinghaus_-0.87143_0.21500.png"	n/a	"Ebbinghaus"	"arrowleft"	"1191"	"TRUE"	"Ebbinghaus"	"-0.871430000"	"0.2150000000"	"1"	"71"
n/a	"html-keyboard-response"	"159"	"346983"	"0.0-5.0-2.0-0.53"	"sj4e3e"	"600"	"1366"	"chrome"	"110.0.0"	"FALSE"	"Windows 10"	"61.03"	"031"	n/a	n/a	n/a	n/a	n/a	n/a	"fixation"	n/a	n/a	n/a	n/a	"NULL"	n/a	"NULL"	"NULL"	"NULL"	"<p style=\"color: black; font-size: 80px; padding-left: 29%; padding-right: 30%; padding-top: 25%; padding-bottom: 18%\">+</p>"	"1211"	n/a	n/a	n/a	n/a	n/a	n/a	n/a	n/a	n/a
n/a	"image-keyboard-response"	"160"	"347814"	"0.0-5.0-2.0-1.53"	"sj4e3e"	"600"	"1366"	"chrome"	"110.0.0"	"FALSE"	"Windows 10"	"61.03"	"031"	n/a	n/a	n/a	n/a	n/a	n/a	"Trial"	n/a	n/a	n/a	"830"	"arrowleft"	n/a	"NULL"	"NULL"	"NULL"	"stimuli/Ebbinghaus_-0.1000_-0.11071.png"	n/a	"Ebbinghaus"	"arrowright"	"1212"	"FALSE"	"Ebbinghaus"	"-0.100000000"	"-0.110710000"	"1"	"72"
n/a	"html-keyboard-response"	"161"	"348828"	"0.0-5.0-2.0-0.54"	"sj4e3e"	"600"	"1366"	"chrome"	"110.0.0"	"FALSE"	"Windows 10"	"61.03"	"031"	n/a	n/a	n/a	n/a	n/a	n/a	"fixation"	n/a	n/a	n/a	n/a	"NULL"	n/a	"NULL"	"NULL"	"NULL"	"<p style=\"color: black; font-size: 80px; padding-left: 49%; padding-right: 37%; padding-top: 46%; padding-bottom: 48%\">+</p>"	"1005"	n/a	n/a	n/a	n/a	n/a	n/a	n/a	n/a	n/a
n/a	"image-keyboard-response"	"162"	"349332"	"0.0-5.0-2.0-1.54"	"sj4e3e"	"600"	"1366"	"chrome"	"110.0.0"	"FALSE"	"Windows 10"	"61.03"	"031"	n/a	n/a	n/a	n/a	n/a	n/a	"Trial"	n/a	n/a	n/a	"504"	"arrowleft"	n/a	"NULL"	"NULL"	"NULL"	"stimuli/Ebbinghaus_0.61429_0.11071.png"	n/a	"Ebbinghaus"	"arrowleft"	"1014"	"TRUE"	"Ebbinghaus"	"0.6142900000"	"0.1107100000"	"1"	"73"
n/a	"html-keyboard-response"	"163"	"350518"	"0.0-5.0-2.0-0.55"	"sj4e3e"	"600"	"1366"	"chrome"	"110.0.0"	"FALSE"	"Windows 10"	"61.03"	"031"	n/a	n/a	n/a	n/a	n/a	n/a	"fixation"	n/a	n/a	n/a	n/a	"NULL"	n/a	"NULL"	"NULL"	"NULL"	"<p style=\"color: black; font-size: 80px; padding-left: 6%; padding-right: 31%; padding-top: 3%; padding-bottom: 10%\">+</p>"	"1176"	n/a	n/a	n/a	n/a	n/a	n/a	n/a	n/a	n/a
n/a	"image-keyboard-response"	"164"	"350953"	"0.0-5.0-2.0-1.55"	"sj4e3e"	"600"	"1366"	"chrome"	"110.0.0"	"FALSE"	"Windows 10"	"61.03"	"031"	n/a	n/a	n/a	n/a	n/a	n/a	"Trial"	n/a	n/a	n/a	"435"	"arrowleft"	n/a	"NULL"	"NULL"	"NULL"	"stimuli/Ebbinghaus_0.61429_0.28000.png"	n/a	"Ebbinghaus"	"arrowleft"	"1186"	"TRUE"	"Ebbinghaus"	"0.6142900000"	"0.2800000000"	"1"	"74"
n/a	"html-keyboard-response"	"165"	"352078"	"0.0-5.0-2.0-0.56"	"sj4e3e"	"600"	"1366"	"chrome"	"110.0.0"	"FALSE"	"Windows 10"	"61.03"	"031"	n/a	n/a	n/a	n/a	n/a	n/a	"fixation"	n/a	n/a	n/a	n/a	"NULL"	n/a	"NULL"	"NULL"	"NULL"	"<p style=\"color: black; font-size: 80px; padding-left: 30%; padding-right: 20%; padding-top: 0%; padding-bottom: 4%\">+</p>"	"1122"	n/a	n/a	n/a	n/a	n/a	n/a	n/a	n/a	n/a
n/a	"image-keyboard-response"	"166"	"352517"	"0.0-5.0-2.0-1.56"	"sj4e3e"	"600"	"1366"	"chrome"	"110.0.0"	"FALSE"	"Windows 10"	"61.03"	"031"	n/a	n/a	n/a	n/a	n/a	n/a	"Trial"	n/a	n/a	n/a	"438"	"arrowleft"	n/a	"NULL"	"NULL"	"NULL"	"stimuli/Ebbinghaus_0.10000_0.11071.png"	n/a	"Ebbinghaus"	"arrowleft"	"1125"	"TRUE"	"Ebbinghaus"	"0.1000000000"	"0.1107100000"	"1"	"75"
n/a	"html-keyboard-response"	"167"	"353606"	"0.0-5.0-2.0-0.57"	"sj4e3e"	"600"	"1366"	"chrome"	"110.0.0"	"FALSE"	"Windows 10"	"61.03"	"031"	n/a	n/a	n/a	n/a	n/a	n/a	"fixation"	n/a	n/a	n/a	n/a	"NULL"	n/a	"NULL"	"NULL"	"NULL"	"<p style=\"color: black; font-size: 80px; padding-left: 2%; padding-right: 3%; padding-top: 33%; padding-bottom: 13%\">+</p>"	"1085"	n/a	n/a	n/a	n/a	n/a	n/a	n/a	n/a	n/a
n/a	"image-keyboard-response"	"168"	"354174"	"0.0-5.0-2.0-1.57"	"sj4e3e"	"600"	"1366"	"chrome"	"110.0.0"	"FALSE"	"Windows 10"	"61.03"	"031"	n/a	n/a	n/a	n/a	n/a	n/a	"Trial"	n/a	n/a	n/a	"567"	"arrowright"	n/a	"NULL"	"NULL"	"NULL"	"stimuli/Ebbinghaus_0.61429_-0.11071.png"	n/a	"Ebbinghaus"	"arrowright"	"1089"	"TRUE"	"Ebbinghaus"	"0.6142900000"	"-0.110710000"	"1"	"76"
n/a	"html-keyboard-response"	"169"	"355530"	"0.0-5.0-2.0-0.58"	"sj4e3e"	"600"	"1366"	"chrome"	"110.0.0"	"FALSE"	"Windows 10"	"61.03"	"031"	n/a	n/a	n/a	n/a	n/a	n/a	"fixation"	n/a	n/a	n/a	n/a	"NULL"	n/a	"NULL"	"NULL"	"NULL"	"<p style=\"color: black; font-size: 80px; padding-left: 3%; padding-right: 41%; padding-top: 10%; padding-bottom: 16%\">+</p>"	"1355"	n/a	n/a	n/a	n/a	n/a	n/a	n/a	n/a	n/a
n/a	"image-keyboard-response"	"170"	"356366"	"0.0-5.0-2.0-1.58"	"sj4e3e"	"600"	"1366"	"chrome"	"110.0.0"	"FALSE"	"Windows 10"	"61.03"	"031"	n/a	n/a	n/a	n/a	n/a	n/a	"Trial"	n/a	n/a	n/a	"835"	"arrowright"	n/a	"NULL"	"NULL"	"NULL"	"stimuli/Ebbinghaus_0.35714_-0.15857.png"	n/a	"Ebbinghaus"	"arrowright"	"1356"	"TRUE"	"Ebbinghaus"	"0.3571400000"	"-0.158570000"	"1"	"77"
n/a	"html-keyboard-response"	"171"	"357842"	"0.0-5.0-2.0-0.59"	"sj4e3e"	"600"	"1366"	"chrome"	"110.0.0"	"FALSE"	"Windows 10"	"61.03"	"031"	n/a	n/a	n/a	n/a	n/a	n/a	"fixation"	n/a	n/a	n/a	n/a	"NULL"	n/a	"NULL"	"NULL"	"NULL"	"<p style=\"color: black; font-size: 80px; padding-left: 22%; padding-right: 1%; padding-top: 19%; padding-bottom: 13%\">+</p>"	"1462"	n/a	n/a	n/a	n/a	n/a	n/a	n/a	n/a	n/a
n/a	"image-keyboard-response"	"172"	"358618"	"0.0-5.0-2.0-1.59"	"sj4e3e"	"600"	"1366"	"chrome"	"110.0.0"	"FALSE"	"Windows 10"	"61.03"	"031"	n/a	n/a	n/a	n/a	n/a	n/a	"Trial"	n/a	n/a	n/a	"775"	"arrowright"	n/a	"NULL"	"NULL"	"NULL"	"stimuli/Ebbinghaus_-0.61429_-0.15857.png"	n/a	"Ebbinghaus"	"arrowright"	"1476"	"TRUE"	"Ebbinghaus"	"-0.614290000"	"-0.158570000"	"1"	"78"
n/a	"html-keyboard-response"	"173"	"359938"	"0.0-5.0-2.0-0.60"	"sj4e3e"	"600"	"1366"	"chrome"	"110.0.0"	"FALSE"	"Windows 10"	"61.03"	"031"	n/a	n/a	n/a	n/a	n/a	n/a	"fixation"	n/a	n/a	n/a	n/a	"NULL"	n/a	"NULL"	"NULL"	"NULL"	"<p style=\"color: black; font-size: 80px; padding-left: 0%; padding-right: 42%; padding-top: 31%; padding-bottom: 43%\">+</p>"	"1317"	n/a	n/a	n/a	n/a	n/a	n/a	n/a	n/a	n/a
n/a	"image-keyboard-response"	"174"	"360477"	"0.0-5.0-2.0-1.60"	"sj4e3e"	"600"	"1366"	"chrome"	"110.0.0"	"FALSE"	"Windows 10"	"61.03"	"031"	n/a	n/a	n/a	n/a	n/a	n/a	"Trial"	n/a	n/a	n/a	"538"	"arrowleft"	n/a	"NULL"	"NULL"	"NULL"	"stimuli/Ebbinghaus_0.35714_0.28000.png"	n/a	"Ebbinghaus"	"arrowleft"	"1320"	"TRUE"	"Ebbinghaus"	"0.3571400000"	"0.2800000000"	"1"	"79"
n/a	"html-keyboard-response"	"175"	"361511"	"0.0-5.0-2.0-0.61"	"sj4e3e"	"600"	"1366"	"chrome"	"110.0.0"	"FALSE"	"Windows 10"	"61.03"	"031"	n/a	n/a	n/a	n/a	n/a	n/a	"fixation"	n/a	n/a	n/a	n/a	"NULL"	n/a	"NULL"	"NULL"	"NULL"	"<p style=\"color: black; font-size: 80px; padding-left: 0%; padding-right: 48%; padding-top: 25%; padding-bottom: 5%\">+</p>"	"1021"	n/a	n/a	n/a	n/a	n/a	n/a	n/a	n/a	n/a
n/a	"image-keyboard-response"	"176"	"362112"	"0.0-5.0-2.0-1.61"	"sj4e3e"	"600"	"1366"	"chrome"	"110.0.0"	"FALSE"	"Windows 10"	"61.03"	"031"	n/a	n/a	n/a	n/a	n/a	n/a	"Trial"	n/a	n/a	n/a	"600"	"arrowleft"	n/a	"NULL"	"NULL"	"NULL"	"stimuli/Ebbinghaus_-0.87143_0.11071.png"	n/a	"Ebbinghaus"	"arrowleft"	"1034"	"TRUE"	"Ebbinghaus"	"-0.871430000"	"0.1107100000"	"1"	"80"
n/a	"html-keyboard-response"	"177"	"363562"	"0.0-5.0-2.0-0.62"	"sj4e3e"	"600"	"1366"	"chrome"	"110.0.0"	"FALSE"	"Windows 10"	"61.03"	"031"	n/a	n/a	n/a	n/a	n/a	n/a	"fixation"	n/a	n/a	n/a	n/a	"NULL"	n/a	"NULL"	"NULL"	"NULL"	"<p style=\"color: black; font-size: 80px; padding-left: 7%; padding-right: 19%; padding-top: 5%; padding-bottom: 37%\">+</p>"	"1441"	n/a	n/a	n/a	n/a	n/a	n/a	n/a	n/a	n/a
n/a	"image-keyboard-response"	"178"	"364132"	"0.0-5.0-2.0-1.62"	"sj4e3e"	"600"	"1366"	"chrome"	"110.0.0"	"FALSE"	"Windows 10"	"61.03"	"031"	n/a	n/a	n/a	n/a	n/a	n/a	"Trial"	n/a	n/a	n/a	"570"	"arrowright"	n/a	"NULL"	"NULL"	"NULL"	"stimuli/Ebbinghaus_-0.61429_-0.2150.png"	n/a	"Ebbinghaus"	"arrowright"	"1450"	"TRUE"	"Ebbinghaus"	"-0.614290000"	"-0.215000000"	"1"	"81"
n/a	"html-keyboard-response"	"179"	"365220"	"0.0-5.0-2.0-0.63"	"sj4e3e"	"600"	"1366"	"chrome"	"110.0.0"	"FALSE"	"Windows 10"	"61.03"	"031"	n/a	n/a	n/a	n/a	n/a	n/a	"fixation"	n/a	n/a	n/a	n/a	"NULL"	n/a	"NULL"	"NULL"	"NULL"	"<p style=\"color: black; font-size: 80px; padding-left: 13%; padding-right: 3%; padding-top: 50%; padding-bottom: 21%\">+</p>"	"1084"	n/a	n/a	n/a	n/a	n/a	n/a	n/a	n/a	n/a
n/a	"image-keyboard-response"	"180"	"365786"	"0.0-5.0-2.0-1.63"	"sj4e3e"	"600"	"1366"	"chrome"	"110.0.0"	"FALSE"	"Windows 10"	"61.03"	"031"	n/a	n/a	n/a	n/a	n/a	n/a	"Trial"	n/a	n/a	n/a	"565"	"arrowleft"	n/a	"NULL"	"NULL"	"NULL"	"stimuli/Ebbinghaus_0.35714_0.11071.png"	n/a	"Ebbinghaus"	"arrowleft"	"1088"	"TRUE"	"Ebbinghaus"	"0.3571400000"	"0.1107100000"	"1"	"82"
n/a	"html-button-response"	"181"	"368807"	"0.0-5.0-3.0"	"sj4e3e"	"600"	"1366"	"chrome"	"110.0.0"	"FALSE"	"Windows 10"	"61.03"	"031"	n/a	n/a	n/a	n/a	n/a	n/a	"block_results"	n/a	n/a	n/a	"3018"	"0"	n/a	"NULL"	"NULL"	"NULL"	"<p>Your score for this illusion is <p style=\"color: black; font-size: 48px; font-weight: bold;\">79 %</p><hr><p>Can you do better in the next illusion?</p>"	n/a	n/a	n/a	n/a	n/a	n/a	n/a	n/a	n/a	n/a
"TRUE"	"preload"	"182"	"368952"	"0.0-6.0-0.0"	"sj4e3e"	"600"	"1366"	"chrome"	"110.0.0"	"FALSE"	"Windows 10"	"61.03"	"031"	n/a	n/a	n/a	n/a	n/a	n/a	n/a	n/a	n/a	n/a	n/a	"NULL"	"FALSE"	"list()"	"list()"	"list()"	n/a	n/a	n/a	n/a	n/a	n/a	n/a	n/a	n/a	n/a	n/a
n/a	"html-keyboard-response"	"183"	"382665"	"0.0-6.0-1.0"	"sj4e3e"	"600"	"1366"	"chrome"	"110.0.0"	"FALSE"	"Windows 10"	"61.03"	"031"	n/a	n/a	n/a	n/a	n/a	n/a	n/a	n/a	n/a	n/a	"13713"	"enter"	n/a	"NULL"	"NULL"	"NULL"	"<p><b>Part 2/6</b></p><p>In this part, two horizontal red lines will appear one above the other.</p><p>Your task is to select which <b>line is longer</b> in length as fast as you can, without making errors.</p><p>Don't get distracted by the surrounding black arrows at the end of the red lines!</p><p>Press <b>the UP or the DOWN arrow</b> to indicate where is the longer <b>red line.</b></p><div style='float: center'><img src='materials/instructions/MullerLyer_Demo.png' height='300'></img><p><img src='utils/answer/answer_updown_keyboard.PNG' height='150'></img></p><p class='small'>In this example, the correct answer is the <b>UP arrow</b>.</p></div><p>Are you ready? <b>Press ENTER to start</b></p>"	n/a	n/a	n/a	n/a	n/a	n/a	n/a	n/a	n/a	n/a
n/a	"html-keyboard-response"	"184"	"384484"	"0.0-6.0-2.0-0.0"	"sj4e3e"	"600"	"1366"	"chrome"	"110.0.0"	"FALSE"	"Windows 10"	"61.03"	"031"	n/a	n/a	n/a	n/a	n/a	n/a	"fixation"	n/a	n/a	n/a	n/a	"NULL"	n/a	"NULL"	"NULL"	"NULL"	"<p style=\"color: black; font-size: 80px; padding-left: 24%; padding-right: 5%; padding-top: 45%; padding-bottom: 15%\">+</p>"	"1310"	n/a	n/a	n/a	n/a	n/a	n/a	n/a	n/a	n/a
n/a	"image-keyboard-response"	"185"	"385520"	"0.0-6.0-2.0-1.0"	"sj4e3e"	"600"	"1366"	"chrome"	"110.0.0"	"FALSE"	"Windows 10"	"61.03"	"031"	n/a	n/a	n/a	n/a	n/a	n/a	"Trial"	n/a	n/a	n/a	"1035"	"arrowup"	n/a	"NULL"	"NULL"	"NULL"	"stimuli/MullerLyer_14.12857_-0.23665.png"	n/a	"MullerLyer"	"arrowdown"	"1819"	"FALSE"	"MullerLyer"	"14.128570000"	"-0.236650000"	"2"	"1"
n/a	"html-keyboard-response"	"186"	"386924"	"0.0-6.0-2.0-0.1"	"sj4e3e"	"600"	"1366"	"chrome"	"110.0.0"	"FALSE"	"Windows 10"	"61.03"	"031"	n/a	n/a	n/a	n/a	n/a	n/a	"fixation"	n/a	n/a	n/a	n/a	"NULL"	n/a	"NULL"	"NULL"	"NULL"	"<p style=\"color: black; font-size: 80px; padding-left: 10%; padding-right: 45%; padding-top: 41%; padding-bottom: 29%\">+</p>"	"1388"	n/a	n/a	n/a	n/a	n/a	n/a	n/a	n/a	n/a
n/a	"image-keyboard-response"	"187"	"387776"	"0.0-6.0-2.0-1.1"	"sj4e3e"	"600"	"1366"	"chrome"	"110.0.0"	"FALSE"	"Windows 10"	"61.03"	"031"	n/a	n/a	n/a	n/a	n/a	n/a	"Trial"	n/a	n/a	n/a	"852"	"arrowup"	n/a	"NULL"	"NULL"	"NULL"	"stimuli/MullerLyer_2.30000_-0.07627.png"	n/a	"MullerLyer"	"arrowdown"	"1404"	"FALSE"	"MullerLyer"	"2.3000000000"	"-0.076270000"	"2"	"2"
n/a	"html-keyboard-response"	"188"	"388986"	"0.0-6.0-2.0-0.2"	"sj4e3e"	"600"	"1366"	"chrome"	"110.0.0"	"FALSE"	"Windows 10"	"61.03"	"031"	n/a	n/a	n/a	n/a	n/a	n/a	"fixation"	n/a	n/a	n/a	n/a	"NULL"	n/a	"NULL"	"NULL"	"NULL"	"<p style=\"color: black; font-size: 80px; padding-left: 24%; padding-right: 11%; padding-top: 47%; padding-bottom: 24%\">+</p>"	"1195"	n/a	n/a	n/a	n/a	n/a	n/a	n/a	n/a	n/a
n/a	"image-keyboard-response"	"189"	"389653"	"0.0-6.0-2.0-1.2"	"sj4e3e"	"600"	"1366"	"chrome"	"110.0.0"	"FALSE"	"Windows 10"	"61.03"	"031"	n/a	n/a	n/a	n/a	n/a	n/a	"Trial"	n/a	n/a	n/a	"666"	"arrowup"	n/a	"NULL"	"NULL"	"NULL"	"stimuli/MullerLyer_20.04286_-0.3500.png"	n/a	"MullerLyer"	"arrowdown"	"1210"	"FALSE"	"MullerLyer"	"20.042860000"	"-0.350000000"	"2"	"3"
n/a	"html-keyboard-response"	"190"	"390885"	"0.0-6.0-2.0-0.3"	"sj4e3e"	"600"	"1366"	"chrome"	"110.0.0"	"FALSE"	"Windows 10"	"61.03"	"031"	n/a	n/a	n/a	n/a	n/a	n/a	"fixation"	n/a	n/a	n/a	n/a	"NULL"	n/a	"NULL"	"NULL"	"NULL"	"<p style=\"color: black; font-size: 80px; padding-left: 46%; padding-right: 14%; padding-top: 28%; padding-bottom: 5%\">+</p>"	"1220"	n/a	n/a	n/a	n/a	n/a	n/a	n/a	n/a	n/a
n/a	"image-keyboard-response"	"191"	"391556"	"0.0-6.0-2.0-1.3"	"sj4e3e"	"600"	"1366"	"chrome"	"110.0.0"	"FALSE"	"Windows 10"	"61.03"	"031"	n/a	n/a	n/a	n/a	n/a	n/a	"Trial"	n/a	n/a	n/a	"670"	"arrowup"	n/a	"NULL"	"NULL"	"NULL"	"stimuli/MullerLyer_-2.3000_0.35000.png"	n/a	"MullerLyer"	"arrowup"	"1232"	"TRUE"	"MullerLyer"	"-2.300000000"	"0.3500000000"	"2"	"4"
n/a	"html-keyboard-response"	"192"	"393031"	"0.0-6.0-2.0-0.4"	"sj4e3e"	"600"	"1366"	"chrome"	"110.0.0"	"FALSE"	"Windows 10"	"61.03"	"031"	n/a	n/a	n/a	n/a	n/a	n/a	"fixation"	n/a	n/a	n/a	n/a	"NULL"	n/a	"NULL"	"NULL"	"NULL"	"<p style=\"color: black; font-size: 80px; padding-left: 13%; padding-right: 34%; padding-top: 46%; padding-bottom: 7%\">+</p>"	"1461"	n/a	n/a	n/a	n/a	n/a	n/a	n/a	n/a	n/a
n/a	"image-keyboard-response"	"193"	"393745"	"0.0-6.0-2.0-1.4"	"sj4e3e"	"600"	"1366"	"chrome"	"110.0.0"	"FALSE"	"Windows 10"	"61.03"	"031"	n/a	n/a	n/a	n/a	n/a	n/a	"Trial"	n/a	n/a	n/a	"713"	"arrowup"	n/a	"NULL"	"NULL"	"NULL"	"stimuli/MullerLyer_-2.3000_0.07627.png"	n/a	"MullerLyer"	"arrowup"	"1475"	"TRUE"	"MullerLyer"	"-2.300000000"	"0.0762700000"	"2"	"5"
n/a	"html-keyboard-response"	"194"	"395077"	"0.0-6.0-2.0-0.5"	"sj4e3e"	"600"	"1366"	"chrome"	"110.0.0"	"FALSE"	"Windows 10"	"61.03"	"031"	n/a	n/a	n/a	n/a	n/a	n/a	"fixation"	n/a	n/a	n/a	n/a	"NULL"	n/a	"NULL"	"NULL"	"NULL"	"<p style=\"color: black; font-size: 80px; padding-left: 21%; padding-right: 19%; padding-top: 16%; padding-bottom: 3%\">+</p>"	"1321"	n/a	n/a	n/a	n/a	n/a	n/a	n/a	n/a	n/a
n/a	"image-keyboard-response"	"195"	"396036"	"0.0-6.0-2.0-1.5"	"sj4e3e"	"600"	"1366"	"chrome"	"110.0.0"	"FALSE"	"Windows 10"	"61.03"	"031"	n/a	n/a	n/a	n/a	n/a	n/a	"Trial"	n/a	n/a	n/a	"959"	"arrowup"	n/a	"NULL"	"NULL"	"NULL"	"stimuli/MullerLyer_14.12857_0.35000.png"	n/a	"MullerLyer"	"arrowup"	"1332"	"TRUE"	"MullerLyer"	"14.128570000"	"0.3500000000"	"2"	"6"
n/a	"html-keyboard-response"	"196"	"397297"	"0.0-6.0-2.0-0.6"	"sj4e3e"	"600"	"1366"	"chrome"	"110.0.0"	"FALSE"	"Windows 10"	"61.03"	"031"	n/a	n/a	n/a	n/a	n/a	n/a	"fixation"	n/a	n/a	n/a	n/a	"NULL"	n/a	"NULL"	"NULL"	"NULL"	"<p style=\"color: black; font-size: 80px; padding-left: 34%; padding-right: 23%; padding-top: 8%; padding-bottom: 17%\">+</p>"	"1248"	n/a	n/a	n/a	n/a	n/a	n/a	n/a	n/a	n/a
n/a	"image-keyboard-response"	"197"	"398117"	"0.0-6.0-2.0-1.6"	"sj4e3e"	"600"	"1366"	"chrome"	"110.0.0"	"FALSE"	"Windows 10"	"61.03"	"031"	n/a	n/a	n/a	n/a	n/a	n/a	"Trial"	n/a	n/a	n/a	"819"	"arrowup"	n/a	"NULL"	"NULL"	"NULL"	"stimuli/MullerLyer_2.30000_0.35000.png"	n/a	"MullerLyer"	"arrowup"	"1261"	"TRUE"	"MullerLyer"	"2.3000000000"	"0.3500000000"	"2"	"7"
n/a	"html-keyboard-response"	"198"	"399458"	"0.0-6.0-2.0-0.7"	"sj4e3e"	"600"	"1366"	"chrome"	"110.0.0"	"FALSE"	"Windows 10"	"61.03"	"031"	n/a	n/a	n/a	n/a	n/a	n/a	"fixation"	n/a	n/a	n/a	n/a	"NULL"	n/a	"NULL"	"NULL"	"NULL"	"<p style=\"color: black; font-size: 80px; padding-left: 16%; padding-right: 26%; padding-top: 48%; padding-bottom: 2%\">+</p>"	"1339"	n/a	n/a	n/a	n/a	n/a	n/a	n/a	n/a	n/a
n/a	"image-keyboard-response"	"199"	"399923"	"0.0-6.0-2.0-1.7"	"sj4e3e"	"600"	"1366"	"chrome"	"110.0.0"	"FALSE"	"Windows 10"	"61.03"	"031"	n/a	n/a	n/a	n/a	n/a	n/a	"Trial"	n/a	n/a	n/a	"465"	"arrowdown"	n/a	"NULL"	"NULL"	"NULL"	"stimuli/MullerLyer_-20.04286_-0.07627.png"	n/a	"MullerLyer"	"arrowdown"	"1341"	"TRUE"	"MullerLyer"	"-20.04286000"	"-0.076270000"	"2"	"8"
n/a	"html-keyboard-response"	"200"	"401364"	"0.0-6.0-2.0-0.8"	"sj4e3e"	"600"	"1366"	"chrome"	"110.0.0"	"FALSE"	"Windows 10"	"61.03"	"031"	n/a	n/a	n/a	n/a	n/a	n/a	"fixation"	n/a	n/a	n/a	n/a	"NULL"	n/a	"NULL"	"NULL"	"NULL"	"<p style=\"color: black; font-size: 80px; padding-left: 32%; padding-right: 24%; padding-top: 43%; padding-bottom: 19%\">+</p>"	"1436"	n/a	n/a	n/a	n/a	n/a	n/a	n/a	n/a	n/a
n/a	"image-keyboard-response"	"201"	"402455"	"0.0-6.0-2.0-1.8"	"sj4e3e"	"600"	"1366"	"chrome"	"110.0.0"	"FALSE"	"Windows 10"	"61.03"	"031"	n/a	n/a	n/a	n/a	n/a	n/a	"Trial"	n/a	n/a	n/a	"1091"	"arrowup"	n/a	"NULL"	"NULL"	"NULL"	"stimuli/MullerLyer_8.21429_-0.14541.png"	n/a	"MullerLyer"	"arrowdown"	"1441"	"FALSE"	"MullerLyer"	"8.2142900000"	"-0.145410000"	"2"	"9"
n/a	"html-keyboard-response"	"202"	"403750"	"0.0-6.0-2.0-0.9"	"sj4e3e"	"600"	"1366"	"chrome"	"110.0.0"	"FALSE"	"Windows 10"	"61.03"	"031"	n/a	n/a	n/a	n/a	n/a	n/a	"fixation"	n/a	n/a	n/a	n/a	"NULL"	n/a	"NULL"	"NULL"	"NULL"	"<p style=\"color: black; font-size: 80px; padding-left: 7%; padding-right: 12%; padding-top: 37%; padding-bottom: 24%\">+</p>"	"1280"	n/a	n/a	n/a	n/a	n/a	n/a	n/a	n/a	n/a
n/a	"image-keyboard-response"	"203"	"404313"	"0.0-6.0-2.0-1.9"	"sj4e3e"	"600"	"1366"	"chrome"	"110.0.0"	"FALSE"	"Windows 10"	"61.03"	"031"	n/a	n/a	n/a	n/a	n/a	n/a	"Trial"	n/a	n/a	n/a	"563"	"arrowup"	n/a	"NULL"	"NULL"	"NULL"	"stimuli/MullerLyer_-20.04286_0.35000.png"	n/a	"MullerLyer"	"arrowup"	"1295"	"TRUE"	"MullerLyer"	"-20.04286000"	"0.3500000000"	"2"	"10"
n/a	"html-keyboard-response"	"204"	"405437"	"0.0-6.0-2.0-0.10"	"sj4e3e"	"600"	"1366"	"chrome"	"110.0.0"	"FALSE"	"Windows 10"	"61.03"	"031"	n/a	n/a	n/a	n/a	n/a	n/a	"fixation"	n/a	n/a	n/a	n/a	"NULL"	n/a	"NULL"	"NULL"	"NULL"	"<p style=\"color: black; font-size: 80px; padding-left: 46%; padding-right: 26%; padding-top: 37%; padding-bottom: 21%\">+</p>"	"1119"	n/a	n/a	n/a	n/a	n/a	n/a	n/a	n/a	n/a
n/a	"image-keyboard-response"	"205"	"405957"	"0.0-6.0-2.0-1.10"	"sj4e3e"	"600"	"1366"	"chrome"	"110.0.0"	"FALSE"	"Windows 10"	"61.03"	"031"	n/a	n/a	n/a	n/a	n/a	n/a	"Trial"	n/a	n/a	n/a	"519"	"arrowup"	n/a	"NULL"	"NULL"	"NULL"	"stimuli/MullerLyer_8.21429_0.35000.png"	n/a	"MullerLyer"	"arrowup"	"1124"	"TRUE"	"MullerLyer"	"8.2142900000"	"0.3500000000"	"2"	"11"
n/a	"html-keyboard-response"	"206"	"407335"	"0.0-6.0-2.0-0.11"	"sj4e3e"	"600"	"1366"	"chrome"	"110.0.0"	"FALSE"	"Windows 10"	"61.03"	"031"	n/a	n/a	n/a	n/a	n/a	n/a	"fixation"	n/a	n/a	n/a	n/a	"NULL"	n/a	"NULL"	"NULL"	"NULL"	"<p style=\"color: black; font-size: 80px; padding-left: 29%; padding-right: 12%; padding-top: 28%; padding-bottom: 40%\">+</p>"	"1369"	n/a	n/a	n/a	n/a	n/a	n/a	n/a	n/a	n/a
n/a	"image-keyboard-response"	"207"	"408054"	"0.0-6.0-2.0-1.11"	"sj4e3e"	"600"	"1366"	"chrome"	"110.0.0"	"FALSE"	"Windows 10"	"61.03"	"031"	n/a	n/a	n/a	n/a	n/a	n/a	"Trial"	n/a	n/a	n/a	"718"	"arrowdown"	n/a	"NULL"	"NULL"	"NULL"	"stimuli/MullerLyer_14.12857_0.07627.png"	n/a	"MullerLyer"	"arrowup"	"1378"	"FALSE"	"MullerLyer"	"14.128570000"	"0.0762700000"	"2"	"12"
n/a	"html-keyboard-response"	"208"	"409166"	"0.0-6.0-2.0-0.12"	"sj4e3e"	"600"	"1366"	"chrome"	"110.0.0"	"FALSE"	"Windows 10"	"61.03"	"031"	n/a	n/a	n/a	n/a	n/a	n/a	"fixation"	n/a	n/a	n/a	n/a	"NULL"	n/a	"NULL"	"NULL"	"NULL"	"<p style=\"color: black; font-size: 80px; padding-left: 8%; padding-right: 3%; padding-top: 27%; padding-bottom: 14%\">+</p>"	"1109"	n/a	n/a	n/a	n/a	n/a	n/a	n/a	n/a	n/a
n/a	"image-keyboard-response"	"209"	"409694"	"0.0-6.0-2.0-1.12"	"sj4e3e"	"600"	"1366"	"chrome"	"110.0.0"	"FALSE"	"Windows 10"	"61.03"	"031"	n/a	n/a	n/a	n/a	n/a	n/a	"Trial"	n/a	n/a	n/a	"526"	"arrowdown"	n/a	"NULL"	"NULL"	"NULL"	"stimuli/MullerLyer_-14.12857_-0.23665.png"	n/a	"MullerLyer"	"arrowdown"	"1112"	"TRUE"	"MullerLyer"	"-14.12857000"	"-0.236650000"	"2"	"13"
n/a	"html-keyboard-response"	"210"	"410822"	"0.0-6.0-2.0-0.13"	"sj4e3e"	"600"	"1366"	"chrome"	"110.0.0"	"FALSE"	"Windows 10"	"61.03"	"031"	n/a	n/a	n/a	n/a	n/a	n/a	"fixation"	n/a	n/a	n/a	n/a	"NULL"	n/a	"NULL"	"NULL"	"NULL"	"<p style=\"color: black; font-size: 80px; padding-left: 26%; padding-right: 38%; padding-top: 18%; padding-bottom: 38%\">+</p>"	"1119"	n/a	n/a	n/a	n/a	n/a	n/a	n/a	n/a	n/a
n/a	"image-keyboard-response"	"211"	"411452"	"0.0-6.0-2.0-1.13"	"sj4e3e"	"600"	"1366"	"chrome"	"110.0.0"	"FALSE"	"Windows 10"	"61.03"	"031"	n/a	n/a	n/a	n/a	n/a	n/a	"Trial"	n/a	n/a	n/a	"629"	"arrowup"	n/a	"NULL"	"NULL"	"NULL"	"stimuli/MullerLyer_20.04286_0.35000.png"	n/a	"MullerLyer"	"arrowup"	"1128"	"TRUE"	"MullerLyer"	"20.042860000"	"0.3500000000"	"2"	"14"
n/a	"html-keyboard-response"	"212"	"412544"	"0.0-6.0-2.0-0.14"	"sj4e3e"	"600"	"1366"	"chrome"	"110.0.0"	"FALSE"	"Windows 10"	"61.03"	"031"	n/a	n/a	n/a	n/a	n/a	n/a	"fixation"	n/a	n/a	n/a	n/a	"NULL"	n/a	"NULL"	"NULL"	"NULL"	"<p style=\"color: black; font-size: 80px; padding-left: 36%; padding-right: 40%; padding-top: 45%; padding-bottom: 21%\">+</p>"	"1091"	n/a	n/a	n/a	n/a	n/a	n/a	n/a	n/a	n/a
n/a	"image-keyboard-response"	"213"	"413090"	"0.0-6.0-2.0-1.14"	"sj4e3e"	"600"	"1366"	"chrome"	"110.0.0"	"FALSE"	"Windows 10"	"61.03"	"031"	n/a	n/a	n/a	n/a	n/a	n/a	"Trial"	n/a	n/a	n/a	"546"	"arrowdown"	n/a	"NULL"	"NULL"	"NULL"	"stimuli/MullerLyer_-8.21429_-0.23665.png"	n/a	"MullerLyer"	"arrowdown"	"1092"	"TRUE"	"MullerLyer"	"-8.214290000"	"-0.236650000"	"2"	"15"
n/a	"html-keyboard-response"	"214"	"414475"	"0.0-6.0-2.0-0.15"	"sj4e3e"	"600"	"1366"	"chrome"	"110.0.0"	"FALSE"	"Windows 10"	"61.03"	"031"	n/a	n/a	n/a	n/a	n/a	n/a	"fixation"	n/a	n/a	n/a	n/a	"NULL"	n/a	"NULL"	"NULL"	"NULL"	"<p style=\"color: black; font-size: 80px; padding-left: 36%; padding-right: 26%; padding-top: 32%; padding-bottom: 7%\">+</p>"	"1370"	n/a	n/a	n/a	n/a	n/a	n/a	n/a	n/a	n/a
n/a	"image-keyboard-response"	"215"	"415061"	"0.0-6.0-2.0-1.15"	"sj4e3e"	"600"	"1366"	"chrome"	"110.0.0"	"FALSE"	"Windows 10"	"61.03"	"031"	n/a	n/a	n/a	n/a	n/a	n/a	"Trial"	n/a	n/a	n/a	"585"	"arrowup"	n/a	"NULL"	"NULL"	"NULL"	"stimuli/MullerLyer_8.21429_-0.07627.png"	n/a	"MullerLyer"	"arrowdown"	"1385"	"FALSE"	"MullerLyer"	"8.2142900000"	"-0.076270000"	"2"	"16"
n/a	"html-keyboard-response"	"216"	"416356"	"0.0-6.0-2.0-0.16"	"sj4e3e"	"600"	"1366"	"chrome"	"110.0.0"	"FALSE"	"Windows 10"	"61.03"	"031"	n/a	n/a	n/a	n/a	n/a	n/a	"fixation"	n/a	n/a	n/a	n/a	"NULL"	n/a	"NULL"	"NULL"	"NULL"	"<p style=\"color: black; font-size: 80px; padding-left: 39%; padding-right: 34%; padding-top: 31%; padding-bottom: 16%\">+</p>"	"1282"	n/a	n/a	n/a	n/a	n/a	n/a	n/a	n/a	n/a
n/a	"image-keyboard-response"	"217"	"416845"	"0.0-6.0-2.0-1.16"	"sj4e3e"	"600"	"1366"	"chrome"	"110.0.0"	"FALSE"	"Windows 10"	"61.03"	"031"	n/a	n/a	n/a	n/a	n/a	n/a	"Trial"	n/a	n/a	n/a	"488"	"arrowup"	n/a	"NULL"	"NULL"	"NULL"	"stimuli/MullerLyer_20.04286_-0.14541.png"	n/a	"MullerLyer"	"arrowdown"	"1295"	"FALSE"	"MullerLyer"	"20.042860000"	"-0.145410000"	"2"	"17"
n/a	"html-keyboard-response"	"218"	"418281"	"0.0-6.0-2.0-0.17"	"sj4e3e"	"600"	"1366"	"chrome"	"110.0.0"	"FALSE"	"Windows 10"	"61.03"	"031"	n/a	n/a	n/a	n/a	n/a	n/a	"fixation"	n/a	n/a	n/a	n/a	"NULL"	n/a	"NULL"	"NULL"	"NULL"	"<p style=\"color: black; font-size: 80px; padding-left: 26%; padding-right: 10%; padding-top: 15%; padding-bottom: 13%\">+</p>"	"1430"	n/a	n/a	n/a	n/a	n/a	n/a	n/a	n/a	n/a
n/a	"image-keyboard-response"	"219"	"418812"	"0.0-6.0-2.0-1.17"	"sj4e3e"	"600"	"1366"	"chrome"	"110.0.0"	"FALSE"	"Windows 10"	"61.03"	"031"	n/a	n/a	n/a	n/a	n/a	n/a	"Trial"	n/a	n/a	n/a	"530"	"arrowdown"	n/a	"NULL"	"NULL"	"NULL"	"stimuli/MullerLyer_20.04286_0.14541.png"	n/a	"MullerLyer"	"arrowup"	"1436"	"FALSE"	"MullerLyer"	"20.042860000"	"0.1454100000"	"2"	"18"
n/a	"html-keyboard-response"	"220"	"420098"	"0.0-6.0-2.0-0.18"	"sj4e3e"	"600"	"1366"	"chrome"	"110.0.0"	"FALSE"	"Windows 10"	"61.03"	"031"	n/a	n/a	n/a	n/a	n/a	n/a	"fixation"	n/a	n/a	n/a	n/a	"NULL"	n/a	"NULL"	"NULL"	"NULL"	"<p style=\"color: black; font-size: 80px; padding-left: 14%; padding-right: 32%; padding-top: 46%; padding-bottom: 25%\">+</p>"	"1273"	n/a	n/a	n/a	n/a	n/a	n/a	n/a	n/a	n/a
n/a	"image-keyboard-response"	"221"	"420606"	"0.0-6.0-2.0-1.18"	"sj4e3e"	"600"	"1366"	"chrome"	"110.0.0"	"FALSE"	"Windows 10"	"61.03"	"031"	n/a	n/a	n/a	n/a	n/a	n/a	"Trial"	n/a	n/a	n/a	"507"	"arrowup"	n/a	"NULL"	"NULL"	"NULL"	"stimuli/MullerLyer_-8.21429_0.07627.png"	n/a	"MullerLyer"	"arrowup"	"1286"	"TRUE"	"MullerLyer"	"-8.214290000"	"0.0762700000"	"2"	"19"
n/a	"html-keyboard-response"	"222"	"422025"	"0.0-6.0-2.0-0.19"	"sj4e3e"	"600"	"1366"	"chrome"	"110.0.0"	"FALSE"	"Windows 10"	"61.03"	"031"	n/a	n/a	n/a	n/a	n/a	n/a	"fixation"	n/a	n/a	n/a	n/a	"NULL"	n/a	"NULL"	"NULL"	"NULL"	"<p style=\"color: black; font-size: 80px; padding-left: 32%; padding-right: 47%; padding-top: 11%; padding-bottom: 39%\">+</p>"	"1403"	n/a	n/a	n/a	n/a	n/a	n/a	n/a	n/a	n/a
n/a	"image-keyboard-response"	"223"	"422532"	"0.0-6.0-2.0-1.19"	"sj4e3e"	"600"	"1366"	"chrome"	"110.0.0"	"FALSE"	"Windows 10"	"61.03"	"031"	n/a	n/a	n/a	n/a	n/a	n/a	"Trial"	n/a	n/a	n/a	"507"	"arrowup"	n/a	"NULL"	"NULL"	"NULL"	"stimuli/MullerLyer_-20.04286_0.07627.png"	n/a	"MullerLyer"	"arrowup"	"1419"	"TRUE"	"MullerLyer"	"-20.04286000"	"0.0762700000"	"2"	"20"
n/a	"html-keyboard-response"	"224"	"423725"	"0.0-6.0-2.0-0.20"	"sj4e3e"	"600"	"1366"	"chrome"	"110.0.0"	"FALSE"	"Windows 10"	"61.03"	"031"	n/a	n/a	n/a	n/a	n/a	n/a	"fixation"	n/a	n/a	n/a	n/a	"NULL"	n/a	"NULL"	"NULL"	"NULL"	"<p style=\"color: black; font-size: 80px; padding-left: 31%; padding-right: 45%; padding-top: 44%; padding-bottom: 23%\">+</p>"	"1188"	n/a	n/a	n/a	n/a	n/a	n/a	n/a	n/a	n/a
n/a	"image-keyboard-response"	"225"	"424160"	"0.0-6.0-2.0-1.20"	"sj4e3e"	"600"	"1366"	"chrome"	"110.0.0"	"FALSE"	"Windows 10"	"61.03"	"031"	n/a	n/a	n/a	n/a	n/a	n/a	"Trial"	n/a	n/a	n/a	"435"	"arrowup"	n/a	"NULL"	"NULL"	"NULL"	"stimuli/MullerLyer_2.30000_0.23665.png"	n/a	"MullerLyer"	"arrowup"	"1193"	"TRUE"	"MullerLyer"	"2.3000000000"	"0.2366500000"	"2"	"21"
n/a	"html-keyboard-response"	"226"	"425235"	"0.0-6.0-2.0-0.21"	"sj4e3e"	"600"	"1366"	"chrome"	"110.0.0"	"FALSE"	"Windows 10"	"61.03"	"031"	n/a	n/a	n/a	n/a	n/a	n/a	"fixation"	n/a	n/a	n/a	n/a	"NULL"	n/a	"NULL"	"NULL"	"NULL"	"<p style=\"color: black; font-size: 80px; padding-left: 46%; padding-right: 32%; padding-top: 16%; padding-bottom: 28%\">+</p>"	"1064"	n/a	n/a	n/a	n/a	n/a	n/a	n/a	n/a	n/a
n/a	"image-keyboard-response"	"227"	"425664"	"0.0-6.0-2.0-1.21"	"sj4e3e"	"600"	"1366"	"chrome"	"110.0.0"	"FALSE"	"Windows 10"	"61.03"	"031"	n/a	n/a	n/a	n/a	n/a	n/a	"Trial"	n/a	n/a	n/a	"425"	"arrowup"	n/a	"NULL"	"NULL"	"NULL"	"stimuli/MullerLyer_14.12857_-0.14541.png"	n/a	"MullerLyer"	"arrowdown"	"1075"	"FALSE"	"MullerLyer"	"14.128570000"	"-0.145410000"	"2"	"22"
n/a	"html-keyboard-response"	"228"	"427093"	"0.0-6.0-2.0-0.22"	"sj4e3e"	"600"	"1366"	"chrome"	"110.0.0"	"FALSE"	"Windows 10"	"61.03"	"031"	n/a	n/a	n/a	n/a	n/a	n/a	"fixation"	n/a	n/a	n/a	n/a	"NULL"	n/a	"NULL"	"NULL"	"NULL"	"<p style=\"color: black; font-size: 80px; padding-left: 22%; padding-right: 49%; padding-top: 35%; padding-bottom: 33%\">+</p>"	"1420"	n/a	n/a	n/a	n/a	n/a	n/a	n/a	n/a	n/a
n/a	"image-keyboard-response"	"229"	"427497"	"0.0-6.0-2.0-1.22"	"sj4e3e"	"600"	"1366"	"chrome"	"110.0.0"	"FALSE"	"Windows 10"	"61.03"	"031"	n/a	n/a	n/a	n/a	n/a	n/a	"Trial"	n/a	n/a	n/a	"403"	"arrowup"	n/a	"NULL"	"NULL"	"NULL"	"stimuli/MullerLyer_14.12857_-0.07627.png"	n/a	"MullerLyer"	"arrowdown"	"1429"	"FALSE"	"MullerLyer"	"14.128570000"	"-0.076270000"	"2"	"23"
n/a	"html-keyboard-response"	"230"	"428947"	"0.0-6.0-2.0-0.23"	"sj4e3e"	"600"	"1366"	"chrome"	"110.0.0"	"FALSE"	"Windows 10"	"61.03"	"031"	n/a	n/a	n/a	n/a	n/a	n/a	"fixation"	n/a	n/a	n/a	n/a	"NULL"	n/a	"NULL"	"NULL"	"NULL"	"<p style=\"color: black; font-size: 80px; padding-left: 15%; padding-right: 4%; padding-top: 33%; padding-bottom: 11%\">+</p>"	"1442"	n/a	n/a	n/a	n/a	n/a	n/a	n/a	n/a	n/a
n/a	"image-keyboard-response"	"231"	"429645"	"0.0-6.0-2.0-1.23"	"sj4e3e"	"600"	"1366"	"chrome"	"110.0.0"	"FALSE"	"Windows 10"	"61.03"	"031"	n/a	n/a	n/a	n/a	n/a	n/a	"Trial"	n/a	n/a	n/a	"697"	"arrowdown"	n/a	"NULL"	"NULL"	"NULL"	"stimuli/MullerLyer_14.12857_0.23665.png"	n/a	"MullerLyer"	"arrowup"	"1450"	"FALSE"	"MullerLyer"	"14.128570000"	"0.2366500000"	"2"	"24"
n/a	"html-keyboard-response"	"232"	"430761"	"0.0-6.0-2.0-0.24"	"sj4e3e"	"600"	"1366"	"chrome"	"110.0.0"	"FALSE"	"Windows 10"	"61.03"	"031"	n/a	n/a	n/a	n/a	n/a	n/a	"fixation"	n/a	n/a	n/a	n/a	"NULL"	n/a	"NULL"	"NULL"	"NULL"	"<p style=\"color: black; font-size: 80px; padding-left: 26%; padding-right: 41%; padding-top: 24%; padding-bottom: 8%\">+</p>"	"1102"	n/a	n/a	n/a	n/a	n/a	n/a	n/a	n/a	n/a
n/a	"image-keyboard-response"	"233"	"431277"	"0.0-6.0-2.0-1.24"	"sj4e3e"	"600"	"1366"	"chrome"	"110.0.0"	"FALSE"	"Windows 10"	"61.03"	"031"	n/a	n/a	n/a	n/a	n/a	n/a	"Trial"	n/a	n/a	n/a	"515"	"arrowdown"	n/a	"NULL"	"NULL"	"NULL"	"stimuli/MullerLyer_14.12857_-0.3500.png"	n/a	"MullerLyer"	"arrowdown"	"1116"	"TRUE"	"MullerLyer"	"14.128570000"	"-0.350000000"	"2"	"25"
n/a	"html-keyboard-response"	"234"	"432767"	"0.0-6.0-2.0-0.25"	"sj4e3e"	"600"	"1366"	"chrome"	"110.0.0"	"FALSE"	"Windows 10"	"61.03"	"031"	n/a	n/a	n/a	n/a	n/a	n/a	"fixation"	n/a	n/a	n/a	n/a	"NULL"	n/a	"NULL"	"NULL"	"NULL"	"<p style=\"color: black; font-size: 80px; padding-left: 16%; padding-right: 33%; padding-top: 46%; padding-bottom: 13%\">+</p>"	"1482"	n/a	n/a	n/a	n/a	n/a	n/a	n/a	n/a	n/a
n/a	"image-keyboard-response"	"235"	"433220"	"0.0-6.0-2.0-1.25"	"sj4e3e"	"600"	"1366"	"chrome"	"110.0.0"	"FALSE"	"Windows 10"	"61.03"	"031"	n/a	n/a	n/a	n/a	n/a	n/a	"Trial"	n/a	n/a	n/a	"452"	"arrowdown"	n/a	"NULL"	"NULL"	"NULL"	"stimuli/MullerLyer_-20.04286_-0.14541.png"	n/a	"MullerLyer"	"arrowdown"	"1490"	"TRUE"	"MullerLyer"	"-20.04286000"	"-0.145410000"	"2"	"26"
n/a	"html-keyboard-response"	"236"	"434439"	"0.0-6.0-2.0-0.26"	"sj4e3e"	"600"	"1366"	"chrome"	"110.0.0"	"FALSE"	"Windows 10"	"61.03"	"031"	n/a	n/a	n/a	n/a	n/a	n/a	"fixation"	n/a	n/a	n/a	n/a	"NULL"	n/a	"NULL"	"NULL"	"NULL"	"<p style=\"color: black; font-size: 80px; padding-left: 42%; padding-right: 35%; padding-top: 23%; padding-bottom: 23%\">+</p>"	"1215"	n/a	n/a	n/a	n/a	n/a	n/a	n/a	n/a	n/a
n/a	"image-keyboard-response"	"237"	"434878"	"0.0-6.0-2.0-1.26"	"sj4e3e"	"600"	"1366"	"chrome"	"110.0.0"	"FALSE"	"Windows 10"	"61.03"	"031"	n/a	n/a	n/a	n/a	n/a	n/a	"Trial"	n/a	n/a	n/a	"439"	"arrowdown"	n/a	"NULL"	"NULL"	"NULL"	"stimuli/MullerLyer_2.30000_-0.3500.png"	n/a	"MullerLyer"	"arrowdown"	"1219"	"TRUE"	"MullerLyer"	"2.3000000000"	"-0.350000000"	"2"	"27"
n/a	"html-keyboard-response"	"238"	"436125"	"0.0-6.0-2.0-0.27"	"sj4e3e"	"600"	"1366"	"chrome"	"110.0.0"	"FALSE"	"Windows 10"	"61.03"	"031"	n/a	n/a	n/a	n/a	n/a	n/a	"fixation"	n/a	n/a	n/a	n/a	"NULL"	n/a	"NULL"	"NULL"	"NULL"	"<p style=\"color: black; font-size: 80px; padding-left: 28%; padding-right: 22%; padding-top: 5%; padding-bottom: 31%\">+</p>"	"1230"	n/a	n/a	n/a	n/a	n/a	n/a	n/a	n/a	n/a
n/a	"image-keyboard-response"	"239"	"436933"	"0.0-6.0-2.0-1.27"	"sj4e3e"	"600"	"1366"	"chrome"	"110.0.0"	"FALSE"	"Windows 10"	"61.03"	"031"	n/a	n/a	n/a	n/a	n/a	n/a	"Trial"	n/a	n/a	n/a	"808"	"arrowdown"	n/a	"NULL"	"NULL"	"NULL"	"stimuli/MullerLyer_2.30000_0.14541.png"	n/a	"MullerLyer"	"arrowup"	"1247"	"FALSE"	"MullerLyer"	"2.3000000000"	"0.1454100000"	"2"	"28"
n/a	"html-keyboard-response"	"240"	"438093"	"0.0-6.0-2.0-0.28"	"sj4e3e"	"600"	"1366"	"chrome"	"110.0.0"	"FALSE"	"Windows 10"	"61.03"	"031"	n/a	n/a	n/a	n/a	n/a	n/a	"fixation"	n/a	n/a	n/a	n/a	"NULL"	n/a	"NULL"	"NULL"	"NULL"	"<p style=\"color: black; font-size: 80px; padding-left: 38%; padding-right: 35%; padding-top: 25%; padding-bottom: 33%\">+</p>"	"1151"	n/a	n/a	n/a	n/a	n/a	n/a	n/a	n/a	n/a
n/a	"image-keyboard-response"	"241"	"439143"	"0.0-6.0-2.0-1.28"	"sj4e3e"	"600"	"1366"	"chrome"	"110.0.0"	"FALSE"	"Windows 10"	"61.03"	"031"	n/a	n/a	n/a	n/a	n/a	n/a	"Trial"	n/a	n/a	n/a	"1049"	"arrowup"	n/a	"NULL"	"NULL"	"NULL"	"stimuli/MullerLyer_-2.3000_0.23665.png"	n/a	"MullerLyer"	"arrowup"	"1160"	"TRUE"	"MullerLyer"	"-2.300000000"	"0.2366500000"	"2"	"29"
n/a	"html-keyboard-response"	"242"	"440234"	"0.0-6.0-2.0-0.29"	"sj4e3e"	"600"	"1366"	"chrome"	"110.0.0"	"FALSE"	"Windows 10"	"61.03"	"031"	n/a	n/a	n/a	n/a	n/a	n/a	"fixation"	n/a	n/a	n/a	n/a	"NULL"	n/a	"NULL"	"NULL"	"NULL"	"<p style=\"color: black; font-size: 80px; padding-left: 39%; padding-right: 31%; padding-top: 24%; padding-bottom: 17%\">+</p>"	"1084"	n/a	n/a	n/a	n/a	n/a	n/a	n/a	n/a	n/a
n/a	"image-keyboard-response"	"243"	"440885"	"0.0-6.0-2.0-1.29"	"sj4e3e"	"600"	"1366"	"chrome"	"110.0.0"	"FALSE"	"Windows 10"	"61.03"	"031"	n/a	n/a	n/a	n/a	n/a	n/a	"Trial"	n/a	n/a	n/a	"650"	"arrowdown"	n/a	"NULL"	"NULL"	"NULL"	"stimuli/MullerLyer_8.21429_0.14541.png"	n/a	"MullerLyer"	"arrowup"	"1091"	"FALSE"	"MullerLyer"	"8.2142900000"	"0.1454100000"	"2"	"30"
n/a	"html-keyboard-response"	"244"	"442207"	"0.0-6.0-2.0-0.30"	"sj4e3e"	"600"	"1366"	"chrome"	"110.0.0"	"FALSE"	"Windows 10"	"61.03"	"031"	n/a	n/a	n/a	n/a	n/a	n/a	"fixation"	n/a	n/a	n/a	n/a	"NULL"	n/a	"NULL"	"NULL"	"NULL"	"<p style=\"color: black; font-size: 80px; padding-left: 30%; padding-right: 5%; padding-top: 47%; padding-bottom: 12%\">+</p>"	"1319"	n/a	n/a	n/a	n/a	n/a	n/a	n/a	n/a	n/a
n/a	"image-keyboard-response"	"245"	"442718"	"0.0-6.0-2.0-1.30"	"sj4e3e"	"600"	"1366"	"chrome"	"110.0.0"	"FALSE"	"Windows 10"	"61.03"	"031"	n/a	n/a	n/a	n/a	n/a	n/a	"Trial"	n/a	n/a	n/a	"510"	"arrowdown"	n/a	"NULL"	"NULL"	"NULL"	"stimuli/MullerLyer_8.21429_0.07627.png"	n/a	"MullerLyer"	"arrowup"	"1322"	"FALSE"	"MullerLyer"	"8.2142900000"	"0.0762700000"	"2"	"31"
n/a	"html-keyboard-response"	"246"	"443943"	"0.0-6.0-2.0-0.31"	"sj4e3e"	"600"	"1366"	"chrome"	"110.0.0"	"FALSE"	"Windows 10"	"61.03"	"031"	n/a	n/a	n/a	n/a	n/a	n/a	"fixation"	n/a	n/a	n/a	n/a	"NULL"	n/a	"NULL"	"NULL"	"NULL"	"<p style=\"color: black; font-size: 80px; padding-left: 21%; padding-right: 24%; padding-top: 47%; padding-bottom: 23%\">+</p>"	"1218"	n/a	n/a	n/a	n/a	n/a	n/a	n/a	n/a	n/a
n/a	"image-keyboard-response"	"247"	"444383"	"0.0-6.0-2.0-1.31"	"sj4e3e"	"600"	"1366"	"chrome"	"110.0.0"	"FALSE"	"Windows 10"	"61.03"	"031"	n/a	n/a	n/a	n/a	n/a	n/a	"Trial"	n/a	n/a	n/a	"440"	"arrowdown"	n/a	"NULL"	"NULL"	"NULL"	"stimuli/MullerLyer_-14.12857_-0.14541.png"	n/a	"MullerLyer"	"arrowdown"	"1225"	"TRUE"	"MullerLyer"	"-14.12857000"	"-0.145410000"	"2"	"32"
n/a	"html-keyboard-response"	"248"	"445490"	"0.0-6.0-2.0-0.32"	"sj4e3e"	"600"	"1366"	"chrome"	"110.0.0"	"FALSE"	"Windows 10"	"61.03"	"031"	n/a	n/a	n/a	n/a	n/a	n/a	"fixation"	n/a	n/a	n/a	n/a	"NULL"	n/a	"NULL"	"NULL"	"NULL"	"<p style=\"color: black; font-size: 80px; padding-left: 10%; padding-right: 16%; padding-top: 49%; padding-bottom: 37%\">+</p>"	"1093"	n/a	n/a	n/a	n/a	n/a	n/a	n/a	n/a	n/a
n/a	"image-keyboard-response"	"249"	"446060"	"0.0-6.0-2.0-1.32"	"sj4e3e"	"600"	"1366"	"chrome"	"110.0.0"	"FALSE"	"Windows 10"	"61.03"	"031"	n/a	n/a	n/a	n/a	n/a	n/a	"Trial"	n/a	n/a	n/a	"570"	"arrowdown"	n/a	"NULL"	"NULL"	"NULL"	"stimuli/MullerLyer_8.21429_-0.23665.png"	n/a	"MullerLyer"	"arrowdown"	"1107"	"TRUE"	"MullerLyer"	"8.2142900000"	"-0.236650000"	"2"	"33"
n/a	"html-keyboard-response"	"250"	"447459"	"0.0-6.0-2.0-0.33"	"sj4e3e"	"600"	"1366"	"chrome"	"110.0.0"	"FALSE"	"Windows 10"	"61.03"	"031"	n/a	n/a	n/a	n/a	n/a	n/a	"fixation"	n/a	n/a	n/a	n/a	"NULL"	n/a	"NULL"	"NULL"	"NULL"	"<p style=\"color: black; font-size: 80px; padding-left: 36%; padding-right: 14%; padding-top: 22%; padding-bottom: 4%\">+</p>"	"1383"	n/a	n/a	n/a	n/a	n/a	n/a	n/a	n/a	n/a
n/a	"image-keyboard-response"	"251"	"448002"	"0.0-6.0-2.0-1.33"	"sj4e3e"	"600"	"1366"	"chrome"	"110.0.0"	"FALSE"	"Windows 10"	"61.03"	"031"	n/a	n/a	n/a	n/a	n/a	n/a	"Trial"	n/a	n/a	n/a	"542"	"arrowdown"	n/a	"NULL"	"NULL"	"NULL"	"stimuli/MullerLyer_-8.21429_-0.14541.png"	n/a	"MullerLyer"	"arrowdown"	"1399"	"TRUE"	"MullerLyer"	"-8.214290000"	"-0.145410000"	"2"	"34"
n/a	"html-keyboard-response"	"252"	"449055"	"0.0-6.0-2.0-0.34"	"sj4e3e"	"600"	"1366"	"chrome"	"110.0.0"	"FALSE"	"Windows 10"	"61.03"	"031"	n/a	n/a	n/a	n/a	n/a	n/a	"fixation"	n/a	n/a	n/a	n/a	"NULL"	n/a	"NULL"	"NULL"	"NULL"	"<p style=\"color: black; font-size: 80px; padding-left: 4%; padding-right: 34%; padding-top: 36%; padding-bottom: 4%\">+</p>"	"1036"	n/a	n/a	n/a	n/a	n/a	n/a	n/a	n/a	n/a
n/a	"image-keyboard-response"	"253"	"449568"	"0.0-6.0-2.0-1.34"	"sj4e3e"	"600"	"1366"	"chrome"	"110.0.0"	"FALSE"	"Windows 10"	"61.03"	"031"	n/a	n/a	n/a	n/a	n/a	n/a	"Trial"	n/a	n/a	n/a	"513"	"arrowdown"	n/a	"NULL"	"NULL"	"NULL"	"stimuli/MullerLyer_-2.3000_-0.07627.png"	n/a	"MullerLyer"	"arrowdown"	"1053"	"TRUE"	"MullerLyer"	"-2.300000000"	"-0.076270000"	"2"	"35"
