"success"	"trial_type"	"trial_index"	"time_elapsed"	"internal_node_id"	"participant_id"	"screen_height"	"screen_width"	"browser"	"browser_version"	"mobile"	"os"	"vsync_rate"	"subject_id"	"width"	"height"	"webaudio"	"fullscreen"	"webcam"	"microphone"	"screen"	"version"	"date"	"time"	"rt"	"response"	"timeout"	"failed_images"	"failed_audio"	"failed_video"	"stimulus"	"trial_duration"	"block"	"correct_response"	"prestimulus_duration"	"correct"	"type"	"illusion_strength"	"illusion_difference"	"block_number"	"trial_number"
"TRUE"	"fullscreen"	"0"	"1309"	"0.0-0.0"	"r0sdb2"	"600"	"1366"	"chrome"	"108.0.0"	"FALSE"	"Windows 10"	"60.7"	"141"	n/a	n/a	n/a	n/a	n/a	n/a	n/a	n/a	n/a	n/a	n/a	"NULL"	n/a	"NULL"	"NULL"	"NULL"	n/a	n/a	n/a	n/a	n/a	n/a	n/a	n/a	n/a	n/a	n/a
n/a	"browser-check"	"1"	"2321"	"0.0-1.0"	"r0sdb2"	"600"	"1366"	"chrome"	"108.0.0"	"FALSE"	"Windows 10"	"60.7"	"141"	"1366"	"600"	"TRUE"	"TRUE"	"TRUE"	"TRUE"	"browser_info"	"1.0"	"05/01/2023"	"18:37:55"	n/a	"NULL"	n/a	"NULL"	"NULL"	"NULL"	n/a	n/a	n/a	n/a	n/a	n/a	n/a	n/a	n/a	n/a	n/a
n/a	"survey-text"	"2"	"35204"	"0.0-2.0"	"r0sdb2"	"600"	"1366"	"chrome"	"108.0.0"	"FALSE"	"Windows 10"	"60.7"	"141"	n/a	n/a	n/a	n/a	n/a	n/a	"subject_id"	n/a	n/a	n/a	"32871"	"list(subject_id = \"141\")"	n/a	"NULL"	"NULL"	"NULL"	n/a	n/a	n/a	n/a	n/a	n/a	n/a	n/a	n/a	n/a	n/a
"TRUE"	"preload"	"3"	"35215"	"0.0-3.0"	"r0sdb2"	"600"	"1366"	"chrome"	"108.0.0"	"FALSE"	"Windows 10"	"60.7"	"141"	n/a	n/a	n/a	n/a	n/a	n/a	n/a	n/a	n/a	n/a	n/a	"NULL"	"FALSE"	"list()"	"list()"	"list()"	n/a	n/a	n/a	n/a	n/a	n/a	n/a	n/a	n/a	n/a	n/a
n/a	"html-button-response"	"4"	"54406"	"0.0-4.0-0.0"	"r0sdb2"	"600"	"1366"	"chrome"	"108.0.0"	"FALSE"	"Windows 10"	"60.7"	"141"	n/a	n/a	n/a	n/a	n/a	n/a	"illusion_instructions"	n/a	n/a	n/a	"19189"	"0"	n/a	"NULL"	"NULL"	"NULL"	"<p><b>Illusion Game</b></p><p>In this game of speed and reflex, you will need to make <b>visual judgments</b> (for instance, which circle is the biggest, or which line is the longest), as fast and as correctly as possible, while <b>resisting different visual illusions</b>.</p><p>We are going to start with some examples of all the illusions you will encounter in the game.</p>"	n/a	n/a	n/a	n/a	n/a	n/a	n/a	n/a	n/a	n/a
"TRUE"	"preload"	"5"	"54440"	"0.0-4.0-1.0-0.0"	"r0sdb2"	"600"	"1366"	"chrome"	"108.0.0"	"FALSE"	"Windows 10"	"60.7"	"141"	n/a	n/a	n/a	n/a	n/a	n/a	n/a	n/a	n/a	n/a	n/a	"NULL"	"FALSE"	"list()"	"list()"	"list()"	n/a	n/a	n/a	n/a	n/a	n/a	n/a	n/a	n/a	n/a	n/a
n/a	"html-keyboard-response"	"6"	"76360"	"0.0-4.0-1.0-1.0"	"r0sdb2"	"600"	"1366"	"chrome"	"108.0.0"	"FALSE"	"Windows 10"	"60.7"	"141"	n/a	n/a	n/a	n/a	n/a	n/a	n/a	n/a	n/a	n/a	"21919"	"enter"	n/a	"NULL"	"NULL"	"NULL"	"<p><b>Practice</b></p><p>In this part, two red circles will appear side by side on the screen.</p><p>Your task is to select which <b>red circle is bigger</b> in size as fast as you can, without making errors.</p><p>Don't get distracted by the surrounding black circles around the red circles!</p><p>Press <b>the LEFT or the RIGHT arrow</b> to indicate which is the bigger <b>red circle.</b></p><div style='float: center'><img src='materials/instructions/Ebbinghaus_Demo.png' height='300'></img><p><img src='utils/answer/answer_leftright_keyboard.PNG' height='150'></img></p><p class='small'>In this example, the correct answer is the <b>LEFT arrow</b>.</p></div><p>Are you ready? <b>Press ENTER to start</b></p>"	n/a	n/a	n/a	n/a	n/a	n/a	n/a	n/a	n/a	n/a
n/a	"html-keyboard-response"	"7"	"77911"	"0.0-4.0-1.0-2.0-0.0"	"r0sdb2"	"600"	"1366"	"chrome"	"108.0.0"	"FALSE"	"Windows 10"	"60.7"	"141"	n/a	n/a	n/a	n/a	n/a	n/a	"fixation"	n/a	n/a	n/a	n/a	"NULL"	n/a	"NULL"	"NULL"	"NULL"	"<p style=\"color: black; font-size: 80px; padding-left: 40%; padding-right: 0%; padding-top: 28%; padding-bottom: 20%\">+</p>"	"1037"	n/a	n/a	n/a	n/a	n/a	n/a	n/a	n/a	n/a
n/a	"image-keyboard-response"	"8"	"79233"	"0.0-4.0-1.0-2.0-1.0"	"r0sdb2"	"600"	"1366"	"chrome"	"108.0.0"	"FALSE"	"Windows 10"	"60.7"	"141"	n/a	n/a	n/a	n/a	n/a	n/a	"Trial"	n/a	n/a	n/a	"1298"	"arrowleft"	n/a	"NULL"	"NULL"	"NULL"	"stimuli/Ebbinghaus_0000000_-1.4000.png"	n/a	"Ebbinghaus"	"arrowright"	"1551"	"FALSE"	"Ebbinghaus"	"000000000000"	"-1.400000000"	"1"	"1"
n/a	"html-keyboard-response"	"9"	"80565"	"0.0-4.0-1.0-2.0-0.1"	"r0sdb2"	"600"	"1366"	"chrome"	"108.0.0"	"FALSE"	"Windows 10"	"60.7"	"141"	n/a	n/a	n/a	n/a	n/a	n/a	"fixation"	n/a	n/a	n/a	n/a	"NULL"	n/a	"NULL"	"NULL"	"NULL"	"<p style=\"color: black; font-size: 80px; padding-left: 18%; padding-right: 2%; padding-top: 13%; padding-bottom: 38%\">+</p>"	"1325"	n/a	n/a	n/a	n/a	n/a	n/a	n/a	n/a	n/a
n/a	"image-keyboard-response"	"10"	"81225"	"0.0-4.0-1.0-2.0-1.1"	"r0sdb2"	"600"	"1366"	"chrome"	"108.0.0"	"FALSE"	"Windows 10"	"60.7"	"141"	n/a	n/a	n/a	n/a	n/a	n/a	"Trial"	n/a	n/a	n/a	"658"	"arrowleft"	n/a	"NULL"	"NULL"	"NULL"	"stimuli/Ebbinghaus_-100000_1.40000.png"	n/a	"Ebbinghaus"	"arrowleft"	"1332"	"TRUE"	"Ebbinghaus"	"-10000000000"	"1.4000000000"	"1"	"2"
n/a	"html-keyboard-response"	"11"	"82721"	"0.0-4.0-1.0-2.0-0.2"	"r0sdb2"	"600"	"1366"	"chrome"	"108.0.0"	"FALSE"	"Windows 10"	"60.7"	"141"	n/a	n/a	n/a	n/a	n/a	n/a	"fixation"	n/a	n/a	n/a	n/a	"NULL"	n/a	"NULL"	"NULL"	"NULL"	"<p style=\"color: black; font-size: 80px; padding-left: 0%; padding-right: 45%; padding-top: 0%; padding-bottom: 47%\">+</p>"	"1478"	n/a	n/a	n/a	n/a	n/a	n/a	n/a	n/a	n/a
n/a	"image-keyboard-response"	"12"	"83239"	"0.0-4.0-1.0-2.0-1.2"	"r0sdb2"	"600"	"1366"	"chrome"	"108.0.0"	"FALSE"	"Windows 10"	"60.7"	"141"	n/a	n/a	n/a	n/a	n/a	n/a	"Trial"	n/a	n/a	n/a	"517"	"arrowright"	n/a	"NULL"	"NULL"	"NULL"	"stimuli/Ebbinghaus_1000000_-1.4000.png"	n/a	"Ebbinghaus"	"arrowright"	"1496"	"TRUE"	"Ebbinghaus"	"100000000000"	"-1.400000000"	"1"	"3"
n/a	"html-keyboard-response"	"13"	"84357"	"0.0-4.0-1.0-2.0-0.3"	"r0sdb2"	"600"	"1366"	"chrome"	"108.0.0"	"FALSE"	"Windows 10"	"60.7"	"141"	n/a	n/a	n/a	n/a	n/a	n/a	"fixation"	n/a	n/a	n/a	n/a	"NULL"	n/a	"NULL"	"NULL"	"NULL"	"<p style=\"color: black; font-size: 80px; padding-left: 10%; padding-right: 2%; padding-top: 15%; padding-bottom: 8%\">+</p>"	"1102"	n/a	n/a	n/a	n/a	n/a	n/a	n/a	n/a	n/a
n/a	"image-keyboard-response"	"14"	"84841"	"0.0-4.0-1.0-2.0-1.3"	"r0sdb2"	"600"	"1366"	"chrome"	"108.0.0"	"FALSE"	"Windows 10"	"60.7"	"141"	n/a	n/a	n/a	n/a	n/a	n/a	"Trial"	n/a	n/a	n/a	"482"	"arrowleft"	n/a	"NULL"	"NULL"	"NULL"	"stimuli/Ebbinghaus_0000000_1.40000.png"	n/a	"Ebbinghaus"	"arrowleft"	"1118"	"TRUE"	"Ebbinghaus"	"000000000000"	"1.4000000000"	"1"	"4"
n/a	"html-keyboard-response"	"15"	"86109"	"0.0-4.0-1.0-2.0-0.4"	"r0sdb2"	"600"	"1366"	"chrome"	"108.0.0"	"FALSE"	"Windows 10"	"60.7"	"141"	n/a	n/a	n/a	n/a	n/a	n/a	"fixation"	n/a	n/a	n/a	n/a	"NULL"	n/a	"NULL"	"NULL"	"NULL"	"<p style=\"color: black; font-size: 80px; padding-left: 42%; padding-right: 16%; padding-top: 1%; padding-bottom: 48%\">+</p>"	"1259"	n/a	n/a	n/a	n/a	n/a	n/a	n/a	n/a	n/a
n/a	"image-keyboard-response"	"16"	"86599"	"0.0-4.0-1.0-2.0-1.4"	"r0sdb2"	"600"	"1366"	"chrome"	"108.0.0"	"FALSE"	"Windows 10"	"60.7"	"141"	n/a	n/a	n/a	n/a	n/a	n/a	"Trial"	n/a	n/a	n/a	"488"	"arrowright"	n/a	"NULL"	"NULL"	"NULL"	"stimuli/Ebbinghaus_-100000_-1.4000.png"	n/a	"Ebbinghaus"	"arrowright"	"1268"	"TRUE"	"Ebbinghaus"	"-10000000000"	"-1.400000000"	"1"	"5"
n/a	"html-keyboard-response"	"17"	"87933"	"0.0-4.0-1.0-2.0-0.5"	"r0sdb2"	"600"	"1366"	"chrome"	"108.0.0"	"FALSE"	"Windows 10"	"60.7"	"141"	n/a	n/a	n/a	n/a	n/a	n/a	"fixation"	n/a	n/a	n/a	n/a	"NULL"	n/a	"NULL"	"NULL"	"NULL"	"<p style=\"color: black; font-size: 80px; padding-left: 46%; padding-right: 33%; padding-top: 25%; padding-bottom: 20%\">+</p>"	"1328"	n/a	n/a	n/a	n/a	n/a	n/a	n/a	n/a	n/a
n/a	"image-keyboard-response"	"18"	"88390"	"0.0-4.0-1.0-2.0-1.5"	"r0sdb2"	"600"	"1366"	"chrome"	"108.0.0"	"FALSE"	"Windows 10"	"60.7"	"141"	n/a	n/a	n/a	n/a	n/a	n/a	"Trial"	n/a	n/a	n/a	"455"	"arrowleft"	n/a	"NULL"	"NULL"	"NULL"	"stimuli/Ebbinghaus_1000000_1.40000.png"	n/a	"Ebbinghaus"	"arrowleft"	"1334"	"TRUE"	"Ebbinghaus"	"100000000000"	"1.4000000000"	"1"	"6"
n/a	"html-button-response"	"19"	"144911"	"0.0-4.0-1.0-3.0"	"r0sdb2"	"600"	"1366"	"chrome"	"108.0.0"	"FALSE"	"Windows 10"	"60.7"	"141"	n/a	n/a	n/a	n/a	n/a	n/a	"practice_block_results"	n/a	n/a	n/a	"56516"	"0"	n/a	"NULL"	"NULL"	"NULL"	"<p style='color:rgb(76,175,80);'> Correct Responses: <b>83.33%</b></p><hr><p style='color:rgb(233,30,99);'> Average Response Time: <b>649.67</b> ms.</p>"	n/a	n/a	n/a	n/a	n/a	n/a	n/a	n/a	n/a	n/a
"TRUE"	"preload"	"20"	"145466"	"0.0-4.0-2.0-0.0"	"r0sdb2"	"600"	"1366"	"chrome"	"108.0.0"	"FALSE"	"Windows 10"	"60.7"	"141"	n/a	n/a	n/a	n/a	n/a	n/a	n/a	n/a	n/a	n/a	n/a	"NULL"	"FALSE"	"list()"	"list()"	"list()"	n/a	n/a	n/a	n/a	n/a	n/a	n/a	n/a	n/a	n/a	n/a
n/a	"html-keyboard-response"	"21"	"154248"	"0.0-4.0-2.0-1.0"	"r0sdb2"	"600"	"1366"	"chrome"	"108.0.0"	"FALSE"	"Windows 10"	"60.7"	"141"	n/a	n/a	n/a	n/a	n/a	n/a	n/a	n/a	n/a	n/a	"8781"	"enter"	n/a	"NULL"	"NULL"	"NULL"	"<p><b>Practice</b></p><p>In this part, two horizontal red lines will appear one above the other.</p><p>Your task is to select which <b>line is longer</b> in length as fast as you can, without making errors.</p><p>Don't get distracted by the surrounding black arrows at the end of the red lines!</p><p>Press <b>the UP or the DOWN arrow</b> to indicate where is the longer <b>red line.</b></p><div style='float: center'><img src='materials/instructions/MullerLyer_Demo.png' height='300'></img><p><img src='utils/answer/answer_updown_keyboard.PNG' height='150'></img></p><p class='small'>In this example, the correct answer is the <b>UP arrow</b>.</p></div><p>Are you ready? <b>Press ENTER to start</b></p>"	n/a	n/a	n/a	n/a	n/a	n/a	n/a	n/a	n/a	n/a
n/a	"html-keyboard-response"	"22"	"156173"	"0.0-4.0-2.0-2.0-0.0"	"r0sdb2"	"600"	"1366"	"chrome"	"108.0.0"	"FALSE"	"Windows 10"	"60.7"	"141"	n/a	n/a	n/a	n/a	n/a	n/a	"fixation"	n/a	n/a	n/a	n/a	"NULL"	n/a	"NULL"	"NULL"	"NULL"	"<p style=\"color: black; font-size: 80px; padding-left: 36%; padding-right: 25%; padding-top: 31%; padding-bottom: 31%\">+</p>"	"1406"	n/a	n/a	n/a	n/a	n/a	n/a	n/a	n/a	n/a
n/a	"image-keyboard-response"	"23"	"157097"	"0.0-4.0-2.0-2.0-1.0"	"r0sdb2"	"600"	"1366"	"chrome"	"108.0.0"	"FALSE"	"Windows 10"	"60.7"	"141"	n/a	n/a	n/a	n/a	n/a	n/a	"Trial"	n/a	n/a	n/a	"921"	"arrowdown"	n/a	"NULL"	"NULL"	"NULL"	"stimuli/MullerLyer_-230000_-0.7000.png"	n/a	"MullerLyer"	"arrowdown"	"1925"	"TRUE"	"MullerLyer"	"-23000000000"	"-0.700000000"	"1"	"7"
n/a	"html-keyboard-response"	"24"	"158223"	"0.0-4.0-2.0-2.0-0.1"	"r0sdb2"	"600"	"1366"	"chrome"	"108.0.0"	"FALSE"	"Windows 10"	"60.7"	"141"	n/a	n/a	n/a	n/a	n/a	n/a	"fixation"	n/a	n/a	n/a	n/a	"NULL"	n/a	"NULL"	"NULL"	"NULL"	"<p style=\"color: black; font-size: 80px; padding-left: 9%; padding-right: 46%; padding-top: 49%; padding-bottom: 22%\">+</p>"	"1124"	n/a	n/a	n/a	n/a	n/a	n/a	n/a	n/a	n/a
n/a	"image-keyboard-response"	"25"	"159341"	"0.0-4.0-2.0-2.0-1.1"	"r0sdb2"	"600"	"1366"	"chrome"	"108.0.0"	"FALSE"	"Windows 10"	"60.7"	"141"	n/a	n/a	n/a	n/a	n/a	n/a	"Trial"	n/a	n/a	n/a	"1115"	"arrowdown"	n/a	"NULL"	"NULL"	"NULL"	"stimuli/MullerLyer_2300000_-0.7000.png"	n/a	"MullerLyer"	"arrowdown"	"1126"	"TRUE"	"MullerLyer"	"230000000000"	"-0.700000000"	"1"	"8"
n/a	"html-keyboard-response"	"26"	"160662"	"0.0-4.0-2.0-2.0-0.2"	"r0sdb2"	"600"	"1366"	"chrome"	"108.0.0"	"FALSE"	"Windows 10"	"60.7"	"141"	n/a	n/a	n/a	n/a	n/a	n/a	"fixation"	n/a	n/a	n/a	n/a	"NULL"	n/a	"NULL"	"NULL"	"NULL"	"<p style=\"color: black; font-size: 80px; padding-left: 23%; padding-right: 6%; padding-top: 43%; padding-bottom: 17%\">+</p>"	"1307"	n/a	n/a	n/a	n/a	n/a	n/a	n/a	n/a	n/a
n/a	"image-keyboard-response"	"27"	"161213"	"0.0-4.0-2.0-2.0-1.2"	"r0sdb2"	"600"	"1366"	"chrome"	"108.0.0"	"FALSE"	"Windows 10"	"60.7"	"141"	n/a	n/a	n/a	n/a	n/a	n/a	"Trial"	n/a	n/a	n/a	"549"	"arrowup"	n/a	"NULL"	"NULL"	"NULL"	"stimuli/MullerLyer_2300000_0.70000.png"	n/a	"MullerLyer"	"arrowup"	"1321"	"TRUE"	"MullerLyer"	"230000000000"	"0.7000000000"	"1"	"9"
n/a	"html-keyboard-response"	"28"	"162351"	"0.0-4.0-2.0-2.0-0.3"	"r0sdb2"	"600"	"1366"	"chrome"	"108.0.0"	"FALSE"	"Windows 10"	"60.7"	"141"	n/a	n/a	n/a	n/a	n/a	n/a	"fixation"	n/a	n/a	n/a	n/a	"NULL"	n/a	"NULL"	"NULL"	"NULL"	"<p style=\"color: black; font-size: 80px; padding-left: 32%; padding-right: 13%; padding-top: 26%; padding-bottom: 2%\">+</p>"	"1118"	n/a	n/a	n/a	n/a	n/a	n/a	n/a	n/a	n/a
n/a	"image-keyboard-response"	"29"	"162890"	"0.0-4.0-2.0-2.0-1.3"	"r0sdb2"	"600"	"1366"	"chrome"	"108.0.0"	"FALSE"	"Windows 10"	"60.7"	"141"	n/a	n/a	n/a	n/a	n/a	n/a	"Trial"	n/a	n/a	n/a	"537"	"arrowdown"	n/a	"NULL"	"NULL"	"NULL"	"stimuli/MullerLyer_0000000_-0.7000.png"	n/a	"MullerLyer"	"arrowdown"	"1138"	"TRUE"	"MullerLyer"	"000000000000"	"-0.700000000"	"1"	"10"
n/a	"html-keyboard-response"	"30"	"164100"	"0.0-4.0-2.0-2.0-0.4"	"r0sdb2"	"600"	"1366"	"chrome"	"108.0.0"	"FALSE"	"Windows 10"	"60.7"	"141"	n/a	n/a	n/a	n/a	n/a	n/a	"fixation"	n/a	n/a	n/a	n/a	"NULL"	n/a	"NULL"	"NULL"	"NULL"	"<p style=\"color: black; font-size: 80px; padding-left: 18%; padding-right: 27%; padding-top: 16%; padding-bottom: 49%\">+</p>"	"1192"	n/a	n/a	n/a	n/a	n/a	n/a	n/a	n/a	n/a
n/a	"image-keyboard-response"	"31"	"164592"	"0.0-4.0-2.0-2.0-1.4"	"r0sdb2"	"600"	"1366"	"chrome"	"108.0.0"	"FALSE"	"Windows 10"	"60.7"	"141"	n/a	n/a	n/a	n/a	n/a	n/a	"Trial"	n/a	n/a	n/a	"491"	"arrowup"	n/a	"NULL"	"NULL"	"NULL"	"stimuli/MullerLyer_-230000_0.70000.png"	n/a	"MullerLyer"	"arrowup"	"1210"	"TRUE"	"MullerLyer"	"-23000000000"	"0.7000000000"	"1"	"11"
n/a	"html-keyboard-response"	"32"	"166007"	"0.0-4.0-2.0-2.0-0.5"	"r0sdb2"	"600"	"1366"	"chrome"	"108.0.0"	"FALSE"	"Windows 10"	"60.7"	"141"	n/a	n/a	n/a	n/a	n/a	n/a	"fixation"	n/a	n/a	n/a	n/a	"NULL"	n/a	"NULL"	"NULL"	"NULL"	"<p style=\"color: black; font-size: 80px; padding-left: 9%; padding-right: 17%; padding-top: 28%; padding-bottom: 15%\">+</p>"	"1399"	n/a	n/a	n/a	n/a	n/a	n/a	n/a	n/a	n/a
n/a	"image-keyboard-response"	"33"	"166493"	"0.0-4.0-2.0-2.0-1.5"	"r0sdb2"	"600"	"1366"	"chrome"	"108.0.0"	"FALSE"	"Windows 10"	"60.7"	"141"	n/a	n/a	n/a	n/a	n/a	n/a	"Trial"	n/a	n/a	n/a	"485"	"arrowup"	n/a	"NULL"	"NULL"	"NULL"	"stimuli/MullerLyer_0000000_0.70000.png"	n/a	"MullerLyer"	"arrowup"	"1415"	"TRUE"	"MullerLyer"	"000000000000"	"0.7000000000"	"1"	"12"
n/a	"html-button-response"	"34"	"168787"	"0.0-4.0-2.0-3.0"	"r0sdb2"	"600"	"1366"	"chrome"	"108.0.0"	"FALSE"	"Windows 10"	"60.7"	"141"	n/a	n/a	n/a	n/a	n/a	n/a	"practice_block_results"	n/a	n/a	n/a	"2290"	"0"	n/a	"NULL"	"NULL"	"NULL"	"<p style='color:rgb(76,175,80);'> Correct Responses: <b>100.00%</b></p><hr><p style='color:rgb(233,30,99);'> Average Response Time: <b>683.00</b> ms.</p>"	n/a	n/a	n/a	n/a	n/a	n/a	n/a	n/a	n/a	n/a
"TRUE"	"preload"	"35"	"169330"	"0.0-4.0-3.0-0.0"	"r0sdb2"	"600"	"1366"	"chrome"	"108.0.0"	"FALSE"	"Windows 10"	"60.7"	"141"	n/a	n/a	n/a	n/a	n/a	n/a	n/a	n/a	n/a	n/a	n/a	"NULL"	"FALSE"	"list()"	"list()"	"list()"	n/a	n/a	n/a	n/a	n/a	n/a	n/a	n/a	n/a	n/a	n/a
n/a	"html-keyboard-response"	"36"	"177340"	"0.0-4.0-3.0-1.0"	"r0sdb2"	"600"	"1366"	"chrome"	"108.0.0"	"FALSE"	"Windows 10"	"60.7"	"141"	n/a	n/a	n/a	n/a	n/a	n/a	n/a	n/a	n/a	n/a	"8009"	"enter"	n/a	"NULL"	"NULL"	"NULL"	"<p><b>Practice</b></p><p>In this part, two red lines will appear side by side.</p><p>Your task is to tell <b>which line is longer</b> in length, regardless of their orientation, as fast as you can, and without making errors.</p><p>Don't get distracted by the orientation of the lines!</p><p>Press <b>the LEFT or the RIGHT arrow</b> to indicate which <b>line is the longer one.</b></p><div style='float: center'><img src='materials/instructions/VerticalHorizontal_Demo.png' height='300'></img><p><img src='utils/answer/answer_leftright_keyboard.PNG' height='150'></img></p><p class='small'>In this example, the correct answer is the <b>LEFT arrow</b>.</p></div><p>Are you ready? <b>Press ENTER to start</b></p>"	n/a	n/a	n/a	n/a	n/a	n/a	n/a	n/a	n/a	n/a
n/a	"html-keyboard-response"	"37"	"179019"	"0.0-4.0-3.0-2.0-0.0"	"r0sdb2"	"600"	"1366"	"chrome"	"108.0.0"	"FALSE"	"Windows 10"	"60.7"	"141"	n/a	n/a	n/a	n/a	n/a	n/a	"fixation"	n/a	n/a	n/a	n/a	"NULL"	n/a	"NULL"	"NULL"	"NULL"	"<p style=\"color: black; font-size: 80px; padding-left: 23%; padding-right: 3%; padding-top: 15%; padding-bottom: 20%\">+</p>"	"1160"	n/a	n/a	n/a	n/a	n/a	n/a	n/a	n/a	n/a
n/a	"image-keyboard-response"	"38"	"179455"	"0.0-4.0-3.0-2.0-1.0"	"r0sdb2"	"600"	"1366"	"chrome"	"108.0.0"	"FALSE"	"Windows 10"	"60.7"	"141"	n/a	n/a	n/a	n/a	n/a	n/a	"Trial"	n/a	n/a	n/a	"434"	"arrowleft"	n/a	"NULL"	"NULL"	"NULL"	"stimuli/VerticalHorizontal_-330000_0.90000.png"	n/a	"VerticalHorizontal"	"arrowleft"	"1679"	"TRUE"	"VerticalHorizontal"	"-33000000000"	"0.9000000000"	"1"	"13"
n/a	"html-keyboard-response"	"39"	"180645"	"0.0-4.0-3.0-2.0-0.1"	"r0sdb2"	"600"	"1366"	"chrome"	"108.0.0"	"FALSE"	"Windows 10"	"60.7"	"141"	n/a	n/a	n/a	n/a	n/a	n/a	"fixation"	n/a	n/a	n/a	n/a	"NULL"	n/a	"NULL"	"NULL"	"NULL"	"<p style=\"color: black; font-size: 80px; padding-left: 44%; padding-right: 47%; padding-top: 26%; padding-bottom: 22%\">+</p>"	"1181"	n/a	n/a	n/a	n/a	n/a	n/a	n/a	n/a	n/a
n/a	"image-keyboard-response"	"40"	"181066"	"0.0-4.0-3.0-2.0-1.1"	"r0sdb2"	"600"	"1366"	"chrome"	"108.0.0"	"FALSE"	"Windows 10"	"60.7"	"141"	n/a	n/a	n/a	n/a	n/a	n/a	"Trial"	n/a	n/a	n/a	"420"	"arrowright"	n/a	"NULL"	"NULL"	"NULL"	"stimuli/VerticalHorizontal_3300000_0.90000.png"	n/a	"VerticalHorizontal"	"arrowleft"	"1190"	"FALSE"	"VerticalHorizontal"	"330000000000"	"0.9000000000"	"1"	"14"
n/a	"html-keyboard-response"	"41"	"182266"	"0.0-4.0-3.0-2.0-0.2"	"r0sdb2"	"600"	"1366"	"chrome"	"108.0.0"	"FALSE"	"Windows 10"	"60.7"	"141"	n/a	n/a	n/a	n/a	n/a	n/a	"fixation"	n/a	n/a	n/a	n/a	"NULL"	n/a	"NULL"	"NULL"	"NULL"	"<p style=\"color: black; font-size: 80px; padding-left: 15%; padding-right: 27%; padding-top: 30%; padding-bottom: 48%\">+</p>"	"1191"	n/a	n/a	n/a	n/a	n/a	n/a	n/a	n/a	n/a
n/a	"image-keyboard-response"	"42"	"182717"	"0.0-4.0-3.0-2.0-1.2"	"r0sdb2"	"600"	"1366"	"chrome"	"108.0.0"	"FALSE"	"Windows 10"	"60.7"	"141"	n/a	n/a	n/a	n/a	n/a	n/a	"Trial"	n/a	n/a	n/a	"450"	"arrowleft"	n/a	"NULL"	"NULL"	"NULL"	"stimuli/VerticalHorizontal_0000000_0.90000.png"	n/a	"VerticalHorizontal"	"arrowleft"	"1200"	"TRUE"	"VerticalHorizontal"	"000000000000"	"0.9000000000"	"1"	"15"
n/a	"html-keyboard-response"	"43"	"183813"	"0.0-4.0-3.0-2.0-0.3"	"r0sdb2"	"600"	"1366"	"chrome"	"108.0.0"	"FALSE"	"Windows 10"	"60.7"	"141"	n/a	n/a	n/a	n/a	n/a	n/a	"fixation"	n/a	n/a	n/a	n/a	"NULL"	n/a	"NULL"	"NULL"	"NULL"	"<p style=\"color: black; font-size: 80px; padding-left: 26%; padding-right: 43%; padding-top: 16%; padding-bottom: 14%\">+</p>"	"1079"	n/a	n/a	n/a	n/a	n/a	n/a	n/a	n/a	n/a
n/a	"image-keyboard-response"	"44"	"184339"	"0.0-4.0-3.0-2.0-1.3"	"r0sdb2"	"600"	"1366"	"chrome"	"108.0.0"	"FALSE"	"Windows 10"	"60.7"	"141"	n/a	n/a	n/a	n/a	n/a	n/a	"Trial"	n/a	n/a	n/a	"524"	"arrowright"	n/a	"NULL"	"NULL"	"NULL"	"stimuli/VerticalHorizontal_3300000_-0.9000.png"	n/a	"VerticalHorizontal"	"arrowright"	"1096"	"TRUE"	"VerticalHorizontal"	"330000000000"	"-0.900000000"	"1"	"16"
n/a	"html-keyboard-response"	"45"	"185413"	"0.0-4.0-3.0-2.0-0.4"	"r0sdb2"	"600"	"1366"	"chrome"	"108.0.0"	"FALSE"	"Windows 10"	"60.7"	"141"	n/a	n/a	n/a	n/a	n/a	n/a	"fixation"	n/a	n/a	n/a	n/a	"NULL"	n/a	"NULL"	"NULL"	"NULL"	"<p style=\"color: black; font-size: 80px; padding-left: 6%; padding-right: 20%; padding-top: 50%; padding-bottom: 3%\">+</p>"	"1068"	n/a	n/a	n/a	n/a	n/a	n/a	n/a	n/a	n/a
n/a	"image-keyboard-response"	"46"	"185803"	"0.0-4.0-3.0-2.0-1.4"	"r0sdb2"	"600"	"1366"	"chrome"	"108.0.0"	"FALSE"	"Windows 10"	"60.7"	"141"	n/a	n/a	n/a	n/a	n/a	n/a	"Trial"	n/a	n/a	n/a	"389"	"arrowright"	n/a	"NULL"	"NULL"	"NULL"	"stimuli/VerticalHorizontal_-330000_-0.9000.png"	n/a	"VerticalHorizontal"	"arrowright"	"1074"	"TRUE"	"VerticalHorizontal"	"-33000000000"	"-0.900000000"	"1"	"17"
n/a	"html-keyboard-response"	"47"	"186974"	"0.0-4.0-3.0-2.0-0.5"	"r0sdb2"	"600"	"1366"	"chrome"	"108.0.0"	"FALSE"	"Windows 10"	"60.7"	"141"	n/a	n/a	n/a	n/a	n/a	n/a	"fixation"	n/a	n/a	n/a	n/a	"NULL"	n/a	"NULL"	"NULL"	"NULL"	"<p style=\"color: black; font-size: 80px; padding-left: 18%; padding-right: 39%; padding-top: 31%; padding-bottom: 2%\">+</p>"	"1157"	n/a	n/a	n/a	n/a	n/a	n/a	n/a	n/a	n/a
n/a	"image-keyboard-response"	"48"	"187476"	"0.0-4.0-3.0-2.0-1.5"	"r0sdb2"	"600"	"1366"	"chrome"	"108.0.0"	"FALSE"	"Windows 10"	"60.7"	"141"	n/a	n/a	n/a	n/a	n/a	n/a	"Trial"	n/a	n/a	n/a	"500"	"arrowright"	n/a	"NULL"	"NULL"	"NULL"	"stimuli/VerticalHorizontal_0000000_-0.9000.png"	n/a	"VerticalHorizontal"	"arrowright"	"1171"	"TRUE"	"VerticalHorizontal"	"000000000000"	"-0.900000000"	"1"	"18"
n/a	"html-button-response"	"49"	"189567"	"0.0-4.0-3.0-3.0"	"r0sdb2"	"600"	"1366"	"chrome"	"108.0.0"	"FALSE"	"Windows 10"	"60.7"	"141"	n/a	n/a	n/a	n/a	n/a	n/a	"practice_block_results"	n/a	n/a	n/a	"2088"	"0"	n/a	"NULL"	"NULL"	"NULL"	"<p style='color:rgb(76,175,80);'> Correct Responses: <b>83.33%</b></p><hr><p style='color:rgb(233,30,99);'> Average Response Time: <b>452.83</b> ms.</p>"	n/a	n/a	n/a	n/a	n/a	n/a	n/a	n/a	n/a	n/a
n/a	"html-button-response"	"50"	"242166"	"0.0-4.0-4.0"	"r0sdb2"	"600"	"1366"	"chrome"	"108.0.0"	"FALSE"	"Windows 10"	"60.7"	"141"	n/a	n/a	n/a	n/a	n/a	n/a	"practice_debrief"	n/a	n/a	n/a	"52085"	"0"	n/a	"NULL"	"NULL"	"NULL"	"<p><b>TRAINING COMPLETED</b></p><p>In the next phase, there will be more trials, and some might be harder too.<br> Moreover, after each illusion block, a <b>score</b> will be calculated based on speed (time you took to answer) and accuracy (number of errors).</p><p>Try to keep up a high score!</p><br><p>Note that it can be <i>really</i> challenging at times, so you will need to rely on your <b>intuition</b> and gut feeling to answer as fast as you can without making errors.</p><p>Each illusion block will be repeated two times (so that you have the opportunity to improve your score), but the order of the blocks is random.</p><p>Remember, your goal is to be as <b>fast</b> and <b>accurate</b> as possible. Good luck!</p><br>"	n/a	n/a	n/a	n/a	n/a	n/a	n/a	n/a	n/a	n/a
"TRUE"	"preload"	"51"	"242337"	"0.0-5.0-0.0"	"r0sdb2"	"600"	"1366"	"chrome"	"108.0.0"	"FALSE"	"Windows 10"	"60.7"	"141"	n/a	n/a	n/a	n/a	n/a	n/a	n/a	n/a	n/a	n/a	n/a	"NULL"	"FALSE"	"list()"	"list()"	"list()"	n/a	n/a	n/a	n/a	n/a	n/a	n/a	n/a	n/a	n/a	n/a
n/a	"html-keyboard-response"	"52"	"250972"	"0.0-5.0-1.0"	"r0sdb2"	"600"	"1366"	"chrome"	"108.0.0"	"FALSE"	"Windows 10"	"60.7"	"141"	n/a	n/a	n/a	n/a	n/a	n/a	n/a	n/a	n/a	n/a	"8635"	"enter"	n/a	"NULL"	"NULL"	"NULL"	"<p><b>Part 1/6</b></p><p>In this part, two red circles will appear side by side on the screen.</p><p>Your task is to select which <b>red circle is bigger</b> in size as fast as you can, without making errors.</p><p>Don't get distracted by the surrounding black circles around the red circles!</p><p>Press <b>the LEFT or the RIGHT arrow</b> to indicate which is the bigger <b>red circle.</b></p><div style='float: center'><img src='materials/instructions/Ebbinghaus_Demo.png' height='300'></img><p><img src='utils/answer/answer_leftright_keyboard.PNG' height='150'></img></p><p class='small'>In this example, the correct answer is the <b>LEFT arrow</b>.</p></div><p>Are you ready? <b>Press ENTER to start</b></p>"	n/a	n/a	n/a	n/a	n/a	n/a	n/a	n/a	n/a	n/a
n/a	"html-keyboard-response"	"53"	"252740"	"0.0-5.0-2.0-0.0"	"r0sdb2"	"600"	"1366"	"chrome"	"108.0.0"	"FALSE"	"Windows 10"	"60.7"	"141"	n/a	n/a	n/a	n/a	n/a	n/a	"fixation"	n/a	n/a	n/a	n/a	"NULL"	n/a	"NULL"	"NULL"	"NULL"	"<p style=\"color: black; font-size: 80px; padding-left: 23%; padding-right: 28%; padding-top: 3%; padding-bottom: 44%\">+</p>"	"1246"	n/a	n/a	n/a	n/a	n/a	n/a	n/a	n/a	n/a
n/a	"image-keyboard-response"	"54"	"253334"	"0.0-5.0-2.0-1.0"	"r0sdb2"	"600"	"1366"	"chrome"	"108.0.0"	"FALSE"	"Windows 10"	"60.7"	"141"	n/a	n/a	n/a	n/a	n/a	n/a	"Trial"	n/a	n/a	n/a	"592"	"arrowleft"	n/a	"NULL"	"NULL"	"NULL"	"stimuli/Ebbinghaus_-0.35714_0.21500.png"	n/a	"Ebbinghaus"	"arrowleft"	"1768"	"TRUE"	"Ebbinghaus"	"-0.357140000"	"0.2150000000"	"1"	"19"
n/a	"html-keyboard-response"	"55"	"254580"	"0.0-5.0-2.0-0.1"	"r0sdb2"	"600"	"1366"	"chrome"	"108.0.0"	"FALSE"	"Windows 10"	"60.7"	"141"	n/a	n/a	n/a	n/a	n/a	n/a	"fixation"	n/a	n/a	n/a	n/a	"NULL"	n/a	"NULL"	"NULL"	"NULL"	"<p style=\"color: black; font-size: 80px; padding-left: 8%; padding-right: 15%; padding-top: 16%; padding-bottom: 23%\">+</p>"	"1234"	n/a	n/a	n/a	n/a	n/a	n/a	n/a	n/a	n/a
n/a	"image-keyboard-response"	"56"	"255266"	"0.0-5.0-2.0-1.1"	"r0sdb2"	"600"	"1366"	"chrome"	"108.0.0"	"FALSE"	"Windows 10"	"60.7"	"141"	n/a	n/a	n/a	n/a	n/a	n/a	"Trial"	n/a	n/a	n/a	"685"	"arrowright"	n/a	"NULL"	"NULL"	"NULL"	"stimuli/Ebbinghaus_-0.61429_-0.11071.png"	n/a	"Ebbinghaus"	"arrowright"	"1246"	"TRUE"	"Ebbinghaus"	"-0.614290000"	"-0.110710000"	"1"	"20"
n/a	"html-keyboard-response"	"57"	"256737"	"0.0-5.0-2.0-0.2"	"r0sdb2"	"600"	"1366"	"chrome"	"108.0.0"	"FALSE"	"Windows 10"	"60.7"	"141"	n/a	n/a	n/a	n/a	n/a	n/a	"fixation"	n/a	n/a	n/a	n/a	"NULL"	n/a	"NULL"	"NULL"	"NULL"	"<p style=\"color: black; font-size: 80px; padding-left: 21%; padding-right: 0%; padding-top: 1%; padding-bottom: 38%\">+</p>"	"1459"	n/a	n/a	n/a	n/a	n/a	n/a	n/a	n/a	n/a
n/a	"image-keyboard-response"	"58"	"257416"	"0.0-5.0-2.0-1.2"	"r0sdb2"	"600"	"1366"	"chrome"	"108.0.0"	"FALSE"	"Windows 10"	"60.7"	"141"	n/a	n/a	n/a	n/a	n/a	n/a	"Trial"	n/a	n/a	n/a	"677"	"arrowright"	n/a	"NULL"	"NULL"	"NULL"	"stimuli/Ebbinghaus_0.35714_-0.2800.png"	n/a	"Ebbinghaus"	"arrowright"	"1471"	"TRUE"	"Ebbinghaus"	"0.3571400000"	"-0.280000000"	"1"	"21"
n/a	"html-keyboard-response"	"59"	"258612"	"0.0-5.0-2.0-0.3"	"r0sdb2"	"600"	"1366"	"chrome"	"108.0.0"	"FALSE"	"Windows 10"	"60.7"	"141"	n/a	n/a	n/a	n/a	n/a	n/a	"fixation"	n/a	n/a	n/a	n/a	"NULL"	n/a	"NULL"	"NULL"	"NULL"	"<p style=\"color: black; font-size: 80px; padding-left: 34%; padding-right: 43%; padding-top: 31%; padding-bottom: 41%\">+</p>"	"1181"	n/a	n/a	n/a	n/a	n/a	n/a	n/a	n/a	n/a
n/a	"image-keyboard-response"	"60"	"259298"	"0.0-5.0-2.0-1.3"	"r0sdb2"	"600"	"1366"	"chrome"	"108.0.0"	"FALSE"	"Windows 10"	"60.7"	"141"	n/a	n/a	n/a	n/a	n/a	n/a	"Trial"	n/a	n/a	n/a	"685"	"arrowleft"	n/a	"NULL"	"NULL"	"NULL"	"stimuli/Ebbinghaus_-0.35714_0.11071.png"	n/a	"Ebbinghaus"	"arrowleft"	"1196"	"TRUE"	"Ebbinghaus"	"-0.357140000"	"0.1107100000"	"1"	"22"
n/a	"html-keyboard-response"	"61"	"260681"	"0.0-5.0-2.0-0.4"	"r0sdb2"	"600"	"1366"	"chrome"	"108.0.0"	"FALSE"	"Windows 10"	"60.7"	"141"	n/a	n/a	n/a	n/a	n/a	n/a	"fixation"	n/a	n/a	n/a	n/a	"NULL"	n/a	"NULL"	"NULL"	"NULL"	"<p style=\"color: black; font-size: 80px; padding-left: 33%; padding-right: 10%; padding-top: 14%; padding-bottom: 15%\">+</p>"	"1366"	n/a	n/a	n/a	n/a	n/a	n/a	n/a	n/a	n/a
n/a	"image-keyboard-response"	"62"	"261327"	"0.0-5.0-2.0-1.4"	"r0sdb2"	"600"	"1366"	"chrome"	"108.0.0"	"FALSE"	"Windows 10"	"60.7"	"141"	n/a	n/a	n/a	n/a	n/a	n/a	"Trial"	n/a	n/a	n/a	"639"	"arrowleft"	n/a	"NULL"	"NULL"	"NULL"	"stimuli/Ebbinghaus_-0.1000_0.28000.png"	n/a	"Ebbinghaus"	"arrowleft"	"1383"	"TRUE"	"Ebbinghaus"	"-0.100000000"	"0.2800000000"	"1"	"23"
n/a	"html-keyboard-response"	"63"	"262817"	"0.0-5.0-2.0-0.5"	"r0sdb2"	"600"	"1366"	"chrome"	"108.0.0"	"FALSE"	"Windows 10"	"60.7"	"141"	n/a	n/a	n/a	n/a	n/a	n/a	"fixation"	n/a	n/a	n/a	n/a	"NULL"	n/a	"NULL"	"NULL"	"NULL"	"<p style=\"color: black; font-size: 80px; padding-left: 7%; padding-right: 20%; padding-top: 0%; padding-bottom: 18%\">+</p>"	"1467"	n/a	n/a	n/a	n/a	n/a	n/a	n/a	n/a	n/a
n/a	"image-keyboard-response"	"64"	"263364"	"0.0-5.0-2.0-1.5"	"r0sdb2"	"600"	"1366"	"chrome"	"108.0.0"	"FALSE"	"Windows 10"	"60.7"	"141"	n/a	n/a	n/a	n/a	n/a	n/a	"Trial"	n/a	n/a	n/a	"545"	"arrowleft"	n/a	"NULL"	"NULL"	"NULL"	"stimuli/Ebbinghaus_0.61429_0.28000.png"	n/a	"Ebbinghaus"	"arrowleft"	"1490"	"TRUE"	"Ebbinghaus"	"0.6142900000"	"0.2800000000"	"1"	"24"
n/a	"html-keyboard-response"	"65"	"264537"	"0.0-5.0-2.0-0.6"	"r0sdb2"	"600"	"1366"	"chrome"	"108.0.0"	"FALSE"	"Windows 10"	"60.7"	"141"	n/a	n/a	n/a	n/a	n/a	n/a	"fixation"	n/a	n/a	n/a	n/a	"NULL"	n/a	"NULL"	"NULL"	"NULL"	"<p style=\"color: black; font-size: 80px; padding-left: 36%; padding-right: 40%; padding-top: 3%; padding-bottom: 43%\">+</p>"	"1155"	n/a	n/a	n/a	n/a	n/a	n/a	n/a	n/a	n/a
n/a	"image-keyboard-response"	"66"	"265231"	"0.0-5.0-2.0-1.6"	"r0sdb2"	"600"	"1366"	"chrome"	"108.0.0"	"FALSE"	"Windows 10"	"60.7"	"141"	n/a	n/a	n/a	n/a	n/a	n/a	"Trial"	n/a	n/a	n/a	"691"	"arrowleft"	n/a	"NULL"	"NULL"	"NULL"	"stimuli/Ebbinghaus_-0.61429_0.15857.png"	n/a	"Ebbinghaus"	"arrowleft"	"1173"	"TRUE"	"Ebbinghaus"	"-0.614290000"	"0.1585700000"	"1"	"25"
n/a	"html-keyboard-response"	"67"	"266406"	"0.0-5.0-2.0-0.7"	"r0sdb2"	"600"	"1366"	"chrome"	"108.0.0"	"FALSE"	"Windows 10"	"60.7"	"141"	n/a	n/a	n/a	n/a	n/a	n/a	"fixation"	n/a	n/a	n/a	n/a	"NULL"	n/a	"NULL"	"NULL"	"NULL"	"<p style=\"color: black; font-size: 80px; padding-left: 41%; padding-right: 16%; padding-top: 32%; padding-bottom: 48%\">+</p>"	"1169"	n/a	n/a	n/a	n/a	n/a	n/a	n/a	n/a	n/a
n/a	"image-keyboard-response"	"68"	"267264"	"0.0-5.0-2.0-1.7"	"r0sdb2"	"600"	"1366"	"chrome"	"108.0.0"	"FALSE"	"Windows 10"	"60.7"	"141"	n/a	n/a	n/a	n/a	n/a	n/a	"Trial"	n/a	n/a	n/a	"857"	"arrowright"	n/a	"NULL"	"NULL"	"NULL"	"stimuli/Ebbinghaus_0.61429_-0.2800.png"	n/a	"Ebbinghaus"	"arrowright"	"1175"	"TRUE"	"Ebbinghaus"	"0.6142900000"	"-0.280000000"	"1"	"26"
n/a	"html-keyboard-response"	"69"	"268490"	"0.0-5.0-2.0-0.8"	"r0sdb2"	"600"	"1366"	"chrome"	"108.0.0"	"FALSE"	"Windows 10"	"60.7"	"141"	n/a	n/a	n/a	n/a	n/a	n/a	"fixation"	n/a	n/a	n/a	n/a	"NULL"	n/a	"NULL"	"NULL"	"NULL"	"<p style=\"color: black; font-size: 80px; padding-left: 17%; padding-right: 32%; padding-top: 8%; padding-bottom: 35%\">+</p>"	"1210"	n/a	n/a	n/a	n/a	n/a	n/a	n/a	n/a	n/a
n/a	"image-keyboard-response"	"70"	"269147"	"0.0-5.0-2.0-1.8"	"r0sdb2"	"600"	"1366"	"chrome"	"108.0.0"	"FALSE"	"Windows 10"	"60.7"	"141"	n/a	n/a	n/a	n/a	n/a	n/a	"Trial"	n/a	n/a	n/a	"652"	"arrowright"	n/a	"NULL"	"NULL"	"NULL"	"stimuli/Ebbinghaus_-0.61429_-0.2800.png"	n/a	"Ebbinghaus"	"arrowright"	"1226"	"TRUE"	"Ebbinghaus"	"-0.614290000"	"-0.280000000"	"1"	"27"
n/a	"html-keyboard-response"	"71"	"270472"	"0.0-5.0-2.0-0.9"	"r0sdb2"	"600"	"1366"	"chrome"	"108.0.0"	"FALSE"	"Windows 10"	"60.7"	"141"	n/a	n/a	n/a	n/a	n/a	n/a	"fixation"	n/a	n/a	n/a	n/a	"NULL"	n/a	"NULL"	"NULL"	"NULL"	"<p style=\"color: black; font-size: 80px; padding-left: 32%; padding-right: 16%; padding-top: 24%; padding-bottom: 13%\">+</p>"	"1311"	n/a	n/a	n/a	n/a	n/a	n/a	n/a	n/a	n/a
n/a	"image-keyboard-response"	"72"	"270994"	"0.0-5.0-2.0-1.9"	"r0sdb2"	"600"	"1366"	"chrome"	"108.0.0"	"FALSE"	"Windows 10"	"60.7"	"141"	n/a	n/a	n/a	n/a	n/a	n/a	"Trial"	n/a	n/a	n/a	"520"	"arrowleft"	n/a	"NULL"	"NULL"	"NULL"	"stimuli/Ebbinghaus_0.87143_0.21500.png"	n/a	"Ebbinghaus"	"arrowleft"	"1325"	"TRUE"	"Ebbinghaus"	"0.8714300000"	"0.2150000000"	"1"	"28"
n/a	"html-keyboard-response"	"73"	"272350"	"0.0-5.0-2.0-0.10"	"r0sdb2"	"600"	"1366"	"chrome"	"108.0.0"	"FALSE"	"Windows 10"	"60.7"	"141"	n/a	n/a	n/a	n/a	n/a	n/a	"fixation"	n/a	n/a	n/a	n/a	"NULL"	n/a	"NULL"	"NULL"	"NULL"	"<p style=\"color: black; font-size: 80px; padding-left: 20%; padding-right: 25%; padding-top: 36%; padding-bottom: 43%\">+</p>"	"1336"	n/a	n/a	n/a	n/a	n/a	n/a	n/a	n/a	n/a
n/a	"image-keyboard-response"	"74"	"272997"	"0.0-5.0-2.0-1.10"	"r0sdb2"	"600"	"1366"	"chrome"	"108.0.0"	"FALSE"	"Windows 10"	"60.7"	"141"	n/a	n/a	n/a	n/a	n/a	n/a	"Trial"	n/a	n/a	n/a	"646"	"arrowleft"	n/a	"NULL"	"NULL"	"NULL"	"stimuli/Ebbinghaus_0.10000_0.15857.png"	n/a	"Ebbinghaus"	"arrowleft"	"1356"	"TRUE"	"Ebbinghaus"	"0.1000000000"	"0.1585700000"	"1"	"29"
n/a	"html-keyboard-response"	"75"	"274404"	"0.0-5.0-2.0-0.11"	"r0sdb2"	"600"	"1366"	"chrome"	"108.0.0"	"FALSE"	"Windows 10"	"60.7"	"141"	n/a	n/a	n/a	n/a	n/a	n/a	"fixation"	n/a	n/a	n/a	n/a	"NULL"	n/a	"NULL"	"NULL"	"NULL"	"<p style=\"color: black; font-size: 80px; padding-left: 19%; padding-right: 34%; padding-top: 28%; padding-bottom: 31%\">+</p>"	"1391"	n/a	n/a	n/a	n/a	n/a	n/a	n/a	n/a	n/a
n/a	"image-keyboard-response"	"76"	"275237"	"0.0-5.0-2.0-1.11"	"r0sdb2"	"600"	"1366"	"chrome"	"108.0.0"	"FALSE"	"Windows 10"	"60.7"	"141"	n/a	n/a	n/a	n/a	n/a	n/a	"Trial"	n/a	n/a	n/a	"831"	"arrowright"	n/a	"NULL"	"NULL"	"NULL"	"stimuli/Ebbinghaus_0.61429_-0.15857.png"	n/a	"Ebbinghaus"	"arrowright"	"1407"	"TRUE"	"Ebbinghaus"	"0.6142900000"	"-0.158570000"	"1"	"30"
n/a	"html-keyboard-response"	"77"	"276559"	"0.0-5.0-2.0-0.12"	"r0sdb2"	"600"	"1366"	"chrome"	"108.0.0"	"FALSE"	"Windows 10"	"60.7"	"141"	n/a	n/a	n/a	n/a	n/a	n/a	"fixation"	n/a	n/a	n/a	n/a	"NULL"	n/a	"NULL"	"NULL"	"NULL"	"<p style=\"color: black; font-size: 80px; padding-left: 33%; padding-right: 24%; padding-top: 45%; padding-bottom: 28%\">+</p>"	"1310"	n/a	n/a	n/a	n/a	n/a	n/a	n/a	n/a	n/a
n/a	"image-keyboard-response"	"78"	"277154"	"0.0-5.0-2.0-1.12"	"r0sdb2"	"600"	"1366"	"chrome"	"108.0.0"	"FALSE"	"Windows 10"	"60.7"	"141"	n/a	n/a	n/a	n/a	n/a	n/a	"Trial"	n/a	n/a	n/a	"592"	"arrowright"	n/a	"NULL"	"NULL"	"NULL"	"stimuli/Ebbinghaus_-0.35714_-0.2800.png"	n/a	"Ebbinghaus"	"arrowright"	"1322"	"TRUE"	"Ebbinghaus"	"-0.357140000"	"-0.280000000"	"1"	"31"
n/a	"html-keyboard-response"	"79"	"278172"	"0.0-5.0-2.0-0.13"	"r0sdb2"	"600"	"1366"	"chrome"	"108.0.0"	"FALSE"	"Windows 10"	"60.7"	"141"	n/a	n/a	n/a	n/a	n/a	n/a	"fixation"	n/a	n/a	n/a	n/a	"NULL"	n/a	"NULL"	"NULL"	"NULL"	"<p style=\"color: black; font-size: 80px; padding-left: 3%; padding-right: 42%; padding-top: 21%; padding-bottom: 36%\">+</p>"	"1014"	n/a	n/a	n/a	n/a	n/a	n/a	n/a	n/a	n/a
n/a	"image-keyboard-response"	"80"	"278796"	"0.0-5.0-2.0-1.13"	"r0sdb2"	"600"	"1366"	"chrome"	"108.0.0"	"FALSE"	"Windows 10"	"60.7"	"141"	n/a	n/a	n/a	n/a	n/a	n/a	"Trial"	n/a	n/a	n/a	"621"	"arrowleft"	n/a	"NULL"	"NULL"	"NULL"	"stimuli/Ebbinghaus_-0.61429_0.21500.png"	n/a	"Ebbinghaus"	"arrowleft"	"1018"	"TRUE"	"Ebbinghaus"	"-0.614290000"	"0.2150000000"	"1"	"32"
n/a	"html-keyboard-response"	"81"	"280094"	"0.0-5.0-2.0-0.14"	"r0sdb2"	"600"	"1366"	"chrome"	"108.0.0"	"FALSE"	"Windows 10"	"60.7"	"141"	n/a	n/a	n/a	n/a	n/a	n/a	"fixation"	n/a	n/a	n/a	n/a	"NULL"	n/a	"NULL"	"NULL"	"NULL"	"<p style=\"color: black; font-size: 80px; padding-left: 8%; padding-right: 32%; padding-top: 32%; padding-bottom: 9%\">+</p>"	"1288"	n/a	n/a	n/a	n/a	n/a	n/a	n/a	n/a	n/a
n/a	"image-keyboard-response"	"82"	"280755"	"0.0-5.0-2.0-1.14"	"r0sdb2"	"600"	"1366"	"chrome"	"108.0.0"	"FALSE"	"Windows 10"	"60.7"	"141"	n/a	n/a	n/a	n/a	n/a	n/a	"Trial"	n/a	n/a	n/a	"659"	"arrowleft"	n/a	"NULL"	"NULL"	"NULL"	"stimuli/Ebbinghaus_-0.61429_0.11071.png"	n/a	"Ebbinghaus"	"arrowleft"	"1298"	"TRUE"	"Ebbinghaus"	"-0.614290000"	"0.1107100000"	"1"	"33"
n/a	"html-keyboard-response"	"83"	"282070"	"0.0-5.0-2.0-0.15"	"r0sdb2"	"600"	"1366"	"chrome"	"108.0.0"	"FALSE"	"Windows 10"	"60.7"	"141"	n/a	n/a	n/a	n/a	n/a	n/a	"fixation"	n/a	n/a	n/a	n/a	"NULL"	n/a	"NULL"	"NULL"	"NULL"	"<p style=\"color: black; font-size: 80px; padding-left: 24%; padding-right: 28%; padding-top: 1%; padding-bottom: 10%\">+</p>"	"1308"	n/a	n/a	n/a	n/a	n/a	n/a	n/a	n/a	n/a
n/a	"image-keyboard-response"	"84"	"282734"	"0.0-5.0-2.0-1.15"	"r0sdb2"	"600"	"1366"	"chrome"	"108.0.0"	"FALSE"	"Windows 10"	"60.7"	"141"	n/a	n/a	n/a	n/a	n/a	n/a	"Trial"	n/a	n/a	n/a	"661"	"arrowleft"	n/a	"NULL"	"NULL"	"NULL"	"stimuli/Ebbinghaus_0.87143_-0.2150.png"	n/a	"Ebbinghaus"	"arrowright"	"1315"	"FALSE"	"Ebbinghaus"	"0.8714300000"	"-0.215000000"	"1"	"34"
n/a	"html-keyboard-response"	"85"	"284085"	"0.0-5.0-2.0-0.16"	"r0sdb2"	"600"	"1366"	"chrome"	"108.0.0"	"FALSE"	"Windows 10"	"60.7"	"141"	n/a	n/a	n/a	n/a	n/a	n/a	"fixation"	n/a	n/a	n/a	n/a	"NULL"	n/a	"NULL"	"NULL"	"NULL"	"<p style=\"color: black; font-size: 80px; padding-left: 40%; padding-right: 2%; padding-top: 34%; padding-bottom: 29%\">+</p>"	"1340"	n/a	n/a	n/a	n/a	n/a	n/a	n/a	n/a	n/a
n/a	"image-keyboard-response"	"86"	"284642"	"0.0-5.0-2.0-1.16"	"r0sdb2"	"600"	"1366"	"chrome"	"108.0.0"	"FALSE"	"Windows 10"	"60.7"	"141"	n/a	n/a	n/a	n/a	n/a	n/a	"Trial"	n/a	n/a	n/a	"556"	"arrowleft"	n/a	"NULL"	"NULL"	"NULL"	"stimuli/Ebbinghaus_-0.87143_0.28000.png"	n/a	"Ebbinghaus"	"arrowleft"	"1351"	"TRUE"	"Ebbinghaus"	"-0.871430000"	"0.2800000000"	"1"	"35"
n/a	"html-keyboard-response"	"87"	"285985"	"0.0-5.0-2.0-0.17"	"r0sdb2"	"600"	"1366"	"chrome"	"108.0.0"	"FALSE"	"Windows 10"	"60.7"	"141"	n/a	n/a	n/a	n/a	n/a	n/a	"fixation"	n/a	n/a	n/a	n/a	"NULL"	n/a	"NULL"	"NULL"	"NULL"	"<p style=\"color: black; font-size: 80px; padding-left: 37%; padding-right: 37%; padding-top: 23%; padding-bottom: 44%\">+</p>"	"1321"	n/a	n/a	n/a	n/a	n/a	n/a	n/a	n/a	n/a
n/a	"image-keyboard-response"	"88"	"286724"	"0.0-5.0-2.0-1.17"	"r0sdb2"	"600"	"1366"	"chrome"	"108.0.0"	"FALSE"	"Windows 10"	"60.7"	"141"	n/a	n/a	n/a	n/a	n/a	n/a	"Trial"	n/a	n/a	n/a	"728"	"arrowleft"	n/a	"NULL"	"NULL"	"NULL"	"stimuli/Ebbinghaus_0.61429_-0.11071.png"	n/a	"Ebbinghaus"	"arrowright"	"1343"	"FALSE"	"Ebbinghaus"	"0.6142900000"	"-0.110710000"	"1"	"36"
n/a	"html-keyboard-response"	"89"	"287851"	"0.0-5.0-2.0-0.18"	"r0sdb2"	"600"	"1366"	"chrome"	"108.0.0"	"FALSE"	"Windows 10"	"60.7"	"141"	n/a	n/a	n/a	n/a	n/a	n/a	"fixation"	n/a	n/a	n/a	n/a	"NULL"	n/a	"NULL"	"NULL"	"NULL"	"<p style=\"color: black; font-size: 80px; padding-left: 4%; padding-right: 32%; padding-top: 18%; padding-bottom: 37%\">+</p>"	"1114"	n/a	n/a	n/a	n/a	n/a	n/a	n/a	n/a	n/a
n/a	"image-keyboard-response"	"90"	"288496"	"0.0-5.0-2.0-1.18"	"r0sdb2"	"600"	"1366"	"chrome"	"108.0.0"	"FALSE"	"Windows 10"	"60.7"	"141"	n/a	n/a	n/a	n/a	n/a	n/a	"Trial"	n/a	n/a	n/a	"644"	"arrowleft"	n/a	"NULL"	"NULL"	"NULL"	"stimuli/Ebbinghaus_0.10000_0.11071.png"	n/a	"Ebbinghaus"	"arrowleft"	"1127"	"TRUE"	"Ebbinghaus"	"0.1000000000"	"0.1107100000"	"1"	"37"
n/a	"html-keyboard-response"	"91"	"289535"	"0.0-5.0-2.0-0.19"	"r0sdb2"	"600"	"1366"	"chrome"	"108.0.0"	"FALSE"	"Windows 10"	"60.7"	"141"	n/a	n/a	n/a	n/a	n/a	n/a	"fixation"	n/a	n/a	n/a	n/a	"NULL"	n/a	"NULL"	"NULL"	"NULL"	"<p style=\"color: black; font-size: 80px; padding-left: 47%; padding-right: 9%; padding-top: 24%; padding-bottom: 17%\">+</p>"	"1031"	n/a	n/a	n/a	n/a	n/a	n/a	n/a	n/a	n/a
n/a	"image-keyboard-response"	"92"	"290216"	"0.0-5.0-2.0-1.19"	"r0sdb2"	"600"	"1366"	"chrome"	"108.0.0"	"FALSE"	"Windows 10"	"60.7"	"141"	n/a	n/a	n/a	n/a	n/a	n/a	"Trial"	n/a	n/a	n/a	"680"	"arrowleft"	n/a	"NULL"	"NULL"	"NULL"	"stimuli/Ebbinghaus_0.61429_0.11071.png"	n/a	"Ebbinghaus"	"arrowleft"	"1039"	"TRUE"	"Ebbinghaus"	"0.6142900000"	"0.1107100000"	"1"	"38"
n/a	"html-keyboard-response"	"93"	"291408"	"0.0-5.0-2.0-0.20"	"r0sdb2"	"600"	"1366"	"chrome"	"108.0.0"	"FALSE"	"Windows 10"	"60.7"	"141"	n/a	n/a	n/a	n/a	n/a	n/a	"fixation"	n/a	n/a	n/a	n/a	"NULL"	n/a	"NULL"	"NULL"	"NULL"	"<p style=\"color: black; font-size: 80px; padding-left: 34%; padding-right: 47%; padding-top: 9%; padding-bottom: 31%\">+</p>"	"1174"	n/a	n/a	n/a	n/a	n/a	n/a	n/a	n/a	n/a
n/a	"image-keyboard-response"	"94"	"291974"	"0.0-5.0-2.0-1.20"	"r0sdb2"	"600"	"1366"	"chrome"	"108.0.0"	"FALSE"	"Windows 10"	"60.7"	"141"	n/a	n/a	n/a	n/a	n/a	n/a	"Trial"	n/a	n/a	n/a	"562"	"arrowleft"	n/a	"NULL"	"NULL"	"NULL"	"stimuli/Ebbinghaus_-0.87143_0.21500.png"	n/a	"Ebbinghaus"	"arrowleft"	"1192"	"TRUE"	"Ebbinghaus"	"-0.871430000"	"0.2150000000"	"1"	"39"
n/a	"html-keyboard-response"	"95"	"293299"	"0.0-5.0-2.0-0.21"	"r0sdb2"	"600"	"1366"	"chrome"	"108.0.0"	"FALSE"	"Windows 10"	"60.7"	"141"	n/a	n/a	n/a	n/a	n/a	n/a	"fixation"	n/a	n/a	n/a	n/a	"NULL"	n/a	"NULL"	"NULL"	"NULL"	"<p style=\"color: black; font-size: 80px; padding-left: 8%; padding-right: 23%; padding-top: 35%; padding-bottom: 18%\">+</p>"	"1309"	n/a	n/a	n/a	n/a	n/a	n/a	n/a	n/a	n/a
n/a	"image-keyboard-response"	"96"	"294002"	"0.0-5.0-2.0-1.21"	"r0sdb2"	"600"	"1366"	"chrome"	"108.0.0"	"FALSE"	"Windows 10"	"60.7"	"141"	n/a	n/a	n/a	n/a	n/a	n/a	"Trial"	n/a	n/a	n/a	"700"	"arrowleft"	n/a	"NULL"	"NULL"	"NULL"	"stimuli/Ebbinghaus_0.35714_0.15857.png"	n/a	"Ebbinghaus"	"arrowleft"	"1325"	"TRUE"	"Ebbinghaus"	"0.3571400000"	"0.1585700000"	"1"	"40"
n/a	"html-keyboard-response"	"97"	"295053"	"0.0-5.0-2.0-0.22"	"r0sdb2"	"600"	"1366"	"chrome"	"108.0.0"	"FALSE"	"Windows 10"	"60.7"	"141"	n/a	n/a	n/a	n/a	n/a	n/a	"fixation"	n/a	n/a	n/a	n/a	"NULL"	n/a	"NULL"	"NULL"	"NULL"	"<p style=\"color: black; font-size: 80px; padding-left: 41%; padding-right: 43%; padding-top: 48%; padding-bottom: 7%\">+</p>"	"1040"	n/a	n/a	n/a	n/a	n/a	n/a	n/a	n/a	n/a
n/a	"image-keyboard-response"	"98"	"295787"	"0.0-5.0-2.0-1.22"	"r0sdb2"	"600"	"1366"	"chrome"	"108.0.0"	"FALSE"	"Windows 10"	"60.7"	"141"	n/a	n/a	n/a	n/a	n/a	n/a	"Trial"	n/a	n/a	n/a	"733"	"arrowright"	n/a	"NULL"	"NULL"	"NULL"	"stimuli/Ebbinghaus_0.35714_-0.11071.png"	n/a	"Ebbinghaus"	"arrowright"	"1051"	"TRUE"	"Ebbinghaus"	"0.3571400000"	"-0.110710000"	"1"	"41"
n/a	"html-keyboard-response"	"99"	"296865"	"0.0-5.0-2.0-0.23"	"r0sdb2"	"600"	"1366"	"chrome"	"108.0.0"	"FALSE"	"Windows 10"	"60.7"	"141"	n/a	n/a	n/a	n/a	n/a	n/a	"fixation"	n/a	n/a	n/a	n/a	"NULL"	n/a	"NULL"	"NULL"	"NULL"	"<p style=\"color: black; font-size: 80px; padding-left: 39%; padding-right: 32%; padding-top: 25%; padding-bottom: 43%\">+</p>"	"1060"	n/a	n/a	n/a	n/a	n/a	n/a	n/a	n/a	n/a
n/a	"image-keyboard-response"	"100"	"297517"	"0.0-5.0-2.0-1.23"	"r0sdb2"	"600"	"1366"	"chrome"	"108.0.0"	"FALSE"	"Windows 10"	"60.7"	"141"	n/a	n/a	n/a	n/a	n/a	n/a	"Trial"	n/a	n/a	n/a	"650"	"arrowleft"	n/a	"NULL"	"NULL"	"NULL"	"stimuli/Ebbinghaus_-0.35714_0.28000.png"	n/a	"Ebbinghaus"	"arrowleft"	"1078"	"TRUE"	"Ebbinghaus"	"-0.357140000"	"0.2800000000"	"1"	"42"
n/a	"html-keyboard-response"	"101"	"298883"	"0.0-5.0-2.0-0.24"	"r0sdb2"	"600"	"1366"	"chrome"	"108.0.0"	"FALSE"	"Windows 10"	"60.7"	"141"	n/a	n/a	n/a	n/a	n/a	n/a	"fixation"	n/a	n/a	n/a	n/a	"NULL"	n/a	"NULL"	"NULL"	"NULL"	"<p style=\"color: black; font-size: 80px; padding-left: 37%; padding-right: 20%; padding-top: 44%; padding-bottom: 3%\">+</p>"	"1356"	n/a	n/a	n/a	n/a	n/a	n/a	n/a	n/a	n/a
n/a	"image-keyboard-response"	"102"	"299551"	"0.0-5.0-2.0-1.24"	"r0sdb2"	"600"	"1366"	"chrome"	"108.0.0"	"FALSE"	"Windows 10"	"60.7"	"141"	n/a	n/a	n/a	n/a	n/a	n/a	"Trial"	n/a	n/a	n/a	"667"	"arrowleft"	n/a	"NULL"	"NULL"	"NULL"	"stimuli/Ebbinghaus_0.10000_0.21500.png"	n/a	"Ebbinghaus"	"arrowleft"	"1366"	"TRUE"	"Ebbinghaus"	"0.1000000000"	"0.2150000000"	"1"	"43"
n/a	"html-keyboard-response"	"103"	"300851"	"0.0-5.0-2.0-0.25"	"r0sdb2"	"600"	"1366"	"chrome"	"108.0.0"	"FALSE"	"Windows 10"	"60.7"	"141"	n/a	n/a	n/a	n/a	n/a	n/a	"fixation"	n/a	n/a	n/a	n/a	"NULL"	n/a	"NULL"	"NULL"	"NULL"	"<p style=\"color: black; font-size: 80px; padding-left: 1%; padding-right: 35%; padding-top: 3%; padding-bottom: 44%\">+</p>"	"1291"	n/a	n/a	n/a	n/a	n/a	n/a	n/a	n/a	n/a
n/a	"image-keyboard-response"	"104"	"301706"	"0.0-5.0-2.0-1.25"	"r0sdb2"	"600"	"1366"	"chrome"	"108.0.0"	"FALSE"	"Windows 10"	"60.7"	"141"	n/a	n/a	n/a	n/a	n/a	n/a	"Trial"	n/a	n/a	n/a	"854"	"arrowright"	n/a	"NULL"	"NULL"	"NULL"	"stimuli/Ebbinghaus_-0.1000_-0.15857.png"	n/a	"Ebbinghaus"	"arrowright"	"1300"	"TRUE"	"Ebbinghaus"	"-0.100000000"	"-0.158570000"	"1"	"44"
n/a	"html-keyboard-response"	"105"	"302983"	"0.0-5.0-2.0-0.26"	"r0sdb2"	"600"	"1366"	"chrome"	"108.0.0"	"FALSE"	"Windows 10"	"60.7"	"141"	n/a	n/a	n/a	n/a	n/a	n/a	"fixation"	n/a	n/a	n/a	n/a	"NULL"	n/a	"NULL"	"NULL"	"NULL"	"<p style=\"color: black; font-size: 80px; padding-left: 47%; padding-right: 24%; padding-top: 40%; padding-bottom: 37%\">+</p>"	"1264"	n/a	n/a	n/a	n/a	n/a	n/a	n/a	n/a	n/a
n/a	"image-keyboard-response"	"106"	"303580"	"0.0-5.0-2.0-1.26"	"r0sdb2"	"600"	"1366"	"chrome"	"108.0.0"	"FALSE"	"Windows 10"	"60.7"	"141"	n/a	n/a	n/a	n/a	n/a	n/a	"Trial"	n/a	n/a	n/a	"596"	"arrowleft"	n/a	"NULL"	"NULL"	"NULL"	"stimuli/Ebbinghaus_-0.87143_0.15857.png"	n/a	"Ebbinghaus"	"arrowleft"	"1277"	"TRUE"	"Ebbinghaus"	"-0.871430000"	"0.1585700000"	"1"	"45"
n/a	"html-keyboard-response"	"107"	"304656"	"0.0-5.0-2.0-0.27"	"r0sdb2"	"600"	"1366"	"chrome"	"108.0.0"	"FALSE"	"Windows 10"	"60.7"	"141"	n/a	n/a	n/a	n/a	n/a	n/a	"fixation"	n/a	n/a	n/a	n/a	"NULL"	n/a	"NULL"	"NULL"	"NULL"	"<p style=\"color: black; font-size: 80px; padding-left: 48%; padding-right: 14%; padding-top: 6%; padding-bottom: 47%\">+</p>"	"1054"	n/a	n/a	n/a	n/a	n/a	n/a	n/a	n/a	n/a
n/a	"image-keyboard-response"	"108"	"305362"	"0.0-5.0-2.0-1.27"	"r0sdb2"	"600"	"1366"	"chrome"	"108.0.0"	"FALSE"	"Windows 10"	"60.7"	"141"	n/a	n/a	n/a	n/a	n/a	n/a	"Trial"	n/a	n/a	n/a	"706"	"arrowright"	n/a	"NULL"	"NULL"	"NULL"	"stimuli/Ebbinghaus_-0.61429_-0.2150.png"	n/a	"Ebbinghaus"	"arrowright"	"1076"	"TRUE"	"Ebbinghaus"	"-0.614290000"	"-0.215000000"	"1"	"46"
n/a	"html-keyboard-response"	"109"	"306864"	"0.0-5.0-2.0-0.28"	"r0sdb2"	"600"	"1366"	"chrome"	"108.0.0"	"FALSE"	"Windows 10"	"60.7"	"141"	n/a	n/a	n/a	n/a	n/a	n/a	"fixation"	n/a	n/a	n/a	n/a	"NULL"	n/a	"NULL"	"NULL"	"NULL"	"<p style=\"color: black; font-size: 80px; padding-left: 24%; padding-right: 18%; padding-top: 34%; padding-bottom: 45%\">+</p>"	"1495"	n/a	n/a	n/a	n/a	n/a	n/a	n/a	n/a	n/a
n/a	"image-keyboard-response"	"110"	"307750"	"0.0-5.0-2.0-1.28"	"r0sdb2"	"600"	"1366"	"chrome"	"108.0.0"	"FALSE"	"Windows 10"	"60.7"	"141"	n/a	n/a	n/a	n/a	n/a	n/a	"Trial"	n/a	n/a	n/a	"884"	"arrowright"	n/a	"NULL"	"NULL"	"NULL"	"stimuli/Ebbinghaus_0.10000_-0.15857.png"	n/a	"Ebbinghaus"	"arrowright"	"1502"	"TRUE"	"Ebbinghaus"	"0.1000000000"	"-0.158570000"	"1"	"47"
n/a	"html-keyboard-response"	"111"	"308906"	"0.0-5.0-2.0-0.29"	"r0sdb2"	"600"	"1366"	"chrome"	"108.0.0"	"FALSE"	"Windows 10"	"60.7"	"141"	n/a	n/a	n/a	n/a	n/a	n/a	"fixation"	n/a	n/a	n/a	n/a	"NULL"	n/a	"NULL"	"NULL"	"NULL"	"<p style=\"color: black; font-size: 80px; padding-left: 44%; padding-right: 47%; padding-top: 3%; padding-bottom: 47%\">+</p>"	"1144"	n/a	n/a	n/a	n/a	n/a	n/a	n/a	n/a	n/a
n/a	"image-keyboard-response"	"112"	"309559"	"0.0-5.0-2.0-1.29"	"r0sdb2"	"600"	"1366"	"chrome"	"108.0.0"	"FALSE"	"Windows 10"	"60.7"	"141"	n/a	n/a	n/a	n/a	n/a	n/a	"Trial"	n/a	n/a	n/a	"652"	"arrowright"	n/a	"NULL"	"NULL"	"NULL"	"stimuli/Ebbinghaus_0.35714_-0.2150.png"	n/a	"Ebbinghaus"	"arrowright"	"1156"	"TRUE"	"Ebbinghaus"	"0.3571400000"	"-0.215000000"	"1"	"48"
n/a	"html-keyboard-response"	"113"	"311047"	"0.0-5.0-2.0-0.30"	"r0sdb2"	"600"	"1366"	"chrome"	"108.0.0"	"FALSE"	"Windows 10"	"60.7"	"141"	n/a	n/a	n/a	n/a	n/a	n/a	"fixation"	n/a	n/a	n/a	n/a	"NULL"	n/a	"NULL"	"NULL"	"NULL"	"<p style=\"color: black; font-size: 80px; padding-left: 40%; padding-right: 17%; padding-top: 44%; padding-bottom: 14%\">+</p>"	"1473"	n/a	n/a	n/a	n/a	n/a	n/a	n/a	n/a	n/a
n/a	"image-keyboard-response"	"114"	"311680"	"0.0-5.0-2.0-1.30"	"r0sdb2"	"600"	"1366"	"chrome"	"108.0.0"	"FALSE"	"Windows 10"	"60.7"	"141"	n/a	n/a	n/a	n/a	n/a	n/a	"Trial"	n/a	n/a	n/a	"631"	"arrowright"	n/a	"NULL"	"NULL"	"NULL"	"stimuli/Ebbinghaus_0.35714_-0.15857.png"	n/a	"Ebbinghaus"	"arrowright"	"1488"	"TRUE"	"Ebbinghaus"	"0.3571400000"	"-0.158570000"	"1"	"49"
n/a	"html-keyboard-response"	"115"	"312937"	"0.0-5.0-2.0-0.31"	"r0sdb2"	"600"	"1366"	"chrome"	"108.0.0"	"FALSE"	"Windows 10"	"60.7"	"141"	n/a	n/a	n/a	n/a	n/a	n/a	"fixation"	n/a	n/a	n/a	n/a	"NULL"	n/a	"NULL"	"NULL"	"NULL"	"<p style=\"color: black; font-size: 80px; padding-left: 15%; padding-right: 35%; padding-top: 20%; padding-bottom: 49%\">+</p>"	"1236"	n/a	n/a	n/a	n/a	n/a	n/a	n/a	n/a	n/a
n/a	"image-keyboard-response"	"116"	"313550"	"0.0-5.0-2.0-1.31"	"r0sdb2"	"600"	"1366"	"chrome"	"108.0.0"	"FALSE"	"Windows 10"	"60.7"	"141"	n/a	n/a	n/a	n/a	n/a	n/a	"Trial"	n/a	n/a	n/a	"611"	"arrowright"	n/a	"NULL"	"NULL"	"NULL"	"stimuli/Ebbinghaus_-0.35714_-0.11071.png"	n/a	"Ebbinghaus"	"arrowright"	"1257"	"TRUE"	"Ebbinghaus"	"-0.357140000"	"-0.110710000"	"1"	"50"
n/a	"html-keyboard-response"	"117"	"314583"	"0.0-5.0-2.0-0.32"	"r0sdb2"	"600"	"1366"	"chrome"	"108.0.0"	"FALSE"	"Windows 10"	"60.7"	"141"	n/a	n/a	n/a	n/a	n/a	n/a	"fixation"	n/a	n/a	n/a	n/a	"NULL"	n/a	"NULL"	"NULL"	"NULL"	"<p style=\"color: black; font-size: 80px; padding-left: 50%; padding-right: 31%; padding-top: 7%; padding-bottom: 23%\">+</p>"	"1015"	n/a	n/a	n/a	n/a	n/a	n/a	n/a	n/a	n/a
n/a	"image-keyboard-response"	"118"	"315200"	"0.0-5.0-2.0-1.32"	"r0sdb2"	"600"	"1366"	"chrome"	"108.0.0"	"FALSE"	"Windows 10"	"60.7"	"141"	n/a	n/a	n/a	n/a	n/a	n/a	"Trial"	n/a	n/a	n/a	"616"	"arrowleft"	n/a	"NULL"	"NULL"	"NULL"	"stimuli/Ebbinghaus_0.87143_0.28000.png"	n/a	"Ebbinghaus"	"arrowleft"	"1033"	"TRUE"	"Ebbinghaus"	"0.8714300000"	"0.2800000000"	"1"	"51"
n/a	"html-keyboard-response"	"119"	"316507"	"0.0-5.0-2.0-0.33"	"r0sdb2"	"600"	"1366"	"chrome"	"108.0.0"	"FALSE"	"Windows 10"	"60.7"	"141"	n/a	n/a	n/a	n/a	n/a	n/a	"fixation"	n/a	n/a	n/a	n/a	"NULL"	n/a	"NULL"	"NULL"	"NULL"	"<p style=\"color: black; font-size: 80px; padding-left: 27%; padding-right: 47%; padding-top: 40%; padding-bottom: 23%\">+</p>"	"1299"	n/a	n/a	n/a	n/a	n/a	n/a	n/a	n/a	n/a
n/a	"image-keyboard-response"	"120"	"317232"	"0.0-5.0-2.0-1.33"	"r0sdb2"	"600"	"1366"	"chrome"	"108.0.0"	"FALSE"	"Windows 10"	"60.7"	"141"	n/a	n/a	n/a	n/a	n/a	n/a	"Trial"	n/a	n/a	n/a	"722"	"arrowright"	n/a	"NULL"	"NULL"	"NULL"	"stimuli/Ebbinghaus_-0.87143_-0.2150.png"	n/a	"Ebbinghaus"	"arrowright"	"1307"	"TRUE"	"Ebbinghaus"	"-0.871430000"	"-0.215000000"	"1"	"52"
n/a	"html-keyboard-response"	"121"	"318442"	"0.0-5.0-2.0-0.34"	"r0sdb2"	"600"	"1366"	"chrome"	"108.0.0"	"FALSE"	"Windows 10"	"60.7"	"141"	n/a	n/a	n/a	n/a	n/a	n/a	"fixation"	n/a	n/a	n/a	n/a	"NULL"	n/a	"NULL"	"NULL"	"NULL"	"<p style=\"color: black; font-size: 80px; padding-left: 34%; padding-right: 29%; padding-top: 36%; padding-bottom: 29%\">+</p>"	"1198"	n/a	n/a	n/a	n/a	n/a	n/a	n/a	n/a	n/a
n/a	"image-keyboard-response"	"122"	"319230"	"0.0-5.0-2.0-1.34"	"r0sdb2"	"600"	"1366"	"chrome"	"108.0.0"	"FALSE"	"Windows 10"	"60.7"	"141"	n/a	n/a	n/a	n/a	n/a	n/a	"Trial"	n/a	n/a	n/a	"786"	"arrowleft"	n/a	"NULL"	"NULL"	"NULL"	"stimuli/Ebbinghaus_-0.1000_0.15857.png"	n/a	"Ebbinghaus"	"arrowleft"	"1210"	"TRUE"	"Ebbinghaus"	"-0.100000000"	"0.1585700000"	"1"	"53"
n/a	"html-keyboard-response"	"123"	"320301"	"0.0-5.0-2.0-0.35"	"r0sdb2"	"600"	"1366"	"chrome"	"108.0.0"	"FALSE"	"Windows 10"	"60.7"	"141"	n/a	n/a	n/a	n/a	n/a	n/a	"fixation"	n/a	n/a	n/a	n/a	"NULL"	n/a	"NULL"	"NULL"	"NULL"	"<p style=\"color: black; font-size: 80px; padding-left: 36%; padding-right: 28%; padding-top: 14%; padding-bottom: 39%\">+</p>"	"1055"	n/a	n/a	n/a	n/a	n/a	n/a	n/a	n/a	n/a
n/a	"image-keyboard-response"	"124"	"321048"	"0.0-5.0-2.0-1.35"	"r0sdb2"	"600"	"1366"	"chrome"	"108.0.0"	"FALSE"	"Windows 10"	"60.7"	"141"	n/a	n/a	n/a	n/a	n/a	n/a	"Trial"	n/a	n/a	n/a	"746"	"arrowright"	n/a	"NULL"	"NULL"	"NULL"	"stimuli/Ebbinghaus_0.10000_-0.11071.png"	n/a	"Ebbinghaus"	"arrowright"	"1071"	"TRUE"	"Ebbinghaus"	"0.1000000000"	"-0.110710000"	"1"	"54"
n/a	"html-keyboard-response"	"125"	"322130"	"0.0-5.0-2.0-0.36"	"r0sdb2"	"600"	"1366"	"chrome"	"108.0.0"	"FALSE"	"Windows 10"	"60.7"	"141"	n/a	n/a	n/a	n/a	n/a	n/a	"fixation"	n/a	n/a	n/a	n/a	"NULL"	n/a	"NULL"	"NULL"	"NULL"	"<p style=\"color: black; font-size: 80px; padding-left: 23%; padding-right: 37%; padding-top: 42%; padding-bottom: 36%\">+</p>"	"1064"	n/a	n/a	n/a	n/a	n/a	n/a	n/a	n/a	n/a
n/a	"image-keyboard-response"	"126"	"322754"	"0.0-5.0-2.0-1.36"	"r0sdb2"	"600"	"1366"	"chrome"	"108.0.0"	"FALSE"	"Windows 10"	"60.7"	"141"	n/a	n/a	n/a	n/a	n/a	n/a	"Trial"	n/a	n/a	n/a	"622"	"arrowright"	n/a	"NULL"	"NULL"	"NULL"	"stimuli/Ebbinghaus_-0.1000_-0.2800.png"	n/a	"Ebbinghaus"	"arrowright"	"1082"	"TRUE"	"Ebbinghaus"	"-0.100000000"	"-0.280000000"	"1"	"55"
n/a	"html-keyboard-response"	"127"	"324164"	"0.0-5.0-2.0-0.37"	"r0sdb2"	"600"	"1366"	"chrome"	"108.0.0"	"FALSE"	"Windows 10"	"60.7"	"141"	n/a	n/a	n/a	n/a	n/a	n/a	"fixation"	n/a	n/a	n/a	n/a	"NULL"	n/a	"NULL"	"NULL"	"NULL"	"<p style=\"color: black; font-size: 80px; padding-left: 3%; padding-right: 5%; padding-top: 20%; padding-bottom: 15%\">+</p>"	"1405"	n/a	n/a	n/a	n/a	n/a	n/a	n/a	n/a	n/a
n/a	"image-keyboard-response"	"128"	"325008"	"0.0-5.0-2.0-1.37"	"r0sdb2"	"600"	"1366"	"chrome"	"108.0.0"	"FALSE"	"Windows 10"	"60.7"	"141"	n/a	n/a	n/a	n/a	n/a	n/a	"Trial"	n/a	n/a	n/a	"842"	"arrowright"	n/a	"NULL"	"NULL"	"NULL"	"stimuli/Ebbinghaus_0.35714_0.11071.png"	n/a	"Ebbinghaus"	"arrowleft"	"1410"	"FALSE"	"Ebbinghaus"	"0.3571400000"	"0.1107100000"	"1"	"56"
n/a	"html-keyboard-response"	"129"	"326145"	"0.0-5.0-2.0-0.38"	"r0sdb2"	"600"	"1366"	"chrome"	"108.0.0"	"FALSE"	"Windows 10"	"60.7"	"141"	n/a	n/a	n/a	n/a	n/a	n/a	"fixation"	n/a	n/a	n/a	n/a	"NULL"	n/a	"NULL"	"NULL"	"NULL"	"<p style=\"color: black; font-size: 80px; padding-left: 2%; padding-right: 30%; padding-top: 31%; padding-bottom: 47%\">+</p>"	"1125"	n/a	n/a	n/a	n/a	n/a	n/a	n/a	n/a	n/a
n/a	"image-keyboard-response"	"130"	"326861"	"0.0-5.0-2.0-1.38"	"r0sdb2"	"600"	"1366"	"chrome"	"108.0.0"	"FALSE"	"Windows 10"	"60.7"	"141"	n/a	n/a	n/a	n/a	n/a	n/a	"Trial"	n/a	n/a	n/a	"715"	"arrowleft"	n/a	"NULL"	"NULL"	"NULL"	"stimuli/Ebbinghaus_0.87143_0.15857.png"	n/a	"Ebbinghaus"	"arrowleft"	"1137"	"TRUE"	"Ebbinghaus"	"0.8714300000"	"0.1585700000"	"1"	"57"
n/a	"html-keyboard-response"	"131"	"328082"	"0.0-5.0-2.0-0.39"	"r0sdb2"	"600"	"1366"	"chrome"	"108.0.0"	"FALSE"	"Windows 10"	"60.7"	"141"	n/a	n/a	n/a	n/a	n/a	n/a	"fixation"	n/a	n/a	n/a	n/a	"NULL"	n/a	"NULL"	"NULL"	"NULL"	"<p style=\"color: black; font-size: 80px; padding-left: 5%; padding-right: 46%; padding-top: 34%; padding-bottom: 21%\">+</p>"	"1210"	n/a	n/a	n/a	n/a	n/a	n/a	n/a	n/a	n/a
n/a	"image-keyboard-response"	"132"	"329049"	"0.0-5.0-2.0-1.39"	"r0sdb2"	"600"	"1366"	"chrome"	"108.0.0"	"FALSE"	"Windows 10"	"60.7"	"141"	n/a	n/a	n/a	n/a	n/a	n/a	"Trial"	n/a	n/a	n/a	"965"	"arrowright"	n/a	"NULL"	"NULL"	"NULL"	"stimuli/Ebbinghaus_0.87143_0.11071.png"	n/a	"Ebbinghaus"	"arrowleft"	"1221"	"FALSE"	"Ebbinghaus"	"0.8714300000"	"0.1107100000"	"1"	"58"
n/a	"html-keyboard-response"	"133"	"330239"	"0.0-5.0-2.0-0.40"	"r0sdb2"	"600"	"1366"	"chrome"	"108.0.0"	"FALSE"	"Windows 10"	"60.7"	"141"	n/a	n/a	n/a	n/a	n/a	n/a	"fixation"	n/a	n/a	n/a	n/a	"NULL"	n/a	"NULL"	"NULL"	"NULL"	"<p style=\"color: black; font-size: 80px; padding-left: 48%; padding-right: 8%; padding-top: 37%; padding-bottom: 39%\">+</p>"	"1174"	n/a	n/a	n/a	n/a	n/a	n/a	n/a	n/a	n/a
n/a	"image-keyboard-response"	"134"	"331124"	"0.0-5.0-2.0-1.40"	"r0sdb2"	"600"	"1366"	"chrome"	"108.0.0"	"FALSE"	"Windows 10"	"60.7"	"141"	n/a	n/a	n/a	n/a	n/a	n/a	"Trial"	n/a	n/a	n/a	"882"	"arrowright"	n/a	"NULL"	"NULL"	"NULL"	"stimuli/Ebbinghaus_0.87143_-0.15857.png"	n/a	"Ebbinghaus"	"arrowright"	"1190"	"TRUE"	"Ebbinghaus"	"0.8714300000"	"-0.158570000"	"1"	"59"
n/a	"html-keyboard-response"	"135"	"332146"	"0.0-5.0-2.0-0.41"	"r0sdb2"	"600"	"1366"	"chrome"	"108.0.0"	"FALSE"	"Windows 10"	"60.7"	"141"	n/a	n/a	n/a	n/a	n/a	n/a	"fixation"	n/a	n/a	n/a	n/a	"NULL"	n/a	"NULL"	"NULL"	"NULL"	"<p style=\"color: black; font-size: 80px; padding-left: 16%; padding-right: 28%; padding-top: 15%; padding-bottom: 3%\">+</p>"	"1004"	n/a	n/a	n/a	n/a	n/a	n/a	n/a	n/a	n/a
n/a	"image-keyboard-response"	"136"	"332989"	"0.0-5.0-2.0-1.41"	"r0sdb2"	"600"	"1366"	"chrome"	"108.0.0"	"FALSE"	"Windows 10"	"60.7"	"141"	n/a	n/a	n/a	n/a	n/a	n/a	"Trial"	n/a	n/a	n/a	"842"	"arrowright"	n/a	"NULL"	"NULL"	"NULL"	"stimuli/Ebbinghaus_-0.61429_-0.15857.png"	n/a	"Ebbinghaus"	"arrowright"	"1022"	"TRUE"	"Ebbinghaus"	"-0.614290000"	"-0.158570000"	"1"	"60"
n/a	"html-keyboard-response"	"137"	"334098"	"0.0-5.0-2.0-0.42"	"r0sdb2"	"600"	"1366"	"chrome"	"108.0.0"	"FALSE"	"Windows 10"	"60.7"	"141"	n/a	n/a	n/a	n/a	n/a	n/a	"fixation"	n/a	n/a	n/a	n/a	"NULL"	n/a	"NULL"	"NULL"	"NULL"	"<p style=\"color: black; font-size: 80px; padding-left: 19%; padding-right: 35%; padding-top: 46%; padding-bottom: 43%\">+</p>"	"1098"	n/a	n/a	n/a	n/a	n/a	n/a	n/a	n/a	n/a
n/a	"image-keyboard-response"	"138"	"334796"	"0.0-5.0-2.0-1.42"	"r0sdb2"	"600"	"1366"	"chrome"	"108.0.0"	"FALSE"	"Windows 10"	"60.7"	"141"	n/a	n/a	n/a	n/a	n/a	n/a	"Trial"	n/a	n/a	n/a	"692"	"arrowleft"	n/a	"NULL"	"NULL"	"NULL"	"stimuli/Ebbinghaus_0.61429_0.15857.png"	n/a	"Ebbinghaus"	"arrowleft"	"1109"	"TRUE"	"Ebbinghaus"	"0.6142900000"	"0.1585700000"	"1"	"61"
n/a	"html-keyboard-response"	"139"	"335865"	"0.0-5.0-2.0-0.43"	"r0sdb2"	"600"	"1366"	"chrome"	"108.0.0"	"FALSE"	"Windows 10"	"60.7"	"141"	n/a	n/a	n/a	n/a	n/a	n/a	"fixation"	n/a	n/a	n/a	n/a	"NULL"	n/a	"NULL"	"NULL"	"NULL"	"<p style=\"color: black; font-size: 80px; padding-left: 12%; padding-right: 21%; padding-top: 36%; padding-bottom: 33%\">+</p>"	"1056"	n/a	n/a	n/a	n/a	n/a	n/a	n/a	n/a	n/a
n/a	"image-keyboard-response"	"140"	"336477"	"0.0-5.0-2.0-1.43"	"r0sdb2"	"600"	"1366"	"chrome"	"108.0.0"	"FALSE"	"Windows 10"	"60.7"	"141"	n/a	n/a	n/a	n/a	n/a	n/a	"Trial"	n/a	n/a	n/a	"610"	"arrowleft"	n/a	"NULL"	"NULL"	"NULL"	"stimuli/Ebbinghaus_0.35714_0.28000.png"	n/a	"Ebbinghaus"	"arrowleft"	"1069"	"TRUE"	"Ebbinghaus"	"0.3571400000"	"0.2800000000"	"1"	"62"
n/a	"html-keyboard-response"	"141"	"337831"	"0.0-5.0-2.0-0.44"	"r0sdb2"	"600"	"1366"	"chrome"	"108.0.0"	"FALSE"	"Windows 10"	"60.7"	"141"	n/a	n/a	n/a	n/a	n/a	n/a	"fixation"	n/a	n/a	n/a	n/a	"NULL"	n/a	"NULL"	"NULL"	"NULL"	"<p style=\"color: black; font-size: 80px; padding-left: 17%; padding-right: 47%; padding-top: 38%; padding-bottom: 47%\">+</p>"	"1345"	n/a	n/a	n/a	n/a	n/a	n/a	n/a	n/a	n/a
n/a	"image-keyboard-response"	"142"	"338537"	"0.0-5.0-2.0-1.44"	"r0sdb2"	"600"	"1366"	"chrome"	"108.0.0"	"FALSE"	"Windows 10"	"60.7"	"141"	n/a	n/a	n/a	n/a	n/a	n/a	"Trial"	n/a	n/a	n/a	"705"	"arrowleft"	n/a	"NULL"	"NULL"	"NULL"	"stimuli/Ebbinghaus_0.87143_-0.2800.png"	n/a	"Ebbinghaus"	"arrowright"	"1354"	"FALSE"	"Ebbinghaus"	"0.8714300000"	"-0.280000000"	"1"	"63"
n/a	"html-keyboard-response"	"143"	"339849"	"0.0-5.0-2.0-0.45"	"r0sdb2"	"600"	"1366"	"chrome"	"108.0.0"	"FALSE"	"Windows 10"	"60.7"	"141"	n/a	n/a	n/a	n/a	n/a	n/a	"fixation"	n/a	n/a	n/a	n/a	"NULL"	n/a	"NULL"	"NULL"	"NULL"	"<p style=\"color: black; font-size: 80px; padding-left: 31%; padding-right: 40%; padding-top: 37%; padding-bottom: 31%\">+</p>"	"1290"	n/a	n/a	n/a	n/a	n/a	n/a	n/a	n/a	n/a
n/a	"image-keyboard-response"	"144"	"340540"	"0.0-5.0-2.0-1.45"	"r0sdb2"	"600"	"1366"	"chrome"	"108.0.0"	"FALSE"	"Windows 10"	"60.7"	"141"	n/a	n/a	n/a	n/a	n/a	n/a	"Trial"	n/a	n/a	n/a	"689"	"arrowleft"	n/a	"NULL"	"NULL"	"NULL"	"stimuli/Ebbinghaus_0.10000_0.28000.png"	n/a	"Ebbinghaus"	"arrowleft"	"1312"	"TRUE"	"Ebbinghaus"	"0.1000000000"	"0.2800000000"	"1"	"64"
n/a	"html-keyboard-response"	"145"	"341880"	"0.0-5.0-2.0-0.46"	"r0sdb2"	"600"	"1366"	"chrome"	"108.0.0"	"FALSE"	"Windows 10"	"60.7"	"141"	n/a	n/a	n/a	n/a	n/a	n/a	"fixation"	n/a	n/a	n/a	n/a	"NULL"	n/a	"NULL"	"NULL"	"NULL"	"<p style=\"color: black; font-size: 80px; padding-left: 7%; padding-right: 21%; padding-top: 17%; padding-bottom: 4%\">+</p>"	"1330"	n/a	n/a	n/a	n/a	n/a	n/a	n/a	n/a	n/a
n/a	"image-keyboard-response"	"146"	"342477"	"0.0-5.0-2.0-1.46"	"r0sdb2"	"600"	"1366"	"chrome"	"108.0.0"	"FALSE"	"Windows 10"	"60.7"	"141"	n/a	n/a	n/a	n/a	n/a	n/a	"Trial"	n/a	n/a	n/a	"596"	"arrowleft"	n/a	"NULL"	"NULL"	"NULL"	"stimuli/Ebbinghaus_-0.1000_0.11071.png"	n/a	"Ebbinghaus"	"arrowleft"	"1340"	"TRUE"	"Ebbinghaus"	"-0.100000000"	"0.1107100000"	"1"	"65"
n/a	"html-keyboard-response"	"147"	"343901"	"0.0-5.0-2.0-0.47"	"r0sdb2"	"600"	"1366"	"chrome"	"108.0.0"	"FALSE"	"Windows 10"	"60.7"	"141"	n/a	n/a	n/a	n/a	n/a	n/a	"fixation"	n/a	n/a	n/a	n/a	"NULL"	n/a	"NULL"	"NULL"	"NULL"	"<p style=\"color: black; font-size: 80px; padding-left: 45%; padding-right: 41%; padding-top: 40%; padding-bottom: 5%\">+</p>"	"1406"	n/a	n/a	n/a	n/a	n/a	n/a	n/a	n/a	n/a
n/a	"image-keyboard-response"	"148"	"344466"	"0.0-5.0-2.0-1.47"	"r0sdb2"	"600"	"1366"	"chrome"	"108.0.0"	"FALSE"	"Windows 10"	"60.7"	"141"	n/a	n/a	n/a	n/a	n/a	n/a	"Trial"	n/a	n/a	n/a	"564"	"arrowleft"	n/a	"NULL"	"NULL"	"NULL"	"stimuli/Ebbinghaus_0.61429_0.21500.png"	n/a	"Ebbinghaus"	"arrowleft"	"1424"	"TRUE"	"Ebbinghaus"	"0.6142900000"	"0.2150000000"	"1"	"66"
n/a	"html-keyboard-response"	"149"	"345815"	"0.0-5.0-2.0-0.48"	"r0sdb2"	"600"	"1366"	"chrome"	"108.0.0"	"FALSE"	"Windows 10"	"60.7"	"141"	n/a	n/a	n/a	n/a	n/a	n/a	"fixation"	n/a	n/a	n/a	n/a	"NULL"	n/a	"NULL"	"NULL"	"NULL"	"<p style=\"color: black; font-size: 80px; padding-left: 29%; padding-right: 34%; padding-top: 14%; padding-bottom: 36%\">+</p>"	"1334"	n/a	n/a	n/a	n/a	n/a	n/a	n/a	n/a	n/a
n/a	"image-keyboard-response"	"150"	"346399"	"0.0-5.0-2.0-1.48"	"r0sdb2"	"600"	"1366"	"chrome"	"108.0.0"	"FALSE"	"Windows 10"	"60.7"	"141"	n/a	n/a	n/a	n/a	n/a	n/a	"Trial"	n/a	n/a	n/a	"582"	"arrowleft"	n/a	"NULL"	"NULL"	"NULL"	"stimuli/Ebbinghaus_-0.1000_0.21500.png"	n/a	"Ebbinghaus"	"arrowleft"	"1349"	"TRUE"	"Ebbinghaus"	"-0.100000000"	"0.2150000000"	"1"	"67"
n/a	"html-keyboard-response"	"151"	"347661"	"0.0-5.0-2.0-0.49"	"r0sdb2"	"600"	"1366"	"chrome"	"108.0.0"	"FALSE"	"Windows 10"	"60.7"	"141"	n/a	n/a	n/a	n/a	n/a	n/a	"fixation"	n/a	n/a	n/a	n/a	"NULL"	n/a	"NULL"	"NULL"	"NULL"	"<p style=\"color: black; font-size: 80px; padding-left: 8%; padding-right: 49%; padding-top: 13%; padding-bottom: 28%\">+</p>"	"1256"	n/a	n/a	n/a	n/a	n/a	n/a	n/a	n/a	n/a
n/a	"image-keyboard-response"	"152"	"348216"	"0.0-5.0-2.0-1.49"	"r0sdb2"	"600"	"1366"	"chrome"	"108.0.0"	"FALSE"	"Windows 10"	"60.7"	"141"	n/a	n/a	n/a	n/a	n/a	n/a	"Trial"	n/a	n/a	n/a	"552"	"arrowleft"	n/a	"NULL"	"NULL"	"NULL"	"stimuli/Ebbinghaus_-0.61429_0.28000.png"	n/a	"Ebbinghaus"	"arrowleft"	"1262"	"TRUE"	"Ebbinghaus"	"-0.614290000"	"0.2800000000"	"1"	"68"
n/a	"html-keyboard-response"	"153"	"349313"	"0.0-5.0-2.0-0.50"	"r0sdb2"	"600"	"1366"	"chrome"	"108.0.0"	"FALSE"	"Windows 10"	"60.7"	"141"	n/a	n/a	n/a	n/a	n/a	n/a	"fixation"	n/a	n/a	n/a	n/a	"NULL"	n/a	"NULL"	"NULL"	"NULL"	"<p style=\"color: black; font-size: 80px; padding-left: 30%; padding-right: 32%; padding-top: 8%; padding-bottom: 48%\">+</p>"	"1078"	n/a	n/a	n/a	n/a	n/a	n/a	n/a	n/a	n/a
n/a	"image-keyboard-response"	"154"	"349996"	"0.0-5.0-2.0-1.50"	"r0sdb2"	"600"	"1366"	"chrome"	"108.0.0"	"FALSE"	"Windows 10"	"60.7"	"141"	n/a	n/a	n/a	n/a	n/a	n/a	"Trial"	n/a	n/a	n/a	"681"	"arrowright"	n/a	"NULL"	"NULL"	"NULL"	"stimuli/Ebbinghaus_-0.35714_-0.2150.png"	n/a	"Ebbinghaus"	"arrowright"	"1097"	"TRUE"	"Ebbinghaus"	"-0.357140000"	"-0.215000000"	"1"	"69"
n/a	"html-keyboard-response"	"155"	"351254"	"0.0-5.0-2.0-0.51"	"r0sdb2"	"600"	"1366"	"chrome"	"108.0.0"	"FALSE"	"Windows 10"	"60.7"	"141"	n/a	n/a	n/a	n/a	n/a	n/a	"fixation"	n/a	n/a	n/a	n/a	"NULL"	n/a	"NULL"	"NULL"	"NULL"	"<p style=\"color: black; font-size: 80px; padding-left: 6%; padding-right: 35%; padding-top: 30%; padding-bottom: 16%\">+</p>"	"1241"	n/a	n/a	n/a	n/a	n/a	n/a	n/a	n/a	n/a
n/a	"image-keyboard-response"	"156"	"351925"	"0.0-5.0-2.0-1.51"	"r0sdb2"	"600"	"1366"	"chrome"	"108.0.0"	"FALSE"	"Windows 10"	"60.7"	"141"	n/a	n/a	n/a	n/a	n/a	n/a	"Trial"	n/a	n/a	n/a	"669"	"arrowright"	n/a	"NULL"	"NULL"	"NULL"	"stimuli/Ebbinghaus_0.10000_-0.2800.png"	n/a	"Ebbinghaus"	"arrowright"	"1258"	"TRUE"	"Ebbinghaus"	"0.1000000000"	"-0.280000000"	"1"	"70"
n/a	"html-keyboard-response"	"157"	"352990"	"0.0-5.0-2.0-0.52"	"r0sdb2"	"600"	"1366"	"chrome"	"108.0.0"	"FALSE"	"Windows 10"	"60.7"	"141"	n/a	n/a	n/a	n/a	n/a	n/a	"fixation"	n/a	n/a	n/a	n/a	"NULL"	n/a	"NULL"	"NULL"	"NULL"	"<p style=\"color: black; font-size: 80px; padding-left: 23%; padding-right: 40%; padding-top: 9%; padding-bottom: 0%\">+</p>"	"1053"	n/a	n/a	n/a	n/a	n/a	n/a	n/a	n/a	n/a
n/a	"image-keyboard-response"	"158"	"353660"	"0.0-5.0-2.0-1.52"	"r0sdb2"	"600"	"1366"	"chrome"	"108.0.0"	"FALSE"	"Windows 10"	"60.7"	"141"	n/a	n/a	n/a	n/a	n/a	n/a	"Trial"	n/a	n/a	n/a	"668"	"arrowright"	n/a	"NULL"	"NULL"	"NULL"	"stimuli/Ebbinghaus_-0.87143_-0.15857.png"	n/a	"Ebbinghaus"	"arrowright"	"1065"	"TRUE"	"Ebbinghaus"	"-0.871430000"	"-0.158570000"	"1"	"71"
n/a	"html-keyboard-response"	"159"	"355030"	"0.0-5.0-2.0-0.53"	"r0sdb2"	"600"	"1366"	"chrome"	"108.0.0"	"FALSE"	"Windows 10"	"60.7"	"141"	n/a	n/a	n/a	n/a	n/a	n/a	"fixation"	n/a	n/a	n/a	n/a	"NULL"	n/a	"NULL"	"NULL"	"NULL"	"<p style=\"color: black; font-size: 80px; padding-left: 47%; padding-right: 47%; padding-top: 31%; padding-bottom: 6%\">+</p>"	"1353"	n/a	n/a	n/a	n/a	n/a	n/a	n/a	n/a	n/a
n/a	"image-keyboard-response"	"160"	"355704"	"0.0-5.0-2.0-1.53"	"r0sdb2"	"600"	"1366"	"chrome"	"108.0.0"	"FALSE"	"Windows 10"	"60.7"	"141"	n/a	n/a	n/a	n/a	n/a	n/a	"Trial"	n/a	n/a	n/a	"672"	"arrowright"	n/a	"NULL"	"NULL"	"NULL"	"stimuli/Ebbinghaus_-0.1000_-0.11071.png"	n/a	"Ebbinghaus"	"arrowright"	"1370"	"TRUE"	"Ebbinghaus"	"-0.100000000"	"-0.110710000"	"1"	"72"
n/a	"html-keyboard-response"	"161"	"356729"	"0.0-5.0-2.0-0.54"	"r0sdb2"	"600"	"1366"	"chrome"	"108.0.0"	"FALSE"	"Windows 10"	"60.7"	"141"	n/a	n/a	n/a	n/a	n/a	n/a	"fixation"	n/a	n/a	n/a	n/a	"NULL"	n/a	"NULL"	"NULL"	"NULL"	"<p style=\"color: black; font-size: 80px; padding-left: 36%; padding-right: 44%; padding-top: 47%; padding-bottom: 5%\">+</p>"	"1007"	n/a	n/a	n/a	n/a	n/a	n/a	n/a	n/a	n/a
n/a	"image-keyboard-response"	"162"	"357342"	"0.0-5.0-2.0-1.54"	"r0sdb2"	"600"	"1366"	"chrome"	"108.0.0"	"FALSE"	"Windows 10"	"60.7"	"141"	n/a	n/a	n/a	n/a	n/a	n/a	"Trial"	n/a	n/a	n/a	"611"	"arrowright"	n/a	"NULL"	"NULL"	"NULL"	"stimuli/Ebbinghaus_-0.1000_-0.2150.png"	n/a	"Ebbinghaus"	"arrowright"	"1025"	"TRUE"	"Ebbinghaus"	"-0.100000000"	"-0.215000000"	"1"	"73"
n/a	"html-keyboard-response"	"163"	"358551"	"0.0-5.0-2.0-0.55"	"r0sdb2"	"600"	"1366"	"chrome"	"108.0.0"	"FALSE"	"Windows 10"	"60.7"	"141"	n/a	n/a	n/a	n/a	n/a	n/a	"fixation"	n/a	n/a	n/a	n/a	"NULL"	n/a	"NULL"	"NULL"	"NULL"	"<p style=\"color: black; font-size: 80px; padding-left: 23%; padding-right: 32%; padding-top: 2%; padding-bottom: 37%\">+</p>"	"1195"	n/a	n/a	n/a	n/a	n/a	n/a	n/a	n/a	n/a
n/a	"image-keyboard-response"	"164"	"359504"	"0.0-5.0-2.0-1.55"	"r0sdb2"	"600"	"1366"	"chrome"	"108.0.0"	"FALSE"	"Windows 10"	"60.7"	"141"	n/a	n/a	n/a	n/a	n/a	n/a	"Trial"	n/a	n/a	n/a	"951"	"arrowleft"	n/a	"NULL"	"NULL"	"NULL"	"stimuli/Ebbinghaus_-0.35714_0.15857.png"	n/a	"Ebbinghaus"	"arrowleft"	"1209"	"TRUE"	"Ebbinghaus"	"-0.357140000"	"0.1585700000"	"1"	"74"
n/a	"html-keyboard-response"	"165"	"360564"	"0.0-5.0-2.0-0.56"	"r0sdb2"	"600"	"1366"	"chrome"	"108.0.0"	"FALSE"	"Windows 10"	"60.7"	"141"	n/a	n/a	n/a	n/a	n/a	n/a	"fixation"	n/a	n/a	n/a	n/a	"NULL"	n/a	"NULL"	"NULL"	"NULL"	"<p style=\"color: black; font-size: 80px; padding-left: 27%; padding-right: 26%; padding-top: 37%; padding-bottom: 17%\">+</p>"	"1050"	n/a	n/a	n/a	n/a	n/a	n/a	n/a	n/a	n/a
n/a	"image-keyboard-response"	"166"	"361352"	"0.0-5.0-2.0-1.56"	"r0sdb2"	"600"	"1366"	"chrome"	"108.0.0"	"FALSE"	"Windows 10"	"60.7"	"141"	n/a	n/a	n/a	n/a	n/a	n/a	"Trial"	n/a	n/a	n/a	"787"	"arrowleft"	n/a	"NULL"	"NULL"	"NULL"	"stimuli/Ebbinghaus_0.87143_-0.11071.png"	n/a	"Ebbinghaus"	"arrowright"	"1060"	"FALSE"	"Ebbinghaus"	"0.8714300000"	"-0.110710000"	"1"	"75"
n/a	"html-keyboard-response"	"167"	"362599"	"0.0-5.0-2.0-0.57"	"r0sdb2"	"600"	"1366"	"chrome"	"108.0.0"	"FALSE"	"Windows 10"	"60.7"	"141"	n/a	n/a	n/a	n/a	n/a	n/a	"fixation"	n/a	n/a	n/a	n/a	"NULL"	n/a	"NULL"	"NULL"	"NULL"	"<p style=\"color: black; font-size: 80px; padding-left: 19%; padding-right: 10%; padding-top: 41%; padding-bottom: 5%\">+</p>"	"1237"	n/a	n/a	n/a	n/a	n/a	n/a	n/a	n/a	n/a
n/a	"image-keyboard-response"	"168"	"363347"	"0.0-5.0-2.0-1.57"	"r0sdb2"	"600"	"1366"	"chrome"	"108.0.0"	"FALSE"	"Windows 10"	"60.7"	"141"	n/a	n/a	n/a	n/a	n/a	n/a	"Trial"	n/a	n/a	n/a	"746"	"arrowright"	n/a	"NULL"	"NULL"	"NULL"	"stimuli/Ebbinghaus_0.10000_-0.2150.png"	n/a	"Ebbinghaus"	"arrowright"	"1247"	"TRUE"	"Ebbinghaus"	"0.1000000000"	"-0.215000000"	"1"	"76"
n/a	"html-keyboard-response"	"169"	"364379"	"0.0-5.0-2.0-0.58"	"r0sdb2"	"600"	"1366"	"chrome"	"108.0.0"	"FALSE"	"Windows 10"	"60.7"	"141"	n/a	n/a	n/a	n/a	n/a	n/a	"fixation"	n/a	n/a	n/a	n/a	"NULL"	n/a	"NULL"	"NULL"	"NULL"	"<p style=\"color: black; font-size: 80px; padding-left: 21%; padding-right: 20%; padding-top: 24%; padding-bottom: 22%\">+</p>"	"1027"	n/a	n/a	n/a	n/a	n/a	n/a	n/a	n/a	n/a
n/a	"image-keyboard-response"	"170"	"365147"	"0.0-5.0-2.0-1.58"	"r0sdb2"	"600"	"1366"	"chrome"	"108.0.0"	"FALSE"	"Windows 10"	"60.7"	"141"	n/a	n/a	n/a	n/a	n/a	n/a	"Trial"	n/a	n/a	n/a	"760"	"arrowright"	n/a	"NULL"	"NULL"	"NULL"	"stimuli/Ebbinghaus_-0.35714_-0.15857.png"	n/a	"Ebbinghaus"	"arrowright"	"1032"	"TRUE"	"Ebbinghaus"	"-0.357140000"	"-0.158570000"	"1"	"77"
n/a	"html-keyboard-response"	"171"	"366193"	"0.0-5.0-2.0-0.59"	"r0sdb2"	"600"	"1366"	"chrome"	"108.0.0"	"FALSE"	"Windows 10"	"60.7"	"141"	n/a	n/a	n/a	n/a	n/a	n/a	"fixation"	n/a	n/a	n/a	n/a	"NULL"	n/a	"NULL"	"NULL"	"NULL"	"<p style=\"color: black; font-size: 80px; padding-left: 14%; padding-right: 33%; padding-top: 10%; padding-bottom: 9%\">+</p>"	"1032"	n/a	n/a	n/a	n/a	n/a	n/a	n/a	n/a	n/a
n/a	"image-keyboard-response"	"172"	"367061"	"0.0-5.0-2.0-1.59"	"r0sdb2"	"600"	"1366"	"chrome"	"108.0.0"	"FALSE"	"Windows 10"	"60.7"	"141"	n/a	n/a	n/a	n/a	n/a	n/a	"Trial"	n/a	n/a	n/a	"866"	"arrowleft"	n/a	"NULL"	"NULL"	"NULL"	"stimuli/Ebbinghaus_-0.87143_0.11071.png"	n/a	"Ebbinghaus"	"arrowleft"	"1046"	"TRUE"	"Ebbinghaus"	"-0.871430000"	"0.1107100000"	"1"	"78"
n/a	"html-keyboard-response"	"173"	"368176"	"0.0-5.0-2.0-0.60"	"r0sdb2"	"600"	"1366"	"chrome"	"108.0.0"	"FALSE"	"Windows 10"	"60.7"	"141"	n/a	n/a	n/a	n/a	n/a	n/a	"fixation"	n/a	n/a	n/a	n/a	"NULL"	n/a	"NULL"	"NULL"	"NULL"	"<p style=\"color: black; font-size: 80px; padding-left: 24%; padding-right: 13%; padding-top: 34%; padding-bottom: 15%\">+</p>"	"1104"	n/a	n/a	n/a	n/a	n/a	n/a	n/a	n/a	n/a
n/a	"image-keyboard-response"	"174"	"368831"	"0.0-5.0-2.0-1.60"	"r0sdb2"	"600"	"1366"	"chrome"	"108.0.0"	"FALSE"	"Windows 10"	"60.7"	"141"	n/a	n/a	n/a	n/a	n/a	n/a	"Trial"	n/a	n/a	n/a	"654"	"arrowright"	n/a	"NULL"	"NULL"	"NULL"	"stimuli/Ebbinghaus_-0.87143_-0.2800.png"	n/a	"Ebbinghaus"	"arrowright"	"1115"	"TRUE"	"Ebbinghaus"	"-0.871430000"	"-0.280000000"	"1"	"79"
n/a	"html-keyboard-response"	"175"	"370277"	"0.0-5.0-2.0-0.61"	"r0sdb2"	"600"	"1366"	"chrome"	"108.0.0"	"FALSE"	"Windows 10"	"60.7"	"141"	n/a	n/a	n/a	n/a	n/a	n/a	"fixation"	n/a	n/a	n/a	n/a	"NULL"	n/a	"NULL"	"NULL"	"NULL"	"<p style=\"color: black; font-size: 80px; padding-left: 8%; padding-right: 32%; padding-top: 50%; padding-bottom: 30%\">+</p>"	"1431"	n/a	n/a	n/a	n/a	n/a	n/a	n/a	n/a	n/a
n/a	"image-keyboard-response"	"176"	"370908"	"0.0-5.0-2.0-1.61"	"r0sdb2"	"600"	"1366"	"chrome"	"108.0.0"	"FALSE"	"Windows 10"	"60.7"	"141"	n/a	n/a	n/a	n/a	n/a	n/a	"Trial"	n/a	n/a	n/a	"629"	"arrowright"	n/a	"NULL"	"NULL"	"NULL"	"stimuli/Ebbinghaus_-0.87143_-0.11071.png"	n/a	"Ebbinghaus"	"arrowright"	"1446"	"TRUE"	"Ebbinghaus"	"-0.871430000"	"-0.110710000"	"1"	"80"
n/a	"html-keyboard-response"	"177"	"372082"	"0.0-5.0-2.0-0.62"	"r0sdb2"	"600"	"1366"	"chrome"	"108.0.0"	"FALSE"	"Windows 10"	"60.7"	"141"	n/a	n/a	n/a	n/a	n/a	n/a	"fixation"	n/a	n/a	n/a	n/a	"NULL"	n/a	"NULL"	"NULL"	"NULL"	"<p style=\"color: black; font-size: 80px; padding-left: 13%; padding-right: 12%; padding-top: 41%; padding-bottom: 36%\">+</p>"	"1164"	n/a	n/a	n/a	n/a	n/a	n/a	n/a	n/a	n/a
n/a	"image-keyboard-response"	"178"	"372762"	"0.0-5.0-2.0-1.62"	"r0sdb2"	"600"	"1366"	"chrome"	"108.0.0"	"FALSE"	"Windows 10"	"60.7"	"141"	n/a	n/a	n/a	n/a	n/a	n/a	"Trial"	n/a	n/a	n/a	"679"	"arrowleft"	n/a	"NULL"	"NULL"	"NULL"	"stimuli/Ebbinghaus_0.35714_0.21500.png"	n/a	"Ebbinghaus"	"arrowleft"	"1174"	"TRUE"	"Ebbinghaus"	"0.3571400000"	"0.2150000000"	"1"	"81"
n/a	"html-keyboard-response"	"179"	"373846"	"0.0-5.0-2.0-0.63"	"r0sdb2"	"600"	"1366"	"chrome"	"108.0.0"	"FALSE"	"Windows 10"	"60.7"	"141"	n/a	n/a	n/a	n/a	n/a	n/a	"fixation"	n/a	n/a	n/a	n/a	"NULL"	n/a	"NULL"	"NULL"	"NULL"	"<p style=\"color: black; font-size: 80px; padding-left: 44%; padding-right: 42%; padding-top: 7%; padding-bottom: 50%\">+</p>"	"1064"	n/a	n/a	n/a	n/a	n/a	n/a	n/a	n/a	n/a
n/a	"image-keyboard-response"	"180"	"374680"	"0.0-5.0-2.0-1.63"	"r0sdb2"	"600"	"1366"	"chrome"	"108.0.0"	"FALSE"	"Windows 10"	"60.7"	"141"	n/a	n/a	n/a	n/a	n/a	n/a	"Trial"	n/a	n/a	n/a	"832"	"arrowleft"	n/a	"NULL"	"NULL"	"NULL"	"stimuli/Ebbinghaus_0.61429_-0.2150.png"	n/a	"Ebbinghaus"	"arrowright"	"1084"	"FALSE"	"Ebbinghaus"	"0.6142900000"	"-0.215000000"	"1"	"82"
n/a	"html-button-response"	"181"	"385067"	"0.0-5.0-3.0"	"r0sdb2"	"600"	"1366"	"chrome"	"108.0.0"	"FALSE"	"Windows 10"	"60.7"	"141"	n/a	n/a	n/a	n/a	n/a	n/a	"block_results"	n/a	n/a	n/a	"10375"	"0"	n/a	"NULL"	"NULL"	"NULL"	"<p>Your score for this illusion is <p style=\"color: black; font-size: 48px; font-weight: bold;\">78.4 %</p><hr><p>Can you do better in the next illusion?</p>"	n/a	n/a	n/a	n/a	n/a	n/a	n/a	n/a	n/a	n/a
"TRUE"	"preload"	"182"	"385230"	"0.0-6.0-0.0"	"r0sdb2"	"600"	"1366"	"chrome"	"108.0.0"	"FALSE"	"Windows 10"	"60.7"	"141"	n/a	n/a	n/a	n/a	n/a	n/a	n/a	n/a	n/a	n/a	n/a	"NULL"	"FALSE"	"list()"	"list()"	"list()"	n/a	n/a	n/a	n/a	n/a	n/a	n/a	n/a	n/a	n/a	n/a
n/a	"html-keyboard-response"	"183"	"390133"	"0.0-6.0-1.0"	"r0sdb2"	"600"	"1366"	"chrome"	"108.0.0"	"FALSE"	"Windows 10"	"60.7"	"141"	n/a	n/a	n/a	n/a	n/a	n/a	n/a	n/a	n/a	n/a	"4902"	"enter"	n/a	"NULL"	"NULL"	"NULL"	"<p><b>Part 2/6</b></p><p>In this part, two red lines will appear side by side.</p><p>Your task is to tell <b>which line is longer</b> in length, regardless of their orientation, as fast as you can, and without making errors.</p><p>Don't get distracted by the orientation of the lines!</p><p>Press <b>the LEFT or the RIGHT arrow</b> to indicate which <b>line is the longer one.</b></p><div style='float: center'><img src='materials/instructions/VerticalHorizontal_Demo.png' height='300'></img><p><img src='utils/answer/answer_leftright_keyboard.PNG' height='150'></img></p><p class='small'>In this example, the correct answer is the <b>LEFT arrow</b>.</p></div><p>Are you ready? <b>Press ENTER to start</b></p>"	n/a	n/a	n/a	n/a	n/a	n/a	n/a	n/a	n/a	n/a
n/a	"html-keyboard-response"	"184"	"391725"	"0.0-6.0-2.0-0.0"	"r0sdb2"	"600"	"1366"	"chrome"	"108.0.0"	"FALSE"	"Windows 10"	"60.7"	"141"	n/a	n/a	n/a	n/a	n/a	n/a	"fixation"	n/a	n/a	n/a	n/a	"NULL"	n/a	"NULL"	"NULL"	"NULL"	"<p style=\"color: black; font-size: 80px; padding-left: 39%; padding-right: 43%; padding-top: 40%; padding-bottom: 47%\">+</p>"	"1065"	n/a	n/a	n/a	n/a	n/a	n/a	n/a	n/a	n/a
n/a	"image-keyboard-response"	"185"	"392586"	"0.0-6.0-2.0-1.0"	"r0sdb2"	"600"	"1366"	"chrome"	"108.0.0"	"FALSE"	"Windows 10"	"60.7"	"141"	n/a	n/a	n/a	n/a	n/a	n/a	"Trial"	n/a	n/a	n/a	"860"	"arrowleft"	n/a	"NULL"	"NULL"	"NULL"	"stimuli/VerticalHorizontal_-11.78571_0.06730.png"	n/a	"VerticalHorizontal"	"arrowleft"	"1592"	"TRUE"	"VerticalHorizontal"	"-11.78571000"	"0.0673000000"	"2"	"1"
n/a	"html-keyboard-response"	"186"	"393903"	"0.0-6.0-2.0-0.1"	"r0sdb2"	"600"	"1366"	"chrome"	"108.0.0"	"FALSE"	"Windows 10"	"60.7"	"141"	n/a	n/a	n/a	n/a	n/a	n/a	"fixation"	n/a	n/a	n/a	n/a	"NULL"	n/a	"NULL"	"NULL"	"NULL"	"<p style=\"color: black; font-size: 80px; padding-left: 35%; padding-right: 31%; padding-top: 12%; padding-bottom: 33%\">+</p>"	"1302"	n/a	n/a	n/a	n/a	n/a	n/a	n/a	n/a	n/a
n/a	"image-keyboard-response"	"187"	"394536"	"0.0-6.0-2.0-1.1"	"r0sdb2"	"600"	"1366"	"chrome"	"108.0.0"	"FALSE"	"Windows 10"	"60.7"	"141"	n/a	n/a	n/a	n/a	n/a	n/a	"Trial"	n/a	n/a	n/a	"631"	"arrowright"	n/a	"NULL"	"NULL"	"NULL"	"stimuli/VerticalHorizontal_-3.3000_-0.1096.png"	n/a	"VerticalHorizontal"	"arrowright"	"1317"	"TRUE"	"VerticalHorizontal"	"-3.300000000"	"-0.109600000"	"2"	"2"
n/a	"html-keyboard-response"	"188"	"395662"	"0.0-6.0-2.0-0.2"	"r0sdb2"	"600"	"1366"	"chrome"	"108.0.0"	"FALSE"	"Windows 10"	"60.7"	"141"	n/a	n/a	n/a	n/a	n/a	n/a	"fixation"	n/a	n/a	n/a	n/a	"NULL"	n/a	"NULL"	"NULL"	"NULL"	"<p style=\"color: black; font-size: 80px; padding-left: 36%; padding-right: 14%; padding-top: 11%; padding-bottom: 10%\">+</p>"	"1119"	n/a	n/a	n/a	n/a	n/a	n/a	n/a	n/a	n/a
n/a	"image-keyboard-response"	"189"	"396305"	"0.0-6.0-2.0-1.2"	"r0sdb2"	"600"	"1366"	"chrome"	"108.0.0"	"FALSE"	"Windows 10"	"60.7"	"141"	n/a	n/a	n/a	n/a	n/a	n/a	"Trial"	n/a	n/a	n/a	"642"	"arrowright"	n/a	"NULL"	"NULL"	"NULL"	"stimuli/VerticalHorizontal_-11.78571_-0.2250.png"	n/a	"VerticalHorizontal"	"arrowright"	"1126"	"TRUE"	"VerticalHorizontal"	"-11.78571000"	"-0.225000000"	"2"	"3"
n/a	"html-keyboard-response"	"190"	"397714"	"0.0-6.0-2.0-0.3"	"r0sdb2"	"600"	"1366"	"chrome"	"108.0.0"	"FALSE"	"Windows 10"	"60.7"	"141"	n/a	n/a	n/a	n/a	n/a	n/a	"fixation"	n/a	n/a	n/a	n/a	"NULL"	n/a	"NULL"	"NULL"	"NULL"	"<p style=\"color: black; font-size: 80px; padding-left: 3%; padding-right: 39%; padding-top: 2%; padding-bottom: 2%\">+</p>"	"1398"	n/a	n/a	n/a	n/a	n/a	n/a	n/a	n/a	n/a
n/a	"image-keyboard-response"	"191"	"398309"	"0.0-6.0-2.0-1.3"	"r0sdb2"	"600"	"1366"	"chrome"	"108.0.0"	"FALSE"	"Windows 10"	"60.7"	"141"	n/a	n/a	n/a	n/a	n/a	n/a	"Trial"	n/a	n/a	n/a	"594"	"arrowleft"	n/a	"NULL"	"NULL"	"NULL"	"stimuli/VerticalHorizontal_-28.75714_0.10960.png"	n/a	"VerticalHorizontal"	"arrowleft"	"1409"	"TRUE"	"VerticalHorizontal"	"-28.75714000"	"0.1096000000"	"2"	"4"
n/a	"html-keyboard-response"	"192"	"399716"	"0.0-6.0-2.0-0.4"	"r0sdb2"	"600"	"1366"	"chrome"	"108.0.0"	"FALSE"	"Windows 10"	"60.7"	"141"	n/a	n/a	n/a	n/a	n/a	n/a	"fixation"	n/a	n/a	n/a	n/a	"NULL"	n/a	"NULL"	"NULL"	"NULL"	"<p style=\"color: black; font-size: 80px; padding-left: 37%; padding-right: 11%; padding-top: 37%; padding-bottom: 8%\">+</p>"	"1403"	n/a	n/a	n/a	n/a	n/a	n/a	n/a	n/a	n/a
n/a	"image-keyboard-response"	"193"	"400434"	"0.0-6.0-2.0-1.4"	"r0sdb2"	"600"	"1366"	"chrome"	"108.0.0"	"FALSE"	"Windows 10"	"60.7"	"141"	n/a	n/a	n/a	n/a	n/a	n/a	"Trial"	n/a	n/a	n/a	"716"	"arrowright"	n/a	"NULL"	"NULL"	"NULL"	"stimuli/VerticalHorizontal_-11.78571_-0.0673.png"	n/a	"VerticalHorizontal"	"arrowright"	"1407"	"TRUE"	"VerticalHorizontal"	"-11.78571000"	"-0.067300000"	"2"	"5"
n/a	"html-keyboard-response"	"194"	"401781"	"0.0-6.0-2.0-0.5"	"r0sdb2"	"600"	"1366"	"chrome"	"108.0.0"	"FALSE"	"Windows 10"	"60.7"	"141"	n/a	n/a	n/a	n/a	n/a	n/a	"fixation"	n/a	n/a	n/a	n/a	"NULL"	n/a	"NULL"	"NULL"	"NULL"	"<p style=\"color: black; font-size: 80px; padding-left: 29%; padding-right: 18%; padding-top: 3%; padding-bottom: 36%\">+</p>"	"1331"	n/a	n/a	n/a	n/a	n/a	n/a	n/a	n/a	n/a
n/a	"image-keyboard-response"	"195"	"402509"	"0.0-6.0-2.0-1.5"	"r0sdb2"	"600"	"1366"	"chrome"	"108.0.0"	"FALSE"	"Windows 10"	"60.7"	"141"	n/a	n/a	n/a	n/a	n/a	n/a	"Trial"	n/a	n/a	n/a	"727"	"arrowright"	n/a	"NULL"	"NULL"	"NULL"	"stimuli/VerticalHorizontal_3.30000_-0.16217.png"	n/a	"VerticalHorizontal"	"arrowright"	"1347"	"TRUE"	"VerticalHorizontal"	"3.3000000000"	"-0.162170000"	"2"	"6"
n/a	"html-keyboard-response"	"196"	"403818"	"0.0-6.0-2.0-0.6"	"r0sdb2"	"600"	"1366"	"chrome"	"108.0.0"	"FALSE"	"Windows 10"	"60.7"	"141"	n/a	n/a	n/a	n/a	n/a	n/a	"fixation"	n/a	n/a	n/a	n/a	"NULL"	n/a	"NULL"	"NULL"	"NULL"	"<p style=\"color: black; font-size: 80px; padding-left: 47%; padding-right: 32%; padding-top: 36%; padding-bottom: 7%\">+</p>"	"1288"	n/a	n/a	n/a	n/a	n/a	n/a	n/a	n/a	n/a
n/a	"image-keyboard-response"	"197"	"404661"	"0.0-6.0-2.0-1.6"	"r0sdb2"	"600"	"1366"	"chrome"	"108.0.0"	"FALSE"	"Windows 10"	"60.7"	"141"	n/a	n/a	n/a	n/a	n/a	n/a	"Trial"	n/a	n/a	n/a	"841"	"arrowright"	n/a	"NULL"	"NULL"	"NULL"	"stimuli/VerticalHorizontal_28.75714_0.10960.png"	n/a	"VerticalHorizontal"	"arrowleft"	"1309"	"FALSE"	"VerticalHorizontal"	"28.757140000"	"0.1096000000"	"2"	"7"
n/a	"html-keyboard-response"	"198"	"405981"	"0.0-6.0-2.0-0.7"	"r0sdb2"	"600"	"1366"	"chrome"	"108.0.0"	"FALSE"	"Windows 10"	"60.7"	"141"	n/a	n/a	n/a	n/a	n/a	n/a	"fixation"	n/a	n/a	n/a	n/a	"NULL"	n/a	"NULL"	"NULL"	"NULL"	"<p style=\"color: black; font-size: 80px; padding-left: 38%; padding-right: 33%; padding-top: 39%; padding-bottom: 41%\">+</p>"	"1314"	n/a	n/a	n/a	n/a	n/a	n/a	n/a	n/a	n/a
n/a	"image-keyboard-response"	"199"	"406803"	"0.0-6.0-2.0-1.7"	"r0sdb2"	"600"	"1366"	"chrome"	"108.0.0"	"FALSE"	"Windows 10"	"60.7"	"141"	n/a	n/a	n/a	n/a	n/a	n/a	"Trial"	n/a	n/a	n/a	"821"	"arrowright"	n/a	"NULL"	"NULL"	"NULL"	"stimuli/VerticalHorizontal_11.78571_-0.1096.png"	n/a	"VerticalHorizontal"	"arrowright"	"1320"	"TRUE"	"VerticalHorizontal"	"11.785710000"	"-0.109600000"	"2"	"8"
n/a	"html-keyboard-response"	"200"	"408290"	"0.0-6.0-2.0-0.8"	"r0sdb2"	"600"	"1366"	"chrome"	"108.0.0"	"FALSE"	"Windows 10"	"60.7"	"141"	n/a	n/a	n/a	n/a	n/a	n/a	"fixation"	n/a	n/a	n/a	n/a	"NULL"	n/a	"NULL"	"NULL"	"NULL"	"<p style=\"color: black; font-size: 80px; padding-left: 31%; padding-right: 48%; padding-top: 2%; padding-bottom: 7%\">+</p>"	"1469"	n/a	n/a	n/a	n/a	n/a	n/a	n/a	n/a	n/a
n/a	"image-keyboard-response"	"201"	"409038"	"0.0-6.0-2.0-1.8"	"r0sdb2"	"600"	"1366"	"chrome"	"108.0.0"	"FALSE"	"Windows 10"	"60.7"	"141"	n/a	n/a	n/a	n/a	n/a	n/a	"Trial"	n/a	n/a	n/a	"744"	"arrowleft"	n/a	"NULL"	"NULL"	"NULL"	"stimuli/VerticalHorizontal_3.30000_0.10960.png"	n/a	"VerticalHorizontal"	"arrowleft"	"1487"	"TRUE"	"VerticalHorizontal"	"3.3000000000"	"0.1096000000"	"2"	"9"
n/a	"html-keyboard-response"	"202"	"410092"	"0.0-6.0-2.0-0.9"	"r0sdb2"	"600"	"1366"	"chrome"	"108.0.0"	"FALSE"	"Windows 10"	"60.7"	"141"	n/a	n/a	n/a	n/a	n/a	n/a	"fixation"	n/a	n/a	n/a	n/a	"NULL"	n/a	"NULL"	"NULL"	"NULL"	"<p style=\"color: black; font-size: 80px; padding-left: 44%; padding-right: 6%; padding-top: 37%; padding-bottom: 23%\">+</p>"	"1040"	n/a	n/a	n/a	n/a	n/a	n/a	n/a	n/a	n/a
n/a	"image-keyboard-response"	"203"	"410803"	"0.0-6.0-2.0-1.9"	"r0sdb2"	"600"	"1366"	"chrome"	"108.0.0"	"FALSE"	"Windows 10"	"60.7"	"141"	n/a	n/a	n/a	n/a	n/a	n/a	"Trial"	n/a	n/a	n/a	"709"	"arrowleft"	n/a	"NULL"	"NULL"	"NULL"	"stimuli/VerticalHorizontal_-3.3000_0.06730.png"	n/a	"VerticalHorizontal"	"arrowleft"	"1054"	"TRUE"	"VerticalHorizontal"	"-3.300000000"	"0.0673000000"	"2"	"10"
n/a	"html-keyboard-response"	"204"	"412155"	"0.0-6.0-2.0-0.10"	"r0sdb2"	"600"	"1366"	"chrome"	"108.0.0"	"FALSE"	"Windows 10"	"60.7"	"141"	n/a	n/a	n/a	n/a	n/a	n/a	"fixation"	n/a	n/a	n/a	n/a	"NULL"	n/a	"NULL"	"NULL"	"NULL"	"<p style=\"color: black; font-size: 80px; padding-left: 31%; padding-right: 6%; padding-top: 39%; padding-bottom: 24%\">+</p>"	"1333"	n/a	n/a	n/a	n/a	n/a	n/a	n/a	n/a	n/a
n/a	"image-keyboard-response"	"205"	"412751"	"0.0-6.0-2.0-1.10"	"r0sdb2"	"600"	"1366"	"chrome"	"108.0.0"	"FALSE"	"Windows 10"	"60.7"	"141"	n/a	n/a	n/a	n/a	n/a	n/a	"Trial"	n/a	n/a	n/a	"595"	"arrowright"	n/a	"NULL"	"NULL"	"NULL"	"stimuli/VerticalHorizontal_-3.3000_-0.0673.png"	n/a	"VerticalHorizontal"	"arrowright"	"1352"	"TRUE"	"VerticalHorizontal"	"-3.300000000"	"-0.067300000"	"2"	"11"
n/a	"html-keyboard-response"	"206"	"413966"	"0.0-6.0-2.0-0.11"	"r0sdb2"	"600"	"1366"	"chrome"	"108.0.0"	"FALSE"	"Windows 10"	"60.7"	"141"	n/a	n/a	n/a	n/a	n/a	n/a	"fixation"	n/a	n/a	n/a	n/a	"NULL"	n/a	"NULL"	"NULL"	"NULL"	"<p style=\"color: black; font-size: 80px; padding-left: 18%; padding-right: 41%; padding-top: 35%; padding-bottom: 13%\">+</p>"	"1199"	n/a	n/a	n/a	n/a	n/a	n/a	n/a	n/a	n/a
n/a	"image-keyboard-response"	"207"	"414670"	"0.0-6.0-2.0-1.11"	"r0sdb2"	"600"	"1366"	"chrome"	"108.0.0"	"FALSE"	"Windows 10"	"60.7"	"141"	n/a	n/a	n/a	n/a	n/a	n/a	"Trial"	n/a	n/a	n/a	"703"	"arrowright"	n/a	"NULL"	"NULL"	"NULL"	"stimuli/VerticalHorizontal_-20.27143_-0.0673.png"	n/a	"VerticalHorizontal"	"arrowright"	"1215"	"TRUE"	"VerticalHorizontal"	"-20.27143000"	"-0.067300000"	"2"	"12"
n/a	"html-keyboard-response"	"208"	"416019"	"0.0-6.0-2.0-0.12"	"r0sdb2"	"600"	"1366"	"chrome"	"108.0.0"	"FALSE"	"Windows 10"	"60.7"	"141"	n/a	n/a	n/a	n/a	n/a	n/a	"fixation"	n/a	n/a	n/a	n/a	"NULL"	n/a	"NULL"	"NULL"	"NULL"	"<p style=\"color: black; font-size: 80px; padding-left: 6%; padding-right: 20%; padding-top: 41%; padding-bottom: 31%\">+</p>"	"1334"	n/a	n/a	n/a	n/a	n/a	n/a	n/a	n/a	n/a
n/a	"image-keyboard-response"	"209"	"416645"	"0.0-6.0-2.0-1.12"	"r0sdb2"	"600"	"1366"	"chrome"	"108.0.0"	"FALSE"	"Windows 10"	"60.7"	"141"	n/a	n/a	n/a	n/a	n/a	n/a	"Trial"	n/a	n/a	n/a	"625"	"arrowleft"	n/a	"NULL"	"NULL"	"NULL"	"stimuli/VerticalHorizontal_-11.78571_0.16217.png"	n/a	"VerticalHorizontal"	"arrowleft"	"1349"	"TRUE"	"VerticalHorizontal"	"-11.78571000"	"0.1621700000"	"2"	"13"
n/a	"html-keyboard-response"	"210"	"417839"	"0.0-6.0-2.0-0.13"	"r0sdb2"	"600"	"1366"	"chrome"	"108.0.0"	"FALSE"	"Windows 10"	"60.7"	"141"	n/a	n/a	n/a	n/a	n/a	n/a	"fixation"	n/a	n/a	n/a	n/a	"NULL"	n/a	"NULL"	"NULL"	"NULL"	"<p style=\"color: black; font-size: 80px; padding-left: 1%; padding-right: 1%; padding-top: 37%; padding-bottom: 8%\">+</p>"	"1174"	n/a	n/a	n/a	n/a	n/a	n/a	n/a	n/a	n/a
n/a	"image-keyboard-response"	"211"	"418555"	"0.0-6.0-2.0-1.13"	"r0sdb2"	"600"	"1366"	"chrome"	"108.0.0"	"FALSE"	"Windows 10"	"60.7"	"141"	n/a	n/a	n/a	n/a	n/a	n/a	"Trial"	n/a	n/a	n/a	"715"	"arrowright"	n/a	"NULL"	"NULL"	"NULL"	"stimuli/VerticalHorizontal_11.78571_-0.2250.png"	n/a	"VerticalHorizontal"	"arrowright"	"1194"	"TRUE"	"VerticalHorizontal"	"11.785710000"	"-0.225000000"	"2"	"14"
n/a	"html-keyboard-response"	"212"	"419925"	"0.0-6.0-2.0-0.14"	"r0sdb2"	"600"	"1366"	"chrome"	"108.0.0"	"FALSE"	"Windows 10"	"60.7"	"141"	n/a	n/a	n/a	n/a	n/a	n/a	"fixation"	n/a	n/a	n/a	n/a	"NULL"	n/a	"NULL"	"NULL"	"NULL"	"<p style=\"color: black; font-size: 80px; padding-left: 31%; padding-right: 33%; padding-top: 39%; padding-bottom: 28%\">+</p>"	"1362"	n/a	n/a	n/a	n/a	n/a	n/a	n/a	n/a	n/a
n/a	"image-keyboard-response"	"213"	"420507"	"0.0-6.0-2.0-1.14"	"r0sdb2"	"600"	"1366"	"chrome"	"108.0.0"	"FALSE"	"Windows 10"	"60.7"	"141"	n/a	n/a	n/a	n/a	n/a	n/a	"Trial"	n/a	n/a	n/a	"581"	"arrowright"	n/a	"NULL"	"NULL"	"NULL"	"stimuli/VerticalHorizontal_-20.27143_-0.2250.png"	n/a	"VerticalHorizontal"	"arrowright"	"1370"	"TRUE"	"VerticalHorizontal"	"-20.27143000"	"-0.225000000"	"2"	"15"
n/a	"html-keyboard-response"	"214"	"421755"	"0.0-6.0-2.0-0.15"	"r0sdb2"	"600"	"1366"	"chrome"	"108.0.0"	"FALSE"	"Windows 10"	"60.7"	"141"	n/a	n/a	n/a	n/a	n/a	n/a	"fixation"	n/a	n/a	n/a	n/a	"NULL"	n/a	"NULL"	"NULL"	"NULL"	"<p style=\"color: black; font-size: 80px; padding-left: 45%; padding-right: 40%; padding-top: 40%; padding-bottom: 21%\">+</p>"	"1238"	n/a	n/a	n/a	n/a	n/a	n/a	n/a	n/a	n/a
n/a	"image-keyboard-response"	"215"	"422315"	"0.0-6.0-2.0-1.15"	"r0sdb2"	"600"	"1366"	"chrome"	"108.0.0"	"FALSE"	"Windows 10"	"60.7"	"141"	n/a	n/a	n/a	n/a	n/a	n/a	"Trial"	n/a	n/a	n/a	"559"	"arrowleft"	n/a	"NULL"	"NULL"	"NULL"	"stimuli/VerticalHorizontal_-11.78571_0.22500.png"	n/a	"VerticalHorizontal"	"arrowleft"	"1248"	"TRUE"	"VerticalHorizontal"	"-11.78571000"	"0.2250000000"	"2"	"16"
n/a	"html-keyboard-response"	"216"	"423350"	"0.0-6.0-2.0-0.16"	"r0sdb2"	"600"	"1366"	"chrome"	"108.0.0"	"FALSE"	"Windows 10"	"60.7"	"141"	n/a	n/a	n/a	n/a	n/a	n/a	"fixation"	n/a	n/a	n/a	n/a	"NULL"	n/a	"NULL"	"NULL"	"NULL"	"<p style=\"color: black; font-size: 80px; padding-left: 23%; padding-right: 25%; padding-top: 50%; padding-bottom: 28%\">+</p>"	"1028"	n/a	n/a	n/a	n/a	n/a	n/a	n/a	n/a	n/a
n/a	"image-keyboard-response"	"217"	"424016"	"0.0-6.0-2.0-1.16"	"r0sdb2"	"600"	"1366"	"chrome"	"108.0.0"	"FALSE"	"Windows 10"	"60.7"	"141"	n/a	n/a	n/a	n/a	n/a	n/a	"Trial"	n/a	n/a	n/a	"665"	"arrowleft"	n/a	"NULL"	"NULL"	"NULL"	"stimuli/VerticalHorizontal_28.75714_0.22500.png"	n/a	"VerticalHorizontal"	"arrowleft"	"1035"	"TRUE"	"VerticalHorizontal"	"28.757140000"	"0.2250000000"	"2"	"17"
n/a	"html-keyboard-response"	"218"	"425408"	"0.0-6.0-2.0-0.17"	"r0sdb2"	"600"	"1366"	"chrome"	"108.0.0"	"FALSE"	"Windows 10"	"60.7"	"141"	n/a	n/a	n/a	n/a	n/a	n/a	"fixation"	n/a	n/a	n/a	n/a	"NULL"	n/a	"NULL"	"NULL"	"NULL"	"<p style=\"color: black; font-size: 80px; padding-left: 28%; padding-right: 11%; padding-top: 47%; padding-bottom: 24%\">+</p>"	"1379"	n/a	n/a	n/a	n/a	n/a	n/a	n/a	n/a	n/a
n/a	"image-keyboard-response"	"219"	"425996"	"0.0-6.0-2.0-1.17"	"r0sdb2"	"600"	"1366"	"chrome"	"108.0.0"	"FALSE"	"Windows 10"	"60.7"	"141"	n/a	n/a	n/a	n/a	n/a	n/a	"Trial"	n/a	n/a	n/a	"578"	"arrowleft"	n/a	"NULL"	"NULL"	"NULL"	"stimuli/VerticalHorizontal_-20.27143_0.10960.png"	n/a	"VerticalHorizontal"	"arrowleft"	"1392"	"TRUE"	"VerticalHorizontal"	"-20.27143000"	"0.1096000000"	"2"	"18"
n/a	"html-keyboard-response"	"220"	"427085"	"0.0-6.0-2.0-0.18"	"r0sdb2"	"600"	"1366"	"chrome"	"108.0.0"	"FALSE"	"Windows 10"	"60.7"	"141"	n/a	n/a	n/a	n/a	n/a	n/a	"fixation"	n/a	n/a	n/a	n/a	"NULL"	n/a	"NULL"	"NULL"	"NULL"	"<p style=\"color: black; font-size: 80px; padding-left: 19%; padding-right: 19%; padding-top: 47%; padding-bottom: 39%\">+</p>"	"1070"	n/a	n/a	n/a	n/a	n/a	n/a	n/a	n/a	n/a
n/a	"image-keyboard-response"	"221"	"427653"	"0.0-6.0-2.0-1.18"	"r0sdb2"	"600"	"1366"	"chrome"	"108.0.0"	"FALSE"	"Windows 10"	"60.7"	"141"	n/a	n/a	n/a	n/a	n/a	n/a	"Trial"	n/a	n/a	n/a	"567"	"arrowright"	n/a	"NULL"	"NULL"	"NULL"	"stimuli/VerticalHorizontal_-3.3000_-0.16217.png"	n/a	"VerticalHorizontal"	"arrowright"	"1089"	"TRUE"	"VerticalHorizontal"	"-3.300000000"	"-0.162170000"	"2"	"19"
n/a	"html-keyboard-response"	"222"	"428895"	"0.0-6.0-2.0-0.19"	"r0sdb2"	"600"	"1366"	"chrome"	"108.0.0"	"FALSE"	"Windows 10"	"60.7"	"141"	n/a	n/a	n/a	n/a	n/a	n/a	"fixation"	n/a	n/a	n/a	n/a	"NULL"	n/a	"NULL"	"NULL"	"NULL"	"<p style=\"color: black; font-size: 80px; padding-left: 3%; padding-right: 7%; padding-top: 45%; padding-bottom: 32%\">+</p>"	"1230"	n/a	n/a	n/a	n/a	n/a	n/a	n/a	n/a	n/a
n/a	"image-keyboard-response"	"223"	"429494"	"0.0-6.0-2.0-1.19"	"r0sdb2"	"600"	"1366"	"chrome"	"108.0.0"	"FALSE"	"Windows 10"	"60.7"	"141"	n/a	n/a	n/a	n/a	n/a	n/a	"Trial"	n/a	n/a	n/a	"598"	"arrowleft"	n/a	"NULL"	"NULL"	"NULL"	"stimuli/VerticalHorizontal_11.78571_0.10960.png"	n/a	"VerticalHorizontal"	"arrowleft"	"1242"	"TRUE"	"VerticalHorizontal"	"11.785710000"	"0.1096000000"	"2"	"20"
n/a	"html-keyboard-response"	"224"	"430838"	"0.0-6.0-2.0-0.20"	"r0sdb2"	"600"	"1366"	"chrome"	"108.0.0"	"FALSE"	"Windows 10"	"60.7"	"141"	n/a	n/a	n/a	n/a	n/a	n/a	"fixation"	n/a	n/a	n/a	n/a	"NULL"	n/a	"NULL"	"NULL"	"NULL"	"<p style=\"color: black; font-size: 80px; padding-left: 24%; padding-right: 49%; padding-top: 33%; padding-bottom: 48%\">+</p>"	"1323"	n/a	n/a	n/a	n/a	n/a	n/a	n/a	n/a	n/a
n/a	"image-keyboard-response"	"225"	"431436"	"0.0-6.0-2.0-1.20"	"r0sdb2"	"600"	"1366"	"chrome"	"108.0.0"	"FALSE"	"Windows 10"	"60.7"	"141"	n/a	n/a	n/a	n/a	n/a	n/a	"Trial"	n/a	n/a	n/a	"597"	"arrowright"	n/a	"NULL"	"NULL"	"NULL"	"stimuli/VerticalHorizontal_-3.3000_-0.2250.png"	n/a	"VerticalHorizontal"	"arrowright"	"1344"	"TRUE"	"VerticalHorizontal"	"-3.300000000"	"-0.225000000"	"2"	"21"
n/a	"html-keyboard-response"	"226"	"432737"	"0.0-6.0-2.0-0.21"	"r0sdb2"	"600"	"1366"	"chrome"	"108.0.0"	"FALSE"	"Windows 10"	"60.7"	"141"	n/a	n/a	n/a	n/a	n/a	n/a	"fixation"	n/a	n/a	n/a	n/a	"NULL"	n/a	"NULL"	"NULL"	"NULL"	"<p style=\"color: black; font-size: 80px; padding-left: 31%; padding-right: 4%; padding-top: 22%; padding-bottom: 45%\">+</p>"	"1281"	n/a	n/a	n/a	n/a	n/a	n/a	n/a	n/a	n/a
n/a	"image-keyboard-response"	"227"	"433332"	"0.0-6.0-2.0-1.21"	"r0sdb2"	"600"	"1366"	"chrome"	"108.0.0"	"FALSE"	"Windows 10"	"60.7"	"141"	n/a	n/a	n/a	n/a	n/a	n/a	"Trial"	n/a	n/a	n/a	"594"	"arrowleft"	n/a	"NULL"	"NULL"	"NULL"	"stimuli/VerticalHorizontal_3.30000_-0.0673.png"	n/a	"VerticalHorizontal"	"arrowright"	"1301"	"FALSE"	"VerticalHorizontal"	"3.3000000000"	"-0.067300000"	"2"	"22"
n/a	"html-keyboard-response"	"228"	"434504"	"0.0-6.0-2.0-0.22"	"r0sdb2"	"600"	"1366"	"chrome"	"108.0.0"	"FALSE"	"Windows 10"	"60.7"	"141"	n/a	n/a	n/a	n/a	n/a	n/a	"fixation"	n/a	n/a	n/a	n/a	"NULL"	n/a	"NULL"	"NULL"	"NULL"	"<p style=\"color: black; font-size: 80px; padding-left: 43%; padding-right: 49%; padding-top: 9%; padding-bottom: 38%\">+</p>"	"1153"	n/a	n/a	n/a	n/a	n/a	n/a	n/a	n/a	n/a
n/a	"image-keyboard-response"	"229"	"435175"	"0.0-6.0-2.0-1.22"	"r0sdb2"	"600"	"1366"	"chrome"	"108.0.0"	"FALSE"	"Windows 10"	"60.7"	"141"	n/a	n/a	n/a	n/a	n/a	n/a	"Trial"	n/a	n/a	n/a	"670"	"arrowleft"	n/a	"NULL"	"NULL"	"NULL"	"stimuli/VerticalHorizontal_11.78571_-0.16217.png"	n/a	"VerticalHorizontal"	"arrowright"	"1172"	"FALSE"	"VerticalHorizontal"	"11.785710000"	"-0.162170000"	"2"	"23"
n/a	"html-keyboard-response"	"230"	"436199"	"0.0-6.0-2.0-0.23"	"r0sdb2"	"600"	"1366"	"chrome"	"108.0.0"	"FALSE"	"Windows 10"	"60.7"	"141"	n/a	n/a	n/a	n/a	n/a	n/a	"fixation"	n/a	n/a	n/a	n/a	"NULL"	n/a	"NULL"	"NULL"	"NULL"	"<p style=\"color: black; font-size: 80px; padding-left: 25%; padding-right: 9%; padding-top: 48%; padding-bottom: 8%\">+</p>"	"1013"	n/a	n/a	n/a	n/a	n/a	n/a	n/a	n/a	n/a
n/a	"image-keyboard-response"	"231"	"436968"	"0.0-6.0-2.0-1.23"	"r0sdb2"	"600"	"1366"	"chrome"	"108.0.0"	"FALSE"	"Windows 10"	"60.7"	"141"	n/a	n/a	n/a	n/a	n/a	n/a	"Trial"	n/a	n/a	n/a	"768"	"arrowleft"	n/a	"NULL"	"NULL"	"NULL"	"stimuli/VerticalHorizontal_11.78571_0.06730.png"	n/a	"VerticalHorizontal"	"arrowleft"	"1024"	"TRUE"	"VerticalHorizontal"	"11.785710000"	"0.0673000000"	"2"	"24"
n/a	"html-keyboard-response"	"232"	"438317"	"0.0-6.0-2.0-0.24"	"r0sdb2"	"600"	"1366"	"chrome"	"108.0.0"	"FALSE"	"Windows 10"	"60.7"	"141"	n/a	n/a	n/a	n/a	n/a	n/a	"fixation"	n/a	n/a	n/a	n/a	"NULL"	n/a	"NULL"	"NULL"	"NULL"	"<p style=\"color: black; font-size: 80px; padding-left: 18%; padding-right: 14%; padding-top: 48%; padding-bottom: 35%\">+</p>"	"1337"	n/a	n/a	n/a	n/a	n/a	n/a	n/a	n/a	n/a
n/a	"image-keyboard-response"	"233"	"439041"	"0.0-6.0-2.0-1.24"	"r0sdb2"	"600"	"1366"	"chrome"	"108.0.0"	"FALSE"	"Windows 10"	"60.7"	"141"	n/a	n/a	n/a	n/a	n/a	n/a	"Trial"	n/a	n/a	n/a	"722"	"arrowright"	n/a	"NULL"	"NULL"	"NULL"	"stimuli/VerticalHorizontal_-11.78571_-0.1096.png"	n/a	"VerticalHorizontal"	"arrowright"	"1349"	"TRUE"	"VerticalHorizontal"	"-11.78571000"	"-0.109600000"	"2"	"25"
n/a	"html-keyboard-response"	"234"	"440458"	"0.0-6.0-2.0-0.25"	"r0sdb2"	"600"	"1366"	"chrome"	"108.0.0"	"FALSE"	"Windows 10"	"60.7"	"141"	n/a	n/a	n/a	n/a	n/a	n/a	"fixation"	n/a	n/a	n/a	n/a	"NULL"	n/a	"NULL"	"NULL"	"NULL"	"<p style=\"color: black; font-size: 80px; padding-left: 30%; padding-right: 11%; padding-top: 3%; padding-bottom: 37%\">+</p>"	"1393"	n/a	n/a	n/a	n/a	n/a	n/a	n/a	n/a	n/a
n/a	"image-keyboard-response"	"235"	"441052"	"0.0-6.0-2.0-1.25"	"r0sdb2"	"600"	"1366"	"chrome"	"108.0.0"	"FALSE"	"Windows 10"	"60.7"	"141"	n/a	n/a	n/a	n/a	n/a	n/a	"Trial"	n/a	n/a	n/a	"591"	"arrowleft"	n/a	"NULL"	"NULL"	"NULL"	"stimuli/VerticalHorizontal_-28.75714_0.16217.png"	n/a	"VerticalHorizontal"	"arrowleft"	"1417"	"TRUE"	"VerticalHorizontal"	"-28.75714000"	"0.1621700000"	"2"	"26"
n/a	"html-keyboard-response"	"236"	"442238"	"0.0-6.0-2.0-0.26"	"r0sdb2"	"600"	"1366"	"chrome"	"108.0.0"	"FALSE"	"Windows 10"	"60.7"	"141"	n/a	n/a	n/a	n/a	n/a	n/a	"fixation"	n/a	n/a	n/a	n/a	"NULL"	n/a	"NULL"	"NULL"	"NULL"	"<p style=\"color: black; font-size: 80px; padding-left: 28%; padding-right: 5%; padding-top: 7%; padding-bottom: 9%\">+</p>"	"1169"	n/a	n/a	n/a	n/a	n/a	n/a	n/a	n/a	n/a
n/a	"image-keyboard-response"	"237"	"442793"	"0.0-6.0-2.0-1.26"	"r0sdb2"	"600"	"1366"	"chrome"	"108.0.0"	"FALSE"	"Windows 10"	"60.7"	"141"	n/a	n/a	n/a	n/a	n/a	n/a	"Trial"	n/a	n/a	n/a	"554"	"arrowright"	n/a	"NULL"	"NULL"	"NULL"	"stimuli/VerticalHorizontal_-20.27143_-0.16217.png"	n/a	"VerticalHorizontal"	"arrowright"	"1186"	"TRUE"	"VerticalHorizontal"	"-20.27143000"	"-0.162170000"	"2"	"27"
n/a	"html-keyboard-response"	"238"	"443865"	"0.0-6.0-2.0-0.27"	"r0sdb2"	"600"	"1366"	"chrome"	"108.0.0"	"FALSE"	"Windows 10"	"60.7"	"141"	n/a	n/a	n/a	n/a	n/a	n/a	"fixation"	n/a	n/a	n/a	n/a	"NULL"	n/a	"NULL"	"NULL"	"NULL"	"<p style=\"color: black; font-size: 80px; padding-left: 5%; padding-right: 10%; padding-top: 48%; padding-bottom: 34%\">+</p>"	"1056"	n/a	n/a	n/a	n/a	n/a	n/a	n/a	n/a	n/a
n/a	"image-keyboard-response"	"239"	"444393"	"0.0-6.0-2.0-1.27"	"r0sdb2"	"600"	"1366"	"chrome"	"108.0.0"	"FALSE"	"Windows 10"	"60.7"	"141"	n/a	n/a	n/a	n/a	n/a	n/a	"Trial"	n/a	n/a	n/a	"527"	"arrowleft"	n/a	"NULL"	"NULL"	"NULL"	"stimuli/VerticalHorizontal_-28.75714_0.22500.png"	n/a	"VerticalHorizontal"	"arrowleft"	"1072"	"TRUE"	"VerticalHorizontal"	"-28.75714000"	"0.2250000000"	"2"	"28"
n/a	"html-keyboard-response"	"240"	"445662"	"0.0-6.0-2.0-0.28"	"r0sdb2"	"600"	"1366"	"chrome"	"108.0.0"	"FALSE"	"Windows 10"	"60.7"	"141"	n/a	n/a	n/a	n/a	n/a	n/a	"fixation"	n/a	n/a	n/a	n/a	"NULL"	n/a	"NULL"	"NULL"	"NULL"	"<p style=\"color: black; font-size: 80px; padding-left: 10%; padding-right: 1%; padding-top: 38%; padding-bottom: 15%\">+</p>"	"1257"	n/a	n/a	n/a	n/a	n/a	n/a	n/a	n/a	n/a
n/a	"image-keyboard-response"	"241"	"446142"	"0.0-6.0-2.0-1.28"	"r0sdb2"	"600"	"1366"	"chrome"	"108.0.0"	"FALSE"	"Windows 10"	"60.7"	"141"	n/a	n/a	n/a	n/a	n/a	n/a	"Trial"	n/a	n/a	n/a	"479"	"arrowleft"	n/a	"NULL"	"NULL"	"NULL"	"stimuli/VerticalHorizontal_-28.75714_0.06730.png"	n/a	"VerticalHorizontal"	"arrowleft"	"1269"	"TRUE"	"VerticalHorizontal"	"-28.75714000"	"0.0673000000"	"2"	"29"
n/a	"html-keyboard-response"	"242"	"447514"	"0.0-6.0-2.0-0.29"	"r0sdb2"	"600"	"1366"	"chrome"	"108.0.0"	"FALSE"	"Windows 10"	"60.7"	"141"	n/a	n/a	n/a	n/a	n/a	n/a	"fixation"	n/a	n/a	n/a	n/a	"NULL"	n/a	"NULL"	"NULL"	"NULL"	"<p style=\"color: black; font-size: 80px; padding-left: 21%; padding-right: 7%; padding-top: 9%; padding-bottom: 29%\">+</p>"	"1353"	n/a	n/a	n/a	n/a	n/a	n/a	n/a	n/a	n/a
n/a	"image-keyboard-response"	"243"	"448231"	"0.0-6.0-2.0-1.29"	"r0sdb2"	"600"	"1366"	"chrome"	"108.0.0"	"FALSE"	"Windows 10"	"60.7"	"141"	n/a	n/a	n/a	n/a	n/a	n/a	"Trial"	n/a	n/a	n/a	"715"	"arrowright"	n/a	"NULL"	"NULL"	"NULL"	"stimuli/VerticalHorizontal_11.78571_-0.0673.png"	n/a	"VerticalHorizontal"	"arrowright"	"1372"	"TRUE"	"VerticalHorizontal"	"11.785710000"	"-0.067300000"	"2"	"30"
n/a	"html-keyboard-response"	"244"	"449517"	"0.0-6.0-2.0-0.30"	"r0sdb2"	"600"	"1366"	"chrome"	"108.0.0"	"FALSE"	"Windows 10"	"60.7"	"141"	n/a	n/a	n/a	n/a	n/a	n/a	"fixation"	n/a	n/a	n/a	n/a	"NULL"	n/a	"NULL"	"NULL"	"NULL"	"<p style=\"color: black; font-size: 80px; padding-left: 3%; padding-right: 24%; padding-top: 10%; padding-bottom: 24%\">+</p>"	"1282"	n/a	n/a	n/a	n/a	n/a	n/a	n/a	n/a	n/a
n/a	"image-keyboard-response"	"245"	"450100"	"0.0-6.0-2.0-1.30"	"r0sdb2"	"600"	"1366"	"chrome"	"108.0.0"	"FALSE"	"Windows 10"	"60.7"	"141"	n/a	n/a	n/a	n/a	n/a	n/a	"Trial"	n/a	n/a	n/a	"581"	"arrowleft"	n/a	"NULL"	"NULL"	"NULL"	"stimuli/VerticalHorizontal_-3.3000_0.22500.png"	n/a	"VerticalHorizontal"	"arrowleft"	"1286"	"TRUE"	"VerticalHorizontal"	"-3.300000000"	"0.2250000000"	"2"	"31"
n/a	"html-keyboard-response"	"246"	"451563"	"0.0-6.0-2.0-0.31"	"r0sdb2"	"600"	"1366"	"chrome"	"108.0.0"	"FALSE"	"Windows 10"	"60.7"	"141"	n/a	n/a	n/a	n/a	n/a	n/a	"fixation"	n/a	n/a	n/a	n/a	"NULL"	n/a	"NULL"	"NULL"	"NULL"	"<p style=\"color: black; font-size: 80px; padding-left: 24%; padding-right: 22%; padding-top: 46%; padding-bottom: 18%\">+</p>"	"1446"	n/a	n/a	n/a	n/a	n/a	n/a	n/a	n/a	n/a
n/a	"image-keyboard-response"	"247"	"452755"	"0.0-6.0-2.0-1.31"	"r0sdb2"	"600"	"1366"	"chrome"	"108.0.0"	"FALSE"	"Windows 10"	"60.7"	"141"	n/a	n/a	n/a	n/a	n/a	n/a	"Trial"	n/a	n/a	n/a	"1191"	"arrowright"	n/a	"NULL"	"NULL"	"NULL"	"stimuli/VerticalHorizontal_20.27143_0.06730.png"	n/a	"VerticalHorizontal"	"arrowleft"	"1463"	"FALSE"	"VerticalHorizontal"	"20.271430000"	"0.0673000000"	"2"	"32"
n/a	"html-keyboard-response"	"248"	"453832"	"0.0-6.0-2.0-0.32"	"r0sdb2"	"600"	"1366"	"chrome"	"108.0.0"	"FALSE"	"Windows 10"	"60.7"	"141"	n/a	n/a	n/a	n/a	n/a	n/a	"fixation"	n/a	n/a	n/a	n/a	"NULL"	n/a	"NULL"	"NULL"	"NULL"	"<p style=\"color: black; font-size: 80px; padding-left: 36%; padding-right: 4%; padding-top: 47%; padding-bottom: 36%\">+</p>"	"1059"	n/a	n/a	n/a	n/a	n/a	n/a	n/a	n/a	n/a
n/a	"image-keyboard-response"	"249"	"454492"	"0.0-6.0-2.0-1.32"	"r0sdb2"	"600"	"1366"	"chrome"	"108.0.0"	"FALSE"	"Windows 10"	"60.7"	"141"	n/a	n/a	n/a	n/a	n/a	n/a	"Trial"	n/a	n/a	n/a	"660"	"arrowright"	n/a	"NULL"	"NULL"	"NULL"	"stimuli/VerticalHorizontal_-28.75714_-0.2250.png"	n/a	"VerticalHorizontal"	"arrowright"	"1077"	"TRUE"	"VerticalHorizontal"	"-28.75714000"	"-0.225000000"	"2"	"33"
n/a	"html-keyboard-response"	"250"	"455512"	"0.0-6.0-2.0-0.33"	"r0sdb2"	"600"	"1366"	"chrome"	"108.0.0"	"FALSE"	"Windows 10"	"60.7"	"141"	n/a	n/a	n/a	n/a	n/a	n/a	"fixation"	n/a	n/a	n/a	n/a	"NULL"	n/a	"NULL"	"NULL"	"NULL"	"<p style=\"color: black; font-size: 80px; padding-left: 39%; padding-right: 26%; padding-top: 32%; padding-bottom: 40%\">+</p>"	"1001"	n/a	n/a	n/a	n/a	n/a	n/a	n/a	n/a	n/a
n/a	"image-keyboard-response"	"251"	"456352"	"0.0-6.0-2.0-1.33"	"r0sdb2"	"600"	"1366"	"chrome"	"108.0.0"	"FALSE"	"Windows 10"	"60.7"	"141"	n/a	n/a	n/a	n/a	n/a	n/a	"Trial"	n/a	n/a	n/a	"838"	"arrowright"	n/a	"NULL"	"NULL"	"NULL"	"stimuli/VerticalHorizontal_20.27143_-0.16217.png"	n/a	"VerticalHorizontal"	"arrowright"	"1020"	"TRUE"	"VerticalHorizontal"	"20.271430000"	"-0.162170000"	"2"	"34"
