"success"	"trial_type"	"trial_index"	"time_elapsed"	"internal_node_id"	"participant_id"	"screen_height"	"screen_width"	"browser"	"browser_version"	"mobile"	"os"	"vsync_rate"	"subject_id"	"width"	"height"	"webaudio"	"fullscreen"	"webcam"	"microphone"	"screen"	"version"	"date"	"time"	"rt"	"response"	"timeout"	"failed_images"	"failed_audio"	"failed_video"	"stimulus"	"trial_duration"	"block"	"correct_response"	"prestimulus_duration"	"correct"	"type"	"illusion_strength"	"illusion_difference"	"block_number"	"trial_number"
"TRUE"	"fullscreen"	"0"	"1166"	"0.0-0.0"	"9mjruj"	"600"	"1024"	"chrome"	"109.0.0"	"FALSE"	"Windows 10"	"60.02"	"010"	n/a	n/a	n/a	n/a	n/a	n/a	n/a	n/a	n/a	n/a	n/a	"NULL"	n/a	"NULL"	"NULL"	"NULL"	n/a	n/a	n/a	n/a	n/a	n/a	n/a	n/a	n/a	n/a	n/a
n/a	"browser-check"	"1"	"2181"	"0.0-1.0"	"9mjruj"	"600"	"1024"	"chrome"	"109.0.0"	"FALSE"	"Windows 10"	"60.02"	"010"	"1024"	"600"	"TRUE"	"TRUE"	"TRUE"	"TRUE"	"browser_info"	"1.0"	"31/01/2023"	"18:06:27"	n/a	"NULL"	n/a	"NULL"	"NULL"	"NULL"	n/a	n/a	n/a	n/a	n/a	n/a	n/a	n/a	n/a	n/a	n/a
n/a	"survey-text"	"2"	"3555"	"0.0-2.0"	"9mjruj"	"600"	"1024"	"chrome"	"109.0.0"	"FALSE"	"Windows 10"	"60.02"	"010"	n/a	n/a	n/a	n/a	n/a	n/a	"subject_id"	n/a	n/a	n/a	"1363"	"list(subject_id = \"010\")"	n/a	"NULL"	"NULL"	"NULL"	n/a	n/a	n/a	n/a	n/a	n/a	n/a	n/a	n/a	n/a	n/a
"TRUE"	"preload"	"3"	"3566"	"0.0-3.0"	"9mjruj"	"600"	"1024"	"chrome"	"109.0.0"	"FALSE"	"Windows 10"	"60.02"	"010"	n/a	n/a	n/a	n/a	n/a	n/a	n/a	n/a	n/a	n/a	n/a	"NULL"	"FALSE"	"list()"	"list()"	"list()"	n/a	n/a	n/a	n/a	n/a	n/a	n/a	n/a	n/a	n/a	n/a
n/a	"html-button-response"	"4"	"76268"	"0.0-4.0-0.0"	"9mjruj"	"600"	"1024"	"chrome"	"109.0.0"	"FALSE"	"Windows 10"	"60.02"	"010"	n/a	n/a	n/a	n/a	n/a	n/a	"illusion_instructions"	n/a	n/a	n/a	"72701"	"0"	n/a	"NULL"	"NULL"	"NULL"	"<p><b>Illusion Game</b></p><p>In this game of speed and reflex, you will need to make <b>visual judgments</b> (for instance, which circle is the biggest, or which line is the longest), as fast and as correctly as possible, while <b>resisting different visual illusions</b>.</p><p>We are going to start with some examples of all the illusions you will encounter in the game.</p>"	n/a	n/a	n/a	n/a	n/a	n/a	n/a	n/a	n/a	n/a
"TRUE"	"preload"	"5"	"76293"	"0.0-4.0-1.0-0.0"	"9mjruj"	"600"	"1024"	"chrome"	"109.0.0"	"FALSE"	"Windows 10"	"60.02"	"010"	n/a	n/a	n/a	n/a	n/a	n/a	n/a	n/a	n/a	n/a	n/a	"NULL"	"FALSE"	"list()"	"list()"	"list()"	n/a	n/a	n/a	n/a	n/a	n/a	n/a	n/a	n/a	n/a	n/a
n/a	"html-keyboard-response"	"6"	"100412"	"0.0-4.0-1.0-1.0"	"9mjruj"	"600"	"1024"	"chrome"	"109.0.0"	"FALSE"	"Windows 10"	"60.02"	"010"	n/a	n/a	n/a	n/a	n/a	n/a	n/a	n/a	n/a	n/a	"24116"	"enter"	n/a	"NULL"	"NULL"	"NULL"	"<p><b>Practice</b></p><p>In this part, two red circles will appear side by side on the screen.</p><p>Your task is to select which <b>red circle is bigger</b> in size as fast as you can, without making errors.</p><p>Don't get distracted by the surrounding black circles around the red circles!</p><p>Press <b>the LEFT or the RIGHT arrow</b> to indicate which is the bigger <b>red circle.</b></p><div style='float: center'><img src='materials/instructions/Ebbinghaus_Demo.png' height='300'></img><p><img src='utils/answer/answer_leftright_keyboard.PNG' height='150'></img></p><p class='small'>In this example, the correct answer is the <b>LEFT arrow</b>.</p></div><p>Are you ready? <b>Press ENTER to start</b></p>"	n/a	n/a	n/a	n/a	n/a	n/a	n/a	n/a	n/a	n/a
n/a	"html-keyboard-response"	"7"	"102050"	"0.0-4.0-1.0-2.0-0.0"	"9mjruj"	"600"	"1024"	"chrome"	"109.0.0"	"FALSE"	"Windows 10"	"60.02"	"010"	n/a	n/a	n/a	n/a	n/a	n/a	"fixation"	n/a	n/a	n/a	n/a	"NULL"	n/a	"NULL"	"NULL"	"NULL"	"<p style=\"color: black; font-size: 80px; padding-left: 8%; padding-right: 46%; padding-top: 17%; padding-bottom: 49%\">+</p>"	"1125"	n/a	n/a	n/a	n/a	n/a	n/a	n/a	n/a	n/a
n/a	"image-keyboard-response"	"8"	"103151"	"0.0-4.0-1.0-2.0-1.0"	"9mjruj"	"600"	"1024"	"chrome"	"109.0.0"	"FALSE"	"Windows 10"	"60.02"	"010"	n/a	n/a	n/a	n/a	n/a	n/a	"Trial"	n/a	n/a	n/a	"1076"	"arrowleft"	n/a	"NULL"	"NULL"	"NULL"	"stimuli/Ebbinghaus_1000000_1.40000.png"	n/a	"Ebbinghaus"	"arrowleft"	"1638"	"TRUE"	"Ebbinghaus"	"100000000000"	"1.4000000000"	"1"	"1"
n/a	"html-keyboard-response"	"9"	"104314"	"0.0-4.0-1.0-2.0-0.1"	"9mjruj"	"600"	"1024"	"chrome"	"109.0.0"	"FALSE"	"Windows 10"	"60.02"	"010"	n/a	n/a	n/a	n/a	n/a	n/a	"fixation"	n/a	n/a	n/a	n/a	"NULL"	n/a	"NULL"	"NULL"	"NULL"	"<p style=\"color: black; font-size: 80px; padding-left: 23%; padding-right: 16%; padding-top: 41%; padding-bottom: 35%\">+</p>"	"1145"	n/a	n/a	n/a	n/a	n/a	n/a	n/a	n/a	n/a
n/a	"image-keyboard-response"	"10"	"105146"	"0.0-4.0-1.0-2.0-1.1"	"9mjruj"	"600"	"1024"	"chrome"	"109.0.0"	"FALSE"	"Windows 10"	"60.02"	"010"	n/a	n/a	n/a	n/a	n/a	n/a	"Trial"	n/a	n/a	n/a	"830"	"arrowright"	n/a	"NULL"	"NULL"	"NULL"	"stimuli/Ebbinghaus_0000000_-1.4000.png"	n/a	"Ebbinghaus"	"arrowright"	"1163"	"TRUE"	"Ebbinghaus"	"000000000000"	"-1.400000000"	"1"	"2"
n/a	"html-keyboard-response"	"11"	"106564"	"0.0-4.0-1.0-2.0-0.2"	"9mjruj"	"600"	"1024"	"chrome"	"109.0.0"	"FALSE"	"Windows 10"	"60.02"	"010"	n/a	n/a	n/a	n/a	n/a	n/a	"fixation"	n/a	n/a	n/a	n/a	"NULL"	n/a	"NULL"	"NULL"	"NULL"	"<p style=\"color: black; font-size: 80px; padding-left: 37%; padding-right: 22%; padding-top: 33%; padding-bottom: 23%\">+</p>"	"1407"	n/a	n/a	n/a	n/a	n/a	n/a	n/a	n/a	n/a
n/a	"image-keyboard-response"	"12"	"107402"	"0.0-4.0-1.0-2.0-1.2"	"9mjruj"	"600"	"1024"	"chrome"	"109.0.0"	"FALSE"	"Windows 10"	"60.02"	"010"	n/a	n/a	n/a	n/a	n/a	n/a	"Trial"	n/a	n/a	n/a	"837"	"arrowleft"	n/a	"NULL"	"NULL"	"NULL"	"stimuli/Ebbinghaus_-100000_1.40000.png"	n/a	"Ebbinghaus"	"arrowleft"	"1418"	"TRUE"	"Ebbinghaus"	"-10000000000"	"1.4000000000"	"1"	"3"
n/a	"html-keyboard-response"	"13"	"108782"	"0.0-4.0-1.0-2.0-0.3"	"9mjruj"	"600"	"1024"	"chrome"	"109.0.0"	"FALSE"	"Windows 10"	"60.02"	"010"	n/a	n/a	n/a	n/a	n/a	n/a	"fixation"	n/a	n/a	n/a	n/a	"NULL"	n/a	"NULL"	"NULL"	"NULL"	"<p style=\"color: black; font-size: 80px; padding-left: 44%; padding-right: 16%; padding-top: 4%; padding-bottom: 28%\">+</p>"	"1362"	n/a	n/a	n/a	n/a	n/a	n/a	n/a	n/a	n/a
n/a	"image-keyboard-response"	"14"	"109833"	"0.0-4.0-1.0-2.0-1.3"	"9mjruj"	"600"	"1024"	"chrome"	"109.0.0"	"FALSE"	"Windows 10"	"60.02"	"010"	n/a	n/a	n/a	n/a	n/a	n/a	"Trial"	n/a	n/a	n/a	"1050"	"arrowleft"	n/a	"NULL"	"NULL"	"NULL"	"stimuli/Ebbinghaus_0000000_1.40000.png"	n/a	"Ebbinghaus"	"arrowleft"	"1380"	"TRUE"	"Ebbinghaus"	"000000000000"	"1.4000000000"	"1"	"4"
n/a	"html-keyboard-response"	"15"	"111204"	"0.0-4.0-1.0-2.0-0.4"	"9mjruj"	"600"	"1024"	"chrome"	"109.0.0"	"FALSE"	"Windows 10"	"60.02"	"010"	n/a	n/a	n/a	n/a	n/a	n/a	"fixation"	n/a	n/a	n/a	n/a	"NULL"	n/a	"NULL"	"NULL"	"NULL"	"<p style=\"color: black; font-size: 80px; padding-left: 17%; padding-right: 21%; padding-top: 38%; padding-bottom: 14%\">+</p>"	"1360"	n/a	n/a	n/a	n/a	n/a	n/a	n/a	n/a	n/a
n/a	"image-keyboard-response"	"16"	"112024"	"0.0-4.0-1.0-2.0-1.4"	"9mjruj"	"600"	"1024"	"chrome"	"109.0.0"	"FALSE"	"Windows 10"	"60.02"	"010"	n/a	n/a	n/a	n/a	n/a	n/a	"Trial"	n/a	n/a	n/a	"818"	"arrowright"	n/a	"NULL"	"NULL"	"NULL"	"stimuli/Ebbinghaus_1000000_-1.4000.png"	n/a	"Ebbinghaus"	"arrowright"	"1371"	"TRUE"	"Ebbinghaus"	"100000000000"	"-1.400000000"	"1"	"5"
n/a	"html-keyboard-response"	"17"	"113353"	"0.0-4.0-1.0-2.0-0.5"	"9mjruj"	"600"	"1024"	"chrome"	"109.0.0"	"FALSE"	"Windows 10"	"60.02"	"010"	n/a	n/a	n/a	n/a	n/a	n/a	"fixation"	n/a	n/a	n/a	n/a	"NULL"	n/a	"NULL"	"NULL"	"NULL"	"<p style=\"color: black; font-size: 80px; padding-left: 3%; padding-right: 24%; padding-top: 1%; padding-bottom: 22%\">+</p>"	"1316"	n/a	n/a	n/a	n/a	n/a	n/a	n/a	n/a	n/a
n/a	"image-keyboard-response"	"18"	"114031"	"0.0-4.0-1.0-2.0-1.5"	"9mjruj"	"600"	"1024"	"chrome"	"109.0.0"	"FALSE"	"Windows 10"	"60.02"	"010"	n/a	n/a	n/a	n/a	n/a	n/a	"Trial"	n/a	n/a	n/a	"677"	"arrowright"	n/a	"NULL"	"NULL"	"NULL"	"stimuli/Ebbinghaus_-100000_-1.4000.png"	n/a	"Ebbinghaus"	"arrowright"	"1329"	"TRUE"	"Ebbinghaus"	"-10000000000"	"-1.400000000"	"1"	"6"
n/a	"html-button-response"	"19"	"120755"	"0.0-4.0-1.0-3.0"	"9mjruj"	"600"	"1024"	"chrome"	"109.0.0"	"FALSE"	"Windows 10"	"60.02"	"010"	n/a	n/a	n/a	n/a	n/a	n/a	"practice_block_results"	n/a	n/a	n/a	"6720"	"0"	n/a	"NULL"	"NULL"	"NULL"	"<p style='color:rgb(76,175,80);'> Correct Responses: <b>100.00%</b></p><hr><p style='color:rgb(233,30,99);'> Average Response Time: <b>881.33</b> ms.</p>"	n/a	n/a	n/a	n/a	n/a	n/a	n/a	n/a	n/a	n/a
"TRUE"	"preload"	"20"	"121292"	"0.0-4.0-2.0-0.0"	"9mjruj"	"600"	"1024"	"chrome"	"109.0.0"	"FALSE"	"Windows 10"	"60.02"	"010"	n/a	n/a	n/a	n/a	n/a	n/a	n/a	n/a	n/a	n/a	n/a	"NULL"	"FALSE"	"list()"	"list()"	"list()"	n/a	n/a	n/a	n/a	n/a	n/a	n/a	n/a	n/a	n/a	n/a
n/a	"html-keyboard-response"	"21"	"128672"	"0.0-4.0-2.0-1.0"	"9mjruj"	"600"	"1024"	"chrome"	"109.0.0"	"FALSE"	"Windows 10"	"60.02"	"010"	n/a	n/a	n/a	n/a	n/a	n/a	n/a	n/a	n/a	n/a	"7380"	"enter"	n/a	"NULL"	"NULL"	"NULL"	"<p><b>Practice</b></p><p>In this part, two horizontal red lines will appear one above the other.</p><p>Your task is to select which <b>line is longer</b> in length as fast as you can, without making errors.</p><p>Don't get distracted by the surrounding black arrows at the end of the red lines!</p><p>Press <b>the UP or the DOWN arrow</b> to indicate where is the longer <b>red line.</b></p><div style='float: center'><img src='materials/instructions/MullerLyer_Demo.png' height='300'></img><p><img src='utils/answer/answer_updown_keyboard.PNG' height='150'></img></p><p class='small'>In this example, the correct answer is the <b>UP arrow</b>.</p></div><p>Are you ready? <b>Press ENTER to start</b></p>"	n/a	n/a	n/a	n/a	n/a	n/a	n/a	n/a	n/a	n/a
n/a	"html-keyboard-response"	"22"	"130410"	"0.0-4.0-2.0-2.0-0.0"	"9mjruj"	"600"	"1024"	"chrome"	"109.0.0"	"FALSE"	"Windows 10"	"60.02"	"010"	n/a	n/a	n/a	n/a	n/a	n/a	"fixation"	n/a	n/a	n/a	n/a	"NULL"	n/a	"NULL"	"NULL"	"NULL"	"<p style=\"color: black; font-size: 80px; padding-left: 9%; padding-right: 10%; padding-top: 17%; padding-bottom: 16%\">+</p>"	"1219"	n/a	n/a	n/a	n/a	n/a	n/a	n/a	n/a	n/a
n/a	"image-keyboard-response"	"23"	"131212"	"0.0-4.0-2.0-2.0-1.0"	"9mjruj"	"600"	"1024"	"chrome"	"109.0.0"	"FALSE"	"Windows 10"	"60.02"	"010"	n/a	n/a	n/a	n/a	n/a	n/a	"Trial"	n/a	n/a	n/a	"800"	"arrowdown"	n/a	"NULL"	"NULL"	"NULL"	"stimuli/MullerLyer_0000000_-0.7000.png"	n/a	"MullerLyer"	"arrowdown"	"1738"	"TRUE"	"MullerLyer"	"000000000000"	"-0.700000000"	"1"	"7"
n/a	"html-keyboard-response"	"24"	"132301"	"0.0-4.0-2.0-2.0-0.1"	"9mjruj"	"600"	"1024"	"chrome"	"109.0.0"	"FALSE"	"Windows 10"	"60.02"	"010"	n/a	n/a	n/a	n/a	n/a	n/a	"fixation"	n/a	n/a	n/a	n/a	"NULL"	n/a	"NULL"	"NULL"	"NULL"	"<p style=\"color: black; font-size: 80px; padding-left: 32%; padding-right: 26%; padding-top: 21%; padding-bottom: 40%\">+</p>"	"1075"	n/a	n/a	n/a	n/a	n/a	n/a	n/a	n/a	n/a
n/a	"image-keyboard-response"	"25"	"132870"	"0.0-4.0-2.0-2.0-1.1"	"9mjruj"	"600"	"1024"	"chrome"	"109.0.0"	"FALSE"	"Windows 10"	"60.02"	"010"	n/a	n/a	n/a	n/a	n/a	n/a	"Trial"	n/a	n/a	n/a	"567"	"arrowdown"	n/a	"NULL"	"NULL"	"NULL"	"stimuli/MullerLyer_-230000_-0.7000.png"	n/a	"MullerLyer"	"arrowdown"	"1089"	"TRUE"	"MullerLyer"	"-23000000000"	"-0.700000000"	"1"	"8"
n/a	"html-keyboard-response"	"26"	"134267"	"0.0-4.0-2.0-2.0-0.2"	"9mjruj"	"600"	"1024"	"chrome"	"109.0.0"	"FALSE"	"Windows 10"	"60.02"	"010"	n/a	n/a	n/a	n/a	n/a	n/a	"fixation"	n/a	n/a	n/a	n/a	"NULL"	n/a	"NULL"	"NULL"	"NULL"	"<p style=\"color: black; font-size: 80px; padding-left: 3%; padding-right: 31%; padding-top: 49%; padding-bottom: 46%\">+</p>"	"1377"	n/a	n/a	n/a	n/a	n/a	n/a	n/a	n/a	n/a
n/a	"image-keyboard-response"	"27"	"134956"	"0.0-4.0-2.0-2.0-1.2"	"9mjruj"	"600"	"1024"	"chrome"	"109.0.0"	"FALSE"	"Windows 10"	"60.02"	"010"	n/a	n/a	n/a	n/a	n/a	n/a	"Trial"	n/a	n/a	n/a	"687"	"arrowup"	n/a	"NULL"	"NULL"	"NULL"	"stimuli/MullerLyer_0000000_0.70000.png"	n/a	"MullerLyer"	"arrowup"	"1397"	"TRUE"	"MullerLyer"	"000000000000"	"0.7000000000"	"1"	"9"
n/a	"html-keyboard-response"	"28"	"136085"	"0.0-4.0-2.0-2.0-0.3"	"9mjruj"	"600"	"1024"	"chrome"	"109.0.0"	"FALSE"	"Windows 10"	"60.02"	"010"	n/a	n/a	n/a	n/a	n/a	n/a	"fixation"	n/a	n/a	n/a	n/a	"NULL"	n/a	"NULL"	"NULL"	"NULL"	"<p style=\"color: black; font-size: 80px; padding-left: 37%; padding-right: 43%; padding-top: 7%; padding-bottom: 7%\">+</p>"	"1123"	n/a	n/a	n/a	n/a	n/a	n/a	n/a	n/a	n/a
n/a	"image-keyboard-response"	"29"	"136900"	"0.0-4.0-2.0-2.0-1.3"	"9mjruj"	"600"	"1024"	"chrome"	"109.0.0"	"FALSE"	"Windows 10"	"60.02"	"010"	n/a	n/a	n/a	n/a	n/a	n/a	"Trial"	n/a	n/a	n/a	"813"	"arrowup"	n/a	"NULL"	"NULL"	"NULL"	"stimuli/MullerLyer_2300000_0.70000.png"	n/a	"MullerLyer"	"arrowup"	"1129"	"TRUE"	"MullerLyer"	"230000000000"	"0.7000000000"	"1"	"10"
n/a	"html-keyboard-response"	"30"	"138160"	"0.0-4.0-2.0-2.0-0.4"	"9mjruj"	"600"	"1024"	"chrome"	"109.0.0"	"FALSE"	"Windows 10"	"60.02"	"010"	n/a	n/a	n/a	n/a	n/a	n/a	"fixation"	n/a	n/a	n/a	n/a	"NULL"	n/a	"NULL"	"NULL"	"NULL"	"<p style=\"color: black; font-size: 80px; padding-left: 31%; padding-right: 46%; padding-top: 49%; padding-bottom: 14%\">+</p>"	"1248"	n/a	n/a	n/a	n/a	n/a	n/a	n/a	n/a	n/a
n/a	"image-keyboard-response"	"31"	"138853"	"0.0-4.0-2.0-2.0-1.4"	"9mjruj"	"600"	"1024"	"chrome"	"109.0.0"	"FALSE"	"Windows 10"	"60.02"	"010"	n/a	n/a	n/a	n/a	n/a	n/a	"Trial"	n/a	n/a	n/a	"691"	"arrowdown"	n/a	"NULL"	"NULL"	"NULL"	"stimuli/MullerLyer_2300000_-0.7000.png"	n/a	"MullerLyer"	"arrowdown"	"1260"	"TRUE"	"MullerLyer"	"230000000000"	"-0.700000000"	"1"	"11"
n/a	"html-keyboard-response"	"32"	"139964"	"0.0-4.0-2.0-2.0-0.5"	"9mjruj"	"600"	"1024"	"chrome"	"109.0.0"	"FALSE"	"Windows 10"	"60.02"	"010"	n/a	n/a	n/a	n/a	n/a	n/a	"fixation"	n/a	n/a	n/a	n/a	"NULL"	n/a	"NULL"	"NULL"	"NULL"	"<p style=\"color: black; font-size: 80px; padding-left: 17%; padding-right: 17%; padding-top: 34%; padding-bottom: 16%\">+</p>"	"1095"	n/a	n/a	n/a	n/a	n/a	n/a	n/a	n/a	n/a
n/a	"image-keyboard-response"	"33"	"140565"	"0.0-4.0-2.0-2.0-1.5"	"9mjruj"	"600"	"1024"	"chrome"	"109.0.0"	"FALSE"	"Windows 10"	"60.02"	"010"	n/a	n/a	n/a	n/a	n/a	n/a	"Trial"	n/a	n/a	n/a	"600"	"arrowup"	n/a	"NULL"	"NULL"	"NULL"	"stimuli/MullerLyer_-230000_0.70000.png"	n/a	"MullerLyer"	"arrowup"	"1111"	"TRUE"	"MullerLyer"	"-23000000000"	"0.7000000000"	"1"	"12"
n/a	"html-button-response"	"34"	"143979"	"0.0-4.0-2.0-3.0"	"9mjruj"	"600"	"1024"	"chrome"	"109.0.0"	"FALSE"	"Windows 10"	"60.02"	"010"	n/a	n/a	n/a	n/a	n/a	n/a	"practice_block_results"	n/a	n/a	n/a	"3408"	"0"	n/a	"NULL"	"NULL"	"NULL"	"<p style='color:rgb(76,175,80);'> Correct Responses: <b>100.00%</b></p><hr><p style='color:rgb(233,30,99);'> Average Response Time: <b>693.00</b> ms.</p>"	n/a	n/a	n/a	n/a	n/a	n/a	n/a	n/a	n/a	n/a
"TRUE"	"preload"	"35"	"144540"	"0.0-4.0-3.0-0.0"	"9mjruj"	"600"	"1024"	"chrome"	"109.0.0"	"FALSE"	"Windows 10"	"60.02"	"010"	n/a	n/a	n/a	n/a	n/a	n/a	n/a	n/a	n/a	n/a	n/a	"NULL"	"FALSE"	"list()"	"list()"	"list()"	n/a	n/a	n/a	n/a	n/a	n/a	n/a	n/a	n/a	n/a	n/a
n/a	"html-keyboard-response"	"36"	"154237"	"0.0-4.0-3.0-1.0"	"9mjruj"	"600"	"1024"	"chrome"	"109.0.0"	"FALSE"	"Windows 10"	"60.02"	"010"	n/a	n/a	n/a	n/a	n/a	n/a	n/a	n/a	n/a	n/a	"9696"	"enter"	n/a	"NULL"	"NULL"	"NULL"	"<p><b>Practice</b></p><p>In this part, two red lines will appear side by side.</p><p>Your task is to tell <b>which line is longer</b> in length, regardless of their orientation, as fast as you can, and without making errors.</p><p>Don't get distracted by the orientation of the lines!</p><p>Press <b>the LEFT or the RIGHT arrow</b> to indicate which <b>line is the longer one.</b></p><div style='float: center'><img src='materials/instructions/VerticalHorizontal_Demo.png' height='300'></img><p><img src='utils/answer/answer_leftright_keyboard.PNG' height='150'></img></p><p class='small'>In this example, the correct answer is the <b>LEFT arrow</b>.</p></div><p>Are you ready? <b>Press ENTER to start</b></p>"	n/a	n/a	n/a	n/a	n/a	n/a	n/a	n/a	n/a	n/a
n/a	"html-keyboard-response"	"37"	"156080"	"0.0-4.0-3.0-2.0-0.0"	"9mjruj"	"600"	"1024"	"chrome"	"109.0.0"	"FALSE"	"Windows 10"	"60.02"	"010"	n/a	n/a	n/a	n/a	n/a	n/a	"fixation"	n/a	n/a	n/a	n/a	"NULL"	n/a	"NULL"	"NULL"	"NULL"	"<p style=\"color: black; font-size: 80px; padding-left: 5%; padding-right: 32%; padding-top: 8%; padding-bottom: 13%\">+</p>"	"1314"	n/a	n/a	n/a	n/a	n/a	n/a	n/a	n/a	n/a
n/a	"image-keyboard-response"	"38"	"157460"	"0.0-4.0-3.0-2.0-1.0"	"9mjruj"	"600"	"1024"	"chrome"	"109.0.0"	"FALSE"	"Windows 10"	"60.02"	"010"	n/a	n/a	n/a	n/a	n/a	n/a	"Trial"	n/a	n/a	n/a	"1378"	"arrowright"	n/a	"NULL"	"NULL"	"NULL"	"stimuli/VerticalHorizontal_-330000_-0.9000.png"	n/a	"VerticalHorizontal"	"arrowright"	"1843"	"TRUE"	"VerticalHorizontal"	"-33000000000"	"-0.900000000"	"1"	"13"
n/a	"html-keyboard-response"	"39"	"158517"	"0.0-4.0-3.0-2.0-0.1"	"9mjruj"	"600"	"1024"	"chrome"	"109.0.0"	"FALSE"	"Windows 10"	"60.02"	"010"	n/a	n/a	n/a	n/a	n/a	n/a	"fixation"	n/a	n/a	n/a	n/a	"NULL"	n/a	"NULL"	"NULL"	"NULL"	"<p style=\"color: black; font-size: 80px; padding-left: 8%; padding-right: 47%; padding-top: 50%; padding-bottom: 37%\">+</p>"	"1053"	n/a	n/a	n/a	n/a	n/a	n/a	n/a	n/a	n/a
n/a	"image-keyboard-response"	"40"	"159250"	"0.0-4.0-3.0-2.0-1.1"	"9mjruj"	"600"	"1024"	"chrome"	"109.0.0"	"FALSE"	"Windows 10"	"60.02"	"010"	n/a	n/a	n/a	n/a	n/a	n/a	"Trial"	n/a	n/a	n/a	"732"	"arrowright"	n/a	"NULL"	"NULL"	"NULL"	"stimuli/VerticalHorizontal_3300000_-0.9000.png"	n/a	"VerticalHorizontal"	"arrowright"	"1057"	"TRUE"	"VerticalHorizontal"	"330000000000"	"-0.900000000"	"1"	"14"
n/a	"html-keyboard-response"	"41"	"160571"	"0.0-4.0-3.0-2.0-0.2"	"9mjruj"	"600"	"1024"	"chrome"	"109.0.0"	"FALSE"	"Windows 10"	"60.02"	"010"	n/a	n/a	n/a	n/a	n/a	n/a	"fixation"	n/a	n/a	n/a	n/a	"NULL"	n/a	"NULL"	"NULL"	"NULL"	"<p style=\"color: black; font-size: 80px; padding-left: 30%; padding-right: 36%; padding-top: 25%; padding-bottom: 3%\">+</p>"	"1312"	n/a	n/a	n/a	n/a	n/a	n/a	n/a	n/a	n/a
n/a	"image-keyboard-response"	"42"	"161089"	"0.0-4.0-3.0-2.0-1.2"	"9mjruj"	"600"	"1024"	"chrome"	"109.0.0"	"FALSE"	"Windows 10"	"60.02"	"010"	n/a	n/a	n/a	n/a	n/a	n/a	"Trial"	n/a	n/a	n/a	"517"	"arrowright"	n/a	"NULL"	"NULL"	"NULL"	"stimuli/VerticalHorizontal_0000000_-0.9000.png"	n/a	"VerticalHorizontal"	"arrowright"	"1321"	"TRUE"	"VerticalHorizontal"	"000000000000"	"-0.900000000"	"1"	"15"
n/a	"html-keyboard-response"	"43"	"162441"	"0.0-4.0-3.0-2.0-0.3"	"9mjruj"	"600"	"1024"	"chrome"	"109.0.0"	"FALSE"	"Windows 10"	"60.02"	"010"	n/a	n/a	n/a	n/a	n/a	n/a	"fixation"	n/a	n/a	n/a	n/a	"NULL"	n/a	"NULL"	"NULL"	"NULL"	"<p style=\"color: black; font-size: 80px; padding-left: 48%; padding-right: 32%; padding-top: 26%; padding-bottom: 35%\">+</p>"	"1345"	n/a	n/a	n/a	n/a	n/a	n/a	n/a	n/a	n/a
n/a	"image-keyboard-response"	"44"	"162949"	"0.0-4.0-3.0-2.0-1.3"	"9mjruj"	"600"	"1024"	"chrome"	"109.0.0"	"FALSE"	"Windows 10"	"60.02"	"010"	n/a	n/a	n/a	n/a	n/a	n/a	"Trial"	n/a	n/a	n/a	"508"	"arrowleft"	n/a	"NULL"	"NULL"	"NULL"	"stimuli/VerticalHorizontal_-330000_0.90000.png"	n/a	"VerticalHorizontal"	"arrowleft"	"1352"	"TRUE"	"VerticalHorizontal"	"-33000000000"	"0.9000000000"	"1"	"16"
n/a	"html-keyboard-response"	"45"	"164424"	"0.0-4.0-3.0-2.0-0.4"	"9mjruj"	"600"	"1024"	"chrome"	"109.0.0"	"FALSE"	"Windows 10"	"60.02"	"010"	n/a	n/a	n/a	n/a	n/a	n/a	"fixation"	n/a	n/a	n/a	n/a	"NULL"	n/a	"NULL"	"NULL"	"NULL"	"<p style=\"color: black; font-size: 80px; padding-left: 50%; padding-right: 6%; padding-top: 21%; padding-bottom: 38%\">+</p>"	"1464"	n/a	n/a	n/a	n/a	n/a	n/a	n/a	n/a	n/a
n/a	"image-keyboard-response"	"46"	"165144"	"0.0-4.0-3.0-2.0-1.4"	"9mjruj"	"600"	"1024"	"chrome"	"109.0.0"	"FALSE"	"Windows 10"	"60.02"	"010"	n/a	n/a	n/a	n/a	n/a	n/a	"Trial"	n/a	n/a	n/a	"720"	"arrowleft"	n/a	"NULL"	"NULL"	"NULL"	"stimuli/VerticalHorizontal_3300000_0.90000.png"	n/a	"VerticalHorizontal"	"arrowleft"	"1475"	"TRUE"	"VerticalHorizontal"	"330000000000"	"0.9000000000"	"1"	"17"
n/a	"html-keyboard-response"	"47"	"166450"	"0.0-4.0-3.0-2.0-0.5"	"9mjruj"	"600"	"1024"	"chrome"	"109.0.0"	"FALSE"	"Windows 10"	"60.02"	"010"	n/a	n/a	n/a	n/a	n/a	n/a	"fixation"	n/a	n/a	n/a	n/a	"NULL"	n/a	"NULL"	"NULL"	"NULL"	"<p style=\"color: black; font-size: 80px; padding-left: 25%; padding-right: 32%; padding-top: 43%; padding-bottom: 36%\">+</p>"	"1298"	n/a	n/a	n/a	n/a	n/a	n/a	n/a	n/a	n/a
n/a	"image-keyboard-response"	"48"	"167092"	"0.0-4.0-3.0-2.0-1.5"	"9mjruj"	"600"	"1024"	"chrome"	"109.0.0"	"FALSE"	"Windows 10"	"60.02"	"010"	n/a	n/a	n/a	n/a	n/a	n/a	"Trial"	n/a	n/a	n/a	"641"	"arrowleft"	n/a	"NULL"	"NULL"	"NULL"	"stimuli/VerticalHorizontal_0000000_0.90000.png"	n/a	"VerticalHorizontal"	"arrowleft"	"1306"	"TRUE"	"VerticalHorizontal"	"000000000000"	"0.9000000000"	"1"	"18"
n/a	"html-button-response"	"49"	"174243"	"0.0-4.0-3.0-3.0"	"9mjruj"	"600"	"1024"	"chrome"	"109.0.0"	"FALSE"	"Windows 10"	"60.02"	"010"	n/a	n/a	n/a	n/a	n/a	n/a	"practice_block_results"	n/a	n/a	n/a	"7149"	"0"	n/a	"NULL"	"NULL"	"NULL"	"<p style='color:rgb(76,175,80);'> Correct Responses: <b>100.00%</b></p><hr><p style='color:rgb(233,30,99);'> Average Response Time: <b>749.33</b> ms.</p>"	n/a	n/a	n/a	n/a	n/a	n/a	n/a	n/a	n/a	n/a
n/a	"html-button-response"	"50"	"251579"	"0.0-4.0-4.0"	"9mjruj"	"600"	"1024"	"chrome"	"109.0.0"	"FALSE"	"Windows 10"	"60.02"	"010"	n/a	n/a	n/a	n/a	n/a	n/a	"practice_debrief"	n/a	n/a	n/a	"76825"	"0"	n/a	"NULL"	"NULL"	"NULL"	"<p><b>TRAINING COMPLETED</b></p><p>In the next phase, there will be more trials, and some might be harder too.<br> Moreover, after each illusion block, a <b>score</b> will be calculated based on speed (time you took to answer) and accuracy (number of errors).</p><p>Try to keep up a high score!</p><br><p>Note that it can be <i>really</i> challenging at times, so you will need to rely on your <b>intuition</b> and gut feeling to answer as fast as you can without making errors.</p><p>Each illusion block will be repeated two times (so that you have the opportunity to improve your score), but the order of the blocks is random.</p><p>Remember, your goal is to be as <b>fast</b> and <b>accurate</b> as possible. Good luck!</p><br>"	n/a	n/a	n/a	n/a	n/a	n/a	n/a	n/a	n/a	n/a
"TRUE"	"preload"	"51"	"252231"	"0.0-5.0-0.0"	"9mjruj"	"600"	"1024"	"chrome"	"109.0.0"	"FALSE"	"Windows 10"	"60.02"	"010"	n/a	n/a	n/a	n/a	n/a	n/a	n/a	n/a	n/a	n/a	n/a	"NULL"	"FALSE"	"list()"	"list()"	"list()"	n/a	n/a	n/a	n/a	n/a	n/a	n/a	n/a	n/a	n/a	n/a
n/a	"html-keyboard-response"	"52"	"255298"	"0.0-5.0-1.0"	"9mjruj"	"600"	"1024"	"chrome"	"109.0.0"	"FALSE"	"Windows 10"	"60.02"	"010"	n/a	n/a	n/a	n/a	n/a	n/a	n/a	n/a	n/a	n/a	"3066"	"enter"	n/a	"NULL"	"NULL"	"NULL"	"<p><b>Part 1/6</b></p><p>In this part, two red circles will appear side by side on the screen.</p><p>Your task is to select which <b>red circle is bigger</b> in size as fast as you can, without making errors.</p><p>Don't get distracted by the surrounding black circles around the red circles!</p><p>Press <b>the LEFT or the RIGHT arrow</b> to indicate which is the bigger <b>red circle.</b></p><div style='float: center'><img src='materials/instructions/Ebbinghaus_Demo.png' height='300'></img><p><img src='utils/answer/answer_leftright_keyboard.PNG' height='150'></img></p><p class='small'>In this example, the correct answer is the <b>LEFT arrow</b>.</p></div><p>Are you ready? <b>Press ENTER to start</b></p>"	n/a	n/a	n/a	n/a	n/a	n/a	n/a	n/a	n/a	n/a
n/a	"html-keyboard-response"	"53"	"257189"	"0.0-5.0-2.0-0.0"	"9mjruj"	"600"	"1024"	"chrome"	"109.0.0"	"FALSE"	"Windows 10"	"60.02"	"010"	n/a	n/a	n/a	n/a	n/a	n/a	"fixation"	n/a	n/a	n/a	n/a	"NULL"	n/a	"NULL"	"NULL"	"NULL"	"<p style=\"color: black; font-size: 80px; padding-left: 8%; padding-right: 42%; padding-top: 0%; padding-bottom: 15%\">+</p>"	"1367"	n/a	n/a	n/a	n/a	n/a	n/a	n/a	n/a	n/a
n/a	"image-keyboard-response"	"54"	"257882"	"0.0-5.0-2.0-1.0"	"9mjruj"	"600"	"1024"	"chrome"	"109.0.0"	"FALSE"	"Windows 10"	"60.02"	"010"	n/a	n/a	n/a	n/a	n/a	n/a	"Trial"	n/a	n/a	n/a	"692"	"arrowleft"	n/a	"NULL"	"NULL"	"NULL"	"stimuli/Ebbinghaus_-0.1000_0.28000.png"	n/a	"Ebbinghaus"	"arrowleft"	"1891"	"TRUE"	"Ebbinghaus"	"-0.100000000"	"0.2800000000"	"1"	"19"
n/a	"html-keyboard-response"	"55"	"259125"	"0.0-5.0-2.0-0.1"	"9mjruj"	"600"	"1024"	"chrome"	"109.0.0"	"FALSE"	"Windows 10"	"60.02"	"010"	n/a	n/a	n/a	n/a	n/a	n/a	"fixation"	n/a	n/a	n/a	n/a	"NULL"	n/a	"NULL"	"NULL"	"NULL"	"<p style=\"color: black; font-size: 80px; padding-left: 10%; padding-right: 47%; padding-top: 31%; padding-bottom: 6%\">+</p>"	"1236"	n/a	n/a	n/a	n/a	n/a	n/a	n/a	n/a	n/a
n/a	"image-keyboard-response"	"56"	"260651"	"0.0-5.0-2.0-1.1"	"9mjruj"	"600"	"1024"	"chrome"	"109.0.0"	"FALSE"	"Windows 10"	"60.02"	"010"	n/a	n/a	n/a	n/a	n/a	n/a	"Trial"	n/a	n/a	n/a	"1525"	"arrowright"	n/a	"NULL"	"NULL"	"NULL"	"stimuli/Ebbinghaus_-0.35714_-0.11071.png"	n/a	"Ebbinghaus"	"arrowright"	"1243"	"TRUE"	"Ebbinghaus"	"-0.357140000"	"-0.110710000"	"1"	"20"
n/a	"html-keyboard-response"	"57"	"262096"	"0.0-5.0-2.0-0.2"	"9mjruj"	"600"	"1024"	"chrome"	"109.0.0"	"FALSE"	"Windows 10"	"60.02"	"010"	n/a	n/a	n/a	n/a	n/a	n/a	"fixation"	n/a	n/a	n/a	n/a	"NULL"	n/a	"NULL"	"NULL"	"NULL"	"<p style=\"color: black; font-size: 80px; padding-left: 15%; padding-right: 30%; padding-top: 48%; padding-bottom: 3%\">+</p>"	"1431"	n/a	n/a	n/a	n/a	n/a	n/a	n/a	n/a	n/a
n/a	"image-keyboard-response"	"58"	"263061"	"0.0-5.0-2.0-1.2"	"9mjruj"	"600"	"1024"	"chrome"	"109.0.0"	"FALSE"	"Windows 10"	"60.02"	"010"	n/a	n/a	n/a	n/a	n/a	n/a	"Trial"	n/a	n/a	n/a	"964"	"arrowright"	n/a	"NULL"	"NULL"	"NULL"	"stimuli/Ebbinghaus_-0.35714_-0.15857.png"	n/a	"Ebbinghaus"	"arrowright"	"1445"	"TRUE"	"Ebbinghaus"	"-0.357140000"	"-0.158570000"	"1"	"21"
n/a	"html-keyboard-response"	"59"	"264534"	"0.0-5.0-2.0-0.3"	"9mjruj"	"600"	"1024"	"chrome"	"109.0.0"	"FALSE"	"Windows 10"	"60.02"	"010"	n/a	n/a	n/a	n/a	n/a	n/a	"fixation"	n/a	n/a	n/a	n/a	"NULL"	n/a	"NULL"	"NULL"	"NULL"	"<p style=\"color: black; font-size: 80px; padding-left: 46%; padding-right: 10%; padding-top: 11%; padding-bottom: 28%\">+</p>"	"1456"	n/a	n/a	n/a	n/a	n/a	n/a	n/a	n/a	n/a
n/a	"image-keyboard-response"	"60"	"265276"	"0.0-5.0-2.0-1.3"	"9mjruj"	"600"	"1024"	"chrome"	"109.0.0"	"FALSE"	"Windows 10"	"60.02"	"010"	n/a	n/a	n/a	n/a	n/a	n/a	"Trial"	n/a	n/a	n/a	"741"	"arrowright"	n/a	"NULL"	"NULL"	"NULL"	"stimuli/Ebbinghaus_0.10000_-0.2150.png"	n/a	"Ebbinghaus"	"arrowright"	"1473"	"TRUE"	"Ebbinghaus"	"0.1000000000"	"-0.215000000"	"1"	"22"
n/a	"html-keyboard-response"	"61"	"266649"	"0.0-5.0-2.0-0.4"	"9mjruj"	"600"	"1024"	"chrome"	"109.0.0"	"FALSE"	"Windows 10"	"60.02"	"010"	n/a	n/a	n/a	n/a	n/a	n/a	"fixation"	n/a	n/a	n/a	n/a	"NULL"	n/a	"NULL"	"NULL"	"NULL"	"<p style=\"color: black; font-size: 80px; padding-left: 19%; padding-right: 32%; padding-top: 34%; padding-bottom: 19%\">+</p>"	"1367"	n/a	n/a	n/a	n/a	n/a	n/a	n/a	n/a	n/a
n/a	"image-keyboard-response"	"62"	"267380"	"0.0-5.0-2.0-1.4"	"9mjruj"	"600"	"1024"	"chrome"	"109.0.0"	"FALSE"	"Windows 10"	"60.02"	"010"	n/a	n/a	n/a	n/a	n/a	n/a	"Trial"	n/a	n/a	n/a	"730"	"arrowleft"	n/a	"NULL"	"NULL"	"NULL"	"stimuli/Ebbinghaus_-0.87143_0.21500.png"	n/a	"Ebbinghaus"	"arrowleft"	"1373"	"TRUE"	"Ebbinghaus"	"-0.871430000"	"0.2150000000"	"1"	"23"
n/a	"html-keyboard-response"	"63"	"268783"	"0.0-5.0-2.0-0.5"	"9mjruj"	"600"	"1024"	"chrome"	"109.0.0"	"FALSE"	"Windows 10"	"60.02"	"010"	n/a	n/a	n/a	n/a	n/a	n/a	"fixation"	n/a	n/a	n/a	n/a	"NULL"	n/a	"NULL"	"NULL"	"NULL"	"<p style=\"color: black; font-size: 80px; padding-left: 47%; padding-right: 42%; padding-top: 9%; padding-bottom: 30%\">+</p>"	"1398"	n/a	n/a	n/a	n/a	n/a	n/a	n/a	n/a	n/a
n/a	"image-keyboard-response"	"64"	"269426"	"0.0-5.0-2.0-1.5"	"9mjruj"	"600"	"1024"	"chrome"	"109.0.0"	"FALSE"	"Windows 10"	"60.02"	"010"	n/a	n/a	n/a	n/a	n/a	n/a	"Trial"	n/a	n/a	n/a	"641"	"arrowright"	n/a	"NULL"	"NULL"	"NULL"	"stimuli/Ebbinghaus_0.35714_-0.15857.png"	n/a	"Ebbinghaus"	"arrowright"	"1403"	"TRUE"	"Ebbinghaus"	"0.3571400000"	"-0.158570000"	"1"	"24"
n/a	"html-keyboard-response"	"65"	"270928"	"0.0-5.0-2.0-0.6"	"9mjruj"	"600"	"1024"	"chrome"	"109.0.0"	"FALSE"	"Windows 10"	"60.02"	"010"	n/a	n/a	n/a	n/a	n/a	n/a	"fixation"	n/a	n/a	n/a	n/a	"NULL"	n/a	"NULL"	"NULL"	"NULL"	"<p style=\"color: black; font-size: 80px; padding-left: 3%; padding-right: 38%; padding-top: 21%; padding-bottom: 34%\">+</p>"	"1485"	n/a	n/a	n/a	n/a	n/a	n/a	n/a	n/a	n/a
n/a	"image-keyboard-response"	"66"	"271617"	"0.0-5.0-2.0-1.6"	"9mjruj"	"600"	"1024"	"chrome"	"109.0.0"	"FALSE"	"Windows 10"	"60.02"	"010"	n/a	n/a	n/a	n/a	n/a	n/a	"Trial"	n/a	n/a	n/a	"688"	"arrowleft"	n/a	"NULL"	"NULL"	"NULL"	"stimuli/Ebbinghaus_-0.35714_0.15857.png"	n/a	"Ebbinghaus"	"arrowleft"	"1502"	"TRUE"	"Ebbinghaus"	"-0.357140000"	"0.1585700000"	"1"	"25"
n/a	"html-keyboard-response"	"67"	"272737"	"0.0-5.0-2.0-0.7"	"9mjruj"	"600"	"1024"	"chrome"	"109.0.0"	"FALSE"	"Windows 10"	"60.02"	"010"	n/a	n/a	n/a	n/a	n/a	n/a	"fixation"	n/a	n/a	n/a	n/a	"NULL"	n/a	"NULL"	"NULL"	"NULL"	"<p style=\"color: black; font-size: 80px; padding-left: 42%; padding-right: 11%; padding-top: 39%; padding-bottom: 12%\">+</p>"	"1111"	n/a	n/a	n/a	n/a	n/a	n/a	n/a	n/a	n/a
n/a	"image-keyboard-response"	"68"	"273891"	"0.0-5.0-2.0-1.7"	"9mjruj"	"600"	"1024"	"chrome"	"109.0.0"	"FALSE"	"Windows 10"	"60.02"	"010"	n/a	n/a	n/a	n/a	n/a	n/a	"Trial"	n/a	n/a	n/a	"1153"	"arrowleft"	n/a	"NULL"	"NULL"	"NULL"	"stimuli/Ebbinghaus_0.10000_0.11071.png"	n/a	"Ebbinghaus"	"arrowleft"	"1120"	"TRUE"	"Ebbinghaus"	"0.1000000000"	"0.1107100000"	"1"	"26"
n/a	"html-keyboard-response"	"69"	"275101"	"0.0-5.0-2.0-0.8"	"9mjruj"	"600"	"1024"	"chrome"	"109.0.0"	"FALSE"	"Windows 10"	"60.02"	"010"	n/a	n/a	n/a	n/a	n/a	n/a	"fixation"	n/a	n/a	n/a	n/a	"NULL"	n/a	"NULL"	"NULL"	"NULL"	"<p style=\"color: black; font-size: 80px; padding-left: 12%; padding-right: 21%; padding-top: 11%; padding-bottom: 35%\">+</p>"	"1199"	n/a	n/a	n/a	n/a	n/a	n/a	n/a	n/a	n/a
n/a	"image-keyboard-response"	"70"	"276076"	"0.0-5.0-2.0-1.8"	"9mjruj"	"600"	"1024"	"chrome"	"109.0.0"	"FALSE"	"Windows 10"	"60.02"	"010"	n/a	n/a	n/a	n/a	n/a	n/a	"Trial"	n/a	n/a	n/a	"973"	"arrowleft"	n/a	"NULL"	"NULL"	"NULL"	"stimuli/Ebbinghaus_0.61429_0.21500.png"	n/a	"Ebbinghaus"	"arrowleft"	"1210"	"TRUE"	"Ebbinghaus"	"0.6142900000"	"0.2150000000"	"1"	"27"
n/a	"html-keyboard-response"	"71"	"277314"	"0.0-5.0-2.0-0.9"	"9mjruj"	"600"	"1024"	"chrome"	"109.0.0"	"FALSE"	"Windows 10"	"60.02"	"010"	n/a	n/a	n/a	n/a	n/a	n/a	"fixation"	n/a	n/a	n/a	n/a	"NULL"	n/a	"NULL"	"NULL"	"NULL"	"<p style=\"color: black; font-size: 80px; padding-left: 37%; padding-right: 48%; padding-top: 14%; padding-bottom: 2%\">+</p>"	"1217"	n/a	n/a	n/a	n/a	n/a	n/a	n/a	n/a	n/a
n/a	"image-keyboard-response"	"72"	"278092"	"0.0-5.0-2.0-1.9"	"9mjruj"	"600"	"1024"	"chrome"	"109.0.0"	"FALSE"	"Windows 10"	"60.02"	"010"	n/a	n/a	n/a	n/a	n/a	n/a	"Trial"	n/a	n/a	n/a	"777"	"arrowright"	n/a	"NULL"	"NULL"	"NULL"	"stimuli/Ebbinghaus_-0.61429_-0.15857.png"	n/a	"Ebbinghaus"	"arrowright"	"1238"	"TRUE"	"Ebbinghaus"	"-0.614290000"	"-0.158570000"	"1"	"28"
n/a	"html-keyboard-response"	"73"	"279469"	"0.0-5.0-2.0-0.10"	"9mjruj"	"600"	"1024"	"chrome"	"109.0.0"	"FALSE"	"Windows 10"	"60.02"	"010"	n/a	n/a	n/a	n/a	n/a	n/a	"fixation"	n/a	n/a	n/a	n/a	"NULL"	n/a	"NULL"	"NULL"	"NULL"	"<p style=\"color: black; font-size: 80px; padding-left: 11%; padding-right: 1%; padding-top: 4%; padding-bottom: 50%\">+</p>"	"1354"	n/a	n/a	n/a	n/a	n/a	n/a	n/a	n/a	n/a
n/a	"image-keyboard-response"	"74"	"280240"	"0.0-5.0-2.0-1.10"	"9mjruj"	"600"	"1024"	"chrome"	"109.0.0"	"FALSE"	"Windows 10"	"60.02"	"010"	n/a	n/a	n/a	n/a	n/a	n/a	"Trial"	n/a	n/a	n/a	"770"	"arrowright"	n/a	"NULL"	"NULL"	"NULL"	"stimuli/Ebbinghaus_-0.35714_-0.2800.png"	n/a	"Ebbinghaus"	"arrowright"	"1377"	"TRUE"	"Ebbinghaus"	"-0.357140000"	"-0.280000000"	"1"	"29"
n/a	"html-keyboard-response"	"75"	"281284"	"0.0-5.0-2.0-0.11"	"9mjruj"	"600"	"1024"	"chrome"	"109.0.0"	"FALSE"	"Windows 10"	"60.02"	"010"	n/a	n/a	n/a	n/a	n/a	n/a	"fixation"	n/a	n/a	n/a	n/a	"NULL"	n/a	"NULL"	"NULL"	"NULL"	"<p style=\"color: black; font-size: 80px; padding-left: 8%; padding-right: 19%; padding-top: 49%; padding-bottom: 23%\">+</p>"	"1030"	n/a	n/a	n/a	n/a	n/a	n/a	n/a	n/a	n/a
n/a	"image-keyboard-response"	"76"	"282237"	"0.0-5.0-2.0-1.11"	"9mjruj"	"600"	"1024"	"chrome"	"109.0.0"	"FALSE"	"Windows 10"	"60.02"	"010"	n/a	n/a	n/a	n/a	n/a	n/a	"Trial"	n/a	n/a	n/a	"952"	"arrowright"	n/a	"NULL"	"NULL"	"NULL"	"stimuli/Ebbinghaus_-0.87143_-0.15857.png"	n/a	"Ebbinghaus"	"arrowright"	"1044"	"TRUE"	"Ebbinghaus"	"-0.871430000"	"-0.158570000"	"1"	"30"
n/a	"html-keyboard-response"	"77"	"283602"	"0.0-5.0-2.0-0.12"	"9mjruj"	"600"	"1024"	"chrome"	"109.0.0"	"FALSE"	"Windows 10"	"60.02"	"010"	n/a	n/a	n/a	n/a	n/a	n/a	"fixation"	n/a	n/a	n/a	n/a	"NULL"	n/a	"NULL"	"NULL"	"NULL"	"<p style=\"color: black; font-size: 80px; padding-left: 33%; padding-right: 33%; padding-top: 20%; padding-bottom: 25%\">+</p>"	"1344"	n/a	n/a	n/a	n/a	n/a	n/a	n/a	n/a	n/a
n/a	"image-keyboard-response"	"78"	"284234"	"0.0-5.0-2.0-1.12"	"9mjruj"	"600"	"1024"	"chrome"	"109.0.0"	"FALSE"	"Windows 10"	"60.02"	"010"	n/a	n/a	n/a	n/a	n/a	n/a	"Trial"	n/a	n/a	n/a	"630"	"arrowleft"	n/a	"NULL"	"NULL"	"NULL"	"stimuli/Ebbinghaus_-0.61429_0.28000.png"	n/a	"Ebbinghaus"	"arrowleft"	"1365"	"TRUE"	"Ebbinghaus"	"-0.614290000"	"0.2800000000"	"1"	"31"
n/a	"html-keyboard-response"	"79"	"285690"	"0.0-5.0-2.0-0.13"	"9mjruj"	"600"	"1024"	"chrome"	"109.0.0"	"FALSE"	"Windows 10"	"60.02"	"010"	n/a	n/a	n/a	n/a	n/a	n/a	"fixation"	n/a	n/a	n/a	n/a	"NULL"	n/a	"NULL"	"NULL"	"NULL"	"<p style=\"color: black; font-size: 80px; padding-left: 2%; padding-right: 39%; padding-top: 4%; padding-bottom: 10%\">+</p>"	"1445"	n/a	n/a	n/a	n/a	n/a	n/a	n/a	n/a	n/a
n/a	"image-keyboard-response"	"80"	"286334"	"0.0-5.0-2.0-1.13"	"9mjruj"	"600"	"1024"	"chrome"	"109.0.0"	"FALSE"	"Windows 10"	"60.02"	"010"	n/a	n/a	n/a	n/a	n/a	n/a	"Trial"	n/a	n/a	n/a	"643"	"arrowright"	n/a	"NULL"	"NULL"	"NULL"	"stimuli/Ebbinghaus_0.61429_-0.2150.png"	n/a	"Ebbinghaus"	"arrowright"	"1456"	"TRUE"	"Ebbinghaus"	"0.6142900000"	"-0.215000000"	"1"	"32"
n/a	"html-keyboard-response"	"81"	"287541"	"0.0-5.0-2.0-0.14"	"9mjruj"	"600"	"1024"	"chrome"	"109.0.0"	"FALSE"	"Windows 10"	"60.02"	"010"	n/a	n/a	n/a	n/a	n/a	n/a	"fixation"	n/a	n/a	n/a	n/a	"NULL"	n/a	"NULL"	"NULL"	"NULL"	"<p style=\"color: black; font-size: 80px; padding-left: 17%; padding-right: 34%; padding-top: 8%; padding-bottom: 33%\">+</p>"	"1196"	n/a	n/a	n/a	n/a	n/a	n/a	n/a	n/a	n/a
n/a	"image-keyboard-response"	"82"	"288190"	"0.0-5.0-2.0-1.14"	"9mjruj"	"600"	"1024"	"chrome"	"109.0.0"	"FALSE"	"Windows 10"	"60.02"	"010"	n/a	n/a	n/a	n/a	n/a	n/a	"Trial"	n/a	n/a	n/a	"647"	"arrowright"	n/a	"NULL"	"NULL"	"NULL"	"stimuli/Ebbinghaus_-0.87143_-0.2150.png"	n/a	"Ebbinghaus"	"arrowright"	"1207"	"TRUE"	"Ebbinghaus"	"-0.871430000"	"-0.215000000"	"1"	"33"
n/a	"html-keyboard-response"	"83"	"289500"	"0.0-5.0-2.0-0.15"	"9mjruj"	"600"	"1024"	"chrome"	"109.0.0"	"FALSE"	"Windows 10"	"60.02"	"010"	n/a	n/a	n/a	n/a	n/a	n/a	"fixation"	n/a	n/a	n/a	n/a	"NULL"	n/a	"NULL"	"NULL"	"NULL"	"<p style=\"color: black; font-size: 80px; padding-left: 18%; padding-right: 33%; padding-top: 28%; padding-bottom: 45%\">+</p>"	"1294"	n/a	n/a	n/a	n/a	n/a	n/a	n/a	n/a	n/a
n/a	"image-keyboard-response"	"84"	"290172"	"0.0-5.0-2.0-1.15"	"9mjruj"	"600"	"1024"	"chrome"	"109.0.0"	"FALSE"	"Windows 10"	"60.02"	"010"	n/a	n/a	n/a	n/a	n/a	n/a	"Trial"	n/a	n/a	n/a	"671"	"arrowleft"	n/a	"NULL"	"NULL"	"NULL"	"stimuli/Ebbinghaus_-0.1000_0.21500.png"	n/a	"Ebbinghaus"	"arrowleft"	"1310"	"TRUE"	"Ebbinghaus"	"-0.100000000"	"0.2150000000"	"1"	"34"
n/a	"html-keyboard-response"	"85"	"291493"	"0.0-5.0-2.0-0.16"	"9mjruj"	"600"	"1024"	"chrome"	"109.0.0"	"FALSE"	"Windows 10"	"60.02"	"010"	n/a	n/a	n/a	n/a	n/a	n/a	"fixation"	n/a	n/a	n/a	n/a	"NULL"	n/a	"NULL"	"NULL"	"NULL"	"<p style=\"color: black; font-size: 80px; padding-left: 36%; padding-right: 1%; padding-top: 11%; padding-bottom: 46%\">+</p>"	"1318"	n/a	n/a	n/a	n/a	n/a	n/a	n/a	n/a	n/a
n/a	"image-keyboard-response"	"86"	"292596"	"0.0-5.0-2.0-1.16"	"9mjruj"	"600"	"1024"	"chrome"	"109.0.0"	"FALSE"	"Windows 10"	"60.02"	"010"	n/a	n/a	n/a	n/a	n/a	n/a	"Trial"	n/a	n/a	n/a	"1102"	"arrowleft"	n/a	"NULL"	"NULL"	"NULL"	"stimuli/Ebbinghaus_-0.1000_0.11071.png"	n/a	"Ebbinghaus"	"arrowleft"	"1321"	"TRUE"	"Ebbinghaus"	"-0.100000000"	"0.1107100000"	"1"	"35"
n/a	"html-keyboard-response"	"87"	"293646"	"0.0-5.0-2.0-0.17"	"9mjruj"	"600"	"1024"	"chrome"	"109.0.0"	"FALSE"	"Windows 10"	"60.02"	"010"	n/a	n/a	n/a	n/a	n/a	n/a	"fixation"	n/a	n/a	n/a	n/a	"NULL"	n/a	"NULL"	"NULL"	"NULL"	"<p style=\"color: black; font-size: 80px; padding-left: 3%; padding-right: 33%; padding-top: 11%; padding-bottom: 4%\">+</p>"	"1039"	n/a	n/a	n/a	n/a	n/a	n/a	n/a	n/a	n/a
n/a	"image-keyboard-response"	"88"	"296175"	"0.0-5.0-2.0-1.17"	"9mjruj"	"600"	"1024"	"chrome"	"109.0.0"	"FALSE"	"Windows 10"	"60.02"	"010"	n/a	n/a	n/a	n/a	n/a	n/a	"Trial"	n/a	n/a	n/a	"2525"	"arrowright"	n/a	"NULL"	"NULL"	"NULL"	"stimuli/Ebbinghaus_0.35714_0.11071.png"	n/a	"Ebbinghaus"	"arrowleft"	"1050"	"FALSE"	"Ebbinghaus"	"0.3571400000"	"0.1107100000"	"1"	"36"
n/a	"html-keyboard-response"	"89"	"297190"	"0.0-5.0-2.0-0.18"	"9mjruj"	"600"	"1024"	"chrome"	"109.0.0"	"FALSE"	"Windows 10"	"60.02"	"010"	n/a	n/a	n/a	n/a	n/a	n/a	"fixation"	n/a	n/a	n/a	n/a	"NULL"	n/a	"NULL"	"NULL"	"NULL"	"<p style=\"color: black; font-size: 80px; padding-left: 25%; padding-right: 26%; padding-top: 33%; padding-bottom: 18%\">+</p>"	"1000"	n/a	n/a	n/a	n/a	n/a	n/a	n/a	n/a	n/a
n/a	"image-keyboard-response"	"90"	"298304"	"0.0-5.0-2.0-1.18"	"9mjruj"	"600"	"1024"	"chrome"	"109.0.0"	"FALSE"	"Windows 10"	"60.02"	"010"	n/a	n/a	n/a	n/a	n/a	n/a	"Trial"	n/a	n/a	n/a	"1113"	"arrowleft"	n/a	"NULL"	"NULL"	"NULL"	"stimuli/Ebbinghaus_0.35714_0.28000.png"	n/a	"Ebbinghaus"	"arrowleft"	"1015"	"TRUE"	"Ebbinghaus"	"0.3571400000"	"0.2800000000"	"1"	"37"
n/a	"html-keyboard-response"	"91"	"299513"	"0.0-5.0-2.0-0.19"	"9mjruj"	"600"	"1024"	"chrome"	"109.0.0"	"FALSE"	"Windows 10"	"60.02"	"010"	n/a	n/a	n/a	n/a	n/a	n/a	"fixation"	n/a	n/a	n/a	n/a	"NULL"	n/a	"NULL"	"NULL"	"NULL"	"<p style=\"color: black; font-size: 80px; padding-left: 34%; padding-right: 22%; padding-top: 8%; padding-bottom: 31%\">+</p>"	"1195"	n/a	n/a	n/a	n/a	n/a	n/a	n/a	n/a	n/a
n/a	"image-keyboard-response"	"92"	"300179"	"0.0-5.0-2.0-1.19"	"9mjruj"	"600"	"1024"	"chrome"	"109.0.0"	"FALSE"	"Windows 10"	"60.02"	"010"	n/a	n/a	n/a	n/a	n/a	n/a	"Trial"	n/a	n/a	n/a	"664"	"arrowright"	n/a	"NULL"	"NULL"	"NULL"	"stimuli/Ebbinghaus_-0.61429_-0.2150.png"	n/a	"Ebbinghaus"	"arrowright"	"1209"	"TRUE"	"Ebbinghaus"	"-0.614290000"	"-0.215000000"	"1"	"38"
n/a	"html-keyboard-response"	"93"	"301551"	"0.0-5.0-2.0-0.20"	"9mjruj"	"600"	"1024"	"chrome"	"109.0.0"	"FALSE"	"Windows 10"	"60.02"	"010"	n/a	n/a	n/a	n/a	n/a	n/a	"fixation"	n/a	n/a	n/a	n/a	"NULL"	n/a	"NULL"	"NULL"	"NULL"	"<p style=\"color: black; font-size: 80px; padding-left: 5%; padding-right: 42%; padding-top: 12%; padding-bottom: 14%\">+</p>"	"1370"	n/a	n/a	n/a	n/a	n/a	n/a	n/a	n/a	n/a
n/a	"image-keyboard-response"	"94"	"303113"	"0.0-5.0-2.0-1.20"	"9mjruj"	"600"	"1024"	"chrome"	"109.0.0"	"FALSE"	"Windows 10"	"60.02"	"010"	n/a	n/a	n/a	n/a	n/a	n/a	"Trial"	n/a	n/a	n/a	"1562"	"arrowleft"	n/a	"NULL"	"NULL"	"NULL"	"stimuli/Ebbinghaus_0.87143_0.15857.png"	n/a	"Ebbinghaus"	"arrowleft"	"1372"	"TRUE"	"Ebbinghaus"	"0.8714300000"	"0.1585700000"	"1"	"39"
n/a	"html-keyboard-response"	"95"	"304344"	"0.0-5.0-2.0-0.21"	"9mjruj"	"600"	"1024"	"chrome"	"109.0.0"	"FALSE"	"Windows 10"	"60.02"	"010"	n/a	n/a	n/a	n/a	n/a	n/a	"fixation"	n/a	n/a	n/a	n/a	"NULL"	n/a	"NULL"	"NULL"	"NULL"	"<p style=\"color: black; font-size: 80px; padding-left: 24%; padding-right: 30%; padding-top: 17%; padding-bottom: 17%\">+</p>"	"1226"	n/a	n/a	n/a	n/a	n/a	n/a	n/a	n/a	n/a
n/a	"image-keyboard-response"	"96"	"305243"	"0.0-5.0-2.0-1.21"	"9mjruj"	"600"	"1024"	"chrome"	"109.0.0"	"FALSE"	"Windows 10"	"60.02"	"010"	n/a	n/a	n/a	n/a	n/a	n/a	"Trial"	n/a	n/a	n/a	"898"	"arrowright"	n/a	"NULL"	"NULL"	"NULL"	"stimuli/Ebbinghaus_-0.1000_-0.15857.png"	n/a	"Ebbinghaus"	"arrowright"	"1231"	"TRUE"	"Ebbinghaus"	"-0.100000000"	"-0.158570000"	"1"	"40"
n/a	"html-keyboard-response"	"97"	"306654"	"0.0-5.0-2.0-0.22"	"9mjruj"	"600"	"1024"	"chrome"	"109.0.0"	"FALSE"	"Windows 10"	"60.02"	"010"	n/a	n/a	n/a	n/a	n/a	n/a	"fixation"	n/a	n/a	n/a	n/a	"NULL"	n/a	"NULL"	"NULL"	"NULL"	"<p style=\"color: black; font-size: 80px; padding-left: 27%; padding-right: 22%; padding-top: 23%; padding-bottom: 11%\">+</p>"	"1405"	n/a	n/a	n/a	n/a	n/a	n/a	n/a	n/a	n/a
n/a	"image-keyboard-response"	"98"	"307597"	"0.0-5.0-2.0-1.22"	"9mjruj"	"600"	"1024"	"chrome"	"109.0.0"	"FALSE"	"Windows 10"	"60.02"	"010"	n/a	n/a	n/a	n/a	n/a	n/a	"Trial"	n/a	n/a	n/a	"942"	"arrowleft"	n/a	"NULL"	"NULL"	"NULL"	"stimuli/Ebbinghaus_0.61429_0.28000.png"	n/a	"Ebbinghaus"	"arrowleft"	"1411"	"TRUE"	"Ebbinghaus"	"0.6142900000"	"0.2800000000"	"1"	"41"
n/a	"html-keyboard-response"	"99"	"308657"	"0.0-5.0-2.0-0.23"	"9mjruj"	"600"	"1024"	"chrome"	"109.0.0"	"FALSE"	"Windows 10"	"60.02"	"010"	n/a	n/a	n/a	n/a	n/a	n/a	"fixation"	n/a	n/a	n/a	n/a	"NULL"	n/a	"NULL"	"NULL"	"NULL"	"<p style=\"color: black; font-size: 80px; padding-left: 33%; padding-right: 29%; padding-top: 48%; padding-bottom: 18%\">+</p>"	"1040"	n/a	n/a	n/a	n/a	n/a	n/a	n/a	n/a	n/a
n/a	"image-keyboard-response"	"100"	"309333"	"0.0-5.0-2.0-1.23"	"9mjruj"	"600"	"1024"	"chrome"	"109.0.0"	"FALSE"	"Windows 10"	"60.02"	"010"	n/a	n/a	n/a	n/a	n/a	n/a	"Trial"	n/a	n/a	n/a	"673"	"arrowright"	n/a	"NULL"	"NULL"	"NULL"	"stimuli/Ebbinghaus_-0.87143_-0.2800.png"	n/a	"Ebbinghaus"	"arrowright"	"1060"	"TRUE"	"Ebbinghaus"	"-0.871430000"	"-0.280000000"	"1"	"42"
n/a	"html-keyboard-response"	"101"	"310439"	"0.0-5.0-2.0-0.24"	"9mjruj"	"600"	"1024"	"chrome"	"109.0.0"	"FALSE"	"Windows 10"	"60.02"	"010"	n/a	n/a	n/a	n/a	n/a	n/a	"fixation"	n/a	n/a	n/a	n/a	"NULL"	n/a	"NULL"	"NULL"	"NULL"	"<p style=\"color: black; font-size: 80px; padding-left: 36%; padding-right: 0%; padding-top: 18%; padding-bottom: 50%\">+</p>"	"1098"	n/a	n/a	n/a	n/a	n/a	n/a	n/a	n/a	n/a
n/a	"image-keyboard-response"	"102"	"311062"	"0.0-5.0-2.0-1.24"	"9mjruj"	"600"	"1024"	"chrome"	"109.0.0"	"FALSE"	"Windows 10"	"60.02"	"010"	n/a	n/a	n/a	n/a	n/a	n/a	"Trial"	n/a	n/a	n/a	"622"	"arrowright"	n/a	"NULL"	"NULL"	"NULL"	"stimuli/Ebbinghaus_0.35714_-0.2800.png"	n/a	"Ebbinghaus"	"arrowright"	"1106"	"TRUE"	"Ebbinghaus"	"0.3571400000"	"-0.280000000"	"1"	"43"
n/a	"html-keyboard-response"	"103"	"312528"	"0.0-5.0-2.0-0.25"	"9mjruj"	"600"	"1024"	"chrome"	"109.0.0"	"FALSE"	"Windows 10"	"60.02"	"010"	n/a	n/a	n/a	n/a	n/a	n/a	"fixation"	n/a	n/a	n/a	n/a	"NULL"	n/a	"NULL"	"NULL"	"NULL"	"<p style=\"color: black; font-size: 80px; padding-left: 13%; padding-right: 47%; padding-top: 21%; padding-bottom: 45%\">+</p>"	"1451"	n/a	n/a	n/a	n/a	n/a	n/a	n/a	n/a	n/a
n/a	"image-keyboard-response"	"104"	"313633"	"0.0-5.0-2.0-1.25"	"9mjruj"	"600"	"1024"	"chrome"	"109.0.0"	"FALSE"	"Windows 10"	"60.02"	"010"	n/a	n/a	n/a	n/a	n/a	n/a	"Trial"	n/a	n/a	n/a	"1104"	"arrowright"	n/a	"NULL"	"NULL"	"NULL"	"stimuli/Ebbinghaus_0.87143_-0.2150.png"	n/a	"Ebbinghaus"	"arrowright"	"1466"	"TRUE"	"Ebbinghaus"	"0.8714300000"	"-0.215000000"	"1"	"44"
n/a	"html-keyboard-response"	"105"	"315122"	"0.0-5.0-2.0-0.26"	"9mjruj"	"600"	"1024"	"chrome"	"109.0.0"	"FALSE"	"Windows 10"	"60.02"	"010"	n/a	n/a	n/a	n/a	n/a	n/a	"fixation"	n/a	n/a	n/a	n/a	"NULL"	n/a	"NULL"	"NULL"	"NULL"	"<p style=\"color: black; font-size: 80px; padding-left: 11%; padding-right: 43%; padding-top: 24%; padding-bottom: 15%\">+</p>"	"1482"	n/a	n/a	n/a	n/a	n/a	n/a	n/a	n/a	n/a
n/a	"image-keyboard-response"	"106"	"315796"	"0.0-5.0-2.0-1.26"	"9mjruj"	"600"	"1024"	"chrome"	"109.0.0"	"FALSE"	"Windows 10"	"60.02"	"010"	n/a	n/a	n/a	n/a	n/a	n/a	"Trial"	n/a	n/a	n/a	"673"	"arrowleft"	n/a	"NULL"	"NULL"	"NULL"	"stimuli/Ebbinghaus_-0.35714_0.21500.png"	n/a	"Ebbinghaus"	"arrowleft"	"1489"	"TRUE"	"Ebbinghaus"	"-0.357140000"	"0.2150000000"	"1"	"45"
n/a	"html-keyboard-response"	"107"	"316954"	"0.0-5.0-2.0-0.27"	"9mjruj"	"600"	"1024"	"chrome"	"109.0.0"	"FALSE"	"Windows 10"	"60.02"	"010"	n/a	n/a	n/a	n/a	n/a	n/a	"fixation"	n/a	n/a	n/a	n/a	"NULL"	n/a	"NULL"	"NULL"	"NULL"	"<p style=\"color: black; font-size: 80px; padding-left: 47%; padding-right: 34%; padding-top: 22%; padding-bottom: 21%\">+</p>"	"1142"	n/a	n/a	n/a	n/a	n/a	n/a	n/a	n/a	n/a
n/a	"image-keyboard-response"	"108"	"317733"	"0.0-5.0-2.0-1.27"	"9mjruj"	"600"	"1024"	"chrome"	"109.0.0"	"FALSE"	"Windows 10"	"60.02"	"010"	n/a	n/a	n/a	n/a	n/a	n/a	"Trial"	n/a	n/a	n/a	"777"	"arrowright"	n/a	"NULL"	"NULL"	"NULL"	"stimuli/Ebbinghaus_-0.1000_-0.2800.png"	n/a	"Ebbinghaus"	"arrowright"	"1158"	"TRUE"	"Ebbinghaus"	"-0.100000000"	"-0.280000000"	"1"	"46"
n/a	"html-keyboard-response"	"109"	"319094"	"0.0-5.0-2.0-0.28"	"9mjruj"	"600"	"1024"	"chrome"	"109.0.0"	"FALSE"	"Windows 10"	"60.02"	"010"	n/a	n/a	n/a	n/a	n/a	n/a	"fixation"	n/a	n/a	n/a	n/a	"NULL"	n/a	"NULL"	"NULL"	"NULL"	"<p style=\"color: black; font-size: 80px; padding-left: 4%; padding-right: 10%; padding-top: 46%; padding-bottom: 16%\">+</p>"	"1351"	n/a	n/a	n/a	n/a	n/a	n/a	n/a	n/a	n/a
n/a	"image-keyboard-response"	"110"	"319739"	"0.0-5.0-2.0-1.28"	"9mjruj"	"600"	"1024"	"chrome"	"109.0.0"	"FALSE"	"Windows 10"	"60.02"	"010"	n/a	n/a	n/a	n/a	n/a	n/a	"Trial"	n/a	n/a	n/a	"643"	"arrowleft"	n/a	"NULL"	"NULL"	"NULL"	"stimuli/Ebbinghaus_0.87143_0.21500.png"	n/a	"Ebbinghaus"	"arrowleft"	"1361"	"TRUE"	"Ebbinghaus"	"0.8714300000"	"0.2150000000"	"1"	"47"
n/a	"html-keyboard-response"	"111"	"320782"	"0.0-5.0-2.0-0.29"	"9mjruj"	"600"	"1024"	"chrome"	"109.0.0"	"FALSE"	"Windows 10"	"60.02"	"010"	n/a	n/a	n/a	n/a	n/a	n/a	"fixation"	n/a	n/a	n/a	n/a	"NULL"	n/a	"NULL"	"NULL"	"NULL"	"<p style=\"color: black; font-size: 80px; padding-left: 20%; padding-right: 22%; padding-top: 40%; padding-bottom: 44%\">+</p>"	"1026"	n/a	n/a	n/a	n/a	n/a	n/a	n/a	n/a	n/a
n/a	"image-keyboard-response"	"112"	"321524"	"0.0-5.0-2.0-1.29"	"9mjruj"	"600"	"1024"	"chrome"	"109.0.0"	"FALSE"	"Windows 10"	"60.02"	"010"	n/a	n/a	n/a	n/a	n/a	n/a	"Trial"	n/a	n/a	n/a	"741"	"arrowleft"	n/a	"NULL"	"NULL"	"NULL"	"stimuli/Ebbinghaus_0.35714_0.15857.png"	n/a	"Ebbinghaus"	"arrowleft"	"1043"	"TRUE"	"Ebbinghaus"	"0.3571400000"	"0.1585700000"	"1"	"48"
n/a	"html-keyboard-response"	"113"	"322599"	"0.0-5.0-2.0-0.30"	"9mjruj"	"600"	"1024"	"chrome"	"109.0.0"	"FALSE"	"Windows 10"	"60.02"	"010"	n/a	n/a	n/a	n/a	n/a	n/a	"fixation"	n/a	n/a	n/a	n/a	"NULL"	n/a	"NULL"	"NULL"	"NULL"	"<p style=\"color: black; font-size: 80px; padding-left: 34%; padding-right: 19%; padding-top: 20%; padding-bottom: 3%\">+</p>"	"1058"	n/a	n/a	n/a	n/a	n/a	n/a	n/a	n/a	n/a
n/a	"image-keyboard-response"	"114"	"323452"	"0.0-5.0-2.0-1.30"	"9mjruj"	"600"	"1024"	"chrome"	"109.0.0"	"FALSE"	"Windows 10"	"60.02"	"010"	n/a	n/a	n/a	n/a	n/a	n/a	"Trial"	n/a	n/a	n/a	"852"	"arrowleft"	n/a	"NULL"	"NULL"	"NULL"	"stimuli/Ebbinghaus_0.10000_0.21500.png"	n/a	"Ebbinghaus"	"arrowleft"	"1075"	"TRUE"	"Ebbinghaus"	"0.1000000000"	"0.2150000000"	"1"	"49"
n/a	"html-keyboard-response"	"115"	"324872"	"0.0-5.0-2.0-0.31"	"9mjruj"	"600"	"1024"	"chrome"	"109.0.0"	"FALSE"	"Windows 10"	"60.02"	"010"	n/a	n/a	n/a	n/a	n/a	n/a	"fixation"	n/a	n/a	n/a	n/a	"NULL"	n/a	"NULL"	"NULL"	"NULL"	"<p style=\"color: black; font-size: 80px; padding-left: 45%; padding-right: 36%; padding-top: 45%; padding-bottom: 40%\">+</p>"	"1415"	n/a	n/a	n/a	n/a	n/a	n/a	n/a	n/a	n/a
n/a	"image-keyboard-response"	"116"	"325664"	"0.0-5.0-2.0-1.31"	"9mjruj"	"600"	"1024"	"chrome"	"109.0.0"	"FALSE"	"Windows 10"	"60.02"	"010"	n/a	n/a	n/a	n/a	n/a	n/a	"Trial"	n/a	n/a	n/a	"791"	"arrowleft"	n/a	"NULL"	"NULL"	"NULL"	"stimuli/Ebbinghaus_0.35714_0.21500.png"	n/a	"Ebbinghaus"	"arrowleft"	"1420"	"TRUE"	"Ebbinghaus"	"0.3571400000"	"0.2150000000"	"1"	"50"
n/a	"html-keyboard-response"	"117"	"326723"	"0.0-5.0-2.0-0.32"	"9mjruj"	"600"	"1024"	"chrome"	"109.0.0"	"FALSE"	"Windows 10"	"60.02"	"010"	n/a	n/a	n/a	n/a	n/a	n/a	"fixation"	n/a	n/a	n/a	n/a	"NULL"	n/a	"NULL"	"NULL"	"NULL"	"<p style=\"color: black; font-size: 80px; padding-left: 14%; padding-right: 41%; padding-top: 22%; padding-bottom: 38%\">+</p>"	"1041"	n/a	n/a	n/a	n/a	n/a	n/a	n/a	n/a	n/a
n/a	"image-keyboard-response"	"118"	"327700"	"0.0-5.0-2.0-1.32"	"9mjruj"	"600"	"1024"	"chrome"	"109.0.0"	"FALSE"	"Windows 10"	"60.02"	"010"	n/a	n/a	n/a	n/a	n/a	n/a	"Trial"	n/a	n/a	n/a	"974"	"arrowright"	n/a	"NULL"	"NULL"	"NULL"	"stimuli/Ebbinghaus_-0.1000_-0.11071.png"	n/a	"Ebbinghaus"	"arrowright"	"1059"	"TRUE"	"Ebbinghaus"	"-0.100000000"	"-0.110710000"	"1"	"51"
n/a	"html-keyboard-response"	"119"	"329096"	"0.0-5.0-2.0-0.33"	"9mjruj"	"600"	"1024"	"chrome"	"109.0.0"	"FALSE"	"Windows 10"	"60.02"	"010"	n/a	n/a	n/a	n/a	n/a	n/a	"fixation"	n/a	n/a	n/a	n/a	"NULL"	n/a	"NULL"	"NULL"	"NULL"	"<p style=\"color: black; font-size: 80px; padding-left: 48%; padding-right: 41%; padding-top: 5%; padding-bottom: 24%\">+</p>"	"1378"	n/a	n/a	n/a	n/a	n/a	n/a	n/a	n/a	n/a
n/a	"image-keyboard-response"	"120"	"330830"	"0.0-5.0-2.0-1.33"	"9mjruj"	"600"	"1024"	"chrome"	"109.0.0"	"FALSE"	"Windows 10"	"60.02"	"010"	n/a	n/a	n/a	n/a	n/a	n/a	"Trial"	n/a	n/a	n/a	"1733"	"arrowleft"	n/a	"NULL"	"NULL"	"NULL"	"stimuli/Ebbinghaus_0.61429_-0.11071.png"	n/a	"Ebbinghaus"	"arrowright"	"1396"	"FALSE"	"Ebbinghaus"	"0.6142900000"	"-0.110710000"	"1"	"52"
n/a	"html-keyboard-response"	"121"	"332099"	"0.0-5.0-2.0-0.34"	"9mjruj"	"600"	"1024"	"chrome"	"109.0.0"	"FALSE"	"Windows 10"	"60.02"	"010"	n/a	n/a	n/a	n/a	n/a	n/a	"fixation"	n/a	n/a	n/a	n/a	"NULL"	n/a	"NULL"	"NULL"	"NULL"	"<p style=\"color: black; font-size: 80px; padding-left: 20%; padding-right: 20%; padding-top: 34%; padding-bottom: 15%\">+</p>"	"1247"	n/a	n/a	n/a	n/a	n/a	n/a	n/a	n/a	n/a
n/a	"image-keyboard-response"	"122"	"333256"	"0.0-5.0-2.0-1.34"	"9mjruj"	"600"	"1024"	"chrome"	"109.0.0"	"FALSE"	"Windows 10"	"60.02"	"010"	n/a	n/a	n/a	n/a	n/a	n/a	"Trial"	n/a	n/a	n/a	"1156"	"arrowleft"	n/a	"NULL"	"NULL"	"NULL"	"stimuli/Ebbinghaus_-0.1000_0.15857.png"	n/a	"Ebbinghaus"	"arrowleft"	"1269"	"TRUE"	"Ebbinghaus"	"-0.100000000"	"0.1585700000"	"1"	"53"
n/a	"html-keyboard-response"	"123"	"334495"	"0.0-5.0-2.0-0.35"	"9mjruj"	"600"	"1024"	"chrome"	"109.0.0"	"FALSE"	"Windows 10"	"60.02"	"010"	n/a	n/a	n/a	n/a	n/a	n/a	"fixation"	n/a	n/a	n/a	n/a	"NULL"	n/a	"NULL"	"NULL"	"NULL"	"<p style=\"color: black; font-size: 80px; padding-left: 22%; padding-right: 12%; padding-top: 11%; padding-bottom: 47%\">+</p>"	"1232"	n/a	n/a	n/a	n/a	n/a	n/a	n/a	n/a	n/a
n/a	"image-keyboard-response"	"124"	"335250"	"0.0-5.0-2.0-1.35"	"9mjruj"	"600"	"1024"	"chrome"	"109.0.0"	"FALSE"	"Windows 10"	"60.02"	"010"	n/a	n/a	n/a	n/a	n/a	n/a	"Trial"	n/a	n/a	n/a	"734"	"arrowright"	n/a	"NULL"	"NULL"	"NULL"	"stimuli/Ebbinghaus_0.35714_-0.11071.png"	n/a	"Ebbinghaus"	"arrowright"	"1239"	"TRUE"	"Ebbinghaus"	"0.3571400000"	"-0.110710000"	"1"	"54"
n/a	"html-keyboard-response"	"125"	"336705"	"0.0-5.0-2.0-0.36"	"9mjruj"	"600"	"1024"	"chrome"	"109.0.0"	"FALSE"	"Windows 10"	"60.02"	"010"	n/a	n/a	n/a	n/a	n/a	n/a	"fixation"	n/a	n/a	n/a	n/a	"NULL"	n/a	"NULL"	"NULL"	"NULL"	"<p style=\"color: black; font-size: 80px; padding-left: 17%; padding-right: 13%; padding-top: 47%; padding-bottom: 46%\">+</p>"	"1441"	n/a	n/a	n/a	n/a	n/a	n/a	n/a	n/a	n/a
n/a	"image-keyboard-response"	"126"	"337660"	"0.0-5.0-2.0-1.36"	"9mjruj"	"600"	"1024"	"chrome"	"109.0.0"	"FALSE"	"Windows 10"	"60.02"	"010"	n/a	n/a	n/a	n/a	n/a	n/a	"Trial"	n/a	n/a	n/a	"953"	"arrowright"	n/a	"NULL"	"NULL"	"NULL"	"stimuli/Ebbinghaus_0.10000_-0.15857.png"	n/a	"Ebbinghaus"	"arrowright"	"1455"	"TRUE"	"Ebbinghaus"	"0.1000000000"	"-0.158570000"	"1"	"55"
n/a	"html-keyboard-response"	"127"	"339142"	"0.0-5.0-2.0-0.37"	"9mjruj"	"600"	"1024"	"chrome"	"109.0.0"	"FALSE"	"Windows 10"	"60.02"	"010"	n/a	n/a	n/a	n/a	n/a	n/a	"fixation"	n/a	n/a	n/a	n/a	"NULL"	n/a	"NULL"	"NULL"	"NULL"	"<p style=\"color: black; font-size: 80px; padding-left: 14%; padding-right: 20%; padding-top: 25%; padding-bottom: 14%\">+</p>"	"1474"	n/a	n/a	n/a	n/a	n/a	n/a	n/a	n/a	n/a
n/a	"image-keyboard-response"	"128"	"339847"	"0.0-5.0-2.0-1.37"	"9mjruj"	"600"	"1024"	"chrome"	"109.0.0"	"FALSE"	"Windows 10"	"60.02"	"010"	n/a	n/a	n/a	n/a	n/a	n/a	"Trial"	n/a	n/a	n/a	"704"	"arrowleft"	n/a	"NULL"	"NULL"	"NULL"	"stimuli/Ebbinghaus_-0.35714_0.11071.png"	n/a	"Ebbinghaus"	"arrowleft"	"1482"	"TRUE"	"Ebbinghaus"	"-0.357140000"	"0.1107100000"	"1"	"56"
n/a	"html-keyboard-response"	"129"	"341179"	"0.0-5.0-2.0-0.38"	"9mjruj"	"600"	"1024"	"chrome"	"109.0.0"	"FALSE"	"Windows 10"	"60.02"	"010"	n/a	n/a	n/a	n/a	n/a	n/a	"fixation"	n/a	n/a	n/a	n/a	"NULL"	n/a	"NULL"	"NULL"	"NULL"	"<p style=\"color: black; font-size: 80px; padding-left: 29%; padding-right: 41%; padding-top: 48%; padding-bottom: 17%\">+</p>"	"1313"	n/a	n/a	n/a	n/a	n/a	n/a	n/a	n/a	n/a
n/a	"image-keyboard-response"	"130"	"341999"	"0.0-5.0-2.0-1.38"	"9mjruj"	"600"	"1024"	"chrome"	"109.0.0"	"FALSE"	"Windows 10"	"60.02"	"010"	n/a	n/a	n/a	n/a	n/a	n/a	"Trial"	n/a	n/a	n/a	"819"	"arrowleft"	n/a	"NULL"	"NULL"	"NULL"	"stimuli/Ebbinghaus_-0.87143_0.11071.png"	n/a	"Ebbinghaus"	"arrowleft"	"1332"	"TRUE"	"Ebbinghaus"	"-0.871430000"	"0.1107100000"	"1"	"57"
n/a	"html-keyboard-response"	"131"	"343129"	"0.0-5.0-2.0-0.39"	"9mjruj"	"600"	"1024"	"chrome"	"109.0.0"	"FALSE"	"Windows 10"	"60.02"	"010"	n/a	n/a	n/a	n/a	n/a	n/a	"fixation"	n/a	n/a	n/a	n/a	"NULL"	n/a	"NULL"	"NULL"	"NULL"	"<p style=\"color: black; font-size: 80px; padding-left: 36%; padding-right: 15%; padding-top: 48%; padding-bottom: 34%\">+</p>"	"1122"	n/a	n/a	n/a	n/a	n/a	n/a	n/a	n/a	n/a
n/a	"image-keyboard-response"	"132"	"343753"	"0.0-5.0-2.0-1.39"	"9mjruj"	"600"	"1024"	"chrome"	"109.0.0"	"FALSE"	"Windows 10"	"60.02"	"010"	n/a	n/a	n/a	n/a	n/a	n/a	"Trial"	n/a	n/a	n/a	"622"	"arrowright"	n/a	"NULL"	"NULL"	"NULL"	"stimuli/Ebbinghaus_-0.87143_-0.11071.png"	n/a	"Ebbinghaus"	"arrowright"	"1130"	"TRUE"	"Ebbinghaus"	"-0.871430000"	"-0.110710000"	"1"	"58"
n/a	"html-keyboard-response"	"133"	"345249"	"0.0-5.0-2.0-0.40"	"9mjruj"	"600"	"1024"	"chrome"	"109.0.0"	"FALSE"	"Windows 10"	"60.02"	"010"	n/a	n/a	n/a	n/a	n/a	n/a	"fixation"	n/a	n/a	n/a	n/a	"NULL"	n/a	"NULL"	"NULL"	"NULL"	"<p style=\"color: black; font-size: 80px; padding-left: 38%; padding-right: 2%; padding-top: 0%; padding-bottom: 47%\">+</p>"	"1483"	n/a	n/a	n/a	n/a	n/a	n/a	n/a	n/a	n/a
n/a	"image-keyboard-response"	"134"	"345895"	"0.0-5.0-2.0-1.40"	"9mjruj"	"600"	"1024"	"chrome"	"109.0.0"	"FALSE"	"Windows 10"	"60.02"	"010"	n/a	n/a	n/a	n/a	n/a	n/a	"Trial"	n/a	n/a	n/a	"645"	"arrowright"	n/a	"NULL"	"NULL"	"NULL"	"stimuli/Ebbinghaus_-0.61429_-0.11071.png"	n/a	"Ebbinghaus"	"arrowright"	"1496"	"TRUE"	"Ebbinghaus"	"-0.614290000"	"-0.110710000"	"1"	"59"
n/a	"html-keyboard-response"	"135"	"347088"	"0.0-5.0-2.0-0.41"	"9mjruj"	"600"	"1024"	"chrome"	"109.0.0"	"FALSE"	"Windows 10"	"60.02"	"010"	n/a	n/a	n/a	n/a	n/a	n/a	"fixation"	n/a	n/a	n/a	n/a	"NULL"	n/a	"NULL"	"NULL"	"NULL"	"<p style=\"color: black; font-size: 80px; padding-left: 44%; padding-right: 28%; padding-top: 37%; padding-bottom: 45%\">+</p>"	"1182"	n/a	n/a	n/a	n/a	n/a	n/a	n/a	n/a	n/a
n/a	"image-keyboard-response"	"136"	"347599"	"0.0-5.0-2.0-1.41"	"9mjruj"	"600"	"1024"	"chrome"	"109.0.0"	"FALSE"	"Windows 10"	"60.02"	"010"	n/a	n/a	n/a	n/a	n/a	n/a	"Trial"	n/a	n/a	n/a	"510"	"arrowleft"	n/a	"NULL"	"NULL"	"NULL"	"stimuli/Ebbinghaus_0.87143_0.11071.png"	n/a	"Ebbinghaus"	"arrowleft"	"1193"	"TRUE"	"Ebbinghaus"	"0.8714300000"	"0.1107100000"	"1"	"60"
n/a	"html-keyboard-response"	"137"	"348610"	"0.0-5.0-2.0-0.42"	"9mjruj"	"600"	"1024"	"chrome"	"109.0.0"	"FALSE"	"Windows 10"	"60.02"	"010"	n/a	n/a	n/a	n/a	n/a	n/a	"fixation"	n/a	n/a	n/a	n/a	"NULL"	n/a	"NULL"	"NULL"	"NULL"	"<p style=\"color: black; font-size: 80px; padding-left: 36%; padding-right: 39%; padding-top: 16%; padding-bottom: 34%\">+</p>"	"1001"	n/a	n/a	n/a	n/a	n/a	n/a	n/a	n/a	n/a
n/a	"image-keyboard-response"	"138"	"349277"	"0.0-5.0-2.0-1.42"	"9mjruj"	"600"	"1024"	"chrome"	"109.0.0"	"FALSE"	"Windows 10"	"60.02"	"010"	n/a	n/a	n/a	n/a	n/a	n/a	"Trial"	n/a	n/a	n/a	"666"	"arrowleft"	n/a	"NULL"	"NULL"	"NULL"	"stimuli/Ebbinghaus_-0.87143_0.28000.png"	n/a	"Ebbinghaus"	"arrowleft"	"1011"	"TRUE"	"Ebbinghaus"	"-0.871430000"	"0.2800000000"	"1"	"61"
n/a	"html-keyboard-response"	"139"	"350436"	"0.0-5.0-2.0-0.43"	"9mjruj"	"600"	"1024"	"chrome"	"109.0.0"	"FALSE"	"Windows 10"	"60.02"	"010"	n/a	n/a	n/a	n/a	n/a	n/a	"fixation"	n/a	n/a	n/a	n/a	"NULL"	n/a	"NULL"	"NULL"	"NULL"	"<p style=\"color: black; font-size: 80px; padding-left: 35%; padding-right: 21%; padding-top: 32%; padding-bottom: 27%\">+</p>"	"1138"	n/a	n/a	n/a	n/a	n/a	n/a	n/a	n/a	n/a
n/a	"image-keyboard-response"	"140"	"351233"	"0.0-5.0-2.0-1.43"	"9mjruj"	"600"	"1024"	"chrome"	"109.0.0"	"FALSE"	"Windows 10"	"60.02"	"010"	n/a	n/a	n/a	n/a	n/a	n/a	"Trial"	n/a	n/a	n/a	"797"	"arrowleft"	n/a	"NULL"	"NULL"	"NULL"	"stimuli/Ebbinghaus_0.61429_0.15857.png"	n/a	"Ebbinghaus"	"arrowleft"	"1159"	"TRUE"	"Ebbinghaus"	"0.6142900000"	"0.1585700000"	"1"	"62"
n/a	"html-keyboard-response"	"141"	"352524"	"0.0-5.0-2.0-0.44"	"9mjruj"	"600"	"1024"	"chrome"	"109.0.0"	"FALSE"	"Windows 10"	"60.02"	"010"	n/a	n/a	n/a	n/a	n/a	n/a	"fixation"	n/a	n/a	n/a	n/a	"NULL"	n/a	"NULL"	"NULL"	"NULL"	"<p style=\"color: black; font-size: 80px; padding-left: 13%; padding-right: 46%; padding-top: 36%; padding-bottom: 42%\">+</p>"	"1268"	n/a	n/a	n/a	n/a	n/a	n/a	n/a	n/a	n/a
n/a	"image-keyboard-response"	"142"	"353105"	"0.0-5.0-2.0-1.44"	"9mjruj"	"600"	"1024"	"chrome"	"109.0.0"	"FALSE"	"Windows 10"	"60.02"	"010"	n/a	n/a	n/a	n/a	n/a	n/a	"Trial"	n/a	n/a	n/a	"580"	"arrowright"	n/a	"NULL"	"NULL"	"NULL"	"stimuli/Ebbinghaus_0.61429_-0.15857.png"	n/a	"Ebbinghaus"	"arrowright"	"1291"	"TRUE"	"Ebbinghaus"	"0.6142900000"	"-0.158570000"	"1"	"63"
n/a	"html-keyboard-response"	"143"	"354564"	"0.0-5.0-2.0-0.45"	"9mjruj"	"600"	"1024"	"chrome"	"109.0.0"	"FALSE"	"Windows 10"	"60.02"	"010"	n/a	n/a	n/a	n/a	n/a	n/a	"fixation"	n/a	n/a	n/a	n/a	"NULL"	n/a	"NULL"	"NULL"	"NULL"	"<p style=\"color: black; font-size: 80px; padding-left: 43%; padding-right: 17%; padding-top: 8%; padding-bottom: 41%\">+</p>"	"1448"	n/a	n/a	n/a	n/a	n/a	n/a	n/a	n/a	n/a
n/a	"image-keyboard-response"	"144"	"355570"	"0.0-5.0-2.0-1.45"	"9mjruj"	"600"	"1024"	"chrome"	"109.0.0"	"FALSE"	"Windows 10"	"60.02"	"010"	n/a	n/a	n/a	n/a	n/a	n/a	"Trial"	n/a	n/a	n/a	"1006"	"arrowleft"	n/a	"NULL"	"NULL"	"NULL"	"stimuli/Ebbinghaus_0.87143_-0.15857.png"	n/a	"Ebbinghaus"	"arrowright"	"1459"	"FALSE"	"Ebbinghaus"	"0.8714300000"	"-0.158570000"	"1"	"64"
n/a	"html-keyboard-response"	"145"	"356955"	"0.0-5.0-2.0-0.46"	"9mjruj"	"600"	"1024"	"chrome"	"109.0.0"	"FALSE"	"Windows 10"	"60.02"	"010"	n/a	n/a	n/a	n/a	n/a	n/a	"fixation"	n/a	n/a	n/a	n/a	"NULL"	n/a	"NULL"	"NULL"	"NULL"	"<p style=\"color: black; font-size: 80px; padding-left: 45%; padding-right: 30%; padding-top: 29%; padding-bottom: 48%\">+</p>"	"1365"	n/a	n/a	n/a	n/a	n/a	n/a	n/a	n/a	n/a
n/a	"image-keyboard-response"	"146"	"358556"	"0.0-5.0-2.0-1.46"	"9mjruj"	"600"	"1024"	"chrome"	"109.0.0"	"FALSE"	"Windows 10"	"60.02"	"010"	n/a	n/a	n/a	n/a	n/a	n/a	"Trial"	n/a	n/a	n/a	"1600"	"arrowleft"	n/a	"NULL"	"NULL"	"NULL"	"stimuli/Ebbinghaus_0.61429_-0.2800.png"	n/a	"Ebbinghaus"	"arrowright"	"1385"	"FALSE"	"Ebbinghaus"	"0.6142900000"	"-0.280000000"	"1"	"65"
n/a	"html-keyboard-response"	"147"	"359577"	"0.0-5.0-2.0-0.47"	"9mjruj"	"600"	"1024"	"chrome"	"109.0.0"	"FALSE"	"Windows 10"	"60.02"	"010"	n/a	n/a	n/a	n/a	n/a	n/a	"fixation"	n/a	n/a	n/a	n/a	"NULL"	n/a	"NULL"	"NULL"	"NULL"	"<p style=\"color: black; font-size: 80px; padding-left: 22%; padding-right: 18%; padding-top: 3%; padding-bottom: 35%\">+</p>"	"1017"	n/a	n/a	n/a	n/a	n/a	n/a	n/a	n/a	n/a
n/a	"image-keyboard-response"	"148"	"360278"	"0.0-5.0-2.0-1.47"	"9mjruj"	"600"	"1024"	"chrome"	"109.0.0"	"FALSE"	"Windows 10"	"60.02"	"010"	n/a	n/a	n/a	n/a	n/a	n/a	"Trial"	n/a	n/a	n/a	"700"	"arrowright"	n/a	"NULL"	"NULL"	"NULL"	"stimuli/Ebbinghaus_0.35714_-0.2150.png"	n/a	"Ebbinghaus"	"arrowright"	"1021"	"TRUE"	"Ebbinghaus"	"0.3571400000"	"-0.215000000"	"1"	"66"
n/a	"html-keyboard-response"	"149"	"361337"	"0.0-5.0-2.0-0.48"	"9mjruj"	"600"	"1024"	"chrome"	"109.0.0"	"FALSE"	"Windows 10"	"60.02"	"010"	n/a	n/a	n/a	n/a	n/a	n/a	"fixation"	n/a	n/a	n/a	n/a	"NULL"	n/a	"NULL"	"NULL"	"NULL"	"<p style=\"color: black; font-size: 80px; padding-left: 40%; padding-right: 0%; padding-top: 20%; padding-bottom: 1%\">+</p>"	"1040"	n/a	n/a	n/a	n/a	n/a	n/a	n/a	n/a	n/a
n/a	"image-keyboard-response"	"150"	"361965"	"0.0-5.0-2.0-1.48"	"9mjruj"	"600"	"1024"	"chrome"	"109.0.0"	"FALSE"	"Windows 10"	"60.02"	"010"	n/a	n/a	n/a	n/a	n/a	n/a	"Trial"	n/a	n/a	n/a	"625"	"arrowleft"	n/a	"NULL"	"NULL"	"NULL"	"stimuli/Ebbinghaus_-0.87143_0.15857.png"	n/a	"Ebbinghaus"	"arrowleft"	"1059"	"TRUE"	"Ebbinghaus"	"-0.871430000"	"0.1585700000"	"1"	"67"
n/a	"html-keyboard-response"	"151"	"363299"	"0.0-5.0-2.0-0.49"	"9mjruj"	"600"	"1024"	"chrome"	"109.0.0"	"FALSE"	"Windows 10"	"60.02"	"010"	n/a	n/a	n/a	n/a	n/a	n/a	"fixation"	n/a	n/a	n/a	n/a	"NULL"	n/a	"NULL"	"NULL"	"NULL"	"<p style=\"color: black; font-size: 80px; padding-left: 11%; padding-right: 23%; padding-top: 10%; padding-bottom: 42%\">+</p>"	"1319"	n/a	n/a	n/a	n/a	n/a	n/a	n/a	n/a	n/a
n/a	"image-keyboard-response"	"152"	"363854"	"0.0-5.0-2.0-1.49"	"9mjruj"	"600"	"1024"	"chrome"	"109.0.0"	"FALSE"	"Windows 10"	"60.02"	"010"	n/a	n/a	n/a	n/a	n/a	n/a	"Trial"	n/a	n/a	n/a	"553"	"arrowleft"	n/a	"NULL"	"NULL"	"NULL"	"stimuli/Ebbinghaus_-0.61429_0.15857.png"	n/a	"Ebbinghaus"	"arrowleft"	"1334"	"TRUE"	"Ebbinghaus"	"-0.614290000"	"0.1585700000"	"1"	"68"
n/a	"html-keyboard-response"	"153"	"365116"	"0.0-5.0-2.0-0.50"	"9mjruj"	"600"	"1024"	"chrome"	"109.0.0"	"FALSE"	"Windows 10"	"60.02"	"010"	n/a	n/a	n/a	n/a	n/a	n/a	"fixation"	n/a	n/a	n/a	n/a	"NULL"	n/a	"NULL"	"NULL"	"NULL"	"<p style=\"color: black; font-size: 80px; padding-left: 21%; padding-right: 37%; padding-top: 47%; padding-bottom: 40%\">+</p>"	"1251"	n/a	n/a	n/a	n/a	n/a	n/a	n/a	n/a	n/a
n/a	"image-keyboard-response"	"154"	"365871"	"0.0-5.0-2.0-1.50"	"9mjruj"	"600"	"1024"	"chrome"	"109.0.0"	"FALSE"	"Windows 10"	"60.02"	"010"	n/a	n/a	n/a	n/a	n/a	n/a	"Trial"	n/a	n/a	n/a	"754"	"arrowleft"	n/a	"NULL"	"NULL"	"NULL"	"stimuli/Ebbinghaus_0.87143_-0.11071.png"	n/a	"Ebbinghaus"	"arrowright"	"1262"	"FALSE"	"Ebbinghaus"	"0.8714300000"	"-0.110710000"	"1"	"69"
n/a	"html-keyboard-response"	"155"	"367028"	"0.0-5.0-2.0-0.51"	"9mjruj"	"600"	"1024"	"chrome"	"109.0.0"	"FALSE"	"Windows 10"	"60.02"	"010"	n/a	n/a	n/a	n/a	n/a	n/a	"fixation"	n/a	n/a	n/a	n/a	"NULL"	n/a	"NULL"	"NULL"	"NULL"	"<p style=\"color: black; font-size: 80px; padding-left: 36%; padding-right: 36%; padding-top: 27%; padding-bottom: 34%\">+</p>"	"1141"	n/a	n/a	n/a	n/a	n/a	n/a	n/a	n/a	n/a
n/a	"image-keyboard-response"	"156"	"367789"	"0.0-5.0-2.0-1.51"	"9mjruj"	"600"	"1024"	"chrome"	"109.0.0"	"FALSE"	"Windows 10"	"60.02"	"010"	n/a	n/a	n/a	n/a	n/a	n/a	"Trial"	n/a	n/a	n/a	"758"	"arrowright"	n/a	"NULL"	"NULL"	"NULL"	"stimuli/Ebbinghaus_-0.35714_-0.2150.png"	n/a	"Ebbinghaus"	"arrowright"	"1157"	"TRUE"	"Ebbinghaus"	"-0.357140000"	"-0.215000000"	"1"	"70"
n/a	"html-keyboard-response"	"157"	"368813"	"0.0-5.0-2.0-0.52"	"9mjruj"	"600"	"1024"	"chrome"	"109.0.0"	"FALSE"	"Windows 10"	"60.02"	"010"	n/a	n/a	n/a	n/a	n/a	n/a	"fixation"	n/a	n/a	n/a	n/a	"NULL"	n/a	"NULL"	"NULL"	"NULL"	"<p style=\"color: black; font-size: 80px; padding-left: 37%; padding-right: 37%; padding-top: 12%; padding-bottom: 1%\">+</p>"	"1007"	n/a	n/a	n/a	n/a	n/a	n/a	n/a	n/a	n/a
n/a	"image-keyboard-response"	"158"	"369324"	"0.0-5.0-2.0-1.52"	"9mjruj"	"600"	"1024"	"chrome"	"109.0.0"	"FALSE"	"Windows 10"	"60.02"	"010"	n/a	n/a	n/a	n/a	n/a	n/a	"Trial"	n/a	n/a	n/a	"509"	"arrowleft"	n/a	"NULL"	"NULL"	"NULL"	"stimuli/Ebbinghaus_-0.61429_0.21500.png"	n/a	"Ebbinghaus"	"arrowleft"	"1024"	"TRUE"	"Ebbinghaus"	"-0.614290000"	"0.2150000000"	"1"	"71"
n/a	"html-keyboard-response"	"159"	"370618"	"0.0-5.0-2.0-0.53"	"9mjruj"	"600"	"1024"	"chrome"	"109.0.0"	"FALSE"	"Windows 10"	"60.02"	"010"	n/a	n/a	n/a	n/a	n/a	n/a	"fixation"	n/a	n/a	n/a	n/a	"NULL"	n/a	"NULL"	"NULL"	"NULL"	"<p style=\"color: black; font-size: 80px; padding-left: 32%; padding-right: 25%; padding-top: 41%; padding-bottom: 31%\">+</p>"	"1286"	n/a	n/a	n/a	n/a	n/a	n/a	n/a	n/a	n/a
n/a	"image-keyboard-response"	"160"	"371246"	"0.0-5.0-2.0-1.53"	"9mjruj"	"600"	"1024"	"chrome"	"109.0.0"	"FALSE"	"Windows 10"	"60.02"	"010"	n/a	n/a	n/a	n/a	n/a	n/a	"Trial"	n/a	n/a	n/a	"628"	"arrowleft"	n/a	"NULL"	"NULL"	"NULL"	"stimuli/Ebbinghaus_0.61429_0.11071.png"	n/a	"Ebbinghaus"	"arrowleft"	"1294"	"TRUE"	"Ebbinghaus"	"0.6142900000"	"0.1107100000"	"1"	"72"
n/a	"html-keyboard-response"	"161"	"372376"	"0.0-5.0-2.0-0.54"	"9mjruj"	"600"	"1024"	"chrome"	"109.0.0"	"FALSE"	"Windows 10"	"60.02"	"010"	n/a	n/a	n/a	n/a	n/a	n/a	"fixation"	n/a	n/a	n/a	n/a	"NULL"	n/a	"NULL"	"NULL"	"NULL"	"<p style=\"color: black; font-size: 80px; padding-left: 41%; padding-right: 10%; padding-top: 42%; padding-bottom: 47%\">+</p>"	"1118"	n/a	n/a	n/a	n/a	n/a	n/a	n/a	n/a	n/a
n/a	"image-keyboard-response"	"162"	"372924"	"0.0-5.0-2.0-1.54"	"9mjruj"	"600"	"1024"	"chrome"	"109.0.0"	"FALSE"	"Windows 10"	"60.02"	"010"	n/a	n/a	n/a	n/a	n/a	n/a	"Trial"	n/a	n/a	n/a	"548"	"arrowright"	n/a	"NULL"	"NULL"	"NULL"	"stimuli/Ebbinghaus_0.87143_-0.2800.png"	n/a	"Ebbinghaus"	"arrowright"	"1130"	"TRUE"	"Ebbinghaus"	"0.8714300000"	"-0.280000000"	"1"	"73"
n/a	"html-keyboard-response"	"163"	"373972"	"0.0-5.0-2.0-0.55"	"9mjruj"	"600"	"1024"	"chrome"	"109.0.0"	"FALSE"	"Windows 10"	"60.02"	"010"	n/a	n/a	n/a	n/a	n/a	n/a	"fixation"	n/a	n/a	n/a	n/a	"NULL"	n/a	"NULL"	"NULL"	"NULL"	"<p style=\"color: black; font-size: 80px; padding-left: 15%; padding-right: 48%; padding-top: 42%; padding-bottom: 34%\">+</p>"	"1024"	n/a	n/a	n/a	n/a	n/a	n/a	n/a	n/a	n/a
n/a	"image-keyboard-response"	"164"	"374821"	"0.0-5.0-2.0-1.55"	"9mjruj"	"600"	"1024"	"chrome"	"109.0.0"	"FALSE"	"Windows 10"	"60.02"	"010"	n/a	n/a	n/a	n/a	n/a	n/a	"Trial"	n/a	n/a	n/a	"847"	"arrowright"	n/a	"NULL"	"NULL"	"NULL"	"stimuli/Ebbinghaus_-0.1000_-0.2150.png"	n/a	"Ebbinghaus"	"arrowright"	"1048"	"TRUE"	"Ebbinghaus"	"-0.100000000"	"-0.215000000"	"1"	"74"
n/a	"html-keyboard-response"	"165"	"376247"	"0.0-5.0-2.0-0.56"	"9mjruj"	"600"	"1024"	"chrome"	"109.0.0"	"FALSE"	"Windows 10"	"60.02"	"010"	n/a	n/a	n/a	n/a	n/a	n/a	"fixation"	n/a	n/a	n/a	n/a	"NULL"	n/a	"NULL"	"NULL"	"NULL"	"<p style=\"color: black; font-size: 80px; padding-left: 37%; padding-right: 37%; padding-top: 4%; padding-bottom: 4%\">+</p>"	"1411"	n/a	n/a	n/a	n/a	n/a	n/a	n/a	n/a	n/a
n/a	"image-keyboard-response"	"166"	"376847"	"0.0-5.0-2.0-1.56"	"9mjruj"	"600"	"1024"	"chrome"	"109.0.0"	"FALSE"	"Windows 10"	"60.02"	"010"	n/a	n/a	n/a	n/a	n/a	n/a	"Trial"	n/a	n/a	n/a	"599"	"arrowright"	n/a	"NULL"	"NULL"	"NULL"	"stimuli/Ebbinghaus_0.10000_-0.2800.png"	n/a	"Ebbinghaus"	"arrowright"	"1426"	"TRUE"	"Ebbinghaus"	"0.1000000000"	"-0.280000000"	"1"	"75"
n/a	"html-keyboard-response"	"167"	"378065"	"0.0-5.0-2.0-0.57"	"9mjruj"	"600"	"1024"	"chrome"	"109.0.0"	"FALSE"	"Windows 10"	"60.02"	"010"	n/a	n/a	n/a	n/a	n/a	n/a	"fixation"	n/a	n/a	n/a	n/a	"NULL"	n/a	"NULL"	"NULL"	"NULL"	"<p style=\"color: black; font-size: 80px; padding-left: 22%; padding-right: 10%; padding-top: 20%; padding-bottom: 15%\">+</p>"	"1211"	n/a	n/a	n/a	n/a	n/a	n/a	n/a	n/a	n/a
n/a	"image-keyboard-response"	"168"	"378712"	"0.0-5.0-2.0-1.57"	"9mjruj"	"600"	"1024"	"chrome"	"109.0.0"	"FALSE"	"Windows 10"	"60.02"	"010"	n/a	n/a	n/a	n/a	n/a	n/a	"Trial"	n/a	n/a	n/a	"646"	"arrowleft"	n/a	"NULL"	"NULL"	"NULL"	"stimuli/Ebbinghaus_-0.61429_0.11071.png"	n/a	"Ebbinghaus"	"arrowleft"	"1218"	"TRUE"	"Ebbinghaus"	"-0.614290000"	"0.1107100000"	"1"	"76"
n/a	"html-keyboard-response"	"169"	"379873"	"0.0-5.0-2.0-0.58"	"9mjruj"	"600"	"1024"	"chrome"	"109.0.0"	"FALSE"	"Windows 10"	"60.02"	"010"	n/a	n/a	n/a	n/a	n/a	n/a	"fixation"	n/a	n/a	n/a	n/a	"NULL"	n/a	"NULL"	"NULL"	"NULL"	"<p style=\"color: black; font-size: 80px; padding-left: 16%; padding-right: 7%; padding-top: 47%; padding-bottom: 43%\">+</p>"	"1146"	n/a	n/a	n/a	n/a	n/a	n/a	n/a	n/a	n/a
n/a	"image-keyboard-response"	"170"	"380486"	"0.0-5.0-2.0-1.58"	"9mjruj"	"600"	"1024"	"chrome"	"109.0.0"	"FALSE"	"Windows 10"	"60.02"	"010"	n/a	n/a	n/a	n/a	n/a	n/a	"Trial"	n/a	n/a	n/a	"611"	"arrowleft"	n/a	"NULL"	"NULL"	"NULL"	"stimuli/Ebbinghaus_0.10000_0.15857.png"	n/a	"Ebbinghaus"	"arrowleft"	"1161"	"TRUE"	"Ebbinghaus"	"0.1000000000"	"0.1585700000"	"1"	"77"
n/a	"html-keyboard-response"	"171"	"381567"	"0.0-5.0-2.0-0.59"	"9mjruj"	"600"	"1024"	"chrome"	"109.0.0"	"FALSE"	"Windows 10"	"60.02"	"010"	n/a	n/a	n/a	n/a	n/a	n/a	"fixation"	n/a	n/a	n/a	n/a	"NULL"	n/a	"NULL"	"NULL"	"NULL"	"<p style=\"color: black; font-size: 80px; padding-left: 21%; padding-right: 22%; padding-top: 1%; padding-bottom: 4%\">+</p>"	"1077"	n/a	n/a	n/a	n/a	n/a	n/a	n/a	n/a	n/a
n/a	"image-keyboard-response"	"172"	"382224"	"0.0-5.0-2.0-1.59"	"9mjruj"	"600"	"1024"	"chrome"	"109.0.0"	"FALSE"	"Windows 10"	"60.02"	"010"	n/a	n/a	n/a	n/a	n/a	n/a	"Trial"	n/a	n/a	n/a	"656"	"arrowright"	n/a	"NULL"	"NULL"	"NULL"	"stimuli/Ebbinghaus_-0.61429_-0.2800.png"	n/a	"Ebbinghaus"	"arrowright"	"1081"	"TRUE"	"Ebbinghaus"	"-0.614290000"	"-0.280000000"	"1"	"78"
n/a	"html-keyboard-response"	"173"	"383440"	"0.0-5.0-2.0-0.60"	"9mjruj"	"600"	"1024"	"chrome"	"109.0.0"	"FALSE"	"Windows 10"	"60.02"	"010"	n/a	n/a	n/a	n/a	n/a	n/a	"fixation"	n/a	n/a	n/a	n/a	"NULL"	n/a	"NULL"	"NULL"	"NULL"	"<p style=\"color: black; font-size: 80px; padding-left: 36%; padding-right: 6%; padding-top: 27%; padding-bottom: 10%\">+</p>"	"1197"	n/a	n/a	n/a	n/a	n/a	n/a	n/a	n/a	n/a
n/a	"image-keyboard-response"	"174"	"384002"	"0.0-5.0-2.0-1.60"	"9mjruj"	"600"	"1024"	"chrome"	"109.0.0"	"FALSE"	"Windows 10"	"60.02"	"010"	n/a	n/a	n/a	n/a	n/a	n/a	"Trial"	n/a	n/a	n/a	"561"	"arrowleft"	n/a	"NULL"	"NULL"	"NULL"	"stimuli/Ebbinghaus_0.87143_0.28000.png"	n/a	"Ebbinghaus"	"arrowleft"	"1216"	"TRUE"	"Ebbinghaus"	"0.8714300000"	"0.2800000000"	"1"	"79"
n/a	"html-keyboard-response"	"175"	"385415"	"0.0-5.0-2.0-0.61"	"9mjruj"	"600"	"1024"	"chrome"	"109.0.0"	"FALSE"	"Windows 10"	"60.02"	"010"	n/a	n/a	n/a	n/a	n/a	n/a	"fixation"	n/a	n/a	n/a	n/a	"NULL"	n/a	"NULL"	"NULL"	"NULL"	"<p style=\"color: black; font-size: 80px; padding-left: 27%; padding-right: 8%; padding-top: 9%; padding-bottom: 43%\">+</p>"	"1405"	n/a	n/a	n/a	n/a	n/a	n/a	n/a	n/a	n/a
n/a	"image-keyboard-response"	"176"	"386070"	"0.0-5.0-2.0-1.61"	"9mjruj"	"600"	"1024"	"chrome"	"109.0.0"	"FALSE"	"Windows 10"	"60.02"	"010"	n/a	n/a	n/a	n/a	n/a	n/a	"Trial"	n/a	n/a	n/a	"655"	"arrowleft"	n/a	"NULL"	"NULL"	"NULL"	"stimuli/Ebbinghaus_-0.35714_0.28000.png"	n/a	"Ebbinghaus"	"arrowleft"	"1413"	"TRUE"	"Ebbinghaus"	"-0.357140000"	"0.2800000000"	"1"	"80"
n/a	"html-keyboard-response"	"177"	"387417"	"0.0-5.0-2.0-0.62"	"9mjruj"	"600"	"1024"	"chrome"	"109.0.0"	"FALSE"	"Windows 10"	"60.02"	"010"	n/a	n/a	n/a	n/a	n/a	n/a	"fixation"	n/a	n/a	n/a	n/a	"NULL"	n/a	"NULL"	"NULL"	"NULL"	"<p style=\"color: black; font-size: 80px; padding-left: 37%; padding-right: 27%; padding-top: 41%; padding-bottom: 50%\">+</p>"	"1330"	n/a	n/a	n/a	n/a	n/a	n/a	n/a	n/a	n/a
n/a	"image-keyboard-response"	"178"	"388319"	"0.0-5.0-2.0-1.62"	"9mjruj"	"600"	"1024"	"chrome"	"109.0.0"	"FALSE"	"Windows 10"	"60.02"	"010"	n/a	n/a	n/a	n/a	n/a	n/a	"Trial"	n/a	n/a	n/a	"900"	"arrowright"	n/a	"NULL"	"NULL"	"NULL"	"stimuli/Ebbinghaus_0.10000_-0.11071.png"	n/a	"Ebbinghaus"	"arrowright"	"1347"	"TRUE"	"Ebbinghaus"	"0.1000000000"	"-0.110710000"	"1"	"81"
n/a	"html-keyboard-response"	"179"	"389537"	"0.0-5.0-2.0-0.63"	"9mjruj"	"600"	"1024"	"chrome"	"109.0.0"	"FALSE"	"Windows 10"	"60.02"	"010"	n/a	n/a	n/a	n/a	n/a	n/a	"fixation"	n/a	n/a	n/a	n/a	"NULL"	n/a	"NULL"	"NULL"	"NULL"	"<p style=\"color: black; font-size: 80px; padding-left: 12%; padding-right: 39%; padding-top: 26%; padding-bottom: 34%\">+</p>"	"1204"	n/a	n/a	n/a	n/a	n/a	n/a	n/a	n/a	n/a
n/a	"image-keyboard-response"	"180"	"390179"	"0.0-5.0-2.0-1.63"	"9mjruj"	"600"	"1024"	"chrome"	"109.0.0"	"FALSE"	"Windows 10"	"60.02"	"010"	n/a	n/a	n/a	n/a	n/a	n/a	"Trial"	n/a	n/a	n/a	"640"	"arrowleft"	n/a	"NULL"	"NULL"	"NULL"	"stimuli/Ebbinghaus_0.10000_0.28000.png"	n/a	"Ebbinghaus"	"arrowleft"	"1218"	"TRUE"	"Ebbinghaus"	"0.1000000000"	"0.2800000000"	"1"	"82"
n/a	"html-button-response"	"181"	"416931"	"0.0-5.0-3.0"	"9mjruj"	"600"	"1024"	"chrome"	"109.0.0"	"FALSE"	"Windows 10"	"60.02"	"010"	n/a	n/a	n/a	n/a	n/a	n/a	"block_results"	n/a	n/a	n/a	"26749"	"0"	n/a	"NULL"	"NULL"	"NULL"	"<p>Your score for this illusion is <p style=\"color: black; font-size: 48px; font-weight: bold;\">75.7 %</p><hr><p>Can you do better in the next illusion?</p>"	n/a	n/a	n/a	n/a	n/a	n/a	n/a	n/a	n/a	n/a
"TRUE"	"preload"	"182"	"417085"	"0.0-6.0-0.0"	"9mjruj"	"600"	"1024"	"chrome"	"109.0.0"	"FALSE"	"Windows 10"	"60.02"	"010"	n/a	n/a	n/a	n/a	n/a	n/a	n/a	n/a	n/a	n/a	n/a	"NULL"	"FALSE"	"list()"	"list()"	"list()"	n/a	n/a	n/a	n/a	n/a	n/a	n/a	n/a	n/a	n/a	n/a
n/a	"html-keyboard-response"	"183"	"420206"	"0.0-6.0-1.0"	"9mjruj"	"600"	"1024"	"chrome"	"109.0.0"	"FALSE"	"Windows 10"	"60.02"	"010"	n/a	n/a	n/a	n/a	n/a	n/a	n/a	n/a	n/a	n/a	"3121"	"enter"	n/a	"NULL"	"NULL"	"NULL"	"<p><b>Part 2/6</b></p><p>In this part, two red lines will appear side by side.</p><p>Your task is to tell <b>which line is longer</b> in length, regardless of their orientation, as fast as you can, and without making errors.</p><p>Don't get distracted by the orientation of the lines!</p><p>Press <b>the LEFT or the RIGHT arrow</b> to indicate which <b>line is the longer one.</b></p><div style='float: center'><img src='materials/instructions/VerticalHorizontal_Demo.png' height='300'></img><p><img src='utils/answer/answer_leftright_keyboard.PNG' height='150'></img></p><p class='small'>In this example, the correct answer is the <b>LEFT arrow</b>.</p></div><p>Are you ready? <b>Press ENTER to start</b></p>"	n/a	n/a	n/a	n/a	n/a	n/a	n/a	n/a	n/a	n/a
n/a	"html-keyboard-response"	"184"	"421874"	"0.0-6.0-2.0-0.0"	"9mjruj"	"600"	"1024"	"chrome"	"109.0.0"	"FALSE"	"Windows 10"	"60.02"	"010"	n/a	n/a	n/a	n/a	n/a	n/a	"fixation"	n/a	n/a	n/a	n/a	"NULL"	n/a	"NULL"	"NULL"	"NULL"	"<p style=\"color: black; font-size: 80px; padding-left: 25%; padding-right: 14%; padding-top: 24%; padding-bottom: 24%\">+</p>"	"1149"	n/a	n/a	n/a	n/a	n/a	n/a	n/a	n/a	n/a
n/a	"image-keyboard-response"	"185"	"422398"	"0.0-6.0-2.0-1.0"	"9mjruj"	"600"	"1024"	"chrome"	"109.0.0"	"FALSE"	"Windows 10"	"60.02"	"010"	n/a	n/a	n/a	n/a	n/a	n/a	"Trial"	n/a	n/a	n/a	"523"	"arrowright"	n/a	"NULL"	"NULL"	"NULL"	"stimuli/VerticalHorizontal_-20.27143_-0.2250.png"	n/a	"VerticalHorizontal"	"arrowright"	"1668"	"TRUE"	"VerticalHorizontal"	"-20.27143000"	"-0.225000000"	"2"	"1"
n/a	"html-keyboard-response"	"186"	"423740"	"0.0-6.0-2.0-0.1"	"9mjruj"	"600"	"1024"	"chrome"	"109.0.0"	"FALSE"	"Windows 10"	"60.02"	"010"	n/a	n/a	n/a	n/a	n/a	n/a	"fixation"	n/a	n/a	n/a	n/a	"NULL"	n/a	"NULL"	"NULL"	"NULL"	"<p style=\"color: black; font-size: 80px; padding-left: 26%; padding-right: 16%; padding-top: 16%; padding-bottom: 13%\">+</p>"	"1321"	n/a	n/a	n/a	n/a	n/a	n/a	n/a	n/a	n/a
n/a	"image-keyboard-response"	"187"	"424446"	"0.0-6.0-2.0-1.1"	"9mjruj"	"600"	"1024"	"chrome"	"109.0.0"	"FALSE"	"Windows 10"	"60.02"	"010"	n/a	n/a	n/a	n/a	n/a	n/a	"Trial"	n/a	n/a	n/a	"705"	"arrowleft"	n/a	"NULL"	"NULL"	"NULL"	"stimuli/VerticalHorizontal_28.75714_0.16217.png"	n/a	"VerticalHorizontal"	"arrowleft"	"1342"	"TRUE"	"VerticalHorizontal"	"28.757140000"	"0.1621700000"	"2"	"2"
n/a	"html-keyboard-response"	"188"	"425894"	"0.0-6.0-2.0-0.2"	"9mjruj"	"600"	"1024"	"chrome"	"109.0.0"	"FALSE"	"Windows 10"	"60.02"	"010"	n/a	n/a	n/a	n/a	n/a	n/a	"fixation"	n/a	n/a	n/a	n/a	"NULL"	n/a	"NULL"	"NULL"	"NULL"	"<p style=\"color: black; font-size: 80px; padding-left: 4%; padding-right: 38%; padding-top: 18%; padding-bottom: 7%\">+</p>"	"1441"	n/a	n/a	n/a	n/a	n/a	n/a	n/a	n/a	n/a
n/a	"image-keyboard-response"	"189"	"426410"	"0.0-6.0-2.0-1.2"	"9mjruj"	"600"	"1024"	"chrome"	"109.0.0"	"FALSE"	"Windows 10"	"60.02"	"010"	n/a	n/a	n/a	n/a	n/a	n/a	"Trial"	n/a	n/a	n/a	"514"	"arrowright"	n/a	"NULL"	"NULL"	"NULL"	"stimuli/VerticalHorizontal_-11.78571_-0.16217.png"	n/a	"VerticalHorizontal"	"arrowright"	"1448"	"TRUE"	"VerticalHorizontal"	"-11.78571000"	"-0.162170000"	"2"	"3"
n/a	"html-keyboard-response"	"190"	"427547"	"0.0-6.0-2.0-0.3"	"9mjruj"	"600"	"1024"	"chrome"	"109.0.0"	"FALSE"	"Windows 10"	"60.02"	"010"	n/a	n/a	n/a	n/a	n/a	n/a	"fixation"	n/a	n/a	n/a	n/a	"NULL"	n/a	"NULL"	"NULL"	"NULL"	"<p style=\"color: black; font-size: 80px; padding-left: 36%; padding-right: 12%; padding-top: 32%; padding-bottom: 23%\">+</p>"	"1118"	n/a	n/a	n/a	n/a	n/a	n/a	n/a	n/a	n/a
n/a	"image-keyboard-response"	"191"	"428070"	"0.0-6.0-2.0-1.3"	"9mjruj"	"600"	"1024"	"chrome"	"109.0.0"	"FALSE"	"Windows 10"	"60.02"	"010"	n/a	n/a	n/a	n/a	n/a	n/a	"Trial"	n/a	n/a	n/a	"522"	"arrowright"	n/a	"NULL"	"NULL"	"NULL"	"stimuli/VerticalHorizontal_-11.78571_-0.2250.png"	n/a	"VerticalHorizontal"	"arrowright"	"1137"	"TRUE"	"VerticalHorizontal"	"-11.78571000"	"-0.225000000"	"2"	"4"
n/a	"html-keyboard-response"	"192"	"429225"	"0.0-6.0-2.0-0.4"	"9mjruj"	"600"	"1024"	"chrome"	"109.0.0"	"FALSE"	"Windows 10"	"60.02"	"010"	n/a	n/a	n/a	n/a	n/a	n/a	"fixation"	n/a	n/a	n/a	n/a	"NULL"	n/a	"NULL"	"NULL"	"NULL"	"<p style=\"color: black; font-size: 80px; padding-left: 6%; padding-right: 31%; padding-top: 40%; padding-bottom: 6%\">+</p>"	"1148"	n/a	n/a	n/a	n/a	n/a	n/a	n/a	n/a	n/a
n/a	"image-keyboard-response"	"193"	"429950"	"0.0-6.0-2.0-1.4"	"9mjruj"	"600"	"1024"	"chrome"	"109.0.0"	"FALSE"	"Windows 10"	"60.02"	"010"	n/a	n/a	n/a	n/a	n/a	n/a	"Trial"	n/a	n/a	n/a	"724"	"arrowleft"	n/a	"NULL"	"NULL"	"NULL"	"stimuli/VerticalHorizontal_11.78571_-0.2250.png"	n/a	"VerticalHorizontal"	"arrowright"	"1155"	"FALSE"	"VerticalHorizontal"	"11.785710000"	"-0.225000000"	"2"	"5"
n/a	"html-keyboard-response"	"194"	"431071"	"0.0-6.0-2.0-0.5"	"9mjruj"	"600"	"1024"	"chrome"	"109.0.0"	"FALSE"	"Windows 10"	"60.02"	"010"	n/a	n/a	n/a	n/a	n/a	n/a	"fixation"	n/a	n/a	n/a	n/a	"NULL"	n/a	"NULL"	"NULL"	"NULL"	"<p style=\"color: black; font-size: 80px; padding-left: 42%; padding-right: 7%; padding-top: 35%; padding-bottom: 42%\">+</p>"	"1107"	n/a	n/a	n/a	n/a	n/a	n/a	n/a	n/a	n/a
n/a	"image-keyboard-response"	"195"	"431680"	"0.0-6.0-2.0-1.5"	"9mjruj"	"600"	"1024"	"chrome"	"109.0.0"	"FALSE"	"Windows 10"	"60.02"	"010"	n/a	n/a	n/a	n/a	n/a	n/a	"Trial"	n/a	n/a	n/a	"606"	"arrowleft"	n/a	"NULL"	"NULL"	"NULL"	"stimuli/VerticalHorizontal_-11.78571_0.22500.png"	n/a	"VerticalHorizontal"	"arrowleft"	"1121"	"TRUE"	"VerticalHorizontal"	"-11.78571000"	"0.2250000000"	"2"	"6"
n/a	"html-keyboard-response"	"196"	"432827"	"0.0-6.0-2.0-0.6"	"9mjruj"	"600"	"1024"	"chrome"	"109.0.0"	"FALSE"	"Windows 10"	"60.02"	"010"	n/a	n/a	n/a	n/a	n/a	n/a	"fixation"	n/a	n/a	n/a	n/a	"NULL"	n/a	"NULL"	"NULL"	"NULL"	"<p style=\"color: black; font-size: 80px; padding-left: 8%; padding-right: 4%; padding-top: 9%; padding-bottom: 49%\">+</p>"	"1133"	n/a	n/a	n/a	n/a	n/a	n/a	n/a	n/a	n/a
n/a	"image-keyboard-response"	"197"	"433989"	"0.0-6.0-2.0-1.6"	"9mjruj"	"600"	"1024"	"chrome"	"109.0.0"	"FALSE"	"Windows 10"	"60.02"	"010"	n/a	n/a	n/a	n/a	n/a	n/a	"Trial"	n/a	n/a	n/a	"1160"	"arrowleft"	n/a	"NULL"	"NULL"	"NULL"	"stimuli/VerticalHorizontal_11.78571_0.22500.png"	n/a	"VerticalHorizontal"	"arrowleft"	"1147"	"TRUE"	"VerticalHorizontal"	"11.785710000"	"0.2250000000"	"2"	"7"
n/a	"html-keyboard-response"	"198"	"435403"	"0.0-6.0-2.0-0.7"	"9mjruj"	"600"	"1024"	"chrome"	"109.0.0"	"FALSE"	"Windows 10"	"60.02"	"010"	n/a	n/a	n/a	n/a	n/a	n/a	"fixation"	n/a	n/a	n/a	n/a	"NULL"	n/a	"NULL"	"NULL"	"NULL"	"<p style=\"color: black; font-size: 80px; padding-left: 9%; padding-right: 39%; padding-top: 35%; padding-bottom: 32%\">+</p>"	"1393"	n/a	n/a	n/a	n/a	n/a	n/a	n/a	n/a	n/a
n/a	"image-keyboard-response"	"199"	"437652"	"0.0-6.0-2.0-1.7"	"9mjruj"	"600"	"1024"	"chrome"	"109.0.0"	"FALSE"	"Windows 10"	"60.02"	"010"	n/a	n/a	n/a	n/a	n/a	n/a	"Trial"	n/a	n/a	n/a	"2248"	"arrowleft"	n/a	"NULL"	"NULL"	"NULL"	"stimuli/VerticalHorizontal_28.75714_0.10960.png"	n/a	"VerticalHorizontal"	"arrowleft"	"1414"	"TRUE"	"VerticalHorizontal"	"28.757140000"	"0.1096000000"	"2"	"8"
n/a	"html-keyboard-response"	"200"	"438943"	"0.0-6.0-2.0-0.8"	"9mjruj"	"600"	"1024"	"chrome"	"109.0.0"	"FALSE"	"Windows 10"	"60.02"	"010"	n/a	n/a	n/a	n/a	n/a	n/a	"fixation"	n/a	n/a	n/a	n/a	"NULL"	n/a	"NULL"	"NULL"	"NULL"	"<p style=\"color: black; font-size: 80px; padding-left: 17%; padding-right: 15%; padding-top: 49%; padding-bottom: 44%\">+</p>"	"1284"	n/a	n/a	n/a	n/a	n/a	n/a	n/a	n/a	n/a
n/a	"image-keyboard-response"	"201"	"441016"	"0.0-6.0-2.0-1.8"	"9mjruj"	"600"	"1024"	"chrome"	"109.0.0"	"FALSE"	"Windows 10"	"60.02"	"010"	n/a	n/a	n/a	n/a	n/a	n/a	"Trial"	n/a	n/a	n/a	"2072"	"arrowleft"	n/a	"NULL"	"NULL"	"NULL"	"stimuli/VerticalHorizontal_-11.78571_0.06730.png"	n/a	"VerticalHorizontal"	"arrowleft"	"1291"	"TRUE"	"VerticalHorizontal"	"-11.78571000"	"0.0673000000"	"2"	"9"
n/a	"html-keyboard-response"	"202"	"442265"	"0.0-6.0-2.0-0.9"	"9mjruj"	"600"	"1024"	"chrome"	"109.0.0"	"FALSE"	"Windows 10"	"60.02"	"010"	n/a	n/a	n/a	n/a	n/a	n/a	"fixation"	n/a	n/a	n/a	n/a	"NULL"	n/a	"NULL"	"NULL"	"NULL"	"<p style=\"color: black; font-size: 80px; padding-left: 25%; padding-right: 46%; padding-top: 12%; padding-bottom: 28%\">+</p>"	"1241"	n/a	n/a	n/a	n/a	n/a	n/a	n/a	n/a	n/a
n/a	"image-keyboard-response"	"203"	"442835"	"0.0-6.0-2.0-1.9"	"9mjruj"	"600"	"1024"	"chrome"	"109.0.0"	"FALSE"	"Windows 10"	"60.02"	"010"	n/a	n/a	n/a	n/a	n/a	n/a	"Trial"	n/a	n/a	n/a	"569"	"arrowright"	n/a	"NULL"	"NULL"	"NULL"	"stimuli/VerticalHorizontal_-20.27143_-0.1096.png"	n/a	"VerticalHorizontal"	"arrowright"	"1249"	"TRUE"	"VerticalHorizontal"	"-20.27143000"	"-0.109600000"	"2"	"10"
n/a	"html-keyboard-response"	"204"	"444190"	"0.0-6.0-2.0-0.10"	"9mjruj"	"600"	"1024"	"chrome"	"109.0.0"	"FALSE"	"Windows 10"	"60.02"	"010"	n/a	n/a	n/a	n/a	n/a	n/a	"fixation"	n/a	n/a	n/a	n/a	"NULL"	n/a	"NULL"	"NULL"	"NULL"	"<p style=\"color: black; font-size: 80px; padding-left: 43%; padding-right: 17%; padding-top: 10%; padding-bottom: 43%\">+</p>"	"1338"	n/a	n/a	n/a	n/a	n/a	n/a	n/a	n/a	n/a
n/a	"image-keyboard-response"	"205"	"444984"	"0.0-6.0-2.0-1.10"	"9mjruj"	"600"	"1024"	"chrome"	"109.0.0"	"FALSE"	"Windows 10"	"60.02"	"010"	n/a	n/a	n/a	n/a	n/a	n/a	"Trial"	n/a	n/a	n/a	"792"	"arrowleft"	n/a	"NULL"	"NULL"	"NULL"	"stimuli/VerticalHorizontal_-20.27143_0.16217.png"	n/a	"VerticalHorizontal"	"arrowleft"	"1355"	"TRUE"	"VerticalHorizontal"	"-20.27143000"	"0.1621700000"	"2"	"11"
n/a	"html-keyboard-response"	"206"	"446194"	"0.0-6.0-2.0-0.11"	"9mjruj"	"600"	"1024"	"chrome"	"109.0.0"	"FALSE"	"Windows 10"	"60.02"	"010"	n/a	n/a	n/a	n/a	n/a	n/a	"fixation"	n/a	n/a	n/a	n/a	"NULL"	n/a	"NULL"	"NULL"	"NULL"	"<p style=\"color: black; font-size: 80px; padding-left: 22%; padding-right: 25%; padding-top: 11%; padding-bottom: 38%\">+</p>"	"1198"	n/a	n/a	n/a	n/a	n/a	n/a	n/a	n/a	n/a
n/a	"image-keyboard-response"	"207"	"446916"	"0.0-6.0-2.0-1.11"	"9mjruj"	"600"	"1024"	"chrome"	"109.0.0"	"FALSE"	"Windows 10"	"60.02"	"010"	n/a	n/a	n/a	n/a	n/a	n/a	"Trial"	n/a	n/a	n/a	"720"	"arrowright"	n/a	"NULL"	"NULL"	"NULL"	"stimuli/VerticalHorizontal_28.75714_-0.16217.png"	n/a	"VerticalHorizontal"	"arrowright"	"1210"	"TRUE"	"VerticalHorizontal"	"28.757140000"	"-0.162170000"	"2"	"12"
n/a	"html-keyboard-response"	"208"	"448250"	"0.0-6.0-2.0-0.12"	"9mjruj"	"600"	"1024"	"chrome"	"109.0.0"	"FALSE"	"Windows 10"	"60.02"	"010"	n/a	n/a	n/a	n/a	n/a	n/a	"fixation"	n/a	n/a	n/a	n/a	"NULL"	n/a	"NULL"	"NULL"	"NULL"	"<p style=\"color: black; font-size: 80px; padding-left: 48%; padding-right: 40%; padding-top: 18%; padding-bottom: 30%\">+</p>"	"1327"	n/a	n/a	n/a	n/a	n/a	n/a	n/a	n/a	n/a
n/a	"image-keyboard-response"	"209"	"449408"	"0.0-6.0-2.0-1.12"	"9mjruj"	"600"	"1024"	"chrome"	"109.0.0"	"FALSE"	"Windows 10"	"60.02"	"010"	n/a	n/a	n/a	n/a	n/a	n/a	"Trial"	n/a	n/a	n/a	"1158"	"arrowright"	n/a	"NULL"	"NULL"	"NULL"	"stimuli/VerticalHorizontal_28.75714_-0.1096.png"	n/a	"VerticalHorizontal"	"arrowright"	"1334"	"TRUE"	"VerticalHorizontal"	"28.757140000"	"-0.109600000"	"2"	"13"
n/a	"html-keyboard-response"	"210"	"450618"	"0.0-6.0-2.0-0.13"	"9mjruj"	"600"	"1024"	"chrome"	"109.0.0"	"FALSE"	"Windows 10"	"60.02"	"010"	n/a	n/a	n/a	n/a	n/a	n/a	"fixation"	n/a	n/a	n/a	n/a	"NULL"	n/a	"NULL"	"NULL"	"NULL"	"<p style=\"color: black; font-size: 80px; padding-left: 44%; padding-right: 32%; padding-top: 16%; padding-bottom: 7%\">+</p>"	"1202"	n/a	n/a	n/a	n/a	n/a	n/a	n/a	n/a	n/a
n/a	"image-keyboard-response"	"211"	"451607"	"0.0-6.0-2.0-1.13"	"9mjruj"	"600"	"1024"	"chrome"	"109.0.0"	"FALSE"	"Windows 10"	"60.02"	"010"	n/a	n/a	n/a	n/a	n/a	n/a	"Trial"	n/a	n/a	n/a	"988"	"arrowright"	n/a	"NULL"	"NULL"	"NULL"	"stimuli/VerticalHorizontal_-28.75714_-0.2250.png"	n/a	"VerticalHorizontal"	"arrowright"	"1210"	"TRUE"	"VerticalHorizontal"	"-28.75714000"	"-0.225000000"	"2"	"14"
n/a	"html-keyboard-response"	"212"	"452649"	"0.0-6.0-2.0-0.14"	"9mjruj"	"600"	"1024"	"chrome"	"109.0.0"	"FALSE"	"Windows 10"	"60.02"	"010"	n/a	n/a	n/a	n/a	n/a	n/a	"fixation"	n/a	n/a	n/a	n/a	"NULL"	n/a	"NULL"	"NULL"	"NULL"	"<p style=\"color: black; font-size: 80px; padding-left: 22%; padding-right: 46%; padding-top: 47%; padding-bottom: 26%\">+</p>"	"1025"	n/a	n/a	n/a	n/a	n/a	n/a	n/a	n/a	n/a
n/a	"image-keyboard-response"	"213"	"453744"	"0.0-6.0-2.0-1.14"	"9mjruj"	"600"	"1024"	"chrome"	"109.0.0"	"FALSE"	"Windows 10"	"60.02"	"010"	n/a	n/a	n/a	n/a	n/a	n/a	"Trial"	n/a	n/a	n/a	"1094"	"arrowleft"	n/a	"NULL"	"NULL"	"NULL"	"stimuli/VerticalHorizontal_-20.27143_0.10960.png"	n/a	"VerticalHorizontal"	"arrowleft"	"1042"	"TRUE"	"VerticalHorizontal"	"-20.27143000"	"0.1096000000"	"2"	"15"
n/a	"html-keyboard-response"	"214"	"454797"	"0.0-6.0-2.0-0.15"	"9mjruj"	"600"	"1024"	"chrome"	"109.0.0"	"FALSE"	"Windows 10"	"60.02"	"010"	n/a	n/a	n/a	n/a	n/a	n/a	"fixation"	n/a	n/a	n/a	n/a	"NULL"	n/a	"NULL"	"NULL"	"NULL"	"<p style=\"color: black; font-size: 80px; padding-left: 43%; padding-right: 48%; padding-top: 27%; padding-bottom: 13%\">+</p>"	"1040"	n/a	n/a	n/a	n/a	n/a	n/a	n/a	n/a	n/a
n/a	"image-keyboard-response"	"215"	"455990"	"0.0-6.0-2.0-1.15"	"9mjruj"	"600"	"1024"	"chrome"	"109.0.0"	"FALSE"	"Windows 10"	"60.02"	"010"	n/a	n/a	n/a	n/a	n/a	n/a	"Trial"	n/a	n/a	n/a	"1191"	"arrowright"	n/a	"NULL"	"NULL"	"NULL"	"stimuli/VerticalHorizontal_11.78571_-0.0673.png"	n/a	"VerticalHorizontal"	"arrowright"	"1053"	"TRUE"	"VerticalHorizontal"	"11.785710000"	"-0.067300000"	"2"	"16"
n/a	"html-keyboard-response"	"216"	"457456"	"0.0-6.0-2.0-0.16"	"9mjruj"	"600"	"1024"	"chrome"	"109.0.0"	"FALSE"	"Windows 10"	"60.02"	"010"	n/a	n/a	n/a	n/a	n/a	n/a	"fixation"	n/a	n/a	n/a	n/a	"NULL"	n/a	"NULL"	"NULL"	"NULL"	"<p style=\"color: black; font-size: 80px; padding-left: 19%; padding-right: 15%; padding-top: 43%; padding-bottom: 38%\">+</p>"	"1446"	n/a	n/a	n/a	n/a	n/a	n/a	n/a	n/a	n/a
n/a	"image-keyboard-response"	"217"	"460058"	"0.0-6.0-2.0-1.16"	"9mjruj"	"600"	"1024"	"chrome"	"109.0.0"	"FALSE"	"Windows 10"	"60.02"	"010"	n/a	n/a	n/a	n/a	n/a	n/a	"Trial"	n/a	n/a	n/a	"2600"	"arrowright"	n/a	"NULL"	"NULL"	"NULL"	"stimuli/VerticalHorizontal_-20.27143_-0.0673.png"	n/a	"VerticalHorizontal"	"arrowright"	"1466"	"TRUE"	"VerticalHorizontal"	"-20.27143000"	"-0.067300000"	"2"	"17"
n/a	"html-keyboard-response"	"218"	"461294"	"0.0-6.0-2.0-0.17"	"9mjruj"	"600"	"1024"	"chrome"	"109.0.0"	"FALSE"	"Windows 10"	"60.02"	"010"	n/a	n/a	n/a	n/a	n/a	n/a	"fixation"	n/a	n/a	n/a	n/a	"NULL"	n/a	"NULL"	"NULL"	"NULL"	"<p style=\"color: black; font-size: 80px; padding-left: 22%; padding-right: 44%; padding-top: 16%; padding-bottom: 18%\">+</p>"	"1228"	n/a	n/a	n/a	n/a	n/a	n/a	n/a	n/a	n/a
n/a	"image-keyboard-response"	"219"	"462291"	"0.0-6.0-2.0-1.17"	"9mjruj"	"600"	"1024"	"chrome"	"109.0.0"	"FALSE"	"Windows 10"	"60.02"	"010"	n/a	n/a	n/a	n/a	n/a	n/a	"Trial"	n/a	n/a	n/a	"995"	"arrowleft"	n/a	"NULL"	"NULL"	"NULL"	"stimuli/VerticalHorizontal_-3.3000_0.16217.png"	n/a	"VerticalHorizontal"	"arrowleft"	"1236"	"TRUE"	"VerticalHorizontal"	"-3.300000000"	"0.1621700000"	"2"	"18"
n/a	"html-keyboard-response"	"220"	"463466"	"0.0-6.0-2.0-0.18"	"9mjruj"	"600"	"1024"	"chrome"	"109.0.0"	"FALSE"	"Windows 10"	"60.02"	"010"	n/a	n/a	n/a	n/a	n/a	n/a	"fixation"	n/a	n/a	n/a	n/a	"NULL"	n/a	"NULL"	"NULL"	"NULL"	"<p style=\"color: black; font-size: 80px; padding-left: 44%; padding-right: 8%; padding-top: 12%; padding-bottom: 34%\">+</p>"	"1155"	n/a	n/a	n/a	n/a	n/a	n/a	n/a	n/a	n/a
n/a	"image-keyboard-response"	"221"	"464500"	"0.0-6.0-2.0-1.18"	"9mjruj"	"600"	"1024"	"chrome"	"109.0.0"	"FALSE"	"Windows 10"	"60.02"	"010"	n/a	n/a	n/a	n/a	n/a	n/a	"Trial"	n/a	n/a	n/a	"1033"	"arrowright"	n/a	"NULL"	"NULL"	"NULL"	"stimuli/VerticalHorizontal_28.75714_0.06730.png"	n/a	"VerticalHorizontal"	"arrowleft"	"1175"	"FALSE"	"VerticalHorizontal"	"28.757140000"	"0.0673000000"	"2"	"19"
n/a	"html-keyboard-response"	"222"	"465930"	"0.0-6.0-2.0-0.19"	"9mjruj"	"600"	"1024"	"chrome"	"109.0.0"	"FALSE"	"Windows 10"	"60.02"	"010"	n/a	n/a	n/a	n/a	n/a	n/a	"fixation"	n/a	n/a	n/a	n/a	"NULL"	n/a	"NULL"	"NULL"	"NULL"	"<p style=\"color: black; font-size: 80px; padding-left: 11%; padding-right: 12%; padding-top: 15%; padding-bottom: 36%\">+</p>"	"1411"	n/a	n/a	n/a	n/a	n/a	n/a	n/a	n/a	n/a
n/a	"image-keyboard-response"	"223"	"466928"	"0.0-6.0-2.0-1.19"	"9mjruj"	"600"	"1024"	"chrome"	"109.0.0"	"FALSE"	"Windows 10"	"60.02"	"010"	n/a	n/a	n/a	n/a	n/a	n/a	"Trial"	n/a	n/a	n/a	"997"	"arrowright"	n/a	"NULL"	"NULL"	"NULL"	"stimuli/VerticalHorizontal_11.78571_-0.16217.png"	n/a	"VerticalHorizontal"	"arrowright"	"1430"	"TRUE"	"VerticalHorizontal"	"11.785710000"	"-0.162170000"	"2"	"20"
n/a	"html-keyboard-response"	"224"	"468379"	"0.0-6.0-2.0-0.20"	"9mjruj"	"600"	"1024"	"chrome"	"109.0.0"	"FALSE"	"Windows 10"	"60.02"	"010"	n/a	n/a	n/a	n/a	n/a	n/a	"fixation"	n/a	n/a	n/a	n/a	"NULL"	n/a	"NULL"	"NULL"	"NULL"	"<p style=\"color: black; font-size: 80px; padding-left: 18%; padding-right: 6%; padding-top: 37%; padding-bottom: 13%\">+</p>"	"1443"	n/a	n/a	n/a	n/a	n/a	n/a	n/a	n/a	n/a
n/a	"image-keyboard-response"	"225"	"469815"	"0.0-6.0-2.0-1.20"	"9mjruj"	"600"	"1024"	"chrome"	"109.0.0"	"FALSE"	"Windows 10"	"60.02"	"010"	n/a	n/a	n/a	n/a	n/a	n/a	"Trial"	n/a	n/a	n/a	"1435"	"arrowleft"	n/a	"NULL"	"NULL"	"NULL"	"stimuli/VerticalHorizontal_3.30000_-0.1096.png"	n/a	"VerticalHorizontal"	"arrowright"	"1451"	"FALSE"	"VerticalHorizontal"	"3.3000000000"	"-0.109600000"	"2"	"21"
n/a	"html-keyboard-response"	"226"	"471113"	"0.0-6.0-2.0-0.21"	"9mjruj"	"600"	"1024"	"chrome"	"109.0.0"	"FALSE"	"Windows 10"	"60.02"	"010"	n/a	n/a	n/a	n/a	n/a	n/a	"fixation"	n/a	n/a	n/a	n/a	"NULL"	n/a	"NULL"	"NULL"	"NULL"	"<p style=\"color: black; font-size: 80px; padding-left: 43%; padding-right: 25%; padding-top: 34%; padding-bottom: 15%\">+</p>"	"1282"	n/a	n/a	n/a	n/a	n/a	n/a	n/a	n/a	n/a
n/a	"image-keyboard-response"	"227"	"472156"	"0.0-6.0-2.0-1.21"	"9mjruj"	"600"	"1024"	"chrome"	"109.0.0"	"FALSE"	"Windows 10"	"60.02"	"010"	n/a	n/a	n/a	n/a	n/a	n/a	"Trial"	n/a	n/a	n/a	"1041"	"arrowleft"	n/a	"NULL"	"NULL"	"NULL"	"stimuli/VerticalHorizontal_20.27143_0.16217.png"	n/a	"VerticalHorizontal"	"arrowleft"	"1298"	"TRUE"	"VerticalHorizontal"	"20.271430000"	"0.1621700000"	"2"	"22"
n/a	"html-keyboard-response"	"228"	"473271"	"0.0-6.0-2.0-0.22"	"9mjruj"	"600"	"1024"	"chrome"	"109.0.0"	"FALSE"	"Windows 10"	"60.02"	"010"	n/a	n/a	n/a	n/a	n/a	n/a	"fixation"	n/a	n/a	n/a	n/a	"NULL"	n/a	"NULL"	"NULL"	"NULL"	"<p style=\"color: black; font-size: 80px; padding-left: 12%; padding-right: 39%; padding-top: 47%; padding-bottom: 2%\">+</p>"	"1108"	n/a	n/a	n/a	n/a	n/a	n/a	n/a	n/a	n/a
n/a	"image-keyboard-response"	"229"	"475552"	"0.0-6.0-2.0-1.22"	"9mjruj"	"600"	"1024"	"chrome"	"109.0.0"	"FALSE"	"Windows 10"	"60.02"	"010"	n/a	n/a	n/a	n/a	n/a	n/a	"Trial"	n/a	n/a	n/a	"2279"	"arrowleft"	n/a	"NULL"	"NULL"	"NULL"	"stimuli/VerticalHorizontal_-28.75714_0.10960.png"	n/a	"VerticalHorizontal"	"arrowleft"	"1115"	"TRUE"	"VerticalHorizontal"	"-28.75714000"	"0.1096000000"	"2"	"23"
n/a	"html-keyboard-response"	"230"	"476862"	"0.0-6.0-2.0-0.23"	"9mjruj"	"600"	"1024"	"chrome"	"109.0.0"	"FALSE"	"Windows 10"	"60.02"	"010"	n/a	n/a	n/a	n/a	n/a	n/a	"fixation"	n/a	n/a	n/a	n/a	"NULL"	n/a	"NULL"	"NULL"	"NULL"	"<p style=\"color: black; font-size: 80px; padding-left: 27%; padding-right: 3%; padding-top: 19%; padding-bottom: 50%\">+</p>"	"1292"	n/a	n/a	n/a	n/a	n/a	n/a	n/a	n/a	n/a
n/a	"image-keyboard-response"	"231"	"477457"	"0.0-6.0-2.0-1.23"	"9mjruj"	"600"	"1024"	"chrome"	"109.0.0"	"FALSE"	"Windows 10"	"60.02"	"010"	n/a	n/a	n/a	n/a	n/a	n/a	"Trial"	n/a	n/a	n/a	"594"	"arrowright"	n/a	"NULL"	"NULL"	"NULL"	"stimuli/VerticalHorizontal_-28.75714_-0.1096.png"	n/a	"VerticalHorizontal"	"arrowright"	"1310"	"TRUE"	"VerticalHorizontal"	"-28.75714000"	"-0.109600000"	"2"	"24"
n/a	"html-keyboard-response"	"232"	"478894"	"0.0-6.0-2.0-0.24"	"9mjruj"	"600"	"1024"	"chrome"	"109.0.0"	"FALSE"	"Windows 10"	"60.02"	"010"	n/a	n/a	n/a	n/a	n/a	n/a	"fixation"	n/a	n/a	n/a	n/a	"NULL"	n/a	"NULL"	"NULL"	"NULL"	"<p style=\"color: black; font-size: 80px; padding-left: 48%; padding-right: 6%; padding-top: 46%; padding-bottom: 16%\">+</p>"	"1429"	n/a	n/a	n/a	n/a	n/a	n/a	n/a	n/a	n/a
n/a	"image-keyboard-response"	"233"	"481335"	"0.0-6.0-2.0-1.24"	"9mjruj"	"600"	"1024"	"chrome"	"109.0.0"	"FALSE"	"Windows 10"	"60.02"	"010"	n/a	n/a	n/a	n/a	n/a	n/a	"Trial"	n/a	n/a	n/a	"2440"	"arrowright"	n/a	"NULL"	"NULL"	"NULL"	"stimuli/VerticalHorizontal_3.30000_-0.0673.png"	n/a	"VerticalHorizontal"	"arrowright"	"1437"	"TRUE"	"VerticalHorizontal"	"3.3000000000"	"-0.067300000"	"2"	"25"
n/a	"html-keyboard-response"	"234"	"482704"	"0.0-6.0-2.0-0.25"	"9mjruj"	"600"	"1024"	"chrome"	"109.0.0"	"FALSE"	"Windows 10"	"60.02"	"010"	n/a	n/a	n/a	n/a	n/a	n/a	"fixation"	n/a	n/a	n/a	n/a	"NULL"	n/a	"NULL"	"NULL"	"NULL"	"<p style=\"color: black; font-size: 80px; padding-left: 14%; padding-right: 14%; padding-top: 4%; padding-bottom: 30%\">+</p>"	"1352"	n/a	n/a	n/a	n/a	n/a	n/a	n/a	n/a	n/a
n/a	"image-keyboard-response"	"235"	"483841"	"0.0-6.0-2.0-1.25"	"9mjruj"	"600"	"1024"	"chrome"	"109.0.0"	"FALSE"	"Windows 10"	"60.02"	"010"	n/a	n/a	n/a	n/a	n/a	n/a	"Trial"	n/a	n/a	n/a	"1136"	"arrowright"	n/a	"NULL"	"NULL"	"NULL"	"stimuli/VerticalHorizontal_11.78571_-0.1096.png"	n/a	"VerticalHorizontal"	"arrowright"	"1369"	"TRUE"	"VerticalHorizontal"	"11.785710000"	"-0.109600000"	"2"	"26"
n/a	"html-keyboard-response"	"236"	"485167"	"0.0-6.0-2.0-0.26"	"9mjruj"	"600"	"1024"	"chrome"	"109.0.0"	"FALSE"	"Windows 10"	"60.02"	"010"	n/a	n/a	n/a	n/a	n/a	n/a	"fixation"	n/a	n/a	n/a	n/a	"NULL"	n/a	"NULL"	"NULL"	"NULL"	"<p style=\"color: black; font-size: 80px; padding-left: 1%; padding-right: 39%; padding-top: 31%; padding-bottom: 43%\">+</p>"	"1319"	n/a	n/a	n/a	n/a	n/a	n/a	n/a	n/a	n/a
n/a	"image-keyboard-response"	"237"	"486944"	"0.0-6.0-2.0-1.26"	"9mjruj"	"600"	"1024"	"chrome"	"109.0.0"	"FALSE"	"Windows 10"	"60.02"	"010"	n/a	n/a	n/a	n/a	n/a	n/a	"Trial"	n/a	n/a	n/a	"1775"	"arrowright"	n/a	"NULL"	"NULL"	"NULL"	"stimuli/VerticalHorizontal_20.27143_-0.16217.png"	n/a	"VerticalHorizontal"	"arrowright"	"1326"	"TRUE"	"VerticalHorizontal"	"20.271430000"	"-0.162170000"	"2"	"27"
n/a	"html-keyboard-response"	"238"	"488375"	"0.0-6.0-2.0-0.27"	"9mjruj"	"600"	"1024"	"chrome"	"109.0.0"	"FALSE"	"Windows 10"	"60.02"	"010"	n/a	n/a	n/a	n/a	n/a	n/a	"fixation"	n/a	n/a	n/a	n/a	"NULL"	n/a	"NULL"	"NULL"	"NULL"	"<p style=\"color: black; font-size: 80px; padding-left: 36%; padding-right: 8%; padding-top: 19%; padding-bottom: 44%\">+</p>"	"1425"	n/a	n/a	n/a	n/a	n/a	n/a	n/a	n/a	n/a
n/a	"image-keyboard-response"	"239"	"489527"	"0.0-6.0-2.0-1.27"	"9mjruj"	"600"	"1024"	"chrome"	"109.0.0"	"FALSE"	"Windows 10"	"60.02"	"010"	n/a	n/a	n/a	n/a	n/a	n/a	"Trial"	n/a	n/a	n/a	"1150"	"arrowright"	n/a	"NULL"	"NULL"	"NULL"	"stimuli/VerticalHorizontal_-3.3000_-0.0673.png"	n/a	"VerticalHorizontal"	"arrowright"	"1431"	"TRUE"	"VerticalHorizontal"	"-3.300000000"	"-0.067300000"	"2"	"28"
n/a	"html-keyboard-response"	"240"	"490994"	"0.0-6.0-2.0-0.28"	"9mjruj"	"600"	"1024"	"chrome"	"109.0.0"	"FALSE"	"Windows 10"	"60.02"	"010"	n/a	n/a	n/a	n/a	n/a	n/a	"fixation"	n/a	n/a	n/a	n/a	"NULL"	n/a	"NULL"	"NULL"	"NULL"	"<p style=\"color: black; font-size: 80px; padding-left: 25%; padding-right: 43%; padding-top: 22%; padding-bottom: 37%\">+</p>"	"1458"	n/a	n/a	n/a	n/a	n/a	n/a	n/a	n/a	n/a
n/a	"image-keyboard-response"	"241"	"491897"	"0.0-6.0-2.0-1.28"	"9mjruj"	"600"	"1024"	"chrome"	"109.0.0"	"FALSE"	"Windows 10"	"60.02"	"010"	n/a	n/a	n/a	n/a	n/a	n/a	"Trial"	n/a	n/a	n/a	"902"	"arrowleft"	n/a	"NULL"	"NULL"	"NULL"	"stimuli/VerticalHorizontal_-3.3000_0.06730.png"	n/a	"VerticalHorizontal"	"arrowleft"	"1467"	"TRUE"	"VerticalHorizontal"	"-3.300000000"	"0.0673000000"	"2"	"29"
n/a	"html-keyboard-response"	"242"	"492910"	"0.0-6.0-2.0-0.29"	"9mjruj"	"600"	"1024"	"chrome"	"109.0.0"	"FALSE"	"Windows 10"	"60.02"	"010"	n/a	n/a	n/a	n/a	n/a	n/a	"fixation"	n/a	n/a	n/a	n/a	"NULL"	n/a	"NULL"	"NULL"	"NULL"	"<p style=\"color: black; font-size: 80px; padding-left: 47%; padding-right: 11%; padding-top: 43%; padding-bottom: 30%\">+</p>"	"1009"	n/a	n/a	n/a	n/a	n/a	n/a	n/a	n/a	n/a
n/a	"image-keyboard-response"	"243"	"494493"	"0.0-6.0-2.0-1.29"	"9mjruj"	"600"	"1024"	"chrome"	"109.0.0"	"FALSE"	"Windows 10"	"60.02"	"010"	n/a	n/a	n/a	n/a	n/a	n/a	"Trial"	n/a	n/a	n/a	"1582"	"arrowleft"	n/a	"NULL"	"NULL"	"NULL"	"stimuli/VerticalHorizontal_-28.75714_0.06730.png"	n/a	"VerticalHorizontal"	"arrowleft"	"1013"	"TRUE"	"VerticalHorizontal"	"-28.75714000"	"0.0673000000"	"2"	"30"
n/a	"html-keyboard-response"	"244"	"495834"	"0.0-6.0-2.0-0.30"	"9mjruj"	"600"	"1024"	"chrome"	"109.0.0"	"FALSE"	"Windows 10"	"60.02"	"010"	n/a	n/a	n/a	n/a	n/a	n/a	"fixation"	n/a	n/a	n/a	n/a	"NULL"	n/a	"NULL"	"NULL"	"NULL"	"<p style=\"color: black; font-size: 80px; padding-left: 8%; padding-right: 29%; padding-top: 32%; padding-bottom: 30%\">+</p>"	"1333"	n/a	n/a	n/a	n/a	n/a	n/a	n/a	n/a	n/a
n/a	"image-keyboard-response"	"245"	"496414"	"0.0-6.0-2.0-1.30"	"9mjruj"	"600"	"1024"	"chrome"	"109.0.0"	"FALSE"	"Windows 10"	"60.02"	"010"	n/a	n/a	n/a	n/a	n/a	n/a	"Trial"	n/a	n/a	n/a	"578"	"arrowright"	n/a	"NULL"	"NULL"	"NULL"	"stimuli/VerticalHorizontal_-20.27143_-0.16217.png"	n/a	"VerticalHorizontal"	"arrowright"	"1341"	"TRUE"	"VerticalHorizontal"	"-20.27143000"	"-0.162170000"	"2"	"31"
n/a	"html-keyboard-response"	"246"	"497569"	"0.0-6.0-2.0-0.31"	"9mjruj"	"600"	"1024"	"chrome"	"109.0.0"	"FALSE"	"Windows 10"	"60.02"	"010"	n/a	n/a	n/a	n/a	n/a	n/a	"fixation"	n/a	n/a	n/a	n/a	"NULL"	n/a	"NULL"	"NULL"	"NULL"	"<p style=\"color: black; font-size: 80px; padding-left: 44%; padding-right: 1%; padding-top: 11%; padding-bottom: 41%\">+</p>"	"1148"	n/a	n/a	n/a	n/a	n/a	n/a	n/a	n/a	n/a
n/a	"image-keyboard-response"	"247"	"498668"	"0.0-6.0-2.0-1.31"	"9mjruj"	"600"	"1024"	"chrome"	"109.0.0"	"FALSE"	"Windows 10"	"60.02"	"010"	n/a	n/a	n/a	n/a	n/a	n/a	"Trial"	n/a	n/a	n/a	"1098"	"arrowright"	n/a	"NULL"	"NULL"	"NULL"	"stimuli/VerticalHorizontal_20.27143_-0.0673.png"	n/a	"VerticalHorizontal"	"arrowright"	"1155"	"TRUE"	"VerticalHorizontal"	"20.271430000"	"-0.067300000"	"2"	"32"
n/a	"html-keyboard-response"	"248"	"499691"	"0.0-6.0-2.0-0.32"	"9mjruj"	"600"	"1024"	"chrome"	"109.0.0"	"FALSE"	"Windows 10"	"60.02"	"010"	n/a	n/a	n/a	n/a	n/a	n/a	"fixation"	n/a	n/a	n/a	n/a	"NULL"	n/a	"NULL"	"NULL"	"NULL"	"<p style=\"color: black; font-size: 80px; padding-left: 49%; padding-right: 0%; padding-top: 20%; padding-bottom: 29%\">+</p>"	"1012"	n/a	n/a	n/a	n/a	n/a	n/a	n/a	n/a	n/a
n/a	"image-keyboard-response"	"249"	"500661"	"0.0-6.0-2.0-1.32"	"9mjruj"	"600"	"1024"	"chrome"	"109.0.0"	"FALSE"	"Windows 10"	"60.02"	"010"	n/a	n/a	n/a	n/a	n/a	n/a	"Trial"	n/a	n/a	n/a	"968"	"arrowright"	n/a	"NULL"	"NULL"	"NULL"	"stimuli/VerticalHorizontal_-28.75714_-0.0673.png"	n/a	"VerticalHorizontal"	"arrowright"	"1023"	"TRUE"	"VerticalHorizontal"	"-28.75714000"	"-0.067300000"	"2"	"33"
n/a	"html-keyboard-response"	"250"	"501743"	"0.0-6.0-2.0-0.33"	"9mjruj"	"600"	"1024"	"chrome"	"109.0.0"	"FALSE"	"Windows 10"	"60.02"	"010"	n/a	n/a	n/a	n/a	n/a	n/a	"fixation"	n/a	n/a	n/a	n/a	"NULL"	n/a	"NULL"	"NULL"	"NULL"	"<p style=\"color: black; font-size: 80px; padding-left: 46%; padding-right: 40%; padding-top: 39%; padding-bottom: 20%\">+</p>"	"1064"	n/a	n/a	n/a	n/a	n/a	n/a	n/a	n/a	n/a
