"success"	"trial_type"	"trial_index"	"time_elapsed"	"internal_node_id"	"participant_id"	"screen_height"	"screen_width"	"browser"	"browser_version"	"mobile"	"os"	"vsync_rate"	"subject_id"	"width"	"height"	"webaudio"	"fullscreen"	"webcam"	"microphone"	"screen"	"version"	"date"	"time"	"rt"	"response"	"timeout"	"failed_images"	"failed_audio"	"failed_video"	"stimulus"	"trial_duration"	"block"	"correct_response"	"prestimulus_duration"	"correct"	"type"	"illusion_strength"	"illusion_difference"	"block_number"	"trial_number"
"TRUE"	"fullscreen"	"0"	"2094274"	"0.0-0.0"	"sycyrw"	"600"	"1366"	"chrome"	"110.0.0"	"FALSE"	"Windows 10"	"60.81"	"039"	n/a	n/a	n/a	n/a	n/a	n/a	n/a	n/a	n/a	n/a	n/a	"NULL"	n/a	"NULL"	"NULL"	"NULL"	n/a	n/a	n/a	n/a	n/a	n/a	n/a	n/a	n/a	n/a	n/a
n/a	"browser-check"	"1"	"2095275"	"0.0-1.0"	"sycyrw"	"600"	"1366"	"chrome"	"110.0.0"	"FALSE"	"Windows 10"	"60.81"	"039"	"1366"	"600"	"TRUE"	"TRUE"	"TRUE"	"TRUE"	"browser_info"	"1.0"	"08/03/2023"	"10:08:16"	n/a	"NULL"	n/a	"NULL"	"NULL"	"NULL"	n/a	n/a	n/a	n/a	n/a	n/a	n/a	n/a	n/a	n/a	n/a
n/a	"survey-text"	"2"	"2107569"	"0.0-2.0"	"sycyrw"	"600"	"1366"	"chrome"	"110.0.0"	"FALSE"	"Windows 10"	"60.81"	"039"	n/a	n/a	n/a	n/a	n/a	n/a	"subject_id"	n/a	n/a	n/a	"12290"	"list(subject_id = \"039\")"	n/a	"NULL"	"NULL"	"NULL"	n/a	n/a	n/a	n/a	n/a	n/a	n/a	n/a	n/a	n/a	n/a
"TRUE"	"preload"	"3"	"2107581"	"0.0-3.0"	"sycyrw"	"600"	"1366"	"chrome"	"110.0.0"	"FALSE"	"Windows 10"	"60.81"	"039"	n/a	n/a	n/a	n/a	n/a	n/a	n/a	n/a	n/a	n/a	n/a	"NULL"	"FALSE"	"list()"	"list()"	"list()"	n/a	n/a	n/a	n/a	n/a	n/a	n/a	n/a	n/a	n/a	n/a
n/a	"html-button-response"	"4"	"2166960"	"0.0-4.0-0.0"	"sycyrw"	"600"	"1366"	"chrome"	"110.0.0"	"FALSE"	"Windows 10"	"60.81"	"039"	n/a	n/a	n/a	n/a	n/a	n/a	"illusion_instructions"	n/a	n/a	n/a	"59379"	"0"	n/a	"NULL"	"NULL"	"NULL"	"<p><b>Illusion Game</b></p><p>In this game of speed and reflex, you will need to make <b>visual judgments</b> (for instance, which circle is the biggest, or which line is the longest), as fast and as correctly as possible, while <b>resisting different visual illusions</b>.</p><p>We are going to start with some examples of all the illusions you will encounter in the game.</p>"	n/a	n/a	n/a	n/a	n/a	n/a	n/a	n/a	n/a	n/a
"TRUE"	"preload"	"5"	"2166975"	"0.0-4.0-1.0-0.0"	"sycyrw"	"600"	"1366"	"chrome"	"110.0.0"	"FALSE"	"Windows 10"	"60.81"	"039"	n/a	n/a	n/a	n/a	n/a	n/a	n/a	n/a	n/a	n/a	n/a	"NULL"	"FALSE"	"list()"	"list()"	"list()"	n/a	n/a	n/a	n/a	n/a	n/a	n/a	n/a	n/a	n/a	n/a
n/a	"html-keyboard-response"	"6"	"2208341"	"0.0-4.0-1.0-1.0"	"sycyrw"	"600"	"1366"	"chrome"	"110.0.0"	"FALSE"	"Windows 10"	"60.81"	"039"	n/a	n/a	n/a	n/a	n/a	n/a	n/a	n/a	n/a	n/a	"41364"	"enter"	n/a	"NULL"	"NULL"	"NULL"	"<p><b>Practice</b></p><p>In this part, two red circles will appear side by side on the screen.</p><p>Your task is to select which <b>red circle is bigger</b> in size as fast as you can, without making errors.</p><p>Don't get distracted by the surrounding black circles around the red circles!</p><p>Press <b>the LEFT or the RIGHT arrow</b> to indicate which is the bigger <b>red circle.</b></p><div style='float: center'><img src='materials/instructions/Ebbinghaus_Demo.png' height='300'></img><p><img src='utils/answer/answer_leftright_keyboard.PNG' height='150'></img></p><p class='small'>In this example, the correct answer is the <b>LEFT arrow</b>.</p></div><p>Are you ready? <b>Press ENTER to start</b></p>"	n/a	n/a	n/a	n/a	n/a	n/a	n/a	n/a	n/a	n/a
n/a	"html-keyboard-response"	"7"	"2210294"	"0.0-4.0-1.0-2.0-0.0"	"sycyrw"	"600"	"1366"	"chrome"	"110.0.0"	"FALSE"	"Windows 10"	"60.81"	"039"	n/a	n/a	n/a	n/a	n/a	n/a	"fixation"	n/a	n/a	n/a	n/a	"NULL"	n/a	"NULL"	"NULL"	"NULL"	"<p style=\"color: black; font-size: 80px; padding-left: 23%; padding-right: 40%; padding-top: 19%; padding-bottom: 35%\">+</p>"	"1438"	n/a	n/a	n/a	n/a	n/a	n/a	n/a	n/a	n/a
n/a	"image-keyboard-response"	"8"	"2211703"	"0.0-4.0-1.0-2.0-1.0"	"sycyrw"	"600"	"1366"	"chrome"	"110.0.0"	"FALSE"	"Windows 10"	"60.81"	"039"	n/a	n/a	n/a	n/a	n/a	n/a	"Trial"	n/a	n/a	n/a	"1400"	"arrowleft"	n/a	"NULL"	"NULL"	"NULL"	"stimuli/Ebbinghaus_0000000_-1.4000.png"	n/a	"Ebbinghaus"	"arrowright"	"1953"	"FALSE"	"Ebbinghaus"	"000000000000"	"-1.400000000"	"1"	"1"
n/a	"html-keyboard-response"	"9"	"2212799"	"0.0-4.0-1.0-2.0-0.1"	"sycyrw"	"600"	"1366"	"chrome"	"110.0.0"	"FALSE"	"Windows 10"	"60.81"	"039"	n/a	n/a	n/a	n/a	n/a	n/a	"fixation"	n/a	n/a	n/a	n/a	"NULL"	n/a	"NULL"	"NULL"	"NULL"	"<p style=\"color: black; font-size: 80px; padding-left: 2%; padding-right: 30%; padding-top: 4%; padding-bottom: 32%\">+</p>"	"1086"	n/a	n/a	n/a	n/a	n/a	n/a	n/a	n/a	n/a
n/a	"image-keyboard-response"	"10"	"2214608"	"0.0-4.0-1.0-2.0-1.1"	"sycyrw"	"600"	"1366"	"chrome"	"110.0.0"	"FALSE"	"Windows 10"	"60.81"	"039"	n/a	n/a	n/a	n/a	n/a	n/a	"Trial"	n/a	n/a	n/a	"1808"	"arrowright"	n/a	"NULL"	"NULL"	"NULL"	"stimuli/Ebbinghaus_-100000_-1.4000.png"	n/a	"Ebbinghaus"	"arrowright"	"1096"	"TRUE"	"Ebbinghaus"	"-10000000000"	"-1.400000000"	"1"	"2"
n/a	"html-keyboard-response"	"11"	"2215859"	"0.0-4.0-1.0-2.0-0.2"	"sycyrw"	"600"	"1366"	"chrome"	"110.0.0"	"FALSE"	"Windows 10"	"60.81"	"039"	n/a	n/a	n/a	n/a	n/a	n/a	"fixation"	n/a	n/a	n/a	n/a	"NULL"	n/a	"NULL"	"NULL"	"NULL"	"<p style=\"color: black; font-size: 80px; padding-left: 36%; padding-right: 19%; padding-top: 23%; padding-bottom: 25%\">+</p>"	"1241"	n/a	n/a	n/a	n/a	n/a	n/a	n/a	n/a	n/a
n/a	"image-keyboard-response"	"12"	"2216642"	"0.0-4.0-1.0-2.0-1.2"	"sycyrw"	"600"	"1366"	"chrome"	"110.0.0"	"FALSE"	"Windows 10"	"60.81"	"039"	n/a	n/a	n/a	n/a	n/a	n/a	"Trial"	n/a	n/a	n/a	"782"	"arrowleft"	n/a	"NULL"	"NULL"	"NULL"	"stimuli/Ebbinghaus_1000000_1.40000.png"	n/a	"Ebbinghaus"	"arrowleft"	"1251"	"TRUE"	"Ebbinghaus"	"100000000000"	"1.4000000000"	"1"	"3"
n/a	"html-keyboard-response"	"13"	"2217905"	"0.0-4.0-1.0-2.0-0.3"	"sycyrw"	"600"	"1366"	"chrome"	"110.0.0"	"FALSE"	"Windows 10"	"60.81"	"039"	n/a	n/a	n/a	n/a	n/a	n/a	"fixation"	n/a	n/a	n/a	n/a	"NULL"	n/a	"NULL"	"NULL"	"NULL"	"<p style=\"color: black; font-size: 80px; padding-left: 9%; padding-right: 1%; padding-top: 5%; padding-bottom: 2%\">+</p>"	"1251"	n/a	n/a	n/a	n/a	n/a	n/a	n/a	n/a	n/a
n/a	"image-keyboard-response"	"14"	"2218804"	"0.0-4.0-1.0-2.0-1.3"	"sycyrw"	"600"	"1366"	"chrome"	"110.0.0"	"FALSE"	"Windows 10"	"60.81"	"039"	n/a	n/a	n/a	n/a	n/a	n/a	"Trial"	n/a	n/a	n/a	"899"	"arrowleft"	n/a	"NULL"	"NULL"	"NULL"	"stimuli/Ebbinghaus_0000000_1.40000.png"	n/a	"Ebbinghaus"	"arrowleft"	"1263"	"TRUE"	"Ebbinghaus"	"000000000000"	"1.4000000000"	"1"	"4"
n/a	"html-keyboard-response"	"15"	"2219951"	"0.0-4.0-1.0-2.0-0.4"	"sycyrw"	"600"	"1366"	"chrome"	"110.0.0"	"FALSE"	"Windows 10"	"60.81"	"039"	n/a	n/a	n/a	n/a	n/a	n/a	"fixation"	n/a	n/a	n/a	n/a	"NULL"	n/a	"NULL"	"NULL"	"NULL"	"<p style=\"color: black; font-size: 80px; padding-left: 8%; padding-right: 23%; padding-top: 2%; padding-bottom: 13%\">+</p>"	"1141"	n/a	n/a	n/a	n/a	n/a	n/a	n/a	n/a	n/a
n/a	"image-keyboard-response"	"16"	"2220744"	"0.0-4.0-1.0-2.0-1.4"	"sycyrw"	"600"	"1366"	"chrome"	"110.0.0"	"FALSE"	"Windows 10"	"60.81"	"039"	n/a	n/a	n/a	n/a	n/a	n/a	"Trial"	n/a	n/a	n/a	"792"	"arrowright"	n/a	"NULL"	"NULL"	"NULL"	"stimuli/Ebbinghaus_1000000_-1.4000.png"	n/a	"Ebbinghaus"	"arrowright"	"1147"	"TRUE"	"Ebbinghaus"	"100000000000"	"-1.400000000"	"1"	"5"
n/a	"html-keyboard-response"	"17"	"2222201"	"0.0-4.0-1.0-2.0-0.5"	"sycyrw"	"600"	"1366"	"chrome"	"110.0.0"	"FALSE"	"Windows 10"	"60.81"	"039"	n/a	n/a	n/a	n/a	n/a	n/a	"fixation"	n/a	n/a	n/a	n/a	"NULL"	n/a	"NULL"	"NULL"	"NULL"	"<p style=\"color: black; font-size: 80px; padding-left: 47%; padding-right: 49%; padding-top: 49%; padding-bottom: 27%\">+</p>"	"1453"	n/a	n/a	n/a	n/a	n/a	n/a	n/a	n/a	n/a
n/a	"image-keyboard-response"	"18"	"2222820"	"0.0-4.0-1.0-2.0-1.5"	"sycyrw"	"600"	"1366"	"chrome"	"110.0.0"	"FALSE"	"Windows 10"	"60.81"	"039"	n/a	n/a	n/a	n/a	n/a	n/a	"Trial"	n/a	n/a	n/a	"618"	"arrowleft"	n/a	"NULL"	"NULL"	"NULL"	"stimuli/Ebbinghaus_-100000_1.40000.png"	n/a	"Ebbinghaus"	"arrowleft"	"1457"	"TRUE"	"Ebbinghaus"	"-10000000000"	"1.4000000000"	"1"	"6"
n/a	"html-button-response"	"19"	"2229680"	"0.0-4.0-1.0-3.0"	"sycyrw"	"600"	"1366"	"chrome"	"110.0.0"	"FALSE"	"Windows 10"	"60.81"	"039"	n/a	n/a	n/a	n/a	n/a	n/a	"practice_block_results"	n/a	n/a	n/a	"6857"	"0"	n/a	"NULL"	"NULL"	"NULL"	"<p style='color:rgb(76,175,80);'> Correct Responses: <b>83.33%</b></p><hr><p style='color:rgb(233,30,99);'> Average Response Time: <b>1049.83</b> ms.</p>"	n/a	n/a	n/a	n/a	n/a	n/a	n/a	n/a	n/a	n/a
"TRUE"	"preload"	"20"	"2230206"	"0.0-4.0-2.0-0.0"	"sycyrw"	"600"	"1366"	"chrome"	"110.0.0"	"FALSE"	"Windows 10"	"60.81"	"039"	n/a	n/a	n/a	n/a	n/a	n/a	n/a	n/a	n/a	n/a	n/a	"NULL"	"FALSE"	"list()"	"list()"	"list()"	n/a	n/a	n/a	n/a	n/a	n/a	n/a	n/a	n/a	n/a	n/a
n/a	"html-keyboard-response"	"21"	"2243129"	"0.0-4.0-2.0-1.0"	"sycyrw"	"600"	"1366"	"chrome"	"110.0.0"	"FALSE"	"Windows 10"	"60.81"	"039"	n/a	n/a	n/a	n/a	n/a	n/a	n/a	n/a	n/a	n/a	"12922"	"enter"	n/a	"NULL"	"NULL"	"NULL"	"<p><b>Practice</b></p><p>In this part, two horizontal red lines will appear one above the other.</p><p>Your task is to select which <b>line is longer</b> in length as fast as you can, without making errors.</p><p>Don't get distracted by the surrounding black arrows at the end of the red lines!</p><p>Press <b>the UP or the DOWN arrow</b> to indicate where is the longer <b>red line.</b></p><div style='float: center'><img src='materials/instructions/MullerLyer_Demo.png' height='300'></img><p><img src='utils/answer/answer_updown_keyboard.PNG' height='150'></img></p><p class='small'>In this example, the correct answer is the <b>UP arrow</b>.</p></div><p>Are you ready? <b>Press ENTER to start</b></p>"	n/a	n/a	n/a	n/a	n/a	n/a	n/a	n/a	n/a	n/a
n/a	"html-keyboard-response"	"22"	"2244875"	"0.0-4.0-2.0-2.0-0.0"	"sycyrw"	"600"	"1366"	"chrome"	"110.0.0"	"FALSE"	"Windows 10"	"60.81"	"039"	n/a	n/a	n/a	n/a	n/a	n/a	"fixation"	n/a	n/a	n/a	n/a	"NULL"	n/a	"NULL"	"NULL"	"NULL"	"<p style=\"color: black; font-size: 80px; padding-left: 32%; padding-right: 43%; padding-top: 38%; padding-bottom: 49%\">+</p>"	"1244"	n/a	n/a	n/a	n/a	n/a	n/a	n/a	n/a	n/a
n/a	"image-keyboard-response"	"23"	"2248343"	"0.0-4.0-2.0-2.0-1.0"	"sycyrw"	"600"	"1366"	"chrome"	"110.0.0"	"FALSE"	"Windows 10"	"60.81"	"039"	n/a	n/a	n/a	n/a	n/a	n/a	"Trial"	n/a	n/a	n/a	"3466"	"arrowdown"	n/a	"NULL"	"NULL"	"NULL"	"stimuli/MullerLyer_2300000_0.70000.png"	n/a	"MullerLyer"	"arrowup"	"1746"	"FALSE"	"MullerLyer"	"230000000000"	"0.7000000000"	"1"	"7"
n/a	"html-keyboard-response"	"24"	"2249749"	"0.0-4.0-2.0-2.0-0.1"	"sycyrw"	"600"	"1366"	"chrome"	"110.0.0"	"FALSE"	"Windows 10"	"60.81"	"039"	n/a	n/a	n/a	n/a	n/a	n/a	"fixation"	n/a	n/a	n/a	n/a	"NULL"	n/a	"NULL"	"NULL"	"NULL"	"<p style=\"color: black; font-size: 80px; padding-left: 29%; padding-right: 31%; padding-top: 44%; padding-bottom: 23%\">+</p>"	"1404"	n/a	n/a	n/a	n/a	n/a	n/a	n/a	n/a	n/a
n/a	"image-keyboard-response"	"25"	"2250836"	"0.0-4.0-2.0-2.0-1.1"	"sycyrw"	"600"	"1366"	"chrome"	"110.0.0"	"FALSE"	"Windows 10"	"60.81"	"039"	n/a	n/a	n/a	n/a	n/a	n/a	"Trial"	n/a	n/a	n/a	"1086"	"arrowdown"	n/a	"NULL"	"NULL"	"NULL"	"stimuli/MullerLyer_-230000_-0.7000.png"	n/a	"MullerLyer"	"arrowdown"	"1406"	"TRUE"	"MullerLyer"	"-23000000000"	"-0.700000000"	"1"	"8"
n/a	"html-keyboard-response"	"26"	"2252092"	"0.0-4.0-2.0-2.0-0.2"	"sycyrw"	"600"	"1366"	"chrome"	"110.0.0"	"FALSE"	"Windows 10"	"60.81"	"039"	n/a	n/a	n/a	n/a	n/a	n/a	"fixation"	n/a	n/a	n/a	n/a	"NULL"	n/a	"NULL"	"NULL"	"NULL"	"<p style=\"color: black; font-size: 80px; padding-left: 4%; padding-right: 32%; padding-top: 22%; padding-bottom: 26%\">+</p>"	"1241"	n/a	n/a	n/a	n/a	n/a	n/a	n/a	n/a	n/a
n/a	"image-keyboard-response"	"27"	"2252892"	"0.0-4.0-2.0-2.0-1.2"	"sycyrw"	"600"	"1366"	"chrome"	"110.0.0"	"FALSE"	"Windows 10"	"60.81"	"039"	n/a	n/a	n/a	n/a	n/a	n/a	"Trial"	n/a	n/a	n/a	"800"	"arrowdown"	n/a	"NULL"	"NULL"	"NULL"	"stimuli/MullerLyer_2300000_-0.7000.png"	n/a	"MullerLyer"	"arrowdown"	"1256"	"TRUE"	"MullerLyer"	"230000000000"	"-0.700000000"	"1"	"9"
n/a	"html-keyboard-response"	"28"	"2254311"	"0.0-4.0-2.0-2.0-0.3"	"sycyrw"	"600"	"1366"	"chrome"	"110.0.0"	"FALSE"	"Windows 10"	"60.81"	"039"	n/a	n/a	n/a	n/a	n/a	n/a	"fixation"	n/a	n/a	n/a	n/a	"NULL"	n/a	"NULL"	"NULL"	"NULL"	"<p style=\"color: black; font-size: 80px; padding-left: 11%; padding-right: 30%; padding-top: 7%; padding-bottom: 4%\">+</p>"	"1407"	n/a	n/a	n/a	n/a	n/a	n/a	n/a	n/a	n/a
n/a	"image-keyboard-response"	"29"	"2254991"	"0.0-4.0-2.0-2.0-1.3"	"sycyrw"	"600"	"1366"	"chrome"	"110.0.0"	"FALSE"	"Windows 10"	"60.81"	"039"	n/a	n/a	n/a	n/a	n/a	n/a	"Trial"	n/a	n/a	n/a	"679"	"arrowup"	n/a	"NULL"	"NULL"	"NULL"	"stimuli/MullerLyer_-230000_0.70000.png"	n/a	"MullerLyer"	"arrowup"	"1419"	"TRUE"	"MullerLyer"	"-23000000000"	"0.7000000000"	"1"	"10"
n/a	"html-keyboard-response"	"30"	"2256292"	"0.0-4.0-2.0-2.0-0.4"	"sycyrw"	"600"	"1366"	"chrome"	"110.0.0"	"FALSE"	"Windows 10"	"60.81"	"039"	n/a	n/a	n/a	n/a	n/a	n/a	"fixation"	n/a	n/a	n/a	n/a	"NULL"	n/a	"NULL"	"NULL"	"NULL"	"<p style=\"color: black; font-size: 80px; padding-left: 6%; padding-right: 43%; padding-top: 25%; padding-bottom: 26%\">+</p>"	"1287"	n/a	n/a	n/a	n/a	n/a	n/a	n/a	n/a	n/a
n/a	"image-keyboard-response"	"31"	"2257181"	"0.0-4.0-2.0-2.0-1.4"	"sycyrw"	"600"	"1366"	"chrome"	"110.0.0"	"FALSE"	"Windows 10"	"60.81"	"039"	n/a	n/a	n/a	n/a	n/a	n/a	"Trial"	n/a	n/a	n/a	"888"	"arrowdown"	n/a	"NULL"	"NULL"	"NULL"	"stimuli/MullerLyer_0000000_-0.7000.png"	n/a	"MullerLyer"	"arrowdown"	"1301"	"TRUE"	"MullerLyer"	"000000000000"	"-0.700000000"	"1"	"11"
n/a	"html-keyboard-response"	"32"	"2258559"	"0.0-4.0-2.0-2.0-0.5"	"sycyrw"	"600"	"1366"	"chrome"	"110.0.0"	"FALSE"	"Windows 10"	"60.81"	"039"	n/a	n/a	n/a	n/a	n/a	n/a	"fixation"	n/a	n/a	n/a	n/a	"NULL"	n/a	"NULL"	"NULL"	"NULL"	"<p style=\"color: black; font-size: 80px; padding-left: 23%; padding-right: 4%; padding-top: 6%; padding-bottom: 22%\">+</p>"	"1363"	n/a	n/a	n/a	n/a	n/a	n/a	n/a	n/a	n/a
n/a	"image-keyboard-response"	"33"	"2259099"	"0.0-4.0-2.0-2.0-1.5"	"sycyrw"	"600"	"1366"	"chrome"	"110.0.0"	"FALSE"	"Windows 10"	"60.81"	"039"	n/a	n/a	n/a	n/a	n/a	n/a	"Trial"	n/a	n/a	n/a	"539"	"arrowup"	n/a	"NULL"	"NULL"	"NULL"	"stimuli/MullerLyer_0000000_0.70000.png"	n/a	"MullerLyer"	"arrowup"	"1378"	"TRUE"	"MullerLyer"	"000000000000"	"0.7000000000"	"1"	"12"
n/a	"html-button-response"	"34"	"2261792"	"0.0-4.0-2.0-3.0"	"sycyrw"	"600"	"1366"	"chrome"	"110.0.0"	"FALSE"	"Windows 10"	"60.81"	"039"	n/a	n/a	n/a	n/a	n/a	n/a	"practice_block_results"	n/a	n/a	n/a	"2692"	"0"	n/a	"NULL"	"NULL"	"NULL"	"<p style='color:rgb(76,175,80);'> Correct Responses: <b>83.33%</b></p><hr><p style='color:rgb(233,30,99);'> Average Response Time: <b>1243.00</b> ms.</p>"	n/a	n/a	n/a	n/a	n/a	n/a	n/a	n/a	n/a	n/a
"TRUE"	"preload"	"35"	"2262825"	"0.0-4.0-3.0-0.0"	"sycyrw"	"600"	"1366"	"chrome"	"110.0.0"	"FALSE"	"Windows 10"	"60.81"	"039"	n/a	n/a	n/a	n/a	n/a	n/a	n/a	n/a	n/a	n/a	n/a	"NULL"	"FALSE"	"list()"	"list()"	"list()"	n/a	n/a	n/a	n/a	n/a	n/a	n/a	n/a	n/a	n/a	n/a
n/a	"html-keyboard-response"	"36"	"2270579"	"0.0-4.0-3.0-1.0"	"sycyrw"	"600"	"1366"	"chrome"	"110.0.0"	"FALSE"	"Windows 10"	"60.81"	"039"	n/a	n/a	n/a	n/a	n/a	n/a	n/a	n/a	n/a	n/a	"7753"	"enter"	n/a	"NULL"	"NULL"	"NULL"	"<p><b>Practice</b></p><p>In this part, two red lines will appear side by side.</p><p>Your task is to tell <b>which line is longer</b> in length, regardless of their orientation, as fast as you can, and without making errors.</p><p>Don't get distracted by the orientation of the lines!</p><p>Press <b>the LEFT or the RIGHT arrow</b> to indicate which <b>line is the longer one.</b></p><div style='float: center'><img src='materials/instructions/VerticalHorizontal_Demo.png' height='300'></img><p><img src='utils/answer/answer_leftright_keyboard.PNG' height='150'></img></p><p class='small'>In this example, the correct answer is the <b>LEFT arrow</b>.</p></div><p>Are you ready? <b>Press ENTER to start</b></p>"	n/a	n/a	n/a	n/a	n/a	n/a	n/a	n/a	n/a	n/a
n/a	"html-keyboard-response"	"37"	"2272575"	"0.0-4.0-3.0-2.0-0.0"	"sycyrw"	"600"	"1366"	"chrome"	"110.0.0"	"FALSE"	"Windows 10"	"60.81"	"039"	n/a	n/a	n/a	n/a	n/a	n/a	"fixation"	n/a	n/a	n/a	n/a	"NULL"	n/a	"NULL"	"NULL"	"NULL"	"<p style=\"color: black; font-size: 80px; padding-left: 20%; padding-right: 27%; padding-top: 20%; padding-bottom: 24%\">+</p>"	"1470"	n/a	n/a	n/a	n/a	n/a	n/a	n/a	n/a	n/a
n/a	"image-keyboard-response"	"38"	"2273164"	"0.0-4.0-3.0-2.0-1.0"	"sycyrw"	"600"	"1366"	"chrome"	"110.0.0"	"FALSE"	"Windows 10"	"60.81"	"039"	n/a	n/a	n/a	n/a	n/a	n/a	"Trial"	n/a	n/a	n/a	"588"	"arrowright"	n/a	"NULL"	"NULL"	"NULL"	"stimuli/VerticalHorizontal_3300000_-0.9000.png"	n/a	"VerticalHorizontal"	"arrowright"	"1996"	"TRUE"	"VerticalHorizontal"	"330000000000"	"-0.900000000"	"1"	"13"
n/a	"html-keyboard-response"	"39"	"2274640"	"0.0-4.0-3.0-2.0-0.1"	"sycyrw"	"600"	"1366"	"chrome"	"110.0.0"	"FALSE"	"Windows 10"	"60.81"	"039"	n/a	n/a	n/a	n/a	n/a	n/a	"fixation"	n/a	n/a	n/a	n/a	"NULL"	n/a	"NULL"	"NULL"	"NULL"	"<p style=\"color: black; font-size: 80px; padding-left: 2%; padding-right: 40%; padding-top: 29%; padding-bottom: 29%\">+</p>"	"1467"	n/a	n/a	n/a	n/a	n/a	n/a	n/a	n/a	n/a
n/a	"image-keyboard-response"	"40"	"2275405"	"0.0-4.0-3.0-2.0-1.1"	"sycyrw"	"600"	"1366"	"chrome"	"110.0.0"	"FALSE"	"Windows 10"	"60.81"	"039"	n/a	n/a	n/a	n/a	n/a	n/a	"Trial"	n/a	n/a	n/a	"765"	"arrowleft"	n/a	"NULL"	"NULL"	"NULL"	"stimuli/VerticalHorizontal_3300000_0.90000.png"	n/a	"VerticalHorizontal"	"arrowleft"	"1476"	"TRUE"	"VerticalHorizontal"	"330000000000"	"0.9000000000"	"1"	"14"
n/a	"html-keyboard-response"	"41"	"2276779"	"0.0-4.0-3.0-2.0-0.2"	"sycyrw"	"600"	"1366"	"chrome"	"110.0.0"	"FALSE"	"Windows 10"	"60.81"	"039"	n/a	n/a	n/a	n/a	n/a	n/a	"fixation"	n/a	n/a	n/a	n/a	"NULL"	n/a	"NULL"	"NULL"	"NULL"	"<p style=\"color: black; font-size: 80px; padding-left: 39%; padding-right: 38%; padding-top: 49%; padding-bottom: 15%\">+</p>"	"1372"	n/a	n/a	n/a	n/a	n/a	n/a	n/a	n/a	n/a
n/a	"image-keyboard-response"	"42"	"2277241"	"0.0-4.0-3.0-2.0-1.2"	"sycyrw"	"600"	"1366"	"chrome"	"110.0.0"	"FALSE"	"Windows 10"	"60.81"	"039"	n/a	n/a	n/a	n/a	n/a	n/a	"Trial"	n/a	n/a	n/a	"460"	"arrowright"	n/a	"NULL"	"NULL"	"NULL"	"stimuli/VerticalHorizontal_0000000_-0.9000.png"	n/a	"VerticalHorizontal"	"arrowright"	"1374"	"TRUE"	"VerticalHorizontal"	"000000000000"	"-0.900000000"	"1"	"15"
n/a	"html-keyboard-response"	"43"	"2278491"	"0.0-4.0-3.0-2.0-0.3"	"sycyrw"	"600"	"1366"	"chrome"	"110.0.0"	"FALSE"	"Windows 10"	"60.81"	"039"	n/a	n/a	n/a	n/a	n/a	n/a	"fixation"	n/a	n/a	n/a	n/a	"NULL"	n/a	"NULL"	"NULL"	"NULL"	"<p style=\"color: black; font-size: 80px; padding-left: 24%; padding-right: 26%; padding-top: 23%; padding-bottom: 13%\">+</p>"	"1240"	n/a	n/a	n/a	n/a	n/a	n/a	n/a	n/a	n/a
n/a	"image-keyboard-response"	"44"	"2278904"	"0.0-4.0-3.0-2.0-1.3"	"sycyrw"	"600"	"1366"	"chrome"	"110.0.0"	"FALSE"	"Windows 10"	"60.81"	"039"	n/a	n/a	n/a	n/a	n/a	n/a	"Trial"	n/a	n/a	n/a	"412"	"arrowleft"	n/a	"NULL"	"NULL"	"NULL"	"stimuli/VerticalHorizontal_0000000_0.90000.png"	n/a	"VerticalHorizontal"	"arrowleft"	"1250"	"TRUE"	"VerticalHorizontal"	"000000000000"	"0.9000000000"	"1"	"16"
n/a	"html-keyboard-response"	"45"	"2280030"	"0.0-4.0-3.0-2.0-0.4"	"sycyrw"	"600"	"1366"	"chrome"	"110.0.0"	"FALSE"	"Windows 10"	"60.81"	"039"	n/a	n/a	n/a	n/a	n/a	n/a	"fixation"	n/a	n/a	n/a	n/a	"NULL"	n/a	"NULL"	"NULL"	"NULL"	"<p style=\"color: black; font-size: 80px; padding-left: 37%; padding-right: 7%; padding-top: 32%; padding-bottom: 5%\">+</p>"	"1119"	n/a	n/a	n/a	n/a	n/a	n/a	n/a	n/a	n/a
n/a	"image-keyboard-response"	"46"	"2280438"	"0.0-4.0-3.0-2.0-1.4"	"sycyrw"	"600"	"1366"	"chrome"	"110.0.0"	"FALSE"	"Windows 10"	"60.81"	"039"	n/a	n/a	n/a	n/a	n/a	n/a	"Trial"	n/a	n/a	n/a	"407"	"arrowleft"	n/a	"NULL"	"NULL"	"NULL"	"stimuli/VerticalHorizontal_-330000_0.90000.png"	n/a	"VerticalHorizontal"	"arrowleft"	"1126"	"TRUE"	"VerticalHorizontal"	"-33000000000"	"0.9000000000"	"1"	"17"
n/a	"html-keyboard-response"	"47"	"2281623"	"0.0-4.0-3.0-2.0-0.5"	"sycyrw"	"600"	"1366"	"chrome"	"110.0.0"	"FALSE"	"Windows 10"	"60.81"	"039"	n/a	n/a	n/a	n/a	n/a	n/a	"fixation"	n/a	n/a	n/a	n/a	"NULL"	n/a	"NULL"	"NULL"	"NULL"	"<p style=\"color: black; font-size: 80px; padding-left: 38%; padding-right: 38%; padding-top: 18%; padding-bottom: 13%\">+</p>"	"1174"	n/a	n/a	n/a	n/a	n/a	n/a	n/a	n/a	n/a
n/a	"image-keyboard-response"	"48"	"2282045"	"0.0-4.0-3.0-2.0-1.5"	"sycyrw"	"600"	"1366"	"chrome"	"110.0.0"	"FALSE"	"Windows 10"	"60.81"	"039"	n/a	n/a	n/a	n/a	n/a	n/a	"Trial"	n/a	n/a	n/a	"421"	"arrowright"	n/a	"NULL"	"NULL"	"NULL"	"stimuli/VerticalHorizontal_-330000_-0.9000.png"	n/a	"VerticalHorizontal"	"arrowright"	"1185"	"TRUE"	"VerticalHorizontal"	"-33000000000"	"-0.900000000"	"1"	"18"
n/a	"html-button-response"	"49"	"2284248"	"0.0-4.0-3.0-3.0"	"sycyrw"	"600"	"1366"	"chrome"	"110.0.0"	"FALSE"	"Windows 10"	"60.81"	"039"	n/a	n/a	n/a	n/a	n/a	n/a	"practice_block_results"	n/a	n/a	n/a	"2202"	"0"	n/a	"NULL"	"NULL"	"NULL"	"<p style='color:rgb(76,175,80);'> Correct Responses: <b>100.00%</b></p><hr><p style='color:rgb(233,30,99);'> Average Response Time: <b>508.83</b> ms.</p>"	n/a	n/a	n/a	n/a	n/a	n/a	n/a	n/a	n/a	n/a
n/a	"html-button-response"	"50"	"2376600"	"0.0-4.0-4.0"	"sycyrw"	"600"	"1366"	"chrome"	"110.0.0"	"FALSE"	"Windows 10"	"60.81"	"039"	n/a	n/a	n/a	n/a	n/a	n/a	"practice_debrief"	n/a	n/a	n/a	"91836"	"0"	n/a	"NULL"	"NULL"	"NULL"	"<p><b>TRAINING COMPLETED</b></p><p>In the next phase, there will be more trials, and some might be harder too.<br> Moreover, after each illusion block, a <b>score</b> will be calculated based on speed (time you took to answer) and accuracy (number of errors).</p><p>Try to keep up a high score!</p><br><p>Note that it can be <i>really</i> challenging at times, so you will need to rely on your <b>intuition</b> and gut feeling to answer as fast as you can without making errors.</p><p>Each illusion block will be repeated two times (so that you have the opportunity to improve your score), but the order of the blocks is random.</p><p>Remember, your goal is to be as <b>fast</b> and <b>accurate</b> as possible. Good luck!</p><br>"	n/a	n/a	n/a	n/a	n/a	n/a	n/a	n/a	n/a	n/a
"TRUE"	"preload"	"51"	"2376751"	"0.0-5.0-0.0"	"sycyrw"	"600"	"1366"	"chrome"	"110.0.0"	"FALSE"	"Windows 10"	"60.81"	"039"	n/a	n/a	n/a	n/a	n/a	n/a	n/a	n/a	n/a	n/a	n/a	"NULL"	"FALSE"	"list()"	"list()"	"list()"	n/a	n/a	n/a	n/a	n/a	n/a	n/a	n/a	n/a	n/a	n/a
n/a	"html-keyboard-response"	"52"	"2380792"	"0.0-5.0-1.0"	"sycyrw"	"600"	"1366"	"chrome"	"110.0.0"	"FALSE"	"Windows 10"	"60.81"	"039"	n/a	n/a	n/a	n/a	n/a	n/a	n/a	n/a	n/a	n/a	"4040"	"enter"	n/a	"NULL"	"NULL"	"NULL"	"<p><b>Part 1/6</b></p><p>In this part, two red circles will appear side by side on the screen.</p><p>Your task is to select which <b>red circle is bigger</b> in size as fast as you can, without making errors.</p><p>Don't get distracted by the surrounding black circles around the red circles!</p><p>Press <b>the LEFT or the RIGHT arrow</b> to indicate which is the bigger <b>red circle.</b></p><div style='float: center'><img src='materials/instructions/Ebbinghaus_Demo.png' height='300'></img><p><img src='utils/answer/answer_leftright_keyboard.PNG' height='150'></img></p><p class='small'>In this example, the correct answer is the <b>LEFT arrow</b>.</p></div><p>Are you ready? <b>Press ENTER to start</b></p>"	n/a	n/a	n/a	n/a	n/a	n/a	n/a	n/a	n/a	n/a
n/a	"html-keyboard-response"	"53"	"2382357"	"0.0-5.0-2.0-0.0"	"sycyrw"	"600"	"1366"	"chrome"	"110.0.0"	"FALSE"	"Windows 10"	"60.81"	"039"	n/a	n/a	n/a	n/a	n/a	n/a	"fixation"	n/a	n/a	n/a	n/a	"NULL"	n/a	"NULL"	"NULL"	"NULL"	"<p style=\"color: black; font-size: 80px; padding-left: 28%; padding-right: 2%; padding-top: 36%; padding-bottom: 29%\">+</p>"	"1039"	n/a	n/a	n/a	n/a	n/a	n/a	n/a	n/a	n/a
n/a	"image-keyboard-response"	"54"	"2383310"	"0.0-5.0-2.0-1.0"	"sycyrw"	"600"	"1366"	"chrome"	"110.0.0"	"FALSE"	"Windows 10"	"60.81"	"039"	n/a	n/a	n/a	n/a	n/a	n/a	"Trial"	n/a	n/a	n/a	"952"	"arrowright"	n/a	"NULL"	"NULL"	"NULL"	"stimuli/Ebbinghaus_-0.61429_-0.2800.png"	n/a	"Ebbinghaus"	"arrowright"	"1565"	"TRUE"	"Ebbinghaus"	"-0.614290000"	"-0.280000000"	"1"	"19"
n/a	"html-keyboard-response"	"55"	"2384321"	"0.0-5.0-2.0-0.1"	"sycyrw"	"600"	"1366"	"chrome"	"110.0.0"	"FALSE"	"Windows 10"	"60.81"	"039"	n/a	n/a	n/a	n/a	n/a	n/a	"fixation"	n/a	n/a	n/a	n/a	"NULL"	n/a	"NULL"	"NULL"	"NULL"	"<p style=\"color: black; font-size: 80px; padding-left: 10%; padding-right: 12%; padding-top: 19%; padding-bottom: 0%\">+</p>"	"1006"	n/a	n/a	n/a	n/a	n/a	n/a	n/a	n/a	n/a
n/a	"image-keyboard-response"	"56"	"2384997"	"0.0-5.0-2.0-1.1"	"sycyrw"	"600"	"1366"	"chrome"	"110.0.0"	"FALSE"	"Windows 10"	"60.81"	"039"	n/a	n/a	n/a	n/a	n/a	n/a	"Trial"	n/a	n/a	n/a	"675"	"arrowleft"	n/a	"NULL"	"NULL"	"NULL"	"stimuli/Ebbinghaus_-0.61429_0.28000.png"	n/a	"Ebbinghaus"	"arrowleft"	"1011"	"TRUE"	"Ebbinghaus"	"-0.614290000"	"0.2800000000"	"1"	"20"
n/a	"html-keyboard-response"	"57"	"2386220"	"0.0-5.0-2.0-0.2"	"sycyrw"	"600"	"1366"	"chrome"	"110.0.0"	"FALSE"	"Windows 10"	"60.81"	"039"	n/a	n/a	n/a	n/a	n/a	n/a	"fixation"	n/a	n/a	n/a	n/a	"NULL"	n/a	"NULL"	"NULL"	"NULL"	"<p style=\"color: black; font-size: 80px; padding-left: 21%; padding-right: 4%; padding-top: 8%; padding-bottom: 11%\">+</p>"	"1222"	n/a	n/a	n/a	n/a	n/a	n/a	n/a	n/a	n/a
n/a	"image-keyboard-response"	"58"	"2386710"	"0.0-5.0-2.0-1.2"	"sycyrw"	"600"	"1366"	"chrome"	"110.0.0"	"FALSE"	"Windows 10"	"60.81"	"039"	n/a	n/a	n/a	n/a	n/a	n/a	"Trial"	n/a	n/a	n/a	"489"	"arrowright"	n/a	"NULL"	"NULL"	"NULL"	"stimuli/Ebbinghaus_0.87143_-0.11071.png"	n/a	"Ebbinghaus"	"arrowright"	"1223"	"TRUE"	"Ebbinghaus"	"0.8714300000"	"-0.110710000"	"1"	"21"
n/a	"html-keyboard-response"	"59"	"2387797"	"0.0-5.0-2.0-0.3"	"sycyrw"	"600"	"1366"	"chrome"	"110.0.0"	"FALSE"	"Windows 10"	"60.81"	"039"	n/a	n/a	n/a	n/a	n/a	n/a	"fixation"	n/a	n/a	n/a	n/a	"NULL"	n/a	"NULL"	"NULL"	"NULL"	"<p style=\"color: black; font-size: 80px; padding-left: 12%; padding-right: 49%; padding-top: 26%; padding-bottom: 44%\">+</p>"	"1080"	n/a	n/a	n/a	n/a	n/a	n/a	n/a	n/a	n/a
n/a	"image-keyboard-response"	"60"	"2388567"	"0.0-5.0-2.0-1.3"	"sycyrw"	"600"	"1366"	"chrome"	"110.0.0"	"FALSE"	"Windows 10"	"60.81"	"039"	n/a	n/a	n/a	n/a	n/a	n/a	"Trial"	n/a	n/a	n/a	"769"	"arrowright"	n/a	"NULL"	"NULL"	"NULL"	"stimuli/Ebbinghaus_-0.1000_-0.2800.png"	n/a	"Ebbinghaus"	"arrowright"	"1087"	"TRUE"	"Ebbinghaus"	"-0.100000000"	"-0.280000000"	"1"	"22"
n/a	"html-keyboard-response"	"61"	"2389874"	"0.0-5.0-2.0-0.4"	"sycyrw"	"600"	"1366"	"chrome"	"110.0.0"	"FALSE"	"Windows 10"	"60.81"	"039"	n/a	n/a	n/a	n/a	n/a	n/a	"fixation"	n/a	n/a	n/a	n/a	"NULL"	n/a	"NULL"	"NULL"	"NULL"	"<p style=\"color: black; font-size: 80px; padding-left: 30%; padding-right: 46%; padding-top: 42%; padding-bottom: 11%\">+</p>"	"1303"	n/a	n/a	n/a	n/a	n/a	n/a	n/a	n/a	n/a
n/a	"image-keyboard-response"	"62"	"2390608"	"0.0-5.0-2.0-1.4"	"sycyrw"	"600"	"1366"	"chrome"	"110.0.0"	"FALSE"	"Windows 10"	"60.81"	"039"	n/a	n/a	n/a	n/a	n/a	n/a	"Trial"	n/a	n/a	n/a	"733"	"arrowleft"	n/a	"NULL"	"NULL"	"NULL"	"stimuli/Ebbinghaus_-0.35714_0.15857.png"	n/a	"Ebbinghaus"	"arrowleft"	"1307"	"TRUE"	"Ebbinghaus"	"-0.357140000"	"0.1585700000"	"1"	"23"
n/a	"html-keyboard-response"	"63"	"2391905"	"0.0-5.0-2.0-0.5"	"sycyrw"	"600"	"1366"	"chrome"	"110.0.0"	"FALSE"	"Windows 10"	"60.81"	"039"	n/a	n/a	n/a	n/a	n/a	n/a	"fixation"	n/a	n/a	n/a	n/a	"NULL"	n/a	"NULL"	"NULL"	"NULL"	"<p style=\"color: black; font-size: 80px; padding-left: 49%; padding-right: 39%; padding-top: 19%; padding-bottom: 33%\">+</p>"	"1283"	n/a	n/a	n/a	n/a	n/a	n/a	n/a	n/a	n/a
n/a	"image-keyboard-response"	"64"	"2392649"	"0.0-5.0-2.0-1.5"	"sycyrw"	"600"	"1366"	"chrome"	"110.0.0"	"FALSE"	"Windows 10"	"60.81"	"039"	n/a	n/a	n/a	n/a	n/a	n/a	"Trial"	n/a	n/a	n/a	"743"	"arrowleft"	n/a	"NULL"	"NULL"	"NULL"	"stimuli/Ebbinghaus_-0.1000_0.28000.png"	n/a	"Ebbinghaus"	"arrowleft"	"1297"	"TRUE"	"Ebbinghaus"	"-0.100000000"	"0.2800000000"	"1"	"24"
n/a	"html-keyboard-response"	"65"	"2393905"	"0.0-5.0-2.0-0.6"	"sycyrw"	"600"	"1366"	"chrome"	"110.0.0"	"FALSE"	"Windows 10"	"60.81"	"039"	n/a	n/a	n/a	n/a	n/a	n/a	"fixation"	n/a	n/a	n/a	n/a	"NULL"	n/a	"NULL"	"NULL"	"NULL"	"<p style=\"color: black; font-size: 80px; padding-left: 3%; padding-right: 28%; padding-top: 34%; padding-bottom: 6%\">+</p>"	"1245"	n/a	n/a	n/a	n/a	n/a	n/a	n/a	n/a	n/a
n/a	"image-keyboard-response"	"66"	"2394770"	"0.0-5.0-2.0-1.6"	"sycyrw"	"600"	"1366"	"chrome"	"110.0.0"	"FALSE"	"Windows 10"	"60.81"	"039"	n/a	n/a	n/a	n/a	n/a	n/a	"Trial"	n/a	n/a	n/a	"864"	"arrowright"	n/a	"NULL"	"NULL"	"NULL"	"stimuli/Ebbinghaus_0.61429_0.15857.png"	n/a	"Ebbinghaus"	"arrowleft"	"1256"	"FALSE"	"Ebbinghaus"	"0.6142900000"	"0.1585700000"	"1"	"25"
n/a	"html-keyboard-response"	"67"	"2396124"	"0.0-5.0-2.0-0.7"	"sycyrw"	"600"	"1366"	"chrome"	"110.0.0"	"FALSE"	"Windows 10"	"60.81"	"039"	n/a	n/a	n/a	n/a	n/a	n/a	"fixation"	n/a	n/a	n/a	n/a	"NULL"	n/a	"NULL"	"NULL"	"NULL"	"<p style=\"color: black; font-size: 80px; padding-left: 23%; padding-right: 21%; padding-top: 43%; padding-bottom: 16%\">+</p>"	"1351"	n/a	n/a	n/a	n/a	n/a	n/a	n/a	n/a	n/a
n/a	"image-keyboard-response"	"68"	"2397172"	"0.0-5.0-2.0-1.7"	"sycyrw"	"600"	"1366"	"chrome"	"110.0.0"	"FALSE"	"Windows 10"	"60.81"	"039"	n/a	n/a	n/a	n/a	n/a	n/a	"Trial"	n/a	n/a	n/a	"1047"	"arrowleft"	n/a	"NULL"	"NULL"	"NULL"	"stimuli/Ebbinghaus_0.10000_0.28000.png"	n/a	"Ebbinghaus"	"arrowleft"	"1354"	"TRUE"	"Ebbinghaus"	"0.1000000000"	"0.2800000000"	"1"	"26"
n/a	"html-keyboard-response"	"69"	"2398440"	"0.0-5.0-2.0-0.8"	"sycyrw"	"600"	"1366"	"chrome"	"110.0.0"	"FALSE"	"Windows 10"	"60.81"	"039"	n/a	n/a	n/a	n/a	n/a	n/a	"fixation"	n/a	n/a	n/a	n/a	"NULL"	n/a	"NULL"	"NULL"	"NULL"	"<p style=\"color: black; font-size: 80px; padding-left: 44%; padding-right: 10%; padding-top: 42%; padding-bottom: 45%\">+</p>"	"1266"	n/a	n/a	n/a	n/a	n/a	n/a	n/a	n/a	n/a
n/a	"image-keyboard-response"	"70"	"2399502"	"0.0-5.0-2.0-1.8"	"sycyrw"	"600"	"1366"	"chrome"	"110.0.0"	"FALSE"	"Windows 10"	"60.81"	"039"	n/a	n/a	n/a	n/a	n/a	n/a	"Trial"	n/a	n/a	n/a	"1061"	"arrowright"	n/a	"NULL"	"NULL"	"NULL"	"stimuli/Ebbinghaus_0.35714_0.11071.png"	n/a	"Ebbinghaus"	"arrowleft"	"1268"	"FALSE"	"Ebbinghaus"	"0.3571400000"	"0.1107100000"	"1"	"27"
n/a	"html-keyboard-response"	"71"	"2400766"	"0.0-5.0-2.0-0.9"	"sycyrw"	"600"	"1366"	"chrome"	"110.0.0"	"FALSE"	"Windows 10"	"60.81"	"039"	n/a	n/a	n/a	n/a	n/a	n/a	"fixation"	n/a	n/a	n/a	n/a	"NULL"	n/a	"NULL"	"NULL"	"NULL"	"<p style=\"color: black; font-size: 80px; padding-left: 10%; padding-right: 39%; padding-top: 7%; padding-bottom: 13%\">+</p>"	"1257"	n/a	n/a	n/a	n/a	n/a	n/a	n/a	n/a	n/a
n/a	"image-keyboard-response"	"72"	"2401666"	"0.0-5.0-2.0-1.9"	"sycyrw"	"600"	"1366"	"chrome"	"110.0.0"	"FALSE"	"Windows 10"	"60.81"	"039"	n/a	n/a	n/a	n/a	n/a	n/a	"Trial"	n/a	n/a	n/a	"899"	"arrowright"	n/a	"NULL"	"NULL"	"NULL"	"stimuli/Ebbinghaus_0.10000_-0.11071.png"	n/a	"Ebbinghaus"	"arrowright"	"1264"	"TRUE"	"Ebbinghaus"	"0.1000000000"	"-0.110710000"	"1"	"28"
n/a	"html-keyboard-response"	"73"	"2402779"	"0.0-5.0-2.0-0.10"	"sycyrw"	"600"	"1366"	"chrome"	"110.0.0"	"FALSE"	"Windows 10"	"60.81"	"039"	n/a	n/a	n/a	n/a	n/a	n/a	"fixation"	n/a	n/a	n/a	n/a	"NULL"	n/a	"NULL"	"NULL"	"NULL"	"<p style=\"color: black; font-size: 80px; padding-left: 2%; padding-right: 44%; padding-top: 1%; padding-bottom: 22%\">+</p>"	"1109"	n/a	n/a	n/a	n/a	n/a	n/a	n/a	n/a	n/a
n/a	"image-keyboard-response"	"74"	"2403634"	"0.0-5.0-2.0-1.10"	"sycyrw"	"600"	"1366"	"chrome"	"110.0.0"	"FALSE"	"Windows 10"	"60.81"	"039"	n/a	n/a	n/a	n/a	n/a	n/a	"Trial"	n/a	n/a	n/a	"855"	"arrowleft"	n/a	"NULL"	"NULL"	"NULL"	"stimuli/Ebbinghaus_0.87143_0.21500.png"	n/a	"Ebbinghaus"	"arrowleft"	"1113"	"TRUE"	"Ebbinghaus"	"0.8714300000"	"0.2150000000"	"1"	"29"
n/a	"html-keyboard-response"	"75"	"2405095"	"0.0-5.0-2.0-0.11"	"sycyrw"	"600"	"1366"	"chrome"	"110.0.0"	"FALSE"	"Windows 10"	"60.81"	"039"	n/a	n/a	n/a	n/a	n/a	n/a	"fixation"	n/a	n/a	n/a	n/a	"NULL"	n/a	"NULL"	"NULL"	"NULL"	"<p style=\"color: black; font-size: 80px; padding-left: 24%; padding-right: 20%; padding-top: 18%; padding-bottom: 13%\">+</p>"	"1455"	n/a	n/a	n/a	n/a	n/a	n/a	n/a	n/a	n/a
n/a	"image-keyboard-response"	"76"	"2405892"	"0.0-5.0-2.0-1.11"	"sycyrw"	"600"	"1366"	"chrome"	"110.0.0"	"FALSE"	"Windows 10"	"60.81"	"039"	n/a	n/a	n/a	n/a	n/a	n/a	"Trial"	n/a	n/a	n/a	"794"	"arrowright"	n/a	"NULL"	"NULL"	"NULL"	"stimuli/Ebbinghaus_-0.61429_-0.2150.png"	n/a	"Ebbinghaus"	"arrowright"	"1461"	"TRUE"	"Ebbinghaus"	"-0.614290000"	"-0.215000000"	"1"	"30"
n/a	"html-keyboard-response"	"77"	"2407188"	"0.0-5.0-2.0-0.12"	"sycyrw"	"600"	"1366"	"chrome"	"110.0.0"	"FALSE"	"Windows 10"	"60.81"	"039"	n/a	n/a	n/a	n/a	n/a	n/a	"fixation"	n/a	n/a	n/a	n/a	"NULL"	n/a	"NULL"	"NULL"	"NULL"	"<p style=\"color: black; font-size: 80px; padding-left: 47%; padding-right: 40%; padding-top: 24%; padding-bottom: 25%\">+</p>"	"1284"	n/a	n/a	n/a	n/a	n/a	n/a	n/a	n/a	n/a
n/a	"image-keyboard-response"	"78"	"2408113"	"0.0-5.0-2.0-1.12"	"sycyrw"	"600"	"1366"	"chrome"	"110.0.0"	"FALSE"	"Windows 10"	"60.81"	"039"	n/a	n/a	n/a	n/a	n/a	n/a	"Trial"	n/a	n/a	n/a	"924"	"arrowleft"	n/a	"NULL"	"NULL"	"NULL"	"stimuli/Ebbinghaus_0.87143_-0.2800.png"	n/a	"Ebbinghaus"	"arrowright"	"1296"	"FALSE"	"Ebbinghaus"	"0.8714300000"	"-0.280000000"	"1"	"31"
n/a	"html-keyboard-response"	"79"	"2409575"	"0.0-5.0-2.0-0.13"	"sycyrw"	"600"	"1366"	"chrome"	"110.0.0"	"FALSE"	"Windows 10"	"60.81"	"039"	n/a	n/a	n/a	n/a	n/a	n/a	"fixation"	n/a	n/a	n/a	n/a	"NULL"	n/a	"NULL"	"NULL"	"NULL"	"<p style=\"color: black; font-size: 80px; padding-left: 33%; padding-right: 40%; padding-top: 16%; padding-bottom: 17%\">+</p>"	"1456"	n/a	n/a	n/a	n/a	n/a	n/a	n/a	n/a	n/a
n/a	"image-keyboard-response"	"80"	"2410374"	"0.0-5.0-2.0-1.13"	"sycyrw"	"600"	"1366"	"chrome"	"110.0.0"	"FALSE"	"Windows 10"	"60.81"	"039"	n/a	n/a	n/a	n/a	n/a	n/a	"Trial"	n/a	n/a	n/a	"797"	"arrowright"	n/a	"NULL"	"NULL"	"NULL"	"stimuli/Ebbinghaus_0.87143_0.28000.png"	n/a	"Ebbinghaus"	"arrowleft"	"1462"	"FALSE"	"Ebbinghaus"	"0.8714300000"	"0.2800000000"	"1"	"32"
n/a	"html-keyboard-response"	"81"	"2411727"	"0.0-5.0-2.0-0.14"	"sycyrw"	"600"	"1366"	"chrome"	"110.0.0"	"FALSE"	"Windows 10"	"60.81"	"039"	n/a	n/a	n/a	n/a	n/a	n/a	"fixation"	n/a	n/a	n/a	n/a	"NULL"	n/a	"NULL"	"NULL"	"NULL"	"<p style=\"color: black; font-size: 80px; padding-left: 33%; padding-right: 8%; padding-top: 19%; padding-bottom: 17%\">+</p>"	"1340"	n/a	n/a	n/a	n/a	n/a	n/a	n/a	n/a	n/a
n/a	"image-keyboard-response"	"82"	"2412310"	"0.0-5.0-2.0-1.14"	"sycyrw"	"600"	"1366"	"chrome"	"110.0.0"	"FALSE"	"Windows 10"	"60.81"	"039"	n/a	n/a	n/a	n/a	n/a	n/a	"Trial"	n/a	n/a	n/a	"582"	"arrowleft"	n/a	"NULL"	"NULL"	"NULL"	"stimuli/Ebbinghaus_-0.35714_-0.2150.png"	n/a	"Ebbinghaus"	"arrowright"	"1353"	"FALSE"	"Ebbinghaus"	"-0.357140000"	"-0.215000000"	"1"	"33"
n/a	"html-keyboard-response"	"83"	"2413676"	"0.0-5.0-2.0-0.15"	"sycyrw"	"600"	"1366"	"chrome"	"110.0.0"	"FALSE"	"Windows 10"	"60.81"	"039"	n/a	n/a	n/a	n/a	n/a	n/a	"fixation"	n/a	n/a	n/a	n/a	"NULL"	n/a	"NULL"	"NULL"	"NULL"	"<p style=\"color: black; font-size: 80px; padding-left: 19%; padding-right: 26%; padding-top: 34%; padding-bottom: 5%\">+</p>"	"1365"	n/a	n/a	n/a	n/a	n/a	n/a	n/a	n/a	n/a
n/a	"image-keyboard-response"	"84"	"2414150"	"0.0-5.0-2.0-1.15"	"sycyrw"	"600"	"1366"	"chrome"	"110.0.0"	"FALSE"	"Windows 10"	"60.81"	"039"	n/a	n/a	n/a	n/a	n/a	n/a	"Trial"	n/a	n/a	n/a	"474"	"arrowleft"	n/a	"NULL"	"NULL"	"NULL"	"stimuli/Ebbinghaus_0.35714_0.28000.png"	n/a	"Ebbinghaus"	"arrowleft"	"1366"	"TRUE"	"Ebbinghaus"	"0.3571400000"	"0.2800000000"	"1"	"34"
n/a	"html-keyboard-response"	"85"	"2415222"	"0.0-5.0-2.0-0.16"	"sycyrw"	"600"	"1366"	"chrome"	"110.0.0"	"FALSE"	"Windows 10"	"60.81"	"039"	n/a	n/a	n/a	n/a	n/a	n/a	"fixation"	n/a	n/a	n/a	n/a	"NULL"	n/a	"NULL"	"NULL"	"NULL"	"<p style=\"color: black; font-size: 80px; padding-left: 8%; padding-right: 10%; padding-top: 10%; padding-bottom: 47%\">+</p>"	"1055"	n/a	n/a	n/a	n/a	n/a	n/a	n/a	n/a	n/a
n/a	"image-keyboard-response"	"86"	"2415932"	"0.0-5.0-2.0-1.16"	"sycyrw"	"600"	"1366"	"chrome"	"110.0.0"	"FALSE"	"Windows 10"	"60.81"	"039"	n/a	n/a	n/a	n/a	n/a	n/a	"Trial"	n/a	n/a	n/a	"710"	"arrowleft"	n/a	"NULL"	"NULL"	"NULL"	"stimuli/Ebbinghaus_0.61429_-0.2800.png"	n/a	"Ebbinghaus"	"arrowright"	"1072"	"FALSE"	"Ebbinghaus"	"0.6142900000"	"-0.280000000"	"1"	"35"
n/a	"html-keyboard-response"	"87"	"2417123"	"0.0-5.0-2.0-0.17"	"sycyrw"	"600"	"1366"	"chrome"	"110.0.0"	"FALSE"	"Windows 10"	"60.81"	"039"	n/a	n/a	n/a	n/a	n/a	n/a	"fixation"	n/a	n/a	n/a	n/a	"NULL"	n/a	"NULL"	"NULL"	"NULL"	"<p style=\"color: black; font-size: 80px; padding-left: 11%; padding-right: 21%; padding-top: 14%; padding-bottom: 33%\">+</p>"	"1177"	n/a	n/a	n/a	n/a	n/a	n/a	n/a	n/a	n/a
n/a	"image-keyboard-response"	"88"	"2417473"	"0.0-5.0-2.0-1.17"	"sycyrw"	"600"	"1366"	"chrome"	"110.0.0"	"FALSE"	"Windows 10"	"60.81"	"039"	n/a	n/a	n/a	n/a	n/a	n/a	"Trial"	n/a	n/a	n/a	"349"	"arrowright"	n/a	"NULL"	"NULL"	"NULL"	"stimuli/Ebbinghaus_0.35714_-0.11071.png"	n/a	"Ebbinghaus"	"arrowright"	"1191"	"TRUE"	"Ebbinghaus"	"0.3571400000"	"-0.110710000"	"1"	"36"
n/a	"html-keyboard-response"	"89"	"2418849"	"0.0-5.0-2.0-0.18"	"sycyrw"	"600"	"1366"	"chrome"	"110.0.0"	"FALSE"	"Windows 10"	"60.81"	"039"	n/a	n/a	n/a	n/a	n/a	n/a	"fixation"	n/a	n/a	n/a	n/a	"NULL"	n/a	"NULL"	"NULL"	"NULL"	"<p style=\"color: black; font-size: 80px; padding-left: 26%; padding-right: 27%; padding-top: 48%; padding-bottom: 10%\">+</p>"	"1362"	n/a	n/a	n/a	n/a	n/a	n/a	n/a	n/a	n/a
n/a	"image-keyboard-response"	"90"	"2419518"	"0.0-5.0-2.0-1.18"	"sycyrw"	"600"	"1366"	"chrome"	"110.0.0"	"FALSE"	"Windows 10"	"60.81"	"039"	n/a	n/a	n/a	n/a	n/a	n/a	"Trial"	n/a	n/a	n/a	"668"	"arrowleft"	n/a	"NULL"	"NULL"	"NULL"	"stimuli/Ebbinghaus_-0.61429_0.11071.png"	n/a	"Ebbinghaus"	"arrowleft"	"1376"	"TRUE"	"Ebbinghaus"	"-0.614290000"	"0.1107100000"	"1"	"37"
n/a	"html-keyboard-response"	"91"	"2420531"	"0.0-5.0-2.0-0.19"	"sycyrw"	"600"	"1366"	"chrome"	"110.0.0"	"FALSE"	"Windows 10"	"60.81"	"039"	n/a	n/a	n/a	n/a	n/a	n/a	"fixation"	n/a	n/a	n/a	n/a	"NULL"	n/a	"NULL"	"NULL"	"NULL"	"<p style=\"color: black; font-size: 80px; padding-left: 9%; padding-right: 18%; padding-top: 36%; padding-bottom: 39%\">+</p>"	"1004"	n/a	n/a	n/a	n/a	n/a	n/a	n/a	n/a	n/a
n/a	"image-keyboard-response"	"92"	"2421132"	"0.0-5.0-2.0-1.19"	"sycyrw"	"600"	"1366"	"chrome"	"110.0.0"	"FALSE"	"Windows 10"	"60.81"	"039"	n/a	n/a	n/a	n/a	n/a	n/a	"Trial"	n/a	n/a	n/a	"601"	"arrowright"	n/a	"NULL"	"NULL"	"NULL"	"stimuli/Ebbinghaus_0.61429_-0.15857.png"	n/a	"Ebbinghaus"	"arrowright"	"1013"	"TRUE"	"Ebbinghaus"	"0.6142900000"	"-0.158570000"	"1"	"38"
n/a	"html-keyboard-response"	"93"	"2422572"	"0.0-5.0-2.0-0.20"	"sycyrw"	"600"	"1366"	"chrome"	"110.0.0"	"FALSE"	"Windows 10"	"60.81"	"039"	n/a	n/a	n/a	n/a	n/a	n/a	"fixation"	n/a	n/a	n/a	n/a	"NULL"	n/a	"NULL"	"NULL"	"NULL"	"<p style=\"color: black; font-size: 80px; padding-left: 29%; padding-right: 4%; padding-top: 33%; padding-bottom: 46%\">+</p>"	"1439"	n/a	n/a	n/a	n/a	n/a	n/a	n/a	n/a	n/a
n/a	"image-keyboard-response"	"94"	"2423267"	"0.0-5.0-2.0-1.20"	"sycyrw"	"600"	"1366"	"chrome"	"110.0.0"	"FALSE"	"Windows 10"	"60.81"	"039"	n/a	n/a	n/a	n/a	n/a	n/a	"Trial"	n/a	n/a	n/a	"694"	"arrowright"	n/a	"NULL"	"NULL"	"NULL"	"stimuli/Ebbinghaus_-0.87143_-0.2800.png"	n/a	"Ebbinghaus"	"arrowright"	"1440"	"TRUE"	"Ebbinghaus"	"-0.871430000"	"-0.280000000"	"1"	"39"
n/a	"html-keyboard-response"	"95"	"2424532"	"0.0-5.0-2.0-0.21"	"sycyrw"	"600"	"1366"	"chrome"	"110.0.0"	"FALSE"	"Windows 10"	"60.81"	"039"	n/a	n/a	n/a	n/a	n/a	n/a	"fixation"	n/a	n/a	n/a	n/a	"NULL"	n/a	"NULL"	"NULL"	"NULL"	"<p style=\"color: black; font-size: 80px; padding-left: 29%; padding-right: 49%; padding-top: 2%; padding-bottom: 36%\">+</p>"	"1255"	n/a	n/a	n/a	n/a	n/a	n/a	n/a	n/a	n/a
n/a	"image-keyboard-response"	"96"	"2425395"	"0.0-5.0-2.0-1.21"	"sycyrw"	"600"	"1366"	"chrome"	"110.0.0"	"FALSE"	"Windows 10"	"60.81"	"039"	n/a	n/a	n/a	n/a	n/a	n/a	"Trial"	n/a	n/a	n/a	"862"	"arrowleft"	n/a	"NULL"	"NULL"	"NULL"	"stimuli/Ebbinghaus_-0.1000_0.21500.png"	n/a	"Ebbinghaus"	"arrowleft"	"1265"	"TRUE"	"Ebbinghaus"	"-0.100000000"	"0.2150000000"	"1"	"40"
n/a	"html-keyboard-response"	"97"	"2426686"	"0.0-5.0-2.0-0.22"	"sycyrw"	"600"	"1366"	"chrome"	"110.0.0"	"FALSE"	"Windows 10"	"60.81"	"039"	n/a	n/a	n/a	n/a	n/a	n/a	"fixation"	n/a	n/a	n/a	n/a	"NULL"	n/a	"NULL"	"NULL"	"NULL"	"<p style=\"color: black; font-size: 80px; padding-left: 29%; padding-right: 19%; padding-top: 26%; padding-bottom: 31%\">+</p>"	"1285"	n/a	n/a	n/a	n/a	n/a	n/a	n/a	n/a	n/a
n/a	"image-keyboard-response"	"98"	"2427613"	"0.0-5.0-2.0-1.22"	"sycyrw"	"600"	"1366"	"chrome"	"110.0.0"	"FALSE"	"Windows 10"	"60.81"	"039"	n/a	n/a	n/a	n/a	n/a	n/a	"Trial"	n/a	n/a	n/a	"927"	"arrowright"	n/a	"NULL"	"NULL"	"NULL"	"stimuli/Ebbinghaus_-0.35714_-0.15857.png"	n/a	"Ebbinghaus"	"arrowright"	"1291"	"TRUE"	"Ebbinghaus"	"-0.357140000"	"-0.158570000"	"1"	"41"
n/a	"html-keyboard-response"	"99"	"2428770"	"0.0-5.0-2.0-0.23"	"sycyrw"	"600"	"1366"	"chrome"	"110.0.0"	"FALSE"	"Windows 10"	"60.81"	"039"	n/a	n/a	n/a	n/a	n/a	n/a	"fixation"	n/a	n/a	n/a	n/a	"NULL"	n/a	"NULL"	"NULL"	"NULL"	"<p style=\"color: black; font-size: 80px; padding-left: 31%; padding-right: 45%; padding-top: 14%; padding-bottom: 20%\">+</p>"	"1150"	n/a	n/a	n/a	n/a	n/a	n/a	n/a	n/a	n/a
n/a	"image-keyboard-response"	"100"	"2429327"	"0.0-5.0-2.0-1.23"	"sycyrw"	"600"	"1366"	"chrome"	"110.0.0"	"FALSE"	"Windows 10"	"60.81"	"039"	n/a	n/a	n/a	n/a	n/a	n/a	"Trial"	n/a	n/a	n/a	"557"	"arrowright"	n/a	"NULL"	"NULL"	"NULL"	"stimuli/Ebbinghaus_0.35714_-0.2150.png"	n/a	"Ebbinghaus"	"arrowright"	"1157"	"TRUE"	"Ebbinghaus"	"0.3571400000"	"-0.215000000"	"1"	"42"
n/a	"html-keyboard-response"	"101"	"2430701"	"0.0-5.0-2.0-0.24"	"sycyrw"	"600"	"1366"	"chrome"	"110.0.0"	"FALSE"	"Windows 10"	"60.81"	"039"	n/a	n/a	n/a	n/a	n/a	n/a	"fixation"	n/a	n/a	n/a	n/a	"NULL"	n/a	"NULL"	"NULL"	"NULL"	"<p style=\"color: black; font-size: 80px; padding-left: 45%; padding-right: 15%; padding-top: 18%; padding-bottom: 25%\">+</p>"	"1368"	n/a	n/a	n/a	n/a	n/a	n/a	n/a	n/a	n/a
n/a	"image-keyboard-response"	"102"	"2431575"	"0.0-5.0-2.0-1.24"	"sycyrw"	"600"	"1366"	"chrome"	"110.0.0"	"FALSE"	"Windows 10"	"60.81"	"039"	n/a	n/a	n/a	n/a	n/a	n/a	"Trial"	n/a	n/a	n/a	"873"	"arrowright"	n/a	"NULL"	"NULL"	"NULL"	"stimuli/Ebbinghaus_0.87143_0.15857.png"	n/a	"Ebbinghaus"	"arrowleft"	"1374"	"FALSE"	"Ebbinghaus"	"0.8714300000"	"0.1585700000"	"1"	"43"
n/a	"html-keyboard-response"	"103"	"2432655"	"0.0-5.0-2.0-0.25"	"sycyrw"	"600"	"1366"	"chrome"	"110.0.0"	"FALSE"	"Windows 10"	"60.81"	"039"	n/a	n/a	n/a	n/a	n/a	n/a	"fixation"	n/a	n/a	n/a	n/a	"NULL"	n/a	"NULL"	"NULL"	"NULL"	"<p style=\"color: black; font-size: 80px; padding-left: 15%; padding-right: 41%; padding-top: 6%; padding-bottom: 11%\">+</p>"	"1074"	n/a	n/a	n/a	n/a	n/a	n/a	n/a	n/a	n/a
n/a	"image-keyboard-response"	"104"	"2433297"	"0.0-5.0-2.0-1.25"	"sycyrw"	"600"	"1366"	"chrome"	"110.0.0"	"FALSE"	"Windows 10"	"60.81"	"039"	n/a	n/a	n/a	n/a	n/a	n/a	"Trial"	n/a	n/a	n/a	"641"	"arrowright"	n/a	"NULL"	"NULL"	"NULL"	"stimuli/Ebbinghaus_0.35714_-0.15857.png"	n/a	"Ebbinghaus"	"arrowright"	"1080"	"TRUE"	"Ebbinghaus"	"0.3571400000"	"-0.158570000"	"1"	"44"
n/a	"html-keyboard-response"	"105"	"2434716"	"0.0-5.0-2.0-0.26"	"sycyrw"	"600"	"1366"	"chrome"	"110.0.0"	"FALSE"	"Windows 10"	"60.81"	"039"	n/a	n/a	n/a	n/a	n/a	n/a	"fixation"	n/a	n/a	n/a	n/a	"NULL"	n/a	"NULL"	"NULL"	"NULL"	"<p style=\"color: black; font-size: 80px; padding-left: 17%; padding-right: 28%; padding-top: 31%; padding-bottom: 11%\">+</p>"	"1416"	n/a	n/a	n/a	n/a	n/a	n/a	n/a	n/a	n/a
n/a	"image-keyboard-response"	"106"	"2435218"	"0.0-5.0-2.0-1.26"	"sycyrw"	"600"	"1366"	"chrome"	"110.0.0"	"FALSE"	"Windows 10"	"60.81"	"039"	n/a	n/a	n/a	n/a	n/a	n/a	"Trial"	n/a	n/a	n/a	"500"	"arrowleft"	n/a	"NULL"	"NULL"	"NULL"	"stimuli/Ebbinghaus_-0.87143_0.11071.png"	n/a	"Ebbinghaus"	"arrowleft"	"1419"	"TRUE"	"Ebbinghaus"	"-0.871430000"	"0.1107100000"	"1"	"45"
n/a	"html-keyboard-response"	"107"	"2436270"	"0.0-5.0-2.0-0.27"	"sycyrw"	"600"	"1366"	"chrome"	"110.0.0"	"FALSE"	"Windows 10"	"60.81"	"039"	n/a	n/a	n/a	n/a	n/a	n/a	"fixation"	n/a	n/a	n/a	n/a	"NULL"	n/a	"NULL"	"NULL"	"NULL"	"<p style=\"color: black; font-size: 80px; padding-left: 7%; padding-right: 46%; padding-top: 35%; padding-bottom: 35%\">+</p>"	"1040"	n/a	n/a	n/a	n/a	n/a	n/a	n/a	n/a	n/a
n/a	"image-keyboard-response"	"108"	"2436653"	"0.0-5.0-2.0-1.27"	"sycyrw"	"600"	"1366"	"chrome"	"110.0.0"	"FALSE"	"Windows 10"	"60.81"	"039"	n/a	n/a	n/a	n/a	n/a	n/a	"Trial"	n/a	n/a	n/a	"382"	"arrowright"	n/a	"NULL"	"NULL"	"NULL"	"stimuli/Ebbinghaus_-0.1000_-0.2150.png"	n/a	"Ebbinghaus"	"arrowright"	"1052"	"TRUE"	"Ebbinghaus"	"-0.100000000"	"-0.215000000"	"1"	"46"
n/a	"html-keyboard-response"	"109"	"2437880"	"0.0-5.0-2.0-0.28"	"sycyrw"	"600"	"1366"	"chrome"	"110.0.0"	"FALSE"	"Windows 10"	"60.81"	"039"	n/a	n/a	n/a	n/a	n/a	n/a	"fixation"	n/a	n/a	n/a	n/a	"NULL"	n/a	"NULL"	"NULL"	"NULL"	"<p style=\"color: black; font-size: 80px; padding-left: 43%; padding-right: 26%; padding-top: 33%; padding-bottom: 26%\">+</p>"	"1214"	n/a	n/a	n/a	n/a	n/a	n/a	n/a	n/a	n/a
n/a	"image-keyboard-response"	"110"	"2438598"	"0.0-5.0-2.0-1.28"	"sycyrw"	"600"	"1366"	"chrome"	"110.0.0"	"FALSE"	"Windows 10"	"60.81"	"039"	n/a	n/a	n/a	n/a	n/a	n/a	"Trial"	n/a	n/a	n/a	"716"	"arrowleft"	n/a	"NULL"	"NULL"	"NULL"	"stimuli/Ebbinghaus_0.61429_-0.11071.png"	n/a	"Ebbinghaus"	"arrowright"	"1227"	"FALSE"	"Ebbinghaus"	"0.6142900000"	"-0.110710000"	"1"	"47"
n/a	"html-keyboard-response"	"111"	"2439765"	"0.0-5.0-2.0-0.29"	"sycyrw"	"600"	"1366"	"chrome"	"110.0.0"	"FALSE"	"Windows 10"	"60.81"	"039"	n/a	n/a	n/a	n/a	n/a	n/a	"fixation"	n/a	n/a	n/a	n/a	"NULL"	n/a	"NULL"	"NULL"	"NULL"	"<p style=\"color: black; font-size: 80px; padding-left: 39%; padding-right: 50%; padding-top: 3%; padding-bottom: 13%\">+</p>"	"1161"	n/a	n/a	n/a	n/a	n/a	n/a	n/a	n/a	n/a
n/a	"image-keyboard-response"	"112"	"2440205"	"0.0-5.0-2.0-1.29"	"sycyrw"	"600"	"1366"	"chrome"	"110.0.0"	"FALSE"	"Windows 10"	"60.81"	"039"	n/a	n/a	n/a	n/a	n/a	n/a	"Trial"	n/a	n/a	n/a	"439"	"arrowright"	n/a	"NULL"	"NULL"	"NULL"	"stimuli/Ebbinghaus_0.10000_-0.2150.png"	n/a	"Ebbinghaus"	"arrowright"	"1167"	"TRUE"	"Ebbinghaus"	"0.1000000000"	"-0.215000000"	"1"	"48"
n/a	"html-keyboard-response"	"113"	"2441639"	"0.0-5.0-2.0-0.30"	"sycyrw"	"600"	"1366"	"chrome"	"110.0.0"	"FALSE"	"Windows 10"	"60.81"	"039"	n/a	n/a	n/a	n/a	n/a	n/a	"fixation"	n/a	n/a	n/a	n/a	"NULL"	n/a	"NULL"	"NULL"	"NULL"	"<p style=\"color: black; font-size: 80px; padding-left: 15%; padding-right: 11%; padding-top: 49%; padding-bottom: 13%\">+</p>"	"1424"	n/a	n/a	n/a	n/a	n/a	n/a	n/a	n/a	n/a
n/a	"image-keyboard-response"	"114"	"2442002"	"0.0-5.0-2.0-1.30"	"sycyrw"	"600"	"1366"	"chrome"	"110.0.0"	"FALSE"	"Windows 10"	"60.81"	"039"	n/a	n/a	n/a	n/a	n/a	n/a	"Trial"	n/a	n/a	n/a	"363"	"arrowleft"	n/a	"NULL"	"NULL"	"NULL"	"stimuli/Ebbinghaus_0.61429_0.11071.png"	n/a	"Ebbinghaus"	"arrowleft"	"1434"	"TRUE"	"Ebbinghaus"	"0.6142900000"	"0.1107100000"	"1"	"49"
n/a	"html-keyboard-response"	"115"	"2443080"	"0.0-5.0-2.0-0.31"	"sycyrw"	"600"	"1366"	"chrome"	"110.0.0"	"FALSE"	"Windows 10"	"60.81"	"039"	n/a	n/a	n/a	n/a	n/a	n/a	"fixation"	n/a	n/a	n/a	n/a	"NULL"	n/a	"NULL"	"NULL"	"NULL"	"<p style=\"color: black; font-size: 80px; padding-left: 27%; padding-right: 50%; padding-top: 39%; padding-bottom: 47%\">+</p>"	"1065"	n/a	n/a	n/a	n/a	n/a	n/a	n/a	n/a	n/a
n/a	"image-keyboard-response"	"116"	"2443663"	"0.0-5.0-2.0-1.31"	"sycyrw"	"600"	"1366"	"chrome"	"110.0.0"	"FALSE"	"Windows 10"	"60.81"	"039"	n/a	n/a	n/a	n/a	n/a	n/a	"Trial"	n/a	n/a	n/a	"582"	"arrowright"	n/a	"NULL"	"NULL"	"NULL"	"stimuli/Ebbinghaus_-0.87143_-0.2150.png"	n/a	"Ebbinghaus"	"arrowright"	"1078"	"TRUE"	"Ebbinghaus"	"-0.871430000"	"-0.215000000"	"1"	"50"
n/a	"html-keyboard-response"	"117"	"2444999"	"0.0-5.0-2.0-0.32"	"sycyrw"	"600"	"1366"	"chrome"	"110.0.0"	"FALSE"	"Windows 10"	"60.81"	"039"	n/a	n/a	n/a	n/a	n/a	n/a	"fixation"	n/a	n/a	n/a	n/a	"NULL"	n/a	"NULL"	"NULL"	"NULL"	"<p style=\"color: black; font-size: 80px; padding-left: 10%; padding-right: 29%; padding-top: 21%; padding-bottom: 43%\">+</p>"	"1321"	n/a	n/a	n/a	n/a	n/a	n/a	n/a	n/a	n/a
n/a	"image-keyboard-response"	"118"	"2446136"	"0.0-5.0-2.0-1.32"	"sycyrw"	"600"	"1366"	"chrome"	"110.0.0"	"FALSE"	"Windows 10"	"60.81"	"039"	n/a	n/a	n/a	n/a	n/a	n/a	"Trial"	n/a	n/a	n/a	"1136"	"arrowright"	n/a	"NULL"	"NULL"	"NULL"	"stimuli/Ebbinghaus_-0.35714_-0.11071.png"	n/a	"Ebbinghaus"	"arrowright"	"1336"	"TRUE"	"Ebbinghaus"	"-0.357140000"	"-0.110710000"	"1"	"51"
n/a	"html-keyboard-response"	"119"	"2447187"	"0.0-5.0-2.0-0.33"	"sycyrw"	"600"	"1366"	"chrome"	"110.0.0"	"FALSE"	"Windows 10"	"60.81"	"039"	n/a	n/a	n/a	n/a	n/a	n/a	"fixation"	n/a	n/a	n/a	n/a	"NULL"	n/a	"NULL"	"NULL"	"NULL"	"<p style=\"color: black; font-size: 80px; padding-left: 14%; padding-right: 21%; padding-top: 39%; padding-bottom: 43%\">+</p>"	"1043"	n/a	n/a	n/a	n/a	n/a	n/a	n/a	n/a	n/a
n/a	"image-keyboard-response"	"120"	"2448124"	"0.0-5.0-2.0-1.33"	"sycyrw"	"600"	"1366"	"chrome"	"110.0.0"	"FALSE"	"Windows 10"	"60.81"	"039"	n/a	n/a	n/a	n/a	n/a	n/a	"Trial"	n/a	n/a	n/a	"936"	"arrowright"	n/a	"NULL"	"NULL"	"NULL"	"stimuli/Ebbinghaus_-0.61429_-0.11071.png"	n/a	"Ebbinghaus"	"arrowright"	"1051"	"TRUE"	"Ebbinghaus"	"-0.614290000"	"-0.110710000"	"1"	"52"
n/a	"html-keyboard-response"	"121"	"2449625"	"0.0-5.0-2.0-0.34"	"sycyrw"	"600"	"1366"	"chrome"	"110.0.0"	"FALSE"	"Windows 10"	"60.81"	"039"	n/a	n/a	n/a	n/a	n/a	n/a	"fixation"	n/a	n/a	n/a	n/a	"NULL"	n/a	"NULL"	"NULL"	"NULL"	"<p style=\"color: black; font-size: 80px; padding-left: 28%; padding-right: 50%; padding-top: 43%; padding-bottom: 29%\">+</p>"	"1498"	n/a	n/a	n/a	n/a	n/a	n/a	n/a	n/a	n/a
n/a	"image-keyboard-response"	"122"	"2450340"	"0.0-5.0-2.0-1.34"	"sycyrw"	"600"	"1366"	"chrome"	"110.0.0"	"FALSE"	"Windows 10"	"60.81"	"039"	n/a	n/a	n/a	n/a	n/a	n/a	"Trial"	n/a	n/a	n/a	"714"	"arrowright"	n/a	"NULL"	"NULL"	"NULL"	"stimuli/Ebbinghaus_-0.35714_-0.2800.png"	n/a	"Ebbinghaus"	"arrowright"	"1501"	"TRUE"	"Ebbinghaus"	"-0.357140000"	"-0.280000000"	"1"	"53"
n/a	"html-keyboard-response"	"123"	"2451809"	"0.0-5.0-2.0-0.35"	"sycyrw"	"600"	"1366"	"chrome"	"110.0.0"	"FALSE"	"Windows 10"	"60.81"	"039"	n/a	n/a	n/a	n/a	n/a	n/a	"fixation"	n/a	n/a	n/a	n/a	"NULL"	n/a	"NULL"	"NULL"	"NULL"	"<p style=\"color: black; font-size: 80px; padding-left: 19%; padding-right: 41%; padding-top: 15%; padding-bottom: 32%\">+</p>"	"1453"	n/a	n/a	n/a	n/a	n/a	n/a	n/a	n/a	n/a
n/a	"image-keyboard-response"	"124"	"2452279"	"0.0-5.0-2.0-1.35"	"sycyrw"	"600"	"1366"	"chrome"	"110.0.0"	"FALSE"	"Windows 10"	"60.81"	"039"	n/a	n/a	n/a	n/a	n/a	n/a	"Trial"	n/a	n/a	n/a	"470"	"arrowright"	n/a	"NULL"	"NULL"	"NULL"	"stimuli/Ebbinghaus_0.87143_-0.2150.png"	n/a	"Ebbinghaus"	"arrowright"	"1469"	"TRUE"	"Ebbinghaus"	"0.8714300000"	"-0.215000000"	"1"	"54"
n/a	"html-keyboard-response"	"125"	"2453296"	"0.0-5.0-2.0-0.36"	"sycyrw"	"600"	"1366"	"chrome"	"110.0.0"	"FALSE"	"Windows 10"	"60.81"	"039"	n/a	n/a	n/a	n/a	n/a	n/a	"fixation"	n/a	n/a	n/a	n/a	"NULL"	n/a	"NULL"	"NULL"	"NULL"	"<p style=\"color: black; font-size: 80px; padding-left: 31%; padding-right: 37%; padding-top: 46%; padding-bottom: 18%\">+</p>"	"1004"	n/a	n/a	n/a	n/a	n/a	n/a	n/a	n/a	n/a
n/a	"image-keyboard-response"	"126"	"2454227"	"0.0-5.0-2.0-1.36"	"sycyrw"	"600"	"1366"	"chrome"	"110.0.0"	"FALSE"	"Windows 10"	"60.81"	"039"	n/a	n/a	n/a	n/a	n/a	n/a	"Trial"	n/a	n/a	n/a	"930"	"arrowright"	n/a	"NULL"	"NULL"	"NULL"	"stimuli/Ebbinghaus_0.10000_-0.2800.png"	n/a	"Ebbinghaus"	"arrowright"	"1017"	"TRUE"	"Ebbinghaus"	"0.1000000000"	"-0.280000000"	"1"	"55"
n/a	"html-keyboard-response"	"127"	"2455483"	"0.0-5.0-2.0-0.37"	"sycyrw"	"600"	"1366"	"chrome"	"110.0.0"	"FALSE"	"Windows 10"	"60.81"	"039"	n/a	n/a	n/a	n/a	n/a	n/a	"fixation"	n/a	n/a	n/a	n/a	"NULL"	n/a	"NULL"	"NULL"	"NULL"	"<p style=\"color: black; font-size: 80px; padding-left: 3%; padding-right: 13%; padding-top: 35%; padding-bottom: 10%\">+</p>"	"1245"	n/a	n/a	n/a	n/a	n/a	n/a	n/a	n/a	n/a
n/a	"image-keyboard-response"	"128"	"2456536"	"0.0-5.0-2.0-1.37"	"sycyrw"	"600"	"1366"	"chrome"	"110.0.0"	"FALSE"	"Windows 10"	"60.81"	"039"	n/a	n/a	n/a	n/a	n/a	n/a	"Trial"	n/a	n/a	n/a	"1053"	"arrowleft"	n/a	"NULL"	"NULL"	"NULL"	"stimuli/Ebbinghaus_0.35714_-0.2800.png"	n/a	"Ebbinghaus"	"arrowright"	"1256"	"FALSE"	"Ebbinghaus"	"0.3571400000"	"-0.280000000"	"1"	"56"
n/a	"html-keyboard-response"	"129"	"2457543"	"0.0-5.0-2.0-0.38"	"sycyrw"	"600"	"1366"	"chrome"	"110.0.0"	"FALSE"	"Windows 10"	"60.81"	"039"	n/a	n/a	n/a	n/a	n/a	n/a	"fixation"	n/a	n/a	n/a	n/a	"NULL"	n/a	"NULL"	"NULL"	"NULL"	"<p style=\"color: black; font-size: 80px; padding-left: 43%; padding-right: 18%; padding-top: 47%; padding-bottom: 13%\">+</p>"	"1003"	n/a	n/a	n/a	n/a	n/a	n/a	n/a	n/a	n/a
n/a	"image-keyboard-response"	"130"	"2458303"	"0.0-5.0-2.0-1.38"	"sycyrw"	"600"	"1366"	"chrome"	"110.0.0"	"FALSE"	"Windows 10"	"60.81"	"039"	n/a	n/a	n/a	n/a	n/a	n/a	"Trial"	n/a	n/a	n/a	"759"	"arrowright"	n/a	"NULL"	"NULL"	"NULL"	"stimuli/Ebbinghaus_-0.87143_-0.11071.png"	n/a	"Ebbinghaus"	"arrowright"	"1007"	"TRUE"	"Ebbinghaus"	"-0.871430000"	"-0.110710000"	"1"	"57"
n/a	"html-keyboard-response"	"131"	"2459343"	"0.0-5.0-2.0-0.39"	"sycyrw"	"600"	"1366"	"chrome"	"110.0.0"	"FALSE"	"Windows 10"	"60.81"	"039"	n/a	n/a	n/a	n/a	n/a	n/a	"fixation"	n/a	n/a	n/a	n/a	"NULL"	n/a	"NULL"	"NULL"	"NULL"	"<p style=\"color: black; font-size: 80px; padding-left: 13%; padding-right: 26%; padding-top: 27%; padding-bottom: 11%\">+</p>"	"1034"	n/a	n/a	n/a	n/a	n/a	n/a	n/a	n/a	n/a
n/a	"image-keyboard-response"	"132"	"2460565"	"0.0-5.0-2.0-1.39"	"sycyrw"	"600"	"1366"	"chrome"	"110.0.0"	"FALSE"	"Windows 10"	"60.81"	"039"	n/a	n/a	n/a	n/a	n/a	n/a	"Trial"	n/a	n/a	n/a	"1220"	"arrowright"	n/a	"NULL"	"NULL"	"NULL"	"stimuli/Ebbinghaus_-0.61429_-0.15857.png"	n/a	"Ebbinghaus"	"arrowright"	"1040"	"TRUE"	"Ebbinghaus"	"-0.614290000"	"-0.158570000"	"1"	"58"
n/a	"html-keyboard-response"	"133"	"2461860"	"0.0-5.0-2.0-0.40"	"sycyrw"	"600"	"1366"	"chrome"	"110.0.0"	"FALSE"	"Windows 10"	"60.81"	"039"	n/a	n/a	n/a	n/a	n/a	n/a	"fixation"	n/a	n/a	n/a	n/a	"NULL"	n/a	"NULL"	"NULL"	"NULL"	"<p style=\"color: black; font-size: 80px; padding-left: 41%; padding-right: 45%; padding-top: 27%; padding-bottom: 1%\">+</p>"	"1281"	n/a	n/a	n/a	n/a	n/a	n/a	n/a	n/a	n/a
n/a	"image-keyboard-response"	"134"	"2462629"	"0.0-5.0-2.0-1.40"	"sycyrw"	"600"	"1366"	"chrome"	"110.0.0"	"FALSE"	"Windows 10"	"60.81"	"039"	n/a	n/a	n/a	n/a	n/a	n/a	"Trial"	n/a	n/a	n/a	"769"	"arrowleft"	n/a	"NULL"	"NULL"	"NULL"	"stimuli/Ebbinghaus_-0.87143_0.28000.png"	n/a	"Ebbinghaus"	"arrowleft"	"1295"	"TRUE"	"Ebbinghaus"	"-0.871430000"	"0.2800000000"	"1"	"59"
n/a	"html-keyboard-response"	"135"	"2464015"	"0.0-5.0-2.0-0.41"	"sycyrw"	"600"	"1366"	"chrome"	"110.0.0"	"FALSE"	"Windows 10"	"60.81"	"039"	n/a	n/a	n/a	n/a	n/a	n/a	"fixation"	n/a	n/a	n/a	n/a	"NULL"	n/a	"NULL"	"NULL"	"NULL"	"<p style=\"color: black; font-size: 80px; padding-left: 3%; padding-right: 36%; padding-top: 43%; padding-bottom: 24%\">+</p>"	"1382"	n/a	n/a	n/a	n/a	n/a	n/a	n/a	n/a	n/a
n/a	"image-keyboard-response"	"136"	"2464704"	"0.0-5.0-2.0-1.41"	"sycyrw"	"600"	"1366"	"chrome"	"110.0.0"	"FALSE"	"Windows 10"	"60.81"	"039"	n/a	n/a	n/a	n/a	n/a	n/a	"Trial"	n/a	n/a	n/a	"688"	"arrowleft"	n/a	"NULL"	"NULL"	"NULL"	"stimuli/Ebbinghaus_-0.87143_0.21500.png"	n/a	"Ebbinghaus"	"arrowleft"	"1386"	"TRUE"	"Ebbinghaus"	"-0.871430000"	"0.2150000000"	"1"	"60"
n/a	"html-keyboard-response"	"137"	"2466119"	"0.0-5.0-2.0-0.42"	"sycyrw"	"600"	"1366"	"chrome"	"110.0.0"	"FALSE"	"Windows 10"	"60.81"	"039"	n/a	n/a	n/a	n/a	n/a	n/a	"fixation"	n/a	n/a	n/a	n/a	"NULL"	n/a	"NULL"	"NULL"	"NULL"	"<p style=\"color: black; font-size: 80px; padding-left: 42%; padding-right: 27%; padding-top: 25%; padding-bottom: 24%\">+</p>"	"1398"	n/a	n/a	n/a	n/a	n/a	n/a	n/a	n/a	n/a
n/a	"image-keyboard-response"	"138"	"2467007"	"0.0-5.0-2.0-1.42"	"sycyrw"	"600"	"1366"	"chrome"	"110.0.0"	"FALSE"	"Windows 10"	"60.81"	"039"	n/a	n/a	n/a	n/a	n/a	n/a	"Trial"	n/a	n/a	n/a	"887"	"arrowleft"	n/a	"NULL"	"NULL"	"NULL"	"stimuli/Ebbinghaus_-0.35714_0.21500.png"	n/a	"Ebbinghaus"	"arrowleft"	"1415"	"TRUE"	"Ebbinghaus"	"-0.357140000"	"0.2150000000"	"1"	"61"
n/a	"html-keyboard-response"	"139"	"2468419"	"0.0-5.0-2.0-0.43"	"sycyrw"	"600"	"1366"	"chrome"	"110.0.0"	"FALSE"	"Windows 10"	"60.81"	"039"	n/a	n/a	n/a	n/a	n/a	n/a	"fixation"	n/a	n/a	n/a	n/a	"NULL"	n/a	"NULL"	"NULL"	"NULL"	"<p style=\"color: black; font-size: 80px; padding-left: 3%; padding-right: 32%; padding-top: 13%; padding-bottom: 34%\">+</p>"	"1408"	n/a	n/a	n/a	n/a	n/a	n/a	n/a	n/a	n/a
n/a	"image-keyboard-response"	"140"	"2469170"	"0.0-5.0-2.0-1.43"	"sycyrw"	"600"	"1366"	"chrome"	"110.0.0"	"FALSE"	"Windows 10"	"60.81"	"039"	n/a	n/a	n/a	n/a	n/a	n/a	"Trial"	n/a	n/a	n/a	"750"	"arrowright"	n/a	"NULL"	"NULL"	"NULL"	"stimuli/Ebbinghaus_0.61429_0.21500.png"	n/a	"Ebbinghaus"	"arrowleft"	"1412"	"FALSE"	"Ebbinghaus"	"0.6142900000"	"0.2150000000"	"1"	"62"
n/a	"html-keyboard-response"	"141"	"2470654"	"0.0-5.0-2.0-0.44"	"sycyrw"	"600"	"1366"	"chrome"	"110.0.0"	"FALSE"	"Windows 10"	"60.81"	"039"	n/a	n/a	n/a	n/a	n/a	n/a	"fixation"	n/a	n/a	n/a	n/a	"NULL"	n/a	"NULL"	"NULL"	"NULL"	"<p style=\"color: black; font-size: 80px; padding-left: 27%; padding-right: 27%; padding-top: 31%; padding-bottom: 29%\">+</p>"	"1470"	n/a	n/a	n/a	n/a	n/a	n/a	n/a	n/a	n/a
n/a	"image-keyboard-response"	"142"	"2471301"	"0.0-5.0-2.0-1.44"	"sycyrw"	"600"	"1366"	"chrome"	"110.0.0"	"FALSE"	"Windows 10"	"60.81"	"039"	n/a	n/a	n/a	n/a	n/a	n/a	"Trial"	n/a	n/a	n/a	"646"	"arrowleft"	n/a	"NULL"	"NULL"	"NULL"	"stimuli/Ebbinghaus_0.10000_0.21500.png"	n/a	"Ebbinghaus"	"arrowleft"	"1484"	"TRUE"	"Ebbinghaus"	"0.1000000000"	"0.2150000000"	"1"	"63"
n/a	"html-keyboard-response"	"143"	"2472666"	"0.0-5.0-2.0-0.45"	"sycyrw"	"600"	"1366"	"chrome"	"110.0.0"	"FALSE"	"Windows 10"	"60.81"	"039"	n/a	n/a	n/a	n/a	n/a	n/a	"fixation"	n/a	n/a	n/a	n/a	"NULL"	n/a	"NULL"	"NULL"	"NULL"	"<p style=\"color: black; font-size: 80px; padding-left: 37%; padding-right: 0%; padding-top: 21%; padding-bottom: 32%\">+</p>"	"1361"	n/a	n/a	n/a	n/a	n/a	n/a	n/a	n/a	n/a
n/a	"image-keyboard-response"	"144"	"2473190"	"0.0-5.0-2.0-1.45"	"sycyrw"	"600"	"1366"	"chrome"	"110.0.0"	"FALSE"	"Windows 10"	"60.81"	"039"	n/a	n/a	n/a	n/a	n/a	n/a	"Trial"	n/a	n/a	n/a	"523"	"arrowright"	n/a	"NULL"	"NULL"	"NULL"	"stimuli/Ebbinghaus_-0.87143_-0.15857.png"	n/a	"Ebbinghaus"	"arrowright"	"1365"	"TRUE"	"Ebbinghaus"	"-0.871430000"	"-0.158570000"	"1"	"64"
n/a	"html-keyboard-response"	"145"	"2474643"	"0.0-5.0-2.0-0.46"	"sycyrw"	"600"	"1366"	"chrome"	"110.0.0"	"FALSE"	"Windows 10"	"60.81"	"039"	n/a	n/a	n/a	n/a	n/a	n/a	"fixation"	n/a	n/a	n/a	n/a	"NULL"	n/a	"NULL"	"NULL"	"NULL"	"<p style=\"color: black; font-size: 80px; padding-left: 35%; padding-right: 7%; padding-top: 25%; padding-bottom: 41%\">+</p>"	"1451"	n/a	n/a	n/a	n/a	n/a	n/a	n/a	n/a	n/a
n/a	"image-keyboard-response"	"146"	"2475726"	"0.0-5.0-2.0-1.46"	"sycyrw"	"600"	"1366"	"chrome"	"110.0.0"	"FALSE"	"Windows 10"	"60.81"	"039"	n/a	n/a	n/a	n/a	n/a	n/a	"Trial"	n/a	n/a	n/a	"1082"	"arrowright"	n/a	"NULL"	"NULL"	"NULL"	"stimuli/Ebbinghaus_0.61429_-0.2150.png"	n/a	"Ebbinghaus"	"arrowright"	"1453"	"TRUE"	"Ebbinghaus"	"0.6142900000"	"-0.215000000"	"1"	"65"
n/a	"html-keyboard-response"	"147"	"2476969"	"0.0-5.0-2.0-0.47"	"sycyrw"	"600"	"1366"	"chrome"	"110.0.0"	"FALSE"	"Windows 10"	"60.81"	"039"	n/a	n/a	n/a	n/a	n/a	n/a	"fixation"	n/a	n/a	n/a	n/a	"NULL"	n/a	"NULL"	"NULL"	"NULL"	"<p style=\"color: black; font-size: 80px; padding-left: 35%; padding-right: 29%; padding-top: 21%; padding-bottom: 11%\">+</p>"	"1232"	n/a	n/a	n/a	n/a	n/a	n/a	n/a	n/a	n/a
n/a	"image-keyboard-response"	"148"	"2477926"	"0.0-5.0-2.0-1.47"	"sycyrw"	"600"	"1366"	"chrome"	"110.0.0"	"FALSE"	"Windows 10"	"60.81"	"039"	n/a	n/a	n/a	n/a	n/a	n/a	"Trial"	n/a	n/a	n/a	"956"	"arrowleft"	n/a	"NULL"	"NULL"	"NULL"	"stimuli/Ebbinghaus_-0.61429_0.21500.png"	n/a	"Ebbinghaus"	"arrowleft"	"1243"	"TRUE"	"Ebbinghaus"	"-0.614290000"	"0.2150000000"	"1"	"66"
n/a	"html-keyboard-response"	"149"	"2479198"	"0.0-5.0-2.0-0.48"	"sycyrw"	"600"	"1366"	"chrome"	"110.0.0"	"FALSE"	"Windows 10"	"60.81"	"039"	n/a	n/a	n/a	n/a	n/a	n/a	"fixation"	n/a	n/a	n/a	n/a	"NULL"	n/a	"NULL"	"NULL"	"NULL"	"<p style=\"color: black; font-size: 80px; padding-left: 17%; padding-right: 45%; padding-top: 5%; padding-bottom: 31%\">+</p>"	"1260"	n/a	n/a	n/a	n/a	n/a	n/a	n/a	n/a	n/a
n/a	"image-keyboard-response"	"150"	"2480188"	"0.0-5.0-2.0-1.48"	"sycyrw"	"600"	"1366"	"chrome"	"110.0.0"	"FALSE"	"Windows 10"	"60.81"	"039"	n/a	n/a	n/a	n/a	n/a	n/a	"Trial"	n/a	n/a	n/a	"989"	"arrowleft"	n/a	"NULL"	"NULL"	"NULL"	"stimuli/Ebbinghaus_0.10000_0.11071.png"	n/a	"Ebbinghaus"	"arrowleft"	"1272"	"TRUE"	"Ebbinghaus"	"0.1000000000"	"0.1107100000"	"1"	"67"
n/a	"html-keyboard-response"	"151"	"2481537"	"0.0-5.0-2.0-0.49"	"sycyrw"	"600"	"1366"	"chrome"	"110.0.0"	"FALSE"	"Windows 10"	"60.81"	"039"	n/a	n/a	n/a	n/a	n/a	n/a	"fixation"	n/a	n/a	n/a	n/a	"NULL"	n/a	"NULL"	"NULL"	"NULL"	"<p style=\"color: black; font-size: 80px; padding-left: 33%; padding-right: 27%; padding-top: 45%; padding-bottom: 20%\">+</p>"	"1345"	n/a	n/a	n/a	n/a	n/a	n/a	n/a	n/a	n/a
n/a	"image-keyboard-response"	"152"	"2482156"	"0.0-5.0-2.0-1.49"	"sycyrw"	"600"	"1366"	"chrome"	"110.0.0"	"FALSE"	"Windows 10"	"60.81"	"039"	n/a	n/a	n/a	n/a	n/a	n/a	"Trial"	n/a	n/a	n/a	"618"	"arrowright"	n/a	"NULL"	"NULL"	"NULL"	"stimuli/Ebbinghaus_0.87143_0.11071.png"	n/a	"Ebbinghaus"	"arrowleft"	"1349"	"FALSE"	"Ebbinghaus"	"0.8714300000"	"0.1107100000"	"1"	"68"
n/a	"html-keyboard-response"	"153"	"2483374"	"0.0-5.0-2.0-0.50"	"sycyrw"	"600"	"1366"	"chrome"	"110.0.0"	"FALSE"	"Windows 10"	"60.81"	"039"	n/a	n/a	n/a	n/a	n/a	n/a	"fixation"	n/a	n/a	n/a	n/a	"NULL"	n/a	"NULL"	"NULL"	"NULL"	"<p style=\"color: black; font-size: 80px; padding-left: 49%; padding-right: 3%; padding-top: 5%; padding-bottom: 41%\">+</p>"	"1206"	n/a	n/a	n/a	n/a	n/a	n/a	n/a	n/a	n/a
n/a	"image-keyboard-response"	"154"	"2484053"	"0.0-5.0-2.0-1.50"	"sycyrw"	"600"	"1366"	"chrome"	"110.0.0"	"FALSE"	"Windows 10"	"60.81"	"039"	n/a	n/a	n/a	n/a	n/a	n/a	"Trial"	n/a	n/a	n/a	"679"	"arrowright"	n/a	"NULL"	"NULL"	"NULL"	"stimuli/Ebbinghaus_0.35714_0.21500.png"	n/a	"Ebbinghaus"	"arrowleft"	"1218"	"FALSE"	"Ebbinghaus"	"0.3571400000"	"0.2150000000"	"1"	"69"
n/a	"html-keyboard-response"	"155"	"2485566"	"0.0-5.0-2.0-0.51"	"sycyrw"	"600"	"1366"	"chrome"	"110.0.0"	"FALSE"	"Windows 10"	"60.81"	"039"	n/a	n/a	n/a	n/a	n/a	n/a	"fixation"	n/a	n/a	n/a	n/a	"NULL"	n/a	"NULL"	"NULL"	"NULL"	"<p style=\"color: black; font-size: 80px; padding-left: 2%; padding-right: 48%; padding-top: 34%; padding-bottom: 1%\">+</p>"	"1498"	n/a	n/a	n/a	n/a	n/a	n/a	n/a	n/a	n/a
n/a	"image-keyboard-response"	"156"	"2486844"	"0.0-5.0-2.0-1.51"	"sycyrw"	"600"	"1366"	"chrome"	"110.0.0"	"FALSE"	"Windows 10"	"60.81"	"039"	n/a	n/a	n/a	n/a	n/a	n/a	"Trial"	n/a	n/a	n/a	"1277"	"arrowleft"	n/a	"NULL"	"NULL"	"NULL"	"stimuli/Ebbinghaus_0.87143_-0.15857.png"	n/a	"Ebbinghaus"	"arrowright"	"1513"	"FALSE"	"Ebbinghaus"	"0.8714300000"	"-0.158570000"	"1"	"70"
n/a	"html-keyboard-response"	"157"	"2488312"	"0.0-5.0-2.0-0.52"	"sycyrw"	"600"	"1366"	"chrome"	"110.0.0"	"FALSE"	"Windows 10"	"60.81"	"039"	n/a	n/a	n/a	n/a	n/a	n/a	"fixation"	n/a	n/a	n/a	n/a	"NULL"	n/a	"NULL"	"NULL"	"NULL"	"<p style=\"color: black; font-size: 80px; padding-left: 44%; padding-right: 18%; padding-top: 15%; padding-bottom: 43%\">+</p>"	"1453"	n/a	n/a	n/a	n/a	n/a	n/a	n/a	n/a	n/a
n/a	"image-keyboard-response"	"158"	"2489129"	"0.0-5.0-2.0-1.52"	"sycyrw"	"600"	"1366"	"chrome"	"110.0.0"	"FALSE"	"Windows 10"	"60.81"	"039"	n/a	n/a	n/a	n/a	n/a	n/a	"Trial"	n/a	n/a	n/a	"816"	"arrowleft"	n/a	"NULL"	"NULL"	"NULL"	"stimuli/Ebbinghaus_-0.87143_0.15857.png"	n/a	"Ebbinghaus"	"arrowleft"	"1468"	"TRUE"	"Ebbinghaus"	"-0.871430000"	"0.1585700000"	"1"	"71"
n/a	"html-keyboard-response"	"159"	"2490246"	"0.0-5.0-2.0-0.53"	"sycyrw"	"600"	"1366"	"chrome"	"110.0.0"	"FALSE"	"Windows 10"	"60.81"	"039"	n/a	n/a	n/a	n/a	n/a	n/a	"fixation"	n/a	n/a	n/a	n/a	"NULL"	n/a	"NULL"	"NULL"	"NULL"	"<p style=\"color: black; font-size: 80px; padding-left: 15%; padding-right: 10%; padding-top: 45%; padding-bottom: 49%\">+</p>"	"1116"	n/a	n/a	n/a	n/a	n/a	n/a	n/a	n/a	n/a
n/a	"image-keyboard-response"	"160"	"2491923"	"0.0-5.0-2.0-1.53"	"sycyrw"	"600"	"1366"	"chrome"	"110.0.0"	"FALSE"	"Windows 10"	"60.81"	"039"	n/a	n/a	n/a	n/a	n/a	n/a	"Trial"	n/a	n/a	n/a	"1677"	"arrowleft"	n/a	"NULL"	"NULL"	"NULL"	"stimuli/Ebbinghaus_0.61429_0.28000.png"	n/a	"Ebbinghaus"	"arrowleft"	"1117"	"TRUE"	"Ebbinghaus"	"0.6142900000"	"0.2800000000"	"1"	"72"
n/a	"html-keyboard-response"	"161"	"2493099"	"0.0-5.0-2.0-0.54"	"sycyrw"	"600"	"1366"	"chrome"	"110.0.0"	"FALSE"	"Windows 10"	"60.81"	"039"	n/a	n/a	n/a	n/a	n/a	n/a	"fixation"	n/a	n/a	n/a	n/a	"NULL"	n/a	"NULL"	"NULL"	"NULL"	"<p style=\"color: black; font-size: 80px; padding-left: 32%; padding-right: 17%; padding-top: 39%; padding-bottom: 34%\">+</p>"	"1165"	n/a	n/a	n/a	n/a	n/a	n/a	n/a	n/a	n/a
n/a	"image-keyboard-response"	"162"	"2493955"	"0.0-5.0-2.0-1.54"	"sycyrw"	"600"	"1366"	"chrome"	"110.0.0"	"FALSE"	"Windows 10"	"60.81"	"039"	n/a	n/a	n/a	n/a	n/a	n/a	"Trial"	n/a	n/a	n/a	"855"	"arrowright"	n/a	"NULL"	"NULL"	"NULL"	"stimuli/Ebbinghaus_-0.1000_-0.11071.png"	n/a	"Ebbinghaus"	"arrowright"	"1176"	"TRUE"	"Ebbinghaus"	"-0.100000000"	"-0.110710000"	"1"	"73"
n/a	"html-keyboard-response"	"163"	"2495141"	"0.0-5.0-2.0-0.55"	"sycyrw"	"600"	"1366"	"chrome"	"110.0.0"	"FALSE"	"Windows 10"	"60.81"	"039"	n/a	n/a	n/a	n/a	n/a	n/a	"fixation"	n/a	n/a	n/a	n/a	"NULL"	n/a	"NULL"	"NULL"	"NULL"	"<p style=\"color: black; font-size: 80px; padding-left: 20%; padding-right: 40%; padding-top: 36%; padding-bottom: 4%\">+</p>"	"1173"	n/a	n/a	n/a	n/a	n/a	n/a	n/a	n/a	n/a
n/a	"image-keyboard-response"	"164"	"2496222"	"0.0-5.0-2.0-1.55"	"sycyrw"	"600"	"1366"	"chrome"	"110.0.0"	"FALSE"	"Windows 10"	"60.81"	"039"	n/a	n/a	n/a	n/a	n/a	n/a	"Trial"	n/a	n/a	n/a	"1080"	"arrowright"	n/a	"NULL"	"NULL"	"NULL"	"stimuli/Ebbinghaus_-0.35714_0.11071.png"	n/a	"Ebbinghaus"	"arrowleft"	"1186"	"FALSE"	"Ebbinghaus"	"-0.357140000"	"0.1107100000"	"1"	"74"
n/a	"html-keyboard-response"	"165"	"2497281"	"0.0-5.0-2.0-0.56"	"sycyrw"	"600"	"1366"	"chrome"	"110.0.0"	"FALSE"	"Windows 10"	"60.81"	"039"	n/a	n/a	n/a	n/a	n/a	n/a	"fixation"	n/a	n/a	n/a	n/a	"NULL"	n/a	"NULL"	"NULL"	"NULL"	"<p style=\"color: black; font-size: 80px; padding-left: 31%; padding-right: 30%; padding-top: 49%; padding-bottom: 6%\">+</p>"	"1049"	n/a	n/a	n/a	n/a	n/a	n/a	n/a	n/a	n/a
n/a	"image-keyboard-response"	"166"	"2498173"	"0.0-5.0-2.0-1.56"	"sycyrw"	"600"	"1366"	"chrome"	"110.0.0"	"FALSE"	"Windows 10"	"60.81"	"039"	n/a	n/a	n/a	n/a	n/a	n/a	"Trial"	n/a	n/a	n/a	"891"	"arrowleft"	n/a	"NULL"	"NULL"	"NULL"	"stimuli/Ebbinghaus_0.35714_0.15857.png"	n/a	"Ebbinghaus"	"arrowleft"	"1059"	"TRUE"	"Ebbinghaus"	"0.3571400000"	"0.1585700000"	"1"	"75"
n/a	"html-keyboard-response"	"167"	"2499533"	"0.0-5.0-2.0-0.57"	"sycyrw"	"600"	"1366"	"chrome"	"110.0.0"	"FALSE"	"Windows 10"	"60.81"	"039"	n/a	n/a	n/a	n/a	n/a	n/a	"fixation"	n/a	n/a	n/a	n/a	"NULL"	n/a	"NULL"	"NULL"	"NULL"	"<p style=\"color: black; font-size: 80px; padding-left: 11%; padding-right: 28%; padding-top: 46%; padding-bottom: 20%\">+</p>"	"1355"	n/a	n/a	n/a	n/a	n/a	n/a	n/a	n/a	n/a
n/a	"image-keyboard-response"	"168"	"2500129"	"0.0-5.0-2.0-1.57"	"sycyrw"	"600"	"1366"	"chrome"	"110.0.0"	"FALSE"	"Windows 10"	"60.81"	"039"	n/a	n/a	n/a	n/a	n/a	n/a	"Trial"	n/a	n/a	n/a	"595"	"arrowright"	n/a	"NULL"	"NULL"	"NULL"	"stimuli/Ebbinghaus_-0.1000_0.15857.png"	n/a	"Ebbinghaus"	"arrowleft"	"1360"	"FALSE"	"Ebbinghaus"	"-0.100000000"	"0.1585700000"	"1"	"76"
n/a	"html-keyboard-response"	"169"	"2501562"	"0.0-5.0-2.0-0.58"	"sycyrw"	"600"	"1366"	"chrome"	"110.0.0"	"FALSE"	"Windows 10"	"60.81"	"039"	n/a	n/a	n/a	n/a	n/a	n/a	"fixation"	n/a	n/a	n/a	n/a	"NULL"	n/a	"NULL"	"NULL"	"NULL"	"<p style=\"color: black; font-size: 80px; padding-left: 17%; padding-right: 48%; padding-top: 18%; padding-bottom: 13%\">+</p>"	"1422"	n/a	n/a	n/a	n/a	n/a	n/a	n/a	n/a	n/a
n/a	"image-keyboard-response"	"170"	"2502540"	"0.0-5.0-2.0-1.58"	"sycyrw"	"600"	"1366"	"chrome"	"110.0.0"	"FALSE"	"Windows 10"	"60.81"	"039"	n/a	n/a	n/a	n/a	n/a	n/a	"Trial"	n/a	n/a	n/a	"977"	"arrowleft"	n/a	"NULL"	"NULL"	"NULL"	"stimuli/Ebbinghaus_-0.61429_0.15857.png"	n/a	"Ebbinghaus"	"arrowleft"	"1433"	"TRUE"	"Ebbinghaus"	"-0.614290000"	"0.1585700000"	"1"	"77"
n/a	"html-keyboard-response"	"171"	"2503736"	"0.0-5.0-2.0-0.59"	"sycyrw"	"600"	"1366"	"chrome"	"110.0.0"	"FALSE"	"Windows 10"	"60.81"	"039"	n/a	n/a	n/a	n/a	n/a	n/a	"fixation"	n/a	n/a	n/a	n/a	"NULL"	n/a	"NULL"	"NULL"	"NULL"	"<p style=\"color: black; font-size: 80px; padding-left: 16%; padding-right: 39%; padding-top: 12%; padding-bottom: 43%\">+</p>"	"1191"	n/a	n/a	n/a	n/a	n/a	n/a	n/a	n/a	n/a
n/a	"image-keyboard-response"	"172"	"2504702"	"0.0-5.0-2.0-1.59"	"sycyrw"	"600"	"1366"	"chrome"	"110.0.0"	"FALSE"	"Windows 10"	"60.81"	"039"	n/a	n/a	n/a	n/a	n/a	n/a	"Trial"	n/a	n/a	n/a	"965"	"arrowleft"	n/a	"NULL"	"NULL"	"NULL"	"stimuli/Ebbinghaus_0.10000_0.15857.png"	n/a	"Ebbinghaus"	"arrowleft"	"1196"	"TRUE"	"Ebbinghaus"	"0.1000000000"	"0.1585700000"	"1"	"78"
n/a	"html-keyboard-response"	"173"	"2505931"	"0.0-5.0-2.0-0.60"	"sycyrw"	"600"	"1366"	"chrome"	"110.0.0"	"FALSE"	"Windows 10"	"60.81"	"039"	n/a	n/a	n/a	n/a	n/a	n/a	"fixation"	n/a	n/a	n/a	n/a	"NULL"	n/a	"NULL"	"NULL"	"NULL"	"<p style=\"color: black; font-size: 80px; padding-left: 1%; padding-right: 34%; padding-top: 41%; padding-bottom: 28%\">+</p>"	"1216"	n/a	n/a	n/a	n/a	n/a	n/a	n/a	n/a	n/a
n/a	"image-keyboard-response"	"174"	"2506663"	"0.0-5.0-2.0-1.60"	"sycyrw"	"600"	"1366"	"chrome"	"110.0.0"	"FALSE"	"Windows 10"	"60.81"	"039"	n/a	n/a	n/a	n/a	n/a	n/a	"Trial"	n/a	n/a	n/a	"731"	"arrowright"	n/a	"NULL"	"NULL"	"NULL"	"stimuli/Ebbinghaus_-0.1000_0.11071.png"	n/a	"Ebbinghaus"	"arrowleft"	"1229"	"FALSE"	"Ebbinghaus"	"-0.100000000"	"0.1107100000"	"1"	"79"
n/a	"html-keyboard-response"	"175"	"2508032"	"0.0-5.0-2.0-0.61"	"sycyrw"	"600"	"1366"	"chrome"	"110.0.0"	"FALSE"	"Windows 10"	"60.81"	"039"	n/a	n/a	n/a	n/a	n/a	n/a	"fixation"	n/a	n/a	n/a	n/a	"NULL"	n/a	"NULL"	"NULL"	"NULL"	"<p style=\"color: black; font-size: 80px; padding-left: 32%; padding-right: 13%; padding-top: 36%; padding-bottom: 30%\">+</p>"	"1362"	n/a	n/a	n/a	n/a	n/a	n/a	n/a	n/a	n/a
n/a	"image-keyboard-response"	"176"	"2508562"	"0.0-5.0-2.0-1.61"	"sycyrw"	"600"	"1366"	"chrome"	"110.0.0"	"FALSE"	"Windows 10"	"60.81"	"039"	n/a	n/a	n/a	n/a	n/a	n/a	"Trial"	n/a	n/a	n/a	"529"	"arrowright"	n/a	"NULL"	"NULL"	"NULL"	"stimuli/Ebbinghaus_-0.1000_-0.15857.png"	n/a	"Ebbinghaus"	"arrowright"	"1369"	"TRUE"	"Ebbinghaus"	"-0.100000000"	"-0.158570000"	"1"	"80"
n/a	"html-keyboard-response"	"177"	"2509921"	"0.0-5.0-2.0-0.62"	"sycyrw"	"600"	"1366"	"chrome"	"110.0.0"	"FALSE"	"Windows 10"	"60.81"	"039"	n/a	n/a	n/a	n/a	n/a	n/a	"fixation"	n/a	n/a	n/a	n/a	"NULL"	n/a	"NULL"	"NULL"	"NULL"	"<p style=\"color: black; font-size: 80px; padding-left: 17%; padding-right: 1%; padding-top: 23%; padding-bottom: 4%\">+</p>"	"1346"	n/a	n/a	n/a	n/a	n/a	n/a	n/a	n/a	n/a
n/a	"image-keyboard-response"	"178"	"2510515"	"0.0-5.0-2.0-1.62"	"sycyrw"	"600"	"1366"	"chrome"	"110.0.0"	"FALSE"	"Windows 10"	"60.81"	"039"	n/a	n/a	n/a	n/a	n/a	n/a	"Trial"	n/a	n/a	n/a	"594"	"arrowleft"	n/a	"NULL"	"NULL"	"NULL"	"stimuli/Ebbinghaus_-0.35714_0.28000.png"	n/a	"Ebbinghaus"	"arrowleft"	"1359"	"TRUE"	"Ebbinghaus"	"-0.357140000"	"0.2800000000"	"1"	"81"
n/a	"html-keyboard-response"	"179"	"2511637"	"0.0-5.0-2.0-0.63"	"sycyrw"	"600"	"1366"	"chrome"	"110.0.0"	"FALSE"	"Windows 10"	"60.81"	"039"	n/a	n/a	n/a	n/a	n/a	n/a	"fixation"	n/a	n/a	n/a	n/a	"NULL"	n/a	"NULL"	"NULL"	"NULL"	"<p style=\"color: black; font-size: 80px; padding-left: 23%; padding-right: 43%; padding-top: 3%; padding-bottom: 4%\">+</p>"	"1108"	n/a	n/a	n/a	n/a	n/a	n/a	n/a	n/a	n/a
n/a	"image-keyboard-response"	"180"	"2512205"	"0.0-5.0-2.0-1.63"	"sycyrw"	"600"	"1366"	"chrome"	"110.0.0"	"FALSE"	"Windows 10"	"60.81"	"039"	n/a	n/a	n/a	n/a	n/a	n/a	"Trial"	n/a	n/a	n/a	"567"	"arrowright"	n/a	"NULL"	"NULL"	"NULL"	"stimuli/Ebbinghaus_0.10000_-0.15857.png"	n/a	"Ebbinghaus"	"arrowright"	"1122"	"TRUE"	"Ebbinghaus"	"0.1000000000"	"-0.158570000"	"1"	"82"
n/a	"html-button-response"	"181"	"2528208"	"0.0-5.0-3.0"	"sycyrw"	"600"	"1366"	"chrome"	"110.0.0"	"FALSE"	"Windows 10"	"60.81"	"039"	n/a	n/a	n/a	n/a	n/a	n/a	"block_results"	n/a	n/a	n/a	"16001"	"0"	n/a	"NULL"	"NULL"	"NULL"	"<p>Your score for this illusion is <p style=\"color: black; font-size: 48px; font-weight: bold;\">70.5 %</p><hr><p>Can you do better in the next illusion?</p>"	n/a	n/a	n/a	n/a	n/a	n/a	n/a	n/a	n/a	n/a
"TRUE"	"preload"	"182"	"2528354"	"0.0-6.0-0.0"	"sycyrw"	"600"	"1366"	"chrome"	"110.0.0"	"FALSE"	"Windows 10"	"60.81"	"039"	n/a	n/a	n/a	n/a	n/a	n/a	n/a	n/a	n/a	n/a	n/a	"NULL"	"FALSE"	"list()"	"list()"	"list()"	n/a	n/a	n/a	n/a	n/a	n/a	n/a	n/a	n/a	n/a	n/a
n/a	"html-keyboard-response"	"183"	"2535116"	"0.0-6.0-1.0"	"sycyrw"	"600"	"1366"	"chrome"	"110.0.0"	"FALSE"	"Windows 10"	"60.81"	"039"	n/a	n/a	n/a	n/a	n/a	n/a	n/a	n/a	n/a	n/a	"6760"	"enter"	n/a	"NULL"	"NULL"	"NULL"	"<p><b>Part 2/6</b></p><p>In this part, two horizontal red lines will appear one above the other.</p><p>Your task is to select which <b>line is longer</b> in length as fast as you can, without making errors.</p><p>Don't get distracted by the surrounding black arrows at the end of the red lines!</p><p>Press <b>the UP or the DOWN arrow</b> to indicate where is the longer <b>red line.</b></p><div style='float: center'><img src='materials/instructions/MullerLyer_Demo.png' height='300'></img><p><img src='utils/answer/answer_updown_keyboard.PNG' height='150'></img></p><p class='small'>In this example, the correct answer is the <b>UP arrow</b>.</p></div><p>Are you ready? <b>Press ENTER to start</b></p>"	n/a	n/a	n/a	n/a	n/a	n/a	n/a	n/a	n/a	n/a
n/a	"html-keyboard-response"	"184"	"2536970"	"0.0-6.0-2.0-0.0"	"sycyrw"	"600"	"1366"	"chrome"	"110.0.0"	"FALSE"	"Windows 10"	"60.81"	"039"	n/a	n/a	n/a	n/a	n/a	n/a	"fixation"	n/a	n/a	n/a	n/a	"NULL"	n/a	"NULL"	"NULL"	"NULL"	"<p style=\"color: black; font-size: 80px; padding-left: 47%; padding-right: 15%; padding-top: 27%; padding-bottom: 30%\">+</p>"	"1350"	n/a	n/a	n/a	n/a	n/a	n/a	n/a	n/a	n/a
n/a	"image-keyboard-response"	"185"	"2538472"	"0.0-6.0-2.0-1.0"	"sycyrw"	"600"	"1366"	"chrome"	"110.0.0"	"FALSE"	"Windows 10"	"60.81"	"039"	n/a	n/a	n/a	n/a	n/a	n/a	"Trial"	n/a	n/a	n/a	"1501"	"arrowdown"	n/a	"NULL"	"NULL"	"NULL"	"stimuli/MullerLyer_-8.21429_-0.07627.png"	n/a	"MullerLyer"	"arrowdown"	"1854"	"TRUE"	"MullerLyer"	"-8.214290000"	"-0.076270000"	"2"	"1"
n/a	"html-keyboard-response"	"186"	"2539968"	"0.0-6.0-2.0-0.1"	"sycyrw"	"600"	"1366"	"chrome"	"110.0.0"	"FALSE"	"Windows 10"	"60.81"	"039"	n/a	n/a	n/a	n/a	n/a	n/a	"fixation"	n/a	n/a	n/a	n/a	"NULL"	n/a	"NULL"	"NULL"	"NULL"	"<p style=\"color: black; font-size: 80px; padding-left: 37%; padding-right: 20%; padding-top: 47%; padding-bottom: 31%\">+</p>"	"1492"	n/a	n/a	n/a	n/a	n/a	n/a	n/a	n/a	n/a
n/a	"image-keyboard-response"	"187"	"2540932"	"0.0-6.0-2.0-1.1"	"sycyrw"	"600"	"1366"	"chrome"	"110.0.0"	"FALSE"	"Windows 10"	"60.81"	"039"	n/a	n/a	n/a	n/a	n/a	n/a	"Trial"	n/a	n/a	n/a	"964"	"arrowup"	n/a	"NULL"	"NULL"	"NULL"	"stimuli/MullerLyer_2.30000_0.14541.png"	n/a	"MullerLyer"	"arrowup"	"1496"	"TRUE"	"MullerLyer"	"2.3000000000"	"0.1454100000"	"2"	"2"
n/a	"html-keyboard-response"	"188"	"2542185"	"0.0-6.0-2.0-0.2"	"sycyrw"	"600"	"1366"	"chrome"	"110.0.0"	"FALSE"	"Windows 10"	"60.81"	"039"	n/a	n/a	n/a	n/a	n/a	n/a	"fixation"	n/a	n/a	n/a	n/a	"NULL"	n/a	"NULL"	"NULL"	"NULL"	"<p style=\"color: black; font-size: 80px; padding-left: 8%; padding-right: 25%; padding-top: 29%; padding-bottom: 3%\">+</p>"	"1241"	n/a	n/a	n/a	n/a	n/a	n/a	n/a	n/a	n/a
n/a	"image-keyboard-response"	"189"	"2542730"	"0.0-6.0-2.0-1.2"	"sycyrw"	"600"	"1366"	"chrome"	"110.0.0"	"FALSE"	"Windows 10"	"60.81"	"039"	n/a	n/a	n/a	n/a	n/a	n/a	"Trial"	n/a	n/a	n/a	"544"	"arrowup"	n/a	"NULL"	"NULL"	"NULL"	"stimuli/MullerLyer_-2.3000_0.23665.png"	n/a	"MullerLyer"	"arrowup"	"1253"	"TRUE"	"MullerLyer"	"-2.300000000"	"0.2366500000"	"2"	"3"
n/a	"html-keyboard-response"	"190"	"2544139"	"0.0-6.0-2.0-0.3"	"sycyrw"	"600"	"1366"	"chrome"	"110.0.0"	"FALSE"	"Windows 10"	"60.81"	"039"	n/a	n/a	n/a	n/a	n/a	n/a	"fixation"	n/a	n/a	n/a	n/a	"NULL"	n/a	"NULL"	"NULL"	"NULL"	"<p style=\"color: black; font-size: 80px; padding-left: 30%; padding-right: 13%; padding-top: 24%; padding-bottom: 19%\">+</p>"	"1396"	n/a	n/a	n/a	n/a	n/a	n/a	n/a	n/a	n/a
n/a	"image-keyboard-response"	"191"	"2544763"	"0.0-6.0-2.0-1.3"	"sycyrw"	"600"	"1366"	"chrome"	"110.0.0"	"FALSE"	"Windows 10"	"60.81"	"039"	n/a	n/a	n/a	n/a	n/a	n/a	"Trial"	n/a	n/a	n/a	"623"	"arrowdown"	n/a	"NULL"	"NULL"	"NULL"	"stimuli/MullerLyer_-14.12857_-0.23665.png"	n/a	"MullerLyer"	"arrowdown"	"1409"	"TRUE"	"MullerLyer"	"-14.12857000"	"-0.236650000"	"2"	"4"
n/a	"html-keyboard-response"	"192"	"2546149"	"0.0-6.0-2.0-0.4"	"sycyrw"	"600"	"1366"	"chrome"	"110.0.0"	"FALSE"	"Windows 10"	"60.81"	"039"	n/a	n/a	n/a	n/a	n/a	n/a	"fixation"	n/a	n/a	n/a	n/a	"NULL"	n/a	"NULL"	"NULL"	"NULL"	"<p style=\"color: black; font-size: 80px; padding-left: 24%; padding-right: 2%; padding-top: 2%; padding-bottom: 12%\">+</p>"	"1384"	n/a	n/a	n/a	n/a	n/a	n/a	n/a	n/a	n/a
n/a	"image-keyboard-response"	"193"	"2546748"	"0.0-6.0-2.0-1.4"	"sycyrw"	"600"	"1366"	"chrome"	"110.0.0"	"FALSE"	"Windows 10"	"60.81"	"039"	n/a	n/a	n/a	n/a	n/a	n/a	"Trial"	n/a	n/a	n/a	"598"	"arrowup"	n/a	"NULL"	"NULL"	"NULL"	"stimuli/MullerLyer_-14.12857_0.23665.png"	n/a	"MullerLyer"	"arrowup"	"1386"	"TRUE"	"MullerLyer"	"-14.12857000"	"0.2366500000"	"2"	"5"
n/a	"html-keyboard-response"	"194"	"2548186"	"0.0-6.0-2.0-0.5"	"sycyrw"	"600"	"1366"	"chrome"	"110.0.0"	"FALSE"	"Windows 10"	"60.81"	"039"	n/a	n/a	n/a	n/a	n/a	n/a	"fixation"	n/a	n/a	n/a	n/a	"NULL"	n/a	"NULL"	"NULL"	"NULL"	"<p style=\"color: black; font-size: 80px; padding-left: 50%; padding-right: 10%; padding-top: 21%; padding-bottom: 10%\">+</p>"	"1437"	n/a	n/a	n/a	n/a	n/a	n/a	n/a	n/a	n/a
n/a	"image-keyboard-response"	"195"	"2548746"	"0.0-6.0-2.0-1.5"	"sycyrw"	"600"	"1366"	"chrome"	"110.0.0"	"FALSE"	"Windows 10"	"60.81"	"039"	n/a	n/a	n/a	n/a	n/a	n/a	"Trial"	n/a	n/a	n/a	"559"	"arrowdown"	n/a	"NULL"	"NULL"	"NULL"	"stimuli/MullerLyer_-14.12857_-0.07627.png"	n/a	"MullerLyer"	"arrowdown"	"1438"	"TRUE"	"MullerLyer"	"-14.12857000"	"-0.076270000"	"2"	"6"
n/a	"html-keyboard-response"	"196"	"2550000"	"0.0-6.0-2.0-0.6"	"sycyrw"	"600"	"1366"	"chrome"	"110.0.0"	"FALSE"	"Windows 10"	"60.81"	"039"	n/a	n/a	n/a	n/a	n/a	n/a	"fixation"	n/a	n/a	n/a	n/a	"NULL"	n/a	"NULL"	"NULL"	"NULL"	"<p style=\"color: black; font-size: 80px; padding-left: 5%; padding-right: 47%; padding-top: 32%; padding-bottom: 47%\">+</p>"	"1247"	n/a	n/a	n/a	n/a	n/a	n/a	n/a	n/a	n/a
n/a	"image-keyboard-response"	"197"	"2550820"	"0.0-6.0-2.0-1.6"	"sycyrw"	"600"	"1366"	"chrome"	"110.0.0"	"FALSE"	"Windows 10"	"60.81"	"039"	n/a	n/a	n/a	n/a	n/a	n/a	"Trial"	n/a	n/a	n/a	"820"	"arrowdown"	n/a	"NULL"	"NULL"	"NULL"	"stimuli/MullerLyer_14.12857_0.23665.png"	n/a	"MullerLyer"	"arrowup"	"1254"	"FALSE"	"MullerLyer"	"14.128570000"	"0.2366500000"	"2"	"7"
n/a	"html-keyboard-response"	"198"	"2552249"	"0.0-6.0-2.0-0.7"	"sycyrw"	"600"	"1366"	"chrome"	"110.0.0"	"FALSE"	"Windows 10"	"60.81"	"039"	n/a	n/a	n/a	n/a	n/a	n/a	"fixation"	n/a	n/a	n/a	n/a	"NULL"	n/a	"NULL"	"NULL"	"NULL"	"<p style=\"color: black; font-size: 80px; padding-left: 18%; padding-right: 28%; padding-top: 42%; padding-bottom: 48%\">+</p>"	"1416"	n/a	n/a	n/a	n/a	n/a	n/a	n/a	n/a	n/a
n/a	"image-keyboard-response"	"199"	"2552999"	"0.0-6.0-2.0-1.7"	"sycyrw"	"600"	"1366"	"chrome"	"110.0.0"	"FALSE"	"Windows 10"	"60.81"	"039"	n/a	n/a	n/a	n/a	n/a	n/a	"Trial"	n/a	n/a	n/a	"749"	"arrowdown"	n/a	"NULL"	"NULL"	"NULL"	"stimuli/MullerLyer_-20.04286_-0.23665.png"	n/a	"MullerLyer"	"arrowdown"	"1429"	"TRUE"	"MullerLyer"	"-20.04286000"	"-0.236650000"	"2"	"8"
n/a	"html-keyboard-response"	"200"	"2554233"	"0.0-6.0-2.0-0.8"	"sycyrw"	"600"	"1366"	"chrome"	"110.0.0"	"FALSE"	"Windows 10"	"60.81"	"039"	n/a	n/a	n/a	n/a	n/a	n/a	"fixation"	n/a	n/a	n/a	n/a	"NULL"	n/a	"NULL"	"NULL"	"NULL"	"<p style=\"color: black; font-size: 80px; padding-left: 10%; padding-right: 8%; padding-top: 28%; padding-bottom: 23%\">+</p>"	"1224"	n/a	n/a	n/a	n/a	n/a	n/a	n/a	n/a	n/a
n/a	"image-keyboard-response"	"201"	"2554857"	"0.0-6.0-2.0-1.8"	"sycyrw"	"600"	"1366"	"chrome"	"110.0.0"	"FALSE"	"Windows 10"	"60.81"	"039"	n/a	n/a	n/a	n/a	n/a	n/a	"Trial"	n/a	n/a	n/a	"623"	"arrowup"	n/a	"NULL"	"NULL"	"NULL"	"stimuli/MullerLyer_14.12857_-0.14541.png"	n/a	"MullerLyer"	"arrowdown"	"1234"	"FALSE"	"MullerLyer"	"14.128570000"	"-0.145410000"	"2"	"9"
n/a	"html-keyboard-response"	"202"	"2556369"	"0.0-6.0-2.0-0.9"	"sycyrw"	"600"	"1366"	"chrome"	"110.0.0"	"FALSE"	"Windows 10"	"60.81"	"039"	n/a	n/a	n/a	n/a	n/a	n/a	"fixation"	n/a	n/a	n/a	n/a	"NULL"	n/a	"NULL"	"NULL"	"NULL"	"<p style=\"color: black; font-size: 80px; padding-left: 7%; padding-right: 28%; padding-top: 16%; padding-bottom: 21%\">+</p>"	"1498"	n/a	n/a	n/a	n/a	n/a	n/a	n/a	n/a	n/a
n/a	"image-keyboard-response"	"203"	"2557233"	"0.0-6.0-2.0-1.9"	"sycyrw"	"600"	"1366"	"chrome"	"110.0.0"	"FALSE"	"Windows 10"	"60.81"	"039"	n/a	n/a	n/a	n/a	n/a	n/a	"Trial"	n/a	n/a	n/a	"864"	"arrowup"	n/a	"NULL"	"NULL"	"NULL"	"stimuli/MullerLyer_8.21429_-0.07627.png"	n/a	"MullerLyer"	"arrowdown"	"1512"	"FALSE"	"MullerLyer"	"8.2142900000"	"-0.076270000"	"2"	"10"
n/a	"html-keyboard-response"	"204"	"2558344"	"0.0-6.0-2.0-0.10"	"sycyrw"	"600"	"1366"	"chrome"	"110.0.0"	"FALSE"	"Windows 10"	"60.81"	"039"	n/a	n/a	n/a	n/a	n/a	n/a	"fixation"	n/a	n/a	n/a	n/a	"NULL"	n/a	"NULL"	"NULL"	"NULL"	"<p style=\"color: black; font-size: 80px; padding-left: 27%; padding-right: 21%; padding-top: 42%; padding-bottom: 35%\">+</p>"	"1095"	n/a	n/a	n/a	n/a	n/a	n/a	n/a	n/a	n/a
n/a	"image-keyboard-response"	"205"	"2559015"	"0.0-6.0-2.0-1.10"	"sycyrw"	"600"	"1366"	"chrome"	"110.0.0"	"FALSE"	"Windows 10"	"60.81"	"039"	n/a	n/a	n/a	n/a	n/a	n/a	"Trial"	n/a	n/a	n/a	"670"	"arrowdown"	n/a	"NULL"	"NULL"	"NULL"	"stimuli/MullerLyer_-2.3000_-0.07627.png"	n/a	"MullerLyer"	"arrowdown"	"1111"	"TRUE"	"MullerLyer"	"-2.300000000"	"-0.076270000"	"2"	"11"
n/a	"html-keyboard-response"	"206"	"2560513"	"0.0-6.0-2.0-0.11"	"sycyrw"	"600"	"1366"	"chrome"	"110.0.0"	"FALSE"	"Windows 10"	"60.81"	"039"	n/a	n/a	n/a	n/a	n/a	n/a	"fixation"	n/a	n/a	n/a	n/a	"NULL"	n/a	"NULL"	"NULL"	"NULL"	"<p style=\"color: black; font-size: 80px; padding-left: 3%; padding-right: 20%; padding-top: 45%; padding-bottom: 26%\">+</p>"	"1484"	n/a	n/a	n/a	n/a	n/a	n/a	n/a	n/a	n/a
n/a	"image-keyboard-response"	"207"	"2561129"	"0.0-6.0-2.0-1.11"	"sycyrw"	"600"	"1366"	"chrome"	"110.0.0"	"FALSE"	"Windows 10"	"60.81"	"039"	n/a	n/a	n/a	n/a	n/a	n/a	"Trial"	n/a	n/a	n/a	"616"	"arrowup"	n/a	"NULL"	"NULL"	"NULL"	"stimuli/MullerLyer_-20.04286_0.35000.png"	n/a	"MullerLyer"	"arrowup"	"1498"	"TRUE"	"MullerLyer"	"-20.04286000"	"0.3500000000"	"2"	"12"
n/a	"html-keyboard-response"	"208"	"2562489"	"0.0-6.0-2.0-0.12"	"sycyrw"	"600"	"1366"	"chrome"	"110.0.0"	"FALSE"	"Windows 10"	"60.81"	"039"	n/a	n/a	n/a	n/a	n/a	n/a	"fixation"	n/a	n/a	n/a	n/a	"NULL"	n/a	"NULL"	"NULL"	"NULL"	"<p style=\"color: black; font-size: 80px; padding-left: 12%; padding-right: 37%; padding-top: 8%; padding-bottom: 9%\">+</p>"	"1358"	n/a	n/a	n/a	n/a	n/a	n/a	n/a	n/a	n/a
n/a	"image-keyboard-response"	"209"	"2563194"	"0.0-6.0-2.0-1.12"	"sycyrw"	"600"	"1366"	"chrome"	"110.0.0"	"FALSE"	"Windows 10"	"60.81"	"039"	n/a	n/a	n/a	n/a	n/a	n/a	"Trial"	n/a	n/a	n/a	"704"	"arrowup"	n/a	"NULL"	"NULL"	"NULL"	"stimuli/MullerLyer_2.30000_0.35000.png"	n/a	"MullerLyer"	"arrowup"	"1360"	"TRUE"	"MullerLyer"	"2.3000000000"	"0.3500000000"	"2"	"13"
n/a	"html-keyboard-response"	"210"	"2564220"	"0.0-6.0-2.0-0.13"	"sycyrw"	"600"	"1366"	"chrome"	"110.0.0"	"FALSE"	"Windows 10"	"60.81"	"039"	n/a	n/a	n/a	n/a	n/a	n/a	"fixation"	n/a	n/a	n/a	n/a	"NULL"	n/a	"NULL"	"NULL"	"NULL"	"<p style=\"color: black; font-size: 80px; padding-left: 27%; padding-right: 50%; padding-top: 23%; padding-bottom: 1%\">+</p>"	"1017"	n/a	n/a	n/a	n/a	n/a	n/a	n/a	n/a	n/a
n/a	"image-keyboard-response"	"211"	"2565333"	"0.0-6.0-2.0-1.13"	"sycyrw"	"600"	"1366"	"chrome"	"110.0.0"	"FALSE"	"Windows 10"	"60.81"	"039"	n/a	n/a	n/a	n/a	n/a	n/a	"Trial"	n/a	n/a	n/a	"1113"	"arrowup"	n/a	"NULL"	"NULL"	"NULL"	"stimuli/MullerLyer_-14.12857_0.07627.png"	n/a	"MullerLyer"	"arrowup"	"1026"	"TRUE"	"MullerLyer"	"-14.12857000"	"0.0762700000"	"2"	"14"
n/a	"html-keyboard-response"	"212"	"2566773"	"0.0-6.0-2.0-0.14"	"sycyrw"	"600"	"1366"	"chrome"	"110.0.0"	"FALSE"	"Windows 10"	"60.81"	"039"	n/a	n/a	n/a	n/a	n/a	n/a	"fixation"	n/a	n/a	n/a	n/a	"NULL"	n/a	"NULL"	"NULL"	"NULL"	"<p style=\"color: black; font-size: 80px; padding-left: 32%; padding-right: 28%; padding-top: 15%; padding-bottom: 45%\">+</p>"	"1432"	n/a	n/a	n/a	n/a	n/a	n/a	n/a	n/a	n/a
n/a	"image-keyboard-response"	"213"	"2568540"	"0.0-6.0-2.0-1.14"	"sycyrw"	"600"	"1366"	"chrome"	"110.0.0"	"FALSE"	"Windows 10"	"60.81"	"039"	n/a	n/a	n/a	n/a	n/a	n/a	"Trial"	n/a	n/a	n/a	"1766"	"arrowdown"	n/a	"NULL"	"NULL"	"NULL"	"stimuli/MullerLyer_2.30000_-0.07627.png"	n/a	"MullerLyer"	"arrowdown"	"1440"	"TRUE"	"MullerLyer"	"2.3000000000"	"-0.076270000"	"2"	"15"
n/a	"html-keyboard-response"	"214"	"2569947"	"0.0-6.0-2.0-0.15"	"sycyrw"	"600"	"1366"	"chrome"	"110.0.0"	"FALSE"	"Windows 10"	"60.81"	"039"	n/a	n/a	n/a	n/a	n/a	n/a	"fixation"	n/a	n/a	n/a	n/a	"NULL"	n/a	"NULL"	"NULL"	"NULL"	"<p style=\"color: black; font-size: 80px; padding-left: 21%; padding-right: 23%; padding-top: 1%; padding-bottom: 28%\">+</p>"	"1393"	n/a	n/a	n/a	n/a	n/a	n/a	n/a	n/a	n/a
n/a	"image-keyboard-response"	"215"	"2571470"	"0.0-6.0-2.0-1.15"	"sycyrw"	"600"	"1366"	"chrome"	"110.0.0"	"FALSE"	"Windows 10"	"60.81"	"039"	n/a	n/a	n/a	n/a	n/a	n/a	"Trial"	n/a	n/a	n/a	"1522"	"arrowdown"	n/a	"NULL"	"NULL"	"NULL"	"stimuli/MullerLyer_8.21429_0.35000.png"	n/a	"MullerLyer"	"arrowup"	"1407"	"FALSE"	"MullerLyer"	"8.2142900000"	"0.3500000000"	"2"	"16"
n/a	"html-keyboard-response"	"216"	"2572812"	"0.0-6.0-2.0-0.16"	"sycyrw"	"600"	"1366"	"chrome"	"110.0.0"	"FALSE"	"Windows 10"	"60.81"	"039"	n/a	n/a	n/a	n/a	n/a	n/a	"fixation"	n/a	n/a	n/a	n/a	"NULL"	n/a	"NULL"	"NULL"	"NULL"	"<p style=\"color: black; font-size: 80px; padding-left: 20%; padding-right: 49%; padding-top: 39%; padding-bottom: 50%\">+</p>"	"1336"	n/a	n/a	n/a	n/a	n/a	n/a	n/a	n/a	n/a
n/a	"image-keyboard-response"	"217"	"2573762"	"0.0-6.0-2.0-1.16"	"sycyrw"	"600"	"1366"	"chrome"	"110.0.0"	"FALSE"	"Windows 10"	"60.81"	"039"	n/a	n/a	n/a	n/a	n/a	n/a	"Trial"	n/a	n/a	n/a	"949"	"arrowdown"	n/a	"NULL"	"NULL"	"NULL"	"stimuli/MullerLyer_8.21429_0.14541.png"	n/a	"MullerLyer"	"arrowup"	"1342"	"FALSE"	"MullerLyer"	"8.2142900000"	"0.1454100000"	"2"	"17"
n/a	"html-keyboard-response"	"218"	"2575155"	"0.0-6.0-2.0-0.17"	"sycyrw"	"600"	"1366"	"chrome"	"110.0.0"	"FALSE"	"Windows 10"	"60.81"	"039"	n/a	n/a	n/a	n/a	n/a	n/a	"fixation"	n/a	n/a	n/a	n/a	"NULL"	n/a	"NULL"	"NULL"	"NULL"	"<p style=\"color: black; font-size: 80px; padding-left: 5%; padding-right: 27%; padding-top: 35%; padding-bottom: 36%\">+</p>"	"1387"	n/a	n/a	n/a	n/a	n/a	n/a	n/a	n/a	n/a
n/a	"image-keyboard-response"	"219"	"2575842"	"0.0-6.0-2.0-1.17"	"sycyrw"	"600"	"1366"	"chrome"	"110.0.0"	"FALSE"	"Windows 10"	"60.81"	"039"	n/a	n/a	n/a	n/a	n/a	n/a	"Trial"	n/a	n/a	n/a	"687"	"arrowdown"	n/a	"NULL"	"NULL"	"NULL"	"stimuli/MullerLyer_-20.04286_-0.3500.png"	n/a	"MullerLyer"	"arrowdown"	"1393"	"TRUE"	"MullerLyer"	"-20.04286000"	"-0.350000000"	"2"	"18"
n/a	"html-keyboard-response"	"220"	"2577120"	"0.0-6.0-2.0-0.18"	"sycyrw"	"600"	"1366"	"chrome"	"110.0.0"	"FALSE"	"Windows 10"	"60.81"	"039"	n/a	n/a	n/a	n/a	n/a	n/a	"fixation"	n/a	n/a	n/a	n/a	"NULL"	n/a	"NULL"	"NULL"	"NULL"	"<p style=\"color: black; font-size: 80px; padding-left: 13%; padding-right: 28%; padding-top: 16%; padding-bottom: 48%\">+</p>"	"1263"	n/a	n/a	n/a	n/a	n/a	n/a	n/a	n/a	n/a
n/a	"image-keyboard-response"	"221"	"2577699"	"0.0-6.0-2.0-1.18"	"sycyrw"	"600"	"1366"	"chrome"	"110.0.0"	"FALSE"	"Windows 10"	"60.81"	"039"	n/a	n/a	n/a	n/a	n/a	n/a	"Trial"	n/a	n/a	n/a	"579"	"arrowup"	n/a	"NULL"	"NULL"	"NULL"	"stimuli/MullerLyer_20.04286_0.35000.png"	n/a	"MullerLyer"	"arrowup"	"1278"	"TRUE"	"MullerLyer"	"20.042860000"	"0.3500000000"	"2"	"19"
n/a	"html-keyboard-response"	"222"	"2578704"	"0.0-6.0-2.0-0.19"	"sycyrw"	"600"	"1366"	"chrome"	"110.0.0"	"FALSE"	"Windows 10"	"60.81"	"039"	n/a	n/a	n/a	n/a	n/a	n/a	"fixation"	n/a	n/a	n/a	n/a	"NULL"	n/a	"NULL"	"NULL"	"NULL"	"<p style=\"color: black; font-size: 80px; padding-left: 3%; padding-right: 10%; padding-top: 9%; padding-bottom: 25%\">+</p>"	"1001"	n/a	n/a	n/a	n/a	n/a	n/a	n/a	n/a	n/a
n/a	"image-keyboard-response"	"223"	"2579480"	"0.0-6.0-2.0-1.19"	"sycyrw"	"600"	"1366"	"chrome"	"110.0.0"	"FALSE"	"Windows 10"	"60.81"	"039"	n/a	n/a	n/a	n/a	n/a	n/a	"Trial"	n/a	n/a	n/a	"775"	"arrowup"	n/a	"NULL"	"NULL"	"NULL"	"stimuli/MullerLyer_-8.21429_0.23665.png"	n/a	"MullerLyer"	"arrowup"	"1005"	"TRUE"	"MullerLyer"	"-8.214290000"	"0.2366500000"	"2"	"20"
n/a	"html-keyboard-response"	"224"	"2580873"	"0.0-6.0-2.0-0.20"	"sycyrw"	"600"	"1366"	"chrome"	"110.0.0"	"FALSE"	"Windows 10"	"60.81"	"039"	n/a	n/a	n/a	n/a	n/a	n/a	"fixation"	n/a	n/a	n/a	n/a	"NULL"	n/a	"NULL"	"NULL"	"NULL"	"<p style=\"color: black; font-size: 80px; padding-left: 27%; padding-right: 8%; padding-top: 6%; padding-bottom: 11%\">+</p>"	"1378"	n/a	n/a	n/a	n/a	n/a	n/a	n/a	n/a	n/a
n/a	"image-keyboard-response"	"225"	"2581516"	"0.0-6.0-2.0-1.20"	"sycyrw"	"600"	"1366"	"chrome"	"110.0.0"	"FALSE"	"Windows 10"	"60.81"	"039"	n/a	n/a	n/a	n/a	n/a	n/a	"Trial"	n/a	n/a	n/a	"643"	"arrowdown"	n/a	"NULL"	"NULL"	"NULL"	"stimuli/MullerLyer_14.12857_0.14541.png"	n/a	"MullerLyer"	"arrowup"	"1393"	"FALSE"	"MullerLyer"	"14.128570000"	"0.1454100000"	"2"	"21"
n/a	"html-keyboard-response"	"226"	"2582994"	"0.0-6.0-2.0-0.21"	"sycyrw"	"600"	"1366"	"chrome"	"110.0.0"	"FALSE"	"Windows 10"	"60.81"	"039"	n/a	n/a	n/a	n/a	n/a	n/a	"fixation"	n/a	n/a	n/a	n/a	"NULL"	n/a	"NULL"	"NULL"	"NULL"	"<p style=\"color: black; font-size: 80px; padding-left: 15%; padding-right: 47%; padding-top: 50%; padding-bottom: 26%\">+</p>"	"1465"	n/a	n/a	n/a	n/a	n/a	n/a	n/a	n/a	n/a
n/a	"image-keyboard-response"	"227"	"2583724"	"0.0-6.0-2.0-1.21"	"sycyrw"	"600"	"1366"	"chrome"	"110.0.0"	"FALSE"	"Windows 10"	"60.81"	"039"	n/a	n/a	n/a	n/a	n/a	n/a	"Trial"	n/a	n/a	n/a	"729"	"arrowdown"	n/a	"NULL"	"NULL"	"NULL"	"stimuli/MullerLyer_2.30000_-0.23665.png"	n/a	"MullerLyer"	"arrowdown"	"1478"	"TRUE"	"MullerLyer"	"2.3000000000"	"-0.236650000"	"2"	"22"
n/a	"html-keyboard-response"	"228"	"2585225"	"0.0-6.0-2.0-0.22"	"sycyrw"	"600"	"1366"	"chrome"	"110.0.0"	"FALSE"	"Windows 10"	"60.81"	"039"	n/a	n/a	n/a	n/a	n/a	n/a	"fixation"	n/a	n/a	n/a	n/a	"NULL"	n/a	"NULL"	"NULL"	"NULL"	"<p style=\"color: black; font-size: 80px; padding-left: 9%; padding-right: 2%; padding-top: 7%; padding-bottom: 2%\">+</p>"	"1487"	n/a	n/a	n/a	n/a	n/a	n/a	n/a	n/a	n/a
n/a	"image-keyboard-response"	"229"	"2587719"	"0.0-6.0-2.0-1.22"	"sycyrw"	"600"	"1366"	"chrome"	"110.0.0"	"FALSE"	"Windows 10"	"60.81"	"039"	n/a	n/a	n/a	n/a	n/a	n/a	"Trial"	n/a	n/a	n/a	"2494"	"arrowdown"	n/a	"NULL"	"NULL"	"NULL"	"stimuli/MullerLyer_14.12857_-0.07627.png"	n/a	"MullerLyer"	"arrowdown"	"1501"	"TRUE"	"MullerLyer"	"14.128570000"	"-0.076270000"	"2"	"23"
n/a	"html-keyboard-response"	"230"	"2589084"	"0.0-6.0-2.0-0.23"	"sycyrw"	"600"	"1366"	"chrome"	"110.0.0"	"FALSE"	"Windows 10"	"60.81"	"039"	n/a	n/a	n/a	n/a	n/a	n/a	"fixation"	n/a	n/a	n/a	n/a	"NULL"	n/a	"NULL"	"NULL"	"NULL"	"<p style=\"color: black; font-size: 80px; padding-left: 45%; padding-right: 9%; padding-top: 49%; padding-bottom: 21%\">+</p>"	"1360"	n/a	n/a	n/a	n/a	n/a	n/a	n/a	n/a	n/a
n/a	"image-keyboard-response"	"231"	"2590159"	"0.0-6.0-2.0-1.23"	"sycyrw"	"600"	"1366"	"chrome"	"110.0.0"	"FALSE"	"Windows 10"	"60.81"	"039"	n/a	n/a	n/a	n/a	n/a	n/a	"Trial"	n/a	n/a	n/a	"1075"	"arrowdown"	n/a	"NULL"	"NULL"	"NULL"	"stimuli/MullerLyer_8.21429_-0.14541.png"	n/a	"MullerLyer"	"arrowdown"	"1365"	"TRUE"	"MullerLyer"	"8.2142900000"	"-0.145410000"	"2"	"24"
n/a	"html-keyboard-response"	"232"	"2591186"	"0.0-6.0-2.0-0.24"	"sycyrw"	"600"	"1366"	"chrome"	"110.0.0"	"FALSE"	"Windows 10"	"60.81"	"039"	n/a	n/a	n/a	n/a	n/a	n/a	"fixation"	n/a	n/a	n/a	n/a	"NULL"	n/a	"NULL"	"NULL"	"NULL"	"<p style=\"color: black; font-size: 80px; padding-left: 12%; padding-right: 3%; padding-top: 16%; padding-bottom: 39%\">+</p>"	"1018"	n/a	n/a	n/a	n/a	n/a	n/a	n/a	n/a	n/a
n/a	"image-keyboard-response"	"233"	"2592029"	"0.0-6.0-2.0-1.24"	"sycyrw"	"600"	"1366"	"chrome"	"110.0.0"	"FALSE"	"Windows 10"	"60.81"	"039"	n/a	n/a	n/a	n/a	n/a	n/a	"Trial"	n/a	n/a	n/a	"843"	"arrowdown"	n/a	"NULL"	"NULL"	"NULL"	"stimuli/MullerLyer_-2.3000_-0.23665.png"	n/a	"MullerLyer"	"arrowdown"	"1027"	"TRUE"	"MullerLyer"	"-2.300000000"	"-0.236650000"	"2"	"25"
n/a	"html-keyboard-response"	"234"	"2593268"	"0.0-6.0-2.0-0.25"	"sycyrw"	"600"	"1366"	"chrome"	"110.0.0"	"FALSE"	"Windows 10"	"60.81"	"039"	n/a	n/a	n/a	n/a	n/a	n/a	"fixation"	n/a	n/a	n/a	n/a	"NULL"	n/a	"NULL"	"NULL"	"NULL"	"<p style=\"color: black; font-size: 80px; padding-left: 42%; padding-right: 15%; padding-top: 30%; padding-bottom: 33%\">+</p>"	"1236"	n/a	n/a	n/a	n/a	n/a	n/a	n/a	n/a	n/a
n/a	"image-keyboard-response"	"235"	"2594075"	"0.0-6.0-2.0-1.25"	"sycyrw"	"600"	"1366"	"chrome"	"110.0.0"	"FALSE"	"Windows 10"	"60.81"	"039"	n/a	n/a	n/a	n/a	n/a	n/a	"Trial"	n/a	n/a	n/a	"806"	"arrowup"	n/a	"NULL"	"NULL"	"NULL"	"stimuli/MullerLyer_-8.21429_0.07627.png"	n/a	"MullerLyer"	"arrowup"	"1239"	"TRUE"	"MullerLyer"	"-8.214290000"	"0.0762700000"	"2"	"26"
n/a	"html-keyboard-response"	"236"	"2595342"	"0.0-6.0-2.0-0.26"	"sycyrw"	"600"	"1366"	"chrome"	"110.0.0"	"FALSE"	"Windows 10"	"60.81"	"039"	n/a	n/a	n/a	n/a	n/a	n/a	"fixation"	n/a	n/a	n/a	n/a	"NULL"	n/a	"NULL"	"NULL"	"NULL"	"<p style=\"color: black; font-size: 80px; padding-left: 46%; padding-right: 35%; padding-top: 25%; padding-bottom: 21%\">+</p>"	"1256"	n/a	n/a	n/a	n/a	n/a	n/a	n/a	n/a	n/a
n/a	"image-keyboard-response"	"237"	"2595937"	"0.0-6.0-2.0-1.26"	"sycyrw"	"600"	"1366"	"chrome"	"110.0.0"	"FALSE"	"Windows 10"	"60.81"	"039"	n/a	n/a	n/a	n/a	n/a	n/a	"Trial"	n/a	n/a	n/a	"592"	"arrowup"	n/a	"NULL"	"NULL"	"NULL"	"stimuli/MullerLyer_-20.04286_0.14541.png"	n/a	"MullerLyer"	"arrowup"	"1267"	"TRUE"	"MullerLyer"	"-20.04286000"	"0.1454100000"	"2"	"27"
n/a	"html-keyboard-response"	"238"	"2597327"	"0.0-6.0-2.0-0.27"	"sycyrw"	"600"	"1366"	"chrome"	"110.0.0"	"FALSE"	"Windows 10"	"60.81"	"039"	n/a	n/a	n/a	n/a	n/a	n/a	"fixation"	n/a	n/a	n/a	n/a	"NULL"	n/a	"NULL"	"NULL"	"NULL"	"<p style=\"color: black; font-size: 80px; padding-left: 49%; padding-right: 32%; padding-top: 15%; padding-bottom: 29%\">+</p>"	"1378"	n/a	n/a	n/a	n/a	n/a	n/a	n/a	n/a	n/a
n/a	"image-keyboard-response"	"239"	"2597853"	"0.0-6.0-2.0-1.27"	"sycyrw"	"600"	"1366"	"chrome"	"110.0.0"	"FALSE"	"Windows 10"	"60.81"	"039"	n/a	n/a	n/a	n/a	n/a	n/a	"Trial"	n/a	n/a	n/a	"525"	"arrowup"	n/a	"NULL"	"NULL"	"NULL"	"stimuli/MullerLyer_-14.12857_0.14541.png"	n/a	"MullerLyer"	"arrowup"	"1390"	"TRUE"	"MullerLyer"	"-14.12857000"	"0.1454100000"	"2"	"28"
n/a	"html-keyboard-response"	"240"	"2599121"	"0.0-6.0-2.0-0.28"	"sycyrw"	"600"	"1366"	"chrome"	"110.0.0"	"FALSE"	"Windows 10"	"60.81"	"039"	n/a	n/a	n/a	n/a	n/a	n/a	"fixation"	n/a	n/a	n/a	n/a	"NULL"	n/a	"NULL"	"NULL"	"NULL"	"<p style=\"color: black; font-size: 80px; padding-left: 18%; padding-right: 17%; padding-top: 18%; padding-bottom: 39%\">+</p>"	"1258"	n/a	n/a	n/a	n/a	n/a	n/a	n/a	n/a	n/a
n/a	"image-keyboard-response"	"241"	"2600952"	"0.0-6.0-2.0-1.28"	"sycyrw"	"600"	"1366"	"chrome"	"110.0.0"	"FALSE"	"Windows 10"	"60.81"	"039"	n/a	n/a	n/a	n/a	n/a	n/a	"Trial"	n/a	n/a	n/a	"1830"	"arrowdown"	n/a	"NULL"	"NULL"	"NULL"	"stimuli/MullerLyer_2.30000_0.07627.png"	n/a	"MullerLyer"	"arrowup"	"1268"	"FALSE"	"MullerLyer"	"2.3000000000"	"0.0762700000"	"2"	"29"
n/a	"html-keyboard-response"	"242"	"2602404"	"0.0-6.0-2.0-0.29"	"sycyrw"	"600"	"1366"	"chrome"	"110.0.0"	"FALSE"	"Windows 10"	"60.81"	"039"	n/a	n/a	n/a	n/a	n/a	n/a	"fixation"	n/a	n/a	n/a	n/a	"NULL"	n/a	"NULL"	"NULL"	"NULL"	"<p style=\"color: black; font-size: 80px; padding-left: 9%; padding-right: 42%; padding-top: 46%; padding-bottom: 48%\">+</p>"	"1442"	n/a	n/a	n/a	n/a	n/a	n/a	n/a	n/a	n/a
n/a	"image-keyboard-response"	"243"	"2603109"	"0.0-6.0-2.0-1.29"	"sycyrw"	"600"	"1366"	"chrome"	"110.0.0"	"FALSE"	"Windows 10"	"60.81"	"039"	n/a	n/a	n/a	n/a	n/a	n/a	"Trial"	n/a	n/a	n/a	"704"	"arrowdown"	n/a	"NULL"	"NULL"	"NULL"	"stimuli/MullerLyer_20.04286_0.14541.png"	n/a	"MullerLyer"	"arrowup"	"1452"	"FALSE"	"MullerLyer"	"20.042860000"	"0.1454100000"	"2"	"30"
n/a	"html-keyboard-response"	"244"	"2604167"	"0.0-6.0-2.0-0.30"	"sycyrw"	"600"	"1366"	"chrome"	"110.0.0"	"FALSE"	"Windows 10"	"60.81"	"039"	n/a	n/a	n/a	n/a	n/a	n/a	"fixation"	n/a	n/a	n/a	n/a	"NULL"	n/a	"NULL"	"NULL"	"NULL"	"<p style=\"color: black; font-size: 80px; padding-left: 26%; padding-right: 25%; padding-top: 38%; padding-bottom: 49%\">+</p>"	"1044"	n/a	n/a	n/a	n/a	n/a	n/a	n/a	n/a	n/a
n/a	"image-keyboard-response"	"245"	"2604758"	"0.0-6.0-2.0-1.30"	"sycyrw"	"600"	"1366"	"chrome"	"110.0.0"	"FALSE"	"Windows 10"	"60.81"	"039"	n/a	n/a	n/a	n/a	n/a	n/a	"Trial"	n/a	n/a	n/a	"591"	"arrowdown"	n/a	"NULL"	"NULL"	"NULL"	"stimuli/MullerLyer_-8.21429_-0.23665.png"	n/a	"MullerLyer"	"arrowdown"	"1058"	"TRUE"	"MullerLyer"	"-8.214290000"	"-0.236650000"	"2"	"31"
n/a	"html-keyboard-response"	"246"	"2605777"	"0.0-6.0-2.0-0.31"	"sycyrw"	"600"	"1366"	"chrome"	"110.0.0"	"FALSE"	"Windows 10"	"60.81"	"039"	n/a	n/a	n/a	n/a	n/a	n/a	"fixation"	n/a	n/a	n/a	n/a	"NULL"	n/a	"NULL"	"NULL"	"NULL"	"<p style=\"color: black; font-size: 80px; padding-left: 15%; padding-right: 33%; padding-top: 41%; padding-bottom: 3%\">+</p>"	"1014"	n/a	n/a	n/a	n/a	n/a	n/a	n/a	n/a	n/a
n/a	"image-keyboard-response"	"247"	"2606515"	"0.0-6.0-2.0-1.31"	"sycyrw"	"600"	"1366"	"chrome"	"110.0.0"	"FALSE"	"Windows 10"	"60.81"	"039"	n/a	n/a	n/a	n/a	n/a	n/a	"Trial"	n/a	n/a	n/a	"737"	"arrowup"	n/a	"NULL"	"NULL"	"NULL"	"stimuli/MullerLyer_-2.3000_0.07627.png"	n/a	"MullerLyer"	"arrowup"	"1019"	"TRUE"	"MullerLyer"	"-2.300000000"	"0.0762700000"	"2"	"32"
n/a	"html-keyboard-response"	"248"	"2607931"	"0.0-6.0-2.0-0.32"	"sycyrw"	"600"	"1366"	"chrome"	"110.0.0"	"FALSE"	"Windows 10"	"60.81"	"039"	n/a	n/a	n/a	n/a	n/a	n/a	"fixation"	n/a	n/a	n/a	n/a	"NULL"	n/a	"NULL"	"NULL"	"NULL"	"<p style=\"color: black; font-size: 80px; padding-left: 40%; padding-right: 10%; padding-top: 0%; padding-bottom: 18%\">+</p>"	"1406"	n/a	n/a	n/a	n/a	n/a	n/a	n/a	n/a	n/a
n/a	"image-keyboard-response"	"249"	"2608450"	"0.0-6.0-2.0-1.32"	"sycyrw"	"600"	"1366"	"chrome"	"110.0.0"	"FALSE"	"Windows 10"	"60.81"	"039"	n/a	n/a	n/a	n/a	n/a	n/a	"Trial"	n/a	n/a	n/a	"518"	"arrowup"	n/a	"NULL"	"NULL"	"NULL"	"stimuli/MullerLyer_8.21429_0.23665.png"	n/a	"MullerLyer"	"arrowup"	"1416"	"TRUE"	"MullerLyer"	"8.2142900000"	"0.2366500000"	"2"	"33"
n/a	"html-keyboard-response"	"250"	"2609546"	"0.0-6.0-2.0-0.33"	"sycyrw"	"600"	"1366"	"chrome"	"110.0.0"	"FALSE"	"Windows 10"	"60.81"	"039"	n/a	n/a	n/a	n/a	n/a	n/a	"fixation"	n/a	n/a	n/a	n/a	"NULL"	n/a	"NULL"	"NULL"	"NULL"	"<p style=\"color: black; font-size: 80px; padding-left: 8%; padding-right: 20%; padding-top: 18%; padding-bottom: 43%\">+</p>"	"1088"	n/a	n/a	n/a	n/a	n/a	n/a	n/a	n/a	n/a
n/a	"image-keyboard-response"	"251"	"2610108"	"0.0-6.0-2.0-1.33"	"sycyrw"	"600"	"1366"	"chrome"	"110.0.0"	"FALSE"	"Windows 10"	"60.81"	"039"	n/a	n/a	n/a	n/a	n/a	n/a	"Trial"	n/a	n/a	n/a	"561"	"arrowup"	n/a	"NULL"	"NULL"	"NULL"	"stimuli/MullerLyer_2.30000_0.23665.png"	n/a	"MullerLyer"	"arrowup"	"1096"	"TRUE"	"MullerLyer"	"2.3000000000"	"0.2366500000"	"2"	"34"
n/a	"html-keyboard-response"	"252"	"2611513"	"0.0-6.0-2.0-0.34"	"sycyrw"	"600"	"1366"	"chrome"	"110.0.0"	"FALSE"	"Windows 10"	"60.81"	"039"	n/a	n/a	n/a	n/a	n/a	n/a	"fixation"	n/a	n/a	n/a	n/a	"NULL"	n/a	"NULL"	"NULL"	"NULL"	"<p style=\"color: black; font-size: 80px; padding-left: 10%; padding-right: 49%; padding-top: 1%; padding-bottom: 45%\">+</p>"	"1391"	n/a	n/a	n/a	n/a	n/a	n/a	n/a	n/a	n/a
