"success"	"trial_type"	"trial_index"	"time_elapsed"	"internal_node_id"	"participant_id"	"screen_height"	"screen_width"	"browser"	"browser_version"	"mobile"	"os"	"vsync_rate"	"subject_id"	"width"	"height"	"webaudio"	"fullscreen"	"webcam"	"microphone"	"screen"	"version"	"date"	"time"	"rt"	"response"	"timeout"	"failed_images"	"failed_audio"	"failed_video"	"stimulus"	"trial_duration"	"block"	"correct_response"	"prestimulus_duration"	"correct"	"type"	"illusion_strength"	"illusion_difference"	"block_number"	"trial_number"
"TRUE"	"fullscreen"	"0"	"3426"	"0.0-0.0"	"stvc9h"	"600"	"1366"	"chrome"	"109.0.0"	"FALSE"	"Windows 10"	"60.65"	"027"	n/a	n/a	n/a	n/a	n/a	n/a	n/a	n/a	n/a	n/a	n/a	"NULL"	n/a	"NULL"	"NULL"	"NULL"	n/a	n/a	n/a	n/a	n/a	n/a	n/a	n/a	n/a	n/a	n/a
n/a	"browser-check"	"1"	"4429"	"0.0-1.0"	"stvc9h"	"600"	"1366"	"chrome"	"109.0.0"	"FALSE"	"Windows 10"	"60.65"	"027"	"1366"	"600"	"TRUE"	"TRUE"	"TRUE"	"TRUE"	"browser_info"	"1.0"	"27/02/2023"	"14:40:02"	n/a	"NULL"	n/a	"NULL"	"NULL"	"NULL"	n/a	n/a	n/a	n/a	n/a	n/a	n/a	n/a	n/a	n/a	n/a
n/a	"survey-text"	"2"	"8685"	"0.0-2.0"	"stvc9h"	"600"	"1366"	"chrome"	"109.0.0"	"FALSE"	"Windows 10"	"60.65"	"027"	n/a	n/a	n/a	n/a	n/a	n/a	"subject_id"	n/a	n/a	n/a	"4253"	"list(subject_id = \"027\")"	n/a	"NULL"	"NULL"	"NULL"	n/a	n/a	n/a	n/a	n/a	n/a	n/a	n/a	n/a	n/a	n/a
"TRUE"	"preload"	"3"	"8699"	"0.0-3.0"	"stvc9h"	"600"	"1366"	"chrome"	"109.0.0"	"FALSE"	"Windows 10"	"60.65"	"027"	n/a	n/a	n/a	n/a	n/a	n/a	n/a	n/a	n/a	n/a	n/a	"NULL"	"FALSE"	"list()"	"list()"	"list()"	n/a	n/a	n/a	n/a	n/a	n/a	n/a	n/a	n/a	n/a	n/a
n/a	"html-button-response"	"4"	"132059"	"0.0-4.0-0.0"	"stvc9h"	"600"	"1366"	"chrome"	"109.0.0"	"FALSE"	"Windows 10"	"60.65"	"027"	n/a	n/a	n/a	n/a	n/a	n/a	"illusion_instructions"	n/a	n/a	n/a	"123346"	"0"	n/a	"NULL"	"NULL"	"NULL"	"<p><b>Illusion Game</b></p><p>In this game of speed and reflex, you will need to make <b>visual judgments</b> (for instance, which circle is the biggest, or which line is the longest), as fast and as correctly as possible, while <b>resisting different visual illusions</b>.</p><p>We are going to start with some examples of all the illusions you will encounter in the game.</p>"	n/a	n/a	n/a	n/a	n/a	n/a	n/a	n/a	n/a	n/a
"TRUE"	"preload"	"5"	"132106"	"0.0-4.0-1.0-0.0"	"stvc9h"	"600"	"1366"	"chrome"	"109.0.0"	"FALSE"	"Windows 10"	"60.65"	"027"	n/a	n/a	n/a	n/a	n/a	n/a	n/a	n/a	n/a	n/a	n/a	"NULL"	"FALSE"	"list()"	"list()"	"list()"	n/a	n/a	n/a	n/a	n/a	n/a	n/a	n/a	n/a	n/a	n/a
n/a	"html-keyboard-response"	"6"	"161631"	"0.0-4.0-1.0-1.0"	"stvc9h"	"600"	"1366"	"chrome"	"109.0.0"	"FALSE"	"Windows 10"	"60.65"	"027"	n/a	n/a	n/a	n/a	n/a	n/a	n/a	n/a	n/a	n/a	"29523"	"enter"	n/a	"NULL"	"NULL"	"NULL"	"<p><b>Practice</b></p><p>In this part, two red circles will appear side by side on the screen.</p><p>Your task is to select which <b>red circle is bigger</b> in size as fast as you can, without making errors.</p><p>Don't get distracted by the surrounding black circles around the red circles!</p><p>Press <b>the LEFT or the RIGHT arrow</b> to indicate which is the bigger <b>red circle.</b></p><div style='float: center'><img src='materials/instructions/Ebbinghaus_Demo.png' height='300'></img><p><img src='utils/answer/answer_leftright_keyboard.PNG' height='150'></img></p><p class='small'>In this example, the correct answer is the <b>LEFT arrow</b>.</p></div><p>Are you ready? <b>Press ENTER to start</b></p>"	n/a	n/a	n/a	n/a	n/a	n/a	n/a	n/a	n/a	n/a
n/a	"html-keyboard-response"	"7"	"163361"	"0.0-4.0-1.0-2.0-0.0"	"stvc9h"	"600"	"1366"	"chrome"	"109.0.0"	"FALSE"	"Windows 10"	"60.65"	"027"	n/a	n/a	n/a	n/a	n/a	n/a	"fixation"	n/a	n/a	n/a	n/a	"NULL"	n/a	"NULL"	"NULL"	"NULL"	"<p style=\"color: black; font-size: 80px; padding-left: 8%; padding-right: 44%; padding-top: 26%; padding-bottom: 29%\">+</p>"	"1200"	n/a	n/a	n/a	n/a	n/a	n/a	n/a	n/a	n/a
n/a	"image-keyboard-response"	"8"	"164292"	"0.0-4.0-1.0-2.0-1.0"	"stvc9h"	"600"	"1366"	"chrome"	"109.0.0"	"FALSE"	"Windows 10"	"60.65"	"027"	n/a	n/a	n/a	n/a	n/a	n/a	"Trial"	n/a	n/a	n/a	"920"	"arrowleft"	n/a	"NULL"	"NULL"	"NULL"	"stimuli/Ebbinghaus_0000000_1.40000.png"	n/a	"Ebbinghaus"	"arrowleft"	"1730"	"TRUE"	"Ebbinghaus"	"000000000000"	"1.4000000000"	"1"	"1"
n/a	"html-keyboard-response"	"9"	"165420"	"0.0-4.0-1.0-2.0-0.1"	"stvc9h"	"600"	"1366"	"chrome"	"109.0.0"	"FALSE"	"Windows 10"	"60.65"	"027"	n/a	n/a	n/a	n/a	n/a	n/a	"fixation"	n/a	n/a	n/a	n/a	"NULL"	n/a	"NULL"	"NULL"	"NULL"	"<p style=\"color: black; font-size: 80px; padding-left: 4%; padding-right: 40%; padding-top: 24%; padding-bottom: 43%\">+</p>"	"1123"	n/a	n/a	n/a	n/a	n/a	n/a	n/a	n/a	n/a
n/a	"image-keyboard-response"	"10"	"165951"	"0.0-4.0-1.0-2.0-1.1"	"stvc9h"	"600"	"1366"	"chrome"	"109.0.0"	"FALSE"	"Windows 10"	"60.65"	"027"	n/a	n/a	n/a	n/a	n/a	n/a	"Trial"	n/a	n/a	n/a	"529"	"arrowright"	n/a	"NULL"	"NULL"	"NULL"	"stimuli/Ebbinghaus_1000000_-1.4000.png"	n/a	"Ebbinghaus"	"arrowright"	"1128"	"TRUE"	"Ebbinghaus"	"100000000000"	"-1.400000000"	"1"	"2"
n/a	"html-keyboard-response"	"11"	"167312"	"0.0-4.0-1.0-2.0-0.2"	"stvc9h"	"600"	"1366"	"chrome"	"109.0.0"	"FALSE"	"Windows 10"	"60.65"	"027"	n/a	n/a	n/a	n/a	n/a	n/a	"fixation"	n/a	n/a	n/a	n/a	"NULL"	n/a	"NULL"	"NULL"	"NULL"	"<p style=\"color: black; font-size: 80px; padding-left: 4%; padding-right: 47%; padding-top: 19%; padding-bottom: 11%\">+</p>"	"1349"	n/a	n/a	n/a	n/a	n/a	n/a	n/a	n/a	n/a
n/a	"image-keyboard-response"	"12"	"167911"	"0.0-4.0-1.0-2.0-1.2"	"stvc9h"	"600"	"1366"	"chrome"	"109.0.0"	"FALSE"	"Windows 10"	"60.65"	"027"	n/a	n/a	n/a	n/a	n/a	n/a	"Trial"	n/a	n/a	n/a	"598"	"arrowright"	n/a	"NULL"	"NULL"	"NULL"	"stimuli/Ebbinghaus_-100000_-1.4000.png"	n/a	"Ebbinghaus"	"arrowright"	"1361"	"TRUE"	"Ebbinghaus"	"-10000000000"	"-1.400000000"	"1"	"3"
n/a	"html-keyboard-response"	"13"	"168982"	"0.0-4.0-1.0-2.0-0.3"	"stvc9h"	"600"	"1366"	"chrome"	"109.0.0"	"FALSE"	"Windows 10"	"60.65"	"027"	n/a	n/a	n/a	n/a	n/a	n/a	"fixation"	n/a	n/a	n/a	n/a	"NULL"	n/a	"NULL"	"NULL"	"NULL"	"<p style=\"color: black; font-size: 80px; padding-left: 41%; padding-right: 13%; padding-top: 21%; padding-bottom: 39%\">+</p>"	"1062"	n/a	n/a	n/a	n/a	n/a	n/a	n/a	n/a	n/a
n/a	"image-keyboard-response"	"14"	"169691"	"0.0-4.0-1.0-2.0-1.3"	"stvc9h"	"600"	"1366"	"chrome"	"109.0.0"	"FALSE"	"Windows 10"	"60.65"	"027"	n/a	n/a	n/a	n/a	n/a	n/a	"Trial"	n/a	n/a	n/a	"708"	"arrowleft"	n/a	"NULL"	"NULL"	"NULL"	"stimuli/Ebbinghaus_-100000_1.40000.png"	n/a	"Ebbinghaus"	"arrowleft"	"1071"	"TRUE"	"Ebbinghaus"	"-10000000000"	"1.4000000000"	"1"	"4"
n/a	"html-keyboard-response"	"15"	"170786"	"0.0-4.0-1.0-2.0-0.4"	"stvc9h"	"600"	"1366"	"chrome"	"109.0.0"	"FALSE"	"Windows 10"	"60.65"	"027"	n/a	n/a	n/a	n/a	n/a	n/a	"fixation"	n/a	n/a	n/a	n/a	"NULL"	n/a	"NULL"	"NULL"	"NULL"	"<p style=\"color: black; font-size: 80px; padding-left: 44%; padding-right: 7%; padding-top: 18%; padding-bottom: 21%\">+</p>"	"1073"	n/a	n/a	n/a	n/a	n/a	n/a	n/a	n/a	n/a
n/a	"image-keyboard-response"	"16"	"171563"	"0.0-4.0-1.0-2.0-1.4"	"stvc9h"	"600"	"1366"	"chrome"	"109.0.0"	"FALSE"	"Windows 10"	"60.65"	"027"	n/a	n/a	n/a	n/a	n/a	n/a	"Trial"	n/a	n/a	n/a	"776"	"arrowright"	n/a	"NULL"	"NULL"	"NULL"	"stimuli/Ebbinghaus_0000000_-1.4000.png"	n/a	"Ebbinghaus"	"arrowright"	"1095"	"TRUE"	"Ebbinghaus"	"000000000000"	"-1.400000000"	"1"	"5"
n/a	"html-keyboard-response"	"17"	"172797"	"0.0-4.0-1.0-2.0-0.5"	"stvc9h"	"600"	"1366"	"chrome"	"109.0.0"	"FALSE"	"Windows 10"	"60.65"	"027"	n/a	n/a	n/a	n/a	n/a	n/a	"fixation"	n/a	n/a	n/a	n/a	"NULL"	n/a	"NULL"	"NULL"	"NULL"	"<p style=\"color: black; font-size: 80px; padding-left: 30%; padding-right: 2%; padding-top: 11%; padding-bottom: 15%\">+</p>"	"1217"	n/a	n/a	n/a	n/a	n/a	n/a	n/a	n/a	n/a
n/a	"image-keyboard-response"	"18"	"173630"	"0.0-4.0-1.0-2.0-1.5"	"stvc9h"	"600"	"1366"	"chrome"	"109.0.0"	"FALSE"	"Windows 10"	"60.65"	"027"	n/a	n/a	n/a	n/a	n/a	n/a	"Trial"	n/a	n/a	n/a	"832"	"arrowleft"	n/a	"NULL"	"NULL"	"NULL"	"stimuli/Ebbinghaus_1000000_1.40000.png"	n/a	"Ebbinghaus"	"arrowleft"	"1234"	"TRUE"	"Ebbinghaus"	"100000000000"	"1.4000000000"	"1"	"6"
n/a	"html-button-response"	"19"	"177407"	"0.0-4.0-1.0-3.0"	"stvc9h"	"600"	"1366"	"chrome"	"109.0.0"	"FALSE"	"Windows 10"	"60.65"	"027"	n/a	n/a	n/a	n/a	n/a	n/a	"practice_block_results"	n/a	n/a	n/a	"3775"	"0"	n/a	"NULL"	"NULL"	"NULL"	"<p style='color:rgb(76,175,80);'> Correct Responses: <b>100.00%</b></p><hr><p style='color:rgb(233,30,99);'> Average Response Time: <b>727.17</b> ms.</p>"	n/a	n/a	n/a	n/a	n/a	n/a	n/a	n/a	n/a	n/a
"TRUE"	"preload"	"20"	"177943"	"0.0-4.0-2.0-0.0"	"stvc9h"	"600"	"1366"	"chrome"	"109.0.0"	"FALSE"	"Windows 10"	"60.65"	"027"	n/a	n/a	n/a	n/a	n/a	n/a	n/a	n/a	n/a	n/a	n/a	"NULL"	"FALSE"	"list()"	"list()"	"list()"	n/a	n/a	n/a	n/a	n/a	n/a	n/a	n/a	n/a	n/a	n/a
n/a	"html-keyboard-response"	"21"	"186343"	"0.0-4.0-2.0-1.0"	"stvc9h"	"600"	"1366"	"chrome"	"109.0.0"	"FALSE"	"Windows 10"	"60.65"	"027"	n/a	n/a	n/a	n/a	n/a	n/a	n/a	n/a	n/a	n/a	"8399"	"enter"	n/a	"NULL"	"NULL"	"NULL"	"<p><b>Practice</b></p><p>In this part, two horizontal red lines will appear one above the other.</p><p>Your task is to select which <b>line is longer</b> in length as fast as you can, without making errors.</p><p>Don't get distracted by the surrounding black arrows at the end of the red lines!</p><p>Press <b>the UP or the DOWN arrow</b> to indicate where is the longer <b>red line.</b></p><div style='float: center'><img src='materials/instructions/MullerLyer_Demo.png' height='300'></img><p><img src='utils/answer/answer_updown_keyboard.PNG' height='150'></img></p><p class='small'>In this example, the correct answer is the <b>UP arrow</b>.</p></div><p>Are you ready? <b>Press ENTER to start</b></p>"	n/a	n/a	n/a	n/a	n/a	n/a	n/a	n/a	n/a	n/a
n/a	"html-keyboard-response"	"22"	"187957"	"0.0-4.0-2.0-2.0-0.0"	"stvc9h"	"600"	"1366"	"chrome"	"109.0.0"	"FALSE"	"Windows 10"	"60.65"	"027"	n/a	n/a	n/a	n/a	n/a	n/a	"fixation"	n/a	n/a	n/a	n/a	"NULL"	n/a	"NULL"	"NULL"	"NULL"	"<p style=\"color: black; font-size: 80px; padding-left: 22%; padding-right: 24%; padding-top: 16%; padding-bottom: 7%\">+</p>"	"1084"	n/a	n/a	n/a	n/a	n/a	n/a	n/a	n/a	n/a
n/a	"image-keyboard-response"	"23"	"188979"	"0.0-4.0-2.0-2.0-1.0"	"stvc9h"	"600"	"1366"	"chrome"	"109.0.0"	"FALSE"	"Windows 10"	"60.65"	"027"	n/a	n/a	n/a	n/a	n/a	n/a	"Trial"	n/a	n/a	n/a	"1021"	"arrowdown"	n/a	"NULL"	"NULL"	"NULL"	"stimuli/MullerLyer_0000000_-0.7000.png"	n/a	"MullerLyer"	"arrowdown"	"1614"	"TRUE"	"MullerLyer"	"000000000000"	"-0.700000000"	"1"	"7"
n/a	"html-keyboard-response"	"24"	"190408"	"0.0-4.0-2.0-2.0-0.1"	"stvc9h"	"600"	"1366"	"chrome"	"109.0.0"	"FALSE"	"Windows 10"	"60.65"	"027"	n/a	n/a	n/a	n/a	n/a	n/a	"fixation"	n/a	n/a	n/a	n/a	"NULL"	n/a	"NULL"	"NULL"	"NULL"	"<p style=\"color: black; font-size: 80px; padding-left: 4%; padding-right: 13%; padding-top: 45%; padding-bottom: 26%\">+</p>"	"1410"	n/a	n/a	n/a	n/a	n/a	n/a	n/a	n/a	n/a
n/a	"image-keyboard-response"	"25"	"191218"	"0.0-4.0-2.0-2.0-1.1"	"stvc9h"	"600"	"1366"	"chrome"	"109.0.0"	"FALSE"	"Windows 10"	"60.65"	"027"	n/a	n/a	n/a	n/a	n/a	n/a	"Trial"	n/a	n/a	n/a	"809"	"arrowdown"	n/a	"NULL"	"NULL"	"NULL"	"stimuli/MullerLyer_2300000_-0.7000.png"	n/a	"MullerLyer"	"arrowdown"	"1429"	"TRUE"	"MullerLyer"	"230000000000"	"-0.700000000"	"1"	"8"
n/a	"html-keyboard-response"	"26"	"192282"	"0.0-4.0-2.0-2.0-0.2"	"stvc9h"	"600"	"1366"	"chrome"	"109.0.0"	"FALSE"	"Windows 10"	"60.65"	"027"	n/a	n/a	n/a	n/a	n/a	n/a	"fixation"	n/a	n/a	n/a	n/a	"NULL"	n/a	"NULL"	"NULL"	"NULL"	"<p style=\"color: black; font-size: 80px; padding-left: 8%; padding-right: 37%; padding-top: 34%; padding-bottom: 9%\">+</p>"	"1045"	n/a	n/a	n/a	n/a	n/a	n/a	n/a	n/a	n/a
n/a	"image-keyboard-response"	"27"	"193282"	"0.0-4.0-2.0-2.0-1.2"	"stvc9h"	"600"	"1366"	"chrome"	"109.0.0"	"FALSE"	"Windows 10"	"60.65"	"027"	n/a	n/a	n/a	n/a	n/a	n/a	"Trial"	n/a	n/a	n/a	"1000"	"arrowup"	n/a	"NULL"	"NULL"	"NULL"	"stimuli/MullerLyer_-230000_0.70000.png"	n/a	"MullerLyer"	"arrowup"	"1064"	"TRUE"	"MullerLyer"	"-23000000000"	"0.7000000000"	"1"	"9"
n/a	"html-keyboard-response"	"28"	"194381"	"0.0-4.0-2.0-2.0-0.3"	"stvc9h"	"600"	"1366"	"chrome"	"109.0.0"	"FALSE"	"Windows 10"	"60.65"	"027"	n/a	n/a	n/a	n/a	n/a	n/a	"fixation"	n/a	n/a	n/a	n/a	"NULL"	n/a	"NULL"	"NULL"	"NULL"	"<p style=\"color: black; font-size: 80px; padding-left: 31%; padding-right: 4%; padding-top: 44%; padding-bottom: 49%\">+</p>"	"1097"	n/a	n/a	n/a	n/a	n/a	n/a	n/a	n/a	n/a
n/a	"image-keyboard-response"	"29"	"195023"	"0.0-4.0-2.0-2.0-1.3"	"stvc9h"	"600"	"1366"	"chrome"	"109.0.0"	"FALSE"	"Windows 10"	"60.65"	"027"	n/a	n/a	n/a	n/a	n/a	n/a	"Trial"	n/a	n/a	n/a	"641"	"arrowup"	n/a	"NULL"	"NULL"	"NULL"	"stimuli/MullerLyer_0000000_0.70000.png"	n/a	"MullerLyer"	"arrowup"	"1099"	"TRUE"	"MullerLyer"	"000000000000"	"0.7000000000"	"1"	"10"
n/a	"html-keyboard-response"	"30"	"196502"	"0.0-4.0-2.0-2.0-0.4"	"stvc9h"	"600"	"1366"	"chrome"	"109.0.0"	"FALSE"	"Windows 10"	"60.65"	"027"	n/a	n/a	n/a	n/a	n/a	n/a	"fixation"	n/a	n/a	n/a	n/a	"NULL"	n/a	"NULL"	"NULL"	"NULL"	"<p style=\"color: black; font-size: 80px; padding-left: 18%; padding-right: 8%; padding-top: 23%; padding-bottom: 6%\">+</p>"	"1472"	n/a	n/a	n/a	n/a	n/a	n/a	n/a	n/a	n/a
n/a	"image-keyboard-response"	"31"	"197303"	"0.0-4.0-2.0-2.0-1.4"	"stvc9h"	"600"	"1366"	"chrome"	"109.0.0"	"FALSE"	"Windows 10"	"60.65"	"027"	n/a	n/a	n/a	n/a	n/a	n/a	"Trial"	n/a	n/a	n/a	"801"	"arrowdown"	n/a	"NULL"	"NULL"	"NULL"	"stimuli/MullerLyer_-230000_-0.7000.png"	n/a	"MullerLyer"	"arrowdown"	"1479"	"TRUE"	"MullerLyer"	"-23000000000"	"-0.700000000"	"1"	"11"
n/a	"html-keyboard-response"	"32"	"198617"	"0.0-4.0-2.0-2.0-0.5"	"stvc9h"	"600"	"1366"	"chrome"	"109.0.0"	"FALSE"	"Windows 10"	"60.65"	"027"	n/a	n/a	n/a	n/a	n/a	n/a	"fixation"	n/a	n/a	n/a	n/a	"NULL"	n/a	"NULL"	"NULL"	"NULL"	"<p style=\"color: black; font-size: 80px; padding-left: 37%; padding-right: 24%; padding-top: 44%; padding-bottom: 21%\">+</p>"	"1295"	n/a	n/a	n/a	n/a	n/a	n/a	n/a	n/a	n/a
n/a	"image-keyboard-response"	"33"	"199294"	"0.0-4.0-2.0-2.0-1.5"	"stvc9h"	"600"	"1366"	"chrome"	"109.0.0"	"FALSE"	"Windows 10"	"60.65"	"027"	n/a	n/a	n/a	n/a	n/a	n/a	"Trial"	n/a	n/a	n/a	"676"	"arrowup"	n/a	"NULL"	"NULL"	"NULL"	"stimuli/MullerLyer_2300000_0.70000.png"	n/a	"MullerLyer"	"arrowup"	"1314"	"TRUE"	"MullerLyer"	"230000000000"	"0.7000000000"	"1"	"12"
n/a	"html-button-response"	"34"	"201151"	"0.0-4.0-2.0-3.0"	"stvc9h"	"600"	"1366"	"chrome"	"109.0.0"	"FALSE"	"Windows 10"	"60.65"	"027"	n/a	n/a	n/a	n/a	n/a	n/a	"practice_block_results"	n/a	n/a	n/a	"1853"	"0"	n/a	"NULL"	"NULL"	"NULL"	"<p style='color:rgb(76,175,80);'> Correct Responses: <b>100.00%</b></p><hr><p style='color:rgb(233,30,99);'> Average Response Time: <b>824.67</b> ms.</p>"	n/a	n/a	n/a	n/a	n/a	n/a	n/a	n/a	n/a	n/a
"TRUE"	"preload"	"35"	"201684"	"0.0-4.0-3.0-0.0"	"stvc9h"	"600"	"1366"	"chrome"	"109.0.0"	"FALSE"	"Windows 10"	"60.65"	"027"	n/a	n/a	n/a	n/a	n/a	n/a	n/a	n/a	n/a	n/a	n/a	"NULL"	"FALSE"	"list()"	"list()"	"list()"	n/a	n/a	n/a	n/a	n/a	n/a	n/a	n/a	n/a	n/a	n/a
n/a	"html-keyboard-response"	"36"	"207202"	"0.0-4.0-3.0-1.0"	"stvc9h"	"600"	"1366"	"chrome"	"109.0.0"	"FALSE"	"Windows 10"	"60.65"	"027"	n/a	n/a	n/a	n/a	n/a	n/a	n/a	n/a	n/a	n/a	"5517"	"enter"	n/a	"NULL"	"NULL"	"NULL"	"<p><b>Practice</b></p><p>In this part, two red lines will appear side by side.</p><p>Your task is to tell <b>which line is longer</b> in length, regardless of their orientation, as fast as you can, and without making errors.</p><p>Don't get distracted by the orientation of the lines!</p><p>Press <b>the LEFT or the RIGHT arrow</b> to indicate which <b>line is the longer one.</b></p><div style='float: center'><img src='materials/instructions/VerticalHorizontal_Demo.png' height='300'></img><p><img src='utils/answer/answer_leftright_keyboard.PNG' height='150'></img></p><p class='small'>In this example, the correct answer is the <b>LEFT arrow</b>.</p></div><p>Are you ready? <b>Press ENTER to start</b></p>"	n/a	n/a	n/a	n/a	n/a	n/a	n/a	n/a	n/a	n/a
n/a	"html-keyboard-response"	"37"	"208757"	"0.0-4.0-3.0-2.0-0.0"	"stvc9h"	"600"	"1366"	"chrome"	"109.0.0"	"FALSE"	"Windows 10"	"60.65"	"027"	n/a	n/a	n/a	n/a	n/a	n/a	"fixation"	n/a	n/a	n/a	n/a	"NULL"	n/a	"NULL"	"NULL"	"NULL"	"<p style=\"color: black; font-size: 80px; padding-left: 35%; padding-right: 17%; padding-top: 47%; padding-bottom: 35%\">+</p>"	"1025"	n/a	n/a	n/a	n/a	n/a	n/a	n/a	n/a	n/a
n/a	"image-keyboard-response"	"38"	"209140"	"0.0-4.0-3.0-2.0-1.0"	"stvc9h"	"600"	"1366"	"chrome"	"109.0.0"	"FALSE"	"Windows 10"	"60.65"	"027"	n/a	n/a	n/a	n/a	n/a	n/a	"Trial"	n/a	n/a	n/a	"382"	"arrowright"	n/a	"NULL"	"NULL"	"NULL"	"stimuli/VerticalHorizontal_3300000_0.90000.png"	n/a	"VerticalHorizontal"	"arrowleft"	"1555"	"FALSE"	"VerticalHorizontal"	"330000000000"	"0.9000000000"	"1"	"13"
n/a	"html-keyboard-response"	"39"	"210562"	"0.0-4.0-3.0-2.0-0.1"	"stvc9h"	"600"	"1366"	"chrome"	"109.0.0"	"FALSE"	"Windows 10"	"60.65"	"027"	n/a	n/a	n/a	n/a	n/a	n/a	"fixation"	n/a	n/a	n/a	n/a	"NULL"	n/a	"NULL"	"NULL"	"NULL"	"<p style=\"color: black; font-size: 80px; padding-left: 11%; padding-right: 39%; padding-top: 45%; padding-bottom: 12%\">+</p>"	"1400"	n/a	n/a	n/a	n/a	n/a	n/a	n/a	n/a	n/a
n/a	"image-keyboard-response"	"40"	"211038"	"0.0-4.0-3.0-2.0-1.1"	"stvc9h"	"600"	"1366"	"chrome"	"109.0.0"	"FALSE"	"Windows 10"	"60.65"	"027"	n/a	n/a	n/a	n/a	n/a	n/a	"Trial"	n/a	n/a	n/a	"475"	"arrowleft"	n/a	"NULL"	"NULL"	"NULL"	"stimuli/VerticalHorizontal_-330000_0.90000.png"	n/a	"VerticalHorizontal"	"arrowleft"	"1422"	"TRUE"	"VerticalHorizontal"	"-33000000000"	"0.9000000000"	"1"	"14"
n/a	"html-keyboard-response"	"41"	"212202"	"0.0-4.0-3.0-2.0-0.2"	"stvc9h"	"600"	"1366"	"chrome"	"109.0.0"	"FALSE"	"Windows 10"	"60.65"	"027"	n/a	n/a	n/a	n/a	n/a	n/a	"fixation"	n/a	n/a	n/a	n/a	"NULL"	n/a	"NULL"	"NULL"	"NULL"	"<p style=\"color: black; font-size: 80px; padding-left: 44%; padding-right: 39%; padding-top: 26%; padding-bottom: 34%\">+</p>"	"1150"	n/a	n/a	n/a	n/a	n/a	n/a	n/a	n/a	n/a
n/a	"image-keyboard-response"	"42"	"212842"	"0.0-4.0-3.0-2.0-1.2"	"stvc9h"	"600"	"1366"	"chrome"	"109.0.0"	"FALSE"	"Windows 10"	"60.65"	"027"	n/a	n/a	n/a	n/a	n/a	n/a	"Trial"	n/a	n/a	n/a	"638"	"arrowright"	n/a	"NULL"	"NULL"	"NULL"	"stimuli/VerticalHorizontal_-330000_-0.9000.png"	n/a	"VerticalHorizontal"	"arrowright"	"1164"	"TRUE"	"VerticalHorizontal"	"-33000000000"	"-0.900000000"	"1"	"15"
n/a	"html-keyboard-response"	"43"	"214276"	"0.0-4.0-3.0-2.0-0.3"	"stvc9h"	"600"	"1366"	"chrome"	"109.0.0"	"FALSE"	"Windows 10"	"60.65"	"027"	n/a	n/a	n/a	n/a	n/a	n/a	"fixation"	n/a	n/a	n/a	n/a	"NULL"	n/a	"NULL"	"NULL"	"NULL"	"<p style=\"color: black; font-size: 80px; padding-left: 17%; padding-right: 17%; padding-top: 33%; padding-bottom: 8%\">+</p>"	"1426"	n/a	n/a	n/a	n/a	n/a	n/a	n/a	n/a	n/a
n/a	"image-keyboard-response"	"44"	"214880"	"0.0-4.0-3.0-2.0-1.3"	"stvc9h"	"600"	"1366"	"chrome"	"109.0.0"	"FALSE"	"Windows 10"	"60.65"	"027"	n/a	n/a	n/a	n/a	n/a	n/a	"Trial"	n/a	n/a	n/a	"603"	"arrowright"	n/a	"NULL"	"NULL"	"NULL"	"stimuli/VerticalHorizontal_0000000_-0.9000.png"	n/a	"VerticalHorizontal"	"arrowright"	"1434"	"TRUE"	"VerticalHorizontal"	"000000000000"	"-0.900000000"	"1"	"16"
n/a	"html-keyboard-response"	"45"	"216158"	"0.0-4.0-3.0-2.0-0.4"	"stvc9h"	"600"	"1366"	"chrome"	"109.0.0"	"FALSE"	"Windows 10"	"60.65"	"027"	n/a	n/a	n/a	n/a	n/a	n/a	"fixation"	n/a	n/a	n/a	n/a	"NULL"	n/a	"NULL"	"NULL"	"NULL"	"<p style=\"color: black; font-size: 80px; padding-left: 5%; padding-right: 37%; padding-top: 44%; padding-bottom: 45%\">+</p>"	"1267"	n/a	n/a	n/a	n/a	n/a	n/a	n/a	n/a	n/a
n/a	"image-keyboard-response"	"46"	"216862"	"0.0-4.0-3.0-2.0-1.4"	"stvc9h"	"600"	"1366"	"chrome"	"109.0.0"	"FALSE"	"Windows 10"	"60.65"	"027"	n/a	n/a	n/a	n/a	n/a	n/a	"Trial"	n/a	n/a	n/a	"703"	"arrowright"	n/a	"NULL"	"NULL"	"NULL"	"stimuli/VerticalHorizontal_3300000_-0.9000.png"	n/a	"VerticalHorizontal"	"arrowright"	"1278"	"TRUE"	"VerticalHorizontal"	"330000000000"	"-0.900000000"	"1"	"17"
n/a	"html-keyboard-response"	"47"	"217952"	"0.0-4.0-3.0-2.0-0.5"	"stvc9h"	"600"	"1366"	"chrome"	"109.0.0"	"FALSE"	"Windows 10"	"60.65"	"027"	n/a	n/a	n/a	n/a	n/a	n/a	"fixation"	n/a	n/a	n/a	n/a	"NULL"	n/a	"NULL"	"NULL"	"NULL"	"<p style=\"color: black; font-size: 80px; padding-left: 24%; padding-right: 13%; padding-top: 0%; padding-bottom: 23%\">+</p>"	"1073"	n/a	n/a	n/a	n/a	n/a	n/a	n/a	n/a	n/a
n/a	"image-keyboard-response"	"48"	"218451"	"0.0-4.0-3.0-2.0-1.5"	"stvc9h"	"600"	"1366"	"chrome"	"109.0.0"	"FALSE"	"Windows 10"	"60.65"	"027"	n/a	n/a	n/a	n/a	n/a	n/a	"Trial"	n/a	n/a	n/a	"497"	"arrowleft"	n/a	"NULL"	"NULL"	"NULL"	"stimuli/VerticalHorizontal_0000000_0.90000.png"	n/a	"VerticalHorizontal"	"arrowleft"	"1090"	"TRUE"	"VerticalHorizontal"	"000000000000"	"0.9000000000"	"1"	"18"
n/a	"html-button-response"	"49"	"221508"	"0.0-4.0-3.0-3.0"	"stvc9h"	"600"	"1366"	"chrome"	"109.0.0"	"FALSE"	"Windows 10"	"60.65"	"027"	n/a	n/a	n/a	n/a	n/a	n/a	"practice_block_results"	n/a	n/a	n/a	"3057"	"0"	n/a	"NULL"	"NULL"	"NULL"	"<p style='color:rgb(76,175,80);'> Correct Responses: <b>83.33%</b></p><hr><p style='color:rgb(233,30,99);'> Average Response Time: <b>549.67</b> ms.</p>"	n/a	n/a	n/a	n/a	n/a	n/a	n/a	n/a	n/a	n/a
n/a	"html-button-response"	"50"	"327270"	"0.0-4.0-4.0"	"stvc9h"	"600"	"1366"	"chrome"	"109.0.0"	"FALSE"	"Windows 10"	"60.65"	"027"	n/a	n/a	n/a	n/a	n/a	n/a	"practice_debrief"	n/a	n/a	n/a	"105247"	"0"	n/a	"NULL"	"NULL"	"NULL"	"<p><b>TRAINING COMPLETED</b></p><p>In the next phase, there will be more trials, and some might be harder too.<br> Moreover, after each illusion block, a <b>score</b> will be calculated based on speed (time you took to answer) and accuracy (number of errors).</p><p>Try to keep up a high score!</p><br><p>Note that it can be <i>really</i> challenging at times, so you will need to rely on your <b>intuition</b> and gut feeling to answer as fast as you can without making errors.</p><p>Each illusion block will be repeated two times (so that you have the opportunity to improve your score), but the order of the blocks is random.</p><p>Remember, your goal is to be as <b>fast</b> and <b>accurate</b> as possible. Good luck!</p><br>"	n/a	n/a	n/a	n/a	n/a	n/a	n/a	n/a	n/a	n/a
"TRUE"	"preload"	"51"	"327462"	"0.0-5.0-0.0"	"stvc9h"	"600"	"1366"	"chrome"	"109.0.0"	"FALSE"	"Windows 10"	"60.65"	"027"	n/a	n/a	n/a	n/a	n/a	n/a	n/a	n/a	n/a	n/a	n/a	"NULL"	"FALSE"	"list()"	"list()"	"list()"	n/a	n/a	n/a	n/a	n/a	n/a	n/a	n/a	n/a	n/a	n/a
n/a	"html-keyboard-response"	"52"	"331867"	"0.0-5.0-1.0"	"stvc9h"	"600"	"1366"	"chrome"	"109.0.0"	"FALSE"	"Windows 10"	"60.65"	"027"	n/a	n/a	n/a	n/a	n/a	n/a	n/a	n/a	n/a	n/a	"4404"	"enter"	n/a	"NULL"	"NULL"	"NULL"	"<p><b>Part 1/6</b></p><p>In this part, two horizontal red lines will appear one above the other.</p><p>Your task is to select which <b>line is longer</b> in length as fast as you can, without making errors.</p><p>Don't get distracted by the surrounding black arrows at the end of the red lines!</p><p>Press <b>the UP or the DOWN arrow</b> to indicate where is the longer <b>red line.</b></p><div style='float: center'><img src='materials/instructions/MullerLyer_Demo.png' height='300'></img><p><img src='utils/answer/answer_updown_keyboard.PNG' height='150'></img></p><p class='small'>In this example, the correct answer is the <b>UP arrow</b>.</p></div><p>Are you ready? <b>Press ENTER to start</b></p>"	n/a	n/a	n/a	n/a	n/a	n/a	n/a	n/a	n/a	n/a
n/a	"html-keyboard-response"	"53"	"333812"	"0.0-5.0-2.0-0.0"	"stvc9h"	"600"	"1366"	"chrome"	"109.0.0"	"FALSE"	"Windows 10"	"60.65"	"027"	n/a	n/a	n/a	n/a	n/a	n/a	"fixation"	n/a	n/a	n/a	n/a	"NULL"	n/a	"NULL"	"NULL"	"NULL"	"<p style=\"color: black; font-size: 80px; padding-left: 26%; padding-right: 1%; padding-top: 16%; padding-bottom: 39%\">+</p>"	"1421"	n/a	n/a	n/a	n/a	n/a	n/a	n/a	n/a	n/a
n/a	"image-keyboard-response"	"54"	"334438"	"0.0-5.0-2.0-1.0"	"stvc9h"	"600"	"1366"	"chrome"	"109.0.0"	"FALSE"	"Windows 10"	"60.65"	"027"	n/a	n/a	n/a	n/a	n/a	n/a	"Trial"	n/a	n/a	n/a	"625"	"arrowdown"	n/a	"NULL"	"NULL"	"NULL"	"stimuli/MullerLyer_-14.12857_-0.3500.png"	n/a	"MullerLyer"	"arrowdown"	"1945"	"TRUE"	"MullerLyer"	"-14.12857000"	"-0.350000000"	"1"	"19"
n/a	"html-keyboard-response"	"55"	"335642"	"0.0-5.0-2.0-0.1"	"stvc9h"	"600"	"1366"	"chrome"	"109.0.0"	"FALSE"	"Windows 10"	"60.65"	"027"	n/a	n/a	n/a	n/a	n/a	n/a	"fixation"	n/a	n/a	n/a	n/a	"NULL"	n/a	"NULL"	"NULL"	"NULL"	"<p style=\"color: black; font-size: 80px; padding-left: 28%; padding-right: 18%; padding-top: 39%; padding-bottom: 29%\">+</p>"	"1188"	n/a	n/a	n/a	n/a	n/a	n/a	n/a	n/a	n/a
n/a	"image-keyboard-response"	"56"	"336546"	"0.0-5.0-2.0-1.1"	"stvc9h"	"600"	"1366"	"chrome"	"109.0.0"	"FALSE"	"Windows 10"	"60.65"	"027"	n/a	n/a	n/a	n/a	n/a	n/a	"Trial"	n/a	n/a	n/a	"903"	"arrowdown"	n/a	"NULL"	"NULL"	"NULL"	"stimuli/MullerLyer_8.21429_-0.3500.png"	n/a	"MullerLyer"	"arrowdown"	"1204"	"TRUE"	"MullerLyer"	"8.2142900000"	"-0.350000000"	"1"	"20"
n/a	"html-keyboard-response"	"57"	"337688"	"0.0-5.0-2.0-0.2"	"stvc9h"	"600"	"1366"	"chrome"	"109.0.0"	"FALSE"	"Windows 10"	"60.65"	"027"	n/a	n/a	n/a	n/a	n/a	n/a	"fixation"	n/a	n/a	n/a	n/a	"NULL"	n/a	"NULL"	"NULL"	"NULL"	"<p style=\"color: black; font-size: 80px; padding-left: 0%; padding-right: 28%; padding-top: 10%; padding-bottom: 44%\">+</p>"	"1126"	n/a	n/a	n/a	n/a	n/a	n/a	n/a	n/a	n/a
n/a	"image-keyboard-response"	"58"	"338263"	"0.0-5.0-2.0-1.2"	"stvc9h"	"600"	"1366"	"chrome"	"109.0.0"	"FALSE"	"Windows 10"	"60.65"	"027"	n/a	n/a	n/a	n/a	n/a	n/a	"Trial"	n/a	n/a	n/a	"574"	"arrowup"	n/a	"NULL"	"NULL"	"NULL"	"stimuli/MullerLyer_-2.3000_0.14541.png"	n/a	"MullerLyer"	"arrowup"	"1142"	"TRUE"	"MullerLyer"	"-2.300000000"	"0.1454100000"	"1"	"21"
n/a	"html-keyboard-response"	"59"	"339510"	"0.0-5.0-2.0-0.3"	"stvc9h"	"600"	"1366"	"chrome"	"109.0.0"	"FALSE"	"Windows 10"	"60.65"	"027"	n/a	n/a	n/a	n/a	n/a	n/a	"fixation"	n/a	n/a	n/a	n/a	"NULL"	n/a	"NULL"	"NULL"	"NULL"	"<p style=\"color: black; font-size: 80px; padding-left: 44%; padding-right: 27%; padding-top: 15%; padding-bottom: 32%\">+</p>"	"1235"	n/a	n/a	n/a	n/a	n/a	n/a	n/a	n/a	n/a
n/a	"image-keyboard-response"	"60"	"340473"	"0.0-5.0-2.0-1.3"	"stvc9h"	"600"	"1366"	"chrome"	"109.0.0"	"FALSE"	"Windows 10"	"60.65"	"027"	n/a	n/a	n/a	n/a	n/a	n/a	"Trial"	n/a	n/a	n/a	"963"	"arrowup"	n/a	"NULL"	"NULL"	"NULL"	"stimuli/MullerLyer_8.21429_0.14541.png"	n/a	"MullerLyer"	"arrowup"	"1247"	"TRUE"	"MullerLyer"	"8.2142900000"	"0.1454100000"	"1"	"22"
n/a	"html-keyboard-response"	"61"	"341535"	"0.0-5.0-2.0-0.4"	"stvc9h"	"600"	"1366"	"chrome"	"109.0.0"	"FALSE"	"Windows 10"	"60.65"	"027"	n/a	n/a	n/a	n/a	n/a	n/a	"fixation"	n/a	n/a	n/a	n/a	"NULL"	n/a	"NULL"	"NULL"	"NULL"	"<p style=\"color: black; font-size: 80px; padding-left: 21%; padding-right: 2%; padding-top: 44%; padding-bottom: 48%\">+</p>"	"1052"	n/a	n/a	n/a	n/a	n/a	n/a	n/a	n/a	n/a
n/a	"image-keyboard-response"	"62"	"342198"	"0.0-5.0-2.0-1.4"	"stvc9h"	"600"	"1366"	"chrome"	"109.0.0"	"FALSE"	"Windows 10"	"60.65"	"027"	n/a	n/a	n/a	n/a	n/a	n/a	"Trial"	n/a	n/a	n/a	"662"	"arrowdown"	n/a	"NULL"	"NULL"	"NULL"	"stimuli/MullerLyer_20.04286_0.14541.png"	n/a	"MullerLyer"	"arrowup"	"1062"	"FALSE"	"MullerLyer"	"20.042860000"	"0.1454100000"	"1"	"23"
n/a	"html-keyboard-response"	"63"	"343659"	"0.0-5.0-2.0-0.5"	"stvc9h"	"600"	"1366"	"chrome"	"109.0.0"	"FALSE"	"Windows 10"	"60.65"	"027"	n/a	n/a	n/a	n/a	n/a	n/a	"fixation"	n/a	n/a	n/a	n/a	"NULL"	n/a	"NULL"	"NULL"	"NULL"	"<p style=\"color: black; font-size: 80px; padding-left: 18%; padding-right: 1%; padding-top: 2%; padding-bottom: 36%\">+</p>"	"1447"	n/a	n/a	n/a	n/a	n/a	n/a	n/a	n/a	n/a
n/a	"image-keyboard-response"	"64"	"344465"	"0.0-5.0-2.0-1.5"	"stvc9h"	"600"	"1366"	"chrome"	"109.0.0"	"FALSE"	"Windows 10"	"60.65"	"027"	n/a	n/a	n/a	n/a	n/a	n/a	"Trial"	n/a	n/a	n/a	"806"	"arrowdown"	n/a	"NULL"	"NULL"	"NULL"	"stimuli/MullerLyer_2.30000_-0.14541.png"	n/a	"MullerLyer"	"arrowdown"	"1461"	"TRUE"	"MullerLyer"	"2.3000000000"	"-0.145410000"	"1"	"24"
n/a	"html-keyboard-response"	"65"	"345754"	"0.0-5.0-2.0-0.6"	"stvc9h"	"600"	"1366"	"chrome"	"109.0.0"	"FALSE"	"Windows 10"	"60.65"	"027"	n/a	n/a	n/a	n/a	n/a	n/a	"fixation"	n/a	n/a	n/a	n/a	"NULL"	n/a	"NULL"	"NULL"	"NULL"	"<p style=\"color: black; font-size: 80px; padding-left: 37%; padding-right: 25%; padding-top: 48%; padding-bottom: 12%\">+</p>"	"1280"	n/a	n/a	n/a	n/a	n/a	n/a	n/a	n/a	n/a
n/a	"image-keyboard-response"	"66"	"346896"	"0.0-5.0-2.0-1.6"	"stvc9h"	"600"	"1366"	"chrome"	"109.0.0"	"FALSE"	"Windows 10"	"60.65"	"027"	n/a	n/a	n/a	n/a	n/a	n/a	"Trial"	n/a	n/a	n/a	"1141"	"arrowdown"	n/a	"NULL"	"NULL"	"NULL"	"stimuli/MullerLyer_14.12857_-0.23665.png"	n/a	"MullerLyer"	"arrowdown"	"1289"	"TRUE"	"MullerLyer"	"14.128570000"	"-0.236650000"	"1"	"25"
n/a	"html-keyboard-response"	"67"	"348002"	"0.0-5.0-2.0-0.7"	"stvc9h"	"600"	"1366"	"chrome"	"109.0.0"	"FALSE"	"Windows 10"	"60.65"	"027"	n/a	n/a	n/a	n/a	n/a	n/a	"fixation"	n/a	n/a	n/a	n/a	"NULL"	n/a	"NULL"	"NULL"	"NULL"	"<p style=\"color: black; font-size: 80px; padding-left: 14%; padding-right: 30%; padding-top: 25%; padding-bottom: 17%\">+</p>"	"1099"	n/a	n/a	n/a	n/a	n/a	n/a	n/a	n/a	n/a
n/a	"image-keyboard-response"	"68"	"349147"	"0.0-5.0-2.0-1.7"	"stvc9h"	"600"	"1366"	"chrome"	"109.0.0"	"FALSE"	"Windows 10"	"60.65"	"027"	n/a	n/a	n/a	n/a	n/a	n/a	"Trial"	n/a	n/a	n/a	"1144"	"arrowdown"	n/a	"NULL"	"NULL"	"NULL"	"stimuli/MullerLyer_-14.12857_-0.07627.png"	n/a	"MullerLyer"	"arrowdown"	"1106"	"TRUE"	"MullerLyer"	"-14.12857000"	"-0.076270000"	"1"	"26"
n/a	"html-keyboard-response"	"69"	"350314"	"0.0-5.0-2.0-0.8"	"stvc9h"	"600"	"1366"	"chrome"	"109.0.0"	"FALSE"	"Windows 10"	"60.65"	"027"	n/a	n/a	n/a	n/a	n/a	n/a	"fixation"	n/a	n/a	n/a	n/a	"NULL"	n/a	"NULL"	"NULL"	"NULL"	"<p style=\"color: black; font-size: 80px; padding-left: 4%; padding-right: 2%; padding-top: 21%; padding-bottom: 27%\">+</p>"	"1155"	n/a	n/a	n/a	n/a	n/a	n/a	n/a	n/a	n/a
n/a	"image-keyboard-response"	"70"	"351219"	"0.0-5.0-2.0-1.8"	"stvc9h"	"600"	"1366"	"chrome"	"109.0.0"	"FALSE"	"Windows 10"	"60.65"	"027"	n/a	n/a	n/a	n/a	n/a	n/a	"Trial"	n/a	n/a	n/a	"904"	"arrowdown"	n/a	"NULL"	"NULL"	"NULL"	"stimuli/MullerLyer_-20.04286_-0.07627.png"	n/a	"MullerLyer"	"arrowdown"	"1167"	"TRUE"	"MullerLyer"	"-20.04286000"	"-0.076270000"	"1"	"27"
n/a	"html-keyboard-response"	"71"	"352393"	"0.0-5.0-2.0-0.9"	"stvc9h"	"600"	"1366"	"chrome"	"109.0.0"	"FALSE"	"Windows 10"	"60.65"	"027"	n/a	n/a	n/a	n/a	n/a	n/a	"fixation"	n/a	n/a	n/a	n/a	"NULL"	n/a	"NULL"	"NULL"	"NULL"	"<p style=\"color: black; font-size: 80px; padding-left: 34%; padding-right: 19%; padding-top: 29%; padding-bottom: 29%\">+</p>"	"1166"	n/a	n/a	n/a	n/a	n/a	n/a	n/a	n/a	n/a
n/a	"image-keyboard-response"	"72"	"353323"	"0.0-5.0-2.0-1.9"	"stvc9h"	"600"	"1366"	"chrome"	"109.0.0"	"FALSE"	"Windows 10"	"60.65"	"027"	n/a	n/a	n/a	n/a	n/a	n/a	"Trial"	n/a	n/a	n/a	"929"	"arrowdown"	n/a	"NULL"	"NULL"	"NULL"	"stimuli/MullerLyer_14.12857_-0.3500.png"	n/a	"MullerLyer"	"arrowdown"	"1174"	"TRUE"	"MullerLyer"	"14.128570000"	"-0.350000000"	"1"	"28"
n/a	"html-keyboard-response"	"73"	"354832"	"0.0-5.0-2.0-0.10"	"stvc9h"	"600"	"1366"	"chrome"	"109.0.0"	"FALSE"	"Windows 10"	"60.65"	"027"	n/a	n/a	n/a	n/a	n/a	n/a	"fixation"	n/a	n/a	n/a	n/a	"NULL"	n/a	"NULL"	"NULL"	"NULL"	"<p style=\"color: black; font-size: 80px; padding-left: 48%; padding-right: 9%; padding-top: 45%; padding-bottom: 30%\">+</p>"	"1490"	n/a	n/a	n/a	n/a	n/a	n/a	n/a	n/a	n/a
n/a	"image-keyboard-response"	"74"	"355608"	"0.0-5.0-2.0-1.10"	"stvc9h"	"600"	"1366"	"chrome"	"109.0.0"	"FALSE"	"Windows 10"	"60.65"	"027"	n/a	n/a	n/a	n/a	n/a	n/a	"Trial"	n/a	n/a	n/a	"774"	"arrowup"	n/a	"NULL"	"NULL"	"NULL"	"stimuli/MullerLyer_-14.12857_0.07627.png"	n/a	"MullerLyer"	"arrowup"	"1509"	"TRUE"	"MullerLyer"	"-14.12857000"	"0.0762700000"	"1"	"29"
n/a	"html-keyboard-response"	"75"	"356893"	"0.0-5.0-2.0-0.11"	"stvc9h"	"600"	"1366"	"chrome"	"109.0.0"	"FALSE"	"Windows 10"	"60.65"	"027"	n/a	n/a	n/a	n/a	n/a	n/a	"fixation"	n/a	n/a	n/a	n/a	"NULL"	n/a	"NULL"	"NULL"	"NULL"	"<p style=\"color: black; font-size: 80px; padding-left: 14%; padding-right: 34%; padding-top: 25%; padding-bottom: 28%\">+</p>"	"1263"	n/a	n/a	n/a	n/a	n/a	n/a	n/a	n/a	n/a
n/a	"image-keyboard-response"	"76"	"357748"	"0.0-5.0-2.0-1.11"	"stvc9h"	"600"	"1366"	"chrome"	"109.0.0"	"FALSE"	"Windows 10"	"60.65"	"027"	n/a	n/a	n/a	n/a	n/a	n/a	"Trial"	n/a	n/a	n/a	"854"	"arrowup"	n/a	"NULL"	"NULL"	"NULL"	"stimuli/MullerLyer_14.12857_-0.07627.png"	n/a	"MullerLyer"	"arrowdown"	"1285"	"FALSE"	"MullerLyer"	"14.128570000"	"-0.076270000"	"1"	"30"
n/a	"html-keyboard-response"	"77"	"358983"	"0.0-5.0-2.0-0.12"	"stvc9h"	"600"	"1366"	"chrome"	"109.0.0"	"FALSE"	"Windows 10"	"60.65"	"027"	n/a	n/a	n/a	n/a	n/a	n/a	"fixation"	n/a	n/a	n/a	n/a	"NULL"	n/a	"NULL"	"NULL"	"NULL"	"<p style=\"color: black; font-size: 80px; padding-left: 38%; padding-right: 10%; padding-top: 16%; padding-bottom: 32%\">+</p>"	"1226"	n/a	n/a	n/a	n/a	n/a	n/a	n/a	n/a	n/a
n/a	"image-keyboard-response"	"78"	"359911"	"0.0-5.0-2.0-1.12"	"stvc9h"	"600"	"1366"	"chrome"	"109.0.0"	"FALSE"	"Windows 10"	"60.65"	"027"	n/a	n/a	n/a	n/a	n/a	n/a	"Trial"	n/a	n/a	n/a	"927"	"arrowdown"	n/a	"NULL"	"NULL"	"NULL"	"stimuli/MullerLyer_8.21429_-0.23665.png"	n/a	"MullerLyer"	"arrowdown"	"1235"	"TRUE"	"MullerLyer"	"8.2142900000"	"-0.236650000"	"1"	"31"
n/a	"html-keyboard-response"	"79"	"360994"	"0.0-5.0-2.0-0.13"	"stvc9h"	"600"	"1366"	"chrome"	"109.0.0"	"FALSE"	"Windows 10"	"60.65"	"027"	n/a	n/a	n/a	n/a	n/a	n/a	"fixation"	n/a	n/a	n/a	n/a	"NULL"	n/a	"NULL"	"NULL"	"NULL"	"<p style=\"color: black; font-size: 80px; padding-left: 12%; padding-right: 36%; padding-top: 21%; padding-bottom: 1%\">+</p>"	"1062"	n/a	n/a	n/a	n/a	n/a	n/a	n/a	n/a	n/a
n/a	"image-keyboard-response"	"80"	"362150"	"0.0-5.0-2.0-1.13"	"stvc9h"	"600"	"1366"	"chrome"	"109.0.0"	"FALSE"	"Windows 10"	"60.65"	"027"	n/a	n/a	n/a	n/a	n/a	n/a	"Trial"	n/a	n/a	n/a	"1155"	"arrowdown"	n/a	"NULL"	"NULL"	"NULL"	"stimuli/MullerLyer_14.12857_0.07627.png"	n/a	"MullerLyer"	"arrowup"	"1083"	"FALSE"	"MullerLyer"	"14.128570000"	"0.0762700000"	"1"	"32"
n/a	"html-keyboard-response"	"81"	"363328"	"0.0-5.0-2.0-0.14"	"stvc9h"	"600"	"1366"	"chrome"	"109.0.0"	"FALSE"	"Windows 10"	"60.65"	"027"	n/a	n/a	n/a	n/a	n/a	n/a	"fixation"	n/a	n/a	n/a	n/a	"NULL"	n/a	"NULL"	"NULL"	"NULL"	"<p style=\"color: black; font-size: 80px; padding-left: 15%; padding-right: 44%; padding-top: 14%; padding-bottom: 3%\">+</p>"	"1170"	n/a	n/a	n/a	n/a	n/a	n/a	n/a	n/a	n/a
n/a	"image-keyboard-response"	"82"	"364052"	"0.0-5.0-2.0-1.14"	"stvc9h"	"600"	"1366"	"chrome"	"109.0.0"	"FALSE"	"Windows 10"	"60.65"	"027"	n/a	n/a	n/a	n/a	n/a	n/a	"Trial"	n/a	n/a	n/a	"724"	"arrowup"	n/a	"NULL"	"NULL"	"NULL"	"stimuli/MullerLyer_-20.04286_0.23665.png"	n/a	"MullerLyer"	"arrowup"	"1178"	"TRUE"	"MullerLyer"	"-20.04286000"	"0.2366500000"	"1"	"33"
n/a	"html-keyboard-response"	"83"	"365334"	"0.0-5.0-2.0-0.15"	"stvc9h"	"600"	"1366"	"chrome"	"109.0.0"	"FALSE"	"Windows 10"	"60.65"	"027"	n/a	n/a	n/a	n/a	n/a	n/a	"fixation"	n/a	n/a	n/a	n/a	"NULL"	n/a	"NULL"	"NULL"	"NULL"	"<p style=\"color: black; font-size: 80px; padding-left: 22%; padding-right: 29%; padding-top: 31%; padding-bottom: 7%\">+</p>"	"1268"	n/a	n/a	n/a	n/a	n/a	n/a	n/a	n/a	n/a
n/a	"image-keyboard-response"	"84"	"366097"	"0.0-5.0-2.0-1.15"	"stvc9h"	"600"	"1366"	"chrome"	"109.0.0"	"FALSE"	"Windows 10"	"60.65"	"027"	n/a	n/a	n/a	n/a	n/a	n/a	"Trial"	n/a	n/a	n/a	"762"	"arrowdown"	n/a	"NULL"	"NULL"	"NULL"	"stimuli/MullerLyer_-8.21429_-0.3500.png"	n/a	"MullerLyer"	"arrowdown"	"1282"	"TRUE"	"MullerLyer"	"-8.214290000"	"-0.350000000"	"1"	"34"
n/a	"html-keyboard-response"	"85"	"367379"	"0.0-5.0-2.0-0.16"	"stvc9h"	"600"	"1366"	"chrome"	"109.0.0"	"FALSE"	"Windows 10"	"60.65"	"027"	n/a	n/a	n/a	n/a	n/a	n/a	"fixation"	n/a	n/a	n/a	n/a	"NULL"	n/a	"NULL"	"NULL"	"NULL"	"<p style=\"color: black; font-size: 80px; padding-left: 29%; padding-right: 29%; padding-top: 33%; padding-bottom: 25%\">+</p>"	"1264"	n/a	n/a	n/a	n/a	n/a	n/a	n/a	n/a	n/a
n/a	"image-keyboard-response"	"86"	"368389"	"0.0-5.0-2.0-1.16"	"stvc9h"	"600"	"1366"	"chrome"	"109.0.0"	"FALSE"	"Windows 10"	"60.65"	"027"	n/a	n/a	n/a	n/a	n/a	n/a	"Trial"	n/a	n/a	n/a	"1010"	"arrowdown"	n/a	"NULL"	"NULL"	"NULL"	"stimuli/MullerLyer_20.04286_0.07627.png"	n/a	"MullerLyer"	"arrowup"	"1282"	"FALSE"	"MullerLyer"	"20.042860000"	"0.0762700000"	"1"	"35"
n/a	"html-keyboard-response"	"87"	"369469"	"0.0-5.0-2.0-0.17"	"stvc9h"	"600"	"1366"	"chrome"	"109.0.0"	"FALSE"	"Windows 10"	"60.65"	"027"	n/a	n/a	n/a	n/a	n/a	n/a	"fixation"	n/a	n/a	n/a	n/a	"NULL"	n/a	"NULL"	"NULL"	"NULL"	"<p style=\"color: black; font-size: 80px; padding-left: 29%; padding-right: 19%; padding-top: 19%; padding-bottom: 39%\">+</p>"	"1067"	n/a	n/a	n/a	n/a	n/a	n/a	n/a	n/a	n/a
n/a	"image-keyboard-response"	"88"	"370353"	"0.0-5.0-2.0-1.17"	"stvc9h"	"600"	"1366"	"chrome"	"109.0.0"	"FALSE"	"Windows 10"	"60.65"	"027"	n/a	n/a	n/a	n/a	n/a	n/a	"Trial"	n/a	n/a	n/a	"883"	"arrowdown"	n/a	"NULL"	"NULL"	"NULL"	"stimuli/MullerLyer_-2.3000_-0.07627.png"	n/a	"MullerLyer"	"arrowdown"	"1080"	"TRUE"	"MullerLyer"	"-2.300000000"	"-0.076270000"	"1"	"36"
n/a	"html-keyboard-response"	"89"	"371483"	"0.0-5.0-2.0-0.18"	"stvc9h"	"600"	"1366"	"chrome"	"109.0.0"	"FALSE"	"Windows 10"	"60.65"	"027"	n/a	n/a	n/a	n/a	n/a	n/a	"fixation"	n/a	n/a	n/a	n/a	"NULL"	n/a	"NULL"	"NULL"	"NULL"	"<p style=\"color: black; font-size: 80px; padding-left: 28%; padding-right: 39%; padding-top: 23%; padding-bottom: 38%\">+</p>"	"1122"	n/a	n/a	n/a	n/a	n/a	n/a	n/a	n/a	n/a
n/a	"image-keyboard-response"	"90"	"372838"	"0.0-5.0-2.0-1.18"	"stvc9h"	"600"	"1366"	"chrome"	"109.0.0"	"FALSE"	"Windows 10"	"60.65"	"027"	n/a	n/a	n/a	n/a	n/a	n/a	"Trial"	n/a	n/a	n/a	"1354"	"arrowup"	n/a	"NULL"	"NULL"	"NULL"	"stimuli/MullerLyer_-14.12857_0.14541.png"	n/a	"MullerLyer"	"arrowup"	"1130"	"TRUE"	"MullerLyer"	"-14.12857000"	"0.1454100000"	"1"	"37"
n/a	"html-keyboard-response"	"91"	"374163"	"0.0-5.0-2.0-0.19"	"stvc9h"	"600"	"1366"	"chrome"	"109.0.0"	"FALSE"	"Windows 10"	"60.65"	"027"	n/a	n/a	n/a	n/a	n/a	n/a	"fixation"	n/a	n/a	n/a	n/a	"NULL"	n/a	"NULL"	"NULL"	"NULL"	"<p style=\"color: black; font-size: 80px; padding-left: 24%; padding-right: 19%; padding-top: 27%; padding-bottom: 4%\">+</p>"	"1308"	n/a	n/a	n/a	n/a	n/a	n/a	n/a	n/a	n/a
n/a	"image-keyboard-response"	"92"	"375565"	"0.0-5.0-2.0-1.19"	"stvc9h"	"600"	"1366"	"chrome"	"109.0.0"	"FALSE"	"Windows 10"	"60.65"	"027"	n/a	n/a	n/a	n/a	n/a	n/a	"Trial"	n/a	n/a	n/a	"1401"	"arrowdown"	n/a	"NULL"	"NULL"	"NULL"	"stimuli/MullerLyer_8.21429_0.07627.png"	n/a	"MullerLyer"	"arrowup"	"1325"	"FALSE"	"MullerLyer"	"8.2142900000"	"0.0762700000"	"1"	"38"
n/a	"html-keyboard-response"	"93"	"377018"	"0.0-5.0-2.0-0.20"	"stvc9h"	"600"	"1366"	"chrome"	"109.0.0"	"FALSE"	"Windows 10"	"60.65"	"027"	n/a	n/a	n/a	n/a	n/a	n/a	"fixation"	n/a	n/a	n/a	n/a	"NULL"	n/a	"NULL"	"NULL"	"NULL"	"<p style=\"color: black; font-size: 80px; padding-left: 7%; padding-right: 20%; padding-top: 8%; padding-bottom: 41%\">+</p>"	"1447"	n/a	n/a	n/a	n/a	n/a	n/a	n/a	n/a	n/a
n/a	"image-keyboard-response"	"94"	"377710"	"0.0-5.0-2.0-1.20"	"stvc9h"	"600"	"1366"	"chrome"	"109.0.0"	"FALSE"	"Windows 10"	"60.65"	"027"	n/a	n/a	n/a	n/a	n/a	n/a	"Trial"	n/a	n/a	n/a	"691"	"arrowdown"	n/a	"NULL"	"NULL"	"NULL"	"stimuli/MullerLyer_2.30000_-0.3500.png"	n/a	"MullerLyer"	"arrowdown"	"1453"	"TRUE"	"MullerLyer"	"2.3000000000"	"-0.350000000"	"1"	"39"
n/a	"html-keyboard-response"	"95"	"379071"	"0.0-5.0-2.0-0.21"	"stvc9h"	"600"	"1366"	"chrome"	"109.0.0"	"FALSE"	"Windows 10"	"60.65"	"027"	n/a	n/a	n/a	n/a	n/a	n/a	"fixation"	n/a	n/a	n/a	n/a	"NULL"	n/a	"NULL"	"NULL"	"NULL"	"<p style=\"color: black; font-size: 80px; padding-left: 30%; padding-right: 26%; padding-top: 1%; padding-bottom: 42%\">+</p>"	"1350"	n/a	n/a	n/a	n/a	n/a	n/a	n/a	n/a	n/a
n/a	"image-keyboard-response"	"96"	"379756"	"0.0-5.0-2.0-1.21"	"stvc9h"	"600"	"1366"	"chrome"	"109.0.0"	"FALSE"	"Windows 10"	"60.65"	"027"	n/a	n/a	n/a	n/a	n/a	n/a	"Trial"	n/a	n/a	n/a	"683"	"arrowup"	n/a	"NULL"	"NULL"	"NULL"	"stimuli/MullerLyer_-2.3000_0.07627.png"	n/a	"MullerLyer"	"arrowup"	"1361"	"TRUE"	"MullerLyer"	"-2.300000000"	"0.0762700000"	"1"	"40"
n/a	"html-keyboard-response"	"97"	"380814"	"0.0-5.0-2.0-0.22"	"stvc9h"	"600"	"1366"	"chrome"	"109.0.0"	"FALSE"	"Windows 10"	"60.65"	"027"	n/a	n/a	n/a	n/a	n/a	n/a	"fixation"	n/a	n/a	n/a	n/a	"NULL"	n/a	"NULL"	"NULL"	"NULL"	"<p style=\"color: black; font-size: 80px; padding-left: 44%; padding-right: 47%; padding-top: 28%; padding-bottom: 24%\">+</p>"	"1047"	n/a	n/a	n/a	n/a	n/a	n/a	n/a	n/a	n/a
n/a	"image-keyboard-response"	"98"	"382667"	"0.0-5.0-2.0-1.22"	"stvc9h"	"600"	"1366"	"chrome"	"109.0.0"	"FALSE"	"Windows 10"	"60.65"	"027"	n/a	n/a	n/a	n/a	n/a	n/a	"Trial"	n/a	n/a	n/a	"1853"	"arrowup"	n/a	"NULL"	"NULL"	"NULL"	"stimuli/MullerLyer_2.30000_0.07627.png"	n/a	"MullerLyer"	"arrowup"	"1058"	"TRUE"	"MullerLyer"	"2.3000000000"	"0.0762700000"	"1"	"41"
n/a	"html-keyboard-response"	"99"	"384168"	"0.0-5.0-2.0-0.23"	"stvc9h"	"600"	"1366"	"chrome"	"109.0.0"	"FALSE"	"Windows 10"	"60.65"	"027"	n/a	n/a	n/a	n/a	n/a	n/a	"fixation"	n/a	n/a	n/a	n/a	"NULL"	n/a	"NULL"	"NULL"	"NULL"	"<p style=\"color: black; font-size: 80px; padding-left: 26%; padding-right: 13%; padding-top: 41%; padding-bottom: 36%\">+</p>"	"1495"	n/a	n/a	n/a	n/a	n/a	n/a	n/a	n/a	n/a
n/a	"image-keyboard-response"	"100"	"385292"	"0.0-5.0-2.0-1.23"	"stvc9h"	"600"	"1366"	"chrome"	"109.0.0"	"FALSE"	"Windows 10"	"60.65"	"027"	n/a	n/a	n/a	n/a	n/a	n/a	"Trial"	n/a	n/a	n/a	"1123"	"arrowdown"	n/a	"NULL"	"NULL"	"NULL"	"stimuli/MullerLyer_-2.3000_-0.14541.png"	n/a	"MullerLyer"	"arrowdown"	"1501"	"TRUE"	"MullerLyer"	"-2.300000000"	"-0.145410000"	"1"	"42"
n/a	"html-keyboard-response"	"101"	"386470"	"0.0-5.0-2.0-0.24"	"stvc9h"	"600"	"1366"	"chrome"	"109.0.0"	"FALSE"	"Windows 10"	"60.65"	"027"	n/a	n/a	n/a	n/a	n/a	n/a	"fixation"	n/a	n/a	n/a	n/a	"NULL"	n/a	"NULL"	"NULL"	"NULL"	"<p style=\"color: black; font-size: 80px; padding-left: 20%; padding-right: 2%; padding-top: 30%; padding-bottom: 13%\">+</p>"	"1172"	n/a	n/a	n/a	n/a	n/a	n/a	n/a	n/a	n/a
n/a	"image-keyboard-response"	"102"	"387204"	"0.0-5.0-2.0-1.24"	"stvc9h"	"600"	"1366"	"chrome"	"109.0.0"	"FALSE"	"Windows 10"	"60.65"	"027"	n/a	n/a	n/a	n/a	n/a	n/a	"Trial"	n/a	n/a	n/a	"733"	"arrowdown"	n/a	"NULL"	"NULL"	"NULL"	"stimuli/MullerLyer_-2.3000_-0.23665.png"	n/a	"MullerLyer"	"arrowdown"	"1178"	"TRUE"	"MullerLyer"	"-2.300000000"	"-0.236650000"	"1"	"43"
n/a	"html-keyboard-response"	"103"	"388347"	"0.0-5.0-2.0-0.25"	"stvc9h"	"600"	"1366"	"chrome"	"109.0.0"	"FALSE"	"Windows 10"	"60.65"	"027"	n/a	n/a	n/a	n/a	n/a	n/a	"fixation"	n/a	n/a	n/a	n/a	"NULL"	n/a	"NULL"	"NULL"	"NULL"	"<p style=\"color: black; font-size: 80px; padding-left: 37%; padding-right: 40%; padding-top: 8%; padding-bottom: 8%\">+</p>"	"1123"	n/a	n/a	n/a	n/a	n/a	n/a	n/a	n/a	n/a
n/a	"image-keyboard-response"	"104"	"389228"	"0.0-5.0-2.0-1.25"	"stvc9h"	"600"	"1366"	"chrome"	"109.0.0"	"FALSE"	"Windows 10"	"60.65"	"027"	n/a	n/a	n/a	n/a	n/a	n/a	"Trial"	n/a	n/a	n/a	"881"	"arrowdown"	n/a	"NULL"	"NULL"	"NULL"	"stimuli/MullerLyer_-8.21429_-0.14541.png"	n/a	"MullerLyer"	"arrowdown"	"1143"	"TRUE"	"MullerLyer"	"-8.214290000"	"-0.145410000"	"1"	"44"
n/a	"html-keyboard-response"	"105"	"390329"	"0.0-5.0-2.0-0.26"	"stvc9h"	"600"	"1366"	"chrome"	"109.0.0"	"FALSE"	"Windows 10"	"60.65"	"027"	n/a	n/a	n/a	n/a	n/a	n/a	"fixation"	n/a	n/a	n/a	n/a	"NULL"	n/a	"NULL"	"NULL"	"NULL"	"<p style=\"color: black; font-size: 80px; padding-left: 31%; padding-right: 33%; padding-top: 35%; padding-bottom: 21%\">+</p>"	"1080"	n/a	n/a	n/a	n/a	n/a	n/a	n/a	n/a	n/a
n/a	"image-keyboard-response"	"106"	"391863"	"0.0-5.0-2.0-1.26"	"stvc9h"	"600"	"1366"	"chrome"	"109.0.0"	"FALSE"	"Windows 10"	"60.65"	"027"	n/a	n/a	n/a	n/a	n/a	n/a	"Trial"	n/a	n/a	n/a	"1533"	"arrowdown"	n/a	"NULL"	"NULL"	"NULL"	"stimuli/MullerLyer_8.21429_-0.14541.png"	n/a	"MullerLyer"	"arrowdown"	"1101"	"TRUE"	"MullerLyer"	"8.2142900000"	"-0.145410000"	"1"	"45"
n/a	"html-keyboard-response"	"107"	"392939"	"0.0-5.0-2.0-0.27"	"stvc9h"	"600"	"1366"	"chrome"	"109.0.0"	"FALSE"	"Windows 10"	"60.65"	"027"	n/a	n/a	n/a	n/a	n/a	n/a	"fixation"	n/a	n/a	n/a	n/a	"NULL"	n/a	"NULL"	"NULL"	"NULL"	"<p style=\"color: black; font-size: 80px; padding-left: 33%; padding-right: 29%; padding-top: 11%; padding-bottom: 5%\">+</p>"	"1059"	n/a	n/a	n/a	n/a	n/a	n/a	n/a	n/a	n/a
n/a	"image-keyboard-response"	"108"	"393665"	"0.0-5.0-2.0-1.27"	"stvc9h"	"600"	"1366"	"chrome"	"109.0.0"	"FALSE"	"Windows 10"	"60.65"	"027"	n/a	n/a	n/a	n/a	n/a	n/a	"Trial"	n/a	n/a	n/a	"724"	"arrowup"	n/a	"NULL"	"NULL"	"NULL"	"stimuli/MullerLyer_-2.3000_0.35000.png"	n/a	"MullerLyer"	"arrowup"	"1076"	"TRUE"	"MullerLyer"	"-2.300000000"	"0.3500000000"	"1"	"46"
n/a	"html-keyboard-response"	"109"	"395174"	"0.0-5.0-2.0-0.28"	"stvc9h"	"600"	"1366"	"chrome"	"109.0.0"	"FALSE"	"Windows 10"	"60.65"	"027"	n/a	n/a	n/a	n/a	n/a	n/a	"fixation"	n/a	n/a	n/a	n/a	"NULL"	n/a	"NULL"	"NULL"	"NULL"	"<p style=\"color: black; font-size: 80px; padding-left: 10%; padding-right: 41%; padding-top: 31%; padding-bottom: 33%\">+</p>"	"1497"	n/a	n/a	n/a	n/a	n/a	n/a	n/a	n/a	n/a
n/a	"image-keyboard-response"	"110"	"395964"	"0.0-5.0-2.0-1.28"	"stvc9h"	"600"	"1366"	"chrome"	"109.0.0"	"FALSE"	"Windows 10"	"60.65"	"027"	n/a	n/a	n/a	n/a	n/a	n/a	"Trial"	n/a	n/a	n/a	"790"	"arrowup"	n/a	"NULL"	"NULL"	"NULL"	"stimuli/MullerLyer_-8.21429_0.23665.png"	n/a	"MullerLyer"	"arrowup"	"1509"	"TRUE"	"MullerLyer"	"-8.214290000"	"0.2366500000"	"1"	"47"
n/a	"html-keyboard-response"	"111"	"397034"	"0.0-5.0-2.0-0.29"	"stvc9h"	"600"	"1366"	"chrome"	"109.0.0"	"FALSE"	"Windows 10"	"60.65"	"027"	n/a	n/a	n/a	n/a	n/a	n/a	"fixation"	n/a	n/a	n/a	n/a	"NULL"	n/a	"NULL"	"NULL"	"NULL"	"<p style=\"color: black; font-size: 80px; padding-left: 10%; padding-right: 9%; padding-top: 33%; padding-bottom: 35%\">+</p>"	"1060"	n/a	n/a	n/a	n/a	n/a	n/a	n/a	n/a	n/a
n/a	"image-keyboard-response"	"112"	"397856"	"0.0-5.0-2.0-1.29"	"stvc9h"	"600"	"1366"	"chrome"	"109.0.0"	"FALSE"	"Windows 10"	"60.65"	"027"	n/a	n/a	n/a	n/a	n/a	n/a	"Trial"	n/a	n/a	n/a	"821"	"arrowdown"	n/a	"NULL"	"NULL"	"NULL"	"stimuli/MullerLyer_20.04286_-0.23665.png"	n/a	"MullerLyer"	"arrowdown"	"1070"	"TRUE"	"MullerLyer"	"20.042860000"	"-0.236650000"	"1"	"48"
n/a	"html-keyboard-response"	"113"	"399298"	"0.0-5.0-2.0-0.30"	"stvc9h"	"600"	"1366"	"chrome"	"109.0.0"	"FALSE"	"Windows 10"	"60.65"	"027"	n/a	n/a	n/a	n/a	n/a	n/a	"fixation"	n/a	n/a	n/a	n/a	"NULL"	n/a	"NULL"	"NULL"	"NULL"	"<p style=\"color: black; font-size: 80px; padding-left: 34%; padding-right: 48%; padding-top: 26%; padding-bottom: 5%\">+</p>"	"1430"	n/a	n/a	n/a	n/a	n/a	n/a	n/a	n/a	n/a
n/a	"image-keyboard-response"	"114"	"400027"	"0.0-5.0-2.0-1.30"	"stvc9h"	"600"	"1366"	"chrome"	"109.0.0"	"FALSE"	"Windows 10"	"60.65"	"027"	n/a	n/a	n/a	n/a	n/a	n/a	"Trial"	n/a	n/a	n/a	"728"	"arrowup"	n/a	"NULL"	"NULL"	"NULL"	"stimuli/MullerLyer_-20.04286_0.07627.png"	n/a	"MullerLyer"	"arrowup"	"1442"	"TRUE"	"MullerLyer"	"-20.04286000"	"0.0762700000"	"1"	"49"
n/a	"html-keyboard-response"	"115"	"401424"	"0.0-5.0-2.0-0.31"	"stvc9h"	"600"	"1366"	"chrome"	"109.0.0"	"FALSE"	"Windows 10"	"60.65"	"027"	n/a	n/a	n/a	n/a	n/a	n/a	"fixation"	n/a	n/a	n/a	n/a	"NULL"	n/a	"NULL"	"NULL"	"NULL"	"<p style=\"color: black; font-size: 80px; padding-left: 11%; padding-right: 2%; padding-top: 27%; padding-bottom: 6%\">+</p>"	"1380"	n/a	n/a	n/a	n/a	n/a	n/a	n/a	n/a	n/a
n/a	"image-keyboard-response"	"116"	"402191"	"0.0-5.0-2.0-1.31"	"stvc9h"	"600"	"1366"	"chrome"	"109.0.0"	"FALSE"	"Windows 10"	"60.65"	"027"	n/a	n/a	n/a	n/a	n/a	n/a	"Trial"	n/a	n/a	n/a	"766"	"arrowup"	n/a	"NULL"	"NULL"	"NULL"	"stimuli/MullerLyer_-8.21429_0.14541.png"	n/a	"MullerLyer"	"arrowup"	"1397"	"TRUE"	"MullerLyer"	"-8.214290000"	"0.1454100000"	"1"	"50"
n/a	"html-keyboard-response"	"117"	"403273"	"0.0-5.0-2.0-0.32"	"stvc9h"	"600"	"1366"	"chrome"	"109.0.0"	"FALSE"	"Windows 10"	"60.65"	"027"	n/a	n/a	n/a	n/a	n/a	n/a	"fixation"	n/a	n/a	n/a	n/a	"NULL"	n/a	"NULL"	"NULL"	"NULL"	"<p style=\"color: black; font-size: 80px; padding-left: 9%; padding-right: 34%; padding-top: 29%; padding-bottom: 50%\">+</p>"	"1077"	n/a	n/a	n/a	n/a	n/a	n/a	n/a	n/a	n/a
n/a	"image-keyboard-response"	"118"	"405349"	"0.0-5.0-2.0-1.32"	"stvc9h"	"600"	"1366"	"chrome"	"109.0.0"	"FALSE"	"Windows 10"	"60.65"	"027"	n/a	n/a	n/a	n/a	n/a	n/a	"Trial"	n/a	n/a	n/a	"2075"	"arrowup"	n/a	"NULL"	"NULL"	"NULL"	"stimuli/MullerLyer_20.04286_0.23665.png"	n/a	"MullerLyer"	"arrowup"	"1082"	"TRUE"	"MullerLyer"	"20.042860000"	"0.2366500000"	"1"	"51"
n/a	"html-keyboard-response"	"119"	"406597"	"0.0-5.0-2.0-0.33"	"stvc9h"	"600"	"1366"	"chrome"	"109.0.0"	"FALSE"	"Windows 10"	"60.65"	"027"	n/a	n/a	n/a	n/a	n/a	n/a	"fixation"	n/a	n/a	n/a	n/a	"NULL"	n/a	"NULL"	"NULL"	"NULL"	"<p style=\"color: black; font-size: 80px; padding-left: 17%; padding-right: 8%; padding-top: 19%; padding-bottom: 4%\">+</p>"	"1235"	n/a	n/a	n/a	n/a	n/a	n/a	n/a	n/a	n/a
n/a	"image-keyboard-response"	"120"	"407540"	"0.0-5.0-2.0-1.33"	"stvc9h"	"600"	"1366"	"chrome"	"109.0.0"	"FALSE"	"Windows 10"	"60.65"	"027"	n/a	n/a	n/a	n/a	n/a	n/a	"Trial"	n/a	n/a	n/a	"942"	"arrowup"	n/a	"NULL"	"NULL"	"NULL"	"stimuli/MullerLyer_8.21429_0.35000.png"	n/a	"MullerLyer"	"arrowup"	"1248"	"TRUE"	"MullerLyer"	"8.2142900000"	"0.3500000000"	"1"	"52"
n/a	"html-keyboard-response"	"121"	"409017"	"0.0-5.0-2.0-0.34"	"stvc9h"	"600"	"1366"	"chrome"	"109.0.0"	"FALSE"	"Windows 10"	"60.65"	"027"	n/a	n/a	n/a	n/a	n/a	n/a	"fixation"	n/a	n/a	n/a	n/a	"NULL"	n/a	"NULL"	"NULL"	"NULL"	"<p style=\"color: black; font-size: 80px; padding-left: 37%; padding-right: 37%; padding-top: 14%; padding-bottom: 23%\">+</p>"	"1465"	n/a	n/a	n/a	n/a	n/a	n/a	n/a	n/a	n/a
n/a	"image-keyboard-response"	"122"	"409797"	"0.0-5.0-2.0-1.34"	"stvc9h"	"600"	"1366"	"chrome"	"109.0.0"	"FALSE"	"Windows 10"	"60.65"	"027"	n/a	n/a	n/a	n/a	n/a	n/a	"Trial"	n/a	n/a	n/a	"780"	"arrowup"	n/a	"NULL"	"NULL"	"NULL"	"stimuli/MullerLyer_-8.21429_0.07627.png"	n/a	"MullerLyer"	"arrowup"	"1477"	"TRUE"	"MullerLyer"	"-8.214290000"	"0.0762700000"	"1"	"53"
n/a	"html-keyboard-response"	"123"	"411284"	"0.0-5.0-2.0-0.35"	"stvc9h"	"600"	"1366"	"chrome"	"109.0.0"	"FALSE"	"Windows 10"	"60.65"	"027"	n/a	n/a	n/a	n/a	n/a	n/a	"fixation"	n/a	n/a	n/a	n/a	"NULL"	n/a	"NULL"	"NULL"	"NULL"	"<p style=\"color: black; font-size: 80px; padding-left: 22%; padding-right: 42%; padding-top: 5%; padding-bottom: 48%\">+</p>"	"1471"	n/a	n/a	n/a	n/a	n/a	n/a	n/a	n/a	n/a
n/a	"image-keyboard-response"	"124"	"412000"	"0.0-5.0-2.0-1.35"	"stvc9h"	"600"	"1366"	"chrome"	"109.0.0"	"FALSE"	"Windows 10"	"60.65"	"027"	n/a	n/a	n/a	n/a	n/a	n/a	"Trial"	n/a	n/a	n/a	"716"	"arrowdown"	n/a	"NULL"	"NULL"	"NULL"	"stimuli/MullerLyer_-14.12857_-0.14541.png"	n/a	"MullerLyer"	"arrowdown"	"1487"	"TRUE"	"MullerLyer"	"-14.12857000"	"-0.145410000"	"1"	"54"
n/a	"html-keyboard-response"	"125"	"413235"	"0.0-5.0-2.0-0.36"	"stvc9h"	"600"	"1366"	"chrome"	"109.0.0"	"FALSE"	"Windows 10"	"60.65"	"027"	n/a	n/a	n/a	n/a	n/a	n/a	"fixation"	n/a	n/a	n/a	n/a	"NULL"	n/a	"NULL"	"NULL"	"NULL"	"<p style=\"color: black; font-size: 80px; padding-left: 12%; padding-right: 8%; padding-top: 40%; padding-bottom: 32%\">+</p>"	"1225"	n/a	n/a	n/a	n/a	n/a	n/a	n/a	n/a	n/a
n/a	"image-keyboard-response"	"126"	"413923"	"0.0-5.0-2.0-1.36"	"stvc9h"	"600"	"1366"	"chrome"	"109.0.0"	"FALSE"	"Windows 10"	"60.65"	"027"	n/a	n/a	n/a	n/a	n/a	n/a	"Trial"	n/a	n/a	n/a	"687"	"arrowup"	n/a	"NULL"	"NULL"	"NULL"	"stimuli/MullerLyer_20.04286_-0.14541.png"	n/a	"MullerLyer"	"arrowdown"	"1235"	"FALSE"	"MullerLyer"	"20.042860000"	"-0.145410000"	"1"	"55"
n/a	"html-keyboard-response"	"127"	"415285"	"0.0-5.0-2.0-0.37"	"stvc9h"	"600"	"1366"	"chrome"	"109.0.0"	"FALSE"	"Windows 10"	"60.65"	"027"	n/a	n/a	n/a	n/a	n/a	n/a	"fixation"	n/a	n/a	n/a	n/a	"NULL"	n/a	"NULL"	"NULL"	"NULL"	"<p style=\"color: black; font-size: 80px; padding-left: 4%; padding-right: 42%; padding-top: 22%; padding-bottom: 16%\">+</p>"	"1350"	n/a	n/a	n/a	n/a	n/a	n/a	n/a	n/a	n/a
n/a	"image-keyboard-response"	"128"	"416158"	"0.0-5.0-2.0-1.37"	"stvc9h"	"600"	"1366"	"chrome"	"109.0.0"	"FALSE"	"Windows 10"	"60.65"	"027"	n/a	n/a	n/a	n/a	n/a	n/a	"Trial"	n/a	n/a	n/a	"873"	"arrowdown"	n/a	"NULL"	"NULL"	"NULL"	"stimuli/MullerLyer_20.04286_-0.3500.png"	n/a	"MullerLyer"	"arrowdown"	"1362"	"TRUE"	"MullerLyer"	"20.042860000"	"-0.350000000"	"1"	"56"
n/a	"html-keyboard-response"	"129"	"417368"	"0.0-5.0-2.0-0.38"	"stvc9h"	"600"	"1366"	"chrome"	"109.0.0"	"FALSE"	"Windows 10"	"60.65"	"027"	n/a	n/a	n/a	n/a	n/a	n/a	"fixation"	n/a	n/a	n/a	n/a	"NULL"	n/a	"NULL"	"NULL"	"NULL"	"<p style=\"color: black; font-size: 80px; padding-left: 10%; padding-right: 38%; padding-top: 25%; padding-bottom: 22%\">+</p>"	"1201"	n/a	n/a	n/a	n/a	n/a	n/a	n/a	n/a	n/a
n/a	"image-keyboard-response"	"130"	"418393"	"0.0-5.0-2.0-1.38"	"stvc9h"	"600"	"1366"	"chrome"	"109.0.0"	"FALSE"	"Windows 10"	"60.65"	"027"	n/a	n/a	n/a	n/a	n/a	n/a	"Trial"	n/a	n/a	n/a	"1025"	"arrowup"	n/a	"NULL"	"NULL"	"NULL"	"stimuli/MullerLyer_14.12857_0.14541.png"	n/a	"MullerLyer"	"arrowup"	"1210"	"TRUE"	"MullerLyer"	"14.128570000"	"0.1454100000"	"1"	"57"
n/a	"html-keyboard-response"	"131"	"419431"	"0.0-5.0-2.0-0.39"	"stvc9h"	"600"	"1366"	"chrome"	"109.0.0"	"FALSE"	"Windows 10"	"60.65"	"027"	n/a	n/a	n/a	n/a	n/a	n/a	"fixation"	n/a	n/a	n/a	n/a	"NULL"	n/a	"NULL"	"NULL"	"NULL"	"<p style=\"color: black; font-size: 80px; padding-left: 16%; padding-right: 6%; padding-top: 17%; padding-bottom: 31%\">+</p>"	"1027"	n/a	n/a	n/a	n/a	n/a	n/a	n/a	n/a	n/a
n/a	"image-keyboard-response"	"132"	"420223"	"0.0-5.0-2.0-1.39"	"stvc9h"	"600"	"1366"	"chrome"	"109.0.0"	"FALSE"	"Windows 10"	"60.65"	"027"	n/a	n/a	n/a	n/a	n/a	n/a	"Trial"	n/a	n/a	n/a	"791"	"arrowup"	n/a	"NULL"	"NULL"	"NULL"	"stimuli/MullerLyer_-14.12857_0.23665.png"	n/a	"MullerLyer"	"arrowup"	"1038"	"TRUE"	"MullerLyer"	"-14.12857000"	"0.2366500000"	"1"	"58"
n/a	"html-keyboard-response"	"133"	"421287"	"0.0-5.0-2.0-0.40"	"stvc9h"	"600"	"1366"	"chrome"	"109.0.0"	"FALSE"	"Windows 10"	"60.65"	"027"	n/a	n/a	n/a	n/a	n/a	n/a	"fixation"	n/a	n/a	n/a	n/a	"NULL"	n/a	"NULL"	"NULL"	"NULL"	"<p style=\"color: black; font-size: 80px; padding-left: 23%; padding-right: 47%; padding-top: 16%; padding-bottom: 41%\">+</p>"	"1052"	n/a	n/a	n/a	n/a	n/a	n/a	n/a	n/a	n/a
n/a	"image-keyboard-response"	"134"	"422075"	"0.0-5.0-2.0-1.40"	"stvc9h"	"600"	"1366"	"chrome"	"109.0.0"	"FALSE"	"Windows 10"	"60.65"	"027"	n/a	n/a	n/a	n/a	n/a	n/a	"Trial"	n/a	n/a	n/a	"787"	"arrowup"	n/a	"NULL"	"NULL"	"NULL"	"stimuli/MullerLyer_2.30000_0.35000.png"	n/a	"MullerLyer"	"arrowup"	"1064"	"TRUE"	"MullerLyer"	"2.3000000000"	"0.3500000000"	"1"	"59"
n/a	"html-keyboard-response"	"135"	"423460"	"0.0-5.0-2.0-0.41"	"stvc9h"	"600"	"1366"	"chrome"	"109.0.0"	"FALSE"	"Windows 10"	"60.65"	"027"	n/a	n/a	n/a	n/a	n/a	n/a	"fixation"	n/a	n/a	n/a	n/a	"NULL"	n/a	"NULL"	"NULL"	"NULL"	"<p style=\"color: black; font-size: 80px; padding-left: 5%; padding-right: 46%; padding-top: 40%; padding-bottom: 25%\">+</p>"	"1376"	n/a	n/a	n/a	n/a	n/a	n/a	n/a	n/a	n/a
n/a	"image-keyboard-response"	"136"	"424179"	"0.0-5.0-2.0-1.41"	"stvc9h"	"600"	"1366"	"chrome"	"109.0.0"	"FALSE"	"Windows 10"	"60.65"	"027"	n/a	n/a	n/a	n/a	n/a	n/a	"Trial"	n/a	n/a	n/a	"718"	"arrowup"	n/a	"NULL"	"NULL"	"NULL"	"stimuli/MullerLyer_-8.21429_0.35000.png"	n/a	"MullerLyer"	"arrowup"	"1385"	"TRUE"	"MullerLyer"	"-8.214290000"	"0.3500000000"	"1"	"60"
n/a	"html-keyboard-response"	"137"	"425523"	"0.0-5.0-2.0-0.42"	"stvc9h"	"600"	"1366"	"chrome"	"109.0.0"	"FALSE"	"Windows 10"	"60.65"	"027"	n/a	n/a	n/a	n/a	n/a	n/a	"fixation"	n/a	n/a	n/a	n/a	"NULL"	n/a	"NULL"	"NULL"	"NULL"	"<p style=\"color: black; font-size: 80px; padding-left: 13%; padding-right: 44%; padding-top: 47%; padding-bottom: 26%\">+</p>"	"1335"	n/a	n/a	n/a	n/a	n/a	n/a	n/a	n/a	n/a
n/a	"image-keyboard-response"	"138"	"427173"	"0.0-5.0-2.0-1.42"	"stvc9h"	"600"	"1366"	"chrome"	"109.0.0"	"FALSE"	"Windows 10"	"60.65"	"027"	n/a	n/a	n/a	n/a	n/a	n/a	"Trial"	n/a	n/a	n/a	"1650"	"arrowup"	n/a	"NULL"	"NULL"	"NULL"	"stimuli/MullerLyer_20.04286_-0.07627.png"	n/a	"MullerLyer"	"arrowdown"	"1344"	"FALSE"	"MullerLyer"	"20.042860000"	"-0.076270000"	"1"	"61"
n/a	"html-keyboard-response"	"139"	"428495"	"0.0-5.0-2.0-0.43"	"stvc9h"	"600"	"1366"	"chrome"	"109.0.0"	"FALSE"	"Windows 10"	"60.65"	"027"	n/a	n/a	n/a	n/a	n/a	n/a	"fixation"	n/a	n/a	n/a	n/a	"NULL"	n/a	"NULL"	"NULL"	"NULL"	"<p style=\"color: black; font-size: 80px; padding-left: 14%; padding-right: 15%; padding-top: 31%; padding-bottom: 19%\">+</p>"	"1312"	n/a	n/a	n/a	n/a	n/a	n/a	n/a	n/a	n/a
n/a	"image-keyboard-response"	"140"	"429390"	"0.0-5.0-2.0-1.43"	"stvc9h"	"600"	"1366"	"chrome"	"109.0.0"	"FALSE"	"Windows 10"	"60.65"	"027"	n/a	n/a	n/a	n/a	n/a	n/a	"Trial"	n/a	n/a	n/a	"894"	"arrowdown"	n/a	"NULL"	"NULL"	"NULL"	"stimuli/MullerLyer_-8.21429_-0.07627.png"	n/a	"MullerLyer"	"arrowdown"	"1322"	"TRUE"	"MullerLyer"	"-8.214290000"	"-0.076270000"	"1"	"62"
n/a	"html-keyboard-response"	"141"	"430660"	"0.0-5.0-2.0-0.44"	"stvc9h"	"600"	"1366"	"chrome"	"109.0.0"	"FALSE"	"Windows 10"	"60.65"	"027"	n/a	n/a	n/a	n/a	n/a	n/a	"fixation"	n/a	n/a	n/a	n/a	"NULL"	n/a	"NULL"	"NULL"	"NULL"	"<p style=\"color: black; font-size: 80px; padding-left: 35%; padding-right: 16%; padding-top: 36%; padding-bottom: 32%\">+</p>"	"1260"	n/a	n/a	n/a	n/a	n/a	n/a	n/a	n/a	n/a
n/a	"image-keyboard-response"	"142"	"432516"	"0.0-5.0-2.0-1.44"	"stvc9h"	"600"	"1366"	"chrome"	"109.0.0"	"FALSE"	"Windows 10"	"60.65"	"027"	n/a	n/a	n/a	n/a	n/a	n/a	"Trial"	n/a	n/a	n/a	"1855"	"arrowup"	n/a	"NULL"	"NULL"	"NULL"	"stimuli/MullerLyer_8.21429_0.23665.png"	n/a	"MullerLyer"	"arrowup"	"1270"	"TRUE"	"MullerLyer"	"8.2142900000"	"0.2366500000"	"1"	"63"
n/a	"html-keyboard-response"	"143"	"433748"	"0.0-5.0-2.0-0.45"	"stvc9h"	"600"	"1366"	"chrome"	"109.0.0"	"FALSE"	"Windows 10"	"60.65"	"027"	n/a	n/a	n/a	n/a	n/a	n/a	"fixation"	n/a	n/a	n/a	n/a	"NULL"	n/a	"NULL"	"NULL"	"NULL"	"<p style=\"color: black; font-size: 80px; padding-left: 18%; padding-right: 29%; padding-top: 0%; padding-bottom: 45%\">+</p>"	"1216"	n/a	n/a	n/a	n/a	n/a	n/a	n/a	n/a	n/a
n/a	"image-keyboard-response"	"144"	"434686"	"0.0-5.0-2.0-1.45"	"stvc9h"	"600"	"1366"	"chrome"	"109.0.0"	"FALSE"	"Windows 10"	"60.65"	"027"	n/a	n/a	n/a	n/a	n/a	n/a	"Trial"	n/a	n/a	n/a	"934"	"arrowdown"	n/a	"NULL"	"NULL"	"NULL"	"stimuli/MullerLyer_-20.04286_-0.14541.png"	n/a	"MullerLyer"	"arrowdown"	"1232"	"TRUE"	"MullerLyer"	"-20.04286000"	"-0.145410000"	"1"	"64"
n/a	"html-keyboard-response"	"145"	"435842"	"0.0-5.0-2.0-0.46"	"stvc9h"	"600"	"1366"	"chrome"	"109.0.0"	"FALSE"	"Windows 10"	"60.65"	"027"	n/a	n/a	n/a	n/a	n/a	n/a	"fixation"	n/a	n/a	n/a	n/a	"NULL"	n/a	"NULL"	"NULL"	"NULL"	"<p style=\"color: black; font-size: 80px; padding-left: 20%; padding-right: 35%; padding-top: 3%; padding-bottom: 25%\">+</p>"	"1138"	n/a	n/a	n/a	n/a	n/a	n/a	n/a	n/a	n/a
n/a	"image-keyboard-response"	"146"	"437403"	"0.0-5.0-2.0-1.46"	"stvc9h"	"600"	"1366"	"chrome"	"109.0.0"	"FALSE"	"Windows 10"	"60.65"	"027"	n/a	n/a	n/a	n/a	n/a	n/a	"Trial"	n/a	n/a	n/a	"1560"	"arrowdown"	n/a	"NULL"	"NULL"	"NULL"	"stimuli/MullerLyer_8.21429_-0.07627.png"	n/a	"MullerLyer"	"arrowdown"	"1156"	"TRUE"	"MullerLyer"	"8.2142900000"	"-0.076270000"	"1"	"65"
n/a	"html-keyboard-response"	"147"	"438533"	"0.0-5.0-2.0-0.47"	"stvc9h"	"600"	"1366"	"chrome"	"109.0.0"	"FALSE"	"Windows 10"	"60.65"	"027"	n/a	n/a	n/a	n/a	n/a	n/a	"fixation"	n/a	n/a	n/a	n/a	"NULL"	n/a	"NULL"	"NULL"	"NULL"	"<p style=\"color: black; font-size: 80px; padding-left: 46%; padding-right: 12%; padding-top: 50%; padding-bottom: 15%\">+</p>"	"1116"	n/a	n/a	n/a	n/a	n/a	n/a	n/a	n/a	n/a
n/a	"image-keyboard-response"	"148"	"439366"	"0.0-5.0-2.0-1.47"	"stvc9h"	"600"	"1366"	"chrome"	"109.0.0"	"FALSE"	"Windows 10"	"60.65"	"027"	n/a	n/a	n/a	n/a	n/a	n/a	"Trial"	n/a	n/a	n/a	"832"	"arrowdown"	n/a	"NULL"	"NULL"	"NULL"	"stimuli/MullerLyer_-8.21429_-0.23665.png"	n/a	"MullerLyer"	"arrowdown"	"1130"	"TRUE"	"MullerLyer"	"-8.214290000"	"-0.236650000"	"1"	"66"
n/a	"html-keyboard-response"	"149"	"440520"	"0.0-5.0-2.0-0.48"	"stvc9h"	"600"	"1366"	"chrome"	"109.0.0"	"FALSE"	"Windows 10"	"60.65"	"027"	n/a	n/a	n/a	n/a	n/a	n/a	"fixation"	n/a	n/a	n/a	n/a	"NULL"	n/a	"NULL"	"NULL"	"NULL"	"<p style=\"color: black; font-size: 80px; padding-left: 13%; padding-right: 8%; padding-top: 48%; padding-bottom: 2%\">+</p>"	"1140"	n/a	n/a	n/a	n/a	n/a	n/a	n/a	n/a	n/a
n/a	"image-keyboard-response"	"150"	"441339"	"0.0-5.0-2.0-1.48"	"stvc9h"	"600"	"1366"	"chrome"	"109.0.0"	"FALSE"	"Windows 10"	"60.65"	"027"	n/a	n/a	n/a	n/a	n/a	n/a	"Trial"	n/a	n/a	n/a	"818"	"arrowdown"	n/a	"NULL"	"NULL"	"NULL"	"stimuli/MullerLyer_-14.12857_-0.23665.png"	n/a	"MullerLyer"	"arrowdown"	"1154"	"TRUE"	"MullerLyer"	"-14.12857000"	"-0.236650000"	"1"	"67"
n/a	"html-keyboard-response"	"151"	"442706"	"0.0-5.0-2.0-0.49"	"stvc9h"	"600"	"1366"	"chrome"	"109.0.0"	"FALSE"	"Windows 10"	"60.65"	"027"	n/a	n/a	n/a	n/a	n/a	n/a	"fixation"	n/a	n/a	n/a	n/a	"NULL"	n/a	"NULL"	"NULL"	"NULL"	"<p style=\"color: black; font-size: 80px; padding-left: 20%; padding-right: 33%; padding-top: 5%; padding-bottom: 30%\">+</p>"	"1350"	n/a	n/a	n/a	n/a	n/a	n/a	n/a	n/a	n/a
n/a	"image-keyboard-response"	"152"	"443915"	"0.0-5.0-2.0-1.49"	"stvc9h"	"600"	"1366"	"chrome"	"109.0.0"	"FALSE"	"Windows 10"	"60.65"	"027"	n/a	n/a	n/a	n/a	n/a	n/a	"Trial"	n/a	n/a	n/a	"1207"	"arrowup"	n/a	"NULL"	"NULL"	"NULL"	"stimuli/MullerLyer_2.30000_0.14541.png"	n/a	"MullerLyer"	"arrowup"	"1367"	"TRUE"	"MullerLyer"	"2.3000000000"	"0.1454100000"	"1"	"68"
n/a	"html-keyboard-response"	"153"	"445080"	"0.0-5.0-2.0-0.50"	"stvc9h"	"600"	"1366"	"chrome"	"109.0.0"	"FALSE"	"Windows 10"	"60.65"	"027"	n/a	n/a	n/a	n/a	n/a	n/a	"fixation"	n/a	n/a	n/a	n/a	"NULL"	n/a	"NULL"	"NULL"	"NULL"	"<p style=\"color: black; font-size: 80px; padding-left: 20%; padding-right: 8%; padding-top: 44%; padding-bottom: 5%\">+</p>"	"1158"	n/a	n/a	n/a	n/a	n/a	n/a	n/a	n/a	n/a
n/a	"image-keyboard-response"	"154"	"445846"	"0.0-5.0-2.0-1.50"	"stvc9h"	"600"	"1366"	"chrome"	"109.0.0"	"FALSE"	"Windows 10"	"60.65"	"027"	n/a	n/a	n/a	n/a	n/a	n/a	"Trial"	n/a	n/a	n/a	"765"	"arrowdown"	n/a	"NULL"	"NULL"	"NULL"	"stimuli/MullerLyer_-20.04286_-0.3500.png"	n/a	"MullerLyer"	"arrowdown"	"1165"	"TRUE"	"MullerLyer"	"-20.04286000"	"-0.350000000"	"1"	"69"
n/a	"html-keyboard-response"	"155"	"447022"	"0.0-5.0-2.0-0.51"	"stvc9h"	"600"	"1366"	"chrome"	"109.0.0"	"FALSE"	"Windows 10"	"60.65"	"027"	n/a	n/a	n/a	n/a	n/a	n/a	"fixation"	n/a	n/a	n/a	n/a	"NULL"	n/a	"NULL"	"NULL"	"NULL"	"<p style=\"color: black; font-size: 80px; padding-left: 8%; padding-right: 30%; padding-top: 8%; padding-bottom: 44%\">+</p>"	"1162"	n/a	n/a	n/a	n/a	n/a	n/a	n/a	n/a	n/a
n/a	"image-keyboard-response"	"156"	"448107"	"0.0-5.0-2.0-1.51"	"stvc9h"	"600"	"1366"	"chrome"	"109.0.0"	"FALSE"	"Windows 10"	"60.65"	"027"	n/a	n/a	n/a	n/a	n/a	n/a	"Trial"	n/a	n/a	n/a	"1085"	"arrowup"	n/a	"NULL"	"NULL"	"NULL"	"stimuli/MullerLyer_20.04286_0.35000.png"	n/a	"MullerLyer"	"arrowup"	"1176"	"TRUE"	"MullerLyer"	"20.042860000"	"0.3500000000"	"1"	"70"
n/a	"html-keyboard-response"	"157"	"449425"	"0.0-5.0-2.0-0.52"	"stvc9h"	"600"	"1366"	"chrome"	"109.0.0"	"FALSE"	"Windows 10"	"60.65"	"027"	n/a	n/a	n/a	n/a	n/a	n/a	"fixation"	n/a	n/a	n/a	n/a	"NULL"	n/a	"NULL"	"NULL"	"NULL"	"<p style=\"color: black; font-size: 80px; padding-left: 48%; padding-right: 12%; padding-top: 2%; padding-bottom: 39%\">+</p>"	"1298"	n/a	n/a	n/a	n/a	n/a	n/a	n/a	n/a	n/a
n/a	"image-keyboard-response"	"158"	"450085"	"0.0-5.0-2.0-1.52"	"stvc9h"	"600"	"1366"	"chrome"	"109.0.0"	"FALSE"	"Windows 10"	"60.65"	"027"	n/a	n/a	n/a	n/a	n/a	n/a	"Trial"	n/a	n/a	n/a	"660"	"arrowup"	n/a	"NULL"	"NULL"	"NULL"	"stimuli/MullerLyer_-14.12857_0.35000.png"	n/a	"MullerLyer"	"arrowup"	"1318"	"TRUE"	"MullerLyer"	"-14.12857000"	"0.3500000000"	"1"	"71"
n/a	"html-keyboard-response"	"159"	"451414"	"0.0-5.0-2.0-0.53"	"stvc9h"	"600"	"1366"	"chrome"	"109.0.0"	"FALSE"	"Windows 10"	"60.65"	"027"	n/a	n/a	n/a	n/a	n/a	n/a	"fixation"	n/a	n/a	n/a	n/a	"NULL"	n/a	"NULL"	"NULL"	"NULL"	"<p style=\"color: black; font-size: 80px; padding-left: 48%; padding-right: 19%; padding-top: 49%; padding-bottom: 11%\">+</p>"	"1314"	n/a	n/a	n/a	n/a	n/a	n/a	n/a	n/a	n/a
n/a	"image-keyboard-response"	"160"	"453230"	"0.0-5.0-2.0-1.53"	"stvc9h"	"600"	"1366"	"chrome"	"109.0.0"	"FALSE"	"Windows 10"	"60.65"	"027"	n/a	n/a	n/a	n/a	n/a	n/a	"Trial"	n/a	n/a	n/a	"1815"	"arrowup"	n/a	"NULL"	"NULL"	"NULL"	"stimuli/MullerLyer_14.12857_0.23665.png"	n/a	"MullerLyer"	"arrowup"	"1329"	"TRUE"	"MullerLyer"	"14.128570000"	"0.2366500000"	"1"	"72"
n/a	"html-keyboard-response"	"161"	"454610"	"0.0-5.0-2.0-0.54"	"stvc9h"	"600"	"1366"	"chrome"	"109.0.0"	"FALSE"	"Windows 10"	"60.65"	"027"	n/a	n/a	n/a	n/a	n/a	n/a	"fixation"	n/a	n/a	n/a	n/a	"NULL"	n/a	"NULL"	"NULL"	"NULL"	"<p style=\"color: black; font-size: 80px; padding-left: 22%; padding-right: 19%; padding-top: 28%; padding-bottom: 24%\">+</p>"	"1372"	n/a	n/a	n/a	n/a	n/a	n/a	n/a	n/a	n/a
n/a	"image-keyboard-response"	"162"	"455901"	"0.0-5.0-2.0-1.54"	"stvc9h"	"600"	"1366"	"chrome"	"109.0.0"	"FALSE"	"Windows 10"	"60.65"	"027"	n/a	n/a	n/a	n/a	n/a	n/a	"Trial"	n/a	n/a	n/a	"1291"	"arrowdown"	n/a	"NULL"	"NULL"	"NULL"	"stimuli/MullerLyer_2.30000_-0.07627.png"	n/a	"MullerLyer"	"arrowdown"	"1380"	"TRUE"	"MullerLyer"	"2.3000000000"	"-0.076270000"	"1"	"73"
n/a	"html-keyboard-response"	"163"	"457065"	"0.0-5.0-2.0-0.55"	"stvc9h"	"600"	"1366"	"chrome"	"109.0.0"	"FALSE"	"Windows 10"	"60.65"	"027"	n/a	n/a	n/a	n/a	n/a	n/a	"fixation"	n/a	n/a	n/a	n/a	"NULL"	n/a	"NULL"	"NULL"	"NULL"	"<p style=\"color: black; font-size: 80px; padding-left: 50%; padding-right: 26%; padding-top: 23%; padding-bottom: 25%\">+</p>"	"1144"	n/a	n/a	n/a	n/a	n/a	n/a	n/a	n/a	n/a
n/a	"image-keyboard-response"	"164"	"457799"	"0.0-5.0-2.0-1.55"	"stvc9h"	"600"	"1366"	"chrome"	"109.0.0"	"FALSE"	"Windows 10"	"60.65"	"027"	n/a	n/a	n/a	n/a	n/a	n/a	"Trial"	n/a	n/a	n/a	"733"	"arrowup"	n/a	"NULL"	"NULL"	"NULL"	"stimuli/MullerLyer_-2.3000_0.23665.png"	n/a	"MullerLyer"	"arrowup"	"1164"	"TRUE"	"MullerLyer"	"-2.300000000"	"0.2366500000"	"1"	"74"
n/a	"html-keyboard-response"	"165"	"459262"	"0.0-5.0-2.0-0.56"	"stvc9h"	"600"	"1366"	"chrome"	"109.0.0"	"FALSE"	"Windows 10"	"60.65"	"027"	n/a	n/a	n/a	n/a	n/a	n/a	"fixation"	n/a	n/a	n/a	n/a	"NULL"	n/a	"NULL"	"NULL"	"NULL"	"<p style=\"color: black; font-size: 80px; padding-left: 47%; padding-right: 40%; padding-top: 35%; padding-bottom: 0%\">+</p>"	"1461"	n/a	n/a	n/a	n/a	n/a	n/a	n/a	n/a	n/a
n/a	"image-keyboard-response"	"166"	"459920"	"0.0-5.0-2.0-1.56"	"stvc9h"	"600"	"1366"	"chrome"	"109.0.0"	"FALSE"	"Windows 10"	"60.65"	"027"	n/a	n/a	n/a	n/a	n/a	n/a	"Trial"	n/a	n/a	n/a	"657"	"arrowdown"	n/a	"NULL"	"NULL"	"NULL"	"stimuli/MullerLyer_-2.3000_-0.3500.png"	n/a	"MullerLyer"	"arrowdown"	"1463"	"TRUE"	"MullerLyer"	"-2.300000000"	"-0.350000000"	"1"	"75"
n/a	"html-keyboard-response"	"167"	"461264"	"0.0-5.0-2.0-0.57"	"stvc9h"	"600"	"1366"	"chrome"	"109.0.0"	"FALSE"	"Windows 10"	"60.65"	"027"	n/a	n/a	n/a	n/a	n/a	n/a	"fixation"	n/a	n/a	n/a	n/a	"NULL"	n/a	"NULL"	"NULL"	"NULL"	"<p style=\"color: black; font-size: 80px; padding-left: 44%; padding-right: 36%; padding-top: 12%; padding-bottom: 46%\">+</p>"	"1335"	n/a	n/a	n/a	n/a	n/a	n/a	n/a	n/a	n/a
n/a	"image-keyboard-response"	"168"	"461900"	"0.0-5.0-2.0-1.57"	"stvc9h"	"600"	"1366"	"chrome"	"109.0.0"	"FALSE"	"Windows 10"	"60.65"	"027"	n/a	n/a	n/a	n/a	n/a	n/a	"Trial"	n/a	n/a	n/a	"635"	"arrowdown"	n/a	"NULL"	"NULL"	"NULL"	"stimuli/MullerLyer_-20.04286_-0.23665.png"	n/a	"MullerLyer"	"arrowdown"	"1344"	"TRUE"	"MullerLyer"	"-20.04286000"	"-0.236650000"	"1"	"76"
n/a	"html-keyboard-response"	"169"	"463152"	"0.0-5.0-2.0-0.58"	"stvc9h"	"600"	"1366"	"chrome"	"109.0.0"	"FALSE"	"Windows 10"	"60.65"	"027"	n/a	n/a	n/a	n/a	n/a	n/a	"fixation"	n/a	n/a	n/a	n/a	"NULL"	n/a	"NULL"	"NULL"	"NULL"	"<p style=\"color: black; font-size: 80px; padding-left: 37%; padding-right: 40%; padding-top: 16%; padding-bottom: 1%\">+</p>"	"1234"	n/a	n/a	n/a	n/a	n/a	n/a	n/a	n/a	n/a
n/a	"image-keyboard-response"	"170"	"463845"	"0.0-5.0-2.0-1.58"	"stvc9h"	"600"	"1366"	"chrome"	"109.0.0"	"FALSE"	"Windows 10"	"60.65"	"027"	n/a	n/a	n/a	n/a	n/a	n/a	"Trial"	n/a	n/a	n/a	"692"	"arrowup"	n/a	"NULL"	"NULL"	"NULL"	"stimuli/MullerLyer_2.30000_0.23665.png"	n/a	"MullerLyer"	"arrowup"	"1252"	"TRUE"	"MullerLyer"	"2.3000000000"	"0.2366500000"	"1"	"77"
n/a	"html-keyboard-response"	"171"	"465258"	"0.0-5.0-2.0-0.59"	"stvc9h"	"600"	"1366"	"chrome"	"109.0.0"	"FALSE"	"Windows 10"	"60.65"	"027"	n/a	n/a	n/a	n/a	n/a	n/a	"fixation"	n/a	n/a	n/a	n/a	"NULL"	n/a	"NULL"	"NULL"	"NULL"	"<p style=\"color: black; font-size: 80px; padding-left: 4%; padding-right: 9%; padding-top: 17%; padding-bottom: 45%\">+</p>"	"1397"	n/a	n/a	n/a	n/a	n/a	n/a	n/a	n/a	n/a
n/a	"image-keyboard-response"	"172"	"465895"	"0.0-5.0-2.0-1.59"	"stvc9h"	"600"	"1366"	"chrome"	"109.0.0"	"FALSE"	"Windows 10"	"60.65"	"027"	n/a	n/a	n/a	n/a	n/a	n/a	"Trial"	n/a	n/a	n/a	"636"	"arrowup"	n/a	"NULL"	"NULL"	"NULL"	"stimuli/MullerLyer_-20.04286_0.14541.png"	n/a	"MullerLyer"	"arrowup"	"1413"	"TRUE"	"MullerLyer"	"-20.04286000"	"0.1454100000"	"1"	"78"
n/a	"html-keyboard-response"	"173"	"467268"	"0.0-5.0-2.0-0.60"	"stvc9h"	"600"	"1366"	"chrome"	"109.0.0"	"FALSE"	"Windows 10"	"60.65"	"027"	n/a	n/a	n/a	n/a	n/a	n/a	"fixation"	n/a	n/a	n/a	n/a	"NULL"	n/a	"NULL"	"NULL"	"NULL"	"<p style=\"color: black; font-size: 80px; padding-left: 41%; padding-right: 34%; padding-top: 5%; padding-bottom: 49%\">+</p>"	"1363"	n/a	n/a	n/a	n/a	n/a	n/a	n/a	n/a	n/a
n/a	"image-keyboard-response"	"174"	"468021"	"0.0-5.0-2.0-1.60"	"stvc9h"	"600"	"1366"	"chrome"	"109.0.0"	"FALSE"	"Windows 10"	"60.65"	"027"	n/a	n/a	n/a	n/a	n/a	n/a	"Trial"	n/a	n/a	n/a	"753"	"arrowdown"	n/a	"NULL"	"NULL"	"NULL"	"stimuli/MullerLyer_2.30000_-0.23665.png"	n/a	"MullerLyer"	"arrowdown"	"1373"	"TRUE"	"MullerLyer"	"2.3000000000"	"-0.236650000"	"1"	"79"
n/a	"html-keyboard-response"	"175"	"469113"	"0.0-5.0-2.0-0.61"	"stvc9h"	"600"	"1366"	"chrome"	"109.0.0"	"FALSE"	"Windows 10"	"60.65"	"027"	n/a	n/a	n/a	n/a	n/a	n/a	"fixation"	n/a	n/a	n/a	n/a	"NULL"	n/a	"NULL"	"NULL"	"NULL"	"<p style=\"color: black; font-size: 80px; padding-left: 44%; padding-right: 20%; padding-top: 46%; padding-bottom: 2%\">+</p>"	"1076"	n/a	n/a	n/a	n/a	n/a	n/a	n/a	n/a	n/a
n/a	"image-keyboard-response"	"176"	"469687"	"0.0-5.0-2.0-1.61"	"stvc9h"	"600"	"1366"	"chrome"	"109.0.0"	"FALSE"	"Windows 10"	"60.65"	"027"	n/a	n/a	n/a	n/a	n/a	n/a	"Trial"	n/a	n/a	n/a	"573"	"arrowup"	n/a	"NULL"	"NULL"	"NULL"	"stimuli/MullerLyer_14.12857_0.35000.png"	n/a	"MullerLyer"	"arrowup"	"1092"	"TRUE"	"MullerLyer"	"14.128570000"	"0.3500000000"	"1"	"80"
n/a	"html-keyboard-response"	"177"	"470743"	"0.0-5.0-2.0-0.62"	"stvc9h"	"600"	"1366"	"chrome"	"109.0.0"	"FALSE"	"Windows 10"	"60.65"	"027"	n/a	n/a	n/a	n/a	n/a	n/a	"fixation"	n/a	n/a	n/a	n/a	"NULL"	n/a	"NULL"	"NULL"	"NULL"	"<p style=\"color: black; font-size: 80px; padding-left: 33%; padding-right: 30%; padding-top: 5%; padding-bottom: 29%\">+</p>"	"1048"	n/a	n/a	n/a	n/a	n/a	n/a	n/a	n/a	n/a
n/a	"image-keyboard-response"	"178"	"471975"	"0.0-5.0-2.0-1.62"	"stvc9h"	"600"	"1366"	"chrome"	"109.0.0"	"FALSE"	"Windows 10"	"60.65"	"027"	n/a	n/a	n/a	n/a	n/a	n/a	"Trial"	n/a	n/a	n/a	"1231"	"arrowdown"	n/a	"NULL"	"NULL"	"NULL"	"stimuli/MullerLyer_14.12857_-0.14541.png"	n/a	"MullerLyer"	"arrowdown"	"1056"	"TRUE"	"MullerLyer"	"14.128570000"	"-0.145410000"	"1"	"81"
n/a	"html-keyboard-response"	"179"	"473417"	"0.0-5.0-2.0-0.63"	"stvc9h"	"600"	"1366"	"chrome"	"109.0.0"	"FALSE"	"Windows 10"	"60.65"	"027"	n/a	n/a	n/a	n/a	n/a	n/a	"fixation"	n/a	n/a	n/a	n/a	"NULL"	n/a	"NULL"	"NULL"	"NULL"	"<p style=\"color: black; font-size: 80px; padding-left: 25%; padding-right: 29%; padding-top: 12%; padding-bottom: 22%\">+</p>"	"1423"	n/a	n/a	n/a	n/a	n/a	n/a	n/a	n/a	n/a
n/a	"image-keyboard-response"	"180"	"474055"	"0.0-5.0-2.0-1.63"	"stvc9h"	"600"	"1366"	"chrome"	"109.0.0"	"FALSE"	"Windows 10"	"60.65"	"027"	n/a	n/a	n/a	n/a	n/a	n/a	"Trial"	n/a	n/a	n/a	"637"	"arrowup"	n/a	"NULL"	"NULL"	"NULL"	"stimuli/MullerLyer_-20.04286_0.35000.png"	n/a	"MullerLyer"	"arrowup"	"1442"	"TRUE"	"MullerLyer"	"-20.04286000"	"0.3500000000"	"1"	"82"
n/a	"html-button-response"	"181"	"500869"	"0.0-5.0-3.0"	"stvc9h"	"600"	"1366"	"chrome"	"109.0.0"	"FALSE"	"Windows 10"	"60.65"	"027"	n/a	n/a	n/a	n/a	n/a	n/a	"block_results"	n/a	n/a	n/a	"26811"	"0"	n/a	"NULL"	"NULL"	"NULL"	"<p>Your score for this illusion is <p style=\"color: black; font-size: 48px; font-weight: bold;\">70.4 %</p><hr><p>Can you do better in the next illusion?</p>"	n/a	n/a	n/a	n/a	n/a	n/a	n/a	n/a	n/a	n/a
"TRUE"	"preload"	"182"	"501058"	"0.0-6.0-0.0"	"stvc9h"	"600"	"1366"	"chrome"	"109.0.0"	"FALSE"	"Windows 10"	"60.65"	"027"	n/a	n/a	n/a	n/a	n/a	n/a	n/a	n/a	n/a	n/a	n/a	"NULL"	"FALSE"	"list()"	"list()"	"list()"	n/a	n/a	n/a	n/a	n/a	n/a	n/a	n/a	n/a	n/a	n/a
n/a	"html-keyboard-response"	"183"	"506649"	"0.0-6.0-1.0"	"stvc9h"	"600"	"1366"	"chrome"	"109.0.0"	"FALSE"	"Windows 10"	"60.65"	"027"	n/a	n/a	n/a	n/a	n/a	n/a	n/a	n/a	n/a	n/a	"5591"	"enter"	n/a	"NULL"	"NULL"	"NULL"	"<p><b>Part 2/6</b></p><p>In this part, two red lines will appear side by side.</p><p>Your task is to tell <b>which line is longer</b> in length, regardless of their orientation, as fast as you can, and without making errors.</p><p>Don't get distracted by the orientation of the lines!</p><p>Press <b>the LEFT or the RIGHT arrow</b> to indicate which <b>line is the longer one.</b></p><div style='float: center'><img src='materials/instructions/VerticalHorizontal_Demo.png' height='300'></img><p><img src='utils/answer/answer_leftright_keyboard.PNG' height='150'></img></p><p class='small'>In this example, the correct answer is the <b>LEFT arrow</b>.</p></div><p>Are you ready? <b>Press ENTER to start</b></p>"	n/a	n/a	n/a	n/a	n/a	n/a	n/a	n/a	n/a	n/a
n/a	"html-keyboard-response"	"184"	"508300"	"0.0-6.0-2.0-0.0"	"stvc9h"	"600"	"1366"	"chrome"	"109.0.0"	"FALSE"	"Windows 10"	"60.65"	"027"	n/a	n/a	n/a	n/a	n/a	n/a	"fixation"	n/a	n/a	n/a	n/a	"NULL"	n/a	"NULL"	"NULL"	"NULL"	"<p style=\"color: black; font-size: 80px; padding-left: 43%; padding-right: 8%; padding-top: 27%; padding-bottom: 28%\">+</p>"	"1137"	n/a	n/a	n/a	n/a	n/a	n/a	n/a	n/a	n/a
n/a	"image-keyboard-response"	"185"	"509910"	"0.0-6.0-2.0-1.0"	"stvc9h"	"600"	"1366"	"chrome"	"109.0.0"	"FALSE"	"Windows 10"	"60.65"	"027"	n/a	n/a	n/a	n/a	n/a	n/a	"Trial"	n/a	n/a	n/a	"1610"	"arrowleft"	n/a	"NULL"	"NULL"	"NULL"	"stimuli/VerticalHorizontal_-11.78571_0.10960.png"	n/a	"VerticalHorizontal"	"arrowleft"	"1651"	"TRUE"	"VerticalHorizontal"	"-11.78571000"	"0.1096000000"	"2"	"1"
n/a	"html-keyboard-response"	"186"	"510989"	"0.0-6.0-2.0-0.1"	"stvc9h"	"600"	"1366"	"chrome"	"109.0.0"	"FALSE"	"Windows 10"	"60.65"	"027"	n/a	n/a	n/a	n/a	n/a	n/a	"fixation"	n/a	n/a	n/a	n/a	"NULL"	n/a	"NULL"	"NULL"	"NULL"	"<p style=\"color: black; font-size: 80px; padding-left: 41%; padding-right: 12%; padding-top: 36%; padding-bottom: 15%\">+</p>"	"1073"	n/a	n/a	n/a	n/a	n/a	n/a	n/a	n/a	n/a
n/a	"image-keyboard-response"	"187"	"511478"	"0.0-6.0-2.0-1.1"	"stvc9h"	"600"	"1366"	"chrome"	"109.0.0"	"FALSE"	"Windows 10"	"60.65"	"027"	n/a	n/a	n/a	n/a	n/a	n/a	"Trial"	n/a	n/a	n/a	"487"	"arrowleft"	n/a	"NULL"	"NULL"	"NULL"	"stimuli/VerticalHorizontal_28.75714_-0.1096.png"	n/a	"VerticalHorizontal"	"arrowright"	"1079"	"FALSE"	"VerticalHorizontal"	"28.757140000"	"-0.109600000"	"2"	"2"
n/a	"html-keyboard-response"	"188"	"512978"	"0.0-6.0-2.0-0.2"	"stvc9h"	"600"	"1366"	"chrome"	"109.0.0"	"FALSE"	"Windows 10"	"60.65"	"027"	n/a	n/a	n/a	n/a	n/a	n/a	"fixation"	n/a	n/a	n/a	n/a	"NULL"	n/a	"NULL"	"NULL"	"NULL"	"<p style=\"color: black; font-size: 80px; padding-left: 18%; padding-right: 39%; padding-top: 26%; padding-bottom: 30%\">+</p>"	"1490"	n/a	n/a	n/a	n/a	n/a	n/a	n/a	n/a	n/a
n/a	"image-keyboard-response"	"189"	"513589"	"0.0-6.0-2.0-1.2"	"stvc9h"	"600"	"1366"	"chrome"	"109.0.0"	"FALSE"	"Windows 10"	"60.65"	"027"	n/a	n/a	n/a	n/a	n/a	n/a	"Trial"	n/a	n/a	n/a	"610"	"arrowleft"	n/a	"NULL"	"NULL"	"NULL"	"stimuli/VerticalHorizontal_-11.78571_0.22500.png"	n/a	"VerticalHorizontal"	"arrowleft"	"1500"	"TRUE"	"VerticalHorizontal"	"-11.78571000"	"0.2250000000"	"2"	"3"
n/a	"html-keyboard-response"	"190"	"514736"	"0.0-6.0-2.0-0.3"	"stvc9h"	"600"	"1366"	"chrome"	"109.0.0"	"FALSE"	"Windows 10"	"60.65"	"027"	n/a	n/a	n/a	n/a	n/a	n/a	"fixation"	n/a	n/a	n/a	n/a	"NULL"	n/a	"NULL"	"NULL"	"NULL"	"<p style=\"color: black; font-size: 80px; padding-left: 37%; padding-right: 19%; padding-top: 1%; padding-bottom: 43%\">+</p>"	"1137"	n/a	n/a	n/a	n/a	n/a	n/a	n/a	n/a	n/a
n/a	"image-keyboard-response"	"191"	"516383"	"0.0-6.0-2.0-1.3"	"stvc9h"	"600"	"1366"	"chrome"	"109.0.0"	"FALSE"	"Windows 10"	"60.65"	"027"	n/a	n/a	n/a	n/a	n/a	n/a	"Trial"	n/a	n/a	n/a	"1646"	"arrowright"	n/a	"NULL"	"NULL"	"NULL"	"stimuli/VerticalHorizontal_3.30000_0.06730.png"	n/a	"VerticalHorizontal"	"arrowleft"	"1147"	"FALSE"	"VerticalHorizontal"	"3.3000000000"	"0.0673000000"	"2"	"4"
n/a	"html-keyboard-response"	"192"	"517708"	"0.0-6.0-2.0-0.4"	"stvc9h"	"600"	"1366"	"chrome"	"109.0.0"	"FALSE"	"Windows 10"	"60.65"	"027"	n/a	n/a	n/a	n/a	n/a	n/a	"fixation"	n/a	n/a	n/a	n/a	"NULL"	n/a	"NULL"	"NULL"	"NULL"	"<p style=\"color: black; font-size: 80px; padding-left: 40%; padding-right: 10%; padding-top: 13%; padding-bottom: 28%\">+</p>"	"1308"	n/a	n/a	n/a	n/a	n/a	n/a	n/a	n/a	n/a
n/a	"image-keyboard-response"	"193"	"519239"	"0.0-6.0-2.0-1.4"	"stvc9h"	"600"	"1366"	"chrome"	"109.0.0"	"FALSE"	"Windows 10"	"60.65"	"027"	n/a	n/a	n/a	n/a	n/a	n/a	"Trial"	n/a	n/a	n/a	"1530"	"arrowright"	n/a	"NULL"	"NULL"	"NULL"	"stimuli/VerticalHorizontal_20.27143_-0.1096.png"	n/a	"VerticalHorizontal"	"arrowright"	"1325"	"TRUE"	"VerticalHorizontal"	"20.271430000"	"-0.109600000"	"2"	"5"
n/a	"html-keyboard-response"	"194"	"520627"	"0.0-6.0-2.0-0.5"	"stvc9h"	"600"	"1366"	"chrome"	"109.0.0"	"FALSE"	"Windows 10"	"60.65"	"027"	n/a	n/a	n/a	n/a	n/a	n/a	"fixation"	n/a	n/a	n/a	n/a	"NULL"	n/a	"NULL"	"NULL"	"NULL"	"<p style=\"color: black; font-size: 80px; padding-left: 0%; padding-right: 25%; padding-top: 33%; padding-bottom: 35%\">+</p>"	"1369"	n/a	n/a	n/a	n/a	n/a	n/a	n/a	n/a	n/a
n/a	"image-keyboard-response"	"195"	"522134"	"0.0-6.0-2.0-1.5"	"stvc9h"	"600"	"1366"	"chrome"	"109.0.0"	"FALSE"	"Windows 10"	"60.65"	"027"	n/a	n/a	n/a	n/a	n/a	n/a	"Trial"	n/a	n/a	n/a	"1506"	"arrowright"	n/a	"NULL"	"NULL"	"NULL"	"stimuli/VerticalHorizontal_11.78571_-0.0673.png"	n/a	"VerticalHorizontal"	"arrowright"	"1388"	"TRUE"	"VerticalHorizontal"	"11.785710000"	"-0.067300000"	"2"	"6"
n/a	"html-keyboard-response"	"196"	"523594"	"0.0-6.0-2.0-0.6"	"stvc9h"	"600"	"1366"	"chrome"	"109.0.0"	"FALSE"	"Windows 10"	"60.65"	"027"	n/a	n/a	n/a	n/a	n/a	n/a	"fixation"	n/a	n/a	n/a	n/a	"NULL"	n/a	"NULL"	"NULL"	"NULL"	"<p style=\"color: black; font-size: 80px; padding-left: 19%; padding-right: 8%; padding-top: 32%; padding-bottom: 47%\">+</p>"	"1445"	n/a	n/a	n/a	n/a	n/a	n/a	n/a	n/a	n/a
n/a	"image-keyboard-response"	"197"	"525394"	"0.0-6.0-2.0-1.6"	"stvc9h"	"600"	"1366"	"chrome"	"109.0.0"	"FALSE"	"Windows 10"	"60.65"	"027"	n/a	n/a	n/a	n/a	n/a	n/a	"Trial"	n/a	n/a	n/a	"1799"	"arrowright"	n/a	"NULL"	"NULL"	"NULL"	"stimuli/VerticalHorizontal_3.30000_-0.1096.png"	n/a	"VerticalHorizontal"	"arrowright"	"1460"	"TRUE"	"VerticalHorizontal"	"3.3000000000"	"-0.109600000"	"2"	"7"
n/a	"html-keyboard-response"	"198"	"526614"	"0.0-6.0-2.0-0.7"	"stvc9h"	"600"	"1366"	"chrome"	"109.0.0"	"FALSE"	"Windows 10"	"60.65"	"027"	n/a	n/a	n/a	n/a	n/a	n/a	"fixation"	n/a	n/a	n/a	n/a	"NULL"	n/a	"NULL"	"NULL"	"NULL"	"<p style=\"color: black; font-size: 80px; padding-left: 42%; padding-right: 20%; padding-top: 16%; padding-bottom: 40%\">+</p>"	"1210"	n/a	n/a	n/a	n/a	n/a	n/a	n/a	n/a	n/a
n/a	"image-keyboard-response"	"199"	"529002"	"0.0-6.0-2.0-1.7"	"stvc9h"	"600"	"1366"	"chrome"	"109.0.0"	"FALSE"	"Windows 10"	"60.65"	"027"	n/a	n/a	n/a	n/a	n/a	n/a	"Trial"	n/a	n/a	n/a	"2388"	"arrowleft"	n/a	"NULL"	"NULL"	"NULL"	"stimuli/VerticalHorizontal_20.27143_0.06730.png"	n/a	"VerticalHorizontal"	"arrowleft"	"1220"	"TRUE"	"VerticalHorizontal"	"20.271430000"	"0.0673000000"	"2"	"8"
n/a	"html-keyboard-response"	"200"	"530220"	"0.0-6.0-2.0-0.8"	"stvc9h"	"600"	"1366"	"chrome"	"109.0.0"	"FALSE"	"Windows 10"	"60.65"	"027"	n/a	n/a	n/a	n/a	n/a	n/a	"fixation"	n/a	n/a	n/a	n/a	"NULL"	n/a	"NULL"	"NULL"	"NULL"	"<p style=\"color: black; font-size: 80px; padding-left: 4%; padding-right: 9%; padding-top: 20%; padding-bottom: 29%\">+</p>"	"1198"	n/a	n/a	n/a	n/a	n/a	n/a	n/a	n/a	n/a
n/a	"image-keyboard-response"	"201"	"531053"	"0.0-6.0-2.0-1.8"	"stvc9h"	"600"	"1366"	"chrome"	"109.0.0"	"FALSE"	"Windows 10"	"60.65"	"027"	n/a	n/a	n/a	n/a	n/a	n/a	"Trial"	n/a	n/a	n/a	"833"	"arrowleft"	n/a	"NULL"	"NULL"	"NULL"	"stimuli/VerticalHorizontal_3.30000_0.22500.png"	n/a	"VerticalHorizontal"	"arrowleft"	"1218"	"TRUE"	"VerticalHorizontal"	"3.3000000000"	"0.2250000000"	"2"	"9"
n/a	"html-keyboard-response"	"202"	"532119"	"0.0-6.0-2.0-0.9"	"stvc9h"	"600"	"1366"	"chrome"	"109.0.0"	"FALSE"	"Windows 10"	"60.65"	"027"	n/a	n/a	n/a	n/a	n/a	n/a	"fixation"	n/a	n/a	n/a	n/a	"NULL"	n/a	"NULL"	"NULL"	"NULL"	"<p style=\"color: black; font-size: 80px; padding-left: 18%; padding-right: 15%; padding-top: 14%; padding-bottom: 27%\">+</p>"	"1055"	n/a	n/a	n/a	n/a	n/a	n/a	n/a	n/a	n/a
n/a	"image-keyboard-response"	"203"	"533079"	"0.0-6.0-2.0-1.9"	"stvc9h"	"600"	"1366"	"chrome"	"109.0.0"	"FALSE"	"Windows 10"	"60.65"	"027"	n/a	n/a	n/a	n/a	n/a	n/a	"Trial"	n/a	n/a	n/a	"959"	"arrowleft"	n/a	"NULL"	"NULL"	"NULL"	"stimuli/VerticalHorizontal_3.30000_0.16217.png"	n/a	"VerticalHorizontal"	"arrowleft"	"1066"	"TRUE"	"VerticalHorizontal"	"3.3000000000"	"0.1621700000"	"2"	"10"
n/a	"html-keyboard-response"	"204"	"534096"	"0.0-6.0-2.0-0.10"	"stvc9h"	"600"	"1366"	"chrome"	"109.0.0"	"FALSE"	"Windows 10"	"60.65"	"027"	n/a	n/a	n/a	n/a	n/a	n/a	"fixation"	n/a	n/a	n/a	n/a	"NULL"	n/a	"NULL"	"NULL"	"NULL"	"<p style=\"color: black; font-size: 80px; padding-left: 24%; padding-right: 10%; padding-top: 30%; padding-bottom: 18%\">+</p>"	"1013"	n/a	n/a	n/a	n/a	n/a	n/a	n/a	n/a	n/a
n/a	"image-keyboard-response"	"205"	"535027"	"0.0-6.0-2.0-1.10"	"stvc9h"	"600"	"1366"	"chrome"	"109.0.0"	"FALSE"	"Windows 10"	"60.65"	"027"	n/a	n/a	n/a	n/a	n/a	n/a	"Trial"	n/a	n/a	n/a	"931"	"arrowright"	n/a	"NULL"	"NULL"	"NULL"	"stimuli/VerticalHorizontal_-3.3000_-0.16217.png"	n/a	"VerticalHorizontal"	"arrowright"	"1017"	"TRUE"	"VerticalHorizontal"	"-3.300000000"	"-0.162170000"	"2"	"11"
n/a	"html-keyboard-response"	"206"	"536361"	"0.0-6.0-2.0-0.11"	"stvc9h"	"600"	"1366"	"chrome"	"109.0.0"	"FALSE"	"Windows 10"	"60.65"	"027"	n/a	n/a	n/a	n/a	n/a	n/a	"fixation"	n/a	n/a	n/a	n/a	"NULL"	n/a	"NULL"	"NULL"	"NULL"	"<p style=\"color: black; font-size: 80px; padding-left: 11%; padding-right: 8%; padding-top: 19%; padding-bottom: 35%\">+</p>"	"1326"	n/a	n/a	n/a	n/a	n/a	n/a	n/a	n/a	n/a
n/a	"image-keyboard-response"	"207"	"537923"	"0.0-6.0-2.0-1.11"	"stvc9h"	"600"	"1366"	"chrome"	"109.0.0"	"FALSE"	"Windows 10"	"60.65"	"027"	n/a	n/a	n/a	n/a	n/a	n/a	"Trial"	n/a	n/a	n/a	"1561"	"arrowright"	n/a	"NULL"	"NULL"	"NULL"	"stimuli/VerticalHorizontal_20.27143_-0.2250.png"	n/a	"VerticalHorizontal"	"arrowright"	"1334"	"TRUE"	"VerticalHorizontal"	"20.271430000"	"-0.225000000"	"2"	"12"
n/a	"html-keyboard-response"	"208"	"539161"	"0.0-6.0-2.0-0.12"	"stvc9h"	"600"	"1366"	"chrome"	"109.0.0"	"FALSE"	"Windows 10"	"60.65"	"027"	n/a	n/a	n/a	n/a	n/a	n/a	"fixation"	n/a	n/a	n/a	n/a	"NULL"	n/a	"NULL"	"NULL"	"NULL"	"<p style=\"color: black; font-size: 80px; padding-left: 32%; padding-right: 33%; padding-top: 7%; padding-bottom: 41%\">+</p>"	"1218"	n/a	n/a	n/a	n/a	n/a	n/a	n/a	n/a	n/a
n/a	"image-keyboard-response"	"209"	"541084"	"0.0-6.0-2.0-1.12"	"stvc9h"	"600"	"1366"	"chrome"	"109.0.0"	"FALSE"	"Windows 10"	"60.65"	"027"	n/a	n/a	n/a	n/a	n/a	n/a	"Trial"	n/a	n/a	n/a	"1922"	"arrowright"	n/a	"NULL"	"NULL"	"NULL"	"stimuli/VerticalHorizontal_28.75714_0.10960.png"	n/a	"VerticalHorizontal"	"arrowleft"	"1238"	"FALSE"	"VerticalHorizontal"	"28.757140000"	"0.1096000000"	"2"	"13"
n/a	"html-keyboard-response"	"210"	"542168"	"0.0-6.0-2.0-0.13"	"stvc9h"	"600"	"1366"	"chrome"	"109.0.0"	"FALSE"	"Windows 10"	"60.65"	"027"	n/a	n/a	n/a	n/a	n/a	n/a	"fixation"	n/a	n/a	n/a	n/a	"NULL"	n/a	"NULL"	"NULL"	"NULL"	"<p style=\"color: black; font-size: 80px; padding-left: 10%; padding-right: 2%; padding-top: 17%; padding-bottom: 16%\">+</p>"	"1076"	n/a	n/a	n/a	n/a	n/a	n/a	n/a	n/a	n/a
n/a	"image-keyboard-response"	"211"	"542891"	"0.0-6.0-2.0-1.13"	"stvc9h"	"600"	"1366"	"chrome"	"109.0.0"	"FALSE"	"Windows 10"	"60.65"	"027"	n/a	n/a	n/a	n/a	n/a	n/a	"Trial"	n/a	n/a	n/a	"722"	"arrowright"	n/a	"NULL"	"NULL"	"NULL"	"stimuli/VerticalHorizontal_-28.75714_-0.16217.png"	n/a	"VerticalHorizontal"	"arrowright"	"1084"	"TRUE"	"VerticalHorizontal"	"-28.75714000"	"-0.162170000"	"2"	"14"
n/a	"html-keyboard-response"	"212"	"544384"	"0.0-6.0-2.0-0.14"	"stvc9h"	"600"	"1366"	"chrome"	"109.0.0"	"FALSE"	"Windows 10"	"60.65"	"027"	n/a	n/a	n/a	n/a	n/a	n/a	"fixation"	n/a	n/a	n/a	n/a	"NULL"	n/a	"NULL"	"NULL"	"NULL"	"<p style=\"color: black; font-size: 80px; padding-left: 11%; padding-right: 19%; padding-top: 47%; padding-bottom: 46%\">+</p>"	"1484"	n/a	n/a	n/a	n/a	n/a	n/a	n/a	n/a	n/a
n/a	"image-keyboard-response"	"213"	"545375"	"0.0-6.0-2.0-1.14"	"stvc9h"	"600"	"1366"	"chrome"	"109.0.0"	"FALSE"	"Windows 10"	"60.65"	"027"	n/a	n/a	n/a	n/a	n/a	n/a	"Trial"	n/a	n/a	n/a	"990"	"arrowleft"	n/a	"NULL"	"NULL"	"NULL"	"stimuli/VerticalHorizontal_-28.75714_0.10960.png"	n/a	"VerticalHorizontal"	"arrowleft"	"1493"	"TRUE"	"VerticalHorizontal"	"-28.75714000"	"0.1096000000"	"2"	"15"
n/a	"html-keyboard-response"	"214"	"546770"	"0.0-6.0-2.0-0.15"	"stvc9h"	"600"	"1366"	"chrome"	"109.0.0"	"FALSE"	"Windows 10"	"60.65"	"027"	n/a	n/a	n/a	n/a	n/a	n/a	"fixation"	n/a	n/a	n/a	n/a	"NULL"	n/a	"NULL"	"NULL"	"NULL"	"<p style=\"color: black; font-size: 80px; padding-left: 32%; padding-right: 47%; padding-top: 15%; padding-bottom: 7%\">+</p>"	"1378"	n/a	n/a	n/a	n/a	n/a	n/a	n/a	n/a	n/a
n/a	"image-keyboard-response"	"215"	"547942"	"0.0-6.0-2.0-1.15"	"stvc9h"	"600"	"1366"	"chrome"	"109.0.0"	"FALSE"	"Windows 10"	"60.65"	"027"	n/a	n/a	n/a	n/a	n/a	n/a	"Trial"	n/a	n/a	n/a	"1171"	"arrowleft"	n/a	"NULL"	"NULL"	"NULL"	"stimuli/VerticalHorizontal_-28.75714_0.06730.png"	n/a	"VerticalHorizontal"	"arrowleft"	"1395"	"TRUE"	"VerticalHorizontal"	"-28.75714000"	"0.0673000000"	"2"	"16"
n/a	"html-keyboard-response"	"216"	"549334"	"0.0-6.0-2.0-0.16"	"stvc9h"	"600"	"1366"	"chrome"	"109.0.0"	"FALSE"	"Windows 10"	"60.65"	"027"	n/a	n/a	n/a	n/a	n/a	n/a	"fixation"	n/a	n/a	n/a	n/a	"NULL"	n/a	"NULL"	"NULL"	"NULL"	"<p style=\"color: black; font-size: 80px; padding-left: 3%; padding-right: 39%; padding-top: 3%; padding-bottom: 26%\">+</p>"	"1377"	n/a	n/a	n/a	n/a	n/a	n/a	n/a	n/a	n/a
n/a	"image-keyboard-response"	"217"	"550472"	"0.0-6.0-2.0-1.16"	"stvc9h"	"600"	"1366"	"chrome"	"109.0.0"	"FALSE"	"Windows 10"	"60.65"	"027"	n/a	n/a	n/a	n/a	n/a	n/a	"Trial"	n/a	n/a	n/a	"1138"	"arrowright"	n/a	"NULL"	"NULL"	"NULL"	"stimuli/VerticalHorizontal_3.30000_-0.0673.png"	n/a	"VerticalHorizontal"	"arrowright"	"1392"	"TRUE"	"VerticalHorizontal"	"3.3000000000"	"-0.067300000"	"2"	"17"
n/a	"html-keyboard-response"	"218"	"551488"	"0.0-6.0-2.0-0.17"	"stvc9h"	"600"	"1366"	"chrome"	"109.0.0"	"FALSE"	"Windows 10"	"60.65"	"027"	n/a	n/a	n/a	n/a	n/a	n/a	"fixation"	n/a	n/a	n/a	n/a	"NULL"	n/a	"NULL"	"NULL"	"NULL"	"<p style=\"color: black; font-size: 80px; padding-left: 49%; padding-right: 27%; padding-top: 29%; padding-bottom: 46%\">+</p>"	"1007"	n/a	n/a	n/a	n/a	n/a	n/a	n/a	n/a	n/a
n/a	"image-keyboard-response"	"219"	"552429"	"0.0-6.0-2.0-1.17"	"stvc9h"	"600"	"1366"	"chrome"	"109.0.0"	"FALSE"	"Windows 10"	"60.65"	"027"	n/a	n/a	n/a	n/a	n/a	n/a	"Trial"	n/a	n/a	n/a	"940"	"arrowleft"	n/a	"NULL"	"NULL"	"NULL"	"stimuli/VerticalHorizontal_-3.3000_0.22500.png"	n/a	"VerticalHorizontal"	"arrowleft"	"1016"	"TRUE"	"VerticalHorizontal"	"-3.300000000"	"0.2250000000"	"2"	"18"
n/a	"html-keyboard-response"	"220"	"553892"	"0.0-6.0-2.0-0.18"	"stvc9h"	"600"	"1366"	"chrome"	"109.0.0"	"FALSE"	"Windows 10"	"60.65"	"027"	n/a	n/a	n/a	n/a	n/a	n/a	"fixation"	n/a	n/a	n/a	n/a	"NULL"	n/a	"NULL"	"NULL"	"NULL"	"<p style=\"color: black; font-size: 80px; padding-left: 2%; padding-right: 19%; padding-top: 49%; padding-bottom: 12%\">+</p>"	"1445"	n/a	n/a	n/a	n/a	n/a	n/a	n/a	n/a	n/a
n/a	"image-keyboard-response"	"221"	"554742"	"0.0-6.0-2.0-1.18"	"stvc9h"	"600"	"1366"	"chrome"	"109.0.0"	"FALSE"	"Windows 10"	"60.65"	"027"	n/a	n/a	n/a	n/a	n/a	n/a	"Trial"	n/a	n/a	n/a	"849"	"arrowleft"	n/a	"NULL"	"NULL"	"NULL"	"stimuli/VerticalHorizontal_-28.75714_0.22500.png"	n/a	"VerticalHorizontal"	"arrowleft"	"1463"	"TRUE"	"VerticalHorizontal"	"-28.75714000"	"0.2250000000"	"2"	"19"
n/a	"html-keyboard-response"	"222"	"556190"	"0.0-6.0-2.0-0.19"	"stvc9h"	"600"	"1366"	"chrome"	"109.0.0"	"FALSE"	"Windows 10"	"60.65"	"027"	n/a	n/a	n/a	n/a	n/a	n/a	"fixation"	n/a	n/a	n/a	n/a	"NULL"	n/a	"NULL"	"NULL"	"NULL"	"<p style=\"color: black; font-size: 80px; padding-left: 3%; padding-right: 29%; padding-top: 15%; padding-bottom: 22%\">+</p>"	"1437"	n/a	n/a	n/a	n/a	n/a	n/a	n/a	n/a	n/a
n/a	"image-keyboard-response"	"223"	"557031"	"0.0-6.0-2.0-1.19"	"stvc9h"	"600"	"1366"	"chrome"	"109.0.0"	"FALSE"	"Windows 10"	"60.65"	"027"	n/a	n/a	n/a	n/a	n/a	n/a	"Trial"	n/a	n/a	n/a	"840"	"arrowleft"	n/a	"NULL"	"NULL"	"NULL"	"stimuli/VerticalHorizontal_-20.27143_0.16217.png"	n/a	"VerticalHorizontal"	"arrowleft"	"1448"	"TRUE"	"VerticalHorizontal"	"-20.27143000"	"0.1621700000"	"2"	"20"
n/a	"html-keyboard-response"	"224"	"558074"	"0.0-6.0-2.0-0.20"	"stvc9h"	"600"	"1366"	"chrome"	"109.0.0"	"FALSE"	"Windows 10"	"60.65"	"027"	n/a	n/a	n/a	n/a	n/a	n/a	"fixation"	n/a	n/a	n/a	n/a	"NULL"	n/a	"NULL"	"NULL"	"NULL"	"<p style=\"color: black; font-size: 80px; padding-left: 45%; padding-right: 40%; padding-top: 5%; padding-bottom: 21%\">+</p>"	"1024"	n/a	n/a	n/a	n/a	n/a	n/a	n/a	n/a	n/a
n/a	"image-keyboard-response"	"225"	"559711"	"0.0-6.0-2.0-1.20"	"stvc9h"	"600"	"1366"	"chrome"	"109.0.0"	"FALSE"	"Windows 10"	"60.65"	"027"	n/a	n/a	n/a	n/a	n/a	n/a	"Trial"	n/a	n/a	n/a	"1636"	"arrowright"	n/a	"NULL"	"NULL"	"NULL"	"stimuli/VerticalHorizontal_-11.78571_-0.0673.png"	n/a	"VerticalHorizontal"	"arrowright"	"1043"	"TRUE"	"VerticalHorizontal"	"-11.78571000"	"-0.067300000"	"2"	"21"
n/a	"html-keyboard-response"	"226"	"561029"	"0.0-6.0-2.0-0.21"	"stvc9h"	"600"	"1366"	"chrome"	"109.0.0"	"FALSE"	"Windows 10"	"60.65"	"027"	n/a	n/a	n/a	n/a	n/a	n/a	"fixation"	n/a	n/a	n/a	n/a	"NULL"	n/a	"NULL"	"NULL"	"NULL"	"<p style=\"color: black; font-size: 80px; padding-left: 27%; padding-right: 38%; padding-top: 32%; padding-bottom: 14%\">+</p>"	"1302"	n/a	n/a	n/a	n/a	n/a	n/a	n/a	n/a	n/a
n/a	"image-keyboard-response"	"227"	"562002"	"0.0-6.0-2.0-1.21"	"stvc9h"	"600"	"1366"	"chrome"	"109.0.0"	"FALSE"	"Windows 10"	"60.65"	"027"	n/a	n/a	n/a	n/a	n/a	n/a	"Trial"	n/a	n/a	n/a	"972"	"arrowleft"	n/a	"NULL"	"NULL"	"NULL"	"stimuli/VerticalHorizontal_28.75714_-0.0673.png"	n/a	"VerticalHorizontal"	"arrowright"	"1318"	"FALSE"	"VerticalHorizontal"	"28.757140000"	"-0.067300000"	"2"	"22"
n/a	"html-keyboard-response"	"228"	"563208"	"0.0-6.0-2.0-0.22"	"stvc9h"	"600"	"1366"	"chrome"	"109.0.0"	"FALSE"	"Windows 10"	"60.65"	"027"	n/a	n/a	n/a	n/a	n/a	n/a	"fixation"	n/a	n/a	n/a	n/a	"NULL"	n/a	"NULL"	"NULL"	"NULL"	"<p style=\"color: black; font-size: 80px; padding-left: 20%; padding-right: 38%; padding-top: 3%; padding-bottom: 13%\">+</p>"	"1192"	n/a	n/a	n/a	n/a	n/a	n/a	n/a	n/a	n/a
n/a	"image-keyboard-response"	"229"	"564609"	"0.0-6.0-2.0-1.22"	"stvc9h"	"600"	"1366"	"chrome"	"109.0.0"	"FALSE"	"Windows 10"	"60.65"	"027"	n/a	n/a	n/a	n/a	n/a	n/a	"Trial"	n/a	n/a	n/a	"1399"	"arrowright"	n/a	"NULL"	"NULL"	"NULL"	"stimuli/VerticalHorizontal_-11.78571_-0.16217.png"	n/a	"VerticalHorizontal"	"arrowright"	"1206"	"TRUE"	"VerticalHorizontal"	"-11.78571000"	"-0.162170000"	"2"	"23"
n/a	"html-keyboard-response"	"230"	"565863"	"0.0-6.0-2.0-0.23"	"stvc9h"	"600"	"1366"	"chrome"	"109.0.0"	"FALSE"	"Windows 10"	"60.65"	"027"	n/a	n/a	n/a	n/a	n/a	n/a	"fixation"	n/a	n/a	n/a	n/a	"NULL"	n/a	"NULL"	"NULL"	"NULL"	"<p style=\"color: black; font-size: 80px; padding-left: 49%; padding-right: 37%; padding-top: 34%; padding-bottom: 12%\">+</p>"	"1245"	n/a	n/a	n/a	n/a	n/a	n/a	n/a	n/a	n/a
n/a	"image-keyboard-response"	"231"	"567125"	"0.0-6.0-2.0-1.23"	"stvc9h"	"600"	"1366"	"chrome"	"109.0.0"	"FALSE"	"Windows 10"	"60.65"	"027"	n/a	n/a	n/a	n/a	n/a	n/a	"Trial"	n/a	n/a	n/a	"1261"	"arrowleft"	n/a	"NULL"	"NULL"	"NULL"	"stimuli/VerticalHorizontal_28.75714_0.22500.png"	n/a	"VerticalHorizontal"	"arrowleft"	"1254"	"TRUE"	"VerticalHorizontal"	"28.757140000"	"0.2250000000"	"2"	"24"
n/a	"html-keyboard-response"	"232"	"568228"	"0.0-6.0-2.0-0.24"	"stvc9h"	"600"	"1366"	"chrome"	"109.0.0"	"FALSE"	"Windows 10"	"60.65"	"027"	n/a	n/a	n/a	n/a	n/a	n/a	"fixation"	n/a	n/a	n/a	n/a	"NULL"	n/a	"NULL"	"NULL"	"NULL"	"<p style=\"color: black; font-size: 80px; padding-left: 32%; padding-right: 11%; padding-top: 20%; padding-bottom: 14%\">+</p>"	"1081"	n/a	n/a	n/a	n/a	n/a	n/a	n/a	n/a	n/a
n/a	"image-keyboard-response"	"233"	"569333"	"0.0-6.0-2.0-1.24"	"stvc9h"	"600"	"1366"	"chrome"	"109.0.0"	"FALSE"	"Windows 10"	"60.65"	"027"	n/a	n/a	n/a	n/a	n/a	n/a	"Trial"	n/a	n/a	n/a	"1104"	"arrowleft"	n/a	"NULL"	"NULL"	"NULL"	"stimuli/VerticalHorizontal_3.30000_0.10960.png"	n/a	"VerticalHorizontal"	"arrowleft"	"1103"	"TRUE"	"VerticalHorizontal"	"3.3000000000"	"0.1096000000"	"2"	"25"
n/a	"html-keyboard-response"	"234"	"570793"	"0.0-6.0-2.0-0.25"	"stvc9h"	"600"	"1366"	"chrome"	"109.0.0"	"FALSE"	"Windows 10"	"60.65"	"027"	n/a	n/a	n/a	n/a	n/a	n/a	"fixation"	n/a	n/a	n/a	n/a	"NULL"	n/a	"NULL"	"NULL"	"NULL"	"<p style=\"color: black; font-size: 80px; padding-left: 11%; padding-right: 45%; padding-top: 3%; padding-bottom: 49%\">+</p>"	"1448"	n/a	n/a	n/a	n/a	n/a	n/a	n/a	n/a	n/a
n/a	"image-keyboard-response"	"235"	"572593"	"0.0-6.0-2.0-1.25"	"stvc9h"	"600"	"1366"	"chrome"	"109.0.0"	"FALSE"	"Windows 10"	"60.65"	"027"	n/a	n/a	n/a	n/a	n/a	n/a	"Trial"	n/a	n/a	n/a	"1800"	"arrowright"	n/a	"NULL"	"NULL"	"NULL"	"stimuli/VerticalHorizontal_28.75714_-0.16217.png"	n/a	"VerticalHorizontal"	"arrowright"	"1460"	"TRUE"	"VerticalHorizontal"	"28.757140000"	"-0.162170000"	"2"	"26"
n/a	"html-keyboard-response"	"236"	"573934"	"0.0-6.0-2.0-0.26"	"stvc9h"	"600"	"1366"	"chrome"	"109.0.0"	"FALSE"	"Windows 10"	"60.65"	"027"	n/a	n/a	n/a	n/a	n/a	n/a	"fixation"	n/a	n/a	n/a	n/a	"NULL"	n/a	"NULL"	"NULL"	"NULL"	"<p style=\"color: black; font-size: 80px; padding-left: 30%; padding-right: 16%; padding-top: 13%; padding-bottom: 10%\">+</p>"	"1339"	n/a	n/a	n/a	n/a	n/a	n/a	n/a	n/a	n/a
n/a	"image-keyboard-response"	"237"	"574717"	"0.0-6.0-2.0-1.26"	"stvc9h"	"600"	"1366"	"chrome"	"109.0.0"	"FALSE"	"Windows 10"	"60.65"	"027"	n/a	n/a	n/a	n/a	n/a	n/a	"Trial"	n/a	n/a	n/a	"782"	"arrowleft"	n/a	"NULL"	"NULL"	"NULL"	"stimuli/VerticalHorizontal_11.78571_0.22500.png"	n/a	"VerticalHorizontal"	"arrowleft"	"1341"	"TRUE"	"VerticalHorizontal"	"11.785710000"	"0.2250000000"	"2"	"27"
n/a	"html-keyboard-response"	"238"	"575912"	"0.0-6.0-2.0-0.27"	"stvc9h"	"600"	"1366"	"chrome"	"109.0.0"	"FALSE"	"Windows 10"	"60.65"	"027"	n/a	n/a	n/a	n/a	n/a	n/a	"fixation"	n/a	n/a	n/a	n/a	"NULL"	n/a	"NULL"	"NULL"	"NULL"	"<p style=\"color: black; font-size: 80px; padding-left: 39%; padding-right: 28%; padding-top: 23%; padding-bottom: 2%\">+</p>"	"1184"	n/a	n/a	n/a	n/a	n/a	n/a	n/a	n/a	n/a
n/a	"image-keyboard-response"	"239"	"577142"	"0.0-6.0-2.0-1.27"	"stvc9h"	"600"	"1366"	"chrome"	"109.0.0"	"FALSE"	"Windows 10"	"60.65"	"027"	n/a	n/a	n/a	n/a	n/a	n/a	"Trial"	n/a	n/a	n/a	"1228"	"arrowleft"	n/a	"NULL"	"NULL"	"NULL"	"stimuli/VerticalHorizontal_20.27143_0.22500.png"	n/a	"VerticalHorizontal"	"arrowleft"	"1195"	"TRUE"	"VerticalHorizontal"	"20.271430000"	"0.2250000000"	"2"	"28"
n/a	"html-keyboard-response"	"240"	"578456"	"0.0-6.0-2.0-0.28"	"stvc9h"	"600"	"1366"	"chrome"	"109.0.0"	"FALSE"	"Windows 10"	"60.65"	"027"	n/a	n/a	n/a	n/a	n/a	n/a	"fixation"	n/a	n/a	n/a	n/a	"NULL"	n/a	"NULL"	"NULL"	"NULL"	"<p style=\"color: black; font-size: 80px; padding-left: 7%; padding-right: 28%; padding-top: 11%; padding-bottom: 3%\">+</p>"	"1307"	n/a	n/a	n/a	n/a	n/a	n/a	n/a	n/a	n/a
n/a	"image-keyboard-response"	"241"	"580009"	"0.0-6.0-2.0-1.28"	"stvc9h"	"600"	"1366"	"chrome"	"109.0.0"	"FALSE"	"Windows 10"	"60.65"	"027"	n/a	n/a	n/a	n/a	n/a	n/a	"Trial"	n/a	n/a	n/a	"1552"	"arrowleft"	n/a	"NULL"	"NULL"	"NULL"	"stimuli/VerticalHorizontal_11.78571_0.06730.png"	n/a	"VerticalHorizontal"	"arrowleft"	"1314"	"TRUE"	"VerticalHorizontal"	"11.785710000"	"0.0673000000"	"2"	"29"
n/a	"html-keyboard-response"	"242"	"581338"	"0.0-6.0-2.0-0.29"	"stvc9h"	"600"	"1366"	"chrome"	"109.0.0"	"FALSE"	"Windows 10"	"60.65"	"027"	n/a	n/a	n/a	n/a	n/a	n/a	"fixation"	n/a	n/a	n/a	n/a	"NULL"	n/a	"NULL"	"NULL"	"NULL"	"<p style=\"color: black; font-size: 80px; padding-left: 7%; padding-right: 0%; padding-top: 3%; padding-bottom: 44%\">+</p>"	"1312"	n/a	n/a	n/a	n/a	n/a	n/a	n/a	n/a	n/a
n/a	"image-keyboard-response"	"243"	"582249"	"0.0-6.0-2.0-1.29"	"stvc9h"	"600"	"1366"	"chrome"	"109.0.0"	"FALSE"	"Windows 10"	"60.65"	"027"	n/a	n/a	n/a	n/a	n/a	n/a	"Trial"	n/a	n/a	n/a	"911"	"arrowleft"	n/a	"NULL"	"NULL"	"NULL"	"stimuli/VerticalHorizontal_-20.27143_0.22500.png"	n/a	"VerticalHorizontal"	"arrowleft"	"1329"	"TRUE"	"VerticalHorizontal"	"-20.27143000"	"0.2250000000"	"2"	"30"
n/a	"html-keyboard-response"	"244"	"583692"	"0.0-6.0-2.0-0.30"	"stvc9h"	"600"	"1366"	"chrome"	"109.0.0"	"FALSE"	"Windows 10"	"60.65"	"027"	n/a	n/a	n/a	n/a	n/a	n/a	"fixation"	n/a	n/a	n/a	n/a	"NULL"	n/a	"NULL"	"NULL"	"NULL"	"<p style=\"color: black; font-size: 80px; padding-left: 0%; padding-right: 40%; padding-top: 49%; padding-bottom: 8%\">+</p>"	"1430"	n/a	n/a	n/a	n/a	n/a	n/a	n/a	n/a	n/a
n/a	"image-keyboard-response"	"245"	"584776"	"0.0-6.0-2.0-1.30"	"stvc9h"	"600"	"1366"	"chrome"	"109.0.0"	"FALSE"	"Windows 10"	"60.65"	"027"	n/a	n/a	n/a	n/a	n/a	n/a	"Trial"	n/a	n/a	n/a	"1084"	"arrowleft"	n/a	"NULL"	"NULL"	"NULL"	"stimuli/VerticalHorizontal_-3.3000_0.16217.png"	n/a	"VerticalHorizontal"	"arrowleft"	"1443"	"TRUE"	"VerticalHorizontal"	"-3.300000000"	"0.1621700000"	"2"	"31"
n/a	"html-keyboard-response"	"246"	"586023"	"0.0-6.0-2.0-0.31"	"stvc9h"	"600"	"1366"	"chrome"	"109.0.0"	"FALSE"	"Windows 10"	"60.65"	"027"	n/a	n/a	n/a	n/a	n/a	n/a	"fixation"	n/a	n/a	n/a	n/a	"NULL"	n/a	"NULL"	"NULL"	"NULL"	"<p style=\"color: black; font-size: 80px; padding-left: 27%; padding-right: 42%; padding-top: 25%; padding-bottom: 4%\">+</p>"	"1232"	n/a	n/a	n/a	n/a	n/a	n/a	n/a	n/a	n/a
n/a	"image-keyboard-response"	"247"	"586908"	"0.0-6.0-2.0-1.31"	"stvc9h"	"600"	"1366"	"chrome"	"109.0.0"	"FALSE"	"Windows 10"	"60.65"	"027"	n/a	n/a	n/a	n/a	n/a	n/a	"Trial"	n/a	n/a	n/a	"884"	"arrowright"	n/a	"NULL"	"NULL"	"NULL"	"stimuli/VerticalHorizontal_3.30000_-0.2250.png"	n/a	"VerticalHorizontal"	"arrowright"	"1247"	"TRUE"	"VerticalHorizontal"	"3.3000000000"	"-0.225000000"	"2"	"32"
n/a	"html-keyboard-response"	"248"	"588004"	"0.0-6.0-2.0-0.32"	"stvc9h"	"600"	"1366"	"chrome"	"109.0.0"	"FALSE"	"Windows 10"	"60.65"	"027"	n/a	n/a	n/a	n/a	n/a	n/a	"fixation"	n/a	n/a	n/a	n/a	"NULL"	n/a	"NULL"	"NULL"	"NULL"	"<p style=\"color: black; font-size: 80px; padding-left: 2%; padding-right: 4%; padding-top: 11%; padding-bottom: 11%\">+</p>"	"1073"	n/a	n/a	n/a	n/a	n/a	n/a	n/a	n/a	n/a
n/a	"image-keyboard-response"	"249"	"589122"	"0.0-6.0-2.0-1.32"	"stvc9h"	"600"	"1366"	"chrome"	"109.0.0"	"FALSE"	"Windows 10"	"60.65"	"027"	n/a	n/a	n/a	n/a	n/a	n/a	"Trial"	n/a	n/a	n/a	"1118"	"arrowleft"	n/a	"NULL"	"NULL"	"NULL"	"stimuli/VerticalHorizontal_-20.27143_0.06730.png"	n/a	"VerticalHorizontal"	"arrowleft"	"1096"	"TRUE"	"VerticalHorizontal"	"-20.27143000"	"0.0673000000"	"2"	"33"
n/a	"html-keyboard-response"	"250"	"590377"	"0.0-6.0-2.0-0.33"	"stvc9h"	"600"	"1366"	"chrome"	"109.0.0"	"FALSE"	"Windows 10"	"60.65"	"027"	n/a	n/a	n/a	n/a	n/a	n/a	"fixation"	n/a	n/a	n/a	n/a	"NULL"	n/a	"NULL"	"NULL"	"NULL"	"<p style=\"color: black; font-size: 80px; padding-left: 23%; padding-right: 18%; padding-top: 46%; padding-bottom: 31%\">+</p>"	"1239"	n/a	n/a	n/a	n/a	n/a	n/a	n/a	n/a	n/a
n/a	"image-keyboard-response"	"251"	"591259"	"0.0-6.0-2.0-1.33"	"stvc9h"	"600"	"1366"	"chrome"	"109.0.0"	"FALSE"	"Windows 10"	"60.65"	"027"	n/a	n/a	n/a	n/a	n/a	n/a	"Trial"	n/a	n/a	n/a	"881"	"arrowright"	n/a	"NULL"	"NULL"	"NULL"	"stimuli/VerticalHorizontal_11.78571_-0.2250.png"	n/a	"VerticalHorizontal"	"arrowright"	"1255"	"TRUE"	"VerticalHorizontal"	"11.785710000"	"-0.225000000"	"2"	"34"
