"success"	"trial_type"	"trial_index"	"time_elapsed"	"internal_node_id"	"participant_id"	"screen_height"	"screen_width"	"browser"	"browser_version"	"mobile"	"os"	"vsync_rate"	"width"	"height"	"webaudio"	"fullscreen"	"webcam"	"microphone"	"screen"	"version"	"date"	"time"	"timeout"	"failed_images"	"failed_audio"	"failed_video"	"rt"	"stimulus"	"response"	"trial_duration"	"block"	"correct_response"	"prestimulus_duration"	"correct"	"type"	"illusion_strength"	"illusion_difference"	"block_number"	"trial_number"
"TRUE"	"fullscreen"	"0"	"126752"	"0.0-0.0"	"8pgdpu"	"600"	"1366"	"chrome"	"108.0.0"	"FALSE"	"Windows 10"	"60.89"	n/a	n/a	n/a	n/a	n/a	n/a	n/a	n/a	n/a	n/a	n/a	"NULL"	"NULL"	"NULL"	n/a	n/a	n/a	n/a	n/a	n/a	n/a	n/a	n/a	n/a	n/a	n/a	n/a
n/a	"browser-check"	"1"	"127756"	"0.0-1.0"	"8pgdpu"	"600"	"1366"	"chrome"	"108.0.0"	"FALSE"	"Windows 10"	"60.89"	"1366"	"600"	"TRUE"	"TRUE"	"TRUE"	"TRUE"	"browser_info"	"1.0"	"21/12/2022"	"16:57:15"	n/a	"NULL"	"NULL"	"NULL"	n/a	n/a	n/a	n/a	n/a	n/a	n/a	n/a	n/a	n/a	n/a	n/a	n/a
"TRUE"	"preload"	"2"	"127766"	"0.0-2.0"	"8pgdpu"	"600"	"1366"	"chrome"	"108.0.0"	"FALSE"	"Windows 10"	"60.89"	n/a	n/a	n/a	n/a	n/a	n/a	n/a	n/a	n/a	n/a	"FALSE"	"list()"	"list()"	"list()"	n/a	n/a	n/a	n/a	n/a	n/a	n/a	n/a	n/a	n/a	n/a	n/a	n/a
n/a	"html-button-response"	"3"	"142205"	"0.0-3.0-0.0"	"8pgdpu"	"600"	"1366"	"chrome"	"108.0.0"	"FALSE"	"Windows 10"	"60.89"	n/a	n/a	n/a	n/a	n/a	n/a	"illusion_instructions"	n/a	n/a	n/a	n/a	"NULL"	"NULL"	"NULL"	"14438"	"<p><b>Illusion Game</b></p><p>In this game of speed and reflex, you will need to make <b>visual judgments</b> (for instance, which circle is the biggest, or which line is the longest), as fast and as correctly as possible, while <b>resisting different visual illusions</b>.</p><p>We are going to start with some examples of all the illusions you will encounter in the game.</p>"	"0"	n/a	n/a	n/a	n/a	n/a	n/a	n/a	n/a	n/a	n/a
"TRUE"	"preload"	"4"	"142225"	"0.0-3.0-1.0-0.0"	"8pgdpu"	"600"	"1366"	"chrome"	"108.0.0"	"FALSE"	"Windows 10"	"60.89"	n/a	n/a	n/a	n/a	n/a	n/a	n/a	n/a	n/a	n/a	"FALSE"	"list()"	"list()"	"list()"	n/a	n/a	n/a	n/a	n/a	n/a	n/a	n/a	n/a	n/a	n/a	n/a	n/a
n/a	"html-keyboard-response"	"5"	"151430"	"0.0-3.0-1.0-1.0"	"8pgdpu"	"600"	"1366"	"chrome"	"108.0.0"	"FALSE"	"Windows 10"	"60.89"	n/a	n/a	n/a	n/a	n/a	n/a	n/a	n/a	n/a	n/a	n/a	"NULL"	"NULL"	"NULL"	"9204"	"<p><b>Practice</b></p><p>In this part, two red circles will appear side by side on the screen.</p><p>Your task is to select which <b>red circle is bigger</b> in size as fast as you can, without making errors.</p><p>Don't get distracted by the surrounding black circles around the red circles!</p><p>Press <b>the LEFT or the RIGHT arrow</b> to indicate which is the bigger <b>red circle.</b></p><div style='float: center'><img src='materials/instructions/Ebbinghaus_Demo.png' height='300'></img><p><img src='utils/answer/answer_leftright_keyboard.PNG' height='150'></img></p><p class='small'>In this example, the correct answer is the <b>LEFT arrow</b>.</p></div><p>Are you ready? <b>Press ENTER to start</b></p>"	"enter"	n/a	n/a	n/a	n/a	n/a	n/a	n/a	n/a	n/a	n/a
n/a	"html-keyboard-response"	"6"	"153184"	"0.0-3.0-1.0-2.0-0.0"	"8pgdpu"	"600"	"1366"	"chrome"	"108.0.0"	"FALSE"	"Windows 10"	"60.89"	n/a	n/a	n/a	n/a	n/a	n/a	"fixation"	n/a	n/a	n/a	n/a	"NULL"	"NULL"	"NULL"	n/a	"<p style=\"color: black; font-size: 80px; padding-left: 25%; padding-right: 36%; padding-top: 45%; padding-bottom: 49%\">+</p>"	n/a	"1226"	n/a	n/a	n/a	n/a	n/a	n/a	n/a	n/a	n/a
n/a	"image-keyboard-response"	"7"	"154206"	"0.0-3.0-1.0-2.0-1.0"	"8pgdpu"	"600"	"1366"	"chrome"	"108.0.0"	"FALSE"	"Windows 10"	"60.89"	n/a	n/a	n/a	n/a	n/a	n/a	"Trial"	n/a	n/a	n/a	n/a	"NULL"	"NULL"	"NULL"	"1005"	"stimuli/Ebbinghaus_1000000_-1.4000.png"	"arrowright"	n/a	"Ebbinghaus"	"arrowright"	"1754"	"TRUE"	"Ebbinghaus"	"100000000000"	"-1.400000000"	"1"	"1"
n/a	"html-keyboard-response"	"8"	"155457"	"0.0-3.0-1.0-2.0-0.1"	"8pgdpu"	"600"	"1366"	"chrome"	"108.0.0"	"FALSE"	"Windows 10"	"60.89"	n/a	n/a	n/a	n/a	n/a	n/a	"fixation"	n/a	n/a	n/a	n/a	"NULL"	"NULL"	"NULL"	n/a	"<p style=\"color: black; font-size: 80px; padding-left: 28%; padding-right: 26%; padding-top: 6%; padding-bottom: 7%\">+</p>"	n/a	"1233"	n/a	n/a	n/a	n/a	n/a	n/a	n/a	n/a	n/a
n/a	"image-keyboard-response"	"9"	"156060"	"0.0-3.0-1.0-2.0-1.1"	"8pgdpu"	"600"	"1366"	"chrome"	"108.0.0"	"FALSE"	"Windows 10"	"60.89"	n/a	n/a	n/a	n/a	n/a	n/a	"Trial"	n/a	n/a	n/a	n/a	"NULL"	"NULL"	"NULL"	"603"	"stimuli/Ebbinghaus_0000000_1.40000.png"	"arrowleft"	n/a	"Ebbinghaus"	"arrowleft"	"1251"	"TRUE"	"Ebbinghaus"	"000000000000"	"1.4000000000"	"1"	"2"
n/a	"html-keyboard-response"	"10"	"157160"	"0.0-3.0-1.0-2.0-0.2"	"8pgdpu"	"600"	"1366"	"chrome"	"108.0.0"	"FALSE"	"Windows 10"	"60.89"	n/a	n/a	n/a	n/a	n/a	n/a	"fixation"	n/a	n/a	n/a	n/a	"NULL"	"NULL"	"NULL"	n/a	"<p style=\"color: black; font-size: 80px; padding-left: 50%; padding-right: 24%; padding-top: 4%; padding-bottom: 23%\">+</p>"	n/a	"1089"	n/a	n/a	n/a	n/a	n/a	n/a	n/a	n/a	n/a
n/a	"image-keyboard-response"	"11"	"158061"	"0.0-3.0-1.0-2.0-1.2"	"8pgdpu"	"600"	"1366"	"chrome"	"108.0.0"	"FALSE"	"Windows 10"	"60.89"	n/a	n/a	n/a	n/a	n/a	n/a	"Trial"	n/a	n/a	n/a	n/a	"NULL"	"NULL"	"NULL"	"899"	"stimuli/Ebbinghaus_-100000_1.40000.png"	"arrowleft"	n/a	"Ebbinghaus"	"arrowleft"	"1100"	"TRUE"	"Ebbinghaus"	"-10000000000"	"1.4000000000"	"1"	"3"
n/a	"html-keyboard-response"	"12"	"159387"	"0.0-3.0-1.0-2.0-0.3"	"8pgdpu"	"600"	"1366"	"chrome"	"108.0.0"	"FALSE"	"Windows 10"	"60.89"	n/a	n/a	n/a	n/a	n/a	n/a	"fixation"	n/a	n/a	n/a	n/a	"NULL"	"NULL"	"NULL"	n/a	"<p style=\"color: black; font-size: 80px; padding-left: 21%; padding-right: 42%; padding-top: 0%; padding-bottom: 37%\">+</p>"	n/a	"1321"	n/a	n/a	n/a	n/a	n/a	n/a	n/a	n/a	n/a
n/a	"image-keyboard-response"	"13"	"159935"	"0.0-3.0-1.0-2.0-1.3"	"8pgdpu"	"600"	"1366"	"chrome"	"108.0.0"	"FALSE"	"Windows 10"	"60.89"	n/a	n/a	n/a	n/a	n/a	n/a	"Trial"	n/a	n/a	n/a	n/a	"NULL"	"NULL"	"NULL"	"547"	"stimuli/Ebbinghaus_0000000_-1.4000.png"	"arrowright"	n/a	"Ebbinghaus"	"arrowright"	"1326"	"TRUE"	"Ebbinghaus"	"000000000000"	"-1.400000000"	"1"	"4"
n/a	"html-keyboard-response"	"14"	"161241"	"0.0-3.0-1.0-2.0-0.4"	"8pgdpu"	"600"	"1366"	"chrome"	"108.0.0"	"FALSE"	"Windows 10"	"60.89"	n/a	n/a	n/a	n/a	n/a	n/a	"fixation"	n/a	n/a	n/a	n/a	"NULL"	"NULL"	"NULL"	n/a	"<p style=\"color: black; font-size: 80px; padding-left: 17%; padding-right: 18%; padding-top: 3%; padding-bottom: 43%\">+</p>"	n/a	"1286"	n/a	n/a	n/a	n/a	n/a	n/a	n/a	n/a	n/a
n/a	"image-keyboard-response"	"15"	"161667"	"0.0-3.0-1.0-2.0-1.4"	"8pgdpu"	"600"	"1366"	"chrome"	"108.0.0"	"FALSE"	"Windows 10"	"60.89"	n/a	n/a	n/a	n/a	n/a	n/a	"Trial"	n/a	n/a	n/a	n/a	"NULL"	"NULL"	"NULL"	"424"	"stimuli/Ebbinghaus_1000000_1.40000.png"	"arrowleft"	n/a	"Ebbinghaus"	"arrowleft"	"1306"	"TRUE"	"Ebbinghaus"	"100000000000"	"1.4000000000"	"1"	"5"
n/a	"html-keyboard-response"	"16"	"163059"	"0.0-3.0-1.0-2.0-0.5"	"8pgdpu"	"600"	"1366"	"chrome"	"108.0.0"	"FALSE"	"Windows 10"	"60.89"	n/a	n/a	n/a	n/a	n/a	n/a	"fixation"	n/a	n/a	n/a	n/a	"NULL"	"NULL"	"NULL"	n/a	"<p style=\"color: black; font-size: 80px; padding-left: 38%; padding-right: 11%; padding-top: 41%; padding-bottom: 4%\">+</p>"	n/a	"1380"	n/a	n/a	n/a	n/a	n/a	n/a	n/a	n/a	n/a
n/a	"image-keyboard-response"	"17"	"163477"	"0.0-3.0-1.0-2.0-1.5"	"8pgdpu"	"600"	"1366"	"chrome"	"108.0.0"	"FALSE"	"Windows 10"	"60.89"	n/a	n/a	n/a	n/a	n/a	n/a	"Trial"	n/a	n/a	n/a	n/a	"NULL"	"NULL"	"NULL"	"417"	"stimuli/Ebbinghaus_-100000_-1.4000.png"	"arrowright"	n/a	"Ebbinghaus"	"arrowright"	"1392"	"TRUE"	"Ebbinghaus"	"-10000000000"	"-1.400000000"	"1"	"6"
n/a	"html-button-response"	"18"	"183072"	"0.0-3.0-1.0-3.0"	"8pgdpu"	"600"	"1366"	"chrome"	"108.0.0"	"FALSE"	"Windows 10"	"60.89"	n/a	n/a	n/a	n/a	n/a	n/a	"practice_block_results"	n/a	n/a	n/a	n/a	"NULL"	"NULL"	"NULL"	"19590"	"<p style='color:rgb(76,175,80);'> Correct Responses: <b>100.00%</b></p><hr><p style='color:rgb(233,30,99);'> Average Response Time: <b>649.17</b> ms.</p>"	"0"	n/a	n/a	n/a	n/a	n/a	n/a	n/a	n/a	n/a	n/a
"TRUE"	"preload"	"19"	"183602"	"0.0-3.0-2.0-0.0"	"8pgdpu"	"600"	"1366"	"chrome"	"108.0.0"	"FALSE"	"Windows 10"	"60.89"	n/a	n/a	n/a	n/a	n/a	n/a	n/a	n/a	n/a	n/a	"FALSE"	"list()"	"list()"	"list()"	n/a	n/a	n/a	n/a	n/a	n/a	n/a	n/a	n/a	n/a	n/a	n/a	n/a
n/a	"html-keyboard-response"	"20"	"192280"	"0.0-3.0-2.0-1.0"	"8pgdpu"	"600"	"1366"	"chrome"	"108.0.0"	"FALSE"	"Windows 10"	"60.89"	n/a	n/a	n/a	n/a	n/a	n/a	n/a	n/a	n/a	n/a	n/a	"NULL"	"NULL"	"NULL"	"8677"	"<p><b>Practice</b></p><p>In this part, two horizontal red lines will appear one above the other.</p><p>Your task is to select which <b>line is longer</b> in length as fast as you can, without making errors.</p><p>Don't get distracted by the surrounding black arrows at the end of the red lines!</p><p>Press <b>the UP or the DOWN arrow</b> to indicate where is the longer <b>red line.</b></p><div style='float: center'><img src='materials/instructions/MullerLyer_Demo.png' height='300'></img><p><img src='utils/answer/answer_updown_keyboard.PNG' height='150'></img></p><p class='small'>In this example, the correct answer is the <b>UP arrow</b>.</p></div><p>Are you ready? <b>Press ENTER to start</b></p>"	"enter"	n/a	n/a	n/a	n/a	n/a	n/a	n/a	n/a	n/a	n/a
n/a	"html-keyboard-response"	"21"	"194081"	"0.0-3.0-2.0-2.0-0.0"	"8pgdpu"	"600"	"1366"	"chrome"	"108.0.0"	"FALSE"	"Windows 10"	"60.89"	n/a	n/a	n/a	n/a	n/a	n/a	"fixation"	n/a	n/a	n/a	n/a	"NULL"	"NULL"	"NULL"	n/a	"<p style=\"color: black; font-size: 80px; padding-left: 47%; padding-right: 36%; padding-top: 39%; padding-bottom: 10%\">+</p>"	n/a	"1272"	n/a	n/a	n/a	n/a	n/a	n/a	n/a	n/a	n/a
n/a	"image-keyboard-response"	"22"	"194744"	"0.0-3.0-2.0-2.0-1.0"	"8pgdpu"	"600"	"1366"	"chrome"	"108.0.0"	"FALSE"	"Windows 10"	"60.89"	n/a	n/a	n/a	n/a	n/a	n/a	"Trial"	n/a	n/a	n/a	n/a	"NULL"	"NULL"	"NULL"	"662"	"stimuli/MullerLyer_2300000_-0.7000.png"	"arrowdown"	n/a	"MullerLyer"	"arrowdown"	"1801"	"TRUE"	"MullerLyer"	"230000000000"	"-0.700000000"	"1"	"7"
n/a	"html-keyboard-response"	"23"	"195863"	"0.0-3.0-2.0-2.0-0.1"	"8pgdpu"	"600"	"1366"	"chrome"	"108.0.0"	"FALSE"	"Windows 10"	"60.89"	n/a	n/a	n/a	n/a	n/a	n/a	"fixation"	n/a	n/a	n/a	n/a	"NULL"	"NULL"	"NULL"	n/a	"<p style=\"color: black; font-size: 80px; padding-left: 7%; padding-right: 12%; padding-top: 36%; padding-bottom: 11%\">+</p>"	n/a	"1110"	n/a	n/a	n/a	n/a	n/a	n/a	n/a	n/a	n/a
n/a	"image-keyboard-response"	"24"	"196304"	"0.0-3.0-2.0-2.0-1.1"	"8pgdpu"	"600"	"1366"	"chrome"	"108.0.0"	"FALSE"	"Windows 10"	"60.89"	n/a	n/a	n/a	n/a	n/a	n/a	"Trial"	n/a	n/a	n/a	n/a	"NULL"	"NULL"	"NULL"	"440"	"stimuli/MullerLyer_0000000_-0.7000.png"	"arrowdown"	n/a	"MullerLyer"	"arrowdown"	"1119"	"TRUE"	"MullerLyer"	"000000000000"	"-0.700000000"	"1"	"8"
n/a	"html-keyboard-response"	"25"	"197795"	"0.0-3.0-2.0-2.0-0.2"	"8pgdpu"	"600"	"1366"	"chrome"	"108.0.0"	"FALSE"	"Windows 10"	"60.89"	n/a	n/a	n/a	n/a	n/a	n/a	"fixation"	n/a	n/a	n/a	n/a	"NULL"	"NULL"	"NULL"	n/a	"<p style=\"color: black; font-size: 80px; padding-left: 40%; padding-right: 29%; padding-top: 24%; padding-bottom: 33%\">+</p>"	n/a	"1474"	n/a	n/a	n/a	n/a	n/a	n/a	n/a	n/a	n/a
n/a	"image-keyboard-response"	"26"	"198209"	"0.0-3.0-2.0-2.0-1.2"	"8pgdpu"	"600"	"1366"	"chrome"	"108.0.0"	"FALSE"	"Windows 10"	"60.89"	n/a	n/a	n/a	n/a	n/a	n/a	"Trial"	n/a	n/a	n/a	n/a	"NULL"	"NULL"	"NULL"	"413"	"stimuli/MullerLyer_-230000_-0.7000.png"	"arrowdown"	n/a	"MullerLyer"	"arrowdown"	"1491"	"TRUE"	"MullerLyer"	"-23000000000"	"-0.700000000"	"1"	"9"
n/a	"html-keyboard-response"	"27"	"199680"	"0.0-3.0-2.0-2.0-0.3"	"8pgdpu"	"600"	"1366"	"chrome"	"108.0.0"	"FALSE"	"Windows 10"	"60.89"	n/a	n/a	n/a	n/a	n/a	n/a	"fixation"	n/a	n/a	n/a	n/a	"NULL"	"NULL"	"NULL"	n/a	"<p style=\"color: black; font-size: 80px; padding-left: 26%; padding-right: 15%; padding-top: 10%; padding-bottom: 7%\">+</p>"	n/a	"1459"	n/a	n/a	n/a	n/a	n/a	n/a	n/a	n/a	n/a
n/a	"image-keyboard-response"	"28"	"200159"	"0.0-3.0-2.0-2.0-1.3"	"8pgdpu"	"600"	"1366"	"chrome"	"108.0.0"	"FALSE"	"Windows 10"	"60.89"	n/a	n/a	n/a	n/a	n/a	n/a	"Trial"	n/a	n/a	n/a	n/a	"NULL"	"NULL"	"NULL"	"478"	"stimuli/MullerLyer_0000000_0.70000.png"	"arrowup"	n/a	"MullerLyer"	"arrowup"	"1471"	"TRUE"	"MullerLyer"	"000000000000"	"0.7000000000"	"1"	"10"
n/a	"html-keyboard-response"	"29"	"201531"	"0.0-3.0-2.0-2.0-0.4"	"8pgdpu"	"600"	"1366"	"chrome"	"108.0.0"	"FALSE"	"Windows 10"	"60.89"	n/a	n/a	n/a	n/a	n/a	n/a	"fixation"	n/a	n/a	n/a	n/a	"NULL"	"NULL"	"NULL"	n/a	"<p style=\"color: black; font-size: 80px; padding-left: 19%; padding-right: 13%; padding-top: 42%; padding-bottom: 3%\">+</p>"	n/a	"1358"	n/a	n/a	n/a	n/a	n/a	n/a	n/a	n/a	n/a
n/a	"image-keyboard-response"	"30"	"201987"	"0.0-3.0-2.0-2.0-1.4"	"8pgdpu"	"600"	"1366"	"chrome"	"108.0.0"	"FALSE"	"Windows 10"	"60.89"	n/a	n/a	n/a	n/a	n/a	n/a	"Trial"	n/a	n/a	n/a	n/a	"NULL"	"NULL"	"NULL"	"455"	"stimuli/MullerLyer_2300000_0.70000.png"	"arrowup"	n/a	"MullerLyer"	"arrowup"	"1372"	"TRUE"	"MullerLyer"	"230000000000"	"0.7000000000"	"1"	"11"
n/a	"html-keyboard-response"	"31"	"203141"	"0.0-3.0-2.0-2.0-0.5"	"8pgdpu"	"600"	"1366"	"chrome"	"108.0.0"	"FALSE"	"Windows 10"	"60.89"	n/a	n/a	n/a	n/a	n/a	n/a	"fixation"	n/a	n/a	n/a	n/a	"NULL"	"NULL"	"NULL"	n/a	"<p style=\"color: black; font-size: 80px; padding-left: 20%; padding-right: 21%; padding-top: 46%; padding-bottom: 1%\">+</p>"	n/a	"1145"	n/a	n/a	n/a	n/a	n/a	n/a	n/a	n/a	n/a
n/a	"image-keyboard-response"	"32"	"203649"	"0.0-3.0-2.0-2.0-1.5"	"8pgdpu"	"600"	"1366"	"chrome"	"108.0.0"	"FALSE"	"Windows 10"	"60.89"	n/a	n/a	n/a	n/a	n/a	n/a	"Trial"	n/a	n/a	n/a	n/a	"NULL"	"NULL"	"NULL"	"507"	"stimuli/MullerLyer_-230000_0.70000.png"	"arrowup"	n/a	"MullerLyer"	"arrowup"	"1154"	"TRUE"	"MullerLyer"	"-23000000000"	"0.7000000000"	"1"	"12"
n/a	"html-button-response"	"33"	"208178"	"0.0-3.0-2.0-3.0"	"8pgdpu"	"600"	"1366"	"chrome"	"108.0.0"	"FALSE"	"Windows 10"	"60.89"	n/a	n/a	n/a	n/a	n/a	n/a	"practice_block_results"	n/a	n/a	n/a	n/a	"NULL"	"NULL"	"NULL"	"4522"	"<p style='color:rgb(76,175,80);'> Correct Responses: <b>100.00%</b></p><hr><p style='color:rgb(233,30,99);'> Average Response Time: <b>492.50</b> ms.</p>"	"0"	n/a	n/a	n/a	n/a	n/a	n/a	n/a	n/a	n/a	n/a
"TRUE"	"preload"	"34"	"208714"	"0.0-3.0-3.0-0.0"	"8pgdpu"	"600"	"1366"	"chrome"	"108.0.0"	"FALSE"	"Windows 10"	"60.89"	n/a	n/a	n/a	n/a	n/a	n/a	n/a	n/a	n/a	n/a	"FALSE"	"list()"	"list()"	"list()"	n/a	n/a	n/a	n/a	n/a	n/a	n/a	n/a	n/a	n/a	n/a	n/a	n/a
n/a	"html-keyboard-response"	"35"	"212565"	"0.0-3.0-3.0-1.0"	"8pgdpu"	"600"	"1366"	"chrome"	"108.0.0"	"FALSE"	"Windows 10"	"60.89"	n/a	n/a	n/a	n/a	n/a	n/a	n/a	n/a	n/a	n/a	n/a	"NULL"	"NULL"	"NULL"	"3851"	"<p><b>Practice</b></p><p>In this part, two red lines will appear side by side.</p><p>Your task is to tell <b>which line is longer</b> in length, regardless of their orientation, as fast as you can, and without making errors.</p><p>Don't get distracted by the orientation of the lines!</p><p>Press <b>the LEFT or the RIGHT arrow</b> to indicate which <b>line is the longer one.</b></p><div style='float: center'><img src='materials/instructions/VerticalHorizontal_Demo.png' height='300'></img><p><img src='utils/answer/answer_leftright_keyboard.PNG' height='150'></img></p><p class='small'>In this example, the correct answer is the <b>LEFT arrow</b>.</p></div><p>Are you ready? <b>Press ENTER to start</b></p>"	"enter"	n/a	n/a	n/a	n/a	n/a	n/a	n/a	n/a	n/a	n/a
n/a	"html-keyboard-response"	"36"	"214213"	"0.0-3.0-3.0-2.0-0.0"	"8pgdpu"	"600"	"1366"	"chrome"	"108.0.0"	"FALSE"	"Windows 10"	"60.89"	n/a	n/a	n/a	n/a	n/a	n/a	"fixation"	n/a	n/a	n/a	n/a	"NULL"	"NULL"	"NULL"	n/a	"<p style=\"color: black; font-size: 80px; padding-left: 46%; padding-right: 40%; padding-top: 34%; padding-bottom: 25%\">+</p>"	n/a	"1127"	n/a	n/a	n/a	n/a	n/a	n/a	n/a	n/a	n/a
n/a	"image-keyboard-response"	"37"	"214584"	"0.0-3.0-3.0-2.0-1.0"	"8pgdpu"	"600"	"1366"	"chrome"	"108.0.0"	"FALSE"	"Windows 10"	"60.89"	n/a	n/a	n/a	n/a	n/a	n/a	"Trial"	n/a	n/a	n/a	n/a	"NULL"	"NULL"	"NULL"	"369"	"stimuli/VerticalHorizontal_-330000_-0.9000.png"	"arrowright"	n/a	"VerticalHorizontal"	"arrowright"	"1648"	"TRUE"	"VerticalHorizontal"	"-33000000000"	"-0.900000000"	"1"	"13"
n/a	"html-keyboard-response"	"38"	"215622"	"0.0-3.0-3.0-2.0-0.1"	"8pgdpu"	"600"	"1366"	"chrome"	"108.0.0"	"FALSE"	"Windows 10"	"60.89"	n/a	n/a	n/a	n/a	n/a	n/a	"fixation"	n/a	n/a	n/a	n/a	"NULL"	"NULL"	"NULL"	n/a	"<p style=\"color: black; font-size: 80px; padding-left: 36%; padding-right: 36%; padding-top: 50%; padding-bottom: 45%\">+</p>"	n/a	"1021"	n/a	n/a	n/a	n/a	n/a	n/a	n/a	n/a	n/a
n/a	"image-keyboard-response"	"39"	"216171"	"0.0-3.0-3.0-2.0-1.1"	"8pgdpu"	"600"	"1366"	"chrome"	"108.0.0"	"FALSE"	"Windows 10"	"60.89"	n/a	n/a	n/a	n/a	n/a	n/a	"Trial"	n/a	n/a	n/a	n/a	"NULL"	"NULL"	"NULL"	"548"	"stimuli/VerticalHorizontal_0000000_-0.9000.png"	"arrowright"	n/a	"VerticalHorizontal"	"arrowright"	"1038"	"TRUE"	"VerticalHorizontal"	"000000000000"	"-0.900000000"	"1"	"14"
n/a	"html-keyboard-response"	"40"	"217633"	"0.0-3.0-3.0-2.0-0.2"	"8pgdpu"	"600"	"1366"	"chrome"	"108.0.0"	"FALSE"	"Windows 10"	"60.89"	n/a	n/a	n/a	n/a	n/a	n/a	"fixation"	n/a	n/a	n/a	n/a	"NULL"	"NULL"	"NULL"	n/a	"<p style=\"color: black; font-size: 80px; padding-left: 42%; padding-right: 32%; padding-top: 47%; padding-bottom: 35%\">+</p>"	n/a	"1448"	n/a	n/a	n/a	n/a	n/a	n/a	n/a	n/a	n/a
n/a	"image-keyboard-response"	"41"	"218087"	"0.0-3.0-3.0-2.0-1.2"	"8pgdpu"	"600"	"1366"	"chrome"	"108.0.0"	"FALSE"	"Windows 10"	"60.89"	n/a	n/a	n/a	n/a	n/a	n/a	"Trial"	n/a	n/a	n/a	n/a	"NULL"	"NULL"	"NULL"	"453"	"stimuli/VerticalHorizontal_3300000_-0.9000.png"	"arrowleft"	n/a	"VerticalHorizontal"	"arrowright"	"1462"	"FALSE"	"VerticalHorizontal"	"330000000000"	"-0.900000000"	"1"	"15"
n/a	"html-keyboard-response"	"42"	"219141"	"0.0-3.0-3.0-2.0-0.3"	"8pgdpu"	"600"	"1366"	"chrome"	"108.0.0"	"FALSE"	"Windows 10"	"60.89"	n/a	n/a	n/a	n/a	n/a	n/a	"fixation"	n/a	n/a	n/a	n/a	"NULL"	"NULL"	"NULL"	n/a	"<p style=\"color: black; font-size: 80px; padding-left: 45%; padding-right: 8%; padding-top: 25%; padding-bottom: 36%\">+</p>"	n/a	"1043"	n/a	n/a	n/a	n/a	n/a	n/a	n/a	n/a	n/a
n/a	"image-keyboard-response"	"43"	"219517"	"0.0-3.0-3.0-2.0-1.3"	"8pgdpu"	"600"	"1366"	"chrome"	"108.0.0"	"FALSE"	"Windows 10"	"60.89"	n/a	n/a	n/a	n/a	n/a	n/a	"Trial"	n/a	n/a	n/a	n/a	"NULL"	"NULL"	"NULL"	"374"	"stimuli/VerticalHorizontal_3300000_0.90000.png"	"arrowright"	n/a	"VerticalHorizontal"	"arrowleft"	"1054"	"FALSE"	"VerticalHorizontal"	"330000000000"	"0.9000000000"	"1"	"16"
n/a	"html-keyboard-response"	"44"	"221004"	"0.0-3.0-3.0-2.0-0.4"	"8pgdpu"	"600"	"1366"	"chrome"	"108.0.0"	"FALSE"	"Windows 10"	"60.89"	n/a	n/a	n/a	n/a	n/a	n/a	"fixation"	n/a	n/a	n/a	n/a	"NULL"	"NULL"	"NULL"	n/a	"<p style=\"color: black; font-size: 80px; padding-left: 16%; padding-right: 22%; padding-top: 34%; padding-bottom: 24%\">+</p>"	n/a	"1482"	n/a	n/a	n/a	n/a	n/a	n/a	n/a	n/a	n/a
n/a	"image-keyboard-response"	"45"	"221428"	"0.0-3.0-3.0-2.0-1.4"	"8pgdpu"	"600"	"1366"	"chrome"	"108.0.0"	"FALSE"	"Windows 10"	"60.89"	n/a	n/a	n/a	n/a	n/a	n/a	"Trial"	n/a	n/a	n/a	n/a	"NULL"	"NULL"	"NULL"	"424"	"stimuli/VerticalHorizontal_0000000_0.90000.png"	"arrowleft"	n/a	"VerticalHorizontal"	"arrowleft"	"1487"	"TRUE"	"VerticalHorizontal"	"000000000000"	"0.9000000000"	"1"	"17"
n/a	"html-keyboard-response"	"46"	"222683"	"0.0-3.0-3.0-2.0-0.5"	"8pgdpu"	"600"	"1366"	"chrome"	"108.0.0"	"FALSE"	"Windows 10"	"60.89"	n/a	n/a	n/a	n/a	n/a	n/a	"fixation"	n/a	n/a	n/a	n/a	"NULL"	"NULL"	"NULL"	n/a	"<p style=\"color: black; font-size: 80px; padding-left: 3%; padding-right: 15%; padding-top: 11%; padding-bottom: 45%\">+</p>"	n/a	"1244"	n/a	n/a	n/a	n/a	n/a	n/a	n/a	n/a	n/a
n/a	"image-keyboard-response"	"47"	"223037"	"0.0-3.0-3.0-2.0-1.5"	"8pgdpu"	"600"	"1366"	"chrome"	"108.0.0"	"FALSE"	"Windows 10"	"60.89"	n/a	n/a	n/a	n/a	n/a	n/a	"Trial"	n/a	n/a	n/a	n/a	"NULL"	"NULL"	"NULL"	"354"	"stimuli/VerticalHorizontal_-330000_0.90000.png"	"arrowleft"	n/a	"VerticalHorizontal"	"arrowleft"	"1255"	"TRUE"	"VerticalHorizontal"	"-33000000000"	"0.9000000000"	"1"	"18"
n/a	"html-button-response"	"48"	"229627"	"0.0-3.0-3.0-3.0"	"8pgdpu"	"600"	"1366"	"chrome"	"108.0.0"	"FALSE"	"Windows 10"	"60.89"	n/a	n/a	n/a	n/a	n/a	n/a	"practice_block_results"	n/a	n/a	n/a	n/a	"NULL"	"NULL"	"NULL"	"6589"	"<p style='color:rgb(76,175,80);'> Correct Responses: <b>66.67%</b></p><hr><p style='color:rgb(233,30,99);'> Average Response Time: <b>420.33</b> ms.</p>"	"0"	n/a	n/a	n/a	n/a	n/a	n/a	n/a	n/a	n/a	n/a
n/a	"html-button-response"	"49"	"290240"	"0.0-3.0-4.0"	"8pgdpu"	"600"	"1366"	"chrome"	"108.0.0"	"FALSE"	"Windows 10"	"60.89"	n/a	n/a	n/a	n/a	n/a	n/a	"practice_debrief"	n/a	n/a	n/a	n/a	"NULL"	"NULL"	"NULL"	"60096"	"<p><b>TRAINING COMPLETED</b></p><p>In the next phase, there will be more trials, and some might be harder too.<br> Moreover, after each illusion block, a <b>score</b> will be calculated based on speed (time you took to answer) and accuracy (number of errors).</p><p>Try to keep up a high score!</p><br><p>Note that it can be <i>really</i> challenging at times, so you will need to rely on your <b>intuition</b> and gut feeling to answer as fast as you can without making errors.</p><p>Each illusion block will be repeated two times (so that you have the opportunity to improve your score), but the order of the blocks is random.</p><p>Remember, your goal is to be as <b>fast</b> and <b>accurate</b> as possible. Good luck!</p><br>"	"0"	n/a	n/a	n/a	n/a	n/a	n/a	n/a	n/a	n/a	n/a
"TRUE"	"preload"	"50"	"290399"	"0.0-4.0-0.0"	"8pgdpu"	"600"	"1366"	"chrome"	"108.0.0"	"FALSE"	"Windows 10"	"60.89"	n/a	n/a	n/a	n/a	n/a	n/a	n/a	n/a	n/a	n/a	"FALSE"	"list()"	"list()"	"list()"	n/a	n/a	n/a	n/a	n/a	n/a	n/a	n/a	n/a	n/a	n/a	n/a	n/a
n/a	"html-keyboard-response"	"51"	"293547"	"0.0-4.0-1.0"	"8pgdpu"	"600"	"1366"	"chrome"	"108.0.0"	"FALSE"	"Windows 10"	"60.89"	n/a	n/a	n/a	n/a	n/a	n/a	n/a	n/a	n/a	n/a	n/a	"NULL"	"NULL"	"NULL"	"3147"	"<p><b>Part 1/6</b></p><p>In this part, two red circles will appear side by side on the screen.</p><p>Your task is to select which <b>red circle is bigger</b> in size as fast as you can, without making errors.</p><p>Don't get distracted by the surrounding black circles around the red circles!</p><p>Press <b>the LEFT or the RIGHT arrow</b> to indicate which is the bigger <b>red circle.</b></p><div style='float: center'><img src='materials/instructions/Ebbinghaus_Demo.png' height='300'></img><p><img src='utils/answer/answer_leftright_keyboard.PNG' height='150'></img></p><p class='small'>In this example, the correct answer is the <b>LEFT arrow</b>.</p></div><p>Are you ready? <b>Press ENTER to start</b></p>"	"enter"	n/a	n/a	n/a	n/a	n/a	n/a	n/a	n/a	n/a	n/a
n/a	"html-keyboard-response"	"52"	"295255"	"0.0-4.0-2.0-0.0"	"8pgdpu"	"600"	"1366"	"chrome"	"108.0.0"	"FALSE"	"Windows 10"	"60.89"	n/a	n/a	n/a	n/a	n/a	n/a	"fixation"	n/a	n/a	n/a	n/a	"NULL"	"NULL"	"NULL"	n/a	"<p style=\"color: black; font-size: 80px; padding-left: 28%; padding-right: 17%; padding-top: 35%; padding-bottom: 28%\">+</p>"	n/a	"1171"	n/a	n/a	n/a	n/a	n/a	n/a	n/a	n/a	n/a
n/a	"image-keyboard-response"	"53"	"298143"	"0.0-4.0-2.0-1.0"	"8pgdpu"	"600"	"1366"	"chrome"	"108.0.0"	"FALSE"	"Windows 10"	"60.89"	n/a	n/a	n/a	n/a	n/a	n/a	"Trial"	n/a	n/a	n/a	n/a	"NULL"	"NULL"	"NULL"	"2887"	"stimuli/Ebbinghaus_0.61429_0.11071.png"	"arrowright"	n/a	"Ebbinghaus"	"arrowleft"	"1708"	"FALSE"	"Ebbinghaus"	"0.6142900000"	"0.1107100000"	"1"	"19"
n/a	"html-keyboard-response"	"54"	"299241"	"0.0-4.0-2.0-0.1"	"8pgdpu"	"600"	"1366"	"chrome"	"108.0.0"	"FALSE"	"Windows 10"	"60.89"	n/a	n/a	n/a	n/a	n/a	n/a	"fixation"	n/a	n/a	n/a	n/a	"NULL"	"NULL"	"NULL"	n/a	"<p style=\"color: black; font-size: 80px; padding-left: 6%; padding-right: 38%; padding-top: 19%; padding-bottom: 42%\">+</p>"	n/a	"1084"	n/a	n/a	n/a	n/a	n/a	n/a	n/a	n/a	n/a
n/a	"image-keyboard-response"	"55"	"299735"	"0.0-4.0-2.0-1.1"	"8pgdpu"	"600"	"1366"	"chrome"	"108.0.0"	"FALSE"	"Windows 10"	"60.89"	n/a	n/a	n/a	n/a	n/a	n/a	"Trial"	n/a	n/a	n/a	n/a	"NULL"	"NULL"	"NULL"	"493"	"stimuli/Ebbinghaus_0.61429_-0.2150.png"	"arrowright"	n/a	"Ebbinghaus"	"arrowright"	"1098"	"TRUE"	"Ebbinghaus"	"0.6142900000"	"-0.215000000"	"1"	"20"
n/a	"html-keyboard-response"	"56"	"300880"	"0.0-4.0-2.0-0.2"	"8pgdpu"	"600"	"1366"	"chrome"	"108.0.0"	"FALSE"	"Windows 10"	"60.89"	n/a	n/a	n/a	n/a	n/a	n/a	"fixation"	n/a	n/a	n/a	n/a	"NULL"	"NULL"	"NULL"	n/a	"<p style=\"color: black; font-size: 80px; padding-left: 20%; padding-right: 11%; padding-top: 41%; padding-bottom: 31%\">+</p>"	n/a	"1139"	n/a	n/a	n/a	n/a	n/a	n/a	n/a	n/a	n/a
n/a	"image-keyboard-response"	"57"	"301370"	"0.0-4.0-2.0-1.2"	"8pgdpu"	"600"	"1366"	"chrome"	"108.0.0"	"FALSE"	"Windows 10"	"60.89"	n/a	n/a	n/a	n/a	n/a	n/a	"Trial"	n/a	n/a	n/a	n/a	"NULL"	"NULL"	"NULL"	"489"	"stimuli/Ebbinghaus_-0.87143_-0.15857.png"	"arrowright"	n/a	"Ebbinghaus"	"arrowright"	"1145"	"TRUE"	"Ebbinghaus"	"-0.871430000"	"-0.158570000"	"1"	"21"
n/a	"html-keyboard-response"	"58"	"302881"	"0.0-4.0-2.0-0.3"	"8pgdpu"	"600"	"1366"	"chrome"	"108.0.0"	"FALSE"	"Windows 10"	"60.89"	n/a	n/a	n/a	n/a	n/a	n/a	"fixation"	n/a	n/a	n/a	n/a	"NULL"	"NULL"	"NULL"	n/a	"<p style=\"color: black; font-size: 80px; padding-left: 5%; padding-right: 10%; padding-top: 2%; padding-bottom: 34%\">+</p>"	n/a	"1493"	n/a	n/a	n/a	n/a	n/a	n/a	n/a	n/a	n/a
n/a	"image-keyboard-response"	"59"	"303595"	"0.0-4.0-2.0-1.3"	"8pgdpu"	"600"	"1366"	"chrome"	"108.0.0"	"FALSE"	"Windows 10"	"60.89"	n/a	n/a	n/a	n/a	n/a	n/a	"Trial"	n/a	n/a	n/a	n/a	"NULL"	"NULL"	"NULL"	"713"	"stimuli/Ebbinghaus_0.10000_0.15857.png"	"arrowleft"	n/a	"Ebbinghaus"	"arrowleft"	"1511"	"TRUE"	"Ebbinghaus"	"0.1000000000"	"0.1585700000"	"1"	"22"
n/a	"html-keyboard-response"	"60"	"304748"	"0.0-4.0-2.0-0.4"	"8pgdpu"	"600"	"1366"	"chrome"	"108.0.0"	"FALSE"	"Windows 10"	"60.89"	n/a	n/a	n/a	n/a	n/a	n/a	"fixation"	n/a	n/a	n/a	n/a	"NULL"	"NULL"	"NULL"	n/a	"<p style=\"color: black; font-size: 80px; padding-left: 45%; padding-right: 18%; padding-top: 12%; padding-bottom: 12%\">+</p>"	n/a	"1137"	n/a	n/a	n/a	n/a	n/a	n/a	n/a	n/a	n/a
n/a	"image-keyboard-response"	"61"	"305197"	"0.0-4.0-2.0-1.4"	"8pgdpu"	"600"	"1366"	"chrome"	"108.0.0"	"FALSE"	"Windows 10"	"60.89"	n/a	n/a	n/a	n/a	n/a	n/a	"Trial"	n/a	n/a	n/a	n/a	"NULL"	"NULL"	"NULL"	"447"	"stimuli/Ebbinghaus_-0.87143_0.15857.png"	"arrowright"	n/a	"Ebbinghaus"	"arrowleft"	"1153"	"FALSE"	"Ebbinghaus"	"-0.871430000"	"0.1585700000"	"1"	"23"
n/a	"html-keyboard-response"	"62"	"306225"	"0.0-4.0-2.0-0.5"	"8pgdpu"	"600"	"1366"	"chrome"	"108.0.0"	"FALSE"	"Windows 10"	"60.89"	n/a	n/a	n/a	n/a	n/a	n/a	"fixation"	n/a	n/a	n/a	n/a	"NULL"	"NULL"	"NULL"	n/a	"<p style=\"color: black; font-size: 80px; padding-left: 10%; padding-right: 21%; padding-top: 21%; padding-bottom: 47%\">+</p>"	n/a	"1012"	n/a	n/a	n/a	n/a	n/a	n/a	n/a	n/a	n/a
n/a	"image-keyboard-response"	"63"	"306714"	"0.0-4.0-2.0-1.5"	"8pgdpu"	"600"	"1366"	"chrome"	"108.0.0"	"FALSE"	"Windows 10"	"60.89"	n/a	n/a	n/a	n/a	n/a	n/a	"Trial"	n/a	n/a	n/a	n/a	"NULL"	"NULL"	"NULL"	"488"	"stimuli/Ebbinghaus_-0.87143_-0.2150.png"	"arrowright"	n/a	"Ebbinghaus"	"arrowright"	"1028"	"TRUE"	"Ebbinghaus"	"-0.871430000"	"-0.215000000"	"1"	"24"
n/a	"html-keyboard-response"	"64"	"308174"	"0.0-4.0-2.0-0.6"	"8pgdpu"	"600"	"1366"	"chrome"	"108.0.0"	"FALSE"	"Windows 10"	"60.89"	n/a	n/a	n/a	n/a	n/a	n/a	"fixation"	n/a	n/a	n/a	n/a	"NULL"	"NULL"	"NULL"	n/a	"<p style=\"color: black; font-size: 80px; padding-left: 3%; padding-right: 40%; padding-top: 33%; padding-bottom: 26%\">+</p>"	n/a	"1444"	n/a	n/a	n/a	n/a	n/a	n/a	n/a	n/a	n/a
n/a	"image-keyboard-response"	"65"	"308675"	"0.0-4.0-2.0-1.6"	"8pgdpu"	"600"	"1366"	"chrome"	"108.0.0"	"FALSE"	"Windows 10"	"60.89"	n/a	n/a	n/a	n/a	n/a	n/a	"Trial"	n/a	n/a	n/a	n/a	"NULL"	"NULL"	"NULL"	"500"	"stimuli/Ebbinghaus_0.10000_-0.2150.png"	"arrowright"	n/a	"Ebbinghaus"	"arrowright"	"1460"	"TRUE"	"Ebbinghaus"	"0.1000000000"	"-0.215000000"	"1"	"25"
n/a	"html-keyboard-response"	"66"	"309835"	"0.0-4.0-2.0-0.7"	"8pgdpu"	"600"	"1366"	"chrome"	"108.0.0"	"FALSE"	"Windows 10"	"60.89"	n/a	n/a	n/a	n/a	n/a	n/a	"fixation"	n/a	n/a	n/a	n/a	"NULL"	"NULL"	"NULL"	n/a	"<p style=\"color: black; font-size: 80px; padding-left: 38%; padding-right: 13%; padding-top: 17%; padding-bottom: 43%\">+</p>"	n/a	"1147"	n/a	n/a	n/a	n/a	n/a	n/a	n/a	n/a	n/a
n/a	"image-keyboard-response"	"67"	"310402"	"0.0-4.0-2.0-1.7"	"8pgdpu"	"600"	"1366"	"chrome"	"108.0.0"	"FALSE"	"Windows 10"	"60.89"	n/a	n/a	n/a	n/a	n/a	n/a	"Trial"	n/a	n/a	n/a	n/a	"NULL"	"NULL"	"NULL"	"566"	"stimuli/Ebbinghaus_0.10000_0.21500.png"	"arrowleft"	n/a	"Ebbinghaus"	"arrowleft"	"1160"	"TRUE"	"Ebbinghaus"	"0.1000000000"	"0.2150000000"	"1"	"26"
n/a	"html-keyboard-response"	"68"	"311769"	"0.0-4.0-2.0-0.8"	"8pgdpu"	"600"	"1366"	"chrome"	"108.0.0"	"FALSE"	"Windows 10"	"60.89"	n/a	n/a	n/a	n/a	n/a	n/a	"fixation"	n/a	n/a	n/a	n/a	"NULL"	"NULL"	"NULL"	n/a	"<p style=\"color: black; font-size: 80px; padding-left: 25%; padding-right: 46%; padding-top: 25%; padding-bottom: 2%\">+</p>"	n/a	"1353"	n/a	n/a	n/a	n/a	n/a	n/a	n/a	n/a	n/a
n/a	"image-keyboard-response"	"69"	"312606"	"0.0-4.0-2.0-1.8"	"8pgdpu"	"600"	"1366"	"chrome"	"108.0.0"	"FALSE"	"Windows 10"	"60.89"	n/a	n/a	n/a	n/a	n/a	n/a	"Trial"	n/a	n/a	n/a	n/a	"NULL"	"NULL"	"NULL"	"831"	"stimuli/Ebbinghaus_0.10000_0.11071.png"	"arrowright"	n/a	"Ebbinghaus"	"arrowleft"	"1367"	"FALSE"	"Ebbinghaus"	"0.1000000000"	"0.1107100000"	"1"	"27"
n/a	"html-keyboard-response"	"70"	"314035"	"0.0-4.0-2.0-0.9"	"8pgdpu"	"600"	"1366"	"chrome"	"108.0.0"	"FALSE"	"Windows 10"	"60.89"	n/a	n/a	n/a	n/a	n/a	n/a	"fixation"	n/a	n/a	n/a	n/a	"NULL"	"NULL"	"NULL"	n/a	"<p style=\"color: black; font-size: 80px; padding-left: 43%; padding-right: 24%; padding-top: 22%; padding-bottom: 34%\">+</p>"	n/a	"1412"	n/a	n/a	n/a	n/a	n/a	n/a	n/a	n/a	n/a
n/a	"image-keyboard-response"	"71"	"314694"	"0.0-4.0-2.0-1.9"	"8pgdpu"	"600"	"1366"	"chrome"	"108.0.0"	"FALSE"	"Windows 10"	"60.89"	n/a	n/a	n/a	n/a	n/a	n/a	"Trial"	n/a	n/a	n/a	n/a	"NULL"	"NULL"	"NULL"	"658"	"stimuli/Ebbinghaus_-0.35714_-0.2800.png"	"arrowright"	n/a	"Ebbinghaus"	"arrowright"	"1429"	"TRUE"	"Ebbinghaus"	"-0.357140000"	"-0.280000000"	"1"	"28"
n/a	"html-keyboard-response"	"72"	"315764"	"0.0-4.0-2.0-0.10"	"8pgdpu"	"600"	"1366"	"chrome"	"108.0.0"	"FALSE"	"Windows 10"	"60.89"	n/a	n/a	n/a	n/a	n/a	n/a	"fixation"	n/a	n/a	n/a	n/a	"NULL"	"NULL"	"NULL"	n/a	"<p style=\"color: black; font-size: 80px; padding-left: 23%; padding-right: 48%; padding-top: 44%; padding-bottom: 3%\">+</p>"	n/a	"1046"	n/a	n/a	n/a	n/a	n/a	n/a	n/a	n/a	n/a
n/a	"image-keyboard-response"	"73"	"316415"	"0.0-4.0-2.0-1.10"	"8pgdpu"	"600"	"1366"	"chrome"	"108.0.0"	"FALSE"	"Windows 10"	"60.89"	n/a	n/a	n/a	n/a	n/a	n/a	"Trial"	n/a	n/a	n/a	n/a	"NULL"	"NULL"	"NULL"	"650"	"stimuli/Ebbinghaus_0.87143_-0.11071.png"	"arrowright"	n/a	"Ebbinghaus"	"arrowright"	"1070"	"TRUE"	"Ebbinghaus"	"0.8714300000"	"-0.110710000"	"1"	"29"
n/a	"html-keyboard-response"	"74"	"317617"	"0.0-4.0-2.0-0.11"	"8pgdpu"	"600"	"1366"	"chrome"	"108.0.0"	"FALSE"	"Windows 10"	"60.89"	n/a	n/a	n/a	n/a	n/a	n/a	"fixation"	n/a	n/a	n/a	n/a	"NULL"	"NULL"	"NULL"	n/a	"<p style=\"color: black; font-size: 80px; padding-left: 8%; padding-right: 13%; padding-top: 29%; padding-bottom: 40%\">+</p>"	n/a	"1194"	n/a	n/a	n/a	n/a	n/a	n/a	n/a	n/a	n/a
n/a	"image-keyboard-response"	"75"	"318200"	"0.0-4.0-2.0-1.11"	"8pgdpu"	"600"	"1366"	"chrome"	"108.0.0"	"FALSE"	"Windows 10"	"60.89"	n/a	n/a	n/a	n/a	n/a	n/a	"Trial"	n/a	n/a	n/a	n/a	"NULL"	"NULL"	"NULL"	"582"	"stimuli/Ebbinghaus_-0.35714_0.15857.png"	"arrowleft"	n/a	"Ebbinghaus"	"arrowleft"	"1202"	"TRUE"	"Ebbinghaus"	"-0.357140000"	"0.1585700000"	"1"	"30"
n/a	"html-keyboard-response"	"76"	"319690"	"0.0-4.0-2.0-0.12"	"8pgdpu"	"600"	"1366"	"chrome"	"108.0.0"	"FALSE"	"Windows 10"	"60.89"	n/a	n/a	n/a	n/a	n/a	n/a	"fixation"	n/a	n/a	n/a	n/a	"NULL"	"NULL"	"NULL"	n/a	"<p style=\"color: black; font-size: 80px; padding-left: 47%; padding-right: 49%; padding-top: 45%; padding-bottom: 48%\">+</p>"	n/a	"1476"	n/a	n/a	n/a	n/a	n/a	n/a	n/a	n/a	n/a
n/a	"image-keyboard-response"	"77"	"320153"	"0.0-4.0-2.0-1.12"	"8pgdpu"	"600"	"1366"	"chrome"	"108.0.0"	"FALSE"	"Windows 10"	"60.89"	n/a	n/a	n/a	n/a	n/a	n/a	"Trial"	n/a	n/a	n/a	n/a	"NULL"	"NULL"	"NULL"	"463"	"stimuli/Ebbinghaus_0.10000_0.28000.png"	"arrowleft"	n/a	"Ebbinghaus"	"arrowleft"	"1490"	"TRUE"	"Ebbinghaus"	"0.1000000000"	"0.2800000000"	"1"	"31"
n/a	"html-keyboard-response"	"78"	"321441"	"0.0-4.0-2.0-0.13"	"8pgdpu"	"600"	"1366"	"chrome"	"108.0.0"	"FALSE"	"Windows 10"	"60.89"	n/a	n/a	n/a	n/a	n/a	n/a	"fixation"	n/a	n/a	n/a	n/a	"NULL"	"NULL"	"NULL"	n/a	"<p style=\"color: black; font-size: 80px; padding-left: 26%; padding-right: 7%; padding-top: 41%; padding-bottom: 38%\">+</p>"	n/a	"1276"	n/a	n/a	n/a	n/a	n/a	n/a	n/a	n/a	n/a
n/a	"image-keyboard-response"	"79"	"321908"	"0.0-4.0-2.0-1.13"	"8pgdpu"	"600"	"1366"	"chrome"	"108.0.0"	"FALSE"	"Windows 10"	"60.89"	n/a	n/a	n/a	n/a	n/a	n/a	"Trial"	n/a	n/a	n/a	n/a	"NULL"	"NULL"	"NULL"	"466"	"stimuli/Ebbinghaus_-0.61429_-0.11071.png"	"arrowleft"	n/a	"Ebbinghaus"	"arrowright"	"1288"	"FALSE"	"Ebbinghaus"	"-0.614290000"	"-0.110710000"	"1"	"32"
n/a	"html-keyboard-response"	"80"	"323395"	"0.0-4.0-2.0-0.14"	"8pgdpu"	"600"	"1366"	"chrome"	"108.0.0"	"FALSE"	"Windows 10"	"60.89"	n/a	n/a	n/a	n/a	n/a	n/a	"fixation"	n/a	n/a	n/a	n/a	"NULL"	"NULL"	"NULL"	n/a	"<p style=\"color: black; font-size: 80px; padding-left: 45%; padding-right: 44%; padding-top: 37%; padding-bottom: 35%\">+</p>"	n/a	"1466"	n/a	n/a	n/a	n/a	n/a	n/a	n/a	n/a	n/a
n/a	"image-keyboard-response"	"81"	"323836"	"0.0-4.0-2.0-1.14"	"8pgdpu"	"600"	"1366"	"chrome"	"108.0.0"	"FALSE"	"Windows 10"	"60.89"	n/a	n/a	n/a	n/a	n/a	n/a	"Trial"	n/a	n/a	n/a	n/a	"NULL"	"NULL"	"NULL"	"440"	"stimuli/Ebbinghaus_-0.1000_-0.2150.png"	"arrowright"	n/a	"Ebbinghaus"	"arrowright"	"1487"	"TRUE"	"Ebbinghaus"	"-0.100000000"	"-0.215000000"	"1"	"33"
n/a	"html-keyboard-response"	"82"	"325222"	"0.0-4.0-2.0-0.15"	"8pgdpu"	"600"	"1366"	"chrome"	"108.0.0"	"FALSE"	"Windows 10"	"60.89"	n/a	n/a	n/a	n/a	n/a	n/a	"fixation"	n/a	n/a	n/a	n/a	"NULL"	"NULL"	"NULL"	n/a	"<p style=\"color: black; font-size: 80px; padding-left: 1%; padding-right: 2%; padding-top: 17%; padding-bottom: 44%\">+</p>"	n/a	"1373"	n/a	n/a	n/a	n/a	n/a	n/a	n/a	n/a	n/a
n/a	"image-keyboard-response"	"83"	"325641"	"0.0-4.0-2.0-1.15"	"8pgdpu"	"600"	"1366"	"chrome"	"108.0.0"	"FALSE"	"Windows 10"	"60.89"	n/a	n/a	n/a	n/a	n/a	n/a	"Trial"	n/a	n/a	n/a	n/a	"NULL"	"NULL"	"NULL"	"418"	"stimuli/Ebbinghaus_0.61429_0.28000.png"	"arrowleft"	n/a	"Ebbinghaus"	"arrowleft"	"1386"	"TRUE"	"Ebbinghaus"	"0.6142900000"	"0.2800000000"	"1"	"34"
n/a	"html-keyboard-response"	"84"	"326922"	"0.0-4.0-2.0-0.16"	"8pgdpu"	"600"	"1366"	"chrome"	"108.0.0"	"FALSE"	"Windows 10"	"60.89"	n/a	n/a	n/a	n/a	n/a	n/a	"fixation"	n/a	n/a	n/a	n/a	"NULL"	"NULL"	"NULL"	n/a	"<p style=\"color: black; font-size: 80px; padding-left: 46%; padding-right: 10%; padding-top: 32%; padding-bottom: 33%\">+</p>"	n/a	"1262"	n/a	n/a	n/a	n/a	n/a	n/a	n/a	n/a	n/a
n/a	"image-keyboard-response"	"85"	"327595"	"0.0-4.0-2.0-1.16"	"8pgdpu"	"600"	"1366"	"chrome"	"108.0.0"	"FALSE"	"Windows 10"	"60.89"	n/a	n/a	n/a	n/a	n/a	n/a	"Trial"	n/a	n/a	n/a	n/a	"NULL"	"NULL"	"NULL"	"672"	"stimuli/Ebbinghaus_-0.1000_-0.15857.png"	"arrowright"	n/a	"Ebbinghaus"	"arrowright"	"1281"	"TRUE"	"Ebbinghaus"	"-0.100000000"	"-0.158570000"	"1"	"35"
n/a	"html-keyboard-response"	"86"	"328679"	"0.0-4.0-2.0-0.17"	"8pgdpu"	"600"	"1366"	"chrome"	"108.0.0"	"FALSE"	"Windows 10"	"60.89"	n/a	n/a	n/a	n/a	n/a	n/a	"fixation"	n/a	n/a	n/a	n/a	"NULL"	"NULL"	"NULL"	n/a	"<p style=\"color: black; font-size: 80px; padding-left: 35%; padding-right: 38%; padding-top: 9%; padding-bottom: 7%\">+</p>"	n/a	"1073"	n/a	n/a	n/a	n/a	n/a	n/a	n/a	n/a	n/a
n/a	"image-keyboard-response"	"87"	"329299"	"0.0-4.0-2.0-1.17"	"8pgdpu"	"600"	"1366"	"chrome"	"108.0.0"	"FALSE"	"Windows 10"	"60.89"	n/a	n/a	n/a	n/a	n/a	n/a	"Trial"	n/a	n/a	n/a	n/a	"NULL"	"NULL"	"NULL"	"619"	"stimuli/Ebbinghaus_0.87143_-0.2800.png"	"arrowleft"	n/a	"Ebbinghaus"	"arrowright"	"1084"	"FALSE"	"Ebbinghaus"	"0.8714300000"	"-0.280000000"	"1"	"36"
n/a	"html-keyboard-response"	"88"	"330362"	"0.0-4.0-2.0-0.18"	"8pgdpu"	"600"	"1366"	"chrome"	"108.0.0"	"FALSE"	"Windows 10"	"60.89"	n/a	n/a	n/a	n/a	n/a	n/a	"fixation"	n/a	n/a	n/a	n/a	"NULL"	"NULL"	"NULL"	n/a	"<p style=\"color: black; font-size: 80px; padding-left: 47%; padding-right: 34%; padding-top: 1%; padding-bottom: 39%\">+</p>"	n/a	"1042"	n/a	n/a	n/a	n/a	n/a	n/a	n/a	n/a	n/a
n/a	"image-keyboard-response"	"89"	"331001"	"0.0-4.0-2.0-1.18"	"8pgdpu"	"600"	"1366"	"chrome"	"108.0.0"	"FALSE"	"Windows 10"	"60.89"	n/a	n/a	n/a	n/a	n/a	n/a	"Trial"	n/a	n/a	n/a	n/a	"NULL"	"NULL"	"NULL"	"638"	"stimuli/Ebbinghaus_0.10000_-0.11071.png"	"arrowright"	n/a	"Ebbinghaus"	"arrowright"	"1063"	"TRUE"	"Ebbinghaus"	"0.1000000000"	"-0.110710000"	"1"	"37"
n/a	"html-keyboard-response"	"90"	"332145"	"0.0-4.0-2.0-0.19"	"8pgdpu"	"600"	"1366"	"chrome"	"108.0.0"	"FALSE"	"Windows 10"	"60.89"	n/a	n/a	n/a	n/a	n/a	n/a	"fixation"	n/a	n/a	n/a	n/a	"NULL"	"NULL"	"NULL"	n/a	"<p style=\"color: black; font-size: 80px; padding-left: 47%; padding-right: 48%; padding-top: 8%; padding-bottom: 15%\">+</p>"	n/a	"1129"	n/a	n/a	n/a	n/a	n/a	n/a	n/a	n/a	n/a
n/a	"image-keyboard-response"	"91"	"332631"	"0.0-4.0-2.0-1.19"	"8pgdpu"	"600"	"1366"	"chrome"	"108.0.0"	"FALSE"	"Windows 10"	"60.89"	n/a	n/a	n/a	n/a	n/a	n/a	"Trial"	n/a	n/a	n/a	n/a	"NULL"	"NULL"	"NULL"	"485"	"stimuli/Ebbinghaus_-0.35714_-0.2150.png"	"arrowleft"	n/a	"Ebbinghaus"	"arrowright"	"1144"	"FALSE"	"Ebbinghaus"	"-0.357140000"	"-0.215000000"	"1"	"38"
n/a	"html-keyboard-response"	"92"	"333863"	"0.0-4.0-2.0-0.20"	"8pgdpu"	"600"	"1366"	"chrome"	"108.0.0"	"FALSE"	"Windows 10"	"60.89"	n/a	n/a	n/a	n/a	n/a	n/a	"fixation"	n/a	n/a	n/a	n/a	"NULL"	"NULL"	"NULL"	n/a	"<p style=\"color: black; font-size: 80px; padding-left: 16%; padding-right: 18%; padding-top: 40%; padding-bottom: 49%\">+</p>"	n/a	"1220"	n/a	n/a	n/a	n/a	n/a	n/a	n/a	n/a	n/a
n/a	"image-keyboard-response"	"93"	"334438"	"0.0-4.0-2.0-1.20"	"8pgdpu"	"600"	"1366"	"chrome"	"108.0.0"	"FALSE"	"Windows 10"	"60.89"	n/a	n/a	n/a	n/a	n/a	n/a	"Trial"	n/a	n/a	n/a	n/a	"NULL"	"NULL"	"NULL"	"574"	"stimuli/Ebbinghaus_-0.87143_-0.2800.png"	"arrowright"	n/a	"Ebbinghaus"	"arrowright"	"1232"	"TRUE"	"Ebbinghaus"	"-0.871430000"	"-0.280000000"	"1"	"39"
n/a	"html-keyboard-response"	"94"	"335865"	"0.0-4.0-2.0-0.21"	"8pgdpu"	"600"	"1366"	"chrome"	"108.0.0"	"FALSE"	"Windows 10"	"60.89"	n/a	n/a	n/a	n/a	n/a	n/a	"fixation"	n/a	n/a	n/a	n/a	"NULL"	"NULL"	"NULL"	n/a	"<p style=\"color: black; font-size: 80px; padding-left: 45%; padding-right: 15%; padding-top: 43%; padding-bottom: 46%\">+</p>"	n/a	"1416"	n/a	n/a	n/a	n/a	n/a	n/a	n/a	n/a	n/a
n/a	"image-keyboard-response"	"95"	"336521"	"0.0-4.0-2.0-1.21"	"8pgdpu"	"600"	"1366"	"chrome"	"108.0.0"	"FALSE"	"Windows 10"	"60.89"	n/a	n/a	n/a	n/a	n/a	n/a	"Trial"	n/a	n/a	n/a	n/a	"NULL"	"NULL"	"NULL"	"655"	"stimuli/Ebbinghaus_-0.35714_-0.11071.png"	"arrowright"	n/a	"Ebbinghaus"	"arrowright"	"1427"	"TRUE"	"Ebbinghaus"	"-0.357140000"	"-0.110710000"	"1"	"40"
n/a	"html-keyboard-response"	"96"	"337766"	"0.0-4.0-2.0-0.22"	"8pgdpu"	"600"	"1366"	"chrome"	"108.0.0"	"FALSE"	"Windows 10"	"60.89"	n/a	n/a	n/a	n/a	n/a	n/a	"fixation"	n/a	n/a	n/a	n/a	"NULL"	"NULL"	"NULL"	n/a	"<p style=\"color: black; font-size: 80px; padding-left: 4%; padding-right: 46%; padding-top: 21%; padding-bottom: 48%\">+</p>"	n/a	"1230"	n/a	n/a	n/a	n/a	n/a	n/a	n/a	n/a	n/a
n/a	"image-keyboard-response"	"97"	"338180"	"0.0-4.0-2.0-1.22"	"8pgdpu"	"600"	"1366"	"chrome"	"108.0.0"	"FALSE"	"Windows 10"	"60.89"	n/a	n/a	n/a	n/a	n/a	n/a	"Trial"	n/a	n/a	n/a	n/a	"NULL"	"NULL"	"NULL"	"413"	"stimuli/Ebbinghaus_0.87143_-0.15857.png"	"arrowright"	n/a	"Ebbinghaus"	"arrowright"	"1245"	"TRUE"	"Ebbinghaus"	"0.8714300000"	"-0.158570000"	"1"	"41"
n/a	"html-keyboard-response"	"98"	"339667"	"0.0-4.0-2.0-0.23"	"8pgdpu"	"600"	"1366"	"chrome"	"108.0.0"	"FALSE"	"Windows 10"	"60.89"	n/a	n/a	n/a	n/a	n/a	n/a	"fixation"	n/a	n/a	n/a	n/a	"NULL"	"NULL"	"NULL"	n/a	"<p style=\"color: black; font-size: 80px; padding-left: 35%; padding-right: 12%; padding-top: 49%; padding-bottom: 10%\">+</p>"	n/a	"1471"	n/a	n/a	n/a	n/a	n/a	n/a	n/a	n/a	n/a
n/a	"image-keyboard-response"	"99"	"340217"	"0.0-4.0-2.0-1.23"	"8pgdpu"	"600"	"1366"	"chrome"	"108.0.0"	"FALSE"	"Windows 10"	"60.89"	n/a	n/a	n/a	n/a	n/a	n/a	"Trial"	n/a	n/a	n/a	n/a	"NULL"	"NULL"	"NULL"	"548"	"stimuli/Ebbinghaus_0.35714_-0.2150.png"	"arrowleft"	n/a	"Ebbinghaus"	"arrowright"	"1487"	"FALSE"	"Ebbinghaus"	"0.3571400000"	"-0.215000000"	"1"	"42"
n/a	"html-keyboard-response"	"100"	"341377"	"0.0-4.0-2.0-0.24"	"8pgdpu"	"600"	"1366"	"chrome"	"108.0.0"	"FALSE"	"Windows 10"	"60.89"	n/a	n/a	n/a	n/a	n/a	n/a	"fixation"	n/a	n/a	n/a	n/a	"NULL"	"NULL"	"NULL"	n/a	"<p style=\"color: black; font-size: 80px; padding-left: 6%; padding-right: 24%; padding-top: 46%; padding-bottom: 28%\">+</p>"	n/a	"1147"	n/a	n/a	n/a	n/a	n/a	n/a	n/a	n/a	n/a
n/a	"image-keyboard-response"	"101"	"341851"	"0.0-4.0-2.0-1.24"	"8pgdpu"	"600"	"1366"	"chrome"	"108.0.0"	"FALSE"	"Windows 10"	"60.89"	n/a	n/a	n/a	n/a	n/a	n/a	"Trial"	n/a	n/a	n/a	n/a	"NULL"	"NULL"	"NULL"	"474"	"stimuli/Ebbinghaus_-0.87143_0.11071.png"	"arrowleft"	n/a	"Ebbinghaus"	"arrowleft"	"1160"	"TRUE"	"Ebbinghaus"	"-0.871430000"	"0.1107100000"	"1"	"43"
n/a	"html-keyboard-response"	"102"	"343176"	"0.0-4.0-2.0-0.25"	"8pgdpu"	"600"	"1366"	"chrome"	"108.0.0"	"FALSE"	"Windows 10"	"60.89"	n/a	n/a	n/a	n/a	n/a	n/a	"fixation"	n/a	n/a	n/a	n/a	"NULL"	"NULL"	"NULL"	n/a	"<p style=\"color: black; font-size: 80px; padding-left: 6%; padding-right: 4%; padding-top: 19%; padding-bottom: 2%\">+</p>"	n/a	"1306"	n/a	n/a	n/a	n/a	n/a	n/a	n/a	n/a	n/a
n/a	"image-keyboard-response"	"103"	"343518"	"0.0-4.0-2.0-1.25"	"8pgdpu"	"600"	"1366"	"chrome"	"108.0.0"	"FALSE"	"Windows 10"	"60.89"	n/a	n/a	n/a	n/a	n/a	n/a	"Trial"	n/a	n/a	n/a	n/a	"NULL"	"NULL"	"NULL"	"341"	"stimuli/Ebbinghaus_0.87143_0.28000.png"	"arrowleft"	n/a	"Ebbinghaus"	"arrowleft"	"1325"	"TRUE"	"Ebbinghaus"	"0.8714300000"	"0.2800000000"	"1"	"44"
n/a	"html-keyboard-response"	"104"	"344590"	"0.0-4.0-2.0-0.26"	"8pgdpu"	"600"	"1366"	"chrome"	"108.0.0"	"FALSE"	"Windows 10"	"60.89"	n/a	n/a	n/a	n/a	n/a	n/a	"fixation"	n/a	n/a	n/a	n/a	"NULL"	"NULL"	"NULL"	n/a	"<p style=\"color: black; font-size: 80px; padding-left: 10%; padding-right: 32%; padding-top: 3%; padding-bottom: 42%\">+</p>"	n/a	"1056"	n/a	n/a	n/a	n/a	n/a	n/a	n/a	n/a	n/a
n/a	"image-keyboard-response"	"105"	"344941"	"0.0-4.0-2.0-1.26"	"8pgdpu"	"600"	"1366"	"chrome"	"108.0.0"	"FALSE"	"Windows 10"	"60.89"	n/a	n/a	n/a	n/a	n/a	n/a	"Trial"	n/a	n/a	n/a	n/a	"NULL"	"NULL"	"NULL"	"349"	"stimuli/Ebbinghaus_0.35714_0.15857.png"	"arrowleft"	n/a	"Ebbinghaus"	"arrowleft"	"1072"	"TRUE"	"Ebbinghaus"	"0.3571400000"	"0.1585700000"	"1"	"45"
n/a	"html-keyboard-response"	"106"	"346417"	"0.0-4.0-2.0-0.27"	"8pgdpu"	"600"	"1366"	"chrome"	"108.0.0"	"FALSE"	"Windows 10"	"60.89"	n/a	n/a	n/a	n/a	n/a	n/a	"fixation"	n/a	n/a	n/a	n/a	"NULL"	"NULL"	"NULL"	n/a	"<p style=\"color: black; font-size: 80px; padding-left: 33%; padding-right: 17%; padding-top: 21%; padding-bottom: 33%\">+</p>"	n/a	"1461"	n/a	n/a	n/a	n/a	n/a	n/a	n/a	n/a	n/a
n/a	"image-keyboard-response"	"107"	"346989"	"0.0-4.0-2.0-1.27"	"8pgdpu"	"600"	"1366"	"chrome"	"108.0.0"	"FALSE"	"Windows 10"	"60.89"	n/a	n/a	n/a	n/a	n/a	n/a	"Trial"	n/a	n/a	n/a	n/a	"NULL"	"NULL"	"NULL"	"570"	"stimuli/Ebbinghaus_-0.61429_0.15857.png"	"arrowleft"	n/a	"Ebbinghaus"	"arrowleft"	"1476"	"TRUE"	"Ebbinghaus"	"-0.614290000"	"0.1585700000"	"1"	"46"
n/a	"html-keyboard-response"	"108"	"348377"	"0.0-4.0-2.0-0.28"	"8pgdpu"	"600"	"1366"	"chrome"	"108.0.0"	"FALSE"	"Windows 10"	"60.89"	n/a	n/a	n/a	n/a	n/a	n/a	"fixation"	n/a	n/a	n/a	n/a	"NULL"	"NULL"	"NULL"	n/a	"<p style=\"color: black; font-size: 80px; padding-left: 11%; padding-right: 40%; padding-top: 47%; padding-bottom: 7%\">+</p>"	n/a	"1377"	n/a	n/a	n/a	n/a	n/a	n/a	n/a	n/a	n/a
n/a	"image-keyboard-response"	"109"	"348945"	"0.0-4.0-2.0-1.28"	"8pgdpu"	"600"	"1366"	"chrome"	"108.0.0"	"FALSE"	"Windows 10"	"60.89"	n/a	n/a	n/a	n/a	n/a	n/a	"Trial"	n/a	n/a	n/a	n/a	"NULL"	"NULL"	"NULL"	"568"	"stimuli/Ebbinghaus_-0.35714_-0.15857.png"	"arrowright"	n/a	"Ebbinghaus"	"arrowright"	"1388"	"TRUE"	"Ebbinghaus"	"-0.357140000"	"-0.158570000"	"1"	"47"
n/a	"html-keyboard-response"	"110"	"350146"	"0.0-4.0-2.0-0.29"	"8pgdpu"	"600"	"1366"	"chrome"	"108.0.0"	"FALSE"	"Windows 10"	"60.89"	n/a	n/a	n/a	n/a	n/a	n/a	"fixation"	n/a	n/a	n/a	n/a	"NULL"	"NULL"	"NULL"	n/a	"<p style=\"color: black; font-size: 80px; padding-left: 12%; padding-right: 14%; padding-top: 4%; padding-bottom: 28%\">+</p>"	n/a	"1183"	n/a	n/a	n/a	n/a	n/a	n/a	n/a	n/a	n/a
n/a	"image-keyboard-response"	"111"	"350607"	"0.0-4.0-2.0-1.29"	"8pgdpu"	"600"	"1366"	"chrome"	"108.0.0"	"FALSE"	"Windows 10"	"60.89"	n/a	n/a	n/a	n/a	n/a	n/a	"Trial"	n/a	n/a	n/a	n/a	"NULL"	"NULL"	"NULL"	"460"	"stimuli/Ebbinghaus_0.61429_-0.2800.png"	"arrowleft"	n/a	"Ebbinghaus"	"arrowright"	"1201"	"FALSE"	"Ebbinghaus"	"0.6142900000"	"-0.280000000"	"1"	"48"
n/a	"html-keyboard-response"	"112"	"352009"	"0.0-4.0-2.0-0.30"	"8pgdpu"	"600"	"1366"	"chrome"	"108.0.0"	"FALSE"	"Windows 10"	"60.89"	n/a	n/a	n/a	n/a	n/a	n/a	"fixation"	n/a	n/a	n/a	n/a	"NULL"	"NULL"	"NULL"	n/a	"<p style=\"color: black; font-size: 80px; padding-left: 9%; padding-right: 30%; padding-top: 31%; padding-bottom: 21%\">+</p>"	n/a	"1393"	n/a	n/a	n/a	n/a	n/a	n/a	n/a	n/a	n/a
n/a	"image-keyboard-response"	"113"	"352336"	"0.0-4.0-2.0-1.30"	"8pgdpu"	"600"	"1366"	"chrome"	"108.0.0"	"FALSE"	"Windows 10"	"60.89"	n/a	n/a	n/a	n/a	n/a	n/a	"Trial"	n/a	n/a	n/a	n/a	"NULL"	"NULL"	"NULL"	"326"	"stimuli/Ebbinghaus_-0.1000_0.11071.png"	"arrowleft"	n/a	"Ebbinghaus"	"arrowleft"	"1402"	"TRUE"	"Ebbinghaus"	"-0.100000000"	"0.1107100000"	"1"	"49"
n/a	"html-keyboard-response"	"114"	"353458"	"0.0-4.0-2.0-0.31"	"8pgdpu"	"600"	"1366"	"chrome"	"108.0.0"	"FALSE"	"Windows 10"	"60.89"	n/a	n/a	n/a	n/a	n/a	n/a	"fixation"	n/a	n/a	n/a	n/a	"NULL"	"NULL"	"NULL"	n/a	"<p style=\"color: black; font-size: 80px; padding-left: 14%; padding-right: 3%; padding-top: 9%; padding-bottom: 12%\">+</p>"	n/a	"1104"	n/a	n/a	n/a	n/a	n/a	n/a	n/a	n/a	n/a
n/a	"image-keyboard-response"	"115"	"353782"	"0.0-4.0-2.0-1.31"	"8pgdpu"	"600"	"1366"	"chrome"	"108.0.0"	"FALSE"	"Windows 10"	"60.89"	n/a	n/a	n/a	n/a	n/a	n/a	"Trial"	n/a	n/a	n/a	n/a	"NULL"	"NULL"	"NULL"	"323"	"stimuli/Ebbinghaus_-0.35714_0.28000.png"	"arrowleft"	n/a	"Ebbinghaus"	"arrowleft"	"1122"	"TRUE"	"Ebbinghaus"	"-0.357140000"	"0.2800000000"	"1"	"50"
n/a	"html-keyboard-response"	"116"	"354953"	"0.0-4.0-2.0-0.32"	"8pgdpu"	"600"	"1366"	"chrome"	"108.0.0"	"FALSE"	"Windows 10"	"60.89"	n/a	n/a	n/a	n/a	n/a	n/a	"fixation"	n/a	n/a	n/a	n/a	"NULL"	"NULL"	"NULL"	n/a	"<p style=\"color: black; font-size: 80px; padding-left: 13%; padding-right: 43%; padding-top: 40%; padding-bottom: 23%\">+</p>"	n/a	"1156"	n/a	n/a	n/a	n/a	n/a	n/a	n/a	n/a	n/a
n/a	"image-keyboard-response"	"117"	"355262"	"0.0-4.0-2.0-1.32"	"8pgdpu"	"600"	"1366"	"chrome"	"108.0.0"	"FALSE"	"Windows 10"	"60.89"	n/a	n/a	n/a	n/a	n/a	n/a	"Trial"	n/a	n/a	n/a	n/a	"NULL"	"NULL"	"NULL"	"308"	"stimuli/Ebbinghaus_0.35714_0.28000.png"	"arrowleft"	n/a	"Ebbinghaus"	"arrowleft"	"1171"	"TRUE"	"Ebbinghaus"	"0.3571400000"	"0.2800000000"	"1"	"51"
n/a	"html-keyboard-response"	"118"	"356381"	"0.0-4.0-2.0-0.33"	"8pgdpu"	"600"	"1366"	"chrome"	"108.0.0"	"FALSE"	"Windows 10"	"60.89"	n/a	n/a	n/a	n/a	n/a	n/a	"fixation"	n/a	n/a	n/a	n/a	"NULL"	"NULL"	"NULL"	n/a	"<p style=\"color: black; font-size: 80px; padding-left: 2%; padding-right: 18%; padding-top: 37%; padding-bottom: 2%\">+</p>"	n/a	"1100"	n/a	n/a	n/a	n/a	n/a	n/a	n/a	n/a	n/a
n/a	"image-keyboard-response"	"119"	"356779"	"0.0-4.0-2.0-1.33"	"8pgdpu"	"600"	"1366"	"chrome"	"108.0.0"	"FALSE"	"Windows 10"	"60.89"	n/a	n/a	n/a	n/a	n/a	n/a	"Trial"	n/a	n/a	n/a	n/a	"NULL"	"NULL"	"NULL"	"397"	"stimuli/Ebbinghaus_-0.1000_0.21500.png"	"arrowleft"	n/a	"Ebbinghaus"	"arrowleft"	"1119"	"TRUE"	"Ebbinghaus"	"-0.100000000"	"0.2150000000"	"1"	"52"
n/a	"html-keyboard-response"	"120"	"357912"	"0.0-4.0-2.0-0.34"	"8pgdpu"	"600"	"1366"	"chrome"	"108.0.0"	"FALSE"	"Windows 10"	"60.89"	n/a	n/a	n/a	n/a	n/a	n/a	"fixation"	n/a	n/a	n/a	n/a	"NULL"	"NULL"	"NULL"	n/a	"<p style=\"color: black; font-size: 80px; padding-left: 38%; padding-right: 45%; padding-top: 23%; padding-bottom: 7%\">+</p>"	n/a	"1115"	n/a	n/a	n/a	n/a	n/a	n/a	n/a	n/a	n/a
n/a	"image-keyboard-response"	"121"	"358300"	"0.0-4.0-2.0-1.34"	"8pgdpu"	"600"	"1366"	"chrome"	"108.0.0"	"FALSE"	"Windows 10"	"60.89"	n/a	n/a	n/a	n/a	n/a	n/a	"Trial"	n/a	n/a	n/a	n/a	"NULL"	"NULL"	"NULL"	"387"	"stimuli/Ebbinghaus_-0.61429_-0.15857.png"	"arrowright"	n/a	"Ebbinghaus"	"arrowright"	"1133"	"TRUE"	"Ebbinghaus"	"-0.614290000"	"-0.158570000"	"1"	"53"
n/a	"html-keyboard-response"	"122"	"359580"	"0.0-4.0-2.0-0.35"	"8pgdpu"	"600"	"1366"	"chrome"	"108.0.0"	"FALSE"	"Windows 10"	"60.89"	n/a	n/a	n/a	n/a	n/a	n/a	"fixation"	n/a	n/a	n/a	n/a	"NULL"	"NULL"	"NULL"	n/a	"<p style=\"color: black; font-size: 80px; padding-left: 14%; padding-right: 23%; padding-top: 35%; padding-bottom: 19%\">+</p>"	n/a	"1256"	n/a	n/a	n/a	n/a	n/a	n/a	n/a	n/a	n/a
n/a	"image-keyboard-response"	"123"	"360075"	"0.0-4.0-2.0-1.35"	"8pgdpu"	"600"	"1366"	"chrome"	"108.0.0"	"FALSE"	"Windows 10"	"60.89"	n/a	n/a	n/a	n/a	n/a	n/a	"Trial"	n/a	n/a	n/a	n/a	"NULL"	"NULL"	"NULL"	"494"	"stimuli/Ebbinghaus_-0.61429_0.11071.png"	"arrowleft"	n/a	"Ebbinghaus"	"arrowleft"	"1280"	"TRUE"	"Ebbinghaus"	"-0.614290000"	"0.1107100000"	"1"	"54"
n/a	"html-keyboard-response"	"124"	"361230"	"0.0-4.0-2.0-0.36"	"8pgdpu"	"600"	"1366"	"chrome"	"108.0.0"	"FALSE"	"Windows 10"	"60.89"	n/a	n/a	n/a	n/a	n/a	n/a	"fixation"	n/a	n/a	n/a	n/a	"NULL"	"NULL"	"NULL"	n/a	"<p style=\"color: black; font-size: 80px; padding-left: 37%; padding-right: 14%; padding-top: 31%; padding-bottom: 47%\">+</p>"	n/a	"1147"	n/a	n/a	n/a	n/a	n/a	n/a	n/a	n/a	n/a
n/a	"image-keyboard-response"	"125"	"361529"	"0.0-4.0-2.0-1.36"	"8pgdpu"	"600"	"1366"	"chrome"	"108.0.0"	"FALSE"	"Windows 10"	"60.89"	n/a	n/a	n/a	n/a	n/a	n/a	"Trial"	n/a	n/a	n/a	n/a	"NULL"	"NULL"	"NULL"	"298"	"stimuli/Ebbinghaus_0.61429_-0.11071.png"	"arrowleft"	n/a	"Ebbinghaus"	"arrowright"	"1155"	"FALSE"	"Ebbinghaus"	"0.6142900000"	"-0.110710000"	"1"	"55"
n/a	"html-keyboard-response"	"126"	"362834"	"0.0-4.0-2.0-0.37"	"8pgdpu"	"600"	"1366"	"chrome"	"108.0.0"	"FALSE"	"Windows 10"	"60.89"	n/a	n/a	n/a	n/a	n/a	n/a	"fixation"	n/a	n/a	n/a	n/a	"NULL"	"NULL"	"NULL"	n/a	"<p style=\"color: black; font-size: 80px; padding-left: 11%; padding-right: 46%; padding-top: 39%; padding-bottom: 5%\">+</p>"	n/a	"1292"	n/a	n/a	n/a	n/a	n/a	n/a	n/a	n/a	n/a
n/a	"image-keyboard-response"	"127"	"363103"	"0.0-4.0-2.0-1.37"	"8pgdpu"	"600"	"1366"	"chrome"	"108.0.0"	"FALSE"	"Windows 10"	"60.89"	n/a	n/a	n/a	n/a	n/a	n/a	"Trial"	n/a	n/a	n/a	n/a	"NULL"	"NULL"	"NULL"	"269"	"stimuli/Ebbinghaus_-0.35714_0.21500.png"	"arrowleft"	n/a	"Ebbinghaus"	"arrowleft"	"1305"	"TRUE"	"Ebbinghaus"	"-0.357140000"	"0.2150000000"	"1"	"56"
n/a	"html-keyboard-response"	"128"	"364460"	"0.0-4.0-2.0-0.38"	"8pgdpu"	"600"	"1366"	"chrome"	"108.0.0"	"FALSE"	"Windows 10"	"60.89"	n/a	n/a	n/a	n/a	n/a	n/a	"fixation"	n/a	n/a	n/a	n/a	"NULL"	"NULL"	"NULL"	n/a	"<p style=\"color: black; font-size: 80px; padding-left: 39%; padding-right: 34%; padding-top: 18%; padding-bottom: 47%\">+</p>"	n/a	"1339"	n/a	n/a	n/a	n/a	n/a	n/a	n/a	n/a	n/a
n/a	"image-keyboard-response"	"129"	"364757"	"0.0-4.0-2.0-1.38"	"8pgdpu"	"600"	"1366"	"chrome"	"108.0.0"	"FALSE"	"Windows 10"	"60.89"	n/a	n/a	n/a	n/a	n/a	n/a	"Trial"	n/a	n/a	n/a	n/a	"NULL"	"NULL"	"NULL"	"296"	"stimuli/Ebbinghaus_0.10000_-0.15857.png"	"arrowleft"	n/a	"Ebbinghaus"	"arrowright"	"1357"	"FALSE"	"Ebbinghaus"	"0.1000000000"	"-0.158570000"	"1"	"57"
n/a	"html-keyboard-response"	"130"	"365973"	"0.0-4.0-2.0-0.39"	"8pgdpu"	"600"	"1366"	"chrome"	"108.0.0"	"FALSE"	"Windows 10"	"60.89"	n/a	n/a	n/a	n/a	n/a	n/a	"fixation"	n/a	n/a	n/a	n/a	"NULL"	"NULL"	"NULL"	n/a	"<p style=\"color: black; font-size: 80px; padding-left: 46%; padding-right: 18%; padding-top: 10%; padding-bottom: 44%\">+</p>"	n/a	"1211"	n/a	n/a	n/a	n/a	n/a	n/a	n/a	n/a	n/a
n/a	"image-keyboard-response"	"131"	"366324"	"0.0-4.0-2.0-1.39"	"8pgdpu"	"600"	"1366"	"chrome"	"108.0.0"	"FALSE"	"Windows 10"	"60.89"	n/a	n/a	n/a	n/a	n/a	n/a	"Trial"	n/a	n/a	n/a	n/a	"NULL"	"NULL"	"NULL"	"350"	"stimuli/Ebbinghaus_-0.1000_0.15857.png"	"arrowright"	n/a	"Ebbinghaus"	"arrowleft"	"1216"	"FALSE"	"Ebbinghaus"	"-0.100000000"	"0.1585700000"	"1"	"58"
n/a	"html-keyboard-response"	"132"	"367541"	"0.0-4.0-2.0-0.40"	"8pgdpu"	"600"	"1366"	"chrome"	"108.0.0"	"FALSE"	"Windows 10"	"60.89"	n/a	n/a	n/a	n/a	n/a	n/a	"fixation"	n/a	n/a	n/a	n/a	"NULL"	"NULL"	"NULL"	n/a	"<p style=\"color: black; font-size: 80px; padding-left: 24%; padding-right: 32%; padding-top: 30%; padding-bottom: 38%\">+</p>"	n/a	"1203"	n/a	n/a	n/a	n/a	n/a	n/a	n/a	n/a	n/a
n/a	"image-keyboard-response"	"133"	"367823"	"0.0-4.0-2.0-1.40"	"8pgdpu"	"600"	"1366"	"chrome"	"108.0.0"	"FALSE"	"Windows 10"	"60.89"	n/a	n/a	n/a	n/a	n/a	n/a	"Trial"	n/a	n/a	n/a	n/a	"NULL"	"NULL"	"NULL"	"281"	"stimuli/Ebbinghaus_0.87143_0.15857.png"	"arrowleft"	n/a	"Ebbinghaus"	"arrowleft"	"1217"	"TRUE"	"Ebbinghaus"	"0.8714300000"	"0.1585700000"	"1"	"59"
n/a	"html-keyboard-response"	"134"	"368970"	"0.0-4.0-2.0-0.41"	"8pgdpu"	"600"	"1366"	"chrome"	"108.0.0"	"FALSE"	"Windows 10"	"60.89"	n/a	n/a	n/a	n/a	n/a	n/a	"fixation"	n/a	n/a	n/a	n/a	"NULL"	"NULL"	"NULL"	n/a	"<p style=\"color: black; font-size: 80px; padding-left: 10%; padding-right: 5%; padding-top: 31%; padding-bottom: 17%\">+</p>"	n/a	"1132"	n/a	n/a	n/a	n/a	n/a	n/a	n/a	n/a	n/a
n/a	"image-keyboard-response"	"135"	"369366"	"0.0-4.0-2.0-1.41"	"8pgdpu"	"600"	"1366"	"chrome"	"108.0.0"	"FALSE"	"Windows 10"	"60.89"	n/a	n/a	n/a	n/a	n/a	n/a	"Trial"	n/a	n/a	n/a	n/a	"NULL"	"NULL"	"NULL"	"395"	"stimuli/Ebbinghaus_-0.87143_0.28000.png"	"arrowright"	n/a	"Ebbinghaus"	"arrowleft"	"1147"	"FALSE"	"Ebbinghaus"	"-0.871430000"	"0.2800000000"	"1"	"60"
n/a	"html-keyboard-response"	"136"	"370676"	"0.0-4.0-2.0-0.42"	"8pgdpu"	"600"	"1366"	"chrome"	"108.0.0"	"FALSE"	"Windows 10"	"60.89"	n/a	n/a	n/a	n/a	n/a	n/a	"fixation"	n/a	n/a	n/a	n/a	"NULL"	"NULL"	"NULL"	n/a	"<p style=\"color: black; font-size: 80px; padding-left: 3%; padding-right: 23%; padding-top: 21%; padding-bottom: 7%\">+</p>"	n/a	"1294"	n/a	n/a	n/a	n/a	n/a	n/a	n/a	n/a	n/a
n/a	"image-keyboard-response"	"137"	"371008"	"0.0-4.0-2.0-1.42"	"8pgdpu"	"600"	"1366"	"chrome"	"108.0.0"	"FALSE"	"Windows 10"	"60.89"	n/a	n/a	n/a	n/a	n/a	n/a	"Trial"	n/a	n/a	n/a	n/a	"NULL"	"NULL"	"NULL"	"331"	"stimuli/Ebbinghaus_0.87143_-0.2150.png"	"arrowleft"	n/a	"Ebbinghaus"	"arrowright"	"1310"	"FALSE"	"Ebbinghaus"	"0.8714300000"	"-0.215000000"	"1"	"61"
n/a	"html-keyboard-response"	"138"	"372116"	"0.0-4.0-2.0-0.43"	"8pgdpu"	"600"	"1366"	"chrome"	"108.0.0"	"FALSE"	"Windows 10"	"60.89"	n/a	n/a	n/a	n/a	n/a	n/a	"fixation"	n/a	n/a	n/a	n/a	"NULL"	"NULL"	"NULL"	n/a	"<p style=\"color: black; font-size: 80px; padding-left: 14%; padding-right: 20%; padding-top: 23%; padding-bottom: 43%\">+</p>"	n/a	"1095"	n/a	n/a	n/a	n/a	n/a	n/a	n/a	n/a	n/a
n/a	"image-keyboard-response"	"139"	"372465"	"0.0-4.0-2.0-1.43"	"8pgdpu"	"600"	"1366"	"chrome"	"108.0.0"	"FALSE"	"Windows 10"	"60.89"	n/a	n/a	n/a	n/a	n/a	n/a	"Trial"	n/a	n/a	n/a	n/a	"NULL"	"NULL"	"NULL"	"348"	"stimuli/Ebbinghaus_0.35714_0.21500.png"	"arrowleft"	n/a	"Ebbinghaus"	"arrowleft"	"1108"	"TRUE"	"Ebbinghaus"	"0.3571400000"	"0.2150000000"	"1"	"62"
n/a	"html-keyboard-response"	"140"	"373523"	"0.0-4.0-2.0-0.44"	"8pgdpu"	"600"	"1366"	"chrome"	"108.0.0"	"FALSE"	"Windows 10"	"60.89"	n/a	n/a	n/a	n/a	n/a	n/a	"fixation"	n/a	n/a	n/a	n/a	"NULL"	"NULL"	"NULL"	n/a	"<p style=\"color: black; font-size: 80px; padding-left: 4%; padding-right: 23%; padding-top: 43%; padding-bottom: 44%\">+</p>"	n/a	"1047"	n/a	n/a	n/a	n/a	n/a	n/a	n/a	n/a	n/a
n/a	"image-keyboard-response"	"141"	"373845"	"0.0-4.0-2.0-1.44"	"8pgdpu"	"600"	"1366"	"chrome"	"108.0.0"	"FALSE"	"Windows 10"	"60.89"	n/a	n/a	n/a	n/a	n/a	n/a	"Trial"	n/a	n/a	n/a	n/a	"NULL"	"NULL"	"NULL"	"321"	"stimuli/Ebbinghaus_-0.1000_-0.2800.png"	"arrowleft"	n/a	"Ebbinghaus"	"arrowright"	"1058"	"FALSE"	"Ebbinghaus"	"-0.100000000"	"-0.280000000"	"1"	"63"
n/a	"html-keyboard-response"	"142"	"375279"	"0.0-4.0-2.0-0.45"	"8pgdpu"	"600"	"1366"	"chrome"	"108.0.0"	"FALSE"	"Windows 10"	"60.89"	n/a	n/a	n/a	n/a	n/a	n/a	"fixation"	n/a	n/a	n/a	n/a	"NULL"	"NULL"	"NULL"	n/a	"<p style=\"color: black; font-size: 80px; padding-left: 13%; padding-right: 18%; padding-top: 38%; padding-bottom: 8%\">+</p>"	n/a	"1431"	n/a	n/a	n/a	n/a	n/a	n/a	n/a	n/a	n/a
n/a	"image-keyboard-response"	"143"	"375579"	"0.0-4.0-2.0-1.45"	"8pgdpu"	"600"	"1366"	"chrome"	"108.0.0"	"FALSE"	"Windows 10"	"60.89"	n/a	n/a	n/a	n/a	n/a	n/a	"Trial"	n/a	n/a	n/a	n/a	"NULL"	"NULL"	"NULL"	"299"	"stimuli/Ebbinghaus_0.35714_-0.11071.png"	"arrowleft"	n/a	"Ebbinghaus"	"arrowright"	"1434"	"FALSE"	"Ebbinghaus"	"0.3571400000"	"-0.110710000"	"1"	"64"
n/a	"html-keyboard-response"	"144"	"376819"	"0.0-4.0-2.0-0.46"	"8pgdpu"	"600"	"1366"	"chrome"	"108.0.0"	"FALSE"	"Windows 10"	"60.89"	n/a	n/a	n/a	n/a	n/a	n/a	"fixation"	n/a	n/a	n/a	n/a	"NULL"	"NULL"	"NULL"	n/a	"<p style=\"color: black; font-size: 80px; padding-left: 37%; padding-right: 43%; padding-top: 47%; padding-bottom: 17%\">+</p>"	n/a	"1227"	n/a	n/a	n/a	n/a	n/a	n/a	n/a	n/a	n/a
n/a	"image-keyboard-response"	"145"	"377265"	"0.0-4.0-2.0-1.46"	"8pgdpu"	"600"	"1366"	"chrome"	"108.0.0"	"FALSE"	"Windows 10"	"60.89"	n/a	n/a	n/a	n/a	n/a	n/a	"Trial"	n/a	n/a	n/a	n/a	"NULL"	"NULL"	"NULL"	"445"	"stimuli/Ebbinghaus_0.10000_-0.2800.png"	"arrowright"	n/a	"Ebbinghaus"	"arrowright"	"1240"	"TRUE"	"Ebbinghaus"	"0.1000000000"	"-0.280000000"	"1"	"65"
n/a	"html-keyboard-response"	"146"	"378588"	"0.0-4.0-2.0-0.47"	"8pgdpu"	"600"	"1366"	"chrome"	"108.0.0"	"FALSE"	"Windows 10"	"60.89"	n/a	n/a	n/a	n/a	n/a	n/a	"fixation"	n/a	n/a	n/a	n/a	"NULL"	"NULL"	"NULL"	n/a	"<p style=\"color: black; font-size: 80px; padding-left: 2%; padding-right: 26%; padding-top: 24%; padding-bottom: 49%\">+</p>"	n/a	"1309"	n/a	n/a	n/a	n/a	n/a	n/a	n/a	n/a	n/a
n/a	"image-keyboard-response"	"147"	"378848"	"0.0-4.0-2.0-1.47"	"8pgdpu"	"600"	"1366"	"chrome"	"108.0.0"	"FALSE"	"Windows 10"	"60.89"	n/a	n/a	n/a	n/a	n/a	n/a	"Trial"	n/a	n/a	n/a	n/a	"NULL"	"NULL"	"NULL"	"259"	"stimuli/Ebbinghaus_0.61429_0.15857.png"	"arrowleft"	n/a	"Ebbinghaus"	"arrowleft"	"1323"	"TRUE"	"Ebbinghaus"	"0.6142900000"	"0.1585700000"	"1"	"66"
n/a	"html-keyboard-response"	"148"	"379950"	"0.0-4.0-2.0-0.48"	"8pgdpu"	"600"	"1366"	"chrome"	"108.0.0"	"FALSE"	"Windows 10"	"60.89"	n/a	n/a	n/a	n/a	n/a	n/a	"fixation"	n/a	n/a	n/a	n/a	"NULL"	"NULL"	"NULL"	n/a	"<p style=\"color: black; font-size: 80px; padding-left: 19%; padding-right: 24%; padding-top: 29%; padding-bottom: 1%\">+</p>"	n/a	"1092"	n/a	n/a	n/a	n/a	n/a	n/a	n/a	n/a	n/a
n/a	"image-keyboard-response"	"149"	"380310"	"0.0-4.0-2.0-1.48"	"8pgdpu"	"600"	"1366"	"chrome"	"108.0.0"	"FALSE"	"Windows 10"	"60.89"	n/a	n/a	n/a	n/a	n/a	n/a	"Trial"	n/a	n/a	n/a	n/a	"NULL"	"NULL"	"NULL"	"359"	"stimuli/Ebbinghaus_0.35714_-0.15857.png"	"arrowleft"	n/a	"Ebbinghaus"	"arrowright"	"1102"	"FALSE"	"Ebbinghaus"	"0.3571400000"	"-0.158570000"	"1"	"67"
n/a	"html-keyboard-response"	"150"	"381638"	"0.0-4.0-2.0-0.49"	"8pgdpu"	"600"	"1366"	"chrome"	"108.0.0"	"FALSE"	"Windows 10"	"60.89"	n/a	n/a	n/a	n/a	n/a	n/a	"fixation"	n/a	n/a	n/a	n/a	"NULL"	"NULL"	"NULL"	n/a	"<p style=\"color: black; font-size: 80px; padding-left: 7%; padding-right: 14%; padding-top: 18%; padding-bottom: 50%\">+</p>"	n/a	"1310"	n/a	n/a	n/a	n/a	n/a	n/a	n/a	n/a	n/a
n/a	"image-keyboard-response"	"151"	"382482"	"0.0-4.0-2.0-1.49"	"8pgdpu"	"600"	"1366"	"chrome"	"108.0.0"	"FALSE"	"Windows 10"	"60.89"	n/a	n/a	n/a	n/a	n/a	n/a	"Trial"	n/a	n/a	n/a	n/a	"NULL"	"NULL"	"NULL"	"839"	"stimuli/Ebbinghaus_0.35714_-0.2800.png"	"arrowright"	n/a	"Ebbinghaus"	"arrowright"	"1328"	"TRUE"	"Ebbinghaus"	"0.3571400000"	"-0.280000000"	"1"	"68"
n/a	"html-keyboard-response"	"152"	"383678"	"0.0-4.0-2.0-0.50"	"8pgdpu"	"600"	"1366"	"chrome"	"108.0.0"	"FALSE"	"Windows 10"	"60.89"	n/a	n/a	n/a	n/a	n/a	n/a	"fixation"	n/a	n/a	n/a	n/a	"NULL"	"NULL"	"NULL"	n/a	"<p style=\"color: black; font-size: 80px; padding-left: 48%; padding-right: 2%; padding-top: 16%; padding-bottom: 21%\">+</p>"	n/a	"1189"	n/a	n/a	n/a	n/a	n/a	n/a	n/a	n/a	n/a
n/a	"image-keyboard-response"	"153"	"384161"	"0.0-4.0-2.0-1.50"	"8pgdpu"	"600"	"1366"	"chrome"	"108.0.0"	"FALSE"	"Windows 10"	"60.89"	n/a	n/a	n/a	n/a	n/a	n/a	"Trial"	n/a	n/a	n/a	n/a	"NULL"	"NULL"	"NULL"	"482"	"stimuli/Ebbinghaus_-0.61429_-0.2800.png"	"arrowleft"	n/a	"Ebbinghaus"	"arrowright"	"1196"	"FALSE"	"Ebbinghaus"	"-0.614290000"	"-0.280000000"	"1"	"69"
n/a	"html-keyboard-response"	"154"	"385552"	"0.0-4.0-2.0-0.51"	"8pgdpu"	"600"	"1366"	"chrome"	"108.0.0"	"FALSE"	"Windows 10"	"60.89"	n/a	n/a	n/a	n/a	n/a	n/a	"fixation"	n/a	n/a	n/a	n/a	"NULL"	"NULL"	"NULL"	n/a	"<p style=\"color: black; font-size: 80px; padding-left: 14%; padding-right: 20%; padding-top: 1%; padding-bottom: 39%\">+</p>"	n/a	"1376"	n/a	n/a	n/a	n/a	n/a	n/a	n/a	n/a	n/a
n/a	"image-keyboard-response"	"155"	"386245"	"0.0-4.0-2.0-1.51"	"8pgdpu"	"600"	"1366"	"chrome"	"108.0.0"	"FALSE"	"Windows 10"	"60.89"	n/a	n/a	n/a	n/a	n/a	n/a	"Trial"	n/a	n/a	n/a	n/a	"NULL"	"NULL"	"NULL"	"692"	"stimuli/Ebbinghaus_0.61429_-0.15857.png"	"arrowleft"	n/a	"Ebbinghaus"	"arrowright"	"1391"	"FALSE"	"Ebbinghaus"	"0.6142900000"	"-0.158570000"	"1"	"70"
n/a	"html-keyboard-response"	"156"	"387744"	"0.0-4.0-2.0-0.52"	"8pgdpu"	"600"	"1366"	"chrome"	"108.0.0"	"FALSE"	"Windows 10"	"60.89"	n/a	n/a	n/a	n/a	n/a	n/a	"fixation"	n/a	n/a	n/a	n/a	"NULL"	"NULL"	"NULL"	n/a	"<p style=\"color: black; font-size: 80px; padding-left: 28%; padding-right: 28%; padding-top: 2%; padding-bottom: 39%\">+</p>"	n/a	"1484"	n/a	n/a	n/a	n/a	n/a	n/a	n/a	n/a	n/a
n/a	"image-keyboard-response"	"157"	"388046"	"0.0-4.0-2.0-1.52"	"8pgdpu"	"600"	"1366"	"chrome"	"108.0.0"	"FALSE"	"Windows 10"	"60.89"	n/a	n/a	n/a	n/a	n/a	n/a	"Trial"	n/a	n/a	n/a	n/a	"NULL"	"NULL"	"NULL"	"301"	"stimuli/Ebbinghaus_-0.1000_-0.11071.png"	"arrowright"	n/a	"Ebbinghaus"	"arrowright"	"1499"	"TRUE"	"Ebbinghaus"	"-0.100000000"	"-0.110710000"	"1"	"71"
n/a	"html-keyboard-response"	"158"	"389435"	"0.0-4.0-2.0-0.53"	"8pgdpu"	"600"	"1366"	"chrome"	"108.0.0"	"FALSE"	"Windows 10"	"60.89"	n/a	n/a	n/a	n/a	n/a	n/a	"fixation"	n/a	n/a	n/a	n/a	"NULL"	"NULL"	"NULL"	n/a	"<p style=\"color: black; font-size: 80px; padding-left: 9%; padding-right: 19%; padding-top: 6%; padding-bottom: 7%\">+</p>"	n/a	"1382"	n/a	n/a	n/a	n/a	n/a	n/a	n/a	n/a	n/a
n/a	"image-keyboard-response"	"159"	"389744"	"0.0-4.0-2.0-1.53"	"8pgdpu"	"600"	"1366"	"chrome"	"108.0.0"	"FALSE"	"Windows 10"	"60.89"	n/a	n/a	n/a	n/a	n/a	n/a	"Trial"	n/a	n/a	n/a	n/a	"NULL"	"NULL"	"NULL"	"307"	"stimuli/Ebbinghaus_-0.1000_0.28000.png"	"arrowleft"	n/a	"Ebbinghaus"	"arrowleft"	"1389"	"TRUE"	"Ebbinghaus"	"-0.100000000"	"0.2800000000"	"1"	"72"
n/a	"html-keyboard-response"	"160"	"391036"	"0.0-4.0-2.0-0.54"	"8pgdpu"	"600"	"1366"	"chrome"	"108.0.0"	"FALSE"	"Windows 10"	"60.89"	n/a	n/a	n/a	n/a	n/a	n/a	"fixation"	n/a	n/a	n/a	n/a	"NULL"	"NULL"	"NULL"	n/a	"<p style=\"color: black; font-size: 80px; padding-left: 7%; padding-right: 29%; padding-top: 34%; padding-bottom: 45%\">+</p>"	n/a	"1284"	n/a	n/a	n/a	n/a	n/a	n/a	n/a	n/a	n/a
n/a	"image-keyboard-response"	"161"	"391351"	"0.0-4.0-2.0-1.54"	"8pgdpu"	"600"	"1366"	"chrome"	"108.0.0"	"FALSE"	"Windows 10"	"60.89"	n/a	n/a	n/a	n/a	n/a	n/a	"Trial"	n/a	n/a	n/a	n/a	"NULL"	"NULL"	"NULL"	"314"	"stimuli/Ebbinghaus_-0.87143_0.21500.png"	"arrowleft"	n/a	"Ebbinghaus"	"arrowleft"	"1292"	"TRUE"	"Ebbinghaus"	"-0.871430000"	"0.2150000000"	"1"	"73"
n/a	"html-keyboard-response"	"162"	"392716"	"0.0-4.0-2.0-0.55"	"8pgdpu"	"600"	"1366"	"chrome"	"108.0.0"	"FALSE"	"Windows 10"	"60.89"	n/a	n/a	n/a	n/a	n/a	n/a	"fixation"	n/a	n/a	n/a	n/a	"NULL"	"NULL"	"NULL"	n/a	"<p style=\"color: black; font-size: 80px; padding-left: 37%; padding-right: 23%; padding-top: 2%; padding-bottom: 44%\">+</p>"	n/a	"1345"	n/a	n/a	n/a	n/a	n/a	n/a	n/a	n/a	n/a
n/a	"image-keyboard-response"	"163"	"393000"	"0.0-4.0-2.0-1.55"	"8pgdpu"	"600"	"1366"	"chrome"	"108.0.0"	"FALSE"	"Windows 10"	"60.89"	n/a	n/a	n/a	n/a	n/a	n/a	"Trial"	n/a	n/a	n/a	n/a	"NULL"	"NULL"	"NULL"	"282"	"stimuli/Ebbinghaus_-0.61429_0.28000.png"	"arrowleft"	n/a	"Ebbinghaus"	"arrowleft"	"1365"	"TRUE"	"Ebbinghaus"	"-0.614290000"	"0.2800000000"	"1"	"74"
n/a	"html-keyboard-response"	"164"	"394179"	"0.0-4.0-2.0-0.56"	"8pgdpu"	"600"	"1366"	"chrome"	"108.0.0"	"FALSE"	"Windows 10"	"60.89"	n/a	n/a	n/a	n/a	n/a	n/a	"fixation"	n/a	n/a	n/a	n/a	"NULL"	"NULL"	"NULL"	n/a	"<p style=\"color: black; font-size: 80px; padding-left: 18%; padding-right: 19%; padding-top: 1%; padding-bottom: 3%\">+</p>"	n/a	"1164"	n/a	n/a	n/a	n/a	n/a	n/a	n/a	n/a	n/a
n/a	"image-keyboard-response"	"165"	"394713"	"0.0-4.0-2.0-1.56"	"8pgdpu"	"600"	"1366"	"chrome"	"108.0.0"	"FALSE"	"Windows 10"	"60.89"	n/a	n/a	n/a	n/a	n/a	n/a	"Trial"	n/a	n/a	n/a	n/a	"NULL"	"NULL"	"NULL"	"531"	"stimuli/Ebbinghaus_0.87143_0.21500.png"	"arrowleft"	n/a	"Ebbinghaus"	"arrowleft"	"1179"	"TRUE"	"Ebbinghaus"	"0.8714300000"	"0.2150000000"	"1"	"75"
n/a	"html-keyboard-response"	"166"	"396183"	"0.0-4.0-2.0-0.57"	"8pgdpu"	"600"	"1366"	"chrome"	"108.0.0"	"FALSE"	"Windows 10"	"60.89"	n/a	n/a	n/a	n/a	n/a	n/a	"fixation"	n/a	n/a	n/a	n/a	"NULL"	"NULL"	"NULL"	n/a	"<p style=\"color: black; font-size: 80px; padding-left: 17%; padding-right: 22%; padding-top: 32%; padding-bottom: 40%\">+</p>"	n/a	"1461"	n/a	n/a	n/a	n/a	n/a	n/a	n/a	n/a	n/a
n/a	"image-keyboard-response"	"167"	"396614"	"0.0-4.0-2.0-1.57"	"8pgdpu"	"600"	"1366"	"chrome"	"108.0.0"	"FALSE"	"Windows 10"	"60.89"	n/a	n/a	n/a	n/a	n/a	n/a	"Trial"	n/a	n/a	n/a	n/a	"NULL"	"NULL"	"NULL"	"430"	"stimuli/Ebbinghaus_-0.35714_0.11071.png"	"arrowright"	n/a	"Ebbinghaus"	"arrowleft"	"1470"	"FALSE"	"Ebbinghaus"	"-0.357140000"	"0.1107100000"	"1"	"76"
n/a	"html-keyboard-response"	"168"	"397835"	"0.0-4.0-2.0-0.58"	"8pgdpu"	"600"	"1366"	"chrome"	"108.0.0"	"FALSE"	"Windows 10"	"60.89"	n/a	n/a	n/a	n/a	n/a	n/a	"fixation"	n/a	n/a	n/a	n/a	"NULL"	"NULL"	"NULL"	n/a	"<p style=\"color: black; font-size: 80px; padding-left: 25%; padding-right: 9%; padding-top: 10%; padding-bottom: 44%\">+</p>"	n/a	"1209"	n/a	n/a	n/a	n/a	n/a	n/a	n/a	n/a	n/a
n/a	"image-keyboard-response"	"169"	"398154"	"0.0-4.0-2.0-1.58"	"8pgdpu"	"600"	"1366"	"chrome"	"108.0.0"	"FALSE"	"Windows 10"	"60.89"	n/a	n/a	n/a	n/a	n/a	n/a	"Trial"	n/a	n/a	n/a	n/a	"NULL"	"NULL"	"NULL"	"317"	"stimuli/Ebbinghaus_-0.61429_0.21500.png"	"arrowleft"	n/a	"Ebbinghaus"	"arrowleft"	"1221"	"TRUE"	"Ebbinghaus"	"-0.614290000"	"0.2150000000"	"1"	"77"
n/a	"html-keyboard-response"	"170"	"399560"	"0.0-4.0-2.0-0.59"	"8pgdpu"	"600"	"1366"	"chrome"	"108.0.0"	"FALSE"	"Windows 10"	"60.89"	n/a	n/a	n/a	n/a	n/a	n/a	"fixation"	n/a	n/a	n/a	n/a	"NULL"	"NULL"	"NULL"	n/a	"<p style=\"color: black; font-size: 80px; padding-left: 3%; padding-right: 12%; padding-top: 13%; padding-bottom: 30%\">+</p>"	n/a	"1394"	n/a	n/a	n/a	n/a	n/a	n/a	n/a	n/a	n/a
n/a	"image-keyboard-response"	"171"	"400118"	"0.0-4.0-2.0-1.59"	"8pgdpu"	"600"	"1366"	"chrome"	"108.0.0"	"FALSE"	"Windows 10"	"60.89"	n/a	n/a	n/a	n/a	n/a	n/a	"Trial"	n/a	n/a	n/a	n/a	"NULL"	"NULL"	"NULL"	"557"	"stimuli/Ebbinghaus_0.35714_0.11071.png"	"arrowleft"	n/a	"Ebbinghaus"	"arrowleft"	"1406"	"TRUE"	"Ebbinghaus"	"0.3571400000"	"0.1107100000"	"1"	"78"
n/a	"html-keyboard-response"	"172"	"401225"	"0.0-4.0-2.0-0.60"	"8pgdpu"	"600"	"1366"	"chrome"	"108.0.0"	"FALSE"	"Windows 10"	"60.89"	n/a	n/a	n/a	n/a	n/a	n/a	"fixation"	n/a	n/a	n/a	n/a	"NULL"	"NULL"	"NULL"	n/a	"<p style=\"color: black; font-size: 80px; padding-left: 8%; padding-right: 22%; padding-top: 16%; padding-bottom: 6%\">+</p>"	n/a	"1102"	n/a	n/a	n/a	n/a	n/a	n/a	n/a	n/a	n/a
n/a	"image-keyboard-response"	"173"	"401852"	"0.0-4.0-2.0-1.60"	"8pgdpu"	"600"	"1366"	"chrome"	"108.0.0"	"FALSE"	"Windows 10"	"60.89"	n/a	n/a	n/a	n/a	n/a	n/a	"Trial"	n/a	n/a	n/a	n/a	"NULL"	"NULL"	"NULL"	"626"	"stimuli/Ebbinghaus_-0.87143_-0.11071.png"	"arrowright"	n/a	"Ebbinghaus"	"arrowright"	"1107"	"TRUE"	"Ebbinghaus"	"-0.871430000"	"-0.110710000"	"1"	"79"
n/a	"html-keyboard-response"	"174"	"403015"	"0.0-4.0-2.0-0.61"	"8pgdpu"	"600"	"1366"	"chrome"	"108.0.0"	"FALSE"	"Windows 10"	"60.89"	n/a	n/a	n/a	n/a	n/a	n/a	"fixation"	n/a	n/a	n/a	n/a	"NULL"	"NULL"	"NULL"	n/a	"<p style=\"color: black; font-size: 80px; padding-left: 30%; padding-right: 42%; padding-top: 33%; padding-bottom: 4%\">+</p>"	n/a	"1159"	n/a	n/a	n/a	n/a	n/a	n/a	n/a	n/a	n/a
n/a	"image-keyboard-response"	"175"	"403419"	"0.0-4.0-2.0-1.61"	"8pgdpu"	"600"	"1366"	"chrome"	"108.0.0"	"FALSE"	"Windows 10"	"60.89"	n/a	n/a	n/a	n/a	n/a	n/a	"Trial"	n/a	n/a	n/a	n/a	"NULL"	"NULL"	"NULL"	"403"	"stimuli/Ebbinghaus_0.61429_0.21500.png"	"arrowleft"	n/a	"Ebbinghaus"	"arrowleft"	"1163"	"TRUE"	"Ebbinghaus"	"0.6142900000"	"0.2150000000"	"1"	"80"
n/a	"html-keyboard-response"	"176"	"404602"	"0.0-4.0-2.0-0.62"	"8pgdpu"	"600"	"1366"	"chrome"	"108.0.0"	"FALSE"	"Windows 10"	"60.89"	n/a	n/a	n/a	n/a	n/a	n/a	"fixation"	n/a	n/a	n/a	n/a	"NULL"	"NULL"	"NULL"	n/a	"<p style=\"color: black; font-size: 80px; padding-left: 1%; padding-right: 3%; padding-top: 45%; padding-bottom: 1%\">+</p>"	n/a	"1176"	n/a	n/a	n/a	n/a	n/a	n/a	n/a	n/a	n/a
n/a	"image-keyboard-response"	"177"	"404928"	"0.0-4.0-2.0-1.62"	"8pgdpu"	"600"	"1366"	"chrome"	"108.0.0"	"FALSE"	"Windows 10"	"60.89"	n/a	n/a	n/a	n/a	n/a	n/a	"Trial"	n/a	n/a	n/a	n/a	"NULL"	"NULL"	"NULL"	"324"	"stimuli/Ebbinghaus_0.87143_0.11071.png"	"arrowright"	n/a	"Ebbinghaus"	"arrowleft"	"1183"	"FALSE"	"Ebbinghaus"	"0.8714300000"	"0.1107100000"	"1"	"81"
n/a	"html-keyboard-response"	"178"	"406036"	"0.0-4.0-2.0-0.63"	"8pgdpu"	"600"	"1366"	"chrome"	"108.0.0"	"FALSE"	"Windows 10"	"60.89"	n/a	n/a	n/a	n/a	n/a	n/a	"fixation"	n/a	n/a	n/a	n/a	"NULL"	"NULL"	"NULL"	n/a	"<p style=\"color: black; font-size: 80px; padding-left: 44%; padding-right: 49%; padding-top: 5%; padding-bottom: 19%\">+</p>"	n/a	"1087"	n/a	n/a	n/a	n/a	n/a	n/a	n/a	n/a	n/a
n/a	"image-keyboard-response"	"179"	"406481"	"0.0-4.0-2.0-1.63"	"8pgdpu"	"600"	"1366"	"chrome"	"108.0.0"	"FALSE"	"Windows 10"	"60.89"	n/a	n/a	n/a	n/a	n/a	n/a	"Trial"	n/a	n/a	n/a	n/a	"NULL"	"NULL"	"NULL"	"443"	"stimuli/Ebbinghaus_-0.61429_-0.2150.png"	"arrowright"	n/a	"Ebbinghaus"	"arrowright"	"1108"	"TRUE"	"Ebbinghaus"	"-0.614290000"	"-0.215000000"	"1"	"82"
n/a	"html-button-response"	"180"	"486068"	"0.0-4.0-3.0"	"8pgdpu"	"600"	"1366"	"chrome"	"108.0.0"	"FALSE"	"Windows 10"	"60.89"	n/a	n/a	n/a	n/a	n/a	n/a	"block_results"	n/a	n/a	n/a	n/a	"NULL"	"NULL"	"NULL"	"79582"	"<p>Your score for this illusion is <p style=\"color: black; font-size: 48px; font-weight: bold;\">80.5 %</p><hr><p>Can you do better in the next illusion?</p>"	"0"	n/a	n/a	n/a	n/a	n/a	n/a	n/a	n/a	n/a	n/a
"TRUE"	"preload"	"181"	"486227"	"0.0-5.0-0.0"	"8pgdpu"	"600"	"1366"	"chrome"	"108.0.0"	"FALSE"	"Windows 10"	"60.89"	n/a	n/a	n/a	n/a	n/a	n/a	n/a	n/a	n/a	n/a	"FALSE"	"list()"	"list()"	"list()"	n/a	n/a	n/a	n/a	n/a	n/a	n/a	n/a	n/a	n/a	n/a	n/a	n/a
n/a	"html-keyboard-response"	"182"	"489387"	"0.0-5.0-1.0"	"8pgdpu"	"600"	"1366"	"chrome"	"108.0.0"	"FALSE"	"Windows 10"	"60.89"	n/a	n/a	n/a	n/a	n/a	n/a	n/a	n/a	n/a	n/a	n/a	"NULL"	"NULL"	"NULL"	"3160"	"<p><b>Part 2/6</b></p><p>In this part, two horizontal red lines will appear one above the other.</p><p>Your task is to select which <b>line is longer</b> in length as fast as you can, without making errors.</p><p>Don't get distracted by the surrounding black arrows at the end of the red lines!</p><p>Press <b>the UP or the DOWN arrow</b> to indicate where is the longer <b>red line.</b></p><div style='float: center'><img src='materials/instructions/MullerLyer_Demo.png' height='300'></img><p><img src='utils/answer/answer_updown_keyboard.PNG' height='150'></img></p><p class='small'>In this example, the correct answer is the <b>UP arrow</b>.</p></div><p>Are you ready? <b>Press ENTER to start</b></p>"	"enter"	n/a	n/a	n/a	n/a	n/a	n/a	n/a	n/a	n/a	n/a
n/a	"html-keyboard-response"	"183"	"491149"	"0.0-5.0-2.0-0.0"	"8pgdpu"	"600"	"1366"	"chrome"	"108.0.0"	"FALSE"	"Windows 10"	"60.89"	n/a	n/a	n/a	n/a	n/a	n/a	"fixation"	n/a	n/a	n/a	n/a	"NULL"	"NULL"	"NULL"	n/a	"<p style=\"color: black; font-size: 80px; padding-left: 19%; padding-right: 2%; padding-top: 6%; padding-bottom: 17%\">+</p>"	n/a	"1248"	n/a	n/a	n/a	n/a	n/a	n/a	n/a	n/a	n/a
n/a	"image-keyboard-response"	"184"	"491704"	"0.0-5.0-2.0-1.0"	"8pgdpu"	"600"	"1366"	"chrome"	"108.0.0"	"FALSE"	"Windows 10"	"60.89"	n/a	n/a	n/a	n/a	n/a	n/a	"Trial"	n/a	n/a	n/a	n/a	"NULL"	"NULL"	"NULL"	"554"	"stimuli/MullerLyer_-14.12857_-0.14541.png"	"arrowdown"	n/a	"MullerLyer"	"arrowdown"	"1762"	"TRUE"	"MullerLyer"	"-14.12857000"	"-0.145410000"	"2"	"1"
n/a	"html-keyboard-response"	"185"	"493175"	"0.0-5.0-2.0-0.1"	"8pgdpu"	"600"	"1366"	"chrome"	"108.0.0"	"FALSE"	"Windows 10"	"60.89"	n/a	n/a	n/a	n/a	n/a	n/a	"fixation"	n/a	n/a	n/a	n/a	"NULL"	"NULL"	"NULL"	n/a	"<p style=\"color: black; font-size: 80px; padding-left: 15%; padding-right: 36%; padding-top: 19%; padding-bottom: 19%\">+</p>"	n/a	"1449"	n/a	n/a	n/a	n/a	n/a	n/a	n/a	n/a	n/a
n/a	"image-keyboard-response"	"186"	"493601"	"0.0-5.0-2.0-1.1"	"8pgdpu"	"600"	"1366"	"chrome"	"108.0.0"	"FALSE"	"Windows 10"	"60.89"	n/a	n/a	n/a	n/a	n/a	n/a	"Trial"	n/a	n/a	n/a	n/a	"NULL"	"NULL"	"NULL"	"424"	"stimuli/MullerLyer_-8.21429_-0.3500.png"	"arrowdown"	n/a	"MullerLyer"	"arrowdown"	"1471"	"TRUE"	"MullerLyer"	"-8.214290000"	"-0.350000000"	"2"	"2"
n/a	"html-keyboard-response"	"187"	"494712"	"0.0-5.0-2.0-0.2"	"8pgdpu"	"600"	"1366"	"chrome"	"108.0.0"	"FALSE"	"Windows 10"	"60.89"	n/a	n/a	n/a	n/a	n/a	n/a	"fixation"	n/a	n/a	n/a	n/a	"NULL"	"NULL"	"NULL"	n/a	"<p style=\"color: black; font-size: 80px; padding-left: 7%; padding-right: 31%; padding-top: 28%; padding-bottom: 28%\">+</p>"	n/a	"1095"	n/a	n/a	n/a	n/a	n/a	n/a	n/a	n/a	n/a
n/a	"image-keyboard-response"	"188"	"495162"	"0.0-5.0-2.0-1.2"	"8pgdpu"	"600"	"1366"	"chrome"	"108.0.0"	"FALSE"	"Windows 10"	"60.89"	n/a	n/a	n/a	n/a	n/a	n/a	"Trial"	n/a	n/a	n/a	n/a	"NULL"	"NULL"	"NULL"	"449"	"stimuli/MullerLyer_-14.12857_0.14541.png"	"arrowup"	n/a	"MullerLyer"	"arrowup"	"1111"	"TRUE"	"MullerLyer"	"-14.12857000"	"0.1454100000"	"2"	"3"
n/a	"html-keyboard-response"	"189"	"496462"	"0.0-5.0-2.0-0.3"	"8pgdpu"	"600"	"1366"	"chrome"	"108.0.0"	"FALSE"	"Windows 10"	"60.89"	n/a	n/a	n/a	n/a	n/a	n/a	"fixation"	n/a	n/a	n/a	n/a	"NULL"	"NULL"	"NULL"	n/a	"<p style=\"color: black; font-size: 80px; padding-left: 34%; padding-right: 5%; padding-top: 25%; padding-bottom: 44%\">+</p>"	n/a	"1276"	n/a	n/a	n/a	n/a	n/a	n/a	n/a	n/a	n/a
n/a	"image-keyboard-response"	"190"	"496949"	"0.0-5.0-2.0-1.3"	"8pgdpu"	"600"	"1366"	"chrome"	"108.0.0"	"FALSE"	"Windows 10"	"60.89"	n/a	n/a	n/a	n/a	n/a	n/a	"Trial"	n/a	n/a	n/a	n/a	"NULL"	"NULL"	"NULL"	"486"	"stimuli/MullerLyer_8.21429_0.07627.png"	"arrowdown"	n/a	"MullerLyer"	"arrowup"	"1300"	"FALSE"	"MullerLyer"	"8.2142900000"	"0.0762700000"	"2"	"4"
n/a	"html-keyboard-response"	"191"	"498358"	"0.0-5.0-2.0-0.4"	"8pgdpu"	"600"	"1366"	"chrome"	"108.0.0"	"FALSE"	"Windows 10"	"60.89"	n/a	n/a	n/a	n/a	n/a	n/a	"fixation"	n/a	n/a	n/a	n/a	"NULL"	"NULL"	"NULL"	n/a	"<p style=\"color: black; font-size: 80px; padding-left: 28%; padding-right: 27%; padding-top: 26%; padding-bottom: 31%\">+</p>"	n/a	"1387"	n/a	n/a	n/a	n/a	n/a	n/a	n/a	n/a	n/a
n/a	"image-keyboard-response"	"192"	"498855"	"0.0-5.0-2.0-1.4"	"8pgdpu"	"600"	"1366"	"chrome"	"108.0.0"	"FALSE"	"Windows 10"	"60.89"	n/a	n/a	n/a	n/a	n/a	n/a	"Trial"	n/a	n/a	n/a	n/a	"NULL"	"NULL"	"NULL"	"497"	"stimuli/MullerLyer_-8.21429_-0.23665.png"	"arrowdown"	n/a	"MullerLyer"	"arrowdown"	"1409"	"TRUE"	"MullerLyer"	"-8.214290000"	"-0.236650000"	"2"	"5"
n/a	"html-keyboard-response"	"193"	"500131"	"0.0-5.0-2.0-0.5"	"8pgdpu"	"600"	"1366"	"chrome"	"108.0.0"	"FALSE"	"Windows 10"	"60.89"	n/a	n/a	n/a	n/a	n/a	n/a	"fixation"	n/a	n/a	n/a	n/a	"NULL"	"NULL"	"NULL"	n/a	"<p style=\"color: black; font-size: 80px; padding-left: 29%; padding-right: 40%; padding-top: 5%; padding-bottom: 0%\">+</p>"	n/a	"1259"	n/a	n/a	n/a	n/a	n/a	n/a	n/a	n/a	n/a
n/a	"image-keyboard-response"	"194"	"500555"	"0.0-5.0-2.0-1.5"	"8pgdpu"	"600"	"1366"	"chrome"	"108.0.0"	"FALSE"	"Windows 10"	"60.89"	n/a	n/a	n/a	n/a	n/a	n/a	"Trial"	n/a	n/a	n/a	n/a	"NULL"	"NULL"	"NULL"	"423"	"stimuli/MullerLyer_-8.21429_0.23665.png"	"arrowup"	n/a	"MullerLyer"	"arrowup"	"1276"	"TRUE"	"MullerLyer"	"-8.214290000"	"0.2366500000"	"2"	"6"
n/a	"html-keyboard-response"	"195"	"502036"	"0.0-5.0-2.0-0.6"	"8pgdpu"	"600"	"1366"	"chrome"	"108.0.0"	"FALSE"	"Windows 10"	"60.89"	n/a	n/a	n/a	n/a	n/a	n/a	"fixation"	n/a	n/a	n/a	n/a	"NULL"	"NULL"	"NULL"	n/a	"<p style=\"color: black; font-size: 80px; padding-left: 28%; padding-right: 14%; padding-top: 35%; padding-bottom: 7%\">+</p>"	n/a	"1474"	n/a	n/a	n/a	n/a	n/a	n/a	n/a	n/a	n/a
n/a	"image-keyboard-response"	"196"	"502402"	"0.0-5.0-2.0-1.6"	"8pgdpu"	"600"	"1366"	"chrome"	"108.0.0"	"FALSE"	"Windows 10"	"60.89"	n/a	n/a	n/a	n/a	n/a	n/a	"Trial"	n/a	n/a	n/a	n/a	"NULL"	"NULL"	"NULL"	"365"	"stimuli/MullerLyer_-2.3000_0.35000.png"	"arrowup"	n/a	"MullerLyer"	"arrowup"	"1481"	"TRUE"	"MullerLyer"	"-2.300000000"	"0.3500000000"	"2"	"7"
n/a	"html-keyboard-response"	"197"	"503741"	"0.0-5.0-2.0-0.7"	"8pgdpu"	"600"	"1366"	"chrome"	"108.0.0"	"FALSE"	"Windows 10"	"60.89"	n/a	n/a	n/a	n/a	n/a	n/a	"fixation"	n/a	n/a	n/a	n/a	"NULL"	"NULL"	"NULL"	n/a	"<p style=\"color: black; font-size: 80px; padding-left: 43%; padding-right: 14%; padding-top: 35%; padding-bottom: 49%\">+</p>"	n/a	"1332"	n/a	n/a	n/a	n/a	n/a	n/a	n/a	n/a	n/a
n/a	"image-keyboard-response"	"198"	"504276"	"0.0-5.0-2.0-1.7"	"8pgdpu"	"600"	"1366"	"chrome"	"108.0.0"	"FALSE"	"Windows 10"	"60.89"	n/a	n/a	n/a	n/a	n/a	n/a	"Trial"	n/a	n/a	n/a	n/a	"NULL"	"NULL"	"NULL"	"534"	"stimuli/MullerLyer_-8.21429_-0.07627.png"	"arrowdown"	n/a	"MullerLyer"	"arrowdown"	"1339"	"TRUE"	"MullerLyer"	"-8.214290000"	"-0.076270000"	"2"	"8"
n/a	"html-keyboard-response"	"199"	"505413"	"0.0-5.0-2.0-0.8"	"8pgdpu"	"600"	"1366"	"chrome"	"108.0.0"	"FALSE"	"Windows 10"	"60.89"	n/a	n/a	n/a	n/a	n/a	n/a	"fixation"	n/a	n/a	n/a	n/a	"NULL"	"NULL"	"NULL"	n/a	"<p style=\"color: black; font-size: 80px; padding-left: 31%; padding-right: 25%; padding-top: 23%; padding-bottom: 27%\">+</p>"	n/a	"1127"	n/a	n/a	n/a	n/a	n/a	n/a	n/a	n/a	n/a
n/a	"image-keyboard-response"	"200"	"505980"	"0.0-5.0-2.0-1.8"	"8pgdpu"	"600"	"1366"	"chrome"	"108.0.0"	"FALSE"	"Windows 10"	"60.89"	n/a	n/a	n/a	n/a	n/a	n/a	"Trial"	n/a	n/a	n/a	n/a	"NULL"	"NULL"	"NULL"	"566"	"stimuli/MullerLyer_-20.04286_0.07627.png"	"arrowup"	n/a	"MullerLyer"	"arrowup"	"1137"	"TRUE"	"MullerLyer"	"-20.04286000"	"0.0762700000"	"2"	"9"
n/a	"html-keyboard-response"	"201"	"507319"	"0.0-5.0-2.0-0.9"	"8pgdpu"	"600"	"1366"	"chrome"	"108.0.0"	"FALSE"	"Windows 10"	"60.89"	n/a	n/a	n/a	n/a	n/a	n/a	"fixation"	n/a	n/a	n/a	n/a	"NULL"	"NULL"	"NULL"	n/a	"<p style=\"color: black; font-size: 80px; padding-left: 32%; padding-right: 20%; padding-top: 39%; padding-bottom: 50%\">+</p>"	n/a	"1326"	n/a	n/a	n/a	n/a	n/a	n/a	n/a	n/a	n/a
n/a	"image-keyboard-response"	"202"	"507716"	"0.0-5.0-2.0-1.9"	"8pgdpu"	"600"	"1366"	"chrome"	"108.0.0"	"FALSE"	"Windows 10"	"60.89"	n/a	n/a	n/a	n/a	n/a	n/a	"Trial"	n/a	n/a	n/a	n/a	"NULL"	"NULL"	"NULL"	"396"	"stimuli/MullerLyer_-14.12857_-0.23665.png"	"arrowdown"	n/a	"MullerLyer"	"arrowdown"	"1339"	"TRUE"	"MullerLyer"	"-14.12857000"	"-0.236650000"	"2"	"10"
n/a	"html-keyboard-response"	"203"	"509134"	"0.0-5.0-2.0-0.10"	"8pgdpu"	"600"	"1366"	"chrome"	"108.0.0"	"FALSE"	"Windows 10"	"60.89"	n/a	n/a	n/a	n/a	n/a	n/a	"fixation"	n/a	n/a	n/a	n/a	"NULL"	"NULL"	"NULL"	n/a	"<p style=\"color: black; font-size: 80px; padding-left: 27%; padding-right: 2%; padding-top: 48%; padding-bottom: 36%\">+</p>"	n/a	"1398"	n/a	n/a	n/a	n/a	n/a	n/a	n/a	n/a	n/a
n/a	"image-keyboard-response"	"204"	"509554"	"0.0-5.0-2.0-1.10"	"8pgdpu"	"600"	"1366"	"chrome"	"108.0.0"	"FALSE"	"Windows 10"	"60.89"	n/a	n/a	n/a	n/a	n/a	n/a	"Trial"	n/a	n/a	n/a	n/a	"NULL"	"NULL"	"NULL"	"414"	"stimuli/MullerLyer_-20.04286_0.14541.png"	"arrowup"	n/a	"MullerLyer"	"arrowup"	"1418"	"TRUE"	"MullerLyer"	"-20.04286000"	"0.1454100000"	"2"	"11"
n/a	"html-keyboard-response"	"205"	"510834"	"0.0-5.0-2.0-0.11"	"8pgdpu"	"600"	"1366"	"chrome"	"108.0.0"	"FALSE"	"Windows 10"	"60.89"	n/a	n/a	n/a	n/a	n/a	n/a	"fixation"	n/a	n/a	n/a	n/a	"NULL"	"NULL"	"NULL"	n/a	"<p style=\"color: black; font-size: 80px; padding-left: 29%; padding-right: 46%; padding-top: 13%; padding-bottom: 30%\">+</p>"	n/a	"1266"	n/a	n/a	n/a	n/a	n/a	n/a	n/a	n/a	n/a
n/a	"image-keyboard-response"	"206"	"511325"	"0.0-5.0-2.0-1.11"	"8pgdpu"	"600"	"1366"	"chrome"	"108.0.0"	"FALSE"	"Windows 10"	"60.89"	n/a	n/a	n/a	n/a	n/a	n/a	"Trial"	n/a	n/a	n/a	n/a	"NULL"	"NULL"	"NULL"	"490"	"stimuli/MullerLyer_14.12857_0.35000.png"	"arrowup"	n/a	"MullerLyer"	"arrowup"	"1280"	"TRUE"	"MullerLyer"	"14.128570000"	"0.3500000000"	"2"	"12"
n/a	"html-keyboard-response"	"207"	"512827"	"0.0-5.0-2.0-0.12"	"8pgdpu"	"600"	"1366"	"chrome"	"108.0.0"	"FALSE"	"Windows 10"	"60.89"	n/a	n/a	n/a	n/a	n/a	n/a	"fixation"	n/a	n/a	n/a	n/a	"NULL"	"NULL"	"NULL"	n/a	"<p style=\"color: black; font-size: 80px; padding-left: 18%; padding-right: 14%; padding-top: 36%; padding-bottom: 29%\">+</p>"	n/a	"1494"	n/a	n/a	n/a	n/a	n/a	n/a	n/a	n/a	n/a
n/a	"image-keyboard-response"	"208"	"513345"	"0.0-5.0-2.0-1.12"	"8pgdpu"	"600"	"1366"	"chrome"	"108.0.0"	"FALSE"	"Windows 10"	"60.89"	n/a	n/a	n/a	n/a	n/a	n/a	"Trial"	n/a	n/a	n/a	n/a	"NULL"	"NULL"	"NULL"	"517"	"stimuli/MullerLyer_8.21429_-0.14541.png"	"arrowup"	n/a	"MullerLyer"	"arrowdown"	"1502"	"FALSE"	"MullerLyer"	"8.2142900000"	"-0.145410000"	"2"	"13"
n/a	"html-keyboard-response"	"209"	"514462"	"0.0-5.0-2.0-0.13"	"8pgdpu"	"600"	"1366"	"chrome"	"108.0.0"	"FALSE"	"Windows 10"	"60.89"	n/a	n/a	n/a	n/a	n/a	n/a	"fixation"	n/a	n/a	n/a	n/a	"NULL"	"NULL"	"NULL"	n/a	"<p style=\"color: black; font-size: 80px; padding-left: 23%; padding-right: 49%; padding-top: 15%; padding-bottom: 1%\">+</p>"	n/a	"1108"	n/a	n/a	n/a	n/a	n/a	n/a	n/a	n/a	n/a
n/a	"image-keyboard-response"	"210"	"515098"	"0.0-5.0-2.0-1.13"	"8pgdpu"	"600"	"1366"	"chrome"	"108.0.0"	"FALSE"	"Windows 10"	"60.89"	n/a	n/a	n/a	n/a	n/a	n/a	"Trial"	n/a	n/a	n/a	n/a	"NULL"	"NULL"	"NULL"	"634"	"stimuli/MullerLyer_2.30000_-0.14541.png"	"arrowdown"	n/a	"MullerLyer"	"arrowdown"	"1117"	"TRUE"	"MullerLyer"	"2.3000000000"	"-0.145410000"	"2"	"14"
n/a	"html-keyboard-response"	"211"	"516395"	"0.0-5.0-2.0-0.14"	"8pgdpu"	"600"	"1366"	"chrome"	"108.0.0"	"FALSE"	"Windows 10"	"60.89"	n/a	n/a	n/a	n/a	n/a	n/a	"fixation"	n/a	n/a	n/a	n/a	"NULL"	"NULL"	"NULL"	n/a	"<p style=\"color: black; font-size: 80px; padding-left: 4%; padding-right: 30%; padding-top: 13%; padding-bottom: 36%\">+</p>"	n/a	"1282"	n/a	n/a	n/a	n/a	n/a	n/a	n/a	n/a	n/a
n/a	"image-keyboard-response"	"212"	"516789"	"0.0-5.0-2.0-1.14"	"8pgdpu"	"600"	"1366"	"chrome"	"108.0.0"	"FALSE"	"Windows 10"	"60.89"	n/a	n/a	n/a	n/a	n/a	n/a	"Trial"	n/a	n/a	n/a	n/a	"NULL"	"NULL"	"NULL"	"393"	"stimuli/MullerLyer_20.04286_0.07627.png"	"arrowdown"	n/a	"MullerLyer"	"arrowup"	"1297"	"FALSE"	"MullerLyer"	"20.042860000"	"0.0762700000"	"2"	"15"
n/a	"html-keyboard-response"	"213"	"518165"	"0.0-5.0-2.0-0.15"	"8pgdpu"	"600"	"1366"	"chrome"	"108.0.0"	"FALSE"	"Windows 10"	"60.89"	n/a	n/a	n/a	n/a	n/a	n/a	"fixation"	n/a	n/a	n/a	n/a	"NULL"	"NULL"	"NULL"	n/a	"<p style=\"color: black; font-size: 80px; padding-left: 46%; padding-right: 30%; padding-top: 48%; padding-bottom: 49%\">+</p>"	n/a	"1362"	n/a	n/a	n/a	n/a	n/a	n/a	n/a	n/a	n/a
n/a	"image-keyboard-response"	"214"	"518429"	"0.0-5.0-2.0-1.15"	"8pgdpu"	"600"	"1366"	"chrome"	"108.0.0"	"FALSE"	"Windows 10"	"60.89"	n/a	n/a	n/a	n/a	n/a	n/a	"Trial"	n/a	n/a	n/a	n/a	"NULL"	"NULL"	"NULL"	"263"	"stimuli/MullerLyer_14.12857_-0.14541.png"	"arrowup"	n/a	"MullerLyer"	"arrowdown"	"1376"	"FALSE"	"MullerLyer"	"14.128570000"	"-0.145410000"	"2"	"16"
n/a	"html-keyboard-response"	"215"	"519626"	"0.0-5.0-2.0-0.16"	"8pgdpu"	"600"	"1366"	"chrome"	"108.0.0"	"FALSE"	"Windows 10"	"60.89"	n/a	n/a	n/a	n/a	n/a	n/a	"fixation"	n/a	n/a	n/a	n/a	"NULL"	"NULL"	"NULL"	n/a	"<p style=\"color: black; font-size: 80px; padding-left: 50%; padding-right: 5%; padding-top: 0%; padding-bottom: 12%\">+</p>"	n/a	"1189"	n/a	n/a	n/a	n/a	n/a	n/a	n/a	n/a	n/a
n/a	"image-keyboard-response"	"216"	"520033"	"0.0-5.0-2.0-1.16"	"8pgdpu"	"600"	"1366"	"chrome"	"108.0.0"	"FALSE"	"Windows 10"	"60.89"	n/a	n/a	n/a	n/a	n/a	n/a	"Trial"	n/a	n/a	n/a	n/a	"NULL"	"NULL"	"NULL"	"405"	"stimuli/MullerLyer_20.04286_0.35000.png"	"arrowdown"	n/a	"MullerLyer"	"arrowup"	"1197"	"FALSE"	"MullerLyer"	"20.042860000"	"0.3500000000"	"2"	"17"
n/a	"html-keyboard-response"	"217"	"521103"	"0.0-5.0-2.0-0.17"	"8pgdpu"	"600"	"1366"	"chrome"	"108.0.0"	"FALSE"	"Windows 10"	"60.89"	n/a	n/a	n/a	n/a	n/a	n/a	"fixation"	n/a	n/a	n/a	n/a	"NULL"	"NULL"	"NULL"	n/a	"<p style=\"color: black; font-size: 80px; padding-left: 46%; padding-right: 20%; padding-top: 13%; padding-bottom: 10%\">+</p>"	n/a	"1050"	n/a	n/a	n/a	n/a	n/a	n/a	n/a	n/a	n/a
n/a	"image-keyboard-response"	"218"	"521453"	"0.0-5.0-2.0-1.17"	"8pgdpu"	"600"	"1366"	"chrome"	"108.0.0"	"FALSE"	"Windows 10"	"60.89"	n/a	n/a	n/a	n/a	n/a	n/a	"Trial"	n/a	n/a	n/a	n/a	"NULL"	"NULL"	"NULL"	"349"	"stimuli/MullerLyer_20.04286_-0.14541.png"	"arrowup"	n/a	"MullerLyer"	"arrowdown"	"1070"	"FALSE"	"MullerLyer"	"20.042860000"	"-0.145410000"	"2"	"18"
n/a	"html-keyboard-response"	"219"	"522962"	"0.0-5.0-2.0-0.18"	"8pgdpu"	"600"	"1366"	"chrome"	"108.0.0"	"FALSE"	"Windows 10"	"60.89"	n/a	n/a	n/a	n/a	n/a	n/a	"fixation"	n/a	n/a	n/a	n/a	"NULL"	"NULL"	"NULL"	n/a	"<p style=\"color: black; font-size: 80px; padding-left: 18%; padding-right: 49%; padding-top: 14%; padding-bottom: 46%\">+</p>"	n/a	"1491"	n/a	n/a	n/a	n/a	n/a	n/a	n/a	n/a	n/a
n/a	"image-keyboard-response"	"220"	"523236"	"0.0-5.0-2.0-1.18"	"8pgdpu"	"600"	"1366"	"chrome"	"108.0.0"	"FALSE"	"Windows 10"	"60.89"	n/a	n/a	n/a	n/a	n/a	n/a	"Trial"	n/a	n/a	n/a	n/a	"NULL"	"NULL"	"NULL"	"271"	"stimuli/MullerLyer_8.21429_0.35000.png"	"arrowup"	n/a	"MullerLyer"	"arrowup"	"1509"	"TRUE"	"MullerLyer"	"8.2142900000"	"0.3500000000"	"2"	"19"
n/a	"html-keyboard-response"	"221"	"524741"	"0.0-5.0-2.0-0.19"	"8pgdpu"	"600"	"1366"	"chrome"	"108.0.0"	"FALSE"	"Windows 10"	"60.89"	n/a	n/a	n/a	n/a	n/a	n/a	"fixation"	n/a	n/a	n/a	n/a	"NULL"	"NULL"	"NULL"	n/a	"<p style=\"color: black; font-size: 80px; padding-left: 41%; padding-right: 17%; padding-top: 24%; padding-bottom: 9%\">+</p>"	n/a	"1483"	n/a	n/a	n/a	n/a	n/a	n/a	n/a	n/a	n/a
n/a	"image-keyboard-response"	"222"	"525011"	"0.0-5.0-2.0-1.19"	"8pgdpu"	"600"	"1366"	"chrome"	"108.0.0"	"FALSE"	"Windows 10"	"60.89"	n/a	n/a	n/a	n/a	n/a	n/a	"Trial"	n/a	n/a	n/a	n/a	"NULL"	"NULL"	"NULL"	"269"	"stimuli/MullerLyer_-20.04286_-0.3500.png"	"arrowup"	n/a	"MullerLyer"	"arrowdown"	"1505"	"FALSE"	"MullerLyer"	"-20.04286000"	"-0.350000000"	"2"	"20"
n/a	"html-keyboard-response"	"223"	"526409"	"0.0-5.0-2.0-0.20"	"8pgdpu"	"600"	"1366"	"chrome"	"108.0.0"	"FALSE"	"Windows 10"	"60.89"	n/a	n/a	n/a	n/a	n/a	n/a	"fixation"	n/a	n/a	n/a	n/a	"NULL"	"NULL"	"NULL"	n/a	"<p style=\"color: black; font-size: 80px; padding-left: 7%; padding-right: 4%; padding-top: 22%; padding-bottom: 25%\">+</p>"	n/a	"1392"	n/a	n/a	n/a	n/a	n/a	n/a	n/a	n/a	n/a
n/a	"image-keyboard-response"	"224"	"526641"	"0.0-5.0-2.0-1.20"	"8pgdpu"	"600"	"1366"	"chrome"	"108.0.0"	"FALSE"	"Windows 10"	"60.89"	n/a	n/a	n/a	n/a	n/a	n/a	"Trial"	n/a	n/a	n/a	n/a	"NULL"	"NULL"	"NULL"	"231"	"stimuli/MullerLyer_2.30000_0.14541.png"	"arrowdown"	n/a	"MullerLyer"	"arrowup"	"1398"	"FALSE"	"MullerLyer"	"2.3000000000"	"0.1454100000"	"2"	"21"
n/a	"html-keyboard-response"	"225"	"527988"	"0.0-5.0-2.0-0.21"	"8pgdpu"	"600"	"1366"	"chrome"	"108.0.0"	"FALSE"	"Windows 10"	"60.89"	n/a	n/a	n/a	n/a	n/a	n/a	"fixation"	n/a	n/a	n/a	n/a	"NULL"	"NULL"	"NULL"	n/a	"<p style=\"color: black; font-size: 80px; padding-left: 24%; padding-right: 3%; padding-top: 35%; padding-bottom: 1%\">+</p>"	n/a	"1339"	n/a	n/a	n/a	n/a	n/a	n/a	n/a	n/a	n/a
n/a	"image-keyboard-response"	"226"	"528437"	"0.0-5.0-2.0-1.21"	"8pgdpu"	"600"	"1366"	"chrome"	"108.0.0"	"FALSE"	"Windows 10"	"60.89"	n/a	n/a	n/a	n/a	n/a	n/a	"Trial"	n/a	n/a	n/a	n/a	"NULL"	"NULL"	"NULL"	"448"	"stimuli/MullerLyer_14.12857_0.14541.png"	"arrowdown"	n/a	"MullerLyer"	"arrowup"	"1347"	"FALSE"	"MullerLyer"	"14.128570000"	"0.1454100000"	"2"	"22"
n/a	"html-keyboard-response"	"227"	"529500"	"0.0-5.0-2.0-0.22"	"8pgdpu"	"600"	"1366"	"chrome"	"108.0.0"	"FALSE"	"Windows 10"	"60.89"	n/a	n/a	n/a	n/a	n/a	n/a	"fixation"	n/a	n/a	n/a	n/a	"NULL"	"NULL"	"NULL"	n/a	"<p style=\"color: black; font-size: 80px; padding-left: 11%; padding-right: 6%; padding-top: 26%; padding-bottom: 8%\">+</p>"	n/a	"1052"	n/a	n/a	n/a	n/a	n/a	n/a	n/a	n/a	n/a
n/a	"image-keyboard-response"	"228"	"530063"	"0.0-5.0-2.0-1.22"	"8pgdpu"	"600"	"1366"	"chrome"	"108.0.0"	"FALSE"	"Windows 10"	"60.89"	n/a	n/a	n/a	n/a	n/a	n/a	"Trial"	n/a	n/a	n/a	n/a	"NULL"	"NULL"	"NULL"	"561"	"stimuli/MullerLyer_-2.3000_-0.23665.png"	"arrowdown"	n/a	"MullerLyer"	"arrowdown"	"1063"	"TRUE"	"MullerLyer"	"-2.300000000"	"-0.236650000"	"2"	"23"
n/a	"html-keyboard-response"	"229"	"531164"	"0.0-5.0-2.0-0.23"	"8pgdpu"	"600"	"1366"	"chrome"	"108.0.0"	"FALSE"	"Windows 10"	"60.89"	n/a	n/a	n/a	n/a	n/a	n/a	"fixation"	n/a	n/a	n/a	n/a	"NULL"	"NULL"	"NULL"	n/a	"<p style=\"color: black; font-size: 80px; padding-left: 26%; padding-right: 16%; padding-top: 22%; padding-bottom: 26%\">+</p>"	n/a	"1086"	n/a	n/a	n/a	n/a	n/a	n/a	n/a	n/a	n/a
n/a	"image-keyboard-response"	"230"	"531654"	"0.0-5.0-2.0-1.23"	"8pgdpu"	"600"	"1366"	"chrome"	"108.0.0"	"FALSE"	"Windows 10"	"60.89"	n/a	n/a	n/a	n/a	n/a	n/a	"Trial"	n/a	n/a	n/a	n/a	"NULL"	"NULL"	"NULL"	"487"	"stimuli/MullerLyer_14.12857_0.07627.png"	"arrowdown"	n/a	"MullerLyer"	"arrowup"	"1101"	"FALSE"	"MullerLyer"	"14.128570000"	"0.0762700000"	"2"	"24"
n/a	"html-keyboard-response"	"231"	"532848"	"0.0-5.0-2.0-0.24"	"8pgdpu"	"600"	"1366"	"chrome"	"108.0.0"	"FALSE"	"Windows 10"	"60.89"	n/a	n/a	n/a	n/a	n/a	n/a	"fixation"	n/a	n/a	n/a	n/a	"NULL"	"NULL"	"NULL"	n/a	"<p style=\"color: black; font-size: 80px; padding-left: 18%; padding-right: 33%; padding-top: 39%; padding-bottom: 7%\">+</p>"	n/a	"1186"	n/a	n/a	n/a	n/a	n/a	n/a	n/a	n/a	n/a
n/a	"image-keyboard-response"	"232"	"533352"	"0.0-5.0-2.0-1.24"	"8pgdpu"	"600"	"1366"	"chrome"	"108.0.0"	"FALSE"	"Windows 10"	"60.89"	n/a	n/a	n/a	n/a	n/a	n/a	"Trial"	n/a	n/a	n/a	n/a	"NULL"	"NULL"	"NULL"	"503"	"stimuli/MullerLyer_14.12857_0.23665.png"	"arrowup"	n/a	"MullerLyer"	"arrowup"	"1194"	"TRUE"	"MullerLyer"	"14.128570000"	"0.2366500000"	"2"	"25"
n/a	"html-keyboard-response"	"233"	"534710"	"0.0-5.0-2.0-0.25"	"8pgdpu"	"600"	"1366"	"chrome"	"108.0.0"	"FALSE"	"Windows 10"	"60.89"	n/a	n/a	n/a	n/a	n/a	n/a	"fixation"	n/a	n/a	n/a	n/a	"NULL"	"NULL"	"NULL"	n/a	"<p style=\"color: black; font-size: 80px; padding-left: 28%; padding-right: 1%; padding-top: 39%; padding-bottom: 38%\">+</p>"	n/a	"1340"	n/a	n/a	n/a	n/a	n/a	n/a	n/a	n/a	n/a
n/a	"image-keyboard-response"	"234"	"535282"	"0.0-5.0-2.0-1.25"	"8pgdpu"	"600"	"1366"	"chrome"	"108.0.0"	"FALSE"	"Windows 10"	"60.89"	n/a	n/a	n/a	n/a	n/a	n/a	"Trial"	n/a	n/a	n/a	n/a	"NULL"	"NULL"	"NULL"	"571"	"stimuli/MullerLyer_-2.3000_0.14541.png"	"arrowup"	n/a	"MullerLyer"	"arrowup"	"1358"	"TRUE"	"MullerLyer"	"-2.300000000"	"0.1454100000"	"2"	"26"
n/a	"html-keyboard-response"	"235"	"536314"	"0.0-5.0-2.0-0.26"	"8pgdpu"	"600"	"1366"	"chrome"	"108.0.0"	"FALSE"	"Windows 10"	"60.89"	n/a	n/a	n/a	n/a	n/a	n/a	"fixation"	n/a	n/a	n/a	n/a	"NULL"	"NULL"	"NULL"	n/a	"<p style=\"color: black; font-size: 80px; padding-left: 21%; padding-right: 24%; padding-top: 39%; padding-bottom: 32%\">+</p>"	n/a	"1021"	n/a	n/a	n/a	n/a	n/a	n/a	n/a	n/a	n/a
n/a	"image-keyboard-response"	"236"	"537043"	"0.0-5.0-2.0-1.26"	"8pgdpu"	"600"	"1366"	"chrome"	"108.0.0"	"FALSE"	"Windows 10"	"60.89"	n/a	n/a	n/a	n/a	n/a	n/a	"Trial"	n/a	n/a	n/a	n/a	"NULL"	"NULL"	"NULL"	"728"	"stimuli/MullerLyer_2.30000_0.07627.png"	"arrowup"	n/a	"MullerLyer"	"arrowup"	"1032"	"TRUE"	"MullerLyer"	"2.3000000000"	"0.0762700000"	"2"	"27"
n/a	"html-keyboard-response"	"237"	"538322"	"0.0-5.0-2.0-0.27"	"8pgdpu"	"600"	"1366"	"chrome"	"108.0.0"	"FALSE"	"Windows 10"	"60.89"	n/a	n/a	n/a	n/a	n/a	n/a	"fixation"	n/a	n/a	n/a	n/a	"NULL"	"NULL"	"NULL"	n/a	"<p style=\"color: black; font-size: 80px; padding-left: 28%; padding-right: 25%; padding-top: 35%; padding-bottom: 27%\">+</p>"	n/a	"1260"	n/a	n/a	n/a	n/a	n/a	n/a	n/a	n/a	n/a
n/a	"image-keyboard-response"	"238"	"538699"	"0.0-5.0-2.0-1.27"	"8pgdpu"	"600"	"1366"	"chrome"	"108.0.0"	"FALSE"	"Windows 10"	"60.89"	n/a	n/a	n/a	n/a	n/a	n/a	"Trial"	n/a	n/a	n/a	n/a	"NULL"	"NULL"	"NULL"	"372"	"stimuli/MullerLyer_-8.21429_0.35000.png"	"arrowup"	n/a	"MullerLyer"	"arrowup"	"1279"	"TRUE"	"MullerLyer"	"-8.214290000"	"0.3500000000"	"2"	"28"
n/a	"html-keyboard-response"	"239"	"539929"	"0.0-5.0-2.0-0.28"	"8pgdpu"	"600"	"1366"	"chrome"	"108.0.0"	"FALSE"	"Windows 10"	"60.89"	n/a	n/a	n/a	n/a	n/a	n/a	"fixation"	n/a	n/a	n/a	n/a	"NULL"	"NULL"	"NULL"	n/a	"<p style=\"color: black; font-size: 80px; padding-left: 49%; padding-right: 34%; padding-top: 24%; padding-bottom: 4%\">+</p>"	n/a	"1222"	n/a	n/a	n/a	n/a	n/a	n/a	n/a	n/a	n/a
n/a	"image-keyboard-response"	"240"	"540479"	"0.0-5.0-2.0-1.28"	"8pgdpu"	"600"	"1366"	"chrome"	"108.0.0"	"FALSE"	"Windows 10"	"60.89"	n/a	n/a	n/a	n/a	n/a	n/a	"Trial"	n/a	n/a	n/a	n/a	"NULL"	"NULL"	"NULL"	"549"	"stimuli/MullerLyer_-20.04286_-0.23665.png"	"arrowdown"	n/a	"MullerLyer"	"arrowdown"	"1230"	"TRUE"	"MullerLyer"	"-20.04286000"	"-0.236650000"	"2"	"29"
n/a	"html-keyboard-response"	"241"	"541550"	"0.0-5.0-2.0-0.29"	"8pgdpu"	"600"	"1366"	"chrome"	"108.0.0"	"FALSE"	"Windows 10"	"60.89"	n/a	n/a	n/a	n/a	n/a	n/a	"fixation"	n/a	n/a	n/a	n/a	"NULL"	"NULL"	"NULL"	n/a	"<p style=\"color: black; font-size: 80px; padding-left: 31%; padding-right: 21%; padding-top: 41%; padding-bottom: 5%\">+</p>"	n/a	"1051"	n/a	n/a	n/a	n/a	n/a	n/a	n/a	n/a	n/a
n/a	"image-keyboard-response"	"242"	"542006"	"0.0-5.0-2.0-1.29"	"8pgdpu"	"600"	"1366"	"chrome"	"108.0.0"	"FALSE"	"Windows 10"	"60.89"	n/a	n/a	n/a	n/a	n/a	n/a	"Trial"	n/a	n/a	n/a	n/a	"NULL"	"NULL"	"NULL"	"454"	"stimuli/MullerLyer_20.04286_0.23665.png"	"arrowdown"	n/a	"MullerLyer"	"arrowup"	"1071"	"FALSE"	"MullerLyer"	"20.042860000"	"0.2366500000"	"2"	"30"
n/a	"html-keyboard-response"	"243"	"543409"	"0.0-5.0-2.0-0.30"	"8pgdpu"	"600"	"1366"	"chrome"	"108.0.0"	"FALSE"	"Windows 10"	"60.89"	n/a	n/a	n/a	n/a	n/a	n/a	"fixation"	n/a	n/a	n/a	n/a	"NULL"	"NULL"	"NULL"	n/a	"<p style=\"color: black; font-size: 80px; padding-left: 42%; padding-right: 10%; padding-top: 9%; padding-bottom: 1%\">+</p>"	n/a	"1397"	n/a	n/a	n/a	n/a	n/a	n/a	n/a	n/a	n/a
n/a	"image-keyboard-response"	"244"	"543712"	"0.0-5.0-2.0-1.30"	"8pgdpu"	"600"	"1366"	"chrome"	"108.0.0"	"FALSE"	"Windows 10"	"60.89"	n/a	n/a	n/a	n/a	n/a	n/a	"Trial"	n/a	n/a	n/a	n/a	"NULL"	"NULL"	"NULL"	"302"	"stimuli/MullerLyer_8.21429_-0.3500.png"	"arrowup"	n/a	"MullerLyer"	"arrowdown"	"1403"	"FALSE"	"MullerLyer"	"8.2142900000"	"-0.350000000"	"2"	"31"
n/a	"html-keyboard-response"	"245"	"544944"	"0.0-5.0-2.0-0.31"	"8pgdpu"	"600"	"1366"	"chrome"	"108.0.0"	"FALSE"	"Windows 10"	"60.89"	n/a	n/a	n/a	n/a	n/a	n/a	"fixation"	n/a	n/a	n/a	n/a	"NULL"	"NULL"	"NULL"	n/a	"<p style=\"color: black; font-size: 80px; padding-left: 12%; padding-right: 46%; padding-top: 23%; padding-bottom: 9%\">+</p>"	n/a	"1224"	n/a	n/a	n/a	n/a	n/a	n/a	n/a	n/a	n/a
n/a	"image-keyboard-response"	"246"	"545397"	"0.0-5.0-2.0-1.31"	"8pgdpu"	"600"	"1366"	"chrome"	"108.0.0"	"FALSE"	"Windows 10"	"60.89"	n/a	n/a	n/a	n/a	n/a	n/a	"Trial"	n/a	n/a	n/a	n/a	"NULL"	"NULL"	"NULL"	"452"	"stimuli/MullerLyer_2.30000_0.35000.png"	"arrowup"	n/a	"MullerLyer"	"arrowup"	"1232"	"TRUE"	"MullerLyer"	"2.3000000000"	"0.3500000000"	"2"	"32"
n/a	"html-keyboard-response"	"247"	"546690"	"0.0-5.0-2.0-0.32"	"8pgdpu"	"600"	"1366"	"chrome"	"108.0.0"	"FALSE"	"Windows 10"	"60.89"	n/a	n/a	n/a	n/a	n/a	n/a	"fixation"	n/a	n/a	n/a	n/a	"NULL"	"NULL"	"NULL"	n/a	"<p style=\"color: black; font-size: 80px; padding-left: 47%; padding-right: 35%; padding-top: 12%; padding-bottom: 20%\">+</p>"	n/a	"1281"	n/a	n/a	n/a	n/a	n/a	n/a	n/a	n/a	n/a
n/a	"image-keyboard-response"	"248"	"547422"	"0.0-5.0-2.0-1.32"	"8pgdpu"	"600"	"1366"	"chrome"	"108.0.0"	"FALSE"	"Windows 10"	"60.89"	n/a	n/a	n/a	n/a	n/a	n/a	"Trial"	n/a	n/a	n/a	n/a	"NULL"	"NULL"	"NULL"	"732"	"stimuli/MullerLyer_-2.3000_-0.14541.png"	"arrowdown"	n/a	"MullerLyer"	"arrowdown"	"1293"	"TRUE"	"MullerLyer"	"-2.300000000"	"-0.145410000"	"2"	"33"
n/a	"html-keyboard-response"	"249"	"548695"	"0.0-5.0-2.0-0.33"	"8pgdpu"	"600"	"1366"	"chrome"	"108.0.0"	"FALSE"	"Windows 10"	"60.89"	n/a	n/a	n/a	n/a	n/a	n/a	"fixation"	n/a	n/a	n/a	n/a	"NULL"	"NULL"	"NULL"	n/a	"<p style=\"color: black; font-size: 80px; padding-left: 3%; padding-right: 29%; padding-top: 8%; padding-bottom: 10%\">+</p>"	n/a	"1263"	n/a	n/a	n/a	n/a	n/a	n/a	n/a	n/a	n/a
n/a	"image-keyboard-response"	"250"	"549205"	"0.0-5.0-2.0-1.33"	"8pgdpu"	"600"	"1366"	"chrome"	"108.0.0"	"FALSE"	"Windows 10"	"60.89"	n/a	n/a	n/a	n/a	n/a	n/a	"Trial"	n/a	n/a	n/a	n/a	"NULL"	"NULL"	"NULL"	"509"	"stimuli/MullerLyer_-2.3000_-0.07627.png"	"arrowdown"	n/a	"MullerLyer"	"arrowdown"	"1273"	"TRUE"	"MullerLyer"	"-2.300000000"	"-0.076270000"	"2"	"34"
n/a	"html-keyboard-response"	"251"	"550569"	"0.0-5.0-2.0-0.34"	"8pgdpu"	"600"	"1366"	"chrome"	"108.0.0"	"FALSE"	"Windows 10"	"60.89"	n/a	n/a	n/a	n/a	n/a	n/a	"fixation"	n/a	n/a	n/a	n/a	"NULL"	"NULL"	"NULL"	n/a	"<p style=\"color: black; font-size: 80px; padding-left: 7%; padding-right: 48%; padding-top: 42%; padding-bottom: 1%\">+</p>"	n/a	"1351"	n/a	n/a	n/a	n/a	n/a	n/a	n/a	n/a	n/a
n/a	"image-keyboard-response"	"252"	"551058"	"0.0-5.0-2.0-1.34"	"8pgdpu"	"600"	"1366"	"chrome"	"108.0.0"	"FALSE"	"Windows 10"	"60.89"	n/a	n/a	n/a	n/a	n/a	n/a	"Trial"	n/a	n/a	n/a	n/a	"NULL"	"NULL"	"NULL"	"487"	"stimuli/MullerLyer_-14.12857_0.07627.png"	"arrowup"	n/a	"MullerLyer"	"arrowup"	"1364"	"TRUE"	"MullerLyer"	"-14.12857000"	"0.0762700000"	"2"	"35"
n/a	"html-keyboard-response"	"253"	"552404"	"0.0-5.0-2.0-0.35"	"8pgdpu"	"600"	"1366"	"chrome"	"108.0.0"	"FALSE"	"Windows 10"	"60.89"	n/a	n/a	n/a	n/a	n/a	n/a	"fixation"	n/a	n/a	n/a	n/a	"NULL"	"NULL"	"NULL"	n/a	"<p style=\"color: black; font-size: 80px; padding-left: 41%; padding-right: 42%; padding-top: 2%; padding-bottom: 9%\">+</p>"	n/a	"1340"	n/a	n/a	n/a	n/a	n/a	n/a	n/a	n/a	n/a
n/a	"image-keyboard-response"	"254"	"552943"	"0.0-5.0-2.0-1.35"	"8pgdpu"	"600"	"1366"	"chrome"	"108.0.0"	"FALSE"	"Windows 10"	"60.89"	n/a	n/a	n/a	n/a	n/a	n/a	"Trial"	n/a	n/a	n/a	n/a	"NULL"	"NULL"	"NULL"	"538"	"stimuli/MullerLyer_2.30000_-0.07627.png"	"arrowdown"	n/a	"MullerLyer"	"arrowdown"	"1346"	"TRUE"	"MullerLyer"	"2.3000000000"	"-0.076270000"	"2"	"36"
n/a	"html-keyboard-response"	"255"	"554417"	"0.0-5.0-2.0-0.36"	"8pgdpu"	"600"	"1366"	"chrome"	"108.0.0"	"FALSE"	"Windows 10"	"60.89"	n/a	n/a	n/a	n/a	n/a	n/a	"fixation"	n/a	n/a	n/a	n/a	"NULL"	"NULL"	"NULL"	n/a	"<p style=\"color: black; font-size: 80px; padding-left: 7%; padding-right: 37%; padding-top: 16%; padding-bottom: 16%\">+</p>"	n/a	"1469"	n/a	n/a	n/a	n/a	n/a	n/a	n/a	n/a	n/a
n/a	"image-keyboard-response"	"256"	"554947"	"0.0-5.0-2.0-1.36"	"8pgdpu"	"600"	"1366"	"chrome"	"108.0.0"	"FALSE"	"Windows 10"	"60.89"	n/a	n/a	n/a	n/a	n/a	n/a	"Trial"	n/a	n/a	n/a	n/a	"NULL"	"NULL"	"NULL"	"529"	"stimuli/MullerLyer_-14.12857_-0.07627.png"	"arrowdown"	n/a	"MullerLyer"	"arrowdown"	"1474"	"TRUE"	"MullerLyer"	"-14.12857000"	"-0.076270000"	"2"	"37"
n/a	"html-keyboard-response"	"257"	"556148"	"0.0-5.0-2.0-0.37"	"8pgdpu"	"600"	"1366"	"chrome"	"108.0.0"	"FALSE"	"Windows 10"	"60.89"	n/a	n/a	n/a	n/a	n/a	n/a	"fixation"	n/a	n/a	n/a	n/a	"NULL"	"NULL"	"NULL"	n/a	"<p style=\"color: black; font-size: 80px; padding-left: 4%; padding-right: 24%; padding-top: 6%; padding-bottom: 13%\">+</p>"	n/a	"1189"	n/a	n/a	n/a	n/a	n/a	n/a	n/a	n/a	n/a
n/a	"image-keyboard-response"	"258"	"556629"	"0.0-5.0-2.0-1.37"	"8pgdpu"	"600"	"1366"	"chrome"	"108.0.0"	"FALSE"	"Windows 10"	"60.89"	n/a	n/a	n/a	n/a	n/a	n/a	"Trial"	n/a	n/a	n/a	n/a	"NULL"	"NULL"	"NULL"	"480"	"stimuli/MullerLyer_14.12857_-0.23665.png"	"arrowup"	n/a	"MullerLyer"	"arrowdown"	"1201"	"FALSE"	"MullerLyer"	"14.128570000"	"-0.236650000"	"2"	"38"
