"success"	"trial_type"	"trial_index"	"time_elapsed"	"internal_node_id"	"participant_id"	"screen_height"	"screen_width"	"browser"	"browser_version"	"mobile"	"os"	"vsync_rate"	"subject_id"	"width"	"height"	"webaudio"	"fullscreen"	"webcam"	"microphone"	"screen"	"version"	"date"	"time"	"rt"	"response"	"timeout"	"failed_images"	"failed_audio"	"failed_video"	"stimulus"	"trial_duration"	"block"	"correct_response"	"prestimulus_duration"	"correct"	"type"	"illusion_strength"	"illusion_difference"	"block_number"	"trial_number"
"TRUE"	"fullscreen"	"0"	"1807"	"0.0-0.0"	"gnv9tb"	"600"	"1366"	"chrome"	"109.0.0"	"FALSE"	"Windows 10"	"60.77"	"004"	n/a	n/a	n/a	n/a	n/a	n/a	n/a	n/a	n/a	n/a	n/a	"NULL"	n/a	"NULL"	"NULL"	"NULL"	n/a	n/a	n/a	n/a	n/a	n/a	n/a	n/a	n/a	n/a	n/a
n/a	"browser-check"	"1"	"2822"	"0.0-1.0"	"gnv9tb"	"600"	"1366"	"chrome"	"109.0.0"	"FALSE"	"Windows 10"	"60.77"	"004"	"1366"	"600"	"TRUE"	"TRUE"	"TRUE"	"TRUE"	"browser_info"	"1.0"	"19/01/2023"	"16:51:00"	n/a	"NULL"	n/a	"NULL"	"NULL"	"NULL"	n/a	n/a	n/a	n/a	n/a	n/a	n/a	n/a	n/a	n/a	n/a
n/a	"survey-text"	"2"	"6095"	"0.0-2.0"	"gnv9tb"	"600"	"1366"	"chrome"	"109.0.0"	"FALSE"	"Windows 10"	"60.77"	"004"	n/a	n/a	n/a	n/a	n/a	n/a	"subject_id"	n/a	n/a	n/a	"3264"	"list(subject_id = \"004\")"	n/a	"NULL"	"NULL"	"NULL"	n/a	n/a	n/a	n/a	n/a	n/a	n/a	n/a	n/a	n/a	n/a
"TRUE"	"preload"	"3"	"6112"	"0.0-3.0"	"gnv9tb"	"600"	"1366"	"chrome"	"109.0.0"	"FALSE"	"Windows 10"	"60.77"	"004"	n/a	n/a	n/a	n/a	n/a	n/a	n/a	n/a	n/a	n/a	n/a	"NULL"	"FALSE"	"list()"	"list()"	"list()"	n/a	n/a	n/a	n/a	n/a	n/a	n/a	n/a	n/a	n/a	n/a
n/a	"html-button-response"	"4"	"61933"	"0.0-4.0-0.0"	"gnv9tb"	"600"	"1366"	"chrome"	"109.0.0"	"FALSE"	"Windows 10"	"60.77"	"004"	n/a	n/a	n/a	n/a	n/a	n/a	"illusion_instructions"	n/a	n/a	n/a	"55819"	"0"	n/a	"NULL"	"NULL"	"NULL"	"<p><b>Illusion Game</b></p><p>In this game of speed and reflex, you will need to make <b>visual judgments</b> (for instance, which circle is the biggest, or which line is the longest), as fast and as correctly as possible, while <b>resisting different visual illusions</b>.</p><p>We are going to start with some examples of all the illusions you will encounter in the game.</p>"	n/a	n/a	n/a	n/a	n/a	n/a	n/a	n/a	n/a	n/a
"TRUE"	"preload"	"5"	"61951"	"0.0-4.0-1.0-0.0"	"gnv9tb"	"600"	"1366"	"chrome"	"109.0.0"	"FALSE"	"Windows 10"	"60.77"	"004"	n/a	n/a	n/a	n/a	n/a	n/a	n/a	n/a	n/a	n/a	n/a	"NULL"	"FALSE"	"list()"	"list()"	"list()"	n/a	n/a	n/a	n/a	n/a	n/a	n/a	n/a	n/a	n/a	n/a
n/a	"html-keyboard-response"	"6"	"99924"	"0.0-4.0-1.0-1.0"	"gnv9tb"	"600"	"1366"	"chrome"	"109.0.0"	"FALSE"	"Windows 10"	"60.77"	"004"	n/a	n/a	n/a	n/a	n/a	n/a	n/a	n/a	n/a	n/a	"37972"	"enter"	n/a	"NULL"	"NULL"	"NULL"	"<p><b>Practice</b></p><p>In this part, two red circles will appear side by side on the screen.</p><p>Your task is to select which <b>red circle is bigger</b> in size as fast as you can, without making errors.</p><p>Don't get distracted by the surrounding black circles around the red circles!</p><p>Press <b>the LEFT or the RIGHT arrow</b> to indicate which is the bigger <b>red circle.</b></p><div style='float: center'><img src='materials/instructions/Ebbinghaus_Demo.png' height='300'></img><p><img src='utils/answer/answer_leftright_keyboard.PNG' height='150'></img></p><p class='small'>In this example, the correct answer is the <b>LEFT arrow</b>.</p></div><p>Are you ready? <b>Press ENTER to start</b></p>"	n/a	n/a	n/a	n/a	n/a	n/a	n/a	n/a	n/a	n/a
n/a	"html-keyboard-response"	"7"	"101520"	"0.0-4.0-1.0-2.0-0.0"	"gnv9tb"	"600"	"1366"	"chrome"	"109.0.0"	"FALSE"	"Windows 10"	"60.77"	"004"	n/a	n/a	n/a	n/a	n/a	n/a	"fixation"	n/a	n/a	n/a	n/a	"NULL"	n/a	"NULL"	"NULL"	"NULL"	"<p style=\"color: black; font-size: 80px; padding-left: 44%; padding-right: 43%; padding-top: 35%; padding-bottom: 42%\">+</p>"	"1065"	n/a	n/a	n/a	n/a	n/a	n/a	n/a	n/a	n/a
n/a	"image-keyboard-response"	"8"	"103610"	"0.0-4.0-1.0-2.0-1.0"	"gnv9tb"	"600"	"1366"	"chrome"	"109.0.0"	"FALSE"	"Windows 10"	"60.77"	"004"	n/a	n/a	n/a	n/a	n/a	n/a	"Trial"	n/a	n/a	n/a	"2067"	"arrowleft"	n/a	"NULL"	"NULL"	"NULL"	"stimuli/Ebbinghaus_-100000_1.40000.png"	n/a	"Ebbinghaus"	"arrowleft"	"1596"	"TRUE"	"Ebbinghaus"	"-10000000000"	"1.4000000000"	"1"	"1"
n/a	"html-keyboard-response"	"9"	"104906"	"0.0-4.0-1.0-2.0-0.1"	"gnv9tb"	"600"	"1366"	"chrome"	"109.0.0"	"FALSE"	"Windows 10"	"60.77"	"004"	n/a	n/a	n/a	n/a	n/a	n/a	"fixation"	n/a	n/a	n/a	n/a	"NULL"	n/a	"NULL"	"NULL"	"NULL"	"<p style=\"color: black; font-size: 80px; padding-left: 45%; padding-right: 33%; padding-top: 15%; padding-bottom: 46%\">+</p>"	"1292"	n/a	n/a	n/a	n/a	n/a	n/a	n/a	n/a	n/a
n/a	"image-keyboard-response"	"10"	"105591"	"0.0-4.0-1.0-2.0-1.1"	"gnv9tb"	"600"	"1366"	"chrome"	"109.0.0"	"FALSE"	"Windows 10"	"60.77"	"004"	n/a	n/a	n/a	n/a	n/a	n/a	"Trial"	n/a	n/a	n/a	"684"	"arrowright"	n/a	"NULL"	"NULL"	"NULL"	"stimuli/Ebbinghaus_1000000_-1.4000.png"	n/a	"Ebbinghaus"	"arrowright"	"1296"	"TRUE"	"Ebbinghaus"	"100000000000"	"-1.400000000"	"1"	"2"
n/a	"html-keyboard-response"	"11"	"106805"	"0.0-4.0-1.0-2.0-0.2"	"gnv9tb"	"600"	"1366"	"chrome"	"109.0.0"	"FALSE"	"Windows 10"	"60.77"	"004"	n/a	n/a	n/a	n/a	n/a	n/a	"fixation"	n/a	n/a	n/a	n/a	"NULL"	n/a	"NULL"	"NULL"	"NULL"	"<p style=\"color: black; font-size: 80px; padding-left: 2%; padding-right: 36%; padding-top: 11%; padding-bottom: 13%\">+</p>"	"1201"	n/a	n/a	n/a	n/a	n/a	n/a	n/a	n/a	n/a
n/a	"image-keyboard-response"	"12"	"107382"	"0.0-4.0-1.0-2.0-1.2"	"gnv9tb"	"600"	"1366"	"chrome"	"109.0.0"	"FALSE"	"Windows 10"	"60.77"	"004"	n/a	n/a	n/a	n/a	n/a	n/a	"Trial"	n/a	n/a	n/a	"575"	"arrowright"	n/a	"NULL"	"NULL"	"NULL"	"stimuli/Ebbinghaus_-100000_-1.4000.png"	n/a	"Ebbinghaus"	"arrowright"	"1214"	"TRUE"	"Ebbinghaus"	"-10000000000"	"-1.400000000"	"1"	"3"
n/a	"html-keyboard-response"	"13"	"108780"	"0.0-4.0-1.0-2.0-0.3"	"gnv9tb"	"600"	"1366"	"chrome"	"109.0.0"	"FALSE"	"Windows 10"	"60.77"	"004"	n/a	n/a	n/a	n/a	n/a	n/a	"fixation"	n/a	n/a	n/a	n/a	"NULL"	n/a	"NULL"	"NULL"	"NULL"	"<p style=\"color: black; font-size: 80px; padding-left: 33%; padding-right: 10%; padding-top: 4%; padding-bottom: 34%\">+</p>"	"1385"	n/a	n/a	n/a	n/a	n/a	n/a	n/a	n/a	n/a
n/a	"image-keyboard-response"	"14"	"109376"	"0.0-4.0-1.0-2.0-1.3"	"gnv9tb"	"600"	"1366"	"chrome"	"109.0.0"	"FALSE"	"Windows 10"	"60.77"	"004"	n/a	n/a	n/a	n/a	n/a	n/a	"Trial"	n/a	n/a	n/a	"595"	"arrowleft"	n/a	"NULL"	"NULL"	"NULL"	"stimuli/Ebbinghaus_0000000_1.40000.png"	n/a	"Ebbinghaus"	"arrowleft"	"1398"	"TRUE"	"Ebbinghaus"	"000000000000"	"1.4000000000"	"1"	"4"
n/a	"html-keyboard-response"	"15"	"110458"	"0.0-4.0-1.0-2.0-0.4"	"gnv9tb"	"600"	"1366"	"chrome"	"109.0.0"	"FALSE"	"Windows 10"	"60.77"	"004"	n/a	n/a	n/a	n/a	n/a	n/a	"fixation"	n/a	n/a	n/a	n/a	"NULL"	n/a	"NULL"	"NULL"	"NULL"	"<p style=\"color: black; font-size: 80px; padding-left: 1%; padding-right: 6%; padding-top: 10%; padding-bottom: 39%\">+</p>"	"1066"	n/a	n/a	n/a	n/a	n/a	n/a	n/a	n/a	n/a
n/a	"image-keyboard-response"	"16"	"110966"	"0.0-4.0-1.0-2.0-1.4"	"gnv9tb"	"600"	"1366"	"chrome"	"109.0.0"	"FALSE"	"Windows 10"	"60.77"	"004"	n/a	n/a	n/a	n/a	n/a	n/a	"Trial"	n/a	n/a	n/a	"507"	"arrowleft"	n/a	"NULL"	"NULL"	"NULL"	"stimuli/Ebbinghaus_1000000_1.40000.png"	n/a	"Ebbinghaus"	"arrowleft"	"1082"	"TRUE"	"Ebbinghaus"	"100000000000"	"1.4000000000"	"1"	"5"
n/a	"html-keyboard-response"	"17"	"112078"	"0.0-4.0-1.0-2.0-0.5"	"gnv9tb"	"600"	"1366"	"chrome"	"109.0.0"	"FALSE"	"Windows 10"	"60.77"	"004"	n/a	n/a	n/a	n/a	n/a	n/a	"fixation"	n/a	n/a	n/a	n/a	"NULL"	n/a	"NULL"	"NULL"	"NULL"	"<p style=\"color: black; font-size: 80px; padding-left: 33%; padding-right: 2%; padding-top: 9%; padding-bottom: 18%\">+</p>"	"1097"	n/a	n/a	n/a	n/a	n/a	n/a	n/a	n/a	n/a
n/a	"image-keyboard-response"	"18"	"112581"	"0.0-4.0-1.0-2.0-1.5"	"gnv9tb"	"600"	"1366"	"chrome"	"109.0.0"	"FALSE"	"Windows 10"	"60.77"	"004"	n/a	n/a	n/a	n/a	n/a	n/a	"Trial"	n/a	n/a	n/a	"501"	"arrowright"	n/a	"NULL"	"NULL"	"NULL"	"stimuli/Ebbinghaus_0000000_-1.4000.png"	n/a	"Ebbinghaus"	"arrowright"	"1112"	"TRUE"	"Ebbinghaus"	"000000000000"	"-1.400000000"	"1"	"6"
n/a	"html-button-response"	"19"	"117680"	"0.0-4.0-1.0-3.0"	"gnv9tb"	"600"	"1366"	"chrome"	"109.0.0"	"FALSE"	"Windows 10"	"60.77"	"004"	n/a	n/a	n/a	n/a	n/a	n/a	"practice_block_results"	n/a	n/a	n/a	"5094"	"0"	n/a	"NULL"	"NULL"	"NULL"	"<p style='color:rgb(76,175,80);'> Correct Responses: <b>100.00%</b></p><hr><p style='color:rgb(233,30,99);'> Average Response Time: <b>821.50</b> ms.</p>"	n/a	n/a	n/a	n/a	n/a	n/a	n/a	n/a	n/a	n/a
"TRUE"	"preload"	"20"	"118222"	"0.0-4.0-2.0-0.0"	"gnv9tb"	"600"	"1366"	"chrome"	"109.0.0"	"FALSE"	"Windows 10"	"60.77"	"004"	n/a	n/a	n/a	n/a	n/a	n/a	n/a	n/a	n/a	n/a	n/a	"NULL"	"FALSE"	"list()"	"list()"	"list()"	n/a	n/a	n/a	n/a	n/a	n/a	n/a	n/a	n/a	n/a	n/a
n/a	"html-keyboard-response"	"21"	"137096"	"0.0-4.0-2.0-1.0"	"gnv9tb"	"600"	"1366"	"chrome"	"109.0.0"	"FALSE"	"Windows 10"	"60.77"	"004"	n/a	n/a	n/a	n/a	n/a	n/a	n/a	n/a	n/a	n/a	"18873"	"enter"	n/a	"NULL"	"NULL"	"NULL"	"<p><b>Practice</b></p><p>In this part, two horizontal red lines will appear one above the other.</p><p>Your task is to select which <b>line is longer</b> in length as fast as you can, without making errors.</p><p>Don't get distracted by the surrounding black arrows at the end of the red lines!</p><p>Press <b>the UP or the DOWN arrow</b> to indicate where is the longer <b>red line.</b></p><div style='float: center'><img src='materials/instructions/MullerLyer_Demo.png' height='300'></img><p><img src='utils/answer/answer_updown_keyboard.PNG' height='150'></img></p><p class='small'>In this example, the correct answer is the <b>UP arrow</b>.</p></div><p>Are you ready? <b>Press ENTER to start</b></p>"	n/a	n/a	n/a	n/a	n/a	n/a	n/a	n/a	n/a	n/a
n/a	"html-keyboard-response"	"22"	"139056"	"0.0-4.0-2.0-2.0-0.0"	"gnv9tb"	"600"	"1366"	"chrome"	"109.0.0"	"FALSE"	"Windows 10"	"60.77"	"004"	n/a	n/a	n/a	n/a	n/a	n/a	"fixation"	n/a	n/a	n/a	n/a	"NULL"	n/a	"NULL"	"NULL"	"NULL"	"<p style=\"color: black; font-size: 80px; padding-left: 45%; padding-right: 37%; padding-top: 40%; padding-bottom: 2%\">+</p>"	"1428"	n/a	n/a	n/a	n/a	n/a	n/a	n/a	n/a	n/a
n/a	"image-keyboard-response"	"23"	"140011"	"0.0-4.0-2.0-2.0-1.0"	"gnv9tb"	"600"	"1366"	"chrome"	"109.0.0"	"FALSE"	"Windows 10"	"60.77"	"004"	n/a	n/a	n/a	n/a	n/a	n/a	"Trial"	n/a	n/a	n/a	"953"	"arrowdown"	n/a	"NULL"	"NULL"	"NULL"	"stimuli/MullerLyer_-230000_-0.7000.png"	n/a	"MullerLyer"	"arrowdown"	"1960"	"TRUE"	"MullerLyer"	"-23000000000"	"-0.700000000"	"1"	"7"
n/a	"html-keyboard-response"	"24"	"141312"	"0.0-4.0-2.0-2.0-0.1"	"gnv9tb"	"600"	"1366"	"chrome"	"109.0.0"	"FALSE"	"Windows 10"	"60.77"	"004"	n/a	n/a	n/a	n/a	n/a	n/a	"fixation"	n/a	n/a	n/a	n/a	"NULL"	n/a	"NULL"	"NULL"	"NULL"	"<p style=\"color: black; font-size: 80px; padding-left: 47%; padding-right: 24%; padding-top: 39%; padding-bottom: 40%\">+</p>"	"1281"	n/a	n/a	n/a	n/a	n/a	n/a	n/a	n/a	n/a
n/a	"image-keyboard-response"	"25"	"142123"	"0.0-4.0-2.0-2.0-1.1"	"gnv9tb"	"600"	"1366"	"chrome"	"109.0.0"	"FALSE"	"Windows 10"	"60.77"	"004"	n/a	n/a	n/a	n/a	n/a	n/a	"Trial"	n/a	n/a	n/a	"811"	"arrowup"	n/a	"NULL"	"NULL"	"NULL"	"stimuli/MullerLyer_-230000_0.70000.png"	n/a	"MullerLyer"	"arrowup"	"1301"	"TRUE"	"MullerLyer"	"-23000000000"	"0.7000000000"	"1"	"8"
n/a	"html-keyboard-response"	"26"	"143376"	"0.0-4.0-2.0-2.0-0.2"	"gnv9tb"	"600"	"1366"	"chrome"	"109.0.0"	"FALSE"	"Windows 10"	"60.77"	"004"	n/a	n/a	n/a	n/a	n/a	n/a	"fixation"	n/a	n/a	n/a	n/a	"NULL"	n/a	"NULL"	"NULL"	"NULL"	"<p style=\"color: black; font-size: 80px; padding-left: 15%; padding-right: 8%; padding-top: 24%; padding-bottom: 27%\">+</p>"	"1234"	n/a	n/a	n/a	n/a	n/a	n/a	n/a	n/a	n/a
n/a	"image-keyboard-response"	"27"	"144289"	"0.0-4.0-2.0-2.0-1.2"	"gnv9tb"	"600"	"1366"	"chrome"	"109.0.0"	"FALSE"	"Windows 10"	"60.77"	"004"	n/a	n/a	n/a	n/a	n/a	n/a	"Trial"	n/a	n/a	n/a	"912"	"arrowdown"	n/a	"NULL"	"NULL"	"NULL"	"stimuli/MullerLyer_2300000_-0.7000.png"	n/a	"MullerLyer"	"arrowdown"	"1253"	"TRUE"	"MullerLyer"	"230000000000"	"-0.700000000"	"1"	"9"
n/a	"html-keyboard-response"	"28"	"145791"	"0.0-4.0-2.0-2.0-0.3"	"gnv9tb"	"600"	"1366"	"chrome"	"109.0.0"	"FALSE"	"Windows 10"	"60.77"	"004"	n/a	n/a	n/a	n/a	n/a	n/a	"fixation"	n/a	n/a	n/a	n/a	"NULL"	n/a	"NULL"	"NULL"	"NULL"	"<p style=\"color: black; font-size: 80px; padding-left: 34%; padding-right: 46%; padding-top: 33%; padding-bottom: 35%\">+</p>"	"1494"	n/a	n/a	n/a	n/a	n/a	n/a	n/a	n/a	n/a
n/a	"image-keyboard-response"	"29"	"146469"	"0.0-4.0-2.0-2.0-1.3"	"gnv9tb"	"600"	"1366"	"chrome"	"109.0.0"	"FALSE"	"Windows 10"	"60.77"	"004"	n/a	n/a	n/a	n/a	n/a	n/a	"Trial"	n/a	n/a	n/a	"676"	"arrowdown"	n/a	"NULL"	"NULL"	"NULL"	"stimuli/MullerLyer_0000000_-0.7000.png"	n/a	"MullerLyer"	"arrowdown"	"1502"	"TRUE"	"MullerLyer"	"000000000000"	"-0.700000000"	"1"	"10"
n/a	"html-keyboard-response"	"30"	"147810"	"0.0-4.0-2.0-2.0-0.4"	"gnv9tb"	"600"	"1366"	"chrome"	"109.0.0"	"FALSE"	"Windows 10"	"60.77"	"004"	n/a	n/a	n/a	n/a	n/a	n/a	"fixation"	n/a	n/a	n/a	n/a	"NULL"	n/a	"NULL"	"NULL"	"NULL"	"<p style=\"color: black; font-size: 80px; padding-left: 34%; padding-right: 28%; padding-top: 7%; padding-bottom: 13%\">+</p>"	"1335"	n/a	n/a	n/a	n/a	n/a	n/a	n/a	n/a	n/a
n/a	"image-keyboard-response"	"31"	"148428"	"0.0-4.0-2.0-2.0-1.4"	"gnv9tb"	"600"	"1366"	"chrome"	"109.0.0"	"FALSE"	"Windows 10"	"60.77"	"004"	n/a	n/a	n/a	n/a	n/a	n/a	"Trial"	n/a	n/a	n/a	"616"	"arrowup"	n/a	"NULL"	"NULL"	"NULL"	"stimuli/MullerLyer_0000000_0.70000.png"	n/a	"MullerLyer"	"arrowup"	"1341"	"TRUE"	"MullerLyer"	"000000000000"	"0.7000000000"	"1"	"11"
n/a	"html-keyboard-response"	"32"	"149802"	"0.0-4.0-2.0-2.0-0.5"	"gnv9tb"	"600"	"1366"	"chrome"	"109.0.0"	"FALSE"	"Windows 10"	"60.77"	"004"	n/a	n/a	n/a	n/a	n/a	n/a	"fixation"	n/a	n/a	n/a	n/a	"NULL"	n/a	"NULL"	"NULL"	"NULL"	"<p style=\"color: black; font-size: 80px; padding-left: 45%; padding-right: 40%; padding-top: 45%; padding-bottom: 33%\">+</p>"	"1368"	n/a	n/a	n/a	n/a	n/a	n/a	n/a	n/a	n/a
n/a	"image-keyboard-response"	"33"	"150820"	"0.0-4.0-2.0-2.0-1.5"	"gnv9tb"	"600"	"1366"	"chrome"	"109.0.0"	"FALSE"	"Windows 10"	"60.77"	"004"	n/a	n/a	n/a	n/a	n/a	n/a	"Trial"	n/a	n/a	n/a	"1017"	"arrowup"	n/a	"NULL"	"NULL"	"NULL"	"stimuli/MullerLyer_2300000_0.70000.png"	n/a	"MullerLyer"	"arrowup"	"1374"	"TRUE"	"MullerLyer"	"230000000000"	"0.7000000000"	"1"	"12"
n/a	"html-button-response"	"34"	"154524"	"0.0-4.0-2.0-3.0"	"gnv9tb"	"600"	"1366"	"chrome"	"109.0.0"	"FALSE"	"Windows 10"	"60.77"	"004"	n/a	n/a	n/a	n/a	n/a	n/a	"practice_block_results"	n/a	n/a	n/a	"3701"	"0"	n/a	"NULL"	"NULL"	"NULL"	"<p style='color:rgb(76,175,80);'> Correct Responses: <b>100.00%</b></p><hr><p style='color:rgb(233,30,99);'> Average Response Time: <b>830.83</b> ms.</p>"	n/a	n/a	n/a	n/a	n/a	n/a	n/a	n/a	n/a	n/a
"TRUE"	"preload"	"35"	"155058"	"0.0-4.0-3.0-0.0"	"gnv9tb"	"600"	"1366"	"chrome"	"109.0.0"	"FALSE"	"Windows 10"	"60.77"	"004"	n/a	n/a	n/a	n/a	n/a	n/a	n/a	n/a	n/a	n/a	n/a	"NULL"	"FALSE"	"list()"	"list()"	"list()"	n/a	n/a	n/a	n/a	n/a	n/a	n/a	n/a	n/a	n/a	n/a
n/a	"html-keyboard-response"	"36"	"165797"	"0.0-4.0-3.0-1.0"	"gnv9tb"	"600"	"1366"	"chrome"	"109.0.0"	"FALSE"	"Windows 10"	"60.77"	"004"	n/a	n/a	n/a	n/a	n/a	n/a	n/a	n/a	n/a	n/a	"10738"	"enter"	n/a	"NULL"	"NULL"	"NULL"	"<p><b>Practice</b></p><p>In this part, two red lines will appear side by side.</p><p>Your task is to tell <b>which line is longer</b> in length, regardless of their orientation, as fast as you can, and without making errors.</p><p>Don't get distracted by the orientation of the lines!</p><p>Press <b>the LEFT or the RIGHT arrow</b> to indicate which <b>line is the longer one.</b></p><div style='float: center'><img src='materials/instructions/VerticalHorizontal_Demo.png' height='300'></img><p><img src='utils/answer/answer_leftright_keyboard.PNG' height='150'></img></p><p class='small'>In this example, the correct answer is the <b>LEFT arrow</b>.</p></div><p>Are you ready? <b>Press ENTER to start</b></p>"	n/a	n/a	n/a	n/a	n/a	n/a	n/a	n/a	n/a	n/a
n/a	"html-keyboard-response"	"37"	"167325"	"0.0-4.0-3.0-2.0-0.0"	"gnv9tb"	"600"	"1366"	"chrome"	"109.0.0"	"FALSE"	"Windows 10"	"60.77"	"004"	n/a	n/a	n/a	n/a	n/a	n/a	"fixation"	n/a	n/a	n/a	n/a	"NULL"	n/a	"NULL"	"NULL"	"NULL"	"<p style=\"color: black; font-size: 80px; padding-left: 18%; padding-right: 5%; padding-top: 42%; padding-bottom: 43%\">+</p>"	"1020"	n/a	n/a	n/a	n/a	n/a	n/a	n/a	n/a	n/a
n/a	"image-keyboard-response"	"38"	"167963"	"0.0-4.0-3.0-2.0-1.0"	"gnv9tb"	"600"	"1366"	"chrome"	"109.0.0"	"FALSE"	"Windows 10"	"60.77"	"004"	n/a	n/a	n/a	n/a	n/a	n/a	"Trial"	n/a	n/a	n/a	"637"	"arrowleft"	n/a	"NULL"	"NULL"	"NULL"	"stimuli/VerticalHorizontal_3300000_0.90000.png"	n/a	"VerticalHorizontal"	"arrowleft"	"1528"	"TRUE"	"VerticalHorizontal"	"330000000000"	"0.9000000000"	"1"	"13"
n/a	"html-keyboard-response"	"39"	"169014"	"0.0-4.0-3.0-2.0-0.1"	"gnv9tb"	"600"	"1366"	"chrome"	"109.0.0"	"FALSE"	"Windows 10"	"60.77"	"004"	n/a	n/a	n/a	n/a	n/a	n/a	"fixation"	n/a	n/a	n/a	n/a	"NULL"	n/a	"NULL"	"NULL"	"NULL"	"<p style=\"color: black; font-size: 80px; padding-left: 41%; padding-right: 47%; padding-top: 11%; padding-bottom: 29%\">+</p>"	"1033"	n/a	n/a	n/a	n/a	n/a	n/a	n/a	n/a	n/a
n/a	"image-keyboard-response"	"40"	"169702"	"0.0-4.0-3.0-2.0-1.1"	"gnv9tb"	"600"	"1366"	"chrome"	"109.0.0"	"FALSE"	"Windows 10"	"60.77"	"004"	n/a	n/a	n/a	n/a	n/a	n/a	"Trial"	n/a	n/a	n/a	"686"	"arrowleft"	n/a	"NULL"	"NULL"	"NULL"	"stimuli/VerticalHorizontal_0000000_0.90000.png"	n/a	"VerticalHorizontal"	"arrowleft"	"1051"	"TRUE"	"VerticalHorizontal"	"000000000000"	"0.9000000000"	"1"	"14"
n/a	"html-keyboard-response"	"41"	"171084"	"0.0-4.0-3.0-2.0-0.2"	"gnv9tb"	"600"	"1366"	"chrome"	"109.0.0"	"FALSE"	"Windows 10"	"60.77"	"004"	n/a	n/a	n/a	n/a	n/a	n/a	"fixation"	n/a	n/a	n/a	n/a	"NULL"	n/a	"NULL"	"NULL"	"NULL"	"<p style=\"color: black; font-size: 80px; padding-left: 36%; padding-right: 26%; padding-top: 8%; padding-bottom: 4%\">+</p>"	"1371"	n/a	n/a	n/a	n/a	n/a	n/a	n/a	n/a	n/a
n/a	"image-keyboard-response"	"42"	"171675"	"0.0-4.0-3.0-2.0-1.2"	"gnv9tb"	"600"	"1366"	"chrome"	"109.0.0"	"FALSE"	"Windows 10"	"60.77"	"004"	n/a	n/a	n/a	n/a	n/a	n/a	"Trial"	n/a	n/a	n/a	"589"	"arrowright"	n/a	"NULL"	"NULL"	"NULL"	"stimuli/VerticalHorizontal_0000000_-0.9000.png"	n/a	"VerticalHorizontal"	"arrowright"	"1382"	"TRUE"	"VerticalHorizontal"	"000000000000"	"-0.900000000"	"1"	"15"
n/a	"html-keyboard-response"	"43"	"172909"	"0.0-4.0-3.0-2.0-0.3"	"gnv9tb"	"600"	"1366"	"chrome"	"109.0.0"	"FALSE"	"Windows 10"	"60.77"	"004"	n/a	n/a	n/a	n/a	n/a	n/a	"fixation"	n/a	n/a	n/a	n/a	"NULL"	n/a	"NULL"	"NULL"	"NULL"	"<p style=\"color: black; font-size: 80px; padding-left: 23%; padding-right: 24%; padding-top: 36%; padding-bottom: 7%\">+</p>"	"1217"	n/a	n/a	n/a	n/a	n/a	n/a	n/a	n/a	n/a
n/a	"image-keyboard-response"	"44"	"173435"	"0.0-4.0-3.0-2.0-1.3"	"gnv9tb"	"600"	"1366"	"chrome"	"109.0.0"	"FALSE"	"Windows 10"	"60.77"	"004"	n/a	n/a	n/a	n/a	n/a	n/a	"Trial"	n/a	n/a	n/a	"525"	"arrowright"	n/a	"NULL"	"NULL"	"NULL"	"stimuli/VerticalHorizontal_-330000_-0.9000.png"	n/a	"VerticalHorizontal"	"arrowright"	"1234"	"TRUE"	"VerticalHorizontal"	"-33000000000"	"-0.900000000"	"1"	"16"
n/a	"html-keyboard-response"	"45"	"174584"	"0.0-4.0-3.0-2.0-0.4"	"gnv9tb"	"600"	"1366"	"chrome"	"109.0.0"	"FALSE"	"Windows 10"	"60.77"	"004"	n/a	n/a	n/a	n/a	n/a	n/a	"fixation"	n/a	n/a	n/a	n/a	"NULL"	n/a	"NULL"	"NULL"	"NULL"	"<p style=\"color: black; font-size: 80px; padding-left: 33%; padding-right: 48%; padding-top: 32%; padding-bottom: 37%\">+</p>"	"1129"	n/a	n/a	n/a	n/a	n/a	n/a	n/a	n/a	n/a
n/a	"image-keyboard-response"	"46"	"175046"	"0.0-4.0-3.0-2.0-1.4"	"gnv9tb"	"600"	"1366"	"chrome"	"109.0.0"	"FALSE"	"Windows 10"	"60.77"	"004"	n/a	n/a	n/a	n/a	n/a	n/a	"Trial"	n/a	n/a	n/a	"461"	"arrowleft"	n/a	"NULL"	"NULL"	"NULL"	"stimuli/VerticalHorizontal_-330000_0.90000.png"	n/a	"VerticalHorizontal"	"arrowleft"	"1149"	"TRUE"	"VerticalHorizontal"	"-33000000000"	"0.9000000000"	"1"	"17"
n/a	"html-keyboard-response"	"47"	"176221"	"0.0-4.0-3.0-2.0-0.5"	"gnv9tb"	"600"	"1366"	"chrome"	"109.0.0"	"FALSE"	"Windows 10"	"60.77"	"004"	n/a	n/a	n/a	n/a	n/a	n/a	"fixation"	n/a	n/a	n/a	n/a	"NULL"	n/a	"NULL"	"NULL"	"NULL"	"<p style=\"color: black; font-size: 80px; padding-left: 22%; padding-right: 2%; padding-top: 38%; padding-bottom: 22%\">+</p>"	"1161"	n/a	n/a	n/a	n/a	n/a	n/a	n/a	n/a	n/a
n/a	"image-keyboard-response"	"48"	"176644"	"0.0-4.0-3.0-2.0-1.5"	"gnv9tb"	"600"	"1366"	"chrome"	"109.0.0"	"FALSE"	"Windows 10"	"60.77"	"004"	n/a	n/a	n/a	n/a	n/a	n/a	"Trial"	n/a	n/a	n/a	"423"	"arrowright"	n/a	"NULL"	"NULL"	"NULL"	"stimuli/VerticalHorizontal_3300000_-0.9000.png"	n/a	"VerticalHorizontal"	"arrowright"	"1175"	"TRUE"	"VerticalHorizontal"	"330000000000"	"-0.900000000"	"1"	"18"
n/a	"html-button-response"	"49"	"185964"	"0.0-4.0-3.0-3.0"	"gnv9tb"	"600"	"1366"	"chrome"	"109.0.0"	"FALSE"	"Windows 10"	"60.77"	"004"	n/a	n/a	n/a	n/a	n/a	n/a	"practice_block_results"	n/a	n/a	n/a	"9319"	"0"	n/a	"NULL"	"NULL"	"NULL"	"<p style='color:rgb(76,175,80);'> Correct Responses: <b>100.00%</b></p><hr><p style='color:rgb(233,30,99);'> Average Response Time: <b>553.50</b> ms.</p>"	n/a	n/a	n/a	n/a	n/a	n/a	n/a	n/a	n/a	n/a
n/a	"html-button-response"	"50"	"295030"	"0.0-4.0-4.0"	"gnv9tb"	"600"	"1366"	"chrome"	"109.0.0"	"FALSE"	"Windows 10"	"60.77"	"004"	n/a	n/a	n/a	n/a	n/a	n/a	"practice_debrief"	n/a	n/a	n/a	"108548"	"0"	n/a	"NULL"	"NULL"	"NULL"	"<p><b>TRAINING COMPLETED</b></p><p>In the next phase, there will be more trials, and some might be harder too.<br> Moreover, after each illusion block, a <b>score</b> will be calculated based on speed (time you took to answer) and accuracy (number of errors).</p><p>Try to keep up a high score!</p><br><p>Note that it can be <i>really</i> challenging at times, so you will need to rely on your <b>intuition</b> and gut feeling to answer as fast as you can without making errors.</p><p>Each illusion block will be repeated two times (so that you have the opportunity to improve your score), but the order of the blocks is random.</p><p>Remember, your goal is to be as <b>fast</b> and <b>accurate</b> as possible. Good luck!</p><br>"	n/a	n/a	n/a	n/a	n/a	n/a	n/a	n/a	n/a	n/a
"TRUE"	"preload"	"51"	"295189"	"0.0-5.0-0.0"	"gnv9tb"	"600"	"1366"	"chrome"	"109.0.0"	"FALSE"	"Windows 10"	"60.77"	"004"	n/a	n/a	n/a	n/a	n/a	n/a	n/a	n/a	n/a	n/a	n/a	"NULL"	"FALSE"	"list()"	"list()"	"list()"	n/a	n/a	n/a	n/a	n/a	n/a	n/a	n/a	n/a	n/a	n/a
n/a	"html-keyboard-response"	"52"	"299438"	"0.0-5.0-1.0"	"gnv9tb"	"600"	"1366"	"chrome"	"109.0.0"	"FALSE"	"Windows 10"	"60.77"	"004"	n/a	n/a	n/a	n/a	n/a	n/a	n/a	n/a	n/a	n/a	"4248"	"enter"	n/a	"NULL"	"NULL"	"NULL"	"<p><b>Part 1/6</b></p><p>In this part, two red circles will appear side by side on the screen.</p><p>Your task is to select which <b>red circle is bigger</b> in size as fast as you can, without making errors.</p><p>Don't get distracted by the surrounding black circles around the red circles!</p><p>Press <b>the LEFT or the RIGHT arrow</b> to indicate which is the bigger <b>red circle.</b></p><div style='float: center'><img src='materials/instructions/Ebbinghaus_Demo.png' height='300'></img><p><img src='utils/answer/answer_leftright_keyboard.PNG' height='150'></img></p><p class='small'>In this example, the correct answer is the <b>LEFT arrow</b>.</p></div><p>Are you ready? <b>Press ENTER to start</b></p>"	n/a	n/a	n/a	n/a	n/a	n/a	n/a	n/a	n/a	n/a
n/a	"html-keyboard-response"	"53"	"301124"	"0.0-5.0-2.0-0.0"	"gnv9tb"	"600"	"1366"	"chrome"	"109.0.0"	"FALSE"	"Windows 10"	"60.77"	"004"	n/a	n/a	n/a	n/a	n/a	n/a	"fixation"	n/a	n/a	n/a	n/a	"NULL"	n/a	"NULL"	"NULL"	"NULL"	"<p style=\"color: black; font-size: 80px; padding-left: 14%; padding-right: 10%; padding-top: 28%; padding-bottom: 27%\">+</p>"	"1163"	n/a	n/a	n/a	n/a	n/a	n/a	n/a	n/a	n/a
n/a	"image-keyboard-response"	"54"	"302060"	"0.0-5.0-2.0-1.0"	"gnv9tb"	"600"	"1366"	"chrome"	"109.0.0"	"FALSE"	"Windows 10"	"60.77"	"004"	n/a	n/a	n/a	n/a	n/a	n/a	"Trial"	n/a	n/a	n/a	"935"	"arrowleft"	n/a	"NULL"	"NULL"	"NULL"	"stimuli/Ebbinghaus_0.35714_0.21500.png"	n/a	"Ebbinghaus"	"arrowleft"	"1686"	"TRUE"	"Ebbinghaus"	"0.3571400000"	"0.2150000000"	"1"	"19"
n/a	"html-keyboard-response"	"55"	"303186"	"0.0-5.0-2.0-0.1"	"gnv9tb"	"600"	"1366"	"chrome"	"109.0.0"	"FALSE"	"Windows 10"	"60.77"	"004"	n/a	n/a	n/a	n/a	n/a	n/a	"fixation"	n/a	n/a	n/a	n/a	"NULL"	n/a	"NULL"	"NULL"	"NULL"	"<p style=\"color: black; font-size: 80px; padding-left: 7%; padding-right: 34%; padding-top: 43%; padding-bottom: 29%\">+</p>"	"1114"	n/a	n/a	n/a	n/a	n/a	n/a	n/a	n/a	n/a
n/a	"image-keyboard-response"	"56"	"303749"	"0.0-5.0-2.0-1.1"	"gnv9tb"	"600"	"1366"	"chrome"	"109.0.0"	"FALSE"	"Windows 10"	"60.77"	"004"	n/a	n/a	n/a	n/a	n/a	n/a	"Trial"	n/a	n/a	n/a	"562"	"arrowright"	n/a	"NULL"	"NULL"	"NULL"	"stimuli/Ebbinghaus_-0.87143_-0.2800.png"	n/a	"Ebbinghaus"	"arrowright"	"1126"	"TRUE"	"Ebbinghaus"	"-0.871430000"	"-0.280000000"	"1"	"20"
n/a	"html-keyboard-response"	"57"	"305180"	"0.0-5.0-2.0-0.2"	"gnv9tb"	"600"	"1366"	"chrome"	"109.0.0"	"FALSE"	"Windows 10"	"60.77"	"004"	n/a	n/a	n/a	n/a	n/a	n/a	"fixation"	n/a	n/a	n/a	n/a	"NULL"	n/a	"NULL"	"NULL"	"NULL"	"<p style=\"color: black; font-size: 80px; padding-left: 31%; padding-right: 41%; padding-top: 39%; padding-bottom: 3%\">+</p>"	"1414"	n/a	n/a	n/a	n/a	n/a	n/a	n/a	n/a	n/a
n/a	"image-keyboard-response"	"58"	"305738"	"0.0-5.0-2.0-1.2"	"gnv9tb"	"600"	"1366"	"chrome"	"109.0.0"	"FALSE"	"Windows 10"	"60.77"	"004"	n/a	n/a	n/a	n/a	n/a	n/a	"Trial"	n/a	n/a	n/a	"556"	"arrowright"	n/a	"NULL"	"NULL"	"NULL"	"stimuli/Ebbinghaus_-0.1000_0.15857.png"	n/a	"Ebbinghaus"	"arrowleft"	"1431"	"FALSE"	"Ebbinghaus"	"-0.100000000"	"0.1585700000"	"1"	"21"
n/a	"html-keyboard-response"	"59"	"307229"	"0.0-5.0-2.0-0.3"	"gnv9tb"	"600"	"1366"	"chrome"	"109.0.0"	"FALSE"	"Windows 10"	"60.77"	"004"	n/a	n/a	n/a	n/a	n/a	n/a	"fixation"	n/a	n/a	n/a	n/a	"NULL"	n/a	"NULL"	"NULL"	"NULL"	"<p style=\"color: black; font-size: 80px; padding-left: 22%; padding-right: 33%; padding-top: 40%; padding-bottom: 43%\">+</p>"	"1485"	n/a	n/a	n/a	n/a	n/a	n/a	n/a	n/a	n/a
n/a	"image-keyboard-response"	"60"	"307866"	"0.0-5.0-2.0-1.3"	"gnv9tb"	"600"	"1366"	"chrome"	"109.0.0"	"FALSE"	"Windows 10"	"60.77"	"004"	n/a	n/a	n/a	n/a	n/a	n/a	"Trial"	n/a	n/a	n/a	"635"	"arrowleft"	n/a	"NULL"	"NULL"	"NULL"	"stimuli/Ebbinghaus_0.10000_0.15857.png"	n/a	"Ebbinghaus"	"arrowleft"	"1491"	"TRUE"	"Ebbinghaus"	"0.1000000000"	"0.1585700000"	"1"	"22"
n/a	"html-keyboard-response"	"61"	"309343"	"0.0-5.0-2.0-0.4"	"gnv9tb"	"600"	"1366"	"chrome"	"109.0.0"	"FALSE"	"Windows 10"	"60.77"	"004"	n/a	n/a	n/a	n/a	n/a	n/a	"fixation"	n/a	n/a	n/a	n/a	"NULL"	n/a	"NULL"	"NULL"	"NULL"	"<p style=\"color: black; font-size: 80px; padding-left: 50%; padding-right: 17%; padding-top: 2%; padding-bottom: 30%\">+</p>"	"1456"	n/a	n/a	n/a	n/a	n/a	n/a	n/a	n/a	n/a
n/a	"image-keyboard-response"	"62"	"309937"	"0.0-5.0-2.0-1.4"	"gnv9tb"	"600"	"1366"	"chrome"	"109.0.0"	"FALSE"	"Windows 10"	"60.77"	"004"	n/a	n/a	n/a	n/a	n/a	n/a	"Trial"	n/a	n/a	n/a	"592"	"arrowright"	n/a	"NULL"	"NULL"	"NULL"	"stimuli/Ebbinghaus_0.61429_0.28000.png"	n/a	"Ebbinghaus"	"arrowleft"	"1477"	"FALSE"	"Ebbinghaus"	"0.6142900000"	"0.2800000000"	"1"	"23"
n/a	"html-keyboard-response"	"63"	"311324"	"0.0-5.0-2.0-0.5"	"gnv9tb"	"600"	"1366"	"chrome"	"109.0.0"	"FALSE"	"Windows 10"	"60.77"	"004"	n/a	n/a	n/a	n/a	n/a	n/a	"fixation"	n/a	n/a	n/a	n/a	"NULL"	n/a	"NULL"	"NULL"	"NULL"	"<p style=\"color: black; font-size: 80px; padding-left: 31%; padding-right: 50%; padding-top: 1%; padding-bottom: 45%\">+</p>"	"1378"	n/a	n/a	n/a	n/a	n/a	n/a	n/a	n/a	n/a
n/a	"image-keyboard-response"	"64"	"311804"	"0.0-5.0-2.0-1.5"	"gnv9tb"	"600"	"1366"	"chrome"	"109.0.0"	"FALSE"	"Windows 10"	"60.77"	"004"	n/a	n/a	n/a	n/a	n/a	n/a	"Trial"	n/a	n/a	n/a	"480"	"arrowright"	n/a	"NULL"	"NULL"	"NULL"	"stimuli/Ebbinghaus_0.87143_-0.2800.png"	n/a	"Ebbinghaus"	"arrowright"	"1387"	"TRUE"	"Ebbinghaus"	"0.8714300000"	"-0.280000000"	"1"	"24"
n/a	"html-keyboard-response"	"65"	"313235"	"0.0-5.0-2.0-0.6"	"gnv9tb"	"600"	"1366"	"chrome"	"109.0.0"	"FALSE"	"Windows 10"	"60.77"	"004"	n/a	n/a	n/a	n/a	n/a	n/a	"fixation"	n/a	n/a	n/a	n/a	"NULL"	n/a	"NULL"	"NULL"	"NULL"	"<p style=\"color: black; font-size: 80px; padding-left: 6%; padding-right: 47%; padding-top: 36%; padding-bottom: 40%\">+</p>"	"1421"	n/a	n/a	n/a	n/a	n/a	n/a	n/a	n/a	n/a
n/a	"image-keyboard-response"	"66"	"313918"	"0.0-5.0-2.0-1.6"	"gnv9tb"	"600"	"1366"	"chrome"	"109.0.0"	"FALSE"	"Windows 10"	"60.77"	"004"	n/a	n/a	n/a	n/a	n/a	n/a	"Trial"	n/a	n/a	n/a	"681"	"arrowleft"	n/a	"NULL"	"NULL"	"NULL"	"stimuli/Ebbinghaus_-0.61429_0.28000.png"	n/a	"Ebbinghaus"	"arrowleft"	"1431"	"TRUE"	"Ebbinghaus"	"-0.614290000"	"0.2800000000"	"1"	"25"
n/a	"html-keyboard-response"	"67"	"315140"	"0.0-5.0-2.0-0.7"	"gnv9tb"	"600"	"1366"	"chrome"	"109.0.0"	"FALSE"	"Windows 10"	"60.77"	"004"	n/a	n/a	n/a	n/a	n/a	n/a	"fixation"	n/a	n/a	n/a	n/a	"NULL"	n/a	"NULL"	"NULL"	"NULL"	"<p style=\"color: black; font-size: 80px; padding-left: 27%; padding-right: 2%; padding-top: 46%; padding-bottom: 0%\">+</p>"	"1207"	n/a	n/a	n/a	n/a	n/a	n/a	n/a	n/a	n/a
n/a	"image-keyboard-response"	"68"	"315642"	"0.0-5.0-2.0-1.7"	"gnv9tb"	"600"	"1366"	"chrome"	"109.0.0"	"FALSE"	"Windows 10"	"60.77"	"004"	n/a	n/a	n/a	n/a	n/a	n/a	"Trial"	n/a	n/a	n/a	"501"	"arrowright"	n/a	"NULL"	"NULL"	"NULL"	"stimuli/Ebbinghaus_0.61429_-0.2800.png"	n/a	"Ebbinghaus"	"arrowright"	"1222"	"TRUE"	"Ebbinghaus"	"0.6142900000"	"-0.280000000"	"1"	"26"
n/a	"html-keyboard-response"	"69"	"317095"	"0.0-5.0-2.0-0.8"	"gnv9tb"	"600"	"1366"	"chrome"	"109.0.0"	"FALSE"	"Windows 10"	"60.77"	"004"	n/a	n/a	n/a	n/a	n/a	n/a	"fixation"	n/a	n/a	n/a	n/a	"NULL"	n/a	"NULL"	"NULL"	"NULL"	"<p style=\"color: black; font-size: 80px; padding-left: 21%; padding-right: 13%; padding-top: 47%; padding-bottom: 32%\">+</p>"	"1446"	n/a	n/a	n/a	n/a	n/a	n/a	n/a	n/a	n/a
n/a	"image-keyboard-response"	"70"	"317559"	"0.0-5.0-2.0-1.8"	"gnv9tb"	"600"	"1366"	"chrome"	"109.0.0"	"FALSE"	"Windows 10"	"60.77"	"004"	n/a	n/a	n/a	n/a	n/a	n/a	"Trial"	n/a	n/a	n/a	"459"	"arrowleft"	n/a	"NULL"	"NULL"	"NULL"	"stimuli/Ebbinghaus_-0.61429_-0.11071.png"	n/a	"Ebbinghaus"	"arrowright"	"1453"	"FALSE"	"Ebbinghaus"	"-0.614290000"	"-0.110710000"	"1"	"27"
n/a	"html-keyboard-response"	"71"	"318779"	"0.0-5.0-2.0-0.9"	"gnv9tb"	"600"	"1366"	"chrome"	"109.0.0"	"FALSE"	"Windows 10"	"60.77"	"004"	n/a	n/a	n/a	n/a	n/a	n/a	"fixation"	n/a	n/a	n/a	n/a	"NULL"	n/a	"NULL"	"NULL"	"NULL"	"<p style=\"color: black; font-size: 80px; padding-left: 47%; padding-right: 21%; padding-top: 24%; padding-bottom: 24%\">+</p>"	"1218"	n/a	n/a	n/a	n/a	n/a	n/a	n/a	n/a	n/a
n/a	"image-keyboard-response"	"72"	"319259"	"0.0-5.0-2.0-1.9"	"gnv9tb"	"600"	"1366"	"chrome"	"109.0.0"	"FALSE"	"Windows 10"	"60.77"	"004"	n/a	n/a	n/a	n/a	n/a	n/a	"Trial"	n/a	n/a	n/a	"479"	"arrowright"	n/a	"NULL"	"NULL"	"NULL"	"stimuli/Ebbinghaus_-0.87143_-0.15857.png"	n/a	"Ebbinghaus"	"arrowright"	"1220"	"TRUE"	"Ebbinghaus"	"-0.871430000"	"-0.158570000"	"1"	"28"
n/a	"html-keyboard-response"	"73"	"320735"	"0.0-5.0-2.0-0.10"	"gnv9tb"	"600"	"1366"	"chrome"	"109.0.0"	"FALSE"	"Windows 10"	"60.77"	"004"	n/a	n/a	n/a	n/a	n/a	n/a	"fixation"	n/a	n/a	n/a	n/a	"NULL"	n/a	"NULL"	"NULL"	"NULL"	"<p style=\"color: black; font-size: 80px; padding-left: 12%; padding-right: 29%; padding-top: 1%; padding-bottom: 20%\">+</p>"	"1461"	n/a	n/a	n/a	n/a	n/a	n/a	n/a	n/a	n/a
n/a	"image-keyboard-response"	"74"	"321257"	"0.0-5.0-2.0-1.10"	"gnv9tb"	"600"	"1366"	"chrome"	"109.0.0"	"FALSE"	"Windows 10"	"60.77"	"004"	n/a	n/a	n/a	n/a	n/a	n/a	"Trial"	n/a	n/a	n/a	"521"	"arrowleft"	n/a	"NULL"	"NULL"	"NULL"	"stimuli/Ebbinghaus_0.87143_0.15857.png"	n/a	"Ebbinghaus"	"arrowleft"	"1476"	"TRUE"	"Ebbinghaus"	"0.8714300000"	"0.1585700000"	"1"	"29"
n/a	"html-keyboard-response"	"75"	"322639"	"0.0-5.0-2.0-0.11"	"gnv9tb"	"600"	"1366"	"chrome"	"109.0.0"	"FALSE"	"Windows 10"	"60.77"	"004"	n/a	n/a	n/a	n/a	n/a	n/a	"fixation"	n/a	n/a	n/a	n/a	"NULL"	n/a	"NULL"	"NULL"	"NULL"	"<p style=\"color: black; font-size: 80px; padding-left: 11%; padding-right: 41%; padding-top: 31%; padding-bottom: 18%\">+</p>"	"1367"	n/a	n/a	n/a	n/a	n/a	n/a	n/a	n/a	n/a
n/a	"image-keyboard-response"	"76"	"323052"	"0.0-5.0-2.0-1.11"	"gnv9tb"	"600"	"1366"	"chrome"	"109.0.0"	"FALSE"	"Windows 10"	"60.77"	"004"	n/a	n/a	n/a	n/a	n/a	n/a	"Trial"	n/a	n/a	n/a	"412"	"arrowright"	n/a	"NULL"	"NULL"	"NULL"	"stimuli/Ebbinghaus_-0.35714_-0.2800.png"	n/a	"Ebbinghaus"	"arrowright"	"1382"	"TRUE"	"Ebbinghaus"	"-0.357140000"	"-0.280000000"	"1"	"30"
n/a	"html-keyboard-response"	"77"	"324405"	"0.0-5.0-2.0-0.12"	"gnv9tb"	"600"	"1366"	"chrome"	"109.0.0"	"FALSE"	"Windows 10"	"60.77"	"004"	n/a	n/a	n/a	n/a	n/a	n/a	"fixation"	n/a	n/a	n/a	n/a	"NULL"	n/a	"NULL"	"NULL"	"NULL"	"<p style=\"color: black; font-size: 80px; padding-left: 12%; padding-right: 24%; padding-top: 28%; padding-bottom: 39%\">+</p>"	"1335"	n/a	n/a	n/a	n/a	n/a	n/a	n/a	n/a	n/a
n/a	"image-keyboard-response"	"78"	"324877"	"0.0-5.0-2.0-1.12"	"gnv9tb"	"600"	"1366"	"chrome"	"109.0.0"	"FALSE"	"Windows 10"	"60.77"	"004"	n/a	n/a	n/a	n/a	n/a	n/a	"Trial"	n/a	n/a	n/a	"470"	"arrowleft"	n/a	"NULL"	"NULL"	"NULL"	"stimuli/Ebbinghaus_0.10000_-0.11071.png"	n/a	"Ebbinghaus"	"arrowright"	"1353"	"FALSE"	"Ebbinghaus"	"0.1000000000"	"-0.110710000"	"1"	"31"
n/a	"html-keyboard-response"	"79"	"325949"	"0.0-5.0-2.0-0.13"	"gnv9tb"	"600"	"1366"	"chrome"	"109.0.0"	"FALSE"	"Windows 10"	"60.77"	"004"	n/a	n/a	n/a	n/a	n/a	n/a	"fixation"	n/a	n/a	n/a	n/a	"NULL"	n/a	"NULL"	"NULL"	"NULL"	"<p style=\"color: black; font-size: 80px; padding-left: 2%; padding-right: 17%; padding-top: 27%; padding-bottom: 23%\">+</p>"	"1056"	n/a	n/a	n/a	n/a	n/a	n/a	n/a	n/a	n/a
n/a	"image-keyboard-response"	"80"	"326440"	"0.0-5.0-2.0-1.13"	"gnv9tb"	"600"	"1366"	"chrome"	"109.0.0"	"FALSE"	"Windows 10"	"60.77"	"004"	n/a	n/a	n/a	n/a	n/a	n/a	"Trial"	n/a	n/a	n/a	"489"	"arrowleft"	n/a	"NULL"	"NULL"	"NULL"	"stimuli/Ebbinghaus_0.35714_-0.11071.png"	n/a	"Ebbinghaus"	"arrowright"	"1072"	"FALSE"	"Ebbinghaus"	"0.3571400000"	"-0.110710000"	"1"	"32"
n/a	"html-keyboard-response"	"81"	"327811"	"0.0-5.0-2.0-0.14"	"gnv9tb"	"600"	"1366"	"chrome"	"109.0.0"	"FALSE"	"Windows 10"	"60.77"	"004"	n/a	n/a	n/a	n/a	n/a	n/a	"fixation"	n/a	n/a	n/a	n/a	"NULL"	n/a	"NULL"	"NULL"	"NULL"	"<p style=\"color: black; font-size: 80px; padding-left: 41%; padding-right: 34%; padding-top: 14%; padding-bottom: 3%\">+</p>"	"1361"	n/a	n/a	n/a	n/a	n/a	n/a	n/a	n/a	n/a
n/a	"image-keyboard-response"	"82"	"328424"	"0.0-5.0-2.0-1.14"	"gnv9tb"	"600"	"1366"	"chrome"	"109.0.0"	"FALSE"	"Windows 10"	"60.77"	"004"	n/a	n/a	n/a	n/a	n/a	n/a	"Trial"	n/a	n/a	n/a	"613"	"arrowright"	n/a	"NULL"	"NULL"	"NULL"	"stimuli/Ebbinghaus_-0.35714_-0.2150.png"	n/a	"Ebbinghaus"	"arrowright"	"1371"	"TRUE"	"Ebbinghaus"	"-0.357140000"	"-0.215000000"	"1"	"33"
n/a	"html-keyboard-response"	"83"	"329516"	"0.0-5.0-2.0-0.15"	"gnv9tb"	"600"	"1366"	"chrome"	"109.0.0"	"FALSE"	"Windows 10"	"60.77"	"004"	n/a	n/a	n/a	n/a	n/a	n/a	"fixation"	n/a	n/a	n/a	n/a	"NULL"	n/a	"NULL"	"NULL"	"NULL"	"<p style=\"color: black; font-size: 80px; padding-left: 18%; padding-right: 5%; padding-top: 11%; padding-bottom: 19%\">+</p>"	"1083"	n/a	n/a	n/a	n/a	n/a	n/a	n/a	n/a	n/a
n/a	"image-keyboard-response"	"84"	"330073"	"0.0-5.0-2.0-1.15"	"gnv9tb"	"600"	"1366"	"chrome"	"109.0.0"	"FALSE"	"Windows 10"	"60.77"	"004"	n/a	n/a	n/a	n/a	n/a	n/a	"Trial"	n/a	n/a	n/a	"556"	"arrowright"	n/a	"NULL"	"NULL"	"NULL"	"stimuli/Ebbinghaus_0.61429_-0.15857.png"	n/a	"Ebbinghaus"	"arrowright"	"1092"	"TRUE"	"Ebbinghaus"	"0.6142900000"	"-0.158570000"	"1"	"34"
n/a	"html-keyboard-response"	"85"	"331317"	"0.0-5.0-2.0-0.16"	"gnv9tb"	"600"	"1366"	"chrome"	"109.0.0"	"FALSE"	"Windows 10"	"60.77"	"004"	n/a	n/a	n/a	n/a	n/a	n/a	"fixation"	n/a	n/a	n/a	n/a	"NULL"	n/a	"NULL"	"NULL"	"NULL"	"<p style=\"color: black; font-size: 80px; padding-left: 36%; padding-right: 31%; padding-top: 4%; padding-bottom: 30%\">+</p>"	"1236"	n/a	n/a	n/a	n/a	n/a	n/a	n/a	n/a	n/a
n/a	"image-keyboard-response"	"86"	"331855"	"0.0-5.0-2.0-1.16"	"gnv9tb"	"600"	"1366"	"chrome"	"109.0.0"	"FALSE"	"Windows 10"	"60.77"	"004"	n/a	n/a	n/a	n/a	n/a	n/a	"Trial"	n/a	n/a	n/a	"536"	"arrowright"	n/a	"NULL"	"NULL"	"NULL"	"stimuli/Ebbinghaus_-0.61429_0.15857.png"	n/a	"Ebbinghaus"	"arrowleft"	"1244"	"FALSE"	"Ebbinghaus"	"-0.614290000"	"0.1585700000"	"1"	"35"
n/a	"html-keyboard-response"	"87"	"333064"	"0.0-5.0-2.0-0.17"	"gnv9tb"	"600"	"1366"	"chrome"	"109.0.0"	"FALSE"	"Windows 10"	"60.77"	"004"	n/a	n/a	n/a	n/a	n/a	n/a	"fixation"	n/a	n/a	n/a	n/a	"NULL"	n/a	"NULL"	"NULL"	"NULL"	"<p style=\"color: black; font-size: 80px; padding-left: 33%; padding-right: 7%; padding-top: 16%; padding-bottom: 29%\">+</p>"	"1195"	n/a	n/a	n/a	n/a	n/a	n/a	n/a	n/a	n/a
n/a	"image-keyboard-response"	"88"	"333541"	"0.0-5.0-2.0-1.17"	"gnv9tb"	"600"	"1366"	"chrome"	"109.0.0"	"FALSE"	"Windows 10"	"60.77"	"004"	n/a	n/a	n/a	n/a	n/a	n/a	"Trial"	n/a	n/a	n/a	"476"	"arrowleft"	n/a	"NULL"	"NULL"	"NULL"	"stimuli/Ebbinghaus_0.61429_0.21500.png"	n/a	"Ebbinghaus"	"arrowleft"	"1209"	"TRUE"	"Ebbinghaus"	"0.6142900000"	"0.2150000000"	"1"	"36"
n/a	"html-keyboard-response"	"89"	"334563"	"0.0-5.0-2.0-0.18"	"gnv9tb"	"600"	"1366"	"chrome"	"109.0.0"	"FALSE"	"Windows 10"	"60.77"	"004"	n/a	n/a	n/a	n/a	n/a	n/a	"fixation"	n/a	n/a	n/a	n/a	"NULL"	n/a	"NULL"	"NULL"	"NULL"	"<p style=\"color: black; font-size: 80px; padding-left: 41%; padding-right: 32%; padding-top: 9%; padding-bottom: 5%\">+</p>"	"1017"	n/a	n/a	n/a	n/a	n/a	n/a	n/a	n/a	n/a
n/a	"image-keyboard-response"	"90"	"335066"	"0.0-5.0-2.0-1.18"	"gnv9tb"	"600"	"1366"	"chrome"	"109.0.0"	"FALSE"	"Windows 10"	"60.77"	"004"	n/a	n/a	n/a	n/a	n/a	n/a	"Trial"	n/a	n/a	n/a	"502"	"arrowleft"	n/a	"NULL"	"NULL"	"NULL"	"stimuli/Ebbinghaus_0.87143_0.28000.png"	n/a	"Ebbinghaus"	"arrowleft"	"1022"	"TRUE"	"Ebbinghaus"	"0.8714300000"	"0.2800000000"	"1"	"37"
n/a	"html-keyboard-response"	"91"	"336181"	"0.0-5.0-2.0-0.19"	"gnv9tb"	"600"	"1366"	"chrome"	"109.0.0"	"FALSE"	"Windows 10"	"60.77"	"004"	n/a	n/a	n/a	n/a	n/a	n/a	"fixation"	n/a	n/a	n/a	n/a	"NULL"	n/a	"NULL"	"NULL"	"NULL"	"<p style=\"color: black; font-size: 80px; padding-left: 25%; padding-right: 8%; padding-top: 36%; padding-bottom: 27%\">+</p>"	"1102"	n/a	n/a	n/a	n/a	n/a	n/a	n/a	n/a	n/a
n/a	"image-keyboard-response"	"92"	"336707"	"0.0-5.0-2.0-1.19"	"gnv9tb"	"600"	"1366"	"chrome"	"109.0.0"	"FALSE"	"Windows 10"	"60.77"	"004"	n/a	n/a	n/a	n/a	n/a	n/a	"Trial"	n/a	n/a	n/a	"525"	"arrowleft"	n/a	"NULL"	"NULL"	"NULL"	"stimuli/Ebbinghaus_0.87143_0.11071.png"	n/a	"Ebbinghaus"	"arrowleft"	"1115"	"TRUE"	"Ebbinghaus"	"0.8714300000"	"0.1107100000"	"1"	"38"
n/a	"html-keyboard-response"	"93"	"338206"	"0.0-5.0-2.0-0.20"	"gnv9tb"	"600"	"1366"	"chrome"	"109.0.0"	"FALSE"	"Windows 10"	"60.77"	"004"	n/a	n/a	n/a	n/a	n/a	n/a	"fixation"	n/a	n/a	n/a	n/a	"NULL"	n/a	"NULL"	"NULL"	"NULL"	"<p style=\"color: black; font-size: 80px; padding-left: 20%; padding-right: 38%; padding-top: 49%; padding-bottom: 26%\">+</p>"	"1480"	n/a	n/a	n/a	n/a	n/a	n/a	n/a	n/a	n/a
n/a	"image-keyboard-response"	"94"	"338696"	"0.0-5.0-2.0-1.20"	"gnv9tb"	"600"	"1366"	"chrome"	"109.0.0"	"FALSE"	"Windows 10"	"60.77"	"004"	n/a	n/a	n/a	n/a	n/a	n/a	"Trial"	n/a	n/a	n/a	"489"	"arrowright"	n/a	"NULL"	"NULL"	"NULL"	"stimuli/Ebbinghaus_0.87143_-0.2150.png"	n/a	"Ebbinghaus"	"arrowright"	"1499"	"TRUE"	"Ebbinghaus"	"0.8714300000"	"-0.215000000"	"1"	"39"
n/a	"html-keyboard-response"	"95"	"339953"	"0.0-5.0-2.0-0.21"	"gnv9tb"	"600"	"1366"	"chrome"	"109.0.0"	"FALSE"	"Windows 10"	"60.77"	"004"	n/a	n/a	n/a	n/a	n/a	n/a	"fixation"	n/a	n/a	n/a	n/a	"NULL"	n/a	"NULL"	"NULL"	"NULL"	"<p style=\"color: black; font-size: 80px; padding-left: 19%; padding-right: 36%; padding-top: 2%; padding-bottom: 15%\">+</p>"	"1239"	n/a	n/a	n/a	n/a	n/a	n/a	n/a	n/a	n/a
n/a	"image-keyboard-response"	"96"	"340408"	"0.0-5.0-2.0-1.21"	"gnv9tb"	"600"	"1366"	"chrome"	"109.0.0"	"FALSE"	"Windows 10"	"60.77"	"004"	n/a	n/a	n/a	n/a	n/a	n/a	"Trial"	n/a	n/a	n/a	"454"	"arrowright"	n/a	"NULL"	"NULL"	"NULL"	"stimuli/Ebbinghaus_-0.1000_-0.15857.png"	n/a	"Ebbinghaus"	"arrowright"	"1257"	"TRUE"	"Ebbinghaus"	"-0.100000000"	"-0.158570000"	"1"	"40"
n/a	"html-keyboard-response"	"97"	"341591"	"0.0-5.0-2.0-0.22"	"gnv9tb"	"600"	"1366"	"chrome"	"109.0.0"	"FALSE"	"Windows 10"	"60.77"	"004"	n/a	n/a	n/a	n/a	n/a	n/a	"fixation"	n/a	n/a	n/a	n/a	"NULL"	n/a	"NULL"	"NULL"	"NULL"	"<p style=\"color: black; font-size: 80px; padding-left: 34%; padding-right: 20%; padding-top: 32%; padding-bottom: 27%\">+</p>"	"1170"	n/a	n/a	n/a	n/a	n/a	n/a	n/a	n/a	n/a
n/a	"image-keyboard-response"	"98"	"342080"	"0.0-5.0-2.0-1.22"	"gnv9tb"	"600"	"1366"	"chrome"	"109.0.0"	"FALSE"	"Windows 10"	"60.77"	"004"	n/a	n/a	n/a	n/a	n/a	n/a	"Trial"	n/a	n/a	n/a	"488"	"arrowright"	n/a	"NULL"	"NULL"	"NULL"	"stimuli/Ebbinghaus_-0.61429_-0.15857.png"	n/a	"Ebbinghaus"	"arrowright"	"1183"	"TRUE"	"Ebbinghaus"	"-0.614290000"	"-0.158570000"	"1"	"41"
n/a	"html-keyboard-response"	"99"	"343328"	"0.0-5.0-2.0-0.23"	"gnv9tb"	"600"	"1366"	"chrome"	"109.0.0"	"FALSE"	"Windows 10"	"60.77"	"004"	n/a	n/a	n/a	n/a	n/a	n/a	"fixation"	n/a	n/a	n/a	n/a	"NULL"	n/a	"NULL"	"NULL"	"NULL"	"<p style=\"color: black; font-size: 80px; padding-left: 42%; padding-right: 31%; padding-top: 15%; padding-bottom: 44%\">+</p>"	"1227"	n/a	n/a	n/a	n/a	n/a	n/a	n/a	n/a	n/a
n/a	"image-keyboard-response"	"100"	"343727"	"0.0-5.0-2.0-1.23"	"gnv9tb"	"600"	"1366"	"chrome"	"109.0.0"	"FALSE"	"Windows 10"	"60.77"	"004"	n/a	n/a	n/a	n/a	n/a	n/a	"Trial"	n/a	n/a	n/a	"397"	"arrowleft"	n/a	"NULL"	"NULL"	"NULL"	"stimuli/Ebbinghaus_-0.1000_-0.11071.png"	n/a	"Ebbinghaus"	"arrowright"	"1248"	"FALSE"	"Ebbinghaus"	"-0.100000000"	"-0.110710000"	"1"	"42"
n/a	"html-keyboard-response"	"101"	"345205"	"0.0-5.0-2.0-0.24"	"gnv9tb"	"600"	"1366"	"chrome"	"109.0.0"	"FALSE"	"Windows 10"	"60.77"	"004"	n/a	n/a	n/a	n/a	n/a	n/a	"fixation"	n/a	n/a	n/a	n/a	"NULL"	n/a	"NULL"	"NULL"	"NULL"	"<p style=\"color: black; font-size: 80px; padding-left: 32%; padding-right: 40%; padding-top: 42%; padding-bottom: 42%\">+</p>"	"1473"	n/a	n/a	n/a	n/a	n/a	n/a	n/a	n/a	n/a
n/a	"image-keyboard-response"	"102"	"345609"	"0.0-5.0-2.0-1.24"	"gnv9tb"	"600"	"1366"	"chrome"	"109.0.0"	"FALSE"	"Windows 10"	"60.77"	"004"	n/a	n/a	n/a	n/a	n/a	n/a	"Trial"	n/a	n/a	n/a	"403"	"arrowleft"	n/a	"NULL"	"NULL"	"NULL"	"stimuli/Ebbinghaus_0.61429_0.11071.png"	n/a	"Ebbinghaus"	"arrowleft"	"1478"	"TRUE"	"Ebbinghaus"	"0.6142900000"	"0.1107100000"	"1"	"43"
n/a	"html-keyboard-response"	"103"	"346761"	"0.0-5.0-2.0-0.25"	"gnv9tb"	"600"	"1366"	"chrome"	"109.0.0"	"FALSE"	"Windows 10"	"60.77"	"004"	n/a	n/a	n/a	n/a	n/a	n/a	"fixation"	n/a	n/a	n/a	n/a	"NULL"	n/a	"NULL"	"NULL"	"NULL"	"<p style=\"color: black; font-size: 80px; padding-left: 15%; padding-right: 42%; padding-top: 23%; padding-bottom: 5%\">+</p>"	"1132"	n/a	n/a	n/a	n/a	n/a	n/a	n/a	n/a	n/a
n/a	"image-keyboard-response"	"104"	"347194"	"0.0-5.0-2.0-1.25"	"gnv9tb"	"600"	"1366"	"chrome"	"109.0.0"	"FALSE"	"Windows 10"	"60.77"	"004"	n/a	n/a	n/a	n/a	n/a	n/a	"Trial"	n/a	n/a	n/a	"432"	"arrowleft"	n/a	"NULL"	"NULL"	"NULL"	"stimuli/Ebbinghaus_0.10000_0.21500.png"	n/a	"Ebbinghaus"	"arrowleft"	"1152"	"TRUE"	"Ebbinghaus"	"0.1000000000"	"0.2150000000"	"1"	"44"
n/a	"html-keyboard-response"	"105"	"348241"	"0.0-5.0-2.0-0.26"	"gnv9tb"	"600"	"1366"	"chrome"	"109.0.0"	"FALSE"	"Windows 10"	"60.77"	"004"	n/a	n/a	n/a	n/a	n/a	n/a	"fixation"	n/a	n/a	n/a	n/a	"NULL"	n/a	"NULL"	"NULL"	"NULL"	"<p style=\"color: black; font-size: 80px; padding-left: 23%; padding-right: 13%; padding-top: 32%; padding-bottom: 26%\">+</p>"	"1032"	n/a	n/a	n/a	n/a	n/a	n/a	n/a	n/a	n/a
n/a	"image-keyboard-response"	"106"	"348737"	"0.0-5.0-2.0-1.26"	"gnv9tb"	"600"	"1366"	"chrome"	"109.0.0"	"FALSE"	"Windows 10"	"60.77"	"004"	n/a	n/a	n/a	n/a	n/a	n/a	"Trial"	n/a	n/a	n/a	"494"	"arrowleft"	n/a	"NULL"	"NULL"	"NULL"	"stimuli/Ebbinghaus_0.10000_-0.15857.png"	n/a	"Ebbinghaus"	"arrowright"	"1047"	"FALSE"	"Ebbinghaus"	"0.1000000000"	"-0.158570000"	"1"	"45"
n/a	"html-keyboard-response"	"107"	"350218"	"0.0-5.0-2.0-0.27"	"gnv9tb"	"600"	"1366"	"chrome"	"109.0.0"	"FALSE"	"Windows 10"	"60.77"	"004"	n/a	n/a	n/a	n/a	n/a	n/a	"fixation"	n/a	n/a	n/a	n/a	"NULL"	n/a	"NULL"	"NULL"	"NULL"	"<p style=\"color: black; font-size: 80px; padding-left: 29%; padding-right: 22%; padding-top: 25%; padding-bottom: 9%\">+</p>"	"1461"	n/a	n/a	n/a	n/a	n/a	n/a	n/a	n/a	n/a
n/a	"image-keyboard-response"	"108"	"350813"	"0.0-5.0-2.0-1.27"	"gnv9tb"	"600"	"1366"	"chrome"	"109.0.0"	"FALSE"	"Windows 10"	"60.77"	"004"	n/a	n/a	n/a	n/a	n/a	n/a	"Trial"	n/a	n/a	n/a	"595"	"arrowright"	n/a	"NULL"	"NULL"	"NULL"	"stimuli/Ebbinghaus_-0.1000_0.11071.png"	n/a	"Ebbinghaus"	"arrowleft"	"1481"	"FALSE"	"Ebbinghaus"	"-0.100000000"	"0.1107100000"	"1"	"46"
n/a	"html-keyboard-response"	"109"	"352187"	"0.0-5.0-2.0-0.28"	"gnv9tb"	"600"	"1366"	"chrome"	"109.0.0"	"FALSE"	"Windows 10"	"60.77"	"004"	n/a	n/a	n/a	n/a	n/a	n/a	"fixation"	n/a	n/a	n/a	n/a	"NULL"	n/a	"NULL"	"NULL"	"NULL"	"<p style=\"color: black; font-size: 80px; padding-left: 32%; padding-right: 36%; padding-top: 10%; padding-bottom: 6%\">+</p>"	"1351"	n/a	n/a	n/a	n/a	n/a	n/a	n/a	n/a	n/a
n/a	"image-keyboard-response"	"110"	"352605"	"0.0-5.0-2.0-1.28"	"gnv9tb"	"600"	"1366"	"chrome"	"109.0.0"	"FALSE"	"Windows 10"	"60.77"	"004"	n/a	n/a	n/a	n/a	n/a	n/a	"Trial"	n/a	n/a	n/a	"417"	"arrowleft"	n/a	"NULL"	"NULL"	"NULL"	"stimuli/Ebbinghaus_0.35714_0.15857.png"	n/a	"Ebbinghaus"	"arrowleft"	"1374"	"TRUE"	"Ebbinghaus"	"0.3571400000"	"0.1585700000"	"1"	"47"
n/a	"html-keyboard-response"	"111"	"353737"	"0.0-5.0-2.0-0.29"	"gnv9tb"	"600"	"1366"	"chrome"	"109.0.0"	"FALSE"	"Windows 10"	"60.77"	"004"	n/a	n/a	n/a	n/a	n/a	n/a	"fixation"	n/a	n/a	n/a	n/a	"NULL"	n/a	"NULL"	"NULL"	"NULL"	"<p style=\"color: black; font-size: 80px; padding-left: 13%; padding-right: 29%; padding-top: 1%; padding-bottom: 19%\">+</p>"	"1110"	n/a	n/a	n/a	n/a	n/a	n/a	n/a	n/a	n/a
n/a	"image-keyboard-response"	"112"	"354248"	"0.0-5.0-2.0-1.29"	"gnv9tb"	"600"	"1366"	"chrome"	"109.0.0"	"FALSE"	"Windows 10"	"60.77"	"004"	n/a	n/a	n/a	n/a	n/a	n/a	"Trial"	n/a	n/a	n/a	"509"	"arrowleft"	n/a	"NULL"	"NULL"	"NULL"	"stimuli/Ebbinghaus_-0.61429_-0.2150.png"	n/a	"Ebbinghaus"	"arrowright"	"1132"	"FALSE"	"Ebbinghaus"	"-0.614290000"	"-0.215000000"	"1"	"48"
n/a	"html-keyboard-response"	"113"	"355594"	"0.0-5.0-2.0-0.30"	"gnv9tb"	"600"	"1366"	"chrome"	"109.0.0"	"FALSE"	"Windows 10"	"60.77"	"004"	n/a	n/a	n/a	n/a	n/a	n/a	"fixation"	n/a	n/a	n/a	n/a	"NULL"	n/a	"NULL"	"NULL"	"NULL"	"<p style=\"color: black; font-size: 80px; padding-left: 2%; padding-right: 44%; padding-top: 23%; padding-bottom: 27%\">+</p>"	"1322"	n/a	n/a	n/a	n/a	n/a	n/a	n/a	n/a	n/a
n/a	"image-keyboard-response"	"114"	"355920"	"0.0-5.0-2.0-1.30"	"gnv9tb"	"600"	"1366"	"chrome"	"109.0.0"	"FALSE"	"Windows 10"	"60.77"	"004"	n/a	n/a	n/a	n/a	n/a	n/a	"Trial"	n/a	n/a	n/a	"326"	"arrowright"	n/a	"NULL"	"NULL"	"NULL"	"stimuli/Ebbinghaus_-0.1000_-0.2150.png"	n/a	"Ebbinghaus"	"arrowright"	"1346"	"TRUE"	"Ebbinghaus"	"-0.100000000"	"-0.215000000"	"1"	"49"
n/a	"html-keyboard-response"	"115"	"356968"	"0.0-5.0-2.0-0.31"	"gnv9tb"	"600"	"1366"	"chrome"	"109.0.0"	"FALSE"	"Windows 10"	"60.77"	"004"	n/a	n/a	n/a	n/a	n/a	n/a	"fixation"	n/a	n/a	n/a	n/a	"NULL"	n/a	"NULL"	"NULL"	"NULL"	"<p style=\"color: black; font-size: 80px; padding-left: 23%; padding-right: 46%; padding-top: 49%; padding-bottom: 23%\">+</p>"	"1041"	n/a	n/a	n/a	n/a	n/a	n/a	n/a	n/a	n/a
n/a	"image-keyboard-response"	"116"	"357429"	"0.0-5.0-2.0-1.31"	"gnv9tb"	"600"	"1366"	"chrome"	"109.0.0"	"FALSE"	"Windows 10"	"60.77"	"004"	n/a	n/a	n/a	n/a	n/a	n/a	"Trial"	n/a	n/a	n/a	"461"	"arrowleft"	n/a	"NULL"	"NULL"	"NULL"	"stimuli/Ebbinghaus_0.87143_0.21500.png"	n/a	"Ebbinghaus"	"arrowleft"	"1048"	"TRUE"	"Ebbinghaus"	"0.8714300000"	"0.2150000000"	"1"	"50"
n/a	"html-keyboard-response"	"117"	"358494"	"0.0-5.0-2.0-0.32"	"gnv9tb"	"600"	"1366"	"chrome"	"109.0.0"	"FALSE"	"Windows 10"	"60.77"	"004"	n/a	n/a	n/a	n/a	n/a	n/a	"fixation"	n/a	n/a	n/a	n/a	"NULL"	n/a	"NULL"	"NULL"	"NULL"	"<p style=\"color: black; font-size: 80px; padding-left: 14%; padding-right: 33%; padding-top: 1%; padding-bottom: 28%\">+</p>"	"1058"	n/a	n/a	n/a	n/a	n/a	n/a	n/a	n/a	n/a
n/a	"image-keyboard-response"	"118"	"358905"	"0.0-5.0-2.0-1.32"	"gnv9tb"	"600"	"1366"	"chrome"	"109.0.0"	"FALSE"	"Windows 10"	"60.77"	"004"	n/a	n/a	n/a	n/a	n/a	n/a	"Trial"	n/a	n/a	n/a	"411"	"arrowright"	n/a	"NULL"	"NULL"	"NULL"	"stimuli/Ebbinghaus_-0.35714_-0.15857.png"	n/a	"Ebbinghaus"	"arrowright"	"1065"	"TRUE"	"Ebbinghaus"	"-0.357140000"	"-0.158570000"	"1"	"51"
n/a	"html-keyboard-response"	"119"	"360219"	"0.0-5.0-2.0-0.33"	"gnv9tb"	"600"	"1366"	"chrome"	"109.0.0"	"FALSE"	"Windows 10"	"60.77"	"004"	n/a	n/a	n/a	n/a	n/a	n/a	"fixation"	n/a	n/a	n/a	n/a	"NULL"	n/a	"NULL"	"NULL"	"NULL"	"<p style=\"color: black; font-size: 80px; padding-left: 26%; padding-right: 16%; padding-top: 3%; padding-bottom: 10%\">+</p>"	"1306"	n/a	n/a	n/a	n/a	n/a	n/a	n/a	n/a	n/a
n/a	"image-keyboard-response"	"120"	"360594"	"0.0-5.0-2.0-1.33"	"gnv9tb"	"600"	"1366"	"chrome"	"109.0.0"	"FALSE"	"Windows 10"	"60.77"	"004"	n/a	n/a	n/a	n/a	n/a	n/a	"Trial"	n/a	n/a	n/a	"374"	"arrowleft"	n/a	"NULL"	"NULL"	"NULL"	"stimuli/Ebbinghaus_-0.1000_0.28000.png"	n/a	"Ebbinghaus"	"arrowleft"	"1314"	"TRUE"	"Ebbinghaus"	"-0.100000000"	"0.2800000000"	"1"	"52"
n/a	"html-keyboard-response"	"121"	"361875"	"0.0-5.0-2.0-0.34"	"gnv9tb"	"600"	"1366"	"chrome"	"109.0.0"	"FALSE"	"Windows 10"	"60.77"	"004"	n/a	n/a	n/a	n/a	n/a	n/a	"fixation"	n/a	n/a	n/a	n/a	"NULL"	n/a	"NULL"	"NULL"	"NULL"	"<p style=\"color: black; font-size: 80px; padding-left: 44%; padding-right: 32%; padding-top: 33%; padding-bottom: 6%\">+</p>"	"1272"	n/a	n/a	n/a	n/a	n/a	n/a	n/a	n/a	n/a
n/a	"image-keyboard-response"	"122"	"362267"	"0.0-5.0-2.0-1.34"	"gnv9tb"	"600"	"1366"	"chrome"	"109.0.0"	"FALSE"	"Windows 10"	"60.77"	"004"	n/a	n/a	n/a	n/a	n/a	n/a	"Trial"	n/a	n/a	n/a	"391"	"arrowright"	n/a	"NULL"	"NULL"	"NULL"	"stimuli/Ebbinghaus_0.87143_-0.11071.png"	n/a	"Ebbinghaus"	"arrowright"	"1281"	"TRUE"	"Ebbinghaus"	"0.8714300000"	"-0.110710000"	"1"	"53"
n/a	"html-keyboard-response"	"123"	"363662"	"0.0-5.0-2.0-0.35"	"gnv9tb"	"600"	"1366"	"chrome"	"109.0.0"	"FALSE"	"Windows 10"	"60.77"	"004"	n/a	n/a	n/a	n/a	n/a	n/a	"fixation"	n/a	n/a	n/a	n/a	"NULL"	n/a	"NULL"	"NULL"	"NULL"	"<p style=\"color: black; font-size: 80px; padding-left: 14%; padding-right: 19%; padding-top: 19%; padding-bottom: 36%\">+</p>"	"1382"	n/a	n/a	n/a	n/a	n/a	n/a	n/a	n/a	n/a
n/a	"image-keyboard-response"	"124"	"364089"	"0.0-5.0-2.0-1.35"	"gnv9tb"	"600"	"1366"	"chrome"	"109.0.0"	"FALSE"	"Windows 10"	"60.77"	"004"	n/a	n/a	n/a	n/a	n/a	n/a	"Trial"	n/a	n/a	n/a	"426"	"arrowright"	n/a	"NULL"	"NULL"	"NULL"	"stimuli/Ebbinghaus_-0.61429_-0.2800.png"	n/a	"Ebbinghaus"	"arrowright"	"1395"	"TRUE"	"Ebbinghaus"	"-0.614290000"	"-0.280000000"	"1"	"54"
n/a	"html-keyboard-response"	"125"	"365421"	"0.0-5.0-2.0-0.36"	"gnv9tb"	"600"	"1366"	"chrome"	"109.0.0"	"FALSE"	"Windows 10"	"60.77"	"004"	n/a	n/a	n/a	n/a	n/a	n/a	"fixation"	n/a	n/a	n/a	n/a	"NULL"	n/a	"NULL"	"NULL"	"NULL"	"<p style=\"color: black; font-size: 80px; padding-left: 0%; padding-right: 13%; padding-top: 10%; padding-bottom: 36%\">+</p>"	"1318"	n/a	n/a	n/a	n/a	n/a	n/a	n/a	n/a	n/a
n/a	"image-keyboard-response"	"126"	"365879"	"0.0-5.0-2.0-1.36"	"gnv9tb"	"600"	"1366"	"chrome"	"109.0.0"	"FALSE"	"Windows 10"	"60.77"	"004"	n/a	n/a	n/a	n/a	n/a	n/a	"Trial"	n/a	n/a	n/a	"456"	"arrowright"	n/a	"NULL"	"NULL"	"NULL"	"stimuli/Ebbinghaus_0.61429_-0.2150.png"	n/a	"Ebbinghaus"	"arrowright"	"1332"	"TRUE"	"Ebbinghaus"	"0.6142900000"	"-0.215000000"	"1"	"55"
n/a	"html-keyboard-response"	"127"	"367245"	"0.0-5.0-2.0-0.37"	"gnv9tb"	"600"	"1366"	"chrome"	"109.0.0"	"FALSE"	"Windows 10"	"60.77"	"004"	n/a	n/a	n/a	n/a	n/a	n/a	"fixation"	n/a	n/a	n/a	n/a	"NULL"	n/a	"NULL"	"NULL"	"NULL"	"<p style=\"color: black; font-size: 80px; padding-left: 1%; padding-right: 15%; padding-top: 11%; padding-bottom: 26%\">+</p>"	"1354"	n/a	n/a	n/a	n/a	n/a	n/a	n/a	n/a	n/a
n/a	"image-keyboard-response"	"128"	"367637"	"0.0-5.0-2.0-1.37"	"gnv9tb"	"600"	"1366"	"chrome"	"109.0.0"	"FALSE"	"Windows 10"	"60.77"	"004"	n/a	n/a	n/a	n/a	n/a	n/a	"Trial"	n/a	n/a	n/a	"391"	"arrowleft"	n/a	"NULL"	"NULL"	"NULL"	"stimuli/Ebbinghaus_0.10000_0.28000.png"	n/a	"Ebbinghaus"	"arrowleft"	"1366"	"TRUE"	"Ebbinghaus"	"0.1000000000"	"0.2800000000"	"1"	"56"
n/a	"html-keyboard-response"	"129"	"368953"	"0.0-5.0-2.0-0.38"	"gnv9tb"	"600"	"1366"	"chrome"	"109.0.0"	"FALSE"	"Windows 10"	"60.77"	"004"	n/a	n/a	n/a	n/a	n/a	n/a	"fixation"	n/a	n/a	n/a	n/a	"NULL"	n/a	"NULL"	"NULL"	"NULL"	"<p style=\"color: black; font-size: 80px; padding-left: 38%; padding-right: 30%; padding-top: 50%; padding-bottom: 42%\">+</p>"	"1303"	n/a	n/a	n/a	n/a	n/a	n/a	n/a	n/a	n/a
n/a	"image-keyboard-response"	"130"	"369299"	"0.0-5.0-2.0-1.38"	"gnv9tb"	"600"	"1366"	"chrome"	"109.0.0"	"FALSE"	"Windows 10"	"60.77"	"004"	n/a	n/a	n/a	n/a	n/a	n/a	"Trial"	n/a	n/a	n/a	"345"	"arrowright"	n/a	"NULL"	"NULL"	"NULL"	"stimuli/Ebbinghaus_-0.87143_-0.11071.png"	n/a	"Ebbinghaus"	"arrowright"	"1316"	"TRUE"	"Ebbinghaus"	"-0.871430000"	"-0.110710000"	"1"	"57"
n/a	"html-keyboard-response"	"131"	"370521"	"0.0-5.0-2.0-0.39"	"gnv9tb"	"600"	"1366"	"chrome"	"109.0.0"	"FALSE"	"Windows 10"	"60.77"	"004"	n/a	n/a	n/a	n/a	n/a	n/a	"fixation"	n/a	n/a	n/a	n/a	"NULL"	n/a	"NULL"	"NULL"	"NULL"	"<p style=\"color: black; font-size: 80px; padding-left: 49%; padding-right: 8%; padding-top: 27%; padding-bottom: 15%\">+</p>"	"1205"	n/a	n/a	n/a	n/a	n/a	n/a	n/a	n/a	n/a
n/a	"image-keyboard-response"	"132"	"371000"	"0.0-5.0-2.0-1.39"	"gnv9tb"	"600"	"1366"	"chrome"	"109.0.0"	"FALSE"	"Windows 10"	"60.77"	"004"	n/a	n/a	n/a	n/a	n/a	n/a	"Trial"	n/a	n/a	n/a	"478"	"arrowleft"	n/a	"NULL"	"NULL"	"NULL"	"stimuli/Ebbinghaus_0.87143_-0.15857.png"	n/a	"Ebbinghaus"	"arrowright"	"1222"	"FALSE"	"Ebbinghaus"	"0.8714300000"	"-0.158570000"	"1"	"58"
n/a	"html-keyboard-response"	"133"	"372231"	"0.0-5.0-2.0-0.40"	"gnv9tb"	"600"	"1366"	"chrome"	"109.0.0"	"FALSE"	"Windows 10"	"60.77"	"004"	n/a	n/a	n/a	n/a	n/a	n/a	"fixation"	n/a	n/a	n/a	n/a	"NULL"	n/a	"NULL"	"NULL"	"NULL"	"<p style=\"color: black; font-size: 80px; padding-left: 25%; padding-right: 7%; padding-top: 38%; padding-bottom: 0%\">+</p>"	"1217"	n/a	n/a	n/a	n/a	n/a	n/a	n/a	n/a	n/a
n/a	"image-keyboard-response"	"134"	"372530"	"0.0-5.0-2.0-1.40"	"gnv9tb"	"600"	"1366"	"chrome"	"109.0.0"	"FALSE"	"Windows 10"	"60.77"	"004"	n/a	n/a	n/a	n/a	n/a	n/a	"Trial"	n/a	n/a	n/a	"298"	"arrowright"	n/a	"NULL"	"NULL"	"NULL"	"stimuli/Ebbinghaus_0.35714_-0.15857.png"	n/a	"Ebbinghaus"	"arrowright"	"1231"	"TRUE"	"Ebbinghaus"	"0.3571400000"	"-0.158570000"	"1"	"59"
n/a	"html-keyboard-response"	"135"	"373541"	"0.0-5.0-2.0-0.41"	"gnv9tb"	"600"	"1366"	"chrome"	"109.0.0"	"FALSE"	"Windows 10"	"60.77"	"004"	n/a	n/a	n/a	n/a	n/a	n/a	"fixation"	n/a	n/a	n/a	n/a	"NULL"	n/a	"NULL"	"NULL"	"NULL"	"<p style=\"color: black; font-size: 80px; padding-left: 5%; padding-right: 35%; padding-top: 3%; padding-bottom: 31%\">+</p>"	"1002"	n/a	n/a	n/a	n/a	n/a	n/a	n/a	n/a	n/a
n/a	"image-keyboard-response"	"136"	"373938"	"0.0-5.0-2.0-1.41"	"gnv9tb"	"600"	"1366"	"chrome"	"109.0.0"	"FALSE"	"Windows 10"	"60.77"	"004"	n/a	n/a	n/a	n/a	n/a	n/a	"Trial"	n/a	n/a	n/a	"396"	"arrowleft"	n/a	"NULL"	"NULL"	"NULL"	"stimuli/Ebbinghaus_-0.35714_0.28000.png"	n/a	"Ebbinghaus"	"arrowleft"	"1011"	"TRUE"	"Ebbinghaus"	"-0.357140000"	"0.2800000000"	"1"	"60"
n/a	"html-keyboard-response"	"137"	"375156"	"0.0-5.0-2.0-0.42"	"gnv9tb"	"600"	"1366"	"chrome"	"109.0.0"	"FALSE"	"Windows 10"	"60.77"	"004"	n/a	n/a	n/a	n/a	n/a	n/a	"fixation"	n/a	n/a	n/a	n/a	"NULL"	n/a	"NULL"	"NULL"	"NULL"	"<p style=\"color: black; font-size: 80px; padding-left: 13%; padding-right: 43%; padding-top: 17%; padding-bottom: 47%\">+</p>"	"1202"	n/a	n/a	n/a	n/a	n/a	n/a	n/a	n/a	n/a
n/a	"image-keyboard-response"	"138"	"375515"	"0.0-5.0-2.0-1.42"	"gnv9tb"	"600"	"1366"	"chrome"	"109.0.0"	"FALSE"	"Windows 10"	"60.77"	"004"	n/a	n/a	n/a	n/a	n/a	n/a	"Trial"	n/a	n/a	n/a	"358"	"arrowright"	n/a	"NULL"	"NULL"	"NULL"	"stimuli/Ebbinghaus_0.10000_0.11071.png"	n/a	"Ebbinghaus"	"arrowleft"	"1218"	"FALSE"	"Ebbinghaus"	"0.1000000000"	"0.1107100000"	"1"	"61"
n/a	"html-keyboard-response"	"139"	"376971"	"0.0-5.0-2.0-0.43"	"gnv9tb"	"600"	"1366"	"chrome"	"109.0.0"	"FALSE"	"Windows 10"	"60.77"	"004"	n/a	n/a	n/a	n/a	n/a	n/a	"fixation"	n/a	n/a	n/a	n/a	"NULL"	n/a	"NULL"	"NULL"	"NULL"	"<p style=\"color: black; font-size: 80px; padding-left: 10%; padding-right: 18%; padding-top: 29%; padding-bottom: 40%\">+</p>"	"1434"	n/a	n/a	n/a	n/a	n/a	n/a	n/a	n/a	n/a
n/a	"image-keyboard-response"	"140"	"377325"	"0.0-5.0-2.0-1.43"	"gnv9tb"	"600"	"1366"	"chrome"	"109.0.0"	"FALSE"	"Windows 10"	"60.77"	"004"	n/a	n/a	n/a	n/a	n/a	n/a	"Trial"	n/a	n/a	n/a	"353"	"arrowleft"	n/a	"NULL"	"NULL"	"NULL"	"stimuli/Ebbinghaus_-0.87143_0.15857.png"	n/a	"Ebbinghaus"	"arrowleft"	"1456"	"TRUE"	"Ebbinghaus"	"-0.871430000"	"0.1585700000"	"1"	"62"
n/a	"html-keyboard-response"	"141"	"378624"	"0.0-5.0-2.0-0.44"	"gnv9tb"	"600"	"1366"	"chrome"	"109.0.0"	"FALSE"	"Windows 10"	"60.77"	"004"	n/a	n/a	n/a	n/a	n/a	n/a	"fixation"	n/a	n/a	n/a	n/a	"NULL"	n/a	"NULL"	"NULL"	"NULL"	"<p style=\"color: black; font-size: 80px; padding-left: 8%; padding-right: 4%; padding-top: 13%; padding-bottom: 39%\">+</p>"	"1277"	n/a	n/a	n/a	n/a	n/a	n/a	n/a	n/a	n/a
n/a	"image-keyboard-response"	"142"	"379056"	"0.0-5.0-2.0-1.44"	"gnv9tb"	"600"	"1366"	"chrome"	"109.0.0"	"FALSE"	"Windows 10"	"60.77"	"004"	n/a	n/a	n/a	n/a	n/a	n/a	"Trial"	n/a	n/a	n/a	"430"	"arrowright"	n/a	"NULL"	"NULL"	"NULL"	"stimuli/Ebbinghaus_0.35714_-0.2800.png"	n/a	"Ebbinghaus"	"arrowright"	"1299"	"TRUE"	"Ebbinghaus"	"0.3571400000"	"-0.280000000"	"1"	"63"
n/a	"html-keyboard-response"	"143"	"380192"	"0.0-5.0-2.0-0.45"	"gnv9tb"	"600"	"1366"	"chrome"	"109.0.0"	"FALSE"	"Windows 10"	"60.77"	"004"	n/a	n/a	n/a	n/a	n/a	n/a	"fixation"	n/a	n/a	n/a	n/a	"NULL"	n/a	"NULL"	"NULL"	"NULL"	"<p style=\"color: black; font-size: 80px; padding-left: 24%; padding-right: 23%; padding-top: 49%; padding-bottom: 0%\">+</p>"	"1122"	n/a	n/a	n/a	n/a	n/a	n/a	n/a	n/a	n/a
n/a	"image-keyboard-response"	"144"	"380533"	"0.0-5.0-2.0-1.45"	"gnv9tb"	"600"	"1366"	"chrome"	"109.0.0"	"FALSE"	"Windows 10"	"60.77"	"004"	n/a	n/a	n/a	n/a	n/a	n/a	"Trial"	n/a	n/a	n/a	"340"	"arrowleft"	n/a	"NULL"	"NULL"	"NULL"	"stimuli/Ebbinghaus_-0.35714_0.21500.png"	n/a	"Ebbinghaus"	"arrowleft"	"1136"	"TRUE"	"Ebbinghaus"	"-0.357140000"	"0.2150000000"	"1"	"64"
n/a	"html-keyboard-response"	"145"	"381696"	"0.0-5.0-2.0-0.46"	"gnv9tb"	"600"	"1366"	"chrome"	"109.0.0"	"FALSE"	"Windows 10"	"60.77"	"004"	n/a	n/a	n/a	n/a	n/a	n/a	"fixation"	n/a	n/a	n/a	n/a	"NULL"	n/a	"NULL"	"NULL"	"NULL"	"<p style=\"color: black; font-size: 80px; padding-left: 7%; padding-right: 45%; padding-top: 38%; padding-bottom: 9%\">+</p>"	"1156"	n/a	n/a	n/a	n/a	n/a	n/a	n/a	n/a	n/a
n/a	"image-keyboard-response"	"146"	"382072"	"0.0-5.0-2.0-1.46"	"gnv9tb"	"600"	"1366"	"chrome"	"109.0.0"	"FALSE"	"Windows 10"	"60.77"	"004"	n/a	n/a	n/a	n/a	n/a	n/a	"Trial"	n/a	n/a	n/a	"374"	"arrowright"	n/a	"NULL"	"NULL"	"NULL"	"stimuli/Ebbinghaus_0.35714_-0.2150.png"	n/a	"Ebbinghaus"	"arrowright"	"1163"	"TRUE"	"Ebbinghaus"	"0.3571400000"	"-0.215000000"	"1"	"65"
n/a	"html-keyboard-response"	"147"	"383358"	"0.0-5.0-2.0-0.47"	"gnv9tb"	"600"	"1366"	"chrome"	"109.0.0"	"FALSE"	"Windows 10"	"60.77"	"004"	n/a	n/a	n/a	n/a	n/a	n/a	"fixation"	n/a	n/a	n/a	n/a	"NULL"	n/a	"NULL"	"NULL"	"NULL"	"<p style=\"color: black; font-size: 80px; padding-left: 43%; padding-right: 17%; padding-top: 21%; padding-bottom: 26%\">+</p>"	"1267"	n/a	n/a	n/a	n/a	n/a	n/a	n/a	n/a	n/a
n/a	"image-keyboard-response"	"148"	"383691"	"0.0-5.0-2.0-1.47"	"gnv9tb"	"600"	"1366"	"chrome"	"109.0.0"	"FALSE"	"Windows 10"	"60.77"	"004"	n/a	n/a	n/a	n/a	n/a	n/a	"Trial"	n/a	n/a	n/a	"332"	"arrowleft"	n/a	"NULL"	"NULL"	"NULL"	"stimuli/Ebbinghaus_0.10000_-0.2800.png"	n/a	"Ebbinghaus"	"arrowright"	"1286"	"FALSE"	"Ebbinghaus"	"0.1000000000"	"-0.280000000"	"1"	"66"
n/a	"html-keyboard-response"	"149"	"385188"	"0.0-5.0-2.0-0.48"	"gnv9tb"	"600"	"1366"	"chrome"	"109.0.0"	"FALSE"	"Windows 10"	"60.77"	"004"	n/a	n/a	n/a	n/a	n/a	n/a	"fixation"	n/a	n/a	n/a	n/a	"NULL"	n/a	"NULL"	"NULL"	"NULL"	"<p style=\"color: black; font-size: 80px; padding-left: 39%; padding-right: 32%; padding-top: 46%; padding-bottom: 13%\">+</p>"	"1495"	n/a	n/a	n/a	n/a	n/a	n/a	n/a	n/a	n/a
n/a	"image-keyboard-response"	"150"	"385501"	"0.0-5.0-2.0-1.48"	"gnv9tb"	"600"	"1366"	"chrome"	"109.0.0"	"FALSE"	"Windows 10"	"60.77"	"004"	n/a	n/a	n/a	n/a	n/a	n/a	"Trial"	n/a	n/a	n/a	"312"	"arrowright"	n/a	"NULL"	"NULL"	"NULL"	"stimuli/Ebbinghaus_-0.61429_0.11071.png"	n/a	"Ebbinghaus"	"arrowleft"	"1497"	"FALSE"	"Ebbinghaus"	"-0.614290000"	"0.1107100000"	"1"	"67"
n/a	"html-keyboard-response"	"151"	"386619"	"0.0-5.0-2.0-0.49"	"gnv9tb"	"600"	"1366"	"chrome"	"109.0.0"	"FALSE"	"Windows 10"	"60.77"	"004"	n/a	n/a	n/a	n/a	n/a	n/a	"fixation"	n/a	n/a	n/a	n/a	"NULL"	n/a	"NULL"	"NULL"	"NULL"	"<p style=\"color: black; font-size: 80px; padding-left: 15%; padding-right: 6%; padding-top: 3%; padding-bottom: 19%\">+</p>"	"1106"	n/a	n/a	n/a	n/a	n/a	n/a	n/a	n/a	n/a
n/a	"image-keyboard-response"	"152"	"387043"	"0.0-5.0-2.0-1.49"	"gnv9tb"	"600"	"1366"	"chrome"	"109.0.0"	"FALSE"	"Windows 10"	"60.77"	"004"	n/a	n/a	n/a	n/a	n/a	n/a	"Trial"	n/a	n/a	n/a	"423"	"arrowleft"	n/a	"NULL"	"NULL"	"NULL"	"stimuli/Ebbinghaus_-0.35714_-0.11071.png"	n/a	"Ebbinghaus"	"arrowright"	"1118"	"FALSE"	"Ebbinghaus"	"-0.357140000"	"-0.110710000"	"1"	"68"
n/a	"html-keyboard-response"	"153"	"388501"	"0.0-5.0-2.0-0.50"	"gnv9tb"	"600"	"1366"	"chrome"	"109.0.0"	"FALSE"	"Windows 10"	"60.77"	"004"	n/a	n/a	n/a	n/a	n/a	n/a	"fixation"	n/a	n/a	n/a	n/a	"NULL"	n/a	"NULL"	"NULL"	"NULL"	"<p style=\"color: black; font-size: 80px; padding-left: 3%; padding-right: 1%; padding-top: 44%; padding-bottom: 16%\">+</p>"	"1441"	n/a	n/a	n/a	n/a	n/a	n/a	n/a	n/a	n/a
n/a	"image-keyboard-response"	"154"	"388871"	"0.0-5.0-2.0-1.50"	"gnv9tb"	"600"	"1366"	"chrome"	"109.0.0"	"FALSE"	"Windows 10"	"60.77"	"004"	n/a	n/a	n/a	n/a	n/a	n/a	"Trial"	n/a	n/a	n/a	"369"	"arrowright"	n/a	"NULL"	"NULL"	"NULL"	"stimuli/Ebbinghaus_-0.35714_0.11071.png"	n/a	"Ebbinghaus"	"arrowleft"	"1458"	"FALSE"	"Ebbinghaus"	"-0.357140000"	"0.1107100000"	"1"	"69"
n/a	"html-keyboard-response"	"155"	"390321"	"0.0-5.0-2.0-0.51"	"gnv9tb"	"600"	"1366"	"chrome"	"109.0.0"	"FALSE"	"Windows 10"	"60.77"	"004"	n/a	n/a	n/a	n/a	n/a	n/a	"fixation"	n/a	n/a	n/a	n/a	"NULL"	n/a	"NULL"	"NULL"	"NULL"	"<p style=\"color: black; font-size: 80px; padding-left: 47%; padding-right: 16%; padding-top: 8%; padding-bottom: 4%\">+</p>"	"1440"	n/a	n/a	n/a	n/a	n/a	n/a	n/a	n/a	n/a
n/a	"image-keyboard-response"	"156"	"390648"	"0.0-5.0-2.0-1.51"	"gnv9tb"	"600"	"1366"	"chrome"	"109.0.0"	"FALSE"	"Windows 10"	"60.77"	"004"	n/a	n/a	n/a	n/a	n/a	n/a	"Trial"	n/a	n/a	n/a	"325"	"arrowleft"	n/a	"NULL"	"NULL"	"NULL"	"stimuli/Ebbinghaus_-0.35714_0.15857.png"	n/a	"Ebbinghaus"	"arrowleft"	"1450"	"TRUE"	"Ebbinghaus"	"-0.357140000"	"0.1585700000"	"1"	"70"
n/a	"html-keyboard-response"	"157"	"392080"	"0.0-5.0-2.0-0.52"	"gnv9tb"	"600"	"1366"	"chrome"	"109.0.0"	"FALSE"	"Windows 10"	"60.77"	"004"	n/a	n/a	n/a	n/a	n/a	n/a	"fixation"	n/a	n/a	n/a	n/a	"NULL"	n/a	"NULL"	"NULL"	"NULL"	"<p style=\"color: black; font-size: 80px; padding-left: 18%; padding-right: 18%; padding-top: 2%; padding-bottom: 45%\">+</p>"	"1425"	n/a	n/a	n/a	n/a	n/a	n/a	n/a	n/a	n/a
n/a	"image-keyboard-response"	"158"	"392470"	"0.0-5.0-2.0-1.52"	"gnv9tb"	"600"	"1366"	"chrome"	"109.0.0"	"FALSE"	"Windows 10"	"60.77"	"004"	n/a	n/a	n/a	n/a	n/a	n/a	"Trial"	n/a	n/a	n/a	"388"	"arrowright"	n/a	"NULL"	"NULL"	"NULL"	"stimuli/Ebbinghaus_0.10000_-0.2150.png"	n/a	"Ebbinghaus"	"arrowright"	"1432"	"TRUE"	"Ebbinghaus"	"0.1000000000"	"-0.215000000"	"1"	"71"
n/a	"html-keyboard-response"	"159"	"393593"	"0.0-5.0-2.0-0.53"	"gnv9tb"	"600"	"1366"	"chrome"	"109.0.0"	"FALSE"	"Windows 10"	"60.77"	"004"	n/a	n/a	n/a	n/a	n/a	n/a	"fixation"	n/a	n/a	n/a	n/a	"NULL"	n/a	"NULL"	"NULL"	"NULL"	"<p style=\"color: black; font-size: 80px; padding-left: 2%; padding-right: 16%; padding-top: 34%; padding-bottom: 38%\">+</p>"	"1102"	n/a	n/a	n/a	n/a	n/a	n/a	n/a	n/a	n/a
n/a	"image-keyboard-response"	"160"	"394097"	"0.0-5.0-2.0-1.53"	"gnv9tb"	"600"	"1366"	"chrome"	"109.0.0"	"FALSE"	"Windows 10"	"60.77"	"004"	n/a	n/a	n/a	n/a	n/a	n/a	"Trial"	n/a	n/a	n/a	"503"	"arrowleft"	n/a	"NULL"	"NULL"	"NULL"	"stimuli/Ebbinghaus_-0.87143_-0.2150.png"	n/a	"Ebbinghaus"	"arrowright"	"1123"	"FALSE"	"Ebbinghaus"	"-0.871430000"	"-0.215000000"	"1"	"72"
n/a	"html-keyboard-response"	"161"	"395455"	"0.0-5.0-2.0-0.54"	"gnv9tb"	"600"	"1366"	"chrome"	"109.0.0"	"FALSE"	"Windows 10"	"60.77"	"004"	n/a	n/a	n/a	n/a	n/a	n/a	"fixation"	n/a	n/a	n/a	n/a	"NULL"	n/a	"NULL"	"NULL"	"NULL"	"<p style=\"color: black; font-size: 80px; padding-left: 12%; padding-right: 33%; padding-top: 15%; padding-bottom: 5%\">+</p>"	"1347"	n/a	n/a	n/a	n/a	n/a	n/a	n/a	n/a	n/a
n/a	"image-keyboard-response"	"162"	"395872"	"0.0-5.0-2.0-1.54"	"gnv9tb"	"600"	"1366"	"chrome"	"109.0.0"	"FALSE"	"Windows 10"	"60.77"	"004"	n/a	n/a	n/a	n/a	n/a	n/a	"Trial"	n/a	n/a	n/a	"416"	"arrowright"	n/a	"NULL"	"NULL"	"NULL"	"stimuli/Ebbinghaus_-0.87143_0.11071.png"	n/a	"Ebbinghaus"	"arrowleft"	"1358"	"FALSE"	"Ebbinghaus"	"-0.871430000"	"0.1107100000"	"1"	"73"
n/a	"html-keyboard-response"	"163"	"397350"	"0.0-5.0-2.0-0.55"	"gnv9tb"	"600"	"1366"	"chrome"	"109.0.0"	"FALSE"	"Windows 10"	"60.77"	"004"	n/a	n/a	n/a	n/a	n/a	n/a	"fixation"	n/a	n/a	n/a	n/a	"NULL"	n/a	"NULL"	"NULL"	"NULL"	"<p style=\"color: black; font-size: 80px; padding-left: 50%; padding-right: 13%; padding-top: 47%; padding-bottom: 8%\">+</p>"	"1463"	n/a	n/a	n/a	n/a	n/a	n/a	n/a	n/a	n/a
n/a	"image-keyboard-response"	"164"	"397653"	"0.0-5.0-2.0-1.55"	"gnv9tb"	"600"	"1366"	"chrome"	"109.0.0"	"FALSE"	"Windows 10"	"60.77"	"004"	n/a	n/a	n/a	n/a	n/a	n/a	"Trial"	n/a	n/a	n/a	"302"	"arrowleft"	n/a	"NULL"	"NULL"	"NULL"	"stimuli/Ebbinghaus_0.61429_-0.11071.png"	n/a	"Ebbinghaus"	"arrowright"	"1478"	"FALSE"	"Ebbinghaus"	"0.6142900000"	"-0.110710000"	"1"	"74"
n/a	"html-keyboard-response"	"165"	"399063"	"0.0-5.0-2.0-0.56"	"gnv9tb"	"600"	"1366"	"chrome"	"109.0.0"	"FALSE"	"Windows 10"	"60.77"	"004"	n/a	n/a	n/a	n/a	n/a	n/a	"fixation"	n/a	n/a	n/a	n/a	"NULL"	n/a	"NULL"	"NULL"	"NULL"	"<p style=\"color: black; font-size: 80px; padding-left: 15%; padding-right: 34%; padding-top: 22%; padding-bottom: 11%\">+</p>"	"1398"	n/a	n/a	n/a	n/a	n/a	n/a	n/a	n/a	n/a
n/a	"image-keyboard-response"	"166"	"399405"	"0.0-5.0-2.0-1.56"	"gnv9tb"	"600"	"1366"	"chrome"	"109.0.0"	"FALSE"	"Windows 10"	"60.77"	"004"	n/a	n/a	n/a	n/a	n/a	n/a	"Trial"	n/a	n/a	n/a	"341"	"arrowright"	n/a	"NULL"	"NULL"	"NULL"	"stimuli/Ebbinghaus_-0.87143_0.28000.png"	n/a	"Ebbinghaus"	"arrowleft"	"1410"	"FALSE"	"Ebbinghaus"	"-0.871430000"	"0.2800000000"	"1"	"75"
n/a	"html-keyboard-response"	"167"	"400598"	"0.0-5.0-2.0-0.57"	"gnv9tb"	"600"	"1366"	"chrome"	"109.0.0"	"FALSE"	"Windows 10"	"60.77"	"004"	n/a	n/a	n/a	n/a	n/a	n/a	"fixation"	n/a	n/a	n/a	n/a	"NULL"	n/a	"NULL"	"NULL"	"NULL"	"<p style=\"color: black; font-size: 80px; padding-left: 34%; padding-right: 11%; padding-top: 26%; padding-bottom: 22%\">+</p>"	"1185"	n/a	n/a	n/a	n/a	n/a	n/a	n/a	n/a	n/a
n/a	"image-keyboard-response"	"168"	"401025"	"0.0-5.0-2.0-1.57"	"gnv9tb"	"600"	"1366"	"chrome"	"109.0.0"	"FALSE"	"Windows 10"	"60.77"	"004"	n/a	n/a	n/a	n/a	n/a	n/a	"Trial"	n/a	n/a	n/a	"426"	"arrowleft"	n/a	"NULL"	"NULL"	"NULL"	"stimuli/Ebbinghaus_-0.1000_0.21500.png"	n/a	"Ebbinghaus"	"arrowleft"	"1193"	"TRUE"	"Ebbinghaus"	"-0.100000000"	"0.2150000000"	"1"	"76"
n/a	"html-keyboard-response"	"169"	"402418"	"0.0-5.0-2.0-0.58"	"gnv9tb"	"600"	"1366"	"chrome"	"109.0.0"	"FALSE"	"Windows 10"	"60.77"	"004"	n/a	n/a	n/a	n/a	n/a	n/a	"fixation"	n/a	n/a	n/a	n/a	"NULL"	n/a	"NULL"	"NULL"	"NULL"	"<p style=\"color: black; font-size: 80px; padding-left: 3%; padding-right: 42%; padding-top: 42%; padding-bottom: 23%\">+</p>"	"1383"	n/a	n/a	n/a	n/a	n/a	n/a	n/a	n/a	n/a
n/a	"image-keyboard-response"	"170"	"402766"	"0.0-5.0-2.0-1.58"	"gnv9tb"	"600"	"1366"	"chrome"	"109.0.0"	"FALSE"	"Windows 10"	"60.77"	"004"	n/a	n/a	n/a	n/a	n/a	n/a	"Trial"	n/a	n/a	n/a	"348"	"arrowright"	n/a	"NULL"	"NULL"	"NULL"	"stimuli/Ebbinghaus_-0.61429_0.21500.png"	n/a	"Ebbinghaus"	"arrowleft"	"1393"	"FALSE"	"Ebbinghaus"	"-0.614290000"	"0.2150000000"	"1"	"77"
n/a	"html-keyboard-response"	"171"	"404046"	"0.0-5.0-2.0-0.59"	"gnv9tb"	"600"	"1366"	"chrome"	"109.0.0"	"FALSE"	"Windows 10"	"60.77"	"004"	n/a	n/a	n/a	n/a	n/a	n/a	"fixation"	n/a	n/a	n/a	n/a	"NULL"	n/a	"NULL"	"NULL"	"NULL"	"<p style=\"color: black; font-size: 80px; padding-left: 41%; padding-right: 44%; padding-top: 16%; padding-bottom: 33%\">+</p>"	"1263"	n/a	n/a	n/a	n/a	n/a	n/a	n/a	n/a	n/a
n/a	"image-keyboard-response"	"172"	"404583"	"0.0-5.0-2.0-1.59"	"gnv9tb"	"600"	"1366"	"chrome"	"109.0.0"	"FALSE"	"Windows 10"	"60.77"	"004"	n/a	n/a	n/a	n/a	n/a	n/a	"Trial"	n/a	n/a	n/a	"537"	"arrowleft"	n/a	"NULL"	"NULL"	"NULL"	"stimuli/Ebbinghaus_-0.87143_0.21500.png"	n/a	"Ebbinghaus"	"arrowleft"	"1280"	"TRUE"	"Ebbinghaus"	"-0.871430000"	"0.2150000000"	"1"	"78"
n/a	"html-keyboard-response"	"173"	"405657"	"0.0-5.0-2.0-0.60"	"gnv9tb"	"600"	"1366"	"chrome"	"109.0.0"	"FALSE"	"Windows 10"	"60.77"	"004"	n/a	n/a	n/a	n/a	n/a	n/a	"fixation"	n/a	n/a	n/a	n/a	"NULL"	n/a	"NULL"	"NULL"	"NULL"	"<p style=\"color: black; font-size: 80px; padding-left: 27%; padding-right: 46%; padding-top: 37%; padding-bottom: 5%\">+</p>"	"1062"	n/a	n/a	n/a	n/a	n/a	n/a	n/a	n/a	n/a
n/a	"image-keyboard-response"	"174"	"406234"	"0.0-5.0-2.0-1.60"	"gnv9tb"	"600"	"1366"	"chrome"	"109.0.0"	"FALSE"	"Windows 10"	"60.77"	"004"	n/a	n/a	n/a	n/a	n/a	n/a	"Trial"	n/a	n/a	n/a	"576"	"arrowright"	n/a	"NULL"	"NULL"	"NULL"	"stimuli/Ebbinghaus_-0.1000_-0.2800.png"	n/a	"Ebbinghaus"	"arrowright"	"1074"	"TRUE"	"Ebbinghaus"	"-0.100000000"	"-0.280000000"	"1"	"79"
n/a	"html-keyboard-response"	"175"	"407531"	"0.0-5.0-2.0-0.61"	"gnv9tb"	"600"	"1366"	"chrome"	"109.0.0"	"FALSE"	"Windows 10"	"60.77"	"004"	n/a	n/a	n/a	n/a	n/a	n/a	"fixation"	n/a	n/a	n/a	n/a	"NULL"	n/a	"NULL"	"NULL"	"NULL"	"<p style=\"color: black; font-size: 80px; padding-left: 20%; padding-right: 23%; padding-top: 44%; padding-bottom: 29%\">+</p>"	"1290"	n/a	n/a	n/a	n/a	n/a	n/a	n/a	n/a	n/a
n/a	"image-keyboard-response"	"176"	"408062"	"0.0-5.0-2.0-1.61"	"gnv9tb"	"600"	"1366"	"chrome"	"109.0.0"	"FALSE"	"Windows 10"	"60.77"	"004"	n/a	n/a	n/a	n/a	n/a	n/a	"Trial"	n/a	n/a	n/a	"530"	"arrowleft"	n/a	"NULL"	"NULL"	"NULL"	"stimuli/Ebbinghaus_0.35714_0.11071.png"	n/a	"Ebbinghaus"	"arrowleft"	"1297"	"TRUE"	"Ebbinghaus"	"0.3571400000"	"0.1107100000"	"1"	"80"
n/a	"html-keyboard-response"	"177"	"409157"	"0.0-5.0-2.0-0.62"	"gnv9tb"	"600"	"1366"	"chrome"	"109.0.0"	"FALSE"	"Windows 10"	"60.77"	"004"	n/a	n/a	n/a	n/a	n/a	n/a	"fixation"	n/a	n/a	n/a	n/a	"NULL"	n/a	"NULL"	"NULL"	"NULL"	"<p style=\"color: black; font-size: 80px; padding-left: 1%; padding-right: 13%; padding-top: 40%; padding-bottom: 41%\">+</p>"	"1084"	n/a	n/a	n/a	n/a	n/a	n/a	n/a	n/a	n/a
n/a	"image-keyboard-response"	"178"	"409709"	"0.0-5.0-2.0-1.62"	"gnv9tb"	"600"	"1366"	"chrome"	"109.0.0"	"FALSE"	"Windows 10"	"60.77"	"004"	n/a	n/a	n/a	n/a	n/a	n/a	"Trial"	n/a	n/a	n/a	"551"	"arrowleft"	n/a	"NULL"	"NULL"	"NULL"	"stimuli/Ebbinghaus_0.35714_0.28000.png"	n/a	"Ebbinghaus"	"arrowleft"	"1095"	"TRUE"	"Ebbinghaus"	"0.3571400000"	"0.2800000000"	"1"	"81"
n/a	"html-keyboard-response"	"179"	"411126"	"0.0-5.0-2.0-0.63"	"gnv9tb"	"600"	"1366"	"chrome"	"109.0.0"	"FALSE"	"Windows 10"	"60.77"	"004"	n/a	n/a	n/a	n/a	n/a	n/a	"fixation"	n/a	n/a	n/a	n/a	"NULL"	n/a	"NULL"	"NULL"	"NULL"	"<p style=\"color: black; font-size: 80px; padding-left: 21%; padding-right: 45%; padding-top: 42%; padding-bottom: 11%\">+</p>"	"1399"	n/a	n/a	n/a	n/a	n/a	n/a	n/a	n/a	n/a
n/a	"image-keyboard-response"	"180"	"411694"	"0.0-5.0-2.0-1.63"	"gnv9tb"	"600"	"1366"	"chrome"	"109.0.0"	"FALSE"	"Windows 10"	"60.77"	"004"	n/a	n/a	n/a	n/a	n/a	n/a	"Trial"	n/a	n/a	n/a	"567"	"arrowleft"	n/a	"NULL"	"NULL"	"NULL"	"stimuli/Ebbinghaus_0.61429_0.15857.png"	n/a	"Ebbinghaus"	"arrowleft"	"1417"	"TRUE"	"Ebbinghaus"	"0.6142900000"	"0.1585700000"	"1"	"82"
n/a	"html-button-response"	"181"	"425614"	"0.0-5.0-3.0"	"gnv9tb"	"600"	"1366"	"chrome"	"109.0.0"	"FALSE"	"Windows 10"	"60.77"	"004"	n/a	n/a	n/a	n/a	n/a	n/a	"block_results"	n/a	n/a	n/a	"13915"	"0"	n/a	"NULL"	"NULL"	"NULL"	"<p>Your score for this illusion is <p style=\"color: black; font-size: 48px; font-weight: bold;\">79 %</p><hr><p>Can you do better in the next illusion?</p>"	n/a	n/a	n/a	n/a	n/a	n/a	n/a	n/a	n/a	n/a
"TRUE"	"preload"	"182"	"425768"	"0.0-6.0-0.0"	"gnv9tb"	"600"	"1366"	"chrome"	"109.0.0"	"FALSE"	"Windows 10"	"60.77"	"004"	n/a	n/a	n/a	n/a	n/a	n/a	n/a	n/a	n/a	n/a	n/a	"NULL"	"FALSE"	"list()"	"list()"	"list()"	n/a	n/a	n/a	n/a	n/a	n/a	n/a	n/a	n/a	n/a	n/a
n/a	"html-keyboard-response"	"183"	"429715"	"0.0-6.0-1.0"	"gnv9tb"	"600"	"1366"	"chrome"	"109.0.0"	"FALSE"	"Windows 10"	"60.77"	"004"	n/a	n/a	n/a	n/a	n/a	n/a	n/a	n/a	n/a	n/a	"3946"	"enter"	n/a	"NULL"	"NULL"	"NULL"	"<p><b>Part 2/6</b></p><p>In this part, two horizontal red lines will appear one above the other.</p><p>Your task is to select which <b>line is longer</b> in length as fast as you can, without making errors.</p><p>Don't get distracted by the surrounding black arrows at the end of the red lines!</p><p>Press <b>the UP or the DOWN arrow</b> to indicate where is the longer <b>red line.</b></p><div style='float: center'><img src='materials/instructions/MullerLyer_Demo.png' height='300'></img><p><img src='utils/answer/answer_updown_keyboard.PNG' height='150'></img></p><p class='small'>In this example, the correct answer is the <b>UP arrow</b>.</p></div><p>Are you ready? <b>Press ENTER to start</b></p>"	n/a	n/a	n/a	n/a	n/a	n/a	n/a	n/a	n/a	n/a
n/a	"html-keyboard-response"	"184"	"431384"	"0.0-6.0-2.0-0.0"	"gnv9tb"	"600"	"1366"	"chrome"	"109.0.0"	"FALSE"	"Windows 10"	"60.77"	"004"	n/a	n/a	n/a	n/a	n/a	n/a	"fixation"	n/a	n/a	n/a	n/a	"NULL"	n/a	"NULL"	"NULL"	"NULL"	"<p style=\"color: black; font-size: 80px; padding-left: 19%; padding-right: 4%; padding-top: 18%; padding-bottom: 38%\">+</p>"	"1139"	n/a	n/a	n/a	n/a	n/a	n/a	n/a	n/a	n/a
n/a	"image-keyboard-response"	"185"	"432046"	"0.0-6.0-2.0-1.0"	"gnv9tb"	"600"	"1366"	"chrome"	"109.0.0"	"FALSE"	"Windows 10"	"60.77"	"004"	n/a	n/a	n/a	n/a	n/a	n/a	"Trial"	n/a	n/a	n/a	"661"	"arrowup"	n/a	"NULL"	"NULL"	"NULL"	"stimuli/MullerLyer_-14.12857_0.07627.png"	n/a	"MullerLyer"	"arrowup"	"1669"	"TRUE"	"MullerLyer"	"-14.12857000"	"0.0762700000"	"2"	"1"
n/a	"html-keyboard-response"	"186"	"433554"	"0.0-6.0-2.0-0.1"	"gnv9tb"	"600"	"1366"	"chrome"	"109.0.0"	"FALSE"	"Windows 10"	"60.77"	"004"	n/a	n/a	n/a	n/a	n/a	n/a	"fixation"	n/a	n/a	n/a	n/a	"NULL"	n/a	"NULL"	"NULL"	"NULL"	"<p style=\"color: black; font-size: 80px; padding-left: 19%; padding-right: 28%; padding-top: 43%; padding-bottom: 17%\">+</p>"	"1486"	n/a	n/a	n/a	n/a	n/a	n/a	n/a	n/a	n/a
n/a	"image-keyboard-response"	"187"	"434062"	"0.0-6.0-2.0-1.1"	"gnv9tb"	"600"	"1366"	"chrome"	"109.0.0"	"FALSE"	"Windows 10"	"60.77"	"004"	n/a	n/a	n/a	n/a	n/a	n/a	"Trial"	n/a	n/a	n/a	"507"	"arrowup"	n/a	"NULL"	"NULL"	"NULL"	"stimuli/MullerLyer_-14.12857_0.35000.png"	n/a	"MullerLyer"	"arrowup"	"1508"	"TRUE"	"MullerLyer"	"-14.12857000"	"0.3500000000"	"2"	"2"
n/a	"html-keyboard-response"	"188"	"435285"	"0.0-6.0-2.0-0.2"	"gnv9tb"	"600"	"1366"	"chrome"	"109.0.0"	"FALSE"	"Windows 10"	"60.77"	"004"	n/a	n/a	n/a	n/a	n/a	n/a	"fixation"	n/a	n/a	n/a	n/a	"NULL"	n/a	"NULL"	"NULL"	"NULL"	"<p style=\"color: black; font-size: 80px; padding-left: 0%; padding-right: 34%; padding-top: 2%; padding-bottom: 1%\">+</p>"	"1219"	n/a	n/a	n/a	n/a	n/a	n/a	n/a	n/a	n/a
n/a	"image-keyboard-response"	"189"	"435903"	"0.0-6.0-2.0-1.2"	"gnv9tb"	"600"	"1366"	"chrome"	"109.0.0"	"FALSE"	"Windows 10"	"60.77"	"004"	n/a	n/a	n/a	n/a	n/a	n/a	"Trial"	n/a	n/a	n/a	"617"	"arrowup"	n/a	"NULL"	"NULL"	"NULL"	"stimuli/MullerLyer_20.04286_-0.3500.png"	n/a	"MullerLyer"	"arrowdown"	"1223"	"FALSE"	"MullerLyer"	"20.042860000"	"-0.350000000"	"2"	"3"
n/a	"html-keyboard-response"	"190"	"437014"	"0.0-6.0-2.0-0.3"	"gnv9tb"	"600"	"1366"	"chrome"	"109.0.0"	"FALSE"	"Windows 10"	"60.77"	"004"	n/a	n/a	n/a	n/a	n/a	n/a	"fixation"	n/a	n/a	n/a	n/a	"NULL"	n/a	"NULL"	"NULL"	"NULL"	"<p style=\"color: black; font-size: 80px; padding-left: 47%; padding-right: 18%; padding-top: 29%; padding-bottom: 15%\">+</p>"	"1106"	n/a	n/a	n/a	n/a	n/a	n/a	n/a	n/a	n/a
n/a	"image-keyboard-response"	"191"	"437647"	"0.0-6.0-2.0-1.3"	"gnv9tb"	"600"	"1366"	"chrome"	"109.0.0"	"FALSE"	"Windows 10"	"60.77"	"004"	n/a	n/a	n/a	n/a	n/a	n/a	"Trial"	n/a	n/a	n/a	"632"	"arrowup"	n/a	"NULL"	"NULL"	"NULL"	"stimuli/MullerLyer_2.30000_-0.07627.png"	n/a	"MullerLyer"	"arrowdown"	"1111"	"FALSE"	"MullerLyer"	"2.3000000000"	"-0.076270000"	"2"	"4"
n/a	"html-keyboard-response"	"192"	"438671"	"0.0-6.0-2.0-0.4"	"gnv9tb"	"600"	"1366"	"chrome"	"109.0.0"	"FALSE"	"Windows 10"	"60.77"	"004"	n/a	n/a	n/a	n/a	n/a	n/a	"fixation"	n/a	n/a	n/a	n/a	"NULL"	n/a	"NULL"	"NULL"	"NULL"	"<p style=\"color: black; font-size: 80px; padding-left: 48%; padding-right: 8%; padding-top: 3%; padding-bottom: 17%\">+</p>"	"1012"	n/a	n/a	n/a	n/a	n/a	n/a	n/a	n/a	n/a
n/a	"image-keyboard-response"	"193"	"439185"	"0.0-6.0-2.0-1.4"	"gnv9tb"	"600"	"1366"	"chrome"	"109.0.0"	"FALSE"	"Windows 10"	"60.77"	"004"	n/a	n/a	n/a	n/a	n/a	n/a	"Trial"	n/a	n/a	n/a	"512"	"arrowup"	n/a	"NULL"	"NULL"	"NULL"	"stimuli/MullerLyer_8.21429_0.23665.png"	n/a	"MullerLyer"	"arrowup"	"1024"	"TRUE"	"MullerLyer"	"8.2142900000"	"0.2366500000"	"2"	"5"
n/a	"html-keyboard-response"	"194"	"440668"	"0.0-6.0-2.0-0.5"	"gnv9tb"	"600"	"1366"	"chrome"	"109.0.0"	"FALSE"	"Windows 10"	"60.77"	"004"	n/a	n/a	n/a	n/a	n/a	n/a	"fixation"	n/a	n/a	n/a	n/a	"NULL"	n/a	"NULL"	"NULL"	"NULL"	"<p style=\"color: black; font-size: 80px; padding-left: 45%; padding-right: 29%; padding-top: 29%; padding-bottom: 15%\">+</p>"	"1477"	n/a	n/a	n/a	n/a	n/a	n/a	n/a	n/a	n/a
n/a	"image-keyboard-response"	"195"	"441187"	"0.0-6.0-2.0-1.5"	"gnv9tb"	"600"	"1366"	"chrome"	"109.0.0"	"FALSE"	"Windows 10"	"60.77"	"004"	n/a	n/a	n/a	n/a	n/a	n/a	"Trial"	n/a	n/a	n/a	"518"	"arrowup"	n/a	"NULL"	"NULL"	"NULL"	"stimuli/MullerLyer_2.30000_-0.3500.png"	n/a	"MullerLyer"	"arrowdown"	"1483"	"FALSE"	"MullerLyer"	"2.3000000000"	"-0.350000000"	"2"	"6"
n/a	"html-keyboard-response"	"196"	"442655"	"0.0-6.0-2.0-0.6"	"gnv9tb"	"600"	"1366"	"chrome"	"109.0.0"	"FALSE"	"Windows 10"	"60.77"	"004"	n/a	n/a	n/a	n/a	n/a	n/a	"fixation"	n/a	n/a	n/a	n/a	"NULL"	n/a	"NULL"	"NULL"	"NULL"	"<p style=\"color: black; font-size: 80px; padding-left: 41%; padding-right: 17%; padding-top: 22%; padding-bottom: 34%\">+</p>"	"1451"	n/a	n/a	n/a	n/a	n/a	n/a	n/a	n/a	n/a
n/a	"image-keyboard-response"	"197"	"443258"	"0.0-6.0-2.0-1.6"	"gnv9tb"	"600"	"1366"	"chrome"	"109.0.0"	"FALSE"	"Windows 10"	"60.77"	"004"	n/a	n/a	n/a	n/a	n/a	n/a	"Trial"	n/a	n/a	n/a	"602"	"arrowup"	n/a	"NULL"	"NULL"	"NULL"	"stimuli/MullerLyer_8.21429_0.35000.png"	n/a	"MullerLyer"	"arrowup"	"1468"	"TRUE"	"MullerLyer"	"8.2142900000"	"0.3500000000"	"2"	"7"
n/a	"html-keyboard-response"	"198"	"444352"	"0.0-6.0-2.0-0.7"	"gnv9tb"	"600"	"1366"	"chrome"	"109.0.0"	"FALSE"	"Windows 10"	"60.77"	"004"	n/a	n/a	n/a	n/a	n/a	n/a	"fixation"	n/a	n/a	n/a	n/a	"NULL"	n/a	"NULL"	"NULL"	"NULL"	"<p style=\"color: black; font-size: 80px; padding-left: 34%; padding-right: 0%; padding-top: 8%; padding-bottom: 1%\">+</p>"	"1084"	n/a	n/a	n/a	n/a	n/a	n/a	n/a	n/a	n/a
n/a	"image-keyboard-response"	"199"	"444956"	"0.0-6.0-2.0-1.7"	"gnv9tb"	"600"	"1366"	"chrome"	"109.0.0"	"FALSE"	"Windows 10"	"60.77"	"004"	n/a	n/a	n/a	n/a	n/a	n/a	"Trial"	n/a	n/a	n/a	"602"	"arrowup"	n/a	"NULL"	"NULL"	"NULL"	"stimuli/MullerLyer_20.04286_-0.23665.png"	n/a	"MullerLyer"	"arrowdown"	"1094"	"FALSE"	"MullerLyer"	"20.042860000"	"-0.236650000"	"2"	"8"
n/a	"html-keyboard-response"	"200"	"446381"	"0.0-6.0-2.0-0.8"	"gnv9tb"	"600"	"1366"	"chrome"	"109.0.0"	"FALSE"	"Windows 10"	"60.77"	"004"	n/a	n/a	n/a	n/a	n/a	n/a	"fixation"	n/a	n/a	n/a	n/a	"NULL"	n/a	"NULL"	"NULL"	"NULL"	"<p style=\"color: black; font-size: 80px; padding-left: 13%; padding-right: 16%; padding-top: 9%; padding-bottom: 28%\">+</p>"	"1418"	n/a	n/a	n/a	n/a	n/a	n/a	n/a	n/a	n/a
n/a	"image-keyboard-response"	"201"	"447119"	"0.0-6.0-2.0-1.8"	"gnv9tb"	"600"	"1366"	"chrome"	"109.0.0"	"FALSE"	"Windows 10"	"60.77"	"004"	n/a	n/a	n/a	n/a	n/a	n/a	"Trial"	n/a	n/a	n/a	"737"	"arrowup"	n/a	"NULL"	"NULL"	"NULL"	"stimuli/MullerLyer_8.21429_-0.14541.png"	n/a	"MullerLyer"	"arrowdown"	"1425"	"FALSE"	"MullerLyer"	"8.2142900000"	"-0.145410000"	"2"	"9"
n/a	"html-keyboard-response"	"202"	"448155"	"0.0-6.0-2.0-0.9"	"gnv9tb"	"600"	"1366"	"chrome"	"109.0.0"	"FALSE"	"Windows 10"	"60.77"	"004"	n/a	n/a	n/a	n/a	n/a	n/a	"fixation"	n/a	n/a	n/a	n/a	"NULL"	n/a	"NULL"	"NULL"	"NULL"	"<p style=\"color: black; font-size: 80px; padding-left: 39%; padding-right: 14%; padding-top: 45%; padding-bottom: 7%\">+</p>"	"1031"	n/a	n/a	n/a	n/a	n/a	n/a	n/a	n/a	n/a
n/a	"image-keyboard-response"	"203"	"448668"	"0.0-6.0-2.0-1.9"	"gnv9tb"	"600"	"1366"	"chrome"	"109.0.0"	"FALSE"	"Windows 10"	"60.77"	"004"	n/a	n/a	n/a	n/a	n/a	n/a	"Trial"	n/a	n/a	n/a	"511"	"arrowup"	n/a	"NULL"	"NULL"	"NULL"	"stimuli/MullerLyer_-20.04286_0.35000.png"	n/a	"MullerLyer"	"arrowup"	"1036"	"TRUE"	"MullerLyer"	"-20.04286000"	"0.3500000000"	"2"	"10"
n/a	"html-keyboard-response"	"204"	"449875"	"0.0-6.0-2.0-0.10"	"gnv9tb"	"600"	"1366"	"chrome"	"109.0.0"	"FALSE"	"Windows 10"	"60.77"	"004"	n/a	n/a	n/a	n/a	n/a	n/a	"fixation"	n/a	n/a	n/a	n/a	"NULL"	n/a	"NULL"	"NULL"	"NULL"	"<p style=\"color: black; font-size: 80px; padding-left: 21%; padding-right: 19%; padding-top: 1%; padding-bottom: 21%\">+</p>"	"1197"	n/a	n/a	n/a	n/a	n/a	n/a	n/a	n/a	n/a
n/a	"image-keyboard-response"	"205"	"450419"	"0.0-6.0-2.0-1.10"	"gnv9tb"	"600"	"1366"	"chrome"	"109.0.0"	"FALSE"	"Windows 10"	"60.77"	"004"	n/a	n/a	n/a	n/a	n/a	n/a	"Trial"	n/a	n/a	n/a	"543"	"arrowdown"	n/a	"NULL"	"NULL"	"NULL"	"stimuli/MullerLyer_8.21429_-0.3500.png"	n/a	"MullerLyer"	"arrowdown"	"1207"	"TRUE"	"MullerLyer"	"8.2142900000"	"-0.350000000"	"2"	"11"
n/a	"html-keyboard-response"	"206"	"451850"	"0.0-6.0-2.0-0.11"	"gnv9tb"	"600"	"1366"	"chrome"	"109.0.0"	"FALSE"	"Windows 10"	"60.77"	"004"	n/a	n/a	n/a	n/a	n/a	n/a	"fixation"	n/a	n/a	n/a	n/a	"NULL"	n/a	"NULL"	"NULL"	"NULL"	"<p style=\"color: black; font-size: 80px; padding-left: 4%; padding-right: 5%; padding-top: 29%; padding-bottom: 18%\">+</p>"	"1420"	n/a	n/a	n/a	n/a	n/a	n/a	n/a	n/a	n/a
n/a	"image-keyboard-response"	"207"	"452340"	"0.0-6.0-2.0-1.11"	"gnv9tb"	"600"	"1366"	"chrome"	"109.0.0"	"FALSE"	"Windows 10"	"60.77"	"004"	n/a	n/a	n/a	n/a	n/a	n/a	"Trial"	n/a	n/a	n/a	"489"	"arrowup"	n/a	"NULL"	"NULL"	"NULL"	"stimuli/MullerLyer_14.12857_-0.14541.png"	n/a	"MullerLyer"	"arrowdown"	"1431"	"FALSE"	"MullerLyer"	"14.128570000"	"-0.145410000"	"2"	"12"
n/a	"html-keyboard-response"	"208"	"453746"	"0.0-6.0-2.0-0.12"	"gnv9tb"	"600"	"1366"	"chrome"	"109.0.0"	"FALSE"	"Windows 10"	"60.77"	"004"	n/a	n/a	n/a	n/a	n/a	n/a	"fixation"	n/a	n/a	n/a	n/a	"NULL"	n/a	"NULL"	"NULL"	"NULL"	"<p style=\"color: black; font-size: 80px; padding-left: 19%; padding-right: 28%; padding-top: 26%; padding-bottom: 32%\">+</p>"	"1389"	n/a	n/a	n/a	n/a	n/a	n/a	n/a	n/a	n/a
n/a	"image-keyboard-response"	"209"	"454106"	"0.0-6.0-2.0-1.12"	"gnv9tb"	"600"	"1366"	"chrome"	"109.0.0"	"FALSE"	"Windows 10"	"60.77"	"004"	n/a	n/a	n/a	n/a	n/a	n/a	"Trial"	n/a	n/a	n/a	"359"	"arrowdown"	n/a	"NULL"	"NULL"	"NULL"	"stimuli/MullerLyer_20.04286_-0.07627.png"	n/a	"MullerLyer"	"arrowdown"	"1406"	"TRUE"	"MullerLyer"	"20.042860000"	"-0.076270000"	"2"	"13"
n/a	"html-keyboard-response"	"210"	"455154"	"0.0-6.0-2.0-0.13"	"gnv9tb"	"600"	"1366"	"chrome"	"109.0.0"	"FALSE"	"Windows 10"	"60.77"	"004"	n/a	n/a	n/a	n/a	n/a	n/a	"fixation"	n/a	n/a	n/a	n/a	"NULL"	n/a	"NULL"	"NULL"	"NULL"	"<p style=\"color: black; font-size: 80px; padding-left: 5%; padding-right: 49%; padding-top: 45%; padding-bottom: 29%\">+</p>"	"1038"	n/a	n/a	n/a	n/a	n/a	n/a	n/a	n/a	n/a
n/a	"image-keyboard-response"	"211"	"455844"	"0.0-6.0-2.0-1.13"	"gnv9tb"	"600"	"1366"	"chrome"	"109.0.0"	"FALSE"	"Windows 10"	"60.77"	"004"	n/a	n/a	n/a	n/a	n/a	n/a	"Trial"	n/a	n/a	n/a	"689"	"arrowdown"	n/a	"NULL"	"NULL"	"NULL"	"stimuli/MullerLyer_20.04286_0.07627.png"	n/a	"MullerLyer"	"arrowup"	"1048"	"FALSE"	"MullerLyer"	"20.042860000"	"0.0762700000"	"2"	"14"
n/a	"html-keyboard-response"	"212"	"457361"	"0.0-6.0-2.0-0.14"	"gnv9tb"	"600"	"1366"	"chrome"	"109.0.0"	"FALSE"	"Windows 10"	"60.77"	"004"	n/a	n/a	n/a	n/a	n/a	n/a	"fixation"	n/a	n/a	n/a	n/a	"NULL"	n/a	"NULL"	"NULL"	"NULL"	"<p style=\"color: black; font-size: 80px; padding-left: 26%; padding-right: 49%; padding-top: 9%; padding-bottom: 42%\">+</p>"	"1498"	n/a	n/a	n/a	n/a	n/a	n/a	n/a	n/a	n/a
n/a	"image-keyboard-response"	"213"	"457983"	"0.0-6.0-2.0-1.14"	"gnv9tb"	"600"	"1366"	"chrome"	"109.0.0"	"FALSE"	"Windows 10"	"60.77"	"004"	n/a	n/a	n/a	n/a	n/a	n/a	"Trial"	n/a	n/a	n/a	"621"	"arrowdown"	n/a	"NULL"	"NULL"	"NULL"	"stimuli/MullerLyer_8.21429_0.14541.png"	n/a	"MullerLyer"	"arrowup"	"1517"	"FALSE"	"MullerLyer"	"8.2142900000"	"0.1454100000"	"2"	"15"
n/a	"html-keyboard-response"	"214"	"459217"	"0.0-6.0-2.0-0.15"	"gnv9tb"	"600"	"1366"	"chrome"	"109.0.0"	"FALSE"	"Windows 10"	"60.77"	"004"	n/a	n/a	n/a	n/a	n/a	n/a	"fixation"	n/a	n/a	n/a	n/a	"NULL"	n/a	"NULL"	"NULL"	"NULL"	"<p style=\"color: black; font-size: 80px; padding-left: 14%; padding-right: 44%; padding-top: 32%; padding-bottom: 42%\">+</p>"	"1216"	n/a	n/a	n/a	n/a	n/a	n/a	n/a	n/a	n/a
n/a	"image-keyboard-response"	"215"	"459967"	"0.0-6.0-2.0-1.15"	"gnv9tb"	"600"	"1366"	"chrome"	"109.0.0"	"FALSE"	"Windows 10"	"60.77"	"004"	n/a	n/a	n/a	n/a	n/a	n/a	"Trial"	n/a	n/a	n/a	"749"	"arrowdown"	n/a	"NULL"	"NULL"	"NULL"	"stimuli/MullerLyer_-2.3000_-0.23665.png"	n/a	"MullerLyer"	"arrowdown"	"1234"	"TRUE"	"MullerLyer"	"-2.300000000"	"-0.236650000"	"2"	"16"
n/a	"html-keyboard-response"	"216"	"461127"	"0.0-6.0-2.0-0.16"	"gnv9tb"	"600"	"1366"	"chrome"	"109.0.0"	"FALSE"	"Windows 10"	"60.77"	"004"	n/a	n/a	n/a	n/a	n/a	n/a	"fixation"	n/a	n/a	n/a	n/a	"NULL"	n/a	"NULL"	"NULL"	"NULL"	"<p style=\"color: black; font-size: 80px; padding-left: 2%; padding-right: 49%; padding-top: 20%; padding-bottom: 47%\">+</p>"	"1146"	n/a	n/a	n/a	n/a	n/a	n/a	n/a	n/a	n/a
n/a	"image-keyboard-response"	"217"	"461814"	"0.0-6.0-2.0-1.16"	"gnv9tb"	"600"	"1366"	"chrome"	"109.0.0"	"FALSE"	"Windows 10"	"60.77"	"004"	n/a	n/a	n/a	n/a	n/a	n/a	"Trial"	n/a	n/a	n/a	"686"	"arrowup"	n/a	"NULL"	"NULL"	"NULL"	"stimuli/MullerLyer_2.30000_0.14541.png"	n/a	"MullerLyer"	"arrowup"	"1160"	"TRUE"	"MullerLyer"	"2.3000000000"	"0.1454100000"	"2"	"17"
n/a	"html-keyboard-response"	"218"	"462909"	"0.0-6.0-2.0-0.17"	"gnv9tb"	"600"	"1366"	"chrome"	"109.0.0"	"FALSE"	"Windows 10"	"60.77"	"004"	n/a	n/a	n/a	n/a	n/a	n/a	"fixation"	n/a	n/a	n/a	n/a	"NULL"	n/a	"NULL"	"NULL"	"NULL"	"<p style=\"color: black; font-size: 80px; padding-left: 44%; padding-right: 7%; padding-top: 10%; padding-bottom: 46%\">+</p>"	"1089"	n/a	n/a	n/a	n/a	n/a	n/a	n/a	n/a	n/a
n/a	"image-keyboard-response"	"219"	"463439"	"0.0-6.0-2.0-1.17"	"gnv9tb"	"600"	"1366"	"chrome"	"109.0.0"	"FALSE"	"Windows 10"	"60.77"	"004"	n/a	n/a	n/a	n/a	n/a	n/a	"Trial"	n/a	n/a	n/a	"529"	"arrowdown"	n/a	"NULL"	"NULL"	"NULL"	"stimuli/MullerLyer_-8.21429_-0.07627.png"	n/a	"MullerLyer"	"arrowdown"	"1095"	"TRUE"	"MullerLyer"	"-8.214290000"	"-0.076270000"	"2"	"18"
n/a	"html-keyboard-response"	"220"	"464582"	"0.0-6.0-2.0-0.18"	"gnv9tb"	"600"	"1366"	"chrome"	"109.0.0"	"FALSE"	"Windows 10"	"60.77"	"004"	n/a	n/a	n/a	n/a	n/a	n/a	"fixation"	n/a	n/a	n/a	n/a	"NULL"	n/a	"NULL"	"NULL"	"NULL"	"<p style=\"color: black; font-size: 80px; padding-left: 5%; padding-right: 16%; padding-top: 27%; padding-bottom: 48%\">+</p>"	"1131"	n/a	n/a	n/a	n/a	n/a	n/a	n/a	n/a	n/a
n/a	"image-keyboard-response"	"221"	"465096"	"0.0-6.0-2.0-1.18"	"gnv9tb"	"600"	"1366"	"chrome"	"109.0.0"	"FALSE"	"Windows 10"	"60.77"	"004"	n/a	n/a	n/a	n/a	n/a	n/a	"Trial"	n/a	n/a	n/a	"513"	"arrowdown"	n/a	"NULL"	"NULL"	"NULL"	"stimuli/MullerLyer_-8.21429_-0.3500.png"	n/a	"MullerLyer"	"arrowdown"	"1143"	"TRUE"	"MullerLyer"	"-8.214290000"	"-0.350000000"	"2"	"19"
n/a	"html-keyboard-response"	"222"	"466207"	"0.0-6.0-2.0-0.19"	"gnv9tb"	"600"	"1366"	"chrome"	"109.0.0"	"FALSE"	"Windows 10"	"60.77"	"004"	n/a	n/a	n/a	n/a	n/a	n/a	"fixation"	n/a	n/a	n/a	n/a	"NULL"	n/a	"NULL"	"NULL"	"NULL"	"<p style=\"color: black; font-size: 80px; padding-left: 36%; padding-right: 17%; padding-top: 49%; padding-bottom: 40%\">+</p>"	"1096"	n/a	n/a	n/a	n/a	n/a	n/a	n/a	n/a	n/a
n/a	"image-keyboard-response"	"223"	"466939"	"0.0-6.0-2.0-1.19"	"gnv9tb"	"600"	"1366"	"chrome"	"109.0.0"	"FALSE"	"Windows 10"	"60.77"	"004"	n/a	n/a	n/a	n/a	n/a	n/a	"Trial"	n/a	n/a	n/a	"729"	"arrowup"	n/a	"NULL"	"NULL"	"NULL"	"stimuli/MullerLyer_8.21429_-0.23665.png"	n/a	"MullerLyer"	"arrowdown"	"1111"	"FALSE"	"MullerLyer"	"8.2142900000"	"-0.236650000"	"2"	"20"
n/a	"html-keyboard-response"	"224"	"468245"	"0.0-6.0-2.0-0.20"	"gnv9tb"	"600"	"1366"	"chrome"	"109.0.0"	"FALSE"	"Windows 10"	"60.77"	"004"	n/a	n/a	n/a	n/a	n/a	n/a	"fixation"	n/a	n/a	n/a	n/a	"NULL"	n/a	"NULL"	"NULL"	"NULL"	"<p style=\"color: black; font-size: 80px; padding-left: 7%; padding-right: 26%; padding-top: 19%; padding-bottom: 41%\">+</p>"	"1300"	n/a	n/a	n/a	n/a	n/a	n/a	n/a	n/a	n/a
n/a	"image-keyboard-response"	"225"	"468802"	"0.0-6.0-2.0-1.20"	"gnv9tb"	"600"	"1366"	"chrome"	"109.0.0"	"FALSE"	"Windows 10"	"60.77"	"004"	n/a	n/a	n/a	n/a	n/a	n/a	"Trial"	n/a	n/a	n/a	"556"	"arrowup"	n/a	"NULL"	"NULL"	"NULL"	"stimuli/MullerLyer_-8.21429_0.14541.png"	n/a	"MullerLyer"	"arrowup"	"1306"	"TRUE"	"MullerLyer"	"-8.214290000"	"0.1454100000"	"2"	"21"
n/a	"html-keyboard-response"	"226"	"469894"	"0.0-6.0-2.0-0.21"	"gnv9tb"	"600"	"1366"	"chrome"	"109.0.0"	"FALSE"	"Windows 10"	"60.77"	"004"	n/a	n/a	n/a	n/a	n/a	n/a	"fixation"	n/a	n/a	n/a	n/a	"NULL"	n/a	"NULL"	"NULL"	"NULL"	"<p style=\"color: black; font-size: 80px; padding-left: 40%; padding-right: 23%; padding-top: 37%; padding-bottom: 4%\">+</p>"	"1082"	n/a	n/a	n/a	n/a	n/a	n/a	n/a	n/a	n/a
n/a	"image-keyboard-response"	"227"	"470571"	"0.0-6.0-2.0-1.21"	"gnv9tb"	"600"	"1366"	"chrome"	"109.0.0"	"FALSE"	"Windows 10"	"60.77"	"004"	n/a	n/a	n/a	n/a	n/a	n/a	"Trial"	n/a	n/a	n/a	"676"	"arrowup"	n/a	"NULL"	"NULL"	"NULL"	"stimuli/MullerLyer_-8.21429_0.07627.png"	n/a	"MullerLyer"	"arrowup"	"1092"	"TRUE"	"MullerLyer"	"-8.214290000"	"0.0762700000"	"2"	"22"
n/a	"html-keyboard-response"	"228"	"472016"	"0.0-6.0-2.0-0.22"	"gnv9tb"	"600"	"1366"	"chrome"	"109.0.0"	"FALSE"	"Windows 10"	"60.77"	"004"	n/a	n/a	n/a	n/a	n/a	n/a	"fixation"	n/a	n/a	n/a	n/a	"NULL"	n/a	"NULL"	"NULL"	"NULL"	"<p style=\"color: black; font-size: 80px; padding-left: 10%; padding-right: 49%; padding-top: 47%; padding-bottom: 20%\">+</p>"	"1434"	n/a	n/a	n/a	n/a	n/a	n/a	n/a	n/a	n/a
n/a	"image-keyboard-response"	"229"	"472750"	"0.0-6.0-2.0-1.22"	"gnv9tb"	"600"	"1366"	"chrome"	"109.0.0"	"FALSE"	"Windows 10"	"60.77"	"004"	n/a	n/a	n/a	n/a	n/a	n/a	"Trial"	n/a	n/a	n/a	"733"	"arrowup"	n/a	"NULL"	"NULL"	"NULL"	"stimuli/MullerLyer_8.21429_-0.07627.png"	n/a	"MullerLyer"	"arrowdown"	"1445"	"FALSE"	"MullerLyer"	"8.2142900000"	"-0.076270000"	"2"	"23"
n/a	"html-keyboard-response"	"230"	"474184"	"0.0-6.0-2.0-0.23"	"gnv9tb"	"600"	"1366"	"chrome"	"109.0.0"	"FALSE"	"Windows 10"	"60.77"	"004"	n/a	n/a	n/a	n/a	n/a	n/a	"fixation"	n/a	n/a	n/a	n/a	"NULL"	n/a	"NULL"	"NULL"	"NULL"	"<p style=\"color: black; font-size: 80px; padding-left: 14%; padding-right: 39%; padding-top: 27%; padding-bottom: 22%\">+</p>"	"1420"	n/a	n/a	n/a	n/a	n/a	n/a	n/a	n/a	n/a
n/a	"image-keyboard-response"	"231"	"475199"	"0.0-6.0-2.0-1.23"	"gnv9tb"	"600"	"1366"	"chrome"	"109.0.0"	"FALSE"	"Windows 10"	"60.77"	"004"	n/a	n/a	n/a	n/a	n/a	n/a	"Trial"	n/a	n/a	n/a	"1014"	"arrowdown"	n/a	"NULL"	"NULL"	"NULL"	"stimuli/MullerLyer_-2.3000_-0.07627.png"	n/a	"MullerLyer"	"arrowdown"	"1434"	"TRUE"	"MullerLyer"	"-2.300000000"	"-0.076270000"	"2"	"24"
n/a	"html-keyboard-response"	"232"	"476390"	"0.0-6.0-2.0-0.24"	"gnv9tb"	"600"	"1366"	"chrome"	"109.0.0"	"FALSE"	"Windows 10"	"60.77"	"004"	n/a	n/a	n/a	n/a	n/a	n/a	"fixation"	n/a	n/a	n/a	n/a	"NULL"	n/a	"NULL"	"NULL"	"NULL"	"<p style=\"color: black; font-size: 80px; padding-left: 7%; padding-right: 24%; padding-top: 41%; padding-bottom: 11%\">+</p>"	"1172"	n/a	n/a	n/a	n/a	n/a	n/a	n/a	n/a	n/a
n/a	"image-keyboard-response"	"233"	"477083"	"0.0-6.0-2.0-1.24"	"gnv9tb"	"600"	"1366"	"chrome"	"109.0.0"	"FALSE"	"Windows 10"	"60.77"	"004"	n/a	n/a	n/a	n/a	n/a	n/a	"Trial"	n/a	n/a	n/a	"691"	"arrowup"	n/a	"NULL"	"NULL"	"NULL"	"stimuli/MullerLyer_-2.3000_0.23665.png"	n/a	"MullerLyer"	"arrowup"	"1191"	"TRUE"	"MullerLyer"	"-2.300000000"	"0.2366500000"	"2"	"25"
n/a	"html-keyboard-response"	"234"	"478394"	"0.0-6.0-2.0-0.25"	"gnv9tb"	"600"	"1366"	"chrome"	"109.0.0"	"FALSE"	"Windows 10"	"60.77"	"004"	n/a	n/a	n/a	n/a	n/a	n/a	"fixation"	n/a	n/a	n/a	n/a	"NULL"	n/a	"NULL"	"NULL"	"NULL"	"<p style=\"color: black; font-size: 80px; padding-left: 46%; padding-right: 11%; padding-top: 37%; padding-bottom: 19%\">+</p>"	"1296"	n/a	n/a	n/a	n/a	n/a	n/a	n/a	n/a	n/a
n/a	"image-keyboard-response"	"235"	"479384"	"0.0-6.0-2.0-1.25"	"gnv9tb"	"600"	"1366"	"chrome"	"109.0.0"	"FALSE"	"Windows 10"	"60.77"	"004"	n/a	n/a	n/a	n/a	n/a	n/a	"Trial"	n/a	n/a	n/a	"989"	"arrowdown"	n/a	"NULL"	"NULL"	"NULL"	"stimuli/MullerLyer_14.12857_0.14541.png"	n/a	"MullerLyer"	"arrowup"	"1311"	"FALSE"	"MullerLyer"	"14.128570000"	"0.1454100000"	"2"	"26"
n/a	"html-keyboard-response"	"236"	"480673"	"0.0-6.0-2.0-0.26"	"gnv9tb"	"600"	"1366"	"chrome"	"109.0.0"	"FALSE"	"Windows 10"	"60.77"	"004"	n/a	n/a	n/a	n/a	n/a	n/a	"fixation"	n/a	n/a	n/a	n/a	"NULL"	n/a	"NULL"	"NULL"	"NULL"	"<p style=\"color: black; font-size: 80px; padding-left: 18%; padding-right: 26%; padding-top: 21%; padding-bottom: 30%\">+</p>"	"1279"	n/a	n/a	n/a	n/a	n/a	n/a	n/a	n/a	n/a
n/a	"image-keyboard-response"	"237"	"481291"	"0.0-6.0-2.0-1.26"	"gnv9tb"	"600"	"1366"	"chrome"	"109.0.0"	"FALSE"	"Windows 10"	"60.77"	"004"	n/a	n/a	n/a	n/a	n/a	n/a	"Trial"	n/a	n/a	n/a	"617"	"arrowup"	n/a	"NULL"	"NULL"	"NULL"	"stimuli/MullerLyer_-20.04286_0.07627.png"	n/a	"MullerLyer"	"arrowup"	"1289"	"TRUE"	"MullerLyer"	"-20.04286000"	"0.0762700000"	"2"	"27"
n/a	"html-keyboard-response"	"238"	"482704"	"0.0-6.0-2.0-0.27"	"gnv9tb"	"600"	"1366"	"chrome"	"109.0.0"	"FALSE"	"Windows 10"	"60.77"	"004"	n/a	n/a	n/a	n/a	n/a	n/a	"fixation"	n/a	n/a	n/a	n/a	"NULL"	n/a	"NULL"	"NULL"	"NULL"	"<p style=\"color: black; font-size: 80px; padding-left: 26%; padding-right: 6%; padding-top: 36%; padding-bottom: 42%\">+</p>"	"1398"	n/a	n/a	n/a	n/a	n/a	n/a	n/a	n/a	n/a
n/a	"image-keyboard-response"	"239"	"483336"	"0.0-6.0-2.0-1.27"	"gnv9tb"	"600"	"1366"	"chrome"	"109.0.0"	"FALSE"	"Windows 10"	"60.77"	"004"	n/a	n/a	n/a	n/a	n/a	n/a	"Trial"	n/a	n/a	n/a	"623"	"arrowup"	n/a	"NULL"	"NULL"	"NULL"	"stimuli/MullerLyer_-2.3000_0.35000.png"	n/a	"MullerLyer"	"arrowup"	"1413"	"TRUE"	"MullerLyer"	"-2.300000000"	"0.3500000000"	"2"	"28"
n/a	"html-keyboard-response"	"240"	"484640"	"0.0-6.0-2.0-0.28"	"gnv9tb"	"600"	"1366"	"chrome"	"109.0.0"	"FALSE"	"Windows 10"	"60.77"	"004"	n/a	n/a	n/a	n/a	n/a	n/a	"fixation"	n/a	n/a	n/a	n/a	"NULL"	n/a	"NULL"	"NULL"	"NULL"	"<p style=\"color: black; font-size: 80px; padding-left: 30%; padding-right: 43%; padding-top: 49%; padding-bottom: 40%\">+</p>"	"1285"	n/a	n/a	n/a	n/a	n/a	n/a	n/a	n/a	n/a
n/a	"image-keyboard-response"	"241"	"485422"	"0.0-6.0-2.0-1.28"	"gnv9tb"	"600"	"1366"	"chrome"	"109.0.0"	"FALSE"	"Windows 10"	"60.77"	"004"	n/a	n/a	n/a	n/a	n/a	n/a	"Trial"	n/a	n/a	n/a	"781"	"arrowdown"	n/a	"NULL"	"NULL"	"NULL"	"stimuli/MullerLyer_20.04286_0.35000.png"	n/a	"MullerLyer"	"arrowup"	"1304"	"FALSE"	"MullerLyer"	"20.042860000"	"0.3500000000"	"2"	"29"
n/a	"html-keyboard-response"	"242"	"486872"	"0.0-6.0-2.0-0.29"	"gnv9tb"	"600"	"1366"	"chrome"	"109.0.0"	"FALSE"	"Windows 10"	"60.77"	"004"	n/a	n/a	n/a	n/a	n/a	n/a	"fixation"	n/a	n/a	n/a	n/a	"NULL"	n/a	"NULL"	"NULL"	"NULL"	"<p style=\"color: black; font-size: 80px; padding-left: 19%; padding-right: 48%; padding-top: 34%; padding-bottom: 30%\">+</p>"	"1444"	n/a	n/a	n/a	n/a	n/a	n/a	n/a	n/a	n/a
n/a	"image-keyboard-response"	"243"	"487408"	"0.0-6.0-2.0-1.29"	"gnv9tb"	"600"	"1366"	"chrome"	"109.0.0"	"FALSE"	"Windows 10"	"60.77"	"004"	n/a	n/a	n/a	n/a	n/a	n/a	"Trial"	n/a	n/a	n/a	"536"	"arrowdown"	n/a	"NULL"	"NULL"	"NULL"	"stimuli/MullerLyer_14.12857_0.07627.png"	n/a	"MullerLyer"	"arrowup"	"1450"	"FALSE"	"MullerLyer"	"14.128570000"	"0.0762700000"	"2"	"30"
n/a	"html-keyboard-response"	"244"	"488814"	"0.0-6.0-2.0-0.30"	"gnv9tb"	"600"	"1366"	"chrome"	"109.0.0"	"FALSE"	"Windows 10"	"60.77"	"004"	n/a	n/a	n/a	n/a	n/a	n/a	"fixation"	n/a	n/a	n/a	n/a	"NULL"	n/a	"NULL"	"NULL"	"NULL"	"<p style=\"color: black; font-size: 80px; padding-left: 0%; padding-right: 14%; padding-top: 3%; padding-bottom: 12%\">+</p>"	"1392"	n/a	n/a	n/a	n/a	n/a	n/a	n/a	n/a	n/a
n/a	"image-keyboard-response"	"245"	"489387"	"0.0-6.0-2.0-1.30"	"gnv9tb"	"600"	"1366"	"chrome"	"109.0.0"	"FALSE"	"Windows 10"	"60.77"	"004"	n/a	n/a	n/a	n/a	n/a	n/a	"Trial"	n/a	n/a	n/a	"572"	"arrowup"	n/a	"NULL"	"NULL"	"NULL"	"stimuli/MullerLyer_-20.04286_0.14541.png"	n/a	"MullerLyer"	"arrowup"	"1406"	"TRUE"	"MullerLyer"	"-20.04286000"	"0.1454100000"	"2"	"31"
n/a	"html-keyboard-response"	"246"	"490532"	"0.0-6.0-2.0-0.31"	"gnv9tb"	"600"	"1366"	"chrome"	"109.0.0"	"FALSE"	"Windows 10"	"60.77"	"004"	n/a	n/a	n/a	n/a	n/a	n/a	"fixation"	n/a	n/a	n/a	n/a	"NULL"	n/a	"NULL"	"NULL"	"NULL"	"<p style=\"color: black; font-size: 80px; padding-left: 17%; padding-right: 14%; padding-top: 27%; padding-bottom: 39%\">+</p>"	"1137"	n/a	n/a	n/a	n/a	n/a	n/a	n/a	n/a	n/a
n/a	"image-keyboard-response"	"247"	"491093"	"0.0-6.0-2.0-1.31"	"gnv9tb"	"600"	"1366"	"chrome"	"109.0.0"	"FALSE"	"Windows 10"	"60.77"	"004"	n/a	n/a	n/a	n/a	n/a	n/a	"Trial"	n/a	n/a	n/a	"560"	"arrowdown"	n/a	"NULL"	"NULL"	"NULL"	"stimuli/MullerLyer_-20.04286_-0.07627.png"	n/a	"MullerLyer"	"arrowdown"	"1145"	"TRUE"	"MullerLyer"	"-20.04286000"	"-0.076270000"	"2"	"32"
n/a	"html-keyboard-response"	"248"	"492444"	"0.0-6.0-2.0-0.32"	"gnv9tb"	"600"	"1366"	"chrome"	"109.0.0"	"FALSE"	"Windows 10"	"60.77"	"004"	n/a	n/a	n/a	n/a	n/a	n/a	"fixation"	n/a	n/a	n/a	n/a	"NULL"	n/a	"NULL"	"NULL"	"NULL"	"<p style=\"color: black; font-size: 80px; padding-left: 9%; padding-right: 24%; padding-top: 15%; padding-bottom: 13%\">+</p>"	"1347"	n/a	n/a	n/a	n/a	n/a	n/a	n/a	n/a	n/a
n/a	"image-keyboard-response"	"249"	"492976"	"0.0-6.0-2.0-1.32"	"gnv9tb"	"600"	"1366"	"chrome"	"109.0.0"	"FALSE"	"Windows 10"	"60.77"	"004"	n/a	n/a	n/a	n/a	n/a	n/a	"Trial"	n/a	n/a	n/a	"531"	"arrowup"	n/a	"NULL"	"NULL"	"NULL"	"stimuli/MullerLyer_-8.21429_0.23665.png"	n/a	"MullerLyer"	"arrowup"	"1351"	"TRUE"	"MullerLyer"	"-8.214290000"	"0.2366500000"	"2"	"33"
n/a	"html-keyboard-response"	"250"	"494249"	"0.0-6.0-2.0-0.33"	"gnv9tb"	"600"	"1366"	"chrome"	"109.0.0"	"FALSE"	"Windows 10"	"60.77"	"004"	n/a	n/a	n/a	n/a	n/a	n/a	"fixation"	n/a	n/a	n/a	n/a	"NULL"	n/a	"NULL"	"NULL"	"NULL"	"<p style=\"color: black; font-size: 80px; padding-left: 29%; padding-right: 2%; padding-top: 48%; padding-bottom: 14%\">+</p>"	"1252"	n/a	n/a	n/a	n/a	n/a	n/a	n/a	n/a	n/a
n/a	"image-keyboard-response"	"251"	"494766"	"0.0-6.0-2.0-1.33"	"gnv9tb"	"600"	"1366"	"chrome"	"109.0.0"	"FALSE"	"Windows 10"	"60.77"	"004"	n/a	n/a	n/a	n/a	n/a	n/a	"Trial"	n/a	n/a	n/a	"516"	"arrowdown"	n/a	"NULL"	"NULL"	"NULL"	"stimuli/MullerLyer_20.04286_0.23665.png"	n/a	"MullerLyer"	"arrowup"	"1273"	"FALSE"	"MullerLyer"	"20.042860000"	"0.2366500000"	"2"	"34"
n/a	"html-keyboard-response"	"252"	"495831"	"0.0-6.0-2.0-0.34"	"gnv9tb"	"600"	"1366"	"chrome"	"109.0.0"	"FALSE"	"Windows 10"	"60.77"	"004"	n/a	n/a	n/a	n/a	n/a	n/a	"fixation"	n/a	n/a	n/a	n/a	"NULL"	n/a	"NULL"	"NULL"	"NULL"	"<p style=\"color: black; font-size: 80px; padding-left: 1%; padding-right: 41%; padding-top: 43%; padding-bottom: 4%\">+</p>"	"1061"	n/a	n/a	n/a	n/a	n/a	n/a	n/a	n/a	n/a
n/a	"image-keyboard-response"	"253"	"496405"	"0.0-6.0-2.0-1.34"	"gnv9tb"	"600"	"1366"	"chrome"	"109.0.0"	"FALSE"	"Windows 10"	"60.77"	"004"	n/a	n/a	n/a	n/a	n/a	n/a	"Trial"	n/a	n/a	n/a	"573"	"arrowdown"	n/a	"NULL"	"NULL"	"NULL"	"stimuli/MullerLyer_-14.12857_-0.07627.png"	n/a	"MullerLyer"	"arrowdown"	"1065"	"TRUE"	"MullerLyer"	"-14.12857000"	"-0.076270000"	"2"	"35"
